usingWebGL,participant,session,date,expName,psychopyVersion,OS,frameRate,study_id,signatures_friend,signatures_foe,band_ranges_top,band_ranges_bottom,formitemText,formtype,formundefined,formitemWidth,formindex,formresponse,formrt,key_resp_2.keys,key_resp_2.rt,tute_resp.keys,tute_resp.rt,tutorial.thisRepN,tutorial.thisTrialN,tutorial.thisN,tutorial.thisIndex,tutorial.ran,key_resp_4.keys,key_resp_4.rt,key_resp.keys,key_resp.corr,key_resp.rt,lines_presented,is_signal_presented,trials.thisRepN,trials.thisTrialN,trials.thisN,trials.thisIndex,trials.ran,vessel,active_band,lines,is_signal,supported_pos,catch_trial,debrief_formindex,debrief_formitemText,debrief_formtype,debrief_formitemWidth,debrief_formresponse,debrief_formrt,phases.thisRepN,phases.thisTrialN,phases.thisN,phases.thisIndex,phases.ran,phases.order,phase,key_resp_3.keys,trustitemText,trusttype,trustitemWidth,trustindex,trustresponse,trustrt,support_status.thisRepN,support_status.thisTrialN,support_status.thisN,support_status.thisIndex,support_status.ran,support_status.order,key_resp_5.keys,key_resp_5.rt,globalClockTime,userAgent,manualCondition
TRUE,58afadc49f78e200018fa48d,627c82cc5e3dc141ac15ff29,2022-05-11_23h45.39.862,classification_task,2021.2.3,Win32,59.87665409,627c6715c52fd12f31907bcf,,,,,,,,,,,,,,,,,,,,,,,,,,,,,,,,,,,,,,,,,,,,,,,,,,,,,,,,,,,,,,,,,,,,,
,58afadc49f78e200018fa48d,627c82cc5e3dc141ac15ff29,2022-05-11_23h45.39.862,classification_task,2021.2.3,Win32,59.87665409,627c6715c52fd12f31907bcf,"[[""0.250"",""0.328"",""0.851"",""0.920""],[""0.191"",""0.482"",""0.581"",""0.886""]]","[[""0.132"",""0.384"",""0.665"",""0.739""],[""0.066"",""0.429"",""0.528"",""0.704""]]","[1,10]","[100,1000]",Video game experience,,,0.7,0,,,,,,,,,,,,,,,,,,,,,,,,,,,,,,,,,,,,,,,,,,,,,,,,,,,,,,,,,,,,
,58afadc49f78e200018fa48d,627c82cc5e3dc141ac15ff29,2022-05-11_23h45.39.862,classification_task,2021.2.3,Win32,59.87665409,627c6715c52fd12f31907bcf,,,,,Approximately how many hours did you spend playing video games in the last week?,,,0.7,0,6,,,,,,,,,,,,,,,,,,,,,,,,,,,,,,,,,,,,,,,,,,,,,,,,,,,,,,,,,,,
,58afadc49f78e200018fa48d,627c82cc5e3dc141ac15ff29,2022-05-11_23h45.39.862,classification_task,2021.2.3,Win32,59.87665409,627c6715c52fd12f31907bcf,,,,,"Which game did you play the most this year? (Enter ""None"" if you didn't play any)",,,0.7,0,No Man's Sky,,,,,,,,,,,,,,,,,,,,,,,,,,,,,,,,,,,,,,,,,,,,,,,,,,,,,,,,,,,
,58afadc49f78e200018fa48d,627c82cc5e3dc141ac15ff29,2022-05-11_23h45.39.862,classification_task,2021.2.3,Win32,59.87665409,627c6715c52fd12f31907bcf,,,,,Visual perception,,,0.7,0,,,,,,,,,,,,,,,,,,,,,,,,,,,,,,,,,,,,,,,,,,,,,,,,,,,,,,,,,,,,
,58afadc49f78e200018fa48d,627c82cc5e3dc141ac15ff29,2022-05-11_23h45.39.862,classification_task,2021.2.3,Win32,59.87665409,627c6715c52fd12f31907bcf,,,,,Do you have any form of color blindness?,,,0.7,0,No,33.6907,,,,,,,,,,,,,,,,,,,,,,,,,,,,,,,,,,,,,,,,,,,,,,,,,,,,,,,,,,
,58afadc49f78e200018fa48d,627c82cc5e3dc141ac15ff29,2022-05-11_23h45.39.862,classification_task,2021.2.3,Win32,59.87665409,627c6715c52fd12f31907bcf,,,,,Do you use software to change the colour temperature of your screen (e.g. f.lux)?,,,0.7,0,No,35.8464,,,,,,,,,,,,,,,,,,,,,,,,,,,,,,,,,,,,,,,,,,,,,,,,,,,,,,,,,,
,58afadc49f78e200018fa48d,627c82cc5e3dc141ac15ff29,2022-05-11_23h45.39.862,classification_task,2021.2.3,Win32,59.87665409,627c6715c52fd12f31907bcf,,,,,,,,,,,,space,20.7675,space,6.7143,0,0,0,0,1,,,,,,,,,,,,,,,,,,,,,,,,,,,,,,,,,,,,,,,,,,,,,,,,,
,58afadc49f78e200018fa48d,627c82cc5e3dc141ac15ff29,2022-05-11_23h45.39.862,classification_task,2021.2.3,Win32,59.87665409,627c6715c52fd12f31907bcf,,,,,,,,,,,,,,space,12.6959,1,0,1,0,1,,,,,,,,,,,,,,,,,,,,,,,,,,,,,,,,,,,,,,,,,,,,,,,,,
,58afadc49f78e200018fa48d,627c82cc5e3dc141ac15ff29,2022-05-11_23h45.39.862,classification_task,2021.2.3,Win32,59.87665409,627c6715c52fd12f31907bcf,,,,,,,,,,,,,,space,29.8107,2,0,2,0,1,,,,,,,,,,,,,,,,,,,,,,,,,,,,,,,,,,,,,,,,,,,,,,,,,
,58afadc49f78e200018fa48d,627c82cc5e3dc141ac15ff29,2022-05-11_23h45.39.862,classification_task,2021.2.3,Win32,59.87665409,627c6715c52fd12f31907bcf,,,,,,,,,,,,,,space,11.4551,3,0,3,0,1,,,,,,,,,,,,,,,,,,,,,,,,,,,,,,,,,,,,,,,,,,,,,,,,,
,58afadc49f78e200018fa48d,627c82cc5e3dc141ac15ff29,2022-05-11_23h45.39.862,classification_task,2021.2.3,Win32,59.87665409,627c6715c52fd12f31907bcf,,,,,,,,,,,,,,space,17.6995,4,0,4,0,1,,,,,,,,,,,,,,,,,,,,,,,,,,,,,,,,,,,,,,,,,,,,,,,,,
,58afadc49f78e200018fa48d,627c82cc5e3dc141ac15ff29,2022-05-11_23h45.39.862,classification_task,2021.2.3,Win32,59.87665409,627c6715c52fd12f31907bcf,,,,,,,,,,,,,,,,,,,,,space,14.0312,a,1,6.5096,"[""0.191"",""0.482"",""0.581"",""0.776""]","[1,1,1,0]",0,0,0,0,1,0,1,,,1,FALSE,,,,,,,,,,,,,,,,,,,,,,,,,,,,,,,
,58afadc49f78e200018fa48d,627c82cc5e3dc141ac15ff29,2022-05-11_23h45.39.862,classification_task,2021.2.3,Win32,59.87665409,627c6715c52fd12f31907bcf,,,,,,,,,,,,,,,,,,,,,,,l,1,4.9042,"[""0.132"",""0.384"",""0.665"",""0.788""]","[1,1,1,0]",0,1,1,1,1,1,0,,,1,FALSE,,,,,,,,,,,,,,,,,,,,,,,,,,,,,,,
,58afadc49f78e200018fa48d,627c82cc5e3dc141ac15ff29,2022-05-11_23h45.39.862,classification_task,2021.2.3,Win32,59.87665409,627c6715c52fd12f31907bcf,,,,,,,,,,,,,,,,,,,,,,,l,1,3.2161,"[""0.132"",""0.384"",""0.815"",""0.739""]","[1,1,0,1]",0,2,2,2,1,1,0,,,1,FALSE,,,,,,,,,,,,,,,,,,,,,,,,,,,,,,,
,58afadc49f78e200018fa48d,627c82cc5e3dc141ac15ff29,2022-05-11_23h45.39.862,classification_task,2021.2.3,Win32,59.87665409,627c6715c52fd12f31907bcf,,,,,,,,,,,,,,,,,,,,,,,a,1,4.766,"[""0.191"",""0.482"",""0.788"",""0.886""]","[1,1,0,1]",0,3,3,3,1,0,1,,,1,FALSE,,,,,,,,,,,,,,,,,,,,,,,,,,,,,,,
,58afadc49f78e200018fa48d,627c82cc5e3dc141ac15ff29,2022-05-11_23h45.39.862,classification_task,2021.2.3,Win32,59.87665409,627c6715c52fd12f31907bcf,,,,,,,,,,,,,,,,,,,,,,,l,0,3.0441,"[""0.191"",""0.627"",""0.581"",""0.886""]","[1,0,1,1]",0,4,4,4,1,0,1,,,1,FALSE,,,,,,,,,,,,,,,,,,,,,,,,,,,,,,,
,58afadc49f78e200018fa48d,627c82cc5e3dc141ac15ff29,2022-05-11_23h45.39.862,classification_task,2021.2.3,Win32,59.87665409,627c6715c52fd12f31907bcf,,,,,,,,,,,,,,,,,,,,,,,a,1,4.743,"[""0.250"",""0.328"",""0.788"",""0.920""]","[1,1,0,1]",0,5,5,5,1,0,0,,,1,FALSE,,,,,,,,,,,,,,,,,,,,,,,,,,,,,,,
,58afadc49f78e200018fa48d,627c82cc5e3dc141ac15ff29,2022-05-11_23h45.39.862,classification_task,2021.2.3,Win32,59.87665409,627c6715c52fd12f31907bcf,,,,,,,,,,,,,,,,,,,,,,,l,1,2.3471,"[""0.815"",""0.429"",""0.528"",""0.704""]","[0,1,1,1]",0,6,6,6,1,1,1,,,1,FALSE,,,,,,,,,,,,,,,,,,,,,,,,,,,,,,,
,58afadc49f78e200018fa48d,627c82cc5e3dc141ac15ff29,2022-05-11_23h45.39.862,classification_task,2021.2.3,Win32,59.87665409,627c6715c52fd12f31907bcf,,,,,,,,,,,,,,,,,,,,,,,l,0,3.6255,"[""0.250"",""0.783"",""0.851"",""0.920""]","[1,0,1,1]",0,7,7,7,1,0,0,,,1,FALSE,,,,,,,,,,,,,,,,,,,,,,,,,,,,,,,
,58afadc49f78e200018fa48d,627c82cc5e3dc141ac15ff29,2022-05-11_23h45.39.862,classification_task,2021.2.3,Win32,59.87665409,627c6715c52fd12f31907bcf,,,,,,,,,,,,,,,,,,,,,,,l,1,6.0943,"[""0.788"",""0.384"",""0.665"",""0.739""]","[0,1,1,1]",0,8,8,8,1,1,0,,,1,FALSE,,,,,,,,,,,,,,,,,,,,,,,,,,,,,,,
,58afadc49f78e200018fa48d,627c82cc5e3dc141ac15ff29,2022-05-11_23h45.39.862,classification_task,2021.2.3,Win32,59.87665409,627c6715c52fd12f31907bcf,,,,,,,,,,,,,,,,,,,,,,,a,1,7.8153,"[""0.782"",""0.328"",""0.851"",""0.920""]","[0,1,1,1]",0,9,9,9,1,0,0,,,1,FALSE,,,,,,,,,,,,,,,,,,,,,,,,,,,,,,,
,58afadc49f78e200018fa48d,627c82cc5e3dc141ac15ff29,2022-05-11_23h45.39.862,classification_task,2021.2.3,Win32,59.87665409,627c6715c52fd12f31907bcf,,,,,,,,,,,,,,,,,,,,,,,l,1,7.4344,"[""0.066"",""0.970"",""0.528"",""0.704""]","[1,0,1,1]",0,10,10,10,1,1,1,,,1,FALSE,,,,,,,,,,,,,,,,,,,,,,,,,,,,,,,
,58afadc49f78e200018fa48d,627c82cc5e3dc141ac15ff29,2022-05-11_23h45.39.862,classification_task,2021.2.3,Win32,59.87665409,627c6715c52fd12f31907bcf,,,,,,,,,,,,,,,,,,,,,,,a,1,9.3092,"[""0.805"",""0.482"",""0.581"",""0.886""]","[0,1,1,1]",0,11,11,11,1,0,1,,,1,FALSE,,,,,,,,,,,,,,,,,,,,,,,,,,,,,,,
,58afadc49f78e200018fa48d,627c82cc5e3dc141ac15ff29,2022-05-11_23h45.39.862,classification_task,2021.2.3,Win32,59.87665409,627c6715c52fd12f31907bcf,,,,,,,,,,,,,,,,,,,,,,,l,1,3.9912,"[""0.066"",""0.429"",""0.971"",""0.704""]","[1,1,0,1]",0,12,12,12,1,1,1,,,1,FALSE,,,,,,,,,,,,,,,,,,,,,,,,,,,,,,,
,58afadc49f78e200018fa48d,627c82cc5e3dc141ac15ff29,2022-05-11_23h45.39.862,classification_task,2021.2.3,Win32,59.87665409,627c6715c52fd12f31907bcf,,,,,,,,,,,,,,,,,,,,,,,l,1,2.9904,"[""0.066"",""0.429"",""0.528"",""0.782""]","[1,1,1,0]",0,13,13,13,1,1,1,,,1,FALSE,,,,,,,,,,,,,,,,,,,,,,,,,,,,,,,
,58afadc49f78e200018fa48d,627c82cc5e3dc141ac15ff29,2022-05-11_23h45.39.862,classification_task,2021.2.3,Win32,59.87665409,627c6715c52fd12f31907bcf,,,,,,,,,,,,,,,,,,,,,,,l,1,4.3661,"[""0.132"",""0.958"",""0.665"",""0.739""]","[1,0,1,1]",0,14,14,14,1,1,0,,,1,FALSE,,,,,,,,,,,,,,,,,,,,,,,,,,,,,,,
,58afadc49f78e200018fa48d,627c82cc5e3dc141ac15ff29,2022-05-11_23h45.39.862,classification_task,2021.2.3,Win32,59.87665409,627c6715c52fd12f31907bcf,,,,,,,,,,,,,,,,,,,,,,,a,1,2.5964,"[""0.250"",""0.328"",""0.851"",""0.776""]","[1,1,1,0]",0,15,15,15,1,0,0,,,1,FALSE,,,,,,,,,,,,,,,,,,,,,,,,,,,,,,,
,58afadc49f78e200018fa48d,627c82cc5e3dc141ac15ff29,2022-05-11_23h45.39.862,classification_task,2021.2.3,Win32,59.87665409,627c6715c52fd12f31907bcf,,,,,,,,,,,,,,,,,,,,,,,l,1,2.6737,"[""0.132"",""0.384"",""0.665"",""0.800""]","[1,1,1,0]",0,16,16,16,1,1,0,,,1,FALSE,,,,,,,,,,,,,,,,,,,,,,,,,,,,,,,
,58afadc49f78e200018fa48d,627c82cc5e3dc141ac15ff29,2022-05-11_23h45.39.862,classification_task,2021.2.3,Win32,59.87665409,627c6715c52fd12f31907bcf,,,,,,,,,,,,,,,,,,,,,,,l,1,8.1074,"[""0.132"",""0.025"",""0.665"",""0.739""]","[1,0,1,1]",0,17,17,17,1,1,0,,,1,FALSE,,,,,,,,,,,,,,,,,,,,,,,,,,,,,,,
,58afadc49f78e200018fa48d,627c82cc5e3dc141ac15ff29,2022-05-11_23h45.39.862,classification_task,2021.2.3,Win32,59.87665409,627c6715c52fd12f31907bcf,,,,,,,,,,,,,,,,,,,,,,,l,1,4.4256,"[""0.066"",""0.429"",""0.528"",""0.815""]","[1,1,1,0]",0,18,18,18,1,1,1,,,1,FALSE,,,,,,,,,,,,,,,,,,,,,,,,,,,,,,,
,58afadc49f78e200018fa48d,627c82cc5e3dc141ac15ff29,2022-05-11_23h45.39.862,classification_task,2021.2.3,Win32,59.87665409,627c6715c52fd12f31907bcf,,,,,,,,,,,,,,,,,,,,,,,a,1,2.8817,"[""0.250"",""0.328"",""0.851"",""0.811""]","[1,1,1,0]",0,19,19,19,1,0,0,,,1,FALSE,,,,,,,,,,,,,,,,,,,,,,,,,,,,,,,
,58afadc49f78e200018fa48d,627c82cc5e3dc141ac15ff29,2022-05-11_23h45.39.862,classification_task,2021.2.3,Win32,59.87665409,627c6715c52fd12f31907bcf,,,,,,,,,,,,,,,,,,,,,,,a,1,3.6711,"[""0.782"",""0.482"",""0.581"",""0.886""]","[0,1,1,1]",0,20,20,20,1,0,1,,,1,FALSE,,,,,,,,,,,,,,,,,,,,,,,,,,,,,,,
,58afadc49f78e200018fa48d,627c82cc5e3dc141ac15ff29,2022-05-11_23h45.39.862,classification_task,2021.2.3,Win32,59.87665409,627c6715c52fd12f31907bcf,,,,,,,,,,,,,,,,,,,,,,,a,1,5.0658,"[""0.250"",""0.328"",""0.025"",""0.920""]","[1,1,0,1]",0,21,21,21,1,0,0,,,1,FALSE,,,,,,,,,,,,,,,,,,,,,,,,,,,,,,,
,58afadc49f78e200018fa48d,627c82cc5e3dc141ac15ff29,2022-05-11_23h45.39.862,classification_task,2021.2.3,Win32,59.87665409,627c6715c52fd12f31907bcf,,,,,,,,,,,,,,,,,,,,,,,l,1,3.2982,"[""0.132"",""0.384"",""0.971"",""0.739""]","[1,1,0,1]",0,22,22,22,1,1,0,,,1,FALSE,,,,,,,,,,,,,,,,,,,,,,,,,,,,,,,
,58afadc49f78e200018fa48d,627c82cc5e3dc141ac15ff29,2022-05-11_23h45.39.862,classification_task,2021.2.3,Win32,59.87665409,627c6715c52fd12f31907bcf,,,,,,,,,,,,,,,,,,,,,,,a,1,9.5511,"[""0.250"",""0.776"",""0.851"",""0.920""]","[1,0,1,1]",0,23,23,23,1,0,0,,,1,FALSE,,,,,,,,,,,,,,,,,,,,,,,,,,,,,,,
,58afadc49f78e200018fa48d,627c82cc5e3dc141ac15ff29,2022-05-11_23h45.39.862,classification_task,2021.2.3,Win32,59.87665409,627c6715c52fd12f31907bcf,,,,,,,,,,,,,,,,,,,,,,,a,1,5.7978,"[""0.191"",""0.958"",""0.581"",""0.886""]","[1,0,1,1]",0,24,24,24,1,0,1,,,1,FALSE,,,,,,,,,,,,,,,,,,,,,,,,,,,,,,,
,58afadc49f78e200018fa48d,627c82cc5e3dc141ac15ff29,2022-05-11_23h45.39.862,classification_task,2021.2.3,Win32,59.87665409,627c6715c52fd12f31907bcf,,,,,,,,,,,,,,,,,,,,,,,a,1,4.0607,"[""0.191"",""0.482"",""0.782"",""0.886""]","[1,1,0,1]",0,25,25,25,1,0,1,,,1,FALSE,,,,,,,,,,,,,,,,,,,,,,,,,,,,,,,
,58afadc49f78e200018fa48d,627c82cc5e3dc141ac15ff29,2022-05-11_23h45.39.862,classification_task,2021.2.3,Win32,59.87665409,627c6715c52fd12f31907bcf,,,,,,,,,,,,,,,,,,,,,,,l,1,4.7498,"[""0.805"",""0.384"",""0.665"",""0.739""]","[0,1,1,1]",0,26,26,26,1,1,0,,,1,FALSE,,,,,,,,,,,,,,,,,,,,,,,,,,,,,,,
,58afadc49f78e200018fa48d,627c82cc5e3dc141ac15ff29,2022-05-11_23h45.39.862,classification_task,2021.2.3,Win32,59.87665409,627c6715c52fd12f31907bcf,,,,,,,,,,,,,,,,,,,,,,,a,1,3.224,"[""0.788"",""0.328"",""0.851"",""0.920""]","[0,1,1,1]",0,27,27,27,1,0,0,,,1,FALSE,,,,,,,,,,,,,,,,,,,,,,,,,,,,,,,
,58afadc49f78e200018fa48d,627c82cc5e3dc141ac15ff29,2022-05-11_23h45.39.862,classification_task,2021.2.3,Win32,59.87665409,627c6715c52fd12f31907bcf,,,,,,,,,,,,,,,,,,,,,,,l,1,2.2122,"[""0.066"",""0.429"",""0.627"",""0.704""]","[1,1,0,1]",0,28,28,28,1,1,1,,,1,FALSE,,,,,,,,,,,,,,,,,,,,,,,,,,,,,,,
,58afadc49f78e200018fa48d,627c82cc5e3dc141ac15ff29,2022-05-11_23h45.39.862,classification_task,2021.2.3,Win32,59.87665409,627c6715c52fd12f31907bcf,,,,,,,,,,,,,,,,,,,,,,,l,1,1.5564,"[""0.066"",""0.811"",""0.528"",""0.704""]","[1,0,1,1]",0,29,29,29,1,1,1,,,1,FALSE,,,,,,,,,,,,,,,,,,,,,,,,,,,,,,,
,58afadc49f78e200018fa48d,627c82cc5e3dc141ac15ff29,2022-05-11_23h45.39.862,classification_task,2021.2.3,Win32,59.87665409,627c6715c52fd12f31907bcf,,,,,,,,,,,,,,,,,,,,,,,l,1,3.9356,"[""0.811"",""0.429"",""0.528"",""0.704""]","[0,1,1,1]",0,30,30,30,1,1,1,,,1,FALSE,,,,,,,,,,,,,,,,,,,,,,,,,,,,,,,
,58afadc49f78e200018fa48d,627c82cc5e3dc141ac15ff29,2022-05-11_23h45.39.862,classification_task,2021.2.3,Win32,59.87665409,627c6715c52fd12f31907bcf,,,,,,,,,,,,,,,,,,,,,,,a,1,2.8563,"[""0.191"",""0.482"",""0.581"",""0.958""]","[1,1,1,0]",0,31,31,31,1,0,1,,,1,FALSE,,,,,,,,,,,,,,,,,,,,,,,,,,,,,,,
,58afadc49f78e200018fa48d,627c82cc5e3dc141ac15ff29,2022-05-11_23h45.39.862,classification_task,2021.2.3,Win32,59.87665409,627c6715c52fd12f31907bcf,,,,,,,,,,,,,,,,,,,,,,,a,1,5.7422,"[""0.250"",""0.328"",""0.627"",""0.920""]","[1,1,0,1]",0,32,32,32,1,0,0,,,1,FALSE,,,,,,,,,,,,,,,,,,,,,,,,,,,,,,,
,58afadc49f78e200018fa48d,627c82cc5e3dc141ac15ff29,2022-05-11_23h45.39.862,classification_task,2021.2.3,Win32,59.87665409,627c6715c52fd12f31907bcf,,,,,,,,,,,,,,,,,,,,,,,a,1,2.777,"[""0.807"",""0.328"",""0.851"",""0.920""]","[0,1,1,1]",0,33,33,33,1,0,0,,,1,FALSE,,,,,,,,,,,,,,,,,,,,,,,,,,,,,,,
,58afadc49f78e200018fa48d,627c82cc5e3dc141ac15ff29,2022-05-11_23h45.39.862,classification_task,2021.2.3,Win32,59.87665409,627c6715c52fd12f31907bcf,,,,,,,,,,,,,,,,,,,,,,,l,0,2.8995,"[""0.971"",""0.482"",""0.581"",""0.886""]","[0,1,1,1]",0,34,34,34,1,0,1,,,1,FALSE,,,,,,,,,,,,,,,,,,,,,,,,,,,,,,,
,58afadc49f78e200018fa48d,627c82cc5e3dc141ac15ff29,2022-05-11_23h45.39.862,classification_task,2021.2.3,Win32,59.87665409,627c6715c52fd12f31907bcf,,,,,,,,,,,,,,,,,,,,,,,l,1,2.1827,"[""0.797"",""0.429"",""0.528"",""0.704""]","[0,1,1,1]",0,35,35,35,1,1,1,,,1,FALSE,,,,,,,,,,,,,,,,,,,,,,,,,,,,,,,
,58afadc49f78e200018fa48d,627c82cc5e3dc141ac15ff29,2022-05-11_23h45.39.862,classification_task,2021.2.3,Win32,59.87665409,627c6715c52fd12f31907bcf,,,,,,,,,,,,,,,,,,,,,,,l,1,2.9716,"[""0.132"",""0.384"",""0.665"",""0.782""]","[1,1,1,0]",0,36,36,36,1,1,0,,,1,FALSE,,,,,,,,,,,,,,,,,,,,,,,,,,,,,,,
,58afadc49f78e200018fa48d,627c82cc5e3dc141ac15ff29,2022-05-11_23h45.39.862,classification_task,2021.2.3,Win32,59.87665409,627c6715c52fd12f31907bcf,,,,,,,,,,,,,,,,,,,,,,,l,1,2.1051,"[""0.132"",""0.384"",""0.811"",""0.739""]","[1,1,0,1]",0,37,37,37,1,1,0,,,1,FALSE,,,,,,,,,,,,,,,,,,,,,,,,,,,,,,,
,58afadc49f78e200018fa48d,627c82cc5e3dc141ac15ff29,2022-05-11_23h45.39.862,classification_task,2021.2.3,Win32,59.87665409,627c6715c52fd12f31907bcf,,,,,,,,,,,,,,,,,,,,,,,l,1,1.7183,"[""0.066"",""0.429"",""0.528"",""0.971""]","[1,1,1,0]",0,38,38,38,1,1,1,,,1,FALSE,,,,,,,,,,,,,,,,,,,,,,,,,,,,,,,
,58afadc49f78e200018fa48d,627c82cc5e3dc141ac15ff29,2022-05-11_23h45.39.862,classification_task,2021.2.3,Win32,59.87665409,627c6715c52fd12f31907bcf,,,,,,,,,,,,,,,,,,,,,,,a,1,1.5441,"[""0.250"",""0.328"",""0.851"",""0.797""]","[1,1,1,0]",0,39,39,39,1,0,0,,,1,FALSE,,,,,,,,,,,,,,,,,,,,,,,,,,,,,,,
,58afadc49f78e200018fa48d,627c82cc5e3dc141ac15ff29,2022-05-11_23h45.39.862,classification_task,2021.2.3,Win32,59.87665409,627c6715c52fd12f31907bcf,,,,,,,,,,,,,,,,,,,,,,,l,0,4.2315,"[""0.191"",""0.783"",""0.581"",""0.886""]","[1,0,1,1]",0,40,40,40,1,0,1,,,1,FALSE,,,,,,,,,,,,,,,,,,,,,,,,,,,,,,,
,58afadc49f78e200018fa48d,627c82cc5e3dc141ac15ff29,2022-05-11_23h45.39.862,classification_task,2021.2.3,Win32,59.87665409,627c6715c52fd12f31907bcf,,,,,,,,,,,,,,,,,,,,,,,l,1,3.2508,"[""0.805"",""0.384"",""0.665"",""0.739""]","[0,1,1,1]",0,41,41,41,1,1,0,,,1,FALSE,,,,,,,,,,,,,,,,,,,,,,,,,,,,,,,
,58afadc49f78e200018fa48d,627c82cc5e3dc141ac15ff29,2022-05-11_23h45.39.862,classification_task,2021.2.3,Win32,59.87665409,627c6715c52fd12f31907bcf,,,,,,,,,,,,,,,,,,,,,,,a,1,2.7327,"[""0.250"",""0.958"",""0.851"",""0.920""]","[1,0,1,1]",0,42,42,42,1,0,0,,,1,FALSE,,,,,,,,,,,,,,,,,,,,,,,,,,,,,,,
,58afadc49f78e200018fa48d,627c82cc5e3dc141ac15ff29,2022-05-11_23h45.39.862,classification_task,2021.2.3,Win32,59.87665409,627c6715c52fd12f31907bcf,,,,,,,,,,,,,,,,,,,,,,,a,1,2.3299,"[""0.191"",""0.482"",""0.581"",""0.971""]","[1,1,1,0]",0,43,43,43,1,0,1,,,1,FALSE,,,,,,,,,,,,,,,,,,,,,,,,,,,,,,,
,58afadc49f78e200018fa48d,627c82cc5e3dc141ac15ff29,2022-05-11_23h45.39.862,classification_task,2021.2.3,Win32,59.87665409,627c6715c52fd12f31907bcf,,,,,,,,,,,,,,,,,,,,,,,l,1,1.1845,"[""0.066"",""0.800"",""0.528"",""0.704""]","[1,0,1,1]",0,44,44,44,1,1,1,,,1,FALSE,,,,,,,,,,,,,,,,,,,,,,,,,,,,,,,
,58afadc49f78e200018fa48d,627c82cc5e3dc141ac15ff29,2022-05-11_23h45.39.862,classification_task,2021.2.3,Win32,59.87665409,627c6715c52fd12f31907bcf,,,,,,,,,,,,,,,,,,,,,,,l,1,1.334,"[""0.066"",""0.429"",""0.971"",""0.704""]","[1,1,0,1]",0,45,45,45,1,1,1,,,1,FALSE,,,,,,,,,,,,,,,,,,,,,,,,,,,,,,,
,58afadc49f78e200018fa48d,627c82cc5e3dc141ac15ff29,2022-05-11_23h45.39.862,classification_task,2021.2.3,Win32,59.87665409,627c6715c52fd12f31907bcf,,,,,,,,,,,,,,,,,,,,,,,a,1,1.4063,"[""0.191"",""0.482"",""0.970"",""0.886""]","[1,1,0,1]",0,46,46,46,1,0,1,,,1,FALSE,,,,,,,,,,,,,,,,,,,,,,,,,,,,,,,
,58afadc49f78e200018fa48d,627c82cc5e3dc141ac15ff29,2022-05-11_23h45.39.862,classification_task,2021.2.3,Win32,59.87665409,627c6715c52fd12f31907bcf,,,,,,,,,,,,,,,,,,,,,,,a,0,3.9371,"[""0.132"",""0.797"",""0.665"",""0.739""]","[1,0,1,1]",0,47,47,47,1,1,0,,,1,FALSE,,,,,,,,,,,,,,,,,,,,,,,,,,,,,,,
,58afadc49f78e200018fa48d,627c82cc5e3dc141ac15ff29,2022-05-11_23h45.39.862,classification_task,2021.2.3,Win32,59.87665409,627c6715c52fd12f31907bcf,,,,,,,,,,,,,,,,,,,,,,,l,1,0.9218,"[""0.132"",""0.384"",""0.665"",""0.797""]","[1,1,1,0]",0,48,48,48,1,1,0,,,1,FALSE,,,,,,,,,,,,,,,,,,,,,,,,,,,,,,,
,58afadc49f78e200018fa48d,627c82cc5e3dc141ac15ff29,2022-05-11_23h45.39.862,classification_task,2021.2.3,Win32,59.87665409,627c6715c52fd12f31907bcf,,,,,,,,,,,,,,,,,,,,,,,a,1,2.3905,"[""0.191"",""0.482"",""0.581"",""0.025""]","[1,1,1,0]",0,49,49,49,1,0,1,,,1,FALSE,,,,,,,,,,,,,,,,,,,,,,,,,,,,,,,
,58afadc49f78e200018fa48d,627c82cc5e3dc141ac15ff29,2022-05-11_23h45.39.862,classification_task,2021.2.3,Win32,59.87665409,627c6715c52fd12f31907bcf,,,,,,,,,,,,,,,,,,,,,,,a,1,1.2286,"[""0.797"",""0.328"",""0.851"",""0.920""]","[0,1,1,1]",0,50,50,50,1,0,0,,,1,FALSE,,,,,,,,,,,,,,,,,,,,,,,,,,,,,,,
,58afadc49f78e200018fa48d,627c82cc5e3dc141ac15ff29,2022-05-11_23h45.39.862,classification_task,2021.2.3,Win32,59.87665409,627c6715c52fd12f31907bcf,,,,,,,,,,,,,,,,,,,,,,,a,1,1.5485,"[""0.191"",""0.788"",""0.581"",""0.886""]","[1,0,1,1]",0,51,51,51,1,0,1,,,1,FALSE,,,,,,,,,,,,,,,,,,,,,,,,,,,,,,,
,58afadc49f78e200018fa48d,627c82cc5e3dc141ac15ff29,2022-05-11_23h45.39.862,classification_task,2021.2.3,Win32,59.87665409,627c6715c52fd12f31907bcf,,,,,,,,,,,,,,,,,,,,,,,a,1,2.3337,"[""0.250"",""0.328"",""0.851"",""0.807""]","[1,1,1,0]",0,52,52,52,1,0,0,,,1,FALSE,,,,,,,,,,,,,,,,,,,,,,,,,,,,,,,
,58afadc49f78e200018fa48d,627c82cc5e3dc141ac15ff29,2022-05-11_23h45.39.862,classification_task,2021.2.3,Win32,59.87665409,627c6715c52fd12f31907bcf,,,,,,,,,,,,,,,,,,,,,,,a,1,1.0965,"[""0.250"",""0.783"",""0.851"",""0.920""]","[1,0,1,1]",0,53,53,53,1,0,0,,,1,FALSE,,,,,,,,,,,,,,,,,,,,,,,,,,,,,,,
,58afadc49f78e200018fa48d,627c82cc5e3dc141ac15ff29,2022-05-11_23h45.39.862,classification_task,2021.2.3,Win32,59.87665409,627c6715c52fd12f31907bcf,,,,,,,,,,,,,,,,,,,,,,,l,1,1.4351,"[""0.132"",""0.958"",""0.665"",""0.739""]","[1,0,1,1]",0,54,54,54,1,1,0,,,1,FALSE,,,,,,,,,,,,,,,,,,,,,,,,,,,,,,,
,58afadc49f78e200018fa48d,627c82cc5e3dc141ac15ff29,2022-05-11_23h45.39.862,classification_task,2021.2.3,Win32,59.87665409,627c6715c52fd12f31907bcf,,,,,,,,,,,,,,,,,,,,,,,l,0,1.6145,"[""0.805"",""0.482"",""0.581"",""0.886""]","[0,1,1,1]",0,55,55,55,1,0,1,,,1,FALSE,,,,,,,,,,,,,,,,,,,,,,,,,,,,,,,
,58afadc49f78e200018fa48d,627c82cc5e3dc141ac15ff29,2022-05-11_23h45.39.862,classification_task,2021.2.3,Win32,59.87665409,627c6715c52fd12f31907bcf,,,,,,,,,,,,,,,,,,,,,,,l,1,1.2927,"[""0.066"",""0.429"",""0.800"",""0.704""]","[1,1,0,1]",0,56,56,56,1,1,1,,,1,FALSE,,,,,,,,,,,,,,,,,,,,,,,,,,,,,,,
,58afadc49f78e200018fa48d,627c82cc5e3dc141ac15ff29,2022-05-11_23h45.39.862,classification_task,2021.2.3,Win32,59.87665409,627c6715c52fd12f31907bcf,,,,,,,,,,,,,,,,,,,,,,,a,1,1.4201,"[""0.191"",""0.482"",""0.815"",""0.886""]","[1,1,0,1]",0,57,57,57,1,0,1,,,1,FALSE,,,,,,,,,,,,,,,,,,,,,,,,,,,,,,,
,58afadc49f78e200018fa48d,627c82cc5e3dc141ac15ff29,2022-05-11_23h45.39.862,classification_task,2021.2.3,Win32,59.87665409,627c6715c52fd12f31907bcf,,,,,,,,,,,,,,,,,,,,,,,a,1,2.0157,"[""0.250"",""0.328"",""0.800"",""0.920""]","[1,1,0,1]",0,58,58,58,1,0,0,,,1,FALSE,,,,,,,,,,,,,,,,,,,,,,,,,,,,,,,
,58afadc49f78e200018fa48d,627c82cc5e3dc141ac15ff29,2022-05-11_23h45.39.862,classification_task,2021.2.3,Win32,59.87665409,627c6715c52fd12f31907bcf,,,,,,,,,,,,,,,,,,,,,,,l,1,1.0265,"[""0.066"",""0.429"",""0.528"",""0.783""]","[1,1,1,0]",0,59,59,59,1,1,1,,,1,FALSE,,,,,,,,,,,,,,,,,,,,,,,,,,,,,,,
,58afadc49f78e200018fa48d,627c82cc5e3dc141ac15ff29,2022-05-11_23h45.39.862,classification_task,2021.2.3,Win32,59.87665409,627c6715c52fd12f31907bcf,,,,,,,,,,,,,,,,,,,,,,,l,1,2.2005,"[""0.066"",""0.783"",""0.528"",""0.704""]","[1,0,1,1]",0,60,60,60,1,1,1,,,1,FALSE,,,,,,,,,,,,,,,,,,,,,,,,,,,,,,,
,58afadc49f78e200018fa48d,627c82cc5e3dc141ac15ff29,2022-05-11_23h45.39.862,classification_task,2021.2.3,Win32,59.87665409,627c6715c52fd12f31907bcf,,,,,,,,,,,,,,,,,,,,,,,a,0,1.6819,"[""0.132"",""0.384"",""0.627"",""0.739""]","[1,1,0,1]",0,61,61,61,1,1,0,,,1,FALSE,,,,,,,,,,,,,,,,,,,,,,,,,,,,,,,
,58afadc49f78e200018fa48d,627c82cc5e3dc141ac15ff29,2022-05-11_23h45.39.862,classification_task,2021.2.3,Win32,59.87665409,627c6715c52fd12f31907bcf,,,,,,,,,,,,,,,,,,,,,,,l,1,2.019,"[""0.783"",""0.384"",""0.665"",""0.739""]","[0,1,1,1]",0,62,62,62,1,1,0,,,1,FALSE,,,,,,,,,,,,,,,,,,,,,,,,,,,,,,,
,58afadc49f78e200018fa48d,627c82cc5e3dc141ac15ff29,2022-05-11_23h45.39.862,classification_task,2021.2.3,Win32,59.87665409,627c6715c52fd12f31907bcf,,,,,,,,,,,,,,,,,,,,,,,l,1,3.9346,"[""0.025"",""0.429"",""0.528"",""0.704""]","[0,1,1,1]",0,63,63,63,1,1,1,,,1,FALSE,,,,,,,,,,,,,,,,,,,,,,,,,,,,,,,
,58afadc49f78e200018fa48d,627c82cc5e3dc141ac15ff29,2022-05-11_23h45.39.862,classification_task,2021.2.3,Win32,59.87665409,627c6715c52fd12f31907bcf,,,,,,,,,,,,,,,,,,,,,,,,,,,,,,,,,,,,,,,0, ,,0,2.158534943,459.1963,0,0,0,0,1,2,1,,,,,,,,,,,,,,,,,,
,58afadc49f78e200018fa48d,627c82cc5e3dc141ac15ff29,2022-05-11_23h45.39.862,classification_task,2021.2.3,Win32,59.87665409,627c6715c52fd12f31907bcf,,,,,,,,,,,,,,,,,,,,,,,,,,,,,,,,,,,,,,,1,  ,,0,6.984126984,463.4706,0,0,0,0,1,2,1,,,,,,,,,,,,,,,,,,
,58afadc49f78e200018fa48d,627c82cc5e3dc141ac15ff29,2022-05-11_23h45.39.862,classification_task,2021.2.3,Win32,59.87665409,627c6715c52fd12f31907bcf,,,,,,,,,,,,,,,,,,,,,,,,,,,,,,,,,,,,,,,2,  ,,0,4.877523773,471.1661,0,0,0,0,1,2,1,,,,,,,,,,,,,,,,,,
,58afadc49f78e200018fa48d,627c82cc5e3dc141ac15ff29,2022-05-11_23h45.39.862,classification_task,2021.2.3,Win32,59.87665409,627c6715c52fd12f31907bcf,,,,,,,,,,,,,,,,,,,,,,,,,,,,,,,,,,,,,,,,,,,,,0,0,0,0,1,,1,,,,,,,,,,,,,,,,,,
,58afadc49f78e200018fa48d,627c82cc5e3dc141ac15ff29,2022-05-11_23h45.39.862,classification_task,2021.2.3,Win32,59.87665409,627c6715c52fd12f31907bcf,,,,,,,,,,,,,,,,,,,,,space,16.5997,a,1,3.5294,"[""0.250"",""0.328"",""0.851"",""0.970""]","[1,1,1,0]",0,0,0,0,1,0,0,,,1,FALSE,,,,,,,,,,,,,,,,,,,,,,,,,,,,,,,
,58afadc49f78e200018fa48d,627c82cc5e3dc141ac15ff29,2022-05-11_23h45.39.862,classification_task,2021.2.3,Win32,59.87665409,627c6715c52fd12f31907bcf,,,,,,,,,,,,,,,,,,,,,,,a,1,2.6755,"[""0.191"",""0.815"",""0.581"",""0.886""]","[1,0,1,1]",0,1,1,1,1,0,1,,,1,FALSE,,,,,,,,,,,,,,,,,,,,,,,,,,,,,,,
,58afadc49f78e200018fa48d,627c82cc5e3dc141ac15ff29,2022-05-11_23h45.39.862,classification_task,2021.2.3,Win32,59.87665409,627c6715c52fd12f31907bcf,,,,,,,,,,,,,,,,,,,,,,,l,1,2.4129,"[""0.970"",""0.384"",""0.665"",""0.739""]","[0,1,1,1]",0,2,2,2,1,1,0,,,1,FALSE,,,,,,,,,,,,,,,,,,,,,,,,,,,,,,,
,58afadc49f78e200018fa48d,627c82cc5e3dc141ac15ff29,2022-05-11_23h45.39.862,classification_task,2021.2.3,Win32,59.87665409,627c6715c52fd12f31907bcf,,,,,,,,,,,,,,,,,,,,,,,l,1,1.6689,"[""0.066"",""0.970"",""0.528"",""0.704""]","[1,0,1,1]",0,3,3,3,1,1,1,,,1,FALSE,,,,,,,,,,,,,,,,,,,,,,,,,,,,,,,
,58afadc49f78e200018fa48d,627c82cc5e3dc141ac15ff29,2022-05-11_23h45.39.862,classification_task,2021.2.3,Win32,59.87665409,627c6715c52fd12f31907bcf,,,,,,,,,,,,,,,,,,,,,,,a,1,1.3342,"[""0.191"",""0.482"",""0.581"",""0.811""]","[1,1,1,0]",0,4,4,4,1,0,1,,,1,FALSE,,,,,,,,,,,,,,,,,,,,,,,,,,,,,,,
,58afadc49f78e200018fa48d,627c82cc5e3dc141ac15ff29,2022-05-11_23h45.39.862,classification_task,2021.2.3,Win32,59.87665409,627c6715c52fd12f31907bcf,,,,,,,,,,,,,,,,,,,,,,,a,0,3.0325,"[""0.132"",""0.958"",""0.665"",""0.739""]","[1,0,1,1]",0,5,5,5,1,1,0,,,1,FALSE,,,,,,,,,,,,,,,,,,,,,,,,,,,,,,,
,58afadc49f78e200018fa48d,627c82cc5e3dc141ac15ff29,2022-05-11_23h45.39.862,classification_task,2021.2.3,Win32,59.87665409,627c6715c52fd12f31907bcf,,,,,,,,,,,,,,,,,,,,,,,a,1,2.0081,"[""0.788"",""0.482"",""0.581"",""0.886""]","[0,1,1,1]",0,6,6,6,1,0,1,,,1,FALSE,,,,,,,,,,,,,,,,,,,,,,,,,,,,,,,
,58afadc49f78e200018fa48d,627c82cc5e3dc141ac15ff29,2022-05-11_23h45.39.862,classification_task,2021.2.3,Win32,59.87665409,627c6715c52fd12f31907bcf,,,,,,,,,,,,,,,,,,,,,,,a,1,1.6144,"[""0.191"",""0.482"",""0.800"",""0.886""]","[1,1,0,1]",0,7,7,7,1,0,1,,,1,FALSE,,,,,,,,,,,,,,,,,,,,,,,,,,,,,,,
,58afadc49f78e200018fa48d,627c82cc5e3dc141ac15ff29,2022-05-11_23h45.39.862,classification_task,2021.2.3,Win32,59.87665409,627c6715c52fd12f31907bcf,,,,,,,,,,,,,,,,,,,,,,,l,0,3.4483,"[""0.250"",""0.971"",""0.851"",""0.920""]","[1,0,1,1]",0,8,8,8,1,0,0,,,1,FALSE,,,,,,,,,,,,,,,,,,,,,,,,,,,,,,,
,58afadc49f78e200018fa48d,627c82cc5e3dc141ac15ff29,2022-05-11_23h45.39.862,classification_task,2021.2.3,Win32,59.87665409,627c6715c52fd12f31907bcf,,,,,,,,,,,,,,,,,,,,,,,a,0,1.973,"[""0.132"",""0.384"",""0.665"",""0.970""]","[1,1,1,0]",0,9,9,9,1,1,0,,,1,FALSE,,,,,,,,,,,,,,,,,,,,,,,,,,,,,,,
,58afadc49f78e200018fa48d,627c82cc5e3dc141ac15ff29,2022-05-11_23h45.39.862,classification_task,2021.2.3,Win32,59.87665409,627c6715c52fd12f31907bcf,,,,,,,,,,,,,,,,,,,,,,,a,1,3.3161,"[""0.250"",""0.328"",""0.025"",""0.920""]","[1,1,0,1]",0,10,10,10,1,0,0,,,1,FALSE,,,,,,,,,,,,,,,,,,,,,,,,,,,,,,,
,58afadc49f78e200018fa48d,627c82cc5e3dc141ac15ff29,2022-05-11_23h45.39.862,classification_task,2021.2.3,Win32,59.87665409,627c6715c52fd12f31907bcf,,,,,,,,,,,,,,,,,,,,,,,a,1,1.4259,"[""0.025"",""0.328"",""0.851"",""0.920""]","[0,1,1,1]",0,11,11,11,1,0,0,,,1,FALSE,,,,,,,,,,,,,,,,,,,,,,,,,,,,,,,
,58afadc49f78e200018fa48d,627c82cc5e3dc141ac15ff29,2022-05-11_23h45.39.862,classification_task,2021.2.3,Win32,59.87665409,627c6715c52fd12f31907bcf,,,,,,,,,,,,,,,,,,,,,,,l,1,3.2456,"[""0.811"",""0.429"",""0.528"",""0.704""]","[0,1,1,1]",0,12,12,12,1,1,1,,,1,FALSE,,,,,,,,,,,,,,,,,,,,,,,,,,,,,,,
,58afadc49f78e200018fa48d,627c82cc5e3dc141ac15ff29,2022-05-11_23h45.39.862,classification_task,2021.2.3,Win32,59.87665409,627c6715c52fd12f31907bcf,,,,,,,,,,,,,,,,,,,,,,,l,1,1.2113,"[""0.066"",""0.429"",""0.528"",""0.783""]","[1,1,1,0]",0,13,13,13,1,1,1,,,1,FALSE,,,,,,,,,,,,,,,,,,,,,,,,,,,,,,,
,58afadc49f78e200018fa48d,627c82cc5e3dc141ac15ff29,2022-05-11_23h45.39.862,classification_task,2021.2.3,Win32,59.87665409,627c6715c52fd12f31907bcf,,,,,,,,,,,,,,,,,,,,,,,l,1,1.8846,"[""0.066"",""0.429"",""0.807"",""0.704""]","[1,1,0,1]",0,14,14,14,1,1,1,,,1,FALSE,,,,,,,,,,,,,,,,,,,,,,,,,,,,,,,
,58afadc49f78e200018fa48d,627c82cc5e3dc141ac15ff29,2022-05-11_23h45.39.862,classification_task,2021.2.3,Win32,59.87665409,627c6715c52fd12f31907bcf,,,,,,,,,,,,,,,,,,,,,,,l,1,2.1574,"[""0.132"",""0.384"",""0.782"",""0.739""]","[1,1,0,1]",0,15,15,15,1,1,0,,,1,FALSE,,,,,,,,,,,,,,,,,,,,,,,,,,,,,,,
,58afadc49f78e200018fa48d,627c82cc5e3dc141ac15ff29,2022-05-11_23h45.39.862,classification_task,2021.2.3,Win32,59.87665409,627c6715c52fd12f31907bcf,,,,,,,,,,,,,,,,,,,,,,,a,1,2.5456,"[""0.191"",""0.811"",""0.581"",""0.886""]","[1,0,1,1]",0,16,16,16,1,0,1,,,1,FALSE,,,,,,,,,,,,,,,,,,,,,,,,,,,,,,,
,58afadc49f78e200018fa48d,627c82cc5e3dc141ac15ff29,2022-05-11_23h45.39.862,classification_task,2021.2.3,Win32,59.87665409,627c6715c52fd12f31907bcf,,,,,,,,,,,,,,,,,,,,,,,l,1,1.3917,"[""0.066"",""0.429"",""0.783"",""0.704""]","[1,1,0,1]",0,17,17,17,1,1,1,,,1,FALSE,,,,,,,,,,,,,,,,,,,,,,,,,,,,,,,
,58afadc49f78e200018fa48d,627c82cc5e3dc141ac15ff29,2022-05-11_23h45.39.862,classification_task,2021.2.3,Win32,59.87665409,627c6715c52fd12f31907bcf,,,,,,,,,,,,,,,,,,,,,,,l,1,1.5215,"[""0.132"",""0.800"",""0.665"",""0.739""]","[1,0,1,1]",0,18,18,18,1,1,0,,,1,FALSE,,,,,,,,,,,,,,,,,,,,,,,,,,,,,,,
,58afadc49f78e200018fa48d,627c82cc5e3dc141ac15ff29,2022-05-11_23h45.39.862,classification_task,2021.2.3,Win32,59.87665409,627c6715c52fd12f31907bcf,,,,,,,,,,,,,,,,,,,,,,,a,1,2.6915,"[""0.191"",""0.482"",""0.581"",""0.811""]","[1,1,1,0]",0,19,19,19,1,0,1,,,1,FALSE,,,,,,,,,,,,,,,,,,,,,,,,,,,,,,,
,58afadc49f78e200018fa48d,627c82cc5e3dc141ac15ff29,2022-05-11_23h45.39.862,classification_task,2021.2.3,Win32,59.87665409,627c6715c52fd12f31907bcf,,,,,,,,,,,,,,,,,,,,,,,l,1,2.0236,"[""0.132"",""0.384"",""0.665"",""0.627""]","[1,1,1,0]",0,20,20,20,1,1,0,,,1,FALSE,,,,,,,,,,,,,,,,,,,,,,,,,,,,,,,
,58afadc49f78e200018fa48d,627c82cc5e3dc141ac15ff29,2022-05-11_23h45.39.862,classification_task,2021.2.3,Win32,59.87665409,627c6715c52fd12f31907bcf,,,,,,,,,,,,,,,,,,,,,,,l,1,4.1314,"[""0.805"",""0.384"",""0.665"",""0.739""]","[0,1,1,1]",0,21,21,21,1,1,0,,,1,FALSE,,,,,,,,,,,,,,,,,,,,,,,,,,,,,,,
,58afadc49f78e200018fa48d,627c82cc5e3dc141ac15ff29,2022-05-11_23h45.39.862,classification_task,2021.2.3,Win32,59.87665409,627c6715c52fd12f31907bcf,,,,,,,,,,,,,,,,,,,,,,,a,1,1.1576,"[""0.250"",""0.328"",""0.815"",""0.920""]","[1,1,0,1]",0,22,22,22,1,0,0,,,1,FALSE,,,,,,,,,,,,,,,,,,,,,,,,,,,,,,,
,58afadc49f78e200018fa48d,627c82cc5e3dc141ac15ff29,2022-05-11_23h45.39.862,classification_task,2021.2.3,Win32,59.87665409,627c6715c52fd12f31907bcf,,,,,,,,,,,,,,,,,,,,,,,l,1,1.6871,"[""0.066"",""0.807"",""0.528"",""0.704""]","[1,0,1,1]",0,23,23,23,1,1,1,,,1,FALSE,,,,,,,,,,,,,,,,,,,,,,,,,,,,,,,
,58afadc49f78e200018fa48d,627c82cc5e3dc141ac15ff29,2022-05-11_23h45.39.862,classification_task,2021.2.3,Win32,59.87665409,627c6715c52fd12f31907bcf,,,,,,,,,,,,,,,,,,,,,,,a,1,1.568,"[""0.191"",""0.482"",""0.971"",""0.886""]","[1,1,0,1]",0,24,24,24,1,0,1,,,1,FALSE,,,,,,,,,,,,,,,,,,,,,,,,,,,,,,,
,58afadc49f78e200018fa48d,627c82cc5e3dc141ac15ff29,2022-05-11_23h45.39.862,classification_task,2021.2.3,Win32,59.87665409,627c6715c52fd12f31907bcf,,,,,,,,,,,,,,,,,,,,,,,a,1,2.1105,"[""0.250"",""0.958"",""0.851"",""0.920""]","[1,0,1,1]",0,25,25,25,1,0,0,,,1,FALSE,,,,,,,,,,,,,,,,,,,,,,,,,,,,,,,
,58afadc49f78e200018fa48d,627c82cc5e3dc141ac15ff29,2022-05-11_23h45.39.862,classification_task,2021.2.3,Win32,59.87665409,627c6715c52fd12f31907bcf,,,,,,,,,,,,,,,,,,,,,,,l,1,2.442,"[""0.066"",""0.429"",""0.528"",""0.782""]","[1,1,1,0]",0,26,26,26,1,1,1,,,1,FALSE,,,,,,,,,,,,,,,,,,,,,,,,,,,,,,,
,58afadc49f78e200018fa48d,627c82cc5e3dc141ac15ff29,2022-05-11_23h45.39.862,classification_task,2021.2.3,Win32,59.87665409,627c6715c52fd12f31907bcf,,,,,,,,,,,,,,,,,,,,,,,a,1,1.458,"[""0.807"",""0.328"",""0.851"",""0.920""]","[0,1,1,1]",0,27,27,27,1,0,0,,,1,FALSE,,,,,,,,,,,,,,,,,,,,,,,,,,,,,,,
,58afadc49f78e200018fa48d,627c82cc5e3dc141ac15ff29,2022-05-11_23h45.39.862,classification_task,2021.2.3,Win32,59.87665409,627c6715c52fd12f31907bcf,,,,,,,,,,,,,,,,,,,,,,,a,1,1.1534,"[""0.250"",""0.328"",""0.851"",""0.971""]","[1,1,1,0]",0,28,28,28,1,0,0,,,1,FALSE,,,,,,,,,,,,,,,,,,,,,,,,,,,,,,,
,58afadc49f78e200018fa48d,627c82cc5e3dc141ac15ff29,2022-05-11_23h45.39.862,classification_task,2021.2.3,Win32,59.87665409,627c6715c52fd12f31907bcf,,,,,,,,,,,,,,,,,,,,,,,l,1,3.2298,"[""0.971"",""0.429"",""0.528"",""0.704""]","[0,1,1,1]",0,29,29,29,1,1,1,,,1,FALSE,,,,,,,,,,,,,,,,,,,,,,,,,,,,,,,
,58afadc49f78e200018fa48d,627c82cc5e3dc141ac15ff29,2022-05-11_23h45.39.862,classification_task,2021.2.3,Win32,59.87665409,627c6715c52fd12f31907bcf,,,,,,,,,,,,,,,,,,,,,,,l,1,1.4046,"[""0.132"",""0.384"",""0.970"",""0.739""]","[1,1,0,1]",0,30,30,30,1,1,0,,,1,FALSE,,,,,,,,,,,,,,,,,,,,,,,,,,,,,,,
,58afadc49f78e200018fa48d,627c82cc5e3dc141ac15ff29,2022-05-11_23h45.39.862,classification_task,2021.2.3,Win32,59.87665409,627c6715c52fd12f31907bcf,,,,,,,,,,,,,,,,,,,,,,,a,1,1.589,"[""0.811"",""0.482"",""0.581"",""0.886""]","[0,1,1,1]",0,31,31,31,1,0,1,,,1,FALSE,,,,,,,,,,,,,,,,,,,,,,,,,,,,,,,
,58afadc49f78e200018fa48d,627c82cc5e3dc141ac15ff29,2022-05-11_23h45.39.862,classification_task,2021.2.3,Win32,59.87665409,627c6715c52fd12f31907bcf,,,,,,,,,,,,,,,,,,,,,,,l,1,1.3388,"[""0.132"",""0.384"",""0.811"",""0.739""]","[1,1,0,1]",0,32,32,32,1,1,0,,,1,FALSE,,,,,,,,,,,,,,,,,,,,,,,,,,,,,,,
,58afadc49f78e200018fa48d,627c82cc5e3dc141ac15ff29,2022-05-11_23h45.39.862,classification_task,2021.2.3,Win32,59.87665409,627c6715c52fd12f31907bcf,,,,,,,,,,,,,,,,,,,,,,,l,1,0.9708,"[""0.132"",""0.807"",""0.665"",""0.739""]","[1,0,1,1]",0,33,33,33,1,1,0,,,1,FALSE,,,,,,,,,,,,,,,,,,,,,,,,,,,,,,,
,58afadc49f78e200018fa48d,627c82cc5e3dc141ac15ff29,2022-05-11_23h45.39.862,classification_task,2021.2.3,Win32,59.87665409,627c6715c52fd12f31907bcf,,,,,,,,,,,,,,,,,,,,,,,a,1,1.9259,"[""0.191"",""0.482"",""0.958"",""0.886""]","[1,1,0,1]",0,34,34,34,1,0,1,,,1,FALSE,,,,,,,,,,,,,,,,,,,,,,,,,,,,,,,
,58afadc49f78e200018fa48d,627c82cc5e3dc141ac15ff29,2022-05-11_23h45.39.862,classification_task,2021.2.3,Win32,59.87665409,627c6715c52fd12f31907bcf,,,,,,,,,,,,,,,,,,,,,,,l,1,2.1827,"[""0.805"",""0.429"",""0.528"",""0.704""]","[0,1,1,1]",0,35,35,35,1,1,1,,,1,FALSE,,,,,,,,,,,,,,,,,,,,,,,,,,,,,,,
,58afadc49f78e200018fa48d,627c82cc5e3dc141ac15ff29,2022-05-11_23h45.39.862,classification_task,2021.2.3,Win32,59.87665409,627c6715c52fd12f31907bcf,,,,,,,,,,,,,,,,,,,,,,,a,1,1.3035,"[""0.191"",""0.971"",""0.581"",""0.886""]","[1,0,1,1]",0,36,36,36,1,0,1,,,1,FALSE,,,,,,,,,,,,,,,,,,,,,,,,,,,,,,,
,58afadc49f78e200018fa48d,627c82cc5e3dc141ac15ff29,2022-05-11_23h45.39.862,classification_task,2021.2.3,Win32,59.87665409,627c6715c52fd12f31907bcf,,,,,,,,,,,,,,,,,,,,,,,a,1,1.2031,"[""0.250"",""0.328"",""0.783"",""0.920""]","[1,1,0,1]",0,37,37,37,1,0,0,,,1,FALSE,,,,,,,,,,,,,,,,,,,,,,,,,,,,,,,
,58afadc49f78e200018fa48d,627c82cc5e3dc141ac15ff29,2022-05-11_23h45.39.862,classification_task,2021.2.3,Win32,59.87665409,627c6715c52fd12f31907bcf,,,,,,,,,,,,,,,,,,,,,,,a,1,2.79,"[""0.191"",""0.482"",""0.581"",""0.025""]","[1,1,1,0]",0,38,38,38,1,0,1,,,1,FALSE,,,,,,,,,,,,,,,,,,,,,,,,,,,,,,,
,58afadc49f78e200018fa48d,627c82cc5e3dc141ac15ff29,2022-05-11_23h45.39.862,classification_task,2021.2.3,Win32,59.87665409,627c6715c52fd12f31907bcf,,,,,,,,,,,,,,,,,,,,,,,l,1,1.2564,"[""0.066"",""0.429"",""0.971"",""0.704""]","[1,1,0,1]",0,39,39,39,1,1,1,,,1,FALSE,,,,,,,,,,,,,,,,,,,,,,,,,,,,,,,
,58afadc49f78e200018fa48d,627c82cc5e3dc141ac15ff29,2022-05-11_23h45.39.862,classification_task,2021.2.3,Win32,59.87665409,627c6715c52fd12f31907bcf,,,,,,,,,,,,,,,,,,,,,,,l,1,1.4265,"[""0.132"",""0.384"",""0.665"",""0.783""]","[1,1,1,0]",0,40,40,40,1,1,0,,,1,FALSE,,,,,,,,,,,,,,,,,,,,,,,,,,,,,,,
,58afadc49f78e200018fa48d,627c82cc5e3dc141ac15ff29,2022-05-11_23h45.39.862,classification_task,2021.2.3,Win32,59.87665409,627c6715c52fd12f31907bcf,,,,,,,,,,,,,,,,,,,,,,,a,1,0.9668,"[""0.971"",""0.328"",""0.851"",""0.920""]","[0,1,1,1]",0,41,41,41,1,0,0,,,1,FALSE,,,,,,,,,,,,,,,,,,,,,,,,,,,,,,,
,58afadc49f78e200018fa48d,627c82cc5e3dc141ac15ff29,2022-05-11_23h45.39.862,classification_task,2021.2.3,Win32,59.87665409,627c6715c52fd12f31907bcf,,,,,,,,,,,,,,,,,,,,,,,l,1,1.5916,"[""0.066"",""0.429"",""0.528"",""0.807""]","[1,1,1,0]",0,42,42,42,1,1,1,,,1,FALSE,,,,,,,,,,,,,,,,,,,,,,,,,,,,,,,
,58afadc49f78e200018fa48d,627c82cc5e3dc141ac15ff29,2022-05-11_23h45.39.862,classification_task,2021.2.3,Win32,59.87665409,627c6715c52fd12f31907bcf,,,,,,,,,,,,,,,,,,,,,,,l,1,4.0163,"[""0.971"",""0.384"",""0.665"",""0.739""]","[0,1,1,1]",0,43,43,43,1,1,0,,,1,FALSE,,,,,,,,,,,,,,,,,,,,,,,,,,,,,,,
,58afadc49f78e200018fa48d,627c82cc5e3dc141ac15ff29,2022-05-11_23h45.39.862,classification_task,2021.2.3,Win32,59.87665409,627c6715c52fd12f31907bcf,,,,,,,,,,,,,,,,,,,,,,,a,1,1.0561,"[""0.250"",""0.328"",""0.851"",""0.025""]","[1,1,1,0]",0,44,44,44,1,0,0,,,1,FALSE,,,,,,,,,,,,,,,,,,,,,,,,,,,,,,,
,58afadc49f78e200018fa48d,627c82cc5e3dc141ac15ff29,2022-05-11_23h45.39.862,classification_task,2021.2.3,Win32,59.87665409,627c6715c52fd12f31907bcf,,,,,,,,,,,,,,,,,,,,,,,a,1,1.2227,"[""0.971"",""0.482"",""0.581"",""0.886""]","[0,1,1,1]",0,45,45,45,1,0,1,,,1,FALSE,,,,,,,,,,,,,,,,,,,,,,,,,,,,,,,
,58afadc49f78e200018fa48d,627c82cc5e3dc141ac15ff29,2022-05-11_23h45.39.862,classification_task,2021.2.3,Win32,59.87665409,627c6715c52fd12f31907bcf,,,,,,,,,,,,,,,,,,,,,,,a,1,1.6554,"[""0.250"",""0.783"",""0.851"",""0.920""]","[1,0,1,1]",0,46,46,46,1,0,0,,,1,FALSE,,,,,,,,,,,,,,,,,,,,,,,,,,,,,,,
,58afadc49f78e200018fa48d,627c82cc5e3dc141ac15ff29,2022-05-11_23h45.39.862,classification_task,2021.2.3,Win32,59.87665409,627c6715c52fd12f31907bcf,,,,,,,,,,,,,,,,,,,,,,,l,1,1.2427,"[""0.066"",""0.805"",""0.528"",""0.704""]","[1,0,1,1]",0,47,47,47,1,1,1,,,1,FALSE,,,,,,,,,,,,,,,,,,,,,,,,,,,,,,,
,58afadc49f78e200018fa48d,627c82cc5e3dc141ac15ff29,2022-05-11_23h45.39.862,classification_task,2021.2.3,Win32,59.87665409,627c6715c52fd12f31907bcf,,,,,,,,,,,,,,,,,,,,,,,l,0,1.9469,"[""0.958"",""0.482"",""0.581"",""0.886""]","[0,1,1,1]",0,48,48,48,1,0,1,,,1,FALSE,,,,,,,,,,,,,,,,,,,,,,,,,,,,,,,
,58afadc49f78e200018fa48d,627c82cc5e3dc141ac15ff29,2022-05-11_23h45.39.862,classification_task,2021.2.3,Win32,59.87665409,627c6715c52fd12f31907bcf,,,,,,,,,,,,,,,,,,,,,,,a,1,1.7365,"[""0.191"",""0.482"",""0.581"",""0.782""]","[1,1,1,0]",0,49,49,49,1,0,1,,,1,FALSE,,,,,,,,,,,,,,,,,,,,,,,,,,,,,,,
,58afadc49f78e200018fa48d,627c82cc5e3dc141ac15ff29,2022-05-11_23h45.39.862,classification_task,2021.2.3,Win32,59.87665409,627c6715c52fd12f31907bcf,,,,,,,,,,,,,,,,,,,,,,,a,1,1.1645,"[""0.971"",""0.328"",""0.851"",""0.920""]","[0,1,1,1]",0,50,50,50,1,0,0,,,1,FALSE,,,,,,,,,,,,,,,,,,,,,,,,,,,,,,,
,58afadc49f78e200018fa48d,627c82cc5e3dc141ac15ff29,2022-05-11_23h45.39.862,classification_task,2021.2.3,Win32,59.87665409,627c6715c52fd12f31907bcf,,,,,,,,,,,,,,,,,,,,,,,a,1,1.2801,"[""0.191"",""0.776"",""0.581"",""0.886""]","[1,0,1,1]",0,51,51,51,1,0,1,,,1,FALSE,,,,,,,,,,,,,,,,,,,,,,,,,,,,,,,
,58afadc49f78e200018fa48d,627c82cc5e3dc141ac15ff29,2022-05-11_23h45.39.862,classification_task,2021.2.3,Win32,59.87665409,627c6715c52fd12f31907bcf,,,,,,,,,,,,,,,,,,,,,,,a,1,1.113,"[""0.250"",""0.328"",""0.958"",""0.920""]","[1,1,0,1]",0,52,52,52,1,0,0,,,1,FALSE,,,,,,,,,,,,,,,,,,,,,,,,,,,,,,,
,58afadc49f78e200018fa48d,627c82cc5e3dc141ac15ff29,2022-05-11_23h45.39.862,classification_task,2021.2.3,Win32,59.87665409,627c6715c52fd12f31907bcf,,,,,,,,,,,,,,,,,,,,,,,l,1,1.0422,"[""0.066"",""0.429"",""0.528"",""0.782""]","[1,1,1,0]",0,53,53,53,1,1,1,,,1,FALSE,,,,,,,,,,,,,,,,,,,,,,,,,,,,,,,
,58afadc49f78e200018fa48d,627c82cc5e3dc141ac15ff29,2022-05-11_23h45.39.862,classification_task,2021.2.3,Win32,59.87665409,627c6715c52fd12f31907bcf,,,,,,,,,,,,,,,,,,,,,,,l,1,1.011,"[""0.066"",""0.783"",""0.528"",""0.704""]","[1,0,1,1]",0,54,54,54,1,1,1,,,1,FALSE,,,,,,,,,,,,,,,,,,,,,,,,,,,,,,,
,58afadc49f78e200018fa48d,627c82cc5e3dc141ac15ff29,2022-05-11_23h45.39.862,classification_task,2021.2.3,Win32,59.87665409,627c6715c52fd12f31907bcf,,,,,,,,,,,,,,,,,,,,,,,a,0,2.8959,"[""0.788"",""0.384"",""0.665"",""0.739""]","[0,1,1,1]",0,55,55,55,1,1,0,,,1,FALSE,,,,,,,,,,,,,,,,,,,,,,,,,,,,,,,
,58afadc49f78e200018fa48d,627c82cc5e3dc141ac15ff29,2022-05-11_23h45.39.862,classification_task,2021.2.3,Win32,59.87665409,627c6715c52fd12f31907bcf,,,,,,,,,,,,,,,,,,,,,,,l,1,1.1559,"[""0.132"",""0.800"",""0.665"",""0.739""]","[1,0,1,1]",0,56,56,56,1,1,0,,,1,FALSE,,,,,,,,,,,,,,,,,,,,,,,,,,,,,,,
,58afadc49f78e200018fa48d,627c82cc5e3dc141ac15ff29,2022-05-11_23h45.39.862,classification_task,2021.2.3,Win32,59.87665409,627c6715c52fd12f31907bcf,,,,,,,,,,,,,,,,,,,,,,,l,1,0.8505,"[""0.132"",""0.384"",""0.627"",""0.739""]","[1,1,0,1]",0,57,57,57,1,1,0,,,1,FALSE,,,,,,,,,,,,,,,,,,,,,,,,,,,,,,,
,58afadc49f78e200018fa48d,627c82cc5e3dc141ac15ff29,2022-05-11_23h45.39.862,classification_task,2021.2.3,Win32,59.87665409,627c6715c52fd12f31907bcf,,,,,,,,,,,,,,,,,,,,,,,a,1,0.9159,"[""0.250"",""0.328"",""0.851"",""0.805""]","[1,1,1,0]",0,58,58,58,1,0,0,,,1,FALSE,,,,,,,,,,,,,,,,,,,,,,,,,,,,,,,
,58afadc49f78e200018fa48d,627c82cc5e3dc141ac15ff29,2022-05-11_23h45.39.862,classification_task,2021.2.3,Win32,59.87665409,627c6715c52fd12f31907bcf,,,,,,,,,,,,,,,,,,,,,,,l,1,4.4964,"[""0.788"",""0.429"",""0.528"",""0.704""]","[0,1,1,1]",0,59,59,59,1,1,1,,,1,FALSE,,,,,,,,,,,,,,,,,,,,,,,,,,,,,,,
,58afadc49f78e200018fa48d,627c82cc5e3dc141ac15ff29,2022-05-11_23h45.39.862,classification_task,2021.2.3,Win32,59.87665409,627c6715c52fd12f31907bcf,,,,,,,,,,,,,,,,,,,,,,,a,1,2.6432,"[""0.250"",""0.805"",""0.851"",""0.920""]","[1,0,1,1]",0,60,60,60,1,0,0,,,1,FALSE,,,,,,,,,,,,,,,,,,,,,,,,,,,,,,,
,58afadc49f78e200018fa48d,627c82cc5e3dc141ac15ff29,2022-05-11_23h45.39.862,classification_task,2021.2.3,Win32,59.87665409,627c6715c52fd12f31907bcf,,,,,,,,,,,,,,,,,,,,,,,a,1,1.4197,"[""0.191"",""0.482"",""0.776"",""0.886""]","[1,1,0,1]",0,61,61,61,1,0,1,,,1,FALSE,,,,,,,,,,,,,,,,,,,,,,,,,,,,,,,
,58afadc49f78e200018fa48d,627c82cc5e3dc141ac15ff29,2022-05-11_23h45.39.862,classification_task,2021.2.3,Win32,59.87665409,627c6715c52fd12f31907bcf,,,,,,,,,,,,,,,,,,,,,,,l,1,1.2852,"[""0.066"",""0.429"",""0.958"",""0.704""]","[1,1,0,1]",0,62,62,62,1,1,1,,,1,FALSE,,,,,,,,,,,,,,,,,,,,,,,,,,,,,,,
,58afadc49f78e200018fa48d,627c82cc5e3dc141ac15ff29,2022-05-11_23h45.39.862,classification_task,2021.2.3,Win32,59.87665409,627c6715c52fd12f31907bcf,,,,,,,,,,,,,,,,,,,,,,,l,1,5.5583,"[""0.132"",""0.384"",""0.665"",""0.811""]","[1,1,1,0]",0,63,63,63,1,1,0,,,1,FALSE,,,,,,,,,,,,,,,,,,,,,,,,,,,,,,,
,58afadc49f78e200018fa48d,627c82cc5e3dc141ac15ff29,2022-05-11_23h45.39.862,classification_task,2021.2.3,Win32,59.87665409,627c6715c52fd12f31907bcf,,,,,,,,,,,,,,,,,,,,,,,,,,,,,,,,,,,,,,,0, ,,0,2.672938235,216.7367,0,1,1,1,1,2,2,,,,,,,,,,,,,,,,,,
,58afadc49f78e200018fa48d,627c82cc5e3dc141ac15ff29,2022-05-11_23h45.39.862,classification_task,2021.2.3,Win32,59.87665409,627c6715c52fd12f31907bcf,,,,,,,,,,,,,,,,,,,,,,,,,,,,,,,,,,,,,,,1,  ,,0,5.636881762,219.1193,0,1,1,1,1,2,2,,,,,,,,,,,,,,,,,,
,58afadc49f78e200018fa48d,627c82cc5e3dc141ac15ff29,2022-05-11_23h45.39.862,classification_task,2021.2.3,Win32,59.87665409,627c6715c52fd12f31907bcf,,,,,,,,,,,,,,,,,,,,,,,,,,,,,,,,,,,,,,,2,  ,,0,4.534588993,221.1826,0,1,1,1,1,2,2,,,,,,,,,,,,,,,,,,
,58afadc49f78e200018fa48d,627c82cc5e3dc141ac15ff29,2022-05-11_23h45.39.862,classification_task,2021.2.3,Win32,59.87665409,627c6715c52fd12f31907bcf,,,,,,,,,,,,,,,,,,,,,,,,,,,,,,,,,,,,,,,,,,,,,0,1,1,1,1,,2,,,,,,,,,,,,,,,,,,
,58afadc49f78e200018fa48d,627c82cc5e3dc141ac15ff29,2022-05-11_23h45.39.862,classification_task,2021.2.3,Win32,59.87665409,627c6715c52fd12f31907bcf,,,,,,,,,,,,,,,,,,,,,space,5.7239,a,1,2.1744,"[""0.191"",""0.627"",""0.581"",""0.886""]","[1,0,1,1]",0,0,0,0,1,0,1,,,1,FALSE,,,,,,,,,,,,,,,,,,,,,,,,,,,,,,,
,58afadc49f78e200018fa48d,627c82cc5e3dc141ac15ff29,2022-05-11_23h45.39.862,classification_task,2021.2.3,Win32,59.87665409,627c6715c52fd12f31907bcf,,,,,,,,,,,,,,,,,,,,,,,l,1,1.5955,"[""0.132"",""0.384"",""0.971"",""0.739""]","[1,1,0,1]",0,1,1,1,1,1,0,,,1,FALSE,,,,,,,,,,,,,,,,,,,,,,,,,,,,,,,
,58afadc49f78e200018fa48d,627c82cc5e3dc141ac15ff29,2022-05-11_23h45.39.862,classification_task,2021.2.3,Win32,59.87665409,627c6715c52fd12f31907bcf,,,,,,,,,,,,,,,,,,,,,,,l,0,3.8171,"[""0.805"",""0.482"",""0.581"",""0.886""]","[0,1,1,1]",0,2,2,2,1,0,1,,,1,FALSE,,,,,,,,,,,,,,,,,,,,,,,,,,,,,,,
,58afadc49f78e200018fa48d,627c82cc5e3dc141ac15ff29,2022-05-11_23h45.39.862,classification_task,2021.2.3,Win32,59.87665409,627c6715c52fd12f31907bcf,,,,,,,,,,,,,,,,,,,,,,,a,1,1.0741,"[""0.250"",""0.328"",""0.970"",""0.920""]","[1,1,0,1]",0,3,3,3,1,0,0,,,1,FALSE,,,,,,,,,,,,,,,,,,,,,,,,,,,,,,,
,58afadc49f78e200018fa48d,627c82cc5e3dc141ac15ff29,2022-05-11_23h45.39.862,classification_task,2021.2.3,Win32,59.87665409,627c6715c52fd12f31907bcf,,,,,,,,,,,,,,,,,,,,,,,a,1,1.115,"[""0.191"",""0.482"",""0.581"",""0.797""]","[1,1,1,0]",0,4,4,4,1,0,1,,,1,FALSE,,,,,,,,,,,,,,,,,,,,,,,,,,,,,,,
,58afadc49f78e200018fa48d,627c82cc5e3dc141ac15ff29,2022-05-11_23h45.39.862,classification_task,2021.2.3,Win32,59.87665409,627c6715c52fd12f31907bcf,,,,,,,,,,,,,,,,,,,,,,,l,1,0.9018,"[""0.066"",""0.429"",""0.788"",""0.704""]","[1,1,0,1]",0,5,5,5,1,1,1,,,1,FALSE,,,,,,,,,,,,,,,,,,,,,,,,,,,,,,,
,58afadc49f78e200018fa48d,627c82cc5e3dc141ac15ff29,2022-05-11_23h45.39.862,classification_task,2021.2.3,Win32,59.87665409,627c6715c52fd12f31907bcf,,,,,,,,,,,,,,,,,,,,,,,a,1,0.9837,"[""0.250"",""0.328"",""0.851"",""0.815""]","[1,1,1,0]",0,6,6,6,1,0,0,,,1,FALSE,,,,,,,,,,,,,,,,,,,,,,,,,,,,,,,
,58afadc49f78e200018fa48d,627c82cc5e3dc141ac15ff29,2022-05-11_23h45.39.862,classification_task,2021.2.3,Win32,59.87665409,627c6715c52fd12f31907bcf,,,,,,,,,,,,,,,,,,,,,,,a,1,1.3718,"[""0.191"",""0.482"",""0.958"",""0.886""]","[1,1,0,1]",0,7,7,7,1,0,1,,,1,FALSE,,,,,,,,,,,,,,,,,,,,,,,,,,,,,,,
,58afadc49f78e200018fa48d,627c82cc5e3dc141ac15ff29,2022-05-11_23h45.39.862,classification_task,2021.2.3,Win32,59.87665409,627c6715c52fd12f31907bcf,,,,,,,,,,,,,,,,,,,,,,,a,1,1.8293,"[""0.805"",""0.328"",""0.851"",""0.920""]","[0,1,1,1]",0,8,8,8,1,0,0,,,1,FALSE,,,,,,,,,,,,,,,,,,,,,,,,,,,,,,,
,58afadc49f78e200018fa48d,627c82cc5e3dc141ac15ff29,2022-05-11_23h45.39.862,classification_task,2021.2.3,Win32,59.87665409,627c6715c52fd12f31907bcf,,,,,,,,,,,,,,,,,,,,,,,l,1,1.2213,"[""0.132"",""0.384"",""0.665"",""0.807""]","[1,1,1,0]",0,9,9,9,1,1,0,,,1,FALSE,,,,,,,,,,,,,,,,,,,,,,,,,,,,,,,
,58afadc49f78e200018fa48d,627c82cc5e3dc141ac15ff29,2022-05-11_23h45.39.862,classification_task,2021.2.3,Win32,59.87665409,627c6715c52fd12f31907bcf,,,,,,,,,,,,,,,,,,,,,,,l,1,1.4327,"[""0.066"",""0.429"",""0.528"",""0.025""]","[1,1,1,0]",0,10,10,10,1,1,1,,,1,FALSE,,,,,,,,,,,,,,,,,,,,,,,,,,,,,,,
,58afadc49f78e200018fa48d,627c82cc5e3dc141ac15ff29,2022-05-11_23h45.39.862,classification_task,2021.2.3,Win32,59.87665409,627c6715c52fd12f31907bcf,,,,,,,,,,,,,,,,,,,,,,,l,1,1.1013,"[""0.132"",""0.970"",""0.665"",""0.739""]","[1,0,1,1]",0,11,11,11,1,1,0,,,1,FALSE,,,,,,,,,,,,,,,,,,,,,,,,,,,,,,,
,58afadc49f78e200018fa48d,627c82cc5e3dc141ac15ff29,2022-05-11_23h45.39.862,classification_task,2021.2.3,Win32,59.87665409,627c6715c52fd12f31907bcf,,,,,,,,,,,,,,,,,,,,,,,l,1,4.2233,"[""0.970"",""0.384"",""0.665"",""0.739""]","[0,1,1,1]",0,12,12,12,1,1,0,,,1,FALSE,,,,,,,,,,,,,,,,,,,,,,,,,,,,,,,
,58afadc49f78e200018fa48d,627c82cc5e3dc141ac15ff29,2022-05-11_23h45.39.862,classification_task,2021.2.3,Win32,59.87665409,627c6715c52fd12f31907bcf,,,,,,,,,,,,,,,,,,,,,,,a,1,1.8225,"[""0.250"",""0.815"",""0.851"",""0.920""]","[1,0,1,1]",0,13,13,13,1,0,0,,,1,FALSE,,,,,,,,,,,,,,,,,,,,,,,,,,,,,,,
,58afadc49f78e200018fa48d,627c82cc5e3dc141ac15ff29,2022-05-11_23h45.39.862,classification_task,2021.2.3,Win32,59.87665409,627c6715c52fd12f31907bcf,,,,,,,,,,,,,,,,,,,,,,,a,0,1.934,"[""0.782"",""0.429"",""0.528"",""0.704""]","[0,1,1,1]",0,14,14,14,1,1,1,,,1,FALSE,,,,,,,,,,,,,,,,,,,,,,,,,,,,,,,
,58afadc49f78e200018fa48d,627c82cc5e3dc141ac15ff29,2022-05-11_23h45.39.862,classification_task,2021.2.3,Win32,59.87665409,627c6715c52fd12f31907bcf,,,,,,,,,,,,,,,,,,,,,,,l,1,0.9749,"[""0.066"",""0.805"",""0.528"",""0.704""]","[1,0,1,1]",0,15,15,15,1,1,1,,,1,FALSE,,,,,,,,,,,,,,,,,,,,,,,,,,,,,,,
,58afadc49f78e200018fa48d,627c82cc5e3dc141ac15ff29,2022-05-11_23h45.39.862,classification_task,2021.2.3,Win32,59.87665409,627c6715c52fd12f31907bcf,,,,,,,,,,,,,,,,,,,,,,,a,1,1.1192,"[""0.971"",""0.328"",""0.851"",""0.920""]","[0,1,1,1]",0,16,16,16,1,0,0,,,1,FALSE,,,,,,,,,,,,,,,,,,,,,,,,,,,,,,,
,58afadc49f78e200018fa48d,627c82cc5e3dc141ac15ff29,2022-05-11_23h45.39.862,classification_task,2021.2.3,Win32,59.87665409,627c6715c52fd12f31907bcf,,,,,,,,,,,,,,,,,,,,,,,l,1,1.9839,"[""0.783"",""0.384"",""0.665"",""0.739""]","[0,1,1,1]",0,17,17,17,1,1,0,,,1,FALSE,,,,,,,,,,,,,,,,,,,,,,,,,,,,,,,
,58afadc49f78e200018fa48d,627c82cc5e3dc141ac15ff29,2022-05-11_23h45.39.862,classification_task,2021.2.3,Win32,59.87665409,627c6715c52fd12f31907bcf,,,,,,,,,,,,,,,,,,,,,,,l,1,0.8436,"[""0.066"",""0.776"",""0.528"",""0.704""]","[1,0,1,1]",0,18,18,18,1,1,1,,,1,FALSE,,,,,,,,,,,,,,,,,,,,,,,,,,,,,,,
,58afadc49f78e200018fa48d,627c82cc5e3dc141ac15ff29,2022-05-11_23h45.39.862,classification_task,2021.2.3,Win32,59.87665409,627c6715c52fd12f31907bcf,,,,,,,,,,,,,,,,,,,,,,,a,0,2.6021,"[""0.807"",""0.429"",""0.528"",""0.704""]","[0,1,1,1]",0,19,19,19,1,1,1,,,1,FALSE,,,,,,,,,,,,,,,,,,,,,,,,,,,,,,,
,58afadc49f78e200018fa48d,627c82cc5e3dc141ac15ff29,2022-05-11_23h45.39.862,classification_task,2021.2.3,Win32,59.87665409,627c6715c52fd12f31907bcf,,,,,,,,,,,,,,,,,,,,,,,a,1,1.1624,"[""0.250"",""0.328"",""0.851"",""0.783""]","[1,1,1,0]",0,20,20,20,1,0,0,,,1,FALSE,,,,,,,,,,,,,,,,,,,,,,,,,,,,,,,
,58afadc49f78e200018fa48d,627c82cc5e3dc141ac15ff29,2022-05-11_23h45.39.862,classification_task,2021.2.3,Win32,59.87665409,627c6715c52fd12f31907bcf,,,,,,,,,,,,,,,,,,,,,,,l,0,4.3369,"[""0.627"",""0.482"",""0.581"",""0.886""]","[0,1,1,1]",0,21,21,21,1,0,1,,,1,FALSE,,,,,,,,,,,,,,,,,,,,,,,,,,,,,,,
,58afadc49f78e200018fa48d,627c82cc5e3dc141ac15ff29,2022-05-11_23h45.39.862,classification_task,2021.2.3,Win32,59.87665409,627c6715c52fd12f31907bcf,,,,,,,,,,,,,,,,,,,,,,,a,1,1.7557,"[""0.250"",""0.025"",""0.851"",""0.920""]","[1,0,1,1]",0,22,22,22,1,0,0,,,1,FALSE,,,,,,,,,,,,,,,,,,,,,,,,,,,,,,,
,58afadc49f78e200018fa48d,627c82cc5e3dc141ac15ff29,2022-05-11_23h45.39.862,classification_task,2021.2.3,Win32,59.87665409,627c6715c52fd12f31907bcf,,,,,,,,,,,,,,,,,,,,,,,l,1,2.118,"[""0.132"",""0.384"",""0.665"",""0.776""]","[1,1,1,0]",0,23,23,23,1,1,0,,,1,FALSE,,,,,,,,,,,,,,,,,,,,,,,,,,,,,,,
,58afadc49f78e200018fa48d,627c82cc5e3dc141ac15ff29,2022-05-11_23h45.39.862,classification_task,2021.2.3,Win32,59.87665409,627c6715c52fd12f31907bcf,,,,,,,,,,,,,,,,,,,,,,,a,1,1.0251,"[""0.250"",""0.328"",""0.807"",""0.920""]","[1,1,0,1]",0,24,24,24,1,0,0,,,1,FALSE,,,,,,,,,,,,,,,,,,,,,,,,,,,,,,,
,58afadc49f78e200018fa48d,627c82cc5e3dc141ac15ff29,2022-05-11_23h45.39.862,classification_task,2021.2.3,Win32,59.87665409,627c6715c52fd12f31907bcf,,,,,,,,,,,,,,,,,,,,,,,l,1,0.8999,"[""0.066"",""0.429"",""0.958"",""0.704""]","[1,1,0,1]",0,25,25,25,1,1,1,,,1,FALSE,,,,,,,,,,,,,,,,,,,,,,,,,,,,,,,
,58afadc49f78e200018fa48d,627c82cc5e3dc141ac15ff29,2022-05-11_23h45.39.862,classification_task,2021.2.3,Win32,59.87665409,627c6715c52fd12f31907bcf,,,,,,,,,,,,,,,,,,,,,,,a,1,1.0164,"[""0.191"",""0.627"",""0.581"",""0.886""]","[1,0,1,1]",0,26,26,26,1,0,1,,,1,FALSE,,,,,,,,,,,,,,,,,,,,,,,,,,,,,,,
,58afadc49f78e200018fa48d,627c82cc5e3dc141ac15ff29,2022-05-11_23h45.39.862,classification_task,2021.2.3,Win32,59.87665409,627c6715c52fd12f31907bcf,,,,,,,,,,,,,,,,,,,,,,,l,1,0.8203,"[""0.132"",""0.776"",""0.665"",""0.739""]","[1,0,1,1]",0,27,27,27,1,1,0,,,1,FALSE,,,,,,,,,,,,,,,,,,,,,,,,,,,,,,,
,58afadc49f78e200018fa48d,627c82cc5e3dc141ac15ff29,2022-05-11_23h45.39.862,classification_task,2021.2.3,Win32,59.87665409,627c6715c52fd12f31907bcf,,,,,,,,,,,,,,,,,,,,,,,a,0,1.0166,"[""0.066"",""0.429"",""0.528"",""0.958""]","[1,1,1,0]",0,28,28,28,1,1,1,,,1,FALSE,,,,,,,,,,,,,,,,,,,,,,,,,,,,,,,
,58afadc49f78e200018fa48d,627c82cc5e3dc141ac15ff29,2022-05-11_23h45.39.862,classification_task,2021.2.3,Win32,59.87665409,627c6715c52fd12f31907bcf,,,,,,,,,,,,,,,,,,,,,,,l,1,1.7136,"[""0.132"",""0.384"",""0.971"",""0.739""]","[1,1,0,1]",0,29,29,29,1,1,0,,,1,FALSE,,,,,,,,,,,,,,,,,,,,,,,,,,,,,,,
,58afadc49f78e200018fa48d,627c82cc5e3dc141ac15ff29,2022-05-11_23h45.39.862,classification_task,2021.2.3,Win32,59.87665409,627c6715c52fd12f31907bcf,,,,,,,,,,,,,,,,,,,,,,,a,1,0.9649,"[""0.191"",""0.482"",""0.782"",""0.886""]","[1,1,0,1]",0,30,30,30,1,0,1,,,1,FALSE,,,,,,,,,,,,,,,,,,,,,,,,,,,,,,,
,58afadc49f78e200018fa48d,627c82cc5e3dc141ac15ff29,2022-05-11_23h45.39.862,classification_task,2021.2.3,Win32,59.87665409,627c6715c52fd12f31907bcf,,,,,,,,,,,,,,,,,,,,,,,a,1,1.104,"[""0.191"",""0.482"",""0.581"",""0.971""]","[1,1,1,0]",0,31,31,31,1,0,1,,,1,FALSE,,,,,,,,,,,,,,,,,,,,,,,,,,,,,,,
,58afadc49f78e200018fa48d,627c82cc5e3dc141ac15ff29,2022-05-11_23h45.39.862,classification_task,2021.2.3,Win32,59.87665409,627c6715c52fd12f31907bcf,,,,,,,,,,,,,,,,,,,,,,,l,1,0.9521,"[""0.132"",""0.384"",""0.815"",""0.739""]","[1,1,0,1]",0,32,32,32,1,1,0,,,1,FALSE,,,,,,,,,,,,,,,,,,,,,,,,,,,,,,,
,58afadc49f78e200018fa48d,627c82cc5e3dc141ac15ff29,2022-05-11_23h45.39.862,classification_task,2021.2.3,Win32,59.87665409,627c6715c52fd12f31907bcf,,,,,,,,,,,,,,,,,,,,,,,a,1,0.9329,"[""0.191"",""0.805"",""0.581"",""0.886""]","[1,0,1,1]",0,33,33,33,1,0,1,,,1,FALSE,,,,,,,,,,,,,,,,,,,,,,,,,,,,,,,
,58afadc49f78e200018fa48d,627c82cc5e3dc141ac15ff29,2022-05-11_23h45.39.862,classification_task,2021.2.3,Win32,59.87665409,627c6715c52fd12f31907bcf,,,,,,,,,,,,,,,,,,,,,,,a,1,0.8204,"[""0.191"",""0.482"",""0.627"",""0.886""]","[1,1,0,1]",0,34,34,34,1,0,1,,,1,FALSE,,,,,,,,,,,,,,,,,,,,,,,,,,,,,,,
,58afadc49f78e200018fa48d,627c82cc5e3dc141ac15ff29,2022-05-11_23h45.39.862,classification_task,2021.2.3,Win32,59.87665409,627c6715c52fd12f31907bcf,,,,,,,,,,,,,,,,,,,,,,,a,1,1.3373,"[""0.250"",""0.807"",""0.851"",""0.920""]","[1,0,1,1]",0,35,35,35,1,0,0,,,1,FALSE,,,,,,,,,,,,,,,,,,,,,,,,,,,,,,,
,58afadc49f78e200018fa48d,627c82cc5e3dc141ac15ff29,2022-05-11_23h45.39.862,classification_task,2021.2.3,Win32,59.87665409,627c6715c52fd12f31907bcf,,,,,,,,,,,,,,,,,,,,,,,l,1,1.1494,"[""0.811"",""0.384"",""0.665"",""0.739""]","[0,1,1,1]",0,36,36,36,1,1,0,,,1,FALSE,,,,,,,,,,,,,,,,,,,,,,,,,,,,,,,
,58afadc49f78e200018fa48d,627c82cc5e3dc141ac15ff29,2022-05-11_23h45.39.862,classification_task,2021.2.3,Win32,59.87665409,627c6715c52fd12f31907bcf,,,,,,,,,,,,,,,,,,,,,,,a,1,1.1619,"[""0.191"",""0.482"",""0.581"",""0.627""]","[1,1,1,0]",0,37,37,37,1,0,1,,,1,FALSE,,,,,,,,,,,,,,,,,,,,,,,,,,,,,,,
,58afadc49f78e200018fa48d,627c82cc5e3dc141ac15ff29,2022-05-11_23h45.39.862,classification_task,2021.2.3,Win32,59.87665409,627c6715c52fd12f31907bcf,,,,,,,,,,,,,,,,,,,,,,,a,1,0.9556,"[""0.250"",""0.328"",""0.783"",""0.920""]","[1,1,0,1]",0,38,38,38,1,0,0,,,1,FALSE,,,,,,,,,,,,,,,,,,,,,,,,,,,,,,,
,58afadc49f78e200018fa48d,627c82cc5e3dc141ac15ff29,2022-05-11_23h45.39.862,classification_task,2021.2.3,Win32,59.87665409,627c6715c52fd12f31907bcf,,,,,,,,,,,,,,,,,,,,,,,a,1,0.9016,"[""0.627"",""0.328"",""0.851"",""0.920""]","[0,1,1,1]",0,39,39,39,1,0,0,,,1,FALSE,,,,,,,,,,,,,,,,,,,,,,,,,,,,,,,
,58afadc49f78e200018fa48d,627c82cc5e3dc141ac15ff29,2022-05-11_23h45.39.862,classification_task,2021.2.3,Win32,59.87665409,627c6715c52fd12f31907bcf,,,,,,,,,,,,,,,,,,,,,,,a,1,0.6557,"[""0.250"",""0.328"",""0.851"",""0.788""]","[1,1,1,0]",0,40,40,40,1,0,0,,,1,FALSE,,,,,,,,,,,,,,,,,,,,,,,,,,,,,,,
,58afadc49f78e200018fa48d,627c82cc5e3dc141ac15ff29,2022-05-11_23h45.39.862,classification_task,2021.2.3,Win32,59.87665409,627c6715c52fd12f31907bcf,,,,,,,,,,,,,,,,,,,,,,,l,1,1.0309,"[""0.066"",""0.788"",""0.528"",""0.704""]","[1,0,1,1]",0,41,41,41,1,1,1,,,1,FALSE,,,,,,,,,,,,,,,,,,,,,,,,,,,,,,,
,58afadc49f78e200018fa48d,627c82cc5e3dc141ac15ff29,2022-05-11_23h45.39.862,classification_task,2021.2.3,Win32,59.87665409,627c6715c52fd12f31907bcf,,,,,,,,,,,,,,,,,,,,,,,l,1,2.2063,"[""0.132"",""0.384"",""0.665"",""0.971""]","[1,1,1,0]",0,42,42,42,1,1,0,,,1,FALSE,,,,,,,,,,,,,,,,,,,,,,,,,,,,,,,
,58afadc49f78e200018fa48d,627c82cc5e3dc141ac15ff29,2022-05-11_23h45.39.862,classification_task,2021.2.3,Win32,59.87665409,627c6715c52fd12f31907bcf,,,,,,,,,,,,,,,,,,,,,,,l,1,0.5086,"[""0.132"",""0.627"",""0.665"",""0.739""]","[1,0,1,1]",0,43,43,43,1,1,0,,,1,FALSE,,,,,,,,,,,,,,,,,,,,,,,,,,,,,,,
,58afadc49f78e200018fa48d,627c82cc5e3dc141ac15ff29,2022-05-11_23h45.39.862,classification_task,2021.2.3,Win32,59.87665409,627c6715c52fd12f31907bcf,,,,,,,,,,,,,,,,,,,,,,,a,1,4.2827,"[""0.776"",""0.482"",""0.581"",""0.886""]","[0,1,1,1]",0,44,44,44,1,0,1,,,1,FALSE,,,,,,,,,,,,,,,,,,,,,,,,,,,,,,,
,58afadc49f78e200018fa48d,627c82cc5e3dc141ac15ff29,2022-05-11_23h45.39.862,classification_task,2021.2.3,Win32,59.87665409,627c6715c52fd12f31907bcf,,,,,,,,,,,,,,,,,,,,,,,l,1,1.2753,"[""0.066"",""0.429"",""0.528"",""0.627""]","[1,1,1,0]",0,45,45,45,1,1,1,,,1,FALSE,,,,,,,,,,,,,,,,,,,,,,,,,,,,,,,
,58afadc49f78e200018fa48d,627c82cc5e3dc141ac15ff29,2022-05-11_23h45.39.862,classification_task,2021.2.3,Win32,59.87665409,627c6715c52fd12f31907bcf,,,,,,,,,,,,,,,,,,,,,,,l,1,1.2578,"[""0.066"",""0.429"",""0.627"",""0.704""]","[1,1,0,1]",0,46,46,46,1,1,1,,,1,FALSE,,,,,,,,,,,,,,,,,,,,,,,,,,,,,,,
,58afadc49f78e200018fa48d,627c82cc5e3dc141ac15ff29,2022-05-11_23h45.39.862,classification_task,2021.2.3,Win32,59.87665409,627c6715c52fd12f31907bcf,,,,,,,,,,,,,,,,,,,,,,,a,0,1.585,"[""0.800"",""0.429"",""0.528"",""0.704""]","[0,1,1,1]",0,47,47,47,1,1,1,,,1,FALSE,,,,,,,,,,,,,,,,,,,,,,,,,,,,,,,
,58afadc49f78e200018fa48d,627c82cc5e3dc141ac15ff29,2022-05-11_23h45.39.862,classification_task,2021.2.3,Win32,59.87665409,627c6715c52fd12f31907bcf,,,,,,,,,,,,,,,,,,,,,,,a,1,0.9165,"[""0.958"",""0.328"",""0.851"",""0.920""]","[0,1,1,1]",0,48,48,48,1,0,0,,,1,FALSE,,,,,,,,,,,,,,,,,,,,,,,,,,,,,,,
,58afadc49f78e200018fa48d,627c82cc5e3dc141ac15ff29,2022-05-11_23h45.39.862,classification_task,2021.2.3,Win32,59.87665409,627c6715c52fd12f31907bcf,,,,,,,,,,,,,,,,,,,,,,,a,1,0.6007,"[""0.250"",""0.328"",""0.851"",""0.971""]","[1,1,1,0]",0,49,49,49,1,0,0,,,1,FALSE,,,,,,,,,,,,,,,,,,,,,,,,,,,,,,,
,58afadc49f78e200018fa48d,627c82cc5e3dc141ac15ff29,2022-05-11_23h45.39.862,classification_task,2021.2.3,Win32,59.87665409,627c6715c52fd12f31907bcf,,,,,,,,,,,,,,,,,,,,,,,l,1,1.0888,"[""0.132"",""0.384"",""0.627"",""0.739""]","[1,1,0,1]",0,50,50,50,1,1,0,,,1,FALSE,,,,,,,,,,,,,,,,,,,,,,,,,,,,,,,
,58afadc49f78e200018fa48d,627c82cc5e3dc141ac15ff29,2022-05-11_23h45.39.862,classification_task,2021.2.3,Win32,59.87665409,627c6715c52fd12f31907bcf,,,,,,,,,,,,,,,,,,,,,,,l,1,1.7993,"[""0.797"",""0.384"",""0.665"",""0.739""]","[0,1,1,1]",0,51,51,51,1,1,0,,,1,FALSE,,,,,,,,,,,,,,,,,,,,,,,,,,,,,,,
,58afadc49f78e200018fa48d,627c82cc5e3dc141ac15ff29,2022-05-11_23h45.39.862,classification_task,2021.2.3,Win32,59.87665409,627c6715c52fd12f31907bcf,,,,,,,,,,,,,,,,,,,,,,,a,1,0.7359,"[""0.250"",""0.328"",""0.971"",""0.920""]","[1,1,0,1]",0,52,52,52,1,0,0,,,1,FALSE,,,,,,,,,,,,,,,,,,,,,,,,,,,,,,,
,58afadc49f78e200018fa48d,627c82cc5e3dc141ac15ff29,2022-05-11_23h45.39.862,classification_task,2021.2.3,Win32,59.87665409,627c6715c52fd12f31907bcf,,,,,,,,,,,,,,,,,,,,,,,l,0,4.8395,"[""0.797"",""0.482"",""0.581"",""0.886""]","[0,1,1,1]",0,53,53,53,1,0,1,,,1,FALSE,,,,,,,,,,,,,,,,,,,,,,,,,,,,,,,
,58afadc49f78e200018fa48d,627c82cc5e3dc141ac15ff29,2022-05-11_23h45.39.862,classification_task,2021.2.3,Win32,59.87665409,627c6715c52fd12f31907bcf,,,,,,,,,,,,,,,,,,,,,,,a,1,1.0106,"[""0.191"",""0.482"",""0.776"",""0.886""]","[1,1,0,1]",0,54,54,54,1,0,1,,,1,FALSE,,,,,,,,,,,,,,,,,,,,,,,,,,,,,,,
,58afadc49f78e200018fa48d,627c82cc5e3dc141ac15ff29,2022-05-11_23h45.39.862,classification_task,2021.2.3,Win32,59.87665409,627c6715c52fd12f31907bcf,,,,,,,,,,,,,,,,,,,,,,,a,0,1.5557,"[""0.811"",""0.429"",""0.528"",""0.704""]","[0,1,1,1]",0,55,55,55,1,1,1,,,1,FALSE,,,,,,,,,,,,,,,,,,,,,,,,,,,,,,,
,58afadc49f78e200018fa48d,627c82cc5e3dc141ac15ff29,2022-05-11_23h45.39.862,classification_task,2021.2.3,Win32,59.87665409,627c6715c52fd12f31907bcf,,,,,,,,,,,,,,,,,,,,,,,l,1,1.6979,"[""0.066"",""0.429"",""0.970"",""0.704""]","[1,1,0,1]",0,56,56,56,1,1,1,,,1,FALSE,,,,,,,,,,,,,,,,,,,,,,,,,,,,,,,
,58afadc49f78e200018fa48d,627c82cc5e3dc141ac15ff29,2022-05-11_23h45.39.862,classification_task,2021.2.3,Win32,59.87665409,627c6715c52fd12f31907bcf,,,,,,,,,,,,,,,,,,,,,,,a,1,1.0994,"[""0.191"",""0.788"",""0.581"",""0.886""]","[1,0,1,1]",0,57,57,57,1,0,1,,,1,FALSE,,,,,,,,,,,,,,,,,,,,,,,,,,,,,,,
,58afadc49f78e200018fa48d,627c82cc5e3dc141ac15ff29,2022-05-11_23h45.39.862,classification_task,2021.2.3,Win32,59.87665409,627c6715c52fd12f31907bcf,,,,,,,,,,,,,,,,,,,,,,,l,1,1.4296,"[""0.066"",""0.776"",""0.528"",""0.704""]","[1,0,1,1]",0,58,58,58,1,1,1,,,1,FALSE,,,,,,,,,,,,,,,,,,,,,,,,,,,,,,,
,58afadc49f78e200018fa48d,627c82cc5e3dc141ac15ff29,2022-05-11_23h45.39.862,classification_task,2021.2.3,Win32,59.87665409,627c6715c52fd12f31907bcf,,,,,,,,,,,,,,,,,,,,,,,l,1,1.5678,"[""0.132"",""0.384"",""0.665"",""0.627""]","[1,1,1,0]",0,59,59,59,1,1,0,,,1,FALSE,,,,,,,,,,,,,,,,,,,,,,,,,,,,,,,
,58afadc49f78e200018fa48d,627c82cc5e3dc141ac15ff29,2022-05-11_23h45.39.862,classification_task,2021.2.3,Win32,59.87665409,627c6715c52fd12f31907bcf,,,,,,,,,,,,,,,,,,,,,,,l,1,0.9188,"[""0.066"",""0.429"",""0.528"",""0.805""]","[1,1,1,0]",0,60,60,60,1,1,1,,,1,FALSE,,,,,,,,,,,,,,,,,,,,,,,,,,,,,,,
,58afadc49f78e200018fa48d,627c82cc5e3dc141ac15ff29,2022-05-11_23h45.39.862,classification_task,2021.2.3,Win32,59.87665409,627c6715c52fd12f31907bcf,,,,,,,,,,,,,,,,,,,,,,,a,1,0.7632,"[""0.191"",""0.482"",""0.581"",""0.782""]","[1,1,1,0]",0,61,61,61,1,0,1,,,1,FALSE,,,,,,,,,,,,,,,,,,,,,,,,,,,,,,,
,58afadc49f78e200018fa48d,627c82cc5e3dc141ac15ff29,2022-05-11_23h45.39.862,classification_task,2021.2.3,Win32,59.87665409,627c6715c52fd12f31907bcf,,,,,,,,,,,,,,,,,,,,,,,a,1,0.9974,"[""0.250"",""0.788"",""0.851"",""0.920""]","[1,0,1,1]",0,62,62,62,1,0,0,,,1,FALSE,,,,,,,,,,,,,,,,,,,,,,,,,,,,,,,
,58afadc49f78e200018fa48d,627c82cc5e3dc141ac15ff29,2022-05-11_23h45.39.862,classification_task,2021.2.3,Win32,59.87665409,627c6715c52fd12f31907bcf,,,,,,,,,,,,,,,,,,,,,,,l,1,0.7828,"[""0.132"",""0.783"",""0.665"",""0.739""]","[1,0,1,1]",0,63,63,63,1,1,0,,,1,FALSE,,,,,,,,,,,,,,,,,,,,,,,,,,,,,,,
,58afadc49f78e200018fa48d,627c82cc5e3dc141ac15ff29,2022-05-11_23h45.39.862,classification_task,2021.2.3,Win32,59.87665409,627c6715c52fd12f31907bcf,,,,,,,,,,,,,,,,,,,,,,,,,,,,,,,,,,,,,,,0, ,,0,0.394866513,169.4748,0,2,2,2,1,2,3,,,,,,,,,,,,,,,,,,
,58afadc49f78e200018fa48d,627c82cc5e3dc141ac15ff29,2022-05-11_23h45.39.862,classification_task,2021.2.3,Win32,59.87665409,627c6715c52fd12f31907bcf,,,,,,,,,,,,,,,,,,,,,,,,,,,,,,,,,,,,,,,1,  ,,0,4.0201857,171.9843,0,2,2,2,1,2,3,,,,,,,,,,,,,,,,,,
,58afadc49f78e200018fa48d,627c82cc5e3dc141ac15ff29,2022-05-11_23h45.39.862,classification_task,2021.2.3,Win32,59.87665409,627c6715c52fd12f31907bcf,,,,,,,,,,,,,,,,,,,,,,,,,,,,,,,,,,,,,,,2,  ,,0,3.750734862,175.9371,0,2,2,2,1,2,3,,,,,,,,,,,,,,,,,,
,58afadc49f78e200018fa48d,627c82cc5e3dc141ac15ff29,2022-05-11_23h45.39.862,classification_task,2021.2.3,Win32,59.87665409,627c6715c52fd12f31907bcf,,,,,,,,,,,,,,,,,,,,,,,,,,,,,,,,,,,,,,,,,,,,,0,2,2,2,1,,3,,,,,,,,,,,,,,,,,,
,58afadc49f78e200018fa48d,627c82cc5e3dc141ac15ff29,2022-05-11_23h45.39.862,classification_task,2021.2.3,Win32,59.87665409,627c6715c52fd12f31907bcf,,,,,,,,,,,,,,,,,,,,,,,,,,,,,,,,,,,,,,,,,,,,,,,,,,,,,I believe the aid is a competent performer,,0.7,0,5,884.7536,0,0,0,0,1,0,,,,,
,58afadc49f78e200018fa48d,627c82cc5e3dc141ac15ff29,2022-05-11_23h45.39.862,classification_task,2021.2.3,Win32,59.87665409,627c6715c52fd12f31907bcf,,,,,,,,,,,,,,,,,,,,,,,,,,,,,,,,,,,,,,,,,,,,,,,,,,,,,I trust the aid,,0.7,0,5,885.6936,0,0,0,0,1,0,,,,,
,58afadc49f78e200018fa48d,627c82cc5e3dc141ac15ff29,2022-05-11_23h45.39.862,classification_task,2021.2.3,Win32,59.87665409,627c6715c52fd12f31907bcf,,,,,,,,,,,,,,,,,,,,,,,,,,,,,,,,,,,,,,,,,,,,,,,,,,,,,I have confidence in the advice given by the aid,,0.7,0,5,886.4256,0,0,0,0,1,0,,,,,
,58afadc49f78e200018fa48d,627c82cc5e3dc141ac15ff29,2022-05-11_23h45.39.862,classification_task,2021.2.3,Win32,59.87665409,627c6715c52fd12f31907bcf,,,,,,,,,,,,,,,,,,,,,,,,,,,,,,,,,,,,,,,,,,,,,,,,,,,,,I can depend on the aid,,0.7,0,5,887.3584,0,0,0,0,1,0,,,,,
,58afadc49f78e200018fa48d,627c82cc5e3dc141ac15ff29,2022-05-11_23h45.39.862,classification_task,2021.2.3,Win32,59.87665409,627c6715c52fd12f31907bcf,,,,,,,,,,,,,,,,,,,,,,,,,,,,,,,,,,,,,,,,,,,,,,,,,,,,,I can rely on the aid to behave in consistent ways,,0.7,0,5,888.2047,0,0,0,0,1,0,,,,,
,58afadc49f78e200018fa48d,627c82cc5e3dc141ac15ff29,2022-05-11_23h45.39.862,classification_task,2021.2.3,Win32,59.87665409,627c6715c52fd12f31907bcf,,,,,,,,,,,,,,,,,,,,,,,,,,,,,,,,,,,,,,,,,,,,,,,,,,,,,I can rely on the aid to do its best every time I take its advice,,0.7,0,5,889.07,0,0,0,0,1,0,,,,,
,58afadc49f78e200018fa48d,627c82cc5e3dc141ac15ff29,2022-05-11_23h45.39.862,classification_task,2021.2.3,Win32,59.87665409,627c6715c52fd12f31907bcf,,,,,,,,,,,,,,,,,,,,,,,,,,,,,,,,,,,,,,,,,,,,,,,,,,,,,"On trials you completed with assistance from the aid, how frequently did you think the aid was correct?",,0.7,0,100,,0,0,0,0,1,0,,,,,
,58afadc49f78e200018fa48d,627c82cc5e3dc141ac15ff29,2022-05-11_23h45.39.862,classification_task,2021.2.3,Win32,59.87665409,627c6715c52fd12f31907bcf,,,,,,,,,,,,,,,,,,,,,,,,,,,,,,,,,,,,,,,,,,,,,,,,,,,,,"On trials you completed without the aid, how frequently did you think you were correct?",,0.7,0,75,,0,0,0,0,1,0,,,,,
,58afadc49f78e200018fa48d,627c82cc5e3dc141ac15ff29,2022-05-11_23h45.39.862,classification_task,2021.2.3,Win32,59.87665409,627c6715c52fd12f31907bcf,,,,,,,,,,,,,,,,,,,,,,,,,,,,,,,,,,,,,,,,,,,,,,,,,,,,,,,,,,,0,0,0,0,1,,,,,,
,58afadc49f78e200018fa48d,627c82cc5e3dc141ac15ff29,2022-05-11_23h45.39.862,classification_task,2021.2.3,Win32,59.87665409,627c6715c52fd12f31907bcf,,,,,,,,,,,,,,,,,,,,,,,,,,,,,,,,,,,,,,,,,,,,,,,,,,,,,,,,,,,,,,,,,space,6.5276,912.1635,,
,58afadc49f78e200018fa48d,627c82cc5e3dc141ac15ff29,2022-05-11_23h45.39.862,classification_task,2021.2.3,Win32,59.87665409,627c6715c52fd12f31907bcf,,,,,,,,,,,,,,,,,,,,,,,,,,,,,,,,,,,,,,,,,,,,,,,,,,,,,,,,,,,,,,,,,,,,"Mozilla/5.0 (Windows NT 10.0; Win64; x64) AppleWebKit/537.36 (KHTML, like Gecko) Chrome/101.0.4951.54 Safari/537.36",
,58afadc49f78e200018fa48d,627c82cc5e3dc141ac15ff29,2022-05-11_23h45.39.862,classification_task,2021.2.3,Win32,59.87665409,627c6715c52fd12f31907bcf,,,,,,,,,,,,,,,,,,,,,,,,,,,,,,,,,,,,,,,,,,,,,,,,,,,,,,,,,,,,,,,,,,,,,FADING
