usingWebGL,participant,session,date,expName,psychopyVersion,OS,frameRate,study_id,signatures_friend,signatures_foe,band_ranges_top,band_ranges_bottom,formitemText,formtype,formundefined,formitemWidth,formindex,formresponse,formrt,key_resp_2.keys,key_resp_2.rt,tute_resp.keys,tute_resp.rt,tutorial.thisRepN,tutorial.thisTrialN,tutorial.thisN,tutorial.thisIndex,tutorial.ran,key_resp_4.keys,key_resp_4.rt,key_resp.keys,key_resp.corr,key_resp.rt,lines_presented,is_signal_presented,trials.thisRepN,trials.thisTrialN,trials.thisN,trials.thisIndex,trials.ran,vessel,active_band,lines,is_signal,supported_pos,catch_trial,debrief_formindex,debrief_formitemText,debrief_formtype,debrief_formitemWidth,debrief_formresponse,debrief_formrt,phases.thisRepN,phases.thisTrialN,phases.thisN,phases.thisIndex,phases.ran,phases.order,phase,key_resp_3.keys,trustitemText,trusttype,trustitemWidth,trustindex,trustresponse,trustrt,support_status.thisRepN,support_status.thisTrialN,support_status.thisN,support_status.thisIndex,support_status.ran,support_status.order,key_resp_5.keys,key_resp_5.rt,globalClockTime,userAgent,manualCondition
TRUE,5934fb0a67011200014d3a50,627c6f2a54f1a45c4ae2986b,2022-05-11_22h21.49.864,classification_task,2021.2.3,MacIntel,59.97361161,627c6715c52fd12f31907bd0,,,,,,,,,,,,,,,,,,,,,,,,,,,,,,,,,,,,,,,,,,,,,,,,,,,,,,,,,,,,,,,,,,,,,
,5934fb0a67011200014d3a50,627c6f2a54f1a45c4ae2986b,2022-05-11_22h21.49.864,classification_task,2021.2.3,MacIntel,59.97361161,627c6715c52fd12f31907bd0,"[[""0.324"",""0.439"",""0.825"",""0.888""],[""0.234"",""0.524"",""0.936"",""0.970""]]","[[""0.140"",""0.384"",""0.474"",""0.777""],[""0.088"",""0.284"",""0.570"",""0.710""]]","[1,10]","[100,1000]",Video game experience,,,0.7,0,,,,,,,,,,,,,,,,,,,,,,,,,,,,,,,,,,,,,,,,,,,,,,,,,,,,,,,,,,,,
,5934fb0a67011200014d3a50,627c6f2a54f1a45c4ae2986b,2022-05-11_22h21.49.864,classification_task,2021.2.3,MacIntel,59.97361161,627c6715c52fd12f31907bd0,,,,,Approximately how many hours did you spend playing video games in the last week?,,,0.7,0,10,,,,,,,,,,,,,,,,,,,,,,,,,,,,,,,,,,,,,,,,,,,,,,,,,,,,,,,,,,,
,5934fb0a67011200014d3a50,627c6f2a54f1a45c4ae2986b,2022-05-11_22h21.49.864,classification_task,2021.2.3,MacIntel,59.97361161,627c6715c52fd12f31907bd0,,,,,"Which game did you play the most this year? (Enter ""None"" if you didn't play any)",,,0.7,0,"animal crossing, roblox",,,,,,,,,,,,,,,,,,,,,,,,,,,,,,,,,,,,,,,,,,,,,,,,,,,,,,,,,,,
,5934fb0a67011200014d3a50,627c6f2a54f1a45c4ae2986b,2022-05-11_22h21.49.864,classification_task,2021.2.3,MacIntel,59.97361161,627c6715c52fd12f31907bd0,,,,,Visual perception,,,0.7,0,,,,,,,,,,,,,,,,,,,,,,,,,,,,,,,,,,,,,,,,,,,,,,,,,,,,,,,,,,,,
,5934fb0a67011200014d3a50,627c6f2a54f1a45c4ae2986b,2022-05-11_22h21.49.864,classification_task,2021.2.3,MacIntel,59.97361161,627c6715c52fd12f31907bd0,,,,,Do you have any form of color blindness?,,,0.7,0,No,24.4244,,,,,,,,,,,,,,,,,,,,,,,,,,,,,,,,,,,,,,,,,,,,,,,,,,,,,,,,,,
,5934fb0a67011200014d3a50,627c6f2a54f1a45c4ae2986b,2022-05-11_22h21.49.864,classification_task,2021.2.3,MacIntel,59.97361161,627c6715c52fd12f31907bd0,,,,,Do you use software to change the colour temperature of your screen (e.g. f.lux)?,,,0.7,0,No,26.7272,,,,,,,,,,,,,,,,,,,,,,,,,,,,,,,,,,,,,,,,,,,,,,,,,,,,,,,,,,
,5934fb0a67011200014d3a50,627c6f2a54f1a45c4ae2986b,2022-05-11_22h21.49.864,classification_task,2021.2.3,MacIntel,59.97361161,627c6715c52fd12f31907bd0,,,,,,,,,,,,space,32.7735,space,6.9731,0,0,0,0,1,,,,,,,,,,,,,,,,,,,,,,,,,,,,,,,,,,,,,,,,,,,,,,,,,
,5934fb0a67011200014d3a50,627c6f2a54f1a45c4ae2986b,2022-05-11_22h21.49.864,classification_task,2021.2.3,MacIntel,59.97361161,627c6715c52fd12f31907bd0,,,,,,,,,,,,,,space,8.2453,1,0,1,0,1,,,,,,,,,,,,,,,,,,,,,,,,,,,,,,,,,,,,,,,,,,,,,,,,,
,5934fb0a67011200014d3a50,627c6f2a54f1a45c4ae2986b,2022-05-11_22h21.49.864,classification_task,2021.2.3,MacIntel,59.97361161,627c6715c52fd12f31907bd0,,,,,,,,,,,,,,space,27.213,2,0,2,0,1,,,,,,,,,,,,,,,,,,,,,,,,,,,,,,,,,,,,,,,,,,,,,,,,,
,5934fb0a67011200014d3a50,627c6f2a54f1a45c4ae2986b,2022-05-11_22h21.49.864,classification_task,2021.2.3,MacIntel,59.97361161,627c6715c52fd12f31907bd0,,,,,,,,,,,,,,space,4.3899,3,0,3,0,1,,,,,,,,,,,,,,,,,,,,,,,,,,,,,,,,,,,,,,,,,,,,,,,,,
,5934fb0a67011200014d3a50,627c6f2a54f1a45c4ae2986b,2022-05-11_22h21.49.864,classification_task,2021.2.3,MacIntel,59.97361161,627c6715c52fd12f31907bd0,,,,,,,,,,,,,,space,12.3685,4,0,4,0,1,,,,,,,,,,,,,,,,,,,,,,,,,,,,,,,,,,,,,,,,,,,,,,,,,
,5934fb0a67011200014d3a50,627c6f2a54f1a45c4ae2986b,2022-05-11_22h21.49.864,classification_task,2021.2.3,MacIntel,59.97361161,627c6715c52fd12f31907bd0,,,,,,,,,,,,,,,,,,,,,space,11.4367,a,1,5.1073,"[""0.234"",""0.524"",""0.192"",""0.970""]","[1,1,0,1]",0,0,0,0,1,0,1,,,0,FALSE,,,,,,,,,,,,,,,,,,,,,,,,,,,,,,,
,5934fb0a67011200014d3a50,627c6f2a54f1a45c4ae2986b,2022-05-11_22h21.49.864,classification_task,2021.2.3,MacIntel,59.97361161,627c6715c52fd12f31907bd0,,,,,,,,,,,,,,,,,,,,,,,l,1,6.1838,"[""0.659"",""0.384"",""0.474"",""0.777""]","[0,1,1,1]",0,1,1,1,1,1,0,,,0,FALSE,,,,,,,,,,,,,,,,,,,,,,,,,,,,,,,
,5934fb0a67011200014d3a50,627c6f2a54f1a45c4ae2986b,2022-05-11_22h21.49.864,classification_task,2021.2.3,MacIntel,59.97361161,627c6715c52fd12f31907bd0,,,,,,,,,,,,,,,,,,,,,,,a,0,3.6481,"[""0.663"",""0.284"",""0.570"",""0.710""]","[0,1,1,1]",0,2,2,2,1,1,1,,,0,FALSE,,,,,,,,,,,,,,,,,,,,,,,,,,,,,,,
,5934fb0a67011200014d3a50,627c6f2a54f1a45c4ae2986b,2022-05-11_22h21.49.864,classification_task,2021.2.3,MacIntel,59.97361161,627c6715c52fd12f31907bd0,,,,,,,,,,,,,,,,,,,,,,,a,1,4.1978,"[""0.176"",""0.524"",""0.936"",""0.970""]","[0,1,1,1]",0,3,3,3,1,0,1,,,0,FALSE,,,,,,,,,,,,,,,,,,,,,,,,,,,,,,,
,5934fb0a67011200014d3a50,627c6f2a54f1a45c4ae2986b,2022-05-11_22h21.49.864,classification_task,2021.2.3,MacIntel,59.97361161,627c6715c52fd12f31907bd0,,,,,,,,,,,,,,,,,,,,,,,a,1,3.6102,"[""0.324"",""0.673"",""0.825"",""0.888""]","[1,0,1,1]",0,4,4,4,1,0,0,,,0,FALSE,,,,,,,,,,,,,,,,,,,,,,,,,,,,,,,
,5934fb0a67011200014d3a50,627c6f2a54f1a45c4ae2986b,2022-05-11_22h21.49.864,classification_task,2021.2.3,MacIntel,59.97361161,627c6715c52fd12f31907bd0,,,,,,,,,,,,,,,,,,,,,,,a,1,3.2475,"[""0.324"",""0.439"",""0.825"",""0.053""]","[1,1,1,0]",0,5,5,5,1,0,0,,,0,FALSE,,,,,,,,,,,,,,,,,,,,,,,,,,,,,,,
,5934fb0a67011200014d3a50,627c6f2a54f1a45c4ae2986b,2022-05-11_22h21.49.864,classification_task,2021.2.3,MacIntel,59.97361161,627c6715c52fd12f31907bd0,,,,,,,,,,,,,,,,,,,,,,,l,1,4.1846,"[""0.088"",""0.284"",""0.192"",""0.710""]","[1,1,0,1]",0,6,6,6,1,1,1,,,0,FALSE,,,,,,,,,,,,,,,,,,,,,,,,,,,,,,,
,5934fb0a67011200014d3a50,627c6f2a54f1a45c4ae2986b,2022-05-11_22h21.49.864,classification_task,2021.2.3,MacIntel,59.97361161,627c6715c52fd12f31907bd0,,,,,,,,,,,,,,,,,,,,,,,l,1,4.8956,"[""0.140"",""0.384"",""0.673"",""0.777""]","[1,1,0,1]",0,7,7,7,1,1,0,,,0,FALSE,,,,,,,,,,,,,,,,,,,,,,,,,,,,,,,
,5934fb0a67011200014d3a50,627c6f2a54f1a45c4ae2986b,2022-05-11_22h21.49.864,classification_task,2021.2.3,MacIntel,59.97361161,627c6715c52fd12f31907bd0,,,,,,,,,,,,,,,,,,,,,,,l,1,3.0619,"[""0.088"",""0.673"",""0.570"",""0.710""]","[1,0,1,1]",0,8,8,8,1,1,1,,,0,FALSE,,,,,,,,,,,,,,,,,,,,,,,,,,,,,,,
,5934fb0a67011200014d3a50,627c6f2a54f1a45c4ae2986b,2022-05-11_22h21.49.864,classification_task,2021.2.3,MacIntel,59.97361161,627c6715c52fd12f31907bd0,,,,,,,,,,,,,,,,,,,,,,,a,1,3.6641,"[""0.192"",""0.439"",""0.825"",""0.888""]","[0,1,1,1]",0,9,9,9,1,0,0,,,0,FALSE,,,,,,,,,,,,,,,,,,,,,,,,,,,,,,,
,5934fb0a67011200014d3a50,627c6f2a54f1a45c4ae2986b,2022-05-11_22h21.49.864,classification_task,2021.2.3,MacIntel,59.97361161,627c6715c52fd12f31907bd0,,,,,,,,,,,,,,,,,,,,,,,a,1,2.414,"[""0.234"",""0.524"",""0.936"",""0.053""]","[1,1,1,0]",0,10,10,10,1,0,1,,,0,FALSE,,,,,,,,,,,,,,,,,,,,,,,,,,,,,,,
,5934fb0a67011200014d3a50,627c6f2a54f1a45c4ae2986b,2022-05-11_22h21.49.864,classification_task,2021.2.3,MacIntel,59.97361161,627c6715c52fd12f31907bd0,,,,,,,,,,,,,,,,,,,,,,,l,1,3.8268,"[""0.088"",""0.284"",""0.570"",""0.192""]","[1,1,1,0]",0,11,11,11,1,1,1,,,0,FALSE,,,,,,,,,,,,,,,,,,,,,,,,,,,,,,,
,5934fb0a67011200014d3a50,627c6f2a54f1a45c4ae2986b,2022-05-11_22h21.49.864,classification_task,2021.2.3,MacIntel,59.97361161,627c6715c52fd12f31907bd0,,,,,,,,,,,,,,,,,,,,,,,l,1,3.3523,"[""0.140"",""0.192"",""0.474"",""0.777""]","[1,0,1,1]",0,12,12,12,1,1,0,,,0,FALSE,,,,,,,,,,,,,,,,,,,,,,,,,,,,,,,
,5934fb0a67011200014d3a50,627c6f2a54f1a45c4ae2986b,2022-05-11_22h21.49.864,classification_task,2021.2.3,MacIntel,59.97361161,627c6715c52fd12f31907bd0,,,,,,,,,,,,,,,,,,,,,,,a,1,2.2758,"[""0.234"",""0.663"",""0.936"",""0.970""]","[1,0,1,1]",0,13,13,13,1,0,1,,,0,FALSE,,,,,,,,,,,,,,,,,,,,,,,,,,,,,,,
,5934fb0a67011200014d3a50,627c6f2a54f1a45c4ae2986b,2022-05-11_22h21.49.864,classification_task,2021.2.3,MacIntel,59.97361161,627c6715c52fd12f31907bd0,,,,,,,,,,,,,,,,,,,,,,,l,1,1.6887,"[""0.140"",""0.384"",""0.474"",""0.039""]","[1,1,1,0]",0,14,14,14,1,1,0,,,0,FALSE,,,,,,,,,,,,,,,,,,,,,,,,,,,,,,,
,5934fb0a67011200014d3a50,627c6f2a54f1a45c4ae2986b,2022-05-11_22h21.49.864,classification_task,2021.2.3,MacIntel,59.97361161,627c6715c52fd12f31907bd0,,,,,,,,,,,,,,,,,,,,,,,a,1,1.6564,"[""0.324"",""0.439"",""0.663"",""0.888""]","[1,1,0,1]",0,15,15,15,1,0,0,,,0,FALSE,,,,,,,,,,,,,,,,,,,,,,,,,,,,,,,
,5934fb0a67011200014d3a50,627c6f2a54f1a45c4ae2986b,2022-05-11_22h21.49.864,classification_task,2021.2.3,MacIntel,59.97361161,627c6715c52fd12f31907bd0,,,,,,,,,,,,,,,,,,,,,,,l,1,7.2556,"[""0.140"",""0.384"",""0.474"",""0.188""]","[1,1,1,0]",0,16,16,16,1,1,0,,,0,FALSE,,,,,,,,,,,,,,,,,,,,,,,,,,,,,,,
,5934fb0a67011200014d3a50,627c6f2a54f1a45c4ae2986b,2022-05-11_22h21.49.864,classification_task,2021.2.3,MacIntel,59.97361161,627c6715c52fd12f31907bd0,,,,,,,,,,,,,,,,,,,,,,,a,1,1.8863,"[""0.053"",""0.524"",""0.936"",""0.970""]","[0,1,1,1]",0,17,17,17,1,0,1,,,0,FALSE,,,,,,,,,,,,,,,,,,,,,,,,,,,,,,,
,5934fb0a67011200014d3a50,627c6f2a54f1a45c4ae2986b,2022-05-11_22h21.49.864,classification_task,2021.2.3,MacIntel,59.97361161,627c6715c52fd12f31907bd0,,,,,,,,,,,,,,,,,,,,,,,l,1,2.7343,"[""0.659"",""0.284"",""0.570"",""0.710""]","[0,1,1,1]",0,18,18,18,1,1,1,,,0,FALSE,,,,,,,,,,,,,,,,,,,,,,,,,,,,,,,
,5934fb0a67011200014d3a50,627c6f2a54f1a45c4ae2986b,2022-05-11_22h21.49.864,classification_task,2021.2.3,MacIntel,59.97361161,627c6715c52fd12f31907bd0,,,,,,,,,,,,,,,,,,,,,,,l,1,1.9562,"[""0.140"",""0.659"",""0.474"",""0.777""]","[1,0,1,1]",0,19,19,19,1,1,0,,,0,FALSE,,,,,,,,,,,,,,,,,,,,,,,,,,,,,,,
,5934fb0a67011200014d3a50,627c6f2a54f1a45c4ae2986b,2022-05-11_22h21.49.864,classification_task,2021.2.3,MacIntel,59.97361161,627c6715c52fd12f31907bd0,,,,,,,,,,,,,,,,,,,,,,,l,1,1.481,"[""0.140"",""0.384"",""0.044"",""0.777""]","[1,1,0,1]",0,20,20,20,1,1,0,,,0,FALSE,,,,,,,,,,,,,,,,,,,,,,,,,,,,,,,
,5934fb0a67011200014d3a50,627c6f2a54f1a45c4ae2986b,2022-05-11_22h21.49.864,classification_task,2021.2.3,MacIntel,59.97361161,627c6715c52fd12f31907bd0,,,,,,,,,,,,,,,,,,,,,,,a,1,1.5285,"[""0.324"",""0.439"",""0.176"",""0.888""]","[1,1,0,1]",0,21,21,21,1,0,0,,,0,FALSE,,,,,,,,,,,,,,,,,,,,,,,,,,,,,,,
,5934fb0a67011200014d3a50,627c6f2a54f1a45c4ae2986b,2022-05-11_22h21.49.864,classification_task,2021.2.3,MacIntel,59.97361161,627c6715c52fd12f31907bd0,,,,,,,,,,,,,,,,,,,,,,,a,1,1.8258,"[""0.234"",""0.524"",""0.039"",""0.970""]","[1,1,0,1]",0,22,22,22,1,0,1,,,0,FALSE,,,,,,,,,,,,,,,,,,,,,,,,,,,,,,,
,5934fb0a67011200014d3a50,627c6f2a54f1a45c4ae2986b,2022-05-11_22h21.49.864,classification_task,2021.2.3,MacIntel,59.97361161,627c6715c52fd12f31907bd0,,,,,,,,,,,,,,,,,,,,,,,l,1,1.6608,"[""0.188"",""0.384"",""0.474"",""0.777""]","[0,1,1,1]",0,23,23,23,1,1,0,,,0,FALSE,,,,,,,,,,,,,,,,,,,,,,,,,,,,,,,
,5934fb0a67011200014d3a50,627c6f2a54f1a45c4ae2986b,2022-05-11_22h21.49.864,classification_task,2021.2.3,MacIntel,59.97361161,627c6715c52fd12f31907bd0,,,,,,,,,,,,,,,,,,,,,,,l,0,1.8145,"[""0.324"",""0.197"",""0.825"",""0.888""]","[1,0,1,1]",0,24,24,24,1,0,0,,,0,FALSE,,,,,,,,,,,,,,,,,,,,,,,,,,,,,,,
,5934fb0a67011200014d3a50,627c6f2a54f1a45c4ae2986b,2022-05-11_22h21.49.864,classification_task,2021.2.3,MacIntel,59.97361161,627c6715c52fd12f31907bd0,,,,,,,,,,,,,,,,,,,,,,,a,1,3.148,"[""0.234"",""0.524"",""0.936"",""0.663""]","[1,1,1,0]",0,25,25,25,1,0,1,,,0,FALSE,,,,,,,,,,,,,,,,,,,,,,,,,,,,,,,
,5934fb0a67011200014d3a50,627c6f2a54f1a45c4ae2986b,2022-05-11_22h21.49.864,classification_task,2021.2.3,MacIntel,59.97361161,627c6715c52fd12f31907bd0,,,,,,,,,,,,,,,,,,,,,,,a,1,5.5088,"[""0.053"",""0.439"",""0.825"",""0.888""]","[0,1,1,1]",0,26,26,26,1,0,0,,,0,FALSE,,,,,,,,,,,,,,,,,,,,,,,,,,,,,,,
,5934fb0a67011200014d3a50,627c6f2a54f1a45c4ae2986b,2022-05-11_22h21.49.864,classification_task,2021.2.3,MacIntel,59.97361161,627c6715c52fd12f31907bd0,,,,,,,,,,,,,,,,,,,,,,,l,1,2.6294,"[""0.088"",""0.284"",""0.570"",""0.038""]","[1,1,1,0]",0,27,27,27,1,1,1,,,0,FALSE,,,,,,,,,,,,,,,,,,,,,,,,,,,,,,,
,5934fb0a67011200014d3a50,627c6f2a54f1a45c4ae2986b,2022-05-11_22h21.49.864,classification_task,2021.2.3,MacIntel,59.97361161,627c6715c52fd12f31907bd0,,,,,,,,,,,,,,,,,,,,,,,a,1,3.9032,"[""0.324"",""0.439"",""0.825"",""0.176""]","[1,1,1,0]",0,28,28,28,1,0,0,,,0,FALSE,,,,,,,,,,,,,,,,,,,,,,,,,,,,,,,
,5934fb0a67011200014d3a50,627c6f2a54f1a45c4ae2986b,2022-05-11_22h21.49.864,classification_task,2021.2.3,MacIntel,59.97361161,627c6715c52fd12f31907bd0,,,,,,,,,,,,,,,,,,,,,,,a,1,1.8946,"[""0.234"",""0.673"",""0.936"",""0.970""]","[1,0,1,1]",0,29,29,29,1,0,1,,,0,FALSE,,,,,,,,,,,,,,,,,,,,,,,,,,,,,,,
,5934fb0a67011200014d3a50,627c6f2a54f1a45c4ae2986b,2022-05-11_22h21.49.864,classification_task,2021.2.3,MacIntel,59.97361161,627c6715c52fd12f31907bd0,,,,,,,,,,,,,,,,,,,,,,,l,1,1.9688,"[""0.088"",""0.038"",""0.570"",""0.710""]","[1,0,1,1]",0,30,30,30,1,1,1,,,0,FALSE,,,,,,,,,,,,,,,,,,,,,,,,,,,,,,,
,5934fb0a67011200014d3a50,627c6f2a54f1a45c4ae2986b,2022-05-11_22h21.49.864,classification_task,2021.2.3,MacIntel,59.97361161,627c6715c52fd12f31907bd0,,,,,,,,,,,,,,,,,,,,,,,l,1,1.7751,"[""0.088"",""0.284"",""0.673"",""0.710""]","[1,1,0,1]",0,31,31,31,1,1,1,,,0,FALSE,,,,,,,,,,,,,,,,,,,,,,,,,,,,,,,
,5934fb0a67011200014d3a50,627c6f2a54f1a45c4ae2986b,2022-05-11_22h21.49.864,classification_task,2021.2.3,MacIntel,59.97361161,627c6715c52fd12f31907bd0,,,,,,,,,,,,,,,,,,,,,,,l,0,5.1346,"[""0.631"",""0.524"",""0.936"",""0.970""]","[0,1,1,1]",0,32,32,32,1,0,1,,,0,FALSE,,,,,,,,,,,,,,,,,,,,,,,,,,,,,,,
,5934fb0a67011200014d3a50,627c6f2a54f1a45c4ae2986b,2022-05-11_22h21.49.864,classification_task,2021.2.3,MacIntel,59.97361161,627c6715c52fd12f31907bd0,,,,,,,,,,,,,,,,,,,,,,,a,1,1.713,"[""0.197"",""0.439"",""0.825"",""0.888""]","[0,1,1,1]",0,33,33,33,1,0,0,,,0,FALSE,,,,,,,,,,,,,,,,,,,,,,,,,,,,,,,
,5934fb0a67011200014d3a50,627c6f2a54f1a45c4ae2986b,2022-05-11_22h21.49.864,classification_task,2021.2.3,MacIntel,59.97361161,627c6715c52fd12f31907bd0,,,,,,,,,,,,,,,,,,,,,,,a,1,3.1191,"[""0.234"",""0.524"",""0.038"",""0.970""]","[1,1,0,1]",0,34,34,34,1,0,1,,,0,FALSE,,,,,,,,,,,,,,,,,,,,,,,,,,,,,,,
,5934fb0a67011200014d3a50,627c6f2a54f1a45c4ae2986b,2022-05-11_22h21.49.864,classification_task,2021.2.3,MacIntel,59.97361161,627c6715c52fd12f31907bd0,,,,,,,,,,,,,,,,,,,,,,,a,1,2.887,"[""0.324"",""0.439"",""0.663"",""0.888""]","[1,1,0,1]",0,35,35,35,1,0,0,,,0,FALSE,,,,,,,,,,,,,,,,,,,,,,,,,,,,,,,
,5934fb0a67011200014d3a50,627c6f2a54f1a45c4ae2986b,2022-05-11_22h21.49.864,classification_task,2021.2.3,MacIntel,59.97361161,627c6715c52fd12f31907bd0,,,,,,,,,,,,,,,,,,,,,,,l,1,1.1229,"[""0.140"",""0.038"",""0.474"",""0.777""]","[1,0,1,1]",0,36,36,36,1,1,0,,,0,FALSE,,,,,,,,,,,,,,,,,,,,,,,,,,,,,,,
,5934fb0a67011200014d3a50,627c6f2a54f1a45c4ae2986b,2022-05-11_22h21.49.864,classification_task,2021.2.3,MacIntel,59.97361161,627c6715c52fd12f31907bd0,,,,,,,,,,,,,,,,,,,,,,,l,1,1.2042,"[""0.140"",""0.384"",""0.053"",""0.777""]","[1,1,0,1]",0,37,37,37,1,1,0,,,0,FALSE,,,,,,,,,,,,,,,,,,,,,,,,,,,,,,,
,5934fb0a67011200014d3a50,627c6f2a54f1a45c4ae2986b,2022-05-11_22h21.49.864,classification_task,2021.2.3,MacIntel,59.97361161,627c6715c52fd12f31907bd0,,,,,,,,,,,,,,,,,,,,,,,a,0,1.4122,"[""0.088"",""0.284"",""0.570"",""0.192""]","[1,1,1,0]",0,38,38,38,1,1,1,,,0,FALSE,,,,,,,,,,,,,,,,,,,,,,,,,,,,,,,
,5934fb0a67011200014d3a50,627c6f2a54f1a45c4ae2986b,2022-05-11_22h21.49.864,classification_task,2021.2.3,MacIntel,59.97361161,627c6715c52fd12f31907bd0,,,,,,,,,,,,,,,,,,,,,,,a,0,1.474,"[""0.044"",""0.284"",""0.570"",""0.710""]","[0,1,1,1]",0,39,39,39,1,1,1,,,0,FALSE,,,,,,,,,,,,,,,,,,,,,,,,,,,,,,,
,5934fb0a67011200014d3a50,627c6f2a54f1a45c4ae2986b,2022-05-11_22h21.49.864,classification_task,2021.2.3,MacIntel,59.97361161,627c6715c52fd12f31907bd0,,,,,,,,,,,,,,,,,,,,,,,l,1,1.0276,"[""0.088"",""0.284"",""0.037"",""0.710""]","[1,1,0,1]",0,40,40,40,1,1,1,,,0,FALSE,,,,,,,,,,,,,,,,,,,,,,,,,,,,,,,
,5934fb0a67011200014d3a50,627c6f2a54f1a45c4ae2986b,2022-05-11_22h21.49.864,classification_task,2021.2.3,MacIntel,59.97361161,627c6715c52fd12f31907bd0,,,,,,,,,,,,,,,,,,,,,,,a,1,0.9407,"[""0.324"",""0.197"",""0.825"",""0.888""]","[1,0,1,1]",0,41,41,41,1,0,0,,,0,FALSE,,,,,,,,,,,,,,,,,,,,,,,,,,,,,,,
,5934fb0a67011200014d3a50,627c6f2a54f1a45c4ae2986b,2022-05-11_22h21.49.864,classification_task,2021.2.3,MacIntel,59.97361161,627c6715c52fd12f31907bd0,,,,,,,,,,,,,,,,,,,,,,,l,1,2.4851,"[""0.140"",""0.384"",""0.474"",""0.673""]","[1,1,1,0]",0,42,42,42,1,1,0,,,0,FALSE,,,,,,,,,,,,,,,,,,,,,,,,,,,,,,,
,5934fb0a67011200014d3a50,627c6f2a54f1a45c4ae2986b,2022-05-11_22h21.49.864,classification_task,2021.2.3,MacIntel,59.97361161,627c6715c52fd12f31907bd0,,,,,,,,,,,,,,,,,,,,,,,a,0,1.006,"[""0.663"",""0.384"",""0.474"",""0.777""]","[0,1,1,1]",0,43,43,43,1,1,0,,,0,FALSE,,,,,,,,,,,,,,,,,,,,,,,,,,,,,,,
,5934fb0a67011200014d3a50,627c6f2a54f1a45c4ae2986b,2022-05-11_22h21.49.864,classification_task,2021.2.3,MacIntel,59.97361161,627c6715c52fd12f31907bd0,,,,,,,,,,,,,,,,,,,,,,,a,1,1.3778,"[""0.324"",""0.439"",""0.825"",""0.197""]","[1,1,1,0]",0,44,44,44,1,0,0,,,0,FALSE,,,,,,,,,,,,,,,,,,,,,,,,,,,,,,,
,5934fb0a67011200014d3a50,627c6f2a54f1a45c4ae2986b,2022-05-11_22h21.49.864,classification_task,2021.2.3,MacIntel,59.97361161,627c6715c52fd12f31907bd0,,,,,,,,,,,,,,,,,,,,,,,l,1,1.323,"[""0.088"",""0.039"",""0.570"",""0.710""]","[1,0,1,1]",0,45,45,45,1,1,1,,,0,FALSE,,,,,,,,,,,,,,,,,,,,,,,,,,,,,,,
,5934fb0a67011200014d3a50,627c6f2a54f1a45c4ae2986b,2022-05-11_22h21.49.864,classification_task,2021.2.3,MacIntel,59.97361161,627c6715c52fd12f31907bd0,,,,,,,,,,,,,,,,,,,,,,,a,1,0.7996,"[""0.234"",""0.624"",""0.936"",""0.970""]","[1,0,1,1]",0,46,46,46,1,0,1,,,0,FALSE,,,,,,,,,,,,,,,,,,,,,,,,,,,,,,,
,5934fb0a67011200014d3a50,627c6f2a54f1a45c4ae2986b,2022-05-11_22h21.49.864,classification_task,2021.2.3,MacIntel,59.97361161,627c6715c52fd12f31907bd0,,,,,,,,,,,,,,,,,,,,,,,a,1,0.9399,"[""0.234"",""0.524"",""0.936"",""0.176""]","[1,1,1,0]",0,47,47,47,1,0,1,,,0,FALSE,,,,,,,,,,,,,,,,,,,,,,,,,,,,,,,
,5934fb0a67011200014d3a50,627c6f2a54f1a45c4ae2986b,2022-05-11_22h21.49.864,classification_task,2021.2.3,MacIntel,59.97361161,627c6715c52fd12f31907bd0,,,,,,,,,,,,,,,,,,,,,,,a,1,0.9139,"[""0.234"",""0.192"",""0.936"",""0.970""]","[1,0,1,1]",0,48,48,48,1,0,1,,,0,FALSE,,,,,,,,,,,,,,,,,,,,,,,,,,,,,,,
,5934fb0a67011200014d3a50,627c6f2a54f1a45c4ae2986b,2022-05-11_22h21.49.864,classification_task,2021.2.3,MacIntel,59.97361161,627c6715c52fd12f31907bd0,,,,,,,,,,,,,,,,,,,,,,,a,0,1.6047,"[""0.192"",""0.384"",""0.474"",""0.777""]","[0,1,1,1]",0,49,49,49,1,1,0,,,0,FALSE,,,,,,,,,,,,,,,,,,,,,,,,,,,,,,,
,5934fb0a67011200014d3a50,627c6f2a54f1a45c4ae2986b,2022-05-11_22h21.49.864,classification_task,2021.2.3,MacIntel,59.97361161,627c6715c52fd12f31907bd0,,,,,,,,,,,,,,,,,,,,,,,l,0,1.1028,"[""0.324"",""0.439"",""0.825"",""0.631""]","[1,1,1,0]",0,50,50,50,1,0,0,,,0,FALSE,,,,,,,,,,,,,,,,,,,,,,,,,,,,,,,
,5934fb0a67011200014d3a50,627c6f2a54f1a45c4ae2986b,2022-05-11_22h21.49.864,classification_task,2021.2.3,MacIntel,59.97361161,627c6715c52fd12f31907bd0,,,,,,,,,,,,,,,,,,,,,,,a,0,1.0832,"[""0.176"",""0.284"",""0.570"",""0.710""]","[0,1,1,1]",0,51,51,51,1,1,1,,,0,FALSE,,,,,,,,,,,,,,,,,,,,,,,,,,,,,,,
,5934fb0a67011200014d3a50,627c6f2a54f1a45c4ae2986b,2022-05-11_22h21.49.864,classification_task,2021.2.3,MacIntel,59.97361161,627c6715c52fd12f31907bd0,,,,,,,,,,,,,,,,,,,,,,,a,0,1.1252,"[""0.088"",""0.673"",""0.570"",""0.710""]","[1,0,1,1]",0,52,52,52,1,1,1,,,0,FALSE,,,,,,,,,,,,,,,,,,,,,,,,,,,,,,,
,5934fb0a67011200014d3a50,627c6f2a54f1a45c4ae2986b,2022-05-11_22h21.49.864,classification_task,2021.2.3,MacIntel,59.97361161,627c6715c52fd12f31907bd0,,,,,,,,,,,,,,,,,,,,,,,a,0,1.1447,"[""0.140"",""0.384"",""0.039"",""0.777""]","[1,1,0,1]",0,53,53,53,1,1,0,,,0,FALSE,,,,,,,,,,,,,,,,,,,,,,,,,,,,,,,
,5934fb0a67011200014d3a50,627c6f2a54f1a45c4ae2986b,2022-05-11_22h21.49.864,classification_task,2021.2.3,MacIntel,59.97361161,627c6715c52fd12f31907bd0,,,,,,,,,,,,,,,,,,,,,,,l,0,0.944,"[""0.324"",""0.673"",""0.825"",""0.888""]","[1,0,1,1]",0,54,54,54,1,0,0,,,0,FALSE,,,,,,,,,,,,,,,,,,,,,,,,,,,,,,,
,5934fb0a67011200014d3a50,627c6f2a54f1a45c4ae2986b,2022-05-11_22h21.49.864,classification_task,2021.2.3,MacIntel,59.97361161,627c6715c52fd12f31907bd0,,,,,,,,,,,,,,,,,,,,,,,a,1,0.8446,"[""0.324"",""0.439"",""0.635"",""0.888""]","[1,1,0,1]",0,55,55,55,1,0,0,,,0,FALSE,,,,,,,,,,,,,,,,,,,,,,,,,,,,,,,
,5934fb0a67011200014d3a50,627c6f2a54f1a45c4ae2986b,2022-05-11_22h21.49.864,classification_task,2021.2.3,MacIntel,59.97361161,627c6715c52fd12f31907bd0,,,,,,,,,,,,,,,,,,,,,,,a,0,1.6305,"[""0.088"",""0.284"",""0.037"",""0.710""]","[1,1,0,1]",0,56,56,56,1,1,1,,,0,FALSE,,,,,,,,,,,,,,,,,,,,,,,,,,,,,,,
,5934fb0a67011200014d3a50,627c6f2a54f1a45c4ae2986b,2022-05-11_22h21.49.864,classification_task,2021.2.3,MacIntel,59.97361161,627c6715c52fd12f31907bd0,,,,,,,,,,,,,,,,,,,,,,,l,0,1.1522,"[""0.234"",""0.524"",""0.053"",""0.970""]","[1,1,0,1]",0,57,57,57,1,0,1,,,0,FALSE,,,,,,,,,,,,,,,,,,,,,,,,,,,,,,,
,5934fb0a67011200014d3a50,627c6f2a54f1a45c4ae2986b,2022-05-11_22h21.49.864,classification_task,2021.2.3,MacIntel,59.97361161,627c6715c52fd12f31907bd0,,,,,,,,,,,,,,,,,,,,,,,a,1,1.0927,"[""0.663"",""0.439"",""0.825"",""0.888""]","[0,1,1,1]",0,58,58,58,1,0,0,,,0,FALSE,,,,,,,,,,,,,,,,,,,,,,,,,,,,,,,
,5934fb0a67011200014d3a50,627c6f2a54f1a45c4ae2986b,2022-05-11_22h21.49.864,classification_task,2021.2.3,MacIntel,59.97361161,627c6715c52fd12f31907bd0,,,,,,,,,,,,,,,,,,,,,,,a,0,1.0511,"[""0.088"",""0.284"",""0.570"",""0.631""]","[1,1,1,0]",0,59,59,59,1,1,1,,,0,FALSE,,,,,,,,,,,,,,,,,,,,,,,,,,,,,,,
,5934fb0a67011200014d3a50,627c6f2a54f1a45c4ae2986b,2022-05-11_22h21.49.864,classification_task,2021.2.3,MacIntel,59.97361161,627c6715c52fd12f31907bd0,,,,,,,,,,,,,,,,,,,,,,,l,1,1.4349,"[""0.140"",""0.384"",""0.474"",""0.188""]","[1,1,1,0]",0,60,60,60,1,1,0,,,0,FALSE,,,,,,,,,,,,,,,,,,,,,,,,,,,,,,,
,5934fb0a67011200014d3a50,627c6f2a54f1a45c4ae2986b,2022-05-11_22h21.49.864,classification_task,2021.2.3,MacIntel,59.97361161,627c6715c52fd12f31907bd0,,,,,,,,,,,,,,,,,,,,,,,a,1,1.061,"[""0.659"",""0.524"",""0.936"",""0.970""]","[0,1,1,1]",0,61,61,61,1,0,1,,,0,FALSE,,,,,,,,,,,,,,,,,,,,,,,,,,,,,,,
,5934fb0a67011200014d3a50,627c6f2a54f1a45c4ae2986b,2022-05-11_22h21.49.864,classification_task,2021.2.3,MacIntel,59.97361161,627c6715c52fd12f31907bd0,,,,,,,,,,,,,,,,,,,,,,,a,0,1.515,"[""0.140"",""0.192"",""0.474"",""0.777""]","[1,0,1,1]",0,62,62,62,1,1,0,,,0,FALSE,,,,,,,,,,,,,,,,,,,,,,,,,,,,,,,
,5934fb0a67011200014d3a50,627c6f2a54f1a45c4ae2986b,2022-05-11_22h21.49.864,classification_task,2021.2.3,MacIntel,59.97361161,627c6715c52fd12f31907bd0,,,,,,,,,,,,,,,,,,,,,,,a,1,2.0895,"[""0.234"",""0.524"",""0.936"",""0.197""]","[1,1,1,0]",0,63,63,63,1,0,1,,,0,FALSE,,,,,,,,,,,,,,,,,,,,,,,,,,,,,,,
,5934fb0a67011200014d3a50,627c6f2a54f1a45c4ae2986b,2022-05-11_22h21.49.864,classification_task,2021.2.3,MacIntel,59.97361161,627c6715c52fd12f31907bd0,,,,,,,,,,,,,,,,,,,,,,,,,,,,,,,,,,,,,,,0, ,,0,9.915106233,384.4758,0,0,0,0,1,2,1,,,,,,,,,,,,,,,,,,
,5934fb0a67011200014d3a50,627c6f2a54f1a45c4ae2986b,2022-05-11_22h21.49.864,classification_task,2021.2.3,MacIntel,59.97361161,627c6715c52fd12f31907bd0,,,,,,,,,,,,,,,,,,,,,,,,,,,,,,,,,,,,,,,1,  ,,0,9.752345817,382.2188,0,0,0,0,1,2,1,,,,,,,,,,,,,,,,,,
,5934fb0a67011200014d3a50,627c6f2a54f1a45c4ae2986b,2022-05-11_22h21.49.864,classification_task,2021.2.3,MacIntel,59.97361161,627c6715c52fd12f31907bd0,,,,,,,,,,,,,,,,,,,,,,,,,,,,,,,,,,,,,,,2,  ,,0,5.558552414,390.9923,0,0,0,0,1,2,1,,,,,,,,,,,,,,,,,,
,5934fb0a67011200014d3a50,627c6f2a54f1a45c4ae2986b,2022-05-11_22h21.49.864,classification_task,2021.2.3,MacIntel,59.97361161,627c6715c52fd12f31907bd0,,,,,,,,,,,,,,,,,,,,,,,,,,,,,,,,,,,,,,,,,,,,,0,0,0,0,1,,1,,,,,,,,,,,,,,,,,,
,5934fb0a67011200014d3a50,627c6f2a54f1a45c4ae2986b,2022-05-11_22h21.49.864,classification_task,2021.2.3,MacIntel,59.97361161,627c6715c52fd12f31907bd0,,,,,,,,,,,,,,,,,,,,,space,10.67,a,0,1.5816,"[""0.088"",""0.284"",""0.624"",""0.710""]","[1,1,0,1]",0,0,0,0,1,1,1,,,0,FALSE,,,,,,,,,,,,,,,,,,,,,,,,,,,,,,,
,5934fb0a67011200014d3a50,627c6f2a54f1a45c4ae2986b,2022-05-11_22h21.49.864,classification_task,2021.2.3,MacIntel,59.97361161,627c6715c52fd12f31907bd0,,,,,,,,,,,,,,,,,,,,,,,l,0,2.8718,"[""0.324"",""0.439"",""0.825"",""0.631""]","[1,1,1,0]",0,1,1,1,1,0,0,,,0,FALSE,,,,,,,,,,,,,,,,,,,,,,,,,,,,,,,
,5934fb0a67011200014d3a50,627c6f2a54f1a45c4ae2986b,2022-05-11_22h21.49.864,classification_task,2021.2.3,MacIntel,59.97361161,627c6715c52fd12f31907bd0,,,,,,,,,,,,,,,,,,,,,,,l,1,2.7021,"[""0.038"",""0.384"",""0.474"",""0.777""]","[0,1,1,1]",0,2,2,2,1,1,0,,,0,FALSE,,,,,,,,,,,,,,,,,,,,,,,,,,,,,,,
,5934fb0a67011200014d3a50,627c6f2a54f1a45c4ae2986b,2022-05-11_22h21.49.864,classification_task,2021.2.3,MacIntel,59.97361161,627c6715c52fd12f31907bd0,,,,,,,,,,,,,,,,,,,,,,,a,1,3.2448,"[""0.234"",""0.524"",""0.936"",""0.176""]","[1,1,1,0]",0,3,3,3,1,0,1,,,0,FALSE,,,,,,,,,,,,,,,,,,,,,,,,,,,,,,,
,5934fb0a67011200014d3a50,627c6f2a54f1a45c4ae2986b,2022-05-11_22h21.49.864,classification_task,2021.2.3,MacIntel,59.97361161,627c6715c52fd12f31907bd0,,,,,,,,,,,,,,,,,,,,,,,l,0,1.0786,"[""0.176"",""0.439"",""0.825"",""0.888""]","[0,1,1,1]",0,4,4,4,1,0,0,,,0,FALSE,,,,,,,,,,,,,,,,,,,,,,,,,,,,,,,
,5934fb0a67011200014d3a50,627c6f2a54f1a45c4ae2986b,2022-05-11_22h21.49.864,classification_task,2021.2.3,MacIntel,59.97361161,627c6715c52fd12f31907bd0,,,,,,,,,,,,,,,,,,,,,,,a,0,1.966,"[""0.188"",""0.284"",""0.570"",""0.710""]","[0,1,1,1]",0,5,5,5,1,1,1,,,0,FALSE,,,,,,,,,,,,,,,,,,,,,,,,,,,,,,,
,5934fb0a67011200014d3a50,627c6f2a54f1a45c4ae2986b,2022-05-11_22h21.49.864,classification_task,2021.2.3,MacIntel,59.97361161,627c6715c52fd12f31907bd0,,,,,,,,,,,,,,,,,,,,,,,a,1,0.979,"[""0.234"",""0.663"",""0.936"",""0.970""]","[1,0,1,1]",0,6,6,6,1,0,1,,,0,FALSE,,,,,,,,,,,,,,,,,,,,,,,,,,,,,,,
,5934fb0a67011200014d3a50,627c6f2a54f1a45c4ae2986b,2022-05-11_22h21.49.864,classification_task,2021.2.3,MacIntel,59.97361161,627c6715c52fd12f31907bd0,,,,,,,,,,,,,,,,,,,,,,,a,0,2.8996,"[""0.140"",""0.624"",""0.474"",""0.777""]","[1,0,1,1]",0,7,7,7,1,1,0,,,0,FALSE,,,,,,,,,,,,,,,,,,,,,,,,,,,,,,,
,5934fb0a67011200014d3a50,627c6f2a54f1a45c4ae2986b,2022-05-11_22h21.49.864,classification_task,2021.2.3,MacIntel,59.97361161,627c6715c52fd12f31907bd0,,,,,,,,,,,,,,,,,,,,,,,a,1,1.0286,"[""0.234"",""0.524"",""0.631"",""0.970""]","[1,1,0,1]",0,8,8,8,1,0,1,,,0,FALSE,,,,,,,,,,,,,,,,,,,,,,,,,,,,,,,
,5934fb0a67011200014d3a50,627c6f2a54f1a45c4ae2986b,2022-05-11_22h21.49.864,classification_task,2021.2.3,MacIntel,59.97361161,627c6715c52fd12f31907bd0,,,,,,,,,,,,,,,,,,,,,,,a,1,1.3887,"[""0.188"",""0.524"",""0.936"",""0.970""]","[0,1,1,1]",0,9,9,9,1,0,1,,,0,FALSE,,,,,,,,,,,,,,,,,,,,,,,,,,,,,,,
,5934fb0a67011200014d3a50,627c6f2a54f1a45c4ae2986b,2022-05-11_22h21.49.864,classification_task,2021.2.3,MacIntel,59.97361161,627c6715c52fd12f31907bd0,,,,,,,,,,,,,,,,,,,,,,,l,1,1.4681,"[""0.140"",""0.384"",""0.039"",""0.777""]","[1,1,0,1]",0,10,10,10,1,1,0,,,0,FALSE,,,,,,,,,,,,,,,,,,,,,,,,,,,,,,,
,5934fb0a67011200014d3a50,627c6f2a54f1a45c4ae2986b,2022-05-11_22h21.49.864,classification_task,2021.2.3,MacIntel,59.97361161,627c6715c52fd12f31907bd0,,,,,,,,,,,,,,,,,,,,,,,a,0,1.2977,"[""0.088"",""0.192"",""0.570"",""0.710""]","[1,0,1,1]",0,11,11,11,1,1,1,,,0,FALSE,,,,,,,,,,,,,,,,,,,,,,,,,,,,,,,
,5934fb0a67011200014d3a50,627c6f2a54f1a45c4ae2986b,2022-05-11_22h21.49.864,classification_task,2021.2.3,MacIntel,59.97361161,627c6715c52fd12f31907bd0,,,,,,,,,,,,,,,,,,,,,,,l,1,1.3543,"[""0.140"",""0.384"",""0.474"",""0.192""]","[1,1,1,0]",0,12,12,12,1,1,0,,,0,FALSE,,,,,,,,,,,,,,,,,,,,,,,,,,,,,,,
,5934fb0a67011200014d3a50,627c6f2a54f1a45c4ae2986b,2022-05-11_22h21.49.864,classification_task,2021.2.3,MacIntel,59.97361161,627c6715c52fd12f31907bd0,,,,,,,,,,,,,,,,,,,,,,,a,1,1.8709,"[""0.324"",""0.439"",""0.659"",""0.888""]","[1,1,0,1]",0,13,13,13,1,0,0,,,0,FALSE,,,,,,,,,,,,,,,,,,,,,,,,,,,,,,,
,5934fb0a67011200014d3a50,627c6f2a54f1a45c4ae2986b,2022-05-11_22h21.49.864,classification_task,2021.2.3,MacIntel,59.97361161,627c6715c52fd12f31907bd0,,,,,,,,,,,,,,,,,,,,,,,l,1,1.9503,"[""0.088"",""0.284"",""0.570"",""0.635""]","[1,1,1,0]",0,14,14,14,1,1,1,,,0,FALSE,,,,,,,,,,,,,,,,,,,,,,,,,,,,,,,
,5934fb0a67011200014d3a50,627c6f2a54f1a45c4ae2986b,2022-05-11_22h21.49.864,classification_task,2021.2.3,MacIntel,59.97361161,627c6715c52fd12f31907bd0,,,,,,,,,,,,,,,,,,,,,,,a,1,2.8621,"[""0.324"",""0.197"",""0.825"",""0.888""]","[1,0,1,1]",0,15,15,15,1,0,0,,,0,FALSE,,,,,,,,,,,,,,,,,,,,,,,,,,,,,,,
,5934fb0a67011200014d3a50,627c6f2a54f1a45c4ae2986b,2022-05-11_22h21.49.864,classification_task,2021.2.3,MacIntel,59.97361161,627c6715c52fd12f31907bd0,,,,,,,,,,,,,,,,,,,,,,,l,1,1.2538,"[""0.192"",""0.284"",""0.570"",""0.710""]","[0,1,1,1]",0,16,16,16,1,1,1,,,0,FALSE,,,,,,,,,,,,,,,,,,,,,,,,,,,,,,,
,5934fb0a67011200014d3a50,627c6f2a54f1a45c4ae2986b,2022-05-11_22h21.49.864,classification_task,2021.2.3,MacIntel,59.97361161,627c6715c52fd12f31907bd0,,,,,,,,,,,,,,,,,,,,,,,a,1,2.0697,"[""0.324"",""0.439"",""0.825"",""0.673""]","[1,1,1,0]",0,17,17,17,1,0,0,,,0,FALSE,,,,,,,,,,,,,,,,,,,,,,,,,,,,,,,
,5934fb0a67011200014d3a50,627c6f2a54f1a45c4ae2986b,2022-05-11_22h21.49.864,classification_task,2021.2.3,MacIntel,59.97361161,627c6715c52fd12f31907bd0,,,,,,,,,,,,,,,,,,,,,,,a,1,0.8251,"[""0.324"",""0.197"",""0.825"",""0.888""]","[1,0,1,1]",0,18,18,18,1,0,0,,,0,FALSE,,,,,,,,,,,,,,,,,,,,,,,,,,,,,,,
,5934fb0a67011200014d3a50,627c6f2a54f1a45c4ae2986b,2022-05-11_22h21.49.864,classification_task,2021.2.3,MacIntel,59.97361161,627c6715c52fd12f31907bd0,,,,,,,,,,,,,,,,,,,,,,,a,1,0.8248,"[""0.039"",""0.524"",""0.936"",""0.970""]","[0,1,1,1]",0,19,19,19,1,0,1,,,0,FALSE,,,,,,,,,,,,,,,,,,,,,,,,,,,,,,,
,5934fb0a67011200014d3a50,627c6f2a54f1a45c4ae2986b,2022-05-11_22h21.49.864,classification_task,2021.2.3,MacIntel,59.97361161,627c6715c52fd12f31907bd0,,,,,,,,,,,,,,,,,,,,,,,l,1,1.1216,"[""0.663"",""0.384"",""0.474"",""0.777""]","[0,1,1,1]",0,20,20,20,1,1,0,,,0,FALSE,,,,,,,,,,,,,,,,,,,,,,,,,,,,,,,
,5934fb0a67011200014d3a50,627c6f2a54f1a45c4ae2986b,2022-05-11_22h21.49.864,classification_task,2021.2.3,MacIntel,59.97361161,627c6715c52fd12f31907bd0,,,,,,,,,,,,,,,,,,,,,,,l,1,0.9622,"[""0.140"",""0.188"",""0.474"",""0.777""]","[1,0,1,1]",0,21,21,21,1,1,0,,,0,FALSE,,,,,,,,,,,,,,,,,,,,,,,,,,,,,,,
,5934fb0a67011200014d3a50,627c6f2a54f1a45c4ae2986b,2022-05-11_22h21.49.864,classification_task,2021.2.3,MacIntel,59.97361161,627c6715c52fd12f31907bd0,,,,,,,,,,,,,,,,,,,,,,,l,1,1.1463,"[""0.140"",""0.384"",""0.474"",""0.624""]","[1,1,1,0]",0,22,22,22,1,1,0,,,0,FALSE,,,,,,,,,,,,,,,,,,,,,,,,,,,,,,,
,5934fb0a67011200014d3a50,627c6f2a54f1a45c4ae2986b,2022-05-11_22h21.49.864,classification_task,2021.2.3,MacIntel,59.97361161,627c6715c52fd12f31907bd0,,,,,,,,,,,,,,,,,,,,,,,l,1,1.2226,"[""0.088"",""0.284"",""0.624"",""0.710""]","[1,1,0,1]",0,23,23,23,1,1,1,,,0,FALSE,,,,,,,,,,,,,,,,,,,,,,,,,,,,,,,
,5934fb0a67011200014d3a50,627c6f2a54f1a45c4ae2986b,2022-05-11_22h21.49.864,classification_task,2021.2.3,MacIntel,59.97361161,627c6715c52fd12f31907bd0,,,,,,,,,,,,,,,,,,,,,,,a,1,0.7988,"[""0.234"",""0.524"",""0.936"",""0.053""]","[1,1,1,0]",0,24,24,24,1,0,1,,,0,FALSE,,,,,,,,,,,,,,,,,,,,,,,,,,,,,,,
,5934fb0a67011200014d3a50,627c6f2a54f1a45c4ae2986b,2022-05-11_22h21.49.864,classification_task,2021.2.3,MacIntel,59.97361161,627c6715c52fd12f31907bd0,,,,,,,,,,,,,,,,,,,,,,,a,1,0.6887,"[""0.324"",""0.439"",""0.037"",""0.888""]","[1,1,0,1]",0,25,25,25,1,0,0,,,0,FALSE,,,,,,,,,,,,,,,,,,,,,,,,,,,,,,,
,5934fb0a67011200014d3a50,627c6f2a54f1a45c4ae2986b,2022-05-11_22h21.49.864,classification_task,2021.2.3,MacIntel,59.97361161,627c6715c52fd12f31907bd0,,,,,,,,,,,,,,,,,,,,,,,a,1,0.8174,"[""0.234"",""0.673"",""0.936"",""0.970""]","[1,0,1,1]",0,26,26,26,1,0,1,,,0,FALSE,,,,,,,,,,,,,,,,,,,,,,,,,,,,,,,
,5934fb0a67011200014d3a50,627c6f2a54f1a45c4ae2986b,2022-05-11_22h21.49.864,classification_task,2021.2.3,MacIntel,59.97361161,627c6715c52fd12f31907bd0,,,,,,,,,,,,,,,,,,,,,,,l,1,0.8099,"[""0.140"",""0.384"",""0.053"",""0.777""]","[1,1,0,1]",0,27,27,27,1,1,0,,,0,FALSE,,,,,,,,,,,,,,,,,,,,,,,,,,,,,,,
,5934fb0a67011200014d3a50,627c6f2a54f1a45c4ae2986b,2022-05-11_22h21.49.864,classification_task,2021.2.3,MacIntel,59.97361161,627c6715c52fd12f31907bd0,,,,,,,,,,,,,,,,,,,,,,,a,1,0.984,"[""0.044"",""0.439"",""0.825"",""0.888""]","[0,1,1,1]",0,28,28,28,1,0,0,,,0,FALSE,,,,,,,,,,,,,,,,,,,,,,,,,,,,,,,
,5934fb0a67011200014d3a50,627c6f2a54f1a45c4ae2986b,2022-05-11_22h21.49.864,classification_task,2021.2.3,MacIntel,59.97361161,627c6715c52fd12f31907bd0,,,,,,,,,,,,,,,,,,,,,,,l,1,1.155,"[""0.088"",""0.197"",""0.570"",""0.710""]","[1,0,1,1]",0,29,29,29,1,1,1,,,0,FALSE,,,,,,,,,,,,,,,,,,,,,,,,,,,,,,,
,5934fb0a67011200014d3a50,627c6f2a54f1a45c4ae2986b,2022-05-11_22h21.49.864,classification_task,2021.2.3,MacIntel,59.97361161,627c6715c52fd12f31907bd0,,,,,,,,,,,,,,,,,,,,,,,l,1,1.0206,"[""0.088"",""0.284"",""0.570"",""0.039""]","[1,1,1,0]",0,30,30,30,1,1,1,,,0,FALSE,,,,,,,,,,,,,,,,,,,,,,,,,,,,,,,
,5934fb0a67011200014d3a50,627c6f2a54f1a45c4ae2986b,2022-05-11_22h21.49.864,classification_task,2021.2.3,MacIntel,59.97361161,627c6715c52fd12f31907bd0,,,,,,,,,,,,,,,,,,,,,,,a,1,1.0002,"[""0.234"",""0.524"",""0.663"",""0.970""]","[1,1,0,1]",0,31,31,31,1,0,1,,,0,FALSE,,,,,,,,,,,,,,,,,,,,,,,,,,,,,,,
,5934fb0a67011200014d3a50,627c6f2a54f1a45c4ae2986b,2022-05-11_22h21.49.864,classification_task,2021.2.3,MacIntel,59.97361161,627c6715c52fd12f31907bd0,,,,,,,,,,,,,,,,,,,,,,,a,1,0.7061,"[""0.197"",""0.439"",""0.825"",""0.888""]","[0,1,1,1]",0,32,32,32,1,0,0,,,0,FALSE,,,,,,,,,,,,,,,,,,,,,,,,,,,,,,,
,5934fb0a67011200014d3a50,627c6f2a54f1a45c4ae2986b,2022-05-11_22h21.49.864,classification_task,2021.2.3,MacIntel,59.97361161,627c6715c52fd12f31907bd0,,,,,,,,,,,,,,,,,,,,,,,a,1,2.526,"[""0.234"",""0.524"",""0.635"",""0.970""]","[1,1,0,1]",0,33,33,33,1,0,1,,,0,FALSE,,,,,,,,,,,,,,,,,,,,,,,,,,,,,,,
,5934fb0a67011200014d3a50,627c6f2a54f1a45c4ae2986b,2022-05-11_22h21.49.864,classification_task,2021.2.3,MacIntel,59.97361161,627c6715c52fd12f31907bd0,,,,,,,,,,,,,,,,,,,,,,,l,1,0.9208,"[""0.088"",""0.284"",""0.570"",""0.659""]","[1,1,1,0]",0,34,34,34,1,1,1,,,0,FALSE,,,,,,,,,,,,,,,,,,,,,,,,,,,,,,,
,5934fb0a67011200014d3a50,627c6f2a54f1a45c4ae2986b,2022-05-11_22h21.49.864,classification_task,2021.2.3,MacIntel,59.97361161,627c6715c52fd12f31907bd0,,,,,,,,,,,,,,,,,,,,,,,a,1,0.7805,"[""0.324"",""0.439"",""0.673"",""0.888""]","[1,1,0,1]",0,35,35,35,1,0,0,,,0,FALSE,,,,,,,,,,,,,,,,,,,,,,,,,,,,,,,
,5934fb0a67011200014d3a50,627c6f2a54f1a45c4ae2986b,2022-05-11_22h21.49.864,classification_task,2021.2.3,MacIntel,59.97361161,627c6715c52fd12f31907bd0,,,,,,,,,,,,,,,,,,,,,,,l,1,0.9655,"[""0.140"",""0.384"",""0.631"",""0.777""]","[1,1,0,1]",0,36,36,36,1,1,0,,,0,FALSE,,,,,,,,,,,,,,,,,,,,,,,,,,,,,,,
,5934fb0a67011200014d3a50,627c6f2a54f1a45c4ae2986b,2022-05-11_22h21.49.864,classification_task,2021.2.3,MacIntel,59.97361161,627c6715c52fd12f31907bd0,,,,,,,,,,,,,,,,,,,,,,,a,0,3.3367,"[""0.624"",""0.284"",""0.570"",""0.710""]","[0,1,1,1]",0,37,37,37,1,1,1,,,0,FALSE,,,,,,,,,,,,,,,,,,,,,,,,,,,,,,,
,5934fb0a67011200014d3a50,627c6f2a54f1a45c4ae2986b,2022-05-11_22h21.49.864,classification_task,2021.2.3,MacIntel,59.97361161,627c6715c52fd12f31907bd0,,,,,,,,,,,,,,,,,,,,,,,l,1,2.4656,"[""0.088"",""0.284"",""0.635"",""0.710""]","[1,1,0,1]",0,38,38,38,1,1,1,,,0,FALSE,,,,,,,,,,,,,,,,,,,,,,,,,,,,,,,
,5934fb0a67011200014d3a50,627c6f2a54f1a45c4ae2986b,2022-05-11_22h21.49.864,classification_task,2021.2.3,MacIntel,59.97361161,627c6715c52fd12f31907bd0,,,,,,,,,,,,,,,,,,,,,,,a,1,0.9464,"[""0.234"",""0.524"",""0.936"",""0.673""]","[1,1,1,0]",0,39,39,39,1,0,1,,,0,FALSE,,,,,,,,,,,,,,,,,,,,,,,,,,,,,,,
,5934fb0a67011200014d3a50,627c6f2a54f1a45c4ae2986b,2022-05-11_22h21.49.864,classification_task,2021.2.3,MacIntel,59.97361161,627c6715c52fd12f31907bd0,,,,,,,,,,,,,,,,,,,,,,,l,1,1.1132,"[""0.140"",""0.663"",""0.474"",""0.777""]","[1,0,1,1]",0,40,40,40,1,1,0,,,0,FALSE,,,,,,,,,,,,,,,,,,,,,,,,,,,,,,,
,5934fb0a67011200014d3a50,627c6f2a54f1a45c4ae2986b,2022-05-11_22h21.49.864,classification_task,2021.2.3,MacIntel,59.97361161,627c6715c52fd12f31907bd0,,,,,,,,,,,,,,,,,,,,,,,a,1,0.7405,"[""0.188"",""0.524"",""0.936"",""0.970""]","[0,1,1,1]",0,41,41,41,1,0,1,,,0,FALSE,,,,,,,,,,,,,,,,,,,,,,,,,,,,,,,
,5934fb0a67011200014d3a50,627c6f2a54f1a45c4ae2986b,2022-05-11_22h21.49.864,classification_task,2021.2.3,MacIntel,59.97361161,627c6715c52fd12f31907bd0,,,,,,,,,,,,,,,,,,,,,,,a,1,1.2747,"[""0.324"",""0.439"",""0.825"",""0.038""]","[1,1,1,0]",0,42,42,42,1,0,0,,,0,FALSE,,,,,,,,,,,,,,,,,,,,,,,,,,,,,,,
,5934fb0a67011200014d3a50,627c6f2a54f1a45c4ae2986b,2022-05-11_22h21.49.864,classification_task,2021.2.3,MacIntel,59.97361161,627c6715c52fd12f31907bd0,,,,,,,,,,,,,,,,,,,,,,,a,1,2.0518,"[""0.234"",""0.663"",""0.936"",""0.970""]","[1,0,1,1]",0,43,43,43,1,0,1,,,0,FALSE,,,,,,,,,,,,,,,,,,,,,,,,,,,,,,,
,5934fb0a67011200014d3a50,627c6f2a54f1a45c4ae2986b,2022-05-11_22h21.49.864,classification_task,2021.2.3,MacIntel,59.97361161,627c6715c52fd12f31907bd0,,,,,,,,,,,,,,,,,,,,,,,l,1,0.7498,"[""0.140"",""0.384"",""0.474"",""0.176""]","[1,1,1,0]",0,44,44,44,1,1,0,,,0,FALSE,,,,,,,,,,,,,,,,,,,,,,,,,,,,,,,
,5934fb0a67011200014d3a50,627c6f2a54f1a45c4ae2986b,2022-05-11_22h21.49.864,classification_task,2021.2.3,MacIntel,59.97361161,627c6715c52fd12f31907bd0,,,,,,,,,,,,,,,,,,,,,,,l,1,0.8856,"[""0.624"",""0.384"",""0.474"",""0.777""]","[0,1,1,1]",0,45,45,45,1,1,0,,,0,FALSE,,,,,,,,,,,,,,,,,,,,,,,,,,,,,,,
,5934fb0a67011200014d3a50,627c6f2a54f1a45c4ae2986b,2022-05-11_22h21.49.864,classification_task,2021.2.3,MacIntel,59.97361161,627c6715c52fd12f31907bd0,,,,,,,,,,,,,,,,,,,,,,,a,0,1.3488,"[""0.088"",""0.663"",""0.570"",""0.710""]","[1,0,1,1]",0,46,46,46,1,1,1,,,0,FALSE,,,,,,,,,,,,,,,,,,,,,,,,,,,,,,,
,5934fb0a67011200014d3a50,627c6f2a54f1a45c4ae2986b,2022-05-11_22h21.49.864,classification_task,2021.2.3,MacIntel,59.97361161,627c6715c52fd12f31907bd0,,,,,,,,,,,,,,,,,,,,,,,a,1,1.1391,"[""0.324"",""0.635"",""0.825"",""0.888""]","[1,0,1,1]",0,47,47,47,1,0,0,,,0,FALSE,,,,,,,,,,,,,,,,,,,,,,,,,,,,,,,
,5934fb0a67011200014d3a50,627c6f2a54f1a45c4ae2986b,2022-05-11_22h21.49.864,classification_task,2021.2.3,MacIntel,59.97361161,627c6715c52fd12f31907bd0,,,,,,,,,,,,,,,,,,,,,,,l,1,1.5979,"[""0.088"",""0.284"",""0.570"",""0.037""]","[1,1,1,0]",0,48,48,48,1,1,1,,,0,FALSE,,,,,,,,,,,,,,,,,,,,,,,,,,,,,,,
,5934fb0a67011200014d3a50,627c6f2a54f1a45c4ae2986b,2022-05-11_22h21.49.864,classification_task,2021.2.3,MacIntel,59.97361161,627c6715c52fd12f31907bd0,,,,,,,,,,,,,,,,,,,,,,,l,1,3.1187,"[""0.140"",""0.635"",""0.474"",""0.777""]","[1,0,1,1]",0,49,49,49,1,1,0,,,0,FALSE,,,,,,,,,,,,,,,,,,,,,,,,,,,,,,,
,5934fb0a67011200014d3a50,627c6f2a54f1a45c4ae2986b,2022-05-11_22h21.49.864,classification_task,2021.2.3,MacIntel,59.97361161,627c6715c52fd12f31907bd0,,,,,,,,,,,,,,,,,,,,,,,a,1,0.9086,"[""0.234"",""0.524"",""0.659"",""0.970""]","[1,1,0,1]",0,50,50,50,1,0,1,,,0,FALSE,,,,,,,,,,,,,,,,,,,,,,,,,,,,,,,
,5934fb0a67011200014d3a50,627c6f2a54f1a45c4ae2986b,2022-05-11_22h21.49.864,classification_task,2021.2.3,MacIntel,59.97361161,627c6715c52fd12f31907bd0,,,,,,,,,,,,,,,,,,,,,,,a,1,0.7861,"[""0.324"",""0.439"",""0.176"",""0.888""]","[1,1,0,1]",0,51,51,51,1,0,0,,,0,FALSE,,,,,,,,,,,,,,,,,,,,,,,,,,,,,,,
,5934fb0a67011200014d3a50,627c6f2a54f1a45c4ae2986b,2022-05-11_22h21.49.864,classification_task,2021.2.3,MacIntel,59.97361161,627c6715c52fd12f31907bd0,,,,,,,,,,,,,,,,,,,,,,,l,1,1.1475,"[""0.088"",""0.188"",""0.570"",""0.710""]","[1,0,1,1]",0,52,52,52,1,1,1,,,0,FALSE,,,,,,,,,,,,,,,,,,,,,,,,,,,,,,,
,5934fb0a67011200014d3a50,627c6f2a54f1a45c4ae2986b,2022-05-11_22h21.49.864,classification_task,2021.2.3,MacIntel,59.97361161,627c6715c52fd12f31907bd0,,,,,,,,,,,,,,,,,,,,,,,a,1,2.5063,"[""0.188"",""0.439"",""0.825"",""0.888""]","[0,1,1,1]",0,53,53,53,1,0,0,,,0,FALSE,,,,,,,,,,,,,,,,,,,,,,,,,,,,,,,
,5934fb0a67011200014d3a50,627c6f2a54f1a45c4ae2986b,2022-05-11_22h21.49.864,classification_task,2021.2.3,MacIntel,59.97361161,627c6715c52fd12f31907bd0,,,,,,,,,,,,,,,,,,,,,,,l,1,1.3092,"[""0.088"",""0.284"",""0.659"",""0.710""]","[1,1,0,1]",0,54,54,54,1,1,1,,,0,FALSE,,,,,,,,,,,,,,,,,,,,,,,,,,,,,,,
,5934fb0a67011200014d3a50,627c6f2a54f1a45c4ae2986b,2022-05-11_22h21.49.864,classification_task,2021.2.3,MacIntel,59.97361161,627c6715c52fd12f31907bd0,,,,,,,,,,,,,,,,,,,,,,,l,1,1.0224,"[""0.037"",""0.384"",""0.474"",""0.777""]","[0,1,1,1]",0,55,55,55,1,1,0,,,0,FALSE,,,,,,,,,,,,,,,,,,,,,,,,,,,,,,,
,5934fb0a67011200014d3a50,627c6f2a54f1a45c4ae2986b,2022-05-11_22h21.49.864,classification_task,2021.2.3,MacIntel,59.97361161,627c6715c52fd12f31907bd0,,,,,,,,,,,,,,,,,,,,,,,l,1,0.8307,"[""0.140"",""0.384"",""0.631"",""0.777""]","[1,1,0,1]",0,56,56,56,1,1,0,,,0,FALSE,,,,,,,,,,,,,,,,,,,,,,,,,,,,,,,
,5934fb0a67011200014d3a50,627c6f2a54f1a45c4ae2986b,2022-05-11_22h21.49.864,classification_task,2021.2.3,MacIntel,59.97361161,627c6715c52fd12f31907bd0,,,,,,,,,,,,,,,,,,,,,,,a,1,1.5887,"[""0.234"",""0.044"",""0.936"",""0.970""]","[1,0,1,1]",0,57,57,57,1,0,1,,,0,FALSE,,,,,,,,,,,,,,,,,,,,,,,,,,,,,,,
,5934fb0a67011200014d3a50,627c6f2a54f1a45c4ae2986b,2022-05-11_22h21.49.864,classification_task,2021.2.3,MacIntel,59.97361161,627c6715c52fd12f31907bd0,,,,,,,,,,,,,,,,,,,,,,,a,1,0.8876,"[""0.234"",""0.524"",""0.936"",""0.192""]","[1,1,1,0]",0,58,58,58,1,0,1,,,0,FALSE,,,,,,,,,,,,,,,,,,,,,,,,,,,,,,,
,5934fb0a67011200014d3a50,627c6f2a54f1a45c4ae2986b,2022-05-11_22h21.49.864,classification_task,2021.2.3,MacIntel,59.97361161,627c6715c52fd12f31907bd0,,,,,,,,,,,,,,,,,,,,,,,a,1,1.1247,"[""0.324"",""0.439"",""0.825"",""0.192""]","[1,1,1,0]",0,59,59,59,1,0,0,,,0,FALSE,,,,,,,,,,,,,,,,,,,,,,,,,,,,,,,
,5934fb0a67011200014d3a50,627c6f2a54f1a45c4ae2986b,2022-05-11_22h21.49.864,classification_task,2021.2.3,MacIntel,59.97361161,627c6715c52fd12f31907bd0,,,,,,,,,,,,,,,,,,,,,,,l,1,1.5146,"[""0.140"",""0.384"",""0.474"",""0.053""]","[1,1,1,0]",0,60,60,60,1,1,0,,,0,FALSE,,,,,,,,,,,,,,,,,,,,,,,,,,,,,,,
,5934fb0a67011200014d3a50,627c6f2a54f1a45c4ae2986b,2022-05-11_22h21.49.864,classification_task,2021.2.3,MacIntel,59.97361161,627c6715c52fd12f31907bd0,,,,,,,,,,,,,,,,,,,,,,,a,1,1.8489,"[""0.053"",""0.524"",""0.936"",""0.970""]","[0,1,1,1]",0,61,61,61,1,0,1,,,0,FALSE,,,,,,,,,,,,,,,,,,,,,,,,,,,,,,,
,5934fb0a67011200014d3a50,627c6f2a54f1a45c4ae2986b,2022-05-11_22h21.49.864,classification_task,2021.2.3,MacIntel,59.97361161,627c6715c52fd12f31907bd0,,,,,,,,,,,,,,,,,,,,,,,a,1,1.6534,"[""0.324"",""0.197"",""0.825"",""0.888""]","[1,0,1,1]",0,62,62,62,1,0,0,,,0,FALSE,,,,,,,,,,,,,,,,,,,,,,,,,,,,,,,
,5934fb0a67011200014d3a50,627c6f2a54f1a45c4ae2986b,2022-05-11_22h21.49.864,classification_task,2021.2.3,MacIntel,59.97361161,627c6715c52fd12f31907bd0,,,,,,,,,,,,,,,,,,,,,,,l,1,0.8099,"[""0.631"",""0.284"",""0.570"",""0.710""]","[0,1,1,1]",0,63,63,63,1,1,1,,,0,FALSE,,,,,,,,,,,,,,,,,,,,,,,,,,,,,,,
,5934fb0a67011200014d3a50,627c6f2a54f1a45c4ae2986b,2022-05-11_22h21.49.864,classification_task,2021.2.3,MacIntel,59.97361161,627c6715c52fd12f31907bd0,,,,,,,,,,,,,,,,,,,,,,,,,,,,,,,,,,,,,,,0, ,,0,10,177.4914,0,1,1,1,1,2,2,,,,,,,,,,,,,,,,,,
,5934fb0a67011200014d3a50,627c6f2a54f1a45c4ae2986b,2022-05-11_22h21.49.864,classification_task,2021.2.3,MacIntel,59.97361161,627c6715c52fd12f31907bd0,,,,,,,,,,,,,,,,,,,,,,,,,,,,,,,,,,,,,,,1,  ,,0,4.115539228,182.9693,0,1,1,1,1,2,2,,,,,,,,,,,,,,,,,,
,5934fb0a67011200014d3a50,627c6f2a54f1a45c4ae2986b,2022-05-11_22h21.49.864,classification_task,2021.2.3,MacIntel,59.97361161,627c6715c52fd12f31907bd0,,,,,,,,,,,,,,,,,,,,,,,,,,,,,,,,,,,,,,,2,  ,,0,3.989206143,184.0521,0,1,1,1,1,2,2,,,,,,,,,,,,,,,,,,
,5934fb0a67011200014d3a50,627c6f2a54f1a45c4ae2986b,2022-05-11_22h21.49.864,classification_task,2021.2.3,MacIntel,59.97361161,627c6715c52fd12f31907bd0,,,,,,,,,,,,,,,,,,,,,,,,,,,,,,,,,,,,,,,,,,,,,0,1,1,1,1,,2,,,,,,,,,,,,,,,,,,
,5934fb0a67011200014d3a50,627c6f2a54f1a45c4ae2986b,2022-05-11_22h21.49.864,classification_task,2021.2.3,MacIntel,59.97361161,627c6715c52fd12f31907bd0,,,,,,,,,,,,,,,,,,,,,space,7.8728,a,1,1.2518,"[""0.234"",""0.524"",""0.673"",""0.970""]","[1,1,0,1]",0,0,0,0,1,0,1,,,0,FALSE,,,,,,,,,,,,,,,,,,,,,,,,,,,,,,,
,5934fb0a67011200014d3a50,627c6f2a54f1a45c4ae2986b,2022-05-11_22h21.49.864,classification_task,2021.2.3,MacIntel,59.97361161,627c6715c52fd12f31907bd0,,,,,,,,,,,,,,,,,,,,,,,l,1,1.0155,"[""0.088"",""0.284"",""0.188"",""0.710""]","[1,1,0,1]",0,1,1,1,1,1,1,,,0,FALSE,,,,,,,,,,,,,,,,,,,,,,,,,,,,,,,
,5934fb0a67011200014d3a50,627c6f2a54f1a45c4ae2986b,2022-05-11_22h21.49.864,classification_task,2021.2.3,MacIntel,59.97361161,627c6715c52fd12f31907bd0,,,,,,,,,,,,,,,,,,,,,,,a,1,0.8145,"[""0.659"",""0.524"",""0.936"",""0.970""]","[0,1,1,1]",0,2,2,2,1,0,1,,,0,FALSE,,,,,,,,,,,,,,,,,,,,,,,,,,,,,,,
,5934fb0a67011200014d3a50,627c6f2a54f1a45c4ae2986b,2022-05-11_22h21.49.864,classification_task,2021.2.3,MacIntel,59.97361161,627c6715c52fd12f31907bd0,,,,,,,,,,,,,,,,,,,,,,,l,1,0.9464,"[""0.140"",""0.384"",""0.474"",""0.053""]","[1,1,1,0]",0,3,3,3,1,1,0,,,0,FALSE,,,,,,,,,,,,,,,,,,,,,,,,,,,,,,,
,5934fb0a67011200014d3a50,627c6f2a54f1a45c4ae2986b,2022-05-11_22h21.49.864,classification_task,2021.2.3,MacIntel,59.97361161,627c6715c52fd12f31907bd0,,,,,,,,,,,,,,,,,,,,,,,a,1,1.84,"[""0.324"",""0.192"",""0.825"",""0.888""]","[1,0,1,1]",0,4,4,4,1,0,0,,,0,FALSE,,,,,,,,,,,,,,,,,,,,,,,,,,,,,,,
,5934fb0a67011200014d3a50,627c6f2a54f1a45c4ae2986b,2022-05-11_22h21.49.864,classification_task,2021.2.3,MacIntel,59.97361161,627c6715c52fd12f31907bd0,,,,,,,,,,,,,,,,,,,,,,,a,1,1.2654,"[""0.324"",""0.439"",""0.825"",""0.631""]","[1,1,1,0]",0,5,5,5,1,0,0,,,0,FALSE,,,,,,,,,,,,,,,,,,,,,,,,,,,,,,,
,5934fb0a67011200014d3a50,627c6f2a54f1a45c4ae2986b,2022-05-11_22h21.49.864,classification_task,2021.2.3,MacIntel,59.97361161,627c6715c52fd12f31907bd0,,,,,,,,,,,,,,,,,,,,,,,l,1,0.9071,"[""0.140"",""0.384"",""0.663"",""0.777""]","[1,1,0,1]",0,6,6,6,1,1,0,,,0,FALSE,,,,,,,,,,,,,,,,,,,,,,,,,,,,,,,
,5934fb0a67011200014d3a50,627c6f2a54f1a45c4ae2986b,2022-05-11_22h21.49.864,classification_task,2021.2.3,MacIntel,59.97361161,627c6715c52fd12f31907bd0,,,,,,,,,,,,,,,,,,,,,,,a,1,0.9778,"[""0.188"",""0.439"",""0.825"",""0.888""]","[0,1,1,1]",0,7,7,7,1,0,0,,,0,FALSE,,,,,,,,,,,,,,,,,,,,,,,,,,,,,,,
,5934fb0a67011200014d3a50,627c6f2a54f1a45c4ae2986b,2022-05-11_22h21.49.864,classification_task,2021.2.3,MacIntel,59.97361161,627c6715c52fd12f31907bd0,,,,,,,,,,,,,,,,,,,,,,,l,1,2.0059,"[""0.631"",""0.384"",""0.474"",""0.777""]","[0,1,1,1]",0,8,8,8,1,1,0,,,0,FALSE,,,,,,,,,,,,,,,,,,,,,,,,,,,,,,,
,5934fb0a67011200014d3a50,627c6f2a54f1a45c4ae2986b,2022-05-11_22h21.49.864,classification_task,2021.2.3,MacIntel,59.97361161,627c6715c52fd12f31907bd0,,,,,,,,,,,,,,,,,,,,,,,a,1,0.7037,"[""0.324"",""0.439"",""0.659"",""0.888""]","[1,1,0,1]",0,9,9,9,1,0,0,,,0,FALSE,,,,,,,,,,,,,,,,,,,,,,,,,,,,,,,
,5934fb0a67011200014d3a50,627c6f2a54f1a45c4ae2986b,2022-05-11_22h21.49.864,classification_task,2021.2.3,MacIntel,59.97361161,627c6715c52fd12f31907bd0,,,,,,,,,,,,,,,,,,,,,,,a,1,2.7627,"[""0.234"",""0.037"",""0.936"",""0.970""]","[1,0,1,1]",0,10,10,10,1,0,1,,,0,FALSE,,,,,,,,,,,,,,,,,,,,,,,,,,,,,,,
,5934fb0a67011200014d3a50,627c6f2a54f1a45c4ae2986b,2022-05-11_22h21.49.864,classification_task,2021.2.3,MacIntel,59.97361161,627c6715c52fd12f31907bd0,,,,,,,,,,,,,,,,,,,,,,,l,1,1.2096,"[""0.140"",""0.624"",""0.474"",""0.777""]","[1,0,1,1]",0,11,11,11,1,1,0,,,0,FALSE,,,,,,,,,,,,,,,,,,,,,,,,,,,,,,,
,5934fb0a67011200014d3a50,627c6f2a54f1a45c4ae2986b,2022-05-11_22h21.49.864,classification_task,2021.2.3,MacIntel,59.97361161,627c6715c52fd12f31907bd0,,,,,,,,,,,,,,,,,,,,,,,l,1,1.0526,"[""0.088"",""0.284"",""0.570"",""0.663""]","[1,1,1,0]",0,12,12,12,1,1,1,,,0,FALSE,,,,,,,,,,,,,,,,,,,,,,,,,,,,,,,
,5934fb0a67011200014d3a50,627c6f2a54f1a45c4ae2986b,2022-05-11_22h21.49.864,classification_task,2021.2.3,MacIntel,59.97361161,627c6715c52fd12f31907bd0,,,,,,,,,,,,,,,,,,,,,,,l,1,1.1316,"[""0.088"",""0.039"",""0.570"",""0.710""]","[1,0,1,1]",0,13,13,13,1,1,1,,,0,FALSE,,,,,,,,,,,,,,,,,,,,,,,,,,,,,,,
,5934fb0a67011200014d3a50,627c6f2a54f1a45c4ae2986b,2022-05-11_22h21.49.864,classification_task,2021.2.3,MacIntel,59.97361161,627c6715c52fd12f31907bd0,,,,,,,,,,,,,,,,,,,,,,,l,1,0.8245,"[""0.192"",""0.284"",""0.570"",""0.710""]","[0,1,1,1]",0,14,14,14,1,1,1,,,0,FALSE,,,,,,,,,,,,,,,,,,,,,,,,,,,,,,,
,5934fb0a67011200014d3a50,627c6f2a54f1a45c4ae2986b,2022-05-11_22h21.49.864,classification_task,2021.2.3,MacIntel,59.97361161,627c6715c52fd12f31907bd0,,,,,,,,,,,,,,,,,,,,,,,a,1,0.8574,"[""0.234"",""0.524"",""0.936"",""0.188""]","[1,1,1,0]",0,15,15,15,1,0,1,,,0,FALSE,,,,,,,,,,,,,,,,,,,,,,,,,,,,,,,
,5934fb0a67011200014d3a50,627c6f2a54f1a45c4ae2986b,2022-05-11_22h21.49.864,classification_task,2021.2.3,MacIntel,59.97361161,627c6715c52fd12f31907bd0,,,,,,,,,,,,,,,,,,,,,,,l,1,1.8653,"[""0.140"",""0.384"",""0.659"",""0.777""]","[1,1,0,1]",0,16,16,16,1,1,0,,,0,FALSE,,,,,,,,,,,,,,,,,,,,,,,,,,,,,,,
,5934fb0a67011200014d3a50,627c6f2a54f1a45c4ae2986b,2022-05-11_22h21.49.864,classification_task,2021.2.3,MacIntel,59.97361161,627c6715c52fd12f31907bd0,,,,,,,,,,,,,,,,,,,,,,,l,1,0.7426,"[""0.039"",""0.384"",""0.474"",""0.777""]","[0,1,1,1]",0,17,17,17,1,1,0,,,0,FALSE,,,,,,,,,,,,,,,,,,,,,,,,,,,,,,,
,5934fb0a67011200014d3a50,627c6f2a54f1a45c4ae2986b,2022-05-11_22h21.49.864,classification_task,2021.2.3,MacIntel,59.97361161,627c6715c52fd12f31907bd0,,,,,,,,,,,,,,,,,,,,,,,l,1,0.8399,"[""0.088"",""0.192"",""0.570"",""0.710""]","[1,0,1,1]",0,18,18,18,1,1,1,,,0,FALSE,,,,,,,,,,,,,,,,,,,,,,,,,,,,,,,
,5934fb0a67011200014d3a50,627c6f2a54f1a45c4ae2986b,2022-05-11_22h21.49.864,classification_task,2021.2.3,MacIntel,59.97361161,627c6715c52fd12f31907bd0,,,,,,,,,,,,,,,,,,,,,,,a,1,0.5659,"[""0.234"",""0.524"",""0.936"",""0.053""]","[1,1,1,0]",0,19,19,19,1,0,1,,,0,FALSE,,,,,,,,,,,,,,,,,,,,,,,,,,,,,,,
,5934fb0a67011200014d3a50,627c6f2a54f1a45c4ae2986b,2022-05-11_22h21.49.864,classification_task,2021.2.3,MacIntel,59.97361161,627c6715c52fd12f31907bd0,,,,,,,,,,,,,,,,,,,,,,,a,1,1.0212,"[""0.324"",""0.439"",""0.635"",""0.888""]","[1,1,0,1]",0,20,20,20,1,0,0,,,0,FALSE,,,,,,,,,,,,,,,,,,,,,,,,,,,,,,,
,5934fb0a67011200014d3a50,627c6f2a54f1a45c4ae2986b,2022-05-11_22h21.49.864,classification_task,2021.2.3,MacIntel,59.97361161,627c6715c52fd12f31907bd0,,,,,,,,,,,,,,,,,,,,,,,l,1,0.9141,"[""0.140"",""0.192"",""0.474"",""0.777""]","[1,0,1,1]",0,21,21,21,1,1,0,,,0,FALSE,,,,,,,,,,,,,,,,,,,,,,,,,,,,,,,
,5934fb0a67011200014d3a50,627c6f2a54f1a45c4ae2986b,2022-05-11_22h21.49.864,classification_task,2021.2.3,MacIntel,59.97361161,627c6715c52fd12f31907bd0,,,,,,,,,,,,,,,,,,,,,,,a,1,0.737,"[""0.188"",""0.524"",""0.936"",""0.970""]","[0,1,1,1]",0,22,22,22,1,0,1,,,0,FALSE,,,,,,,,,,,,,,,,,,,,,,,,,,,,,,,
,5934fb0a67011200014d3a50,627c6f2a54f1a45c4ae2986b,2022-05-11_22h21.49.864,classification_task,2021.2.3,MacIntel,59.97361161,627c6715c52fd12f31907bd0,,,,,,,,,,,,,,,,,,,,,,,a,1,0.8126,"[""0.663"",""0.439"",""0.825"",""0.888""]","[0,1,1,1]",0,23,23,23,1,0,0,,,0,FALSE,,,,,,,,,,,,,,,,,,,,,,,,,,,,,,,
,5934fb0a67011200014d3a50,627c6f2a54f1a45c4ae2986b,2022-05-11_22h21.49.864,classification_task,2021.2.3,MacIntel,59.97361161,627c6715c52fd12f31907bd0,,,,,,,,,,,,,,,,,,,,,,,a,1,1.9257,"[""0.234"",""0.663"",""0.936"",""0.970""]","[1,0,1,1]",0,24,24,24,1,0,1,,,0,FALSE,,,,,,,,,,,,,,,,,,,,,,,,,,,,,,,
,5934fb0a67011200014d3a50,627c6f2a54f1a45c4ae2986b,2022-05-11_22h21.49.864,classification_task,2021.2.3,MacIntel,59.97361161,627c6715c52fd12f31907bd0,,,,,,,,,,,,,,,,,,,,,,,a,1,0.7743,"[""0.324"",""0.188"",""0.825"",""0.888""]","[1,0,1,1]",0,25,25,25,1,0,0,,,0,FALSE,,,,,,,,,,,,,,,,,,,,,,,,,,,,,,,
,5934fb0a67011200014d3a50,627c6f2a54f1a45c4ae2986b,2022-05-11_22h21.49.864,classification_task,2021.2.3,MacIntel,59.97361161,627c6715c52fd12f31907bd0,,,,,,,,,,,,,,,,,,,,,,,l,1,0.947,"[""0.088"",""0.284"",""0.570"",""0.039""]","[1,1,1,0]",0,26,26,26,1,1,1,,,0,FALSE,,,,,,,,,,,,,,,,,,,,,,,,,,,,,,,
,5934fb0a67011200014d3a50,627c6f2a54f1a45c4ae2986b,2022-05-11_22h21.49.864,classification_task,2021.2.3,MacIntel,59.97361161,627c6715c52fd12f31907bd0,,,,,,,,,,,,,,,,,,,,,,,a,1,0.8566,"[""0.234"",""0.524"",""0.053"",""0.970""]","[1,1,0,1]",0,27,27,27,1,0,1,,,0,FALSE,,,,,,,,,,,,,,,,,,,,,,,,,,,,,,,
,5934fb0a67011200014d3a50,627c6f2a54f1a45c4ae2986b,2022-05-11_22h21.49.864,classification_task,2021.2.3,MacIntel,59.97361161,627c6715c52fd12f31907bd0,,,,,,,,,,,,,,,,,,,,,,,a,1,1.857,"[""0.324"",""0.439"",""0.825"",""0.039""]","[1,1,1,0]",0,28,28,28,1,0,0,,,0,FALSE,,,,,,,,,,,,,,,,,,,,,,,,,,,,,,,
,5934fb0a67011200014d3a50,627c6f2a54f1a45c4ae2986b,2022-05-11_22h21.49.864,classification_task,2021.2.3,MacIntel,59.97361161,627c6715c52fd12f31907bd0,,,,,,,,,,,,,,,,,,,,,,,l,1,0.9368,"[""0.140"",""0.384"",""0.474"",""0.038""]","[1,1,1,0]",0,29,29,29,1,1,0,,,0,FALSE,,,,,,,,,,,,,,,,,,,,,,,,,,,,,,,
,5934fb0a67011200014d3a50,627c6f2a54f1a45c4ae2986b,2022-05-11_22h21.49.864,classification_task,2021.2.3,MacIntel,59.97361161,627c6715c52fd12f31907bd0,,,,,,,,,,,,,,,,,,,,,,,l,1,1.1407,"[""0.044"",""0.284"",""0.570"",""0.710""]","[0,1,1,1]",0,30,30,30,1,1,1,,,0,FALSE,,,,,,,,,,,,,,,,,,,,,,,,,,,,,,,
,5934fb0a67011200014d3a50,627c6f2a54f1a45c4ae2986b,2022-05-11_22h21.49.864,classification_task,2021.2.3,MacIntel,59.97361161,627c6715c52fd12f31907bd0,,,,,,,,,,,,,,,,,,,,,,,l,1,0.8353,"[""0.088"",""0.284"",""0.038"",""0.710""]","[1,1,0,1]",0,31,31,31,1,1,1,,,0,FALSE,,,,,,,,,,,,,,,,,,,,,,,,,,,,,,,
,5934fb0a67011200014d3a50,627c6f2a54f1a45c4ae2986b,2022-05-11_22h21.49.864,classification_task,2021.2.3,MacIntel,59.97361161,627c6715c52fd12f31907bd0,,,,,,,,,,,,,,,,,,,,,,,a,1,0.894,"[""0.234"",""0.524"",""0.053"",""0.970""]","[1,1,0,1]",0,32,32,32,1,0,1,,,0,FALSE,,,,,,,,,,,,,,,,,,,,,,,,,,,,,,,
,5934fb0a67011200014d3a50,627c6f2a54f1a45c4ae2986b,2022-05-11_22h21.49.864,classification_task,2021.2.3,MacIntel,59.97361161,627c6715c52fd12f31907bd0,,,,,,,,,,,,,,,,,,,,,,,l,1,0.8821,"[""0.088"",""0.197"",""0.570"",""0.710""]","[1,0,1,1]",0,33,33,33,1,1,1,,,0,FALSE,,,,,,,,,,,,,,,,,,,,,,,,,,,,,,,
,5934fb0a67011200014d3a50,627c6f2a54f1a45c4ae2986b,2022-05-11_22h21.49.864,classification_task,2021.2.3,MacIntel,59.97361161,627c6715c52fd12f31907bd0,,,,,,,,,,,,,,,,,,,,,,,l,1,0.8858,"[""0.088"",""0.284"",""0.053"",""0.710""]","[1,1,0,1]",0,34,34,34,1,1,1,,,0,FALSE,,,,,,,,,,,,,,,,,,,,,,,,,,,,,,,
,5934fb0a67011200014d3a50,627c6f2a54f1a45c4ae2986b,2022-05-11_22h21.49.864,classification_task,2021.2.3,MacIntel,59.97361161,627c6715c52fd12f31907bd0,,,,,,,,,,,,,,,,,,,,,,,a,1,1.1519,"[""0.234"",""0.524"",""0.936"",""0.659""]","[1,1,1,0]",0,35,35,35,1,0,1,,,0,FALSE,,,,,,,,,,,,,,,,,,,,,,,,,,,,,,,
,5934fb0a67011200014d3a50,627c6f2a54f1a45c4ae2986b,2022-05-11_22h21.49.864,classification_task,2021.2.3,MacIntel,59.97361161,627c6715c52fd12f31907bd0,,,,,,,,,,,,,,,,,,,,,,,a,1,1.179,"[""0.673"",""0.439"",""0.825"",""0.888""]","[0,1,1,1]",0,36,36,36,1,0,0,,,0,FALSE,,,,,,,,,,,,,,,,,,,,,,,,,,,,,,,
,5934fb0a67011200014d3a50,627c6f2a54f1a45c4ae2986b,2022-05-11_22h21.49.864,classification_task,2021.2.3,MacIntel,59.97361161,627c6715c52fd12f31907bd0,,,,,,,,,,,,,,,,,,,,,,,a,1,0.8816,"[""0.631"",""0.524"",""0.936"",""0.970""]","[0,1,1,1]",0,37,37,37,1,0,1,,,0,FALSE,,,,,,,,,,,,,,,,,,,,,,,,,,,,,,,
,5934fb0a67011200014d3a50,627c6f2a54f1a45c4ae2986b,2022-05-11_22h21.49.864,classification_task,2021.2.3,MacIntel,59.97361161,627c6715c52fd12f31907bd0,,,,,,,,,,,,,,,,,,,,,,,a,1,0.7481,"[""0.324"",""0.176"",""0.825"",""0.888""]","[1,0,1,1]",0,38,38,38,1,0,0,,,0,FALSE,,,,,,,,,,,,,,,,,,,,,,,,,,,,,,,
,5934fb0a67011200014d3a50,627c6f2a54f1a45c4ae2986b,2022-05-11_22h21.49.864,classification_task,2021.2.3,MacIntel,59.97361161,627c6715c52fd12f31907bd0,,,,,,,,,,,,,,,,,,,,,,,l,1,0.999,"[""0.140"",""0.384"",""0.474"",""0.038""]","[1,1,1,0]",0,39,39,39,1,1,0,,,0,FALSE,,,,,,,,,,,,,,,,,,,,,,,,,,,,,,,
,5934fb0a67011200014d3a50,627c6f2a54f1a45c4ae2986b,2022-05-11_22h21.49.864,classification_task,2021.2.3,MacIntel,59.97361161,627c6715c52fd12f31907bd0,,,,,,,,,,,,,,,,,,,,,,,a,1,2.375,"[""0.324"",""0.439"",""0.039"",""0.888""]","[1,1,0,1]",0,40,40,40,1,0,0,,,0,FALSE,,,,,,,,,,,,,,,,,,,,,,,,,,,,,,,
,5934fb0a67011200014d3a50,627c6f2a54f1a45c4ae2986b,2022-05-11_22h21.49.864,classification_task,2021.2.3,MacIntel,59.97361161,627c6715c52fd12f31907bd0,,,,,,,,,,,,,,,,,,,,,,,l,1,0.7772,"[""0.140"",""0.384"",""0.624"",""0.777""]","[1,1,0,1]",0,41,41,41,1,1,0,,,0,FALSE,,,,,,,,,,,,,,,,,,,,,,,,,,,,,,,
,5934fb0a67011200014d3a50,627c6f2a54f1a45c4ae2986b,2022-05-11_22h21.49.864,classification_task,2021.2.3,MacIntel,59.97361161,627c6715c52fd12f31907bd0,,,,,,,,,,,,,,,,,,,,,,,a,1,1.427,"[""0.324"",""0.439"",""0.825"",""0.197""]","[1,1,1,0]",0,42,42,42,1,0,0,,,0,FALSE,,,,,,,,,,,,,,,,,,,,,,,,,,,,,,,
,5934fb0a67011200014d3a50,627c6f2a54f1a45c4ae2986b,2022-05-11_22h21.49.864,classification_task,2021.2.3,MacIntel,59.97361161,627c6715c52fd12f31907bd0,,,,,,,,,,,,,,,,,,,,,,,l,1,1.0575,"[""0.140"",""0.663"",""0.474"",""0.777""]","[1,0,1,1]",0,43,43,43,1,1,0,,,0,FALSE,,,,,,,,,,,,,,,,,,,,,,,,,,,,,,,
,5934fb0a67011200014d3a50,627c6f2a54f1a45c4ae2986b,2022-05-11_22h21.49.864,classification_task,2021.2.3,MacIntel,59.97361161,627c6715c52fd12f31907bd0,,,,,,,,,,,,,,,,,,,,,,,l,1,0.8642,"[""0.088"",""0.284"",""0.570"",""0.053""]","[1,1,1,0]",0,44,44,44,1,1,1,,,0,FALSE,,,,,,,,,,,,,,,,,,,,,,,,,,,,,,,
,5934fb0a67011200014d3a50,627c6f2a54f1a45c4ae2986b,2022-05-11_22h21.49.864,classification_task,2021.2.3,MacIntel,59.97361161,627c6715c52fd12f31907bd0,,,,,,,,,,,,,,,,,,,,,,,l,1,1.4371,"[""0.624"",""0.284"",""0.570"",""0.710""]","[0,1,1,1]",0,45,45,45,1,1,1,,,0,FALSE,,,,,,,,,,,,,,,,,,,,,,,,,,,,,,,
,5934fb0a67011200014d3a50,627c6f2a54f1a45c4ae2986b,2022-05-11_22h21.49.864,classification_task,2021.2.3,MacIntel,59.97361161,627c6715c52fd12f31907bd0,,,,,,,,,,,,,,,,,,,,,,,l,1,0.7865,"[""0.044"",""0.384"",""0.474"",""0.777""]","[0,1,1,1]",0,46,46,46,1,1,0,,,0,FALSE,,,,,,,,,,,,,,,,,,,,,,,,,,,,,,,
,5934fb0a67011200014d3a50,627c6f2a54f1a45c4ae2986b,2022-05-11_22h21.49.864,classification_task,2021.2.3,MacIntel,59.97361161,627c6715c52fd12f31907bd0,,,,,,,,,,,,,,,,,,,,,,,a,1,0.787,"[""0.234"",""0.038"",""0.936"",""0.970""]","[1,0,1,1]",0,47,47,47,1,0,1,,,0,FALSE,,,,,,,,,,,,,,,,,,,,,,,,,,,,,,,
,5934fb0a67011200014d3a50,627c6f2a54f1a45c4ae2986b,2022-05-11_22h21.49.864,classification_task,2021.2.3,MacIntel,59.97361161,627c6715c52fd12f31907bd0,,,,,,,,,,,,,,,,,,,,,,,l,1,1.0091,"[""0.140"",""0.384"",""0.192"",""0.777""]","[1,1,0,1]",0,48,48,48,1,1,0,,,0,FALSE,,,,,,,,,,,,,,,,,,,,,,,,,,,,,,,
,5934fb0a67011200014d3a50,627c6f2a54f1a45c4ae2986b,2022-05-11_22h21.49.864,classification_task,2021.2.3,MacIntel,59.97361161,627c6715c52fd12f31907bd0,,,,,,,,,,,,,,,,,,,,,,,a,1,3.6505,"[""0.234"",""0.038"",""0.936"",""0.970""]","[1,0,1,1]",0,49,49,49,1,0,1,,,0,FALSE,,,,,,,,,,,,,,,,,,,,,,,,,,,,,,,
,5934fb0a67011200014d3a50,627c6f2a54f1a45c4ae2986b,2022-05-11_22h21.49.864,classification_task,2021.2.3,MacIntel,59.97361161,627c6715c52fd12f31907bd0,,,,,,,,,,,,,,,,,,,,,,,a,1,1.086,"[""0.234"",""0.524"",""0.936"",""0.188""]","[1,1,1,0]",0,50,50,50,1,0,1,,,0,FALSE,,,,,,,,,,,,,,,,,,,,,,,,,,,,,,,
,5934fb0a67011200014d3a50,627c6f2a54f1a45c4ae2986b,2022-05-11_22h21.49.864,classification_task,2021.2.3,MacIntel,59.97361161,627c6715c52fd12f31907bd0,,,,,,,,,,,,,,,,,,,,,,,a,1,0.6531,"[""0.234"",""0.524"",""0.635"",""0.970""]","[1,1,0,1]",0,51,51,51,1,0,1,,,0,FALSE,,,,,,,,,,,,,,,,,,,,,,,,,,,,,,,
,5934fb0a67011200014d3a50,627c6f2a54f1a45c4ae2986b,2022-05-11_22h21.49.864,classification_task,2021.2.3,MacIntel,59.97361161,627c6715c52fd12f31907bd0,,,,,,,,,,,,,,,,,,,,,,,l,1,1.6944,"[""0.140"",""0.673"",""0.474"",""0.777""]","[1,0,1,1]",0,52,52,52,1,1,0,,,0,FALSE,,,,,,,,,,,,,,,,,,,,,,,,,,,,,,,
,5934fb0a67011200014d3a50,627c6f2a54f1a45c4ae2986b,2022-05-11_22h21.49.864,classification_task,2021.2.3,MacIntel,59.97361161,627c6715c52fd12f31907bd0,,,,,,,,,,,,,,,,,,,,,,,l,1,1.1385,"[""0.088"",""0.284"",""0.197"",""0.710""]","[1,1,0,1]",0,53,53,53,1,1,1,,,0,FALSE,,,,,,,,,,,,,,,,,,,,,,,,,,,,,,,
,5934fb0a67011200014d3a50,627c6f2a54f1a45c4ae2986b,2022-05-11_22h21.49.864,classification_task,2021.2.3,MacIntel,59.97361161,627c6715c52fd12f31907bd0,,,,,,,,,,,,,,,,,,,,,,,a,1,2.9115,"[""0.324"",""0.659"",""0.825"",""0.888""]","[1,0,1,1]",0,54,54,54,1,0,0,,,0,FALSE,,,,,,,,,,,,,,,,,,,,,,,,,,,,,,,
,5934fb0a67011200014d3a50,627c6f2a54f1a45c4ae2986b,2022-05-11_22h21.49.864,classification_task,2021.2.3,MacIntel,59.97361161,627c6715c52fd12f31907bd0,,,,,,,,,,,,,,,,,,,,,,,l,1,0.7885,"[""0.197"",""0.384"",""0.474"",""0.777""]","[0,1,1,1]",0,55,55,55,1,1,0,,,0,FALSE,,,,,,,,,,,,,,,,,,,,,,,,,,,,,,,
,5934fb0a67011200014d3a50,627c6f2a54f1a45c4ae2986b,2022-05-11_22h21.49.864,classification_task,2021.2.3,MacIntel,59.97361161,627c6715c52fd12f31907bd0,,,,,,,,,,,,,,,,,,,,,,,l,1,0.8326,"[""0.088"",""0.284"",""0.570"",""0.197""]","[1,1,1,0]",0,56,56,56,1,1,1,,,0,FALSE,,,,,,,,,,,,,,,,,,,,,,,,,,,,,,,
,5934fb0a67011200014d3a50,627c6f2a54f1a45c4ae2986b,2022-05-11_22h21.49.864,classification_task,2021.2.3,MacIntel,59.97361161,627c6715c52fd12f31907bd0,,,,,,,,,,,,,,,,,,,,,,,l,1,1.5716,"[""0.088"",""0.044"",""0.570"",""0.710""]","[1,0,1,1]",0,57,57,57,1,1,1,,,0,FALSE,,,,,,,,,,,,,,,,,,,,,,,,,,,,,,,
,5934fb0a67011200014d3a50,627c6f2a54f1a45c4ae2986b,2022-05-11_22h21.49.864,classification_task,2021.2.3,MacIntel,59.97361161,627c6715c52fd12f31907bd0,,,,,,,,,,,,,,,,,,,,,,,a,1,0.698,"[""0.037"",""0.524"",""0.936"",""0.970""]","[0,1,1,1]",0,58,58,58,1,0,1,,,0,FALSE,,,,,,,,,,,,,,,,,,,,,,,,,,,,,,,
,5934fb0a67011200014d3a50,627c6f2a54f1a45c4ae2986b,2022-05-11_22h21.49.864,classification_task,2021.2.3,MacIntel,59.97361161,627c6715c52fd12f31907bd0,,,,,,,,,,,,,,,,,,,,,,,a,1,3.2111,"[""0.324"",""0.439"",""0.624"",""0.888""]","[1,1,0,1]",0,59,59,59,1,0,0,,,0,FALSE,,,,,,,,,,,,,,,,,,,,,,,,,,,,,,,
,5934fb0a67011200014d3a50,627c6f2a54f1a45c4ae2986b,2022-05-11_22h21.49.864,classification_task,2021.2.3,MacIntel,59.97361161,627c6715c52fd12f31907bd0,,,,,,,,,,,,,,,,,,,,,,,a,1,1.0061,"[""0.176"",""0.439"",""0.825"",""0.888""]","[0,1,1,1]",0,60,60,60,1,0,0,,,0,FALSE,,,,,,,,,,,,,,,,,,,,,,,,,,,,,,,
,5934fb0a67011200014d3a50,627c6f2a54f1a45c4ae2986b,2022-05-11_22h21.49.864,classification_task,2021.2.3,MacIntel,59.97361161,627c6715c52fd12f31907bd0,,,,,,,,,,,,,,,,,,,,,,,l,1,0.8825,"[""0.635"",""0.284"",""0.570"",""0.710""]","[0,1,1,1]",0,61,61,61,1,1,1,,,0,FALSE,,,,,,,,,,,,,,,,,,,,,,,,,,,,,,,
,5934fb0a67011200014d3a50,627c6f2a54f1a45c4ae2986b,2022-05-11_22h21.49.864,classification_task,2021.2.3,MacIntel,59.97361161,627c6715c52fd12f31907bd0,,,,,,,,,,,,,,,,,,,,,,,l,1,1.4039,"[""0.140"",""0.384"",""0.474"",""0.673""]","[1,1,1,0]",0,62,62,62,1,1,0,,,0,FALSE,,,,,,,,,,,,,,,,,,,,,,,,,,,,,,,
,5934fb0a67011200014d3a50,627c6f2a54f1a45c4ae2986b,2022-05-11_22h21.49.864,classification_task,2021.2.3,MacIntel,59.97361161,627c6715c52fd12f31907bd0,,,,,,,,,,,,,,,,,,,,,,,l,0,1.1438,"[""0.324"",""0.439"",""0.825"",""0.192""]","[1,1,1,0]",0,63,63,63,1,0,0,,,0,FALSE,,,,,,,,,,,,,,,,,,,,,,,,,,,,,,,
,5934fb0a67011200014d3a50,627c6f2a54f1a45c4ae2986b,2022-05-11_22h21.49.864,classification_task,2021.2.3,MacIntel,59.97361161,627c6715c52fd12f31907bd0,,,,,,,,,,,,,,,,,,,,,,,,,,,,,,,,,,,,,,,0, ,,0,10,155.6377,0,2,2,2,1,2,3,,,,,,,,,,,,,,,,,,
,5934fb0a67011200014d3a50,627c6f2a54f1a45c4ae2986b,2022-05-11_22h21.49.864,classification_task,2021.2.3,MacIntel,59.97361161,627c6715c52fd12f31907bd0,,,,,,,,,,,,,,,,,,,,,,,,,,,,,,,,,,,,,,,1,  ,,0,2.851691675,164.312,0,2,2,2,1,2,3,,,,,,,,,,,,,,,,,,
,5934fb0a67011200014d3a50,627c6f2a54f1a45c4ae2986b,2022-05-11_22h21.49.864,classification_task,2021.2.3,MacIntel,59.97361161,627c6715c52fd12f31907bd0,,,,,,,,,,,,,,,,,,,,,,,,,,,,,,,,,,,,,,,2,  ,,0,1.635380498,165.5715,0,2,2,2,1,2,3,,,,,,,,,,,,,,,,,,
,5934fb0a67011200014d3a50,627c6f2a54f1a45c4ae2986b,2022-05-11_22h21.49.864,classification_task,2021.2.3,MacIntel,59.97361161,627c6715c52fd12f31907bd0,,,,,,,,,,,,,,,,,,,,,,,,,,,,,,,,,,,,,,,,,,,,,0,2,2,2,1,,3,,,,,,,,,,,,,,,,,,
,5934fb0a67011200014d3a50,627c6f2a54f1a45c4ae2986b,2022-05-11_22h21.49.864,classification_task,2021.2.3,MacIntel,59.97361161,627c6715c52fd12f31907bd0,,,,,,,,,,,,,,,,,,,,,,,,,,,,,,,,,,,,,,,,,,,,,,,,,,,,,I believe the aid is a competent performer,,0.7,0,2,749.4286,0,0,0,0,1,0,,,,,
,5934fb0a67011200014d3a50,627c6f2a54f1a45c4ae2986b,2022-05-11_22h21.49.864,classification_task,2021.2.3,MacIntel,59.97361161,627c6715c52fd12f31907bd0,,,,,,,,,,,,,,,,,,,,,,,,,,,,,,,,,,,,,,,,,,,,,,,,,,,,,I trust the aid,,0.7,0,2,750.9244,0,0,0,0,1,0,,,,,
,5934fb0a67011200014d3a50,627c6f2a54f1a45c4ae2986b,2022-05-11_22h21.49.864,classification_task,2021.2.3,MacIntel,59.97361161,627c6715c52fd12f31907bd0,,,,,,,,,,,,,,,,,,,,,,,,,,,,,,,,,,,,,,,,,,,,,,,,,,,,,I have confidence in the advice given by the aid,,0.7,0,2,752.2267,0,0,0,0,1,0,,,,,
,5934fb0a67011200014d3a50,627c6f2a54f1a45c4ae2986b,2022-05-11_22h21.49.864,classification_task,2021.2.3,MacIntel,59.97361161,627c6715c52fd12f31907bd0,,,,,,,,,,,,,,,,,,,,,,,,,,,,,,,,,,,,,,,,,,,,,,,,,,,,,I can depend on the aid,,0.7,0,1,754.5822,0,0,0,0,1,0,,,,,
,5934fb0a67011200014d3a50,627c6f2a54f1a45c4ae2986b,2022-05-11_22h21.49.864,classification_task,2021.2.3,MacIntel,59.97361161,627c6715c52fd12f31907bd0,,,,,,,,,,,,,,,,,,,,,,,,,,,,,,,,,,,,,,,,,,,,,,,,,,,,,I can rely on the aid to behave in consistent ways,,0.7,0,1,756.5734,0,0,0,0,1,0,,,,,
,5934fb0a67011200014d3a50,627c6f2a54f1a45c4ae2986b,2022-05-11_22h21.49.864,classification_task,2021.2.3,MacIntel,59.97361161,627c6715c52fd12f31907bd0,,,,,,,,,,,,,,,,,,,,,,,,,,,,,,,,,,,,,,,,,,,,,,,,,,,,,I can rely on the aid to do its best every time I take its advice,,0.7,0,1,758.107,0,0,0,0,1,0,,,,,
,5934fb0a67011200014d3a50,627c6f2a54f1a45c4ae2986b,2022-05-11_22h21.49.864,classification_task,2021.2.3,MacIntel,59.97361161,627c6715c52fd12f31907bd0,,,,,,,,,,,,,,,,,,,,,,,,,,,,,,,,,,,,,,,,,,,,,,,,,,,,,"On trials you completed with assistance from the aid, how frequently did you think the aid was correct?",,0.7,0,30,,0,0,0,0,1,0,,,,,
,5934fb0a67011200014d3a50,627c6f2a54f1a45c4ae2986b,2022-05-11_22h21.49.864,classification_task,2021.2.3,MacIntel,59.97361161,627c6715c52fd12f31907bd0,,,,,,,,,,,,,,,,,,,,,,,,,,,,,,,,,,,,,,,,,,,,,,,,,,,,,"On trials you completed without the aid, how frequently did you think you were correct?",,0.7,0,90,,0,0,0,0,1,0,,,,,
,5934fb0a67011200014d3a50,627c6f2a54f1a45c4ae2986b,2022-05-11_22h21.49.864,classification_task,2021.2.3,MacIntel,59.97361161,627c6715c52fd12f31907bd0,,,,,,,,,,,,,,,,,,,,,,,,,,,,,,,,,,,,,,,,,,,,,,,,,,,,,,,,,,,0,0,0,0,1,,,,,,
,5934fb0a67011200014d3a50,627c6f2a54f1a45c4ae2986b,2022-05-11_22h21.49.864,classification_task,2021.2.3,MacIntel,59.97361161,627c6715c52fd12f31907bd0,,,,,,,,,,,,,,,,,,,,,,,,,,,,,,,,,,,,,,,,,,,,,,,,,,,,,,,,,,,,,,,,,space,8.6652,790.6395,,
,5934fb0a67011200014d3a50,627c6f2a54f1a45c4ae2986b,2022-05-11_22h21.49.864,classification_task,2021.2.3,MacIntel,59.97361161,627c6715c52fd12f31907bd0,,,,,,,,,,,,,,,,,,,,,,,,,,,,,,,,,,,,,,,,,,,,,,,,,,,,,,,,,,,,,,,,,,,,"Mozilla/5.0 (Macintosh; Intel Mac OS X 10_12_6) AppleWebKit/537.36 (KHTML, like Gecko) Chrome/101.0.4951.54 Safari/537.36",
,5934fb0a67011200014d3a50,627c6f2a54f1a45c4ae2986b,2022-05-11_22h21.49.864,classification_task,2021.2.3,MacIntel,59.97361161,627c6715c52fd12f31907bd0,,,,,,,,,,,,,,,,,,,,,,,,,,,,,,,,,,,,,,,,,,,,,,,,,,,,,,,,,,,,,,,,,,,,,HIGHLIGHT
