usingWebGL,participant,session,date,expName,psychopyVersion,OS,frameRate,study_id,signatures_friend,signatures_foe,band_ranges_top,band_ranges_bottom,formitemText,formtype,formundefined,formitemWidth,formindex,formresponse,formrt,key_resp_2.keys,key_resp_2.rt,tute_resp.keys,tute_resp.rt,tutorial.thisRepN,tutorial.thisTrialN,tutorial.thisN,tutorial.thisIndex,tutorial.ran,key_resp_4.keys,key_resp_4.rt,key_resp.keys,key_resp.corr,key_resp.rt,lines_presented,is_signal_presented,trials.thisRepN,trials.thisTrialN,trials.thisN,trials.thisIndex,trials.ran,vessel,active_band,lines,is_signal,supported_pos,catch_trial,debrief_formindex,debrief_formitemText,debrief_formtype,debrief_formitemWidth,debrief_formresponse,debrief_formrt,phases.thisRepN,phases.thisTrialN,phases.thisN,phases.thisIndex,phases.ran,phases.order,phase,key_resp_3.keys,trustitemText,trusttype,trustitemWidth,trustindex,trustresponse,trustrt,support_status.thisRepN,support_status.thisTrialN,support_status.thisN,support_status.thisIndex,support_status.ran,support_status.order,key_resp_5.keys,key_resp_5.rt,globalClockTime,userAgent,manualCondition
TRUE,59da7e94416c900001ea5b52,627c705e10af4547ceae7ee9,2022-05-12_04h26.46.946,classification_task,2021.2.3,Win32,59.92329818,627c6715c52fd12f31907bd0,,,,,,,,,,,,,,,,,,,,,,,,,,,,,,,,,,,,,,,,,,,,,,,,,,,,,,,,,,,,,,,,,,,,,
,59da7e94416c900001ea5b52,627c705e10af4547ceae7ee9,2022-05-12_04h26.46.946,classification_task,2021.2.3,Win32,59.92329818,627c6715c52fd12f31907bd0,"[[""0.189"",""0.545"",""0.868"",""0.920""],[""0.293"",""0.509"",""0.579"",""0.970""]]","[[""0.110"",""0.242"",""0.440"",""0.746""],[""0.145"",""0.357"",""0.638"",""0.830""]]","[1,10]","[100,1000]",Video game experience,,,0.7,0,,,,,,,,,,,,,,,,,,,,,,,,,,,,,,,,,,,,,,,,,,,,,,,,,,,,,,,,,,,,
,59da7e94416c900001ea5b52,627c705e10af4547ceae7ee9,2022-05-12_04h26.46.946,classification_task,2021.2.3,Win32,59.92329818,627c6715c52fd12f31907bd0,,,,,Approximately how many hours did you spend playing video games in the last week?,,,0.7,0,0,,,,,,,,,,,,,,,,,,,,,,,,,,,,,,,,,,,,,,,,,,,,,,,,,,,,,,,,,,,
,59da7e94416c900001ea5b52,627c705e10af4547ceae7ee9,2022-05-12_04h26.46.946,classification_task,2021.2.3,Win32,59.92329818,627c6715c52fd12f31907bd0,,,,,"Which game did you play the most this year? (Enter ""None"" if you didn't play any)",,,0.7,0,none,,,,,,,,,,,,,,,,,,,,,,,,,,,,,,,,,,,,,,,,,,,,,,,,,,,,,,,,,,,
,59da7e94416c900001ea5b52,627c705e10af4547ceae7ee9,2022-05-12_04h26.46.946,classification_task,2021.2.3,Win32,59.92329818,627c6715c52fd12f31907bd0,,,,,Visual perception,,,0.7,0,,,,,,,,,,,,,,,,,,,,,,,,,,,,,,,,,,,,,,,,,,,,,,,,,,,,,,,,,,,,
,59da7e94416c900001ea5b52,627c705e10af4547ceae7ee9,2022-05-12_04h26.46.946,classification_task,2021.2.3,Win32,59.92329818,627c6715c52fd12f31907bd0,,,,,Do you have any form of color blindness?,,,0.7,0,No,549.8474,,,,,,,,,,,,,,,,,,,,,,,,,,,,,,,,,,,,,,,,,,,,,,,,,,,,,,,,,,
,59da7e94416c900001ea5b52,627c705e10af4547ceae7ee9,2022-05-12_04h26.46.946,classification_task,2021.2.3,Win32,59.92329818,627c6715c52fd12f31907bd0,,,,,Do you use software to change the colour temperature of your screen (e.g. f.lux)?,,,0.7,0,No,559.8766,,,,,,,,,,,,,,,,,,,,,,,,,,,,,,,,,,,,,,,,,,,,,,,,,,,,,,,,,,
,59da7e94416c900001ea5b52,627c705e10af4547ceae7ee9,2022-05-12_04h26.46.946,classification_task,2021.2.3,Win32,59.92329818,627c6715c52fd12f31907bd0,,,,,,,,,,,,space,40.3272,space,11.4782,0,0,0,0,1,,,,,,,,,,,,,,,,,,,,,,,,,,,,,,,,,,,,,,,,,,,,,,,,,
,59da7e94416c900001ea5b52,627c705e10af4547ceae7ee9,2022-05-12_04h26.46.946,classification_task,2021.2.3,Win32,59.92329818,627c6715c52fd12f31907bd0,,,,,,,,,,,,,,space,11.3317,1,0,1,0,1,,,,,,,,,,,,,,,,,,,,,,,,,,,,,,,,,,,,,,,,,,,,,,,,,
,59da7e94416c900001ea5b52,627c705e10af4547ceae7ee9,2022-05-12_04h26.46.946,classification_task,2021.2.3,Win32,59.92329818,627c6715c52fd12f31907bd0,,,,,,,,,,,,,,space,50.4483,2,0,2,0,1,,,,,,,,,,,,,,,,,,,,,,,,,,,,,,,,,,,,,,,,,,,,,,,,,
,59da7e94416c900001ea5b52,627c705e10af4547ceae7ee9,2022-05-12_04h26.46.946,classification_task,2021.2.3,Win32,59.92329818,627c6715c52fd12f31907bd0,,,,,,,,,,,,,,space,69.1733,3,0,3,0,1,,,,,,,,,,,,,,,,,,,,,,,,,,,,,,,,,,,,,,,,,,,,,,,,,
,59da7e94416c900001ea5b52,627c705e10af4547ceae7ee9,2022-05-12_04h26.46.946,classification_task,2021.2.3,Win32,59.92329818,627c6715c52fd12f31907bd0,,,,,,,,,,,,,,space,22.3056,4,0,4,0,1,,,,,,,,,,,,,,,,,,,,,,,,,,,,,,,,,,,,,,,,,,,,,,,,,
,59da7e94416c900001ea5b52,627c705e10af4547ceae7ee9,2022-05-12_04h26.46.946,classification_task,2021.2.3,Win32,59.92329818,627c6715c52fd12f31907bd0,,,,,,,,,,,,,,,,,,,,,space,36.0926,l,1,6.2129,"[""0.110"",""0.242"",""0.440"",""0.393""]","[1,1,1,0]",0,0,0,0,1,1,0,,,0,FALSE,,,,,,,,,,,,,,,,,,,,,,,,,,,,,,,
,59da7e94416c900001ea5b52,627c705e10af4547ceae7ee9,2022-05-12_04h26.46.946,classification_task,2021.2.3,Win32,59.92329818,627c6715c52fd12f31907bd0,,,,,,,,,,,,,,,,,,,,,,,l,1,4.6633,"[""0.145"",""0.393"",""0.638"",""0.830""]","[1,0,1,1]",0,1,1,1,1,1,1,,,0,FALSE,,,,,,,,,,,,,,,,,,,,,,,,,,,,,,,
,59da7e94416c900001ea5b52,627c705e10af4547ceae7ee9,2022-05-12_04h26.46.946,classification_task,2021.2.3,Win32,59.92329818,627c6715c52fd12f31907bd0,,,,,,,,,,,,,,,,,,,,,,,l,1,8.9643,"[""0.393"",""0.357"",""0.638"",""0.830""]","[0,1,1,1]",0,2,2,2,1,1,1,,,0,FALSE,,,,,,,,,,,,,,,,,,,,,,,,,,,,,,,
,59da7e94416c900001ea5b52,627c705e10af4547ceae7ee9,2022-05-12_04h26.46.946,classification_task,2021.2.3,Win32,59.92329818,627c6715c52fd12f31907bd0,,,,,,,,,,,,,,,,,,,,,,,a,1,6.9987,"[""0.293"",""0.509"",""0.474"",""0.970""]","[1,1,0,1]",0,3,3,3,1,0,1,,,0,FALSE,,,,,,,,,,,,,,,,,,,,,,,,,,,,,,,
,59da7e94416c900001ea5b52,627c705e10af4547ceae7ee9,2022-05-12_04h26.46.946,classification_task,2021.2.3,Win32,59.92329818,627c6715c52fd12f31907bd0,,,,,,,,,,,,,,,,,,,,,,,l,1,6.1143,"[""0.145"",""0.357"",""0.035"",""0.830""]","[1,1,0,1]",0,4,4,4,1,1,1,,,0,FALSE,,,,,,,,,,,,,,,,,,,,,,,,,,,,,,,
,59da7e94416c900001ea5b52,627c705e10af4547ceae7ee9,2022-05-12_04h26.46.946,classification_task,2021.2.3,Win32,59.92329818,627c6715c52fd12f31907bd0,,,,,,,,,,,,,,,,,,,,,,,,0,,"[""0.189"",""0.545"",""0.868"",""0.035""]","[1,1,1,0]",0,5,5,5,1,0,0,,,0,FALSE,,,,,,,,,,,,,,,,,,,,,,,,,,,,,,,
,59da7e94416c900001ea5b52,627c705e10af4547ceae7ee9,2022-05-12_04h26.46.946,classification_task,2021.2.3,Win32,59.92329818,627c6715c52fd12f31907bd0,,,,,,,,,,,,,,,,,,,,,,,a,1,5.4313,"[""0.690"",""0.509"",""0.579"",""0.970""]","[0,1,1,1]",0,6,6,6,1,0,1,,,0,FALSE,,,,,,,,,,,,,,,,,,,,,,,,,,,,,,,
,59da7e94416c900001ea5b52,627c705e10af4547ceae7ee9,2022-05-12_04h26.46.946,classification_task,2021.2.3,Win32,59.92329818,627c6715c52fd12f31907bd0,,,,,,,,,,,,,,,,,,,,,,,a,1,7.9965,"[""0.293"",""0.509"",""0.579"",""0.692""]","[1,1,1,0]",0,7,7,7,1,0,1,,,0,FALSE,,,,,,,,,,,,,,,,,,,,,,,,,,,,,,,
,59da7e94416c900001ea5b52,627c705e10af4547ceae7ee9,2022-05-12_04h26.46.946,classification_task,2021.2.3,Win32,59.92329818,627c6715c52fd12f31907bd0,,,,,,,,,,,,,,,,,,,,,,,a,1,5.6306,"[""0.189"",""0.795"",""0.868"",""0.920""]","[1,0,1,1]",0,8,8,8,1,0,0,,,0,FALSE,,,,,,,,,,,,,,,,,,,,,,,,,,,,,,,
,59da7e94416c900001ea5b52,627c705e10af4547ceae7ee9,2022-05-12_04h26.46.946,classification_task,2021.2.3,Win32,59.92329818,627c6715c52fd12f31907bd0,,,,,,,,,,,,,,,,,,,,,,,l,1,4.9642,"[""0.145"",""0.357"",""0.638"",""0.062""]","[1,1,1,0]",0,9,9,9,1,1,1,,,0,FALSE,,,,,,,,,,,,,,,,,,,,,,,,,,,,,,,
,59da7e94416c900001ea5b52,627c705e10af4547ceae7ee9,2022-05-12_04h26.46.946,classification_task,2021.2.3,Win32,59.92329818,627c6715c52fd12f31907bd0,,,,,,,,,,,,,,,,,,,,,,,a,1,5.2978,"[""0.293"",""0.062"",""0.579"",""0.970""]","[1,0,1,1]",0,10,10,10,1,0,1,,,0,FALSE,,,,,,,,,,,,,,,,,,,,,,,,,,,,,,,
,59da7e94416c900001ea5b52,627c705e10af4547ceae7ee9,2022-05-12_04h26.46.946,classification_task,2021.2.3,Win32,59.92329818,627c6715c52fd12f31907bd0,,,,,,,,,,,,,,,,,,,,,,,a,1,6.3804,"[""0.690"",""0.545"",""0.868"",""0.920""]","[0,1,1,1]",0,11,11,11,1,0,0,,,0,FALSE,,,,,,,,,,,,,,,,,,,,,,,,,,,,,,,
,59da7e94416c900001ea5b52,627c705e10af4547ceae7ee9,2022-05-12_04h26.46.946,classification_task,2021.2.3,Win32,59.92329818,627c6715c52fd12f31907bd0,,,,,,,,,,,,,,,,,,,,,,,l,1,8.5309,"[""0.690"",""0.242"",""0.440"",""0.746""]","[0,1,1,1]",0,12,12,12,1,1,0,,,0,FALSE,,,,,,,,,,,,,,,,,,,,,,,,,,,,,,,
,59da7e94416c900001ea5b52,627c705e10af4547ceae7ee9,2022-05-12_04h26.46.946,classification_task,2021.2.3,Win32,59.92329818,627c6715c52fd12f31907bd0,,,,,,,,,,,,,,,,,,,,,,,l,1,4.3318,"[""0.110"",""0.795"",""0.440"",""0.746""]","[1,0,1,1]",0,13,13,13,1,1,0,,,0,FALSE,,,,,,,,,,,,,,,,,,,,,,,,,,,,,,,
,59da7e94416c900001ea5b52,627c705e10af4547ceae7ee9,2022-05-12_04h26.46.946,classification_task,2021.2.3,Win32,59.92329818,627c6715c52fd12f31907bd0,,,,,,,,,,,,,,,,,,,,,,,a,1,6.8138,"[""0.189"",""0.545"",""0.062"",""0.920""]","[1,1,0,1]",0,14,14,14,1,0,0,,,0,FALSE,,,,,,,,,,,,,,,,,,,,,,,,,,,,,,,
,59da7e94416c900001ea5b52,627c705e10af4547ceae7ee9,2022-05-12_04h26.46.946,classification_task,2021.2.3,Win32,59.92329818,627c6715c52fd12f31907bd0,,,,,,,,,,,,,,,,,,,,,,,l,1,4.1987,"[""0.110"",""0.242"",""0.795"",""0.746""]","[1,1,0,1]",0,15,15,15,1,1,0,,,0,FALSE,,,,,,,,,,,,,,,,,,,,,,,,,,,,,,,
,59da7e94416c900001ea5b52,627c705e10af4547ceae7ee9,2022-05-12_04h26.46.946,classification_task,2021.2.3,Win32,59.92329818,627c6715c52fd12f31907bd0,,,,,,,,,,,,,,,,,,,,,,,a,1,5.0145,"[""0.293"",""0.509"",""0.579"",""0.695""]","[1,1,1,0]",0,16,16,16,1,0,1,,,0,FALSE,,,,,,,,,,,,,,,,,,,,,,,,,,,,,,,
,59da7e94416c900001ea5b52,627c705e10af4547ceae7ee9,2022-05-12_04h26.46.946,classification_task,2021.2.3,Win32,59.92329818,627c6715c52fd12f31907bd0,,,,,,,,,,,,,,,,,,,,,,,a,1,6.4633,"[""0.189"",""0.545"",""0.036"",""0.920""]","[1,1,0,1]",0,17,17,17,1,0,0,,,0,FALSE,,,,,,,,,,,,,,,,,,,,,,,,,,,,,,,
,59da7e94416c900001ea5b52,627c705e10af4547ceae7ee9,2022-05-12_04h26.46.946,classification_task,2021.2.3,Win32,59.92329818,627c6715c52fd12f31907bd0,,,,,,,,,,,,,,,,,,,,,,,a,1,3.6485,"[""0.293"",""0.711"",""0.579"",""0.970""]","[1,0,1,1]",0,18,18,18,1,0,1,,,0,FALSE,,,,,,,,,,,,,,,,,,,,,,,,,,,,,,,
,59da7e94416c900001ea5b52,627c705e10af4547ceae7ee9,2022-05-12_04h26.46.946,classification_task,2021.2.3,Win32,59.92329818,627c6715c52fd12f31907bd0,,,,,,,,,,,,,,,,,,,,,,,l,1,3.3491,"[""0.145"",""0.357"",""0.638"",""0.474""]","[1,1,1,0]",0,19,19,19,1,1,1,,,0,FALSE,,,,,,,,,,,,,,,,,,,,,,,,,,,,,,,
,59da7e94416c900001ea5b52,627c705e10af4547ceae7ee9,2022-05-12_04h26.46.946,classification_task,2021.2.3,Win32,59.92329818,627c6715c52fd12f31907bd0,,,,,,,,,,,,,,,,,,,,,,,l,1,4.1821,"[""0.069"",""0.357"",""0.638"",""0.830""]","[0,1,1,1]",0,20,20,20,1,1,1,,,0,FALSE,,,,,,,,,,,,,,,,,,,,,,,,,,,,,,,
,59da7e94416c900001ea5b52,627c705e10af4547ceae7ee9,2022-05-12_04h26.46.946,classification_task,2021.2.3,Win32,59.92329818,627c6715c52fd12f31907bd0,,,,,,,,,,,,,,,,,,,,,,,l,1,3.7312,"[""0.393"",""0.242"",""0.440"",""0.746""]","[0,1,1,1]",0,21,21,21,1,1,0,,,0,FALSE,,,,,,,,,,,,,,,,,,,,,,,,,,,,,,,
,59da7e94416c900001ea5b52,627c705e10af4547ceae7ee9,2022-05-12_04h26.46.946,classification_task,2021.2.3,Win32,59.92329818,627c6715c52fd12f31907bd0,,,,,,,,,,,,,,,,,,,,,,,a,1,7.8472,"[""0.036"",""0.545"",""0.868"",""0.920""]","[0,1,1,1]",0,22,22,22,1,0,0,,,0,FALSE,,,,,,,,,,,,,,,,,,,,,,,,,,,,,,,
,59da7e94416c900001ea5b52,627c705e10af4547ceae7ee9,2022-05-12_04h26.46.946,classification_task,2021.2.3,Win32,59.92329818,627c6715c52fd12f31907bd0,,,,,,,,,,,,,,,,,,,,,,,a,1,4.3487,"[""0.189"",""0.545"",""0.868"",""0.690""]","[1,1,1,0]",0,23,23,23,1,0,0,,,0,FALSE,,,,,,,,,,,,,,,,,,,,,,,,,,,,,,,
,59da7e94416c900001ea5b52,627c705e10af4547ceae7ee9,2022-05-12_04h26.46.946,classification_task,2021.2.3,Win32,59.92329818,627c6715c52fd12f31907bd0,,,,,,,,,,,,,,,,,,,,,,,a,1,5.2975,"[""0.795"",""0.509"",""0.579"",""0.970""]","[0,1,1,1]",0,24,24,24,1,0,1,,,0,FALSE,,,,,,,,,,,,,,,,,,,,,,,,,,,,,,,
,59da7e94416c900001ea5b52,627c705e10af4547ceae7ee9,2022-05-12_04h26.46.946,classification_task,2021.2.3,Win32,59.92329818,627c6715c52fd12f31907bd0,,,,,,,,,,,,,,,,,,,,,,,a,1,2.4475,"[""0.189"",""0.677"",""0.868"",""0.920""]","[1,0,1,1]",0,25,25,25,1,0,0,,,0,FALSE,,,,,,,,,,,,,,,,,,,,,,,,,,,,,,,
,59da7e94416c900001ea5b52,627c705e10af4547ceae7ee9,2022-05-12_04h26.46.946,classification_task,2021.2.3,Win32,59.92329818,627c6715c52fd12f31907bd0,,,,,,,,,,,,,,,,,,,,,,,l,1,4.081,"[""0.110"",""0.062"",""0.440"",""0.746""]","[1,0,1,1]",0,26,26,26,1,1,0,,,0,FALSE,,,,,,,,,,,,,,,,,,,,,,,,,,,,,,,
,59da7e94416c900001ea5b52,627c705e10af4547ceae7ee9,2022-05-12_04h26.46.946,classification_task,2021.2.3,Win32,59.92329818,627c6715c52fd12f31907bd0,,,,,,,,,,,,,,,,,,,,,,,a,1,4.5805,"[""0.293"",""0.509"",""0.069"",""0.970""]","[1,1,0,1]",0,27,27,27,1,0,1,,,0,FALSE,,,,,,,,,,,,,,,,,,,,,,,,,,,,,,,
,59da7e94416c900001ea5b52,627c705e10af4547ceae7ee9,2022-05-12_04h26.46.946,classification_task,2021.2.3,Win32,59.92329818,627c6715c52fd12f31907bd0,,,,,,,,,,,,,,,,,,,,,,,l,1,2.9981,"[""0.110"",""0.242"",""0.440"",""0.027""]","[1,1,1,0]",0,28,28,28,1,1,0,,,0,FALSE,,,,,,,,,,,,,,,,,,,,,,,,,,,,,,,
,59da7e94416c900001ea5b52,627c705e10af4547ceae7ee9,2022-05-12_04h26.46.946,classification_task,2021.2.3,Win32,59.92329818,627c6715c52fd12f31907bd0,,,,,,,,,,,,,,,,,,,,,,,l,1,3.5971,"[""0.145"",""0.711"",""0.638"",""0.830""]","[1,0,1,1]",0,29,29,29,1,1,1,,,0,FALSE,,,,,,,,,,,,,,,,,,,,,,,,,,,,,,,
,59da7e94416c900001ea5b52,627c705e10af4547ceae7ee9,2022-05-12_04h26.46.946,classification_task,2021.2.3,Win32,59.92329818,627c6715c52fd12f31907bd0,,,,,,,,,,,,,,,,,,,,,,,l,1,4.0316,"[""0.110"",""0.242"",""0.795"",""0.746""]","[1,1,0,1]",0,30,30,30,1,1,0,,,0,FALSE,,,,,,,,,,,,,,,,,,,,,,,,,,,,,,,
,59da7e94416c900001ea5b52,627c705e10af4547ceae7ee9,2022-05-12_04h26.46.946,classification_task,2021.2.3,Win32,59.92329818,627c6715c52fd12f31907bd0,,,,,,,,,,,,,,,,,,,,,,,l,1,3.5646,"[""0.145"",""0.357"",""0.393"",""0.830""]","[1,1,0,1]",0,31,31,31,1,1,1,,,0,FALSE,,,,,,,,,,,,,,,,,,,,,,,,,,,,,,,
,59da7e94416c900001ea5b52,627c705e10af4547ceae7ee9,2022-05-12_04h26.46.946,classification_task,2021.2.3,Win32,59.92329818,627c6715c52fd12f31907bd0,,,,,,,,,,,,,,,,,,,,,,,l,1,4.448,"[""0.145"",""0.393"",""0.638"",""0.830""]","[1,0,1,1]",0,32,32,32,1,1,1,,,0,FALSE,,,,,,,,,,,,,,,,,,,,,,,,,,,,,,,
,59da7e94416c900001ea5b52,627c705e10af4547ceae7ee9,2022-05-12_04h26.46.946,classification_task,2021.2.3,Win32,59.92329818,627c6715c52fd12f31907bd0,,,,,,,,,,,,,,,,,,,,,,,l,0,5.5149,"[""0.293"",""0.509"",""0.474"",""0.970""]","[1,1,0,1]",0,33,33,33,1,0,1,,,0,FALSE,,,,,,,,,,,,,,,,,,,,,,,,,,,,,,,
,59da7e94416c900001ea5b52,627c705e10af4547ceae7ee9,2022-05-12_04h26.46.946,classification_task,2021.2.3,Win32,59.92329818,627c6715c52fd12f31907bd0,,,,,,,,,,,,,,,,,,,,,,,l,1,2.2994,"[""0.695"",""0.357"",""0.638"",""0.830""]","[0,1,1,1]",0,34,34,34,1,1,1,,,0,FALSE,,,,,,,,,,,,,,,,,,,,,,,,,,,,,,,
,59da7e94416c900001ea5b52,627c705e10af4547ceae7ee9,2022-05-12_04h26.46.946,classification_task,2021.2.3,Win32,59.92329818,627c6715c52fd12f31907bd0,,,,,,,,,,,,,,,,,,,,,,,a,1,1.6995,"[""0.189"",""0.545"",""0.393"",""0.920""]","[1,1,0,1]",0,35,35,35,1,0,0,,,0,FALSE,,,,,,,,,,,,,,,,,,,,,,,,,,,,,,,
,59da7e94416c900001ea5b52,627c705e10af4547ceae7ee9,2022-05-12_04h26.46.946,classification_task,2021.2.3,Win32,59.92329818,627c6715c52fd12f31907bd0,,,,,,,,,,,,,,,,,,,,,,,l,1,1.8831,"[""0.110"",""0.242"",""0.474"",""0.746""]","[1,1,0,1]",0,36,36,36,1,1,0,,,0,FALSE,,,,,,,,,,,,,,,,,,,,,,,,,,,,,,,
,59da7e94416c900001ea5b52,627c705e10af4547ceae7ee9,2022-05-12_04h26.46.946,classification_task,2021.2.3,Win32,59.92329818,627c6715c52fd12f31907bd0,,,,,,,,,,,,,,,,,,,,,,,a,1,3.2648,"[""0.189"",""0.036"",""0.868"",""0.920""]","[1,0,1,1]",0,37,37,37,1,0,0,,,0,FALSE,,,,,,,,,,,,,,,,,,,,,,,,,,,,,,,
,59da7e94416c900001ea5b52,627c705e10af4547ceae7ee9,2022-05-12_04h26.46.946,classification_task,2021.2.3,Win32,59.92329818,627c6715c52fd12f31907bd0,,,,,,,,,,,,,,,,,,,,,,,a,0,1.9157,"[""0.713"",""0.242"",""0.440"",""0.746""]","[0,1,1,1]",0,38,38,38,1,1,0,,,0,FALSE,,,,,,,,,,,,,,,,,,,,,,,,,,,,,,,
,59da7e94416c900001ea5b52,627c705e10af4547ceae7ee9,2022-05-12_04h26.46.946,classification_task,2021.2.3,Win32,59.92329818,627c6715c52fd12f31907bd0,,,,,,,,,,,,,,,,,,,,,,,l,0,2.3445,"[""0.027"",""0.545"",""0.868"",""0.920""]","[0,1,1,1]",0,39,39,39,1,0,0,,,0,FALSE,,,,,,,,,,,,,,,,,,,,,,,,,,,,,,,
,59da7e94416c900001ea5b52,627c705e10af4547ceae7ee9,2022-05-12_04h26.46.946,classification_task,2021.2.3,Win32,59.92329818,627c6715c52fd12f31907bd0,,,,,,,,,,,,,,,,,,,,,,,l,1,2.5489,"[""0.110"",""0.242"",""0.440"",""0.474""]","[1,1,1,0]",0,40,40,40,1,1,0,,,0,FALSE,,,,,,,,,,,,,,,,,,,,,,,,,,,,,,,
,59da7e94416c900001ea5b52,627c705e10af4547ceae7ee9,2022-05-12_04h26.46.946,classification_task,2021.2.3,Win32,59.92329818,627c6715c52fd12f31907bd0,,,,,,,,,,,,,,,,,,,,,,,a,1,1.9829,"[""0.293"",""0.393"",""0.579"",""0.970""]","[1,0,1,1]",0,41,41,41,1,0,1,,,0,FALSE,,,,,,,,,,,,,,,,,,,,,,,,,,,,,,,
,59da7e94416c900001ea5b52,627c705e10af4547ceae7ee9,2022-05-12_04h26.46.946,classification_task,2021.2.3,Win32,59.92329818,627c6715c52fd12f31907bd0,,,,,,,,,,,,,,,,,,,,,,,l,0,3.3487,"[""0.293"",""0.509"",""0.579"",""0.069""]","[1,1,1,0]",0,42,42,42,1,0,1,,,0,FALSE,,,,,,,,,,,,,,,,,,,,,,,,,,,,,,,
,59da7e94416c900001ea5b52,627c705e10af4547ceae7ee9,2022-05-12_04h26.46.946,classification_task,2021.2.3,Win32,59.92329818,627c6715c52fd12f31907bd0,,,,,,,,,,,,,,,,,,,,,,,a,0,1.3997,"[""0.145"",""0.357"",""0.638"",""0.711""]","[1,1,1,0]",0,43,43,43,1,1,1,,,0,FALSE,,,,,,,,,,,,,,,,,,,,,,,,,,,,,,,
,59da7e94416c900001ea5b52,627c705e10af4547ceae7ee9,2022-05-12_04h26.46.946,classification_task,2021.2.3,Win32,59.92329818,627c6715c52fd12f31907bd0,,,,,,,,,,,,,,,,,,,,,,,l,0,1.817,"[""0.692"",""0.509"",""0.579"",""0.970""]","[0,1,1,1]",0,44,44,44,1,0,1,,,0,FALSE,,,,,,,,,,,,,,,,,,,,,,,,,,,,,,,
,59da7e94416c900001ea5b52,627c705e10af4547ceae7ee9,2022-05-12_04h26.46.946,classification_task,2021.2.3,Win32,59.92329818,627c6715c52fd12f31907bd0,,,,,,,,,,,,,,,,,,,,,,,l,1,1.2161,"[""0.145"",""0.357"",""0.711"",""0.830""]","[1,1,0,1]",0,45,45,45,1,1,1,,,0,FALSE,,,,,,,,,,,,,,,,,,,,,,,,,,,,,,,
,59da7e94416c900001ea5b52,627c705e10af4547ceae7ee9,2022-05-12_04h26.46.946,classification_task,2021.2.3,Win32,59.92329818,627c6715c52fd12f31907bd0,,,,,,,,,,,,,,,,,,,,,,,l,1,1.85,"[""0.110"",""0.690"",""0.440"",""0.746""]","[1,0,1,1]",0,46,46,46,1,1,0,,,0,FALSE,,,,,,,,,,,,,,,,,,,,,,,,,,,,,,,
,59da7e94416c900001ea5b52,627c705e10af4547ceae7ee9,2022-05-12_04h26.46.946,classification_task,2021.2.3,Win32,59.92329818,627c6715c52fd12f31907bd0,,,,,,,,,,,,,,,,,,,,,,,a,1,3.3984,"[""0.189"",""0.545"",""0.868"",""0.393""]","[1,1,1,0]",0,47,47,47,1,0,0,,,0,FALSE,,,,,,,,,,,,,,,,,,,,,,,,,,,,,,,
,59da7e94416c900001ea5b52,627c705e10af4547ceae7ee9,2022-05-12_04h26.46.946,classification_task,2021.2.3,Win32,59.92329818,627c6715c52fd12f31907bd0,,,,,,,,,,,,,,,,,,,,,,,a,1,1.7666,"[""0.189"",""0.545"",""0.035"",""0.920""]","[1,1,0,1]",0,48,48,48,1,0,0,,,0,FALSE,,,,,,,,,,,,,,,,,,,,,,,,,,,,,,,
,59da7e94416c900001ea5b52,627c705e10af4547ceae7ee9,2022-05-12_04h26.46.946,classification_task,2021.2.3,Win32,59.92329818,627c6715c52fd12f31907bd0,,,,,,,,,,,,,,,,,,,,,,,a,1,2.9994,"[""0.293"",""0.035"",""0.579"",""0.970""]","[1,0,1,1]",0,49,49,49,1,0,1,,,0,FALSE,,,,,,,,,,,,,,,,,,,,,,,,,,,,,,,
,59da7e94416c900001ea5b52,627c705e10af4547ceae7ee9,2022-05-12_04h26.46.946,classification_task,2021.2.3,Win32,59.92329818,627c6715c52fd12f31907bd0,,,,,,,,,,,,,,,,,,,,,,,a,1,2.5655,"[""0.293"",""0.509"",""0.677"",""0.970""]","[1,1,0,1]",0,50,50,50,1,0,1,,,0,FALSE,,,,,,,,,,,,,,,,,,,,,,,,,,,,,,,
,59da7e94416c900001ea5b52,627c705e10af4547ceae7ee9,2022-05-12_04h26.46.946,classification_task,2021.2.3,Win32,59.92329818,627c6715c52fd12f31907bd0,,,,,,,,,,,,,,,,,,,,,,,l,0,2.0168,"[""0.677"",""0.545"",""0.868"",""0.920""]","[0,1,1,1]",0,51,51,51,1,0,0,,,0,FALSE,,,,,,,,,,,,,,,,,,,,,,,,,,,,,,,
,59da7e94416c900001ea5b52,627c705e10af4547ceae7ee9,2022-05-12_04h26.46.946,classification_task,2021.2.3,Win32,59.92329818,627c6715c52fd12f31907bd0,,,,,,,,,,,,,,,,,,,,,,,l,0,1.5491,"[""0.690"",""0.509"",""0.579"",""0.970""]","[0,1,1,1]",0,52,52,52,1,0,1,,,0,FALSE,,,,,,,,,,,,,,,,,,,,,,,,,,,,,,,
,59da7e94416c900001ea5b52,627c705e10af4547ceae7ee9,2022-05-12_04h26.46.946,classification_task,2021.2.3,Win32,59.92329818,627c6715c52fd12f31907bd0,,,,,,,,,,,,,,,,,,,,,,,l,1,1.8499,"[""0.110"",""0.242"",""0.713"",""0.746""]","[1,1,0,1]",0,53,53,53,1,1,0,,,0,FALSE,,,,,,,,,,,,,,,,,,,,,,,,,,,,,,,
,59da7e94416c900001ea5b52,627c705e10af4547ceae7ee9,2022-05-12_04h26.46.946,classification_task,2021.2.3,Win32,59.92329818,627c6715c52fd12f31907bd0,,,,,,,,,,,,,,,,,,,,,,,a,0,2.3981,"[""0.145"",""0.711"",""0.638"",""0.830""]","[1,0,1,1]",0,54,54,54,1,1,1,,,0,FALSE,,,,,,,,,,,,,,,,,,,,,,,,,,,,,,,
,59da7e94416c900001ea5b52,627c705e10af4547ceae7ee9,2022-05-12_04h26.46.946,classification_task,2021.2.3,Win32,59.92329818,627c6715c52fd12f31907bd0,,,,,,,,,,,,,,,,,,,,,,,a,0,1.3331,"[""0.145"",""0.357"",""0.474"",""0.830""]","[1,1,0,1]",0,55,55,55,1,1,1,,,0,FALSE,,,,,,,,,,,,,,,,,,,,,,,,,,,,,,,
,59da7e94416c900001ea5b52,627c705e10af4547ceae7ee9,2022-05-12_04h26.46.946,classification_task,2021.2.3,Win32,59.92329818,627c6715c52fd12f31907bd0,,,,,,,,,,,,,,,,,,,,,,,l,0,3.9984,"[""0.189"",""0.393"",""0.868"",""0.920""]","[1,0,1,1]",0,56,56,56,1,0,0,,,0,FALSE,,,,,,,,,,,,,,,,,,,,,,,,,,,,,,,
,59da7e94416c900001ea5b52,627c705e10af4547ceae7ee9,2022-05-12_04h26.46.946,classification_task,2021.2.3,Win32,59.92329818,627c6715c52fd12f31907bd0,,,,,,,,,,,,,,,,,,,,,,,l,1,1.7332,"[""0.110"",""0.690"",""0.440"",""0.746""]","[1,0,1,1]",0,57,57,57,1,1,0,,,0,FALSE,,,,,,,,,,,,,,,,,,,,,,,,,,,,,,,
,59da7e94416c900001ea5b52,627c705e10af4547ceae7ee9,2022-05-12_04h26.46.946,classification_task,2021.2.3,Win32,59.92329818,627c6715c52fd12f31907bd0,,,,,,,,,,,,,,,,,,,,,,,l,1,1.6153,"[""0.711"",""0.357"",""0.638"",""0.830""]","[0,1,1,1]",0,58,58,58,1,1,1,,,0,FALSE,,,,,,,,,,,,,,,,,,,,,,,,,,,,,,,
,59da7e94416c900001ea5b52,627c705e10af4547ceae7ee9,2022-05-12_04h26.46.946,classification_task,2021.2.3,Win32,59.92329818,627c6715c52fd12f31907bd0,,,,,,,,,,,,,,,,,,,,,,,a,0,1.3498,"[""0.145"",""0.357"",""0.638"",""0.069""]","[1,1,1,0]",0,59,59,59,1,1,1,,,0,FALSE,,,,,,,,,,,,,,,,,,,,,,,,,,,,,,,
,59da7e94416c900001ea5b52,627c705e10af4547ceae7ee9,2022-05-12_04h26.46.946,classification_task,2021.2.3,Win32,59.92329818,627c6715c52fd12f31907bd0,,,,,,,,,,,,,,,,,,,,,,,l,1,2.1656,"[""0.035"",""0.242"",""0.440"",""0.746""]","[0,1,1,1]",0,60,60,60,1,1,0,,,0,FALSE,,,,,,,,,,,,,,,,,,,,,,,,,,,,,,,
,59da7e94416c900001ea5b52,627c705e10af4547ceae7ee9,2022-05-12_04h26.46.946,classification_task,2021.2.3,Win32,59.92329818,627c6715c52fd12f31907bd0,,,,,,,,,,,,,,,,,,,,,,,l,1,1.4329,"[""0.110"",""0.242"",""0.440"",""0.027""]","[1,1,1,0]",0,61,61,61,1,1,0,,,0,FALSE,,,,,,,,,,,,,,,,,,,,,,,,,,,,,,,
,59da7e94416c900001ea5b52,627c705e10af4547ceae7ee9,2022-05-12_04h26.46.946,classification_task,2021.2.3,Win32,59.92329818,627c6715c52fd12f31907bd0,,,,,,,,,,,,,,,,,,,,,,,a,1,2.6489,"[""0.293"",""0.509"",""0.579"",""0.027""]","[1,1,1,0]",0,62,62,62,1,0,1,,,0,FALSE,,,,,,,,,,,,,,,,,,,,,,,,,,,,,,,
,59da7e94416c900001ea5b52,627c705e10af4547ceae7ee9,2022-05-12_04h26.46.946,classification_task,2021.2.3,Win32,59.92329818,627c6715c52fd12f31907bd0,,,,,,,,,,,,,,,,,,,,,,,a,1,1.7661,"[""0.189"",""0.545"",""0.868"",""0.062""]","[1,1,1,0]",0,63,63,63,1,0,0,,,0,FALSE,,,,,,,,,,,,,,,,,,,,,,,,,,,,,,,
,59da7e94416c900001ea5b52,627c705e10af4547ceae7ee9,2022-05-12_04h26.46.946,classification_task,2021.2.3,Win32,59.92329818,627c6715c52fd12f31907bd0,,,,,,,,,,,,,,,,,,,,,,,,,,,,,,,,,,,,,,,0, ,,0,3.530276308,1205.4625,0,0,0,0,1,2,1,,,,,,,,,,,,,,,,,,
,59da7e94416c900001ea5b52,627c705e10af4547ceae7ee9,2022-05-12_04h26.46.946,classification_task,2021.2.3,Win32,59.92329818,627c6715c52fd12f31907bd0,,,,,,,,,,,,,,,,,,,,,,,,,,,,,,,,,,,,,,,1,  ,,0,8.551833003,1174.3717,0,0,0,0,1,2,1,,,,,,,,,,,,,,,,,,
,59da7e94416c900001ea5b52,627c705e10af4547ceae7ee9,2022-05-12_04h26.46.946,classification_task,2021.2.3,Win32,59.92329818,627c6715c52fd12f31907bd0,,,,,,,,,,,,,,,,,,,,,,,,,,,,,,,,,,,,,,,2,  ,,0,4.877523773,1183.9095,0,0,0,0,1,2,1,,,,,,,,,,,,,,,,,,
,59da7e94416c900001ea5b52,627c705e10af4547ceae7ee9,2022-05-12_04h26.46.946,classification_task,2021.2.3,Win32,59.92329818,627c6715c52fd12f31907bd0,,,,,,,,,,,,,,,,,,,,,,,,,,,,,,,,,,,,,,,,,,,,,0,0,0,0,1,,1,,,,,,,,,,,,,,,,,,
,59da7e94416c900001ea5b52,627c705e10af4547ceae7ee9,2022-05-12_04h26.46.946,classification_task,2021.2.3,Win32,59.92329818,627c6715c52fd12f31907bd0,,,,,,,,,,,,,,,,,,,,,space,44.2886,,0,,"[""0.110"",""0.711"",""0.440"",""0.746""]","[1,0,1,1]",0,0,0,0,1,1,0,,,0,FALSE,,,,,,,,,,,,,,,,,,,,,,,,,,,,,,,
,59da7e94416c900001ea5b52,627c705e10af4547ceae7ee9,2022-05-12_04h26.46.946,classification_task,2021.2.3,Win32,59.92329818,627c6715c52fd12f31907bd0,,,,,,,,,,,,,,,,,,,,,,,a,1,1.983,"[""0.189"",""0.545"",""0.868"",""0.711""]","[1,1,1,0]",0,1,1,1,1,0,0,,,0,FALSE,,,,,,,,,,,,,,,,,,,,,,,,,,,,,,,
,59da7e94416c900001ea5b52,627c705e10af4547ceae7ee9,2022-05-12_04h26.46.946,classification_task,2021.2.3,Win32,59.92329818,627c6715c52fd12f31907bd0,,,,,,,,,,,,,,,,,,,,,,,l,1,3.6801,"[""0.145"",""0.357"",""0.638"",""0.393""]","[1,1,1,0]",0,2,2,2,1,1,1,,,0,FALSE,,,,,,,,,,,,,,,,,,,,,,,,,,,,,,,
,59da7e94416c900001ea5b52,627c705e10af4547ceae7ee9,2022-05-12_04h26.46.946,classification_task,2021.2.3,Win32,59.92329818,627c6715c52fd12f31907bd0,,,,,,,,,,,,,,,,,,,,,,,a,1,3.4554,"[""0.189"",""0.027"",""0.868"",""0.920""]","[1,0,1,1]",0,3,3,3,1,0,0,,,0,FALSE,,,,,,,,,,,,,,,,,,,,,,,,,,,,,,,
,59da7e94416c900001ea5b52,627c705e10af4547ceae7ee9,2022-05-12_04h26.46.946,classification_task,2021.2.3,Win32,59.92329818,627c6715c52fd12f31907bd0,,,,,,,,,,,,,,,,,,,,,,,a,1,1.4587,"[""0.692"",""0.545"",""0.868"",""0.920""]","[0,1,1,1]",0,4,4,4,1,0,0,,,0,FALSE,,,,,,,,,,,,,,,,,,,,,,,,,,,,,,,
,59da7e94416c900001ea5b52,627c705e10af4547ceae7ee9,2022-05-12_04h26.46.946,classification_task,2021.2.3,Win32,59.92329818,627c6715c52fd12f31907bd0,,,,,,,,,,,,,,,,,,,,,,,l,1,0.8299,"[""0.110"",""0.242"",""0.440"",""0.393""]","[1,1,1,0]",0,5,5,5,1,1,0,,,0,FALSE,,,,,,,,,,,,,,,,,,,,,,,,,,,,,,,
,59da7e94416c900001ea5b52,627c705e10af4547ceae7ee9,2022-05-12_04h26.46.946,classification_task,2021.2.3,Win32,59.92329818,627c6715c52fd12f31907bd0,,,,,,,,,,,,,,,,,,,,,,,l,0,1.7288,"[""0.393"",""0.509"",""0.579"",""0.970""]","[0,1,1,1]",0,6,6,6,1,0,1,,,0,FALSE,,,,,,,,,,,,,,,,,,,,,,,,,,,,,,,
,59da7e94416c900001ea5b52,627c705e10af4547ceae7ee9,2022-05-12_04h26.46.946,classification_task,2021.2.3,Win32,59.92329818,627c6715c52fd12f31907bd0,,,,,,,,,,,,,,,,,,,,,,,a,1,1.4549,"[""0.189"",""0.545"",""0.690"",""0.920""]","[1,1,0,1]",0,7,7,7,1,0,0,,,0,FALSE,,,,,,,,,,,,,,,,,,,,,,,,,,,,,,,
,59da7e94416c900001ea5b52,627c705e10af4547ceae7ee9,2022-05-12_04h26.46.946,classification_task,2021.2.3,Win32,59.92329818,627c6715c52fd12f31907bd0,,,,,,,,,,,,,,,,,,,,,,,a,0,1.2136,"[""0.713"",""0.357"",""0.638"",""0.830""]","[0,1,1,1]",0,8,8,8,1,1,1,,,0,FALSE,,,,,,,,,,,,,,,,,,,,,,,,,,,,,,,
,59da7e94416c900001ea5b52,627c705e10af4547ceae7ee9,2022-05-12_04h26.46.946,classification_task,2021.2.3,Win32,59.92329818,627c6715c52fd12f31907bd0,,,,,,,,,,,,,,,,,,,,,,,a,0,1.4718,"[""0.145"",""0.393"",""0.638"",""0.830""]","[1,0,1,1]",0,9,9,9,1,1,1,,,0,FALSE,,,,,,,,,,,,,,,,,,,,,,,,,,,,,,,
,59da7e94416c900001ea5b52,627c705e10af4547ceae7ee9,2022-05-12_04h26.46.946,classification_task,2021.2.3,Win32,59.92329818,627c6715c52fd12f31907bd0,,,,,,,,,,,,,,,,,,,,,,,l,1,1.3294,"[""0.110"",""0.242"",""0.711"",""0.746""]","[1,1,0,1]",0,10,10,10,1,1,0,,,0,FALSE,,,,,,,,,,,,,,,,,,,,,,,,,,,,,,,
,59da7e94416c900001ea5b52,627c705e10af4547ceae7ee9,2022-05-12_04h26.46.946,classification_task,2021.2.3,Win32,59.92329818,627c6715c52fd12f31907bd0,,,,,,,,,,,,,,,,,,,,,,,a,0,1.7628,"[""0.145"",""0.357"",""0.690"",""0.830""]","[1,1,0,1]",0,11,11,11,1,1,1,,,0,FALSE,,,,,,,,,,,,,,,,,,,,,,,,,,,,,,,
,59da7e94416c900001ea5b52,627c705e10af4547ceae7ee9,2022-05-12_04h26.46.946,classification_task,2021.2.3,Win32,59.92329818,627c6715c52fd12f31907bd0,,,,,,,,,,,,,,,,,,,,,,,l,1,1.7751,"[""0.474"",""0.242"",""0.440"",""0.746""]","[0,1,1,1]",0,12,12,12,1,1,0,,,0,FALSE,,,,,,,,,,,,,,,,,,,,,,,,,,,,,,,
,59da7e94416c900001ea5b52,627c705e10af4547ceae7ee9,2022-05-12_04h26.46.946,classification_task,2021.2.3,Win32,59.92329818,627c6715c52fd12f31907bd0,,,,,,,,,,,,,,,,,,,,,,,l,0,1.4133,"[""0.293"",""0.795"",""0.579"",""0.970""]","[1,0,1,1]",0,13,13,13,1,0,1,,,0,FALSE,,,,,,,,,,,,,,,,,,,,,,,,,,,,,,,
,59da7e94416c900001ea5b52,627c705e10af4547ceae7ee9,2022-05-12_04h26.46.946,classification_task,2021.2.3,Win32,59.92329818,627c6715c52fd12f31907bd0,,,,,,,,,,,,,,,,,,,,,,,l,0,1.3197,"[""0.293"",""0.509"",""0.579"",""0.474""]","[1,1,1,0]",0,14,14,14,1,0,1,,,0,FALSE,,,,,,,,,,,,,,,,,,,,,,,,,,,,,,,
,59da7e94416c900001ea5b52,627c705e10af4547ceae7ee9,2022-05-12_04h26.46.946,classification_task,2021.2.3,Win32,59.92329818,627c6715c52fd12f31907bd0,,,,,,,,,,,,,,,,,,,,,,,l,0,0.9929,"[""0.293"",""0.509"",""0.711"",""0.970""]","[1,1,0,1]",0,15,15,15,1,0,1,,,0,FALSE,,,,,,,,,,,,,,,,,,,,,,,,,,,,,,,
,59da7e94416c900001ea5b52,627c705e10af4547ceae7ee9,2022-05-12_04h26.46.946,classification_task,2021.2.3,Win32,59.92329818,627c6715c52fd12f31907bd0,,,,,,,,,,,,,,,,,,,,,,,l,0,1.9666,"[""0.692"",""0.509"",""0.579"",""0.970""]","[0,1,1,1]",0,16,16,16,1,0,1,,,0,FALSE,,,,,,,,,,,,,,,,,,,,,,,,,,,,,,,
,59da7e94416c900001ea5b52,627c705e10af4547ceae7ee9,2022-05-12_04h26.46.946,classification_task,2021.2.3,Win32,59.92329818,627c6715c52fd12f31907bd0,,,,,,,,,,,,,,,,,,,,,,,a,1,1.4833,"[""0.293"",""0.509"",""0.579"",""0.393""]","[1,1,1,0]",0,17,17,17,1,0,1,,,0,FALSE,,,,,,,,,,,,,,,,,,,,,,,,,,,,,,,
,59da7e94416c900001ea5b52,627c705e10af4547ceae7ee9,2022-05-12_04h26.46.946,classification_task,2021.2.3,Win32,59.92329818,627c6715c52fd12f31907bd0,,,,,,,,,,,,,,,,,,,,,,,a,0,1.0168,"[""0.677"",""0.357"",""0.638"",""0.830""]","[0,1,1,1]",0,18,18,18,1,1,1,,,0,FALSE,,,,,,,,,,,,,,,,,,,,,,,,,,,,,,,
,59da7e94416c900001ea5b52,627c705e10af4547ceae7ee9,2022-05-12_04h26.46.946,classification_task,2021.2.3,Win32,59.92329818,627c6715c52fd12f31907bd0,,,,,,,,,,,,,,,,,,,,,,,a,1,1.1626,"[""0.474"",""0.545"",""0.868"",""0.920""]","[0,1,1,1]",0,19,19,19,1,0,0,,,0,FALSE,,,,,,,,,,,,,,,,,,,,,,,,,,,,,,,
,59da7e94416c900001ea5b52,627c705e10af4547ceae7ee9,2022-05-12_04h26.46.946,classification_task,2021.2.3,Win32,59.92329818,627c6715c52fd12f31907bd0,,,,,,,,,,,,,,,,,,,,,,,a,1,0.9333,"[""0.189"",""0.062"",""0.868"",""0.920""]","[1,0,1,1]",0,20,20,20,1,0,0,,,0,FALSE,,,,,,,,,,,,,,,,,,,,,,,,,,,,,,,
,59da7e94416c900001ea5b52,627c705e10af4547ceae7ee9,2022-05-12_04h26.46.946,classification_task,2021.2.3,Win32,59.92329818,627c6715c52fd12f31907bd0,,,,,,,,,,,,,,,,,,,,,,,l,1,1.6855,"[""0.110"",""0.062"",""0.440"",""0.746""]","[1,0,1,1]",0,21,21,21,1,1,0,,,0,FALSE,,,,,,,,,,,,,,,,,,,,,,,,,,,,,,,
,59da7e94416c900001ea5b52,627c705e10af4547ceae7ee9,2022-05-12_04h26.46.946,classification_task,2021.2.3,Win32,59.92329818,627c6715c52fd12f31907bd0,,,,,,,,,,,,,,,,,,,,,,,l,1,0.5132,"[""0.110"",""0.242"",""0.440"",""0.027""]","[1,1,1,0]",0,22,22,22,1,1,0,,,0,FALSE,,,,,,,,,,,,,,,,,,,,,,,,,,,,,,,
,59da7e94416c900001ea5b52,627c705e10af4547ceae7ee9,2022-05-12_04h26.46.946,classification_task,2021.2.3,Win32,59.92329818,627c6715c52fd12f31907bd0,,,,,,,,,,,,,,,,,,,,,,,a,0,2.2162,"[""0.145"",""0.357"",""0.711"",""0.830""]","[1,1,0,1]",0,23,23,23,1,1,1,,,0,FALSE,,,,,,,,,,,,,,,,,,,,,,,,,,,,,,,
,59da7e94416c900001ea5b52,627c705e10af4547ceae7ee9,2022-05-12_04h26.46.946,classification_task,2021.2.3,Win32,59.92329818,627c6715c52fd12f31907bd0,,,,,,,,,,,,,,,,,,,,,,,l,1,1.6253,"[""0.145"",""0.711"",""0.638"",""0.830""]","[1,0,1,1]",0,24,24,24,1,1,1,,,0,FALSE,,,,,,,,,,,,,,,,,,,,,,,,,,,,,,,
,59da7e94416c900001ea5b52,627c705e10af4547ceae7ee9,2022-05-12_04h26.46.946,classification_task,2021.2.3,Win32,59.92329818,627c6715c52fd12f31907bd0,,,,,,,,,,,,,,,,,,,,,,,l,1,3.0783,"[""0.474"",""0.242"",""0.440"",""0.746""]","[0,1,1,1]",0,25,25,25,1,1,0,,,0,FALSE,,,,,,,,,,,,,,,,,,,,,,,,,,,,,,,
,59da7e94416c900001ea5b52,627c705e10af4547ceae7ee9,2022-05-12_04h26.46.946,classification_task,2021.2.3,Win32,59.92329818,627c6715c52fd12f31907bd0,,,,,,,,,,,,,,,,,,,,,,,l,0,1.4916,"[""0.293"",""0.069"",""0.579"",""0.970""]","[1,0,1,1]",0,26,26,26,1,0,1,,,0,FALSE,,,,,,,,,,,,,,,,,,,,,,,,,,,,,,,
,59da7e94416c900001ea5b52,627c705e10af4547ceae7ee9,2022-05-12_04h26.46.946,classification_task,2021.2.3,Win32,59.92329818,627c6715c52fd12f31907bd0,,,,,,,,,,,,,,,,,,,,,,,a,0,0.7265,"[""0.145"",""0.357"",""0.638"",""0.695""]","[1,1,1,0]",0,27,27,27,1,1,1,,,0,FALSE,,,,,,,,,,,,,,,,,,,,,,,,,,,,,,,
,59da7e94416c900001ea5b52,627c705e10af4547ceae7ee9,2022-05-12_04h26.46.946,classification_task,2021.2.3,Win32,59.92329818,627c6715c52fd12f31907bd0,,,,,,,,,,,,,,,,,,,,,,,a,1,0.931,"[""0.189"",""0.545"",""0.036"",""0.920""]","[1,1,0,1]",0,28,28,28,1,0,0,,,0,FALSE,,,,,,,,,,,,,,,,,,,,,,,,,,,,,,,
,59da7e94416c900001ea5b52,627c705e10af4547ceae7ee9,2022-05-12_04h26.46.946,classification_task,2021.2.3,Win32,59.92329818,627c6715c52fd12f31907bd0,,,,,,,,,,,,,,,,,,,,,,,l,1,1.5667,"[""0.110"",""0.242"",""0.035"",""0.746""]","[1,1,0,1]",0,29,29,29,1,1,0,,,0,FALSE,,,,,,,,,,,,,,,,,,,,,,,,,,,,,,,
,59da7e94416c900001ea5b52,627c705e10af4547ceae7ee9,2022-05-12_04h26.46.946,classification_task,2021.2.3,Win32,59.92329818,627c6715c52fd12f31907bd0,,,,,,,,,,,,,,,,,,,,,,,l,0,1.03,"[""0.293"",""0.509"",""0.711"",""0.970""]","[1,1,0,1]",0,30,30,30,1,0,1,,,0,FALSE,,,,,,,,,,,,,,,,,,,,,,,,,,,,,,,
,59da7e94416c900001ea5b52,627c705e10af4547ceae7ee9,2022-05-12_04h26.46.946,classification_task,2021.2.3,Win32,59.92329818,627c6715c52fd12f31907bd0,,,,,,,,,,,,,,,,,,,,,,,a,1,0.7299,"[""0.189"",""0.545"",""0.868"",""0.474""]","[1,1,1,0]",0,31,31,31,1,0,0,,,0,FALSE,,,,,,,,,,,,,,,,,,,,,,,,,,,,,,,
,59da7e94416c900001ea5b52,627c705e10af4547ceae7ee9,2022-05-12_04h26.46.946,classification_task,2021.2.3,Win32,59.92329818,627c6715c52fd12f31907bd0,,,,,,,,,,,,,,,,,,,,,,,a,1,1.0169,"[""0.189"",""0.035"",""0.868"",""0.920""]","[1,0,1,1]",0,32,32,32,1,0,0,,,0,FALSE,,,,,,,,,,,,,,,,,,,,,,,,,,,,,,,
,59da7e94416c900001ea5b52,627c705e10af4547ceae7ee9,2022-05-12_04h26.46.946,classification_task,2021.2.3,Win32,59.92329818,627c6715c52fd12f31907bd0,,,,,,,,,,,,,,,,,,,,,,,a,1,1.129,"[""0.393"",""0.509"",""0.579"",""0.970""]","[0,1,1,1]",0,33,33,33,1,0,1,,,0,FALSE,,,,,,,,,,,,,,,,,,,,,,,,,,,,,,,
,59da7e94416c900001ea5b52,627c705e10af4547ceae7ee9,2022-05-12_04h26.46.946,classification_task,2021.2.3,Win32,59.92329818,627c6715c52fd12f31907bd0,,,,,,,,,,,,,,,,,,,,,,,a,1,0.8501,"[""0.293"",""0.711"",""0.579"",""0.970""]","[1,0,1,1]",0,34,34,34,1,0,1,,,0,FALSE,,,,,,,,,,,,,,,,,,,,,,,,,,,,,,,
,59da7e94416c900001ea5b52,627c705e10af4547ceae7ee9,2022-05-12_04h26.46.946,classification_task,2021.2.3,Win32,59.92329818,627c6715c52fd12f31907bd0,,,,,,,,,,,,,,,,,,,,,,,a,0,0.6555,"[""0.145"",""0.357"",""0.692"",""0.830""]","[1,1,0,1]",0,35,35,35,1,1,1,,,0,FALSE,,,,,,,,,,,,,,,,,,,,,,,,,,,,,,,
,59da7e94416c900001ea5b52,627c705e10af4547ceae7ee9,2022-05-12_04h26.46.946,classification_task,2021.2.3,Win32,59.92329818,627c6715c52fd12f31907bd0,,,,,,,,,,,,,,,,,,,,,,,l,1,1.1308,"[""0.110"",""0.242"",""0.713"",""0.746""]","[1,1,0,1]",0,36,36,36,1,1,0,,,0,FALSE,,,,,,,,,,,,,,,,,,,,,,,,,,,,,,,
,59da7e94416c900001ea5b52,627c705e10af4547ceae7ee9,2022-05-12_04h26.46.946,classification_task,2021.2.3,Win32,59.92329818,627c6715c52fd12f31907bd0,,,,,,,,,,,,,,,,,,,,,,,l,1,1.0018,"[""0.110"",""0.069"",""0.440"",""0.746""]","[1,0,1,1]",0,37,37,37,1,1,0,,,0,FALSE,,,,,,,,,,,,,,,,,,,,,,,,,,,,,,,
,59da7e94416c900001ea5b52,627c705e10af4547ceae7ee9,2022-05-12_04h26.46.946,classification_task,2021.2.3,Win32,59.92329818,627c6715c52fd12f31907bd0,,,,,,,,,,,,,,,,,,,,,,,l,1,1.1838,"[""0.110"",""0.242"",""0.440"",""0.695""]","[1,1,1,0]",0,38,38,38,1,1,0,,,0,FALSE,,,,,,,,,,,,,,,,,,,,,,,,,,,,,,,
,59da7e94416c900001ea5b52,627c705e10af4547ceae7ee9,2022-05-12_04h26.46.946,classification_task,2021.2.3,Win32,59.92329818,627c6715c52fd12f31907bd0,,,,,,,,,,,,,,,,,,,,,,,l,1,1.4341,"[""0.711"",""0.242"",""0.440"",""0.746""]","[0,1,1,1]",0,39,39,39,1,1,0,,,0,FALSE,,,,,,,,,,,,,,,,,,,,,,,,,,,,,,,
,59da7e94416c900001ea5b52,627c705e10af4547ceae7ee9,2022-05-12_04h26.46.946,classification_task,2021.2.3,Win32,59.92329818,627c6715c52fd12f31907bd0,,,,,,,,,,,,,,,,,,,,,,,l,1,1.2136,"[""0.027"",""0.357"",""0.638"",""0.830""]","[0,1,1,1]",0,40,40,40,1,1,1,,,0,FALSE,,,,,,,,,,,,,,,,,,,,,,,,,,,,,,,
,59da7e94416c900001ea5b52,627c705e10af4547ceae7ee9,2022-05-12_04h26.46.946,classification_task,2021.2.3,Win32,59.92329818,627c6715c52fd12f31907bd0,,,,,,,,,,,,,,,,,,,,,,,a,1,0.7632,"[""0.189"",""0.545"",""0.062"",""0.920""]","[1,1,0,1]",0,41,41,41,1,0,0,,,0,FALSE,,,,,,,,,,,,,,,,,,,,,,,,,,,,,,,
,59da7e94416c900001ea5b52,627c705e10af4547ceae7ee9,2022-05-12_04h26.46.946,classification_task,2021.2.3,Win32,59.92329818,627c6715c52fd12f31907bd0,,,,,,,,,,,,,,,,,,,,,,,a,1,0.5705,"[""0.027"",""0.545"",""0.868"",""0.920""]","[0,1,1,1]",0,42,42,42,1,0,0,,,0,FALSE,,,,,,,,,,,,,,,,,,,,,,,,,,,,,,,
,59da7e94416c900001ea5b52,627c705e10af4547ceae7ee9,2022-05-12_04h26.46.946,classification_task,2021.2.3,Win32,59.92329818,627c6715c52fd12f31907bd0,,,,,,,,,,,,,,,,,,,,,,,a,1,1.0303,"[""0.293"",""0.509"",""0.677"",""0.970""]","[1,1,0,1]",0,43,43,43,1,0,1,,,0,FALSE,,,,,,,,,,,,,,,,,,,,,,,,,,,,,,,
,59da7e94416c900001ea5b52,627c705e10af4547ceae7ee9,2022-05-12_04h26.46.946,classification_task,2021.2.3,Win32,59.92329818,627c6715c52fd12f31907bd0,,,,,,,,,,,,,,,,,,,,,,,a,1,0.5503,"[""0.293"",""0.509"",""0.579"",""0.711""]","[1,1,1,0]",0,44,44,44,1,0,1,,,0,FALSE,,,,,,,,,,,,,,,,,,,,,,,,,,,,,,,
,59da7e94416c900001ea5b52,627c705e10af4547ceae7ee9,2022-05-12_04h26.46.946,classification_task,2021.2.3,Win32,59.92329818,627c6715c52fd12f31907bd0,,,,,,,,,,,,,,,,,,,,,,,a,0,0.5707,"[""0.145"",""0.677"",""0.638"",""0.830""]","[1,0,1,1]",0,45,45,45,1,1,1,,,0,FALSE,,,,,,,,,,,,,,,,,,,,,,,,,,,,,,,
,59da7e94416c900001ea5b52,627c705e10af4547ceae7ee9,2022-05-12_04h26.46.946,classification_task,2021.2.3,Win32,59.92329818,627c6715c52fd12f31907bd0,,,,,,,,,,,,,,,,,,,,,,,a,0,0.7003,"[""0.145"",""0.357"",""0.638"",""0.695""]","[1,1,1,0]",0,46,46,46,1,1,1,,,0,FALSE,,,,,,,,,,,,,,,,,,,,,,,,,,,,,,,
,59da7e94416c900001ea5b52,627c705e10af4547ceae7ee9,2022-05-12_04h26.46.946,classification_task,2021.2.3,Win32,59.92329818,627c6715c52fd12f31907bd0,,,,,,,,,,,,,,,,,,,,,,,a,1,1.2799,"[""0.189"",""0.545"",""0.868"",""0.062""]","[1,1,1,0]",0,47,47,47,1,0,0,,,0,FALSE,,,,,,,,,,,,,,,,,,,,,,,,,,,,,,,
,59da7e94416c900001ea5b52,627c705e10af4547ceae7ee9,2022-05-12_04h26.46.946,classification_task,2021.2.3,Win32,59.92329818,627c6715c52fd12f31907bd0,,,,,,,,,,,,,,,,,,,,,,,l,0,0.5797,"[""0.690"",""0.509"",""0.579"",""0.970""]","[0,1,1,1]",0,48,48,48,1,0,1,,,0,FALSE,,,,,,,,,,,,,,,,,,,,,,,,,,,,,,,
,59da7e94416c900001ea5b52,627c705e10af4547ceae7ee9,2022-05-12_04h26.46.946,classification_task,2021.2.3,Win32,59.92329818,627c6715c52fd12f31907bd0,,,,,,,,,,,,,,,,,,,,,,,a,1,1.3138,"[""0.189"",""0.545"",""0.868"",""0.692""]","[1,1,1,0]",0,49,49,49,1,0,0,,,0,FALSE,,,,,,,,,,,,,,,,,,,,,,,,,,,,,,,
,59da7e94416c900001ea5b52,627c705e10af4547ceae7ee9,2022-05-12_04h26.46.946,classification_task,2021.2.3,Win32,59.92329818,627c6715c52fd12f31907bd0,,,,,,,,,,,,,,,,,,,,,,,a,1,0.5841,"[""0.036"",""0.545"",""0.868"",""0.920""]","[0,1,1,1]",0,50,50,50,1,0,0,,,0,FALSE,,,,,,,,,,,,,,,,,,,,,,,,,,,,,,,
,59da7e94416c900001ea5b52,627c705e10af4547ceae7ee9,2022-05-12_04h26.46.946,classification_task,2021.2.3,Win32,59.92329818,627c6715c52fd12f31907bd0,,,,,,,,,,,,,,,,,,,,,,,a,1,0.5508,"[""0.293"",""0.692"",""0.579"",""0.970""]","[1,0,1,1]",0,51,51,51,1,0,1,,,0,FALSE,,,,,,,,,,,,,,,,,,,,,,,,,,,,,,,
,59da7e94416c900001ea5b52,627c705e10af4547ceae7ee9,2022-05-12_04h26.46.946,classification_task,2021.2.3,Win32,59.92329818,627c6715c52fd12f31907bd0,,,,,,,,,,,,,,,,,,,,,,,a,1,0.484,"[""0.189"",""0.545"",""0.692"",""0.920""]","[1,1,0,1]",0,52,52,52,1,0,0,,,0,FALSE,,,,,,,,,,,,,,,,,,,,,,,,,,,,,,,
,59da7e94416c900001ea5b52,627c705e10af4547ceae7ee9,2022-05-12_04h26.46.946,classification_task,2021.2.3,Win32,59.92329818,627c6715c52fd12f31907bd0,,,,,,,,,,,,,,,,,,,,,,,a,0,0.5308,"[""0.145"",""0.357"",""0.692"",""0.830""]","[1,1,0,1]",0,53,53,53,1,1,1,,,0,FALSE,,,,,,,,,,,,,,,,,,,,,,,,,,,,,,,
,59da7e94416c900001ea5b52,627c705e10af4547ceae7ee9,2022-05-12_04h26.46.946,classification_task,2021.2.3,Win32,59.92329818,627c6715c52fd12f31907bd0,,,,,,,,,,,,,,,,,,,,,,,a,0,0.7469,"[""0.711"",""0.242"",""0.440"",""0.746""]","[0,1,1,1]",0,54,54,54,1,1,0,,,0,FALSE,,,,,,,,,,,,,,,,,,,,,,,,,,,,,,,
,59da7e94416c900001ea5b52,627c705e10af4547ceae7ee9,2022-05-12_04h26.46.946,classification_task,2021.2.3,Win32,59.92329818,627c6715c52fd12f31907bd0,,,,,,,,,,,,,,,,,,,,,,,a,1,1.1353,"[""0.189"",""0.711"",""0.868"",""0.920""]","[1,0,1,1]",0,55,55,55,1,0,0,,,0,FALSE,,,,,,,,,,,,,,,,,,,,,,,,,,,,,,,
,59da7e94416c900001ea5b52,627c705e10af4547ceae7ee9,2022-05-12_04h26.46.946,classification_task,2021.2.3,Win32,59.92329818,627c6715c52fd12f31907bd0,,,,,,,,,,,,,,,,,,,,,,,a,0,0.7465,"[""0.145"",""0.036"",""0.638"",""0.830""]","[1,0,1,1]",0,56,56,56,1,1,1,,,0,FALSE,,,,,,,,,,,,,,,,,,,,,,,,,,,,,,,
,59da7e94416c900001ea5b52,627c705e10af4547ceae7ee9,2022-05-12_04h26.46.946,classification_task,2021.2.3,Win32,59.92329818,627c6715c52fd12f31907bd0,,,,,,,,,,,,,,,,,,,,,,,l,1,0.8966,"[""0.110"",""0.242"",""0.711"",""0.746""]","[1,1,0,1]",0,57,57,57,1,1,0,,,0,FALSE,,,,,,,,,,,,,,,,,,,,,,,,,,,,,,,
,59da7e94416c900001ea5b52,627c705e10af4547ceae7ee9,2022-05-12_04h26.46.946,classification_task,2021.2.3,Win32,59.92329818,627c6715c52fd12f31907bd0,,,,,,,,,,,,,,,,,,,,,,,l,1,0.5218,"[""0.110"",""0.242"",""0.440"",""0.677""]","[1,1,1,0]",0,58,58,58,1,1,0,,,0,FALSE,,,,,,,,,,,,,,,,,,,,,,,,,,,,,,,
,59da7e94416c900001ea5b52,627c705e10af4547ceae7ee9,2022-05-12_04h26.46.946,classification_task,2021.2.3,Win32,59.92329818,627c6715c52fd12f31907bd0,,,,,,,,,,,,,,,,,,,,,,,l,0,0.6459,"[""0.293"",""0.509"",""0.579"",""0.393""]","[1,1,1,0]",0,59,59,59,1,0,1,,,0,FALSE,,,,,,,,,,,,,,,,,,,,,,,,,,,,,,,
,59da7e94416c900001ea5b52,627c705e10af4547ceae7ee9,2022-05-12_04h26.46.946,classification_task,2021.2.3,Win32,59.92329818,627c6715c52fd12f31907bd0,,,,,,,,,,,,,,,,,,,,,,,a,0,0.8349,"[""0.145"",""0.357"",""0.638"",""0.027""]","[1,1,1,0]",0,60,60,60,1,1,1,,,0,FALSE,,,,,,,,,,,,,,,,,,,,,,,,,,,,,,,
,59da7e94416c900001ea5b52,627c705e10af4547ceae7ee9,2022-05-12_04h26.46.946,classification_task,2021.2.3,Win32,59.92329818,627c6715c52fd12f31907bd0,,,,,,,,,,,,,,,,,,,,,,,a,1,0.7652,"[""0.293"",""0.509"",""0.692"",""0.970""]","[1,1,0,1]",0,61,61,61,1,0,1,,,0,FALSE,,,,,,,,,,,,,,,,,,,,,,,,,,,,,,,
,59da7e94416c900001ea5b52,627c705e10af4547ceae7ee9,2022-05-12_04h26.46.946,classification_task,2021.2.3,Win32,59.92329818,627c6715c52fd12f31907bd0,,,,,,,,,,,,,,,,,,,,,,,a,0,0.9519,"[""0.711"",""0.357"",""0.638"",""0.830""]","[0,1,1,1]",0,62,62,62,1,1,1,,,0,FALSE,,,,,,,,,,,,,,,,,,,,,,,,,,,,,,,
,59da7e94416c900001ea5b52,627c705e10af4547ceae7ee9,2022-05-12_04h26.46.946,classification_task,2021.2.3,Win32,59.92329818,627c6715c52fd12f31907bd0,,,,,,,,,,,,,,,,,,,,,,,l,1,0.9974,"[""0.110"",""0.062"",""0.440"",""0.746""]","[1,0,1,1]",0,63,63,63,1,1,0,,,0,FALSE,,,,,,,,,,,,,,,,,,,,,,,,,,,,,,,
,59da7e94416c900001ea5b52,627c705e10af4547ceae7ee9,2022-05-12_04h26.46.946,classification_task,2021.2.3,Win32,59.92329818,627c6715c52fd12f31907bd0,,,,,,,,,,,,,,,,,,,,,,,,,,,,,,,,,,,,,,,0, ,,0,0.737801293,224.8317,0,1,1,1,1,2,2,,,,,,,,,,,,,,,,,,
,59da7e94416c900001ea5b52,627c705e10af4547ceae7ee9,2022-05-12_04h26.46.946,classification_task,2021.2.3,Win32,59.92329818,627c6715c52fd12f31907bd0,,,,,,,,,,,,,,,,,,,,,,,,,,,,,,,,,,,,,,,1,  ,,0,0.958259847,229.9383,0,1,1,1,1,2,2,,,,,,,,,,,,,,,,,,
,59da7e94416c900001ea5b52,627c705e10af4547ceae7ee9,2022-05-12_04h26.46.946,classification_task,2021.2.3,Win32,59.92329818,627c6715c52fd12f31907bd0,,,,,,,,,,,,,,,,,,,,,,,,,,,,,,,,,,,,,,,2,  ,,0,0.615325067,233.354,0,1,1,1,1,2,2,,,,,,,,,,,,,,,,,,
,59da7e94416c900001ea5b52,627c705e10af4547ceae7ee9,2022-05-12_04h26.46.946,classification_task,2021.2.3,Win32,59.92329818,627c6715c52fd12f31907bd0,,,,,,,,,,,,,,,,,,,,,,,,,,,,,,,,,,,,,,,,,,,,,0,1,1,1,1,,2,,,,,,,,,,,,,,,,,,
,59da7e94416c900001ea5b52,627c705e10af4547ceae7ee9,2022-05-12_04h26.46.946,classification_task,2021.2.3,Win32,59.92329818,627c6715c52fd12f31907bd0,,,,,,,,,,,,,,,,,,,,,space,20.7278,a,0,1.2978,"[""0.110"",""0.242"",""0.035"",""0.746""]","[1,1,0,1]",0,0,0,0,1,1,0,,,0,FALSE,,,,,,,,,,,,,,,,,,,,,,,,,,,,,,,
,59da7e94416c900001ea5b52,627c705e10af4547ceae7ee9,2022-05-12_04h26.46.946,classification_task,2021.2.3,Win32,59.92329818,627c6715c52fd12f31907bd0,,,,,,,,,,,,,,,,,,,,,,,a,0,1.8666,"[""0.110"",""0.242"",""0.440"",""0.027""]","[1,1,1,0]",0,1,1,1,1,1,0,,,0,FALSE,,,,,,,,,,,,,,,,,,,,,,,,,,,,,,,
,59da7e94416c900001ea5b52,627c705e10af4547ceae7ee9,2022-05-12_04h26.46.946,classification_task,2021.2.3,Win32,59.92329818,627c6715c52fd12f31907bd0,,,,,,,,,,,,,,,,,,,,,,,l,0,2.3834,"[""0.293"",""0.711"",""0.579"",""0.970""]","[1,0,1,1]",0,2,2,2,1,0,1,,,0,FALSE,,,,,,,,,,,,,,,,,,,,,,,,,,,,,,,
,59da7e94416c900001ea5b52,627c705e10af4547ceae7ee9,2022-05-12_04h26.46.946,classification_task,2021.2.3,Win32,59.92329818,627c6715c52fd12f31907bd0,,,,,,,,,,,,,,,,,,,,,,,l,0,1.4837,"[""0.293"",""0.509"",""0.579"",""0.711""]","[1,1,1,0]",0,3,3,3,1,0,1,,,0,FALSE,,,,,,,,,,,,,,,,,,,,,,,,,,,,,,,
,59da7e94416c900001ea5b52,627c705e10af4547ceae7ee9,2022-05-12_04h26.46.946,classification_task,2021.2.3,Win32,59.92329818,627c6715c52fd12f31907bd0,,,,,,,,,,,,,,,,,,,,,,,a,0,1.549,"[""0.145"",""0.357"",""0.638"",""0.474""]","[1,1,1,0]",0,4,4,4,1,1,1,,,0,FALSE,,,,,,,,,,,,,,,,,,,,,,,,,,,,,,,
,59da7e94416c900001ea5b52,627c705e10af4547ceae7ee9,2022-05-12_04h26.46.946,classification_task,2021.2.3,Win32,59.92329818,627c6715c52fd12f31907bd0,,,,,,,,,,,,,,,,,,,,,,,a,1,1.1498,"[""0.189"",""0.545"",""0.868"",""0.677""]","[1,1,1,0]",0,5,5,5,1,0,0,,,0,FALSE,,,,,,,,,,,,,,,,,,,,,,,,,,,,,,,
,59da7e94416c900001ea5b52,627c705e10af4547ceae7ee9,2022-05-12_04h26.46.946,classification_task,2021.2.3,Win32,59.92329818,627c6715c52fd12f31907bd0,,,,,,,,,,,,,,,,,,,,,,,l,1,2.5661,"[""0.062"",""0.357"",""0.638"",""0.830""]","[0,1,1,1]",0,6,6,6,1,1,1,,,0,FALSE,,,,,,,,,,,,,,,,,,,,,,,,,,,,,,,
,59da7e94416c900001ea5b52,627c705e10af4547ceae7ee9,2022-05-12_04h26.46.946,classification_task,2021.2.3,Win32,59.92329818,627c6715c52fd12f31907bd0,,,,,,,,,,,,,,,,,,,,,,,a,0,1.2661,"[""0.145"",""0.695"",""0.638"",""0.830""]","[1,0,1,1]",0,7,7,7,1,1,1,,,0,FALSE,,,,,,,,,,,,,,,,,,,,,,,,,,,,,,,
,59da7e94416c900001ea5b52,627c705e10af4547ceae7ee9,2022-05-12_04h26.46.946,classification_task,2021.2.3,Win32,59.92329818,627c6715c52fd12f31907bd0,,,,,,,,,,,,,,,,,,,,,,,a,0,0.85,"[""0.145"",""0.357"",""0.062"",""0.830""]","[1,1,0,1]",0,8,8,8,1,1,1,,,0,FALSE,,,,,,,,,,,,,,,,,,,,,,,,,,,,,,,
,59da7e94416c900001ea5b52,627c705e10af4547ceae7ee9,2022-05-12_04h26.46.946,classification_task,2021.2.3,Win32,59.92329818,627c6715c52fd12f31907bd0,,,,,,,,,,,,,,,,,,,,,,,l,0,1.3,"[""0.189"",""0.545"",""0.690"",""0.920""]","[1,1,0,1]",0,9,9,9,1,0,0,,,0,FALSE,,,,,,,,,,,,,,,,,,,,,,,,,,,,,,,
,59da7e94416c900001ea5b52,627c705e10af4547ceae7ee9,2022-05-12_04h26.46.946,classification_task,2021.2.3,Win32,59.92329818,627c6715c52fd12f31907bd0,,,,,,,,,,,,,,,,,,,,,,,l,0,1.1002,"[""0.189"",""0.711"",""0.868"",""0.920""]","[1,0,1,1]",0,10,10,10,1,0,0,,,0,FALSE,,,,,,,,,,,,,,,,,,,,,,,,,,,,,,,
,59da7e94416c900001ea5b52,627c705e10af4547ceae7ee9,2022-05-12_04h26.46.946,classification_task,2021.2.3,Win32,59.92329818,627c6715c52fd12f31907bd0,,,,,,,,,,,,,,,,,,,,,,,l,1,1.3333,"[""0.711"",""0.242"",""0.440"",""0.746""]","[0,1,1,1]",0,11,11,11,1,1,0,,,0,FALSE,,,,,,,,,,,,,,,,,,,,,,,,,,,,,,,
,59da7e94416c900001ea5b52,627c705e10af4547ceae7ee9,2022-05-12_04h26.46.946,classification_task,2021.2.3,Win32,59.92329818,627c6715c52fd12f31907bd0,,,,,,,,,,,,,,,,,,,,,,,a,1,1.5665,"[""0.293"",""0.509"",""0.711"",""0.970""]","[1,1,0,1]",0,12,12,12,1,0,1,,,0,FALSE,,,,,,,,,,,,,,,,,,,,,,,,,,,,,,,
,59da7e94416c900001ea5b52,627c705e10af4547ceae7ee9,2022-05-12_04h26.46.946,classification_task,2021.2.3,Win32,59.92329818,627c6715c52fd12f31907bd0,,,,,,,,,,,,,,,,,,,,,,,l,0,1.1172,"[""0.713"",""0.509"",""0.579"",""0.970""]","[0,1,1,1]",0,13,13,13,1,0,1,,,0,FALSE,,,,,,,,,,,,,,,,,,,,,,,,,,,,,,,
,59da7e94416c900001ea5b52,627c705e10af4547ceae7ee9,2022-05-12_04h26.46.946,classification_task,2021.2.3,Win32,59.92329818,627c6715c52fd12f31907bd0,,,,,,,,,,,,,,,,,,,,,,,l,0,1.117,"[""0.062"",""0.545"",""0.868"",""0.920""]","[0,1,1,1]",0,14,14,14,1,0,0,,,0,FALSE,,,,,,,,,,,,,,,,,,,,,,,,,,,,,,,
,59da7e94416c900001ea5b52,627c705e10af4547ceae7ee9,2022-05-12_04h26.46.946,classification_task,2021.2.3,Win32,59.92329818,627c6715c52fd12f31907bd0,,,,,,,,,,,,,,,,,,,,,,,a,0,1.1333,"[""0.110"",""0.713"",""0.440"",""0.746""]","[1,0,1,1]",0,15,15,15,1,1,0,,,0,FALSE,,,,,,,,,,,,,,,,,,,,,,,,,,,,,,,
,59da7e94416c900001ea5b52,627c705e10af4547ceae7ee9,2022-05-12_04h26.46.946,classification_task,2021.2.3,Win32,59.92329818,627c6715c52fd12f31907bd0,,,,,,,,,,,,,,,,,,,,,,,a,1,1.317,"[""0.293"",""0.474"",""0.579"",""0.970""]","[1,0,1,1]",0,16,16,16,1,0,1,,,0,FALSE,,,,,,,,,,,,,,,,,,,,,,,,,,,,,,,
,59da7e94416c900001ea5b52,627c705e10af4547ceae7ee9,2022-05-12_04h26.46.946,classification_task,2021.2.3,Win32,59.92329818,627c6715c52fd12f31907bd0,,,,,,,,,,,,,,,,,,,,,,,l,0,0.983,"[""0.474"",""0.545"",""0.868"",""0.920""]","[0,1,1,1]",0,17,17,17,1,0,0,,,0,FALSE,,,,,,,,,,,,,,,,,,,,,,,,,,,,,,,
,59da7e94416c900001ea5b52,627c705e10af4547ceae7ee9,2022-05-12_04h26.46.946,classification_task,2021.2.3,Win32,59.92329818,627c6715c52fd12f31907bd0,,,,,,,,,,,,,,,,,,,,,,,a,0,1.266,"[""0.145"",""0.357"",""0.638"",""0.027""]","[1,1,1,0]",0,18,18,18,1,1,1,,,0,FALSE,,,,,,,,,,,,,,,,,,,,,,,,,,,,,,,
,59da7e94416c900001ea5b52,627c705e10af4547ceae7ee9,2022-05-12_04h26.46.946,classification_task,2021.2.3,Win32,59.92329818,627c6715c52fd12f31907bd0,,,,,,,,,,,,,,,,,,,,,,,l,0,1.0332,"[""0.711"",""0.509"",""0.579"",""0.970""]","[0,1,1,1]",0,19,19,19,1,0,1,,,0,FALSE,,,,,,,,,,,,,,,,,,,,,,,,,,,,,,,
,59da7e94416c900001ea5b52,627c705e10af4547ceae7ee9,2022-05-12_04h26.46.946,classification_task,2021.2.3,Win32,59.92329818,627c6715c52fd12f31907bd0,,,,,,,,,,,,,,,,,,,,,,,l,1,1.1002,"[""0.677"",""0.357"",""0.638"",""0.830""]","[0,1,1,1]",0,20,20,20,1,1,1,,,0,FALSE,,,,,,,,,,,,,,,,,,,,,,,,,,,,,,,
,59da7e94416c900001ea5b52,627c705e10af4547ceae7ee9,2022-05-12_04h26.46.946,classification_task,2021.2.3,Win32,59.92329818,627c6715c52fd12f31907bd0,,,,,,,,,,,,,,,,,,,,,,,l,1,1.1331,"[""0.711"",""0.242"",""0.440"",""0.746""]","[0,1,1,1]",0,21,21,21,1,1,0,,,0,FALSE,,,,,,,,,,,,,,,,,,,,,,,,,,,,,,,
,59da7e94416c900001ea5b52,627c705e10af4547ceae7ee9,2022-05-12_04h26.46.946,classification_task,2021.2.3,Win32,59.92329818,627c6715c52fd12f31907bd0,,,,,,,,,,,,,,,,,,,,,,,a,0,1.0335,"[""0.110"",""0.242"",""0.440"",""0.062""]","[1,1,1,0]",0,22,22,22,1,1,0,,,0,FALSE,,,,,,,,,,,,,,,,,,,,,,,,,,,,,,,
,59da7e94416c900001ea5b52,627c705e10af4547ceae7ee9,2022-05-12_04h26.46.946,classification_task,2021.2.3,Win32,59.92329818,627c6715c52fd12f31907bd0,,,,,,,,,,,,,,,,,,,,,,,a,0,0.9663,"[""0.145"",""0.711"",""0.638"",""0.830""]","[1,0,1,1]",0,23,23,23,1,1,1,,,0,FALSE,,,,,,,,,,,,,,,,,,,,,,,,,,,,,,,
,59da7e94416c900001ea5b52,627c705e10af4547ceae7ee9,2022-05-12_04h26.46.946,classification_task,2021.2.3,Win32,59.92329818,627c6715c52fd12f31907bd0,,,,,,,,,,,,,,,,,,,,,,,a,1,0.8331,"[""0.189"",""0.545"",""0.868"",""0.695""]","[1,1,1,0]",0,24,24,24,1,0,0,,,0,FALSE,,,,,,,,,,,,,,,,,,,,,,,,,,,,,,,
,59da7e94416c900001ea5b52,627c705e10af4547ceae7ee9,2022-05-12_04h26.46.946,classification_task,2021.2.3,Win32,59.92329818,627c6715c52fd12f31907bd0,,,,,,,,,,,,,,,,,,,,,,,a,0,0.901,"[""0.110"",""0.242"",""0.711"",""0.746""]","[1,1,0,1]",0,25,25,25,1,1,0,,,0,FALSE,,,,,,,,,,,,,,,,,,,,,,,,,,,,,,,
,59da7e94416c900001ea5b52,627c705e10af4547ceae7ee9,2022-05-12_04h26.46.946,classification_task,2021.2.3,Win32,59.92329818,627c6715c52fd12f31907bd0,,,,,,,,,,,,,,,,,,,,,,,l,0,0.7666,"[""0.189"",""0.545"",""0.713"",""0.920""]","[1,1,0,1]",0,26,26,26,1,0,0,,,0,FALSE,,,,,,,,,,,,,,,,,,,,,,,,,,,,,,,
,59da7e94416c900001ea5b52,627c705e10af4547ceae7ee9,2022-05-12_04h26.46.946,classification_task,2021.2.3,Win32,59.92329818,627c6715c52fd12f31907bd0,,,,,,,,,,,,,,,,,,,,,,,a,1,0.9504,"[""0.293"",""0.509"",""0.069"",""0.970""]","[1,1,0,1]",0,27,27,27,1,0,1,,,0,FALSE,,,,,,,,,,,,,,,,,,,,,,,,,,,,,,,
,59da7e94416c900001ea5b52,627c705e10af4547ceae7ee9,2022-05-12_04h26.46.946,classification_task,2021.2.3,Win32,59.92329818,627c6715c52fd12f31907bd0,,,,,,,,,,,,,,,,,,,,,,,l,1,0.6666,"[""0.110"",""0.393"",""0.440"",""0.746""]","[1,0,1,1]",0,28,28,28,1,1,0,,,0,FALSE,,,,,,,,,,,,,,,,,,,,,,,,,,,,,,,
,59da7e94416c900001ea5b52,627c705e10af4547ceae7ee9,2022-05-12_04h26.46.946,classification_task,2021.2.3,Win32,59.92329818,627c6715c52fd12f31907bd0,,,,,,,,,,,,,,,,,,,,,,,a,1,0.7669,"[""0.293"",""0.509"",""0.579"",""0.393""]","[1,1,1,0]",0,29,29,29,1,0,1,,,0,FALSE,,,,,,,,,,,,,,,,,,,,,,,,,,,,,,,
,59da7e94416c900001ea5b52,627c705e10af4547ceae7ee9,2022-05-12_04h26.46.946,classification_task,2021.2.3,Win32,59.92329818,627c6715c52fd12f31907bd0,,,,,,,,,,,,,,,,,,,,,,,a,1,0.8169,"[""0.189"",""0.393"",""0.868"",""0.920""]","[1,0,1,1]",0,30,30,30,1,0,0,,,0,FALSE,,,,,,,,,,,,,,,,,,,,,,,,,,,,,,,
,59da7e94416c900001ea5b52,627c705e10af4547ceae7ee9,2022-05-12_04h26.46.946,classification_task,2021.2.3,Win32,59.92329818,627c6715c52fd12f31907bd0,,,,,,,,,,,,,,,,,,,,,,,l,1,1.283,"[""0.145"",""0.357"",""0.027"",""0.830""]","[1,1,0,1]",0,31,31,31,1,1,1,,,0,FALSE,,,,,,,,,,,,,,,,,,,,,,,,,,,,,,,
,59da7e94416c900001ea5b52,627c705e10af4547ceae7ee9,2022-05-12_04h26.46.946,classification_task,2021.2.3,Win32,59.92329818,627c6715c52fd12f31907bd0,,,,,,,,,,,,,,,,,,,,,,,a,0,1.2001,"[""0.145"",""0.357"",""0.638"",""0.692""]","[1,1,1,0]",0,32,32,32,1,1,1,,,0,FALSE,,,,,,,,,,,,,,,,,,,,,,,,,,,,,,,
,59da7e94416c900001ea5b52,627c705e10af4547ceae7ee9,2022-05-12_04h26.46.946,classification_task,2021.2.3,Win32,59.92329818,627c6715c52fd12f31907bd0,,,,,,,,,,,,,,,,,,,,,,,a,1,1.1827,"[""0.189"",""0.393"",""0.868"",""0.920""]","[1,0,1,1]",0,33,33,33,1,0,0,,,0,FALSE,,,,,,,,,,,,,,,,,,,,,,,,,,,,,,,
,59da7e94416c900001ea5b52,627c705e10af4547ceae7ee9,2022-05-12_04h26.46.946,classification_task,2021.2.3,Win32,59.92329818,627c6715c52fd12f31907bd0,,,,,,,,,,,,,,,,,,,,,,,l,0,0.7336,"[""0.713"",""0.545"",""0.868"",""0.920""]","[0,1,1,1]",0,34,34,34,1,0,0,,,0,FALSE,,,,,,,,,,,,,,,,,,,,,,,,,,,,,,,
,59da7e94416c900001ea5b52,627c705e10af4547ceae7ee9,2022-05-12_04h26.46.946,classification_task,2021.2.3,Win32,59.92329818,627c6715c52fd12f31907bd0,,,,,,,,,,,,,,,,,,,,,,,a,1,0.7506,"[""0.189"",""0.545"",""0.036"",""0.920""]","[1,1,0,1]",0,35,35,35,1,0,0,,,0,FALSE,,,,,,,,,,,,,,,,,,,,,,,,,,,,,,,
,59da7e94416c900001ea5b52,627c705e10af4547ceae7ee9,2022-05-12_04h26.46.946,classification_task,2021.2.3,Win32,59.92329818,627c6715c52fd12f31907bd0,,,,,,,,,,,,,,,,,,,,,,,l,1,1.034,"[""0.145"",""0.357"",""0.713"",""0.830""]","[1,1,0,1]",0,36,36,36,1,1,1,,,0,FALSE,,,,,,,,,,,,,,,,,,,,,,,,,,,,,,,
,59da7e94416c900001ea5b52,627c705e10af4547ceae7ee9,2022-05-12_04h26.46.946,classification_task,2021.2.3,Win32,59.92329818,627c6715c52fd12f31907bd0,,,,,,,,,,,,,,,,,,,,,,,l,0,1.9337,"[""0.711"",""0.509"",""0.579"",""0.970""]","[0,1,1,1]",0,37,37,37,1,0,1,,,0,FALSE,,,,,,,,,,,,,,,,,,,,,,,,,,,,,,,
,59da7e94416c900001ea5b52,627c705e10af4547ceae7ee9,2022-05-12_04h26.46.946,classification_task,2021.2.3,Win32,59.92329818,627c6715c52fd12f31907bd0,,,,,,,,,,,,,,,,,,,,,,,a,0,0.7498,"[""0.110"",""0.036"",""0.440"",""0.746""]","[1,0,1,1]",0,38,38,38,1,1,0,,,0,FALSE,,,,,,,,,,,,,,,,,,,,,,,,,,,,,,,
,59da7e94416c900001ea5b52,627c705e10af4547ceae7ee9,2022-05-12_04h26.46.946,classification_task,2021.2.3,Win32,59.92329818,627c6715c52fd12f31907bd0,,,,,,,,,,,,,,,,,,,,,,,a,1,1.1832,"[""0.189"",""0.545"",""0.868"",""0.036""]","[1,1,1,0]",0,39,39,39,1,0,0,,,0,FALSE,,,,,,,,,,,,,,,,,,,,,,,,,,,,,,,
,59da7e94416c900001ea5b52,627c705e10af4547ceae7ee9,2022-05-12_04h26.46.946,classification_task,2021.2.3,Win32,59.92329818,627c6715c52fd12f31907bd0,,,,,,,,,,,,,,,,,,,,,,,l,0,1.3002,"[""0.293"",""0.509"",""0.579"",""0.692""]","[1,1,1,0]",0,40,40,40,1,0,1,,,0,FALSE,,,,,,,,,,,,,,,,,,,,,,,,,,,,,,,
,59da7e94416c900001ea5b52,627c705e10af4547ceae7ee9,2022-05-12_04h26.46.946,classification_task,2021.2.3,Win32,59.92329818,627c6715c52fd12f31907bd0,,,,,,,,,,,,,,,,,,,,,,,a,0,1.1335,"[""0.110"",""0.242"",""0.440"",""0.711""]","[1,1,1,0]",0,41,41,41,1,1,0,,,0,FALSE,,,,,,,,,,,,,,,,,,,,,,,,,,,,,,,
,59da7e94416c900001ea5b52,627c705e10af4547ceae7ee9,2022-05-12_04h26.46.946,classification_task,2021.2.3,Win32,59.92329818,627c6715c52fd12f31907bd0,,,,,,,,,,,,,,,,,,,,,,,l,0,1.1667,"[""0.293"",""0.035"",""0.579"",""0.970""]","[1,0,1,1]",0,42,42,42,1,0,1,,,0,FALSE,,,,,,,,,,,,,,,,,,,,,,,,,,,,,,,
,59da7e94416c900001ea5b52,627c705e10af4547ceae7ee9,2022-05-12_04h26.46.946,classification_task,2021.2.3,Win32,59.92329818,627c6715c52fd12f31907bd0,,,,,,,,,,,,,,,,,,,,,,,a,0,1.1328,"[""0.145"",""0.795"",""0.638"",""0.830""]","[1,0,1,1]",0,43,43,43,1,1,1,,,0,FALSE,,,,,,,,,,,,,,,,,,,,,,,,,,,,,,,
,59da7e94416c900001ea5b52,627c705e10af4547ceae7ee9,2022-05-12_04h26.46.946,classification_task,2021.2.3,Win32,59.92329818,627c6715c52fd12f31907bd0,,,,,,,,,,,,,,,,,,,,,,,l,1,1.7008,"[""0.393"",""0.242"",""0.440"",""0.746""]","[0,1,1,1]",0,44,44,44,1,1,0,,,0,FALSE,,,,,,,,,,,,,,,,,,,,,,,,,,,,,,,
,59da7e94416c900001ea5b52,627c705e10af4547ceae7ee9,2022-05-12_04h26.46.946,classification_task,2021.2.3,Win32,59.92329818,627c6715c52fd12f31907bd0,,,,,,,,,,,,,,,,,,,,,,,l,0,2.8817,"[""0.293"",""0.509"",""0.035"",""0.970""]","[1,1,0,1]",0,45,45,45,1,0,1,,,0,FALSE,,,,,,,,,,,,,,,,,,,,,,,,,,,,,,,
,59da7e94416c900001ea5b52,627c705e10af4547ceae7ee9,2022-05-12_04h26.46.946,classification_task,2021.2.3,Win32,59.92329818,627c6715c52fd12f31907bd0,,,,,,,,,,,,,,,,,,,,,,,a,0,1.3322,"[""0.062"",""0.357"",""0.638"",""0.830""]","[0,1,1,1]",0,46,46,46,1,1,1,,,0,FALSE,,,,,,,,,,,,,,,,,,,,,,,,,,,,,,,
,59da7e94416c900001ea5b52,627c705e10af4547ceae7ee9,2022-05-12_04h26.46.946,classification_task,2021.2.3,Win32,59.92329818,627c6715c52fd12f31907bd0,,,,,,,,,,,,,,,,,,,,,,,a,0,1.4004,"[""0.110"",""0.242"",""0.713"",""0.746""]","[1,1,0,1]",0,47,47,47,1,1,0,,,0,FALSE,,,,,,,,,,,,,,,,,,,,,,,,,,,,,,,
,59da7e94416c900001ea5b52,627c705e10af4547ceae7ee9,2022-05-12_04h26.46.946,classification_task,2021.2.3,Win32,59.92329818,627c6715c52fd12f31907bd0,,,,,,,,,,,,,,,,,,,,,,,a,0,0.7336,"[""0.110"",""0.062"",""0.440"",""0.746""]","[1,0,1,1]",0,48,48,48,1,1,0,,,0,FALSE,,,,,,,,,,,,,,,,,,,,,,,,,,,,,,,
,59da7e94416c900001ea5b52,627c705e10af4547ceae7ee9,2022-05-12_04h26.46.946,classification_task,2021.2.3,Win32,59.92329818,627c6715c52fd12f31907bd0,,,,,,,,,,,,,,,,,,,,,,,l,0,1.1171,"[""0.189"",""0.545"",""0.035"",""0.920""]","[1,1,0,1]",0,49,49,49,1,0,0,,,0,FALSE,,,,,,,,,,,,,,,,,,,,,,,,,,,,,,,
,59da7e94416c900001ea5b52,627c705e10af4547ceae7ee9,2022-05-12_04h26.46.946,classification_task,2021.2.3,Win32,59.92329818,627c6715c52fd12f31907bd0,,,,,,,,,,,,,,,,,,,,,,,l,0,0.9856,"[""0.293"",""0.509"",""0.579"",""0.690""]","[1,1,1,0]",0,50,50,50,1,0,1,,,0,FALSE,,,,,,,,,,,,,,,,,,,,,,,,,,,,,,,
,59da7e94416c900001ea5b52,627c705e10af4547ceae7ee9,2022-05-12_04h26.46.946,classification_task,2021.2.3,Win32,59.92329818,627c6715c52fd12f31907bd0,,,,,,,,,,,,,,,,,,,,,,,a,0,1.3498,"[""0.145"",""0.357"",""0.474"",""0.830""]","[1,1,0,1]",0,51,51,51,1,1,1,,,0,FALSE,,,,,,,,,,,,,,,,,,,,,,,,,,,,,,,
,59da7e94416c900001ea5b52,627c705e10af4547ceae7ee9,2022-05-12_04h26.46.946,classification_task,2021.2.3,Win32,59.92329818,627c6715c52fd12f31907bd0,,,,,,,,,,,,,,,,,,,,,,,a,0,0.767,"[""0.110"",""0.242"",""0.440"",""0.692""]","[1,1,1,0]",0,52,52,52,1,1,0,,,0,FALSE,,,,,,,,,,,,,,,,,,,,,,,,,,,,,,,
,59da7e94416c900001ea5b52,627c705e10af4547ceae7ee9,2022-05-12_04h26.46.946,classification_task,2021.2.3,Win32,59.92329818,627c6715c52fd12f31907bd0,,,,,,,,,,,,,,,,,,,,,,,l,1,0.9837,"[""0.711"",""0.242"",""0.440"",""0.746""]","[0,1,1,1]",0,53,53,53,1,1,0,,,0,FALSE,,,,,,,,,,,,,,,,,,,,,,,,,,,,,,,
,59da7e94416c900001ea5b52,627c705e10af4547ceae7ee9,2022-05-12_04h26.46.946,classification_task,2021.2.3,Win32,59.92329818,627c6715c52fd12f31907bd0,,,,,,,,,,,,,,,,,,,,,,,l,0,0.9335,"[""0.293"",""0.509"",""0.711"",""0.970""]","[1,1,0,1]",0,54,54,54,1,0,1,,,0,FALSE,,,,,,,,,,,,,,,,,,,,,,,,,,,,,,,
,59da7e94416c900001ea5b52,627c705e10af4547ceae7ee9,2022-05-12_04h26.46.946,classification_task,2021.2.3,Win32,59.92329818,627c6715c52fd12f31907bd0,,,,,,,,,,,,,,,,,,,,,,,a,1,1.1166,"[""0.189"",""0.711"",""0.868"",""0.920""]","[1,0,1,1]",0,55,55,55,1,0,0,,,0,FALSE,,,,,,,,,,,,,,,,,,,,,,,,,,,,,,,
,59da7e94416c900001ea5b52,627c705e10af4547ceae7ee9,2022-05-12_04h26.46.946,classification_task,2021.2.3,Win32,59.92329818,627c6715c52fd12f31907bd0,,,,,,,,,,,,,,,,,,,,,,,a,0,0.6817,"[""0.110"",""0.242"",""0.677"",""0.746""]","[1,1,0,1]",0,56,56,56,1,1,0,,,0,FALSE,,,,,,,,,,,,,,,,,,,,,,,,,,,,,,,
,59da7e94416c900001ea5b52,627c705e10af4547ceae7ee9,2022-05-12_04h26.46.946,classification_task,2021.2.3,Win32,59.92329818,627c6715c52fd12f31907bd0,,,,,,,,,,,,,,,,,,,,,,,l,1,1.0011,"[""0.145"",""0.357"",""0.638"",""0.069""]","[1,1,1,0]",0,57,57,57,1,1,1,,,0,FALSE,,,,,,,,,,,,,,,,,,,,,,,,,,,,,,,
,59da7e94416c900001ea5b52,627c705e10af4547ceae7ee9,2022-05-12_04h26.46.946,classification_task,2021.2.3,Win32,59.92329818,627c6715c52fd12f31907bd0,,,,,,,,,,,,,,,,,,,,,,,a,0,0.9506,"[""0.145"",""0.690"",""0.638"",""0.830""]","[1,0,1,1]",0,58,58,58,1,1,1,,,0,FALSE,,,,,,,,,,,,,,,,,,,,,,,,,,,,,,,
,59da7e94416c900001ea5b52,627c705e10af4547ceae7ee9,2022-05-12_04h26.46.946,classification_task,2021.2.3,Win32,59.92329818,627c6715c52fd12f31907bd0,,,,,,,,,,,,,,,,,,,,,,,a,0,0.5337,"[""0.393"",""0.357"",""0.638"",""0.830""]","[0,1,1,1]",0,59,59,59,1,1,1,,,0,FALSE,,,,,,,,,,,,,,,,,,,,,,,,,,,,,,,
,59da7e94416c900001ea5b52,627c705e10af4547ceae7ee9,2022-05-12_04h26.46.946,classification_task,2021.2.3,Win32,59.92329818,627c6715c52fd12f31907bd0,,,,,,,,,,,,,,,,,,,,,,,l,0,0.3513,"[""0.293"",""0.062"",""0.579"",""0.970""]","[1,0,1,1]",0,60,60,60,1,0,1,,,0,FALSE,,,,,,,,,,,,,,,,,,,,,,,,,,,,,,,
,59da7e94416c900001ea5b52,627c705e10af4547ceae7ee9,2022-05-12_04h26.46.946,classification_task,2021.2.3,Win32,59.92329818,627c6715c52fd12f31907bd0,,,,,,,,,,,,,,,,,,,,,,,a,1,2.3493,"[""0.677"",""0.545"",""0.868"",""0.920""]","[0,1,1,1]",0,61,61,61,1,0,0,,,0,FALSE,,,,,,,,,,,,,,,,,,,,,,,,,,,,,,,
,59da7e94416c900001ea5b52,627c705e10af4547ceae7ee9,2022-05-12_04h26.46.946,classification_task,2021.2.3,Win32,59.92329818,627c6715c52fd12f31907bd0,,,,,,,,,,,,,,,,,,,,,,,l,0,0.9156,"[""0.189"",""0.545"",""0.868"",""0.393""]","[1,1,1,0]",0,62,62,62,1,0,0,,,0,FALSE,,,,,,,,,,,,,,,,,,,,,,,,,,,,,,,
,59da7e94416c900001ea5b52,627c705e10af4547ceae7ee9,2022-05-12_04h26.46.946,classification_task,2021.2.3,Win32,59.92329818,627c6715c52fd12f31907bd0,,,,,,,,,,,,,,,,,,,,,,,l,0,1.1671,"[""0.036"",""0.509"",""0.579"",""0.970""]","[0,1,1,1]",0,63,63,63,1,0,1,,,0,FALSE,,,,,,,,,,,,,,,,,,,,,,,,,,,,,,,
,59da7e94416c900001ea5b52,627c705e10af4547ceae7ee9,2022-05-12_04h26.46.946,classification_task,2021.2.3,Win32,59.92329818,627c6715c52fd12f31907bd0,,,,,,,,,,,,,,,,,,,,,,,,,,,,,,,,,,,,,,,0, ,,0,0.174407959,176.3388,0,2,2,2,1,2,3,,,,,,,,,,,,,,,,,,
,59da7e94416c900001ea5b52,627c705e10af4547ceae7ee9,2022-05-12_04h26.46.946,classification_task,2021.2.3,Win32,59.92329818,627c6715c52fd12f31907bd0,,,,,,,,,,,,,,,,,,,,,,,,,,,,,,,,,,,,,,,1,  ,,0,0.076425632,181.4424,0,2,2,2,1,2,3,,,,,,,,,,,,,,,,,,
,59da7e94416c900001ea5b52,627c705e10af4547ceae7ee9,2022-05-12_04h26.46.946,classification_task,2021.2.3,Win32,59.92329818,627c6715c52fd12f31907bd0,,,,,,,,,,,,,,,,,,,,,,,,,,,,,,,,,,,,,,,2,  ,,0,0.639821209,186.1383,0,2,2,2,1,2,3,,,,,,,,,,,,,,,,,,
,59da7e94416c900001ea5b52,627c705e10af4547ceae7ee9,2022-05-12_04h26.46.946,classification_task,2021.2.3,Win32,59.92329818,627c6715c52fd12f31907bd0,,,,,,,,,,,,,,,,,,,,,,,,,,,,,,,,,,,,,,,,,,,,,0,2,2,2,1,,3,,,,,,,,,,,,,,,,,,
,59da7e94416c900001ea5b52,627c705e10af4547ceae7ee9,2022-05-12_04h26.46.946,classification_task,2021.2.3,Win32,59.92329818,627c6715c52fd12f31907bd0,,,,,,,,,,,,,,,,,,,,,,,,,,,,,,,,,,,,,,,,,,,,,,,,,,,,,I believe the aid is a competent performer,,0.7,0,4,1839.4666,0,0,0,0,1,0,,,,,
,59da7e94416c900001ea5b52,627c705e10af4547ceae7ee9,2022-05-12_04h26.46.946,classification_task,2021.2.3,Win32,59.92329818,627c6715c52fd12f31907bd0,,,,,,,,,,,,,,,,,,,,,,,,,,,,,,,,,,,,,,,,,,,,,,,,,,,,,I trust the aid,,0.7,0,4,1835.7579,0,0,0,0,1,0,,,,,
,59da7e94416c900001ea5b52,627c705e10af4547ceae7ee9,2022-05-12_04h26.46.946,classification_task,2021.2.3,Win32,59.92329818,627c6715c52fd12f31907bd0,,,,,,,,,,,,,,,,,,,,,,,,,,,,,,,,,,,,,,,,,,,,,,,,,,,,,I have confidence in the advice given by the aid,,0.7,0,4,1834.7234,0,0,0,0,1,0,,,,,
,59da7e94416c900001ea5b52,627c705e10af4547ceae7ee9,2022-05-12_04h26.46.946,classification_task,2021.2.3,Win32,59.92329818,627c6715c52fd12f31907bd0,,,,,,,,,,,,,,,,,,,,,,,,,,,,,,,,,,,,,,,,,,,,,,,,,,,,,I can depend on the aid,,0.7,0,3,1696.1856,0,0,0,0,1,0,,,,,
,59da7e94416c900001ea5b52,627c705e10af4547ceae7ee9,2022-05-12_04h26.46.946,classification_task,2021.2.3,Win32,59.92329818,627c6715c52fd12f31907bd0,,,,,,,,,,,,,,,,,,,,,,,,,,,,,,,,,,,,,,,,,,,,,,,,,,,,,I can rely on the aid to behave in consistent ways,,0.7,0,5,1828.1322,0,0,0,0,1,0,,,,,
,59da7e94416c900001ea5b52,627c705e10af4547ceae7ee9,2022-05-12_04h26.46.946,classification_task,2021.2.3,Win32,59.92329818,627c6715c52fd12f31907bd0,,,,,,,,,,,,,,,,,,,,,,,,,,,,,,,,,,,,,,,,,,,,,,,,,,,,,I can rely on the aid to do its best every time I take its advice,,0.7,0,5,1829.4878,0,0,0,0,1,0,,,,,
,59da7e94416c900001ea5b52,627c705e10af4547ceae7ee9,2022-05-12_04h26.46.946,classification_task,2021.2.3,Win32,59.92329818,627c6715c52fd12f31907bd0,,,,,,,,,,,,,,,,,,,,,,,,,,,,,,,,,,,,,,,,,,,,,,,,,,,,,"On trials you completed with assistance from the aid, how frequently did you think the aid was correct?",,0.7,0,90%,,0,0,0,0,1,0,,,,,
,59da7e94416c900001ea5b52,627c705e10af4547ceae7ee9,2022-05-12_04h26.46.946,classification_task,2021.2.3,Win32,59.92329818,627c6715c52fd12f31907bd0,,,,,,,,,,,,,,,,,,,,,,,,,,,,,,,,,,,,,,,,,,,,,,,,,,,,,"On trials you completed without the aid, how frequently did you think you were correct?",,0.7,0,50%,,0,0,0,0,1,0,,,,,
,59da7e94416c900001ea5b52,627c705e10af4547ceae7ee9,2022-05-12_04h26.46.946,classification_task,2021.2.3,Win32,59.92329818,627c6715c52fd12f31907bd0,,,,,,,,,,,,,,,,,,,,,,,,,,,,,,,,,,,,,,,,,,,,,,,,,,,,,,,,,,,0,0,0,0,1,,,,,,
,59da7e94416c900001ea5b52,627c705e10af4547ceae7ee9,2022-05-12_04h26.46.946,classification_task,2021.2.3,Win32,59.92329818,627c6715c52fd12f31907bd0,,,,,,,,,,,,,,,,,,,,,,,,,,,,,,,,,,,,,,,,,,,,,,,,,,,,,,,,,,,,,,,,,space,58.2132,1901.5349,,
,59da7e94416c900001ea5b52,627c705e10af4547ceae7ee9,2022-05-12_04h26.46.946,classification_task,2021.2.3,Win32,59.92329818,627c6715c52fd12f31907bd0,,,,,,,,,,,,,,,,,,,,,,,,,,,,,,,,,,,,,,,,,,,,,,,,,,,,,,,,,,,,,,,,,,,,"Mozilla/5.0 (Windows NT 10.0; Win64; x64) AppleWebKit/537.36 (KHTML, like Gecko) Chrome/101.0.4951.54 Safari/537.36",
,59da7e94416c900001ea5b52,627c705e10af4547ceae7ee9,2022-05-12_04h26.46.946,classification_task,2021.2.3,Win32,59.92329818,627c6715c52fd12f31907bd0,,,,,,,,,,,,,,,,,,,,,,,,,,,,,,,,,,,,,,,,,,,,,,,,,,,,,,,,,,,,,,,,,,,,,FADING
