usingWebGL,participant,session,date,expName,psychopyVersion,OS,frameRate,study_id,signatures_friend,signatures_foe,band_ranges_top,band_ranges_bottom,formitemText,formtype,formundefined,formitemWidth,formindex,formresponse,formrt,key_resp_2.keys,key_resp_2.rt,tute_resp.keys,tute_resp.rt,tutorial.thisRepN,tutorial.thisTrialN,tutorial.thisN,tutorial.thisIndex,tutorial.ran,key_resp_4.keys,key_resp_4.rt,key_resp.keys,key_resp.corr,key_resp.rt,lines_presented,is_signal_presented,trials.thisRepN,trials.thisTrialN,trials.thisN,trials.thisIndex,trials.ran,vessel,active_band,lines,is_signal,supported_pos,catch_trial,debrief_formindex,debrief_formitemText,debrief_formtype,debrief_formitemWidth,debrief_formresponse,debrief_formrt,phases.thisRepN,phases.thisTrialN,phases.thisN,phases.thisIndex,phases.ran,phases.order,phase,key_resp_3.keys,trustitemText,trusttype,trustitemWidth,trustindex,trustresponse,trustrt,support_status.thisRepN,support_status.thisTrialN,support_status.thisN,support_status.thisIndex,support_status.ran,support_status.order,key_resp_5.keys,key_resp_5.rt,globalClockTime,userAgent,manualCondition
TRUE,5a6fcd526923df0001ef975f,627c6fb921ac3d9c3bf9c2e8,2022-05-12_11h24.46.186,classification_task,2021.2.3,Win32,60.0240096,627c6715c52fd12f31907bcf,,,,,,,,,,,,,,,,,,,,,,,,,,,,,,,,,,,,,,,,,,,,,,,,,,,,,,,,,,,,,,,,,,,,,
,5a6fcd526923df0001ef975f,627c6fb921ac3d9c3bf9c2e8,2022-05-12_11h24.46.186,classification_task,2021.2.3,Win32,60.0240096,627c6715c52fd12f31907bcf,"[[""0.189"",""0.373"",""0.619"",""0.875""],[""0.237"",""0.406"",""0.912"",""0.946""]]","[[""0.040"",""0.271"",""0.566"",""0.703""],[""0.097"",""0.137"",""0.659"",""0.835""]]","[1,10]","[100,1000]",Video game experience,,,0.7,0,,,,,,,,,,,,,,,,,,,,,,,,,,,,,,,,,,,,,,,,,,,,,,,,,,,,,,,,,,,,
,5a6fcd526923df0001ef975f,627c6fb921ac3d9c3bf9c2e8,2022-05-12_11h24.46.186,classification_task,2021.2.3,Win32,60.0240096,627c6715c52fd12f31907bcf,,,,,Approximately how many hours did you spend playing video games in the last week?,,,0.7,0,0,,,,,,,,,,,,,,,,,,,,,,,,,,,,,,,,,,,,,,,,,,,,,,,,,,,,,,,,,,,
,5a6fcd526923df0001ef975f,627c6fb921ac3d9c3bf9c2e8,2022-05-12_11h24.46.186,classification_task,2021.2.3,Win32,60.0240096,627c6715c52fd12f31907bcf,,,,,"Which game did you play the most this year? (Enter ""None"" if you didn't play any)",,,0.7,0,Splatoon,,,,,,,,,,,,,,,,,,,,,,,,,,,,,,,,,,,,,,,,,,,,,,,,,,,,,,,,,,,
,5a6fcd526923df0001ef975f,627c6fb921ac3d9c3bf9c2e8,2022-05-12_11h24.46.186,classification_task,2021.2.3,Win32,60.0240096,627c6715c52fd12f31907bcf,,,,,Visual perception,,,0.7,0,,,,,,,,,,,,,,,,,,,,,,,,,,,,,,,,,,,,,,,,,,,,,,,,,,,,,,,,,,,,
,5a6fcd526923df0001ef975f,627c6fb921ac3d9c3bf9c2e8,2022-05-12_11h24.46.186,classification_task,2021.2.3,Win32,60.0240096,627c6715c52fd12f31907bcf,,,,,Do you have any form of color blindness?,,,0.7,0,No,31.927,,,,,,,,,,,,,,,,,,,,,,,,,,,,,,,,,,,,,,,,,,,,,,,,,,,,,,,,,,
,5a6fcd526923df0001ef975f,627c6fb921ac3d9c3bf9c2e8,2022-05-12_11h24.46.186,classification_task,2021.2.3,Win32,60.0240096,627c6715c52fd12f31907bcf,,,,,Do you use software to change the colour temperature of your screen (e.g. f.lux)?,,,0.7,0,No,39.233,,,,,,,,,,,,,,,,,,,,,,,,,,,,,,,,,,,,,,,,,,,,,,,,,,,,,,,,,,
,5a6fcd526923df0001ef975f,627c6fb921ac3d9c3bf9c2e8,2022-05-12_11h24.46.186,classification_task,2021.2.3,Win32,60.0240096,627c6715c52fd12f31907bcf,,,,,,,,,,,,space,23.967,space,10.55,0,0,0,0,1,,,,,,,,,,,,,,,,,,,,,,,,,,,,,,,,,,,,,,,,,,,,,,,,,
,5a6fcd526923df0001ef975f,627c6fb921ac3d9c3bf9c2e8,2022-05-12_11h24.46.186,classification_task,2021.2.3,Win32,60.0240096,627c6715c52fd12f31907bcf,,,,,,,,,,,,,,space,11.156,1,0,1,0,1,,,,,,,,,,,,,,,,,,,,,,,,,,,,,,,,,,,,,,,,,,,,,,,,,
,5a6fcd526923df0001ef975f,627c6fb921ac3d9c3bf9c2e8,2022-05-12_11h24.46.186,classification_task,2021.2.3,Win32,60.0240096,627c6715c52fd12f31907bcf,,,,,,,,,,,,,,space,37.377,2,0,2,0,1,,,,,,,,,,,,,,,,,,,,,,,,,,,,,,,,,,,,,,,,,,,,,,,,,
,5a6fcd526923df0001ef975f,627c6fb921ac3d9c3bf9c2e8,2022-05-12_11h24.46.186,classification_task,2021.2.3,Win32,60.0240096,627c6715c52fd12f31907bcf,,,,,,,,,,,,,,space,12.608,3,0,3,0,1,,,,,,,,,,,,,,,,,,,,,,,,,,,,,,,,,,,,,,,,,,,,,,,,,
,5a6fcd526923df0001ef975f,627c6fb921ac3d9c3bf9c2e8,2022-05-12_11h24.46.186,classification_task,2021.2.3,Win32,60.0240096,627c6715c52fd12f31907bcf,,,,,,,,,,,,,,space,24.097,4,0,4,0,1,,,,,,,,,,,,,,,,,,,,,,,,,,,,,,,,,,,,,,,,,,,,,,,,,
,5a6fcd526923df0001ef975f,627c6fb921ac3d9c3bf9c2e8,2022-05-12_11h24.46.186,classification_task,2021.2.3,Win32,60.0240096,627c6715c52fd12f31907bcf,,,,,,,,,,,,,,,,,,,,,space,17.359,l,1,9.15,"[""0.450"",""0.271"",""0.566"",""0.703""]","[0,1,1,1]",0,0,0,0,1,1,0,,,0,FALSE,,,,,,,,,,,,,,,,,,,,,,,,,,,,,,,
,5a6fcd526923df0001ef975f,627c6fb921ac3d9c3bf9c2e8,2022-05-12_11h24.46.186,classification_task,2021.2.3,Win32,60.0240096,627c6715c52fd12f31907bcf,,,,,,,,,,,,,,,,,,,,,,,l,1,7.093,"[""0.040"",""0.473"",""0.566"",""0.703""]","[1,0,1,1]",0,1,1,1,1,1,0,,,0,FALSE,,,,,,,,,,,,,,,,,,,,,,,,,,,,,,,
,5a6fcd526923df0001ef975f,627c6fb921ac3d9c3bf9c2e8,2022-05-12_11h24.46.186,classification_task,2021.2.3,Win32,60.0240096,627c6715c52fd12f31907bcf,,,,,,,,,,,,,,,,,,,,,,,a,1,5.129,"[""0.237"",""0.406"",""0.324"",""0.946""]","[1,1,0,1]",0,2,2,2,1,0,1,,,0,FALSE,,,,,,,,,,,,,,,,,,,,,,,,,,,,,,,
,5a6fcd526923df0001ef975f,627c6fb921ac3d9c3bf9c2e8,2022-05-12_11h24.46.186,classification_task,2021.2.3,Win32,60.0240096,627c6715c52fd12f31907bcf,,,,,,,,,,,,,,,,,,,,,,,l,1,9.305,"[""0.451"",""0.137"",""0.659"",""0.835""]","[0,1,1,1]",0,3,3,3,1,1,1,,,0,FALSE,,,,,,,,,,,,,,,,,,,,,,,,,,,,,,,
,5a6fcd526923df0001ef975f,627c6fb921ac3d9c3bf9c2e8,2022-05-12_11h24.46.186,classification_task,2021.2.3,Win32,60.0240096,627c6715c52fd12f31907bcf,,,,,,,,,,,,,,,,,,,,,,,a,1,5.06,"[""0.237"",""0.491"",""0.912"",""0.946""]","[1,0,1,1]",0,4,4,4,1,0,1,,,0,FALSE,,,,,,,,,,,,,,,,,,,,,,,,,,,,,,,
,5a6fcd526923df0001ef975f,627c6fb921ac3d9c3bf9c2e8,2022-05-12_11h24.46.186,classification_task,2021.2.3,Win32,60.0240096,627c6715c52fd12f31907bcf,,,,,,,,,,,,,,,,,,,,,,,l,1,4.972,"[""0.040"",""0.271"",""0.448"",""0.703""]","[1,1,0,1]",0,5,5,5,1,1,0,,,0,FALSE,,,,,,,,,,,,,,,,,,,,,,,,,,,,,,,
,5a6fcd526923df0001ef975f,627c6fb921ac3d9c3bf9c2e8,2022-05-12_11h24.46.186,classification_task,2021.2.3,Win32,60.0240096,627c6715c52fd12f31907bcf,,,,,,,,,,,,,,,,,,,,,,,l,1,4.061,"[""0.040"",""0.271"",""0.566"",""0.491""]","[1,1,1,0]",0,6,6,6,1,1,0,,,0,FALSE,,,,,,,,,,,,,,,,,,,,,,,,,,,,,,,
,5a6fcd526923df0001ef975f,627c6fb921ac3d9c3bf9c2e8,2022-05-12_11h24.46.186,classification_task,2021.2.3,Win32,60.0240096,627c6715c52fd12f31907bcf,,,,,,,,,,,,,,,,,,,,,,,a,1,8.051,"[""0.473"",""0.373"",""0.619"",""0.875""]","[0,1,1,1]",0,7,7,7,1,0,0,,,0,FALSE,,,,,,,,,,,,,,,,,,,,,,,,,,,,,,,
,5a6fcd526923df0001ef975f,627c6fb921ac3d9c3bf9c2e8,2022-05-12_11h24.46.186,classification_task,2021.2.3,Win32,60.0240096,627c6715c52fd12f31907bcf,,,,,,,,,,,,,,,,,,,,,,,,0,,"[""0.097"",""0.137"",""0.659"",""0.448""]","[1,1,1,0]",0,8,8,8,1,1,1,,,0,FALSE,,,,,,,,,,,,,,,,,,,,,,,,,,,,,,,
,5a6fcd526923df0001ef975f,627c6fb921ac3d9c3bf9c2e8,2022-05-12_11h24.46.186,classification_task,2021.2.3,Win32,60.0240096,627c6715c52fd12f31907bcf,,,,,,,,,,,,,,,,,,,,,,,a,1,5.68,"[""0.237"",""0.406"",""0.912"",""0.771""]","[1,1,1,0]",0,9,9,9,1,0,1,,,0,FALSE,,,,,,,,,,,,,,,,,,,,,,,,,,,,,,,
,5a6fcd526923df0001ef975f,627c6fb921ac3d9c3bf9c2e8,2022-05-12_11h24.46.186,classification_task,2021.2.3,Win32,60.0240096,627c6715c52fd12f31907bcf,,,,,,,,,,,,,,,,,,,,,,,a,1,5.822,"[""0.189"",""0.373"",""0.619"",""0.451""]","[1,1,1,0]",0,10,10,10,1,0,0,,,0,FALSE,,,,,,,,,,,,,,,,,,,,,,,,,,,,,,,
,5a6fcd526923df0001ef975f,627c6fb921ac3d9c3bf9c2e8,2022-05-12_11h24.46.186,classification_task,2021.2.3,Win32,60.0240096,627c6715c52fd12f31907bcf,,,,,,,,,,,,,,,,,,,,,,,a,1,6.618,"[""0.189"",""0.373"",""0.518"",""0.875""]","[1,1,0,1]",0,11,11,11,1,0,0,,,0,FALSE,,,,,,,,,,,,,,,,,,,,,,,,,,,,,,,
,5a6fcd526923df0001ef975f,627c6fb921ac3d9c3bf9c2e8,2022-05-12_11h24.46.186,classification_task,2021.2.3,Win32,60.0240096,627c6715c52fd12f31907bcf,,,,,,,,,,,,,,,,,,,,,,,a,1,3.749,"[""0.189"",""0.495"",""0.619"",""0.875""]","[1,0,1,1]",0,12,12,12,1,0,0,,,0,FALSE,,,,,,,,,,,,,,,,,,,,,,,,,,,,,,,
,5a6fcd526923df0001ef975f,627c6fb921ac3d9c3bf9c2e8,2022-05-12_11h24.46.186,classification_task,2021.2.3,Win32,60.0240096,627c6715c52fd12f31907bcf,,,,,,,,,,,,,,,,,,,,,,,a,1,8.149,"[""0.771"",""0.406"",""0.912"",""0.946""]","[0,1,1,1]",0,13,13,13,1,0,1,,,0,FALSE,,,,,,,,,,,,,,,,,,,,,,,,,,,,,,,
,5a6fcd526923df0001ef975f,627c6fb921ac3d9c3bf9c2e8,2022-05-12_11h24.46.186,classification_task,2021.2.3,Win32,60.0240096,627c6715c52fd12f31907bcf,,,,,,,,,,,,,,,,,,,,,,,l,1,7.283,"[""0.097"",""0.779"",""0.659"",""0.835""]","[1,0,1,1]",0,14,14,14,1,1,1,,,0,FALSE,,,,,,,,,,,,,,,,,,,,,,,,,,,,,,,
,5a6fcd526923df0001ef975f,627c6fb921ac3d9c3bf9c2e8,2022-05-12_11h24.46.186,classification_task,2021.2.3,Win32,60.0240096,627c6715c52fd12f31907bcf,,,,,,,,,,,,,,,,,,,,,,,l,1,4.731,"[""0.097"",""0.137"",""0.518"",""0.835""]","[1,1,0,1]",0,15,15,15,1,1,1,,,0,FALSE,,,,,,,,,,,,,,,,,,,,,,,,,,,,,,,
,5a6fcd526923df0001ef975f,627c6fb921ac3d9c3bf9c2e8,2022-05-12_11h24.46.186,classification_task,2021.2.3,Win32,60.0240096,627c6715c52fd12f31907bcf,,,,,,,,,,,,,,,,,,,,,,,a,1,5.743,"[""0.189"",""0.373"",""0.473"",""0.875""]","[1,1,0,1]",0,16,16,16,1,0,0,,,0,FALSE,,,,,,,,,,,,,,,,,,,,,,,,,,,,,,,
,5a6fcd526923df0001ef975f,627c6fb921ac3d9c3bf9c2e8,2022-05-12_11h24.46.186,classification_task,2021.2.3,Win32,60.0240096,627c6715c52fd12f31907bcf,,,,,,,,,,,,,,,,,,,,,,,a,1,4.311,"[""0.189"",""0.373"",""0.619"",""0.495""]","[1,1,1,0]",0,17,17,17,1,0,0,,,0,FALSE,,,,,,,,,,,,,,,,,,,,,,,,,,,,,,,
,5a6fcd526923df0001ef975f,627c6fb921ac3d9c3bf9c2e8,2022-05-12_11h24.46.186,classification_task,2021.2.3,Win32,60.0240096,627c6715c52fd12f31907bcf,,,,,,,,,,,,,,,,,,,,,,,a,1,5.798,"[""0.237"",""0.406"",""0.912"",""0.771""]","[1,1,1,0]",0,18,18,18,1,0,1,,,0,FALSE,,,,,,,,,,,,,,,,,,,,,,,,,,,,,,,
,5a6fcd526923df0001ef975f,627c6fb921ac3d9c3bf9c2e8,2022-05-12_11h24.46.186,classification_task,2021.2.3,Win32,60.0240096,627c6715c52fd12f31907bcf,,,,,,,,,,,,,,,,,,,,,,,l,1,8.069,"[""0.491"",""0.137"",""0.659"",""0.835""]","[0,1,1,1]",0,19,19,19,1,1,1,,,0,FALSE,,,,,,,,,,,,,,,,,,,,,,,,,,,,,,,
,5a6fcd526923df0001ef975f,627c6fb921ac3d9c3bf9c2e8,2022-05-12_11h24.46.186,classification_task,2021.2.3,Win32,60.0240096,627c6715c52fd12f31907bcf,,,,,,,,,,,,,,,,,,,,,,,a,1,3.548,"[""0.237"",""0.491"",""0.912"",""0.946""]","[1,0,1,1]",0,20,20,20,1,0,1,,,0,FALSE,,,,,,,,,,,,,,,,,,,,,,,,,,,,,,,
,5a6fcd526923df0001ef975f,627c6fb921ac3d9c3bf9c2e8,2022-05-12_11h24.46.186,classification_task,2021.2.3,Win32,60.0240096,627c6715c52fd12f31907bcf,,,,,,,,,,,,,,,,,,,,,,,l,1,5.473,"[""0.040"",""0.271"",""0.473"",""0.703""]","[1,1,0,1]",0,21,21,21,1,1,0,,,0,FALSE,,,,,,,,,,,,,,,,,,,,,,,,,,,,,,,
,5a6fcd526923df0001ef975f,627c6fb921ac3d9c3bf9c2e8,2022-05-12_11h24.46.186,classification_task,2021.2.3,Win32,60.0240096,627c6715c52fd12f31907bcf,,,,,,,,,,,,,,,,,,,,,,,l,1,4.873,"[""0.097"",""0.137"",""0.470"",""0.835""]","[1,1,0,1]",0,22,22,22,1,1,1,,,0,FALSE,,,,,,,,,,,,,,,,,,,,,,,,,,,,,,,
,5a6fcd526923df0001ef975f,627c6fb921ac3d9c3bf9c2e8,2022-05-12_11h24.46.186,classification_task,2021.2.3,Win32,60.0240096,627c6715c52fd12f31907bcf,,,,,,,,,,,,,,,,,,,,,,,l,1,8.62,"[""0.040"",""0.271"",""0.566"",""0.451""]","[1,1,1,0]",0,23,23,23,1,1,0,,,0,FALSE,,,,,,,,,,,,,,,,,,,,,,,,,,,,,,,
,5a6fcd526923df0001ef975f,627c6fb921ac3d9c3bf9c2e8,2022-05-12_11h24.46.186,classification_task,2021.2.3,Win32,60.0240096,627c6715c52fd12f31907bcf,,,,,,,,,,,,,,,,,,,,,,,a,1,7.455,"[""0.480"",""0.406"",""0.912"",""0.946""]","[0,1,1,1]",0,24,24,24,1,0,1,,,0,FALSE,,,,,,,,,,,,,,,,,,,,,,,,,,,,,,,
,5a6fcd526923df0001ef975f,627c6fb921ac3d9c3bf9c2e8,2022-05-12_11h24.46.186,classification_task,2021.2.3,Win32,60.0240096,627c6715c52fd12f31907bcf,,,,,,,,,,,,,,,,,,,,,,,a,1,4.277,"[""0.189"",""0.480"",""0.619"",""0.875""]","[1,0,1,1]",0,25,25,25,1,0,0,,,0,FALSE,,,,,,,,,,,,,,,,,,,,,,,,,,,,,,,
,5a6fcd526923df0001ef975f,627c6fb921ac3d9c3bf9c2e8,2022-05-12_11h24.46.186,classification_task,2021.2.3,Win32,60.0240096,627c6715c52fd12f31907bcf,,,,,,,,,,,,,,,,,,,,,,,a,1,7.11,"[""0.779"",""0.373"",""0.619"",""0.875""]","[0,1,1,1]",0,26,26,26,1,0,0,,,0,FALSE,,,,,,,,,,,,,,,,,,,,,,,,,,,,,,,
,5a6fcd526923df0001ef975f,627c6fb921ac3d9c3bf9c2e8,2022-05-12_11h24.46.186,classification_task,2021.2.3,Win32,60.0240096,627c6715c52fd12f31907bcf,,,,,,,,,,,,,,,,,,,,,,,l,1,5.835,"[""0.473"",""0.271"",""0.566"",""0.703""]","[0,1,1,1]",0,27,27,27,1,1,0,,,0,FALSE,,,,,,,,,,,,,,,,,,,,,,,,,,,,,,,
,5a6fcd526923df0001ef975f,627c6fb921ac3d9c3bf9c2e8,2022-05-12_11h24.46.186,classification_task,2021.2.3,Win32,60.0240096,627c6715c52fd12f31907bcf,,,,,,,,,,,,,,,,,,,,,,,a,1,4.98,"[""0.237"",""0.406"",""0.324"",""0.946""]","[1,1,0,1]",0,28,28,28,1,0,1,,,0,FALSE,,,,,,,,,,,,,,,,,,,,,,,,,,,,,,,
,5a6fcd526923df0001ef975f,627c6fb921ac3d9c3bf9c2e8,2022-05-12_11h24.46.186,classification_task,2021.2.3,Win32,60.0240096,627c6715c52fd12f31907bcf,,,,,,,,,,,,,,,,,,,,,,,l,1,4.959,"[""0.040"",""0.451"",""0.566"",""0.703""]","[1,0,1,1]",0,29,29,29,1,1,0,,,0,FALSE,,,,,,,,,,,,,,,,,,,,,,,,,,,,,,,
,5a6fcd526923df0001ef975f,627c6fb921ac3d9c3bf9c2e8,2022-05-12_11h24.46.186,classification_task,2021.2.3,Win32,60.0240096,627c6715c52fd12f31907bcf,,,,,,,,,,,,,,,,,,,,,,,l,1,3.706,"[""0.097"",""0.491"",""0.659"",""0.835""]","[1,0,1,1]",0,30,30,30,1,1,1,,,0,FALSE,,,,,,,,,,,,,,,,,,,,,,,,,,,,,,,
,5a6fcd526923df0001ef975f,627c6fb921ac3d9c3bf9c2e8,2022-05-12_11h24.46.186,classification_task,2021.2.3,Win32,60.0240096,627c6715c52fd12f31907bcf,,,,,,,,,,,,,,,,,,,,,,,l,1,3.559,"[""0.097"",""0.137"",""0.659"",""0.491""]","[1,1,1,0]",0,31,31,31,1,1,1,,,0,FALSE,,,,,,,,,,,,,,,,,,,,,,,,,,,,,,,
,5a6fcd526923df0001ef975f,627c6fb921ac3d9c3bf9c2e8,2022-05-12_11h24.46.186,classification_task,2021.2.3,Win32,60.0240096,627c6715c52fd12f31907bcf,,,,,,,,,,,,,,,,,,,,,,,,0,,"[""0.040"",""0.771"",""0.566"",""0.703""]","[1,0,1,1]",0,32,32,32,1,1,0,,,0,FALSE,,,,,,,,,,,,,,,,,,,,,,,,,,,,,,,
,5a6fcd526923df0001ef975f,627c6fb921ac3d9c3bf9c2e8,2022-05-12_11h24.46.186,classification_task,2021.2.3,Win32,60.0240096,627c6715c52fd12f31907bcf,,,,,,,,,,,,,,,,,,,,,,,,0,,"[""0.097"",""0.448"",""0.659"",""0.835""]","[1,0,1,1]",0,33,33,33,1,1,1,,,0,FALSE,,,,,,,,,,,,,,,,,,,,,,,,,,,,,,,
,5a6fcd526923df0001ef975f,627c6fb921ac3d9c3bf9c2e8,2022-05-12_11h24.46.186,classification_task,2021.2.3,Win32,60.0240096,627c6715c52fd12f31907bcf,,,,,,,,,,,,,,,,,,,,,,,a,1,3.746,"[""0.800"",""0.406"",""0.912"",""0.946""]","[0,1,1,1]",0,34,34,34,1,0,1,,,0,FALSE,,,,,,,,,,,,,,,,,,,,,,,,,,,,,,,
,5a6fcd526923df0001ef975f,627c6fb921ac3d9c3bf9c2e8,2022-05-12_11h24.46.186,classification_task,2021.2.3,Win32,60.0240096,627c6715c52fd12f31907bcf,,,,,,,,,,,,,,,,,,,,,,,a,0,4.81,"[""0.040"",""0.271"",""0.744"",""0.703""]","[1,1,0,1]",0,35,35,35,1,1,0,,,0,FALSE,,,,,,,,,,,,,,,,,,,,,,,,,,,,,,,
,5a6fcd526923df0001ef975f,627c6fb921ac3d9c3bf9c2e8,2022-05-12_11h24.46.186,classification_task,2021.2.3,Win32,60.0240096,627c6715c52fd12f31907bcf,,,,,,,,,,,,,,,,,,,,,,,l,1,7.234,"[""0.771"",""0.137"",""0.659"",""0.835""]","[0,1,1,1]",0,36,36,36,1,1,1,,,0,FALSE,,,,,,,,,,,,,,,,,,,,,,,,,,,,,,,
,5a6fcd526923df0001ef975f,627c6fb921ac3d9c3bf9c2e8,2022-05-12_11h24.46.186,classification_task,2021.2.3,Win32,60.0240096,627c6715c52fd12f31907bcf,,,,,,,,,,,,,,,,,,,,,,,l,1,2.823,"[""0.450"",""0.271"",""0.566"",""0.703""]","[0,1,1,1]",0,37,37,37,1,1,0,,,0,FALSE,,,,,,,,,,,,,,,,,,,,,,,,,,,,,,,
,5a6fcd526923df0001ef975f,627c6fb921ac3d9c3bf9c2e8,2022-05-12_11h24.46.186,classification_task,2021.2.3,Win32,60.0240096,627c6715c52fd12f31907bcf,,,,,,,,,,,,,,,,,,,,,,,l,0,4.992,"[""0.237"",""0.406"",""0.912"",""0.779""]","[1,1,1,0]",0,38,38,38,1,0,1,,,0,FALSE,,,,,,,,,,,,,,,,,,,,,,,,,,,,,,,
,5a6fcd526923df0001ef975f,627c6fb921ac3d9c3bf9c2e8,2022-05-12_11h24.46.186,classification_task,2021.2.3,Win32,60.0240096,627c6715c52fd12f31907bcf,,,,,,,,,,,,,,,,,,,,,,,a,0,4.593,"[""0.040"",""0.271"",""0.566"",""0.473""]","[1,1,1,0]",0,39,39,39,1,1,0,,,0,FALSE,,,,,,,,,,,,,,,,,,,,,,,,,,,,,,,
,5a6fcd526923df0001ef975f,627c6fb921ac3d9c3bf9c2e8,2022-05-12_11h24.46.186,classification_task,2021.2.3,Win32,60.0240096,627c6715c52fd12f31907bcf,,,,,,,,,,,,,,,,,,,,,,,a,1,6.177,"[""0.237"",""0.406"",""0.448"",""0.946""]","[1,1,0,1]",0,40,40,40,1,0,1,,,0,FALSE,,,,,,,,,,,,,,,,,,,,,,,,,,,,,,,
,5a6fcd526923df0001ef975f,627c6fb921ac3d9c3bf9c2e8,2022-05-12_11h24.46.186,classification_task,2021.2.3,Win32,60.0240096,627c6715c52fd12f31907bcf,,,,,,,,,,,,,,,,,,,,,,,a,0,4.846,"[""0.097"",""0.137"",""0.800"",""0.835""]","[1,1,0,1]",0,41,41,41,1,1,1,,,0,FALSE,,,,,,,,,,,,,,,,,,,,,,,,,,,,,,,
,5a6fcd526923df0001ef975f,627c6fb921ac3d9c3bf9c2e8,2022-05-12_11h24.46.186,classification_task,2021.2.3,Win32,60.0240096,627c6715c52fd12f31907bcf,,,,,,,,,,,,,,,,,,,,,,,l,0,9.787,"[""0.189"",""0.450"",""0.619"",""0.875""]","[1,0,1,1]",0,42,42,42,1,0,0,,,0,FALSE,,,,,,,,,,,,,,,,,,,,,,,,,,,,,,,
,5a6fcd526923df0001ef975f,627c6fb921ac3d9c3bf9c2e8,2022-05-12_11h24.46.186,classification_task,2021.2.3,Win32,60.0240096,627c6715c52fd12f31907bcf,,,,,,,,,,,,,,,,,,,,,,,a,1,2.245,"[""0.237"",""0.495"",""0.912"",""0.946""]","[1,0,1,1]",0,43,43,43,1,0,1,,,0,FALSE,,,,,,,,,,,,,,,,,,,,,,,,,,,,,,,
,5a6fcd526923df0001ef975f,627c6fb921ac3d9c3bf9c2e8,2022-05-12_11h24.46.186,classification_task,2021.2.3,Win32,60.0240096,627c6715c52fd12f31907bcf,,,,,,,,,,,,,,,,,,,,,,,l,0,2.311,"[""0.189"",""0.373"",""0.779"",""0.875""]","[1,1,0,1]",0,44,44,44,1,0,0,,,0,FALSE,,,,,,,,,,,,,,,,,,,,,,,,,,,,,,,
,5a6fcd526923df0001ef975f,627c6fb921ac3d9c3bf9c2e8,2022-05-12_11h24.46.186,classification_task,2021.2.3,Win32,60.0240096,627c6715c52fd12f31907bcf,,,,,,,,,,,,,,,,,,,,,,,a,0,3.393,"[""0.097"",""0.137"",""0.659"",""0.491""]","[1,1,1,0]",0,45,45,45,1,1,1,,,0,FALSE,,,,,,,,,,,,,,,,,,,,,,,,,,,,,,,
,5a6fcd526923df0001ef975f,627c6fb921ac3d9c3bf9c2e8,2022-05-12_11h24.46.186,classification_task,2021.2.3,Win32,60.0240096,627c6715c52fd12f31907bcf,,,,,,,,,,,,,,,,,,,,,,,l,0,5.281,"[""0.189"",""0.373"",""0.619"",""0.450""]","[1,1,1,0]",0,46,46,46,1,0,0,,,0,FALSE,,,,,,,,,,,,,,,,,,,,,,,,,,,,,,,
,5a6fcd526923df0001ef975f,627c6fb921ac3d9c3bf9c2e8,2022-05-12_11h24.46.186,classification_task,2021.2.3,Win32,60.0240096,627c6715c52fd12f31907bcf,,,,,,,,,,,,,,,,,,,,,,,a,1,4.446,"[""0.450"",""0.373"",""0.619"",""0.875""]","[0,1,1,1]",0,47,47,47,1,0,0,,,0,FALSE,,,,,,,,,,,,,,,,,,,,,,,,,,,,,,,
,5a6fcd526923df0001ef975f,627c6fb921ac3d9c3bf9c2e8,2022-05-12_11h24.46.186,classification_task,2021.2.3,Win32,60.0240096,627c6715c52fd12f31907bcf,,,,,,,,,,,,,,,,,,,,,,,l,1,6.918,"[""0.040"",""0.271"",""0.566"",""0.779""]","[1,1,1,0]",0,48,48,48,1,1,0,,,0,FALSE,,,,,,,,,,,,,,,,,,,,,,,,,,,,,,,
,5a6fcd526923df0001ef975f,627c6fb921ac3d9c3bf9c2e8,2022-05-12_11h24.46.186,classification_task,2021.2.3,Win32,60.0240096,627c6715c52fd12f31907bcf,,,,,,,,,,,,,,,,,,,,,,,l,0,4.846,"[""0.189"",""0.470"",""0.619"",""0.875""]","[1,0,1,1]",0,49,49,49,1,0,0,,,0,FALSE,,,,,,,,,,,,,,,,,,,,,,,,,,,,,,,
,5a6fcd526923df0001ef975f,627c6fb921ac3d9c3bf9c2e8,2022-05-12_11h24.46.186,classification_task,2021.2.3,Win32,60.0240096,627c6715c52fd12f31907bcf,,,,,,,,,,,,,,,,,,,,,,,l,0,5.218,"[""0.237"",""0.406"",""0.473"",""0.946""]","[1,1,0,1]",0,50,50,50,1,0,1,,,0,FALSE,,,,,,,,,,,,,,,,,,,,,,,,,,,,,,,
,5a6fcd526923df0001ef975f,627c6fb921ac3d9c3bf9c2e8,2022-05-12_11h24.46.186,classification_task,2021.2.3,Win32,60.0240096,627c6715c52fd12f31907bcf,,,,,,,,,,,,,,,,,,,,,,,l,0,2.642,"[""0.237"",""0.470"",""0.912"",""0.946""]","[1,0,1,1]",0,51,51,51,1,0,1,,,0,FALSE,,,,,,,,,,,,,,,,,,,,,,,,,,,,,,,
,5a6fcd526923df0001ef975f,627c6fb921ac3d9c3bf9c2e8,2022-05-12_11h24.46.186,classification_task,2021.2.3,Win32,60.0240096,627c6715c52fd12f31907bcf,,,,,,,,,,,,,,,,,,,,,,,a,1,2.496,"[""0.237"",""0.406"",""0.912"",""0.800""]","[1,1,1,0]",0,52,52,52,1,0,1,,,0,FALSE,,,,,,,,,,,,,,,,,,,,,,,,,,,,,,,
,5a6fcd526923df0001ef975f,627c6fb921ac3d9c3bf9c2e8,2022-05-12_11h24.46.186,classification_task,2021.2.3,Win32,60.0240096,627c6715c52fd12f31907bcf,,,,,,,,,,,,,,,,,,,,,,,a,0,2.74,"[""0.097"",""0.137"",""0.470"",""0.835""]","[1,1,0,1]",0,53,53,53,1,1,1,,,0,FALSE,,,,,,,,,,,,,,,,,,,,,,,,,,,,,,,
,5a6fcd526923df0001ef975f,627c6fb921ac3d9c3bf9c2e8,2022-05-12_11h24.46.186,classification_task,2021.2.3,Win32,60.0240096,627c6715c52fd12f31907bcf,,,,,,,,,,,,,,,,,,,,,,,l,1,3.647,"[""0.097"",""0.495"",""0.659"",""0.835""]","[1,0,1,1]",0,54,54,54,1,1,1,,,0,FALSE,,,,,,,,,,,,,,,,,,,,,,,,,,,,,,,
,5a6fcd526923df0001ef975f,627c6fb921ac3d9c3bf9c2e8,2022-05-12_11h24.46.186,classification_task,2021.2.3,Win32,60.0240096,627c6715c52fd12f31907bcf,,,,,,,,,,,,,,,,,,,,,,,a,0,3.432,"[""0.473"",""0.271"",""0.566"",""0.703""]","[0,1,1,1]",0,55,55,55,1,1,0,,,0,FALSE,,,,,,,,,,,,,,,,,,,,,,,,,,,,,,,
,5a6fcd526923df0001ef975f,627c6fb921ac3d9c3bf9c2e8,2022-05-12_11h24.46.186,classification_task,2021.2.3,Win32,60.0240096,627c6715c52fd12f31907bcf,,,,,,,,,,,,,,,,,,,,,,,l,1,1.756,"[""0.097"",""0.137"",""0.659"",""0.785""]","[1,1,1,0]",0,56,56,56,1,1,1,,,0,FALSE,,,,,,,,,,,,,,,,,,,,,,,,,,,,,,,
,5a6fcd526923df0001ef975f,627c6fb921ac3d9c3bf9c2e8,2022-05-12_11h24.46.186,classification_task,2021.2.3,Win32,60.0240096,627c6715c52fd12f31907bcf,,,,,,,,,,,,,,,,,,,,,,,a,1,5.27,"[""0.189"",""0.373"",""0.800"",""0.875""]","[1,1,0,1]",0,57,57,57,1,0,0,,,0,FALSE,,,,,,,,,,,,,,,,,,,,,,,,,,,,,,,
,5a6fcd526923df0001ef975f,627c6fb921ac3d9c3bf9c2e8,2022-05-12_11h24.46.186,classification_task,2021.2.3,Win32,60.0240096,627c6715c52fd12f31907bcf,,,,,,,,,,,,,,,,,,,,,,,a,1,2.011,"[""0.189"",""0.373"",""0.619"",""0.491""]","[1,1,1,0]",0,58,58,58,1,0,0,,,0,FALSE,,,,,,,,,,,,,,,,,,,,,,,,,,,,,,,
,5a6fcd526923df0001ef975f,627c6fb921ac3d9c3bf9c2e8,2022-05-12_11h24.46.186,classification_task,2021.2.3,Win32,60.0240096,627c6715c52fd12f31907bcf,,,,,,,,,,,,,,,,,,,,,,,l,0,5.141,"[""0.451"",""0.373"",""0.619"",""0.875""]","[0,1,1,1]",0,59,59,59,1,0,0,,,0,FALSE,,,,,,,,,,,,,,,,,,,,,,,,,,,,,,,
,5a6fcd526923df0001ef975f,627c6fb921ac3d9c3bf9c2e8,2022-05-12_11h24.46.186,classification_task,2021.2.3,Win32,60.0240096,627c6715c52fd12f31907bcf,,,,,,,,,,,,,,,,,,,,,,,l,0,3.498,"[""0.518"",""0.406"",""0.912"",""0.946""]","[0,1,1,1]",0,60,60,60,1,0,1,,,0,FALSE,,,,,,,,,,,,,,,,,,,,,,,,,,,,,,,
,5a6fcd526923df0001ef975f,627c6fb921ac3d9c3bf9c2e8,2022-05-12_11h24.46.186,classification_task,2021.2.3,Win32,60.0240096,627c6715c52fd12f31907bcf,,,,,,,,,,,,,,,,,,,,,,,a,0,3.786,"[""0.040"",""0.271"",""0.744"",""0.703""]","[1,1,0,1]",0,61,61,61,1,1,0,,,0,FALSE,,,,,,,,,,,,,,,,,,,,,,,,,,,,,,,
,5a6fcd526923df0001ef975f,627c6fb921ac3d9c3bf9c2e8,2022-05-12_11h24.46.186,classification_task,2021.2.3,Win32,60.0240096,627c6715c52fd12f31907bcf,,,,,,,,,,,,,,,,,,,,,,,a,0,5.431,"[""0.040"",""0.473"",""0.566"",""0.703""]","[1,0,1,1]",0,62,62,62,1,1,0,,,0,FALSE,,,,,,,,,,,,,,,,,,,,,,,,,,,,,,,
,5a6fcd526923df0001ef975f,627c6fb921ac3d9c3bf9c2e8,2022-05-12_11h24.46.186,classification_task,2021.2.3,Win32,60.0240096,627c6715c52fd12f31907bcf,,,,,,,,,,,,,,,,,,,,,,,a,0,6.633,"[""0.480"",""0.137"",""0.659"",""0.835""]","[0,1,1,1]",0,63,63,63,1,1,1,,,0,FALSE,,,,,,,,,,,,,,,,,,,,,,,,,,,,,,,
,5a6fcd526923df0001ef975f,627c6fb921ac3d9c3bf9c2e8,2022-05-12_11h24.46.186,classification_task,2021.2.3,Win32,60.0240096,627c6715c52fd12f31907bcf,,,,,,,,,,,,,,,,,,,,,,,,,,,,,,,,,,,,,,,0, ,,0,2.452478934,627.845,0,0,0,0,1,2,1,,,,,,,,,,,,,,,,,,
,5a6fcd526923df0001ef975f,627c6fb921ac3d9c3bf9c2e8,2022-05-12_11h24.46.186,classification_task,2021.2.3,Win32,60.0240096,627c6715c52fd12f31907bcf,,,,,,,,,,,,,,,,,,,,,,,,,,,,,,,,,,,,,,,1,  ,,0,8.95845581,630.913,0,0,0,0,1,2,1,,,,,,,,,,,,,,,,,,
,5a6fcd526923df0001ef975f,627c6fb921ac3d9c3bf9c2e8,2022-05-12_11h24.46.186,classification_task,2021.2.3,Win32,60.0240096,627c6715c52fd12f31907bcf,,,,,,,,,,,,,,,,,,,,,,,,,,,,,,,,,,,,,,,2,  ,,0,9.115226337,644.522,0,0,0,0,1,2,1,,,,,,,,,,,,,,,,,,
,5a6fcd526923df0001ef975f,627c6fb921ac3d9c3bf9c2e8,2022-05-12_11h24.46.186,classification_task,2021.2.3,Win32,60.0240096,627c6715c52fd12f31907bcf,,,,,,,,,,,,,,,,,,,,,,,,,,,,,,,,,,,,,,,,,,,,,0,0,0,0,1,,1,,,,,,,,,,,,,,,,,,
,5a6fcd526923df0001ef975f,627c6fb921ac3d9c3bf9c2e8,2022-05-12_11h24.46.186,classification_task,2021.2.3,Win32,60.0240096,627c6715c52fd12f31907bcf,,,,,,,,,,,,,,,,,,,,,space,88.793,a,1,5.135,"[""0.189"",""0.800"",""0.619"",""0.875""]","[1,0,1,1]",0,0,0,0,1,0,0,,,0,FALSE,,,,,,,,,,,,,,,,,,,,,,,,,,,,,,,
,5a6fcd526923df0001ef975f,627c6fb921ac3d9c3bf9c2e8,2022-05-12_11h24.46.186,classification_task,2021.2.3,Win32,60.0240096,627c6715c52fd12f31907bcf,,,,,,,,,,,,,,,,,,,,,,,a,1,6.381,"[""0.189"",""0.373"",""0.619"",""0.779""]","[1,1,1,0]",0,1,1,1,1,0,0,,,0,FALSE,,,,,,,,,,,,,,,,,,,,,,,,,,,,,,,
,5a6fcd526923df0001ef975f,627c6fb921ac3d9c3bf9c2e8,2022-05-12_11h24.46.186,classification_task,2021.2.3,Win32,60.0240096,627c6715c52fd12f31907bcf,,,,,,,,,,,,,,,,,,,,,,,l,1,8.6,"[""0.040"",""0.271"",""0.744"",""0.703""]","[1,1,0,1]",0,2,2,2,1,1,0,,,0,FALSE,,,,,,,,,,,,,,,,,,,,,,,,,,,,,,,
,5a6fcd526923df0001ef975f,627c6fb921ac3d9c3bf9c2e8,2022-05-12_11h24.46.186,classification_task,2021.2.3,Win32,60.0240096,627c6715c52fd12f31907bcf,,,,,,,,,,,,,,,,,,,,,,,a,1,2.898,"[""0.237"",""0.406"",""0.912"",""0.800""]","[1,1,1,0]",0,3,3,3,1,0,1,,,0,FALSE,,,,,,,,,,,,,,,,,,,,,,,,,,,,,,,
,5a6fcd526923df0001ef975f,627c6fb921ac3d9c3bf9c2e8,2022-05-12_11h24.46.186,classification_task,2021.2.3,Win32,60.0240096,627c6715c52fd12f31907bcf,,,,,,,,,,,,,,,,,,,,,,,l,0,1.536,"[""0.495"",""0.406"",""0.912"",""0.946""]","[0,1,1,1]",0,4,4,4,1,0,1,,,0,FALSE,,,,,,,,,,,,,,,,,,,,,,,,,,,,,,,
,5a6fcd526923df0001ef975f,627c6fb921ac3d9c3bf9c2e8,2022-05-12_11h24.46.186,classification_task,2021.2.3,Win32,60.0240096,627c6715c52fd12f31907bcf,,,,,,,,,,,,,,,,,,,,,,,a,0,2.595,"[""0.744"",""0.137"",""0.659"",""0.835""]","[0,1,1,1]",0,5,5,5,1,1,1,,,0,FALSE,,,,,,,,,,,,,,,,,,,,,,,,,,,,,,,
,5a6fcd526923df0001ef975f,627c6fb921ac3d9c3bf9c2e8,2022-05-12_11h24.46.186,classification_task,2021.2.3,Win32,60.0240096,627c6715c52fd12f31907bcf,,,,,,,,,,,,,,,,,,,,,,,l,1,6.233,"[""0.040"",""0.779"",""0.566"",""0.703""]","[1,0,1,1]",0,6,6,6,1,1,0,,,0,FALSE,,,,,,,,,,,,,,,,,,,,,,,,,,,,,,,
,5a6fcd526923df0001ef975f,627c6fb921ac3d9c3bf9c2e8,2022-05-12_11h24.46.186,classification_task,2021.2.3,Win32,60.0240096,627c6715c52fd12f31907bcf,,,,,,,,,,,,,,,,,,,,,,,a,1,3.776,"[""0.189"",""0.373"",""0.448"",""0.875""]","[1,1,0,1]",0,7,7,7,1,0,0,,,0,FALSE,,,,,,,,,,,,,,,,,,,,,,,,,,,,,,,
,5a6fcd526923df0001ef975f,627c6fb921ac3d9c3bf9c2e8,2022-05-12_11h24.46.186,classification_task,2021.2.3,Win32,60.0240096,627c6715c52fd12f31907bcf,,,,,,,,,,,,,,,,,,,,,,,l,1,1.599,"[""0.097"",""0.137"",""0.785"",""0.835""]","[1,1,0,1]",0,8,8,8,1,1,1,,,0,FALSE,,,,,,,,,,,,,,,,,,,,,,,,,,,,,,,
,5a6fcd526923df0001ef975f,627c6fb921ac3d9c3bf9c2e8,2022-05-12_11h24.46.186,classification_task,2021.2.3,Win32,60.0240096,627c6715c52fd12f31907bcf,,,,,,,,,,,,,,,,,,,,,,,a,1,1.667,"[""0.744"",""0.373"",""0.619"",""0.875""]","[0,1,1,1]",0,9,9,9,1,0,0,,,0,FALSE,,,,,,,,,,,,,,,,,,,,,,,,,,,,,,,
,5a6fcd526923df0001ef975f,627c6fb921ac3d9c3bf9c2e8,2022-05-12_11h24.46.186,classification_task,2021.2.3,Win32,60.0240096,627c6715c52fd12f31907bcf,,,,,,,,,,,,,,,,,,,,,,,l,1,2.036,"[""0.800"",""0.271"",""0.566"",""0.703""]","[0,1,1,1]",0,10,10,10,1,1,0,,,0,FALSE,,,,,,,,,,,,,,,,,,,,,,,,,,,,,,,
,5a6fcd526923df0001ef975f,627c6fb921ac3d9c3bf9c2e8,2022-05-12_11h24.46.186,classification_task,2021.2.3,Win32,60.0240096,627c6715c52fd12f31907bcf,,,,,,,,,,,,,,,,,,,,,,,l,1,4.033,"[""0.040"",""0.271"",""0.566"",""0.744""]","[1,1,1,0]",0,11,11,11,1,1,0,,,0,FALSE,,,,,,,,,,,,,,,,,,,,,,,,,,,,,,,
,5a6fcd526923df0001ef975f,627c6fb921ac3d9c3bf9c2e8,2022-05-12_11h24.46.186,classification_task,2021.2.3,Win32,60.0240096,627c6715c52fd12f31907bcf,,,,,,,,,,,,,,,,,,,,,,,a,0,3.399,"[""0.097"",""0.470"",""0.659"",""0.835""]","[1,0,1,1]",0,12,12,12,1,1,1,,,0,FALSE,,,,,,,,,,,,,,,,,,,,,,,,,,,,,,,
,5a6fcd526923df0001ef975f,627c6fb921ac3d9c3bf9c2e8,2022-05-12_11h24.46.186,classification_task,2021.2.3,Win32,60.0240096,627c6715c52fd12f31907bcf,,,,,,,,,,,,,,,,,,,,,,,l,0,1.272,"[""0.237"",""0.480"",""0.912"",""0.946""]","[1,0,1,1]",0,13,13,13,1,0,1,,,0,FALSE,,,,,,,,,,,,,,,,,,,,,,,,,,,,,,,
,5a6fcd526923df0001ef975f,627c6fb921ac3d9c3bf9c2e8,2022-05-12_11h24.46.186,classification_task,2021.2.3,Win32,60.0240096,627c6715c52fd12f31907bcf,,,,,,,,,,,,,,,,,,,,,,,l,1,1.491,"[""0.097"",""0.137"",""0.659"",""0.491""]","[1,1,1,0]",0,14,14,14,1,1,1,,,0,FALSE,,,,,,,,,,,,,,,,,,,,,,,,,,,,,,,
,5a6fcd526923df0001ef975f,627c6fb921ac3d9c3bf9c2e8,2022-05-12_11h24.46.186,classification_task,2021.2.3,Win32,60.0240096,627c6715c52fd12f31907bcf,,,,,,,,,,,,,,,,,,,,,,,l,0,2.683,"[""0.237"",""0.406"",""0.473"",""0.946""]","[1,1,0,1]",0,15,15,15,1,0,1,,,0,FALSE,,,,,,,,,,,,,,,,,,,,,,,,,,,,,,,
,5a6fcd526923df0001ef975f,627c6fb921ac3d9c3bf9c2e8,2022-05-12_11h24.46.186,classification_task,2021.2.3,Win32,60.0240096,627c6715c52fd12f31907bcf,,,,,,,,,,,,,,,,,,,,,,,l,1,1.087,"[""0.771"",""0.137"",""0.659"",""0.835""]","[0,1,1,1]",0,16,16,16,1,1,1,,,0,FALSE,,,,,,,,,,,,,,,,,,,,,,,,,,,,,,,
,5a6fcd526923df0001ef975f,627c6fb921ac3d9c3bf9c2e8,2022-05-12_11h24.46.186,classification_task,2021.2.3,Win32,60.0240096,627c6715c52fd12f31907bcf,,,,,,,,,,,,,,,,,,,,,,,l,0,1.995,"[""0.470"",""0.406"",""0.912"",""0.946""]","[0,1,1,1]",0,17,17,17,1,0,1,,,0,FALSE,,,,,,,,,,,,,,,,,,,,,,,,,,,,,,,
,5a6fcd526923df0001ef975f,627c6fb921ac3d9c3bf9c2e8,2022-05-12_11h24.46.186,classification_task,2021.2.3,Win32,60.0240096,627c6715c52fd12f31907bcf,,,,,,,,,,,,,,,,,,,,,,,l,0,2.809,"[""0.237"",""0.406"",""0.448"",""0.946""]","[1,1,0,1]",0,18,18,18,1,0,1,,,0,FALSE,,,,,,,,,,,,,,,,,,,,,,,,,,,,,,,
,5a6fcd526923df0001ef975f,627c6fb921ac3d9c3bf9c2e8,2022-05-12_11h24.46.186,classification_task,2021.2.3,Win32,60.0240096,627c6715c52fd12f31907bcf,,,,,,,,,,,,,,,,,,,,,,,a,1,1.914,"[""0.237"",""0.448"",""0.912"",""0.946""]","[1,0,1,1]",0,19,19,19,1,0,1,,,0,FALSE,,,,,,,,,,,,,,,,,,,,,,,,,,,,,,,
,5a6fcd526923df0001ef975f,627c6fb921ac3d9c3bf9c2e8,2022-05-12_11h24.46.186,classification_task,2021.2.3,Win32,60.0240096,627c6715c52fd12f31907bcf,,,,,,,,,,,,,,,,,,,,,,,l,1,1.368,"[""0.097"",""0.137"",""0.659"",""0.744""]","[1,1,1,0]",0,20,20,20,1,1,1,,,0,FALSE,,,,,,,,,,,,,,,,,,,,,,,,,,,,,,,
,5a6fcd526923df0001ef975f,627c6fb921ac3d9c3bf9c2e8,2022-05-12_11h24.46.186,classification_task,2021.2.3,Win32,60.0240096,627c6715c52fd12f31907bcf,,,,,,,,,,,,,,,,,,,,,,,a,1,1.262,"[""0.189"",""0.373"",""0.495"",""0.875""]","[1,1,0,1]",0,21,21,21,1,0,0,,,0,FALSE,,,,,,,,,,,,,,,,,,,,,,,,,,,,,,,
,5a6fcd526923df0001ef975f,627c6fb921ac3d9c3bf9c2e8,2022-05-12_11h24.46.186,classification_task,2021.2.3,Win32,60.0240096,627c6715c52fd12f31907bcf,,,,,,,,,,,,,,,,,,,,,,,a,1,2.297,"[""0.771"",""0.373"",""0.619"",""0.875""]","[0,1,1,1]",0,22,22,22,1,0,0,,,0,FALSE,,,,,,,,,,,,,,,,,,,,,,,,,,,,,,,
,5a6fcd526923df0001ef975f,627c6fb921ac3d9c3bf9c2e8,2022-05-12_11h24.46.186,classification_task,2021.2.3,Win32,60.0240096,627c6715c52fd12f31907bcf,,,,,,,,,,,,,,,,,,,,,,,l,0,1.43,"[""0.237"",""0.406"",""0.912"",""0.450""]","[1,1,1,0]",0,23,23,23,1,0,1,,,0,FALSE,,,,,,,,,,,,,,,,,,,,,,,,,,,,,,,
,5a6fcd526923df0001ef975f,627c6fb921ac3d9c3bf9c2e8,2022-05-12_11h24.46.186,classification_task,2021.2.3,Win32,60.0240096,627c6715c52fd12f31907bcf,,,,,,,,,,,,,,,,,,,,,,,l,1,1.324,"[""0.097"",""0.137"",""0.495"",""0.835""]","[1,1,0,1]",0,24,24,24,1,1,1,,,0,FALSE,,,,,,,,,,,,,,,,,,,,,,,,,,,,,,,
,5a6fcd526923df0001ef975f,627c6fb921ac3d9c3bf9c2e8,2022-05-12_11h24.46.186,classification_task,2021.2.3,Win32,60.0240096,627c6715c52fd12f31907bcf,,,,,,,,,,,,,,,,,,,,,,,a,1,1.451,"[""0.189"",""0.470"",""0.619"",""0.875""]","[1,0,1,1]",0,25,25,25,1,0,0,,,0,FALSE,,,,,,,,,,,,,,,,,,,,,,,,,,,,,,,
,5a6fcd526923df0001ef975f,627c6fb921ac3d9c3bf9c2e8,2022-05-12_11h24.46.186,classification_task,2021.2.3,Win32,60.0240096,627c6715c52fd12f31907bcf,,,,,,,,,,,,,,,,,,,,,,,l,1,4.178,"[""0.491"",""0.271"",""0.566"",""0.703""]","[0,1,1,1]",0,26,26,26,1,1,0,,,0,FALSE,,,,,,,,,,,,,,,,,,,,,,,,,,,,,,,
,5a6fcd526923df0001ef975f,627c6fb921ac3d9c3bf9c2e8,2022-05-12_11h24.46.186,classification_task,2021.2.3,Win32,60.0240096,627c6715c52fd12f31907bcf,,,,,,,,,,,,,,,,,,,,,,,a,1,1.671,"[""0.189"",""0.373"",""0.619"",""0.480""]","[1,1,1,0]",0,27,27,27,1,0,0,,,0,FALSE,,,,,,,,,,,,,,,,,,,,,,,,,,,,,,,
,5a6fcd526923df0001ef975f,627c6fb921ac3d9c3bf9c2e8,2022-05-12_11h24.46.186,classification_task,2021.2.3,Win32,60.0240096,627c6715c52fd12f31907bcf,,,,,,,,,,,,,,,,,,,,,,,l,1,2.89,"[""0.097"",""0.785"",""0.659"",""0.835""]","[1,0,1,1]",0,28,28,28,1,1,1,,,0,FALSE,,,,,,,,,,,,,,,,,,,,,,,,,,,,,,,
,5a6fcd526923df0001ef975f,627c6fb921ac3d9c3bf9c2e8,2022-05-12_11h24.46.186,classification_task,2021.2.3,Win32,60.0240096,627c6715c52fd12f31907bcf,,,,,,,,,,,,,,,,,,,,,,,l,1,3.992,"[""0.040"",""0.271"",""0.785"",""0.703""]","[1,1,0,1]",0,29,29,29,1,1,0,,,0,FALSE,,,,,,,,,,,,,,,,,,,,,,,,,,,,,,,
,5a6fcd526923df0001ef975f,627c6fb921ac3d9c3bf9c2e8,2022-05-12_11h24.46.186,classification_task,2021.2.3,Win32,60.0240096,627c6715c52fd12f31907bcf,,,,,,,,,,,,,,,,,,,,,,,l,1,3.459,"[""0.040"",""0.451"",""0.566"",""0.703""]","[1,0,1,1]",0,30,30,30,1,1,0,,,0,FALSE,,,,,,,,,,,,,,,,,,,,,,,,,,,,,,,
,5a6fcd526923df0001ef975f,627c6fb921ac3d9c3bf9c2e8,2022-05-12_11h24.46.186,classification_task,2021.2.3,Win32,60.0240096,627c6715c52fd12f31907bcf,,,,,,,,,,,,,,,,,,,,,,,l,1,1.05,"[""0.040"",""0.271"",""0.566"",""0.473""]","[1,1,1,0]",0,31,31,31,1,1,0,,,0,FALSE,,,,,,,,,,,,,,,,,,,,,,,,,,,,,,,
,5a6fcd526923df0001ef975f,627c6fb921ac3d9c3bf9c2e8,2022-05-12_11h24.46.186,classification_task,2021.2.3,Win32,60.0240096,627c6715c52fd12f31907bcf,,,,,,,,,,,,,,,,,,,,,,,a,1,2.859,"[""0.189"",""0.373"",""0.473"",""0.875""]","[1,1,0,1]",0,32,32,32,1,0,0,,,0,FALSE,,,,,,,,,,,,,,,,,,,,,,,,,,,,,,,
,5a6fcd526923df0001ef975f,627c6fb921ac3d9c3bf9c2e8,2022-05-12_11h24.46.186,classification_task,2021.2.3,Win32,60.0240096,627c6715c52fd12f31907bcf,,,,,,,,,,,,,,,,,,,,,,,l,1,3.552,"[""0.097"",""0.137"",""0.659"",""0.800""]","[1,1,1,0]",0,33,33,33,1,1,1,,,0,FALSE,,,,,,,,,,,,,,,,,,,,,,,,,,,,,,,
,5a6fcd526923df0001ef975f,627c6fb921ac3d9c3bf9c2e8,2022-05-12_11h24.46.186,classification_task,2021.2.3,Win32,60.0240096,627c6715c52fd12f31907bcf,,,,,,,,,,,,,,,,,,,,,,,l,0,2.374,"[""0.237"",""0.451"",""0.912"",""0.946""]","[1,0,1,1]",0,34,34,34,1,0,1,,,0,FALSE,,,,,,,,,,,,,,,,,,,,,,,,,,,,,,,
,5a6fcd526923df0001ef975f,627c6fb921ac3d9c3bf9c2e8,2022-05-12_11h24.46.186,classification_task,2021.2.3,Win32,60.0240096,627c6715c52fd12f31907bcf,,,,,,,,,,,,,,,,,,,,,,,l,1,2.603,"[""0.040"",""0.495"",""0.566"",""0.703""]","[1,0,1,1]",0,35,35,35,1,1,0,,,0,FALSE,,,,,,,,,,,,,,,,,,,,,,,,,,,,,,,
,5a6fcd526923df0001ef975f,627c6fb921ac3d9c3bf9c2e8,2022-05-12_11h24.46.186,classification_task,2021.2.3,Win32,60.0240096,627c6715c52fd12f31907bcf,,,,,,,,,,,,,,,,,,,,,,,a,1,3.617,"[""0.237"",""0.406"",""0.744"",""0.946""]","[1,1,0,1]",0,36,36,36,1,0,1,,,0,FALSE,,,,,,,,,,,,,,,,,,,,,,,,,,,,,,,
,5a6fcd526923df0001ef975f,627c6fb921ac3d9c3bf9c2e8,2022-05-12_11h24.46.186,classification_task,2021.2.3,Win32,60.0240096,627c6715c52fd12f31907bcf,,,,,,,,,,,,,,,,,,,,,,,l,1,3.325,"[""0.040"",""0.271"",""0.566"",""0.771""]","[1,1,1,0]",0,37,37,37,1,1,0,,,0,FALSE,,,,,,,,,,,,,,,,,,,,,,,,,,,,,,,
,5a6fcd526923df0001ef975f,627c6fb921ac3d9c3bf9c2e8,2022-05-12_11h24.46.186,classification_task,2021.2.3,Win32,60.0240096,627c6715c52fd12f31907bcf,,,,,,,,,,,,,,,,,,,,,,,l,1,4.26,"[""0.097"",""0.495"",""0.659"",""0.835""]","[1,0,1,1]",0,38,38,38,1,1,1,,,0,FALSE,,,,,,,,,,,,,,,,,,,,,,,,,,,,,,,
,5a6fcd526923df0001ef975f,627c6fb921ac3d9c3bf9c2e8,2022-05-12_11h24.46.186,classification_task,2021.2.3,Win32,60.0240096,627c6715c52fd12f31907bcf,,,,,,,,,,,,,,,,,,,,,,,l,1,3.476,"[""0.744"",""0.271"",""0.566"",""0.703""]","[0,1,1,1]",0,39,39,39,1,1,0,,,0,FALSE,,,,,,,,,,,,,,,,,,,,,,,,,,,,,,,
,5a6fcd526923df0001ef975f,627c6fb921ac3d9c3bf9c2e8,2022-05-12_11h24.46.186,classification_task,2021.2.3,Win32,60.0240096,627c6715c52fd12f31907bcf,,,,,,,,,,,,,,,,,,,,,,,l,1,1.904,"[""0.040"",""0.271"",""0.324"",""0.703""]","[1,1,0,1]",0,40,40,40,1,1,0,,,0,FALSE,,,,,,,,,,,,,,,,,,,,,,,,,,,,,,,
,5a6fcd526923df0001ef975f,627c6fb921ac3d9c3bf9c2e8,2022-05-12_11h24.46.186,classification_task,2021.2.3,Win32,60.0240096,627c6715c52fd12f31907bcf,,,,,,,,,,,,,,,,,,,,,,,a,1,1.726,"[""0.189"",""0.448"",""0.619"",""0.875""]","[1,0,1,1]",0,41,41,41,1,0,0,,,0,FALSE,,,,,,,,,,,,,,,,,,,,,,,,,,,,,,,
,5a6fcd526923df0001ef975f,627c6fb921ac3d9c3bf9c2e8,2022-05-12_11h24.46.186,classification_task,2021.2.3,Win32,60.0240096,627c6715c52fd12f31907bcf,,,,,,,,,,,,,,,,,,,,,,,a,0,3.636,"[""0.473"",""0.137"",""0.659"",""0.835""]","[0,1,1,1]",0,42,42,42,1,1,1,,,0,FALSE,,,,,,,,,,,,,,,,,,,,,,,,,,,,,,,
,5a6fcd526923df0001ef975f,627c6fb921ac3d9c3bf9c2e8,2022-05-12_11h24.46.186,classification_task,2021.2.3,Win32,60.0240096,627c6715c52fd12f31907bcf,,,,,,,,,,,,,,,,,,,,,,,l,0,1.32,"[""0.448"",""0.406"",""0.912"",""0.946""]","[0,1,1,1]",0,43,43,43,1,0,1,,,0,FALSE,,,,,,,,,,,,,,,,,,,,,,,,,,,,,,,
,5a6fcd526923df0001ef975f,627c6fb921ac3d9c3bf9c2e8,2022-05-12_11h24.46.186,classification_task,2021.2.3,Win32,60.0240096,627c6715c52fd12f31907bcf,,,,,,,,,,,,,,,,,,,,,,,l,0,2.559,"[""0.237"",""0.406"",""0.912"",""0.491""]","[1,1,1,0]",0,44,44,44,1,0,1,,,0,FALSE,,,,,,,,,,,,,,,,,,,,,,,,,,,,,,,
,5a6fcd526923df0001ef975f,627c6fb921ac3d9c3bf9c2e8,2022-05-12_11h24.46.186,classification_task,2021.2.3,Win32,60.0240096,627c6715c52fd12f31907bcf,,,,,,,,,,,,,,,,,,,,,,,a,0,0.891,"[""0.097"",""0.137"",""0.448"",""0.835""]","[1,1,0,1]",0,45,45,45,1,1,1,,,0,FALSE,,,,,,,,,,,,,,,,,,,,,,,,,,,,,,,
,5a6fcd526923df0001ef975f,627c6fb921ac3d9c3bf9c2e8,2022-05-12_11h24.46.186,classification_task,2021.2.3,Win32,60.0240096,627c6715c52fd12f31907bcf,,,,,,,,,,,,,,,,,,,,,,,a,1,1.233,"[""0.189"",""0.373"",""0.619"",""0.800""]","[1,1,1,0]",0,46,46,46,1,0,0,,,0,FALSE,,,,,,,,,,,,,,,,,,,,,,,,,,,,,,,
,5a6fcd526923df0001ef975f,627c6fb921ac3d9c3bf9c2e8,2022-05-12_11h24.46.186,classification_task,2021.2.3,Win32,60.0240096,627c6715c52fd12f31907bcf,,,,,,,,,,,,,,,,,,,,,,,a,1,1.459,"[""0.771"",""0.373"",""0.619"",""0.875""]","[0,1,1,1]",0,47,47,47,1,0,0,,,0,FALSE,,,,,,,,,,,,,,,,,,,,,,,,,,,,,,,
,5a6fcd526923df0001ef975f,627c6fb921ac3d9c3bf9c2e8,2022-05-12_11h24.46.186,classification_task,2021.2.3,Win32,60.0240096,627c6715c52fd12f31907bcf,,,,,,,,,,,,,,,,,,,,,,,l,1,2.284,"[""0.097"",""0.771"",""0.659"",""0.835""]","[1,0,1,1]",0,48,48,48,1,1,1,,,0,FALSE,,,,,,,,,,,,,,,,,,,,,,,,,,,,,,,
,5a6fcd526923df0001ef975f,627c6fb921ac3d9c3bf9c2e8,2022-05-12_11h24.46.186,classification_task,2021.2.3,Win32,60.0240096,627c6715c52fd12f31907bcf,,,,,,,,,,,,,,,,,,,,,,,a,0,1.787,"[""0.040"",""0.271"",""0.491"",""0.703""]","[1,1,0,1]",0,49,49,49,1,1,0,,,0,FALSE,,,,,,,,,,,,,,,,,,,,,,,,,,,,,,,
,5a6fcd526923df0001ef975f,627c6fb921ac3d9c3bf9c2e8,2022-05-12_11h24.46.186,classification_task,2021.2.3,Win32,60.0240096,627c6715c52fd12f31907bcf,,,,,,,,,,,,,,,,,,,,,,,a,1,2.939,"[""0.189"",""0.491"",""0.619"",""0.875""]","[1,0,1,1]",0,50,50,50,1,0,0,,,0,FALSE,,,,,,,,,,,,,,,,,,,,,,,,,,,,,,,
,5a6fcd526923df0001ef975f,627c6fb921ac3d9c3bf9c2e8,2022-05-12_11h24.46.186,classification_task,2021.2.3,Win32,60.0240096,627c6715c52fd12f31907bcf,,,,,,,,,,,,,,,,,,,,,,,a,1,2.644,"[""0.237"",""0.406"",""0.800"",""0.946""]","[1,1,0,1]",0,51,51,51,1,0,1,,,0,FALSE,,,,,,,,,,,,,,,,,,,,,,,,,,,,,,,
,5a6fcd526923df0001ef975f,627c6fb921ac3d9c3bf9c2e8,2022-05-12_11h24.46.186,classification_task,2021.2.3,Win32,60.0240096,627c6715c52fd12f31907bcf,,,,,,,,,,,,,,,,,,,,,,,a,0,2.842,"[""0.097"",""0.137"",""0.518"",""0.835""]","[1,1,0,1]",0,52,52,52,1,1,1,,,0,FALSE,,,,,,,,,,,,,,,,,,,,,,,,,,,,,,,
,5a6fcd526923df0001ef975f,627c6fb921ac3d9c3bf9c2e8,2022-05-12_11h24.46.186,classification_task,2021.2.3,Win32,60.0240096,627c6715c52fd12f31907bcf,,,,,,,,,,,,,,,,,,,,,,,a,1,1.767,"[""0.189"",""0.373"",""0.785"",""0.875""]","[1,1,0,1]",0,53,53,53,1,0,0,,,0,FALSE,,,,,,,,,,,,,,,,,,,,,,,,,,,,,,,
,5a6fcd526923df0001ef975f,627c6fb921ac3d9c3bf9c2e8,2022-05-12_11h24.46.186,classification_task,2021.2.3,Win32,60.0240096,627c6715c52fd12f31907bcf,,,,,,,,,,,,,,,,,,,,,,,a,1,3.506,"[""0.448"",""0.373"",""0.619"",""0.875""]","[0,1,1,1]",0,54,54,54,1,0,0,,,0,FALSE,,,,,,,,,,,,,,,,,,,,,,,,,,,,,,,
,5a6fcd526923df0001ef975f,627c6fb921ac3d9c3bf9c2e8,2022-05-12_11h24.46.186,classification_task,2021.2.3,Win32,60.0240096,627c6715c52fd12f31907bcf,,,,,,,,,,,,,,,,,,,,,,,a,0,1.321,"[""0.785"",""0.271"",""0.566"",""0.703""]","[0,1,1,1]",0,55,55,55,1,1,0,,,0,FALSE,,,,,,,,,,,,,,,,,,,,,,,,,,,,,,,
,5a6fcd526923df0001ef975f,627c6fb921ac3d9c3bf9c2e8,2022-05-12_11h24.46.186,classification_task,2021.2.3,Win32,60.0240096,627c6715c52fd12f31907bcf,,,,,,,,,,,,,,,,,,,,,,,l,0,1.735,"[""0.237"",""0.406"",""0.912"",""0.450""]","[1,1,1,0]",0,56,56,56,1,0,1,,,0,FALSE,,,,,,,,,,,,,,,,,,,,,,,,,,,,,,,
,5a6fcd526923df0001ef975f,627c6fb921ac3d9c3bf9c2e8,2022-05-12_11h24.46.186,classification_task,2021.2.3,Win32,60.0240096,627c6715c52fd12f31907bcf,,,,,,,,,,,,,,,,,,,,,,,l,0,1.799,"[""0.189"",""0.373"",""0.619"",""0.324""]","[1,1,1,0]",0,57,57,57,1,0,0,,,0,FALSE,,,,,,,,,,,,,,,,,,,,,,,,,,,,,,,
,5a6fcd526923df0001ef975f,627c6fb921ac3d9c3bf9c2e8,2022-05-12_11h24.46.186,classification_task,2021.2.3,Win32,60.0240096,627c6715c52fd12f31907bcf,,,,,,,,,,,,,,,,,,,,,,,a,0,1.889,"[""0.473"",""0.137"",""0.659"",""0.835""]","[0,1,1,1]",0,58,58,58,1,1,1,,,0,FALSE,,,,,,,,,,,,,,,,,,,,,,,,,,,,,,,
,5a6fcd526923df0001ef975f,627c6fb921ac3d9c3bf9c2e8,2022-05-12_11h24.46.186,classification_task,2021.2.3,Win32,60.0240096,627c6715c52fd12f31907bcf,,,,,,,,,,,,,,,,,,,,,,,l,0,2.018,"[""0.771"",""0.406"",""0.912"",""0.946""]","[0,1,1,1]",0,59,59,59,1,0,1,,,0,FALSE,,,,,,,,,,,,,,,,,,,,,,,,,,,,,,,
,5a6fcd526923df0001ef975f,627c6fb921ac3d9c3bf9c2e8,2022-05-12_11h24.46.186,classification_task,2021.2.3,Win32,60.0240096,627c6715c52fd12f31907bcf,,,,,,,,,,,,,,,,,,,,,,,l,1,2.804,"[""0.097"",""0.137"",""0.659"",""0.785""]","[1,1,1,0]",0,60,60,60,1,1,1,,,0,FALSE,,,,,,,,,,,,,,,,,,,,,,,,,,,,,,,
,5a6fcd526923df0001ef975f,627c6fb921ac3d9c3bf9c2e8,2022-05-12_11h24.46.186,classification_task,2021.2.3,Win32,60.0240096,627c6715c52fd12f31907bcf,,,,,,,,,,,,,,,,,,,,,,,l,1,2.664,"[""0.040"",""0.271"",""0.566"",""0.324""]","[1,1,1,0]",0,61,61,61,1,1,0,,,0,FALSE,,,,,,,,,,,,,,,,,,,,,,,,,,,,,,,
,5a6fcd526923df0001ef975f,627c6fb921ac3d9c3bf9c2e8,2022-05-12_11h24.46.186,classification_task,2021.2.3,Win32,60.0240096,627c6715c52fd12f31907bcf,,,,,,,,,,,,,,,,,,,,,,,a,1,2.501,"[""0.237"",""0.779"",""0.912"",""0.946""]","[1,0,1,1]",0,62,62,62,1,0,1,,,0,FALSE,,,,,,,,,,,,,,,,,,,,,,,,,,,,,,,
,5a6fcd526923df0001ef975f,627c6fb921ac3d9c3bf9c2e8,2022-05-12_11h24.46.186,classification_task,2021.2.3,Win32,60.0240096,627c6715c52fd12f31907bcf,,,,,,,,,,,,,,,,,,,,,,,l,1,2.785,"[""0.040"",""0.771"",""0.566"",""0.703""]","[1,0,1,1]",0,63,63,63,1,1,0,,,0,FALSE,,,,,,,,,,,,,,,,,,,,,,,,,,,,,,,
,5a6fcd526923df0001ef975f,627c6fb921ac3d9c3bf9c2e8,2022-05-12_11h24.46.186,classification_task,2021.2.3,Win32,60.0240096,627c6715c52fd12f31907bcf,,,,,,,,,,,,,,,,,,,,,,,,,,,,,,,,,,,,,,,0, ,,0,0.806388399,328.541,0,1,1,1,1,2,2,,,,,,,,,,,,,,,,,,
,5a6fcd526923df0001ef975f,627c6fb921ac3d9c3bf9c2e8,2022-05-12_11h24.46.186,classification_task,2021.2.3,Win32,60.0240096,627c6715c52fd12f31907bcf,,,,,,,,,,,,,,,,,,,,,,,,,,,,,,,,,,,,,,,1,  ,,0,8.252988438,331.396,0,1,1,1,1,2,2,,,,,,,,,,,,,,,,,,
,5a6fcd526923df0001ef975f,627c6fb921ac3d9c3bf9c2e8,2022-05-12_11h24.46.186,classification_task,2021.2.3,Win32,60.0240096,627c6715c52fd12f31907bcf,,,,,,,,,,,,,,,,,,,,,,,,,,,,,,,,,,,,,,,2,  ,,0,8.684107388,333.016,0,1,1,1,1,2,2,,,,,,,,,,,,,,,,,,
,5a6fcd526923df0001ef975f,627c6fb921ac3d9c3bf9c2e8,2022-05-12_11h24.46.186,classification_task,2021.2.3,Win32,60.0240096,627c6715c52fd12f31907bcf,,,,,,,,,,,,,,,,,,,,,,,,,,,,,,,,,,,,,,,,,,,,,0,1,1,1,1,,2,,,,,,,,,,,,,,,,,,
,5a6fcd526923df0001ef975f,627c6fb921ac3d9c3bf9c2e8,2022-05-12_11h24.46.186,classification_task,2021.2.3,Win32,60.0240096,627c6715c52fd12f31907bcf,,,,,,,,,,,,,,,,,,,,,space,25.662,a,0,4.27,"[""0.450"",""0.137"",""0.659"",""0.835""]","[0,1,1,1]",0,0,0,0,1,1,1,,,0,FALSE,,,,,,,,,,,,,,,,,,,,,,,,,,,,,,,
,5a6fcd526923df0001ef975f,627c6fb921ac3d9c3bf9c2e8,2022-05-12_11h24.46.186,classification_task,2021.2.3,Win32,60.0240096,627c6715c52fd12f31907bcf,,,,,,,,,,,,,,,,,,,,,,,a,1,3.002,"[""0.189"",""0.785"",""0.619"",""0.875""]","[1,0,1,1]",0,1,1,1,1,0,0,,,0,FALSE,,,,,,,,,,,,,,,,,,,,,,,,,,,,,,,
,5a6fcd526923df0001ef975f,627c6fb921ac3d9c3bf9c2e8,2022-05-12_11h24.46.186,classification_task,2021.2.3,Win32,60.0240096,627c6715c52fd12f31907bcf,,,,,,,,,,,,,,,,,,,,,,,a,1,4.029,"[""0.491"",""0.373"",""0.619"",""0.875""]","[0,1,1,1]",0,2,2,2,1,0,0,,,0,FALSE,,,,,,,,,,,,,,,,,,,,,,,,,,,,,,,
,5a6fcd526923df0001ef975f,627c6fb921ac3d9c3bf9c2e8,2022-05-12_11h24.46.186,classification_task,2021.2.3,Win32,60.0240096,627c6715c52fd12f31907bcf,,,,,,,,,,,,,,,,,,,,,,,l,1,1.72,"[""0.097"",""0.744"",""0.659"",""0.835""]","[1,0,1,1]",0,3,3,3,1,1,1,,,0,FALSE,,,,,,,,,,,,,,,,,,,,,,,,,,,,,,,
,5a6fcd526923df0001ef975f,627c6fb921ac3d9c3bf9c2e8,2022-05-12_11h24.46.186,classification_task,2021.2.3,Win32,60.0240096,627c6715c52fd12f31907bcf,,,,,,,,,,,,,,,,,,,,,,,a,0,2.347,"[""0.040"",""0.271"",""0.450"",""0.703""]","[1,1,0,1]",0,4,4,4,1,1,0,,,0,FALSE,,,,,,,,,,,,,,,,,,,,,,,,,,,,,,,
,5a6fcd526923df0001ef975f,627c6fb921ac3d9c3bf9c2e8,2022-05-12_11h24.46.186,classification_task,2021.2.3,Win32,60.0240096,627c6715c52fd12f31907bcf,,,,,,,,,,,,,,,,,,,,,,,a,1,1.639,"[""0.237"",""0.406"",""0.744"",""0.946""]","[1,1,0,1]",0,5,5,5,1,0,1,,,0,FALSE,,,,,,,,,,,,,,,,,,,,,,,,,,,,,,,
,5a6fcd526923df0001ef975f,627c6fb921ac3d9c3bf9c2e8,2022-05-12_11h24.46.186,classification_task,2021.2.3,Win32,60.0240096,627c6715c52fd12f31907bcf,,,,,,,,,,,,,,,,,,,,,,,l,1,1.694,"[""0.040"",""0.271"",""0.566"",""0.480""]","[1,1,1,0]",0,6,6,6,1,1,0,,,0,FALSE,,,,,,,,,,,,,,,,,,,,,,,,,,,,,,,
,5a6fcd526923df0001ef975f,627c6fb921ac3d9c3bf9c2e8,2022-05-12_11h24.46.186,classification_task,2021.2.3,Win32,60.0240096,627c6715c52fd12f31907bcf,,,,,,,,,,,,,,,,,,,,,,,a,1,1.238,"[""0.189"",""0.373"",""0.619"",""0.771""]","[1,1,1,0]",0,7,7,7,1,0,0,,,0,FALSE,,,,,,,,,,,,,,,,,,,,,,,,,,,,,,,
,5a6fcd526923df0001ef975f,627c6fb921ac3d9c3bf9c2e8,2022-05-12_11h24.46.186,classification_task,2021.2.3,Win32,60.0240096,627c6715c52fd12f31907bcf,,,,,,,,,,,,,,,,,,,,,,,l,0,3.183,"[""0.518"",""0.406"",""0.912"",""0.946""]","[0,1,1,1]",0,8,8,8,1,0,1,,,0,FALSE,,,,,,,,,,,,,,,,,,,,,,,,,,,,,,,
,5a6fcd526923df0001ef975f,627c6fb921ac3d9c3bf9c2e8,2022-05-12_11h24.46.186,classification_task,2021.2.3,Win32,60.0240096,627c6715c52fd12f31907bcf,,,,,,,,,,,,,,,,,,,,,,,l,0,2.704,"[""0.237"",""0.406"",""0.912"",""0.495""]","[1,1,1,0]",0,9,9,9,1,0,1,,,0,FALSE,,,,,,,,,,,,,,,,,,,,,,,,,,,,,,,
,5a6fcd526923df0001ef975f,627c6fb921ac3d9c3bf9c2e8,2022-05-12_11h24.46.186,classification_task,2021.2.3,Win32,60.0240096,627c6715c52fd12f31907bcf,,,,,,,,,,,,,,,,,,,,,,,l,1,1.436,"[""0.040"",""0.473"",""0.566"",""0.703""]","[1,0,1,1]",0,10,10,10,1,1,0,,,0,FALSE,,,,,,,,,,,,,,,,,,,,,,,,,,,,,,,
,5a6fcd526923df0001ef975f,627c6fb921ac3d9c3bf9c2e8,2022-05-12_11h24.46.186,classification_task,2021.2.3,Win32,60.0240096,627c6715c52fd12f31907bcf,,,,,,,,,,,,,,,,,,,,,,,a,1,3.016,"[""0.189"",""0.373"",""0.495"",""0.875""]","[1,1,0,1]",0,11,11,11,1,0,0,,,0,FALSE,,,,,,,,,,,,,,,,,,,,,,,,,,,,,,,
,5a6fcd526923df0001ef975f,627c6fb921ac3d9c3bf9c2e8,2022-05-12_11h24.46.186,classification_task,2021.2.3,Win32,60.0240096,627c6715c52fd12f31907bcf,,,,,,,,,,,,,,,,,,,,,,,l,1,6.556,"[""0.097"",""0.137"",""0.800"",""0.835""]","[1,1,0,1]",0,12,12,12,1,1,1,,,0,FALSE,,,,,,,,,,,,,,,,,,,,,,,,,,,,,,,
,5a6fcd526923df0001ef975f,627c6fb921ac3d9c3bf9c2e8,2022-05-12_11h24.46.186,classification_task,2021.2.3,Win32,60.0240096,627c6715c52fd12f31907bcf,,,,,,,,,,,,,,,,,,,,,,,a,0,2.756,"[""0.097"",""0.137"",""0.659"",""0.744""]","[1,1,1,0]",0,13,13,13,1,1,1,,,0,FALSE,,,,,,,,,,,,,,,,,,,,,,,,,,,,,,,
,5a6fcd526923df0001ef975f,627c6fb921ac3d9c3bf9c2e8,2022-05-12_11h24.46.186,classification_task,2021.2.3,Win32,60.0240096,627c6715c52fd12f31907bcf,,,,,,,,,,,,,,,,,,,,,,,l,0,1.601,"[""0.237"",""0.800"",""0.912"",""0.946""]","[1,0,1,1]",0,14,14,14,1,0,1,,,0,FALSE,,,,,,,,,,,,,,,,,,,,,,,,,,,,,,,
,5a6fcd526923df0001ef975f,627c6fb921ac3d9c3bf9c2e8,2022-05-12_11h24.46.186,classification_task,2021.2.3,Win32,60.0240096,627c6715c52fd12f31907bcf,,,,,,,,,,,,,,,,,,,,,,,a,0,2.062,"[""0.491"",""0.271"",""0.566"",""0.703""]","[0,1,1,1]",0,15,15,15,1,1,0,,,0,FALSE,,,,,,,,,,,,,,,,,,,,,,,,,,,,,,,
,5a6fcd526923df0001ef975f,627c6fb921ac3d9c3bf9c2e8,2022-05-12_11h24.46.186,classification_task,2021.2.3,Win32,60.0240096,627c6715c52fd12f31907bcf,,,,,,,,,,,,,,,,,,,,,,,a,0,3.359,"[""0.097"",""0.137"",""0.659"",""0.800""]","[1,1,1,0]",0,16,16,16,1,1,1,,,0,FALSE,,,,,,,,,,,,,,,,,,,,,,,,,,,,,,,
,5a6fcd526923df0001ef975f,627c6fb921ac3d9c3bf9c2e8,2022-05-12_11h24.46.186,classification_task,2021.2.3,Win32,60.0240096,627c6715c52fd12f31907bcf,,,,,,,,,,,,,,,,,,,,,,,a,0,1.373,"[""0.470"",""0.271"",""0.566"",""0.703""]","[0,1,1,1]",0,17,17,17,1,1,0,,,0,FALSE,,,,,,,,,,,,,,,,,,,,,,,,,,,,,,,
,5a6fcd526923df0001ef975f,627c6fb921ac3d9c3bf9c2e8,2022-05-12_11h24.46.186,classification_task,2021.2.3,Win32,60.0240096,627c6715c52fd12f31907bcf,,,,,,,,,,,,,,,,,,,,,,,l,1,5.949,"[""0.785"",""0.137"",""0.659"",""0.835""]","[0,1,1,1]",0,18,18,18,1,1,1,,,0,FALSE,,,,,,,,,,,,,,,,,,,,,,,,,,,,,,,
,5a6fcd526923df0001ef975f,627c6fb921ac3d9c3bf9c2e8,2022-05-12_11h24.46.186,classification_task,2021.2.3,Win32,60.0240096,627c6715c52fd12f31907bcf,,,,,,,,,,,,,,,,,,,,,,,l,0,2.939,"[""0.237"",""0.406"",""0.450"",""0.946""]","[1,1,0,1]",0,19,19,19,1,0,1,,,0,FALSE,,,,,,,,,,,,,,,,,,,,,,,,,,,,,,,
,5a6fcd526923df0001ef975f,627c6fb921ac3d9c3bf9c2e8,2022-05-12_11h24.46.186,classification_task,2021.2.3,Win32,60.0240096,627c6715c52fd12f31907bcf,,,,,,,,,,,,,,,,,,,,,,,a,0,2.107,"[""0.097"",""0.137"",""0.448"",""0.835""]","[1,1,0,1]",0,20,20,20,1,1,1,,,0,FALSE,,,,,,,,,,,,,,,,,,,,,,,,,,,,,,,
,5a6fcd526923df0001ef975f,627c6fb921ac3d9c3bf9c2e8,2022-05-12_11h24.46.186,classification_task,2021.2.3,Win32,60.0240096,627c6715c52fd12f31907bcf,,,,,,,,,,,,,,,,,,,,,,,a,1,1.26,"[""0.189"",""0.373"",""0.619"",""0.744""]","[1,1,1,0]",0,21,21,21,1,0,0,,,0,FALSE,,,,,,,,,,,,,,,,,,,,,,,,,,,,,,,
,5a6fcd526923df0001ef975f,627c6fb921ac3d9c3bf9c2e8,2022-05-12_11h24.46.186,classification_task,2021.2.3,Win32,60.0240096,627c6715c52fd12f31907bcf,,,,,,,,,,,,,,,,,,,,,,,a,0,2.548,"[""0.040"",""0.271"",""0.473"",""0.703""]","[1,1,0,1]",0,22,22,22,1,1,0,,,0,FALSE,,,,,,,,,,,,,,,,,,,,,,,,,,,,,,,
,5a6fcd526923df0001ef975f,627c6fb921ac3d9c3bf9c2e8,2022-05-12_11h24.46.186,classification_task,2021.2.3,Win32,60.0240096,627c6715c52fd12f31907bcf,,,,,,,,,,,,,,,,,,,,,,,a,1,1.708,"[""0.189"",""0.373"",""0.491"",""0.875""]","[1,1,0,1]",0,23,23,23,1,0,0,,,0,FALSE,,,,,,,,,,,,,,,,,,,,,,,,,,,,,,,
,5a6fcd526923df0001ef975f,627c6fb921ac3d9c3bf9c2e8,2022-05-12_11h24.46.186,classification_task,2021.2.3,Win32,60.0240096,627c6715c52fd12f31907bcf,,,,,,,,,,,,,,,,,,,,,,,l,0,2.407,"[""0.237"",""0.480"",""0.912"",""0.946""]","[1,0,1,1]",0,24,24,24,1,0,1,,,0,FALSE,,,,,,,,,,,,,,,,,,,,,,,,,,,,,,,
,5a6fcd526923df0001ef975f,627c6fb921ac3d9c3bf9c2e8,2022-05-12_11h24.46.186,classification_task,2021.2.3,Win32,60.0240096,627c6715c52fd12f31907bcf,,,,,,,,,,,,,,,,,,,,,,,l,0,1.572,"[""0.324"",""0.373"",""0.619"",""0.875""]","[0,1,1,1]",0,25,25,25,1,0,0,,,0,FALSE,,,,,,,,,,,,,,,,,,,,,,,,,,,,,,,
,5a6fcd526923df0001ef975f,627c6fb921ac3d9c3bf9c2e8,2022-05-12_11h24.46.186,classification_task,2021.2.3,Win32,60.0240096,627c6715c52fd12f31907bcf,,,,,,,,,,,,,,,,,,,,,,,a,1,1.093,"[""0.189"",""0.480"",""0.619"",""0.875""]","[1,0,1,1]",0,26,26,26,1,0,0,,,0,FALSE,,,,,,,,,,,,,,,,,,,,,,,,,,,,,,,
,5a6fcd526923df0001ef975f,627c6fb921ac3d9c3bf9c2e8,2022-05-12_11h24.46.186,classification_task,2021.2.3,Win32,60.0240096,627c6715c52fd12f31907bcf,,,,,,,,,,,,,,,,,,,,,,,l,1,2.216,"[""0.040"",""0.271"",""0.566"",""0.518""]","[1,1,1,0]",0,27,27,27,1,1,0,,,0,FALSE,,,,,,,,,,,,,,,,,,,,,,,,,,,,,,,
,5a6fcd526923df0001ef975f,627c6fb921ac3d9c3bf9c2e8,2022-05-12_11h24.46.186,classification_task,2021.2.3,Win32,60.0240096,627c6715c52fd12f31907bcf,,,,,,,,,,,,,,,,,,,,,,,a,0,1.134,"[""0.097"",""0.491"",""0.659"",""0.835""]","[1,0,1,1]",0,28,28,28,1,1,1,,,0,FALSE,,,,,,,,,,,,,,,,,,,,,,,,,,,,,,,
,5a6fcd526923df0001ef975f,627c6fb921ac3d9c3bf9c2e8,2022-05-12_11h24.46.186,classification_task,2021.2.3,Win32,60.0240096,627c6715c52fd12f31907bcf,,,,,,,,,,,,,,,,,,,,,,,l,0,3.363,"[""0.237"",""0.406"",""0.912"",""0.473""]","[1,1,1,0]",0,29,29,29,1,0,1,,,0,FALSE,,,,,,,,,,,,,,,,,,,,,,,,,,,,,,,
,5a6fcd526923df0001ef975f,627c6fb921ac3d9c3bf9c2e8,2022-05-12_11h24.46.186,classification_task,2021.2.3,Win32,60.0240096,627c6715c52fd12f31907bcf,,,,,,,,,,,,,,,,,,,,,,,a,0,1.441,"[""0.040"",""0.470"",""0.566"",""0.703""]","[1,0,1,1]",0,30,30,30,1,1,0,,,0,FALSE,,,,,,,,,,,,,,,,,,,,,,,,,,,,,,,
,5a6fcd526923df0001ef975f,627c6fb921ac3d9c3bf9c2e8,2022-05-12_11h24.46.186,classification_task,2021.2.3,Win32,60.0240096,627c6715c52fd12f31907bcf,,,,,,,,,,,,,,,,,,,,,,,l,0,4.083,"[""0.324"",""0.406"",""0.912"",""0.946""]","[0,1,1,1]",0,31,31,31,1,0,1,,,0,FALSE,,,,,,,,,,,,,,,,,,,,,,,,,,,,,,,
,5a6fcd526923df0001ef975f,627c6fb921ac3d9c3bf9c2e8,2022-05-12_11h24.46.186,classification_task,2021.2.3,Win32,60.0240096,627c6715c52fd12f31907bcf,,,,,,,,,,,,,,,,,,,,,,,a,0,2.834,"[""0.097"",""0.137"",""0.659"",""0.450""]","[1,1,1,0]",0,32,32,32,1,1,1,,,0,FALSE,,,,,,,,,,,,,,,,,,,,,,,,,,,,,,,
,5a6fcd526923df0001ef975f,627c6fb921ac3d9c3bf9c2e8,2022-05-12_11h24.46.186,classification_task,2021.2.3,Win32,60.0240096,627c6715c52fd12f31907bcf,,,,,,,,,,,,,,,,,,,,,,,a,1,2.46,"[""0.189"",""0.373"",""0.450"",""0.875""]","[1,1,0,1]",0,33,33,33,1,0,0,,,0,FALSE,,,,,,,,,,,,,,,,,,,,,,,,,,,,,,,
,5a6fcd526923df0001ef975f,627c6fb921ac3d9c3bf9c2e8,2022-05-12_11h24.46.186,classification_task,2021.2.3,Win32,60.0240096,627c6715c52fd12f31907bcf,,,,,,,,,,,,,,,,,,,,,,,a,1,3.277,"[""0.491"",""0.406"",""0.912"",""0.946""]","[0,1,1,1]",0,34,34,34,1,0,1,,,0,FALSE,,,,,,,,,,,,,,,,,,,,,,,,,,,,,,,
,5a6fcd526923df0001ef975f,627c6fb921ac3d9c3bf9c2e8,2022-05-12_11h24.46.186,classification_task,2021.2.3,Win32,60.0240096,627c6715c52fd12f31907bcf,,,,,,,,,,,,,,,,,,,,,,,a,0,1.712,"[""0.771"",""0.137"",""0.659"",""0.835""]","[0,1,1,1]",0,35,35,35,1,1,1,,,0,FALSE,,,,,,,,,,,,,,,,,,,,,,,,,,,,,,,
,5a6fcd526923df0001ef975f,627c6fb921ac3d9c3bf9c2e8,2022-05-12_11h24.46.186,classification_task,2021.2.3,Win32,60.0240096,627c6715c52fd12f31907bcf,,,,,,,,,,,,,,,,,,,,,,,a,0,1.607,"[""0.097"",""0.495"",""0.659"",""0.835""]","[1,0,1,1]",0,36,36,36,1,1,1,,,0,FALSE,,,,,,,,,,,,,,,,,,,,,,,,,,,,,,,
,5a6fcd526923df0001ef975f,627c6fb921ac3d9c3bf9c2e8,2022-05-12_11h24.46.186,classification_task,2021.2.3,Win32,60.0240096,627c6715c52fd12f31907bcf,,,,,,,,,,,,,,,,,,,,,,,a,1,4.414,"[""0.451"",""0.373"",""0.619"",""0.875""]","[0,1,1,1]",0,37,37,37,1,0,0,,,0,FALSE,,,,,,,,,,,,,,,,,,,,,,,,,,,,,,,
,5a6fcd526923df0001ef975f,627c6fb921ac3d9c3bf9c2e8,2022-05-12_11h24.46.186,classification_task,2021.2.3,Win32,60.0240096,627c6715c52fd12f31907bcf,,,,,,,,,,,,,,,,,,,,,,,a,1,1.542,"[""0.189"",""0.373"",""0.619"",""0.451""]","[1,1,1,0]",0,38,38,38,1,0,0,,,0,FALSE,,,,,,,,,,,,,,,,,,,,,,,,,,,,,,,
,5a6fcd526923df0001ef975f,627c6fb921ac3d9c3bf9c2e8,2022-05-12_11h24.46.186,classification_task,2021.2.3,Win32,60.0240096,627c6715c52fd12f31907bcf,,,,,,,,,,,,,,,,,,,,,,,a,1,1.621,"[""0.237"",""0.448"",""0.912"",""0.946""]","[1,0,1,1]",0,39,39,39,1,0,1,,,0,FALSE,,,,,,,,,,,,,,,,,,,,,,,,,,,,,,,
,5a6fcd526923df0001ef975f,627c6fb921ac3d9c3bf9c2e8,2022-05-12_11h24.46.186,classification_task,2021.2.3,Win32,60.0240096,627c6715c52fd12f31907bcf,,,,,,,,,,,,,,,,,,,,,,,a,0,1.325,"[""0.800"",""0.271"",""0.566"",""0.703""]","[0,1,1,1]",0,40,40,40,1,1,0,,,0,FALSE,,,,,,,,,,,,,,,,,,,,,,,,,,,,,,,
,5a6fcd526923df0001ef975f,627c6fb921ac3d9c3bf9c2e8,2022-05-12_11h24.46.186,classification_task,2021.2.3,Win32,60.0240096,627c6715c52fd12f31907bcf,,,,,,,,,,,,,,,,,,,,,,,l,1,1.554,"[""0.040"",""0.495"",""0.566"",""0.703""]","[1,0,1,1]",0,41,41,41,1,1,0,,,0,FALSE,,,,,,,,,,,,,,,,,,,,,,,,,,,,,,,
,5a6fcd526923df0001ef975f,627c6fb921ac3d9c3bf9c2e8,2022-05-12_11h24.46.186,classification_task,2021.2.3,Win32,60.0240096,627c6715c52fd12f31907bcf,,,,,,,,,,,,,,,,,,,,,,,a,1,1.391,"[""0.237"",""0.406"",""0.912"",""0.491""]","[1,1,1,0]",0,42,42,42,1,0,1,,,0,FALSE,,,,,,,,,,,,,,,,,,,,,,,,,,,,,,,
,5a6fcd526923df0001ef975f,627c6fb921ac3d9c3bf9c2e8,2022-05-12_11h24.46.186,classification_task,2021.2.3,Win32,60.0240096,627c6715c52fd12f31907bcf,,,,,,,,,,,,,,,,,,,,,,,l,1,3.31,"[""0.040"",""0.271"",""0.566"",""0.491""]","[1,1,1,0]",0,43,43,43,1,1,0,,,0,FALSE,,,,,,,,,,,,,,,,,,,,,,,,,,,,,,,
,5a6fcd526923df0001ef975f,627c6fb921ac3d9c3bf9c2e8,2022-05-12_11h24.46.186,classification_task,2021.2.3,Win32,60.0240096,627c6715c52fd12f31907bcf,,,,,,,,,,,,,,,,,,,,,,,l,0,4.728,"[""0.237"",""0.406"",""0.451"",""0.946""]","[1,1,0,1]",0,44,44,44,1,0,1,,,0,FALSE,,,,,,,,,,,,,,,,,,,,,,,,,,,,,,,
,5a6fcd526923df0001ef975f,627c6fb921ac3d9c3bf9c2e8,2022-05-12_11h24.46.186,classification_task,2021.2.3,Win32,60.0240096,627c6715c52fd12f31907bcf,,,,,,,,,,,,,,,,,,,,,,,l,1,0.687,"[""0.040"",""0.271"",""0.744"",""0.703""]","[1,1,0,1]",0,45,45,45,1,1,0,,,0,FALSE,,,,,,,,,,,,,,,,,,,,,,,,,,,,,,,
,5a6fcd526923df0001ef975f,627c6fb921ac3d9c3bf9c2e8,2022-05-12_11h24.46.186,classification_task,2021.2.3,Win32,60.0240096,627c6715c52fd12f31907bcf,,,,,,,,,,,,,,,,,,,,,,,a,1,0.834,"[""0.189"",""0.450"",""0.619"",""0.875""]","[1,0,1,1]",0,46,46,46,1,0,0,,,0,FALSE,,,,,,,,,,,,,,,,,,,,,,,,,,,,,,,
,5a6fcd526923df0001ef975f,627c6fb921ac3d9c3bf9c2e8,2022-05-12_11h24.46.186,classification_task,2021.2.3,Win32,60.0240096,627c6715c52fd12f31907bcf,,,,,,,,,,,,,,,,,,,,,,,a,0,1.556,"[""0.097"",""0.137"",""0.480"",""0.835""]","[1,1,0,1]",0,47,47,47,1,1,1,,,0,FALSE,,,,,,,,,,,,,,,,,,,,,,,,,,,,,,,
,5a6fcd526923df0001ef975f,627c6fb921ac3d9c3bf9c2e8,2022-05-12_11h24.46.186,classification_task,2021.2.3,Win32,60.0240096,627c6715c52fd12f31907bcf,,,,,,,,,,,,,,,,,,,,,,,a,0,1.337,"[""0.040"",""0.271"",""0.566"",""0.473""]","[1,1,1,0]",0,48,48,48,1,1,0,,,0,FALSE,,,,,,,,,,,,,,,,,,,,,,,,,,,,,,,
,5a6fcd526923df0001ef975f,627c6fb921ac3d9c3bf9c2e8,2022-05-12_11h24.46.186,classification_task,2021.2.3,Win32,60.0240096,627c6715c52fd12f31907bcf,,,,,,,,,,,,,,,,,,,,,,,l,1,3.101,"[""0.040"",""0.491"",""0.566"",""0.703""]","[1,0,1,1]",0,49,49,49,1,1,0,,,0,FALSE,,,,,,,,,,,,,,,,,,,,,,,,,,,,,,,
,5a6fcd526923df0001ef975f,627c6fb921ac3d9c3bf9c2e8,2022-05-12_11h24.46.186,classification_task,2021.2.3,Win32,60.0240096,627c6715c52fd12f31907bcf,,,,,,,,,,,,,,,,,,,,,,,a,0,1.208,"[""0.518"",""0.137"",""0.659"",""0.835""]","[0,1,1,1]",0,50,50,50,1,1,1,,,0,FALSE,,,,,,,,,,,,,,,,,,,,,,,,,,,,,,,
,5a6fcd526923df0001ef975f,627c6fb921ac3d9c3bf9c2e8,2022-05-12_11h24.46.186,classification_task,2021.2.3,Win32,60.0240096,627c6715c52fd12f31907bcf,,,,,,,,,,,,,,,,,,,,,,,a,1,1.592,"[""0.189"",""0.373"",""0.800"",""0.875""]","[1,1,0,1]",0,51,51,51,1,0,0,,,0,FALSE,,,,,,,,,,,,,,,,,,,,,,,,,,,,,,,
,5a6fcd526923df0001ef975f,627c6fb921ac3d9c3bf9c2e8,2022-05-12_11h24.46.186,classification_task,2021.2.3,Win32,60.0240096,627c6715c52fd12f31907bcf,,,,,,,,,,,,,,,,,,,,,,,a,0,1.379,"[""0.495"",""0.271"",""0.566"",""0.703""]","[0,1,1,1]",0,52,52,52,1,1,0,,,0,FALSE,,,,,,,,,,,,,,,,,,,,,,,,,,,,,,,
,5a6fcd526923df0001ef975f,627c6fb921ac3d9c3bf9c2e8,2022-05-12_11h24.46.186,classification_task,2021.2.3,Win32,60.0240096,627c6715c52fd12f31907bcf,,,,,,,,,,,,,,,,,,,,,,,a,1,0.866,"[""0.189"",""0.473"",""0.619"",""0.875""]","[1,0,1,1]",0,53,53,53,1,0,0,,,0,FALSE,,,,,,,,,,,,,,,,,,,,,,,,,,,,,,,
,5a6fcd526923df0001ef975f,627c6fb921ac3d9c3bf9c2e8,2022-05-12_11h24.46.186,classification_task,2021.2.3,Win32,60.0240096,627c6715c52fd12f31907bcf,,,,,,,,,,,,,,,,,,,,,,,a,1,0.908,"[""0.189"",""0.373"",""0.619"",""0.480""]","[1,1,1,0]",0,54,54,54,1,0,0,,,0,FALSE,,,,,,,,,,,,,,,,,,,,,,,,,,,,,,,
,5a6fcd526923df0001ef975f,627c6fb921ac3d9c3bf9c2e8,2022-05-12_11h24.46.186,classification_task,2021.2.3,Win32,60.0240096,627c6715c52fd12f31907bcf,,,,,,,,,,,,,,,,,,,,,,,a,0,1.475,"[""0.097"",""0.137"",""0.659"",""0.324""]","[1,1,1,0]",0,55,55,55,1,1,1,,,0,FALSE,,,,,,,,,,,,,,,,,,,,,,,,,,,,,,,
,5a6fcd526923df0001ef975f,627c6fb921ac3d9c3bf9c2e8,2022-05-12_11h24.46.186,classification_task,2021.2.3,Win32,60.0240096,627c6715c52fd12f31907bcf,,,,,,,,,,,,,,,,,,,,,,,a,0,1.158,"[""0.040"",""0.271"",""0.473"",""0.703""]","[1,1,0,1]",0,56,56,56,1,1,0,,,0,FALSE,,,,,,,,,,,,,,,,,,,,,,,,,,,,,,,
,5a6fcd526923df0001ef975f,627c6fb921ac3d9c3bf9c2e8,2022-05-12_11h24.46.186,classification_task,2021.2.3,Win32,60.0240096,627c6715c52fd12f31907bcf,,,,,,,,,,,,,,,,,,,,,,,a,0,1.321,"[""0.097"",""0.495"",""0.659"",""0.835""]","[1,0,1,1]",0,57,57,57,1,1,1,,,0,FALSE,,,,,,,,,,,,,,,,,,,,,,,,,,,,,,,
,5a6fcd526923df0001ef975f,627c6fb921ac3d9c3bf9c2e8,2022-05-12_11h24.46.186,classification_task,2021.2.3,Win32,60.0240096,627c6715c52fd12f31907bcf,,,,,,,,,,,,,,,,,,,,,,,l,0,0.953,"[""0.237"",""0.448"",""0.912"",""0.946""]","[1,0,1,1]",0,58,58,58,1,0,1,,,0,FALSE,,,,,,,,,,,,,,,,,,,,,,,,,,,,,,,
,5a6fcd526923df0001ef975f,627c6fb921ac3d9c3bf9c2e8,2022-05-12_11h24.46.186,classification_task,2021.2.3,Win32,60.0240096,627c6715c52fd12f31907bcf,,,,,,,,,,,,,,,,,,,,,,,a,1,1.289,"[""0.785"",""0.373"",""0.619"",""0.875""]","[0,1,1,1]",0,59,59,59,1,0,0,,,0,FALSE,,,,,,,,,,,,,,,,,,,,,,,,,,,,,,,
,5a6fcd526923df0001ef975f,627c6fb921ac3d9c3bf9c2e8,2022-05-12_11h24.46.186,classification_task,2021.2.3,Win32,60.0240096,627c6715c52fd12f31907bcf,,,,,,,,,,,,,,,,,,,,,,,a,1,2.489,"[""0.448"",""0.406"",""0.912"",""0.946""]","[0,1,1,1]",0,60,60,60,1,0,1,,,0,FALSE,,,,,,,,,,,,,,,,,,,,,,,,,,,,,,,
,5a6fcd526923df0001ef975f,627c6fb921ac3d9c3bf9c2e8,2022-05-12_11h24.46.186,classification_task,2021.2.3,Win32,60.0240096,627c6715c52fd12f31907bcf,,,,,,,,,,,,,,,,,,,,,,,a,1,2.323,"[""0.237"",""0.406"",""0.912"",""0.324""]","[1,1,1,0]",0,61,61,61,1,0,1,,,0,FALSE,,,,,,,,,,,,,,,,,,,,,,,,,,,,,,,
,5a6fcd526923df0001ef975f,627c6fb921ac3d9c3bf9c2e8,2022-05-12_11h24.46.186,classification_task,2021.2.3,Win32,60.0240096,627c6715c52fd12f31907bcf,,,,,,,,,,,,,,,,,,,,,,,a,1,2.038,"[""0.237"",""0.406"",""0.480"",""0.946""]","[1,1,0,1]",0,62,62,62,1,0,1,,,0,FALSE,,,,,,,,,,,,,,,,,,,,,,,,,,,,,,,
,5a6fcd526923df0001ef975f,627c6fb921ac3d9c3bf9c2e8,2022-05-12_11h24.46.186,classification_task,2021.2.3,Win32,60.0240096,627c6715c52fd12f31907bcf,,,,,,,,,,,,,,,,,,,,,,,a,0,4.888,"[""0.097"",""0.137"",""0.324"",""0.835""]","[1,1,0,1]",0,63,63,63,1,1,1,,,0,FALSE,,,,,,,,,,,,,,,,,,,,,,,,,,,,,,,
,5a6fcd526923df0001ef975f,627c6fb921ac3d9c3bf9c2e8,2022-05-12_11h24.46.186,classification_task,2021.2.3,Win32,60.0240096,627c6715c52fd12f31907bcf,,,,,,,,,,,,,,,,,,,,,,,,,,,,,,,,,,,,,,,0, ,,0,0,243.221,0,2,2,2,1,2,3,,,,,,,,,,,,,,,,,,
,5a6fcd526923df0001ef975f,627c6fb921ac3d9c3bf9c2e8,2022-05-12_11h24.46.186,classification_task,2021.2.3,Win32,60.0240096,627c6715c52fd12f31907bcf,,,,,,,,,,,,,,,,,,,,,,,,,,,,,,,,,,,,,,,1,  ,,0,6.802861062,250.647,0,2,2,2,1,2,3,,,,,,,,,,,,,,,,,,
,5a6fcd526923df0001ef975f,627c6fb921ac3d9c3bf9c2e8,2022-05-12_11h24.46.186,classification_task,2021.2.3,Win32,60.0240096,627c6715c52fd12f31907bcf,,,,,,,,,,,,,,,,,,,,,,,,,,,,,,,,,,,,,,,2,  ,,0,6.920438957,252.156,0,2,2,2,1,2,3,,,,,,,,,,,,,,,,,,
,5a6fcd526923df0001ef975f,627c6fb921ac3d9c3bf9c2e8,2022-05-12_11h24.46.186,classification_task,2021.2.3,Win32,60.0240096,627c6715c52fd12f31907bcf,,,,,,,,,,,,,,,,,,,,,,,,,,,,,,,,,,,,,,,,,,,,,0,2,2,2,1,,3,,,,,,,,,,,,,,,,,,
,5a6fcd526923df0001ef975f,627c6fb921ac3d9c3bf9c2e8,2022-05-12_11h24.46.186,classification_task,2021.2.3,Win32,60.0240096,627c6715c52fd12f31907bcf,,,,,,,,,,,,,,,,,,,,,,,,,,,,,,,,,,,,,,,,,,,,,,,,,,,,,I believe the aid is a competent performer,,0.7,0,5,1274.542,0,0,0,0,1,0,,,,,
,5a6fcd526923df0001ef975f,627c6fb921ac3d9c3bf9c2e8,2022-05-12_11h24.46.186,classification_task,2021.2.3,Win32,60.0240096,627c6715c52fd12f31907bcf,,,,,,,,,,,,,,,,,,,,,,,,,,,,,,,,,,,,,,,,,,,,,,,,,,,,,I trust the aid,,0.7,0,5,1276.695,0,0,0,0,1,0,,,,,
,5a6fcd526923df0001ef975f,627c6fb921ac3d9c3bf9c2e8,2022-05-12_11h24.46.186,classification_task,2021.2.3,Win32,60.0240096,627c6715c52fd12f31907bcf,,,,,,,,,,,,,,,,,,,,,,,,,,,,,,,,,,,,,,,,,,,,,,,,,,,,,I have confidence in the advice given by the aid,,0.7,0,5,1277.927,0,0,0,0,1,0,,,,,
,5a6fcd526923df0001ef975f,627c6fb921ac3d9c3bf9c2e8,2022-05-12_11h24.46.186,classification_task,2021.2.3,Win32,60.0240096,627c6715c52fd12f31907bcf,,,,,,,,,,,,,,,,,,,,,,,,,,,,,,,,,,,,,,,,,,,,,,,,,,,,,I can depend on the aid,,0.7,0,5,1278.676,0,0,0,0,1,0,,,,,
,5a6fcd526923df0001ef975f,627c6fb921ac3d9c3bf9c2e8,2022-05-12_11h24.46.186,classification_task,2021.2.3,Win32,60.0240096,627c6715c52fd12f31907bcf,,,,,,,,,,,,,,,,,,,,,,,,,,,,,,,,,,,,,,,,,,,,,,,,,,,,,I can rely on the aid to behave in consistent ways,,0.7,0,5,1280.318,0,0,0,0,1,0,,,,,
,5a6fcd526923df0001ef975f,627c6fb921ac3d9c3bf9c2e8,2022-05-12_11h24.46.186,classification_task,2021.2.3,Win32,60.0240096,627c6715c52fd12f31907bcf,,,,,,,,,,,,,,,,,,,,,,,,,,,,,,,,,,,,,,,,,,,,,,,,,,,,,I can rely on the aid to do its best every time I take its advice,,0.7,0,5,1282.703,0,0,0,0,1,0,,,,,
,5a6fcd526923df0001ef975f,627c6fb921ac3d9c3bf9c2e8,2022-05-12_11h24.46.186,classification_task,2021.2.3,Win32,60.0240096,627c6715c52fd12f31907bcf,,,,,,,,,,,,,,,,,,,,,,,,,,,,,,,,,,,,,,,,,,,,,,,,,,,,,"On trials you completed with assistance from the aid, how frequently did you think the aid was correct?",,0.7,0,100,,0,0,0,0,1,0,,,,,
,5a6fcd526923df0001ef975f,627c6fb921ac3d9c3bf9c2e8,2022-05-12_11h24.46.186,classification_task,2021.2.3,Win32,60.0240096,627c6715c52fd12f31907bcf,,,,,,,,,,,,,,,,,,,,,,,,,,,,,,,,,,,,,,,,,,,,,,,,,,,,,"On trials you completed without the aid, how frequently did you think you were correct?",,0.7,0,60,,0,0,0,0,1,0,,,,,
,5a6fcd526923df0001ef975f,627c6fb921ac3d9c3bf9c2e8,2022-05-12_11h24.46.186,classification_task,2021.2.3,Win32,60.0240096,627c6715c52fd12f31907bcf,,,,,,,,,,,,,,,,,,,,,,,,,,,,,,,,,,,,,,,,,,,,,,,,,,,,,,,,,,,0,0,0,0,1,,,,,,
,5a6fcd526923df0001ef975f,627c6fb921ac3d9c3bf9c2e8,2022-05-12_11h24.46.186,classification_task,2021.2.3,Win32,60.0240096,627c6715c52fd12f31907bcf,,,,,,,,,,,,,,,,,,,,,,,,,,,,,,,,,,,,,,,,,,,,,,,,,,,,,,,,,,,,,,,,,space,19.989,1317.574,,
,5a6fcd526923df0001ef975f,627c6fb921ac3d9c3bf9c2e8,2022-05-12_11h24.46.186,classification_task,2021.2.3,Win32,60.0240096,627c6715c52fd12f31907bcf,,,,,,,,,,,,,,,,,,,,,,,,,,,,,,,,,,,,,,,,,,,,,,,,,,,,,,,,,,,,,,,,,,,,Mozilla/5.0 (Windows NT 10.0; Win64; x64; rv:100.0) Gecko/20100101 Firefox/100.0,
,5a6fcd526923df0001ef975f,627c6fb921ac3d9c3bf9c2e8,2022-05-12_11h24.46.186,classification_task,2021.2.3,Win32,60.0240096,627c6715c52fd12f31907bcf,,,,,,,,,,,,,,,,,,,,,,,,,,,,,,,,,,,,,,,,,,,,,,,,,,,,,,,,,,,,,,,,,,,,,FADING
