usingWebGL,participant,session,date,expName,psychopyVersion,OS,frameRate,study_id,signatures_friend,signatures_foe,band_ranges_top,band_ranges_bottom,formitemText,formtype,formundefined,formitemWidth,formindex,formresponse,formrt,key_resp_2.keys,key_resp_2.rt,tute_resp.keys,tute_resp.rt,tutorial.thisRepN,tutorial.thisTrialN,tutorial.thisN,tutorial.thisIndex,tutorial.ran,key_resp_4.keys,key_resp_4.rt,key_resp.keys,key_resp.corr,key_resp.rt,lines_presented,is_signal_presented,trials.thisRepN,trials.thisTrialN,trials.thisN,trials.thisIndex,trials.ran,vessel,active_band,lines,is_signal,supported_pos,catch_trial,debrief_formindex,debrief_formitemText,debrief_formtype,debrief_formitemWidth,debrief_formresponse,debrief_formrt,phases.thisRepN,phases.thisTrialN,phases.thisN,phases.thisIndex,phases.ran,phases.order,phase,key_resp_3.keys,trustitemText,trusttype,trustitemWidth,trustindex,trustresponse,trustrt,support_status.thisRepN,support_status.thisTrialN,support_status.thisN,support_status.thisIndex,support_status.ran,support_status.order,key_resp_5.keys,key_resp_5.rt,globalClockTime,userAgent,manualCondition
TRUE,5a9b20c535237b0001129820,627c6f200eb3f1ceba2920d2,2022-05-12_05h21.47.099,classification_task,2021.2.3,Win32,60.03121623,627c6715c52fd12f31907bcf,,,,,,,,,,,,,,,,,,,,,,,,,,,,,,,,,,,,,,,,,,,,,,,,,,,,,,,,,,,,,,,,,,,,,
,5a9b20c535237b0001129820,627c6f200eb3f1ceba2920d2,2022-05-12_05h21.47.099,classification_task,2021.2.3,Win32,60.03121623,627c6715c52fd12f31907bcf,"[[""0.306"",""0.487"",""0.817"",""0.939""],[""0.256"",""0.524"",""0.860"",""0.900""]]","[[""0.087"",""0.205"",""0.438"",""0.769""],[""0.034"",""0.356"",""0.619"",""0.681""]]","[1,10]","[100,1000]",Video game experience,,,0.7,0,,,,,,,,,,,,,,,,,,,,,,,,,,,,,,,,,,,,,,,,,,,,,,,,,,,,,,,,,,,,
,5a9b20c535237b0001129820,627c6f200eb3f1ceba2920d2,2022-05-12_05h21.47.099,classification_task,2021.2.3,Win32,60.03121623,627c6715c52fd12f31907bcf,,,,,Approximately how many hours did you spend playing video games in the last week?,,,0.7,0,30,,,,,,,,,,,,,,,,,,,,,,,,,,,,,,,,,,,,,,,,,,,,,,,,,,,,,,,,,,,
,5a9b20c535237b0001129820,627c6f200eb3f1ceba2920d2,2022-05-12_05h21.47.099,classification_task,2021.2.3,Win32,60.03121623,627c6715c52fd12f31907bcf,,,,,"Which game did you play the most this year? (Enter ""None"" if you didn't play any)",,,0.7,0,Foxhole,,,,,,,,,,,,,,,,,,,,,,,,,,,,,,,,,,,,,,,,,,,,,,,,,,,,,,,,,,,
,5a9b20c535237b0001129820,627c6f200eb3f1ceba2920d2,2022-05-12_05h21.47.099,classification_task,2021.2.3,Win32,60.03121623,627c6715c52fd12f31907bcf,,,,,Visual perception,,,0.7,0,,,,,,,,,,,,,,,,,,,,,,,,,,,,,,,,,,,,,,,,,,,,,,,,,,,,,,,,,,,,
,5a9b20c535237b0001129820,627c6f200eb3f1ceba2920d2,2022-05-12_05h21.47.099,classification_task,2021.2.3,Win32,60.03121623,627c6715c52fd12f31907bcf,,,,,Do you have any form of color blindness?,,,0.7,0,No,19.7028,,,,,,,,,,,,,,,,,,,,,,,,,,,,,,,,,,,,,,,,,,,,,,,,,,,,,,,,,,
,5a9b20c535237b0001129820,627c6f200eb3f1ceba2920d2,2022-05-12_05h21.47.099,classification_task,2021.2.3,Win32,60.03121623,627c6715c52fd12f31907bcf,,,,,Do you use software to change the colour temperature of your screen (e.g. f.lux)?,,,0.7,0,Yes,23.2813,,,,,,,,,,,,,,,,,,,,,,,,,,,,,,,,,,,,,,,,,,,,,,,,,,,,,,,,,,
,5a9b20c535237b0001129820,627c6f200eb3f1ceba2920d2,2022-05-12_05h21.47.099,classification_task,2021.2.3,Win32,60.03121623,627c6715c52fd12f31907bcf,,,,,,,,,,,,space,25.1785,space,6.2986,0,0,0,0,1,,,,,,,,,,,,,,,,,,,,,,,,,,,,,,,,,,,,,,,,,,,,,,,,,
,5a9b20c535237b0001129820,627c6f200eb3f1ceba2920d2,2022-05-12_05h21.47.099,classification_task,2021.2.3,Win32,60.03121623,627c6715c52fd12f31907bcf,,,,,,,,,,,,,,space,9.0002,1,0,1,0,1,,,,,,,,,,,,,,,,,,,,,,,,,,,,,,,,,,,,,,,,,,,,,,,,,
,5a9b20c535237b0001129820,627c6f200eb3f1ceba2920d2,2022-05-12_05h21.47.099,classification_task,2021.2.3,Win32,60.03121623,627c6715c52fd12f31907bcf,,,,,,,,,,,,,,space,23.8182,2,0,2,0,1,,,,,,,,,,,,,,,,,,,,,,,,,,,,,,,,,,,,,,,,,,,,,,,,,
,5a9b20c535237b0001129820,627c6f200eb3f1ceba2920d2,2022-05-12_05h21.47.099,classification_task,2021.2.3,Win32,60.03121623,627c6715c52fd12f31907bcf,,,,,,,,,,,,,,space,6.8327,3,0,3,0,1,,,,,,,,,,,,,,,,,,,,,,,,,,,,,,,,,,,,,,,,,,,,,,,,,
,5a9b20c535237b0001129820,627c6f200eb3f1ceba2920d2,2022-05-12_05h21.47.099,classification_task,2021.2.3,Win32,60.03121623,627c6715c52fd12f31907bcf,,,,,,,,,,,,,,space,2.8345,4,0,4,0,1,,,,,,,,,,,,,,,,,,,,,,,,,,,,,,,,,,,,,,,,,,,,,,,,,
,5a9b20c535237b0001129820,627c6f200eb3f1ceba2920d2,2022-05-12_05h21.47.099,classification_task,2021.2.3,Win32,60.03121623,627c6715c52fd12f31907bcf,,,,,,,,,,,,,,,,,,,,,space,7.9394,l,1,5.0501,"[""0.034"",""0.356"",""0.619"",""0.125""]","[1,1,1,0]",0,0,0,0,1,1,1,,,1,FALSE,,,,,,,,,,,,,,,,,,,,,,,,,,,,,,,
,5a9b20c535237b0001129820,627c6f200eb3f1ceba2920d2,2022-05-12_05h21.47.099,classification_task,2021.2.3,Win32,60.03121623,627c6715c52fd12f31907bcf,,,,,,,,,,,,,,,,,,,,,,,l,1,6.951,"[""0.087"",""0.558"",""0.438"",""0.769""]","[1,0,1,1]",0,1,1,1,1,1,0,,,1,FALSE,,,,,,,,,,,,,,,,,,,,,,,,,,,,,,,
,5a9b20c535237b0001129820,627c6f200eb3f1ceba2920d2,2022-05-12_05h21.47.099,classification_task,2021.2.3,Win32,60.03121623,627c6715c52fd12f31907bcf,,,,,,,,,,,,,,,,,,,,,,,l,1,4.8999,"[""0.034"",""0.356"",""0.393"",""0.681""]","[1,1,0,1]",0,2,2,2,1,1,1,,,1,FALSE,,,,,,,,,,,,,,,,,,,,,,,,,,,,,,,
,5a9b20c535237b0001129820,627c6f200eb3f1ceba2920d2,2022-05-12_05h21.47.099,classification_task,2021.2.3,Win32,60.03121623,627c6715c52fd12f31907bcf,,,,,,,,,,,,,,,,,,,,,,,,0,,"[""0.256"",""0.524"",""0.860"",""0.133""]","[1,1,1,0]",0,3,3,3,1,0,1,,,1,FALSE,,,,,,,,,,,,,,,,,,,,,,,,,,,,,,,
,5a9b20c535237b0001129820,627c6f200eb3f1ceba2920d2,2022-05-12_05h21.47.099,classification_task,2021.2.3,Win32,60.03121623,627c6715c52fd12f31907bcf,,,,,,,,,,,,,,,,,,,,,,,l,1,3.8512,"[""0.034"",""0.157"",""0.619"",""0.681""]","[1,0,1,1]",0,4,4,4,1,1,1,,,1,FALSE,,,,,,,,,,,,,,,,,,,,,,,,,,,,,,,
,5a9b20c535237b0001129820,627c6f200eb3f1ceba2920d2,2022-05-12_05h21.47.099,classification_task,2021.2.3,Win32,60.03121623,627c6715c52fd12f31907bcf,,,,,,,,,,,,,,,,,,,,,,,a,1,7.8764,"[""0.306"",""0.133"",""0.817"",""0.939""]","[1,0,1,1]",0,5,5,5,1,0,0,,,1,FALSE,,,,,,,,,,,,,,,,,,,,,,,,,,,,,,,
,5a9b20c535237b0001129820,627c6f200eb3f1ceba2920d2,2022-05-12_05h21.47.099,classification_task,2021.2.3,Win32,60.03121623,627c6715c52fd12f31907bcf,,,,,,,,,,,,,,,,,,,,,,,l,1,6.5438,"[""0.165"",""0.356"",""0.619"",""0.681""]","[0,1,1,1]",0,6,6,6,1,1,1,,,1,FALSE,,,,,,,,,,,,,,,,,,,,,,,,,,,,,,,
,5a9b20c535237b0001129820,627c6f200eb3f1ceba2920d2,2022-05-12_05h21.47.099,classification_task,2021.2.3,Win32,60.03121623,627c6715c52fd12f31907bcf,,,,,,,,,,,,,,,,,,,,,,,a,1,4.6691,"[""0.306"",""0.487"",""0.718"",""0.939""]","[1,1,0,1]",0,7,7,7,1,0,0,,,1,FALSE,,,,,,,,,,,,,,,,,,,,,,,,,,,,,,,
,5a9b20c535237b0001129820,627c6f200eb3f1ceba2920d2,2022-05-12_05h21.47.099,classification_task,2021.2.3,Win32,60.03121623,627c6715c52fd12f31907bcf,,,,,,,,,,,,,,,,,,,,,,,a,1,5.0809,"[""0.256"",""0.133"",""0.860"",""0.900""]","[1,0,1,1]",0,8,8,8,1,0,1,,,1,FALSE,,,,,,,,,,,,,,,,,,,,,,,,,,,,,,,
,5a9b20c535237b0001129820,627c6f200eb3f1ceba2920d2,2022-05-12_05h21.47.099,classification_task,2021.2.3,Win32,60.03121623,627c6715c52fd12f31907bcf,,,,,,,,,,,,,,,,,,,,,,,a,1,5.5561,"[""0.306"",""0.487"",""0.817"",""0.166""]","[1,1,1,0]",0,9,9,9,1,0,0,,,1,FALSE,,,,,,,,,,,,,,,,,,,,,,,,,,,,,,,
,5a9b20c535237b0001129820,627c6f200eb3f1ceba2920d2,2022-05-12_05h21.47.099,classification_task,2021.2.3,Win32,60.03121623,627c6715c52fd12f31907bcf,,,,,,,,,,,,,,,,,,,,,,,l,1,3.1815,"[""0.087"",""0.205"",""0.145"",""0.769""]","[1,1,0,1]",0,10,10,10,1,1,0,,,1,FALSE,,,,,,,,,,,,,,,,,,,,,,,,,,,,,,,
,5a9b20c535237b0001129820,627c6f200eb3f1ceba2920d2,2022-05-12_05h21.47.099,classification_task,2021.2.3,Win32,60.03121623,627c6715c52fd12f31907bcf,,,,,,,,,,,,,,,,,,,,,,,a,1,5.3606,"[""0.256"",""0.524"",""0.145"",""0.900""]","[1,1,0,1]",0,11,11,11,1,0,1,,,1,FALSE,,,,,,,,,,,,,,,,,,,,,,,,,,,,,,,
,5a9b20c535237b0001129820,627c6f200eb3f1ceba2920d2,2022-05-12_05h21.47.099,classification_task,2021.2.3,Win32,60.03121623,627c6715c52fd12f31907bcf,,,,,,,,,,,,,,,,,,,,,,,a,1,9.6144,"[""0.390"",""0.487"",""0.817"",""0.939""]","[0,1,1,1]",0,12,12,12,1,0,0,,,1,FALSE,,,,,,,,,,,,,,,,,,,,,,,,,,,,,,,
,5a9b20c535237b0001129820,627c6f200eb3f1ceba2920d2,2022-05-12_05h21.47.099,classification_task,2021.2.3,Win32,60.03121623,627c6715c52fd12f31907bcf,,,,,,,,,,,,,,,,,,,,,,,l,1,7.6885,"[""0.133"",""0.205"",""0.438"",""0.769""]","[0,1,1,1]",0,13,13,13,1,1,0,,,1,FALSE,,,,,,,,,,,,,,,,,,,,,,,,,,,,,,,
,5a9b20c535237b0001129820,627c6f200eb3f1ceba2920d2,2022-05-12_05h21.47.099,classification_task,2021.2.3,Win32,60.03121623,627c6715c52fd12f31907bcf,,,,,,,,,,,,,,,,,,,,,,,l,0,6.5285,"[""0.393"",""0.524"",""0.860"",""0.900""]","[0,1,1,1]",0,14,14,14,1,0,1,,,1,FALSE,,,,,,,,,,,,,,,,,,,,,,,,,,,,,,,
,5a9b20c535237b0001129820,627c6f200eb3f1ceba2920d2,2022-05-12_05h21.47.099,classification_task,2021.2.3,Win32,60.03121623,627c6715c52fd12f31907bcf,,,,,,,,,,,,,,,,,,,,,,,l,1,4.9602,"[""0.087"",""0.205"",""0.438"",""0.133""]","[1,1,1,0]",0,15,15,15,1,1,0,,,1,FALSE,,,,,,,,,,,,,,,,,,,,,,,,,,,,,,,
,5a9b20c535237b0001129820,627c6f200eb3f1ceba2920d2,2022-05-12_05h21.47.099,classification_task,2021.2.3,Win32,60.03121623,627c6715c52fd12f31907bcf,,,,,,,,,,,,,,,,,,,,,,,l,1,5.383,"[""0.087"",""0.205"",""0.165"",""0.769""]","[1,1,0,1]",0,16,16,16,1,1,0,,,1,FALSE,,,,,,,,,,,,,,,,,,,,,,,,,,,,,,,
,5a9b20c535237b0001129820,627c6f200eb3f1ceba2920d2,2022-05-12_05h21.47.099,classification_task,2021.2.3,Win32,60.03121623,627c6715c52fd12f31907bcf,,,,,,,,,,,,,,,,,,,,,,,a,1,6.6305,"[""0.306"",""0.487"",""0.817"",""0.145""]","[1,1,1,0]",0,17,17,17,1,0,0,,,1,FALSE,,,,,,,,,,,,,,,,,,,,,,,,,,,,,,,
,5a9b20c535237b0001129820,627c6f200eb3f1ceba2920d2,2022-05-12_05h21.47.099,classification_task,2021.2.3,Win32,60.03121623,627c6715c52fd12f31907bcf,,,,,,,,,,,,,,,,,,,,,,,a,1,2.0253,"[""0.256"",""0.524"",""0.390"",""0.900""]","[1,1,0,1]",0,18,18,18,1,0,1,,,1,FALSE,,,,,,,,,,,,,,,,,,,,,,,,,,,,,,,
,5a9b20c535237b0001129820,627c6f200eb3f1ceba2920d2,2022-05-12_05h21.47.099,classification_task,2021.2.3,Win32,60.03121623,627c6715c52fd12f31907bcf,,,,,,,,,,,,,,,,,,,,,,,,0,,"[""0.306"",""0.487"",""0.157"",""0.939""]","[1,1,0,1]",0,19,19,19,1,0,0,,,1,FALSE,,,,,,,,,,,,,,,,,,,,,,,,,,,,,,,
,5a9b20c535237b0001129820,627c6f200eb3f1ceba2920d2,2022-05-12_05h21.47.099,classification_task,2021.2.3,Win32,60.03121623,627c6715c52fd12f31907bcf,,,,,,,,,,,,,,,,,,,,,,,l,1,5.2304,"[""0.087"",""0.205"",""0.438"",""0.165""]","[1,1,1,0]",0,20,20,20,1,1,0,,,1,FALSE,,,,,,,,,,,,,,,,,,,,,,,,,,,,,,,
,5a9b20c535237b0001129820,627c6f200eb3f1ceba2920d2,2022-05-12_05h21.47.099,classification_task,2021.2.3,Win32,60.03121623,627c6715c52fd12f31907bcf,,,,,,,,,,,,,,,,,,,,,,,a,1,3.8684,"[""0.256"",""0.157"",""0.860"",""0.900""]","[1,0,1,1]",0,21,21,21,1,0,1,,,1,FALSE,,,,,,,,,,,,,,,,,,,,,,,,,,,,,,,
,5a9b20c535237b0001129820,627c6f200eb3f1ceba2920d2,2022-05-12_05h21.47.099,classification_task,2021.2.3,Win32,60.03121623,627c6715c52fd12f31907bcf,,,,,,,,,,,,,,,,,,,,,,,l,1,2.5953,"[""0.034"",""0.356"",""0.619"",""0.558""]","[1,1,1,0]",0,22,22,22,1,1,1,,,1,FALSE,,,,,,,,,,,,,,,,,,,,,,,,,,,,,,,
,5a9b20c535237b0001129820,627c6f200eb3f1ceba2920d2,2022-05-12_05h21.47.099,classification_task,2021.2.3,Win32,60.03121623,627c6715c52fd12f31907bcf,,,,,,,,,,,,,,,,,,,,,,,l,1,2.6807,"[""0.034"",""0.133"",""0.619"",""0.681""]","[1,0,1,1]",0,23,23,23,1,1,1,,,1,FALSE,,,,,,,,,,,,,,,,,,,,,,,,,,,,,,,
,5a9b20c535237b0001129820,627c6f200eb3f1ceba2920d2,2022-05-12_05h21.47.099,classification_task,2021.2.3,Win32,60.03121623,627c6715c52fd12f31907bcf,,,,,,,,,,,,,,,,,,,,,,,a,1,4.3469,"[""0.152"",""0.487"",""0.817"",""0.939""]","[0,1,1,1]",0,24,24,24,1,0,0,,,1,FALSE,,,,,,,,,,,,,,,,,,,,,,,,,,,,,,,
,5a9b20c535237b0001129820,627c6f200eb3f1ceba2920d2,2022-05-12_05h21.47.099,classification_task,2021.2.3,Win32,60.03121623,627c6715c52fd12f31907bcf,,,,,,,,,,,,,,,,,,,,,,,a,1,5.0112,"[""0.256"",""0.524"",""0.860"",""0.145""]","[1,1,1,0]",0,25,25,25,1,0,1,,,1,FALSE,,,,,,,,,,,,,,,,,,,,,,,,,,,,,,,
,5a9b20c535237b0001129820,627c6f200eb3f1ceba2920d2,2022-05-12_05h21.47.099,classification_task,2021.2.3,Win32,60.03121623,627c6715c52fd12f31907bcf,,,,,,,,,,,,,,,,,,,,,,,l,1,3.0728,"[""0.581"",""0.356"",""0.619"",""0.681""]","[0,1,1,1]",0,26,26,26,1,1,1,,,1,FALSE,,,,,,,,,,,,,,,,,,,,,,,,,,,,,,,
,5a9b20c535237b0001129820,627c6f200eb3f1ceba2920d2,2022-05-12_05h21.47.099,classification_task,2021.2.3,Win32,60.03121623,627c6715c52fd12f31907bcf,,,,,,,,,,,,,,,,,,,,,,,l,1,4.1993,"[""0.733"",""0.205"",""0.438"",""0.769""]","[0,1,1,1]",0,27,27,27,1,1,0,,,1,FALSE,,,,,,,,,,,,,,,,,,,,,,,,,,,,,,,
,5a9b20c535237b0001129820,627c6f200eb3f1ceba2920d2,2022-05-12_05h21.47.099,classification_task,2021.2.3,Win32,60.03121623,627c6715c52fd12f31907bcf,,,,,,,,,,,,,,,,,,,,,,,l,1,2.1453,"[""0.034"",""0.356"",""0.558"",""0.681""]","[1,1,0,1]",0,28,28,28,1,1,1,,,1,FALSE,,,,,,,,,,,,,,,,,,,,,,,,,,,,,,,
,5a9b20c535237b0001129820,627c6f200eb3f1ceba2920d2,2022-05-12_05h21.47.099,classification_task,2021.2.3,Win32,60.03121623,627c6715c52fd12f31907bcf,,,,,,,,,,,,,,,,,,,,,,,a,1,2.4002,"[""0.306"",""0.393"",""0.817"",""0.939""]","[1,0,1,1]",0,29,29,29,1,0,0,,,1,FALSE,,,,,,,,,,,,,,,,,,,,,,,,,,,,,,,
,5a9b20c535237b0001129820,627c6f200eb3f1ceba2920d2,2022-05-12_05h21.47.099,classification_task,2021.2.3,Win32,60.03121623,627c6715c52fd12f31907bcf,,,,,,,,,,,,,,,,,,,,,,,a,1,5.9888,"[""0.571"",""0.524"",""0.860"",""0.900""]","[0,1,1,1]",0,30,30,30,1,0,1,,,1,FALSE,,,,,,,,,,,,,,,,,,,,,,,,,,,,,,,
,5a9b20c535237b0001129820,627c6f200eb3f1ceba2920d2,2022-05-12_05h21.47.099,classification_task,2021.2.3,Win32,60.03121623,627c6715c52fd12f31907bcf,,,,,,,,,,,,,,,,,,,,,,,l,1,2.8126,"[""0.087"",""0.393"",""0.438"",""0.769""]","[1,0,1,1]",0,31,31,31,1,1,0,,,1,FALSE,,,,,,,,,,,,,,,,,,,,,,,,,,,,,,,
,5a9b20c535237b0001129820,627c6f200eb3f1ceba2920d2,2022-05-12_05h21.47.099,classification_task,2021.2.3,Win32,60.03121623,627c6715c52fd12f31907bcf,,,,,,,,,,,,,,,,,,,,,,,a,0,4.1683,"[""0.733"",""0.356"",""0.619"",""0.681""]","[0,1,1,1]",0,32,32,32,1,1,1,,,1,FALSE,,,,,,,,,,,,,,,,,,,,,,,,,,,,,,,
,5a9b20c535237b0001129820,627c6f200eb3f1ceba2920d2,2022-05-12_05h21.47.099,classification_task,2021.2.3,Win32,60.03121623,627c6715c52fd12f31907bcf,,,,,,,,,,,,,,,,,,,,,,,l,1,3.915,"[""0.087"",""0.205"",""0.152"",""0.769""]","[1,1,0,1]",0,33,33,33,1,1,0,,,1,FALSE,,,,,,,,,,,,,,,,,,,,,,,,,,,,,,,
,5a9b20c535237b0001129820,627c6f200eb3f1ceba2920d2,2022-05-12_05h21.47.099,classification_task,2021.2.3,Win32,60.03121623,627c6715c52fd12f31907bcf,,,,,,,,,,,,,,,,,,,,,,,a,0,1.598,"[""0.034"",""0.356"",""0.390"",""0.681""]","[1,1,0,1]",0,34,34,34,1,1,1,,,1,FALSE,,,,,,,,,,,,,,,,,,,,,,,,,,,,,,,
,5a9b20c535237b0001129820,627c6f200eb3f1ceba2920d2,2022-05-12_05h21.47.099,classification_task,2021.2.3,Win32,60.03121623,627c6715c52fd12f31907bcf,,,,,,,,,,,,,,,,,,,,,,,l,0,3.1925,"[""0.306"",""0.487"",""0.817"",""0.157""]","[1,1,1,0]",0,35,35,35,1,0,0,,,1,FALSE,,,,,,,,,,,,,,,,,,,,,,,,,,,,,,,
,5a9b20c535237b0001129820,627c6f200eb3f1ceba2920d2,2022-05-12_05h21.47.099,classification_task,2021.2.3,Win32,60.03121623,627c6715c52fd12f31907bcf,,,,,,,,,,,,,,,,,,,,,,,a,1,1.2979,"[""0.306"",""0.487"",""0.125"",""0.939""]","[1,1,0,1]",0,36,36,36,1,0,0,,,1,FALSE,,,,,,,,,,,,,,,,,,,,,,,,,,,,,,,
,5a9b20c535237b0001129820,627c6f200eb3f1ceba2920d2,2022-05-12_05h21.47.099,classification_task,2021.2.3,Win32,60.03121623,627c6715c52fd12f31907bcf,,,,,,,,,,,,,,,,,,,,,,,a,1,3.2348,"[""0.306"",""0.581"",""0.817"",""0.939""]","[1,0,1,1]",0,37,37,37,1,0,0,,,1,FALSE,,,,,,,,,,,,,,,,,,,,,,,,,,,,,,,
,5a9b20c535237b0001129820,627c6f200eb3f1ceba2920d2,2022-05-12_05h21.47.099,classification_task,2021.2.3,Win32,60.03121623,627c6715c52fd12f31907bcf,,,,,,,,,,,,,,,,,,,,,,,l,0,1.9848,"[""0.256"",""0.524"",""0.166"",""0.900""]","[1,1,0,1]",0,38,38,38,1,0,1,,,1,FALSE,,,,,,,,,,,,,,,,,,,,,,,,,,,,,,,
,5a9b20c535237b0001129820,627c6f200eb3f1ceba2920d2,2022-05-12_05h21.47.099,classification_task,2021.2.3,Win32,60.03121623,627c6715c52fd12f31907bcf,,,,,,,,,,,,,,,,,,,,,,,a,0,2.4006,"[""0.133"",""0.205"",""0.438"",""0.769""]","[0,1,1,1]",0,39,39,39,1,1,0,,,1,FALSE,,,,,,,,,,,,,,,,,,,,,,,,,,,,,,,
,5a9b20c535237b0001129820,627c6f200eb3f1ceba2920d2,2022-05-12_05h21.47.099,classification_task,2021.2.3,Win32,60.03121623,627c6715c52fd12f31907bcf,,,,,,,,,,,,,,,,,,,,,,,l,1,2.2646,"[""0.087"",""0.205"",""0.438"",""0.157""]","[1,1,1,0]",0,40,40,40,1,1,0,,,1,FALSE,,,,,,,,,,,,,,,,,,,,,,,,,,,,,,,
,5a9b20c535237b0001129820,627c6f200eb3f1ceba2920d2,2022-05-12_05h21.47.099,classification_task,2021.2.3,Win32,60.03121623,627c6715c52fd12f31907bcf,,,,,,,,,,,,,,,,,,,,,,,a,1,2.6507,"[""0.256"",""0.524"",""0.860"",""0.166""]","[1,1,1,0]",0,41,41,41,1,0,1,,,1,FALSE,,,,,,,,,,,,,,,,,,,,,,,,,,,,,,,
,5a9b20c535237b0001129820,627c6f200eb3f1ceba2920d2,2022-05-12_05h21.47.099,classification_task,2021.2.3,Win32,60.03121623,627c6715c52fd12f31907bcf,,,,,,,,,,,,,,,,,,,,,,,a,1,2.0641,"[""0.256"",""0.145"",""0.860"",""0.900""]","[1,0,1,1]",0,42,42,42,1,0,1,,,1,FALSE,,,,,,,,,,,,,,,,,,,,,,,,,,,,,,,
,5a9b20c535237b0001129820,627c6f200eb3f1ceba2920d2,2022-05-12_05h21.47.099,classification_task,2021.2.3,Win32,60.03121623,627c6715c52fd12f31907bcf,,,,,,,,,,,,,,,,,,,,,,,l,0,2.138,"[""0.157"",""0.487"",""0.817"",""0.939""]","[0,1,1,1]",0,43,43,43,1,0,0,,,1,FALSE,,,,,,,,,,,,,,,,,,,,,,,,,,,,,,,
,5a9b20c535237b0001129820,627c6f200eb3f1ceba2920d2,2022-05-12_05h21.47.099,classification_task,2021.2.3,Win32,60.03121623,627c6715c52fd12f31907bcf,,,,,,,,,,,,,,,,,,,,,,,l,1,2.0746,"[""0.034"",""0.152"",""0.619"",""0.681""]","[1,0,1,1]",0,44,44,44,1,1,1,,,1,FALSE,,,,,,,,,,,,,,,,,,,,,,,,,,,,,,,
,5a9b20c535237b0001129820,627c6f200eb3f1ceba2920d2,2022-05-12_05h21.47.099,classification_task,2021.2.3,Win32,60.03121623,627c6715c52fd12f31907bcf,,,,,,,,,,,,,,,,,,,,,,,a,0,1.463,"[""0.034"",""0.356"",""0.619"",""0.718""]","[1,1,1,0]",0,45,45,45,1,1,1,,,1,FALSE,,,,,,,,,,,,,,,,,,,,,,,,,,,,,,,
,5a9b20c535237b0001129820,627c6f200eb3f1ceba2920d2,2022-05-12_05h21.47.099,classification_task,2021.2.3,Win32,60.03121623,627c6715c52fd12f31907bcf,,,,,,,,,,,,,,,,,,,,,,,a,0,2.3518,"[""0.087"",""0.558"",""0.438"",""0.769""]","[1,0,1,1]",0,46,46,46,1,1,0,,,1,FALSE,,,,,,,,,,,,,,,,,,,,,,,,,,,,,,,
,5a9b20c535237b0001129820,627c6f200eb3f1ceba2920d2,2022-05-12_05h21.47.099,classification_task,2021.2.3,Win32,60.03121623,627c6715c52fd12f31907bcf,,,,,,,,,,,,,,,,,,,,,,,l,0,1.0196,"[""0.157"",""0.524"",""0.860"",""0.900""]","[0,1,1,1]",0,47,47,47,1,0,1,,,1,FALSE,,,,,,,,,,,,,,,,,,,,,,,,,,,,,,,
,5a9b20c535237b0001129820,627c6f200eb3f1ceba2920d2,2022-05-12_05h21.47.099,classification_task,2021.2.3,Win32,60.03121623,627c6715c52fd12f31907bcf,,,,,,,,,,,,,,,,,,,,,,,a,1,2.2161,"[""0.306"",""0.157"",""0.817"",""0.939""]","[1,0,1,1]",0,48,48,48,1,0,0,,,1,FALSE,,,,,,,,,,,,,,,,,,,,,,,,,,,,,,,
,5a9b20c535237b0001129820,627c6f200eb3f1ceba2920d2,2022-05-12_05h21.47.099,classification_task,2021.2.3,Win32,60.03121623,627c6715c52fd12f31907bcf,,,,,,,,,,,,,,,,,,,,,,,a,0,1.1706,"[""0.087"",""0.205"",""0.133"",""0.769""]","[1,1,0,1]",0,49,49,49,1,1,0,,,1,FALSE,,,,,,,,,,,,,,,,,,,,,,,,,,,,,,,
,5a9b20c535237b0001129820,627c6f200eb3f1ceba2920d2,2022-05-12_05h21.47.099,classification_task,2021.2.3,Win32,60.03121623,627c6715c52fd12f31907bcf,,,,,,,,,,,,,,,,,,,,,,,l,0,0.8833,"[""0.256"",""0.157"",""0.860"",""0.900""]","[1,0,1,1]",0,50,50,50,1,0,1,,,1,FALSE,,,,,,,,,,,,,,,,,,,,,,,,,,,,,,,
,5a9b20c535237b0001129820,627c6f200eb3f1ceba2920d2,2022-05-12_05h21.47.099,classification_task,2021.2.3,Win32,60.03121623,627c6715c52fd12f31907bcf,,,,,,,,,,,,,,,,,,,,,,,a,1,2.685,"[""0.306"",""0.487"",""0.393"",""0.939""]","[1,1,0,1]",0,51,51,51,1,0,0,,,1,FALSE,,,,,,,,,,,,,,,,,,,,,,,,,,,,,,,
,5a9b20c535237b0001129820,627c6f200eb3f1ceba2920d2,2022-05-12_05h21.47.099,classification_task,2021.2.3,Win32,60.03121623,627c6715c52fd12f31907bcf,,,,,,,,,,,,,,,,,,,,,,,a,1,3.971,"[""0.256"",""0.524"",""0.860"",""0.125""]","[1,1,1,0]",0,52,52,52,1,0,1,,,1,FALSE,,,,,,,,,,,,,,,,,,,,,,,,,,,,,,,
,5a9b20c535237b0001129820,627c6f200eb3f1ceba2920d2,2022-05-12_05h21.47.099,classification_task,2021.2.3,Win32,60.03121623,627c6715c52fd12f31907bcf,,,,,,,,,,,,,,,,,,,,,,,a,0,2.214,"[""0.166"",""0.205"",""0.438"",""0.769""]","[0,1,1,1]",0,53,53,53,1,1,0,,,1,FALSE,,,,,,,,,,,,,,,,,,,,,,,,,,,,,,,
,5a9b20c535237b0001129820,627c6f200eb3f1ceba2920d2,2022-05-12_05h21.47.099,classification_task,2021.2.3,Win32,60.03121623,627c6715c52fd12f31907bcf,,,,,,,,,,,,,,,,,,,,,,,l,1,1.5093,"[""0.133"",""0.356"",""0.619"",""0.681""]","[0,1,1,1]",0,54,54,54,1,1,1,,,1,FALSE,,,,,,,,,,,,,,,,,,,,,,,,,,,,,,,
,5a9b20c535237b0001129820,627c6f200eb3f1ceba2920d2,2022-05-12_05h21.47.099,classification_task,2021.2.3,Win32,60.03121623,627c6715c52fd12f31907bcf,,,,,,,,,,,,,,,,,,,,,,,a,0,1.8653,"[""0.034"",""0.356"",""0.133"",""0.681""]","[1,1,0,1]",0,55,55,55,1,1,1,,,1,FALSE,,,,,,,,,,,,,,,,,,,,,,,,,,,,,,,
,5a9b20c535237b0001129820,627c6f200eb3f1ceba2920d2,2022-05-12_05h21.47.099,classification_task,2021.2.3,Win32,60.03121623,627c6715c52fd12f31907bcf,,,,,,,,,,,,,,,,,,,,,,,a,0,1.6919,"[""0.087"",""0.205"",""0.438"",""0.571""]","[1,1,1,0]",0,56,56,56,1,1,0,,,1,FALSE,,,,,,,,,,,,,,,,,,,,,,,,,,,,,,,
,5a9b20c535237b0001129820,627c6f200eb3f1ceba2920d2,2022-05-12_05h21.47.099,classification_task,2021.2.3,Win32,60.03121623,627c6715c52fd12f31907bcf,,,,,,,,,,,,,,,,,,,,,,,l,0,1.0509,"[""0.256"",""0.524"",""0.733"",""0.900""]","[1,1,0,1]",0,57,57,57,1,0,1,,,1,FALSE,,,,,,,,,,,,,,,,,,,,,,,,,,,,,,,
,5a9b20c535237b0001129820,627c6f200eb3f1ceba2920d2,2022-05-12_05h21.47.099,classification_task,2021.2.3,Win32,60.03121623,627c6715c52fd12f31907bcf,,,,,,,,,,,,,,,,,,,,,,,a,1,1.5211,"[""0.558"",""0.487"",""0.817"",""0.939""]","[0,1,1,1]",0,58,58,58,1,0,0,,,1,FALSE,,,,,,,,,,,,,,,,,,,,,,,,,,,,,,,
,5a9b20c535237b0001129820,627c6f200eb3f1ceba2920d2,2022-05-12_05h21.47.099,classification_task,2021.2.3,Win32,60.03121623,627c6715c52fd12f31907bcf,,,,,,,,,,,,,,,,,,,,,,,a,1,3.0059,"[""0.133"",""0.524"",""0.860"",""0.900""]","[0,1,1,1]",0,59,59,59,1,0,1,,,1,FALSE,,,,,,,,,,,,,,,,,,,,,,,,,,,,,,,
,5a9b20c535237b0001129820,627c6f200eb3f1ceba2920d2,2022-05-12_05h21.47.099,classification_task,2021.2.3,Win32,60.03121623,627c6715c52fd12f31907bcf,,,,,,,,,,,,,,,,,,,,,,,l,1,1.6727,"[""0.034"",""0.356"",""0.619"",""0.133""]","[1,1,1,0]",0,60,60,60,1,1,1,,,1,FALSE,,,,,,,,,,,,,,,,,,,,,,,,,,,,,,,
,5a9b20c535237b0001129820,627c6f200eb3f1ceba2920d2,2022-05-12_05h21.47.099,classification_task,2021.2.3,Win32,60.03121623,627c6715c52fd12f31907bcf,,,,,,,,,,,,,,,,,,,,,,,a,1,1.5387,"[""0.306"",""0.487"",""0.817"",""0.166""]","[1,1,1,0]",0,61,61,61,1,0,0,,,1,FALSE,,,,,,,,,,,,,,,,,,,,,,,,,,,,,,,
,5a9b20c535237b0001129820,627c6f200eb3f1ceba2920d2,2022-05-12_05h21.47.099,classification_task,2021.2.3,Win32,60.03121623,627c6715c52fd12f31907bcf,,,,,,,,,,,,,,,,,,,,,,,a,0,2.1673,"[""0.087"",""0.125"",""0.438"",""0.769""]","[1,0,1,1]",0,62,62,62,1,1,0,,,1,FALSE,,,,,,,,,,,,,,,,,,,,,,,,,,,,,,,
,5a9b20c535237b0001129820,627c6f200eb3f1ceba2920d2,2022-05-12_05h21.47.099,classification_task,2021.2.3,Win32,60.03121623,627c6715c52fd12f31907bcf,,,,,,,,,,,,,,,,,,,,,,,l,1,1.1212,"[""0.034"",""0.152"",""0.619"",""0.681""]","[1,0,1,1]",0,63,63,63,1,1,1,,,1,FALSE,,,,,,,,,,,,,,,,,,,,,,,,,,,,,,,
,5a9b20c535237b0001129820,627c6f200eb3f1ceba2920d2,2022-05-12_05h21.47.099,classification_task,2021.2.3,Win32,60.03121623,627c6715c52fd12f31907bcf,,,,,,,,,,,,,,,,,,,,,,,,,,,,,,,,,,,,,,,0, ,,0,2.819909857,424.5913,0,0,0,0,1,2,1,,,,,,,,,,,,,,,,,,
,5a9b20c535237b0001129820,627c6f200eb3f1ceba2920d2,2022-05-12_05h21.47.099,classification_task,2021.2.3,Win32,60.03121623,627c6715c52fd12f31907bcf,,,,,,,,,,,,,,,,,,,,,,,,,,,,,,,,,,,,,,,1,  ,,0,8.62531844,430.1318,0,0,0,0,1,2,1,,,,,,,,,,,,,,,,,,
,5a9b20c535237b0001129820,627c6f200eb3f1ceba2920d2,2022-05-12_05h21.47.099,classification_task,2021.2.3,Win32,60.03121623,627c6715c52fd12f31907bcf,,,,,,,,,,,,,,,,,,,,,,,,,,,,,,,,,,,,,,,2,  ,,0,6.053301979,433.9344,0,0,0,0,1,2,1,,,,,,,,,,,,,,,,,,
,5a9b20c535237b0001129820,627c6f200eb3f1ceba2920d2,2022-05-12_05h21.47.099,classification_task,2021.2.3,Win32,60.03121623,627c6715c52fd12f31907bcf,,,,,,,,,,,,,,,,,,,,,,,,,,,,,,,,,,,,,,,,,,,,,0,0,0,0,1,,1,,,,,,,,,,,,,,,,,,
,5a9b20c535237b0001129820,627c6f200eb3f1ceba2920d2,2022-05-12_05h21.47.099,classification_task,2021.2.3,Win32,60.03121623,627c6715c52fd12f31907bcf,,,,,,,,,,,,,,,,,,,,,space,14.1897,a,0,4.0621,"[""0.034"",""0.133"",""0.619"",""0.681""]","[1,0,1,1]",0,0,0,0,1,1,1,,,1,FALSE,,,,,,,,,,,,,,,,,,,,,,,,,,,,,,,
,5a9b20c535237b0001129820,627c6f200eb3f1ceba2920d2,2022-05-12_05h21.47.099,classification_task,2021.2.3,Win32,60.03121623,627c6715c52fd12f31907bcf,,,,,,,,,,,,,,,,,,,,,,,a,0,1.9484,"[""0.558"",""0.356"",""0.619"",""0.681""]","[0,1,1,1]",0,1,1,1,1,1,1,,,1,FALSE,,,,,,,,,,,,,,,,,,,,,,,,,,,,,,,
,5a9b20c535237b0001129820,627c6f200eb3f1ceba2920d2,2022-05-12_05h21.47.099,classification_task,2021.2.3,Win32,60.03121623,627c6715c52fd12f31907bcf,,,,,,,,,,,,,,,,,,,,,,,l,0,3.1542,"[""0.306"",""0.165"",""0.817"",""0.939""]","[1,0,1,1]",0,2,2,2,1,0,0,,,1,FALSE,,,,,,,,,,,,,,,,,,,,,,,,,,,,,,,
,5a9b20c535237b0001129820,627c6f200eb3f1ceba2920d2,2022-05-12_05h21.47.099,classification_task,2021.2.3,Win32,60.03121623,627c6715c52fd12f31907bcf,,,,,,,,,,,,,,,,,,,,,,,a,0,1.3302,"[""0.034"",""0.356"",""0.619"",""0.125""]","[1,1,1,0]",0,3,3,3,1,1,1,,,1,FALSE,,,,,,,,,,,,,,,,,,,,,,,,,,,,,,,
,5a9b20c535237b0001129820,627c6f200eb3f1ceba2920d2,2022-05-12_05h21.47.099,classification_task,2021.2.3,Win32,60.03121623,627c6715c52fd12f31907bcf,,,,,,,,,,,,,,,,,,,,,,,l,1,1.3007,"[""0.087"",""0.205"",""0.145"",""0.769""]","[1,1,0,1]",0,4,4,4,1,1,0,,,1,FALSE,,,,,,,,,,,,,,,,,,,,,,,,,,,,,,,
,5a9b20c535237b0001129820,627c6f200eb3f1ceba2920d2,2022-05-12_05h21.47.099,classification_task,2021.2.3,Win32,60.03121623,627c6715c52fd12f31907bcf,,,,,,,,,,,,,,,,,,,,,,,a,1,1.867,"[""0.558"",""0.524"",""0.860"",""0.900""]","[0,1,1,1]",0,5,5,5,1,0,1,,,1,FALSE,,,,,,,,,,,,,,,,,,,,,,,,,,,,,,,
,5a9b20c535237b0001129820,627c6f200eb3f1ceba2920d2,2022-05-12_05h21.47.099,classification_task,2021.2.3,Win32,60.03121623,627c6715c52fd12f31907bcf,,,,,,,,,,,,,,,,,,,,,,,l,0,2.1096,"[""0.256"",""0.524"",""0.133"",""0.900""]","[1,1,0,1]",0,6,6,6,1,0,1,,,1,FALSE,,,,,,,,,,,,,,,,,,,,,,,,,,,,,,,
,5a9b20c535237b0001129820,627c6f200eb3f1ceba2920d2,2022-05-12_05h21.47.099,classification_task,2021.2.3,Win32,60.03121623,627c6715c52fd12f31907bcf,,,,,,,,,,,,,,,,,,,,,,,a,0,0.8875,"[""0.034"",""0.356"",""0.133"",""0.681""]","[1,1,0,1]",0,7,7,7,1,1,1,,,1,FALSE,,,,,,,,,,,,,,,,,,,,,,,,,,,,,,,
,5a9b20c535237b0001129820,627c6f200eb3f1ceba2920d2,2022-05-12_05h21.47.099,classification_task,2021.2.3,Win32,60.03121623,627c6715c52fd12f31907bcf,,,,,,,,,,,,,,,,,,,,,,,a,1,2.3387,"[""0.256"",""0.524"",""0.860"",""0.718""]","[1,1,1,0]",0,8,8,8,1,0,1,,,1,FALSE,,,,,,,,,,,,,,,,,,,,,,,,,,,,,,,
,5a9b20c535237b0001129820,627c6f200eb3f1ceba2920d2,2022-05-12_05h21.47.099,classification_task,2021.2.3,Win32,60.03121623,627c6715c52fd12f31907bcf,,,,,,,,,,,,,,,,,,,,,,,a,1,2.0966,"[""0.157"",""0.487"",""0.817"",""0.939""]","[0,1,1,1]",0,9,9,9,1,0,0,,,1,FALSE,,,,,,,,,,,,,,,,,,,,,,,,,,,,,,,
,5a9b20c535237b0001129820,627c6f200eb3f1ceba2920d2,2022-05-12_05h21.47.099,classification_task,2021.2.3,Win32,60.03121623,627c6715c52fd12f31907bcf,,,,,,,,,,,,,,,,,,,,,,,a,0,2.52,"[""0.558"",""0.205"",""0.438"",""0.769""]","[0,1,1,1]",0,10,10,10,1,1,0,,,1,FALSE,,,,,,,,,,,,,,,,,,,,,,,,,,,,,,,
,5a9b20c535237b0001129820,627c6f200eb3f1ceba2920d2,2022-05-12_05h21.47.099,classification_task,2021.2.3,Win32,60.03121623,627c6715c52fd12f31907bcf,,,,,,,,,,,,,,,,,,,,,,,a,1,1.6981,"[""0.256"",""0.145"",""0.860"",""0.900""]","[1,0,1,1]",0,11,11,11,1,0,1,,,1,FALSE,,,,,,,,,,,,,,,,,,,,,,,,,,,,,,,
,5a9b20c535237b0001129820,627c6f200eb3f1ceba2920d2,2022-05-12_05h21.47.099,classification_task,2021.2.3,Win32,60.03121623,627c6715c52fd12f31907bcf,,,,,,,,,,,,,,,,,,,,,,,l,0,1.6921,"[""0.306"",""0.487"",""0.152"",""0.939""]","[1,1,0,1]",0,12,12,12,1,0,0,,,1,FALSE,,,,,,,,,,,,,,,,,,,,,,,,,,,,,,,
,5a9b20c535237b0001129820,627c6f200eb3f1ceba2920d2,2022-05-12_05h21.47.099,classification_task,2021.2.3,Win32,60.03121623,627c6715c52fd12f31907bcf,,,,,,,,,,,,,,,,,,,,,,,a,0,0.7143,"[""0.087"",""0.205"",""0.438"",""0.125""]","[1,1,1,0]",0,13,13,13,1,1,0,,,1,FALSE,,,,,,,,,,,,,,,,,,,,,,,,,,,,,,,
,5a9b20c535237b0001129820,627c6f200eb3f1ceba2920d2,2022-05-12_05h21.47.099,classification_task,2021.2.3,Win32,60.03121623,627c6715c52fd12f31907bcf,,,,,,,,,,,,,,,,,,,,,,,a,1,1.1179,"[""0.306"",""0.487"",""0.817"",""0.390""]","[1,1,1,0]",0,14,14,14,1,0,0,,,1,FALSE,,,,,,,,,,,,,,,,,,,,,,,,,,,,,,,
,5a9b20c535237b0001129820,627c6f200eb3f1ceba2920d2,2022-05-12_05h21.47.099,classification_task,2021.2.3,Win32,60.03121623,627c6715c52fd12f31907bcf,,,,,,,,,,,,,,,,,,,,,,,l,1,1.9217,"[""0.087"",""0.152"",""0.438"",""0.769""]","[1,0,1,1]",0,15,15,15,1,1,0,,,1,FALSE,,,,,,,,,,,,,,,,,,,,,,,,,,,,,,,
,5a9b20c535237b0001129820,627c6f200eb3f1ceba2920d2,2022-05-12_05h21.47.099,classification_task,2021.2.3,Win32,60.03121623,627c6715c52fd12f31907bcf,,,,,,,,,,,,,,,,,,,,,,,a,1,1.8343,"[""0.306"",""0.487"",""0.817"",""0.571""]","[1,1,1,0]",0,16,16,16,1,0,0,,,1,FALSE,,,,,,,,,,,,,,,,,,,,,,,,,,,,,,,
,5a9b20c535237b0001129820,627c6f200eb3f1ceba2920d2,2022-05-12_05h21.47.099,classification_task,2021.2.3,Win32,60.03121623,627c6715c52fd12f31907bcf,,,,,,,,,,,,,,,,,,,,,,,a,1,1.6007,"[""0.306"",""0.487"",""0.165"",""0.939""]","[1,1,0,1]",0,17,17,17,1,0,0,,,1,FALSE,,,,,,,,,,,,,,,,,,,,,,,,,,,,,,,
,5a9b20c535237b0001129820,627c6f200eb3f1ceba2920d2,2022-05-12_05h21.47.099,classification_task,2021.2.3,Win32,60.03121623,627c6715c52fd12f31907bcf,,,,,,,,,,,,,,,,,,,,,,,a,0,1.4805,"[""0.034"",""0.356"",""0.619"",""0.733""]","[1,1,1,0]",0,18,18,18,1,1,1,,,1,FALSE,,,,,,,,,,,,,,,,,,,,,,,,,,,,,,,
,5a9b20c535237b0001129820,627c6f200eb3f1ceba2920d2,2022-05-12_05h21.47.099,classification_task,2021.2.3,Win32,60.03121623,627c6715c52fd12f31907bcf,,,,,,,,,,,,,,,,,,,,,,,a,0,1.5892,"[""0.034"",""0.390"",""0.619"",""0.681""]","[1,0,1,1]",0,19,19,19,1,1,1,,,1,FALSE,,,,,,,,,,,,,,,,,,,,,,,,,,,,,,,
,5a9b20c535237b0001129820,627c6f200eb3f1ceba2920d2,2022-05-12_05h21.47.099,classification_task,2021.2.3,Win32,60.03121623,627c6715c52fd12f31907bcf,,,,,,,,,,,,,,,,,,,,,,,l,1,1.6716,"[""0.087"",""0.558"",""0.438"",""0.769""]","[1,0,1,1]",0,20,20,20,1,1,0,,,1,FALSE,,,,,,,,,,,,,,,,,,,,,,,,,,,,,,,
,5a9b20c535237b0001129820,627c6f200eb3f1ceba2920d2,2022-05-12_05h21.47.099,classification_task,2021.2.3,Win32,60.03121623,627c6715c52fd12f31907bcf,,,,,,,,,,,,,,,,,,,,,,,a,0,1.1976,"[""0.087"",""0.205"",""0.733"",""0.769""]","[1,1,0,1]",0,21,21,21,1,1,0,,,1,FALSE,,,,,,,,,,,,,,,,,,,,,,,,,,,,,,,
,5a9b20c535237b0001129820,627c6f200eb3f1ceba2920d2,2022-05-12_05h21.47.099,classification_task,2021.2.3,Win32,60.03121623,627c6715c52fd12f31907bcf,,,,,,,,,,,,,,,,,,,,,,,l,0,0.8838,"[""0.152"",""0.524"",""0.860"",""0.900""]","[0,1,1,1]",0,22,22,22,1,0,1,,,1,FALSE,,,,,,,,,,,,,,,,,,,,,,,,,,,,,,,
,5a9b20c535237b0001129820,627c6f200eb3f1ceba2920d2,2022-05-12_05h21.47.099,classification_task,2021.2.3,Win32,60.03121623,627c6715c52fd12f31907bcf,,,,,,,,,,,,,,,,,,,,,,,a,1,2.536,"[""0.256"",""0.524"",""0.860"",""0.733""]","[1,1,1,0]",0,23,23,23,1,0,1,,,1,FALSE,,,,,,,,,,,,,,,,,,,,,,,,,,,,,,,
,5a9b20c535237b0001129820,627c6f200eb3f1ceba2920d2,2022-05-12_05h21.47.099,classification_task,2021.2.3,Win32,60.03121623,627c6715c52fd12f31907bcf,,,,,,,,,,,,,,,,,,,,,,,a,1,2.0703,"[""0.256"",""0.524"",""0.125"",""0.900""]","[1,1,0,1]",0,24,24,24,1,0,1,,,1,FALSE,,,,,,,,,,,,,,,,,,,,,,,,,,,,,,,
,5a9b20c535237b0001129820,627c6f200eb3f1ceba2920d2,2022-05-12_05h21.47.099,classification_task,2021.2.3,Win32,60.03121623,627c6715c52fd12f31907bcf,,,,,,,,,,,,,,,,,,,,,,,l,1,1.1804,"[""0.581"",""0.205"",""0.438"",""0.769""]","[0,1,1,1]",0,25,25,25,1,1,0,,,1,FALSE,,,,,,,,,,,,,,,,,,,,,,,,,,,,,,,
,5a9b20c535237b0001129820,627c6f200eb3f1ceba2920d2,2022-05-12_05h21.47.099,classification_task,2021.2.3,Win32,60.03121623,627c6715c52fd12f31907bcf,,,,,,,,,,,,,,,,,,,,,,,a,1,1.3764,"[""0.256"",""0.145"",""0.860"",""0.900""]","[1,0,1,1]",0,26,26,26,1,0,1,,,1,FALSE,,,,,,,,,,,,,,,,,,,,,,,,,,,,,,,
,5a9b20c535237b0001129820,627c6f200eb3f1ceba2920d2,2022-05-12_05h21.47.099,classification_task,2021.2.3,Win32,60.03121623,627c6715c52fd12f31907bcf,,,,,,,,,,,,,,,,,,,,,,,a,0,1.3168,"[""0.034"",""0.356"",""0.145"",""0.681""]","[1,1,0,1]",0,27,27,27,1,1,1,,,1,FALSE,,,,,,,,,,,,,,,,,,,,,,,,,,,,,,,
,5a9b20c535237b0001129820,627c6f200eb3f1ceba2920d2,2022-05-12_05h21.47.099,classification_task,2021.2.3,Win32,60.03121623,627c6715c52fd12f31907bcf,,,,,,,,,,,,,,,,,,,,,,,a,0,0.7172,"[""0.087"",""0.205"",""0.438"",""0.558""]","[1,1,1,0]",0,28,28,28,1,1,0,,,1,FALSE,,,,,,,,,,,,,,,,,,,,,,,,,,,,,,,
,5a9b20c535237b0001129820,627c6f200eb3f1ceba2920d2,2022-05-12_05h21.47.099,classification_task,2021.2.3,Win32,60.03121623,627c6715c52fd12f31907bcf,,,,,,,,,,,,,,,,,,,,,,,l,0,1.5008,"[""0.558"",""0.487"",""0.817"",""0.939""]","[0,1,1,1]",0,29,29,29,1,0,0,,,1,FALSE,,,,,,,,,,,,,,,,,,,,,,,,,,,,,,,
,5a9b20c535237b0001129820,627c6f200eb3f1ceba2920d2,2022-05-12_05h21.47.099,classification_task,2021.2.3,Win32,60.03121623,627c6715c52fd12f31907bcf,,,,,,,,,,,,,,,,,,,,,,,a,0,1.3129,"[""0.718"",""0.356"",""0.619"",""0.681""]","[0,1,1,1]",0,30,30,30,1,1,1,,,1,FALSE,,,,,,,,,,,,,,,,,,,,,,,,,,,,,,,
,5a9b20c535237b0001129820,627c6f200eb3f1ceba2920d2,2022-05-12_05h21.47.099,classification_task,2021.2.3,Win32,60.03121623,627c6715c52fd12f31907bcf,,,,,,,,,,,,,,,,,,,,,,,a,1,2.1001,"[""0.306"",""0.165"",""0.817"",""0.939""]","[1,0,1,1]",0,31,31,31,1,0,0,,,1,FALSE,,,,,,,,,,,,,,,,,,,,,,,,,,,,,,,
,5a9b20c535237b0001129820,627c6f200eb3f1ceba2920d2,2022-05-12_05h21.47.099,classification_task,2021.2.3,Win32,60.03121623,627c6715c52fd12f31907bcf,,,,,,,,,,,,,,,,,,,,,,,a,0,1.584,"[""0.087"",""0.205"",""0.438"",""0.166""]","[1,1,1,0]",0,32,32,32,1,1,0,,,1,FALSE,,,,,,,,,,,,,,,,,,,,,,,,,,,,,,,
,5a9b20c535237b0001129820,627c6f200eb3f1ceba2920d2,2022-05-12_05h21.47.099,classification_task,2021.2.3,Win32,60.03121623,627c6715c52fd12f31907bcf,,,,,,,,,,,,,,,,,,,,,,,l,1,2.0161,"[""0.133"",""0.356"",""0.619"",""0.681""]","[0,1,1,1]",0,33,33,33,1,1,1,,,1,FALSE,,,,,,,,,,,,,,,,,,,,,,,,,,,,,,,
,5a9b20c535237b0001129820,627c6f200eb3f1ceba2920d2,2022-05-12_05h21.47.099,classification_task,2021.2.3,Win32,60.03121623,627c6715c52fd12f31907bcf,,,,,,,,,,,,,,,,,,,,,,,a,1,1.9006,"[""0.256"",""0.524"",""0.571"",""0.900""]","[1,1,0,1]",0,34,34,34,1,0,1,,,1,FALSE,,,,,,,,,,,,,,,,,,,,,,,,,,,,,,,
,5a9b20c535237b0001129820,627c6f200eb3f1ceba2920d2,2022-05-12_05h21.47.099,classification_task,2021.2.3,Win32,60.03121623,627c6715c52fd12f31907bcf,,,,,,,,,,,,,,,,,,,,,,,l,0,2.0165,"[""0.733"",""0.487"",""0.817"",""0.939""]","[0,1,1,1]",0,35,35,35,1,0,0,,,1,FALSE,,,,,,,,,,,,,,,,,,,,,,,,,,,,,,,
,5a9b20c535237b0001129820,627c6f200eb3f1ceba2920d2,2022-05-12_05h21.47.099,classification_task,2021.2.3,Win32,60.03121623,627c6715c52fd12f31907bcf,,,,,,,,,,,,,,,,,,,,,,,l,0,1.8502,"[""0.145"",""0.524"",""0.860"",""0.900""]","[0,1,1,1]",0,36,36,36,1,0,1,,,1,FALSE,,,,,,,,,,,,,,,,,,,,,,,,,,,,,,,
,5a9b20c535237b0001129820,627c6f200eb3f1ceba2920d2,2022-05-12_05h21.47.099,classification_task,2021.2.3,Win32,60.03121623,627c6715c52fd12f31907bcf,,,,,,,,,,,,,,,,,,,,,,,a,0,0.9377,"[""0.087"",""0.205"",""0.558"",""0.769""]","[1,1,0,1]",0,37,37,37,1,1,0,,,1,FALSE,,,,,,,,,,,,,,,,,,,,,,,,,,,,,,,
,5a9b20c535237b0001129820,627c6f200eb3f1ceba2920d2,2022-05-12_05h21.47.099,classification_task,2021.2.3,Win32,60.03121623,627c6715c52fd12f31907bcf,,,,,,,,,,,,,,,,,,,,,,,a,0,1.6838,"[""0.034"",""0.356"",""0.165"",""0.681""]","[1,1,0,1]",0,38,38,38,1,1,1,,,1,FALSE,,,,,,,,,,,,,,,,,,,,,,,,,,,,,,,
,5a9b20c535237b0001129820,627c6f200eb3f1ceba2920d2,2022-05-12_05h21.47.099,classification_task,2021.2.3,Win32,60.03121623,627c6715c52fd12f31907bcf,,,,,,,,,,,,,,,,,,,,,,,l,1,1.2215,"[""0.034"",""0.165"",""0.619"",""0.681""]","[1,0,1,1]",0,39,39,39,1,1,1,,,1,FALSE,,,,,,,,,,,,,,,,,,,,,,,,,,,,,,,
,5a9b20c535237b0001129820,627c6f200eb3f1ceba2920d2,2022-05-12_05h21.47.099,classification_task,2021.2.3,Win32,60.03121623,627c6715c52fd12f31907bcf,,,,,,,,,,,,,,,,,,,,,,,l,0,1.6433,"[""0.306"",""0.487"",""0.558"",""0.939""]","[1,1,0,1]",0,40,40,40,1,0,0,,,1,FALSE,,,,,,,,,,,,,,,,,,,,,,,,,,,,,,,
,5a9b20c535237b0001129820,627c6f200eb3f1ceba2920d2,2022-05-12_05h21.47.099,classification_task,2021.2.3,Win32,60.03121623,627c6715c52fd12f31907bcf,,,,,,,,,,,,,,,,,,,,,,,a,0,0.7723,"[""0.087"",""0.145"",""0.438"",""0.769""]","[1,0,1,1]",0,41,41,41,1,1,0,,,1,FALSE,,,,,,,,,,,,,,,,,,,,,,,,,,,,,,,
,5a9b20c535237b0001129820,627c6f200eb3f1ceba2920d2,2022-05-12_05h21.47.099,classification_task,2021.2.3,Win32,60.03121623,627c6715c52fd12f31907bcf,,,,,,,,,,,,,,,,,,,,,,,a,1,1.7667,"[""0.306"",""0.487"",""0.817"",""0.145""]","[1,1,1,0]",0,42,42,42,1,0,0,,,1,FALSE,,,,,,,,,,,,,,,,,,,,,,,,,,,,,,,
,5a9b20c535237b0001129820,627c6f200eb3f1ceba2920d2,2022-05-12_05h21.47.099,classification_task,2021.2.3,Win32,60.03121623,627c6715c52fd12f31907bcf,,,,,,,,,,,,,,,,,,,,,,,l,0,0.8032,"[""0.256"",""0.145"",""0.860"",""0.900""]","[1,0,1,1]",0,43,43,43,1,0,1,,,1,FALSE,,,,,,,,,,,,,,,,,,,,,,,,,,,,,,,
,5a9b20c535237b0001129820,627c6f200eb3f1ceba2920d2,2022-05-12_05h21.47.099,classification_task,2021.2.3,Win32,60.03121623,627c6715c52fd12f31907bcf,,,,,,,,,,,,,,,,,,,,,,,a,0,1.0508,"[""0.034"",""0.356"",""0.619"",""0.165""]","[1,1,1,0]",0,44,44,44,1,1,1,,,1,FALSE,,,,,,,,,,,,,,,,,,,,,,,,,,,,,,,
,5a9b20c535237b0001129820,627c6f200eb3f1ceba2920d2,2022-05-12_05h21.47.099,classification_task,2021.2.3,Win32,60.03121623,627c6715c52fd12f31907bcf,,,,,,,,,,,,,,,,,,,,,,,l,0,2.004,"[""0.256"",""0.524"",""0.860"",""0.390""]","[1,1,1,0]",0,45,45,45,1,0,1,,,1,FALSE,,,,,,,,,,,,,,,,,,,,,,,,,,,,,,,
,5a9b20c535237b0001129820,627c6f200eb3f1ceba2920d2,2022-05-12_05h21.47.099,classification_task,2021.2.3,Win32,60.03121623,627c6715c52fd12f31907bcf,,,,,,,,,,,,,,,,,,,,,,,a,1,0.7977,"[""0.306"",""0.581"",""0.817"",""0.939""]","[1,0,1,1]",0,46,46,46,1,0,0,,,1,FALSE,,,,,,,,,,,,,,,,,,,,,,,,,,,,,,,
,5a9b20c535237b0001129820,627c6f200eb3f1ceba2920d2,2022-05-12_05h21.47.099,classification_task,2021.2.3,Win32,60.03121623,627c6715c52fd12f31907bcf,,,,,,,,,,,,,,,,,,,,,,,a,0,0.9175,"[""0.145"",""0.205"",""0.438"",""0.769""]","[0,1,1,1]",0,47,47,47,1,1,0,,,1,FALSE,,,,,,,,,,,,,,,,,,,,,,,,,,,,,,,
,5a9b20c535237b0001129820,627c6f200eb3f1ceba2920d2,2022-05-12_05h21.47.099,classification_task,2021.2.3,Win32,60.03121623,627c6715c52fd12f31907bcf,,,,,,,,,,,,,,,,,,,,,,,l,1,2.0839,"[""0.087"",""0.205"",""0.438"",""0.133""]","[1,1,1,0]",0,48,48,48,1,1,0,,,1,FALSE,,,,,,,,,,,,,,,,,,,,,,,,,,,,,,,
,5a9b20c535237b0001129820,627c6f200eb3f1ceba2920d2,2022-05-12_05h21.47.099,classification_task,2021.2.3,Win32,60.03121623,627c6715c52fd12f31907bcf,,,,,,,,,,,,,,,,,,,,,,,a,0,1.0188,"[""0.034"",""0.356"",""0.165"",""0.681""]","[1,1,0,1]",0,49,49,49,1,1,1,,,1,FALSE,,,,,,,,,,,,,,,,,,,,,,,,,,,,,,,
,5a9b20c535237b0001129820,627c6f200eb3f1ceba2920d2,2022-05-12_05h21.47.099,classification_task,2021.2.3,Win32,60.03121623,627c6715c52fd12f31907bcf,,,,,,,,,,,,,,,,,,,,,,,a,0,3.3338,"[""0.087"",""0.133"",""0.438"",""0.769""]","[1,0,1,1]",0,50,50,50,1,1,0,,,1,FALSE,,,,,,,,,,,,,,,,,,,,,,,,,,,,,,,
,5a9b20c535237b0001129820,627c6f200eb3f1ceba2920d2,2022-05-12_05h21.47.099,classification_task,2021.2.3,Win32,60.03121623,627c6715c52fd12f31907bcf,,,,,,,,,,,,,,,,,,,,,,,l,0,1.1471,"[""0.133"",""0.487"",""0.817"",""0.939""]","[0,1,1,1]",0,51,51,51,1,0,0,,,1,FALSE,,,,,,,,,,,,,,,,,,,,,,,,,,,,,,,
,5a9b20c535237b0001129820,627c6f200eb3f1ceba2920d2,2022-05-12_05h21.47.099,classification_task,2021.2.3,Win32,60.03121623,627c6715c52fd12f31907bcf,,,,,,,,,,,,,,,,,,,,,,,a,0,2.4885,"[""0.034"",""0.356"",""0.619"",""0.581""]","[1,1,1,0]",0,52,52,52,1,1,1,,,1,FALSE,,,,,,,,,,,,,,,,,,,,,,,,,,,,,,,
,5a9b20c535237b0001129820,627c6f200eb3f1ceba2920d2,2022-05-12_05h21.47.099,classification_task,2021.2.3,Win32,60.03121623,627c6715c52fd12f31907bcf,,,,,,,,,,,,,,,,,,,,,,,l,0,1.136,"[""0.256"",""0.524"",""0.860"",""0.558""]","[1,1,1,0]",0,53,53,53,1,0,1,,,1,FALSE,,,,,,,,,,,,,,,,,,,,,,,,,,,,,,,
,5a9b20c535237b0001129820,627c6f200eb3f1ceba2920d2,2022-05-12_05h21.47.099,classification_task,2021.2.3,Win32,60.03121623,627c6715c52fd12f31907bcf,,,,,,,,,,,,,,,,,,,,,,,l,1,0.6006,"[""0.166"",""0.356"",""0.619"",""0.681""]","[0,1,1,1]",0,54,54,54,1,1,1,,,1,FALSE,,,,,,,,,,,,,,,,,,,,,,,,,,,,,,,
,5a9b20c535237b0001129820,627c6f200eb3f1ceba2920d2,2022-05-12_05h21.47.099,classification_task,2021.2.3,Win32,60.03121623,627c6715c52fd12f31907bcf,,,,,,,,,,,,,,,,,,,,,,,l,0,2.7037,"[""0.125"",""0.524"",""0.860"",""0.900""]","[0,1,1,1]",0,55,55,55,1,0,1,,,1,FALSE,,,,,,,,,,,,,,,,,,,,,,,,,,,,,,,
,5a9b20c535237b0001129820,627c6f200eb3f1ceba2920d2,2022-05-12_05h21.47.099,classification_task,2021.2.3,Win32,60.03121623,627c6715c52fd12f31907bcf,,,,,,,,,,,,,,,,,,,,,,,l,1,1.7637,"[""0.733"",""0.205"",""0.438"",""0.769""]","[0,1,1,1]",0,56,56,56,1,1,0,,,1,FALSE,,,,,,,,,,,,,,,,,,,,,,,,,,,,,,,
,5a9b20c535237b0001129820,627c6f200eb3f1ceba2920d2,2022-05-12_05h21.47.099,classification_task,2021.2.3,Win32,60.03121623,627c6715c52fd12f31907bcf,,,,,,,,,,,,,,,,,,,,,,,l,1,1.2058,"[""0.087"",""0.205"",""0.152"",""0.769""]","[1,1,0,1]",0,57,57,57,1,1,0,,,1,FALSE,,,,,,,,,,,,,,,,,,,,,,,,,,,,,,,
,5a9b20c535237b0001129820,627c6f200eb3f1ceba2920d2,2022-05-12_05h21.47.099,classification_task,2021.2.3,Win32,60.03121623,627c6715c52fd12f31907bcf,,,,,,,,,,,,,,,,,,,,,,,a,1,2.1719,"[""0.256"",""0.733"",""0.860"",""0.900""]","[1,0,1,1]",0,58,58,58,1,0,1,,,1,FALSE,,,,,,,,,,,,,,,,,,,,,,,,,,,,,,,
,5a9b20c535237b0001129820,627c6f200eb3f1ceba2920d2,2022-05-12_05h21.47.099,classification_task,2021.2.3,Win32,60.03121623,627c6715c52fd12f31907bcf,,,,,,,,,,,,,,,,,,,,,,,l,1,1.5517,"[""0.034"",""0.571"",""0.619"",""0.681""]","[1,0,1,1]",0,59,59,59,1,1,1,,,1,FALSE,,,,,,,,,,,,,,,,,,,,,,,,,,,,,,,
,5a9b20c535237b0001129820,627c6f200eb3f1ceba2920d2,2022-05-12_05h21.47.099,classification_task,2021.2.3,Win32,60.03121623,627c6715c52fd12f31907bcf,,,,,,,,,,,,,,,,,,,,,,,a,1,1.3967,"[""0.256"",""0.524"",""0.558"",""0.900""]","[1,1,0,1]",0,60,60,60,1,0,1,,,1,FALSE,,,,,,,,,,,,,,,,,,,,,,,,,,,,,,,
,5a9b20c535237b0001129820,627c6f200eb3f1ceba2920d2,2022-05-12_05h21.47.099,classification_task,2021.2.3,Win32,60.03121623,627c6715c52fd12f31907bcf,,,,,,,,,,,,,,,,,,,,,,,a,1,1.6384,"[""0.306"",""0.487"",""0.817"",""0.390""]","[1,1,1,0]",0,61,61,61,1,0,0,,,1,FALSE,,,,,,,,,,,,,,,,,,,,,,,,,,,,,,,
,5a9b20c535237b0001129820,627c6f200eb3f1ceba2920d2,2022-05-12_05h21.47.099,classification_task,2021.2.3,Win32,60.03121623,627c6715c52fd12f31907bcf,,,,,,,,,,,,,,,,,,,,,,,a,1,1.1344,"[""0.306"",""0.133"",""0.817"",""0.939""]","[1,0,1,1]",0,62,62,62,1,0,0,,,1,FALSE,,,,,,,,,,,,,,,,,,,,,,,,,,,,,,,
,5a9b20c535237b0001129820,627c6f200eb3f1ceba2920d2,2022-05-12_05h21.47.099,classification_task,2021.2.3,Win32,60.03121623,627c6715c52fd12f31907bcf,,,,,,,,,,,,,,,,,,,,,,,a,1,1.2348,"[""0.306"",""0.487"",""0.145"",""0.939""]","[1,1,0,1]",0,63,63,63,1,0,0,,,1,FALSE,,,,,,,,,,,,,,,,,,,,,,,,,,,,,,,
,5a9b20c535237b0001129820,627c6f200eb3f1ceba2920d2,2022-05-12_05h21.47.099,classification_task,2021.2.3,Win32,60.03121623,627c6715c52fd12f31907bcf,,,,,,,,,,,,,,,,,,,,,,,,,,,,,,,,,,,,,,,0, ,,0,1.717617088,188.0846,0,1,1,1,1,2,2,,,,,,,,,,,,,,,,,,
,5a9b20c535237b0001129820,627c6f200eb3f1ceba2920d2,2022-05-12_05h21.47.099,classification_task,2021.2.3,Win32,60.03121623,627c6715c52fd12f31907bcf,,,,,,,,,,,,,,,,,,,,,,,,,,,,,,,,,,,,,,,1,  ,,0,4.289633549,190.7757,0,1,1,1,1,2,2,,,,,,,,,,,,,,,,,,
,5a9b20c535237b0001129820,627c6f200eb3f1ceba2920d2,2022-05-12_05h21.47.099,classification_task,2021.2.3,Win32,60.03121623,627c6715c52fd12f31907bcf,,,,,,,,,,,,,,,,,,,,,,,,,,,,,,,,,,,,,,,2,  ,,0,3.407799334,193.0163,0,1,1,1,1,2,2,,,,,,,,,,,,,,,,,,
,5a9b20c535237b0001129820,627c6f200eb3f1ceba2920d2,2022-05-12_05h21.47.099,classification_task,2021.2.3,Win32,60.03121623,627c6715c52fd12f31907bcf,,,,,,,,,,,,,,,,,,,,,,,,,,,,,,,,,,,,,,,,,,,,,0,1,1,1,1,,2,,,,,,,,,,,,,,,,,,
,5a9b20c535237b0001129820,627c6f200eb3f1ceba2920d2,2022-05-12_05h21.47.099,classification_task,2021.2.3,Win32,60.03121623,627c6715c52fd12f31907bcf,,,,,,,,,,,,,,,,,,,,,space,7.9697,a,1,1.5982,"[""0.306"",""0.487"",""0.558"",""0.939""]","[1,1,0,1]",0,0,0,0,1,0,0,,,1,FALSE,,,,,,,,,,,,,,,,,,,,,,,,,,,,,,,
,5a9b20c535237b0001129820,627c6f200eb3f1ceba2920d2,2022-05-12_05h21.47.099,classification_task,2021.2.3,Win32,60.03121623,627c6715c52fd12f31907bcf,,,,,,,,,,,,,,,,,,,,,,,l,1,1.6343,"[""0.034"",""0.718"",""0.619"",""0.681""]","[1,0,1,1]",0,1,1,1,1,1,1,,,1,FALSE,,,,,,,,,,,,,,,,,,,,,,,,,,,,,,,
,5a9b20c535237b0001129820,627c6f200eb3f1ceba2920d2,2022-05-12_05h21.47.099,classification_task,2021.2.3,Win32,60.03121623,627c6715c52fd12f31907bcf,,,,,,,,,,,,,,,,,,,,,,,a,0,0.8313,"[""0.152"",""0.356"",""0.619"",""0.681""]","[0,1,1,1]",0,2,2,2,1,1,1,,,1,FALSE,,,,,,,,,,,,,,,,,,,,,,,,,,,,,,,
,5a9b20c535237b0001129820,627c6f200eb3f1ceba2920d2,2022-05-12_05h21.47.099,classification_task,2021.2.3,Win32,60.03121623,627c6715c52fd12f31907bcf,,,,,,,,,,,,,,,,,,,,,,,a,1,1.5845,"[""0.256"",""0.524"",""0.125"",""0.900""]","[1,1,0,1]",0,3,3,3,1,0,1,,,1,FALSE,,,,,,,,,,,,,,,,,,,,,,,,,,,,,,,
,5a9b20c535237b0001129820,627c6f200eb3f1ceba2920d2,2022-05-12_05h21.47.099,classification_task,2021.2.3,Win32,60.03121623,627c6715c52fd12f31907bcf,,,,,,,,,,,,,,,,,,,,,,,a,0,1.7,"[""0.087"",""0.205"",""0.390"",""0.769""]","[1,1,0,1]",0,4,4,4,1,1,0,,,1,FALSE,,,,,,,,,,,,,,,,,,,,,,,,,,,,,,,
,5a9b20c535237b0001129820,627c6f200eb3f1ceba2920d2,2022-05-12_05h21.47.099,classification_task,2021.2.3,Win32,60.03121623,627c6715c52fd12f31907bcf,,,,,,,,,,,,,,,,,,,,,,,l,0,1.3926,"[""0.306"",""0.733"",""0.817"",""0.939""]","[1,0,1,1]",0,5,5,5,1,0,0,,,1,FALSE,,,,,,,,,,,,,,,,,,,,,,,,,,,,,,,
,5a9b20c535237b0001129820,627c6f200eb3f1ceba2920d2,2022-05-12_05h21.47.099,classification_task,2021.2.3,Win32,60.03121623,627c6715c52fd12f31907bcf,,,,,,,,,,,,,,,,,,,,,,,l,0,0.8709,"[""0.165"",""0.487"",""0.817"",""0.939""]","[0,1,1,1]",0,6,6,6,1,0,0,,,1,FALSE,,,,,,,,,,,,,,,,,,,,,,,,,,,,,,,
,5a9b20c535237b0001129820,627c6f200eb3f1ceba2920d2,2022-05-12_05h21.47.099,classification_task,2021.2.3,Win32,60.03121623,627c6715c52fd12f31907bcf,,,,,,,,,,,,,,,,,,,,,,,a,0,2.538,"[""0.087"",""0.390"",""0.438"",""0.769""]","[1,0,1,1]",0,7,7,7,1,1,0,,,1,FALSE,,,,,,,,,,,,,,,,,,,,,,,,,,,,,,,
,5a9b20c535237b0001129820,627c6f200eb3f1ceba2920d2,2022-05-12_05h21.47.099,classification_task,2021.2.3,Win32,60.03121623,627c6715c52fd12f31907bcf,,,,,,,,,,,,,,,,,,,,,,,l,0,0.9314,"[""0.306"",""0.487"",""0.817"",""0.571""]","[1,1,1,0]",0,8,8,8,1,0,0,,,1,FALSE,,,,,,,,,,,,,,,,,,,,,,,,,,,,,,,
,5a9b20c535237b0001129820,627c6f200eb3f1ceba2920d2,2022-05-12_05h21.47.099,classification_task,2021.2.3,Win32,60.03121623,627c6715c52fd12f31907bcf,,,,,,,,,,,,,,,,,,,,,,,a,1,1.4532,"[""0.133"",""0.524"",""0.860"",""0.900""]","[0,1,1,1]",0,9,9,9,1,0,1,,,1,FALSE,,,,,,,,,,,,,,,,,,,,,,,,,,,,,,,
,5a9b20c535237b0001129820,627c6f200eb3f1ceba2920d2,2022-05-12_05h21.47.099,classification_task,2021.2.3,Win32,60.03121623,627c6715c52fd12f31907bcf,,,,,,,,,,,,,,,,,,,,,,,l,1,2.205,"[""0.087"",""0.205"",""0.438"",""0.152""]","[1,1,1,0]",0,10,10,10,1,1,0,,,1,FALSE,,,,,,,,,,,,,,,,,,,,,,,,,,,,,,,
,5a9b20c535237b0001129820,627c6f200eb3f1ceba2920d2,2022-05-12_05h21.47.099,classification_task,2021.2.3,Win32,60.03121623,627c6715c52fd12f31907bcf,,,,,,,,,,,,,,,,,,,,,,,a,0,0.7389,"[""0.034"",""0.356"",""0.619"",""0.125""]","[1,1,1,0]",0,11,11,11,1,1,1,,,1,FALSE,,,,,,,,,,,,,,,,,,,,,,,,,,,,,,,
,5a9b20c535237b0001129820,627c6f200eb3f1ceba2920d2,2022-05-12_05h21.47.099,classification_task,2021.2.3,Win32,60.03121623,627c6715c52fd12f31907bcf,,,,,,,,,,,,,,,,,,,,,,,l,0,0.6419,"[""0.256"",""0.524"",""0.860"",""0.133""]","[1,1,1,0]",0,12,12,12,1,0,1,,,1,FALSE,,,,,,,,,,,,,,,,,,,,,,,,,,,,,,,
,5a9b20c535237b0001129820,627c6f200eb3f1ceba2920d2,2022-05-12_05h21.47.099,classification_task,2021.2.3,Win32,60.03121623,627c6715c52fd12f31907bcf,,,,,,,,,,,,,,,,,,,,,,,l,0,0.474,"[""0.256"",""0.390"",""0.860"",""0.900""]","[1,0,1,1]",0,13,13,13,1,0,1,,,1,FALSE,,,,,,,,,,,,,,,,,,,,,,,,,,,,,,,
,5a9b20c535237b0001129820,627c6f200eb3f1ceba2920d2,2022-05-12_05h21.47.099,classification_task,2021.2.3,Win32,60.03121623,627c6715c52fd12f31907bcf,,,,,,,,,,,,,,,,,,,,,,,a,0,0.9172,"[""0.558"",""0.205"",""0.438"",""0.769""]","[0,1,1,1]",0,14,14,14,1,1,0,,,1,FALSE,,,,,,,,,,,,,,,,,,,,,,,,,,,,,,,
,5a9b20c535237b0001129820,627c6f200eb3f1ceba2920d2,2022-05-12_05h21.47.099,classification_task,2021.2.3,Win32,60.03121623,627c6715c52fd12f31907bcf,,,,,,,,,,,,,,,,,,,,,,,l,1,0.9007,"[""0.034"",""0.356"",""0.558"",""0.681""]","[1,1,0,1]",0,15,15,15,1,1,1,,,1,FALSE,,,,,,,,,,,,,,,,,,,,,,,,,,,,,,,
,5a9b20c535237b0001129820,627c6f200eb3f1ceba2920d2,2022-05-12_05h21.47.099,classification_task,2021.2.3,Win32,60.03121623,627c6715c52fd12f31907bcf,,,,,,,,,,,,,,,,,,,,,,,l,0,0.7389,"[""0.306"",""0.487"",""0.817"",""0.152""]","[1,1,1,0]",0,16,16,16,1,0,0,,,1,FALSE,,,,,,,,,,,,,,,,,,,,,,,,,,,,,,,
,5a9b20c535237b0001129820,627c6f200eb3f1ceba2920d2,2022-05-12_05h21.47.099,classification_task,2021.2.3,Win32,60.03121623,627c6715c52fd12f31907bcf,,,,,,,,,,,,,,,,,,,,,,,l,0,0.7592,"[""0.256"",""0.524"",""0.718"",""0.900""]","[1,1,0,1]",0,17,17,17,1,0,1,,,1,FALSE,,,,,,,,,,,,,,,,,,,,,,,,,,,,,,,
,5a9b20c535237b0001129820,627c6f200eb3f1ceba2920d2,2022-05-12_05h21.47.099,classification_task,2021.2.3,Win32,60.03121623,627c6715c52fd12f31907bcf,,,,,,,,,,,,,,,,,,,,,,,l,1,1.4584,"[""0.087"",""0.205"",""0.438"",""0.133""]","[1,1,1,0]",0,18,18,18,1,1,0,,,1,FALSE,,,,,,,,,,,,,,,,,,,,,,,,,,,,,,,
,5a9b20c535237b0001129820,627c6f200eb3f1ceba2920d2,2022-05-12_05h21.47.099,classification_task,2021.2.3,Win32,60.03121623,627c6715c52fd12f31907bcf,,,,,,,,,,,,,,,,,,,,,,,a,1,0.8752,"[""0.256"",""0.524"",""0.860"",""0.718""]","[1,1,1,0]",0,19,19,19,1,0,1,,,1,FALSE,,,,,,,,,,,,,,,,,,,,,,,,,,,,,,,
,5a9b20c535237b0001129820,627c6f200eb3f1ceba2920d2,2022-05-12_05h21.47.099,classification_task,2021.2.3,Win32,60.03121623,627c6715c52fd12f31907bcf,,,,,,,,,,,,,,,,,,,,,,,a,0,0.9837,"[""0.034"",""0.393"",""0.619"",""0.681""]","[1,0,1,1]",0,20,20,20,1,1,1,,,1,FALSE,,,,,,,,,,,,,,,,,,,,,,,,,,,,,,,
,5a9b20c535237b0001129820,627c6f200eb3f1ceba2920d2,2022-05-12_05h21.47.099,classification_task,2021.2.3,Win32,60.03121623,627c6715c52fd12f31907bcf,,,,,,,,,,,,,,,,,,,,,,,a,1,1.4009,"[""0.581"",""0.487"",""0.817"",""0.939""]","[0,1,1,1]",0,21,21,21,1,0,0,,,1,FALSE,,,,,,,,,,,,,,,,,,,,,,,,,,,,,,,
,5a9b20c535237b0001129820,627c6f200eb3f1ceba2920d2,2022-05-12_05h21.47.099,classification_task,2021.2.3,Win32,60.03121623,627c6715c52fd12f31907bcf,,,,,,,,,,,,,,,,,,,,,,,a,1,1.3551,"[""0.256"",""0.157"",""0.860"",""0.900""]","[1,0,1,1]",0,22,22,22,1,0,1,,,1,FALSE,,,,,,,,,,,,,,,,,,,,,,,,,,,,,,,
,5a9b20c535237b0001129820,627c6f200eb3f1ceba2920d2,2022-05-12_05h21.47.099,classification_task,2021.2.3,Win32,60.03121623,627c6715c52fd12f31907bcf,,,,,,,,,,,,,,,,,,,,,,,l,1,0.7218,"[""0.145"",""0.356"",""0.619"",""0.681""]","[0,1,1,1]",0,23,23,23,1,1,1,,,1,FALSE,,,,,,,,,,,,,,,,,,,,,,,,,,,,,,,
,5a9b20c535237b0001129820,627c6f200eb3f1ceba2920d2,2022-05-12_05h21.47.099,classification_task,2021.2.3,Win32,60.03121623,627c6715c52fd12f31907bcf,,,,,,,,,,,,,,,,,,,,,,,a,0,0.6863,"[""0.152"",""0.205"",""0.438"",""0.769""]","[0,1,1,1]",0,24,24,24,1,1,0,,,1,FALSE,,,,,,,,,,,,,,,,,,,,,,,,,,,,,,,
,5a9b20c535237b0001129820,627c6f200eb3f1ceba2920d2,2022-05-12_05h21.47.099,classification_task,2021.2.3,Win32,60.03121623,627c6715c52fd12f31907bcf,,,,,,,,,,,,,,,,,,,,,,,a,0,1.485,"[""0.087"",""0.205"",""0.157"",""0.769""]","[1,1,0,1]",0,25,25,25,1,1,0,,,1,FALSE,,,,,,,,,,,,,,,,,,,,,,,,,,,,,,,
,5a9b20c535237b0001129820,627c6f200eb3f1ceba2920d2,2022-05-12_05h21.47.099,classification_task,2021.2.3,Win32,60.03121623,627c6715c52fd12f31907bcf,,,,,,,,,,,,,,,,,,,,,,,l,1,0.9673,"[""0.034"",""0.356"",""0.390"",""0.681""]","[1,1,0,1]",0,26,26,26,1,1,1,,,1,FALSE,,,,,,,,,,,,,,,,,,,,,,,,,,,,,,,
,5a9b20c535237b0001129820,627c6f200eb3f1ceba2920d2,2022-05-12_05h21.47.099,classification_task,2021.2.3,Win32,60.03121623,627c6715c52fd12f31907bcf,,,,,,,,,,,,,,,,,,,,,,,l,0,1.4003,"[""0.125"",""0.524"",""0.860"",""0.900""]","[0,1,1,1]",0,27,27,27,1,0,1,,,1,FALSE,,,,,,,,,,,,,,,,,,,,,,,,,,,,,,,
,5a9b20c535237b0001129820,627c6f200eb3f1ceba2920d2,2022-05-12_05h21.47.099,classification_task,2021.2.3,Win32,60.03121623,627c6715c52fd12f31907bcf,,,,,,,,,,,,,,,,,,,,,,,a,0,0.9362,"[""0.034"",""0.356"",""0.619"",""0.390""]","[1,1,1,0]",0,28,28,28,1,1,1,,,1,FALSE,,,,,,,,,,,,,,,,,,,,,,,,,,,,,,,
,5a9b20c535237b0001129820,627c6f200eb3f1ceba2920d2,2022-05-12_05h21.47.099,classification_task,2021.2.3,Win32,60.03121623,627c6715c52fd12f31907bcf,,,,,,,,,,,,,,,,,,,,,,,l,0,0.7079,"[""0.306"",""0.393"",""0.817"",""0.939""]","[1,0,1,1]",0,29,29,29,1,0,0,,,1,FALSE,,,,,,,,,,,,,,,,,,,,,,,,,,,,,,,
,5a9b20c535237b0001129820,627c6f200eb3f1ceba2920d2,2022-05-12_05h21.47.099,classification_task,2021.2.3,Win32,60.03121623,627c6715c52fd12f31907bcf,,,,,,,,,,,,,,,,,,,,,,,a,0,0.7171,"[""0.087"",""0.157"",""0.438"",""0.769""]","[1,0,1,1]",0,30,30,30,1,1,0,,,1,FALSE,,,,,,,,,,,,,,,,,,,,,,,,,,,,,,,
,5a9b20c535237b0001129820,627c6f200eb3f1ceba2920d2,2022-05-12_05h21.47.099,classification_task,2021.2.3,Win32,60.03121623,627c6715c52fd12f31907bcf,,,,,,,,,,,,,,,,,,,,,,,l,0,0.6231,"[""0.306"",""0.487"",""0.393"",""0.939""]","[1,1,0,1]",0,31,31,31,1,0,0,,,1,FALSE,,,,,,,,,,,,,,,,,,,,,,,,,,,,,,,
,5a9b20c535237b0001129820,627c6f200eb3f1ceba2920d2,2022-05-12_05h21.47.099,classification_task,2021.2.3,Win32,60.03121623,627c6715c52fd12f31907bcf,,,,,,,,,,,,,,,,,,,,,,,a,0,0.8717,"[""0.390"",""0.356"",""0.619"",""0.681""]","[0,1,1,1]",0,32,32,32,1,1,1,,,1,FALSE,,,,,,,,,,,,,,,,,,,,,,,,,,,,,,,
,5a9b20c535237b0001129820,627c6f200eb3f1ceba2920d2,2022-05-12_05h21.47.099,classification_task,2021.2.3,Win32,60.03121623,627c6715c52fd12f31907bcf,,,,,,,,,,,,,,,,,,,,,,,l,0,0.509,"[""0.256"",""0.524"",""0.860"",""0.390""]","[1,1,1,0]",0,33,33,33,1,0,1,,,1,FALSE,,,,,,,,,,,,,,,,,,,,,,,,,,,,,,,
,5a9b20c535237b0001129820,627c6f200eb3f1ceba2920d2,2022-05-12_05h21.47.099,classification_task,2021.2.3,Win32,60.03121623,627c6715c52fd12f31907bcf,,,,,,,,,,,,,,,,,,,,,,,a,0,0.5869,"[""0.087"",""0.718"",""0.438"",""0.769""]","[1,0,1,1]",0,34,34,34,1,1,0,,,1,FALSE,,,,,,,,,,,,,,,,,,,,,,,,,,,,,,,
,5a9b20c535237b0001129820,627c6f200eb3f1ceba2920d2,2022-05-12_05h21.47.099,classification_task,2021.2.3,Win32,60.03121623,627c6715c52fd12f31907bcf,,,,,,,,,,,,,,,,,,,,,,,l,0,0.4768,"[""0.145"",""0.487"",""0.817"",""0.939""]","[0,1,1,1]",0,35,35,35,1,0,0,,,1,FALSE,,,,,,,,,,,,,,,,,,,,,,,,,,,,,,,
,5a9b20c535237b0001129820,627c6f200eb3f1ceba2920d2,2022-05-12_05h21.47.099,classification_task,2021.2.3,Win32,60.03121623,627c6715c52fd12f31907bcf,,,,,,,,,,,,,,,,,,,,,,,a,0,1.7679,"[""0.087"",""0.205"",""0.438"",""0.152""]","[1,1,1,0]",0,36,36,36,1,1,0,,,1,FALSE,,,,,,,,,,,,,,,,,,,,,,,,,,,,,,,
,5a9b20c535237b0001129820,627c6f200eb3f1ceba2920d2,2022-05-12_05h21.47.099,classification_task,2021.2.3,Win32,60.03121623,627c6715c52fd12f31907bcf,,,,,,,,,,,,,,,,,,,,,,,l,0,0.9918,"[""0.145"",""0.524"",""0.860"",""0.900""]","[0,1,1,1]",0,37,37,37,1,0,1,,,1,FALSE,,,,,,,,,,,,,,,,,,,,,,,,,,,,,,,
,5a9b20c535237b0001129820,627c6f200eb3f1ceba2920d2,2022-05-12_05h21.47.099,classification_task,2021.2.3,Win32,60.03121623,627c6715c52fd12f31907bcf,,,,,,,,,,,,,,,,,,,,,,,l,0,0.9508,"[""0.306"",""0.487"",""0.817"",""0.733""]","[1,1,1,0]",0,38,38,38,1,0,0,,,1,FALSE,,,,,,,,,,,,,,,,,,,,,,,,,,,,,,,
,5a9b20c535237b0001129820,627c6f200eb3f1ceba2920d2,2022-05-12_05h21.47.099,classification_task,2021.2.3,Win32,60.03121623,627c6715c52fd12f31907bcf,,,,,,,,,,,,,,,,,,,,,,,a,0,0.6515,"[""0.087"",""0.205"",""0.571"",""0.769""]","[1,1,0,1]",0,39,39,39,1,1,0,,,1,FALSE,,,,,,,,,,,,,,,,,,,,,,,,,,,,,,,
,5a9b20c535237b0001129820,627c6f200eb3f1ceba2920d2,2022-05-12_05h21.47.099,classification_task,2021.2.3,Win32,60.03121623,627c6715c52fd12f31907bcf,,,,,,,,,,,,,,,,,,,,,,,a,0,0.584,"[""0.733"",""0.205"",""0.438"",""0.769""]","[0,1,1,1]",0,40,40,40,1,1,0,,,1,FALSE,,,,,,,,,,,,,,,,,,,,,,,,,,,,,,,
,5a9b20c535237b0001129820,627c6f200eb3f1ceba2920d2,2022-05-12_05h21.47.099,classification_task,2021.2.3,Win32,60.03121623,627c6715c52fd12f31907bcf,,,,,,,,,,,,,,,,,,,,,,,l,0,1.5173,"[""0.256"",""0.524"",""0.733"",""0.900""]","[1,1,0,1]",0,41,41,41,1,0,1,,,1,FALSE,,,,,,,,,,,,,,,,,,,,,,,,,,,,,,,
,5a9b20c535237b0001129820,627c6f200eb3f1ceba2920d2,2022-05-12_05h21.47.099,classification_task,2021.2.3,Win32,60.03121623,627c6715c52fd12f31907bcf,,,,,,,,,,,,,,,,,,,,,,,a,1,0.7712,"[""0.306"",""0.487"",""0.125"",""0.939""]","[1,1,0,1]",0,42,42,42,1,0,0,,,1,FALSE,,,,,,,,,,,,,,,,,,,,,,,,,,,,,,,
,5a9b20c535237b0001129820,627c6f200eb3f1ceba2920d2,2022-05-12_05h21.47.099,classification_task,2021.2.3,Win32,60.03121623,627c6715c52fd12f31907bcf,,,,,,,,,,,,,,,,,,,,,,,l,1,2.2339,"[""0.034"",""0.718"",""0.619"",""0.681""]","[1,0,1,1]",0,43,43,43,1,1,1,,,1,FALSE,,,,,,,,,,,,,,,,,,,,,,,,,,,,,,,
,5a9b20c535237b0001129820,627c6f200eb3f1ceba2920d2,2022-05-12_05h21.47.099,classification_task,2021.2.3,Win32,60.03121623,627c6715c52fd12f31907bcf,,,,,,,,,,,,,,,,,,,,,,,l,0,0.6838,"[""0.306"",""0.133"",""0.817"",""0.939""]","[1,0,1,1]",0,44,44,44,1,0,0,,,1,FALSE,,,,,,,,,,,,,,,,,,,,,,,,,,,,,,,
,5a9b20c535237b0001129820,627c6f200eb3f1ceba2920d2,2022-05-12_05h21.47.099,classification_task,2021.2.3,Win32,60.03121623,627c6715c52fd12f31907bcf,,,,,,,,,,,,,,,,,,,,,,,a,0,0.8841,"[""0.034"",""0.356"",""0.619"",""0.581""]","[1,1,1,0]",0,45,45,45,1,1,1,,,1,FALSE,,,,,,,,,,,,,,,,,,,,,,,,,,,,,,,
,5a9b20c535237b0001129820,627c6f200eb3f1ceba2920d2,2022-05-12_05h21.47.099,classification_task,2021.2.3,Win32,60.03121623,627c6715c52fd12f31907bcf,,,,,,,,,,,,,,,,,,,,,,,a,0,0.7836,"[""0.034"",""0.356"",""0.157"",""0.681""]","[1,1,0,1]",0,46,46,46,1,1,1,,,1,FALSE,,,,,,,,,,,,,,,,,,,,,,,,,,,,,,,
,5a9b20c535237b0001129820,627c6f200eb3f1ceba2920d2,2022-05-12_05h21.47.099,classification_task,2021.2.3,Win32,60.03121623,627c6715c52fd12f31907bcf,,,,,,,,,,,,,,,,,,,,,,,l,0,0.5673,"[""0.256"",""0.165"",""0.860"",""0.900""]","[1,0,1,1]",0,47,47,47,1,0,1,,,1,FALSE,,,,,,,,,,,,,,,,,,,,,,,,,,,,,,,
,5a9b20c535237b0001129820,627c6f200eb3f1ceba2920d2,2022-05-12_05h21.47.099,classification_task,2021.2.3,Win32,60.03121623,627c6715c52fd12f31907bcf,,,,,,,,,,,,,,,,,,,,,,,a,0,0.5511,"[""0.145"",""0.356"",""0.619"",""0.681""]","[0,1,1,1]",0,48,48,48,1,1,1,,,1,FALSE,,,,,,,,,,,,,,,,,,,,,,,,,,,,,,,
,5a9b20c535237b0001129820,627c6f200eb3f1ceba2920d2,2022-05-12_05h21.47.099,classification_task,2021.2.3,Win32,60.03121623,627c6715c52fd12f31907bcf,,,,,,,,,,,,,,,,,,,,,,,a,1,0.635,"[""0.306"",""0.581"",""0.817"",""0.939""]","[1,0,1,1]",0,49,49,49,1,0,0,,,1,FALSE,,,,,,,,,,,,,,,,,,,,,,,,,,,,,,,
,5a9b20c535237b0001129820,627c6f200eb3f1ceba2920d2,2022-05-12_05h21.47.099,classification_task,2021.2.3,Win32,60.03121623,627c6715c52fd12f31907bcf,,,,,,,,,,,,,,,,,,,,,,,a,1,0.5066,"[""0.133"",""0.487"",""0.817"",""0.939""]","[0,1,1,1]",0,50,50,50,1,0,0,,,1,FALSE,,,,,,,,,,,,,,,,,,,,,,,,,,,,,,,
,5a9b20c535237b0001129820,627c6f200eb3f1ceba2920d2,2022-05-12_05h21.47.099,classification_task,2021.2.3,Win32,60.03121623,627c6715c52fd12f31907bcf,,,,,,,,,,,,,,,,,,,,,,,l,0,1.034,"[""0.256"",""0.393"",""0.860"",""0.900""]","[1,0,1,1]",0,51,51,51,1,0,1,,,1,FALSE,,,,,,,,,,,,,,,,,,,,,,,,,,,,,,,
,5a9b20c535237b0001129820,627c6f200eb3f1ceba2920d2,2022-05-12_05h21.47.099,classification_task,2021.2.3,Win32,60.03121623,627c6715c52fd12f31907bcf,,,,,,,,,,,,,,,,,,,,,,,l,1,1.5006,"[""0.034"",""0.718"",""0.619"",""0.681""]","[1,0,1,1]",0,52,52,52,1,1,1,,,1,FALSE,,,,,,,,,,,,,,,,,,,,,,,,,,,,,,,
,5a9b20c535237b0001129820,627c6f200eb3f1ceba2920d2,2022-05-12_05h21.47.099,classification_task,2021.2.3,Win32,60.03121623,627c6715c52fd12f31907bcf,,,,,,,,,,,,,,,,,,,,,,,a,0,0.8475,"[""0.087"",""0.205"",""0.438"",""0.393""]","[1,1,1,0]",0,53,53,53,1,1,0,,,1,FALSE,,,,,,,,,,,,,,,,,,,,,,,,,,,,,,,
,5a9b20c535237b0001129820,627c6f200eb3f1ceba2920d2,2022-05-12_05h21.47.099,classification_task,2021.2.3,Win32,60.03121623,627c6715c52fd12f31907bcf,,,,,,,,,,,,,,,,,,,,,,,l,0,0.7092,"[""0.145"",""0.524"",""0.860"",""0.900""]","[0,1,1,1]",0,54,54,54,1,0,1,,,1,FALSE,,,,,,,,,,,,,,,,,,,,,,,,,,,,,,,
,5a9b20c535237b0001129820,627c6f200eb3f1ceba2920d2,2022-05-12_05h21.47.099,classification_task,2021.2.3,Win32,60.03121623,627c6715c52fd12f31907bcf,,,,,,,,,,,,,,,,,,,,,,,l,0,0.6362,"[""0.256"",""0.524"",""0.860"",""0.152""]","[1,1,1,0]",0,55,55,55,1,0,1,,,1,FALSE,,,,,,,,,,,,,,,,,,,,,,,,,,,,,,,
,5a9b20c535237b0001129820,627c6f200eb3f1ceba2920d2,2022-05-12_05h21.47.099,classification_task,2021.2.3,Win32,60.03121623,627c6715c52fd12f31907bcf,,,,,,,,,,,,,,,,,,,,,,,l,0,0.707,"[""0.256"",""0.524"",""0.393"",""0.900""]","[1,1,0,1]",0,56,56,56,1,0,1,,,1,FALSE,,,,,,,,,,,,,,,,,,,,,,,,,,,,,,,
,5a9b20c535237b0001129820,627c6f200eb3f1ceba2920d2,2022-05-12_05h21.47.099,classification_task,2021.2.3,Win32,60.03121623,627c6715c52fd12f31907bcf,,,,,,,,,,,,,,,,,,,,,,,a,0,0.6725,"[""0.034"",""0.356"",""0.165"",""0.681""]","[1,1,0,1]",0,57,57,57,1,1,1,,,1,FALSE,,,,,,,,,,,,,,,,,,,,,,,,,,,,,,,
,5a9b20c535237b0001129820,627c6f200eb3f1ceba2920d2,2022-05-12_05h21.47.099,classification_task,2021.2.3,Win32,60.03121623,627c6715c52fd12f31907bcf,,,,,,,,,,,,,,,,,,,,,,,l,0,0.4542,"[""0.306"",""0.487"",""0.817"",""0.145""]","[1,1,1,0]",0,58,58,58,1,0,0,,,1,FALSE,,,,,,,,,,,,,,,,,,,,,,,,,,,,,,,
,5a9b20c535237b0001129820,627c6f200eb3f1ceba2920d2,2022-05-12_05h21.47.099,classification_task,2021.2.3,Win32,60.03121623,627c6715c52fd12f31907bcf,,,,,,,,,,,,,,,,,,,,,,,l,1,0.5514,"[""0.034"",""0.356"",""0.619"",""0.558""]","[1,1,1,0]",0,59,59,59,1,1,1,,,1,FALSE,,,,,,,,,,,,,,,,,,,,,,,,,,,,,,,
,5a9b20c535237b0001129820,627c6f200eb3f1ceba2920d2,2022-05-12_05h21.47.099,classification_task,2021.2.3,Win32,60.03121623,627c6715c52fd12f31907bcf,,,,,,,,,,,,,,,,,,,,,,,a,0,3.3081,"[""0.087"",""0.157"",""0.438"",""0.769""]","[1,0,1,1]",0,60,60,60,1,1,0,,,1,FALSE,,,,,,,,,,,,,,,,,,,,,,,,,,,,,,,
,5a9b20c535237b0001129820,627c6f200eb3f1ceba2920d2,2022-05-12_05h21.47.099,classification_task,2021.2.3,Win32,60.03121623,627c6715c52fd12f31907bcf,,,,,,,,,,,,,,,,,,,,,,,a,0,1.3307,"[""0.087"",""0.205"",""0.125"",""0.769""]","[1,1,0,1]",0,61,61,61,1,1,0,,,1,FALSE,,,,,,,,,,,,,,,,,,,,,,,,,,,,,,,
,5a9b20c535237b0001129820,627c6f200eb3f1ceba2920d2,2022-05-12_05h21.47.099,classification_task,2021.2.3,Win32,60.03121623,627c6715c52fd12f31907bcf,,,,,,,,,,,,,,,,,,,,,,,a,0,0.8699,"[""0.152"",""0.205"",""0.438"",""0.769""]","[0,1,1,1]",0,62,62,62,1,1,0,,,1,FALSE,,,,,,,,,,,,,,,,,,,,,,,,,,,,,,,
,5a9b20c535237b0001129820,627c6f200eb3f1ceba2920d2,2022-05-12_05h21.47.099,classification_task,2021.2.3,Win32,60.03121623,627c6715c52fd12f31907bcf,,,,,,,,,,,,,,,,,,,,,,,l,0,0.6927,"[""0.306"",""0.487"",""0.718"",""0.939""]","[1,1,0,1]",0,63,63,63,1,0,0,,,1,FALSE,,,,,,,,,,,,,,,,,,,,,,,,,,,,,,,
,5a9b20c535237b0001129820,627c6f200eb3f1ceba2920d2,2022-05-12_05h21.47.099,classification_task,2021.2.3,Win32,60.03121623,627c6715c52fd12f31907bcf,,,,,,,,,,,,,,,,,,,,,,,,,,,,,,,,,,,,,,,0, ,,0,0,143.2102,0,2,2,2,1,2,3,,,,,,,,,,,,,,,,,,
,5a9b20c535237b0001129820,627c6f200eb3f1ceba2920d2,2022-05-12_05h21.47.099,classification_task,2021.2.3,Win32,60.03121623,627c6715c52fd12f31907bcf,,,,,,,,,,,,,,,,,,,,,,,,,,,,,,,,,,,,,,,1,  ,,0,0.125416422,145.8792,0,2,2,2,1,2,3,,,,,,,,,,,,,,,,,,
,5a9b20c535237b0001129820,627c6f200eb3f1ceba2920d2,2022-05-12_05h21.47.099,classification_task,2021.2.3,Win32,60.03121623,627c6715c52fd12f31907bcf,,,,,,,,,,,,,,,,,,,,,,,,,,,,,,,,,,,,,,,2,  ,,0,0,151.1384,0,2,2,2,1,2,3,,,,,,,,,,,,,,,,,,
,5a9b20c535237b0001129820,627c6f200eb3f1ceba2920d2,2022-05-12_05h21.47.099,classification_task,2021.2.3,Win32,60.03121623,627c6715c52fd12f31907bcf,,,,,,,,,,,,,,,,,,,,,,,,,,,,,,,,,,,,,,,,,,,,,0,2,2,2,1,,3,,,,,,,,,,,,,,,,,,
,5a9b20c535237b0001129820,627c6f200eb3f1ceba2920d2,2022-05-12_05h21.47.099,classification_task,2021.2.3,Win32,60.03121623,627c6715c52fd12f31907bcf,,,,,,,,,,,,,,,,,,,,,,,,,,,,,,,,,,,,,,,,,,,,,,,,,,,,,I believe the aid is a competent performer,,0.7,0,1,792.673,0,0,0,0,1,0,,,,,
,5a9b20c535237b0001129820,627c6f200eb3f1ceba2920d2,2022-05-12_05h21.47.099,classification_task,2021.2.3,Win32,60.03121623,627c6715c52fd12f31907bcf,,,,,,,,,,,,,,,,,,,,,,,,,,,,,,,,,,,,,,,,,,,,,,,,,,,,,I trust the aid,,0.7,0,2,797.2206,0,0,0,0,1,0,,,,,
,5a9b20c535237b0001129820,627c6f200eb3f1ceba2920d2,2022-05-12_05h21.47.099,classification_task,2021.2.3,Win32,60.03121623,627c6715c52fd12f31907bcf,,,,,,,,,,,,,,,,,,,,,,,,,,,,,,,,,,,,,,,,,,,,,,,,,,,,,I have confidence in the advice given by the aid,,0.7,0,2,798.3739,0,0,0,0,1,0,,,,,
,5a9b20c535237b0001129820,627c6f200eb3f1ceba2920d2,2022-05-12_05h21.47.099,classification_task,2021.2.3,Win32,60.03121623,627c6715c52fd12f31907bcf,,,,,,,,,,,,,,,,,,,,,,,,,,,,,,,,,,,,,,,,,,,,,,,,,,,,,I can depend on the aid,,0.7,0,2,800.2692,0,0,0,0,1,0,,,,,
,5a9b20c535237b0001129820,627c6f200eb3f1ceba2920d2,2022-05-12_05h21.47.099,classification_task,2021.2.3,Win32,60.03121623,627c6715c52fd12f31907bcf,,,,,,,,,,,,,,,,,,,,,,,,,,,,,,,,,,,,,,,,,,,,,,,,,,,,,I can rely on the aid to behave in consistent ways,,0.7,0,4,803.697,0,0,0,0,1,0,,,,,
,5a9b20c535237b0001129820,627c6f200eb3f1ceba2920d2,2022-05-12_05h21.47.099,classification_task,2021.2.3,Win32,60.03121623,627c6715c52fd12f31907bcf,,,,,,,,,,,,,,,,,,,,,,,,,,,,,,,,,,,,,,,,,,,,,,,,,,,,,I can rely on the aid to do its best every time I take its advice,,0.7,0,4,805.4993,0,0,0,0,1,0,,,,,
,5a9b20c535237b0001129820,627c6f200eb3f1ceba2920d2,2022-05-12_05h21.47.099,classification_task,2021.2.3,Win32,60.03121623,627c6715c52fd12f31907bcf,,,,,,,,,,,,,,,,,,,,,,,,,,,,,,,,,,,,,,,,,,,,,,,,,,,,,"On trials you completed with assistance from the aid, how frequently did you think the aid was correct?",,0.7,0,50%,,0,0,0,0,1,0,,,,,
,5a9b20c535237b0001129820,627c6f200eb3f1ceba2920d2,2022-05-12_05h21.47.099,classification_task,2021.2.3,Win32,60.03121623,627c6715c52fd12f31907bcf,,,,,,,,,,,,,,,,,,,,,,,,,,,,,,,,,,,,,,,,,,,,,,,,,,,,,"On trials you completed without the aid, how frequently did you think you were correct?",,0.7,0,50%,,0,0,0,0,1,0,,,,,
,5a9b20c535237b0001129820,627c6f200eb3f1ceba2920d2,2022-05-12_05h21.47.099,classification_task,2021.2.3,Win32,60.03121623,627c6715c52fd12f31907bcf,,,,,,,,,,,,,,,,,,,,,,,,,,,,,,,,,,,,,,,,,,,,,,,,,,,,,,,,,,,0,0,0,0,1,,,,,,
,5a9b20c535237b0001129820,627c6f200eb3f1ceba2920d2,2022-05-12_05h21.47.099,classification_task,2021.2.3,Win32,60.03121623,627c6715c52fd12f31907bcf,,,,,,,,,,,,,,,,,,,,,,,,,,,,,,,,,,,,,,,,,,,,,,,,,,,,,,,,,,,,,,,,,o,10.0379,835.1042,,
,5a9b20c535237b0001129820,627c6f200eb3f1ceba2920d2,2022-05-12_05h21.47.099,classification_task,2021.2.3,Win32,60.03121623,627c6715c52fd12f31907bcf,,,,,,,,,,,,,,,,,,,,,,,,,,,,,,,,,,,,,,,,,,,,,,,,,,,,,,,,,,,,,,,,,,,,"Mozilla/5.0 (Windows NT 10.0; Win64; x64) AppleWebKit/537.36 (KHTML, like Gecko) Chrome/101.0.4951.54 Safari/537.36",
,5a9b20c535237b0001129820,627c6f200eb3f1ceba2920d2,2022-05-12_05h21.47.099,classification_task,2021.2.3,Win32,60.03121623,627c6715c52fd12f31907bcf,,,,,,,,,,,,,,,,,,,,,,,,,,,,,,,,,,,,,,,,,,,,,,,,,,,,,,,,,,,,,,,,,,,,,LOWLIGHT
