usingWebGL,participant,session,date,expName,psychopyVersion,OS,frameRate,study_id,signatures_friend,signatures_foe,band_ranges_top,band_ranges_bottom,formitemText,formtype,formundefined,formitemWidth,formindex,formresponse,formrt,key_resp_2.keys,key_resp_2.rt,tute_resp.keys,tute_resp.rt,tutorial.thisRepN,tutorial.thisTrialN,tutorial.thisN,tutorial.thisIndex,tutorial.ran,key_resp_4.keys,key_resp_4.rt,key_resp.keys,key_resp.corr,lines_presented,is_signal_presented,trials.thisRepN,trials.thisTrialN,trials.thisN,trials.thisIndex,trials.ran,vessel,active_band,lines,is_signal,supported_pos,catch_trial,key_resp.rt,debrief_formindex,debrief_formitemText,debrief_formtype,debrief_formitemWidth,debrief_formresponse,debrief_formrt,phases.thisRepN,phases.thisTrialN,phases.thisN,phases.thisIndex,phases.ran,phases.order,phase,key_resp_3.keys,trustitemText,trusttype,trustitemWidth,trustindex,trustresponse,trustrt,support_status.thisRepN,support_status.thisTrialN,support_status.thisN,support_status.thisIndex,support_status.ran,support_status.order,key_resp_5.keys,key_resp_5.rt,globalClockTime,userAgent,manualCondition
TRUE,5aa5b170f6dfdd0001eafbe2,627c698ffff3486bf036c16e,2022-05-12_03h57.47.818,classification_task,2021.2.3,Win32,60.0276127,627c6715c52fd12f31907bcf,,,,,,,,,,,,,,,,,,,,,,,,,,,,,,,,,,,,,,,,,,,,,,,,,,,,,,,,,,,,,,,,,,,,,
,5aa5b170f6dfdd0001eafbe2,627c698ffff3486bf036c16e,2022-05-12_03h57.47.818,classification_task,2021.2.3,Win32,60.0276127,627c6715c52fd12f31907bcf,"[[""0.288"",""0.475"",""0.902"",""0.971""],[""0.169"",""0.342"",""0.590"",""0.936""]]","[[""0.051"",""0.206"",""0.626"",""0.723""],[""0.117"",""0.248"",""0.528"",""0.835""]]","[1,10]","[100,1000]",Video game experience,,,0.7,0,,,,,,,,,,,,,,,,,,,,,,,,,,,,,,,,,,,,,,,,,,,,,,,,,,,,,,,,,,,,
,5aa5b170f6dfdd0001eafbe2,627c698ffff3486bf036c16e,2022-05-12_03h57.47.818,classification_task,2021.2.3,Win32,60.0276127,627c6715c52fd12f31907bcf,,,,,Approximately how many hours did you spend playing video games in the last week?,,,0.7,0,5,,,,,,,,,,,,,,,,,,,,,,,,,,,,,,,,,,,,,,,,,,,,,,,,,,,,,,,,,,,
,5aa5b170f6dfdd0001eafbe2,627c698ffff3486bf036c16e,2022-05-12_03h57.47.818,classification_task,2021.2.3,Win32,60.0276127,627c6715c52fd12f31907bcf,,,,,"Which game did you play the most this year? (Enter ""None"" if you didn't play any)",,,0.7,0,Fallout 4,,,,,,,,,,,,,,,,,,,,,,,,,,,,,,,,,,,,,,,,,,,,,,,,,,,,,,,,,,,
,5aa5b170f6dfdd0001eafbe2,627c698ffff3486bf036c16e,2022-05-12_03h57.47.818,classification_task,2021.2.3,Win32,60.0276127,627c6715c52fd12f31907bcf,,,,,Visual perception,,,0.7,0,,,,,,,,,,,,,,,,,,,,,,,,,,,,,,,,,,,,,,,,,,,,,,,,,,,,,,,,,,,,
,5aa5b170f6dfdd0001eafbe2,627c698ffff3486bf036c16e,2022-05-12_03h57.47.818,classification_task,2021.2.3,Win32,60.0276127,627c6715c52fd12f31907bcf,,,,,Do you have any form of color blindness?,,,0.7,0,No,23.6596,,,,,,,,,,,,,,,,,,,,,,,,,,,,,,,,,,,,,,,,,,,,,,,,,,,,,,,,,,
,5aa5b170f6dfdd0001eafbe2,627c698ffff3486bf036c16e,2022-05-12_03h57.47.818,classification_task,2021.2.3,Win32,60.0276127,627c6715c52fd12f31907bcf,,,,,Do you use software to change the colour temperature of your screen (e.g. f.lux)?,,,0.7,0,No,25.9752,,,,,,,,,,,,,,,,,,,,,,,,,,,,,,,,,,,,,,,,,,,,,,,,,,,,,,,,,,
,5aa5b170f6dfdd0001eafbe2,627c698ffff3486bf036c16e,2022-05-12_03h57.47.818,classification_task,2021.2.3,Win32,60.0276127,627c6715c52fd12f31907bcf,,,,,,,,,,,,space,131.5972,space,19.6178,0,0,0,0,1,,,,,,,,,,,,,,,,,,,,,,,,,,,,,,,,,,,,,,,,,,,,,,,,,
,5aa5b170f6dfdd0001eafbe2,627c698ffff3486bf036c16e,2022-05-12_03h57.47.818,classification_task,2021.2.3,Win32,60.0276127,627c6715c52fd12f31907bcf,,,,,,,,,,,,,,space,23.4654,1,0,1,0,1,,,,,,,,,,,,,,,,,,,,,,,,,,,,,,,,,,,,,,,,,,,,,,,,,
,5aa5b170f6dfdd0001eafbe2,627c698ffff3486bf036c16e,2022-05-12_03h57.47.818,classification_task,2021.2.3,Win32,60.0276127,627c6715c52fd12f31907bcf,,,,,,,,,,,,,,space,32.9496,2,0,2,0,1,,,,,,,,,,,,,,,,,,,,,,,,,,,,,,,,,,,,,,,,,,,,,,,,,
,5aa5b170f6dfdd0001eafbe2,627c698ffff3486bf036c16e,2022-05-12_03h57.47.818,classification_task,2021.2.3,Win32,60.0276127,627c6715c52fd12f31907bcf,,,,,,,,,,,,,,space,5.4339,3,0,3,0,1,,,,,,,,,,,,,,,,,,,,,,,,,,,,,,,,,,,,,,,,,,,,,,,,,
,5aa5b170f6dfdd0001eafbe2,627c698ffff3486bf036c16e,2022-05-12_03h57.47.818,classification_task,2021.2.3,Win32,60.0276127,627c6715c52fd12f31907bcf,,,,,,,,,,,,,,space,18.0829,4,0,4,0,1,,,,,,,,,,,,,,,,,,,,,,,,,,,,,,,,,,,,,,,,,,,,,,,,,
,5aa5b170f6dfdd0001eafbe2,627c698ffff3486bf036c16e,2022-05-12_03h57.47.818,classification_task,2021.2.3,Win32,60.0276127,627c6715c52fd12f31907bcf,,,,,,,,,,,,,,,,,,,,,space,13.2277,,0,"[""0.762"",""0.206"",""0.626"",""0.723""]","[0,1,1,1]",0,0,0,0,1,1,0,,,0,FALSE,,,,,,,,,,,,,,,,,,,,,,,,,,,,,,,,
,5aa5b170f6dfdd0001eafbe2,627c698ffff3486bf036c16e,2022-05-12_03h57.47.818,classification_task,2021.2.3,Win32,60.0276127,627c6715c52fd12f31907bcf,,,,,,,,,,,,,,,,,,,,,,,a,1,"[""0.169"",""0.403"",""0.590"",""0.936""]","[1,0,1,1]",0,1,1,1,1,0,1,,,0,FALSE,6.8255,,,,,,,,,,,,,,,,,,,,,,,,,,,,,,,
,5aa5b170f6dfdd0001eafbe2,627c698ffff3486bf036c16e,2022-05-12_03h57.47.818,classification_task,2021.2.3,Win32,60.0276127,627c6715c52fd12f31907bcf,,,,,,,,,,,,,,,,,,,,,,,,0,"[""0.117"",""0.248"",""0.765"",""0.835""]","[1,1,0,1]",0,2,2,2,1,1,1,,,0,FALSE,,,,,,,,,,,,,,,,,,,,,,,,,,,,,,,,
,5aa5b170f6dfdd0001eafbe2,627c698ffff3486bf036c16e,2022-05-12_03h57.47.818,classification_task,2021.2.3,Win32,60.0276127,627c6715c52fd12f31907bcf,,,,,,,,,,,,,,,,,,,,,,,l,1,"[""0.051"",""0.206"",""0.406"",""0.723""]","[1,1,0,1]",0,3,3,3,1,1,0,,,0,FALSE,8.7175,,,,,,,,,,,,,,,,,,,,,,,,,,,,,,,
,5aa5b170f6dfdd0001eafbe2,627c698ffff3486bf036c16e,2022-05-12_03h57.47.818,classification_task,2021.2.3,Win32,60.0276127,627c6715c52fd12f31907bcf,,,,,,,,,,,,,,,,,,,,,,,l,1,"[""0.117"",""0.760"",""0.528"",""0.835""]","[1,0,1,1]",0,4,4,4,1,1,1,,,0,FALSE,4.5866,,,,,,,,,,,,,,,,,,,,,,,,,,,,,,,
,5aa5b170f6dfdd0001eafbe2,627c698ffff3486bf036c16e,2022-05-12_03h57.47.818,classification_task,2021.2.3,Win32,60.0276127,627c6715c52fd12f31907bcf,,,,,,,,,,,,,,,,,,,,,,,l,1,"[""0.051"",""0.206"",""0.626"",""0.765""]","[1,1,1,0]",0,5,5,5,1,1,0,,,0,FALSE,5.5142,,,,,,,,,,,,,,,,,,,,,,,,,,,,,,,
,5aa5b170f6dfdd0001eafbe2,627c698ffff3486bf036c16e,2022-05-12_03h57.47.818,classification_task,2021.2.3,Win32,60.0276127,627c6715c52fd12f31907bcf,,,,,,,,,,,,,,,,,,,,,,,,0,"[""0.436"",""0.248"",""0.528"",""0.835""]","[0,1,1,1]",0,6,6,6,1,1,1,,,0,FALSE,,,,,,,,,,,,,,,,,,,,,,,,,,,,,,,,
,5aa5b170f6dfdd0001eafbe2,627c698ffff3486bf036c16e,2022-05-12_03h57.47.818,classification_task,2021.2.3,Win32,60.0276127,627c6715c52fd12f31907bcf,,,,,,,,,,,,,,,,,,,,,,,l,1,"[""0.051"",""0.403"",""0.626"",""0.723""]","[1,0,1,1]",0,7,7,7,1,1,0,,,0,FALSE,7.3187,,,,,,,,,,,,,,,,,,,,,,,,,,,,,,,
,5aa5b170f6dfdd0001eafbe2,627c698ffff3486bf036c16e,2022-05-12_03h57.47.818,classification_task,2021.2.3,Win32,60.0276127,627c6715c52fd12f31907bcf,,,,,,,,,,,,,,,,,,,,,,,a,1,"[""0.169"",""0.342"",""0.590"",""0.429""]","[1,1,1,0]",0,8,8,8,1,0,1,,,0,FALSE,7.7156,,,,,,,,,,,,,,,,,,,,,,,,,,,,,,,
,5aa5b170f6dfdd0001eafbe2,627c698ffff3486bf036c16e,2022-05-12_03h57.47.818,classification_task,2021.2.3,Win32,60.0276127,627c6715c52fd12f31907bcf,,,,,,,,,,,,,,,,,,,,,,,,0,"[""0.429"",""0.475"",""0.902"",""0.971""]","[0,1,1,1]",0,9,9,9,1,0,0,,,0,FALSE,,,,,,,,,,,,,,,,,,,,,,,,,,,,,,,,
,5aa5b170f6dfdd0001eafbe2,627c698ffff3486bf036c16e,2022-05-12_03h57.47.818,classification_task,2021.2.3,Win32,60.0276127,627c6715c52fd12f31907bcf,,,,,,,,,,,,,,,,,,,,,,,,0,"[""0.117"",""0.248"",""0.528"",""0.426""]","[1,1,1,0]",0,10,10,10,1,1,1,,,0,FALSE,,,,,,,,,,,,,,,,,,,,,,,,,,,,,,,,
,5aa5b170f6dfdd0001eafbe2,627c698ffff3486bf036c16e,2022-05-12_03h57.47.818,classification_task,2021.2.3,Win32,60.0276127,627c6715c52fd12f31907bcf,,,,,,,,,,,,,,,,,,,,,,,l,0,"[""0.288"",""0.436"",""0.902"",""0.971""]","[1,0,1,1]",0,11,11,11,1,0,0,,,0,FALSE,5.43,,,,,,,,,,,,,,,,,,,,,,,,,,,,,,,
,5aa5b170f6dfdd0001eafbe2,627c698ffff3486bf036c16e,2022-05-12_03h57.47.818,classification_task,2021.2.3,Win32,60.0276127,627c6715c52fd12f31907bcf,,,,,,,,,,,,,,,,,,,,,,,a,1,"[""0.169"",""0.342"",""0.404"",""0.936""]","[1,1,0,1]",0,12,12,12,1,0,1,,,0,FALSE,6.5304,,,,,,,,,,,,,,,,,,,,,,,,,,,,,,,
,5aa5b170f6dfdd0001eafbe2,627c698ffff3486bf036c16e,2022-05-12_03h57.47.818,classification_task,2021.2.3,Win32,60.0276127,627c6715c52fd12f31907bcf,,,,,,,,,,,,,,,,,,,,,,,a,1,"[""0.288"",""0.475"",""0.902"",""0.403""]","[1,1,1,0]",0,13,13,13,1,0,0,,,0,FALSE,7.0134,,,,,,,,,,,,,,,,,,,,,,,,,,,,,,,
,5aa5b170f6dfdd0001eafbe2,627c698ffff3486bf036c16e,2022-05-12_03h57.47.818,classification_task,2021.2.3,Win32,60.0276127,627c6715c52fd12f31907bcf,,,,,,,,,,,,,,,,,,,,,,,a,1,"[""0.288"",""0.475"",""0.377"",""0.971""]","[1,1,0,1]",0,14,14,14,1,0,0,,,0,FALSE,6.3657,,,,,,,,,,,,,,,,,,,,,,,,,,,,,,,
,5aa5b170f6dfdd0001eafbe2,627c698ffff3486bf036c16e,2022-05-12_03h57.47.818,classification_task,2021.2.3,Win32,60.0276127,627c6715c52fd12f31907bcf,,,,,,,,,,,,,,,,,,,,,,,a,1,"[""0.765"",""0.342"",""0.590"",""0.936""]","[0,1,1,1]",0,15,15,15,1,0,1,,,0,FALSE,8.2791,,,,,,,,,,,,,,,,,,,,,,,,,,,,,,,
,5aa5b170f6dfdd0001eafbe2,627c698ffff3486bf036c16e,2022-05-12_03h57.47.818,classification_task,2021.2.3,Win32,60.0276127,627c6715c52fd12f31907bcf,,,,,,,,,,,,,,,,,,,,,,,l,1,"[""0.117"",""0.248"",""0.528"",""0.429""]","[1,1,1,0]",0,16,16,16,1,1,1,,,0,FALSE,8.9502,,,,,,,,,,,,,,,,,,,,,,,,,,,,,,,
,5aa5b170f6dfdd0001eafbe2,627c698ffff3486bf036c16e,2022-05-12_03h57.47.818,classification_task,2021.2.3,Win32,60.0276127,627c6715c52fd12f31907bcf,,,,,,,,,,,,,,,,,,,,,,,a,1,"[""0.288"",""0.406"",""0.902"",""0.971""]","[1,0,1,1]",0,17,17,17,1,0,0,,,0,FALSE,7.0541,,,,,,,,,,,,,,,,,,,,,,,,,,,,,,,
,5aa5b170f6dfdd0001eafbe2,627c698ffff3486bf036c16e,2022-05-12_03h57.47.818,classification_task,2021.2.3,Win32,60.0276127,627c6715c52fd12f31907bcf,,,,,,,,,,,,,,,,,,,,,,,a,1,"[""0.288"",""0.475"",""0.902"",""0.770""]","[1,1,1,0]",0,18,18,18,1,0,0,,,0,FALSE,4.6827,,,,,,,,,,,,,,,,,,,,,,,,,,,,,,,
,5aa5b170f6dfdd0001eafbe2,627c698ffff3486bf036c16e,2022-05-12_03h57.47.818,classification_task,2021.2.3,Win32,60.0276127,627c6715c52fd12f31907bcf,,,,,,,,,,,,,,,,,,,,,,,a,1,"[""0.169"",""0.765"",""0.590"",""0.936""]","[1,0,1,1]",0,19,19,19,1,0,1,,,0,FALSE,5.7134,,,,,,,,,,,,,,,,,,,,,,,,,,,,,,,
,5aa5b170f6dfdd0001eafbe2,627c698ffff3486bf036c16e,2022-05-12_03h57.47.818,classification_task,2021.2.3,Win32,60.0276127,627c6715c52fd12f31907bcf,,,,,,,,,,,,,,,,,,,,,,,l,1,"[""0.051"",""0.765"",""0.626"",""0.723""]","[1,0,1,1]",0,20,20,20,1,1,0,,,0,FALSE,6.6376,,,,,,,,,,,,,,,,,,,,,,,,,,,,,,,
,5aa5b170f6dfdd0001eafbe2,627c698ffff3486bf036c16e,2022-05-12_03h57.47.818,classification_task,2021.2.3,Win32,60.0276127,627c6715c52fd12f31907bcf,,,,,,,,,,,,,,,,,,,,,,,a,1,"[""0.169"",""0.342"",""0.590"",""0.415""]","[1,1,1,0]",0,21,21,21,1,0,1,,,0,FALSE,6.6798,,,,,,,,,,,,,,,,,,,,,,,,,,,,,,,
,5aa5b170f6dfdd0001eafbe2,627c698ffff3486bf036c16e,2022-05-12_03h57.47.818,classification_task,2021.2.3,Win32,60.0276127,627c6715c52fd12f31907bcf,,,,,,,,,,,,,,,,,,,,,,,l,1,"[""0.377"",""0.206"",""0.626"",""0.723""]","[0,1,1,1]",0,22,22,22,1,1,0,,,0,FALSE,5.7482,,,,,,,,,,,,,,,,,,,,,,,,,,,,,,,
,5aa5b170f6dfdd0001eafbe2,627c698ffff3486bf036c16e,2022-05-12_03h57.47.818,classification_task,2021.2.3,Win32,60.0276127,627c6715c52fd12f31907bcf,,,,,,,,,,,,,,,,,,,,,,,l,1,"[""0.117"",""0.403"",""0.528"",""0.835""]","[1,0,1,1]",0,23,23,23,1,1,1,,,0,FALSE,4.6973,,,,,,,,,,,,,,,,,,,,,,,,,,,,,,,
,5aa5b170f6dfdd0001eafbe2,627c698ffff3486bf036c16e,2022-05-12_03h57.47.818,classification_task,2021.2.3,Win32,60.0276127,627c6715c52fd12f31907bcf,,,,,,,,,,,,,,,,,,,,,,,l,1,"[""0.051"",""0.206"",""0.426"",""0.723""]","[1,1,0,1]",0,24,24,24,1,1,0,,,0,FALSE,4.8886,,,,,,,,,,,,,,,,,,,,,,,,,,,,,,,
,5aa5b170f6dfdd0001eafbe2,627c698ffff3486bf036c16e,2022-05-12_03h57.47.818,classification_task,2021.2.3,Win32,60.0276127,627c6715c52fd12f31907bcf,,,,,,,,,,,,,,,,,,,,,,,l,1,"[""0.051"",""0.206"",""0.626"",""0.377""]","[1,1,1,0]",0,25,25,25,1,1,0,,,0,FALSE,4.6154,,,,,,,,,,,,,,,,,,,,,,,,,,,,,,,
,5aa5b170f6dfdd0001eafbe2,627c698ffff3486bf036c16e,2022-05-12_03h57.47.818,classification_task,2021.2.3,Win32,60.0276127,627c6715c52fd12f31907bcf,,,,,,,,,,,,,,,,,,,,,,,a,0,"[""0.760"",""0.248"",""0.528"",""0.835""]","[0,1,1,1]",0,26,26,26,1,1,1,,,0,FALSE,7.2845,,,,,,,,,,,,,,,,,,,,,,,,,,,,,,,
,5aa5b170f6dfdd0001eafbe2,627c698ffff3486bf036c16e,2022-05-12_03h57.47.818,classification_task,2021.2.3,Win32,60.0276127,627c6715c52fd12f31907bcf,,,,,,,,,,,,,,,,,,,,,,,l,0,"[""0.404"",""0.342"",""0.590"",""0.936""]","[0,1,1,1]",0,27,27,27,1,0,1,,,0,FALSE,3.3654,,,,,,,,,,,,,,,,,,,,,,,,,,,,,,,
,5aa5b170f6dfdd0001eafbe2,627c698ffff3486bf036c16e,2022-05-12_03h57.47.818,classification_task,2021.2.3,Win32,60.0276127,627c6715c52fd12f31907bcf,,,,,,,,,,,,,,,,,,,,,,,a,1,"[""0.765"",""0.475"",""0.902"",""0.971""]","[0,1,1,1]",0,28,28,28,1,0,0,,,0,FALSE,9.1966,,,,,,,,,,,,,,,,,,,,,,,,,,,,,,,
,5aa5b170f6dfdd0001eafbe2,627c698ffff3486bf036c16e,2022-05-12_03h57.47.818,classification_task,2021.2.3,Win32,60.0276127,627c6715c52fd12f31907bcf,,,,,,,,,,,,,,,,,,,,,,,a,1,"[""0.169"",""0.342"",""0.436"",""0.936""]","[1,1,0,1]",0,29,29,29,1,0,1,,,0,FALSE,4.8819,,,,,,,,,,,,,,,,,,,,,,,,,,,,,,,
,5aa5b170f6dfdd0001eafbe2,627c698ffff3486bf036c16e,2022-05-12_03h57.47.818,classification_task,2021.2.3,Win32,60.0276127,627c6715c52fd12f31907bcf,,,,,,,,,,,,,,,,,,,,,,,l,1,"[""0.117"",""0.248"",""0.428"",""0.835""]","[1,1,0,1]",0,30,30,30,1,1,1,,,0,FALSE,4.0913,,,,,,,,,,,,,,,,,,,,,,,,,,,,,,,
,5aa5b170f6dfdd0001eafbe2,627c698ffff3486bf036c16e,2022-05-12_03h57.47.818,classification_task,2021.2.3,Win32,60.0276127,627c6715c52fd12f31907bcf,,,,,,,,,,,,,,,,,,,,,,,a,1,"[""0.288"",""0.475"",""0.436"",""0.971""]","[1,1,0,1]",0,31,31,31,1,0,0,,,0,FALSE,3.9795,,,,,,,,,,,,,,,,,,,,,,,,,,,,,,,
,5aa5b170f6dfdd0001eafbe2,627c698ffff3486bf036c16e,2022-05-12_03h57.47.818,classification_task,2021.2.3,Win32,60.0276127,627c6715c52fd12f31907bcf,,,,,,,,,,,,,,,,,,,,,,,a,1,"[""0.288"",""0.475"",""0.428"",""0.971""]","[1,1,0,1]",0,32,32,32,1,0,0,,,0,FALSE,4.4119,,,,,,,,,,,,,,,,,,,,,,,,,,,,,,,
,5aa5b170f6dfdd0001eafbe2,627c698ffff3486bf036c16e,2022-05-12_03h57.47.818,classification_task,2021.2.3,Win32,60.0276127,627c6715c52fd12f31907bcf,,,,,,,,,,,,,,,,,,,,,,,l,1,"[""0.117"",""0.248"",""0.760"",""0.835""]","[1,1,0,1]",0,33,33,33,1,1,1,,,0,FALSE,3.1985,,,,,,,,,,,,,,,,,,,,,,,,,,,,,,,
,5aa5b170f6dfdd0001eafbe2,627c698ffff3486bf036c16e,2022-05-12_03h57.47.818,classification_task,2021.2.3,Win32,60.0276127,627c6715c52fd12f31907bcf,,,,,,,,,,,,,,,,,,,,,,,l,0,"[""0.169"",""0.342"",""0.590"",""0.403""]","[1,1,1,0]",0,34,34,34,1,0,1,,,0,FALSE,2.4391,,,,,,,,,,,,,,,,,,,,,,,,,,,,,,,
,5aa5b170f6dfdd0001eafbe2,627c698ffff3486bf036c16e,2022-05-12_03h57.47.818,classification_task,2021.2.3,Win32,60.0276127,627c6715c52fd12f31907bcf,,,,,,,,,,,,,,,,,,,,,,,l,1,"[""0.117"",""0.248"",""0.528"",""0.406""]","[1,1,1,0]",0,35,35,35,1,1,1,,,0,FALSE,3.854,,,,,,,,,,,,,,,,,,,,,,,,,,,,,,,
,5aa5b170f6dfdd0001eafbe2,627c698ffff3486bf036c16e,2022-05-12_03h57.47.818,classification_task,2021.2.3,Win32,60.0276127,627c6715c52fd12f31907bcf,,,,,,,,,,,,,,,,,,,,,,,l,1,"[""0.051"",""0.762"",""0.626"",""0.723""]","[1,0,1,1]",0,36,36,36,1,1,0,,,0,FALSE,1.434,,,,,,,,,,,,,,,,,,,,,,,,,,,,,,,
,5aa5b170f6dfdd0001eafbe2,627c698ffff3486bf036c16e,2022-05-12_03h57.47.818,classification_task,2021.2.3,Win32,60.0276127,627c6715c52fd12f31907bcf,,,,,,,,,,,,,,,,,,,,,,,a,0,"[""0.438"",""0.248"",""0.528"",""0.835""]","[0,1,1,1]",0,37,37,37,1,1,1,,,0,FALSE,1.585,,,,,,,,,,,,,,,,,,,,,,,,,,,,,,,
,5aa5b170f6dfdd0001eafbe2,627c698ffff3486bf036c16e,2022-05-12_03h57.47.818,classification_task,2021.2.3,Win32,60.0276127,627c6715c52fd12f31907bcf,,,,,,,,,,,,,,,,,,,,,,,a,1,"[""0.169"",""0.765"",""0.590"",""0.936""]","[1,0,1,1]",0,38,38,38,1,0,1,,,0,FALSE,4.0333,,,,,,,,,,,,,,,,,,,,,,,,,,,,,,,
,5aa5b170f6dfdd0001eafbe2,627c698ffff3486bf036c16e,2022-05-12_03h57.47.818,classification_task,2021.2.3,Win32,60.0276127,627c6715c52fd12f31907bcf,,,,,,,,,,,,,,,,,,,,,,,l,0,"[""0.429"",""0.475"",""0.902"",""0.971""]","[0,1,1,1]",0,39,39,39,1,0,0,,,0,FALSE,2.0166,,,,,,,,,,,,,,,,,,,,,,,,,,,,,,,
,5aa5b170f6dfdd0001eafbe2,627c698ffff3486bf036c16e,2022-05-12_03h57.47.818,classification_task,2021.2.3,Win32,60.0276127,627c6715c52fd12f31907bcf,,,,,,,,,,,,,,,,,,,,,,,a,1,"[""0.760"",""0.342"",""0.590"",""0.936""]","[0,1,1,1]",0,40,40,40,1,0,1,,,0,FALSE,2.018,,,,,,,,,,,,,,,,,,,,,,,,,,,,,,,
,5aa5b170f6dfdd0001eafbe2,627c698ffff3486bf036c16e,2022-05-12_03h57.47.818,classification_task,2021.2.3,Win32,60.0276127,627c6715c52fd12f31907bcf,,,,,,,,,,,,,,,,,,,,,,,a,1,"[""0.288"",""0.404"",""0.902"",""0.971""]","[1,0,1,1]",0,41,41,41,1,0,0,,,0,FALSE,4.2316,,,,,,,,,,,,,,,,,,,,,,,,,,,,,,,
,5aa5b170f6dfdd0001eafbe2,627c698ffff3486bf036c16e,2022-05-12_03h57.47.818,classification_task,2021.2.3,Win32,60.0276127,627c6715c52fd12f31907bcf,,,,,,,,,,,,,,,,,,,,,,,l,1,"[""0.051"",""0.206"",""0.415"",""0.723""]","[1,1,0,1]",0,42,42,42,1,1,0,,,0,FALSE,1.5327,,,,,,,,,,,,,,,,,,,,,,,,,,,,,,,
,5aa5b170f6dfdd0001eafbe2,627c698ffff3486bf036c16e,2022-05-12_03h57.47.818,classification_task,2021.2.3,Win32,60.0276127,627c6715c52fd12f31907bcf,,,,,,,,,,,,,,,,,,,,,,,a,0,"[""0.429"",""0.206"",""0.626"",""0.723""]","[0,1,1,1]",0,43,43,43,1,1,0,,,0,FALSE,1.2725,,,,,,,,,,,,,,,,,,,,,,,,,,,,,,,
,5aa5b170f6dfdd0001eafbe2,627c698ffff3486bf036c16e,2022-05-12_03h57.47.818,classification_task,2021.2.3,Win32,60.0276127,627c6715c52fd12f31907bcf,,,,,,,,,,,,,,,,,,,,,,,l,0,"[""0.169"",""0.342"",""0.436"",""0.936""]","[1,1,0,1]",0,44,44,44,1,0,1,,,0,FALSE,2.7477,,,,,,,,,,,,,,,,,,,,,,,,,,,,,,,
,5aa5b170f6dfdd0001eafbe2,627c698ffff3486bf036c16e,2022-05-12_03h57.47.818,classification_task,2021.2.3,Win32,60.0276127,627c6715c52fd12f31907bcf,,,,,,,,,,,,,,,,,,,,,,,l,1,"[""0.051"",""0.206"",""0.626"",""0.393""]","[1,1,1,0]",0,45,45,45,1,1,0,,,0,FALSE,2.8999,,,,,,,,,,,,,,,,,,,,,,,,,,,,,,,
,5aa5b170f6dfdd0001eafbe2,627c698ffff3486bf036c16e,2022-05-12_03h57.47.818,classification_task,2021.2.3,Win32,60.0276127,627c6715c52fd12f31907bcf,,,,,,,,,,,,,,,,,,,,,,,a,1,"[""0.288"",""0.475"",""0.902"",""0.429""]","[1,1,1,0]",0,46,46,46,1,0,0,,,0,FALSE,2.1544,,,,,,,,,,,,,,,,,,,,,,,,,,,,,,,
,5aa5b170f6dfdd0001eafbe2,627c698ffff3486bf036c16e,2022-05-12_03h57.47.818,classification_task,2021.2.3,Win32,60.0276127,627c6715c52fd12f31907bcf,,,,,,,,,,,,,,,,,,,,,,,l,1,"[""0.117"",""0.762"",""0.528"",""0.835""]","[1,0,1,1]",0,47,47,47,1,1,1,,,0,FALSE,4.2497,,,,,,,,,,,,,,,,,,,,,,,,,,,,,,,
,5aa5b170f6dfdd0001eafbe2,627c698ffff3486bf036c16e,2022-05-12_03h57.47.818,classification_task,2021.2.3,Win32,60.0276127,627c6715c52fd12f31907bcf,,,,,,,,,,,,,,,,,,,,,,,l,0,"[""0.288"",""0.475"",""0.406"",""0.971""]","[1,1,0,1]",0,48,48,48,1,0,0,,,0,FALSE,2.5975,,,,,,,,,,,,,,,,,,,,,,,,,,,,,,,
,5aa5b170f6dfdd0001eafbe2,627c698ffff3486bf036c16e,2022-05-12_03h57.47.818,classification_task,2021.2.3,Win32,60.0276127,627c6715c52fd12f31907bcf,,,,,,,,,,,,,,,,,,,,,,,l,1,"[""0.117"",""0.770"",""0.528"",""0.835""]","[1,0,1,1]",0,49,49,49,1,1,1,,,0,FALSE,2.8191,,,,,,,,,,,,,,,,,,,,,,,,,,,,,,,
,5aa5b170f6dfdd0001eafbe2,627c698ffff3486bf036c16e,2022-05-12_03h57.47.818,classification_task,2021.2.3,Win32,60.0276127,627c6715c52fd12f31907bcf,,,,,,,,,,,,,,,,,,,,,,,l,1,"[""0.051"",""0.206"",""0.626"",""0.765""]","[1,1,1,0]",0,50,50,50,1,1,0,,,0,FALSE,1.8158,,,,,,,,,,,,,,,,,,,,,,,,,,,,,,,
,5aa5b170f6dfdd0001eafbe2,627c698ffff3486bf036c16e,2022-05-12_03h57.47.818,classification_task,2021.2.3,Win32,60.0276127,627c6715c52fd12f31907bcf,,,,,,,,,,,,,,,,,,,,,,,l,0,"[""0.169"",""0.403"",""0.590"",""0.936""]","[1,0,1,1]",0,51,51,51,1,0,1,,,0,FALSE,3.0732,,,,,,,,,,,,,,,,,,,,,,,,,,,,,,,
,5aa5b170f6dfdd0001eafbe2,627c698ffff3486bf036c16e,2022-05-12_03h57.47.818,classification_task,2021.2.3,Win32,60.0276127,627c6715c52fd12f31907bcf,,,,,,,,,,,,,,,,,,,,,,,a,1,"[""0.288"",""0.475"",""0.902"",""0.438""]","[1,1,1,0]",0,52,52,52,1,0,0,,,0,FALSE,2.9497,,,,,,,,,,,,,,,,,,,,,,,,,,,,,,,
,5aa5b170f6dfdd0001eafbe2,627c698ffff3486bf036c16e,2022-05-12_03h57.47.818,classification_task,2021.2.3,Win32,60.0276127,627c6715c52fd12f31907bcf,,,,,,,,,,,,,,,,,,,,,,,l,1,"[""0.406"",""0.248"",""0.528"",""0.835""]","[0,1,1,1]",0,53,53,53,1,1,1,,,0,FALSE,3.719,,,,,,,,,,,,,,,,,,,,,,,,,,,,,,,
,5aa5b170f6dfdd0001eafbe2,627c698ffff3486bf036c16e,2022-05-12_03h57.47.818,classification_task,2021.2.3,Win32,60.0276127,627c6715c52fd12f31907bcf,,,,,,,,,,,,,,,,,,,,,,,a,0,"[""0.051"",""0.415"",""0.626"",""0.723""]","[1,0,1,1]",0,54,54,54,1,1,0,,,0,FALSE,3.2036,,,,,,,,,,,,,,,,,,,,,,,,,,,,,,,
,5aa5b170f6dfdd0001eafbe2,627c698ffff3486bf036c16e,2022-05-12_03h57.47.818,classification_task,2021.2.3,Win32,60.0276127,627c6715c52fd12f31907bcf,,,,,,,,,,,,,,,,,,,,,,,a,0,"[""0.404"",""0.206"",""0.626"",""0.723""]","[0,1,1,1]",0,55,55,55,1,1,0,,,0,FALSE,1.766,,,,,,,,,,,,,,,,,,,,,,,,,,,,,,,
,5aa5b170f6dfdd0001eafbe2,627c698ffff3486bf036c16e,2022-05-12_03h57.47.818,classification_task,2021.2.3,Win32,60.0276127,627c6715c52fd12f31907bcf,,,,,,,,,,,,,,,,,,,,,,,l,1,"[""0.117"",""0.248"",""0.762"",""0.835""]","[1,1,0,1]",0,56,56,56,1,1,1,,,0,FALSE,2.8361,,,,,,,,,,,,,,,,,,,,,,,,,,,,,,,
,5aa5b170f6dfdd0001eafbe2,627c698ffff3486bf036c16e,2022-05-12_03h57.47.818,classification_task,2021.2.3,Win32,60.0276127,627c6715c52fd12f31907bcf,,,,,,,,,,,,,,,,,,,,,,,l,1,"[""0.117"",""0.248"",""0.528"",""0.426""]","[1,1,1,0]",0,57,57,57,1,1,1,,,0,FALSE,1.355,,,,,,,,,,,,,,,,,,,,,,,,,,,,,,,
,5aa5b170f6dfdd0001eafbe2,627c698ffff3486bf036c16e,2022-05-12_03h57.47.818,classification_task,2021.2.3,Win32,60.0276127,627c6715c52fd12f31907bcf,,,,,,,,,,,,,,,,,,,,,,,l,0,"[""0.429"",""0.475"",""0.902"",""0.971""]","[0,1,1,1]",0,58,58,58,1,0,0,,,0,FALSE,2.1016,,,,,,,,,,,,,,,,,,,,,,,,,,,,,,,
,5aa5b170f6dfdd0001eafbe2,627c698ffff3486bf036c16e,2022-05-12_03h57.47.818,classification_task,2021.2.3,Win32,60.0276127,627c6715c52fd12f31907bcf,,,,,,,,,,,,,,,,,,,,,,,l,1,"[""0.051"",""0.206"",""0.429"",""0.723""]","[1,1,0,1]",0,59,59,59,1,1,0,,,0,FALSE,1.2845,,,,,,,,,,,,,,,,,,,,,,,,,,,,,,,
,5aa5b170f6dfdd0001eafbe2,627c698ffff3486bf036c16e,2022-05-12_03h57.47.818,classification_task,2021.2.3,Win32,60.0276127,627c6715c52fd12f31907bcf,,,,,,,,,,,,,,,,,,,,,,,l,0,"[""0.169"",""0.342"",""0.404"",""0.936""]","[1,1,0,1]",0,60,60,60,1,0,1,,,0,FALSE,2.1172,,,,,,,,,,,,,,,,,,,,,,,,,,,,,,,
,5aa5b170f6dfdd0001eafbe2,627c698ffff3486bf036c16e,2022-05-12_03h57.47.818,classification_task,2021.2.3,Win32,60.0276127,627c6715c52fd12f31907bcf,,,,,,,,,,,,,,,,,,,,,,,l,0,"[""0.169"",""0.342"",""0.590"",""0.765""]","[1,1,1,0]",0,61,61,61,1,0,1,,,0,FALSE,1.9665,,,,,,,,,,,,,,,,,,,,,,,,,,,,,,,
,5aa5b170f6dfdd0001eafbe2,627c698ffff3486bf036c16e,2022-05-12_03h57.47.818,classification_task,2021.2.3,Win32,60.0276127,627c6715c52fd12f31907bcf,,,,,,,,,,,,,,,,,,,,,,,l,0,"[""0.403"",""0.342"",""0.590"",""0.936""]","[0,1,1,1]",0,62,62,62,1,0,1,,,0,FALSE,4.4161,,,,,,,,,,,,,,,,,,,,,,,,,,,,,,,
,5aa5b170f6dfdd0001eafbe2,627c698ffff3486bf036c16e,2022-05-12_03h57.47.818,classification_task,2021.2.3,Win32,60.0276127,627c6715c52fd12f31907bcf,,,,,,,,,,,,,,,,,,,,,,,l,0,"[""0.288"",""0.404"",""0.902"",""0.971""]","[1,0,1,1]",0,63,63,63,1,0,0,,,0,FALSE,4.5522,,,,,,,,,,,,,,,,,,,,,,,,,,,,,,,
,5aa5b170f6dfdd0001eafbe2,627c698ffff3486bf036c16e,2022-05-12_03h57.47.818,classification_task,2021.2.3,Win32,60.0276127,627c6715c52fd12f31907bcf,,,,,,,,,,,,,,,,,,,,,,,,,,,,,,,,,,,,,,,0, ,,0,9.262198707,679.3746,0,0,0,0,1,2,1,,,,,,,,,,,,,,,,,,
,5aa5b170f6dfdd0001eafbe2,627c698ffff3486bf036c16e,2022-05-12_03h57.47.818,classification_task,2021.2.3,Win32,60.0276127,627c6715c52fd12f31907bcf,,,,,,,,,,,,,,,,,,,,,,,,,,,,,,,,,,,,,,,1,  ,,0,8.453850676,670.0255,0,0,0,0,1,2,1,,,,,,,,,,,,,,,,,,
,5aa5b170f6dfdd0001eafbe2,627c698ffff3486bf036c16e,2022-05-12_03h57.47.818,classification_task,2021.2.3,Win32,60.0276127,627c6715c52fd12f31907bcf,,,,,,,,,,,,,,,,,,,,,,,,,,,,,,,,,,,,,,,2,  ,,0,8.821281599,673.8883,0,0,0,0,1,2,1,,,,,,,,,,,,,,,,,,
,5aa5b170f6dfdd0001eafbe2,627c698ffff3486bf036c16e,2022-05-12_03h57.47.818,classification_task,2021.2.3,Win32,60.0276127,627c6715c52fd12f31907bcf,,,,,,,,,,,,,,,,,,,,,,,,,,,,,,,,,,,,,,,,,,,,,0,0,0,0,1,,1,,,,,,,,,,,,,,,,,,
,5aa5b170f6dfdd0001eafbe2,627c698ffff3486bf036c16e,2022-05-12_03h57.47.818,classification_task,2021.2.3,Win32,60.0276127,627c6715c52fd12f31907bcf,,,,,,,,,,,,,,,,,,,,,space,32.7853,a,0,"[""0.117"",""0.377"",""0.528"",""0.835""]","[1,0,1,1]",0,0,0,0,1,1,1,,,0,FALSE,7.819,,,,,,,,,,,,,,,,,,,,,,,,,,,,,,,
,5aa5b170f6dfdd0001eafbe2,627c698ffff3486bf036c16e,2022-05-12_03h57.47.818,classification_task,2021.2.3,Win32,60.0276127,627c6715c52fd12f31907bcf,,,,,,,,,,,,,,,,,,,,,,,a,1,"[""0.760"",""0.342"",""0.590"",""0.936""]","[0,1,1,1]",0,1,1,1,1,0,1,,,0,FALSE,2.684,,,,,,,,,,,,,,,,,,,,,,,,,,,,,,,
,5aa5b170f6dfdd0001eafbe2,627c698ffff3486bf036c16e,2022-05-12_03h57.47.818,classification_task,2021.2.3,Win32,60.0276127,627c6715c52fd12f31907bcf,,,,,,,,,,,,,,,,,,,,,,,a,1,"[""0.169"",""0.342"",""0.590"",""0.426""]","[1,1,1,0]",0,2,2,2,1,0,1,,,0,FALSE,8.0327,,,,,,,,,,,,,,,,,,,,,,,,,,,,,,,
,5aa5b170f6dfdd0001eafbe2,627c698ffff3486bf036c16e,2022-05-12_03h57.47.818,classification_task,2021.2.3,Win32,60.0276127,627c6715c52fd12f31907bcf,,,,,,,,,,,,,,,,,,,,,,,a,1,"[""0.288"",""0.426"",""0.902"",""0.971""]","[1,0,1,1]",0,3,3,3,1,0,0,,,0,FALSE,8.5286,,,,,,,,,,,,,,,,,,,,,,,,,,,,,,,
,5aa5b170f6dfdd0001eafbe2,627c698ffff3486bf036c16e,2022-05-12_03h57.47.818,classification_task,2021.2.3,Win32,60.0276127,627c6715c52fd12f31907bcf,,,,,,,,,,,,,,,,,,,,,,,l,1,"[""0.051"",""0.206"",""0.404"",""0.723""]","[1,1,0,1]",0,4,4,4,1,1,0,,,0,FALSE,1.0701,,,,,,,,,,,,,,,,,,,,,,,,,,,,,,,
,5aa5b170f6dfdd0001eafbe2,627c698ffff3486bf036c16e,2022-05-12_03h57.47.818,classification_task,2021.2.3,Win32,60.0276127,627c6715c52fd12f31907bcf,,,,,,,,,,,,,,,,,,,,,,,a,1,"[""0.288"",""0.475"",""0.902"",""0.770""]","[1,1,1,0]",0,5,5,5,1,0,0,,,0,FALSE,0.5094,,,,,,,,,,,,,,,,,,,,,,,,,,,,,,,
,5aa5b170f6dfdd0001eafbe2,627c698ffff3486bf036c16e,2022-05-12_03h57.47.818,classification_task,2021.2.3,Win32,60.0276127,627c6715c52fd12f31907bcf,,,,,,,,,,,,,,,,,,,,,,,a,1,"[""0.169"",""0.393"",""0.590"",""0.936""]","[1,0,1,1]",0,6,6,6,1,0,1,,,0,FALSE,2.9165,,,,,,,,,,,,,,,,,,,,,,,,,,,,,,,
,5aa5b170f6dfdd0001eafbe2,627c698ffff3486bf036c16e,2022-05-12_03h57.47.818,classification_task,2021.2.3,Win32,60.0276127,627c6715c52fd12f31907bcf,,,,,,,,,,,,,,,,,,,,,,,a,0,"[""0.117"",""0.248"",""0.436"",""0.835""]","[1,1,0,1]",0,7,7,7,1,1,1,,,0,FALSE,1.2318,,,,,,,,,,,,,,,,,,,,,,,,,,,,,,,
,5aa5b170f6dfdd0001eafbe2,627c698ffff3486bf036c16e,2022-05-12_03h57.47.818,classification_task,2021.2.3,Win32,60.0276127,627c6715c52fd12f31907bcf,,,,,,,,,,,,,,,,,,,,,,,l,1,"[""0.051"",""0.206"",""0.626"",""0.428""]","[1,1,1,0]",0,8,8,8,1,1,0,,,0,FALSE,2.1217,,,,,,,,,,,,,,,,,,,,,,,,,,,,,,,
,5aa5b170f6dfdd0001eafbe2,627c698ffff3486bf036c16e,2022-05-12_03h57.47.818,classification_task,2021.2.3,Win32,60.0276127,627c6715c52fd12f31907bcf,,,,,,,,,,,,,,,,,,,,,,,l,0,"[""0.169"",""0.342"",""0.426"",""0.936""]","[1,1,0,1]",0,9,9,9,1,0,1,,,0,FALSE,1.4967,,,,,,,,,,,,,,,,,,,,,,,,,,,,,,,
,5aa5b170f6dfdd0001eafbe2,627c698ffff3486bf036c16e,2022-05-12_03h57.47.818,classification_task,2021.2.3,Win32,60.0276127,627c6715c52fd12f31907bcf,,,,,,,,,,,,,,,,,,,,,,,l,1,"[""0.051"",""0.429"",""0.626"",""0.723""]","[1,0,1,1]",0,10,10,10,1,1,0,,,0,FALSE,2.2014,,,,,,,,,,,,,,,,,,,,,,,,,,,,,,,
,5aa5b170f6dfdd0001eafbe2,627c698ffff3486bf036c16e,2022-05-12_03h57.47.818,classification_task,2021.2.3,Win32,60.0276127,627c6715c52fd12f31907bcf,,,,,,,,,,,,,,,,,,,,,,,l,1,"[""0.762"",""0.206"",""0.626"",""0.723""]","[0,1,1,1]",0,11,11,11,1,1,0,,,0,FALSE,1.1326,,,,,,,,,,,,,,,,,,,,,,,,,,,,,,,
,5aa5b170f6dfdd0001eafbe2,627c698ffff3486bf036c16e,2022-05-12_03h57.47.818,classification_task,2021.2.3,Win32,60.0276127,627c6715c52fd12f31907bcf,,,,,,,,,,,,,,,,,,,,,,,a,1,"[""0.377"",""0.475"",""0.902"",""0.971""]","[0,1,1,1]",0,12,12,12,1,0,0,,,0,FALSE,1.4497,,,,,,,,,,,,,,,,,,,,,,,,,,,,,,,
,5aa5b170f6dfdd0001eafbe2,627c698ffff3486bf036c16e,2022-05-12_03h57.47.818,classification_task,2021.2.3,Win32,60.0276127,627c6715c52fd12f31907bcf,,,,,,,,,,,,,,,,,,,,,,,a,1,"[""0.288"",""0.475"",""0.436"",""0.971""]","[1,1,0,1]",0,13,13,13,1,0,0,,,0,FALSE,1.2247,,,,,,,,,,,,,,,,,,,,,,,,,,,,,,,
,5aa5b170f6dfdd0001eafbe2,627c698ffff3486bf036c16e,2022-05-12_03h57.47.818,classification_task,2021.2.3,Win32,60.0276127,627c6715c52fd12f31907bcf,,,,,,,,,,,,,,,,,,,,,,,a,0,"[""0.117"",""0.248"",""0.528"",""0.404""]","[1,1,1,0]",0,14,14,14,1,1,1,,,0,FALSE,1.9913,,,,,,,,,,,,,,,,,,,,,,,,,,,,,,,
,5aa5b170f6dfdd0001eafbe2,627c698ffff3486bf036c16e,2022-05-12_03h57.47.818,classification_task,2021.2.3,Win32,60.0276127,627c6715c52fd12f31907bcf,,,,,,,,,,,,,,,,,,,,,,,a,0,"[""0.415"",""0.248"",""0.528"",""0.835""]","[0,1,1,1]",0,15,15,15,1,1,1,,,0,FALSE,1.1502,,,,,,,,,,,,,,,,,,,,,,,,,,,,,,,
,5aa5b170f6dfdd0001eafbe2,627c698ffff3486bf036c16e,2022-05-12_03h57.47.818,classification_task,2021.2.3,Win32,60.0276127,627c6715c52fd12f31907bcf,,,,,,,,,,,,,,,,,,,,,,,a,1,"[""0.288"",""0.475"",""0.415"",""0.971""]","[1,1,0,1]",0,16,16,16,1,0,0,,,0,FALSE,2.1852,,,,,,,,,,,,,,,,,,,,,,,,,,,,,,,
,5aa5b170f6dfdd0001eafbe2,627c698ffff3486bf036c16e,2022-05-12_03h57.47.818,classification_task,2021.2.3,Win32,60.0276127,627c6715c52fd12f31907bcf,,,,,,,,,,,,,,,,,,,,,,,a,0,"[""0.406"",""0.248"",""0.528"",""0.835""]","[0,1,1,1]",0,17,17,17,1,1,1,,,0,FALSE,1.7852,,,,,,,,,,,,,,,,,,,,,,,,,,,,,,,
,5aa5b170f6dfdd0001eafbe2,627c698ffff3486bf036c16e,2022-05-12_03h57.47.818,classification_task,2021.2.3,Win32,60.0276127,627c6715c52fd12f31907bcf,,,,,,,,,,,,,,,,,,,,,,,l,1,"[""0.117"",""0.248"",""0.528"",""0.403""]","[1,1,1,0]",0,18,18,18,1,1,1,,,0,FALSE,4.7481,,,,,,,,,,,,,,,,,,,,,,,,,,,,,,,
,5aa5b170f6dfdd0001eafbe2,627c698ffff3486bf036c16e,2022-05-12_03h57.47.818,classification_task,2021.2.3,Win32,60.0276127,627c6715c52fd12f31907bcf,,,,,,,,,,,,,,,,,,,,,,,l,0,"[""0.404"",""0.342"",""0.590"",""0.936""]","[0,1,1,1]",0,19,19,19,1,0,1,,,0,FALSE,1.799,,,,,,,,,,,,,,,,,,,,,,,,,,,,,,,
,5aa5b170f6dfdd0001eafbe2,627c698ffff3486bf036c16e,2022-05-12_03h57.47.818,classification_task,2021.2.3,Win32,60.0276127,627c6715c52fd12f31907bcf,,,,,,,,,,,,,,,,,,,,,,,a,1,"[""0.169"",""0.342"",""0.403"",""0.936""]","[1,1,0,1]",0,20,20,20,1,0,1,,,0,FALSE,1.0373,,,,,,,,,,,,,,,,,,,,,,,,,,,,,,,
,5aa5b170f6dfdd0001eafbe2,627c698ffff3486bf036c16e,2022-05-12_03h57.47.818,classification_task,2021.2.3,Win32,60.0276127,627c6715c52fd12f31907bcf,,,,,,,,,,,,,,,,,,,,,,,a,1,"[""0.169"",""0.342"",""0.590"",""0.770""]","[1,1,1,0]",0,21,21,21,1,0,1,,,0,FALSE,1.8008,,,,,,,,,,,,,,,,,,,,,,,,,,,,,,,
,5aa5b170f6dfdd0001eafbe2,627c698ffff3486bf036c16e,2022-05-12_03h57.47.818,classification_task,2021.2.3,Win32,60.0276127,627c6715c52fd12f31907bcf,,,,,,,,,,,,,,,,,,,,,,,l,0,"[""0.429"",""0.475"",""0.902"",""0.971""]","[0,1,1,1]",0,22,22,22,1,0,0,,,0,FALSE,3.664,,,,,,,,,,,,,,,,,,,,,,,,,,,,,,,
,5aa5b170f6dfdd0001eafbe2,627c698ffff3486bf036c16e,2022-05-12_03h57.47.818,classification_task,2021.2.3,Win32,60.0276127,627c6715c52fd12f31907bcf,,,,,,,,,,,,,,,,,,,,,,,a,1,"[""0.169"",""0.415"",""0.590"",""0.936""]","[1,0,1,1]",0,23,23,23,1,0,1,,,0,FALSE,1.8361,,,,,,,,,,,,,,,,,,,,,,,,,,,,,,,
,5aa5b170f6dfdd0001eafbe2,627c698ffff3486bf036c16e,2022-05-12_03h57.47.818,classification_task,2021.2.3,Win32,60.0276127,627c6715c52fd12f31907bcf,,,,,,,,,,,,,,,,,,,,,,,l,1,"[""0.051"",""0.206"",""0.393"",""0.723""]","[1,1,0,1]",0,24,24,24,1,1,0,,,0,FALSE,1.9498,,,,,,,,,,,,,,,,,,,,,,,,,,,,,,,
,5aa5b170f6dfdd0001eafbe2,627c698ffff3486bf036c16e,2022-05-12_03h57.47.818,classification_task,2021.2.3,Win32,60.0276127,627c6715c52fd12f31907bcf,,,,,,,,,,,,,,,,,,,,,,,l,1,"[""0.051"",""0.206"",""0.626"",""0.406""]","[1,1,1,0]",0,25,25,25,1,1,0,,,0,FALSE,0.9337,,,,,,,,,,,,,,,,,,,,,,,,,,,,,,,
,5aa5b170f6dfdd0001eafbe2,627c698ffff3486bf036c16e,2022-05-12_03h57.47.818,classification_task,2021.2.3,Win32,60.0276127,627c6715c52fd12f31907bcf,,,,,,,,,,,,,,,,,,,,,,,a,1,"[""0.288"",""0.393"",""0.902"",""0.971""]","[1,0,1,1]",0,26,26,26,1,0,0,,,0,FALSE,1.5341,,,,,,,,,,,,,,,,,,,,,,,,,,,,,,,
,5aa5b170f6dfdd0001eafbe2,627c698ffff3486bf036c16e,2022-05-12_03h57.47.818,classification_task,2021.2.3,Win32,60.0276127,627c6715c52fd12f31907bcf,,,,,,,,,,,,,,,,,,,,,,,l,1,"[""0.051"",""0.762"",""0.626"",""0.723""]","[1,0,1,1]",0,27,27,27,1,1,0,,,0,FALSE,1.4681,,,,,,,,,,,,,,,,,,,,,,,,,,,,,,,
,5aa5b170f6dfdd0001eafbe2,627c698ffff3486bf036c16e,2022-05-12_03h57.47.818,classification_task,2021.2.3,Win32,60.0276127,627c6715c52fd12f31907bcf,,,,,,,,,,,,,,,,,,,,,,,a,1,"[""0.288"",""0.475"",""0.902"",""0.760""]","[1,1,1,0]",0,28,28,28,1,0,0,,,0,FALSE,0.5169,,,,,,,,,,,,,,,,,,,,,,,,,,,,,,,
,5aa5b170f6dfdd0001eafbe2,627c698ffff3486bf036c16e,2022-05-12_03h57.47.818,classification_task,2021.2.3,Win32,60.0276127,627c6715c52fd12f31907bcf,,,,,,,,,,,,,,,,,,,,,,,l,1,"[""0.770"",""0.206"",""0.626"",""0.723""]","[0,1,1,1]",0,29,29,29,1,1,0,,,0,FALSE,0.4196,,,,,,,,,,,,,,,,,,,,,,,,,,,,,,,
,5aa5b170f6dfdd0001eafbe2,627c698ffff3486bf036c16e,2022-05-12_03h57.47.818,classification_task,2021.2.3,Win32,60.0276127,627c6715c52fd12f31907bcf,,,,,,,,,,,,,,,,,,,,,,,a,0,"[""0.117"",""0.248"",""0.393"",""0.835""]","[1,1,0,1]",0,30,30,30,1,1,1,,,0,FALSE,4.2993,,,,,,,,,,,,,,,,,,,,,,,,,,,,,,,
,5aa5b170f6dfdd0001eafbe2,627c698ffff3486bf036c16e,2022-05-12_03h57.47.818,classification_task,2021.2.3,Win32,60.0276127,627c6715c52fd12f31907bcf,,,,,,,,,,,,,,,,,,,,,,,a,0,"[""0.117"",""0.429"",""0.528"",""0.835""]","[1,0,1,1]",0,31,31,31,1,1,1,,,0,FALSE,1.6374,,,,,,,,,,,,,,,,,,,,,,,,,,,,,,,
,5aa5b170f6dfdd0001eafbe2,627c698ffff3486bf036c16e,2022-05-12_03h57.47.818,classification_task,2021.2.3,Win32,60.0276127,627c6715c52fd12f31907bcf,,,,,,,,,,,,,,,,,,,,,,,a,1,"[""0.377"",""0.475"",""0.902"",""0.971""]","[0,1,1,1]",0,32,32,32,1,0,0,,,0,FALSE,3.218,,,,,,,,,,,,,,,,,,,,,,,,,,,,,,,
,5aa5b170f6dfdd0001eafbe2,627c698ffff3486bf036c16e,2022-05-12_03h57.47.818,classification_task,2021.2.3,Win32,60.0276127,627c6715c52fd12f31907bcf,,,,,,,,,,,,,,,,,,,,,,,a,0,"[""0.117"",""0.248"",""0.393"",""0.835""]","[1,1,0,1]",0,33,33,33,1,1,1,,,0,FALSE,2.1629,,,,,,,,,,,,,,,,,,,,,,,,,,,,,,,
,5aa5b170f6dfdd0001eafbe2,627c698ffff3486bf036c16e,2022-05-12_03h57.47.818,classification_task,2021.2.3,Win32,60.0276127,627c6715c52fd12f31907bcf,,,,,,,,,,,,,,,,,,,,,,,a,1,"[""0.169"",""0.438"",""0.590"",""0.936""]","[1,0,1,1]",0,34,34,34,1,0,1,,,0,FALSE,2.8835,,,,,,,,,,,,,,,,,,,,,,,,,,,,,,,
,5aa5b170f6dfdd0001eafbe2,627c698ffff3486bf036c16e,2022-05-12_03h57.47.818,classification_task,2021.2.3,Win32,60.0276127,627c6715c52fd12f31907bcf,,,,,,,,,,,,,,,,,,,,,,,a,0,"[""0.393"",""0.248"",""0.528"",""0.835""]","[0,1,1,1]",0,35,35,35,1,1,1,,,0,FALSE,1.0329,,,,,,,,,,,,,,,,,,,,,,,,,,,,,,,
,5aa5b170f6dfdd0001eafbe2,627c698ffff3486bf036c16e,2022-05-12_03h57.47.818,classification_task,2021.2.3,Win32,60.0276127,627c6715c52fd12f31907bcf,,,,,,,,,,,,,,,,,,,,,,,a,1,"[""0.428"",""0.342"",""0.590"",""0.936""]","[0,1,1,1]",0,36,36,36,1,0,1,,,0,FALSE,0.684,,,,,,,,,,,,,,,,,,,,,,,,,,,,,,,
,5aa5b170f6dfdd0001eafbe2,627c698ffff3486bf036c16e,2022-05-12_03h57.47.818,classification_task,2021.2.3,Win32,60.0276127,627c6715c52fd12f31907bcf,,,,,,,,,,,,,,,,,,,,,,,a,0,"[""0.117"",""0.248"",""0.528"",""0.762""]","[1,1,1,0]",0,37,37,37,1,1,1,,,0,FALSE,1.3737,,,,,,,,,,,,,,,,,,,,,,,,,,,,,,,
,5aa5b170f6dfdd0001eafbe2,627c698ffff3486bf036c16e,2022-05-12_03h57.47.818,classification_task,2021.2.3,Win32,60.0276127,627c6715c52fd12f31907bcf,,,,,,,,,,,,,,,,,,,,,,,a,1,"[""0.288"",""0.475"",""0.902"",""0.404""]","[1,1,1,0]",0,38,38,38,1,0,0,,,0,FALSE,2.7026,,,,,,,,,,,,,,,,,,,,,,,,,,,,,,,
,5aa5b170f6dfdd0001eafbe2,627c698ffff3486bf036c16e,2022-05-12_03h57.47.818,classification_task,2021.2.3,Win32,60.0276127,627c6715c52fd12f31907bcf,,,,,,,,,,,,,,,,,,,,,,,l,1,"[""0.051"",""0.206"",""0.626"",""0.415""]","[1,1,1,0]",0,39,39,39,1,1,0,,,0,FALSE,0.9995,,,,,,,,,,,,,,,,,,,,,,,,,,,,,,,
,5aa5b170f6dfdd0001eafbe2,627c698ffff3486bf036c16e,2022-05-12_03h57.47.818,classification_task,2021.2.3,Win32,60.0276127,627c6715c52fd12f31907bcf,,,,,,,,,,,,,,,,,,,,,,,a,1,"[""0.288"",""0.438"",""0.902"",""0.971""]","[1,0,1,1]",0,40,40,40,1,0,0,,,0,FALSE,0.7509,,,,,,,,,,,,,,,,,,,,,,,,,,,,,,,
,5aa5b170f6dfdd0001eafbe2,627c698ffff3486bf036c16e,2022-05-12_03h57.47.818,classification_task,2021.2.3,Win32,60.0276127,627c6715c52fd12f31907bcf,,,,,,,,,,,,,,,,,,,,,,,l,1,"[""0.770"",""0.206"",""0.626"",""0.723""]","[0,1,1,1]",0,41,41,41,1,1,0,,,0,FALSE,0.6672,,,,,,,,,,,,,,,,,,,,,,,,,,,,,,,
,5aa5b170f6dfdd0001eafbe2,627c698ffff3486bf036c16e,2022-05-12_03h57.47.818,classification_task,2021.2.3,Win32,60.0276127,627c6715c52fd12f31907bcf,,,,,,,,,,,,,,,,,,,,,,,a,1,"[""0.169"",""0.342"",""0.590"",""0.770""]","[1,1,1,0]",0,42,42,42,1,0,1,,,0,FALSE,4.1182,,,,,,,,,,,,,,,,,,,,,,,,,,,,,,,
,5aa5b170f6dfdd0001eafbe2,627c698ffff3486bf036c16e,2022-05-12_03h57.47.818,classification_task,2021.2.3,Win32,60.0276127,627c6715c52fd12f31907bcf,,,,,,,,,,,,,,,,,,,,,,,a,1,"[""0.288"",""0.475"",""0.770"",""0.971""]","[1,1,0,1]",0,43,43,43,1,0,0,,,0,FALSE,1.1838,,,,,,,,,,,,,,,,,,,,,,,,,,,,,,,
,5aa5b170f6dfdd0001eafbe2,627c698ffff3486bf036c16e,2022-05-12_03h57.47.818,classification_task,2021.2.3,Win32,60.0276127,627c6715c52fd12f31907bcf,,,,,,,,,,,,,,,,,,,,,,,l,1,"[""0.117"",""0.438"",""0.528"",""0.835""]","[1,0,1,1]",0,44,44,44,1,1,1,,,0,FALSE,1.6039,,,,,,,,,,,,,,,,,,,,,,,,,,,,,,,
,5aa5b170f6dfdd0001eafbe2,627c698ffff3486bf036c16e,2022-05-12_03h57.47.818,classification_task,2021.2.3,Win32,60.0276127,627c6715c52fd12f31907bcf,,,,,,,,,,,,,,,,,,,,,,,l,1,"[""0.051"",""0.206"",""0.770"",""0.723""]","[1,1,0,1]",0,45,45,45,1,1,0,,,0,FALSE,1.2187,,,,,,,,,,,,,,,,,,,,,,,,,,,,,,,
,5aa5b170f6dfdd0001eafbe2,627c698ffff3486bf036c16e,2022-05-12_03h57.47.818,classification_task,2021.2.3,Win32,60.0276127,627c6715c52fd12f31907bcf,,,,,,,,,,,,,,,,,,,,,,,l,1,"[""0.051"",""0.770"",""0.626"",""0.723""]","[1,0,1,1]",0,46,46,46,1,1,0,,,0,FALSE,0.7681,,,,,,,,,,,,,,,,,,,,,,,,,,,,,,,
,5aa5b170f6dfdd0001eafbe2,627c698ffff3486bf036c16e,2022-05-12_03h57.47.818,classification_task,2021.2.3,Win32,60.0276127,627c6715c52fd12f31907bcf,,,,,,,,,,,,,,,,,,,,,,,l,0,"[""0.169"",""0.342"",""0.426"",""0.936""]","[1,1,0,1]",0,47,47,47,1,0,1,,,0,FALSE,0.9001,,,,,,,,,,,,,,,,,,,,,,,,,,,,,,,
,5aa5b170f6dfdd0001eafbe2,627c698ffff3486bf036c16e,2022-05-12_03h57.47.818,classification_task,2021.2.3,Win32,60.0276127,627c6715c52fd12f31907bcf,,,,,,,,,,,,,,,,,,,,,,,l,0,"[""0.169"",""0.342"",""0.762"",""0.936""]","[1,1,0,1]",0,48,48,48,1,0,1,,,0,FALSE,0.9338,,,,,,,,,,,,,,,,,,,,,,,,,,,,,,,
,5aa5b170f6dfdd0001eafbe2,627c698ffff3486bf036c16e,2022-05-12_03h57.47.818,classification_task,2021.2.3,Win32,60.0276127,627c6715c52fd12f31907bcf,,,,,,,,,,,,,,,,,,,,,,,a,1,"[""0.169"",""0.342"",""0.590"",""0.428""]","[1,1,1,0]",0,49,49,49,1,0,1,,,0,FALSE,0.6574,,,,,,,,,,,,,,,,,,,,,,,,,,,,,,,
,5aa5b170f6dfdd0001eafbe2,627c698ffff3486bf036c16e,2022-05-12_03h57.47.818,classification_task,2021.2.3,Win32,60.0276127,627c6715c52fd12f31907bcf,,,,,,,,,,,,,,,,,,,,,,,l,0,"[""0.403"",""0.342"",""0.590"",""0.936""]","[0,1,1,1]",0,50,50,50,1,0,1,,,0,FALSE,1.0846,,,,,,,,,,,,,,,,,,,,,,,,,,,,,,,
,5aa5b170f6dfdd0001eafbe2,627c698ffff3486bf036c16e,2022-05-12_03h57.47.818,classification_task,2021.2.3,Win32,60.0276127,627c6715c52fd12f31907bcf,,,,,,,,,,,,,,,,,,,,,,,a,1,"[""0.288"",""0.475"",""0.428"",""0.971""]","[1,1,0,1]",0,51,51,51,1,0,0,,,0,FALSE,2.2994,,,,,,,,,,,,,,,,,,,,,,,,,,,,,,,
,5aa5b170f6dfdd0001eafbe2,627c698ffff3486bf036c16e,2022-05-12_03h57.47.818,classification_task,2021.2.3,Win32,60.0276127,627c6715c52fd12f31907bcf,,,,,,,,,,,,,,,,,,,,,,,l,1,"[""0.051"",""0.765"",""0.626"",""0.723""]","[1,0,1,1]",0,52,52,52,1,1,0,,,0,FALSE,2.1007,,,,,,,,,,,,,,,,,,,,,,,,,,,,,,,
,5aa5b170f6dfdd0001eafbe2,627c698ffff3486bf036c16e,2022-05-12_03h57.47.818,classification_task,2021.2.3,Win32,60.0276127,627c6715c52fd12f31907bcf,,,,,,,,,,,,,,,,,,,,,,,l,1,"[""0.117"",""0.248"",""0.528"",""0.770""]","[1,1,1,0]",0,53,53,53,1,1,1,,,0,FALSE,3.3502,,,,,,,,,,,,,,,,,,,,,,,,,,,,,,,
,5aa5b170f6dfdd0001eafbe2,627c698ffff3486bf036c16e,2022-05-12_03h57.47.818,classification_task,2021.2.3,Win32,60.0276127,627c6715c52fd12f31907bcf,,,,,,,,,,,,,,,,,,,,,,,l,1,"[""0.117"",""0.248"",""0.429"",""0.835""]","[1,1,0,1]",0,54,54,54,1,1,1,,,0,FALSE,0.802,,,,,,,,,,,,,,,,,,,,,,,,,,,,,,,
,5aa5b170f6dfdd0001eafbe2,627c698ffff3486bf036c16e,2022-05-12_03h57.47.818,classification_task,2021.2.3,Win32,60.0276127,627c6715c52fd12f31907bcf,,,,,,,,,,,,,,,,,,,,,,,a,1,"[""0.415"",""0.475"",""0.902"",""0.971""]","[0,1,1,1]",0,55,55,55,1,0,0,,,0,FALSE,1.5087,,,,,,,,,,,,,,,,,,,,,,,,,,,,,,,
,5aa5b170f6dfdd0001eafbe2,627c698ffff3486bf036c16e,2022-05-12_03h57.47.818,classification_task,2021.2.3,Win32,60.0276127,627c6715c52fd12f31907bcf,,,,,,,,,,,,,,,,,,,,,,,l,1,"[""0.765"",""0.206"",""0.626"",""0.723""]","[0,1,1,1]",0,56,56,56,1,1,0,,,0,FALSE,1.0074,,,,,,,,,,,,,,,,,,,,,,,,,,,,,,,
,5aa5b170f6dfdd0001eafbe2,627c698ffff3486bf036c16e,2022-05-12_03h57.47.818,classification_task,2021.2.3,Win32,60.0276127,627c6715c52fd12f31907bcf,,,,,,,,,,,,,,,,,,,,,,,a,1,"[""0.288"",""0.475"",""0.902"",""0.429""]","[1,1,1,0]",0,57,57,57,1,0,0,,,0,FALSE,0.9036,,,,,,,,,,,,,,,,,,,,,,,,,,,,,,,
,5aa5b170f6dfdd0001eafbe2,627c698ffff3486bf036c16e,2022-05-12_03h57.47.818,classification_task,2021.2.3,Win32,60.0276127,627c6715c52fd12f31907bcf,,,,,,,,,,,,,,,,,,,,,,,l,1,"[""0.051"",""0.206"",""0.765"",""0.723""]","[1,1,0,1]",0,58,58,58,1,1,0,,,0,FALSE,2.4585,,,,,,,,,,,,,,,,,,,,,,,,,,,,,,,
,5aa5b170f6dfdd0001eafbe2,627c698ffff3486bf036c16e,2022-05-12_03h57.47.818,classification_task,2021.2.3,Win32,60.0276127,627c6715c52fd12f31907bcf,,,,,,,,,,,,,,,,,,,,,,,a,1,"[""0.169"",""0.403"",""0.590"",""0.936""]","[1,0,1,1]",0,59,59,59,1,0,1,,,0,FALSE,2.6217,,,,,,,,,,,,,,,,,,,,,,,,,,,,,,,
,5aa5b170f6dfdd0001eafbe2,627c698ffff3486bf036c16e,2022-05-12_03h57.47.818,classification_task,2021.2.3,Win32,60.0276127,627c6715c52fd12f31907bcf,,,,,,,,,,,,,,,,,,,,,,,l,1,"[""0.051"",""0.206"",""0.626"",""0.406""]","[1,1,1,0]",0,60,60,60,1,1,0,,,0,FALSE,2.0802,,,,,,,,,,,,,,,,,,,,,,,,,,,,,,,
,5aa5b170f6dfdd0001eafbe2,627c698ffff3486bf036c16e,2022-05-12_03h57.47.818,classification_task,2021.2.3,Win32,60.0276127,627c6715c52fd12f31907bcf,,,,,,,,,,,,,,,,,,,,,,,l,1,"[""0.117"",""0.770"",""0.528"",""0.835""]","[1,0,1,1]",0,61,61,61,1,1,1,,,0,FALSE,1.5558,,,,,,,,,,,,,,,,,,,,,,,,,,,,,,,
,5aa5b170f6dfdd0001eafbe2,627c698ffff3486bf036c16e,2022-05-12_03h57.47.818,classification_task,2021.2.3,Win32,60.0276127,627c6715c52fd12f31907bcf,,,,,,,,,,,,,,,,,,,,,,,l,1,"[""0.770"",""0.248"",""0.528"",""0.835""]","[0,1,1,1]",0,62,62,62,1,1,1,,,0,FALSE,1.4998,,,,,,,,,,,,,,,,,,,,,,,,,,,,,,,
,5aa5b170f6dfdd0001eafbe2,627c698ffff3486bf036c16e,2022-05-12_03h57.47.818,classification_task,2021.2.3,Win32,60.0276127,627c6715c52fd12f31907bcf,,,,,,,,,,,,,,,,,,,,,,,a,1,"[""0.288"",""0.770"",""0.902"",""0.971""]","[1,0,1,1]",0,63,63,63,1,0,0,,,0,FALSE,1.8572,,,,,,,,,,,,,,,,,,,,,,,,,,,,,,,
,5aa5b170f6dfdd0001eafbe2,627c698ffff3486bf036c16e,2022-05-12_03h57.47.818,classification_task,2021.2.3,Win32,60.0276127,627c6715c52fd12f31907bcf,,,,,,,,,,,,,,,,,,,,,,,,,,,,,,,,,,,,,,,0, ,,0,4.657064472,242.7948,0,1,1,1,1,2,2,,,,,,,,,,,,,,,,,,
,5aa5b170f6dfdd0001eafbe2,627c698ffff3486bf036c16e,2022-05-12_03h57.47.818,classification_task,2021.2.3,Win32,60.0276127,627c6715c52fd12f31907bcf,,,,,,,,,,,,,,,,,,,,,,,,,,,,,,,,,,,,,,,1,  ,,0,10,245.1784,0,1,1,1,1,2,2,,,,,,,,,,,,,,,,,,
,5aa5b170f6dfdd0001eafbe2,627c698ffff3486bf036c16e,2022-05-12_03h57.47.818,classification_task,2021.2.3,Win32,60.0276127,627c6715c52fd12f31907bcf,,,,,,,,,,,,,,,,,,,,,,,,,,,,,,,,,,,,,,,2,  ,,0,10,249.3298,0,1,1,1,1,2,2,,,,,,,,,,,,,,,,,,
,5aa5b170f6dfdd0001eafbe2,627c698ffff3486bf036c16e,2022-05-12_03h57.47.818,classification_task,2021.2.3,Win32,60.0276127,627c6715c52fd12f31907bcf,,,,,,,,,,,,,,,,,,,,,,,,,,,,,,,,,,,,,,,,,,,,,0,1,1,1,1,,2,,,,,,,,,,,,,,,,,,
,5aa5b170f6dfdd0001eafbe2,627c698ffff3486bf036c16e,2022-05-12_03h57.47.818,classification_task,2021.2.3,Win32,60.0276127,627c6715c52fd12f31907bcf,,,,,,,,,,,,,,,,,,,,,space,9.9412,l,0,"[""0.169"",""0.342"",""0.590"",""0.765""]","[1,1,1,0]",0,0,0,0,1,0,1,,,0,FALSE,3.629,,,,,,,,,,,,,,,,,,,,,,,,,,,,,,,
,5aa5b170f6dfdd0001eafbe2,627c698ffff3486bf036c16e,2022-05-12_03h57.47.818,classification_task,2021.2.3,Win32,60.0276127,627c6715c52fd12f31907bcf,,,,,,,,,,,,,,,,,,,,,,,a,1,"[""0.288"",""0.406"",""0.902"",""0.971""]","[1,0,1,1]",0,1,1,1,1,0,0,,,0,FALSE,5.4837,,,,,,,,,,,,,,,,,,,,,,,,,,,,,,,
,5aa5b170f6dfdd0001eafbe2,627c698ffff3486bf036c16e,2022-05-12_03h57.47.818,classification_task,2021.2.3,Win32,60.0276127,627c6715c52fd12f31907bcf,,,,,,,,,,,,,,,,,,,,,,,l,0,"[""0.760"",""0.342"",""0.590"",""0.936""]","[0,1,1,1]",0,2,2,2,1,0,1,,,0,FALSE,1.6496,,,,,,,,,,,,,,,,,,,,,,,,,,,,,,,
,5aa5b170f6dfdd0001eafbe2,627c698ffff3486bf036c16e,2022-05-12_03h57.47.818,classification_task,2021.2.3,Win32,60.0276127,627c6715c52fd12f31907bcf,,,,,,,,,,,,,,,,,,,,,,,l,1,"[""0.051"",""0.206"",""0.438"",""0.723""]","[1,1,0,1]",0,3,3,3,1,1,0,,,0,FALSE,2.8331,,,,,,,,,,,,,,,,,,,,,,,,,,,,,,,
,5aa5b170f6dfdd0001eafbe2,627c698ffff3486bf036c16e,2022-05-12_03h57.47.818,classification_task,2021.2.3,Win32,60.0276127,627c6715c52fd12f31907bcf,,,,,,,,,,,,,,,,,,,,,,,a,1,"[""0.770"",""0.475"",""0.902"",""0.971""]","[0,1,1,1]",0,4,4,4,1,0,0,,,0,FALSE,4.0496,,,,,,,,,,,,,,,,,,,,,,,,,,,,,,,
,5aa5b170f6dfdd0001eafbe2,627c698ffff3486bf036c16e,2022-05-12_03h57.47.818,classification_task,2021.2.3,Win32,60.0276127,627c6715c52fd12f31907bcf,,,,,,,,,,,,,,,,,,,,,,,a,0,"[""0.117"",""0.248"",""0.528"",""0.415""]","[1,1,1,0]",0,5,5,5,1,1,1,,,0,FALSE,2.4485,,,,,,,,,,,,,,,,,,,,,,,,,,,,,,,
,5aa5b170f6dfdd0001eafbe2,627c698ffff3486bf036c16e,2022-05-12_03h57.47.818,classification_task,2021.2.3,Win32,60.0276127,627c6715c52fd12f31907bcf,,,,,,,,,,,,,,,,,,,,,,,a,1,"[""0.288"",""0.475"",""0.762"",""0.971""]","[1,1,0,1]",0,6,6,6,1,0,0,,,0,FALSE,1.7054,,,,,,,,,,,,,,,,,,,,,,,,,,,,,,,
,5aa5b170f6dfdd0001eafbe2,627c698ffff3486bf036c16e,2022-05-12_03h57.47.818,classification_task,2021.2.3,Win32,60.0276127,627c6715c52fd12f31907bcf,,,,,,,,,,,,,,,,,,,,,,,l,1,"[""0.117"",""0.248"",""0.765"",""0.835""]","[1,1,0,1]",0,7,7,7,1,1,1,,,0,FALSE,1.6538,,,,,,,,,,,,,,,,,,,,,,,,,,,,,,,
,5aa5b170f6dfdd0001eafbe2,627c698ffff3486bf036c16e,2022-05-12_03h57.47.818,classification_task,2021.2.3,Win32,60.0276127,627c6715c52fd12f31907bcf,,,,,,,,,,,,,,,,,,,,,,,l,1,"[""0.403"",""0.206"",""0.626"",""0.723""]","[0,1,1,1]",0,8,8,8,1,1,0,,,0,FALSE,3.1239,,,,,,,,,,,,,,,,,,,,,,,,,,,,,,,
,5aa5b170f6dfdd0001eafbe2,627c698ffff3486bf036c16e,2022-05-12_03h57.47.818,classification_task,2021.2.3,Win32,60.0276127,627c6715c52fd12f31907bcf,,,,,,,,,,,,,,,,,,,,,,,l,1,"[""0.406"",""0.248"",""0.528"",""0.835""]","[0,1,1,1]",0,9,9,9,1,1,1,,,0,FALSE,1.1159,,,,,,,,,,,,,,,,,,,,,,,,,,,,,,,
,5aa5b170f6dfdd0001eafbe2,627c698ffff3486bf036c16e,2022-05-12_03h57.47.818,classification_task,2021.2.3,Win32,60.0276127,627c6715c52fd12f31907bcf,,,,,,,,,,,,,,,,,,,,,,,a,0,"[""0.117"",""0.403"",""0.528"",""0.835""]","[1,0,1,1]",0,10,10,10,1,1,1,,,0,FALSE,1.0912,,,,,,,,,,,,,,,,,,,,,,,,,,,,,,,
,5aa5b170f6dfdd0001eafbe2,627c698ffff3486bf036c16e,2022-05-12_03h57.47.818,classification_task,2021.2.3,Win32,60.0276127,627c6715c52fd12f31907bcf,,,,,,,,,,,,,,,,,,,,,,,a,0,"[""0.051"",""0.206"",""0.626"",""0.765""]","[1,1,1,0]",0,11,11,11,1,1,0,,,0,FALSE,1.9508,,,,,,,,,,,,,,,,,,,,,,,,,,,,,,,
,5aa5b170f6dfdd0001eafbe2,627c698ffff3486bf036c16e,2022-05-12_03h57.47.818,classification_task,2021.2.3,Win32,60.0276127,627c6715c52fd12f31907bcf,,,,,,,,,,,,,,,,,,,,,,,l,0,"[""0.288"",""0.475"",""0.902"",""0.404""]","[1,1,1,0]",0,12,12,12,1,0,0,,,0,FALSE,3.7002,,,,,,,,,,,,,,,,,,,,,,,,,,,,,,,
,5aa5b170f6dfdd0001eafbe2,627c698ffff3486bf036c16e,2022-05-12_03h57.47.818,classification_task,2021.2.3,Win32,60.0276127,627c6715c52fd12f31907bcf,,,,,,,,,,,,,,,,,,,,,,,l,1,"[""0.051"",""0.765"",""0.626"",""0.723""]","[1,0,1,1]",0,13,13,13,1,1,0,,,0,FALSE,1.0908,,,,,,,,,,,,,,,,,,,,,,,,,,,,,,,
,5aa5b170f6dfdd0001eafbe2,627c698ffff3486bf036c16e,2022-05-12_03h57.47.818,classification_task,2021.2.3,Win32,60.0276127,627c6715c52fd12f31907bcf,,,,,,,,,,,,,,,,,,,,,,,l,0,"[""0.169"",""0.438"",""0.590"",""0.936""]","[1,0,1,1]",0,14,14,14,1,0,1,,,0,FALSE,1.5653,,,,,,,,,,,,,,,,,,,,,,,,,,,,,,,
,5aa5b170f6dfdd0001eafbe2,627c698ffff3486bf036c16e,2022-05-12_03h57.47.818,classification_task,2021.2.3,Win32,60.0276127,627c6715c52fd12f31907bcf,,,,,,,,,,,,,,,,,,,,,,,l,0,"[""0.169"",""0.342"",""0.438"",""0.936""]","[1,1,0,1]",0,15,15,15,1,0,1,,,0,FALSE,0.8558,,,,,,,,,,,,,,,,,,,,,,,,,,,,,,,
,5aa5b170f6dfdd0001eafbe2,627c698ffff3486bf036c16e,2022-05-12_03h57.47.818,classification_task,2021.2.3,Win32,60.0276127,627c6715c52fd12f31907bcf,,,,,,,,,,,,,,,,,,,,,,,l,0,"[""0.436"",""0.475"",""0.902"",""0.971""]","[0,1,1,1]",0,16,16,16,1,0,0,,,0,FALSE,2.3359,,,,,,,,,,,,,,,,,,,,,,,,,,,,,,,
,5aa5b170f6dfdd0001eafbe2,627c698ffff3486bf036c16e,2022-05-12_03h57.47.818,classification_task,2021.2.3,Win32,60.0276127,627c6715c52fd12f31907bcf,,,,,,,,,,,,,,,,,,,,,,,l,1,"[""0.051"",""0.404"",""0.626"",""0.723""]","[1,0,1,1]",0,17,17,17,1,1,0,,,0,FALSE,0.4737,,,,,,,,,,,,,,,,,,,,,,,,,,,,,,,
,5aa5b170f6dfdd0001eafbe2,627c698ffff3486bf036c16e,2022-05-12_03h57.47.818,classification_task,2021.2.3,Win32,60.0276127,627c6715c52fd12f31907bcf,,,,,,,,,,,,,,,,,,,,,,,l,1,"[""0.117"",""0.429"",""0.528"",""0.835""]","[1,0,1,1]",0,18,18,18,1,1,1,,,0,FALSE,1.5505,,,,,,,,,,,,,,,,,,,,,,,,,,,,,,,
,5aa5b170f6dfdd0001eafbe2,627c698ffff3486bf036c16e,2022-05-12_03h57.47.818,classification_task,2021.2.3,Win32,60.0276127,627c6715c52fd12f31907bcf,,,,,,,,,,,,,,,,,,,,,,,a,1,"[""0.288"",""0.475"",""0.902"",""0.406""]","[1,1,1,0]",0,19,19,19,1,0,0,,,0,FALSE,0.6999,,,,,,,,,,,,,,,,,,,,,,,,,,,,,,,
,5aa5b170f6dfdd0001eafbe2,627c698ffff3486bf036c16e,2022-05-12_03h57.47.818,classification_task,2021.2.3,Win32,60.0276127,627c6715c52fd12f31907bcf,,,,,,,,,,,,,,,,,,,,,,,l,1,"[""0.426"",""0.248"",""0.528"",""0.835""]","[0,1,1,1]",0,20,20,20,1,1,1,,,0,FALSE,1.7878,,,,,,,,,,,,,,,,,,,,,,,,,,,,,,,
,5aa5b170f6dfdd0001eafbe2,627c698ffff3486bf036c16e,2022-05-12_03h57.47.818,classification_task,2021.2.3,Win32,60.0276127,627c6715c52fd12f31907bcf,,,,,,,,,,,,,,,,,,,,,,,l,0,"[""0.169"",""0.342"",""0.438"",""0.936""]","[1,1,0,1]",0,21,21,21,1,0,1,,,0,FALSE,2.4492,,,,,,,,,,,,,,,,,,,,,,,,,,,,,,,
,5aa5b170f6dfdd0001eafbe2,627c698ffff3486bf036c16e,2022-05-12_03h57.47.818,classification_task,2021.2.3,Win32,60.0276127,627c6715c52fd12f31907bcf,,,,,,,,,,,,,,,,,,,,,,,l,1,"[""0.051"",""0.206"",""0.626"",""0.377""]","[1,1,1,0]",0,22,22,22,1,1,0,,,0,FALSE,1.8837,,,,,,,,,,,,,,,,,,,,,,,,,,,,,,,
,5aa5b170f6dfdd0001eafbe2,627c698ffff3486bf036c16e,2022-05-12_03h57.47.818,classification_task,2021.2.3,Win32,60.0276127,627c6715c52fd12f31907bcf,,,,,,,,,,,,,,,,,,,,,,,l,0,"[""0.760"",""0.342"",""0.590"",""0.936""]","[0,1,1,1]",0,23,23,23,1,0,1,,,0,FALSE,1.6056,,,,,,,,,,,,,,,,,,,,,,,,,,,,,,,
,5aa5b170f6dfdd0001eafbe2,627c698ffff3486bf036c16e,2022-05-12_03h57.47.818,classification_task,2021.2.3,Win32,60.0276127,627c6715c52fd12f31907bcf,,,,,,,,,,,,,,,,,,,,,,,a,1,"[""0.169"",""0.429"",""0.590"",""0.936""]","[1,0,1,1]",0,24,24,24,1,0,1,,,0,FALSE,1.8547,,,,,,,,,,,,,,,,,,,,,,,,,,,,,,,
,5aa5b170f6dfdd0001eafbe2,627c698ffff3486bf036c16e,2022-05-12_03h57.47.818,classification_task,2021.2.3,Win32,60.0276127,627c6715c52fd12f31907bcf,,,,,,,,,,,,,,,,,,,,,,,a,0,"[""0.117"",""0.248"",""0.428"",""0.835""]","[1,1,0,1]",0,25,25,25,1,1,1,,,0,FALSE,2.0681,,,,,,,,,,,,,,,,,,,,,,,,,,,,,,,
,5aa5b170f6dfdd0001eafbe2,627c698ffff3486bf036c16e,2022-05-12_03h57.47.818,classification_task,2021.2.3,Win32,60.0276127,627c6715c52fd12f31907bcf,,,,,,,,,,,,,,,,,,,,,,,a,0,"[""0.117"",""0.248"",""0.528"",""0.403""]","[1,1,1,0]",0,26,26,26,1,1,1,,,0,FALSE,0.9191,,,,,,,,,,,,,,,,,,,,,,,,,,,,,,,
,5aa5b170f6dfdd0001eafbe2,627c698ffff3486bf036c16e,2022-05-12_03h57.47.818,classification_task,2021.2.3,Win32,60.0276127,627c6715c52fd12f31907bcf,,,,,,,,,,,,,,,,,,,,,,,l,0,"[""0.169"",""0.342"",""0.590"",""0.760""]","[1,1,1,0]",0,27,27,27,1,0,1,,,0,FALSE,4.1513,,,,,,,,,,,,,,,,,,,,,,,,,,,,,,,
,5aa5b170f6dfdd0001eafbe2,627c698ffff3486bf036c16e,2022-05-12_03h57.47.818,classification_task,2021.2.3,Win32,60.0276127,627c6715c52fd12f31907bcf,,,,,,,,,,,,,,,,,,,,,,,l,0,"[""0.288"",""0.475"",""0.377"",""0.971""]","[1,1,0,1]",0,28,28,28,1,0,0,,,0,FALSE,5.1987,,,,,,,,,,,,,,,,,,,,,,,,,,,,,,,
,5aa5b170f6dfdd0001eafbe2,627c698ffff3486bf036c16e,2022-05-12_03h57.47.818,classification_task,2021.2.3,Win32,60.0276127,627c6715c52fd12f31907bcf,,,,,,,,,,,,,,,,,,,,,,,a,1,"[""0.288"",""0.429"",""0.902"",""0.971""]","[1,0,1,1]",0,29,29,29,1,0,0,,,0,FALSE,3.2651,,,,,,,,,,,,,,,,,,,,,,,,,,,,,,,
,5aa5b170f6dfdd0001eafbe2,627c698ffff3486bf036c16e,2022-05-12_03h57.47.818,classification_task,2021.2.3,Win32,60.0276127,627c6715c52fd12f31907bcf,,,,,,,,,,,,,,,,,,,,,,,a,0,"[""0.406"",""0.206"",""0.626"",""0.723""]","[0,1,1,1]",0,30,30,30,1,1,0,,,0,FALSE,3.5491,,,,,,,,,,,,,,,,,,,,,,,,,,,,,,,
,5aa5b170f6dfdd0001eafbe2,627c698ffff3486bf036c16e,2022-05-12_03h57.47.818,classification_task,2021.2.3,Win32,60.0276127,627c6715c52fd12f31907bcf,,,,,,,,,,,,,,,,,,,,,,,l,1,"[""0.051"",""0.206"",""0.426"",""0.723""]","[1,1,0,1]",0,31,31,31,1,1,0,,,0,FALSE,3.683,,,,,,,,,,,,,,,,,,,,,,,,,,,,,,,
,5aa5b170f6dfdd0001eafbe2,627c698ffff3486bf036c16e,2022-05-12_03h57.47.818,classification_task,2021.2.3,Win32,60.0276127,627c6715c52fd12f31907bcf,,,,,,,,,,,,,,,,,,,,,,,l,1,"[""0.393"",""0.206"",""0.626"",""0.723""]","[0,1,1,1]",0,32,32,32,1,1,0,,,0,FALSE,3.2319,,,,,,,,,,,,,,,,,,,,,,,,,,,,,,,
,5aa5b170f6dfdd0001eafbe2,627c698ffff3486bf036c16e,2022-05-12_03h57.47.818,classification_task,2021.2.3,Win32,60.0276127,627c6715c52fd12f31907bcf,,,,,,,,,,,,,,,,,,,,,,,a,1,"[""0.288"",""0.404"",""0.902"",""0.971""]","[1,0,1,1]",0,33,33,33,1,0,0,,,0,FALSE,2.683,,,,,,,,,,,,,,,,,,,,,,,,,,,,,,,
,5aa5b170f6dfdd0001eafbe2,627c698ffff3486bf036c16e,2022-05-12_03h57.47.818,classification_task,2021.2.3,Win32,60.0276127,627c6715c52fd12f31907bcf,,,,,,,,,,,,,,,,,,,,,,,a,0,"[""0.051"",""0.206"",""0.626"",""0.403""]","[1,1,1,0]",0,34,34,34,1,1,0,,,0,FALSE,1.5569,,,,,,,,,,,,,,,,,,,,,,,,,,,,,,,
,5aa5b170f6dfdd0001eafbe2,627c698ffff3486bf036c16e,2022-05-12_03h57.47.818,classification_task,2021.2.3,Win32,60.0276127,627c6715c52fd12f31907bcf,,,,,,,,,,,,,,,,,,,,,,,l,1,"[""0.051"",""0.436"",""0.626"",""0.723""]","[1,0,1,1]",0,35,35,35,1,1,0,,,0,FALSE,1.9499,,,,,,,,,,,,,,,,,,,,,,,,,,,,,,,
,5aa5b170f6dfdd0001eafbe2,627c698ffff3486bf036c16e,2022-05-12_03h57.47.818,classification_task,2021.2.3,Win32,60.0276127,627c6715c52fd12f31907bcf,,,,,,,,,,,,,,,,,,,,,,,l,0,"[""0.770"",""0.475"",""0.902"",""0.971""]","[0,1,1,1]",0,36,36,36,1,0,0,,,0,FALSE,2.6404,,,,,,,,,,,,,,,,,,,,,,,,,,,,,,,
,5aa5b170f6dfdd0001eafbe2,627c698ffff3486bf036c16e,2022-05-12_03h57.47.818,classification_task,2021.2.3,Win32,60.0276127,627c6715c52fd12f31907bcf,,,,,,,,,,,,,,,,,,,,,,,a,1,"[""0.169"",""0.342"",""0.590"",""0.393""]","[1,1,1,0]",0,37,37,37,1,0,1,,,0,FALSE,3.5733,,,,,,,,,,,,,,,,,,,,,,,,,,,,,,,
,5aa5b170f6dfdd0001eafbe2,627c698ffff3486bf036c16e,2022-05-12_03h57.47.818,classification_task,2021.2.3,Win32,60.0276127,627c6715c52fd12f31907bcf,,,,,,,,,,,,,,,,,,,,,,,l,0,"[""0.169"",""0.760"",""0.590"",""0.936""]","[1,0,1,1]",0,38,38,38,1,0,1,,,0,FALSE,2.1979,,,,,,,,,,,,,,,,,,,,,,,,,,,,,,,
,5aa5b170f6dfdd0001eafbe2,627c698ffff3486bf036c16e,2022-05-12_03h57.47.818,classification_task,2021.2.3,Win32,60.0276127,627c6715c52fd12f31907bcf,,,,,,,,,,,,,,,,,,,,,,,a,0,"[""0.117"",""0.403"",""0.528"",""0.835""]","[1,0,1,1]",0,39,39,39,1,1,1,,,0,FALSE,1.699,,,,,,,,,,,,,,,,,,,,,,,,,,,,,,,
,5aa5b170f6dfdd0001eafbe2,627c698ffff3486bf036c16e,2022-05-12_03h57.47.818,classification_task,2021.2.3,Win32,60.0276127,627c6715c52fd12f31907bcf,,,,,,,,,,,,,,,,,,,,,,,l,1,"[""0.117"",""0.248"",""0.770"",""0.835""]","[1,1,0,1]",0,40,40,40,1,1,1,,,0,FALSE,1.0851,,,,,,,,,,,,,,,,,,,,,,,,,,,,,,,
,5aa5b170f6dfdd0001eafbe2,627c698ffff3486bf036c16e,2022-05-12_03h57.47.818,classification_task,2021.2.3,Win32,60.0276127,627c6715c52fd12f31907bcf,,,,,,,,,,,,,,,,,,,,,,,l,0,"[""0.169"",""0.342"",""0.429"",""0.936""]","[1,1,0,1]",0,41,41,41,1,0,1,,,0,FALSE,3.0405,,,,,,,,,,,,,,,,,,,,,,,,,,,,,,,
,5aa5b170f6dfdd0001eafbe2,627c698ffff3486bf036c16e,2022-05-12_03h57.47.818,classification_task,2021.2.3,Win32,60.0276127,627c6715c52fd12f31907bcf,,,,,,,,,,,,,,,,,,,,,,,a,1,"[""0.288"",""0.475"",""0.429"",""0.971""]","[1,1,0,1]",0,42,42,42,1,0,0,,,0,FALSE,2.9151,,,,,,,,,,,,,,,,,,,,,,,,,,,,,,,
,5aa5b170f6dfdd0001eafbe2,627c698ffff3486bf036c16e,2022-05-12_03h57.47.818,classification_task,2021.2.3,Win32,60.0276127,627c6715c52fd12f31907bcf,,,,,,,,,,,,,,,,,,,,,,,a,1,"[""0.288"",""0.475"",""0.902"",""0.436""]","[1,1,1,0]",0,43,43,43,1,0,0,,,0,FALSE,5.4152,,,,,,,,,,,,,,,,,,,,,,,,,,,,,,,
,5aa5b170f6dfdd0001eafbe2,627c698ffff3486bf036c16e,2022-05-12_03h57.47.818,classification_task,2021.2.3,Win32,60.0276127,627c6715c52fd12f31907bcf,,,,,,,,,,,,,,,,,,,,,,,l,1,"[""0.051"",""0.206"",""0.428"",""0.723""]","[1,1,0,1]",0,44,44,44,1,1,0,,,0,FALSE,1.4877,,,,,,,,,,,,,,,,,,,,,,,,,,,,,,,
,5aa5b170f6dfdd0001eafbe2,627c698ffff3486bf036c16e,2022-05-12_03h57.47.818,classification_task,2021.2.3,Win32,60.0276127,627c6715c52fd12f31907bcf,,,,,,,,,,,,,,,,,,,,,,,a,1,"[""0.393"",""0.342"",""0.590"",""0.936""]","[0,1,1,1]",0,45,45,45,1,0,1,,,0,FALSE,2.0976,,,,,,,,,,,,,,,,,,,,,,,,,,,,,,,
,5aa5b170f6dfdd0001eafbe2,627c698ffff3486bf036c16e,2022-05-12_03h57.47.818,classification_task,2021.2.3,Win32,60.0276127,627c6715c52fd12f31907bcf,,,,,,,,,,,,,,,,,,,,,,,a,0,"[""0.403"",""0.248"",""0.528"",""0.835""]","[0,1,1,1]",0,46,46,46,1,1,1,,,0,FALSE,3.7674,,,,,,,,,,,,,,,,,,,,,,,,,,,,,,,
,5aa5b170f6dfdd0001eafbe2,627c698ffff3486bf036c16e,2022-05-12_03h57.47.818,classification_task,2021.2.3,Win32,60.0276127,627c6715c52fd12f31907bcf,,,,,,,,,,,,,,,,,,,,,,,a,0,"[""0.117"",""0.248"",""0.528"",""0.406""]","[1,1,1,0]",0,47,47,47,1,1,1,,,0,FALSE,1.4574,,,,,,,,,,,,,,,,,,,,,,,,,,,,,,,
,5aa5b170f6dfdd0001eafbe2,627c698ffff3486bf036c16e,2022-05-12_03h57.47.818,classification_task,2021.2.3,Win32,60.0276127,627c6715c52fd12f31907bcf,,,,,,,,,,,,,,,,,,,,,,,l,1,"[""0.117"",""0.248"",""0.528"",""0.436""]","[1,1,1,0]",0,48,48,48,1,1,1,,,0,FALSE,1.2005,,,,,,,,,,,,,,,,,,,,,,,,,,,,,,,
,5aa5b170f6dfdd0001eafbe2,627c698ffff3486bf036c16e,2022-05-12_03h57.47.818,classification_task,2021.2.3,Win32,60.0276127,627c6715c52fd12f31907bcf,,,,,,,,,,,,,,,,,,,,,,,a,1,"[""0.169"",""0.342"",""0.762"",""0.936""]","[1,1,0,1]",0,49,49,49,1,0,1,,,0,FALSE,1.4176,,,,,,,,,,,,,,,,,,,,,,,,,,,,,,,
,5aa5b170f6dfdd0001eafbe2,627c698ffff3486bf036c16e,2022-05-12_03h57.47.818,classification_task,2021.2.3,Win32,60.0276127,627c6715c52fd12f31907bcf,,,,,,,,,,,,,,,,,,,,,,,l,1,"[""0.765"",""0.206"",""0.626"",""0.723""]","[0,1,1,1]",0,50,50,50,1,1,0,,,0,FALSE,1.6496,,,,,,,,,,,,,,,,,,,,,,,,,,,,,,,
,5aa5b170f6dfdd0001eafbe2,627c698ffff3486bf036c16e,2022-05-12_03h57.47.818,classification_task,2021.2.3,Win32,60.0276127,627c6715c52fd12f31907bcf,,,,,,,,,,,,,,,,,,,,,,,l,0,"[""0.404"",""0.475"",""0.902"",""0.971""]","[0,1,1,1]",0,51,51,51,1,0,0,,,0,FALSE,2.582,,,,,,,,,,,,,,,,,,,,,,,,,,,,,,,
,5aa5b170f6dfdd0001eafbe2,627c698ffff3486bf036c16e,2022-05-12_03h57.47.818,classification_task,2021.2.3,Win32,60.0276127,627c6715c52fd12f31907bcf,,,,,,,,,,,,,,,,,,,,,,,l,1,"[""0.051"",""0.762"",""0.626"",""0.723""]","[1,0,1,1]",0,52,52,52,1,1,0,,,0,FALSE,1.9165,,,,,,,,,,,,,,,,,,,,,,,,,,,,,,,
,5aa5b170f6dfdd0001eafbe2,627c698ffff3486bf036c16e,2022-05-12_03h57.47.818,classification_task,2021.2.3,Win32,60.0276127,627c6715c52fd12f31907bcf,,,,,,,,,,,,,,,,,,,,,,,a,0,"[""0.117"",""0.403"",""0.528"",""0.835""]","[1,0,1,1]",0,53,53,53,1,1,1,,,0,FALSE,1.4876,,,,,,,,,,,,,,,,,,,,,,,,,,,,,,,
,5aa5b170f6dfdd0001eafbe2,627c698ffff3486bf036c16e,2022-05-12_03h57.47.818,classification_task,2021.2.3,Win32,60.0276127,627c6715c52fd12f31907bcf,,,,,,,,,,,,,,,,,,,,,,,l,1,"[""0.051"",""0.206"",""0.626"",""0.426""]","[1,1,1,0]",0,54,54,54,1,1,0,,,0,FALSE,1.1675,,,,,,,,,,,,,,,,,,,,,,,,,,,,,,,
,5aa5b170f6dfdd0001eafbe2,627c698ffff3486bf036c16e,2022-05-12_03h57.47.818,classification_task,2021.2.3,Win32,60.0276127,627c6715c52fd12f31907bcf,,,,,,,,,,,,,,,,,,,,,,,l,0,"[""0.429"",""0.342"",""0.590"",""0.936""]","[0,1,1,1]",0,55,55,55,1,0,1,,,0,FALSE,2.7336,,,,,,,,,,,,,,,,,,,,,,,,,,,,,,,
,5aa5b170f6dfdd0001eafbe2,627c698ffff3486bf036c16e,2022-05-12_03h57.47.818,classification_task,2021.2.3,Win32,60.0276127,627c6715c52fd12f31907bcf,,,,,,,,,,,,,,,,,,,,,,,a,1,"[""0.288"",""0.475"",""0.902"",""0.438""]","[1,1,1,0]",0,56,56,56,1,0,0,,,0,FALSE,1.7833,,,,,,,,,,,,,,,,,,,,,,,,,,,,,,,
,5aa5b170f6dfdd0001eafbe2,627c698ffff3486bf036c16e,2022-05-12_03h57.47.818,classification_task,2021.2.3,Win32,60.0276127,627c6715c52fd12f31907bcf,,,,,,,,,,,,,,,,,,,,,,,a,0,"[""0.403"",""0.248"",""0.528"",""0.835""]","[0,1,1,1]",0,57,57,57,1,1,1,,,0,FALSE,4.0735,,,,,,,,,,,,,,,,,,,,,,,,,,,,,,,
,5aa5b170f6dfdd0001eafbe2,627c698ffff3486bf036c16e,2022-05-12_03h57.47.818,classification_task,2021.2.3,Win32,60.0276127,627c6715c52fd12f31907bcf,,,,,,,,,,,,,,,,,,,,,,,l,0,"[""0.288"",""0.428"",""0.902"",""0.971""]","[1,0,1,1]",0,58,58,58,1,0,0,,,0,FALSE,1.3009,,,,,,,,,,,,,,,,,,,,,,,,,,,,,,,
,5aa5b170f6dfdd0001eafbe2,627c698ffff3486bf036c16e,2022-05-12_03h57.47.818,classification_task,2021.2.3,Win32,60.0276127,627c6715c52fd12f31907bcf,,,,,,,,,,,,,,,,,,,,,,,a,0,"[""0.117"",""0.248"",""0.404"",""0.835""]","[1,1,0,1]",0,59,59,59,1,1,1,,,0,FALSE,1.1382,,,,,,,,,,,,,,,,,,,,,,,,,,,,,,,
,5aa5b170f6dfdd0001eafbe2,627c698ffff3486bf036c16e,2022-05-12_03h57.47.818,classification_task,2021.2.3,Win32,60.0276127,627c6715c52fd12f31907bcf,,,,,,,,,,,,,,,,,,,,,,,a,1,"[""0.169"",""0.406"",""0.590"",""0.936""]","[1,0,1,1]",0,60,60,60,1,0,1,,,0,FALSE,1.4674,,,,,,,,,,,,,,,,,,,,,,,,,,,,,,,
,5aa5b170f6dfdd0001eafbe2,627c698ffff3486bf036c16e,2022-05-12_03h57.47.818,classification_task,2021.2.3,Win32,60.0276127,627c6715c52fd12f31907bcf,,,,,,,,,,,,,,,,,,,,,,,l,0,"[""0.288"",""0.475"",""0.404"",""0.971""]","[1,1,0,1]",0,61,61,61,1,0,0,,,0,FALSE,4.6844,,,,,,,,,,,,,,,,,,,,,,,,,,,,,,,
,5aa5b170f6dfdd0001eafbe2,627c698ffff3486bf036c16e,2022-05-12_03h57.47.818,classification_task,2021.2.3,Win32,60.0276127,627c6715c52fd12f31907bcf,,,,,,,,,,,,,,,,,,,,,,,l,0,"[""0.169"",""0.342"",""0.590"",""0.762""]","[1,1,1,0]",0,62,62,62,1,0,1,,,0,FALSE,1.5324,,,,,,,,,,,,,,,,,,,,,,,,,,,,,,,
,5aa5b170f6dfdd0001eafbe2,627c698ffff3486bf036c16e,2022-05-12_03h57.47.818,classification_task,2021.2.3,Win32,60.0276127,627c6715c52fd12f31907bcf,,,,,,,,,,,,,,,,,,,,,,,l,1,"[""0.051"",""0.206"",""0.404"",""0.723""]","[1,1,0,1]",0,63,63,63,1,1,0,,,0,FALSE,1.9488,,,,,,,,,,,,,,,,,,,,,,,,,,,,,,,
,5aa5b170f6dfdd0001eafbe2,627c698ffff3486bf036c16e,2022-05-12_03h57.47.818,classification_task,2021.2.3,Win32,60.0276127,627c6715c52fd12f31907bcf,,,,,,,,,,,,,,,,,,,,,,,,,,,,,,,,,,,,,,,0, ,,0,6.567705271,232.1202,0,2,2,2,1,2,3,,,,,,,,,,,,,,,,,,
,5aa5b170f6dfdd0001eafbe2,627c698ffff3486bf036c16e,2022-05-12_03h57.47.818,classification_task,2021.2.3,Win32,60.0276127,627c6715c52fd12f31907bcf,,,,,,,,,,,,,,,,,,,,,,,,,,,,,,,,,,,,,,,1,  ,,0,10,235.6233,0,2,2,2,1,2,3,,,,,,,,,,,,,,,,,,
,5aa5b170f6dfdd0001eafbe2,627c698ffff3486bf036c16e,2022-05-12_03h57.47.818,classification_task,2021.2.3,Win32,60.0276127,627c6715c52fd12f31907bcf,,,,,,,,,,,,,,,,,,,,,,,,,,,,,,,,,,,,,,,2,  ,,0,10,237.0367,0,2,2,2,1,2,3,,,,,,,,,,,,,,,,,,
,5aa5b170f6dfdd0001eafbe2,627c698ffff3486bf036c16e,2022-05-12_03h57.47.818,classification_task,2021.2.3,Win32,60.0276127,627c6715c52fd12f31907bcf,,,,,,,,,,,,,,,,,,,,,,,,,,,,,,,,,,,,,,,,,,,,,0,2,2,2,1,,3,,,,,,,,,,,,,,,,,,
,5aa5b170f6dfdd0001eafbe2,627c698ffff3486bf036c16e,2022-05-12_03h57.47.818,classification_task,2021.2.3,Win32,60.0276127,627c6715c52fd12f31907bcf,,,,,,,,,,,,,,,,,,,,,,,,,,,,,,,,,,,,,,,,,,,,,,,,,,,,,I believe the aid is a competent performer,,0.7,0,4,1189.5506,0,0,0,0,1,0,,,,,
,5aa5b170f6dfdd0001eafbe2,627c698ffff3486bf036c16e,2022-05-12_03h57.47.818,classification_task,2021.2.3,Win32,60.0276127,627c6715c52fd12f31907bcf,,,,,,,,,,,,,,,,,,,,,,,,,,,,,,,,,,,,,,,,,,,,,,,,,,,,,I trust the aid,,0.7,0,4,1191.7219,0,0,0,0,1,0,,,,,
,5aa5b170f6dfdd0001eafbe2,627c698ffff3486bf036c16e,2022-05-12_03h57.47.818,classification_task,2021.2.3,Win32,60.0276127,627c6715c52fd12f31907bcf,,,,,,,,,,,,,,,,,,,,,,,,,,,,,,,,,,,,,,,,,,,,,,,,,,,,,I have confidence in the advice given by the aid,,0.7,0,4,1192.9039,0,0,0,0,1,0,,,,,
,5aa5b170f6dfdd0001eafbe2,627c698ffff3486bf036c16e,2022-05-12_03h57.47.818,classification_task,2021.2.3,Win32,60.0276127,627c6715c52fd12f31907bcf,,,,,,,,,,,,,,,,,,,,,,,,,,,,,,,,,,,,,,,,,,,,,,,,,,,,,I can depend on the aid,,0.7,0,4,1194.503,0,0,0,0,1,0,,,,,
,5aa5b170f6dfdd0001eafbe2,627c698ffff3486bf036c16e,2022-05-12_03h57.47.818,classification_task,2021.2.3,Win32,60.0276127,627c6715c52fd12f31907bcf,,,,,,,,,,,,,,,,,,,,,,,,,,,,,,,,,,,,,,,,,,,,,,,,,,,,,I can rely on the aid to behave in consistent ways,,0.7,0,4,1197.2438,0,0,0,0,1,0,,,,,
,5aa5b170f6dfdd0001eafbe2,627c698ffff3486bf036c16e,2022-05-12_03h57.47.818,classification_task,2021.2.3,Win32,60.0276127,627c6715c52fd12f31907bcf,,,,,,,,,,,,,,,,,,,,,,,,,,,,,,,,,,,,,,,,,,,,,,,,,,,,,I can rely on the aid to do its best every time I take its advice,,0.7,0,4,1201.1447,0,0,0,0,1,0,,,,,
,5aa5b170f6dfdd0001eafbe2,627c698ffff3486bf036c16e,2022-05-12_03h57.47.818,classification_task,2021.2.3,Win32,60.0276127,627c6715c52fd12f31907bcf,,,,,,,,,,,,,,,,,,,,,,,,,,,,,,,,,,,,,,,,,,,,,,,,,,,,,"On trials you completed with assistance from the aid, how frequently did you think the aid was correct?",,0.7,0,180,,0,0,0,0,1,0,,,,,
,5aa5b170f6dfdd0001eafbe2,627c698ffff3486bf036c16e,2022-05-12_03h57.47.818,classification_task,2021.2.3,Win32,60.0276127,627c6715c52fd12f31907bcf,,,,,,,,,,,,,,,,,,,,,,,,,,,,,,,,,,,,,,,,,,,,,,,,,,,,,"On trials you completed without the aid, how frequently did you think you were correct?",,0.7,0,30,,0,0,0,0,1,0,,,,,
,5aa5b170f6dfdd0001eafbe2,627c698ffff3486bf036c16e,2022-05-12_03h57.47.818,classification_task,2021.2.3,Win32,60.0276127,627c6715c52fd12f31907bcf,,,,,,,,,,,,,,,,,,,,,,,,,,,,,,,,,,,,,,,,,,,,,,,,,,,,,,,,,,,0,0,0,0,1,,,,,,
,5aa5b170f6dfdd0001eafbe2,627c698ffff3486bf036c16e,2022-05-12_03h57.47.818,classification_task,2021.2.3,Win32,60.0276127,627c6715c52fd12f31907bcf,,,,,,,,,,,,,,,,,,,,,,,,,,,,,,,,,,,,,,,,,,,,,,,,,,,,,,,,,,,,,,,,,return,14.5782,1240.5885,,
,5aa5b170f6dfdd0001eafbe2,627c698ffff3486bf036c16e,2022-05-12_03h57.47.818,classification_task,2021.2.3,Win32,60.0276127,627c6715c52fd12f31907bcf,,,,,,,,,,,,,,,,,,,,,,,,,,,,,,,,,,,,,,,,,,,,,,,,,,,,,,,,,,,,,,,,,,,,"Mozilla/5.0 (Windows NT 10.0; Win64; x64) AppleWebKit/537.36 (KHTML, like Gecko) Chrome/100.0.4896.127 Safari/537.36 OPR/86.0.4363.50",
,5aa5b170f6dfdd0001eafbe2,627c698ffff3486bf036c16e,2022-05-12_03h57.47.818,classification_task,2021.2.3,Win32,60.0276127,627c6715c52fd12f31907bcf,,,,,,,,,,,,,,,,,,,,,,,,,,,,,,,,,,,,,,,,,,,,,,,,,,,,,,,,,,,,,,,,,,,,,FADING
