usingWebGL,participant,session,date,expName,psychopyVersion,OS,frameRate,PROLIFIC_PID,STUDY_ID,SESSION_ID,signatures_friend,signatures_foe,band_ranges_top,band_ranges_bottom,formitemText,formtype,formundefined,formitemWidth,formindex,formresponse,formrt,key_resp_2.keys,key_resp_2.rt,tute_resp.keys,tute_resp.rt,tutorial.thisRepN,tutorial.thisTrialN,tutorial.thisN,tutorial.thisIndex,tutorial.ran,key_resp_4.keys,key_resp_4.rt,key_resp.keys,key_resp.corr,key_resp.rt,lines_presented,is_signal_presented,trials.thisRepN,trials.thisTrialN,trials.thisN,trials.thisIndex,trials.ran,vessel,active_band,lines,is_signal,supported_pos,catch_trial,debrief_formindex,debrief_formitemText,debrief_formtype,debrief_formitemWidth,debrief_formresponse,debrief_formrt,phases.thisRepN,phases.thisTrialN,phases.thisN,phases.thisIndex,phases.ran,phases.order,phase,key_resp_3.keys,trustitemText,trusttype,trustitemWidth,trustindex,trustresponse,trustrt,support_status.thisRepN,support_status.thisTrialN,support_status.thisN,support_status.thisIndex,support_status.ran,support_status.order,key_resp_5.keys,key_resp_5.rt,globalClockTime,userAgent
TRUE,5aae3c75fb22320001baa633,001,2022-04-28_22h40.39.789,classification_task,2021.2.3,Linux x86_64,60.0060006,5aae3c75fb22320001baa633,626b377229c10585ec392f89,626b39c6ff011d8156fe8f04,,,,,,,,,,,,,,,,,,,,,,,,,,,,,,,,,,,,,,,,,,,,,,,,,,,,,,,,,,,,,,,,,,,,
,5aae3c75fb22320001baa633,001,2022-04-28_22h40.39.789,classification_task,2021.2.3,Linux x86_64,60.0060006,5aae3c75fb22320001baa633,626b377229c10585ec392f89,626b39c6ff011d8156fe8f04,"[[""0.212"",""0.357"",""0.682"",""0.921""],[""0.297"",""0.514"",""0.869"",""0.960""]]","[[""0.131"",""0.415"",""0.475"",""0.820""],[""0.037"",""0.093"",""0.568"",""0.739""]]","[1,10]","[100,1000]",Video game experience,,,0.7,0,,,,,,,,,,,,,,,,,,,,,,,,,,,,,,,,,,,,,,,,,,,,,,,,,,,,,,,,,,,
,5aae3c75fb22320001baa633,001,2022-04-28_22h40.39.789,classification_task,2021.2.3,Linux x86_64,60.0060006,5aae3c75fb22320001baa633,626b377229c10585ec392f89,626b39c6ff011d8156fe8f04,,,,,Approximately how many hours did you spend playing video games in the last week?,,,0.7,0,7,,,,,,,,,,,,,,,,,,,,,,,,,,,,,,,,,,,,,,,,,,,,,,,,,,,,,,,,,,
,5aae3c75fb22320001baa633,001,2022-04-28_22h40.39.789,classification_task,2021.2.3,Linux x86_64,60.0060006,5aae3c75fb22320001baa633,626b377229c10585ec392f89,626b39c6ff011d8156fe8f04,,,,,"Which game did you play the most this year? (Enter ""None"" if you didn't play any)",,,0.7,0,Genshin Impact,,,,,,,,,,,,,,,,,,,,,,,,,,,,,,,,,,,,,,,,,,,,,,,,,,,,,,,,,,
,5aae3c75fb22320001baa633,001,2022-04-28_22h40.39.789,classification_task,2021.2.3,Linux x86_64,60.0060006,5aae3c75fb22320001baa633,626b377229c10585ec392f89,626b39c6ff011d8156fe8f04,,,,,Visual perception,,,0.7,0,,,,,,,,,,,,,,,,,,,,,,,,,,,,,,,,,,,,,,,,,,,,,,,,,,,,,,,,,,,
,5aae3c75fb22320001baa633,001,2022-04-28_22h40.39.789,classification_task,2021.2.3,Linux x86_64,60.0060006,5aae3c75fb22320001baa633,626b377229c10585ec392f89,626b39c6ff011d8156fe8f04,,,,,Do you have any form of color blindness?,,,0.7,0,No,20.2566,,,,,,,,,,,,,,,,,,,,,,,,,,,,,,,,,,,,,,,,,,,,,,,,,,,,,,,,,
,5aae3c75fb22320001baa633,001,2022-04-28_22h40.39.789,classification_task,2021.2.3,Linux x86_64,60.0060006,5aae3c75fb22320001baa633,626b377229c10585ec392f89,626b39c6ff011d8156fe8f04,,,,,Do you use software to change the colour temperature of your screen (e.g. f.lux)?,,,0.7,0,Yes,23.4738,,,,,,,,,,,,,,,,,,,,,,,,,,,,,,,,,,,,,,,,,,,,,,,,,,,,,,,,,
,5aae3c75fb22320001baa633,001,2022-04-28_22h40.39.789,classification_task,2021.2.3,Linux x86_64,60.0060006,5aae3c75fb22320001baa633,626b377229c10585ec392f89,626b39c6ff011d8156fe8f04,,,,,,,,,,,,space,64.8202,space,3.6795,0,0,0,0,1,,,,,,,,,,,,,,,,,,,,,,,,,,,,,,,,,,,,,,,,,,,,,,,,
,5aae3c75fb22320001baa633,001,2022-04-28_22h40.39.789,classification_task,2021.2.3,Linux x86_64,60.0060006,5aae3c75fb22320001baa633,626b377229c10585ec392f89,626b39c6ff011d8156fe8f04,,,,,,,,,,,,,,space,3.8476,1,0,1,0,1,,,,,,,,,,,,,,,,,,,,,,,,,,,,,,,,,,,,,,,,,,,,,,,,
,5aae3c75fb22320001baa633,001,2022-04-28_22h40.39.789,classification_task,2021.2.3,Linux x86_64,60.0060006,5aae3c75fb22320001baa633,626b377229c10585ec392f89,626b39c6ff011d8156fe8f04,,,,,,,,,,,,,,space,32.9984,2,0,2,0,1,,,,,,,,,,,,,,,,,,,,,,,,,,,,,,,,,,,,,,,,,,,,,,,,
,5aae3c75fb22320001baa633,001,2022-04-28_22h40.39.789,classification_task,2021.2.3,Linux x86_64,60.0060006,5aae3c75fb22320001baa633,626b377229c10585ec392f89,626b39c6ff011d8156fe8f04,,,,,,,,,,,,,,space,10.2318,3,0,3,0,1,,,,,,,,,,,,,,,,,,,,,,,,,,,,,,,,,,,,,,,,,,,,,,,,
,5aae3c75fb22320001baa633,001,2022-04-28_22h40.39.789,classification_task,2021.2.3,Linux x86_64,60.0060006,5aae3c75fb22320001baa633,626b377229c10585ec392f89,626b39c6ff011d8156fe8f04,,,,,,,,,,,,,,space,8.399,4,0,4,0,1,,,,,,,,,,,,,,,,,,,,,,,,,,,,,,,,,,,,,,,,,,,,,,,,
,5aae3c75fb22320001baa633,001,2022-04-28_22h40.39.789,classification_task,2021.2.3,Linux x86_64,60.0060006,5aae3c75fb22320001baa633,626b377229c10585ec392f89,626b39c6ff011d8156fe8f04,,,,,,,,,,,,,,,,,,,,,space,7.9508,a,1,8.9639,"[""0.297"",""0.168"",""0.869"",""0.960""]","[1,0,1,1]",0,0,0,0,1,0,1,,,1,FALSE,,,,,,,,,,,,,,,,,,,,,,,,,,,,,,
,5aae3c75fb22320001baa633,001,2022-04-28_22h40.39.789,classification_task,2021.2.3,Linux x86_64,60.0060006,5aae3c75fb22320001baa633,626b377229c10585ec392f89,626b39c6ff011d8156fe8f04,,,,,,,,,,,,,,,,,,,,,,,l,1,6.5128,"[""0.131"",""0.415"",""0.176"",""0.820""]","[1,1,0,1]",0,1,1,1,1,1,0,,,1,FALSE,,,,,,,,,,,,,,,,,,,,,,,,,,,,,,
,5aae3c75fb22320001baa633,001,2022-04-28_22h40.39.789,classification_task,2021.2.3,Linux x86_64,60.0060006,5aae3c75fb22320001baa633,626b377229c10585ec392f89,626b39c6ff011d8156fe8f04,,,,,,,,,,,,,,,,,,,,,,,a,1,8.0357,"[""0.297"",""0.514"",""0.869"",""0.251""]","[1,1,1,0]",0,2,2,2,1,0,1,,,1,FALSE,,,,,,,,,,,,,,,,,,,,,,,,,,,,,,
,5aae3c75fb22320001baa633,001,2022-04-28_22h40.39.789,classification_task,2021.2.3,Linux x86_64,60.0060006,5aae3c75fb22320001baa633,626b377229c10585ec392f89,626b39c6ff011d8156fe8f04,,,,,,,,,,,,,,,,,,,,,,,a,0,2.6719,"[""0.037"",""0.093"",""0.170"",""0.739""]","[1,1,0,1]",0,3,3,3,1,1,1,,,1,FALSE,,,,,,,,,,,,,,,,,,,,,,,,,,,,,,
,5aae3c75fb22320001baa633,001,2022-04-28_22h40.39.789,classification_task,2021.2.3,Linux x86_64,60.0060006,5aae3c75fb22320001baa633,626b377229c10585ec392f89,626b39c6ff011d8156fe8f04,,,,,,,,,,,,,,,,,,,,,,,a,1,3.6667,"[""0.297"",""0.514"",""0.620"",""0.960""]","[1,1,0,1]",0,4,4,4,1,0,1,,,1,FALSE,,,,,,,,,,,,,,,,,,,,,,,,,,,,,,
,5aae3c75fb22320001baa633,001,2022-04-28_22h40.39.789,classification_task,2021.2.3,Linux x86_64,60.0060006,5aae3c75fb22320001baa633,626b377229c10585ec392f89,626b39c6ff011d8156fe8f04,,,,,,,,,,,,,,,,,,,,,,,a,1,6.6201,"[""0.212"",""0.357"",""0.774"",""0.921""]","[1,1,0,1]",0,5,5,5,1,0,0,,,1,FALSE,,,,,,,,,,,,,,,,,,,,,,,,,,,,,,
,5aae3c75fb22320001baa633,001,2022-04-28_22h40.39.789,classification_task,2021.2.3,Linux x86_64,60.0060006,5aae3c75fb22320001baa633,626b377229c10585ec392f89,626b39c6ff011d8156fe8f04,,,,,,,,,,,,,,,,,,,,,,,l,1,4.6061,"[""0.131"",""0.603"",""0.475"",""0.820""]","[1,0,1,1]",0,6,6,6,1,1,0,,,1,FALSE,,,,,,,,,,,,,,,,,,,,,,,,,,,,,,
,5aae3c75fb22320001baa633,001,2022-04-28_22h40.39.789,classification_task,2021.2.3,Linux x86_64,60.0060006,5aae3c75fb22320001baa633,626b377229c10585ec392f89,626b39c6ff011d8156fe8f04,,,,,,,,,,,,,,,,,,,,,,,l,1,2.7516,"[""0.131"",""0.415"",""0.475"",""0.249""]","[1,1,1,0]",0,7,7,7,1,1,0,,,1,FALSE,,,,,,,,,,,,,,,,,,,,,,,,,,,,,,
,5aae3c75fb22320001baa633,001,2022-04-28_22h40.39.789,classification_task,2021.2.3,Linux x86_64,60.0060006,5aae3c75fb22320001baa633,626b377229c10585ec392f89,626b39c6ff011d8156fe8f04,,,,,,,,,,,,,,,,,,,,,,,l,1,4.1884,"[""0.620"",""0.415"",""0.475"",""0.820""]","[0,1,1,1]",0,8,8,8,1,1,0,,,1,FALSE,,,,,,,,,,,,,,,,,,,,,,,,,,,,,,
,5aae3c75fb22320001baa633,001,2022-04-28_22h40.39.789,classification_task,2021.2.3,Linux x86_64,60.0060006,5aae3c75fb22320001baa633,626b377229c10585ec392f89,626b39c6ff011d8156fe8f04,,,,,,,,,,,,,,,,,,,,,,,l,1,2.9159,"[""0.037"",""0.093"",""0.568"",""0.620""]","[1,1,1,0]",0,9,9,9,1,1,1,,,1,FALSE,,,,,,,,,,,,,,,,,,,,,,,,,,,,,,
,5aae3c75fb22320001baa633,001,2022-04-28_22h40.39.789,classification_task,2021.2.3,Linux x86_64,60.0060006,5aae3c75fb22320001baa633,626b377229c10585ec392f89,626b39c6ff011d8156fe8f04,,,,,,,,,,,,,,,,,,,,,,,a,1,6.7758,"[""0.251"",""0.514"",""0.869"",""0.960""]","[0,1,1,1]",0,10,10,10,1,0,1,,,1,FALSE,,,,,,,,,,,,,,,,,,,,,,,,,,,,,,
,5aae3c75fb22320001baa633,001,2022-04-28_22h40.39.789,classification_task,2021.2.3,Linux x86_64,60.0060006,5aae3c75fb22320001baa633,626b377229c10585ec392f89,626b39c6ff011d8156fe8f04,,,,,,,,,,,,,,,,,,,,,,,l,1,5.1531,"[""0.037"",""0.170"",""0.568"",""0.739""]","[1,0,1,1]",0,11,11,11,1,1,1,,,1,FALSE,,,,,,,,,,,,,,,,,,,,,,,,,,,,,,
,5aae3c75fb22320001baa633,001,2022-04-28_22h40.39.789,classification_task,2021.2.3,Linux x86_64,60.0060006,5aae3c75fb22320001baa633,626b377229c10585ec392f89,626b39c6ff011d8156fe8f04,,,,,,,,,,,,,,,,,,,,,,,a,1,3.0501,"[""0.212"",""0.357"",""0.682"",""0.774""]","[1,1,1,0]",0,12,12,12,1,0,0,,,1,FALSE,,,,,,,,,,,,,,,,,,,,,,,,,,,,,,
,5aae3c75fb22320001baa633,001,2022-04-28_22h40.39.789,classification_task,2021.2.3,Linux x86_64,60.0060006,5aae3c75fb22320001baa633,626b377229c10585ec392f89,626b39c6ff011d8156fe8f04,,,,,,,,,,,,,,,,,,,,,,,a,1,2.0373,"[""0.212"",""0.620"",""0.682"",""0.921""]","[1,0,1,1]",0,13,13,13,1,0,0,,,1,FALSE,,,,,,,,,,,,,,,,,,,,,,,,,,,,,,
,5aae3c75fb22320001baa633,001,2022-04-28_22h40.39.789,classification_task,2021.2.3,Linux x86_64,60.0060006,5aae3c75fb22320001baa633,626b377229c10585ec392f89,626b39c6ff011d8156fe8f04,,,,,,,,,,,,,,,,,,,,,,,l,1,5.0953,"[""0.620"",""0.093"",""0.568"",""0.739""]","[0,1,1,1]",0,14,14,14,1,1,1,,,1,FALSE,,,,,,,,,,,,,,,,,,,,,,,,,,,,,,
,5aae3c75fb22320001baa633,001,2022-04-28_22h40.39.789,classification_task,2021.2.3,Linux x86_64,60.0060006,5aae3c75fb22320001baa633,626b377229c10585ec392f89,626b39c6ff011d8156fe8f04,,,,,,,,,,,,,,,,,,,,,,,a,1,5.2345,"[""0.624"",""0.357"",""0.682"",""0.921""]","[0,1,1,1]",0,15,15,15,1,0,0,,,1,FALSE,,,,,,,,,,,,,,,,,,,,,,,,,,,,,,
,5aae3c75fb22320001baa633,001,2022-04-28_22h40.39.789,classification_task,2021.2.3,Linux x86_64,60.0060006,5aae3c75fb22320001baa633,626b377229c10585ec392f89,626b39c6ff011d8156fe8f04,,,,,,,,,,,,,,,,,,,,,,,l,1,8.288,"[""0.131"",""0.415"",""0.168"",""0.820""]","[1,1,0,1]",0,16,16,16,1,1,0,,,1,FALSE,,,,,,,,,,,,,,,,,,,,,,,,,,,,,,
,5aae3c75fb22320001baa633,001,2022-04-28_22h40.39.789,classification_task,2021.2.3,Linux x86_64,60.0060006,5aae3c75fb22320001baa633,626b377229c10585ec392f89,626b39c6ff011d8156fe8f04,,,,,,,,,,,,,,,,,,,,,,,a,1,8.7055,"[""0.212"",""0.357"",""0.682"",""0.168""]","[1,1,1,0]",0,17,17,17,1,0,0,,,1,FALSE,,,,,,,,,,,,,,,,,,,,,,,,,,,,,,
,5aae3c75fb22320001baa633,001,2022-04-28_22h40.39.789,classification_task,2021.2.3,Linux x86_64,60.0060006,5aae3c75fb22320001baa633,626b377229c10585ec392f89,626b39c6ff011d8156fe8f04,,,,,,,,,,,,,,,,,,,,,,,a,1,3.1417,"[""0.212"",""0.357"",""0.251"",""0.921""]","[1,1,0,1]",0,18,18,18,1,0,0,,,1,FALSE,,,,,,,,,,,,,,,,,,,,,,,,,,,,,,
,5aae3c75fb22320001baa633,001,2022-04-28_22h40.39.789,classification_task,2021.2.3,Linux x86_64,60.0060006,5aae3c75fb22320001baa633,626b377229c10585ec392f89,626b39c6ff011d8156fe8f04,,,,,,,,,,,,,,,,,,,,,,,l,1,2.1019,"[""0.037"",""0.093"",""0.568"",""0.176""]","[1,1,1,0]",0,19,19,19,1,1,1,,,1,FALSE,,,,,,,,,,,,,,,,,,,,,,,,,,,,,,
,5aae3c75fb22320001baa633,001,2022-04-28_22h40.39.789,classification_task,2021.2.3,Linux x86_64,60.0060006,5aae3c75fb22320001baa633,626b377229c10585ec392f89,626b39c6ff011d8156fe8f04,,,,,,,,,,,,,,,,,,,,,,,a,1,4.9466,"[""0.633"",""0.357"",""0.682"",""0.921""]","[0,1,1,1]",0,20,20,20,1,0,0,,,1,FALSE,,,,,,,,,,,,,,,,,,,,,,,,,,,,,,
,5aae3c75fb22320001baa633,001,2022-04-28_22h40.39.789,classification_task,2021.2.3,Linux x86_64,60.0060006,5aae3c75fb22320001baa633,626b377229c10585ec392f89,626b39c6ff011d8156fe8f04,,,,,,,,,,,,,,,,,,,,,,,a,1,3.1968,"[""0.297"",""0.251"",""0.869"",""0.960""]","[1,0,1,1]",0,21,21,21,1,0,1,,,1,FALSE,,,,,,,,,,,,,,,,,,,,,,,,,,,,,,
,5aae3c75fb22320001baa633,001,2022-04-28_22h40.39.789,classification_task,2021.2.3,Linux x86_64,60.0060006,5aae3c75fb22320001baa633,626b377229c10585ec392f89,626b39c6ff011d8156fe8f04,,,,,,,,,,,,,,,,,,,,,,,a,1,4.0568,"[""0.297"",""0.514"",""0.647"",""0.960""]","[1,1,0,1]",0,22,22,22,1,0,1,,,1,FALSE,,,,,,,,,,,,,,,,,,,,,,,,,,,,,,
,5aae3c75fb22320001baa633,001,2022-04-28_22h40.39.789,classification_task,2021.2.3,Linux x86_64,60.0060006,5aae3c75fb22320001baa633,626b377229c10585ec392f89,626b39c6ff011d8156fe8f04,,,,,,,,,,,,,,,,,,,,,,,l,1,3.786,"[""0.131"",""0.259"",""0.475"",""0.820""]","[1,0,1,1]",0,23,23,23,1,1,0,,,1,FALSE,,,,,,,,,,,,,,,,,,,,,,,,,,,,,,
,5aae3c75fb22320001baa633,001,2022-04-28_22h40.39.789,classification_task,2021.2.3,Linux x86_64,60.0060006,5aae3c75fb22320001baa633,626b377229c10585ec392f89,626b39c6ff011d8156fe8f04,,,,,,,,,,,,,,,,,,,,,,,l,1,2.765,"[""0.774"",""0.093"",""0.568"",""0.739""]","[0,1,1,1]",0,24,24,24,1,1,1,,,1,FALSE,,,,,,,,,,,,,,,,,,,,,,,,,,,,,,
,5aae3c75fb22320001baa633,001,2022-04-28_22h40.39.789,classification_task,2021.2.3,Linux x86_64,60.0060006,5aae3c75fb22320001baa633,626b377229c10585ec392f89,626b39c6ff011d8156fe8f04,,,,,,,,,,,,,,,,,,,,,,,a,1,4.954,"[""0.624"",""0.514"",""0.869"",""0.960""]","[0,1,1,1]",0,25,25,25,1,0,1,,,1,FALSE,,,,,,,,,,,,,,,,,,,,,,,,,,,,,,
,5aae3c75fb22320001baa633,001,2022-04-28_22h40.39.789,classification_task,2021.2.3,Linux x86_64,60.0060006,5aae3c75fb22320001baa633,626b377229c10585ec392f89,626b39c6ff011d8156fe8f04,,,,,,,,,,,,,,,,,,,,,,,l,1,4.0862,"[""0.131"",""0.415"",""0.475"",""0.168""]","[1,1,1,0]",0,26,26,26,1,1,0,,,1,FALSE,,,,,,,,,,,,,,,,,,,,,,,,,,,,,,
,5aae3c75fb22320001baa633,001,2022-04-28_22h40.39.789,classification_task,2021.2.3,Linux x86_64,60.0060006,5aae3c75fb22320001baa633,626b377229c10585ec392f89,626b39c6ff011d8156fe8f04,,,,,,,,,,,,,,,,,,,,,,,a,0,2.3678,"[""0.037"",""0.093"",""0.647"",""0.739""]","[1,1,0,1]",0,27,27,27,1,1,1,,,1,FALSE,,,,,,,,,,,,,,,,,,,,,,,,,,,,,,
,5aae3c75fb22320001baa633,001,2022-04-28_22h40.39.789,classification_task,2021.2.3,Linux x86_64,60.0060006,5aae3c75fb22320001baa633,626b377229c10585ec392f89,626b39c6ff011d8156fe8f04,,,,,,,,,,,,,,,,,,,,,,,l,1,3.0493,"[""0.037"",""0.776"",""0.568"",""0.739""]","[1,0,1,1]",0,28,28,28,1,1,1,,,1,FALSE,,,,,,,,,,,,,,,,,,,,,,,,,,,,,,
,5aae3c75fb22320001baa633,001,2022-04-28_22h40.39.789,classification_task,2021.2.3,Linux x86_64,60.0060006,5aae3c75fb22320001baa633,626b377229c10585ec392f89,626b39c6ff011d8156fe8f04,,,,,,,,,,,,,,,,,,,,,,,a,1,3.534,"[""0.212"",""0.179"",""0.682"",""0.921""]","[1,0,1,1]",0,29,29,29,1,0,0,,,1,FALSE,,,,,,,,,,,,,,,,,,,,,,,,,,,,,,
,5aae3c75fb22320001baa633,001,2022-04-28_22h40.39.789,classification_task,2021.2.3,Linux x86_64,60.0060006,5aae3c75fb22320001baa633,626b377229c10585ec392f89,626b39c6ff011d8156fe8f04,,,,,,,,,,,,,,,,,,,,,,,,0,,"[""0.297"",""0.514"",""0.869"",""0.168""]","[1,1,1,0]",0,30,30,30,1,0,1,,,1,FALSE,,,,,,,,,,,,,,,,,,,,,,,,,,,,,,
,5aae3c75fb22320001baa633,001,2022-04-28_22h40.39.789,classification_task,2021.2.3,Linux x86_64,60.0060006,5aae3c75fb22320001baa633,626b377229c10585ec392f89,626b39c6ff011d8156fe8f04,,,,,,,,,,,,,,,,,,,,,,,l,1,6.5519,"[""0.170"",""0.415"",""0.475"",""0.820""]","[0,1,1,1]",0,31,31,31,1,1,0,,,1,FALSE,,,,,,,,,,,,,,,,,,,,,,,,,,,,,,
,5aae3c75fb22320001baa633,001,2022-04-28_22h40.39.789,classification_task,2021.2.3,Linux x86_64,60.0060006,5aae3c75fb22320001baa633,626b377229c10585ec392f89,626b39c6ff011d8156fe8f04,,,,,,,,,,,,,,,,,,,,,,,l,0,2.4992,"[""0.297"",""0.514"",""0.869"",""0.251""]","[1,1,1,0]",0,32,32,32,1,0,1,,,1,FALSE,,,,,,,,,,,,,,,,,,,,,,,,,,,,,,
,5aae3c75fb22320001baa633,001,2022-04-28_22h40.39.789,classification_task,2021.2.3,Linux x86_64,60.0060006,5aae3c75fb22320001baa633,626b377229c10585ec392f89,626b39c6ff011d8156fe8f04,,,,,,,,,,,,,,,,,,,,,,,l,1,1.2886,"[""0.131"",""0.168"",""0.475"",""0.820""]","[1,0,1,1]",0,33,33,33,1,1,0,,,1,FALSE,,,,,,,,,,,,,,,,,,,,,,,,,,,,,,
,5aae3c75fb22320001baa633,001,2022-04-28_22h40.39.789,classification_task,2021.2.3,Linux x86_64,60.0060006,5aae3c75fb22320001baa633,626b377229c10585ec392f89,626b39c6ff011d8156fe8f04,,,,,,,,,,,,,,,,,,,,,,,l,0,0.8383,"[""0.647"",""0.357"",""0.682"",""0.921""]","[0,1,1,1]",0,34,34,34,1,0,0,,,1,FALSE,,,,,,,,,,,,,,,,,,,,,,,,,,,,,,
,5aae3c75fb22320001baa633,001,2022-04-28_22h40.39.789,classification_task,2021.2.3,Linux x86_64,60.0060006,5aae3c75fb22320001baa633,626b377229c10585ec392f89,626b39c6ff011d8156fe8f04,,,,,,,,,,,,,,,,,,,,,,,a,1,1.0503,"[""0.212"",""0.603"",""0.682"",""0.921""]","[1,0,1,1]",0,35,35,35,1,0,0,,,1,FALSE,,,,,,,,,,,,,,,,,,,,,,,,,,,,,,
,5aae3c75fb22320001baa633,001,2022-04-28_22h40.39.789,classification_task,2021.2.3,Linux x86_64,60.0060006,5aae3c75fb22320001baa633,626b377229c10585ec392f89,626b39c6ff011d8156fe8f04,,,,,,,,,,,,,,,,,,,,,,,l,1,0.7156,"[""0.037"",""0.093"",""0.568"",""0.259""]","[1,1,1,0]",0,36,36,36,1,1,1,,,1,FALSE,,,,,,,,,,,,,,,,,,,,,,,,,,,,,,
,5aae3c75fb22320001baa633,001,2022-04-28_22h40.39.789,classification_task,2021.2.3,Linux x86_64,60.0060006,5aae3c75fb22320001baa633,626b377229c10585ec392f89,626b39c6ff011d8156fe8f04,,,,,,,,,,,,,,,,,,,,,,,l,1,1.0498,"[""0.037"",""0.093"",""0.176"",""0.739""]","[1,1,0,1]",0,37,37,37,1,1,1,,,1,FALSE,,,,,,,,,,,,,,,,,,,,,,,,,,,,,,
,5aae3c75fb22320001baa633,001,2022-04-28_22h40.39.789,classification_task,2021.2.3,Linux x86_64,60.0060006,5aae3c75fb22320001baa633,626b377229c10585ec392f89,626b39c6ff011d8156fe8f04,,,,,,,,,,,,,,,,,,,,,,,a,1,0.6501,"[""0.212"",""0.357"",""0.647"",""0.921""]","[1,1,0,1]",0,38,38,38,1,0,0,,,1,FALSE,,,,,,,,,,,,,,,,,,,,,,,,,,,,,,
,5aae3c75fb22320001baa633,001,2022-04-28_22h40.39.789,classification_task,2021.2.3,Linux x86_64,60.0060006,5aae3c75fb22320001baa633,626b377229c10585ec392f89,626b39c6ff011d8156fe8f04,,,,,,,,,,,,,,,,,,,,,,,a,1,0.7143,"[""0.297"",""0.514"",""0.620"",""0.960""]","[1,1,0,1]",0,39,39,39,1,0,1,,,1,FALSE,,,,,,,,,,,,,,,,,,,,,,,,,,,,,,
,5aae3c75fb22320001baa633,001,2022-04-28_22h40.39.789,classification_task,2021.2.3,Linux x86_64,60.0060006,5aae3c75fb22320001baa633,626b377229c10585ec392f89,626b39c6ff011d8156fe8f04,,,,,,,,,,,,,,,,,,,,,,,l,0,0.799,"[""0.297"",""0.179"",""0.869"",""0.960""]","[1,0,1,1]",0,40,40,40,1,0,1,,,1,FALSE,,,,,,,,,,,,,,,,,,,,,,,,,,,,,,
,5aae3c75fb22320001baa633,001,2022-04-28_22h40.39.789,classification_task,2021.2.3,Linux x86_64,60.0060006,5aae3c75fb22320001baa633,626b377229c10585ec392f89,626b39c6ff011d8156fe8f04,,,,,,,,,,,,,,,,,,,,,,,a,1,0.7158,"[""0.624"",""0.514"",""0.869"",""0.960""]","[0,1,1,1]",0,41,41,41,1,0,1,,,1,FALSE,,,,,,,,,,,,,,,,,,,,,,,,,,,,,,
,5aae3c75fb22320001baa633,001,2022-04-28_22h40.39.789,classification_task,2021.2.3,Linux x86_64,60.0060006,5aae3c75fb22320001baa633,626b377229c10585ec392f89,626b39c6ff011d8156fe8f04,,,,,,,,,,,,,,,,,,,,,,,a,0,0.6411,"[""0.037"",""0.251"",""0.568"",""0.739""]","[1,0,1,1]",0,42,42,42,1,1,1,,,1,FALSE,,,,,,,,,,,,,,,,,,,,,,,,,,,,,,
,5aae3c75fb22320001baa633,001,2022-04-28_22h40.39.789,classification_task,2021.2.3,Linux x86_64,60.0060006,5aae3c75fb22320001baa633,626b377229c10585ec392f89,626b39c6ff011d8156fe8f04,,,,,,,,,,,,,,,,,,,,,,,l,0,0.6494,"[""0.212"",""0.357"",""0.682"",""0.179""]","[1,1,1,0]",0,43,43,43,1,0,0,,,1,FALSE,,,,,,,,,,,,,,,,,,,,,,,,,,,,,,
,5aae3c75fb22320001baa633,001,2022-04-28_22h40.39.789,classification_task,2021.2.3,Linux x86_64,60.0060006,5aae3c75fb22320001baa633,626b377229c10585ec392f89,626b39c6ff011d8156fe8f04,,,,,,,,,,,,,,,,,,,,,,,l,1,1.1009,"[""0.168"",""0.415"",""0.475"",""0.820""]","[0,1,1,1]",0,44,44,44,1,1,0,,,1,FALSE,,,,,,,,,,,,,,,,,,,,,,,,,,,,,,
,5aae3c75fb22320001baa633,001,2022-04-28_22h40.39.789,classification_task,2021.2.3,Linux x86_64,60.0060006,5aae3c75fb22320001baa633,626b377229c10585ec392f89,626b39c6ff011d8156fe8f04,,,,,,,,,,,,,,,,,,,,,,,a,0,2.9987,"[""0.131"",""0.415"",""0.624"",""0.820""]","[1,1,0,1]",0,45,45,45,1,1,0,,,1,FALSE,,,,,,,,,,,,,,,,,,,,,,,,,,,,,,
,5aae3c75fb22320001baa633,001,2022-04-28_22h40.39.789,classification_task,2021.2.3,Linux x86_64,60.0060006,5aae3c75fb22320001baa633,626b377229c10585ec392f89,626b39c6ff011d8156fe8f04,,,,,,,,,,,,,,,,,,,,,,,a,0,1.0891,"[""0.131"",""0.415"",""0.475"",""0.249""]","[1,1,1,0]",0,46,46,46,1,1,0,,,1,FALSE,,,,,,,,,,,,,,,,,,,,,,,,,,,,,,
,5aae3c75fb22320001baa633,001,2022-04-28_22h40.39.789,classification_task,2021.2.3,Linux x86_64,60.0060006,5aae3c75fb22320001baa633,626b377229c10585ec392f89,626b39c6ff011d8156fe8f04,,,,,,,,,,,,,,,,,,,,,,,l,1,0.7194,"[""0.620"",""0.093"",""0.568"",""0.739""]","[0,1,1,1]",0,47,47,47,1,1,1,,,1,FALSE,,,,,,,,,,,,,,,,,,,,,,,,,,,,,,
,5aae3c75fb22320001baa633,001,2022-04-28_22h40.39.789,classification_task,2021.2.3,Linux x86_64,60.0060006,5aae3c75fb22320001baa633,626b377229c10585ec392f89,626b39c6ff011d8156fe8f04,,,,,,,,,,,,,,,,,,,,,,,a,0,1.1335,"[""0.131"",""0.415"",""0.774"",""0.820""]","[1,1,0,1]",0,48,48,48,1,1,0,,,1,FALSE,,,,,,,,,,,,,,,,,,,,,,,,,,,,,,
,5aae3c75fb22320001baa633,001,2022-04-28_22h40.39.789,classification_task,2021.2.3,Linux x86_64,60.0060006,5aae3c75fb22320001baa633,626b377229c10585ec392f89,626b39c6ff011d8156fe8f04,,,,,,,,,,,,,,,,,,,,,,,l,0,1.5002,"[""0.297"",""0.170"",""0.869"",""0.960""]","[1,0,1,1]",0,49,49,49,1,0,1,,,1,FALSE,,,,,,,,,,,,,,,,,,,,,,,,,,,,,,
,5aae3c75fb22320001baa633,001,2022-04-28_22h40.39.789,classification_task,2021.2.3,Linux x86_64,60.0060006,5aae3c75fb22320001baa633,626b377229c10585ec392f89,626b39c6ff011d8156fe8f04,,,,,,,,,,,,,,,,,,,,,,,l,1,3.0469,"[""0.131"",""0.415"",""0.475"",""0.251""]","[1,1,1,0]",0,50,50,50,1,1,0,,,1,FALSE,,,,,,,,,,,,,,,,,,,,,,,,,,,,,,
,5aae3c75fb22320001baa633,001,2022-04-28_22h40.39.789,classification_task,2021.2.3,Linux x86_64,60.0060006,5aae3c75fb22320001baa633,626b377229c10585ec392f89,626b39c6ff011d8156fe8f04,,,,,,,,,,,,,,,,,,,,,,,a,1,2.187,"[""0.297"",""0.514"",""0.774"",""0.960""]","[1,1,0,1]",0,51,51,51,1,0,1,,,1,FALSE,,,,,,,,,,,,,,,,,,,,,,,,,,,,,,
,5aae3c75fb22320001baa633,001,2022-04-28_22h40.39.789,classification_task,2021.2.3,Linux x86_64,60.0060006,5aae3c75fb22320001baa633,626b377229c10585ec392f89,626b39c6ff011d8156fe8f04,,,,,,,,,,,,,,,,,,,,,,,l,0,0.749,"[""0.212"",""0.776"",""0.682"",""0.921""]","[1,0,1,1]",0,52,52,52,1,0,0,,,1,FALSE,,,,,,,,,,,,,,,,,,,,,,,,,,,,,,
,5aae3c75fb22320001baa633,001,2022-04-28_22h40.39.789,classification_task,2021.2.3,Linux x86_64,60.0060006,5aae3c75fb22320001baa633,626b377229c10585ec392f89,626b39c6ff011d8156fe8f04,,,,,,,,,,,,,,,,,,,,,,,l,1,0.6972,"[""0.603"",""0.093"",""0.568"",""0.739""]","[0,1,1,1]",0,53,53,53,1,1,1,,,1,FALSE,,,,,,,,,,,,,,,,,,,,,,,,,,,,,,
,5aae3c75fb22320001baa633,001,2022-04-28_22h40.39.789,classification_task,2021.2.3,Linux x86_64,60.0060006,5aae3c75fb22320001baa633,626b377229c10585ec392f89,626b39c6ff011d8156fe8f04,,,,,,,,,,,,,,,,,,,,,,,l,1,0.6162,"[""0.131"",""0.603"",""0.475"",""0.820""]","[1,0,1,1]",0,54,54,54,1,1,0,,,1,FALSE,,,,,,,,,,,,,,,,,,,,,,,,,,,,,,
,5aae3c75fb22320001baa633,001,2022-04-28_22h40.39.789,classification_task,2021.2.3,Linux x86_64,60.0060006,5aae3c75fb22320001baa633,626b377229c10585ec392f89,626b39c6ff011d8156fe8f04,,,,,,,,,,,,,,,,,,,,,,,l,1,0.8176,"[""0.037"",""0.179"",""0.568"",""0.739""]","[1,0,1,1]",0,55,55,55,1,1,1,,,1,FALSE,,,,,,,,,,,,,,,,,,,,,,,,,,,,,,
,5aae3c75fb22320001baa633,001,2022-04-28_22h40.39.789,classification_task,2021.2.3,Linux x86_64,60.0060006,5aae3c75fb22320001baa633,626b377229c10585ec392f89,626b39c6ff011d8156fe8f04,,,,,,,,,,,,,,,,,,,,,,,l,0,1.3833,"[""0.212"",""0.357"",""0.682"",""0.647""]","[1,1,1,0]",0,56,56,56,1,0,0,,,1,FALSE,,,,,,,,,,,,,,,,,,,,,,,,,,,,,,
,5aae3c75fb22320001baa633,001,2022-04-28_22h40.39.789,classification_task,2021.2.3,Linux x86_64,60.0060006,5aae3c75fb22320001baa633,626b377229c10585ec392f89,626b39c6ff011d8156fe8f04,,,,,,,,,,,,,,,,,,,,,,,a,0,0.6652,"[""0.037"",""0.093"",""0.568"",""0.168""]","[1,1,1,0]",0,57,57,57,1,1,1,,,1,FALSE,,,,,,,,,,,,,,,,,,,,,,,,,,,,,,
,5aae3c75fb22320001baa633,001,2022-04-28_22h40.39.789,classification_task,2021.2.3,Linux x86_64,60.0060006,5aae3c75fb22320001baa633,626b377229c10585ec392f89,626b39c6ff011d8156fe8f04,,,,,,,,,,,,,,,,,,,,,,,l,1,0.4986,"[""0.603"",""0.415"",""0.475"",""0.820""]","[0,1,1,1]",0,58,58,58,1,1,0,,,1,FALSE,,,,,,,,,,,,,,,,,,,,,,,,,,,,,,
,5aae3c75fb22320001baa633,001,2022-04-28_22h40.39.789,classification_task,2021.2.3,Linux x86_64,60.0060006,5aae3c75fb22320001baa633,626b377229c10585ec392f89,626b39c6ff011d8156fe8f04,,,,,,,,,,,,,,,,,,,,,,,l,0,0.739,"[""0.168"",""0.357"",""0.682"",""0.921""]","[0,1,1,1]",0,59,59,59,1,0,0,,,1,FALSE,,,,,,,,,,,,,,,,,,,,,,,,,,,,,,
,5aae3c75fb22320001baa633,001,2022-04-28_22h40.39.789,classification_task,2021.2.3,Linux x86_64,60.0060006,5aae3c75fb22320001baa633,626b377229c10585ec392f89,626b39c6ff011d8156fe8f04,,,,,,,,,,,,,,,,,,,,,,,a,1,0.5631,"[""0.212"",""0.357"",""0.776"",""0.921""]","[1,1,0,1]",0,60,60,60,1,0,0,,,1,FALSE,,,,,,,,,,,,,,,,,,,,,,,,,,,,,,
,5aae3c75fb22320001baa633,001,2022-04-28_22h40.39.789,classification_task,2021.2.3,Linux x86_64,60.0060006,5aae3c75fb22320001baa633,626b377229c10585ec392f89,626b39c6ff011d8156fe8f04,,,,,,,,,,,,,,,,,,,,,,,a,1,0.7987,"[""0.297"",""0.514"",""0.869"",""0.623""]","[1,1,1,0]",0,61,61,61,1,0,1,,,1,FALSE,,,,,,,,,,,,,,,,,,,,,,,,,,,,,,
,5aae3c75fb22320001baa633,001,2022-04-28_22h40.39.789,classification_task,2021.2.3,Linux x86_64,60.0060006,5aae3c75fb22320001baa633,626b377229c10585ec392f89,626b39c6ff011d8156fe8f04,,,,,,,,,,,,,,,,,,,,,,,a,1,2.5163,"[""0.176"",""0.514"",""0.869"",""0.960""]","[0,1,1,1]",0,62,62,62,1,0,1,,,1,FALSE,,,,,,,,,,,,,,,,,,,,,,,,,,,,,,
,5aae3c75fb22320001baa633,001,2022-04-28_22h40.39.789,classification_task,2021.2.3,Linux x86_64,60.0060006,5aae3c75fb22320001baa633,626b377229c10585ec392f89,626b39c6ff011d8156fe8f04,,,,,,,,,,,,,,,,,,,,,,,l,1,1.2065,"[""0.037"",""0.093"",""0.647"",""0.739""]","[1,1,0,1]",0,63,63,63,1,1,1,,,1,FALSE,,,,,,,,,,,,,,,,,,,,,,,,,,,,,,
,5aae3c75fb22320001baa633,001,2022-04-28_22h40.39.789,classification_task,2021.2.3,Linux x86_64,60.0060006,5aae3c75fb22320001baa633,626b377229c10585ec392f89,626b39c6ff011d8156fe8f04,,,,,,,,,,,,,,,,,,,,,,,,,,,,,,,,,,,,,,,0, ,,0,7.654523866,425.9385,0,0,0,0,1,2,1,,,,,,,,,,,,,,,,,
,5aae3c75fb22320001baa633,001,2022-04-28_22h40.39.789,classification_task,2021.2.3,Linux x86_64,60.0060006,5aae3c75fb22320001baa633,626b377229c10585ec392f89,626b39c6ff011d8156fe8f04,,,,,,,,,,,,,,,,,,,,,,,,,,,,,,,,,,,,,,,1,  ,,0,8.814899101,431.2522,0,0,0,0,1,2,1,,,,,,,,,,,,,,,,,
,5aae3c75fb22320001baa633,001,2022-04-28_22h40.39.789,classification_task,2021.2.3,Linux x86_64,60.0060006,5aae3c75fb22320001baa633,626b377229c10585ec392f89,626b39c6ff011d8156fe8f04,,,,,,,,,,,,,,,,,,,,,,,,,,,,,,,,,,,,,,,2,  ,,0,8.117478504,434.9323,0,0,0,0,1,2,1,,,,,,,,,,,,,,,,,
,5aae3c75fb22320001baa633,001,2022-04-28_22h40.39.789,classification_task,2021.2.3,Linux x86_64,60.0060006,5aae3c75fb22320001baa633,626b377229c10585ec392f89,626b39c6ff011d8156fe8f04,,,,,,,,,,,,,,,,,,,,,,,,,,,,,,,,,,,,,,,,,,,,,0,0,0,0,1,,1,,,,,,,,,,,,,,,,,
,5aae3c75fb22320001baa633,001,2022-04-28_22h40.39.789,classification_task,2021.2.3,Linux x86_64,60.0060006,5aae3c75fb22320001baa633,626b377229c10585ec392f89,626b39c6ff011d8156fe8f04,,,,,,,,,,,,,,,,,,,,,space,7.6156,a,0,2.1106,"[""0.251"",""0.415"",""0.475"",""0.820""]","[0,1,1,1]",0,0,0,0,1,1,0,,,1,FALSE,,,,,,,,,,,,,,,,,,,,,,,,,,,,,,
,5aae3c75fb22320001baa633,001,2022-04-28_22h40.39.789,classification_task,2021.2.3,Linux x86_64,60.0060006,5aae3c75fb22320001baa633,626b377229c10585ec392f89,626b39c6ff011d8156fe8f04,,,,,,,,,,,,,,,,,,,,,,,l,0,2.2868,"[""0.212"",""0.603"",""0.682"",""0.921""]","[1,0,1,1]",0,1,1,1,1,0,0,,,1,FALSE,,,,,,,,,,,,,,,,,,,,,,,,,,,,,,
,5aae3c75fb22320001baa633,001,2022-04-28_22h40.39.789,classification_task,2021.2.3,Linux x86_64,60.0060006,5aae3c75fb22320001baa633,626b377229c10585ec392f89,626b39c6ff011d8156fe8f04,,,,,,,,,,,,,,,,,,,,,,,l,1,0.6705,"[""0.131"",""0.415"",""0.475"",""0.603""]","[1,1,1,0]",0,2,2,2,1,1,0,,,1,FALSE,,,,,,,,,,,,,,,,,,,,,,,,,,,,,,
,5aae3c75fb22320001baa633,001,2022-04-28_22h40.39.789,classification_task,2021.2.3,Linux x86_64,60.0060006,5aae3c75fb22320001baa633,626b377229c10585ec392f89,626b39c6ff011d8156fe8f04,,,,,,,,,,,,,,,,,,,,,,,l,1,4.2624,"[""0.037"",""0.776"",""0.568"",""0.739""]","[1,0,1,1]",0,3,3,3,1,1,1,,,1,FALSE,,,,,,,,,,,,,,,,,,,,,,,,,,,,,,
,5aae3c75fb22320001baa633,001,2022-04-28_22h40.39.789,classification_task,2021.2.3,Linux x86_64,60.0060006,5aae3c75fb22320001baa633,626b377229c10585ec392f89,626b39c6ff011d8156fe8f04,,,,,,,,,,,,,,,,,,,,,,,l,1,0.7263,"[""0.037"",""0.093"",""0.249"",""0.739""]","[1,1,0,1]",0,4,4,4,1,1,1,,,1,FALSE,,,,,,,,,,,,,,,,,,,,,,,,,,,,,,
,5aae3c75fb22320001baa633,001,2022-04-28_22h40.39.789,classification_task,2021.2.3,Linux x86_64,60.0060006,5aae3c75fb22320001baa633,626b377229c10585ec392f89,626b39c6ff011d8156fe8f04,,,,,,,,,,,,,,,,,,,,,,,a,1,0.9296,"[""0.212"",""0.357"",""0.251"",""0.921""]","[1,1,0,1]",0,5,5,5,1,0,0,,,1,FALSE,,,,,,,,,,,,,,,,,,,,,,,,,,,,,,
,5aae3c75fb22320001baa633,001,2022-04-28_22h40.39.789,classification_task,2021.2.3,Linux x86_64,60.0060006,5aae3c75fb22320001baa633,626b377229c10585ec392f89,626b39c6ff011d8156fe8f04,,,,,,,,,,,,,,,,,,,,,,,l,1,0.611,"[""0.249"",""0.093"",""0.568"",""0.739""]","[0,1,1,1]",0,6,6,6,1,1,1,,,1,FALSE,,,,,,,,,,,,,,,,,,,,,,,,,,,,,,
,5aae3c75fb22320001baa633,001,2022-04-28_22h40.39.789,classification_task,2021.2.3,Linux x86_64,60.0060006,5aae3c75fb22320001baa633,626b377229c10585ec392f89,626b39c6ff011d8156fe8f04,,,,,,,,,,,,,,,,,,,,,,,l,1,0.6826,"[""0.131"",""0.415"",""0.774"",""0.820""]","[1,1,0,1]",0,7,7,7,1,1,0,,,1,FALSE,,,,,,,,,,,,,,,,,,,,,,,,,,,,,,
,5aae3c75fb22320001baa633,001,2022-04-28_22h40.39.789,classification_task,2021.2.3,Linux x86_64,60.0060006,5aae3c75fb22320001baa633,626b377229c10585ec392f89,626b39c6ff011d8156fe8f04,,,,,,,,,,,,,,,,,,,,,,,a,1,0.6775,"[""0.297"",""0.603"",""0.869"",""0.960""]","[1,0,1,1]",0,8,8,8,1,0,1,,,1,FALSE,,,,,,,,,,,,,,,,,,,,,,,,,,,,,,
,5aae3c75fb22320001baa633,001,2022-04-28_22h40.39.789,classification_task,2021.2.3,Linux x86_64,60.0060006,5aae3c75fb22320001baa633,626b377229c10585ec392f89,626b39c6ff011d8156fe8f04,,,,,,,,,,,,,,,,,,,,,,,a,0,0.5492,"[""0.131"",""0.176"",""0.475"",""0.820""]","[1,0,1,1]",0,9,9,9,1,1,0,,,1,FALSE,,,,,,,,,,,,,,,,,,,,,,,,,,,,,,
,5aae3c75fb22320001baa633,001,2022-04-28_22h40.39.789,classification_task,2021.2.3,Linux x86_64,60.0060006,5aae3c75fb22320001baa633,626b377229c10585ec392f89,626b39c6ff011d8156fe8f04,,,,,,,,,,,,,,,,,,,,,,,a,1,0.7946,"[""0.297"",""0.514"",""0.633"",""0.960""]","[1,1,0,1]",0,10,10,10,1,0,1,,,1,FALSE,,,,,,,,,,,,,,,,,,,,,,,,,,,,,,
,5aae3c75fb22320001baa633,001,2022-04-28_22h40.39.789,classification_task,2021.2.3,Linux x86_64,60.0060006,5aae3c75fb22320001baa633,626b377229c10585ec392f89,626b39c6ff011d8156fe8f04,,,,,,,,,,,,,,,,,,,,,,,a,1,0.8323,"[""0.297"",""0.514"",""0.869"",""0.647""]","[1,1,1,0]",0,11,11,11,1,0,1,,,1,FALSE,,,,,,,,,,,,,,,,,,,,,,,,,,,,,,
,5aae3c75fb22320001baa633,001,2022-04-28_22h40.39.789,classification_task,2021.2.3,Linux x86_64,60.0060006,5aae3c75fb22320001baa633,626b377229c10585ec392f89,626b39c6ff011d8156fe8f04,,,,,,,,,,,,,,,,,,,,,,,a,1,0.6143,"[""0.647"",""0.514"",""0.869"",""0.960""]","[0,1,1,1]",0,12,12,12,1,0,1,,,1,FALSE,,,,,,,,,,,,,,,,,,,,,,,,,,,,,,
,5aae3c75fb22320001baa633,001,2022-04-28_22h40.39.789,classification_task,2021.2.3,Linux x86_64,60.0060006,5aae3c75fb22320001baa633,626b377229c10585ec392f89,626b39c6ff011d8156fe8f04,,,,,,,,,,,,,,,,,,,,,,,l,0,0.6674,"[""0.179"",""0.357"",""0.682"",""0.921""]","[0,1,1,1]",0,13,13,13,1,0,0,,,1,FALSE,,,,,,,,,,,,,,,,,,,,,,,,,,,,,,
,5aae3c75fb22320001baa633,001,2022-04-28_22h40.39.789,classification_task,2021.2.3,Linux x86_64,60.0060006,5aae3c75fb22320001baa633,626b377229c10585ec392f89,626b39c6ff011d8156fe8f04,,,,,,,,,,,,,,,,,,,,,,,l,1,1.5937,"[""0.037"",""0.093"",""0.568"",""0.647""]","[1,1,1,0]",0,14,14,14,1,1,1,,,1,FALSE,,,,,,,,,,,,,,,,,,,,,,,,,,,,,,
,5aae3c75fb22320001baa633,001,2022-04-28_22h40.39.789,classification_task,2021.2.3,Linux x86_64,60.0060006,5aae3c75fb22320001baa633,626b377229c10585ec392f89,626b39c6ff011d8156fe8f04,,,,,,,,,,,,,,,,,,,,,,,l,0,1.5796,"[""0.212"",""0.357"",""0.682"",""0.251""]","[1,1,1,0]",0,15,15,15,1,0,0,,,1,FALSE,,,,,,,,,,,,,,,,,,,,,,,,,,,,,,
,5aae3c75fb22320001baa633,001,2022-04-28_22h40.39.789,classification_task,2021.2.3,Linux x86_64,60.0060006,5aae3c75fb22320001baa633,626b377229c10585ec392f89,626b39c6ff011d8156fe8f04,,,,,,,,,,,,,,,,,,,,,,,a,0,1.0328,"[""0.647"",""0.415"",""0.475"",""0.820""]","[0,1,1,1]",0,16,16,16,1,1,0,,,1,FALSE,,,,,,,,,,,,,,,,,,,,,,,,,,,,,,
,5aae3c75fb22320001baa633,001,2022-04-28_22h40.39.789,classification_task,2021.2.3,Linux x86_64,60.0060006,5aae3c75fb22320001baa633,626b377229c10585ec392f89,626b39c6ff011d8156fe8f04,,,,,,,,,,,,,,,,,,,,,,,l,0,0.6934,"[""0.212"",""0.251"",""0.682"",""0.921""]","[1,0,1,1]",0,17,17,17,1,0,0,,,1,FALSE,,,,,,,,,,,,,,,,,,,,,,,,,,,,,,
,5aae3c75fb22320001baa633,001,2022-04-28_22h40.39.789,classification_task,2021.2.3,Linux x86_64,60.0060006,5aae3c75fb22320001baa633,626b377229c10585ec392f89,626b39c6ff011d8156fe8f04,,,,,,,,,,,,,,,,,,,,,,,l,0,0.6306,"[""0.297"",""0.251"",""0.869"",""0.960""]","[1,0,1,1]",0,18,18,18,1,0,1,,,1,FALSE,,,,,,,,,,,,,,,,,,,,,,,,,,,,,,
,5aae3c75fb22320001baa633,001,2022-04-28_22h40.39.789,classification_task,2021.2.3,Linux x86_64,60.0060006,5aae3c75fb22320001baa633,626b377229c10585ec392f89,626b39c6ff011d8156fe8f04,,,,,,,,,,,,,,,,,,,,,,,l,0,1.6358,"[""0.620"",""0.357"",""0.682"",""0.921""]","[0,1,1,1]",0,19,19,19,1,0,0,,,1,FALSE,,,,,,,,,,,,,,,,,,,,,,,,,,,,,,
,5aae3c75fb22320001baa633,001,2022-04-28_22h40.39.789,classification_task,2021.2.3,Linux x86_64,60.0060006,5aae3c75fb22320001baa633,626b377229c10585ec392f89,626b39c6ff011d8156fe8f04,,,,,,,,,,,,,,,,,,,,,,,l,1,0.6568,"[""0.131"",""0.415"",""0.647"",""0.820""]","[1,1,0,1]",0,20,20,20,1,1,0,,,1,FALSE,,,,,,,,,,,,,,,,,,,,,,,,,,,,,,
,5aae3c75fb22320001baa633,001,2022-04-28_22h40.39.789,classification_task,2021.2.3,Linux x86_64,60.0060006,5aae3c75fb22320001baa633,626b377229c10585ec392f89,626b39c6ff011d8156fe8f04,,,,,,,,,,,,,,,,,,,,,,,l,1,0.7664,"[""0.131"",""0.415"",""0.475"",""0.603""]","[1,1,1,0]",0,21,21,21,1,1,0,,,1,FALSE,,,,,,,,,,,,,,,,,,,,,,,,,,,,,,
,5aae3c75fb22320001baa633,001,2022-04-28_22h40.39.789,classification_task,2021.2.3,Linux x86_64,60.0060006,5aae3c75fb22320001baa633,626b377229c10585ec392f89,626b39c6ff011d8156fe8f04,,,,,,,,,,,,,,,,,,,,,,,l,1,1.3319,"[""0.037"",""0.093"",""0.776"",""0.739""]","[1,1,0,1]",0,22,22,22,1,1,1,,,1,FALSE,,,,,,,,,,,,,,,,,,,,,,,,,,,,,,
,5aae3c75fb22320001baa633,001,2022-04-28_22h40.39.789,classification_task,2021.2.3,Linux x86_64,60.0060006,5aae3c75fb22320001baa633,626b377229c10585ec392f89,626b39c6ff011d8156fe8f04,,,,,,,,,,,,,,,,,,,,,,,a,1,0.9388,"[""0.297"",""0.514"",""0.633"",""0.960""]","[1,1,0,1]",0,23,23,23,1,0,1,,,1,FALSE,,,,,,,,,,,,,,,,,,,,,,,,,,,,,,
,5aae3c75fb22320001baa633,001,2022-04-28_22h40.39.789,classification_task,2021.2.3,Linux x86_64,60.0060006,5aae3c75fb22320001baa633,626b377229c10585ec392f89,626b39c6ff011d8156fe8f04,,,,,,,,,,,,,,,,,,,,,,,l,1,0.6501,"[""0.776"",""0.093"",""0.568"",""0.739""]","[0,1,1,1]",0,24,24,24,1,1,1,,,1,FALSE,,,,,,,,,,,,,,,,,,,,,,,,,,,,,,
,5aae3c75fb22320001baa633,001,2022-04-28_22h40.39.789,classification_task,2021.2.3,Linux x86_64,60.0060006,5aae3c75fb22320001baa633,626b377229c10585ec392f89,626b39c6ff011d8156fe8f04,,,,,,,,,,,,,,,,,,,,,,,a,1,0.6985,"[""0.297"",""0.514"",""0.869"",""0.251""]","[1,1,1,0]",0,25,25,25,1,0,1,,,1,FALSE,,,,,,,,,,,,,,,,,,,,,,,,,,,,,,
,5aae3c75fb22320001baa633,001,2022-04-28_22h40.39.789,classification_task,2021.2.3,Linux x86_64,60.0060006,5aae3c75fb22320001baa633,626b377229c10585ec392f89,626b39c6ff011d8156fe8f04,,,,,,,,,,,,,,,,,,,,,,,l,0,1.4279,"[""0.212"",""0.357"",""0.624"",""0.921""]","[1,1,0,1]",0,26,26,26,1,0,0,,,1,FALSE,,,,,,,,,,,,,,,,,,,,,,,,,,,,,,
,5aae3c75fb22320001baa633,001,2022-04-28_22h40.39.789,classification_task,2021.2.3,Linux x86_64,60.0060006,5aae3c75fb22320001baa633,626b377229c10585ec392f89,626b39c6ff011d8156fe8f04,,,,,,,,,,,,,,,,,,,,,,,l,1,0.6648,"[""0.131"",""0.170"",""0.475"",""0.820""]","[1,0,1,1]",0,27,27,27,1,1,0,,,1,FALSE,,,,,,,,,,,,,,,,,,,,,,,,,,,,,,
,5aae3c75fb22320001baa633,001,2022-04-28_22h40.39.789,classification_task,2021.2.3,Linux x86_64,60.0060006,5aae3c75fb22320001baa633,626b377229c10585ec392f89,626b39c6ff011d8156fe8f04,,,,,,,,,,,,,,,,,,,,,,,a,0,1.0118,"[""0.037"",""0.093"",""0.568"",""0.168""]","[1,1,1,0]",0,28,28,28,1,1,1,,,1,FALSE,,,,,,,,,,,,,,,,,,,,,,,,,,,,,,
,5aae3c75fb22320001baa633,001,2022-04-28_22h40.39.789,classification_task,2021.2.3,Linux x86_64,60.0060006,5aae3c75fb22320001baa633,626b377229c10585ec392f89,626b39c6ff011d8156fe8f04,,,,,,,,,,,,,,,,,,,,,,,l,0,2.2163,"[""0.774"",""0.514"",""0.869"",""0.960""]","[0,1,1,1]",0,29,29,29,1,0,1,,,1,FALSE,,,,,,,,,,,,,,,,,,,,,,,,,,,,,,
,5aae3c75fb22320001baa633,001,2022-04-28_22h40.39.789,classification_task,2021.2.3,Linux x86_64,60.0060006,5aae3c75fb22320001baa633,626b377229c10585ec392f89,626b39c6ff011d8156fe8f04,,,,,,,,,,,,,,,,,,,,,,,l,0,0.5384,"[""0.212"",""0.357"",""0.682"",""0.170""]","[1,1,1,0]",0,30,30,30,1,0,0,,,1,FALSE,,,,,,,,,,,,,,,,,,,,,,,,,,,,,,
,5aae3c75fb22320001baa633,001,2022-04-28_22h40.39.789,classification_task,2021.2.3,Linux x86_64,60.0060006,5aae3c75fb22320001baa633,626b377229c10585ec392f89,626b39c6ff011d8156fe8f04,,,,,,,,,,,,,,,,,,,,,,,l,1,0.9956,"[""0.037"",""0.603"",""0.568"",""0.739""]","[1,0,1,1]",0,31,31,31,1,1,1,,,1,FALSE,,,,,,,,,,,,,,,,,,,,,,,,,,,,,,
,5aae3c75fb22320001baa633,001,2022-04-28_22h40.39.789,classification_task,2021.2.3,Linux x86_64,60.0060006,5aae3c75fb22320001baa633,626b377229c10585ec392f89,626b39c6ff011d8156fe8f04,,,,,,,,,,,,,,,,,,,,,,,l,1,0.7948,"[""0.131"",""0.415"",""0.620"",""0.820""]","[1,1,0,1]",0,32,32,32,1,1,0,,,1,FALSE,,,,,,,,,,,,,,,,,,,,,,,,,,,,,,
,5aae3c75fb22320001baa633,001,2022-04-28_22h40.39.789,classification_task,2021.2.3,Linux x86_64,60.0060006,5aae3c75fb22320001baa633,626b377229c10585ec392f89,626b39c6ff011d8156fe8f04,,,,,,,,,,,,,,,,,,,,,,,a,1,1.4629,"[""0.297"",""0.514"",""0.869"",""0.604""]","[1,1,1,0]",0,33,33,33,1,0,1,,,1,FALSE,,,,,,,,,,,,,,,,,,,,,,,,,,,,,,
,5aae3c75fb22320001baa633,001,2022-04-28_22h40.39.789,classification_task,2021.2.3,Linux x86_64,60.0060006,5aae3c75fb22320001baa633,626b377229c10585ec392f89,626b39c6ff011d8156fe8f04,,,,,,,,,,,,,,,,,,,,,,,a,1,1.0026,"[""0.604"",""0.357"",""0.682"",""0.921""]","[0,1,1,1]",0,34,34,34,1,0,0,,,1,FALSE,,,,,,,,,,,,,,,,,,,,,,,,,,,,,,
,5aae3c75fb22320001baa633,001,2022-04-28_22h40.39.789,classification_task,2021.2.3,Linux x86_64,60.0060006,5aae3c75fb22320001baa633,626b377229c10585ec392f89,626b39c6ff011d8156fe8f04,,,,,,,,,,,,,,,,,,,,,,,l,1,0.763,"[""0.037"",""0.093"",""0.568"",""0.647""]","[1,1,1,0]",0,35,35,35,1,1,1,,,1,FALSE,,,,,,,,,,,,,,,,,,,,,,,,,,,,,,
,5aae3c75fb22320001baa633,001,2022-04-28_22h40.39.789,classification_task,2021.2.3,Linux x86_64,60.0060006,5aae3c75fb22320001baa633,626b377229c10585ec392f89,626b39c6ff011d8156fe8f04,,,,,,,,,,,,,,,,,,,,,,,l,1,0.6303,"[""0.131"",""0.415"",""0.475"",""0.176""]","[1,1,1,0]",0,36,36,36,1,1,0,,,1,FALSE,,,,,,,,,,,,,,,,,,,,,,,,,,,,,,
,5aae3c75fb22320001baa633,001,2022-04-28_22h40.39.789,classification_task,2021.2.3,Linux x86_64,60.0060006,5aae3c75fb22320001baa633,626b377229c10585ec392f89,626b39c6ff011d8156fe8f04,,,,,,,,,,,,,,,,,,,,,,,l,1,0.5504,"[""0.131"",""0.259"",""0.475"",""0.820""]","[1,0,1,1]",0,37,37,37,1,1,0,,,1,FALSE,,,,,,,,,,,,,,,,,,,,,,,,,,,,,,
,5aae3c75fb22320001baa633,001,2022-04-28_22h40.39.789,classification_task,2021.2.3,Linux x86_64,60.0060006,5aae3c75fb22320001baa633,626b377229c10585ec392f89,626b39c6ff011d8156fe8f04,,,,,,,,,,,,,,,,,,,,,,,a,1,1.6122,"[""0.297"",""0.514"",""0.251"",""0.960""]","[1,1,0,1]",0,38,38,38,1,0,1,,,1,FALSE,,,,,,,,,,,,,,,,,,,,,,,,,,,,,,
,5aae3c75fb22320001baa633,001,2022-04-28_22h40.39.789,classification_task,2021.2.3,Linux x86_64,60.0060006,5aae3c75fb22320001baa633,626b377229c10585ec392f89,626b39c6ff011d8156fe8f04,,,,,,,,,,,,,,,,,,,,,,,a,1,0.5561,"[""0.212"",""0.357"",""0.647"",""0.921""]","[1,1,0,1]",0,39,39,39,1,0,0,,,1,FALSE,,,,,,,,,,,,,,,,,,,,,,,,,,,,,,
,5aae3c75fb22320001baa633,001,2022-04-28_22h40.39.789,classification_task,2021.2.3,Linux x86_64,60.0060006,5aae3c75fb22320001baa633,626b377229c10585ec392f89,626b39c6ff011d8156fe8f04,,,,,,,,,,,,,,,,,,,,,,,a,1,0.801,"[""0.776"",""0.514"",""0.869"",""0.960""]","[0,1,1,1]",0,40,40,40,1,0,1,,,1,FALSE,,,,,,,,,,,,,,,,,,,,,,,,,,,,,,
,5aae3c75fb22320001baa633,001,2022-04-28_22h40.39.789,classification_task,2021.2.3,Linux x86_64,60.0060006,5aae3c75fb22320001baa633,626b377229c10585ec392f89,626b39c6ff011d8156fe8f04,,,,,,,,,,,,,,,,,,,,,,,l,1,0.6164,"[""0.176"",""0.093"",""0.568"",""0.739""]","[0,1,1,1]",0,41,41,41,1,1,1,,,1,FALSE,,,,,,,,,,,,,,,,,,,,,,,,,,,,,,
,5aae3c75fb22320001baa633,001,2022-04-28_22h40.39.789,classification_task,2021.2.3,Linux x86_64,60.0060006,5aae3c75fb22320001baa633,626b377229c10585ec392f89,626b39c6ff011d8156fe8f04,,,,,,,,,,,,,,,,,,,,,,,a,1,0.5458,"[""0.212"",""0.357"",""0.682"",""0.624""]","[1,1,1,0]",0,42,42,42,1,0,0,,,1,FALSE,,,,,,,,,,,,,,,,,,,,,,,,,,,,,,
,5aae3c75fb22320001baa633,001,2022-04-28_22h40.39.789,classification_task,2021.2.3,Linux x86_64,60.0060006,5aae3c75fb22320001baa633,626b377229c10585ec392f89,626b39c6ff011d8156fe8f04,,,,,,,,,,,,,,,,,,,,,,,l,0,0.4837,"[""0.212"",""0.604"",""0.682"",""0.921""]","[1,0,1,1]",0,43,43,43,1,0,0,,,1,FALSE,,,,,,,,,,,,,,,,,,,,,,,,,,,,,,
,5aae3c75fb22320001baa633,001,2022-04-28_22h40.39.789,classification_task,2021.2.3,Linux x86_64,60.0060006,5aae3c75fb22320001baa633,626b377229c10585ec392f89,626b39c6ff011d8156fe8f04,,,,,,,,,,,,,,,,,,,,,,,l,1,1.0689,"[""0.037"",""0.093"",""0.604"",""0.739""]","[1,1,0,1]",0,44,44,44,1,1,1,,,1,FALSE,,,,,,,,,,,,,,,,,,,,,,,,,,,,,,
,5aae3c75fb22320001baa633,001,2022-04-28_22h40.39.789,classification_task,2021.2.3,Linux x86_64,60.0060006,5aae3c75fb22320001baa633,626b377229c10585ec392f89,626b39c6ff011d8156fe8f04,,,,,,,,,,,,,,,,,,,,,,,l,1,0.5489,"[""0.037"",""0.170"",""0.568"",""0.739""]","[1,0,1,1]",0,45,45,45,1,1,1,,,1,FALSE,,,,,,,,,,,,,,,,,,,,,,,,,,,,,,
,5aae3c75fb22320001baa633,001,2022-04-28_22h40.39.789,classification_task,2021.2.3,Linux x86_64,60.0060006,5aae3c75fb22320001baa633,626b377229c10585ec392f89,626b39c6ff011d8156fe8f04,,,,,,,,,,,,,,,,,,,,,,,a,1,0.649,"[""0.297"",""0.620"",""0.869"",""0.960""]","[1,0,1,1]",0,46,46,46,1,0,1,,,1,FALSE,,,,,,,,,,,,,,,,,,,,,,,,,,,,,,
,5aae3c75fb22320001baa633,001,2022-04-28_22h40.39.789,classification_task,2021.2.3,Linux x86_64,60.0060006,5aae3c75fb22320001baa633,626b377229c10585ec392f89,626b39c6ff011d8156fe8f04,,,,,,,,,,,,,,,,,,,,,,,a,0,0.6341,"[""0.620"",""0.415"",""0.475"",""0.820""]","[0,1,1,1]",0,47,47,47,1,1,0,,,1,FALSE,,,,,,,,,,,,,,,,,,,,,,,,,,,,,,
,5aae3c75fb22320001baa633,001,2022-04-28_22h40.39.789,classification_task,2021.2.3,Linux x86_64,60.0060006,5aae3c75fb22320001baa633,626b377229c10585ec392f89,626b39c6ff011d8156fe8f04,,,,,,,,,,,,,,,,,,,,,,,l,1,0.4297,"[""0.131"",""0.415"",""0.168"",""0.820""]","[1,1,0,1]",0,48,48,48,1,1,0,,,1,FALSE,,,,,,,,,,,,,,,,,,,,,,,,,,,,,,
,5aae3c75fb22320001baa633,001,2022-04-28_22h40.39.789,classification_task,2021.2.3,Linux x86_64,60.0060006,5aae3c75fb22320001baa633,626b377229c10585ec392f89,626b39c6ff011d8156fe8f04,,,,,,,,,,,,,,,,,,,,,,,l,1,0.5671,"[""0.131"",""0.415"",""0.475"",""0.774""]","[1,1,1,0]",0,49,49,49,1,1,0,,,1,FALSE,,,,,,,,,,,,,,,,,,,,,,,,,,,,,,
,5aae3c75fb22320001baa633,001,2022-04-28_22h40.39.789,classification_task,2021.2.3,Linux x86_64,60.0060006,5aae3c75fb22320001baa633,626b377229c10585ec392f89,626b39c6ff011d8156fe8f04,,,,,,,,,,,,,,,,,,,,,,,l,1,0.4702,"[""0.037"",""0.093"",""0.568"",""0.604""]","[1,1,1,0]",0,50,50,50,1,1,1,,,1,FALSE,,,,,,,,,,,,,,,,,,,,,,,,,,,,,,
,5aae3c75fb22320001baa633,001,2022-04-28_22h40.39.789,classification_task,2021.2.3,Linux x86_64,60.0060006,5aae3c75fb22320001baa633,626b377229c10585ec392f89,626b39c6ff011d8156fe8f04,,,,,,,,,,,,,,,,,,,,,,,l,0,0.5299,"[""0.212"",""0.620"",""0.682"",""0.921""]","[1,0,1,1]",0,51,51,51,1,0,0,,,1,FALSE,,,,,,,,,,,,,,,,,,,,,,,,,,,,,,
,5aae3c75fb22320001baa633,001,2022-04-28_22h40.39.789,classification_task,2021.2.3,Linux x86_64,60.0060006,5aae3c75fb22320001baa633,626b377229c10585ec392f89,626b39c6ff011d8156fe8f04,,,,,,,,,,,,,,,,,,,,,,,a,0,0.4655,"[""0.037"",""0.093"",""0.647"",""0.739""]","[1,1,0,1]",0,52,52,52,1,1,1,,,1,FALSE,,,,,,,,,,,,,,,,,,,,,,,,,,,,,,
,5aae3c75fb22320001baa633,001,2022-04-28_22h40.39.789,classification_task,2021.2.3,Linux x86_64,60.0060006,5aae3c75fb22320001baa633,626b377229c10585ec392f89,626b39c6ff011d8156fe8f04,,,,,,,,,,,,,,,,,,,,,,,l,1,0.3634,"[""0.131"",""0.259"",""0.475"",""0.820""]","[1,0,1,1]",0,53,53,53,1,1,0,,,1,FALSE,,,,,,,,,,,,,,,,,,,,,,,,,,,,,,
,5aae3c75fb22320001baa633,001,2022-04-28_22h40.39.789,classification_task,2021.2.3,Linux x86_64,60.0060006,5aae3c75fb22320001baa633,626b377229c10585ec392f89,626b39c6ff011d8156fe8f04,,,,,,,,,,,,,,,,,,,,,,,l,0,1.5132,"[""0.623"",""0.514"",""0.869"",""0.960""]","[0,1,1,1]",0,54,54,54,1,0,1,,,1,FALSE,,,,,,,,,,,,,,,,,,,,,,,,,,,,,,
,5aae3c75fb22320001baa633,001,2022-04-28_22h40.39.789,classification_task,2021.2.3,Linux x86_64,60.0060006,5aae3c75fb22320001baa633,626b377229c10585ec392f89,626b39c6ff011d8156fe8f04,,,,,,,,,,,,,,,,,,,,,,,a,0,1.6512,"[""0.037"",""0.179"",""0.568"",""0.739""]","[1,0,1,1]",0,55,55,55,1,1,1,,,1,FALSE,,,,,,,,,,,,,,,,,,,,,,,,,,,,,,
,5aae3c75fb22320001baa633,001,2022-04-28_22h40.39.789,classification_task,2021.2.3,Linux x86_64,60.0060006,5aae3c75fb22320001baa633,626b377229c10585ec392f89,626b39c6ff011d8156fe8f04,,,,,,,,,,,,,,,,,,,,,,,l,0,1.3804,"[""0.633"",""0.357"",""0.682"",""0.921""]","[0,1,1,1]",0,56,56,56,1,0,0,,,1,FALSE,,,,,,,,,,,,,,,,,,,,,,,,,,,,,,
,5aae3c75fb22320001baa633,001,2022-04-28_22h40.39.789,classification_task,2021.2.3,Linux x86_64,60.0060006,5aae3c75fb22320001baa633,626b377229c10585ec392f89,626b39c6ff011d8156fe8f04,,,,,,,,,,,,,,,,,,,,,,,a,1,2.6615,"[""0.297"",""0.514"",""0.774"",""0.960""]","[1,1,0,1]",0,57,57,57,1,0,1,,,1,FALSE,,,,,,,,,,,,,,,,,,,,,,,,,,,,,,
,5aae3c75fb22320001baa633,001,2022-04-28_22h40.39.789,classification_task,2021.2.3,Linux x86_64,60.0060006,5aae3c75fb22320001baa633,626b377229c10585ec392f89,626b39c6ff011d8156fe8f04,,,,,,,,,,,,,,,,,,,,,,,l,0,1.1767,"[""0.297"",""0.774"",""0.869"",""0.960""]","[1,0,1,1]",0,58,58,58,1,0,1,,,1,FALSE,,,,,,,,,,,,,,,,,,,,,,,,,,,,,,
,5aae3c75fb22320001baa633,001,2022-04-28_22h40.39.789,classification_task,2021.2.3,Linux x86_64,60.0060006,5aae3c75fb22320001baa633,626b377229c10585ec392f89,626b39c6ff011d8156fe8f04,,,,,,,,,,,,,,,,,,,,,,,a,0,1.699,"[""0.620"",""0.093"",""0.568"",""0.739""]","[0,1,1,1]",0,59,59,59,1,1,1,,,1,FALSE,,,,,,,,,,,,,,,,,,,,,,,,,,,,,,
,5aae3c75fb22320001baa633,001,2022-04-28_22h40.39.789,classification_task,2021.2.3,Linux x86_64,60.0060006,5aae3c75fb22320001baa633,626b377229c10585ec392f89,626b39c6ff011d8156fe8f04,,,,,,,,,,,,,,,,,,,,,,,l,0,2.8563,"[""0.297"",""0.514"",""0.869"",""0.776""]","[1,1,1,0]",0,60,60,60,1,0,1,,,1,FALSE,,,,,,,,,,,,,,,,,,,,,,,,,,,,,,
,5aae3c75fb22320001baa633,001,2022-04-28_22h40.39.789,classification_task,2021.2.3,Linux x86_64,60.0060006,5aae3c75fb22320001baa633,626b377229c10585ec392f89,626b39c6ff011d8156fe8f04,,,,,,,,,,,,,,,,,,,,,,,l,1,3.5175,"[""0.624"",""0.415"",""0.475"",""0.820""]","[0,1,1,1]",0,61,61,61,1,1,0,,,1,FALSE,,,,,,,,,,,,,,,,,,,,,,,,,,,,,,
,5aae3c75fb22320001baa633,001,2022-04-28_22h40.39.789,classification_task,2021.2.3,Linux x86_64,60.0060006,5aae3c75fb22320001baa633,626b377229c10585ec392f89,626b39c6ff011d8156fe8f04,,,,,,,,,,,,,,,,,,,,,,,l,0,1.4392,"[""0.212"",""0.357"",""0.623"",""0.921""]","[1,1,0,1]",0,62,62,62,1,0,0,,,1,FALSE,,,,,,,,,,,,,,,,,,,,,,,,,,,,,,
,5aae3c75fb22320001baa633,001,2022-04-28_22h40.39.789,classification_task,2021.2.3,Linux x86_64,60.0060006,5aae3c75fb22320001baa633,626b377229c10585ec392f89,626b39c6ff011d8156fe8f04,,,,,,,,,,,,,,,,,,,,,,,l,0,2.4397,"[""0.212"",""0.357"",""0.682"",""0.624""]","[1,1,1,0]",0,63,63,63,1,0,0,,,1,FALSE,,,,,,,,,,,,,,,,,,,,,,,,,,,,,,
,5aae3c75fb22320001baa633,001,2022-04-28_22h40.39.789,classification_task,2021.2.3,Linux x86_64,60.0060006,5aae3c75fb22320001baa633,626b377229c10585ec392f89,626b39c6ff011d8156fe8f04,,,,,,,,,,,,,,,,,,,,,,,,,,,,,,,,,,,,,,,0, ,,0,1.703078928,154.9475,0,1,1,1,1,2,2,,,,,,,,,,,,,,,,,
,5aae3c75fb22320001baa633,001,2022-04-28_22h40.39.789,classification_task,2021.2.3,Linux x86_64,60.0060006,5aae3c75fb22320001baa633,626b377229c10585ec392f89,626b39c6ff011d8156fe8f04,,,,,,,,,,,,,,,,,,,,,,,,,,,,,,,,,,,,,,,1,  ,,0,9.247067467,158.6771,0,1,1,1,1,2,2,,,,,,,,,,,,,,,,,
,5aae3c75fb22320001baa633,001,2022-04-28_22h40.39.789,classification_task,2021.2.3,Linux x86_64,60.0060006,5aae3c75fb22320001baa633,626b377229c10585ec392f89,626b39c6ff011d8156fe8f04,,,,,,,,,,,,,,,,,,,,,,,,,,,,,,,,,,,,,,,2,  ,,0,9.936744717,160.1444,0,1,1,1,1,2,2,,,,,,,,,,,,,,,,,
,5aae3c75fb22320001baa633,001,2022-04-28_22h40.39.789,classification_task,2021.2.3,Linux x86_64,60.0060006,5aae3c75fb22320001baa633,626b377229c10585ec392f89,626b39c6ff011d8156fe8f04,,,,,,,,,,,,,,,,,,,,,,,,,,,,,,,,,,,,,,,,,,,,,0,1,1,1,1,,2,,,,,,,,,,,,,,,,,
,5aae3c75fb22320001baa633,001,2022-04-28_22h40.39.789,classification_task,2021.2.3,Linux x86_64,60.0060006,5aae3c75fb22320001baa633,626b377229c10585ec392f89,626b39c6ff011d8156fe8f04,,,,,,,,,,,,,,,,,,,,,space,5.8412,l,1,0.922,"[""0.037"",""0.620"",""0.568"",""0.739""]","[1,0,1,1]",0,0,0,0,1,1,1,,,1,FALSE,,,,,,,,,,,,,,,,,,,,,,,,,,,,,,
,5aae3c75fb22320001baa633,001,2022-04-28_22h40.39.789,classification_task,2021.2.3,Linux x86_64,60.0060006,5aae3c75fb22320001baa633,626b377229c10585ec392f89,626b39c6ff011d8156fe8f04,,,,,,,,,,,,,,,,,,,,,,,l,0,0.9483,"[""0.212"",""0.357"",""0.682"",""0.170""]","[1,1,1,0]",0,1,1,1,1,0,0,,,1,FALSE,,,,,,,,,,,,,,,,,,,,,,,,,,,,,,
,5aae3c75fb22320001baa633,001,2022-04-28_22h40.39.789,classification_task,2021.2.3,Linux x86_64,60.0060006,5aae3c75fb22320001baa633,626b377229c10585ec392f89,626b39c6ff011d8156fe8f04,,,,,,,,,,,,,,,,,,,,,,,a,0,1.1168,"[""0.179"",""0.415"",""0.475"",""0.820""]","[0,1,1,1]",0,2,2,2,1,1,0,,,1,FALSE,,,,,,,,,,,,,,,,,,,,,,,,,,,,,,
,5aae3c75fb22320001baa633,001,2022-04-28_22h40.39.789,classification_task,2021.2.3,Linux x86_64,60.0060006,5aae3c75fb22320001baa633,626b377229c10585ec392f89,626b39c6ff011d8156fe8f04,,,,,,,,,,,,,,,,,,,,,,,l,0,1.9824,"[""0.297"",""0.623"",""0.869"",""0.960""]","[1,0,1,1]",0,3,3,3,1,0,1,,,1,FALSE,,,,,,,,,,,,,,,,,,,,,,,,,,,,,,
,5aae3c75fb22320001baa633,001,2022-04-28_22h40.39.789,classification_task,2021.2.3,Linux x86_64,60.0060006,5aae3c75fb22320001baa633,626b377229c10585ec392f89,626b39c6ff011d8156fe8f04,,,,,,,,,,,,,,,,,,,,,,,a,0,0.5871,"[""0.131"",""0.415"",""0.620"",""0.820""]","[1,1,0,1]",0,4,4,4,1,1,0,,,1,FALSE,,,,,,,,,,,,,,,,,,,,,,,,,,,,,,
,5aae3c75fb22320001baa633,001,2022-04-28_22h40.39.789,classification_task,2021.2.3,Linux x86_64,60.0060006,5aae3c75fb22320001baa633,626b377229c10585ec392f89,626b39c6ff011d8156fe8f04,,,,,,,,,,,,,,,,,,,,,,,l,0,1.05,"[""0.620"",""0.357"",""0.682"",""0.921""]","[0,1,1,1]",0,5,5,5,1,0,0,,,1,FALSE,,,,,,,,,,,,,,,,,,,,,,,,,,,,,,
,5aae3c75fb22320001baa633,001,2022-04-28_22h40.39.789,classification_task,2021.2.3,Linux x86_64,60.0060006,5aae3c75fb22320001baa633,626b377229c10585ec392f89,626b39c6ff011d8156fe8f04,,,,,,,,,,,,,,,,,,,,,,,a,1,1.2323,"[""0.212"",""0.179"",""0.682"",""0.921""]","[1,0,1,1]",0,6,6,6,1,0,0,,,1,FALSE,,,,,,,,,,,,,,,,,,,,,,,,,,,,,,
,5aae3c75fb22320001baa633,001,2022-04-28_22h40.39.789,classification_task,2021.2.3,Linux x86_64,60.0060006,5aae3c75fb22320001baa633,626b377229c10585ec392f89,626b39c6ff011d8156fe8f04,,,,,,,,,,,,,,,,,,,,,,,a,1,0.5654,"[""0.212"",""0.357"",""0.623"",""0.921""]","[1,1,0,1]",0,7,7,7,1,0,0,,,1,FALSE,,,,,,,,,,,,,,,,,,,,,,,,,,,,,,
,5aae3c75fb22320001baa633,001,2022-04-28_22h40.39.789,classification_task,2021.2.3,Linux x86_64,60.0060006,5aae3c75fb22320001baa633,626b377229c10585ec392f89,626b39c6ff011d8156fe8f04,,,,,,,,,,,,,,,,,,,,,,,a,0,1.1495,"[""0.131"",""0.776"",""0.475"",""0.820""]","[1,0,1,1]",0,8,8,8,1,1,0,,,1,FALSE,,,,,,,,,,,,,,,,,,,,,,,,,,,,,,
,5aae3c75fb22320001baa633,001,2022-04-28_22h40.39.789,classification_task,2021.2.3,Linux x86_64,60.0060006,5aae3c75fb22320001baa633,626b377229c10585ec392f89,626b39c6ff011d8156fe8f04,,,,,,,,,,,,,,,,,,,,,,,a,0,1.1648,"[""0.774"",""0.093"",""0.568"",""0.739""]","[0,1,1,1]",0,9,9,9,1,1,1,,,1,FALSE,,,,,,,,,,,,,,,,,,,,,,,,,,,,,,
,5aae3c75fb22320001baa633,001,2022-04-28_22h40.39.789,classification_task,2021.2.3,Linux x86_64,60.0060006,5aae3c75fb22320001baa633,626b377229c10585ec392f89,626b39c6ff011d8156fe8f04,,,,,,,,,,,,,,,,,,,,,,,l,0,0.6489,"[""0.297"",""0.514"",""0.869"",""0.249""]","[1,1,1,0]",0,10,10,10,1,0,1,,,1,FALSE,,,,,,,,,,,,,,,,,,,,,,,,,,,,,,
,5aae3c75fb22320001baa633,001,2022-04-28_22h40.39.789,classification_task,2021.2.3,Linux x86_64,60.0060006,5aae3c75fb22320001baa633,626b377229c10585ec392f89,626b39c6ff011d8156fe8f04,,,,,,,,,,,,,,,,,,,,,,,l,1,1.8897,"[""0.037"",""0.093"",""0.568"",""0.776""]","[1,1,1,0]",0,11,11,11,1,1,1,,,1,FALSE,,,,,,,,,,,,,,,,,,,,,,,,,,,,,,
,5aae3c75fb22320001baa633,001,2022-04-28_22h40.39.789,classification_task,2021.2.3,Linux x86_64,60.0060006,5aae3c75fb22320001baa633,626b377229c10585ec392f89,626b39c6ff011d8156fe8f04,,,,,,,,,,,,,,,,,,,,,,,l,1,0.5384,"[""0.037"",""0.093"",""0.776"",""0.739""]","[1,1,0,1]",0,12,12,12,1,1,1,,,1,FALSE,,,,,,,,,,,,,,,,,,,,,,,,,,,,,,
,5aae3c75fb22320001baa633,001,2022-04-28_22h40.39.789,classification_task,2021.2.3,Linux x86_64,60.0060006,5aae3c75fb22320001baa633,626b377229c10585ec392f89,626b39c6ff011d8156fe8f04,,,,,,,,,,,,,,,,,,,,,,,a,0,0.932,"[""0.131"",""0.415"",""0.475"",""0.179""]","[1,1,1,0]",0,13,13,13,1,1,0,,,1,FALSE,,,,,,,,,,,,,,,,,,,,,,,,,,,,,,
,5aae3c75fb22320001baa633,001,2022-04-28_22h40.39.789,classification_task,2021.2.3,Linux x86_64,60.0060006,5aae3c75fb22320001baa633,626b377229c10585ec392f89,626b39c6ff011d8156fe8f04,,,,,,,,,,,,,,,,,,,,,,,l,0,0.5485,"[""0.620"",""0.514"",""0.869"",""0.960""]","[0,1,1,1]",0,14,14,14,1,0,1,,,1,FALSE,,,,,,,,,,,,,,,,,,,,,,,,,,,,,,
,5aae3c75fb22320001baa633,001,2022-04-28_22h40.39.789,classification_task,2021.2.3,Linux x86_64,60.0060006,5aae3c75fb22320001baa633,626b377229c10585ec392f89,626b39c6ff011d8156fe8f04,,,,,,,,,,,,,,,,,,,,,,,l,0,0.5321,"[""0.297"",""0.514"",""0.624"",""0.960""]","[1,1,0,1]",0,15,15,15,1,0,1,,,1,FALSE,,,,,,,,,,,,,,,,,,,,,,,,,,,,,,
,5aae3c75fb22320001baa633,001,2022-04-28_22h40.39.789,classification_task,2021.2.3,Linux x86_64,60.0060006,5aae3c75fb22320001baa633,626b377229c10585ec392f89,626b39c6ff011d8156fe8f04,,,,,,,,,,,,,,,,,,,,,,,l,1,1.0991,"[""0.633"",""0.093"",""0.568"",""0.739""]","[0,1,1,1]",0,16,16,16,1,1,1,,,1,FALSE,,,,,,,,,,,,,,,,,,,,,,,,,,,,,,
,5aae3c75fb22320001baa633,001,2022-04-28_22h40.39.789,classification_task,2021.2.3,Linux x86_64,60.0060006,5aae3c75fb22320001baa633,626b377229c10585ec392f89,626b39c6ff011d8156fe8f04,,,,,,,,,,,,,,,,,,,,,,,l,1,4.87,"[""0.037"",""0.259"",""0.568"",""0.739""]","[1,0,1,1]",0,17,17,17,1,1,1,,,1,FALSE,,,,,,,,,,,,,,,,,,,,,,,,,,,,,,
,5aae3c75fb22320001baa633,001,2022-04-28_22h40.39.789,classification_task,2021.2.3,Linux x86_64,60.0060006,5aae3c75fb22320001baa633,626b377229c10585ec392f89,626b39c6ff011d8156fe8f04,,,,,,,,,,,,,,,,,,,,,,,l,0,2.6348,"[""0.212"",""0.357"",""0.682"",""0.620""]","[1,1,1,0]",0,18,18,18,1,0,0,,,1,FALSE,,,,,,,,,,,,,,,,,,,,,,,,,,,,,,
,5aae3c75fb22320001baa633,001,2022-04-28_22h40.39.789,classification_task,2021.2.3,Linux x86_64,60.0060006,5aae3c75fb22320001baa633,626b377229c10585ec392f89,626b39c6ff011d8156fe8f04,,,,,,,,,,,,,,,,,,,,,,,l,0,4.1208,"[""0.776"",""0.357"",""0.682"",""0.921""]","[0,1,1,1]",0,19,19,19,1,0,0,,,1,FALSE,,,,,,,,,,,,,,,,,,,,,,,,,,,,,,
,5aae3c75fb22320001baa633,001,2022-04-28_22h40.39.789,classification_task,2021.2.3,Linux x86_64,60.0060006,5aae3c75fb22320001baa633,626b377229c10585ec392f89,626b39c6ff011d8156fe8f04,,,,,,,,,,,,,,,,,,,,,,,l,0,4.8233,"[""0.633"",""0.514"",""0.869"",""0.960""]","[0,1,1,1]",0,20,20,20,1,0,1,,,1,FALSE,,,,,,,,,,,,,,,,,,,,,,,,,,,,,,
,5aae3c75fb22320001baa633,001,2022-04-28_22h40.39.789,classification_task,2021.2.3,Linux x86_64,60.0060006,5aae3c75fb22320001baa633,626b377229c10585ec392f89,626b39c6ff011d8156fe8f04,,,,,,,,,,,,,,,,,,,,,,,l,1,1.5564,"[""0.633"",""0.415"",""0.475"",""0.820""]","[0,1,1,1]",0,21,21,21,1,1,0,,,1,FALSE,,,,,,,,,,,,,,,,,,,,,,,,,,,,,,
,5aae3c75fb22320001baa633,001,2022-04-28_22h40.39.789,classification_task,2021.2.3,Linux x86_64,60.0060006,5aae3c75fb22320001baa633,626b377229c10585ec392f89,626b39c6ff011d8156fe8f04,,,,,,,,,,,,,,,,,,,,,,,a,1,0.5986,"[""0.297"",""0.514"",""0.168"",""0.960""]","[1,1,0,1]",0,22,22,22,1,0,1,,,1,FALSE,,,,,,,,,,,,,,,,,,,,,,,,,,,,,,
,5aae3c75fb22320001baa633,001,2022-04-28_22h40.39.789,classification_task,2021.2.3,Linux x86_64,60.0060006,5aae3c75fb22320001baa633,626b377229c10585ec392f89,626b39c6ff011d8156fe8f04,,,,,,,,,,,,,,,,,,,,,,,l,1,0.5683,"[""0.037"",""0.093"",""0.568"",""0.259""]","[1,1,1,0]",0,23,23,23,1,1,1,,,1,FALSE,,,,,,,,,,,,,,,,,,,,,,,,,,,,,,
,5aae3c75fb22320001baa633,001,2022-04-28_22h40.39.789,classification_task,2021.2.3,Linux x86_64,60.0060006,5aae3c75fb22320001baa633,626b377229c10585ec392f89,626b39c6ff011d8156fe8f04,,,,,,,,,,,,,,,,,,,,,,,l,1,0.6993,"[""0.131"",""0.415"",""0.475"",""0.624""]","[1,1,1,0]",0,24,24,24,1,1,0,,,1,FALSE,,,,,,,,,,,,,,,,,,,,,,,,,,,,,,
,5aae3c75fb22320001baa633,001,2022-04-28_22h40.39.789,classification_task,2021.2.3,Linux x86_64,60.0060006,5aae3c75fb22320001baa633,626b377229c10585ec392f89,626b39c6ff011d8156fe8f04,,,,,,,,,,,,,,,,,,,,,,,a,0,1.3006,"[""0.037"",""0.093"",""0.168"",""0.739""]","[1,1,0,1]",0,25,25,25,1,1,1,,,1,FALSE,,,,,,,,,,,,,,,,,,,,,,,,,,,,,,
,5aae3c75fb22320001baa633,001,2022-04-28_22h40.39.789,classification_task,2021.2.3,Linux x86_64,60.0060006,5aae3c75fb22320001baa633,626b377229c10585ec392f89,626b39c6ff011d8156fe8f04,,,,,,,,,,,,,,,,,,,,,,,l,1,0.5223,"[""0.131"",""0.170"",""0.475"",""0.820""]","[1,0,1,1]",0,26,26,26,1,1,0,,,1,FALSE,,,,,,,,,,,,,,,,,,,,,,,,,,,,,,
,5aae3c75fb22320001baa633,001,2022-04-28_22h40.39.789,classification_task,2021.2.3,Linux x86_64,60.0060006,5aae3c75fb22320001baa633,626b377229c10585ec392f89,626b39c6ff011d8156fe8f04,,,,,,,,,,,,,,,,,,,,,,,l,0,0.7538,"[""0.212"",""0.620"",""0.682"",""0.921""]","[1,0,1,1]",0,27,27,27,1,0,0,,,1,FALSE,,,,,,,,,,,,,,,,,,,,,,,,,,,,,,
,5aae3c75fb22320001baa633,001,2022-04-28_22h40.39.789,classification_task,2021.2.3,Linux x86_64,60.0060006,5aae3c75fb22320001baa633,626b377229c10585ec392f89,626b39c6ff011d8156fe8f04,,,,,,,,,,,,,,,,,,,,,,,a,1,0.5064,"[""0.297"",""0.514"",""0.869"",""0.776""]","[1,1,1,0]",0,28,28,28,1,0,1,,,1,FALSE,,,,,,,,,,,,,,,,,,,,,,,,,,,,,,
,5aae3c75fb22320001baa633,001,2022-04-28_22h40.39.789,classification_task,2021.2.3,Linux x86_64,60.0060006,5aae3c75fb22320001baa633,626b377229c10585ec392f89,626b39c6ff011d8156fe8f04,,,,,,,,,,,,,,,,,,,,,,,l,0,0.8338,"[""0.212"",""0.357"",""0.774"",""0.921""]","[1,1,0,1]",0,29,29,29,1,0,0,,,1,FALSE,,,,,,,,,,,,,,,,,,,,,,,,,,,,,,
,5aae3c75fb22320001baa633,001,2022-04-28_22h40.39.789,classification_task,2021.2.3,Linux x86_64,60.0060006,5aae3c75fb22320001baa633,626b377229c10585ec392f89,626b39c6ff011d8156fe8f04,,,,,,,,,,,,,,,,,,,,,,,a,0,0.4671,"[""0.131"",""0.415"",""0.170"",""0.820""]","[1,1,0,1]",0,30,30,30,1,1,0,,,1,FALSE,,,,,,,,,,,,,,,,,,,,,,,,,,,,,,
,5aae3c75fb22320001baa633,001,2022-04-28_22h40.39.789,classification_task,2021.2.3,Linux x86_64,60.0060006,5aae3c75fb22320001baa633,626b377229c10585ec392f89,626b39c6ff011d8156fe8f04,,,,,,,,,,,,,,,,,,,,,,,l,0,0.5502,"[""0.297"",""0.259"",""0.869"",""0.960""]","[1,0,1,1]",0,31,31,31,1,0,1,,,1,FALSE,,,,,,,,,,,,,,,,,,,,,,,,,,,,,,
,5aae3c75fb22320001baa633,001,2022-04-28_22h40.39.789,classification_task,2021.2.3,Linux x86_64,60.0060006,5aae3c75fb22320001baa633,626b377229c10585ec392f89,626b39c6ff011d8156fe8f04,,,,,,,,,,,,,,,,,,,,,,,l,1,0.7326,"[""0.131"",""0.776"",""0.475"",""0.820""]","[1,0,1,1]",0,32,32,32,1,1,0,,,1,FALSE,,,,,,,,,,,,,,,,,,,,,,,,,,,,,,
,5aae3c75fb22320001baa633,001,2022-04-28_22h40.39.789,classification_task,2021.2.3,Linux x86_64,60.0060006,5aae3c75fb22320001baa633,626b377229c10585ec392f89,626b39c6ff011d8156fe8f04,,,,,,,,,,,,,,,,,,,,,,,l,1,1.6993,"[""0.037"",""0.093"",""0.633"",""0.739""]","[1,1,0,1]",0,33,33,33,1,1,1,,,1,FALSE,,,,,,,,,,,,,,,,,,,,,,,,,,,,,,
,5aae3c75fb22320001baa633,001,2022-04-28_22h40.39.789,classification_task,2021.2.3,Linux x86_64,60.0060006,5aae3c75fb22320001baa633,626b377229c10585ec392f89,626b39c6ff011d8156fe8f04,,,,,,,,,,,,,,,,,,,,,,,l,0,1.3713,"[""0.212"",""0.357"",""0.776"",""0.921""]","[1,1,0,1]",0,34,34,34,1,0,0,,,1,FALSE,,,,,,,,,,,,,,,,,,,,,,,,,,,,,,
,5aae3c75fb22320001baa633,001,2022-04-28_22h40.39.789,classification_task,2021.2.3,Linux x86_64,60.0060006,5aae3c75fb22320001baa633,626b377229c10585ec392f89,626b39c6ff011d8156fe8f04,,,,,,,,,,,,,,,,,,,,,,,l,0,0.6193,"[""0.297"",""0.168"",""0.869"",""0.960""]","[1,0,1,1]",0,35,35,35,1,0,1,,,1,FALSE,,,,,,,,,,,,,,,,,,,,,,,,,,,,,,
,5aae3c75fb22320001baa633,001,2022-04-28_22h40.39.789,classification_task,2021.2.3,Linux x86_64,60.0060006,5aae3c75fb22320001baa633,626b377229c10585ec392f89,626b39c6ff011d8156fe8f04,,,,,,,,,,,,,,,,,,,,,,,a,0,0.4321,"[""0.176"",""0.415"",""0.475"",""0.820""]","[0,1,1,1]",0,36,36,36,1,1,0,,,1,FALSE,,,,,,,,,,,,,,,,,,,,,,,,,,,,,,
,5aae3c75fb22320001baa633,001,2022-04-28_22h40.39.789,classification_task,2021.2.3,Linux x86_64,60.0060006,5aae3c75fb22320001baa633,626b377229c10585ec392f89,626b39c6ff011d8156fe8f04,,,,,,,,,,,,,,,,,,,,,,,l,0,1.3487,"[""0.297"",""0.514"",""0.604"",""0.960""]","[1,1,0,1]",0,37,37,37,1,0,1,,,1,FALSE,,,,,,,,,,,,,,,,,,,,,,,,,,,,,,
,5aae3c75fb22320001baa633,001,2022-04-28_22h40.39.789,classification_task,2021.2.3,Linux x86_64,60.0060006,5aae3c75fb22320001baa633,626b377229c10585ec392f89,626b39c6ff011d8156fe8f04,,,,,,,,,,,,,,,,,,,,,,,l,0,1.0891,"[""0.212"",""0.623"",""0.682"",""0.921""]","[1,0,1,1]",0,38,38,38,1,0,0,,,1,FALSE,,,,,,,,,,,,,,,,,,,,,,,,,,,,,,
,5aae3c75fb22320001baa633,001,2022-04-28_22h40.39.789,classification_task,2021.2.3,Linux x86_64,60.0060006,5aae3c75fb22320001baa633,626b377229c10585ec392f89,626b39c6ff011d8156fe8f04,,,,,,,,,,,,,,,,,,,,,,,a,0,0.6165,"[""0.037"",""0.093"",""0.568"",""0.624""]","[1,1,1,0]",0,39,39,39,1,1,1,,,1,FALSE,,,,,,,,,,,,,,,,,,,,,,,,,,,,,,
,5aae3c75fb22320001baa633,001,2022-04-28_22h40.39.789,classification_task,2021.2.3,Linux x86_64,60.0060006,5aae3c75fb22320001baa633,626b377229c10585ec392f89,626b39c6ff011d8156fe8f04,,,,,,,,,,,,,,,,,,,,,,,a,0,0.6829,"[""0.131"",""0.415"",""0.475"",""0.633""]","[1,1,1,0]",0,40,40,40,1,1,0,,,1,FALSE,,,,,,,,,,,,,,,,,,,,,,,,,,,,,,
,5aae3c75fb22320001baa633,001,2022-04-28_22h40.39.789,classification_task,2021.2.3,Linux x86_64,60.0060006,5aae3c75fb22320001baa633,626b377229c10585ec392f89,626b39c6ff011d8156fe8f04,,,,,,,,,,,,,,,,,,,,,,,l,0,1.3037,"[""0.168"",""0.514"",""0.869"",""0.960""]","[0,1,1,1]",0,41,41,41,1,0,1,,,1,FALSE,,,,,,,,,,,,,,,,,,,,,,,,,,,,,,
,5aae3c75fb22320001baa633,001,2022-04-28_22h40.39.789,classification_task,2021.2.3,Linux x86_64,60.0060006,5aae3c75fb22320001baa633,626b377229c10585ec392f89,626b39c6ff011d8156fe8f04,,,,,,,,,,,,,,,,,,,,,,,a,1,0.4508,"[""0.603"",""0.357"",""0.682"",""0.921""]","[0,1,1,1]",0,42,42,42,1,0,0,,,1,FALSE,,,,,,,,,,,,,,,,,,,,,,,,,,,,,,
,5aae3c75fb22320001baa633,001,2022-04-28_22h40.39.789,classification_task,2021.2.3,Linux x86_64,60.0060006,5aae3c75fb22320001baa633,626b377229c10585ec392f89,626b39c6ff011d8156fe8f04,,,,,,,,,,,,,,,,,,,,,,,l,1,1.5665,"[""0.037"",""0.170"",""0.568"",""0.739""]","[1,0,1,1]",0,43,43,43,1,1,1,,,1,FALSE,,,,,,,,,,,,,,,,,,,,,,,,,,,,,,
,5aae3c75fb22320001baa633,001,2022-04-28_22h40.39.789,classification_task,2021.2.3,Linux x86_64,60.0060006,5aae3c75fb22320001baa633,626b377229c10585ec392f89,626b39c6ff011d8156fe8f04,,,,,,,,,,,,,,,,,,,,,,,l,0,1.4878,"[""0.297"",""0.514"",""0.869"",""0.620""]","[1,1,1,0]",0,44,44,44,1,0,1,,,1,FALSE,,,,,,,,,,,,,,,,,,,,,,,,,,,,,,
,5aae3c75fb22320001baa633,001,2022-04-28_22h40.39.789,classification_task,2021.2.3,Linux x86_64,60.0060006,5aae3c75fb22320001baa633,626b377229c10585ec392f89,626b39c6ff011d8156fe8f04,,,,,,,,,,,,,,,,,,,,,,,a,1,2.185,"[""0.212"",""0.357"",""0.682"",""0.168""]","[1,1,1,0]",0,45,45,45,1,0,0,,,1,FALSE,,,,,,,,,,,,,,,,,,,,,,,,,,,,,,
,5aae3c75fb22320001baa633,001,2022-04-28_22h40.39.789,classification_task,2021.2.3,Linux x86_64,60.0060006,5aae3c75fb22320001baa633,626b377229c10585ec392f89,626b39c6ff011d8156fe8f04,,,,,,,,,,,,,,,,,,,,,,,a,0,0.5079,"[""0.168"",""0.093"",""0.568"",""0.739""]","[0,1,1,1]",0,46,46,46,1,1,1,,,1,FALSE,,,,,,,,,,,,,,,,,,,,,,,,,,,,,,
,5aae3c75fb22320001baa633,001,2022-04-28_22h40.39.789,classification_task,2021.2.3,Linux x86_64,60.0060006,5aae3c75fb22320001baa633,626b377229c10585ec392f89,626b39c6ff011d8156fe8f04,,,,,,,,,,,,,,,,,,,,,,,a,0,1.7821,"[""0.131"",""0.415"",""0.249"",""0.820""]","[1,1,0,1]",0,47,47,47,1,1,0,,,1,FALSE,,,,,,,,,,,,,,,,,,,,,,,,,,,,,,
,5aae3c75fb22320001baa633,001,2022-04-28_22h40.39.789,classification_task,2021.2.3,Linux x86_64,60.0060006,5aae3c75fb22320001baa633,626b377229c10585ec392f89,626b39c6ff011d8156fe8f04,,,,,,,,,,,,,,,,,,,,,,,a,1,0.8716,"[""0.179"",""0.514"",""0.869"",""0.960""]","[0,1,1,1]",0,48,48,48,1,0,1,,,1,FALSE,,,,,,,,,,,,,,,,,,,,,,,,,,,,,,
,5aae3c75fb22320001baa633,001,2022-04-28_22h40.39.789,classification_task,2021.2.3,Linux x86_64,60.0060006,5aae3c75fb22320001baa633,626b377229c10585ec392f89,626b39c6ff011d8156fe8f04,,,,,,,,,,,,,,,,,,,,,,,l,0,0.7828,"[""0.212"",""0.357"",""0.682"",""0.168""]","[1,1,1,0]",0,49,49,49,1,0,0,,,1,FALSE,,,,,,,,,,,,,,,,,,,,,,,,,,,,,,
,5aae3c75fb22320001baa633,001,2022-04-28_22h40.39.789,classification_task,2021.2.3,Linux x86_64,60.0060006,5aae3c75fb22320001baa633,626b377229c10585ec392f89,626b39c6ff011d8156fe8f04,,,,,,,,,,,,,,,,,,,,,,,a,0,1.4503,"[""0.037"",""0.093"",""0.568"",""0.620""]","[1,1,1,0]",0,50,50,50,1,1,1,,,1,FALSE,,,,,,,,,,,,,,,,,,,,,,,,,,,,,,
,5aae3c75fb22320001baa633,001,2022-04-28_22h40.39.789,classification_task,2021.2.3,Linux x86_64,60.0060006,5aae3c75fb22320001baa633,626b377229c10585ec392f89,626b39c6ff011d8156fe8f04,,,,,,,,,,,,,,,,,,,,,,,a,1,3.8334,"[""0.297"",""0.514"",""0.869"",""0.249""]","[1,1,1,0]",0,51,51,51,1,0,1,,,1,FALSE,,,,,,,,,,,,,,,,,,,,,,,,,,,,,,
,5aae3c75fb22320001baa633,001,2022-04-28_22h40.39.789,classification_task,2021.2.3,Linux x86_64,60.0060006,5aae3c75fb22320001baa633,626b377229c10585ec392f89,626b39c6ff011d8156fe8f04,,,,,,,,,,,,,,,,,,,,,,,l,1,0.8697,"[""0.131"",""0.415"",""0.475"",""0.170""]","[1,1,1,0]",0,52,52,52,1,1,0,,,1,FALSE,,,,,,,,,,,,,,,,,,,,,,,,,,,,,,
,5aae3c75fb22320001baa633,001,2022-04-28_22h40.39.789,classification_task,2021.2.3,Linux x86_64,60.0060006,5aae3c75fb22320001baa633,626b377229c10585ec392f89,626b39c6ff011d8156fe8f04,,,,,,,,,,,,,,,,,,,,,,,l,1,1.6982,"[""0.131"",""0.415"",""0.774"",""0.820""]","[1,1,0,1]",0,53,53,53,1,1,0,,,1,FALSE,,,,,,,,,,,,,,,,,,,,,,,,,,,,,,
,5aae3c75fb22320001baa633,001,2022-04-28_22h40.39.789,classification_task,2021.2.3,Linux x86_64,60.0060006,5aae3c75fb22320001baa633,626b377229c10585ec392f89,626b39c6ff011d8156fe8f04,,,,,,,,,,,,,,,,,,,,,,,l,0,0.6663,"[""0.212"",""0.357"",""0.603"",""0.921""]","[1,1,0,1]",0,54,54,54,1,0,0,,,1,FALSE,,,,,,,,,,,,,,,,,,,,,,,,,,,,,,
,5aae3c75fb22320001baa633,001,2022-04-28_22h40.39.789,classification_task,2021.2.3,Linux x86_64,60.0060006,5aae3c75fb22320001baa633,626b377229c10585ec392f89,626b39c6ff011d8156fe8f04,,,,,,,,,,,,,,,,,,,,,,,a,1,0.7669,"[""0.297"",""0.647"",""0.869"",""0.960""]","[1,0,1,1]",0,55,55,55,1,0,1,,,1,FALSE,,,,,,,,,,,,,,,,,,,,,,,,,,,,,,
,5aae3c75fb22320001baa633,001,2022-04-28_22h40.39.789,classification_task,2021.2.3,Linux x86_64,60.0060006,5aae3c75fb22320001baa633,626b377229c10585ec392f89,626b39c6ff011d8156fe8f04,,,,,,,,,,,,,,,,,,,,,,,l,1,0.8162,"[""0.131"",""0.179"",""0.475"",""0.820""]","[1,0,1,1]",0,56,56,56,1,1,0,,,1,FALSE,,,,,,,,,,,,,,,,,,,,,,,,,,,,,,
,5aae3c75fb22320001baa633,001,2022-04-28_22h40.39.789,classification_task,2021.2.3,Linux x86_64,60.0060006,5aae3c75fb22320001baa633,626b377229c10585ec392f89,626b39c6ff011d8156fe8f04,,,,,,,,,,,,,,,,,,,,,,,l,1,0.5987,"[""0.776"",""0.415"",""0.475"",""0.820""]","[0,1,1,1]",0,57,57,57,1,1,0,,,1,FALSE,,,,,,,,,,,,,,,,,,,,,,,,,,,,,,
,5aae3c75fb22320001baa633,001,2022-04-28_22h40.39.789,classification_task,2021.2.3,Linux x86_64,60.0060006,5aae3c75fb22320001baa633,626b377229c10585ec392f89,626b39c6ff011d8156fe8f04,,,,,,,,,,,,,,,,,,,,,,,a,0,2.1999,"[""0.037"",""0.093"",""0.633"",""0.739""]","[1,1,0,1]",0,58,58,58,1,1,1,,,1,FALSE,,,,,,,,,,,,,,,,,,,,,,,,,,,,,,
,5aae3c75fb22320001baa633,001,2022-04-28_22h40.39.789,classification_task,2021.2.3,Linux x86_64,60.0060006,5aae3c75fb22320001baa633,626b377229c10585ec392f89,626b39c6ff011d8156fe8f04,,,,,,,,,,,,,,,,,,,,,,,a,1,3.137,"[""0.212"",""0.620"",""0.682"",""0.921""]","[1,0,1,1]",0,59,59,59,1,0,0,,,1,FALSE,,,,,,,,,,,,,,,,,,,,,,,,,,,,,,
,5aae3c75fb22320001baa633,001,2022-04-28_22h40.39.789,classification_task,2021.2.3,Linux x86_64,60.0060006,5aae3c75fb22320001baa633,626b377229c10585ec392f89,626b39c6ff011d8156fe8f04,,,,,,,,,,,,,,,,,,,,,,,a,0,2.7533,"[""0.249"",""0.093"",""0.568"",""0.739""]","[0,1,1,1]",0,60,60,60,1,1,1,,,1,FALSE,,,,,,,,,,,,,,,,,,,,,,,,,,,,,,
,5aae3c75fb22320001baa633,001,2022-04-28_22h40.39.789,classification_task,2021.2.3,Linux x86_64,60.0060006,5aae3c75fb22320001baa633,626b377229c10585ec392f89,626b39c6ff011d8156fe8f04,,,,,,,,,,,,,,,,,,,,,,,l,0,3.7202,"[""0.603"",""0.357"",""0.682"",""0.921""]","[0,1,1,1]",0,61,61,61,1,0,0,,,1,FALSE,,,,,,,,,,,,,,,,,,,,,,,,,,,,,,
,5aae3c75fb22320001baa633,001,2022-04-28_22h40.39.789,classification_task,2021.2.3,Linux x86_64,60.0060006,5aae3c75fb22320001baa633,626b377229c10585ec392f89,626b39c6ff011d8156fe8f04,,,,,,,,,,,,,,,,,,,,,,,a,0,2.2201,"[""0.037"",""0.776"",""0.568"",""0.739""]","[1,0,1,1]",0,62,62,62,1,1,1,,,1,FALSE,,,,,,,,,,,,,,,,,,,,,,,,,,,,,,
,5aae3c75fb22320001baa633,001,2022-04-28_22h40.39.789,classification_task,2021.2.3,Linux x86_64,60.0060006,5aae3c75fb22320001baa633,626b377229c10585ec392f89,626b39c6ff011d8156fe8f04,,,,,,,,,,,,,,,,,,,,,,,l,0,0.8716,"[""0.297"",""0.514"",""0.620"",""0.960""]","[1,1,0,1]",0,63,63,63,1,0,1,,,1,FALSE,,,,,,,,,,,,,,,,,,,,,,,,,,,,,,
,5aae3c75fb22320001baa633,001,2022-04-28_22h40.39.789,classification_task,2021.2.3,Linux x86_64,60.0060006,5aae3c75fb22320001baa633,626b377229c10585ec392f89,626b39c6ff011d8156fe8f04,,,,,,,,,,,,,,,,,,,,,,,,,,,,,,,,,,,,,,,0, ,,0,0.553150799,165.0986,0,2,2,2,1,2,3,,,,,,,,,,,,,,,,,
,5aae3c75fb22320001baa633,001,2022-04-28_22h40.39.789,classification_task,2021.2.3,Linux x86_64,60.0060006,5aae3c75fb22320001baa633,626b377229c10585ec392f89,626b39c6ff011d8156fe8f04,,,,,,,,,,,,,,,,,,,,,,,,,,,,,,,,,,,,,,,1,  ,,0,4.701144203,174.2128,0,2,2,2,1,2,3,,,,,,,,,,,,,,,,,
,5aae3c75fb22320001baa633,001,2022-04-28_22h40.39.789,classification_task,2021.2.3,Linux x86_64,60.0060006,5aae3c75fb22320001baa633,626b377229c10585ec392f89,626b39c6ff011d8156fe8f04,,,,,,,,,,,,,,,,,,,,,,,,,,,,,,,,,,,,,,,2,  ,,0,5.053316197,173.0314,0,2,2,2,1,2,3,,,,,,,,,,,,,,,,,
,5aae3c75fb22320001baa633,001,2022-04-28_22h40.39.789,classification_task,2021.2.3,Linux x86_64,60.0060006,5aae3c75fb22320001baa633,626b377229c10585ec392f89,626b39c6ff011d8156fe8f04,,,,,,,,,,,,,,,,,,,,,,,,,,,,,,,,,,,,,,,,,,,,,0,2,2,2,1,,3,,,,,,,,,,,,,,,,,
,5aae3c75fb22320001baa633,001,2022-04-28_22h40.39.789,classification_task,2021.2.3,Linux x86_64,60.0060006,5aae3c75fb22320001baa633,626b377229c10585ec392f89,626b39c6ff011d8156fe8f04,,,,,,,,,,,,,,,,,,,,,,,,,,,,,,,,,,,,,,,,,,,,,,,,,,,,,I believe the aid is a competent performer,,0.7,0,4,867.5775,0,0,0,0,1,0,,,,
,5aae3c75fb22320001baa633,001,2022-04-28_22h40.39.789,classification_task,2021.2.3,Linux x86_64,60.0060006,5aae3c75fb22320001baa633,626b377229c10585ec392f89,626b39c6ff011d8156fe8f04,,,,,,,,,,,,,,,,,,,,,,,,,,,,,,,,,,,,,,,,,,,,,,,,,,,,,I trust the aid,,0.7,0,5,868.6001,0,0,0,0,1,0,,,,
,5aae3c75fb22320001baa633,001,2022-04-28_22h40.39.789,classification_task,2021.2.3,Linux x86_64,60.0060006,5aae3c75fb22320001baa633,626b377229c10585ec392f89,626b39c6ff011d8156fe8f04,,,,,,,,,,,,,,,,,,,,,,,,,,,,,,,,,,,,,,,,,,,,,,,,,,,,,I have confidence in the advice given by the aid,,0.7,0,4,869.6744,0,0,0,0,1,0,,,,
,5aae3c75fb22320001baa633,001,2022-04-28_22h40.39.789,classification_task,2021.2.3,Linux x86_64,60.0060006,5aae3c75fb22320001baa633,626b377229c10585ec392f89,626b39c6ff011d8156fe8f04,,,,,,,,,,,,,,,,,,,,,,,,,,,,,,,,,,,,,,,,,,,,,,,,,,,,,I can depend on the aid,,0.7,0,5,870.6902,0,0,0,0,1,0,,,,
,5aae3c75fb22320001baa633,001,2022-04-28_22h40.39.789,classification_task,2021.2.3,Linux x86_64,60.0060006,5aae3c75fb22320001baa633,626b377229c10585ec392f89,626b39c6ff011d8156fe8f04,,,,,,,,,,,,,,,,,,,,,,,,,,,,,,,,,,,,,,,,,,,,,,,,,,,,,I can rely on the aid to behave in consistent ways,,0.7,0,5,872.5813,0,0,0,0,1,0,,,,
,5aae3c75fb22320001baa633,001,2022-04-28_22h40.39.789,classification_task,2021.2.3,Linux x86_64,60.0060006,5aae3c75fb22320001baa633,626b377229c10585ec392f89,626b39c6ff011d8156fe8f04,,,,,,,,,,,,,,,,,,,,,,,,,,,,,,,,,,,,,,,,,,,,,,,,,,,,,I can rely on the aid to do its best every time I take its advice,,0.7,0,5,874.007,0,0,0,0,1,0,,,,
,5aae3c75fb22320001baa633,001,2022-04-28_22h40.39.789,classification_task,2021.2.3,Linux x86_64,60.0060006,5aae3c75fb22320001baa633,626b377229c10585ec392f89,626b39c6ff011d8156fe8f04,,,,,,,,,,,,,,,,,,,,,,,,,,,,,,,,,,,,,,,,,,,,,,,,,,,,,"On trials you completed with assistance from the aid, how frequently did you think the aid was correct?",,0.7,0,100%,,0,0,0,0,1,0,,,,
,5aae3c75fb22320001baa633,001,2022-04-28_22h40.39.789,classification_task,2021.2.3,Linux x86_64,60.0060006,5aae3c75fb22320001baa633,626b377229c10585ec392f89,626b39c6ff011d8156fe8f04,,,,,,,,,,,,,,,,,,,,,,,,,,,,,,,,,,,,,,,,,,,,,,,,,,,,,"On trials you completed without the aid, how frequently did you think you were correct?",,0.7,0,100%,,0,0,0,0,1,0,,,,
,5aae3c75fb22320001baa633,001,2022-04-28_22h40.39.789,classification_task,2021.2.3,Linux x86_64,60.0060006,5aae3c75fb22320001baa633,626b377229c10585ec392f89,626b39c6ff011d8156fe8f04,,,,,,,,,,,,,,,,,,,,,,,,,,,,,,,,,,,,,,,,,,,,,,,,,,,,,,,,,,,0,0,0,0,1,,,,,
,5aae3c75fb22320001baa633,001,2022-04-28_22h40.39.789,classification_task,2021.2.3,Linux x86_64,60.0060006,5aae3c75fb22320001baa633,626b377229c10585ec392f89,626b39c6ff011d8156fe8f04,,,,,,,,,,,,,,,,,,,,,,,,,,,,,,,,,,,,,,,,,,,,,,,,,,,,,,,,,,,,,,,,,space,8.5182,901.4348,
,5aae3c75fb22320001baa633,001,2022-04-28_22h40.39.789,classification_task,2021.2.3,Linux x86_64,60.0060006,5aae3c75fb22320001baa633,626b377229c10585ec392f89,626b39c6ff011d8156fe8f04,,,,,,,,,,,,,,,,,,,,,,,,,,,,,,,,,,,,,,,,,,,,,,,,,,,,,,,,,,,,,,,,,,,,"Mozilla/5.0 (X11; CrOS x86_64 14526.89.0) AppleWebKit/537.36 (KHTML, like Gecko) Chrome/100.0.4896.133 Safari/537.36"
