usingWebGL,participant,session,date,expName,psychopyVersion,OS,frameRate,PROLIFIC_PID,STUDY_ID,SESSION_ID,signatures_friend,signatures_foe,band_ranges_top,band_ranges_bottom,formitemText,formtype,formundefined,formitemWidth,formindex,formresponse,formrt,key_resp_2.keys,key_resp_2.rt,tute_resp.keys,tute_resp.rt,tutorial.thisRepN,tutorial.thisTrialN,tutorial.thisN,tutorial.thisIndex,tutorial.ran,key_resp_4.keys,key_resp_4.rt,key_resp.keys,key_resp.corr,key_resp.rt,lines_presented,is_signal_presented,trials.thisRepN,trials.thisTrialN,trials.thisN,trials.thisIndex,trials.ran,vessel,active_band,lines,is_signal,supported_pos,catch_trial,debrief_formindex,debrief_formitemText,debrief_formtype,debrief_formitemWidth,debrief_formresponse,debrief_formrt,phases.thisRepN,phases.thisTrialN,phases.thisN,phases.thisIndex,phases.ran,phases.order,phase,key_resp_3.keys,trustitemText,trusttype,trustitemWidth,trustindex,trustresponse,trustrt,support_status.thisRepN,support_status.thisTrialN,support_status.thisN,support_status.thisIndex,support_status.ran,support_status.order,key_resp_5.keys,key_resp_5.rt,globalClockTime,userAgent
TRUE,5ae7cdd9a0e4390001f08f12,001,2022-04-28_21h14.43.241,classification_task,2021.2.3,Win32,59.80503558,5ae7cdd9a0e4390001f08f12,626b377229c10585ec392f8a,626b3be7b0c628ea2af49a9b,,,,,,,,,,,,,,,,,,,,,,,,,,,,,,,,,,,,,,,,,,,,,,,,,,,,,,,,,,,,,,,,,,,,
,5ae7cdd9a0e4390001f08f12,001,2022-04-28_21h14.43.241,classification_task,2021.2.3,Win32,59.80503558,5ae7cdd9a0e4390001f08f12,626b377229c10585ec392f8a,626b3be7b0c628ea2af49a9b,"[[""0.215"",""0.507"",""0.741"",""0.961""],[""0.178"",""0.354"",""0.706"",""0.886""]]","[[""0.143"",""0.434"",""0.586"",""0.787""],[""0.060"",""0.253"",""0.668"",""0.827""]]","[1,10]","[100,1000]",Video game experience,,,0.7,0,,,,,,,,,,,,,,,,,,,,,,,,,,,,,,,,,,,,,,,,,,,,,,,,,,,,,,,,,,,
,5ae7cdd9a0e4390001f08f12,001,2022-04-28_21h14.43.241,classification_task,2021.2.3,Win32,59.80503558,5ae7cdd9a0e4390001f08f12,626b377229c10585ec392f8a,626b3be7b0c628ea2af49a9b,,,,,Approximately how many hours did you spend playing video games in the last week?,,,0.7,0,0,,,,,,,,,,,,,,,,,,,,,,,,,,,,,,,,,,,,,,,,,,,,,,,,,,,,,,,,,,
,5ae7cdd9a0e4390001f08f12,001,2022-04-28_21h14.43.241,classification_task,2021.2.3,Win32,59.80503558,5ae7cdd9a0e4390001f08f12,626b377229c10585ec392f8a,626b3be7b0c628ea2af49a9b,,,,,"Which game did you play the most this year? (Enter ""None"" if you didn't play any)",,,0.7,0,none,,,,,,,,,,,,,,,,,,,,,,,,,,,,,,,,,,,,,,,,,,,,,,,,,,,,,,,,,,
,5ae7cdd9a0e4390001f08f12,001,2022-04-28_21h14.43.241,classification_task,2021.2.3,Win32,59.80503558,5ae7cdd9a0e4390001f08f12,626b377229c10585ec392f8a,626b3be7b0c628ea2af49a9b,,,,,Visual perception,,,0.7,0,,,,,,,,,,,,,,,,,,,,,,,,,,,,,,,,,,,,,,,,,,,,,,,,,,,,,,,,,,,
,5ae7cdd9a0e4390001f08f12,001,2022-04-28_21h14.43.241,classification_task,2021.2.3,Win32,59.80503558,5ae7cdd9a0e4390001f08f12,626b377229c10585ec392f8a,626b3be7b0c628ea2af49a9b,,,,,Do you have any form of color blindness?,,,0.7,0,No,17.9042,,,,,,,,,,,,,,,,,,,,,,,,,,,,,,,,,,,,,,,,,,,,,,,,,,,,,,,,,
,5ae7cdd9a0e4390001f08f12,001,2022-04-28_21h14.43.241,classification_task,2021.2.3,Win32,59.80503558,5ae7cdd9a0e4390001f08f12,626b377229c10585ec392f8a,626b3be7b0c628ea2af49a9b,,,,,Do you use software to change the colour temperature of your screen (e.g. f.lux)?,,,0.7,0,Yes,22.7603,,,,,,,,,,,,,,,,,,,,,,,,,,,,,,,,,,,,,,,,,,,,,,,,,,,,,,,,,
,5ae7cdd9a0e4390001f08f12,001,2022-04-28_21h14.43.241,classification_task,2021.2.3,Win32,59.80503558,5ae7cdd9a0e4390001f08f12,626b377229c10585ec392f8a,626b3be7b0c628ea2af49a9b,,,,,,,,,,,,space,34.5088,space,10.2811,0,0,0,0,1,,,,,,,,,,,,,,,,,,,,,,,,,,,,,,,,,,,,,,,,,,,,,,,,
,5ae7cdd9a0e4390001f08f12,001,2022-04-28_21h14.43.241,classification_task,2021.2.3,Win32,59.80503558,5ae7cdd9a0e4390001f08f12,626b377229c10585ec392f8a,626b3be7b0c628ea2af49a9b,,,,,,,,,,,,,,space,11.3952,1,0,1,0,1,,,,,,,,,,,,,,,,,,,,,,,,,,,,,,,,,,,,,,,,,,,,,,,,
,5ae7cdd9a0e4390001f08f12,001,2022-04-28_21h14.43.241,classification_task,2021.2.3,Win32,59.80503558,5ae7cdd9a0e4390001f08f12,626b377229c10585ec392f8a,626b3be7b0c628ea2af49a9b,,,,,,,,,,,,,,space,37.377,2,0,2,0,1,,,,,,,,,,,,,,,,,,,,,,,,,,,,,,,,,,,,,,,,,,,,,,,,
,5ae7cdd9a0e4390001f08f12,001,2022-04-28_21h14.43.241,classification_task,2021.2.3,Win32,59.80503558,5ae7cdd9a0e4390001f08f12,626b377229c10585ec392f8a,626b3be7b0c628ea2af49a9b,,,,,,,,,,,,,,space,20.9796,3,0,3,0,1,,,,,,,,,,,,,,,,,,,,,,,,,,,,,,,,,,,,,,,,,,,,,,,,
,5ae7cdd9a0e4390001f08f12,001,2022-04-28_21h14.43.241,classification_task,2021.2.3,Win32,59.80503558,5ae7cdd9a0e4390001f08f12,626b377229c10585ec392f8a,626b3be7b0c628ea2af49a9b,,,,,,,,,,,,,,space,14.2104,4,0,4,0,1,,,,,,,,,,,,,,,,,,,,,,,,,,,,,,,,,,,,,,,,,,,,,,,,
,5ae7cdd9a0e4390001f08f12,001,2022-04-28_21h14.43.241,classification_task,2021.2.3,Win32,59.80503558,5ae7cdd9a0e4390001f08f12,626b377229c10585ec392f8a,626b3be7b0c628ea2af49a9b,,,,,,,,,,,,,,,,,,,,,space,17.4631,l,1,5.0329,"[""0.060"",""0.294"",""0.668"",""0.827""]","[1,0,1,1]",0,0,0,0,1,1,1,,,1,FALSE,,,,,,,,,,,,,,,,,,,,,,,,,,,,,,
,5ae7cdd9a0e4390001f08f12,001,2022-04-28_21h14.43.241,classification_task,2021.2.3,Win32,59.80503558,5ae7cdd9a0e4390001f08f12,626b377229c10585ec392f8a,626b3be7b0c628ea2af49a9b,,,,,,,,,,,,,,,,,,,,,,,,0,,"[""0.633"",""0.253"",""0.668"",""0.827""]","[0,1,1,1]",0,1,1,1,1,1,1,,,1,FALSE,,,,,,,,,,,,,,,,,,,,,,,,,,,,,,
,5ae7cdd9a0e4390001f08f12,001,2022-04-28_21h14.43.241,classification_task,2021.2.3,Win32,59.80503558,5ae7cdd9a0e4390001f08f12,626b377229c10585ec392f8a,626b3be7b0c628ea2af49a9b,,,,,,,,,,,,,,,,,,,,,,,a,1,7.1007,"[""0.178"",""0.354"",""0.706"",""0.391""]","[1,1,1,0]",0,2,2,2,1,0,1,,,1,FALSE,,,,,,,,,,,,,,,,,,,,,,,,,,,,,,
,5ae7cdd9a0e4390001f08f12,001,2022-04-28_21h14.43.241,classification_task,2021.2.3,Win32,59.80503558,5ae7cdd9a0e4390001f08f12,626b377229c10585ec392f8a,626b3be7b0c628ea2af49a9b,,,,,,,,,,,,,,,,,,,,,,,a,1,5.2162,"[""0.178"",""0.318"",""0.706"",""0.886""]","[1,0,1,1]",0,3,3,3,1,0,1,,,1,FALSE,,,,,,,,,,,,,,,,,,,,,,,,,,,,,,
,5ae7cdd9a0e4390001f08f12,001,2022-04-28_21h14.43.241,classification_task,2021.2.3,Win32,59.80503558,5ae7cdd9a0e4390001f08f12,626b377229c10585ec392f8a,626b3be7b0c628ea2af49a9b,,,,,,,,,,,,,,,,,,,,,,,a,1,5.3167,"[""0.215"",""0.507"",""0.109"",""0.961""]","[1,1,0,1]",0,4,4,4,1,0,0,,,1,FALSE,,,,,,,,,,,,,,,,,,,,,,,,,,,,,,
,5ae7cdd9a0e4390001f08f12,001,2022-04-28_21h14.43.241,classification_task,2021.2.3,Win32,59.80503558,5ae7cdd9a0e4390001f08f12,626b377229c10585ec392f8a,626b3be7b0c628ea2af49a9b,,,,,,,,,,,,,,,,,,,,,,,l,1,5.1504,"[""0.026"",""0.434"",""0.586"",""0.787""]","[0,1,1,1]",0,5,5,5,1,1,0,,,1,FALSE,,,,,,,,,,,,,,,,,,,,,,,,,,,,,,
,5ae7cdd9a0e4390001f08f12,001,2022-04-28_21h14.43.241,classification_task,2021.2.3,Win32,59.80503558,5ae7cdd9a0e4390001f08f12,626b377229c10585ec392f8a,626b3be7b0c628ea2af49a9b,,,,,,,,,,,,,,,,,,,,,,,a,1,4.2842,"[""0.623"",""0.507"",""0.741"",""0.961""]","[0,1,1,1]",0,6,6,6,1,0,0,,,1,FALSE,,,,,,,,,,,,,,,,,,,,,,,,,,,,,,
,5ae7cdd9a0e4390001f08f12,001,2022-04-28_21h14.43.241,classification_task,2021.2.3,Win32,59.80503558,5ae7cdd9a0e4390001f08f12,626b377229c10585ec392f8a,626b3be7b0c628ea2af49a9b,,,,,,,,,,,,,,,,,,,,,,,a,1,5.5837,"[""0.294"",""0.354"",""0.706"",""0.886""]","[0,1,1,1]",0,7,7,7,1,0,1,,,1,FALSE,,,,,,,,,,,,,,,,,,,,,,,,,,,,,,
,5ae7cdd9a0e4390001f08f12,001,2022-04-28_21h14.43.241,classification_task,2021.2.3,Win32,59.80503558,5ae7cdd9a0e4390001f08f12,626b377229c10585ec392f8a,626b3be7b0c628ea2af49a9b,,,,,,,,,,,,,,,,,,,,,,,l,1,9.7004,"[""0.060"",""0.253"",""0.668"",""0.292""]","[1,1,1,0]",0,8,8,8,1,1,1,,,1,FALSE,,,,,,,,,,,,,,,,,,,,,,,,,,,,,,
,5ae7cdd9a0e4390001f08f12,001,2022-04-28_21h14.43.241,classification_task,2021.2.3,Win32,59.80503558,5ae7cdd9a0e4390001f08f12,626b377229c10585ec392f8a,626b3be7b0c628ea2af49a9b,,,,,,,,,,,,,,,,,,,,,,,l,1,8.2585,"[""0.143"",""0.633"",""0.586"",""0.787""]","[1,0,1,1]",0,9,9,9,1,1,0,,,1,FALSE,,,,,,,,,,,,,,,,,,,,,,,,,,,,,,
,5ae7cdd9a0e4390001f08f12,001,2022-04-28_21h14.43.241,classification_task,2021.2.3,Win32,59.80503558,5ae7cdd9a0e4390001f08f12,626b377229c10585ec392f8a,626b3be7b0c628ea2af49a9b,,,,,,,,,,,,,,,,,,,,,,,l,1,7.3173,"[""0.143"",""0.434"",""0.294"",""0.787""]","[1,1,0,1]",0,10,10,10,1,1,0,,,1,FALSE,,,,,,,,,,,,,,,,,,,,,,,,,,,,,,
,5ae7cdd9a0e4390001f08f12,001,2022-04-28_21h14.43.241,classification_task,2021.2.3,Win32,59.80503558,5ae7cdd9a0e4390001f08f12,626b377229c10585ec392f8a,626b3be7b0c628ea2af49a9b,,,,,,,,,,,,,,,,,,,,,,,a,1,5.9684,"[""0.215"",""0.507"",""0.741"",""0.927""]","[1,1,1,0]",0,11,11,11,1,0,0,,,1,FALSE,,,,,,,,,,,,,,,,,,,,,,,,,,,,,,
,5ae7cdd9a0e4390001f08f12,001,2022-04-28_21h14.43.241,classification_task,2021.2.3,Win32,59.80503558,5ae7cdd9a0e4390001f08f12,626b377229c10585ec392f8a,626b3be7b0c628ea2af49a9b,,,,,,,,,,,,,,,,,,,,,,,a,1,5.8494,"[""0.178"",""0.354"",""0.109"",""0.886""]","[1,1,0,1]",0,12,12,12,1,0,1,,,1,FALSE,,,,,,,,,,,,,,,,,,,,,,,,,,,,,,
,5ae7cdd9a0e4390001f08f12,001,2022-04-28_21h14.43.241,classification_task,2021.2.3,Win32,59.80503558,5ae7cdd9a0e4390001f08f12,626b377229c10585ec392f8a,626b3be7b0c628ea2af49a9b,,,,,,,,,,,,,,,,,,,,,,,a,1,6.0829,"[""0.215"",""0.468"",""0.741"",""0.961""]","[1,0,1,1]",0,13,13,13,1,0,0,,,1,FALSE,,,,,,,,,,,,,,,,,,,,,,,,,,,,,,
,5ae7cdd9a0e4390001f08f12,001,2022-04-28_21h14.43.241,classification_task,2021.2.3,Win32,59.80503558,5ae7cdd9a0e4390001f08f12,626b377229c10585ec392f8a,626b3be7b0c628ea2af49a9b,,,,,,,,,,,,,,,,,,,,,,,l,1,3.7831,"[""0.143"",""0.434"",""0.586"",""0.289""]","[1,1,1,0]",0,14,14,14,1,1,0,,,1,FALSE,,,,,,,,,,,,,,,,,,,,,,,,,,,,,,
,5ae7cdd9a0e4390001f08f12,001,2022-04-28_21h14.43.241,classification_task,2021.2.3,Win32,59.80503558,5ae7cdd9a0e4390001f08f12,626b377229c10585ec392f8a,626b3be7b0c628ea2af49a9b,,,,,,,,,,,,,,,,,,,,,,,l,1,6.5488,"[""0.060"",""0.253"",""0.095"",""0.827""]","[1,1,0,1]",0,15,15,15,1,1,1,,,1,FALSE,,,,,,,,,,,,,,,,,,,,,,,,,,,,,,
,5ae7cdd9a0e4390001f08f12,001,2022-04-28_21h14.43.241,classification_task,2021.2.3,Win32,59.80503558,5ae7cdd9a0e4390001f08f12,626b377229c10585ec392f8a,626b3be7b0c628ea2af49a9b,,,,,,,,,,,,,,,,,,,,,,,a,1,7.6811,"[""0.095"",""0.507"",""0.741"",""0.961""]","[0,1,1,1]",0,16,16,16,1,0,0,,,1,FALSE,,,,,,,,,,,,,,,,,,,,,,,,,,,,,,
,5ae7cdd9a0e4390001f08f12,001,2022-04-28_21h14.43.241,classification_task,2021.2.3,Win32,59.80503558,5ae7cdd9a0e4390001f08f12,626b377229c10585ec392f8a,626b3be7b0c628ea2af49a9b,,,,,,,,,,,,,,,,,,,,,,,a,1,7.5642,"[""0.178"",""0.354"",""0.391"",""0.886""]","[1,1,0,1]",0,17,17,17,1,0,1,,,1,FALSE,,,,,,,,,,,,,,,,,,,,,,,,,,,,,,
,5ae7cdd9a0e4390001f08f12,001,2022-04-28_21h14.43.241,classification_task,2021.2.3,Win32,59.80503558,5ae7cdd9a0e4390001f08f12,626b377229c10585ec392f8a,626b3be7b0c628ea2af49a9b,,,,,,,,,,,,,,,,,,,,,,,l,1,4.3462,"[""0.927"",""0.434"",""0.586"",""0.787""]","[0,1,1,1]",0,18,18,18,1,1,0,,,1,FALSE,,,,,,,,,,,,,,,,,,,,,,,,,,,,,,
,5ae7cdd9a0e4390001f08f12,001,2022-04-28_21h14.43.241,classification_task,2021.2.3,Win32,59.80503558,5ae7cdd9a0e4390001f08f12,626b377229c10585ec392f8a,626b3be7b0c628ea2af49a9b,,,,,,,,,,,,,,,,,,,,,,,a,1,5.55,"[""0.215"",""0.507"",""0.741"",""0.294""]","[1,1,1,0]",0,19,19,19,1,0,0,,,1,FALSE,,,,,,,,,,,,,,,,,,,,,,,,,,,,,,
,5ae7cdd9a0e4390001f08f12,001,2022-04-28_21h14.43.241,classification_task,2021.2.3,Win32,59.80503558,5ae7cdd9a0e4390001f08f12,626b377229c10585ec392f8a,626b3be7b0c628ea2af49a9b,,,,,,,,,,,,,,,,,,,,,,,l,1,4.8793,"[""0.060"",""0.301"",""0.668"",""0.827""]","[1,0,1,1]",0,20,20,20,1,1,1,,,1,FALSE,,,,,,,,,,,,,,,,,,,,,,,,,,,,,,
,5ae7cdd9a0e4390001f08f12,001,2022-04-28_21h14.43.241,classification_task,2021.2.3,Win32,59.80503558,5ae7cdd9a0e4390001f08f12,626b377229c10585ec392f8a,626b3be7b0c628ea2af49a9b,,,,,,,,,,,,,,,,,,,,,,,a,1,7.3318,"[""0.215"",""0.507"",""0.318"",""0.961""]","[1,1,0,1]",0,21,21,21,1,0,0,,,1,FALSE,,,,,,,,,,,,,,,,,,,,,,,,,,,,,,
,5ae7cdd9a0e4390001f08f12,001,2022-04-28_21h14.43.241,classification_task,2021.2.3,Win32,59.80503558,5ae7cdd9a0e4390001f08f12,626b377229c10585ec392f8a,626b3be7b0c628ea2af49a9b,,,,,,,,,,,,,,,,,,,,,,,l,1,7.1149,"[""0.060"",""0.253"",""0.294"",""0.827""]","[1,1,0,1]",0,22,22,22,1,1,1,,,1,FALSE,,,,,,,,,,,,,,,,,,,,,,,,,,,,,,
,5ae7cdd9a0e4390001f08f12,001,2022-04-28_21h14.43.241,classification_task,2021.2.3,Win32,59.80503558,5ae7cdd9a0e4390001f08f12,626b377229c10585ec392f8a,626b3be7b0c628ea2af49a9b,,,,,,,,,,,,,,,,,,,,,,,a,1,4.9848,"[""0.318"",""0.354"",""0.706"",""0.886""]","[0,1,1,1]",0,23,23,23,1,0,1,,,1,FALSE,,,,,,,,,,,,,,,,,,,,,,,,,,,,,,
,5ae7cdd9a0e4390001f08f12,001,2022-04-28_21h14.43.241,classification_task,2021.2.3,Win32,59.80503558,5ae7cdd9a0e4390001f08f12,626b377229c10585ec392f8a,626b3be7b0c628ea2af49a9b,,,,,,,,,,,,,,,,,,,,,,,l,1,6.2004,"[""0.060"",""0.253"",""0.668"",""0.318""]","[1,1,1,0]",0,24,24,24,1,1,1,,,1,FALSE,,,,,,,,,,,,,,,,,,,,,,,,,,,,,,
,5ae7cdd9a0e4390001f08f12,001,2022-04-28_21h14.43.241,classification_task,2021.2.3,Win32,59.80503558,5ae7cdd9a0e4390001f08f12,626b377229c10585ec392f8a,626b3be7b0c628ea2af49a9b,,,,,,,,,,,,,,,,,,,,,,,l,1,4.53,"[""0.143"",""0.434"",""0.586"",""0.026""]","[1,1,1,0]",0,25,25,25,1,1,0,,,1,FALSE,,,,,,,,,,,,,,,,,,,,,,,,,,,,,,
,5ae7cdd9a0e4390001f08f12,001,2022-04-28_21h14.43.241,classification_task,2021.2.3,Win32,59.80503558,5ae7cdd9a0e4390001f08f12,626b377229c10585ec392f8a,626b3be7b0c628ea2af49a9b,,,,,,,,,,,,,,,,,,,,,,,l,1,2.4508,"[""0.143"",""0.101"",""0.586"",""0.787""]","[1,0,1,1]",0,26,26,26,1,1,0,,,1,FALSE,,,,,,,,,,,,,,,,,,,,,,,,,,,,,,
,5ae7cdd9a0e4390001f08f12,001,2022-04-28_21h14.43.241,classification_task,2021.2.3,Win32,59.80503558,5ae7cdd9a0e4390001f08f12,626b377229c10585ec392f8a,626b3be7b0c628ea2af49a9b,,,,,,,,,,,,,,,,,,,,,,,a,1,4.7654,"[""0.178"",""0.354"",""0.706"",""0.927""]","[1,1,1,0]",0,27,27,27,1,0,1,,,1,FALSE,,,,,,,,,,,,,,,,,,,,,,,,,,,,,,
,5ae7cdd9a0e4390001f08f12,001,2022-04-28_21h14.43.241,classification_task,2021.2.3,Win32,59.80503558,5ae7cdd9a0e4390001f08f12,626b377229c10585ec392f8a,626b3be7b0c628ea2af49a9b,,,,,,,,,,,,,,,,,,,,,,,l,1,3.315,"[""0.143"",""0.434"",""0.623"",""0.787""]","[1,1,0,1]",0,28,28,28,1,1,0,,,1,FALSE,,,,,,,,,,,,,,,,,,,,,,,,,,,,,,
,5ae7cdd9a0e4390001f08f12,001,2022-04-28_21h14.43.241,classification_task,2021.2.3,Win32,59.80503558,5ae7cdd9a0e4390001f08f12,626b377229c10585ec392f8a,626b3be7b0c628ea2af49a9b,,,,,,,,,,,,,,,,,,,,,,,l,1,7.8666,"[""0.294"",""0.253"",""0.668"",""0.827""]","[0,1,1,1]",0,29,29,29,1,1,1,,,1,FALSE,,,,,,,,,,,,,,,,,,,,,,,,,,,,,,
,5ae7cdd9a0e4390001f08f12,001,2022-04-28_21h14.43.241,classification_task,2021.2.3,Win32,59.80503558,5ae7cdd9a0e4390001f08f12,626b377229c10585ec392f8a,626b3be7b0c628ea2af49a9b,,,,,,,,,,,,,,,,,,,,,,,a,1,7.3999,"[""0.215"",""0.289"",""0.741"",""0.961""]","[1,0,1,1]",0,30,30,30,1,0,0,,,1,FALSE,,,,,,,,,,,,,,,,,,,,,,,,,,,,,,
,5ae7cdd9a0e4390001f08f12,001,2022-04-28_21h14.43.241,classification_task,2021.2.3,Win32,59.80503558,5ae7cdd9a0e4390001f08f12,626b377229c10585ec392f8a,626b3be7b0c628ea2af49a9b,,,,,,,,,,,,,,,,,,,,,,,a,1,9.3321,"[""0.178"",""0.318"",""0.706"",""0.886""]","[1,0,1,1]",0,31,31,31,1,0,1,,,1,FALSE,,,,,,,,,,,,,,,,,,,,,,,,,,,,,,
,5ae7cdd9a0e4390001f08f12,001,2022-04-28_21h14.43.241,classification_task,2021.2.3,Win32,59.80503558,5ae7cdd9a0e4390001f08f12,626b377229c10585ec392f8a,626b3be7b0c628ea2af49a9b,,,,,,,,,,,,,,,,,,,,,,,a,0,9.2159,"[""0.143"",""0.434"",""0.109"",""0.787""]","[1,1,0,1]",0,32,32,32,1,1,0,,,1,FALSE,,,,,,,,,,,,,,,,,,,,,,,,,,,,,,
,5ae7cdd9a0e4390001f08f12,001,2022-04-28_21h14.43.241,classification_task,2021.2.3,Win32,59.80503558,5ae7cdd9a0e4390001f08f12,626b377229c10585ec392f8a,626b3be7b0c628ea2af49a9b,,,,,,,,,,,,,,,,,,,,,,,a,0,4.7001,"[""0.060"",""0.391"",""0.668"",""0.827""]","[1,0,1,1]",0,33,33,33,1,1,1,,,1,FALSE,,,,,,,,,,,,,,,,,,,,,,,,,,,,,,
,5ae7cdd9a0e4390001f08f12,001,2022-04-28_21h14.43.241,classification_task,2021.2.3,Win32,59.80503558,5ae7cdd9a0e4390001f08f12,626b377229c10585ec392f8a,626b3be7b0c628ea2af49a9b,,,,,,,,,,,,,,,,,,,,,,,l,0,2.2831,"[""0.178"",""0.354"",""0.706"",""0.468""]","[1,1,1,0]",0,34,34,34,1,0,1,,,1,FALSE,,,,,,,,,,,,,,,,,,,,,,,,,,,,,,
,5ae7cdd9a0e4390001f08f12,001,2022-04-28_21h14.43.241,classification_task,2021.2.3,Win32,59.80503558,5ae7cdd9a0e4390001f08f12,626b377229c10585ec392f8a,626b3be7b0c628ea2af49a9b,,,,,,,,,,,,,,,,,,,,,,,l,0,5.3168,"[""0.178"",""0.354"",""0.623"",""0.886""]","[1,1,0,1]",0,35,35,35,1,0,1,,,1,FALSE,,,,,,,,,,,,,,,,,,,,,,,,,,,,,,
,5ae7cdd9a0e4390001f08f12,001,2022-04-28_21h14.43.241,classification_task,2021.2.3,Win32,59.80503558,5ae7cdd9a0e4390001f08f12,626b377229c10585ec392f8a,626b3be7b0c628ea2af49a9b,,,,,,,,,,,,,,,,,,,,,,,l,1,4.6679,"[""0.143"",""0.292"",""0.586"",""0.787""]","[1,0,1,1]",0,36,36,36,1,1,0,,,1,FALSE,,,,,,,,,,,,,,,,,,,,,,,,,,,,,,
,5ae7cdd9a0e4390001f08f12,001,2022-04-28_21h14.43.241,classification_task,2021.2.3,Win32,59.80503558,5ae7cdd9a0e4390001f08f12,626b377229c10585ec392f8a,626b3be7b0c628ea2af49a9b,,,,,,,,,,,,,,,,,,,,,,,a,0,1.9679,"[""0.060"",""0.253"",""0.668"",""0.301""]","[1,1,1,0]",0,37,37,37,1,1,1,,,1,FALSE,,,,,,,,,,,,,,,,,,,,,,,,,,,,,,
,5ae7cdd9a0e4390001f08f12,001,2022-04-28_21h14.43.241,classification_task,2021.2.3,Win32,59.80503558,5ae7cdd9a0e4390001f08f12,626b377229c10585ec392f8a,626b3be7b0c628ea2af49a9b,,,,,,,,,,,,,,,,,,,,,,,a,1,3.5316,"[""0.178"",""0.294"",""0.706"",""0.886""]","[1,0,1,1]",0,38,38,38,1,0,1,,,1,FALSE,,,,,,,,,,,,,,,,,,,,,,,,,,,,,,
,5ae7cdd9a0e4390001f08f12,001,2022-04-28_21h14.43.241,classification_task,2021.2.3,Win32,59.80503558,5ae7cdd9a0e4390001f08f12,626b377229c10585ec392f8a,626b3be7b0c628ea2af49a9b,,,,,,,,,,,,,,,,,,,,,,,a,1,3.7837,"[""0.101"",""0.507"",""0.741"",""0.961""]","[0,1,1,1]",0,39,39,39,1,0,0,,,1,FALSE,,,,,,,,,,,,,,,,,,,,,,,,,,,,,,
,5ae7cdd9a0e4390001f08f12,001,2022-04-28_21h14.43.241,classification_task,2021.2.3,Win32,59.80503558,5ae7cdd9a0e4390001f08f12,626b377229c10585ec392f8a,626b3be7b0c628ea2af49a9b,,,,,,,,,,,,,,,,,,,,,,,l,1,4.0668,"[""0.468"",""0.253"",""0.668"",""0.827""]","[0,1,1,1]",0,40,40,40,1,1,1,,,1,FALSE,,,,,,,,,,,,,,,,,,,,,,,,,,,,,,
,5ae7cdd9a0e4390001f08f12,001,2022-04-28_21h14.43.241,classification_task,2021.2.3,Win32,59.80503558,5ae7cdd9a0e4390001f08f12,626b377229c10585ec392f8a,626b3be7b0c628ea2af49a9b,,,,,,,,,,,,,,,,,,,,,,,a,0,3.0182,"[""0.060"",""0.253"",""0.468"",""0.827""]","[1,1,0,1]",0,41,41,41,1,1,1,,,1,FALSE,,,,,,,,,,,,,,,,,,,,,,,,,,,,,,
,5ae7cdd9a0e4390001f08f12,001,2022-04-28_21h14.43.241,classification_task,2021.2.3,Win32,59.80503558,5ae7cdd9a0e4390001f08f12,626b377229c10585ec392f8a,626b3be7b0c628ea2af49a9b,,,,,,,,,,,,,,,,,,,,,,,a,1,4.6173,"[""0.633"",""0.354"",""0.706"",""0.886""]","[0,1,1,1]",0,42,42,42,1,0,1,,,1,FALSE,,,,,,,,,,,,,,,,,,,,,,,,,,,,,,
,5ae7cdd9a0e4390001f08f12,001,2022-04-28_21h14.43.241,classification_task,2021.2.3,Win32,59.80503558,5ae7cdd9a0e4390001f08f12,626b377229c10585ec392f8a,626b3be7b0c628ea2af49a9b,,,,,,,,,,,,,,,,,,,,,,,a,1,2.2665,"[""0.215"",""0.507"",""0.741"",""0.292""]","[1,1,1,0]",0,43,43,43,1,0,0,,,1,FALSE,,,,,,,,,,,,,,,,,,,,,,,,,,,,,,
,5ae7cdd9a0e4390001f08f12,001,2022-04-28_21h14.43.241,classification_task,2021.2.3,Win32,59.80503558,5ae7cdd9a0e4390001f08f12,626b377229c10585ec392f8a,626b3be7b0c628ea2af49a9b,,,,,,,,,,,,,,,,,,,,,,,l,1,2.0014,"[""0.143"",""0.434"",""0.586"",""0.541""]","[1,1,1,0]",0,44,44,44,1,1,0,,,1,FALSE,,,,,,,,,,,,,,,,,,,,,,,,,,,,,,
,5ae7cdd9a0e4390001f08f12,001,2022-04-28_21h14.43.241,classification_task,2021.2.3,Win32,59.80503558,5ae7cdd9a0e4390001f08f12,626b377229c10585ec392f8a,626b3be7b0c628ea2af49a9b,,,,,,,,,,,,,,,,,,,,,,,a,1,2.3336,"[""0.215"",""0.101"",""0.741"",""0.961""]","[1,0,1,1]",0,45,45,45,1,0,0,,,1,FALSE,,,,,,,,,,,,,,,,,,,,,,,,,,,,,,
,5ae7cdd9a0e4390001f08f12,001,2022-04-28_21h14.43.241,classification_task,2021.2.3,Win32,59.80503558,5ae7cdd9a0e4390001f08f12,626b377229c10585ec392f8a,626b3be7b0c628ea2af49a9b,,,,,,,,,,,,,,,,,,,,,,,l,1,2.1648,"[""0.633"",""0.434"",""0.586"",""0.787""]","[0,1,1,1]",0,46,46,46,1,1,0,,,1,FALSE,,,,,,,,,,,,,,,,,,,,,,,,,,,,,,
,5ae7cdd9a0e4390001f08f12,001,2022-04-28_21h14.43.241,classification_task,2021.2.3,Win32,59.80503558,5ae7cdd9a0e4390001f08f12,626b377229c10585ec392f8a,626b3be7b0c628ea2af49a9b,,,,,,,,,,,,,,,,,,,,,,,a,1,1.1008,"[""0.215"",""0.507"",""0.927"",""0.961""]","[1,1,0,1]",0,47,47,47,1,0,0,,,1,FALSE,,,,,,,,,,,,,,,,,,,,,,,,,,,,,,
,5ae7cdd9a0e4390001f08f12,001,2022-04-28_21h14.43.241,classification_task,2021.2.3,Win32,59.80503558,5ae7cdd9a0e4390001f08f12,626b377229c10585ec392f8a,626b3be7b0c628ea2af49a9b,,,,,,,,,,,,,,,,,,,,,,,a,1,0.9147,"[""0.215"",""0.507"",""0.391"",""0.961""]","[1,1,0,1]",0,48,48,48,1,0,0,,,1,FALSE,,,,,,,,,,,,,,,,,,,,,,,,,,,,,,
,5ae7cdd9a0e4390001f08f12,001,2022-04-28_21h14.43.241,classification_task,2021.2.3,Win32,59.80503558,5ae7cdd9a0e4390001f08f12,626b377229c10585ec392f8a,626b3be7b0c628ea2af49a9b,,,,,,,,,,,,,,,,,,,,,,,l,1,2.8644,"[""0.060"",""0.253"",""0.668"",""0.301""]","[1,1,1,0]",0,49,49,49,1,1,1,,,1,FALSE,,,,,,,,,,,,,,,,,,,,,,,,,,,,,,
,5ae7cdd9a0e4390001f08f12,001,2022-04-28_21h14.43.241,classification_task,2021.2.3,Win32,59.80503558,5ae7cdd9a0e4390001f08f12,626b377229c10585ec392f8a,626b3be7b0c628ea2af49a9b,,,,,,,,,,,,,,,,,,,,,,,l,1,1.7335,"[""0.292"",""0.434"",""0.586"",""0.787""]","[0,1,1,1]",0,50,50,50,1,1,0,,,1,FALSE,,,,,,,,,,,,,,,,,,,,,,,,,,,,,,
,5ae7cdd9a0e4390001f08f12,001,2022-04-28_21h14.43.241,classification_task,2021.2.3,Win32,59.80503558,5ae7cdd9a0e4390001f08f12,626b377229c10585ec392f8a,626b3be7b0c628ea2af49a9b,,,,,,,,,,,,,,,,,,,,,,,a,1,1.0502,"[""0.215"",""0.541"",""0.741"",""0.961""]","[1,0,1,1]",0,51,51,51,1,0,0,,,1,FALSE,,,,,,,,,,,,,,,,,,,,,,,,,,,,,,
,5ae7cdd9a0e4390001f08f12,001,2022-04-28_21h14.43.241,classification_task,2021.2.3,Win32,59.80503558,5ae7cdd9a0e4390001f08f12,626b377229c10585ec392f8a,626b3be7b0c628ea2af49a9b,,,,,,,,,,,,,,,,,,,,,,,l,0,2.3616,"[""0.178"",""0.354"",""0.301"",""0.886""]","[1,1,0,1]",0,52,52,52,1,0,1,,,1,FALSE,,,,,,,,,,,,,,,,,,,,,,,,,,,,,,
,5ae7cdd9a0e4390001f08f12,001,2022-04-28_21h14.43.241,classification_task,2021.2.3,Win32,59.80503558,5ae7cdd9a0e4390001f08f12,626b377229c10585ec392f8a,626b3be7b0c628ea2af49a9b,,,,,,,,,,,,,,,,,,,,,,,l,0,1.5505,"[""0.294"",""0.354"",""0.706"",""0.886""]","[0,1,1,1]",0,53,53,53,1,0,1,,,1,FALSE,,,,,,,,,,,,,,,,,,,,,,,,,,,,,,
,5ae7cdd9a0e4390001f08f12,001,2022-04-28_21h14.43.241,classification_task,2021.2.3,Win32,59.80503558,5ae7cdd9a0e4390001f08f12,626b377229c10585ec392f8a,626b3be7b0c628ea2af49a9b,,,,,,,,,,,,,,,,,,,,,,,l,1,1.9488,"[""0.060"",""0.253"",""0.294"",""0.827""]","[1,1,0,1]",0,54,54,54,1,1,1,,,1,FALSE,,,,,,,,,,,,,,,,,,,,,,,,,,,,,,
,5ae7cdd9a0e4390001f08f12,001,2022-04-28_21h14.43.241,classification_task,2021.2.3,Win32,59.80503558,5ae7cdd9a0e4390001f08f12,626b377229c10585ec392f8a,626b3be7b0c628ea2af49a9b,,,,,,,,,,,,,,,,,,,,,,,l,0,1.784,"[""0.294"",""0.507"",""0.741"",""0.961""]","[0,1,1,1]",0,55,55,55,1,0,0,,,1,FALSE,,,,,,,,,,,,,,,,,,,,,,,,,,,,,,
,5ae7cdd9a0e4390001f08f12,001,2022-04-28_21h14.43.241,classification_task,2021.2.3,Win32,59.80503558,5ae7cdd9a0e4390001f08f12,626b377229c10585ec392f8a,626b3be7b0c628ea2af49a9b,,,,,,,,,,,,,,,,,,,,,,,l,1,1.6492,"[""0.026"",""0.253"",""0.668"",""0.827""]","[0,1,1,1]",0,56,56,56,1,1,1,,,1,FALSE,,,,,,,,,,,,,,,,,,,,,,,,,,,,,,
,5ae7cdd9a0e4390001f08f12,001,2022-04-28_21h14.43.241,classification_task,2021.2.3,Win32,59.80503558,5ae7cdd9a0e4390001f08f12,626b377229c10585ec392f8a,626b3be7b0c628ea2af49a9b,,,,,,,,,,,,,,,,,,,,,,,l,1,1.833,"[""0.143"",""0.434"",""0.292"",""0.787""]","[1,1,0,1]",0,57,57,57,1,1,0,,,1,FALSE,,,,,,,,,,,,,,,,,,,,,,,,,,,,,,
,5ae7cdd9a0e4390001f08f12,001,2022-04-28_21h14.43.241,classification_task,2021.2.3,Win32,59.80503558,5ae7cdd9a0e4390001f08f12,626b377229c10585ec392f8a,626b3be7b0c628ea2af49a9b,,,,,,,,,,,,,,,,,,,,,,,a,0,1.5505,"[""0.060"",""0.633"",""0.668"",""0.827""]","[1,0,1,1]",0,58,58,58,1,1,1,,,1,FALSE,,,,,,,,,,,,,,,,,,,,,,,,,,,,,,
,5ae7cdd9a0e4390001f08f12,001,2022-04-28_21h14.43.241,classification_task,2021.2.3,Win32,59.80503558,5ae7cdd9a0e4390001f08f12,626b377229c10585ec392f8a,626b3be7b0c628ea2af49a9b,,,,,,,,,,,,,,,,,,,,,,,a,1,1.4001,"[""0.215"",""0.507"",""0.741"",""0.633""]","[1,1,1,0]",0,59,59,59,1,0,0,,,1,FALSE,,,,,,,,,,,,,,,,,,,,,,,,,,,,,,
,5ae7cdd9a0e4390001f08f12,001,2022-04-28_21h14.43.241,classification_task,2021.2.3,Win32,59.80503558,5ae7cdd9a0e4390001f08f12,626b377229c10585ec392f8a,626b3be7b0c628ea2af49a9b,,,,,,,,,,,,,,,,,,,,,,,l,1,0.9822,"[""0.143"",""0.318"",""0.586"",""0.787""]","[1,0,1,1]",0,60,60,60,1,1,0,,,1,FALSE,,,,,,,,,,,,,,,,,,,,,,,,,,,,,,
,5ae7cdd9a0e4390001f08f12,001,2022-04-28_21h14.43.241,classification_task,2021.2.3,Win32,59.80503558,5ae7cdd9a0e4390001f08f12,626b377229c10585ec392f8a,626b3be7b0c628ea2af49a9b,,,,,,,,,,,,,,,,,,,,,,,a,1,1.982,"[""0.178"",""0.354"",""0.706"",""0.391""]","[1,1,1,0]",0,61,61,61,1,0,1,,,1,FALSE,,,,,,,,,,,,,,,,,,,,,,,,,,,,,,
,5ae7cdd9a0e4390001f08f12,001,2022-04-28_21h14.43.241,classification_task,2021.2.3,Win32,59.80503558,5ae7cdd9a0e4390001f08f12,626b377229c10585ec392f8a,626b3be7b0c628ea2af49a9b,,,,,,,,,,,,,,,,,,,,,,,l,1,1.9508,"[""0.143"",""0.434"",""0.586"",""0.026""]","[1,1,1,0]",0,62,62,62,1,1,0,,,1,FALSE,,,,,,,,,,,,,,,,,,,,,,,,,,,,,,
,5ae7cdd9a0e4390001f08f12,001,2022-04-28_21h14.43.241,classification_task,2021.2.3,Win32,59.80503558,5ae7cdd9a0e4390001f08f12,626b377229c10585ec392f8a,626b3be7b0c628ea2af49a9b,,,,,,,,,,,,,,,,,,,,,,,a,1,3.1152,"[""0.178"",""0.294"",""0.706"",""0.886""]","[1,0,1,1]",0,63,63,63,1,0,1,,,1,FALSE,,,,,,,,,,,,,,,,,,,,,,,,,,,,,,
,5ae7cdd9a0e4390001f08f12,001,2022-04-28_21h14.43.241,classification_task,2021.2.3,Win32,59.80503558,5ae7cdd9a0e4390001f08f12,626b377229c10585ec392f8a,626b3be7b0c628ea2af49a9b,,,,,,,,,,,,,,,,,,,,,,,,,,,,,,,,,,,,,,,0, ,,0,4.035493827,555.8376,0,0,0,0,1,2,1,,,,,,,,,,,,,,,,,
,5ae7cdd9a0e4390001f08f12,001,2022-04-28_21h14.43.241,classification_task,2021.2.3,Win32,59.80503558,5ae7cdd9a0e4390001f08f12,626b377229c10585ec392f8a,626b3be7b0c628ea2af49a9b,,,,,,,,,,,,,,,,,,,,,,,,,,,,,,,,,,,,,,,1,  ,,0,5.964506173,551.5497,0,0,0,0,1,2,1,,,,,,,,,,,,,,,,,
,5ae7cdd9a0e4390001f08f12,001,2022-04-28_21h14.43.241,classification_task,2021.2.3,Win32,59.80503558,5ae7cdd9a0e4390001f08f12,626b377229c10585ec392f8a,626b3be7b0c628ea2af49a9b,,,,,,,,,,,,,,,,,,,,,,,,,,,,,,,,,,,,,,,2,  ,,0,7.893518519,563.3314,0,0,0,0,1,2,1,,,,,,,,,,,,,,,,,
,5ae7cdd9a0e4390001f08f12,001,2022-04-28_21h14.43.241,classification_task,2021.2.3,Win32,59.80503558,5ae7cdd9a0e4390001f08f12,626b377229c10585ec392f8a,626b3be7b0c628ea2af49a9b,,,,,,,,,,,,,,,,,,,,,,,,,,,,,,,,,,,,,,,,,,,,,0,0,0,0,1,,1,,,,,,,,,,,,,,,,,
,5ae7cdd9a0e4390001f08f12,001,2022-04-28_21h14.43.241,classification_task,2021.2.3,Win32,59.80503558,5ae7cdd9a0e4390001f08f12,626b377229c10585ec392f8a,626b3be7b0c628ea2af49a9b,,,,,,,,,,,,,,,,,,,,,space,8.3635,a,1,5.6835,"[""0.215"",""0.292"",""0.741"",""0.961""]","[1,0,1,1]",0,0,0,0,1,0,0,,,1,FALSE,,,,,,,,,,,,,,,,,,,,,,,,,,,,,,
,5ae7cdd9a0e4390001f08f12,001,2022-04-28_21h14.43.241,classification_task,2021.2.3,Win32,59.80503558,5ae7cdd9a0e4390001f08f12,626b377229c10585ec392f8a,626b3be7b0c628ea2af49a9b,,,,,,,,,,,,,,,,,,,,,,,a,1,6.341,"[""0.178"",""0.354"",""0.706"",""0.301""]","[1,1,1,0]",0,1,1,1,1,0,1,,,1,FALSE,,,,,,,,,,,,,,,,,,,,,,,,,,,,,,
,5ae7cdd9a0e4390001f08f12,001,2022-04-28_21h14.43.241,classification_task,2021.2.3,Win32,59.80503558,5ae7cdd9a0e4390001f08f12,626b377229c10585ec392f8a,626b3be7b0c628ea2af49a9b,,,,,,,,,,,,,,,,,,,,,,,l,1,0.9176,"[""0.633"",""0.253"",""0.668"",""0.827""]","[0,1,1,1]",0,2,2,2,1,1,1,,,1,FALSE,,,,,,,,,,,,,,,,,,,,,,,,,,,,,,
,5ae7cdd9a0e4390001f08f12,001,2022-04-28_21h14.43.241,classification_task,2021.2.3,Win32,59.80503558,5ae7cdd9a0e4390001f08f12,626b377229c10585ec392f8a,626b3be7b0c628ea2af49a9b,,,,,,,,,,,,,,,,,,,,,,,l,1,0.6641,"[""0.060"",""0.253"",""0.668"",""0.633""]","[1,1,1,0]",0,3,3,3,1,1,1,,,1,FALSE,,,,,,,,,,,,,,,,,,,,,,,,,,,,,,
,5ae7cdd9a0e4390001f08f12,001,2022-04-28_21h14.43.241,classification_task,2021.2.3,Win32,59.80503558,5ae7cdd9a0e4390001f08f12,626b377229c10585ec392f8a,626b3be7b0c628ea2af49a9b,,,,,,,,,,,,,,,,,,,,,,,a,1,1.6829,"[""0.927"",""0.354"",""0.706"",""0.886""]","[0,1,1,1]",0,4,4,4,1,0,1,,,1,FALSE,,,,,,,,,,,,,,,,,,,,,,,,,,,,,,
,5ae7cdd9a0e4390001f08f12,001,2022-04-28_21h14.43.241,classification_task,2021.2.3,Win32,59.80503558,5ae7cdd9a0e4390001f08f12,626b377229c10585ec392f8a,626b3be7b0c628ea2af49a9b,,,,,,,,,,,,,,,,,,,,,,,a,1,1.6804,"[""0.301"",""0.507"",""0.741"",""0.961""]","[0,1,1,1]",0,5,5,5,1,0,0,,,1,FALSE,,,,,,,,,,,,,,,,,,,,,,,,,,,,,,
,5ae7cdd9a0e4390001f08f12,001,2022-04-28_21h14.43.241,classification_task,2021.2.3,Win32,59.80503558,5ae7cdd9a0e4390001f08f12,626b377229c10585ec392f8a,626b3be7b0c628ea2af49a9b,,,,,,,,,,,,,,,,,,,,,,,a,1,2.4656,"[""0.178"",""0.354"",""0.289"",""0.886""]","[1,1,0,1]",0,6,6,6,1,0,1,,,1,FALSE,,,,,,,,,,,,,,,,,,,,,,,,,,,,,,
,5ae7cdd9a0e4390001f08f12,001,2022-04-28_21h14.43.241,classification_task,2021.2.3,Win32,59.80503558,5ae7cdd9a0e4390001f08f12,626b377229c10585ec392f8a,626b3be7b0c628ea2af49a9b,,,,,,,,,,,,,,,,,,,,,,,a,1,1.7165,"[""0.215"",""0.507"",""0.391"",""0.961""]","[1,1,0,1]",0,7,7,7,1,0,0,,,1,FALSE,,,,,,,,,,,,,,,,,,,,,,,,,,,,,,
,5ae7cdd9a0e4390001f08f12,001,2022-04-28_21h14.43.241,classification_task,2021.2.3,Win32,59.80503558,5ae7cdd9a0e4390001f08f12,626b377229c10585ec392f8a,626b3be7b0c628ea2af49a9b,,,,,,,,,,,,,,,,,,,,,,,l,1,1.8503,"[""0.026"",""0.434"",""0.586"",""0.787""]","[0,1,1,1]",0,8,8,8,1,1,0,,,1,FALSE,,,,,,,,,,,,,,,,,,,,,,,,,,,,,,
,5ae7cdd9a0e4390001f08f12,001,2022-04-28_21h14.43.241,classification_task,2021.2.3,Win32,59.80503558,5ae7cdd9a0e4390001f08f12,626b377229c10585ec392f8a,626b3be7b0c628ea2af49a9b,,,,,,,,,,,,,,,,,,,,,,,a,1,1.4164,"[""0.215"",""0.507"",""0.741"",""0.391""]","[1,1,1,0]",0,9,9,9,1,0,0,,,1,FALSE,,,,,,,,,,,,,,,,,,,,,,,,,,,,,,
,5ae7cdd9a0e4390001f08f12,001,2022-04-28_21h14.43.241,classification_task,2021.2.3,Win32,59.80503558,5ae7cdd9a0e4390001f08f12,626b377229c10585ec392f8a,626b3be7b0c628ea2af49a9b,,,,,,,,,,,,,,,,,,,,,,,l,1,2.5485,"[""0.060"",""0.253"",""0.633"",""0.827""]","[1,1,0,1]",0,10,10,10,1,1,1,,,1,FALSE,,,,,,,,,,,,,,,,,,,,,,,,,,,,,,
,5ae7cdd9a0e4390001f08f12,001,2022-04-28_21h14.43.241,classification_task,2021.2.3,Win32,59.80503558,5ae7cdd9a0e4390001f08f12,626b377229c10585ec392f8a,626b3be7b0c628ea2af49a9b,,,,,,,,,,,,,,,,,,,,,,,l,1,1.9496,"[""0.060"",""0.468"",""0.668"",""0.827""]","[1,0,1,1]",0,11,11,11,1,1,1,,,1,FALSE,,,,,,,,,,,,,,,,,,,,,,,,,,,,,,
,5ae7cdd9a0e4390001f08f12,001,2022-04-28_21h14.43.241,classification_task,2021.2.3,Win32,59.80503558,5ae7cdd9a0e4390001f08f12,626b377229c10585ec392f8a,626b3be7b0c628ea2af49a9b,,,,,,,,,,,,,,,,,,,,,,,a,1,1.2821,"[""0.178"",""0.623"",""0.706"",""0.886""]","[1,0,1,1]",0,12,12,12,1,0,1,,,1,FALSE,,,,,,,,,,,,,,,,,,,,,,,,,,,,,,
,5ae7cdd9a0e4390001f08f12,001,2022-04-28_21h14.43.241,classification_task,2021.2.3,Win32,59.80503558,5ae7cdd9a0e4390001f08f12,626b377229c10585ec392f8a,626b3be7b0c628ea2af49a9b,,,,,,,,,,,,,,,,,,,,,,,l,1,1.5167,"[""0.143"",""0.292"",""0.586"",""0.787""]","[1,0,1,1]",0,13,13,13,1,1,0,,,1,FALSE,,,,,,,,,,,,,,,,,,,,,,,,,,,,,,
,5ae7cdd9a0e4390001f08f12,001,2022-04-28_21h14.43.241,classification_task,2021.2.3,Win32,59.80503558,5ae7cdd9a0e4390001f08f12,626b377229c10585ec392f8a,626b3be7b0c628ea2af49a9b,,,,,,,,,,,,,,,,,,,,,,,l,1,2.0177,"[""0.143"",""0.434"",""0.541"",""0.787""]","[1,1,0,1]",0,14,14,14,1,1,0,,,1,FALSE,,,,,,,,,,,,,,,,,,,,,,,,,,,,,,
,5ae7cdd9a0e4390001f08f12,001,2022-04-28_21h14.43.241,classification_task,2021.2.3,Win32,59.80503558,5ae7cdd9a0e4390001f08f12,626b377229c10585ec392f8a,626b3be7b0c628ea2af49a9b,,,,,,,,,,,,,,,,,,,,,,,l,1,1.279,"[""0.143"",""0.434"",""0.586"",""0.623""]","[1,1,1,0]",0,15,15,15,1,1,0,,,1,FALSE,,,,,,,,,,,,,,,,,,,,,,,,,,,,,,
,5ae7cdd9a0e4390001f08f12,001,2022-04-28_21h14.43.241,classification_task,2021.2.3,Win32,59.80503558,5ae7cdd9a0e4390001f08f12,626b377229c10585ec392f8a,626b3be7b0c628ea2af49a9b,,,,,,,,,,,,,,,,,,,,,,,a,1,1.0813,"[""0.215"",""0.289"",""0.741"",""0.961""]","[1,0,1,1]",0,16,16,16,1,0,0,,,1,FALSE,,,,,,,,,,,,,,,,,,,,,,,,,,,,,,
,5ae7cdd9a0e4390001f08f12,001,2022-04-28_21h14.43.241,classification_task,2021.2.3,Win32,59.80503558,5ae7cdd9a0e4390001f08f12,626b377229c10585ec392f8a,626b3be7b0c628ea2af49a9b,,,,,,,,,,,,,,,,,,,,,,,l,1,1.534,"[""0.294"",""0.434"",""0.586"",""0.787""]","[0,1,1,1]",0,17,17,17,1,1,0,,,1,FALSE,,,,,,,,,,,,,,,,,,,,,,,,,,,,,,
,5ae7cdd9a0e4390001f08f12,001,2022-04-28_21h14.43.241,classification_task,2021.2.3,Win32,59.80503558,5ae7cdd9a0e4390001f08f12,626b377229c10585ec392f8a,626b3be7b0c628ea2af49a9b,,,,,,,,,,,,,,,,,,,,,,,l,1,3.4305,"[""0.060"",""0.253"",""0.668"",""0.294""]","[1,1,1,0]",0,18,18,18,1,1,1,,,1,FALSE,,,,,,,,,,,,,,,,,,,,,,,,,,,,,,
,5ae7cdd9a0e4390001f08f12,001,2022-04-28_21h14.43.241,classification_task,2021.2.3,Win32,59.80503558,5ae7cdd9a0e4390001f08f12,626b377229c10585ec392f8a,626b3be7b0c628ea2af49a9b,,,,,,,,,,,,,,,,,,,,,,,a,1,1.5301,"[""0.215"",""0.507"",""0.741"",""0.289""]","[1,1,1,0]",0,19,19,19,1,0,0,,,1,FALSE,,,,,,,,,,,,,,,,,,,,,,,,,,,,,,
,5ae7cdd9a0e4390001f08f12,001,2022-04-28_21h14.43.241,classification_task,2021.2.3,Win32,59.80503558,5ae7cdd9a0e4390001f08f12,626b377229c10585ec392f8a,626b3be7b0c628ea2af49a9b,,,,,,,,,,,,,,,,,,,,,,,l,1,1.1319,"[""0.143"",""0.434"",""0.586"",""0.109""]","[1,1,1,0]",0,20,20,20,1,1,0,,,1,FALSE,,,,,,,,,,,,,,,,,,,,,,,,,,,,,,
,5ae7cdd9a0e4390001f08f12,001,2022-04-28_21h14.43.241,classification_task,2021.2.3,Win32,59.80503558,5ae7cdd9a0e4390001f08f12,626b377229c10585ec392f8a,626b3be7b0c628ea2af49a9b,,,,,,,,,,,,,,,,,,,,,,,l,1,1.7324,"[""0.143"",""0.434"",""0.623"",""0.787""]","[1,1,0,1]",0,21,21,21,1,1,0,,,1,FALSE,,,,,,,,,,,,,,,,,,,,,,,,,,,,,,
,5ae7cdd9a0e4390001f08f12,001,2022-04-28_21h14.43.241,classification_task,2021.2.3,Win32,59.80503558,5ae7cdd9a0e4390001f08f12,626b377229c10585ec392f8a,626b3be7b0c628ea2af49a9b,,,,,,,,,,,,,,,,,,,,,,,l,0,1.3163,"[""0.294"",""0.507"",""0.741"",""0.961""]","[0,1,1,1]",0,22,22,22,1,0,0,,,1,FALSE,,,,,,,,,,,,,,,,,,,,,,,,,,,,,,
,5ae7cdd9a0e4390001f08f12,001,2022-04-28_21h14.43.241,classification_task,2021.2.3,Win32,59.80503558,5ae7cdd9a0e4390001f08f12,626b377229c10585ec392f8a,626b3be7b0c628ea2af49a9b,,,,,,,,,,,,,,,,,,,,,,,a,1,1.4666,"[""0.178"",""0.292"",""0.706"",""0.886""]","[1,0,1,1]",0,23,23,23,1,0,1,,,1,FALSE,,,,,,,,,,,,,,,,,,,,,,,,,,,,,,
,5ae7cdd9a0e4390001f08f12,001,2022-04-28_21h14.43.241,classification_task,2021.2.3,Win32,59.80503558,5ae7cdd9a0e4390001f08f12,626b377229c10585ec392f8a,626b3be7b0c628ea2af49a9b,,,,,,,,,,,,,,,,,,,,,,,l,1,1.1861,"[""0.060"",""0.468"",""0.668"",""0.827""]","[1,0,1,1]",0,24,24,24,1,1,1,,,1,FALSE,,,,,,,,,,,,,,,,,,,,,,,,,,,,,,
,5ae7cdd9a0e4390001f08f12,001,2022-04-28_21h14.43.241,classification_task,2021.2.3,Win32,59.80503558,5ae7cdd9a0e4390001f08f12,626b377229c10585ec392f8a,626b3be7b0c628ea2af49a9b,,,,,,,,,,,,,,,,,,,,,,,a,1,1.1338,"[""0.178"",""0.354"",""0.109"",""0.886""]","[1,1,0,1]",0,25,25,25,1,0,1,,,1,FALSE,,,,,,,,,,,,,,,,,,,,,,,,,,,,,,
,5ae7cdd9a0e4390001f08f12,001,2022-04-28_21h14.43.241,classification_task,2021.2.3,Win32,59.80503558,5ae7cdd9a0e4390001f08f12,626b377229c10585ec392f8a,626b3be7b0c628ea2af49a9b,,,,,,,,,,,,,,,,,,,,,,,a,1,1.8001,"[""0.927"",""0.354"",""0.706"",""0.886""]","[0,1,1,1]",0,26,26,26,1,0,1,,,1,FALSE,,,,,,,,,,,,,,,,,,,,,,,,,,,,,,
,5ae7cdd9a0e4390001f08f12,001,2022-04-28_21h14.43.241,classification_task,2021.2.3,Win32,59.80503558,5ae7cdd9a0e4390001f08f12,626b377229c10585ec392f8a,626b3be7b0c628ea2af49a9b,,,,,,,,,,,,,,,,,,,,,,,a,1,1.7999,"[""0.215"",""0.507"",""0.289"",""0.961""]","[1,1,0,1]",0,27,27,27,1,0,0,,,1,FALSE,,,,,,,,,,,,,,,,,,,,,,,,,,,,,,
,5ae7cdd9a0e4390001f08f12,001,2022-04-28_21h14.43.241,classification_task,2021.2.3,Win32,59.80503558,5ae7cdd9a0e4390001f08f12,626b377229c10585ec392f8a,626b3be7b0c628ea2af49a9b,,,,,,,,,,,,,,,,,,,,,,,l,1,1.0506,"[""0.143"",""0.289"",""0.586"",""0.787""]","[1,0,1,1]",0,28,28,28,1,1,0,,,1,FALSE,,,,,,,,,,,,,,,,,,,,,,,,,,,,,,
,5ae7cdd9a0e4390001f08f12,001,2022-04-28_21h14.43.241,classification_task,2021.2.3,Win32,59.80503558,5ae7cdd9a0e4390001f08f12,626b377229c10585ec392f8a,626b3be7b0c628ea2af49a9b,,,,,,,,,,,,,,,,,,,,,,,a,1,1.4645,"[""0.178"",""0.354"",""0.706"",""0.095""]","[1,1,1,0]",0,29,29,29,1,0,1,,,1,FALSE,,,,,,,,,,,,,,,,,,,,,,,,,,,,,,
,5ae7cdd9a0e4390001f08f12,001,2022-04-28_21h14.43.241,classification_task,2021.2.3,Win32,59.80503558,5ae7cdd9a0e4390001f08f12,626b377229c10585ec392f8a,626b3be7b0c628ea2af49a9b,,,,,,,,,,,,,,,,,,,,,,,l,1,1.4681,"[""0.289"",""0.253"",""0.668"",""0.827""]","[0,1,1,1]",0,30,30,30,1,1,1,,,1,FALSE,,,,,,,,,,,,,,,,,,,,,,,,,,,,,,
,5ae7cdd9a0e4390001f08f12,001,2022-04-28_21h14.43.241,classification_task,2021.2.3,Win32,59.80503558,5ae7cdd9a0e4390001f08f12,626b377229c10585ec392f8a,626b3be7b0c628ea2af49a9b,,,,,,,,,,,,,,,,,,,,,,,l,1,0.7658,"[""0.060"",""0.253"",""0.541"",""0.827""]","[1,1,0,1]",0,31,31,31,1,1,1,,,1,FALSE,,,,,,,,,,,,,,,,,,,,,,,,,,,,,,
,5ae7cdd9a0e4390001f08f12,001,2022-04-28_21h14.43.241,classification_task,2021.2.3,Win32,59.80503558,5ae7cdd9a0e4390001f08f12,626b377229c10585ec392f8a,626b3be7b0c628ea2af49a9b,,,,,,,,,,,,,,,,,,,,,,,l,1,1.1991,"[""0.143"",""0.434"",""0.294"",""0.787""]","[1,1,0,1]",0,32,32,32,1,1,0,,,1,FALSE,,,,,,,,,,,,,,,,,,,,,,,,,,,,,,
,5ae7cdd9a0e4390001f08f12,001,2022-04-28_21h14.43.241,classification_task,2021.2.3,Win32,59.80503558,5ae7cdd9a0e4390001f08f12,626b377229c10585ec392f8a,626b3be7b0c628ea2af49a9b,,,,,,,,,,,,,,,,,,,,,,,a,1,0.9665,"[""0.178"",""0.354"",""0.706"",""0.301""]","[1,1,1,0]",0,33,33,33,1,0,1,,,1,FALSE,,,,,,,,,,,,,,,,,,,,,,,,,,,,,,
,5ae7cdd9a0e4390001f08f12,001,2022-04-28_21h14.43.241,classification_task,2021.2.3,Win32,59.80503558,5ae7cdd9a0e4390001f08f12,626b377229c10585ec392f8a,626b3be7b0c628ea2af49a9b,,,,,,,,,,,,,,,,,,,,,,,l,1,1.8979,"[""0.541"",""0.434"",""0.586"",""0.787""]","[0,1,1,1]",0,34,34,34,1,1,0,,,1,FALSE,,,,,,,,,,,,,,,,,,,,,,,,,,,,,,
,5ae7cdd9a0e4390001f08f12,001,2022-04-28_21h14.43.241,classification_task,2021.2.3,Win32,59.80503558,5ae7cdd9a0e4390001f08f12,626b377229c10585ec392f8a,626b3be7b0c628ea2af49a9b,,,,,,,,,,,,,,,,,,,,,,,a,1,1.2662,"[""0.178"",""0.101"",""0.706"",""0.886""]","[1,0,1,1]",0,35,35,35,1,0,1,,,1,FALSE,,,,,,,,,,,,,,,,,,,,,,,,,,,,,,
,5ae7cdd9a0e4390001f08f12,001,2022-04-28_21h14.43.241,classification_task,2021.2.3,Win32,59.80503558,5ae7cdd9a0e4390001f08f12,626b377229c10585ec392f8a,626b3be7b0c628ea2af49a9b,,,,,,,,,,,,,,,,,,,,,,,l,1,1.1848,"[""0.060"",""0.253"",""0.318"",""0.827""]","[1,1,0,1]",0,36,36,36,1,1,1,,,1,FALSE,,,,,,,,,,,,,,,,,,,,,,,,,,,,,,
,5ae7cdd9a0e4390001f08f12,001,2022-04-28_21h14.43.241,classification_task,2021.2.3,Win32,59.80503558,5ae7cdd9a0e4390001f08f12,626b377229c10585ec392f8a,626b3be7b0c628ea2af49a9b,,,,,,,,,,,,,,,,,,,,,,,a,1,1.0822,"[""0.215"",""0.507"",""0.294"",""0.961""]","[1,1,0,1]",0,37,37,37,1,0,0,,,1,FALSE,,,,,,,,,,,,,,,,,,,,,,,,,,,,,,
,5ae7cdd9a0e4390001f08f12,001,2022-04-28_21h14.43.241,classification_task,2021.2.3,Win32,59.80503558,5ae7cdd9a0e4390001f08f12,626b377229c10585ec392f8a,626b3be7b0c628ea2af49a9b,,,,,,,,,,,,,,,,,,,,,,,l,0,1.5652,"[""0.927"",""0.507"",""0.741"",""0.961""]","[0,1,1,1]",0,38,38,38,1,0,0,,,1,FALSE,,,,,,,,,,,,,,,,,,,,,,,,,,,,,,
,5ae7cdd9a0e4390001f08f12,001,2022-04-28_21h14.43.241,classification_task,2021.2.3,Win32,59.80503558,5ae7cdd9a0e4390001f08f12,626b377229c10585ec392f8a,626b3be7b0c628ea2af49a9b,,,,,,,,,,,,,,,,,,,,,,,l,1,1.3813,"[""0.060"",""0.253"",""0.668"",""0.927""]","[1,1,1,0]",0,39,39,39,1,1,1,,,1,FALSE,,,,,,,,,,,,,,,,,,,,,,,,,,,,,,
,5ae7cdd9a0e4390001f08f12,001,2022-04-28_21h14.43.241,classification_task,2021.2.3,Win32,59.80503558,5ae7cdd9a0e4390001f08f12,626b377229c10585ec392f8a,626b3be7b0c628ea2af49a9b,,,,,,,,,,,,,,,,,,,,,,,a,1,1.7981,"[""0.178"",""0.354"",""0.633"",""0.886""]","[1,1,0,1]",0,40,40,40,1,0,1,,,1,FALSE,,,,,,,,,,,,,,,,,,,,,,,,,,,,,,
,5ae7cdd9a0e4390001f08f12,001,2022-04-28_21h14.43.241,classification_task,2021.2.3,Win32,59.80503558,5ae7cdd9a0e4390001f08f12,626b377229c10585ec392f8a,626b3be7b0c628ea2af49a9b,,,,,,,,,,,,,,,,,,,,,,,l,1,2.4484,"[""0.143"",""0.109"",""0.586"",""0.787""]","[1,0,1,1]",0,41,41,41,1,1,0,,,1,FALSE,,,,,,,,,,,,,,,,,,,,,,,,,,,,,,
,5ae7cdd9a0e4390001f08f12,001,2022-04-28_21h14.43.241,classification_task,2021.2.3,Win32,59.80503558,5ae7cdd9a0e4390001f08f12,626b377229c10585ec392f8a,626b3be7b0c628ea2af49a9b,,,,,,,,,,,,,,,,,,,,,,,a,1,1.2963,"[""0.318"",""0.354"",""0.706"",""0.886""]","[0,1,1,1]",0,42,42,42,1,0,1,,,1,FALSE,,,,,,,,,,,,,,,,,,,,,,,,,,,,,,
,5ae7cdd9a0e4390001f08f12,001,2022-04-28_21h14.43.241,classification_task,2021.2.3,Win32,59.80503558,5ae7cdd9a0e4390001f08f12,626b377229c10585ec392f8a,626b3be7b0c628ea2af49a9b,,,,,,,,,,,,,,,,,,,,,,,a,1,1.3633,"[""0.215"",""0.507"",""0.741"",""0.301""]","[1,1,1,0]",0,43,43,43,1,0,0,,,1,FALSE,,,,,,,,,,,,,,,,,,,,,,,,,,,,,,
,5ae7cdd9a0e4390001f08f12,001,2022-04-28_21h14.43.241,classification_task,2021.2.3,Win32,59.80503558,5ae7cdd9a0e4390001f08f12,626b377229c10585ec392f8a,626b3be7b0c628ea2af49a9b,,,,,,,,,,,,,,,,,,,,,,,l,1,0.9977,"[""0.143"",""0.434"",""0.586"",""0.294""]","[1,1,1,0]",0,44,44,44,1,1,0,,,1,FALSE,,,,,,,,,,,,,,,,,,,,,,,,,,,,,,
,5ae7cdd9a0e4390001f08f12,001,2022-04-28_21h14.43.241,classification_task,2021.2.3,Win32,59.80503558,5ae7cdd9a0e4390001f08f12,626b377229c10585ec392f8a,626b3be7b0c628ea2af49a9b,,,,,,,,,,,,,,,,,,,,,,,a,1,0.9332,"[""0.215"",""0.289"",""0.741"",""0.961""]","[1,0,1,1]",0,45,45,45,1,0,0,,,1,FALSE,,,,,,,,,,,,,,,,,,,,,,,,,,,,,,
,5ae7cdd9a0e4390001f08f12,001,2022-04-28_21h14.43.241,classification_task,2021.2.3,Win32,59.80503558,5ae7cdd9a0e4390001f08f12,626b377229c10585ec392f8a,626b3be7b0c628ea2af49a9b,,,,,,,,,,,,,,,,,,,,,,,l,1,0.8814,"[""0.060"",""0.101"",""0.668"",""0.827""]","[1,0,1,1]",0,46,46,46,1,1,1,,,1,FALSE,,,,,,,,,,,,,,,,,,,,,,,,,,,,,,
,5ae7cdd9a0e4390001f08f12,001,2022-04-28_21h14.43.241,classification_task,2021.2.3,Win32,59.80503558,5ae7cdd9a0e4390001f08f12,626b377229c10585ec392f8a,626b3be7b0c628ea2af49a9b,,,,,,,,,,,,,,,,,,,,,,,l,1,0.8999,"[""0.101"",""0.253"",""0.668"",""0.827""]","[0,1,1,1]",0,47,47,47,1,1,1,,,1,FALSE,,,,,,,,,,,,,,,,,,,,,,,,,,,,,,
,5ae7cdd9a0e4390001f08f12,001,2022-04-28_21h14.43.241,classification_task,2021.2.3,Win32,59.80503558,5ae7cdd9a0e4390001f08f12,626b377229c10585ec392f8a,626b3be7b0c628ea2af49a9b,,,,,,,,,,,,,,,,,,,,,,,l,0,2.9813,"[""0.026"",""0.507"",""0.741"",""0.961""]","[0,1,1,1]",0,48,48,48,1,0,0,,,1,FALSE,,,,,,,,,,,,,,,,,,,,,,,,,,,,,,
,5ae7cdd9a0e4390001f08f12,001,2022-04-28_21h14.43.241,classification_task,2021.2.3,Win32,59.80503558,5ae7cdd9a0e4390001f08f12,626b377229c10585ec392f8a,626b3be7b0c628ea2af49a9b,,,,,,,,,,,,,,,,,,,,,,,a,1,1.0714,"[""0.215"",""0.507"",""0.927"",""0.961""]","[1,1,0,1]",0,49,49,49,1,0,0,,,1,FALSE,,,,,,,,,,,,,,,,,,,,,,,,,,,,,,
,5ae7cdd9a0e4390001f08f12,001,2022-04-28_21h14.43.241,classification_task,2021.2.3,Win32,59.80503558,5ae7cdd9a0e4390001f08f12,626b377229c10585ec392f8a,626b3be7b0c628ea2af49a9b,,,,,,,,,,,,,,,,,,,,,,,a,1,0.8486,"[""0.178"",""0.354"",""0.706"",""0.109""]","[1,1,1,0]",0,50,50,50,1,0,1,,,1,FALSE,,,,,,,,,,,,,,,,,,,,,,,,,,,,,,
,5ae7cdd9a0e4390001f08f12,001,2022-04-28_21h14.43.241,classification_task,2021.2.3,Win32,59.80503558,5ae7cdd9a0e4390001f08f12,626b377229c10585ec392f8a,626b3be7b0c628ea2af49a9b,,,,,,,,,,,,,,,,,,,,,,,l,1,1.2318,"[""0.143"",""0.927"",""0.586"",""0.787""]","[1,0,1,1]",0,51,51,51,1,1,0,,,1,FALSE,,,,,,,,,,,,,,,,,,,,,,,,,,,,,,
,5ae7cdd9a0e4390001f08f12,001,2022-04-28_21h14.43.241,classification_task,2021.2.3,Win32,59.80503558,5ae7cdd9a0e4390001f08f12,626b377229c10585ec392f8a,626b3be7b0c628ea2af49a9b,,,,,,,,,,,,,,,,,,,,,,,l,1,1.6483,"[""0.623"",""0.253"",""0.668"",""0.827""]","[0,1,1,1]",0,52,52,52,1,1,1,,,1,FALSE,,,,,,,,,,,,,,,,,,,,,,,,,,,,,,
,5ae7cdd9a0e4390001f08f12,001,2022-04-28_21h14.43.241,classification_task,2021.2.3,Win32,59.80503558,5ae7cdd9a0e4390001f08f12,626b377229c10585ec392f8a,626b3be7b0c628ea2af49a9b,,,,,,,,,,,,,,,,,,,,,,,a,1,1.0497,"[""0.178"",""0.354"",""0.301"",""0.886""]","[1,1,0,1]",0,53,53,53,1,0,1,,,1,FALSE,,,,,,,,,,,,,,,,,,,,,,,,,,,,,,
,5ae7cdd9a0e4390001f08f12,001,2022-04-28_21h14.43.241,classification_task,2021.2.3,Win32,59.80503558,5ae7cdd9a0e4390001f08f12,626b377229c10585ec392f8a,626b3be7b0c628ea2af49a9b,,,,,,,,,,,,,,,,,,,,,,,a,1,1.9501,"[""0.215"",""0.292"",""0.741"",""0.961""]","[1,0,1,1]",0,54,54,54,1,0,0,,,1,FALSE,,,,,,,,,,,,,,,,,,,,,,,,,,,,,,
,5ae7cdd9a0e4390001f08f12,001,2022-04-28_21h14.43.241,classification_task,2021.2.3,Win32,59.80503558,5ae7cdd9a0e4390001f08f12,626b377229c10585ec392f8a,626b3be7b0c628ea2af49a9b,,,,,,,,,,,,,,,,,,,,,,,a,1,1.666,"[""0.178"",""0.318"",""0.706"",""0.886""]","[1,0,1,1]",0,55,55,55,1,0,1,,,1,FALSE,,,,,,,,,,,,,,,,,,,,,,,,,,,,,,
,5ae7cdd9a0e4390001f08f12,001,2022-04-28_21h14.43.241,classification_task,2021.2.3,Win32,59.80503558,5ae7cdd9a0e4390001f08f12,626b377229c10585ec392f8a,626b3be7b0c628ea2af49a9b,,,,,,,,,,,,,,,,,,,,,,,a,0,1.831,"[""0.318"",""0.434"",""0.586"",""0.787""]","[0,1,1,1]",0,56,56,56,1,1,0,,,1,FALSE,,,,,,,,,,,,,,,,,,,,,,,,,,,,,,
,5ae7cdd9a0e4390001f08f12,001,2022-04-28_21h14.43.241,classification_task,2021.2.3,Win32,59.80503558,5ae7cdd9a0e4390001f08f12,626b377229c10585ec392f8a,626b3be7b0c628ea2af49a9b,,,,,,,,,,,,,,,,,,,,,,,a,1,1.3678,"[""0.215"",""0.507"",""0.741"",""0.468""]","[1,1,1,0]",0,57,57,57,1,0,0,,,1,FALSE,,,,,,,,,,,,,,,,,,,,,,,,,,,,,,
,5ae7cdd9a0e4390001f08f12,001,2022-04-28_21h14.43.241,classification_task,2021.2.3,Win32,59.80503558,5ae7cdd9a0e4390001f08f12,626b377229c10585ec392f8a,626b3be7b0c628ea2af49a9b,,,,,,,,,,,,,,,,,,,,,,,l,1,1.2171,"[""0.143"",""0.434"",""0.101"",""0.787""]","[1,1,0,1]",0,58,58,58,1,1,0,,,1,FALSE,,,,,,,,,,,,,,,,,,,,,,,,,,,,,,
,5ae7cdd9a0e4390001f08f12,001,2022-04-28_21h14.43.241,classification_task,2021.2.3,Win32,59.80503558,5ae7cdd9a0e4390001f08f12,626b377229c10585ec392f8a,626b3be7b0c628ea2af49a9b,,,,,,,,,,,,,,,,,,,,,,,l,1,1.649,"[""0.143"",""0.434"",""0.586"",""0.541""]","[1,1,1,0]",0,59,59,59,1,1,0,,,1,FALSE,,,,,,,,,,,,,,,,,,,,,,,,,,,,,,
,5ae7cdd9a0e4390001f08f12,001,2022-04-28_21h14.43.241,classification_task,2021.2.3,Win32,59.80503558,5ae7cdd9a0e4390001f08f12,626b377229c10585ec392f8a,626b3be7b0c628ea2af49a9b,,,,,,,,,,,,,,,,,,,,,,,a,1,0.8816,"[""0.101"",""0.354"",""0.706"",""0.886""]","[0,1,1,1]",0,60,60,60,1,0,1,,,1,FALSE,,,,,,,,,,,,,,,,,,,,,,,,,,,,,,
,5ae7cdd9a0e4390001f08f12,001,2022-04-28_21h14.43.241,classification_task,2021.2.3,Win32,59.80503558,5ae7cdd9a0e4390001f08f12,626b377229c10585ec392f8a,626b3be7b0c628ea2af49a9b,,,,,,,,,,,,,,,,,,,,,,,l,1,1.0475,"[""0.060"",""0.253"",""0.668"",""0.391""]","[1,1,1,0]",0,61,61,61,1,1,1,,,1,FALSE,,,,,,,,,,,,,,,,,,,,,,,,,,,,,,
,5ae7cdd9a0e4390001f08f12,001,2022-04-28_21h14.43.241,classification_task,2021.2.3,Win32,59.80503558,5ae7cdd9a0e4390001f08f12,626b377229c10585ec392f8a,626b3be7b0c628ea2af49a9b,,,,,,,,,,,,,,,,,,,,,,,l,1,0.4478,"[""0.060"",""0.253"",""0.927"",""0.827""]","[1,1,0,1]",0,62,62,62,1,1,1,,,1,FALSE,,,,,,,,,,,,,,,,,,,,,,,,,,,,,,
,5ae7cdd9a0e4390001f08f12,001,2022-04-28_21h14.43.241,classification_task,2021.2.3,Win32,59.80503558,5ae7cdd9a0e4390001f08f12,626b377229c10585ec392f8a,626b3be7b0c628ea2af49a9b,,,,,,,,,,,,,,,,,,,,,,,l,1,0.3825,"[""0.060"",""0.391"",""0.668"",""0.827""]","[1,0,1,1]",0,63,63,63,1,1,1,,,1,FALSE,,,,,,,,,,,,,,,,,,,,,,,,,,,,,,
,5ae7cdd9a0e4390001f08f12,001,2022-04-28_21h14.43.241,classification_task,2021.2.3,Win32,59.80503558,5ae7cdd9a0e4390001f08f12,626b377229c10585ec392f8a,626b3be7b0c628ea2af49a9b,,,,,,,,,,,,,,,,,,,,,,,,,,,,,,,,,,,,,,,0, ,,0,2.554287919,186.4159,0,1,1,1,1,2,2,,,,,,,,,,,,,,,,,
,5ae7cdd9a0e4390001f08f12,001,2022-04-28_21h14.43.241,classification_task,2021.2.3,Win32,59.80503558,5ae7cdd9a0e4390001f08f12,626b377229c10585ec392f8a,626b3be7b0c628ea2af49a9b,,,,,,,,,,,,,,,,,,,,,,,,,,,,,,,,,,,,,,,1,  ,,0,6.205632716,192.6148,0,1,1,1,1,2,2,,,,,,,,,,,,,,,,,
,5ae7cdd9a0e4390001f08f12,001,2022-04-28_21h14.43.241,classification_task,2021.2.3,Win32,59.80503558,5ae7cdd9a0e4390001f08f12,626b377229c10585ec392f8a,626b3be7b0c628ea2af49a9b,,,,,,,,,,,,,,,,,,,,,,,,,,,,,,,,,,,,,,,2,  ,,0,7.170138889,194.4737,0,1,1,1,1,2,2,,,,,,,,,,,,,,,,,
,5ae7cdd9a0e4390001f08f12,001,2022-04-28_21h14.43.241,classification_task,2021.2.3,Win32,59.80503558,5ae7cdd9a0e4390001f08f12,626b377229c10585ec392f8a,626b3be7b0c628ea2af49a9b,,,,,,,,,,,,,,,,,,,,,,,,,,,,,,,,,,,,,,,,,,,,,0,1,1,1,1,,2,,,,,,,,,,,,,,,,,
,5ae7cdd9a0e4390001f08f12,001,2022-04-28_21h14.43.241,classification_task,2021.2.3,Win32,59.80503558,5ae7cdd9a0e4390001f08f12,626b377229c10585ec392f8a,626b3be7b0c628ea2af49a9b,,,,,,,,,,,,,,,,,,,,,space,10.5756,a,0,3.5607,"[""0.294"",""0.253"",""0.668"",""0.827""]","[0,1,1,1]",0,0,0,0,1,1,1,,,1,FALSE,,,,,,,,,,,,,,,,,,,,,,,,,,,,,,
,5ae7cdd9a0e4390001f08f12,001,2022-04-28_21h14.43.241,classification_task,2021.2.3,Win32,59.80503558,5ae7cdd9a0e4390001f08f12,626b377229c10585ec392f8a,626b3be7b0c628ea2af49a9b,,,,,,,,,,,,,,,,,,,,,,,l,1,1.5501,"[""0.143"",""0.434"",""0.633"",""0.787""]","[1,1,0,1]",0,1,1,1,1,1,0,,,1,FALSE,,,,,,,,,,,,,,,,,,,,,,,,,,,,,,
,5ae7cdd9a0e4390001f08f12,001,2022-04-28_21h14.43.241,classification_task,2021.2.3,Win32,59.80503558,5ae7cdd9a0e4390001f08f12,626b377229c10585ec392f8a,626b3be7b0c628ea2af49a9b,,,,,,,,,,,,,,,,,,,,,,,a,1,2.4664,"[""0.178"",""0.026"",""0.706"",""0.886""]","[1,0,1,1]",0,2,2,2,1,0,1,,,1,FALSE,,,,,,,,,,,,,,,,,,,,,,,,,,,,,,
,5ae7cdd9a0e4390001f08f12,001,2022-04-28_21h14.43.241,classification_task,2021.2.3,Win32,59.80503558,5ae7cdd9a0e4390001f08f12,626b377229c10585ec392f8a,626b3be7b0c628ea2af49a9b,,,,,,,,,,,,,,,,,,,,,,,l,1,3.2833,"[""0.060"",""0.253"",""0.468"",""0.827""]","[1,1,0,1]",0,3,3,3,1,1,1,,,1,FALSE,,,,,,,,,,,,,,,,,,,,,,,,,,,,,,
,5ae7cdd9a0e4390001f08f12,001,2022-04-28_21h14.43.241,classification_task,2021.2.3,Win32,59.80503558,5ae7cdd9a0e4390001f08f12,626b377229c10585ec392f8a,626b3be7b0c628ea2af49a9b,,,,,,,,,,,,,,,,,,,,,,,a,1,1.1506,"[""0.215"",""0.507"",""0.741"",""0.318""]","[1,1,1,0]",0,4,4,4,1,0,0,,,1,FALSE,,,,,,,,,,,,,,,,,,,,,,,,,,,,,,
,5ae7cdd9a0e4390001f08f12,001,2022-04-28_21h14.43.241,classification_task,2021.2.3,Win32,59.80503558,5ae7cdd9a0e4390001f08f12,626b377229c10585ec392f8a,626b3be7b0c628ea2af49a9b,,,,,,,,,,,,,,,,,,,,,,,a,0,1.633,"[""0.060"",""0.468"",""0.668"",""0.827""]","[1,0,1,1]",0,5,5,5,1,1,1,,,1,FALSE,,,,,,,,,,,,,,,,,,,,,,,,,,,,,,
,5ae7cdd9a0e4390001f08f12,001,2022-04-28_21h14.43.241,classification_task,2021.2.3,Win32,59.80503558,5ae7cdd9a0e4390001f08f12,626b377229c10585ec392f8a,626b3be7b0c628ea2af49a9b,,,,,,,,,,,,,,,,,,,,,,,l,1,1.3669,"[""0.143"",""0.109"",""0.586"",""0.787""]","[1,0,1,1]",0,6,6,6,1,1,0,,,1,FALSE,,,,,,,,,,,,,,,,,,,,,,,,,,,,,,
,5ae7cdd9a0e4390001f08f12,001,2022-04-28_21h14.43.241,classification_task,2021.2.3,Win32,59.80503558,5ae7cdd9a0e4390001f08f12,626b377229c10585ec392f8a,626b3be7b0c628ea2af49a9b,,,,,,,,,,,,,,,,,,,,,,,l,0,1.7349,"[""0.095"",""0.507"",""0.741"",""0.961""]","[0,1,1,1]",0,7,7,7,1,0,0,,,1,FALSE,,,,,,,,,,,,,,,,,,,,,,,,,,,,,,
,5ae7cdd9a0e4390001f08f12,001,2022-04-28_21h14.43.241,classification_task,2021.2.3,Win32,59.80503558,5ae7cdd9a0e4390001f08f12,626b377229c10585ec392f8a,626b3be7b0c628ea2af49a9b,,,,,,,,,,,,,,,,,,,,,,,a,0,1.5165,"[""0.301"",""0.434"",""0.586"",""0.787""]","[0,1,1,1]",0,8,8,8,1,1,0,,,1,FALSE,,,,,,,,,,,,,,,,,,,,,,,,,,,,,,
,5ae7cdd9a0e4390001f08f12,001,2022-04-28_21h14.43.241,classification_task,2021.2.3,Win32,59.80503558,5ae7cdd9a0e4390001f08f12,626b377229c10585ec392f8a,626b3be7b0c628ea2af49a9b,,,,,,,,,,,,,,,,,,,,,,,l,1,1.1163,"[""0.143"",""0.434"",""0.586"",""0.927""]","[1,1,1,0]",0,9,9,9,1,1,0,,,1,FALSE,,,,,,,,,,,,,,,,,,,,,,,,,,,,,,
,5ae7cdd9a0e4390001f08f12,001,2022-04-28_21h14.43.241,classification_task,2021.2.3,Win32,59.80503558,5ae7cdd9a0e4390001f08f12,626b377229c10585ec392f8a,626b3be7b0c628ea2af49a9b,,,,,,,,,,,,,,,,,,,,,,,a,1,1.6995,"[""0.178"",""0.354"",""0.294"",""0.886""]","[1,1,0,1]",0,10,10,10,1,0,1,,,1,FALSE,,,,,,,,,,,,,,,,,,,,,,,,,,,,,,
,5ae7cdd9a0e4390001f08f12,001,2022-04-28_21h14.43.241,classification_task,2021.2.3,Win32,59.80503558,5ae7cdd9a0e4390001f08f12,626b377229c10585ec392f8a,626b3be7b0c628ea2af49a9b,,,,,,,,,,,,,,,,,,,,,,,a,1,1.2508,"[""0.215"",""0.507"",""0.289"",""0.961""]","[1,1,0,1]",0,11,11,11,1,0,0,,,1,FALSE,,,,,,,,,,,,,,,,,,,,,,,,,,,,,,
,5ae7cdd9a0e4390001f08f12,001,2022-04-28_21h14.43.241,classification_task,2021.2.3,Win32,59.80503558,5ae7cdd9a0e4390001f08f12,626b377229c10585ec392f8a,626b3be7b0c628ea2af49a9b,,,,,,,,,,,,,,,,,,,,,,,a,1,1.4317,"[""0.178"",""0.354"",""0.706"",""0.633""]","[1,1,1,0]",0,12,12,12,1,0,1,,,1,FALSE,,,,,,,,,,,,,,,,,,,,,,,,,,,,,,
,5ae7cdd9a0e4390001f08f12,001,2022-04-28_21h14.43.241,classification_task,2021.2.3,Win32,59.80503558,5ae7cdd9a0e4390001f08f12,626b377229c10585ec392f8a,626b3be7b0c628ea2af49a9b,,,,,,,,,,,,,,,,,,,,,,,l,0,1.7489,"[""0.927"",""0.354"",""0.706"",""0.886""]","[0,1,1,1]",0,13,13,13,1,0,1,,,1,FALSE,,,,,,,,,,,,,,,,,,,,,,,,,,,,,,
,5ae7cdd9a0e4390001f08f12,001,2022-04-28_21h14.43.241,classification_task,2021.2.3,Win32,59.80503558,5ae7cdd9a0e4390001f08f12,626b377229c10585ec392f8a,626b3be7b0c628ea2af49a9b,,,,,,,,,,,,,,,,,,,,,,,a,0,4.8167,"[""0.060"",""0.253"",""0.668"",""0.289""]","[1,1,1,0]",0,14,14,14,1,1,1,,,1,FALSE,,,,,,,,,,,,,,,,,,,,,,,,,,,,,,
,5ae7cdd9a0e4390001f08f12,001,2022-04-28_21h14.43.241,classification_task,2021.2.3,Win32,59.80503558,5ae7cdd9a0e4390001f08f12,626b377229c10585ec392f8a,626b3be7b0c628ea2af49a9b,,,,,,,,,,,,,,,,,,,,,,,a,1,1.1347,"[""0.215"",""0.289"",""0.741"",""0.961""]","[1,0,1,1]",0,15,15,15,1,0,0,,,1,FALSE,,,,,,,,,,,,,,,,,,,,,,,,,,,,,,
,5ae7cdd9a0e4390001f08f12,001,2022-04-28_21h14.43.241,classification_task,2021.2.3,Win32,59.80503558,5ae7cdd9a0e4390001f08f12,626b377229c10585ec392f8a,626b3be7b0c628ea2af49a9b,,,,,,,,,,,,,,,,,,,,,,,a,1,1.3498,"[""0.178"",""0.289"",""0.706"",""0.886""]","[1,0,1,1]",0,16,16,16,1,0,1,,,1,FALSE,,,,,,,,,,,,,,,,,,,,,,,,,,,,,,
,5ae7cdd9a0e4390001f08f12,001,2022-04-28_21h14.43.241,classification_task,2021.2.3,Win32,59.80503558,5ae7cdd9a0e4390001f08f12,626b377229c10585ec392f8a,626b3be7b0c628ea2af49a9b,,,,,,,,,,,,,,,,,,,,,,,a,1,1.3996,"[""0.178"",""0.354"",""0.026"",""0.886""]","[1,1,0,1]",0,17,17,17,1,0,1,,,1,FALSE,,,,,,,,,,,,,,,,,,,,,,,,,,,,,,
,5ae7cdd9a0e4390001f08f12,001,2022-04-28_21h14.43.241,classification_task,2021.2.3,Win32,59.80503558,5ae7cdd9a0e4390001f08f12,626b377229c10585ec392f8a,626b3be7b0c628ea2af49a9b,,,,,,,,,,,,,,,,,,,,,,,l,1,1.2326,"[""0.143"",""0.294"",""0.586"",""0.787""]","[1,0,1,1]",0,18,18,18,1,1,0,,,1,FALSE,,,,,,,,,,,,,,,,,,,,,,,,,,,,,,
,5ae7cdd9a0e4390001f08f12,001,2022-04-28_21h14.43.241,classification_task,2021.2.3,Win32,59.80503558,5ae7cdd9a0e4390001f08f12,626b377229c10585ec392f8a,626b3be7b0c628ea2af49a9b,,,,,,,,,,,,,,,,,,,,,,,l,1,1.1649,"[""0.143"",""0.434"",""0.586"",""0.294""]","[1,1,1,0]",0,19,19,19,1,1,0,,,1,FALSE,,,,,,,,,,,,,,,,,,,,,,,,,,,,,,
,5ae7cdd9a0e4390001f08f12,001,2022-04-28_21h14.43.241,classification_task,2021.2.3,Win32,59.80503558,5ae7cdd9a0e4390001f08f12,626b377229c10585ec392f8a,626b3be7b0c628ea2af49a9b,,,,,,,,,,,,,,,,,,,,,,,a,1,1.0154,"[""0.215"",""0.507"",""0.294"",""0.961""]","[1,1,0,1]",0,20,20,20,1,0,0,,,1,FALSE,,,,,,,,,,,,,,,,,,,,,,,,,,,,,,
,5ae7cdd9a0e4390001f08f12,001,2022-04-28_21h14.43.241,classification_task,2021.2.3,Win32,59.80503558,5ae7cdd9a0e4390001f08f12,626b377229c10585ec392f8a,626b3be7b0c628ea2af49a9b,,,,,,,,,,,,,,,,,,,,,,,a,1,3.0008,"[""0.215"",""0.109"",""0.741"",""0.961""]","[1,0,1,1]",0,21,21,21,1,0,0,,,1,FALSE,,,,,,,,,,,,,,,,,,,,,,,,,,,,,,
,5ae7cdd9a0e4390001f08f12,001,2022-04-28_21h14.43.241,classification_task,2021.2.3,Win32,59.80503558,5ae7cdd9a0e4390001f08f12,626b377229c10585ec392f8a,626b3be7b0c628ea2af49a9b,,,,,,,,,,,,,,,,,,,,,,,l,1,2.4993,"[""0.095"",""0.253"",""0.668"",""0.827""]","[0,1,1,1]",0,22,22,22,1,1,1,,,1,FALSE,,,,,,,,,,,,,,,,,,,,,,,,,,,,,,
,5ae7cdd9a0e4390001f08f12,001,2022-04-28_21h14.43.241,classification_task,2021.2.3,Win32,59.80503558,5ae7cdd9a0e4390001f08f12,626b377229c10585ec392f8a,626b3be7b0c628ea2af49a9b,,,,,,,,,,,,,,,,,,,,,,,a,0,3.2521,"[""0.060"",""0.253"",""0.101"",""0.827""]","[1,1,0,1]",0,23,23,23,1,1,1,,,1,FALSE,,,,,,,,,,,,,,,,,,,,,,,,,,,,,,
,5ae7cdd9a0e4390001f08f12,001,2022-04-28_21h14.43.241,classification_task,2021.2.3,Win32,59.80503558,5ae7cdd9a0e4390001f08f12,626b377229c10585ec392f8a,626b3be7b0c628ea2af49a9b,,,,,,,,,,,,,,,,,,,,,,,l,1,1.4999,"[""0.060"",""0.623"",""0.668"",""0.827""]","[1,0,1,1]",0,24,24,24,1,1,1,,,1,FALSE,,,,,,,,,,,,,,,,,,,,,,,,,,,,,,
,5ae7cdd9a0e4390001f08f12,001,2022-04-28_21h14.43.241,classification_task,2021.2.3,Win32,59.80503558,5ae7cdd9a0e4390001f08f12,626b377229c10585ec392f8a,626b3be7b0c628ea2af49a9b,,,,,,,,,,,,,,,,,,,,,,,a,1,1.0168,"[""0.215"",""0.507"",""0.741"",""0.633""]","[1,1,1,0]",0,25,25,25,1,0,0,,,1,FALSE,,,,,,,,,,,,,,,,,,,,,,,,,,,,,,
,5ae7cdd9a0e4390001f08f12,001,2022-04-28_21h14.43.241,classification_task,2021.2.3,Win32,59.80503558,5ae7cdd9a0e4390001f08f12,626b377229c10585ec392f8a,626b3be7b0c628ea2af49a9b,,,,,,,,,,,,,,,,,,,,,,,l,1,0.7325,"[""0.143"",""0.434"",""0.318"",""0.787""]","[1,1,0,1]",0,26,26,26,1,1,0,,,1,FALSE,,,,,,,,,,,,,,,,,,,,,,,,,,,,,,
,5ae7cdd9a0e4390001f08f12,001,2022-04-28_21h14.43.241,classification_task,2021.2.3,Win32,59.80503558,5ae7cdd9a0e4390001f08f12,626b377229c10585ec392f8a,626b3be7b0c628ea2af49a9b,,,,,,,,,,,,,,,,,,,,,,,l,0,1.9547,"[""0.101"",""0.507"",""0.741"",""0.961""]","[0,1,1,1]",0,27,27,27,1,0,0,,,1,FALSE,,,,,,,,,,,,,,,,,,,,,,,,,,,,,,
,5ae7cdd9a0e4390001f08f12,001,2022-04-28_21h14.43.241,classification_task,2021.2.3,Win32,59.80503558,5ae7cdd9a0e4390001f08f12,626b377229c10585ec392f8a,626b3be7b0c628ea2af49a9b,,,,,,,,,,,,,,,,,,,,,,,l,1,3.173,"[""0.060"",""0.253"",""0.668"",""0.301""]","[1,1,1,0]",0,28,28,28,1,1,1,,,1,FALSE,,,,,,,,,,,,,,,,,,,,,,,,,,,,,,
,5ae7cdd9a0e4390001f08f12,001,2022-04-28_21h14.43.241,classification_task,2021.2.3,Win32,59.80503558,5ae7cdd9a0e4390001f08f12,626b377229c10585ec392f8a,626b3be7b0c628ea2af49a9b,,,,,,,,,,,,,,,,,,,,,,,a,0,2.0861,"[""0.101"",""0.434"",""0.586"",""0.787""]","[0,1,1,1]",0,29,29,29,1,1,0,,,1,FALSE,,,,,,,,,,,,,,,,,,,,,,,,,,,,,,
,5ae7cdd9a0e4390001f08f12,001,2022-04-28_21h14.43.241,classification_task,2021.2.3,Win32,59.80503558,5ae7cdd9a0e4390001f08f12,626b377229c10585ec392f8a,626b3be7b0c628ea2af49a9b,,,,,,,,,,,,,,,,,,,,,,,a,1,1.484,"[""0.178"",""0.354"",""0.706"",""0.026""]","[1,1,1,0]",0,30,30,30,1,0,1,,,1,FALSE,,,,,,,,,,,,,,,,,,,,,,,,,,,,,,
,5ae7cdd9a0e4390001f08f12,001,2022-04-28_21h14.43.241,classification_task,2021.2.3,Win32,59.80503558,5ae7cdd9a0e4390001f08f12,626b377229c10585ec392f8a,626b3be7b0c628ea2af49a9b,,,,,,,,,,,,,,,,,,,,,,,l,0,1.2838,"[""0.927"",""0.354"",""0.706"",""0.886""]","[0,1,1,1]",0,31,31,31,1,0,1,,,1,FALSE,,,,,,,,,,,,,,,,,,,,,,,,,,,,,,
,5ae7cdd9a0e4390001f08f12,001,2022-04-28_21h14.43.241,classification_task,2021.2.3,Win32,59.80503558,5ae7cdd9a0e4390001f08f12,626b377229c10585ec392f8a,626b3be7b0c628ea2af49a9b,,,,,,,,,,,,,,,,,,,,,,,l,0,2.1324,"[""0.101"",""0.354"",""0.706"",""0.886""]","[0,1,1,1]",0,32,32,32,1,0,1,,,1,FALSE,,,,,,,,,,,,,,,,,,,,,,,,,,,,,,
,5ae7cdd9a0e4390001f08f12,001,2022-04-28_21h14.43.241,classification_task,2021.2.3,Win32,59.80503558,5ae7cdd9a0e4390001f08f12,626b377229c10585ec392f8a,626b3be7b0c628ea2af49a9b,,,,,,,,,,,,,,,,,,,,,,,a,1,1.3838,"[""0.178"",""0.354"",""0.927"",""0.886""]","[1,1,0,1]",0,33,33,33,1,0,1,,,1,FALSE,,,,,,,,,,,,,,,,,,,,,,,,,,,,,,
,5ae7cdd9a0e4390001f08f12,001,2022-04-28_21h14.43.241,classification_task,2021.2.3,Win32,59.80503558,5ae7cdd9a0e4390001f08f12,626b377229c10585ec392f8a,626b3be7b0c628ea2af49a9b,,,,,,,,,,,,,,,,,,,,,,,l,1,2.0986,"[""0.060"",""0.253"",""0.623"",""0.827""]","[1,1,0,1]",0,34,34,34,1,1,1,,,1,FALSE,,,,,,,,,,,,,,,,,,,,,,,,,,,,,,
,5ae7cdd9a0e4390001f08f12,001,2022-04-28_21h14.43.241,classification_task,2021.2.3,Win32,59.80503558,5ae7cdd9a0e4390001f08f12,626b377229c10585ec392f8a,626b3be7b0c628ea2af49a9b,,,,,,,,,,,,,,,,,,,,,,,a,0,1.3504,"[""0.060"",""0.541"",""0.668"",""0.827""]","[1,0,1,1]",0,35,35,35,1,1,1,,,1,FALSE,,,,,,,,,,,,,,,,,,,,,,,,,,,,,,
,5ae7cdd9a0e4390001f08f12,001,2022-04-28_21h14.43.241,classification_task,2021.2.3,Win32,59.80503558,5ae7cdd9a0e4390001f08f12,626b377229c10585ec392f8a,626b3be7b0c628ea2af49a9b,,,,,,,,,,,,,,,,,,,,,,,a,1,1.4841,"[""0.178"",""0.095"",""0.706"",""0.886""]","[1,0,1,1]",0,36,36,36,1,0,1,,,1,FALSE,,,,,,,,,,,,,,,,,,,,,,,,,,,,,,
,5ae7cdd9a0e4390001f08f12,001,2022-04-28_21h14.43.241,classification_task,2021.2.3,Win32,59.80503558,5ae7cdd9a0e4390001f08f12,626b377229c10585ec392f8a,626b3be7b0c628ea2af49a9b,,,,,,,,,,,,,,,,,,,,,,,a,1,0.9836,"[""0.215"",""0.507"",""0.741"",""0.633""]","[1,1,1,0]",0,37,37,37,1,0,0,,,1,FALSE,,,,,,,,,,,,,,,,,,,,,,,,,,,,,,
,5ae7cdd9a0e4390001f08f12,001,2022-04-28_21h14.43.241,classification_task,2021.2.3,Win32,59.80503558,5ae7cdd9a0e4390001f08f12,626b377229c10585ec392f8a,626b3be7b0c628ea2af49a9b,,,,,,,,,,,,,,,,,,,,,,,a,1,0.6833,"[""0.215"",""0.507"",""0.927"",""0.961""]","[1,1,0,1]",0,38,38,38,1,0,0,,,1,FALSE,,,,,,,,,,,,,,,,,,,,,,,,,,,,,,
,5ae7cdd9a0e4390001f08f12,001,2022-04-28_21h14.43.241,classification_task,2021.2.3,Win32,59.80503558,5ae7cdd9a0e4390001f08f12,626b377229c10585ec392f8a,626b3be7b0c628ea2af49a9b,,,,,,,,,,,,,,,,,,,,,,,l,1,0.9332,"[""0.143"",""0.434"",""0.294"",""0.787""]","[1,1,0,1]",0,39,39,39,1,1,0,,,1,FALSE,,,,,,,,,,,,,,,,,,,,,,,,,,,,,,
,5ae7cdd9a0e4390001f08f12,001,2022-04-28_21h14.43.241,classification_task,2021.2.3,Win32,59.80503558,5ae7cdd9a0e4390001f08f12,626b377229c10585ec392f8a,626b3be7b0c628ea2af49a9b,,,,,,,,,,,,,,,,,,,,,,,l,1,1.8989,"[""0.301"",""0.434"",""0.586"",""0.787""]","[0,1,1,1]",0,40,40,40,1,1,0,,,1,FALSE,,,,,,,,,,,,,,,,,,,,,,,,,,,,,,
,5ae7cdd9a0e4390001f08f12,001,2022-04-28_21h14.43.241,classification_task,2021.2.3,Win32,59.80503558,5ae7cdd9a0e4390001f08f12,626b377229c10585ec392f8a,626b3be7b0c628ea2af49a9b,,,,,,,,,,,,,,,,,,,,,,,l,1,1.5991,"[""0.391"",""0.253"",""0.668"",""0.827""]","[0,1,1,1]",0,41,41,41,1,1,1,,,1,FALSE,,,,,,,,,,,,,,,,,,,,,,,,,,,,,,
,5ae7cdd9a0e4390001f08f12,001,2022-04-28_21h14.43.241,classification_task,2021.2.3,Win32,59.80503558,5ae7cdd9a0e4390001f08f12,626b377229c10585ec392f8a,626b3be7b0c628ea2af49a9b,,,,,,,,,,,,,,,,,,,,,,,a,0,1.8677,"[""0.060"",""0.253"",""0.668"",""0.289""]","[1,1,1,0]",0,42,42,42,1,1,1,,,1,FALSE,,,,,,,,,,,,,,,,,,,,,,,,,,,,,,
,5ae7cdd9a0e4390001f08f12,001,2022-04-28_21h14.43.241,classification_task,2021.2.3,Win32,59.80503558,5ae7cdd9a0e4390001f08f12,626b377229c10585ec392f8a,626b3be7b0c628ea2af49a9b,,,,,,,,,,,,,,,,,,,,,,,a,1,1.2156,"[""0.178"",""0.354"",""0.706"",""0.289""]","[1,1,1,0]",0,43,43,43,1,0,1,,,1,FALSE,,,,,,,,,,,,,,,,,,,,,,,,,,,,,,
,5ae7cdd9a0e4390001f08f12,001,2022-04-28_21h14.43.241,classification_task,2021.2.3,Win32,59.80503558,5ae7cdd9a0e4390001f08f12,626b377229c10585ec392f8a,626b3be7b0c628ea2af49a9b,,,,,,,,,,,,,,,,,,,,,,,l,1,0.5151,"[""0.143"",""0.434"",""0.586"",""0.927""]","[1,1,1,0]",0,44,44,44,1,1,0,,,1,FALSE,,,,,,,,,,,,,,,,,,,,,,,,,,,,,,
,5ae7cdd9a0e4390001f08f12,001,2022-04-28_21h14.43.241,classification_task,2021.2.3,Win32,59.80503558,5ae7cdd9a0e4390001f08f12,626b377229c10585ec392f8a,626b3be7b0c628ea2af49a9b,,,,,,,,,,,,,,,,,,,,,,,a,1,0.8982,"[""0.215"",""0.623"",""0.741"",""0.961""]","[1,0,1,1]",0,45,45,45,1,0,0,,,1,FALSE,,,,,,,,,,,,,,,,,,,,,,,,,,,,,,
,5ae7cdd9a0e4390001f08f12,001,2022-04-28_21h14.43.241,classification_task,2021.2.3,Win32,59.80503558,5ae7cdd9a0e4390001f08f12,626b377229c10585ec392f8a,626b3be7b0c628ea2af49a9b,,,,,,,,,,,,,,,,,,,,,,,l,1,0.7992,"[""0.143"",""0.391"",""0.586"",""0.787""]","[1,0,1,1]",0,46,46,46,1,1,0,,,1,FALSE,,,,,,,,,,,,,,,,,,,,,,,,,,,,,,
,5ae7cdd9a0e4390001f08f12,001,2022-04-28_21h14.43.241,classification_task,2021.2.3,Win32,59.80503558,5ae7cdd9a0e4390001f08f12,626b377229c10585ec392f8a,626b3be7b0c628ea2af49a9b,,,,,,,,,,,,,,,,,,,,,,,l,0,2.8486,"[""0.301"",""0.507"",""0.741"",""0.961""]","[0,1,1,1]",0,47,47,47,1,0,0,,,1,FALSE,,,,,,,,,,,,,,,,,,,,,,,,,,,,,,
,5ae7cdd9a0e4390001f08f12,001,2022-04-28_21h14.43.241,classification_task,2021.2.3,Win32,59.80503558,5ae7cdd9a0e4390001f08f12,626b377229c10585ec392f8a,626b3be7b0c628ea2af49a9b,,,,,,,,,,,,,,,,,,,,,,,a,1,1.3181,"[""0.178"",""0.354"",""0.706"",""0.289""]","[1,1,1,0]",0,48,48,48,1,0,1,,,1,FALSE,,,,,,,,,,,,,,,,,,,,,,,,,,,,,,
,5ae7cdd9a0e4390001f08f12,001,2022-04-28_21h14.43.241,classification_task,2021.2.3,Win32,59.80503558,5ae7cdd9a0e4390001f08f12,626b377229c10585ec392f8a,626b3be7b0c628ea2af49a9b,,,,,,,,,,,,,,,,,,,,,,,a,1,1.1333,"[""0.215"",""0.507"",""0.741"",""0.101""]","[1,1,1,0]",0,49,49,49,1,0,0,,,1,FALSE,,,,,,,,,,,,,,,,,,,,,,,,,,,,,,
,5ae7cdd9a0e4390001f08f12,001,2022-04-28_21h14.43.241,classification_task,2021.2.3,Win32,59.80503558,5ae7cdd9a0e4390001f08f12,626b377229c10585ec392f8a,626b3be7b0c628ea2af49a9b,,,,,,,,,,,,,,,,,,,,,,,l,1,1.6822,"[""0.541"",""0.434"",""0.586"",""0.787""]","[0,1,1,1]",0,50,50,50,1,1,0,,,1,FALSE,,,,,,,,,,,,,,,,,,,,,,,,,,,,,,
,5ae7cdd9a0e4390001f08f12,001,2022-04-28_21h14.43.241,classification_task,2021.2.3,Win32,59.80503558,5ae7cdd9a0e4390001f08f12,626b377229c10585ec392f8a,626b3be7b0c628ea2af49a9b,,,,,,,,,,,,,,,,,,,,,,,a,1,1.4156,"[""0.215"",""0.294"",""0.741"",""0.961""]","[1,0,1,1]",0,51,51,51,1,0,0,,,1,FALSE,,,,,,,,,,,,,,,,,,,,,,,,,,,,,,
,5ae7cdd9a0e4390001f08f12,001,2022-04-28_21h14.43.241,classification_task,2021.2.3,Win32,59.80503558,5ae7cdd9a0e4390001f08f12,626b377229c10585ec392f8a,626b3be7b0c628ea2af49a9b,,,,,,,,,,,,,,,,,,,,,,,a,1,1.2346,"[""0.178"",""0.354"",""0.623"",""0.886""]","[1,1,0,1]",0,52,52,52,1,0,1,,,1,FALSE,,,,,,,,,,,,,,,,,,,,,,,,,,,,,,
,5ae7cdd9a0e4390001f08f12,001,2022-04-28_21h14.43.241,classification_task,2021.2.3,Win32,59.80503558,5ae7cdd9a0e4390001f08f12,626b377229c10585ec392f8a,626b3be7b0c628ea2af49a9b,,,,,,,,,,,,,,,,,,,,,,,l,0,1.3665,"[""0.391"",""0.354"",""0.706"",""0.886""]","[0,1,1,1]",0,53,53,53,1,0,1,,,1,FALSE,,,,,,,,,,,,,,,,,,,,,,,,,,,,,,
,5ae7cdd9a0e4390001f08f12,001,2022-04-28_21h14.43.241,classification_task,2021.2.3,Win32,59.80503558,5ae7cdd9a0e4390001f08f12,626b377229c10585ec392f8a,626b3be7b0c628ea2af49a9b,,,,,,,,,,,,,,,,,,,,,,,a,0,2.4329,"[""0.060"",""0.253"",""0.668"",""0.095""]","[1,1,1,0]",0,54,54,54,1,1,1,,,1,FALSE,,,,,,,,,,,,,,,,,,,,,,,,,,,,,,
,5ae7cdd9a0e4390001f08f12,001,2022-04-28_21h14.43.241,classification_task,2021.2.3,Win32,59.80503558,5ae7cdd9a0e4390001f08f12,626b377229c10585ec392f8a,626b3be7b0c628ea2af49a9b,,,,,,,,,,,,,,,,,,,,,,,l,1,1.9012,"[""0.060"",""0.253"",""0.289"",""0.827""]","[1,1,0,1]",0,55,55,55,1,1,1,,,1,FALSE,,,,,,,,,,,,,,,,,,,,,,,,,,,,,,
,5ae7cdd9a0e4390001f08f12,001,2022-04-28_21h14.43.241,classification_task,2021.2.3,Win32,59.80503558,5ae7cdd9a0e4390001f08f12,626b377229c10585ec392f8a,626b3be7b0c628ea2af49a9b,,,,,,,,,,,,,,,,,,,,,,,l,1,1.8981,"[""0.143"",""0.434"",""0.318"",""0.787""]","[1,1,0,1]",0,56,56,56,1,1,0,,,1,FALSE,,,,,,,,,,,,,,,,,,,,,,,,,,,,,,
,5ae7cdd9a0e4390001f08f12,001,2022-04-28_21h14.43.241,classification_task,2021.2.3,Win32,59.80503558,5ae7cdd9a0e4390001f08f12,626b377229c10585ec392f8a,626b3be7b0c628ea2af49a9b,,,,,,,,,,,,,,,,,,,,,,,a,1,1.2505,"[""0.178"",""0.026"",""0.706"",""0.886""]","[1,0,1,1]",0,57,57,57,1,0,1,,,1,FALSE,,,,,,,,,,,,,,,,,,,,,,,,,,,,,,
,5ae7cdd9a0e4390001f08f12,001,2022-04-28_21h14.43.241,classification_task,2021.2.3,Win32,59.80503558,5ae7cdd9a0e4390001f08f12,626b377229c10585ec392f8a,626b3be7b0c628ea2af49a9b,,,,,,,,,,,,,,,,,,,,,,,l,1,1.9325,"[""0.026"",""0.253"",""0.668"",""0.827""]","[0,1,1,1]",0,58,58,58,1,1,1,,,1,FALSE,,,,,,,,,,,,,,,,,,,,,,,,,,,,,,
,5ae7cdd9a0e4390001f08f12,001,2022-04-28_21h14.43.241,classification_task,2021.2.3,Win32,59.80503558,5ae7cdd9a0e4390001f08f12,626b377229c10585ec392f8a,626b3be7b0c628ea2af49a9b,,,,,,,,,,,,,,,,,,,,,,,a,1,0.9987,"[""0.215"",""0.507"",""0.623"",""0.961""]","[1,1,0,1]",0,59,59,59,1,0,0,,,1,FALSE,,,,,,,,,,,,,,,,,,,,,,,,,,,,,,
,5ae7cdd9a0e4390001f08f12,001,2022-04-28_21h14.43.241,classification_task,2021.2.3,Win32,59.80503558,5ae7cdd9a0e4390001f08f12,626b377229c10585ec392f8a,626b3be7b0c628ea2af49a9b,,,,,,,,,,,,,,,,,,,,,,,l,1,1.2983,"[""0.143"",""0.434"",""0.586"",""0.391""]","[1,1,1,0]",0,60,60,60,1,1,0,,,1,FALSE,,,,,,,,,,,,,,,,,,,,,,,,,,,,,,
,5ae7cdd9a0e4390001f08f12,001,2022-04-28_21h14.43.241,classification_task,2021.2.3,Win32,59.80503558,5ae7cdd9a0e4390001f08f12,626b377229c10585ec392f8a,626b3be7b0c628ea2af49a9b,,,,,,,,,,,,,,,,,,,,,,,l,0,1.3649,"[""0.294"",""0.507"",""0.741"",""0.961""]","[0,1,1,1]",0,61,61,61,1,0,0,,,1,FALSE,,,,,,,,,,,,,,,,,,,,,,,,,,,,,,
,5ae7cdd9a0e4390001f08f12,001,2022-04-28_21h14.43.241,classification_task,2021.2.3,Win32,59.80503558,5ae7cdd9a0e4390001f08f12,626b377229c10585ec392f8a,626b3be7b0c628ea2af49a9b,,,,,,,,,,,,,,,,,,,,,,,a,0,1.5826,"[""0.060"",""0.623"",""0.668"",""0.827""]","[1,0,1,1]",0,62,62,62,1,1,1,,,1,FALSE,,,,,,,,,,,,,,,,,,,,,,,,,,,,,,
,5ae7cdd9a0e4390001f08f12,001,2022-04-28_21h14.43.241,classification_task,2021.2.3,Win32,59.80503558,5ae7cdd9a0e4390001f08f12,626b377229c10585ec392f8a,626b3be7b0c628ea2af49a9b,,,,,,,,,,,,,,,,,,,,,,,l,1,0.9986,"[""0.143"",""0.623"",""0.586"",""0.787""]","[1,0,1,1]",0,63,63,63,1,1,0,,,1,FALSE,,,,,,,,,,,,,,,,,,,,,,,,,,,,,,
,5ae7cdd9a0e4390001f08f12,001,2022-04-28_21h14.43.241,classification_task,2021.2.3,Win32,59.80503558,5ae7cdd9a0e4390001f08f12,626b377229c10585ec392f8a,626b3be7b0c628ea2af49a9b,,,,,,,,,,,,,,,,,,,,,,,,,,,,,,,,,,,,,,,0, ,,0,1.555335097,187.0002,0,2,2,2,1,2,3,,,,,,,,,,,,,,,,,
,5ae7cdd9a0e4390001f08f12,001,2022-04-28_21h14.43.241,classification_task,2021.2.3,Win32,59.80503558,5ae7cdd9a0e4390001f08f12,626b377229c10585ec392f8a,626b3be7b0c628ea2af49a9b,,,,,,,,,,,,,,,,,,,,,,,,,,,,,,,,,,,,,,,1,  ,,0,8.754684744,189.4121,0,2,2,2,1,2,3,,,,,,,,,,,,,,,,,
,5ae7cdd9a0e4390001f08f12,001,2022-04-28_21h14.43.241,classification_task,2021.2.3,Win32,59.80503558,5ae7cdd9a0e4390001f08f12,626b377229c10585ec392f8a,626b3be7b0c628ea2af49a9b,,,,,,,,,,,,,,,,,,,,,,,,,,,,,,,,,,,,,,,2,  ,,0,8.651344797,190.7207,0,2,2,2,1,2,3,,,,,,,,,,,,,,,,,
,5ae7cdd9a0e4390001f08f12,001,2022-04-28_21h14.43.241,classification_task,2021.2.3,Win32,59.80503558,5ae7cdd9a0e4390001f08f12,626b377229c10585ec392f8a,626b3be7b0c628ea2af49a9b,,,,,,,,,,,,,,,,,,,,,,,,,,,,,,,,,,,,,,,,,,,,,0,2,2,2,1,,3,,,,,,,,,,,,,,,,,
,5ae7cdd9a0e4390001f08f12,001,2022-04-28_21h14.43.241,classification_task,2021.2.3,Win32,59.80503558,5ae7cdd9a0e4390001f08f12,626b377229c10585ec392f8a,626b3be7b0c628ea2af49a9b,,,,,,,,,,,,,,,,,,,,,,,,,,,,,,,,,,,,,,,,,,,,,,,,,,,,,I believe the aid is a competent performer,,0.7,0,4,966.0906,0,0,0,0,1,0,,,,
,5ae7cdd9a0e4390001f08f12,001,2022-04-28_21h14.43.241,classification_task,2021.2.3,Win32,59.80503558,5ae7cdd9a0e4390001f08f12,626b377229c10585ec392f8a,626b3be7b0c628ea2af49a9b,,,,,,,,,,,,,,,,,,,,,,,,,,,,,,,,,,,,,,,,,,,,,,,,,,,,,I trust the aid,,0.7,0,4,968.4445,0,0,0,0,1,0,,,,
,5ae7cdd9a0e4390001f08f12,001,2022-04-28_21h14.43.241,classification_task,2021.2.3,Win32,59.80503558,5ae7cdd9a0e4390001f08f12,626b377229c10585ec392f8a,626b3be7b0c628ea2af49a9b,,,,,,,,,,,,,,,,,,,,,,,,,,,,,,,,,,,,,,,,,,,,,,,,,,,,,I have confidence in the advice given by the aid,,0.7,0,4,969.9692,0,0,0,0,1,0,,,,
,5ae7cdd9a0e4390001f08f12,001,2022-04-28_21h14.43.241,classification_task,2021.2.3,Win32,59.80503558,5ae7cdd9a0e4390001f08f12,626b377229c10585ec392f8a,626b3be7b0c628ea2af49a9b,,,,,,,,,,,,,,,,,,,,,,,,,,,,,,,,,,,,,,,,,,,,,,,,,,,,,I can depend on the aid,,0.7,0,5,971.5561,0,0,0,0,1,0,,,,
,5ae7cdd9a0e4390001f08f12,001,2022-04-28_21h14.43.241,classification_task,2021.2.3,Win32,59.80503558,5ae7cdd9a0e4390001f08f12,626b377229c10585ec392f8a,626b3be7b0c628ea2af49a9b,,,,,,,,,,,,,,,,,,,,,,,,,,,,,,,,,,,,,,,,,,,,,,,,,,,,,I can rely on the aid to behave in consistent ways,,0.7,0,5,973.6835,0,0,0,0,1,0,,,,
,5ae7cdd9a0e4390001f08f12,001,2022-04-28_21h14.43.241,classification_task,2021.2.3,Win32,59.80503558,5ae7cdd9a0e4390001f08f12,626b377229c10585ec392f8a,626b3be7b0c628ea2af49a9b,,,,,,,,,,,,,,,,,,,,,,,,,,,,,,,,,,,,,,,,,,,,,,,,,,,,,I can rely on the aid to do its best every time I take its advice,,0.7,0,5,976.1504,0,0,0,0,1,0,,,,
,5ae7cdd9a0e4390001f08f12,001,2022-04-28_21h14.43.241,classification_task,2021.2.3,Win32,59.80503558,5ae7cdd9a0e4390001f08f12,626b377229c10585ec392f8a,626b3be7b0c628ea2af49a9b,,,,,,,,,,,,,,,,,,,,,,,,,,,,,,,,,,,,,,,,,,,,,,,,,,,,,"On trials you completed with assistance from the aid, how frequently did you think the aid was correct?",,0.7,0,100%,,0,0,0,0,1,0,,,,
,5ae7cdd9a0e4390001f08f12,001,2022-04-28_21h14.43.241,classification_task,2021.2.3,Win32,59.80503558,5ae7cdd9a0e4390001f08f12,626b377229c10585ec392f8a,626b3be7b0c628ea2af49a9b,,,,,,,,,,,,,,,,,,,,,,,,,,,,,,,,,,,,,,,,,,,,,,,,,,,,,"On trials you completed without the aid, how frequently did you think you were correct?",,0.7,0,60%,,0,0,0,0,1,0,,,,
,5ae7cdd9a0e4390001f08f12,001,2022-04-28_21h14.43.241,classification_task,2021.2.3,Win32,59.80503558,5ae7cdd9a0e4390001f08f12,626b377229c10585ec392f8a,626b3be7b0c628ea2af49a9b,,,,,,,,,,,,,,,,,,,,,,,,,,,,,,,,,,,,,,,,,,,,,,,,,,,,,,,,,,,0,0,0,0,1,,,,,
,5ae7cdd9a0e4390001f08f12,001,2022-04-28_21h14.43.241,classification_task,2021.2.3,Win32,59.80503558,5ae7cdd9a0e4390001f08f12,626b377229c10585ec392f8a,626b3be7b0c628ea2af49a9b,,,,,,,,,,,,,,,,,,,,,,,,,,,,,,,,,,,,,,,,,,,,,,,,,,,,,,,,,,,,,,,,,space,17.1798,1008.7397,
,5ae7cdd9a0e4390001f08f12,001,2022-04-28_21h14.43.241,classification_task,2021.2.3,Win32,59.80503558,5ae7cdd9a0e4390001f08f12,626b377229c10585ec392f8a,626b3be7b0c628ea2af49a9b,,,,,,,,,,,,,,,,,,,,,,,,,,,,,,,,,,,,,,,,,,,,,,,,,,,,,,,,,,,,,,,,,,,,"Mozilla/5.0 (Windows NT 10.0; Win64; x64) AppleWebKit/537.36 (KHTML, like Gecko) Chrome/100.0.4896.127 Safari/537.36"
