usingWebGL,participant,session,date,expName,psychopyVersion,OS,frameRate,study_id,signatures_friend,signatures_foe,band_ranges_top,band_ranges_bottom,formitemText,formtype,formundefined,formitemWidth,formindex,formresponse,formrt,key_resp_2.keys,key_resp_2.rt,tute_resp.keys,tute_resp.rt,tutorial.thisRepN,tutorial.thisTrialN,tutorial.thisN,tutorial.thisIndex,tutorial.ran,key_resp_4.keys,key_resp_4.rt,key_resp.keys,key_resp.corr,lines_presented,is_signal_presented,trials.thisRepN,trials.thisTrialN,trials.thisN,trials.thisIndex,trials.ran,vessel,active_band,lines,is_signal,supported_pos,catch_trial,key_resp.rt,debrief_formindex,debrief_formitemText,debrief_formtype,debrief_formitemWidth,debrief_formresponse,debrief_formrt,phases.thisRepN,phases.thisTrialN,phases.thisN,phases.thisIndex,phases.ran,phases.order,phase,key_resp_3.keys,trustitemText,trusttype,trustitemWidth,trustindex,trustresponse,trustrt,support_status.thisRepN,support_status.thisTrialN,support_status.thisN,support_status.thisIndex,support_status.ran,support_status.order,key_resp_5.keys,key_resp_5.rt,globalClockTime,userAgent,manualCondition
TRUE,5b27c8c9051c6e00019d0c96,627c6f77c925d19e815a9026,2022-05-11_22h24.18.241,classification_task,2021.2.3,Linux x86_64,60.0024001,627c6715c52fd12f31907bcf,,,,,,,,,,,,,,,,,,,,,,,,,,,,,,,,,,,,,,,,,,,,,,,,,,,,,,,,,,,,,,,,,,,,,
,5b27c8c9051c6e00019d0c96,627c6f77c925d19e815a9026,2022-05-11_22h24.18.241,classification_task,2021.2.3,Linux x86_64,60.0024001,627c6715c52fd12f31907bcf,"[[""0.214"",""0.566"",""0.878"",""0.955""],[""0.279"",""0.336"",""0.839"",""0.916""]]","[[""0.052"",""0.170"",""0.519"",""0.797""],[""0.086"",""0.390"",""0.450"",""0.736""]]","[1,10]","[100,1000]",Video game experience,,,0.7,0,,,,,,,,,,,,,,,,,,,,,,,,,,,,,,,,,,,,,,,,,,,,,,,,,,,,,,,,,,,,
,5b27c8c9051c6e00019d0c96,627c6f77c925d19e815a9026,2022-05-11_22h24.18.241,classification_task,2021.2.3,Linux x86_64,60.0024001,627c6715c52fd12f31907bcf,,,,,Approximately how many hours did you spend playing video games in the last week?,,,0.7,0,10,,,,,,,,,,,,,,,,,,,,,,,,,,,,,,,,,,,,,,,,,,,,,,,,,,,,,,,,,,,
,5b27c8c9051c6e00019d0c96,627c6f77c925d19e815a9026,2022-05-11_22h24.18.241,classification_task,2021.2.3,Linux x86_64,60.0024001,627c6715c52fd12f31907bcf,,,,,"Which game did you play the most this year? (Enter ""None"" if you didn't play any)",,,0.7,0,None,,,,,,,,,,,,,,,,,,,,,,,,,,,,,,,,,,,,,,,,,,,,,,,,,,,,,,,,,,,
,5b27c8c9051c6e00019d0c96,627c6f77c925d19e815a9026,2022-05-11_22h24.18.241,classification_task,2021.2.3,Linux x86_64,60.0024001,627c6715c52fd12f31907bcf,,,,,Visual perception,,,0.7,0,,,,,,,,,,,,,,,,,,,,,,,,,,,,,,,,,,,,,,,,,,,,,,,,,,,,,,,,,,,,
,5b27c8c9051c6e00019d0c96,627c6f77c925d19e815a9026,2022-05-11_22h24.18.241,classification_task,2021.2.3,Linux x86_64,60.0024001,627c6715c52fd12f31907bcf,,,,,Do you have any form of color blindness?,,,0.7,0,No,17.015,,,,,,,,,,,,,,,,,,,,,,,,,,,,,,,,,,,,,,,,,,,,,,,,,,,,,,,,,,
,5b27c8c9051c6e00019d0c96,627c6f77c925d19e815a9026,2022-05-11_22h24.18.241,classification_task,2021.2.3,Linux x86_64,60.0024001,627c6715c52fd12f31907bcf,,,,,Do you use software to change the colour temperature of your screen (e.g. f.lux)?,,,0.7,0,No,20.9683,,,,,,,,,,,,,,,,,,,,,,,,,,,,,,,,,,,,,,,,,,,,,,,,,,,,,,,,,,
,5b27c8c9051c6e00019d0c96,627c6f77c925d19e815a9026,2022-05-11_22h24.18.241,classification_task,2021.2.3,Linux x86_64,60.0024001,627c6715c52fd12f31907bcf,,,,,,,,,,,,space,26.5647,space,10.7378,0,0,0,0,1,,,,,,,,,,,,,,,,,,,,,,,,,,,,,,,,,,,,,,,,,,,,,,,,,
,5b27c8c9051c6e00019d0c96,627c6f77c925d19e815a9026,2022-05-11_22h24.18.241,classification_task,2021.2.3,Linux x86_64,60.0024001,627c6715c52fd12f31907bcf,,,,,,,,,,,,,,space,14.2799,1,0,1,0,1,,,,,,,,,,,,,,,,,,,,,,,,,,,,,,,,,,,,,,,,,,,,,,,,,
,5b27c8c9051c6e00019d0c96,627c6f77c925d19e815a9026,2022-05-11_22h24.18.241,classification_task,2021.2.3,Linux x86_64,60.0024001,627c6715c52fd12f31907bcf,,,,,,,,,,,,,,space,26.4642,2,0,2,0,1,,,,,,,,,,,,,,,,,,,,,,,,,,,,,,,,,,,,,,,,,,,,,,,,,
,5b27c8c9051c6e00019d0c96,627c6f77c925d19e815a9026,2022-05-11_22h24.18.241,classification_task,2021.2.3,Linux x86_64,60.0024001,627c6715c52fd12f31907bcf,,,,,,,,,,,,,,space,22.731,3,0,3,0,1,,,,,,,,,,,,,,,,,,,,,,,,,,,,,,,,,,,,,,,,,,,,,,,,,
,5b27c8c9051c6e00019d0c96,627c6f77c925d19e815a9026,2022-05-11_22h24.18.241,classification_task,2021.2.3,Linux x86_64,60.0024001,627c6715c52fd12f31907bcf,,,,,,,,,,,,,,space,4.6816,4,0,4,0,1,,,,,,,,,,,,,,,,,,,,,,,,,,,,,,,,,,,,,,,,,,,,,,,,,
,5b27c8c9051c6e00019d0c96,627c6f77c925d19e815a9026,2022-05-11_22h24.18.241,classification_task,2021.2.3,Linux x86_64,60.0024001,627c6715c52fd12f31907bcf,,,,,,,,,,,,,,,,,,,,,space,2.7414,,0,"[""0.052"",""0.637"",""0.519"",""0.797""]","[1,0,1,1]",0,0,0,0,1,1,0,,,1,FALSE,,,,,,,,,,,,,,,,,,,,,,,,,,,,,,,,
,5b27c8c9051c6e00019d0c96,627c6f77c925d19e815a9026,2022-05-11_22h24.18.241,classification_task,2021.2.3,Linux x86_64,60.0024001,627c6715c52fd12f31907bcf,,,,,,,,,,,,,,,,,,,,,,,,0,"[""0.635"",""0.170"",""0.519"",""0.797""]","[0,1,1,1]",0,1,1,1,1,1,0,,,1,FALSE,,,,,,,,,,,,,,,,,,,,,,,,,,,,,,,,
,5b27c8c9051c6e00019d0c96,627c6f77c925d19e815a9026,2022-05-11_22h24.18.241,classification_task,2021.2.3,Linux x86_64,60.0024001,627c6715c52fd12f31907bcf,,,,,,,,,,,,,,,,,,,,,,,l,1,"[""0.052"",""0.170"",""0.123"",""0.797""]","[1,1,0,1]",0,2,2,2,1,1,0,,,1,FALSE,6.666,,,,,,,,,,,,,,,,,,,,,,,,,,,,,,,
,5b27c8c9051c6e00019d0c96,627c6f77c925d19e815a9026,2022-05-11_22h24.18.241,classification_task,2021.2.3,Linux x86_64,60.0024001,627c6715c52fd12f31907bcf,,,,,,,,,,,,,,,,,,,,,,,l,1,"[""0.625"",""0.390"",""0.450"",""0.736""]","[0,1,1,1]",0,3,3,3,1,1,1,,,1,FALSE,1.9276,,,,,,,,,,,,,,,,,,,,,,,,,,,,,,,
,5b27c8c9051c6e00019d0c96,627c6f77c925d19e815a9026,2022-05-11_22h24.18.241,classification_task,2021.2.3,Linux x86_64,60.0024001,627c6715c52fd12f31907bcf,,,,,,,,,,,,,,,,,,,,,,,l,1,"[""0.086"",""0.134"",""0.450"",""0.736""]","[1,0,1,1]",0,4,4,4,1,1,1,,,1,FALSE,2.0515,,,,,,,,,,,,,,,,,,,,,,,,,,,,,,,
,5b27c8c9051c6e00019d0c96,627c6f77c925d19e815a9026,2022-05-11_22h24.18.241,classification_task,2021.2.3,Linux x86_64,60.0024001,627c6715c52fd12f31907bcf,,,,,,,,,,,,,,,,,,,,,,,a,1,"[""0.214"",""0.566"",""0.878"",""0.685""]","[1,1,1,0]",0,5,5,5,1,0,0,,,1,FALSE,3.3957,,,,,,,,,,,,,,,,,,,,,,,,,,,,,,,
,5b27c8c9051c6e00019d0c96,627c6f77c925d19e815a9026,2022-05-11_22h24.18.241,classification_task,2021.2.3,Linux x86_64,60.0024001,627c6715c52fd12f31907bcf,,,,,,,,,,,,,,,,,,,,,,,l,0,"[""0.214"",""0.566"",""0.625"",""0.955""]","[1,1,0,1]",0,6,6,6,1,0,0,,,1,FALSE,2.0001,,,,,,,,,,,,,,,,,,,,,,,,,,,,,,,
,5b27c8c9051c6e00019d0c96,627c6f77c925d19e815a9026,2022-05-11_22h24.18.241,classification_task,2021.2.3,Linux x86_64,60.0024001,627c6715c52fd12f31907bcf,,,,,,,,,,,,,,,,,,,,,,,a,1,"[""0.279"",""0.608"",""0.839"",""0.916""]","[1,0,1,1]",0,7,7,7,1,0,1,,,1,FALSE,5.1981,,,,,,,,,,,,,,,,,,,,,,,,,,,,,,,
,5b27c8c9051c6e00019d0c96,627c6f77c925d19e815a9026,2022-05-11_22h24.18.241,classification_task,2021.2.3,Linux x86_64,60.0024001,627c6715c52fd12f31907bcf,,,,,,,,,,,,,,,,,,,,,,,a,1,"[""0.279"",""0.336"",""0.839"",""0.629""]","[1,1,1,0]",0,8,8,8,1,0,1,,,1,FALSE,4.2331,,,,,,,,,,,,,,,,,,,,,,,,,,,,,,,
,5b27c8c9051c6e00019d0c96,627c6f77c925d19e815a9026,2022-05-11_22h24.18.241,classification_task,2021.2.3,Linux x86_64,60.0024001,627c6715c52fd12f31907bcf,,,,,,,,,,,,,,,,,,,,,,,l,0,"[""0.214"",""0.684"",""0.878"",""0.955""]","[1,0,1,1]",0,9,9,9,1,0,0,,,1,FALSE,1.2937,,,,,,,,,,,,,,,,,,,,,,,,,,,,,,,
,5b27c8c9051c6e00019d0c96,627c6f77c925d19e815a9026,2022-05-11_22h24.18.241,classification_task,2021.2.3,Linux x86_64,60.0024001,627c6715c52fd12f31907bcf,,,,,,,,,,,,,,,,,,,,,,,a,1,"[""0.616"",""0.336"",""0.839"",""0.916""]","[0,1,1,1]",0,10,10,10,1,0,1,,,1,FALSE,1.4966,,,,,,,,,,,,,,,,,,,,,,,,,,,,,,,
,5b27c8c9051c6e00019d0c96,627c6f77c925d19e815a9026,2022-05-11_22h24.18.241,classification_task,2021.2.3,Linux x86_64,60.0024001,627c6715c52fd12f31907bcf,,,,,,,,,,,,,,,,,,,,,,,l,1,"[""0.086"",""0.390"",""0.450"",""0.637""]","[1,1,1,0]",0,11,11,11,1,1,1,,,1,FALSE,1.1597,,,,,,,,,,,,,,,,,,,,,,,,,,,,,,,
,5b27c8c9051c6e00019d0c96,627c6f77c925d19e815a9026,2022-05-11_22h24.18.241,classification_task,2021.2.3,Linux x86_64,60.0024001,627c6715c52fd12f31907bcf,,,,,,,,,,,,,,,,,,,,,,,a,1,"[""0.279"",""0.336"",""0.624"",""0.916""]","[1,1,0,1]",0,12,12,12,1,0,1,,,1,FALSE,1.9364,,,,,,,,,,,,,,,,,,,,,,,,,,,,,,,
,5b27c8c9051c6e00019d0c96,627c6f77c925d19e815a9026,2022-05-11_22h24.18.241,classification_task,2021.2.3,Linux x86_64,60.0024001,627c6715c52fd12f31907bcf,,,,,,,,,,,,,,,,,,,,,,,l,0,"[""0.629"",""0.566"",""0.878"",""0.955""]","[0,1,1,1]",0,13,13,13,1,0,0,,,1,FALSE,1.3451,,,,,,,,,,,,,,,,,,,,,,,,,,,,,,,
,5b27c8c9051c6e00019d0c96,627c6f77c925d19e815a9026,2022-05-11_22h24.18.241,classification_task,2021.2.3,Linux x86_64,60.0024001,627c6715c52fd12f31907bcf,,,,,,,,,,,,,,,,,,,,,,,l,1,"[""0.052"",""0.170"",""0.519"",""0.625""]","[1,1,1,0]",0,14,14,14,1,1,0,,,1,FALSE,2.1841,,,,,,,,,,,,,,,,,,,,,,,,,,,,,,,
,5b27c8c9051c6e00019d0c96,627c6f77c925d19e815a9026,2022-05-11_22h24.18.241,classification_task,2021.2.3,Linux x86_64,60.0024001,627c6715c52fd12f31907bcf,,,,,,,,,,,,,,,,,,,,,,,l,1,"[""0.086"",""0.390"",""0.629"",""0.736""]","[1,1,0,1]",0,15,15,15,1,1,1,,,1,FALSE,2.0602,,,,,,,,,,,,,,,,,,,,,,,,,,,,,,,
,5b27c8c9051c6e00019d0c96,627c6f77c925d19e815a9026,2022-05-11_22h24.18.241,classification_task,2021.2.3,Linux x86_64,60.0024001,627c6715c52fd12f31907bcf,,,,,,,,,,,,,,,,,,,,,,,a,1,"[""0.279"",""0.336"",""0.483"",""0.916""]","[1,1,0,1]",0,16,16,16,1,0,1,,,1,FALSE,0.6836,,,,,,,,,,,,,,,,,,,,,,,,,,,,,,,
,5b27c8c9051c6e00019d0c96,627c6f77c925d19e815a9026,2022-05-11_22h24.18.241,classification_task,2021.2.3,Linux x86_64,60.0024001,627c6715c52fd12f31907bcf,,,,,,,,,,,,,,,,,,,,,,,l,1,"[""0.086"",""0.635"",""0.450"",""0.736""]","[1,0,1,1]",0,17,17,17,1,1,1,,,1,FALSE,1.3703,,,,,,,,,,,,,,,,,,,,,,,,,,,,,,,
,5b27c8c9051c6e00019d0c96,627c6f77c925d19e815a9026,2022-05-11_22h24.18.241,classification_task,2021.2.3,Linux x86_64,60.0024001,627c6715c52fd12f31907bcf,,,,,,,,,,,,,,,,,,,,,,,l,1,"[""0.086"",""0.390"",""0.685"",""0.736""]","[1,1,0,1]",0,18,18,18,1,1,1,,,1,FALSE,1.9179,,,,,,,,,,,,,,,,,,,,,,,,,,,,,,,
,5b27c8c9051c6e00019d0c96,627c6f77c925d19e815a9026,2022-05-11_22h24.18.241,classification_task,2021.2.3,Linux x86_64,60.0024001,627c6715c52fd12f31907bcf,,,,,,,,,,,,,,,,,,,,,,,a,1,"[""0.279"",""0.336"",""0.839"",""0.616""]","[1,1,1,0]",0,19,19,19,1,0,1,,,1,FALSE,0.997,,,,,,,,,,,,,,,,,,,,,,,,,,,,,,,
,5b27c8c9051c6e00019d0c96,627c6f77c925d19e815a9026,2022-05-11_22h24.18.241,classification_task,2021.2.3,Linux x86_64,60.0024001,627c6715c52fd12f31907bcf,,,,,,,,,,,,,,,,,,,,,,,l,1,"[""0.483"",""0.390"",""0.450"",""0.736""]","[0,1,1,1]",0,20,20,20,1,1,1,,,1,FALSE,0.9494,,,,,,,,,,,,,,,,,,,,,,,,,,,,,,,
,5b27c8c9051c6e00019d0c96,627c6f77c925d19e815a9026,2022-05-11_22h24.18.241,classification_task,2021.2.3,Linux x86_64,60.0024001,627c6715c52fd12f31907bcf,,,,,,,,,,,,,,,,,,,,,,,a,1,"[""0.214"",""0.566"",""0.878"",""0.660""]","[1,1,1,0]",0,21,21,21,1,0,0,,,1,FALSE,3.6781,,,,,,,,,,,,,,,,,,,,,,,,,,,,,,,
,5b27c8c9051c6e00019d0c96,627c6f77c925d19e815a9026,2022-05-11_22h24.18.241,classification_task,2021.2.3,Linux x86_64,60.0024001,627c6715c52fd12f31907bcf,,,,,,,,,,,,,,,,,,,,,,,a,0,"[""0.483"",""0.170"",""0.519"",""0.797""]","[0,1,1,1]",0,22,22,22,1,1,0,,,1,FALSE,1.3839,,,,,,,,,,,,,,,,,,,,,,,,,,,,,,,
,5b27c8c9051c6e00019d0c96,627c6f77c925d19e815a9026,2022-05-11_22h24.18.241,classification_task,2021.2.3,Linux x86_64,60.0024001,627c6715c52fd12f31907bcf,,,,,,,,,,,,,,,,,,,,,,,a,1,"[""0.624"",""0.336"",""0.839"",""0.916""]","[0,1,1,1]",0,23,23,23,1,0,1,,,1,FALSE,1.497,,,,,,,,,,,,,,,,,,,,,,,,,,,,,,,
,5b27c8c9051c6e00019d0c96,627c6f77c925d19e815a9026,2022-05-11_22h24.18.241,classification_task,2021.2.3,Linux x86_64,60.0024001,627c6715c52fd12f31907bcf,,,,,,,,,,,,,,,,,,,,,,,l,1,"[""0.052"",""0.170"",""0.483"",""0.797""]","[1,1,0,1]",0,24,24,24,1,1,0,,,1,FALSE,0.9107,,,,,,,,,,,,,,,,,,,,,,,,,,,,,,,
,5b27c8c9051c6e00019d0c96,627c6f77c925d19e815a9026,2022-05-11_22h24.18.241,classification_task,2021.2.3,Linux x86_64,60.0024001,627c6715c52fd12f31907bcf,,,,,,,,,,,,,,,,,,,,,,,l,0,"[""0.635"",""0.566"",""0.878"",""0.955""]","[0,1,1,1]",0,25,25,25,1,0,0,,,1,FALSE,1.2659,,,,,,,,,,,,,,,,,,,,,,,,,,,,,,,
,5b27c8c9051c6e00019d0c96,627c6f77c925d19e815a9026,2022-05-11_22h24.18.241,classification_task,2021.2.3,Linux x86_64,60.0024001,627c6715c52fd12f31907bcf,,,,,,,,,,,,,,,,,,,,,,,l,1,"[""0.052"",""0.170"",""0.519"",""0.612""]","[1,1,1,0]",0,26,26,26,1,1,0,,,1,FALSE,8.9177,,,,,,,,,,,,,,,,,,,,,,,,,,,,,,,
,5b27c8c9051c6e00019d0c96,627c6f77c925d19e815a9026,2022-05-11_22h24.18.241,classification_task,2021.2.3,Linux x86_64,60.0024001,627c6715c52fd12f31907bcf,,,,,,,,,,,,,,,,,,,,,,,a,1,"[""0.214"",""0.625"",""0.878"",""0.955""]","[1,0,1,1]",0,27,27,27,1,0,0,,,1,FALSE,2.4174,,,,,,,,,,,,,,,,,,,,,,,,,,,,,,,
,5b27c8c9051c6e00019d0c96,627c6f77c925d19e815a9026,2022-05-11_22h24.18.241,classification_task,2021.2.3,Linux x86_64,60.0024001,627c6715c52fd12f31907bcf,,,,,,,,,,,,,,,,,,,,,,,a,1,"[""0.279"",""0.685"",""0.839"",""0.916""]","[1,0,1,1]",0,28,28,28,1,0,1,,,1,FALSE,7.8439,,,,,,,,,,,,,,,,,,,,,,,,,,,,,,,
,5b27c8c9051c6e00019d0c96,627c6f77c925d19e815a9026,2022-05-11_22h24.18.241,classification_task,2021.2.3,Linux x86_64,60.0024001,627c6715c52fd12f31907bcf,,,,,,,,,,,,,,,,,,,,,,,l,1,"[""0.086"",""0.390"",""0.450"",""0.684""]","[1,1,1,0]",0,29,29,29,1,1,1,,,1,FALSE,1.1313,,,,,,,,,,,,,,,,,,,,,,,,,,,,,,,
,5b27c8c9051c6e00019d0c96,627c6f77c925d19e815a9026,2022-05-11_22h24.18.241,classification_task,2021.2.3,Linux x86_64,60.0024001,627c6715c52fd12f31907bcf,,,,,,,,,,,,,,,,,,,,,,,l,0,"[""0.214"",""0.566"",""0.620"",""0.955""]","[1,1,0,1]",0,30,30,30,1,0,0,,,1,FALSE,1.2753,,,,,,,,,,,,,,,,,,,,,,,,,,,,,,,
,5b27c8c9051c6e00019d0c96,627c6f77c925d19e815a9026,2022-05-11_22h24.18.241,classification_task,2021.2.3,Linux x86_64,60.0024001,627c6715c52fd12f31907bcf,,,,,,,,,,,,,,,,,,,,,,,l,1,"[""0.052"",""0.483"",""0.519"",""0.797""]","[1,0,1,1]",0,31,31,31,1,1,0,,,1,FALSE,1.3358,,,,,,,,,,,,,,,,,,,,,,,,,,,,,,,
,5b27c8c9051c6e00019d0c96,627c6f77c925d19e815a9026,2022-05-11_22h24.18.241,classification_task,2021.2.3,Linux x86_64,60.0024001,627c6715c52fd12f31907bcf,,,,,,,,,,,,,,,,,,,,,,,l,1,"[""0.086"",""0.390"",""0.450"",""0.616""]","[1,1,1,0]",0,32,32,32,1,1,1,,,1,FALSE,1.4111,,,,,,,,,,,,,,,,,,,,,,,,,,,,,,,
,5b27c8c9051c6e00019d0c96,627c6f77c925d19e815a9026,2022-05-11_22h24.18.241,classification_task,2021.2.3,Linux x86_64,60.0024001,627c6715c52fd12f31907bcf,,,,,,,,,,,,,,,,,,,,,,,a,1,"[""0.279"",""0.684"",""0.839"",""0.916""]","[1,0,1,1]",0,33,33,33,1,0,1,,,1,FALSE,0.9352,,,,,,,,,,,,,,,,,,,,,,,,,,,,,,,
,5b27c8c9051c6e00019d0c96,627c6f77c925d19e815a9026,2022-05-11_22h24.18.241,classification_task,2021.2.3,Linux x86_64,60.0024001,627c6715c52fd12f31907bcf,,,,,,,,,,,,,,,,,,,,,,,l,0,"[""0.685"",""0.566"",""0.878"",""0.955""]","[0,1,1,1]",0,34,34,34,1,0,0,,,1,FALSE,0.9001,,,,,,,,,,,,,,,,,,,,,,,,,,,,,,,
,5b27c8c9051c6e00019d0c96,627c6f77c925d19e815a9026,2022-05-11_22h24.18.241,classification_task,2021.2.3,Linux x86_64,60.0024001,627c6715c52fd12f31907bcf,,,,,,,,,,,,,,,,,,,,,,,l,1,"[""0.086"",""0.390"",""0.689"",""0.736""]","[1,1,0,1]",0,35,35,35,1,1,1,,,1,FALSE,2.8144,,,,,,,,,,,,,,,,,,,,,,,,,,,,,,,
,5b27c8c9051c6e00019d0c96,627c6f77c925d19e815a9026,2022-05-11_22h24.18.241,classification_task,2021.2.3,Linux x86_64,60.0024001,627c6715c52fd12f31907bcf,,,,,,,,,,,,,,,,,,,,,,,l,1,"[""0.086"",""0.660"",""0.450"",""0.736""]","[1,0,1,1]",0,36,36,36,1,1,1,,,1,FALSE,0.8351,,,,,,,,,,,,,,,,,,,,,,,,,,,,,,,
,5b27c8c9051c6e00019d0c96,627c6f77c925d19e815a9026,2022-05-11_22h24.18.241,classification_task,2021.2.3,Linux x86_64,60.0024001,627c6715c52fd12f31907bcf,,,,,,,,,,,,,,,,,,,,,,,a,1,"[""0.214"",""0.635"",""0.878"",""0.955""]","[1,0,1,1]",0,37,37,37,1,0,0,,,1,FALSE,0.9168,,,,,,,,,,,,,,,,,,,,,,,,,,,,,,,
,5b27c8c9051c6e00019d0c96,627c6f77c925d19e815a9026,2022-05-11_22h24.18.241,classification_task,2021.2.3,Linux x86_64,60.0024001,627c6715c52fd12f31907bcf,,,,,,,,,,,,,,,,,,,,,,,l,1,"[""0.134"",""0.170"",""0.519"",""0.797""]","[0,1,1,1]",0,38,38,38,1,1,0,,,1,FALSE,1.3209,,,,,,,,,,,,,,,,,,,,,,,,,,,,,,,
,5b27c8c9051c6e00019d0c96,627c6f77c925d19e815a9026,2022-05-11_22h24.18.241,classification_task,2021.2.3,Linux x86_64,60.0024001,627c6715c52fd12f31907bcf,,,,,,,,,,,,,,,,,,,,,,,a,1,"[""0.279"",""0.336"",""0.839"",""0.660""]","[1,1,1,0]",0,39,39,39,1,0,1,,,1,FALSE,1.0181,,,,,,,,,,,,,,,,,,,,,,,,,,,,,,,
,5b27c8c9051c6e00019d0c96,627c6f77c925d19e815a9026,2022-05-11_22h24.18.241,classification_task,2021.2.3,Linux x86_64,60.0024001,627c6715c52fd12f31907bcf,,,,,,,,,,,,,,,,,,,,,,,a,0,"[""0.689"",""0.390"",""0.450"",""0.736""]","[0,1,1,1]",0,40,40,40,1,1,1,,,1,FALSE,1.1015,,,,,,,,,,,,,,,,,,,,,,,,,,,,,,,
,5b27c8c9051c6e00019d0c96,627c6f77c925d19e815a9026,2022-05-11_22h24.18.241,classification_task,2021.2.3,Linux x86_64,60.0024001,627c6715c52fd12f31907bcf,,,,,,,,,,,,,,,,,,,,,,,l,1,"[""0.052"",""0.685"",""0.519"",""0.797""]","[1,0,1,1]",0,41,41,41,1,1,0,,,1,FALSE,1.2501,,,,,,,,,,,,,,,,,,,,,,,,,,,,,,,
,5b27c8c9051c6e00019d0c96,627c6f77c925d19e815a9026,2022-05-11_22h24.18.241,classification_task,2021.2.3,Linux x86_64,60.0024001,627c6715c52fd12f31907bcf,,,,,,,,,,,,,,,,,,,,,,,l,1,"[""0.052"",""0.170"",""0.612"",""0.797""]","[1,1,0,1]",0,42,42,42,1,1,0,,,1,FALSE,1.1502,,,,,,,,,,,,,,,,,,,,,,,,,,,,,,,
,5b27c8c9051c6e00019d0c96,627c6f77c925d19e815a9026,2022-05-11_22h24.18.241,classification_task,2021.2.3,Linux x86_64,60.0024001,627c6715c52fd12f31907bcf,,,,,,,,,,,,,,,,,,,,,,,a,1,"[""0.214"",""0.566"",""0.878"",""0.612""]","[1,1,1,0]",0,43,43,43,1,0,0,,,1,FALSE,0.8992,,,,,,,,,,,,,,,,,,,,,,,,,,,,,,,
,5b27c8c9051c6e00019d0c96,627c6f77c925d19e815a9026,2022-05-11_22h24.18.241,classification_task,2021.2.3,Linux x86_64,60.0024001,627c6715c52fd12f31907bcf,,,,,,,,,,,,,,,,,,,,,,,l,0,"[""0.279"",""0.336"",""0.637"",""0.916""]","[1,1,0,1]",0,44,44,44,1,0,1,,,1,FALSE,3.4005,,,,,,,,,,,,,,,,,,,,,,,,,,,,,,,
,5b27c8c9051c6e00019d0c96,627c6f77c925d19e815a9026,2022-05-11_22h24.18.241,classification_task,2021.2.3,Linux x86_64,60.0024001,627c6715c52fd12f31907bcf,,,,,,,,,,,,,,,,,,,,,,,l,1,"[""0.052"",""0.170"",""0.519"",""0.624""]","[1,1,1,0]",0,45,45,45,1,1,0,,,1,FALSE,1.1524,,,,,,,,,,,,,,,,,,,,,,,,,,,,,,,
,5b27c8c9051c6e00019d0c96,627c6f77c925d19e815a9026,2022-05-11_22h24.18.241,classification_task,2021.2.3,Linux x86_64,60.0024001,627c6715c52fd12f31907bcf,,,,,,,,,,,,,,,,,,,,,,,a,1,"[""0.684"",""0.336"",""0.839"",""0.916""]","[0,1,1,1]",0,46,46,46,1,0,1,,,1,FALSE,0.7503,,,,,,,,,,,,,,,,,,,,,,,,,,,,,,,
,5b27c8c9051c6e00019d0c96,627c6f77c925d19e815a9026,2022-05-11_22h24.18.241,classification_task,2021.2.3,Linux x86_64,60.0024001,627c6715c52fd12f31907bcf,,,,,,,,,,,,,,,,,,,,,,,a,1,"[""0.214"",""0.566"",""0.685"",""0.955""]","[1,1,0,1]",0,47,47,47,1,0,0,,,1,FALSE,1.6659,,,,,,,,,,,,,,,,,,,,,,,,,,,,,,,
,5b27c8c9051c6e00019d0c96,627c6f77c925d19e815a9026,2022-05-11_22h24.18.241,classification_task,2021.2.3,Linux x86_64,60.0024001,627c6715c52fd12f31907bcf,,,,,,,,,,,,,,,,,,,,,,,l,0,"[""0.214"",""0.134"",""0.878"",""0.955""]","[1,0,1,1]",0,48,48,48,1,0,0,,,1,FALSE,2.6484,,,,,,,,,,,,,,,,,,,,,,,,,,,,,,,
,5b27c8c9051c6e00019d0c96,627c6f77c925d19e815a9026,2022-05-11_22h24.18.241,classification_task,2021.2.3,Linux x86_64,60.0024001,627c6715c52fd12f31907bcf,,,,,,,,,,,,,,,,,,,,,,,l,1,"[""0.134"",""0.390"",""0.450"",""0.736""]","[0,1,1,1]",0,49,49,49,1,1,1,,,1,FALSE,1.4519,,,,,,,,,,,,,,,,,,,,,,,,,,,,,,,
,5b27c8c9051c6e00019d0c96,627c6f77c925d19e815a9026,2022-05-11_22h24.18.241,classification_task,2021.2.3,Linux x86_64,60.0024001,627c6715c52fd12f31907bcf,,,,,,,,,,,,,,,,,,,,,,,a,0,"[""0.629"",""0.170"",""0.519"",""0.797""]","[0,1,1,1]",0,50,50,50,1,1,0,,,1,FALSE,0.916,,,,,,,,,,,,,,,,,,,,,,,,,,,,,,,
,5b27c8c9051c6e00019d0c96,627c6f77c925d19e815a9026,2022-05-11_22h24.18.241,classification_task,2021.2.3,Linux x86_64,60.0024001,627c6715c52fd12f31907bcf,,,,,,,,,,,,,,,,,,,,,,,l,1,"[""0.052"",""0.170"",""0.625"",""0.797""]","[1,1,0,1]",0,51,51,51,1,1,0,,,1,FALSE,0.8676,,,,,,,,,,,,,,,,,,,,,,,,,,,,,,,
,5b27c8c9051c6e00019d0c96,627c6f77c925d19e815a9026,2022-05-11_22h24.18.241,classification_task,2021.2.3,Linux x86_64,60.0024001,627c6715c52fd12f31907bcf,,,,,,,,,,,,,,,,,,,,,,,l,1,"[""0.052"",""0.170"",""0.519"",""0.616""]","[1,1,1,0]",0,52,52,52,1,1,0,,,1,FALSE,0.6158,,,,,,,,,,,,,,,,,,,,,,,,,,,,,,,
,5b27c8c9051c6e00019d0c96,627c6f77c925d19e815a9026,2022-05-11_22h24.18.241,classification_task,2021.2.3,Linux x86_64,60.0024001,627c6715c52fd12f31907bcf,,,,,,,,,,,,,,,,,,,,,,,a,0,"[""0.086"",""0.625"",""0.450"",""0.736""]","[1,0,1,1]",0,53,53,53,1,1,1,,,1,FALSE,1.4518,,,,,,,,,,,,,,,,,,,,,,,,,,,,,,,
,5b27c8c9051c6e00019d0c96,627c6f77c925d19e815a9026,2022-05-11_22h24.18.241,classification_task,2021.2.3,Linux x86_64,60.0024001,627c6715c52fd12f31907bcf,,,,,,,,,,,,,,,,,,,,,,,a,1,"[""0.279"",""0.336"",""0.612"",""0.916""]","[1,1,0,1]",0,54,54,54,1,0,1,,,1,FALSE,0.8839,,,,,,,,,,,,,,,,,,,,,,,,,,,,,,,
,5b27c8c9051c6e00019d0c96,627c6f77c925d19e815a9026,2022-05-11_22h24.18.241,classification_task,2021.2.3,Linux x86_64,60.0024001,627c6715c52fd12f31907bcf,,,,,,,,,,,,,,,,,,,,,,,l,0,"[""0.279"",""0.134"",""0.839"",""0.916""]","[1,0,1,1]",0,55,55,55,1,0,1,,,1,FALSE,0.7676,,,,,,,,,,,,,,,,,,,,,,,,,,,,,,,
,5b27c8c9051c6e00019d0c96,627c6f77c925d19e815a9026,2022-05-11_22h24.18.241,classification_task,2021.2.3,Linux x86_64,60.0024001,627c6715c52fd12f31907bcf,,,,,,,,,,,,,,,,,,,,,,,a,1,"[""0.279"",""0.336"",""0.839"",""0.624""]","[1,1,1,0]",0,56,56,56,1,0,1,,,1,FALSE,0.8341,,,,,,,,,,,,,,,,,,,,,,,,,,,,,,,
,5b27c8c9051c6e00019d0c96,627c6f77c925d19e815a9026,2022-05-11_22h24.18.241,classification_task,2021.2.3,Linux x86_64,60.0024001,627c6715c52fd12f31907bcf,,,,,,,,,,,,,,,,,,,,,,,a,1,"[""0.620"",""0.336"",""0.839"",""0.916""]","[0,1,1,1]",0,57,57,57,1,0,1,,,1,FALSE,0.6999,,,,,,,,,,,,,,,,,,,,,,,,,,,,,,,
,5b27c8c9051c6e00019d0c96,627c6f77c925d19e815a9026,2022-05-11_22h24.18.241,classification_task,2021.2.3,Linux x86_64,60.0024001,627c6715c52fd12f31907bcf,,,,,,,,,,,,,,,,,,,,,,,a,0,"[""0.086"",""0.390"",""0.685"",""0.736""]","[1,1,0,1]",0,58,58,58,1,1,1,,,1,FALSE,1.6494,,,,,,,,,,,,,,,,,,,,,,,,,,,,,,,
,5b27c8c9051c6e00019d0c96,627c6f77c925d19e815a9026,2022-05-11_22h24.18.241,classification_task,2021.2.3,Linux x86_64,60.0024001,627c6715c52fd12f31907bcf,,,,,,,,,,,,,,,,,,,,,,,a,1,"[""0.214"",""0.566"",""0.635"",""0.955""]","[1,1,0,1]",0,59,59,59,1,0,0,,,1,FALSE,0.9171,,,,,,,,,,,,,,,,,,,,,,,,,,,,,,,
,5b27c8c9051c6e00019d0c96,627c6f77c925d19e815a9026,2022-05-11_22h24.18.241,classification_task,2021.2.3,Linux x86_64,60.0024001,627c6715c52fd12f31907bcf,,,,,,,,,,,,,,,,,,,,,,,a,1,"[""0.214"",""0.566"",""0.878"",""0.685""]","[1,1,1,0]",0,60,60,60,1,0,0,,,1,FALSE,0.9654,,,,,,,,,,,,,,,,,,,,,,,,,,,,,,,
,5b27c8c9051c6e00019d0c96,627c6f77c925d19e815a9026,2022-05-11_22h24.18.241,classification_task,2021.2.3,Linux x86_64,60.0024001,627c6715c52fd12f31907bcf,,,,,,,,,,,,,,,,,,,,,,,l,0,"[""0.635"",""0.566"",""0.878"",""0.955""]","[0,1,1,1]",0,61,61,61,1,0,0,,,1,FALSE,1.0654,,,,,,,,,,,,,,,,,,,,,,,,,,,,,,,
,5b27c8c9051c6e00019d0c96,627c6f77c925d19e815a9026,2022-05-11_22h24.18.241,classification_task,2021.2.3,Linux x86_64,60.0024001,627c6715c52fd12f31907bcf,,,,,,,,,,,,,,,,,,,,,,,l,1,"[""0.086"",""0.390"",""0.450"",""0.624""]","[1,1,1,0]",0,62,62,62,1,1,1,,,1,FALSE,2.8007,,,,,,,,,,,,,,,,,,,,,,,,,,,,,,,
,5b27c8c9051c6e00019d0c96,627c6f77c925d19e815a9026,2022-05-11_22h24.18.241,classification_task,2021.2.3,Linux x86_64,60.0024001,627c6715c52fd12f31907bcf,,,,,,,,,,,,,,,,,,,,,,,l,1,"[""0.052"",""0.629"",""0.519"",""0.797""]","[1,0,1,1]",0,63,63,63,1,1,0,,,1,FALSE,0.8357,,,,,,,,,,,,,,,,,,,,,,,,,,,,,,,
,5b27c8c9051c6e00019d0c96,627c6f77c925d19e815a9026,2022-05-11_22h24.18.241,classification_task,2021.2.3,Linux x86_64,60.0024001,627c6715c52fd12f31907bcf,,,,,,,,,,,,,,,,,,,,,,,,,,,,,,,,,,,,,,,0, ,,0,5.424774835,350.0431,0,0,0,0,1,2,1,,,,,,,,,,,,,,,,,,
,5b27c8c9051c6e00019d0c96,627c6f77c925d19e815a9026,2022-05-11_22h24.18.241,classification_task,2021.2.3,Linux x86_64,60.0024001,627c6715c52fd12f31907bcf,,,,,,,,,,,,,,,,,,,,,,,,,,,,,,,,,,,,,,,1,  ,,0,6.048842009,351.2072,0,0,0,0,1,2,1,,,,,,,,,,,,,,,,,,
,5b27c8c9051c6e00019d0c96,627c6f77c925d19e815a9026,2022-05-11_22h24.18.241,classification_task,2021.2.3,Linux x86_64,60.0024001,627c6715c52fd12f31907bcf,,,,,,,,,,,,,,,,,,,,,,,,,,,,,,,,,,,,,,,2,  ,,0,6.428708985,352.4562,0,0,0,0,1,2,1,,,,,,,,,,,,,,,,,,
,5b27c8c9051c6e00019d0c96,627c6f77c925d19e815a9026,2022-05-11_22h24.18.241,classification_task,2021.2.3,Linux x86_64,60.0024001,627c6715c52fd12f31907bcf,,,,,,,,,,,,,,,,,,,,,,,,,,,,,,,,,,,,,,,,,,,,,0,0,0,0,1,,1,,,,,,,,,,,,,,,,,,
,5b27c8c9051c6e00019d0c96,627c6f77c925d19e815a9026,2022-05-11_22h24.18.241,classification_task,2021.2.3,Linux x86_64,60.0024001,627c6715c52fd12f31907bcf,,,,,,,,,,,,,,,,,,,,,space,86.1246,l,1,"[""0.052"",""0.170"",""0.519"",""0.629""]","[1,1,1,0]",0,0,0,0,1,1,0,,,1,FALSE,2.0993,,,,,,,,,,,,,,,,,,,,,,,,,,,,,,,
,5b27c8c9051c6e00019d0c96,627c6f77c925d19e815a9026,2022-05-11_22h24.18.241,classification_task,2021.2.3,Linux x86_64,60.0024001,627c6715c52fd12f31907bcf,,,,,,,,,,,,,,,,,,,,,,,l,1,"[""0.052"",""0.170"",""0.684"",""0.797""]","[1,1,0,1]",0,1,1,1,1,1,0,,,1,FALSE,0.9655,,,,,,,,,,,,,,,,,,,,,,,,,,,,,,,
,5b27c8c9051c6e00019d0c96,627c6f77c925d19e815a9026,2022-05-11_22h24.18.241,classification_task,2021.2.3,Linux x86_64,60.0024001,627c6715c52fd12f31907bcf,,,,,,,,,,,,,,,,,,,,,,,l,1,"[""0.086"",""0.390"",""0.660"",""0.736""]","[1,1,0,1]",0,2,2,2,1,1,1,,,1,FALSE,2.254,,,,,,,,,,,,,,,,,,,,,,,,,,,,,,,
,5b27c8c9051c6e00019d0c96,627c6f77c925d19e815a9026,2022-05-11_22h24.18.241,classification_task,2021.2.3,Linux x86_64,60.0024001,627c6715c52fd12f31907bcf,,,,,,,,,,,,,,,,,,,,,,,a,1,"[""0.279"",""0.625"",""0.839"",""0.916""]","[1,0,1,1]",0,3,3,3,1,0,1,,,1,FALSE,0.9343,,,,,,,,,,,,,,,,,,,,,,,,,,,,,,,
,5b27c8c9051c6e00019d0c96,627c6f77c925d19e815a9026,2022-05-11_22h24.18.241,classification_task,2021.2.3,Linux x86_64,60.0024001,627c6715c52fd12f31907bcf,,,,,,,,,,,,,,,,,,,,,,,l,0,"[""0.214"",""0.134"",""0.878"",""0.955""]","[1,0,1,1]",0,4,4,4,1,0,0,,,1,FALSE,3.293,,,,,,,,,,,,,,,,,,,,,,,,,,,,,,,
,5b27c8c9051c6e00019d0c96,627c6f77c925d19e815a9026,2022-05-11_22h24.18.241,classification_task,2021.2.3,Linux x86_64,60.0024001,627c6715c52fd12f31907bcf,,,,,,,,,,,,,,,,,,,,,,,l,1,"[""0.086"",""0.629"",""0.450"",""0.736""]","[1,0,1,1]",0,5,5,5,1,1,1,,,1,FALSE,2.1091,,,,,,,,,,,,,,,,,,,,,,,,,,,,,,,
,5b27c8c9051c6e00019d0c96,627c6f77c925d19e815a9026,2022-05-11_22h24.18.241,classification_task,2021.2.3,Linux x86_64,60.0024001,627c6715c52fd12f31907bcf,,,,,,,,,,,,,,,,,,,,,,,a,1,"[""0.134"",""0.566"",""0.878"",""0.955""]","[0,1,1,1]",0,6,6,6,1,0,0,,,1,FALSE,1.0612,,,,,,,,,,,,,,,,,,,,,,,,,,,,,,,
,5b27c8c9051c6e00019d0c96,627c6f77c925d19e815a9026,2022-05-11_22h24.18.241,classification_task,2021.2.3,Linux x86_64,60.0024001,627c6715c52fd12f31907bcf,,,,,,,,,,,,,,,,,,,,,,,l,1,"[""0.052"",""0.134"",""0.519"",""0.797""]","[1,0,1,1]",0,7,7,7,1,1,0,,,1,FALSE,0.8336,,,,,,,,,,,,,,,,,,,,,,,,,,,,,,,
,5b27c8c9051c6e00019d0c96,627c6f77c925d19e815a9026,2022-05-11_22h24.18.241,classification_task,2021.2.3,Linux x86_64,60.0024001,627c6715c52fd12f31907bcf,,,,,,,,,,,,,,,,,,,,,,,l,1,"[""0.086"",""0.390"",""0.450"",""0.612""]","[1,1,1,0]",0,8,8,8,1,1,1,,,1,FALSE,1.3771,,,,,,,,,,,,,,,,,,,,,,,,,,,,,,,
,5b27c8c9051c6e00019d0c96,627c6f77c925d19e815a9026,2022-05-11_22h24.18.241,classification_task,2021.2.3,Linux x86_64,60.0024001,627c6715c52fd12f31907bcf,,,,,,,,,,,,,,,,,,,,,,,a,1,"[""0.279"",""0.336"",""0.839"",""0.620""]","[1,1,1,0]",0,9,9,9,1,0,1,,,1,FALSE,0.7492,,,,,,,,,,,,,,,,,,,,,,,,,,,,,,,
,5b27c8c9051c6e00019d0c96,627c6f77c925d19e815a9026,2022-05-11_22h24.18.241,classification_task,2021.2.3,Linux x86_64,60.0024001,627c6715c52fd12f31907bcf,,,,,,,,,,,,,,,,,,,,,,,a,1,"[""0.214"",""0.566"",""0.878"",""0.620""]","[1,1,1,0]",0,10,10,10,1,0,0,,,1,FALSE,1.0951,,,,,,,,,,,,,,,,,,,,,,,,,,,,,,,
,5b27c8c9051c6e00019d0c96,627c6f77c925d19e815a9026,2022-05-11_22h24.18.241,classification_task,2021.2.3,Linux x86_64,60.0024001,627c6715c52fd12f31907bcf,,,,,,,,,,,,,,,,,,,,,,,l,1,"[""0.625"",""0.390"",""0.450"",""0.736""]","[0,1,1,1]",0,11,11,11,1,1,1,,,1,FALSE,1.4815,,,,,,,,,,,,,,,,,,,,,,,,,,,,,,,
,5b27c8c9051c6e00019d0c96,627c6f77c925d19e815a9026,2022-05-11_22h24.18.241,classification_task,2021.2.3,Linux x86_64,60.0024001,627c6715c52fd12f31907bcf,,,,,,,,,,,,,,,,,,,,,,,a,0,"[""0.608"",""0.170"",""0.519"",""0.797""]","[0,1,1,1]",0,12,12,12,1,1,0,,,1,FALSE,1.5768,,,,,,,,,,,,,,,,,,,,,,,,,,,,,,,
,5b27c8c9051c6e00019d0c96,627c6f77c925d19e815a9026,2022-05-11_22h24.18.241,classification_task,2021.2.3,Linux x86_64,60.0024001,627c6715c52fd12f31907bcf,,,,,,,,,,,,,,,,,,,,,,,a,1,"[""0.214"",""0.566"",""0.660"",""0.955""]","[1,1,0,1]",0,13,13,13,1,0,0,,,1,FALSE,1.0321,,,,,,,,,,,,,,,,,,,,,,,,,,,,,,,
,5b27c8c9051c6e00019d0c96,627c6f77c925d19e815a9026,2022-05-11_22h24.18.241,classification_task,2021.2.3,Linux x86_64,60.0024001,627c6715c52fd12f31907bcf,,,,,,,,,,,,,,,,,,,,,,,a,1,"[""0.279"",""0.336"",""0.637"",""0.916""]","[1,1,0,1]",0,14,14,14,1,0,1,,,1,FALSE,0.9604,,,,,,,,,,,,,,,,,,,,,,,,,,,,,,,
,5b27c8c9051c6e00019d0c96,627c6f77c925d19e815a9026,2022-05-11_22h24.18.241,classification_task,2021.2.3,Linux x86_64,60.0024001,627c6715c52fd12f31907bcf,,,,,,,,,,,,,,,,,,,,,,,a,1,"[""0.637"",""0.336"",""0.839"",""0.916""]","[0,1,1,1]",0,15,15,15,1,0,1,,,1,FALSE,0.7985,,,,,,,,,,,,,,,,,,,,,,,,,,,,,,,
,5b27c8c9051c6e00019d0c96,627c6f77c925d19e815a9026,2022-05-11_22h24.18.241,classification_task,2021.2.3,Linux x86_64,60.0024001,627c6715c52fd12f31907bcf,,,,,,,,,,,,,,,,,,,,,,,l,1,"[""0.052"",""0.170"",""0.134"",""0.797""]","[1,1,0,1]",0,16,16,16,1,1,0,,,1,FALSE,0.9617,,,,,,,,,,,,,,,,,,,,,,,,,,,,,,,
,5b27c8c9051c6e00019d0c96,627c6f77c925d19e815a9026,2022-05-11_22h24.18.241,classification_task,2021.2.3,Linux x86_64,60.0024001,627c6715c52fd12f31907bcf,,,,,,,,,,,,,,,,,,,,,,,a,1,"[""0.689"",""0.336"",""0.839"",""0.916""]","[0,1,1,1]",0,17,17,17,1,0,1,,,1,FALSE,0.8116,,,,,,,,,,,,,,,,,,,,,,,,,,,,,,,
,5b27c8c9051c6e00019d0c96,627c6f77c925d19e815a9026,2022-05-11_22h24.18.241,classification_task,2021.2.3,Linux x86_64,60.0024001,627c6715c52fd12f31907bcf,,,,,,,,,,,,,,,,,,,,,,,a,1,"[""0.279"",""0.336"",""0.839"",""0.483""]","[1,1,1,0]",0,18,18,18,1,0,1,,,1,FALSE,0.6766,,,,,,,,,,,,,,,,,,,,,,,,,,,,,,,
,5b27c8c9051c6e00019d0c96,627c6f77c925d19e815a9026,2022-05-11_22h24.18.241,classification_task,2021.2.3,Linux x86_64,60.0024001,627c6715c52fd12f31907bcf,,,,,,,,,,,,,,,,,,,,,,,a,0,"[""0.612"",""0.390"",""0.450"",""0.736""]","[0,1,1,1]",0,19,19,19,1,1,1,,,1,FALSE,0.7507,,,,,,,,,,,,,,,,,,,,,,,,,,,,,,,
,5b27c8c9051c6e00019d0c96,627c6f77c925d19e815a9026,2022-05-11_22h24.18.241,classification_task,2021.2.3,Linux x86_64,60.0024001,627c6715c52fd12f31907bcf,,,,,,,,,,,,,,,,,,,,,,,a,1,"[""0.279"",""0.123"",""0.839"",""0.916""]","[1,0,1,1]",0,20,20,20,1,0,1,,,1,FALSE,1.1833,,,,,,,,,,,,,,,,,,,,,,,,,,,,,,,
,5b27c8c9051c6e00019d0c96,627c6f77c925d19e815a9026,2022-05-11_22h24.18.241,classification_task,2021.2.3,Linux x86_64,60.0024001,627c6715c52fd12f31907bcf,,,,,,,,,,,,,,,,,,,,,,,l,1,"[""0.052"",""0.616"",""0.519"",""0.797""]","[1,0,1,1]",0,21,21,21,1,1,0,,,1,FALSE,1.7455,,,,,,,,,,,,,,,,,,,,,,,,,,,,,,,
,5b27c8c9051c6e00019d0c96,627c6f77c925d19e815a9026,2022-05-11_22h24.18.241,classification_task,2021.2.3,Linux x86_64,60.0024001,627c6715c52fd12f31907bcf,,,,,,,,,,,,,,,,,,,,,,,l,1,"[""0.086"",""0.134"",""0.450"",""0.736""]","[1,0,1,1]",0,22,22,22,1,1,1,,,1,FALSE,2.1609,,,,,,,,,,,,,,,,,,,,,,,,,,,,,,,
,5b27c8c9051c6e00019d0c96,627c6f77c925d19e815a9026,2022-05-11_22h24.18.241,classification_task,2021.2.3,Linux x86_64,60.0024001,627c6715c52fd12f31907bcf,,,,,,,,,,,,,,,,,,,,,,,l,1,"[""0.086"",""0.390"",""0.660"",""0.736""]","[1,1,0,1]",0,23,23,23,1,1,1,,,1,FALSE,0.6156,,,,,,,,,,,,,,,,,,,,,,,,,,,,,,,
,5b27c8c9051c6e00019d0c96,627c6f77c925d19e815a9026,2022-05-11_22h24.18.241,classification_task,2021.2.3,Linux x86_64,60.0024001,627c6715c52fd12f31907bcf,,,,,,,,,,,,,,,,,,,,,,,a,1,"[""0.214"",""0.566"",""0.660"",""0.955""]","[1,1,0,1]",0,24,24,24,1,0,0,,,1,FALSE,1.125,,,,,,,,,,,,,,,,,,,,,,,,,,,,,,,
,5b27c8c9051c6e00019d0c96,627c6f77c925d19e815a9026,2022-05-11_22h24.18.241,classification_task,2021.2.3,Linux x86_64,60.0024001,627c6715c52fd12f31907bcf,,,,,,,,,,,,,,,,,,,,,,,l,1,"[""0.052"",""0.170"",""0.519"",""0.637""]","[1,1,1,0]",0,25,25,25,1,1,0,,,1,FALSE,1.2507,,,,,,,,,,,,,,,,,,,,,,,,,,,,,,,
,5b27c8c9051c6e00019d0c96,627c6f77c925d19e815a9026,2022-05-11_22h24.18.241,classification_task,2021.2.3,Linux x86_64,60.0024001,627c6715c52fd12f31907bcf,,,,,,,,,,,,,,,,,,,,,,,a,1,"[""0.214"",""0.684"",""0.878"",""0.955""]","[1,0,1,1]",0,26,26,26,1,0,0,,,1,FALSE,0.9192,,,,,,,,,,,,,,,,,,,,,,,,,,,,,,,
,5b27c8c9051c6e00019d0c96,627c6f77c925d19e815a9026,2022-05-11_22h24.18.241,classification_task,2021.2.3,Linux x86_64,60.0024001,627c6715c52fd12f31907bcf,,,,,,,,,,,,,,,,,,,,,,,a,1,"[""0.214"",""0.566"",""0.878"",""0.620""]","[1,1,1,0]",0,27,27,27,1,0,0,,,1,FALSE,0.9327,,,,,,,,,,,,,,,,,,,,,,,,,,,,,,,
,5b27c8c9051c6e00019d0c96,627c6f77c925d19e815a9026,2022-05-11_22h24.18.241,classification_task,2021.2.3,Linux x86_64,60.0024001,627c6715c52fd12f31907bcf,,,,,,,,,,,,,,,,,,,,,,,l,1,"[""0.086"",""0.390"",""0.450"",""0.685""]","[1,1,1,0]",0,28,28,28,1,1,1,,,1,FALSE,1.0965,,,,,,,,,,,,,,,,,,,,,,,,,,,,,,,
,5b27c8c9051c6e00019d0c96,627c6f77c925d19e815a9026,2022-05-11_22h24.18.241,classification_task,2021.2.3,Linux x86_64,60.0024001,627c6715c52fd12f31907bcf,,,,,,,,,,,,,,,,,,,,,,,a,0,"[""0.660"",""0.170"",""0.519"",""0.797""]","[0,1,1,1]",0,29,29,29,1,1,0,,,1,FALSE,1.0514,,,,,,,,,,,,,,,,,,,,,,,,,,,,,,,
,5b27c8c9051c6e00019d0c96,627c6f77c925d19e815a9026,2022-05-11_22h24.18.241,classification_task,2021.2.3,Linux x86_64,60.0024001,627c6715c52fd12f31907bcf,,,,,,,,,,,,,,,,,,,,,,,a,1,"[""0.279"",""0.336"",""0.685"",""0.916""]","[1,1,0,1]",0,30,30,30,1,0,1,,,1,FALSE,1.6577,,,,,,,,,,,,,,,,,,,,,,,,,,,,,,,
,5b27c8c9051c6e00019d0c96,627c6f77c925d19e815a9026,2022-05-11_22h24.18.241,classification_task,2021.2.3,Linux x86_64,60.0024001,627c6715c52fd12f31907bcf,,,,,,,,,,,,,,,,,,,,,,,l,0,"[""0.624"",""0.566"",""0.878"",""0.955""]","[0,1,1,1]",0,31,31,31,1,0,0,,,1,FALSE,1.1014,,,,,,,,,,,,,,,,,,,,,,,,,,,,,,,
,5b27c8c9051c6e00019d0c96,627c6f77c925d19e815a9026,2022-05-11_22h24.18.241,classification_task,2021.2.3,Linux x86_64,60.0024001,627c6715c52fd12f31907bcf,,,,,,,,,,,,,,,,,,,,,,,a,1,"[""0.123"",""0.566"",""0.878"",""0.955""]","[0,1,1,1]",0,32,32,32,1,0,0,,,1,FALSE,1.267,,,,,,,,,,,,,,,,,,,,,,,,,,,,,,,
,5b27c8c9051c6e00019d0c96,627c6f77c925d19e815a9026,2022-05-11_22h24.18.241,classification_task,2021.2.3,Linux x86_64,60.0024001,627c6715c52fd12f31907bcf,,,,,,,,,,,,,,,,,,,,,,,l,1,"[""0.052"",""0.170"",""0.620"",""0.797""]","[1,1,0,1]",0,33,33,33,1,1,0,,,1,FALSE,0.7846,,,,,,,,,,,,,,,,,,,,,,,,,,,,,,,
,5b27c8c9051c6e00019d0c96,627c6f77c925d19e815a9026,2022-05-11_22h24.18.241,classification_task,2021.2.3,Linux x86_64,60.0024001,627c6715c52fd12f31907bcf,,,,,,,,,,,,,,,,,,,,,,,a,0,"[""0.625"",""0.170"",""0.519"",""0.797""]","[0,1,1,1]",0,34,34,34,1,1,0,,,1,FALSE,0.8334,,,,,,,,,,,,,,,,,,,,,,,,,,,,,,,
,5b27c8c9051c6e00019d0c96,627c6f77c925d19e815a9026,2022-05-11_22h24.18.241,classification_task,2021.2.3,Linux x86_64,60.0024001,627c6715c52fd12f31907bcf,,,,,,,,,,,,,,,,,,,,,,,a,1,"[""0.214"",""0.689"",""0.878"",""0.955""]","[1,0,1,1]",0,35,35,35,1,0,0,,,1,FALSE,1.0991,,,,,,,,,,,,,,,,,,,,,,,,,,,,,,,
,5b27c8c9051c6e00019d0c96,627c6f77c925d19e815a9026,2022-05-11_22h24.18.241,classification_task,2021.2.3,Linux x86_64,60.0024001,627c6715c52fd12f31907bcf,,,,,,,,,,,,,,,,,,,,,,,l,1,"[""0.086"",""0.390"",""0.684"",""0.736""]","[1,1,0,1]",0,36,36,36,1,1,1,,,1,FALSE,1.1619,,,,,,,,,,,,,,,,,,,,,,,,,,,,,,,
,5b27c8c9051c6e00019d0c96,627c6f77c925d19e815a9026,2022-05-11_22h24.18.241,classification_task,2021.2.3,Linux x86_64,60.0024001,627c6715c52fd12f31907bcf,,,,,,,,,,,,,,,,,,,,,,,a,1,"[""0.685"",""0.336"",""0.839"",""0.916""]","[0,1,1,1]",0,37,37,37,1,0,1,,,1,FALSE,0.8655,,,,,,,,,,,,,,,,,,,,,,,,,,,,,,,
,5b27c8c9051c6e00019d0c96,627c6f77c925d19e815a9026,2022-05-11_22h24.18.241,classification_task,2021.2.3,Linux x86_64,60.0024001,627c6715c52fd12f31907bcf,,,,,,,,,,,,,,,,,,,,,,,l,1,"[""0.086"",""0.390"",""0.450"",""0.637""]","[1,1,1,0]",0,38,38,38,1,1,1,,,1,FALSE,0.8337,,,,,,,,,,,,,,,,,,,,,,,,,,,,,,,
,5b27c8c9051c6e00019d0c96,627c6f77c925d19e815a9026,2022-05-11_22h24.18.241,classification_task,2021.2.3,Linux x86_64,60.0024001,627c6715c52fd12f31907bcf,,,,,,,,,,,,,,,,,,,,,,,l,1,"[""0.086"",""0.685"",""0.450"",""0.736""]","[1,0,1,1]",0,39,39,39,1,1,1,,,1,FALSE,0.7023,,,,,,,,,,,,,,,,,,,,,,,,,,,,,,,
,5b27c8c9051c6e00019d0c96,627c6f77c925d19e815a9026,2022-05-11_22h24.18.241,classification_task,2021.2.3,Linux x86_64,60.0024001,627c6715c52fd12f31907bcf,,,,,,,,,,,,,,,,,,,,,,,a,1,"[""0.279"",""0.336"",""0.684"",""0.916""]","[1,1,0,1]",0,40,40,40,1,0,1,,,1,FALSE,0.7013,,,,,,,,,,,,,,,,,,,,,,,,,,,,,,,
,5b27c8c9051c6e00019d0c96,627c6f77c925d19e815a9026,2022-05-11_22h24.18.241,classification_task,2021.2.3,Linux x86_64,60.0024001,627c6715c52fd12f31907bcf,,,,,,,,,,,,,,,,,,,,,,,a,1,"[""0.214"",""0.566"",""0.878"",""0.685""]","[1,1,1,0]",0,41,41,41,1,0,0,,,1,FALSE,1.1133,,,,,,,,,,,,,,,,,,,,,,,,,,,,,,,
,5b27c8c9051c6e00019d0c96,627c6f77c925d19e815a9026,2022-05-11_22h24.18.241,classification_task,2021.2.3,Linux x86_64,60.0024001,627c6715c52fd12f31907bcf,,,,,,,,,,,,,,,,,,,,,,,l,1,"[""0.052"",""0.134"",""0.519"",""0.797""]","[1,0,1,1]",0,42,42,42,1,1,0,,,1,FALSE,0.7489,,,,,,,,,,,,,,,,,,,,,,,,,,,,,,,
,5b27c8c9051c6e00019d0c96,627c6f77c925d19e815a9026,2022-05-11_22h24.18.241,classification_task,2021.2.3,Linux x86_64,60.0024001,627c6715c52fd12f31907bcf,,,,,,,,,,,,,,,,,,,,,,,a,1,"[""0.279"",""0.134"",""0.839"",""0.916""]","[1,0,1,1]",0,43,43,43,1,0,1,,,1,FALSE,0.8606,,,,,,,,,,,,,,,,,,,,,,,,,,,,,,,
,5b27c8c9051c6e00019d0c96,627c6f77c925d19e815a9026,2022-05-11_22h24.18.241,classification_task,2021.2.3,Linux x86_64,60.0024001,627c6715c52fd12f31907bcf,,,,,,,,,,,,,,,,,,,,,,,l,1,"[""0.685"",""0.390"",""0.450"",""0.736""]","[0,1,1,1]",0,44,44,44,1,1,1,,,1,FALSE,0.812,,,,,,,,,,,,,,,,,,,,,,,,,,,,,,,
,5b27c8c9051c6e00019d0c96,627c6f77c925d19e815a9026,2022-05-11_22h24.18.241,classification_task,2021.2.3,Linux x86_64,60.0024001,627c6715c52fd12f31907bcf,,,,,,,,,,,,,,,,,,,,,,,a,1,"[""0.214"",""0.566"",""0.608"",""0.955""]","[1,1,0,1]",0,45,45,45,1,0,0,,,1,FALSE,1.0279,,,,,,,,,,,,,,,,,,,,,,,,,,,,,,,
,5b27c8c9051c6e00019d0c96,627c6f77c925d19e815a9026,2022-05-11_22h24.18.241,classification_task,2021.2.3,Linux x86_64,60.0024001,627c6715c52fd12f31907bcf,,,,,,,,,,,,,,,,,,,,,,,l,1,"[""0.052"",""0.170"",""0.519"",""0.123""]","[1,1,1,0]",0,46,46,46,1,1,0,,,1,FALSE,0.7826,,,,,,,,,,,,,,,,,,,,,,,,,,,,,,,
,5b27c8c9051c6e00019d0c96,627c6f77c925d19e815a9026,2022-05-11_22h24.18.241,classification_task,2021.2.3,Linux x86_64,60.0024001,627c6715c52fd12f31907bcf,,,,,,,,,,,,,,,,,,,,,,,a,1,"[""0.279"",""0.336"",""0.839"",""0.684""]","[1,1,1,0]",0,47,47,47,1,0,1,,,1,FALSE,0.7133,,,,,,,,,,,,,,,,,,,,,,,,,,,,,,,
,5b27c8c9051c6e00019d0c96,627c6f77c925d19e815a9026,2022-05-11_22h24.18.241,classification_task,2021.2.3,Linux x86_64,60.0024001,627c6715c52fd12f31907bcf,,,,,,,,,,,,,,,,,,,,,,,l,1,"[""0.052"",""0.170"",""0.637"",""0.797""]","[1,1,0,1]",0,48,48,48,1,1,0,,,1,FALSE,2.1443,,,,,,,,,,,,,,,,,,,,,,,,,,,,,,,
,5b27c8c9051c6e00019d0c96,627c6f77c925d19e815a9026,2022-05-11_22h24.18.241,classification_task,2021.2.3,Linux x86_64,60.0024001,627c6715c52fd12f31907bcf,,,,,,,,,,,,,,,,,,,,,,,l,1,"[""0.637"",""0.390"",""0.450"",""0.736""]","[0,1,1,1]",0,49,49,49,1,1,1,,,1,FALSE,1.0674,,,,,,,,,,,,,,,,,,,,,,,,,,,,,,,
,5b27c8c9051c6e00019d0c96,627c6f77c925d19e815a9026,2022-05-11_22h24.18.241,classification_task,2021.2.3,Linux x86_64,60.0024001,627c6715c52fd12f31907bcf,,,,,,,,,,,,,,,,,,,,,,,a,0,"[""0.134"",""0.170"",""0.519"",""0.797""]","[0,1,1,1]",0,50,50,50,1,1,0,,,1,FALSE,2.3449,,,,,,,,,,,,,,,,,,,,,,,,,,,,,,,
,5b27c8c9051c6e00019d0c96,627c6f77c925d19e815a9026,2022-05-11_22h24.18.241,classification_task,2021.2.3,Linux x86_64,60.0024001,627c6715c52fd12f31907bcf,,,,,,,,,,,,,,,,,,,,,,,a,1,"[""0.214"",""0.629"",""0.878"",""0.955""]","[1,0,1,1]",0,51,51,51,1,0,0,,,1,FALSE,2.7857,,,,,,,,,,,,,,,,,,,,,,,,,,,,,,,
,5b27c8c9051c6e00019d0c96,627c6f77c925d19e815a9026,2022-05-11_22h24.18.241,classification_task,2021.2.3,Linux x86_64,60.0024001,627c6715c52fd12f31907bcf,,,,,,,,,,,,,,,,,,,,,,,l,1,"[""0.086"",""0.685"",""0.450"",""0.736""]","[1,0,1,1]",0,52,52,52,1,1,1,,,1,FALSE,0.9362,,,,,,,,,,,,,,,,,,,,,,,,,,,,,,,
,5b27c8c9051c6e00019d0c96,627c6f77c925d19e815a9026,2022-05-11_22h24.18.241,classification_task,2021.2.3,Linux x86_64,60.0024001,627c6715c52fd12f31907bcf,,,,,,,,,,,,,,,,,,,,,,,l,0,"[""0.214"",""0.566"",""0.878"",""0.624""]","[1,1,1,0]",0,53,53,53,1,0,0,,,1,FALSE,0.8968,,,,,,,,,,,,,,,,,,,,,,,,,,,,,,,
,5b27c8c9051c6e00019d0c96,627c6f77c925d19e815a9026,2022-05-11_22h24.18.241,classification_task,2021.2.3,Linux x86_64,60.0024001,627c6715c52fd12f31907bcf,,,,,,,,,,,,,,,,,,,,,,,l,1,"[""0.052"",""0.635"",""0.519"",""0.797""]","[1,0,1,1]",0,54,54,54,1,1,0,,,1,FALSE,1.0007,,,,,,,,,,,,,,,,,,,,,,,,,,,,,,,
,5b27c8c9051c6e00019d0c96,627c6f77c925d19e815a9026,2022-05-11_22h24.18.241,classification_task,2021.2.3,Linux x86_64,60.0024001,627c6715c52fd12f31907bcf,,,,,,,,,,,,,,,,,,,,,,,l,1,"[""0.086"",""0.390"",""0.620"",""0.736""]","[1,1,0,1]",0,55,55,55,1,1,1,,,1,FALSE,1.0789,,,,,,,,,,,,,,,,,,,,,,,,,,,,,,,
,5b27c8c9051c6e00019d0c96,627c6f77c925d19e815a9026,2022-05-11_22h24.18.241,classification_task,2021.2.3,Linux x86_64,60.0024001,627c6715c52fd12f31907bcf,,,,,,,,,,,,,,,,,,,,,,,l,1,"[""0.086"",""0.390"",""0.450"",""0.608""]","[1,1,1,0]",0,56,56,56,1,1,1,,,1,FALSE,0.7637,,,,,,,,,,,,,,,,,,,,,,,,,,,,,,,
,5b27c8c9051c6e00019d0c96,627c6f77c925d19e815a9026,2022-05-11_22h24.18.241,classification_task,2021.2.3,Linux x86_64,60.0024001,627c6715c52fd12f31907bcf,,,,,,,,,,,,,,,,,,,,,,,a,1,"[""0.279"",""0.336"",""0.839"",""0.620""]","[1,1,1,0]",0,57,57,57,1,0,1,,,1,FALSE,0.7818,,,,,,,,,,,,,,,,,,,,,,,,,,,,,,,
,5b27c8c9051c6e00019d0c96,627c6f77c925d19e815a9026,2022-05-11_22h24.18.241,classification_task,2021.2.3,Linux x86_64,60.0024001,627c6715c52fd12f31907bcf,,,,,,,,,,,,,,,,,,,,,,,a,1,"[""0.279"",""0.336"",""0.616"",""0.916""]","[1,1,0,1]",0,58,58,58,1,0,1,,,1,FALSE,0.6724,,,,,,,,,,,,,,,,,,,,,,,,,,,,,,,
,5b27c8c9051c6e00019d0c96,627c6f77c925d19e815a9026,2022-05-11_22h24.18.241,classification_task,2021.2.3,Linux x86_64,60.0024001,627c6715c52fd12f31907bcf,,,,,,,,,,,,,,,,,,,,,,,l,1,"[""0.052"",""0.170"",""0.519"",""0.612""]","[1,1,1,0]",0,59,59,59,1,1,0,,,1,FALSE,1.1551,,,,,,,,,,,,,,,,,,,,,,,,,,,,,,,
,5b27c8c9051c6e00019d0c96,627c6f77c925d19e815a9026,2022-05-11_22h24.18.241,classification_task,2021.2.3,Linux x86_64,60.0024001,627c6715c52fd12f31907bcf,,,,,,,,,,,,,,,,,,,,,,,l,0,"[""0.637"",""0.566"",""0.878"",""0.955""]","[0,1,1,1]",0,60,60,60,1,0,0,,,1,FALSE,0.9689,,,,,,,,,,,,,,,,,,,,,,,,,,,,,,,
,5b27c8c9051c6e00019d0c96,627c6f77c925d19e815a9026,2022-05-11_22h24.18.241,classification_task,2021.2.3,Linux x86_64,60.0024001,627c6715c52fd12f31907bcf,,,,,,,,,,,,,,,,,,,,,,,a,1,"[""0.214"",""0.566"",""0.616"",""0.955""]","[1,1,0,1]",0,61,61,61,1,0,0,,,1,FALSE,1.0664,,,,,,,,,,,,,,,,,,,,,,,,,,,,,,,
,5b27c8c9051c6e00019d0c96,627c6f77c925d19e815a9026,2022-05-11_22h24.18.241,classification_task,2021.2.3,Linux x86_64,60.0024001,627c6715c52fd12f31907bcf,,,,,,,,,,,,,,,,,,,,,,,a,1,"[""0.660"",""0.336"",""0.839"",""0.916""]","[0,1,1,1]",0,62,62,62,1,0,1,,,1,FALSE,0.7592,,,,,,,,,,,,,,,,,,,,,,,,,,,,,,,
,5b27c8c9051c6e00019d0c96,627c6f77c925d19e815a9026,2022-05-11_22h24.18.241,classification_task,2021.2.3,Linux x86_64,60.0024001,627c6715c52fd12f31907bcf,,,,,,,,,,,,,,,,,,,,,,,a,1,"[""0.279"",""0.624"",""0.839"",""0.916""]","[1,0,1,1]",0,63,63,63,1,0,1,,,1,FALSE,0.6667,,,,,,,,,,,,,,,,,,,,,,,,,,,,,,,
,5b27c8c9051c6e00019d0c96,627c6f77c925d19e815a9026,2022-05-11_22h24.18.241,classification_task,2021.2.3,Linux x86_64,60.0024001,627c6715c52fd12f31907bcf,,,,,,,,,,,,,,,,,,,,,,,,,,,,,,,,,,,,,,,0, ,,0,7.432643136,229.1222,0,1,1,1,1,2,2,,,,,,,,,,,,,,,,,,
,5b27c8c9051c6e00019d0c96,627c6f77c925d19e815a9026,2022-05-11_22h24.18.241,classification_task,2021.2.3,Linux x86_64,60.0024001,627c6715c52fd12f31907bcf,,,,,,,,,,,,,,,,,,,,,,,,,,,,,,,,,,,,,,,1,  ,,0,8.110977022,230.2832,0,1,1,1,1,2,2,,,,,,,,,,,,,,,,,,
,5b27c8c9051c6e00019d0c96,627c6f77c925d19e815a9026,2022-05-11_22h24.18.241,classification_task,2021.2.3,Linux x86_64,60.0024001,627c6715c52fd12f31907bcf,,,,,,,,,,,,,,,,,,,,,,,,,,,,,,,,,,,,,,,2,  ,,0,8.219510444,231.3903,0,1,1,1,1,2,2,,,,,,,,,,,,,,,,,,
,5b27c8c9051c6e00019d0c96,627c6f77c925d19e815a9026,2022-05-11_22h24.18.241,classification_task,2021.2.3,Linux x86_64,60.0024001,627c6715c52fd12f31907bcf,,,,,,,,,,,,,,,,,,,,,,,,,,,,,,,,,,,,,,,,,,,,,0,1,1,1,1,,2,,,,,,,,,,,,,,,,,,
,5b27c8c9051c6e00019d0c96,627c6f77c925d19e815a9026,2022-05-11_22h24.18.241,classification_task,2021.2.3,Linux x86_64,60.0024001,627c6715c52fd12f31907bcf,,,,,,,,,,,,,,,,,,,,,space,184.9071,a,0,"[""0.052"",""0.685"",""0.519"",""0.797""]","[1,0,1,1]",0,0,0,0,1,1,0,,,1,FALSE,3.0113,,,,,,,,,,,,,,,,,,,,,,,,,,,,,,,
,5b27c8c9051c6e00019d0c96,627c6f77c925d19e815a9026,2022-05-11_22h24.18.241,classification_task,2021.2.3,Linux x86_64,60.0024001,627c6715c52fd12f31907bcf,,,,,,,,,,,,,,,,,,,,,,,a,1,"[""0.214"",""0.483"",""0.878"",""0.955""]","[1,0,1,1]",0,1,1,1,1,0,0,,,1,FALSE,2.6499,,,,,,,,,,,,,,,,,,,,,,,,,,,,,,,
,5b27c8c9051c6e00019d0c96,627c6f77c925d19e815a9026,2022-05-11_22h24.18.241,classification_task,2021.2.3,Linux x86_64,60.0024001,627c6715c52fd12f31907bcf,,,,,,,,,,,,,,,,,,,,,,,l,0,"[""0.616"",""0.336"",""0.839"",""0.916""]","[0,1,1,1]",0,2,2,2,1,0,1,,,1,FALSE,3.6973,,,,,,,,,,,,,,,,,,,,,,,,,,,,,,,
,5b27c8c9051c6e00019d0c96,627c6f77c925d19e815a9026,2022-05-11_22h24.18.241,classification_task,2021.2.3,Linux x86_64,60.0024001,627c6715c52fd12f31907bcf,,,,,,,,,,,,,,,,,,,,,,,a,1,"[""0.214"",""0.566"",""0.635"",""0.955""]","[1,1,0,1]",0,3,3,3,1,0,0,,,1,FALSE,2.2,,,,,,,,,,,,,,,,,,,,,,,,,,,,,,,
,5b27c8c9051c6e00019d0c96,627c6f77c925d19e815a9026,2022-05-11_22h24.18.241,classification_task,2021.2.3,Linux x86_64,60.0024001,627c6715c52fd12f31907bcf,,,,,,,,,,,,,,,,,,,,,,,l,0,"[""0.279"",""0.336"",""0.689"",""0.916""]","[1,1,0,1]",0,4,4,4,1,0,1,,,1,FALSE,6.2827,,,,,,,,,,,,,,,,,,,,,,,,,,,,,,,
,5b27c8c9051c6e00019d0c96,627c6f77c925d19e815a9026,2022-05-11_22h24.18.241,classification_task,2021.2.3,Linux x86_64,60.0024001,627c6715c52fd12f31907bcf,,,,,,,,,,,,,,,,,,,,,,,l,0,"[""0.279"",""0.336"",""0.839"",""0.123""]","[1,1,1,0]",0,5,5,5,1,0,1,,,1,FALSE,6.4671,,,,,,,,,,,,,,,,,,,,,,,,,,,,,,,
,5b27c8c9051c6e00019d0c96,627c6f77c925d19e815a9026,2022-05-11_22h24.18.241,classification_task,2021.2.3,Linux x86_64,60.0024001,627c6715c52fd12f31907bcf,,,,,,,,,,,,,,,,,,,,,,,l,0,"[""0.279"",""0.637"",""0.839"",""0.916""]","[1,0,1,1]",0,6,6,6,1,0,1,,,1,FALSE,2.9789,,,,,,,,,,,,,,,,,,,,,,,,,,,,,,,
,5b27c8c9051c6e00019d0c96,627c6f77c925d19e815a9026,2022-05-11_22h24.18.241,classification_task,2021.2.3,Linux x86_64,60.0024001,627c6715c52fd12f31907bcf,,,,,,,,,,,,,,,,,,,,,,,l,1,"[""0.052"",""0.170"",""0.620"",""0.797""]","[1,1,0,1]",0,7,7,7,1,1,0,,,1,FALSE,2.3266,,,,,,,,,,,,,,,,,,,,,,,,,,,,,,,
,5b27c8c9051c6e00019d0c96,627c6f77c925d19e815a9026,2022-05-11_22h24.18.241,classification_task,2021.2.3,Linux x86_64,60.0024001,627c6715c52fd12f31907bcf,,,,,,,,,,,,,,,,,,,,,,,a,1,"[""0.214"",""0.566"",""0.878"",""0.685""]","[1,1,1,0]",0,8,8,8,1,0,0,,,1,FALSE,0.918,,,,,,,,,,,,,,,,,,,,,,,,,,,,,,,
,5b27c8c9051c6e00019d0c96,627c6f77c925d19e815a9026,2022-05-11_22h24.18.241,classification_task,2021.2.3,Linux x86_64,60.0024001,627c6715c52fd12f31907bcf,,,,,,,,,,,,,,,,,,,,,,,l,1,"[""0.052"",""0.170"",""0.519"",""0.689""]","[1,1,1,0]",0,9,9,9,1,1,0,,,1,FALSE,2.8441,,,,,,,,,,,,,,,,,,,,,,,,,,,,,,,
,5b27c8c9051c6e00019d0c96,627c6f77c925d19e815a9026,2022-05-11_22h24.18.241,classification_task,2021.2.3,Linux x86_64,60.0024001,627c6715c52fd12f31907bcf,,,,,,,,,,,,,,,,,,,,,,,a,0,"[""0.684"",""0.170"",""0.519"",""0.797""]","[0,1,1,1]",0,10,10,10,1,1,0,,,1,FALSE,2.0938,,,,,,,,,,,,,,,,,,,,,,,,,,,,,,,
,5b27c8c9051c6e00019d0c96,627c6f77c925d19e815a9026,2022-05-11_22h24.18.241,classification_task,2021.2.3,Linux x86_64,60.0024001,627c6715c52fd12f31907bcf,,,,,,,,,,,,,,,,,,,,,,,l,0,"[""0.624"",""0.566"",""0.878"",""0.955""]","[0,1,1,1]",0,11,11,11,1,0,0,,,1,FALSE,2.0994,,,,,,,,,,,,,,,,,,,,,,,,,,,,,,,
,5b27c8c9051c6e00019d0c96,627c6f77c925d19e815a9026,2022-05-11_22h24.18.241,classification_task,2021.2.3,Linux x86_64,60.0024001,627c6715c52fd12f31907bcf,,,,,,,,,,,,,,,,,,,,,,,a,0,"[""0.086"",""0.390"",""0.620"",""0.736""]","[1,1,0,1]",0,12,12,12,1,1,1,,,1,FALSE,1.1828,,,,,,,,,,,,,,,,,,,,,,,,,,,,,,,
,5b27c8c9051c6e00019d0c96,627c6f77c925d19e815a9026,2022-05-11_22h24.18.241,classification_task,2021.2.3,Linux x86_64,60.0024001,627c6715c52fd12f31907bcf,,,,,,,,,,,,,,,,,,,,,,,a,0,"[""0.086"",""0.390"",""0.450"",""0.684""]","[1,1,1,0]",0,13,13,13,1,1,1,,,1,FALSE,1.1338,,,,,,,,,,,,,,,,,,,,,,,,,,,,,,,
,5b27c8c9051c6e00019d0c96,627c6f77c925d19e815a9026,2022-05-11_22h24.18.241,classification_task,2021.2.3,Linux x86_64,60.0024001,627c6715c52fd12f31907bcf,,,,,,,,,,,,,,,,,,,,,,,l,1,"[""0.624"",""0.390"",""0.450"",""0.736""]","[0,1,1,1]",0,14,14,14,1,1,1,,,1,FALSE,1.1754,,,,,,,,,,,,,,,,,,,,,,,,,,,,,,,
,5b27c8c9051c6e00019d0c96,627c6f77c925d19e815a9026,2022-05-11_22h24.18.241,classification_task,2021.2.3,Linux x86_64,60.0024001,627c6715c52fd12f31907bcf,,,,,,,,,,,,,,,,,,,,,,,a,0,"[""0.086"",""0.660"",""0.450"",""0.736""]","[1,0,1,1]",0,15,15,15,1,1,1,,,1,FALSE,2.4334,,,,,,,,,,,,,,,,,,,,,,,,,,,,,,,
,5b27c8c9051c6e00019d0c96,627c6f77c925d19e815a9026,2022-05-11_22h24.18.241,classification_task,2021.2.3,Linux x86_64,60.0024001,627c6715c52fd12f31907bcf,,,,,,,,,,,,,,,,,,,,,,,l,0,"[""0.616"",""0.336"",""0.839"",""0.916""]","[0,1,1,1]",0,16,16,16,1,0,1,,,1,FALSE,1.5325,,,,,,,,,,,,,,,,,,,,,,,,,,,,,,,
,5b27c8c9051c6e00019d0c96,627c6f77c925d19e815a9026,2022-05-11_22h24.18.241,classification_task,2021.2.3,Linux x86_64,60.0024001,627c6715c52fd12f31907bcf,,,,,,,,,,,,,,,,,,,,,,,l,1,"[""0.052"",""0.685"",""0.519"",""0.797""]","[1,0,1,1]",0,17,17,17,1,1,0,,,1,FALSE,1.4,,,,,,,,,,,,,,,,,,,,,,,,,,,,,,,
,5b27c8c9051c6e00019d0c96,627c6f77c925d19e815a9026,2022-05-11_22h24.18.241,classification_task,2021.2.3,Linux x86_64,60.0024001,627c6715c52fd12f31907bcf,,,,,,,,,,,,,,,,,,,,,,,a,0,"[""0.052"",""0.170"",""0.519"",""0.123""]","[1,1,1,0]",0,18,18,18,1,1,0,,,1,FALSE,2.3613,,,,,,,,,,,,,,,,,,,,,,,,,,,,,,,
,5b27c8c9051c6e00019d0c96,627c6f77c925d19e815a9026,2022-05-11_22h24.18.241,classification_task,2021.2.3,Linux x86_64,60.0024001,627c6715c52fd12f31907bcf,,,,,,,,,,,,,,,,,,,,,,,l,1,"[""0.052"",""0.170"",""0.620"",""0.797""]","[1,1,0,1]",0,19,19,19,1,1,0,,,1,FALSE,5.3296,,,,,,,,,,,,,,,,,,,,,,,,,,,,,,,
,5b27c8c9051c6e00019d0c96,627c6f77c925d19e815a9026,2022-05-11_22h24.18.241,classification_task,2021.2.3,Linux x86_64,60.0024001,627c6715c52fd12f31907bcf,,,,,,,,,,,,,,,,,,,,,,,a,1,"[""0.214"",""0.566"",""0.878"",""0.635""]","[1,1,1,0]",0,20,20,20,1,0,0,,,1,FALSE,0.7565,,,,,,,,,,,,,,,,,,,,,,,,,,,,,,,
,5b27c8c9051c6e00019d0c96,627c6f77c925d19e815a9026,2022-05-11_22h24.18.241,classification_task,2021.2.3,Linux x86_64,60.0024001,627c6715c52fd12f31907bcf,,,,,,,,,,,,,,,,,,,,,,,l,0,"[""0.279"",""0.336"",""0.629"",""0.916""]","[1,1,0,1]",0,21,21,21,1,0,1,,,1,FALSE,1.4826,,,,,,,,,,,,,,,,,,,,,,,,,,,,,,,
,5b27c8c9051c6e00019d0c96,627c6f77c925d19e815a9026,2022-05-11_22h24.18.241,classification_task,2021.2.3,Linux x86_64,60.0024001,627c6715c52fd12f31907bcf,,,,,,,,,,,,,,,,,,,,,,,a,0,"[""0.086"",""0.390"",""0.450"",""0.134""]","[1,1,1,0]",0,22,22,22,1,1,1,,,1,FALSE,1.1002,,,,,,,,,,,,,,,,,,,,,,,,,,,,,,,
,5b27c8c9051c6e00019d0c96,627c6f77c925d19e815a9026,2022-05-11_22h24.18.241,classification_task,2021.2.3,Linux x86_64,60.0024001,627c6715c52fd12f31907bcf,,,,,,,,,,,,,,,,,,,,,,,l,1,"[""0.086"",""0.684"",""0.450"",""0.736""]","[1,0,1,1]",0,23,23,23,1,1,1,,,1,FALSE,5.5512,,,,,,,,,,,,,,,,,,,,,,,,,,,,,,,
,5b27c8c9051c6e00019d0c96,627c6f77c925d19e815a9026,2022-05-11_22h24.18.241,classification_task,2021.2.3,Linux x86_64,60.0024001,627c6715c52fd12f31907bcf,,,,,,,,,,,,,,,,,,,,,,,l,1,"[""0.635"",""0.390"",""0.450"",""0.736""]","[0,1,1,1]",0,24,24,24,1,1,1,,,1,FALSE,1.0816,,,,,,,,,,,,,,,,,,,,,,,,,,,,,,,
,5b27c8c9051c6e00019d0c96,627c6f77c925d19e815a9026,2022-05-11_22h24.18.241,classification_task,2021.2.3,Linux x86_64,60.0024001,627c6715c52fd12f31907bcf,,,,,,,,,,,,,,,,,,,,,,,l,0,"[""0.279"",""0.689"",""0.839"",""0.916""]","[1,0,1,1]",0,25,25,25,1,0,1,,,1,FALSE,1.5839,,,,,,,,,,,,,,,,,,,,,,,,,,,,,,,
,5b27c8c9051c6e00019d0c96,627c6f77c925d19e815a9026,2022-05-11_22h24.18.241,classification_task,2021.2.3,Linux x86_64,60.0024001,627c6715c52fd12f31907bcf,,,,,,,,,,,,,,,,,,,,,,,a,0,"[""0.086"",""0.390"",""0.637"",""0.736""]","[1,1,0,1]",0,26,26,26,1,1,1,,,1,FALSE,1.1298,,,,,,,,,,,,,,,,,,,,,,,,,,,,,,,
,5b27c8c9051c6e00019d0c96,627c6f77c925d19e815a9026,2022-05-11_22h24.18.241,classification_task,2021.2.3,Linux x86_64,60.0024001,627c6715c52fd12f31907bcf,,,,,,,,,,,,,,,,,,,,,,,l,0,"[""0.624"",""0.566"",""0.878"",""0.955""]","[0,1,1,1]",0,27,27,27,1,0,0,,,1,FALSE,1.2157,,,,,,,,,,,,,,,,,,,,,,,,,,,,,,,
,5b27c8c9051c6e00019d0c96,627c6f77c925d19e815a9026,2022-05-11_22h24.18.241,classification_task,2021.2.3,Linux x86_64,60.0024001,627c6715c52fd12f31907bcf,,,,,,,,,,,,,,,,,,,,,,,a,1,"[""0.214"",""0.612"",""0.878"",""0.955""]","[1,0,1,1]",0,28,28,28,1,0,0,,,1,FALSE,0.9705,,,,,,,,,,,,,,,,,,,,,,,,,,,,,,,
,5b27c8c9051c6e00019d0c96,627c6f77c925d19e815a9026,2022-05-11_22h24.18.241,classification_task,2021.2.3,Linux x86_64,60.0024001,627c6715c52fd12f31907bcf,,,,,,,,,,,,,,,,,,,,,,,a,1,"[""0.214"",""0.566"",""0.637"",""0.955""]","[1,1,0,1]",0,29,29,29,1,0,0,,,1,FALSE,0.7488,,,,,,,,,,,,,,,,,,,,,,,,,,,,,,,
,5b27c8c9051c6e00019d0c96,627c6f77c925d19e815a9026,2022-05-11_22h24.18.241,classification_task,2021.2.3,Linux x86_64,60.0024001,627c6715c52fd12f31907bcf,,,,,,,,,,,,,,,,,,,,,,,l,0,"[""0.279"",""0.336"",""0.839"",""0.612""]","[1,1,1,0]",0,30,30,30,1,0,1,,,1,FALSE,1.6332,,,,,,,,,,,,,,,,,,,,,,,,,,,,,,,
,5b27c8c9051c6e00019d0c96,627c6f77c925d19e815a9026,2022-05-11_22h24.18.241,classification_task,2021.2.3,Linux x86_64,60.0024001,627c6715c52fd12f31907bcf,,,,,,,,,,,,,,,,,,,,,,,a,0,"[""0.612"",""0.170"",""0.519"",""0.797""]","[0,1,1,1]",0,31,31,31,1,1,0,,,1,FALSE,1.1189,,,,,,,,,,,,,,,,,,,,,,,,,,,,,,,
,5b27c8c9051c6e00019d0c96,627c6f77c925d19e815a9026,2022-05-11_22h24.18.241,classification_task,2021.2.3,Linux x86_64,60.0024001,627c6715c52fd12f31907bcf,,,,,,,,,,,,,,,,,,,,,,,a,1,"[""0.214"",""0.684"",""0.878"",""0.955""]","[1,0,1,1]",0,32,32,32,1,0,0,,,1,FALSE,1.7996,,,,,,,,,,,,,,,,,,,,,,,,,,,,,,,
,5b27c8c9051c6e00019d0c96,627c6f77c925d19e815a9026,2022-05-11_22h24.18.241,classification_task,2021.2.3,Linux x86_64,60.0024001,627c6715c52fd12f31907bcf,,,,,,,,,,,,,,,,,,,,,,,l,1,"[""0.052"",""0.170"",""0.123"",""0.797""]","[1,1,0,1]",0,33,33,33,1,1,0,,,1,FALSE,0.9003,,,,,,,,,,,,,,,,,,,,,,,,,,,,,,,
,5b27c8c9051c6e00019d0c96,627c6f77c925d19e815a9026,2022-05-11_22h24.18.241,classification_task,2021.2.3,Linux x86_64,60.0024001,627c6715c52fd12f31907bcf,,,,,,,,,,,,,,,,,,,,,,,l,0,"[""0.279"",""0.625"",""0.839"",""0.916""]","[1,0,1,1]",0,34,34,34,1,0,1,,,1,FALSE,1.4158,,,,,,,,,,,,,,,,,,,,,,,,,,,,,,,
,5b27c8c9051c6e00019d0c96,627c6f77c925d19e815a9026,2022-05-11_22h24.18.241,classification_task,2021.2.3,Linux x86_64,60.0024001,627c6715c52fd12f31907bcf,,,,,,,,,,,,,,,,,,,,,,,l,0,"[""0.279"",""0.336"",""0.839"",""0.620""]","[1,1,1,0]",0,35,35,35,1,0,1,,,1,FALSE,1.3002,,,,,,,,,,,,,,,,,,,,,,,,,,,,,,,
,5b27c8c9051c6e00019d0c96,627c6f77c925d19e815a9026,2022-05-11_22h24.18.241,classification_task,2021.2.3,Linux x86_64,60.0024001,627c6715c52fd12f31907bcf,,,,,,,,,,,,,,,,,,,,,,,l,1,"[""0.086"",""0.608"",""0.450"",""0.736""]","[1,0,1,1]",0,36,36,36,1,1,1,,,1,FALSE,1.2338,,,,,,,,,,,,,,,,,,,,,,,,,,,,,,,
,5b27c8c9051c6e00019d0c96,627c6f77c925d19e815a9026,2022-05-11_22h24.18.241,classification_task,2021.2.3,Linux x86_64,60.0024001,627c6715c52fd12f31907bcf,,,,,,,,,,,,,,,,,,,,,,,a,1,"[""0.214"",""0.566"",""0.878"",""0.629""]","[1,1,1,0]",0,37,37,37,1,0,0,,,1,FALSE,0.9335,,,,,,,,,,,,,,,,,,,,,,,,,,,,,,,
,5b27c8c9051c6e00019d0c96,627c6f77c925d19e815a9026,2022-05-11_22h24.18.241,classification_task,2021.2.3,Linux x86_64,60.0024001,627c6715c52fd12f31907bcf,,,,,,,,,,,,,,,,,,,,,,,l,0,"[""0.612"",""0.336"",""0.839"",""0.916""]","[0,1,1,1]",0,38,38,38,1,0,1,,,1,FALSE,4.3165,,,,,,,,,,,,,,,,,,,,,,,,,,,,,,,
,5b27c8c9051c6e00019d0c96,627c6f77c925d19e815a9026,2022-05-11_22h24.18.241,classification_task,2021.2.3,Linux x86_64,60.0024001,627c6715c52fd12f31907bcf,,,,,,,,,,,,,,,,,,,,,,,l,1,"[""0.086"",""0.390"",""0.450"",""0.635""]","[1,1,1,0]",0,39,39,39,1,1,1,,,1,FALSE,2.1781,,,,,,,,,,,,,,,,,,,,,,,,,,,,,,,
,5b27c8c9051c6e00019d0c96,627c6f77c925d19e815a9026,2022-05-11_22h24.18.241,classification_task,2021.2.3,Linux x86_64,60.0024001,627c6715c52fd12f31907bcf,,,,,,,,,,,,,,,,,,,,,,,l,1,"[""0.086"",""0.390"",""0.616"",""0.736""]","[1,1,0,1]",0,40,40,40,1,1,1,,,1,FALSE,0.8339,,,,,,,,,,,,,,,,,,,,,,,,,,,,,,,
,5b27c8c9051c6e00019d0c96,627c6f77c925d19e815a9026,2022-05-11_22h24.18.241,classification_task,2021.2.3,Linux x86_64,60.0024001,627c6715c52fd12f31907bcf,,,,,,,,,,,,,,,,,,,,,,,l,1,"[""0.052"",""0.635"",""0.519"",""0.797""]","[1,0,1,1]",0,41,41,41,1,1,0,,,1,FALSE,1.3172,,,,,,,,,,,,,,,,,,,,,,,,,,,,,,,
,5b27c8c9051c6e00019d0c96,627c6f77c925d19e815a9026,2022-05-11_22h24.18.241,classification_task,2021.2.3,Linux x86_64,60.0024001,627c6715c52fd12f31907bcf,,,,,,,,,,,,,,,,,,,,,,,a,0,"[""0.052"",""0.170"",""0.519"",""0.134""]","[1,1,1,0]",0,42,42,42,1,1,0,,,1,FALSE,1.2166,,,,,,,,,,,,,,,,,,,,,,,,,,,,,,,
,5b27c8c9051c6e00019d0c96,627c6f77c925d19e815a9026,2022-05-11_22h24.18.241,classification_task,2021.2.3,Linux x86_64,60.0024001,627c6715c52fd12f31907bcf,,,,,,,,,,,,,,,,,,,,,,,a,1,"[""0.214"",""0.566"",""0.625"",""0.955""]","[1,1,0,1]",0,43,43,43,1,0,0,,,1,FALSE,1.0995,,,,,,,,,,,,,,,,,,,,,,,,,,,,,,,
,5b27c8c9051c6e00019d0c96,627c6f77c925d19e815a9026,2022-05-11_22h24.18.241,classification_task,2021.2.3,Linux x86_64,60.0024001,627c6715c52fd12f31907bcf,,,,,,,,,,,,,,,,,,,,,,,l,0,"[""0.279"",""0.336"",""0.637"",""0.916""]","[1,1,0,1]",0,44,44,44,1,0,1,,,1,FALSE,1.0831,,,,,,,,,,,,,,,,,,,,,,,,,,,,,,,
,5b27c8c9051c6e00019d0c96,627c6f77c925d19e815a9026,2022-05-11_22h24.18.241,classification_task,2021.2.3,Linux x86_64,60.0024001,627c6715c52fd12f31907bcf,,,,,,,,,,,,,,,,,,,,,,,a,0,"[""0.612"",""0.390"",""0.450"",""0.736""]","[0,1,1,1]",0,45,45,45,1,1,1,,,1,FALSE,3.617,,,,,,,,,,,,,,,,,,,,,,,,,,,,,,,
,5b27c8c9051c6e00019d0c96,627c6f77c925d19e815a9026,2022-05-11_22h24.18.241,classification_task,2021.2.3,Linux x86_64,60.0024001,627c6715c52fd12f31907bcf,,,,,,,,,,,,,,,,,,,,,,,l,0,"[""0.684"",""0.566"",""0.878"",""0.955""]","[0,1,1,1]",0,46,46,46,1,0,0,,,1,FALSE,1.4334,,,,,,,,,,,,,,,,,,,,,,,,,,,,,,,
,5b27c8c9051c6e00019d0c96,627c6f77c925d19e815a9026,2022-05-11_22h24.18.241,classification_task,2021.2.3,Linux x86_64,60.0024001,627c6715c52fd12f31907bcf,,,,,,,,,,,,,,,,,,,,,,,a,0,"[""0.689"",""0.170"",""0.519"",""0.797""]","[0,1,1,1]",0,47,47,47,1,1,0,,,1,FALSE,1.0666,,,,,,,,,,,,,,,,,,,,,,,,,,,,,,,
,5b27c8c9051c6e00019d0c96,627c6f77c925d19e815a9026,2022-05-11_22h24.18.241,classification_task,2021.2.3,Linux x86_64,60.0024001,627c6715c52fd12f31907bcf,,,,,,,,,,,,,,,,,,,,,,,a,1,"[""0.214"",""0.685"",""0.878"",""0.955""]","[1,0,1,1]",0,48,48,48,1,0,0,,,1,FALSE,0.7859,,,,,,,,,,,,,,,,,,,,,,,,,,,,,,,
,5b27c8c9051c6e00019d0c96,627c6f77c925d19e815a9026,2022-05-11_22h24.18.241,classification_task,2021.2.3,Linux x86_64,60.0024001,627c6715c52fd12f31907bcf,,,,,,,,,,,,,,,,,,,,,,,l,1,"[""0.052"",""0.170"",""0.519"",""0.123""]","[1,1,1,0]",0,49,49,49,1,1,0,,,1,FALSE,1.1327,,,,,,,,,,,,,,,,,,,,,,,,,,,,,,,
,5b27c8c9051c6e00019d0c96,627c6f77c925d19e815a9026,2022-05-11_22h24.18.241,classification_task,2021.2.3,Linux x86_64,60.0024001,627c6715c52fd12f31907bcf,,,,,,,,,,,,,,,,,,,,,,,l,1,"[""0.086"",""0.390"",""0.450"",""0.637""]","[1,1,1,0]",0,50,50,50,1,1,1,,,1,FALSE,1.4997,,,,,,,,,,,,,,,,,,,,,,,,,,,,,,,
,5b27c8c9051c6e00019d0c96,627c6f77c925d19e815a9026,2022-05-11_22h24.18.241,classification_task,2021.2.3,Linux x86_64,60.0024001,627c6715c52fd12f31907bcf,,,,,,,,,,,,,,,,,,,,,,,l,1,"[""0.086"",""0.616"",""0.450"",""0.736""]","[1,0,1,1]",0,51,51,51,1,1,1,,,1,FALSE,0.9978,,,,,,,,,,,,,,,,,,,,,,,,,,,,,,,
,5b27c8c9051c6e00019d0c96,627c6f77c925d19e815a9026,2022-05-11_22h24.18.241,classification_task,2021.2.3,Linux x86_64,60.0024001,627c6715c52fd12f31907bcf,,,,,,,,,,,,,,,,,,,,,,,a,1,"[""0.214"",""0.566"",""0.878"",""0.134""]","[1,1,1,0]",0,52,52,52,1,0,0,,,1,FALSE,1.4664,,,,,,,,,,,,,,,,,,,,,,,,,,,,,,,
,5b27c8c9051c6e00019d0c96,627c6f77c925d19e815a9026,2022-05-11_22h24.18.241,classification_task,2021.2.3,Linux x86_64,60.0024001,627c6715c52fd12f31907bcf,,,,,,,,,,,,,,,,,,,,,,,l,1,"[""0.616"",""0.390"",""0.450"",""0.736""]","[0,1,1,1]",0,53,53,53,1,1,1,,,1,FALSE,1.2338,,,,,,,,,,,,,,,,,,,,,,,,,,,,,,,
,5b27c8c9051c6e00019d0c96,627c6f77c925d19e815a9026,2022-05-11_22h24.18.241,classification_task,2021.2.3,Linux x86_64,60.0024001,627c6715c52fd12f31907bcf,,,,,,,,,,,,,,,,,,,,,,,a,1,"[""0.214"",""0.566"",""0.689"",""0.955""]","[1,1,0,1]",0,54,54,54,1,0,0,,,1,FALSE,1.2639,,,,,,,,,,,,,,,,,,,,,,,,,,,,,,,
,5b27c8c9051c6e00019d0c96,627c6f77c925d19e815a9026,2022-05-11_22h24.18.241,classification_task,2021.2.3,Linux x86_64,60.0024001,627c6715c52fd12f31907bcf,,,,,,,,,,,,,,,,,,,,,,,l,0,"[""0.279"",""0.620"",""0.839"",""0.916""]","[1,0,1,1]",0,55,55,55,1,0,1,,,1,FALSE,0.8837,,,,,,,,,,,,,,,,,,,,,,,,,,,,,,,
,5b27c8c9051c6e00019d0c96,627c6f77c925d19e815a9026,2022-05-11_22h24.18.241,classification_task,2021.2.3,Linux x86_64,60.0024001,627c6715c52fd12f31907bcf,,,,,,,,,,,,,,,,,,,,,,,a,0,"[""0.660"",""0.170"",""0.519"",""0.797""]","[0,1,1,1]",0,56,56,56,1,1,0,,,1,FALSE,0.9499,,,,,,,,,,,,,,,,,,,,,,,,,,,,,,,
,5b27c8c9051c6e00019d0c96,627c6f77c925d19e815a9026,2022-05-11_22h24.18.241,classification_task,2021.2.3,Linux x86_64,60.0024001,627c6715c52fd12f31907bcf,,,,,,,,,,,,,,,,,,,,,,,l,1,"[""0.086"",""0.390"",""0.689"",""0.736""]","[1,1,0,1]",0,57,57,57,1,1,1,,,1,FALSE,0.9011,,,,,,,,,,,,,,,,,,,,,,,,,,,,,,,
,5b27c8c9051c6e00019d0c96,627c6f77c925d19e815a9026,2022-05-11_22h24.18.241,classification_task,2021.2.3,Linux x86_64,60.0024001,627c6715c52fd12f31907bcf,,,,,,,,,,,,,,,,,,,,,,,l,0,"[""0.279"",""0.336"",""0.616"",""0.916""]","[1,1,0,1]",0,58,58,58,1,0,1,,,1,FALSE,1.3481,,,,,,,,,,,,,,,,,,,,,,,,,,,,,,,
,5b27c8c9051c6e00019d0c96,627c6f77c925d19e815a9026,2022-05-11_22h24.18.241,classification_task,2021.2.3,Linux x86_64,60.0024001,627c6715c52fd12f31907bcf,,,,,,,,,,,,,,,,,,,,,,,a,1,"[""0.134"",""0.566"",""0.878"",""0.955""]","[0,1,1,1]",0,59,59,59,1,0,0,,,1,FALSE,1.3003,,,,,,,,,,,,,,,,,,,,,,,,,,,,,,,
,5b27c8c9051c6e00019d0c96,627c6f77c925d19e815a9026,2022-05-11_22h24.18.241,classification_task,2021.2.3,Linux x86_64,60.0024001,627c6715c52fd12f31907bcf,,,,,,,,,,,,,,,,,,,,,,,l,0,"[""0.685"",""0.336"",""0.839"",""0.916""]","[0,1,1,1]",0,60,60,60,1,0,1,,,1,FALSE,1.1013,,,,,,,,,,,,,,,,,,,,,,,,,,,,,,,
,5b27c8c9051c6e00019d0c96,627c6f77c925d19e815a9026,2022-05-11_22h24.18.241,classification_task,2021.2.3,Linux x86_64,60.0024001,627c6715c52fd12f31907bcf,,,,,,,,,,,,,,,,,,,,,,,l,1,"[""0.052"",""0.483"",""0.519"",""0.797""]","[1,0,1,1]",0,61,61,61,1,1,0,,,1,FALSE,3.1483,,,,,,,,,,,,,,,,,,,,,,,,,,,,,,,
,5b27c8c9051c6e00019d0c96,627c6f77c925d19e815a9026,2022-05-11_22h24.18.241,classification_task,2021.2.3,Linux x86_64,60.0024001,627c6715c52fd12f31907bcf,,,,,,,,,,,,,,,,,,,,,,,l,0,"[""0.279"",""0.336"",""0.839"",""0.635""]","[1,1,1,0]",0,62,62,62,1,0,1,,,1,FALSE,0.9995,,,,,,,,,,,,,,,,,,,,,,,,,,,,,,,
,5b27c8c9051c6e00019d0c96,627c6f77c925d19e815a9026,2022-05-11_22h24.18.241,classification_task,2021.2.3,Linux x86_64,60.0024001,627c6715c52fd12f31907bcf,,,,,,,,,,,,,,,,,,,,,,,a,0,"[""0.052"",""0.170"",""0.625"",""0.797""]","[1,1,0,1]",0,63,63,63,1,1,0,,,1,FALSE,1.0819,,,,,,,,,,,,,,,,,,,,,,,,,,,,,,,
,5b27c8c9051c6e00019d0c96,627c6f77c925d19e815a9026,2022-05-11_22h24.18.241,classification_task,2021.2.3,Linux x86_64,60.0024001,627c6715c52fd12f31907bcf,,,,,,,,,,,,,,,,,,,,,,,,,,,,,,,,,,,,,,,0, ,,0,3.009906202,371.8545,0,2,2,2,1,2,3,,,,,,,,,,,,,,,,,,
,5b27c8c9051c6e00019d0c96,627c6f77c925d19e815a9026,2022-05-11_22h24.18.241,classification_task,2021.2.3,Linux x86_64,60.0024001,627c6715c52fd12f31907bcf,,,,,,,,,,,,,,,,,,,,,,,,,,,,,,,,,,,,,,,1,  ,,0,3.037039557,379.686,0,2,2,2,1,2,3,,,,,,,,,,,,,,,,,,
,5b27c8c9051c6e00019d0c96,627c6f77c925d19e815a9026,2022-05-11_22h24.18.241,classification_task,2021.2.3,Linux x86_64,60.0024001,627c6715c52fd12f31907bcf,,,,,,,,,,,,,,,,,,,,,,,,,,,,,,,,,,,,,,,2,  ,,0,1.870305274,384.6188,0,2,2,2,1,2,3,,,,,,,,,,,,,,,,,,
,5b27c8c9051c6e00019d0c96,627c6f77c925d19e815a9026,2022-05-11_22h24.18.241,classification_task,2021.2.3,Linux x86_64,60.0024001,627c6715c52fd12f31907bcf,,,,,,,,,,,,,,,,,,,,,,,,,,,,,,,,,,,,,,,,,,,,,0,2,2,2,1,,3,,,,,,,,,,,,,,,,,,
,5b27c8c9051c6e00019d0c96,627c6f77c925d19e815a9026,2022-05-11_22h24.18.241,classification_task,2021.2.3,Linux x86_64,60.0024001,627c6715c52fd12f31907bcf,,,,,,,,,,,,,,,,,,,,,,,,,,,,,,,,,,,,,,,,,,,,,,,,,,,,,I believe the aid is a competent performer,,0.7,0,4,1046.8337,0,0,0,0,1,0,,,,,
,5b27c8c9051c6e00019d0c96,627c6f77c925d19e815a9026,2022-05-11_22h24.18.241,classification_task,2021.2.3,Linux x86_64,60.0024001,627c6715c52fd12f31907bcf,,,,,,,,,,,,,,,,,,,,,,,,,,,,,,,,,,,,,,,,,,,,,,,,,,,,,I trust the aid,,0.7,0,4,1049.0663,0,0,0,0,1,0,,,,,
,5b27c8c9051c6e00019d0c96,627c6f77c925d19e815a9026,2022-05-11_22h24.18.241,classification_task,2021.2.3,Linux x86_64,60.0024001,627c6715c52fd12f31907bcf,,,,,,,,,,,,,,,,,,,,,,,,,,,,,,,,,,,,,,,,,,,,,,,,,,,,,I have confidence in the advice given by the aid,,0.7,0,4,1052.9568,0,0,0,0,1,0,,,,,
,5b27c8c9051c6e00019d0c96,627c6f77c925d19e815a9026,2022-05-11_22h24.18.241,classification_task,2021.2.3,Linux x86_64,60.0024001,627c6715c52fd12f31907bcf,,,,,,,,,,,,,,,,,,,,,,,,,,,,,,,,,,,,,,,,,,,,,,,,,,,,,I can depend on the aid,,0.7,0,4,1055.0628,0,0,0,0,1,0,,,,,
,5b27c8c9051c6e00019d0c96,627c6f77c925d19e815a9026,2022-05-11_22h24.18.241,classification_task,2021.2.3,Linux x86_64,60.0024001,627c6715c52fd12f31907bcf,,,,,,,,,,,,,,,,,,,,,,,,,,,,,,,,,,,,,,,,,,,,,,,,,,,,,I can rely on the aid to behave in consistent ways,,0.7,0,4,1058.6259,0,0,0,0,1,0,,,,,
,5b27c8c9051c6e00019d0c96,627c6f77c925d19e815a9026,2022-05-11_22h24.18.241,classification_task,2021.2.3,Linux x86_64,60.0024001,627c6715c52fd12f31907bcf,,,,,,,,,,,,,,,,,,,,,,,,,,,,,,,,,,,,,,,,,,,,,,,,,,,,,I can rely on the aid to do its best every time I take its advice,,0.7,0,4,1063.3719,0,0,0,0,1,0,,,,,
,5b27c8c9051c6e00019d0c96,627c6f77c925d19e815a9026,2022-05-11_22h24.18.241,classification_task,2021.2.3,Linux x86_64,60.0024001,627c6715c52fd12f31907bcf,,,,,,,,,,,,,,,,,,,,,,,,,,,,,,,,,,,,,,,,,,,,,,,,,,,,,"On trials you completed with assistance from the aid, how frequently did you think the aid was correct?",,0.7,0,80,,0,0,0,0,1,0,,,,,
,5b27c8c9051c6e00019d0c96,627c6f77c925d19e815a9026,2022-05-11_22h24.18.241,classification_task,2021.2.3,Linux x86_64,60.0024001,627c6715c52fd12f31907bcf,,,,,,,,,,,,,,,,,,,,,,,,,,,,,,,,,,,,,,,,,,,,,,,,,,,,,"On trials you completed without the aid, how frequently did you think you were correct?",,0.7,0,50,,0,0,0,0,1,0,,,,,
,5b27c8c9051c6e00019d0c96,627c6f77c925d19e815a9026,2022-05-11_22h24.18.241,classification_task,2021.2.3,Linux x86_64,60.0024001,627c6715c52fd12f31907bcf,,,,,,,,,,,,,,,,,,,,,,,,,,,,,,,,,,,,,,,,,,,,,,,,,,,,,,,,,,,0,0,0,0,1,,,,,,
,5b27c8c9051c6e00019d0c96,627c6f77c925d19e815a9026,2022-05-11_22h24.18.241,classification_task,2021.2.3,Linux x86_64,60.0024001,627c6715c52fd12f31907bcf,,,,,,,,,,,,,,,,,,,,,,,,,,,,,,,,,,,,,,,,,,,,,,,,,,,,,,,,,,,,,,,,,space,17.862,1105.5502,,
,5b27c8c9051c6e00019d0c96,627c6f77c925d19e815a9026,2022-05-11_22h24.18.241,classification_task,2021.2.3,Linux x86_64,60.0024001,627c6715c52fd12f31907bcf,,,,,,,,,,,,,,,,,,,,,,,,,,,,,,,,,,,,,,,,,,,,,,,,,,,,,,,,,,,,,,,,,,,,"Mozilla/5.0 (X11; Linux x86_64) AppleWebKit/537.36 (KHTML, like Gecko) Chrome/101.0.4951.54 Safari/537.36",
,5b27c8c9051c6e00019d0c96,627c6f77c925d19e815a9026,2022-05-11_22h24.18.241,classification_task,2021.2.3,Linux x86_64,60.0024001,627c6715c52fd12f31907bcf,,,,,,,,,,,,,,,,,,,,,,,,,,,,,,,,,,,,,,,,,,,,,,,,,,,,,,,,,,,,,,,,,,,,,HIGHLIGHT
