usingWebGL,participant,session,date,expName,psychopyVersion,OS,frameRate,PROLIFIC_PID,STUDY_ID,SESSION_ID,signatures_friend,signatures_foe,band_ranges_top,band_ranges_bottom,formitemText,formtype,formundefined,formitemWidth,formindex,formresponse,formrt,key_resp_2.keys,key_resp_2.rt,tute_resp.keys,tute_resp.rt,tutorial.thisRepN,tutorial.thisTrialN,tutorial.thisN,tutorial.thisIndex,tutorial.ran,key_resp_4.keys,key_resp_4.rt,key_resp.keys,key_resp.corr,key_resp.rt,lines_presented,is_signal_presented,trials.thisRepN,trials.thisTrialN,trials.thisN,trials.thisIndex,trials.ran,vessel,active_band,lines,is_signal,supported_pos,catch_trial,debrief_formindex,debrief_formitemText,debrief_formtype,debrief_formitemWidth,debrief_formresponse,debrief_formrt,phases.thisRepN,phases.thisTrialN,phases.thisN,phases.thisIndex,phases.ran,phases.order,phase,key_resp_3.keys,trustitemText,trusttype,trustitemWidth,trustindex,trustresponse,trustrt,support_status.thisRepN,support_status.thisTrialN,support_status.thisN,support_status.thisIndex,support_status.ran,support_status.order,key_resp_5.keys,key_resp_5.rt,globalClockTime,userAgent
TRUE,5b3a48e8b6b4410001613060,001,2022-04-29_03h33.53.658,classification_task,2021.2.3,Win32,164.9892757,5b3a48e8b6b4410001613060,626b377229c10585ec392f89,626b4e1360fbb07b480ed873,,,,,,,,,,,,,,,,,,,,,,,,,,,,,,,,,,,,,,,,,,,,,,,,,,,,,,,,,,,,,,,,,,,,
,5b3a48e8b6b4410001613060,001,2022-04-29_03h33.53.658,classification_task,2021.2.3,Win32,164.9892757,5b3a48e8b6b4410001613060,626b377229c10585ec392f89,626b4e1360fbb07b480ed873,"[[""0.227"",""0.565"",""0.847"",""0.929""],[""0.272"",""0.466"",""0.882"",""0.975""]]","[[""0.097"",""0.191"",""0.506"",""0.807""],[""0.147"",""0.323"",""0.648"",""0.739""]]","[1,10]","[100,1000]",Video game experience,,,0.7,0,,,,,,,,,,,,,,,,,,,,,,,,,,,,,,,,,,,,,,,,,,,,,,,,,,,,,,,,,,,
,5b3a48e8b6b4410001613060,001,2022-04-29_03h33.53.658,classification_task,2021.2.3,Win32,164.9892757,5b3a48e8b6b4410001613060,626b377229c10585ec392f89,626b4e1360fbb07b480ed873,,,,,Approximately how many hours did you spend playing video games in the last week?,,,0.7,0,16,,,,,,,,,,,,,,,,,,,,,,,,,,,,,,,,,,,,,,,,,,,,,,,,,,,,,,,,,,
,5b3a48e8b6b4410001613060,001,2022-04-29_03h33.53.658,classification_task,2021.2.3,Win32,164.9892757,5b3a48e8b6b4410001613060,626b377229c10585ec392f89,626b4e1360fbb07b480ed873,,,,,"Which game did you play the most this year? (Enter ""None"" if you didn't play any)",,,0.7,0,Dark Souls,,,,,,,,,,,,,,,,,,,,,,,,,,,,,,,,,,,,,,,,,,,,,,,,,,,,,,,,,,
,5b3a48e8b6b4410001613060,001,2022-04-29_03h33.53.658,classification_task,2021.2.3,Win32,164.9892757,5b3a48e8b6b4410001613060,626b377229c10585ec392f89,626b4e1360fbb07b480ed873,,,,,Visual perception,,,0.7,0,,,,,,,,,,,,,,,,,,,,,,,,,,,,,,,,,,,,,,,,,,,,,,,,,,,,,,,,,,,
,5b3a48e8b6b4410001613060,001,2022-04-29_03h33.53.658,classification_task,2021.2.3,Win32,164.9892757,5b3a48e8b6b4410001613060,626b377229c10585ec392f89,626b4e1360fbb07b480ed873,,,,,Do you have any form of color blindness?,,,0.7,0,No,25.5948,,,,,,,,,,,,,,,,,,,,,,,,,,,,,,,,,,,,,,,,,,,,,,,,,,,,,,,,,
,5b3a48e8b6b4410001613060,001,2022-04-29_03h33.53.658,classification_task,2021.2.3,Win32,164.9892757,5b3a48e8b6b4410001613060,626b377229c10585ec392f89,626b4e1360fbb07b480ed873,,,,,Do you use software to change the colour temperature of your screen (e.g. f.lux)?,,,0.7,0,Yes,36.7809,,,,,,,,,,,,,,,,,,,,,,,,,,,,,,,,,,,,,,,,,,,,,,,,,,,,,,,,,
,5b3a48e8b6b4410001613060,001,2022-04-29_03h33.53.658,classification_task,2021.2.3,Win32,164.9892757,5b3a48e8b6b4410001613060,626b377229c10585ec392f89,626b4e1360fbb07b480ed873,,,,,,,,,,,,space,27.3682,space,6.1712,0,0,0,0,1,,,,,,,,,,,,,,,,,,,,,,,,,,,,,,,,,,,,,,,,,,,,,,,,
,5b3a48e8b6b4410001613060,001,2022-04-29_03h33.53.658,classification_task,2021.2.3,Win32,164.9892757,5b3a48e8b6b4410001613060,626b377229c10585ec392f89,626b4e1360fbb07b480ed873,,,,,,,,,,,,,,space,4.8787,1,0,1,0,1,,,,,,,,,,,,,,,,,,,,,,,,,,,,,,,,,,,,,,,,,,,,,,,,
,5b3a48e8b6b4410001613060,001,2022-04-29_03h33.53.658,classification_task,2021.2.3,Win32,164.9892757,5b3a48e8b6b4410001613060,626b377229c10585ec392f89,626b4e1360fbb07b480ed873,,,,,,,,,,,,,,space,9.1502,2,0,2,0,1,,,,,,,,,,,,,,,,,,,,,,,,,,,,,,,,,,,,,,,,,,,,,,,,
,5b3a48e8b6b4410001613060,001,2022-04-29_03h33.53.658,classification_task,2021.2.3,Win32,164.9892757,5b3a48e8b6b4410001613060,626b377229c10585ec392f89,626b4e1360fbb07b480ed873,,,,,,,,,,,,,,space,12.0037,3,0,3,0,1,,,,,,,,,,,,,,,,,,,,,,,,,,,,,,,,,,,,,,,,,,,,,,,,
,5b3a48e8b6b4410001613060,001,2022-04-29_03h33.53.658,classification_task,2021.2.3,Win32,164.9892757,5b3a48e8b6b4410001613060,626b377229c10585ec392f89,626b4e1360fbb07b480ed873,,,,,,,,,,,,,,space,116.6005,4,0,4,0,1,,,,,,,,,,,,,,,,,,,,,,,,,,,,,,,,,,,,,,,,,,,,,,,,
,5b3a48e8b6b4410001613060,001,2022-04-29_03h33.53.658,classification_task,2021.2.3,Win32,164.9892757,5b3a48e8b6b4410001613060,626b377229c10585ec392f89,626b4e1360fbb07b480ed873,,,,,,,,,,,,,,,,,,,,,space,215.2937,a,0,3.1658,"[""0.147"",""0.688"",""0.648"",""0.739""]","[1,0,1,1]",0,0,0,0,1,1,1,,,1,FALSE,,,,,,,,,,,,,,,,,,,,,,,,,,,,,,
,5b3a48e8b6b4410001613060,001,2022-04-29_03h33.53.658,classification_task,2021.2.3,Win32,164.9892757,5b3a48e8b6b4410001613060,626b377229c10585ec392f89,626b4e1360fbb07b480ed873,,,,,,,,,,,,,,,,,,,,,,,l,0,5.1781,"[""0.227"",""0.565"",""0.847"",""0.058""]","[1,1,1,0]",0,1,1,1,1,0,0,,,1,FALSE,,,,,,,,,,,,,,,,,,,,,,,,,,,,,,
,5b3a48e8b6b4410001613060,001,2022-04-29_03h33.53.658,classification_task,2021.2.3,Win32,164.9892757,5b3a48e8b6b4410001613060,626b377229c10585ec392f89,626b4e1360fbb07b480ed873,,,,,,,,,,,,,,,,,,,,,,,a,0,5.2849,"[""0.097"",""0.036"",""0.506"",""0.807""]","[1,0,1,1]",0,2,2,2,1,1,0,,,1,FALSE,,,,,,,,,,,,,,,,,,,,,,,,,,,,,,
,5b3a48e8b6b4410001613060,001,2022-04-29_03h33.53.658,classification_task,2021.2.3,Win32,164.9892757,5b3a48e8b6b4410001613060,626b377229c10585ec392f89,626b4e1360fbb07b480ed873,,,,,,,,,,,,,,,,,,,,,,,a,1,3.3481,"[""0.701"",""0.466"",""0.882"",""0.975""]","[0,1,1,1]",0,3,3,3,1,0,1,,,1,FALSE,,,,,,,,,,,,,,,,,,,,,,,,,,,,,,
,5b3a48e8b6b4410001613060,001,2022-04-29_03h33.53.658,classification_task,2021.2.3,Win32,164.9892757,5b3a48e8b6b4410001613060,626b377229c10585ec392f89,626b4e1360fbb07b480ed873,,,,,,,,,,,,,,,,,,,,,,,l,1,4.0693,"[""0.097"",""0.191"",""0.506"",""0.396""]","[1,1,1,0]",0,4,4,4,1,1,0,,,1,FALSE,,,,,,,,,,,,,,,,,,,,,,,,,,,,,,
,5b3a48e8b6b4410001613060,001,2022-04-29_03h33.53.658,classification_task,2021.2.3,Win32,164.9892757,5b3a48e8b6b4410001613060,626b377229c10585ec392f89,626b4e1360fbb07b480ed873,,,,,,,,,,,,,,,,,,,,,,,a,1,3.8937,"[""0.272"",""0.384"",""0.882"",""0.975""]","[1,0,1,1]",0,5,5,5,1,0,1,,,1,FALSE,,,,,,,,,,,,,,,,,,,,,,,,,,,,,,
,5b3a48e8b6b4410001613060,001,2022-04-29_03h33.53.658,classification_task,2021.2.3,Win32,164.9892757,5b3a48e8b6b4410001613060,626b377229c10585ec392f89,626b4e1360fbb07b480ed873,,,,,,,,,,,,,,,,,,,,,,,a,1,1.9102,"[""0.272"",""0.466"",""0.358"",""0.975""]","[1,1,0,1]",0,6,6,6,1,0,1,,,1,FALSE,,,,,,,,,,,,,,,,,,,,,,,,,,,,,,
,5b3a48e8b6b4410001613060,001,2022-04-29_03h33.53.658,classification_task,2021.2.3,Win32,164.9892757,5b3a48e8b6b4410001613060,626b377229c10585ec392f89,626b4e1360fbb07b480ed873,,,,,,,,,,,,,,,,,,,,,,,a,1,3.4303,"[""0.272"",""0.466"",""0.882"",""0.430""]","[1,1,1,0]",0,7,7,7,1,0,1,,,1,FALSE,,,,,,,,,,,,,,,,,,,,,,,,,,,,,,
,5b3a48e8b6b4410001613060,001,2022-04-29_03h33.53.658,classification_task,2021.2.3,Win32,164.9892757,5b3a48e8b6b4410001613060,626b377229c10585ec392f89,626b4e1360fbb07b480ed873,,,,,,,,,,,,,,,,,,,,,,,l,1,2.0607,"[""0.358"",""0.323"",""0.648"",""0.739""]","[0,1,1,1]",0,8,8,8,1,1,1,,,1,FALSE,,,,,,,,,,,,,,,,,,,,,,,,,,,,,,
,5b3a48e8b6b4410001613060,001,2022-04-29_03h33.53.658,classification_task,2021.2.3,Win32,164.9892757,5b3a48e8b6b4410001613060,626b377229c10585ec392f89,626b4e1360fbb07b480ed873,,,,,,,,,,,,,,,,,,,,,,,l,0,4.3482,"[""0.358"",""0.565"",""0.847"",""0.929""]","[0,1,1,1]",0,9,9,9,1,0,0,,,1,FALSE,,,,,,,,,,,,,,,,,,,,,,,,,,,,,,
,5b3a48e8b6b4410001613060,001,2022-04-29_03h33.53.658,classification_task,2021.2.3,Win32,164.9892757,5b3a48e8b6b4410001613060,626b377229c10585ec392f89,626b4e1360fbb07b480ed873,,,,,,,,,,,,,,,,,,,,,,,l,1,2.4092,"[""0.147"",""0.323"",""0.384"",""0.739""]","[1,1,0,1]",0,10,10,10,1,1,1,,,1,FALSE,,,,,,,,,,,,,,,,,,,,,,,,,,,,,,
,5b3a48e8b6b4410001613060,001,2022-04-29_03h33.53.658,classification_task,2021.2.3,Win32,164.9892757,5b3a48e8b6b4410001613060,626b377229c10585ec392f89,626b4e1360fbb07b480ed873,,,,,,,,,,,,,,,,,,,,,,,a,1,3.0593,"[""0.227"",""0.565"",""0.372"",""0.929""]","[1,1,0,1]",0,11,11,11,1,0,0,,,1,FALSE,,,,,,,,,,,,,,,,,,,,,,,,,,,,,,
,5b3a48e8b6b4410001613060,001,2022-04-29_03h33.53.658,classification_task,2021.2.3,Win32,164.9892757,5b3a48e8b6b4410001613060,626b377229c10585ec392f89,626b4e1360fbb07b480ed873,,,,,,,,,,,,,,,,,,,,,,,l,1,1.6008,"[""0.423"",""0.191"",""0.506"",""0.807""]","[0,1,1,1]",0,12,12,12,1,1,0,,,1,FALSE,,,,,,,,,,,,,,,,,,,,,,,,,,,,,,
,5b3a48e8b6b4410001613060,001,2022-04-29_03h33.53.658,classification_task,2021.2.3,Win32,164.9892757,5b3a48e8b6b4410001613060,626b377229c10585ec392f89,626b4e1360fbb07b480ed873,,,,,,,,,,,,,,,,,,,,,,,a,1,1.1299,"[""0.227"",""0.384"",""0.847"",""0.929""]","[1,0,1,1]",0,13,13,13,1,0,0,,,1,FALSE,,,,,,,,,,,,,,,,,,,,,,,,,,,,,,
,5b3a48e8b6b4410001613060,001,2022-04-29_03h33.53.658,classification_task,2021.2.3,Win32,164.9892757,5b3a48e8b6b4410001613060,626b377229c10585ec392f89,626b4e1360fbb07b480ed873,,,,,,,,,,,,,,,,,,,,,,,l,1,0.9827,"[""0.097"",""0.191"",""0.384"",""0.807""]","[1,1,0,1]",0,14,14,14,1,1,0,,,1,FALSE,,,,,,,,,,,,,,,,,,,,,,,,,,,,,,
,5b3a48e8b6b4410001613060,001,2022-04-29_03h33.53.658,classification_task,2021.2.3,Win32,164.9892757,5b3a48e8b6b4410001613060,626b377229c10585ec392f89,626b4e1360fbb07b480ed873,,,,,,,,,,,,,,,,,,,,,,,a,0,3.5604,"[""0.147"",""0.323"",""0.648"",""0.048""]","[1,1,1,0]",0,15,15,15,1,1,1,,,1,FALSE,,,,,,,,,,,,,,,,,,,,,,,,,,,,,,
,5b3a48e8b6b4410001613060,001,2022-04-29_03h33.53.658,classification_task,2021.2.3,Win32,164.9892757,5b3a48e8b6b4410001613060,626b377229c10585ec392f89,626b4e1360fbb07b480ed873,,,,,,,,,,,,,,,,,,,,,,,a,1,6.6498,"[""0.048"",""0.466"",""0.882"",""0.975""]","[0,1,1,1]",0,16,16,16,1,0,1,,,1,FALSE,,,,,,,,,,,,,,,,,,,,,,,,,,,,,,
,5b3a48e8b6b4410001613060,001,2022-04-29_03h33.53.658,classification_task,2021.2.3,Win32,164.9892757,5b3a48e8b6b4410001613060,626b377229c10585ec392f89,626b4e1360fbb07b480ed873,,,,,,,,,,,,,,,,,,,,,,,a,1,1.6888,"[""0.227"",""0.565"",""0.058"",""0.929""]","[1,1,0,1]",0,17,17,17,1,0,0,,,1,FALSE,,,,,,,,,,,,,,,,,,,,,,,,,,,,,,
,5b3a48e8b6b4410001613060,001,2022-04-29_03h33.53.658,classification_task,2021.2.3,Win32,164.9892757,5b3a48e8b6b4410001613060,626b377229c10585ec392f89,626b4e1360fbb07b480ed873,,,,,,,,,,,,,,,,,,,,,,,l,1,2.1522,"[""0.097"",""0.191"",""0.036"",""0.807""]","[1,1,0,1]",0,18,18,18,1,1,0,,,1,FALSE,,,,,,,,,,,,,,,,,,,,,,,,,,,,,,
,5b3a48e8b6b4410001613060,001,2022-04-29_03h33.53.658,classification_task,2021.2.3,Win32,164.9892757,5b3a48e8b6b4410001613060,626b377229c10585ec392f89,626b4e1360fbb07b480ed873,,,,,,,,,,,,,,,,,,,,,,,a,1,1.5248,"[""0.272"",""0.466"",""0.374"",""0.975""]","[1,1,0,1]",0,19,19,19,1,0,1,,,1,FALSE,,,,,,,,,,,,,,,,,,,,,,,,,,,,,,
,5b3a48e8b6b4410001613060,001,2022-04-29_03h33.53.658,classification_task,2021.2.3,Win32,164.9892757,5b3a48e8b6b4410001613060,626b377229c10585ec392f89,626b4e1360fbb07b480ed873,,,,,,,,,,,,,,,,,,,,,,,a,1,4.6627,"[""0.227"",""0.565"",""0.847"",""0.423""]","[1,1,1,0]",0,20,20,20,1,0,0,,,1,FALSE,,,,,,,,,,,,,,,,,,,,,,,,,,,,,,
,5b3a48e8b6b4410001613060,001,2022-04-29_03h33.53.658,classification_task,2021.2.3,Win32,164.9892757,5b3a48e8b6b4410001613060,626b377229c10585ec392f89,626b4e1360fbb07b480ed873,,,,,,,,,,,,,,,,,,,,,,,a,1,3.6581,"[""0.272"",""0.058"",""0.882"",""0.975""]","[1,0,1,1]",0,21,21,21,1,0,1,,,1,FALSE,,,,,,,,,,,,,,,,,,,,,,,,,,,,,,
,5b3a48e8b6b4410001613060,001,2022-04-29_03h33.53.658,classification_task,2021.2.3,Win32,164.9892757,5b3a48e8b6b4410001613060,626b377229c10585ec392f89,626b4e1360fbb07b480ed873,,,,,,,,,,,,,,,,,,,,,,,l,1,1.9788,"[""0.361"",""0.191"",""0.506"",""0.807""]","[0,1,1,1]",0,22,22,22,1,1,0,,,1,FALSE,,,,,,,,,,,,,,,,,,,,,,,,,,,,,,
,5b3a48e8b6b4410001613060,001,2022-04-29_03h33.53.658,classification_task,2021.2.3,Win32,164.9892757,5b3a48e8b6b4410001613060,626b377229c10585ec392f89,626b4e1360fbb07b480ed873,,,,,,,,,,,,,,,,,,,,,,,a,0,2.633,"[""0.147"",""0.323"",""0.358"",""0.739""]","[1,1,0,1]",0,23,23,23,1,1,1,,,1,FALSE,,,,,,,,,,,,,,,,,,,,,,,,,,,,,,
,5b3a48e8b6b4410001613060,001,2022-04-29_03h33.53.658,classification_task,2021.2.3,Win32,164.9892757,5b3a48e8b6b4410001613060,626b377229c10585ec392f89,626b4e1360fbb07b480ed873,,,,,,,,,,,,,,,,,,,,,,,l,0,1.3514,"[""0.272"",""0.466"",""0.882"",""0.361""]","[1,1,1,0]",0,24,24,24,1,0,1,,,1,FALSE,,,,,,,,,,,,,,,,,,,,,,,,,,,,,,
,5b3a48e8b6b4410001613060,001,2022-04-29_03h33.53.658,classification_task,2021.2.3,Win32,164.9892757,5b3a48e8b6b4410001613060,626b377229c10585ec392f89,626b4e1360fbb07b480ed873,,,,,,,,,,,,,,,,,,,,,,,l,1,2.8493,"[""0.147"",""0.374"",""0.648"",""0.739""]","[1,0,1,1]",0,25,25,25,1,1,1,,,1,FALSE,,,,,,,,,,,,,,,,,,,,,,,,,,,,,,
,5b3a48e8b6b4410001613060,001,2022-04-29_03h33.53.658,classification_task,2021.2.3,Win32,164.9892757,5b3a48e8b6b4410001613060,626b377229c10585ec392f89,626b4e1360fbb07b480ed873,,,,,,,,,,,,,,,,,,,,,,,l,1,1.2004,"[""0.147"",""0.323"",""0.648"",""0.358""]","[1,1,1,0]",0,26,26,26,1,1,1,,,1,FALSE,,,,,,,,,,,,,,,,,,,,,,,,,,,,,,
,5b3a48e8b6b4410001613060,001,2022-04-29_03h33.53.658,classification_task,2021.2.3,Win32,164.9892757,5b3a48e8b6b4410001613060,626b377229c10585ec392f89,626b4e1360fbb07b480ed873,,,,,,,,,,,,,,,,,,,,,,,l,1,3.5203,"[""0.097"",""0.191"",""0.506"",""0.423""]","[1,1,1,0]",0,27,27,27,1,1,0,,,1,FALSE,,,,,,,,,,,,,,,,,,,,,,,,,,,,,,
,5b3a48e8b6b4410001613060,001,2022-04-29_03h33.53.658,classification_task,2021.2.3,Win32,164.9892757,5b3a48e8b6b4410001613060,626b377229c10585ec392f89,626b4e1360fbb07b480ed873,,,,,,,,,,,,,,,,,,,,,,,l,1,1.7045,"[""0.097"",""0.421"",""0.506"",""0.807""]","[1,0,1,1]",0,28,28,28,1,1,0,,,1,FALSE,,,,,,,,,,,,,,,,,,,,,,,,,,,,,,
,5b3a48e8b6b4410001613060,001,2022-04-29_03h33.53.658,classification_task,2021.2.3,Win32,164.9892757,5b3a48e8b6b4410001613060,626b377229c10585ec392f89,626b4e1360fbb07b480ed873,,,,,,,,,,,,,,,,,,,,,,,a,0,1.6597,"[""0.688"",""0.323"",""0.648"",""0.739""]","[0,1,1,1]",0,29,29,29,1,1,1,,,1,FALSE,,,,,,,,,,,,,,,,,,,,,,,,,,,,,,
,5b3a48e8b6b4410001613060,001,2022-04-29_03h33.53.658,classification_task,2021.2.3,Win32,164.9892757,5b3a48e8b6b4410001613060,626b377229c10585ec392f89,626b4e1360fbb07b480ed873,,,,,,,,,,,,,,,,,,,,,,,a,1,1.6694,"[""0.227"",""0.423"",""0.847"",""0.929""]","[1,0,1,1]",0,30,30,30,1,0,0,,,1,FALSE,,,,,,,,,,,,,,,,,,,,,,,,,,,,,,
,5b3a48e8b6b4410001613060,001,2022-04-29_03h33.53.658,classification_task,2021.2.3,Win32,164.9892757,5b3a48e8b6b4410001613060,626b377229c10585ec392f89,626b4e1360fbb07b480ed873,,,,,,,,,,,,,,,,,,,,,,,l,0,3.9837,"[""0.421"",""0.565"",""0.847"",""0.929""]","[0,1,1,1]",0,31,31,31,1,0,0,,,1,FALSE,,,,,,,,,,,,,,,,,,,,,,,,,,,,,,
,5b3a48e8b6b4410001613060,001,2022-04-29_03h33.53.658,classification_task,2021.2.3,Win32,164.9892757,5b3a48e8b6b4410001613060,626b377229c10585ec392f89,626b4e1360fbb07b480ed873,,,,,,,,,,,,,,,,,,,,,,,a,1,1.9377,"[""0.048"",""0.466"",""0.882"",""0.975""]","[0,1,1,1]",0,32,32,32,1,0,1,,,1,FALSE,,,,,,,,,,,,,,,,,,,,,,,,,,,,,,
,5b3a48e8b6b4410001613060,001,2022-04-29_03h33.53.658,classification_task,2021.2.3,Win32,164.9892757,5b3a48e8b6b4410001613060,626b377229c10585ec392f89,626b4e1360fbb07b480ed873,,,,,,,,,,,,,,,,,,,,,,,l,0,1.4849,"[""0.227"",""0.058"",""0.847"",""0.929""]","[1,0,1,1]",0,33,33,33,1,0,0,,,1,FALSE,,,,,,,,,,,,,,,,,,,,,,,,,,,,,,
,5b3a48e8b6b4410001613060,001,2022-04-29_03h33.53.658,classification_task,2021.2.3,Win32,164.9892757,5b3a48e8b6b4410001613060,626b377229c10585ec392f89,626b4e1360fbb07b480ed873,,,,,,,,,,,,,,,,,,,,,,,l,1,2.1521,"[""0.396"",""0.191"",""0.506"",""0.807""]","[0,1,1,1]",0,34,34,34,1,1,0,,,1,FALSE,,,,,,,,,,,,,,,,,,,,,,,,,,,,,,
,5b3a48e8b6b4410001613060,001,2022-04-29_03h33.53.658,classification_task,2021.2.3,Win32,164.9892757,5b3a48e8b6b4410001613060,626b377229c10585ec392f89,626b4e1360fbb07b480ed873,,,,,,,,,,,,,,,,,,,,,,,a,1,1.1334,"[""0.272"",""0.430"",""0.882"",""0.975""]","[1,0,1,1]",0,35,35,35,1,0,1,,,1,FALSE,,,,,,,,,,,,,,,,,,,,,,,,,,,,,,
,5b3a48e8b6b4410001613060,001,2022-04-29_03h33.53.658,classification_task,2021.2.3,Win32,164.9892757,5b3a48e8b6b4410001613060,626b377229c10585ec392f89,626b4e1360fbb07b480ed873,,,,,,,,,,,,,,,,,,,,,,,l,1,2.1459,"[""0.147"",""0.323"",""0.374"",""0.739""]","[1,1,0,1]",0,36,36,36,1,1,1,,,1,FALSE,,,,,,,,,,,,,,,,,,,,,,,,,,,,,,
,5b3a48e8b6b4410001613060,001,2022-04-29_03h33.53.658,classification_task,2021.2.3,Win32,164.9892757,5b3a48e8b6b4410001613060,626b377229c10585ec392f89,626b4e1360fbb07b480ed873,,,,,,,,,,,,,,,,,,,,,,,a,1,0.8245,"[""0.272"",""0.466"",""0.358"",""0.975""]","[1,1,0,1]",0,37,37,37,1,0,1,,,1,FALSE,,,,,,,,,,,,,,,,,,,,,,,,,,,,,,
,5b3a48e8b6b4410001613060,001,2022-04-29_03h33.53.658,classification_task,2021.2.3,Win32,164.9892757,5b3a48e8b6b4410001613060,626b377229c10585ec392f89,626b4e1360fbb07b480ed873,,,,,,,,,,,,,,,,,,,,,,,l,1,1.1275,"[""0.147"",""0.372"",""0.648"",""0.739""]","[1,0,1,1]",0,38,38,38,1,1,1,,,1,FALSE,,,,,,,,,,,,,,,,,,,,,,,,,,,,,,
,5b3a48e8b6b4410001613060,001,2022-04-29_03h33.53.658,classification_task,2021.2.3,Win32,164.9892757,5b3a48e8b6b4410001613060,626b377229c10585ec392f89,626b4e1360fbb07b480ed873,,,,,,,,,,,,,,,,,,,,,,,l,1,1.7025,"[""0.384"",""0.323"",""0.648"",""0.739""]","[0,1,1,1]",0,39,39,39,1,1,1,,,1,FALSE,,,,,,,,,,,,,,,,,,,,,,,,,,,,,,
,5b3a48e8b6b4410001613060,001,2022-04-29_03h33.53.658,classification_task,2021.2.3,Win32,164.9892757,5b3a48e8b6b4410001613060,626b377229c10585ec392f89,626b4e1360fbb07b480ed873,,,,,,,,,,,,,,,,,,,,,,,a,0,1.3765,"[""0.147"",""0.323"",""0.648"",""0.058""]","[1,1,1,0]",0,40,40,40,1,1,1,,,1,FALSE,,,,,,,,,,,,,,,,,,,,,,,,,,,,,,
,5b3a48e8b6b4410001613060,001,2022-04-29_03h33.53.658,classification_task,2021.2.3,Win32,164.9892757,5b3a48e8b6b4410001613060,626b377229c10585ec392f89,626b4e1360fbb07b480ed873,,,,,,,,,,,,,,,,,,,,,,,a,1,1.4484,"[""0.272"",""0.466"",""0.882"",""0.608""]","[1,1,1,0]",0,41,41,41,1,0,1,,,1,FALSE,,,,,,,,,,,,,,,,,,,,,,,,,,,,,,
,5b3a48e8b6b4410001613060,001,2022-04-29_03h33.53.658,classification_task,2021.2.3,Win32,164.9892757,5b3a48e8b6b4410001613060,626b377229c10585ec392f89,626b4e1360fbb07b480ed873,,,,,,,,,,,,,,,,,,,,,,,a,0,2.2849,"[""0.097"",""0.372"",""0.506"",""0.807""]","[1,0,1,1]",0,42,42,42,1,1,0,,,1,FALSE,,,,,,,,,,,,,,,,,,,,,,,,,,,,,,
,5b3a48e8b6b4410001613060,001,2022-04-29_03h33.53.658,classification_task,2021.2.3,Win32,164.9892757,5b3a48e8b6b4410001613060,626b377229c10585ec392f89,626b4e1360fbb07b480ed873,,,,,,,,,,,,,,,,,,,,,,,a,0,2.0612,"[""0.097"",""0.191"",""0.506"",""0.396""]","[1,1,1,0]",0,43,43,43,1,1,0,,,1,FALSE,,,,,,,,,,,,,,,,,,,,,,,,,,,,,,
,5b3a48e8b6b4410001613060,001,2022-04-29_03h33.53.658,classification_task,2021.2.3,Win32,164.9892757,5b3a48e8b6b4410001613060,626b377229c10585ec392f89,626b4e1360fbb07b480ed873,,,,,,,,,,,,,,,,,,,,,,,a,0,1.7877,"[""0.097"",""0.191"",""0.396"",""0.807""]","[1,1,0,1]",0,44,44,44,1,1,0,,,1,FALSE,,,,,,,,,,,,,,,,,,,,,,,,,,,,,,
,5b3a48e8b6b4410001613060,001,2022-04-29_03h33.53.658,classification_task,2021.2.3,Win32,164.9892757,5b3a48e8b6b4410001613060,626b377229c10585ec392f89,626b4e1360fbb07b480ed873,,,,,,,,,,,,,,,,,,,,,,,l,0,1.3216,"[""0.608"",""0.565"",""0.847"",""0.929""]","[0,1,1,1]",0,45,45,45,1,0,0,,,1,FALSE,,,,,,,,,,,,,,,,,,,,,,,,,,,,,,
,5b3a48e8b6b4410001613060,001,2022-04-29_03h33.53.658,classification_task,2021.2.3,Win32,164.9892757,5b3a48e8b6b4410001613060,626b377229c10585ec392f89,626b4e1360fbb07b480ed873,,,,,,,,,,,,,,,,,,,,,,,l,0,4.9999,"[""0.227"",""0.565"",""0.847"",""0.058""]","[1,1,1,0]",0,46,46,46,1,0,0,,,1,FALSE,,,,,,,,,,,,,,,,,,,,,,,,,,,,,,
,5b3a48e8b6b4410001613060,001,2022-04-29_03h33.53.658,classification_task,2021.2.3,Win32,164.9892757,5b3a48e8b6b4410001613060,626b377229c10585ec392f89,626b4e1360fbb07b480ed873,,,,,,,,,,,,,,,,,,,,,,,a,1,0.9583,"[""0.227"",""0.565"",""0.374"",""0.929""]","[1,1,0,1]",0,47,47,47,1,0,0,,,1,FALSE,,,,,,,,,,,,,,,,,,,,,,,,,,,,,,
,5b3a48e8b6b4410001613060,001,2022-04-29_03h33.53.658,classification_task,2021.2.3,Win32,164.9892757,5b3a48e8b6b4410001613060,626b377229c10585ec392f89,626b4e1360fbb07b480ed873,,,,,,,,,,,,,,,,,,,,,,,a,1,1.1272,"[""0.272"",""0.466"",""0.372"",""0.975""]","[1,1,0,1]",0,48,48,48,1,0,1,,,1,FALSE,,,,,,,,,,,,,,,,,,,,,,,,,,,,,,
,5b3a48e8b6b4410001613060,001,2022-04-29_03h33.53.658,classification_task,2021.2.3,Win32,164.9892757,5b3a48e8b6b4410001613060,626b377229c10585ec392f89,626b4e1360fbb07b480ed873,,,,,,,,,,,,,,,,,,,,,,,a,1,0.7824,"[""0.272"",""0.384"",""0.882"",""0.975""]","[1,0,1,1]",0,49,49,49,1,0,1,,,1,FALSE,,,,,,,,,,,,,,,,,,,,,,,,,,,,,,
,5b3a48e8b6b4410001613060,001,2022-04-29_03h33.53.658,classification_task,2021.2.3,Win32,164.9892757,5b3a48e8b6b4410001613060,626b377229c10585ec392f89,626b4e1360fbb07b480ed873,,,,,,,,,,,,,,,,,,,,,,,l,0,2.2479,"[""0.430"",""0.565"",""0.847"",""0.929""]","[0,1,1,1]",0,50,50,50,1,0,0,,,1,FALSE,,,,,,,,,,,,,,,,,,,,,,,,,,,,,,
,5b3a48e8b6b4410001613060,001,2022-04-29_03h33.53.658,classification_task,2021.2.3,Win32,164.9892757,5b3a48e8b6b4410001613060,626b377229c10585ec392f89,626b4e1360fbb07b480ed873,,,,,,,,,,,,,,,,,,,,,,,l,1,2.7577,"[""0.147"",""0.384"",""0.648"",""0.739""]","[1,0,1,1]",0,51,51,51,1,1,1,,,1,FALSE,,,,,,,,,,,,,,,,,,,,,,,,,,,,,,
,5b3a48e8b6b4410001613060,001,2022-04-29_03h33.53.658,classification_task,2021.2.3,Win32,164.9892757,5b3a48e8b6b4410001613060,626b377229c10585ec392f89,626b4e1360fbb07b480ed873,,,,,,,,,,,,,,,,,,,,,,,l,1,1.7033,"[""0.430"",""0.191"",""0.506"",""0.807""]","[0,1,1,1]",0,52,52,52,1,1,0,,,1,FALSE,,,,,,,,,,,,,,,,,,,,,,,,,,,,,,
,5b3a48e8b6b4410001613060,001,2022-04-29_03h33.53.658,classification_task,2021.2.3,Win32,164.9892757,5b3a48e8b6b4410001613060,626b377229c10585ec392f89,626b4e1360fbb07b480ed873,,,,,,,,,,,,,,,,,,,,,,,a,0,1.5282,"[""0.147"",""0.323"",""0.648"",""0.358""]","[1,1,1,0]",0,53,53,53,1,1,1,,,1,FALSE,,,,,,,,,,,,,,,,,,,,,,,,,,,,,,
,5b3a48e8b6b4410001613060,001,2022-04-29_03h33.53.658,classification_task,2021.2.3,Win32,164.9892757,5b3a48e8b6b4410001613060,626b377229c10585ec392f89,626b4e1360fbb07b480ed873,,,,,,,,,,,,,,,,,,,,,,,l,0,1.8547,"[""0.227"",""0.565"",""0.847"",""0.372""]","[1,1,1,0]",0,54,54,54,1,0,0,,,1,FALSE,,,,,,,,,,,,,,,,,,,,,,,,,,,,,,
,5b3a48e8b6b4410001613060,001,2022-04-29_03h33.53.658,classification_task,2021.2.3,Win32,164.9892757,5b3a48e8b6b4410001613060,626b377229c10585ec392f89,626b4e1360fbb07b480ed873,,,,,,,,,,,,,,,,,,,,,,,a,1,2.455,"[""0.272"",""0.466"",""0.882"",""0.058""]","[1,1,1,0]",0,55,55,55,1,0,1,,,1,FALSE,,,,,,,,,,,,,,,,,,,,,,,,,,,,,,
,5b3a48e8b6b4410001613060,001,2022-04-29_03h33.53.658,classification_task,2021.2.3,Win32,164.9892757,5b3a48e8b6b4410001613060,626b377229c10585ec392f89,626b4e1360fbb07b480ed873,,,,,,,,,,,,,,,,,,,,,,,a,0,2.1571,"[""0.421"",""0.323"",""0.648"",""0.739""]","[0,1,1,1]",0,56,56,56,1,1,1,,,1,FALSE,,,,,,,,,,,,,,,,,,,,,,,,,,,,,,
,5b3a48e8b6b4410001613060,001,2022-04-29_03h33.53.658,classification_task,2021.2.3,Win32,164.9892757,5b3a48e8b6b4410001613060,626b377229c10585ec392f89,626b4e1360fbb07b480ed873,,,,,,,,,,,,,,,,,,,,,,,l,1,2.2066,"[""0.097"",""0.191"",""0.048"",""0.807""]","[1,1,0,1]",0,57,57,57,1,1,0,,,1,FALSE,,,,,,,,,,,,,,,,,,,,,,,,,,,,,,
,5b3a48e8b6b4410001613060,001,2022-04-29_03h33.53.658,classification_task,2021.2.3,Win32,164.9892757,5b3a48e8b6b4410001613060,626b377229c10585ec392f89,626b4e1360fbb07b480ed873,,,,,,,,,,,,,,,,,,,,,,,l,1,1.4735,"[""0.097"",""0.191"",""0.506"",""0.688""]","[1,1,1,0]",0,58,58,58,1,1,0,,,1,FALSE,,,,,,,,,,,,,,,,,,,,,,,,,,,,,,
,5b3a48e8b6b4410001613060,001,2022-04-29_03h33.53.658,classification_task,2021.2.3,Win32,164.9892757,5b3a48e8b6b4410001613060,626b377229c10585ec392f89,626b4e1360fbb07b480ed873,,,,,,,,,,,,,,,,,,,,,,,a,1,1.9272,"[""0.227"",""0.565"",""0.608"",""0.929""]","[1,1,0,1]",0,59,59,59,1,0,0,,,1,FALSE,,,,,,,,,,,,,,,,,,,,,,,,,,,,,,
,5b3a48e8b6b4410001613060,001,2022-04-29_03h33.53.658,classification_task,2021.2.3,Win32,164.9892757,5b3a48e8b6b4410001613060,626b377229c10585ec392f89,626b4e1360fbb07b480ed873,,,,,,,,,,,,,,,,,,,,,,,a,1,1.1575,"[""0.227"",""0.358"",""0.847"",""0.929""]","[1,0,1,1]",0,60,60,60,1,0,0,,,1,FALSE,,,,,,,,,,,,,,,,,,,,,,,,,,,,,,
,5b3a48e8b6b4410001613060,001,2022-04-29_03h33.53.658,classification_task,2021.2.3,Win32,164.9892757,5b3a48e8b6b4410001613060,626b377229c10585ec392f89,626b4e1360fbb07b480ed873,,,,,,,,,,,,,,,,,,,,,,,l,1,2.7089,"[""0.147"",""0.323"",""0.058"",""0.739""]","[1,1,0,1]",0,61,61,61,1,1,1,,,1,FALSE,,,,,,,,,,,,,,,,,,,,,,,,,,,,,,
,5b3a48e8b6b4410001613060,001,2022-04-29_03h33.53.658,classification_task,2021.2.3,Win32,164.9892757,5b3a48e8b6b4410001613060,626b377229c10585ec392f89,626b4e1360fbb07b480ed873,,,,,,,,,,,,,,,,,,,,,,,a,1,1.158,"[""0.430"",""0.466"",""0.882"",""0.975""]","[0,1,1,1]",0,62,62,62,1,0,1,,,1,FALSE,,,,,,,,,,,,,,,,,,,,,,,,,,,,,,
,5b3a48e8b6b4410001613060,001,2022-04-29_03h33.53.658,classification_task,2021.2.3,Win32,164.9892757,5b3a48e8b6b4410001613060,626b377229c10585ec392f89,626b4e1360fbb07b480ed873,,,,,,,,,,,,,,,,,,,,,,,l,1,1.43,"[""0.097"",""0.430"",""0.506"",""0.807""]","[1,0,1,1]",0,63,63,63,1,1,0,,,1,FALSE,,,,,,,,,,,,,,,,,,,,,,,,,,,,,,
,5b3a48e8b6b4410001613060,001,2022-04-29_03h33.53.658,classification_task,2021.2.3,Win32,164.9892757,5b3a48e8b6b4410001613060,626b377229c10585ec392f89,626b4e1360fbb07b480ed873,,,,,,,,,,,,,,,,,,,,,,,,,,,,,,,,,,,,,,,0, ,,0,3.585390573,684.6025,0,0,0,0,1,2,1,,,,,,,,,,,,,,,,,
,5b3a48e8b6b4410001613060,001,2022-04-29_03h33.53.658,classification_task,2021.2.3,Win32,164.9892757,5b3a48e8b6b4410001613060,626b377229c10585ec392f89,626b4e1360fbb07b480ed873,,,,,,,,,,,,,,,,,,,,,,,,,,,,,,,,,,,,,,,1,  ,,0,5.887958064,688.0589,0,0,0,0,1,2,1,,,,,,,,,,,,,,,,,
,5b3a48e8b6b4410001613060,001,2022-04-29_03h33.53.658,classification_task,2021.2.3,Win32,164.9892757,5b3a48e8b6b4410001613060,626b377229c10585ec392f89,626b4e1360fbb07b480ed873,,,,,,,,,,,,,,,,,,,,,,,,,,,,,,,,,,,,,,,2,  ,,0,1.993189906,691.6988,0,0,0,0,1,2,1,,,,,,,,,,,,,,,,,
,5b3a48e8b6b4410001613060,001,2022-04-29_03h33.53.658,classification_task,2021.2.3,Win32,164.9892757,5b3a48e8b6b4410001613060,626b377229c10585ec392f89,626b4e1360fbb07b480ed873,,,,,,,,,,,,,,,,,,,,,,,,,,,,,,,,,,,,,,,,,,,,,0,0,0,0,1,,1,,,,,,,,,,,,,,,,,
,5b3a48e8b6b4410001613060,001,2022-04-29_03h33.53.658,classification_task,2021.2.3,Win32,164.9892757,5b3a48e8b6b4410001613060,626b377229c10585ec392f89,626b4e1360fbb07b480ed873,,,,,,,,,,,,,,,,,,,,,space,46.2666,l,1,2.2689,"[""0.097"",""0.191"",""0.358"",""0.807""]","[1,1,0,1]",0,0,0,0,1,1,0,,,1,FALSE,,,,,,,,,,,,,,,,,,,,,,,,,,,,,,
,5b3a48e8b6b4410001613060,001,2022-04-29_03h33.53.658,classification_task,2021.2.3,Win32,164.9892757,5b3a48e8b6b4410001613060,626b377229c10585ec392f89,626b4e1360fbb07b480ed873,,,,,,,,,,,,,,,,,,,,,,,l,1,1.2308,"[""0.097"",""0.191"",""0.506"",""0.384""]","[1,1,1,0]",0,1,1,1,1,1,0,,,1,FALSE,,,,,,,,,,,,,,,,,,,,,,,,,,,,,,
,5b3a48e8b6b4410001613060,001,2022-04-29_03h33.53.658,classification_task,2021.2.3,Win32,164.9892757,5b3a48e8b6b4410001613060,626b377229c10585ec392f89,626b4e1360fbb07b480ed873,,,,,,,,,,,,,,,,,,,,,,,a,1,2.2721,"[""0.272"",""0.048"",""0.882"",""0.975""]","[1,0,1,1]",0,2,2,2,1,0,1,,,1,FALSE,,,,,,,,,,,,,,,,,,,,,,,,,,,,,,
,5b3a48e8b6b4410001613060,001,2022-04-29_03h33.53.658,classification_task,2021.2.3,Win32,164.9892757,5b3a48e8b6b4410001613060,626b377229c10585ec392f89,626b4e1360fbb07b480ed873,,,,,,,,,,,,,,,,,,,,,,,a,1,1.2971,"[""0.430"",""0.466"",""0.882"",""0.975""]","[0,1,1,1]",0,3,3,3,1,0,1,,,1,FALSE,,,,,,,,,,,,,,,,,,,,,,,,,,,,,,
,5b3a48e8b6b4410001613060,001,2022-04-29_03h33.53.658,classification_task,2021.2.3,Win32,164.9892757,5b3a48e8b6b4410001613060,626b377229c10585ec392f89,626b4e1360fbb07b480ed873,,,,,,,,,,,,,,,,,,,,,,,l,0,2.3456,"[""0.384"",""0.565"",""0.847"",""0.929""]","[0,1,1,1]",0,4,4,4,1,0,0,,,1,FALSE,,,,,,,,,,,,,,,,,,,,,,,,,,,,,,
,5b3a48e8b6b4410001613060,001,2022-04-29_03h33.53.658,classification_task,2021.2.3,Win32,164.9892757,5b3a48e8b6b4410001613060,626b377229c10585ec392f89,626b4e1360fbb07b480ed873,,,,,,,,,,,,,,,,,,,,,,,a,0,1.9031,"[""0.701"",""0.191"",""0.506"",""0.807""]","[0,1,1,1]",0,5,5,5,1,1,0,,,1,FALSE,,,,,,,,,,,,,,,,,,,,,,,,,,,,,,
,5b3a48e8b6b4410001613060,001,2022-04-29_03h33.53.658,classification_task,2021.2.3,Win32,164.9892757,5b3a48e8b6b4410001613060,626b377229c10585ec392f89,626b4e1360fbb07b480ed873,,,,,,,,,,,,,,,,,,,,,,,l,1,1.5272,"[""0.147"",""0.323"",""0.648"",""0.374""]","[1,1,1,0]",0,6,6,6,1,1,1,,,1,FALSE,,,,,,,,,,,,,,,,,,,,,,,,,,,,,,
,5b3a48e8b6b4410001613060,001,2022-04-29_03h33.53.658,classification_task,2021.2.3,Win32,164.9892757,5b3a48e8b6b4410001613060,626b377229c10585ec392f89,626b4e1360fbb07b480ed873,,,,,,,,,,,,,,,,,,,,,,,a,0,1.521,"[""0.430"",""0.323"",""0.648"",""0.739""]","[0,1,1,1]",0,7,7,7,1,1,1,,,1,FALSE,,,,,,,,,,,,,,,,,,,,,,,,,,,,,,
,5b3a48e8b6b4410001613060,001,2022-04-29_03h33.53.658,classification_task,2021.2.3,Win32,164.9892757,5b3a48e8b6b4410001613060,626b377229c10585ec392f89,626b4e1360fbb07b480ed873,,,,,,,,,,,,,,,,,,,,,,,a,1,2.7977,"[""0.227"",""0.565"",""0.847"",""0.701""]","[1,1,1,0]",0,8,8,8,1,0,0,,,1,FALSE,,,,,,,,,,,,,,,,,,,,,,,,,,,,,,
,5b3a48e8b6b4410001613060,001,2022-04-29_03h33.53.658,classification_task,2021.2.3,Win32,164.9892757,5b3a48e8b6b4410001613060,626b377229c10585ec392f89,626b4e1360fbb07b480ed873,,,,,,,,,,,,,,,,,,,,,,,a,0,1.9131,"[""0.147"",""0.323"",""0.688"",""0.739""]","[1,1,0,1]",0,9,9,9,1,1,1,,,1,FALSE,,,,,,,,,,,,,,,,,,,,,,,,,,,,,,
,5b3a48e8b6b4410001613060,001,2022-04-29_03h33.53.658,classification_task,2021.2.3,Win32,164.9892757,5b3a48e8b6b4410001613060,626b377229c10585ec392f89,626b4e1360fbb07b480ed873,,,,,,,,,,,,,,,,,,,,,,,a,1,6.1513,"[""0.272"",""0.466"",""0.882"",""0.423""]","[1,1,1,0]",0,10,10,10,1,0,1,,,1,FALSE,,,,,,,,,,,,,,,,,,,,,,,,,,,,,,
,5b3a48e8b6b4410001613060,001,2022-04-29_03h33.53.658,classification_task,2021.2.3,Win32,164.9892757,5b3a48e8b6b4410001613060,626b377229c10585ec392f89,626b4e1360fbb07b480ed873,,,,,,,,,,,,,,,,,,,,,,,l,1,1.0729,"[""0.147"",""0.396"",""0.648"",""0.739""]","[1,0,1,1]",0,11,11,11,1,1,1,,,1,FALSE,,,,,,,,,,,,,,,,,,,,,,,,,,,,,,
,5b3a48e8b6b4410001613060,001,2022-04-29_03h33.53.658,classification_task,2021.2.3,Win32,164.9892757,5b3a48e8b6b4410001613060,626b377229c10585ec392f89,626b4e1360fbb07b480ed873,,,,,,,,,,,,,,,,,,,,,,,a,0,1.6548,"[""0.097"",""0.374"",""0.506"",""0.807""]","[1,0,1,1]",0,12,12,12,1,1,0,,,1,FALSE,,,,,,,,,,,,,,,,,,,,,,,,,,,,,,
,5b3a48e8b6b4410001613060,001,2022-04-29_03h33.53.658,classification_task,2021.2.3,Win32,164.9892757,5b3a48e8b6b4410001613060,626b377229c10585ec392f89,626b4e1360fbb07b480ed873,,,,,,,,,,,,,,,,,,,,,,,a,1,1.1211,"[""0.272"",""0.466"",""0.396"",""0.975""]","[1,1,0,1]",0,13,13,13,1,0,1,,,1,FALSE,,,,,,,,,,,,,,,,,,,,,,,,,,,,,,
,5b3a48e8b6b4410001613060,001,2022-04-29_03h33.53.658,classification_task,2021.2.3,Win32,164.9892757,5b3a48e8b6b4410001613060,626b377229c10585ec392f89,626b4e1360fbb07b480ed873,,,,,,,,,,,,,,,,,,,,,,,a,1,1.5387,"[""0.227"",""0.565"",""0.374"",""0.929""]","[1,1,0,1]",0,14,14,14,1,0,0,,,1,FALSE,,,,,,,,,,,,,,,,,,,,,,,,,,,,,,
,5b3a48e8b6b4410001613060,001,2022-04-29_03h33.53.658,classification_task,2021.2.3,Win32,164.9892757,5b3a48e8b6b4410001613060,626b377229c10585ec392f89,626b4e1360fbb07b480ed873,,,,,,,,,,,,,,,,,,,,,,,a,1,0.9457,"[""0.227"",""0.384"",""0.847"",""0.929""]","[1,0,1,1]",0,15,15,15,1,0,0,,,1,FALSE,,,,,,,,,,,,,,,,,,,,,,,,,,,,,,
,5b3a48e8b6b4410001613060,001,2022-04-29_03h33.53.658,classification_task,2021.2.3,Win32,164.9892757,5b3a48e8b6b4410001613060,626b377229c10585ec392f89,626b4e1360fbb07b480ed873,,,,,,,,,,,,,,,,,,,,,,,l,1,1.4907,"[""0.384"",""0.323"",""0.648"",""0.739""]","[0,1,1,1]",0,16,16,16,1,1,1,,,1,FALSE,,,,,,,,,,,,,,,,,,,,,,,,,,,,,,
,5b3a48e8b6b4410001613060,001,2022-04-29_03h33.53.658,classification_task,2021.2.3,Win32,164.9892757,5b3a48e8b6b4410001613060,626b377229c10585ec392f89,626b4e1360fbb07b480ed873,,,,,,,,,,,,,,,,,,,,,,,a,1,0.9275,"[""0.272"",""0.466"",""0.882"",""0.701""]","[1,1,1,0]",0,17,17,17,1,0,1,,,1,FALSE,,,,,,,,,,,,,,,,,,,,,,,,,,,,,,
,5b3a48e8b6b4410001613060,001,2022-04-29_03h33.53.658,classification_task,2021.2.3,Win32,164.9892757,5b3a48e8b6b4410001613060,626b377229c10585ec392f89,626b4e1360fbb07b480ed873,,,,,,,,,,,,,,,,,,,,,,,l,1,1.2121,"[""0.097"",""0.191"",""0.036"",""0.807""]","[1,1,0,1]",0,18,18,18,1,1,0,,,1,FALSE,,,,,,,,,,,,,,,,,,,,,,,,,,,,,,
,5b3a48e8b6b4410001613060,001,2022-04-29_03h33.53.658,classification_task,2021.2.3,Win32,164.9892757,5b3a48e8b6b4410001613060,626b377229c10585ec392f89,626b4e1360fbb07b480ed873,,,,,,,,,,,,,,,,,,,,,,,l,0,2.4118,"[""0.701"",""0.565"",""0.847"",""0.929""]","[0,1,1,1]",0,19,19,19,1,0,0,,,1,FALSE,,,,,,,,,,,,,,,,,,,,,,,,,,,,,,
,5b3a48e8b6b4410001613060,001,2022-04-29_03h33.53.658,classification_task,2021.2.3,Win32,164.9892757,5b3a48e8b6b4410001613060,626b377229c10585ec392f89,626b4e1360fbb07b480ed873,,,,,,,,,,,,,,,,,,,,,,,l,1,1.0546,"[""0.147"",""0.430"",""0.648"",""0.739""]","[1,0,1,1]",0,20,20,20,1,1,1,,,1,FALSE,,,,,,,,,,,,,,,,,,,,,,,,,,,,,,
,5b3a48e8b6b4410001613060,001,2022-04-29_03h33.53.658,classification_task,2021.2.3,Win32,164.9892757,5b3a48e8b6b4410001613060,626b377229c10585ec392f89,626b4e1360fbb07b480ed873,,,,,,,,,,,,,,,,,,,,,,,l,1,1.4365,"[""0.097"",""0.608"",""0.506"",""0.807""]","[1,0,1,1]",0,21,21,21,1,1,0,,,1,FALSE,,,,,,,,,,,,,,,,,,,,,,,,,,,,,,
,5b3a48e8b6b4410001613060,001,2022-04-29_03h33.53.658,classification_task,2021.2.3,Win32,164.9892757,5b3a48e8b6b4410001613060,626b377229c10585ec392f89,626b4e1360fbb07b480ed873,,,,,,,,,,,,,,,,,,,,,,,a,0,1.3092,"[""0.372"",""0.191"",""0.506"",""0.807""]","[0,1,1,1]",0,22,22,22,1,1,0,,,1,FALSE,,,,,,,,,,,,,,,,,,,,,,,,,,,,,,
,5b3a48e8b6b4410001613060,001,2022-04-29_03h33.53.658,classification_task,2021.2.3,Win32,164.9892757,5b3a48e8b6b4410001613060,626b377229c10585ec392f89,626b4e1360fbb07b480ed873,,,,,,,,,,,,,,,,,,,,,,,a,1,2.0244,"[""0.272"",""0.466"",""0.421"",""0.975""]","[1,1,0,1]",0,23,23,23,1,0,1,,,1,FALSE,,,,,,,,,,,,,,,,,,,,,,,,,,,,,,
,5b3a48e8b6b4410001613060,001,2022-04-29_03h33.53.658,classification_task,2021.2.3,Win32,164.9892757,5b3a48e8b6b4410001613060,626b377229c10585ec392f89,626b4e1360fbb07b480ed873,,,,,,,,,,,,,,,,,,,,,,,l,1,0.7337,"[""0.147"",""0.323"",""0.430"",""0.739""]","[1,1,0,1]",0,24,24,24,1,1,1,,,1,FALSE,,,,,,,,,,,,,,,,,,,,,,,,,,,,,,
,5b3a48e8b6b4410001613060,001,2022-04-29_03h33.53.658,classification_task,2021.2.3,Win32,164.9892757,5b3a48e8b6b4410001613060,626b377229c10585ec392f89,626b4e1360fbb07b480ed873,,,,,,,,,,,,,,,,,,,,,,,a,1,1.8847,"[""0.227"",""0.565"",""0.608"",""0.929""]","[1,1,0,1]",0,25,25,25,1,0,0,,,1,FALSE,,,,,,,,,,,,,,,,,,,,,,,,,,,,,,
,5b3a48e8b6b4410001613060,001,2022-04-29_03h33.53.658,classification_task,2021.2.3,Win32,164.9892757,5b3a48e8b6b4410001613060,626b377229c10585ec392f89,626b4e1360fbb07b480ed873,,,,,,,,,,,,,,,,,,,,,,,a,1,1.3275,"[""0.227"",""0.565"",""0.847"",""0.608""]","[1,1,1,0]",0,26,26,26,1,0,0,,,1,FALSE,,,,,,,,,,,,,,,,,,,,,,,,,,,,,,
,5b3a48e8b6b4410001613060,001,2022-04-29_03h33.53.658,classification_task,2021.2.3,Win32,164.9892757,5b3a48e8b6b4410001613060,626b377229c10585ec392f89,626b4e1360fbb07b480ed873,,,,,,,,,,,,,,,,,,,,,,,a,1,0.4911,"[""0.227"",""0.384"",""0.847"",""0.929""]","[1,0,1,1]",0,27,27,27,1,0,0,,,1,FALSE,,,,,,,,,,,,,,,,,,,,,,,,,,,,,,
,5b3a48e8b6b4410001613060,001,2022-04-29_03h33.53.658,classification_task,2021.2.3,Win32,164.9892757,5b3a48e8b6b4410001613060,626b377229c10585ec392f89,626b4e1360fbb07b480ed873,,,,,,,,,,,,,,,,,,,,,,,l,1,0.6782,"[""0.147"",""0.323"",""0.648"",""0.384""]","[1,1,1,0]",0,28,28,28,1,1,1,,,1,FALSE,,,,,,,,,,,,,,,,,,,,,,,,,,,,,,
,5b3a48e8b6b4410001613060,001,2022-04-29_03h33.53.658,classification_task,2021.2.3,Win32,164.9892757,5b3a48e8b6b4410001613060,626b377229c10585ec392f89,626b4e1360fbb07b480ed873,,,,,,,,,,,,,,,,,,,,,,,l,1,1.266,"[""0.097"",""0.191"",""0.506"",""0.384""]","[1,1,1,0]",0,29,29,29,1,1,0,,,1,FALSE,,,,,,,,,,,,,,,,,,,,,,,,,,,,,,
,5b3a48e8b6b4410001613060,001,2022-04-29_03h33.53.658,classification_task,2021.2.3,Win32,164.9892757,5b3a48e8b6b4410001613060,626b377229c10585ec392f89,626b4e1360fbb07b480ed873,,,,,,,,,,,,,,,,,,,,,,,a,1,1.3756,"[""0.358"",""0.466"",""0.882"",""0.975""]","[0,1,1,1]",0,30,30,30,1,0,1,,,1,FALSE,,,,,,,,,,,,,,,,,,,,,,,,,,,,,,
,5b3a48e8b6b4410001613060,001,2022-04-29_03h33.53.658,classification_task,2021.2.3,Win32,164.9892757,5b3a48e8b6b4410001613060,626b377229c10585ec392f89,626b4e1360fbb07b480ed873,,,,,,,,,,,,,,,,,,,,,,,a,1,1.3763,"[""0.272"",""0.701"",""0.882"",""0.975""]","[1,0,1,1]",0,31,31,31,1,0,1,,,1,FALSE,,,,,,,,,,,,,,,,,,,,,,,,,,,,,,
,5b3a48e8b6b4410001613060,001,2022-04-29_03h33.53.658,classification_task,2021.2.3,Win32,164.9892757,5b3a48e8b6b4410001613060,626b377229c10585ec392f89,626b4e1360fbb07b480ed873,,,,,,,,,,,,,,,,,,,,,,,l,1,2.3033,"[""0.147"",""0.323"",""0.648"",""0.688""]","[1,1,1,0]",0,32,32,32,1,1,1,,,1,FALSE,,,,,,,,,,,,,,,,,,,,,,,,,,,,,,
,5b3a48e8b6b4410001613060,001,2022-04-29_03h33.53.658,classification_task,2021.2.3,Win32,164.9892757,5b3a48e8b6b4410001613060,626b377229c10585ec392f89,626b4e1360fbb07b480ed873,,,,,,,,,,,,,,,,,,,,,,,a,0,1.8363,"[""0.097"",""0.358"",""0.506"",""0.807""]","[1,0,1,1]",0,33,33,33,1,1,0,,,1,FALSE,,,,,,,,,,,,,,,,,,,,,,,,,,,,,,
,5b3a48e8b6b4410001613060,001,2022-04-29_03h33.53.658,classification_task,2021.2.3,Win32,164.9892757,5b3a48e8b6b4410001613060,626b377229c10585ec392f89,626b4e1360fbb07b480ed873,,,,,,,,,,,,,,,,,,,,,,,l,1,1.5153,"[""0.097"",""0.191"",""0.506"",""0.608""]","[1,1,1,0]",0,34,34,34,1,1,0,,,1,FALSE,,,,,,,,,,,,,,,,,,,,,,,,,,,,,,
,5b3a48e8b6b4410001613060,001,2022-04-29_03h33.53.658,classification_task,2021.2.3,Win32,164.9892757,5b3a48e8b6b4410001613060,626b377229c10585ec392f89,626b4e1360fbb07b480ed873,,,,,,,,,,,,,,,,,,,,,,,l,1,1.4482,"[""0.147"",""0.058"",""0.648"",""0.739""]","[1,0,1,1]",0,35,35,35,1,1,1,,,1,FALSE,,,,,,,,,,,,,,,,,,,,,,,,,,,,,,
,5b3a48e8b6b4410001613060,001,2022-04-29_03h33.53.658,classification_task,2021.2.3,Win32,164.9892757,5b3a48e8b6b4410001613060,626b377229c10585ec392f89,626b4e1360fbb07b480ed873,,,,,,,,,,,,,,,,,,,,,,,a,1,1.061,"[""0.272"",""0.466"",""0.882"",""0.688""]","[1,1,1,0]",0,36,36,36,1,0,1,,,1,FALSE,,,,,,,,,,,,,,,,,,,,,,,,,,,,,,
,5b3a48e8b6b4410001613060,001,2022-04-29_03h33.53.658,classification_task,2021.2.3,Win32,164.9892757,5b3a48e8b6b4410001613060,626b377229c10585ec392f89,626b4e1360fbb07b480ed873,,,,,,,,,,,,,,,,,,,,,,,a,1,1.7818,"[""0.227"",""0.565"",""0.847"",""0.396""]","[1,1,1,0]",0,37,37,37,1,0,0,,,1,FALSE,,,,,,,,,,,,,,,,,,,,,,,,,,,,,,
,5b3a48e8b6b4410001613060,001,2022-04-29_03h33.53.658,classification_task,2021.2.3,Win32,164.9892757,5b3a48e8b6b4410001613060,626b377229c10585ec392f89,626b4e1360fbb07b480ed873,,,,,,,,,,,,,,,,,,,,,,,l,0,1.0645,"[""0.272"",""0.466"",""0.372"",""0.975""]","[1,1,0,1]",0,38,38,38,1,0,1,,,1,FALSE,,,,,,,,,,,,,,,,,,,,,,,,,,,,,,
,5b3a48e8b6b4410001613060,001,2022-04-29_03h33.53.658,classification_task,2021.2.3,Win32,164.9892757,5b3a48e8b6b4410001613060,626b377229c10585ec392f89,626b4e1360fbb07b480ed873,,,,,,,,,,,,,,,,,,,,,,,a,1,1.3334,"[""0.227"",""0.396"",""0.847"",""0.929""]","[1,0,1,1]",0,39,39,39,1,0,0,,,1,FALSE,,,,,,,,,,,,,,,,,,,,,,,,,,,,,,
,5b3a48e8b6b4410001613060,001,2022-04-29_03h33.53.658,classification_task,2021.2.3,Win32,164.9892757,5b3a48e8b6b4410001613060,626b377229c10585ec392f89,626b4e1360fbb07b480ed873,,,,,,,,,,,,,,,,,,,,,,,l,1,0.933,"[""0.147"",""0.323"",""0.358"",""0.739""]","[1,1,0,1]",0,40,40,40,1,1,1,,,1,FALSE,,,,,,,,,,,,,,,,,,,,,,,,,,,,,,
,5b3a48e8b6b4410001613060,001,2022-04-29_03h33.53.658,classification_task,2021.2.3,Win32,164.9892757,5b3a48e8b6b4410001613060,626b377229c10585ec392f89,626b4e1360fbb07b480ed873,,,,,,,,,,,,,,,,,,,,,,,a,1,1.5519,"[""0.272"",""0.374"",""0.882"",""0.975""]","[1,0,1,1]",0,41,41,41,1,0,1,,,1,FALSE,,,,,,,,,,,,,,,,,,,,,,,,,,,,,,
,5b3a48e8b6b4410001613060,001,2022-04-29_03h33.53.658,classification_task,2021.2.3,Win32,164.9892757,5b3a48e8b6b4410001613060,626b377229c10585ec392f89,626b4e1360fbb07b480ed873,,,,,,,,,,,,,,,,,,,,,,,l,1,0.6124,"[""0.608"",""0.323"",""0.648"",""0.739""]","[0,1,1,1]",0,42,42,42,1,1,1,,,1,FALSE,,,,,,,,,,,,,,,,,,,,,,,,,,,,,,
,5b3a48e8b6b4410001613060,001,2022-04-29_03h33.53.658,classification_task,2021.2.3,Win32,164.9892757,5b3a48e8b6b4410001613060,626b377229c10585ec392f89,626b4e1360fbb07b480ed873,,,,,,,,,,,,,,,,,,,,,,,a,1,2.1089,"[""0.701"",""0.565"",""0.847"",""0.929""]","[0,1,1,1]",0,43,43,43,1,0,0,,,1,FALSE,,,,,,,,,,,,,,,,,,,,,,,,,,,,,,
,5b3a48e8b6b4410001613060,001,2022-04-29_03h33.53.658,classification_task,2021.2.3,Win32,164.9892757,5b3a48e8b6b4410001613060,626b377229c10585ec392f89,626b4e1360fbb07b480ed873,,,,,,,,,,,,,,,,,,,,,,,a,1,1.1154,"[""0.227"",""0.565"",""0.608"",""0.929""]","[1,1,0,1]",0,44,44,44,1,0,0,,,1,FALSE,,,,,,,,,,,,,,,,,,,,,,,,,,,,,,
,5b3a48e8b6b4410001613060,001,2022-04-29_03h33.53.658,classification_task,2021.2.3,Win32,164.9892757,5b3a48e8b6b4410001613060,626b377229c10585ec392f89,626b4e1360fbb07b480ed873,,,,,,,,,,,,,,,,,,,,,,,a,0,1.0732,"[""0.097"",""0.191"",""0.701"",""0.807""]","[1,1,0,1]",0,45,45,45,1,1,0,,,1,FALSE,,,,,,,,,,,,,,,,,,,,,,,,,,,,,,
,5b3a48e8b6b4410001613060,001,2022-04-29_03h33.53.658,classification_task,2021.2.3,Win32,164.9892757,5b3a48e8b6b4410001613060,626b377229c10585ec392f89,626b4e1360fbb07b480ed873,,,,,,,,,,,,,,,,,,,,,,,a,1,2.4541,"[""0.688"",""0.466"",""0.882"",""0.975""]","[0,1,1,1]",0,46,46,46,1,0,1,,,1,FALSE,,,,,,,,,,,,,,,,,,,,,,,,,,,,,,
,5b3a48e8b6b4410001613060,001,2022-04-29_03h33.53.658,classification_task,2021.2.3,Win32,164.9892757,5b3a48e8b6b4410001613060,626b377229c10585ec392f89,626b4e1360fbb07b480ed873,,,,,,,,,,,,,,,,,,,,,,,a,0,2.2419,"[""0.608"",""0.191"",""0.506"",""0.807""]","[0,1,1,1]",0,47,47,47,1,1,0,,,1,FALSE,,,,,,,,,,,,,,,,,,,,,,,,,,,,,,
,5b3a48e8b6b4410001613060,001,2022-04-29_03h33.53.658,classification_task,2021.2.3,Win32,164.9892757,5b3a48e8b6b4410001613060,626b377229c10585ec392f89,626b4e1360fbb07b480ed873,,,,,,,,,,,,,,,,,,,,,,,l,1,1.34,"[""0.097"",""0.191"",""0.688"",""0.807""]","[1,1,0,1]",0,48,48,48,1,1,0,,,1,FALSE,,,,,,,,,,,,,,,,,,,,,,,,,,,,,,
,5b3a48e8b6b4410001613060,001,2022-04-29_03h33.53.658,classification_task,2021.2.3,Win32,164.9892757,5b3a48e8b6b4410001613060,626b377229c10585ec392f89,626b4e1360fbb07b480ed873,,,,,,,,,,,,,,,,,,,,,,,l,1,2.1394,"[""0.097"",""0.191"",""0.506"",""0.048""]","[1,1,1,0]",0,49,49,49,1,1,0,,,1,FALSE,,,,,,,,,,,,,,,,,,,,,,,,,,,,,,
,5b3a48e8b6b4410001613060,001,2022-04-29_03h33.53.658,classification_task,2021.2.3,Win32,164.9892757,5b3a48e8b6b4410001613060,626b377229c10585ec392f89,626b4e1360fbb07b480ed873,,,,,,,,,,,,,,,,,,,,,,,a,0,3.049,"[""0.097"",""0.608"",""0.506"",""0.807""]","[1,0,1,1]",0,50,50,50,1,1,0,,,1,FALSE,,,,,,,,,,,,,,,,,,,,,,,,,,,,,,
,5b3a48e8b6b4410001613060,001,2022-04-29_03h33.53.658,classification_task,2021.2.3,Win32,164.9892757,5b3a48e8b6b4410001613060,626b377229c10585ec392f89,626b4e1360fbb07b480ed873,,,,,,,,,,,,,,,,,,,,,,,l,1,3.3019,"[""0.147"",""0.323"",""0.648"",""0.430""]","[1,1,1,0]",0,51,51,51,1,1,1,,,1,FALSE,,,,,,,,,,,,,,,,,,,,,,,,,,,,,,
,5b3a48e8b6b4410001613060,001,2022-04-29_03h33.53.658,classification_task,2021.2.3,Win32,164.9892757,5b3a48e8b6b4410001613060,626b377229c10585ec392f89,626b4e1360fbb07b480ed873,,,,,,,,,,,,,,,,,,,,,,,a,1,2.9132,"[""0.227"",""0.565"",""0.688"",""0.929""]","[1,1,0,1]",0,52,52,52,1,0,0,,,1,FALSE,,,,,,,,,,,,,,,,,,,,,,,,,,,,,,
,5b3a48e8b6b4410001613060,001,2022-04-29_03h33.53.658,classification_task,2021.2.3,Win32,164.9892757,5b3a48e8b6b4410001613060,626b377229c10585ec392f89,626b4e1360fbb07b480ed873,,,,,,,,,,,,,,,,,,,,,,,l,1,1.7678,"[""0.147"",""0.688"",""0.648"",""0.739""]","[1,0,1,1]",0,53,53,53,1,1,1,,,1,FALSE,,,,,,,,,,,,,,,,,,,,,,,,,,,,,,
,5b3a48e8b6b4410001613060,001,2022-04-29_03h33.53.658,classification_task,2021.2.3,Win32,164.9892757,5b3a48e8b6b4410001613060,626b377229c10585ec392f89,626b4e1360fbb07b480ed873,,,,,,,,,,,,,,,,,,,,,,,a,1,1.1689,"[""0.227"",""0.372"",""0.847"",""0.929""]","[1,0,1,1]",0,54,54,54,1,0,0,,,1,FALSE,,,,,,,,,,,,,,,,,,,,,,,,,,,,,,
,5b3a48e8b6b4410001613060,001,2022-04-29_03h33.53.658,classification_task,2021.2.3,Win32,164.9892757,5b3a48e8b6b4410001613060,626b377229c10585ec392f89,626b4e1360fbb07b480ed873,,,,,,,,,,,,,,,,,,,,,,,l,1,1.6551,"[""0.384"",""0.323"",""0.648"",""0.739""]","[0,1,1,1]",0,55,55,55,1,1,1,,,1,FALSE,,,,,,,,,,,,,,,,,,,,,,,,,,,,,,
,5b3a48e8b6b4410001613060,001,2022-04-29_03h33.53.658,classification_task,2021.2.3,Win32,164.9892757,5b3a48e8b6b4410001613060,626b377229c10585ec392f89,626b4e1360fbb07b480ed873,,,,,,,,,,,,,,,,,,,,,,,a,1,1.176,"[""0.272"",""0.466"",""0.058"",""0.975""]","[1,1,0,1]",0,56,56,56,1,0,1,,,1,FALSE,,,,,,,,,,,,,,,,,,,,,,,,,,,,,,
,5b3a48e8b6b4410001613060,001,2022-04-29_03h33.53.658,classification_task,2021.2.3,Win32,164.9892757,5b3a48e8b6b4410001613060,626b377229c10585ec392f89,626b4e1360fbb07b480ed873,,,,,,,,,,,,,,,,,,,,,,,l,1,1.1761,"[""0.384"",""0.191"",""0.506"",""0.807""]","[0,1,1,1]",0,57,57,57,1,1,0,,,1,FALSE,,,,,,,,,,,,,,,,,,,,,,,,,,,,,,
,5b3a48e8b6b4410001613060,001,2022-04-29_03h33.53.658,classification_task,2021.2.3,Win32,164.9892757,5b3a48e8b6b4410001613060,626b377229c10585ec392f89,626b4e1360fbb07b480ed873,,,,,,,,,,,,,,,,,,,,,,,l,0,1.6357,"[""0.272"",""0.466"",""0.882"",""0.036""]","[1,1,1,0]",0,58,58,58,1,0,1,,,1,FALSE,,,,,,,,,,,,,,,,,,,,,,,,,,,,,,
,5b3a48e8b6b4410001613060,001,2022-04-29_03h33.53.658,classification_task,2021.2.3,Win32,164.9892757,5b3a48e8b6b4410001613060,626b377229c10585ec392f89,626b4e1360fbb07b480ed873,,,,,,,,,,,,,,,,,,,,,,,a,1,1.4668,"[""0.272"",""0.036"",""0.882"",""0.975""]","[1,0,1,1]",0,59,59,59,1,0,1,,,1,FALSE,,,,,,,,,,,,,,,,,,,,,,,,,,,,,,
,5b3a48e8b6b4410001613060,001,2022-04-29_03h33.53.658,classification_task,2021.2.3,Win32,164.9892757,5b3a48e8b6b4410001613060,626b377229c10585ec392f89,626b4e1360fbb07b480ed873,,,,,,,,,,,,,,,,,,,,,,,l,0,1.9875,"[""0.058"",""0.565"",""0.847"",""0.929""]","[0,1,1,1]",0,60,60,60,1,0,0,,,1,FALSE,,,,,,,,,,,,,,,,,,,,,,,,,,,,,,
,5b3a48e8b6b4410001613060,001,2022-04-29_03h33.53.658,classification_task,2021.2.3,Win32,164.9892757,5b3a48e8b6b4410001613060,626b377229c10585ec392f89,626b4e1360fbb07b480ed873,,,,,,,,,,,,,,,,,,,,,,,a,1,0.9038,"[""0.227"",""0.565"",""0.847"",""0.361""]","[1,1,1,0]",0,61,61,61,1,0,0,,,1,FALSE,,,,,,,,,,,,,,,,,,,,,,,,,,,,,,
,5b3a48e8b6b4410001613060,001,2022-04-29_03h33.53.658,classification_task,2021.2.3,Win32,164.9892757,5b3a48e8b6b4410001613060,626b377229c10585ec392f89,626b4e1360fbb07b480ed873,,,,,,,,,,,,,,,,,,,,,,,a,1,0.8057,"[""0.036"",""0.466"",""0.882"",""0.975""]","[0,1,1,1]",0,62,62,62,1,0,1,,,1,FALSE,,,,,,,,,,,,,,,,,,,,,,,,,,,,,,
,5b3a48e8b6b4410001613060,001,2022-04-29_03h33.53.658,classification_task,2021.2.3,Win32,164.9892757,5b3a48e8b6b4410001613060,626b377229c10585ec392f89,626b4e1360fbb07b480ed873,,,,,,,,,,,,,,,,,,,,,,,a,0,1.8185,"[""0.147"",""0.323"",""0.608"",""0.739""]","[1,1,0,1]",0,63,63,63,1,1,1,,,1,FALSE,,,,,,,,,,,,,,,,,,,,,,,,,,,,,,
,5b3a48e8b6b4410001613060,001,2022-04-29_03h33.53.658,classification_task,2021.2.3,Win32,164.9892757,5b3a48e8b6b4410001613060,626b377229c10585ec392f89,626b4e1360fbb07b480ed873,,,,,,,,,,,,,,,,,,,,,,,,,,,,,,,,,,,,,,,0, ,,0,1.699245916,225.5395,0,1,1,1,1,2,2,,,,,,,,,,,,,,,,,
,5b3a48e8b6b4410001613060,001,2022-04-29_03h33.53.658,classification_task,2021.2.3,Win32,164.9892757,5b3a48e8b6b4410001613060,626b377229c10585ec392f89,626b4e1360fbb07b480ed873,,,,,,,,,,,,,,,,,,,,,,,,,,,,,,,,,,,,,,,1,  ,,0,3.364933514,233.9147,0,1,1,1,1,2,2,,,,,,,,,,,,,,,,,
,5b3a48e8b6b4410001613060,001,2022-04-29_03h33.53.658,classification_task,2021.2.3,Win32,164.9892757,5b3a48e8b6b4410001613060,626b377229c10585ec392f89,626b4e1360fbb07b480ed873,,,,,,,,,,,,,,,,,,,,,,,,,,,,,,,,,,,,,,,2,  ,,0,1.968694885,236.1694,0,1,1,1,1,2,2,,,,,,,,,,,,,,,,,
,5b3a48e8b6b4410001613060,001,2022-04-29_03h33.53.658,classification_task,2021.2.3,Win32,164.9892757,5b3a48e8b6b4410001613060,626b377229c10585ec392f89,626b4e1360fbb07b480ed873,,,,,,,,,,,,,,,,,,,,,,,,,,,,,,,,,,,,,,,,,,,,,0,1,1,1,1,,2,,,,,,,,,,,,,,,,,
,5b3a48e8b6b4410001613060,001,2022-04-29_03h33.53.658,classification_task,2021.2.3,Win32,164.9892757,5b3a48e8b6b4410001613060,626b377229c10585ec392f89,626b4e1360fbb07b480ed873,,,,,,,,,,,,,,,,,,,,,space,6.1958,l,1,2.1894,"[""0.097"",""0.191"",""0.506"",""0.361""]","[1,1,1,0]",0,0,0,0,1,1,0,,,1,FALSE,,,,,,,,,,,,,,,,,,,,,,,,,,,,,,
,5b3a48e8b6b4410001613060,001,2022-04-29_03h33.53.658,classification_task,2021.2.3,Win32,164.9892757,5b3a48e8b6b4410001613060,626b377229c10585ec392f89,626b4e1360fbb07b480ed873,,,,,,,,,,,,,,,,,,,,,,,a,1,6.6545,"[""0.384"",""0.565"",""0.847"",""0.929""]","[0,1,1,1]",0,1,1,1,1,0,0,,,1,FALSE,,,,,,,,,,,,,,,,,,,,,,,,,,,,,,
,5b3a48e8b6b4410001613060,001,2022-04-29_03h33.53.658,classification_task,2021.2.3,Win32,164.9892757,5b3a48e8b6b4410001613060,626b377229c10585ec392f89,626b4e1360fbb07b480ed873,,,,,,,,,,,,,,,,,,,,,,,l,1,2.9515,"[""0.374"",""0.191"",""0.506"",""0.807""]","[0,1,1,1]",0,2,2,2,1,1,0,,,1,FALSE,,,,,,,,,,,,,,,,,,,,,,,,,,,,,,
,5b3a48e8b6b4410001613060,001,2022-04-29_03h33.53.658,classification_task,2021.2.3,Win32,164.9892757,5b3a48e8b6b4410001613060,626b377229c10585ec392f89,626b4e1360fbb07b480ed873,,,,,,,,,,,,,,,,,,,,,,,a,1,1.4123,"[""0.227"",""0.036"",""0.847"",""0.929""]","[1,0,1,1]",0,3,3,3,1,0,0,,,1,FALSE,,,,,,,,,,,,,,,,,,,,,,,,,,,,,,
,5b3a48e8b6b4410001613060,001,2022-04-29_03h33.53.658,classification_task,2021.2.3,Win32,164.9892757,5b3a48e8b6b4410001613060,626b377229c10585ec392f89,626b4e1360fbb07b480ed873,,,,,,,,,,,,,,,,,,,,,,,l,1,2.8674,"[""0.430"",""0.323"",""0.648"",""0.739""]","[0,1,1,1]",0,4,4,4,1,1,1,,,1,FALSE,,,,,,,,,,,,,,,,,,,,,,,,,,,,,,
,5b3a48e8b6b4410001613060,001,2022-04-29_03h33.53.658,classification_task,2021.2.3,Win32,164.9892757,5b3a48e8b6b4410001613060,626b377229c10585ec392f89,626b4e1360fbb07b480ed873,,,,,,,,,,,,,,,,,,,,,,,a,0,4.0249,"[""0.147"",""0.323"",""0.648"",""0.396""]","[1,1,1,0]",0,5,5,5,1,1,1,,,1,FALSE,,,,,,,,,,,,,,,,,,,,,,,,,,,,,,
,5b3a48e8b6b4410001613060,001,2022-04-29_03h33.53.658,classification_task,2021.2.3,Win32,164.9892757,5b3a48e8b6b4410001613060,626b377229c10585ec392f89,626b4e1360fbb07b480ed873,,,,,,,,,,,,,,,,,,,,,,,a,1,0.958,"[""0.272"",""0.466"",""0.701"",""0.975""]","[1,1,0,1]",0,6,6,6,1,0,1,,,1,FALSE,,,,,,,,,,,,,,,,,,,,,,,,,,,,,,
,5b3a48e8b6b4410001613060,001,2022-04-29_03h33.53.658,classification_task,2021.2.3,Win32,164.9892757,5b3a48e8b6b4410001613060,626b377229c10585ec392f89,626b4e1360fbb07b480ed873,,,,,,,,,,,,,,,,,,,,,,,a,1,1.4446,"[""0.227"",""0.565"",""0.688"",""0.929""]","[1,1,0,1]",0,7,7,7,1,0,0,,,1,FALSE,,,,,,,,,,,,,,,,,,,,,,,,,,,,,,
,5b3a48e8b6b4410001613060,001,2022-04-29_03h33.53.658,classification_task,2021.2.3,Win32,164.9892757,5b3a48e8b6b4410001613060,626b377229c10585ec392f89,626b4e1360fbb07b480ed873,,,,,,,,,,,,,,,,,,,,,,,l,1,0.9159,"[""0.097"",""0.374"",""0.506"",""0.807""]","[1,0,1,1]",0,8,8,8,1,1,0,,,1,FALSE,,,,,,,,,,,,,,,,,,,,,,,,,,,,,,
,5b3a48e8b6b4410001613060,001,2022-04-29_03h33.53.658,classification_task,2021.2.3,Win32,164.9892757,5b3a48e8b6b4410001613060,626b377229c10585ec392f89,626b4e1360fbb07b480ed873,,,,,,,,,,,,,,,,,,,,,,,l,1,1.8,"[""0.147"",""0.323"",""0.036"",""0.739""]","[1,1,0,1]",0,9,9,9,1,1,1,,,1,FALSE,,,,,,,,,,,,,,,,,,,,,,,,,,,,,,
,5b3a48e8b6b4410001613060,001,2022-04-29_03h33.53.658,classification_task,2021.2.3,Win32,164.9892757,5b3a48e8b6b4410001613060,626b377229c10585ec392f89,626b4e1360fbb07b480ed873,,,,,,,,,,,,,,,,,,,,,,,a,1,2.0911,"[""0.688"",""0.466"",""0.882"",""0.975""]","[0,1,1,1]",0,10,10,10,1,0,1,,,1,FALSE,,,,,,,,,,,,,,,,,,,,,,,,,,,,,,
,5b3a48e8b6b4410001613060,001,2022-04-29_03h33.53.658,classification_task,2021.2.3,Win32,164.9892757,5b3a48e8b6b4410001613060,626b377229c10585ec392f89,626b4e1360fbb07b480ed873,,,,,,,,,,,,,,,,,,,,,,,l,1,1.1538,"[""0.097"",""0.191"",""0.058"",""0.807""]","[1,1,0,1]",0,11,11,11,1,1,0,,,1,FALSE,,,,,,,,,,,,,,,,,,,,,,,,,,,,,,
,5b3a48e8b6b4410001613060,001,2022-04-29_03h33.53.658,classification_task,2021.2.3,Win32,164.9892757,5b3a48e8b6b4410001613060,626b377229c10585ec392f89,626b4e1360fbb07b480ed873,,,,,,,,,,,,,,,,,,,,,,,a,0,1.9631,"[""0.147"",""0.361"",""0.648"",""0.739""]","[1,0,1,1]",0,12,12,12,1,1,1,,,1,FALSE,,,,,,,,,,,,,,,,,,,,,,,,,,,,,,
,5b3a48e8b6b4410001613060,001,2022-04-29_03h33.53.658,classification_task,2021.2.3,Win32,164.9892757,5b3a48e8b6b4410001613060,626b377229c10585ec392f89,626b4e1360fbb07b480ed873,,,,,,,,,,,,,,,,,,,,,,,a,1,2.8361,"[""0.272"",""0.466"",""0.882"",""0.701""]","[1,1,1,0]",0,13,13,13,1,0,1,,,1,FALSE,,,,,,,,,,,,,,,,,,,,,,,,,,,,,,
,5b3a48e8b6b4410001613060,001,2022-04-29_03h33.53.658,classification_task,2021.2.3,Win32,164.9892757,5b3a48e8b6b4410001613060,626b377229c10585ec392f89,626b4e1360fbb07b480ed873,,,,,,,,,,,,,,,,,,,,,,,a,1,1.3213,"[""0.272"",""0.430"",""0.882"",""0.975""]","[1,0,1,1]",0,14,14,14,1,0,1,,,1,FALSE,,,,,,,,,,,,,,,,,,,,,,,,,,,,,,
,5b3a48e8b6b4410001613060,001,2022-04-29_03h33.53.658,classification_task,2021.2.3,Win32,164.9892757,5b3a48e8b6b4410001613060,626b377229c10585ec392f89,626b4e1360fbb07b480ed873,,,,,,,,,,,,,,,,,,,,,,,l,0,0.9216,"[""0.227"",""0.565"",""0.847"",""0.048""]","[1,1,1,0]",0,15,15,15,1,0,0,,,1,FALSE,,,,,,,,,,,,,,,,,,,,,,,,,,,,,,
,5b3a48e8b6b4410001613060,001,2022-04-29_03h33.53.658,classification_task,2021.2.3,Win32,164.9892757,5b3a48e8b6b4410001613060,626b377229c10585ec392f89,626b4e1360fbb07b480ed873,,,,,,,,,,,,,,,,,,,,,,,l,1,0.9448,"[""0.147"",""0.323"",""0.648"",""0.058""]","[1,1,1,0]",0,16,16,16,1,1,1,,,1,FALSE,,,,,,,,,,,,,,,,,,,,,,,,,,,,,,
,5b3a48e8b6b4410001613060,001,2022-04-29_03h33.53.658,classification_task,2021.2.3,Win32,164.9892757,5b3a48e8b6b4410001613060,626b377229c10585ec392f89,626b4e1360fbb07b480ed873,,,,,,,,,,,,,,,,,,,,,,,l,1,1.1464,"[""0.097"",""0.688"",""0.506"",""0.807""]","[1,0,1,1]",0,17,17,17,1,1,0,,,1,FALSE,,,,,,,,,,,,,,,,,,,,,,,,,,,,,,
,5b3a48e8b6b4410001613060,001,2022-04-29_03h33.53.658,classification_task,2021.2.3,Win32,164.9892757,5b3a48e8b6b4410001613060,626b377229c10585ec392f89,626b4e1360fbb07b480ed873,,,,,,,,,,,,,,,,,,,,,,,l,1,1.4974,"[""0.147"",""0.323"",""0.372"",""0.739""]","[1,1,0,1]",0,18,18,18,1,1,1,,,1,FALSE,,,,,,,,,,,,,,,,,,,,,,,,,,,,,,
,5b3a48e8b6b4410001613060,001,2022-04-29_03h33.53.658,classification_task,2021.2.3,Win32,164.9892757,5b3a48e8b6b4410001613060,626b377229c10585ec392f89,626b4e1360fbb07b480ed873,,,,,,,,,,,,,,,,,,,,,,,a,1,2.0001,"[""0.272"",""0.466"",""0.882"",""0.372""]","[1,1,1,0]",0,19,19,19,1,0,1,,,1,FALSE,,,,,,,,,,,,,,,,,,,,,,,,,,,,,,
,5b3a48e8b6b4410001613060,001,2022-04-29_03h33.53.658,classification_task,2021.2.3,Win32,164.9892757,5b3a48e8b6b4410001613060,626b377229c10585ec392f89,626b4e1360fbb07b480ed873,,,,,,,,,,,,,,,,,,,,,,,l,1,1.4086,"[""0.097"",""0.191"",""0.374"",""0.807""]","[1,1,0,1]",0,20,20,20,1,1,0,,,1,FALSE,,,,,,,,,,,,,,,,,,,,,,,,,,,,,,
,5b3a48e8b6b4410001613060,001,2022-04-29_03h33.53.658,classification_task,2021.2.3,Win32,164.9892757,5b3a48e8b6b4410001613060,626b377229c10585ec392f89,626b4e1360fbb07b480ed873,,,,,,,,,,,,,,,,,,,,,,,a,1,1.0138,"[""0.272"",""0.466"",""0.374"",""0.975""]","[1,1,0,1]",0,21,21,21,1,0,1,,,1,FALSE,,,,,,,,,,,,,,,,,,,,,,,,,,,,,,
,5b3a48e8b6b4410001613060,001,2022-04-29_03h33.53.658,classification_task,2021.2.3,Win32,164.9892757,5b3a48e8b6b4410001613060,626b377229c10585ec392f89,626b4e1360fbb07b480ed873,,,,,,,,,,,,,,,,,,,,,,,a,1,1.6362,"[""0.372"",""0.466"",""0.882"",""0.975""]","[0,1,1,1]",0,22,22,22,1,0,1,,,1,FALSE,,,,,,,,,,,,,,,,,,,,,,,,,,,,,,
,5b3a48e8b6b4410001613060,001,2022-04-29_03h33.53.658,classification_task,2021.2.3,Win32,164.9892757,5b3a48e8b6b4410001613060,626b377229c10585ec392f89,626b4e1360fbb07b480ed873,,,,,,,,,,,,,,,,,,,,,,,l,1,1.4196,"[""0.384"",""0.191"",""0.506"",""0.807""]","[0,1,1,1]",0,23,23,23,1,1,0,,,1,FALSE,,,,,,,,,,,,,,,,,,,,,,,,,,,,,,
,5b3a48e8b6b4410001613060,001,2022-04-29_03h33.53.658,classification_task,2021.2.3,Win32,164.9892757,5b3a48e8b6b4410001613060,626b377229c10585ec392f89,626b4e1360fbb07b480ed873,,,,,,,,,,,,,,,,,,,,,,,l,1,1.636,"[""0.384"",""0.323"",""0.648"",""0.739""]","[0,1,1,1]",0,24,24,24,1,1,1,,,1,FALSE,,,,,,,,,,,,,,,,,,,,,,,,,,,,,,
,5b3a48e8b6b4410001613060,001,2022-04-29_03h33.53.658,classification_task,2021.2.3,Win32,164.9892757,5b3a48e8b6b4410001613060,626b377229c10585ec392f89,626b4e1360fbb07b480ed873,,,,,,,,,,,,,,,,,,,,,,,l,1,0.8916,"[""0.147"",""0.036"",""0.648"",""0.739""]","[1,0,1,1]",0,25,25,25,1,1,1,,,1,FALSE,,,,,,,,,,,,,,,,,,,,,,,,,,,,,,
,5b3a48e8b6b4410001613060,001,2022-04-29_03h33.53.658,classification_task,2021.2.3,Win32,164.9892757,5b3a48e8b6b4410001613060,626b377229c10585ec392f89,626b4e1360fbb07b480ed873,,,,,,,,,,,,,,,,,,,,,,,a,1,1.4242,"[""0.227"",""0.396"",""0.847"",""0.929""]","[1,0,1,1]",0,26,26,26,1,0,0,,,1,FALSE,,,,,,,,,,,,,,,,,,,,,,,,,,,,,,
,5b3a48e8b6b4410001613060,001,2022-04-29_03h33.53.658,classification_task,2021.2.3,Win32,164.9892757,5b3a48e8b6b4410001613060,626b377229c10585ec392f89,626b4e1360fbb07b480ed873,,,,,,,,,,,,,,,,,,,,,,,l,1,1.4798,"[""0.097"",""0.191"",""0.506"",""0.372""]","[1,1,1,0]",0,27,27,27,1,1,0,,,1,FALSE,,,,,,,,,,,,,,,,,,,,,,,,,,,,,,
,5b3a48e8b6b4410001613060,001,2022-04-29_03h33.53.658,classification_task,2021.2.3,Win32,164.9892757,5b3a48e8b6b4410001613060,626b377229c10585ec392f89,626b4e1360fbb07b480ed873,,,,,,,,,,,,,,,,,,,,,,,a,1,0.703,"[""0.227"",""0.565"",""0.384"",""0.929""]","[1,1,0,1]",0,28,28,28,1,0,0,,,1,FALSE,,,,,,,,,,,,,,,,,,,,,,,,,,,,,,
,5b3a48e8b6b4410001613060,001,2022-04-29_03h33.53.658,classification_task,2021.2.3,Win32,164.9892757,5b3a48e8b6b4410001613060,626b377229c10585ec392f89,626b4e1360fbb07b480ed873,,,,,,,,,,,,,,,,,,,,,,,a,1,0.5761,"[""0.227"",""0.565"",""0.847"",""0.701""]","[1,1,1,0]",0,29,29,29,1,0,0,,,1,FALSE,,,,,,,,,,,,,,,,,,,,,,,,,,,,,,
,5b3a48e8b6b4410001613060,001,2022-04-29_03h33.53.658,classification_task,2021.2.3,Win32,164.9892757,5b3a48e8b6b4410001613060,626b377229c10585ec392f89,626b4e1360fbb07b480ed873,,,,,,,,,,,,,,,,,,,,,,,l,0,1.3148,"[""0.396"",""0.565"",""0.847"",""0.929""]","[0,1,1,1]",0,30,30,30,1,0,0,,,1,FALSE,,,,,,,,,,,,,,,,,,,,,,,,,,,,,,
,5b3a48e8b6b4410001613060,001,2022-04-29_03h33.53.658,classification_task,2021.2.3,Win32,164.9892757,5b3a48e8b6b4410001613060,626b377229c10585ec392f89,626b4e1360fbb07b480ed873,,,,,,,,,,,,,,,,,,,,,,,l,0,1.3151,"[""0.272"",""0.048"",""0.882"",""0.975""]","[1,0,1,1]",0,31,31,31,1,0,1,,,1,FALSE,,,,,,,,,,,,,,,,,,,,,,,,,,,,,,
,5b3a48e8b6b4410001613060,001,2022-04-29_03h33.53.658,classification_task,2021.2.3,Win32,164.9892757,5b3a48e8b6b4410001613060,626b377229c10585ec392f89,626b4e1360fbb07b480ed873,,,,,,,,,,,,,,,,,,,,,,,l,1,1.6017,"[""0.097"",""0.191"",""0.384"",""0.807""]","[1,1,0,1]",0,32,32,32,1,1,0,,,1,FALSE,,,,,,,,,,,,,,,,,,,,,,,,,,,,,,
,5b3a48e8b6b4410001613060,001,2022-04-29_03h33.53.658,classification_task,2021.2.3,Win32,164.9892757,5b3a48e8b6b4410001613060,626b377229c10585ec392f89,626b4e1360fbb07b480ed873,,,,,,,,,,,,,,,,,,,,,,,a,1,1.2379,"[""0.272"",""0.466"",""0.430"",""0.975""]","[1,1,0,1]",0,33,33,33,1,0,1,,,1,FALSE,,,,,,,,,,,,,,,,,,,,,,,,,,,,,,
,5b3a48e8b6b4410001613060,001,2022-04-29_03h33.53.658,classification_task,2021.2.3,Win32,164.9892757,5b3a48e8b6b4410001613060,626b377229c10585ec392f89,626b4e1360fbb07b480ed873,,,,,,,,,,,,,,,,,,,,,,,l,1,1.7274,"[""0.097"",""0.384"",""0.506"",""0.807""]","[1,0,1,1]",0,34,34,34,1,1,0,,,1,FALSE,,,,,,,,,,,,,,,,,,,,,,,,,,,,,,
,5b3a48e8b6b4410001613060,001,2022-04-29_03h33.53.658,classification_task,2021.2.3,Win32,164.9892757,5b3a48e8b6b4410001613060,626b377229c10585ec392f89,626b4e1360fbb07b480ed873,,,,,,,,,,,,,,,,,,,,,,,l,1,1.3223,"[""0.147"",""0.323"",""0.648"",""0.036""]","[1,1,1,0]",0,35,35,35,1,1,1,,,1,FALSE,,,,,,,,,,,,,,,,,,,,,,,,,,,,,,
,5b3a48e8b6b4410001613060,001,2022-04-29_03h33.53.658,classification_task,2021.2.3,Win32,164.9892757,5b3a48e8b6b4410001613060,626b377229c10585ec392f89,626b4e1360fbb07b480ed873,,,,,,,,,,,,,,,,,,,,,,,l,1,1.5579,"[""0.147"",""0.323"",""0.048"",""0.739""]","[1,1,0,1]",0,36,36,36,1,1,1,,,1,FALSE,,,,,,,,,,,,,,,,,,,,,,,,,,,,,,
,5b3a48e8b6b4410001613060,001,2022-04-29_03h33.53.658,classification_task,2021.2.3,Win32,164.9892757,5b3a48e8b6b4410001613060,626b377229c10585ec392f89,626b4e1360fbb07b480ed873,,,,,,,,,,,,,,,,,,,,,,,a,1,0.9031,"[""0.227"",""0.374"",""0.847"",""0.929""]","[1,0,1,1]",0,37,37,37,1,0,0,,,1,FALSE,,,,,,,,,,,,,,,,,,,,,,,,,,,,,,
,5b3a48e8b6b4410001613060,001,2022-04-29_03h33.53.658,classification_task,2021.2.3,Win32,164.9892757,5b3a48e8b6b4410001613060,626b377229c10585ec392f89,626b4e1360fbb07b480ed873,,,,,,,,,,,,,,,,,,,,,,,l,1,2.63,"[""0.361"",""0.191"",""0.506"",""0.807""]","[0,1,1,1]",0,38,38,38,1,1,0,,,1,FALSE,,,,,,,,,,,,,,,,,,,,,,,,,,,,,,
,5b3a48e8b6b4410001613060,001,2022-04-29_03h33.53.658,classification_task,2021.2.3,Win32,164.9892757,5b3a48e8b6b4410001613060,626b377229c10585ec392f89,626b4e1360fbb07b480ed873,,,,,,,,,,,,,,,,,,,,,,,l,1,1.4068,"[""0.097"",""0.191"",""0.506"",""0.058""]","[1,1,1,0]",0,39,39,39,1,1,0,,,1,FALSE,,,,,,,,,,,,,,,,,,,,,,,,,,,,,,
,5b3a48e8b6b4410001613060,001,2022-04-29_03h33.53.658,classification_task,2021.2.3,Win32,164.9892757,5b3a48e8b6b4410001613060,626b377229c10585ec392f89,626b4e1360fbb07b480ed873,,,,,,,,,,,,,,,,,,,,,,,a,1,1.51,"[""0.227"",""0.565"",""0.048"",""0.929""]","[1,1,0,1]",0,40,40,40,1,0,0,,,1,FALSE,,,,,,,,,,,,,,,,,,,,,,,,,,,,,,
,5b3a48e8b6b4410001613060,001,2022-04-29_03h33.53.658,classification_task,2021.2.3,Win32,164.9892757,5b3a48e8b6b4410001613060,626b377229c10585ec392f89,626b4e1360fbb07b480ed873,,,,,,,,,,,,,,,,,,,,,,,a,1,2.4551,"[""0.384"",""0.565"",""0.847"",""0.929""]","[0,1,1,1]",0,41,41,41,1,0,0,,,1,FALSE,,,,,,,,,,,,,,,,,,,,,,,,,,,,,,
,5b3a48e8b6b4410001613060,001,2022-04-29_03h33.53.658,classification_task,2021.2.3,Win32,164.9892757,5b3a48e8b6b4410001613060,626b377229c10585ec392f89,626b4e1360fbb07b480ed873,,,,,,,,,,,,,,,,,,,,,,,a,0,1.2614,"[""0.147"",""0.374"",""0.648"",""0.739""]","[1,0,1,1]",0,42,42,42,1,1,1,,,1,FALSE,,,,,,,,,,,,,,,,,,,,,,,,,,,,,,
,5b3a48e8b6b4410001613060,001,2022-04-29_03h33.53.658,classification_task,2021.2.3,Win32,164.9892757,5b3a48e8b6b4410001613060,626b377229c10585ec392f89,626b4e1360fbb07b480ed873,,,,,,,,,,,,,,,,,,,,,,,a,1,1.6364,"[""0.272"",""0.466"",""0.882"",""0.396""]","[1,1,1,0]",0,43,43,43,1,0,1,,,1,FALSE,,,,,,,,,,,,,,,,,,,,,,,,,,,,,,
,5b3a48e8b6b4410001613060,001,2022-04-29_03h33.53.658,classification_task,2021.2.3,Win32,164.9892757,5b3a48e8b6b4410001613060,626b377229c10585ec392f89,626b4e1360fbb07b480ed873,,,,,,,,,,,,,,,,,,,,,,,a,1,1.8488,"[""0.361"",""0.466"",""0.882"",""0.975""]","[0,1,1,1]",0,44,44,44,1,0,1,,,1,FALSE,,,,,,,,,,,,,,,,,,,,,,,,,,,,,,
,5b3a48e8b6b4410001613060,001,2022-04-29_03h33.53.658,classification_task,2021.2.3,Win32,164.9892757,5b3a48e8b6b4410001613060,626b377229c10585ec392f89,626b4e1360fbb07b480ed873,,,,,,,,,,,,,,,,,,,,,,,a,1,2.2125,"[""0.227"",""0.565"",""0.847"",""0.358""]","[1,1,1,0]",0,45,45,45,1,0,0,,,1,FALSE,,,,,,,,,,,,,,,,,,,,,,,,,,,,,,
,5b3a48e8b6b4410001613060,001,2022-04-29_03h33.53.658,classification_task,2021.2.3,Win32,164.9892757,5b3a48e8b6b4410001613060,626b377229c10585ec392f89,626b4e1360fbb07b480ed873,,,,,,,,,,,,,,,,,,,,,,,l,1,3.2666,"[""0.361"",""0.323"",""0.648"",""0.739""]","[0,1,1,1]",0,46,46,46,1,1,1,,,1,FALSE,,,,,,,,,,,,,,,,,,,,,,,,,,,,,,
,5b3a48e8b6b4410001613060,001,2022-04-29_03h33.53.658,classification_task,2021.2.3,Win32,164.9892757,5b3a48e8b6b4410001613060,626b377229c10585ec392f89,626b4e1360fbb07b480ed873,,,,,,,,,,,,,,,,,,,,,,,a,1,1.0732,"[""0.272"",""0.701"",""0.882"",""0.975""]","[1,0,1,1]",0,47,47,47,1,0,1,,,1,FALSE,,,,,,,,,,,,,,,,,,,,,,,,,,,,,,
,5b3a48e8b6b4410001613060,001,2022-04-29_03h33.53.658,classification_task,2021.2.3,Win32,164.9892757,5b3a48e8b6b4410001613060,626b377229c10585ec392f89,626b4e1360fbb07b480ed873,,,,,,,,,,,,,,,,,,,,,,,l,1,1.0437,"[""0.147"",""0.036"",""0.648"",""0.739""]","[1,0,1,1]",0,48,48,48,1,1,1,,,1,FALSE,,,,,,,,,,,,,,,,,,,,,,,,,,,,,,
,5b3a48e8b6b4410001613060,001,2022-04-29_03h33.53.658,classification_task,2021.2.3,Win32,164.9892757,5b3a48e8b6b4410001613060,626b377229c10585ec392f89,626b4e1360fbb07b480ed873,,,,,,,,,,,,,,,,,,,,,,,a,1,1.0362,"[""0.272"",""0.396"",""0.882"",""0.975""]","[1,0,1,1]",0,49,49,49,1,0,1,,,1,FALSE,,,,,,,,,,,,,,,,,,,,,,,,,,,,,,
,5b3a48e8b6b4410001613060,001,2022-04-29_03h33.53.658,classification_task,2021.2.3,Win32,164.9892757,5b3a48e8b6b4410001613060,626b377229c10585ec392f89,626b4e1360fbb07b480ed873,,,,,,,,,,,,,,,,,,,,,,,a,1,1.145,"[""0.227"",""0.565"",""0.847"",""0.374""]","[1,1,1,0]",0,50,50,50,1,0,0,,,1,FALSE,,,,,,,,,,,,,,,,,,,,,,,,,,,,,,
,5b3a48e8b6b4410001613060,001,2022-04-29_03h33.53.658,classification_task,2021.2.3,Win32,164.9892757,5b3a48e8b6b4410001613060,626b377229c10585ec392f89,626b4e1360fbb07b480ed873,,,,,,,,,,,,,,,,,,,,,,,l,1,1.2248,"[""0.097"",""0.191"",""0.423"",""0.807""]","[1,1,0,1]",0,51,51,51,1,1,0,,,1,FALSE,,,,,,,,,,,,,,,,,,,,,,,,,,,,,,
,5b3a48e8b6b4410001613060,001,2022-04-29_03h33.53.658,classification_task,2021.2.3,Win32,164.9892757,5b3a48e8b6b4410001613060,626b377229c10585ec392f89,626b4e1360fbb07b480ed873,,,,,,,,,,,,,,,,,,,,,,,a,0,2.6005,"[""0.147"",""0.323"",""0.361"",""0.739""]","[1,1,0,1]",0,52,52,52,1,1,1,,,1,FALSE,,,,,,,,,,,,,,,,,,,,,,,,,,,,,,
,5b3a48e8b6b4410001613060,001,2022-04-29_03h33.53.658,classification_task,2021.2.3,Win32,164.9892757,5b3a48e8b6b4410001613060,626b377229c10585ec392f89,626b4e1360fbb07b480ed873,,,,,,,,,,,,,,,,,,,,,,,l,1,0.7222,"[""0.147"",""0.323"",""0.648"",""0.358""]","[1,1,1,0]",0,53,53,53,1,1,1,,,1,FALSE,,,,,,,,,,,,,,,,,,,,,,,,,,,,,,
,5b3a48e8b6b4410001613060,001,2022-04-29_03h33.53.658,classification_task,2021.2.3,Win32,164.9892757,5b3a48e8b6b4410001613060,626b377229c10585ec392f89,626b4e1360fbb07b480ed873,,,,,,,,,,,,,,,,,,,,,,,a,1,1.073,"[""0.272"",""0.466"",""0.048"",""0.975""]","[1,1,0,1]",0,54,54,54,1,0,1,,,1,FALSE,,,,,,,,,,,,,,,,,,,,,,,,,,,,,,
,5b3a48e8b6b4410001613060,001,2022-04-29_03h33.53.658,classification_task,2021.2.3,Win32,164.9892757,5b3a48e8b6b4410001613060,626b377229c10585ec392f89,626b4e1360fbb07b480ed873,,,,,,,,,,,,,,,,,,,,,,,a,1,0.6864,"[""0.227"",""0.565"",""0.361"",""0.929""]","[1,1,0,1]",0,55,55,55,1,0,0,,,1,FALSE,,,,,,,,,,,,,,,,,,,,,,,,,,,,,,
,5b3a48e8b6b4410001613060,001,2022-04-29_03h33.53.658,classification_task,2021.2.3,Win32,164.9892757,5b3a48e8b6b4410001613060,626b377229c10585ec392f89,626b4e1360fbb07b480ed873,,,,,,,,,,,,,,,,,,,,,,,l,0,0.7878,"[""0.036"",""0.565"",""0.847"",""0.929""]","[0,1,1,1]",0,56,56,56,1,0,0,,,1,FALSE,,,,,,,,,,,,,,,,,,,,,,,,,,,,,,
,5b3a48e8b6b4410001613060,001,2022-04-29_03h33.53.658,classification_task,2021.2.3,Win32,164.9892757,5b3a48e8b6b4410001613060,626b377229c10585ec392f89,626b4e1360fbb07b480ed873,,,,,,,,,,,,,,,,,,,,,,,l,1,0.9481,"[""0.097"",""0.191"",""0.506"",""0.372""]","[1,1,1,0]",0,57,57,57,1,1,0,,,1,FALSE,,,,,,,,,,,,,,,,,,,,,,,,,,,,,,
,5b3a48e8b6b4410001613060,001,2022-04-29_03h33.53.658,classification_task,2021.2.3,Win32,164.9892757,5b3a48e8b6b4410001613060,626b377229c10585ec392f89,626b4e1360fbb07b480ed873,,,,,,,,,,,,,,,,,,,,,,,l,1,1.7102,"[""0.097"",""0.701"",""0.506"",""0.807""]","[1,0,1,1]",0,58,58,58,1,1,0,,,1,FALSE,,,,,,,,,,,,,,,,,,,,,,,,,,,,,,
,5b3a48e8b6b4410001613060,001,2022-04-29_03h33.53.658,classification_task,2021.2.3,Win32,164.9892757,5b3a48e8b6b4410001613060,626b377229c10585ec392f89,626b4e1360fbb07b480ed873,,,,,,,,,,,,,,,,,,,,,,,l,1,1.8004,"[""0.374"",""0.191"",""0.506"",""0.807""]","[0,1,1,1]",0,59,59,59,1,1,0,,,1,FALSE,,,,,,,,,,,,,,,,,,,,,,,,,,,,,,
,5b3a48e8b6b4410001613060,001,2022-04-29_03h33.53.658,classification_task,2021.2.3,Win32,164.9892757,5b3a48e8b6b4410001613060,626b377229c10585ec392f89,626b4e1360fbb07b480ed873,,,,,,,,,,,,,,,,,,,,,,,a,1,1.1279,"[""0.058"",""0.466"",""0.882"",""0.975""]","[0,1,1,1]",0,60,60,60,1,0,1,,,1,FALSE,,,,,,,,,,,,,,,,,,,,,,,,,,,,,,
,5b3a48e8b6b4410001613060,001,2022-04-29_03h33.53.658,classification_task,2021.2.3,Win32,164.9892757,5b3a48e8b6b4410001613060,626b377229c10585ec392f89,626b4e1360fbb07b480ed873,,,,,,,,,,,,,,,,,,,,,,,a,1,0.6382,"[""0.227"",""0.688"",""0.847"",""0.929""]","[1,0,1,1]",0,61,61,61,1,0,0,,,1,FALSE,,,,,,,,,,,,,,,,,,,,,,,,,,,,,,
,5b3a48e8b6b4410001613060,001,2022-04-29_03h33.53.658,classification_task,2021.2.3,Win32,164.9892757,5b3a48e8b6b4410001613060,626b377229c10585ec392f89,626b4e1360fbb07b480ed873,,,,,,,,,,,,,,,,,,,,,,,a,0,1.6692,"[""0.421"",""0.323"",""0.648"",""0.739""]","[0,1,1,1]",0,62,62,62,1,1,1,,,1,FALSE,,,,,,,,,,,,,,,,,,,,,,,,,,,,,,
,5b3a48e8b6b4410001613060,001,2022-04-29_03h33.53.658,classification_task,2021.2.3,Win32,164.9892757,5b3a48e8b6b4410001613060,626b377229c10585ec392f89,626b4e1360fbb07b480ed873,,,,,,,,,,,,,,,,,,,,,,,a,1,7.2059,"[""0.272"",""0.466"",""0.882"",""0.358""]","[1,1,1,0]",0,63,63,63,1,0,1,,,1,FALSE,,,,,,,,,,,,,,,,,,,,,,,,,,,,,,
,5b3a48e8b6b4410001613060,001,2022-04-29_03h33.53.658,classification_task,2021.2.3,Win32,164.9892757,5b3a48e8b6b4410001613060,626b377229c10585ec392f89,626b4e1360fbb07b480ed873,,,,,,,,,,,,,,,,,,,,,,,,,,,,,,,,,,,,,,,0, ,,0,4.393739351,185.3502,0,2,2,2,1,2,3,,,,,,,,,,,,,,,,,
,5b3a48e8b6b4410001613060,001,2022-04-29_03h33.53.658,classification_task,2021.2.3,Win32,164.9892757,5b3a48e8b6b4410001613060,626b377229c10585ec392f89,626b4e1360fbb07b480ed873,,,,,,,,,,,,,,,,,,,,,,,,,,,,,,,,,,,,,,,1,  ,,0,6.965755812,187.1928,0,2,2,2,1,2,3,,,,,,,,,,,,,,,,,
,5b3a48e8b6b4410001613060,001,2022-04-29_03h33.53.658,classification_task,2021.2.3,Win32,164.9892757,5b3a48e8b6b4410001613060,626b377229c10585ec392f89,626b4e1360fbb07b480ed873,,,,,,,,,,,,,,,,,,,,,,,,,,,,,,,,,,,,,,,2,  ,,0,6.108416991,189.3447,0,2,2,2,1,2,3,,,,,,,,,,,,,,,,,
,5b3a48e8b6b4410001613060,001,2022-04-29_03h33.53.658,classification_task,2021.2.3,Win32,164.9892757,5b3a48e8b6b4410001613060,626b377229c10585ec392f89,626b4e1360fbb07b480ed873,,,,,,,,,,,,,,,,,,,,,,,,,,,,,,,,,,,,,,,,,,,,,0,2,2,2,1,,3,,,,,,,,,,,,,,,,,
,5b3a48e8b6b4410001613060,001,2022-04-29_03h33.53.658,classification_task,2021.2.3,Win32,164.9892757,5b3a48e8b6b4410001613060,626b377229c10585ec392f89,626b4e1360fbb07b480ed873,,,,,,,,,,,,,,,,,,,,,,,,,,,,,,,,,,,,,,,,,,,,,,,,,,,,,I believe the aid is a competent performer,,0.7,0,4,1280.7481,0,0,0,0,1,0,,,,
,5b3a48e8b6b4410001613060,001,2022-04-29_03h33.53.658,classification_task,2021.2.3,Win32,164.9892757,5b3a48e8b6b4410001613060,626b377229c10585ec392f89,626b4e1360fbb07b480ed873,,,,,,,,,,,,,,,,,,,,,,,,,,,,,,,,,,,,,,,,,,,,,,,,,,,,,I trust the aid,,0.7,0,5,1281.8878,0,0,0,0,1,0,,,,
,5b3a48e8b6b4410001613060,001,2022-04-29_03h33.53.658,classification_task,2021.2.3,Win32,164.9892757,5b3a48e8b6b4410001613060,626b377229c10585ec392f89,626b4e1360fbb07b480ed873,,,,,,,,,,,,,,,,,,,,,,,,,,,,,,,,,,,,,,,,,,,,,,,,,,,,,I have confidence in the advice given by the aid,,0.7,0,4,1283.8616,0,0,0,0,1,0,,,,
,5b3a48e8b6b4410001613060,001,2022-04-29_03h33.53.658,classification_task,2021.2.3,Win32,164.9892757,5b3a48e8b6b4410001613060,626b377229c10585ec392f89,626b4e1360fbb07b480ed873,,,,,,,,,,,,,,,,,,,,,,,,,,,,,,,,,,,,,,,,,,,,,,,,,,,,,I can depend on the aid,,0.7,0,4,1285.2123,0,0,0,0,1,0,,,,
,5b3a48e8b6b4410001613060,001,2022-04-29_03h33.53.658,classification_task,2021.2.3,Win32,164.9892757,5b3a48e8b6b4410001613060,626b377229c10585ec392f89,626b4e1360fbb07b480ed873,,,,,,,,,,,,,,,,,,,,,,,,,,,,,,,,,,,,,,,,,,,,,,,,,,,,,I can rely on the aid to behave in consistent ways,,0.7,0,4,1286.891,0,0,0,0,1,0,,,,
,5b3a48e8b6b4410001613060,001,2022-04-29_03h33.53.658,classification_task,2021.2.3,Win32,164.9892757,5b3a48e8b6b4410001613060,626b377229c10585ec392f89,626b4e1360fbb07b480ed873,,,,,,,,,,,,,,,,,,,,,,,,,,,,,,,,,,,,,,,,,,,,,,,,,,,,,I can rely on the aid to do its best every time I take its advice,,0.7,0,4,1291.1188,0,0,0,0,1,0,,,,
,5b3a48e8b6b4410001613060,001,2022-04-29_03h33.53.658,classification_task,2021.2.3,Win32,164.9892757,5b3a48e8b6b4410001613060,626b377229c10585ec392f89,626b4e1360fbb07b480ed873,,,,,,,,,,,,,,,,,,,,,,,,,,,,,,,,,,,,,,,,,,,,,,,,,,,,,"On trials you completed with assistance from the aid, how frequently did you think the aid was correct?",,0.7,0,80%,,0,0,0,0,1,0,,,,
,5b3a48e8b6b4410001613060,001,2022-04-29_03h33.53.658,classification_task,2021.2.3,Win32,164.9892757,5b3a48e8b6b4410001613060,626b377229c10585ec392f89,626b4e1360fbb07b480ed873,,,,,,,,,,,,,,,,,,,,,,,,,,,,,,,,,,,,,,,,,,,,,,,,,,,,,"On trials you completed without the aid, how frequently did you think you were correct?",,0.7,0,60%,,0,0,0,0,1,0,,,,
,5b3a48e8b6b4410001613060,001,2022-04-29_03h33.53.658,classification_task,2021.2.3,Win32,164.9892757,5b3a48e8b6b4410001613060,626b377229c10585ec392f89,626b4e1360fbb07b480ed873,,,,,,,,,,,,,,,,,,,,,,,,,,,,,,,,,,,,,,,,,,,,,,,,,,,,,,,,,,,0,0,0,0,1,,,,,
,5b3a48e8b6b4410001613060,001,2022-04-29_03h33.53.658,classification_task,2021.2.3,Win32,164.9892757,5b3a48e8b6b4410001613060,626b377229c10585ec392f89,626b4e1360fbb07b480ed873,,,,,,,,,,,,,,,,,,,,,,,,,,,,,,,,,,,,,,,,,,,,,,,,,,,,,,,,,,,,,,,,,space,21.8093,1336.9184,
,5b3a48e8b6b4410001613060,001,2022-04-29_03h33.53.658,classification_task,2021.2.3,Win32,164.9892757,5b3a48e8b6b4410001613060,626b377229c10585ec392f89,626b4e1360fbb07b480ed873,,,,,,,,,,,,,,,,,,,,,,,,,,,,,,,,,,,,,,,,,,,,,,,,,,,,,,,,,,,,,,,,,,,,"Mozilla/5.0 (Windows NT 10.0; Win64; x64) AppleWebKit/537.36 (KHTML, like Gecko) Chrome/101.0.4951.41 Safari/537.36"
