usingWebGL,participant,session,date,expName,psychopyVersion,OS,frameRate,study_id,signatures_friend,signatures_foe,band_ranges_top,band_ranges_bottom,formitemText,formtype,formundefined,formitemWidth,formindex,formresponse,formrt,key_resp_2.keys,key_resp_2.rt,tute_resp.keys,tute_resp.rt,tutorial.thisRepN,tutorial.thisTrialN,tutorial.thisN,tutorial.thisIndex,tutorial.ran,key_resp_4.keys,key_resp_4.rt,key_resp.keys,key_resp.corr,key_resp.rt,lines_presented,is_signal_presented,trials.thisRepN,trials.thisTrialN,trials.thisN,trials.thisIndex,trials.ran,vessel,active_band,lines,is_signal,supported_pos,catch_trial,debrief_formindex,debrief_formitemText,debrief_formtype,debrief_formitemWidth,debrief_formresponse,debrief_formrt,phases.thisRepN,phases.thisTrialN,phases.thisN,phases.thisIndex,phases.ran,phases.order,phase,key_resp_3.keys,trustitemText,trusttype,trustitemWidth,trustindex,trustresponse,trustrt,support_status.thisRepN,support_status.thisTrialN,support_status.thisN,support_status.thisIndex,support_status.ran,support_status.order,key_resp_5.keys,key_resp_5.rt,globalClockTime,userAgent,manualCondition
TRUE,5b77869d338a9300015468cf,627c6fd9d1967c145333bea6,2022-05-11_22h24.55.751,classification_task,2021.2.3,Win32,59.9880024,627c6715c52fd12f31907bd0,,,,,,,,,,,,,,,,,,,,,,,,,,,,,,,,,,,,,,,,,,,,,,,,,,,,,,,,,,,,,,,,,,,,,
,5b77869d338a9300015468cf,627c6fd9d1967c145333bea6,2022-05-11_22h24.55.751,classification_task,2021.2.3,Win32,59.9880024,627c6715c52fd12f31907bd0,"[[""0.274"",""0.394"",""0.847"",""0.934""],[""0.314"",""0.552"",""0.710"",""0.891""]]","[[""0.137"",""0.350"",""0.604"",""0.788""],[""0.054"",""0.208"",""0.479"",""0.752""]]","[1,10]","[100,1000]",Video game experience,,,0.7,0,,,,,,,,,,,,,,,,,,,,,,,,,,,,,,,,,,,,,,,,,,,,,,,,,,,,,,,,,,,,
,5b77869d338a9300015468cf,627c6fd9d1967c145333bea6,2022-05-11_22h24.55.751,classification_task,2021.2.3,Win32,59.9880024,627c6715c52fd12f31907bd0,,,,,Approximately how many hours did you spend playing video games in the last week?,,,0.7,0,15,,,,,,,,,,,,,,,,,,,,,,,,,,,,,,,,,,,,,,,,,,,,,,,,,,,,,,,,,,,
,5b77869d338a9300015468cf,627c6fd9d1967c145333bea6,2022-05-11_22h24.55.751,classification_task,2021.2.3,Win32,59.9880024,627c6715c52fd12f31907bd0,,,,,"Which game did you play the most this year? (Enter ""None"" if you didn't play any)",,,0.7,0,Overwatch,,,,,,,,,,,,,,,,,,,,,,,,,,,,,,,,,,,,,,,,,,,,,,,,,,,,,,,,,,,
,5b77869d338a9300015468cf,627c6fd9d1967c145333bea6,2022-05-11_22h24.55.751,classification_task,2021.2.3,Win32,59.9880024,627c6715c52fd12f31907bd0,,,,,Visual perception,,,0.7,0,,,,,,,,,,,,,,,,,,,,,,,,,,,,,,,,,,,,,,,,,,,,,,,,,,,,,,,,,,,,
,5b77869d338a9300015468cf,627c6fd9d1967c145333bea6,2022-05-11_22h24.55.751,classification_task,2021.2.3,Win32,59.9880024,627c6715c52fd12f31907bd0,,,,,Do you have any form of color blindness?,,,0.7,0,No,20.7889,,,,,,,,,,,,,,,,,,,,,,,,,,,,,,,,,,,,,,,,,,,,,,,,,,,,,,,,,,
,5b77869d338a9300015468cf,627c6fd9d1967c145333bea6,2022-05-11_22h24.55.751,classification_task,2021.2.3,Win32,59.9880024,627c6715c52fd12f31907bd0,,,,,Do you use software to change the colour temperature of your screen (e.g. f.lux)?,,,0.7,0,No,25.8459,,,,,,,,,,,,,,,,,,,,,,,,,,,,,,,,,,,,,,,,,,,,,,,,,,,,,,,,,,
,5b77869d338a9300015468cf,627c6fd9d1967c145333bea6,2022-05-11_22h24.55.751,classification_task,2021.2.3,Win32,59.9880024,627c6715c52fd12f31907bd0,,,,,,,,,,,,space,20.1266,space,6.6263,0,0,0,0,1,,,,,,,,,,,,,,,,,,,,,,,,,,,,,,,,,,,,,,,,,,,,,,,,,
,5b77869d338a9300015468cf,627c6fd9d1967c145333bea6,2022-05-11_22h24.55.751,classification_task,2021.2.3,Win32,59.9880024,627c6715c52fd12f31907bd0,,,,,,,,,,,,,,space,5.2662,1,0,1,0,1,,,,,,,,,,,,,,,,,,,,,,,,,,,,,,,,,,,,,,,,,,,,,,,,,
,5b77869d338a9300015468cf,627c6fd9d1967c145333bea6,2022-05-11_22h24.55.751,classification_task,2021.2.3,Win32,59.9880024,627c6715c52fd12f31907bd0,,,,,,,,,,,,,,space,16.8103,2,0,2,0,1,,,,,,,,,,,,,,,,,,,,,,,,,,,,,,,,,,,,,,,,,,,,,,,,,
,5b77869d338a9300015468cf,627c6fd9d1967c145333bea6,2022-05-11_22h24.55.751,classification_task,2021.2.3,Win32,59.9880024,627c6715c52fd12f31907bd0,,,,,,,,,,,,,,space,3.2501,3,0,3,0,1,,,,,,,,,,,,,,,,,,,,,,,,,,,,,,,,,,,,,,,,,,,,,,,,,
,5b77869d338a9300015468cf,627c6fd9d1967c145333bea6,2022-05-11_22h24.55.751,classification_task,2021.2.3,Win32,59.9880024,627c6715c52fd12f31907bd0,,,,,,,,,,,,,,space,21.1636,4,0,4,0,1,,,,,,,,,,,,,,,,,,,,,,,,,,,,,,,,,,,,,,,,,,,,,,,,,
,5b77869d338a9300015468cf,627c6fd9d1967c145333bea6,2022-05-11_22h24.55.751,classification_task,2021.2.3,Win32,59.9880024,627c6715c52fd12f31907bd0,,,,,,,,,,,,,,,,,,,,,space,15.3324,l,1,3.4125,"[""0.054"",""0.208"",""0.479"",""0.431""]","[1,1,1,0]",0,0,0,0,1,1,1,,,1,FALSE,,,,,,,,,,,,,,,,,,,,,,,,,,,,,,,
,5b77869d338a9300015468cf,627c6fd9d1967c145333bea6,2022-05-11_22h24.55.751,classification_task,2021.2.3,Win32,59.9880024,627c6715c52fd12f31907bd0,,,,,,,,,,,,,,,,,,,,,,,l,1,4.9268,"[""0.515"",""0.350"",""0.604"",""0.788""]","[0,1,1,1]",0,1,1,1,1,1,0,,,1,FALSE,,,,,,,,,,,,,,,,,,,,,,,,,,,,,,,
,5b77869d338a9300015468cf,627c6fd9d1967c145333bea6,2022-05-11_22h24.55.751,classification_task,2021.2.3,Win32,59.9880024,627c6715c52fd12f31907bd0,,,,,,,,,,,,,,,,,,,,,,,l,1,3.2223,"[""0.137"",""0.350"",""0.431"",""0.788""]","[1,1,0,1]",0,2,2,2,1,1,0,,,1,FALSE,,,,,,,,,,,,,,,,,,,,,,,,,,,,,,,
,5b77869d338a9300015468cf,627c6fd9d1967c145333bea6,2022-05-11_22h24.55.751,classification_task,2021.2.3,Win32,59.9880024,627c6715c52fd12f31907bd0,,,,,,,,,,,,,,,,,,,,,,,a,1,2.8548,"[""0.274"",""0.662"",""0.847"",""0.934""]","[1,0,1,1]",0,3,3,3,1,0,0,,,1,FALSE,,,,,,,,,,,,,,,,,,,,,,,,,,,,,,,
,5b77869d338a9300015468cf,627c6fd9d1967c145333bea6,2022-05-11_22h24.55.751,classification_task,2021.2.3,Win32,59.9880024,627c6715c52fd12f31907bd0,,,,,,,,,,,,,,,,,,,,,,,l,1,2.6958,"[""0.054"",""0.430"",""0.479"",""0.752""]","[1,0,1,1]",0,4,4,4,1,1,1,,,1,FALSE,,,,,,,,,,,,,,,,,,,,,,,,,,,,,,,
,5b77869d338a9300015468cf,627c6fd9d1967c145333bea6,2022-05-11_22h24.55.751,classification_task,2021.2.3,Win32,59.9880024,627c6715c52fd12f31907bd0,,,,,,,,,,,,,,,,,,,,,,,a,1,3.5789,"[""0.314"",""0.552"",""0.710"",""0.667""]","[1,1,1,0]",0,5,5,5,1,0,1,,,1,FALSE,,,,,,,,,,,,,,,,,,,,,,,,,,,,,,,
,5b77869d338a9300015468cf,627c6fd9d1967c145333bea6,2022-05-11_22h24.55.751,classification_task,2021.2.3,Win32,59.9880024,627c6715c52fd12f31907bd0,,,,,,,,,,,,,,,,,,,,,,,l,1,2.2418,"[""0.137"",""0.646"",""0.604"",""0.788""]","[1,0,1,1]",0,6,6,6,1,1,0,,,1,FALSE,,,,,,,,,,,,,,,,,,,,,,,,,,,,,,,
,5b77869d338a9300015468cf,627c6fd9d1967c145333bea6,2022-05-11_22h24.55.751,classification_task,2021.2.3,Win32,59.9880024,627c6715c52fd12f31907bd0,,,,,,,,,,,,,,,,,,,,,,,a,0,6.789,"[""0.439"",""0.208"",""0.479"",""0.752""]","[0,1,1,1]",0,7,7,7,1,1,1,,,1,FALSE,,,,,,,,,,,,,,,,,,,,,,,,,,,,,,,
,5b77869d338a9300015468cf,627c6fd9d1967c145333bea6,2022-05-11_22h24.55.751,classification_task,2021.2.3,Win32,59.9880024,627c6715c52fd12f31907bd0,,,,,,,,,,,,,,,,,,,,,,,a,1,6.0767,"[""0.641"",""0.394"",""0.847"",""0.934""]","[0,1,1,1]",0,8,8,8,1,0,0,,,1,FALSE,,,,,,,,,,,,,,,,,,,,,,,,,,,,,,,
,5b77869d338a9300015468cf,627c6fd9d1967c145333bea6,2022-05-11_22h24.55.751,classification_task,2021.2.3,Win32,59.9880024,627c6715c52fd12f31907bd0,,,,,,,,,,,,,,,,,,,,,,,l,0,4.6357,"[""0.274"",""0.394"",""0.847"",""0.671""]","[1,1,1,0]",0,9,9,9,1,0,0,,,1,FALSE,,,,,,,,,,,,,,,,,,,,,,,,,,,,,,,
,5b77869d338a9300015468cf,627c6fd9d1967c145333bea6,2022-05-11_22h24.55.751,classification_task,2021.2.3,Win32,59.9880024,627c6715c52fd12f31907bd0,,,,,,,,,,,,,,,,,,,,,,,a,1,5.1662,"[""0.314"",""0.515"",""0.710"",""0.891""]","[1,0,1,1]",0,10,10,10,1,0,1,,,1,FALSE,,,,,,,,,,,,,,,,,,,,,,,,,,,,,,,
,5b77869d338a9300015468cf,627c6fd9d1967c145333bea6,2022-05-11_22h24.55.751,classification_task,2021.2.3,Win32,59.9880024,627c6715c52fd12f31907bd0,,,,,,,,,,,,,,,,,,,,,,,a,1,3.7725,"[""0.314"",""0.552"",""0.429"",""0.891""]","[1,1,0,1]",0,11,11,11,1,0,1,,,1,FALSE,,,,,,,,,,,,,,,,,,,,,,,,,,,,,,,
,5b77869d338a9300015468cf,627c6fd9d1967c145333bea6,2022-05-11_22h24.55.751,classification_task,2021.2.3,Win32,59.9880024,627c6715c52fd12f31907bd0,,,,,,,,,,,,,,,,,,,,,,,l,1,3.3888,"[""0.137"",""0.350"",""0.604"",""0.969""]","[1,1,1,0]",0,12,12,12,1,1,0,,,1,FALSE,,,,,,,,,,,,,,,,,,,,,,,,,,,,,,,
,5b77869d338a9300015468cf,627c6fd9d1967c145333bea6,2022-05-11_22h24.55.751,classification_task,2021.2.3,Win32,59.9880024,627c6715c52fd12f31907bd0,,,,,,,,,,,,,,,,,,,,,,,a,1,6.6375,"[""0.274"",""0.394"",""0.969"",""0.934""]","[1,1,0,1]",0,13,13,13,1,0,0,,,1,FALSE,,,,,,,,,,,,,,,,,,,,,,,,,,,,,,,
,5b77869d338a9300015468cf,627c6fd9d1967c145333bea6,2022-05-11_22h24.55.751,classification_task,2021.2.3,Win32,59.9880024,627c6715c52fd12f31907bd0,,,,,,,,,,,,,,,,,,,,,,,l,1,2.4288,"[""0.054"",""0.208"",""0.969"",""0.752""]","[1,1,0,1]",0,14,14,14,1,1,1,,,1,FALSE,,,,,,,,,,,,,,,,,,,,,,,,,,,,,,,
,5b77869d338a9300015468cf,627c6fd9d1967c145333bea6,2022-05-11_22h24.55.751,classification_task,2021.2.3,Win32,59.9880024,627c6715c52fd12f31907bd0,,,,,,,,,,,,,,,,,,,,,,,a,1,9.1332,"[""0.671"",""0.552"",""0.710"",""0.891""]","[0,1,1,1]",0,15,15,15,1,0,1,,,1,FALSE,,,,,,,,,,,,,,,,,,,,,,,,,,,,,,,
,5b77869d338a9300015468cf,627c6fd9d1967c145333bea6,2022-05-11_22h24.55.751,classification_task,2021.2.3,Win32,59.9880024,627c6715c52fd12f31907bd0,,,,,,,,,,,,,,,,,,,,,,,l,0,3.9196,"[""0.314"",""0.098"",""0.710"",""0.891""]","[1,0,1,1]",0,16,16,16,1,0,1,,,1,FALSE,,,,,,,,,,,,,,,,,,,,,,,,,,,,,,,
,5b77869d338a9300015468cf,627c6fd9d1967c145333bea6,2022-05-11_22h24.55.751,classification_task,2021.2.3,Win32,59.9880024,627c6715c52fd12f31907bd0,,,,,,,,,,,,,,,,,,,,,,,l,1,4.3481,"[""0.137"",""0.350"",""0.604"",""0.098""]","[1,1,1,0]",0,17,17,17,1,1,0,,,1,FALSE,,,,,,,,,,,,,,,,,,,,,,,,,,,,,,,
,5b77869d338a9300015468cf,627c6fd9d1967c145333bea6,2022-05-11_22h24.55.751,classification_task,2021.2.3,Win32,59.9880024,627c6715c52fd12f31907bd0,,,,,,,,,,,,,,,,,,,,,,,l,1,4.9072,"[""0.098"",""0.208"",""0.479"",""0.752""]","[0,1,1,1]",0,18,18,18,1,1,1,,,1,FALSE,,,,,,,,,,,,,,,,,,,,,,,,,,,,,,,
,5b77869d338a9300015468cf,627c6fd9d1967c145333bea6,2022-05-11_22h24.55.751,classification_task,2021.2.3,Win32,59.9880024,627c6715c52fd12f31907bd0,,,,,,,,,,,,,,,,,,,,,,,a,1,2.7924,"[""0.274"",""0.394"",""0.847"",""0.513""]","[1,1,1,0]",0,19,19,19,1,0,0,,,1,FALSE,,,,,,,,,,,,,,,,,,,,,,,,,,,,,,,
,5b77869d338a9300015468cf,627c6fd9d1967c145333bea6,2022-05-11_22h24.55.751,classification_task,2021.2.3,Win32,59.9880024,627c6715c52fd12f31907bd0,,,,,,,,,,,,,,,,,,,,,,,a,1,5.229,"[""0.314"",""0.552"",""0.513"",""0.891""]","[1,1,0,1]",0,20,20,20,1,0,1,,,1,FALSE,,,,,,,,,,,,,,,,,,,,,,,,,,,,,,,
,5b77869d338a9300015468cf,627c6fd9d1967c145333bea6,2022-05-11_22h24.55.751,classification_task,2021.2.3,Win32,59.9880024,627c6715c52fd12f31907bd0,,,,,,,,,,,,,,,,,,,,,,,a,1,3.7881,"[""0.641"",""0.552"",""0.710"",""0.891""]","[0,1,1,1]",0,21,21,21,1,0,1,,,1,FALSE,,,,,,,,,,,,,,,,,,,,,,,,,,,,,,,
,5b77869d338a9300015468cf,627c6fd9d1967c145333bea6,2022-05-11_22h24.55.751,classification_task,2021.2.3,Win32,59.9880024,627c6715c52fd12f31907bd0,,,,,,,,,,,,,,,,,,,,,,,l,1,1.991,"[""0.054"",""0.208"",""0.430"",""0.752""]","[1,1,0,1]",0,22,22,22,1,1,1,,,1,FALSE,,,,,,,,,,,,,,,,,,,,,,,,,,,,,,,
,5b77869d338a9300015468cf,627c6fd9d1967c145333bea6,2022-05-11_22h24.55.751,classification_task,2021.2.3,Win32,59.9880024,627c6715c52fd12f31907bd0,,,,,,,,,,,,,,,,,,,,,,,l,1,1.221,"[""0.054"",""0.208"",""0.479"",""0.638""]","[1,1,1,0]",0,23,23,23,1,1,1,,,1,FALSE,,,,,,,,,,,,,,,,,,,,,,,,,,,,,,,
,5b77869d338a9300015468cf,627c6fd9d1967c145333bea6,2022-05-11_22h24.55.751,classification_task,2021.2.3,Win32,59.9880024,627c6715c52fd12f31907bd0,,,,,,,,,,,,,,,,,,,,,,,a,1,2.2927,"[""0.969"",""0.394"",""0.847"",""0.934""]","[0,1,1,1]",0,24,24,24,1,0,0,,,1,FALSE,,,,,,,,,,,,,,,,,,,,,,,,,,,,,,,
,5b77869d338a9300015468cf,627c6fd9d1967c145333bea6,2022-05-11_22h24.55.751,classification_task,2021.2.3,Win32,59.9880024,627c6715c52fd12f31907bd0,,,,,,,,,,,,,,,,,,,,,,,a,1,3.2003,"[""0.274"",""0.394"",""0.429"",""0.934""]","[1,1,0,1]",0,25,25,25,1,0,0,,,1,FALSE,,,,,,,,,,,,,,,,,,,,,,,,,,,,,,,
,5b77869d338a9300015468cf,627c6fd9d1967c145333bea6,2022-05-11_22h24.55.751,classification_task,2021.2.3,Win32,59.9880024,627c6715c52fd12f31907bd0,,,,,,,,,,,,,,,,,,,,,,,l,1,2.5378,"[""0.137"",""0.350"",""0.513"",""0.788""]","[1,1,0,1]",0,26,26,26,1,1,0,,,1,FALSE,,,,,,,,,,,,,,,,,,,,,,,,,,,,,,,
,5b77869d338a9300015468cf,627c6fd9d1967c145333bea6,2022-05-11_22h24.55.751,classification_task,2021.2.3,Win32,59.9880024,627c6715c52fd12f31907bd0,,,,,,,,,,,,,,,,,,,,,,,a,1,4.1246,"[""0.314"",""0.552"",""0.710"",""0.431""]","[1,1,1,0]",0,27,27,27,1,0,1,,,1,FALSE,,,,,,,,,,,,,,,,,,,,,,,,,,,,,,,
,5b77869d338a9300015468cf,627c6fd9d1967c145333bea6,2022-05-11_22h24.55.751,classification_task,2021.2.3,Win32,59.9880024,627c6715c52fd12f31907bd0,,,,,,,,,,,,,,,,,,,,,,,l,1,1.8747,"[""0.638"",""0.350"",""0.604"",""0.788""]","[0,1,1,1]",0,28,28,28,1,1,0,,,1,FALSE,,,,,,,,,,,,,,,,,,,,,,,,,,,,,,,
,5b77869d338a9300015468cf,627c6fd9d1967c145333bea6,2022-05-11_22h24.55.751,classification_task,2021.2.3,Win32,59.9880024,627c6715c52fd12f31907bd0,,,,,,,,,,,,,,,,,,,,,,,l,1,1.4675,"[""0.054"",""0.969"",""0.479"",""0.752""]","[1,0,1,1]",0,29,29,29,1,1,1,,,1,FALSE,,,,,,,,,,,,,,,,,,,,,,,,,,,,,,,
,5b77869d338a9300015468cf,627c6fd9d1967c145333bea6,2022-05-11_22h24.55.751,classification_task,2021.2.3,Win32,59.9880024,627c6715c52fd12f31907bd0,,,,,,,,,,,,,,,,,,,,,,,l,1,2.2674,"[""0.137"",""0.513"",""0.604"",""0.788""]","[1,0,1,1]",0,30,30,30,1,1,0,,,1,FALSE,,,,,,,,,,,,,,,,,,,,,,,,,,,,,,,
,5b77869d338a9300015468cf,627c6fd9d1967c145333bea6,2022-05-11_22h24.55.751,classification_task,2021.2.3,Win32,59.9880024,627c6715c52fd12f31907bd0,,,,,,,,,,,,,,,,,,,,,,,a,1,2.4055,"[""0.274"",""0.969"",""0.847"",""0.934""]","[1,0,1,1]",0,31,31,31,1,0,0,,,1,FALSE,,,,,,,,,,,,,,,,,,,,,,,,,,,,,,,
,5b77869d338a9300015468cf,627c6fd9d1967c145333bea6,2022-05-11_22h24.55.751,classification_task,2021.2.3,Win32,59.9880024,627c6715c52fd12f31907bd0,,,,,,,,,,,,,,,,,,,,,,,l,0,3.9132,"[""0.314"",""0.552"",""0.098"",""0.891""]","[1,1,0,1]",0,32,32,32,1,0,1,,,1,FALSE,,,,,,,,,,,,,,,,,,,,,,,,,,,,,,,
,5b77869d338a9300015468cf,627c6fd9d1967c145333bea6,2022-05-11_22h24.55.751,classification_task,2021.2.3,Win32,59.9880024,627c6715c52fd12f31907bd0,,,,,,,,,,,,,,,,,,,,,,,a,0,2.7695,"[""0.439"",""0.350"",""0.604"",""0.788""]","[0,1,1,1]",0,33,33,33,1,1,0,,,1,FALSE,,,,,,,,,,,,,,,,,,,,,,,,,,,,,,,
,5b77869d338a9300015468cf,627c6fd9d1967c145333bea6,2022-05-11_22h24.55.751,classification_task,2021.2.3,Win32,59.9880024,627c6715c52fd12f31907bd0,,,,,,,,,,,,,,,,,,,,,,,a,1,2.4732,"[""0.274"",""0.394"",""0.847"",""0.638""]","[1,1,1,0]",0,34,34,34,1,0,0,,,1,FALSE,,,,,,,,,,,,,,,,,,,,,,,,,,,,,,,
,5b77869d338a9300015468cf,627c6fd9d1967c145333bea6,2022-05-11_22h24.55.751,classification_task,2021.2.3,Win32,59.9880024,627c6715c52fd12f31907bd0,,,,,,,,,,,,,,,,,,,,,,,l,1,1.227,"[""0.054"",""0.208"",""0.430"",""0.752""]","[1,1,0,1]",0,35,35,35,1,1,1,,,1,FALSE,,,,,,,,,,,,,,,,,,,,,,,,,,,,,,,
,5b77869d338a9300015468cf,627c6fd9d1967c145333bea6,2022-05-11_22h24.55.751,classification_task,2021.2.3,Win32,59.9880024,627c6715c52fd12f31907bd0,,,,,,,,,,,,,,,,,,,,,,,a,0,3.5179,"[""0.137"",""0.350"",""0.098"",""0.788""]","[1,1,0,1]",0,36,36,36,1,1,0,,,1,FALSE,,,,,,,,,,,,,,,,,,,,,,,,,,,,,,,
,5b77869d338a9300015468cf,627c6fd9d1967c145333bea6,2022-05-11_22h24.55.751,classification_task,2021.2.3,Win32,59.9880024,627c6715c52fd12f31907bd0,,,,,,,,,,,,,,,,,,,,,,,l,1,1.0775,"[""0.054"",""0.662"",""0.479"",""0.752""]","[1,0,1,1]",0,37,37,37,1,1,1,,,1,FALSE,,,,,,,,,,,,,,,,,,,,,,,,,,,,,,,
,5b77869d338a9300015468cf,627c6fd9d1967c145333bea6,2022-05-11_22h24.55.751,classification_task,2021.2.3,Win32,59.9880024,627c6715c52fd12f31907bd0,,,,,,,,,,,,,,,,,,,,,,,a,1,2.534,"[""0.434"",""0.552"",""0.710"",""0.891""]","[0,1,1,1]",0,38,38,38,1,0,1,,,1,FALSE,,,,,,,,,,,,,,,,,,,,,,,,,,,,,,,
,5b77869d338a9300015468cf,627c6fd9d1967c145333bea6,2022-05-11_22h24.55.751,classification_task,2021.2.3,Win32,59.9880024,627c6715c52fd12f31907bd0,,,,,,,,,,,,,,,,,,,,,,,a,1,1.8714,"[""0.274"",""0.515"",""0.847"",""0.934""]","[1,0,1,1]",0,39,39,39,1,0,0,,,1,FALSE,,,,,,,,,,,,,,,,,,,,,,,,,,,,,,,
,5b77869d338a9300015468cf,627c6fd9d1967c145333bea6,2022-05-11_22h24.55.751,classification_task,2021.2.3,Win32,59.9880024,627c6715c52fd12f31907bd0,,,,,,,,,,,,,,,,,,,,,,,a,1,1.8283,"[""0.314"",""0.552"",""0.710"",""0.969""]","[1,1,1,0]",0,40,40,40,1,0,1,,,1,FALSE,,,,,,,,,,,,,,,,,,,,,,,,,,,,,,,
,5b77869d338a9300015468cf,627c6fd9d1967c145333bea6,2022-05-11_22h24.55.751,classification_task,2021.2.3,Win32,59.9880024,627c6715c52fd12f31907bd0,,,,,,,,,,,,,,,,,,,,,,,a,1,3.9717,"[""0.274"",""0.394"",""0.429"",""0.934""]","[1,1,0,1]",0,41,41,41,1,0,0,,,1,FALSE,,,,,,,,,,,,,,,,,,,,,,,,,,,,,,,
,5b77869d338a9300015468cf,627c6fd9d1967c145333bea6,2022-05-11_22h24.55.751,classification_task,2021.2.3,Win32,59.9880024,627c6715c52fd12f31907bd0,,,,,,,,,,,,,,,,,,,,,,,a,0,3.2226,"[""0.671"",""0.208"",""0.479"",""0.752""]","[0,1,1,1]",0,42,42,42,1,1,1,,,1,FALSE,,,,,,,,,,,,,,,,,,,,,,,,,,,,,,,
,5b77869d338a9300015468cf,627c6fd9d1967c145333bea6,2022-05-11_22h24.55.751,classification_task,2021.2.3,Win32,59.9880024,627c6715c52fd12f31907bd0,,,,,,,,,,,,,,,,,,,,,,,a,1,1.4775,"[""0.314"",""0.434"",""0.710"",""0.891""]","[1,0,1,1]",0,43,43,43,1,0,1,,,1,FALSE,,,,,,,,,,,,,,,,,,,,,,,,,,,,,,,
,5b77869d338a9300015468cf,627c6fd9d1967c145333bea6,2022-05-11_22h24.55.751,classification_task,2021.2.3,Win32,59.9880024,627c6715c52fd12f31907bd0,,,,,,,,,,,,,,,,,,,,,,,l,1,1.4397,"[""0.137"",""0.662"",""0.604"",""0.788""]","[1,0,1,1]",0,44,44,44,1,1,0,,,1,FALSE,,,,,,,,,,,,,,,,,,,,,,,,,,,,,,,
,5b77869d338a9300015468cf,627c6fd9d1967c145333bea6,2022-05-11_22h24.55.751,classification_task,2021.2.3,Win32,59.9880024,627c6715c52fd12f31907bd0,,,,,,,,,,,,,,,,,,,,,,,l,1,1.7138,"[""0.137"",""0.350"",""0.604"",""0.513""]","[1,1,1,0]",0,45,45,45,1,1,0,,,1,FALSE,,,,,,,,,,,,,,,,,,,,,,,,,,,,,,,
,5b77869d338a9300015468cf,627c6fd9d1967c145333bea6,2022-05-11_22h24.55.751,classification_task,2021.2.3,Win32,59.9880024,627c6715c52fd12f31907bd0,,,,,,,,,,,,,,,,,,,,,,,a,1,1.23,"[""0.646"",""0.394"",""0.847"",""0.934""]","[0,1,1,1]",0,46,46,46,1,0,0,,,1,FALSE,,,,,,,,,,,,,,,,,,,,,,,,,,,,,,,
,5b77869d338a9300015468cf,627c6fd9d1967c145333bea6,2022-05-11_22h24.55.751,classification_task,2021.2.3,Win32,59.9880024,627c6715c52fd12f31907bd0,,,,,,,,,,,,,,,,,,,,,,,l,1,1.2556,"[""0.054"",""0.208"",""0.479"",""0.513""]","[1,1,1,0]",0,47,47,47,1,1,1,,,1,FALSE,,,,,,,,,,,,,,,,,,,,,,,,,,,,,,,
,5b77869d338a9300015468cf,627c6fd9d1967c145333bea6,2022-05-11_22h24.55.751,classification_task,2021.2.3,Win32,59.9880024,627c6715c52fd12f31907bd0,,,,,,,,,,,,,,,,,,,,,,,l,1,4.134,"[""0.137"",""0.350"",""0.604"",""0.667""]","[1,1,1,0]",0,48,48,48,1,1,0,,,1,FALSE,,,,,,,,,,,,,,,,,,,,,,,,,,,,,,,
,5b77869d338a9300015468cf,627c6fd9d1967c145333bea6,2022-05-11_22h24.55.751,classification_task,2021.2.3,Win32,59.9880024,627c6715c52fd12f31907bd0,,,,,,,,,,,,,,,,,,,,,,,a,1,1.2736,"[""0.314"",""0.662"",""0.710"",""0.891""]","[1,0,1,1]",0,49,49,49,1,0,1,,,1,FALSE,,,,,,,,,,,,,,,,,,,,,,,,,,,,,,,
,5b77869d338a9300015468cf,627c6fd9d1967c145333bea6,2022-05-11_22h24.55.751,classification_task,2021.2.3,Win32,59.9880024,627c6715c52fd12f31907bd0,,,,,,,,,,,,,,,,,,,,,,,a,0,3.5009,"[""0.137"",""0.350"",""0.098"",""0.788""]","[1,1,0,1]",0,50,50,50,1,1,0,,,1,FALSE,,,,,,,,,,,,,,,,,,,,,,,,,,,,,,,
,5b77869d338a9300015468cf,627c6fd9d1967c145333bea6,2022-05-11_22h24.55.751,classification_task,2021.2.3,Win32,59.9880024,627c6715c52fd12f31907bd0,,,,,,,,,,,,,,,,,,,,,,,l,1,1.3048,"[""0.054"",""0.208"",""0.479"",""0.662""]","[1,1,1,0]",0,51,51,51,1,1,1,,,1,FALSE,,,,,,,,,,,,,,,,,,,,,,,,,,,,,,,
,5b77869d338a9300015468cf,627c6fd9d1967c145333bea6,2022-05-11_22h24.55.751,classification_task,2021.2.3,Win32,59.9880024,627c6715c52fd12f31907bd0,,,,,,,,,,,,,,,,,,,,,,,a,1,1.7154,"[""0.274"",""0.667"",""0.847"",""0.934""]","[1,0,1,1]",0,52,52,52,1,0,0,,,1,FALSE,,,,,,,,,,,,,,,,,,,,,,,,,,,,,,,
,5b77869d338a9300015468cf,627c6fd9d1967c145333bea6,2022-05-11_22h24.55.751,classification_task,2021.2.3,Win32,59.9880024,627c6715c52fd12f31907bd0,,,,,,,,,,,,,,,,,,,,,,,a,1,1.2308,"[""0.314"",""0.552"",""0.710"",""0.515""]","[1,1,1,0]",0,53,53,53,1,0,1,,,1,FALSE,,,,,,,,,,,,,,,,,,,,,,,,,,,,,,,
,5b77869d338a9300015468cf,627c6fd9d1967c145333bea6,2022-05-11_22h24.55.751,classification_task,2021.2.3,Win32,59.9880024,627c6715c52fd12f31907bd0,,,,,,,,,,,,,,,,,,,,,,,l,1,0.8726,"[""0.137"",""0.093"",""0.604"",""0.788""]","[1,0,1,1]",0,54,54,54,1,1,0,,,1,FALSE,,,,,,,,,,,,,,,,,,,,,,,,,,,,,,,
,5b77869d338a9300015468cf,627c6fd9d1967c145333bea6,2022-05-11_22h24.55.751,classification_task,2021.2.3,Win32,59.9880024,627c6715c52fd12f31907bd0,,,,,,,,,,,,,,,,,,,,,,,a,1,1.188,"[""0.314"",""0.552"",""0.638"",""0.891""]","[1,1,0,1]",0,55,55,55,1,0,1,,,1,FALSE,,,,,,,,,,,,,,,,,,,,,,,,,,,,,,,
,5b77869d338a9300015468cf,627c6fd9d1967c145333bea6,2022-05-11_22h24.55.751,classification_task,2021.2.3,Win32,59.9880024,627c6715c52fd12f31907bd0,,,,,,,,,,,,,,,,,,,,,,,l,0,1.4348,"[""0.646"",""0.394"",""0.847"",""0.934""]","[0,1,1,1]",0,56,56,56,1,0,0,,,1,FALSE,,,,,,,,,,,,,,,,,,,,,,,,,,,,,,,
,5b77869d338a9300015468cf,627c6fd9d1967c145333bea6,2022-05-11_22h24.55.751,classification_task,2021.2.3,Win32,59.9880024,627c6715c52fd12f31907bd0,,,,,,,,,,,,,,,,,,,,,,,a,1,2.7106,"[""0.274"",""0.394"",""0.513"",""0.934""]","[1,1,0,1]",0,57,57,57,1,0,0,,,1,FALSE,,,,,,,,,,,,,,,,,,,,,,,,,,,,,,,
,5b77869d338a9300015468cf,627c6fd9d1967c145333bea6,2022-05-11_22h24.55.751,classification_task,2021.2.3,Win32,59.9880024,627c6715c52fd12f31907bd0,,,,,,,,,,,,,,,,,,,,,,,a,0,1.4707,"[""0.513"",""0.208"",""0.479"",""0.752""]","[0,1,1,1]",0,58,58,58,1,1,1,,,1,FALSE,,,,,,,,,,,,,,,,,,,,,,,,,,,,,,,
,5b77869d338a9300015468cf,627c6fd9d1967c145333bea6,2022-05-11_22h24.55.751,classification_task,2021.2.3,Win32,59.9880024,627c6715c52fd12f31907bd0,,,,,,,,,,,,,,,,,,,,,,,l,1,1.732,"[""0.093"",""0.350"",""0.604"",""0.788""]","[0,1,1,1]",0,59,59,59,1,1,0,,,1,FALSE,,,,,,,,,,,,,,,,,,,,,,,,,,,,,,,
,5b77869d338a9300015468cf,627c6fd9d1967c145333bea6,2022-05-11_22h24.55.751,classification_task,2021.2.3,Win32,59.9880024,627c6715c52fd12f31907bd0,,,,,,,,,,,,,,,,,,,,,,,l,1,0.9688,"[""0.054"",""0.515"",""0.479"",""0.752""]","[1,0,1,1]",0,60,60,60,1,1,1,,,1,FALSE,,,,,,,,,,,,,,,,,,,,,,,,,,,,,,,
,5b77869d338a9300015468cf,627c6fd9d1967c145333bea6,2022-05-11_22h24.55.751,classification_task,2021.2.3,Win32,59.9880024,627c6715c52fd12f31907bd0,,,,,,,,,,,,,,,,,,,,,,,l,1,0.8826,"[""0.054"",""0.208"",""0.671"",""0.752""]","[1,1,0,1]",0,61,61,61,1,1,1,,,1,FALSE,,,,,,,,,,,,,,,,,,,,,,,,,,,,,,,
,5b77869d338a9300015468cf,627c6fd9d1967c145333bea6,2022-05-11_22h24.55.751,classification_task,2021.2.3,Win32,59.9880024,627c6715c52fd12f31907bd0,,,,,,,,,,,,,,,,,,,,,,,a,1,1.565,"[""0.439"",""0.552"",""0.710"",""0.891""]","[0,1,1,1]",0,62,62,62,1,0,1,,,1,FALSE,,,,,,,,,,,,,,,,,,,,,,,,,,,,,,,
,5b77869d338a9300015468cf,627c6fd9d1967c145333bea6,2022-05-11_22h24.55.751,classification_task,2021.2.3,Win32,59.9880024,627c6715c52fd12f31907bd0,,,,,,,,,,,,,,,,,,,,,,,a,1,1.697,"[""0.274"",""0.394"",""0.847"",""0.646""]","[1,1,1,0]",0,63,63,63,1,0,0,,,1,FALSE,,,,,,,,,,,,,,,,,,,,,,,,,,,,,,,
,5b77869d338a9300015468cf,627c6fd9d1967c145333bea6,2022-05-11_22h24.55.751,classification_task,2021.2.3,Win32,59.9880024,627c6715c52fd12f31907bd0,,,,,,,,,,,,,,,,,,,,,,,,,,,,,,,,,,,,,,,0, ,,0,4.828532236,387.6298,0,0,0,0,1,2,1,,,,,,,,,,,,,,,,,,
,5b77869d338a9300015468cf,627c6fd9d1967c145333bea6,2022-05-11_22h24.55.751,classification_task,2021.2.3,Win32,59.9880024,627c6715c52fd12f31907bd0,,,,,,,,,,,,,,,,,,,,,,,,,,,,,,,,,,,,,,,1,  ,,0,7.596511856,411.6964,0,0,0,0,1,2,1,,,,,,,,,,,,,,,,,,
,5b77869d338a9300015468cf,627c6fd9d1967c145333bea6,2022-05-11_22h24.55.751,classification_task,2021.2.3,Win32,59.9880024,627c6715c52fd12f31907bd0,,,,,,,,,,,,,,,,,,,,,,,,,,,,,,,,,,,,,,,2,  ,,0,5.636880267,398.7215,0,0,0,0,1,2,1,,,,,,,,,,,,,,,,,,
,5b77869d338a9300015468cf,627c6fd9d1967c145333bea6,2022-05-11_22h24.55.751,classification_task,2021.2.3,Win32,59.9880024,627c6715c52fd12f31907bd0,,,,,,,,,,,,,,,,,,,,,,,,,,,,,,,,,,,,,,,,,,,,,0,0,0,0,1,,1,,,,,,,,,,,,,,,,,,
,5b77869d338a9300015468cf,627c6fd9d1967c145333bea6,2022-05-11_22h24.55.751,classification_task,2021.2.3,Win32,59.9880024,627c6715c52fd12f31907bd0,,,,,,,,,,,,,,,,,,,,,space,18.6783,a,1,7.8409,"[""0.314"",""0.552"",""0.710"",""0.434""]","[1,1,1,0]",0,0,0,0,1,0,1,,,1,FALSE,,,,,,,,,,,,,,,,,,,,,,,,,,,,,,,
,5b77869d338a9300015468cf,627c6fd9d1967c145333bea6,2022-05-11_22h24.55.751,classification_task,2021.2.3,Win32,59.9880024,627c6715c52fd12f31907bd0,,,,,,,,,,,,,,,,,,,,,,,l,1,4.6739,"[""0.667"",""0.208"",""0.479"",""0.752""]","[0,1,1,1]",0,1,1,1,1,1,1,,,1,FALSE,,,,,,,,,,,,,,,,,,,,,,,,,,,,,,,
,5b77869d338a9300015468cf,627c6fd9d1967c145333bea6,2022-05-11_22h24.55.751,classification_task,2021.2.3,Win32,59.9880024,627c6715c52fd12f31907bd0,,,,,,,,,,,,,,,,,,,,,,,a,1,3.168,"[""0.671"",""0.394"",""0.847"",""0.934""]","[0,1,1,1]",0,2,2,2,1,0,0,,,1,FALSE,,,,,,,,,,,,,,,,,,,,,,,,,,,,,,,
,5b77869d338a9300015468cf,627c6fd9d1967c145333bea6,2022-05-11_22h24.55.751,classification_task,2021.2.3,Win32,59.9880024,627c6715c52fd12f31907bd0,,,,,,,,,,,,,,,,,,,,,,,a,0,1.7552,"[""0.434"",""0.350"",""0.604"",""0.788""]","[0,1,1,1]",0,3,3,3,1,1,0,,,1,FALSE,,,,,,,,,,,,,,,,,,,,,,,,,,,,,,,
,5b77869d338a9300015468cf,627c6fd9d1967c145333bea6,2022-05-11_22h24.55.751,classification_task,2021.2.3,Win32,59.9880024,627c6715c52fd12f31907bd0,,,,,,,,,,,,,,,,,,,,,,,a,1,3.515,"[""0.274"",""0.667"",""0.847"",""0.934""]","[1,0,1,1]",0,4,4,4,1,0,0,,,1,FALSE,,,,,,,,,,,,,,,,,,,,,,,,,,,,,,,
,5b77869d338a9300015468cf,627c6fd9d1967c145333bea6,2022-05-11_22h24.55.751,classification_task,2021.2.3,Win32,59.9880024,627c6715c52fd12f31907bd0,,,,,,,,,,,,,,,,,,,,,,,l,1,1.5029,"[""0.137"",""0.350"",""0.515"",""0.788""]","[1,1,0,1]",0,5,5,5,1,1,0,,,1,FALSE,,,,,,,,,,,,,,,,,,,,,,,,,,,,,,,
,5b77869d338a9300015468cf,627c6fd9d1967c145333bea6,2022-05-11_22h24.55.751,classification_task,2021.2.3,Win32,59.9880024,627c6715c52fd12f31907bd0,,,,,,,,,,,,,,,,,,,,,,,l,0,4.3979,"[""0.314"",""0.552"",""0.429"",""0.891""]","[1,1,0,1]",0,6,6,6,1,0,1,,,1,FALSE,,,,,,,,,,,,,,,,,,,,,,,,,,,,,,,
,5b77869d338a9300015468cf,627c6fd9d1967c145333bea6,2022-05-11_22h24.55.751,classification_task,2021.2.3,Win32,59.9880024,627c6715c52fd12f31907bd0,,,,,,,,,,,,,,,,,,,,,,,a,1,2.9539,"[""0.274"",""0.394"",""0.847"",""0.434""]","[1,1,1,0]",0,7,7,7,1,0,0,,,1,FALSE,,,,,,,,,,,,,,,,,,,,,,,,,,,,,,,
,5b77869d338a9300015468cf,627c6fd9d1967c145333bea6,2022-05-11_22h24.55.751,classification_task,2021.2.3,Win32,59.9880024,627c6715c52fd12f31907bd0,,,,,,,,,,,,,,,,,,,,,,,a,0,3.8659,"[""0.054"",""0.667"",""0.479"",""0.752""]","[1,0,1,1]",0,8,8,8,1,1,1,,,1,FALSE,,,,,,,,,,,,,,,,,,,,,,,,,,,,,,,
,5b77869d338a9300015468cf,627c6fd9d1967c145333bea6,2022-05-11_22h24.55.751,classification_task,2021.2.3,Win32,59.9880024,627c6715c52fd12f31907bd0,,,,,,,,,,,,,,,,,,,,,,,l,1,1.5047,"[""0.054"",""0.208"",""0.513"",""0.752""]","[1,1,0,1]",0,9,9,9,1,1,1,,,1,FALSE,,,,,,,,,,,,,,,,,,,,,,,,,,,,,,,
,5b77869d338a9300015468cf,627c6fd9d1967c145333bea6,2022-05-11_22h24.55.751,classification_task,2021.2.3,Win32,59.9880024,627c6715c52fd12f31907bd0,,,,,,,,,,,,,,,,,,,,,,,l,1,2.5656,"[""0.137"",""0.350"",""0.604"",""0.434""]","[1,1,1,0]",0,10,10,10,1,1,0,,,1,FALSE,,,,,,,,,,,,,,,,,,,,,,,,,,,,,,,
,5b77869d338a9300015468cf,627c6fd9d1967c145333bea6,2022-05-11_22h24.55.751,classification_task,2021.2.3,Win32,59.9880024,627c6715c52fd12f31907bd0,,,,,,,,,,,,,,,,,,,,,,,l,0,2.4586,"[""0.641"",""0.552"",""0.710"",""0.891""]","[0,1,1,1]",0,11,11,11,1,0,1,,,1,FALSE,,,,,,,,,,,,,,,,,,,,,,,,,,,,,,,
,5b77869d338a9300015468cf,627c6fd9d1967c145333bea6,2022-05-11_22h24.55.751,classification_task,2021.2.3,Win32,59.9880024,627c6715c52fd12f31907bd0,,,,,,,,,,,,,,,,,,,,,,,l,1,1.9721,"[""0.054"",""0.208"",""0.479"",""0.671""]","[1,1,1,0]",0,12,12,12,1,1,1,,,1,FALSE,,,,,,,,,,,,,,,,,,,,,,,,,,,,,,,
,5b77869d338a9300015468cf,627c6fd9d1967c145333bea6,2022-05-11_22h24.55.751,classification_task,2021.2.3,Win32,59.9880024,627c6715c52fd12f31907bd0,,,,,,,,,,,,,,,,,,,,,,,a,1,2.9041,"[""0.314"",""0.671"",""0.710"",""0.891""]","[1,0,1,1]",0,13,13,13,1,0,1,,,1,FALSE,,,,,,,,,,,,,,,,,,,,,,,,,,,,,,,
,5b77869d338a9300015468cf,627c6fd9d1967c145333bea6,2022-05-11_22h24.55.751,classification_task,2021.2.3,Win32,59.9880024,627c6715c52fd12f31907bd0,,,,,,,,,,,,,,,,,,,,,,,l,1,2.7398,"[""0.137"",""0.098"",""0.604"",""0.788""]","[1,0,1,1]",0,14,14,14,1,1,0,,,1,FALSE,,,,,,,,,,,,,,,,,,,,,,,,,,,,,,,
,5b77869d338a9300015468cf,627c6fd9d1967c145333bea6,2022-05-11_22h24.55.751,classification_task,2021.2.3,Win32,59.9880024,627c6715c52fd12f31907bd0,,,,,,,,,,,,,,,,,,,,,,,a,1,2.1697,"[""0.274"",""0.394"",""0.638"",""0.934""]","[1,1,0,1]",0,15,15,15,1,0,0,,,1,FALSE,,,,,,,,,,,,,,,,,,,,,,,,,,,,,,,
,5b77869d338a9300015468cf,627c6fd9d1967c145333bea6,2022-05-11_22h24.55.751,classification_task,2021.2.3,Win32,59.9880024,627c6715c52fd12f31907bd0,,,,,,,,,,,,,,,,,,,,,,,a,1,1.4386,"[""0.314"",""0.552"",""0.710"",""0.429""]","[1,1,1,0]",0,16,16,16,1,0,1,,,1,FALSE,,,,,,,,,,,,,,,,,,,,,,,,,,,,,,,
,5b77869d338a9300015468cf,627c6fd9d1967c145333bea6,2022-05-11_22h24.55.751,classification_task,2021.2.3,Win32,59.9880024,627c6715c52fd12f31907bd0,,,,,,,,,,,,,,,,,,,,,,,a,0,3.3325,"[""0.515"",""0.208"",""0.479"",""0.752""]","[0,1,1,1]",0,17,17,17,1,1,1,,,1,FALSE,,,,,,,,,,,,,,,,,,,,,,,,,,,,,,,
,5b77869d338a9300015468cf,627c6fd9d1967c145333bea6,2022-05-11_22h24.55.751,classification_task,2021.2.3,Win32,59.9880024,627c6715c52fd12f31907bd0,,,,,,,,,,,,,,,,,,,,,,,a,1,1.6386,"[""0.314"",""0.552"",""0.641"",""0.891""]","[1,1,0,1]",0,18,18,18,1,0,1,,,1,FALSE,,,,,,,,,,,,,,,,,,,,,,,,,,,,,,,
,5b77869d338a9300015468cf,627c6fd9d1967c145333bea6,2022-05-11_22h24.55.751,classification_task,2021.2.3,Win32,59.9880024,627c6715c52fd12f31907bd0,,,,,,,,,,,,,,,,,,,,,,,l,0,5.0628,"[""0.274"",""0.394"",""0.662"",""0.934""]","[1,1,0,1]",0,19,19,19,1,0,0,,,1,FALSE,,,,,,,,,,,,,,,,,,,,,,,,,,,,,,,
,5b77869d338a9300015468cf,627c6fd9d1967c145333bea6,2022-05-11_22h24.55.751,classification_task,2021.2.3,Win32,59.9880024,627c6715c52fd12f31907bd0,,,,,,,,,,,,,,,,,,,,,,,l,0,1.2206,"[""0.274"",""0.394"",""0.847"",""0.098""]","[1,1,1,0]",0,20,20,20,1,0,0,,,1,FALSE,,,,,,,,,,,,,,,,,,,,,,,,,,,,,,,
,5b77869d338a9300015468cf,627c6fd9d1967c145333bea6,2022-05-11_22h24.55.751,classification_task,2021.2.3,Win32,59.9880024,627c6715c52fd12f31907bd0,,,,,,,,,,,,,,,,,,,,,,,a,1,3.0518,"[""0.274"",""0.969"",""0.847"",""0.934""]","[1,0,1,1]",0,21,21,21,1,0,0,,,1,FALSE,,,,,,,,,,,,,,,,,,,,,,,,,,,,,,,
,5b77869d338a9300015468cf,627c6fd9d1967c145333bea6,2022-05-11_22h24.55.751,classification_task,2021.2.3,Win32,59.9880024,627c6715c52fd12f31907bd0,,,,,,,,,,,,,,,,,,,,,,,l,0,2.1944,"[""0.093"",""0.394"",""0.847"",""0.934""]","[0,1,1,1]",0,22,22,22,1,0,0,,,1,FALSE,,,,,,,,,,,,,,,,,,,,,,,,,,,,,,,
,5b77869d338a9300015468cf,627c6fd9d1967c145333bea6,2022-05-11_22h24.55.751,classification_task,2021.2.3,Win32,59.9880024,627c6715c52fd12f31907bd0,,,,,,,,,,,,,,,,,,,,,,,l,1,1.5341,"[""0.054"",""0.671"",""0.479"",""0.752""]","[1,0,1,1]",0,23,23,23,1,1,1,,,1,FALSE,,,,,,,,,,,,,,,,,,,,,,,,,,,,,,,
,5b77869d338a9300015468cf,627c6fd9d1967c145333bea6,2022-05-11_22h24.55.751,classification_task,2021.2.3,Win32,59.9880024,627c6715c52fd12f31907bd0,,,,,,,,,,,,,,,,,,,,,,,l,1,4.1536,"[""0.137"",""0.350"",""0.604"",""0.515""]","[1,1,1,0]",0,24,24,24,1,1,0,,,1,FALSE,,,,,,,,,,,,,,,,,,,,,,,,,,,,,,,
,5b77869d338a9300015468cf,627c6fd9d1967c145333bea6,2022-05-11_22h24.55.751,classification_task,2021.2.3,Win32,59.9880024,627c6715c52fd12f31907bd0,,,,,,,,,,,,,,,,,,,,,,,l,1,3.7721,"[""0.137"",""0.098"",""0.604"",""0.788""]","[1,0,1,1]",0,25,25,25,1,1,0,,,1,FALSE,,,,,,,,,,,,,,,,,,,,,,,,,,,,,,,
,5b77869d338a9300015468cf,627c6fd9d1967c145333bea6,2022-05-11_22h24.55.751,classification_task,2021.2.3,Win32,59.9880024,627c6715c52fd12f31907bd0,,,,,,,,,,,,,,,,,,,,,,,a,0,1.553,"[""0.431"",""0.350"",""0.604"",""0.788""]","[0,1,1,1]",0,26,26,26,1,1,0,,,1,FALSE,,,,,,,,,,,,,,,,,,,,,,,,,,,,,,,
,5b77869d338a9300015468cf,627c6fd9d1967c145333bea6,2022-05-11_22h24.55.751,classification_task,2021.2.3,Win32,59.9880024,627c6715c52fd12f31907bd0,,,,,,,,,,,,,,,,,,,,,,,l,1,1.8368,"[""0.054"",""0.208"",""0.479"",""0.439""]","[1,1,1,0]",0,27,27,27,1,1,1,,,1,FALSE,,,,,,,,,,,,,,,,,,,,,,,,,,,,,,,
,5b77869d338a9300015468cf,627c6fd9d1967c145333bea6,2022-05-11_22h24.55.751,classification_task,2021.2.3,Win32,59.9880024,627c6715c52fd12f31907bd0,,,,,,,,,,,,,,,,,,,,,,,a,1,1.5969,"[""0.314"",""0.646"",""0.710"",""0.891""]","[1,0,1,1]",0,28,28,28,1,0,1,,,1,FALSE,,,,,,,,,,,,,,,,,,,,,,,,,,,,,,,
,5b77869d338a9300015468cf,627c6fd9d1967c145333bea6,2022-05-11_22h24.55.751,classification_task,2021.2.3,Win32,59.9880024,627c6715c52fd12f31907bd0,,,,,,,,,,,,,,,,,,,,,,,a,1,6.1085,"[""0.430"",""0.552"",""0.710"",""0.891""]","[0,1,1,1]",0,29,29,29,1,0,1,,,1,FALSE,,,,,,,,,,,,,,,,,,,,,,,,,,,,,,,
,5b77869d338a9300015468cf,627c6fd9d1967c145333bea6,2022-05-11_22h24.55.751,classification_task,2021.2.3,Win32,59.9880024,627c6715c52fd12f31907bd0,,,,,,,,,,,,,,,,,,,,,,,l,1,1.2886,"[""0.054"",""0.208"",""0.093"",""0.752""]","[1,1,0,1]",0,30,30,30,1,1,1,,,1,FALSE,,,,,,,,,,,,,,,,,,,,,,,,,,,,,,,
,5b77869d338a9300015468cf,627c6fd9d1967c145333bea6,2022-05-11_22h24.55.751,classification_task,2021.2.3,Win32,59.9880024,627c6715c52fd12f31907bd0,,,,,,,,,,,,,,,,,,,,,,,l,1,2.9169,"[""0.137"",""0.350"",""0.513"",""0.788""]","[1,1,0,1]",0,31,31,31,1,1,0,,,1,FALSE,,,,,,,,,,,,,,,,,,,,,,,,,,,,,,,
,5b77869d338a9300015468cf,627c6fd9d1967c145333bea6,2022-05-11_22h24.55.751,classification_task,2021.2.3,Win32,59.9880024,627c6715c52fd12f31907bd0,,,,,,,,,,,,,,,,,,,,,,,l,1,2.7235,"[""0.137"",""0.350"",""0.429"",""0.788""]","[1,1,0,1]",0,32,32,32,1,1,0,,,1,FALSE,,,,,,,,,,,,,,,,,,,,,,,,,,,,,,,
,5b77869d338a9300015468cf,627c6fd9d1967c145333bea6,2022-05-11_22h24.55.751,classification_task,2021.2.3,Win32,59.9880024,627c6715c52fd12f31907bd0,,,,,,,,,,,,,,,,,,,,,,,l,1,1.5703,"[""0.137"",""0.969"",""0.604"",""0.788""]","[1,0,1,1]",0,33,33,33,1,1,0,,,1,FALSE,,,,,,,,,,,,,,,,,,,,,,,,,,,,,,,
,5b77869d338a9300015468cf,627c6fd9d1967c145333bea6,2022-05-11_22h24.55.751,classification_task,2021.2.3,Win32,59.9880024,627c6715c52fd12f31907bd0,,,,,,,,,,,,,,,,,,,,,,,l,1,4.6485,"[""0.638"",""0.208"",""0.479"",""0.752""]","[0,1,1,1]",0,34,34,34,1,1,1,,,1,FALSE,,,,,,,,,,,,,,,,,,,,,,,,,,,,,,,
,5b77869d338a9300015468cf,627c6fd9d1967c145333bea6,2022-05-11_22h24.55.751,classification_task,2021.2.3,Win32,59.9880024,627c6715c52fd12f31907bd0,,,,,,,,,,,,,,,,,,,,,,,l,1,0.9236,"[""0.054"",""0.208"",""0.098"",""0.752""]","[1,1,0,1]",0,35,35,35,1,1,1,,,1,FALSE,,,,,,,,,,,,,,,,,,,,,,,,,,,,,,,
,5b77869d338a9300015468cf,627c6fd9d1967c145333bea6,2022-05-11_22h24.55.751,classification_task,2021.2.3,Win32,59.9880024,627c6715c52fd12f31907bd0,,,,,,,,,,,,,,,,,,,,,,,l,1,1.3994,"[""0.054"",""0.208"",""0.479"",""0.515""]","[1,1,1,0]",0,36,36,36,1,1,1,,,1,FALSE,,,,,,,,,,,,,,,,,,,,,,,,,,,,,,,
,5b77869d338a9300015468cf,627c6fd9d1967c145333bea6,2022-05-11_22h24.55.751,classification_task,2021.2.3,Win32,59.9880024,627c6715c52fd12f31907bd0,,,,,,,,,,,,,,,,,,,,,,,a,1,1.7633,"[""0.431"",""0.394"",""0.847"",""0.934""]","[0,1,1,1]",0,37,37,37,1,0,0,,,1,FALSE,,,,,,,,,,,,,,,,,,,,,,,,,,,,,,,
,5b77869d338a9300015468cf,627c6fd9d1967c145333bea6,2022-05-11_22h24.55.751,classification_task,2021.2.3,Win32,59.9880024,627c6715c52fd12f31907bd0,,,,,,,,,,,,,,,,,,,,,,,l,0,4.0218,"[""0.646"",""0.552"",""0.710"",""0.891""]","[0,1,1,1]",0,38,38,38,1,0,1,,,1,FALSE,,,,,,,,,,,,,,,,,,,,,,,,,,,,,,,
,5b77869d338a9300015468cf,627c6fd9d1967c145333bea6,2022-05-11_22h24.55.751,classification_task,2021.2.3,Win32,59.9880024,627c6715c52fd12f31907bd0,,,,,,,,,,,,,,,,,,,,,,,a,1,1.6617,"[""0.274"",""0.394"",""0.847"",""0.430""]","[1,1,1,0]",0,39,39,39,1,0,0,,,1,FALSE,,,,,,,,,,,,,,,,,,,,,,,,,,,,,,,
,5b77869d338a9300015468cf,627c6fd9d1967c145333bea6,2022-05-11_22h24.55.751,classification_task,2021.2.3,Win32,59.9880024,627c6715c52fd12f31907bd0,,,,,,,,,,,,,,,,,,,,,,,a,1,2.2038,"[""0.314"",""0.641"",""0.710"",""0.891""]","[1,0,1,1]",0,40,40,40,1,0,1,,,1,FALSE,,,,,,,,,,,,,,,,,,,,,,,,,,,,,,,
,5b77869d338a9300015468cf,627c6fd9d1967c145333bea6,2022-05-11_22h24.55.751,classification_task,2021.2.3,Win32,59.9880024,627c6715c52fd12f31907bd0,,,,,,,,,,,,,,,,,,,,,,,l,1,1.3381,"[""0.137"",""0.350"",""0.604"",""0.098""]","[1,1,1,0]",0,41,41,41,1,1,0,,,1,FALSE,,,,,,,,,,,,,,,,,,,,,,,,,,,,,,,
,5b77869d338a9300015468cf,627c6fd9d1967c145333bea6,2022-05-11_22h24.55.751,classification_task,2021.2.3,Win32,59.9880024,627c6715c52fd12f31907bd0,,,,,,,,,,,,,,,,,,,,,,,l,1,0.7168,"[""0.054"",""0.969"",""0.479"",""0.752""]","[1,0,1,1]",0,42,42,42,1,1,1,,,1,FALSE,,,,,,,,,,,,,,,,,,,,,,,,,,,,,,,
,5b77869d338a9300015468cf,627c6fd9d1967c145333bea6,2022-05-11_22h24.55.751,classification_task,2021.2.3,Win32,59.9880024,627c6715c52fd12f31907bd0,,,,,,,,,,,,,,,,,,,,,,,a,1,1.6873,"[""0.274"",""0.430"",""0.847"",""0.934""]","[1,0,1,1]",0,43,43,43,1,0,0,,,1,FALSE,,,,,,,,,,,,,,,,,,,,,,,,,,,,,,,
,5b77869d338a9300015468cf,627c6fd9d1967c145333bea6,2022-05-11_22h24.55.751,classification_task,2021.2.3,Win32,59.9880024,627c6715c52fd12f31907bd0,,,,,,,,,,,,,,,,,,,,,,,a,1,0.9719,"[""0.274"",""0.394"",""0.430"",""0.934""]","[1,1,0,1]",0,44,44,44,1,0,0,,,1,FALSE,,,,,,,,,,,,,,,,,,,,,,,,,,,,,,,
,5b77869d338a9300015468cf,627c6fd9d1967c145333bea6,2022-05-11_22h24.55.751,classification_task,2021.2.3,Win32,59.9880024,627c6715c52fd12f31907bd0,,,,,,,,,,,,,,,,,,,,,,,a,1,1.3503,"[""0.314"",""0.552"",""0.638"",""0.891""]","[1,1,0,1]",0,45,45,45,1,0,1,,,1,FALSE,,,,,,,,,,,,,,,,,,,,,,,,,,,,,,,
,5b77869d338a9300015468cf,627c6fd9d1967c145333bea6,2022-05-11_22h24.55.751,classification_task,2021.2.3,Win32,59.9880024,627c6715c52fd12f31907bd0,,,,,,,,,,,,,,,,,,,,,,,a,1,1.0848,"[""0.314"",""0.552"",""0.710"",""0.431""]","[1,1,1,0]",0,46,46,46,1,0,1,,,1,FALSE,,,,,,,,,,,,,,,,,,,,,,,,,,,,,,,
,5b77869d338a9300015468cf,627c6fd9d1967c145333bea6,2022-05-11_22h24.55.751,classification_task,2021.2.3,Win32,59.9880024,627c6715c52fd12f31907bd0,,,,,,,,,,,,,,,,,,,,,,,a,0,1.2459,"[""0.434"",""0.350"",""0.604"",""0.788""]","[0,1,1,1]",0,47,47,47,1,1,0,,,1,FALSE,,,,,,,,,,,,,,,,,,,,,,,,,,,,,,,
,5b77869d338a9300015468cf,627c6fd9d1967c145333bea6,2022-05-11_22h24.55.751,classification_task,2021.2.3,Win32,59.9880024,627c6715c52fd12f31907bd0,,,,,,,,,,,,,,,,,,,,,,,l,1,2.1817,"[""0.137"",""0.350"",""0.604"",""0.641""]","[1,1,1,0]",0,48,48,48,1,1,0,,,1,FALSE,,,,,,,,,,,,,,,,,,,,,,,,,,,,,,,
,5b77869d338a9300015468cf,627c6fd9d1967c145333bea6,2022-05-11_22h24.55.751,classification_task,2021.2.3,Win32,59.9880024,627c6715c52fd12f31907bd0,,,,,,,,,,,,,,,,,,,,,,,a,0,3.4884,"[""0.431"",""0.350"",""0.604"",""0.788""]","[0,1,1,1]",0,49,49,49,1,1,0,,,1,FALSE,,,,,,,,,,,,,,,,,,,,,,,,,,,,,,,
,5b77869d338a9300015468cf,627c6fd9d1967c145333bea6,2022-05-11_22h24.55.751,classification_task,2021.2.3,Win32,59.9880024,627c6715c52fd12f31907bd0,,,,,,,,,,,,,,,,,,,,,,,l,1,1.1854,"[""0.137"",""0.431"",""0.604"",""0.788""]","[1,0,1,1]",0,50,50,50,1,1,0,,,1,FALSE,,,,,,,,,,,,,,,,,,,,,,,,,,,,,,,
,5b77869d338a9300015468cf,627c6fd9d1967c145333bea6,2022-05-11_22h24.55.751,classification_task,2021.2.3,Win32,59.9880024,627c6715c52fd12f31907bd0,,,,,,,,,,,,,,,,,,,,,,,l,1,2.3019,"[""0.434"",""0.208"",""0.479"",""0.752""]","[0,1,1,1]",0,51,51,51,1,1,1,,,1,FALSE,,,,,,,,,,,,,,,,,,,,,,,,,,,,,,,
,5b77869d338a9300015468cf,627c6fd9d1967c145333bea6,2022-05-11_22h24.55.751,classification_task,2021.2.3,Win32,59.9880024,627c6715c52fd12f31907bd0,,,,,,,,,,,,,,,,,,,,,,,l,1,1.0908,"[""0.054"",""0.208"",""0.479"",""0.671""]","[1,1,1,0]",0,52,52,52,1,1,1,,,1,FALSE,,,,,,,,,,,,,,,,,,,,,,,,,,,,,,,
,5b77869d338a9300015468cf,627c6fd9d1967c145333bea6,2022-05-11_22h24.55.751,classification_task,2021.2.3,Win32,59.9880024,627c6715c52fd12f31907bd0,,,,,,,,,,,,,,,,,,,,,,,a,1,3.418,"[""0.274"",""0.434"",""0.847"",""0.934""]","[1,0,1,1]",0,53,53,53,1,0,0,,,1,FALSE,,,,,,,,,,,,,,,,,,,,,,,,,,,,,,,
,5b77869d338a9300015468cf,627c6fd9d1967c145333bea6,2022-05-11_22h24.55.751,classification_task,2021.2.3,Win32,59.9880024,627c6715c52fd12f31907bd0,,,,,,,,,,,,,,,,,,,,,,,a,1,2.0105,"[""0.314"",""0.552"",""0.969"",""0.891""]","[1,1,0,1]",0,54,54,54,1,0,1,,,1,FALSE,,,,,,,,,,,,,,,,,,,,,,,,,,,,,,,
,5b77869d338a9300015468cf,627c6fd9d1967c145333bea6,2022-05-11_22h24.55.751,classification_task,2021.2.3,Win32,59.9880024,627c6715c52fd12f31907bd0,,,,,,,,,,,,,,,,,,,,,,,a,1,3.1392,"[""0.314"",""0.552"",""0.710"",""0.093""]","[1,1,1,0]",0,55,55,55,1,0,1,,,1,FALSE,,,,,,,,,,,,,,,,,,,,,,,,,,,,,,,
,5b77869d338a9300015468cf,627c6fd9d1967c145333bea6,2022-05-11_22h24.55.751,classification_task,2021.2.3,Win32,59.9880024,627c6715c52fd12f31907bd0,,,,,,,,,,,,,,,,,,,,,,,a,1,2.8874,"[""0.274"",""0.394"",""0.847"",""0.671""]","[1,1,1,0]",0,56,56,56,1,0,0,,,1,FALSE,,,,,,,,,,,,,,,,,,,,,,,,,,,,,,,
,5b77869d338a9300015468cf,627c6fd9d1967c145333bea6,2022-05-11_22h24.55.751,classification_task,2021.2.3,Win32,59.9880024,627c6715c52fd12f31907bd0,,,,,,,,,,,,,,,,,,,,,,,l,0,2.8031,"[""0.430"",""0.552"",""0.710"",""0.891""]","[0,1,1,1]",0,57,57,57,1,0,1,,,1,FALSE,,,,,,,,,,,,,,,,,,,,,,,,,,,,,,,
,5b77869d338a9300015468cf,627c6fd9d1967c145333bea6,2022-05-11_22h24.55.751,classification_task,2021.2.3,Win32,59.9880024,627c6715c52fd12f31907bd0,,,,,,,,,,,,,,,,,,,,,,,l,1,2.0089,"[""0.054"",""0.671"",""0.479"",""0.752""]","[1,0,1,1]",0,58,58,58,1,1,1,,,1,FALSE,,,,,,,,,,,,,,,,,,,,,,,,,,,,,,,
,5b77869d338a9300015468cf,627c6fd9d1967c145333bea6,2022-05-11_22h24.55.751,classification_task,2021.2.3,Win32,59.9880024,627c6715c52fd12f31907bd0,,,,,,,,,,,,,,,,,,,,,,,l,1,1.7834,"[""0.137"",""0.350"",""0.969"",""0.788""]","[1,1,0,1]",0,59,59,59,1,1,0,,,1,FALSE,,,,,,,,,,,,,,,,,,,,,,,,,,,,,,,
,5b77869d338a9300015468cf,627c6fd9d1967c145333bea6,2022-05-11_22h24.55.751,classification_task,2021.2.3,Win32,59.9880024,627c6715c52fd12f31907bd0,,,,,,,,,,,,,,,,,,,,,,,a,1,4.1386,"[""0.515"",""0.394"",""0.847"",""0.934""]","[0,1,1,1]",0,60,60,60,1,0,0,,,1,FALSE,,,,,,,,,,,,,,,,,,,,,,,,,,,,,,,
,5b77869d338a9300015468cf,627c6fd9d1967c145333bea6,2022-05-11_22h24.55.751,classification_task,2021.2.3,Win32,59.9880024,627c6715c52fd12f31907bd0,,,,,,,,,,,,,,,,,,,,,,,a,1,1.089,"[""0.274"",""0.394"",""0.646"",""0.934""]","[1,1,0,1]",0,61,61,61,1,0,0,,,1,FALSE,,,,,,,,,,,,,,,,,,,,,,,,,,,,,,,
,5b77869d338a9300015468cf,627c6fd9d1967c145333bea6,2022-05-11_22h24.55.751,classification_task,2021.2.3,Win32,59.9880024,627c6715c52fd12f31907bd0,,,,,,,,,,,,,,,,,,,,,,,a,1,4.4144,"[""0.314"",""0.098"",""0.710"",""0.891""]","[1,0,1,1]",0,62,62,62,1,0,1,,,1,FALSE,,,,,,,,,,,,,,,,,,,,,,,,,,,,,,,
,5b77869d338a9300015468cf,627c6fd9d1967c145333bea6,2022-05-11_22h24.55.751,classification_task,2021.2.3,Win32,59.9880024,627c6715c52fd12f31907bd0,,,,,,,,,,,,,,,,,,,,,,,l,1,0.9571,"[""0.054"",""0.208"",""0.513"",""0.752""]","[1,1,0,1]",0,63,63,63,1,1,1,,,1,FALSE,,,,,,,,,,,,,,,,,,,,,,,,,,,,,,,
,5b77869d338a9300015468cf,627c6fd9d1967c145333bea6,2022-05-11_22h24.55.751,classification_task,2021.2.3,Win32,59.9880024,627c6715c52fd12f31907bd0,,,,,,,,,,,,,,,,,,,,,,,,,,,,,,,,,,,,,,,0, ,,0,3.799725652,251.2914,0,1,1,1,1,2,2,,,,,,,,,,,,,,,,,,
,5b77869d338a9300015468cf,627c6fd9d1967c145333bea6,2022-05-11_22h24.55.751,classification_task,2021.2.3,Win32,59.9880024,627c6715c52fd12f31907bd0,,,,,,,,,,,,,,,,,,,,,,,,,,,,,,,,,,,,,,,1,  ,,0,9.213207917,252.5479,0,1,1,1,1,2,2,,,,,,,,,,,,,,,,,,
,5b77869d338a9300015468cf,627c6fd9d1967c145333bea6,2022-05-11_22h24.55.751,classification_task,2021.2.3,Win32,59.9880024,627c6715c52fd12f31907bd0,,,,,,,,,,,,,,,,,,,,,,,,,,,,,,,,,,,,,,,2,  ,,0,8.600823045,254.6455,0,1,1,1,1,2,2,,,,,,,,,,,,,,,,,,
,5b77869d338a9300015468cf,627c6fd9d1967c145333bea6,2022-05-11_22h24.55.751,classification_task,2021.2.3,Win32,59.9880024,627c6715c52fd12f31907bd0,,,,,,,,,,,,,,,,,,,,,,,,,,,,,,,,,,,,,,,,,,,,,0,1,1,1,1,,2,,,,,,,,,,,,,,,,,,
,5b77869d338a9300015468cf,627c6fd9d1967c145333bea6,2022-05-11_22h24.55.751,classification_task,2021.2.3,Win32,59.9880024,627c6715c52fd12f31907bd0,,,,,,,,,,,,,,,,,,,,,space,15.1735,a,1,1.7451,"[""0.314"",""0.513"",""0.710"",""0.891""]","[1,0,1,1]",0,0,0,0,1,0,1,,,1,FALSE,,,,,,,,,,,,,,,,,,,,,,,,,,,,,,,
,5b77869d338a9300015468cf,627c6fd9d1967c145333bea6,2022-05-11_22h24.55.751,classification_task,2021.2.3,Win32,59.9880024,627c6715c52fd12f31907bd0,,,,,,,,,,,,,,,,,,,,,,,l,1,1.1174,"[""0.054"",""0.430"",""0.479"",""0.752""]","[1,0,1,1]",0,1,1,1,1,1,1,,,1,FALSE,,,,,,,,,,,,,,,,,,,,,,,,,,,,,,,
,5b77869d338a9300015468cf,627c6fd9d1967c145333bea6,2022-05-11_22h24.55.751,classification_task,2021.2.3,Win32,59.9880024,627c6715c52fd12f31907bd0,,,,,,,,,,,,,,,,,,,,,,,l,1,3.8499,"[""0.137"",""0.429"",""0.604"",""0.788""]","[1,0,1,1]",0,2,2,2,1,1,0,,,1,FALSE,,,,,,,,,,,,,,,,,,,,,,,,,,,,,,,
,5b77869d338a9300015468cf,627c6fd9d1967c145333bea6,2022-05-11_22h24.55.751,classification_task,2021.2.3,Win32,59.9880024,627c6715c52fd12f31907bd0,,,,,,,,,,,,,,,,,,,,,,,a,1,0.8708,"[""0.274"",""0.394"",""0.847"",""0.662""]","[1,1,1,0]",0,3,3,3,1,0,0,,,1,FALSE,,,,,,,,,,,,,,,,,,,,,,,,,,,,,,,
,5b77869d338a9300015468cf,627c6fd9d1967c145333bea6,2022-05-11_22h24.55.751,classification_task,2021.2.3,Win32,59.9880024,627c6715c52fd12f31907bd0,,,,,,,,,,,,,,,,,,,,,,,l,1,1.0517,"[""0.054"",""0.208"",""0.515"",""0.752""]","[1,1,0,1]",0,4,4,4,1,1,1,,,1,FALSE,,,,,,,,,,,,,,,,,,,,,,,,,,,,,,,
,5b77869d338a9300015468cf,627c6fd9d1967c145333bea6,2022-05-11_22h24.55.751,classification_task,2021.2.3,Win32,59.9880024,627c6715c52fd12f31907bd0,,,,,,,,,,,,,,,,,,,,,,,a,0,4.7497,"[""0.641"",""0.350"",""0.604"",""0.788""]","[0,1,1,1]",0,5,5,5,1,1,0,,,1,FALSE,,,,,,,,,,,,,,,,,,,,,,,,,,,,,,,
,5b77869d338a9300015468cf,627c6fd9d1967c145333bea6,2022-05-11_22h24.55.751,classification_task,2021.2.3,Win32,59.9880024,627c6715c52fd12f31907bd0,,,,,,,,,,,,,,,,,,,,,,,l,1,1.4887,"[""0.137"",""0.350"",""0.604"",""0.098""]","[1,1,1,0]",0,6,6,6,1,1,0,,,1,FALSE,,,,,,,,,,,,,,,,,,,,,,,,,,,,,,,
,5b77869d338a9300015468cf,627c6fd9d1967c145333bea6,2022-05-11_22h24.55.751,classification_task,2021.2.3,Win32,59.9880024,627c6715c52fd12f31907bd0,,,,,,,,,,,,,,,,,,,,,,,l,1,0.9209,"[""0.054"",""0.208"",""0.479"",""0.671""]","[1,1,1,0]",0,7,7,7,1,1,1,,,1,FALSE,,,,,,,,,,,,,,,,,,,,,,,,,,,,,,,
,5b77869d338a9300015468cf,627c6fd9d1967c145333bea6,2022-05-11_22h24.55.751,classification_task,2021.2.3,Win32,59.9880024,627c6715c52fd12f31907bd0,,,,,,,,,,,,,,,,,,,,,,,a,1,5.1334,"[""0.439"",""0.394"",""0.847"",""0.934""]","[0,1,1,1]",0,8,8,8,1,0,0,,,1,FALSE,,,,,,,,,,,,,,,,,,,,,,,,,,,,,,,
,5b77869d338a9300015468cf,627c6fd9d1967c145333bea6,2022-05-11_22h24.55.751,classification_task,2021.2.3,Win32,59.9880024,627c6715c52fd12f31907bd0,,,,,,,,,,,,,,,,,,,,,,,l,1,1.2362,"[""0.137"",""0.350"",""0.431"",""0.788""]","[1,1,0,1]",0,9,9,9,1,1,0,,,1,FALSE,,,,,,,,,,,,,,,,,,,,,,,,,,,,,,,
,5b77869d338a9300015468cf,627c6fd9d1967c145333bea6,2022-05-11_22h24.55.751,classification_task,2021.2.3,Win32,59.9880024,627c6715c52fd12f31907bd0,,,,,,,,,,,,,,,,,,,,,,,a,1,4.1336,"[""0.638"",""0.552"",""0.710"",""0.891""]","[0,1,1,1]",0,10,10,10,1,0,1,,,1,FALSE,,,,,,,,,,,,,,,,,,,,,,,,,,,,,,,
,5b77869d338a9300015468cf,627c6fd9d1967c145333bea6,2022-05-11_22h24.55.751,classification_task,2021.2.3,Win32,59.9880024,627c6715c52fd12f31907bd0,,,,,,,,,,,,,,,,,,,,,,,a,1,2.7884,"[""0.314"",""0.552"",""0.662"",""0.891""]","[1,1,0,1]",0,11,11,11,1,0,1,,,1,FALSE,,,,,,,,,,,,,,,,,,,,,,,,,,,,,,,
,5b77869d338a9300015468cf,627c6fd9d1967c145333bea6,2022-05-11_22h24.55.751,classification_task,2021.2.3,Win32,59.9880024,627c6715c52fd12f31907bd0,,,,,,,,,,,,,,,,,,,,,,,a,1,1.0779,"[""0.314"",""0.552"",""0.710"",""0.515""]","[1,1,1,0]",0,12,12,12,1,0,1,,,1,FALSE,,,,,,,,,,,,,,,,,,,,,,,,,,,,,,,
,5b77869d338a9300015468cf,627c6fd9d1967c145333bea6,2022-05-11_22h24.55.751,classification_task,2021.2.3,Win32,59.9880024,627c6715c52fd12f31907bd0,,,,,,,,,,,,,,,,,,,,,,,l,1,3.5157,"[""0.430"",""0.208"",""0.479"",""0.752""]","[0,1,1,1]",0,13,13,13,1,1,1,,,1,FALSE,,,,,,,,,,,,,,,,,,,,,,,,,,,,,,,
,5b77869d338a9300015468cf,627c6fd9d1967c145333bea6,2022-05-11_22h24.55.751,classification_task,2021.2.3,Win32,59.9880024,627c6715c52fd12f31907bd0,,,,,,,,,,,,,,,,,,,,,,,a,1,1.0596,"[""0.274"",""0.662"",""0.847"",""0.934""]","[1,0,1,1]",0,14,14,14,1,0,0,,,1,FALSE,,,,,,,,,,,,,,,,,,,,,,,,,,,,,,,
,5b77869d338a9300015468cf,627c6fd9d1967c145333bea6,2022-05-11_22h24.55.751,classification_task,2021.2.3,Win32,59.9880024,627c6715c52fd12f31907bd0,,,,,,,,,,,,,,,,,,,,,,,a,1,0.8045,"[""0.274"",""0.394"",""0.641"",""0.934""]","[1,1,0,1]",0,15,15,15,1,0,0,,,1,FALSE,,,,,,,,,,,,,,,,,,,,,,,,,,,,,,,
,5b77869d338a9300015468cf,627c6fd9d1967c145333bea6,2022-05-11_22h24.55.751,classification_task,2021.2.3,Win32,59.9880024,627c6715c52fd12f31907bd0,,,,,,,,,,,,,,,,,,,,,,,l,1,0.8545,"[""0.137"",""0.969"",""0.604"",""0.788""]","[1,0,1,1]",0,16,16,16,1,1,0,,,1,FALSE,,,,,,,,,,,,,,,,,,,,,,,,,,,,,,,
,5b77869d338a9300015468cf,627c6fd9d1967c145333bea6,2022-05-11_22h24.55.751,classification_task,2021.2.3,Win32,59.9880024,627c6715c52fd12f31907bd0,,,,,,,,,,,,,,,,,,,,,,,l,1,0.7646,"[""0.137"",""0.350"",""0.667"",""0.788""]","[1,1,0,1]",0,17,17,17,1,1,0,,,1,FALSE,,,,,,,,,,,,,,,,,,,,,,,,,,,,,,,
,5b77869d338a9300015468cf,627c6fd9d1967c145333bea6,2022-05-11_22h24.55.751,classification_task,2021.2.3,Win32,59.9880024,627c6715c52fd12f31907bd0,,,,,,,,,,,,,,,,,,,,,,,a,1,1.4231,"[""0.274"",""0.394"",""0.667"",""0.934""]","[1,1,0,1]",0,18,18,18,1,0,0,,,1,FALSE,,,,,,,,,,,,,,,,,,,,,,,,,,,,,,,
,5b77869d338a9300015468cf,627c6fd9d1967c145333bea6,2022-05-11_22h24.55.751,classification_task,2021.2.3,Win32,59.9880024,627c6715c52fd12f31907bd0,,,,,,,,,,,,,,,,,,,,,,,l,0,5.1338,"[""0.638"",""0.394"",""0.847"",""0.934""]","[0,1,1,1]",0,19,19,19,1,0,0,,,1,FALSE,,,,,,,,,,,,,,,,,,,,,,,,,,,,,,,
,5b77869d338a9300015468cf,627c6fd9d1967c145333bea6,2022-05-11_22h24.55.751,classification_task,2021.2.3,Win32,59.9880024,627c6715c52fd12f31907bd0,,,,,,,,,,,,,,,,,,,,,,,a,0,1.9538,"[""0.439"",""0.350"",""0.604"",""0.788""]","[0,1,1,1]",0,20,20,20,1,1,0,,,1,FALSE,,,,,,,,,,,,,,,,,,,,,,,,,,,,,,,
,5b77869d338a9300015468cf,627c6fd9d1967c145333bea6,2022-05-11_22h24.55.751,classification_task,2021.2.3,Win32,59.9880024,627c6715c52fd12f31907bd0,,,,,,,,,,,,,,,,,,,,,,,a,1,1.1521,"[""0.274"",""0.394"",""0.847"",""0.641""]","[1,1,1,0]",0,21,21,21,1,0,0,,,1,FALSE,,,,,,,,,,,,,,,,,,,,,,,,,,,,,,,
,5b77869d338a9300015468cf,627c6fd9d1967c145333bea6,2022-05-11_22h24.55.751,classification_task,2021.2.3,Win32,59.9880024,627c6715c52fd12f31907bd0,,,,,,,,,,,,,,,,,,,,,,,a,1,0.7165,"[""0.274"",""0.515"",""0.847"",""0.934""]","[1,0,1,1]",0,22,22,22,1,0,0,,,1,FALSE,,,,,,,,,,,,,,,,,,,,,,,,,,,,,,,
,5b77869d338a9300015468cf,627c6fd9d1967c145333bea6,2022-05-11_22h24.55.751,classification_task,2021.2.3,Win32,59.9880024,627c6715c52fd12f31907bd0,,,,,,,,,,,,,,,,,,,,,,,l,0,0.9853,"[""0.314"",""0.552"",""0.710"",""0.098""]","[1,1,1,0]",0,23,23,23,1,0,1,,,1,FALSE,,,,,,,,,,,,,,,,,,,,,,,,,,,,,,,
,5b77869d338a9300015468cf,627c6fd9d1967c145333bea6,2022-05-11_22h24.55.751,classification_task,2021.2.3,Win32,59.9880024,627c6715c52fd12f31907bd0,,,,,,,,,,,,,,,,,,,,,,,l,0,0.8855,"[""0.314"",""0.552"",""0.098"",""0.891""]","[1,1,0,1]",0,24,24,24,1,0,1,,,1,FALSE,,,,,,,,,,,,,,,,,,,,,,,,,,,,,,,
,5b77869d338a9300015468cf,627c6fd9d1967c145333bea6,2022-05-11_22h24.55.751,classification_task,2021.2.3,Win32,59.9880024,627c6715c52fd12f31907bd0,,,,,,,,,,,,,,,,,,,,,,,a,0,1.2361,"[""0.671"",""0.208"",""0.479"",""0.752""]","[0,1,1,1]",0,25,25,25,1,1,1,,,1,FALSE,,,,,,,,,,,,,,,,,,,,,,,,,,,,,,,
,5b77869d338a9300015468cf,627c6fd9d1967c145333bea6,2022-05-11_22h24.55.751,classification_task,2021.2.3,Win32,59.9880024,627c6715c52fd12f31907bd0,,,,,,,,,,,,,,,,,,,,,,,a,1,1.3858,"[""0.314"",""0.667"",""0.710"",""0.891""]","[1,0,1,1]",0,26,26,26,1,0,1,,,1,FALSE,,,,,,,,,,,,,,,,,,,,,,,,,,,,,,,
,5b77869d338a9300015468cf,627c6fd9d1967c145333bea6,2022-05-11_22h24.55.751,classification_task,2021.2.3,Win32,59.9880024,627c6715c52fd12f31907bd0,,,,,,,,,,,,,,,,,,,,,,,l,1,0.8515,"[""0.054"",""0.208"",""0.431"",""0.752""]","[1,1,0,1]",0,27,27,27,1,1,1,,,1,FALSE,,,,,,,,,,,,,,,,,,,,,,,,,,,,,,,
,5b77869d338a9300015468cf,627c6fd9d1967c145333bea6,2022-05-11_22h24.55.751,classification_task,2021.2.3,Win32,59.9880024,627c6715c52fd12f31907bd0,,,,,,,,,,,,,,,,,,,,,,,l,1,0.9048,"[""0.054"",""0.208"",""0.479"",""0.662""]","[1,1,1,0]",0,28,28,28,1,1,1,,,1,FALSE,,,,,,,,,,,,,,,,,,,,,,,,,,,,,,,
,5b77869d338a9300015468cf,627c6fd9d1967c145333bea6,2022-05-11_22h24.55.751,classification_task,2021.2.3,Win32,59.9880024,627c6715c52fd12f31907bd0,,,,,,,,,,,,,,,,,,,,,,,l,1,2.7889,"[""0.137"",""0.350"",""0.604"",""0.431""]","[1,1,1,0]",0,29,29,29,1,1,0,,,1,FALSE,,,,,,,,,,,,,,,,,,,,,,,,,,,,,,,
,5b77869d338a9300015468cf,627c6fd9d1967c145333bea6,2022-05-11_22h24.55.751,classification_task,2021.2.3,Win32,59.9880024,627c6715c52fd12f31907bd0,,,,,,,,,,,,,,,,,,,,,,,a,1,2.0201,"[""0.434"",""0.552"",""0.710"",""0.891""]","[0,1,1,1]",0,30,30,30,1,0,1,,,1,FALSE,,,,,,,,,,,,,,,,,,,,,,,,,,,,,,,
,5b77869d338a9300015468cf,627c6fd9d1967c145333bea6,2022-05-11_22h24.55.751,classification_task,2021.2.3,Win32,59.9880024,627c6715c52fd12f31907bd0,,,,,,,,,,,,,,,,,,,,,,,l,1,1.154,"[""0.054"",""0.638"",""0.479"",""0.752""]","[1,0,1,1]",0,31,31,31,1,1,1,,,1,FALSE,,,,,,,,,,,,,,,,,,,,,,,,,,,,,,,
,5b77869d338a9300015468cf,627c6fd9d1967c145333bea6,2022-05-11_22h24.55.751,classification_task,2021.2.3,Win32,59.9880024,627c6715c52fd12f31907bd0,,,,,,,,,,,,,,,,,,,,,,,a,1,1.0337,"[""0.274"",""0.662"",""0.847"",""0.934""]","[1,0,1,1]",0,32,32,32,1,0,0,,,1,FALSE,,,,,,,,,,,,,,,,,,,,,,,,,,,,,,,
,5b77869d338a9300015468cf,627c6fd9d1967c145333bea6,2022-05-11_22h24.55.751,classification_task,2021.2.3,Win32,59.9880024,627c6715c52fd12f31907bd0,,,,,,,,,,,,,,,,,,,,,,,a,1,0.8841,"[""0.274"",""0.394"",""0.847"",""0.969""]","[1,1,1,0]",0,33,33,33,1,0,0,,,1,FALSE,,,,,,,,,,,,,,,,,,,,,,,,,,,,,,,
,5b77869d338a9300015468cf,627c6fd9d1967c145333bea6,2022-05-11_22h24.55.751,classification_task,2021.2.3,Win32,59.9880024,627c6715c52fd12f31907bd0,,,,,,,,,,,,,,,,,,,,,,,l,1,0.8331,"[""0.054"",""0.093"",""0.479"",""0.752""]","[1,0,1,1]",0,34,34,34,1,1,1,,,1,FALSE,,,,,,,,,,,,,,,,,,,,,,,,,,,,,,,
,5b77869d338a9300015468cf,627c6fd9d1967c145333bea6,2022-05-11_22h24.55.751,classification_task,2021.2.3,Win32,59.9880024,627c6715c52fd12f31907bd0,,,,,,,,,,,,,,,,,,,,,,,a,0,0.8791,"[""0.662"",""0.350"",""0.604"",""0.788""]","[0,1,1,1]",0,35,35,35,1,1,0,,,1,FALSE,,,,,,,,,,,,,,,,,,,,,,,,,,,,,,,
,5b77869d338a9300015468cf,627c6fd9d1967c145333bea6,2022-05-11_22h24.55.751,classification_task,2021.2.3,Win32,59.9880024,627c6715c52fd12f31907bd0,,,,,,,,,,,,,,,,,,,,,,,l,1,1.3729,"[""0.137"",""0.350"",""0.513"",""0.788""]","[1,1,0,1]",0,36,36,36,1,1,0,,,1,FALSE,,,,,,,,,,,,,,,,,,,,,,,,,,,,,,,
,5b77869d338a9300015468cf,627c6fd9d1967c145333bea6,2022-05-11_22h24.55.751,classification_task,2021.2.3,Win32,59.9880024,627c6715c52fd12f31907bd0,,,,,,,,,,,,,,,,,,,,,,,l,1,1.02,"[""0.054"",""0.208"",""0.479"",""0.646""]","[1,1,1,0]",0,37,37,37,1,1,1,,,1,FALSE,,,,,,,,,,,,,,,,,,,,,,,,,,,,,,,
,5b77869d338a9300015468cf,627c6fd9d1967c145333bea6,2022-05-11_22h24.55.751,classification_task,2021.2.3,Win32,59.9880024,627c6715c52fd12f31907bd0,,,,,,,,,,,,,,,,,,,,,,,a,1,1.168,"[""0.314"",""0.513"",""0.710"",""0.891""]","[1,0,1,1]",0,38,38,38,1,0,1,,,1,FALSE,,,,,,,,,,,,,,,,,,,,,,,,,,,,,,,
,5b77869d338a9300015468cf,627c6fd9d1967c145333bea6,2022-05-11_22h24.55.751,classification_task,2021.2.3,Win32,59.9880024,627c6715c52fd12f31907bd0,,,,,,,,,,,,,,,,,,,,,,,a,1,0.8504,"[""0.314"",""0.552"",""0.710"",""0.671""]","[1,1,1,0]",0,39,39,39,1,0,1,,,1,FALSE,,,,,,,,,,,,,,,,,,,,,,,,,,,,,,,
,5b77869d338a9300015468cf,627c6fd9d1967c145333bea6,2022-05-11_22h24.55.751,classification_task,2021.2.3,Win32,59.9880024,627c6715c52fd12f31907bd0,,,,,,,,,,,,,,,,,,,,,,,l,1,1.9505,"[""0.430"",""0.208"",""0.479"",""0.752""]","[0,1,1,1]",0,40,40,40,1,1,1,,,1,FALSE,,,,,,,,,,,,,,,,,,,,,,,,,,,,,,,
,5b77869d338a9300015468cf,627c6fd9d1967c145333bea6,2022-05-11_22h24.55.751,classification_task,2021.2.3,Win32,59.9880024,627c6715c52fd12f31907bd0,,,,,,,,,,,,,,,,,,,,,,,l,1,1.2472,"[""0.137"",""0.513"",""0.604"",""0.788""]","[1,0,1,1]",0,41,41,41,1,1,0,,,1,FALSE,,,,,,,,,,,,,,,,,,,,,,,,,,,,,,,
,5b77869d338a9300015468cf,627c6fd9d1967c145333bea6,2022-05-11_22h24.55.751,classification_task,2021.2.3,Win32,59.9880024,627c6715c52fd12f31907bd0,,,,,,,,,,,,,,,,,,,,,,,l,0,1.2156,"[""0.314"",""0.552"",""0.098"",""0.891""]","[1,1,0,1]",0,42,42,42,1,0,1,,,1,FALSE,,,,,,,,,,,,,,,,,,,,,,,,,,,,,,,
,5b77869d338a9300015468cf,627c6fd9d1967c145333bea6,2022-05-11_22h24.55.751,classification_task,2021.2.3,Win32,59.9880024,627c6715c52fd12f31907bd0,,,,,,,,,,,,,,,,,,,,,,,l,1,1.2147,"[""0.054"",""0.208"",""0.515"",""0.752""]","[1,1,0,1]",0,43,43,43,1,1,1,,,1,FALSE,,,,,,,,,,,,,,,,,,,,,,,,,,,,,,,
,5b77869d338a9300015468cf,627c6fd9d1967c145333bea6,2022-05-11_22h24.55.751,classification_task,2021.2.3,Win32,59.9880024,627c6715c52fd12f31907bd0,,,,,,,,,,,,,,,,,,,,,,,l,1,1.1778,"[""0.137"",""0.350"",""0.604"",""0.638""]","[1,1,1,0]",0,44,44,44,1,1,0,,,1,FALSE,,,,,,,,,,,,,,,,,,,,,,,,,,,,,,,
,5b77869d338a9300015468cf,627c6fd9d1967c145333bea6,2022-05-11_22h24.55.751,classification_task,2021.2.3,Win32,59.9880024,627c6715c52fd12f31907bd0,,,,,,,,,,,,,,,,,,,,,,,a,1,0.6501,"[""0.274"",""0.394"",""0.638"",""0.934""]","[1,1,0,1]",0,45,45,45,1,0,0,,,1,FALSE,,,,,,,,,,,,,,,,,,,,,,,,,,,,,,,
,5b77869d338a9300015468cf,627c6fd9d1967c145333bea6,2022-05-11_22h24.55.751,classification_task,2021.2.3,Win32,59.9880024,627c6715c52fd12f31907bd0,,,,,,,,,,,,,,,,,,,,,,,a,1,2.0007,"[""0.513"",""0.394"",""0.847"",""0.934""]","[0,1,1,1]",0,46,46,46,1,0,0,,,1,FALSE,,,,,,,,,,,,,,,,,,,,,,,,,,,,,,,
,5b77869d338a9300015468cf,627c6fd9d1967c145333bea6,2022-05-11_22h24.55.751,classification_task,2021.2.3,Win32,59.9880024,627c6715c52fd12f31907bd0,,,,,,,,,,,,,,,,,,,,,,,a,1,1.5656,"[""0.671"",""0.552"",""0.710"",""0.891""]","[0,1,1,1]",0,47,47,47,1,0,1,,,1,FALSE,,,,,,,,,,,,,,,,,,,,,,,,,,,,,,,
,5b77869d338a9300015468cf,627c6fd9d1967c145333bea6,2022-05-11_22h24.55.751,classification_task,2021.2.3,Win32,59.9880024,627c6715c52fd12f31907bd0,,,,,,,,,,,,,,,,,,,,,,,l,1,1.0983,"[""0.093"",""0.350"",""0.604"",""0.788""]","[0,1,1,1]",0,48,48,48,1,1,0,,,1,FALSE,,,,,,,,,,,,,,,,,,,,,,,,,,,,,,,
,5b77869d338a9300015468cf,627c6fd9d1967c145333bea6,2022-05-11_22h24.55.751,classification_task,2021.2.3,Win32,59.9880024,627c6715c52fd12f31907bd0,,,,,,,,,,,,,,,,,,,,,,,l,1,3.2979,"[""0.430"",""0.208"",""0.479"",""0.752""]","[0,1,1,1]",0,49,49,49,1,1,1,,,1,FALSE,,,,,,,,,,,,,,,,,,,,,,,,,,,,,,,
,5b77869d338a9300015468cf,627c6fd9d1967c145333bea6,2022-05-11_22h24.55.751,classification_task,2021.2.3,Win32,59.9880024,627c6715c52fd12f31907bd0,,,,,,,,,,,,,,,,,,,,,,,a,1,1.3876,"[""0.429"",""0.552"",""0.710"",""0.891""]","[0,1,1,1]",0,50,50,50,1,0,1,,,1,FALSE,,,,,,,,,,,,,,,,,,,,,,,,,,,,,,,
,5b77869d338a9300015468cf,627c6fd9d1967c145333bea6,2022-05-11_22h24.55.751,classification_task,2021.2.3,Win32,59.9880024,627c6715c52fd12f31907bd0,,,,,,,,,,,,,,,,,,,,,,,a,1,1.3317,"[""0.314"",""0.552"",""0.710"",""0.434""]","[1,1,1,0]",0,51,51,51,1,0,1,,,1,FALSE,,,,,,,,,,,,,,,,,,,,,,,,,,,,,,,
,5b77869d338a9300015468cf,627c6fd9d1967c145333bea6,2022-05-11_22h24.55.751,classification_task,2021.2.3,Win32,59.9880024,627c6715c52fd12f31907bd0,,,,,,,,,,,,,,,,,,,,,,,a,1,0.6669,"[""0.314"",""0.513"",""0.710"",""0.891""]","[1,0,1,1]",0,52,52,52,1,0,1,,,1,FALSE,,,,,,,,,,,,,,,,,,,,,,,,,,,,,,,
,5b77869d338a9300015468cf,627c6fd9d1967c145333bea6,2022-05-11_22h24.55.751,classification_task,2021.2.3,Win32,59.9880024,627c6715c52fd12f31907bd0,,,,,,,,,,,,,,,,,,,,,,,l,1,1.0486,"[""0.137"",""0.350"",""0.646"",""0.788""]","[1,1,0,1]",0,53,53,53,1,1,0,,,1,FALSE,,,,,,,,,,,,,,,,,,,,,,,,,,,,,,,
,5b77869d338a9300015468cf,627c6fd9d1967c145333bea6,2022-05-11_22h24.55.751,classification_task,2021.2.3,Win32,59.9880024,627c6715c52fd12f31907bd0,,,,,,,,,,,,,,,,,,,,,,,a,1,1.299,"[""0.314"",""0.552"",""0.646"",""0.891""]","[1,1,0,1]",0,54,54,54,1,0,1,,,1,FALSE,,,,,,,,,,,,,,,,,,,,,,,,,,,,,,,
,5b77869d338a9300015468cf,627c6fd9d1967c145333bea6,2022-05-11_22h24.55.751,classification_task,2021.2.3,Win32,59.9880024,627c6715c52fd12f31907bd0,,,,,,,,,,,,,,,,,,,,,,,l,1,0.8013,"[""0.054"",""0.515"",""0.479"",""0.752""]","[1,0,1,1]",0,55,55,55,1,1,1,,,1,FALSE,,,,,,,,,,,,,,,,,,,,,,,,,,,,,,,
,5b77869d338a9300015468cf,627c6fd9d1967c145333bea6,2022-05-11_22h24.55.751,classification_task,2021.2.3,Win32,59.9880024,627c6715c52fd12f31907bd0,,,,,,,,,,,,,,,,,,,,,,,a,1,0.9335,"[""0.274"",""0.394"",""0.847"",""0.513""]","[1,1,1,0]",0,56,56,56,1,0,0,,,1,FALSE,,,,,,,,,,,,,,,,,,,,,,,,,,,,,,,
,5b77869d338a9300015468cf,627c6fd9d1967c145333bea6,2022-05-11_22h24.55.751,classification_task,2021.2.3,Win32,59.9880024,627c6715c52fd12f31907bd0,,,,,,,,,,,,,,,,,,,,,,,l,0,1.0859,"[""0.098"",""0.394"",""0.847"",""0.934""]","[0,1,1,1]",0,57,57,57,1,0,0,,,1,FALSE,,,,,,,,,,,,,,,,,,,,,,,,,,,,,,,
,5b77869d338a9300015468cf,627c6fd9d1967c145333bea6,2022-05-11_22h24.55.751,classification_task,2021.2.3,Win32,59.9880024,627c6715c52fd12f31907bd0,,,,,,,,,,,,,,,,,,,,,,,l,1,0.8132,"[""0.137"",""0.646"",""0.604"",""0.788""]","[1,0,1,1]",0,58,58,58,1,1,0,,,1,FALSE,,,,,,,,,,,,,,,,,,,,,,,,,,,,,,,
,5b77869d338a9300015468cf,627c6fd9d1967c145333bea6,2022-05-11_22h24.55.751,classification_task,2021.2.3,Win32,59.9880024,627c6715c52fd12f31907bd0,,,,,,,,,,,,,,,,,,,,,,,l,1,1.1005,"[""0.054"",""0.208"",""0.479"",""0.641""]","[1,1,1,0]",0,59,59,59,1,1,1,,,1,FALSE,,,,,,,,,,,,,,,,,,,,,,,,,,,,,,,
,5b77869d338a9300015468cf,627c6fd9d1967c145333bea6,2022-05-11_22h24.55.751,classification_task,2021.2.3,Win32,59.9880024,627c6715c52fd12f31907bd0,,,,,,,,,,,,,,,,,,,,,,,l,1,1.5941,"[""0.137"",""0.350"",""0.604"",""0.515""]","[1,1,1,0]",0,60,60,60,1,1,0,,,1,FALSE,,,,,,,,,,,,,,,,,,,,,,,,,,,,,,,
,5b77869d338a9300015468cf,627c6fd9d1967c145333bea6,2022-05-11_22h24.55.751,classification_task,2021.2.3,Win32,59.9880024,627c6715c52fd12f31907bd0,,,,,,,,,,,,,,,,,,,,,,,l,1,2.0837,"[""0.054"",""0.208"",""0.662"",""0.752""]","[1,1,0,1]",0,61,61,61,1,1,1,,,1,FALSE,,,,,,,,,,,,,,,,,,,,,,,,,,,,,,,
,5b77869d338a9300015468cf,627c6fd9d1967c145333bea6,2022-05-11_22h24.55.751,classification_task,2021.2.3,Win32,59.9880024,627c6715c52fd12f31907bd0,,,,,,,,,,,,,,,,,,,,,,,a,1,0.8056,"[""0.274"",""0.429"",""0.847"",""0.934""]","[1,0,1,1]",0,62,62,62,1,0,0,,,1,FALSE,,,,,,,,,,,,,,,,,,,,,,,,,,,,,,,
,5b77869d338a9300015468cf,627c6fd9d1967c145333bea6,2022-05-11_22h24.55.751,classification_task,2021.2.3,Win32,59.9880024,627c6715c52fd12f31907bd0,,,,,,,,,,,,,,,,,,,,,,,a,1,1.5036,"[""0.274"",""0.394"",""0.439"",""0.934""]","[1,1,0,1]",0,63,63,63,1,0,0,,,1,FALSE,,,,,,,,,,,,,,,,,,,,,,,,,,,,,,,
,5b77869d338a9300015468cf,627c6fd9d1967c145333bea6,2022-05-11_22h24.55.751,classification_task,2021.2.3,Win32,59.9880024,627c6715c52fd12f31907bd0,,,,,,,,,,,,,,,,,,,,,,,,,,,,,,,,,,,,,,,0, ,,0,2.476974329,186.4029,0,2,2,2,1,2,3,,,,,,,,,,,,,,,,,,
,5b77869d338a9300015468cf,627c6fd9d1967c145333bea6,2022-05-11_22h24.55.751,classification_task,2021.2.3,Win32,59.9880024,627c6715c52fd12f31907bd0,,,,,,,,,,,,,,,,,,,,,,,,,,,,,,,,,,,,,,,1,  ,,0,6.837154615,188.7785,0,2,2,2,1,2,3,,,,,,,,,,,,,,,,,,
,5b77869d338a9300015468cf,627c6fd9d1967c145333bea6,2022-05-11_22h24.55.751,classification_task,2021.2.3,Win32,59.9880024,627c6715c52fd12f31907bd0,,,,,,,,,,,,,,,,,,,,,,,,,,,,,,,,,,,,,,,2,  ,,0,5.734861846,193.0723,0,2,2,2,1,2,3,,,,,,,,,,,,,,,,,,
,5b77869d338a9300015468cf,627c6fd9d1967c145333bea6,2022-05-11_22h24.55.751,classification_task,2021.2.3,Win32,59.9880024,627c6715c52fd12f31907bd0,,,,,,,,,,,,,,,,,,,,,,,,,,,,,,,,,,,,,,,,,,,,,0,2,2,2,1,,3,,,,,,,,,,,,,,,,,,
,5b77869d338a9300015468cf,627c6fd9d1967c145333bea6,2022-05-11_22h24.55.751,classification_task,2021.2.3,Win32,59.9880024,627c6715c52fd12f31907bd0,,,,,,,,,,,,,,,,,,,,,,,,,,,,,,,,,,,,,,,,,,,,,,,,,,,,,I believe the aid is a competent performer,,0.7,0,3,880.6048,0,0,0,0,1,0,,,,,
,5b77869d338a9300015468cf,627c6fd9d1967c145333bea6,2022-05-11_22h24.55.751,classification_task,2021.2.3,Win32,59.9880024,627c6715c52fd12f31907bd0,,,,,,,,,,,,,,,,,,,,,,,,,,,,,,,,,,,,,,,,,,,,,,,,,,,,,I trust the aid,,0.7,0,2,881.7013,0,0,0,0,1,0,,,,,
,5b77869d338a9300015468cf,627c6fd9d1967c145333bea6,2022-05-11_22h24.55.751,classification_task,2021.2.3,Win32,59.9880024,627c6715c52fd12f31907bd0,,,,,,,,,,,,,,,,,,,,,,,,,,,,,,,,,,,,,,,,,,,,,,,,,,,,,I have confidence in the advice given by the aid,,0.7,0,2,884.4381,0,0,0,0,1,0,,,,,
,5b77869d338a9300015468cf,627c6fd9d1967c145333bea6,2022-05-11_22h24.55.751,classification_task,2021.2.3,Win32,59.9880024,627c6715c52fd12f31907bd0,,,,,,,,,,,,,,,,,,,,,,,,,,,,,,,,,,,,,,,,,,,,,,,,,,,,,I can depend on the aid,,0.7,0,1,885.2596,0,0,0,0,1,0,,,,,
,5b77869d338a9300015468cf,627c6fd9d1967c145333bea6,2022-05-11_22h24.55.751,classification_task,2021.2.3,Win32,59.9880024,627c6715c52fd12f31907bd0,,,,,,,,,,,,,,,,,,,,,,,,,,,,,,,,,,,,,,,,,,,,,,,,,,,,,I can rely on the aid to behave in consistent ways,,0.7,0,2,889.8952,0,0,0,0,1,0,,,,,
,5b77869d338a9300015468cf,627c6fd9d1967c145333bea6,2022-05-11_22h24.55.751,classification_task,2021.2.3,Win32,59.9880024,627c6715c52fd12f31907bd0,,,,,,,,,,,,,,,,,,,,,,,,,,,,,,,,,,,,,,,,,,,,,,,,,,,,,I can rely on the aid to do its best every time I take its advice,,0.7,0,2,892.6825,0,0,0,0,1,0,,,,,
,5b77869d338a9300015468cf,627c6fd9d1967c145333bea6,2022-05-11_22h24.55.751,classification_task,2021.2.3,Win32,59.9880024,627c6715c52fd12f31907bd0,,,,,,,,,,,,,,,,,,,,,,,,,,,,,,,,,,,,,,,,,,,,,,,,,,,,,"On trials you completed with assistance from the aid, how frequently did you think the aid was correct?",,0.7,0,30%,,0,0,0,0,1,0,,,,,
,5b77869d338a9300015468cf,627c6fd9d1967c145333bea6,2022-05-11_22h24.55.751,classification_task,2021.2.3,Win32,59.9880024,627c6715c52fd12f31907bd0,,,,,,,,,,,,,,,,,,,,,,,,,,,,,,,,,,,,,,,,,,,,,,,,,,,,,"On trials you completed without the aid, how frequently did you think you were correct?",,0.7,0,40%,,0,0,0,0,1,0,,,,,
,5b77869d338a9300015468cf,627c6fd9d1967c145333bea6,2022-05-11_22h24.55.751,classification_task,2021.2.3,Win32,59.9880024,627c6715c52fd12f31907bd0,,,,,,,,,,,,,,,,,,,,,,,,,,,,,,,,,,,,,,,,,,,,,,,,,,,,,,,,,,,0,0,0,0,1,,,,,,
,5b77869d338a9300015468cf,627c6fd9d1967c145333bea6,2022-05-11_22h24.55.751,classification_task,2021.2.3,Win32,59.9880024,627c6715c52fd12f31907bd0,,,,,,,,,,,,,,,,,,,,,,,,,,,,,,,,,,,,,,,,,,,,,,,,,,,,,,,,,,,,,,,,,space,13.9571,920.0834,,
,5b77869d338a9300015468cf,627c6fd9d1967c145333bea6,2022-05-11_22h24.55.751,classification_task,2021.2.3,Win32,59.9880024,627c6715c52fd12f31907bd0,,,,,,,,,,,,,,,,,,,,,,,,,,,,,,,,,,,,,,,,,,,,,,,,,,,,,,,,,,,,,,,,,,,,"Mozilla/5.0 (Windows NT 10.0; Win64; x64) AppleWebKit/537.36 (KHTML, like Gecko) Chrome/101.0.4951.54 Safari/537.36",
,5b77869d338a9300015468cf,627c6fd9d1967c145333bea6,2022-05-11_22h24.55.751,classification_task,2021.2.3,Win32,59.9880024,627c6715c52fd12f31907bd0,,,,,,,,,,,,,,,,,,,,,,,,,,,,,,,,,,,,,,,,,,,,,,,,,,,,,,,,,,,,,,,,,,,,,LOWLIGHT
