usingWebGL,participant,session,date,expName,psychopyVersion,OS,frameRate,study_id,signatures_friend,signatures_foe,band_ranges_top,band_ranges_bottom,formitemText,formtype,formundefined,formitemWidth,formindex,formresponse,formrt,key_resp_2.keys,key_resp_2.rt,tute_resp.keys,tute_resp.rt,tutorial.thisRepN,tutorial.thisTrialN,tutorial.thisN,tutorial.thisIndex,tutorial.ran,key_resp_4.keys,key_resp_4.rt,key_resp.keys,key_resp.corr,lines_presented,is_signal_presented,trials.thisRepN,trials.thisTrialN,trials.thisN,trials.thisIndex,trials.ran,vessel,active_band,lines,is_signal,supported_pos,catch_trial,key_resp.rt,debrief_formindex,debrief_formitemText,debrief_formtype,debrief_formitemWidth,debrief_formresponse,debrief_formrt,phases.thisRepN,phases.thisTrialN,phases.thisN,phases.thisIndex,phases.ran,phases.order,phase,key_resp_3.keys,trustitemText,trusttype,trustitemWidth,trustindex,trustresponse,trustrt,support_status.thisRepN,support_status.thisTrialN,support_status.thisN,support_status.thisIndex,support_status.ran,support_status.order,key_resp_5.keys,key_resp_5.rt,globalClockTime,userAgent,manualCondition
TRUE,5b830542b0d72600018dc280,627c6f4fb368a87425bdae64,2022-05-12_04h22.42.570,classification_task,2021.2.3,Win32,59.93407252,627c6715c52fd12f31907bd0,,,,,,,,,,,,,,,,,,,,,,,,,,,,,,,,,,,,,,,,,,,,,,,,,,,,,,,,,,,,,,,,,,,,,
,5b830542b0d72600018dc280,627c6f4fb368a87425bdae64,2022-05-12_04h22.42.570,classification_task,2021.2.3,Win32,59.93407252,627c6715c52fd12f31907bd0,"[[""0.179"",""0.552"",""0.799"",""0.901""],[""0.214"",""0.385"",""0.858"",""0.946""]]","[[""0.144"",""0.306"",""0.604"",""0.739""],[""0.043"",""0.090"",""0.445"",""0.674""]]","[1,10]","[100,1000]",Video game experience,,,0.7,0,,,,,,,,,,,,,,,,,,,,,,,,,,,,,,,,,,,,,,,,,,,,,,,,,,,,,,,,,,,,
,5b830542b0d72600018dc280,627c6f4fb368a87425bdae64,2022-05-12_04h22.42.570,classification_task,2021.2.3,Win32,59.93407252,627c6715c52fd12f31907bd0,,,,,Approximately how many hours did you spend playing video games in the last week?,,,0.7,0,0,,,,,,,,,,,,,,,,,,,,,,,,,,,,,,,,,,,,,,,,,,,,,,,,,,,,,,,,,,,
,5b830542b0d72600018dc280,627c6f4fb368a87425bdae64,2022-05-12_04h22.42.570,classification_task,2021.2.3,Win32,59.93407252,627c6715c52fd12f31907bd0,,,,,"Which game did you play the most this year? (Enter ""None"" if you didn't play any)",,,0.7,0,Mario Bros,,,,,,,,,,,,,,,,,,,,,,,,,,,,,,,,,,,,,,,,,,,,,,,,,,,,,,,,,,,
,5b830542b0d72600018dc280,627c6f4fb368a87425bdae64,2022-05-12_04h22.42.570,classification_task,2021.2.3,Win32,59.93407252,627c6715c52fd12f31907bd0,,,,,Visual perception,,,0.7,0,,,,,,,,,,,,,,,,,,,,,,,,,,,,,,,,,,,,,,,,,,,,,,,,,,,,,,,,,,,,
,5b830542b0d72600018dc280,627c6f4fb368a87425bdae64,2022-05-12_04h22.42.570,classification_task,2021.2.3,Win32,59.93407252,627c6715c52fd12f31907bd0,,,,,Do you have any form of color blindness?,,,0.7,0,No,39.6652,,,,,,,,,,,,,,,,,,,,,,,,,,,,,,,,,,,,,,,,,,,,,,,,,,,,,,,,,,
,5b830542b0d72600018dc280,627c6f4fb368a87425bdae64,2022-05-12_04h22.42.570,classification_task,2021.2.3,Win32,59.93407252,627c6715c52fd12f31907bd0,,,,,Do you use software to change the colour temperature of your screen (e.g. f.lux)?,,,0.7,0,No,45.2406,,,,,,,,,,,,,,,,,,,,,,,,,,,,,,,,,,,,,,,,,,,,,,,,,,,,,,,,,,
,5b830542b0d72600018dc280,627c6f4fb368a87425bdae64,2022-05-12_04h22.42.570,classification_task,2021.2.3,Win32,59.93407252,627c6715c52fd12f31907bd0,,,,,,,,,,,,space,45.5472,space,10.188,0,0,0,0,1,,,,,,,,,,,,,,,,,,,,,,,,,,,,,,,,,,,,,,,,,,,,,,,,,
,5b830542b0d72600018dc280,627c6f4fb368a87425bdae64,2022-05-12_04h22.42.570,classification_task,2021.2.3,Win32,59.93407252,627c6715c52fd12f31907bd0,,,,,,,,,,,,,,space,9.6513,1,0,1,0,1,,,,,,,,,,,,,,,,,,,,,,,,,,,,,,,,,,,,,,,,,,,,,,,,,
,5b830542b0d72600018dc280,627c6f4fb368a87425bdae64,2022-05-12_04h22.42.570,classification_task,2021.2.3,Win32,59.93407252,627c6715c52fd12f31907bd0,,,,,,,,,,,,,,space,29.2431,2,0,2,0,1,,,,,,,,,,,,,,,,,,,,,,,,,,,,,,,,,,,,,,,,,,,,,,,,,
,5b830542b0d72600018dc280,627c6f4fb368a87425bdae64,2022-05-12_04h22.42.570,classification_task,2021.2.3,Win32,59.93407252,627c6715c52fd12f31907bd0,,,,,,,,,,,,,,space,50.7928,3,0,3,0,1,,,,,,,,,,,,,,,,,,,,,,,,,,,,,,,,,,,,,,,,,,,,,,,,,
,5b830542b0d72600018dc280,627c6f4fb368a87425bdae64,2022-05-12_04h22.42.570,classification_task,2021.2.3,Win32,59.93407252,627c6715c52fd12f31907bd0,,,,,,,,,,,,,,space,14.2184,4,0,4,0,1,,,,,,,,,,,,,,,,,,,,,,,,,,,,,,,,,,,,,,,,,,,,,,,,,
,5b830542b0d72600018dc280,627c6f4fb368a87425bdae64,2022-05-12_04h22.42.570,classification_task,2021.2.3,Win32,59.93407252,627c6715c52fd12f31907bd0,,,,,,,,,,,,,,,,,,,,,space,19.5343,,0,"[""0.214"",""0.385"",""0.257"",""0.946""]","[1,1,0,1]",0,0,0,0,1,0,1,,,0,FALSE,,,,,,,,,,,,,,,,,,,,,,,,,,,,,,,,
,5b830542b0d72600018dc280,627c6f4fb368a87425bdae64,2022-05-12_04h22.42.570,classification_task,2021.2.3,Win32,59.93407252,627c6715c52fd12f31907bd0,,,,,,,,,,,,,,,,,,,,,,,a,1,"[""0.501"",""0.552"",""0.799"",""0.901""]","[0,1,1,1]",0,1,1,1,1,0,0,,,0,FALSE,6.0109,,,,,,,,,,,,,,,,,,,,,,,,,,,,,,,
,5b830542b0d72600018dc280,627c6f4fb368a87425bdae64,2022-05-12_04h22.42.570,classification_task,2021.2.3,Win32,59.93407252,627c6715c52fd12f31907bd0,,,,,,,,,,,,,,,,,,,,,,,a,1,"[""0.214"",""0.257"",""0.858"",""0.946""]","[1,0,1,1]",0,2,2,2,1,0,1,,,0,FALSE,4.3949,,,,,,,,,,,,,,,,,,,,,,,,,,,,,,,
,5b830542b0d72600018dc280,627c6f4fb368a87425bdae64,2022-05-12_04h22.42.570,classification_task,2021.2.3,Win32,59.93407252,627c6715c52fd12f31907bd0,,,,,,,,,,,,,,,,,,,,,,,a,1,"[""0.257"",""0.385"",""0.858"",""0.946""]","[0,1,1,1]",0,3,3,3,1,0,1,,,0,FALSE,5.1524,,,,,,,,,,,,,,,,,,,,,,,,,,,,,,,
,5b830542b0d72600018dc280,627c6f4fb368a87425bdae64,2022-05-12_04h22.42.570,classification_task,2021.2.3,Win32,59.93407252,627c6715c52fd12f31907bd0,,,,,,,,,,,,,,,,,,,,,,,l,1,"[""0.144"",""0.306"",""0.506"",""0.739""]","[1,1,0,1]",0,4,4,4,1,1,0,,,0,FALSE,6.2139,,,,,,,,,,,,,,,,,,,,,,,,,,,,,,,
,5b830542b0d72600018dc280,627c6f4fb368a87425bdae64,2022-05-12_04h22.42.570,classification_task,2021.2.3,Win32,59.93407252,627c6715c52fd12f31907bd0,,,,,,,,,,,,,,,,,,,,,,,l,1,"[""0.043"",""0.253"",""0.445"",""0.674""]","[1,0,1,1]",0,5,5,5,1,1,1,,,0,FALSE,4.8474,,,,,,,,,,,,,,,,,,,,,,,,,,,,,,,
,5b830542b0d72600018dc280,627c6f4fb368a87425bdae64,2022-05-12_04h22.42.570,classification_task,2021.2.3,Win32,59.93407252,627c6715c52fd12f31907bd0,,,,,,,,,,,,,,,,,,,,,,,,0,"[""0.179"",""0.552"",""0.799"",""0.498""]","[1,1,1,0]",0,6,6,6,1,0,0,,,0,FALSE,,,,,,,,,,,,,,,,,,,,,,,,,,,,,,,,
,5b830542b0d72600018dc280,627c6f4fb368a87425bdae64,2022-05-12_04h22.42.570,classification_task,2021.2.3,Win32,59.93407252,627c6715c52fd12f31907bd0,,,,,,,,,,,,,,,,,,,,,,,a,1,"[""0.179"",""0.552"",""0.257"",""0.901""]","[1,1,0,1]",0,7,7,7,1,0,0,,,0,FALSE,4.1827,,,,,,,,,,,,,,,,,,,,,,,,,,,,,,,
,5b830542b0d72600018dc280,627c6f4fb368a87425bdae64,2022-05-12_04h22.42.570,classification_task,2021.2.3,Win32,59.93407252,627c6715c52fd12f31907bd0,,,,,,,,,,,,,,,,,,,,,,,l,1,"[""0.485"",""0.090"",""0.445"",""0.674""]","[0,1,1,1]",0,8,8,8,1,1,1,,,0,FALSE,3.8252,,,,,,,,,,,,,,,,,,,,,,,,,,,,,,,
,5b830542b0d72600018dc280,627c6f4fb368a87425bdae64,2022-05-12_04h22.42.570,classification_task,2021.2.3,Win32,59.93407252,627c6715c52fd12f31907bd0,,,,,,,,,,,,,,,,,,,,,,,a,1,"[""0.214"",""0.385"",""0.858"",""0.482""]","[1,1,1,0]",0,9,9,9,1,0,1,,,0,FALSE,2.334,,,,,,,,,,,,,,,,,,,,,,,,,,,,,,,
,5b830542b0d72600018dc280,627c6f4fb368a87425bdae64,2022-05-12_04h22.42.570,classification_task,2021.2.3,Win32,59.93407252,627c6715c52fd12f31907bd0,,,,,,,,,,,,,,,,,,,,,,,l,1,"[""0.498"",""0.306"",""0.604"",""0.739""]","[0,1,1,1]",0,10,10,10,1,1,0,,,0,FALSE,3.3855,,,,,,,,,,,,,,,,,,,,,,,,,,,,,,,
,5b830542b0d72600018dc280,627c6f4fb368a87425bdae64,2022-05-12_04h22.42.570,classification_task,2021.2.3,Win32,59.93407252,627c6715c52fd12f31907bd0,,,,,,,,,,,,,,,,,,,,,,,l,1,"[""0.144"",""0.306"",""0.604"",""0.482""]","[1,1,1,0]",0,11,11,11,1,1,0,,,0,FALSE,2.0301,,,,,,,,,,,,,,,,,,,,,,,,,,,,,,,
,5b830542b0d72600018dc280,627c6f4fb368a87425bdae64,2022-05-12_04h22.42.570,classification_task,2021.2.3,Win32,59.93407252,627c6715c52fd12f31907bd0,,,,,,,,,,,,,,,,,,,,,,,a,0,"[""0.144"",""0.269"",""0.604"",""0.739""]","[1,0,1,1]",0,12,12,12,1,1,0,,,0,FALSE,1.8987,,,,,,,,,,,,,,,,,,,,,,,,,,,,,,,
,5b830542b0d72600018dc280,627c6f4fb368a87425bdae64,2022-05-12_04h22.42.570,classification_task,2021.2.3,Win32,59.93407252,627c6715c52fd12f31907bd0,,,,,,,,,,,,,,,,,,,,,,,a,1,"[""0.179"",""0.501"",""0.799"",""0.901""]","[1,0,1,1]",0,13,13,13,1,0,0,,,0,FALSE,2.8145,,,,,,,,,,,,,,,,,,,,,,,,,,,,,,,
,5b830542b0d72600018dc280,627c6f4fb368a87425bdae64,2022-05-12_04h22.42.570,classification_task,2021.2.3,Win32,59.93407252,627c6715c52fd12f31907bd0,,,,,,,,,,,,,,,,,,,,,,,l,1,"[""0.043"",""0.090"",""0.485"",""0.674""]","[1,1,0,1]",0,14,14,14,1,1,1,,,0,FALSE,3.4667,,,,,,,,,,,,,,,,,,,,,,,,,,,,,,,
,5b830542b0d72600018dc280,627c6f4fb368a87425bdae64,2022-05-12_04h22.42.570,classification_task,2021.2.3,Win32,59.93407252,627c6715c52fd12f31907bd0,,,,,,,,,,,,,,,,,,,,,,,l,1,"[""0.043"",""0.090"",""0.445"",""0.269""]","[1,1,1,0]",0,15,15,15,1,1,1,,,0,FALSE,2.1683,,,,,,,,,,,,,,,,,,,,,,,,,,,,,,,
,5b830542b0d72600018dc280,627c6f4fb368a87425bdae64,2022-05-12_04h22.42.570,classification_task,2021.2.3,Win32,59.93407252,627c6715c52fd12f31907bd0,,,,,,,,,,,,,,,,,,,,,,,a,1,"[""0.179"",""0.501"",""0.799"",""0.901""]","[1,0,1,1]",0,16,16,16,1,0,0,,,0,FALSE,6.756,,,,,,,,,,,,,,,,,,,,,,,,,,,,,,,
,5b830542b0d72600018dc280,627c6f4fb368a87425bdae64,2022-05-12_04h22.42.570,classification_task,2021.2.3,Win32,59.93407252,627c6715c52fd12f31907bd0,,,,,,,,,,,,,,,,,,,,,,,a,1,"[""0.214"",""0.385"",""0.498"",""0.946""]","[1,1,0,1]",0,17,17,17,1,0,1,,,0,FALSE,2.2774,,,,,,,,,,,,,,,,,,,,,,,,,,,,,,,
,5b830542b0d72600018dc280,627c6f4fb368a87425bdae64,2022-05-12_04h22.42.570,classification_task,2021.2.3,Win32,59.93407252,627c6715c52fd12f31907bd0,,,,,,,,,,,,,,,,,,,,,,,a,1,"[""0.350"",""0.385"",""0.858"",""0.946""]","[0,1,1,1]",0,18,18,18,1,0,1,,,0,FALSE,4.2958,,,,,,,,,,,,,,,,,,,,,,,,,,,,,,,
,5b830542b0d72600018dc280,627c6f4fb368a87425bdae64,2022-05-12_04h22.42.570,classification_task,2021.2.3,Win32,59.93407252,627c6715c52fd12f31907bd0,,,,,,,,,,,,,,,,,,,,,,,l,1,"[""0.043"",""0.506"",""0.445"",""0.674""]","[1,0,1,1]",0,19,19,19,1,1,1,,,0,FALSE,3.4886,,,,,,,,,,,,,,,,,,,,,,,,,,,,,,,
,5b830542b0d72600018dc280,627c6f4fb368a87425bdae64,2022-05-12_04h22.42.570,classification_task,2021.2.3,Win32,59.93407252,627c6715c52fd12f31907bd0,,,,,,,,,,,,,,,,,,,,,,,a,1,"[""0.179"",""0.552"",""0.506"",""0.901""]","[1,1,0,1]",0,20,20,20,1,0,0,,,0,FALSE,2.8656,,,,,,,,,,,,,,,,,,,,,,,,,,,,,,,
,5b830542b0d72600018dc280,627c6f4fb368a87425bdae64,2022-05-12_04h22.42.570,classification_task,2021.2.3,Win32,59.93407252,627c6715c52fd12f31907bd0,,,,,,,,,,,,,,,,,,,,,,,a,1,"[""0.214"",""0.501"",""0.858"",""0.946""]","[1,0,1,1]",0,21,21,21,1,0,1,,,0,FALSE,2.2104,,,,,,,,,,,,,,,,,,,,,,,,,,,,,,,
,5b830542b0d72600018dc280,627c6f4fb368a87425bdae64,2022-05-12_04h22.42.570,classification_task,2021.2.3,Win32,59.93407252,627c6715c52fd12f31907bd0,,,,,,,,,,,,,,,,,,,,,,,l,1,"[""0.144"",""0.306"",""0.604"",""0.501""]","[1,1,1,0]",0,22,22,22,1,1,0,,,0,FALSE,3.0967,,,,,,,,,,,,,,,,,,,,,,,,,,,,,,,
,5b830542b0d72600018dc280,627c6f4fb368a87425bdae64,2022-05-12_04h22.42.570,classification_task,2021.2.3,Win32,59.93407252,627c6715c52fd12f31907bd0,,,,,,,,,,,,,,,,,,,,,,,a,1,"[""0.498"",""0.552"",""0.799"",""0.901""]","[0,1,1,1]",0,23,23,23,1,0,0,,,0,FALSE,5.7119,,,,,,,,,,,,,,,,,,,,,,,,,,,,,,,
,5b830542b0d72600018dc280,627c6f4fb368a87425bdae64,2022-05-12_04h22.42.570,classification_task,2021.2.3,Win32,59.93407252,627c6715c52fd12f31907bd0,,,,,,,,,,,,,,,,,,,,,,,l,1,"[""0.144"",""0.485"",""0.604"",""0.739""]","[1,0,1,1]",0,24,24,24,1,1,0,,,0,FALSE,5.1677,,,,,,,,,,,,,,,,,,,,,,,,,,,,,,,
,5b830542b0d72600018dc280,627c6f4fb368a87425bdae64,2022-05-12_04h22.42.570,classification_task,2021.2.3,Win32,59.93407252,627c6715c52fd12f31907bd0,,,,,,,,,,,,,,,,,,,,,,,a,1,"[""0.179"",""0.552"",""0.799"",""0.482""]","[1,1,1,0]",0,25,25,25,1,0,0,,,0,FALSE,1.3918,,,,,,,,,,,,,,,,,,,,,,,,,,,,,,,
,5b830542b0d72600018dc280,627c6f4fb368a87425bdae64,2022-05-12_04h22.42.570,classification_task,2021.2.3,Win32,59.93407252,627c6715c52fd12f31907bd0,,,,,,,,,,,,,,,,,,,,,,,l,1,"[""0.043"",""0.090"",""0.498"",""0.674""]","[1,1,0,1]",0,26,26,26,1,1,1,,,0,FALSE,1.7915,,,,,,,,,,,,,,,,,,,,,,,,,,,,,,,
,5b830542b0d72600018dc280,627c6f4fb368a87425bdae64,2022-05-12_04h22.42.570,classification_task,2021.2.3,Win32,59.93407252,627c6715c52fd12f31907bd0,,,,,,,,,,,,,,,,,,,,,,,l,1,"[""0.144"",""0.306"",""0.501"",""0.739""]","[1,1,0,1]",0,27,27,27,1,1,0,,,0,FALSE,1.8137,,,,,,,,,,,,,,,,,,,,,,,,,,,,,,,
,5b830542b0d72600018dc280,627c6f4fb368a87425bdae64,2022-05-12_04h22.42.570,classification_task,2021.2.3,Win32,59.93407252,627c6715c52fd12f31907bd0,,,,,,,,,,,,,,,,,,,,,,,l,1,"[""0.514"",""0.306"",""0.604"",""0.739""]","[0,1,1,1]",0,28,28,28,1,1,0,,,0,FALSE,3.7433,,,,,,,,,,,,,,,,,,,,,,,,,,,,,,,
,5b830542b0d72600018dc280,627c6f4fb368a87425bdae64,2022-05-12_04h22.42.570,classification_task,2021.2.3,Win32,59.93407252,627c6715c52fd12f31907bd0,,,,,,,,,,,,,,,,,,,,,,,l,1,"[""0.498"",""0.090"",""0.445"",""0.674""]","[0,1,1,1]",0,29,29,29,1,1,1,,,0,FALSE,2.2042,,,,,,,,,,,,,,,,,,,,,,,,,,,,,,,
,5b830542b0d72600018dc280,627c6f4fb368a87425bdae64,2022-05-12_04h22.42.570,classification_task,2021.2.3,Win32,59.93407252,627c6715c52fd12f31907bd0,,,,,,,,,,,,,,,,,,,,,,,l,1,"[""0.043"",""0.090"",""0.445"",""0.501""]","[1,1,1,0]",0,30,30,30,1,1,1,,,0,FALSE,1.2876,,,,,,,,,,,,,,,,,,,,,,,,,,,,,,,
,5b830542b0d72600018dc280,627c6f4fb368a87425bdae64,2022-05-12_04h22.42.570,classification_task,2021.2.3,Win32,59.93407252,627c6715c52fd12f31907bd0,,,,,,,,,,,,,,,,,,,,,,,a,1,"[""0.214"",""0.385"",""0.858"",""0.516""]","[1,1,1,0]",0,31,31,31,1,0,1,,,0,FALSE,2.0465,,,,,,,,,,,,,,,,,,,,,,,,,,,,,,,
,5b830542b0d72600018dc280,627c6f4fb368a87425bdae64,2022-05-12_04h22.42.570,classification_task,2021.2.3,Win32,59.93407252,627c6715c52fd12f31907bd0,,,,,,,,,,,,,,,,,,,,,,,l,1,"[""0.043"",""0.090"",""0.445"",""0.350""]","[1,1,1,0]",0,32,32,32,1,1,1,,,0,FALSE,6.9684,,,,,,,,,,,,,,,,,,,,,,,,,,,,,,,
,5b830542b0d72600018dc280,627c6f4fb368a87425bdae64,2022-05-12_04h22.42.570,classification_task,2021.2.3,Win32,59.93407252,627c6715c52fd12f31907bd0,,,,,,,,,,,,,,,,,,,,,,,a,1,"[""0.179"",""0.552"",""0.350"",""0.901""]","[1,1,0,1]",0,33,33,33,1,0,0,,,0,FALSE,3.2171,,,,,,,,,,,,,,,,,,,,,,,,,,,,,,,
,5b830542b0d72600018dc280,627c6f4fb368a87425bdae64,2022-05-12_04h22.42.570,classification_task,2021.2.3,Win32,59.93407252,627c6715c52fd12f31907bd0,,,,,,,,,,,,,,,,,,,,,,,a,1,"[""0.179"",""0.350"",""0.799"",""0.901""]","[1,0,1,1]",0,34,34,34,1,0,0,,,0,FALSE,0.9823,,,,,,,,,,,,,,,,,,,,,,,,,,,,,,,
,5b830542b0d72600018dc280,627c6f4fb368a87425bdae64,2022-05-12_04h22.42.570,classification_task,2021.2.3,Win32,59.93407252,627c6715c52fd12f31907bd0,,,,,,,,,,,,,,,,,,,,,,,l,1,"[""0.498"",""0.090"",""0.445"",""0.674""]","[0,1,1,1]",0,35,35,35,1,1,1,,,0,FALSE,1.5029,,,,,,,,,,,,,,,,,,,,,,,,,,,,,,,
,5b830542b0d72600018dc280,627c6f4fb368a87425bdae64,2022-05-12_04h22.42.570,classification_task,2021.2.3,Win32,59.93407252,627c6715c52fd12f31907bd0,,,,,,,,,,,,,,,,,,,,,,,a,1,"[""0.179"",""0.552"",""0.799"",""0.497""]","[1,1,1,0]",0,36,36,36,1,0,0,,,0,FALSE,3.3417,,,,,,,,,,,,,,,,,,,,,,,,,,,,,,,
,5b830542b0d72600018dc280,627c6f4fb368a87425bdae64,2022-05-12_04h22.42.570,classification_task,2021.2.3,Win32,59.93407252,627c6715c52fd12f31907bd0,,,,,,,,,,,,,,,,,,,,,,,l,1,"[""0.144"",""0.497"",""0.604"",""0.739""]","[1,0,1,1]",0,37,37,37,1,1,0,,,0,FALSE,0.9029,,,,,,,,,,,,,,,,,,,,,,,,,,,,,,,
,5b830542b0d72600018dc280,627c6f4fb368a87425bdae64,2022-05-12_04h22.42.570,classification_task,2021.2.3,Win32,59.93407252,627c6715c52fd12f31907bd0,,,,,,,,,,,,,,,,,,,,,,,a,1,"[""0.498"",""0.552"",""0.799"",""0.901""]","[0,1,1,1]",0,38,38,38,1,0,0,,,0,FALSE,6.4888,,,,,,,,,,,,,,,,,,,,,,,,,,,,,,,
,5b830542b0d72600018dc280,627c6f4fb368a87425bdae64,2022-05-12_04h22.42.570,classification_task,2021.2.3,Win32,59.93407252,627c6715c52fd12f31907bd0,,,,,,,,,,,,,,,,,,,,,,,a,1,"[""0.214"",""0.497"",""0.858"",""0.946""]","[1,0,1,1]",0,39,39,39,1,0,1,,,0,FALSE,1.588,,,,,,,,,,,,,,,,,,,,,,,,,,,,,,,
,5b830542b0d72600018dc280,627c6f4fb368a87425bdae64,2022-05-12_04h22.42.570,classification_task,2021.2.3,Win32,59.93407252,627c6715c52fd12f31907bd0,,,,,,,,,,,,,,,,,,,,,,,l,1,"[""0.043"",""0.256"",""0.445"",""0.674""]","[1,0,1,1]",0,40,40,40,1,1,1,,,0,FALSE,1.1648,,,,,,,,,,,,,,,,,,,,,,,,,,,,,,,
,5b830542b0d72600018dc280,627c6f4fb368a87425bdae64,2022-05-12_04h22.42.570,classification_task,2021.2.3,Win32,59.93407252,627c6715c52fd12f31907bd0,,,,,,,,,,,,,,,,,,,,,,,l,1,"[""0.482"",""0.306"",""0.604"",""0.739""]","[0,1,1,1]",0,41,41,41,1,1,0,,,0,FALSE,2.4091,,,,,,,,,,,,,,,,,,,,,,,,,,,,,,,
,5b830542b0d72600018dc280,627c6f4fb368a87425bdae64,2022-05-12_04h22.42.570,classification_task,2021.2.3,Win32,59.93407252,627c6715c52fd12f31907bd0,,,,,,,,,,,,,,,,,,,,,,,a,1,"[""0.214"",""0.385"",""0.485"",""0.946""]","[1,1,0,1]",0,42,42,42,1,0,1,,,0,FALSE,2.4926,,,,,,,,,,,,,,,,,,,,,,,,,,,,,,,
,5b830542b0d72600018dc280,627c6f4fb368a87425bdae64,2022-05-12_04h22.42.570,classification_task,2021.2.3,Win32,59.93407252,627c6715c52fd12f31907bd0,,,,,,,,,,,,,,,,,,,,,,,l,1,"[""0.144"",""0.306"",""0.257"",""0.739""]","[1,1,0,1]",0,43,43,43,1,1,0,,,0,FALSE,1.1158,,,,,,,,,,,,,,,,,,,,,,,,,,,,,,,
,5b830542b0d72600018dc280,627c6f4fb368a87425bdae64,2022-05-12_04h22.42.570,classification_task,2021.2.3,Win32,59.93407252,627c6715c52fd12f31907bd0,,,,,,,,,,,,,,,,,,,,,,,a,1,"[""0.498"",""0.385"",""0.858"",""0.946""]","[0,1,1,1]",0,44,44,44,1,0,1,,,0,FALSE,4.2835,,,,,,,,,,,,,,,,,,,,,,,,,,,,,,,
,5b830542b0d72600018dc280,627c6f4fb368a87425bdae64,2022-05-12_04h22.42.570,classification_task,2021.2.3,Win32,59.93407252,627c6715c52fd12f31907bd0,,,,,,,,,,,,,,,,,,,,,,,l,1,"[""0.043"",""0.090"",""0.482"",""0.674""]","[1,1,0,1]",0,45,45,45,1,1,1,,,0,FALSE,2.0394,,,,,,,,,,,,,,,,,,,,,,,,,,,,,,,
,5b830542b0d72600018dc280,627c6f4fb368a87425bdae64,2022-05-12_04h22.42.570,classification_task,2021.2.3,Win32,59.93407252,627c6715c52fd12f31907bd0,,,,,,,,,,,,,,,,,,,,,,,l,1,"[""0.144"",""0.306"",""0.604"",""0.497""]","[1,1,1,0]",0,46,46,46,1,1,0,,,0,FALSE,1.354,,,,,,,,,,,,,,,,,,,,,,,,,,,,,,,
,5b830542b0d72600018dc280,627c6f4fb368a87425bdae64,2022-05-12_04h22.42.570,classification_task,2021.2.3,Win32,59.93407252,627c6715c52fd12f31907bd0,,,,,,,,,,,,,,,,,,,,,,,a,1,"[""0.214"",""0.385"",""0.858"",""0.257""]","[1,1,1,0]",0,47,47,47,1,0,1,,,0,FALSE,1.1586,,,,,,,,,,,,,,,,,,,,,,,,,,,,,,,
,5b830542b0d72600018dc280,627c6f4fb368a87425bdae64,2022-05-12_04h22.42.570,classification_task,2021.2.3,Win32,59.93407252,627c6715c52fd12f31907bd0,,,,,,,,,,,,,,,,,,,,,,,a,1,"[""0.214"",""0.385"",""0.498"",""0.946""]","[1,1,0,1]",0,48,48,48,1,0,1,,,0,FALSE,1.101,,,,,,,,,,,,,,,,,,,,,,,,,,,,,,,
,5b830542b0d72600018dc280,627c6f4fb368a87425bdae64,2022-05-12_04h22.42.570,classification_task,2021.2.3,Win32,59.93407252,627c6715c52fd12f31907bd0,,,,,,,,,,,,,,,,,,,,,,,a,1,"[""0.256"",""0.552"",""0.799"",""0.901""]","[0,1,1,1]",0,49,49,49,1,0,0,,,0,FALSE,2.7961,,,,,,,,,,,,,,,,,,,,,,,,,,,,,,,
,5b830542b0d72600018dc280,627c6f4fb368a87425bdae64,2022-05-12_04h22.42.570,classification_task,2021.2.3,Win32,59.93407252,627c6715c52fd12f31907bd0,,,,,,,,,,,,,,,,,,,,,,,l,1,"[""0.497"",""0.306"",""0.604"",""0.739""]","[0,1,1,1]",0,50,50,50,1,1,0,,,0,FALSE,1.0509,,,,,,,,,,,,,,,,,,,,,,,,,,,,,,,
,5b830542b0d72600018dc280,627c6f4fb368a87425bdae64,2022-05-12_04h22.42.570,classification_task,2021.2.3,Win32,59.93407252,627c6715c52fd12f31907bd0,,,,,,,,,,,,,,,,,,,,,,,l,0,"[""0.214"",""0.498"",""0.858"",""0.946""]","[1,0,1,1]",0,51,51,51,1,0,1,,,0,FALSE,1.5007,,,,,,,,,,,,,,,,,,,,,,,,,,,,,,,
,5b830542b0d72600018dc280,627c6f4fb368a87425bdae64,2022-05-12_04h22.42.570,classification_task,2021.2.3,Win32,59.93407252,627c6715c52fd12f31907bd0,,,,,,,,,,,,,,,,,,,,,,,l,0,"[""0.179"",""0.552"",""0.501"",""0.901""]","[1,1,0,1]",0,52,52,52,1,0,0,,,0,FALSE,6.1633,,,,,,,,,,,,,,,,,,,,,,,,,,,,,,,
,5b830542b0d72600018dc280,627c6f4fb368a87425bdae64,2022-05-12_04h22.42.570,classification_task,2021.2.3,Win32,59.93407252,627c6715c52fd12f31907bd0,,,,,,,,,,,,,,,,,,,,,,,a,1,"[""0.501"",""0.385"",""0.858"",""0.946""]","[0,1,1,1]",0,53,53,53,1,0,1,,,0,FALSE,3.5227,,,,,,,,,,,,,,,,,,,,,,,,,,,,,,,
,5b830542b0d72600018dc280,627c6f4fb368a87425bdae64,2022-05-12_04h22.42.570,classification_task,2021.2.3,Win32,59.93407252,627c6715c52fd12f31907bd0,,,,,,,,,,,,,,,,,,,,,,,a,1,"[""0.179"",""0.552"",""0.799"",""0.497""]","[1,1,1,0]",0,54,54,54,1,0,0,,,0,FALSE,1.4568,,,,,,,,,,,,,,,,,,,,,,,,,,,,,,,
,5b830542b0d72600018dc280,627c6f4fb368a87425bdae64,2022-05-12_04h22.42.570,classification_task,2021.2.3,Win32,59.93407252,627c6715c52fd12f31907bd0,,,,,,,,,,,,,,,,,,,,,,,l,1,"[""0.144"",""0.306"",""0.604"",""0.257""]","[1,1,1,0]",0,55,55,55,1,1,0,,,0,FALSE,0.9284,,,,,,,,,,,,,,,,,,,,,,,,,,,,,,,
,5b830542b0d72600018dc280,627c6f4fb368a87425bdae64,2022-05-12_04h22.42.570,classification_task,2021.2.3,Win32,59.93407252,627c6715c52fd12f31907bd0,,,,,,,,,,,,,,,,,,,,,,,l,1,"[""0.350"",""0.090"",""0.445"",""0.674""]","[0,1,1,1]",0,56,56,56,1,1,1,,,0,FALSE,1.2103,,,,,,,,,,,,,,,,,,,,,,,,,,,,,,,
,5b830542b0d72600018dc280,627c6f4fb368a87425bdae64,2022-05-12_04h22.42.570,classification_task,2021.2.3,Win32,59.93407252,627c6715c52fd12f31907bd0,,,,,,,,,,,,,,,,,,,,,,,l,1,"[""0.144"",""0.514"",""0.604"",""0.739""]","[1,0,1,1]",0,57,57,57,1,1,0,,,0,FALSE,1.1573,,,,,,,,,,,,,,,,,,,,,,,,,,,,,,,
,5b830542b0d72600018dc280,627c6f4fb368a87425bdae64,2022-05-12_04h22.42.570,classification_task,2021.2.3,Win32,59.93407252,627c6715c52fd12f31907bd0,,,,,,,,,,,,,,,,,,,,,,,l,1,"[""0.043"",""0.090"",""0.445"",""0.350""]","[1,1,1,0]",0,58,58,58,1,1,1,,,0,FALSE,1.0097,,,,,,,,,,,,,,,,,,,,,,,,,,,,,,,
,5b830542b0d72600018dc280,627c6f4fb368a87425bdae64,2022-05-12_04h22.42.570,classification_task,2021.2.3,Win32,59.93407252,627c6715c52fd12f31907bd0,,,,,,,,,,,,,,,,,,,,,,,a,1,"[""0.214"",""0.385"",""0.858"",""0.485""]","[1,1,1,0]",0,59,59,59,1,0,1,,,0,FALSE,0.9971,,,,,,,,,,,,,,,,,,,,,,,,,,,,,,,
,5b830542b0d72600018dc280,627c6f4fb368a87425bdae64,2022-05-12_04h22.42.570,classification_task,2021.2.3,Win32,59.93407252,627c6715c52fd12f31907bd0,,,,,,,,,,,,,,,,,,,,,,,l,1,"[""0.043"",""0.090"",""0.485"",""0.674""]","[1,1,0,1]",0,60,60,60,1,1,1,,,0,FALSE,0.8987,,,,,,,,,,,,,,,,,,,,,,,,,,,,,,,
,5b830542b0d72600018dc280,627c6f4fb368a87425bdae64,2022-05-12_04h22.42.570,classification_task,2021.2.3,Win32,59.93407252,627c6715c52fd12f31907bd0,,,,,,,,,,,,,,,,,,,,,,,l,1,"[""0.043"",""0.485"",""0.445"",""0.674""]","[1,0,1,1]",0,61,61,61,1,1,1,,,0,FALSE,0.8177,,,,,,,,,,,,,,,,,,,,,,,,,,,,,,,
,5b830542b0d72600018dc280,627c6f4fb368a87425bdae64,2022-05-12_04h22.42.570,classification_task,2021.2.3,Win32,59.93407252,627c6715c52fd12f31907bd0,,,,,,,,,,,,,,,,,,,,,,,a,0,"[""0.144"",""0.306"",""0.501"",""0.739""]","[1,1,0,1]",0,62,62,62,1,1,0,,,0,FALSE,0.9245,,,,,,,,,,,,,,,,,,,,,,,,,,,,,,,
,5b830542b0d72600018dc280,627c6f4fb368a87425bdae64,2022-05-12_04h22.42.570,classification_task,2021.2.3,Win32,59.93407252,627c6715c52fd12f31907bd0,,,,,,,,,,,,,,,,,,,,,,,a,1,"[""0.179"",""0.514"",""0.799"",""0.901""]","[1,0,1,1]",0,63,63,63,1,0,0,,,0,FALSE,1.1283,,,,,,,,,,,,,,,,,,,,,,,,,,,,,,,
,5b830542b0d72600018dc280,627c6f4fb368a87425bdae64,2022-05-12_04h22.42.570,classification_task,2021.2.3,Win32,59.93407252,627c6715c52fd12f31907bd0,,,,,,,,,,,,,,,,,,,,,,,,,,,,,,,,,,,,,,,0, ,,0,4.663188321,530.3066,0,0,0,0,1,2,1,,,,,,,,,,,,,,,,,,
,5b830542b0d72600018dc280,627c6f4fb368a87425bdae64,2022-05-12_04h22.42.570,classification_task,2021.2.3,Win32,59.93407252,627c6715c52fd12f31907bd0,,,,,,,,,,,,,,,,,,,,,,,,,,,,,,,,,,,,,,,1,  ,,0,10,517.3869,0,0,0,0,1,2,1,,,,,,,,,,,,,,,,,,
,5b830542b0d72600018dc280,627c6f4fb368a87425bdae64,2022-05-12_04h22.42.570,classification_task,2021.2.3,Win32,59.93407252,627c6715c52fd12f31907bd0,,,,,,,,,,,,,,,,,,,,,,,,,,,,,,,,,,,,,,,2,  ,,0,4.565206367,525.386,0,0,0,0,1,2,1,,,,,,,,,,,,,,,,,,
,5b830542b0d72600018dc280,627c6f4fb368a87425bdae64,2022-05-12_04h22.42.570,classification_task,2021.2.3,Win32,59.93407252,627c6715c52fd12f31907bd0,,,,,,,,,,,,,,,,,,,,,,,,,,,,,,,,,,,,,,,,,,,,,0,0,0,0,1,,1,,,,,,,,,,,,,,,,,,
,5b830542b0d72600018dc280,627c6f4fb368a87425bdae64,2022-05-12_04h22.42.570,classification_task,2021.2.3,Win32,59.93407252,627c6715c52fd12f31907bd0,,,,,,,,,,,,,,,,,,,,,space,13.5085,l,1,"[""0.514"",""0.090"",""0.445"",""0.674""]","[0,1,1,1]",0,0,0,0,1,1,1,,,0,FALSE,2.2513,,,,,,,,,,,,,,,,,,,,,,,,,,,,,,,
,5b830542b0d72600018dc280,627c6f4fb368a87425bdae64,2022-05-12_04h22.42.570,classification_task,2021.2.3,Win32,59.93407252,627c6715c52fd12f31907bd0,,,,,,,,,,,,,,,,,,,,,,,l,1,"[""0.144"",""0.306"",""0.501"",""0.739""]","[1,1,0,1]",0,1,1,1,1,1,0,,,0,FALSE,1.4344,,,,,,,,,,,,,,,,,,,,,,,,,,,,,,,
,5b830542b0d72600018dc280,627c6f4fb368a87425bdae64,2022-05-12_04h22.42.570,classification_task,2021.2.3,Win32,59.93407252,627c6715c52fd12f31907bd0,,,,,,,,,,,,,,,,,,,,,,,a,1,"[""0.214"",""0.385"",""0.501"",""0.946""]","[1,1,0,1]",0,2,2,2,1,0,1,,,0,FALSE,1.3625,,,,,,,,,,,,,,,,,,,,,,,,,,,,,,,
,5b830542b0d72600018dc280,627c6f4fb368a87425bdae64,2022-05-12_04h22.42.570,classification_task,2021.2.3,Win32,59.93407252,627c6715c52fd12f31907bd0,,,,,,,,,,,,,,,,,,,,,,,l,1,"[""0.144"",""0.253"",""0.604"",""0.739""]","[1,0,1,1]",0,3,3,3,1,1,0,,,0,FALSE,1.3701,,,,,,,,,,,,,,,,,,,,,,,,,,,,,,,
,5b830542b0d72600018dc280,627c6f4fb368a87425bdae64,2022-05-12_04h22.42.570,classification_task,2021.2.3,Win32,59.93407252,627c6715c52fd12f31907bd0,,,,,,,,,,,,,,,,,,,,,,,a,1,"[""0.214"",""0.385"",""0.858"",""0.497""]","[1,1,1,0]",0,4,4,4,1,0,1,,,0,FALSE,1.1787,,,,,,,,,,,,,,,,,,,,,,,,,,,,,,,
,5b830542b0d72600018dc280,627c6f4fb368a87425bdae64,2022-05-12_04h22.42.570,classification_task,2021.2.3,Win32,59.93407252,627c6715c52fd12f31907bd0,,,,,,,,,,,,,,,,,,,,,,,a,1,"[""0.179"",""0.552"",""0.269"",""0.901""]","[1,1,0,1]",0,5,5,5,1,0,0,,,0,FALSE,1.0815,,,,,,,,,,,,,,,,,,,,,,,,,,,,,,,
,5b830542b0d72600018dc280,627c6f4fb368a87425bdae64,2022-05-12_04h22.42.570,classification_task,2021.2.3,Win32,59.93407252,627c6715c52fd12f31907bd0,,,,,,,,,,,,,,,,,,,,,,,l,1,"[""0.043"",""0.090"",""0.501"",""0.674""]","[1,1,0,1]",0,6,6,6,1,1,1,,,0,FALSE,0.9997,,,,,,,,,,,,,,,,,,,,,,,,,,,,,,,
,5b830542b0d72600018dc280,627c6f4fb368a87425bdae64,2022-05-12_04h22.42.570,classification_task,2021.2.3,Win32,59.93407252,627c6715c52fd12f31907bd0,,,,,,,,,,,,,,,,,,,,,,,l,1,"[""0.257"",""0.306"",""0.604"",""0.739""]","[0,1,1,1]",0,7,7,7,1,1,0,,,0,FALSE,3.7662,,,,,,,,,,,,,,,,,,,,,,,,,,,,,,,
,5b830542b0d72600018dc280,627c6f4fb368a87425bdae64,2022-05-12_04h22.42.570,classification_task,2021.2.3,Win32,59.93407252,627c6715c52fd12f31907bd0,,,,,,,,,,,,,,,,,,,,,,,a,1,"[""0.179"",""0.485"",""0.799"",""0.901""]","[1,0,1,1]",0,8,8,8,1,0,0,,,0,FALSE,1.2003,,,,,,,,,,,,,,,,,,,,,,,,,,,,,,,
,5b830542b0d72600018dc280,627c6f4fb368a87425bdae64,2022-05-12_04h22.42.570,classification_task,2021.2.3,Win32,59.93407252,627c6715c52fd12f31907bd0,,,,,,,,,,,,,,,,,,,,,,,l,1,"[""0.043"",""0.090"",""0.445"",""0.269""]","[1,1,1,0]",0,9,9,9,1,1,1,,,0,FALSE,0.9631,,,,,,,,,,,,,,,,,,,,,,,,,,,,,,,
,5b830542b0d72600018dc280,627c6f4fb368a87425bdae64,2022-05-12_04h22.42.570,classification_task,2021.2.3,Win32,59.93407252,627c6715c52fd12f31907bd0,,,,,,,,,,,,,,,,,,,,,,,a,1,"[""0.179"",""0.552"",""0.799"",""0.501""]","[1,1,1,0]",0,10,10,10,1,0,0,,,0,FALSE,2.2465,,,,,,,,,,,,,,,,,,,,,,,,,,,,,,,
,5b830542b0d72600018dc280,627c6f4fb368a87425bdae64,2022-05-12_04h22.42.570,classification_task,2021.2.3,Win32,59.93407252,627c6715c52fd12f31907bd0,,,,,,,,,,,,,,,,,,,,,,,a,1,"[""0.214"",""0.498"",""0.858"",""0.946""]","[1,0,1,1]",0,11,11,11,1,0,1,,,0,FALSE,1.4004,,,,,,,,,,,,,,,,,,,,,,,,,,,,,,,
,5b830542b0d72600018dc280,627c6f4fb368a87425bdae64,2022-05-12_04h22.42.570,classification_task,2021.2.3,Win32,59.93407252,627c6715c52fd12f31907bd0,,,,,,,,,,,,,,,,,,,,,,,l,0,"[""0.256"",""0.385"",""0.858"",""0.946""]","[0,1,1,1]",0,12,12,12,1,0,1,,,0,FALSE,4.0007,,,,,,,,,,,,,,,,,,,,,,,,,,,,,,,
,5b830542b0d72600018dc280,627c6f4fb368a87425bdae64,2022-05-12_04h22.42.570,classification_task,2021.2.3,Win32,59.93407252,627c6715c52fd12f31907bd0,,,,,,,,,,,,,,,,,,,,,,,a,0,"[""0.043"",""0.514"",""0.445"",""0.674""]","[1,0,1,1]",0,13,13,13,1,1,1,,,0,FALSE,0.8891,,,,,,,,,,,,,,,,,,,,,,,,,,,,,,,
,5b830542b0d72600018dc280,627c6f4fb368a87425bdae64,2022-05-12_04h22.42.570,classification_task,2021.2.3,Win32,59.93407252,627c6715c52fd12f31907bd0,,,,,,,,,,,,,,,,,,,,,,,a,1,"[""0.485"",""0.552"",""0.799"",""0.901""]","[0,1,1,1]",0,14,14,14,1,0,0,,,0,FALSE,6.431,,,,,,,,,,,,,,,,,,,,,,,,,,,,,,,
,5b830542b0d72600018dc280,627c6f4fb368a87425bdae64,2022-05-12_04h22.42.570,classification_task,2021.2.3,Win32,59.93407252,627c6715c52fd12f31907bd0,,,,,,,,,,,,,,,,,,,,,,,l,1,"[""0.144"",""0.306"",""0.604"",""0.501""]","[1,1,1,0]",0,15,15,15,1,1,0,,,0,FALSE,1.4579,,,,,,,,,,,,,,,,,,,,,,,,,,,,,,,
,5b830542b0d72600018dc280,627c6f4fb368a87425bdae64,2022-05-12_04h22.42.570,classification_task,2021.2.3,Win32,59.93407252,627c6715c52fd12f31907bd0,,,,,,,,,,,,,,,,,,,,,,,a,1,"[""0.214"",""0.385"",""0.501"",""0.946""]","[1,1,0,1]",0,16,16,16,1,0,1,,,0,FALSE,1.3257,,,,,,,,,,,,,,,,,,,,,,,,,,,,,,,
,5b830542b0d72600018dc280,627c6f4fb368a87425bdae64,2022-05-12_04h22.42.570,classification_task,2021.2.3,Win32,59.93407252,627c6715c52fd12f31907bd0,,,,,,,,,,,,,,,,,,,,,,,l,0,"[""0.498"",""0.552"",""0.799"",""0.901""]","[0,1,1,1]",0,17,17,17,1,0,0,,,0,FALSE,1.781,,,,,,,,,,,,,,,,,,,,,,,,,,,,,,,
,5b830542b0d72600018dc280,627c6f4fb368a87425bdae64,2022-05-12_04h22.42.570,classification_task,2021.2.3,Win32,59.93407252,627c6715c52fd12f31907bd0,,,,,,,,,,,,,,,,,,,,,,,l,1,"[""0.043"",""0.350"",""0.445"",""0.674""]","[1,0,1,1]",0,18,18,18,1,1,1,,,0,FALSE,1.215,,,,,,,,,,,,,,,,,,,,,,,,,,,,,,,
,5b830542b0d72600018dc280,627c6f4fb368a87425bdae64,2022-05-12_04h22.42.570,classification_task,2021.2.3,Win32,59.93407252,627c6715c52fd12f31907bd0,,,,,,,,,,,,,,,,,,,,,,,l,1,"[""0.043"",""0.090"",""0.506"",""0.674""]","[1,1,0,1]",0,19,19,19,1,1,1,,,0,FALSE,0.8842,,,,,,,,,,,,,,,,,,,,,,,,,,,,,,,
,5b830542b0d72600018dc280,627c6f4fb368a87425bdae64,2022-05-12_04h22.42.570,classification_task,2021.2.3,Win32,59.93407252,627c6715c52fd12f31907bd0,,,,,,,,,,,,,,,,,,,,,,,l,1,"[""0.144"",""0.498"",""0.604"",""0.739""]","[1,0,1,1]",0,20,20,20,1,1,0,,,0,FALSE,1.2974,,,,,,,,,,,,,,,,,,,,,,,,,,,,,,,
,5b830542b0d72600018dc280,627c6f4fb368a87425bdae64,2022-05-12_04h22.42.570,classification_task,2021.2.3,Win32,59.93407252,627c6715c52fd12f31907bd0,,,,,,,,,,,,,,,,,,,,,,,a,0,"[""0.257"",""0.306"",""0.604"",""0.739""]","[0,1,1,1]",0,21,21,21,1,1,0,,,0,FALSE,1.6904,,,,,,,,,,,,,,,,,,,,,,,,,,,,,,,
,5b830542b0d72600018dc280,627c6f4fb368a87425bdae64,2022-05-12_04h22.42.570,classification_task,2021.2.3,Win32,59.93407252,627c6715c52fd12f31907bd0,,,,,,,,,,,,,,,,,,,,,,,a,1,"[""0.214"",""0.385"",""0.858"",""0.350""]","[1,1,1,0]",0,22,22,22,1,0,1,,,0,FALSE,1.1743,,,,,,,,,,,,,,,,,,,,,,,,,,,,,,,
,5b830542b0d72600018dc280,627c6f4fb368a87425bdae64,2022-05-12_04h22.42.570,classification_task,2021.2.3,Win32,59.93407252,627c6715c52fd12f31907bd0,,,,,,,,,,,,,,,,,,,,,,,a,1,"[""0.214"",""0.501"",""0.858"",""0.946""]","[1,0,1,1]",0,23,23,23,1,0,1,,,0,FALSE,0.9198,,,,,,,,,,,,,,,,,,,,,,,,,,,,,,,
,5b830542b0d72600018dc280,627c6f4fb368a87425bdae64,2022-05-12_04h22.42.570,classification_task,2021.2.3,Win32,59.93407252,627c6715c52fd12f31907bd0,,,,,,,,,,,,,,,,,,,,,,,l,1,"[""0.144"",""0.306"",""0.604"",""0.497""]","[1,1,1,0]",0,24,24,24,1,1,0,,,0,FALSE,0.9263,,,,,,,,,,,,,,,,,,,,,,,,,,,,,,,
,5b830542b0d72600018dc280,627c6f4fb368a87425bdae64,2022-05-12_04h22.42.570,classification_task,2021.2.3,Win32,59.93407252,627c6715c52fd12f31907bd0,,,,,,,,,,,,,,,,,,,,,,,l,1,"[""0.144"",""0.306"",""0.516"",""0.739""]","[1,1,0,1]",0,25,25,25,1,1,0,,,0,FALSE,0.6416,,,,,,,,,,,,,,,,,,,,,,,,,,,,,,,
,5b830542b0d72600018dc280,627c6f4fb368a87425bdae64,2022-05-12_04h22.42.570,classification_task,2021.2.3,Win32,59.93407252,627c6715c52fd12f31907bd0,,,,,,,,,,,,,,,,,,,,,,,a,1,"[""0.179"",""0.552"",""0.497"",""0.901""]","[1,1,0,1]",0,26,26,26,1,0,0,,,0,FALSE,0.9462,,,,,,,,,,,,,,,,,,,,,,,,,,,,,,,
,5b830542b0d72600018dc280,627c6f4fb368a87425bdae64,2022-05-12_04h22.42.570,classification_task,2021.2.3,Win32,59.93407252,627c6715c52fd12f31907bd0,,,,,,,,,,,,,,,,,,,,,,,a,1,"[""0.179"",""0.552"",""0.799"",""0.514""]","[1,1,1,0]",0,27,27,27,1,0,0,,,0,FALSE,0.8825,,,,,,,,,,,,,,,,,,,,,,,,,,,,,,,
,5b830542b0d72600018dc280,627c6f4fb368a87425bdae64,2022-05-12_04h22.42.570,classification_task,2021.2.3,Win32,59.93407252,627c6715c52fd12f31907bd0,,,,,,,,,,,,,,,,,,,,,,,l,0,"[""0.179"",""0.485"",""0.799"",""0.901""]","[1,0,1,1]",0,28,28,28,1,0,0,,,0,FALSE,1.3599,,,,,,,,,,,,,,,,,,,,,,,,,,,,,,,
,5b830542b0d72600018dc280,627c6f4fb368a87425bdae64,2022-05-12_04h22.42.570,classification_task,2021.2.3,Win32,59.93407252,627c6715c52fd12f31907bd0,,,,,,,,,,,,,,,,,,,,,,,l,1,"[""0.043"",""0.090"",""0.445"",""0.257""]","[1,1,1,0]",0,29,29,29,1,1,1,,,0,FALSE,0.989,,,,,,,,,,,,,,,,,,,,,,,,,,,,,,,
,5b830542b0d72600018dc280,627c6f4fb368a87425bdae64,2022-05-12_04h22.42.570,classification_task,2021.2.3,Win32,59.93407252,627c6715c52fd12f31907bd0,,,,,,,,,,,,,,,,,,,,,,,l,1,"[""0.498"",""0.090"",""0.445"",""0.674""]","[0,1,1,1]",0,30,30,30,1,1,1,,,0,FALSE,1.6563,,,,,,,,,,,,,,,,,,,,,,,,,,,,,,,
,5b830542b0d72600018dc280,627c6f4fb368a87425bdae64,2022-05-12_04h22.42.570,classification_task,2021.2.3,Win32,59.93407252,627c6715c52fd12f31907bd0,,,,,,,,,,,,,,,,,,,,,,,a,1,"[""0.514"",""0.385"",""0.858"",""0.946""]","[0,1,1,1]",0,31,31,31,1,0,1,,,0,FALSE,6.856,,,,,,,,,,,,,,,,,,,,,,,,,,,,,,,
,5b830542b0d72600018dc280,627c6f4fb368a87425bdae64,2022-05-12_04h22.42.570,classification_task,2021.2.3,Win32,59.93407252,627c6715c52fd12f31907bd0,,,,,,,,,,,,,,,,,,,,,,,a,1,"[""0.214"",""0.482"",""0.858"",""0.946""]","[1,0,1,1]",0,32,32,32,1,0,1,,,0,FALSE,2.4912,,,,,,,,,,,,,,,,,,,,,,,,,,,,,,,
,5b830542b0d72600018dc280,627c6f4fb368a87425bdae64,2022-05-12_04h22.42.570,classification_task,2021.2.3,Win32,59.93407252,627c6715c52fd12f31907bd0,,,,,,,,,,,,,,,,,,,,,,,l,1,"[""0.043"",""0.090"",""0.445"",""0.485""]","[1,1,1,0]",0,33,33,33,1,1,1,,,0,FALSE,0.867,,,,,,,,,,,,,,,,,,,,,,,,,,,,,,,
,5b830542b0d72600018dc280,627c6f4fb368a87425bdae64,2022-05-12_04h22.42.570,classification_task,2021.2.3,Win32,59.93407252,627c6715c52fd12f31907bd0,,,,,,,,,,,,,,,,,,,,,,,l,1,"[""0.144"",""0.256"",""0.604"",""0.739""]","[1,0,1,1]",0,34,34,34,1,1,0,,,0,FALSE,1.5231,,,,,,,,,,,,,,,,,,,,,,,,,,,,,,,
,5b830542b0d72600018dc280,627c6f4fb368a87425bdae64,2022-05-12_04h22.42.570,classification_task,2021.2.3,Win32,59.93407252,627c6715c52fd12f31907bd0,,,,,,,,,,,,,,,,,,,,,,,l,1,"[""0.257"",""0.090"",""0.445"",""0.674""]","[0,1,1,1]",0,35,35,35,1,1,1,,,0,FALSE,1.017,,,,,,,,,,,,,,,,,,,,,,,,,,,,,,,
,5b830542b0d72600018dc280,627c6f4fb368a87425bdae64,2022-05-12_04h22.42.570,classification_task,2021.2.3,Win32,59.93407252,627c6715c52fd12f31907bd0,,,,,,,,,,,,,,,,,,,,,,,a,1,"[""0.179"",""0.552"",""0.799"",""0.482""]","[1,1,1,0]",0,36,36,36,1,0,0,,,0,FALSE,1.0828,,,,,,,,,,,,,,,,,,,,,,,,,,,,,,,
,5b830542b0d72600018dc280,627c6f4fb368a87425bdae64,2022-05-12_04h22.42.570,classification_task,2021.2.3,Win32,59.93407252,627c6715c52fd12f31907bd0,,,,,,,,,,,,,,,,,,,,,,,a,0,"[""0.269"",""0.306"",""0.604"",""0.739""]","[0,1,1,1]",0,37,37,37,1,1,0,,,0,FALSE,2.0626,,,,,,,,,,,,,,,,,,,,,,,,,,,,,,,
,5b830542b0d72600018dc280,627c6f4fb368a87425bdae64,2022-05-12_04h22.42.570,classification_task,2021.2.3,Win32,59.93407252,627c6715c52fd12f31907bd0,,,,,,,,,,,,,,,,,,,,,,,l,1,"[""0.043"",""0.090"",""0.485"",""0.674""]","[1,1,0,1]",0,38,38,38,1,1,1,,,0,FALSE,1.0166,,,,,,,,,,,,,,,,,,,,,,,,,,,,,,,
,5b830542b0d72600018dc280,627c6f4fb368a87425bdae64,2022-05-12_04h22.42.570,classification_task,2021.2.3,Win32,59.93407252,627c6715c52fd12f31907bd0,,,,,,,,,,,,,,,,,,,,,,,a,1,"[""0.501"",""0.552"",""0.799"",""0.901""]","[0,1,1,1]",0,39,39,39,1,0,0,,,0,FALSE,4.3363,,,,,,,,,,,,,,,,,,,,,,,,,,,,,,,
,5b830542b0d72600018dc280,627c6f4fb368a87425bdae64,2022-05-12_04h22.42.570,classification_task,2021.2.3,Win32,59.93407252,627c6715c52fd12f31907bd0,,,,,,,,,,,,,,,,,,,,,,,a,1,"[""0.179"",""0.552"",""0.516"",""0.901""]","[1,1,0,1]",0,40,40,40,1,0,0,,,0,FALSE,1.8209,,,,,,,,,,,,,,,,,,,,,,,,,,,,,,,
,5b830542b0d72600018dc280,627c6f4fb368a87425bdae64,2022-05-12_04h22.42.570,classification_task,2021.2.3,Win32,59.93407252,627c6715c52fd12f31907bd0,,,,,,,,,,,,,,,,,,,,,,,a,1,"[""0.214"",""0.385"",""0.257"",""0.946""]","[1,1,0,1]",0,41,41,41,1,0,1,,,0,FALSE,1.5838,,,,,,,,,,,,,,,,,,,,,,,,,,,,,,,
,5b830542b0d72600018dc280,627c6f4fb368a87425bdae64,2022-05-12_04h22.42.570,classification_task,2021.2.3,Win32,59.93407252,627c6715c52fd12f31907bd0,,,,,,,,,,,,,,,,,,,,,,,l,1,"[""0.043"",""0.516"",""0.445"",""0.674""]","[1,0,1,1]",0,42,42,42,1,1,1,,,0,FALSE,0.7674,,,,,,,,,,,,,,,,,,,,,,,,,,,,,,,
,5b830542b0d72600018dc280,627c6f4fb368a87425bdae64,2022-05-12_04h22.42.570,classification_task,2021.2.3,Win32,59.93407252,627c6715c52fd12f31907bd0,,,,,,,,,,,,,,,,,,,,,,,l,1,"[""0.144"",""0.306"",""0.257"",""0.739""]","[1,1,0,1]",0,43,43,43,1,1,0,,,0,FALSE,1.0008,,,,,,,,,,,,,,,,,,,,,,,,,,,,,,,
,5b830542b0d72600018dc280,627c6f4fb368a87425bdae64,2022-05-12_04h22.42.570,classification_task,2021.2.3,Win32,59.93407252,627c6715c52fd12f31907bd0,,,,,,,,,,,,,,,,,,,,,,,a,1,"[""0.214"",""0.385"",""0.858"",""0.514""]","[1,1,1,0]",0,44,44,44,1,0,1,,,0,FALSE,1.3011,,,,,,,,,,,,,,,,,,,,,,,,,,,,,,,
,5b830542b0d72600018dc280,627c6f4fb368a87425bdae64,2022-05-12_04h22.42.570,classification_task,2021.2.3,Win32,59.93407252,627c6715c52fd12f31907bd0,,,,,,,,,,,,,,,,,,,,,,,a,1,"[""0.179"",""0.501"",""0.799"",""0.901""]","[1,0,1,1]",0,45,45,45,1,0,0,,,0,FALSE,4.3695,,,,,,,,,,,,,,,,,,,,,,,,,,,,,,,
,5b830542b0d72600018dc280,627c6f4fb368a87425bdae64,2022-05-12_04h22.42.570,classification_task,2021.2.3,Win32,59.93407252,627c6715c52fd12f31907bd0,,,,,,,,,,,,,,,,,,,,,,,l,1,"[""0.144"",""0.306"",""0.604"",""0.516""]","[1,1,1,0]",0,46,46,46,1,1,0,,,0,FALSE,0.6718,,,,,,,,,,,,,,,,,,,,,,,,,,,,,,,
,5b830542b0d72600018dc280,627c6f4fb368a87425bdae64,2022-05-12_04h22.42.570,classification_task,2021.2.3,Win32,59.93407252,627c6715c52fd12f31907bd0,,,,,,,,,,,,,,,,,,,,,,,a,1,"[""0.497"",""0.385"",""0.858"",""0.946""]","[0,1,1,1]",0,47,47,47,1,0,1,,,0,FALSE,2.3942,,,,,,,,,,,,,,,,,,,,,,,,,,,,,,,
,5b830542b0d72600018dc280,627c6f4fb368a87425bdae64,2022-05-12_04h22.42.570,classification_task,2021.2.3,Win32,59.93407252,627c6715c52fd12f31907bd0,,,,,,,,,,,,,,,,,,,,,,,l,1,"[""0.485"",""0.090"",""0.445"",""0.674""]","[0,1,1,1]",0,48,48,48,1,1,1,,,0,FALSE,1.0912,,,,,,,,,,,,,,,,,,,,,,,,,,,,,,,
,5b830542b0d72600018dc280,627c6f4fb368a87425bdae64,2022-05-12_04h22.42.570,classification_task,2021.2.3,Win32,59.93407252,627c6715c52fd12f31907bd0,,,,,,,,,,,,,,,,,,,,,,,a,1,"[""0.214"",""0.385"",""0.858"",""0.501""]","[1,1,1,0]",0,49,49,49,1,0,1,,,0,FALSE,1.5497,,,,,,,,,,,,,,,,,,,,,,,,,,,,,,,
,5b830542b0d72600018dc280,627c6f4fb368a87425bdae64,2022-05-12_04h22.42.570,classification_task,2021.2.3,Win32,59.93407252,627c6715c52fd12f31907bd0,,,,,,,,,,,,,,,,,,,,,,,l,1,"[""0.257"",""0.306"",""0.604"",""0.739""]","[0,1,1,1]",0,50,50,50,1,1,0,,,0,FALSE,2.0162,,,,,,,,,,,,,,,,,,,,,,,,,,,,,,,
,5b830542b0d72600018dc280,627c6f4fb368a87425bdae64,2022-05-12_04h22.42.570,classification_task,2021.2.3,Win32,59.93407252,627c6715c52fd12f31907bd0,,,,,,,,,,,,,,,,,,,,,,,l,1,"[""0.043"",""0.090"",""0.485"",""0.674""]","[1,1,0,1]",0,51,51,51,1,1,1,,,0,FALSE,0.8892,,,,,,,,,,,,,,,,,,,,,,,,,,,,,,,
,5b830542b0d72600018dc280,627c6f4fb368a87425bdae64,2022-05-12_04h22.42.570,classification_task,2021.2.3,Win32,59.93407252,627c6715c52fd12f31907bd0,,,,,,,,,,,,,,,,,,,,,,,l,1,"[""0.043"",""0.090"",""0.445"",""0.485""]","[1,1,1,0]",0,52,52,52,1,1,1,,,0,FALSE,0.798,,,,,,,,,,,,,,,,,,,,,,,,,,,,,,,
,5b830542b0d72600018dc280,627c6f4fb368a87425bdae64,2022-05-12_04h22.42.570,classification_task,2021.2.3,Win32,59.93407252,627c6715c52fd12f31907bd0,,,,,,,,,,,,,,,,,,,,,,,a,1,"[""0.179"",""0.552"",""0.799"",""0.498""]","[1,1,1,0]",0,53,53,53,1,0,0,,,0,FALSE,1.444,,,,,,,,,,,,,,,,,,,,,,,,,,,,,,,
,5b830542b0d72600018dc280,627c6f4fb368a87425bdae64,2022-05-12_04h22.42.570,classification_task,2021.2.3,Win32,59.93407252,627c6715c52fd12f31907bd0,,,,,,,,,,,,,,,,,,,,,,,l,1,"[""0.144"",""0.306"",""0.604"",""0.498""]","[1,1,1,0]",0,54,54,54,1,1,0,,,0,FALSE,0.6909,,,,,,,,,,,,,,,,,,,,,,,,,,,,,,,
,5b830542b0d72600018dc280,627c6f4fb368a87425bdae64,2022-05-12_04h22.42.570,classification_task,2021.2.3,Win32,59.93407252,627c6715c52fd12f31907bd0,,,,,,,,,,,,,,,,,,,,,,,a,1,"[""0.214"",""0.385"",""0.498"",""0.946""]","[1,1,0,1]",0,55,55,55,1,0,1,,,0,FALSE,2.8779,,,,,,,,,,,,,,,,,,,,,,,,,,,,,,,
,5b830542b0d72600018dc280,627c6f4fb368a87425bdae64,2022-05-12_04h22.42.570,classification_task,2021.2.3,Win32,59.93407252,627c6715c52fd12f31907bd0,,,,,,,,,,,,,,,,,,,,,,,a,1,"[""0.179"",""0.485"",""0.799"",""0.901""]","[1,0,1,1]",0,56,56,56,1,0,0,,,0,FALSE,1.0497,,,,,,,,,,,,,,,,,,,,,,,,,,,,,,,
,5b830542b0d72600018dc280,627c6f4fb368a87425bdae64,2022-05-12_04h22.42.570,classification_task,2021.2.3,Win32,59.93407252,627c6715c52fd12f31907bd0,,,,,,,,,,,,,,,,,,,,,,,a,1,"[""0.485"",""0.552"",""0.799"",""0.901""]","[0,1,1,1]",0,57,57,57,1,0,0,,,0,FALSE,2.1095,,,,,,,,,,,,,,,,,,,,,,,,,,,,,,,
,5b830542b0d72600018dc280,627c6f4fb368a87425bdae64,2022-05-12_04h22.42.570,classification_task,2021.2.3,Win32,59.93407252,627c6715c52fd12f31907bd0,,,,,,,,,,,,,,,,,,,,,,,l,1,"[""0.144"",""0.253"",""0.604"",""0.739""]","[1,0,1,1]",0,58,58,58,1,1,0,,,0,FALSE,0.6368,,,,,,,,,,,,,,,,,,,,,,,,,,,,,,,
,5b830542b0d72600018dc280,627c6f4fb368a87425bdae64,2022-05-12_04h22.42.570,classification_task,2021.2.3,Win32,59.93407252,627c6715c52fd12f31907bd0,,,,,,,,,,,,,,,,,,,,,,,a,1,"[""0.214"",""0.516"",""0.858"",""0.946""]","[1,0,1,1]",0,59,59,59,1,0,1,,,0,FALSE,1.2509,,,,,,,,,,,,,,,,,,,,,,,,,,,,,,,
,5b830542b0d72600018dc280,627c6f4fb368a87425bdae64,2022-05-12_04h22.42.570,classification_task,2021.2.3,Win32,59.93407252,627c6715c52fd12f31907bd0,,,,,,,,,,,,,,,,,,,,,,,l,1,"[""0.144"",""0.306"",""0.485"",""0.739""]","[1,1,0,1]",0,60,60,60,1,1,0,,,0,FALSE,0.9665,,,,,,,,,,,,,,,,,,,,,,,,,,,,,,,
,5b830542b0d72600018dc280,627c6f4fb368a87425bdae64,2022-05-12_04h22.42.570,classification_task,2021.2.3,Win32,59.93407252,627c6715c52fd12f31907bd0,,,,,,,,,,,,,,,,,,,,,,,l,1,"[""0.043"",""0.257"",""0.445"",""0.674""]","[1,0,1,1]",0,61,61,61,1,1,1,,,0,FALSE,1.1221,,,,,,,,,,,,,,,,,,,,,,,,,,,,,,,
,5b830542b0d72600018dc280,627c6f4fb368a87425bdae64,2022-05-12_04h22.42.570,classification_task,2021.2.3,Win32,59.93407252,627c6715c52fd12f31907bd0,,,,,,,,,,,,,,,,,,,,,,,a,1,"[""0.179"",""0.552"",""0.269"",""0.901""]","[1,1,0,1]",0,62,62,62,1,0,0,,,0,FALSE,1.0143,,,,,,,,,,,,,,,,,,,,,,,,,,,,,,,
,5b830542b0d72600018dc280,627c6f4fb368a87425bdae64,2022-05-12_04h22.42.570,classification_task,2021.2.3,Win32,59.93407252,627c6715c52fd12f31907bd0,,,,,,,,,,,,,,,,,,,,,,,a,1,"[""0.482"",""0.385"",""0.858"",""0.946""]","[0,1,1,1]",0,63,63,63,1,0,1,,,0,FALSE,1.7707,,,,,,,,,,,,,,,,,,,,,,,,,,,,,,,
,5b830542b0d72600018dc280,627c6f4fb368a87425bdae64,2022-05-12_04h22.42.570,classification_task,2021.2.3,Win32,59.93407252,627c6715c52fd12f31907bd0,,,,,,,,,,,,,,,,,,,,,,,,,,,,,,,,,,,,,,,0, ,,0,8.264012487,204.3162,0,1,1,1,1,2,2,,,,,,,,,,,,,,,,,,
,5b830542b0d72600018dc280,627c6f4fb368a87425bdae64,2022-05-12_04h22.42.570,classification_task,2021.2.3,Win32,59.93407252,627c6715c52fd12f31907bd0,,,,,,,,,,,,,,,,,,,,,,,,,,,,,,,,,,,,,,,1,  ,,0,10,202.6925,0,1,1,1,1,2,2,,,,,,,,,,,,,,,,,,
,5b830542b0d72600018dc280,627c6f4fb368a87425bdae64,2022-05-12_04h22.42.570,classification_task,2021.2.3,Win32,59.93407252,627c6715c52fd12f31907bd0,,,,,,,,,,,,,,,,,,,,,,,,,,,,,,,,,,,,,,,2,  ,,0,7.112727807,210.2945,0,1,1,1,1,2,2,,,,,,,,,,,,,,,,,,
,5b830542b0d72600018dc280,627c6f4fb368a87425bdae64,2022-05-12_04h22.42.570,classification_task,2021.2.3,Win32,59.93407252,627c6715c52fd12f31907bd0,,,,,,,,,,,,,,,,,,,,,,,,,,,,,,,,,,,,,,,,,,,,,0,1,1,1,1,,2,,,,,,,,,,,,,,,,,,
,5b830542b0d72600018dc280,627c6f4fb368a87425bdae64,2022-05-12_04h22.42.570,classification_task,2021.2.3,Win32,59.93407252,627c6715c52fd12f31907bd0,,,,,,,,,,,,,,,,,,,,,space,12.9524,a,1,"[""0.214"",""0.385"",""0.858"",""0.269""]","[1,1,1,0]",0,0,0,0,1,0,1,,,0,FALSE,5.0835,,,,,,,,,,,,,,,,,,,,,,,,,,,,,,,
,5b830542b0d72600018dc280,627c6f4fb368a87425bdae64,2022-05-12_04h22.42.570,classification_task,2021.2.3,Win32,59.93407252,627c6715c52fd12f31907bd0,,,,,,,,,,,,,,,,,,,,,,,a,1,"[""0.179"",""0.485"",""0.799"",""0.901""]","[1,0,1,1]",0,1,1,1,1,0,0,,,0,FALSE,1.4634,,,,,,,,,,,,,,,,,,,,,,,,,,,,,,,
,5b830542b0d72600018dc280,627c6f4fb368a87425bdae64,2022-05-12_04h22.42.570,classification_task,2021.2.3,Win32,59.93407252,627c6715c52fd12f31907bd0,,,,,,,,,,,,,,,,,,,,,,,l,0,"[""0.179"",""0.552"",""0.506"",""0.901""]","[1,1,0,1]",0,2,2,2,1,0,0,,,0,FALSE,0.6334,,,,,,,,,,,,,,,,,,,,,,,,,,,,,,,
,5b830542b0d72600018dc280,627c6f4fb368a87425bdae64,2022-05-12_04h22.42.570,classification_task,2021.2.3,Win32,59.93407252,627c6715c52fd12f31907bd0,,,,,,,,,,,,,,,,,,,,,,,a,1,"[""0.179"",""0.552"",""0.799"",""0.257""]","[1,1,1,0]",0,3,3,3,1,0,0,,,0,FALSE,2.3015,,,,,,,,,,,,,,,,,,,,,,,,,,,,,,,
,5b830542b0d72600018dc280,627c6f4fb368a87425bdae64,2022-05-12_04h22.42.570,classification_task,2021.2.3,Win32,59.93407252,627c6715c52fd12f31907bd0,,,,,,,,,,,,,,,,,,,,,,,l,1,"[""0.144"",""0.306"",""0.350"",""0.739""]","[1,1,0,1]",0,4,4,4,1,1,0,,,0,FALSE,0.4839,,,,,,,,,,,,,,,,,,,,,,,,,,,,,,,
,5b830542b0d72600018dc280,627c6f4fb368a87425bdae64,2022-05-12_04h22.42.570,classification_task,2021.2.3,Win32,59.93407252,627c6715c52fd12f31907bd0,,,,,,,,,,,,,,,,,,,,,,,l,1,"[""0.516"",""0.306"",""0.604"",""0.739""]","[0,1,1,1]",0,5,5,5,1,1,0,,,0,FALSE,4.1857,,,,,,,,,,,,,,,,,,,,,,,,,,,,,,,
,5b830542b0d72600018dc280,627c6f4fb368a87425bdae64,2022-05-12_04h22.42.570,classification_task,2021.2.3,Win32,59.93407252,627c6715c52fd12f31907bd0,,,,,,,,,,,,,,,,,,,,,,,a,1,"[""0.214"",""0.498"",""0.858"",""0.946""]","[1,0,1,1]",0,6,6,6,1,0,1,,,0,FALSE,1.8555,,,,,,,,,,,,,,,,,,,,,,,,,,,,,,,
,5b830542b0d72600018dc280,627c6f4fb368a87425bdae64,2022-05-12_04h22.42.570,classification_task,2021.2.3,Win32,59.93407252,627c6715c52fd12f31907bd0,,,,,,,,,,,,,,,,,,,,,,,l,1,"[""0.043"",""0.090"",""0.269"",""0.674""]","[1,1,0,1]",0,7,7,7,1,1,1,,,0,FALSE,0.8182,,,,,,,,,,,,,,,,,,,,,,,,,,,,,,,
,5b830542b0d72600018dc280,627c6f4fb368a87425bdae64,2022-05-12_04h22.42.570,classification_task,2021.2.3,Win32,59.93407252,627c6715c52fd12f31907bd0,,,,,,,,,,,,,,,,,,,,,,,l,1,"[""0.144"",""0.506"",""0.604"",""0.739""]","[1,0,1,1]",0,8,8,8,1,1,0,,,0,FALSE,0.9654,,,,,,,,,,,,,,,,,,,,,,,,,,,,,,,
,5b830542b0d72600018dc280,627c6f4fb368a87425bdae64,2022-05-12_04h22.42.570,classification_task,2021.2.3,Win32,59.93407252,627c6715c52fd12f31907bd0,,,,,,,,,,,,,,,,,,,,,,,a,1,"[""0.253"",""0.552"",""0.799"",""0.901""]","[0,1,1,1]",0,9,9,9,1,0,0,,,0,FALSE,2.4929,,,,,,,,,,,,,,,,,,,,,,,,,,,,,,,
,5b830542b0d72600018dc280,627c6f4fb368a87425bdae64,2022-05-12_04h22.42.570,classification_task,2021.2.3,Win32,59.93407252,627c6715c52fd12f31907bd0,,,,,,,,,,,,,,,,,,,,,,,a,1,"[""0.485"",""0.385"",""0.858"",""0.946""]","[0,1,1,1]",0,10,10,10,1,0,1,,,0,FALSE,1.0004,,,,,,,,,,,,,,,,,,,,,,,,,,,,,,,
,5b830542b0d72600018dc280,627c6f4fb368a87425bdae64,2022-05-12_04h22.42.570,classification_task,2021.2.3,Win32,59.93407252,627c6715c52fd12f31907bd0,,,,,,,,,,,,,,,,,,,,,,,a,0,"[""0.498"",""0.090"",""0.445"",""0.674""]","[0,1,1,1]",0,11,11,11,1,1,1,,,0,FALSE,1.3897,,,,,,,,,,,,,,,,,,,,,,,,,,,,,,,
,5b830542b0d72600018dc280,627c6f4fb368a87425bdae64,2022-05-12_04h22.42.570,classification_task,2021.2.3,Win32,59.93407252,627c6715c52fd12f31907bd0,,,,,,,,,,,,,,,,,,,,,,,l,1,"[""0.144"",""0.306"",""0.604"",""0.485""]","[1,1,1,0]",0,12,12,12,1,1,0,,,0,FALSE,1.5107,,,,,,,,,,,,,,,,,,,,,,,,,,,,,,,
,5b830542b0d72600018dc280,627c6f4fb368a87425bdae64,2022-05-12_04h22.42.570,classification_task,2021.2.3,Win32,59.93407252,627c6715c52fd12f31907bd0,,,,,,,,,,,,,,,,,,,,,,,l,1,"[""0.043"",""0.090"",""0.445"",""0.516""]","[1,1,1,0]",0,13,13,13,1,1,1,,,0,FALSE,0.8598,,,,,,,,,,,,,,,,,,,,,,,,,,,,,,,
,5b830542b0d72600018dc280,627c6f4fb368a87425bdae64,2022-05-12_04h22.42.570,classification_task,2021.2.3,Win32,59.93407252,627c6715c52fd12f31907bd0,,,,,,,,,,,,,,,,,,,,,,,l,1,"[""0.043"",""0.253"",""0.445"",""0.674""]","[1,0,1,1]",0,14,14,14,1,1,1,,,0,FALSE,0.6995,,,,,,,,,,,,,,,,,,,,,,,,,,,,,,,
,5b830542b0d72600018dc280,627c6f4fb368a87425bdae64,2022-05-12_04h22.42.570,classification_task,2021.2.3,Win32,59.93407252,627c6715c52fd12f31907bd0,,,,,,,,,,,,,,,,,,,,,,,a,1,"[""0.214"",""0.385"",""0.257"",""0.946""]","[1,1,0,1]",0,15,15,15,1,0,1,,,0,FALSE,1.2926,,,,,,,,,,,,,,,,,,,,,,,,,,,,,,,
,5b830542b0d72600018dc280,627c6f4fb368a87425bdae64,2022-05-12_04h22.42.570,classification_task,2021.2.3,Win32,59.93407252,627c6715c52fd12f31907bd0,,,,,,,,,,,,,,,,,,,,,,,l,1,"[""0.144"",""0.256"",""0.604"",""0.739""]","[1,0,1,1]",0,16,16,16,1,1,0,,,0,FALSE,1.1967,,,,,,,,,,,,,,,,,,,,,,,,,,,,,,,
,5b830542b0d72600018dc280,627c6f4fb368a87425bdae64,2022-05-12_04h22.42.570,classification_task,2021.2.3,Win32,59.93407252,627c6715c52fd12f31907bd0,,,,,,,,,,,,,,,,,,,,,,,l,1,"[""0.043"",""0.514"",""0.445"",""0.674""]","[1,0,1,1]",0,17,17,17,1,1,1,,,0,FALSE,0.9449,,,,,,,,,,,,,,,,,,,,,,,,,,,,,,,
,5b830542b0d72600018dc280,627c6f4fb368a87425bdae64,2022-05-12_04h22.42.570,classification_task,2021.2.3,Win32,59.93407252,627c6715c52fd12f31907bd0,,,,,,,,,,,,,,,,,,,,,,,l,1,"[""0.043"",""0.090"",""0.445"",""0.514""]","[1,1,1,0]",0,18,18,18,1,1,1,,,0,FALSE,0.8359,,,,,,,,,,,,,,,,,,,,,,,,,,,,,,,
,5b830542b0d72600018dc280,627c6f4fb368a87425bdae64,2022-05-12_04h22.42.570,classification_task,2021.2.3,Win32,59.93407252,627c6715c52fd12f31907bd0,,,,,,,,,,,,,,,,,,,,,,,a,1,"[""0.514"",""0.552"",""0.799"",""0.901""]","[0,1,1,1]",0,19,19,19,1,0,0,,,0,FALSE,1.4084,,,,,,,,,,,,,,,,,,,,,,,,,,,,,,,
,5b830542b0d72600018dc280,627c6f4fb368a87425bdae64,2022-05-12_04h22.42.570,classification_task,2021.2.3,Win32,59.93407252,627c6715c52fd12f31907bd0,,,,,,,,,,,,,,,,,,,,,,,a,1,"[""0.214"",""0.385"",""0.858"",""0.350""]","[1,1,1,0]",0,20,20,20,1,0,1,,,0,FALSE,1.2164,,,,,,,,,,,,,,,,,,,,,,,,,,,,,,,
,5b830542b0d72600018dc280,627c6f4fb368a87425bdae64,2022-05-12_04h22.42.570,classification_task,2021.2.3,Win32,59.93407252,627c6715c52fd12f31907bd0,,,,,,,,,,,,,,,,,,,,,,,a,1,"[""0.214"",""0.498"",""0.858"",""0.946""]","[1,0,1,1]",0,21,21,21,1,0,1,,,0,FALSE,0.8859,,,,,,,,,,,,,,,,,,,,,,,,,,,,,,,
,5b830542b0d72600018dc280,627c6f4fb368a87425bdae64,2022-05-12_04h22.42.570,classification_task,2021.2.3,Win32,59.93407252,627c6715c52fd12f31907bd0,,,,,,,,,,,,,,,,,,,,,,,l,1,"[""0.498"",""0.090"",""0.445"",""0.674""]","[0,1,1,1]",0,22,22,22,1,1,1,,,0,FALSE,1.2981,,,,,,,,,,,,,,,,,,,,,,,,,,,,,,,
,5b830542b0d72600018dc280,627c6f4fb368a87425bdae64,2022-05-12_04h22.42.570,classification_task,2021.2.3,Win32,59.93407252,627c6715c52fd12f31907bd0,,,,,,,,,,,,,,,,,,,,,,,a,1,"[""0.179"",""0.482"",""0.799"",""0.901""]","[1,0,1,1]",0,23,23,23,1,0,0,,,0,FALSE,1.814,,,,,,,,,,,,,,,,,,,,,,,,,,,,,,,
,5b830542b0d72600018dc280,627c6f4fb368a87425bdae64,2022-05-12_04h22.42.570,classification_task,2021.2.3,Win32,59.93407252,627c6715c52fd12f31907bd0,,,,,,,,,,,,,,,,,,,,,,,a,1,"[""0.179"",""0.552"",""0.799"",""0.498""]","[1,1,1,0]",0,24,24,24,1,0,0,,,0,FALSE,1.1001,,,,,,,,,,,,,,,,,,,,,,,,,,,,,,,
,5b830542b0d72600018dc280,627c6f4fb368a87425bdae64,2022-05-12_04h22.42.570,classification_task,2021.2.3,Win32,59.93407252,627c6715c52fd12f31907bd0,,,,,,,,,,,,,,,,,,,,,,,a,1,"[""0.256"",""0.385"",""0.858"",""0.946""]","[0,1,1,1]",0,25,25,25,1,0,1,,,0,FALSE,2.1446,,,,,,,,,,,,,,,,,,,,,,,,,,,,,,,
,5b830542b0d72600018dc280,627c6f4fb368a87425bdae64,2022-05-12_04h22.42.570,classification_task,2021.2.3,Win32,59.93407252,627c6715c52fd12f31907bd0,,,,,,,,,,,,,,,,,,,,,,,l,1,"[""0.144"",""0.306"",""0.256"",""0.739""]","[1,1,0,1]",0,26,26,26,1,1,0,,,0,FALSE,0.8841,,,,,,,,,,,,,,,,,,,,,,,,,,,,,,,
,5b830542b0d72600018dc280,627c6f4fb368a87425bdae64,2022-05-12_04h22.42.570,classification_task,2021.2.3,Win32,59.93407252,627c6715c52fd12f31907bd0,,,,,,,,,,,,,,,,,,,,,,,a,1,"[""0.214"",""0.385"",""0.516"",""0.946""]","[1,1,0,1]",0,27,27,27,1,0,1,,,0,FALSE,1.7534,,,,,,,,,,,,,,,,,,,,,,,,,,,,,,,
,5b830542b0d72600018dc280,627c6f4fb368a87425bdae64,2022-05-12_04h22.42.570,classification_task,2021.2.3,Win32,59.93407252,627c6715c52fd12f31907bd0,,,,,,,,,,,,,,,,,,,,,,,l,1,"[""0.144"",""0.306"",""0.604"",""0.485""]","[1,1,1,0]",0,28,28,28,1,1,0,,,0,FALSE,0.9146,,,,,,,,,,,,,,,,,,,,,,,,,,,,,,,
,5b830542b0d72600018dc280,627c6f4fb368a87425bdae64,2022-05-12_04h22.42.570,classification_task,2021.2.3,Win32,59.93407252,627c6715c52fd12f31907bd0,,,,,,,,,,,,,,,,,,,,,,,a,1,"[""0.179"",""0.552"",""0.269"",""0.901""]","[1,1,0,1]",0,29,29,29,1,0,0,,,0,FALSE,0.9996,,,,,,,,,,,,,,,,,,,,,,,,,,,,,,,
,5b830542b0d72600018dc280,627c6f4fb368a87425bdae64,2022-05-12_04h22.42.570,classification_task,2021.2.3,Win32,59.93407252,627c6715c52fd12f31907bd0,,,,,,,,,,,,,,,,,,,,,,,l,1,"[""0.485"",""0.306"",""0.604"",""0.739""]","[0,1,1,1]",0,30,30,30,1,1,0,,,0,FALSE,3.5445,,,,,,,,,,,,,,,,,,,,,,,,,,,,,,,
,5b830542b0d72600018dc280,627c6f4fb368a87425bdae64,2022-05-12_04h22.42.570,classification_task,2021.2.3,Win32,59.93407252,627c6715c52fd12f31907bd0,,,,,,,,,,,,,,,,,,,,,,,l,1,"[""0.043"",""0.090"",""0.485"",""0.674""]","[1,1,0,1]",0,31,31,31,1,1,1,,,0,FALSE,1.0662,,,,,,,,,,,,,,,,,,,,,,,,,,,,,,,
,5b830542b0d72600018dc280,627c6f4fb368a87425bdae64,2022-05-12_04h22.42.570,classification_task,2021.2.3,Win32,59.93407252,627c6715c52fd12f31907bd0,,,,,,,,,,,,,,,,,,,,,,,a,1,"[""0.214"",""0.485"",""0.858"",""0.946""]","[1,0,1,1]",0,32,32,32,1,0,1,,,0,FALSE,1.9262,,,,,,,,,,,,,,,,,,,,,,,,,,,,,,,
,5b830542b0d72600018dc280,627c6f4fb368a87425bdae64,2022-05-12_04h22.42.570,classification_task,2021.2.3,Win32,59.93407252,627c6715c52fd12f31907bd0,,,,,,,,,,,,,,,,,,,,,,,l,1,"[""0.144"",""0.306"",""0.604"",""0.253""]","[1,1,1,0]",0,33,33,33,1,1,0,,,0,FALSE,1.0986,,,,,,,,,,,,,,,,,,,,,,,,,,,,,,,
,5b830542b0d72600018dc280,627c6f4fb368a87425bdae64,2022-05-12_04h22.42.570,classification_task,2021.2.3,Win32,59.93407252,627c6715c52fd12f31907bd0,,,,,,,,,,,,,,,,,,,,,,,l,1,"[""0.501"",""0.090"",""0.445"",""0.674""]","[0,1,1,1]",0,34,34,34,1,1,1,,,0,FALSE,1.0461,,,,,,,,,,,,,,,,,,,,,,,,,,,,,,,
,5b830542b0d72600018dc280,627c6f4fb368a87425bdae64,2022-05-12_04h22.42.570,classification_task,2021.2.3,Win32,59.93407252,627c6715c52fd12f31907bd0,,,,,,,,,,,,,,,,,,,,,,,l,1,"[""0.043"",""0.253"",""0.445"",""0.674""]","[1,0,1,1]",0,35,35,35,1,1,1,,,0,FALSE,1.0158,,,,,,,,,,,,,,,,,,,,,,,,,,,,,,,
,5b830542b0d72600018dc280,627c6f4fb368a87425bdae64,2022-05-12_04h22.42.570,classification_task,2021.2.3,Win32,59.93407252,627c6715c52fd12f31907bd0,,,,,,,,,,,,,,,,,,,,,,,l,1,"[""0.043"",""0.090"",""0.514"",""0.674""]","[1,1,0,1]",0,36,36,36,1,1,1,,,0,FALSE,0.5621,,,,,,,,,,,,,,,,,,,,,,,,,,,,,,,
,5b830542b0d72600018dc280,627c6f4fb368a87425bdae64,2022-05-12_04h22.42.570,classification_task,2021.2.3,Win32,59.93407252,627c6715c52fd12f31907bd0,,,,,,,,,,,,,,,,,,,,,,,a,1,"[""0.482"",""0.552"",""0.799"",""0.901""]","[0,1,1,1]",0,37,37,37,1,0,0,,,0,FALSE,1.5688,,,,,,,,,,,,,,,,,,,,,,,,,,,,,,,
,5b830542b0d72600018dc280,627c6f4fb368a87425bdae64,2022-05-12_04h22.42.570,classification_task,2021.2.3,Win32,59.93407252,627c6715c52fd12f31907bd0,,,,,,,,,,,,,,,,,,,,,,,a,1,"[""0.214"",""0.385"",""0.858"",""0.501""]","[1,1,1,0]",0,38,38,38,1,0,1,,,0,FALSE,1.4018,,,,,,,,,,,,,,,,,,,,,,,,,,,,,,,
,5b830542b0d72600018dc280,627c6f4fb368a87425bdae64,2022-05-12_04h22.42.570,classification_task,2021.2.3,Win32,59.93407252,627c6715c52fd12f31907bd0,,,,,,,,,,,,,,,,,,,,,,,a,1,"[""0.179"",""0.552"",""0.799"",""0.482""]","[1,1,1,0]",0,39,39,39,1,0,0,,,0,FALSE,1.1601,,,,,,,,,,,,,,,,,,,,,,,,,,,,,,,
,5b830542b0d72600018dc280,627c6f4fb368a87425bdae64,2022-05-12_04h22.42.570,classification_task,2021.2.3,Win32,59.93407252,627c6715c52fd12f31907bd0,,,,,,,,,,,,,,,,,,,,,,,a,1,"[""0.214"",""0.385"",""0.482"",""0.946""]","[1,1,0,1]",0,40,40,40,1,0,1,,,0,FALSE,0.9612,,,,,,,,,,,,,,,,,,,,,,,,,,,,,,,
,5b830542b0d72600018dc280,627c6f4fb368a87425bdae64,2022-05-12_04h22.42.570,classification_task,2021.2.3,Win32,59.93407252,627c6715c52fd12f31907bd0,,,,,,,,,,,,,,,,,,,,,,,l,1,"[""0.144"",""0.306"",""0.501"",""0.739""]","[1,1,0,1]",0,41,41,41,1,1,0,,,0,FALSE,0.8667,,,,,,,,,,,,,,,,,,,,,,,,,,,,,,,
,5b830542b0d72600018dc280,627c6f4fb368a87425bdae64,2022-05-12_04h22.42.570,classification_task,2021.2.3,Win32,59.93407252,627c6715c52fd12f31907bd0,,,,,,,,,,,,,,,,,,,,,,,l,1,"[""0.043"",""0.090"",""0.445"",""0.350""]","[1,1,1,0]",0,42,42,42,1,1,1,,,0,FALSE,0.8488,,,,,,,,,,,,,,,,,,,,,,,,,,,,,,,
,5b830542b0d72600018dc280,627c6f4fb368a87425bdae64,2022-05-12_04h22.42.570,classification_task,2021.2.3,Win32,59.93407252,627c6715c52fd12f31907bd0,,,,,,,,,,,,,,,,,,,,,,,a,1,"[""0.179"",""0.552"",""0.498"",""0.901""]","[1,1,0,1]",0,43,43,43,1,0,0,,,0,FALSE,1.3946,,,,,,,,,,,,,,,,,,,,,,,,,,,,,,,
,5b830542b0d72600018dc280,627c6f4fb368a87425bdae64,2022-05-12_04h22.42.570,classification_task,2021.2.3,Win32,59.93407252,627c6715c52fd12f31907bd0,,,,,,,,,,,,,,,,,,,,,,,l,1,"[""0.506"",""0.306"",""0.604"",""0.739""]","[0,1,1,1]",0,44,44,44,1,1,0,,,0,FALSE,2.4169,,,,,,,,,,,,,,,,,,,,,,,,,,,,,,,
,5b830542b0d72600018dc280,627c6f4fb368a87425bdae64,2022-05-12_04h22.42.570,classification_task,2021.2.3,Win32,59.93407252,627c6715c52fd12f31907bd0,,,,,,,,,,,,,,,,,,,,,,,a,1,"[""0.257"",""0.385"",""0.858"",""0.946""]","[0,1,1,1]",0,45,45,45,1,0,1,,,0,FALSE,2.3863,,,,,,,,,,,,,,,,,,,,,,,,,,,,,,,
,5b830542b0d72600018dc280,627c6f4fb368a87425bdae64,2022-05-12_04h22.42.570,classification_task,2021.2.3,Win32,59.93407252,627c6715c52fd12f31907bd0,,,,,,,,,,,,,,,,,,,,,,,l,1,"[""0.144"",""0.253"",""0.604"",""0.739""]","[1,0,1,1]",0,46,46,46,1,1,0,,,0,FALSE,1.3106,,,,,,,,,,,,,,,,,,,,,,,,,,,,,,,
,5b830542b0d72600018dc280,627c6f4fb368a87425bdae64,2022-05-12_04h22.42.570,classification_task,2021.2.3,Win32,59.93407252,627c6715c52fd12f31907bd0,,,,,,,,,,,,,,,,,,,,,,,a,1,"[""0.179"",""0.257"",""0.799"",""0.901""]","[1,0,1,1]",0,47,47,47,1,0,0,,,0,FALSE,0.8138,,,,,,,,,,,,,,,,,,,,,,,,,,,,,,,
,5b830542b0d72600018dc280,627c6f4fb368a87425bdae64,2022-05-12_04h22.42.570,classification_task,2021.2.3,Win32,59.93407252,627c6715c52fd12f31907bd0,,,,,,,,,,,,,,,,,,,,,,,l,1,"[""0.144"",""0.256"",""0.604"",""0.739""]","[1,0,1,1]",0,48,48,48,1,1,0,,,0,FALSE,0.7465,,,,,,,,,,,,,,,,,,,,,,,,,,,,,,,
,5b830542b0d72600018dc280,627c6f4fb368a87425bdae64,2022-05-12_04h22.42.570,classification_task,2021.2.3,Win32,59.93407252,627c6715c52fd12f31907bd0,,,,,,,,,,,,,,,,,,,,,,,l,1,"[""0.144"",""0.306"",""0.604"",""0.498""]","[1,1,1,0]",0,49,49,49,1,1,0,,,0,FALSE,0.8202,,,,,,,,,,,,,,,,,,,,,,,,,,,,,,,
,5b830542b0d72600018dc280,627c6f4fb368a87425bdae64,2022-05-12_04h22.42.570,classification_task,2021.2.3,Win32,59.93407252,627c6715c52fd12f31907bd0,,,,,,,,,,,,,,,,,,,,,,,a,1,"[""0.214"",""0.385"",""0.498"",""0.946""]","[1,1,0,1]",0,50,50,50,1,0,1,,,0,FALSE,1.3585,,,,,,,,,,,,,,,,,,,,,,,,,,,,,,,
,5b830542b0d72600018dc280,627c6f4fb368a87425bdae64,2022-05-12_04h22.42.570,classification_task,2021.2.3,Win32,59.93407252,627c6715c52fd12f31907bd0,,,,,,,,,,,,,,,,,,,,,,,l,1,"[""0.144"",""0.306"",""0.498"",""0.739""]","[1,1,0,1]",0,51,51,51,1,1,0,,,0,FALSE,1.075,,,,,,,,,,,,,,,,,,,,,,,,,,,,,,,
,5b830542b0d72600018dc280,627c6f4fb368a87425bdae64,2022-05-12_04h22.42.570,classification_task,2021.2.3,Win32,59.93407252,627c6715c52fd12f31907bd0,,,,,,,,,,,,,,,,,,,,,,,a,1,"[""0.501"",""0.552"",""0.799"",""0.901""]","[0,1,1,1]",0,52,52,52,1,0,0,,,0,FALSE,1.5501,,,,,,,,,,,,,,,,,,,,,,,,,,,,,,,
,5b830542b0d72600018dc280,627c6f4fb368a87425bdae64,2022-05-12_04h22.42.570,classification_task,2021.2.3,Win32,59.93407252,627c6715c52fd12f31907bd0,,,,,,,,,,,,,,,,,,,,,,,l,1,"[""0.043"",""0.253"",""0.445"",""0.674""]","[1,0,1,1]",0,53,53,53,1,1,1,,,0,FALSE,1.0575,,,,,,,,,,,,,,,,,,,,,,,,,,,,,,,
,5b830542b0d72600018dc280,627c6f4fb368a87425bdae64,2022-05-12_04h22.42.570,classification_task,2021.2.3,Win32,59.93407252,627c6715c52fd12f31907bd0,,,,,,,,,,,,,,,,,,,,,,,a,1,"[""0.179"",""0.253"",""0.799"",""0.901""]","[1,0,1,1]",0,54,54,54,1,0,0,,,0,FALSE,1.3177,,,,,,,,,,,,,,,,,,,,,,,,,,,,,,,
,5b830542b0d72600018dc280,627c6f4fb368a87425bdae64,2022-05-12_04h22.42.570,classification_task,2021.2.3,Win32,59.93407252,627c6715c52fd12f31907bd0,,,,,,,,,,,,,,,,,,,,,,,l,1,"[""0.043"",""0.090"",""0.445"",""0.350""]","[1,1,1,0]",0,55,55,55,1,1,1,,,0,FALSE,1.0159,,,,,,,,,,,,,,,,,,,,,,,,,,,,,,,
,5b830542b0d72600018dc280,627c6f4fb368a87425bdae64,2022-05-12_04h22.42.570,classification_task,2021.2.3,Win32,59.93407252,627c6715c52fd12f31907bd0,,,,,,,,,,,,,,,,,,,,,,,a,1,"[""0.179"",""0.552"",""0.799"",""0.497""]","[1,1,1,0]",0,56,56,56,1,0,0,,,0,FALSE,1.1954,,,,,,,,,,,,,,,,,,,,,,,,,,,,,,,
,5b830542b0d72600018dc280,627c6f4fb368a87425bdae64,2022-05-12_04h22.42.570,classification_task,2021.2.3,Win32,59.93407252,627c6715c52fd12f31907bd0,,,,,,,,,,,,,,,,,,,,,,,l,1,"[""0.043"",""0.090"",""0.253"",""0.674""]","[1,1,0,1]",0,57,57,57,1,1,1,,,0,FALSE,0.7112,,,,,,,,,,,,,,,,,,,,,,,,,,,,,,,
,5b830542b0d72600018dc280,627c6f4fb368a87425bdae64,2022-05-12_04h22.42.570,classification_task,2021.2.3,Win32,59.93407252,627c6715c52fd12f31907bd0,,,,,,,,,,,,,,,,,,,,,,,a,1,"[""0.501"",""0.385"",""0.858"",""0.946""]","[0,1,1,1]",0,58,58,58,1,0,1,,,0,FALSE,1.2936,,,,,,,,,,,,,,,,,,,,,,,,,,,,,,,
,5b830542b0d72600018dc280,627c6f4fb368a87425bdae64,2022-05-12_04h22.42.570,classification_task,2021.2.3,Win32,59.93407252,627c6715c52fd12f31907bd0,,,,,,,,,,,,,,,,,,,,,,,a,1,"[""0.214"",""0.385"",""0.858"",""0.497""]","[1,1,1,0]",0,59,59,59,1,0,1,,,0,FALSE,0.8863,,,,,,,,,,,,,,,,,,,,,,,,,,,,,,,
,5b830542b0d72600018dc280,627c6f4fb368a87425bdae64,2022-05-12_04h22.42.570,classification_task,2021.2.3,Win32,59.93407252,627c6715c52fd12f31907bd0,,,,,,,,,,,,,,,,,,,,,,,a,1,"[""0.214"",""0.253"",""0.858"",""0.946""]","[1,0,1,1]",0,60,60,60,1,0,1,,,0,FALSE,0.9109,,,,,,,,,,,,,,,,,,,,,,,,,,,,,,,
,5b830542b0d72600018dc280,627c6f4fb368a87425bdae64,2022-05-12_04h22.42.570,classification_task,2021.2.3,Win32,59.93407252,627c6715c52fd12f31907bd0,,,,,,,,,,,,,,,,,,,,,,,a,1,"[""0.179"",""0.552"",""0.485"",""0.901""]","[1,1,0,1]",0,61,61,61,1,0,0,,,0,FALSE,1.4345,,,,,,,,,,,,,,,,,,,,,,,,,,,,,,,
,5b830542b0d72600018dc280,627c6f4fb368a87425bdae64,2022-05-12_04h22.42.570,classification_task,2021.2.3,Win32,59.93407252,627c6715c52fd12f31907bd0,,,,,,,,,,,,,,,,,,,,,,,l,1,"[""0.498"",""0.090"",""0.445"",""0.674""]","[0,1,1,1]",0,62,62,62,1,1,1,,,0,FALSE,0.8828,,,,,,,,,,,,,,,,,,,,,,,,,,,,,,,
,5b830542b0d72600018dc280,627c6f4fb368a87425bdae64,2022-05-12_04h22.42.570,classification_task,2021.2.3,Win32,59.93407252,627c6715c52fd12f31907bd0,,,,,,,,,,,,,,,,,,,,,,,l,1,"[""0.257"",""0.306"",""0.604"",""0.739""]","[0,1,1,1]",0,63,63,63,1,1,0,,,0,FALSE,1.9184,,,,,,,,,,,,,,,,,,,,,,,,,,,,,,,
,5b830542b0d72600018dc280,627c6f4fb368a87425bdae64,2022-05-12_04h22.42.570,classification_task,2021.2.3,Win32,59.93407252,627c6715c52fd12f31907bd0,,,,,,,,,,,,,,,,,,,,,,,,,,,,,,,,,,,,,,,0, ,,0,6.89226888,179.3616,0,2,2,2,1,2,3,,,,,,,,,,,,,,,,,,
,5b830542b0d72600018dc280,627c6f4fb368a87425bdae64,2022-05-12_04h22.42.570,classification_task,2021.2.3,Win32,59.93407252,627c6715c52fd12f31907bd0,,,,,,,,,,,,,,,,,,,,,,,,,,,,,,,,,,,,,,,1,  ,,0,10,177.2856,0,2,2,2,1,2,3,,,,,,,,,,,,,,,,,,
,5b830542b0d72600018dc280,627c6f4fb368a87425bdae64,2022-05-12_04h22.42.570,classification_task,2021.2.3,Win32,59.93407252,627c6715c52fd12f31907bd0,,,,,,,,,,,,,,,,,,,,,,,,,,,,,,,,,,,,,,,2,  ,,0,6.696306842,181.0973,0,2,2,2,1,2,3,,,,,,,,,,,,,,,,,,
,5b830542b0d72600018dc280,627c6f4fb368a87425bdae64,2022-05-12_04h22.42.570,classification_task,2021.2.3,Win32,59.93407252,627c6715c52fd12f31907bd0,,,,,,,,,,,,,,,,,,,,,,,,,,,,,,,,,,,,,,,,,,,,,0,2,2,2,1,,3,,,,,,,,,,,,,,,,,,
,5b830542b0d72600018dc280,627c6f4fb368a87425bdae64,2022-05-12_04h22.42.570,classification_task,2021.2.3,Win32,59.93407252,627c6715c52fd12f31907bd0,,,,,,,,,,,,,,,,,,,,,,,,,,,,,,,,,,,,,,,,,,,,,,,,,,,,,I believe the aid is a competent performer,,0.7,0,5,956.3018,0,0,0,0,1,0,,,,,
,5b830542b0d72600018dc280,627c6f4fb368a87425bdae64,2022-05-12_04h22.42.570,classification_task,2021.2.3,Win32,59.93407252,627c6715c52fd12f31907bd0,,,,,,,,,,,,,,,,,,,,,,,,,,,,,,,,,,,,,,,,,,,,,,,,,,,,,I trust the aid,,0.7,0,5,958.8499,0,0,0,0,1,0,,,,,
,5b830542b0d72600018dc280,627c6f4fb368a87425bdae64,2022-05-12_04h22.42.570,classification_task,2021.2.3,Win32,59.93407252,627c6715c52fd12f31907bd0,,,,,,,,,,,,,,,,,,,,,,,,,,,,,,,,,,,,,,,,,,,,,,,,,,,,,I have confidence in the advice given by the aid,,0.7,0,5,961.8116,0,0,0,0,1,0,,,,,
,5b830542b0d72600018dc280,627c6f4fb368a87425bdae64,2022-05-12_04h22.42.570,classification_task,2021.2.3,Win32,59.93407252,627c6715c52fd12f31907bd0,,,,,,,,,,,,,,,,,,,,,,,,,,,,,,,,,,,,,,,,,,,,,,,,,,,,,I can depend on the aid,,0.7,0,5,964.705,0,0,0,0,1,0,,,,,
,5b830542b0d72600018dc280,627c6f4fb368a87425bdae64,2022-05-12_04h22.42.570,classification_task,2021.2.3,Win32,59.93407252,627c6715c52fd12f31907bd0,,,,,,,,,,,,,,,,,,,,,,,,,,,,,,,,,,,,,,,,,,,,,,,,,,,,,I can rely on the aid to behave in consistent ways,,0.7,0,4,969.4279,0,0,0,0,1,0,,,,,
,5b830542b0d72600018dc280,627c6f4fb368a87425bdae64,2022-05-12_04h22.42.570,classification_task,2021.2.3,Win32,59.93407252,627c6715c52fd12f31907bd0,,,,,,,,,,,,,,,,,,,,,,,,,,,,,,,,,,,,,,,,,,,,,,,,,,,,,I can rely on the aid to do its best every time I take its advice,,0.7,0,5,975.8868,0,0,0,0,1,0,,,,,
,5b830542b0d72600018dc280,627c6f4fb368a87425bdae64,2022-05-12_04h22.42.570,classification_task,2021.2.3,Win32,59.93407252,627c6715c52fd12f31907bd0,,,,,,,,,,,,,,,,,,,,,,,,,,,,,,,,,,,,,,,,,,,,,,,,,,,,,"On trials you completed with assistance from the aid, how frequently did you think the aid was correct?",,0.7,0,100%,,0,0,0,0,1,0,,,,,
,5b830542b0d72600018dc280,627c6f4fb368a87425bdae64,2022-05-12_04h22.42.570,classification_task,2021.2.3,Win32,59.93407252,627c6715c52fd12f31907bd0,,,,,,,,,,,,,,,,,,,,,,,,,,,,,,,,,,,,,,,,,,,,,,,,,,,,,"On trials you completed without the aid, how frequently did you think you were correct?",,0.7,0,85%,,0,0,0,0,1,0,,,,,
,5b830542b0d72600018dc280,627c6f4fb368a87425bdae64,2022-05-12_04h22.42.570,classification_task,2021.2.3,Win32,59.93407252,627c6715c52fd12f31907bd0,,,,,,,,,,,,,,,,,,,,,,,,,,,,,,,,,,,,,,,,,,,,,,,,,,,,,,,,,,,0,0,0,0,1,,,,,,
,5b830542b0d72600018dc280,627c6f4fb368a87425bdae64,2022-05-12_04h22.42.570,classification_task,2021.2.3,Win32,59.93407252,627c6715c52fd12f31907bd0,,,,,,,,,,,,,,,,,,,,,,,,,,,,,,,,,,,,,,,,,,,,,,,,,,,,,,,,,,,,,,,,,space,9.4304,1012.7654,,
,5b830542b0d72600018dc280,627c6f4fb368a87425bdae64,2022-05-12_04h22.42.570,classification_task,2021.2.3,Win32,59.93407252,627c6715c52fd12f31907bd0,,,,,,,,,,,,,,,,,,,,,,,,,,,,,,,,,,,,,,,,,,,,,,,,,,,,,,,,,,,,,,,,,,,,"Mozilla/5.0 (Windows NT 10.0; Win64; x64) AppleWebKit/537.36 (KHTML, like Gecko) Chrome/101.0.4951.54 Safari/537.36 Edg/101.0.1210.39",
,5b830542b0d72600018dc280,627c6f4fb368a87425bdae64,2022-05-12_04h22.42.570,classification_task,2021.2.3,Win32,59.93407252,627c6715c52fd12f31907bd0,,,,,,,,,,,,,,,,,,,,,,,,,,,,,,,,,,,,,,,,,,,,,,,,,,,,,,,,,,,,,,,,,,,,,LOWLIGHT
