usingWebGL,participant,session,date,expName,psychopyVersion,OS,frameRate,study_id,signatures_friend,signatures_foe,band_ranges_top,band_ranges_bottom,formitemText,formtype,formundefined,formitemWidth,formindex,formresponse,formrt,key_resp_2.keys,key_resp_2.rt,tute_resp.keys,tute_resp.rt,tutorial.thisRepN,tutorial.thisTrialN,tutorial.thisN,tutorial.thisIndex,tutorial.ran,key_resp_4.keys,key_resp_4.rt,key_resp.keys,key_resp.corr,key_resp.rt,lines_presented,is_signal_presented,trials.thisRepN,trials.thisTrialN,trials.thisN,trials.thisIndex,trials.ran,vessel,active_band,lines,is_signal,supported_pos,catch_trial,debrief_formindex,debrief_formitemText,debrief_formtype,debrief_formitemWidth,debrief_formresponse,debrief_formrt,phases.thisRepN,phases.thisTrialN,phases.thisN,phases.thisIndex,phases.ran,phases.order,phase,key_resp_3.keys,trustitemText,trusttype,trustitemWidth,trustindex,trustresponse,trustrt,support_status.thisRepN,support_status.thisTrialN,support_status.thisN,support_status.thisIndex,support_status.ran,support_status.order,key_resp_5.keys,key_resp_5.rt,globalClockTime,userAgent,manualCondition
TRUE,5b8c8e7d0c740e00019d55c3,627c6f5c70ae6af1c85fa307,2022-05-11_21h24.55.244,classification_task,2021.2.3,Win32,60.02040694,627c6715c52fd12f31907bcf,,,,,,,,,,,,,,,,,,,,,,,,,,,,,,,,,,,,,,,,,,,,,,,,,,,,,,,,,,,,,,,,,,,,,
,5b8c8e7d0c740e00019d55c3,627c6f5c70ae6af1c85fa307,2022-05-11_21h24.55.244,classification_task,2021.2.3,Win32,60.02040694,627c6715c52fd12f31907bcf,"[[""0.196"",""0.447"",""0.937"",""0.973""],[""0.297"",""0.547"",""0.696"",""0.872""]]","[[""0.064"",""0.362"",""0.583"",""0.816""],[""0.146"",""0.411"",""0.513"",""0.780""]]","[1,10]","[100,1000]",Video game experience,,,0.7,0,,,,,,,,,,,,,,,,,,,,,,,,,,,,,,,,,,,,,,,,,,,,,,,,,,,,,,,,,,,,
,5b8c8e7d0c740e00019d55c3,627c6f5c70ae6af1c85fa307,2022-05-11_21h24.55.244,classification_task,2021.2.3,Win32,60.02040694,627c6715c52fd12f31907bcf,,,,,Approximately how many hours did you spend playing video games in the last week?,,,0.7,0,10,,,,,,,,,,,,,,,,,,,,,,,,,,,,,,,,,,,,,,,,,,,,,,,,,,,,,,,,,,,
,5b8c8e7d0c740e00019d55c3,627c6f5c70ae6af1c85fa307,2022-05-11_21h24.55.244,classification_task,2021.2.3,Win32,60.02040694,627c6715c52fd12f31907bcf,,,,,"Which game did you play the most this year? (Enter ""None"" if you didn't play any)",,,0.7,0,Fortnite,,,,,,,,,,,,,,,,,,,,,,,,,,,,,,,,,,,,,,,,,,,,,,,,,,,,,,,,,,,
,5b8c8e7d0c740e00019d55c3,627c6f5c70ae6af1c85fa307,2022-05-11_21h24.55.244,classification_task,2021.2.3,Win32,60.02040694,627c6715c52fd12f31907bcf,,,,,Visual perception,,,0.7,0,,,,,,,,,,,,,,,,,,,,,,,,,,,,,,,,,,,,,,,,,,,,,,,,,,,,,,,,,,,,
,5b8c8e7d0c740e00019d55c3,627c6f5c70ae6af1c85fa307,2022-05-11_21h24.55.244,classification_task,2021.2.3,Win32,60.02040694,627c6715c52fd12f31907bcf,,,,,Do you have any form of color blindness?,,,0.7,0,No,36.7929,,,,,,,,,,,,,,,,,,,,,,,,,,,,,,,,,,,,,,,,,,,,,,,,,,,,,,,,,,
,5b8c8e7d0c740e00019d55c3,627c6f5c70ae6af1c85fa307,2022-05-11_21h24.55.244,classification_task,2021.2.3,Win32,60.02040694,627c6715c52fd12f31907bcf,,,,,Do you use software to change the colour temperature of your screen (e.g. f.lux)?,,,0.7,0,No,39.8068,,,,,,,,,,,,,,,,,,,,,,,,,,,,,,,,,,,,,,,,,,,,,,,,,,,,,,,,,,
,5b8c8e7d0c740e00019d55c3,627c6f5c70ae6af1c85fa307,2022-05-11_21h24.55.244,classification_task,2021.2.3,Win32,60.02040694,627c6715c52fd12f31907bcf,,,,,,,,,,,,space,256.7306,space,38.3177,0,0,0,0,1,,,,,,,,,,,,,,,,,,,,,,,,,,,,,,,,,,,,,,,,,,,,,,,,,
,5b8c8e7d0c740e00019d55c3,627c6f5c70ae6af1c85fa307,2022-05-11_21h24.55.244,classification_task,2021.2.3,Win32,60.02040694,627c6715c52fd12f31907bcf,,,,,,,,,,,,,,space,11.7948,1,0,1,0,1,,,,,,,,,,,,,,,,,,,,,,,,,,,,,,,,,,,,,,,,,,,,,,,,,
,5b8c8e7d0c740e00019d55c3,627c6f5c70ae6af1c85fa307,2022-05-11_21h24.55.244,classification_task,2021.2.3,Win32,60.02040694,627c6715c52fd12f31907bcf,,,,,,,,,,,,,,space,29.7868,2,0,2,0,1,,,,,,,,,,,,,,,,,,,,,,,,,,,,,,,,,,,,,,,,,,,,,,,,,
,5b8c8e7d0c740e00019d55c3,627c6f5c70ae6af1c85fa307,2022-05-11_21h24.55.244,classification_task,2021.2.3,Win32,60.02040694,627c6715c52fd12f31907bcf,,,,,,,,,,,,,,space,9.5805,3,0,3,0,1,,,,,,,,,,,,,,,,,,,,,,,,,,,,,,,,,,,,,,,,,,,,,,,,,
,5b8c8e7d0c740e00019d55c3,627c6f5c70ae6af1c85fa307,2022-05-11_21h24.55.244,classification_task,2021.2.3,Win32,60.02040694,627c6715c52fd12f31907bcf,,,,,,,,,,,,,,space,16.0645,4,0,4,0,1,,,,,,,,,,,,,,,,,,,,,,,,,,,,,,,,,,,,,,,,,,,,,,,,,
,5b8c8e7d0c740e00019d55c3,627c6f5c70ae6af1c85fa307,2022-05-11_21h24.55.244,classification_task,2021.2.3,Win32,60.02040694,627c6715c52fd12f31907bcf,,,,,,,,,,,,,,,,,,,,,space,24.7139,l,1,6.2692,"[""0.146"",""0.242"",""0.513"",""0.780""]","[1,0,1,1]",0,0,0,0,1,1,1,,,1,FALSE,,,,,,,,,,,,,,,,,,,,,,,,,,,,,,,
,5b8c8e7d0c740e00019d55c3,627c6f5c70ae6af1c85fa307,2022-05-11_21h24.55.244,classification_task,2021.2.3,Win32,60.02040694,627c6715c52fd12f31907bcf,,,,,,,,,,,,,,,,,,,,,,,l,1,4.2957,"[""0.064"",""0.362"",""0.254"",""0.816""]","[1,1,0,1]",0,1,1,1,1,1,0,,,1,FALSE,,,,,,,,,,,,,,,,,,,,,,,,,,,,,,,
,5b8c8e7d0c740e00019d55c3,627c6f5c70ae6af1c85fa307,2022-05-11_21h24.55.244,classification_task,2021.2.3,Win32,60.02040694,627c6715c52fd12f31907bcf,,,,,,,,,,,,,,,,,,,,,,,a,1,7.9435,"[""0.623"",""0.547"",""0.696"",""0.872""]","[0,1,1,1]",0,2,2,2,1,0,1,,,1,FALSE,,,,,,,,,,,,,,,,,,,,,,,,,,,,,,,
,5b8c8e7d0c740e00019d55c3,627c6f5c70ae6af1c85fa307,2022-05-11_21h24.55.244,classification_task,2021.2.3,Win32,60.02040694,627c6715c52fd12f31907bcf,,,,,,,,,,,,,,,,,,,,,,,l,1,7.7311,"[""0.064"",""0.362"",""0.583"",""0.104""]","[1,1,1,0]",0,3,3,3,1,1,0,,,1,FALSE,,,,,,,,,,,,,,,,,,,,,,,,,,,,,,,
,5b8c8e7d0c740e00019d55c3,627c6f5c70ae6af1c85fa307,2022-05-11_21h24.55.244,classification_task,2021.2.3,Win32,60.02040694,627c6715c52fd12f31907bcf,,,,,,,,,,,,,,,,,,,,,,,l,0,4.0713,"[""0.196"",""0.447"",""0.029"",""0.973""]","[1,1,0,1]",0,4,4,4,1,0,0,,,1,FALSE,,,,,,,,,,,,,,,,,,,,,,,,,,,,,,,
,5b8c8e7d0c740e00019d55c3,627c6f5c70ae6af1c85fa307,2022-05-11_21h24.55.244,classification_task,2021.2.3,Win32,60.02040694,627c6715c52fd12f31907bcf,,,,,,,,,,,,,,,,,,,,,,,l,1,6.2727,"[""0.064"",""0.654"",""0.583"",""0.816""]","[1,0,1,1]",0,5,5,5,1,1,0,,,1,FALSE,,,,,,,,,,,,,,,,,,,,,,,,,,,,,,,
,5b8c8e7d0c740e00019d55c3,627c6f5c70ae6af1c85fa307,2022-05-11_21h24.55.244,classification_task,2021.2.3,Win32,60.02040694,627c6715c52fd12f31907bcf,,,,,,,,,,,,,,,,,,,,,,,a,0,8.3353,"[""0.146"",""0.411"",""0.108"",""0.780""]","[1,1,0,1]",0,6,6,6,1,1,1,,,1,FALSE,,,,,,,,,,,,,,,,,,,,,,,,,,,,,,,
,5b8c8e7d0c740e00019d55c3,627c6f5c70ae6af1c85fa307,2022-05-11_21h24.55.244,classification_task,2021.2.3,Win32,60.02040694,627c6715c52fd12f31907bcf,,,,,,,,,,,,,,,,,,,,,,,a,1,7.2988,"[""0.196"",""0.447"",""0.937"",""0.104""]","[1,1,1,0]",0,7,7,7,1,0,0,,,1,FALSE,,,,,,,,,,,,,,,,,,,,,,,,,,,,,,,
,5b8c8e7d0c740e00019d55c3,627c6f5c70ae6af1c85fa307,2022-05-11_21h24.55.244,classification_task,2021.2.3,Win32,60.02040694,627c6715c52fd12f31907bcf,,,,,,,,,,,,,,,,,,,,,,,a,1,7.6155,"[""0.297"",""0.547"",""0.104"",""0.872""]","[1,1,0,1]",0,8,8,8,1,0,1,,,1,FALSE,,,,,,,,,,,,,,,,,,,,,,,,,,,,,,,
,5b8c8e7d0c740e00019d55c3,627c6f5c70ae6af1c85fa307,2022-05-11_21h24.55.244,classification_task,2021.2.3,Win32,60.02040694,627c6715c52fd12f31907bcf,,,,,,,,,,,,,,,,,,,,,,,a,1,2.785,"[""0.196"",""0.254"",""0.937"",""0.973""]","[1,0,1,1]",0,9,9,9,1,0,0,,,1,FALSE,,,,,,,,,,,,,,,,,,,,,,,,,,,,,,,
,5b8c8e7d0c740e00019d55c3,627c6f5c70ae6af1c85fa307,2022-05-11_21h24.55.244,classification_task,2021.2.3,Win32,60.02040694,627c6715c52fd12f31907bcf,,,,,,,,,,,,,,,,,,,,,,,a,1,5.5102,"[""0.619"",""0.447"",""0.937"",""0.973""]","[0,1,1,1]",0,10,10,10,1,0,0,,,1,FALSE,,,,,,,,,,,,,,,,,,,,,,,,,,,,,,,
,5b8c8e7d0c740e00019d55c3,627c6f5c70ae6af1c85fa307,2022-05-11_21h24.55.244,classification_task,2021.2.3,Win32,60.02040694,627c6715c52fd12f31907bcf,,,,,,,,,,,,,,,,,,,,,,,l,1,4.4478,"[""0.254"",""0.362"",""0.583"",""0.816""]","[0,1,1,1]",0,11,11,11,1,1,0,,,1,FALSE,,,,,,,,,,,,,,,,,,,,,,,,,,,,,,,
,5b8c8e7d0c740e00019d55c3,627c6f5c70ae6af1c85fa307,2022-05-11_21h24.55.244,classification_task,2021.2.3,Win32,60.02040694,627c6715c52fd12f31907bcf,,,,,,,,,,,,,,,,,,,,,,,l,1,4.0879,"[""0.146"",""0.411"",""0.513"",""0.731""]","[1,1,1,0]",0,12,12,12,1,1,1,,,1,FALSE,,,,,,,,,,,,,,,,,,,,,,,,,,,,,,,
,5b8c8e7d0c740e00019d55c3,627c6f5c70ae6af1c85fa307,2022-05-11_21h24.55.244,classification_task,2021.2.3,Win32,60.02040694,627c6715c52fd12f31907bcf,,,,,,,,,,,,,,,,,,,,,,,l,1,2.9943,"[""0.731"",""0.411"",""0.513"",""0.780""]","[0,1,1,1]",0,13,13,13,1,1,1,,,1,FALSE,,,,,,,,,,,,,,,,,,,,,,,,,,,,,,,
,5b8c8e7d0c740e00019d55c3,627c6f5c70ae6af1c85fa307,2022-05-11_21h24.55.244,classification_task,2021.2.3,Win32,60.02040694,627c6715c52fd12f31907bcf,,,,,,,,,,,,,,,,,,,,,,,a,1,2.864,"[""0.297"",""0.547"",""0.696"",""0.623""]","[1,1,1,0]",0,14,14,14,1,0,1,,,1,FALSE,,,,,,,,,,,,,,,,,,,,,,,,,,,,,,,
,5b8c8e7d0c740e00019d55c3,627c6f5c70ae6af1c85fa307,2022-05-11_21h24.55.244,classification_task,2021.2.3,Win32,60.02040694,627c6715c52fd12f31907bcf,,,,,,,,,,,,,,,,,,,,,,,a,1,6.1004,"[""0.297"",""0.233"",""0.696"",""0.872""]","[1,0,1,1]",0,15,15,15,1,0,1,,,1,FALSE,,,,,,,,,,,,,,,,,,,,,,,,,,,,,,,
,5b8c8e7d0c740e00019d55c3,627c6f5c70ae6af1c85fa307,2022-05-11_21h24.55.244,classification_task,2021.2.3,Win32,60.02040694,627c6715c52fd12f31907bcf,,,,,,,,,,,,,,,,,,,,,,,a,1,3.805,"[""0.196"",""0.447"",""0.731"",""0.973""]","[1,1,0,1]",0,16,16,16,1,0,0,,,1,FALSE,,,,,,,,,,,,,,,,,,,,,,,,,,,,,,,
,5b8c8e7d0c740e00019d55c3,627c6f5c70ae6af1c85fa307,2022-05-11_21h24.55.244,classification_task,2021.2.3,Win32,60.02040694,627c6715c52fd12f31907bcf,,,,,,,,,,,,,,,,,,,,,,,a,0,2.3284,"[""0.146"",""0.411"",""0.731"",""0.780""]","[1,1,0,1]",0,17,17,17,1,1,1,,,1,FALSE,,,,,,,,,,,,,,,,,,,,,,,,,,,,,,,
,5b8c8e7d0c740e00019d55c3,627c6f5c70ae6af1c85fa307,2022-05-11_21h24.55.244,classification_task,2021.2.3,Win32,60.02040694,627c6715c52fd12f31907bcf,,,,,,,,,,,,,,,,,,,,,,,l,0,0.0342,"[""0.196"",""0.744"",""0.937"",""0.973""]","[1,0,1,1]",0,18,18,18,1,0,0,,,1,FALSE,,,,,,,,,,,,,,,,,,,,,,,,,,,,,,,
,5b8c8e7d0c740e00019d55c3,627c6f5c70ae6af1c85fa307,2022-05-11_21h24.55.244,classification_task,2021.2.3,Win32,60.02040694,627c6715c52fd12f31907bcf,,,,,,,,,,,,,,,,,,,,,,,l,1,2.3359,"[""0.064"",""0.362"",""0.583"",""0.108""]","[1,1,1,0]",0,19,19,19,1,1,0,,,1,FALSE,,,,,,,,,,,,,,,,,,,,,,,,,,,,,,,
,5b8c8e7d0c740e00019d55c3,627c6f5c70ae6af1c85fa307,2022-05-11_21h24.55.244,classification_task,2021.2.3,Win32,60.02040694,627c6715c52fd12f31907bcf,,,,,,,,,,,,,,,,,,,,,,,l,1,1.9686,"[""0.064"",""0.654"",""0.583"",""0.816""]","[1,0,1,1]",0,20,20,20,1,1,0,,,1,FALSE,,,,,,,,,,,,,,,,,,,,,,,,,,,,,,,
,5b8c8e7d0c740e00019d55c3,627c6f5c70ae6af1c85fa307,2022-05-11_21h24.55.244,classification_task,2021.2.3,Win32,60.02040694,627c6715c52fd12f31907bcf,,,,,,,,,,,,,,,,,,,,,,,a,1,4.9325,"[""0.297"",""0.547"",""0.696"",""0.029""]","[1,1,1,0]",0,21,21,21,1,0,1,,,1,FALSE,,,,,,,,,,,,,,,,,,,,,,,,,,,,,,,
,5b8c8e7d0c740e00019d55c3,627c6f5c70ae6af1c85fa307,2022-05-11_21h24.55.244,classification_task,2021.2.3,Win32,60.02040694,627c6715c52fd12f31907bcf,,,,,,,,,,,,,,,,,,,,,,,a,1,2.8673,"[""0.196"",""0.447"",""0.937"",""0.242""]","[1,1,1,0]",0,22,22,22,1,0,0,,,1,FALSE,,,,,,,,,,,,,,,,,,,,,,,,,,,,,,,
,5b8c8e7d0c740e00019d55c3,627c6f5c70ae6af1c85fa307,2022-05-11_21h24.55.244,classification_task,2021.2.3,Win32,60.02040694,627c6715c52fd12f31907bcf,,,,,,,,,,,,,,,,,,,,,,,l,1,3.9409,"[""0.064"",""0.362"",""0.254"",""0.816""]","[1,1,0,1]",0,23,23,23,1,1,0,,,1,FALSE,,,,,,,,,,,,,,,,,,,,,,,,,,,,,,,
,5b8c8e7d0c740e00019d55c3,627c6f5c70ae6af1c85fa307,2022-05-11_21h24.55.244,classification_task,2021.2.3,Win32,60.02040694,627c6715c52fd12f31907bcf,,,,,,,,,,,,,,,,,,,,,,,l,1,3.1236,"[""0.146"",""0.411"",""0.513"",""0.240""]","[1,1,1,0]",0,24,24,24,1,1,1,,,1,FALSE,,,,,,,,,,,,,,,,,,,,,,,,,,,,,,,
,5b8c8e7d0c740e00019d55c3,627c6f5c70ae6af1c85fa307,2022-05-11_21h24.55.244,classification_task,2021.2.3,Win32,60.02040694,627c6715c52fd12f31907bcf,,,,,,,,,,,,,,,,,,,,,,,a,1,2.6809,"[""0.654"",""0.547"",""0.696"",""0.872""]","[0,1,1,1]",0,25,25,25,1,0,1,,,1,FALSE,,,,,,,,,,,,,,,,,,,,,,,,,,,,,,,
,5b8c8e7d0c740e00019d55c3,627c6f5c70ae6af1c85fa307,2022-05-11_21h24.55.244,classification_task,2021.2.3,Win32,60.02040694,627c6715c52fd12f31907bcf,,,,,,,,,,,,,,,,,,,,,,,a,1,5.4066,"[""0.297"",""0.547"",""0.231"",""0.872""]","[1,1,0,1]",0,26,26,26,1,0,1,,,1,FALSE,,,,,,,,,,,,,,,,,,,,,,,,,,,,,,,
,5b8c8e7d0c740e00019d55c3,627c6f5c70ae6af1c85fa307,2022-05-11_21h24.55.244,classification_task,2021.2.3,Win32,60.02040694,627c6715c52fd12f31907bcf,,,,,,,,,,,,,,,,,,,,,,,a,1,6.6929,"[""0.297"",""0.242"",""0.696"",""0.872""]","[1,0,1,1]",0,27,27,27,1,0,1,,,1,FALSE,,,,,,,,,,,,,,,,,,,,,,,,,,,,,,,
,5b8c8e7d0c740e00019d55c3,627c6f5c70ae6af1c85fa307,2022-05-11_21h24.55.244,classification_task,2021.2.3,Win32,60.02040694,627c6715c52fd12f31907bcf,,,,,,,,,,,,,,,,,,,,,,,l,1,3.0956,"[""0.112"",""0.411"",""0.513"",""0.780""]","[0,1,1,1]",0,28,28,28,1,1,1,,,1,FALSE,,,,,,,,,,,,,,,,,,,,,,,,,,,,,,,
,5b8c8e7d0c740e00019d55c3,627c6f5c70ae6af1c85fa307,2022-05-11_21h24.55.244,classification_task,2021.2.3,Win32,60.02040694,627c6715c52fd12f31907bcf,,,,,,,,,,,,,,,,,,,,,,,a,0,3.517,"[""0.146"",""0.619"",""0.513"",""0.780""]","[1,0,1,1]",0,29,29,29,1,1,1,,,1,FALSE,,,,,,,,,,,,,,,,,,,,,,,,,,,,,,,
,5b8c8e7d0c740e00019d55c3,627c6f5c70ae6af1c85fa307,2022-05-11_21h24.55.244,classification_task,2021.2.3,Win32,60.02040694,627c6715c52fd12f31907bcf,,,,,,,,,,,,,,,,,,,,,,,l,1,5.0674,"[""0.731"",""0.362"",""0.583"",""0.816""]","[0,1,1,1]",0,30,30,30,1,1,0,,,1,FALSE,,,,,,,,,,,,,,,,,,,,,,,,,,,,,,,
,5b8c8e7d0c740e00019d55c3,627c6f5c70ae6af1c85fa307,2022-05-11_21h24.55.244,classification_task,2021.2.3,Win32,60.02040694,627c6715c52fd12f31907bcf,,,,,,,,,,,,,,,,,,,,,,,a,1,2.4106,"[""0.743"",""0.447"",""0.937"",""0.973""]","[0,1,1,1]",0,31,31,31,1,0,0,,,1,FALSE,,,,,,,,,,,,,,,,,,,,,,,,,,,,,,,
,5b8c8e7d0c740e00019d55c3,627c6f5c70ae6af1c85fa307,2022-05-11_21h24.55.244,classification_task,2021.2.3,Win32,60.02040694,627c6715c52fd12f31907bcf,,,,,,,,,,,,,,,,,,,,,,,a,0,6.3683,"[""0.064"",""0.362"",""0.619"",""0.816""]","[1,1,0,1]",0,32,32,32,1,1,0,,,1,FALSE,,,,,,,,,,,,,,,,,,,,,,,,,,,,,,,
,5b8c8e7d0c740e00019d55c3,627c6f5c70ae6af1c85fa307,2022-05-11_21h24.55.244,classification_task,2021.2.3,Win32,60.02040694,627c6715c52fd12f31907bcf,,,,,,,,,,,,,,,,,,,,,,,l,1,5.6932,"[""0.619"",""0.411"",""0.513"",""0.780""]","[0,1,1,1]",0,33,33,33,1,1,1,,,1,FALSE,,,,,,,,,,,,,,,,,,,,,,,,,,,,,,,
,5b8c8e7d0c740e00019d55c3,627c6f5c70ae6af1c85fa307,2022-05-11_21h24.55.244,classification_task,2021.2.3,Win32,60.02040694,627c6715c52fd12f31907bcf,,,,,,,,,,,,,,,,,,,,,,,a,1,1.6776,"[""0.297"",""0.547"",""0.254"",""0.872""]","[1,1,0,1]",0,34,34,34,1,0,1,,,1,FALSE,,,,,,,,,,,,,,,,,,,,,,,,,,,,,,,
,5b8c8e7d0c740e00019d55c3,627c6f5c70ae6af1c85fa307,2022-05-11_21h24.55.244,classification_task,2021.2.3,Win32,60.02040694,627c6715c52fd12f31907bcf,,,,,,,,,,,,,,,,,,,,,,,a,1,1.7992,"[""0.744"",""0.447"",""0.937"",""0.973""]","[0,1,1,1]",0,35,35,35,1,0,0,,,1,FALSE,,,,,,,,,,,,,,,,,,,,,,,,,,,,,,,
,5b8c8e7d0c740e00019d55c3,627c6f5c70ae6af1c85fa307,2022-05-11_21h24.55.244,classification_task,2021.2.3,Win32,60.02040694,627c6715c52fd12f31907bcf,,,,,,,,,,,,,,,,,,,,,,,l,1,1.5344,"[""0.064"",""0.619"",""0.583"",""0.816""]","[1,0,1,1]",0,36,36,36,1,1,0,,,1,FALSE,,,,,,,,,,,,,,,,,,,,,,,,,,,,,,,
,5b8c8e7d0c740e00019d55c3,627c6f5c70ae6af1c85fa307,2022-05-11_21h24.55.244,classification_task,2021.2.3,Win32,60.02040694,627c6715c52fd12f31907bcf,,,,,,,,,,,,,,,,,,,,,,,l,1,3.9594,"[""0.254"",""0.362"",""0.583"",""0.816""]","[0,1,1,1]",0,37,37,37,1,1,0,,,1,FALSE,,,,,,,,,,,,,,,,,,,,,,,,,,,,,,,
,5b8c8e7d0c740e00019d55c3,627c6f5c70ae6af1c85fa307,2022-05-11_21h24.55.244,classification_task,2021.2.3,Win32,60.02040694,627c6715c52fd12f31907bcf,,,,,,,,,,,,,,,,,,,,,,,l,1,1.6477,"[""0.064"",""0.362"",""0.583"",""0.743""]","[1,1,1,0]",0,38,38,38,1,1,0,,,1,FALSE,,,,,,,,,,,,,,,,,,,,,,,,,,,,,,,
,5b8c8e7d0c740e00019d55c3,627c6f5c70ae6af1c85fa307,2022-05-11_21h24.55.244,classification_task,2021.2.3,Win32,60.02040694,627c6715c52fd12f31907bcf,,,,,,,,,,,,,,,,,,,,,,,a,0,1.0484,"[""0.146"",""0.233"",""0.513"",""0.780""]","[1,0,1,1]",0,39,39,39,1,1,1,,,1,FALSE,,,,,,,,,,,,,,,,,,,,,,,,,,,,,,,
,5b8c8e7d0c740e00019d55c3,627c6f5c70ae6af1c85fa307,2022-05-11_21h24.55.244,classification_task,2021.2.3,Win32,60.02040694,627c6715c52fd12f31907bcf,,,,,,,,,,,,,,,,,,,,,,,a,1,0.959,"[""0.297"",""0.104"",""0.696"",""0.872""]","[1,0,1,1]",0,40,40,40,1,0,1,,,1,FALSE,,,,,,,,,,,,,,,,,,,,,,,,,,,,,,,
,5b8c8e7d0c740e00019d55c3,627c6f5c70ae6af1c85fa307,2022-05-11_21h24.55.244,classification_task,2021.2.3,Win32,60.02040694,627c6715c52fd12f31907bcf,,,,,,,,,,,,,,,,,,,,,,,a,1,3.0636,"[""0.297"",""0.547"",""0.696"",""0.743""]","[1,1,1,0]",0,41,41,41,1,0,1,,,1,FALSE,,,,,,,,,,,,,,,,,,,,,,,,,,,,,,,
,5b8c8e7d0c740e00019d55c3,627c6f5c70ae6af1c85fa307,2022-05-11_21h24.55.244,classification_task,2021.2.3,Win32,60.02040694,627c6715c52fd12f31907bcf,,,,,,,,,,,,,,,,,,,,,,,a,1,2.3687,"[""0.196"",""0.447"",""0.937"",""0.744""]","[1,1,1,0]",0,42,42,42,1,0,0,,,1,FALSE,,,,,,,,,,,,,,,,,,,,,,,,,,,,,,,
,5b8c8e7d0c740e00019d55c3,627c6f5c70ae6af1c85fa307,2022-05-11_21h24.55.244,classification_task,2021.2.3,Win32,60.02040694,627c6715c52fd12f31907bcf,,,,,,,,,,,,,,,,,,,,,,,l,1,3.4398,"[""0.146"",""0.411"",""0.513"",""0.108""]","[1,1,1,0]",0,43,43,43,1,1,1,,,1,FALSE,,,,,,,,,,,,,,,,,,,,,,,,,,,,,,,
,5b8c8e7d0c740e00019d55c3,627c6f5c70ae6af1c85fa307,2022-05-11_21h24.55.244,classification_task,2021.2.3,Win32,60.02040694,627c6715c52fd12f31907bcf,,,,,,,,,,,,,,,,,,,,,,,a,1,2.4326,"[""0.196"",""0.447"",""0.254"",""0.973""]","[1,1,0,1]",0,44,44,44,1,0,0,,,1,FALSE,,,,,,,,,,,,,,,,,,,,,,,,,,,,,,,
,5b8c8e7d0c740e00019d55c3,627c6f5c70ae6af1c85fa307,2022-05-11_21h24.55.244,classification_task,2021.2.3,Win32,60.02040694,627c6715c52fd12f31907bcf,,,,,,,,,,,,,,,,,,,,,,,a,1,3,"[""0.619"",""0.547"",""0.696"",""0.872""]","[0,1,1,1]",0,45,45,45,1,0,1,,,1,FALSE,,,,,,,,,,,,,,,,,,,,,,,,,,,,,,,
,5b8c8e7d0c740e00019d55c3,627c6f5c70ae6af1c85fa307,2022-05-11_21h24.55.244,classification_task,2021.2.3,Win32,60.02040694,627c6715c52fd12f31907bcf,,,,,,,,,,,,,,,,,,,,,,,l,0,2.4997,"[""0.196"",""0.623"",""0.937"",""0.973""]","[1,0,1,1]",0,46,46,46,1,0,0,,,1,FALSE,,,,,,,,,,,,,,,,,,,,,,,,,,,,,,,
,5b8c8e7d0c740e00019d55c3,627c6f5c70ae6af1c85fa307,2022-05-11_21h24.55.244,classification_task,2021.2.3,Win32,60.02040694,627c6715c52fd12f31907bcf,,,,,,,,,,,,,,,,,,,,,,,a,0,1.6437,"[""0.146"",""0.411"",""0.104"",""0.780""]","[1,1,0,1]",0,47,47,47,1,1,1,,,1,FALSE,,,,,,,,,,,,,,,,,,,,,,,,,,,,,,,
,5b8c8e7d0c740e00019d55c3,627c6f5c70ae6af1c85fa307,2022-05-11_21h24.55.244,classification_task,2021.2.3,Win32,60.02040694,627c6715c52fd12f31907bcf,,,,,,,,,,,,,,,,,,,,,,,l,1,1.6351,"[""0.146"",""0.029"",""0.513"",""0.780""]","[1,0,1,1]",0,48,48,48,1,1,1,,,1,FALSE,,,,,,,,,,,,,,,,,,,,,,,,,,,,,,,
,5b8c8e7d0c740e00019d55c3,627c6f5c70ae6af1c85fa307,2022-05-11_21h24.55.244,classification_task,2021.2.3,Win32,60.02040694,627c6715c52fd12f31907bcf,,,,,,,,,,,,,,,,,,,,,,,a,1,2.301,"[""0.297"",""0.547"",""0.231"",""0.872""]","[1,1,0,1]",0,49,49,49,1,0,1,,,1,FALSE,,,,,,,,,,,,,,,,,,,,,,,,,,,,,,,
,5b8c8e7d0c740e00019d55c3,627c6f5c70ae6af1c85fa307,2022-05-11_21h24.55.244,classification_task,2021.2.3,Win32,60.02040694,627c6715c52fd12f31907bcf,,,,,,,,,,,,,,,,,,,,,,,a,0,0.9377,"[""0.233"",""0.411"",""0.513"",""0.780""]","[0,1,1,1]",0,50,50,50,1,1,1,,,1,FALSE,,,,,,,,,,,,,,,,,,,,,,,,,,,,,,,
,5b8c8e7d0c740e00019d55c3,627c6f5c70ae6af1c85fa307,2022-05-11_21h24.55.244,classification_task,2021.2.3,Win32,60.02040694,627c6715c52fd12f31907bcf,,,,,,,,,,,,,,,,,,,,,,,l,1,1.8497,"[""0.146"",""0.411"",""0.513"",""0.654""]","[1,1,1,0]",0,51,51,51,1,1,1,,,1,FALSE,,,,,,,,,,,,,,,,,,,,,,,,,,,,,,,
,5b8c8e7d0c740e00019d55c3,627c6f5c70ae6af1c85fa307,2022-05-11_21h24.55.244,classification_task,2021.2.3,Win32,60.02040694,627c6715c52fd12f31907bcf,,,,,,,,,,,,,,,,,,,,,,,l,0,2.1187,"[""0.196"",""0.447"",""0.937"",""0.231""]","[1,1,1,0]",0,52,52,52,1,0,0,,,1,FALSE,,,,,,,,,,,,,,,,,,,,,,,,,,,,,,,
,5b8c8e7d0c740e00019d55c3,627c6f5c70ae6af1c85fa307,2022-05-11_21h24.55.244,classification_task,2021.2.3,Win32,60.02040694,627c6715c52fd12f31907bcf,,,,,,,,,,,,,,,,,,,,,,,a,0,1.4515,"[""0.240"",""0.362"",""0.583"",""0.816""]","[0,1,1,1]",0,53,53,53,1,1,0,,,1,FALSE,,,,,,,,,,,,,,,,,,,,,,,,,,,,,,,
,5b8c8e7d0c740e00019d55c3,627c6f5c70ae6af1c85fa307,2022-05-11_21h24.55.244,classification_task,2021.2.3,Win32,60.02040694,627c6715c52fd12f31907bcf,,,,,,,,,,,,,,,,,,,,,,,l,1,1.1012,"[""0.064"",""0.362"",""0.583"",""0.731""]","[1,1,1,0]",0,54,54,54,1,1,0,,,1,FALSE,,,,,,,,,,,,,,,,,,,,,,,,,,,,,,,
,5b8c8e7d0c740e00019d55c3,627c6f5c70ae6af1c85fa307,2022-05-11_21h24.55.244,classification_task,2021.2.3,Win32,60.02040694,627c6715c52fd12f31907bcf,,,,,,,,,,,,,,,,,,,,,,,l,1,1.2869,"[""0.064"",""0.362"",""0.104"",""0.816""]","[1,1,0,1]",0,55,55,55,1,1,0,,,1,FALSE,,,,,,,,,,,,,,,,,,,,,,,,,,,,,,,
,5b8c8e7d0c740e00019d55c3,627c6f5c70ae6af1c85fa307,2022-05-11_21h24.55.244,classification_task,2021.2.3,Win32,60.02040694,627c6715c52fd12f31907bcf,,,,,,,,,,,,,,,,,,,,,,,a,1,2.9669,"[""0.654"",""0.547"",""0.696"",""0.872""]","[0,1,1,1]",0,56,56,56,1,0,1,,,1,FALSE,,,,,,,,,,,,,,,,,,,,,,,,,,,,,,,
,5b8c8e7d0c740e00019d55c3,627c6f5c70ae6af1c85fa307,2022-05-11_21h24.55.244,classification_task,2021.2.3,Win32,60.02040694,627c6715c52fd12f31907bcf,,,,,,,,,,,,,,,,,,,,,,,a,0,1.1329,"[""0.146"",""0.411"",""0.233"",""0.780""]","[1,1,0,1]",0,57,57,57,1,1,1,,,1,FALSE,,,,,,,,,,,,,,,,,,,,,,,,,,,,,,,
,5b8c8e7d0c740e00019d55c3,627c6f5c70ae6af1c85fa307,2022-05-11_21h24.55.244,classification_task,2021.2.3,Win32,60.02040694,627c6715c52fd12f31907bcf,,,,,,,,,,,,,,,,,,,,,,,l,1,1.1647,"[""0.064"",""0.731"",""0.583"",""0.816""]","[1,0,1,1]",0,58,58,58,1,1,0,,,1,FALSE,,,,,,,,,,,,,,,,,,,,,,,,,,,,,,,
,5b8c8e7d0c740e00019d55c3,627c6f5c70ae6af1c85fa307,2022-05-11_21h24.55.244,classification_task,2021.2.3,Win32,60.02040694,627c6715c52fd12f31907bcf,,,,,,,,,,,,,,,,,,,,,,,a,1,1.5812,"[""0.731"",""0.447"",""0.937"",""0.973""]","[0,1,1,1]",0,59,59,59,1,0,0,,,1,FALSE,,,,,,,,,,,,,,,,,,,,,,,,,,,,,,,
,5b8c8e7d0c740e00019d55c3,627c6f5c70ae6af1c85fa307,2022-05-11_21h24.55.244,classification_task,2021.2.3,Win32,60.02040694,627c6715c52fd12f31907bcf,,,,,,,,,,,,,,,,,,,,,,,a,1,0.9584,"[""0.196"",""0.447"",""0.743"",""0.973""]","[1,1,0,1]",0,60,60,60,1,0,0,,,1,FALSE,,,,,,,,,,,,,,,,,,,,,,,,,,,,,,,
,5b8c8e7d0c740e00019d55c3,627c6f5c70ae6af1c85fa307,2022-05-11_21h24.55.244,classification_task,2021.2.3,Win32,60.02040694,627c6715c52fd12f31907bcf,,,,,,,,,,,,,,,,,,,,,,,a,1,1.6825,"[""0.196"",""0.654"",""0.937"",""0.973""]","[1,0,1,1]",0,61,61,61,1,0,0,,,1,FALSE,,,,,,,,,,,,,,,,,,,,,,,,,,,,,,,
,5b8c8e7d0c740e00019d55c3,627c6f5c70ae6af1c85fa307,2022-05-11_21h24.55.244,classification_task,2021.2.3,Win32,60.02040694,627c6715c52fd12f31907bcf,,,,,,,,,,,,,,,,,,,,,,,l,0,2.5387,"[""0.297"",""0.547"",""0.696"",""0.744""]","[1,1,1,0]",0,62,62,62,1,0,1,,,1,FALSE,,,,,,,,,,,,,,,,,,,,,,,,,,,,,,,
,5b8c8e7d0c740e00019d55c3,627c6f5c70ae6af1c85fa307,2022-05-11_21h24.55.244,classification_task,2021.2.3,Win32,60.02040694,627c6715c52fd12f31907bcf,,,,,,,,,,,,,,,,,,,,,,,a,1,0.8532,"[""0.297"",""0.623"",""0.696"",""0.872""]","[1,0,1,1]",0,63,63,63,1,0,1,,,1,FALSE,,,,,,,,,,,,,,,,,,,,,,,,,,,,,,,
,5b8c8e7d0c740e00019d55c3,627c6f5c70ae6af1c85fa307,2022-05-11_21h24.55.244,classification_task,2021.2.3,Win32,60.02040694,627c6715c52fd12f31907bcf,,,,,,,,,,,,,,,,,,,,,,,,,,,,,,,,,,,,,,,0, ,,0,8.90089238,748.3816,0,0,0,0,1,2,1,,,,,,,,,,,,,,,,,,
,5b8c8e7d0c740e00019d55c3,627c6f5c70ae6af1c85fa307,2022-05-11_21h24.55.244,classification_task,2021.2.3,Win32,60.02040694,627c6715c52fd12f31907bcf,,,,,,,,,,,,,,,,,,,,,,,,,,,,,,,,,,,,,,,1,  ,,0,9.48878223,743.9437,0,0,0,0,1,2,1,,,,,,,,,,,,,,,,,,
,5b8c8e7d0c740e00019d55c3,627c6f5c70ae6af1c85fa307,2022-05-11_21h24.55.244,classification_task,2021.2.3,Win32,60.02040694,627c6715c52fd12f31907bcf,,,,,,,,,,,,,,,,,,,,,,,,,,,,,,,,,,,,,,,2,  ,,0,5.22658315,759.0597,0,0,0,0,1,2,1,,,,,,,,,,,,,,,,,,
,5b8c8e7d0c740e00019d55c3,627c6f5c70ae6af1c85fa307,2022-05-11_21h24.55.244,classification_task,2021.2.3,Win32,60.02040694,627c6715c52fd12f31907bcf,,,,,,,,,,,,,,,,,,,,,,,,,,,,,,,,,,,,,,,,,,,,,0,0,0,0,1,,1,,,,,,,,,,,,,,,,,,
,5b8c8e7d0c740e00019d55c3,627c6f5c70ae6af1c85fa307,2022-05-11_21h24.55.244,classification_task,2021.2.3,Win32,60.02040694,627c6715c52fd12f31907bcf,,,,,,,,,,,,,,,,,,,,,space,16.6391,l,0,3.7597,"[""0.297"",""0.547"",""0.696"",""0.731""]","[1,1,1,0]",0,0,0,0,1,0,1,,,1,FALSE,,,,,,,,,,,,,,,,,,,,,,,,,,,,,,,
,5b8c8e7d0c740e00019d55c3,627c6f5c70ae6af1c85fa307,2022-05-11_21h24.55.244,classification_task,2021.2.3,Win32,60.02040694,627c6715c52fd12f31907bcf,,,,,,,,,,,,,,,,,,,,,,,l,1,1.2157,"[""0.064"",""0.233"",""0.583"",""0.816""]","[1,0,1,1]",0,1,1,1,1,1,0,,,1,FALSE,,,,,,,,,,,,,,,,,,,,,,,,,,,,,,,
,5b8c8e7d0c740e00019d55c3,627c6f5c70ae6af1c85fa307,2022-05-11_21h24.55.244,classification_task,2021.2.3,Win32,60.02040694,627c6715c52fd12f31907bcf,,,,,,,,,,,,,,,,,,,,,,,l,0,5.2135,"[""0.242"",""0.547"",""0.696"",""0.872""]","[0,1,1,1]",0,2,2,2,1,0,1,,,1,FALSE,,,,,,,,,,,,,,,,,,,,,,,,,,,,,,,
,5b8c8e7d0c740e00019d55c3,627c6f5c70ae6af1c85fa307,2022-05-11_21h24.55.244,classification_task,2021.2.3,Win32,60.02040694,627c6715c52fd12f31907bcf,,,,,,,,,,,,,,,,,,,,,,,l,1,3.3478,"[""0.231"",""0.362"",""0.583"",""0.816""]","[0,1,1,1]",0,3,3,3,1,1,0,,,1,FALSE,,,,,,,,,,,,,,,,,,,,,,,,,,,,,,,
,5b8c8e7d0c740e00019d55c3,627c6f5c70ae6af1c85fa307,2022-05-11_21h24.55.244,classification_task,2021.2.3,Win32,60.02040694,627c6715c52fd12f31907bcf,,,,,,,,,,,,,,,,,,,,,,,a,1,3.6971,"[""0.297"",""0.547"",""0.233"",""0.872""]","[1,1,0,1]",0,4,4,4,1,0,1,,,1,FALSE,,,,,,,,,,,,,,,,,,,,,,,,,,,,,,,
,5b8c8e7d0c740e00019d55c3,627c6f5c70ae6af1c85fa307,2022-05-11_21h24.55.244,classification_task,2021.2.3,Win32,60.02040694,627c6715c52fd12f31907bcf,,,,,,,,,,,,,,,,,,,,,,,l,1,1.0387,"[""0.064"",""0.362"",""0.744"",""0.816""]","[1,1,0,1]",0,5,5,5,1,1,0,,,1,FALSE,,,,,,,,,,,,,,,,,,,,,,,,,,,,,,,
,5b8c8e7d0c740e00019d55c3,627c6f5c70ae6af1c85fa307,2022-05-11_21h24.55.244,classification_task,2021.2.3,Win32,60.02040694,627c6715c52fd12f31907bcf,,,,,,,,,,,,,,,,,,,,,,,a,1,1.3659,"[""0.743"",""0.447"",""0.937"",""0.973""]","[0,1,1,1]",0,6,6,6,1,0,0,,,1,FALSE,,,,,,,,,,,,,,,,,,,,,,,,,,,,,,,
,5b8c8e7d0c740e00019d55c3,627c6f5c70ae6af1c85fa307,2022-05-11_21h24.55.244,classification_task,2021.2.3,Win32,60.02040694,627c6715c52fd12f31907bcf,,,,,,,,,,,,,,,,,,,,,,,a,1,1.5598,"[""0.196"",""0.112"",""0.937"",""0.973""]","[1,0,1,1]",0,7,7,7,1,0,0,,,1,FALSE,,,,,,,,,,,,,,,,,,,,,,,,,,,,,,,
,5b8c8e7d0c740e00019d55c3,627c6f5c70ae6af1c85fa307,2022-05-11_21h24.55.244,classification_task,2021.2.3,Win32,60.02040694,627c6715c52fd12f31907bcf,,,,,,,,,,,,,,,,,,,,,,,a,1,1.7476,"[""0.196"",""0.447"",""0.937"",""0.744""]","[1,1,1,0]",0,8,8,8,1,0,0,,,1,FALSE,,,,,,,,,,,,,,,,,,,,,,,,,,,,,,,
,5b8c8e7d0c740e00019d55c3,627c6f5c70ae6af1c85fa307,2022-05-11_21h24.55.244,classification_task,2021.2.3,Win32,60.02040694,627c6715c52fd12f31907bcf,,,,,,,,,,,,,,,,,,,,,,,l,1,2.1956,"[""0.146"",""0.411"",""0.513"",""0.231""]","[1,1,1,0]",0,9,9,9,1,1,1,,,1,FALSE,,,,,,,,,,,,,,,,,,,,,,,,,,,,,,,
,5b8c8e7d0c740e00019d55c3,627c6f5c70ae6af1c85fa307,2022-05-11_21h24.55.244,classification_task,2021.2.3,Win32,60.02040694,627c6715c52fd12f31907bcf,,,,,,,,,,,,,,,,,,,,,,,a,1,2.0714,"[""0.297"",""0.231"",""0.696"",""0.872""]","[1,0,1,1]",0,10,10,10,1,0,1,,,1,FALSE,,,,,,,,,,,,,,,,,,,,,,,,,,,,,,,
,5b8c8e7d0c740e00019d55c3,627c6f5c70ae6af1c85fa307,2022-05-11_21h24.55.244,classification_task,2021.2.3,Win32,60.02040694,627c6715c52fd12f31907bcf,,,,,,,,,,,,,,,,,,,,,,,l,1,1.8281,"[""0.146"",""0.411"",""0.731"",""0.780""]","[1,1,0,1]",0,11,11,11,1,1,1,,,1,FALSE,,,,,,,,,,,,,,,,,,,,,,,,,,,,,,,
,5b8c8e7d0c740e00019d55c3,627c6f5c70ae6af1c85fa307,2022-05-11_21h24.55.244,classification_task,2021.2.3,Win32,60.02040694,627c6715c52fd12f31907bcf,,,,,,,,,,,,,,,,,,,,,,,l,1,0.974,"[""0.146"",""0.233"",""0.513"",""0.780""]","[1,0,1,1]",0,12,12,12,1,1,1,,,1,FALSE,,,,,,,,,,,,,,,,,,,,,,,,,,,,,,,
,5b8c8e7d0c740e00019d55c3,627c6f5c70ae6af1c85fa307,2022-05-11_21h24.55.244,classification_task,2021.2.3,Win32,60.02040694,627c6715c52fd12f31907bcf,,,,,,,,,,,,,,,,,,,,,,,l,1,1.0321,"[""0.064"",""0.362"",""0.583"",""0.254""]","[1,1,1,0]",0,13,13,13,1,1,0,,,1,FALSE,,,,,,,,,,,,,,,,,,,,,,,,,,,,,,,
,5b8c8e7d0c740e00019d55c3,627c6f5c70ae6af1c85fa307,2022-05-11_21h24.55.244,classification_task,2021.2.3,Win32,60.02040694,627c6715c52fd12f31907bcf,,,,,,,,,,,,,,,,,,,,,,,a,1,1.0864,"[""0.196"",""0.447"",""0.731"",""0.973""]","[1,1,0,1]",0,14,14,14,1,0,0,,,1,FALSE,,,,,,,,,,,,,,,,,,,,,,,,,,,,,,,
,5b8c8e7d0c740e00019d55c3,627c6f5c70ae6af1c85fa307,2022-05-11_21h24.55.244,classification_task,2021.2.3,Win32,60.02040694,627c6715c52fd12f31907bcf,,,,,,,,,,,,,,,,,,,,,,,l,1,1.3486,"[""0.654"",""0.411"",""0.513"",""0.780""]","[0,1,1,1]",0,15,15,15,1,1,1,,,1,FALSE,,,,,,,,,,,,,,,,,,,,,,,,,,,,,,,
,5b8c8e7d0c740e00019d55c3,627c6f5c70ae6af1c85fa307,2022-05-11_21h24.55.244,classification_task,2021.2.3,Win32,60.02040694,627c6715c52fd12f31907bcf,,,,,,,,,,,,,,,,,,,,,,,a,1,1.2849,"[""0.196"",""0.447"",""0.231"",""0.973""]","[1,1,0,1]",0,16,16,16,1,0,0,,,1,FALSE,,,,,,,,,,,,,,,,,,,,,,,,,,,,,,,
,5b8c8e7d0c740e00019d55c3,627c6f5c70ae6af1c85fa307,2022-05-11_21h24.55.244,classification_task,2021.2.3,Win32,60.02040694,627c6715c52fd12f31907bcf,,,,,,,,,,,,,,,,,,,,,,,l,1,1.4491,"[""0.146"",""0.411"",""0.112"",""0.780""]","[1,1,0,1]",0,17,17,17,1,1,1,,,1,FALSE,,,,,,,,,,,,,,,,,,,,,,,,,,,,,,,
,5b8c8e7d0c740e00019d55c3,627c6f5c70ae6af1c85fa307,2022-05-11_21h24.55.244,classification_task,2021.2.3,Win32,60.02040694,627c6715c52fd12f31907bcf,,,,,,,,,,,,,,,,,,,,,,,l,1,1,"[""0.064"",""0.362"",""0.240"",""0.816""]","[1,1,0,1]",0,18,18,18,1,1,0,,,1,FALSE,,,,,,,,,,,,,,,,,,,,,,,,,,,,,,,
,5b8c8e7d0c740e00019d55c3,627c6f5c70ae6af1c85fa307,2022-05-11_21h24.55.244,classification_task,2021.2.3,Win32,60.02040694,627c6715c52fd12f31907bcf,,,,,,,,,,,,,,,,,,,,,,,a,1,2.3842,"[""0.297"",""0.108"",""0.696"",""0.872""]","[1,0,1,1]",0,19,19,19,1,0,1,,,1,FALSE,,,,,,,,,,,,,,,,,,,,,,,,,,,,,,,
,5b8c8e7d0c740e00019d55c3,627c6f5c70ae6af1c85fa307,2022-05-11_21h24.55.244,classification_task,2021.2.3,Win32,60.02040694,627c6715c52fd12f31907bcf,,,,,,,,,,,,,,,,,,,,,,,a,0,1.959,"[""0.623"",""0.362"",""0.583"",""0.816""]","[0,1,1,1]",0,20,20,20,1,1,0,,,1,FALSE,,,,,,,,,,,,,,,,,,,,,,,,,,,,,,,
,5b8c8e7d0c740e00019d55c3,627c6f5c70ae6af1c85fa307,2022-05-11_21h24.55.244,classification_task,2021.2.3,Win32,60.02040694,627c6715c52fd12f31907bcf,,,,,,,,,,,,,,,,,,,,,,,a,1,1.5989,"[""0.297"",""0.547"",""0.242"",""0.872""]","[1,1,0,1]",0,21,21,21,1,0,1,,,1,FALSE,,,,,,,,,,,,,,,,,,,,,,,,,,,,,,,
,5b8c8e7d0c740e00019d55c3,627c6f5c70ae6af1c85fa307,2022-05-11_21h24.55.244,classification_task,2021.2.3,Win32,60.02040694,627c6715c52fd12f31907bcf,,,,,,,,,,,,,,,,,,,,,,,l,1,1.3826,"[""0.064"",""0.242"",""0.583"",""0.816""]","[1,0,1,1]",0,22,22,22,1,1,0,,,1,FALSE,,,,,,,,,,,,,,,,,,,,,,,,,,,,,,,
,5b8c8e7d0c740e00019d55c3,627c6f5c70ae6af1c85fa307,2022-05-11_21h24.55.244,classification_task,2021.2.3,Win32,60.02040694,627c6715c52fd12f31907bcf,,,,,,,,,,,,,,,,,,,,,,,a,1,0.9116,"[""0.297"",""0.547"",""0.696"",""0.233""]","[1,1,1,0]",0,23,23,23,1,0,1,,,1,FALSE,,,,,,,,,,,,,,,,,,,,,,,,,,,,,,,
,5b8c8e7d0c740e00019d55c3,627c6f5c70ae6af1c85fa307,2022-05-11_21h24.55.244,classification_task,2021.2.3,Win32,60.02040694,627c6715c52fd12f31907bcf,,,,,,,,,,,,,,,,,,,,,,,l,1,1.4416,"[""0.064"",""0.362"",""0.583"",""0.254""]","[1,1,1,0]",0,24,24,24,1,1,0,,,1,FALSE,,,,,,,,,,,,,,,,,,,,,,,,,,,,,,,
,5b8c8e7d0c740e00019d55c3,627c6f5c70ae6af1c85fa307,2022-05-11_21h24.55.244,classification_task,2021.2.3,Win32,60.02040694,627c6715c52fd12f31907bcf,,,,,,,,,,,,,,,,,,,,,,,a,1,1.5252,"[""0.108"",""0.447"",""0.937"",""0.973""]","[0,1,1,1]",0,25,25,25,1,0,0,,,1,FALSE,,,,,,,,,,,,,,,,,,,,,,,,,,,,,,,
,5b8c8e7d0c740e00019d55c3,627c6f5c70ae6af1c85fa307,2022-05-11_21h24.55.244,classification_task,2021.2.3,Win32,60.02040694,627c6715c52fd12f31907bcf,,,,,,,,,,,,,,,,,,,,,,,a,0,3.7422,"[""0.108"",""0.411"",""0.513"",""0.780""]","[0,1,1,1]",0,26,26,26,1,1,1,,,1,FALSE,,,,,,,,,,,,,,,,,,,,,,,,,,,,,,,
,5b8c8e7d0c740e00019d55c3,627c6f5c70ae6af1c85fa307,2022-05-11_21h24.55.244,classification_task,2021.2.3,Win32,60.02040694,627c6715c52fd12f31907bcf,,,,,,,,,,,,,,,,,,,,,,,a,1,1.3015,"[""0.196"",""0.447"",""0.937"",""0.619""]","[1,1,1,0]",0,27,27,27,1,0,0,,,1,FALSE,,,,,,,,,,,,,,,,,,,,,,,,,,,,,,,
,5b8c8e7d0c740e00019d55c3,627c6f5c70ae6af1c85fa307,2022-05-11_21h24.55.244,classification_task,2021.2.3,Win32,60.02040694,627c6715c52fd12f31907bcf,,,,,,,,,,,,,,,,,,,,,,,l,1,2.7685,"[""0.146"",""0.254"",""0.513"",""0.780""]","[1,0,1,1]",0,28,28,28,1,1,1,,,1,FALSE,,,,,,,,,,,,,,,,,,,,,,,,,,,,,,,
,5b8c8e7d0c740e00019d55c3,627c6f5c70ae6af1c85fa307,2022-05-11_21h24.55.244,classification_task,2021.2.3,Win32,60.02040694,627c6715c52fd12f31907bcf,,,,,,,,,,,,,,,,,,,,,,,l,0,2.0893,"[""0.196"",""0.744"",""0.937"",""0.973""]","[1,0,1,1]",0,29,29,29,1,0,0,,,1,FALSE,,,,,,,,,,,,,,,,,,,,,,,,,,,,,,,
,5b8c8e7d0c740e00019d55c3,627c6f5c70ae6af1c85fa307,2022-05-11_21h24.55.244,classification_task,2021.2.3,Win32,60.02040694,627c6715c52fd12f31907bcf,,,,,,,,,,,,,,,,,,,,,,,l,1,2.3645,"[""0.146"",""0.411"",""0.513"",""0.233""]","[1,1,1,0]",0,30,30,30,1,1,1,,,1,FALSE,,,,,,,,,,,,,,,,,,,,,,,,,,,,,,,
,5b8c8e7d0c740e00019d55c3,627c6f5c70ae6af1c85fa307,2022-05-11_21h24.55.244,classification_task,2021.2.3,Win32,60.02040694,627c6715c52fd12f31907bcf,,,,,,,,,,,,,,,,,,,,,,,l,0,2.2456,"[""0.242"",""0.547"",""0.696"",""0.872""]","[0,1,1,1]",0,31,31,31,1,0,1,,,1,FALSE,,,,,,,,,,,,,,,,,,,,,,,,,,,,,,,
,5b8c8e7d0c740e00019d55c3,627c6f5c70ae6af1c85fa307,2022-05-11_21h24.55.244,classification_task,2021.2.3,Win32,60.02040694,627c6715c52fd12f31907bcf,,,,,,,,,,,,,,,,,,,,,,,a,1,2.9586,"[""0.297"",""0.547"",""0.696"",""0.654""]","[1,1,1,0]",0,32,32,32,1,0,1,,,1,FALSE,,,,,,,,,,,,,,,,,,,,,,,,,,,,,,,
,5b8c8e7d0c740e00019d55c3,627c6f5c70ae6af1c85fa307,2022-05-11_21h24.55.244,classification_task,2021.2.3,Win32,60.02040694,627c6715c52fd12f31907bcf,,,,,,,,,,,,,,,,,,,,,,,l,0,1.1101,"[""0.196"",""0.029"",""0.937"",""0.973""]","[1,0,1,1]",0,33,33,33,1,0,0,,,1,FALSE,,,,,,,,,,,,,,,,,,,,,,,,,,,,,,,
,5b8c8e7d0c740e00019d55c3,627c6f5c70ae6af1c85fa307,2022-05-11_21h24.55.244,classification_task,2021.2.3,Win32,60.02040694,627c6715c52fd12f31907bcf,,,,,,,,,,,,,,,,,,,,,,,a,1,1.8657,"[""0.297"",""0.104"",""0.696"",""0.872""]","[1,0,1,1]",0,34,34,34,1,0,1,,,1,FALSE,,,,,,,,,,,,,,,,,,,,,,,,,,,,,,,
,5b8c8e7d0c740e00019d55c3,627c6f5c70ae6af1c85fa307,2022-05-11_21h24.55.244,classification_task,2021.2.3,Win32,60.02040694,627c6715c52fd12f31907bcf,,,,,,,,,,,,,,,,,,,,,,,l,0,1.97,"[""0.196"",""0.447"",""0.108"",""0.973""]","[1,1,0,1]",0,35,35,35,1,0,0,,,1,FALSE,,,,,,,,,,,,,,,,,,,,,,,,,,,,,,,
,5b8c8e7d0c740e00019d55c3,627c6f5c70ae6af1c85fa307,2022-05-11_21h24.55.244,classification_task,2021.2.3,Win32,60.02040694,627c6715c52fd12f31907bcf,,,,,,,,,,,,,,,,,,,,,,,a,1,0.9452,"[""0.196"",""0.447"",""0.937"",""0.233""]","[1,1,1,0]",0,36,36,36,1,0,0,,,1,FALSE,,,,,,,,,,,,,,,,,,,,,,,,,,,,,,,
,5b8c8e7d0c740e00019d55c3,627c6f5c70ae6af1c85fa307,2022-05-11_21h24.55.244,classification_task,2021.2.3,Win32,60.02040694,627c6715c52fd12f31907bcf,,,,,,,,,,,,,,,,,,,,,,,l,1,2.0249,"[""0.146"",""0.108"",""0.513"",""0.780""]","[1,0,1,1]",0,37,37,37,1,1,1,,,1,FALSE,,,,,,,,,,,,,,,,,,,,,,,,,,,,,,,
,5b8c8e7d0c740e00019d55c3,627c6f5c70ae6af1c85fa307,2022-05-11_21h24.55.244,classification_task,2021.2.3,Win32,60.02040694,627c6715c52fd12f31907bcf,,,,,,,,,,,,,,,,,,,,,,,l,1,1.8693,"[""0.240"",""0.411"",""0.513"",""0.780""]","[0,1,1,1]",0,38,38,38,1,1,1,,,1,FALSE,,,,,,,,,,,,,,,,,,,,,,,,,,,,,,,
,5b8c8e7d0c740e00019d55c3,627c6f5c70ae6af1c85fa307,2022-05-11_21h24.55.244,classification_task,2021.2.3,Win32,60.02040694,627c6715c52fd12f31907bcf,,,,,,,,,,,,,,,,,,,,,,,l,1,1.7913,"[""0.064"",""0.108"",""0.583"",""0.816""]","[1,0,1,1]",0,39,39,39,1,1,0,,,1,FALSE,,,,,,,,,,,,,,,,,,,,,,,,,,,,,,,
,5b8c8e7d0c740e00019d55c3,627c6f5c70ae6af1c85fa307,2022-05-11_21h24.55.244,classification_task,2021.2.3,Win32,60.02040694,627c6715c52fd12f31907bcf,,,,,,,,,,,,,,,,,,,,,,,l,1,1.9097,"[""0.146"",""0.411"",""0.513"",""0.240""]","[1,1,1,0]",0,40,40,40,1,1,1,,,1,FALSE,,,,,,,,,,,,,,,,,,,,,,,,,,,,,,,
,5b8c8e7d0c740e00019d55c3,627c6f5c70ae6af1c85fa307,2022-05-11_21h24.55.244,classification_task,2021.2.3,Win32,60.02040694,627c6715c52fd12f31907bcf,,,,,,,,,,,,,,,,,,,,,,,l,0,2.7753,"[""0.297"",""0.547"",""0.743"",""0.872""]","[1,1,0,1]",0,41,41,41,1,0,1,,,1,FALSE,,,,,,,,,,,,,,,,,,,,,,,,,,,,,,,
,5b8c8e7d0c740e00019d55c3,627c6f5c70ae6af1c85fa307,2022-05-11_21h24.55.244,classification_task,2021.2.3,Win32,60.02040694,627c6715c52fd12f31907bcf,,,,,,,,,,,,,,,,,,,,,,,l,1,1.6938,"[""0.064"",""0.362"",""0.104"",""0.816""]","[1,1,0,1]",0,42,42,42,1,1,0,,,1,FALSE,,,,,,,,,,,,,,,,,,,,,,,,,,,,,,,
,5b8c8e7d0c740e00019d55c3,627c6f5c70ae6af1c85fa307,2022-05-11_21h24.55.244,classification_task,2021.2.3,Win32,60.02040694,627c6715c52fd12f31907bcf,,,,,,,,,,,,,,,,,,,,,,,l,1,1.7345,"[""0.064"",""0.362"",""0.583"",""0.104""]","[1,1,1,0]",0,43,43,43,1,1,0,,,1,FALSE,,,,,,,,,,,,,,,,,,,,,,,,,,,,,,,
,5b8c8e7d0c740e00019d55c3,627c6f5c70ae6af1c85fa307,2022-05-11_21h24.55.244,classification_task,2021.2.3,Win32,60.02040694,627c6715c52fd12f31907bcf,,,,,,,,,,,,,,,,,,,,,,,a,0,2.7152,"[""0.146"",""0.411"",""0.254"",""0.780""]","[1,1,0,1]",0,44,44,44,1,1,1,,,1,FALSE,,,,,,,,,,,,,,,,,,,,,,,,,,,,,,,
,5b8c8e7d0c740e00019d55c3,627c6f5c70ae6af1c85fa307,2022-05-11_21h24.55.244,classification_task,2021.2.3,Win32,60.02040694,627c6715c52fd12f31907bcf,,,,,,,,,,,,,,,,,,,,,,,l,1,0.0006,"[""0.112"",""0.362"",""0.583"",""0.816""]","[0,1,1,1]",0,45,45,45,1,1,0,,,1,FALSE,,,,,,,,,,,,,,,,,,,,,,,,,,,,,,,
,5b8c8e7d0c740e00019d55c3,627c6f5c70ae6af1c85fa307,2022-05-11_21h24.55.244,classification_task,2021.2.3,Win32,60.02040694,627c6715c52fd12f31907bcf,,,,,,,,,,,,,,,,,,,,,,,a,1,1.8997,"[""0.029"",""0.447"",""0.937"",""0.973""]","[0,1,1,1]",0,46,46,46,1,0,0,,,1,FALSE,,,,,,,,,,,,,,,,,,,,,,,,,,,,,,,
,5b8c8e7d0c740e00019d55c3,627c6f5c70ae6af1c85fa307,2022-05-11_21h24.55.244,classification_task,2021.2.3,Win32,60.02040694,627c6715c52fd12f31907bcf,,,,,,,,,,,,,,,,,,,,,,,a,1,1.8538,"[""0.254"",""0.547"",""0.696"",""0.872""]","[0,1,1,1]",0,47,47,47,1,0,1,,,1,FALSE,,,,,,,,,,,,,,,,,,,,,,,,,,,,,,,
,5b8c8e7d0c740e00019d55c3,627c6f5c70ae6af1c85fa307,2022-05-11_21h24.55.244,classification_task,2021.2.3,Win32,60.02040694,627c6715c52fd12f31907bcf,,,,,,,,,,,,,,,,,,,,,,,l,1,2.0048,"[""0.146"",""0.411"",""0.513"",""0.231""]","[1,1,1,0]",0,48,48,48,1,1,1,,,1,FALSE,,,,,,,,,,,,,,,,,,,,,,,,,,,,,,,
,5b8c8e7d0c740e00019d55c3,627c6f5c70ae6af1c85fa307,2022-05-11_21h24.55.244,classification_task,2021.2.3,Win32,60.02040694,627c6715c52fd12f31907bcf,,,,,,,,,,,,,,,,,,,,,,,l,1,2.4769,"[""0.146"",""0.411"",""0.654"",""0.780""]","[1,1,0,1]",0,49,49,49,1,1,1,,,1,FALSE,,,,,,,,,,,,,,,,,,,,,,,,,,,,,,,
,5b8c8e7d0c740e00019d55c3,627c6f5c70ae6af1c85fa307,2022-05-11_21h24.55.244,classification_task,2021.2.3,Win32,60.02040694,627c6715c52fd12f31907bcf,,,,,,,,,,,,,,,,,,,,,,,l,0,1.7719,"[""0.196"",""0.254"",""0.937"",""0.973""]","[1,0,1,1]",0,50,50,50,1,0,0,,,1,FALSE,,,,,,,,,,,,,,,,,,,,,,,,,,,,,,,
,5b8c8e7d0c740e00019d55c3,627c6f5c70ae6af1c85fa307,2022-05-11_21h24.55.244,classification_task,2021.2.3,Win32,60.02040694,627c6715c52fd12f31907bcf,,,,,,,,,,,,,,,,,,,,,,,l,1,2.2318,"[""0.242"",""0.411"",""0.513"",""0.780""]","[0,1,1,1]",0,51,51,51,1,1,1,,,1,FALSE,,,,,,,,,,,,,,,,,,,,,,,,,,,,,,,
,5b8c8e7d0c740e00019d55c3,627c6f5c70ae6af1c85fa307,2022-05-11_21h24.55.244,classification_task,2021.2.3,Win32,60.02040694,627c6715c52fd12f31907bcf,,,,,,,,,,,,,,,,,,,,,,,a,1,2.0414,"[""0.297"",""0.240"",""0.696"",""0.872""]","[1,0,1,1]",0,52,52,52,1,0,1,,,1,FALSE,,,,,,,,,,,,,,,,,,,,,,,,,,,,,,,
,5b8c8e7d0c740e00019d55c3,627c6f5c70ae6af1c85fa307,2022-05-11_21h24.55.244,classification_task,2021.2.3,Win32,60.02040694,627c6715c52fd12f31907bcf,,,,,,,,,,,,,,,,,,,,,,,a,0,3.3318,"[""0.619"",""0.362"",""0.583"",""0.816""]","[0,1,1,1]",0,53,53,53,1,1,0,,,1,FALSE,,,,,,,,,,,,,,,,,,,,,,,,,,,,,,,
,5b8c8e7d0c740e00019d55c3,627c6f5c70ae6af1c85fa307,2022-05-11_21h24.55.244,classification_task,2021.2.3,Win32,60.02040694,627c6715c52fd12f31907bcf,,,,,,,,,,,,,,,,,,,,,,,a,1,1.2119,"[""0.196"",""0.447"",""0.937"",""0.240""]","[1,1,1,0]",0,54,54,54,1,0,0,,,1,FALSE,,,,,,,,,,,,,,,,,,,,,,,,,,,,,,,
,5b8c8e7d0c740e00019d55c3,627c6f5c70ae6af1c85fa307,2022-05-11_21h24.55.244,classification_task,2021.2.3,Win32,60.02040694,627c6715c52fd12f31907bcf,,,,,,,,,,,,,,,,,,,,,,,a,1,0.7238,"[""0.744"",""0.447"",""0.937"",""0.973""]","[0,1,1,1]",0,55,55,55,1,0,0,,,1,FALSE,,,,,,,,,,,,,,,,,,,,,,,,,,,,,,,
,5b8c8e7d0c740e00019d55c3,627c6f5c70ae6af1c85fa307,2022-05-11_21h24.55.244,classification_task,2021.2.3,Win32,60.02040694,627c6715c52fd12f31907bcf,,,,,,,,,,,,,,,,,,,,,,,a,1,1.6663,"[""0.297"",""0.547"",""0.104"",""0.872""]","[1,1,0,1]",0,56,56,56,1,0,1,,,1,FALSE,,,,,,,,,,,,,,,,,,,,,,,,,,,,,,,
,5b8c8e7d0c740e00019d55c3,627c6f5c70ae6af1c85fa307,2022-05-11_21h24.55.244,classification_task,2021.2.3,Win32,60.02040694,627c6715c52fd12f31907bcf,,,,,,,,,,,,,,,,,,,,,,,a,1,1.2912,"[""0.196"",""0.447"",""0.231"",""0.973""]","[1,1,0,1]",0,57,57,57,1,0,0,,,1,FALSE,,,,,,,,,,,,,,,,,,,,,,,,,,,,,,,
,5b8c8e7d0c740e00019d55c3,627c6f5c70ae6af1c85fa307,2022-05-11_21h24.55.244,classification_task,2021.2.3,Win32,60.02040694,627c6715c52fd12f31907bcf,,,,,,,,,,,,,,,,,,,,,,,l,0,1.0326,"[""0.233"",""0.547"",""0.696"",""0.872""]","[0,1,1,1]",0,58,58,58,1,0,1,,,1,FALSE,,,,,,,,,,,,,,,,,,,,,,,,,,,,,,,
,5b8c8e7d0c740e00019d55c3,627c6f5c70ae6af1c85fa307,2022-05-11_21h24.55.244,classification_task,2021.2.3,Win32,60.02040694,627c6715c52fd12f31907bcf,,,,,,,,,,,,,,,,,,,,,,,l,1,1.1323,"[""0.064"",""0.112"",""0.583"",""0.816""]","[1,0,1,1]",0,59,59,59,1,1,0,,,1,FALSE,,,,,,,,,,,,,,,,,,,,,,,,,,,,,,,
,5b8c8e7d0c740e00019d55c3,627c6f5c70ae6af1c85fa307,2022-05-11_21h24.55.244,classification_task,2021.2.3,Win32,60.02040694,627c6715c52fd12f31907bcf,,,,,,,,,,,,,,,,,,,,,,,l,1,1.3983,"[""0.064"",""0.362"",""0.254"",""0.816""]","[1,1,0,1]",0,60,60,60,1,1,0,,,1,FALSE,,,,,,,,,,,,,,,,,,,,,,,,,,,,,,,
,5b8c8e7d0c740e00019d55c3,627c6f5c70ae6af1c85fa307,2022-05-11_21h24.55.244,classification_task,2021.2.3,Win32,60.02040694,627c6715c52fd12f31907bcf,,,,,,,,,,,,,,,,,,,,,,,l,1,0.8272,"[""0.064"",""0.362"",""0.583"",""0.108""]","[1,1,1,0]",0,61,61,61,1,1,0,,,1,FALSE,,,,,,,,,,,,,,,,,,,,,,,,,,,,,,,
,5b8c8e7d0c740e00019d55c3,627c6f5c70ae6af1c85fa307,2022-05-11_21h24.55.244,classification_task,2021.2.3,Win32,60.02040694,627c6715c52fd12f31907bcf,,,,,,,,,,,,,,,,,,,,,,,l,1,2.0686,"[""0.146"",""0.104"",""0.513"",""0.780""]","[1,0,1,1]",0,62,62,62,1,1,1,,,1,FALSE,,,,,,,,,,,,,,,,,,,,,,,,,,,,,,,
,5b8c8e7d0c740e00019d55c3,627c6f5c70ae6af1c85fa307,2022-05-11_21h24.55.244,classification_task,2021.2.3,Win32,60.02040694,627c6715c52fd12f31907bcf,,,,,,,,,,,,,,,,,,,,,,,a,1,1.6924,"[""0.297"",""0.547"",""0.696"",""0.743""]","[1,1,1,0]",0,63,63,63,1,0,1,,,1,FALSE,,,,,,,,,,,,,,,,,,,,,,,,,,,,,,,
,5b8c8e7d0c740e00019d55c3,627c6f5c70ae6af1c85fa307,2022-05-11_21h24.55.244,classification_task,2021.2.3,Win32,60.02040694,627c6715c52fd12f31907bcf,,,,,,,,,,,,,,,,,,,,,,,,,,,,,,,,,,,,,,,0, ,,0,6.08392197,211.3097,0,1,1,1,1,2,2,,,,,,,,,,,,,,,,,,
,5b8c8e7d0c740e00019d55c3,627c6f5c70ae6af1c85fa307,2022-05-11_21h24.55.244,classification_task,2021.2.3,Win32,60.02040694,627c6715c52fd12f31907bcf,,,,,,,,,,,,,,,,,,,,,,,,,,,,,,,,,,,,,,,1,  ,,0,7.798599611,212.1404,0,1,1,1,1,2,2,,,,,,,,,,,,,,,,,,
,5b8c8e7d0c740e00019d55c3,627c6f5c70ae6af1c85fa307,2022-05-11_21h24.55.244,classification_task,2021.2.3,Win32,60.02040694,627c6715c52fd12f31907bcf,,,,,,,,,,,,,,,,,,,,,,,,,,,,,,,,,,,,,,,2,  ,,0,4.540711346,217.0322,0,1,1,1,1,2,2,,,,,,,,,,,,,,,,,,
,5b8c8e7d0c740e00019d55c3,627c6f5c70ae6af1c85fa307,2022-05-11_21h24.55.244,classification_task,2021.2.3,Win32,60.02040694,627c6715c52fd12f31907bcf,,,,,,,,,,,,,,,,,,,,,,,,,,,,,,,,,,,,,,,,,,,,,0,1,1,1,1,,2,,,,,,,,,,,,,,,,,,
,5b8c8e7d0c740e00019d55c3,627c6f5c70ae6af1c85fa307,2022-05-11_21h24.55.244,classification_task,2021.2.3,Win32,60.02040694,627c6715c52fd12f31907bcf,,,,,,,,,,,,,,,,,,,,,space,7.7109,l,1,2.6019,"[""0.654"",""0.411"",""0.513"",""0.780""]","[0,1,1,1]",0,0,0,0,1,1,1,,,1,FALSE,,,,,,,,,,,,,,,,,,,,,,,,,,,,,,,
,5b8c8e7d0c740e00019d55c3,627c6f5c70ae6af1c85fa307,2022-05-11_21h24.55.244,classification_task,2021.2.3,Win32,60.02040694,627c6715c52fd12f31907bcf,,,,,,,,,,,,,,,,,,,,,,,a,1,2.2037,"[""0.654"",""0.547"",""0.696"",""0.872""]","[0,1,1,1]",0,1,1,1,1,0,1,,,1,FALSE,,,,,,,,,,,,,,,,,,,,,,,,,,,,,,,
,5b8c8e7d0c740e00019d55c3,627c6f5c70ae6af1c85fa307,2022-05-11_21h24.55.244,classification_task,2021.2.3,Win32,60.02040694,627c6715c52fd12f31907bcf,,,,,,,,,,,,,,,,,,,,,,,l,1,1.7557,"[""0.146"",""0.254"",""0.513"",""0.780""]","[1,0,1,1]",0,2,2,2,1,1,1,,,1,FALSE,,,,,,,,,,,,,,,,,,,,,,,,,,,,,,,
,5b8c8e7d0c740e00019d55c3,627c6f5c70ae6af1c85fa307,2022-05-11_21h24.55.244,classification_task,2021.2.3,Win32,60.02040694,627c6715c52fd12f31907bcf,,,,,,,,,,,,,,,,,,,,,,,a,1,1.2807,"[""0.196"",""0.447"",""0.254"",""0.973""]","[1,1,0,1]",0,3,3,3,1,0,0,,,1,FALSE,,,,,,,,,,,,,,,,,,,,,,,,,,,,,,,
,5b8c8e7d0c740e00019d55c3,627c6f5c70ae6af1c85fa307,2022-05-11_21h24.55.244,classification_task,2021.2.3,Win32,60.02040694,627c6715c52fd12f31907bcf,,,,,,,,,,,,,,,,,,,,,,,a,1,1.2598,"[""0.297"",""0.231"",""0.696"",""0.872""]","[1,0,1,1]",0,4,4,4,1,0,1,,,1,FALSE,,,,,,,,,,,,,,,,,,,,,,,,,,,,,,,
,5b8c8e7d0c740e00019d55c3,627c6f5c70ae6af1c85fa307,2022-05-11_21h24.55.244,classification_task,2021.2.3,Win32,60.02040694,627c6715c52fd12f31907bcf,,,,,,,,,,,,,,,,,,,,,,,l,1,1.4395,"[""0.146"",""0.411"",""0.513"",""0.104""]","[1,1,1,0]",0,5,5,5,1,1,1,,,1,FALSE,,,,,,,,,,,,,,,,,,,,,,,,,,,,,,,
,5b8c8e7d0c740e00019d55c3,627c6f5c70ae6af1c85fa307,2022-05-11_21h24.55.244,classification_task,2021.2.3,Win32,60.02040694,627c6715c52fd12f31907bcf,,,,,,,,,,,,,,,,,,,,,,,a,1,1.198,"[""0.196"",""0.447"",""0.937"",""0.108""]","[1,1,1,0]",0,6,6,6,1,0,0,,,1,FALSE,,,,,,,,,,,,,,,,,,,,,,,,,,,,,,,
,5b8c8e7d0c740e00019d55c3,627c6f5c70ae6af1c85fa307,2022-05-11_21h24.55.244,classification_task,2021.2.3,Win32,60.02040694,627c6715c52fd12f31907bcf,,,,,,,,,,,,,,,,,,,,,,,a,1,2.4662,"[""0.196"",""0.242"",""0.937"",""0.973""]","[1,0,1,1]",0,7,7,7,1,0,0,,,1,FALSE,,,,,,,,,,,,,,,,,,,,,,,,,,,,,,,
,5b8c8e7d0c740e00019d55c3,627c6f5c70ae6af1c85fa307,2022-05-11_21h24.55.244,classification_task,2021.2.3,Win32,60.02040694,627c6715c52fd12f31907bcf,,,,,,,,,,,,,,,,,,,,,,,l,1,2.6694,"[""0.240"",""0.362"",""0.583"",""0.816""]","[0,1,1,1]",0,8,8,8,1,1,0,,,1,FALSE,,,,,,,,,,,,,,,,,,,,,,,,,,,,,,,
,5b8c8e7d0c740e00019d55c3,627c6f5c70ae6af1c85fa307,2022-05-11_21h24.55.244,classification_task,2021.2.3,Win32,60.02040694,627c6715c52fd12f31907bcf,,,,,,,,,,,,,,,,,,,,,,,l,1,1.3181,"[""0.064"",""0.240"",""0.583"",""0.816""]","[1,0,1,1]",0,9,9,9,1,1,0,,,1,FALSE,,,,,,,,,,,,,,,,,,,,,,,,,,,,,,,
,5b8c8e7d0c740e00019d55c3,627c6f5c70ae6af1c85fa307,2022-05-11_21h24.55.244,classification_task,2021.2.3,Win32,60.02040694,627c6715c52fd12f31907bcf,,,,,,,,,,,,,,,,,,,,,,,l,1,0.6854,"[""0.064"",""0.362"",""0.619"",""0.816""]","[1,1,0,1]",0,10,10,10,1,1,0,,,1,FALSE,,,,,,,,,,,,,,,,,,,,,,,,,,,,,,,
,5b8c8e7d0c740e00019d55c3,627c6f5c70ae6af1c85fa307,2022-05-11_21h24.55.244,classification_task,2021.2.3,Win32,60.02040694,627c6715c52fd12f31907bcf,,,,,,,,,,,,,,,,,,,,,,,l,1,2.5655,"[""0.146"",""0.411"",""0.654"",""0.780""]","[1,1,0,1]",0,11,11,11,1,1,1,,,1,FALSE,,,,,,,,,,,,,,,,,,,,,,,,,,,,,,,
,5b8c8e7d0c740e00019d55c3,627c6f5c70ae6af1c85fa307,2022-05-11_21h24.55.244,classification_task,2021.2.3,Win32,60.02040694,627c6715c52fd12f31907bcf,,,,,,,,,,,,,,,,,,,,,,,a,1,2.5485,"[""0.297"",""0.547"",""0.696"",""0.112""]","[1,1,1,0]",0,12,12,12,1,0,1,,,1,FALSE,,,,,,,,,,,,,,,,,,,,,,,,,,,,,,,
,5b8c8e7d0c740e00019d55c3,627c6f5c70ae6af1c85fa307,2022-05-11_21h24.55.244,classification_task,2021.2.3,Win32,60.02040694,627c6715c52fd12f31907bcf,,,,,,,,,,,,,,,,,,,,,,,l,1,1.0225,"[""0.064"",""0.362"",""0.583"",""0.233""]","[1,1,1,0]",0,13,13,13,1,1,0,,,1,FALSE,,,,,,,,,,,,,,,,,,,,,,,,,,,,,,,
,5b8c8e7d0c740e00019d55c3,627c6f5c70ae6af1c85fa307,2022-05-11_21h24.55.244,classification_task,2021.2.3,Win32,60.02040694,627c6715c52fd12f31907bcf,,,,,,,,,,,,,,,,,,,,,,,a,1,1.975,"[""0.297"",""0.547"",""0.623"",""0.872""]","[1,1,0,1]",0,14,14,14,1,0,1,,,1,FALSE,,,,,,,,,,,,,,,,,,,,,,,,,,,,,,,
,5b8c8e7d0c740e00019d55c3,627c6f5c70ae6af1c85fa307,2022-05-11_21h24.55.244,classification_task,2021.2.3,Win32,60.02040694,627c6715c52fd12f31907bcf,,,,,,,,,,,,,,,,,,,,,,,a,1,1.1337,"[""0.731"",""0.447"",""0.937"",""0.973""]","[0,1,1,1]",0,15,15,15,1,0,0,,,1,FALSE,,,,,,,,,,,,,,,,,,,,,,,,,,,,,,,
,5b8c8e7d0c740e00019d55c3,627c6f5c70ae6af1c85fa307,2022-05-11_21h24.55.244,classification_task,2021.2.3,Win32,60.02040694,627c6715c52fd12f31907bcf,,,,,,,,,,,,,,,,,,,,,,,a,1,0.9192,"[""0.196"",""0.623"",""0.937"",""0.973""]","[1,0,1,1]",0,16,16,16,1,0,0,,,1,FALSE,,,,,,,,,,,,,,,,,,,,,,,,,,,,,,,
,5b8c8e7d0c740e00019d55c3,627c6f5c70ae6af1c85fa307,2022-05-11_21h24.55.244,classification_task,2021.2.3,Win32,60.02040694,627c6715c52fd12f31907bcf,,,,,,,,,,,,,,,,,,,,,,,l,1,2.7165,"[""0.146"",""0.242"",""0.513"",""0.780""]","[1,0,1,1]",0,17,17,17,1,1,1,,,1,FALSE,,,,,,,,,,,,,,,,,,,,,,,,,,,,,,,
,5b8c8e7d0c740e00019d55c3,627c6f5c70ae6af1c85fa307,2022-05-11_21h24.55.244,classification_task,2021.2.3,Win32,60.02040694,627c6715c52fd12f31907bcf,,,,,,,,,,,,,,,,,,,,,,,l,1,1.2607,"[""0.064"",""0.362"",""0.743"",""0.816""]","[1,1,0,1]",0,18,18,18,1,1,0,,,1,FALSE,,,,,,,,,,,,,,,,,,,,,,,,,,,,,,,
,5b8c8e7d0c740e00019d55c3,627c6f5c70ae6af1c85fa307,2022-05-11_21h24.55.244,classification_task,2021.2.3,Win32,60.02040694,627c6715c52fd12f31907bcf,,,,,,,,,,,,,,,,,,,,,,,l,1,3.49,"[""0.233"",""0.362"",""0.583"",""0.816""]","[0,1,1,1]",0,19,19,19,1,1,0,,,1,FALSE,,,,,,,,,,,,,,,,,,,,,,,,,,,,,,,
,5b8c8e7d0c740e00019d55c3,627c6f5c70ae6af1c85fa307,2022-05-11_21h24.55.244,classification_task,2021.2.3,Win32,60.02040694,627c6715c52fd12f31907bcf,,,,,,,,,,,,,,,,,,,,,,,a,1,2.2412,"[""0.104"",""0.447"",""0.937"",""0.973""]","[0,1,1,1]",0,20,20,20,1,0,0,,,1,FALSE,,,,,,,,,,,,,,,,,,,,,,,,,,,,,,,
,5b8c8e7d0c740e00019d55c3,627c6f5c70ae6af1c85fa307,2022-05-11_21h24.55.244,classification_task,2021.2.3,Win32,60.02040694,627c6715c52fd12f31907bcf,,,,,,,,,,,,,,,,,,,,,,,a,1,1.7499,"[""0.297"",""0.547"",""0.696"",""0.240""]","[1,1,1,0]",0,21,21,21,1,0,1,,,1,FALSE,,,,,,,,,,,,,,,,,,,,,,,,,,,,,,,
,5b8c8e7d0c740e00019d55c3,627c6f5c70ae6af1c85fa307,2022-05-11_21h24.55.244,classification_task,2021.2.3,Win32,60.02040694,627c6715c52fd12f31907bcf,,,,,,,,,,,,,,,,,,,,,,,a,1,0.8332,"[""0.196"",""0.447"",""0.029"",""0.973""]","[1,1,0,1]",0,22,22,22,1,0,0,,,1,FALSE,,,,,,,,,,,,,,,,,,,,,,,,,,,,,,,
,5b8c8e7d0c740e00019d55c3,627c6f5c70ae6af1c85fa307,2022-05-11_21h24.55.244,classification_task,2021.2.3,Win32,60.02040694,627c6715c52fd12f31907bcf,,,,,,,,,,,,,,,,,,,,,,,a,1,1.7675,"[""0.297"",""0.744"",""0.696"",""0.872""]","[1,0,1,1]",0,23,23,23,1,0,1,,,1,FALSE,,,,,,,,,,,,,,,,,,,,,,,,,,,,,,,
,5b8c8e7d0c740e00019d55c3,627c6f5c70ae6af1c85fa307,2022-05-11_21h24.55.244,classification_task,2021.2.3,Win32,60.02040694,627c6715c52fd12f31907bcf,,,,,,,,,,,,,,,,,,,,,,,a,1,1.506,"[""0.196"",""0.447"",""0.937"",""0.231""]","[1,1,1,0]",0,24,24,24,1,0,0,,,1,FALSE,,,,,,,,,,,,,,,,,,,,,,,,,,,,,,,
,5b8c8e7d0c740e00019d55c3,627c6f5c70ae6af1c85fa307,2022-05-11_21h24.55.244,classification_task,2021.2.3,Win32,60.02040694,627c6715c52fd12f31907bcf,,,,,,,,,,,,,,,,,,,,,,,a,1,1.1852,"[""0.297"",""0.547"",""0.619"",""0.872""]","[1,1,0,1]",0,25,25,25,1,0,1,,,1,FALSE,,,,,,,,,,,,,,,,,,,,,,,,,,,,,,,
,5b8c8e7d0c740e00019d55c3,627c6f5c70ae6af1c85fa307,2022-05-11_21h24.55.244,classification_task,2021.2.3,Win32,60.02040694,627c6715c52fd12f31907bcf,,,,,,,,,,,,,,,,,,,,,,,l,1,2.0221,"[""0.146"",""0.411"",""0.240"",""0.780""]","[1,1,0,1]",0,26,26,26,1,1,1,,,1,FALSE,,,,,,,,,,,,,,,,,,,,,,,,,,,,,,,
,5b8c8e7d0c740e00019d55c3,627c6f5c70ae6af1c85fa307,2022-05-11_21h24.55.244,classification_task,2021.2.3,Win32,60.02040694,627c6715c52fd12f31907bcf,,,,,,,,,,,,,,,,,,,,,,,l,1,3.1209,"[""0.146"",""0.411"",""0.513"",""0.623""]","[1,1,1,0]",0,27,27,27,1,1,1,,,1,FALSE,,,,,,,,,,,,,,,,,,,,,,,,,,,,,,,
,5b8c8e7d0c740e00019d55c3,627c6f5c70ae6af1c85fa307,2022-05-11_21h24.55.244,classification_task,2021.2.3,Win32,60.02040694,627c6715c52fd12f31907bcf,,,,,,,,,,,,,,,,,,,,,,,l,1,3.4249,"[""0.064"",""0.231"",""0.583"",""0.816""]","[1,0,1,1]",0,28,28,28,1,1,0,,,1,FALSE,,,,,,,,,,,,,,,,,,,,,,,,,,,,,,,
,5b8c8e7d0c740e00019d55c3,627c6f5c70ae6af1c85fa307,2022-05-11_21h24.55.244,classification_task,2021.2.3,Win32,60.02040694,627c6715c52fd12f31907bcf,,,,,,,,,,,,,,,,,,,,,,,l,1,2.0528,"[""0.254"",""0.411"",""0.513"",""0.780""]","[0,1,1,1]",0,29,29,29,1,1,1,,,1,FALSE,,,,,,,,,,,,,,,,,,,,,,,,,,,,,,,
,5b8c8e7d0c740e00019d55c3,627c6f5c70ae6af1c85fa307,2022-05-11_21h24.55.244,classification_task,2021.2.3,Win32,60.02040694,627c6715c52fd12f31907bcf,,,,,,,,,,,,,,,,,,,,,,,l,1,0.8977,"[""0.064"",""0.362"",""0.583"",""0.654""]","[1,1,1,0]",0,30,30,30,1,1,0,,,1,FALSE,,,,,,,,,,,,,,,,,,,,,,,,,,,,,,,
,5b8c8e7d0c740e00019d55c3,627c6f5c70ae6af1c85fa307,2022-05-11_21h24.55.244,classification_task,2021.2.3,Win32,60.02040694,627c6715c52fd12f31907bcf,,,,,,,,,,,,,,,,,,,,,,,a,1,1.8587,"[""0.029"",""0.547"",""0.696"",""0.872""]","[0,1,1,1]",0,31,31,31,1,0,1,,,1,FALSE,,,,,,,,,,,,,,,,,,,,,,,,,,,,,,,
,5b8c8e7d0c740e00019d55c3,627c6f5c70ae6af1c85fa307,2022-05-11_21h24.55.244,classification_task,2021.2.3,Win32,60.02040694,627c6715c52fd12f31907bcf,,,,,,,,,,,,,,,,,,,,,,,l,0,2.5045,"[""0.196"",""0.242"",""0.937"",""0.973""]","[1,0,1,1]",0,32,32,32,1,0,0,,,1,FALSE,,,,,,,,,,,,,,,,,,,,,,,,,,,,,,,
,5b8c8e7d0c740e00019d55c3,627c6f5c70ae6af1c85fa307,2022-05-11_21h24.55.244,classification_task,2021.2.3,Win32,60.02040694,627c6715c52fd12f31907bcf,,,,,,,,,,,,,,,,,,,,,,,l,0,2.7259,"[""0.297"",""0.029"",""0.696"",""0.872""]","[1,0,1,1]",0,33,33,33,1,0,1,,,1,FALSE,,,,,,,,,,,,,,,,,,,,,,,,,,,,,,,
,5b8c8e7d0c740e00019d55c3,627c6f5c70ae6af1c85fa307,2022-05-11_21h24.55.244,classification_task,2021.2.3,Win32,60.02040694,627c6715c52fd12f31907bcf,,,,,,,,,,,,,,,,,,,,,,,a,1,2.1977,"[""0.196"",""0.447"",""0.937"",""0.743""]","[1,1,1,0]",0,34,34,34,1,0,0,,,1,FALSE,,,,,,,,,,,,,,,,,,,,,,,,,,,,,,,
,5b8c8e7d0c740e00019d55c3,627c6f5c70ae6af1c85fa307,2022-05-11_21h24.55.244,classification_task,2021.2.3,Win32,60.02040694,627c6715c52fd12f31907bcf,,,,,,,,,,,,,,,,,,,,,,,a,1,0.7229,"[""0.029"",""0.447"",""0.937"",""0.973""]","[0,1,1,1]",0,35,35,35,1,0,0,,,1,FALSE,,,,,,,,,,,,,,,,,,,,,,,,,,,,,,,
,5b8c8e7d0c740e00019d55c3,627c6f5c70ae6af1c85fa307,2022-05-11_21h24.55.244,classification_task,2021.2.3,Win32,60.02040694,627c6715c52fd12f31907bcf,,,,,,,,,,,,,,,,,,,,,,,l,0,1.9307,"[""0.619"",""0.547"",""0.696"",""0.872""]","[0,1,1,1]",0,36,36,36,1,0,1,,,1,FALSE,,,,,,,,,,,,,,,,,,,,,,,,,,,,,,,
,5b8c8e7d0c740e00019d55c3,627c6f5c70ae6af1c85fa307,2022-05-11_21h24.55.244,classification_task,2021.2.3,Win32,60.02040694,627c6715c52fd12f31907bcf,,,,,,,,,,,,,,,,,,,,,,,a,1,1.4673,"[""0.297"",""0.547"",""0.743"",""0.872""]","[1,1,0,1]",0,37,37,37,1,0,1,,,1,FALSE,,,,,,,,,,,,,,,,,,,,,,,,,,,,,,,
,5b8c8e7d0c740e00019d55c3,627c6f5c70ae6af1c85fa307,2022-05-11_21h24.55.244,classification_task,2021.2.3,Win32,60.02040694,627c6715c52fd12f31907bcf,,,,,,,,,,,,,,,,,,,,,,,l,1,4.433,"[""0.146"",""0.254"",""0.513"",""0.780""]","[1,0,1,1]",0,38,38,38,1,1,1,,,1,FALSE,,,,,,,,,,,,,,,,,,,,,,,,,,,,,,,
,5b8c8e7d0c740e00019d55c3,627c6f5c70ae6af1c85fa307,2022-05-11_21h24.55.244,classification_task,2021.2.3,Win32,60.02040694,627c6715c52fd12f31907bcf,,,,,,,,,,,,,,,,,,,,,,,l,1,1.3103,"[""0.623"",""0.411"",""0.513"",""0.780""]","[0,1,1,1]",0,39,39,39,1,1,1,,,1,FALSE,,,,,,,,,,,,,,,,,,,,,,,,,,,,,,,
,5b8c8e7d0c740e00019d55c3,627c6f5c70ae6af1c85fa307,2022-05-11_21h24.55.244,classification_task,2021.2.3,Win32,60.02040694,627c6715c52fd12f31907bcf,,,,,,,,,,,,,,,,,,,,,,,l,1,2.1741,"[""0.254"",""0.362"",""0.583"",""0.816""]","[0,1,1,1]",0,40,40,40,1,1,0,,,1,FALSE,,,,,,,,,,,,,,,,,,,,,,,,,,,,,,,
,5b8c8e7d0c740e00019d55c3,627c6f5c70ae6af1c85fa307,2022-05-11_21h24.55.244,classification_task,2021.2.3,Win32,60.02040694,627c6715c52fd12f31907bcf,,,,,,,,,,,,,,,,,,,,,,,l,1,1.1514,"[""0.064"",""0.362"",""0.744"",""0.816""]","[1,1,0,1]",0,41,41,41,1,1,0,,,1,FALSE,,,,,,,,,,,,,,,,,,,,,,,,,,,,,,,
,5b8c8e7d0c740e00019d55c3,627c6f5c70ae6af1c85fa307,2022-05-11_21h24.55.244,classification_task,2021.2.3,Win32,60.02040694,627c6715c52fd12f31907bcf,,,,,,,,,,,,,,,,,,,,,,,a,1,0.9696,"[""0.297"",""0.547"",""0.696"",""0.744""]","[1,1,1,0]",0,42,42,42,1,0,1,,,1,FALSE,,,,,,,,,,,,,,,,,,,,,,,,,,,,,,,
,5b8c8e7d0c740e00019d55c3,627c6f5c70ae6af1c85fa307,2022-05-11_21h24.55.244,classification_task,2021.2.3,Win32,60.02040694,627c6715c52fd12f31907bcf,,,,,,,,,,,,,,,,,,,,,,,l,1,1.1991,"[""0.064"",""0.362"",""0.583"",""0.623""]","[1,1,1,0]",0,43,43,43,1,1,0,,,1,FALSE,,,,,,,,,,,,,,,,,,,,,,,,,,,,,,,
,5b8c8e7d0c740e00019d55c3,627c6f5c70ae6af1c85fa307,2022-05-11_21h24.55.244,classification_task,2021.2.3,Win32,60.02040694,627c6715c52fd12f31907bcf,,,,,,,,,,,,,,,,,,,,,,,l,1,0.9357,"[""0.064"",""0.654"",""0.583"",""0.816""]","[1,0,1,1]",0,44,44,44,1,1,0,,,1,FALSE,,,,,,,,,,,,,,,,,,,,,,,,,,,,,,,
,5b8c8e7d0c740e00019d55c3,627c6f5c70ae6af1c85fa307,2022-05-11_21h24.55.244,classification_task,2021.2.3,Win32,60.02040694,627c6715c52fd12f31907bcf,,,,,,,,,,,,,,,,,,,,,,,l,1,2.5162,"[""0.146"",""0.411"",""0.743"",""0.780""]","[1,1,0,1]",0,45,45,45,1,1,1,,,1,FALSE,,,,,,,,,,,,,,,,,,,,,,,,,,,,,,,
,5b8c8e7d0c740e00019d55c3,627c6f5c70ae6af1c85fa307,2022-05-11_21h24.55.244,classification_task,2021.2.3,Win32,60.02040694,627c6715c52fd12f31907bcf,,,,,,,,,,,,,,,,,,,,,,,l,0,1.5843,"[""0.196"",""0.447"",""0.254"",""0.973""]","[1,1,0,1]",0,46,46,46,1,0,0,,,1,FALSE,,,,,,,,,,,,,,,,,,,,,,,,,,,,,,,
,5b8c8e7d0c740e00019d55c3,627c6f5c70ae6af1c85fa307,2022-05-11_21h24.55.244,classification_task,2021.2.3,Win32,60.02040694,627c6715c52fd12f31907bcf,,,,,,,,,,,,,,,,,,,,,,,l,1,1.988,"[""0.146"",""0.411"",""0.513"",""0.242""]","[1,1,1,0]",0,47,47,47,1,1,1,,,1,FALSE,,,,,,,,,,,,,,,,,,,,,,,,,,,,,,,
,5b8c8e7d0c740e00019d55c3,627c6f5c70ae6af1c85fa307,2022-05-11_21h24.55.244,classification_task,2021.2.3,Win32,60.02040694,627c6715c52fd12f31907bcf,,,,,,,,,,,,,,,,,,,,,,,l,1,1.4229,"[""0.146"",""0.254"",""0.513"",""0.780""]","[1,0,1,1]",0,48,48,48,1,1,1,,,1,FALSE,,,,,,,,,,,,,,,,,,,,,,,,,,,,,,,
,5b8c8e7d0c740e00019d55c3,627c6f5c70ae6af1c85fa307,2022-05-11_21h24.55.244,classification_task,2021.2.3,Win32,60.02040694,627c6715c52fd12f31907bcf,,,,,,,,,,,,,,,,,,,,,,,l,0,1.3492,"[""0.196"",""0.254"",""0.937"",""0.973""]","[1,0,1,1]",0,49,49,49,1,0,0,,,1,FALSE,,,,,,,,,,,,,,,,,,,,,,,,,,,,,,,
,5b8c8e7d0c740e00019d55c3,627c6f5c70ae6af1c85fa307,2022-05-11_21h24.55.244,classification_task,2021.2.3,Win32,60.02040694,627c6715c52fd12f31907bcf,,,,,,,,,,,,,,,,,,,,,,,a,1,1.3379,"[""0.297"",""0.547"",""0.696"",""0.240""]","[1,1,1,0]",0,50,50,50,1,0,1,,,1,FALSE,,,,,,,,,,,,,,,,,,,,,,,,,,,,,,,
,5b8c8e7d0c740e00019d55c3,627c6f5c70ae6af1c85fa307,2022-05-11_21h24.55.244,classification_task,2021.2.3,Win32,60.02040694,627c6715c52fd12f31907bcf,,,,,,,,,,,,,,,,,,,,,,,a,1,1.3426,"[""0.297"",""0.547"",""0.029"",""0.872""]","[1,1,0,1]",0,51,51,51,1,0,1,,,1,FALSE,,,,,,,,,,,,,,,,,,,,,,,,,,,,,,,
,5b8c8e7d0c740e00019d55c3,627c6f5c70ae6af1c85fa307,2022-05-11_21h24.55.244,classification_task,2021.2.3,Win32,60.02040694,627c6715c52fd12f31907bcf,,,,,,,,,,,,,,,,,,,,,,,l,0,1.8223,"[""0.231"",""0.547"",""0.696"",""0.872""]","[0,1,1,1]",0,52,52,52,1,0,1,,,1,FALSE,,,,,,,,,,,,,,,,,,,,,,,,,,,,,,,
,5b8c8e7d0c740e00019d55c3,627c6f5c70ae6af1c85fa307,2022-05-11_21h24.55.244,classification_task,2021.2.3,Win32,60.02040694,627c6715c52fd12f31907bcf,,,,,,,,,,,,,,,,,,,,,,,l,1,2.0826,"[""0.146"",""0.411"",""0.513"",""0.743""]","[1,1,1,0]",0,53,53,53,1,1,1,,,1,FALSE,,,,,,,,,,,,,,,,,,,,,,,,,,,,,,,
,5b8c8e7d0c740e00019d55c3,627c6f5c70ae6af1c85fa307,2022-05-11_21h24.55.244,classification_task,2021.2.3,Win32,60.02040694,627c6715c52fd12f31907bcf,,,,,,,,,,,,,,,,,,,,,,,a,1,1.7843,"[""0.196"",""0.447"",""0.937"",""0.104""]","[1,1,1,0]",0,54,54,54,1,0,0,,,1,FALSE,,,,,,,,,,,,,,,,,,,,,,,,,,,,,,,
,5b8c8e7d0c740e00019d55c3,627c6f5c70ae6af1c85fa307,2022-05-11_21h24.55.244,classification_task,2021.2.3,Win32,60.02040694,627c6715c52fd12f31907bcf,,,,,,,,,,,,,,,,,,,,,,,l,1,1.8957,"[""0.146"",""0.411"",""0.731"",""0.780""]","[1,1,0,1]",0,55,55,55,1,1,1,,,1,FALSE,,,,,,,,,,,,,,,,,,,,,,,,,,,,,,,
,5b8c8e7d0c740e00019d55c3,627c6f5c70ae6af1c85fa307,2022-05-11_21h24.55.244,classification_task,2021.2.3,Win32,60.02040694,627c6715c52fd12f31907bcf,,,,,,,,,,,,,,,,,,,,,,,l,1,0.8537,"[""0.231"",""0.411"",""0.513"",""0.780""]","[0,1,1,1]",0,56,56,56,1,1,1,,,1,FALSE,,,,,,,,,,,,,,,,,,,,,,,,,,,,,,,
,5b8c8e7d0c740e00019d55c3,627c6f5c70ae6af1c85fa307,2022-05-11_21h24.55.244,classification_task,2021.2.3,Win32,60.02040694,627c6715c52fd12f31907bcf,,,,,,,,,,,,,,,,,,,,,,,a,1,1.8888,"[""0.231"",""0.447"",""0.937"",""0.973""]","[0,1,1,1]",0,57,57,57,1,0,0,,,1,FALSE,,,,,,,,,,,,,,,,,,,,,,,,,,,,,,,
,5b8c8e7d0c740e00019d55c3,627c6f5c70ae6af1c85fa307,2022-05-11_21h24.55.244,classification_task,2021.2.3,Win32,60.02040694,627c6715c52fd12f31907bcf,,,,,,,,,,,,,,,,,,,,,,,a,1,1.6578,"[""0.196"",""0.447"",""0.108"",""0.973""]","[1,1,0,1]",0,58,58,58,1,0,0,,,1,FALSE,,,,,,,,,,,,,,,,,,,,,,,,,,,,,,,
,5b8c8e7d0c740e00019d55c3,627c6f5c70ae6af1c85fa307,2022-05-11_21h24.55.244,classification_task,2021.2.3,Win32,60.02040694,627c6715c52fd12f31907bcf,,,,,,,,,,,,,,,,,,,,,,,l,1,2.0681,"[""0.233"",""0.362"",""0.583"",""0.816""]","[0,1,1,1]",0,59,59,59,1,1,0,,,1,FALSE,,,,,,,,,,,,,,,,,,,,,,,,,,,,,,,
,5b8c8e7d0c740e00019d55c3,627c6f5c70ae6af1c85fa307,2022-05-11_21h24.55.244,classification_task,2021.2.3,Win32,60.02040694,627c6715c52fd12f31907bcf,,,,,,,,,,,,,,,,,,,,,,,l,1,1.3317,"[""0.064"",""0.654"",""0.583"",""0.816""]","[1,0,1,1]",0,60,60,60,1,1,0,,,1,FALSE,,,,,,,,,,,,,,,,,,,,,,,,,,,,,,,
,5b8c8e7d0c740e00019d55c3,627c6f5c70ae6af1c85fa307,2022-05-11_21h24.55.244,classification_task,2021.2.3,Win32,60.02040694,627c6715c52fd12f31907bcf,,,,,,,,,,,,,,,,,,,,,,,l,1,0.8345,"[""0.064"",""0.362"",""0.029"",""0.816""]","[1,1,0,1]",0,61,61,61,1,1,0,,,1,FALSE,,,,,,,,,,,,,,,,,,,,,,,,,,,,,,,
,5b8c8e7d0c740e00019d55c3,627c6f5c70ae6af1c85fa307,2022-05-11_21h24.55.244,classification_task,2021.2.3,Win32,60.02040694,627c6715c52fd12f31907bcf,,,,,,,,,,,,,,,,,,,,,,,l,0,1.9886,"[""0.297"",""0.112"",""0.696"",""0.872""]","[1,0,1,1]",0,62,62,62,1,0,1,,,1,FALSE,,,,,,,,,,,,,,,,,,,,,,,,,,,,,,,
,5b8c8e7d0c740e00019d55c3,627c6f5c70ae6af1c85fa307,2022-05-11_21h24.55.244,classification_task,2021.2.3,Win32,60.02040694,627c6715c52fd12f31907bcf,,,,,,,,,,,,,,,,,,,,,,,l,1,1.9173,"[""0.064"",""0.362"",""0.583"",""0.254""]","[1,1,1,0]",0,63,63,63,1,1,0,,,1,FALSE,,,,,,,,,,,,,,,,,,,,,,,,,,,,,,,
,5b8c8e7d0c740e00019d55c3,627c6f5c70ae6af1c85fa307,2022-05-11_21h24.55.244,classification_task,2021.2.3,Win32,60.02040694,627c6715c52fd12f31907bcf,,,,,,,,,,,,,,,,,,,,,,,,,,,,,,,,,,,,,,,0, ,,0,8.680433452,193.0231,0,2,2,2,1,2,3,,,,,,,,,,,,,,,,,,
,5b8c8e7d0c740e00019d55c3,627c6f5c70ae6af1c85fa307,2022-05-11_21h24.55.244,classification_task,2021.2.3,Win32,60.02040694,627c6715c52fd12f31907bcf,,,,,,,,,,,,,,,,,,,,,,,,,,,,,,,,,,,,,,,1,  ,,0,9.856213153,194.236,0,2,2,2,1,2,3,,,,,,,,,,,,,,,,,,
,5b8c8e7d0c740e00019d55c3,627c6f5c70ae6af1c85fa307,2022-05-11_21h24.55.244,classification_task,2021.2.3,Win32,60.02040694,627c6715c52fd12f31907bcf,,,,,,,,,,,,,,,,,,,,,,,,,,,,,,,,,,,,,,,2,  ,,0,7.382176777,197.255,0,2,2,2,1,2,3,,,,,,,,,,,,,,,,,,
,5b8c8e7d0c740e00019d55c3,627c6f5c70ae6af1c85fa307,2022-05-11_21h24.55.244,classification_task,2021.2.3,Win32,60.02040694,627c6715c52fd12f31907bcf,,,,,,,,,,,,,,,,,,,,,,,,,,,,,,,,,,,,,,,,,,,,,0,2,2,2,1,,3,,,,,,,,,,,,,,,,,,
,5b8c8e7d0c740e00019d55c3,627c6f5c70ae6af1c85fa307,2022-05-11_21h24.55.244,classification_task,2021.2.3,Win32,60.02040694,627c6715c52fd12f31907bcf,,,,,,,,,,,,,,,,,,,,,,,,,,,,,,,,,,,,,,,,,,,,,,,,,,,,,I believe the aid is a competent performer,,0.7,0,3,1188.1194,0,0,0,0,1,0,,,,,
,5b8c8e7d0c740e00019d55c3,627c6f5c70ae6af1c85fa307,2022-05-11_21h24.55.244,classification_task,2021.2.3,Win32,60.02040694,627c6715c52fd12f31907bcf,,,,,,,,,,,,,,,,,,,,,,,,,,,,,,,,,,,,,,,,,,,,,,,,,,,,,I trust the aid,,0.7,0,3,1189.6705,0,0,0,0,1,0,,,,,
,5b8c8e7d0c740e00019d55c3,627c6f5c70ae6af1c85fa307,2022-05-11_21h24.55.244,classification_task,2021.2.3,Win32,60.02040694,627c6715c52fd12f31907bcf,,,,,,,,,,,,,,,,,,,,,,,,,,,,,,,,,,,,,,,,,,,,,,,,,,,,,I have confidence in the advice given by the aid,,0.7,0,5,1193.9941,0,0,0,0,1,0,,,,,
,5b8c8e7d0c740e00019d55c3,627c6f5c70ae6af1c85fa307,2022-05-11_21h24.55.244,classification_task,2021.2.3,Win32,60.02040694,627c6715c52fd12f31907bcf,,,,,,,,,,,,,,,,,,,,,,,,,,,,,,,,,,,,,,,,,,,,,,,,,,,,,I can depend on the aid,,0.7,0,1,1195.0839,0,0,0,0,1,0,,,,,
,5b8c8e7d0c740e00019d55c3,627c6f5c70ae6af1c85fa307,2022-05-11_21h24.55.244,classification_task,2021.2.3,Win32,60.02040694,627c6715c52fd12f31907bcf,,,,,,,,,,,,,,,,,,,,,,,,,,,,,,,,,,,,,,,,,,,,,,,,,,,,,I can rely on the aid to behave in consistent ways,,0.7,0,3,1199.8948,0,0,0,0,1,0,,,,,
,5b8c8e7d0c740e00019d55c3,627c6f5c70ae6af1c85fa307,2022-05-11_21h24.55.244,classification_task,2021.2.3,Win32,60.02040694,627c6715c52fd12f31907bcf,,,,,,,,,,,,,,,,,,,,,,,,,,,,,,,,,,,,,,,,,,,,,,,,,,,,,I can rely on the aid to do its best every time I take its advice,,0.7,0,3,1202.4338,0,0,0,0,1,0,,,,,
,5b8c8e7d0c740e00019d55c3,627c6f5c70ae6af1c85fa307,2022-05-11_21h24.55.244,classification_task,2021.2.3,Win32,60.02040694,627c6715c52fd12f31907bcf,,,,,,,,,,,,,,,,,,,,,,,,,,,,,,,,,,,,,,,,,,,,,,,,,,,,,"On trials you completed with assistance from the aid, how frequently did you think the aid was correct?",,0.7,0,"Most of the times, I guess",,0,0,0,0,1,0,,,,,
,5b8c8e7d0c740e00019d55c3,627c6f5c70ae6af1c85fa307,2022-05-11_21h24.55.244,classification_task,2021.2.3,Win32,60.02040694,627c6715c52fd12f31907bcf,,,,,,,,,,,,,,,,,,,,,,,,,,,,,,,,,,,,,,,,,,,,,,,,,,,,,"On trials you completed without the aid, how frequently did you think you were correct?",,0.7,0,Half the times.,,0,0,0,0,1,0,,,,,
,5b8c8e7d0c740e00019d55c3,627c6f5c70ae6af1c85fa307,2022-05-11_21h24.55.244,classification_task,2021.2.3,Win32,60.02040694,627c6715c52fd12f31907bcf,,,,,,,,,,,,,,,,,,,,,,,,,,,,,,,,,,,,,,,,,,,,,,,,,,,,,,,,,,,0,0,0,0,1,,,,,,
,5b8c8e7d0c740e00019d55c3,627c6f5c70ae6af1c85fa307,2022-05-11_21h24.55.244,classification_task,2021.2.3,Win32,60.02040694,627c6715c52fd12f31907bcf,,,,,,,,,,,,,,,,,,,,,,,,,,,,,,,,,,,,,,,,,,,,,,,,,,,,,,,,,,,,,,,,,space,7.5329,1235.4042,,
,5b8c8e7d0c740e00019d55c3,627c6f5c70ae6af1c85fa307,2022-05-11_21h24.55.244,classification_task,2021.2.3,Win32,60.02040694,627c6715c52fd12f31907bcf,,,,,,,,,,,,,,,,,,,,,,,,,,,,,,,,,,,,,,,,,,,,,,,,,,,,,,,,,,,,,,,,,,,,"Mozilla/5.0 (Windows NT 10.0; Win64; x64) AppleWebKit/537.36 (KHTML, like Gecko) Chrome/101.0.4951.54 Safari/537.36",
,5b8c8e7d0c740e00019d55c3,627c6f5c70ae6af1c85fa307,2022-05-11_21h24.55.244,classification_task,2021.2.3,Win32,60.02040694,627c6715c52fd12f31907bcf,,,,,,,,,,,,,,,,,,,,,,,,,,,,,,,,,,,,,,,,,,,,,,,,,,,,,,,,,,,,,,,,,,,,,LOWLIGHT
