usingWebGL,participant,session,date,expName,psychopyVersion,OS,frameRate,study_id,signatures_friend,signatures_foe,band_ranges_top,band_ranges_bottom,formitemText,formtype,formundefined,formitemWidth,formindex,formresponse,formrt,key_resp_2.keys,key_resp_2.rt,tute_resp.keys,tute_resp.rt,tutorial.thisRepN,tutorial.thisTrialN,tutorial.thisN,tutorial.thisIndex,tutorial.ran,key_resp_4.keys,key_resp_4.rt,key_resp.keys,key_resp.corr,key_resp.rt,lines_presented,is_signal_presented,trials.thisRepN,trials.thisTrialN,trials.thisN,trials.thisIndex,trials.ran,vessel,active_band,lines,is_signal,supported_pos,catch_trial,debrief_formindex,debrief_formitemText,debrief_formtype,debrief_formitemWidth,debrief_formresponse,debrief_formrt,phases.thisRepN,phases.thisTrialN,phases.thisN,phases.thisIndex,phases.ran,phases.order,phase,key_resp_3.keys,trustitemText,trusttype,trustitemWidth,trustindex,trustresponse,trustrt,support_status.thisRepN,support_status.thisTrialN,support_status.thisN,support_status.thisIndex,support_status.ran,support_status.order,key_resp_5.keys,key_resp_5.rt,globalClockTime,userAgent,manualCondition
TRUE,5bc6299e8b25de0001d909f8,627c6f45909582e54afe8216,2022-05-12_04h22.44.061,classification_task,2021.2.3,Win32,59.81934558,627c6715c52fd12f31907bcf,,,,,,,,,,,,,,,,,,,,,,,,,,,,,,,,,,,,,,,,,,,,,,,,,,,,,,,,,,,,,,,,,,,,,
,5bc6299e8b25de0001d909f8,627c6f45909582e54afe8216,2022-05-12_04h22.44.061,classification_task,2021.2.3,Win32,59.81934558,627c6715c52fd12f31907bcf,"[[""0.215"",""0.330"",""0.845"",""0.887""],[""0.264"",""0.463"",""0.942"",""0.975""]]","[[""0.060"",""0.427"",""0.652"",""0.782""],[""0.156"",""0.373"",""0.524"",""0.696""]]","[1,10]","[100,1000]",Video game experience,,,0.7,0,,,,,,,,,,,,,,,,,,,,,,,,,,,,,,,,,,,,,,,,,,,,,,,,,,,,,,,,,,,,
,5bc6299e8b25de0001d909f8,627c6f45909582e54afe8216,2022-05-12_04h22.44.061,classification_task,2021.2.3,Win32,59.81934558,627c6715c52fd12f31907bcf,,,,,Approximately how many hours did you spend playing video games in the last week?,,,0.7,0,10,,,,,,,,,,,,,,,,,,,,,,,,,,,,,,,,,,,,,,,,,,,,,,,,,,,,,,,,,,,
,5bc6299e8b25de0001d909f8,627c6f45909582e54afe8216,2022-05-12_04h22.44.061,classification_task,2021.2.3,Win32,59.81934558,627c6715c52fd12f31907bcf,,,,,"Which game did you play the most this year? (Enter ""None"" if you didn't play any)",,,0.7,0,My Summer Car,,,,,,,,,,,,,,,,,,,,,,,,,,,,,,,,,,,,,,,,,,,,,,,,,,,,,,,,,,,
,5bc6299e8b25de0001d909f8,627c6f45909582e54afe8216,2022-05-12_04h22.44.061,classification_task,2021.2.3,Win32,59.81934558,627c6715c52fd12f31907bcf,,,,,Visual perception,,,0.7,0,,,,,,,,,,,,,,,,,,,,,,,,,,,,,,,,,,,,,,,,,,,,,,,,,,,,,,,,,,,,
,5bc6299e8b25de0001d909f8,627c6f45909582e54afe8216,2022-05-12_04h22.44.061,classification_task,2021.2.3,Win32,59.81934558,627c6715c52fd12f31907bcf,,,,,Do you have any form of color blindness?,,,0.7,0,No,39.9006,,,,,,,,,,,,,,,,,,,,,,,,,,,,,,,,,,,,,,,,,,,,,,,,,,,,,,,,,,
,5bc6299e8b25de0001d909f8,627c6f45909582e54afe8216,2022-05-12_04h22.44.061,classification_task,2021.2.3,Win32,59.81934558,627c6715c52fd12f31907bcf,,,,,Do you use software to change the colour temperature of your screen (e.g. f.lux)?,,,0.7,0,Yes,44.0035,,,,,,,,,,,,,,,,,,,,,,,,,,,,,,,,,,,,,,,,,,,,,,,,,,,,,,,,,,
,5bc6299e8b25de0001d909f8,627c6f45909582e54afe8216,2022-05-12_04h22.44.061,classification_task,2021.2.3,Win32,59.81934558,627c6715c52fd12f31907bcf,,,,,,,,,,,,space,45.4008,space,6.8284,0,0,0,0,1,,,,,,,,,,,,,,,,,,,,,,,,,,,,,,,,,,,,,,,,,,,,,,,,,
,5bc6299e8b25de0001d909f8,627c6f45909582e54afe8216,2022-05-12_04h22.44.061,classification_task,2021.2.3,Win32,59.81934558,627c6715c52fd12f31907bcf,,,,,,,,,,,,,,space,7.613,1,0,1,0,1,,,,,,,,,,,,,,,,,,,,,,,,,,,,,,,,,,,,,,,,,,,,,,,,,
,5bc6299e8b25de0001d909f8,627c6f45909582e54afe8216,2022-05-12_04h22.44.061,classification_task,2021.2.3,Win32,59.81934558,627c6715c52fd12f31907bcf,,,,,,,,,,,,,,space,21.7074,2,0,2,0,1,,,,,,,,,,,,,,,,,,,,,,,,,,,,,,,,,,,,,,,,,,,,,,,,,
,5bc6299e8b25de0001d909f8,627c6f45909582e54afe8216,2022-05-12_04h22.44.061,classification_task,2021.2.3,Win32,59.81934558,627c6715c52fd12f31907bcf,,,,,,,,,,,,,,space,16.4938,3,0,3,0,1,,,,,,,,,,,,,,,,,,,,,,,,,,,,,,,,,,,,,,,,,,,,,,,,,
,5bc6299e8b25de0001d909f8,627c6f45909582e54afe8216,2022-05-12_04h22.44.061,classification_task,2021.2.3,Win32,59.81934558,627c6715c52fd12f31907bcf,,,,,,,,,,,,,,space,15.6792,4,0,4,0,1,,,,,,,,,,,,,,,,,,,,,,,,,,,,,,,,,,,,,,,,,,,,,,,,,
,5bc6299e8b25de0001d909f8,627c6f45909582e54afe8216,2022-05-12_04h22.44.061,classification_task,2021.2.3,Win32,59.81934558,627c6715c52fd12f31907bcf,,,,,,,,,,,,,,,,,,,,,space,15.1823,l,1,5.2793,"[""0.156"",""0.373"",""0.524"",""0.585""]","[1,1,1,0]",0,0,0,0,1,1,1,,,0,FALSE,,,,,,,,,,,,,,,,,,,,,,,,,,,,,,,
,5bc6299e8b25de0001d909f8,627c6f45909582e54afe8216,2022-05-12_04h22.44.061,classification_task,2021.2.3,Win32,59.81934558,627c6715c52fd12f31907bcf,,,,,,,,,,,,,,,,,,,,,,,l,0,2.3342,"[""0.215"",""0.604"",""0.845"",""0.887""]","[1,0,1,1]",0,1,1,1,1,0,0,,,0,FALSE,,,,,,,,,,,,,,,,,,,,,,,,,,,,,,,
,5bc6299e8b25de0001d909f8,627c6f45909582e54afe8216,2022-05-12_04h22.44.061,classification_task,2021.2.3,Win32,59.81934558,627c6715c52fd12f31907bcf,,,,,,,,,,,,,,,,,,,,,,,a,1,1.6259,"[""0.215"",""0.330"",""0.579"",""0.887""]","[1,1,0,1]",0,2,2,2,1,0,0,,,0,FALSE,,,,,,,,,,,,,,,,,,,,,,,,,,,,,,,
,5bc6299e8b25de0001d909f8,627c6f45909582e54afe8216,2022-05-12_04h22.44.061,classification_task,2021.2.3,Win32,59.81934558,627c6715c52fd12f31907bcf,,,,,,,,,,,,,,,,,,,,,,,l,1,3.936,"[""0.156"",""0.603"",""0.524"",""0.696""]","[1,0,1,1]",0,3,3,3,1,1,1,,,0,FALSE,,,,,,,,,,,,,,,,,,,,,,,,,,,,,,,
,5bc6299e8b25de0001d909f8,627c6f45909582e54afe8216,2022-05-12_04h22.44.061,classification_task,2021.2.3,Win32,59.81934558,627c6715c52fd12f31907bcf,,,,,,,,,,,,,,,,,,,,,,,a,0,3.1534,"[""0.579"",""0.427"",""0.652"",""0.782""]","[0,1,1,1]",0,4,4,4,1,1,0,,,0,FALSE,,,,,,,,,,,,,,,,,,,,,,,,,,,,,,,
,5bc6299e8b25de0001d909f8,627c6f45909582e54afe8216,2022-05-12_04h22.44.061,classification_task,2021.2.3,Win32,59.81934558,627c6715c52fd12f31907bcf,,,,,,,,,,,,,,,,,,,,,,,l,1,3.6092,"[""0.588"",""0.373"",""0.524"",""0.696""]","[0,1,1,1]",0,5,5,5,1,1,1,,,0,FALSE,,,,,,,,,,,,,,,,,,,,,,,,,,,,,,,
,5bc6299e8b25de0001d909f8,627c6f45909582e54afe8216,2022-05-12_04h22.44.061,classification_task,2021.2.3,Win32,59.81934558,627c6715c52fd12f31907bcf,,,,,,,,,,,,,,,,,,,,,,,a,1,2.0357,"[""0.264"",""0.110"",""0.942"",""0.975""]","[1,0,1,1]",0,6,6,6,1,0,1,,,0,FALSE,,,,,,,,,,,,,,,,,,,,,,,,,,,,,,,
,5bc6299e8b25de0001d909f8,627c6f45909582e54afe8216,2022-05-12_04h22.44.061,classification_task,2021.2.3,Win32,59.81934558,627c6715c52fd12f31907bcf,,,,,,,,,,,,,,,,,,,,,,,a,0,6.5154,"[""0.060"",""0.427"",""0.652"",""0.604""]","[1,1,1,0]",0,7,7,7,1,1,0,,,0,FALSE,,,,,,,,,,,,,,,,,,,,,,,,,,,,,,,
,5bc6299e8b25de0001d909f8,627c6f45909582e54afe8216,2022-05-12_04h22.44.061,classification_task,2021.2.3,Win32,59.81934558,627c6715c52fd12f31907bcf,,,,,,,,,,,,,,,,,,,,,,,l,0,2.4085,"[""0.111"",""0.330"",""0.845"",""0.887""]","[0,1,1,1]",0,8,8,8,1,0,0,,,0,FALSE,,,,,,,,,,,,,,,,,,,,,,,,,,,,,,,
,5bc6299e8b25de0001d909f8,627c6f45909582e54afe8216,2022-05-12_04h22.44.061,classification_task,2021.2.3,Win32,59.81934558,627c6715c52fd12f31907bcf,,,,,,,,,,,,,,,,,,,,,,,l,1,3.0761,"[""0.060"",""0.427"",""0.107"",""0.782""]","[1,1,0,1]",0,9,9,9,1,1,0,,,0,FALSE,,,,,,,,,,,,,,,,,,,,,,,,,,,,,,,
,5bc6299e8b25de0001d909f8,627c6f45909582e54afe8216,2022-05-12_04h22.44.061,classification_task,2021.2.3,Win32,59.81934558,627c6715c52fd12f31907bcf,,,,,,,,,,,,,,,,,,,,,,,l,0,4.5919,"[""0.215"",""0.330"",""0.845"",""0.579""]","[1,1,1,0]",0,10,10,10,1,0,0,,,0,FALSE,,,,,,,,,,,,,,,,,,,,,,,,,,,,,,,
,5bc6299e8b25de0001d909f8,627c6f45909582e54afe8216,2022-05-12_04h22.44.061,classification_task,2021.2.3,Win32,59.81934558,627c6715c52fd12f31907bcf,,,,,,,,,,,,,,,,,,,,,,,l,1,1.9767,"[""0.060"",""0.607"",""0.652"",""0.782""]","[1,0,1,1]",0,11,11,11,1,1,0,,,0,FALSE,,,,,,,,,,,,,,,,,,,,,,,,,,,,,,,
,5bc6299e8b25de0001d909f8,627c6f45909582e54afe8216,2022-05-12_04h22.44.061,classification_task,2021.2.3,Win32,59.81934558,627c6715c52fd12f31907bcf,,,,,,,,,,,,,,,,,,,,,,,a,0,2.5897,"[""0.156"",""0.373"",""0.103"",""0.696""]","[1,1,0,1]",0,12,12,12,1,1,1,,,0,FALSE,,,,,,,,,,,,,,,,,,,,,,,,,,,,,,,
,5bc6299e8b25de0001d909f8,627c6f45909582e54afe8216,2022-05-12_04h22.44.061,classification_task,2021.2.3,Win32,59.81934558,627c6715c52fd12f31907bcf,,,,,,,,,,,,,,,,,,,,,,,l,0,3.4974,"[""0.608"",""0.463"",""0.942"",""0.975""]","[0,1,1,1]",0,13,13,13,1,0,1,,,0,FALSE,,,,,,,,,,,,,,,,,,,,,,,,,,,,,,,
,5bc6299e8b25de0001d909f8,627c6f45909582e54afe8216,2022-05-12_04h22.44.061,classification_task,2021.2.3,Win32,59.81934558,627c6715c52fd12f31907bcf,,,,,,,,,,,,,,,,,,,,,,,a,1,2.4589,"[""0.264"",""0.463"",""0.942"",""0.579""]","[1,1,1,0]",0,14,14,14,1,0,1,,,0,FALSE,,,,,,,,,,,,,,,,,,,,,,,,,,,,,,,
,5bc6299e8b25de0001d909f8,627c6f45909582e54afe8216,2022-05-12_04h22.44.061,classification_task,2021.2.3,Win32,59.81934558,627c6715c52fd12f31907bcf,,,,,,,,,,,,,,,,,,,,,,,a,1,1.8809,"[""0.264"",""0.463"",""0.741"",""0.975""]","[1,1,0,1]",0,15,15,15,1,0,1,,,0,FALSE,,,,,,,,,,,,,,,,,,,,,,,,,,,,,,,
,5bc6299e8b25de0001d909f8,627c6f45909582e54afe8216,2022-05-12_04h22.44.061,classification_task,2021.2.3,Win32,59.81934558,627c6715c52fd12f31907bcf,,,,,,,,,,,,,,,,,,,,,,,l,1,0.9845,"[""0.156"",""0.373"",""0.112"",""0.696""]","[1,1,0,1]",0,16,16,16,1,1,1,,,0,FALSE,,,,,,,,,,,,,,,,,,,,,,,,,,,,,,,
,5bc6299e8b25de0001d909f8,627c6f45909582e54afe8216,2022-05-12_04h22.44.061,classification_task,2021.2.3,Win32,59.81934558,627c6715c52fd12f31907bcf,,,,,,,,,,,,,,,,,,,,,,,l,0,1.8995,"[""0.215"",""0.110"",""0.845"",""0.887""]","[1,0,1,1]",0,17,17,17,1,0,0,,,0,FALSE,,,,,,,,,,,,,,,,,,,,,,,,,,,,,,,
,5bc6299e8b25de0001d909f8,627c6f45909582e54afe8216,2022-05-12_04h22.44.061,classification_task,2021.2.3,Win32,59.81934558,627c6715c52fd12f31907bcf,,,,,,,,,,,,,,,,,,,,,,,l,1,2.5755,"[""0.060"",""0.427"",""0.652"",""0.607""]","[1,1,1,0]",0,18,18,18,1,1,0,,,0,FALSE,,,,,,,,,,,,,,,,,,,,,,,,,,,,,,,
,5bc6299e8b25de0001d909f8,627c6f45909582e54afe8216,2022-05-12_04h22.44.061,classification_task,2021.2.3,Win32,59.81934558,627c6715c52fd12f31907bcf,,,,,,,,,,,,,,,,,,,,,,,l,1,1.8951,"[""0.156"",""0.373"",""0.524"",""0.603""]","[1,1,1,0]",0,19,19,19,1,1,1,,,0,FALSE,,,,,,,,,,,,,,,,,,,,,,,,,,,,,,,
,5bc6299e8b25de0001d909f8,627c6f45909582e54afe8216,2022-05-12_04h22.44.061,classification_task,2021.2.3,Win32,59.81934558,627c6715c52fd12f31907bcf,,,,,,,,,,,,,,,,,,,,,,,a,1,2.9357,"[""0.111"",""0.330"",""0.845"",""0.887""]","[0,1,1,1]",0,20,20,20,1,0,0,,,0,FALSE,,,,,,,,,,,,,,,,,,,,,,,,,,,,,,,
,5bc6299e8b25de0001d909f8,627c6f45909582e54afe8216,2022-05-12_04h22.44.061,classification_task,2021.2.3,Win32,59.81934558,627c6715c52fd12f31907bcf,,,,,,,,,,,,,,,,,,,,,,,l,0,1.7466,"[""0.264"",""0.608"",""0.942"",""0.975""]","[1,0,1,1]",0,21,21,21,1,0,1,,,0,FALSE,,,,,,,,,,,,,,,,,,,,,,,,,,,,,,,
,5bc6299e8b25de0001d909f8,627c6f45909582e54afe8216,2022-05-12_04h22.44.061,classification_task,2021.2.3,Win32,59.81934558,627c6715c52fd12f31907bcf,,,,,,,,,,,,,,,,,,,,,,,a,1,2.7538,"[""0.264"",""0.463"",""0.595"",""0.975""]","[1,1,0,1]",0,22,22,22,1,0,1,,,0,FALSE,,,,,,,,,,,,,,,,,,,,,,,,,,,,,,,
,5bc6299e8b25de0001d909f8,627c6f45909582e54afe8216,2022-05-12_04h22.44.061,classification_task,2021.2.3,Win32,59.81934558,627c6715c52fd12f31907bcf,,,,,,,,,,,,,,,,,,,,,,,a,0,4.703,"[""0.595"",""0.427"",""0.652"",""0.782""]","[0,1,1,1]",0,23,23,23,1,1,0,,,0,FALSE,,,,,,,,,,,,,,,,,,,,,,,,,,,,,,,
,5bc6299e8b25de0001d909f8,627c6f45909582e54afe8216,2022-05-12_04h22.44.061,classification_task,2021.2.3,Win32,59.81934558,627c6715c52fd12f31907bcf,,,,,,,,,,,,,,,,,,,,,,,l,1,2.5947,"[""0.060"",""0.427"",""0.607"",""0.782""]","[1,1,0,1]",0,24,24,24,1,1,0,,,0,FALSE,,,,,,,,,,,,,,,,,,,,,,,,,,,,,,,
,5bc6299e8b25de0001d909f8,627c6f45909582e54afe8216,2022-05-12_04h22.44.061,classification_task,2021.2.3,Win32,59.81934558,627c6715c52fd12f31907bcf,,,,,,,,,,,,,,,,,,,,,,,l,1,2.3707,"[""0.156"",""0.112"",""0.524"",""0.696""]","[1,0,1,1]",0,25,25,25,1,1,1,,,0,FALSE,,,,,,,,,,,,,,,,,,,,,,,,,,,,,,,
,5bc6299e8b25de0001d909f8,627c6f45909582e54afe8216,2022-05-12_04h22.44.061,classification_task,2021.2.3,Win32,59.81934558,627c6715c52fd12f31907bcf,,,,,,,,,,,,,,,,,,,,,,,a,0,6.149,"[""0.107"",""0.373"",""0.524"",""0.696""]","[0,1,1,1]",0,26,26,26,1,1,1,,,0,FALSE,,,,,,,,,,,,,,,,,,,,,,,,,,,,,,,
,5bc6299e8b25de0001d909f8,627c6f45909582e54afe8216,2022-05-12_04h22.44.061,classification_task,2021.2.3,Win32,59.81934558,627c6715c52fd12f31907bcf,,,,,,,,,,,,,,,,,,,,,,,l,0,1.6242,"[""0.264"",""0.463"",""0.942"",""0.608""]","[1,1,1,0]",0,27,27,27,1,0,1,,,0,FALSE,,,,,,,,,,,,,,,,,,,,,,,,,,,,,,,
,5bc6299e8b25de0001d909f8,627c6f45909582e54afe8216,2022-05-12_04h22.44.061,classification_task,2021.2.3,Win32,59.81934558,627c6715c52fd12f31907bcf,,,,,,,,,,,,,,,,,,,,,,,l,1,2.7522,"[""0.060"",""0.103"",""0.652"",""0.782""]","[1,0,1,1]",0,28,28,28,1,1,0,,,0,FALSE,,,,,,,,,,,,,,,,,,,,,,,,,,,,,,,
,5bc6299e8b25de0001d909f8,627c6f45909582e54afe8216,2022-05-12_04h22.44.061,classification_task,2021.2.3,Win32,59.81934558,627c6715c52fd12f31907bcf,,,,,,,,,,,,,,,,,,,,,,,l,0,5.8069,"[""0.215"",""0.330"",""0.604"",""0.887""]","[1,1,0,1]",0,29,29,29,1,0,0,,,0,FALSE,,,,,,,,,,,,,,,,,,,,,,,,,,,,,,,
,5bc6299e8b25de0001d909f8,627c6f45909582e54afe8216,2022-05-12_04h22.44.061,classification_task,2021.2.3,Win32,59.81934558,627c6715c52fd12f31907bcf,,,,,,,,,,,,,,,,,,,,,,,l,0,1.2924,"[""0.215"",""0.330"",""0.845"",""0.113""]","[1,1,1,0]",0,30,30,30,1,0,0,,,0,FALSE,,,,,,,,,,,,,,,,,,,,,,,,,,,,,,,
,5bc6299e8b25de0001d909f8,627c6f45909582e54afe8216,2022-05-12_04h22.44.061,classification_task,2021.2.3,Win32,59.81934558,627c6715c52fd12f31907bcf,,,,,,,,,,,,,,,,,,,,,,,a,1,2.3622,"[""0.587"",""0.463"",""0.942"",""0.975""]","[0,1,1,1]",0,31,31,31,1,0,1,,,0,FALSE,,,,,,,,,,,,,,,,,,,,,,,,,,,,,,,
,5bc6299e8b25de0001d909f8,627c6f45909582e54afe8216,2022-05-12_04h22.44.061,classification_task,2021.2.3,Win32,59.81934558,627c6715c52fd12f31907bcf,,,,,,,,,,,,,,,,,,,,,,,a,1,2.4464,"[""0.264"",""0.463"",""0.603"",""0.975""]","[1,1,0,1]",0,32,32,32,1,0,1,,,0,FALSE,,,,,,,,,,,,,,,,,,,,,,,,,,,,,,,
,5bc6299e8b25de0001d909f8,627c6f45909582e54afe8216,2022-05-12_04h22.44.061,classification_task,2021.2.3,Win32,59.81934558,627c6715c52fd12f31907bcf,,,,,,,,,,,,,,,,,,,,,,,l,1,1.6757,"[""0.156"",""0.373"",""0.524"",""0.112""]","[1,1,1,0]",0,33,33,33,1,1,1,,,0,FALSE,,,,,,,,,,,,,,,,,,,,,,,,,,,,,,,
,5bc6299e8b25de0001d909f8,627c6f45909582e54afe8216,2022-05-12_04h22.44.061,classification_task,2021.2.3,Win32,59.81934558,627c6715c52fd12f31907bcf,,,,,,,,,,,,,,,,,,,,,,,l,0,1.3421,"[""0.215"",""0.330"",""0.845"",""0.607""]","[1,1,1,0]",0,34,34,34,1,0,0,,,0,FALSE,,,,,,,,,,,,,,,,,,,,,,,,,,,,,,,
,5bc6299e8b25de0001d909f8,627c6f45909582e54afe8216,2022-05-12_04h22.44.061,classification_task,2021.2.3,Win32,59.81934558,627c6715c52fd12f31907bcf,,,,,,,,,,,,,,,,,,,,,,,a,0,1.8335,"[""0.060"",""0.427"",""0.588"",""0.782""]","[1,1,0,1]",0,35,35,35,1,1,0,,,0,FALSE,,,,,,,,,,,,,,,,,,,,,,,,,,,,,,,
,5bc6299e8b25de0001d909f8,627c6f45909582e54afe8216,2022-05-12_04h22.44.061,classification_task,2021.2.3,Win32,59.81934558,627c6715c52fd12f31907bcf,,,,,,,,,,,,,,,,,,,,,,,a,0,2.4161,"[""0.579"",""0.427"",""0.652"",""0.782""]","[0,1,1,1]",0,36,36,36,1,1,0,,,0,FALSE,,,,,,,,,,,,,,,,,,,,,,,,,,,,,,,
,5bc6299e8b25de0001d909f8,627c6f45909582e54afe8216,2022-05-12_04h22.44.061,classification_task,2021.2.3,Win32,59.81934558,627c6715c52fd12f31907bcf,,,,,,,,,,,,,,,,,,,,,,,l,1,2.843,"[""0.585"",""0.373"",""0.524"",""0.696""]","[0,1,1,1]",0,37,37,37,1,1,1,,,0,FALSE,,,,,,,,,,,,,,,,,,,,,,,,,,,,,,,
,5bc6299e8b25de0001d909f8,627c6f45909582e54afe8216,2022-05-12_04h22.44.061,classification_task,2021.2.3,Win32,59.81934558,627c6715c52fd12f31907bcf,,,,,,,,,,,,,,,,,,,,,,,l,0,1.8771,"[""0.215"",""0.595"",""0.845"",""0.887""]","[1,0,1,1]",0,38,38,38,1,0,0,,,0,FALSE,,,,,,,,,,,,,,,,,,,,,,,,,,,,,,,
,5bc6299e8b25de0001d909f8,627c6f45909582e54afe8216,2022-05-12_04h22.44.061,classification_task,2021.2.3,Win32,59.81934558,627c6715c52fd12f31907bcf,,,,,,,,,,,,,,,,,,,,,,,l,0,1.8229,"[""0.588"",""0.330"",""0.845"",""0.887""]","[0,1,1,1]",0,39,39,39,1,0,0,,,0,FALSE,,,,,,,,,,,,,,,,,,,,,,,,,,,,,,,
,5bc6299e8b25de0001d909f8,627c6f45909582e54afe8216,2022-05-12_04h22.44.061,classification_task,2021.2.3,Win32,59.81934558,627c6715c52fd12f31907bcf,,,,,,,,,,,,,,,,,,,,,,,a,1,2.3628,"[""0.264"",""0.111"",""0.942"",""0.975""]","[1,0,1,1]",0,40,40,40,1,0,1,,,0,FALSE,,,,,,,,,,,,,,,,,,,,,,,,,,,,,,,
,5bc6299e8b25de0001d909f8,627c6f45909582e54afe8216,2022-05-12_04h22.44.061,classification_task,2021.2.3,Win32,59.81934558,627c6715c52fd12f31907bcf,,,,,,,,,,,,,,,,,,,,,,,a,1,4.0159,"[""0.264"",""0.463"",""0.942"",""0.107""]","[1,1,1,0]",0,41,41,41,1,0,1,,,0,FALSE,,,,,,,,,,,,,,,,,,,,,,,,,,,,,,,
,5bc6299e8b25de0001d909f8,627c6f45909582e54afe8216,2022-05-12_04h22.44.061,classification_task,2021.2.3,Win32,59.81934558,627c6715c52fd12f31907bcf,,,,,,,,,,,,,,,,,,,,,,,l,1,2.0822,"[""0.156"",""0.112"",""0.524"",""0.696""]","[1,0,1,1]",0,42,42,42,1,1,1,,,0,FALSE,,,,,,,,,,,,,,,,,,,,,,,,,,,,,,,
,5bc6299e8b25de0001d909f8,627c6f45909582e54afe8216,2022-05-12_04h22.44.061,classification_task,2021.2.3,Win32,59.81934558,627c6715c52fd12f31907bcf,,,,,,,,,,,,,,,,,,,,,,,l,1,1.1171,"[""0.156"",""0.373"",""0.603"",""0.696""]","[1,1,0,1]",0,43,43,43,1,1,1,,,0,FALSE,,,,,,,,,,,,,,,,,,,,,,,,,,,,,,,
,5bc6299e8b25de0001d909f8,627c6f45909582e54afe8216,2022-05-12_04h22.44.061,classification_task,2021.2.3,Win32,59.81934558,627c6715c52fd12f31907bcf,,,,,,,,,,,,,,,,,,,,,,,l,0,1.6014,"[""0.585"",""0.463"",""0.942"",""0.975""]","[0,1,1,1]",0,44,44,44,1,0,1,,,0,FALSE,,,,,,,,,,,,,,,,,,,,,,,,,,,,,,,
,5bc6299e8b25de0001d909f8,627c6f45909582e54afe8216,2022-05-12_04h22.44.061,classification_task,2021.2.3,Win32,59.81934558,627c6715c52fd12f31907bcf,,,,,,,,,,,,,,,,,,,,,,,l,1,1.3271,"[""0.060"",""0.427"",""0.652"",""0.103""]","[1,1,1,0]",0,45,45,45,1,1,0,,,0,FALSE,,,,,,,,,,,,,,,,,,,,,,,,,,,,,,,
,5bc6299e8b25de0001d909f8,627c6f45909582e54afe8216,2022-05-12_04h22.44.061,classification_task,2021.2.3,Win32,59.81934558,627c6715c52fd12f31907bcf,,,,,,,,,,,,,,,,,,,,,,,l,1,1.2511,"[""0.060"",""0.585"",""0.652"",""0.782""]","[1,0,1,1]",0,46,46,46,1,1,0,,,0,FALSE,,,,,,,,,,,,,,,,,,,,,,,,,,,,,,,
,5bc6299e8b25de0001d909f8,627c6f45909582e54afe8216,2022-05-12_04h22.44.061,classification_task,2021.2.3,Win32,59.81934558,627c6715c52fd12f31907bcf,,,,,,,,,,,,,,,,,,,,,,,l,0,1.8901,"[""0.215"",""0.330"",""0.103"",""0.887""]","[1,1,0,1]",0,47,47,47,1,0,0,,,0,FALSE,,,,,,,,,,,,,,,,,,,,,,,,,,,,,,,
,5bc6299e8b25de0001d909f8,627c6f45909582e54afe8216,2022-05-12_04h22.44.061,classification_task,2021.2.3,Win32,59.81934558,627c6715c52fd12f31907bcf,,,,,,,,,,,,,,,,,,,,,,,a,1,2.1759,"[""0.215"",""0.330"",""0.103"",""0.887""]","[1,1,0,1]",0,48,48,48,1,0,0,,,0,FALSE,,,,,,,,,,,,,,,,,,,,,,,,,,,,,,,
,5bc6299e8b25de0001d909f8,627c6f45909582e54afe8216,2022-05-12_04h22.44.061,classification_task,2021.2.3,Win32,59.81934558,627c6715c52fd12f31907bcf,,,,,,,,,,,,,,,,,,,,,,,l,1,1.7532,"[""0.156"",""0.373"",""0.741"",""0.696""]","[1,1,0,1]",0,49,49,49,1,1,1,,,0,FALSE,,,,,,,,,,,,,,,,,,,,,,,,,,,,,,,
,5bc6299e8b25de0001d909f8,627c6f45909582e54afe8216,2022-05-12_04h22.44.061,classification_task,2021.2.3,Win32,59.81934558,627c6715c52fd12f31907bcf,,,,,,,,,,,,,,,,,,,,,,,a,0,1.4577,"[""0.603"",""0.427"",""0.652"",""0.782""]","[0,1,1,1]",0,50,50,50,1,1,0,,,0,FALSE,,,,,,,,,,,,,,,,,,,,,,,,,,,,,,,
,5bc6299e8b25de0001d909f8,627c6f45909582e54afe8216,2022-05-12_04h22.44.061,classification_task,2021.2.3,Win32,59.81934558,627c6715c52fd12f31907bcf,,,,,,,,,,,,,,,,,,,,,,,l,1,1.6098,"[""0.060"",""0.112"",""0.652"",""0.782""]","[1,0,1,1]",0,51,51,51,1,1,0,,,0,FALSE,,,,,,,,,,,,,,,,,,,,,,,,,,,,,,,
,5bc6299e8b25de0001d909f8,627c6f45909582e54afe8216,2022-05-12_04h22.44.061,classification_task,2021.2.3,Win32,59.81934558,627c6715c52fd12f31907bcf,,,,,,,,,,,,,,,,,,,,,,,a,0,2.1169,"[""0.060"",""0.427"",""0.608"",""0.782""]","[1,1,0,1]",0,52,52,52,1,1,0,,,0,FALSE,,,,,,,,,,,,,,,,,,,,,,,,,,,,,,,
,5bc6299e8b25de0001d909f8,627c6f45909582e54afe8216,2022-05-12_04h22.44.061,classification_task,2021.2.3,Win32,59.81934558,627c6715c52fd12f31907bcf,,,,,,,,,,,,,,,,,,,,,,,l,1,1.759,"[""0.603"",""0.373"",""0.524"",""0.696""]","[0,1,1,1]",0,53,53,53,1,1,1,,,0,FALSE,,,,,,,,,,,,,,,,,,,,,,,,,,,,,,,
,5bc6299e8b25de0001d909f8,627c6f45909582e54afe8216,2022-05-12_04h22.44.061,classification_task,2021.2.3,Win32,59.81934558,627c6715c52fd12f31907bcf,,,,,,,,,,,,,,,,,,,,,,,l,0,0.9938,"[""0.579"",""0.463"",""0.942"",""0.975""]","[0,1,1,1]",0,54,54,54,1,0,1,,,0,FALSE,,,,,,,,,,,,,,,,,,,,,,,,,,,,,,,
,5bc6299e8b25de0001d909f8,627c6f45909582e54afe8216,2022-05-12_04h22.44.061,classification_task,2021.2.3,Win32,59.81934558,627c6715c52fd12f31907bcf,,,,,,,,,,,,,,,,,,,,,,,l,0,0.8271,"[""0.215"",""0.330"",""0.845"",""0.579""]","[1,1,1,0]",0,55,55,55,1,0,0,,,0,FALSE,,,,,,,,,,,,,,,,,,,,,,,,,,,,,,,
,5bc6299e8b25de0001d909f8,627c6f45909582e54afe8216,2022-05-12_04h22.44.061,classification_task,2021.2.3,Win32,59.81934558,627c6715c52fd12f31907bcf,,,,,,,,,,,,,,,,,,,,,,,l,1,1.4207,"[""0.060"",""0.427"",""0.652"",""0.579""]","[1,1,1,0]",0,56,56,56,1,1,0,,,0,FALSE,,,,,,,,,,,,,,,,,,,,,,,,,,,,,,,
,5bc6299e8b25de0001d909f8,627c6f45909582e54afe8216,2022-05-12_04h22.44.061,classification_task,2021.2.3,Win32,59.81934558,627c6715c52fd12f31907bcf,,,,,,,,,,,,,,,,,,,,,,,a,1,1.9656,"[""0.264"",""0.585"",""0.942"",""0.975""]","[1,0,1,1]",0,57,57,57,1,0,1,,,0,FALSE,,,,,,,,,,,,,,,,,,,,,,,,,,,,,,,
,5bc6299e8b25de0001d909f8,627c6f45909582e54afe8216,2022-05-12_04h22.44.061,classification_task,2021.2.3,Win32,59.81934558,627c6715c52fd12f31907bcf,,,,,,,,,,,,,,,,,,,,,,,a,1,1.4753,"[""0.215"",""0.112"",""0.845"",""0.887""]","[1,0,1,1]",0,58,58,58,1,0,0,,,0,FALSE,,,,,,,,,,,,,,,,,,,,,,,,,,,,,,,
,5bc6299e8b25de0001d909f8,627c6f45909582e54afe8216,2022-05-12_04h22.44.061,classification_task,2021.2.3,Win32,59.81934558,627c6715c52fd12f31907bcf,,,,,,,,,,,,,,,,,,,,,,,a,0,1.2017,"[""0.156"",""0.110"",""0.524"",""0.696""]","[1,0,1,1]",0,59,59,59,1,1,1,,,0,FALSE,,,,,,,,,,,,,,,,,,,,,,,,,,,,,,,
,5bc6299e8b25de0001d909f8,627c6f45909582e54afe8216,2022-05-12_04h22.44.061,classification_task,2021.2.3,Win32,59.81934558,627c6715c52fd12f31907bcf,,,,,,,,,,,,,,,,,,,,,,,l,0,2.1001,"[""0.595"",""0.330"",""0.845"",""0.887""]","[0,1,1,1]",0,60,60,60,1,0,0,,,0,FALSE,,,,,,,,,,,,,,,,,,,,,,,,,,,,,,,
,5bc6299e8b25de0001d909f8,627c6f45909582e54afe8216,2022-05-12_04h22.44.061,classification_task,2021.2.3,Win32,59.81934558,627c6715c52fd12f31907bcf,,,,,,,,,,,,,,,,,,,,,,,a,1,1.6412,"[""0.264"",""0.463"",""0.942"",""0.608""]","[1,1,1,0]",0,61,61,61,1,0,1,,,0,FALSE,,,,,,,,,,,,,,,,,,,,,,,,,,,,,,,
,5bc6299e8b25de0001d909f8,627c6f45909582e54afe8216,2022-05-12_04h22.44.061,classification_task,2021.2.3,Win32,59.81934558,627c6715c52fd12f31907bcf,,,,,,,,,,,,,,,,,,,,,,,a,0,0.6012,"[""0.156"",""0.373"",""0.524"",""0.579""]","[1,1,1,0]",0,62,62,62,1,1,1,,,0,FALSE,,,,,,,,,,,,,,,,,,,,,,,,,,,,,,,
,5bc6299e8b25de0001d909f8,627c6f45909582e54afe8216,2022-05-12_04h22.44.061,classification_task,2021.2.3,Win32,59.81934558,627c6715c52fd12f31907bcf,,,,,,,,,,,,,,,,,,,,,,,a,1,1.1894,"[""0.264"",""0.463"",""0.604"",""0.975""]","[1,1,0,1]",0,63,63,63,1,0,1,,,0,FALSE,,,,,,,,,,,,,,,,,,,,,,,,,,,,,,,
,5bc6299e8b25de0001d909f8,627c6f45909582e54afe8216,2022-05-12_04h22.44.061,classification_task,2021.2.3,Win32,59.81934558,627c6715c52fd12f31907bcf,,,,,,,,,,,,,,,,,,,,,,,,,,,,,,,,,,,,,,,0, ,,0,2.728051752,466.7597,0,0,0,0,1,2,1,,,,,,,,,,,,,,,,,,
,5bc6299e8b25de0001d909f8,627c6f45909582e54afe8216,2022-05-12_04h22.44.061,classification_task,2021.2.3,Win32,59.81934558,627c6715c52fd12f31907bcf,,,,,,,,,,,,,,,,,,,,,,,,,,,,,,,,,,,,,,,1,  ,,0,7.284196693,484.4613,0,0,0,0,1,2,1,,,,,,,,,,,,,,,,,,
,5bc6299e8b25de0001d909f8,627c6f45909582e54afe8216,2022-05-12_04h22.44.061,classification_task,2021.2.3,Win32,59.81934558,627c6715c52fd12f31907bcf,,,,,,,,,,,,,,,,,,,,,,,,,,,,,,,,,,,,,,,2,  ,,0,0.278512266,494.4732,0,0,0,0,1,2,1,,,,,,,,,,,,,,,,,,
,5bc6299e8b25de0001d909f8,627c6f45909582e54afe8216,2022-05-12_04h22.44.061,classification_task,2021.2.3,Win32,59.81934558,627c6715c52fd12f31907bcf,,,,,,,,,,,,,,,,,,,,,,,,,,,,,,,,,,,,,,,,,,,,,0,0,0,0,1,,1,,,,,,,,,,,,,,,,,,
,5bc6299e8b25de0001d909f8,627c6f45909582e54afe8216,2022-05-12_04h22.44.061,classification_task,2021.2.3,Win32,59.81934558,627c6715c52fd12f31907bcf,,,,,,,,,,,,,,,,,,,,,space,12.596,a,1,2.5423,"[""0.215"",""0.330"",""0.845"",""0.595""]","[1,1,1,0]",0,0,0,0,1,0,0,,,0,FALSE,,,,,,,,,,,,,,,,,,,,,,,,,,,,,,,
,5bc6299e8b25de0001d909f8,627c6f45909582e54afe8216,2022-05-12_04h22.44.061,classification_task,2021.2.3,Win32,59.81934558,627c6715c52fd12f31907bcf,,,,,,,,,,,,,,,,,,,,,,,l,0,2.1002,"[""0.264"",""0.103"",""0.942"",""0.975""]","[1,0,1,1]",0,1,1,1,1,0,1,,,0,FALSE,,,,,,,,,,,,,,,,,,,,,,,,,,,,,,,
,5bc6299e8b25de0001d909f8,627c6f45909582e54afe8216,2022-05-12_04h22.44.061,classification_task,2021.2.3,Win32,59.81934558,627c6715c52fd12f31907bcf,,,,,,,,,,,,,,,,,,,,,,,a,0,4.3834,"[""0.587"",""0.427"",""0.652"",""0.782""]","[0,1,1,1]",0,2,2,2,1,1,0,,,0,FALSE,,,,,,,,,,,,,,,,,,,,,,,,,,,,,,,
,5bc6299e8b25de0001d909f8,627c6f45909582e54afe8216,2022-05-12_04h22.44.061,classification_task,2021.2.3,Win32,59.81934558,627c6715c52fd12f31907bcf,,,,,,,,,,,,,,,,,,,,,,,a,1,1.801,"[""0.215"",""0.595"",""0.845"",""0.887""]","[1,0,1,1]",0,3,3,3,1,0,0,,,0,FALSE,,,,,,,,,,,,,,,,,,,,,,,,,,,,,,,
,5bc6299e8b25de0001d909f8,627c6f45909582e54afe8216,2022-05-12_04h22.44.061,classification_task,2021.2.3,Win32,59.81934558,627c6715c52fd12f31907bcf,,,,,,,,,,,,,,,,,,,,,,,l,1,2.433,"[""0.060"",""0.427"",""0.103"",""0.782""]","[1,1,0,1]",0,4,4,4,1,1,0,,,0,FALSE,,,,,,,,,,,,,,,,,,,,,,,,,,,,,,,
,5bc6299e8b25de0001d909f8,627c6f45909582e54afe8216,2022-05-12_04h22.44.061,classification_task,2021.2.3,Win32,59.81934558,627c6715c52fd12f31907bcf,,,,,,,,,,,,,,,,,,,,,,,l,0,4.9162,"[""0.264"",""0.463"",""0.113"",""0.975""]","[1,1,0,1]",0,5,5,5,1,0,1,,,0,FALSE,,,,,,,,,,,,,,,,,,,,,,,,,,,,,,,
,5bc6299e8b25de0001d909f8,627c6f45909582e54afe8216,2022-05-12_04h22.44.061,classification_task,2021.2.3,Win32,59.81934558,627c6715c52fd12f31907bcf,,,,,,,,,,,,,,,,,,,,,,,l,1,1.6505,"[""0.156"",""0.373"",""0.524"",""0.103""]","[1,1,1,0]",0,6,6,6,1,1,1,,,0,FALSE,,,,,,,,,,,,,,,,,,,,,,,,,,,,,,,
,5bc6299e8b25de0001d909f8,627c6f45909582e54afe8216,2022-05-12_04h22.44.061,classification_task,2021.2.3,Win32,59.81934558,627c6715c52fd12f31907bcf,,,,,,,,,,,,,,,,,,,,,,,l,1,3.2162,"[""0.156"",""0.607"",""0.524"",""0.696""]","[1,0,1,1]",0,7,7,7,1,1,1,,,0,FALSE,,,,,,,,,,,,,,,,,,,,,,,,,,,,,,,
,5bc6299e8b25de0001d909f8,627c6f45909582e54afe8216,2022-05-12_04h22.44.061,classification_task,2021.2.3,Win32,59.81934558,627c6715c52fd12f31907bcf,,,,,,,,,,,,,,,,,,,,,,,a,0,1.7506,"[""0.603"",""0.373"",""0.524"",""0.696""]","[0,1,1,1]",0,8,8,8,1,1,1,,,0,FALSE,,,,,,,,,,,,,,,,,,,,,,,,,,,,,,,
,5bc6299e8b25de0001d909f8,627c6f45909582e54afe8216,2022-05-12_04h22.44.061,classification_task,2021.2.3,Win32,59.81934558,627c6715c52fd12f31907bcf,,,,,,,,,,,,,,,,,,,,,,,l,0,2.2338,"[""0.595"",""0.330"",""0.845"",""0.887""]","[0,1,1,1]",0,9,9,9,1,0,0,,,0,FALSE,,,,,,,,,,,,,,,,,,,,,,,,,,,,,,,
,5bc6299e8b25de0001d909f8,627c6f45909582e54afe8216,2022-05-12_04h22.44.061,classification_task,2021.2.3,Win32,59.81934558,627c6715c52fd12f31907bcf,,,,,,,,,,,,,,,,,,,,,,,l,0,2.117,"[""0.215"",""0.330"",""0.595"",""0.887""]","[1,1,0,1]",0,10,10,10,1,0,0,,,0,FALSE,,,,,,,,,,,,,,,,,,,,,,,,,,,,,,,
,5bc6299e8b25de0001d909f8,627c6f45909582e54afe8216,2022-05-12_04h22.44.061,classification_task,2021.2.3,Win32,59.81934558,627c6715c52fd12f31907bcf,,,,,,,,,,,,,,,,,,,,,,,a,0,3.4507,"[""0.156"",""0.373"",""0.604"",""0.696""]","[1,1,0,1]",0,11,11,11,1,1,1,,,0,FALSE,,,,,,,,,,,,,,,,,,,,,,,,,,,,,,,
,5bc6299e8b25de0001d909f8,627c6f45909582e54afe8216,2022-05-12_04h22.44.061,classification_task,2021.2.3,Win32,59.81934558,627c6715c52fd12f31907bcf,,,,,,,,,,,,,,,,,,,,,,,l,1,4.3163,"[""0.060"",""0.427"",""0.652"",""0.607""]","[1,1,1,0]",0,12,12,12,1,1,0,,,0,FALSE,,,,,,,,,,,,,,,,,,,,,,,,,,,,,,,
,5bc6299e8b25de0001d909f8,627c6f45909582e54afe8216,2022-05-12_04h22.44.061,classification_task,2021.2.3,Win32,59.81934558,627c6715c52fd12f31907bcf,,,,,,,,,,,,,,,,,,,,,,,l,0,1.051,"[""0.585"",""0.463"",""0.942"",""0.975""]","[0,1,1,1]",0,13,13,13,1,0,1,,,0,FALSE,,,,,,,,,,,,,,,,,,,,,,,,,,,,,,,
,5bc6299e8b25de0001d909f8,627c6f45909582e54afe8216,2022-05-12_04h22.44.061,classification_task,2021.2.3,Win32,59.81934558,627c6715c52fd12f31907bcf,,,,,,,,,,,,,,,,,,,,,,,l,1,3.4668,"[""0.060"",""0.579"",""0.652"",""0.782""]","[1,0,1,1]",0,14,14,14,1,1,0,,,0,FALSE,,,,,,,,,,,,,,,,,,,,,,,,,,,,,,,
,5bc6299e8b25de0001d909f8,627c6f45909582e54afe8216,2022-05-12_04h22.44.061,classification_task,2021.2.3,Win32,59.81934558,627c6715c52fd12f31907bcf,,,,,,,,,,,,,,,,,,,,,,,a,1,4.0168,"[""0.264"",""0.463"",""0.942"",""0.587""]","[1,1,1,0]",0,15,15,15,1,0,1,,,0,FALSE,,,,,,,,,,,,,,,,,,,,,,,,,,,,,,,
,5bc6299e8b25de0001d909f8,627c6f45909582e54afe8216,2022-05-12_04h22.44.061,classification_task,2021.2.3,Win32,59.81934558,627c6715c52fd12f31907bcf,,,,,,,,,,,,,,,,,,,,,,,a,0,2.0675,"[""0.156"",""0.607"",""0.524"",""0.696""]","[1,0,1,1]",0,16,16,16,1,1,1,,,0,FALSE,,,,,,,,,,,,,,,,,,,,,,,,,,,,,,,
,5bc6299e8b25de0001d909f8,627c6f45909582e54afe8216,2022-05-12_04h22.44.061,classification_task,2021.2.3,Win32,59.81934558,627c6715c52fd12f31907bcf,,,,,,,,,,,,,,,,,,,,,,,l,0,5.7328,"[""0.607"",""0.330"",""0.845"",""0.887""]","[0,1,1,1]",0,17,17,17,1,0,0,,,0,FALSE,,,,,,,,,,,,,,,,,,,,,,,,,,,,,,,
,5bc6299e8b25de0001d909f8,627c6f45909582e54afe8216,2022-05-12_04h22.44.061,classification_task,2021.2.3,Win32,59.81934558,627c6715c52fd12f31907bcf,,,,,,,,,,,,,,,,,,,,,,,a,1,1.8841,"[""0.264"",""0.463"",""0.608"",""0.975""]","[1,1,0,1]",0,18,18,18,1,0,1,,,0,FALSE,,,,,,,,,,,,,,,,,,,,,,,,,,,,,,,
,5bc6299e8b25de0001d909f8,627c6f45909582e54afe8216,2022-05-12_04h22.44.061,classification_task,2021.2.3,Win32,59.81934558,627c6715c52fd12f31907bcf,,,,,,,,,,,,,,,,,,,,,,,a,0,1.434,"[""0.156"",""0.373"",""0.524"",""0.604""]","[1,1,1,0]",0,19,19,19,1,1,1,,,0,FALSE,,,,,,,,,,,,,,,,,,,,,,,,,,,,,,,
,5bc6299e8b25de0001d909f8,627c6f45909582e54afe8216,2022-05-12_04h22.44.061,classification_task,2021.2.3,Win32,59.81934558,627c6715c52fd12f31907bcf,,,,,,,,,,,,,,,,,,,,,,,a,1,1.4503,"[""0.215"",""0.608"",""0.845"",""0.887""]","[1,0,1,1]",0,20,20,20,1,0,0,,,0,FALSE,,,,,,,,,,,,,,,,,,,,,,,,,,,,,,,
,5bc6299e8b25de0001d909f8,627c6f45909582e54afe8216,2022-05-12_04h22.44.061,classification_task,2021.2.3,Win32,59.81934558,627c6715c52fd12f31907bcf,,,,,,,,,,,,,,,,,,,,,,,l,0,3.4329,"[""0.215"",""0.330"",""0.113"",""0.887""]","[1,1,0,1]",0,21,21,21,1,0,0,,,0,FALSE,,,,,,,,,,,,,,,,,,,,,,,,,,,,,,,
,5bc6299e8b25de0001d909f8,627c6f45909582e54afe8216,2022-05-12_04h22.44.061,classification_task,2021.2.3,Win32,59.81934558,627c6715c52fd12f31907bcf,,,,,,,,,,,,,,,,,,,,,,,a,1,1.3675,"[""0.264"",""0.463"",""0.942"",""0.112""]","[1,1,1,0]",0,22,22,22,1,0,1,,,0,FALSE,,,,,,,,,,,,,,,,,,,,,,,,,,,,,,,
,5bc6299e8b25de0001d909f8,627c6f45909582e54afe8216,2022-05-12_04h22.44.061,classification_task,2021.2.3,Win32,59.81934558,627c6715c52fd12f31907bcf,,,,,,,,,,,,,,,,,,,,,,,a,0,1.1005,"[""0.156"",""0.373"",""0.607"",""0.696""]","[1,1,0,1]",0,23,23,23,1,1,1,,,0,FALSE,,,,,,,,,,,,,,,,,,,,,,,,,,,,,,,
,5bc6299e8b25de0001d909f8,627c6f45909582e54afe8216,2022-05-12_04h22.44.061,classification_task,2021.2.3,Win32,59.81934558,627c6715c52fd12f31907bcf,,,,,,,,,,,,,,,,,,,,,,,l,1,1.6503,"[""0.060"",""0.110"",""0.652"",""0.782""]","[1,0,1,1]",0,24,24,24,1,1,0,,,0,FALSE,,,,,,,,,,,,,,,,,,,,,,,,,,,,,,,
,5bc6299e8b25de0001d909f8,627c6f45909582e54afe8216,2022-05-12_04h22.44.061,classification_task,2021.2.3,Win32,59.81934558,627c6715c52fd12f31907bcf,,,,,,,,,,,,,,,,,,,,,,,a,0,3.5831,"[""0.111"",""0.373"",""0.524"",""0.696""]","[0,1,1,1]",0,25,25,25,1,1,1,,,0,FALSE,,,,,,,,,,,,,,,,,,,,,,,,,,,,,,,
,5bc6299e8b25de0001d909f8,627c6f45909582e54afe8216,2022-05-12_04h22.44.061,classification_task,2021.2.3,Win32,59.81934558,627c6715c52fd12f31907bcf,,,,,,,,,,,,,,,,,,,,,,,l,0,1.501,"[""0.264"",""0.588"",""0.942"",""0.975""]","[1,0,1,1]",0,26,26,26,1,0,1,,,0,FALSE,,,,,,,,,,,,,,,,,,,,,,,,,,,,,,,
,5bc6299e8b25de0001d909f8,627c6f45909582e54afe8216,2022-05-12_04h22.44.061,classification_task,2021.2.3,Win32,59.81934558,627c6715c52fd12f31907bcf,,,,,,,,,,,,,,,,,,,,,,,l,1,1.1171,"[""0.060"",""0.427"",""0.652"",""0.579""]","[1,1,1,0]",0,27,27,27,1,1,0,,,0,FALSE,,,,,,,,,,,,,,,,,,,,,,,,,,,,,,,
,5bc6299e8b25de0001d909f8,627c6f45909582e54afe8216,2022-05-12_04h22.44.061,classification_task,2021.2.3,Win32,59.81934558,627c6715c52fd12f31907bcf,,,,,,,,,,,,,,,,,,,,,,,a,0,2.6503,"[""0.060"",""0.427"",""0.595"",""0.782""]","[1,1,0,1]",0,28,28,28,1,1,0,,,0,FALSE,,,,,,,,,,,,,,,,,,,,,,,,,,,,,,,
,5bc6299e8b25de0001d909f8,627c6f45909582e54afe8216,2022-05-12_04h22.44.061,classification_task,2021.2.3,Win32,59.81934558,627c6715c52fd12f31907bcf,,,,,,,,,,,,,,,,,,,,,,,l,0,3.3505,"[""0.215"",""0.330"",""0.845"",""0.595""]","[1,1,1,0]",0,29,29,29,1,0,0,,,0,FALSE,,,,,,,,,,,,,,,,,,,,,,,,,,,,,,,
,5bc6299e8b25de0001d909f8,627c6f45909582e54afe8216,2022-05-12_04h22.44.061,classification_task,2021.2.3,Win32,59.81934558,627c6715c52fd12f31907bcf,,,,,,,,,,,,,,,,,,,,,,,l,0,1.4174,"[""0.107"",""0.463"",""0.942"",""0.975""]","[0,1,1,1]",0,30,30,30,1,0,1,,,0,FALSE,,,,,,,,,,,,,,,,,,,,,,,,,,,,,,,
,5bc6299e8b25de0001d909f8,627c6f45909582e54afe8216,2022-05-12_04h22.44.061,classification_task,2021.2.3,Win32,59.81934558,627c6715c52fd12f31907bcf,,,,,,,,,,,,,,,,,,,,,,,a,0,1.9674,"[""0.113"",""0.427"",""0.652"",""0.782""]","[0,1,1,1]",0,31,31,31,1,1,0,,,0,FALSE,,,,,,,,,,,,,,,,,,,,,,,,,,,,,,,
,5bc6299e8b25de0001d909f8,627c6f45909582e54afe8216,2022-05-12_04h22.44.061,classification_task,2021.2.3,Win32,59.81934558,627c6715c52fd12f31907bcf,,,,,,,,,,,,,,,,,,,,,,,a,1,0.7676,"[""0.110"",""0.330"",""0.845"",""0.887""]","[0,1,1,1]",0,32,32,32,1,0,0,,,0,FALSE,,,,,,,,,,,,,,,,,,,,,,,,,,,,,,,
,5bc6299e8b25de0001d909f8,627c6f45909582e54afe8216,2022-05-12_04h22.44.061,classification_task,2021.2.3,Win32,59.81934558,627c6715c52fd12f31907bcf,,,,,,,,,,,,,,,,,,,,,,,l,0,2.1997,"[""0.264"",""0.463"",""0.595"",""0.975""]","[1,1,0,1]",0,33,33,33,1,0,1,,,0,FALSE,,,,,,,,,,,,,,,,,,,,,,,,,,,,,,,
,5bc6299e8b25de0001d909f8,627c6f45909582e54afe8216,2022-05-12_04h22.44.061,classification_task,2021.2.3,Win32,59.81934558,627c6715c52fd12f31907bcf,,,,,,,,,,,,,,,,,,,,,,,a,0,1.5669,"[""0.060"",""0.604"",""0.652"",""0.782""]","[1,0,1,1]",0,34,34,34,1,1,0,,,0,FALSE,,,,,,,,,,,,,,,,,,,,,,,,,,,,,,,
,5bc6299e8b25de0001d909f8,627c6f45909582e54afe8216,2022-05-12_04h22.44.061,classification_task,2021.2.3,Win32,59.81934558,627c6715c52fd12f31907bcf,,,,,,,,,,,,,,,,,,,,,,,a,0,1.6177,"[""0.060"",""0.427"",""0.112"",""0.782""]","[1,1,0,1]",0,35,35,35,1,1,0,,,0,FALSE,,,,,,,,,,,,,,,,,,,,,,,,,,,,,,,
,5bc6299e8b25de0001d909f8,627c6f45909582e54afe8216,2022-05-12_04h22.44.061,classification_task,2021.2.3,Win32,59.81934558,627c6715c52fd12f31907bcf,,,,,,,,,,,,,,,,,,,,,,,l,0,1.8338,"[""0.215"",""0.579"",""0.845"",""0.887""]","[1,0,1,1]",0,36,36,36,1,0,0,,,0,FALSE,,,,,,,,,,,,,,,,,,,,,,,,,,,,,,,
,5bc6299e8b25de0001d909f8,627c6f45909582e54afe8216,2022-05-12_04h22.44.061,classification_task,2021.2.3,Win32,59.81934558,627c6715c52fd12f31907bcf,,,,,,,,,,,,,,,,,,,,,,,a,0,0.8173,"[""0.060"",""0.427"",""0.652"",""0.110""]","[1,1,1,0]",0,37,37,37,1,1,0,,,0,FALSE,,,,,,,,,,,,,,,,,,,,,,,,,,,,,,,
,5bc6299e8b25de0001d909f8,627c6f45909582e54afe8216,2022-05-12_04h22.44.061,classification_task,2021.2.3,Win32,59.81934558,627c6715c52fd12f31907bcf,,,,,,,,,,,,,,,,,,,,,,,l,1,0.4512,"[""0.156"",""0.373"",""0.524"",""0.604""]","[1,1,1,0]",0,38,38,38,1,1,1,,,0,FALSE,,,,,,,,,,,,,,,,,,,,,,,,,,,,,,,
,5bc6299e8b25de0001d909f8,627c6f45909582e54afe8216,2022-05-12_04h22.44.061,classification_task,2021.2.3,Win32,59.81934558,627c6715c52fd12f31907bcf,,,,,,,,,,,,,,,,,,,,,,,l,0,2.0003,"[""0.215"",""0.330"",""0.845"",""0.113""]","[1,1,1,0]",0,39,39,39,1,0,0,,,0,FALSE,,,,,,,,,,,,,,,,,,,,,,,,,,,,,,,
,5bc6299e8b25de0001d909f8,627c6f45909582e54afe8216,2022-05-12_04h22.44.061,classification_task,2021.2.3,Win32,59.81934558,627c6715c52fd12f31907bcf,,,,,,,,,,,,,,,,,,,,,,,a,0,1.6838,"[""0.156"",""0.373"",""0.588"",""0.696""]","[1,1,0,1]",0,40,40,40,1,1,1,,,0,FALSE,,,,,,,,,,,,,,,,,,,,,,,,,,,,,,,
,5bc6299e8b25de0001d909f8,627c6f45909582e54afe8216,2022-05-12_04h22.44.061,classification_task,2021.2.3,Win32,59.81934558,627c6715c52fd12f31907bcf,,,,,,,,,,,,,,,,,,,,,,,l,0,0.7505,"[""0.215"",""0.330"",""0.741"",""0.887""]","[1,1,0,1]",0,41,41,41,1,0,0,,,0,FALSE,,,,,,,,,,,,,,,,,,,,,,,,,,,,,,,
,5bc6299e8b25de0001d909f8,627c6f45909582e54afe8216,2022-05-12_04h22.44.061,classification_task,2021.2.3,Win32,59.81934558,627c6715c52fd12f31907bcf,,,,,,,,,,,,,,,,,,,,,,,a,0,1.3837,"[""0.585"",""0.373"",""0.524"",""0.696""]","[0,1,1,1]",0,42,42,42,1,1,1,,,0,FALSE,,,,,,,,,,,,,,,,,,,,,,,,,,,,,,,
,5bc6299e8b25de0001d909f8,627c6f45909582e54afe8216,2022-05-12_04h22.44.061,classification_task,2021.2.3,Win32,59.81934558,627c6715c52fd12f31907bcf,,,,,,,,,,,,,,,,,,,,,,,l,0,0.5507,"[""0.595"",""0.463"",""0.942"",""0.975""]","[0,1,1,1]",0,43,43,43,1,0,1,,,0,FALSE,,,,,,,,,,,,,,,,,,,,,,,,,,,,,,,
,5bc6299e8b25de0001d909f8,627c6f45909582e54afe8216,2022-05-12_04h22.44.061,classification_task,2021.2.3,Win32,59.81934558,627c6715c52fd12f31907bcf,,,,,,,,,,,,,,,,,,,,,,,l,1,0.3172,"[""0.156"",""0.579"",""0.524"",""0.696""]","[1,0,1,1]",0,44,44,44,1,1,1,,,0,FALSE,,,,,,,,,,,,,,,,,,,,,,,,,,,,,,,
,5bc6299e8b25de0001d909f8,627c6f45909582e54afe8216,2022-05-12_04h22.44.061,classification_task,2021.2.3,Win32,59.81934558,627c6715c52fd12f31907bcf,,,,,,,,,,,,,,,,,,,,,,,l,1,2.3339,"[""0.608"",""0.427"",""0.652"",""0.782""]","[0,1,1,1]",0,45,45,45,1,1,0,,,0,FALSE,,,,,,,,,,,,,,,,,,,,,,,,,,,,,,,
,5bc6299e8b25de0001d909f8,627c6f45909582e54afe8216,2022-05-12_04h22.44.061,classification_task,2021.2.3,Win32,59.81934558,627c6715c52fd12f31907bcf,,,,,,,,,,,,,,,,,,,,,,,l,0,1.3516,"[""0.264"",""0.463"",""0.942"",""0.579""]","[1,1,1,0]",0,46,46,46,1,0,1,,,0,FALSE,,,,,,,,,,,,,,,,,,,,,,,,,,,,,,,
,5bc6299e8b25de0001d909f8,627c6f45909582e54afe8216,2022-05-12_04h22.44.061,classification_task,2021.2.3,Win32,59.81934558,627c6715c52fd12f31907bcf,,,,,,,,,,,,,,,,,,,,,,,l,0,1.7492,"[""0.264"",""0.607"",""0.942"",""0.975""]","[1,0,1,1]",0,47,47,47,1,0,1,,,0,FALSE,,,,,,,,,,,,,,,,,,,,,,,,,,,,,,,
,5bc6299e8b25de0001d909f8,627c6f45909582e54afe8216,2022-05-12_04h22.44.061,classification_task,2021.2.3,Win32,59.81934558,627c6715c52fd12f31907bcf,,,,,,,,,,,,,,,,,,,,,,,a,0,1.8836,"[""0.156"",""0.373"",""0.607"",""0.696""]","[1,1,0,1]",0,48,48,48,1,1,1,,,0,FALSE,,,,,,,,,,,,,,,,,,,,,,,,,,,,,,,
,5bc6299e8b25de0001d909f8,627c6f45909582e54afe8216,2022-05-12_04h22.44.061,classification_task,2021.2.3,Win32,59.81934558,627c6715c52fd12f31907bcf,,,,,,,,,,,,,,,,,,,,,,,a,1,1.8345,"[""0.103"",""0.463"",""0.942"",""0.975""]","[0,1,1,1]",0,49,49,49,1,0,1,,,0,FALSE,,,,,,,,,,,,,,,,,,,,,,,,,,,,,,,
,5bc6299e8b25de0001d909f8,627c6f45909582e54afe8216,2022-05-12_04h22.44.061,classification_task,2021.2.3,Win32,59.81934558,627c6715c52fd12f31907bcf,,,,,,,,,,,,,,,,,,,,,,,a,1,1.7606,"[""0.215"",""0.330"",""0.112"",""0.887""]","[1,1,0,1]",0,50,50,50,1,0,0,,,0,FALSE,,,,,,,,,,,,,,,,,,,,,,,,,,,,,,,
,5bc6299e8b25de0001d909f8,627c6f45909582e54afe8216,2022-05-12_04h22.44.061,classification_task,2021.2.3,Win32,59.81934558,627c6715c52fd12f31907bcf,,,,,,,,,,,,,,,,,,,,,,,a,0,1.672,"[""0.060"",""0.427"",""0.652"",""0.588""]","[1,1,1,0]",0,51,51,51,1,1,0,,,0,FALSE,,,,,,,,,,,,,,,,,,,,,,,,,,,,,,,
,5bc6299e8b25de0001d909f8,627c6f45909582e54afe8216,2022-05-12_04h22.44.061,classification_task,2021.2.3,Win32,59.81934558,627c6715c52fd12f31907bcf,,,,,,,,,,,,,,,,,,,,,,,l,1,2.0367,"[""0.156"",""0.110"",""0.524"",""0.696""]","[1,0,1,1]",0,52,52,52,1,1,1,,,0,FALSE,,,,,,,,,,,,,,,,,,,,,,,,,,,,,,,
,5bc6299e8b25de0001d909f8,627c6f45909582e54afe8216,2022-05-12_04h22.44.061,classification_task,2021.2.3,Win32,59.81934558,627c6715c52fd12f31907bcf,,,,,,,,,,,,,,,,,,,,,,,l,1,2.7081,"[""0.060"",""0.427"",""0.579"",""0.782""]","[1,1,0,1]",0,53,53,53,1,1,0,,,0,FALSE,,,,,,,,,,,,,,,,,,,,,,,,,,,,,,,
,5bc6299e8b25de0001d909f8,627c6f45909582e54afe8216,2022-05-12_04h22.44.061,classification_task,2021.2.3,Win32,59.81934558,627c6715c52fd12f31907bcf,,,,,,,,,,,,,,,,,,,,,,,a,1,1.9084,"[""0.264"",""0.463"",""0.595"",""0.975""]","[1,1,0,1]",0,54,54,54,1,0,1,,,0,FALSE,,,,,,,,,,,,,,,,,,,,,,,,,,,,,,,
,5bc6299e8b25de0001d909f8,627c6f45909582e54afe8216,2022-05-12_04h22.44.061,classification_task,2021.2.3,Win32,59.81934558,627c6715c52fd12f31907bcf,,,,,,,,,,,,,,,,,,,,,,,a,0,1.7575,"[""0.603"",""0.373"",""0.524"",""0.696""]","[0,1,1,1]",0,55,55,55,1,1,1,,,0,FALSE,,,,,,,,,,,,,,,,,,,,,,,,,,,,,,,
,5bc6299e8b25de0001d909f8,627c6f45909582e54afe8216,2022-05-12_04h22.44.061,classification_task,2021.2.3,Win32,59.81934558,627c6715c52fd12f31907bcf,,,,,,,,,,,,,,,,,,,,,,,l,0,1.2174,"[""0.215"",""0.330"",""0.845"",""0.585""]","[1,1,1,0]",0,56,56,56,1,0,0,,,0,FALSE,,,,,,,,,,,,,,,,,,,,,,,,,,,,,,,
,5bc6299e8b25de0001d909f8,627c6f45909582e54afe8216,2022-05-12_04h22.44.061,classification_task,2021.2.3,Win32,59.81934558,627c6715c52fd12f31907bcf,,,,,,,,,,,,,,,,,,,,,,,a,0,1.8946,"[""0.060"",""0.113"",""0.652"",""0.782""]","[1,0,1,1]",0,57,57,57,1,1,0,,,0,FALSE,,,,,,,,,,,,,,,,,,,,,,,,,,,,,,,
,5bc6299e8b25de0001d909f8,627c6f45909582e54afe8216,2022-05-12_04h22.44.061,classification_task,2021.2.3,Win32,59.81934558,627c6715c52fd12f31907bcf,,,,,,,,,,,,,,,,,,,,,,,l,1,1.0999,"[""0.607"",""0.427"",""0.652"",""0.782""]","[0,1,1,1]",0,58,58,58,1,1,0,,,0,FALSE,,,,,,,,,,,,,,,,,,,,,,,,,,,,,,,
,5bc6299e8b25de0001d909f8,627c6f45909582e54afe8216,2022-05-12_04h22.44.061,classification_task,2021.2.3,Win32,59.81934558,627c6715c52fd12f31907bcf,,,,,,,,,,,,,,,,,,,,,,,l,0,0.9906,"[""0.215"",""0.608"",""0.845"",""0.887""]","[1,0,1,1]",0,59,59,59,1,0,0,,,0,FALSE,,,,,,,,,,,,,,,,,,,,,,,,,,,,,,,
,5bc6299e8b25de0001d909f8,627c6f45909582e54afe8216,2022-05-12_04h22.44.061,classification_task,2021.2.3,Win32,59.81934558,627c6715c52fd12f31907bcf,,,,,,,,,,,,,,,,,,,,,,,l,0,0.767,"[""0.587"",""0.330"",""0.845"",""0.887""]","[0,1,1,1]",0,60,60,60,1,0,0,,,0,FALSE,,,,,,,,,,,,,,,,,,,,,,,,,,,,,,,
,5bc6299e8b25de0001d909f8,627c6f45909582e54afe8216,2022-05-12_04h22.44.061,classification_task,2021.2.3,Win32,59.81934558,627c6715c52fd12f31907bcf,,,,,,,,,,,,,,,,,,,,,,,a,1,4.1331,"[""0.264"",""0.463"",""0.942"",""0.103""]","[1,1,1,0]",0,61,61,61,1,0,1,,,0,FALSE,,,,,,,,,,,,,,,,,,,,,,,,,,,,,,,
,5bc6299e8b25de0001d909f8,627c6f45909582e54afe8216,2022-05-12_04h22.44.061,classification_task,2021.2.3,Win32,59.81934558,627c6715c52fd12f31907bcf,,,,,,,,,,,,,,,,,,,,,,,a,1,1.0978,"[""0.264"",""0.585"",""0.942"",""0.975""]","[1,0,1,1]",0,62,62,62,1,0,1,,,0,FALSE,,,,,,,,,,,,,,,,,,,,,,,,,,,,,,,
,5bc6299e8b25de0001d909f8,627c6f45909582e54afe8216,2022-05-12_04h22.44.061,classification_task,2021.2.3,Win32,59.81934558,627c6715c52fd12f31907bcf,,,,,,,,,,,,,,,,,,,,,,,a,0,1.4176,"[""0.156"",""0.373"",""0.524"",""0.603""]","[1,1,1,0]",0,63,63,63,1,1,1,,,0,FALSE,,,,,,,,,,,,,,,,,,,,,,,,,,,,,,,
,5bc6299e8b25de0001d909f8,627c6f45909582e54afe8216,2022-05-12_04h22.44.061,classification_task,2021.2.3,Win32,59.81934558,627c6715c52fd12f31907bcf,,,,,,,,,,,,,,,,,,,,,,,,,,,,,,,,,,,,,,,0, ,,0,7.725112679,215.592,0,1,1,1,1,2,2,,,,,,,,,,,,,,,,,,
,5bc6299e8b25de0001d909f8,627c6f45909582e54afe8216,2022-05-12_04h22.44.061,classification_task,2021.2.3,Win32,59.81934558,627c6715c52fd12f31907bcf,,,,,,,,,,,,,,,,,,,,,,,,,,,,,,,,,,,,,,,1,  ,,0,9.317313345,220.5235,0,1,1,1,1,2,2,,,,,,,,,,,,,,,,,,
,5bc6299e8b25de0001d909f8,627c6f45909582e54afe8216,2022-05-12_04h22.44.061,classification_task,2021.2.3,Win32,59.81934558,627c6715c52fd12f31907bcf,,,,,,,,,,,,,,,,,,,,,,,,,,,,,,,,,,,,,,,2,  ,,0,0.180532181,229.3923,0,1,1,1,1,2,2,,,,,,,,,,,,,,,,,,
,5bc6299e8b25de0001d909f8,627c6f45909582e54afe8216,2022-05-12_04h22.44.061,classification_task,2021.2.3,Win32,59.81934558,627c6715c52fd12f31907bcf,,,,,,,,,,,,,,,,,,,,,,,,,,,,,,,,,,,,,,,,,,,,,0,1,1,1,1,,2,,,,,,,,,,,,,,,,,,
,5bc6299e8b25de0001d909f8,627c6f45909582e54afe8216,2022-05-12_04h22.44.061,classification_task,2021.2.3,Win32,59.81934558,627c6715c52fd12f31907bcf,,,,,,,,,,,,,,,,,,,,,space,8.7814,l,1,2.8832,"[""0.060"",""0.595"",""0.652"",""0.782""]","[1,0,1,1]",0,0,0,0,1,1,0,,,0,FALSE,,,,,,,,,,,,,,,,,,,,,,,,,,,,,,,
,5bc6299e8b25de0001d909f8,627c6f45909582e54afe8216,2022-05-12_04h22.44.061,classification_task,2021.2.3,Win32,59.81934558,627c6715c52fd12f31907bcf,,,,,,,,,,,,,,,,,,,,,,,l,1,2.3998,"[""0.156"",""0.373"",""0.107"",""0.696""]","[1,1,0,1]",0,1,1,1,1,1,1,,,0,FALSE,,,,,,,,,,,,,,,,,,,,,,,,,,,,,,,
,5bc6299e8b25de0001d909f8,627c6f45909582e54afe8216,2022-05-12_04h22.44.061,classification_task,2021.2.3,Win32,59.81934558,627c6715c52fd12f31907bcf,,,,,,,,,,,,,,,,,,,,,,,a,1,1.3341,"[""0.264"",""0.463"",""0.942"",""0.588""]","[1,1,1,0]",0,2,2,2,1,0,1,,,0,FALSE,,,,,,,,,,,,,,,,,,,,,,,,,,,,,,,
,5bc6299e8b25de0001d909f8,627c6f45909582e54afe8216,2022-05-12_04h22.44.061,classification_task,2021.2.3,Win32,59.81934558,627c6715c52fd12f31907bcf,,,,,,,,,,,,,,,,,,,,,,,a,1,0.8671,"[""0.604"",""0.463"",""0.942"",""0.975""]","[0,1,1,1]",0,3,3,3,1,0,1,,,0,FALSE,,,,,,,,,,,,,,,,,,,,,,,,,,,,,,,
,5bc6299e8b25de0001d909f8,627c6f45909582e54afe8216,2022-05-12_04h22.44.061,classification_task,2021.2.3,Win32,59.81934558,627c6715c52fd12f31907bcf,,,,,,,,,,,,,,,,,,,,,,,a,0,1.0334,"[""0.113"",""0.427"",""0.652"",""0.782""]","[0,1,1,1]",0,4,4,4,1,1,0,,,0,FALSE,,,,,,,,,,,,,,,,,,,,,,,,,,,,,,,
,5bc6299e8b25de0001d909f8,627c6f45909582e54afe8216,2022-05-12_04h22.44.061,classification_task,2021.2.3,Win32,59.81934558,627c6715c52fd12f31907bcf,,,,,,,,,,,,,,,,,,,,,,,a,1,2.6666,"[""0.215"",""0.110"",""0.845"",""0.887""]","[1,0,1,1]",0,5,5,5,1,0,0,,,0,FALSE,,,,,,,,,,,,,,,,,,,,,,,,,,,,,,,
,5bc6299e8b25de0001d909f8,627c6f45909582e54afe8216,2022-05-12_04h22.44.061,classification_task,2021.2.3,Win32,59.81934558,627c6715c52fd12f31907bcf,,,,,,,,,,,,,,,,,,,,,,,l,0,1.5177,"[""0.264"",""0.463"",""0.112"",""0.975""]","[1,1,0,1]",0,6,6,6,1,0,1,,,0,FALSE,,,,,,,,,,,,,,,,,,,,,,,,,,,,,,,
,5bc6299e8b25de0001d909f8,627c6f45909582e54afe8216,2022-05-12_04h22.44.061,classification_task,2021.2.3,Win32,59.81934558,627c6715c52fd12f31907bcf,,,,,,,,,,,,,,,,,,,,,,,a,1,1.7505,"[""0.264"",""0.113"",""0.942"",""0.975""]","[1,0,1,1]",0,7,7,7,1,0,1,,,0,FALSE,,,,,,,,,,,,,,,,,,,,,,,,,,,,,,,
,5bc6299e8b25de0001d909f8,627c6f45909582e54afe8216,2022-05-12_04h22.44.061,classification_task,2021.2.3,Win32,59.81934558,627c6715c52fd12f31907bcf,,,,,,,,,,,,,,,,,,,,,,,a,1,2.3339,"[""0.215"",""0.330"",""0.607"",""0.887""]","[1,1,0,1]",0,8,8,8,1,0,0,,,0,FALSE,,,,,,,,,,,,,,,,,,,,,,,,,,,,,,,
,5bc6299e8b25de0001d909f8,627c6f45909582e54afe8216,2022-05-12_04h22.44.061,classification_task,2021.2.3,Win32,59.81934558,627c6715c52fd12f31907bcf,,,,,,,,,,,,,,,,,,,,,,,a,0,1.0342,"[""0.060"",""0.427"",""0.607"",""0.782""]","[1,1,0,1]",0,9,9,9,1,1,0,,,0,FALSE,,,,,,,,,,,,,,,,,,,,,,,,,,,,,,,
,5bc6299e8b25de0001d909f8,627c6f45909582e54afe8216,2022-05-12_04h22.44.061,classification_task,2021.2.3,Win32,59.81934558,627c6715c52fd12f31907bcf,,,,,,,,,,,,,,,,,,,,,,,a,0,1.5179,"[""0.156"",""0.608"",""0.524"",""0.696""]","[1,0,1,1]",0,10,10,10,1,1,1,,,0,FALSE,,,,,,,,,,,,,,,,,,,,,,,,,,,,,,,
,5bc6299e8b25de0001d909f8,627c6f45909582e54afe8216,2022-05-12_04h22.44.061,classification_task,2021.2.3,Win32,59.81934558,627c6715c52fd12f31907bcf,,,,,,,,,,,,,,,,,,,,,,,l,0,2.367,"[""0.215"",""0.330"",""0.845"",""0.608""]","[1,1,1,0]",0,11,11,11,1,0,0,,,0,FALSE,,,,,,,,,,,,,,,,,,,,,,,,,,,,,,,
,5bc6299e8b25de0001d909f8,627c6f45909582e54afe8216,2022-05-12_04h22.44.061,classification_task,2021.2.3,Win32,59.81934558,627c6715c52fd12f31907bcf,,,,,,,,,,,,,,,,,,,,,,,a,0,1.7334,"[""0.060"",""0.427"",""0.652"",""0.579""]","[1,1,1,0]",0,12,12,12,1,1,0,,,0,FALSE,,,,,,,,,,,,,,,,,,,,,,,,,,,,,,,
,5bc6299e8b25de0001d909f8,627c6f45909582e54afe8216,2022-05-12_04h22.44.061,classification_task,2021.2.3,Win32,59.81934558,627c6715c52fd12f31907bcf,,,,,,,,,,,,,,,,,,,,,,,a,0,1.6002,"[""0.156"",""0.373"",""0.524"",""0.604""]","[1,1,1,0]",0,13,13,13,1,1,1,,,0,FALSE,,,,,,,,,,,,,,,,,,,,,,,,,,,,,,,
,5bc6299e8b25de0001d909f8,627c6f45909582e54afe8216,2022-05-12_04h22.44.061,classification_task,2021.2.3,Win32,59.81934558,627c6715c52fd12f31907bcf,,,,,,,,,,,,,,,,,,,,,,,a,1,0.8178,"[""0.107"",""0.330"",""0.845"",""0.887""]","[0,1,1,1]",0,14,14,14,1,0,0,,,0,FALSE,,,,,,,,,,,,,,,,,,,,,,,,,,,,,,,
,5bc6299e8b25de0001d909f8,627c6f45909582e54afe8216,2022-05-12_04h22.44.061,classification_task,2021.2.3,Win32,59.81934558,627c6715c52fd12f31907bcf,,,,,,,,,,,,,,,,,,,,,,,l,1,1.8834,"[""0.110"",""0.373"",""0.524"",""0.696""]","[0,1,1,1]",0,15,15,15,1,1,1,,,0,FALSE,,,,,,,,,,,,,,,,,,,,,,,,,,,,,,,
,5bc6299e8b25de0001d909f8,627c6f45909582e54afe8216,2022-05-12_04h22.44.061,classification_task,2021.2.3,Win32,59.81934558,627c6715c52fd12f31907bcf,,,,,,,,,,,,,,,,,,,,,,,a,0,5.2829,"[""0.060"",""0.112"",""0.652"",""0.782""]","[1,0,1,1]",0,16,16,16,1,1,0,,,0,FALSE,,,,,,,,,,,,,,,,,,,,,,,,,,,,,,,
,5bc6299e8b25de0001d909f8,627c6f45909582e54afe8216,2022-05-12_04h22.44.061,classification_task,2021.2.3,Win32,59.81934558,627c6715c52fd12f31907bcf,,,,,,,,,,,,,,,,,,,,,,,a,1,1.7842,"[""0.264"",""0.463"",""0.110"",""0.975""]","[1,1,0,1]",0,17,17,17,1,0,1,,,0,FALSE,,,,,,,,,,,,,,,,,,,,,,,,,,,,,,,
,5bc6299e8b25de0001d909f8,627c6f45909582e54afe8216,2022-05-12_04h22.44.061,classification_task,2021.2.3,Win32,59.81934558,627c6715c52fd12f31907bcf,,,,,,,,,,,,,,,,,,,,,,,,0,,"[""0.110"",""0.427"",""0.652"",""0.782""]","[0,1,1,1]",0,18,18,18,1,1,0,,,0,FALSE,,,,,,,,,,,,,,,,,,,,,,,,,,,,,,,
,5bc6299e8b25de0001d909f8,627c6f45909582e54afe8216,2022-05-12_04h22.44.061,classification_task,2021.2.3,Win32,59.81934558,627c6715c52fd12f31907bcf,,,,,,,,,,,,,,,,,,,,,,,,0,,"[""0.110"",""0.373"",""0.524"",""0.696""]","[0,1,1,1]",0,19,19,19,1,1,1,,,0,FALSE,,,,,,,,,,,,,,,,,,,,,,,,,,,,,,,
,5bc6299e8b25de0001d909f8,627c6f45909582e54afe8216,2022-05-12_04h22.44.061,classification_task,2021.2.3,Win32,59.81934558,627c6715c52fd12f31907bcf,,,,,,,,,,,,,,,,,,,,,,,l,1,2.5306,"[""0.156"",""0.741"",""0.524"",""0.696""]","[1,0,1,1]",0,20,20,20,1,1,1,,,0,FALSE,,,,,,,,,,,,,,,,,,,,,,,,,,,,,,,
,5bc6299e8b25de0001d909f8,627c6f45909582e54afe8216,2022-05-12_04h22.44.061,classification_task,2021.2.3,Win32,59.81934558,627c6715c52fd12f31907bcf,,,,,,,,,,,,,,,,,,,,,,,l,1,2.2676,"[""0.156"",""0.373"",""0.524"",""0.110""]","[1,1,1,0]",0,21,21,21,1,1,1,,,0,FALSE,,,,,,,,,,,,,,,,,,,,,,,,,,,,,,,
,5bc6299e8b25de0001d909f8,627c6f45909582e54afe8216,2022-05-12_04h22.44.061,classification_task,2021.2.3,Win32,59.81934558,627c6715c52fd12f31907bcf,,,,,,,,,,,,,,,,,,,,,,,a,1,2.595,"[""0.215"",""0.330"",""0.845"",""0.111""]","[1,1,1,0]",0,22,22,22,1,0,0,,,0,FALSE,,,,,,,,,,,,,,,,,,,,,,,,,,,,,,,
,5bc6299e8b25de0001d909f8,627c6f45909582e54afe8216,2022-05-12_04h22.44.061,classification_task,2021.2.3,Win32,59.81934558,627c6715c52fd12f31907bcf,,,,,,,,,,,,,,,,,,,,,,,l,1,1.6771,"[""0.060"",""0.427"",""0.113"",""0.782""]","[1,1,0,1]",0,23,23,23,1,1,0,,,0,FALSE,,,,,,,,,,,,,,,,,,,,,,,,,,,,,,,
,5bc6299e8b25de0001d909f8,627c6f45909582e54afe8216,2022-05-12_04h22.44.061,classification_task,2021.2.3,Win32,59.81934558,627c6715c52fd12f31907bcf,,,,,,,,,,,,,,,,,,,,,,,a,1,2.8515,"[""0.264"",""0.603"",""0.942"",""0.975""]","[1,0,1,1]",0,24,24,24,1,0,1,,,0,FALSE,,,,,,,,,,,,,,,,,,,,,,,,,,,,,,,
,5bc6299e8b25de0001d909f8,627c6f45909582e54afe8216,2022-05-12_04h22.44.061,classification_task,2021.2.3,Win32,59.81934558,627c6715c52fd12f31907bcf,,,,,,,,,,,,,,,,,,,,,,,a,1,1.7763,"[""0.264"",""0.463"",""0.942"",""0.103""]","[1,1,1,0]",0,25,25,25,1,0,1,,,0,FALSE,,,,,,,,,,,,,,,,,,,,,,,,,,,,,,,
,5bc6299e8b25de0001d909f8,627c6f45909582e54afe8216,2022-05-12_04h22.44.061,classification_task,2021.2.3,Win32,59.81934558,627c6715c52fd12f31907bcf,,,,,,,,,,,,,,,,,,,,,,,l,0,1.9168,"[""0.215"",""0.112"",""0.845"",""0.887""]","[1,0,1,1]",0,26,26,26,1,0,0,,,0,FALSE,,,,,,,,,,,,,,,,,,,,,,,,,,,,,,,
,5bc6299e8b25de0001d909f8,627c6f45909582e54afe8216,2022-05-12_04h22.44.061,classification_task,2021.2.3,Win32,59.81934558,627c6715c52fd12f31907bcf,,,,,,,,,,,,,,,,,,,,,,,l,0,2.031,"[""0.215"",""0.330"",""0.603"",""0.887""]","[1,1,0,1]",0,27,27,27,1,0,0,,,0,FALSE,,,,,,,,,,,,,,,,,,,,,,,,,,,,,,,
,5bc6299e8b25de0001d909f8,627c6f45909582e54afe8216,2022-05-12_04h22.44.061,classification_task,2021.2.3,Win32,59.81934558,627c6715c52fd12f31907bcf,,,,,,,,,,,,,,,,,,,,,,,l,0,1.871,"[""0.607"",""0.463"",""0.942"",""0.975""]","[0,1,1,1]",0,28,28,28,1,0,1,,,0,FALSE,,,,,,,,,,,,,,,,,,,,,,,,,,,,,,,
,5bc6299e8b25de0001d909f8,627c6f45909582e54afe8216,2022-05-12_04h22.44.061,classification_task,2021.2.3,Win32,59.81934558,627c6715c52fd12f31907bcf,,,,,,,,,,,,,,,,,,,,,,,l,1,2.0491,"[""0.156"",""0.373"",""0.607"",""0.696""]","[1,1,0,1]",0,29,29,29,1,1,1,,,0,FALSE,,,,,,,,,,,,,,,,,,,,,,,,,,,,,,,
,5bc6299e8b25de0001d909f8,627c6f45909582e54afe8216,2022-05-12_04h22.44.061,classification_task,2021.2.3,Win32,59.81934558,627c6715c52fd12f31907bcf,,,,,,,,,,,,,,,,,,,,,,,l,0,1.3674,"[""0.595"",""0.330"",""0.845"",""0.887""]","[0,1,1,1]",0,30,30,30,1,0,0,,,0,FALSE,,,,,,,,,,,,,,,,,,,,,,,,,,,,,,,
,5bc6299e8b25de0001d909f8,627c6f45909582e54afe8216,2022-05-12_04h22.44.061,classification_task,2021.2.3,Win32,59.81934558,627c6715c52fd12f31907bcf,,,,,,,,,,,,,,,,,,,,,,,l,1,1.1123,"[""0.060"",""0.427"",""0.652"",""0.113""]","[1,1,1,0]",0,31,31,31,1,1,0,,,0,FALSE,,,,,,,,,,,,,,,,,,,,,,,,,,,,,,,
,5bc6299e8b25de0001d909f8,627c6f45909582e54afe8216,2022-05-12_04h22.44.061,classification_task,2021.2.3,Win32,59.81934558,627c6715c52fd12f31907bcf,,,,,,,,,,,,,,,,,,,,,,,l,0,1.0002,"[""0.215"",""0.595"",""0.845"",""0.887""]","[1,0,1,1]",0,32,32,32,1,0,0,,,0,FALSE,,,,,,,,,,,,,,,,,,,,,,,,,,,,,,,
,5bc6299e8b25de0001d909f8,627c6f45909582e54afe8216,2022-05-12_04h22.44.061,classification_task,2021.2.3,Win32,59.81934558,627c6715c52fd12f31907bcf,,,,,,,,,,,,,,,,,,,,,,,a,1,2.5496,"[""0.264"",""0.463"",""0.942"",""0.103""]","[1,1,1,0]",0,33,33,33,1,0,1,,,0,FALSE,,,,,,,,,,,,,,,,,,,,,,,,,,,,,,,
,5bc6299e8b25de0001d909f8,627c6f45909582e54afe8216,2022-05-12_04h22.44.061,classification_task,2021.2.3,Win32,59.81934558,627c6715c52fd12f31907bcf,,,,,,,,,,,,,,,,,,,,,,,a,1,2.3676,"[""0.215"",""0.330"",""0.845"",""0.741""]","[1,1,1,0]",0,34,34,34,1,0,0,,,0,FALSE,,,,,,,,,,,,,,,,,,,,,,,,,,,,,,,
,5bc6299e8b25de0001d909f8,627c6f45909582e54afe8216,2022-05-12_04h22.44.061,classification_task,2021.2.3,Win32,59.81934558,627c6715c52fd12f31907bcf,,,,,,,,,,,,,,,,,,,,,,,a,0,1.7984,"[""0.156"",""0.373"",""0.604"",""0.696""]","[1,1,0,1]",0,35,35,35,1,1,1,,,0,FALSE,,,,,,,,,,,,,,,,,,,,,,,,,,,,,,,
,5bc6299e8b25de0001d909f8,627c6f45909582e54afe8216,2022-05-12_04h22.44.061,classification_task,2021.2.3,Win32,59.81934558,627c6715c52fd12f31907bcf,,,,,,,,,,,,,,,,,,,,,,,l,0,1.5686,"[""0.264"",""0.579"",""0.942"",""0.975""]","[1,0,1,1]",0,36,36,36,1,0,1,,,0,FALSE,,,,,,,,,,,,,,,,,,,,,,,,,,,,,,,
,5bc6299e8b25de0001d909f8,627c6f45909582e54afe8216,2022-05-12_04h22.44.061,classification_task,2021.2.3,Win32,59.81934558,627c6715c52fd12f31907bcf,,,,,,,,,,,,,,,,,,,,,,,l,1,1.0272,"[""0.156"",""0.373"",""0.524"",""0.103""]","[1,1,1,0]",0,37,37,37,1,1,1,,,0,FALSE,,,,,,,,,,,,,,,,,,,,,,,,,,,,,,,
,5bc6299e8b25de0001d909f8,627c6f45909582e54afe8216,2022-05-12_04h22.44.061,classification_task,2021.2.3,Win32,59.81934558,627c6715c52fd12f31907bcf,,,,,,,,,,,,,,,,,,,,,,,l,0,0.8529,"[""0.588"",""0.463"",""0.942"",""0.975""]","[0,1,1,1]",0,38,38,38,1,0,1,,,0,FALSE,,,,,,,,,,,,,,,,,,,,,,,,,,,,,,,
,5bc6299e8b25de0001d909f8,627c6f45909582e54afe8216,2022-05-12_04h22.44.061,classification_task,2021.2.3,Win32,59.81934558,627c6715c52fd12f31907bcf,,,,,,,,,,,,,,,,,,,,,,,a,0,2.0007,"[""0.595"",""0.373"",""0.524"",""0.696""]","[0,1,1,1]",0,39,39,39,1,1,1,,,0,FALSE,,,,,,,,,,,,,,,,,,,,,,,,,,,,,,,
,5bc6299e8b25de0001d909f8,627c6f45909582e54afe8216,2022-05-12_04h22.44.061,classification_task,2021.2.3,Win32,59.81934558,627c6715c52fd12f31907bcf,,,,,,,,,,,,,,,,,,,,,,,a,1,1.5723,"[""0.264"",""0.463"",""0.604"",""0.975""]","[1,1,0,1]",0,40,40,40,1,0,1,,,0,FALSE,,,,,,,,,,,,,,,,,,,,,,,,,,,,,,,
,5bc6299e8b25de0001d909f8,627c6f45909582e54afe8216,2022-05-12_04h22.44.061,classification_task,2021.2.3,Win32,59.81934558,627c6715c52fd12f31907bcf,,,,,,,,,,,,,,,,,,,,,,,l,1,1.3757,"[""0.060"",""0.427"",""0.652"",""0.107""]","[1,1,1,0]",0,41,41,41,1,1,0,,,0,FALSE,,,,,,,,,,,,,,,,,,,,,,,,,,,,,,,
,5bc6299e8b25de0001d909f8,627c6f45909582e54afe8216,2022-05-12_04h22.44.061,classification_task,2021.2.3,Win32,59.81934558,627c6715c52fd12f31907bcf,,,,,,,,,,,,,,,,,,,,,,,a,1,1.9229,"[""0.741"",""0.330"",""0.845"",""0.887""]","[0,1,1,1]",0,42,42,42,1,0,0,,,0,FALSE,,,,,,,,,,,,,,,,,,,,,,,,,,,,,,,
,5bc6299e8b25de0001d909f8,627c6f45909582e54afe8216,2022-05-12_04h22.44.061,classification_task,2021.2.3,Win32,59.81934558,627c6715c52fd12f31907bcf,,,,,,,,,,,,,,,,,,,,,,,l,1,2.56,"[""0.060"",""0.427"",""0.741"",""0.782""]","[1,1,0,1]",0,43,43,43,1,1,0,,,0,FALSE,,,,,,,,,,,,,,,,,,,,,,,,,,,,,,,
,5bc6299e8b25de0001d909f8,627c6f45909582e54afe8216,2022-05-12_04h22.44.061,classification_task,2021.2.3,Win32,59.81934558,627c6715c52fd12f31907bcf,,,,,,,,,,,,,,,,,,,,,,,a,0,1.8776,"[""0.103"",""0.427"",""0.652"",""0.782""]","[0,1,1,1]",0,44,44,44,1,1,0,,,0,FALSE,,,,,,,,,,,,,,,,,,,,,,,,,,,,,,,
,5bc6299e8b25de0001d909f8,627c6f45909582e54afe8216,2022-05-12_04h22.44.061,classification_task,2021.2.3,Win32,59.81934558,627c6715c52fd12f31907bcf,,,,,,,,,,,,,,,,,,,,,,,l,1,2.0672,"[""0.156"",""0.107"",""0.524"",""0.696""]","[1,0,1,1]",0,45,45,45,1,1,1,,,0,FALSE,,,,,,,,,,,,,,,,,,,,,,,,,,,,,,,
,5bc6299e8b25de0001d909f8,627c6f45909582e54afe8216,2022-05-12_04h22.44.061,classification_task,2021.2.3,Win32,59.81934558,627c6715c52fd12f31907bcf,,,,,,,,,,,,,,,,,,,,,,,l,0,1.9928,"[""0.215"",""0.330"",""0.113"",""0.887""]","[1,1,0,1]",0,46,46,46,1,0,0,,,0,FALSE,,,,,,,,,,,,,,,,,,,,,,,,,,,,,,,
,5bc6299e8b25de0001d909f8,627c6f45909582e54afe8216,2022-05-12_04h22.44.061,classification_task,2021.2.3,Win32,59.81934558,627c6715c52fd12f31907bcf,,,,,,,,,,,,,,,,,,,,,,,l,1,1.0683,"[""0.060"",""0.588"",""0.652"",""0.782""]","[1,0,1,1]",0,47,47,47,1,1,0,,,0,FALSE,,,,,,,,,,,,,,,,,,,,,,,,,,,,,,,
,5bc6299e8b25de0001d909f8,627c6f45909582e54afe8216,2022-05-12_04h22.44.061,classification_task,2021.2.3,Win32,59.81934558,627c6715c52fd12f31907bcf,,,,,,,,,,,,,,,,,,,,,,,l,0,0.7349,"[""0.215"",""0.579"",""0.845"",""0.887""]","[1,0,1,1]",0,48,48,48,1,0,0,,,0,FALSE,,,,,,,,,,,,,,,,,,,,,,,,,,,,,,,
,5bc6299e8b25de0001d909f8,627c6f45909582e54afe8216,2022-05-12_04h22.44.061,classification_task,2021.2.3,Win32,59.81934558,627c6715c52fd12f31907bcf,,,,,,,,,,,,,,,,,,,,,,,a,0,2.1002,"[""0.156"",""0.595"",""0.524"",""0.696""]","[1,0,1,1]",0,49,49,49,1,1,1,,,0,FALSE,,,,,,,,,,,,,,,,,,,,,,,,,,,,,,,
,5bc6299e8b25de0001d909f8,627c6f45909582e54afe8216,2022-05-12_04h22.44.061,classification_task,2021.2.3,Win32,59.81934558,627c6715c52fd12f31907bcf,,,,,,,,,,,,,,,,,,,,,,,l,0,1.2936,"[""0.604"",""0.463"",""0.942"",""0.975""]","[0,1,1,1]",0,50,50,50,1,0,1,,,0,FALSE,,,,,,,,,,,,,,,,,,,,,,,,,,,,,,,
,5bc6299e8b25de0001d909f8,627c6f45909582e54afe8216,2022-05-12_04h22.44.061,classification_task,2021.2.3,Win32,59.81934558,627c6715c52fd12f31907bcf,,,,,,,,,,,,,,,,,,,,,,,l,0,0.8349,"[""0.264"",""0.604"",""0.942"",""0.975""]","[1,0,1,1]",0,51,51,51,1,0,1,,,0,FALSE,,,,,,,,,,,,,,,,,,,,,,,,,,,,,,,
,5bc6299e8b25de0001d909f8,627c6f45909582e54afe8216,2022-05-12_04h22.44.061,classification_task,2021.2.3,Win32,59.81934558,627c6715c52fd12f31907bcf,,,,,,,,,,,,,,,,,,,,,,,a,1,1.4506,"[""0.215"",""0.330"",""0.604"",""0.887""]","[1,1,0,1]",0,52,52,52,1,0,0,,,0,FALSE,,,,,,,,,,,,,,,,,,,,,,,,,,,,,,,
,5bc6299e8b25de0001d909f8,627c6f45909582e54afe8216,2022-05-12_04h22.44.061,classification_task,2021.2.3,Win32,59.81934558,627c6715c52fd12f31907bcf,,,,,,,,,,,,,,,,,,,,,,,a,1,1.2174,"[""0.264"",""0.463"",""0.942"",""0.588""]","[1,1,1,0]",0,53,53,53,1,0,1,,,0,FALSE,,,,,,,,,,,,,,,,,,,,,,,,,,,,,,,
,5bc6299e8b25de0001d909f8,627c6f45909582e54afe8216,2022-05-12_04h22.44.061,classification_task,2021.2.3,Win32,59.81934558,627c6715c52fd12f31907bcf,,,,,,,,,,,,,,,,,,,,,,,l,1,2.0341,"[""0.060"",""0.427"",""0.107"",""0.782""]","[1,1,0,1]",0,54,54,54,1,1,0,,,0,FALSE,,,,,,,,,,,,,,,,,,,,,,,,,,,,,,,
,5bc6299e8b25de0001d909f8,627c6f45909582e54afe8216,2022-05-12_04h22.44.061,classification_task,2021.2.3,Win32,59.81934558,627c6715c52fd12f31907bcf,,,,,,,,,,,,,,,,,,,,,,,a,0,1.627,"[""0.156"",""0.373"",""0.587"",""0.696""]","[1,1,0,1]",0,55,55,55,1,1,1,,,0,FALSE,,,,,,,,,,,,,,,,,,,,,,,,,,,,,,,
,5bc6299e8b25de0001d909f8,627c6f45909582e54afe8216,2022-05-12_04h22.44.061,classification_task,2021.2.3,Win32,59.81934558,627c6715c52fd12f31907bcf,,,,,,,,,,,,,,,,,,,,,,,a,0,1.3162,"[""0.587"",""0.427"",""0.652"",""0.782""]","[0,1,1,1]",0,56,56,56,1,1,0,,,0,FALSE,,,,,,,,,,,,,,,,,,,,,,,,,,,,,,,
,5bc6299e8b25de0001d909f8,627c6f45909582e54afe8216,2022-05-12_04h22.44.061,classification_task,2021.2.3,Win32,59.81934558,627c6715c52fd12f31907bcf,,,,,,,,,,,,,,,,,,,,,,,a,0,0.8338,"[""0.579"",""0.373"",""0.524"",""0.696""]","[0,1,1,1]",0,57,57,57,1,1,1,,,0,FALSE,,,,,,,,,,,,,,,,,,,,,,,,,,,,,,,
,5bc6299e8b25de0001d909f8,627c6f45909582e54afe8216,2022-05-12_04h22.44.061,classification_task,2021.2.3,Win32,59.81934558,627c6715c52fd12f31907bcf,,,,,,,,,,,,,,,,,,,,,,,l,0,1.37,"[""0.215"",""0.330"",""0.845"",""0.113""]","[1,1,1,0]",0,58,58,58,1,0,0,,,0,FALSE,,,,,,,,,,,,,,,,,,,,,,,,,,,,,,,
,5bc6299e8b25de0001d909f8,627c6f45909582e54afe8216,2022-05-12_04h22.44.061,classification_task,2021.2.3,Win32,59.81934558,627c6715c52fd12f31907bcf,,,,,,,,,,,,,,,,,,,,,,,a,1,1.4358,"[""0.264"",""0.463"",""0.608"",""0.975""]","[1,1,0,1]",0,59,59,59,1,0,1,,,0,FALSE,,,,,,,,,,,,,,,,,,,,,,,,,,,,,,,
,5bc6299e8b25de0001d909f8,627c6f45909582e54afe8216,2022-05-12_04h22.44.061,classification_task,2021.2.3,Win32,59.81934558,627c6715c52fd12f31907bcf,,,,,,,,,,,,,,,,,,,,,,,l,0,1.843,"[""0.112"",""0.330"",""0.845"",""0.887""]","[0,1,1,1]",0,60,60,60,1,0,0,,,0,FALSE,,,,,,,,,,,,,,,,,,,,,,,,,,,,,,,
,5bc6299e8b25de0001d909f8,627c6f45909582e54afe8216,2022-05-12_04h22.44.061,classification_task,2021.2.3,Win32,59.81934558,627c6715c52fd12f31907bcf,,,,,,,,,,,,,,,,,,,,,,,l,1,1.1004,"[""0.156"",""0.373"",""0.524"",""0.585""]","[1,1,1,0]",0,61,61,61,1,1,1,,,0,FALSE,,,,,,,,,,,,,,,,,,,,,,,,,,,,,,,
,5bc6299e8b25de0001d909f8,627c6f45909582e54afe8216,2022-05-12_04h22.44.061,classification_task,2021.2.3,Win32,59.81934558,627c6715c52fd12f31907bcf,,,,,,,,,,,,,,,,,,,,,,,l,1,3.5834,"[""0.060"",""0.595"",""0.652"",""0.782""]","[1,0,1,1]",0,62,62,62,1,1,0,,,0,FALSE,,,,,,,,,,,,,,,,,,,,,,,,,,,,,,,
,5bc6299e8b25de0001d909f8,627c6f45909582e54afe8216,2022-05-12_04h22.44.061,classification_task,2021.2.3,Win32,59.81934558,627c6715c52fd12f31907bcf,,,,,,,,,,,,,,,,,,,,,,,l,1,1.194,"[""0.060"",""0.427"",""0.652"",""0.107""]","[1,1,1,0]",0,63,63,63,1,1,0,,,0,FALSE,,,,,,,,,,,,,,,,,,,,,,,,,,,,,,,
,5bc6299e8b25de0001d909f8,627c6f45909582e54afe8216,2022-05-12_04h22.44.061,classification_task,2021.2.3,Win32,59.81934558,627c6715c52fd12f31907bcf,,,,,,,,,,,,,,,,,,,,,,,,,,,,,,,,,,,,,,,0, ,,0,5.006124222,213.0469,0,2,2,2,1,2,3,,,,,,,,,,,,,,,,,,
,5bc6299e8b25de0001d909f8,627c6f45909582e54afe8216,2022-05-12_04h22.44.061,classification_task,2021.2.3,Win32,59.81934558,627c6715c52fd12f31907bcf,,,,,,,,,,,,,,,,,,,,,,,,,,,,,,,,,,,,,,,1,  ,,0,4.834657206,214.0411,0,2,2,2,1,2,3,,,,,,,,,,,,,,,,,,
,5bc6299e8b25de0001d909f8,627c6f45909582e54afe8216,2022-05-12_04h22.44.061,classification_task,2021.2.3,Win32,59.81934558,627c6715c52fd12f31907bcf,,,,,,,,,,,,,,,,,,,,,,,,,,,,,,,,,,,,,,,2,  ,,0,0,215.8239,0,2,2,2,1,2,3,,,,,,,,,,,,,,,,,,
,5bc6299e8b25de0001d909f8,627c6f45909582e54afe8216,2022-05-12_04h22.44.061,classification_task,2021.2.3,Win32,59.81934558,627c6715c52fd12f31907bcf,,,,,,,,,,,,,,,,,,,,,,,,,,,,,,,,,,,,,,,,,,,,,0,2,2,2,1,,3,,,,,,,,,,,,,,,,,,
,5bc6299e8b25de0001d909f8,627c6f45909582e54afe8216,2022-05-12_04h22.44.061,classification_task,2021.2.3,Win32,59.81934558,627c6715c52fd12f31907bcf,,,,,,,,,,,,,,,,,,,,,,,,,,,,,,,,,,,,,,,,,,,,,,,,,,,,,I believe the aid is a competent performer,,0.7,0,3,976.3541,0,0,0,0,1,0,,,,,
,5bc6299e8b25de0001d909f8,627c6f45909582e54afe8216,2022-05-12_04h22.44.061,classification_task,2021.2.3,Win32,59.81934558,627c6715c52fd12f31907bcf,,,,,,,,,,,,,,,,,,,,,,,,,,,,,,,,,,,,,,,,,,,,,,,,,,,,,I trust the aid,,0.7,0,3,977.2017,0,0,0,0,1,0,,,,,
,5bc6299e8b25de0001d909f8,627c6f45909582e54afe8216,2022-05-12_04h22.44.061,classification_task,2021.2.3,Win32,59.81934558,627c6715c52fd12f31907bcf,,,,,,,,,,,,,,,,,,,,,,,,,,,,,,,,,,,,,,,,,,,,,,,,,,,,,I have confidence in the advice given by the aid,,0.7,0,3,983.4401,0,0,0,0,1,0,,,,,
,5bc6299e8b25de0001d909f8,627c6f45909582e54afe8216,2022-05-12_04h22.44.061,classification_task,2021.2.3,Win32,59.81934558,627c6715c52fd12f31907bcf,,,,,,,,,,,,,,,,,,,,,,,,,,,,,,,,,,,,,,,,,,,,,,,,,,,,,I can depend on the aid,,0.7,0,3,986.5214,0,0,0,0,1,0,,,,,
,5bc6299e8b25de0001d909f8,627c6f45909582e54afe8216,2022-05-12_04h22.44.061,classification_task,2021.2.3,Win32,59.81934558,627c6715c52fd12f31907bcf,,,,,,,,,,,,,,,,,,,,,,,,,,,,,,,,,,,,,,,,,,,,,,,,,,,,,I can rely on the aid to behave in consistent ways,,0.7,0,2,990.1262,0,0,0,0,1,0,,,,,
,5bc6299e8b25de0001d909f8,627c6f45909582e54afe8216,2022-05-12_04h22.44.061,classification_task,2021.2.3,Win32,59.81934558,627c6715c52fd12f31907bcf,,,,,,,,,,,,,,,,,,,,,,,,,,,,,,,,,,,,,,,,,,,,,,,,,,,,,I can rely on the aid to do its best every time I take its advice,,0.7,0,4,1002.797,0,0,0,0,1,0,,,,,
,5bc6299e8b25de0001d909f8,627c6f45909582e54afe8216,2022-05-12_04h22.44.061,classification_task,2021.2.3,Win32,59.81934558,627c6715c52fd12f31907bcf,,,,,,,,,,,,,,,,,,,,,,,,,,,,,,,,,,,,,,,,,,,,,,,,,,,,,"On trials you completed with assistance from the aid, how frequently did you think the aid was correct?",,0.7,0,60%,,0,0,0,0,1,0,,,,,
,5bc6299e8b25de0001d909f8,627c6f45909582e54afe8216,2022-05-12_04h22.44.061,classification_task,2021.2.3,Win32,59.81934558,627c6715c52fd12f31907bcf,,,,,,,,,,,,,,,,,,,,,,,,,,,,,,,,,,,,,,,,,,,,,,,,,,,,,"On trials you completed without the aid, how frequently did you think you were correct?",,0.7,0,30%,,0,0,0,0,1,0,,,,,
,5bc6299e8b25de0001d909f8,627c6f45909582e54afe8216,2022-05-12_04h22.44.061,classification_task,2021.2.3,Win32,59.81934558,627c6715c52fd12f31907bcf,,,,,,,,,,,,,,,,,,,,,,,,,,,,,,,,,,,,,,,,,,,,,,,,,,,,,,,,,,,0,0,0,0,1,,,,,,
,5bc6299e8b25de0001d909f8,627c6f45909582e54afe8216,2022-05-12_04h22.44.061,classification_task,2021.2.3,Win32,59.81934558,627c6715c52fd12f31907bcf,,,,,,,,,,,,,,,,,,,,,,,,,,,,,,,,,,,,,,,,,,,,,,,,,,,,,,,,,,,,,,,,,space,2.8984,1043.2466,,
,5bc6299e8b25de0001d909f8,627c6f45909582e54afe8216,2022-05-12_04h22.44.061,classification_task,2021.2.3,Win32,59.81934558,627c6715c52fd12f31907bcf,,,,,,,,,,,,,,,,,,,,,,,,,,,,,,,,,,,,,,,,,,,,,,,,,,,,,,,,,,,,,,,,,,,,"Mozilla/5.0 (Windows NT 10.0; Win64; x64) AppleWebKit/537.36 (KHTML, like Gecko) Chrome/99.0.4844.84 Safari/537.36 OPR/85.0.4341.75",
,5bc6299e8b25de0001d909f8,627c6f45909582e54afe8216,2022-05-12_04h22.44.061,classification_task,2021.2.3,Win32,59.81934558,627c6715c52fd12f31907bcf,,,,,,,,,,,,,,,,,,,,,,,,,,,,,,,,,,,,,,,,,,,,,,,,,,,,,,,,,,,,,,,,,,,,,LOWLIGHT
