usingWebGL,participant,session,date,expName,psychopyVersion,OS,frameRate,PROLIFIC_PID,STUDY_ID,SESSION_ID,signatures_friend,signatures_foe,band_ranges_top,band_ranges_bottom,formitemText,formtype,formundefined,formitemWidth,formindex,formresponse,formrt,key_resp_2.keys,key_resp_2.rt,tute_resp.keys,tute_resp.rt,tutorial.thisRepN,tutorial.thisTrialN,tutorial.thisN,tutorial.thisIndex,tutorial.ran,key_resp_4.keys,key_resp_4.rt,key_resp.keys,key_resp.corr,key_resp.rt,lines_presented,is_signal_presented,trials.thisRepN,trials.thisTrialN,trials.thisN,trials.thisIndex,trials.ran,vessel,active_band,lines,is_signal,supported_pos,catch_trial,debrief_formindex,debrief_formitemText,debrief_formtype,debrief_formitemWidth,debrief_formresponse,debrief_formrt,phases.thisRepN,phases.thisTrialN,phases.thisN,phases.thisIndex,phases.ran,phases.order,phase,key_resp_3.keys,trustitemText,trusttype,trustitemWidth,trustindex,trustresponse,trustrt,support_status.thisRepN,support_status.thisTrialN,support_status.thisN,support_status.thisIndex,support_status.ran,support_status.order,key_resp_5.keys,key_resp_5.rt,globalClockTime,userAgent
TRUE,5bc94b874f22df00010e83f9,001,2022-04-28_19h15.31.144,classification_task,2021.2.3,MacIntel,62.5,5bc94b874f22df00010e83f9,626b377229c10585ec392f8a,626b3c159079a17f55d215eb,,,,,,,,,,,,,,,,,,,,,,,,,,,,,,,,,,,,,,,,,,,,,,,,,,,,,,,,,,,,,,,,,,,,
,5bc94b874f22df00010e83f9,001,2022-04-28_19h15.31.144,classification_task,2021.2.3,MacIntel,62.5,5bc94b874f22df00010e83f9,626b377229c10585ec392f8a,626b3c159079a17f55d215eb,"[[""0.251"",""0.461"",""0.886"",""0.929""],[""0.290"",""0.344"",""0.583"",""0.966""]]","[[""0.095"",""0.418"",""0.534"",""0.704""],[""0.059"",""0.153"",""0.618"",""0.836""]]","[1,10]","[100,1000]",Video game experience,,,0.7,0,,,,,,,,,,,,,,,,,,,,,,,,,,,,,,,,,,,,,,,,,,,,,,,,,,,,,,,,,,,
,5bc94b874f22df00010e83f9,001,2022-04-28_19h15.31.144,classification_task,2021.2.3,MacIntel,62.5,5bc94b874f22df00010e83f9,626b377229c10585ec392f8a,626b3c159079a17f55d215eb,,,,,Approximately how many hours did you spend playing video games in the last week?,,,0.7,0,3,,,,,,,,,,,,,,,,,,,,,,,,,,,,,,,,,,,,,,,,,,,,,,,,,,,,,,,,,,
,5bc94b874f22df00010e83f9,001,2022-04-28_19h15.31.144,classification_task,2021.2.3,MacIntel,62.5,5bc94b874f22df00010e83f9,626b377229c10585ec392f8a,626b3c159079a17f55d215eb,,,,,"Which game did you play the most this year? (Enter ""None"" if you didn't play any)",,,0.7,0,Candy Crush,,,,,,,,,,,,,,,,,,,,,,,,,,,,,,,,,,,,,,,,,,,,,,,,,,,,,,,,,,
,5bc94b874f22df00010e83f9,001,2022-04-28_19h15.31.144,classification_task,2021.2.3,MacIntel,62.5,5bc94b874f22df00010e83f9,626b377229c10585ec392f8a,626b3c159079a17f55d215eb,,,,,Visual perception,,,0.7,0,,,,,,,,,,,,,,,,,,,,,,,,,,,,,,,,,,,,,,,,,,,,,,,,,,,,,,,,,,,
,5bc94b874f22df00010e83f9,001,2022-04-28_19h15.31.144,classification_task,2021.2.3,MacIntel,62.5,5bc94b874f22df00010e83f9,626b377229c10585ec392f8a,626b3c159079a17f55d215eb,,,,,Do you have any form of color blindness?,,,0.7,0,No,73.411,,,,,,,,,,,,,,,,,,,,,,,,,,,,,,,,,,,,,,,,,,,,,,,,,,,,,,,,,
,5bc94b874f22df00010e83f9,001,2022-04-28_19h15.31.144,classification_task,2021.2.3,MacIntel,62.5,5bc94b874f22df00010e83f9,626b377229c10585ec392f8a,626b3c159079a17f55d215eb,,,,,Do you use software to change the colour temperature of your screen (e.g. f.lux)?,,,0.7,0,No,76.914,,,,,,,,,,,,,,,,,,,,,,,,,,,,,,,,,,,,,,,,,,,,,,,,,,,,,,,,,
,5bc94b874f22df00010e83f9,001,2022-04-28_19h15.31.144,classification_task,2021.2.3,MacIntel,62.5,5bc94b874f22df00010e83f9,626b377229c10585ec392f8a,626b3c159079a17f55d215eb,,,,,,,,,,,,space,83.722,space,11.065,0,0,0,0,1,,,,,,,,,,,,,,,,,,,,,,,,,,,,,,,,,,,,,,,,,,,,,,,,
,5bc94b874f22df00010e83f9,001,2022-04-28_19h15.31.144,classification_task,2021.2.3,MacIntel,62.5,5bc94b874f22df00010e83f9,626b377229c10585ec392f8a,626b3c159079a17f55d215eb,,,,,,,,,,,,,,space,11.221,1,0,1,0,1,,,,,,,,,,,,,,,,,,,,,,,,,,,,,,,,,,,,,,,,,,,,,,,,
,5bc94b874f22df00010e83f9,001,2022-04-28_19h15.31.144,classification_task,2021.2.3,MacIntel,62.5,5bc94b874f22df00010e83f9,626b377229c10585ec392f8a,626b3c159079a17f55d215eb,,,,,,,,,,,,,,space,52.692,2,0,2,0,1,,,,,,,,,,,,,,,,,,,,,,,,,,,,,,,,,,,,,,,,,,,,,,,,
,5bc94b874f22df00010e83f9,001,2022-04-28_19h15.31.144,classification_task,2021.2.3,MacIntel,62.5,5bc94b874f22df00010e83f9,626b377229c10585ec392f8a,626b3c159079a17f55d215eb,,,,,,,,,,,,,,space,6.257,3,0,3,0,1,,,,,,,,,,,,,,,,,,,,,,,,,,,,,,,,,,,,,,,,,,,,,,,,
,5bc94b874f22df00010e83f9,001,2022-04-28_19h15.31.144,classification_task,2021.2.3,MacIntel,62.5,5bc94b874f22df00010e83f9,626b377229c10585ec392f8a,626b3c159079a17f55d215eb,,,,,,,,,,,,,,space,13.49,4,0,4,0,1,,,,,,,,,,,,,,,,,,,,,,,,,,,,,,,,,,,,,,,,,,,,,,,,
,5bc94b874f22df00010e83f9,001,2022-04-28_19h15.31.144,classification_task,2021.2.3,MacIntel,62.5,5bc94b874f22df00010e83f9,626b377229c10585ec392f8a,626b3c159079a17f55d215eb,,,,,,,,,,,,,,,,,,,,,space,32.07,l,1,8.191,"[""0.095"",""0.418"",""0.534"",""0.656""]","[1,1,1,0]",0,0,0,0,1,1,0,,,1,FALSE,,,,,,,,,,,,,,,,,,,,,,,,,,,,,,
,5bc94b874f22df00010e83f9,001,2022-04-28_19h15.31.144,classification_task,2021.2.3,MacIntel,62.5,5bc94b874f22df00010e83f9,626b377229c10585ec392f8a,626b3c159079a17f55d215eb,,,,,,,,,,,,,,,,,,,,,,,a,1,5.228,"[""0.290"",""0.344"",""0.583"",""0.771""]","[1,1,1,0]",0,1,1,1,1,0,1,,,1,FALSE,,,,,,,,,,,,,,,,,,,,,,,,,,,,,,
,5bc94b874f22df00010e83f9,001,2022-04-28_19h15.31.144,classification_task,2021.2.3,MacIntel,62.5,5bc94b874f22df00010e83f9,626b377229c10585ec392f8a,626b3c159079a17f55d215eb,,,,,,,,,,,,,,,,,,,,,,,,0,,"[""0.251"",""0.461"",""0.886"",""0.196""]","[1,1,1,0]",0,2,2,2,1,0,0,,,1,FALSE,,,,,,,,,,,,,,,,,,,,,,,,,,,,,,
,5bc94b874f22df00010e83f9,001,2022-04-28_19h15.31.144,classification_task,2021.2.3,MacIntel,62.5,5bc94b874f22df00010e83f9,626b377229c10585ec392f8a,626b3c159079a17f55d215eb,,,,,,,,,,,,,,,,,,,,,,,a,1,8.937,"[""0.290"",""0.344"",""0.760"",""0.966""]","[1,1,0,1]",0,3,3,3,1,0,1,,,1,FALSE,,,,,,,,,,,,,,,,,,,,,,,,,,,,,,
,5bc94b874f22df00010e83f9,001,2022-04-28_19h15.31.144,classification_task,2021.2.3,MacIntel,62.5,5bc94b874f22df00010e83f9,626b377229c10585ec392f8a,626b3c159079a17f55d215eb,,,,,,,,,,,,,,,,,,,,,,,l,1,7.305,"[""0.765"",""0.153"",""0.618"",""0.836""]","[0,1,1,1]",0,4,4,4,1,1,1,,,1,FALSE,,,,,,,,,,,,,,,,,,,,,,,,,,,,,,
,5bc94b874f22df00010e83f9,001,2022-04-28_19h15.31.144,classification_task,2021.2.3,MacIntel,62.5,5bc94b874f22df00010e83f9,626b377229c10585ec392f8a,626b3c159079a17f55d215eb,,,,,,,,,,,,,,,,,,,,,,,l,1,7.544,"[""0.095"",""0.501"",""0.534"",""0.704""]","[1,0,1,1]",0,5,5,5,1,1,0,,,1,FALSE,,,,,,,,,,,,,,,,,,,,,,,,,,,,,,
,5bc94b874f22df00010e83f9,001,2022-04-28_19h15.31.144,classification_task,2021.2.3,MacIntel,62.5,5bc94b874f22df00010e83f9,626b377229c10585ec392f8a,626b3c159079a17f55d215eb,,,,,,,,,,,,,,,,,,,,,,,l,1,4.439,"[""0.059"",""0.153"",""0.656"",""0.836""]","[1,1,0,1]",0,6,6,6,1,1,1,,,1,FALSE,,,,,,,,,,,,,,,,,,,,,,,,,,,,,,
,5bc94b874f22df00010e83f9,001,2022-04-28_19h15.31.144,classification_task,2021.2.3,MacIntel,62.5,5bc94b874f22df00010e83f9,626b377229c10585ec392f8a,626b3c159079a17f55d215eb,,,,,,,,,,,,,,,,,,,,,,,a,1,9.143,"[""0.196"",""0.344"",""0.583"",""0.966""]","[0,1,1,1]",0,7,7,7,1,0,1,,,1,FALSE,,,,,,,,,,,,,,,,,,,,,,,,,,,,,,
,5bc94b874f22df00010e83f9,001,2022-04-28_19h15.31.144,classification_task,2021.2.3,MacIntel,62.5,5bc94b874f22df00010e83f9,626b377229c10585ec392f8a,626b3c159079a17f55d215eb,,,,,,,,,,,,,,,,,,,,,,,l,1,9.81,"[""0.770"",""0.418"",""0.534"",""0.704""]","[0,1,1,1]",0,8,8,8,1,1,0,,,1,FALSE,,,,,,,,,,,,,,,,,,,,,,,,,,,,,,
,5bc94b874f22df00010e83f9,001,2022-04-28_19h15.31.144,classification_task,2021.2.3,MacIntel,62.5,5bc94b874f22df00010e83f9,626b377229c10585ec392f8a,626b3c159079a17f55d215eb,,,,,,,,,,,,,,,,,,,,,,,a,1,5.009,"[""0.290"",""0.744"",""0.583"",""0.966""]","[1,0,1,1]",0,9,9,9,1,0,1,,,1,FALSE,,,,,,,,,,,,,,,,,,,,,,,,,,,,,,
,5bc94b874f22df00010e83f9,001,2022-04-28_19h15.31.144,classification_task,2021.2.3,MacIntel,62.5,5bc94b874f22df00010e83f9,626b377229c10585ec392f8a,626b3c159079a17f55d215eb,,,,,,,,,,,,,,,,,,,,,,,a,1,3.48,"[""0.251"",""0.771"",""0.886"",""0.929""]","[1,0,1,1]",0,10,10,10,1,0,0,,,1,FALSE,,,,,,,,,,,,,,,,,,,,,,,,,,,,,,
,5bc94b874f22df00010e83f9,001,2022-04-28_19h15.31.144,classification_task,2021.2.3,MacIntel,62.5,5bc94b874f22df00010e83f9,626b377229c10585ec392f8a,626b3c159079a17f55d215eb,,,,,,,,,,,,,,,,,,,,,,,l,1,2.533,"[""0.095"",""0.418"",""0.771"",""0.704""]","[1,1,0,1]",0,11,11,11,1,1,0,,,1,FALSE,,,,,,,,,,,,,,,,,,,,,,,,,,,,,,
,5bc94b874f22df00010e83f9,001,2022-04-28_19h15.31.144,classification_task,2021.2.3,MacIntel,62.5,5bc94b874f22df00010e83f9,626b377229c10585ec392f8a,626b3c159079a17f55d215eb,,,,,,,,,,,,,,,,,,,,,,,a,1,3.514,"[""0.251"",""0.461"",""0.666"",""0.929""]","[1,1,0,1]",0,12,12,12,1,0,0,,,1,FALSE,,,,,,,,,,,,,,,,,,,,,,,,,,,,,,
,5bc94b874f22df00010e83f9,001,2022-04-28_19h15.31.144,classification_task,2021.2.3,MacIntel,62.5,5bc94b874f22df00010e83f9,626b377229c10585ec392f8a,626b3c159079a17f55d215eb,,,,,,,,,,,,,,,,,,,,,,,l,1,3.387,"[""0.059"",""0.153"",""0.618"",""0.761""]","[1,1,1,0]",0,13,13,13,1,1,1,,,1,FALSE,,,,,,,,,,,,,,,,,,,,,,,,,,,,,,
,5bc94b874f22df00010e83f9,001,2022-04-28_19h15.31.144,classification_task,2021.2.3,MacIntel,62.5,5bc94b874f22df00010e83f9,626b377229c10585ec392f8a,626b3c159079a17f55d215eb,,,,,,,,,,,,,,,,,,,,,,,a,1,2.872,"[""0.760"",""0.461"",""0.886"",""0.929""]","[0,1,1,1]",0,14,14,14,1,0,0,,,1,FALSE,,,,,,,,,,,,,,,,,,,,,,,,,,,,,,
,5bc94b874f22df00010e83f9,001,2022-04-28_19h15.31.144,classification_task,2021.2.3,MacIntel,62.5,5bc94b874f22df00010e83f9,626b377229c10585ec392f8a,626b3c159079a17f55d215eb,,,,,,,,,,,,,,,,,,,,,,,l,1,3.49,"[""0.059"",""0.190"",""0.618"",""0.836""]","[1,0,1,1]",0,15,15,15,1,1,1,,,1,FALSE,,,,,,,,,,,,,,,,,,,,,,,,,,,,,,
,5bc94b874f22df00010e83f9,001,2022-04-28_19h15.31.144,classification_task,2021.2.3,MacIntel,62.5,5bc94b874f22df00010e83f9,626b377229c10585ec392f8a,626b3c159079a17f55d215eb,,,,,,,,,,,,,,,,,,,,,,,a,1,4.548,"[""0.770"",""0.344"",""0.583"",""0.966""]","[0,1,1,1]",0,16,16,16,1,0,1,,,1,FALSE,,,,,,,,,,,,,,,,,,,,,,,,,,,,,,
,5bc94b874f22df00010e83f9,001,2022-04-28_19h15.31.144,classification_task,2021.2.3,MacIntel,62.5,5bc94b874f22df00010e83f9,626b377229c10585ec392f8a,626b3c159079a17f55d215eb,,,,,,,,,,,,,,,,,,,,,,,l,1,2.497,"[""0.095"",""0.418"",""0.501"",""0.704""]","[1,1,0,1]",0,17,17,17,1,1,0,,,1,FALSE,,,,,,,,,,,,,,,,,,,,,,,,,,,,,,
,5bc94b874f22df00010e83f9,001,2022-04-28_19h15.31.144,classification_task,2021.2.3,MacIntel,62.5,5bc94b874f22df00010e83f9,626b377229c10585ec392f8a,626b3c159079a17f55d215eb,,,,,,,,,,,,,,,,,,,,,,,a,1,3.503,"[""0.290"",""0.656"",""0.583"",""0.966""]","[1,0,1,1]",0,18,18,18,1,0,1,,,1,FALSE,,,,,,,,,,,,,,,,,,,,,,,,,,,,,,
,5bc94b874f22df00010e83f9,001,2022-04-28_19h15.31.144,classification_task,2021.2.3,MacIntel,62.5,5bc94b874f22df00010e83f9,626b377229c10585ec392f8a,626b3c159079a17f55d215eb,,,,,,,,,,,,,,,,,,,,,,,l,1,2.25,"[""0.059"",""0.153"",""0.791"",""0.836""]","[1,1,0,1]",0,19,19,19,1,1,1,,,1,FALSE,,,,,,,,,,,,,,,,,,,,,,,,,,,,,,
,5bc94b874f22df00010e83f9,001,2022-04-28_19h15.31.144,classification_task,2021.2.3,MacIntel,62.5,5bc94b874f22df00010e83f9,626b377229c10585ec392f8a,626b3c159079a17f55d215eb,,,,,,,,,,,,,,,,,,,,,,,l,1,3.742,"[""0.778"",""0.418"",""0.534"",""0.704""]","[0,1,1,1]",0,20,20,20,1,1,0,,,1,FALSE,,,,,,,,,,,,,,,,,,,,,,,,,,,,,,
,5bc94b874f22df00010e83f9,001,2022-04-28_19h15.31.144,classification_task,2021.2.3,MacIntel,62.5,5bc94b874f22df00010e83f9,626b377229c10585ec392f8a,626b3c159079a17f55d215eb,,,,,,,,,,,,,,,,,,,,,,,l,1,5.254,"[""0.778"",""0.153"",""0.618"",""0.836""]","[0,1,1,1]",0,21,21,21,1,1,1,,,1,FALSE,,,,,,,,,,,,,,,,,,,,,,,,,,,,,,
,5bc94b874f22df00010e83f9,001,2022-04-28_19h15.31.144,classification_task,2021.2.3,MacIntel,62.5,5bc94b874f22df00010e83f9,626b377229c10585ec392f8a,626b3c159079a17f55d215eb,,,,,,,,,,,,,,,,,,,,,,,l,1,3.223,"[""0.095"",""0.418"",""0.534"",""0.501""]","[1,1,1,0]",0,22,22,22,1,1,0,,,1,FALSE,,,,,,,,,,,,,,,,,,,,,,,,,,,,,,
,5bc94b874f22df00010e83f9,001,2022-04-28_19h15.31.144,classification_task,2021.2.3,MacIntel,62.5,5bc94b874f22df00010e83f9,626b377229c10585ec392f8a,626b3c159079a17f55d215eb,,,,,,,,,,,,,,,,,,,,,,,a,1,2.204,"[""0.251"",""0.461"",""0.886"",""0.770""]","[1,1,1,0]",0,23,23,23,1,0,0,,,1,FALSE,,,,,,,,,,,,,,,,,,,,,,,,,,,,,,
,5bc94b874f22df00010e83f9,001,2022-04-28_19h15.31.144,classification_task,2021.2.3,MacIntel,62.5,5bc94b874f22df00010e83f9,626b377229c10585ec392f8a,626b3c159079a17f55d215eb,,,,,,,,,,,,,,,,,,,,,,,l,1,2.752,"[""0.059"",""0.153"",""0.618"",""0.761""]","[1,1,1,0]",0,24,24,24,1,1,1,,,1,FALSE,,,,,,,,,,,,,,,,,,,,,,,,,,,,,,
,5bc94b874f22df00010e83f9,001,2022-04-28_19h15.31.144,classification_task,2021.2.3,MacIntel,62.5,5bc94b874f22df00010e83f9,626b377229c10585ec392f8a,626b3c159079a17f55d215eb,,,,,,,,,,,,,,,,,,,,,,,l,1,2.218,"[""0.095"",""0.203"",""0.534"",""0.704""]","[1,0,1,1]",0,25,25,25,1,1,0,,,1,FALSE,,,,,,,,,,,,,,,,,,,,,,,,,,,,,,
,5bc94b874f22df00010e83f9,001,2022-04-28_19h15.31.144,classification_task,2021.2.3,MacIntel,62.5,5bc94b874f22df00010e83f9,626b377229c10585ec392f8a,626b3c159079a17f55d215eb,,,,,,,,,,,,,,,,,,,,,,,a,1,3.503,"[""0.290"",""0.344"",""0.583"",""0.744""]","[1,1,1,0]",0,26,26,26,1,0,1,,,1,FALSE,,,,,,,,,,,,,,,,,,,,,,,,,,,,,,
,5bc94b874f22df00010e83f9,001,2022-04-28_19h15.31.144,classification_task,2021.2.3,MacIntel,62.5,5bc94b874f22df00010e83f9,626b377229c10585ec392f8a,626b3c159079a17f55d215eb,,,,,,,,,,,,,,,,,,,,,,,a,1,2.214,"[""0.251"",""0.791"",""0.886"",""0.929""]","[1,0,1,1]",0,27,27,27,1,0,0,,,1,FALSE,,,,,,,,,,,,,,,,,,,,,,,,,,,,,,
,5bc94b874f22df00010e83f9,001,2022-04-28_19h15.31.144,classification_task,2021.2.3,MacIntel,62.5,5bc94b874f22df00010e83f9,626b377229c10585ec392f8a,626b3c159079a17f55d215eb,,,,,,,,,,,,,,,,,,,,,,,a,1,1.288,"[""0.251"",""0.461"",""0.765"",""0.929""]","[1,1,0,1]",0,28,28,28,1,0,0,,,1,FALSE,,,,,,,,,,,,,,,,,,,,,,,,,,,,,,
,5bc94b874f22df00010e83f9,001,2022-04-28_19h15.31.144,classification_task,2021.2.3,MacIntel,62.5,5bc94b874f22df00010e83f9,626b377229c10585ec392f8a,626b3c159079a17f55d215eb,,,,,,,,,,,,,,,,,,,,,,,a,1,2.334,"[""0.781"",""0.461"",""0.886"",""0.929""]","[0,1,1,1]",0,29,29,29,1,0,0,,,1,FALSE,,,,,,,,,,,,,,,,,,,,,,,,,,,,,,
,5bc94b874f22df00010e83f9,001,2022-04-28_19h15.31.144,classification_task,2021.2.3,MacIntel,62.5,5bc94b874f22df00010e83f9,626b377229c10585ec392f8a,626b3c159079a17f55d215eb,,,,,,,,,,,,,,,,,,,,,,,l,1,2.621,"[""0.059"",""0.190"",""0.618"",""0.836""]","[1,0,1,1]",0,30,30,30,1,1,1,,,1,FALSE,,,,,,,,,,,,,,,,,,,,,,,,,,,,,,
,5bc94b874f22df00010e83f9,001,2022-04-28_19h15.31.144,classification_task,2021.2.3,MacIntel,62.5,5bc94b874f22df00010e83f9,626b377229c10585ec392f8a,626b3c159079a17f55d215eb,,,,,,,,,,,,,,,,,,,,,,,a,1,2.067,"[""0.290"",""0.344"",""0.744"",""0.966""]","[1,1,0,1]",0,31,31,31,1,0,1,,,1,FALSE,,,,,,,,,,,,,,,,,,,,,,,,,,,,,,
,5bc94b874f22df00010e83f9,001,2022-04-28_19h15.31.144,classification_task,2021.2.3,MacIntel,62.5,5bc94b874f22df00010e83f9,626b377229c10585ec392f8a,626b3c159079a17f55d215eb,,,,,,,,,,,,,,,,,,,,,,,,0,,"[""0.059"",""0.153"",""0.778"",""0.836""]","[1,1,0,1]",0,32,32,32,1,1,1,,,1,FALSE,,,,,,,,,,,,,,,,,,,,,,,,,,,,,,
,5bc94b874f22df00010e83f9,001,2022-04-28_19h15.31.144,classification_task,2021.2.3,MacIntel,62.5,5bc94b874f22df00010e83f9,626b377229c10585ec392f8a,626b3c159079a17f55d215eb,,,,,,,,,,,,,,,,,,,,,,,a,0,3.8,"[""0.059"",""0.656"",""0.618"",""0.836""]","[1,0,1,1]",0,33,33,33,1,1,1,,,1,FALSE,,,,,,,,,,,,,,,,,,,,,,,,,,,,,,
,5bc94b874f22df00010e83f9,001,2022-04-28_19h15.31.144,classification_task,2021.2.3,MacIntel,62.5,5bc94b874f22df00010e83f9,626b377229c10585ec392f8a,626b3c159079a17f55d215eb,,,,,,,,,,,,,,,,,,,,,,,a,1,5.48,"[""0.290"",""0.196"",""0.583"",""0.966""]","[1,0,1,1]",0,34,34,34,1,0,1,,,1,FALSE,,,,,,,,,,,,,,,,,,,,,,,,,,,,,,
,5bc94b874f22df00010e83f9,001,2022-04-28_19h15.31.144,classification_task,2021.2.3,MacIntel,62.5,5bc94b874f22df00010e83f9,626b377229c10585ec392f8a,626b3c159079a17f55d215eb,,,,,,,,,,,,,,,,,,,,,,,l,0,1.687,"[""0.771"",""0.344"",""0.583"",""0.966""]","[0,1,1,1]",0,35,35,35,1,0,1,,,1,FALSE,,,,,,,,,,,,,,,,,,,,,,,,,,,,,,
,5bc94b874f22df00010e83f9,001,2022-04-28_19h15.31.144,classification_task,2021.2.3,MacIntel,62.5,5bc94b874f22df00010e83f9,626b377229c10585ec392f8a,626b3c159079a17f55d215eb,,,,,,,,,,,,,,,,,,,,,,,a,1,3.264,"[""0.251"",""0.196"",""0.886"",""0.929""]","[1,0,1,1]",0,36,36,36,1,0,0,,,1,FALSE,,,,,,,,,,,,,,,,,,,,,,,,,,,,,,
,5bc94b874f22df00010e83f9,001,2022-04-28_19h15.31.144,classification_task,2021.2.3,MacIntel,62.5,5bc94b874f22df00010e83f9,626b377229c10585ec392f8a,626b3c159079a17f55d215eb,,,,,,,,,,,,,,,,,,,,,,,l,1,2.637,"[""0.778"",""0.153"",""0.618"",""0.836""]","[0,1,1,1]",0,37,37,37,1,1,1,,,1,FALSE,,,,,,,,,,,,,,,,,,,,,,,,,,,,,,
,5bc94b874f22df00010e83f9,001,2022-04-28_19h15.31.144,classification_task,2021.2.3,MacIntel,62.5,5bc94b874f22df00010e83f9,626b377229c10585ec392f8a,626b3c159079a17f55d215eb,,,,,,,,,,,,,,,,,,,,,,,a,0,1.347,"[""0.095"",""0.190"",""0.534"",""0.704""]","[1,0,1,1]",0,38,38,38,1,1,0,,,1,FALSE,,,,,,,,,,,,,,,,,,,,,,,,,,,,,,
,5bc94b874f22df00010e83f9,001,2022-04-28_19h15.31.144,classification_task,2021.2.3,MacIntel,62.5,5bc94b874f22df00010e83f9,626b377229c10585ec392f8a,626b3c159079a17f55d215eb,,,,,,,,,,,,,,,,,,,,,,,l,1,3.832,"[""0.781"",""0.418"",""0.534"",""0.704""]","[0,1,1,1]",0,39,39,39,1,1,0,,,1,FALSE,,,,,,,,,,,,,,,,,,,,,,,,,,,,,,
,5bc94b874f22df00010e83f9,001,2022-04-28_19h15.31.144,classification_task,2021.2.3,MacIntel,62.5,5bc94b874f22df00010e83f9,626b377229c10585ec392f8a,626b3c159079a17f55d215eb,,,,,,,,,,,,,,,,,,,,,,,l,1,2.163,"[""0.095"",""0.418"",""0.771"",""0.704""]","[1,1,0,1]",0,40,40,40,1,1,0,,,1,FALSE,,,,,,,,,,,,,,,,,,,,,,,,,,,,,,
,5bc94b874f22df00010e83f9,001,2022-04-28_19h15.31.144,classification_task,2021.2.3,MacIntel,62.5,5bc94b874f22df00010e83f9,626b377229c10585ec392f8a,626b3c159079a17f55d215eb,,,,,,,,,,,,,,,,,,,,,,,a,1,2.232,"[""0.781"",""0.461"",""0.886"",""0.929""]","[0,1,1,1]",0,41,41,41,1,0,0,,,1,FALSE,,,,,,,,,,,,,,,,,,,,,,,,,,,,,,
,5bc94b874f22df00010e83f9,001,2022-04-28_19h15.31.144,classification_task,2021.2.3,MacIntel,62.5,5bc94b874f22df00010e83f9,626b377229c10585ec392f8a,626b3c159079a17f55d215eb,,,,,,,,,,,,,,,,,,,,,,,l,0,2.259,"[""0.251"",""0.461"",""0.791"",""0.929""]","[1,1,0,1]",0,42,42,42,1,0,0,,,1,FALSE,,,,,,,,,,,,,,,,,,,,,,,,,,,,,,
,5bc94b874f22df00010e83f9,001,2022-04-28_19h15.31.144,classification_task,2021.2.3,MacIntel,62.5,5bc94b874f22df00010e83f9,626b377229c10585ec392f8a,626b3c159079a17f55d215eb,,,,,,,,,,,,,,,,,,,,,,,a,0,2.481,"[""0.059"",""0.153"",""0.618"",""0.791""]","[1,1,1,0]",0,43,43,43,1,1,1,,,1,FALSE,,,,,,,,,,,,,,,,,,,,,,,,,,,,,,
,5bc94b874f22df00010e83f9,001,2022-04-28_19h15.31.144,classification_task,2021.2.3,MacIntel,62.5,5bc94b874f22df00010e83f9,626b377229c10585ec392f8a,626b3c159079a17f55d215eb,,,,,,,,,,,,,,,,,,,,,,,a,0,3.203,"[""0.095"",""0.418"",""0.534"",""0.501""]","[1,1,1,0]",0,44,44,44,1,1,0,,,1,FALSE,,,,,,,,,,,,,,,,,,,,,,,,,,,,,,
,5bc94b874f22df00010e83f9,001,2022-04-28_19h15.31.144,classification_task,2021.2.3,MacIntel,62.5,5bc94b874f22df00010e83f9,626b377229c10585ec392f8a,626b3c159079a17f55d215eb,,,,,,,,,,,,,,,,,,,,,,,a,1,1.438,"[""0.251"",""0.461"",""0.886"",""0.778""]","[1,1,1,0]",0,45,45,45,1,0,0,,,1,FALSE,,,,,,,,,,,,,,,,,,,,,,,,,,,,,,
,5bc94b874f22df00010e83f9,001,2022-04-28_19h15.31.144,classification_task,2021.2.3,MacIntel,62.5,5bc94b874f22df00010e83f9,626b377229c10585ec392f8a,626b3c159079a17f55d215eb,,,,,,,,,,,,,,,,,,,,,,,l,0,1.785,"[""0.290"",""0.344"",""0.583"",""0.380""]","[1,1,1,0]",0,46,46,46,1,0,1,,,1,FALSE,,,,,,,,,,,,,,,,,,,,,,,,,,,,,,
,5bc94b874f22df00010e83f9,001,2022-04-28_19h15.31.144,classification_task,2021.2.3,MacIntel,62.5,5bc94b874f22df00010e83f9,626b377229c10585ec392f8a,626b3c159079a17f55d215eb,,,,,,,,,,,,,,,,,,,,,,,l,0,1.754,"[""0.290"",""0.344"",""0.666"",""0.966""]","[1,1,0,1]",0,47,47,47,1,0,1,,,1,FALSE,,,,,,,,,,,,,,,,,,,,,,,,,,,,,,
,5bc94b874f22df00010e83f9,001,2022-04-28_19h15.31.144,classification_task,2021.2.3,MacIntel,62.5,5bc94b874f22df00010e83f9,626b377229c10585ec392f8a,626b3c159079a17f55d215eb,,,,,,,,,,,,,,,,,,,,,,,l,0,2.065,"[""0.290"",""0.344"",""0.666"",""0.966""]","[1,1,0,1]",0,48,48,48,1,0,1,,,1,FALSE,,,,,,,,,,,,,,,,,,,,,,,,,,,,,,
,5bc94b874f22df00010e83f9,001,2022-04-28_19h15.31.144,classification_task,2021.2.3,MacIntel,62.5,5bc94b874f22df00010e83f9,626b377229c10585ec392f8a,626b3c159079a17f55d215eb,,,,,,,,,,,,,,,,,,,,,,,l,0,2.417,"[""0.290"",""0.771"",""0.583"",""0.966""]","[1,0,1,1]",0,49,49,49,1,0,1,,,1,FALSE,,,,,,,,,,,,,,,,,,,,,,,,,,,,,,
,5bc94b874f22df00010e83f9,001,2022-04-28_19h15.31.144,classification_task,2021.2.3,MacIntel,62.5,5bc94b874f22df00010e83f9,626b377229c10585ec392f8a,626b3c159079a17f55d215eb,,,,,,,,,,,,,,,,,,,,,,,a,0,1.37,"[""0.203"",""0.418"",""0.534"",""0.704""]","[0,1,1,1]",0,50,50,50,1,1,0,,,1,FALSE,,,,,,,,,,,,,,,,,,,,,,,,,,,,,,
,5bc94b874f22df00010e83f9,001,2022-04-28_19h15.31.144,classification_task,2021.2.3,MacIntel,62.5,5bc94b874f22df00010e83f9,626b377229c10585ec392f8a,626b3c159079a17f55d215eb,,,,,,,,,,,,,,,,,,,,,,,l,1,2.179,"[""0.095"",""0.418"",""0.534"",""0.744""]","[1,1,1,0]",0,51,51,51,1,1,0,,,1,FALSE,,,,,,,,,,,,,,,,,,,,,,,,,,,,,,
,5bc94b874f22df00010e83f9,001,2022-04-28_19h15.31.144,classification_task,2021.2.3,MacIntel,62.5,5bc94b874f22df00010e83f9,626b377229c10585ec392f8a,626b3c159079a17f55d215eb,,,,,,,,,,,,,,,,,,,,,,,l,1,1.437,"[""0.095"",""0.418"",""0.380"",""0.704""]","[1,1,0,1]",0,52,52,52,1,1,0,,,1,FALSE,,,,,,,,,,,,,,,,,,,,,,,,,,,,,,
,5bc94b874f22df00010e83f9,001,2022-04-28_19h15.31.144,classification_task,2021.2.3,MacIntel,62.5,5bc94b874f22df00010e83f9,626b377229c10585ec392f8a,626b3c159079a17f55d215eb,,,,,,,,,,,,,,,,,,,,,,,a,1,0.969,"[""0.290"",""0.344"",""0.583"",""0.190""]","[1,1,1,0]",0,53,53,53,1,0,1,,,1,FALSE,,,,,,,,,,,,,,,,,,,,,,,,,,,,,,
,5bc94b874f22df00010e83f9,001,2022-04-28_19h15.31.144,classification_task,2021.2.3,MacIntel,62.5,5bc94b874f22df00010e83f9,626b377229c10585ec392f8a,626b3c159079a17f55d215eb,,,,,,,,,,,,,,,,,,,,,,,l,0,0.865,"[""0.251"",""0.461"",""0.886"",""0.761""]","[1,1,1,0]",0,54,54,54,1,0,0,,,1,FALSE,,,,,,,,,,,,,,,,,,,,,,,,,,,,,,
,5bc94b874f22df00010e83f9,001,2022-04-28_19h15.31.144,classification_task,2021.2.3,MacIntel,62.5,5bc94b874f22df00010e83f9,626b377229c10585ec392f8a,626b3c159079a17f55d215eb,,,,,,,,,,,,,,,,,,,,,,,a,0,1.811,"[""0.760"",""0.153"",""0.618"",""0.836""]","[0,1,1,1]",0,55,55,55,1,1,1,,,1,FALSE,,,,,,,,,,,,,,,,,,,,,,,,,,,,,,
,5bc94b874f22df00010e83f9,001,2022-04-28_19h15.31.144,classification_task,2021.2.3,MacIntel,62.5,5bc94b874f22df00010e83f9,626b377229c10585ec392f8a,626b3c159079a17f55d215eb,,,,,,,,,,,,,,,,,,,,,,,a,1,1.586,"[""0.196"",""0.461"",""0.886"",""0.929""]","[0,1,1,1]",0,56,56,56,1,0,0,,,1,FALSE,,,,,,,,,,,,,,,,,,,,,,,,,,,,,,
,5bc94b874f22df00010e83f9,001,2022-04-28_19h15.31.144,classification_task,2021.2.3,MacIntel,62.5,5bc94b874f22df00010e83f9,626b377229c10585ec392f8a,626b3c159079a17f55d215eb,,,,,,,,,,,,,,,,,,,,,,,l,0,1.704,"[""0.771"",""0.344"",""0.583"",""0.966""]","[0,1,1,1]",0,57,57,57,1,0,1,,,1,FALSE,,,,,,,,,,,,,,,,,,,,,,,,,,,,,,
,5bc94b874f22df00010e83f9,001,2022-04-28_19h15.31.144,classification_task,2021.2.3,MacIntel,62.5,5bc94b874f22df00010e83f9,626b377229c10585ec392f8a,626b3c159079a17f55d215eb,,,,,,,,,,,,,,,,,,,,,,,a,0,1.27,"[""0.095"",""0.203"",""0.534"",""0.704""]","[1,0,1,1]",0,58,58,58,1,1,0,,,1,FALSE,,,,,,,,,,,,,,,,,,,,,,,,,,,,,,
,5bc94b874f22df00010e83f9,001,2022-04-28_19h15.31.144,classification_task,2021.2.3,MacIntel,62.5,5bc94b874f22df00010e83f9,626b377229c10585ec392f8a,626b3c159079a17f55d215eb,,,,,,,,,,,,,,,,,,,,,,,a,0,1.702,"[""0.059"",""0.153"",""0.770"",""0.836""]","[1,1,0,1]",0,59,59,59,1,1,1,,,1,FALSE,,,,,,,,,,,,,,,,,,,,,,,,,,,,,,
,5bc94b874f22df00010e83f9,001,2022-04-28_19h15.31.144,classification_task,2021.2.3,MacIntel,62.5,5bc94b874f22df00010e83f9,626b377229c10585ec392f8a,626b3c159079a17f55d215eb,,,,,,,,,,,,,,,,,,,,,,,l,0,1.847,"[""0.251"",""0.461"",""0.190"",""0.929""]","[1,1,0,1]",0,60,60,60,1,0,0,,,1,FALSE,,,,,,,,,,,,,,,,,,,,,,,,,,,,,,
,5bc94b874f22df00010e83f9,001,2022-04-28_19h15.31.144,classification_task,2021.2.3,MacIntel,62.5,5bc94b874f22df00010e83f9,626b377229c10585ec392f8a,626b3c159079a17f55d215eb,,,,,,,,,,,,,,,,,,,,,,,l,0,1.914,"[""0.251"",""0.760"",""0.886"",""0.929""]","[1,0,1,1]",0,61,61,61,1,0,0,,,1,FALSE,,,,,,,,,,,,,,,,,,,,,,,,,,,,,,
,5bc94b874f22df00010e83f9,001,2022-04-28_19h15.31.144,classification_task,2021.2.3,MacIntel,62.5,5bc94b874f22df00010e83f9,626b377229c10585ec392f8a,626b3c159079a17f55d215eb,,,,,,,,,,,,,,,,,,,,,,,a,0,1.428,"[""0.059"",""0.153"",""0.618"",""0.791""]","[1,1,1,0]",0,62,62,62,1,1,1,,,1,FALSE,,,,,,,,,,,,,,,,,,,,,,,,,,,,,,
,5bc94b874f22df00010e83f9,001,2022-04-28_19h15.31.144,classification_task,2021.2.3,MacIntel,62.5,5bc94b874f22df00010e83f9,626b377229c10585ec392f8a,626b3c159079a17f55d215eb,,,,,,,,,,,,,,,,,,,,,,,l,1,1.131,"[""0.059"",""0.791"",""0.618"",""0.836""]","[1,0,1,1]",0,63,63,63,1,1,1,,,1,FALSE,,,,,,,,,,,,,,,,,,,,,,,,,,,,,,
,5bc94b874f22df00010e83f9,001,2022-04-28_19h15.31.144,classification_task,2021.2.3,MacIntel,62.5,5bc94b874f22df00010e83f9,626b377229c10585ec392f8a,626b3c159079a17f55d215eb,,,,,,,,,,,,,,,,,,,,,,,,,,,,,,,,,,,,,,,0, ,,0,0,6256.946,0,0,0,0,1,2,1,,,,,,,,,,,,,,,,,
,5bc94b874f22df00010e83f9,001,2022-04-28_19h15.31.144,classification_task,2021.2.3,MacIntel,62.5,5bc94b874f22df00010e83f9,626b377229c10585ec392f8a,626b3c159079a17f55d215eb,,,,,,,,,,,,,,,,,,,,,,,,,,,,,,,,,,,,,,,1,  ,,0,5.289301626,6277.162,0,0,0,0,1,2,1,,,,,,,,,,,,,,,,,
,5bc94b874f22df00010e83f9,001,2022-04-28_19h15.31.144,classification_task,2021.2.3,MacIntel,62.5,5bc94b874f22df00010e83f9,626b377229c10585ec392f8a,626b3c159079a17f55d215eb,,,,,,,,,,,,,,,,,,,,,,,,,,,,,,,,,,,,,,,2,  ,,0,2.846310118,6281.502,0,0,0,0,1,2,1,,,,,,,,,,,,,,,,,
,5bc94b874f22df00010e83f9,001,2022-04-28_19h15.31.144,classification_task,2021.2.3,MacIntel,62.5,5bc94b874f22df00010e83f9,626b377229c10585ec392f8a,626b3c159079a17f55d215eb,,,,,,,,,,,,,,,,,,,,,,,,,,,,,,,,,,,,,,,,,,,,,0,0,0,0,1,,1,,,,,,,,,,,,,,,,,
,5bc94b874f22df00010e83f9,001,2022-04-28_19h15.31.144,classification_task,2021.2.3,MacIntel,62.5,5bc94b874f22df00010e83f9,626b377229c10585ec392f8a,626b3c159079a17f55d215eb,,,,,,,,,,,,,,,,,,,,,space,22.808,a,1,7.111,"[""0.290"",""0.344"",""0.583"",""0.771""]","[1,1,1,0]",0,0,0,0,1,0,1,,,1,FALSE,,,,,,,,,,,,,,,,,,,,,,,,,,,,,,
,5bc94b874f22df00010e83f9,001,2022-04-28_19h15.31.144,classification_task,2021.2.3,MacIntel,62.5,5bc94b874f22df00010e83f9,626b377229c10585ec392f8a,626b3c159079a17f55d215eb,,,,,,,,,,,,,,,,,,,,,,,,0,,"[""0.095"",""0.760"",""0.534"",""0.704""]","[1,0,1,1]",0,1,1,1,1,1,0,,,1,FALSE,,,,,,,,,,,,,,,,,,,,,,,,,,,,,,
,5bc94b874f22df00010e83f9,001,2022-04-28_19h15.31.144,classification_task,2021.2.3,MacIntel,62.5,5bc94b874f22df00010e83f9,626b377229c10585ec392f8a,626b3c159079a17f55d215eb,,,,,,,,,,,,,,,,,,,,,,,l,1,2.726,"[""0.059"",""0.744"",""0.618"",""0.836""]","[1,0,1,1]",0,2,2,2,1,1,1,,,1,FALSE,,,,,,,,,,,,,,,,,,,,,,,,,,,,,,
,5bc94b874f22df00010e83f9,001,2022-04-28_19h15.31.144,classification_task,2021.2.3,MacIntel,62.5,5bc94b874f22df00010e83f9,626b377229c10585ec392f8a,626b3c159079a17f55d215eb,,,,,,,,,,,,,,,,,,,,,,,a,0,3.823,"[""0.095"",""0.418"",""0.190"",""0.704""]","[1,1,0,1]",0,3,3,3,1,1,0,,,1,FALSE,,,,,,,,,,,,,,,,,,,,,,,,,,,,,,
,5bc94b874f22df00010e83f9,001,2022-04-28_19h15.31.144,classification_task,2021.2.3,MacIntel,62.5,5bc94b874f22df00010e83f9,626b377229c10585ec392f8a,626b3c159079a17f55d215eb,,,,,,,,,,,,,,,,,,,,,,,l,1,1.696,"[""0.095"",""0.418"",""0.534"",""0.791""]","[1,1,1,0]",0,4,4,4,1,1,0,,,1,FALSE,,,,,,,,,,,,,,,,,,,,,,,,,,,,,,
,5bc94b874f22df00010e83f9,001,2022-04-28_19h15.31.144,classification_task,2021.2.3,MacIntel,62.5,5bc94b874f22df00010e83f9,626b377229c10585ec392f8a,626b3c159079a17f55d215eb,,,,,,,,,,,,,,,,,,,,,,,a,1,1.724,"[""0.290"",""0.501"",""0.583"",""0.966""]","[1,0,1,1]",0,5,5,5,1,0,1,,,1,FALSE,,,,,,,,,,,,,,,,,,,,,,,,,,,,,,
,5bc94b874f22df00010e83f9,001,2022-04-28_19h15.31.144,classification_task,2021.2.3,MacIntel,62.5,5bc94b874f22df00010e83f9,626b377229c10585ec392f8a,626b3c159079a17f55d215eb,,,,,,,,,,,,,,,,,,,,,,,a,1,2.067,"[""0.380"",""0.344"",""0.583"",""0.966""]","[0,1,1,1]",0,6,6,6,1,0,1,,,1,FALSE,,,,,,,,,,,,,,,,,,,,,,,,,,,,,,
,5bc94b874f22df00010e83f9,001,2022-04-28_19h15.31.144,classification_task,2021.2.3,MacIntel,62.5,5bc94b874f22df00010e83f9,626b377229c10585ec392f8a,626b3c159079a17f55d215eb,,,,,,,,,,,,,,,,,,,,,,,l,0,1.808,"[""0.251"",""0.461"",""0.886"",""0.770""]","[1,1,1,0]",0,7,7,7,1,0,0,,,1,FALSE,,,,,,,,,,,,,,,,,,,,,,,,,,,,,,
,5bc94b874f22df00010e83f9,001,2022-04-28_19h15.31.144,classification_task,2021.2.3,MacIntel,62.5,5bc94b874f22df00010e83f9,626b377229c10585ec392f8a,626b3c159079a17f55d215eb,,,,,,,,,,,,,,,,,,,,,,,a,1,3.999,"[""0.290"",""0.344"",""0.190"",""0.966""]","[1,1,0,1]",0,8,8,8,1,0,1,,,1,FALSE,,,,,,,,,,,,,,,,,,,,,,,,,,,,,,
,5bc94b874f22df00010e83f9,001,2022-04-28_19h15.31.144,classification_task,2021.2.3,MacIntel,62.5,5bc94b874f22df00010e83f9,626b377229c10585ec392f8a,626b3c159079a17f55d215eb,,,,,,,,,,,,,,,,,,,,,,,l,1,2.123,"[""0.666"",""0.153"",""0.618"",""0.836""]","[0,1,1,1]",0,9,9,9,1,1,1,,,1,FALSE,,,,,,,,,,,,,,,,,,,,,,,,,,,,,,
,5bc94b874f22df00010e83f9,001,2022-04-28_19h15.31.144,classification_task,2021.2.3,MacIntel,62.5,5bc94b874f22df00010e83f9,626b377229c10585ec392f8a,626b3c159079a17f55d215eb,,,,,,,,,,,,,,,,,,,,,,,l,0,1.887,"[""0.251"",""0.770"",""0.886"",""0.929""]","[1,0,1,1]",0,10,10,10,1,0,0,,,1,FALSE,,,,,,,,,,,,,,,,,,,,,,,,,,,,,,
,5bc94b874f22df00010e83f9,001,2022-04-28_19h15.31.144,classification_task,2021.2.3,MacIntel,62.5,5bc94b874f22df00010e83f9,626b377229c10585ec392f8a,626b3c159079a17f55d215eb,,,,,,,,,,,,,,,,,,,,,,,l,1,1.809,"[""0.059"",""0.153"",""0.770"",""0.836""]","[1,1,0,1]",0,11,11,11,1,1,1,,,1,FALSE,,,,,,,,,,,,,,,,,,,,,,,,,,,,,,
,5bc94b874f22df00010e83f9,001,2022-04-28_19h15.31.144,classification_task,2021.2.3,MacIntel,62.5,5bc94b874f22df00010e83f9,626b377229c10585ec392f8a,626b3c159079a17f55d215eb,,,,,,,,,,,,,,,,,,,,,,,a,0,2.423,"[""0.765"",""0.418"",""0.534"",""0.704""]","[0,1,1,1]",0,12,12,12,1,1,0,,,1,FALSE,,,,,,,,,,,,,,,,,,,,,,,,,,,,,,
,5bc94b874f22df00010e83f9,001,2022-04-28_19h15.31.144,classification_task,2021.2.3,MacIntel,62.5,5bc94b874f22df00010e83f9,626b377229c10585ec392f8a,626b3c159079a17f55d215eb,,,,,,,,,,,,,,,,,,,,,,,a,1,1.929,"[""0.765"",""0.461"",""0.886"",""0.929""]","[0,1,1,1]",0,13,13,13,1,0,0,,,1,FALSE,,,,,,,,,,,,,,,,,,,,,,,,,,,,,,
,5bc94b874f22df00010e83f9,001,2022-04-28_19h15.31.144,classification_task,2021.2.3,MacIntel,62.5,5bc94b874f22df00010e83f9,626b377229c10585ec392f8a,626b3c159079a17f55d215eb,,,,,,,,,,,,,,,,,,,,,,,l,1,1.644,"[""0.059"",""0.153"",""0.618"",""0.771""]","[1,1,1,0]",0,14,14,14,1,1,1,,,1,FALSE,,,,,,,,,,,,,,,,,,,,,,,,,,,,,,
,5bc94b874f22df00010e83f9,001,2022-04-28_19h15.31.144,classification_task,2021.2.3,MacIntel,62.5,5bc94b874f22df00010e83f9,626b377229c10585ec392f8a,626b3c159079a17f55d215eb,,,,,,,,,,,,,,,,,,,,,,,l,0,2.965,"[""0.251"",""0.461"",""0.744"",""0.929""]","[1,1,0,1]",0,15,15,15,1,0,0,,,1,FALSE,,,,,,,,,,,,,,,,,,,,,,,,,,,,,,
,5bc94b874f22df00010e83f9,001,2022-04-28_19h15.31.144,classification_task,2021.2.3,MacIntel,62.5,5bc94b874f22df00010e83f9,626b377229c10585ec392f8a,626b3c159079a17f55d215eb,,,,,,,,,,,,,,,,,,,,,,,l,0,1.395,"[""0.791"",""0.461"",""0.886"",""0.929""]","[0,1,1,1]",0,16,16,16,1,0,0,,,1,FALSE,,,,,,,,,,,,,,,,,,,,,,,,,,,,,,
,5bc94b874f22df00010e83f9,001,2022-04-28_19h15.31.144,classification_task,2021.2.3,MacIntel,62.5,5bc94b874f22df00010e83f9,626b377229c10585ec392f8a,626b3c159079a17f55d215eb,,,,,,,,,,,,,,,,,,,,,,,a,1,1.538,"[""0.761"",""0.344"",""0.583"",""0.966""]","[0,1,1,1]",0,17,17,17,1,0,1,,,1,FALSE,,,,,,,,,,,,,,,,,,,,,,,,,,,,,,
,5bc94b874f22df00010e83f9,001,2022-04-28_19h15.31.144,classification_task,2021.2.3,MacIntel,62.5,5bc94b874f22df00010e83f9,626b377229c10585ec392f8a,626b3c159079a17f55d215eb,,,,,,,,,,,,,,,,,,,,,,,a,1,1.449,"[""0.251"",""0.461"",""0.760"",""0.929""]","[1,1,0,1]",0,18,18,18,1,0,0,,,1,FALSE,,,,,,,,,,,,,,,,,,,,,,,,,,,,,,
,5bc94b874f22df00010e83f9,001,2022-04-28_19h15.31.144,classification_task,2021.2.3,MacIntel,62.5,5bc94b874f22df00010e83f9,626b377229c10585ec392f8a,626b3c159079a17f55d215eb,,,,,,,,,,,,,,,,,,,,,,,a,0,1.46,"[""0.095"",""0.418"",""0.534"",""0.765""]","[1,1,1,0]",0,19,19,19,1,1,0,,,1,FALSE,,,,,,,,,,,,,,,,,,,,,,,,,,,,,,
,5bc94b874f22df00010e83f9,001,2022-04-28_19h15.31.144,classification_task,2021.2.3,MacIntel,62.5,5bc94b874f22df00010e83f9,626b377229c10585ec392f8a,626b3c159079a17f55d215eb,,,,,,,,,,,,,,,,,,,,,,,a,0,2.172,"[""0.095"",""0.418"",""0.781"",""0.704""]","[1,1,0,1]",0,20,20,20,1,1,0,,,1,FALSE,,,,,,,,,,,,,,,,,,,,,,,,,,,,,,
,5bc94b874f22df00010e83f9,001,2022-04-28_19h15.31.144,classification_task,2021.2.3,MacIntel,62.5,5bc94b874f22df00010e83f9,626b377229c10585ec392f8a,626b3c159079a17f55d215eb,,,,,,,,,,,,,,,,,,,,,,,l,1,1.424,"[""0.059"",""0.765"",""0.618"",""0.836""]","[1,0,1,1]",0,21,21,21,1,1,1,,,1,FALSE,,,,,,,,,,,,,,,,,,,,,,,,,,,,,,
,5bc94b874f22df00010e83f9,001,2022-04-28_19h15.31.144,classification_task,2021.2.3,MacIntel,62.5,5bc94b874f22df00010e83f9,626b377229c10585ec392f8a,626b3c159079a17f55d215eb,,,,,,,,,,,,,,,,,,,,,,,l,0,1.939,"[""0.251"",""0.771"",""0.886"",""0.929""]","[1,0,1,1]",0,22,22,22,1,0,0,,,1,FALSE,,,,,,,,,,,,,,,,,,,,,,,,,,,,,,
,5bc94b874f22df00010e83f9,001,2022-04-28_19h15.31.144,classification_task,2021.2.3,MacIntel,62.5,5bc94b874f22df00010e83f9,626b377229c10585ec392f8a,626b3c159079a17f55d215eb,,,,,,,,,,,,,,,,,,,,,,,a,1,1.222,"[""0.290"",""0.344"",""0.583"",""0.656""]","[1,1,1,0]",0,23,23,23,1,0,1,,,1,FALSE,,,,,,,,,,,,,,,,,,,,,,,,,,,,,,
,5bc94b874f22df00010e83f9,001,2022-04-28_19h15.31.144,classification_task,2021.2.3,MacIntel,62.5,5bc94b874f22df00010e83f9,626b377229c10585ec392f8a,626b3c159079a17f55d215eb,,,,,,,,,,,,,,,,,,,,,,,l,1,1.095,"[""0.059"",""0.153"",""0.618"",""0.666""]","[1,1,1,0]",0,24,24,24,1,1,1,,,1,FALSE,,,,,,,,,,,,,,,,,,,,,,,,,,,,,,
,5bc94b874f22df00010e83f9,001,2022-04-28_19h15.31.144,classification_task,2021.2.3,MacIntel,62.5,5bc94b874f22df00010e83f9,626b377229c10585ec392f8a,626b3c159079a17f55d215eb,,,,,,,,,,,,,,,,,,,,,,,a,1,1.174,"[""0.290"",""0.344"",""0.778"",""0.966""]","[1,1,0,1]",0,25,25,25,1,0,1,,,1,FALSE,,,,,,,,,,,,,,,,,,,,,,,,,,,,,,
,5bc94b874f22df00010e83f9,001,2022-04-28_19h15.31.144,classification_task,2021.2.3,MacIntel,62.5,5bc94b874f22df00010e83f9,626b377229c10585ec392f8a,626b3c159079a17f55d215eb,,,,,,,,,,,,,,,,,,,,,,,l,1,0.864,"[""0.059"",""0.153"",""0.656"",""0.836""]","[1,1,0,1]",0,26,26,26,1,1,1,,,1,FALSE,,,,,,,,,,,,,,,,,,,,,,,,,,,,,,
,5bc94b874f22df00010e83f9,001,2022-04-28_19h15.31.144,classification_task,2021.2.3,MacIntel,62.5,5bc94b874f22df00010e83f9,626b377229c10585ec392f8a,626b3c159079a17f55d215eb,,,,,,,,,,,,,,,,,,,,,,,l,1,1.294,"[""0.778"",""0.418"",""0.534"",""0.704""]","[0,1,1,1]",0,27,27,27,1,1,0,,,1,FALSE,,,,,,,,,,,,,,,,,,,,,,,,,,,,,,
,5bc94b874f22df00010e83f9,001,2022-04-28_19h15.31.144,classification_task,2021.2.3,MacIntel,62.5,5bc94b874f22df00010e83f9,626b377229c10585ec392f8a,626b3c159079a17f55d215eb,,,,,,,,,,,,,,,,,,,,,,,a,1,1.306,"[""0.290"",""0.781"",""0.583"",""0.966""]","[1,0,1,1]",0,28,28,28,1,0,1,,,1,FALSE,,,,,,,,,,,,,,,,,,,,,,,,,,,,,,
,5bc94b874f22df00010e83f9,001,2022-04-28_19h15.31.144,classification_task,2021.2.3,MacIntel,62.5,5bc94b874f22df00010e83f9,626b377229c10585ec392f8a,626b3c159079a17f55d215eb,,,,,,,,,,,,,,,,,,,,,,,a,1,1.109,"[""0.251"",""0.461"",""0.886"",""0.380""]","[1,1,1,0]",0,29,29,29,1,0,0,,,1,FALSE,,,,,,,,,,,,,,,,,,,,,,,,,,,,,,
,5bc94b874f22df00010e83f9,001,2022-04-28_19h15.31.144,classification_task,2021.2.3,MacIntel,62.5,5bc94b874f22df00010e83f9,626b377229c10585ec392f8a,626b3c159079a17f55d215eb,,,,,,,,,,,,,,,,,,,,,,,l,1,0.836,"[""0.190"",""0.153"",""0.618"",""0.836""]","[0,1,1,1]",0,30,30,30,1,1,1,,,1,FALSE,,,,,,,,,,,,,,,,,,,,,,,,,,,,,,
,5bc94b874f22df00010e83f9,001,2022-04-28_19h15.31.144,classification_task,2021.2.3,MacIntel,62.5,5bc94b874f22df00010e83f9,626b377229c10585ec392f8a,626b3c159079a17f55d215eb,,,,,,,,,,,,,,,,,,,,,,,l,1,1.154,"[""0.095"",""0.781"",""0.534"",""0.704""]","[1,0,1,1]",0,31,31,31,1,1,0,,,1,FALSE,,,,,,,,,,,,,,,,,,,,,,,,,,,,,,
,5bc94b874f22df00010e83f9,001,2022-04-28_19h15.31.144,classification_task,2021.2.3,MacIntel,62.5,5bc94b874f22df00010e83f9,626b377229c10585ec392f8a,626b3c159079a17f55d215eb,,,,,,,,,,,,,,,,,,,,,,,l,0,1.846,"[""0.778"",""0.461"",""0.886"",""0.929""]","[0,1,1,1]",0,32,32,32,1,0,0,,,1,FALSE,,,,,,,,,,,,,,,,,,,,,,,,,,,,,,
,5bc94b874f22df00010e83f9,001,2022-04-28_19h15.31.144,classification_task,2021.2.3,MacIntel,62.5,5bc94b874f22df00010e83f9,626b377229c10585ec392f8a,626b3c159079a17f55d215eb,,,,,,,,,,,,,,,,,,,,,,,a,1,1.087,"[""0.290"",""0.344"",""0.771"",""0.966""]","[1,1,0,1]",0,33,33,33,1,0,1,,,1,FALSE,,,,,,,,,,,,,,,,,,,,,,,,,,,,,,
,5bc94b874f22df00010e83f9,001,2022-04-28_19h15.31.144,classification_task,2021.2.3,MacIntel,62.5,5bc94b874f22df00010e83f9,626b377229c10585ec392f8a,626b3c159079a17f55d215eb,,,,,,,,,,,,,,,,,,,,,,,l,1,1.095,"[""0.059"",""0.765"",""0.618"",""0.836""]","[1,0,1,1]",0,34,34,34,1,1,1,,,1,FALSE,,,,,,,,,,,,,,,,,,,,,,,,,,,,,,
,5bc94b874f22df00010e83f9,001,2022-04-28_19h15.31.144,classification_task,2021.2.3,MacIntel,62.5,5bc94b874f22df00010e83f9,626b377229c10585ec392f8a,626b3c159079a17f55d215eb,,,,,,,,,,,,,,,,,,,,,,,l,1,1.203,"[""0.095"",""0.418"",""0.666"",""0.704""]","[1,1,0,1]",0,35,35,35,1,1,0,,,1,FALSE,,,,,,,,,,,,,,,,,,,,,,,,,,,,,,
,5bc94b874f22df00010e83f9,001,2022-04-28_19h15.31.144,classification_task,2021.2.3,MacIntel,62.5,5bc94b874f22df00010e83f9,626b377229c10585ec392f8a,626b3c159079a17f55d215eb,,,,,,,,,,,,,,,,,,,,,,,a,1,1.287,"[""0.778"",""0.344"",""0.583"",""0.966""]","[0,1,1,1]",0,36,36,36,1,0,1,,,1,FALSE,,,,,,,,,,,,,,,,,,,,,,,,,,,,,,
,5bc94b874f22df00010e83f9,001,2022-04-28_19h15.31.144,classification_task,2021.2.3,MacIntel,62.5,5bc94b874f22df00010e83f9,626b377229c10585ec392f8a,626b3c159079a17f55d215eb,,,,,,,,,,,,,,,,,,,,,,,l,1,0.966,"[""0.059"",""0.153"",""0.771"",""0.836""]","[1,1,0,1]",0,37,37,37,1,1,1,,,1,FALSE,,,,,,,,,,,,,,,,,,,,,,,,,,,,,,
,5bc94b874f22df00010e83f9,001,2022-04-28_19h15.31.144,classification_task,2021.2.3,MacIntel,62.5,5bc94b874f22df00010e83f9,626b377229c10585ec392f8a,626b3c159079a17f55d215eb,,,,,,,,,,,,,,,,,,,,,,,a,1,0.877,"[""0.290"",""0.344"",""0.583"",""0.203""]","[1,1,1,0]",0,38,38,38,1,0,1,,,1,FALSE,,,,,,,,,,,,,,,,,,,,,,,,,,,,,,
,5bc94b874f22df00010e83f9,001,2022-04-28_19h15.31.144,classification_task,2021.2.3,MacIntel,62.5,5bc94b874f22df00010e83f9,626b377229c10585ec392f8a,626b3c159079a17f55d215eb,,,,,,,,,,,,,,,,,,,,,,,a,0,0.822,"[""0.765"",""0.418"",""0.534"",""0.704""]","[0,1,1,1]",0,39,39,39,1,1,0,,,1,FALSE,,,,,,,,,,,,,,,,,,,,,,,,,,,,,,
,5bc94b874f22df00010e83f9,001,2022-04-28_19h15.31.144,classification_task,2021.2.3,MacIntel,62.5,5bc94b874f22df00010e83f9,626b377229c10585ec392f8a,626b3c159079a17f55d215eb,,,,,,,,,,,,,,,,,,,,,,,l,1,1.501,"[""0.059"",""0.153"",""0.618"",""0.190""]","[1,1,1,0]",0,40,40,40,1,1,1,,,1,FALSE,,,,,,,,,,,,,,,,,,,,,,,,,,,,,,
,5bc94b874f22df00010e83f9,001,2022-04-28_19h15.31.144,classification_task,2021.2.3,MacIntel,62.5,5bc94b874f22df00010e83f9,626b377229c10585ec392f8a,626b3c159079a17f55d215eb,,,,,,,,,,,,,,,,,,,,,,,l,0,1.062,"[""0.251"",""0.461"",""0.886"",""0.765""]","[1,1,1,0]",0,41,41,41,1,0,0,,,1,FALSE,,,,,,,,,,,,,,,,,,,,,,,,,,,,,,
,5bc94b874f22df00010e83f9,001,2022-04-28_19h15.31.144,classification_task,2021.2.3,MacIntel,62.5,5bc94b874f22df00010e83f9,626b377229c10585ec392f8a,626b3c159079a17f55d215eb,,,,,,,,,,,,,,,,,,,,,,,a,1,1.663,"[""0.251"",""0.781"",""0.886"",""0.929""]","[1,0,1,1]",0,42,42,42,1,0,0,,,1,FALSE,,,,,,,,,,,,,,,,,,,,,,,,,,,,,,
,5bc94b874f22df00010e83f9,001,2022-04-28_19h15.31.144,classification_task,2021.2.3,MacIntel,62.5,5bc94b874f22df00010e83f9,626b377229c10585ec392f8a,626b3c159079a17f55d215eb,,,,,,,,,,,,,,,,,,,,,,,l,1,1.096,"[""0.095"",""0.190"",""0.534"",""0.704""]","[1,0,1,1]",0,43,43,43,1,1,0,,,1,FALSE,,,,,,,,,,,,,,,,,,,,,,,,,,,,,,
,5bc94b874f22df00010e83f9,001,2022-04-28_19h15.31.144,classification_task,2021.2.3,MacIntel,62.5,5bc94b874f22df00010e83f9,626b377229c10585ec392f8a,626b3c159079a17f55d215eb,,,,,,,,,,,,,,,,,,,,,,,l,1,1.87,"[""0.778"",""0.153"",""0.618"",""0.836""]","[0,1,1,1]",0,44,44,44,1,1,1,,,1,FALSE,,,,,,,,,,,,,,,,,,,,,,,,,,,,,,
,5bc94b874f22df00010e83f9,001,2022-04-28_19h15.31.144,classification_task,2021.2.3,MacIntel,62.5,5bc94b874f22df00010e83f9,626b377229c10585ec392f8a,626b3c159079a17f55d215eb,,,,,,,,,,,,,,,,,,,,,,,a,1,1.546,"[""0.290"",""0.744"",""0.583"",""0.966""]","[1,0,1,1]",0,45,45,45,1,0,1,,,1,FALSE,,,,,,,,,,,,,,,,,,,,,,,,,,,,,,
,5bc94b874f22df00010e83f9,001,2022-04-28_19h15.31.144,classification_task,2021.2.3,MacIntel,62.5,5bc94b874f22df00010e83f9,626b377229c10585ec392f8a,626b3c159079a17f55d215eb,,,,,,,,,,,,,,,,,,,,,,,l,0,1.48,"[""0.251"",""0.461"",""0.380"",""0.929""]","[1,1,0,1]",0,46,46,46,1,0,0,,,1,FALSE,,,,,,,,,,,,,,,,,,,,,,,,,,,,,,
,5bc94b874f22df00010e83f9,001,2022-04-28_19h15.31.144,classification_task,2021.2.3,MacIntel,62.5,5bc94b874f22df00010e83f9,626b377229c10585ec392f8a,626b3c159079a17f55d215eb,,,,,,,,,,,,,,,,,,,,,,,a,0,1.415,"[""0.095"",""0.418"",""0.534"",""0.765""]","[1,1,1,0]",0,47,47,47,1,1,0,,,1,FALSE,,,,,,,,,,,,,,,,,,,,,,,,,,,,,,
,5bc94b874f22df00010e83f9,001,2022-04-28_19h15.31.144,classification_task,2021.2.3,MacIntel,62.5,5bc94b874f22df00010e83f9,626b377229c10585ec392f8a,626b3c159079a17f55d215eb,,,,,,,,,,,,,,,,,,,,,,,a,1,1.454,"[""0.290"",""0.344"",""0.190"",""0.966""]","[1,1,0,1]",0,48,48,48,1,0,1,,,1,FALSE,,,,,,,,,,,,,,,,,,,,,,,,,,,,,,
,5bc94b874f22df00010e83f9,001,2022-04-28_19h15.31.144,classification_task,2021.2.3,MacIntel,62.5,5bc94b874f22df00010e83f9,626b377229c10585ec392f8a,626b3c159079a17f55d215eb,,,,,,,,,,,,,,,,,,,,,,,l,1,1.198,"[""0.770"",""0.153"",""0.618"",""0.836""]","[0,1,1,1]",0,49,49,49,1,1,1,,,1,FALSE,,,,,,,,,,,,,,,,,,,,,,,,,,,,,,
,5bc94b874f22df00010e83f9,001,2022-04-28_19h15.31.144,classification_task,2021.2.3,MacIntel,62.5,5bc94b874f22df00010e83f9,626b377229c10585ec392f8a,626b3c159079a17f55d215eb,,,,,,,,,,,,,,,,,,,,,,,l,0,1.087,"[""0.251"",""0.461"",""0.765"",""0.929""]","[1,1,0,1]",0,50,50,50,1,0,0,,,1,FALSE,,,,,,,,,,,,,,,,,,,,,,,,,,,,,,
,5bc94b874f22df00010e83f9,001,2022-04-28_19h15.31.144,classification_task,2021.2.3,MacIntel,62.5,5bc94b874f22df00010e83f9,626b377229c10585ec392f8a,626b3c159079a17f55d215eb,,,,,,,,,,,,,,,,,,,,,,,a,1,1.08,"[""0.760"",""0.461"",""0.886"",""0.929""]","[0,1,1,1]",0,51,51,51,1,0,0,,,1,FALSE,,,,,,,,,,,,,,,,,,,,,,,,,,,,,,
,5bc94b874f22df00010e83f9,001,2022-04-28_19h15.31.144,classification_task,2021.2.3,MacIntel,62.5,5bc94b874f22df00010e83f9,626b377229c10585ec392f8a,626b3c159079a17f55d215eb,,,,,,,,,,,,,,,,,,,,,,,l,1,1.322,"[""0.059"",""0.153"",""0.618"",""0.781""]","[1,1,1,0]",0,52,52,52,1,1,1,,,1,FALSE,,,,,,,,,,,,,,,,,,,,,,,,,,,,,,
,5bc94b874f22df00010e83f9,001,2022-04-28_19h15.31.144,classification_task,2021.2.3,MacIntel,62.5,5bc94b874f22df00010e83f9,626b377229c10585ec392f8a,626b3c159079a17f55d215eb,,,,,,,,,,,,,,,,,,,,,,,l,1,1.155,"[""0.095"",""0.418"",""0.196"",""0.704""]","[1,1,0,1]",0,53,53,53,1,1,0,,,1,FALSE,,,,,,,,,,,,,,,,,,,,,,,,,,,,,,
,5bc94b874f22df00010e83f9,001,2022-04-28_19h15.31.144,classification_task,2021.2.3,MacIntel,62.5,5bc94b874f22df00010e83f9,626b377229c10585ec392f8a,626b3c159079a17f55d215eb,,,,,,,,,,,,,,,,,,,,,,,a,0,1.564,"[""0.744"",""0.418"",""0.534"",""0.704""]","[0,1,1,1]",0,54,54,54,1,1,0,,,1,FALSE,,,,,,,,,,,,,,,,,,,,,,,,,,,,,,
,5bc94b874f22df00010e83f9,001,2022-04-28_19h15.31.144,classification_task,2021.2.3,MacIntel,62.5,5bc94b874f22df00010e83f9,626b377229c10585ec392f8a,626b3c159079a17f55d215eb,,,,,,,,,,,,,,,,,,,,,,,a,0,1.096,"[""0.095"",""0.418"",""0.534"",""0.791""]","[1,1,1,0]",0,55,55,55,1,1,0,,,1,FALSE,,,,,,,,,,,,,,,,,,,,,,,,,,,,,,
,5bc94b874f22df00010e83f9,001,2022-04-28_19h15.31.144,classification_task,2021.2.3,MacIntel,62.5,5bc94b874f22df00010e83f9,626b377229c10585ec392f8a,626b3c159079a17f55d215eb,,,,,,,,,,,,,,,,,,,,,,,a,1,1.236,"[""0.290"",""0.190"",""0.583"",""0.966""]","[1,0,1,1]",0,56,56,56,1,0,1,,,1,FALSE,,,,,,,,,,,,,,,,,,,,,,,,,,,,,,
,5bc94b874f22df00010e83f9,001,2022-04-28_19h15.31.144,classification_task,2021.2.3,MacIntel,62.5,5bc94b874f22df00010e83f9,626b377229c10585ec392f8a,626b3c159079a17f55d215eb,,,,,,,,,,,,,,,,,,,,,,,a,1,1.248,"[""0.778"",""0.344"",""0.583"",""0.966""]","[0,1,1,1]",0,57,57,57,1,0,1,,,1,FALSE,,,,,,,,,,,,,,,,,,,,,,,,,,,,,,
,5bc94b874f22df00010e83f9,001,2022-04-28_19h15.31.144,classification_task,2021.2.3,MacIntel,62.5,5bc94b874f22df00010e83f9,626b377229c10585ec392f8a,626b3c159079a17f55d215eb,,,,,,,,,,,,,,,,,,,,,,,a,1,1.515,"[""0.290"",""0.344"",""0.583"",""0.380""]","[1,1,1,0]",0,58,58,58,1,0,1,,,1,FALSE,,,,,,,,,,,,,,,,,,,,,,,,,,,,,,
,5bc94b874f22df00010e83f9,001,2022-04-28_19h15.31.144,classification_task,2021.2.3,MacIntel,62.5,5bc94b874f22df00010e83f9,626b377229c10585ec392f8a,626b3c159079a17f55d215eb,,,,,,,,,,,,,,,,,,,,,,,l,1,1.406,"[""0.095"",""0.771"",""0.534"",""0.704""]","[1,0,1,1]",0,59,59,59,1,1,0,,,1,FALSE,,,,,,,,,,,,,,,,,,,,,,,,,,,,,,
,5bc94b874f22df00010e83f9,001,2022-04-28_19h15.31.144,classification_task,2021.2.3,MacIntel,62.5,5bc94b874f22df00010e83f9,626b377229c10585ec392f8a,626b3c159079a17f55d215eb,,,,,,,,,,,,,,,,,,,,,,,l,1,1.294,"[""0.059"",""0.153"",""0.203"",""0.836""]","[1,1,0,1]",0,60,60,60,1,1,1,,,1,FALSE,,,,,,,,,,,,,,,,,,,,,,,,,,,,,,
,5bc94b874f22df00010e83f9,001,2022-04-28_19h15.31.144,classification_task,2021.2.3,MacIntel,62.5,5bc94b874f22df00010e83f9,626b377229c10585ec392f8a,626b3c159079a17f55d215eb,,,,,,,,,,,,,,,,,,,,,,,a,1,3.026,"[""0.251"",""0.196"",""0.886"",""0.929""]","[1,0,1,1]",0,61,61,61,1,0,0,,,1,FALSE,,,,,,,,,,,,,,,,,,,,,,,,,,,,,,
,5bc94b874f22df00010e83f9,001,2022-04-28_19h15.31.144,classification_task,2021.2.3,MacIntel,62.5,5bc94b874f22df00010e83f9,626b377229c10585ec392f8a,626b3c159079a17f55d215eb,,,,,,,,,,,,,,,,,,,,,,,l,1,1.672,"[""0.059"",""0.380"",""0.618"",""0.836""]","[1,0,1,1]",0,62,62,62,1,1,1,,,1,FALSE,,,,,,,,,,,,,,,,,,,,,,,,,,,,,,
,5bc94b874f22df00010e83f9,001,2022-04-28_19h15.31.144,classification_task,2021.2.3,MacIntel,62.5,5bc94b874f22df00010e83f9,626b377229c10585ec392f8a,626b3c159079a17f55d215eb,,,,,,,,,,,,,,,,,,,,,,,l,0,1.461,"[""0.251"",""0.461"",""0.886"",""0.770""]","[1,1,1,0]",0,63,63,63,1,0,0,,,1,FALSE,,,,,,,,,,,,,,,,,,,,,,,,,,,,,,
,5bc94b874f22df00010e83f9,001,2022-04-28_19h15.31.144,classification_task,2021.2.3,MacIntel,62.5,5bc94b874f22df00010e83f9,626b377229c10585ec392f8a,626b3c159079a17f55d215eb,,,,,,,,,,,,,,,,,,,,,,,,,,,,,,,,,,,,,,,0, ,,0,2.910599369,209.269,0,1,1,1,1,2,2,,,,,,,,,,,,,,,,,
,5bc94b874f22df00010e83f9,001,2022-04-28_19h15.31.144,classification_task,2021.2.3,MacIntel,62.5,5bc94b874f22df00010e83f9,626b377229c10585ec392f8a,626b3c159079a17f55d215eb,,,,,,,,,,,,,,,,,,,,,,,,,,,,,,,,,,,,,,,1,  ,,0,1.399801989,220.957,0,1,1,1,1,2,2,,,,,,,,,,,,,,,,,
,5bc94b874f22df00010e83f9,001,2022-04-28_19h15.31.144,classification_task,2021.2.3,MacIntel,62.5,5bc94b874f22df00010e83f9,626b377229c10585ec392f8a,626b3c159079a17f55d215eb,,,,,,,,,,,,,,,,,,,,,,,,,,,,,,,,,,,,,,,2,  ,,0,3.392768745,219.426,0,1,1,1,1,2,2,,,,,,,,,,,,,,,,,
,5bc94b874f22df00010e83f9,001,2022-04-28_19h15.31.144,classification_task,2021.2.3,MacIntel,62.5,5bc94b874f22df00010e83f9,626b377229c10585ec392f8a,626b3c159079a17f55d215eb,,,,,,,,,,,,,,,,,,,,,,,,,,,,,,,,,,,,,,,,,,,,,0,1,1,1,1,,2,,,,,,,,,,,,,,,,,
,5bc94b874f22df00010e83f9,001,2022-04-28_19h15.31.144,classification_task,2021.2.3,MacIntel,62.5,5bc94b874f22df00010e83f9,626b377229c10585ec392f8a,626b3c159079a17f55d215eb,,,,,,,,,,,,,,,,,,,,,space,9.017,a,0,3.775,"[""0.095"",""0.418"",""0.791"",""0.704""]","[1,1,0,1]",0,0,0,0,1,1,0,,,1,FALSE,,,,,,,,,,,,,,,,,,,,,,,,,,,,,,
,5bc94b874f22df00010e83f9,001,2022-04-28_19h15.31.144,classification_task,2021.2.3,MacIntel,62.5,5bc94b874f22df00010e83f9,626b377229c10585ec392f8a,626b3c159079a17f55d215eb,,,,,,,,,,,,,,,,,,,,,,,l,1,1.339,"[""0.196"",""0.153"",""0.618"",""0.836""]","[0,1,1,1]",0,1,1,1,1,1,1,,,1,FALSE,,,,,,,,,,,,,,,,,,,,,,,,,,,,,,
,5bc94b874f22df00010e83f9,001,2022-04-28_19h15.31.144,classification_task,2021.2.3,MacIntel,62.5,5bc94b874f22df00010e83f9,626b377229c10585ec392f8a,626b3c159079a17f55d215eb,,,,,,,,,,,,,,,,,,,,,,,l,0,1.386,"[""0.290"",""0.344"",""0.765"",""0.966""]","[1,1,0,1]",0,2,2,2,1,0,1,,,1,FALSE,,,,,,,,,,,,,,,,,,,,,,,,,,,,,,
,5bc94b874f22df00010e83f9,001,2022-04-28_19h15.31.144,classification_task,2021.2.3,MacIntel,62.5,5bc94b874f22df00010e83f9,626b377229c10585ec392f8a,626b3c159079a17f55d215eb,,,,,,,,,,,,,,,,,,,,,,,a,0,1.184,"[""0.095"",""0.418"",""0.534"",""0.761""]","[1,1,1,0]",0,3,3,3,1,1,0,,,1,FALSE,,,,,,,,,,,,,,,,,,,,,,,,,,,,,,
,5bc94b874f22df00010e83f9,001,2022-04-28_19h15.31.144,classification_task,2021.2.3,MacIntel,62.5,5bc94b874f22df00010e83f9,626b377229c10585ec392f8a,626b3c159079a17f55d215eb,,,,,,,,,,,,,,,,,,,,,,,a,1,0.953,"[""0.251"",""0.461"",""0.886"",""0.765""]","[1,1,1,0]",0,4,4,4,1,0,0,,,1,FALSE,,,,,,,,,,,,,,,,,,,,,,,,,,,,,,
,5bc94b874f22df00010e83f9,001,2022-04-28_19h15.31.144,classification_task,2021.2.3,MacIntel,62.5,5bc94b874f22df00010e83f9,626b377229c10585ec392f8a,626b3c159079a17f55d215eb,,,,,,,,,,,,,,,,,,,,,,,l,1,0.862,"[""0.666"",""0.418"",""0.534"",""0.704""]","[0,1,1,1]",0,5,5,5,1,1,0,,,1,FALSE,,,,,,,,,,,,,,,,,,,,,,,,,,,,,,
,5bc94b874f22df00010e83f9,001,2022-04-28_19h15.31.144,classification_task,2021.2.3,MacIntel,62.5,5bc94b874f22df00010e83f9,626b377229c10585ec392f8a,626b3c159079a17f55d215eb,,,,,,,,,,,,,,,,,,,,,,,l,1,0.968,"[""0.059"",""0.153"",""0.618"",""0.765""]","[1,1,1,0]",0,6,6,6,1,1,1,,,1,FALSE,,,,,,,,,,,,,,,,,,,,,,,,,,,,,,
,5bc94b874f22df00010e83f9,001,2022-04-28_19h15.31.144,classification_task,2021.2.3,MacIntel,62.5,5bc94b874f22df00010e83f9,626b377229c10585ec392f8a,626b3c159079a17f55d215eb,,,,,,,,,,,,,,,,,,,,,,,l,0,0.919,"[""0.290"",""0.344"",""0.583"",""0.791""]","[1,1,1,0]",0,7,7,7,1,0,1,,,1,FALSE,,,,,,,,,,,,,,,,,,,,,,,,,,,,,,
,5bc94b874f22df00010e83f9,001,2022-04-28_19h15.31.144,classification_task,2021.2.3,MacIntel,62.5,5bc94b874f22df00010e83f9,626b377229c10585ec392f8a,626b3c159079a17f55d215eb,,,,,,,,,,,,,,,,,,,,,,,a,0,0.863,"[""0.095"",""0.190"",""0.534"",""0.704""]","[1,0,1,1]",0,8,8,8,1,1,0,,,1,FALSE,,,,,,,,,,,,,,,,,,,,,,,,,,,,,,
,5bc94b874f22df00010e83f9,001,2022-04-28_19h15.31.144,classification_task,2021.2.3,MacIntel,62.5,5bc94b874f22df00010e83f9,626b377229c10585ec392f8a,626b3c159079a17f55d215eb,,,,,,,,,,,,,,,,,,,,,,,a,1,0.617,"[""0.290"",""0.744"",""0.583"",""0.966""]","[1,0,1,1]",0,9,9,9,1,0,1,,,1,FALSE,,,,,,,,,,,,,,,,,,,,,,,,,,,,,,
,5bc94b874f22df00010e83f9,001,2022-04-28_19h15.31.144,classification_task,2021.2.3,MacIntel,62.5,5bc94b874f22df00010e83f9,626b377229c10585ec392f8a,626b3c159079a17f55d215eb,,,,,,,,,,,,,,,,,,,,,,,a,1,0.864,"[""0.761"",""0.344"",""0.583"",""0.966""]","[0,1,1,1]",0,10,10,10,1,0,1,,,1,FALSE,,,,,,,,,,,,,,,,,,,,,,,,,,,,,,
,5bc94b874f22df00010e83f9,001,2022-04-28_19h15.31.144,classification_task,2021.2.3,MacIntel,62.5,5bc94b874f22df00010e83f9,626b377229c10585ec392f8a,626b3c159079a17f55d215eb,,,,,,,,,,,,,,,,,,,,,,,l,1,1.013,"[""0.059"",""0.153"",""0.203"",""0.836""]","[1,1,0,1]",0,11,11,11,1,1,1,,,1,FALSE,,,,,,,,,,,,,,,,,,,,,,,,,,,,,,
,5bc94b874f22df00010e83f9,001,2022-04-28_19h15.31.144,classification_task,2021.2.3,MacIntel,62.5,5bc94b874f22df00010e83f9,626b377229c10585ec392f8a,626b3c159079a17f55d215eb,,,,,,,,,,,,,,,,,,,,,,,l,0,0.937,"[""0.778"",""0.461"",""0.886"",""0.929""]","[0,1,1,1]",0,12,12,12,1,0,0,,,1,FALSE,,,,,,,,,,,,,,,,,,,,,,,,,,,,,,
,5bc94b874f22df00010e83f9,001,2022-04-28_19h15.31.144,classification_task,2021.2.3,MacIntel,62.5,5bc94b874f22df00010e83f9,626b377229c10585ec392f8a,626b3c159079a17f55d215eb,,,,,,,,,,,,,,,,,,,,,,,a,0,1.02,"[""0.059"",""0.744"",""0.618"",""0.836""]","[1,0,1,1]",0,13,13,13,1,1,1,,,1,FALSE,,,,,,,,,,,,,,,,,,,,,,,,,,,,,,
,5bc94b874f22df00010e83f9,001,2022-04-28_19h15.31.144,classification_task,2021.2.3,MacIntel,62.5,5bc94b874f22df00010e83f9,626b377229c10585ec392f8a,626b3c159079a17f55d215eb,,,,,,,,,,,,,,,,,,,,,,,l,0,1.101,"[""0.251"",""0.461"",""0.770"",""0.929""]","[1,1,0,1]",0,14,14,14,1,0,0,,,1,FALSE,,,,,,,,,,,,,,,,,,,,,,,,,,,,,,
,5bc94b874f22df00010e83f9,001,2022-04-28_19h15.31.144,classification_task,2021.2.3,MacIntel,62.5,5bc94b874f22df00010e83f9,626b377229c10585ec392f8a,626b3c159079a17f55d215eb,,,,,,,,,,,,,,,,,,,,,,,a,1,0.84,"[""0.251"",""0.771"",""0.886"",""0.929""]","[1,0,1,1]",0,15,15,15,1,0,0,,,1,FALSE,,,,,,,,,,,,,,,,,,,,,,,,,,,,,,
,5bc94b874f22df00010e83f9,001,2022-04-28_19h15.31.144,classification_task,2021.2.3,MacIntel,62.5,5bc94b874f22df00010e83f9,626b377229c10585ec392f8a,626b3c159079a17f55d215eb,,,,,,,,,,,,,,,,,,,,,,,l,0,0.934,"[""0.290"",""0.761"",""0.583"",""0.966""]","[1,0,1,1]",0,16,16,16,1,0,1,,,1,FALSE,,,,,,,,,,,,,,,,,,,,,,,,,,,,,,
,5bc94b874f22df00010e83f9,001,2022-04-28_19h15.31.144,classification_task,2021.2.3,MacIntel,62.5,5bc94b874f22df00010e83f9,626b377229c10585ec392f8a,626b3c159079a17f55d215eb,,,,,,,,,,,,,,,,,,,,,,,a,0,1.246,"[""0.095"",""0.418"",""0.534"",""0.781""]","[1,1,1,0]",0,17,17,17,1,1,0,,,1,FALSE,,,,,,,,,,,,,,,,,,,,,,,,,,,,,,
,5bc94b874f22df00010e83f9,001,2022-04-28_19h15.31.144,classification_task,2021.2.3,MacIntel,62.5,5bc94b874f22df00010e83f9,626b377229c10585ec392f8a,626b3c159079a17f55d215eb,,,,,,,,,,,,,,,,,,,,,,,l,0,1.007,"[""0.290"",""0.344"",""0.583"",""0.760""]","[1,1,1,0]",0,18,18,18,1,0,1,,,1,FALSE,,,,,,,,,,,,,,,,,,,,,,,,,,,,,,
,5bc94b874f22df00010e83f9,001,2022-04-28_19h15.31.144,classification_task,2021.2.3,MacIntel,62.5,5bc94b874f22df00010e83f9,626b377229c10585ec392f8a,626b3c159079a17f55d215eb,,,,,,,,,,,,,,,,,,,,,,,a,1,1.134,"[""0.251"",""0.791"",""0.886"",""0.929""]","[1,0,1,1]",0,19,19,19,1,0,0,,,1,FALSE,,,,,,,,,,,,,,,,,,,,,,,,,,,,,,
,5bc94b874f22df00010e83f9,001,2022-04-28_19h15.31.144,classification_task,2021.2.3,MacIntel,62.5,5bc94b874f22df00010e83f9,626b377229c10585ec392f8a,626b3c159079a17f55d215eb,,,,,,,,,,,,,,,,,,,,,,,l,1,0.994,"[""0.771"",""0.418"",""0.534"",""0.704""]","[0,1,1,1]",0,20,20,20,1,1,0,,,1,FALSE,,,,,,,,,,,,,,,,,,,,,,,,,,,,,,
,5bc94b874f22df00010e83f9,001,2022-04-28_19h15.31.144,classification_task,2021.2.3,MacIntel,62.5,5bc94b874f22df00010e83f9,626b377229c10585ec392f8a,626b3c159079a17f55d215eb,,,,,,,,,,,,,,,,,,,,,,,a,1,1.132,"[""0.761"",""0.344"",""0.583"",""0.966""]","[0,1,1,1]",0,21,21,21,1,0,1,,,1,FALSE,,,,,,,,,,,,,,,,,,,,,,,,,,,,,,
,5bc94b874f22df00010e83f9,001,2022-04-28_19h15.31.144,classification_task,2021.2.3,MacIntel,62.5,5bc94b874f22df00010e83f9,626b377229c10585ec392f8a,626b3c159079a17f55d215eb,,,,,,,,,,,,,,,,,,,,,,,l,1,0.897,"[""0.656"",""0.153"",""0.618"",""0.836""]","[0,1,1,1]",0,22,22,22,1,1,1,,,1,FALSE,,,,,,,,,,,,,,,,,,,,,,,,,,,,,,
,5bc94b874f22df00010e83f9,001,2022-04-28_19h15.31.144,classification_task,2021.2.3,MacIntel,62.5,5bc94b874f22df00010e83f9,626b377229c10585ec392f8a,626b3c159079a17f55d215eb,,,,,,,,,,,,,,,,,,,,,,,a,1,1.265,"[""0.251"",""0.461"",""0.886"",""0.380""]","[1,1,1,0]",0,23,23,23,1,0,0,,,1,FALSE,,,,,,,,,,,,,,,,,,,,,,,,,,,,,,
,5bc94b874f22df00010e83f9,001,2022-04-28_19h15.31.144,classification_task,2021.2.3,MacIntel,62.5,5bc94b874f22df00010e83f9,626b377229c10585ec392f8a,626b3c159079a17f55d215eb,,,,,,,,,,,,,,,,,,,,,,,l,0,0.962,"[""0.251"",""0.461"",""0.760"",""0.929""]","[1,1,0,1]",0,24,24,24,1,0,0,,,1,FALSE,,,,,,,,,,,,,,,,,,,,,,,,,,,,,,
,5bc94b874f22df00010e83f9,001,2022-04-28_19h15.31.144,classification_task,2021.2.3,MacIntel,62.5,5bc94b874f22df00010e83f9,626b377229c10585ec392f8a,626b3c159079a17f55d215eb,,,,,,,,,,,,,,,,,,,,,,,a,0,1.101,"[""0.059"",""0.666"",""0.618"",""0.836""]","[1,0,1,1]",0,25,25,25,1,1,1,,,1,FALSE,,,,,,,,,,,,,,,,,,,,,,,,,,,,,,
,5bc94b874f22df00010e83f9,001,2022-04-28_19h15.31.144,classification_task,2021.2.3,MacIntel,62.5,5bc94b874f22df00010e83f9,626b377229c10585ec392f8a,626b3c159079a17f55d215eb,,,,,,,,,,,,,,,,,,,,,,,l,0,1.28,"[""0.290"",""0.344"",""0.744"",""0.966""]","[1,1,0,1]",0,26,26,26,1,0,1,,,1,FALSE,,,,,,,,,,,,,,,,,,,,,,,,,,,,,,
,5bc94b874f22df00010e83f9,001,2022-04-28_19h15.31.144,classification_task,2021.2.3,MacIntel,62.5,5bc94b874f22df00010e83f9,626b377229c10585ec392f8a,626b3c159079a17f55d215eb,,,,,,,,,,,,,,,,,,,,,,,a,1,1.063,"[""0.501"",""0.461"",""0.886"",""0.929""]","[0,1,1,1]",0,27,27,27,1,0,0,,,1,FALSE,,,,,,,,,,,,,,,,,,,,,,,,,,,,,,
,5bc94b874f22df00010e83f9,001,2022-04-28_19h15.31.144,classification_task,2021.2.3,MacIntel,62.5,5bc94b874f22df00010e83f9,626b377229c10585ec392f8a,626b3c159079a17f55d215eb,,,,,,,,,,,,,,,,,,,,,,,l,1,0.866,"[""0.095"",""0.760"",""0.534"",""0.704""]","[1,0,1,1]",0,28,28,28,1,1,0,,,1,FALSE,,,,,,,,,,,,,,,,,,,,,,,,,,,,,,
,5bc94b874f22df00010e83f9,001,2022-04-28_19h15.31.144,classification_task,2021.2.3,MacIntel,62.5,5bc94b874f22df00010e83f9,626b377229c10585ec392f8a,626b3c159079a17f55d215eb,,,,,,,,,,,,,,,,,,,,,,,l,1,1.167,"[""0.095"",""0.418"",""0.666"",""0.704""]","[1,1,0,1]",0,29,29,29,1,1,0,,,1,FALSE,,,,,,,,,,,,,,,,,,,,,,,,,,,,,,
,5bc94b874f22df00010e83f9,001,2022-04-28_19h15.31.144,classification_task,2021.2.3,MacIntel,62.5,5bc94b874f22df00010e83f9,626b377229c10585ec392f8a,626b3c159079a17f55d215eb,,,,,,,,,,,,,,,,,,,,,,,a,0,0.953,"[""0.059"",""0.153"",""0.618"",""0.666""]","[1,1,1,0]",0,30,30,30,1,1,1,,,1,FALSE,,,,,,,,,,,,,,,,,,,,,,,,,,,,,,
,5bc94b874f22df00010e83f9,001,2022-04-28_19h15.31.144,classification_task,2021.2.3,MacIntel,62.5,5bc94b874f22df00010e83f9,626b377229c10585ec392f8a,626b3c159079a17f55d215eb,,,,,,,,,,,,,,,,,,,,,,,l,1,0.969,"[""0.059"",""0.153"",""0.196"",""0.836""]","[1,1,0,1]",0,31,31,31,1,1,1,,,1,FALSE,,,,,,,,,,,,,,,,,,,,,,,,,,,,,,
,5bc94b874f22df00010e83f9,001,2022-04-28_19h15.31.144,classification_task,2021.2.3,MacIntel,62.5,5bc94b874f22df00010e83f9,626b377229c10585ec392f8a,626b3c159079a17f55d215eb,,,,,,,,,,,,,,,,,,,,,,,a,0,1.519,"[""0.059"",""0.153"",""0.501"",""0.836""]","[1,1,0,1]",0,32,32,32,1,1,1,,,1,FALSE,,,,,,,,,,,,,,,,,,,,,,,,,,,,,,
,5bc94b874f22df00010e83f9,001,2022-04-28_19h15.31.144,classification_task,2021.2.3,MacIntel,62.5,5bc94b874f22df00010e83f9,626b377229c10585ec392f8a,626b3c159079a17f55d215eb,,,,,,,,,,,,,,,,,,,,,,,l,1,1.317,"[""0.095"",""0.418"",""0.501"",""0.704""]","[1,1,0,1]",0,33,33,33,1,1,0,,,1,FALSE,,,,,,,,,,,,,,,,,,,,,,,,,,,,,,
,5bc94b874f22df00010e83f9,001,2022-04-28_19h15.31.144,classification_task,2021.2.3,MacIntel,62.5,5bc94b874f22df00010e83f9,626b377229c10585ec392f8a,626b3c159079a17f55d215eb,,,,,,,,,,,,,,,,,,,,,,,l,1,0.746,"[""0.059"",""0.153"",""0.618"",""0.765""]","[1,1,1,0]",0,34,34,34,1,1,1,,,1,FALSE,,,,,,,,,,,,,,,,,,,,,,,,,,,,,,
,5bc94b874f22df00010e83f9,001,2022-04-28_19h15.31.144,classification_task,2021.2.3,MacIntel,62.5,5bc94b874f22df00010e83f9,626b377229c10585ec392f8a,626b3c159079a17f55d215eb,,,,,,,,,,,,,,,,,,,,,,,a,1,0.98,"[""0.203"",""0.461"",""0.886"",""0.929""]","[0,1,1,1]",0,35,35,35,1,0,0,,,1,FALSE,,,,,,,,,,,,,,,,,,,,,,,,,,,,,,
,5bc94b874f22df00010e83f9,001,2022-04-28_19h15.31.144,classification_task,2021.2.3,MacIntel,62.5,5bc94b874f22df00010e83f9,626b377229c10585ec392f8a,626b3c159079a17f55d215eb,,,,,,,,,,,,,,,,,,,,,,,a,0,1.218,"[""0.095"",""0.203"",""0.534"",""0.704""]","[1,0,1,1]",0,36,36,36,1,1,0,,,1,FALSE,,,,,,,,,,,,,,,,,,,,,,,,,,,,,,
,5bc94b874f22df00010e83f9,001,2022-04-28_19h15.31.144,classification_task,2021.2.3,MacIntel,62.5,5bc94b874f22df00010e83f9,626b377229c10585ec392f8a,626b3c159079a17f55d215eb,,,,,,,,,,,,,,,,,,,,,,,l,1,0.884,"[""0.666"",""0.153"",""0.618"",""0.836""]","[0,1,1,1]",0,37,37,37,1,1,1,,,1,FALSE,,,,,,,,,,,,,,,,,,,,,,,,,,,,,,
,5bc94b874f22df00010e83f9,001,2022-04-28_19h15.31.144,classification_task,2021.2.3,MacIntel,62.5,5bc94b874f22df00010e83f9,626b377229c10585ec392f8a,626b3c159079a17f55d215eb,,,,,,,,,,,,,,,,,,,,,,,l,1,0.746,"[""0.765"",""0.418"",""0.534"",""0.704""]","[0,1,1,1]",0,38,38,38,1,1,0,,,1,FALSE,,,,,,,,,,,,,,,,,,,,,,,,,,,,,,
,5bc94b874f22df00010e83f9,001,2022-04-28_19h15.31.144,classification_task,2021.2.3,MacIntel,62.5,5bc94b874f22df00010e83f9,626b377229c10585ec392f8a,626b3c159079a17f55d215eb,,,,,,,,,,,,,,,,,,,,,,,l,0,0.814,"[""0.771"",""0.344"",""0.583"",""0.966""]","[0,1,1,1]",0,39,39,39,1,0,1,,,1,FALSE,,,,,,,,,,,,,,,,,,,,,,,,,,,,,,
,5bc94b874f22df00010e83f9,001,2022-04-28_19h15.31.144,classification_task,2021.2.3,MacIntel,62.5,5bc94b874f22df00010e83f9,626b377229c10585ec392f8a,626b3c159079a17f55d215eb,,,,,,,,,,,,,,,,,,,,,,,a,1,0.629,"[""0.251"",""0.461"",""0.781"",""0.929""]","[1,1,0,1]",0,40,40,40,1,0,0,,,1,FALSE,,,,,,,,,,,,,,,,,,,,,,,,,,,,,,
,5bc94b874f22df00010e83f9,001,2022-04-28_19h15.31.144,classification_task,2021.2.3,MacIntel,62.5,5bc94b874f22df00010e83f9,626b377229c10585ec392f8a,626b3c159079a17f55d215eb,,,,,,,,,,,,,,,,,,,,,,,a,1,0.854,"[""0.290"",""0.203"",""0.583"",""0.966""]","[1,0,1,1]",0,41,41,41,1,0,1,,,1,FALSE,,,,,,,,,,,,,,,,,,,,,,,,,,,,,,
,5bc94b874f22df00010e83f9,001,2022-04-28_19h15.31.144,classification_task,2021.2.3,MacIntel,62.5,5bc94b874f22df00010e83f9,626b377229c10585ec392f8a,626b3c159079a17f55d215eb,,,,,,,,,,,,,,,,,,,,,,,a,1,0.852,"[""0.290"",""0.344"",""0.583"",""0.765""]","[1,1,1,0]",0,42,42,42,1,0,1,,,1,FALSE,,,,,,,,,,,,,,,,,,,,,,,,,,,,,,
,5bc94b874f22df00010e83f9,001,2022-04-28_19h15.31.144,classification_task,2021.2.3,MacIntel,62.5,5bc94b874f22df00010e83f9,626b377229c10585ec392f8a,626b3c159079a17f55d215eb,,,,,,,,,,,,,,,,,,,,,,,a,0,0.938,"[""0.059"",""0.761"",""0.618"",""0.836""]","[1,0,1,1]",0,43,43,43,1,1,1,,,1,FALSE,,,,,,,,,,,,,,,,,,,,,,,,,,,,,,
,5bc94b874f22df00010e83f9,001,2022-04-28_19h15.31.144,classification_task,2021.2.3,MacIntel,62.5,5bc94b874f22df00010e83f9,626b377229c10585ec392f8a,626b3c159079a17f55d215eb,,,,,,,,,,,,,,,,,,,,,,,l,1,0.816,"[""0.095"",""0.418"",""0.534"",""0.666""]","[1,1,1,0]",0,44,44,44,1,1,0,,,1,FALSE,,,,,,,,,,,,,,,,,,,,,,,,,,,,,,
,5bc94b874f22df00010e83f9,001,2022-04-28_19h15.31.144,classification_task,2021.2.3,MacIntel,62.5,5bc94b874f22df00010e83f9,626b377229c10585ec392f8a,626b3c159079a17f55d215eb,,,,,,,,,,,,,,,,,,,,,,,a,1,0.555,"[""0.290"",""0.344"",""0.196"",""0.966""]","[1,1,0,1]",0,45,45,45,1,0,1,,,1,FALSE,,,,,,,,,,,,,,,,,,,,,,,,,,,,,,
,5bc94b874f22df00010e83f9,001,2022-04-28_19h15.31.144,classification_task,2021.2.3,MacIntel,62.5,5bc94b874f22df00010e83f9,626b377229c10585ec392f8a,626b3c159079a17f55d215eb,,,,,,,,,,,,,,,,,,,,,,,l,0,0.744,"[""0.251"",""0.760"",""0.886"",""0.929""]","[1,0,1,1]",0,46,46,46,1,0,0,,,1,FALSE,,,,,,,,,,,,,,,,,,,,,,,,,,,,,,
,5bc94b874f22df00010e83f9,001,2022-04-28_19h15.31.144,classification_task,2021.2.3,MacIntel,62.5,5bc94b874f22df00010e83f9,626b377229c10585ec392f8a,626b3c159079a17f55d215eb,,,,,,,,,,,,,,,,,,,,,,,l,0,0.75,"[""0.251"",""0.461"",""0.886"",""0.781""]","[1,1,1,0]",0,47,47,47,1,0,0,,,1,FALSE,,,,,,,,,,,,,,,,,,,,,,,,,,,,,,
,5bc94b874f22df00010e83f9,001,2022-04-28_19h15.31.144,classification_task,2021.2.3,MacIntel,62.5,5bc94b874f22df00010e83f9,626b377229c10585ec392f8a,626b3c159079a17f55d215eb,,,,,,,,,,,,,,,,,,,,,,,a,0,0.636,"[""0.059"",""0.153"",""0.781"",""0.836""]","[1,1,0,1]",0,48,48,48,1,1,1,,,1,FALSE,,,,,,,,,,,,,,,,,,,,,,,,,,,,,,
,5bc94b874f22df00010e83f9,001,2022-04-28_19h15.31.144,classification_task,2021.2.3,MacIntel,62.5,5bc94b874f22df00010e83f9,626b377229c10585ec392f8a,626b3c159079a17f55d215eb,,,,,,,,,,,,,,,,,,,,,,,a,0,0.913,"[""0.059"",""0.153"",""0.618"",""0.761""]","[1,1,1,0]",0,49,49,49,1,1,1,,,1,FALSE,,,,,,,,,,,,,,,,,,,,,,,,,,,,,,
,5bc94b874f22df00010e83f9,001,2022-04-28_19h15.31.144,classification_task,2021.2.3,MacIntel,62.5,5bc94b874f22df00010e83f9,626b377229c10585ec392f8a,626b3c159079a17f55d215eb,,,,,,,,,,,,,,,,,,,,,,,a,1,0.981,"[""0.290"",""0.770"",""0.583"",""0.966""]","[1,0,1,1]",0,50,50,50,1,0,1,,,1,FALSE,,,,,,,,,,,,,,,,,,,,,,,,,,,,,,
,5bc94b874f22df00010e83f9,001,2022-04-28_19h15.31.144,classification_task,2021.2.3,MacIntel,62.5,5bc94b874f22df00010e83f9,626b377229c10585ec392f8a,626b3c159079a17f55d215eb,,,,,,,,,,,,,,,,,,,,,,,l,0,0.919,"[""0.765"",""0.461"",""0.886"",""0.929""]","[0,1,1,1]",0,51,51,51,1,0,0,,,1,FALSE,,,,,,,,,,,,,,,,,,,,,,,,,,,,,,
,5bc94b874f22df00010e83f9,001,2022-04-28_19h15.31.144,classification_task,2021.2.3,MacIntel,62.5,5bc94b874f22df00010e83f9,626b377229c10585ec392f8a,626b3c159079a17f55d215eb,,,,,,,,,,,,,,,,,,,,,,,l,0,0.75,"[""0.290"",""0.344"",""0.583"",""0.190""]","[1,1,1,0]",0,52,52,52,1,0,1,,,1,FALSE,,,,,,,,,,,,,,,,,,,,,,,,,,,,,,
,5bc94b874f22df00010e83f9,001,2022-04-28_19h15.31.144,classification_task,2021.2.3,MacIntel,62.5,5bc94b874f22df00010e83f9,626b377229c10585ec392f8a,626b3c159079a17f55d215eb,,,,,,,,,,,,,,,,,,,,,,,l,1,0.632,"[""0.095"",""0.418"",""0.380"",""0.704""]","[1,1,0,1]",0,53,53,53,1,1,0,,,1,FALSE,,,,,,,,,,,,,,,,,,,,,,,,,,,,,,
,5bc94b874f22df00010e83f9,001,2022-04-28_19h15.31.144,classification_task,2021.2.3,MacIntel,62.5,5bc94b874f22df00010e83f9,626b377229c10585ec392f8a,626b3c159079a17f55d215eb,,,,,,,,,,,,,,,,,,,,,,,a,1,0.95,"[""0.290"",""0.344"",""0.666"",""0.966""]","[1,1,0,1]",0,54,54,54,1,0,1,,,1,FALSE,,,,,,,,,,,,,,,,,,,,,,,,,,,,,,
,5bc94b874f22df00010e83f9,001,2022-04-28_19h15.31.144,classification_task,2021.2.3,MacIntel,62.5,5bc94b874f22df00010e83f9,626b377229c10585ec392f8a,626b3c159079a17f55d215eb,,,,,,,,,,,,,,,,,,,,,,,a,1,1.061,"[""0.251"",""0.461"",""0.886"",""0.760""]","[1,1,1,0]",0,55,55,55,1,0,0,,,1,FALSE,,,,,,,,,,,,,,,,,,,,,,,,,,,,,,
,5bc94b874f22df00010e83f9,001,2022-04-28_19h15.31.144,classification_task,2021.2.3,MacIntel,62.5,5bc94b874f22df00010e83f9,626b377229c10585ec392f8a,626b3c159079a17f55d215eb,,,,,,,,,,,,,,,,,,,,,,,l,0,0.838,"[""0.251"",""0.461"",""0.760"",""0.929""]","[1,1,0,1]",0,56,56,56,1,0,0,,,1,FALSE,,,,,,,,,,,,,,,,,,,,,,,,,,,,,,
,5bc94b874f22df00010e83f9,001,2022-04-28_19h15.31.144,classification_task,2021.2.3,MacIntel,62.5,5bc94b874f22df00010e83f9,626b377229c10585ec392f8a,626b3c159079a17f55d215eb,,,,,,,,,,,,,,,,,,,,,,,l,1,0.548,"[""0.196"",""0.153"",""0.618"",""0.836""]","[0,1,1,1]",0,57,57,57,1,1,1,,,1,FALSE,,,,,,,,,,,,,,,,,,,,,,,,,,,,,,
,5bc94b874f22df00010e83f9,001,2022-04-28_19h15.31.144,classification_task,2021.2.3,MacIntel,62.5,5bc94b874f22df00010e83f9,626b377229c10585ec392f8a,626b3c159079a17f55d215eb,,,,,,,,,,,,,,,,,,,,,,,a,1,0.946,"[""0.251"",""0.501"",""0.886"",""0.929""]","[1,0,1,1]",0,58,58,58,1,0,0,,,1,FALSE,,,,,,,,,,,,,,,,,,,,,,,,,,,,,,
,5bc94b874f22df00010e83f9,001,2022-04-28_19h15.31.144,classification_task,2021.2.3,MacIntel,62.5,5bc94b874f22df00010e83f9,626b377229c10585ec392f8a,626b3c159079a17f55d215eb,,,,,,,,,,,,,,,,,,,,,,,l,1,0.483,"[""0.095"",""0.418"",""0.534"",""0.196""]","[1,1,1,0]",0,59,59,59,1,1,0,,,1,FALSE,,,,,,,,,,,,,,,,,,,,,,,,,,,,,,
,5bc94b874f22df00010e83f9,001,2022-04-28_19h15.31.144,classification_task,2021.2.3,MacIntel,62.5,5bc94b874f22df00010e83f9,626b377229c10585ec392f8a,626b3c159079a17f55d215eb,,,,,,,,,,,,,,,,,,,,,,,a,0,1.111,"[""0.059"",""0.203"",""0.618"",""0.836""]","[1,0,1,1]",0,60,60,60,1,1,1,,,1,FALSE,,,,,,,,,,,,,,,,,,,,,,,,,,,,,,
,5bc94b874f22df00010e83f9,001,2022-04-28_19h15.31.144,classification_task,2021.2.3,MacIntel,62.5,5bc94b874f22df00010e83f9,626b377229c10585ec392f8a,626b3c159079a17f55d215eb,,,,,,,,,,,,,,,,,,,,,,,a,1,0.911,"[""0.770"",""0.344"",""0.583"",""0.966""]","[0,1,1,1]",0,61,61,61,1,0,1,,,1,FALSE,,,,,,,,,,,,,,,,,,,,,,,,,,,,,,
,5bc94b874f22df00010e83f9,001,2022-04-28_19h15.31.144,classification_task,2021.2.3,MacIntel,62.5,5bc94b874f22df00010e83f9,626b377229c10585ec392f8a,626b3c159079a17f55d215eb,,,,,,,,,,,,,,,,,,,,,,,l,1,0.747,"[""0.095"",""0.760"",""0.534"",""0.704""]","[1,0,1,1]",0,62,62,62,1,1,0,,,1,FALSE,,,,,,,,,,,,,,,,,,,,,,,,,,,,,,
,5bc94b874f22df00010e83f9,001,2022-04-28_19h15.31.144,classification_task,2021.2.3,MacIntel,62.5,5bc94b874f22df00010e83f9,626b377229c10585ec392f8a,626b3c159079a17f55d215eb,,,,,,,,,,,,,,,,,,,,,,,a,0,0.834,"[""0.781"",""0.418"",""0.534"",""0.704""]","[0,1,1,1]",0,63,63,63,1,1,0,,,1,FALSE,,,,,,,,,,,,,,,,,,,,,,,,,,,,,,
,5bc94b874f22df00010e83f9,001,2022-04-28_19h15.31.144,classification_task,2021.2.3,MacIntel,62.5,5bc94b874f22df00010e83f9,626b377229c10585ec392f8a,626b3c159079a17f55d215eb,,,,,,,,,,,,,,,,,,,,,,,,,,,,,,,,,,,,,,,0, ,,0,0,141.3,0,2,2,2,1,2,3,,,,,,,,,,,,,,,,,
,5bc94b874f22df00010e83f9,001,2022-04-28_19h15.31.144,classification_task,2021.2.3,MacIntel,62.5,5bc94b874f22df00010e83f9,626b377229c10585ec392f8a,626b3c159079a17f55d215eb,,,,,,,,,,,,,,,,,,,,,,,,,,,,,,,,,,,,,,,1,  ,,0,0,143.771,0,2,2,2,1,2,3,,,,,,,,,,,,,,,,,
,5bc94b874f22df00010e83f9,001,2022-04-28_19h15.31.144,classification_task,2021.2.3,MacIntel,62.5,5bc94b874f22df00010e83f9,626b377229c10585ec392f8a,626b3c159079a17f55d215eb,,,,,,,,,,,,,,,,,,,,,,,,,,,,,,,,,,,,,,,2,  ,,0,2.717731618,147.501,0,2,2,2,1,2,3,,,,,,,,,,,,,,,,,
,5bc94b874f22df00010e83f9,001,2022-04-28_19h15.31.144,classification_task,2021.2.3,MacIntel,62.5,5bc94b874f22df00010e83f9,626b377229c10585ec392f8a,626b3c159079a17f55d215eb,,,,,,,,,,,,,,,,,,,,,,,,,,,,,,,,,,,,,,,,,,,,,0,2,2,2,1,,3,,,,,,,,,,,,,,,,,
,5bc94b874f22df00010e83f9,001,2022-04-28_19h15.31.144,classification_task,2021.2.3,MacIntel,62.5,5bc94b874f22df00010e83f9,626b377229c10585ec392f8a,626b3c159079a17f55d215eb,,,,,,,,,,,,,,,,,,,,,,,,,,,,,,,,,,,,,,,,,,,,,,,,,,,,,I believe the aid is a competent performer,,0.7,0,4,6668.838,0,0,0,0,1,0,,,,
,5bc94b874f22df00010e83f9,001,2022-04-28_19h15.31.144,classification_task,2021.2.3,MacIntel,62.5,5bc94b874f22df00010e83f9,626b377229c10585ec392f8a,626b3c159079a17f55d215eb,,,,,,,,,,,,,,,,,,,,,,,,,,,,,,,,,,,,,,,,,,,,,,,,,,,,,I trust the aid,,0.7,0,4,6670.496,0,0,0,0,1,0,,,,
,5bc94b874f22df00010e83f9,001,2022-04-28_19h15.31.144,classification_task,2021.2.3,MacIntel,62.5,5bc94b874f22df00010e83f9,626b377229c10585ec392f8a,626b3c159079a17f55d215eb,,,,,,,,,,,,,,,,,,,,,,,,,,,,,,,,,,,,,,,,,,,,,,,,,,,,,I have confidence in the advice given by the aid,,0.7,0,4,6672.151,0,0,0,0,1,0,,,,
,5bc94b874f22df00010e83f9,001,2022-04-28_19h15.31.144,classification_task,2021.2.3,MacIntel,62.5,5bc94b874f22df00010e83f9,626b377229c10585ec392f8a,626b3c159079a17f55d215eb,,,,,,,,,,,,,,,,,,,,,,,,,,,,,,,,,,,,,,,,,,,,,,,,,,,,,I can depend on the aid,,0.7,0,4,6673.55,0,0,0,0,1,0,,,,
,5bc94b874f22df00010e83f9,001,2022-04-28_19h15.31.144,classification_task,2021.2.3,MacIntel,62.5,5bc94b874f22df00010e83f9,626b377229c10585ec392f8a,626b3c159079a17f55d215eb,,,,,,,,,,,,,,,,,,,,,,,,,,,,,,,,,,,,,,,,,,,,,,,,,,,,,I can rely on the aid to behave in consistent ways,,0.7,0,4,6675.787,0,0,0,0,1,0,,,,
,5bc94b874f22df00010e83f9,001,2022-04-28_19h15.31.144,classification_task,2021.2.3,MacIntel,62.5,5bc94b874f22df00010e83f9,626b377229c10585ec392f8a,626b3c159079a17f55d215eb,,,,,,,,,,,,,,,,,,,,,,,,,,,,,,,,,,,,,,,,,,,,,,,,,,,,,I can rely on the aid to do its best every time I take its advice,,0.7,0,4,6678.248,0,0,0,0,1,0,,,,
,5bc94b874f22df00010e83f9,001,2022-04-28_19h15.31.144,classification_task,2021.2.3,MacIntel,62.5,5bc94b874f22df00010e83f9,626b377229c10585ec392f8a,626b3c159079a17f55d215eb,,,,,,,,,,,,,,,,,,,,,,,,,,,,,,,,,,,,,,,,,,,,,,,,,,,,,"On trials you completed with assistance from the aid, how frequently did you think the aid was correct?",,0.7,0,100,,0,0,0,0,1,0,,,,
,5bc94b874f22df00010e83f9,001,2022-04-28_19h15.31.144,classification_task,2021.2.3,MacIntel,62.5,5bc94b874f22df00010e83f9,626b377229c10585ec392f8a,626b3c159079a17f55d215eb,,,,,,,,,,,,,,,,,,,,,,,,,,,,,,,,,,,,,,,,,,,,,,,,,,,,,"On trials you completed without the aid, how frequently did you think you were correct?",,0.7,0,40,,0,0,0,0,1,0,,,,
,5bc94b874f22df00010e83f9,001,2022-04-28_19h15.31.144,classification_task,2021.2.3,MacIntel,62.5,5bc94b874f22df00010e83f9,626b377229c10585ec392f8a,626b3c159079a17f55d215eb,,,,,,,,,,,,,,,,,,,,,,,,,,,,,,,,,,,,,,,,,,,,,,,,,,,,,,,,,,,0,0,0,0,1,,,,,
,5bc94b874f22df00010e83f9,001,2022-04-28_19h15.31.144,classification_task,2021.2.3,MacIntel,62.5,5bc94b874f22df00010e83f9,626b377229c10585ec392f8a,626b3c159079a17f55d215eb,,,,,,,,,,,,,,,,,,,,,,,,,,,,,,,,,,,,,,,,,,,,,,,,,,,,,,,,,,,,,,,,,space,12.376,6730.356,
,5bc94b874f22df00010e83f9,001,2022-04-28_19h15.31.144,classification_task,2021.2.3,MacIntel,62.5,5bc94b874f22df00010e83f9,626b377229c10585ec392f8a,626b3c159079a17f55d215eb,,,,,,,,,,,,,,,,,,,,,,,,,,,,,,,,,,,,,,,,,,,,,,,,,,,,,,,,,,,,,,,,,,,,"Mozilla/5.0 (Macintosh; Intel Mac OS X 10_15_7) AppleWebKit/605.1.15 (KHTML, like Gecko) Version/15.4 Safari/605.1.15"
