usingWebGL,participant,session,date,expName,psychopyVersion,OS,frameRate,PROLIFIC_PID,STUDY_ID,SESSION_ID,signatures_friend,signatures_foe,band_ranges_top,band_ranges_bottom,formitemText,formtype,formundefined,formitemWidth,formindex,formresponse,formrt,key_resp_2.keys,key_resp_2.rt,tute_resp.keys,tute_resp.rt,tutorial.thisRepN,tutorial.thisTrialN,tutorial.thisN,tutorial.thisIndex,tutorial.ran,key_resp_4.keys,key_resp_4.rt,key_resp.keys,key_resp.corr,key_resp.rt,lines_presented,is_signal_presented,trials.thisRepN,trials.thisTrialN,trials.thisN,trials.thisIndex,trials.ran,vessel,active_band,lines,is_signal,supported_pos,catch_trial,debrief_formindex,debrief_formitemText,debrief_formtype,debrief_formitemWidth,debrief_formresponse,debrief_formrt,phases.thisRepN,phases.thisTrialN,phases.thisN,phases.thisIndex,phases.ran,phases.order,phase,key_resp_3.keys,trustitemText,trusttype,trustitemWidth,trustindex,trustresponse,trustrt,support_status.thisRepN,support_status.thisTrialN,support_status.thisN,support_status.thisIndex,support_status.ran,support_status.order,key_resp_5.keys,key_resp_5.rt,globalClockTime,userAgent
TRUE,5be0d2374579d00001ad8d6d,001,2022-04-28_20h14.02.634,classification_task,2021.2.3,Win32,60.06006006,5be0d2374579d00001ad8d6d,626b377229c10585ec392f8a,626b3bbacd2dc8cbf2e4efc2,,,,,,,,,,,,,,,,,,,,,,,,,,,,,,,,,,,,,,,,,,,,,,,,,,,,,,,,,,,,,,,,,,,,
,5be0d2374579d00001ad8d6d,001,2022-04-28_20h14.02.634,classification_task,2021.2.3,Win32,60.06006006,5be0d2374579d00001ad8d6d,626b377229c10585ec392f8a,626b3bbacd2dc8cbf2e4efc2,"[[""0.197"",""0.524"",""0.829"",""0.935""],[""0.161"",""0.467"",""0.898"",""0.975""]]","[[""0.126"",""0.312"",""0.618"",""0.737""],[""0.036"",""0.267"",""0.584"",""0.794""]]","[1,10]","[100,1000]",Video game experience,,,0.7,0,,,,,,,,,,,,,,,,,,,,,,,,,,,,,,,,,,,,,,,,,,,,,,,,,,,,,,,,,,,
,5be0d2374579d00001ad8d6d,001,2022-04-28_20h14.02.634,classification_task,2021.2.3,Win32,60.06006006,5be0d2374579d00001ad8d6d,626b377229c10585ec392f8a,626b3bbacd2dc8cbf2e4efc2,,,,,Approximately how many hours did you spend playing video games in the last week?,,,0.7,0,10,,,,,,,,,,,,,,,,,,,,,,,,,,,,,,,,,,,,,,,,,,,,,,,,,,,,,,,,,,
,5be0d2374579d00001ad8d6d,001,2022-04-28_20h14.02.634,classification_task,2021.2.3,Win32,60.06006006,5be0d2374579d00001ad8d6d,626b377229c10585ec392f8a,626b3bbacd2dc8cbf2e4efc2,,,,,"Which game did you play the most this year? (Enter ""None"" if you didn't play any)",,,0.7,0,Sonic Unleashed,,,,,,,,,,,,,,,,,,,,,,,,,,,,,,,,,,,,,,,,,,,,,,,,,,,,,,,,,,
,5be0d2374579d00001ad8d6d,001,2022-04-28_20h14.02.634,classification_task,2021.2.3,Win32,60.06006006,5be0d2374579d00001ad8d6d,626b377229c10585ec392f8a,626b3bbacd2dc8cbf2e4efc2,,,,,Visual perception,,,0.7,0,,,,,,,,,,,,,,,,,,,,,,,,,,,,,,,,,,,,,,,,,,,,,,,,,,,,,,,,,,,
,5be0d2374579d00001ad8d6d,001,2022-04-28_20h14.02.634,classification_task,2021.2.3,Win32,60.06006006,5be0d2374579d00001ad8d6d,626b377229c10585ec392f8a,626b3bbacd2dc8cbf2e4efc2,,,,,Do you have any form of color blindness?,,,0.7,0,No,14.4707,,,,,,,,,,,,,,,,,,,,,,,,,,,,,,,,,,,,,,,,,,,,,,,,,,,,,,,,,
,5be0d2374579d00001ad8d6d,001,2022-04-28_20h14.02.634,classification_task,2021.2.3,Win32,60.06006006,5be0d2374579d00001ad8d6d,626b377229c10585ec392f8a,626b3bbacd2dc8cbf2e4efc2,,,,,Do you use software to change the colour temperature of your screen (e.g. f.lux)?,,,0.7,0,No,15.5132,,,,,,,,,,,,,,,,,,,,,,,,,,,,,,,,,,,,,,,,,,,,,,,,,,,,,,,,,
,5be0d2374579d00001ad8d6d,001,2022-04-28_20h14.02.634,classification_task,2021.2.3,Win32,60.06006006,5be0d2374579d00001ad8d6d,626b377229c10585ec392f8a,626b3bbacd2dc8cbf2e4efc2,,,,,,,,,,,,space,13.4295,space,3.8633,0,0,0,0,1,,,,,,,,,,,,,,,,,,,,,,,,,,,,,,,,,,,,,,,,,,,,,,,,
,5be0d2374579d00001ad8d6d,001,2022-04-28_20h14.02.634,classification_task,2021.2.3,Win32,60.06006006,5be0d2374579d00001ad8d6d,626b377229c10585ec392f8a,626b3bbacd2dc8cbf2e4efc2,,,,,,,,,,,,,,space,6.7809,1,0,1,0,1,,,,,,,,,,,,,,,,,,,,,,,,,,,,,,,,,,,,,,,,,,,,,,,,
,5be0d2374579d00001ad8d6d,001,2022-04-28_20h14.02.634,classification_task,2021.2.3,Win32,60.06006006,5be0d2374579d00001ad8d6d,626b377229c10585ec392f8a,626b3bbacd2dc8cbf2e4efc2,,,,,,,,,,,,,,space,20.0975,2,0,2,0,1,,,,,,,,,,,,,,,,,,,,,,,,,,,,,,,,,,,,,,,,,,,,,,,,
,5be0d2374579d00001ad8d6d,001,2022-04-28_20h14.02.634,classification_task,2021.2.3,Win32,60.06006006,5be0d2374579d00001ad8d6d,626b377229c10585ec392f8a,626b3bbacd2dc8cbf2e4efc2,,,,,,,,,,,,,,space,4.1637,3,0,3,0,1,,,,,,,,,,,,,,,,,,,,,,,,,,,,,,,,,,,,,,,,,,,,,,,,
,5be0d2374579d00001ad8d6d,001,2022-04-28_20h14.02.634,classification_task,2021.2.3,Win32,60.06006006,5be0d2374579d00001ad8d6d,626b377229c10585ec392f8a,626b3bbacd2dc8cbf2e4efc2,,,,,,,,,,,,,,space,15.2296,4,0,4,0,1,,,,,,,,,,,,,,,,,,,,,,,,,,,,,,,,,,,,,,,,,,,,,,,,
,5be0d2374579d00001ad8d6d,001,2022-04-28_20h14.02.634,classification_task,2021.2.3,Win32,60.06006006,5be0d2374579d00001ad8d6d,626b377229c10585ec392f8a,626b3bbacd2dc8cbf2e4efc2,,,,,,,,,,,,,,,,,,,,,space,9.0861,l,1,2.8532,"[""0.036"",""0.267"",""0.385"",""0.794""]","[1,1,0,1]",0,0,0,0,1,1,1,,,0,FALSE,,,,,,,,,,,,,,,,,,,,,,,,,,,,,,
,5be0d2374579d00001ad8d6d,001,2022-04-28_20h14.02.634,classification_task,2021.2.3,Win32,60.06006006,5be0d2374579d00001ad8d6d,626b377229c10585ec392f8a,626b3bbacd2dc8cbf2e4efc2,,,,,,,,,,,,,,,,,,,,,,,a,1,4.378,"[""0.197"",""0.524"",""0.829"",""0.682""]","[1,1,1,0]",0,1,1,1,1,0,0,,,0,FALSE,,,,,,,,,,,,,,,,,,,,,,,,,,,,,,
,5be0d2374579d00001ad8d6d,001,2022-04-28_20h14.02.634,classification_task,2021.2.3,Win32,60.06006006,5be0d2374579d00001ad8d6d,626b377229c10585ec392f8a,626b3bbacd2dc8cbf2e4efc2,,,,,,,,,,,,,,,,,,,,,,,a,1,2.7704,"[""0.197"",""0.369"",""0.829"",""0.935""]","[1,0,1,1]",0,2,2,2,1,0,0,,,0,FALSE,,,,,,,,,,,,,,,,,,,,,,,,,,,,,,
,5be0d2374579d00001ad8d6d,001,2022-04-28_20h14.02.634,classification_task,2021.2.3,Win32,60.06006006,5be0d2374579d00001ad8d6d,626b377229c10585ec392f8a,626b3bbacd2dc8cbf2e4efc2,,,,,,,,,,,,,,,,,,,,,,,l,1,2.0529,"[""0.036"",""0.267"",""0.584"",""0.701""]","[1,1,1,0]",0,3,3,3,1,1,1,,,0,FALSE,,,,,,,,,,,,,,,,,,,,,,,,,,,,,,
,5be0d2374579d00001ad8d6d,001,2022-04-28_20h14.02.634,classification_task,2021.2.3,Win32,60.06006006,5be0d2374579d00001ad8d6d,626b377229c10585ec392f8a,626b3bbacd2dc8cbf2e4efc2,,,,,,,,,,,,,,,,,,,,,,,l,0,4.6697,"[""0.231"",""0.467"",""0.898"",""0.975""]","[0,1,1,1]",0,4,4,4,1,0,1,,,0,FALSE,,,,,,,,,,,,,,,,,,,,,,,,,,,,,,
,5be0d2374579d00001ad8d6d,001,2022-04-28_20h14.02.634,classification_task,2021.2.3,Win32,60.06006006,5be0d2374579d00001ad8d6d,626b377229c10585ec392f8a,626b3bbacd2dc8cbf2e4efc2,,,,,,,,,,,,,,,,,,,,,,,a,1,1.9402,"[""0.161"",""0.682"",""0.898"",""0.975""]","[1,0,1,1]",0,5,5,5,1,0,1,,,0,FALSE,,,,,,,,,,,,,,,,,,,,,,,,,,,,,,
,5be0d2374579d00001ad8d6d,001,2022-04-28_20h14.02.634,classification_task,2021.2.3,Win32,60.06006006,5be0d2374579d00001ad8d6d,626b377229c10585ec392f8a,626b3bbacd2dc8cbf2e4efc2,,,,,,,,,,,,,,,,,,,,,,,a,1,1.5332,"[""0.161"",""0.467"",""0.898"",""0.359""]","[1,1,1,0]",0,6,6,6,1,0,1,,,0,FALSE,,,,,,,,,,,,,,,,,,,,,,,,,,,,,,
,5be0d2374579d00001ad8d6d,001,2022-04-28_20h14.02.634,classification_task,2021.2.3,Win32,60.06006006,5be0d2374579d00001ad8d6d,626b377229c10585ec392f8a,626b3bbacd2dc8cbf2e4efc2,,,,,,,,,,,,,,,,,,,,,,,l,1,4.1721,"[""0.663"",""0.312"",""0.618"",""0.737""]","[0,1,1,1]",0,7,7,7,1,1,0,,,0,FALSE,,,,,,,,,,,,,,,,,,,,,,,,,,,,,,
,5be0d2374579d00001ad8d6d,001,2022-04-28_20h14.02.634,classification_task,2021.2.3,Win32,60.06006006,5be0d2374579d00001ad8d6d,626b377229c10585ec392f8a,626b3bbacd2dc8cbf2e4efc2,,,,,,,,,,,,,,,,,,,,,,,l,1,4.1348,"[""0.126"",""0.312"",""0.618"",""0.682""]","[1,1,1,0]",0,8,8,8,1,1,0,,,0,FALSE,,,,,,,,,,,,,,,,,,,,,,,,,,,,,,
,5be0d2374579d00001ad8d6d,001,2022-04-28_20h14.02.634,classification_task,2021.2.3,Win32,60.06006006,5be0d2374579d00001ad8d6d,626b377229c10585ec392f8a,626b3bbacd2dc8cbf2e4efc2,,,,,,,,,,,,,,,,,,,,,,,a,0,1.6868,"[""0.036"",""0.701"",""0.584"",""0.794""]","[1,0,1,1]",0,9,9,9,1,1,1,,,0,FALSE,,,,,,,,,,,,,,,,,,,,,,,,,,,,,,
,5be0d2374579d00001ad8d6d,001,2022-04-28_20h14.02.634,classification_task,2021.2.3,Win32,60.06006006,5be0d2374579d00001ad8d6d,626b377229c10585ec392f8a,626b3bbacd2dc8cbf2e4efc2,,,,,,,,,,,,,,,,,,,,,,,l,1,3.5105,"[""0.126"",""0.312"",""0.385"",""0.737""]","[1,1,0,1]",0,10,10,10,1,1,0,,,0,FALSE,,,,,,,,,,,,,,,,,,,,,,,,,,,,,,
,5be0d2374579d00001ad8d6d,001,2022-04-28_20h14.02.634,classification_task,2021.2.3,Win32,60.06006006,5be0d2374579d00001ad8d6d,626b377229c10585ec392f8a,626b3bbacd2dc8cbf2e4efc2,,,,,,,,,,,,,,,,,,,,,,,l,1,1.6275,"[""0.126"",""0.663"",""0.618"",""0.737""]","[1,0,1,1]",0,11,11,11,1,1,0,,,0,FALSE,,,,,,,,,,,,,,,,,,,,,,,,,,,,,,
,5be0d2374579d00001ad8d6d,001,2022-04-28_20h14.02.634,classification_task,2021.2.3,Win32,60.06006006,5be0d2374579d00001ad8d6d,626b377229c10585ec392f8a,626b3bbacd2dc8cbf2e4efc2,,,,,,,,,,,,,,,,,,,,,,,a,1,2.567,"[""0.161"",""0.467"",""0.663"",""0.975""]","[1,1,0,1]",0,12,12,12,1,0,1,,,0,FALSE,,,,,,,,,,,,,,,,,,,,,,,,,,,,,,
,5be0d2374579d00001ad8d6d,001,2022-04-28_20h14.02.634,classification_task,2021.2.3,Win32,60.06006006,5be0d2374579d00001ad8d6d,626b377229c10585ec392f8a,626b3bbacd2dc8cbf2e4efc2,,,,,,,,,,,,,,,,,,,,,,,a,0,1.9062,"[""0.688"",""0.267"",""0.584"",""0.794""]","[0,1,1,1]",0,13,13,13,1,1,1,,,0,FALSE,,,,,,,,,,,,,,,,,,,,,,,,,,,,,,
,5be0d2374579d00001ad8d6d,001,2022-04-28_20h14.02.634,classification_task,2021.2.3,Win32,60.06006006,5be0d2374579d00001ad8d6d,626b377229c10585ec392f8a,626b3bbacd2dc8cbf2e4efc2,,,,,,,,,,,,,,,,,,,,,,,a,1,3.1787,"[""0.197"",""0.524"",""0.231"",""0.935""]","[1,1,0,1]",0,14,14,14,1,0,0,,,0,FALSE,,,,,,,,,,,,,,,,,,,,,,,,,,,,,,
,5be0d2374579d00001ad8d6d,001,2022-04-28_20h14.02.634,classification_task,2021.2.3,Win32,60.06006006,5be0d2374579d00001ad8d6d,626b377229c10585ec392f8a,626b3bbacd2dc8cbf2e4efc2,,,,,,,,,,,,,,,,,,,,,,,l,0,3.9851,"[""0.352"",""0.524"",""0.829"",""0.935""]","[0,1,1,1]",0,15,15,15,1,0,0,,,0,FALSE,,,,,,,,,,,,,,,,,,,,,,,,,,,,,,
,5be0d2374579d00001ad8d6d,001,2022-04-28_20h14.02.634,classification_task,2021.2.3,Win32,60.06006006,5be0d2374579d00001ad8d6d,626b377229c10585ec392f8a,626b3bbacd2dc8cbf2e4efc2,,,,,,,,,,,,,,,,,,,,,,,a,1,3.2045,"[""0.161"",""0.354"",""0.898"",""0.975""]","[1,0,1,1]",0,16,16,16,1,0,1,,,0,FALSE,,,,,,,,,,,,,,,,,,,,,,,,,,,,,,
,5be0d2374579d00001ad8d6d,001,2022-04-28_20h14.02.634,classification_task,2021.2.3,Win32,60.06006006,5be0d2374579d00001ad8d6d,626b377229c10585ec392f8a,626b3bbacd2dc8cbf2e4efc2,,,,,,,,,,,,,,,,,,,,,,,l,1,1.724,"[""0.036"",""0.267"",""0.584"",""0.688""]","[1,1,1,0]",0,17,17,17,1,1,1,,,0,FALSE,,,,,,,,,,,,,,,,,,,,,,,,,,,,,,
,5be0d2374579d00001ad8d6d,001,2022-04-28_20h14.02.634,classification_task,2021.2.3,Win32,60.06006006,5be0d2374579d00001ad8d6d,626b377229c10585ec392f8a,626b3bbacd2dc8cbf2e4efc2,,,,,,,,,,,,,,,,,,,,,,,a,1,1.3986,"[""0.161"",""0.467"",""0.354"",""0.975""]","[1,1,0,1]",0,18,18,18,1,0,1,,,0,FALSE,,,,,,,,,,,,,,,,,,,,,,,,,,,,,,
,5be0d2374579d00001ad8d6d,001,2022-04-28_20h14.02.634,classification_task,2021.2.3,Win32,60.06006006,5be0d2374579d00001ad8d6d,626b377229c10585ec392f8a,626b3bbacd2dc8cbf2e4efc2,,,,,,,,,,,,,,,,,,,,,,,l,1,3.0897,"[""0.126"",""0.312"",""0.618"",""0.359""]","[1,1,1,0]",0,19,19,19,1,1,0,,,0,FALSE,,,,,,,,,,,,,,,,,,,,,,,,,,,,,,
,5be0d2374579d00001ad8d6d,001,2022-04-28_20h14.02.634,classification_task,2021.2.3,Win32,60.06006006,5be0d2374579d00001ad8d6d,626b377229c10585ec392f8a,626b3bbacd2dc8cbf2e4efc2,,,,,,,,,,,,,,,,,,,,,,,l,1,3.4702,"[""0.352"",""0.267"",""0.584"",""0.794""]","[0,1,1,1]",0,20,20,20,1,1,1,,,0,FALSE,,,,,,,,,,,,,,,,,,,,,,,,,,,,,,
,5be0d2374579d00001ad8d6d,001,2022-04-28_20h14.02.634,classification_task,2021.2.3,Win32,60.06006006,5be0d2374579d00001ad8d6d,626b377229c10585ec392f8a,626b3bbacd2dc8cbf2e4efc2,,,,,,,,,,,,,,,,,,,,,,,l,1,2.1165,"[""0.036"",""0.267"",""0.385"",""0.794""]","[1,1,0,1]",0,21,21,21,1,1,1,,,0,FALSE,,,,,,,,,,,,,,,,,,,,,,,,,,,,,,
,5be0d2374579d00001ad8d6d,001,2022-04-28_20h14.02.634,classification_task,2021.2.3,Win32,60.06006006,5be0d2374579d00001ad8d6d,626b377229c10585ec392f8a,626b3bbacd2dc8cbf2e4efc2,,,,,,,,,,,,,,,,,,,,,,,l,1,1.9635,"[""0.126"",""0.312"",""0.682"",""0.737""]","[1,1,0,1]",0,22,22,22,1,1,0,,,0,FALSE,,,,,,,,,,,,,,,,,,,,,,,,,,,,,,
,5be0d2374579d00001ad8d6d,001,2022-04-28_20h14.02.634,classification_task,2021.2.3,Win32,60.06006006,5be0d2374579d00001ad8d6d,626b377229c10585ec392f8a,626b3bbacd2dc8cbf2e4efc2,,,,,,,,,,,,,,,,,,,,,,,a,1,1.7272,"[""0.197"",""0.524"",""0.682"",""0.935""]","[1,1,0,1]",0,23,23,23,1,0,0,,,0,FALSE,,,,,,,,,,,,,,,,,,,,,,,,,,,,,,
,5be0d2374579d00001ad8d6d,001,2022-04-28_20h14.02.634,classification_task,2021.2.3,Win32,60.06006006,5be0d2374579d00001ad8d6d,626b377229c10585ec392f8a,626b3bbacd2dc8cbf2e4efc2,,,,,,,,,,,,,,,,,,,,,,,l,0,2.1123,"[""0.369"",""0.467"",""0.898"",""0.975""]","[0,1,1,1]",0,24,24,24,1,0,1,,,0,FALSE,,,,,,,,,,,,,,,,,,,,,,,,,,,,,,
,5be0d2374579d00001ad8d6d,001,2022-04-28_20h14.02.634,classification_task,2021.2.3,Win32,60.06006006,5be0d2374579d00001ad8d6d,626b377229c10585ec392f8a,626b3bbacd2dc8cbf2e4efc2,,,,,,,,,,,,,,,,,,,,,,,l,1,3.3193,"[""0.359"",""0.312"",""0.618"",""0.737""]","[0,1,1,1]",0,25,25,25,1,1,0,,,0,FALSE,,,,,,,,,,,,,,,,,,,,,,,,,,,,,,
,5be0d2374579d00001ad8d6d,001,2022-04-28_20h14.02.634,classification_task,2021.2.3,Win32,60.06006006,5be0d2374579d00001ad8d6d,626b377229c10585ec392f8a,626b3bbacd2dc8cbf2e4efc2,,,,,,,,,,,,,,,,,,,,,,,l,1,1.5017,"[""0.036"",""0.688"",""0.584"",""0.794""]","[1,0,1,1]",0,26,26,26,1,1,1,,,0,FALSE,,,,,,,,,,,,,,,,,,,,,,,,,,,,,,
,5be0d2374579d00001ad8d6d,001,2022-04-28_20h14.02.634,classification_task,2021.2.3,Win32,60.06006006,5be0d2374579d00001ad8d6d,626b377229c10585ec392f8a,626b3bbacd2dc8cbf2e4efc2,,,,,,,,,,,,,,,,,,,,,,,a,1,1.8291,"[""0.197"",""0.524"",""0.829"",""0.429""]","[1,1,1,0]",0,27,27,27,1,0,0,,,0,FALSE,,,,,,,,,,,,,,,,,,,,,,,,,,,,,,
,5be0d2374579d00001ad8d6d,001,2022-04-28_20h14.02.634,classification_task,2021.2.3,Win32,60.06006006,5be0d2374579d00001ad8d6d,626b377229c10585ec392f8a,626b3bbacd2dc8cbf2e4efc2,,,,,,,,,,,,,,,,,,,,,,,l,0,1.5081,"[""0.081"",""0.524"",""0.829"",""0.935""]","[0,1,1,1]",0,28,28,28,1,0,0,,,0,FALSE,,,,,,,,,,,,,,,,,,,,,,,,,,,,,,
,5be0d2374579d00001ad8d6d,001,2022-04-28_20h14.02.634,classification_task,2021.2.3,Win32,60.06006006,5be0d2374579d00001ad8d6d,626b377229c10585ec392f8a,626b3bbacd2dc8cbf2e4efc2,,,,,,,,,,,,,,,,,,,,,,,a,1,3.7492,"[""0.197"",""0.682"",""0.829"",""0.935""]","[1,0,1,1]",0,29,29,29,1,0,0,,,0,FALSE,,,,,,,,,,,,,,,,,,,,,,,,,,,,,,
,5be0d2374579d00001ad8d6d,001,2022-04-28_20h14.02.634,classification_task,2021.2.3,Win32,60.06006006,5be0d2374579d00001ad8d6d,626b377229c10585ec392f8a,626b3bbacd2dc8cbf2e4efc2,,,,,,,,,,,,,,,,,,,,,,,a,1,4.1705,"[""0.161"",""0.467"",""0.898"",""0.359""]","[1,1,1,0]",0,30,30,30,1,0,1,,,0,FALSE,,,,,,,,,,,,,,,,,,,,,,,,,,,,,,
,5be0d2374579d00001ad8d6d,001,2022-04-28_20h14.02.634,classification_task,2021.2.3,Win32,60.06006006,5be0d2374579d00001ad8d6d,626b377229c10585ec392f8a,626b3bbacd2dc8cbf2e4efc2,,,,,,,,,,,,,,,,,,,,,,,l,1,2.6705,"[""0.126"",""0.429"",""0.618"",""0.737""]","[1,0,1,1]",0,31,31,31,1,1,0,,,0,FALSE,,,,,,,,,,,,,,,,,,,,,,,,,,,,,,
,5be0d2374579d00001ad8d6d,001,2022-04-28_20h14.02.634,classification_task,2021.2.3,Win32,60.06006006,5be0d2374579d00001ad8d6d,626b377229c10585ec392f8a,626b3bbacd2dc8cbf2e4efc2,,,,,,,,,,,,,,,,,,,,,,,l,1,2.4357,"[""0.429"",""0.312"",""0.618"",""0.737""]","[0,1,1,1]",0,32,32,32,1,1,0,,,0,FALSE,,,,,,,,,,,,,,,,,,,,,,,,,,,,,,
,5be0d2374579d00001ad8d6d,001,2022-04-28_20h14.02.634,classification_task,2021.2.3,Win32,60.06006006,5be0d2374579d00001ad8d6d,626b377229c10585ec392f8a,626b3bbacd2dc8cbf2e4efc2,,,,,,,,,,,,,,,,,,,,,,,l,1,1.1757,"[""0.682"",""0.267"",""0.584"",""0.794""]","[0,1,1,1]",0,33,33,33,1,1,1,,,0,FALSE,,,,,,,,,,,,,,,,,,,,,,,,,,,,,,
,5be0d2374579d00001ad8d6d,001,2022-04-28_20h14.02.634,classification_task,2021.2.3,Win32,60.06006006,5be0d2374579d00001ad8d6d,626b377229c10585ec392f8a,626b3bbacd2dc8cbf2e4efc2,,,,,,,,,,,,,,,,,,,,,,,a,0,1.4921,"[""0.036"",""0.267"",""0.663"",""0.794""]","[1,1,0,1]",0,34,34,34,1,1,1,,,0,FALSE,,,,,,,,,,,,,,,,,,,,,,,,,,,,,,
,5be0d2374579d00001ad8d6d,001,2022-04-28_20h14.02.634,classification_task,2021.2.3,Win32,60.06006006,5be0d2374579d00001ad8d6d,626b377229c10585ec392f8a,626b3bbacd2dc8cbf2e4efc2,,,,,,,,,,,,,,,,,,,,,,,a,1,1.139,"[""0.161"",""0.467"",""0.081"",""0.975""]","[1,1,0,1]",0,35,35,35,1,0,1,,,0,FALSE,,,,,,,,,,,,,,,,,,,,,,,,,,,,,,
,5be0d2374579d00001ad8d6d,001,2022-04-28_20h14.02.634,classification_task,2021.2.3,Win32,60.06006006,5be0d2374579d00001ad8d6d,626b377229c10585ec392f8a,626b3bbacd2dc8cbf2e4efc2,,,,,,,,,,,,,,,,,,,,,,,a,1,1.8036,"[""0.161"",""0.467"",""0.898"",""0.652""]","[1,1,1,0]",0,36,36,36,1,0,1,,,0,FALSE,,,,,,,,,,,,,,,,,,,,,,,,,,,,,,
,5be0d2374579d00001ad8d6d,001,2022-04-28_20h14.02.634,classification_task,2021.2.3,Win32,60.06006006,5be0d2374579d00001ad8d6d,626b377229c10585ec392f8a,626b3bbacd2dc8cbf2e4efc2,,,,,,,,,,,,,,,,,,,,,,,l,1,1.5846,"[""0.126"",""0.312"",""0.618"",""0.682""]","[1,1,1,0]",0,37,37,37,1,1,0,,,0,FALSE,,,,,,,,,,,,,,,,,,,,,,,,,,,,,,
,5be0d2374579d00001ad8d6d,001,2022-04-28_20h14.02.634,classification_task,2021.2.3,Win32,60.06006006,5be0d2374579d00001ad8d6d,626b377229c10585ec392f8a,626b3bbacd2dc8cbf2e4efc2,,,,,,,,,,,,,,,,,,,,,,,a,1,0.9746,"[""0.161"",""0.231"",""0.898"",""0.975""]","[1,0,1,1]",0,38,38,38,1,0,1,,,0,FALSE,,,,,,,,,,,,,,,,,,,,,,,,,,,,,,
,5be0d2374579d00001ad8d6d,001,2022-04-28_20h14.02.634,classification_task,2021.2.3,Win32,60.06006006,5be0d2374579d00001ad8d6d,626b377229c10585ec392f8a,626b3bbacd2dc8cbf2e4efc2,,,,,,,,,,,,,,,,,,,,,,,l,1,1.5868,"[""0.126"",""0.312"",""0.652"",""0.737""]","[1,1,0,1]",0,39,39,39,1,1,0,,,0,FALSE,,,,,,,,,,,,,,,,,,,,,,,,,,,,,,
,5be0d2374579d00001ad8d6d,001,2022-04-28_20h14.02.634,classification_task,2021.2.3,Win32,60.06006006,5be0d2374579d00001ad8d6d,626b377229c10585ec392f8a,626b3bbacd2dc8cbf2e4efc2,,,,,,,,,,,,,,,,,,,,,,,l,1,1.2314,"[""0.036"",""0.701"",""0.584"",""0.794""]","[1,0,1,1]",0,40,40,40,1,1,1,,,0,FALSE,,,,,,,,,,,,,,,,,,,,,,,,,,,,,,
,5be0d2374579d00001ad8d6d,001,2022-04-28_20h14.02.634,classification_task,2021.2.3,Win32,60.06006006,5be0d2374579d00001ad8d6d,626b377229c10585ec392f8a,626b3bbacd2dc8cbf2e4efc2,,,,,,,,,,,,,,,,,,,,,,,l,1,1.7816,"[""0.126"",""0.701"",""0.618"",""0.737""]","[1,0,1,1]",0,41,41,41,1,1,0,,,0,FALSE,,,,,,,,,,,,,,,,,,,,,,,,,,,,,,
,5be0d2374579d00001ad8d6d,001,2022-04-28_20h14.02.634,classification_task,2021.2.3,Win32,60.06006006,5be0d2374579d00001ad8d6d,626b377229c10585ec392f8a,626b3bbacd2dc8cbf2e4efc2,,,,,,,,,,,,,,,,,,,,,,,l,0,2.596,"[""0.682"",""0.524"",""0.829"",""0.935""]","[0,1,1,1]",0,42,42,42,1,0,0,,,0,FALSE,,,,,,,,,,,,,,,,,,,,,,,,,,,,,,
,5be0d2374579d00001ad8d6d,001,2022-04-28_20h14.02.634,classification_task,2021.2.3,Win32,60.06006006,5be0d2374579d00001ad8d6d,626b377229c10585ec392f8a,626b3bbacd2dc8cbf2e4efc2,,,,,,,,,,,,,,,,,,,,,,,l,0,1.9586,"[""0.682"",""0.467"",""0.898"",""0.975""]","[0,1,1,1]",0,43,43,43,1,0,1,,,0,FALSE,,,,,,,,,,,,,,,,,,,,,,,,,,,,,,
,5be0d2374579d00001ad8d6d,001,2022-04-28_20h14.02.634,classification_task,2021.2.3,Win32,60.06006006,5be0d2374579d00001ad8d6d,626b377229c10585ec392f8a,626b3bbacd2dc8cbf2e4efc2,,,,,,,,,,,,,,,,,,,,,,,l,1,1.3413,"[""0.036"",""0.267"",""0.584"",""0.701""]","[1,1,1,0]",0,44,44,44,1,1,1,,,0,FALSE,,,,,,,,,,,,,,,,,,,,,,,,,,,,,,
,5be0d2374579d00001ad8d6d,001,2022-04-28_20h14.02.634,classification_task,2021.2.3,Win32,60.06006006,5be0d2374579d00001ad8d6d,626b377229c10585ec392f8a,626b3bbacd2dc8cbf2e4efc2,,,,,,,,,,,,,,,,,,,,,,,a,1,1.7954,"[""0.197"",""0.675"",""0.829"",""0.935""]","[1,0,1,1]",0,45,45,45,1,0,0,,,0,FALSE,,,,,,,,,,,,,,,,,,,,,,,,,,,,,,
,5be0d2374579d00001ad8d6d,001,2022-04-28_20h14.02.634,classification_task,2021.2.3,Win32,60.06006006,5be0d2374579d00001ad8d6d,626b377229c10585ec392f8a,626b3bbacd2dc8cbf2e4efc2,,,,,,,,,,,,,,,,,,,,,,,a,1,1.7688,"[""0.197"",""0.524"",""0.829"",""0.688""]","[1,1,1,0]",0,46,46,46,1,0,0,,,0,FALSE,,,,,,,,,,,,,,,,,,,,,,,,,,,,,,
,5be0d2374579d00001ad8d6d,001,2022-04-28_20h14.02.634,classification_task,2021.2.3,Win32,60.06006006,5be0d2374579d00001ad8d6d,626b377229c10585ec392f8a,626b3bbacd2dc8cbf2e4efc2,,,,,,,,,,,,,,,,,,,,,,,a,1,0.9772,"[""0.197"",""0.524"",""0.429"",""0.935""]","[1,1,0,1]",0,47,47,47,1,0,0,,,0,FALSE,,,,,,,,,,,,,,,,,,,,,,,,,,,,,,
,5be0d2374579d00001ad8d6d,001,2022-04-28_20h14.02.634,classification_task,2021.2.3,Win32,60.06006006,5be0d2374579d00001ad8d6d,626b377229c10585ec392f8a,626b3bbacd2dc8cbf2e4efc2,,,,,,,,,,,,,,,,,,,,,,,l,1,1.1838,"[""0.126"",""0.385"",""0.618"",""0.737""]","[1,0,1,1]",0,48,48,48,1,1,0,,,0,FALSE,,,,,,,,,,,,,,,,,,,,,,,,,,,,,,
,5be0d2374579d00001ad8d6d,001,2022-04-28_20h14.02.634,classification_task,2021.2.3,Win32,60.06006006,5be0d2374579d00001ad8d6d,626b377229c10585ec392f8a,626b3bbacd2dc8cbf2e4efc2,,,,,,,,,,,,,,,,,,,,,,,l,1,1.5331,"[""0.675"",""0.267"",""0.584"",""0.794""]","[0,1,1,1]",0,49,49,49,1,1,1,,,0,FALSE,,,,,,,,,,,,,,,,,,,,,,,,,,,,,,
,5be0d2374579d00001ad8d6d,001,2022-04-28_20h14.02.634,classification_task,2021.2.3,Win32,60.06006006,5be0d2374579d00001ad8d6d,626b377229c10585ec392f8a,626b3bbacd2dc8cbf2e4efc2,,,,,,,,,,,,,,,,,,,,,,,l,1,1.5291,"[""0.036"",""0.385"",""0.584"",""0.794""]","[1,0,1,1]",0,50,50,50,1,1,1,,,0,FALSE,,,,,,,,,,,,,,,,,,,,,,,,,,,,,,
,5be0d2374579d00001ad8d6d,001,2022-04-28_20h14.02.634,classification_task,2021.2.3,Win32,60.06006006,5be0d2374579d00001ad8d6d,626b377229c10585ec392f8a,626b3bbacd2dc8cbf2e4efc2,,,,,,,,,,,,,,,,,,,,,,,l,0,1.1998,"[""0.197"",""0.524"",""0.354"",""0.935""]","[1,1,0,1]",0,51,51,51,1,0,0,,,0,FALSE,,,,,,,,,,,,,,,,,,,,,,,,,,,,,,
,5be0d2374579d00001ad8d6d,001,2022-04-28_20h14.02.634,classification_task,2021.2.3,Win32,60.06006006,5be0d2374579d00001ad8d6d,626b377229c10585ec392f8a,626b3bbacd2dc8cbf2e4efc2,,,,,,,,,,,,,,,,,,,,,,,a,1,0.8126,"[""0.197"",""0.354"",""0.829"",""0.935""]","[1,0,1,1]",0,52,52,52,1,0,0,,,0,FALSE,,,,,,,,,,,,,,,,,,,,,,,,,,,,,,
,5be0d2374579d00001ad8d6d,001,2022-04-28_20h14.02.634,classification_task,2021.2.3,Win32,60.06006006,5be0d2374579d00001ad8d6d,626b377229c10585ec392f8a,626b3bbacd2dc8cbf2e4efc2,,,,,,,,,,,,,,,,,,,,,,,l,1,1.5166,"[""0.036"",""0.267"",""0.675"",""0.794""]","[1,1,0,1]",0,53,53,53,1,1,1,,,0,FALSE,,,,,,,,,,,,,,,,,,,,,,,,,,,,,,
,5be0d2374579d00001ad8d6d,001,2022-04-28_20h14.02.634,classification_task,2021.2.3,Win32,60.06006006,5be0d2374579d00001ad8d6d,626b377229c10585ec392f8a,626b3bbacd2dc8cbf2e4efc2,,,,,,,,,,,,,,,,,,,,,,,a,1,1.3435,"[""0.688"",""0.467"",""0.898"",""0.975""]","[0,1,1,1]",0,54,54,54,1,0,1,,,0,FALSE,,,,,,,,,,,,,,,,,,,,,,,,,,,,,,
,5be0d2374579d00001ad8d6d,001,2022-04-28_20h14.02.634,classification_task,2021.2.3,Win32,60.06006006,5be0d2374579d00001ad8d6d,626b377229c10585ec392f8a,626b3bbacd2dc8cbf2e4efc2,,,,,,,,,,,,,,,,,,,,,,,a,1,1.3197,"[""0.161"",""0.467"",""0.675"",""0.975""]","[1,1,0,1]",0,55,55,55,1,0,1,,,0,FALSE,,,,,,,,,,,,,,,,,,,,,,,,,,,,,,
,5be0d2374579d00001ad8d6d,001,2022-04-28_20h14.02.634,classification_task,2021.2.3,Win32,60.06006006,5be0d2374579d00001ad8d6d,626b377229c10585ec392f8a,626b3bbacd2dc8cbf2e4efc2,,,,,,,,,,,,,,,,,,,,,,,a,1,0.9341,"[""0.161"",""0.467"",""0.898"",""0.663""]","[1,1,1,0]",0,56,56,56,1,0,1,,,0,FALSE,,,,,,,,,,,,,,,,,,,,,,,,,,,,,,
,5be0d2374579d00001ad8d6d,001,2022-04-28_20h14.02.634,classification_task,2021.2.3,Win32,60.06006006,5be0d2374579d00001ad8d6d,626b377229c10585ec392f8a,626b3bbacd2dc8cbf2e4efc2,,,,,,,,,,,,,,,,,,,,,,,a,1,1.9993,"[""0.197"",""0.524"",""0.829"",""0.385""]","[1,1,1,0]",0,57,57,57,1,0,0,,,0,FALSE,,,,,,,,,,,,,,,,,,,,,,,,,,,,,,
,5be0d2374579d00001ad8d6d,001,2022-04-28_20h14.02.634,classification_task,2021.2.3,Win32,60.06006006,5be0d2374579d00001ad8d6d,626b377229c10585ec392f8a,626b3bbacd2dc8cbf2e4efc2,,,,,,,,,,,,,,,,,,,,,,,l,1,0.8301,"[""0.369"",""0.312"",""0.618"",""0.737""]","[0,1,1,1]",0,58,58,58,1,1,0,,,0,FALSE,,,,,,,,,,,,,,,,,,,,,,,,,,,,,,
,5be0d2374579d00001ad8d6d,001,2022-04-28_20h14.02.634,classification_task,2021.2.3,Win32,60.06006006,5be0d2374579d00001ad8d6d,626b377229c10585ec392f8a,626b3bbacd2dc8cbf2e4efc2,,,,,,,,,,,,,,,,,,,,,,,a,0,1.6443,"[""0.036"",""0.267"",""0.584"",""0.081""]","[1,1,1,0]",0,59,59,59,1,1,1,,,0,FALSE,,,,,,,,,,,,,,,,,,,,,,,,,,,,,,
,5be0d2374579d00001ad8d6d,001,2022-04-28_20h14.02.634,classification_task,2021.2.3,Win32,60.06006006,5be0d2374579d00001ad8d6d,626b377229c10585ec392f8a,626b3bbacd2dc8cbf2e4efc2,,,,,,,,,,,,,,,,,,,,,,,a,1,0.8171,"[""0.161"",""0.652"",""0.898"",""0.975""]","[1,0,1,1]",0,60,60,60,1,0,1,,,0,FALSE,,,,,,,,,,,,,,,,,,,,,,,,,,,,,,
,5be0d2374579d00001ad8d6d,001,2022-04-28_20h14.02.634,classification_task,2021.2.3,Win32,60.06006006,5be0d2374579d00001ad8d6d,626b377229c10585ec392f8a,626b3bbacd2dc8cbf2e4efc2,,,,,,,,,,,,,,,,,,,,,,,l,0,1.3332,"[""0.359"",""0.524"",""0.829"",""0.935""]","[0,1,1,1]",0,61,61,61,1,0,0,,,0,FALSE,,,,,,,,,,,,,,,,,,,,,,,,,,,,,,
,5be0d2374579d00001ad8d6d,001,2022-04-28_20h14.02.634,classification_task,2021.2.3,Win32,60.06006006,5be0d2374579d00001ad8d6d,626b377229c10585ec392f8a,626b3bbacd2dc8cbf2e4efc2,,,,,,,,,,,,,,,,,,,,,,,l,1,2.6377,"[""0.126"",""0.312"",""0.081"",""0.737""]","[1,1,0,1]",0,62,62,62,1,1,0,,,0,FALSE,,,,,,,,,,,,,,,,,,,,,,,,,,,,,,
,5be0d2374579d00001ad8d6d,001,2022-04-28_20h14.02.634,classification_task,2021.2.3,Win32,60.06006006,5be0d2374579d00001ad8d6d,626b377229c10585ec392f8a,626b3bbacd2dc8cbf2e4efc2,,,,,,,,,,,,,,,,,,,,,,,l,1,1.8069,"[""0.126"",""0.312"",""0.618"",""0.369""]","[1,1,1,0]",0,63,63,63,1,1,0,,,0,FALSE,,,,,,,,,,,,,,,,,,,,,,,,,,,,,,
,5be0d2374579d00001ad8d6d,001,2022-04-28_20h14.02.634,classification_task,2021.2.3,Win32,60.06006006,5be0d2374579d00001ad8d6d,626b377229c10585ec392f8a,626b3bbacd2dc8cbf2e4efc2,,,,,,,,,,,,,,,,,,,,,,,,,,,,,,,,,,,,,,,0, ,,0,3.20877425,314.5155,0,0,0,0,1,2,1,,,,,,,,,,,,,,,,,
,5be0d2374579d00001ad8d6d,001,2022-04-28_20h14.02.634,classification_task,2021.2.3,Win32,60.06006006,5be0d2374579d00001ad8d6d,626b377229c10585ec392f8a,626b3bbacd2dc8cbf2e4efc2,,,,,,,,,,,,,,,,,,,,,,,,,,,,,,,,,,,,,,,1,  ,,0,7.411265432,317.6623,0,0,0,0,1,2,1,,,,,,,,,,,,,,,,,
,5be0d2374579d00001ad8d6d,001,2022-04-28_20h14.02.634,classification_task,2021.2.3,Win32,60.06006006,5be0d2374579d00001ad8d6d,626b377229c10585ec392f8a,626b3bbacd2dc8cbf2e4efc2,,,,,,,,,,,,,,,,,,,,,,,,,,,,,,,,,,,,,,,2,  ,,0,2.554287919,321.9749,0,0,0,0,1,2,1,,,,,,,,,,,,,,,,,
,5be0d2374579d00001ad8d6d,001,2022-04-28_20h14.02.634,classification_task,2021.2.3,Win32,60.06006006,5be0d2374579d00001ad8d6d,626b377229c10585ec392f8a,626b3bbacd2dc8cbf2e4efc2,,,,,,,,,,,,,,,,,,,,,,,,,,,,,,,,,,,,,,,,,,,,,0,0,0,0,1,,1,,,,,,,,,,,,,,,,,
,5be0d2374579d00001ad8d6d,001,2022-04-28_20h14.02.634,classification_task,2021.2.3,Win32,60.06006006,5be0d2374579d00001ad8d6d,626b377229c10585ec392f8a,626b3bbacd2dc8cbf2e4efc2,,,,,,,,,,,,,,,,,,,,,space,5.665,a,1,2.2467,"[""0.161"",""0.467"",""0.898"",""0.675""]","[1,1,1,0]",0,0,0,0,1,0,1,,,0,FALSE,,,,,,,,,,,,,,,,,,,,,,,,,,,,,,
,5be0d2374579d00001ad8d6d,001,2022-04-28_20h14.02.634,classification_task,2021.2.3,Win32,60.06006006,5be0d2374579d00001ad8d6d,626b377229c10585ec392f8a,626b3bbacd2dc8cbf2e4efc2,,,,,,,,,,,,,,,,,,,,,,,a,1,4.1567,"[""0.197"",""0.701"",""0.829"",""0.935""]","[1,0,1,1]",0,1,1,1,1,0,0,,,0,FALSE,,,,,,,,,,,,,,,,,,,,,,,,,,,,,,
,5be0d2374579d00001ad8d6d,001,2022-04-28_20h14.02.634,classification_task,2021.2.3,Win32,60.06006006,5be0d2374579d00001ad8d6d,626b377229c10585ec392f8a,626b3bbacd2dc8cbf2e4efc2,,,,,,,,,,,,,,,,,,,,,,,a,1,1.1613,"[""0.429"",""0.524"",""0.829"",""0.935""]","[0,1,1,1]",0,2,2,2,1,0,0,,,0,FALSE,,,,,,,,,,,,,,,,,,,,,,,,,,,,,,
,5be0d2374579d00001ad8d6d,001,2022-04-28_20h14.02.634,classification_task,2021.2.3,Win32,60.06006006,5be0d2374579d00001ad8d6d,626b377229c10585ec392f8a,626b3bbacd2dc8cbf2e4efc2,,,,,,,,,,,,,,,,,,,,,,,l,1,1.5591,"[""0.036"",""0.652"",""0.584"",""0.794""]","[1,0,1,1]",0,3,3,3,1,1,1,,,0,FALSE,,,,,,,,,,,,,,,,,,,,,,,,,,,,,,
,5be0d2374579d00001ad8d6d,001,2022-04-28_20h14.02.634,classification_task,2021.2.3,Win32,60.06006006,5be0d2374579d00001ad8d6d,626b377229c10585ec392f8a,626b3bbacd2dc8cbf2e4efc2,,,,,,,,,,,,,,,,,,,,,,,a,1,1.0057,"[""0.161"",""0.701"",""0.898"",""0.975""]","[1,0,1,1]",0,4,4,4,1,0,1,,,0,FALSE,,,,,,,,,,,,,,,,,,,,,,,,,,,,,,
,5be0d2374579d00001ad8d6d,001,2022-04-28_20h14.02.634,classification_task,2021.2.3,Win32,60.06006006,5be0d2374579d00001ad8d6d,626b377229c10585ec392f8a,626b3bbacd2dc8cbf2e4efc2,,,,,,,,,,,,,,,,,,,,,,,l,0,1.0503,"[""0.231"",""0.467"",""0.898"",""0.975""]","[0,1,1,1]",0,5,5,5,1,0,1,,,0,FALSE,,,,,,,,,,,,,,,,,,,,,,,,,,,,,,
,5be0d2374579d00001ad8d6d,001,2022-04-28_20h14.02.634,classification_task,2021.2.3,Win32,60.06006006,5be0d2374579d00001ad8d6d,626b377229c10585ec392f8a,626b3bbacd2dc8cbf2e4efc2,,,,,,,,,,,,,,,,,,,,,,,l,1,1.7282,"[""0.126"",""0.312"",""0.385"",""0.737""]","[1,1,0,1]",0,6,6,6,1,1,0,,,0,FALSE,,,,,,,,,,,,,,,,,,,,,,,,,,,,,,
,5be0d2374579d00001ad8d6d,001,2022-04-28_20h14.02.634,classification_task,2021.2.3,Win32,60.06006006,5be0d2374579d00001ad8d6d,626b377229c10585ec392f8a,626b3bbacd2dc8cbf2e4efc2,,,,,,,,,,,,,,,,,,,,,,,a,1,1.0127,"[""0.161"",""0.467"",""0.231"",""0.975""]","[1,1,0,1]",0,7,7,7,1,0,1,,,0,FALSE,,,,,,,,,,,,,,,,,,,,,,,,,,,,,,
,5be0d2374579d00001ad8d6d,001,2022-04-28_20h14.02.634,classification_task,2021.2.3,Win32,60.06006006,5be0d2374579d00001ad8d6d,626b377229c10585ec392f8a,626b3bbacd2dc8cbf2e4efc2,,,,,,,,,,,,,,,,,,,,,,,l,1,1.5944,"[""0.682"",""0.312"",""0.618"",""0.737""]","[0,1,1,1]",0,8,8,8,1,1,0,,,0,FALSE,,,,,,,,,,,,,,,,,,,,,,,,,,,,,,
,5be0d2374579d00001ad8d6d,001,2022-04-28_20h14.02.634,classification_task,2021.2.3,Win32,60.06006006,5be0d2374579d00001ad8d6d,626b377229c10585ec392f8a,626b3bbacd2dc8cbf2e4efc2,,,,,,,,,,,,,,,,,,,,,,,l,1,0.6475,"[""0.126"",""0.359"",""0.618"",""0.737""]","[1,0,1,1]",0,9,9,9,1,1,0,,,0,FALSE,,,,,,,,,,,,,,,,,,,,,,,,,,,,,,
,5be0d2374579d00001ad8d6d,001,2022-04-28_20h14.02.634,classification_task,2021.2.3,Win32,60.06006006,5be0d2374579d00001ad8d6d,626b377229c10585ec392f8a,626b3bbacd2dc8cbf2e4efc2,,,,,,,,,,,,,,,,,,,,,,,l,1,1.8802,"[""0.036"",""0.267"",""0.584"",""0.385""]","[1,1,1,0]",0,10,10,10,1,1,1,,,0,FALSE,,,,,,,,,,,,,,,,,,,,,,,,,,,,,,
,5be0d2374579d00001ad8d6d,001,2022-04-28_20h14.02.634,classification_task,2021.2.3,Win32,60.06006006,5be0d2374579d00001ad8d6d,626b377229c10585ec392f8a,626b3bbacd2dc8cbf2e4efc2,,,,,,,,,,,,,,,,,,,,,,,l,1,1.2292,"[""0.036"",""0.267"",""0.652"",""0.794""]","[1,1,0,1]",0,11,11,11,1,1,1,,,0,FALSE,,,,,,,,,,,,,,,,,,,,,,,,,,,,,,
,5be0d2374579d00001ad8d6d,001,2022-04-28_20h14.02.634,classification_task,2021.2.3,Win32,60.06006006,5be0d2374579d00001ad8d6d,626b377229c10585ec392f8a,626b3bbacd2dc8cbf2e4efc2,,,,,,,,,,,,,,,,,,,,,,,a,1,0.7986,"[""0.197"",""0.524"",""0.663"",""0.935""]","[1,1,0,1]",0,12,12,12,1,0,0,,,0,FALSE,,,,,,,,,,,,,,,,,,,,,,,,,,,,,,
,5be0d2374579d00001ad8d6d,001,2022-04-28_20h14.02.634,classification_task,2021.2.3,Win32,60.06006006,5be0d2374579d00001ad8d6d,626b377229c10585ec392f8a,626b3bbacd2dc8cbf2e4efc2,,,,,,,,,,,,,,,,,,,,,,,l,1,0.6126,"[""0.126"",""0.312"",""0.618"",""0.231""]","[1,1,1,0]",0,13,13,13,1,1,0,,,0,FALSE,,,,,,,,,,,,,,,,,,,,,,,,,,,,,,
,5be0d2374579d00001ad8d6d,001,2022-04-28_20h14.02.634,classification_task,2021.2.3,Win32,60.06006006,5be0d2374579d00001ad8d6d,626b377229c10585ec392f8a,626b3bbacd2dc8cbf2e4efc2,,,,,,,,,,,,,,,,,,,,,,,a,1,1.5278,"[""0.197"",""0.524"",""0.829"",""0.429""]","[1,1,1,0]",0,14,14,14,1,0,0,,,0,FALSE,,,,,,,,,,,,,,,,,,,,,,,,,,,,,,
,5be0d2374579d00001ad8d6d,001,2022-04-28_20h14.02.634,classification_task,2021.2.3,Win32,60.06006006,5be0d2374579d00001ad8d6d,626b377229c10585ec392f8a,626b3bbacd2dc8cbf2e4efc2,,,,,,,,,,,,,,,,,,,,,,,l,1,1.6835,"[""0.663"",""0.267"",""0.584"",""0.794""]","[0,1,1,1]",0,15,15,15,1,1,1,,,0,FALSE,,,,,,,,,,,,,,,,,,,,,,,,,,,,,,
,5be0d2374579d00001ad8d6d,001,2022-04-28_20h14.02.634,classification_task,2021.2.3,Win32,60.06006006,5be0d2374579d00001ad8d6d,626b377229c10585ec392f8a,626b3bbacd2dc8cbf2e4efc2,,,,,,,,,,,,,,,,,,,,,,,a,0,1.2147,"[""0.126"",""0.312"",""0.618"",""0.701""]","[1,1,1,0]",0,16,16,16,1,1,0,,,0,FALSE,,,,,,,,,,,,,,,,,,,,,,,,,,,,,,
,5be0d2374579d00001ad8d6d,001,2022-04-28_20h14.02.634,classification_task,2021.2.3,Win32,60.06006006,5be0d2374579d00001ad8d6d,626b377229c10585ec392f8a,626b3bbacd2dc8cbf2e4efc2,,,,,,,,,,,,,,,,,,,,,,,a,1,0.6205,"[""0.197"",""0.524"",""0.385"",""0.935""]","[1,1,0,1]",0,17,17,17,1,0,0,,,0,FALSE,,,,,,,,,,,,,,,,,,,,,,,,,,,,,,
,5be0d2374579d00001ad8d6d,001,2022-04-28_20h14.02.634,classification_task,2021.2.3,Win32,60.06006006,5be0d2374579d00001ad8d6d,626b377229c10585ec392f8a,626b3bbacd2dc8cbf2e4efc2,,,,,,,,,,,,,,,,,,,,,,,a,1,1.2652,"[""0.161"",""0.688"",""0.898"",""0.975""]","[1,0,1,1]",0,18,18,18,1,0,1,,,0,FALSE,,,,,,,,,,,,,,,,,,,,,,,,,,,,,,
,5be0d2374579d00001ad8d6d,001,2022-04-28_20h14.02.634,classification_task,2021.2.3,Win32,60.06006006,5be0d2374579d00001ad8d6d,626b377229c10585ec392f8a,626b3bbacd2dc8cbf2e4efc2,,,,,,,,,,,,,,,,,,,,,,,a,1,1.7312,"[""0.161"",""0.467"",""0.081"",""0.975""]","[1,1,0,1]",0,19,19,19,1,0,1,,,0,FALSE,,,,,,,,,,,,,,,,,,,,,,,,,,,,,,
,5be0d2374579d00001ad8d6d,001,2022-04-28_20h14.02.634,classification_task,2021.2.3,Win32,60.06006006,5be0d2374579d00001ad8d6d,626b377229c10585ec392f8a,626b3bbacd2dc8cbf2e4efc2,,,,,,,,,,,,,,,,,,,,,,,l,1,0.7636,"[""0.663"",""0.312"",""0.618"",""0.737""]","[0,1,1,1]",0,20,20,20,1,1,0,,,0,FALSE,,,,,,,,,,,,,,,,,,,,,,,,,,,,,,
,5be0d2374579d00001ad8d6d,001,2022-04-28_20h14.02.634,classification_task,2021.2.3,Win32,60.06006006,5be0d2374579d00001ad8d6d,626b377229c10585ec392f8a,626b3bbacd2dc8cbf2e4efc2,,,,,,,,,,,,,,,,,,,,,,,l,1,1.169,"[""0.036"",""0.267"",""0.359"",""0.794""]","[1,1,0,1]",0,21,21,21,1,1,1,,,0,FALSE,,,,,,,,,,,,,,,,,,,,,,,,,,,,,,
,5be0d2374579d00001ad8d6d,001,2022-04-28_20h14.02.634,classification_task,2021.2.3,Win32,60.06006006,5be0d2374579d00001ad8d6d,626b377229c10585ec392f8a,626b3bbacd2dc8cbf2e4efc2,,,,,,,,,,,,,,,,,,,,,,,l,1,0.6149,"[""0.126"",""0.312"",""0.688"",""0.737""]","[1,1,0,1]",0,22,22,22,1,1,0,,,0,FALSE,,,,,,,,,,,,,,,,,,,,,,,,,,,,,,
,5be0d2374579d00001ad8d6d,001,2022-04-28_20h14.02.634,classification_task,2021.2.3,Win32,60.06006006,5be0d2374579d00001ad8d6d,626b377229c10585ec392f8a,626b3bbacd2dc8cbf2e4efc2,,,,,,,,,,,,,,,,,,,,,,,a,1,0.533,"[""0.197"",""0.675"",""0.829"",""0.935""]","[1,0,1,1]",0,23,23,23,1,0,0,,,0,FALSE,,,,,,,,,,,,,,,,,,,,,,,,,,,,,,
,5be0d2374579d00001ad8d6d,001,2022-04-28_20h14.02.634,classification_task,2021.2.3,Win32,60.06006006,5be0d2374579d00001ad8d6d,626b377229c10585ec392f8a,626b3bbacd2dc8cbf2e4efc2,,,,,,,,,,,,,,,,,,,,,,,l,1,1.1448,"[""0.036"",""0.359"",""0.584"",""0.794""]","[1,0,1,1]",0,24,24,24,1,1,1,,,0,FALSE,,,,,,,,,,,,,,,,,,,,,,,,,,,,,,
,5be0d2374579d00001ad8d6d,001,2022-04-28_20h14.02.634,classification_task,2021.2.3,Win32,60.06006006,5be0d2374579d00001ad8d6d,626b377229c10585ec392f8a,626b3bbacd2dc8cbf2e4efc2,,,,,,,,,,,,,,,,,,,,,,,a,1,1.0001,"[""0.161"",""0.467"",""0.898"",""0.385""]","[1,1,1,0]",0,25,25,25,1,0,1,,,0,FALSE,,,,,,,,,,,,,,,,,,,,,,,,,,,,,,
,5be0d2374579d00001ad8d6d,001,2022-04-28_20h14.02.634,classification_task,2021.2.3,Win32,60.06006006,5be0d2374579d00001ad8d6d,626b377229c10585ec392f8a,626b3bbacd2dc8cbf2e4efc2,,,,,,,,,,,,,,,,,,,,,,,a,1,1.2852,"[""0.688"",""0.467"",""0.898"",""0.975""]","[0,1,1,1]",0,26,26,26,1,0,1,,,0,FALSE,,,,,,,,,,,,,,,,,,,,,,,,,,,,,,
,5be0d2374579d00001ad8d6d,001,2022-04-28_20h14.02.634,classification_task,2021.2.3,Win32,60.06006006,5be0d2374579d00001ad8d6d,626b377229c10585ec392f8a,626b3bbacd2dc8cbf2e4efc2,,,,,,,,,,,,,,,,,,,,,,,a,1,1.0794,"[""0.352"",""0.524"",""0.829"",""0.935""]","[0,1,1,1]",0,27,27,27,1,0,0,,,0,FALSE,,,,,,,,,,,,,,,,,,,,,,,,,,,,,,
,5be0d2374579d00001ad8d6d,001,2022-04-28_20h14.02.634,classification_task,2021.2.3,Win32,60.06006006,5be0d2374579d00001ad8d6d,626b377229c10585ec392f8a,626b3bbacd2dc8cbf2e4efc2,,,,,,,,,,,,,,,,,,,,,,,l,1,0.4488,"[""0.126"",""0.663"",""0.618"",""0.737""]","[1,0,1,1]",0,28,28,28,1,1,0,,,0,FALSE,,,,,,,,,,,,,,,,,,,,,,,,,,,,,,
,5be0d2374579d00001ad8d6d,001,2022-04-28_20h14.02.634,classification_task,2021.2.3,Win32,60.06006006,5be0d2374579d00001ad8d6d,626b377229c10585ec392f8a,626b3bbacd2dc8cbf2e4efc2,,,,,,,,,,,,,,,,,,,,,,,l,1,1.1918,"[""0.354"",""0.267"",""0.584"",""0.794""]","[0,1,1,1]",0,29,29,29,1,1,1,,,0,FALSE,,,,,,,,,,,,,,,,,,,,,,,,,,,,,,
,5be0d2374579d00001ad8d6d,001,2022-04-28_20h14.02.634,classification_task,2021.2.3,Win32,60.06006006,5be0d2374579d00001ad8d6d,626b377229c10585ec392f8a,626b3bbacd2dc8cbf2e4efc2,,,,,,,,,,,,,,,,,,,,,,,l,1,1.066,"[""0.036"",""0.267"",""0.584"",""0.682""]","[1,1,1,0]",0,30,30,30,1,1,1,,,0,FALSE,,,,,,,,,,,,,,,,,,,,,,,,,,,,,,
,5be0d2374579d00001ad8d6d,001,2022-04-28_20h14.02.634,classification_task,2021.2.3,Win32,60.06006006,5be0d2374579d00001ad8d6d,626b377229c10585ec392f8a,626b3bbacd2dc8cbf2e4efc2,,,,,,,,,,,,,,,,,,,,,,,a,1,0.713,"[""0.197"",""0.524"",""0.829"",""0.429""]","[1,1,1,0]",0,31,31,31,1,0,0,,,0,FALSE,,,,,,,,,,,,,,,,,,,,,,,,,,,,,,
,5be0d2374579d00001ad8d6d,001,2022-04-28_20h14.02.634,classification_task,2021.2.3,Win32,60.06006006,5be0d2374579d00001ad8d6d,626b377229c10585ec392f8a,626b3bbacd2dc8cbf2e4efc2,,,,,,,,,,,,,,,,,,,,,,,l,1,0.6833,"[""0.126"",""0.312"",""0.359"",""0.737""]","[1,1,0,1]",0,32,32,32,1,1,0,,,0,FALSE,,,,,,,,,,,,,,,,,,,,,,,,,,,,,,
,5be0d2374579d00001ad8d6d,001,2022-04-28_20h14.02.634,classification_task,2021.2.3,Win32,60.06006006,5be0d2374579d00001ad8d6d,626b377229c10585ec392f8a,626b3bbacd2dc8cbf2e4efc2,,,,,,,,,,,,,,,,,,,,,,,a,0,2.0831,"[""0.675"",""0.267"",""0.584"",""0.794""]","[0,1,1,1]",0,33,33,33,1,1,1,,,0,FALSE,,,,,,,,,,,,,,,,,,,,,,,,,,,,,,
,5be0d2374579d00001ad8d6d,001,2022-04-28_20h14.02.634,classification_task,2021.2.3,Win32,60.06006006,5be0d2374579d00001ad8d6d,626b377229c10585ec392f8a,626b3bbacd2dc8cbf2e4efc2,,,,,,,,,,,,,,,,,,,,,,,l,0,1.512,"[""0.369"",""0.467"",""0.898"",""0.975""]","[0,1,1,1]",0,34,34,34,1,0,1,,,0,FALSE,,,,,,,,,,,,,,,,,,,,,,,,,,,,,,
,5be0d2374579d00001ad8d6d,001,2022-04-28_20h14.02.634,classification_task,2021.2.3,Win32,60.06006006,5be0d2374579d00001ad8d6d,626b377229c10585ec392f8a,626b3bbacd2dc8cbf2e4efc2,,,,,,,,,,,,,,,,,,,,,,,l,1,1.1771,"[""0.036"",""0.267"",""0.584"",""0.231""]","[1,1,1,0]",0,35,35,35,1,1,1,,,0,FALSE,,,,,,,,,,,,,,,,,,,,,,,,,,,,,,
,5be0d2374579d00001ad8d6d,001,2022-04-28_20h14.02.634,classification_task,2021.2.3,Win32,60.06006006,5be0d2374579d00001ad8d6d,626b377229c10585ec392f8a,626b3bbacd2dc8cbf2e4efc2,,,,,,,,,,,,,,,,,,,,,,,a,1,0.6581,"[""0.197"",""0.524"",""0.829"",""0.663""]","[1,1,1,0]",0,36,36,36,1,0,0,,,0,FALSE,,,,,,,,,,,,,,,,,,,,,,,,,,,,,,
,5be0d2374579d00001ad8d6d,001,2022-04-28_20h14.02.634,classification_task,2021.2.3,Win32,60.06006006,5be0d2374579d00001ad8d6d,626b377229c10585ec392f8a,626b3bbacd2dc8cbf2e4efc2,,,,,,,,,,,,,,,,,,,,,,,a,1,0.5112,"[""0.701"",""0.524"",""0.829"",""0.935""]","[0,1,1,1]",0,37,37,37,1,0,0,,,0,FALSE,,,,,,,,,,,,,,,,,,,,,,,,,,,,,,
,5be0d2374579d00001ad8d6d,001,2022-04-28_20h14.02.634,classification_task,2021.2.3,Win32,60.06006006,5be0d2374579d00001ad8d6d,626b377229c10585ec392f8a,626b3bbacd2dc8cbf2e4efc2,,,,,,,,,,,,,,,,,,,,,,,a,1,1.2856,"[""0.161"",""0.467"",""0.898"",""0.352""]","[1,1,1,0]",0,38,38,38,1,0,1,,,0,FALSE,,,,,,,,,,,,,,,,,,,,,,,,,,,,,,
,5be0d2374579d00001ad8d6d,001,2022-04-28_20h14.02.634,classification_task,2021.2.3,Win32,60.06006006,5be0d2374579d00001ad8d6d,626b377229c10585ec392f8a,626b3bbacd2dc8cbf2e4efc2,,,,,,,,,,,,,,,,,,,,,,,a,1,0.8424,"[""0.161"",""0.369"",""0.898"",""0.975""]","[1,0,1,1]",0,39,39,39,1,0,1,,,0,FALSE,,,,,,,,,,,,,,,,,,,,,,,,,,,,,,
,5be0d2374579d00001ad8d6d,001,2022-04-28_20h14.02.634,classification_task,2021.2.3,Win32,60.06006006,5be0d2374579d00001ad8d6d,626b377229c10585ec392f8a,626b3bbacd2dc8cbf2e4efc2,,,,,,,,,,,,,,,,,,,,,,,a,1,0.5531,"[""0.197"",""0.352"",""0.829"",""0.935""]","[1,0,1,1]",0,40,40,40,1,0,0,,,0,FALSE,,,,,,,,,,,,,,,,,,,,,,,,,,,,,,
,5be0d2374579d00001ad8d6d,001,2022-04-28_20h14.02.634,classification_task,2021.2.3,Win32,60.06006006,5be0d2374579d00001ad8d6d,626b377229c10585ec392f8a,626b3bbacd2dc8cbf2e4efc2,,,,,,,,,,,,,,,,,,,,,,,a,1,0.4154,"[""0.197"",""0.524"",""0.369"",""0.935""]","[1,1,0,1]",0,41,41,41,1,0,0,,,0,FALSE,,,,,,,,,,,,,,,,,,,,,,,,,,,,,,
,5be0d2374579d00001ad8d6d,001,2022-04-28_20h14.02.634,classification_task,2021.2.3,Win32,60.06006006,5be0d2374579d00001ad8d6d,626b377229c10585ec392f8a,626b3bbacd2dc8cbf2e4efc2,,,,,,,,,,,,,,,,,,,,,,,a,1,0.9848,"[""0.161"",""0.467"",""0.231"",""0.975""]","[1,1,0,1]",0,42,42,42,1,0,1,,,0,FALSE,,,,,,,,,,,,,,,,,,,,,,,,,,,,,,
,5be0d2374579d00001ad8d6d,001,2022-04-28_20h14.02.634,classification_task,2021.2.3,Win32,60.06006006,5be0d2374579d00001ad8d6d,626b377229c10585ec392f8a,626b3bbacd2dc8cbf2e4efc2,,,,,,,,,,,,,,,,,,,,,,,l,1,0.5616,"[""0.126"",""0.682"",""0.618"",""0.737""]","[1,0,1,1]",0,43,43,43,1,1,0,,,0,FALSE,,,,,,,,,,,,,,,,,,,,,,,,,,,,,,
,5be0d2374579d00001ad8d6d,001,2022-04-28_20h14.02.634,classification_task,2021.2.3,Win32,60.06006006,5be0d2374579d00001ad8d6d,626b377229c10585ec392f8a,626b3bbacd2dc8cbf2e4efc2,,,,,,,,,,,,,,,,,,,,,,,l,1,0.5149,"[""0.126"",""0.312"",""0.618"",""0.682""]","[1,1,1,0]",0,44,44,44,1,1,0,,,0,FALSE,,,,,,,,,,,,,,,,,,,,,,,,,,,,,,
,5be0d2374579d00001ad8d6d,001,2022-04-28_20h14.02.634,classification_task,2021.2.3,Win32,60.06006006,5be0d2374579d00001ad8d6d,626b377229c10585ec392f8a,626b3bbacd2dc8cbf2e4efc2,,,,,,,,,,,,,,,,,,,,,,,l,1,0.4972,"[""0.359"",""0.312"",""0.618"",""0.737""]","[0,1,1,1]",0,45,45,45,1,1,0,,,0,FALSE,,,,,,,,,,,,,,,,,,,,,,,,,,,,,,
,5be0d2374579d00001ad8d6d,001,2022-04-28_20h14.02.634,classification_task,2021.2.3,Win32,60.06006006,5be0d2374579d00001ad8d6d,626b377229c10585ec392f8a,626b3bbacd2dc8cbf2e4efc2,,,,,,,,,,,,,,,,,,,,,,,l,1,1.3629,"[""0.036"",""0.267"",""0.359"",""0.794""]","[1,1,0,1]",0,46,46,46,1,1,1,,,0,FALSE,,,,,,,,,,,,,,,,,,,,,,,,,,,,,,
,5be0d2374579d00001ad8d6d,001,2022-04-28_20h14.02.634,classification_task,2021.2.3,Win32,60.06006006,5be0d2374579d00001ad8d6d,626b377229c10585ec392f8a,626b3bbacd2dc8cbf2e4efc2,,,,,,,,,,,,,,,,,,,,,,,l,1,0.771,"[""0.036"",""0.354"",""0.584"",""0.794""]","[1,0,1,1]",0,47,47,47,1,1,1,,,0,FALSE,,,,,,,,,,,,,,,,,,,,,,,,,,,,,,
,5be0d2374579d00001ad8d6d,001,2022-04-28_20h14.02.634,classification_task,2021.2.3,Win32,60.06006006,5be0d2374579d00001ad8d6d,626b377229c10585ec392f8a,626b3bbacd2dc8cbf2e4efc2,,,,,,,,,,,,,,,,,,,,,,,l,1,0.5615,"[""0.126"",""0.312"",""0.618"",""0.429""]","[1,1,1,0]",0,48,48,48,1,1,0,,,0,FALSE,,,,,,,,,,,,,,,,,,,,,,,,,,,,,,
,5be0d2374579d00001ad8d6d,001,2022-04-28_20h14.02.634,classification_task,2021.2.3,Win32,60.06006006,5be0d2374579d00001ad8d6d,626b377229c10585ec392f8a,626b3bbacd2dc8cbf2e4efc2,,,,,,,,,,,,,,,,,,,,,,,a,0,1.9185,"[""0.369"",""0.267"",""0.584"",""0.794""]","[0,1,1,1]",0,49,49,49,1,1,1,,,0,FALSE,,,,,,,,,,,,,,,,,,,,,,,,,,,,,,
,5be0d2374579d00001ad8d6d,001,2022-04-28_20h14.02.634,classification_task,2021.2.3,Win32,60.06006006,5be0d2374579d00001ad8d6d,626b377229c10585ec392f8a,626b3bbacd2dc8cbf2e4efc2,,,,,,,,,,,,,,,,,,,,,,,l,1,0.8103,"[""0.675"",""0.312"",""0.618"",""0.737""]","[0,1,1,1]",0,50,50,50,1,1,0,,,0,FALSE,,,,,,,,,,,,,,,,,,,,,,,,,,,,,,
,5be0d2374579d00001ad8d6d,001,2022-04-28_20h14.02.634,classification_task,2021.2.3,Win32,60.06006006,5be0d2374579d00001ad8d6d,626b377229c10585ec392f8a,626b3bbacd2dc8cbf2e4efc2,,,,,,,,,,,,,,,,,,,,,,,l,1,1.0139,"[""0.036"",""0.267"",""0.682"",""0.794""]","[1,1,0,1]",0,51,51,51,1,1,1,,,0,FALSE,,,,,,,,,,,,,,,,,,,,,,,,,,,,,,
,5be0d2374579d00001ad8d6d,001,2022-04-28_20h14.02.634,classification_task,2021.2.3,Win32,60.06006006,5be0d2374579d00001ad8d6d,626b377229c10585ec392f8a,626b3bbacd2dc8cbf2e4efc2,,,,,,,,,,,,,,,,,,,,,,,l,1,0.9422,"[""0.126"",""0.312"",""0.369"",""0.737""]","[1,1,0,1]",0,52,52,52,1,1,0,,,0,FALSE,,,,,,,,,,,,,,,,,,,,,,,,,,,,,,
,5be0d2374579d00001ad8d6d,001,2022-04-28_20h14.02.634,classification_task,2021.2.3,Win32,60.06006006,5be0d2374579d00001ad8d6d,626b377229c10585ec392f8a,626b3bbacd2dc8cbf2e4efc2,,,,,,,,,,,,,,,,,,,,,,,a,1,1.9717,"[""0.081"",""0.467"",""0.898"",""0.975""]","[0,1,1,1]",0,53,53,53,1,0,1,,,0,FALSE,,,,,,,,,,,,,,,,,,,,,,,,,,,,,,
,5be0d2374579d00001ad8d6d,001,2022-04-28_20h14.02.634,classification_task,2021.2.3,Win32,60.06006006,5be0d2374579d00001ad8d6d,626b377229c10585ec392f8a,626b3bbacd2dc8cbf2e4efc2,,,,,,,,,,,,,,,,,,,,,,,a,1,1.2623,"[""0.385"",""0.524"",""0.829"",""0.935""]","[0,1,1,1]",0,54,54,54,1,0,0,,,0,FALSE,,,,,,,,,,,,,,,,,,,,,,,,,,,,,,
,5be0d2374579d00001ad8d6d,001,2022-04-28_20h14.02.634,classification_task,2021.2.3,Win32,60.06006006,5be0d2374579d00001ad8d6d,626b377229c10585ec392f8a,626b3bbacd2dc8cbf2e4efc2,,,,,,,,,,,,,,,,,,,,,,,l,1,1.246,"[""0.036"",""0.267"",""0.584"",""0.701""]","[1,1,1,0]",0,55,55,55,1,1,1,,,0,FALSE,,,,,,,,,,,,,,,,,,,,,,,,,,,,,,
,5be0d2374579d00001ad8d6d,001,2022-04-28_20h14.02.634,classification_task,2021.2.3,Win32,60.06006006,5be0d2374579d00001ad8d6d,626b377229c10585ec392f8a,626b3bbacd2dc8cbf2e4efc2,,,,,,,,,,,,,,,,,,,,,,,a,1,1.4682,"[""0.161"",""0.467"",""0.385"",""0.975""]","[1,1,0,1]",0,56,56,56,1,0,1,,,0,FALSE,,,,,,,,,,,,,,,,,,,,,,,,,,,,,,
,5be0d2374579d00001ad8d6d,001,2022-04-28_20h14.02.634,classification_task,2021.2.3,Win32,60.06006006,5be0d2374579d00001ad8d6d,626b377229c10585ec392f8a,626b3bbacd2dc8cbf2e4efc2,,,,,,,,,,,,,,,,,,,,,,,a,1,0.7883,"[""0.161"",""0.467"",""0.898"",""0.701""]","[1,1,1,0]",0,57,57,57,1,0,1,,,0,FALSE,,,,,,,,,,,,,,,,,,,,,,,,,,,,,,
,5be0d2374579d00001ad8d6d,001,2022-04-28_20h14.02.634,classification_task,2021.2.3,Win32,60.06006006,5be0d2374579d00001ad8d6d,626b377229c10585ec392f8a,626b3bbacd2dc8cbf2e4efc2,,,,,,,,,,,,,,,,,,,,,,,l,1,1.1093,"[""0.036"",""0.369"",""0.584"",""0.794""]","[1,0,1,1]",0,58,58,58,1,1,1,,,0,FALSE,,,,,,,,,,,,,,,,,,,,,,,,,,,,,,
,5be0d2374579d00001ad8d6d,001,2022-04-28_20h14.02.634,classification_task,2021.2.3,Win32,60.06006006,5be0d2374579d00001ad8d6d,626b377229c10585ec392f8a,626b3bbacd2dc8cbf2e4efc2,,,,,,,,,,,,,,,,,,,,,,,l,1,0.7204,"[""0.126"",""0.352"",""0.618"",""0.737""]","[1,0,1,1]",0,59,59,59,1,1,0,,,0,FALSE,,,,,,,,,,,,,,,,,,,,,,,,,,,,,,
,5be0d2374579d00001ad8d6d,001,2022-04-28_20h14.02.634,classification_task,2021.2.3,Win32,60.06006006,5be0d2374579d00001ad8d6d,626b377229c10585ec392f8a,626b3bbacd2dc8cbf2e4efc2,,,,,,,,,,,,,,,,,,,,,,,a,1,0.5779,"[""0.197"",""0.524"",""0.829"",""0.369""]","[1,1,1,0]",0,60,60,60,1,0,0,,,0,FALSE,,,,,,,,,,,,,,,,,,,,,,,,,,,,,,
,5be0d2374579d00001ad8d6d,001,2022-04-28_20h14.02.634,classification_task,2021.2.3,Win32,60.06006006,5be0d2374579d00001ad8d6d,626b377229c10585ec392f8a,626b3bbacd2dc8cbf2e4efc2,,,,,,,,,,,,,,,,,,,,,,,a,1,1.7188,"[""0.161"",""0.688"",""0.898"",""0.975""]","[1,0,1,1]",0,61,61,61,1,0,1,,,0,FALSE,,,,,,,,,,,,,,,,,,,,,,,,,,,,,,
,5be0d2374579d00001ad8d6d,001,2022-04-28_20h14.02.634,classification_task,2021.2.3,Win32,60.06006006,5be0d2374579d00001ad8d6d,626b377229c10585ec392f8a,626b3bbacd2dc8cbf2e4efc2,,,,,,,,,,,,,,,,,,,,,,,l,0,0.601,"[""0.197"",""0.354"",""0.829"",""0.935""]","[1,0,1,1]",0,62,62,62,1,0,0,,,0,FALSE,,,,,,,,,,,,,,,,,,,,,,,,,,,,,,
,5be0d2374579d00001ad8d6d,001,2022-04-28_20h14.02.634,classification_task,2021.2.3,Win32,60.06006006,5be0d2374579d00001ad8d6d,626b377229c10585ec392f8a,626b3bbacd2dc8cbf2e4efc2,,,,,,,,,,,,,,,,,,,,,,,a,1,0.4615,"[""0.197"",""0.524"",""0.385"",""0.935""]","[1,1,0,1]",0,63,63,63,1,0,0,,,0,FALSE,,,,,,,,,,,,,,,,,,,,,,,,,,,,,,
,5be0d2374579d00001ad8d6d,001,2022-04-28_20h14.02.634,classification_task,2021.2.3,Win32,60.06006006,5be0d2374579d00001ad8d6d,626b377229c10585ec392f8a,626b3bbacd2dc8cbf2e4efc2,,,,,,,,,,,,,,,,,,,,,,,,,,,,,,,,,,,,,,,0, ,,0,2.003141534,146.9024,0,1,1,1,1,2,2,,,,,,,,,,,,,,,,,
,5be0d2374579d00001ad8d6d,001,2022-04-28_20h14.02.634,classification_task,2021.2.3,Win32,60.06006006,5be0d2374579d00001ad8d6d,626b377229c10585ec392f8a,626b3bbacd2dc8cbf2e4efc2,,,,,,,,,,,,,,,,,,,,,,,,,,,,,,,,,,,,,,,1,  ,,0,1.830908289,149.552,0,1,1,1,1,2,2,,,,,,,,,,,,,,,,,
,5be0d2374579d00001ad8d6d,001,2022-04-28_20h14.02.634,classification_task,2021.2.3,Win32,60.06006006,5be0d2374579d00001ad8d6d,626b377229c10585ec392f8a,626b3bbacd2dc8cbf2e4efc2,,,,,,,,,,,,,,,,,,,,,,,,,,,,,,,,,,,,,,,2,  ,,0,2.17537478,150.4354,0,1,1,1,1,2,2,,,,,,,,,,,,,,,,,
,5be0d2374579d00001ad8d6d,001,2022-04-28_20h14.02.634,classification_task,2021.2.3,Win32,60.06006006,5be0d2374579d00001ad8d6d,626b377229c10585ec392f8a,626b3bbacd2dc8cbf2e4efc2,,,,,,,,,,,,,,,,,,,,,,,,,,,,,,,,,,,,,,,,,,,,,0,1,1,1,1,,2,,,,,,,,,,,,,,,,,
,5be0d2374579d00001ad8d6d,001,2022-04-28_20h14.02.634,classification_task,2021.2.3,Win32,60.06006006,5be0d2374579d00001ad8d6d,626b377229c10585ec392f8a,626b3bbacd2dc8cbf2e4efc2,,,,,,,,,,,,,,,,,,,,,space,5.2912,l,0,2.7373,"[""0.429"",""0.467"",""0.898"",""0.975""]","[0,1,1,1]",0,0,0,0,1,0,1,,,0,FALSE,,,,,,,,,,,,,,,,,,,,,,,,,,,,,,
,5be0d2374579d00001ad8d6d,001,2022-04-28_20h14.02.634,classification_task,2021.2.3,Win32,60.06006006,5be0d2374579d00001ad8d6d,626b377229c10585ec392f8a,626b3bbacd2dc8cbf2e4efc2,,,,,,,,,,,,,,,,,,,,,,,a,1,0.9771,"[""0.161"",""0.467"",""0.898"",""0.663""]","[1,1,1,0]",0,1,1,1,1,0,1,,,0,FALSE,,,,,,,,,,,,,,,,,,,,,,,,,,,,,,
,5be0d2374579d00001ad8d6d,001,2022-04-28_20h14.02.634,classification_task,2021.2.3,Win32,60.06006006,5be0d2374579d00001ad8d6d,626b377229c10585ec392f8a,626b3bbacd2dc8cbf2e4efc2,,,,,,,,,,,,,,,,,,,,,,,l,1,1.9647,"[""0.126"",""0.312"",""0.618"",""0.652""]","[1,1,1,0]",0,2,2,2,1,1,0,,,0,FALSE,,,,,,,,,,,,,,,,,,,,,,,,,,,,,,
,5be0d2374579d00001ad8d6d,001,2022-04-28_20h14.02.634,classification_task,2021.2.3,Win32,60.06006006,5be0d2374579d00001ad8d6d,626b377229c10585ec392f8a,626b3bbacd2dc8cbf2e4efc2,,,,,,,,,,,,,,,,,,,,,,,l,1,1.5615,"[""0.036"",""0.231"",""0.584"",""0.794""]","[1,0,1,1]",0,3,3,3,1,1,1,,,0,FALSE,,,,,,,,,,,,,,,,,,,,,,,,,,,,,,
,5be0d2374579d00001ad8d6d,001,2022-04-28_20h14.02.634,classification_task,2021.2.3,Win32,60.06006006,5be0d2374579d00001ad8d6d,626b377229c10585ec392f8a,626b3bbacd2dc8cbf2e4efc2,,,,,,,,,,,,,,,,,,,,,,,a,1,1.0018,"[""0.197"",""0.524"",""0.359"",""0.935""]","[1,1,0,1]",0,4,4,4,1,0,0,,,0,FALSE,,,,,,,,,,,,,,,,,,,,,,,,,,,,,,
,5be0d2374579d00001ad8d6d,001,2022-04-28_20h14.02.634,classification_task,2021.2.3,Win32,60.06006006,5be0d2374579d00001ad8d6d,626b377229c10585ec392f8a,626b3bbacd2dc8cbf2e4efc2,,,,,,,,,,,,,,,,,,,,,,,a,1,0.9003,"[""0.161"",""0.467"",""0.354"",""0.975""]","[1,1,0,1]",0,5,5,5,1,0,1,,,0,FALSE,,,,,,,,,,,,,,,,,,,,,,,,,,,,,,
,5be0d2374579d00001ad8d6d,001,2022-04-28_20h14.02.634,classification_task,2021.2.3,Win32,60.06006006,5be0d2374579d00001ad8d6d,626b377229c10585ec392f8a,626b3bbacd2dc8cbf2e4efc2,,,,,,,,,,,,,,,,,,,,,,,l,1,0.967,"[""0.126"",""0.312"",""0.359"",""0.737""]","[1,1,0,1]",0,6,6,6,1,1,0,,,0,FALSE,,,,,,,,,,,,,,,,,,,,,,,,,,,,,,
,5be0d2374579d00001ad8d6d,001,2022-04-28_20h14.02.634,classification_task,2021.2.3,Win32,60.06006006,5be0d2374579d00001ad8d6d,626b377229c10585ec392f8a,626b3bbacd2dc8cbf2e4efc2,,,,,,,,,,,,,,,,,,,,,,,a,1,0.8836,"[""0.197"",""0.688"",""0.829"",""0.935""]","[1,0,1,1]",0,7,7,7,1,0,0,,,0,FALSE,,,,,,,,,,,,,,,,,,,,,,,,,,,,,,
,5be0d2374579d00001ad8d6d,001,2022-04-28_20h14.02.634,classification_task,2021.2.3,Win32,60.06006006,5be0d2374579d00001ad8d6d,626b377229c10585ec392f8a,626b3bbacd2dc8cbf2e4efc2,,,,,,,,,,,,,,,,,,,,,,,a,1,1.8953,"[""0.161"",""0.663"",""0.898"",""0.975""]","[1,0,1,1]",0,8,8,8,1,0,1,,,0,FALSE,,,,,,,,,,,,,,,,,,,,,,,,,,,,,,
,5be0d2374579d00001ad8d6d,001,2022-04-28_20h14.02.634,classification_task,2021.2.3,Win32,60.06006006,5be0d2374579d00001ad8d6d,626b377229c10585ec392f8a,626b3bbacd2dc8cbf2e4efc2,,,,,,,,,,,,,,,,,,,,,,,a,1,1.2836,"[""0.197"",""0.524"",""0.829"",""0.359""]","[1,1,1,0]",0,9,9,9,1,0,0,,,0,FALSE,,,,,,,,,,,,,,,,,,,,,,,,,,,,,,
,5be0d2374579d00001ad8d6d,001,2022-04-28_20h14.02.634,classification_task,2021.2.3,Win32,60.06006006,5be0d2374579d00001ad8d6d,626b377229c10585ec392f8a,626b3bbacd2dc8cbf2e4efc2,,,,,,,,,,,,,,,,,,,,,,,l,0,1.9999,"[""0.682"",""0.524"",""0.829"",""0.935""]","[0,1,1,1]",0,10,10,10,1,0,0,,,0,FALSE,,,,,,,,,,,,,,,,,,,,,,,,,,,,,,
,5be0d2374579d00001ad8d6d,001,2022-04-28_20h14.02.634,classification_task,2021.2.3,Win32,60.06006006,5be0d2374579d00001ad8d6d,626b377229c10585ec392f8a,626b3bbacd2dc8cbf2e4efc2,,,,,,,,,,,,,,,,,,,,,,,l,1,1.9609,"[""0.036"",""0.267"",""0.584"",""0.652""]","[1,1,1,0]",0,11,11,11,1,1,1,,,0,FALSE,,,,,,,,,,,,,,,,,,,,,,,,,,,,,,
,5be0d2374579d00001ad8d6d,001,2022-04-28_20h14.02.634,classification_task,2021.2.3,Win32,60.06006006,5be0d2374579d00001ad8d6d,626b377229c10585ec392f8a,626b3bbacd2dc8cbf2e4efc2,,,,,,,,,,,,,,,,,,,,,,,a,0,2.4009,"[""0.126"",""0.688"",""0.618"",""0.737""]","[1,0,1,1]",0,12,12,12,1,1,0,,,0,FALSE,,,,,,,,,,,,,,,,,,,,,,,,,,,,,,
,5be0d2374579d00001ad8d6d,001,2022-04-28_20h14.02.634,classification_task,2021.2.3,Win32,60.06006006,5be0d2374579d00001ad8d6d,626b377229c10585ec392f8a,626b3bbacd2dc8cbf2e4efc2,,,,,,,,,,,,,,,,,,,,,,,l,1,1.2914,"[""0.036"",""0.267"",""0.359"",""0.794""]","[1,1,0,1]",0,13,13,13,1,1,1,,,0,FALSE,,,,,,,,,,,,,,,,,,,,,,,,,,,,,,
,5be0d2374579d00001ad8d6d,001,2022-04-28_20h14.02.634,classification_task,2021.2.3,Win32,60.06006006,5be0d2374579d00001ad8d6d,626b377229c10585ec392f8a,626b3bbacd2dc8cbf2e4efc2,,,,,,,,,,,,,,,,,,,,,,,l,1,2.1876,"[""0.352"",""0.267"",""0.584"",""0.794""]","[0,1,1,1]",0,14,14,14,1,1,1,,,0,FALSE,,,,,,,,,,,,,,,,,,,,,,,,,,,,,,
,5be0d2374579d00001ad8d6d,001,2022-04-28_20h14.02.634,classification_task,2021.2.3,Win32,60.06006006,5be0d2374579d00001ad8d6d,626b377229c10585ec392f8a,626b3bbacd2dc8cbf2e4efc2,,,,,,,,,,,,,,,,,,,,,,,l,1,2.5068,"[""0.675"",""0.312"",""0.618"",""0.737""]","[0,1,1,1]",0,15,15,15,1,1,0,,,0,FALSE,,,,,,,,,,,,,,,,,,,,,,,,,,,,,,
,5be0d2374579d00001ad8d6d,001,2022-04-28_20h14.02.634,classification_task,2021.2.3,Win32,60.06006006,5be0d2374579d00001ad8d6d,626b377229c10585ec392f8a,626b3bbacd2dc8cbf2e4efc2,,,,,,,,,,,,,,,,,,,,,,,a,1,1.1681,"[""0.197"",""0.359"",""0.829"",""0.935""]","[1,0,1,1]",0,16,16,16,1,0,0,,,0,FALSE,,,,,,,,,,,,,,,,,,,,,,,,,,,,,,
,5be0d2374579d00001ad8d6d,001,2022-04-28_20h14.02.634,classification_task,2021.2.3,Win32,60.06006006,5be0d2374579d00001ad8d6d,626b377229c10585ec392f8a,626b3bbacd2dc8cbf2e4efc2,,,,,,,,,,,,,,,,,,,,,,,l,1,1.55,"[""0.036"",""0.267"",""0.584"",""0.385""]","[1,1,1,0]",0,17,17,17,1,1,1,,,0,FALSE,,,,,,,,,,,,,,,,,,,,,,,,,,,,,,
,5be0d2374579d00001ad8d6d,001,2022-04-28_20h14.02.634,classification_task,2021.2.3,Win32,60.06006006,5be0d2374579d00001ad8d6d,626b377229c10585ec392f8a,626b3bbacd2dc8cbf2e4efc2,,,,,,,,,,,,,,,,,,,,,,,l,1,1.4831,"[""0.036"",""0.429"",""0.584"",""0.794""]","[1,0,1,1]",0,18,18,18,1,1,1,,,0,FALSE,,,,,,,,,,,,,,,,,,,,,,,,,,,,,,
,5be0d2374579d00001ad8d6d,001,2022-04-28_20h14.02.634,classification_task,2021.2.3,Win32,60.06006006,5be0d2374579d00001ad8d6d,626b377229c10585ec392f8a,626b3bbacd2dc8cbf2e4efc2,,,,,,,,,,,,,,,,,,,,,,,a,1,1.3828,"[""0.161"",""0.467"",""0.898"",""0.429""]","[1,1,1,0]",0,19,19,19,1,0,1,,,0,FALSE,,,,,,,,,,,,,,,,,,,,,,,,,,,,,,
,5be0d2374579d00001ad8d6d,001,2022-04-28_20h14.02.634,classification_task,2021.2.3,Win32,60.06006006,5be0d2374579d00001ad8d6d,626b377229c10585ec392f8a,626b3bbacd2dc8cbf2e4efc2,,,,,,,,,,,,,,,,,,,,,,,l,1,1.1411,"[""0.126"",""0.312"",""0.618"",""0.352""]","[1,1,1,0]",0,20,20,20,1,1,0,,,0,FALSE,,,,,,,,,,,,,,,,,,,,,,,,,,,,,,
,5be0d2374579d00001ad8d6d,001,2022-04-28_20h14.02.634,classification_task,2021.2.3,Win32,60.06006006,5be0d2374579d00001ad8d6d,626b377229c10585ec392f8a,626b3bbacd2dc8cbf2e4efc2,,,,,,,,,,,,,,,,,,,,,,,a,1,0.9119,"[""0.161"",""0.467"",""0.352"",""0.975""]","[1,1,0,1]",0,21,21,21,1,0,1,,,0,FALSE,,,,,,,,,,,,,,,,,,,,,,,,,,,,,,
,5be0d2374579d00001ad8d6d,001,2022-04-28_20h14.02.634,classification_task,2021.2.3,Win32,60.06006006,5be0d2374579d00001ad8d6d,626b377229c10585ec392f8a,626b3bbacd2dc8cbf2e4efc2,,,,,,,,,,,,,,,,,,,,,,,l,0,1.345,"[""0.197"",""0.524"",""0.829"",""0.682""]","[1,1,1,0]",0,22,22,22,1,0,0,,,0,FALSE,,,,,,,,,,,,,,,,,,,,,,,,,,,,,,
,5be0d2374579d00001ad8d6d,001,2022-04-28_20h14.02.634,classification_task,2021.2.3,Win32,60.06006006,5be0d2374579d00001ad8d6d,626b377229c10585ec392f8a,626b3bbacd2dc8cbf2e4efc2,,,,,,,,,,,,,,,,,,,,,,,l,1,1.1317,"[""0.359"",""0.267"",""0.584"",""0.794""]","[0,1,1,1]",0,23,23,23,1,1,1,,,0,FALSE,,,,,,,,,,,,,,,,,,,,,,,,,,,,,,
,5be0d2374579d00001ad8d6d,001,2022-04-28_20h14.02.634,classification_task,2021.2.3,Win32,60.06006006,5be0d2374579d00001ad8d6d,626b377229c10585ec392f8a,626b3bbacd2dc8cbf2e4efc2,,,,,,,,,,,,,,,,,,,,,,,l,1,2.05,"[""0.126"",""0.081"",""0.618"",""0.737""]","[1,0,1,1]",0,24,24,24,1,1,0,,,0,FALSE,,,,,,,,,,,,,,,,,,,,,,,,,,,,,,
,5be0d2374579d00001ad8d6d,001,2022-04-28_20h14.02.634,classification_task,2021.2.3,Win32,60.06006006,5be0d2374579d00001ad8d6d,626b377229c10585ec392f8a,626b3bbacd2dc8cbf2e4efc2,,,,,,,,,,,,,,,,,,,,,,,a,1,0.8014,"[""0.161"",""0.701"",""0.898"",""0.975""]","[1,0,1,1]",0,25,25,25,1,0,1,,,0,FALSE,,,,,,,,,,,,,,,,,,,,,,,,,,,,,,
,5be0d2374579d00001ad8d6d,001,2022-04-28_20h14.02.634,classification_task,2021.2.3,Win32,60.06006006,5be0d2374579d00001ad8d6d,626b377229c10585ec392f8a,626b3bbacd2dc8cbf2e4efc2,,,,,,,,,,,,,,,,,,,,,,,l,1,1.6669,"[""0.036"",""0.267"",""0.663"",""0.794""]","[1,1,0,1]",0,26,26,26,1,1,1,,,0,FALSE,,,,,,,,,,,,,,,,,,,,,,,,,,,,,,
,5be0d2374579d00001ad8d6d,001,2022-04-28_20h14.02.634,classification_task,2021.2.3,Win32,60.06006006,5be0d2374579d00001ad8d6d,626b377229c10585ec392f8a,626b3bbacd2dc8cbf2e4efc2,,,,,,,,,,,,,,,,,,,,,,,a,1,1.268,"[""0.197"",""0.524"",""0.359"",""0.935""]","[1,1,0,1]",0,27,27,27,1,0,0,,,0,FALSE,,,,,,,,,,,,,,,,,,,,,,,,,,,,,,
,5be0d2374579d00001ad8d6d,001,2022-04-28_20h14.02.634,classification_task,2021.2.3,Win32,60.06006006,5be0d2374579d00001ad8d6d,626b377229c10585ec392f8a,626b3bbacd2dc8cbf2e4efc2,,,,,,,,,,,,,,,,,,,,,,,a,1,1.9336,"[""0.385"",""0.467"",""0.898"",""0.975""]","[0,1,1,1]",0,28,28,28,1,0,1,,,0,FALSE,,,,,,,,,,,,,,,,,,,,,,,,,,,,,,
,5be0d2374579d00001ad8d6d,001,2022-04-28_20h14.02.634,classification_task,2021.2.3,Win32,60.06006006,5be0d2374579d00001ad8d6d,626b377229c10585ec392f8a,626b3bbacd2dc8cbf2e4efc2,,,,,,,,,,,,,,,,,,,,,,,l,0,1.3463,"[""0.663"",""0.524"",""0.829"",""0.935""]","[0,1,1,1]",0,29,29,29,1,0,0,,,0,FALSE,,,,,,,,,,,,,,,,,,,,,,,,,,,,,,
,5be0d2374579d00001ad8d6d,001,2022-04-28_20h14.02.634,classification_task,2021.2.3,Win32,60.06006006,5be0d2374579d00001ad8d6d,626b377229c10585ec392f8a,626b3bbacd2dc8cbf2e4efc2,,,,,,,,,,,,,,,,,,,,,,,l,1,2.0002,"[""0.652"",""0.312"",""0.618"",""0.737""]","[0,1,1,1]",0,30,30,30,1,1,0,,,0,FALSE,,,,,,,,,,,,,,,,,,,,,,,,,,,,,,
,5be0d2374579d00001ad8d6d,001,2022-04-28_20h14.02.634,classification_task,2021.2.3,Win32,60.06006006,5be0d2374579d00001ad8d6d,626b377229c10585ec392f8a,626b3bbacd2dc8cbf2e4efc2,,,,,,,,,,,,,,,,,,,,,,,l,1,1.3333,"[""0.126"",""0.312"",""0.354"",""0.737""]","[1,1,0,1]",0,31,31,31,1,1,0,,,0,FALSE,,,,,,,,,,,,,,,,,,,,,,,,,,,,,,
,5be0d2374579d00001ad8d6d,001,2022-04-28_20h14.02.634,classification_task,2021.2.3,Win32,60.06006006,5be0d2374579d00001ad8d6d,626b377229c10585ec392f8a,626b3bbacd2dc8cbf2e4efc2,,,,,,,,,,,,,,,,,,,,,,,l,1,0.8233,"[""0.126"",""0.701"",""0.618"",""0.737""]","[1,0,1,1]",0,32,32,32,1,1,0,,,0,FALSE,,,,,,,,,,,,,,,,,,,,,,,,,,,,,,
,5be0d2374579d00001ad8d6d,001,2022-04-28_20h14.02.634,classification_task,2021.2.3,Win32,60.06006006,5be0d2374579d00001ad8d6d,626b377229c10585ec392f8a,626b3bbacd2dc8cbf2e4efc2,,,,,,,,,,,,,,,,,,,,,,,l,1,1.9335,"[""0.036"",""0.359"",""0.584"",""0.794""]","[1,0,1,1]",0,33,33,33,1,1,1,,,0,FALSE,,,,,,,,,,,,,,,,,,,,,,,,,,,,,,
,5be0d2374579d00001ad8d6d,001,2022-04-28_20h14.02.634,classification_task,2021.2.3,Win32,60.06006006,5be0d2374579d00001ad8d6d,626b377229c10585ec392f8a,626b3bbacd2dc8cbf2e4efc2,,,,,,,,,,,,,,,,,,,,,,,l,1,3.0662,"[""0.126"",""0.312"",""0.618"",""0.429""]","[1,1,1,0]",0,34,34,34,1,1,0,,,0,FALSE,,,,,,,,,,,,,,,,,,,,,,,,,,,,,,
,5be0d2374579d00001ad8d6d,001,2022-04-28_20h14.02.634,classification_task,2021.2.3,Win32,60.06006006,5be0d2374579d00001ad8d6d,626b377229c10585ec392f8a,626b3bbacd2dc8cbf2e4efc2,,,,,,,,,,,,,,,,,,,,,,,a,1,2.7008,"[""0.161"",""0.467"",""0.898"",""0.369""]","[1,1,1,0]",0,35,35,35,1,0,1,,,0,FALSE,,,,,,,,,,,,,,,,,,,,,,,,,,,,,,
,5be0d2374579d00001ad8d6d,001,2022-04-28_20h14.02.634,classification_task,2021.2.3,Win32,60.06006006,5be0d2374579d00001ad8d6d,626b377229c10585ec392f8a,626b3bbacd2dc8cbf2e4efc2,,,,,,,,,,,,,,,,,,,,,,,l,1,1.9912,"[""0.081"",""0.267"",""0.584"",""0.794""]","[0,1,1,1]",0,36,36,36,1,1,1,,,0,FALSE,,,,,,,,,,,,,,,,,,,,,,,,,,,,,,
,5be0d2374579d00001ad8d6d,001,2022-04-28_20h14.02.634,classification_task,2021.2.3,Win32,60.06006006,5be0d2374579d00001ad8d6d,626b377229c10585ec392f8a,626b3bbacd2dc8cbf2e4efc2,,,,,,,,,,,,,,,,,,,,,,,a,1,0.9252,"[""0.197"",""0.524"",""0.829"",""0.652""]","[1,1,1,0]",0,37,37,37,1,0,0,,,0,FALSE,,,,,,,,,,,,,,,,,,,,,,,,,,,,,,
,5be0d2374579d00001ad8d6d,001,2022-04-28_20h14.02.634,classification_task,2021.2.3,Win32,60.06006006,5be0d2374579d00001ad8d6d,626b377229c10585ec392f8a,626b3bbacd2dc8cbf2e4efc2,,,,,,,,,,,,,,,,,,,,,,,l,0,1.2874,"[""0.231"",""0.524"",""0.829"",""0.935""]","[0,1,1,1]",0,38,38,38,1,0,0,,,0,FALSE,,,,,,,,,,,,,,,,,,,,,,,,,,,,,,
,5be0d2374579d00001ad8d6d,001,2022-04-28_20h14.02.634,classification_task,2021.2.3,Win32,60.06006006,5be0d2374579d00001ad8d6d,626b377229c10585ec392f8a,626b3bbacd2dc8cbf2e4efc2,,,,,,,,,,,,,,,,,,,,,,,a,1,0.7514,"[""0.197"",""0.524"",""0.081"",""0.935""]","[1,1,0,1]",0,39,39,39,1,0,0,,,0,FALSE,,,,,,,,,,,,,,,,,,,,,,,,,,,,,,
,5be0d2374579d00001ad8d6d,001,2022-04-28_20h14.02.634,classification_task,2021.2.3,Win32,60.06006006,5be0d2374579d00001ad8d6d,626b377229c10585ec392f8a,626b3bbacd2dc8cbf2e4efc2,,,,,,,,,,,,,,,,,,,,,,,a,1,0.7476,"[""0.197"",""0.675"",""0.829"",""0.935""]","[1,0,1,1]",0,40,40,40,1,0,0,,,0,FALSE,,,,,,,,,,,,,,,,,,,,,,,,,,,,,,
,5be0d2374579d00001ad8d6d,001,2022-04-28_20h14.02.634,classification_task,2021.2.3,Win32,60.06006006,5be0d2374579d00001ad8d6d,626b377229c10585ec392f8a,626b3bbacd2dc8cbf2e4efc2,,,,,,,,,,,,,,,,,,,,,,,a,0,0.9456,"[""0.126"",""0.312"",""0.369"",""0.737""]","[1,1,0,1]",0,41,41,41,1,1,0,,,0,FALSE,,,,,,,,,,,,,,,,,,,,,,,,,,,,,,
,5be0d2374579d00001ad8d6d,001,2022-04-28_20h14.02.634,classification_task,2021.2.3,Win32,60.06006006,5be0d2374579d00001ad8d6d,626b377229c10585ec392f8a,626b3bbacd2dc8cbf2e4efc2,,,,,,,,,,,,,,,,,,,,,,,a,1,3.9113,"[""0.369"",""0.467"",""0.898"",""0.975""]","[0,1,1,1]",0,42,42,42,1,0,1,,,0,FALSE,,,,,,,,,,,,,,,,,,,,,,,,,,,,,,
,5be0d2374579d00001ad8d6d,001,2022-04-28_20h14.02.634,classification_task,2021.2.3,Win32,60.06006006,5be0d2374579d00001ad8d6d,626b377229c10585ec392f8a,626b3bbacd2dc8cbf2e4efc2,,,,,,,,,,,,,,,,,,,,,,,l,1,1.4579,"[""0.652"",""0.312"",""0.618"",""0.737""]","[0,1,1,1]",0,43,43,43,1,1,0,,,0,FALSE,,,,,,,,,,,,,,,,,,,,,,,,,,,,,,
,5be0d2374579d00001ad8d6d,001,2022-04-28_20h14.02.634,classification_task,2021.2.3,Win32,60.06006006,5be0d2374579d00001ad8d6d,626b377229c10585ec392f8a,626b3bbacd2dc8cbf2e4efc2,,,,,,,,,,,,,,,,,,,,,,,a,1,2.1451,"[""0.161"",""0.467"",""0.385"",""0.975""]","[1,1,0,1]",0,44,44,44,1,0,1,,,0,FALSE,,,,,,,,,,,,,,,,,,,,,,,,,,,,,,
,5be0d2374579d00001ad8d6d,001,2022-04-28_20h14.02.634,classification_task,2021.2.3,Win32,60.06006006,5be0d2374579d00001ad8d6d,626b377229c10585ec392f8a,626b3bbacd2dc8cbf2e4efc2,,,,,,,,,,,,,,,,,,,,,,,l,1,1.6406,"[""0.036"",""0.267"",""0.584"",""0.429""]","[1,1,1,0]",0,45,45,45,1,1,1,,,0,FALSE,,,,,,,,,,,,,,,,,,,,,,,,,,,,,,
,5be0d2374579d00001ad8d6d,001,2022-04-28_20h14.02.634,classification_task,2021.2.3,Win32,60.06006006,5be0d2374579d00001ad8d6d,626b377229c10585ec392f8a,626b3bbacd2dc8cbf2e4efc2,,,,,,,,,,,,,,,,,,,,,,,l,1,0.9861,"[""0.036"",""0.267"",""0.081"",""0.794""]","[1,1,0,1]",0,46,46,46,1,1,1,,,0,FALSE,,,,,,,,,,,,,,,,,,,,,,,,,,,,,,
,5be0d2374579d00001ad8d6d,001,2022-04-28_20h14.02.634,classification_task,2021.2.3,Win32,60.06006006,5be0d2374579d00001ad8d6d,626b377229c10585ec392f8a,626b3bbacd2dc8cbf2e4efc2,,,,,,,,,,,,,,,,,,,,,,,a,1,0.9458,"[""0.161"",""0.359"",""0.898"",""0.975""]","[1,0,1,1]",0,47,47,47,1,0,1,,,0,FALSE,,,,,,,,,,,,,,,,,,,,,,,,,,,,,,
,5be0d2374579d00001ad8d6d,001,2022-04-28_20h14.02.634,classification_task,2021.2.3,Win32,60.06006006,5be0d2374579d00001ad8d6d,626b377229c10585ec392f8a,626b3bbacd2dc8cbf2e4efc2,,,,,,,,,,,,,,,,,,,,,,,l,1,1.7512,"[""0.036"",""0.267"",""0.584"",""0.688""]","[1,1,1,0]",0,48,48,48,1,1,1,,,0,FALSE,,,,,,,,,,,,,,,,,,,,,,,,,,,,,,
,5be0d2374579d00001ad8d6d,001,2022-04-28_20h14.02.634,classification_task,2021.2.3,Win32,60.06006006,5be0d2374579d00001ad8d6d,626b377229c10585ec392f8a,626b3bbacd2dc8cbf2e4efc2,,,,,,,,,,,,,,,,,,,,,,,l,1,3.8904,"[""0.036"",""0.359"",""0.584"",""0.794""]","[1,0,1,1]",0,49,49,49,1,1,1,,,0,FALSE,,,,,,,,,,,,,,,,,,,,,,,,,,,,,,
,5be0d2374579d00001ad8d6d,001,2022-04-28_20h14.02.634,classification_task,2021.2.3,Win32,60.06006006,5be0d2374579d00001ad8d6d,626b377229c10585ec392f8a,626b3bbacd2dc8cbf2e4efc2,,,,,,,,,,,,,,,,,,,,,,,a,1,1.8917,"[""0.197"",""0.359"",""0.829"",""0.935""]","[1,0,1,1]",0,50,50,50,1,0,0,,,0,FALSE,,,,,,,,,,,,,,,,,,,,,,,,,,,,,,
,5be0d2374579d00001ad8d6d,001,2022-04-28_20h14.02.634,classification_task,2021.2.3,Win32,60.06006006,5be0d2374579d00001ad8d6d,626b377229c10585ec392f8a,626b3bbacd2dc8cbf2e4efc2,,,,,,,,,,,,,,,,,,,,,,,l,1,0.6065,"[""0.126"",""0.682"",""0.618"",""0.737""]","[1,0,1,1]",0,51,51,51,1,1,0,,,0,FALSE,,,,,,,,,,,,,,,,,,,,,,,,,,,,,,
,5be0d2374579d00001ad8d6d,001,2022-04-28_20h14.02.634,classification_task,2021.2.3,Win32,60.06006006,5be0d2374579d00001ad8d6d,626b377229c10585ec392f8a,626b3bbacd2dc8cbf2e4efc2,,,,,,,,,,,,,,,,,,,,,,,a,1,1.134,"[""0.197"",""0.524"",""0.829"",""0.081""]","[1,1,1,0]",0,52,52,52,1,0,0,,,0,FALSE,,,,,,,,,,,,,,,,,,,,,,,,,,,,,,
,5be0d2374579d00001ad8d6d,001,2022-04-28_20h14.02.634,classification_task,2021.2.3,Win32,60.06006006,5be0d2374579d00001ad8d6d,626b377229c10585ec392f8a,626b3bbacd2dc8cbf2e4efc2,,,,,,,,,,,,,,,,,,,,,,,l,1,4.3167,"[""0.081"",""0.267"",""0.584"",""0.794""]","[0,1,1,1]",0,53,53,53,1,1,1,,,0,FALSE,,,,,,,,,,,,,,,,,,,,,,,,,,,,,,
,5be0d2374579d00001ad8d6d,001,2022-04-28_20h14.02.634,classification_task,2021.2.3,Win32,60.06006006,5be0d2374579d00001ad8d6d,626b377229c10585ec392f8a,626b3bbacd2dc8cbf2e4efc2,,,,,,,,,,,,,,,,,,,,,,,a,1,1.4061,"[""0.161"",""0.467"",""0.898"",""0.081""]","[1,1,1,0]",0,54,54,54,1,0,1,,,0,FALSE,,,,,,,,,,,,,,,,,,,,,,,,,,,,,,
,5be0d2374579d00001ad8d6d,001,2022-04-28_20h14.02.634,classification_task,2021.2.3,Win32,60.06006006,5be0d2374579d00001ad8d6d,626b377229c10585ec392f8a,626b3bbacd2dc8cbf2e4efc2,,,,,,,,,,,,,,,,,,,,,,,l,0,1.6272,"[""0.663"",""0.524"",""0.829"",""0.935""]","[0,1,1,1]",0,55,55,55,1,0,0,,,0,FALSE,,,,,,,,,,,,,,,,,,,,,,,,,,,,,,
,5be0d2374579d00001ad8d6d,001,2022-04-28_20h14.02.634,classification_task,2021.2.3,Win32,60.06006006,5be0d2374579d00001ad8d6d,626b377229c10585ec392f8a,626b3bbacd2dc8cbf2e4efc2,,,,,,,,,,,,,,,,,,,,,,,l,1,1.9763,"[""0.126"",""0.312"",""0.675"",""0.737""]","[1,1,0,1]",0,56,56,56,1,1,0,,,0,FALSE,,,,,,,,,,,,,,,,,,,,,,,,,,,,,,
,5be0d2374579d00001ad8d6d,001,2022-04-28_20h14.02.634,classification_task,2021.2.3,Win32,60.06006006,5be0d2374579d00001ad8d6d,626b377229c10585ec392f8a,626b3bbacd2dc8cbf2e4efc2,,,,,,,,,,,,,,,,,,,,,,,a,1,1.5315,"[""0.663"",""0.467"",""0.898"",""0.975""]","[0,1,1,1]",0,57,57,57,1,0,1,,,0,FALSE,,,,,,,,,,,,,,,,,,,,,,,,,,,,,,
,5be0d2374579d00001ad8d6d,001,2022-04-28_20h14.02.634,classification_task,2021.2.3,Win32,60.06006006,5be0d2374579d00001ad8d6d,626b377229c10585ec392f8a,626b3bbacd2dc8cbf2e4efc2,,,,,,,,,,,,,,,,,,,,,,,a,1,0.9924,"[""0.197"",""0.524"",""0.231"",""0.935""]","[1,1,0,1]",0,58,58,58,1,0,0,,,0,FALSE,,,,,,,,,,,,,,,,,,,,,,,,,,,,,,
,5be0d2374579d00001ad8d6d,001,2022-04-28_20h14.02.634,classification_task,2021.2.3,Win32,60.06006006,5be0d2374579d00001ad8d6d,626b377229c10585ec392f8a,626b3bbacd2dc8cbf2e4efc2,,,,,,,,,,,,,,,,,,,,,,,l,1,1.4071,"[""0.036"",""0.267"",""0.359"",""0.794""]","[1,1,0,1]",0,59,59,59,1,1,1,,,0,FALSE,,,,,,,,,,,,,,,,,,,,,,,,,,,,,,
,5be0d2374579d00001ad8d6d,001,2022-04-28_20h14.02.634,classification_task,2021.2.3,Win32,60.06006006,5be0d2374579d00001ad8d6d,626b377229c10585ec392f8a,626b3bbacd2dc8cbf2e4efc2,,,,,,,,,,,,,,,,,,,,,,,a,1,1.3204,"[""0.161"",""0.467"",""0.688"",""0.975""]","[1,1,0,1]",0,60,60,60,1,0,1,,,0,FALSE,,,,,,,,,,,,,,,,,,,,,,,,,,,,,,
,5be0d2374579d00001ad8d6d,001,2022-04-28_20h14.02.634,classification_task,2021.2.3,Win32,60.06006006,5be0d2374579d00001ad8d6d,626b377229c10585ec392f8a,626b3bbacd2dc8cbf2e4efc2,,,,,,,,,,,,,,,,,,,,,,,a,1,0.797,"[""0.161"",""0.359"",""0.898"",""0.975""]","[1,0,1,1]",0,61,61,61,1,0,1,,,0,FALSE,,,,,,,,,,,,,,,,,,,,,,,,,,,,,,
,5be0d2374579d00001ad8d6d,001,2022-04-28_20h14.02.634,classification_task,2021.2.3,Win32,60.06006006,5be0d2374579d00001ad8d6d,626b377229c10585ec392f8a,626b3bbacd2dc8cbf2e4efc2,,,,,,,,,,,,,,,,,,,,,,,l,1,1.316,"[""0.429"",""0.312"",""0.618"",""0.737""]","[0,1,1,1]",0,62,62,62,1,1,0,,,0,FALSE,,,,,,,,,,,,,,,,,,,,,,,,,,,,,,
,5be0d2374579d00001ad8d6d,001,2022-04-28_20h14.02.634,classification_task,2021.2.3,Win32,60.06006006,5be0d2374579d00001ad8d6d,626b377229c10585ec392f8a,626b3bbacd2dc8cbf2e4efc2,,,,,,,,,,,,,,,,,,,,,,,l,1,1.5007,"[""0.126"",""0.312"",""0.618"",""0.688""]","[1,1,1,0]",0,63,63,63,1,1,0,,,0,FALSE,,,,,,,,,,,,,,,,,,,,,,,,,,,,,,
,5be0d2374579d00001ad8d6d,001,2022-04-28_20h14.02.634,classification_task,2021.2.3,Win32,60.06006006,5be0d2374579d00001ad8d6d,626b377229c10585ec392f8a,626b3bbacd2dc8cbf2e4efc2,,,,,,,,,,,,,,,,,,,,,,,,,,,,,,,,,,,,,,,0, ,,0,7.927965168,177.5336,0,2,2,2,1,2,3,,,,,,,,,,,,,,,,,
,5be0d2374579d00001ad8d6d,001,2022-04-28_20h14.02.634,classification_task,2021.2.3,Win32,60.06006006,5be0d2374579d00001ad8d6d,626b377229c10585ec392f8a,626b3bbacd2dc8cbf2e4efc2,,,,,,,,,,,,,,,,,,,,,,,,,,,,,,,,,,,,,,,1,  ,,0,6.653439153,180.365,0,2,2,2,1,2,3,,,,,,,,,,,,,,,,,
,5be0d2374579d00001ad8d6d,001,2022-04-28_20h14.02.634,classification_task,2021.2.3,Win32,60.06006006,5be0d2374579d00001ad8d6d,626b377229c10585ec392f8a,626b3bbacd2dc8cbf2e4efc2,,,,,,,,,,,,,,,,,,,,,,,,,,,,,,,,,,,,,,,2,  ,,0,5.688932981,182.198,0,2,2,2,1,2,3,,,,,,,,,,,,,,,,,
,5be0d2374579d00001ad8d6d,001,2022-04-28_20h14.02.634,classification_task,2021.2.3,Win32,60.06006006,5be0d2374579d00001ad8d6d,626b377229c10585ec392f8a,626b3bbacd2dc8cbf2e4efc2,,,,,,,,,,,,,,,,,,,,,,,,,,,,,,,,,,,,,,,,,,,,,0,2,2,2,1,,3,,,,,,,,,,,,,,,,,
,5be0d2374579d00001ad8d6d,001,2022-04-28_20h14.02.634,classification_task,2021.2.3,Win32,60.06006006,5be0d2374579d00001ad8d6d,626b377229c10585ec392f8a,626b3bbacd2dc8cbf2e4efc2,,,,,,,,,,,,,,,,,,,,,,,,,,,,,,,,,,,,,,,,,,,,,,,,,,,,,I believe the aid is a competent performer,,0.7,0,5,665.3322,0,0,0,0,1,0,,,,
,5be0d2374579d00001ad8d6d,001,2022-04-28_20h14.02.634,classification_task,2021.2.3,Win32,60.06006006,5be0d2374579d00001ad8d6d,626b377229c10585ec392f8a,626b3bbacd2dc8cbf2e4efc2,,,,,,,,,,,,,,,,,,,,,,,,,,,,,,,,,,,,,,,,,,,,,,,,,,,,,I trust the aid,,0.7,0,4,670.0238,0,0,0,0,1,0,,,,
,5be0d2374579d00001ad8d6d,001,2022-04-28_20h14.02.634,classification_task,2021.2.3,Win32,60.06006006,5be0d2374579d00001ad8d6d,626b377229c10585ec392f8a,626b3bbacd2dc8cbf2e4efc2,,,,,,,,,,,,,,,,,,,,,,,,,,,,,,,,,,,,,,,,,,,,,,,,,,,,,I have confidence in the advice given by the aid,,0.7,0,4,672.1103,0,0,0,0,1,0,,,,
,5be0d2374579d00001ad8d6d,001,2022-04-28_20h14.02.634,classification_task,2021.2.3,Win32,60.06006006,5be0d2374579d00001ad8d6d,626b377229c10585ec392f8a,626b3bbacd2dc8cbf2e4efc2,,,,,,,,,,,,,,,,,,,,,,,,,,,,,,,,,,,,,,,,,,,,,,,,,,,,,I can depend on the aid,,0.7,0,2,675.0789,0,0,0,0,1,0,,,,
,5be0d2374579d00001ad8d6d,001,2022-04-28_20h14.02.634,classification_task,2021.2.3,Win32,60.06006006,5be0d2374579d00001ad8d6d,626b377229c10585ec392f8a,626b3bbacd2dc8cbf2e4efc2,,,,,,,,,,,,,,,,,,,,,,,,,,,,,,,,,,,,,,,,,,,,,,,,,,,,,I can rely on the aid to behave in consistent ways,,0.7,0,2,675.8624,0,0,0,0,1,0,,,,
,5be0d2374579d00001ad8d6d,001,2022-04-28_20h14.02.634,classification_task,2021.2.3,Win32,60.06006006,5be0d2374579d00001ad8d6d,626b377229c10585ec392f8a,626b3bbacd2dc8cbf2e4efc2,,,,,,,,,,,,,,,,,,,,,,,,,,,,,,,,,,,,,,,,,,,,,,,,,,,,,I can rely on the aid to do its best every time I take its advice,,0.7,0,3,679.2759,0,0,0,0,1,0,,,,
,5be0d2374579d00001ad8d6d,001,2022-04-28_20h14.02.634,classification_task,2021.2.3,Win32,60.06006006,5be0d2374579d00001ad8d6d,626b377229c10585ec392f8a,626b3bbacd2dc8cbf2e4efc2,,,,,,,,,,,,,,,,,,,,,,,,,,,,,,,,,,,,,,,,,,,,,,,,,,,,,"On trials you completed with assistance from the aid, how frequently did you think the aid was correct?",,0.7,0,50%,,0,0,0,0,1,0,,,,
,5be0d2374579d00001ad8d6d,001,2022-04-28_20h14.02.634,classification_task,2021.2.3,Win32,60.06006006,5be0d2374579d00001ad8d6d,626b377229c10585ec392f8a,626b3bbacd2dc8cbf2e4efc2,,,,,,,,,,,,,,,,,,,,,,,,,,,,,,,,,,,,,,,,,,,,,,,,,,,,,"On trials you completed without the aid, how frequently did you think you were correct?",,0.7,0,60%,,0,0,0,0,1,0,,,,
,5be0d2374579d00001ad8d6d,001,2022-04-28_20h14.02.634,classification_task,2021.2.3,Win32,60.06006006,5be0d2374579d00001ad8d6d,626b377229c10585ec392f8a,626b3bbacd2dc8cbf2e4efc2,,,,,,,,,,,,,,,,,,,,,,,,,,,,,,,,,,,,,,,,,,,,,,,,,,,,,,,,,,,0,0,0,0,1,,,,,
,5be0d2374579d00001ad8d6d,001,2022-04-28_20h14.02.634,classification_task,2021.2.3,Win32,60.06006006,5be0d2374579d00001ad8d6d,626b377229c10585ec392f8a,626b3bbacd2dc8cbf2e4efc2,,,,,,,,,,,,,,,,,,,,,,,,,,,,,,,,,,,,,,,,,,,,,,,,,,,,,,,,,,,,,,,,,space,6.2984,700.534,
,5be0d2374579d00001ad8d6d,001,2022-04-28_20h14.02.634,classification_task,2021.2.3,Win32,60.06006006,5be0d2374579d00001ad8d6d,626b377229c10585ec392f8a,626b3bbacd2dc8cbf2e4efc2,,,,,,,,,,,,,,,,,,,,,,,,,,,,,,,,,,,,,,,,,,,,,,,,,,,,,,,,,,,,,,,,,,,,"Mozilla/5.0 (Windows NT 6.3; Win64; x64) AppleWebKit/537.36 (KHTML, like Gecko) Chrome/101.0.4951.41 Safari/537.36"
