usingWebGL,participant,session,date,expName,psychopyVersion,OS,frameRate,study_id,signatures_friend,signatures_foe,band_ranges_top,band_ranges_bottom,formitemText,formtype,formundefined,formitemWidth,formindex,formresponse,formrt,key_resp_2.keys,key_resp_2.rt,tute_resp.keys,tute_resp.rt,tutorial.thisRepN,tutorial.thisTrialN,tutorial.thisN,tutorial.thisIndex,tutorial.ran,key_resp_4.keys,key_resp_4.rt,key_resp.keys,key_resp.corr,key_resp.rt,lines_presented,is_signal_presented,trials.thisRepN,trials.thisTrialN,trials.thisN,trials.thisIndex,trials.ran,vessel,active_band,lines,is_signal,supported_pos,catch_trial,debrief_formindex,debrief_formitemText,debrief_formtype,debrief_formitemWidth,debrief_formresponse,debrief_formrt,phases.thisRepN,phases.thisTrialN,phases.thisN,phases.thisIndex,phases.ran,phases.order,phase,key_resp_3.keys,trustitemText,trusttype,trustitemWidth,trustindex,trustresponse,trustrt,support_status.thisRepN,support_status.thisTrialN,support_status.thisN,support_status.thisIndex,support_status.ran,support_status.order,key_resp_5.keys,key_resp_5.rt,globalClockTime,userAgent,manualCondition
TRUE,5c0333c84e1b7b00016a83fd,627c6f22b368a87425bdae63,2022-05-12_03h23.07.075,classification_task,2021.2.3,Win32,59.90176111,627c6715c52fd12f31907bcf,,,,,,,,,,,,,,,,,,,,,,,,,,,,,,,,,,,,,,,,,,,,,,,,,,,,,,,,,,,,,,,,,,,,,
,5c0333c84e1b7b00016a83fd,627c6f22b368a87425bdae63,2022-05-12_03h23.07.075,classification_task,2021.2.3,Win32,59.90176111,627c6715c52fd12f31907bcf,"[[""0.325"",""0.387"",""0.608"",""0.882""],[""0.284"",""0.527"",""0.847"",""0.924""]]","[[""0.086"",""0.122"",""0.490"",""0.774""],[""0.038"",""0.168"",""0.644"",""0.715""]]","[1,10]","[100,1000]",Video game experience,,,0.7,0,,,,,,,,,,,,,,,,,,,,,,,,,,,,,,,,,,,,,,,,,,,,,,,,,,,,,,,,,,,,
,5c0333c84e1b7b00016a83fd,627c6f22b368a87425bdae63,2022-05-12_03h23.07.075,classification_task,2021.2.3,Win32,59.90176111,627c6715c52fd12f31907bcf,,,,,Approximately how many hours did you spend playing video games in the last week?,,,0.7,0,10,,,,,,,,,,,,,,,,,,,,,,,,,,,,,,,,,,,,,,,,,,,,,,,,,,,,,,,,,,,
,5c0333c84e1b7b00016a83fd,627c6f22b368a87425bdae63,2022-05-12_03h23.07.075,classification_task,2021.2.3,Win32,59.90176111,627c6715c52fd12f31907bcf,,,,,"Which game did you play the most this year? (Enter ""None"" if you didn't play any)",,,0.7,0,Minecraft,,,,,,,,,,,,,,,,,,,,,,,,,,,,,,,,,,,,,,,,,,,,,,,,,,,,,,,,,,,
,5c0333c84e1b7b00016a83fd,627c6f22b368a87425bdae63,2022-05-12_03h23.07.075,classification_task,2021.2.3,Win32,59.90176111,627c6715c52fd12f31907bcf,,,,,Visual perception,,,0.7,0,,,,,,,,,,,,,,,,,,,,,,,,,,,,,,,,,,,,,,,,,,,,,,,,,,,,,,,,,,,,
,5c0333c84e1b7b00016a83fd,627c6f22b368a87425bdae63,2022-05-12_03h23.07.075,classification_task,2021.2.3,Win32,59.90176111,627c6715c52fd12f31907bcf,,,,,Do you have any form of color blindness?,,,0.7,0,No,25.6339,,,,,,,,,,,,,,,,,,,,,,,,,,,,,,,,,,,,,,,,,,,,,,,,,,,,,,,,,,
,5c0333c84e1b7b00016a83fd,627c6f22b368a87425bdae63,2022-05-12_03h23.07.075,classification_task,2021.2.3,Win32,59.90176111,627c6715c52fd12f31907bcf,,,,,Do you use software to change the colour temperature of your screen (e.g. f.lux)?,,,0.7,0,No,32.4045,,,,,,,,,,,,,,,,,,,,,,,,,,,,,,,,,,,,,,,,,,,,,,,,,,,,,,,,,,
,5c0333c84e1b7b00016a83fd,627c6f22b368a87425bdae63,2022-05-12_03h23.07.075,classification_task,2021.2.3,Win32,59.90176111,627c6715c52fd12f31907bcf,,,,,,,,,,,,space,32.9756,space,13.2811,0,0,0,0,1,,,,,,,,,,,,,,,,,,,,,,,,,,,,,,,,,,,,,,,,,,,,,,,,,
,5c0333c84e1b7b00016a83fd,627c6f22b368a87425bdae63,2022-05-12_03h23.07.075,classification_task,2021.2.3,Win32,59.90176111,627c6715c52fd12f31907bcf,,,,,,,,,,,,,,space,15.438,1,0,1,0,1,,,,,,,,,,,,,,,,,,,,,,,,,,,,,,,,,,,,,,,,,,,,,,,,,
,5c0333c84e1b7b00016a83fd,627c6f22b368a87425bdae63,2022-05-12_03h23.07.075,classification_task,2021.2.3,Win32,59.90176111,627c6715c52fd12f31907bcf,,,,,,,,,,,,,,space,27.1747,2,0,2,0,1,,,,,,,,,,,,,,,,,,,,,,,,,,,,,,,,,,,,,,,,,,,,,,,,,
,5c0333c84e1b7b00016a83fd,627c6f22b368a87425bdae63,2022-05-12_03h23.07.075,classification_task,2021.2.3,Win32,59.90176111,627c6715c52fd12f31907bcf,,,,,,,,,,,,,,space,15.1716,3,0,3,0,1,,,,,,,,,,,,,,,,,,,,,,,,,,,,,,,,,,,,,,,,,,,,,,,,,
,5c0333c84e1b7b00016a83fd,627c6f22b368a87425bdae63,2022-05-12_03h23.07.075,classification_task,2021.2.3,Win32,59.90176111,627c6715c52fd12f31907bcf,,,,,,,,,,,,,,space,12.3997,4,0,4,0,1,,,,,,,,,,,,,,,,,,,,,,,,,,,,,,,,,,,,,,,,,,,,,,,,,
,5c0333c84e1b7b00016a83fd,627c6f22b368a87425bdae63,2022-05-12_03h23.07.075,classification_task,2021.2.3,Win32,59.90176111,627c6715c52fd12f31907bcf,,,,,,,,,,,,,,,,,,,,,space,23.8167,l,1,3.4282,"[""0.086"",""0.443"",""0.490"",""0.774""]","[1,0,1,1]",0,0,0,0,1,1,0,,,1,FALSE,,,,,,,,,,,,,,,,,,,,,,,,,,,,,,,
,5c0333c84e1b7b00016a83fd,627c6f22b368a87425bdae63,2022-05-12_03h23.07.075,classification_task,2021.2.3,Win32,59.90176111,627c6715c52fd12f31907bcf,,,,,,,,,,,,,,,,,,,,,,,a,1,4.9883,"[""0.561"",""0.387"",""0.608"",""0.882""]","[0,1,1,1]",0,1,1,1,1,0,0,,,1,FALSE,,,,,,,,,,,,,,,,,,,,,,,,,,,,,,,
,5c0333c84e1b7b00016a83fd,627c6f22b368a87425bdae63,2022-05-12_03h23.07.075,classification_task,2021.2.3,Win32,59.90176111,627c6715c52fd12f31907bcf,,,,,,,,,,,,,,,,,,,,,,,l,1,2.4253,"[""0.038"",""0.679"",""0.644"",""0.715""]","[1,0,1,1]",0,2,2,2,1,1,1,,,1,FALSE,,,,,,,,,,,,,,,,,,,,,,,,,,,,,,,
,5c0333c84e1b7b00016a83fd,627c6f22b368a87425bdae63,2022-05-12_03h23.07.075,classification_task,2021.2.3,Win32,59.90176111,627c6715c52fd12f31907bcf,,,,,,,,,,,,,,,,,,,,,,,l,1,2.4663,"[""0.038"",""0.168"",""0.644"",""0.230""]","[1,1,1,0]",0,3,3,3,1,1,1,,,1,FALSE,,,,,,,,,,,,,,,,,,,,,,,,,,,,,,,
,5c0333c84e1b7b00016a83fd,627c6f22b368a87425bdae63,2022-05-12_03h23.07.075,classification_task,2021.2.3,Win32,59.90176111,627c6715c52fd12f31907bcf,,,,,,,,,,,,,,,,,,,,,,,a,1,4.4774,"[""0.284"",""0.527"",""0.847"",""0.244""]","[1,1,1,0]",0,4,4,4,1,0,1,,,1,FALSE,,,,,,,,,,,,,,,,,,,,,,,,,,,,,,,
,5c0333c84e1b7b00016a83fd,627c6f22b368a87425bdae63,2022-05-12_03h23.07.075,classification_task,2021.2.3,Win32,59.90176111,627c6715c52fd12f31907bcf,,,,,,,,,,,,,,,,,,,,,,,a,0,2.758,"[""0.086"",""0.122"",""0.490"",""0.244""]","[1,1,1,0]",0,5,5,5,1,1,0,,,1,FALSE,,,,,,,,,,,,,,,,,,,,,,,,,,,,,,,
,5c0333c84e1b7b00016a83fd,627c6f22b368a87425bdae63,2022-05-12_03h23.07.075,classification_task,2021.2.3,Win32,59.90176111,627c6715c52fd12f31907bcf,,,,,,,,,,,,,,,,,,,,,,,l,0,6.2996,"[""0.284"",""0.527"",""0.567"",""0.924""]","[1,1,0,1]",0,6,6,6,1,0,1,,,1,FALSE,,,,,,,,,,,,,,,,,,,,,,,,,,,,,,,
,5c0333c84e1b7b00016a83fd,627c6f22b368a87425bdae63,2022-05-12_03h23.07.075,classification_task,2021.2.3,Win32,59.90176111,627c6715c52fd12f31907bcf,,,,,,,,,,,,,,,,,,,,,,,a,1,4.7678,"[""0.443"",""0.527"",""0.847"",""0.924""]","[0,1,1,1]",0,7,7,7,1,0,1,,,1,FALSE,,,,,,,,,,,,,,,,,,,,,,,,,,,,,,,
,5c0333c84e1b7b00016a83fd,627c6f22b368a87425bdae63,2022-05-12_03h23.07.075,classification_task,2021.2.3,Win32,59.90176111,627c6715c52fd12f31907bcf,,,,,,,,,,,,,,,,,,,,,,,a,1,7.8403,"[""0.325"",""0.230"",""0.608"",""0.882""]","[1,0,1,1]",0,8,8,8,1,0,0,,,1,FALSE,,,,,,,,,,,,,,,,,,,,,,,,,,,,,,,
,5c0333c84e1b7b00016a83fd,627c6f22b368a87425bdae63,2022-05-12_03h23.07.075,classification_task,2021.2.3,Win32,59.90176111,627c6715c52fd12f31907bcf,,,,,,,,,,,,,,,,,,,,,,,a,1,9.0456,"[""0.284"",""0.443"",""0.847"",""0.924""]","[1,0,1,1]",0,9,9,9,1,0,1,,,1,FALSE,,,,,,,,,,,,,,,,,,,,,,,,,,,,,,,
,5c0333c84e1b7b00016a83fd,627c6f22b368a87425bdae63,2022-05-12_03h23.07.075,classification_task,2021.2.3,Win32,59.90176111,627c6715c52fd12f31907bcf,,,,,,,,,,,,,,,,,,,,,,,l,1,7.2927,"[""0.226"",""0.122"",""0.490"",""0.774""]","[0,1,1,1]",0,10,10,10,1,1,0,,,1,FALSE,,,,,,,,,,,,,,,,,,,,,,,,,,,,,,,
,5c0333c84e1b7b00016a83fd,627c6f22b368a87425bdae63,2022-05-12_03h23.07.075,classification_task,2021.2.3,Win32,59.90176111,627c6715c52fd12f31907bcf,,,,,,,,,,,,,,,,,,,,,,,l,1,3.9831,"[""0.086"",""0.122"",""0.961"",""0.774""]","[1,1,0,1]",0,11,11,11,1,1,0,,,1,FALSE,,,,,,,,,,,,,,,,,,,,,,,,,,,,,,,
,5c0333c84e1b7b00016a83fd,627c6f22b368a87425bdae63,2022-05-12_03h23.07.075,classification_task,2021.2.3,Win32,59.90176111,627c6715c52fd12f31907bcf,,,,,,,,,,,,,,,,,,,,,,,a,1,3.0006,"[""0.325"",""0.387"",""0.565"",""0.882""]","[1,1,0,1]",0,12,12,12,1,0,0,,,1,FALSE,,,,,,,,,,,,,,,,,,,,,,,,,,,,,,,
,5c0333c84e1b7b00016a83fd,627c6f22b368a87425bdae63,2022-05-12_03h23.07.075,classification_task,2021.2.3,Win32,59.90176111,627c6715c52fd12f31907bcf,,,,,,,,,,,,,,,,,,,,,,,l,1,2.725,"[""0.038"",""0.168"",""0.443"",""0.715""]","[1,1,0,1]",0,13,13,13,1,1,1,,,1,FALSE,,,,,,,,,,,,,,,,,,,,,,,,,,,,,,,
,5c0333c84e1b7b00016a83fd,627c6f22b368a87425bdae63,2022-05-12_03h23.07.075,classification_task,2021.2.3,Win32,59.90176111,627c6715c52fd12f31907bcf,,,,,,,,,,,,,,,,,,,,,,,l,1,6.8008,"[""0.567"",""0.168"",""0.644"",""0.715""]","[0,1,1,1]",0,14,14,14,1,1,1,,,1,FALSE,,,,,,,,,,,,,,,,,,,,,,,,,,,,,,,
,5c0333c84e1b7b00016a83fd,627c6f22b368a87425bdae63,2022-05-12_03h23.07.075,classification_task,2021.2.3,Win32,59.90176111,627c6715c52fd12f31907bcf,,,,,,,,,,,,,,,,,,,,,,,a,1,6.8692,"[""0.325"",""0.387"",""0.608"",""0.244""]","[1,1,1,0]",0,15,15,15,1,0,0,,,1,FALSE,,,,,,,,,,,,,,,,,,,,,,,,,,,,,,,
,5c0333c84e1b7b00016a83fd,627c6f22b368a87425bdae63,2022-05-12_03h23.07.075,classification_task,2021.2.3,Win32,59.90176111,627c6715c52fd12f31907bcf,,,,,,,,,,,,,,,,,,,,,,,l,1,8.8187,"[""0.038"",""0.168"",""0.435"",""0.715""]","[1,1,0,1]",0,16,16,16,1,1,1,,,1,FALSE,,,,,,,,,,,,,,,,,,,,,,,,,,,,,,,
,5c0333c84e1b7b00016a83fd,627c6f22b368a87425bdae63,2022-05-12_03h23.07.075,classification_task,2021.2.3,Win32,59.90176111,627c6715c52fd12f31907bcf,,,,,,,,,,,,,,,,,,,,,,,a,1,8.9304,"[""0.284"",""0.527"",""0.847"",""0.565""]","[1,1,1,0]",0,17,17,17,1,0,1,,,1,FALSE,,,,,,,,,,,,,,,,,,,,,,,,,,,,,,,
,5c0333c84e1b7b00016a83fd,627c6f22b368a87425bdae63,2022-05-12_03h23.07.075,classification_task,2021.2.3,Win32,59.90176111,627c6715c52fd12f31907bcf,,,,,,,,,,,,,,,,,,,,,,,l,1,6.1228,"[""0.086"",""0.961"",""0.490"",""0.774""]","[1,0,1,1]",0,18,18,18,1,1,0,,,1,FALSE,,,,,,,,,,,,,,,,,,,,,,,,,,,,,,,
,5c0333c84e1b7b00016a83fd,627c6f22b368a87425bdae63,2022-05-12_03h23.07.075,classification_task,2021.2.3,Win32,59.90176111,627c6715c52fd12f31907bcf,,,,,,,,,,,,,,,,,,,,,,,a,1,4.7212,"[""0.325"",""0.387"",""0.443"",""0.882""]","[1,1,0,1]",0,19,19,19,1,0,0,,,1,FALSE,,,,,,,,,,,,,,,,,,,,,,,,,,,,,,,
,5c0333c84e1b7b00016a83fd,627c6f22b368a87425bdae63,2022-05-12_03h23.07.075,classification_task,2021.2.3,Win32,59.90176111,627c6715c52fd12f31907bcf,,,,,,,,,,,,,,,,,,,,,,,l,1,2.8512,"[""0.086"",""0.122"",""0.450"",""0.774""]","[1,1,0,1]",0,20,20,20,1,1,0,,,1,FALSE,,,,,,,,,,,,,,,,,,,,,,,,,,,,,,,
,5c0333c84e1b7b00016a83fd,627c6f22b368a87425bdae63,2022-05-12_03h23.07.075,classification_task,2021.2.3,Win32,59.90176111,627c6715c52fd12f31907bcf,,,,,,,,,,,,,,,,,,,,,,,a,1,6.216,"[""0.325"",""0.387"",""0.608"",""0.561""]","[1,1,1,0]",0,21,21,21,1,0,0,,,1,FALSE,,,,,,,,,,,,,,,,,,,,,,,,,,,,,,,
,5c0333c84e1b7b00016a83fd,627c6f22b368a87425bdae63,2022-05-12_03h23.07.075,classification_task,2021.2.3,Win32,59.90176111,627c6715c52fd12f31907bcf,,,,,,,,,,,,,,,,,,,,,,,l,1,5.838,"[""0.571"",""0.122"",""0.490"",""0.774""]","[0,1,1,1]",0,22,22,22,1,1,0,,,1,FALSE,,,,,,,,,,,,,,,,,,,,,,,,,,,,,,,
,5c0333c84e1b7b00016a83fd,627c6f22b368a87425bdae63,2022-05-12_03h23.07.075,classification_task,2021.2.3,Win32,59.90176111,627c6715c52fd12f31907bcf,,,,,,,,,,,,,,,,,,,,,,,l,1,7.0233,"[""0.435"",""0.168"",""0.644"",""0.715""]","[0,1,1,1]",0,23,23,23,1,1,1,,,1,FALSE,,,,,,,,,,,,,,,,,,,,,,,,,,,,,,,
,5c0333c84e1b7b00016a83fd,627c6f22b368a87425bdae63,2022-05-12_03h23.07.075,classification_task,2021.2.3,Win32,59.90176111,627c6715c52fd12f31907bcf,,,,,,,,,,,,,,,,,,,,,,,,0,,"[""0.284"",""0.456"",""0.847"",""0.924""]","[1,0,1,1]",0,24,24,24,1,0,1,,,1,FALSE,,,,,,,,,,,,,,,,,,,,,,,,,,,,,,,
,5c0333c84e1b7b00016a83fd,627c6f22b368a87425bdae63,2022-05-12_03h23.07.075,classification_task,2021.2.3,Win32,59.90176111,627c6715c52fd12f31907bcf,,,,,,,,,,,,,,,,,,,,,,,a,1,4.4494,"[""0.448"",""0.527"",""0.847"",""0.924""]","[0,1,1,1]",0,25,25,25,1,0,1,,,1,FALSE,,,,,,,,,,,,,,,,,,,,,,,,,,,,,,,
,5c0333c84e1b7b00016a83fd,627c6f22b368a87425bdae63,2022-05-12_03h23.07.075,classification_task,2021.2.3,Win32,59.90176111,627c6715c52fd12f31907bcf,,,,,,,,,,,,,,,,,,,,,,,a,1,6.4827,"[""0.435"",""0.387"",""0.608"",""0.882""]","[0,1,1,1]",0,26,26,26,1,0,0,,,1,FALSE,,,,,,,,,,,,,,,,,,,,,,,,,,,,,,,
,5c0333c84e1b7b00016a83fd,627c6f22b368a87425bdae63,2022-05-12_03h23.07.075,classification_task,2021.2.3,Win32,59.90176111,627c6715c52fd12f31907bcf,,,,,,,,,,,,,,,,,,,,,,,l,1,2.266,"[""0.086"",""0.122"",""0.490"",""0.435""]","[1,1,1,0]",0,27,27,27,1,1,0,,,1,FALSE,,,,,,,,,,,,,,,,,,,,,,,,,,,,,,,
,5c0333c84e1b7b00016a83fd,627c6f22b368a87425bdae63,2022-05-12_03h23.07.075,classification_task,2021.2.3,Win32,59.90176111,627c6715c52fd12f31907bcf,,,,,,,,,,,,,,,,,,,,,,,a,1,5.416,"[""0.325"",""0.567"",""0.608"",""0.882""]","[1,0,1,1]",0,28,28,28,1,0,0,,,1,FALSE,,,,,,,,,,,,,,,,,,,,,,,,,,,,,,,
,5c0333c84e1b7b00016a83fd,627c6f22b368a87425bdae63,2022-05-12_03h23.07.075,classification_task,2021.2.3,Win32,59.90176111,627c6715c52fd12f31907bcf,,,,,,,,,,,,,,,,,,,,,,,l,1,5.7151,"[""0.038"",""0.168"",""0.644"",""0.567""]","[1,1,1,0]",0,29,29,29,1,1,1,,,1,FALSE,,,,,,,,,,,,,,,,,,,,,,,,,,,,,,,
,5c0333c84e1b7b00016a83fd,627c6f22b368a87425bdae63,2022-05-12_03h23.07.075,classification_task,2021.2.3,Win32,59.90176111,627c6715c52fd12f31907bcf,,,,,,,,,,,,,,,,,,,,,,,l,1,4.7311,"[""0.038"",""0.571"",""0.644"",""0.715""]","[1,0,1,1]",0,30,30,30,1,1,1,,,1,FALSE,,,,,,,,,,,,,,,,,,,,,,,,,,,,,,,
,5c0333c84e1b7b00016a83fd,627c6f22b368a87425bdae63,2022-05-12_03h23.07.075,classification_task,2021.2.3,Win32,59.90176111,627c6715c52fd12f31907bcf,,,,,,,,,,,,,,,,,,,,,,,a,1,2.9151,"[""0.284"",""0.527"",""0.456"",""0.924""]","[1,1,0,1]",0,31,31,31,1,0,1,,,1,FALSE,,,,,,,,,,,,,,,,,,,,,,,,,,,,,,,
,5c0333c84e1b7b00016a83fd,627c6f22b368a87425bdae63,2022-05-12_03h23.07.075,classification_task,2021.2.3,Win32,59.90176111,627c6715c52fd12f31907bcf,,,,,,,,,,,,,,,,,,,,,,,l,0,3.5994,"[""0.284"",""0.230"",""0.847"",""0.924""]","[1,0,1,1]",0,32,32,32,1,0,1,,,1,FALSE,,,,,,,,,,,,,,,,,,,,,,,,,,,,,,,
,5c0333c84e1b7b00016a83fd,627c6f22b368a87425bdae63,2022-05-12_03h23.07.075,classification_task,2021.2.3,Win32,59.90176111,627c6715c52fd12f31907bcf,,,,,,,,,,,,,,,,,,,,,,,a,1,4.4323,"[""0.679"",""0.387"",""0.608"",""0.882""]","[0,1,1,1]",0,33,33,33,1,0,0,,,1,FALSE,,,,,,,,,,,,,,,,,,,,,,,,,,,,,,,
,5c0333c84e1b7b00016a83fd,627c6f22b368a87425bdae63,2022-05-12_03h23.07.075,classification_task,2021.2.3,Win32,59.90176111,627c6715c52fd12f31907bcf,,,,,,,,,,,,,,,,,,,,,,,a,1,2.4319,"[""0.284"",""0.527"",""0.679"",""0.924""]","[1,1,0,1]",0,34,34,34,1,0,1,,,1,FALSE,,,,,,,,,,,,,,,,,,,,,,,,,,,,,,,
,5c0333c84e1b7b00016a83fd,627c6f22b368a87425bdae63,2022-05-12_03h23.07.075,classification_task,2021.2.3,Win32,59.90176111,627c6715c52fd12f31907bcf,,,,,,,,,,,,,,,,,,,,,,,l,1,2.3143,"[""0.086"",""0.122"",""0.456"",""0.774""]","[1,1,0,1]",0,35,35,35,1,1,0,,,1,FALSE,,,,,,,,,,,,,,,,,,,,,,,,,,,,,,,
,5c0333c84e1b7b00016a83fd,627c6f22b368a87425bdae63,2022-05-12_03h23.07.075,classification_task,2021.2.3,Win32,59.90176111,627c6715c52fd12f31907bcf,,,,,,,,,,,,,,,,,,,,,,,l,1,1.2654,"[""0.086"",""0.122"",""0.490"",""0.448""]","[1,1,1,0]",0,36,36,36,1,1,0,,,1,FALSE,,,,,,,,,,,,,,,,,,,,,,,,,,,,,,,
,5c0333c84e1b7b00016a83fd,627c6f22b368a87425bdae63,2022-05-12_03h23.07.075,classification_task,2021.2.3,Win32,59.90176111,627c6715c52fd12f31907bcf,,,,,,,,,,,,,,,,,,,,,,,l,1,1.4141,"[""0.038"",""0.168"",""0.565"",""0.715""]","[1,1,0,1]",0,37,37,37,1,1,1,,,1,FALSE,,,,,,,,,,,,,,,,,,,,,,,,,,,,,,,
,5c0333c84e1b7b00016a83fd,627c6f22b368a87425bdae63,2022-05-12_03h23.07.075,classification_task,2021.2.3,Win32,59.90176111,627c6715c52fd12f31907bcf,,,,,,,,,,,,,,,,,,,,,,,l,1,1.0331,"[""0.086"",""0.450"",""0.490"",""0.774""]","[1,0,1,1]",0,38,38,38,1,1,0,,,1,FALSE,,,,,,,,,,,,,,,,,,,,,,,,,,,,,,,
,5c0333c84e1b7b00016a83fd,627c6f22b368a87425bdae63,2022-05-12_03h23.07.075,classification_task,2021.2.3,Win32,59.90176111,627c6715c52fd12f31907bcf,,,,,,,,,,,,,,,,,,,,,,,a,1,1.0669,"[""0.284"",""0.527"",""0.847"",""0.244""]","[1,1,1,0]",0,39,39,39,1,0,1,,,1,FALSE,,,,,,,,,,,,,,,,,,,,,,,,,,,,,,,
,5c0333c84e1b7b00016a83fd,627c6f22b368a87425bdae63,2022-05-12_03h23.07.075,classification_task,2021.2.3,Win32,59.90176111,627c6715c52fd12f31907bcf,,,,,,,,,,,,,,,,,,,,,,,l,1,1.2638,"[""0.561"",""0.168"",""0.644"",""0.715""]","[0,1,1,1]",0,40,40,40,1,1,1,,,1,FALSE,,,,,,,,,,,,,,,,,,,,,,,,,,,,,,,
,5c0333c84e1b7b00016a83fd,627c6f22b368a87425bdae63,2022-05-12_03h23.07.075,classification_task,2021.2.3,Win32,59.90176111,627c6715c52fd12f31907bcf,,,,,,,,,,,,,,,,,,,,,,,l,1,0.7152,"[""0.038"",""0.567"",""0.644"",""0.715""]","[1,0,1,1]",0,41,41,41,1,1,1,,,1,FALSE,,,,,,,,,,,,,,,,,,,,,,,,,,,,,,,
,5c0333c84e1b7b00016a83fd,627c6f22b368a87425bdae63,2022-05-12_03h23.07.075,classification_task,2021.2.3,Win32,59.90176111,627c6715c52fd12f31907bcf,,,,,,,,,,,,,,,,,,,,,,,l,1,0.6161,"[""0.038"",""0.168"",""0.644"",""0.230""]","[1,1,1,0]",0,42,42,42,1,1,1,,,1,FALSE,,,,,,,,,,,,,,,,,,,,,,,,,,,,,,,
,5c0333c84e1b7b00016a83fd,627c6f22b368a87425bdae63,2022-05-12_03h23.07.075,classification_task,2021.2.3,Win32,59.90176111,627c6715c52fd12f31907bcf,,,,,,,,,,,,,,,,,,,,,,,a,1,0.7316,"[""0.325"",""0.387"",""0.244"",""0.882""]","[1,1,0,1]",0,43,43,43,1,0,0,,,1,FALSE,,,,,,,,,,,,,,,,,,,,,,,,,,,,,,,
,5c0333c84e1b7b00016a83fd,627c6f22b368a87425bdae63,2022-05-12_03h23.07.075,classification_task,2021.2.3,Win32,59.90176111,627c6715c52fd12f31907bcf,,,,,,,,,,,,,,,,,,,,,,,a,1,1.1001,"[""0.435"",""0.527"",""0.847"",""0.924""]","[0,1,1,1]",0,44,44,44,1,0,1,,,1,FALSE,,,,,,,,,,,,,,,,,,,,,,,,,,,,,,,
,5c0333c84e1b7b00016a83fd,627c6f22b368a87425bdae63,2022-05-12_03h23.07.075,classification_task,2021.2.3,Win32,59.90176111,627c6715c52fd12f31907bcf,,,,,,,,,,,,,,,,,,,,,,,a,1,1.8135,"[""0.325"",""0.387"",""0.608"",""0.571""]","[1,1,1,0]",0,45,45,45,1,0,0,,,1,FALSE,,,,,,,,,,,,,,,,,,,,,,,,,,,,,,,
,5c0333c84e1b7b00016a83fd,627c6f22b368a87425bdae63,2022-05-12_03h23.07.075,classification_task,2021.2.3,Win32,59.90176111,627c6715c52fd12f31907bcf,,,,,,,,,,,,,,,,,,,,,,,a,0,0.8828,"[""0.448"",""0.122"",""0.490"",""0.774""]","[0,1,1,1]",0,46,46,46,1,1,0,,,1,FALSE,,,,,,,,,,,,,,,,,,,,,,,,,,,,,,,
,5c0333c84e1b7b00016a83fd,627c6f22b368a87425bdae63,2022-05-12_03h23.07.075,classification_task,2021.2.3,Win32,59.90176111,627c6715c52fd12f31907bcf,,,,,,,,,,,,,,,,,,,,,,,a,1,0.7138,"[""0.325"",""0.561"",""0.608"",""0.882""]","[1,0,1,1]",0,47,47,47,1,0,0,,,1,FALSE,,,,,,,,,,,,,,,,,,,,,,,,,,,,,,,
,5c0333c84e1b7b00016a83fd,627c6f22b368a87425bdae63,2022-05-12_03h23.07.075,classification_task,2021.2.3,Win32,59.90176111,627c6715c52fd12f31907bcf,,,,,,,,,,,,,,,,,,,,,,,l,0,1.4821,"[""0.284"",""0.443"",""0.847"",""0.924""]","[1,0,1,1]",0,48,48,48,1,0,1,,,1,FALSE,,,,,,,,,,,,,,,,,,,,,,,,,,,,,,,
,5c0333c84e1b7b00016a83fd,627c6f22b368a87425bdae63,2022-05-12_03h23.07.075,classification_task,2021.2.3,Win32,59.90176111,627c6715c52fd12f31907bcf,,,,,,,,,,,,,,,,,,,,,,,l,1,0.5311,"[""0.038"",""0.168"",""0.644"",""0.961""]","[1,1,1,0]",0,49,49,49,1,1,1,,,1,FALSE,,,,,,,,,,,,,,,,,,,,,,,,,,,,,,,
,5c0333c84e1b7b00016a83fd,627c6f22b368a87425bdae63,2022-05-12_03h23.07.075,classification_task,2021.2.3,Win32,59.90176111,627c6715c52fd12f31907bcf,,,,,,,,,,,,,,,,,,,,,,,a,1,0.9155,"[""0.325"",""0.450"",""0.608"",""0.882""]","[1,0,1,1]",0,50,50,50,1,0,0,,,1,FALSE,,,,,,,,,,,,,,,,,,,,,,,,,,,,,,,
,5c0333c84e1b7b00016a83fd,627c6f22b368a87425bdae63,2022-05-12_03h23.07.075,classification_task,2021.2.3,Win32,59.90176111,627c6715c52fd12f31907bcf,,,,,,,,,,,,,,,,,,,,,,,a,1,1.3664,"[""0.284"",""0.527"",""0.679"",""0.924""]","[1,1,0,1]",0,51,51,51,1,0,1,,,1,FALSE,,,,,,,,,,,,,,,,,,,,,,,,,,,,,,,
,5c0333c84e1b7b00016a83fd,627c6f22b368a87425bdae63,2022-05-12_03h23.07.075,classification_task,2021.2.3,Win32,59.90176111,627c6715c52fd12f31907bcf,,,,,,,,,,,,,,,,,,,,,,,a,1,0.9315,"[""0.284"",""0.527"",""0.847"",""0.443""]","[1,1,1,0]",0,52,52,52,1,0,1,,,1,FALSE,,,,,,,,,,,,,,,,,,,,,,,,,,,,,,,
,5c0333c84e1b7b00016a83fd,627c6f22b368a87425bdae63,2022-05-12_03h23.07.075,classification_task,2021.2.3,Win32,59.90176111,627c6715c52fd12f31907bcf,,,,,,,,,,,,,,,,,,,,,,,l,0,0.7316,"[""0.325"",""0.387"",""0.608"",""0.230""]","[1,1,1,0]",0,53,53,53,1,0,0,,,1,FALSE,,,,,,,,,,,,,,,,,,,,,,,,,,,,,,,
,5c0333c84e1b7b00016a83fd,627c6f22b368a87425bdae63,2022-05-12_03h23.07.075,classification_task,2021.2.3,Win32,59.90176111,627c6715c52fd12f31907bcf,,,,,,,,,,,,,,,,,,,,,,,l,1,0.5311,"[""0.086"",""0.122"",""0.490"",""0.435""]","[1,1,1,0]",0,54,54,54,1,1,0,,,1,FALSE,,,,,,,,,,,,,,,,,,,,,,,,,,,,,,,
,5c0333c84e1b7b00016a83fd,627c6f22b368a87425bdae63,2022-05-12_03h23.07.075,classification_task,2021.2.3,Win32,59.90176111,627c6715c52fd12f31907bcf,,,,,,,,,,,,,,,,,,,,,,,l,1,0.7988,"[""0.086"",""0.122"",""0.561"",""0.774""]","[1,1,0,1]",0,55,55,55,1,1,0,,,1,FALSE,,,,,,,,,,,,,,,,,,,,,,,,,,,,,,,
,5c0333c84e1b7b00016a83fd,627c6f22b368a87425bdae63,2022-05-12_03h23.07.075,classification_task,2021.2.3,Win32,59.90176111,627c6715c52fd12f31907bcf,,,,,,,,,,,,,,,,,,,,,,,a,1,0.9807,"[""0.325"",""0.387"",""0.448"",""0.882""]","[1,1,0,1]",0,56,56,56,1,0,0,,,1,FALSE,,,,,,,,,,,,,,,,,,,,,,,,,,,,,,,
,5c0333c84e1b7b00016a83fd,627c6f22b368a87425bdae63,2022-05-12_03h23.07.075,classification_task,2021.2.3,Win32,59.90176111,627c6715c52fd12f31907bcf,,,,,,,,,,,,,,,,,,,,,,,l,1,0.6814,"[""0.038"",""0.571"",""0.644"",""0.715""]","[1,0,1,1]",0,57,57,57,1,1,1,,,1,FALSE,,,,,,,,,,,,,,,,,,,,,,,,,,,,,,,
,5c0333c84e1b7b00016a83fd,627c6f22b368a87425bdae63,2022-05-12_03h23.07.075,classification_task,2021.2.3,Win32,59.90176111,627c6715c52fd12f31907bcf,,,,,,,,,,,,,,,,,,,,,,,l,1,0.9304,"[""0.435"",""0.122"",""0.490"",""0.774""]","[0,1,1,1]",0,58,58,58,1,1,0,,,1,FALSE,,,,,,,,,,,,,,,,,,,,,,,,,,,,,,,
,5c0333c84e1b7b00016a83fd,627c6f22b368a87425bdae63,2022-05-12_03h23.07.075,classification_task,2021.2.3,Win32,59.90176111,627c6715c52fd12f31907bcf,,,,,,,,,,,,,,,,,,,,,,,l,1,0.5985,"[""0.086"",""0.244"",""0.490"",""0.774""]","[1,0,1,1]",0,59,59,59,1,1,0,,,1,FALSE,,,,,,,,,,,,,,,,,,,,,,,,,,,,,,,
,5c0333c84e1b7b00016a83fd,627c6f22b368a87425bdae63,2022-05-12_03h23.07.075,classification_task,2021.2.3,Win32,59.90176111,627c6715c52fd12f31907bcf,,,,,,,,,,,,,,,,,,,,,,,a,1,0.5681,"[""0.450"",""0.527"",""0.847"",""0.924""]","[0,1,1,1]",0,60,60,60,1,0,1,,,1,FALSE,,,,,,,,,,,,,,,,,,,,,,,,,,,,,,,
,5c0333c84e1b7b00016a83fd,627c6f22b368a87425bdae63,2022-05-12_03h23.07.075,classification_task,2021.2.3,Win32,59.90176111,627c6715c52fd12f31907bcf,,,,,,,,,,,,,,,,,,,,,,,a,1,0.5324,"[""0.443"",""0.387"",""0.608"",""0.882""]","[0,1,1,1]",0,61,61,61,1,0,0,,,1,FALSE,,,,,,,,,,,,,,,,,,,,,,,,,,,,,,,
,5c0333c84e1b7b00016a83fd,627c6f22b368a87425bdae63,2022-05-12_03h23.07.075,classification_task,2021.2.3,Win32,59.90176111,627c6715c52fd12f31907bcf,,,,,,,,,,,,,,,,,,,,,,,l,1,0.8159,"[""0.450"",""0.168"",""0.644"",""0.715""]","[0,1,1,1]",0,62,62,62,1,1,1,,,1,FALSE,,,,,,,,,,,,,,,,,,,,,,,,,,,,,,,
,5c0333c84e1b7b00016a83fd,627c6f22b368a87425bdae63,2022-05-12_03h23.07.075,classification_task,2021.2.3,Win32,59.90176111,627c6715c52fd12f31907bcf,,,,,,,,,,,,,,,,,,,,,,,l,1,0.4991,"[""0.038"",""0.168"",""0.679"",""0.715""]","[1,1,0,1]",0,63,63,63,1,1,1,,,1,FALSE,,,,,,,,,,,,,,,,,,,,,,,,,,,,,,,
,5c0333c84e1b7b00016a83fd,627c6f22b368a87425bdae63,2022-05-12_03h23.07.075,classification_task,2021.2.3,Win32,59.90176111,627c6715c52fd12f31907bcf,,,,,,,,,,,,,,,,,,,,,,,,,,,,,,,,,,,,,,,0, ,,0,5.097981579,504.9703,0,0,0,0,1,2,1,,,,,,,,,,,,,,,,,,
,5c0333c84e1b7b00016a83fd,627c6f22b368a87425bdae63,2022-05-12_03h23.07.075,classification_task,2021.2.3,Win32,59.90176111,627c6715c52fd12f31907bcf,,,,,,,,,,,,,,,,,,,,,,,,,,,,,,,,,,,,,,,1,  ,,0,5.416421713,523.1342,0,0,0,0,1,2,1,,,,,,,,,,,,,,,,,,
,5c0333c84e1b7b00016a83fd,627c6f22b368a87425bdae63,2022-05-12_03h23.07.075,classification_task,2021.2.3,Win32,59.90176111,627c6715c52fd12f31907bcf,,,,,,,,,,,,,,,,,,,,,,,,,,,,,,,,,,,,,,,2,  ,,0,1.570644719,514.8518,0,0,0,0,1,2,1,,,,,,,,,,,,,,,,,,
,5c0333c84e1b7b00016a83fd,627c6f22b368a87425bdae63,2022-05-12_03h23.07.075,classification_task,2021.2.3,Win32,59.90176111,627c6715c52fd12f31907bcf,,,,,,,,,,,,,,,,,,,,,,,,,,,,,,,,,,,,,,,,,,,,,0,0,0,0,1,,1,,,,,,,,,,,,,,,,,,
,5c0333c84e1b7b00016a83fd,627c6f22b368a87425bdae63,2022-05-12_03h23.07.075,classification_task,2021.2.3,Win32,59.90176111,627c6715c52fd12f31907bcf,,,,,,,,,,,,,,,,,,,,,space,13.7196,a,0,1.1305,"[""0.038"",""0.168"",""0.443"",""0.715""]","[1,1,0,1]",0,0,0,0,1,1,1,,,1,FALSE,,,,,,,,,,,,,,,,,,,,,,,,,,,,,,,
,5c0333c84e1b7b00016a83fd,627c6f22b368a87425bdae63,2022-05-12_03h23.07.075,classification_task,2021.2.3,Win32,59.90176111,627c6715c52fd12f31907bcf,,,,,,,,,,,,,,,,,,,,,,,l,1,0.7142,"[""0.038"",""0.567"",""0.644"",""0.715""]","[1,0,1,1]",0,1,1,1,1,1,1,,,1,FALSE,,,,,,,,,,,,,,,,,,,,,,,,,,,,,,,
,5c0333c84e1b7b00016a83fd,627c6f22b368a87425bdae63,2022-05-12_03h23.07.075,classification_task,2021.2.3,Win32,59.90176111,627c6715c52fd12f31907bcf,,,,,,,,,,,,,,,,,,,,,,,a,1,0.6994,"[""0.325"",""0.387"",""0.608"",""0.961""]","[1,1,1,0]",0,2,2,2,1,0,0,,,1,FALSE,,,,,,,,,,,,,,,,,,,,,,,,,,,,,,,
,5c0333c84e1b7b00016a83fd,627c6f22b368a87425bdae63,2022-05-12_03h23.07.075,classification_task,2021.2.3,Win32,59.90176111,627c6715c52fd12f31907bcf,,,,,,,,,,,,,,,,,,,,,,,l,1,0.7181,"[""0.561"",""0.168"",""0.644"",""0.715""]","[0,1,1,1]",0,3,3,3,1,1,1,,,1,FALSE,,,,,,,,,,,,,,,,,,,,,,,,,,,,,,,
,5c0333c84e1b7b00016a83fd,627c6f22b368a87425bdae63,2022-05-12_03h23.07.075,classification_task,2021.2.3,Win32,59.90176111,627c6715c52fd12f31907bcf,,,,,,,,,,,,,,,,,,,,,,,l,0,0.5652,"[""0.961"",""0.527"",""0.847"",""0.924""]","[0,1,1,1]",0,4,4,4,1,0,1,,,1,FALSE,,,,,,,,,,,,,,,,,,,,,,,,,,,,,,,
,5c0333c84e1b7b00016a83fd,627c6f22b368a87425bdae63,2022-05-12_03h23.07.075,classification_task,2021.2.3,Win32,59.90176111,627c6715c52fd12f31907bcf,,,,,,,,,,,,,,,,,,,,,,,a,1,0.8143,"[""0.325"",""0.387"",""0.456"",""0.882""]","[1,1,0,1]",0,5,5,5,1,0,0,,,1,FALSE,,,,,,,,,,,,,,,,,,,,,,,,,,,,,,,
,5c0333c84e1b7b00016a83fd,627c6f22b368a87425bdae63,2022-05-12_03h23.07.075,classification_task,2021.2.3,Win32,59.90176111,627c6715c52fd12f31907bcf,,,,,,,,,,,,,,,,,,,,,,,a,1,0.5159,"[""0.325"",""0.561"",""0.608"",""0.882""]","[1,0,1,1]",0,6,6,6,1,0,0,,,1,FALSE,,,,,,,,,,,,,,,,,,,,,,,,,,,,,,,
,5c0333c84e1b7b00016a83fd,627c6f22b368a87425bdae63,2022-05-12_03h23.07.075,classification_task,2021.2.3,Win32,59.90176111,627c6715c52fd12f31907bcf,,,,,,,,,,,,,,,,,,,,,,,a,1,0.4664,"[""0.284"",""0.448"",""0.847"",""0.924""]","[1,0,1,1]",0,7,7,7,1,0,1,,,1,FALSE,,,,,,,,,,,,,,,,,,,,,,,,,,,,,,,
,5c0333c84e1b7b00016a83fd,627c6f22b368a87425bdae63,2022-05-12_03h23.07.075,classification_task,2021.2.3,Win32,59.90176111,627c6715c52fd12f31907bcf,,,,,,,,,,,,,,,,,,,,,,,a,1,0.5496,"[""0.284"",""0.527"",""0.679"",""0.924""]","[1,1,0,1]",0,8,8,8,1,0,1,,,1,FALSE,,,,,,,,,,,,,,,,,,,,,,,,,,,,,,,
,5c0333c84e1b7b00016a83fd,627c6f22b368a87425bdae63,2022-05-12_03h23.07.075,classification_task,2021.2.3,Win32,59.90176111,627c6715c52fd12f31907bcf,,,,,,,,,,,,,,,,,,,,,,,l,1,0.7328,"[""0.086"",""0.122"",""0.567"",""0.774""]","[1,1,0,1]",0,9,9,9,1,1,0,,,1,FALSE,,,,,,,,,,,,,,,,,,,,,,,,,,,,,,,
,5c0333c84e1b7b00016a83fd,627c6f22b368a87425bdae63,2022-05-12_03h23.07.075,classification_task,2021.2.3,Win32,59.90176111,627c6715c52fd12f31907bcf,,,,,,,,,,,,,,,,,,,,,,,a,1,0.6005,"[""0.448"",""0.387"",""0.608"",""0.882""]","[0,1,1,1]",0,10,10,10,1,0,0,,,1,FALSE,,,,,,,,,,,,,,,,,,,,,,,,,,,,,,,
,5c0333c84e1b7b00016a83fd,627c6f22b368a87425bdae63,2022-05-12_03h23.07.075,classification_task,2021.2.3,Win32,59.90176111,627c6715c52fd12f31907bcf,,,,,,,,,,,,,,,,,,,,,,,l,1,0.4658,"[""0.038"",""0.168"",""0.644"",""0.456""]","[1,1,1,0]",0,11,11,11,1,1,1,,,1,FALSE,,,,,,,,,,,,,,,,,,,,,,,,,,,,,,,
,5c0333c84e1b7b00016a83fd,627c6f22b368a87425bdae63,2022-05-12_03h23.07.075,classification_task,2021.2.3,Win32,59.90176111,627c6715c52fd12f31907bcf,,,,,,,,,,,,,,,,,,,,,,,l,1,0.4975,"[""0.567"",""0.122"",""0.490"",""0.774""]","[0,1,1,1]",0,12,12,12,1,1,0,,,1,FALSE,,,,,,,,,,,,,,,,,,,,,,,,,,,,,,,
,5c0333c84e1b7b00016a83fd,627c6f22b368a87425bdae63,2022-05-12_03h23.07.075,classification_task,2021.2.3,Win32,59.90176111,627c6715c52fd12f31907bcf,,,,,,,,,,,,,,,,,,,,,,,l,1,0.4646,"[""0.086"",""0.571"",""0.490"",""0.774""]","[1,0,1,1]",0,13,13,13,1,1,0,,,1,FALSE,,,,,,,,,,,,,,,,,,,,,,,,,,,,,,,
,5c0333c84e1b7b00016a83fd,627c6f22b368a87425bdae63,2022-05-12_03h23.07.075,classification_task,2021.2.3,Win32,59.90176111,627c6715c52fd12f31907bcf,,,,,,,,,,,,,,,,,,,,,,,l,1,0.4478,"[""0.086"",""0.122"",""0.490"",""0.456""]","[1,1,1,0]",0,14,14,14,1,1,0,,,1,FALSE,,,,,,,,,,,,,,,,,,,,,,,,,,,,,,,
,5c0333c84e1b7b00016a83fd,627c6f22b368a87425bdae63,2022-05-12_03h23.07.075,classification_task,2021.2.3,Win32,59.90176111,627c6715c52fd12f31907bcf,,,,,,,,,,,,,,,,,,,,,,,a,1,0.5175,"[""0.284"",""0.527"",""0.847"",""0.230""]","[1,1,1,0]",0,15,15,15,1,0,1,,,1,FALSE,,,,,,,,,,,,,,,,,,,,,,,,,,,,,,,
,5c0333c84e1b7b00016a83fd,627c6f22b368a87425bdae63,2022-05-12_03h23.07.075,classification_task,2021.2.3,Win32,59.90176111,627c6715c52fd12f31907bcf,,,,,,,,,,,,,,,,,,,,,,,l,1,0.3987,"[""0.086"",""0.122"",""0.490"",""0.450""]","[1,1,1,0]",0,16,16,16,1,1,0,,,1,FALSE,,,,,,,,,,,,,,,,,,,,,,,,,,,,,,,
,5c0333c84e1b7b00016a83fd,627c6f22b368a87425bdae63,2022-05-12_03h23.07.075,classification_task,2021.2.3,Win32,59.90176111,627c6715c52fd12f31907bcf,,,,,,,,,,,,,,,,,,,,,,,a,1,2.2319,"[""0.325"",""0.387"",""0.608"",""0.561""]","[1,1,1,0]",0,17,17,17,1,0,0,,,1,FALSE,,,,,,,,,,,,,,,,,,,,,,,,,,,,,,,
,5c0333c84e1b7b00016a83fd,627c6f22b368a87425bdae63,2022-05-12_03h23.07.075,classification_task,2021.2.3,Win32,59.90176111,627c6715c52fd12f31907bcf,,,,,,,,,,,,,,,,,,,,,,,l,1,0.9996,"[""0.086"",""0.443"",""0.490"",""0.774""]","[1,0,1,1]",0,18,18,18,1,1,0,,,1,FALSE,,,,,,,,,,,,,,,,,,,,,,,,,,,,,,,
,5c0333c84e1b7b00016a83fd,627c6f22b368a87425bdae63,2022-05-12_03h23.07.075,classification_task,2021.2.3,Win32,59.90176111,627c6715c52fd12f31907bcf,,,,,,,,,,,,,,,,,,,,,,,l,1,0.5811,"[""0.038"",""0.168"",""0.644"",""0.244""]","[1,1,1,0]",0,19,19,19,1,1,1,,,1,FALSE,,,,,,,,,,,,,,,,,,,,,,,,,,,,,,,
,5c0333c84e1b7b00016a83fd,627c6f22b368a87425bdae63,2022-05-12_03h23.07.075,classification_task,2021.2.3,Win32,59.90176111,627c6715c52fd12f31907bcf,,,,,,,,,,,,,,,,,,,,,,,a,1,0.6828,"[""0.561"",""0.527"",""0.847"",""0.924""]","[0,1,1,1]",0,20,20,20,1,0,1,,,1,FALSE,,,,,,,,,,,,,,,,,,,,,,,,,,,,,,,
,5c0333c84e1b7b00016a83fd,627c6f22b368a87425bdae63,2022-05-12_03h23.07.075,classification_task,2021.2.3,Win32,59.90176111,627c6715c52fd12f31907bcf,,,,,,,,,,,,,,,,,,,,,,,l,1,0.4977,"[""0.565"",""0.122"",""0.490"",""0.774""]","[0,1,1,1]",0,21,21,21,1,1,0,,,1,FALSE,,,,,,,,,,,,,,,,,,,,,,,,,,,,,,,
,5c0333c84e1b7b00016a83fd,627c6f22b368a87425bdae63,2022-05-12_03h23.07.075,classification_task,2021.2.3,Win32,59.90176111,627c6715c52fd12f31907bcf,,,,,,,,,,,,,,,,,,,,,,,l,1,0.4989,"[""0.038"",""0.168"",""0.448"",""0.715""]","[1,1,0,1]",0,22,22,22,1,1,1,,,1,FALSE,,,,,,,,,,,,,,,,,,,,,,,,,,,,,,,
,5c0333c84e1b7b00016a83fd,627c6f22b368a87425bdae63,2022-05-12_03h23.07.075,classification_task,2021.2.3,Win32,59.90176111,627c6715c52fd12f31907bcf,,,,,,,,,,,,,,,,,,,,,,,a,1,0.5145,"[""0.325"",""0.450"",""0.608"",""0.882""]","[1,0,1,1]",0,23,23,23,1,0,0,,,1,FALSE,,,,,,,,,,,,,,,,,,,,,,,,,,,,,,,
,5c0333c84e1b7b00016a83fd,627c6f22b368a87425bdae63,2022-05-12_03h23.07.075,classification_task,2021.2.3,Win32,59.90176111,627c6715c52fd12f31907bcf,,,,,,,,,,,,,,,,,,,,,,,l,1,0.5134,"[""0.086"",""0.122"",""0.567"",""0.774""]","[1,1,0,1]",0,24,24,24,1,1,0,,,1,FALSE,,,,,,,,,,,,,,,,,,,,,,,,,,,,,,,
,5c0333c84e1b7b00016a83fd,627c6f22b368a87425bdae63,2022-05-12_03h23.07.075,classification_task,2021.2.3,Win32,59.90176111,627c6715c52fd12f31907bcf,,,,,,,,,,,,,,,,,,,,,,,a,0,0.4492,"[""0.961"",""0.168"",""0.644"",""0.715""]","[0,1,1,1]",0,25,25,25,1,1,1,,,1,FALSE,,,,,,,,,,,,,,,,,,,,,,,,,,,,,,,
,5c0333c84e1b7b00016a83fd,627c6f22b368a87425bdae63,2022-05-12_03h23.07.075,classification_task,2021.2.3,Win32,59.90176111,627c6715c52fd12f31907bcf,,,,,,,,,,,,,,,,,,,,,,,a,1,0.9158,"[""0.325"",""0.387"",""0.443"",""0.882""]","[1,1,0,1]",0,26,26,26,1,0,0,,,1,FALSE,,,,,,,,,,,,,,,,,,,,,,,,,,,,,,,
,5c0333c84e1b7b00016a83fd,627c6f22b368a87425bdae63,2022-05-12_03h23.07.075,classification_task,2021.2.3,Win32,59.90176111,627c6715c52fd12f31907bcf,,,,,,,,,,,,,,,,,,,,,,,a,1,1.4169,"[""0.284"",""0.527"",""0.847"",""0.244""]","[1,1,1,0]",0,27,27,27,1,0,1,,,1,FALSE,,,,,,,,,,,,,,,,,,,,,,,,,,,,,,,
,5c0333c84e1b7b00016a83fd,627c6f22b368a87425bdae63,2022-05-12_03h23.07.075,classification_task,2021.2.3,Win32,59.90176111,627c6715c52fd12f31907bcf,,,,,,,,,,,,,,,,,,,,,,,a,1,1.1485,"[""0.284"",""0.443"",""0.847"",""0.924""]","[1,0,1,1]",0,28,28,28,1,0,1,,,1,FALSE,,,,,,,,,,,,,,,,,,,,,,,,,,,,,,,
,5c0333c84e1b7b00016a83fd,627c6f22b368a87425bdae63,2022-05-12_03h23.07.075,classification_task,2021.2.3,Win32,59.90176111,627c6715c52fd12f31907bcf,,,,,,,,,,,,,,,,,,,,,,,l,1,0.8006,"[""0.038"",""0.571"",""0.644"",""0.715""]","[1,0,1,1]",0,29,29,29,1,1,1,,,1,FALSE,,,,,,,,,,,,,,,,,,,,,,,,,,,,,,,
,5c0333c84e1b7b00016a83fd,627c6f22b368a87425bdae63,2022-05-12_03h23.07.075,classification_task,2021.2.3,Win32,59.90176111,627c6715c52fd12f31907bcf,,,,,,,,,,,,,,,,,,,,,,,a,1,0.9665,"[""0.226"",""0.387"",""0.608"",""0.882""]","[0,1,1,1]",0,30,30,30,1,0,0,,,1,FALSE,,,,,,,,,,,,,,,,,,,,,,,,,,,,,,,
,5c0333c84e1b7b00016a83fd,627c6f22b368a87425bdae63,2022-05-12_03h23.07.075,classification_task,2021.2.3,Win32,59.90176111,627c6715c52fd12f31907bcf,,,,,,,,,,,,,,,,,,,,,,,a,1,0.7321,"[""0.284"",""0.527"",""0.571"",""0.924""]","[1,1,0,1]",0,31,31,31,1,0,1,,,1,FALSE,,,,,,,,,,,,,,,,,,,,,,,,,,,,,,,
,5c0333c84e1b7b00016a83fd,627c6f22b368a87425bdae63,2022-05-12_03h23.07.075,classification_task,2021.2.3,Win32,59.90176111,627c6715c52fd12f31907bcf,,,,,,,,,,,,,,,,,,,,,,,a,1,0.6656,"[""0.325"",""0.679"",""0.608"",""0.882""]","[1,0,1,1]",0,32,32,32,1,0,0,,,1,FALSE,,,,,,,,,,,,,,,,,,,,,,,,,,,,,,,
,5c0333c84e1b7b00016a83fd,627c6f22b368a87425bdae63,2022-05-12_03h23.07.075,classification_task,2021.2.3,Win32,59.90176111,627c6715c52fd12f31907bcf,,,,,,,,,,,,,,,,,,,,,,,l,1,0.9487,"[""0.038"",""0.168"",""0.561"",""0.715""]","[1,1,0,1]",0,33,33,33,1,1,1,,,1,FALSE,,,,,,,,,,,,,,,,,,,,,,,,,,,,,,,
,5c0333c84e1b7b00016a83fd,627c6f22b368a87425bdae63,2022-05-12_03h23.07.075,classification_task,2021.2.3,Win32,59.90176111,627c6715c52fd12f31907bcf,,,,,,,,,,,,,,,,,,,,,,,a,1,0.5499,"[""0.567"",""0.387"",""0.608"",""0.882""]","[0,1,1,1]",0,34,34,34,1,0,0,,,1,FALSE,,,,,,,,,,,,,,,,,,,,,,,,,,,,,,,
,5c0333c84e1b7b00016a83fd,627c6f22b368a87425bdae63,2022-05-12_03h23.07.075,classification_task,2021.2.3,Win32,59.90176111,627c6715c52fd12f31907bcf,,,,,,,,,,,,,,,,,,,,,,,l,1,0.9157,"[""0.086"",""0.122"",""0.490"",""0.561""]","[1,1,1,0]",0,35,35,35,1,1,0,,,1,FALSE,,,,,,,,,,,,,,,,,,,,,,,,,,,,,,,
,5c0333c84e1b7b00016a83fd,627c6f22b368a87425bdae63,2022-05-12_03h23.07.075,classification_task,2021.2.3,Win32,59.90176111,627c6715c52fd12f31907bcf,,,,,,,,,,,,,,,,,,,,,,,l,0,3.0635,"[""0.325"",""0.387"",""0.608"",""0.443""]","[1,1,1,0]",0,36,36,36,1,0,0,,,1,FALSE,,,,,,,,,,,,,,,,,,,,,,,,,,,,,,,
,5c0333c84e1b7b00016a83fd,627c6f22b368a87425bdae63,2022-05-12_03h23.07.075,classification_task,2021.2.3,Win32,59.90176111,627c6715c52fd12f31907bcf,,,,,,,,,,,,,,,,,,,,,,,a,1,1.3168,"[""0.284"",""0.527"",""0.847"",""0.443""]","[1,1,1,0]",0,37,37,37,1,0,1,,,1,FALSE,,,,,,,,,,,,,,,,,,,,,,,,,,,,,,,
,5c0333c84e1b7b00016a83fd,627c6f22b368a87425bdae63,2022-05-12_03h23.07.075,classification_task,2021.2.3,Win32,59.90176111,627c6715c52fd12f31907bcf,,,,,,,,,,,,,,,,,,,,,,,a,1,0.8329,"[""0.561"",""0.527"",""0.847"",""0.924""]","[0,1,1,1]",0,38,38,38,1,0,1,,,1,FALSE,,,,,,,,,,,,,,,,,,,,,,,,,,,,,,,
,5c0333c84e1b7b00016a83fd,627c6f22b368a87425bdae63,2022-05-12_03h23.07.075,classification_task,2021.2.3,Win32,59.90176111,627c6715c52fd12f31907bcf,,,,,,,,,,,,,,,,,,,,,,,a,1,0.5319,"[""0.325"",""0.387"",""0.561"",""0.882""]","[1,1,0,1]",0,39,39,39,1,0,0,,,1,FALSE,,,,,,,,,,,,,,,,,,,,,,,,,,,,,,,
,5c0333c84e1b7b00016a83fd,627c6f22b368a87425bdae63,2022-05-12_03h23.07.075,classification_task,2021.2.3,Win32,59.90176111,627c6715c52fd12f31907bcf,,,,,,,,,,,,,,,,,,,,,,,a,1,0.6476,"[""0.284"",""0.561"",""0.847"",""0.924""]","[1,0,1,1]",0,40,40,40,1,0,1,,,1,FALSE,,,,,,,,,,,,,,,,,,,,,,,,,,,,,,,
,5c0333c84e1b7b00016a83fd,627c6f22b368a87425bdae63,2022-05-12_03h23.07.075,classification_task,2021.2.3,Win32,59.90176111,627c6715c52fd12f31907bcf,,,,,,,,,,,,,,,,,,,,,,,l,1,0.4979,"[""0.038"",""0.168"",""0.644"",""0.448""]","[1,1,1,0]",0,41,41,41,1,1,1,,,1,FALSE,,,,,,,,,,,,,,,,,,,,,,,,,,,,,,,
,5c0333c84e1b7b00016a83fd,627c6f22b368a87425bdae63,2022-05-12_03h23.07.075,classification_task,2021.2.3,Win32,59.90176111,627c6715c52fd12f31907bcf,,,,,,,,,,,,,,,,,,,,,,,l,1,0.4638,"[""0.086"",""0.122"",""0.244"",""0.774""]","[1,1,0,1]",0,42,42,42,1,1,0,,,1,FALSE,,,,,,,,,,,,,,,,,,,,,,,,,,,,,,,
,5c0333c84e1b7b00016a83fd,627c6f22b368a87425bdae63,2022-05-12_03h23.07.075,classification_task,2021.2.3,Win32,59.90176111,627c6715c52fd12f31907bcf,,,,,,,,,,,,,,,,,,,,,,,a,1,0.8838,"[""0.284"",""0.527"",""0.450"",""0.924""]","[1,1,0,1]",0,43,43,43,1,0,1,,,1,FALSE,,,,,,,,,,,,,,,,,,,,,,,,,,,,,,,
,5c0333c84e1b7b00016a83fd,627c6f22b368a87425bdae63,2022-05-12_03h23.07.075,classification_task,2021.2.3,Win32,59.90176111,627c6715c52fd12f31907bcf,,,,,,,,,,,,,,,,,,,,,,,l,1,1.0667,"[""0.086"",""0.443"",""0.490"",""0.774""]","[1,0,1,1]",0,44,44,44,1,1,0,,,1,FALSE,,,,,,,,,,,,,,,,,,,,,,,,,,,,,,,
,5c0333c84e1b7b00016a83fd,627c6f22b368a87425bdae63,2022-05-12_03h23.07.075,classification_task,2021.2.3,Win32,59.90176111,627c6715c52fd12f31907bcf,,,,,,,,,,,,,,,,,,,,,,,l,1,0.6662,"[""0.038"",""0.230"",""0.644"",""0.715""]","[1,0,1,1]",0,45,45,45,1,1,1,,,1,FALSE,,,,,,,,,,,,,,,,,,,,,,,,,,,,,,,
,5c0333c84e1b7b00016a83fd,627c6f22b368a87425bdae63,2022-05-12_03h23.07.075,classification_task,2021.2.3,Win32,59.90176111,627c6715c52fd12f31907bcf,,,,,,,,,,,,,,,,,,,,,,,l,1,0.8141,"[""0.226"",""0.168"",""0.644"",""0.715""]","[0,1,1,1]",0,46,46,46,1,1,1,,,1,FALSE,,,,,,,,,,,,,,,,,,,,,,,,,,,,,,,
,5c0333c84e1b7b00016a83fd,627c6f22b368a87425bdae63,2022-05-12_03h23.07.075,classification_task,2021.2.3,Win32,59.90176111,627c6715c52fd12f31907bcf,,,,,,,,,,,,,,,,,,,,,,,l,1,0.5152,"[""0.230"",""0.122"",""0.490"",""0.774""]","[0,1,1,1]",0,47,47,47,1,1,0,,,1,FALSE,,,,,,,,,,,,,,,,,,,,,,,,,,,,,,,
,5c0333c84e1b7b00016a83fd,627c6f22b368a87425bdae63,2022-05-12_03h23.07.075,classification_task,2021.2.3,Win32,59.90176111,627c6715c52fd12f31907bcf,,,,,,,,,,,,,,,,,,,,,,,a,1,0.5661,"[""0.284"",""0.527"",""0.565"",""0.924""]","[1,1,0,1]",0,48,48,48,1,0,1,,,1,FALSE,,,,,,,,,,,,,,,,,,,,,,,,,,,,,,,
,5c0333c84e1b7b00016a83fd,627c6f22b368a87425bdae63,2022-05-12_03h23.07.075,classification_task,2021.2.3,Win32,59.90176111,627c6715c52fd12f31907bcf,,,,,,,,,,,,,,,,,,,,,,,a,1,0.6488,"[""0.325"",""0.387"",""0.567"",""0.882""]","[1,1,0,1]",0,49,49,49,1,0,0,,,1,FALSE,,,,,,,,,,,,,,,,,,,,,,,,,,,,,,,
,5c0333c84e1b7b00016a83fd,627c6f22b368a87425bdae63,2022-05-12_03h23.07.075,classification_task,2021.2.3,Win32,59.90176111,627c6715c52fd12f31907bcf,,,,,,,,,,,,,,,,,,,,,,,a,1,0.632,"[""0.284"",""0.527"",""0.847"",""0.443""]","[1,1,1,0]",0,50,50,50,1,0,1,,,1,FALSE,,,,,,,,,,,,,,,,,,,,,,,,,,,,,,,
,5c0333c84e1b7b00016a83fd,627c6f22b368a87425bdae63,2022-05-12_03h23.07.075,classification_task,2021.2.3,Win32,59.90176111,627c6715c52fd12f31907bcf,,,,,,,,,,,,,,,,,,,,,,,l,1,0.7489,"[""0.086"",""0.122"",""0.456"",""0.774""]","[1,1,0,1]",0,51,51,51,1,1,0,,,1,FALSE,,,,,,,,,,,,,,,,,,,,,,,,,,,,,,,
,5c0333c84e1b7b00016a83fd,627c6f22b368a87425bdae63,2022-05-12_03h23.07.075,classification_task,2021.2.3,Win32,59.90176111,627c6715c52fd12f31907bcf,,,,,,,,,,,,,,,,,,,,,,,l,1,0.5645,"[""0.038"",""0.168"",""0.230"",""0.715""]","[1,1,0,1]",0,52,52,52,1,1,1,,,1,FALSE,,,,,,,,,,,,,,,,,,,,,,,,,,,,,,,
,5c0333c84e1b7b00016a83fd,627c6f22b368a87425bdae63,2022-05-12_03h23.07.075,classification_task,2021.2.3,Win32,59.90176111,627c6715c52fd12f31907bcf,,,,,,,,,,,,,,,,,,,,,,,a,1,0.7656,"[""0.284"",""0.567"",""0.847"",""0.924""]","[1,0,1,1]",0,53,53,53,1,0,1,,,1,FALSE,,,,,,,,,,,,,,,,,,,,,,,,,,,,,,,
,5c0333c84e1b7b00016a83fd,627c6f22b368a87425bdae63,2022-05-12_03h23.07.075,classification_task,2021.2.3,Win32,59.90176111,627c6715c52fd12f31907bcf,,,,,,,,,,,,,,,,,,,,,,,l,1,0.4829,"[""0.038"",""0.168"",""0.644"",""0.456""]","[1,1,1,0]",0,54,54,54,1,1,1,,,1,FALSE,,,,,,,,,,,,,,,,,,,,,,,,,,,,,,,
,5c0333c84e1b7b00016a83fd,627c6f22b368a87425bdae63,2022-05-12_03h23.07.075,classification_task,2021.2.3,Win32,59.90176111,627c6715c52fd12f31907bcf,,,,,,,,,,,,,,,,,,,,,,,a,1,0.6326,"[""0.571"",""0.527"",""0.847"",""0.924""]","[0,1,1,1]",0,55,55,55,1,0,1,,,1,FALSE,,,,,,,,,,,,,,,,,,,,,,,,,,,,,,,
,5c0333c84e1b7b00016a83fd,627c6f22b368a87425bdae63,2022-05-12_03h23.07.075,classification_task,2021.2.3,Win32,59.90176111,627c6715c52fd12f31907bcf,,,,,,,,,,,,,,,,,,,,,,,l,0,0.8167,"[""0.325"",""0.387"",""0.608"",""0.456""]","[1,1,1,0]",0,56,56,56,1,0,0,,,1,FALSE,,,,,,,,,,,,,,,,,,,,,,,,,,,,,,,
,5c0333c84e1b7b00016a83fd,627c6f22b368a87425bdae63,2022-05-12_03h23.07.075,classification_task,2021.2.3,Win32,59.90176111,627c6715c52fd12f31907bcf,,,,,,,,,,,,,,,,,,,,,,,l,1,0.8323,"[""0.448"",""0.168"",""0.644"",""0.715""]","[0,1,1,1]",0,57,57,57,1,1,1,,,1,FALSE,,,,,,,,,,,,,,,,,,,,,,,,,,,,,,,
,5c0333c84e1b7b00016a83fd,627c6f22b368a87425bdae63,2022-05-12_03h23.07.075,classification_task,2021.2.3,Win32,59.90176111,627c6715c52fd12f31907bcf,,,,,,,,,,,,,,,,,,,,,,,l,1,0.5496,"[""0.679"",""0.122"",""0.490"",""0.774""]","[0,1,1,1]",0,58,58,58,1,1,0,,,1,FALSE,,,,,,,,,,,,,,,,,,,,,,,,,,,,,,,
,5c0333c84e1b7b00016a83fd,627c6f22b368a87425bdae63,2022-05-12_03h23.07.075,classification_task,2021.2.3,Win32,59.90176111,627c6715c52fd12f31907bcf,,,,,,,,,,,,,,,,,,,,,,,a,1,0.7981,"[""0.679"",""0.387"",""0.608"",""0.882""]","[0,1,1,1]",0,59,59,59,1,0,0,,,1,FALSE,,,,,,,,,,,,,,,,,,,,,,,,,,,,,,,
,5c0333c84e1b7b00016a83fd,627c6f22b368a87425bdae63,2022-05-12_03h23.07.075,classification_task,2021.2.3,Win32,59.90176111,627c6715c52fd12f31907bcf,,,,,,,,,,,,,,,,,,,,,,,a,1,0.4153,"[""0.325"",""0.571"",""0.608"",""0.882""]","[1,0,1,1]",0,60,60,60,1,0,0,,,1,FALSE,,,,,,,,,,,,,,,,,,,,,,,,,,,,,,,
,5c0333c84e1b7b00016a83fd,627c6f22b368a87425bdae63,2022-05-12_03h23.07.075,classification_task,2021.2.3,Win32,59.90176111,627c6715c52fd12f31907bcf,,,,,,,,,,,,,,,,,,,,,,,l,1,0.6319,"[""0.086"",""0.122"",""0.490"",""0.561""]","[1,1,1,0]",0,61,61,61,1,1,0,,,1,FALSE,,,,,,,,,,,,,,,,,,,,,,,,,,,,,,,
,5c0333c84e1b7b00016a83fd,627c6f22b368a87425bdae63,2022-05-12_03h23.07.075,classification_task,2021.2.3,Win32,59.90176111,627c6715c52fd12f31907bcf,,,,,,,,,,,,,,,,,,,,,,,l,1,0.5648,"[""0.086"",""0.244"",""0.490"",""0.774""]","[1,0,1,1]",0,62,62,62,1,1,0,,,1,FALSE,,,,,,,,,,,,,,,,,,,,,,,,,,,,,,,
,5c0333c84e1b7b00016a83fd,627c6f22b368a87425bdae63,2022-05-12_03h23.07.075,classification_task,2021.2.3,Win32,59.90176111,627c6715c52fd12f31907bcf,,,,,,,,,,,,,,,,,,,,,,,l,1,0.5323,"[""0.038"",""0.456"",""0.644"",""0.715""]","[1,0,1,1]",0,63,63,63,1,1,1,,,1,FALSE,,,,,,,,,,,,,,,,,,,,,,,,,,,,,,,
,5c0333c84e1b7b00016a83fd,627c6f22b368a87425bdae63,2022-05-12_03h23.07.075,classification_task,2021.2.3,Win32,59.90176111,627c6715c52fd12f31907bcf,,,,,,,,,,,,,,,,,,,,,,,,,,,,,,,,,,,,,,,0, ,,0,5.097981579,143.9821,0,1,1,1,1,2,2,,,,,,,,,,,,,,,,,,
,5c0333c84e1b7b00016a83fd,627c6f22b368a87425bdae63,2022-05-12_03h23.07.075,classification_task,2021.2.3,Win32,59.90176111,627c6715c52fd12f31907bcf,,,,,,,,,,,,,,,,,,,,,,,,,,,,,,,,,,,,,,,1,  ,,0,3.040368411,134.1156,0,1,1,1,1,2,2,,,,,,,,,,,,,,,,,,
,5c0333c84e1b7b00016a83fd,627c6f22b368a87425bdae63,2022-05-12_03h23.07.075,classification_task,2021.2.3,Win32,59.90176111,627c6715c52fd12f31907bcf,,,,,,,,,,,,,,,,,,,,,,,,,,,,,,,,,,,,,,,2,  ,,0,0.41936116,137.3659,0,1,1,1,1,2,2,,,,,,,,,,,,,,,,,,
,5c0333c84e1b7b00016a83fd,627c6f22b368a87425bdae63,2022-05-12_03h23.07.075,classification_task,2021.2.3,Win32,59.90176111,627c6715c52fd12f31907bcf,,,,,,,,,,,,,,,,,,,,,,,,,,,,,,,,,,,,,,,,,,,,,0,1,1,1,1,,2,,,,,,,,,,,,,,,,,,
,5c0333c84e1b7b00016a83fd,627c6f22b368a87425bdae63,2022-05-12_03h23.07.075,classification_task,2021.2.3,Win32,59.90176111,627c6715c52fd12f31907bcf,,,,,,,,,,,,,,,,,,,,,space,8.3509,a,0,2.9996,"[""0.961"",""0.168"",""0.644"",""0.715""]","[0,1,1,1]",0,0,0,0,1,1,1,,,1,FALSE,,,,,,,,,,,,,,,,,,,,,,,,,,,,,,,
,5c0333c84e1b7b00016a83fd,627c6f22b368a87425bdae63,2022-05-12_03h23.07.075,classification_task,2021.2.3,Win32,59.90176111,627c6715c52fd12f31907bcf,,,,,,,,,,,,,,,,,,,,,,,l,1,0.7161,"[""0.086"",""0.122"",""0.490"",""0.456""]","[1,1,1,0]",0,1,1,1,1,1,0,,,1,FALSE,,,,,,,,,,,,,,,,,,,,,,,,,,,,,,,
,5c0333c84e1b7b00016a83fd,627c6f22b368a87425bdae63,2022-05-12_03h23.07.075,classification_task,2021.2.3,Win32,59.90176111,627c6715c52fd12f31907bcf,,,,,,,,,,,,,,,,,,,,,,,l,1,0.6994,"[""0.086"",""0.561"",""0.490"",""0.774""]","[1,0,1,1]",0,2,2,2,1,1,0,,,1,FALSE,,,,,,,,,,,,,,,,,,,,,,,,,,,,,,,
,5c0333c84e1b7b00016a83fd,627c6f22b368a87425bdae63,2022-05-12_03h23.07.075,classification_task,2021.2.3,Win32,59.90176111,627c6715c52fd12f31907bcf,,,,,,,,,,,,,,,,,,,,,,,a,1,0.6993,"[""0.325"",""0.387"",""0.230"",""0.882""]","[1,1,0,1]",0,3,3,3,1,0,0,,,1,FALSE,,,,,,,,,,,,,,,,,,,,,,,,,,,,,,,
,5c0333c84e1b7b00016a83fd,627c6f22b368a87425bdae63,2022-05-12_03h23.07.075,classification_task,2021.2.3,Win32,59.90176111,627c6715c52fd12f31907bcf,,,,,,,,,,,,,,,,,,,,,,,l,1,0.6511,"[""0.038"",""0.168"",""0.644"",""0.443""]","[1,1,1,0]",0,4,4,4,1,1,1,,,1,FALSE,,,,,,,,,,,,,,,,,,,,,,,,,,,,,,,
,5c0333c84e1b7b00016a83fd,627c6f22b368a87425bdae63,2022-05-12_03h23.07.075,classification_task,2021.2.3,Win32,59.90176111,627c6715c52fd12f31907bcf,,,,,,,,,,,,,,,,,,,,,,,l,1,0.6168,"[""0.086"",""0.122"",""0.226"",""0.774""]","[1,1,0,1]",0,5,5,5,1,1,0,,,1,FALSE,,,,,,,,,,,,,,,,,,,,,,,,,,,,,,,
,5c0333c84e1b7b00016a83fd,627c6f22b368a87425bdae63,2022-05-12_03h23.07.075,classification_task,2021.2.3,Win32,59.90176111,627c6715c52fd12f31907bcf,,,,,,,,,,,,,,,,,,,,,,,a,1,0.518,"[""0.325"",""0.571"",""0.608"",""0.882""]","[1,0,1,1]",0,6,6,6,1,0,0,,,1,FALSE,,,,,,,,,,,,,,,,,,,,,,,,,,,,,,,
,5c0333c84e1b7b00016a83fd,627c6f22b368a87425bdae63,2022-05-12_03h23.07.075,classification_task,2021.2.3,Win32,59.90176111,627c6715c52fd12f31907bcf,,,,,,,,,,,,,,,,,,,,,,,a,1,0.6331,"[""0.284"",""0.561"",""0.847"",""0.924""]","[1,0,1,1]",0,7,7,7,1,0,1,,,1,FALSE,,,,,,,,,,,,,,,,,,,,,,,,,,,,,,,
,5c0333c84e1b7b00016a83fd,627c6f22b368a87425bdae63,2022-05-12_03h23.07.075,classification_task,2021.2.3,Win32,59.90176111,627c6715c52fd12f31907bcf,,,,,,,,,,,,,,,,,,,,,,,l,0,0.8485,"[""0.325"",""0.387"",""0.608"",""0.435""]","[1,1,1,0]",0,8,8,8,1,0,0,,,1,FALSE,,,,,,,,,,,,,,,,,,,,,,,,,,,,,,,
,5c0333c84e1b7b00016a83fd,627c6f22b368a87425bdae63,2022-05-12_03h23.07.075,classification_task,2021.2.3,Win32,59.90176111,627c6715c52fd12f31907bcf,,,,,,,,,,,,,,,,,,,,,,,a,1,0.5154,"[""0.561"",""0.387"",""0.608"",""0.882""]","[0,1,1,1]",0,9,9,9,1,0,0,,,1,FALSE,,,,,,,,,,,,,,,,,,,,,,,,,,,,,,,
,5c0333c84e1b7b00016a83fd,627c6f22b368a87425bdae63,2022-05-12_03h23.07.075,classification_task,2021.2.3,Win32,59.90176111,627c6715c52fd12f31907bcf,,,,,,,,,,,,,,,,,,,,,,,l,1,0.5144,"[""0.038"",""0.168"",""0.435"",""0.715""]","[1,1,0,1]",0,10,10,10,1,1,1,,,1,FALSE,,,,,,,,,,,,,,,,,,,,,,,,,,,,,,,
,5c0333c84e1b7b00016a83fd,627c6f22b368a87425bdae63,2022-05-12_03h23.07.075,classification_task,2021.2.3,Win32,59.90176111,627c6715c52fd12f31907bcf,,,,,,,,,,,,,,,,,,,,,,,a,1,0.7676,"[""0.284"",""0.527"",""0.847"",""0.435""]","[1,1,1,0]",0,11,11,11,1,0,1,,,1,FALSE,,,,,,,,,,,,,,,,,,,,,,,,,,,,,,,
,5c0333c84e1b7b00016a83fd,627c6f22b368a87425bdae63,2022-05-12_03h23.07.075,classification_task,2021.2.3,Win32,59.90176111,627c6715c52fd12f31907bcf,,,,,,,,,,,,,,,,,,,,,,,a,1,0.5324,"[""0.284"",""0.527"",""0.571"",""0.924""]","[1,1,0,1]",0,12,12,12,1,0,1,,,1,FALSE,,,,,,,,,,,,,,,,,,,,,,,,,,,,,,,
,5c0333c84e1b7b00016a83fd,627c6f22b368a87425bdae63,2022-05-12_03h23.07.075,classification_task,2021.2.3,Win32,59.90176111,627c6715c52fd12f31907bcf,,,,,,,,,,,,,,,,,,,,,,,a,1,0.515,"[""0.230"",""0.527"",""0.847"",""0.924""]","[0,1,1,1]",0,13,13,13,1,0,1,,,1,FALSE,,,,,,,,,,,,,,,,,,,,,,,,,,,,,,,
,5c0333c84e1b7b00016a83fd,627c6f22b368a87425bdae63,2022-05-12_03h23.07.075,classification_task,2021.2.3,Win32,59.90176111,627c6715c52fd12f31907bcf,,,,,,,,,,,,,,,,,,,,,,,l,1,0.4984,"[""0.038"",""0.230"",""0.644"",""0.715""]","[1,0,1,1]",0,14,14,14,1,1,1,,,1,FALSE,,,,,,,,,,,,,,,,,,,,,,,,,,,,,,,
,5c0333c84e1b7b00016a83fd,627c6f22b368a87425bdae63,2022-05-12_03h23.07.075,classification_task,2021.2.3,Win32,59.90176111,627c6715c52fd12f31907bcf,,,,,,,,,,,,,,,,,,,,,,,l,1,0.6823,"[""0.571"",""0.122"",""0.490"",""0.774""]","[0,1,1,1]",0,15,15,15,1,1,0,,,1,FALSE,,,,,,,,,,,,,,,,,,,,,,,,,,,,,,,
,5c0333c84e1b7b00016a83fd,627c6f22b368a87425bdae63,2022-05-12_03h23.07.075,classification_task,2021.2.3,Win32,59.90176111,627c6715c52fd12f31907bcf,,,,,,,,,,,,,,,,,,,,,,,l,0,0.8833,"[""0.325"",""0.387"",""0.608"",""0.244""]","[1,1,1,0]",0,16,16,16,1,0,0,,,1,FALSE,,,,,,,,,,,,,,,,,,,,,,,,,,,,,,,
,5c0333c84e1b7b00016a83fd,627c6f22b368a87425bdae63,2022-05-12_03h23.07.075,classification_task,2021.2.3,Win32,59.90176111,627c6715c52fd12f31907bcf,,,,,,,,,,,,,,,,,,,,,,,a,1,0.5648,"[""0.325"",""0.387"",""0.565"",""0.882""]","[1,1,0,1]",0,17,17,17,1,0,0,,,1,FALSE,,,,,,,,,,,,,,,,,,,,,,,,,,,,,,,
,5c0333c84e1b7b00016a83fd,627c6f22b368a87425bdae63,2022-05-12_03h23.07.075,classification_task,2021.2.3,Win32,59.90176111,627c6715c52fd12f31907bcf,,,,,,,,,,,,,,,,,,,,,,,l,1,0.5839,"[""0.038"",""0.168"",""0.644"",""0.561""]","[1,1,1,0]",0,18,18,18,1,1,1,,,1,FALSE,,,,,,,,,,,,,,,,,,,,,,,,,,,,,,,
,5c0333c84e1b7b00016a83fd,627c6f22b368a87425bdae63,2022-05-12_03h23.07.075,classification_task,2021.2.3,Win32,59.90176111,627c6715c52fd12f31907bcf,,,,,,,,,,,,,,,,,,,,,,,a,1,0.517,"[""0.961"",""0.527"",""0.847"",""0.924""]","[0,1,1,1]",0,19,19,19,1,0,1,,,1,FALSE,,,,,,,,,,,,,,,,,,,,,,,,,,,,,,,
,5c0333c84e1b7b00016a83fd,627c6f22b368a87425bdae63,2022-05-12_03h23.07.075,classification_task,2021.2.3,Win32,59.90176111,627c6715c52fd12f31907bcf,,,,,,,,,,,,,,,,,,,,,,,l,1,0.6486,"[""0.038"",""0.561"",""0.644"",""0.715""]","[1,0,1,1]",0,20,20,20,1,1,1,,,1,FALSE,,,,,,,,,,,,,,,,,,,,,,,,,,,,,,,
,5c0333c84e1b7b00016a83fd,627c6f22b368a87425bdae63,2022-05-12_03h23.07.075,classification_task,2021.2.3,Win32,59.90176111,627c6715c52fd12f31907bcf,,,,,,,,,,,,,,,,,,,,,,,l,1,0.4978,"[""0.038"",""0.168"",""0.450"",""0.715""]","[1,1,0,1]",0,21,21,21,1,1,1,,,1,FALSE,,,,,,,,,,,,,,,,,,,,,,,,,,,,,,,
,5c0333c84e1b7b00016a83fd,627c6f22b368a87425bdae63,2022-05-12_03h23.07.075,classification_task,2021.2.3,Win32,59.90176111,627c6715c52fd12f31907bcf,,,,,,,,,,,,,,,,,,,,,,,a,1,0.5307,"[""0.456"",""0.387"",""0.608"",""0.882""]","[0,1,1,1]",0,22,22,22,1,0,0,,,1,FALSE,,,,,,,,,,,,,,,,,,,,,,,,,,,,,,,
,5c0333c84e1b7b00016a83fd,627c6f22b368a87425bdae63,2022-05-12_03h23.07.075,classification_task,2021.2.3,Win32,59.90176111,627c6715c52fd12f31907bcf,,,,,,,,,,,,,,,,,,,,,,,l,1,0.5318,"[""0.086"",""0.122"",""0.567"",""0.774""]","[1,1,0,1]",0,23,23,23,1,1,0,,,1,FALSE,,,,,,,,,,,,,,,,,,,,,,,,,,,,,,,
,5c0333c84e1b7b00016a83fd,627c6f22b368a87425bdae63,2022-05-12_03h23.07.075,classification_task,2021.2.3,Win32,59.90176111,627c6715c52fd12f31907bcf,,,,,,,,,,,,,,,,,,,,,,,l,1,0.4663,"[""0.086"",""0.456"",""0.490"",""0.774""]","[1,0,1,1]",0,24,24,24,1,1,0,,,1,FALSE,,,,,,,,,,,,,,,,,,,,,,,,,,,,,,,
,5c0333c84e1b7b00016a83fd,627c6f22b368a87425bdae63,2022-05-12_03h23.07.075,classification_task,2021.2.3,Win32,59.90176111,627c6715c52fd12f31907bcf,,,,,,,,,,,,,,,,,,,,,,,a,1,0.4479,"[""0.284"",""0.527"",""0.847"",""0.961""]","[1,1,1,0]",0,25,25,25,1,0,1,,,1,FALSE,,,,,,,,,,,,,,,,,,,,,,,,,,,,,,,
,5c0333c84e1b7b00016a83fd,627c6f22b368a87425bdae63,2022-05-12_03h23.07.075,classification_task,2021.2.3,Win32,59.90176111,627c6715c52fd12f31907bcf,,,,,,,,,,,,,,,,,,,,,,,l,1,0.4484,"[""0.086"",""0.122"",""0.490"",""0.230""]","[1,1,1,0]",0,26,26,26,1,1,0,,,1,FALSE,,,,,,,,,,,,,,,,,,,,,,,,,,,,,,,
,5c0333c84e1b7b00016a83fd,627c6f22b368a87425bdae63,2022-05-12_03h23.07.075,classification_task,2021.2.3,Win32,59.90176111,627c6715c52fd12f31907bcf,,,,,,,,,,,,,,,,,,,,,,,a,1,0.4489,"[""0.284"",""0.527"",""0.456"",""0.924""]","[1,1,0,1]",0,27,27,27,1,0,1,,,1,FALSE,,,,,,,,,,,,,,,,,,,,,,,,,,,,,,,
,5c0333c84e1b7b00016a83fd,627c6f22b368a87425bdae63,2022-05-12_03h23.07.075,classification_task,2021.2.3,Win32,59.90176111,627c6715c52fd12f31907bcf,,,,,,,,,,,,,,,,,,,,,,,l,1,0.5818,"[""0.450"",""0.168"",""0.644"",""0.715""]","[0,1,1,1]",0,28,28,28,1,1,1,,,1,FALSE,,,,,,,,,,,,,,,,,,,,,,,,,,,,,,,
,5c0333c84e1b7b00016a83fd,627c6f22b368a87425bdae63,2022-05-12_03h23.07.075,classification_task,2021.2.3,Win32,59.90176111,627c6715c52fd12f31907bcf,,,,,,,,,,,,,,,,,,,,,,,l,0,0.4986,"[""0.325"",""0.961"",""0.608"",""0.882""]","[1,0,1,1]",0,29,29,29,1,0,0,,,1,FALSE,,,,,,,,,,,,,,,,,,,,,,,,,,,,,,,
,5c0333c84e1b7b00016a83fd,627c6f22b368a87425bdae63,2022-05-12_03h23.07.075,classification_task,2021.2.3,Win32,59.90176111,627c6715c52fd12f31907bcf,,,,,,,,,,,,,,,,,,,,,,,l,1,0.5985,"[""0.561"",""0.122"",""0.490"",""0.774""]","[0,1,1,1]",0,30,30,30,1,1,0,,,1,FALSE,,,,,,,,,,,,,,,,,,,,,,,,,,,,,,,
,5c0333c84e1b7b00016a83fd,627c6f22b368a87425bdae63,2022-05-12_03h23.07.075,classification_task,2021.2.3,Win32,59.90176111,627c6715c52fd12f31907bcf,,,,,,,,,,,,,,,,,,,,,,,a,1,0.4349,"[""0.284"",""0.230"",""0.847"",""0.924""]","[1,0,1,1]",0,31,31,31,1,0,1,,,1,FALSE,,,,,,,,,,,,,,,,,,,,,,,,,,,,,,,
,5c0333c84e1b7b00016a83fd,627c6f22b368a87425bdae63,2022-05-12_03h23.07.075,classification_task,2021.2.3,Win32,59.90176111,627c6715c52fd12f31907bcf,,,,,,,,,,,,,,,,,,,,,,,a,1,0.4985,"[""0.284"",""0.571"",""0.847"",""0.924""]","[1,0,1,1]",0,32,32,32,1,0,1,,,1,FALSE,,,,,,,,,,,,,,,,,,,,,,,,,,,,,,,
,5c0333c84e1b7b00016a83fd,627c6f22b368a87425bdae63,2022-05-12_03h23.07.075,classification_task,2021.2.3,Win32,59.90176111,627c6715c52fd12f31907bcf,,,,,,,,,,,,,,,,,,,,,,,l,1,0.4329,"[""0.086"",""0.122"",""0.490"",""0.244""]","[1,1,1,0]",0,33,33,33,1,1,0,,,1,FALSE,,,,,,,,,,,,,,,,,,,,,,,,,,,,,,,
,5c0333c84e1b7b00016a83fd,627c6f22b368a87425bdae63,2022-05-12_03h23.07.075,classification_task,2021.2.3,Win32,59.90176111,627c6715c52fd12f31907bcf,,,,,,,,,,,,,,,,,,,,,,,a,0,0.7146,"[""0.086"",""0.961"",""0.490"",""0.774""]","[1,0,1,1]",0,34,34,34,1,1,0,,,1,FALSE,,,,,,,,,,,,,,,,,,,,,,,,,,,,,,,
,5c0333c84e1b7b00016a83fd,627c6f22b368a87425bdae63,2022-05-12_03h23.07.075,classification_task,2021.2.3,Win32,59.90176111,627c6715c52fd12f31907bcf,,,,,,,,,,,,,,,,,,,,,,,a,1,0.7001,"[""0.325"",""0.387"",""0.561"",""0.882""]","[1,1,0,1]",0,35,35,35,1,0,0,,,1,FALSE,,,,,,,,,,,,,,,,,,,,,,,,,,,,,,,
,5c0333c84e1b7b00016a83fd,627c6f22b368a87425bdae63,2022-05-12_03h23.07.075,classification_task,2021.2.3,Win32,59.90176111,627c6715c52fd12f31907bcf,,,,,,,,,,,,,,,,,,,,,,,a,1,0.6319,"[""0.448"",""0.527"",""0.847"",""0.924""]","[0,1,1,1]",0,36,36,36,1,0,1,,,1,FALSE,,,,,,,,,,,,,,,,,,,,,,,,,,,,,,,
,5c0333c84e1b7b00016a83fd,627c6f22b368a87425bdae63,2022-05-12_03h23.07.075,classification_task,2021.2.3,Win32,59.90176111,627c6715c52fd12f31907bcf,,,,,,,,,,,,,,,,,,,,,,,l,1,0.4665,"[""0.038"",""0.168"",""0.450"",""0.715""]","[1,1,0,1]",0,37,37,37,1,1,1,,,1,FALSE,,,,,,,,,,,,,,,,,,,,,,,,,,,,,,,
,5c0333c84e1b7b00016a83fd,627c6f22b368a87425bdae63,2022-05-12_03h23.07.075,classification_task,2021.2.3,Win32,59.90176111,627c6715c52fd12f31907bcf,,,,,,,,,,,,,,,,,,,,,,,l,1,0.4481,"[""0.571"",""0.168"",""0.644"",""0.715""]","[0,1,1,1]",0,38,38,38,1,1,1,,,1,FALSE,,,,,,,,,,,,,,,,,,,,,,,,,,,,,,,
,5c0333c84e1b7b00016a83fd,627c6f22b368a87425bdae63,2022-05-12_03h23.07.075,classification_task,2021.2.3,Win32,59.90176111,627c6715c52fd12f31907bcf,,,,,,,,,,,,,,,,,,,,,,,a,1,0.8317,"[""0.561"",""0.387"",""0.608"",""0.882""]","[0,1,1,1]",0,39,39,39,1,0,0,,,1,FALSE,,,,,,,,,,,,,,,,,,,,,,,,,,,,,,,
,5c0333c84e1b7b00016a83fd,627c6f22b368a87425bdae63,2022-05-12_03h23.07.075,classification_task,2021.2.3,Win32,59.90176111,627c6715c52fd12f31907bcf,,,,,,,,,,,,,,,,,,,,,,,l,1,0.5987,"[""0.086"",""0.122"",""0.561"",""0.774""]","[1,1,0,1]",0,40,40,40,1,1,0,,,1,FALSE,,,,,,,,,,,,,,,,,,,,,,,,,,,,,,,
,5c0333c84e1b7b00016a83fd,627c6f22b368a87425bdae63,2022-05-12_03h23.07.075,classification_task,2021.2.3,Win32,59.90176111,627c6715c52fd12f31907bcf,,,,,,,,,,,,,,,,,,,,,,,a,1,0.4978,"[""0.284"",""0.527"",""0.847"",""0.571""]","[1,1,1,0]",0,41,41,41,1,0,1,,,1,FALSE,,,,,,,,,,,,,,,,,,,,,,,,,,,,,,,
,5c0333c84e1b7b00016a83fd,627c6f22b368a87425bdae63,2022-05-12_03h23.07.075,classification_task,2021.2.3,Win32,59.90176111,627c6715c52fd12f31907bcf,,,,,,,,,,,,,,,,,,,,,,,l,1,0.6817,"[""0.038"",""0.168"",""0.644"",""0.443""]","[1,1,1,0]",0,42,42,42,1,1,1,,,1,FALSE,,,,,,,,,,,,,,,,,,,,,,,,,,,,,,,
,5c0333c84e1b7b00016a83fd,627c6f22b368a87425bdae63,2022-05-12_03h23.07.075,classification_task,2021.2.3,Win32,59.90176111,627c6715c52fd12f31907bcf,,,,,,,,,,,,,,,,,,,,,,,l,1,0.4831,"[""0.038"",""0.450"",""0.644"",""0.715""]","[1,0,1,1]",0,43,43,43,1,1,1,,,1,FALSE,,,,,,,,,,,,,,,,,,,,,,,,,,,,,,,
,5c0333c84e1b7b00016a83fd,627c6f22b368a87425bdae63,2022-05-12_03h23.07.075,classification_task,2021.2.3,Win32,59.90176111,627c6715c52fd12f31907bcf,,,,,,,,,,,,,,,,,,,,,,,a,1,0.5634,"[""0.325"",""0.443"",""0.608"",""0.882""]","[1,0,1,1]",0,44,44,44,1,0,0,,,1,FALSE,,,,,,,,,,,,,,,,,,,,,,,,,,,,,,,
,5c0333c84e1b7b00016a83fd,627c6f22b368a87425bdae63,2022-05-12_03h23.07.075,classification_task,2021.2.3,Win32,59.90176111,627c6715c52fd12f31907bcf,,,,,,,,,,,,,,,,,,,,,,,a,0,0.6984,"[""0.961"",""0.122"",""0.490"",""0.774""]","[0,1,1,1]",0,45,45,45,1,1,0,,,1,FALSE,,,,,,,,,,,,,,,,,,,,,,,,,,,,,,,
,5c0333c84e1b7b00016a83fd,627c6f22b368a87425bdae63,2022-05-12_03h23.07.075,classification_task,2021.2.3,Win32,59.90176111,627c6715c52fd12f31907bcf,,,,,,,,,,,,,,,,,,,,,,,a,1,1.2669,"[""0.325"",""0.387"",""0.608"",""0.561""]","[1,1,1,0]",0,46,46,46,1,0,0,,,1,FALSE,,,,,,,,,,,,,,,,,,,,,,,,,,,,,,,
,5c0333c84e1b7b00016a83fd,627c6f22b368a87425bdae63,2022-05-12_03h23.07.075,classification_task,2021.2.3,Win32,59.90176111,627c6715c52fd12f31907bcf,,,,,,,,,,,,,,,,,,,,,,,a,1,1.3153,"[""0.284"",""0.527"",""0.230"",""0.924""]","[1,1,0,1]",0,47,47,47,1,0,1,,,1,FALSE,,,,,,,,,,,,,,,,,,,,,,,,,,,,,,,
,5c0333c84e1b7b00016a83fd,627c6f22b368a87425bdae63,2022-05-12_03h23.07.075,classification_task,2021.2.3,Win32,59.90176111,627c6715c52fd12f31907bcf,,,,,,,,,,,,,,,,,,,,,,,l,1,0.4653,"[""0.435"",""0.122"",""0.490"",""0.774""]","[0,1,1,1]",0,48,48,48,1,1,0,,,1,FALSE,,,,,,,,,,,,,,,,,,,,,,,,,,,,,,,
,5c0333c84e1b7b00016a83fd,627c6f22b368a87425bdae63,2022-05-12_03h23.07.075,classification_task,2021.2.3,Win32,59.90176111,627c6715c52fd12f31907bcf,,,,,,,,,,,,,,,,,,,,,,,a,1,0.6801,"[""0.284"",""0.527"",""0.448"",""0.924""]","[1,1,0,1]",0,49,49,49,1,0,1,,,1,FALSE,,,,,,,,,,,,,,,,,,,,,,,,,,,,,,,
,5c0333c84e1b7b00016a83fd,627c6f22b368a87425bdae63,2022-05-12_03h23.07.075,classification_task,2021.2.3,Win32,59.90176111,627c6715c52fd12f31907bcf,,,,,,,,,,,,,,,,,,,,,,,l,1,0.4496,"[""0.086"",""0.122"",""0.226"",""0.774""]","[1,1,0,1]",0,50,50,50,1,1,0,,,1,FALSE,,,,,,,,,,,,,,,,,,,,,,,,,,,,,,,
,5c0333c84e1b7b00016a83fd,627c6f22b368a87425bdae63,2022-05-12_03h23.07.075,classification_task,2021.2.3,Win32,59.90176111,627c6715c52fd12f31907bcf,,,,,,,,,,,,,,,,,,,,,,,l,1,0.4651,"[""0.038"",""0.567"",""0.644"",""0.715""]","[1,0,1,1]",0,51,51,51,1,1,1,,,1,FALSE,,,,,,,,,,,,,,,,,,,,,,,,,,,,,,,
,5c0333c84e1b7b00016a83fd,627c6f22b368a87425bdae63,2022-05-12_03h23.07.075,classification_task,2021.2.3,Win32,59.90176111,627c6715c52fd12f31907bcf,,,,,,,,,,,,,,,,,,,,,,,a,1,0.6157,"[""0.679"",""0.387"",""0.608"",""0.882""]","[0,1,1,1]",0,52,52,52,1,0,0,,,1,FALSE,,,,,,,,,,,,,,,,,,,,,,,,,,,,,,,
,5c0333c84e1b7b00016a83fd,627c6f22b368a87425bdae63,2022-05-12_03h23.07.075,classification_task,2021.2.3,Win32,59.90176111,627c6715c52fd12f31907bcf,,,,,,,,,,,,,,,,,,,,,,,a,0,0.7651,"[""0.086"",""0.443"",""0.490"",""0.774""]","[1,0,1,1]",0,53,53,53,1,1,0,,,1,FALSE,,,,,,,,,,,,,,,,,,,,,,,,,,,,,,,
,5c0333c84e1b7b00016a83fd,627c6f22b368a87425bdae63,2022-05-12_03h23.07.075,classification_task,2021.2.3,Win32,59.90176111,627c6715c52fd12f31907bcf,,,,,,,,,,,,,,,,,,,,,,,a,1,0.7146,"[""0.325"",""0.387"",""0.448"",""0.882""]","[1,1,0,1]",0,54,54,54,1,0,0,,,1,FALSE,,,,,,,,,,,,,,,,,,,,,,,,,,,,,,,
,5c0333c84e1b7b00016a83fd,627c6f22b368a87425bdae63,2022-05-12_03h23.07.075,classification_task,2021.2.3,Win32,59.90176111,627c6715c52fd12f31907bcf,,,,,,,,,,,,,,,,,,,,,,,l,0,1.2676,"[""0.325"",""0.387"",""0.608"",""0.226""]","[1,1,1,0]",0,55,55,55,1,0,0,,,1,FALSE,,,,,,,,,,,,,,,,,,,,,,,,,,,,,,,
,5c0333c84e1b7b00016a83fd,627c6f22b368a87425bdae63,2022-05-12_03h23.07.075,classification_task,2021.2.3,Win32,59.90176111,627c6715c52fd12f31907bcf,,,,,,,,,,,,,,,,,,,,,,,a,1,0.5676,"[""0.325"",""0.443"",""0.608"",""0.882""]","[1,0,1,1]",0,56,56,56,1,0,0,,,1,FALSE,,,,,,,,,,,,,,,,,,,,,,,,,,,,,,,
,5c0333c84e1b7b00016a83fd,627c6f22b368a87425bdae63,2022-05-12_03h23.07.075,classification_task,2021.2.3,Win32,59.90176111,627c6715c52fd12f31907bcf,,,,,,,,,,,,,,,,,,,,,,,l,1,0.4992,"[""0.038"",""0.168"",""0.443"",""0.715""]","[1,1,0,1]",0,57,57,57,1,1,1,,,1,FALSE,,,,,,,,,,,,,,,,,,,,,,,,,,,,,,,
,5c0333c84e1b7b00016a83fd,627c6f22b368a87425bdae63,2022-05-12_03h23.07.075,classification_task,2021.2.3,Win32,59.90176111,627c6715c52fd12f31907bcf,,,,,,,,,,,,,,,,,,,,,,,a,1,0.7154,"[""0.284"",""0.527"",""0.847"",""0.450""]","[1,1,1,0]",0,58,58,58,1,0,1,,,1,FALSE,,,,,,,,,,,,,,,,,,,,,,,,,,,,,,,
,5c0333c84e1b7b00016a83fd,627c6f22b368a87425bdae63,2022-05-12_03h23.07.075,classification_task,2021.2.3,Win32,59.90176111,627c6715c52fd12f31907bcf,,,,,,,,,,,,,,,,,,,,,,,a,0,0.5009,"[""0.038"",""0.168"",""0.644"",""0.230""]","[1,1,1,0]",0,59,59,59,1,1,1,,,1,FALSE,,,,,,,,,,,,,,,,,,,,,,,,,,,,,,,
,5c0333c84e1b7b00016a83fd,627c6f22b368a87425bdae63,2022-05-12_03h23.07.075,classification_task,2021.2.3,Win32,59.90176111,627c6715c52fd12f31907bcf,,,,,,,,,,,,,,,,,,,,,,,l,1,0.5165,"[""0.086"",""0.122"",""0.490"",""0.561""]","[1,1,1,0]",0,60,60,60,1,1,0,,,1,FALSE,,,,,,,,,,,,,,,,,,,,,,,,,,,,,,,
,5c0333c84e1b7b00016a83fd,627c6f22b368a87425bdae63,2022-05-12_03h23.07.075,classification_task,2021.2.3,Win32,59.90176111,627c6715c52fd12f31907bcf,,,,,,,,,,,,,,,,,,,,,,,a,1,0.6506,"[""0.443"",""0.527"",""0.847"",""0.924""]","[0,1,1,1]",0,61,61,61,1,0,1,,,1,FALSE,,,,,,,,,,,,,,,,,,,,,,,,,,,,,,,
,5c0333c84e1b7b00016a83fd,627c6f22b368a87425bdae63,2022-05-12_03h23.07.075,classification_task,2021.2.3,Win32,59.90176111,627c6715c52fd12f31907bcf,,,,,,,,,,,,,,,,,,,,,,,l,1,0.5326,"[""0.679"",""0.168"",""0.644"",""0.715""]","[0,1,1,1]",0,62,62,62,1,1,1,,,1,FALSE,,,,,,,,,,,,,,,,,,,,,,,,,,,,,,,
,5c0333c84e1b7b00016a83fd,627c6f22b368a87425bdae63,2022-05-12_03h23.07.075,classification_task,2021.2.3,Win32,59.90176111,627c6715c52fd12f31907bcf,,,,,,,,,,,,,,,,,,,,,,,a,1,0.8313,"[""0.284"",""0.244"",""0.847"",""0.924""]","[1,0,1,1]",0,63,63,63,1,0,1,,,1,FALSE,,,,,,,,,,,,,,,,,,,,,,,,,,,,,,,
,5c0333c84e1b7b00016a83fd,627c6f22b368a87425bdae63,2022-05-12_03h23.07.075,classification_task,2021.2.3,Win32,59.90176111,627c6715c52fd12f31907bcf,,,,,,,,,,,,,,,,,,,,,,,,,,,,,,,,,,,,,,,0, ,,0,5.024495395,125.4336,0,2,2,2,1,2,3,,,,,,,,,,,,,,,,,,
,5c0333c84e1b7b00016a83fd,627c6f22b368a87425bdae63,2022-05-12_03h23.07.075,classification_task,2021.2.3,Win32,59.90176111,627c6715c52fd12f31907bcf,,,,,,,,,,,,,,,,,,,,,,,,,,,,,,,,,,,,,,,1,  ,,0,6.592200666,122.6,0,2,2,2,1,2,3,,,,,,,,,,,,,,,,,,
,5c0333c84e1b7b00016a83fd,627c6f22b368a87425bdae63,2022-05-12_03h23.07.075,classification_task,2021.2.3,Win32,59.90176111,627c6715c52fd12f31907bcf,,,,,,,,,,,,,,,,,,,,,,,,,,,,,,,,,,,,,,,2,  ,,0,3.432294729,120.5831,0,2,2,2,1,2,3,,,,,,,,,,,,,,,,,,
,5c0333c84e1b7b00016a83fd,627c6f22b368a87425bdae63,2022-05-12_03h23.07.075,classification_task,2021.2.3,Win32,59.90176111,627c6715c52fd12f31907bcf,,,,,,,,,,,,,,,,,,,,,,,,,,,,,,,,,,,,,,,,,,,,,0,2,2,2,1,,3,,,,,,,,,,,,,,,,,,
,5c0333c84e1b7b00016a83fd,627c6f22b368a87425bdae63,2022-05-12_03h23.07.075,classification_task,2021.2.3,Win32,59.90176111,627c6715c52fd12f31907bcf,,,,,,,,,,,,,,,,,,,,,,,,,,,,,,,,,,,,,,,,,,,,,,,,,,,,,I believe the aid is a competent performer,,0.7,0,2,923.3148,0,0,0,0,1,0,,,,,
,5c0333c84e1b7b00016a83fd,627c6f22b368a87425bdae63,2022-05-12_03h23.07.075,classification_task,2021.2.3,Win32,59.90176111,627c6715c52fd12f31907bcf,,,,,,,,,,,,,,,,,,,,,,,,,,,,,,,,,,,,,,,,,,,,,,,,,,,,,I trust the aid,,0.7,0,3,846.3089,0,0,0,0,1,0,,,,,
,5c0333c84e1b7b00016a83fd,627c6f22b368a87425bdae63,2022-05-12_03h23.07.075,classification_task,2021.2.3,Win32,59.90176111,627c6715c52fd12f31907bcf,,,,,,,,,,,,,,,,,,,,,,,,,,,,,,,,,,,,,,,,,,,,,,,,,,,,,I have confidence in the advice given by the aid,,0.7,0,3,845.9621,0,0,0,0,1,0,,,,,
,5c0333c84e1b7b00016a83fd,627c6f22b368a87425bdae63,2022-05-12_03h23.07.075,classification_task,2021.2.3,Win32,59.90176111,627c6715c52fd12f31907bcf,,,,,,,,,,,,,,,,,,,,,,,,,,,,,,,,,,,,,,,,,,,,,,,,,,,,,I can depend on the aid,,0.7,0,3,845.5589,0,0,0,0,1,0,,,,,
,5c0333c84e1b7b00016a83fd,627c6f22b368a87425bdae63,2022-05-12_03h23.07.075,classification_task,2021.2.3,Win32,59.90176111,627c6715c52fd12f31907bcf,,,,,,,,,,,,,,,,,,,,,,,,,,,,,,,,,,,,,,,,,,,,,,,,,,,,,I can rely on the aid to behave in consistent ways,,0.7,0,4,909.5203,0,0,0,0,1,0,,,,,
,5c0333c84e1b7b00016a83fd,627c6f22b368a87425bdae63,2022-05-12_03h23.07.075,classification_task,2021.2.3,Win32,59.90176111,627c6715c52fd12f31907bcf,,,,,,,,,,,,,,,,,,,,,,,,,,,,,,,,,,,,,,,,,,,,,,,,,,,,,I can rely on the aid to do its best every time I take its advice,,0.7,0,3,844.0412,0,0,0,0,1,0,,,,,
,5c0333c84e1b7b00016a83fd,627c6f22b368a87425bdae63,2022-05-12_03h23.07.075,classification_task,2021.2.3,Win32,59.90176111,627c6715c52fd12f31907bcf,,,,,,,,,,,,,,,,,,,,,,,,,,,,,,,,,,,,,,,,,,,,,,,,,,,,,"On trials you completed with assistance from the aid, how frequently did you think the aid was correct?",,0.7,0,70%,,0,0,0,0,1,0,,,,,
,5c0333c84e1b7b00016a83fd,627c6f22b368a87425bdae63,2022-05-12_03h23.07.075,classification_task,2021.2.3,Win32,59.90176111,627c6715c52fd12f31907bcf,,,,,,,,,,,,,,,,,,,,,,,,,,,,,,,,,,,,,,,,,,,,,,,,,,,,,"On trials you completed without the aid, how frequently did you think you were correct?",,0.7,0,90%,,0,0,0,0,1,0,,,,,
,5c0333c84e1b7b00016a83fd,627c6f22b368a87425bdae63,2022-05-12_03h23.07.075,classification_task,2021.2.3,Win32,59.90176111,627c6715c52fd12f31907bcf,,,,,,,,,,,,,,,,,,,,,,,,,,,,,,,,,,,,,,,,,,,,,,,,,,,,,,,,,,,0,0,0,0,1,,,,,,
,5c0333c84e1b7b00016a83fd,627c6f22b368a87425bdae63,2022-05-12_03h23.07.075,classification_task,2021.2.3,Win32,59.90176111,627c6715c52fd12f31907bcf,,,,,,,,,,,,,,,,,,,,,,,,,,,,,,,,,,,,,,,,,,,,,,,,,,,,,,,,,,,,,,,,,space,15.573,945.8571,,
,5c0333c84e1b7b00016a83fd,627c6f22b368a87425bdae63,2022-05-12_03h23.07.075,classification_task,2021.2.3,Win32,59.90176111,627c6715c52fd12f31907bcf,,,,,,,,,,,,,,,,,,,,,,,,,,,,,,,,,,,,,,,,,,,,,,,,,,,,,,,,,,,,,,,,,,,,"Mozilla/5.0 (Windows NT 10.0; Win64; x64) AppleWebKit/537.36 (KHTML, like Gecko) Chrome/101.0.4951.54 Safari/537.36",
,5c0333c84e1b7b00016a83fd,627c6f22b368a87425bdae63,2022-05-12_03h23.07.075,classification_task,2021.2.3,Win32,59.90176111,627c6715c52fd12f31907bcf,,,,,,,,,,,,,,,,,,,,,,,,,,,,,,,,,,,,,,,,,,,,,,,,,,,,,,,,,,,,,,,,,,,,,LOWLIGHT
