usingWebGL,participant,session,date,expName,psychopyVersion,OS,frameRate,PROLIFIC_PID,STUDY_ID,SESSION_ID,signatures_friend,signatures_foe,band_ranges_top,band_ranges_bottom,formitemText,formtype,formundefined,formitemWidth,formindex,formresponse,formrt,key_resp_2.keys,key_resp_2.rt,tute_resp.keys,tute_resp.rt,tutorial.thisRepN,tutorial.thisTrialN,tutorial.thisN,tutorial.thisIndex,tutorial.ran,key_resp_4.keys,key_resp_4.rt,key_resp.keys,key_resp.corr,key_resp.rt,lines_presented,is_signal_presented,trials.thisRepN,trials.thisTrialN,trials.thisN,trials.thisIndex,trials.ran,vessel,active_band,lines,is_signal,supported_pos,catch_trial,debrief_formindex,debrief_formitemText,debrief_formtype,debrief_formitemWidth,debrief_formresponse,debrief_formrt,phases.thisRepN,phases.thisTrialN,phases.thisN,phases.thisIndex,phases.ran,phases.order,phase,key_resp_3.keys,trustitemText,trusttype,trustitemWidth,trustindex,trustresponse,trustrt,support_status.thisRepN,support_status.thisTrialN,support_status.thisN,support_status.thisIndex,support_status.ran,support_status.order,key_resp_5.keys,key_resp_5.rt,globalClockTime,userAgent
TRUE,5c067e6329abc0000199ae45,001,2022-04-29_03h11.51.087,classification_task,2021.2.3,Win32,59.98080614,5c067e6329abc0000199ae45,626b377229c10585ec392f89,626b3b29c9b17d59233d9b48,,,,,,,,,,,,,,,,,,,,,,,,,,,,,,,,,,,,,,,,,,,,,,,,,,,,,,,,,,,,,,,,,,,,
,5c067e6329abc0000199ae45,001,2022-04-29_03h11.51.087,classification_task,2021.2.3,Win32,59.98080614,5c067e6329abc0000199ae45,626b377229c10585ec392f89,626b3b29c9b17d59233d9b48,"[[""0.179"",""0.423"",""0.876"",""0.923""],[""0.321"",""0.357"",""0.688"",""0.959""]]","[[""0.045"",""0.284"",""0.611"",""0.735""],[""0.145"",""0.220"",""0.479"",""0.833""]]","[1,10]","[100,1000]",Video game experience,,,0.7,0,,,,,,,,,,,,,,,,,,,,,,,,,,,,,,,,,,,,,,,,,,,,,,,,,,,,,,,,,,,
,5c067e6329abc0000199ae45,001,2022-04-29_03h11.51.087,classification_task,2021.2.3,Win32,59.98080614,5c067e6329abc0000199ae45,626b377229c10585ec392f89,626b3b29c9b17d59233d9b48,,,,,Approximately how many hours did you spend playing video games in the last week?,,,0.7,0,7,,,,,,,,,,,,,,,,,,,,,,,,,,,,,,,,,,,,,,,,,,,,,,,,,,,,,,,,,,
,5c067e6329abc0000199ae45,001,2022-04-29_03h11.51.087,classification_task,2021.2.3,Win32,59.98080614,5c067e6329abc0000199ae45,626b377229c10585ec392f89,626b3b29c9b17d59233d9b48,,,,,"Which game did you play the most this year? (Enter ""None"" if you didn't play any)",,,0.7,0,Valorant,,,,,,,,,,,,,,,,,,,,,,,,,,,,,,,,,,,,,,,,,,,,,,,,,,,,,,,,,,
,5c067e6329abc0000199ae45,001,2022-04-29_03h11.51.087,classification_task,2021.2.3,Win32,59.98080614,5c067e6329abc0000199ae45,626b377229c10585ec392f89,626b3b29c9b17d59233d9b48,,,,,Visual perception,,,0.7,0,,,,,,,,,,,,,,,,,,,,,,,,,,,,,,,,,,,,,,,,,,,,,,,,,,,,,,,,,,,
,5c067e6329abc0000199ae45,001,2022-04-29_03h11.51.087,classification_task,2021.2.3,Win32,59.98080614,5c067e6329abc0000199ae45,626b377229c10585ec392f89,626b3b29c9b17d59233d9b48,,,,,Do you have any form of color blindness?,,,0.7,0,No,20.8608,,,,,,,,,,,,,,,,,,,,,,,,,,,,,,,,,,,,,,,,,,,,,,,,,,,,,,,,,
,5c067e6329abc0000199ae45,001,2022-04-29_03h11.51.087,classification_task,2021.2.3,Win32,59.98080614,5c067e6329abc0000199ae45,626b377229c10585ec392f89,626b3b29c9b17d59233d9b48,,,,,Do you use software to change the colour temperature of your screen (e.g. f.lux)?,,,0.7,0,No,23.4234,,,,,,,,,,,,,,,,,,,,,,,,,,,,,,,,,,,,,,,,,,,,,,,,,,,,,,,,,
,5c067e6329abc0000199ae45,001,2022-04-29_03h11.51.087,classification_task,2021.2.3,Win32,59.98080614,5c067e6329abc0000199ae45,626b377229c10585ec392f89,626b3b29c9b17d59233d9b48,,,,,,,,,,,,space,28.7289,space,6.1078,0,0,0,0,1,,,,,,,,,,,,,,,,,,,,,,,,,,,,,,,,,,,,,,,,,,,,,,,,
,5c067e6329abc0000199ae45,001,2022-04-29_03h11.51.087,classification_task,2021.2.3,Win32,59.98080614,5c067e6329abc0000199ae45,626b377229c10585ec392f89,626b3b29c9b17d59233d9b48,,,,,,,,,,,,,,space,6.3501,1,0,1,0,1,,,,,,,,,,,,,,,,,,,,,,,,,,,,,,,,,,,,,,,,,,,,,,,,
,5c067e6329abc0000199ae45,001,2022-04-29_03h11.51.087,classification_task,2021.2.3,Win32,59.98080614,5c067e6329abc0000199ae45,626b377229c10585ec392f89,626b3b29c9b17d59233d9b48,,,,,,,,,,,,,,space,16.5894,2,0,2,0,1,,,,,,,,,,,,,,,,,,,,,,,,,,,,,,,,,,,,,,,,,,,,,,,,
,5c067e6329abc0000199ae45,001,2022-04-29_03h11.51.087,classification_task,2021.2.3,Win32,59.98080614,5c067e6329abc0000199ae45,626b377229c10585ec392f89,626b3b29c9b17d59233d9b48,,,,,,,,,,,,,,space,9.0582,3,0,3,0,1,,,,,,,,,,,,,,,,,,,,,,,,,,,,,,,,,,,,,,,,,,,,,,,,
,5c067e6329abc0000199ae45,001,2022-04-29_03h11.51.087,classification_task,2021.2.3,Win32,59.98080614,5c067e6329abc0000199ae45,626b377229c10585ec392f89,626b3b29c9b17d59233d9b48,,,,,,,,,,,,,,space,9.3186,4,0,4,0,1,,,,,,,,,,,,,,,,,,,,,,,,,,,,,,,,,,,,,,,,,,,,,,,,
,5c067e6329abc0000199ae45,001,2022-04-29_03h11.51.087,classification_task,2021.2.3,Win32,59.98080614,5c067e6329abc0000199ae45,626b377229c10585ec392f89,626b3b29c9b17d59233d9b48,,,,,,,,,,,,,,,,,,,,,space,10.7705,a,1,7.4209,"[""0.321"",""0.357"",""0.688"",""0.782""]","[1,1,1,0]",0,0,0,0,1,0,1,,,0,FALSE,,,,,,,,,,,,,,,,,,,,,,,,,,,,,,
,5c067e6329abc0000199ae45,001,2022-04-29_03h11.51.087,classification_task,2021.2.3,Win32,59.98080614,5c067e6329abc0000199ae45,626b377229c10585ec392f89,626b3b29c9b17d59233d9b48,,,,,,,,,,,,,,,,,,,,,,,,0,,"[""0.321"",""0.565"",""0.688"",""0.959""]","[1,0,1,1]",0,1,1,1,1,0,1,,,0,FALSE,,,,,,,,,,,,,,,,,,,,,,,,,,,,,,
,5c067e6329abc0000199ae45,001,2022-04-29_03h11.51.087,classification_task,2021.2.3,Win32,59.98080614,5c067e6329abc0000199ae45,626b377229c10585ec392f89,626b3b29c9b17d59233d9b48,,,,,,,,,,,,,,,,,,,,,,,l,1,2.9266,"[""0.542"",""0.220"",""0.479"",""0.833""]","[0,1,1,1]",0,2,2,2,1,1,1,,,0,FALSE,,,,,,,,,,,,,,,,,,,,,,,,,,,,,,
,5c067e6329abc0000199ae45,001,2022-04-29_03h11.51.087,classification_task,2021.2.3,Win32,59.98080614,5c067e6329abc0000199ae45,626b377229c10585ec392f89,626b3b29c9b17d59233d9b48,,,,,,,,,,,,,,,,,,,,,,,l,1,4.5744,"[""0.045"",""0.535"",""0.611"",""0.735""]","[1,0,1,1]",0,3,3,3,1,1,0,,,0,FALSE,,,,,,,,,,,,,,,,,,,,,,,,,,,,,,
,5c067e6329abc0000199ae45,001,2022-04-29_03h11.51.087,classification_task,2021.2.3,Win32,59.98080614,5c067e6329abc0000199ae45,626b377229c10585ec392f89,626b3b29c9b17d59233d9b48,,,,,,,,,,,,,,,,,,,,,,,a,1,3.6659,"[""0.179"",""0.645"",""0.876"",""0.923""]","[1,0,1,1]",0,4,4,4,1,0,0,,,0,FALSE,,,,,,,,,,,,,,,,,,,,,,,,,,,,,,
,5c067e6329abc0000199ae45,001,2022-04-29_03h11.51.087,classification_task,2021.2.3,Win32,59.98080614,5c067e6329abc0000199ae45,626b377229c10585ec392f89,626b3b29c9b17d59233d9b48,,,,,,,,,,,,,,,,,,,,,,,l,1,3.4383,"[""0.535"",""0.284"",""0.611"",""0.735""]","[0,1,1,1]",0,5,5,5,1,1,0,,,0,FALSE,,,,,,,,,,,,,,,,,,,,,,,,,,,,,,
,5c067e6329abc0000199ae45,001,2022-04-29_03h11.51.087,classification_task,2021.2.3,Win32,59.98080614,5c067e6329abc0000199ae45,626b377229c10585ec392f89,626b3b29c9b17d59233d9b48,,,,,,,,,,,,,,,,,,,,,,,a,1,3.99,"[""0.321"",""0.357"",""0.771"",""0.959""]","[1,1,0,1]",0,6,6,6,1,0,1,,,0,FALSE,,,,,,,,,,,,,,,,,,,,,,,,,,,,,,
,5c067e6329abc0000199ae45,001,2022-04-29_03h11.51.087,classification_task,2021.2.3,Win32,59.98080614,5c067e6329abc0000199ae45,626b377229c10585ec392f89,626b3b29c9b17d59233d9b48,,,,,,,,,,,,,,,,,,,,,,,l,1,3.349,"[""0.145"",""0.220"",""0.479"",""0.084""]","[1,1,1,0]",0,7,7,7,1,1,1,,,0,FALSE,,,,,,,,,,,,,,,,,,,,,,,,,,,,,,
,5c067e6329abc0000199ae45,001,2022-04-29_03h11.51.087,classification_task,2021.2.3,Win32,59.98080614,5c067e6329abc0000199ae45,626b377229c10585ec392f89,626b3b29c9b17d59233d9b48,,,,,,,,,,,,,,,,,,,,,,,a,1,3.3182,"[""0.179"",""0.423"",""0.876"",""0.546""]","[1,1,1,0]",0,8,8,8,1,0,0,,,0,FALSE,,,,,,,,,,,,,,,,,,,,,,,,,,,,,,
,5c067e6329abc0000199ae45,001,2022-04-29_03h11.51.087,classification_task,2021.2.3,Win32,59.98080614,5c067e6329abc0000199ae45,626b377229c10585ec392f89,626b3b29c9b17d59233d9b48,,,,,,,,,,,,,,,,,,,,,,,a,0,2.1598,"[""0.045"",""0.284"",""0.565"",""0.735""]","[1,1,0,1]",0,9,9,9,1,1,0,,,0,FALSE,,,,,,,,,,,,,,,,,,,,,,,,,,,,,,
,5c067e6329abc0000199ae45,001,2022-04-29_03h11.51.087,classification_task,2021.2.3,Win32,59.98080614,5c067e6329abc0000199ae45,626b377229c10585ec392f89,626b3b29c9b17d59233d9b48,,,,,,,,,,,,,,,,,,,,,,,a,1,4.1129,"[""0.535"",""0.357"",""0.688"",""0.959""]","[0,1,1,1]",0,10,10,10,1,0,1,,,0,FALSE,,,,,,,,,,,,,,,,,,,,,,,,,,,,,,
,5c067e6329abc0000199ae45,001,2022-04-29_03h11.51.087,classification_task,2021.2.3,Win32,59.98080614,5c067e6329abc0000199ae45,626b377229c10585ec392f89,626b3b29c9b17d59233d9b48,,,,,,,,,,,,,,,,,,,,,,,l,1,2.1851,"[""0.045"",""0.284"",""0.611"",""0.542""]","[1,1,1,0]",0,11,11,11,1,1,0,,,0,FALSE,,,,,,,,,,,,,,,,,,,,,,,,,,,,,,
,5c067e6329abc0000199ae45,001,2022-04-29_03h11.51.087,classification_task,2021.2.3,Win32,59.98080614,5c067e6329abc0000199ae45,626b377229c10585ec392f89,626b3b29c9b17d59233d9b48,,,,,,,,,,,,,,,,,,,,,,,l,1,2.5231,"[""0.145"",""0.220"",""0.773"",""0.833""]","[1,1,0,1]",0,12,12,12,1,1,1,,,0,FALSE,,,,,,,,,,,,,,,,,,,,,,,,,,,,,,
,5c067e6329abc0000199ae45,001,2022-04-29_03h11.51.087,classification_task,2021.2.3,Win32,59.98080614,5c067e6329abc0000199ae45,626b377229c10585ec392f89,626b3b29c9b17d59233d9b48,,,,,,,,,,,,,,,,,,,,,,,a,1,8.1328,"[""0.771"",""0.423"",""0.876"",""0.923""]","[0,1,1,1]",0,13,13,13,1,0,0,,,0,FALSE,,,,,,,,,,,,,,,,,,,,,,,,,,,,,,
,5c067e6329abc0000199ae45,001,2022-04-29_03h11.51.087,classification_task,2021.2.3,Win32,59.98080614,5c067e6329abc0000199ae45,626b377229c10585ec392f89,626b3b29c9b17d59233d9b48,,,,,,,,,,,,,,,,,,,,,,,l,1,3.797,"[""0.145"",""0.773"",""0.479"",""0.833""]","[1,0,1,1]",0,14,14,14,1,1,1,,,0,FALSE,,,,,,,,,,,,,,,,,,,,,,,,,,,,,,
,5c067e6329abc0000199ae45,001,2022-04-29_03h11.51.087,classification_task,2021.2.3,Win32,59.98080614,5c067e6329abc0000199ae45,626b377229c10585ec392f89,626b3b29c9b17d59233d9b48,,,,,,,,,,,,,,,,,,,,,,,a,1,2.7204,"[""0.179"",""0.423"",""0.546"",""0.923""]","[1,1,0,1]",0,15,15,15,1,0,0,,,0,FALSE,,,,,,,,,,,,,,,,,,,,,,,,,,,,,,
,5c067e6329abc0000199ae45,001,2022-04-29_03h11.51.087,classification_task,2021.2.3,Win32,59.98080614,5c067e6329abc0000199ae45,626b377229c10585ec392f89,626b3b29c9b17d59233d9b48,,,,,,,,,,,,,,,,,,,,,,,a,1,2.2553,"[""0.321"",""0.357"",""0.688"",""0.084""]","[1,1,1,0]",0,16,16,16,1,0,1,,,0,FALSE,,,,,,,,,,,,,,,,,,,,,,,,,,,,,,
,5c067e6329abc0000199ae45,001,2022-04-29_03h11.51.087,classification_task,2021.2.3,Win32,59.98080614,5c067e6329abc0000199ae45,626b377229c10585ec392f89,626b3b29c9b17d59233d9b48,,,,,,,,,,,,,,,,,,,,,,,l,1,6.3222,"[""0.145"",""0.220"",""0.479"",""0.516""]","[1,1,1,0]",0,17,17,17,1,1,1,,,0,FALSE,,,,,,,,,,,,,,,,,,,,,,,,,,,,,,
,5c067e6329abc0000199ae45,001,2022-04-29_03h11.51.087,classification_task,2021.2.3,Win32,59.98080614,5c067e6329abc0000199ae45,626b377229c10585ec392f89,626b3b29c9b17d59233d9b48,,,,,,,,,,,,,,,,,,,,,,,a,0,2.6375,"[""0.045"",""0.284"",""0.611"",""0.773""]","[1,1,1,0]",0,18,18,18,1,1,0,,,0,FALSE,,,,,,,,,,,,,,,,,,,,,,,,,,,,,,
,5c067e6329abc0000199ae45,001,2022-04-29_03h11.51.087,classification_task,2021.2.3,Win32,59.98080614,5c067e6329abc0000199ae45,626b377229c10585ec392f89,626b3b29c9b17d59233d9b48,,,,,,,,,,,,,,,,,,,,,,,l,1,3.6962,"[""0.795"",""0.220"",""0.479"",""0.833""]","[0,1,1,1]",0,19,19,19,1,1,1,,,0,FALSE,,,,,,,,,,,,,,,,,,,,,,,,,,,,,,
,5c067e6329abc0000199ae45,001,2022-04-29_03h11.51.087,classification_task,2021.2.3,Win32,59.98080614,5c067e6329abc0000199ae45,626b377229c10585ec392f89,626b3b29c9b17d59233d9b48,,,,,,,,,,,,,,,,,,,,,,,l,1,2.7849,"[""0.771"",""0.284"",""0.611"",""0.735""]","[0,1,1,1]",0,20,20,20,1,1,0,,,0,FALSE,,,,,,,,,,,,,,,,,,,,,,,,,,,,,,
,5c067e6329abc0000199ae45,001,2022-04-29_03h11.51.087,classification_task,2021.2.3,Win32,59.98080614,5c067e6329abc0000199ae45,626b377229c10585ec392f89,626b3b29c9b17d59233d9b48,,,,,,,,,,,,,,,,,,,,,,,l,1,6.0612,"[""0.045"",""0.771"",""0.611"",""0.735""]","[1,0,1,1]",0,21,21,21,1,1,0,,,0,FALSE,,,,,,,,,,,,,,,,,,,,,,,,,,,,,,
,5c067e6329abc0000199ae45,001,2022-04-29_03h11.51.087,classification_task,2021.2.3,Win32,59.98080614,5c067e6329abc0000199ae45,626b377229c10585ec392f89,626b3b29c9b17d59233d9b48,,,,,,,,,,,,,,,,,,,,,,,a,1,4.5117,"[""0.105"",""0.357"",""0.688"",""0.959""]","[0,1,1,1]",0,22,22,22,1,0,1,,,0,FALSE,,,,,,,,,,,,,,,,,,,,,,,,,,,,,,
,5c067e6329abc0000199ae45,001,2022-04-29_03h11.51.087,classification_task,2021.2.3,Win32,59.98080614,5c067e6329abc0000199ae45,626b377229c10585ec392f89,626b3b29c9b17d59233d9b48,,,,,,,,,,,,,,,,,,,,,,,a,1,2.0056,"[""0.179"",""0.423"",""0.876"",""0.771""]","[1,1,1,0]",0,23,23,23,1,0,0,,,0,FALSE,,,,,,,,,,,,,,,,,,,,,,,,,,,,,,
,5c067e6329abc0000199ae45,001,2022-04-29_03h11.51.087,classification_task,2021.2.3,Win32,59.98080614,5c067e6329abc0000199ae45,626b377229c10585ec392f89,626b3b29c9b17d59233d9b48,,,,,,,,,,,,,,,,,,,,,,,a,1,1.9947,"[""0.179"",""0.423"",""0.516"",""0.923""]","[1,1,0,1]",0,24,24,24,1,0,0,,,0,FALSE,,,,,,,,,,,,,,,,,,,,,,,,,,,,,,
,5c067e6329abc0000199ae45,001,2022-04-29_03h11.51.087,classification_task,2021.2.3,Win32,59.98080614,5c067e6329abc0000199ae45,626b377229c10585ec392f89,626b3b29c9b17d59233d9b48,,,,,,,,,,,,,,,,,,,,,,,a,1,3.3232,"[""0.321"",""0.357"",""0.565"",""0.959""]","[1,1,0,1]",0,25,25,25,1,0,1,,,0,FALSE,,,,,,,,,,,,,,,,,,,,,,,,,,,,,,
,5c067e6329abc0000199ae45,001,2022-04-29_03h11.51.087,classification_task,2021.2.3,Win32,59.98080614,5c067e6329abc0000199ae45,626b377229c10585ec392f89,626b3b29c9b17d59233d9b48,,,,,,,,,,,,,,,,,,,,,,,a,1,2.2615,"[""0.543"",""0.423"",""0.876"",""0.923""]","[0,1,1,1]",0,26,26,26,1,0,0,,,0,FALSE,,,,,,,,,,,,,,,,,,,,,,,,,,,,,,
,5c067e6329abc0000199ae45,001,2022-04-29_03h11.51.087,classification_task,2021.2.3,Win32,59.98080614,5c067e6329abc0000199ae45,626b377229c10585ec392f89,626b3b29c9b17d59233d9b48,,,,,,,,,,,,,,,,,,,,,,,l,1,2.9403,"[""0.145"",""0.220"",""0.105"",""0.833""]","[1,1,0,1]",0,27,27,27,1,1,1,,,0,FALSE,,,,,,,,,,,,,,,,,,,,,,,,,,,,,,
,5c067e6329abc0000199ae45,001,2022-04-29_03h11.51.087,classification_task,2021.2.3,Win32,59.98080614,5c067e6329abc0000199ae45,626b377229c10585ec392f89,626b3b29c9b17d59233d9b48,,,,,,,,,,,,,,,,,,,,,,,a,1,4.2832,"[""0.179"",""0.771"",""0.876"",""0.923""]","[1,0,1,1]",0,28,28,28,1,0,0,,,0,FALSE,,,,,,,,,,,,,,,,,,,,,,,,,,,,,,
,5c067e6329abc0000199ae45,001,2022-04-29_03h11.51.087,classification_task,2021.2.3,Win32,59.98080614,5c067e6329abc0000199ae45,626b377229c10585ec392f89,626b3b29c9b17d59233d9b48,,,,,,,,,,,,,,,,,,,,,,,l,1,5.1231,"[""0.145"",""0.546"",""0.479"",""0.833""]","[1,0,1,1]",0,29,29,29,1,1,1,,,0,FALSE,,,,,,,,,,,,,,,,,,,,,,,,,,,,,,
,5c067e6329abc0000199ae45,001,2022-04-29_03h11.51.087,classification_task,2021.2.3,Win32,59.98080614,5c067e6329abc0000199ae45,626b377229c10585ec392f89,626b3b29c9b17d59233d9b48,,,,,,,,,,,,,,,,,,,,,,,l,1,2.2634,"[""0.045"",""0.284"",""0.542"",""0.735""]","[1,1,0,1]",0,30,30,30,1,1,0,,,0,FALSE,,,,,,,,,,,,,,,,,,,,,,,,,,,,,,
,5c067e6329abc0000199ae45,001,2022-04-29_03h11.51.087,classification_task,2021.2.3,Win32,59.98080614,5c067e6329abc0000199ae45,626b377229c10585ec392f89,626b3b29c9b17d59233d9b48,,,,,,,,,,,,,,,,,,,,,,,a,1,3.152,"[""0.321"",""0.771"",""0.688"",""0.959""]","[1,0,1,1]",0,31,31,31,1,0,1,,,0,FALSE,,,,,,,,,,,,,,,,,,,,,,,,,,,,,,
,5c067e6329abc0000199ae45,001,2022-04-29_03h11.51.087,classification_task,2021.2.3,Win32,59.98080614,5c067e6329abc0000199ae45,626b377229c10585ec392f89,626b3b29c9b17d59233d9b48,,,,,,,,,,,,,,,,,,,,,,,a,0,4.1137,"[""0.145"",""0.220"",""0.773"",""0.833""]","[1,1,0,1]",0,32,32,32,1,1,1,,,0,FALSE,,,,,,,,,,,,,,,,,,,,,,,,,,,,,,
,5c067e6329abc0000199ae45,001,2022-04-29_03h11.51.087,classification_task,2021.2.3,Win32,59.98080614,5c067e6329abc0000199ae45,626b377229c10585ec392f89,626b3b29c9b17d59233d9b48,,,,,,,,,,,,,,,,,,,,,,,l,0,5.3891,"[""0.179"",""0.771"",""0.876"",""0.923""]","[1,0,1,1]",0,33,33,33,1,0,0,,,0,FALSE,,,,,,,,,,,,,,,,,,,,,,,,,,,,,,
,5c067e6329abc0000199ae45,001,2022-04-29_03h11.51.087,classification_task,2021.2.3,Win32,59.98080614,5c067e6329abc0000199ae45,626b377229c10585ec392f89,626b3b29c9b17d59233d9b48,,,,,,,,,,,,,,,,,,,,,,,l,1,3.9359,"[""0.145"",""0.105"",""0.479"",""0.833""]","[1,0,1,1]",0,34,34,34,1,1,1,,,0,FALSE,,,,,,,,,,,,,,,,,,,,,,,,,,,,,,
,5c067e6329abc0000199ae45,001,2022-04-29_03h11.51.087,classification_task,2021.2.3,Win32,59.98080614,5c067e6329abc0000199ae45,626b377229c10585ec392f89,626b3b29c9b17d59233d9b48,,,,,,,,,,,,,,,,,,,,,,,l,0,3.0748,"[""0.321"",""0.516"",""0.688"",""0.959""]","[1,0,1,1]",0,35,35,35,1,0,1,,,0,FALSE,,,,,,,,,,,,,,,,,,,,,,,,,,,,,,
,5c067e6329abc0000199ae45,001,2022-04-29_03h11.51.087,classification_task,2021.2.3,Win32,59.98080614,5c067e6329abc0000199ae45,626b377229c10585ec392f89,626b3b29c9b17d59233d9b48,,,,,,,,,,,,,,,,,,,,,,,a,1,3.6472,"[""0.179"",""0.423"",""0.876"",""0.543""]","[1,1,1,0]",0,36,36,36,1,0,0,,,0,FALSE,,,,,,,,,,,,,,,,,,,,,,,,,,,,,,
,5c067e6329abc0000199ae45,001,2022-04-29_03h11.51.087,classification_task,2021.2.3,Win32,59.98080614,5c067e6329abc0000199ae45,626b377229c10585ec392f89,626b3b29c9b17d59233d9b48,,,,,,,,,,,,,,,,,,,,,,,a,1,2.2384,"[""0.179"",""0.423"",""0.644"",""0.923""]","[1,1,0,1]",0,37,37,37,1,0,0,,,0,FALSE,,,,,,,,,,,,,,,,,,,,,,,,,,,,,,
,5c067e6329abc0000199ae45,001,2022-04-29_03h11.51.087,classification_task,2021.2.3,Win32,59.98080614,5c067e6329abc0000199ae45,626b377229c10585ec392f89,626b3b29c9b17d59233d9b48,,,,,,,,,,,,,,,,,,,,,,,l,1,2.3366,"[""0.045"",""0.542"",""0.611"",""0.735""]","[1,0,1,1]",0,38,38,38,1,1,0,,,0,FALSE,,,,,,,,,,,,,,,,,,,,,,,,,,,,,,
,5c067e6329abc0000199ae45,001,2022-04-29_03h11.51.087,classification_task,2021.2.3,Win32,59.98080614,5c067e6329abc0000199ae45,626b377229c10585ec392f89,626b3b29c9b17d59233d9b48,,,,,,,,,,,,,,,,,,,,,,,l,1,4.0312,"[""0.045"",""0.284"",""0.645"",""0.735""]","[1,1,0,1]",0,39,39,39,1,1,0,,,0,FALSE,,,,,,,,,,,,,,,,,,,,,,,,,,,,,,
,5c067e6329abc0000199ae45,001,2022-04-29_03h11.51.087,classification_task,2021.2.3,Win32,59.98080614,5c067e6329abc0000199ae45,626b377229c10585ec392f89,626b3b29c9b17d59233d9b48,,,,,,,,,,,,,,,,,,,,,,,a,0,2.9765,"[""0.145"",""0.220"",""0.479"",""0.554""]","[1,1,1,0]",0,40,40,40,1,1,1,,,0,FALSE,,,,,,,,,,,,,,,,,,,,,,,,,,,,,,
,5c067e6329abc0000199ae45,001,2022-04-29_03h11.51.087,classification_task,2021.2.3,Win32,59.98080614,5c067e6329abc0000199ae45,626b377229c10585ec392f89,626b3b29c9b17d59233d9b48,,,,,,,,,,,,,,,,,,,,,,,l,0,2.5004,"[""0.535"",""0.357"",""0.688"",""0.959""]","[0,1,1,1]",0,41,41,41,1,0,1,,,0,FALSE,,,,,,,,,,,,,,,,,,,,,,,,,,,,,,
,5c067e6329abc0000199ae45,001,2022-04-29_03h11.51.087,classification_task,2021.2.3,Win32,59.98080614,5c067e6329abc0000199ae45,626b377229c10585ec392f89,626b3b29c9b17d59233d9b48,,,,,,,,,,,,,,,,,,,,,,,l,0,3.2361,"[""0.321"",""0.357"",""0.688"",""0.771""]","[1,1,1,0]",0,42,42,42,1,0,1,,,0,FALSE,,,,,,,,,,,,,,,,,,,,,,,,,,,,,,
,5c067e6329abc0000199ae45,001,2022-04-29_03h11.51.087,classification_task,2021.2.3,Win32,59.98080614,5c067e6329abc0000199ae45,626b377229c10585ec392f89,626b3b29c9b17d59233d9b48,,,,,,,,,,,,,,,,,,,,,,,l,1,2.1589,"[""0.045"",""0.284"",""0.611"",""0.546""]","[1,1,1,0]",0,43,43,43,1,1,0,,,0,FALSE,,,,,,,,,,,,,,,,,,,,,,,,,,,,,,
,5c067e6329abc0000199ae45,001,2022-04-29_03h11.51.087,classification_task,2021.2.3,Win32,59.98080614,5c067e6329abc0000199ae45,626b377229c10585ec392f89,626b3b29c9b17d59233d9b48,,,,,,,,,,,,,,,,,,,,,,,l,1,2.1318,"[""0.546"",""0.284"",""0.611"",""0.735""]","[0,1,1,1]",0,44,44,44,1,1,0,,,0,FALSE,,,,,,,,,,,,,,,,,,,,,,,,,,,,,,
,5c067e6329abc0000199ae45,001,2022-04-29_03h11.51.087,classification_task,2021.2.3,Win32,59.98080614,5c067e6329abc0000199ae45,626b377229c10585ec392f89,626b3b29c9b17d59233d9b48,,,,,,,,,,,,,,,,,,,,,,,a,0,1.1762,"[""0.535"",""0.220"",""0.479"",""0.833""]","[0,1,1,1]",0,45,45,45,1,1,1,,,0,FALSE,,,,,,,,,,,,,,,,,,,,,,,,,,,,,,
,5c067e6329abc0000199ae45,001,2022-04-29_03h11.51.087,classification_task,2021.2.3,Win32,59.98080614,5c067e6329abc0000199ae45,626b377229c10585ec392f89,626b3b29c9b17d59233d9b48,,,,,,,,,,,,,,,,,,,,,,,a,1,4.0001,"[""0.644"",""0.423"",""0.876"",""0.923""]","[0,1,1,1]",0,46,46,46,1,0,0,,,0,FALSE,,,,,,,,,,,,,,,,,,,,,,,,,,,,,,
,5c067e6329abc0000199ae45,001,2022-04-29_03h11.51.087,classification_task,2021.2.3,Win32,59.98080614,5c067e6329abc0000199ae45,626b377229c10585ec392f89,626b3b29c9b17d59233d9b48,,,,,,,,,,,,,,,,,,,,,,,l,0,3.0473,"[""0.321"",""0.357"",""0.554"",""0.959""]","[1,1,0,1]",0,47,47,47,1,0,1,,,0,FALSE,,,,,,,,,,,,,,,,,,,,,,,,,,,,,,
,5c067e6329abc0000199ae45,001,2022-04-29_03h11.51.087,classification_task,2021.2.3,Win32,59.98080614,5c067e6329abc0000199ae45,626b377229c10585ec392f89,626b3b29c9b17d59233d9b48,,,,,,,,,,,,,,,,,,,,,,,l,0,2.7139,"[""0.084"",""0.423"",""0.876"",""0.923""]","[0,1,1,1]",0,48,48,48,1,0,0,,,0,FALSE,,,,,,,,,,,,,,,,,,,,,,,,,,,,,,
,5c067e6329abc0000199ae45,001,2022-04-29_03h11.51.087,classification_task,2021.2.3,Win32,59.98080614,5c067e6329abc0000199ae45,626b377229c10585ec392f89,626b3b29c9b17d59233d9b48,,,,,,,,,,,,,,,,,,,,,,,l,1,1.5663,"[""0.045"",""0.554"",""0.611"",""0.735""]","[1,0,1,1]",0,49,49,49,1,1,0,,,0,FALSE,,,,,,,,,,,,,,,,,,,,,,,,,,,,,,
,5c067e6329abc0000199ae45,001,2022-04-29_03h11.51.087,classification_task,2021.2.3,Win32,59.98080614,5c067e6329abc0000199ae45,626b377229c10585ec392f89,626b3b29c9b17d59233d9b48,,,,,,,,,,,,,,,,,,,,,,,a,0,1.969,"[""0.554"",""0.284"",""0.611"",""0.735""]","[0,1,1,1]",0,50,50,50,1,1,0,,,0,FALSE,,,,,,,,,,,,,,,,,,,,,,,,,,,,,,
,5c067e6329abc0000199ae45,001,2022-04-29_03h11.51.087,classification_task,2021.2.3,Win32,59.98080614,5c067e6329abc0000199ae45,626b377229c10585ec392f89,626b3b29c9b17d59233d9b48,,,,,,,,,,,,,,,,,,,,,,,a,1,1.4301,"[""0.179"",""0.423"",""0.876"",""0.795""]","[1,1,1,0]",0,51,51,51,1,0,0,,,0,FALSE,,,,,,,,,,,,,,,,,,,,,,,,,,,,,,
,5c067e6329abc0000199ae45,001,2022-04-29_03h11.51.087,classification_task,2021.2.3,Win32,59.98080614,5c067e6329abc0000199ae45,626b377229c10585ec392f89,626b3b29c9b17d59233d9b48,,,,,,,,,,,,,,,,,,,,,,,a,0,2.9739,"[""0.145"",""0.220"",""0.479"",""0.543""]","[1,1,1,0]",0,52,52,52,1,1,1,,,0,FALSE,,,,,,,,,,,,,,,,,,,,,,,,,,,,,,
,5c067e6329abc0000199ae45,001,2022-04-29_03h11.51.087,classification_task,2021.2.3,Win32,59.98080614,5c067e6329abc0000199ae45,626b377229c10585ec392f89,626b3b29c9b17d59233d9b48,,,,,,,,,,,,,,,,,,,,,,,l,1,2.6261,"[""0.773"",""0.220"",""0.479"",""0.833""]","[0,1,1,1]",0,53,53,53,1,1,1,,,0,FALSE,,,,,,,,,,,,,,,,,,,,,,,,,,,,,,
,5c067e6329abc0000199ae45,001,2022-04-29_03h11.51.087,classification_task,2021.2.3,Win32,59.98080614,5c067e6329abc0000199ae45,626b377229c10585ec392f89,626b3b29c9b17d59233d9b48,,,,,,,,,,,,,,,,,,,,,,,l,1,2.6475,"[""0.145"",""0.773"",""0.479"",""0.833""]","[1,0,1,1]",0,54,54,54,1,1,1,,,0,FALSE,,,,,,,,,,,,,,,,,,,,,,,,,,,,,,
,5c067e6329abc0000199ae45,001,2022-04-29_03h11.51.087,classification_task,2021.2.3,Win32,59.98080614,5c067e6329abc0000199ae45,626b377229c10585ec392f89,626b3b29c9b17d59233d9b48,,,,,,,,,,,,,,,,,,,,,,,a,1,2.9812,"[""0.179"",""0.423"",""0.084"",""0.923""]","[1,1,0,1]",0,55,55,55,1,0,0,,,0,FALSE,,,,,,,,,,,,,,,,,,,,,,,,,,,,,,
,5c067e6329abc0000199ae45,001,2022-04-29_03h11.51.087,classification_task,2021.2.3,Win32,59.98080614,5c067e6329abc0000199ae45,626b377229c10585ec392f89,626b3b29c9b17d59233d9b48,,,,,,,,,,,,,,,,,,,,,,,a,1,2.3077,"[""0.084"",""0.357"",""0.688"",""0.959""]","[0,1,1,1]",0,56,56,56,1,0,1,,,0,FALSE,,,,,,,,,,,,,,,,,,,,,,,,,,,,,,
,5c067e6329abc0000199ae45,001,2022-04-29_03h11.51.087,classification_task,2021.2.3,Win32,59.98080614,5c067e6329abc0000199ae45,626b377229c10585ec392f89,626b3b29c9b17d59233d9b48,,,,,,,,,,,,,,,,,,,,,,,a,0,2.2913,"[""0.045"",""0.284"",""0.611"",""0.773""]","[1,1,1,0]",0,57,57,57,1,1,0,,,0,FALSE,,,,,,,,,,,,,,,,,,,,,,,,,,,,,,
,5c067e6329abc0000199ae45,001,2022-04-29_03h11.51.087,classification_task,2021.2.3,Win32,59.98080614,5c067e6329abc0000199ae45,626b377229c10585ec392f89,626b3b29c9b17d59233d9b48,,,,,,,,,,,,,,,,,,,,,,,a,1,1.7719,"[""0.321"",""0.357"",""0.688"",""0.554""]","[1,1,1,0]",0,58,58,58,1,0,1,,,0,FALSE,,,,,,,,,,,,,,,,,,,,,,,,,,,,,,
,5c067e6329abc0000199ae45,001,2022-04-29_03h11.51.087,classification_task,2021.2.3,Win32,59.98080614,5c067e6329abc0000199ae45,626b377229c10585ec392f89,626b3b29c9b17d59233d9b48,,,,,,,,,,,,,,,,,,,,,,,a,1,2.3429,"[""0.321"",""0.357"",""0.535"",""0.959""]","[1,1,0,1]",0,59,59,59,1,0,1,,,0,FALSE,,,,,,,,,,,,,,,,,,,,,,,,,,,,,,
,5c067e6329abc0000199ae45,001,2022-04-29_03h11.51.087,classification_task,2021.2.3,Win32,59.98080614,5c067e6329abc0000199ae45,626b377229c10585ec392f89,626b3b29c9b17d59233d9b48,,,,,,,,,,,,,,,,,,,,,,,a,1,1.8564,"[""0.321"",""0.543"",""0.688"",""0.959""]","[1,0,1,1]",0,60,60,60,1,0,1,,,0,FALSE,,,,,,,,,,,,,,,,,,,,,,,,,,,,,,
,5c067e6329abc0000199ae45,001,2022-04-29_03h11.51.087,classification_task,2021.2.3,Win32,59.98080614,5c067e6329abc0000199ae45,626b377229c10585ec392f89,626b3b29c9b17d59233d9b48,,,,,,,,,,,,,,,,,,,,,,,l,0,1.1033,"[""0.179"",""0.565"",""0.876"",""0.923""]","[1,0,1,1]",0,61,61,61,1,0,0,,,0,FALSE,,,,,,,,,,,,,,,,,,,,,,,,,,,,,,
,5c067e6329abc0000199ae45,001,2022-04-29_03h11.51.087,classification_task,2021.2.3,Win32,59.98080614,5c067e6329abc0000199ae45,626b377229c10585ec392f89,626b3b29c9b17d59233d9b48,,,,,,,,,,,,,,,,,,,,,,,l,1,3.3873,"[""0.045"",""0.284"",""0.554"",""0.735""]","[1,1,0,1]",0,62,62,62,1,1,0,,,0,FALSE,,,,,,,,,,,,,,,,,,,,,,,,,,,,,,
,5c067e6329abc0000199ae45,001,2022-04-29_03h11.51.087,classification_task,2021.2.3,Win32,59.98080614,5c067e6329abc0000199ae45,626b377229c10585ec392f89,626b3b29c9b17d59233d9b48,,,,,,,,,,,,,,,,,,,,,,,l,1,2.688,"[""0.145"",""0.220"",""0.084"",""0.833""]","[1,1,0,1]",0,63,63,63,1,1,1,,,0,FALSE,,,,,,,,,,,,,,,,,,,,,,,,,,,,,,
,5c067e6329abc0000199ae45,001,2022-04-29_03h11.51.087,classification_task,2021.2.3,Win32,59.98080614,5c067e6329abc0000199ae45,626b377229c10585ec392f89,626b3b29c9b17d59233d9b48,,,,,,,,,,,,,,,,,,,,,,,,,,,,,,,,,,,,,,,0, ,,0,4.755046051,409.0322,0,0,0,0,1,2,1,,,,,,,,,,,,,,,,,
,5c067e6329abc0000199ae45,001,2022-04-29_03h11.51.087,classification_task,2021.2.3,Win32,59.98080614,5c067e6329abc0000199ae45,626b377229c10585ec392f89,626b3b29c9b17d59233d9b48,,,,,,,,,,,,,,,,,,,,,,,,,,,,,,,,,,,,,,,1,  ,,0,7.81697041,406.4462,0,0,0,0,1,2,1,,,,,,,,,,,,,,,,,
,5c067e6329abc0000199ae45,001,2022-04-29_03h11.51.087,classification_task,2021.2.3,Win32,59.98080614,5c067e6329abc0000199ae45,626b377229c10585ec392f89,626b3b29c9b17d59233d9b48,,,,,,,,,,,,,,,,,,,,,,,,,,,,,,,,,,,,,,,2,  ,,0,6.837154615,415.3801,0,0,0,0,1,2,1,,,,,,,,,,,,,,,,,
,5c067e6329abc0000199ae45,001,2022-04-29_03h11.51.087,classification_task,2021.2.3,Win32,59.98080614,5c067e6329abc0000199ae45,626b377229c10585ec392f89,626b3b29c9b17d59233d9b48,,,,,,,,,,,,,,,,,,,,,,,,,,,,,,,,,,,,,,,,,,,,,0,0,0,0,1,,1,,,,,,,,,,,,,,,,,
,5c067e6329abc0000199ae45,001,2022-04-29_03h11.51.087,classification_task,2021.2.3,Win32,59.98080614,5c067e6329abc0000199ae45,626b377229c10585ec392f89,626b3b29c9b17d59233d9b48,,,,,,,,,,,,,,,,,,,,,space,8.013,l,1,2.1352,"[""0.045"",""0.284"",""0.611"",""0.535""]","[1,1,1,0]",0,0,0,0,1,1,0,,,0,FALSE,,,,,,,,,,,,,,,,,,,,,,,,,,,,,,
,5c067e6329abc0000199ae45,001,2022-04-29_03h11.51.087,classification_task,2021.2.3,Win32,59.98080614,5c067e6329abc0000199ae45,626b377229c10585ec392f89,626b3b29c9b17d59233d9b48,,,,,,,,,,,,,,,,,,,,,,,a,1,1.0491,"[""0.179"",""0.423"",""0.535"",""0.923""]","[1,1,0,1]",0,1,1,1,1,0,0,,,0,FALSE,,,,,,,,,,,,,,,,,,,,,,,,,,,,,,
,5c067e6329abc0000199ae45,001,2022-04-29_03h11.51.087,classification_task,2021.2.3,Win32,59.98080614,5c067e6329abc0000199ae45,626b377229c10585ec392f89,626b3b29c9b17d59233d9b48,,,,,,,,,,,,,,,,,,,,,,,l,0,3.6684,"[""0.542"",""0.357"",""0.688"",""0.959""]","[0,1,1,1]",0,2,2,2,1,0,1,,,0,FALSE,,,,,,,,,,,,,,,,,,,,,,,,,,,,,,
,5c067e6329abc0000199ae45,001,2022-04-29_03h11.51.087,classification_task,2021.2.3,Win32,59.98080614,5c067e6329abc0000199ae45,626b377229c10585ec392f89,626b3b29c9b17d59233d9b48,,,,,,,,,,,,,,,,,,,,,,,l,1,1.8009,"[""0.084"",""0.284"",""0.611"",""0.735""]","[0,1,1,1]",0,3,3,3,1,1,0,,,0,FALSE,,,,,,,,,,,,,,,,,,,,,,,,,,,,,,
,5c067e6329abc0000199ae45,001,2022-04-29_03h11.51.087,classification_task,2021.2.3,Win32,59.98080614,5c067e6329abc0000199ae45,626b377229c10585ec392f89,626b3b29c9b17d59233d9b48,,,,,,,,,,,,,,,,,,,,,,,a,1,0.9988,"[""0.321"",""0.357"",""0.644"",""0.959""]","[1,1,0,1]",0,4,4,4,1,0,1,,,0,FALSE,,,,,,,,,,,,,,,,,,,,,,,,,,,,,,
,5c067e6329abc0000199ae45,001,2022-04-29_03h11.51.087,classification_task,2021.2.3,Win32,59.98080614,5c067e6329abc0000199ae45,626b377229c10585ec392f89,626b3b29c9b17d59233d9b48,,,,,,,,,,,,,,,,,,,,,,,a,0,0.9825,"[""0.145"",""0.220"",""0.479"",""0.771""]","[1,1,1,0]",0,5,5,5,1,1,1,,,0,FALSE,,,,,,,,,,,,,,,,,,,,,,,,,,,,,,
,5c067e6329abc0000199ae45,001,2022-04-29_03h11.51.087,classification_task,2021.2.3,Win32,59.98080614,5c067e6329abc0000199ae45,626b377229c10585ec392f89,626b3b29c9b17d59233d9b48,,,,,,,,,,,,,,,,,,,,,,,l,0,0.9989,"[""0.321"",""0.535"",""0.688"",""0.959""]","[1,0,1,1]",0,6,6,6,1,0,1,,,0,FALSE,,,,,,,,,,,,,,,,,,,,,,,,,,,,,,
,5c067e6329abc0000199ae45,001,2022-04-29_03h11.51.087,classification_task,2021.2.3,Win32,59.98080614,5c067e6329abc0000199ae45,626b377229c10585ec392f89,626b3b29c9b17d59233d9b48,,,,,,,,,,,,,,,,,,,,,,,l,1,1.1658,"[""0.145"",""0.795"",""0.479"",""0.833""]","[1,0,1,1]",0,7,7,7,1,1,1,,,0,FALSE,,,,,,,,,,,,,,,,,,,,,,,,,,,,,,
,5c067e6329abc0000199ae45,001,2022-04-29_03h11.51.087,classification_task,2021.2.3,Win32,59.98080614,5c067e6329abc0000199ae45,626b377229c10585ec392f89,626b3b29c9b17d59233d9b48,,,,,,,,,,,,,,,,,,,,,,,a,1,1.0331,"[""0.321"",""0.357"",""0.688"",""0.546""]","[1,1,1,0]",0,8,8,8,1,0,1,,,0,FALSE,,,,,,,,,,,,,,,,,,,,,,,,,,,,,,
,5c067e6329abc0000199ae45,001,2022-04-29_03h11.51.087,classification_task,2021.2.3,Win32,59.98080614,5c067e6329abc0000199ae45,626b377229c10585ec392f89,626b3b29c9b17d59233d9b48,,,,,,,,,,,,,,,,,,,,,,,l,1,1.0494,"[""0.045"",""0.084"",""0.611"",""0.735""]","[1,0,1,1]",0,9,9,9,1,1,0,,,0,FALSE,,,,,,,,,,,,,,,,,,,,,,,,,,,,,,
,5c067e6329abc0000199ae45,001,2022-04-29_03h11.51.087,classification_task,2021.2.3,Win32,59.98080614,5c067e6329abc0000199ae45,626b377229c10585ec392f89,626b3b29c9b17d59233d9b48,,,,,,,,,,,,,,,,,,,,,,,a,1,0.8991,"[""0.179"",""0.423"",""0.876"",""0.516""]","[1,1,1,0]",0,10,10,10,1,0,0,,,0,FALSE,,,,,,,,,,,,,,,,,,,,,,,,,,,,,,
,5c067e6329abc0000199ae45,001,2022-04-29_03h11.51.087,classification_task,2021.2.3,Win32,59.98080614,5c067e6329abc0000199ae45,626b377229c10585ec392f89,626b3b29c9b17d59233d9b48,,,,,,,,,,,,,,,,,,,,,,,a,1,0.8675,"[""0.771"",""0.423"",""0.876"",""0.923""]","[0,1,1,1]",0,11,11,11,1,0,0,,,0,FALSE,,,,,,,,,,,,,,,,,,,,,,,,,,,,,,
,5c067e6329abc0000199ae45,001,2022-04-29_03h11.51.087,classification_task,2021.2.3,Win32,59.98080614,5c067e6329abc0000199ae45,626b377229c10585ec392f89,626b3b29c9b17d59233d9b48,,,,,,,,,,,,,,,,,,,,,,,a,0,1.1991,"[""0.771"",""0.220"",""0.479"",""0.833""]","[0,1,1,1]",0,12,12,12,1,1,1,,,0,FALSE,,,,,,,,,,,,,,,,,,,,,,,,,,,,,,
,5c067e6329abc0000199ae45,001,2022-04-29_03h11.51.087,classification_task,2021.2.3,Win32,59.98080614,5c067e6329abc0000199ae45,626b377229c10585ec392f89,626b3b29c9b17d59233d9b48,,,,,,,,,,,,,,,,,,,,,,,l,1,0.7154,"[""0.145"",""0.220"",""0.542"",""0.833""]","[1,1,0,1]",0,13,13,13,1,1,1,,,0,FALSE,,,,,,,,,,,,,,,,,,,,,,,,,,,,,,
,5c067e6329abc0000199ae45,001,2022-04-29_03h11.51.087,classification_task,2021.2.3,Win32,59.98080614,5c067e6329abc0000199ae45,626b377229c10585ec392f89,626b3b29c9b17d59233d9b48,,,,,,,,,,,,,,,,,,,,,,,a,1,0.8822,"[""0.179"",""0.645"",""0.876"",""0.923""]","[1,0,1,1]",0,14,14,14,1,0,0,,,0,FALSE,,,,,,,,,,,,,,,,,,,,,,,,,,,,,,
,5c067e6329abc0000199ae45,001,2022-04-29_03h11.51.087,classification_task,2021.2.3,Win32,59.98080614,5c067e6329abc0000199ae45,626b377229c10585ec392f89,626b3b29c9b17d59233d9b48,,,,,,,,,,,,,,,,,,,,,,,l,1,0.599,"[""0.045"",""0.284"",""0.773"",""0.735""]","[1,1,0,1]",0,15,15,15,1,1,0,,,0,FALSE,,,,,,,,,,,,,,,,,,,,,,,,,,,,,,
,5c067e6329abc0000199ae45,001,2022-04-29_03h11.51.087,classification_task,2021.2.3,Win32,59.98080614,5c067e6329abc0000199ae45,626b377229c10585ec392f89,626b3b29c9b17d59233d9b48,,,,,,,,,,,,,,,,,,,,,,,a,1,0.649,"[""0.179"",""0.543"",""0.876"",""0.923""]","[1,0,1,1]",0,16,16,16,1,0,0,,,0,FALSE,,,,,,,,,,,,,,,,,,,,,,,,,,,,,,
,5c067e6329abc0000199ae45,001,2022-04-29_03h11.51.087,classification_task,2021.2.3,Win32,59.98080614,5c067e6329abc0000199ae45,626b377229c10585ec392f89,626b3b29c9b17d59233d9b48,,,,,,,,,,,,,,,,,,,,,,,a,1,0.9659,"[""0.321"",""0.357"",""0.688"",""0.535""]","[1,1,1,0]",0,17,17,17,1,0,1,,,0,FALSE,,,,,,,,,,,,,,,,,,,,,,,,,,,,,,
,5c067e6329abc0000199ae45,001,2022-04-29_03h11.51.087,classification_task,2021.2.3,Win32,59.98080614,5c067e6329abc0000199ae45,626b377229c10585ec392f89,626b3b29c9b17d59233d9b48,,,,,,,,,,,,,,,,,,,,,,,l,0,0.5343,"[""0.771"",""0.357"",""0.688"",""0.959""]","[0,1,1,1]",0,18,18,18,1,0,1,,,0,FALSE,,,,,,,,,,,,,,,,,,,,,,,,,,,,,,
,5c067e6329abc0000199ae45,001,2022-04-29_03h11.51.087,classification_task,2021.2.3,Win32,59.98080614,5c067e6329abc0000199ae45,626b377229c10585ec392f89,626b3b29c9b17d59233d9b48,,,,,,,,,,,,,,,,,,,,,,,a,1,0.7833,"[""0.565"",""0.423"",""0.876"",""0.923""]","[0,1,1,1]",0,19,19,19,1,0,0,,,0,FALSE,,,,,,,,,,,,,,,,,,,,,,,,,,,,,,
,5c067e6329abc0000199ae45,001,2022-04-29_03h11.51.087,classification_task,2021.2.3,Win32,59.98080614,5c067e6329abc0000199ae45,626b377229c10585ec392f89,626b3b29c9b17d59233d9b48,,,,,,,,,,,,,,,,,,,,,,,l,1,0.4651,"[""0.045"",""0.644"",""0.611"",""0.735""]","[1,0,1,1]",0,20,20,20,1,1,0,,,0,FALSE,,,,,,,,,,,,,,,,,,,,,,,,,,,,,,
,5c067e6329abc0000199ae45,001,2022-04-29_03h11.51.087,classification_task,2021.2.3,Win32,59.98080614,5c067e6329abc0000199ae45,626b377229c10585ec392f89,626b3b29c9b17d59233d9b48,,,,,,,,,,,,,,,,,,,,,,,l,1,0.6487,"[""0.045"",""0.284"",""0.611"",""0.542""]","[1,1,1,0]",0,21,21,21,1,1,0,,,0,FALSE,,,,,,,,,,,,,,,,,,,,,,,,,,,,,,
,5c067e6329abc0000199ae45,001,2022-04-29_03h11.51.087,classification_task,2021.2.3,Win32,59.98080614,5c067e6329abc0000199ae45,626b377229c10585ec392f89,626b3b29c9b17d59233d9b48,,,,,,,,,,,,,,,,,,,,,,,a,1,0.5005,"[""0.179"",""0.423"",""0.535"",""0.923""]","[1,1,0,1]",0,22,22,22,1,0,0,,,0,FALSE,,,,,,,,,,,,,,,,,,,,,,,,,,,,,,
,5c067e6329abc0000199ae45,001,2022-04-29_03h11.51.087,classification_task,2021.2.3,Win32,59.98080614,5c067e6329abc0000199ae45,626b377229c10585ec392f89,626b3b29c9b17d59233d9b48,,,,,,,,,,,,,,,,,,,,,,,l,1,0.5824,"[""0.535"",""0.284"",""0.611"",""0.735""]","[0,1,1,1]",0,23,23,23,1,1,0,,,0,FALSE,,,,,,,,,,,,,,,,,,,,,,,,,,,,,,
,5c067e6329abc0000199ae45,001,2022-04-29_03h11.51.087,classification_task,2021.2.3,Win32,59.98080614,5c067e6329abc0000199ae45,626b377229c10585ec392f89,626b3b29c9b17d59233d9b48,,,,,,,,,,,,,,,,,,,,,,,l,1,0.9005,"[""0.546"",""0.220"",""0.479"",""0.833""]","[0,1,1,1]",0,24,24,24,1,1,1,,,0,FALSE,,,,,,,,,,,,,,,,,,,,,,,,,,,,,,
,5c067e6329abc0000199ae45,001,2022-04-29_03h11.51.087,classification_task,2021.2.3,Win32,59.98080614,5c067e6329abc0000199ae45,626b377229c10585ec392f89,626b3b29c9b17d59233d9b48,,,,,,,,,,,,,,,,,,,,,,,a,0,0.8492,"[""0.145"",""0.220"",""0.554"",""0.833""]","[1,1,0,1]",0,25,25,25,1,1,1,,,0,FALSE,,,,,,,,,,,,,,,,,,,,,,,,,,,,,,
,5c067e6329abc0000199ae45,001,2022-04-29_03h11.51.087,classification_task,2021.2.3,Win32,59.98080614,5c067e6329abc0000199ae45,626b377229c10585ec392f89,626b3b29c9b17d59233d9b48,,,,,,,,,,,,,,,,,,,,,,,l,1,0.6822,"[""0.045"",""0.284"",""0.645"",""0.735""]","[1,1,0,1]",0,26,26,26,1,1,0,,,0,FALSE,,,,,,,,,,,,,,,,,,,,,,,,,,,,,,
,5c067e6329abc0000199ae45,001,2022-04-29_03h11.51.087,classification_task,2021.2.3,Win32,59.98080614,5c067e6329abc0000199ae45,626b377229c10585ec392f89,626b3b29c9b17d59233d9b48,,,,,,,,,,,,,,,,,,,,,,,a,1,0.5493,"[""0.179"",""0.423"",""0.876"",""0.084""]","[1,1,1,0]",0,27,27,27,1,0,0,,,0,FALSE,,,,,,,,,,,,,,,,,,,,,,,,,,,,,,
,5c067e6329abc0000199ae45,001,2022-04-29_03h11.51.087,classification_task,2021.2.3,Win32,59.98080614,5c067e6329abc0000199ae45,626b377229c10585ec392f89,626b3b29c9b17d59233d9b48,,,,,,,,,,,,,,,,,,,,,,,a,1,0.7508,"[""0.321"",""0.771"",""0.688"",""0.959""]","[1,0,1,1]",0,28,28,28,1,0,1,,,0,FALSE,,,,,,,,,,,,,,,,,,,,,,,,,,,,,,
,5c067e6329abc0000199ae45,001,2022-04-29_03h11.51.087,classification_task,2021.2.3,Win32,59.98080614,5c067e6329abc0000199ae45,626b377229c10585ec392f89,626b3b29c9b17d59233d9b48,,,,,,,,,,,,,,,,,,,,,,,l,1,0.6155,"[""0.145"",""0.220"",""0.479"",""0.542""]","[1,1,1,0]",0,29,29,29,1,1,1,,,0,FALSE,,,,,,,,,,,,,,,,,,,,,,,,,,,,,,
,5c067e6329abc0000199ae45,001,2022-04-29_03h11.51.087,classification_task,2021.2.3,Win32,59.98080614,5c067e6329abc0000199ae45,626b377229c10585ec392f89,626b3b29c9b17d59233d9b48,,,,,,,,,,,,,,,,,,,,,,,l,0,0.5798,"[""0.321"",""0.357"",""0.516"",""0.959""]","[1,1,0,1]",0,30,30,30,1,0,1,,,0,FALSE,,,,,,,,,,,,,,,,,,,,,,,,,,,,,,
,5c067e6329abc0000199ae45,001,2022-04-29_03h11.51.087,classification_task,2021.2.3,Win32,59.98080614,5c067e6329abc0000199ae45,626b377229c10585ec392f89,626b3b29c9b17d59233d9b48,,,,,,,,,,,,,,,,,,,,,,,l,1,0.8667,"[""0.145"",""0.546"",""0.479"",""0.833""]","[1,0,1,1]",0,31,31,31,1,1,1,,,0,FALSE,,,,,,,,,,,,,,,,,,,,,,,,,,,,,,
,5c067e6329abc0000199ae45,001,2022-04-29_03h11.51.087,classification_task,2021.2.3,Win32,59.98080614,5c067e6329abc0000199ae45,626b377229c10585ec392f89,626b3b29c9b17d59233d9b48,,,,,,,,,,,,,,,,,,,,,,,a,1,0.9829,"[""0.321"",""0.357"",""0.688"",""0.795""]","[1,1,1,0]",0,32,32,32,1,0,1,,,0,FALSE,,,,,,,,,,,,,,,,,,,,,,,,,,,,,,
,5c067e6329abc0000199ae45,001,2022-04-29_03h11.51.087,classification_task,2021.2.3,Win32,59.98080614,5c067e6329abc0000199ae45,626b377229c10585ec392f89,626b3b29c9b17d59233d9b48,,,,,,,,,,,,,,,,,,,,,,,l,1,0.6336,"[""0.045"",""0.284"",""0.611"",""0.554""]","[1,1,1,0]",0,33,33,33,1,1,0,,,0,FALSE,,,,,,,,,,,,,,,,,,,,,,,,,,,,,,
,5c067e6329abc0000199ae45,001,2022-04-29_03h11.51.087,classification_task,2021.2.3,Win32,59.98080614,5c067e6329abc0000199ae45,626b377229c10585ec392f89,626b3b29c9b17d59233d9b48,,,,,,,,,,,,,,,,,,,,,,,a,1,0.649,"[""0.179"",""0.423"",""0.535"",""0.923""]","[1,1,0,1]",0,34,34,34,1,0,0,,,0,FALSE,,,,,,,,,,,,,,,,,,,,,,,,,,,,,,
,5c067e6329abc0000199ae45,001,2022-04-29_03h11.51.087,classification_task,2021.2.3,Win32,59.98080614,5c067e6329abc0000199ae45,626b377229c10585ec392f89,626b3b29c9b17d59233d9b48,,,,,,,,,,,,,,,,,,,,,,,a,0,0.7994,"[""0.145"",""0.220"",""0.645"",""0.833""]","[1,1,0,1]",0,35,35,35,1,1,1,,,0,FALSE,,,,,,,,,,,,,,,,,,,,,,,,,,,,,,
,5c067e6329abc0000199ae45,001,2022-04-29_03h11.51.087,classification_task,2021.2.3,Win32,59.98080614,5c067e6329abc0000199ae45,626b377229c10585ec392f89,626b3b29c9b17d59233d9b48,,,,,,,,,,,,,,,,,,,,,,,l,1,0.5984,"[""0.546"",""0.284"",""0.611"",""0.735""]","[0,1,1,1]",0,36,36,36,1,1,0,,,0,FALSE,,,,,,,,,,,,,,,,,,,,,,,,,,,,,,
,5c067e6329abc0000199ae45,001,2022-04-29_03h11.51.087,classification_task,2021.2.3,Win32,59.98080614,5c067e6329abc0000199ae45,626b377229c10585ec392f89,626b3b29c9b17d59233d9b48,,,,,,,,,,,,,,,,,,,,,,,a,1,0.6173,"[""0.105"",""0.357"",""0.688"",""0.959""]","[0,1,1,1]",0,37,37,37,1,0,1,,,0,FALSE,,,,,,,,,,,,,,,,,,,,,,,,,,,,,,
,5c067e6329abc0000199ae45,001,2022-04-29_03h11.51.087,classification_task,2021.2.3,Win32,59.98080614,5c067e6329abc0000199ae45,626b377229c10585ec392f89,626b3b29c9b17d59233d9b48,,,,,,,,,,,,,,,,,,,,,,,a,1,0.6819,"[""0.321"",""0.543"",""0.688"",""0.959""]","[1,0,1,1]",0,38,38,38,1,0,1,,,0,FALSE,,,,,,,,,,,,,,,,,,,,,,,,,,,,,,
,5c067e6329abc0000199ae45,001,2022-04-29_03h11.51.087,classification_task,2021.2.3,Win32,59.98080614,5c067e6329abc0000199ae45,626b377229c10585ec392f89,626b3b29c9b17d59233d9b48,,,,,,,,,,,,,,,,,,,,,,,a,0,0.6322,"[""0.145"",""0.554"",""0.479"",""0.833""]","[1,0,1,1]",0,39,39,39,1,1,1,,,0,FALSE,,,,,,,,,,,,,,,,,,,,,,,,,,,,,,
,5c067e6329abc0000199ae45,001,2022-04-29_03h11.51.087,classification_task,2021.2.3,Win32,59.98080614,5c067e6329abc0000199ae45,626b377229c10585ec392f89,626b3b29c9b17d59233d9b48,,,,,,,,,,,,,,,,,,,,,,,l,1,0.6651,"[""0.045"",""0.782"",""0.611"",""0.735""]","[1,0,1,1]",0,40,40,40,1,1,0,,,0,FALSE,,,,,,,,,,,,,,,,,,,,,,,,,,,,,,
,5c067e6329abc0000199ae45,001,2022-04-29_03h11.51.087,classification_task,2021.2.3,Win32,59.98080614,5c067e6329abc0000199ae45,626b377229c10585ec392f89,626b3b29c9b17d59233d9b48,,,,,,,,,,,,,,,,,,,,,,,a,0,0.6659,"[""0.554"",""0.220"",""0.479"",""0.833""]","[0,1,1,1]",0,41,41,41,1,1,1,,,0,FALSE,,,,,,,,,,,,,,,,,,,,,,,,,,,,,,
,5c067e6329abc0000199ae45,001,2022-04-29_03h11.51.087,classification_task,2021.2.3,Win32,59.98080614,5c067e6329abc0000199ae45,626b377229c10585ec392f89,626b3b29c9b17d59233d9b48,,,,,,,,,,,,,,,,,,,,,,,a,1,0.5838,"[""0.321"",""0.357"",""0.565"",""0.959""]","[1,1,0,1]",0,42,42,42,1,0,1,,,0,FALSE,,,,,,,,,,,,,,,,,,,,,,,,,,,,,,
,5c067e6329abc0000199ae45,001,2022-04-29_03h11.51.087,classification_task,2021.2.3,Win32,59.98080614,5c067e6329abc0000199ae45,626b377229c10585ec392f89,626b3b29c9b17d59233d9b48,,,,,,,,,,,,,,,,,,,,,,,l,1,0.6477,"[""0.045"",""0.284"",""0.084"",""0.735""]","[1,1,0,1]",0,43,43,43,1,1,0,,,0,FALSE,,,,,,,,,,,,,,,,,,,,,,,,,,,,,,
,5c067e6329abc0000199ae45,001,2022-04-29_03h11.51.087,classification_task,2021.2.3,Win32,59.98080614,5c067e6329abc0000199ae45,626b377229c10585ec392f89,626b3b29c9b17d59233d9b48,,,,,,,,,,,,,,,,,,,,,,,a,1,0.4493,"[""0.179"",""0.546"",""0.876"",""0.923""]","[1,0,1,1]",0,44,44,44,1,0,0,,,0,FALSE,,,,,,,,,,,,,,,,,,,,,,,,,,,,,,
,5c067e6329abc0000199ae45,001,2022-04-29_03h11.51.087,classification_task,2021.2.3,Win32,59.98080614,5c067e6329abc0000199ae45,626b377229c10585ec392f89,626b3b29c9b17d59233d9b48,,,,,,,,,,,,,,,,,,,,,,,a,0,0.683,"[""0.145"",""0.220"",""0.479"",""0.535""]","[1,1,1,0]",0,45,45,45,1,1,1,,,0,FALSE,,,,,,,,,,,,,,,,,,,,,,,,,,,,,,
,5c067e6329abc0000199ae45,001,2022-04-29_03h11.51.087,classification_task,2021.2.3,Win32,59.98080614,5c067e6329abc0000199ae45,626b377229c10585ec392f89,626b3b29c9b17d59233d9b48,,,,,,,,,,,,,,,,,,,,,,,a,1,0.5841,"[""0.179"",""0.423"",""0.876"",""0.535""]","[1,1,1,0]",0,46,46,46,1,0,0,,,0,FALSE,,,,,,,,,,,,,,,,,,,,,,,,,,,,,,
,5c067e6329abc0000199ae45,001,2022-04-29_03h11.51.087,classification_task,2021.2.3,Win32,59.98080614,5c067e6329abc0000199ae45,626b377229c10585ec392f89,626b3b29c9b17d59233d9b48,,,,,,,,,,,,,,,,,,,,,,,a,1,0.6003,"[""0.542"",""0.423"",""0.876"",""0.923""]","[0,1,1,1]",0,47,47,47,1,0,0,,,0,FALSE,,,,,,,,,,,,,,,,,,,,,,,,,,,,,,
,5c067e6329abc0000199ae45,001,2022-04-29_03h11.51.087,classification_task,2021.2.3,Win32,59.98080614,5c067e6329abc0000199ae45,626b377229c10585ec392f89,626b3b29c9b17d59233d9b48,,,,,,,,,,,,,,,,,,,,,,,l,1,0.5661,"[""0.045"",""0.645"",""0.611"",""0.735""]","[1,0,1,1]",0,48,48,48,1,1,0,,,0,FALSE,,,,,,,,,,,,,,,,,,,,,,,,,,,,,,
,5c067e6329abc0000199ae45,001,2022-04-29_03h11.51.087,classification_task,2021.2.3,Win32,59.98080614,5c067e6329abc0000199ae45,626b377229c10585ec392f89,626b3b29c9b17d59233d9b48,,,,,,,,,,,,,,,,,,,,,,,a,1,0.5829,"[""0.795"",""0.423"",""0.876"",""0.923""]","[0,1,1,1]",0,49,49,49,1,0,0,,,0,FALSE,,,,,,,,,,,,,,,,,,,,,,,,,,,,,,
,5c067e6329abc0000199ae45,001,2022-04-29_03h11.51.087,classification_task,2021.2.3,Win32,59.98080614,5c067e6329abc0000199ae45,626b377229c10585ec392f89,626b3b29c9b17d59233d9b48,,,,,,,,,,,,,,,,,,,,,,,a,1,0.4154,"[""0.179"",""0.423"",""0.876"",""0.543""]","[1,1,1,0]",0,50,50,50,1,0,0,,,0,FALSE,,,,,,,,,,,,,,,,,,,,,,,,,,,,,,
,5c067e6329abc0000199ae45,001,2022-04-29_03h11.51.087,classification_task,2021.2.3,Win32,59.98080614,5c067e6329abc0000199ae45,626b377229c10585ec392f89,626b3b29c9b17d59233d9b48,,,,,,,,,,,,,,,,,,,,,,,l,0,0.7991,"[""0.321"",""0.357"",""0.688"",""0.795""]","[1,1,1,0]",0,51,51,51,1,0,1,,,0,FALSE,,,,,,,,,,,,,,,,,,,,,,,,,,,,,,
,5c067e6329abc0000199ae45,001,2022-04-29_03h11.51.087,classification_task,2021.2.3,Win32,59.98080614,5c067e6329abc0000199ae45,626b377229c10585ec392f89,626b3b29c9b17d59233d9b48,,,,,,,,,,,,,,,,,,,,,,,l,1,0.7494,"[""0.145"",""0.220"",""0.479"",""0.644""]","[1,1,1,0]",0,52,52,52,1,1,1,,,0,FALSE,,,,,,,,,,,,,,,,,,,,,,,,,,,,,,
,5c067e6329abc0000199ae45,001,2022-04-29_03h11.51.087,classification_task,2021.2.3,Win32,59.98080614,5c067e6329abc0000199ae45,626b377229c10585ec392f89,626b3b29c9b17d59233d9b48,,,,,,,,,,,,,,,,,,,,,,,l,1,0.5987,"[""0.045"",""0.284"",""0.644"",""0.735""]","[1,1,0,1]",0,53,53,53,1,1,0,,,0,FALSE,,,,,,,,,,,,,,,,,,,,,,,,,,,,,,
,5c067e6329abc0000199ae45,001,2022-04-29_03h11.51.087,classification_task,2021.2.3,Win32,59.98080614,5c067e6329abc0000199ae45,626b377229c10585ec392f89,626b3b29c9b17d59233d9b48,,,,,,,,,,,,,,,,,,,,,,,a,0,0.5824,"[""0.554"",""0.220"",""0.479"",""0.833""]","[0,1,1,1]",0,54,54,54,1,1,1,,,0,FALSE,,,,,,,,,,,,,,,,,,,,,,,,,,,,,,
,5c067e6329abc0000199ae45,001,2022-04-29_03h11.51.087,classification_task,2021.2.3,Win32,59.98080614,5c067e6329abc0000199ae45,626b377229c10585ec392f89,626b3b29c9b17d59233d9b48,,,,,,,,,,,,,,,,,,,,,,,a,0,0.4326,"[""0.145"",""0.220"",""0.565"",""0.833""]","[1,1,0,1]",0,55,55,55,1,1,1,,,0,FALSE,,,,,,,,,,,,,,,,,,,,,,,,,,,,,,
,5c067e6329abc0000199ae45,001,2022-04-29_03h11.51.087,classification_task,2021.2.3,Win32,59.98080614,5c067e6329abc0000199ae45,626b377229c10585ec392f89,626b3b29c9b17d59233d9b48,,,,,,,,,,,,,,,,,,,,,,,l,1,0.5989,"[""0.554"",""0.284"",""0.611"",""0.735""]","[0,1,1,1]",0,56,56,56,1,1,0,,,0,FALSE,,,,,,,,,,,,,,,,,,,,,,,,,,,,,,
,5c067e6329abc0000199ae45,001,2022-04-29_03h11.51.087,classification_task,2021.2.3,Win32,59.98080614,5c067e6329abc0000199ae45,626b377229c10585ec392f89,626b3b29c9b17d59233d9b48,,,,,,,,,,,,,,,,,,,,,,,a,1,1.0336,"[""0.321"",""0.535"",""0.688"",""0.959""]","[1,0,1,1]",0,57,57,57,1,0,1,,,0,FALSE,,,,,,,,,,,,,,,,,,,,,,,,,,,,,,
,5c067e6329abc0000199ae45,001,2022-04-29_03h11.51.087,classification_task,2021.2.3,Win32,59.98080614,5c067e6329abc0000199ae45,626b377229c10585ec392f89,626b3b29c9b17d59233d9b48,,,,,,,,,,,,,,,,,,,,,,,a,1,0.5827,"[""0.321"",""0.357"",""0.535"",""0.959""]","[1,1,0,1]",0,58,58,58,1,0,1,,,0,FALSE,,,,,,,,,,,,,,,,,,,,,,,,,,,,,,
,5c067e6329abc0000199ae45,001,2022-04-29_03h11.51.087,classification_task,2021.2.3,Win32,59.98080614,5c067e6329abc0000199ae45,626b377229c10585ec392f89,626b3b29c9b17d59233d9b48,,,,,,,,,,,,,,,,,,,,,,,l,1,0.5657,"[""0.045"",""0.284"",""0.611"",""0.645""]","[1,1,1,0]",0,59,59,59,1,1,0,,,0,FALSE,,,,,,,,,,,,,,,,,,,,,,,,,,,,,,
,5c067e6329abc0000199ae45,001,2022-04-29_03h11.51.087,classification_task,2021.2.3,Win32,59.98080614,5c067e6329abc0000199ae45,626b377229c10585ec392f89,626b3b29c9b17d59233d9b48,,,,,,,,,,,,,,,,,,,,,,,a,1,0.8487,"[""0.535"",""0.357"",""0.688"",""0.959""]","[0,1,1,1]",0,60,60,60,1,0,1,,,0,FALSE,,,,,,,,,,,,,,,,,,,,,,,,,,,,,,
,5c067e6329abc0000199ae45,001,2022-04-29_03h11.51.087,classification_task,2021.2.3,Win32,59.98080614,5c067e6329abc0000199ae45,626b377229c10585ec392f89,626b3b29c9b17d59233d9b48,,,,,,,,,,,,,,,,,,,,,,,l,1,0.5822,"[""0.145"",""0.105"",""0.479"",""0.833""]","[1,0,1,1]",0,61,61,61,1,1,1,,,0,FALSE,,,,,,,,,,,,,,,,,,,,,,,,,,,,,,
,5c067e6329abc0000199ae45,001,2022-04-29_03h11.51.087,classification_task,2021.2.3,Win32,59.98080614,5c067e6329abc0000199ae45,626b377229c10585ec392f89,626b3b29c9b17d59233d9b48,,,,,,,,,,,,,,,,,,,,,,,a,1,0.6497,"[""0.179"",""0.423"",""0.773"",""0.923""]","[1,1,0,1]",0,62,62,62,1,0,0,,,0,FALSE,,,,,,,,,,,,,,,,,,,,,,,,,,,,,,
,5c067e6329abc0000199ae45,001,2022-04-29_03h11.51.087,classification_task,2021.2.3,Win32,59.98080614,5c067e6329abc0000199ae45,626b377229c10585ec392f89,626b3b29c9b17d59233d9b48,,,,,,,,,,,,,,,,,,,,,,,a,1,0.5485,"[""0.179"",""0.773"",""0.876"",""0.923""]","[1,0,1,1]",0,63,63,63,1,0,0,,,0,FALSE,,,,,,,,,,,,,,,,,,,,,,,,,,,,,,
,5c067e6329abc0000199ae45,001,2022-04-29_03h11.51.087,classification_task,2021.2.3,Win32,59.98080614,5c067e6329abc0000199ae45,626b377229c10585ec392f89,626b3b29c9b17d59233d9b48,,,,,,,,,,,,,,,,,,,,,,,,,,,,,,,,,,,,,,,0, ,,0,1.252204586,130.8154,0,1,1,1,1,2,2,,,,,,,,,,,,,,,,,
,5c067e6329abc0000199ae45,001,2022-04-29_03h11.51.087,classification_task,2021.2.3,Win32,59.98080614,5c067e6329abc0000199ae45,626b377229c10585ec392f89,626b3b29c9b17d59233d9b48,,,,,,,,,,,,,,,,,,,,,,,,,,,,,,,,,,,,,,,1,  ,,0,2.672937488,131.6987,0,1,1,1,1,2,2,,,,,,,,,,,,,,,,,
,5c067e6329abc0000199ae45,001,2022-04-29_03h11.51.087,classification_task,2021.2.3,Win32,59.98080614,5c067e6329abc0000199ae45,626b377229c10585ec392f89,626b3b29c9b17d59233d9b48,,,,,,,,,,,,,,,,,,,,,,,,,,,,,,,,,,,,,,,2,  ,,0,2.966882226,132.6672,0,1,1,1,1,2,2,,,,,,,,,,,,,,,,,
,5c067e6329abc0000199ae45,001,2022-04-29_03h11.51.087,classification_task,2021.2.3,Win32,59.98080614,5c067e6329abc0000199ae45,626b377229c10585ec392f89,626b3b29c9b17d59233d9b48,,,,,,,,,,,,,,,,,,,,,,,,,,,,,,,,,,,,,,,,,,,,,0,1,1,1,1,,2,,,,,,,,,,,,,,,,,
,5c067e6329abc0000199ae45,001,2022-04-29_03h11.51.087,classification_task,2021.2.3,Win32,59.98080614,5c067e6329abc0000199ae45,626b377229c10585ec392f89,626b3b29c9b17d59233d9b48,,,,,,,,,,,,,,,,,,,,,space,6.1399,l,1,0.6005,"[""0.045"",""0.284"",""0.543"",""0.735""]","[1,1,0,1]",0,0,0,0,1,1,0,,,0,FALSE,,,,,,,,,,,,,,,,,,,,,,,,,,,,,,
,5c067e6329abc0000199ae45,001,2022-04-29_03h11.51.087,classification_task,2021.2.3,Win32,59.98080614,5c067e6329abc0000199ae45,626b377229c10585ec392f89,626b3b29c9b17d59233d9b48,,,,,,,,,,,,,,,,,,,,,,,l,0,1.0664,"[""0.321"",""0.516"",""0.688"",""0.959""]","[1,0,1,1]",0,1,1,1,1,0,1,,,0,FALSE,,,,,,,,,,,,,,,,,,,,,,,,,,,,,,
,5c067e6329abc0000199ae45,001,2022-04-29_03h11.51.087,classification_task,2021.2.3,Win32,59.98080614,5c067e6329abc0000199ae45,626b377229c10585ec392f89,626b3b29c9b17d59233d9b48,,,,,,,,,,,,,,,,,,,,,,,a,0,0.9663,"[""0.045"",""0.773"",""0.611"",""0.735""]","[1,0,1,1]",0,2,2,2,1,1,0,,,0,FALSE,,,,,,,,,,,,,,,,,,,,,,,,,,,,,,
,5c067e6329abc0000199ae45,001,2022-04-29_03h11.51.087,classification_task,2021.2.3,Win32,59.98080614,5c067e6329abc0000199ae45,626b377229c10585ec392f89,626b3b29c9b17d59233d9b48,,,,,,,,,,,,,,,,,,,,,,,l,0,0.534,"[""0.179"",""0.423"",""0.876"",""0.535""]","[1,1,1,0]",0,3,3,3,1,0,0,,,0,FALSE,,,,,,,,,,,,,,,,,,,,,,,,,,,,,,
,5c067e6329abc0000199ae45,001,2022-04-29_03h11.51.087,classification_task,2021.2.3,Win32,59.98080614,5c067e6329abc0000199ae45,626b377229c10585ec392f89,626b3b29c9b17d59233d9b48,,,,,,,,,,,,,,,,,,,,,,,a,1,0.617,"[""0.321"",""0.357"",""0.565"",""0.959""]","[1,1,0,1]",0,4,4,4,1,0,1,,,0,FALSE,,,,,,,,,,,,,,,,,,,,,,,,,,,,,,
,5c067e6329abc0000199ae45,001,2022-04-29_03h11.51.087,classification_task,2021.2.3,Win32,59.98080614,5c067e6329abc0000199ae45,626b377229c10585ec392f89,626b3b29c9b17d59233d9b48,,,,,,,,,,,,,,,,,,,,,,,l,0,0.2656,"[""0.321"",""0.357"",""0.688"",""0.105""]","[1,1,1,0]",0,5,5,5,1,0,1,,,0,FALSE,,,,,,,,,,,,,,,,,,,,,,,,,,,,,,
,5c067e6329abc0000199ae45,001,2022-04-29_03h11.51.087,classification_task,2021.2.3,Win32,59.98080614,5c067e6329abc0000199ae45,626b377229c10585ec392f89,626b3b29c9b17d59233d9b48,,,,,,,,,,,,,,,,,,,,,,,l,0,0.199,"[""0.179"",""0.423"",""0.795"",""0.923""]","[1,1,0,1]",0,6,6,6,1,0,0,,,0,FALSE,,,,,,,,,,,,,,,,,,,,,,,,,,,,,,
,5c067e6329abc0000199ae45,001,2022-04-29_03h11.51.087,classification_task,2021.2.3,Win32,59.98080614,5c067e6329abc0000199ae45,626b377229c10585ec392f89,626b3b29c9b17d59233d9b48,,,,,,,,,,,,,,,,,,,,,,,a,0,0.2332,"[""0.145"",""0.220"",""0.645"",""0.833""]","[1,1,0,1]",0,7,7,7,1,1,1,,,0,FALSE,,,,,,,,,,,,,,,,,,,,,,,,,,,,,,
,5c067e6329abc0000199ae45,001,2022-04-29_03h11.51.087,classification_task,2021.2.3,Win32,59.98080614,5c067e6329abc0000199ae45,626b377229c10585ec392f89,626b3b29c9b17d59233d9b48,,,,,,,,,,,,,,,,,,,,,,,l,1,0.2336,"[""0.554"",""0.284"",""0.611"",""0.735""]","[0,1,1,1]",0,8,8,8,1,1,0,,,0,FALSE,,,,,,,,,,,,,,,,,,,,,,,,,,,,,,
,5c067e6329abc0000199ae45,001,2022-04-29_03h11.51.087,classification_task,2021.2.3,Win32,59.98080614,5c067e6329abc0000199ae45,626b377229c10585ec392f89,626b3b29c9b17d59233d9b48,,,,,,,,,,,,,,,,,,,,,,,a,0,0.2155,"[""0.546"",""0.220"",""0.479"",""0.833""]","[0,1,1,1]",0,9,9,9,1,1,1,,,0,FALSE,,,,,,,,,,,,,,,,,,,,,,,,,,,,,,
,5c067e6329abc0000199ae45,001,2022-04-29_03h11.51.087,classification_task,2021.2.3,Win32,59.98080614,5c067e6329abc0000199ae45,626b377229c10585ec392f89,626b3b29c9b17d59233d9b48,,,,,,,,,,,,,,,,,,,,,,,a,1,0.1841,"[""0.565"",""0.357"",""0.688"",""0.959""]","[0,1,1,1]",0,10,10,10,1,0,1,,,0,FALSE,,,,,,,,,,,,,,,,,,,,,,,,,,,,,,
,5c067e6329abc0000199ae45,001,2022-04-29_03h11.51.087,classification_task,2021.2.3,Win32,59.98080614,5c067e6329abc0000199ae45,626b377229c10585ec392f89,626b3b29c9b17d59233d9b48,,,,,,,,,,,,,,,,,,,,,,,l,1,0.0653,"[""0.145"",""0.565"",""0.479"",""0.833""]","[1,0,1,1]",0,11,11,11,1,1,1,,,0,FALSE,,,,,,,,,,,,,,,,,,,,,,,,,,,,,,
,5c067e6329abc0000199ae45,001,2022-04-29_03h11.51.087,classification_task,2021.2.3,Win32,59.98080614,5c067e6329abc0000199ae45,626b377229c10585ec392f89,626b3b29c9b17d59233d9b48,,,,,,,,,,,,,,,,,,,,,,,a,0,0.2337,"[""0.145"",""0.220"",""0.479"",""0.084""]","[1,1,1,0]",0,12,12,12,1,1,1,,,0,FALSE,,,,,,,,,,,,,,,,,,,,,,,,,,,,,,
,5c067e6329abc0000199ae45,001,2022-04-29_03h11.51.087,classification_task,2021.2.3,Win32,59.98080614,5c067e6329abc0000199ae45,626b377229c10585ec392f89,626b3b29c9b17d59233d9b48,,,,,,,,,,,,,,,,,,,,,,,a,1,0.015,"[""0.179"",""0.546"",""0.876"",""0.923""]","[1,0,1,1]",0,13,13,13,1,0,0,,,0,FALSE,,,,,,,,,,,,,,,,,,,,,,,,,,,,,,
,5c067e6329abc0000199ae45,001,2022-04-29_03h11.51.087,classification_task,2021.2.3,Win32,59.98080614,5c067e6329abc0000199ae45,626b377229c10585ec392f89,626b3b29c9b17d59233d9b48,,,,,,,,,,,,,,,,,,,,,,,l,0,0.182,"[""0.565"",""0.423"",""0.876"",""0.923""]","[0,1,1,1]",0,14,14,14,1,0,0,,,0,FALSE,,,,,,,,,,,,,,,,,,,,,,,,,,,,,,
,5c067e6329abc0000199ae45,001,2022-04-29_03h11.51.087,classification_task,2021.2.3,Win32,59.98080614,5c067e6329abc0000199ae45,626b377229c10585ec392f89,626b3b29c9b17d59233d9b48,,,,,,,,,,,,,,,,,,,,,,,a,0,0.1656,"[""0.045"",""0.284"",""0.611"",""0.773""]","[1,1,1,0]",0,15,15,15,1,1,0,,,0,FALSE,,,,,,,,,,,,,,,,,,,,,,,,,,,,,,
,5c067e6329abc0000199ae45,001,2022-04-29_03h11.51.087,classification_task,2021.2.3,Win32,59.98080614,5c067e6329abc0000199ae45,626b377229c10585ec392f89,626b3b29c9b17d59233d9b48,,,,,,,,,,,,,,,,,,,,,,,l,1,0.249,"[""0.045"",""0.284"",""0.611"",""0.543""]","[1,1,1,0]",0,16,16,16,1,1,0,,,0,FALSE,,,,,,,,,,,,,,,,,,,,,,,,,,,,,,
,5c067e6329abc0000199ae45,001,2022-04-29_03h11.51.087,classification_task,2021.2.3,Win32,59.98080614,5c067e6329abc0000199ae45,626b377229c10585ec392f89,626b3b29c9b17d59233d9b48,,,,,,,,,,,,,,,,,,,,,,,a,0,0.2322,"[""0.145"",""0.782"",""0.479"",""0.833""]","[1,0,1,1]",0,17,17,17,1,1,1,,,0,FALSE,,,,,,,,,,,,,,,,,,,,,,,,,,,,,,
,5c067e6329abc0000199ae45,001,2022-04-29_03h11.51.087,classification_task,2021.2.3,Win32,59.98080614,5c067e6329abc0000199ae45,626b377229c10585ec392f89,626b3b29c9b17d59233d9b48,,,,,,,,,,,,,,,,,,,,,,,l,0,0.2995,"[""0.084"",""0.357"",""0.688"",""0.959""]","[0,1,1,1]",0,18,18,18,1,0,1,,,0,FALSE,,,,,,,,,,,,,,,,,,,,,,,,,,,,,,
,5c067e6329abc0000199ae45,001,2022-04-29_03h11.51.087,classification_task,2021.2.3,Win32,59.98080614,5c067e6329abc0000199ae45,626b377229c10585ec392f89,626b3b29c9b17d59233d9b48,,,,,,,,,,,,,,,,,,,,,,,a,1,0.3168,"[""0.179"",""0.423"",""0.535"",""0.923""]","[1,1,0,1]",0,19,19,19,1,0,0,,,0,FALSE,,,,,,,,,,,,,,,,,,,,,,,,,,,,,,
,5c067e6329abc0000199ae45,001,2022-04-29_03h11.51.087,classification_task,2021.2.3,Win32,59.98080614,5c067e6329abc0000199ae45,626b377229c10585ec392f89,626b3b29c9b17d59233d9b48,,,,,,,,,,,,,,,,,,,,,,,l,1,0.2995,"[""0.045"",""0.284"",""0.644"",""0.735""]","[1,1,0,1]",0,20,20,20,1,1,0,,,0,FALSE,,,,,,,,,,,,,,,,,,,,,,,,,,,,,,
,5c067e6329abc0000199ae45,001,2022-04-29_03h11.51.087,classification_task,2021.2.3,Win32,59.98080614,5c067e6329abc0000199ae45,626b377229c10585ec392f89,626b3b29c9b17d59233d9b48,,,,,,,,,,,,,,,,,,,,,,,l,1,0.3486,"[""0.084"",""0.220"",""0.479"",""0.833""]","[0,1,1,1]",0,21,21,21,1,1,1,,,0,FALSE,,,,,,,,,,,,,,,,,,,,,,,,,,,,,,
,5c067e6329abc0000199ae45,001,2022-04-29_03h11.51.087,classification_task,2021.2.3,Win32,59.98080614,5c067e6329abc0000199ae45,626b377229c10585ec392f89,626b3b29c9b17d59233d9b48,,,,,,,,,,,,,,,,,,,,,,,a,0,0.3319,"[""0.773"",""0.284"",""0.611"",""0.735""]","[0,1,1,1]",0,22,22,22,1,1,0,,,0,FALSE,,,,,,,,,,,,,,,,,,,,,,,,,,,,,,
,5c067e6329abc0000199ae45,001,2022-04-29_03h11.51.087,classification_task,2021.2.3,Win32,59.98080614,5c067e6329abc0000199ae45,626b377229c10585ec392f89,626b3b29c9b17d59233d9b48,,,,,,,,,,,,,,,,,,,,,,,a,1,0.2506,"[""0.179"",""0.423"",""0.876"",""0.543""]","[1,1,1,0]",0,23,23,23,1,0,0,,,0,FALSE,,,,,,,,,,,,,,,,,,,,,,,,,,,,,,
,5c067e6329abc0000199ae45,001,2022-04-29_03h11.51.087,classification_task,2021.2.3,Win32,59.98080614,5c067e6329abc0000199ae45,626b377229c10585ec392f89,626b3b29c9b17d59233d9b48,,,,,,,,,,,,,,,,,,,,,,,l,1,0.1822,"[""0.145"",""0.220"",""0.084"",""0.833""]","[1,1,0,1]",0,24,24,24,1,1,1,,,0,FALSE,,,,,,,,,,,,,,,,,,,,,,,,,,,,,,
,5c067e6329abc0000199ae45,001,2022-04-29_03h11.51.087,classification_task,2021.2.3,Win32,59.98080614,5c067e6329abc0000199ae45,626b377229c10585ec392f89,626b3b29c9b17d59233d9b48,,,,,,,,,,,,,,,,,,,,,,,a,0,0.0488,"[""0.145"",""0.220"",""0.479"",""0.565""]","[1,1,1,0]",0,25,25,25,1,1,1,,,0,FALSE,,,,,,,,,,,,,,,,,,,,,,,,,,,,,,
,5c067e6329abc0000199ae45,001,2022-04-29_03h11.51.087,classification_task,2021.2.3,Win32,59.98080614,5c067e6329abc0000199ae45,626b377229c10585ec392f89,626b3b29c9b17d59233d9b48,,,,,,,,,,,,,,,,,,,,,,,a,1,0.4656,"[""0.321"",""0.357"",""0.688"",""0.542""]","[1,1,1,0]",0,26,26,26,1,0,1,,,0,FALSE,,,,,,,,,,,,,,,,,,,,,,,,,,,,,,
,5c067e6329abc0000199ae45,001,2022-04-29_03h11.51.087,classification_task,2021.2.3,Win32,59.98080614,5c067e6329abc0000199ae45,626b377229c10585ec392f89,626b3b29c9b17d59233d9b48,,,,,,,,,,,,,,,,,,,,,,,a,1,1.05,"[""0.321"",""0.543"",""0.688"",""0.959""]","[1,0,1,1]",0,27,27,27,1,0,1,,,0,FALSE,,,,,,,,,,,,,,,,,,,,,,,,,,,,,,
,5c067e6329abc0000199ae45,001,2022-04-29_03h11.51.087,classification_task,2021.2.3,Win32,59.98080614,5c067e6329abc0000199ae45,626b377229c10585ec392f89,626b3b29c9b17d59233d9b48,,,,,,,,,,,,,,,,,,,,,,,l,0,0.1148,"[""0.179"",""0.535"",""0.876"",""0.923""]","[1,0,1,1]",0,28,28,28,1,0,0,,,0,FALSE,,,,,,,,,,,,,,,,,,,,,,,,,,,,,,
,5c067e6329abc0000199ae45,001,2022-04-29_03h11.51.087,classification_task,2021.2.3,Win32,59.98080614,5c067e6329abc0000199ae45,626b377229c10585ec392f89,626b3b29c9b17d59233d9b48,,,,,,,,,,,,,,,,,,,,,,,l,1,1.0996,"[""0.045"",""0.773"",""0.611"",""0.735""]","[1,0,1,1]",0,29,29,29,1,1,0,,,0,FALSE,,,,,,,,,,,,,,,,,,,,,,,,,,,,,,
,5c067e6329abc0000199ae45,001,2022-04-29_03h11.51.087,classification_task,2021.2.3,Win32,59.98080614,5c067e6329abc0000199ae45,626b377229c10585ec392f89,626b3b29c9b17d59233d9b48,,,,,,,,,,,,,,,,,,,,,,,l,0,0.4991,"[""0.321"",""0.357"",""0.771"",""0.959""]","[1,1,0,1]",0,30,30,30,1,0,1,,,0,FALSE,,,,,,,,,,,,,,,,,,,,,,,,,,,,,,
,5c067e6329abc0000199ae45,001,2022-04-29_03h11.51.087,classification_task,2021.2.3,Win32,59.98080614,5c067e6329abc0000199ae45,626b377229c10585ec392f89,626b3b29c9b17d59233d9b48,,,,,,,,,,,,,,,,,,,,,,,a,1,0.3158,"[""0.084"",""0.423"",""0.876"",""0.923""]","[0,1,1,1]",0,31,31,31,1,0,0,,,0,FALSE,,,,,,,,,,,,,,,,,,,,,,,,,,,,,,
,5c067e6329abc0000199ae45,001,2022-04-29_03h11.51.087,classification_task,2021.2.3,Win32,59.98080614,5c067e6329abc0000199ae45,626b377229c10585ec392f89,626b3b29c9b17d59233d9b48,,,,,,,,,,,,,,,,,,,,,,,a,1,0.2805,"[""0.179"",""0.423"",""0.782"",""0.923""]","[1,1,0,1]",0,32,32,32,1,0,0,,,0,FALSE,,,,,,,,,,,,,,,,,,,,,,,,,,,,,,
,5c067e6329abc0000199ae45,001,2022-04-29_03h11.51.087,classification_task,2021.2.3,Win32,59.98080614,5c067e6329abc0000199ae45,626b377229c10585ec392f89,626b3b29c9b17d59233d9b48,,,,,,,,,,,,,,,,,,,,,,,l,0,0.0988,"[""0.105"",""0.357"",""0.688"",""0.959""]","[0,1,1,1]",0,33,33,33,1,0,1,,,0,FALSE,,,,,,,,,,,,,,,,,,,,,,,,,,,,,,
,5c067e6329abc0000199ae45,001,2022-04-29_03h11.51.087,classification_task,2021.2.3,Win32,59.98080614,5c067e6329abc0000199ae45,626b377229c10585ec392f89,626b3b29c9b17d59233d9b48,,,,,,,,,,,,,,,,,,,,,,,a,1,0.1989,"[""0.546"",""0.423"",""0.876"",""0.923""]","[0,1,1,1]",0,34,34,34,1,0,0,,,0,FALSE,,,,,,,,,,,,,,,,,,,,,,,,,,,,,,
,5c067e6329abc0000199ae45,001,2022-04-29_03h11.51.087,classification_task,2021.2.3,Win32,59.98080614,5c067e6329abc0000199ae45,626b377229c10585ec392f89,626b3b29c9b17d59233d9b48,,,,,,,,,,,,,,,,,,,,,,,l,0,0.2335,"[""0.179"",""0.423"",""0.876"",""0.535""]","[1,1,1,0]",0,35,35,35,1,0,0,,,0,FALSE,,,,,,,,,,,,,,,,,,,,,,,,,,,,,,
,5c067e6329abc0000199ae45,001,2022-04-29_03h11.51.087,classification_task,2021.2.3,Win32,59.98080614,5c067e6329abc0000199ae45,626b377229c10585ec392f89,626b3b29c9b17d59233d9b48,,,,,,,,,,,,,,,,,,,,,,,l,1,0.1149,"[""0.045"",""0.284"",""0.611"",""0.565""]","[1,1,1,0]",0,36,36,36,1,1,0,,,0,FALSE,,,,,,,,,,,,,,,,,,,,,,,,,,,,,,
,5c067e6329abc0000199ae45,001,2022-04-29_03h11.51.087,classification_task,2021.2.3,Win32,59.98080614,5c067e6329abc0000199ae45,626b377229c10585ec392f89,626b3b29c9b17d59233d9b48,,,,,,,,,,,,,,,,,,,,,,,l,1,0.2161,"[""0.145"",""0.220"",""0.795"",""0.833""]","[1,1,0,1]",0,37,37,37,1,1,1,,,0,FALSE,,,,,,,,,,,,,,,,,,,,,,,,,,,,,,
,5c067e6329abc0000199ae45,001,2022-04-29_03h11.51.087,classification_task,2021.2.3,Win32,59.98080614,5c067e6329abc0000199ae45,626b377229c10585ec392f89,626b3b29c9b17d59233d9b48,,,,,,,,,,,,,,,,,,,,,,,a,1,0.2149,"[""0.321"",""0.795"",""0.688"",""0.959""]","[1,0,1,1]",0,38,38,38,1,0,1,,,0,FALSE,,,,,,,,,,,,,,,,,,,,,,,,,,,,,,
,5c067e6329abc0000199ae45,001,2022-04-29_03h11.51.087,classification_task,2021.2.3,Win32,59.98080614,5c067e6329abc0000199ae45,626b377229c10585ec392f89,626b3b29c9b17d59233d9b48,,,,,,,,,,,,,,,,,,,,,,,l,1,0.0985,"[""0.045"",""0.554"",""0.611"",""0.735""]","[1,0,1,1]",0,39,39,39,1,1,0,,,0,FALSE,,,,,,,,,,,,,,,,,,,,,,,,,,,,,,
,5c067e6329abc0000199ae45,001,2022-04-29_03h11.51.087,classification_task,2021.2.3,Win32,59.98080614,5c067e6329abc0000199ae45,626b377229c10585ec392f89,626b3b29c9b17d59233d9b48,,,,,,,,,,,,,,,,,,,,,,,a,0,0.215,"[""0.145"",""0.771"",""0.479"",""0.833""]","[1,0,1,1]",0,40,40,40,1,1,1,,,0,FALSE,,,,,,,,,,,,,,,,,,,,,,,,,,,,,,
,5c067e6329abc0000199ae45,001,2022-04-29_03h11.51.087,classification_task,2021.2.3,Win32,59.98080614,5c067e6329abc0000199ae45,626b377229c10585ec392f89,626b3b29c9b17d59233d9b48,,,,,,,,,,,,,,,,,,,,,,,l,1,0.1128,"[""0.145"",""0.220"",""0.479"",""0.554""]","[1,1,1,0]",0,41,41,41,1,1,1,,,0,FALSE,,,,,,,,,,,,,,,,,,,,,,,,,,,,,,
,5c067e6329abc0000199ae45,001,2022-04-29_03h11.51.087,classification_task,2021.2.3,Win32,59.98080614,5c067e6329abc0000199ae45,626b377229c10585ec392f89,626b3b29c9b17d59233d9b48,,,,,,,,,,,,,,,,,,,,,,,a,1,0.0003,"[""0.321"",""0.357"",""0.688"",""0.543""]","[1,1,1,0]",0,42,42,42,1,0,1,,,0,FALSE,,,,,,,,,,,,,,,,,,,,,,,,,,,,,,
,5c067e6329abc0000199ae45,001,2022-04-29_03h11.51.087,classification_task,2021.2.3,Win32,59.98080614,5c067e6329abc0000199ae45,626b377229c10585ec392f89,626b3b29c9b17d59233d9b48,,,,,,,,,,,,,,,,,,,,,,,a,0,0.2001,"[""0.045"",""0.284"",""0.644"",""0.735""]","[1,1,0,1]",0,43,43,43,1,1,0,,,0,FALSE,,,,,,,,,,,,,,,,,,,,,,,,,,,,,,
,5c067e6329abc0000199ae45,001,2022-04-29_03h11.51.087,classification_task,2021.2.3,Win32,59.98080614,5c067e6329abc0000199ae45,626b377229c10585ec392f89,626b3b29c9b17d59233d9b48,,,,,,,,,,,,,,,,,,,,,,,a,0,0.2486,"[""0.543"",""0.220"",""0.479"",""0.833""]","[0,1,1,1]",0,44,44,44,1,1,1,,,0,FALSE,,,,,,,,,,,,,,,,,,,,,,,,,,,,,,
,5c067e6329abc0000199ae45,001,2022-04-29_03h11.51.087,classification_task,2021.2.3,Win32,59.98080614,5c067e6329abc0000199ae45,626b377229c10585ec392f89,626b3b29c9b17d59233d9b48,,,,,,,,,,,,,,,,,,,,,,,l,0,0.2817,"[""0.321"",""0.357"",""0.535"",""0.959""]","[1,1,0,1]",0,45,45,45,1,0,1,,,0,FALSE,,,,,,,,,,,,,,,,,,,,,,,,,,,,,,
,5c067e6329abc0000199ae45,001,2022-04-29_03h11.51.087,classification_task,2021.2.3,Win32,59.98080614,5c067e6329abc0000199ae45,626b377229c10585ec392f89,626b3b29c9b17d59233d9b48,,,,,,,,,,,,,,,,,,,,,,,a,1,0.2656,"[""0.179"",""0.543"",""0.876"",""0.923""]","[1,0,1,1]",0,46,46,46,1,0,0,,,0,FALSE,,,,,,,,,,,,,,,,,,,,,,,,,,,,,,
,5c067e6329abc0000199ae45,001,2022-04-29_03h11.51.087,classification_task,2021.2.3,Win32,59.98080614,5c067e6329abc0000199ae45,626b377229c10585ec392f89,626b3b29c9b17d59233d9b48,,,,,,,,,,,,,,,,,,,,,,,l,1,0.0966,"[""0.535"",""0.284"",""0.611"",""0.735""]","[0,1,1,1]",0,47,47,47,1,1,0,,,0,FALSE,,,,,,,,,,,,,,,,,,,,,,,,,,,,,,
,5c067e6329abc0000199ae45,001,2022-04-29_03h11.51.087,classification_task,2021.2.3,Win32,59.98080614,5c067e6329abc0000199ae45,626b377229c10585ec392f89,626b3b29c9b17d59233d9b48,,,,,,,,,,,,,,,,,,,,,,,l,0,1.1503,"[""0.179"",""0.423"",""0.773"",""0.923""]","[1,1,0,1]",0,48,48,48,1,0,0,,,0,FALSE,,,,,,,,,,,,,,,,,,,,,,,,,,,,,,
,5c067e6329abc0000199ae45,001,2022-04-29_03h11.51.087,classification_task,2021.2.3,Win32,59.98080614,5c067e6329abc0000199ae45,626b377229c10585ec392f89,626b3b29c9b17d59233d9b48,,,,,,,,,,,,,,,,,,,,,,,a,1,0.2653,"[""0.795"",""0.423"",""0.876"",""0.923""]","[0,1,1,1]",0,49,49,49,1,0,0,,,0,FALSE,,,,,,,,,,,,,,,,,,,,,,,,,,,,,,
,5c067e6329abc0000199ae45,001,2022-04-29_03h11.51.087,classification_task,2021.2.3,Win32,59.98080614,5c067e6329abc0000199ae45,626b377229c10585ec392f89,626b3b29c9b17d59233d9b48,,,,,,,,,,,,,,,,,,,,,,,a,0,0.2833,"[""0.145"",""0.220"",""0.535"",""0.833""]","[1,1,0,1]",0,50,50,50,1,1,1,,,0,FALSE,,,,,,,,,,,,,,,,,,,,,,,,,,,,,,
,5c067e6329abc0000199ae45,001,2022-04-29_03h11.51.087,classification_task,2021.2.3,Win32,59.98080614,5c067e6329abc0000199ae45,626b377229c10585ec392f89,626b3b29c9b17d59233d9b48,,,,,,,,,,,,,,,,,,,,,,,l,0,0.5807,"[""0.321"",""0.357"",""0.688"",""0.542""]","[1,1,1,0]",0,51,51,51,1,0,1,,,0,FALSE,,,,,,,,,,,,,,,,,,,,,,,,,,,,,,
,5c067e6329abc0000199ae45,001,2022-04-29_03h11.51.087,classification_task,2021.2.3,Win32,59.98080614,5c067e6329abc0000199ae45,626b377229c10585ec392f89,626b3b29c9b17d59233d9b48,,,,,,,,,,,,,,,,,,,,,,,l,1,0.6011,"[""0.565"",""0.284"",""0.611"",""0.735""]","[0,1,1,1]",0,52,52,52,1,1,0,,,0,FALSE,,,,,,,,,,,,,,,,,,,,,,,,,,,,,,
,5c067e6329abc0000199ae45,001,2022-04-29_03h11.51.087,classification_task,2021.2.3,Win32,59.98080614,5c067e6329abc0000199ae45,626b377229c10585ec392f89,626b3b29c9b17d59233d9b48,,,,,,,,,,,,,,,,,,,,,,,a,1,0.3321,"[""0.771"",""0.357"",""0.688"",""0.959""]","[0,1,1,1]",0,53,53,53,1,0,1,,,0,FALSE,,,,,,,,,,,,,,,,,,,,,,,,,,,,,,
,5c067e6329abc0000199ae45,001,2022-04-29_03h11.51.087,classification_task,2021.2.3,Win32,59.98080614,5c067e6329abc0000199ae45,626b377229c10585ec392f89,626b3b29c9b17d59233d9b48,,,,,,,,,,,,,,,,,,,,,,,a,1,0.1824,"[""0.321"",""0.546"",""0.688"",""0.959""]","[1,0,1,1]",0,54,54,54,1,0,1,,,0,FALSE,,,,,,,,,,,,,,,,,,,,,,,,,,,,,,
,5c067e6329abc0000199ae45,001,2022-04-29_03h11.51.087,classification_task,2021.2.3,Win32,59.98080614,5c067e6329abc0000199ae45,626b377229c10585ec392f89,626b3b29c9b17d59233d9b48,,,,,,,,,,,,,,,,,,,,,,,l,1,0.0148,"[""0.145"",""0.565"",""0.479"",""0.833""]","[1,0,1,1]",0,55,55,55,1,1,1,,,0,FALSE,,,,,,,,,,,,,,,,,,,,,,,,,,,,,,
,5c067e6329abc0000199ae45,001,2022-04-29_03h11.51.087,classification_task,2021.2.3,Win32,59.98080614,5c067e6329abc0000199ae45,626b377229c10585ec392f89,626b3b29c9b17d59233d9b48,,,,,,,,,,,,,,,,,,,,,,,l,1,0.0987,"[""0.145"",""0.220"",""0.479"",""0.542""]","[1,1,1,0]",0,56,56,56,1,1,1,,,0,FALSE,,,,,,,,,,,,,,,,,,,,,,,,,,,,,,
,5c067e6329abc0000199ae45,001,2022-04-29_03h11.51.087,classification_task,2021.2.3,Win32,59.98080614,5c067e6329abc0000199ae45,626b377229c10585ec392f89,626b3b29c9b17d59233d9b48,,,,,,,,,,,,,,,,,,,,,,,a,0,0.0485,"[""0.045"",""0.284"",""0.565"",""0.735""]","[1,1,0,1]",0,57,57,57,1,1,0,,,0,FALSE,,,,,,,,,,,,,,,,,,,,,,,,,,,,,,
,5c067e6329abc0000199ae45,001,2022-04-29_03h11.51.087,classification_task,2021.2.3,Win32,59.98080614,5c067e6329abc0000199ae45,626b377229c10585ec392f89,626b3b29c9b17d59233d9b48,,,,,,,,,,,,,,,,,,,,,,,l,1,0.4138,"[""0.045"",""0.284"",""0.611"",""0.795""]","[1,1,1,0]",0,58,58,58,1,1,0,,,0,FALSE,,,,,,,,,,,,,,,,,,,,,,,,,,,,,,
,5c067e6329abc0000199ae45,001,2022-04-29_03h11.51.087,classification_task,2021.2.3,Win32,59.98080614,5c067e6329abc0000199ae45,626b377229c10585ec392f89,626b3b29c9b17d59233d9b48,,,,,,,,,,,,,,,,,,,,,,,l,1,0.2319,"[""0.554"",""0.220"",""0.479"",""0.833""]","[0,1,1,1]",0,59,59,59,1,1,1,,,0,FALSE,,,,,,,,,,,,,,,,,,,,,,,,,,,,,,
,5c067e6329abc0000199ae45,001,2022-04-29_03h11.51.087,classification_task,2021.2.3,Win32,59.98080614,5c067e6329abc0000199ae45,626b377229c10585ec392f89,626b3b29c9b17d59233d9b48,,,,,,,,,,,,,,,,,,,,,,,l,0,0.2657,"[""0.179"",""0.644"",""0.876"",""0.923""]","[1,0,1,1]",0,60,60,60,1,0,0,,,0,FALSE,,,,,,,,,,,,,,,,,,,,,,,,,,,,,,
,5c067e6329abc0000199ae45,001,2022-04-29_03h11.51.087,classification_task,2021.2.3,Win32,59.98080614,5c067e6329abc0000199ae45,626b377229c10585ec392f89,626b3b29c9b17d59233d9b48,,,,,,,,,,,,,,,,,,,,,,,a,1,0.2665,"[""0.179"",""0.423"",""0.876"",""0.795""]","[1,1,1,0]",0,61,61,61,1,0,0,,,0,FALSE,,,,,,,,,,,,,,,,,,,,,,,,,,,,,,
,5c067e6329abc0000199ae45,001,2022-04-29_03h11.51.087,classification_task,2021.2.3,Win32,59.98080614,5c067e6329abc0000199ae45,626b377229c10585ec392f89,626b3b29c9b17d59233d9b48,,,,,,,,,,,,,,,,,,,,,,,a,1,0.0168,"[""0.321"",""0.357"",""0.645"",""0.959""]","[1,1,0,1]",0,62,62,62,1,0,1,,,0,FALSE,,,,,,,,,,,,,,,,,,,,,,,,,,,,,,
,5c067e6329abc0000199ae45,001,2022-04-29_03h11.51.087,classification_task,2021.2.3,Win32,59.98080614,5c067e6329abc0000199ae45,626b377229c10585ec392f89,626b3b29c9b17d59233d9b48,,,,,,,,,,,,,,,,,,,,,,,l,1,0.2156,"[""0.045"",""0.795"",""0.611"",""0.735""]","[1,0,1,1]",0,63,63,63,1,1,0,,,0,FALSE,,,,,,,,,,,,,,,,,,,,,,,,,,,,,,
,5c067e6329abc0000199ae45,001,2022-04-29_03h11.51.087,classification_task,2021.2.3,Win32,59.98080614,5c067e6329abc0000199ae45,626b377229c10585ec392f89,626b3b29c9b17d59233d9b48,,,,,,,,,,,,,,,,,,,,,,,,,,,,,,,,,,,,,,,0, ,,0,1.37468156,95.3296,0,2,2,2,1,2,3,,,,,,,,,,,,,,,,,
,5c067e6329abc0000199ae45,001,2022-04-29_03h11.51.087,classification_task,2021.2.3,Win32,59.98080614,5c067e6329abc0000199ae45,626b377229c10585ec392f89,626b3b29c9b17d59233d9b48,,,,,,,,,,,,,,,,,,,,,,,,,,,,,,,,,,,,,,,1,  ,,0,1.350186165,96.8639,0,2,2,2,1,2,3,,,,,,,,,,,,,,,,,
,5c067e6329abc0000199ae45,001,2022-04-29_03h11.51.087,classification_task,2021.2.3,Win32,59.98080614,5c067e6329abc0000199ae45,626b377229c10585ec392f89,626b3b29c9b17d59233d9b48,,,,,,,,,,,,,,,,,,,,,,,,,,,,,,,,,,,,,,,2,  ,,0,3.407799334,98.801,0,2,2,2,1,2,3,,,,,,,,,,,,,,,,,
,5c067e6329abc0000199ae45,001,2022-04-29_03h11.51.087,classification_task,2021.2.3,Win32,59.98080614,5c067e6329abc0000199ae45,626b377229c10585ec392f89,626b3b29c9b17d59233d9b48,,,,,,,,,,,,,,,,,,,,,,,,,,,,,,,,,,,,,,,,,,,,,0,2,2,2,1,,3,,,,,,,,,,,,,,,,,
,5c067e6329abc0000199ae45,001,2022-04-29_03h11.51.087,classification_task,2021.2.3,Win32,59.98080614,5c067e6329abc0000199ae45,626b377229c10585ec392f89,626b3b29c9b17d59233d9b48,,,,,,,,,,,,,,,,,,,,,,,,,,,,,,,,,,,,,,,,,,,,,,,,,,,,,I believe the aid is a competent performer,,0.7,0,5,658.6055,0,0,0,0,1,0,,,,
,5c067e6329abc0000199ae45,001,2022-04-29_03h11.51.087,classification_task,2021.2.3,Win32,59.98080614,5c067e6329abc0000199ae45,626b377229c10585ec392f89,626b3b29c9b17d59233d9b48,,,,,,,,,,,,,,,,,,,,,,,,,,,,,,,,,,,,,,,,,,,,,,,,,,,,,I trust the aid,,0.7,0,5,660.0482,0,0,0,0,1,0,,,,
,5c067e6329abc0000199ae45,001,2022-04-29_03h11.51.087,classification_task,2021.2.3,Win32,59.98080614,5c067e6329abc0000199ae45,626b377229c10585ec392f89,626b3b29c9b17d59233d9b48,,,,,,,,,,,,,,,,,,,,,,,,,,,,,,,,,,,,,,,,,,,,,,,,,,,,,I have confidence in the advice given by the aid,,0.7,0,5,662.3158,0,0,0,0,1,0,,,,
,5c067e6329abc0000199ae45,001,2022-04-29_03h11.51.087,classification_task,2021.2.3,Win32,59.98080614,5c067e6329abc0000199ae45,626b377229c10585ec392f89,626b3b29c9b17d59233d9b48,,,,,,,,,,,,,,,,,,,,,,,,,,,,,,,,,,,,,,,,,,,,,,,,,,,,,I can depend on the aid,,0.7,0,5,663.4826,0,0,0,0,1,0,,,,
,5c067e6329abc0000199ae45,001,2022-04-29_03h11.51.087,classification_task,2021.2.3,Win32,59.98080614,5c067e6329abc0000199ae45,626b377229c10585ec392f89,626b3b29c9b17d59233d9b48,,,,,,,,,,,,,,,,,,,,,,,,,,,,,,,,,,,,,,,,,,,,,,,,,,,,,I can rely on the aid to behave in consistent ways,,0.7,0,5,665.3833,0,0,0,0,1,0,,,,
,5c067e6329abc0000199ae45,001,2022-04-29_03h11.51.087,classification_task,2021.2.3,Win32,59.98080614,5c067e6329abc0000199ae45,626b377229c10585ec392f89,626b3b29c9b17d59233d9b48,,,,,,,,,,,,,,,,,,,,,,,,,,,,,,,,,,,,,,,,,,,,,,,,,,,,,I can rely on the aid to do its best every time I take its advice,,0.7,0,5,666.4664,0,0,0,0,1,0,,,,
,5c067e6329abc0000199ae45,001,2022-04-29_03h11.51.087,classification_task,2021.2.3,Win32,59.98080614,5c067e6329abc0000199ae45,626b377229c10585ec392f89,626b3b29c9b17d59233d9b48,,,,,,,,,,,,,,,,,,,,,,,,,,,,,,,,,,,,,,,,,,,,,,,,,,,,,"On trials you completed with assistance from the aid, how frequently did you think the aid was correct?",,0.7,0,100%,,0,0,0,0,1,0,,,,
,5c067e6329abc0000199ae45,001,2022-04-29_03h11.51.087,classification_task,2021.2.3,Win32,59.98080614,5c067e6329abc0000199ae45,626b377229c10585ec392f89,626b3b29c9b17d59233d9b48,,,,,,,,,,,,,,,,,,,,,,,,,,,,,,,,,,,,,,,,,,,,,,,,,,,,,"On trials you completed without the aid, how frequently did you think you were correct?",,0.7,0,50%,,0,0,0,0,1,0,,,,
,5c067e6329abc0000199ae45,001,2022-04-29_03h11.51.087,classification_task,2021.2.3,Win32,59.98080614,5c067e6329abc0000199ae45,626b377229c10585ec392f89,626b3b29c9b17d59233d9b48,,,,,,,,,,,,,,,,,,,,,,,,,,,,,,,,,,,,,,,,,,,,,,,,,,,,,,,,,,,0,0,0,0,1,,,,,
,5c067e6329abc0000199ae45,001,2022-04-29_03h11.51.087,classification_task,2021.2.3,Win32,59.98080614,5c067e6329abc0000199ae45,626b377229c10585ec392f89,626b3b29c9b17d59233d9b48,,,,,,,,,,,,,,,,,,,,,,,,,,,,,,,,,,,,,,,,,,,,,,,,,,,,,,,,,,,,,,,,,space,6.9845,692.3203,
,5c067e6329abc0000199ae45,001,2022-04-29_03h11.51.087,classification_task,2021.2.3,Win32,59.98080614,5c067e6329abc0000199ae45,626b377229c10585ec392f89,626b3b29c9b17d59233d9b48,,,,,,,,,,,,,,,,,,,,,,,,,,,,,,,,,,,,,,,,,,,,,,,,,,,,,,,,,,,,,,,,,,,,"Mozilla/5.0 (Windows NT 10.0; Win64; x64) AppleWebKit/537.36 (KHTML, like Gecko) Chrome/100.0.4896.127 Safari/537.36"
