usingWebGL,participant,session,date,expName,psychopyVersion,OS,frameRate,study_id,signatures_friend,signatures_foe,band_ranges_top,band_ranges_bottom,formitemText,formtype,formundefined,formitemWidth,formindex,formresponse,formrt,key_resp_2.keys,key_resp_2.rt,tute_resp.keys,tute_resp.rt,tutorial.thisRepN,tutorial.thisTrialN,tutorial.thisN,tutorial.thisIndex,tutorial.ran,key_resp_4.keys,key_resp_4.rt,key_resp.keys,key_resp.corr,lines_presented,is_signal_presented,trials.thisRepN,trials.thisTrialN,trials.thisN,trials.thisIndex,trials.ran,vessel,active_band,lines,is_signal,supported_pos,catch_trial,key_resp.rt,debrief_formindex,debrief_formitemText,debrief_formtype,debrief_formitemWidth,debrief_formresponse,debrief_formrt,phases.thisRepN,phases.thisTrialN,phases.thisN,phases.thisIndex,phases.ran,phases.order,phase,key_resp_3.keys,trustitemText,trusttype,trustitemWidth,trustindex,trustresponse,trustrt,support_status.thisRepN,support_status.thisTrialN,support_status.thisN,support_status.thisIndex,support_status.ran,support_status.order,key_resp_5.keys,key_resp_5.rt,globalClockTime,userAgent,manualCondition
TRUE,5c10e5c5753adc0001590f2c,627c762cc3fcb86d28b2f542,2022-05-12_04h51.59.201,classification_task,2021.2.3,Win32,59.85873339,627c6715c52fd12f31907bd0,,,,,,,,,,,,,,,,,,,,,,,,,,,,,,,,,,,,,,,,,,,,,,,,,,,,,,,,,,,,,,,,,,,,,
,5c10e5c5753adc0001590f2c,627c762cc3fcb86d28b2f542,2022-05-12_04h51.59.201,classification_task,2021.2.3,Win32,59.85873339,627c6715c52fd12f31907bd0,"[[""0.219"",""0.439"",""0.818"",""0.879""],[""0.256"",""0.483"",""0.629"",""0.930""]]","[[""0.032"",""0.377"",""0.593"",""0.718""],[""0.102"",""0.308"",""0.532"",""0.770""]]","[1,10]","[100,1000]",Video game experience,,,0.7,0,,,,,,,,,,,,,,,,,,,,,,,,,,,,,,,,,,,,,,,,,,,,,,,,,,,,,,,,,,,,
,5c10e5c5753adc0001590f2c,627c762cc3fcb86d28b2f542,2022-05-12_04h51.59.201,classification_task,2021.2.3,Win32,59.85873339,627c6715c52fd12f31907bd0,,,,,Approximately how many hours did you spend playing video games in the last week?,,,0.7,0,15,,,,,,,,,,,,,,,,,,,,,,,,,,,,,,,,,,,,,,,,,,,,,,,,,,,,,,,,,,,
,5c10e5c5753adc0001590f2c,627c762cc3fcb86d28b2f542,2022-05-12_04h51.59.201,classification_task,2021.2.3,Win32,59.85873339,627c6715c52fd12f31907bd0,,,,,"Which game did you play the most this year? (Enter ""None"" if you didn't play any)",,,0.7,0,Guns of Glory,,,,,,,,,,,,,,,,,,,,,,,,,,,,,,,,,,,,,,,,,,,,,,,,,,,,,,,,,,,
,5c10e5c5753adc0001590f2c,627c762cc3fcb86d28b2f542,2022-05-12_04h51.59.201,classification_task,2021.2.3,Win32,59.85873339,627c6715c52fd12f31907bd0,,,,,Visual perception,,,0.7,0,,,,,,,,,,,,,,,,,,,,,,,,,,,,,,,,,,,,,,,,,,,,,,,,,,,,,,,,,,,,
,5c10e5c5753adc0001590f2c,627c762cc3fcb86d28b2f542,2022-05-12_04h51.59.201,classification_task,2021.2.3,Win32,59.85873339,627c6715c52fd12f31907bd0,,,,,Do you have any form of color blindness?,,,0.7,0,No,72.3261,,,,,,,,,,,,,,,,,,,,,,,,,,,,,,,,,,,,,,,,,,,,,,,,,,,,,,,,,,
,5c10e5c5753adc0001590f2c,627c762cc3fcb86d28b2f542,2022-05-12_04h51.59.201,classification_task,2021.2.3,Win32,59.85873339,627c6715c52fd12f31907bd0,,,,,Do you use software to change the colour temperature of your screen (e.g. f.lux)?,,,0.7,0,No,85.0266,,,,,,,,,,,,,,,,,,,,,,,,,,,,,,,,,,,,,,,,,,,,,,,,,,,,,,,,,,
,5c10e5c5753adc0001590f2c,627c762cc3fcb86d28b2f542,2022-05-12_04h51.59.201,classification_task,2021.2.3,Win32,59.85873339,627c6715c52fd12f31907bd0,,,,,,,,,,,,space,34.6542,space,12.7318,0,0,0,0,1,,,,,,,,,,,,,,,,,,,,,,,,,,,,,,,,,,,,,,,,,,,,,,,,,
,5c10e5c5753adc0001590f2c,627c762cc3fcb86d28b2f542,2022-05-12_04h51.59.201,classification_task,2021.2.3,Win32,59.85873339,627c6715c52fd12f31907bd0,,,,,,,,,,,,,,space,19.9012,1,0,1,0,1,,,,,,,,,,,,,,,,,,,,,,,,,,,,,,,,,,,,,,,,,,,,,,,,,
,5c10e5c5753adc0001590f2c,627c762cc3fcb86d28b2f542,2022-05-12_04h51.59.201,classification_task,2021.2.3,Win32,59.85873339,627c6715c52fd12f31907bd0,,,,,,,,,,,,,,space,37.7577,2,0,2,0,1,,,,,,,,,,,,,,,,,,,,,,,,,,,,,,,,,,,,,,,,,,,,,,,,,
,5c10e5c5753adc0001590f2c,627c762cc3fcb86d28b2f542,2022-05-12_04h51.59.201,classification_task,2021.2.3,Win32,59.85873339,627c6715c52fd12f31907bd0,,,,,,,,,,,,,,space,49.3851,3,0,3,0,1,,,,,,,,,,,,,,,,,,,,,,,,,,,,,,,,,,,,,,,,,,,,,,,,,
,5c10e5c5753adc0001590f2c,627c762cc3fcb86d28b2f542,2022-05-12_04h51.59.201,classification_task,2021.2.3,Win32,59.85873339,627c6715c52fd12f31907bd0,,,,,,,,,,,,,,space,16.9178,4,0,4,0,1,,,,,,,,,,,,,,,,,,,,,,,,,,,,,,,,,,,,,,,,,,,,,,,,,
,5c10e5c5753adc0001590f2c,627c762cc3fcb86d28b2f542,2022-05-12_04h51.59.201,classification_task,2021.2.3,Win32,59.85873339,627c6715c52fd12f31907bd0,,,,,,,,,,,,,,,,,,,,,space,32.2653,,0,"[""0.032"",""0.377"",""0.593"",""0.968""]","[1,1,1,0]",0,0,0,0,1,1,0,,,1,FALSE,,,,,,,,,,,,,,,,,,,,,,,,,,,,,,,,
,5c10e5c5753adc0001590f2c,627c762cc3fcb86d28b2f542,2022-05-12_04h51.59.201,classification_task,2021.2.3,Win32,59.85873339,627c6715c52fd12f31907bd0,,,,,,,,,,,,,,,,,,,,,,,l,0,"[""0.219"",""0.685"",""0.818"",""0.879""]","[1,0,1,1]",0,1,1,1,1,0,0,,,1,FALSE,2.4588,,,,,,,,,,,,,,,,,,,,,,,,,,,,,,,
,5c10e5c5753adc0001590f2c,627c762cc3fcb86d28b2f542,2022-05-12_04h51.59.201,classification_task,2021.2.3,Win32,59.85873339,627c6715c52fd12f31907bd0,,,,,,,,,,,,,,,,,,,,,,,a,0,"[""0.171"",""0.308"",""0.532"",""0.770""]","[0,1,1,1]",0,2,2,2,1,1,1,,,1,FALSE,2.3805,,,,,,,,,,,,,,,,,,,,,,,,,,,,,,,
,5c10e5c5753adc0001590f2c,627c762cc3fcb86d28b2f542,2022-05-12_04h51.59.201,classification_task,2021.2.3,Win32,59.85873339,627c6715c52fd12f31907bd0,,,,,,,,,,,,,,,,,,,,,,,a,0,"[""0.102"",""0.308"",""0.532"",""0.164""]","[1,1,1,0]",0,3,3,3,1,1,1,,,1,FALSE,2.3597,,,,,,,,,,,,,,,,,,,,,,,,,,,,,,,
,5c10e5c5753adc0001590f2c,627c762cc3fcb86d28b2f542,2022-05-12_04h51.59.201,classification_task,2021.2.3,Win32,59.85873339,627c6715c52fd12f31907bd0,,,,,,,,,,,,,,,,,,,,,,,l,1,"[""0.141"",""0.377"",""0.593"",""0.718""]","[0,1,1,1]",0,4,4,4,1,1,0,,,1,FALSE,2.7036,,,,,,,,,,,,,,,,,,,,,,,,,,,,,,,
,5c10e5c5753adc0001590f2c,627c762cc3fcb86d28b2f542,2022-05-12_04h51.59.201,classification_task,2021.2.3,Win32,59.85873339,627c6715c52fd12f31907bd0,,,,,,,,,,,,,,,,,,,,,,,l,0,"[""0.256"",""0.141"",""0.629"",""0.930""]","[1,0,1,1]",0,5,5,5,1,0,1,,,1,FALSE,2.6169,,,,,,,,,,,,,,,,,,,,,,,,,,,,,,,
,5c10e5c5753adc0001590f2c,627c762cc3fcb86d28b2f542,2022-05-12_04h51.59.201,classification_task,2021.2.3,Win32,59.85873339,627c6715c52fd12f31907bd0,,,,,,,,,,,,,,,,,,,,,,,a,1,"[""0.256"",""0.483"",""0.141"",""0.930""]","[1,1,0,1]",0,6,6,6,1,0,1,,,1,FALSE,2.1499,,,,,,,,,,,,,,,,,,,,,,,,,,,,,,,
,5c10e5c5753adc0001590f2c,627c762cc3fcb86d28b2f542,2022-05-12_04h51.59.201,classification_task,2021.2.3,Win32,59.85873339,627c6715c52fd12f31907bd0,,,,,,,,,,,,,,,,,,,,,,,a,1,"[""0.219"",""0.439"",""0.818"",""0.150""]","[1,1,1,0]",0,7,7,7,1,0,0,,,1,FALSE,3.7414,,,,,,,,,,,,,,,,,,,,,,,,,,,,,,,
,5c10e5c5753adc0001590f2c,627c762cc3fcb86d28b2f542,2022-05-12_04h51.59.201,classification_task,2021.2.3,Win32,59.85873339,627c6715c52fd12f31907bd0,,,,,,,,,,,,,,,,,,,,,,,a,1,"[""0.219"",""0.439"",""0.185"",""0.879""]","[1,1,0,1]",0,8,8,8,1,0,0,,,1,FALSE,1.6223,,,,,,,,,,,,,,,,,,,,,,,,,,,,,,,
,5c10e5c5753adc0001590f2c,627c762cc3fcb86d28b2f542,2022-05-12_04h51.59.201,classification_task,2021.2.3,Win32,59.85873339,627c6715c52fd12f31907bd0,,,,,,,,,,,,,,,,,,,,,,,l,0,"[""0.672"",""0.439"",""0.818"",""0.879""]","[0,1,1,1]",0,9,9,9,1,0,0,,,1,FALSE,1.4263,,,,,,,,,,,,,,,,,,,,,,,,,,,,,,,
,5c10e5c5753adc0001590f2c,627c762cc3fcb86d28b2f542,2022-05-12_04h51.59.201,classification_task,2021.2.3,Win32,59.85873339,627c6715c52fd12f31907bd0,,,,,,,,,,,,,,,,,,,,,,,a,0,"[""0.102"",""0.683"",""0.532"",""0.770""]","[1,0,1,1]",0,10,10,10,1,1,1,,,1,FALSE,2.7981,,,,,,,,,,,,,,,,,,,,,,,,,,,,,,,
,5c10e5c5753adc0001590f2c,627c762cc3fcb86d28b2f542,2022-05-12_04h51.59.201,classification_task,2021.2.3,Win32,59.85873339,627c6715c52fd12f31907bd0,,,,,,,,,,,,,,,,,,,,,,,a,0,"[""0.102"",""0.308"",""0.140"",""0.770""]","[1,1,0,1]",0,11,11,11,1,1,1,,,1,FALSE,1.5757,,,,,,,,,,,,,,,,,,,,,,,,,,,,,,,
,5c10e5c5753adc0001590f2c,627c762cc3fcb86d28b2f542,2022-05-12_04h51.59.201,classification_task,2021.2.3,Win32,59.85873339,627c6715c52fd12f31907bd0,,,,,,,,,,,,,,,,,,,,,,,a,0,"[""0.032"",""0.377"",""0.141"",""0.718""]","[1,1,0,1]",0,12,12,12,1,1,0,,,1,FALSE,1.8483,,,,,,,,,,,,,,,,,,,,,,,,,,,,,,,
,5c10e5c5753adc0001590f2c,627c762cc3fcb86d28b2f542,2022-05-12_04h51.59.201,classification_task,2021.2.3,Win32,59.85873339,627c6715c52fd12f31907bd0,,,,,,,,,,,,,,,,,,,,,,,l,0,"[""0.180"",""0.483"",""0.629"",""0.930""]","[0,1,1,1]",0,13,13,13,1,0,1,,,1,FALSE,1.7087,,,,,,,,,,,,,,,,,,,,,,,,,,,,,,,
,5c10e5c5753adc0001590f2c,627c762cc3fcb86d28b2f542,2022-05-12_04h51.59.201,classification_task,2021.2.3,Win32,59.85873339,627c6715c52fd12f31907bd0,,,,,,,,,,,,,,,,,,,,,,,a,1,"[""0.256"",""0.483"",""0.629"",""0.683""]","[1,1,1,0]",0,14,14,14,1,0,1,,,1,FALSE,1.6295,,,,,,,,,,,,,,,,,,,,,,,,,,,,,,,
,5c10e5c5753adc0001590f2c,627c762cc3fcb86d28b2f542,2022-05-12_04h51.59.201,classification_task,2021.2.3,Win32,59.85873339,627c6715c52fd12f31907bd0,,,,,,,,,,,,,,,,,,,,,,,a,0,"[""0.032"",""0.181"",""0.593"",""0.718""]","[1,0,1,1]",0,15,15,15,1,1,0,,,1,FALSE,1.6893,,,,,,,,,,,,,,,,,,,,,,,,,,,,,,,
,5c10e5c5753adc0001590f2c,627c762cc3fcb86d28b2f542,2022-05-12_04h51.59.201,classification_task,2021.2.3,Win32,59.85873339,627c6715c52fd12f31907bd0,,,,,,,,,,,,,,,,,,,,,,,a,0,"[""0.032"",""0.185"",""0.593"",""0.718""]","[1,0,1,1]",0,16,16,16,1,1,0,,,1,FALSE,2.4861,,,,,,,,,,,,,,,,,,,,,,,,,,,,,,,
,5c10e5c5753adc0001590f2c,627c762cc3fcb86d28b2f542,2022-05-12_04h51.59.201,classification_task,2021.2.3,Win32,59.85873339,627c6715c52fd12f31907bd0,,,,,,,,,,,,,,,,,,,,,,,a,0,"[""0.102"",""0.308"",""0.171"",""0.770""]","[1,1,0,1]",0,17,17,17,1,1,1,,,1,FALSE,1.6071,,,,,,,,,,,,,,,,,,,,,,,,,,,,,,,
,5c10e5c5753adc0001590f2c,627c762cc3fcb86d28b2f542,2022-05-12_04h51.59.201,classification_task,2021.2.3,Win32,59.85873339,627c6715c52fd12f31907bd0,,,,,,,,,,,,,,,,,,,,,,,l,0,"[""0.256"",""0.483"",""0.141"",""0.930""]","[1,1,0,1]",0,18,18,18,1,0,1,,,1,FALSE,1.7691,,,,,,,,,,,,,,,,,,,,,,,,,,,,,,,
,5c10e5c5753adc0001590f2c,627c762cc3fcb86d28b2f542,2022-05-12_04h51.59.201,classification_task,2021.2.3,Win32,59.85873339,627c6715c52fd12f31907bd0,,,,,,,,,,,,,,,,,,,,,,,l,0,"[""0.181"",""0.439"",""0.818"",""0.879""]","[0,1,1,1]",0,19,19,19,1,0,0,,,1,FALSE,1.3825,,,,,,,,,,,,,,,,,,,,,,,,,,,,,,,
,5c10e5c5753adc0001590f2c,627c762cc3fcb86d28b2f542,2022-05-12_04h51.59.201,classification_task,2021.2.3,Win32,59.85873339,627c6715c52fd12f31907bd0,,,,,,,,,,,,,,,,,,,,,,,a,1,"[""0.164"",""0.483"",""0.629"",""0.930""]","[0,1,1,1]",0,20,20,20,1,0,1,,,1,FALSE,1.4849,,,,,,,,,,,,,,,,,,,,,,,,,,,,,,,
,5c10e5c5753adc0001590f2c,627c762cc3fcb86d28b2f542,2022-05-12_04h51.59.201,classification_task,2021.2.3,Win32,59.85873339,627c6715c52fd12f31907bd0,,,,,,,,,,,,,,,,,,,,,,,a,1,"[""0.256"",""0.483"",""0.629"",""0.677""]","[1,1,1,0]",0,21,21,21,1,0,1,,,1,FALSE,1.5563,,,,,,,,,,,,,,,,,,,,,,,,,,,,,,,
,5c10e5c5753adc0001590f2c,627c762cc3fcb86d28b2f542,2022-05-12_04h51.59.201,classification_task,2021.2.3,Win32,59.85873339,627c6715c52fd12f31907bd0,,,,,,,,,,,,,,,,,,,,,,,l,0,"[""0.219"",""0.439"",""0.180"",""0.879""]","[1,1,0,1]",0,22,22,22,1,0,0,,,1,FALSE,2.96,,,,,,,,,,,,,,,,,,,,,,,,,,,,,,,
,5c10e5c5753adc0001590f2c,627c762cc3fcb86d28b2f542,2022-05-12_04h51.59.201,classification_task,2021.2.3,Win32,59.85873339,627c6715c52fd12f31907bd0,,,,,,,,,,,,,,,,,,,,,,,a,0,"[""0.672"",""0.377"",""0.593"",""0.718""]","[0,1,1,1]",0,23,23,23,1,1,0,,,1,FALSE,2.2853,,,,,,,,,,,,,,,,,,,,,,,,,,,,,,,
,5c10e5c5753adc0001590f2c,627c762cc3fcb86d28b2f542,2022-05-12_04h51.59.201,classification_task,2021.2.3,Win32,59.85873339,627c6715c52fd12f31907bd0,,,,,,,,,,,,,,,,,,,,,,,a,0,"[""0.102"",""0.150"",""0.532"",""0.770""]","[1,0,1,1]",0,24,24,24,1,1,1,,,1,FALSE,4.0821,,,,,,,,,,,,,,,,,,,,,,,,,,,,,,,
,5c10e5c5753adc0001590f2c,627c762cc3fcb86d28b2f542,2022-05-12_04h51.59.201,classification_task,2021.2.3,Win32,59.85873339,627c6715c52fd12f31907bd0,,,,,,,,,,,,,,,,,,,,,,,l,1,"[""0.171"",""0.308"",""0.532"",""0.770""]","[0,1,1,1]",0,25,25,25,1,1,1,,,1,FALSE,1.4865,,,,,,,,,,,,,,,,,,,,,,,,,,,,,,,
,5c10e5c5753adc0001590f2c,627c762cc3fcb86d28b2f542,2022-05-12_04h51.59.201,classification_task,2021.2.3,Win32,59.85873339,627c6715c52fd12f31907bd0,,,,,,,,,,,,,,,,,,,,,,,l,0,"[""0.256"",""0.136"",""0.629"",""0.930""]","[1,0,1,1]",0,26,26,26,1,0,1,,,1,FALSE,1.3889,,,,,,,,,,,,,,,,,,,,,,,,,,,,,,,
,5c10e5c5753adc0001590f2c,627c762cc3fcb86d28b2f542,2022-05-12_04h51.59.201,classification_task,2021.2.3,Win32,59.85873339,627c6715c52fd12f31907bd0,,,,,,,,,,,,,,,,,,,,,,,a,0,"[""0.032"",""0.377"",""0.593"",""0.171""]","[1,1,1,0]",0,27,27,27,1,1,0,,,1,FALSE,2.9575,,,,,,,,,,,,,,,,,,,,,,,,,,,,,,,
,5c10e5c5753adc0001590f2c,627c762cc3fcb86d28b2f542,2022-05-12_04h51.59.201,classification_task,2021.2.3,Win32,59.85873339,627c6715c52fd12f31907bd0,,,,,,,,,,,,,,,,,,,,,,,l,0,"[""0.219"",""0.439"",""0.818"",""0.683""]","[1,1,1,0]",0,28,28,28,1,0,0,,,1,FALSE,2.3718,,,,,,,,,,,,,,,,,,,,,,,,,,,,,,,
,5c10e5c5753adc0001590f2c,627c762cc3fcb86d28b2f542,2022-05-12_04h51.59.201,classification_task,2021.2.3,Win32,59.85873339,627c6715c52fd12f31907bd0,,,,,,,,,,,,,,,,,,,,,,,a,1,"[""0.219"",""0.141"",""0.818"",""0.879""]","[1,0,1,1]",0,29,29,29,1,0,0,,,1,FALSE,2.6409,,,,,,,,,,,,,,,,,,,,,,,,,,,,,,,
,5c10e5c5753adc0001590f2c,627c762cc3fcb86d28b2f542,2022-05-12_04h51.59.201,classification_task,2021.2.3,Win32,59.85873339,627c6715c52fd12f31907bd0,,,,,,,,,,,,,,,,,,,,,,,a,0,"[""0.102"",""0.308"",""0.532"",""0.672""]","[1,1,1,0]",0,30,30,30,1,1,1,,,1,FALSE,2.2905,,,,,,,,,,,,,,,,,,,,,,,,,,,,,,,
,5c10e5c5753adc0001590f2c,627c762cc3fcb86d28b2f542,2022-05-12_04h51.59.201,classification_task,2021.2.3,Win32,59.85873339,627c6715c52fd12f31907bd0,,,,,,,,,,,,,,,,,,,,,,,l,1,"[""0.032"",""0.377"",""0.180"",""0.718""]","[1,1,0,1]",0,31,31,31,1,1,0,,,1,FALSE,1.31,,,,,,,,,,,,,,,,,,,,,,,,,,,,,,,
,5c10e5c5753adc0001590f2c,627c762cc3fcb86d28b2f542,2022-05-12_04h51.59.201,classification_task,2021.2.3,Win32,59.85873339,627c6715c52fd12f31907bd0,,,,,,,,,,,,,,,,,,,,,,,l,0,"[""0.256"",""0.483"",""0.629"",""0.150""]","[1,1,1,0]",0,32,32,32,1,0,1,,,1,FALSE,2.0728,,,,,,,,,,,,,,,,,,,,,,,,,,,,,,,
,5c10e5c5753adc0001590f2c,627c762cc3fcb86d28b2f542,2022-05-12_04h51.59.201,classification_task,2021.2.3,Win32,59.85873339,627c6715c52fd12f31907bd0,,,,,,,,,,,,,,,,,,,,,,,a,0,"[""0.102"",""0.308"",""0.532"",""0.164""]","[1,1,1,0]",0,33,33,33,1,1,1,,,1,FALSE,1.6742,,,,,,,,,,,,,,,,,,,,,,,,,,,,,,,
,5c10e5c5753adc0001590f2c,627c762cc3fcb86d28b2f542,2022-05-12_04h51.59.201,classification_task,2021.2.3,Win32,59.85873339,627c6715c52fd12f31907bd0,,,,,,,,,,,,,,,,,,,,,,,l,0,"[""0.150"",""0.483"",""0.629"",""0.930""]","[0,1,1,1]",0,34,34,34,1,0,1,,,1,FALSE,1.2164,,,,,,,,,,,,,,,,,,,,,,,,,,,,,,,
,5c10e5c5753adc0001590f2c,627c762cc3fcb86d28b2f542,2022-05-12_04h51.59.201,classification_task,2021.2.3,Win32,59.85873339,627c6715c52fd12f31907bd0,,,,,,,,,,,,,,,,,,,,,,,a,1,"[""0.219"",""0.439"",""0.818"",""0.164""]","[1,1,1,0]",0,35,35,35,1,0,0,,,1,FALSE,0.91,,,,,,,,,,,,,,,,,,,,,,,,,,,,,,,
,5c10e5c5753adc0001590f2c,627c762cc3fcb86d28b2f542,2022-05-12_04h51.59.201,classification_task,2021.2.3,Win32,59.85873339,627c6715c52fd12f31907bd0,,,,,,,,,,,,,,,,,,,,,,,a,0,"[""0.141"",""0.308"",""0.532"",""0.770""]","[0,1,1,1]",0,36,36,36,1,1,1,,,1,FALSE,1.2158,,,,,,,,,,,,,,,,,,,,,,,,,,,,,,,
,5c10e5c5753adc0001590f2c,627c762cc3fcb86d28b2f542,2022-05-12_04h51.59.201,classification_task,2021.2.3,Win32,59.85873339,627c6715c52fd12f31907bd0,,,,,,,,,,,,,,,,,,,,,,,a,0,"[""0.032"",""0.141"",""0.593"",""0.718""]","[1,0,1,1]",0,37,37,37,1,1,0,,,1,FALSE,1.4998,,,,,,,,,,,,,,,,,,,,,,,,,,,,,,,
,5c10e5c5753adc0001590f2c,627c762cc3fcb86d28b2f542,2022-05-12_04h51.59.201,classification_task,2021.2.3,Win32,59.85873339,627c6715c52fd12f31907bd0,,,,,,,,,,,,,,,,,,,,,,,l,0,"[""0.256"",""0.483"",""0.156"",""0.930""]","[1,1,0,1]",0,38,38,38,1,0,1,,,1,FALSE,0.9084,,,,,,,,,,,,,,,,,,,,,,,,,,,,,,,
,5c10e5c5753adc0001590f2c,627c762cc3fcb86d28b2f542,2022-05-12_04h51.59.201,classification_task,2021.2.3,Win32,59.85873339,627c6715c52fd12f31907bd0,,,,,,,,,,,,,,,,,,,,,,,a,0,"[""0.102"",""0.308"",""0.136"",""0.770""]","[1,1,0,1]",0,39,39,39,1,1,1,,,1,FALSE,0.8316,,,,,,,,,,,,,,,,,,,,,,,,,,,,,,,
,5c10e5c5753adc0001590f2c,627c762cc3fcb86d28b2f542,2022-05-12_04h51.59.201,classification_task,2021.2.3,Win32,59.85873339,627c6715c52fd12f31907bd0,,,,,,,,,,,,,,,,,,,,,,,l,1,"[""0.677"",""0.377"",""0.593"",""0.718""]","[0,1,1,1]",0,40,40,40,1,1,0,,,1,FALSE,0.9254,,,,,,,,,,,,,,,,,,,,,,,,,,,,,,,
,5c10e5c5753adc0001590f2c,627c762cc3fcb86d28b2f542,2022-05-12_04h51.59.201,classification_task,2021.2.3,Win32,59.85873339,627c6715c52fd12f31907bd0,,,,,,,,,,,,,,,,,,,,,,,l,0,"[""0.219"",""0.439"",""0.677"",""0.879""]","[1,1,0,1]",0,41,41,41,1,0,0,,,1,FALSE,2.014,,,,,,,,,,,,,,,,,,,,,,,,,,,,,,,
,5c10e5c5753adc0001590f2c,627c762cc3fcb86d28b2f542,2022-05-12_04h51.59.201,classification_task,2021.2.3,Win32,59.85873339,627c6715c52fd12f31907bd0,,,,,,,,,,,,,,,,,,,,,,,a,0,"[""0.032"",""0.377"",""0.180"",""0.718""]","[1,1,0,1]",0,42,42,42,1,1,0,,,1,FALSE,0.8351,,,,,,,,,,,,,,,,,,,,,,,,,,,,,,,
,5c10e5c5753adc0001590f2c,627c762cc3fcb86d28b2f542,2022-05-12_04h51.59.201,classification_task,2021.2.3,Win32,59.85873339,627c6715c52fd12f31907bd0,,,,,,,,,,,,,,,,,,,,,,,l,0,"[""0.219"",""0.683"",""0.818"",""0.879""]","[1,0,1,1]",0,43,43,43,1,0,0,,,1,FALSE,0.917,,,,,,,,,,,,,,,,,,,,,,,,,,,,,,,
,5c10e5c5753adc0001590f2c,627c762cc3fcb86d28b2f542,2022-05-12_04h51.59.201,classification_task,2021.2.3,Win32,59.85873339,627c6715c52fd12f31907bd0,,,,,,,,,,,,,,,,,,,,,,,a,0,"[""0.032"",""0.377"",""0.593"",""0.181""]","[1,1,1,0]",0,44,44,44,1,1,0,,,1,FALSE,0.9843,,,,,,,,,,,,,,,,,,,,,,,,,,,,,,,
,5c10e5c5753adc0001590f2c,627c762cc3fcb86d28b2f542,2022-05-12_04h51.59.201,classification_task,2021.2.3,Win32,59.85873339,627c6715c52fd12f31907bd0,,,,,,,,,,,,,,,,,,,,,,,l,1,"[""0.102"",""0.683"",""0.532"",""0.770""]","[1,0,1,1]",0,45,45,45,1,1,1,,,1,FALSE,1.2231,,,,,,,,,,,,,,,,,,,,,,,,,,,,,,,
,5c10e5c5753adc0001590f2c,627c762cc3fcb86d28b2f542,2022-05-12_04h51.59.201,classification_task,2021.2.3,Win32,59.85873339,627c6715c52fd12f31907bd0,,,,,,,,,,,,,,,,,,,,,,,l,0,"[""0.256"",""0.141"",""0.629"",""0.930""]","[1,0,1,1]",0,46,46,46,1,0,1,,,1,FALSE,1.2728,,,,,,,,,,,,,,,,,,,,,,,,,,,,,,,
,5c10e5c5753adc0001590f2c,627c762cc3fcb86d28b2f542,2022-05-12_04h51.59.201,classification_task,2021.2.3,Win32,59.85873339,627c6715c52fd12f31907bd0,,,,,,,,,,,,,,,,,,,,,,,a,1,"[""0.141"",""0.439"",""0.818"",""0.879""]","[0,1,1,1]",0,47,47,47,1,0,0,,,1,FALSE,1.5987,,,,,,,,,,,,,,,,,,,,,,,,,,,,,,,
,5c10e5c5753adc0001590f2c,627c762cc3fcb86d28b2f542,2022-05-12_04h51.59.201,classification_task,2021.2.3,Win32,59.85873339,627c6715c52fd12f31907bd0,,,,,,,,,,,,,,,,,,,,,,,l,1,"[""0.672"",""0.308"",""0.532"",""0.770""]","[0,1,1,1]",0,48,48,48,1,1,1,,,1,FALSE,2.6742,,,,,,,,,,,,,,,,,,,,,,,,,,,,,,,
,5c10e5c5753adc0001590f2c,627c762cc3fcb86d28b2f542,2022-05-12_04h51.59.201,classification_task,2021.2.3,Win32,59.85873339,627c6715c52fd12f31907bd0,,,,,,,,,,,,,,,,,,,,,,,l,0,"[""0.150"",""0.483"",""0.629"",""0.930""]","[0,1,1,1]",0,49,49,49,1,0,1,,,1,FALSE,1.6752,,,,,,,,,,,,,,,,,,,,,,,,,,,,,,,
,5c10e5c5753adc0001590f2c,627c762cc3fcb86d28b2f542,2022-05-12_04h51.59.201,classification_task,2021.2.3,Win32,59.85873339,627c6715c52fd12f31907bd0,,,,,,,,,,,,,,,,,,,,,,,a,0,"[""0.032"",""0.377"",""0.593"",""0.185""]","[1,1,1,0]",0,50,50,50,1,1,0,,,1,FALSE,0.8598,,,,,,,,,,,,,,,,,,,,,,,,,,,,,,,
,5c10e5c5753adc0001590f2c,627c762cc3fcb86d28b2f542,2022-05-12_04h51.59.201,classification_task,2021.2.3,Win32,59.85873339,627c6715c52fd12f31907bd0,,,,,,,,,,,,,,,,,,,,,,,a,1,"[""0.256"",""0.483"",""0.629"",""0.150""]","[1,1,1,0]",0,51,51,51,1,0,1,,,1,FALSE,1.5936,,,,,,,,,,,,,,,,,,,,,,,,,,,,,,,
,5c10e5c5753adc0001590f2c,627c762cc3fcb86d28b2f542,2022-05-12_04h51.59.201,classification_task,2021.2.3,Win32,59.85873339,627c6715c52fd12f31907bd0,,,,,,,,,,,,,,,,,,,,,,,l,1,"[""0.032"",""0.141"",""0.593"",""0.718""]","[1,0,1,1]",0,52,52,52,1,1,0,,,1,FALSE,1.6645,,,,,,,,,,,,,,,,,,,,,,,,,,,,,,,
,5c10e5c5753adc0001590f2c,627c762cc3fcb86d28b2f542,2022-05-12_04h51.59.201,classification_task,2021.2.3,Win32,59.85873339,627c6715c52fd12f31907bd0,,,,,,,,,,,,,,,,,,,,,,,l,0,"[""0.219"",""0.439"",""0.818"",""0.180""]","[1,1,1,0]",0,53,53,53,1,0,0,,,1,FALSE,1.2863,,,,,,,,,,,,,,,,,,,,,,,,,,,,,,,
,5c10e5c5753adc0001590f2c,627c762cc3fcb86d28b2f542,2022-05-12_04h51.59.201,classification_task,2021.2.3,Win32,59.85873339,627c6715c52fd12f31907bd0,,,,,,,,,,,,,,,,,,,,,,,a,1,"[""0.256"",""0.483"",""0.181"",""0.930""]","[1,1,0,1]",0,54,54,54,1,0,1,,,1,FALSE,1.2885,,,,,,,,,,,,,,,,,,,,,,,,,,,,,,,
,5c10e5c5753adc0001590f2c,627c762cc3fcb86d28b2f542,2022-05-12_04h51.59.201,classification_task,2021.2.3,Win32,59.85873339,627c6715c52fd12f31907bd0,,,,,,,,,,,,,,,,,,,,,,,l,0,"[""0.256"",""0.677"",""0.629"",""0.930""]","[1,0,1,1]",0,55,55,55,1,0,1,,,1,FALSE,1.3767,,,,,,,,,,,,,,,,,,,,,,,,,,,,,,,
,5c10e5c5753adc0001590f2c,627c762cc3fcb86d28b2f542,2022-05-12_04h51.59.201,classification_task,2021.2.3,Win32,59.85873339,627c6715c52fd12f31907bd0,,,,,,,,,,,,,,,,,,,,,,,a,0,"[""0.102"",""0.308"",""0.532"",""0.141""]","[1,1,1,0]",0,56,56,56,1,1,1,,,1,FALSE,1.0043,,,,,,,,,,,,,,,,,,,,,,,,,,,,,,,
,5c10e5c5753adc0001590f2c,627c762cc3fcb86d28b2f542,2022-05-12_04h51.59.201,classification_task,2021.2.3,Win32,59.85873339,627c6715c52fd12f31907bd0,,,,,,,,,,,,,,,,,,,,,,,a,0,"[""0.102"",""0.968"",""0.532"",""0.770""]","[1,0,1,1]",0,57,57,57,1,1,1,,,1,FALSE,1.0006,,,,,,,,,,,,,,,,,,,,,,,,,,,,,,,
,5c10e5c5753adc0001590f2c,627c762cc3fcb86d28b2f542,2022-05-12_04h51.59.201,classification_task,2021.2.3,Win32,59.85873339,627c6715c52fd12f31907bd0,,,,,,,,,,,,,,,,,,,,,,,l,1,"[""0.032"",""0.377"",""0.685"",""0.718""]","[1,1,0,1]",0,58,58,58,1,1,0,,,1,FALSE,0.8361,,,,,,,,,,,,,,,,,,,,,,,,,,,,,,,
,5c10e5c5753adc0001590f2c,627c762cc3fcb86d28b2f542,2022-05-12_04h51.59.201,classification_task,2021.2.3,Win32,59.85873339,627c6715c52fd12f31907bd0,,,,,,,,,,,,,,,,,,,,,,,l,0,"[""0.219"",""0.141"",""0.818"",""0.879""]","[1,0,1,1]",0,59,59,59,1,0,0,,,1,FALSE,1.2289,,,,,,,,,,,,,,,,,,,,,,,,,,,,,,,
,5c10e5c5753adc0001590f2c,627c762cc3fcb86d28b2f542,2022-05-12_04h51.59.201,classification_task,2021.2.3,Win32,59.85873339,627c6715c52fd12f31907bd0,,,,,,,,,,,,,,,,,,,,,,,a,0,"[""0.102"",""0.308"",""0.150"",""0.770""]","[1,1,0,1]",0,60,60,60,1,1,1,,,1,FALSE,0.9137,,,,,,,,,,,,,,,,,,,,,,,,,,,,,,,
,5c10e5c5753adc0001590f2c,627c762cc3fcb86d28b2f542,2022-05-12_04h51.59.201,classification_task,2021.2.3,Win32,59.85873339,627c6715c52fd12f31907bd0,,,,,,,,,,,,,,,,,,,,,,,l,0,"[""0.219"",""0.439"",""0.683"",""0.879""]","[1,1,0,1]",0,61,61,61,1,0,0,,,1,FALSE,0.9449,,,,,,,,,,,,,,,,,,,,,,,,,,,,,,,
,5c10e5c5753adc0001590f2c,627c762cc3fcb86d28b2f542,2022-05-12_04h51.59.201,classification_task,2021.2.3,Win32,59.85873339,627c6715c52fd12f31907bd0,,,,,,,,,,,,,,,,,,,,,,,a,0,"[""0.140"",""0.377"",""0.593"",""0.718""]","[0,1,1,1]",0,62,62,62,1,1,0,,,1,FALSE,0.8378,,,,,,,,,,,,,,,,,,,,,,,,,,,,,,,
,5c10e5c5753adc0001590f2c,627c762cc3fcb86d28b2f542,2022-05-12_04h51.59.201,classification_task,2021.2.3,Win32,59.85873339,627c6715c52fd12f31907bd0,,,,,,,,,,,,,,,,,,,,,,,l,0,"[""0.968"",""0.439"",""0.818"",""0.879""]","[0,1,1,1]",0,63,63,63,1,0,0,,,1,FALSE,0.7136,,,,,,,,,,,,,,,,,,,,,,,,,,,,,,,
,5c10e5c5753adc0001590f2c,627c762cc3fcb86d28b2f542,2022-05-12_04h51.59.201,classification_task,2021.2.3,Win32,59.85873339,627c6715c52fd12f31907bd0,,,,,,,,,,,,,,,,,,,,,,,,,,,,,,,,,,,,,,,0, ,,0,4.65553351,526.891,0,0,0,0,1,2,1,,,,,,,,,,,,,,,,,,
,5c10e5c5753adc0001590f2c,627c762cc3fcb86d28b2f542,2022-05-12_04h51.59.201,classification_task,2021.2.3,Win32,59.85873339,627c6715c52fd12f31907bd0,,,,,,,,,,,,,,,,,,,,,,,,,,,,,,,,,,,,,,,1,  ,,0,6.653439153,536.9499,0,0,0,0,1,2,1,,,,,,,,,,,,,,,,,,
,5c10e5c5753adc0001590f2c,627c762cc3fcb86d28b2f542,2022-05-12_04h51.59.201,classification_task,2021.2.3,Win32,59.85873339,627c6715c52fd12f31907bd0,,,,,,,,,,,,,,,,,,,,,,,,,,,,,,,,,,,,,,,2,  ,,0,3.449900794,547.5218,0,0,0,0,1,2,1,,,,,,,,,,,,,,,,,,
,5c10e5c5753adc0001590f2c,627c762cc3fcb86d28b2f542,2022-05-12_04h51.59.201,classification_task,2021.2.3,Win32,59.85873339,627c6715c52fd12f31907bd0,,,,,,,,,,,,,,,,,,,,,,,,,,,,,,,,,,,,,,,,,,,,,0,0,0,0,1,,1,,,,,,,,,,,,,,,,,,
,5c10e5c5753adc0001590f2c,627c762cc3fcb86d28b2f542,2022-05-12_04h51.59.201,classification_task,2021.2.3,Win32,59.85873339,627c6715c52fd12f31907bd0,,,,,,,,,,,,,,,,,,,,,space,24.345,a,0,"[""0.032"",""0.377"",""0.593"",""0.156""]","[1,1,1,0]",0,0,0,0,1,1,0,,,1,FALSE,2.6316,,,,,,,,,,,,,,,,,,,,,,,,,,,,,,,
,5c10e5c5753adc0001590f2c,627c762cc3fcb86d28b2f542,2022-05-12_04h51.59.201,classification_task,2021.2.3,Win32,59.85873339,627c6715c52fd12f31907bd0,,,,,,,,,,,,,,,,,,,,,,,l,0,"[""0.677"",""0.439"",""0.818"",""0.879""]","[0,1,1,1]",0,1,1,1,1,0,0,,,1,FALSE,1.8183,,,,,,,,,,,,,,,,,,,,,,,,,,,,,,,
,5c10e5c5753adc0001590f2c,627c762cc3fcb86d28b2f542,2022-05-12_04h51.59.201,classification_task,2021.2.3,Win32,59.85873339,627c6715c52fd12f31907bd0,,,,,,,,,,,,,,,,,,,,,,,a,0,"[""0.102"",""0.141"",""0.532"",""0.770""]","[1,0,1,1]",0,2,2,2,1,1,1,,,1,FALSE,1.2309,,,,,,,,,,,,,,,,,,,,,,,,,,,,,,,
,5c10e5c5753adc0001590f2c,627c762cc3fcb86d28b2f542,2022-05-12_04h51.59.201,classification_task,2021.2.3,Win32,59.85873339,627c6715c52fd12f31907bd0,,,,,,,,,,,,,,,,,,,,,,,a,1,"[""0.256"",""0.141"",""0.629"",""0.930""]","[1,0,1,1]",0,3,3,3,1,0,1,,,1,FALSE,1.4098,,,,,,,,,,,,,,,,,,,,,,,,,,,,,,,
,5c10e5c5753adc0001590f2c,627c762cc3fcb86d28b2f542,2022-05-12_04h51.59.201,classification_task,2021.2.3,Win32,59.85873339,627c6715c52fd12f31907bd0,,,,,,,,,,,,,,,,,,,,,,,a,0,"[""0.156"",""0.308"",""0.532"",""0.770""]","[0,1,1,1]",0,4,4,4,1,1,1,,,1,FALSE,1.3492,,,,,,,,,,,,,,,,,,,,,,,,,,,,,,,
,5c10e5c5753adc0001590f2c,627c762cc3fcb86d28b2f542,2022-05-12_04h51.59.201,classification_task,2021.2.3,Win32,59.85873339,627c6715c52fd12f31907bd0,,,,,,,,,,,,,,,,,,,,,,,l,0,"[""0.219"",""0.439"",""0.171"",""0.879""]","[1,1,0,1]",0,5,5,5,1,0,0,,,1,FALSE,0.8429,,,,,,,,,,,,,,,,,,,,,,,,,,,,,,,
,5c10e5c5753adc0001590f2c,627c762cc3fcb86d28b2f542,2022-05-12_04h51.59.201,classification_task,2021.2.3,Win32,59.85873339,627c6715c52fd12f31907bd0,,,,,,,,,,,,,,,,,,,,,,,a,1,"[""0.219"",""0.439"",""0.818"",""0.140""]","[1,1,1,0]",0,6,6,6,1,0,0,,,1,FALSE,1.0707,,,,,,,,,,,,,,,,,,,,,,,,,,,,,,,
,5c10e5c5753adc0001590f2c,627c762cc3fcb86d28b2f542,2022-05-12_04h51.59.201,classification_task,2021.2.3,Win32,59.85873339,627c6715c52fd12f31907bd0,,,,,,,,,,,,,,,,,,,,,,,a,0,"[""0.102"",""0.308"",""0.185"",""0.770""]","[1,1,0,1]",0,7,7,7,1,1,1,,,1,FALSE,1.4062,,,,,,,,,,,,,,,,,,,,,,,,,,,,,,,
,5c10e5c5753adc0001590f2c,627c762cc3fcb86d28b2f542,2022-05-12_04h51.59.201,classification_task,2021.2.3,Win32,59.85873339,627c6715c52fd12f31907bd0,,,,,,,,,,,,,,,,,,,,,,,l,1,"[""0.156"",""0.377"",""0.593"",""0.718""]","[0,1,1,1]",0,8,8,8,1,1,0,,,1,FALSE,2.1234,,,,,,,,,,,,,,,,,,,,,,,,,,,,,,,
,5c10e5c5753adc0001590f2c,627c762cc3fcb86d28b2f542,2022-05-12_04h51.59.201,classification_task,2021.2.3,Win32,59.85873339,627c6715c52fd12f31907bd0,,,,,,,,,,,,,,,,,,,,,,,l,1,"[""0.032"",""0.377"",""0.685"",""0.718""]","[1,1,0,1]",0,9,9,9,1,1,0,,,1,FALSE,1.6977,,,,,,,,,,,,,,,,,,,,,,,,,,,,,,,
,5c10e5c5753adc0001590f2c,627c762cc3fcb86d28b2f542,2022-05-12_04h51.59.201,classification_task,2021.2.3,Win32,59.85873339,627c6715c52fd12f31907bd0,,,,,,,,,,,,,,,,,,,,,,,l,1,"[""0.032"",""0.185"",""0.593"",""0.718""]","[1,0,1,1]",0,10,10,10,1,1,0,,,1,FALSE,2.4699,,,,,,,,,,,,,,,,,,,,,,,,,,,,,,,
,5c10e5c5753adc0001590f2c,627c762cc3fcb86d28b2f542,2022-05-12_04h51.59.201,classification_task,2021.2.3,Win32,59.85873339,627c6715c52fd12f31907bd0,,,,,,,,,,,,,,,,,,,,,,,a,0,"[""0.102"",""0.308"",""0.532"",""0.141""]","[1,1,1,0]",0,11,11,11,1,1,1,,,1,FALSE,1.2486,,,,,,,,,,,,,,,,,,,,,,,,,,,,,,,
,5c10e5c5753adc0001590f2c,627c762cc3fcb86d28b2f542,2022-05-12_04h51.59.201,classification_task,2021.2.3,Win32,59.85873339,627c6715c52fd12f31907bd0,,,,,,,,,,,,,,,,,,,,,,,l,0,"[""0.219"",""0.164"",""0.818"",""0.879""]","[1,0,1,1]",0,12,12,12,1,0,0,,,1,FALSE,1.4822,,,,,,,,,,,,,,,,,,,,,,,,,,,,,,,
,5c10e5c5753adc0001590f2c,627c762cc3fcb86d28b2f542,2022-05-12_04h51.59.201,classification_task,2021.2.3,Win32,59.85873339,627c6715c52fd12f31907bd0,,,,,,,,,,,,,,,,,,,,,,,a,1,"[""0.256"",""0.483"",""0.685"",""0.930""]","[1,1,0,1]",0,13,13,13,1,0,1,,,1,FALSE,1.3034,,,,,,,,,,,,,,,,,,,,,,,,,,,,,,,
,5c10e5c5753adc0001590f2c,627c762cc3fcb86d28b2f542,2022-05-12_04h51.59.201,classification_task,2021.2.3,Win32,59.85873339,627c6715c52fd12f31907bd0,,,,,,,,,,,,,,,,,,,,,,,a,1,"[""0.256"",""0.483"",""0.629"",""0.672""]","[1,1,1,0]",0,14,14,14,1,0,1,,,1,FALSE,2.8189,,,,,,,,,,,,,,,,,,,,,,,,,,,,,,,
,5c10e5c5753adc0001590f2c,627c762cc3fcb86d28b2f542,2022-05-12_04h51.59.201,classification_task,2021.2.3,Win32,59.85873339,627c6715c52fd12f31907bd0,,,,,,,,,,,,,,,,,,,,,,,a,1,"[""0.171"",""0.483"",""0.629"",""0.930""]","[0,1,1,1]",0,15,15,15,1,0,1,,,1,FALSE,1.4384,,,,,,,,,,,,,,,,,,,,,,,,,,,,,,,
,5c10e5c5753adc0001590f2c,627c762cc3fcb86d28b2f542,2022-05-12_04h51.59.201,classification_task,2021.2.3,Win32,59.85873339,627c6715c52fd12f31907bd0,,,,,,,,,,,,,,,,,,,,,,,l,1,"[""0.102"",""0.685"",""0.532"",""0.770""]","[1,0,1,1]",0,16,16,16,1,1,1,,,1,FALSE,1.8725,,,,,,,,,,,,,,,,,,,,,,,,,,,,,,,
,5c10e5c5753adc0001590f2c,627c762cc3fcb86d28b2f542,2022-05-12_04h51.59.201,classification_task,2021.2.3,Win32,59.85873339,627c6715c52fd12f31907bd0,,,,,,,,,,,,,,,,,,,,,,,l,1,"[""0.968"",""0.308"",""0.532"",""0.770""]","[0,1,1,1]",0,17,17,17,1,1,1,,,1,FALSE,2.3026,,,,,,,,,,,,,,,,,,,,,,,,,,,,,,,
,5c10e5c5753adc0001590f2c,627c762cc3fcb86d28b2f542,2022-05-12_04h51.59.201,classification_task,2021.2.3,Win32,59.85873339,627c6715c52fd12f31907bd0,,,,,,,,,,,,,,,,,,,,,,,a,0,"[""0.032"",""0.377"",""0.593"",""0.683""]","[1,1,1,0]",0,18,18,18,1,1,0,,,1,FALSE,3.2794,,,,,,,,,,,,,,,,,,,,,,,,,,,,,,,
,5c10e5c5753adc0001590f2c,627c762cc3fcb86d28b2f542,2022-05-12_04h51.59.201,classification_task,2021.2.3,Win32,59.85873339,627c6715c52fd12f31907bd0,,,,,,,,,,,,,,,,,,,,,,,l,1,"[""0.032"",""0.672"",""0.593"",""0.718""]","[1,0,1,1]",0,19,19,19,1,1,0,,,1,FALSE,2.0315,,,,,,,,,,,,,,,,,,,,,,,,,,,,,,,
,5c10e5c5753adc0001590f2c,627c762cc3fcb86d28b2f542,2022-05-12_04h51.59.201,classification_task,2021.2.3,Win32,59.85873339,627c6715c52fd12f31907bd0,,,,,,,,,,,,,,,,,,,,,,,l,1,"[""0.032"",""0.377"",""0.150"",""0.718""]","[1,1,0,1]",0,20,20,20,1,1,0,,,1,FALSE,4.2385,,,,,,,,,,,,,,,,,,,,,,,,,,,,,,,
,5c10e5c5753adc0001590f2c,627c762cc3fcb86d28b2f542,2022-05-12_04h51.59.201,classification_task,2021.2.3,Win32,59.85873339,627c6715c52fd12f31907bd0,,,,,,,,,,,,,,,,,,,,,,,l,0,"[""0.219"",""0.185"",""0.818"",""0.879""]","[1,0,1,1]",0,21,21,21,1,0,0,,,1,FALSE,2.4639,,,,,,,,,,,,,,,,,,,,,,,,,,,,,,,
,5c10e5c5753adc0001590f2c,627c762cc3fcb86d28b2f542,2022-05-12_04h51.59.201,classification_task,2021.2.3,Win32,59.85873339,627c6715c52fd12f31907bd0,,,,,,,,,,,,,,,,,,,,,,,l,1,"[""0.102"",""0.308"",""0.685"",""0.770""]","[1,1,0,1]",0,22,22,22,1,1,1,,,1,FALSE,1.8915,,,,,,,,,,,,,,,,,,,,,,,,,,,,,,,
,5c10e5c5753adc0001590f2c,627c762cc3fcb86d28b2f542,2022-05-12_04h51.59.201,classification_task,2021.2.3,Win32,59.85873339,627c6715c52fd12f31907bd0,,,,,,,,,,,,,,,,,,,,,,,l,1,"[""0.102"",""0.308"",""0.532"",""0.181""]","[1,1,1,0]",0,23,23,23,1,1,1,,,1,FALSE,1.0817,,,,,,,,,,,,,,,,,,,,,,,,,,,,,,,
,5c10e5c5753adc0001590f2c,627c762cc3fcb86d28b2f542,2022-05-12_04h51.59.201,classification_task,2021.2.3,Win32,59.85873339,627c6715c52fd12f31907bd0,,,,,,,,,,,,,,,,,,,,,,,l,0,"[""0.219"",""0.439"",""0.818"",""0.968""]","[1,1,1,0]",0,24,24,24,1,0,0,,,1,FALSE,2.8549,,,,,,,,,,,,,,,,,,,,,,,,,,,,,,,
,5c10e5c5753adc0001590f2c,627c762cc3fcb86d28b2f542,2022-05-12_04h51.59.201,classification_task,2021.2.3,Win32,59.85873339,627c6715c52fd12f31907bd0,,,,,,,,,,,,,,,,,,,,,,,a,0,"[""0.141"",""0.377"",""0.593"",""0.718""]","[0,1,1,1]",0,25,25,25,1,1,0,,,1,FALSE,1.0133,,,,,,,,,,,,,,,,,,,,,,,,,,,,,,,
,5c10e5c5753adc0001590f2c,627c762cc3fcb86d28b2f542,2022-05-12_04h51.59.201,classification_task,2021.2.3,Win32,59.85873339,627c6715c52fd12f31907bd0,,,,,,,,,,,,,,,,,,,,,,,l,0,"[""0.219"",""0.439"",""0.150"",""0.879""]","[1,1,0,1]",0,26,26,26,1,0,0,,,1,FALSE,0.7676,,,,,,,,,,,,,,,,,,,,,,,,,,,,,,,
,5c10e5c5753adc0001590f2c,627c762cc3fcb86d28b2f542,2022-05-12_04h51.59.201,classification_task,2021.2.3,Win32,59.85873339,627c6715c52fd12f31907bd0,,,,,,,,,,,,,,,,,,,,,,,a,1,"[""0.256"",""0.483"",""0.629"",""0.180""]","[1,1,1,0]",0,27,27,27,1,0,1,,,1,FALSE,1.2933,,,,,,,,,,,,,,,,,,,,,,,,,,,,,,,
,5c10e5c5753adc0001590f2c,627c762cc3fcb86d28b2f542,2022-05-12_04h51.59.201,classification_task,2021.2.3,Win32,59.85873339,627c6715c52fd12f31907bd0,,,,,,,,,,,,,,,,,,,,,,,a,1,"[""0.150"",""0.483"",""0.629"",""0.930""]","[0,1,1,1]",0,28,28,28,1,0,1,,,1,FALSE,1.6433,,,,,,,,,,,,,,,,,,,,,,,,,,,,,,,
,5c10e5c5753adc0001590f2c,627c762cc3fcb86d28b2f542,2022-05-12_04h51.59.201,classification_task,2021.2.3,Win32,59.85873339,627c6715c52fd12f31907bd0,,,,,,,,,,,,,,,,,,,,,,,l,0,"[""0.683"",""0.439"",""0.818"",""0.879""]","[0,1,1,1]",0,29,29,29,1,0,0,,,1,FALSE,1.8294,,,,,,,,,,,,,,,,,,,,,,,,,,,,,,,
,5c10e5c5753adc0001590f2c,627c762cc3fcb86d28b2f542,2022-05-12_04h51.59.201,classification_task,2021.2.3,Win32,59.85873339,627c6715c52fd12f31907bd0,,,,,,,,,,,,,,,,,,,,,,,a,1,"[""0.256"",""0.483"",""0.181"",""0.930""]","[1,1,0,1]",0,30,30,30,1,0,1,,,1,FALSE,1.2009,,,,,,,,,,,,,,,,,,,,,,,,,,,,,,,
,5c10e5c5753adc0001590f2c,627c762cc3fcb86d28b2f542,2022-05-12_04h51.59.201,classification_task,2021.2.3,Win32,59.85873339,627c6715c52fd12f31907bd0,,,,,,,,,,,,,,,,,,,,,,,a,1,"[""0.256"",""0.683"",""0.629"",""0.930""]","[1,0,1,1]",0,31,31,31,1,0,1,,,1,FALSE,1.0716,,,,,,,,,,,,,,,,,,,,,,,,,,,,,,,
,5c10e5c5753adc0001590f2c,627c762cc3fcb86d28b2f542,2022-05-12_04h51.59.201,classification_task,2021.2.3,Win32,59.85873339,627c6715c52fd12f31907bd0,,,,,,,,,,,,,,,,,,,,,,,a,0,"[""0.032"",""0.141"",""0.593"",""0.718""]","[1,0,1,1]",0,32,32,32,1,1,0,,,1,FALSE,1.4733,,,,,,,,,,,,,,,,,,,,,,,,,,,,,,,
,5c10e5c5753adc0001590f2c,627c762cc3fcb86d28b2f542,2022-05-12_04h51.59.201,classification_task,2021.2.3,Win32,59.85873339,627c6715c52fd12f31907bd0,,,,,,,,,,,,,,,,,,,,,,,l,1,"[""0.102"",""0.180"",""0.532"",""0.770""]","[1,0,1,1]",0,33,33,33,1,1,1,,,1,FALSE,1.1142,,,,,,,,,,,,,,,,,,,,,,,,,,,,,,,
,5c10e5c5753adc0001590f2c,627c762cc3fcb86d28b2f542,2022-05-12_04h51.59.201,classification_task,2021.2.3,Win32,59.85873339,627c6715c52fd12f31907bd0,,,,,,,,,,,,,,,,,,,,,,,l,1,"[""0.164"",""0.308"",""0.532"",""0.770""]","[0,1,1,1]",0,34,34,34,1,1,1,,,1,FALSE,0.9287,,,,,,,,,,,,,,,,,,,,,,,,,,,,,,,
,5c10e5c5753adc0001590f2c,627c762cc3fcb86d28b2f542,2022-05-12_04h51.59.201,classification_task,2021.2.3,Win32,59.85873339,627c6715c52fd12f31907bd0,,,,,,,,,,,,,,,,,,,,,,,a,1,"[""0.256"",""0.141"",""0.629"",""0.930""]","[1,0,1,1]",0,35,35,35,1,0,1,,,1,FALSE,0.8568,,,,,,,,,,,,,,,,,,,,,,,,,,,,,,,
,5c10e5c5753adc0001590f2c,627c762cc3fcb86d28b2f542,2022-05-12_04h51.59.201,classification_task,2021.2.3,Win32,59.85873339,627c6715c52fd12f31907bd0,,,,,,,,,,,,,,,,,,,,,,,a,1,"[""0.256"",""0.483"",""0.629"",""0.968""]","[1,1,1,0]",0,36,36,36,1,0,1,,,1,FALSE,1.1194,,,,,,,,,,,,,,,,,,,,,,,,,,,,,,,
,5c10e5c5753adc0001590f2c,627c762cc3fcb86d28b2f542,2022-05-12_04h51.59.201,classification_task,2021.2.3,Win32,59.85873339,627c6715c52fd12f31907bd0,,,,,,,,,,,,,,,,,,,,,,,a,1,"[""0.256"",""0.483"",""0.140"",""0.930""]","[1,1,0,1]",0,37,37,37,1,0,1,,,1,FALSE,0.8622,,,,,,,,,,,,,,,,,,,,,,,,,,,,,,,
,5c10e5c5753adc0001590f2c,627c762cc3fcb86d28b2f542,2022-05-12_04h51.59.201,classification_task,2021.2.3,Win32,59.85873339,627c6715c52fd12f31907bd0,,,,,,,,,,,,,,,,,,,,,,,l,0,"[""0.219"",""0.141"",""0.818"",""0.879""]","[1,0,1,1]",0,38,38,38,1,0,0,,,1,FALSE,0.9963,,,,,,,,,,,,,,,,,,,,,,,,,,,,,,,
,5c10e5c5753adc0001590f2c,627c762cc3fcb86d28b2f542,2022-05-12_04h51.59.201,classification_task,2021.2.3,Win32,59.85873339,627c6715c52fd12f31907bd0,,,,,,,,,,,,,,,,,,,,,,,a,0,"[""0.185"",""0.377"",""0.593"",""0.718""]","[0,1,1,1]",0,39,39,39,1,1,0,,,1,FALSE,0.7724,,,,,,,,,,,,,,,,,,,,,,,,,,,,,,,
,5c10e5c5753adc0001590f2c,627c762cc3fcb86d28b2f542,2022-05-12_04h51.59.201,classification_task,2021.2.3,Win32,59.85873339,627c6715c52fd12f31907bd0,,,,,,,,,,,,,,,,,,,,,,,a,0,"[""0.032"",""0.377"",""0.677"",""0.718""]","[1,1,0,1]",0,40,40,40,1,1,0,,,1,FALSE,0.7777,,,,,,,,,,,,,,,,,,,,,,,,,,,,,,,
,5c10e5c5753adc0001590f2c,627c762cc3fcb86d28b2f542,2022-05-12_04h51.59.201,classification_task,2021.2.3,Win32,59.85873339,627c6715c52fd12f31907bd0,,,,,,,,,,,,,,,,,,,,,,,a,1,"[""0.219"",""0.439"",""0.141"",""0.879""]","[1,1,0,1]",0,41,41,41,1,0,0,,,1,FALSE,0.9273,,,,,,,,,,,,,,,,,,,,,,,,,,,,,,,
,5c10e5c5753adc0001590f2c,627c762cc3fcb86d28b2f542,2022-05-12_04h51.59.201,classification_task,2021.2.3,Win32,59.85873339,627c6715c52fd12f31907bd0,,,,,,,,,,,,,,,,,,,,,,,a,1,"[""0.968"",""0.483"",""0.629"",""0.930""]","[0,1,1,1]",0,42,42,42,1,0,1,,,1,FALSE,1.0839,,,,,,,,,,,,,,,,,,,,,,,,,,,,,,,
,5c10e5c5753adc0001590f2c,627c762cc3fcb86d28b2f542,2022-05-12_04h51.59.201,classification_task,2021.2.3,Win32,59.85873339,627c6715c52fd12f31907bd0,,,,,,,,,,,,,,,,,,,,,,,l,1,"[""0.102"",""0.308"",""0.532"",""0.141""]","[1,1,1,0]",0,43,43,43,1,1,1,,,1,FALSE,0.6979,,,,,,,,,,,,,,,,,,,,,,,,,,,,,,,
,5c10e5c5753adc0001590f2c,627c762cc3fcb86d28b2f542,2022-05-12_04h51.59.201,classification_task,2021.2.3,Win32,59.85873339,627c6715c52fd12f31907bd0,,,,,,,,,,,,,,,,,,,,,,,a,1,"[""0.136"",""0.439"",""0.818"",""0.879""]","[0,1,1,1]",0,44,44,44,1,0,0,,,1,FALSE,0.9294,,,,,,,,,,,,,,,,,,,,,,,,,,,,,,,
,5c10e5c5753adc0001590f2c,627c762cc3fcb86d28b2f542,2022-05-12_04h51.59.201,classification_task,2021.2.3,Win32,59.85873339,627c6715c52fd12f31907bd0,,,,,,,,,,,,,,,,,,,,,,,a,0,"[""0.032"",""0.377"",""0.593"",""0.171""]","[1,1,1,0]",0,45,45,45,1,1,0,,,1,FALSE,1.0737,,,,,,,,,,,,,,,,,,,,,,,,,,,,,,,
,5c10e5c5753adc0001590f2c,627c762cc3fcb86d28b2f542,2022-05-12_04h51.59.201,classification_task,2021.2.3,Win32,59.85873339,627c6715c52fd12f31907bd0,,,,,,,,,,,,,,,,,,,,,,,l,0,"[""0.219"",""0.439"",""0.818"",""0.156""]","[1,1,1,0]",0,46,46,46,1,0,0,,,1,FALSE,0.8437,,,,,,,,,,,,,,,,,,,,,,,,,,,,,,,
,5c10e5c5753adc0001590f2c,627c762cc3fcb86d28b2f542,2022-05-12_04h51.59.201,classification_task,2021.2.3,Win32,59.85873339,627c6715c52fd12f31907bd0,,,,,,,,,,,,,,,,,,,,,,,l,1,"[""0.102"",""0.308"",""0.141"",""0.770""]","[1,1,0,1]",0,47,47,47,1,1,1,,,1,FALSE,1.4791,,,,,,,,,,,,,,,,,,,,,,,,,,,,,,,
,5c10e5c5753adc0001590f2c,627c762cc3fcb86d28b2f542,2022-05-12_04h51.59.201,classification_task,2021.2.3,Win32,59.85873339,627c6715c52fd12f31907bd0,,,,,,,,,,,,,,,,,,,,,,,a,0,"[""0.032"",""0.185"",""0.593"",""0.718""]","[1,0,1,1]",0,48,48,48,1,1,0,,,1,FALSE,1.7008,,,,,,,,,,,,,,,,,,,,,,,,,,,,,,,
,5c10e5c5753adc0001590f2c,627c762cc3fcb86d28b2f542,2022-05-12_04h51.59.201,classification_task,2021.2.3,Win32,59.85873339,627c6715c52fd12f31907bd0,,,,,,,,,,,,,,,,,,,,,,,l,1,"[""0.141"",""0.308"",""0.532"",""0.770""]","[0,1,1,1]",0,49,49,49,1,1,1,,,1,FALSE,0.9624,,,,,,,,,,,,,,,,,,,,,,,,,,,,,,,
,5c10e5c5753adc0001590f2c,627c762cc3fcb86d28b2f542,2022-05-12_04h51.59.201,classification_task,2021.2.3,Win32,59.85873339,627c6715c52fd12f31907bd0,,,,,,,,,,,,,,,,,,,,,,,l,1,"[""0.102"",""0.683"",""0.532"",""0.770""]","[1,0,1,1]",0,50,50,50,1,1,1,,,1,FALSE,2.0462,,,,,,,,,,,,,,,,,,,,,,,,,,,,,,,
,5c10e5c5753adc0001590f2c,627c762cc3fcb86d28b2f542,2022-05-12_04h51.59.201,classification_task,2021.2.3,Win32,59.85873339,627c6715c52fd12f31907bd0,,,,,,,,,,,,,,,,,,,,,,,l,0,"[""0.141"",""0.439"",""0.818"",""0.879""]","[0,1,1,1]",0,51,51,51,1,0,0,,,1,FALSE,1.0586,,,,,,,,,,,,,,,,,,,,,,,,,,,,,,,
,5c10e5c5753adc0001590f2c,627c762cc3fcb86d28b2f542,2022-05-12_04h51.59.201,classification_task,2021.2.3,Win32,59.85873339,627c6715c52fd12f31907bd0,,,,,,,,,,,,,,,,,,,,,,,a,1,"[""0.677"",""0.483"",""0.629"",""0.930""]","[0,1,1,1]",0,52,52,52,1,0,1,,,1,FALSE,1.547,,,,,,,,,,,,,,,,,,,,,,,,,,,,,,,
,5c10e5c5753adc0001590f2c,627c762cc3fcb86d28b2f542,2022-05-12_04h51.59.201,classification_task,2021.2.3,Win32,59.85873339,627c6715c52fd12f31907bd0,,,,,,,,,,,,,,,,,,,,,,,a,1,"[""0.219"",""0.439"",""0.141"",""0.879""]","[1,1,0,1]",0,53,53,53,1,0,0,,,1,FALSE,0.9326,,,,,,,,,,,,,,,,,,,,,,,,,,,,,,,
,5c10e5c5753adc0001590f2c,627c762cc3fcb86d28b2f542,2022-05-12_04h51.59.201,classification_task,2021.2.3,Win32,59.85873339,627c6715c52fd12f31907bd0,,,,,,,,,,,,,,,,,,,,,,,a,1,"[""0.256"",""0.156"",""0.629"",""0.930""]","[1,0,1,1]",0,54,54,54,1,0,1,,,1,FALSE,1.0463,,,,,,,,,,,,,,,,,,,,,,,,,,,,,,,
,5c10e5c5753adc0001590f2c,627c762cc3fcb86d28b2f542,2022-05-12_04h51.59.201,classification_task,2021.2.3,Win32,59.85873339,627c6715c52fd12f31907bd0,,,,,,,,,,,,,,,,,,,,,,,a,1,"[""0.219"",""0.439"",""0.818"",""0.141""]","[1,1,1,0]",0,55,55,55,1,0,0,,,1,FALSE,1.2625,,,,,,,,,,,,,,,,,,,,,,,,,,,,,,,
,5c10e5c5753adc0001590f2c,627c762cc3fcb86d28b2f542,2022-05-12_04h51.59.201,classification_task,2021.2.3,Win32,59.85873339,627c6715c52fd12f31907bd0,,,,,,,,,,,,,,,,,,,,,,,l,1,"[""0.102"",""0.308"",""0.532"",""0.150""]","[1,1,1,0]",0,56,56,56,1,1,1,,,1,FALSE,0.9458,,,,,,,,,,,,,,,,,,,,,,,,,,,,,,,
,5c10e5c5753adc0001590f2c,627c762cc3fcb86d28b2f542,2022-05-12_04h51.59.201,classification_task,2021.2.3,Win32,59.85873339,627c6715c52fd12f31907bd0,,,,,,,,,,,,,,,,,,,,,,,l,1,"[""0.102"",""0.308"",""0.180"",""0.770""]","[1,1,0,1]",0,57,57,57,1,1,1,,,1,FALSE,0.7938,,,,,,,,,,,,,,,,,,,,,,,,,,,,,,,
,5c10e5c5753adc0001590f2c,627c762cc3fcb86d28b2f542,2022-05-12_04h51.59.201,classification_task,2021.2.3,Win32,59.85873339,627c6715c52fd12f31907bd0,,,,,,,,,,,,,,,,,,,,,,,a,1,"[""0.256"",""0.483"",""0.629"",""0.136""]","[1,1,1,0]",0,58,58,58,1,0,1,,,1,FALSE,0.8785,,,,,,,,,,,,,,,,,,,,,,,,,,,,,,,
,5c10e5c5753adc0001590f2c,627c762cc3fcb86d28b2f542,2022-05-12_04h51.59.201,classification_task,2021.2.3,Win32,59.85873339,627c6715c52fd12f31907bd0,,,,,,,,,,,,,,,,,,,,,,,l,1,"[""0.032"",""0.377"",""0.156"",""0.718""]","[1,1,0,1]",0,59,59,59,1,1,0,,,1,FALSE,1.0788,,,,,,,,,,,,,,,,,,,,,,,,,,,,,,,
,5c10e5c5753adc0001590f2c,627c762cc3fcb86d28b2f542,2022-05-12_04h51.59.201,classification_task,2021.2.3,Win32,59.85873339,627c6715c52fd12f31907bd0,,,,,,,,,,,,,,,,,,,,,,,a,0,"[""0.032"",""0.377"",""0.593"",""0.140""]","[1,1,1,0]",0,60,60,60,1,1,0,,,1,FALSE,1.3814,,,,,,,,,,,,,,,,,,,,,,,,,,,,,,,
,5c10e5c5753adc0001590f2c,627c762cc3fcb86d28b2f542,2022-05-12_04h51.59.201,classification_task,2021.2.3,Win32,59.85873339,627c6715c52fd12f31907bd0,,,,,,,,,,,,,,,,,,,,,,,l,0,"[""0.219"",""0.171"",""0.818"",""0.879""]","[1,0,1,1]",0,61,61,61,1,0,0,,,1,FALSE,0.9233,,,,,,,,,,,,,,,,,,,,,,,,,,,,,,,
,5c10e5c5753adc0001590f2c,627c762cc3fcb86d28b2f542,2022-05-12_04h51.59.201,classification_task,2021.2.3,Win32,59.85873339,627c6715c52fd12f31907bd0,,,,,,,,,,,,,,,,,,,,,,,a,0,"[""0.164"",""0.377"",""0.593"",""0.718""]","[0,1,1,1]",0,62,62,62,1,1,0,,,1,FALSE,1.0562,,,,,,,,,,,,,,,,,,,,,,,,,,,,,,,
,5c10e5c5753adc0001590f2c,627c762cc3fcb86d28b2f542,2022-05-12_04h51.59.201,classification_task,2021.2.3,Win32,59.85873339,627c6715c52fd12f31907bd0,,,,,,,,,,,,,,,,,,,,,,,a,1,"[""0.256"",""0.483"",""0.181"",""0.930""]","[1,1,0,1]",0,63,63,63,1,0,1,,,1,FALSE,1.3615,,,,,,,,,,,,,,,,,,,,,,,,,,,,,,,
,5c10e5c5753adc0001590f2c,627c762cc3fcb86d28b2f542,2022-05-12_04h51.59.201,classification_task,2021.2.3,Win32,59.85873339,627c6715c52fd12f31907bd0,,,,,,,,,,,,,,,,,,,,,,,,,,,,,,,,,,,,,,,0, ,,0,5.137786596,203.3525,0,1,1,1,1,2,2,,,,,,,,,,,,,,,,,,
,5c10e5c5753adc0001590f2c,627c762cc3fcb86d28b2f542,2022-05-12_04h51.59.201,classification_task,2021.2.3,Win32,59.85873339,627c6715c52fd12f31907bd0,,,,,,,,,,,,,,,,,,,,,,,,,,,,,,,,,,,,,,,1,  ,,0,3.622134039,210.2672,0,1,1,1,1,2,2,,,,,,,,,,,,,,,,,,
,5c10e5c5753adc0001590f2c,627c762cc3fcb86d28b2f542,2022-05-12_04h51.59.201,classification_task,2021.2.3,Win32,59.85873339,627c6715c52fd12f31907bd0,,,,,,,,,,,,,,,,,,,,,,,,,,,,,,,,,,,,,,,2,  ,,0,5.068893298,230.3541,0,1,1,1,1,2,2,,,,,,,,,,,,,,,,,,
,5c10e5c5753adc0001590f2c,627c762cc3fcb86d28b2f542,2022-05-12_04h51.59.201,classification_task,2021.2.3,Win32,59.85873339,627c6715c52fd12f31907bd0,,,,,,,,,,,,,,,,,,,,,,,,,,,,,,,,,,,,,,,,,,,,,0,1,1,1,1,,2,,,,,,,,,,,,,,,,,,
,5c10e5c5753adc0001590f2c,627c762cc3fcb86d28b2f542,2022-05-12_04h51.59.201,classification_task,2021.2.3,Win32,59.85873339,627c6715c52fd12f31907bd0,,,,,,,,,,,,,,,,,,,,,space,23.6251,a,0,"[""0.032"",""0.377"",""0.677"",""0.718""]","[1,1,0,1]",0,0,0,0,1,1,0,,,1,FALSE,2.4171,,,,,,,,,,,,,,,,,,,,,,,,,,,,,,,
,5c10e5c5753adc0001590f2c,627c762cc3fcb86d28b2f542,2022-05-12_04h51.59.201,classification_task,2021.2.3,Win32,59.85873339,627c6715c52fd12f31907bd0,,,,,,,,,,,,,,,,,,,,,,,l,1,"[""0.032"",""0.377"",""0.593"",""0.185""]","[1,1,1,0]",0,1,1,1,1,1,0,,,1,FALSE,2.5918,,,,,,,,,,,,,,,,,,,,,,,,,,,,,,,
,5c10e5c5753adc0001590f2c,627c762cc3fcb86d28b2f542,2022-05-12_04h51.59.201,classification_task,2021.2.3,Win32,59.85873339,627c6715c52fd12f31907bd0,,,,,,,,,,,,,,,,,,,,,,,a,1,"[""0.256"",""0.483"",""0.181"",""0.930""]","[1,1,0,1]",0,2,2,2,1,0,1,,,1,FALSE,1.9432,,,,,,,,,,,,,,,,,,,,,,,,,,,,,,,
,5c10e5c5753adc0001590f2c,627c762cc3fcb86d28b2f542,2022-05-12_04h51.59.201,classification_task,2021.2.3,Win32,59.85873339,627c6715c52fd12f31907bd0,,,,,,,,,,,,,,,,,,,,,,,l,0,"[""0.256"",""0.180"",""0.629"",""0.930""]","[1,0,1,1]",0,3,3,3,1,0,1,,,1,FALSE,1.7832,,,,,,,,,,,,,,,,,,,,,,,,,,,,,,,
,5c10e5c5753adc0001590f2c,627c762cc3fcb86d28b2f542,2022-05-12_04h51.59.201,classification_task,2021.2.3,Win32,59.85873339,627c6715c52fd12f31907bd0,,,,,,,,,,,,,,,,,,,,,,,l,1,"[""0.102"",""0.150"",""0.532"",""0.770""]","[1,0,1,1]",0,4,4,4,1,1,1,,,1,FALSE,1.0399,,,,,,,,,,,,,,,,,,,,,,,,,,,,,,,
,5c10e5c5753adc0001590f2c,627c762cc3fcb86d28b2f542,2022-05-12_04h51.59.201,classification_task,2021.2.3,Win32,59.85873339,627c6715c52fd12f31907bd0,,,,,,,,,,,,,,,,,,,,,,,a,1,"[""0.150"",""0.483"",""0.629"",""0.930""]","[0,1,1,1]",0,5,5,5,1,0,1,,,1,FALSE,1.3599,,,,,,,,,,,,,,,,,,,,,,,,,,,,,,,
,5c10e5c5753adc0001590f2c,627c762cc3fcb86d28b2f542,2022-05-12_04h51.59.201,classification_task,2021.2.3,Win32,59.85873339,627c6715c52fd12f31907bd0,,,,,,,,,,,,,,,,,,,,,,,l,1,"[""0.102"",""0.308"",""0.140"",""0.770""]","[1,1,0,1]",0,6,6,6,1,1,1,,,1,FALSE,1.1402,,,,,,,,,,,,,,,,,,,,,,,,,,,,,,,
,5c10e5c5753adc0001590f2c,627c762cc3fcb86d28b2f542,2022-05-12_04h51.59.201,classification_task,2021.2.3,Win32,59.85873339,627c6715c52fd12f31907bd0,,,,,,,,,,,,,,,,,,,,,,,a,1,"[""0.968"",""0.439"",""0.818"",""0.879""]","[0,1,1,1]",0,7,7,7,1,0,0,,,1,FALSE,3.0238,,,,,,,,,,,,,,,,,,,,,,,,,,,,,,,
,5c10e5c5753adc0001590f2c,627c762cc3fcb86d28b2f542,2022-05-12_04h51.59.201,classification_task,2021.2.3,Win32,59.85873339,627c6715c52fd12f31907bd0,,,,,,,,,,,,,,,,,,,,,,,l,1,"[""0.032"",""0.180"",""0.593"",""0.718""]","[1,0,1,1]",0,8,8,8,1,1,0,,,1,FALSE,2.5413,,,,,,,,,,,,,,,,,,,,,,,,,,,,,,,
,5c10e5c5753adc0001590f2c,627c762cc3fcb86d28b2f542,2022-05-12_04h51.59.201,classification_task,2021.2.3,Win32,59.85873339,627c6715c52fd12f31907bd0,,,,,,,,,,,,,,,,,,,,,,,l,1,"[""0.102"",""0.308"",""0.532"",""0.141""]","[1,1,1,0]",0,9,9,9,1,1,1,,,1,FALSE,1.7346,,,,,,,,,,,,,,,,,,,,,,,,,,,,,,,
,5c10e5c5753adc0001590f2c,627c762cc3fcb86d28b2f542,2022-05-12_04h51.59.201,classification_task,2021.2.3,Win32,59.85873339,627c6715c52fd12f31907bd0,,,,,,,,,,,,,,,,,,,,,,,a,0,"[""0.141"",""0.377"",""0.593"",""0.718""]","[0,1,1,1]",0,10,10,10,1,1,0,,,1,FALSE,1.0014,,,,,,,,,,,,,,,,,,,,,,,,,,,,,,,
,5c10e5c5753adc0001590f2c,627c762cc3fcb86d28b2f542,2022-05-12_04h51.59.201,classification_task,2021.2.3,Win32,59.85873339,627c6715c52fd12f31907bd0,,,,,,,,,,,,,,,,,,,,,,,a,1,"[""0.219"",""0.439"",""0.818"",""0.140""]","[1,1,1,0]",0,11,11,11,1,0,0,,,1,FALSE,0.9901,,,,,,,,,,,,,,,,,,,,,,,,,,,,,,,
,5c10e5c5753adc0001590f2c,627c762cc3fcb86d28b2f542,2022-05-12_04h51.59.201,classification_task,2021.2.3,Win32,59.85873339,627c6715c52fd12f31907bd0,,,,,,,,,,,,,,,,,,,,,,,l,0,"[""0.219"",""0.439"",""0.140"",""0.879""]","[1,1,0,1]",0,12,12,12,1,0,0,,,1,FALSE,1.7419,,,,,,,,,,,,,,,,,,,,,,,,,,,,,,,
,5c10e5c5753adc0001590f2c,627c762cc3fcb86d28b2f542,2022-05-12_04h51.59.201,classification_task,2021.2.3,Win32,59.85873339,627c6715c52fd12f31907bd0,,,,,,,,,,,,,,,,,,,,,,,l,0,"[""0.219"",""0.156"",""0.818"",""0.879""]","[1,0,1,1]",0,13,13,13,1,0,0,,,1,FALSE,1.2901,,,,,,,,,,,,,,,,,,,,,,,,,,,,,,,
,5c10e5c5753adc0001590f2c,627c762cc3fcb86d28b2f542,2022-05-12_04h51.59.201,classification_task,2021.2.3,Win32,59.85873339,627c6715c52fd12f31907bd0,,,,,,,,,,,,,,,,,,,,,,,a,1,"[""0.256"",""0.483"",""0.629"",""0.968""]","[1,1,1,0]",0,14,14,14,1,0,1,,,1,FALSE,0.9021,,,,,,,,,,,,,,,,,,,,,,,,,,,,,,,
,5c10e5c5753adc0001590f2c,627c762cc3fcb86d28b2f542,2022-05-12_04h51.59.201,classification_task,2021.2.3,Win32,59.85873339,627c6715c52fd12f31907bd0,,,,,,,,,,,,,,,,,,,,,,,l,1,"[""0.185"",""0.308"",""0.532"",""0.770""]","[0,1,1,1]",0,15,15,15,1,1,1,,,1,FALSE,0.9466,,,,,,,,,,,,,,,,,,,,,,,,,,,,,,,
,5c10e5c5753adc0001590f2c,627c762cc3fcb86d28b2f542,2022-05-12_04h51.59.201,classification_task,2021.2.3,Win32,59.85873339,627c6715c52fd12f31907bd0,,,,,,,,,,,,,,,,,,,,,,,l,0,"[""0.256"",""0.483"",""0.629"",""0.156""]","[1,1,1,0]",0,16,16,16,1,0,1,,,1,FALSE,1.282,,,,,,,,,,,,,,,,,,,,,,,,,,,,,,,
,5c10e5c5753adc0001590f2c,627c762cc3fcb86d28b2f542,2022-05-12_04h51.59.201,classification_task,2021.2.3,Win32,59.85873339,627c6715c52fd12f31907bd0,,,,,,,,,,,,,,,,,,,,,,,a,0,"[""0.032"",""0.685"",""0.593"",""0.718""]","[1,0,1,1]",0,17,17,17,1,1,0,,,1,FALSE,1.2085,,,,,,,,,,,,,,,,,,,,,,,,,,,,,,,
,5c10e5c5753adc0001590f2c,627c762cc3fcb86d28b2f542,2022-05-12_04h51.59.201,classification_task,2021.2.3,Win32,59.85873339,627c6715c52fd12f31907bd0,,,,,,,,,,,,,,,,,,,,,,,l,0,"[""0.256"",""0.483"",""0.141"",""0.930""]","[1,1,0,1]",0,18,18,18,1,0,1,,,1,FALSE,2.0995,,,,,,,,,,,,,,,,,,,,,,,,,,,,,,,
,5c10e5c5753adc0001590f2c,627c762cc3fcb86d28b2f542,2022-05-12_04h51.59.201,classification_task,2021.2.3,Win32,59.85873339,627c6715c52fd12f31907bd0,,,,,,,,,,,,,,,,,,,,,,,l,0,"[""0.256"",""0.685"",""0.629"",""0.930""]","[1,0,1,1]",0,19,19,19,1,0,1,,,1,FALSE,1.6671,,,,,,,,,,,,,,,,,,,,,,,,,,,,,,,
,5c10e5c5753adc0001590f2c,627c762cc3fcb86d28b2f542,2022-05-12_04h51.59.201,classification_task,2021.2.3,Win32,59.85873339,627c6715c52fd12f31907bd0,,,,,,,,,,,,,,,,,,,,,,,l,0,"[""0.141"",""0.439"",""0.818"",""0.879""]","[0,1,1,1]",0,20,20,20,1,0,0,,,1,FALSE,1.6701,,,,,,,,,,,,,,,,,,,,,,,,,,,,,,,
,5c10e5c5753adc0001590f2c,627c762cc3fcb86d28b2f542,2022-05-12_04h51.59.201,classification_task,2021.2.3,Win32,59.85873339,627c6715c52fd12f31907bd0,,,,,,,,,,,,,,,,,,,,,,,l,1,"[""0.180"",""0.308"",""0.532"",""0.770""]","[0,1,1,1]",0,21,21,21,1,1,1,,,1,FALSE,2.1019,,,,,,,,,,,,,,,,,,,,,,,,,,,,,,,
,5c10e5c5753adc0001590f2c,627c762cc3fcb86d28b2f542,2022-05-12_04h51.59.201,classification_task,2021.2.3,Win32,59.85873339,627c6715c52fd12f31907bd0,,,,,,,,,,,,,,,,,,,,,,,a,1,"[""0.219"",""0.672"",""0.818"",""0.879""]","[1,0,1,1]",0,22,22,22,1,0,0,,,1,FALSE,0.9896,,,,,,,,,,,,,,,,,,,,,,,,,,,,,,,
,5c10e5c5753adc0001590f2c,627c762cc3fcb86d28b2f542,2022-05-12_04h51.59.201,classification_task,2021.2.3,Win32,59.85873339,627c6715c52fd12f31907bd0,,,,,,,,,,,,,,,,,,,,,,,l,1,"[""0.102"",""0.308"",""0.968"",""0.770""]","[1,1,0,1]",0,23,23,23,1,1,1,,,1,FALSE,1.1813,,,,,,,,,,,,,,,,,,,,,,,,,,,,,,,
,5c10e5c5753adc0001590f2c,627c762cc3fcb86d28b2f542,2022-05-12_04h51.59.201,classification_task,2021.2.3,Win32,59.85873339,627c6715c52fd12f31907bd0,,,,,,,,,,,,,,,,,,,,,,,l,0,"[""0.219"",""0.439"",""0.818"",""0.141""]","[1,1,1,0]",0,24,24,24,1,0,0,,,1,FALSE,1.6165,,,,,,,,,,,,,,,,,,,,,,,,,,,,,,,
,5c10e5c5753adc0001590f2c,627c762cc3fcb86d28b2f542,2022-05-12_04h51.59.201,classification_task,2021.2.3,Win32,59.85873339,627c6715c52fd12f31907bd0,,,,,,,,,,,,,,,,,,,,,,,l,1,"[""0.032"",""0.377"",""0.140"",""0.718""]","[1,1,0,1]",0,25,25,25,1,1,0,,,1,FALSE,0.8824,,,,,,,,,,,,,,,,,,,,,,,,,,,,,,,
,5c10e5c5753adc0001590f2c,627c762cc3fcb86d28b2f542,2022-05-12_04h51.59.201,classification_task,2021.2.3,Win32,59.85873339,627c6715c52fd12f31907bd0,,,,,,,,,,,,,,,,,,,,,,,l,0,"[""0.181"",""0.483"",""0.629"",""0.930""]","[0,1,1,1]",0,26,26,26,1,0,1,,,1,FALSE,1.163,,,,,,,,,,,,,,,,,,,,,,,,,,,,,,,
,5c10e5c5753adc0001590f2c,627c762cc3fcb86d28b2f542,2022-05-12_04h51.59.201,classification_task,2021.2.3,Win32,59.85873339,627c6715c52fd12f31907bd0,,,,,,,,,,,,,,,,,,,,,,,l,1,"[""0.032"",""0.377"",""0.593"",""0.180""]","[1,1,1,0]",0,27,27,27,1,1,0,,,1,FALSE,1.0686,,,,,,,,,,,,,,,,,,,,,,,,,,,,,,,
,5c10e5c5753adc0001590f2c,627c762cc3fcb86d28b2f542,2022-05-12_04h51.59.201,classification_task,2021.2.3,Win32,59.85873339,627c6715c52fd12f31907bd0,,,,,,,,,,,,,,,,,,,,,,,l,0,"[""0.219"",""0.439"",""0.164"",""0.879""]","[1,1,0,1]",0,28,28,28,1,0,0,,,1,FALSE,0.7928,,,,,,,,,,,,,,,,,,,,,,,,,,,,,,,
,5c10e5c5753adc0001590f2c,627c762cc3fcb86d28b2f542,2022-05-12_04h51.59.201,classification_task,2021.2.3,Win32,59.85873339,627c6715c52fd12f31907bd0,,,,,,,,,,,,,,,,,,,,,,,a,0,"[""0.102"",""0.185"",""0.532"",""0.770""]","[1,0,1,1]",0,29,29,29,1,1,1,,,1,FALSE,0.7091,,,,,,,,,,,,,,,,,,,,,,,,,,,,,,,
,5c10e5c5753adc0001590f2c,627c762cc3fcb86d28b2f542,2022-05-12_04h51.59.201,classification_task,2021.2.3,Win32,59.85873339,627c6715c52fd12f31907bd0,,,,,,,,,,,,,,,,,,,,,,,l,1,"[""0.102"",""0.308"",""0.532"",""0.136""]","[1,1,1,0]",0,30,30,30,1,1,1,,,1,FALSE,0.8527,,,,,,,,,,,,,,,,,,,,,,,,,,,,,,,
,5c10e5c5753adc0001590f2c,627c762cc3fcb86d28b2f542,2022-05-12_04h51.59.201,classification_task,2021.2.3,Win32,59.85873339,627c6715c52fd12f31907bd0,,,,,,,,,,,,,,,,,,,,,,,l,1,"[""0.185"",""0.377"",""0.593"",""0.718""]","[0,1,1,1]",0,31,31,31,1,1,0,,,1,FALSE,1.405,,,,,,,,,,,,,,,,,,,,,,,,,,,,,,,
,5c10e5c5753adc0001590f2c,627c762cc3fcb86d28b2f542,2022-05-12_04h51.59.201,classification_task,2021.2.3,Win32,59.85873339,627c6715c52fd12f31907bd0,,,,,,,,,,,,,,,,,,,,,,,a,1,"[""0.256"",""0.136"",""0.629"",""0.930""]","[1,0,1,1]",0,32,32,32,1,0,1,,,1,FALSE,0.7207,,,,,,,,,,,,,,,,,,,,,,,,,,,,,,,
,5c10e5c5753adc0001590f2c,627c762cc3fcb86d28b2f542,2022-05-12_04h51.59.201,classification_task,2021.2.3,Win32,59.85873339,627c6715c52fd12f31907bd0,,,,,,,,,,,,,,,,,,,,,,,l,0,"[""0.256"",""0.483"",""0.629"",""0.181""]","[1,1,1,0]",0,33,33,33,1,0,1,,,1,FALSE,1.4858,,,,,,,,,,,,,,,,,,,,,,,,,,,,,,,
,5c10e5c5753adc0001590f2c,627c762cc3fcb86d28b2f542,2022-05-12_04h51.59.201,classification_task,2021.2.3,Win32,59.85873339,627c6715c52fd12f31907bd0,,,,,,,,,,,,,,,,,,,,,,,l,1,"[""0.102"",""0.308"",""0.672"",""0.770""]","[1,1,0,1]",0,34,34,34,1,1,1,,,1,FALSE,1.7183,,,,,,,,,,,,,,,,,,,,,,,,,,,,,,,
,5c10e5c5753adc0001590f2c,627c762cc3fcb86d28b2f542,2022-05-12_04h51.59.201,classification_task,2021.2.3,Win32,59.85873339,627c6715c52fd12f31907bd0,,,,,,,,,,,,,,,,,,,,,,,l,1,"[""0.032"",""0.968"",""0.593"",""0.718""]","[1,0,1,1]",0,35,35,35,1,1,0,,,1,FALSE,1.5814,,,,,,,,,,,,,,,,,,,,,,,,,,,,,,,
,5c10e5c5753adc0001590f2c,627c762cc3fcb86d28b2f542,2022-05-12_04h51.59.201,classification_task,2021.2.3,Win32,59.85873339,627c6715c52fd12f31907bd0,,,,,,,,,,,,,,,,,,,,,,,a,0,"[""0.102"",""0.308"",""0.532"",""0.968""]","[1,1,1,0]",0,36,36,36,1,1,1,,,1,FALSE,0.9186,,,,,,,,,,,,,,,,,,,,,,,,,,,,,,,
,5c10e5c5753adc0001590f2c,627c762cc3fcb86d28b2f542,2022-05-12_04h51.59.201,classification_task,2021.2.3,Win32,59.85873339,627c6715c52fd12f31907bd0,,,,,,,,,,,,,,,,,,,,,,,a,1,"[""0.219"",""0.439"",""0.141"",""0.879""]","[1,1,0,1]",0,37,37,37,1,0,0,,,1,FALSE,1.0207,,,,,,,,,,,,,,,,,,,,,,,,,,,,,,,
,5c10e5c5753adc0001590f2c,627c762cc3fcb86d28b2f542,2022-05-12_04h51.59.201,classification_task,2021.2.3,Win32,59.85873339,627c6715c52fd12f31907bd0,,,,,,,,,,,,,,,,,,,,,,,l,1,"[""0.032"",""0.377"",""0.593"",""0.164""]","[1,1,1,0]",0,38,38,38,1,1,0,,,1,FALSE,0.6405,,,,,,,,,,,,,,,,,,,,,,,,,,,,,,,
,5c10e5c5753adc0001590f2c,627c762cc3fcb86d28b2f542,2022-05-12_04h51.59.201,classification_task,2021.2.3,Win32,59.85873339,627c6715c52fd12f31907bd0,,,,,,,,,,,,,,,,,,,,,,,a,1,"[""0.219"",""0.164"",""0.818"",""0.879""]","[1,0,1,1]",0,39,39,39,1,0,0,,,1,FALSE,1.1614,,,,,,,,,,,,,,,,,,,,,,,,,,,,,,,
,5c10e5c5753adc0001590f2c,627c762cc3fcb86d28b2f542,2022-05-12_04h51.59.201,classification_task,2021.2.3,Win32,59.85873339,627c6715c52fd12f31907bd0,,,,,,,,,,,,,,,,,,,,,,,l,0,"[""0.685"",""0.439"",""0.818"",""0.879""]","[0,1,1,1]",0,40,40,40,1,0,0,,,1,FALSE,1.0728,,,,,,,,,,,,,,,,,,,,,,,,,,,,,,,
,5c10e5c5753adc0001590f2c,627c762cc3fcb86d28b2f542,2022-05-12_04h51.59.201,classification_task,2021.2.3,Win32,59.85873339,627c6715c52fd12f31907bd0,,,,,,,,,,,,,,,,,,,,,,,l,1,"[""0.164"",""0.308"",""0.532"",""0.770""]","[0,1,1,1]",0,41,41,41,1,1,1,,,1,FALSE,1.4747,,,,,,,,,,,,,,,,,,,,,,,,,,,,,,,
,5c10e5c5753adc0001590f2c,627c762cc3fcb86d28b2f542,2022-05-12_04h51.59.201,classification_task,2021.2.3,Win32,59.85873339,627c6715c52fd12f31907bd0,,,,,,,,,,,,,,,,,,,,,,,l,0,"[""0.219"",""0.439"",""0.818"",""0.683""]","[1,1,1,0]",0,42,42,42,1,0,0,,,1,FALSE,1.7375,,,,,,,,,,,,,,,,,,,,,,,,,,,,,,,
,5c10e5c5753adc0001590f2c,627c762cc3fcb86d28b2f542,2022-05-12_04h51.59.201,classification_task,2021.2.3,Win32,59.85873339,627c6715c52fd12f31907bd0,,,,,,,,,,,,,,,,,,,,,,,a,1,"[""0.256"",""0.483"",""0.140"",""0.930""]","[1,1,0,1]",0,43,43,43,1,0,1,,,1,FALSE,1.0948,,,,,,,,,,,,,,,,,,,,,,,,,,,,,,,
,5c10e5c5753adc0001590f2c,627c762cc3fcb86d28b2f542,2022-05-12_04h51.59.201,classification_task,2021.2.3,Win32,59.85873339,627c6715c52fd12f31907bd0,,,,,,,,,,,,,,,,,,,,,,,l,1,"[""0.102"",""0.156"",""0.532"",""0.770""]","[1,0,1,1]",0,44,44,44,1,1,1,,,1,FALSE,0.4747,,,,,,,,,,,,,,,,,,,,,,,,,,,,,,,
,5c10e5c5753adc0001590f2c,627c762cc3fcb86d28b2f542,2022-05-12_04h51.59.201,classification_task,2021.2.3,Win32,59.85873339,627c6715c52fd12f31907bd0,,,,,,,,,,,,,,,,,,,,,,,a,0,"[""0.032"",""0.377"",""0.180"",""0.718""]","[1,1,0,1]",0,45,45,45,1,1,0,,,1,FALSE,0.7757,,,,,,,,,,,,,,,,,,,,,,,,,,,,,,,
,5c10e5c5753adc0001590f2c,627c762cc3fcb86d28b2f542,2022-05-12_04h51.59.201,classification_task,2021.2.3,Win32,59.85873339,627c6715c52fd12f31907bd0,,,,,,,,,,,,,,,,,,,,,,,a,0,"[""0.150"",""0.377"",""0.593"",""0.718""]","[0,1,1,1]",0,46,46,46,1,1,0,,,1,FALSE,0.7089,,,,,,,,,,,,,,,,,,,,,,,,,,,,,,,
,5c10e5c5753adc0001590f2c,627c762cc3fcb86d28b2f542,2022-05-12_04h51.59.201,classification_task,2021.2.3,Win32,59.85873339,627c6715c52fd12f31907bd0,,,,,,,,,,,,,,,,,,,,,,,l,0,"[""0.156"",""0.483"",""0.629"",""0.930""]","[0,1,1,1]",0,47,47,47,1,0,1,,,1,FALSE,0.9677,,,,,,,,,,,,,,,,,,,,,,,,,,,,,,,
,5c10e5c5753adc0001590f2c,627c762cc3fcb86d28b2f542,2022-05-12_04h51.59.201,classification_task,2021.2.3,Win32,59.85873339,627c6715c52fd12f31907bd0,,,,,,,,,,,,,,,,,,,,,,,a,1,"[""0.141"",""0.483"",""0.629"",""0.930""]","[0,1,1,1]",0,48,48,48,1,0,1,,,1,FALSE,0.6365,,,,,,,,,,,,,,,,,,,,,,,,,,,,,,,
,5c10e5c5753adc0001590f2c,627c762cc3fcb86d28b2f542,2022-05-12_04h51.59.201,classification_task,2021.2.3,Win32,59.85873339,627c6715c52fd12f31907bd0,,,,,,,,,,,,,,,,,,,,,,,l,0,"[""0.219"",""0.439"",""0.818"",""0.136""]","[1,1,1,0]",0,49,49,49,1,0,0,,,1,FALSE,0.6524,,,,,,,,,,,,,,,,,,,,,,,,,,,,,,,
,5c10e5c5753adc0001590f2c,627c762cc3fcb86d28b2f542,2022-05-12_04h51.59.201,classification_task,2021.2.3,Win32,59.85873339,627c6715c52fd12f31907bd0,,,,,,,,,,,,,,,,,,,,,,,a,0,"[""0.102"",""0.308"",""0.677"",""0.770""]","[1,1,0,1]",0,50,50,50,1,1,1,,,1,FALSE,0.734,,,,,,,,,,,,,,,,,,,,,,,,,,,,,,,
,5c10e5c5753adc0001590f2c,627c762cc3fcb86d28b2f542,2022-05-12_04h51.59.201,classification_task,2021.2.3,Win32,59.85873339,627c6715c52fd12f31907bd0,,,,,,,,,,,,,,,,,,,,,,,a,0,"[""0.032"",""0.677"",""0.593"",""0.718""]","[1,0,1,1]",0,51,51,51,1,1,0,,,1,FALSE,1.1579,,,,,,,,,,,,,,,,,,,,,,,,,,,,,,,
,5c10e5c5753adc0001590f2c,627c762cc3fcb86d28b2f542,2022-05-12_04h51.59.201,classification_task,2021.2.3,Win32,59.85873339,627c6715c52fd12f31907bd0,,,,,,,,,,,,,,,,,,,,,,,l,1,"[""0.032"",""0.377"",""0.593"",""0.685""]","[1,1,1,0]",0,52,52,52,1,1,0,,,1,FALSE,0.7839,,,,,,,,,,,,,,,,,,,,,,,,,,,,,,,
,5c10e5c5753adc0001590f2c,627c762cc3fcb86d28b2f542,2022-05-12_04h51.59.201,classification_task,2021.2.3,Win32,59.85873339,627c6715c52fd12f31907bd0,,,,,,,,,,,,,,,,,,,,,,,l,1,"[""0.102"",""0.683"",""0.532"",""0.770""]","[1,0,1,1]",0,53,53,53,1,1,1,,,1,FALSE,0.8731,,,,,,,,,,,,,,,,,,,,,,,,,,,,,,,
,5c10e5c5753adc0001590f2c,627c762cc3fcb86d28b2f542,2022-05-12_04h51.59.201,classification_task,2021.2.3,Win32,59.85873339,627c6715c52fd12f31907bd0,,,,,,,,,,,,,,,,,,,,,,,l,0,"[""0.219"",""0.171"",""0.818"",""0.879""]","[1,0,1,1]",0,54,54,54,1,0,0,,,1,FALSE,0.8741,,,,,,,,,,,,,,,,,,,,,,,,,,,,,,,
,5c10e5c5753adc0001590f2c,627c762cc3fcb86d28b2f542,2022-05-12_04h51.59.201,classification_task,2021.2.3,Win32,59.85873339,627c6715c52fd12f31907bd0,,,,,,,,,,,,,,,,,,,,,,,l,1,"[""0.102"",""0.308"",""0.532"",""0.156""]","[1,1,1,0]",0,55,55,55,1,1,1,,,1,FALSE,1.016,,,,,,,,,,,,,,,,,,,,,,,,,,,,,,,
,5c10e5c5753adc0001590f2c,627c762cc3fcb86d28b2f542,2022-05-12_04h51.59.201,classification_task,2021.2.3,Win32,59.85873339,627c6715c52fd12f31907bd0,,,,,,,,,,,,,,,,,,,,,,,l,1,"[""0.032"",""0.377"",""0.180"",""0.718""]","[1,1,0,1]",0,56,56,56,1,1,0,,,1,FALSE,0.9813,,,,,,,,,,,,,,,,,,,,,,,,,,,,,,,
,5c10e5c5753adc0001590f2c,627c762cc3fcb86d28b2f542,2022-05-12_04h51.59.201,classification_task,2021.2.3,Win32,59.85873339,627c6715c52fd12f31907bd0,,,,,,,,,,,,,,,,,,,,,,,l,0,"[""0.219"",""0.439"",""0.181"",""0.879""]","[1,1,0,1]",0,57,57,57,1,0,0,,,1,FALSE,0.7085,,,,,,,,,,,,,,,,,,,,,,,,,,,,,,,
,5c10e5c5753adc0001590f2c,627c762cc3fcb86d28b2f542,2022-05-12_04h51.59.201,classification_task,2021.2.3,Win32,59.85873339,627c6715c52fd12f31907bd0,,,,,,,,,,,,,,,,,,,,,,,l,0,"[""0.164"",""0.439"",""0.818"",""0.879""]","[0,1,1,1]",0,58,58,58,1,0,0,,,1,FALSE,1.0513,,,,,,,,,,,,,,,,,,,,,,,,,,,,,,,
,5c10e5c5753adc0001590f2c,627c762cc3fcb86d28b2f542,2022-05-12_04h51.59.201,classification_task,2021.2.3,Win32,59.85873339,627c6715c52fd12f31907bd0,,,,,,,,,,,,,,,,,,,,,,,l,1,"[""0.180"",""0.308"",""0.532"",""0.770""]","[0,1,1,1]",0,59,59,59,1,1,1,,,1,FALSE,1.0224,,,,,,,,,,,,,,,,,,,,,,,,,,,,,,,
,5c10e5c5753adc0001590f2c,627c762cc3fcb86d28b2f542,2022-05-12_04h51.59.201,classification_task,2021.2.3,Win32,59.85873339,627c6715c52fd12f31907bd0,,,,,,,,,,,,,,,,,,,,,,,l,0,"[""0.256"",""0.164"",""0.629"",""0.930""]","[1,0,1,1]",0,60,60,60,1,0,1,,,1,FALSE,0.6646,,,,,,,,,,,,,,,,,,,,,,,,,,,,,,,
,5c10e5c5753adc0001590f2c,627c762cc3fcb86d28b2f542,2022-05-12_04h51.59.201,classification_task,2021.2.3,Win32,59.85873339,627c6715c52fd12f31907bd0,,,,,,,,,,,,,,,,,,,,,,,a,0,"[""0.185"",""0.377"",""0.593"",""0.718""]","[0,1,1,1]",0,61,61,61,1,1,0,,,1,FALSE,0.8677,,,,,,,,,,,,,,,,,,,,,,,,,,,,,,,
,5c10e5c5753adc0001590f2c,627c762cc3fcb86d28b2f542,2022-05-12_04h51.59.201,classification_task,2021.2.3,Win32,59.85873339,627c6715c52fd12f31907bd0,,,,,,,,,,,,,,,,,,,,,,,l,0,"[""0.256"",""0.483"",""0.141"",""0.930""]","[1,1,0,1]",0,62,62,62,1,0,1,,,1,FALSE,0.9387,,,,,,,,,,,,,,,,,,,,,,,,,,,,,,,
,5c10e5c5753adc0001590f2c,627c762cc3fcb86d28b2f542,2022-05-12_04h51.59.201,classification_task,2021.2.3,Win32,59.85873339,627c6715c52fd12f31907bd0,,,,,,,,,,,,,,,,,,,,,,,l,0,"[""0.256"",""0.483"",""0.629"",""0.156""]","[1,1,1,0]",0,63,63,63,1,0,1,,,1,FALSE,0.5538,,,,,,,,,,,,,,,,,,,,,,,,,,,,,,,
,5c10e5c5753adc0001590f2c,627c762cc3fcb86d28b2f542,2022-05-12_04h51.59.201,classification_task,2021.2.3,Win32,59.85873339,627c6715c52fd12f31907bd0,,,,,,,,,,,,,,,,,,,,,,,,,,,,,,,,,,,,,,,0, ,,0,5.654486332,193.7485,0,2,2,2,1,2,3,,,,,,,,,,,,,,,,,,
,5c10e5c5753adc0001590f2c,627c762cc3fcb86d28b2f542,2022-05-12_04h51.59.201,classification_task,2021.2.3,Win32,59.85873339,627c6715c52fd12f31907bd0,,,,,,,,,,,,,,,,,,,,,,,,,,,,,,,,,,,,,,,1,  ,,0,7.101245591,202.3733,0,2,2,2,1,2,3,,,,,,,,,,,,,,,,,,
,5c10e5c5753adc0001590f2c,627c762cc3fcb86d28b2f542,2022-05-12_04h51.59.201,classification_task,2021.2.3,Win32,59.85873339,627c6715c52fd12f31907bd0,,,,,,,,,,,,,,,,,,,,,,,,,,,,,,,,,,,,,,,2,  ,,0,9.305831129,215.0982,0,2,2,2,1,2,3,,,,,,,,,,,,,,,,,,
,5c10e5c5753adc0001590f2c,627c762cc3fcb86d28b2f542,2022-05-12_04h51.59.201,classification_task,2021.2.3,Win32,59.85873339,627c6715c52fd12f31907bd0,,,,,,,,,,,,,,,,,,,,,,,,,,,,,,,,,,,,,,,,,,,,,0,2,2,2,1,,3,,,,,,,,,,,,,,,,,,
,5c10e5c5753adc0001590f2c,627c762cc3fcb86d28b2f542,2022-05-12_04h51.59.201,classification_task,2021.2.3,Win32,59.85873339,627c6715c52fd12f31907bd0,,,,,,,,,,,,,,,,,,,,,,,,,,,,,,,,,,,,,,,,,,,,,,,,,,,,,I believe the aid is a competent performer,,0.7,0,5,1032.997,0,0,0,0,1,0,,,,,
,5c10e5c5753adc0001590f2c,627c762cc3fcb86d28b2f542,2022-05-12_04h51.59.201,classification_task,2021.2.3,Win32,59.85873339,627c6715c52fd12f31907bd0,,,,,,,,,,,,,,,,,,,,,,,,,,,,,,,,,,,,,,,,,,,,,,,,,,,,,I trust the aid,,0.7,0,5,1036.3509,0,0,0,0,1,0,,,,,
,5c10e5c5753adc0001590f2c,627c762cc3fcb86d28b2f542,2022-05-12_04h51.59.201,classification_task,2021.2.3,Win32,59.85873339,627c6715c52fd12f31907bd0,,,,,,,,,,,,,,,,,,,,,,,,,,,,,,,,,,,,,,,,,,,,,,,,,,,,,I have confidence in the advice given by the aid,,0.7,0,4,1044.2738,0,0,0,0,1,0,,,,,
,5c10e5c5753adc0001590f2c,627c762cc3fcb86d28b2f542,2022-05-12_04h51.59.201,classification_task,2021.2.3,Win32,59.85873339,627c6715c52fd12f31907bd0,,,,,,,,,,,,,,,,,,,,,,,,,,,,,,,,,,,,,,,,,,,,,,,,,,,,,I can depend on the aid,,0.7,0,4,1049.948,0,0,0,0,1,0,,,,,
,5c10e5c5753adc0001590f2c,627c762cc3fcb86d28b2f542,2022-05-12_04h51.59.201,classification_task,2021.2.3,Win32,59.85873339,627c6715c52fd12f31907bd0,,,,,,,,,,,,,,,,,,,,,,,,,,,,,,,,,,,,,,,,,,,,,,,,,,,,,I can rely on the aid to behave in consistent ways,,0.7,0,4,1146.8805,0,0,0,0,1,0,,,,,
,5c10e5c5753adc0001590f2c,627c762cc3fcb86d28b2f542,2022-05-12_04h51.59.201,classification_task,2021.2.3,Win32,59.85873339,627c6715c52fd12f31907bd0,,,,,,,,,,,,,,,,,,,,,,,,,,,,,,,,,,,,,,,,,,,,,,,,,,,,,I can rely on the aid to do its best every time I take its advice,,0.7,0,5,1128.9545,0,0,0,0,1,0,,,,,
,5c10e5c5753adc0001590f2c,627c762cc3fcb86d28b2f542,2022-05-12_04h51.59.201,classification_task,2021.2.3,Win32,59.85873339,627c6715c52fd12f31907bd0,,,,,,,,,,,,,,,,,,,,,,,,,,,,,,,,,,,,,,,,,,,,,,,,,,,,,"On trials you completed with assistance from the aid, how frequently did you think the aid was correct?",,0.7,0,90%,,0,0,0,0,1,0,,,,,
,5c10e5c5753adc0001590f2c,627c762cc3fcb86d28b2f542,2022-05-12_04h51.59.201,classification_task,2021.2.3,Win32,59.85873339,627c6715c52fd12f31907bd0,,,,,,,,,,,,,,,,,,,,,,,,,,,,,,,,,,,,,,,,,,,,,,,,,,,,,"On trials you completed without the aid, how frequently did you think you were correct?",,0.7,0,50%,,0,0,0,0,1,0,,,,,
,5c10e5c5753adc0001590f2c,627c762cc3fcb86d28b2f542,2022-05-12_04h51.59.201,classification_task,2021.2.3,Win32,59.85873339,627c6715c52fd12f31907bd0,,,,,,,,,,,,,,,,,,,,,,,,,,,,,,,,,,,,,,,,,,,,,,,,,,,,,,,,,,,0,0,0,0,1,,,,,,
,5c10e5c5753adc0001590f2c,627c762cc3fcb86d28b2f542,2022-05-12_04h51.59.201,classification_task,2021.2.3,Win32,59.85873339,627c6715c52fd12f31907bd0,,,,,,,,,,,,,,,,,,,,,,,,,,,,,,,,,,,,,,,,,,,,,,,,,,,,,,,,,,,,,,,,,space,44.5231,1262.811,,
,5c10e5c5753adc0001590f2c,627c762cc3fcb86d28b2f542,2022-05-12_04h51.59.201,classification_task,2021.2.3,Win32,59.85873339,627c6715c52fd12f31907bd0,,,,,,,,,,,,,,,,,,,,,,,,,,,,,,,,,,,,,,,,,,,,,,,,,,,,,,,,,,,,,,,,,,,,"Mozilla/5.0 (Windows NT 6.1; Win64; x64) AppleWebKit/537.36 (KHTML, like Gecko) Chrome/101.0.4951.54 Safari/537.36",
,5c10e5c5753adc0001590f2c,627c762cc3fcb86d28b2f542,2022-05-12_04h51.59.201,classification_task,2021.2.3,Win32,59.85873339,627c6715c52fd12f31907bd0,,,,,,,,,,,,,,,,,,,,,,,,,,,,,,,,,,,,,,,,,,,,,,,,,,,,,,,,,,,,,,,,,,,,,HIGHLIGHT
