usingWebGL,participant,session,date,expName,psychopyVersion,OS,frameRate,study_id,signatures_friend,signatures_foe,band_ranges_top,band_ranges_bottom,formitemText,formtype,formundefined,formitemWidth,formindex,formresponse,formrt,key_resp_2.keys,key_resp_2.rt,tute_resp.keys,tute_resp.rt,tutorial.thisRepN,tutorial.thisTrialN,tutorial.thisN,tutorial.thisIndex,tutorial.ran,key_resp_4.keys,key_resp_4.rt,key_resp.keys,key_resp.corr,key_resp.rt,lines_presented,is_signal_presented,trials.thisRepN,trials.thisTrialN,trials.thisN,trials.thisIndex,trials.ran,vessel,active_band,lines,is_signal,supported_pos,catch_trial,debrief_formindex,debrief_formitemText,debrief_formtype,debrief_formitemWidth,debrief_formresponse,debrief_formrt,phases.thisRepN,phases.thisTrialN,phases.thisN,phases.thisIndex,phases.ran,phases.order,phase,key_resp_3.keys,trustitemText,trusttype,trustitemWidth,trustindex,trustresponse,trustrt,support_status.thisRepN,support_status.thisTrialN,support_status.thisN,support_status.thisIndex,support_status.ran,support_status.order,key_resp_5.keys,key_resp_5.rt,globalClockTime,userAgent,manualCondition
TRUE,5c31fdbafe0b5000012474e5,627c704acd775c2bfef48fa4,2022-05-12_03h27.57.299,classification_task,2021.2.3,Win32,59.95203837,627c6715c52fd12f31907bd0,,,,,,,,,,,,,,,,,,,,,,,,,,,,,,,,,,,,,,,,,,,,,,,,,,,,,,,,,,,,,,,,,,,,,
,5c31fdbafe0b5000012474e5,627c704acd775c2bfef48fa4,2022-05-12_03h27.57.299,classification_task,2021.2.3,Win32,59.95203837,627c6715c52fd12f31907bd0,"[[""0.163"",""0.481"",""0.616"",""0.947""],[""0.246"",""0.353"",""0.696"",""0.904""]]","[[""0.059"",""0.201"",""0.436"",""0.758""],[""0.106"",""0.301"",""0.544"",""0.836""]]","[1,10]","[100,1000]",Video game experience,,,0.7,0,,,,,,,,,,,,,,,,,,,,,,,,,,,,,,,,,,,,,,,,,,,,,,,,,,,,,,,,,,,,
,5c31fdbafe0b5000012474e5,627c704acd775c2bfef48fa4,2022-05-12_03h27.57.299,classification_task,2021.2.3,Win32,59.95203837,627c6715c52fd12f31907bd0,,,,,Approximately how many hours did you spend playing video games in the last week?,,,0.7,0,14,,,,,,,,,,,,,,,,,,,,,,,,,,,,,,,,,,,,,,,,,,,,,,,,,,,,,,,,,,,
,5c31fdbafe0b5000012474e5,627c704acd775c2bfef48fa4,2022-05-12_03h27.57.299,classification_task,2021.2.3,Win32,59.95203837,627c6715c52fd12f31907bd0,,,,,"Which game did you play the most this year? (Enter ""None"" if you didn't play any)",,,0.7,0,Mafia City,,,,,,,,,,,,,,,,,,,,,,,,,,,,,,,,,,,,,,,,,,,,,,,,,,,,,,,,,,,
,5c31fdbafe0b5000012474e5,627c704acd775c2bfef48fa4,2022-05-12_03h27.57.299,classification_task,2021.2.3,Win32,59.95203837,627c6715c52fd12f31907bd0,,,,,Visual perception,,,0.7,0,,,,,,,,,,,,,,,,,,,,,,,,,,,,,,,,,,,,,,,,,,,,,,,,,,,,,,,,,,,,
,5c31fdbafe0b5000012474e5,627c704acd775c2bfef48fa4,2022-05-12_03h27.57.299,classification_task,2021.2.3,Win32,59.95203837,627c6715c52fd12f31907bd0,,,,,Do you have any form of color blindness?,,,0.7,0,No,45.6385,,,,,,,,,,,,,,,,,,,,,,,,,,,,,,,,,,,,,,,,,,,,,,,,,,,,,,,,,,
,5c31fdbafe0b5000012474e5,627c704acd775c2bfef48fa4,2022-05-12_03h27.57.299,classification_task,2021.2.3,Win32,59.95203837,627c6715c52fd12f31907bd0,,,,,Do you use software to change the colour temperature of your screen (e.g. f.lux)?,,,0.7,0,No,49.0118,,,,,,,,,,,,,,,,,,,,,,,,,,,,,,,,,,,,,,,,,,,,,,,,,,,,,,,,,,
,5c31fdbafe0b5000012474e5,627c704acd775c2bfef48fa4,2022-05-12_03h27.57.299,classification_task,2021.2.3,Win32,59.95203837,627c6715c52fd12f31907bd0,,,,,,,,,,,,space,25.842,space,10.2567,0,0,0,0,1,,,,,,,,,,,,,,,,,,,,,,,,,,,,,,,,,,,,,,,,,,,,,,,,,
,5c31fdbafe0b5000012474e5,627c704acd775c2bfef48fa4,2022-05-12_03h27.57.299,classification_task,2021.2.3,Win32,59.95203837,627c6715c52fd12f31907bd0,,,,,,,,,,,,,,space,13.7597,1,0,1,0,1,,,,,,,,,,,,,,,,,,,,,,,,,,,,,,,,,,,,,,,,,,,,,,,,,
,5c31fdbafe0b5000012474e5,627c704acd775c2bfef48fa4,2022-05-12_03h27.57.299,classification_task,2021.2.3,Win32,59.95203837,627c6715c52fd12f31907bd0,,,,,,,,,,,,,,space,19.8996,2,0,2,0,1,,,,,,,,,,,,,,,,,,,,,,,,,,,,,,,,,,,,,,,,,,,,,,,,,
,5c31fdbafe0b5000012474e5,627c704acd775c2bfef48fa4,2022-05-12_03h27.57.299,classification_task,2021.2.3,Win32,59.95203837,627c6715c52fd12f31907bd0,,,,,,,,,,,,,,space,18.4142,3,0,3,0,1,,,,,,,,,,,,,,,,,,,,,,,,,,,,,,,,,,,,,,,,,,,,,,,,,
,5c31fdbafe0b5000012474e5,627c704acd775c2bfef48fa4,2022-05-12_03h27.57.299,classification_task,2021.2.3,Win32,59.95203837,627c6715c52fd12f31907bd0,,,,,,,,,,,,,,space,27.8198,4,0,4,0,1,,,,,,,,,,,,,,,,,,,,,,,,,,,,,,,,,,,,,,,,,,,,,,,,,
,5c31fdbafe0b5000012474e5,627c704acd775c2bfef48fa4,2022-05-12_03h27.57.299,classification_task,2021.2.3,Win32,59.95203837,627c6715c52fd12f31907bd0,,,,,,,,,,,,,,,,,,,,,space,14.6612,l,1,4.1545,"[""0.106"",""0.301"",""0.390"",""0.836""]","[1,1,0,1]",0,0,0,0,1,1,1,,,0,FALSE,,,,,,,,,,,,,,,,,,,,,,,,,,,,,,,
,5c31fdbafe0b5000012474e5,627c704acd775c2bfef48fa4,2022-05-12_03h27.57.299,classification_task,2021.2.3,Win32,59.95203837,627c6715c52fd12f31907bd0,,,,,,,,,,,,,,,,,,,,,,,l,1,2.7462,"[""0.059"",""0.201"",""0.025"",""0.758""]","[1,1,0,1]",0,1,1,1,1,1,0,,,0,FALSE,,,,,,,,,,,,,,,,,,,,,,,,,,,,,,,
,5c31fdbafe0b5000012474e5,627c704acd775c2bfef48fa4,2022-05-12_03h27.57.299,classification_task,2021.2.3,Win32,59.95203837,627c6715c52fd12f31907bd0,,,,,,,,,,,,,,,,,,,,,,,l,1,3.4067,"[""0.579"",""0.301"",""0.544"",""0.836""]","[0,1,1,1]",0,2,2,2,1,1,1,,,0,FALSE,,,,,,,,,,,,,,,,,,,,,,,,,,,,,,,
,5c31fdbafe0b5000012474e5,627c704acd775c2bfef48fa4,2022-05-12_03h27.57.299,classification_task,2021.2.3,Win32,59.95203837,627c6715c52fd12f31907bd0,,,,,,,,,,,,,,,,,,,,,,,l,0,2.8732,"[""0.163"",""0.481"",""0.616"",""0.389""]","[1,1,1,0]",0,3,3,3,1,0,0,,,0,FALSE,,,,,,,,,,,,,,,,,,,,,,,,,,,,,,,
,5c31fdbafe0b5000012474e5,627c704acd775c2bfef48fa4,2022-05-12_03h27.57.299,classification_task,2021.2.3,Win32,59.95203837,627c6715c52fd12f31907bd0,,,,,,,,,,,,,,,,,,,,,,,l,1,4.9477,"[""0.059"",""0.201"",""0.436"",""0.390""]","[1,1,1,0]",0,4,4,4,1,1,0,,,0,FALSE,,,,,,,,,,,,,,,,,,,,,,,,,,,,,,,
,5c31fdbafe0b5000012474e5,627c704acd775c2bfef48fa4,2022-05-12_03h27.57.299,classification_task,2021.2.3,Win32,59.95203837,627c6715c52fd12f31907bd0,,,,,,,,,,,,,,,,,,,,,,,l,0,2.3748,"[""0.654"",""0.481"",""0.616"",""0.947""]","[0,1,1,1]",0,5,5,5,1,0,0,,,0,FALSE,,,,,,,,,,,,,,,,,,,,,,,,,,,,,,,
,5c31fdbafe0b5000012474e5,627c704acd775c2bfef48fa4,2022-05-12_03h27.57.299,classification_task,2021.2.3,Win32,59.95203837,627c6715c52fd12f31907bd0,,,,,,,,,,,,,,,,,,,,,,,l,1,3.1569,"[""0.106"",""0.301"",""0.544"",""0.579""]","[1,1,1,0]",0,6,6,6,1,1,1,,,0,FALSE,,,,,,,,,,,,,,,,,,,,,,,,,,,,,,,
,5c31fdbafe0b5000012474e5,627c704acd775c2bfef48fa4,2022-05-12_03h27.57.299,classification_task,2021.2.3,Win32,59.95203837,627c6715c52fd12f31907bd0,,,,,,,,,,,,,,,,,,,,,,,l,1,3.7272,"[""0.106"",""0.792"",""0.544"",""0.836""]","[1,0,1,1]",0,7,7,7,1,1,1,,,0,FALSE,,,,,,,,,,,,,,,,,,,,,,,,,,,,,,,
,5c31fdbafe0b5000012474e5,627c704acd775c2bfef48fa4,2022-05-12_03h27.57.299,classification_task,2021.2.3,Win32,59.95203837,627c6715c52fd12f31907bd0,,,,,,,,,,,,,,,,,,,,,,,l,0,5.5626,"[""0.246"",""0.353"",""0.792"",""0.904""]","[1,1,0,1]",0,8,8,8,1,0,1,,,0,FALSE,,,,,,,,,,,,,,,,,,,,,,,,,,,,,,,
,5c31fdbafe0b5000012474e5,627c704acd775c2bfef48fa4,2022-05-12_03h27.57.299,classification_task,2021.2.3,Win32,59.95203837,627c6715c52fd12f31907bd0,,,,,,,,,,,,,,,,,,,,,,,l,0,4.428,"[""0.163"",""0.793"",""0.616"",""0.947""]","[1,0,1,1]",0,9,9,9,1,0,0,,,0,FALSE,,,,,,,,,,,,,,,,,,,,,,,,,,,,,,,
,5c31fdbafe0b5000012474e5,627c704acd775c2bfef48fa4,2022-05-12_03h27.57.299,classification_task,2021.2.3,Win32,59.95203837,627c6715c52fd12f31907bd0,,,,,,,,,,,,,,,,,,,,,,,l,1,2.9084,"[""0.792"",""0.201"",""0.436"",""0.758""]","[0,1,1,1]",0,10,10,10,1,1,0,,,0,FALSE,,,,,,,,,,,,,,,,,,,,,,,,,,,,,,,
,5c31fdbafe0b5000012474e5,627c704acd775c2bfef48fa4,2022-05-12_03h27.57.299,classification_task,2021.2.3,Win32,59.95203837,627c6715c52fd12f31907bd0,,,,,,,,,,,,,,,,,,,,,,,l,0,4.2576,"[""0.246"",""0.654"",""0.696"",""0.904""]","[1,0,1,1]",0,11,11,11,1,0,1,,,0,FALSE,,,,,,,,,,,,,,,,,,,,,,,,,,,,,,,
,5c31fdbafe0b5000012474e5,627c704acd775c2bfef48fa4,2022-05-12_03h27.57.299,classification_task,2021.2.3,Win32,59.95203837,627c6715c52fd12f31907bd0,,,,,,,,,,,,,,,,,,,,,,,l,1,5.5589,"[""0.059"",""0.401"",""0.436"",""0.758""]","[1,0,1,1]",0,12,12,12,1,1,0,,,0,FALSE,,,,,,,,,,,,,,,,,,,,,,,,,,,,,,,
,5c31fdbafe0b5000012474e5,627c704acd775c2bfef48fa4,2022-05-12_03h27.57.299,classification_task,2021.2.3,Win32,59.95203837,627c6715c52fd12f31907bd0,,,,,,,,,,,,,,,,,,,,,,,l,0,3.0065,"[""0.654"",""0.353"",""0.696"",""0.904""]","[0,1,1,1]",0,13,13,13,1,0,1,,,0,FALSE,,,,,,,,,,,,,,,,,,,,,,,,,,,,,,,
,5c31fdbafe0b5000012474e5,627c704acd775c2bfef48fa4,2022-05-12_03h27.57.299,classification_task,2021.2.3,Win32,59.95203837,627c6715c52fd12f31907bd0,,,,,,,,,,,,,,,,,,,,,,,l,0,3.2093,"[""0.246"",""0.353"",""0.696"",""0.799""]","[1,1,1,0]",0,14,14,14,1,0,1,,,0,FALSE,,,,,,,,,,,,,,,,,,,,,,,,,,,,,,,
,5c31fdbafe0b5000012474e5,627c704acd775c2bfef48fa4,2022-05-12_03h27.57.299,classification_task,2021.2.3,Win32,59.95203837,627c6715c52fd12f31907bd0,,,,,,,,,,,,,,,,,,,,,,,a,1,5.2582,"[""0.163"",""0.481"",""0.398"",""0.947""]","[1,1,0,1]",0,15,15,15,1,0,0,,,0,FALSE,,,,,,,,,,,,,,,,,,,,,,,,,,,,,,,
,5c31fdbafe0b5000012474e5,627c704acd775c2bfef48fa4,2022-05-12_03h27.57.299,classification_task,2021.2.3,Win32,59.95203837,627c6715c52fd12f31907bd0,,,,,,,,,,,,,,,,,,,,,,,a,0,3.5943,"[""0.106"",""0.301"",""0.544"",""0.025""]","[1,1,1,0]",0,16,16,16,1,1,1,,,0,FALSE,,,,,,,,,,,,,,,,,,,,,,,,,,,,,,,
,5c31fdbafe0b5000012474e5,627c704acd775c2bfef48fa4,2022-05-12_03h27.57.299,classification_task,2021.2.3,Win32,59.95203837,627c6715c52fd12f31907bd0,,,,,,,,,,,,,,,,,,,,,,,a,0,3.4251,"[""0.793"",""0.301"",""0.544"",""0.836""]","[0,1,1,1]",0,17,17,17,1,1,1,,,0,FALSE,,,,,,,,,,,,,,,,,,,,,,,,,,,,,,,
,5c31fdbafe0b5000012474e5,627c704acd775c2bfef48fa4,2022-05-12_03h27.57.299,classification_task,2021.2.3,Win32,59.95203837,627c6715c52fd12f31907bd0,,,,,,,,,,,,,,,,,,,,,,,l,0,3.0609,"[""0.163"",""0.481"",""0.616"",""0.793""]","[1,1,1,0]",0,18,18,18,1,0,0,,,0,FALSE,,,,,,,,,,,,,,,,,,,,,,,,,,,,,,,
,5c31fdbafe0b5000012474e5,627c704acd775c2bfef48fa4,2022-05-12_03h27.57.299,classification_task,2021.2.3,Win32,59.95203837,627c6715c52fd12f31907bd0,,,,,,,,,,,,,,,,,,,,,,,l,1,7.4305,"[""0.059"",""0.201"",""0.436"",""0.793""]","[1,1,1,0]",0,19,19,19,1,1,0,,,0,FALSE,,,,,,,,,,,,,,,,,,,,,,,,,,,,,,,
,5c31fdbafe0b5000012474e5,627c704acd775c2bfef48fa4,2022-05-12_03h27.57.299,classification_task,2021.2.3,Win32,59.95203837,627c6715c52fd12f31907bd0,,,,,,,,,,,,,,,,,,,,,,,a,0,5.4796,"[""0.870"",""0.201"",""0.436"",""0.758""]","[0,1,1,1]",0,20,20,20,1,1,0,,,0,FALSE,,,,,,,,,,,,,,,,,,,,,,,,,,,,,,,
,5c31fdbafe0b5000012474e5,627c704acd775c2bfef48fa4,2022-05-12_03h27.57.299,classification_task,2021.2.3,Win32,59.95203837,627c6715c52fd12f31907bd0,,,,,,,,,,,,,,,,,,,,,,,a,1,2.1599,"[""0.163"",""0.654"",""0.616"",""0.947""]","[1,0,1,1]",0,21,21,21,1,0,0,,,0,FALSE,,,,,,,,,,,,,,,,,,,,,,,,,,,,,,,
,5c31fdbafe0b5000012474e5,627c704acd775c2bfef48fa4,2022-05-12_03h27.57.299,classification_task,2021.2.3,Win32,59.95203837,627c6715c52fd12f31907bd0,,,,,,,,,,,,,,,,,,,,,,,a,0,1.5038,"[""0.059"",""0.401"",""0.436"",""0.758""]","[1,0,1,1]",0,22,22,22,1,1,0,,,0,FALSE,,,,,,,,,,,,,,,,,,,,,,,,,,,,,,,
,5c31fdbafe0b5000012474e5,627c704acd775c2bfef48fa4,2022-05-12_03h27.57.299,classification_task,2021.2.3,Win32,59.95203837,627c6715c52fd12f31907bd0,,,,,,,,,,,,,,,,,,,,,,,a,1,2.2711,"[""0.246"",""0.401"",""0.696"",""0.904""]","[1,0,1,1]",0,23,23,23,1,0,1,,,0,FALSE,,,,,,,,,,,,,,,,,,,,,,,,,,,,,,,
,5c31fdbafe0b5000012474e5,627c704acd775c2bfef48fa4,2022-05-12_03h27.57.299,classification_task,2021.2.3,Win32,59.95203837,627c6715c52fd12f31907bd0,,,,,,,,,,,,,,,,,,,,,,,l,0,1.5673,"[""0.654"",""0.481"",""0.616"",""0.947""]","[0,1,1,1]",0,24,24,24,1,0,0,,,0,FALSE,,,,,,,,,,,,,,,,,,,,,,,,,,,,,,,
,5c31fdbafe0b5000012474e5,627c704acd775c2bfef48fa4,2022-05-12_03h27.57.299,classification_task,2021.2.3,Win32,59.95203837,627c6715c52fd12f31907bd0,,,,,,,,,,,,,,,,,,,,,,,l,0,3.9752,"[""0.579"",""0.353"",""0.696"",""0.904""]","[0,1,1,1]",0,25,25,25,1,0,1,,,0,FALSE,,,,,,,,,,,,,,,,,,,,,,,,,,,,,,,
,5c31fdbafe0b5000012474e5,627c704acd775c2bfef48fa4,2022-05-12_03h27.57.299,classification_task,2021.2.3,Win32,59.95203837,627c6715c52fd12f31907bd0,,,,,,,,,,,,,,,,,,,,,,,l,0,3.7266,"[""0.163"",""0.481"",""0.388"",""0.947""]","[1,1,0,1]",0,26,26,26,1,0,0,,,0,FALSE,,,,,,,,,,,,,,,,,,,,,,,,,,,,,,,
,5c31fdbafe0b5000012474e5,627c704acd775c2bfef48fa4,2022-05-12_03h27.57.299,classification_task,2021.2.3,Win32,59.95203837,627c6715c52fd12f31907bd0,,,,,,,,,,,,,,,,,,,,,,,l,1,2.9546,"[""0.106"",""0.301"",""0.401"",""0.836""]","[1,1,0,1]",0,27,27,27,1,1,1,,,0,FALSE,,,,,,,,,,,,,,,,,,,,,,,,,,,,,,,
,5c31fdbafe0b5000012474e5,627c704acd775c2bfef48fa4,2022-05-12_03h27.57.299,classification_task,2021.2.3,Win32,59.95203837,627c6715c52fd12f31907bd0,,,,,,,,,,,,,,,,,,,,,,,a,0,3.8255,"[""0.106"",""0.400"",""0.544"",""0.836""]","[1,0,1,1]",0,28,28,28,1,1,1,,,0,FALSE,,,,,,,,,,,,,,,,,,,,,,,,,,,,,,,
,5c31fdbafe0b5000012474e5,627c704acd775c2bfef48fa4,2022-05-12_03h27.57.299,classification_task,2021.2.3,Win32,59.95203837,627c6715c52fd12f31907bd0,,,,,,,,,,,,,,,,,,,,,,,a,1,1.0111,"[""0.246"",""0.353"",""0.696"",""0.870""]","[1,1,1,0]",0,29,29,29,1,0,1,,,0,FALSE,,,,,,,,,,,,,,,,,,,,,,,,,,,,,,,
,5c31fdbafe0b5000012474e5,627c704acd775c2bfef48fa4,2022-05-12_03h27.57.299,classification_task,2021.2.3,Win32,59.95203837,627c6715c52fd12f31907bd0,,,,,,,,,,,,,,,,,,,,,,,a,1,1.4861,"[""0.246"",""0.353"",""0.654"",""0.904""]","[1,1,0,1]",0,30,30,30,1,0,1,,,0,FALSE,,,,,,,,,,,,,,,,,,,,,,,,,,,,,,,
,5c31fdbafe0b5000012474e5,627c704acd775c2bfef48fa4,2022-05-12_03h27.57.299,classification_task,2021.2.3,Win32,59.95203837,627c6715c52fd12f31907bd0,,,,,,,,,,,,,,,,,,,,,,,l,1,1.6152,"[""0.059"",""0.201"",""0.401"",""0.758""]","[1,1,0,1]",0,31,31,31,1,1,0,,,0,FALSE,,,,,,,,,,,,,,,,,,,,,,,,,,,,,,,
,5c31fdbafe0b5000012474e5,627c704acd775c2bfef48fa4,2022-05-12_03h27.57.299,classification_task,2021.2.3,Win32,59.95203837,627c6715c52fd12f31907bd0,,,,,,,,,,,,,,,,,,,,,,,a,0,1.0703,"[""0.059"",""0.201"",""0.436"",""0.400""]","[1,1,1,0]",0,32,32,32,1,1,0,,,0,FALSE,,,,,,,,,,,,,,,,,,,,,,,,,,,,,,,
,5c31fdbafe0b5000012474e5,627c704acd775c2bfef48fa4,2022-05-12_03h27.57.299,classification_task,2021.2.3,Win32,59.95203837,627c6715c52fd12f31907bd0,,,,,,,,,,,,,,,,,,,,,,,a,1,1.3837,"[""0.163"",""0.481"",""0.579"",""0.947""]","[1,1,0,1]",0,33,33,33,1,0,0,,,0,FALSE,,,,,,,,,,,,,,,,,,,,,,,,,,,,,,,
,5c31fdbafe0b5000012474e5,627c704acd775c2bfef48fa4,2022-05-12_03h27.57.299,classification_task,2021.2.3,Win32,59.95203837,627c6715c52fd12f31907bd0,,,,,,,,,,,,,,,,,,,,,,,a,0,1.442,"[""0.401"",""0.301"",""0.544"",""0.836""]","[0,1,1,1]",0,34,34,34,1,1,1,,,0,FALSE,,,,,,,,,,,,,,,,,,,,,,,,,,,,,,,
,5c31fdbafe0b5000012474e5,627c704acd775c2bfef48fa4,2022-05-12_03h27.57.299,classification_task,2021.2.3,Win32,59.95203837,627c6715c52fd12f31907bd0,,,,,,,,,,,,,,,,,,,,,,,l,0,1.5991,"[""0.579"",""0.353"",""0.696"",""0.904""]","[0,1,1,1]",0,35,35,35,1,0,1,,,0,FALSE,,,,,,,,,,,,,,,,,,,,,,,,,,,,,,,
,5c31fdbafe0b5000012474e5,627c704acd775c2bfef48fa4,2022-05-12_03h27.57.299,classification_task,2021.2.3,Win32,59.95203837,627c6715c52fd12f31907bd0,,,,,,,,,,,,,,,,,,,,,,,l,0,2.2166,"[""0.246"",""0.792"",""0.696"",""0.904""]","[1,0,1,1]",0,36,36,36,1,0,1,,,0,FALSE,,,,,,,,,,,,,,,,,,,,,,,,,,,,,,,
,5c31fdbafe0b5000012474e5,627c704acd775c2bfef48fa4,2022-05-12_03h27.57.299,classification_task,2021.2.3,Win32,59.95203837,627c6715c52fd12f31907bd0,,,,,,,,,,,,,,,,,,,,,,,l,1,1.8581,"[""0.059"",""0.201"",""0.659"",""0.758""]","[1,1,0,1]",0,37,37,37,1,1,0,,,0,FALSE,,,,,,,,,,,,,,,,,,,,,,,,,,,,,,,
,5c31fdbafe0b5000012474e5,627c704acd775c2bfef48fa4,2022-05-12_03h27.57.299,classification_task,2021.2.3,Win32,59.95203837,627c6715c52fd12f31907bd0,,,,,,,,,,,,,,,,,,,,,,,a,0,1.7978,"[""0.106"",""0.301"",""0.544"",""0.398""]","[1,1,1,0]",0,38,38,38,1,1,1,,,0,FALSE,,,,,,,,,,,,,,,,,,,,,,,,,,,,,,,
,5c31fdbafe0b5000012474e5,627c704acd775c2bfef48fa4,2022-05-12_03h27.57.299,classification_task,2021.2.3,Win32,59.95203837,627c6715c52fd12f31907bd0,,,,,,,,,,,,,,,,,,,,,,,a,1,1.0549,"[""0.246"",""0.353"",""0.870"",""0.904""]","[1,1,0,1]",0,39,39,39,1,0,1,,,0,FALSE,,,,,,,,,,,,,,,,,,,,,,,,,,,,,,,
,5c31fdbafe0b5000012474e5,627c704acd775c2bfef48fa4,2022-05-12_03h27.57.299,classification_task,2021.2.3,Win32,59.95203837,627c6715c52fd12f31907bd0,,,,,,,,,,,,,,,,,,,,,,,a,0,1.2349,"[""0.059"",""0.389"",""0.436"",""0.758""]","[1,0,1,1]",0,40,40,40,1,1,0,,,0,FALSE,,,,,,,,,,,,,,,,,,,,,,,,,,,,,,,
,5c31fdbafe0b5000012474e5,627c704acd775c2bfef48fa4,2022-05-12_03h27.57.299,classification_task,2021.2.3,Win32,59.95203837,627c6715c52fd12f31907bd0,,,,,,,,,,,,,,,,,,,,,,,l,0,1.8325,"[""0.163"",""0.579"",""0.616"",""0.947""]","[1,0,1,1]",0,41,41,41,1,0,0,,,0,FALSE,,,,,,,,,,,,,,,,,,,,,,,,,,,,,,,
,5c31fdbafe0b5000012474e5,627c704acd775c2bfef48fa4,2022-05-12_03h27.57.299,classification_task,2021.2.3,Win32,59.95203837,627c6715c52fd12f31907bd0,,,,,,,,,,,,,,,,,,,,,,,a,0,7.3368,"[""0.106"",""0.398"",""0.544"",""0.836""]","[1,0,1,1]",0,42,42,42,1,1,1,,,0,FALSE,,,,,,,,,,,,,,,,,,,,,,,,,,,,,,,
,5c31fdbafe0b5000012474e5,627c704acd775c2bfef48fa4,2022-05-12_03h27.57.299,classification_task,2021.2.3,Win32,59.95203837,627c6715c52fd12f31907bd0,,,,,,,,,,,,,,,,,,,,,,,a,1,1.4167,"[""0.659"",""0.481"",""0.616"",""0.947""]","[0,1,1,1]",0,43,43,43,1,0,0,,,0,FALSE,,,,,,,,,,,,,,,,,,,,,,,,,,,,,,,
,5c31fdbafe0b5000012474e5,627c704acd775c2bfef48fa4,2022-05-12_03h27.57.299,classification_task,2021.2.3,Win32,59.95203837,627c6715c52fd12f31907bd0,,,,,,,,,,,,,,,,,,,,,,,a,1,2.4843,"[""0.246"",""0.353"",""0.696"",""0.025""]","[1,1,1,0]",0,44,44,44,1,0,1,,,0,FALSE,,,,,,,,,,,,,,,,,,,,,,,,,,,,,,,
,5c31fdbafe0b5000012474e5,627c704acd775c2bfef48fa4,2022-05-12_03h27.57.299,classification_task,2021.2.3,Win32,59.95203837,627c6715c52fd12f31907bd0,,,,,,,,,,,,,,,,,,,,,,,l,1,2.3399,"[""0.389"",""0.201"",""0.436"",""0.758""]","[0,1,1,1]",0,45,45,45,1,1,0,,,0,FALSE,,,,,,,,,,,,,,,,,,,,,,,,,,,,,,,
,5c31fdbafe0b5000012474e5,627c704acd775c2bfef48fa4,2022-05-12_03h27.57.299,classification_task,2021.2.3,Win32,59.95203837,627c6715c52fd12f31907bd0,,,,,,,,,,,,,,,,,,,,,,,l,0,2.5357,"[""0.163"",""0.481"",""0.616"",""0.025""]","[1,1,1,0]",0,46,46,46,1,0,0,,,0,FALSE,,,,,,,,,,,,,,,,,,,,,,,,,,,,,,,
,5c31fdbafe0b5000012474e5,627c704acd775c2bfef48fa4,2022-05-12_03h27.57.299,classification_task,2021.2.3,Win32,59.95203837,627c6715c52fd12f31907bd0,,,,,,,,,,,,,,,,,,,,,,,a,0,2.0343,"[""0.106"",""0.301"",""0.654"",""0.836""]","[1,1,0,1]",0,47,47,47,1,1,1,,,0,FALSE,,,,,,,,,,,,,,,,,,,,,,,,,,,,,,,
,5c31fdbafe0b5000012474e5,627c704acd775c2bfef48fa4,2022-05-12_03h27.57.299,classification_task,2021.2.3,Win32,59.95203837,627c6715c52fd12f31907bd0,,,,,,,,,,,,,,,,,,,,,,,a,0,3.5506,"[""0.106"",""0.301"",""0.544"",""0.870""]","[1,1,1,0]",0,48,48,48,1,1,1,,,0,FALSE,,,,,,,,,,,,,,,,,,,,,,,,,,,,,,,
,5c31fdbafe0b5000012474e5,627c704acd775c2bfef48fa4,2022-05-12_03h27.57.299,classification_task,2021.2.3,Win32,59.95203837,627c6715c52fd12f31907bd0,,,,,,,,,,,,,,,,,,,,,,,a,1,1.9198,"[""0.025"",""0.481"",""0.616"",""0.947""]","[0,1,1,1]",0,49,49,49,1,0,0,,,0,FALSE,,,,,,,,,,,,,,,,,,,,,,,,,,,,,,,
,5c31fdbafe0b5000012474e5,627c704acd775c2bfef48fa4,2022-05-12_03h27.57.299,classification_task,2021.2.3,Win32,59.95203837,627c6715c52fd12f31907bd0,,,,,,,,,,,,,,,,,,,,,,,a,0,2.8011,"[""0.106"",""0.388"",""0.544"",""0.836""]","[1,0,1,1]",0,50,50,50,1,1,1,,,0,FALSE,,,,,,,,,,,,,,,,,,,,,,,,,,,,,,,
,5c31fdbafe0b5000012474e5,627c704acd775c2bfef48fa4,2022-05-12_03h27.57.299,classification_task,2021.2.3,Win32,59.95203837,627c6715c52fd12f31907bd0,,,,,,,,,,,,,,,,,,,,,,,a,0,0.8172,"[""0.106"",""0.301"",""0.870"",""0.836""]","[1,1,0,1]",0,51,51,51,1,1,1,,,0,FALSE,,,,,,,,,,,,,,,,,,,,,,,,,,,,,,,
,5c31fdbafe0b5000012474e5,627c704acd775c2bfef48fa4,2022-05-12_03h27.57.299,classification_task,2021.2.3,Win32,59.95203837,627c6715c52fd12f31907bd0,,,,,,,,,,,,,,,,,,,,,,,a,1,3.4332,"[""0.163"",""0.481"",""0.390"",""0.947""]","[1,1,0,1]",0,52,52,52,1,0,0,,,0,FALSE,,,,,,,,,,,,,,,,,,,,,,,,,,,,,,,
,5c31fdbafe0b5000012474e5,627c704acd775c2bfef48fa4,2022-05-12_03h27.57.299,classification_task,2021.2.3,Win32,59.95203837,627c6715c52fd12f31907bd0,,,,,,,,,,,,,,,,,,,,,,,a,0,2.1982,"[""0.579"",""0.301"",""0.544"",""0.836""]","[0,1,1,1]",0,53,53,53,1,1,1,,,0,FALSE,,,,,,,,,,,,,,,,,,,,,,,,,,,,,,,
,5c31fdbafe0b5000012474e5,627c704acd775c2bfef48fa4,2022-05-12_03h27.57.299,classification_task,2021.2.3,Win32,59.95203837,627c6715c52fd12f31907bd0,,,,,,,,,,,,,,,,,,,,,,,l,0,3.4125,"[""0.163"",""0.481"",""0.616"",""0.390""]","[1,1,1,0]",0,54,54,54,1,0,0,,,0,FALSE,,,,,,,,,,,,,,,,,,,,,,,,,,,,,,,
,5c31fdbafe0b5000012474e5,627c704acd775c2bfef48fa4,2022-05-12_03h27.57.299,classification_task,2021.2.3,Win32,59.95203837,627c6715c52fd12f31907bd0,,,,,,,,,,,,,,,,,,,,,,,a,0,1.2018,"[""0.059"",""0.398"",""0.436"",""0.758""]","[1,0,1,1]",0,55,55,55,1,1,0,,,0,FALSE,,,,,,,,,,,,,,,,,,,,,,,,,,,,,,,
,5c31fdbafe0b5000012474e5,627c704acd775c2bfef48fa4,2022-05-12_03h27.57.299,classification_task,2021.2.3,Win32,59.95203837,627c6715c52fd12f31907bd0,,,,,,,,,,,,,,,,,,,,,,,a,0,2.3845,"[""0.659"",""0.201"",""0.436"",""0.758""]","[0,1,1,1]",0,56,56,56,1,1,0,,,0,FALSE,,,,,,,,,,,,,,,,,,,,,,,,,,,,,,,
,5c31fdbafe0b5000012474e5,627c704acd775c2bfef48fa4,2022-05-12_03h27.57.299,classification_task,2021.2.3,Win32,59.95203837,627c6715c52fd12f31907bd0,,,,,,,,,,,,,,,,,,,,,,,a,1,3.1274,"[""0.246"",""0.353"",""0.870"",""0.904""]","[1,1,0,1]",0,57,57,57,1,0,1,,,0,FALSE,,,,,,,,,,,,,,,,,,,,,,,,,,,,,,,
,5c31fdbafe0b5000012474e5,627c704acd775c2bfef48fa4,2022-05-12_03h27.57.299,classification_task,2021.2.3,Win32,59.95203837,627c6715c52fd12f31907bd0,,,,,,,,,,,,,,,,,,,,,,,a,1,2.5941,"[""0.246"",""0.353"",""0.696"",""0.389""]","[1,1,1,0]",0,58,58,58,1,0,1,,,0,FALSE,,,,,,,,,,,,,,,,,,,,,,,,,,,,,,,
,5c31fdbafe0b5000012474e5,627c704acd775c2bfef48fa4,2022-05-12_03h27.57.299,classification_task,2021.2.3,Win32,59.95203837,627c6715c52fd12f31907bd0,,,,,,,,,,,,,,,,,,,,,,,a,0,2.1955,"[""0.059"",""0.201"",""0.436"",""0.400""]","[1,1,1,0]",0,59,59,59,1,1,0,,,0,FALSE,,,,,,,,,,,,,,,,,,,,,,,,,,,,,,,
,5c31fdbafe0b5000012474e5,627c704acd775c2bfef48fa4,2022-05-12_03h27.57.299,classification_task,2021.2.3,Win32,59.95203837,627c6715c52fd12f31907bd0,,,,,,,,,,,,,,,,,,,,,,,a,1,1.3506,"[""0.163"",""0.401"",""0.616"",""0.947""]","[1,0,1,1]",0,60,60,60,1,0,0,,,0,FALSE,,,,,,,,,,,,,,,,,,,,,,,,,,,,,,,
,5c31fdbafe0b5000012474e5,627c704acd775c2bfef48fa4,2022-05-12_03h27.57.299,classification_task,2021.2.3,Win32,59.95203837,627c6715c52fd12f31907bd0,,,,,,,,,,,,,,,,,,,,,,,l,1,3.1169,"[""0.059"",""0.201"",""0.388"",""0.758""]","[1,1,0,1]",0,61,61,61,1,1,0,,,0,FALSE,,,,,,,,,,,,,,,,,,,,,,,,,,,,,,,
,5c31fdbafe0b5000012474e5,627c704acd775c2bfef48fa4,2022-05-12_03h27.57.299,classification_task,2021.2.3,Win32,59.95203837,627c6715c52fd12f31907bd0,,,,,,,,,,,,,,,,,,,,,,,l,0,2.8184,"[""0.246"",""0.659"",""0.696"",""0.904""]","[1,0,1,1]",0,62,62,62,1,0,1,,,0,FALSE,,,,,,,,,,,,,,,,,,,,,,,,,,,,,,,
,5c31fdbafe0b5000012474e5,627c704acd775c2bfef48fa4,2022-05-12_03h27.57.299,classification_task,2021.2.3,Win32,59.95203837,627c6715c52fd12f31907bd0,,,,,,,,,,,,,,,,,,,,,,,l,0,2.5845,"[""0.654"",""0.353"",""0.696"",""0.904""]","[0,1,1,1]",0,63,63,63,1,0,1,,,0,FALSE,,,,,,,,,,,,,,,,,,,,,,,,,,,,,,,
,5c31fdbafe0b5000012474e5,627c704acd775c2bfef48fa4,2022-05-12_03h27.57.299,classification_task,2021.2.3,Win32,59.95203837,627c6715c52fd12f31907bd0,,,,,,,,,,,,,,,,,,,,,,,,,,,,,,,,,,,,,,,0, ,,0,0,459.4947,0,0,0,0,1,2,1,,,,,,,,,,,,,,,,,,
,5c31fdbafe0b5000012474e5,627c704acd775c2bfef48fa4,2022-05-12_03h27.57.299,classification_task,2021.2.3,Win32,59.95203837,627c6715c52fd12f31907bd0,,,,,,,,,,,,,,,,,,,,,,,,,,,,,,,,,,,,,,,1,  ,,0,9.232804233,465.5804,0,0,0,0,1,2,1,,,,,,,,,,,,,,,,,,
,5c31fdbafe0b5000012474e5,627c704acd775c2bfef48fa4,2022-05-12_03h27.57.299,classification_task,2021.2.3,Win32,59.95203837,627c6715c52fd12f31907bd0,,,,,,,,,,,,,,,,,,,,,,,,,,,,,,,,,,,,,,,2,  ,,0,0,476.1277,0,0,0,0,1,2,1,,,,,,,,,,,,,,,,,,
,5c31fdbafe0b5000012474e5,627c704acd775c2bfef48fa4,2022-05-12_03h27.57.299,classification_task,2021.2.3,Win32,59.95203837,627c6715c52fd12f31907bd0,,,,,,,,,,,,,,,,,,,,,,,,,,,,,,,,,,,,,,,,,,,,,0,0,0,0,1,,1,,,,,,,,,,,,,,,,,,
,5c31fdbafe0b5000012474e5,627c704acd775c2bfef48fa4,2022-05-12_03h27.57.299,classification_task,2021.2.3,Win32,59.95203837,627c6715c52fd12f31907bd0,,,,,,,,,,,,,,,,,,,,,space,15.0444,a,0,3.2738,"[""0.106"",""0.301"",""0.401"",""0.836""]","[1,1,0,1]",0,0,0,0,1,1,1,,,0,FALSE,,,,,,,,,,,,,,,,,,,,,,,,,,,,,,,
,5c31fdbafe0b5000012474e5,627c704acd775c2bfef48fa4,2022-05-12_03h27.57.299,classification_task,2021.2.3,Win32,59.95203837,627c6715c52fd12f31907bd0,,,,,,,,,,,,,,,,,,,,,,,l,0,2.8257,"[""0.163"",""0.481"",""0.025"",""0.947""]","[1,1,0,1]",0,1,1,1,1,0,0,,,0,FALSE,,,,,,,,,,,,,,,,,,,,,,,,,,,,,,,
,5c31fdbafe0b5000012474e5,627c704acd775c2bfef48fa4,2022-05-12_03h27.57.299,classification_task,2021.2.3,Win32,59.95203837,627c6715c52fd12f31907bd0,,,,,,,,,,,,,,,,,,,,,,,a,1,1.7762,"[""0.163"",""0.579"",""0.616"",""0.947""]","[1,0,1,1]",0,2,2,2,1,0,0,,,0,FALSE,,,,,,,,,,,,,,,,,,,,,,,,,,,,,,,
,5c31fdbafe0b5000012474e5,627c704acd775c2bfef48fa4,2022-05-12_03h27.57.299,classification_task,2021.2.3,Win32,59.95203837,627c6715c52fd12f31907bd0,,,,,,,,,,,,,,,,,,,,,,,a,1,2.7173,"[""0.579"",""0.481"",""0.616"",""0.947""]","[0,1,1,1]",0,3,3,3,1,0,0,,,0,FALSE,,,,,,,,,,,,,,,,,,,,,,,,,,,,,,,
,5c31fdbafe0b5000012474e5,627c704acd775c2bfef48fa4,2022-05-12_03h27.57.299,classification_task,2021.2.3,Win32,59.95203837,627c6715c52fd12f31907bd0,,,,,,,,,,,,,,,,,,,,,,,a,0,3.2621,"[""0.106"",""0.301"",""0.544"",""0.799""]","[1,1,1,0]",0,4,4,4,1,1,1,,,0,FALSE,,,,,,,,,,,,,,,,,,,,,,,,,,,,,,,
,5c31fdbafe0b5000012474e5,627c704acd775c2bfef48fa4,2022-05-12_03h27.57.299,classification_task,2021.2.3,Win32,59.95203837,627c6715c52fd12f31907bd0,,,,,,,,,,,,,,,,,,,,,,,a,0,1.7633,"[""0.106"",""0.401"",""0.544"",""0.836""]","[1,0,1,1]",0,5,5,5,1,1,1,,,0,FALSE,,,,,,,,,,,,,,,,,,,,,,,,,,,,,,,
,5c31fdbafe0b5000012474e5,627c704acd775c2bfef48fa4,2022-05-12_03h27.57.299,classification_task,2021.2.3,Win32,59.95203837,627c6715c52fd12f31907bd0,,,,,,,,,,,,,,,,,,,,,,,l,0,2.4007,"[""0.163"",""0.481"",""0.616"",""0.390""]","[1,1,1,0]",0,6,6,6,1,0,0,,,0,FALSE,,,,,,,,,,,,,,,,,,,,,,,,,,,,,,,
,5c31fdbafe0b5000012474e5,627c704acd775c2bfef48fa4,2022-05-12_03h27.57.299,classification_task,2021.2.3,Win32,59.95203837,627c6715c52fd12f31907bd0,,,,,,,,,,,,,,,,,,,,,,,a,1,1.5495,"[""0.246"",""0.353"",""0.696"",""0.025""]","[1,1,1,0]",0,7,7,7,1,0,1,,,0,FALSE,,,,,,,,,,,,,,,,,,,,,,,,,,,,,,,
,5c31fdbafe0b5000012474e5,627c704acd775c2bfef48fa4,2022-05-12_03h27.57.299,classification_task,2021.2.3,Win32,59.95203837,627c6715c52fd12f31907bd0,,,,,,,,,,,,,,,,,,,,,,,l,1,1.4337,"[""0.059"",""0.201"",""0.401"",""0.758""]","[1,1,0,1]",0,8,8,8,1,1,0,,,0,FALSE,,,,,,,,,,,,,,,,,,,,,,,,,,,,,,,
,5c31fdbafe0b5000012474e5,627c704acd775c2bfef48fa4,2022-05-12_03h27.57.299,classification_task,2021.2.3,Win32,59.95203837,627c6715c52fd12f31907bd0,,,,,,,,,,,,,,,,,,,,,,,a,0,3.0667,"[""0.389"",""0.301"",""0.544"",""0.836""]","[0,1,1,1]",0,9,9,9,1,1,1,,,0,FALSE,,,,,,,,,,,,,,,,,,,,,,,,,,,,,,,
,5c31fdbafe0b5000012474e5,627c704acd775c2bfef48fa4,2022-05-12_03h27.57.299,classification_task,2021.2.3,Win32,59.95203837,627c6715c52fd12f31907bd0,,,,,,,,,,,,,,,,,,,,,,,l,1,2.3672,"[""0.059"",""0.201"",""0.436"",""0.579""]","[1,1,1,0]",0,10,10,10,1,1,0,,,0,FALSE,,,,,,,,,,,,,,,,,,,,,,,,,,,,,,,
,5c31fdbafe0b5000012474e5,627c704acd775c2bfef48fa4,2022-05-12_03h27.57.299,classification_task,2021.2.3,Win32,59.95203837,627c6715c52fd12f31907bd0,,,,,,,,,,,,,,,,,,,,,,,a,1,3.0674,"[""0.246"",""0.353"",""0.390"",""0.904""]","[1,1,0,1]",0,11,11,11,1,0,1,,,0,FALSE,,,,,,,,,,,,,,,,,,,,,,,,,,,,,,,
,5c31fdbafe0b5000012474e5,627c704acd775c2bfef48fa4,2022-05-12_03h27.57.299,classification_task,2021.2.3,Win32,59.95203837,627c6715c52fd12f31907bd0,,,,,,,,,,,,,,,,,,,,,,,a,1,3.2516,"[""0.870"",""0.353"",""0.696"",""0.904""]","[0,1,1,1]",0,12,12,12,1,0,1,,,0,FALSE,,,,,,,,,,,,,,,,,,,,,,,,,,,,,,,
,5c31fdbafe0b5000012474e5,627c704acd775c2bfef48fa4,2022-05-12_03h27.57.299,classification_task,2021.2.3,Win32,59.95203837,627c6715c52fd12f31907bd0,,,,,,,,,,,,,,,,,,,,,,,l,1,1.0972,"[""0.654"",""0.201"",""0.436"",""0.758""]","[0,1,1,1]",0,13,13,13,1,1,0,,,0,FALSE,,,,,,,,,,,,,,,,,,,,,,,,,,,,,,,
,5c31fdbafe0b5000012474e5,627c704acd775c2bfef48fa4,2022-05-12_03h27.57.299,classification_task,2021.2.3,Win32,59.95203837,627c6715c52fd12f31907bd0,,,,,,,,,,,,,,,,,,,,,,,a,1,2.5838,"[""0.246"",""0.654"",""0.696"",""0.904""]","[1,0,1,1]",0,14,14,14,1,0,1,,,0,FALSE,,,,,,,,,,,,,,,,,,,,,,,,,,,,,,,
,5c31fdbafe0b5000012474e5,627c704acd775c2bfef48fa4,2022-05-12_03h27.57.299,classification_task,2021.2.3,Win32,59.95203837,627c6715c52fd12f31907bd0,,,,,,,,,,,,,,,,,,,,,,,l,1,1.0179,"[""0.059"",""0.389"",""0.436"",""0.758""]","[1,0,1,1]",0,15,15,15,1,1,0,,,0,FALSE,,,,,,,,,,,,,,,,,,,,,,,,,,,,,,,
,5c31fdbafe0b5000012474e5,627c704acd775c2bfef48fa4,2022-05-12_03h27.57.299,classification_task,2021.2.3,Win32,59.95203837,627c6715c52fd12f31907bd0,,,,,,,,,,,,,,,,,,,,,,,l,0,1.735,"[""0.246"",""0.353"",""0.654"",""0.904""]","[1,1,0,1]",0,16,16,16,1,0,1,,,0,FALSE,,,,,,,,,,,,,,,,,,,,,,,,,,,,,,,
,5c31fdbafe0b5000012474e5,627c704acd775c2bfef48fa4,2022-05-12_03h27.57.299,classification_task,2021.2.3,Win32,59.95203837,627c6715c52fd12f31907bd0,,,,,,,,,,,,,,,,,,,,,,,l,1,0.9284,"[""0.059"",""0.201"",""0.398"",""0.758""]","[1,1,0,1]",0,17,17,17,1,1,0,,,0,FALSE,,,,,,,,,,,,,,,,,,,,,,,,,,,,,,,
,5c31fdbafe0b5000012474e5,627c704acd775c2bfef48fa4,2022-05-12_03h27.57.299,classification_task,2021.2.3,Win32,59.95203837,627c6715c52fd12f31907bd0,,,,,,,,,,,,,,,,,,,,,,,l,1,0.781,"[""0.388"",""0.201"",""0.436"",""0.758""]","[0,1,1,1]",0,18,18,18,1,1,0,,,0,FALSE,,,,,,,,,,,,,,,,,,,,,,,,,,,,,,,
,5c31fdbafe0b5000012474e5,627c704acd775c2bfef48fa4,2022-05-12_03h27.57.299,classification_task,2021.2.3,Win32,59.95203837,627c6715c52fd12f31907bd0,,,,,,,,,,,,,,,,,,,,,,,a,1,2.6813,"[""0.389"",""0.353"",""0.696"",""0.904""]","[0,1,1,1]",0,19,19,19,1,0,1,,,0,FALSE,,,,,,,,,,,,,,,,,,,,,,,,,,,,,,,
,5c31fdbafe0b5000012474e5,627c704acd775c2bfef48fa4,2022-05-12_03h27.57.299,classification_task,2021.2.3,Win32,59.95203837,627c6715c52fd12f31907bd0,,,,,,,,,,,,,,,,,,,,,,,a,0,1.9751,"[""0.106"",""0.301"",""0.388"",""0.836""]","[1,1,0,1]",0,20,20,20,1,1,1,,,0,FALSE,,,,,,,,,,,,,,,,,,,,,,,,,,,,,,,
,5c31fdbafe0b5000012474e5,627c704acd775c2bfef48fa4,2022-05-12_03h27.57.299,classification_task,2021.2.3,Win32,59.95203837,627c6715c52fd12f31907bd0,,,,,,,,,,,,,,,,,,,,,,,l,0,1.7334,"[""0.246"",""0.799"",""0.696"",""0.904""]","[1,0,1,1]",0,21,21,21,1,0,1,,,0,FALSE,,,,,,,,,,,,,,,,,,,,,,,,,,,,,,,
,5c31fdbafe0b5000012474e5,627c704acd775c2bfef48fa4,2022-05-12_03h27.57.299,classification_task,2021.2.3,Win32,59.95203837,627c6715c52fd12f31907bd0,,,,,,,,,,,,,,,,,,,,,,,l,1,1.15,"[""0.059"",""0.201"",""0.436"",""0.870""]","[1,1,1,0]",0,22,22,22,1,1,0,,,0,FALSE,,,,,,,,,,,,,,,,,,,,,,,,,,,,,,,
,5c31fdbafe0b5000012474e5,627c704acd775c2bfef48fa4,2022-05-12_03h27.57.299,classification_task,2021.2.3,Win32,59.95203837,627c6715c52fd12f31907bd0,,,,,,,,,,,,,,,,,,,,,,,l,0,0.6833,"[""0.163"",""0.654"",""0.616"",""0.947""]","[1,0,1,1]",0,23,23,23,1,0,0,,,0,FALSE,,,,,,,,,,,,,,,,,,,,,,,,,,,,,,,
,5c31fdbafe0b5000012474e5,627c704acd775c2bfef48fa4,2022-05-12_03h27.57.299,classification_task,2021.2.3,Win32,59.95203837,627c6715c52fd12f31907bd0,,,,,,,,,,,,,,,,,,,,,,,l,1,4.0863,"[""0.401"",""0.301"",""0.544"",""0.836""]","[0,1,1,1]",0,24,24,24,1,1,1,,,0,FALSE,,,,,,,,,,,,,,,,,,,,,,,,,,,,,,,
,5c31fdbafe0b5000012474e5,627c704acd775c2bfef48fa4,2022-05-12_03h27.57.299,classification_task,2021.2.3,Win32,59.95203837,627c6715c52fd12f31907bd0,,,,,,,,,,,,,,,,,,,,,,,l,0,1.5647,"[""0.401"",""0.481"",""0.616"",""0.947""]","[0,1,1,1]",0,25,25,25,1,0,0,,,0,FALSE,,,,,,,,,,,,,,,,,,,,,,,,,,,,,,,
,5c31fdbafe0b5000012474e5,627c704acd775c2bfef48fa4,2022-05-12_03h27.57.299,classification_task,2021.2.3,Win32,59.95203837,627c6715c52fd12f31907bd0,,,,,,,,,,,,,,,,,,,,,,,a,1,3.3983,"[""0.246"",""0.353"",""0.696"",""0.654""]","[1,1,1,0]",0,26,26,26,1,0,1,,,0,FALSE,,,,,,,,,,,,,,,,,,,,,,,,,,,,,,,
,5c31fdbafe0b5000012474e5,627c704acd775c2bfef48fa4,2022-05-12_03h27.57.299,classification_task,2021.2.3,Win32,59.95203837,627c6715c52fd12f31907bd0,,,,,,,,,,,,,,,,,,,,,,,l,0,1.1,"[""0.163"",""0.481"",""0.870"",""0.947""]","[1,1,0,1]",0,27,27,27,1,0,0,,,0,FALSE,,,,,,,,,,,,,,,,,,,,,,,,,,,,,,,
,5c31fdbafe0b5000012474e5,627c704acd775c2bfef48fa4,2022-05-12_03h27.57.299,classification_task,2021.2.3,Win32,59.95203837,627c6715c52fd12f31907bd0,,,,,,,,,,,,,,,,,,,,,,,l,1,1.7192,"[""0.106"",""0.654"",""0.544"",""0.836""]","[1,0,1,1]",0,28,28,28,1,1,1,,,0,FALSE,,,,,,,,,,,,,,,,,,,,,,,,,,,,,,,
,5c31fdbafe0b5000012474e5,627c704acd775c2bfef48fa4,2022-05-12_03h27.57.299,classification_task,2021.2.3,Win32,59.95203837,627c6715c52fd12f31907bd0,,,,,,,,,,,,,,,,,,,,,,,a,0,3.3324,"[""0.106"",""0.301"",""0.544"",""0.400""]","[1,1,1,0]",0,29,29,29,1,1,1,,,0,FALSE,,,,,,,,,,,,,,,,,,,,,,,,,,,,,,,
,5c31fdbafe0b5000012474e5,627c704acd775c2bfef48fa4,2022-05-12_03h27.57.299,classification_task,2021.2.3,Win32,59.95203837,627c6715c52fd12f31907bd0,,,,,,,,,,,,,,,,,,,,,,,l,0,0.9987,"[""0.163"",""0.481"",""0.616"",""0.389""]","[1,1,1,0]",0,30,30,30,1,0,0,,,0,FALSE,,,,,,,,,,,,,,,,,,,,,,,,,,,,,,,
,5c31fdbafe0b5000012474e5,627c704acd775c2bfef48fa4,2022-05-12_03h27.57.299,classification_task,2021.2.3,Win32,59.95203837,627c6715c52fd12f31907bd0,,,,,,,,,,,,,,,,,,,,,,,l,1,1.1844,"[""0.059"",""0.654"",""0.436"",""0.758""]","[1,0,1,1]",0,31,31,31,1,1,0,,,0,FALSE,,,,,,,,,,,,,,,,,,,,,,,,,,,,,,,
,5c31fdbafe0b5000012474e5,627c704acd775c2bfef48fa4,2022-05-12_03h27.57.299,classification_task,2021.2.3,Win32,59.95203837,627c6715c52fd12f31907bd0,,,,,,,,,,,,,,,,,,,,,,,l,0,1.8655,"[""0.799"",""0.353"",""0.696"",""0.904""]","[0,1,1,1]",0,32,32,32,1,0,1,,,0,FALSE,,,,,,,,,,,,,,,,,,,,,,,,,,,,,,,
,5c31fdbafe0b5000012474e5,627c704acd775c2bfef48fa4,2022-05-12_03h27.57.299,classification_task,2021.2.3,Win32,59.95203837,627c6715c52fd12f31907bd0,,,,,,,,,,,,,,,,,,,,,,,l,0,0.9315,"[""0.163"",""0.481"",""0.616"",""0.388""]","[1,1,1,0]",0,33,33,33,1,0,0,,,0,FALSE,,,,,,,,,,,,,,,,,,,,,,,,,,,,,,,
,5c31fdbafe0b5000012474e5,627c704acd775c2bfef48fa4,2022-05-12_03h27.57.299,classification_task,2021.2.3,Win32,59.95203837,627c6715c52fd12f31907bd0,,,,,,,,,,,,,,,,,,,,,,,a,0,2.0189,"[""0.106"",""0.579"",""0.544"",""0.836""]","[1,0,1,1]",0,34,34,34,1,1,1,,,0,FALSE,,,,,,,,,,,,,,,,,,,,,,,,,,,,,,,
,5c31fdbafe0b5000012474e5,627c704acd775c2bfef48fa4,2022-05-12_03h27.57.299,classification_task,2021.2.3,Win32,59.95203837,627c6715c52fd12f31907bd0,,,,,,,,,,,,,,,,,,,,,,,l,1,0.932,"[""0.059"",""0.659"",""0.436"",""0.758""]","[1,0,1,1]",0,35,35,35,1,1,0,,,0,FALSE,,,,,,,,,,,,,,,,,,,,,,,,,,,,,,,
,5c31fdbafe0b5000012474e5,627c704acd775c2bfef48fa4,2022-05-12_03h27.57.299,classification_task,2021.2.3,Win32,59.95203837,627c6715c52fd12f31907bd0,,,,,,,,,,,,,,,,,,,,,,,l,1,1.8334,"[""0.059"",""0.201"",""0.436"",""0.401""]","[1,1,1,0]",0,36,36,36,1,1,0,,,0,FALSE,,,,,,,,,,,,,,,,,,,,,,,,,,,,,,,
,5c31fdbafe0b5000012474e5,627c704acd775c2bfef48fa4,2022-05-12_03h27.57.299,classification_task,2021.2.3,Win32,59.95203837,627c6715c52fd12f31907bd0,,,,,,,,,,,,,,,,,,,,,,,a,0,2.8364,"[""0.654"",""0.301"",""0.544"",""0.836""]","[0,1,1,1]",0,37,37,37,1,1,1,,,0,FALSE,,,,,,,,,,,,,,,,,,,,,,,,,,,,,,,
,5c31fdbafe0b5000012474e5,627c704acd775c2bfef48fa4,2022-05-12_03h27.57.299,classification_task,2021.2.3,Win32,59.95203837,627c6715c52fd12f31907bd0,,,,,,,,,,,,,,,,,,,,,,,a,1,1.7363,"[""0.246"",""0.401"",""0.696"",""0.904""]","[1,0,1,1]",0,38,38,38,1,0,1,,,0,FALSE,,,,,,,,,,,,,,,,,,,,,,,,,,,,,,,
,5c31fdbafe0b5000012474e5,627c704acd775c2bfef48fa4,2022-05-12_03h27.57.299,classification_task,2021.2.3,Win32,59.95203837,627c6715c52fd12f31907bd0,,,,,,,,,,,,,,,,,,,,,,,l,1,1.0739,"[""0.659"",""0.201"",""0.436"",""0.758""]","[0,1,1,1]",0,39,39,39,1,1,0,,,0,FALSE,,,,,,,,,,,,,,,,,,,,,,,,,,,,,,,
,5c31fdbafe0b5000012474e5,627c704acd775c2bfef48fa4,2022-05-12_03h27.57.299,classification_task,2021.2.3,Win32,59.95203837,627c6715c52fd12f31907bd0,,,,,,,,,,,,,,,,,,,,,,,a,0,1.8838,"[""0.106"",""0.301"",""0.398"",""0.836""]","[1,1,0,1]",0,40,40,40,1,1,1,,,0,FALSE,,,,,,,,,,,,,,,,,,,,,,,,,,,,,,,
,5c31fdbafe0b5000012474e5,627c704acd775c2bfef48fa4,2022-05-12_03h27.57.299,classification_task,2021.2.3,Win32,59.95203837,627c6715c52fd12f31907bd0,,,,,,,,,,,,,,,,,,,,,,,a,1,1.3659,"[""0.246"",""0.353"",""0.696"",""0.654""]","[1,1,1,0]",0,41,41,41,1,0,1,,,0,FALSE,,,,,,,,,,,,,,,,,,,,,,,,,,,,,,,
,5c31fdbafe0b5000012474e5,627c704acd775c2bfef48fa4,2022-05-12_03h27.57.299,classification_task,2021.2.3,Win32,59.95203837,627c6715c52fd12f31907bd0,,,,,,,,,,,,,,,,,,,,,,,a,0,1.5641,"[""0.106"",""0.301"",""0.544"",""0.401""]","[1,1,1,0]",0,42,42,42,1,1,1,,,0,FALSE,,,,,,,,,,,,,,,,,,,,,,,,,,,,,,,
,5c31fdbafe0b5000012474e5,627c704acd775c2bfef48fa4,2022-05-12_03h27.57.299,classification_task,2021.2.3,Win32,59.95203837,627c6715c52fd12f31907bd0,,,,,,,,,,,,,,,,,,,,,,,a,1,3.4935,"[""0.246"",""0.353"",""0.401"",""0.904""]","[1,1,0,1]",0,43,43,43,1,0,1,,,0,FALSE,,,,,,,,,,,,,,,,,,,,,,,,,,,,,,,
,5c31fdbafe0b5000012474e5,627c704acd775c2bfef48fa4,2022-05-12_03h27.57.299,classification_task,2021.2.3,Win32,59.95203837,627c6715c52fd12f31907bd0,,,,,,,,,,,,,,,,,,,,,,,l,0,0.9946,"[""0.163"",""0.481"",""0.390"",""0.947""]","[1,1,0,1]",0,44,44,44,1,0,0,,,0,FALSE,,,,,,,,,,,,,,,,,,,,,,,,,,,,,,,
,5c31fdbafe0b5000012474e5,627c704acd775c2bfef48fa4,2022-05-12_03h27.57.299,classification_task,2021.2.3,Win32,59.95203837,627c6715c52fd12f31907bd0,,,,,,,,,,,,,,,,,,,,,,,l,0,1.0344,"[""0.163"",""0.799"",""0.616"",""0.947""]","[1,0,1,1]",0,45,45,45,1,0,0,,,0,FALSE,,,,,,,,,,,,,,,,,,,,,,,,,,,,,,,
,5c31fdbafe0b5000012474e5,627c704acd775c2bfef48fa4,2022-05-12_03h27.57.299,classification_task,2021.2.3,Win32,59.95203837,627c6715c52fd12f31907bd0,,,,,,,,,,,,,,,,,,,,,,,l,1,0.8359,"[""0.059"",""0.201"",""0.401"",""0.758""]","[1,1,0,1]",0,46,46,46,1,1,0,,,0,FALSE,,,,,,,,,,,,,,,,,,,,,,,,,,,,,,,
,5c31fdbafe0b5000012474e5,627c704acd775c2bfef48fa4,2022-05-12_03h27.57.299,classification_task,2021.2.3,Win32,59.95203837,627c6715c52fd12f31907bd0,,,,,,,,,,,,,,,,,,,,,,,l,0,0.7802,"[""0.400"",""0.481"",""0.616"",""0.947""]","[0,1,1,1]",0,47,47,47,1,0,0,,,0,FALSE,,,,,,,,,,,,,,,,,,,,,,,,,,,,,,,
,5c31fdbafe0b5000012474e5,627c704acd775c2bfef48fa4,2022-05-12_03h27.57.299,classification_task,2021.2.3,Win32,59.95203837,627c6715c52fd12f31907bd0,,,,,,,,,,,,,,,,,,,,,,,a,0,2.3367,"[""0.106"",""0.401"",""0.544"",""0.836""]","[1,0,1,1]",0,48,48,48,1,1,1,,,0,FALSE,,,,,,,,,,,,,,,,,,,,,,,,,,,,,,,
,5c31fdbafe0b5000012474e5,627c704acd775c2bfef48fa4,2022-05-12_03h27.57.299,classification_task,2021.2.3,Win32,59.95203837,627c6715c52fd12f31907bd0,,,,,,,,,,,,,,,,,,,,,,,l,0,1.0013,"[""0.163"",""0.481"",""0.654"",""0.947""]","[1,1,0,1]",0,49,49,49,1,0,0,,,0,FALSE,,,,,,,,,,,,,,,,,,,,,,,,,,,,,,,
,5c31fdbafe0b5000012474e5,627c704acd775c2bfef48fa4,2022-05-12_03h27.57.299,classification_task,2021.2.3,Win32,59.95203837,627c6715c52fd12f31907bd0,,,,,,,,,,,,,,,,,,,,,,,l,1,0.7832,"[""0.059"",""0.799"",""0.436"",""0.758""]","[1,0,1,1]",0,50,50,50,1,1,0,,,0,FALSE,,,,,,,,,,,,,,,,,,,,,,,,,,,,,,,
,5c31fdbafe0b5000012474e5,627c704acd775c2bfef48fa4,2022-05-12_03h27.57.299,classification_task,2021.2.3,Win32,59.95203837,627c6715c52fd12f31907bd0,,,,,,,,,,,,,,,,,,,,,,,a,0,2.1654,"[""0.389"",""0.301"",""0.544"",""0.836""]","[0,1,1,1]",0,51,51,51,1,1,1,,,0,FALSE,,,,,,,,,,,,,,,,,,,,,,,,,,,,,,,
,5c31fdbafe0b5000012474e5,627c704acd775c2bfef48fa4,2022-05-12_03h27.57.299,classification_task,2021.2.3,Win32,59.95203837,627c6715c52fd12f31907bd0,,,,,,,,,,,,,,,,,,,,,,,a,1,1.3649,"[""0.246"",""0.353"",""0.696"",""0.579""]","[1,1,1,0]",0,52,52,52,1,0,1,,,0,FALSE,,,,,,,,,,,,,,,,,,,,,,,,,,,,,,,
,5c31fdbafe0b5000012474e5,627c704acd775c2bfef48fa4,2022-05-12_03h27.57.299,classification_task,2021.2.3,Win32,59.95203837,627c6715c52fd12f31907bd0,,,,,,,,,,,,,,,,,,,,,,,a,0,1.4975,"[""0.106"",""0.301"",""0.025"",""0.836""]","[1,1,0,1]",0,53,53,53,1,1,1,,,0,FALSE,,,,,,,,,,,,,,,,,,,,,,,,,,,,,,,
,5c31fdbafe0b5000012474e5,627c704acd775c2bfef48fa4,2022-05-12_03h27.57.299,classification_task,2021.2.3,Win32,59.95203837,627c6715c52fd12f31907bd0,,,,,,,,,,,,,,,,,,,,,,,l,1,1.0818,"[""0.059"",""0.201"",""0.436"",""0.654""]","[1,1,1,0]",0,54,54,54,1,1,0,,,0,FALSE,,,,,,,,,,,,,,,,,,,,,,,,,,,,,,,
,5c31fdbafe0b5000012474e5,627c704acd775c2bfef48fa4,2022-05-12_03h27.57.299,classification_task,2021.2.3,Win32,59.95203837,627c6715c52fd12f31907bd0,,,,,,,,,,,,,,,,,,,,,,,l,0,1.1181,"[""0.401"",""0.481"",""0.616"",""0.947""]","[0,1,1,1]",0,55,55,55,1,0,0,,,0,FALSE,,,,,,,,,,,,,,,,,,,,,,,,,,,,,,,
,5c31fdbafe0b5000012474e5,627c704acd775c2bfef48fa4,2022-05-12_03h27.57.299,classification_task,2021.2.3,Win32,59.95203837,627c6715c52fd12f31907bd0,,,,,,,,,,,,,,,,,,,,,,,a,1,2.2316,"[""0.792"",""0.353"",""0.696"",""0.904""]","[0,1,1,1]",0,56,56,56,1,0,1,,,0,FALSE,,,,,,,,,,,,,,,,,,,,,,,,,,,,,,,
,5c31fdbafe0b5000012474e5,627c704acd775c2bfef48fa4,2022-05-12_03h27.57.299,classification_task,2021.2.3,Win32,59.95203837,627c6715c52fd12f31907bd0,,,,,,,,,,,,,,,,,,,,,,,l,0,0.9818,"[""0.163"",""0.481"",""0.616"",""0.792""]","[1,1,1,0]",0,57,57,57,1,0,0,,,0,FALSE,,,,,,,,,,,,,,,,,,,,,,,,,,,,,,,
,5c31fdbafe0b5000012474e5,627c704acd775c2bfef48fa4,2022-05-12_03h27.57.299,classification_task,2021.2.3,Win32,59.95203837,627c6715c52fd12f31907bd0,,,,,,,,,,,,,,,,,,,,,,,a,1,1.566,"[""0.246"",""0.353"",""0.398"",""0.904""]","[1,1,0,1]",0,58,58,58,1,0,1,,,0,FALSE,,,,,,,,,,,,,,,,,,,,,,,,,,,,,,,
,5c31fdbafe0b5000012474e5,627c704acd775c2bfef48fa4,2022-05-12_03h27.57.299,classification_task,2021.2.3,Win32,59.95203837,627c6715c52fd12f31907bd0,,,,,,,,,,,,,,,,,,,,,,,l,1,1.249,"[""0.059"",""0.201"",""0.388"",""0.758""]","[1,1,0,1]",0,59,59,59,1,1,0,,,0,FALSE,,,,,,,,,,,,,,,,,,,,,,,,,,,,,,,
,5c31fdbafe0b5000012474e5,627c704acd775c2bfef48fa4,2022-05-12_03h27.57.299,classification_task,2021.2.3,Win32,59.95203837,627c6715c52fd12f31907bd0,,,,,,,,,,,,,,,,,,,,,,,l,0,2.3496,"[""0.163"",""0.654"",""0.616"",""0.947""]","[1,0,1,1]",0,60,60,60,1,0,0,,,0,FALSE,,,,,,,,,,,,,,,,,,,,,,,,,,,,,,,
,5c31fdbafe0b5000012474e5,627c704acd775c2bfef48fa4,2022-05-12_03h27.57.299,classification_task,2021.2.3,Win32,59.95203837,627c6715c52fd12f31907bd0,,,,,,,,,,,,,,,,,,,,,,,l,0,2.482,"[""0.246"",""0.654"",""0.696"",""0.904""]","[1,0,1,1]",0,61,61,61,1,0,1,,,0,FALSE,,,,,,,,,,,,,,,,,,,,,,,,,,,,,,,
,5c31fdbafe0b5000012474e5,627c704acd775c2bfef48fa4,2022-05-12_03h27.57.299,classification_task,2021.2.3,Win32,59.95203837,627c6715c52fd12f31907bd0,,,,,,,,,,,,,,,,,,,,,,,l,1,2.1874,"[""0.106"",""0.301"",""0.544"",""0.400""]","[1,1,1,0]",0,62,62,62,1,1,1,,,0,FALSE,,,,,,,,,,,,,,,,,,,,,,,,,,,,,,,
,5c31fdbafe0b5000012474e5,627c704acd775c2bfef48fa4,2022-05-12_03h27.57.299,classification_task,2021.2.3,Win32,59.95203837,627c6715c52fd12f31907bd0,,,,,,,,,,,,,,,,,,,,,,,l,1,1.2484,"[""0.400"",""0.201"",""0.436"",""0.758""]","[0,1,1,1]",0,63,63,63,1,1,0,,,0,FALSE,,,,,,,,,,,,,,,,,,,,,,,,,,,,,,,
,5c31fdbafe0b5000012474e5,627c704acd775c2bfef48fa4,2022-05-12_03h27.57.299,classification_task,2021.2.3,Win32,59.95203837,627c6715c52fd12f31907bd0,,,,,,,,,,,,,,,,,,,,,,,,,,,,,,,,,,,,,,,0, ,,0,0,203.324,0,1,1,1,1,2,2,,,,,,,,,,,,,,,,,,
,5c31fdbafe0b5000012474e5,627c704acd775c2bfef48fa4,2022-05-12_03h27.57.299,classification_task,2021.2.3,Win32,59.95203837,627c6715c52fd12f31907bd0,,,,,,,,,,,,,,,,,,,,,,,,,,,,,,,,,,,,,,,1,  ,,0,9.695767196,205.7107,0,1,1,1,1,2,2,,,,,,,,,,,,,,,,,,
,5c31fdbafe0b5000012474e5,627c704acd775c2bfef48fa4,2022-05-12_03h27.57.299,classification_task,2021.2.3,Win32,59.95203837,627c6715c52fd12f31907bd0,,,,,,,,,,,,,,,,,,,,,,,,,,,,,,,,,,,,,,,2,  ,,0,0,208.922,0,1,1,1,1,2,2,,,,,,,,,,,,,,,,,,
,5c31fdbafe0b5000012474e5,627c704acd775c2bfef48fa4,2022-05-12_03h27.57.299,classification_task,2021.2.3,Win32,59.95203837,627c6715c52fd12f31907bd0,,,,,,,,,,,,,,,,,,,,,,,,,,,,,,,,,,,,,,,,,,,,,0,1,1,1,1,,2,,,,,,,,,,,,,,,,,,
,5c31fdbafe0b5000012474e5,627c704acd775c2bfef48fa4,2022-05-12_03h27.57.299,classification_task,2021.2.3,Win32,59.95203837,627c6715c52fd12f31907bd0,,,,,,,,,,,,,,,,,,,,,space,17.9581,a,0,2.9268,"[""0.106"",""0.025"",""0.544"",""0.836""]","[1,0,1,1]",0,0,0,0,1,1,1,,,0,FALSE,,,,,,,,,,,,,,,,,,,,,,,,,,,,,,,
,5c31fdbafe0b5000012474e5,627c704acd775c2bfef48fa4,2022-05-12_03h27.57.299,classification_task,2021.2.3,Win32,59.95203837,627c6715c52fd12f31907bd0,,,,,,,,,,,,,,,,,,,,,,,a,0,3.3855,"[""0.059"",""0.201"",""0.436"",""0.793""]","[1,1,1,0]",0,1,1,1,1,1,0,,,0,FALSE,,,,,,,,,,,,,,,,,,,,,,,,,,,,,,,
,5c31fdbafe0b5000012474e5,627c704acd775c2bfef48fa4,2022-05-12_03h27.57.299,classification_task,2021.2.3,Win32,59.95203837,627c6715c52fd12f31907bd0,,,,,,,,,,,,,,,,,,,,,,,l,1,1.7972,"[""0.106"",""0.301"",""0.544"",""0.579""]","[1,1,1,0]",0,2,2,2,1,1,1,,,0,FALSE,,,,,,,,,,,,,,,,,,,,,,,,,,,,,,,
,5c31fdbafe0b5000012474e5,627c704acd775c2bfef48fa4,2022-05-12_03h27.57.299,classification_task,2021.2.3,Win32,59.95203837,627c6715c52fd12f31907bd0,,,,,,,,,,,,,,,,,,,,,,,a,1,2.7173,"[""0.246"",""0.390"",""0.696"",""0.904""]","[1,0,1,1]",0,3,3,3,1,0,1,,,0,FALSE,,,,,,,,,,,,,,,,,,,,,,,,,,,,,,,
,5c31fdbafe0b5000012474e5,627c704acd775c2bfef48fa4,2022-05-12_03h27.57.299,classification_task,2021.2.3,Win32,59.95203837,627c6715c52fd12f31907bd0,,,,,,,,,,,,,,,,,,,,,,,a,0,1.7996,"[""0.401"",""0.201"",""0.436"",""0.758""]","[0,1,1,1]",0,4,4,4,1,1,0,,,0,FALSE,,,,,,,,,,,,,,,,,,,,,,,,,,,,,,,
,5c31fdbafe0b5000012474e5,627c704acd775c2bfef48fa4,2022-05-12_03h27.57.299,classification_task,2021.2.3,Win32,59.95203837,627c6715c52fd12f31907bd0,,,,,,,,,,,,,,,,,,,,,,,l,0,1.4003,"[""0.792"",""0.353"",""0.696"",""0.904""]","[0,1,1,1]",0,5,5,5,1,0,1,,,0,FALSE,,,,,,,,,,,,,,,,,,,,,,,,,,,,,,,
,5c31fdbafe0b5000012474e5,627c704acd775c2bfef48fa4,2022-05-12_03h27.57.299,classification_task,2021.2.3,Win32,59.95203837,627c6715c52fd12f31907bd0,,,,,,,,,,,,,,,,,,,,,,,a,1,2.6181,"[""0.163"",""0.481"",""0.025"",""0.947""]","[1,1,0,1]",0,6,6,6,1,0,0,,,0,FALSE,,,,,,,,,,,,,,,,,,,,,,,,,,,,,,,
,5c31fdbafe0b5000012474e5,627c704acd775c2bfef48fa4,2022-05-12_03h27.57.299,classification_task,2021.2.3,Win32,59.95203837,627c6715c52fd12f31907bd0,,,,,,,,,,,,,,,,,,,,,,,a,1,1.4843,"[""0.246"",""0.353"",""0.401"",""0.904""]","[1,1,0,1]",0,7,7,7,1,0,1,,,0,FALSE,,,,,,,,,,,,,,,,,,,,,,,,,,,,,,,
,5c31fdbafe0b5000012474e5,627c704acd775c2bfef48fa4,2022-05-12_03h27.57.299,classification_task,2021.2.3,Win32,59.95203837,627c6715c52fd12f31907bd0,,,,,,,,,,,,,,,,,,,,,,,l,1,1.3269,"[""0.059"",""0.201"",""0.401"",""0.758""]","[1,1,0,1]",0,8,8,8,1,1,0,,,0,FALSE,,,,,,,,,,,,,,,,,,,,,,,,,,,,,,,
,5c31fdbafe0b5000012474e5,627c704acd775c2bfef48fa4,2022-05-12_03h27.57.299,classification_task,2021.2.3,Win32,59.95203837,627c6715c52fd12f31907bd0,,,,,,,,,,,,,,,,,,,,,,,a,0,1.4507,"[""0.870"",""0.301"",""0.544"",""0.836""]","[0,1,1,1]",0,9,9,9,1,1,1,,,0,FALSE,,,,,,,,,,,,,,,,,,,,,,,,,,,,,,,
,5c31fdbafe0b5000012474e5,627c704acd775c2bfef48fa4,2022-05-12_03h27.57.299,classification_task,2021.2.3,Win32,59.95203837,627c6715c52fd12f31907bd0,,,,,,,,,,,,,,,,,,,,,,,a,1,1.6829,"[""0.401"",""0.481"",""0.616"",""0.947""]","[0,1,1,1]",0,10,10,10,1,0,0,,,0,FALSE,,,,,,,,,,,,,,,,,,,,,,,,,,,,,,,
,5c31fdbafe0b5000012474e5,627c704acd775c2bfef48fa4,2022-05-12_03h27.57.299,classification_task,2021.2.3,Win32,59.95203837,627c6715c52fd12f31907bd0,,,,,,,,,,,,,,,,,,,,,,,a,1,1.516,"[""0.246"",""0.353"",""0.696"",""0.388""]","[1,1,1,0]",0,11,11,11,1,0,1,,,0,FALSE,,,,,,,,,,,,,,,,,,,,,,,,,,,,,,,
,5c31fdbafe0b5000012474e5,627c704acd775c2bfef48fa4,2022-05-12_03h27.57.299,classification_task,2021.2.3,Win32,59.95203837,627c6715c52fd12f31907bd0,,,,,,,,,,,,,,,,,,,,,,,a,0,2.0442,"[""0.106"",""0.301"",""0.400"",""0.836""]","[1,1,0,1]",0,12,12,12,1,1,1,,,0,FALSE,,,,,,,,,,,,,,,,,,,,,,,,,,,,,,,
,5c31fdbafe0b5000012474e5,627c704acd775c2bfef48fa4,2022-05-12_03h27.57.299,classification_task,2021.2.3,Win32,59.95203837,627c6715c52fd12f31907bd0,,,,,,,,,,,,,,,,,,,,,,,a,0,2.2014,"[""0.059"",""0.389"",""0.436"",""0.758""]","[1,0,1,1]",0,13,13,13,1,1,0,,,0,FALSE,,,,,,,,,,,,,,,,,,,,,,,,,,,,,,,
,5c31fdbafe0b5000012474e5,627c704acd775c2bfef48fa4,2022-05-12_03h27.57.299,classification_task,2021.2.3,Win32,59.95203837,627c6715c52fd12f31907bd0,,,,,,,,,,,,,,,,,,,,,,,l,0,1.4611,"[""0.163"",""0.481"",""0.616"",""0.654""]","[1,1,1,0]",0,14,14,14,1,0,0,,,0,FALSE,,,,,,,,,,,,,,,,,,,,,,,,,,,,,,,
,5c31fdbafe0b5000012474e5,627c704acd775c2bfef48fa4,2022-05-12_03h27.57.299,classification_task,2021.2.3,Win32,59.95203837,627c6715c52fd12f31907bd0,,,,,,,,,,,,,,,,,,,,,,,l,0,1.1495,"[""0.163"",""0.793"",""0.616"",""0.947""]","[1,0,1,1]",0,15,15,15,1,0,0,,,0,FALSE,,,,,,,,,,,,,,,,,,,,,,,,,,,,,,,
,5c31fdbafe0b5000012474e5,627c704acd775c2bfef48fa4,2022-05-12_03h27.57.299,classification_task,2021.2.3,Win32,59.95203837,627c6715c52fd12f31907bd0,,,,,,,,,,,,,,,,,,,,,,,a,1,1.3211,"[""0.246"",""0.353"",""0.401"",""0.904""]","[1,1,0,1]",0,16,16,16,1,0,1,,,0,FALSE,,,,,,,,,,,,,,,,,,,,,,,,,,,,,,,
,5c31fdbafe0b5000012474e5,627c704acd775c2bfef48fa4,2022-05-12_03h27.57.299,classification_task,2021.2.3,Win32,59.95203837,627c6715c52fd12f31907bd0,,,,,,,,,,,,,,,,,,,,,,,l,1,2.6177,"[""0.059"",""0.390"",""0.436"",""0.758""]","[1,0,1,1]",0,17,17,17,1,1,0,,,0,FALSE,,,,,,,,,,,,,,,,,,,,,,,,,,,,,,,
,5c31fdbafe0b5000012474e5,627c704acd775c2bfef48fa4,2022-05-12_03h27.57.299,classification_task,2021.2.3,Win32,59.95203837,627c6715c52fd12f31907bd0,,,,,,,,,,,,,,,,,,,,,,,l,0,1.3926,"[""0.246"",""0.792"",""0.696"",""0.904""]","[1,0,1,1]",0,18,18,18,1,0,1,,,0,FALSE,,,,,,,,,,,,,,,,,,,,,,,,,,,,,,,
,5c31fdbafe0b5000012474e5,627c704acd775c2bfef48fa4,2022-05-12_03h27.57.299,classification_task,2021.2.3,Win32,59.95203837,627c6715c52fd12f31907bd0,,,,,,,,,,,,,,,,,,,,,,,a,0,1.7332,"[""0.059"",""0.201"",""0.400"",""0.758""]","[1,1,0,1]",0,19,19,19,1,1,0,,,0,FALSE,,,,,,,,,,,,,,,,,,,,,,,,,,,,,,,
,5c31fdbafe0b5000012474e5,627c704acd775c2bfef48fa4,2022-05-12_03h27.57.299,classification_task,2021.2.3,Win32,59.95203837,627c6715c52fd12f31907bd0,,,,,,,,,,,,,,,,,,,,,,,a,0,1.8943,"[""0.106"",""0.301"",""0.870"",""0.836""]","[1,1,0,1]",0,20,20,20,1,1,1,,,0,FALSE,,,,,,,,,,,,,,,,,,,,,,,,,,,,,,,
,5c31fdbafe0b5000012474e5,627c704acd775c2bfef48fa4,2022-05-12_03h27.57.299,classification_task,2021.2.3,Win32,59.95203837,627c6715c52fd12f31907bd0,,,,,,,,,,,,,,,,,,,,,,,l,0,1.8356,"[""0.799"",""0.481"",""0.616"",""0.947""]","[0,1,1,1]",0,21,21,21,1,0,0,,,0,FALSE,,,,,,,,,,,,,,,,,,,,,,,,,,,,,,,
,5c31fdbafe0b5000012474e5,627c704acd775c2bfef48fa4,2022-05-12_03h27.57.299,classification_task,2021.2.3,Win32,59.95203837,627c6715c52fd12f31907bd0,,,,,,,,,,,,,,,,,,,,,,,a,0,2.5961,"[""0.793"",""0.301"",""0.544"",""0.836""]","[0,1,1,1]",0,22,22,22,1,1,1,,,0,FALSE,,,,,,,,,,,,,,,,,,,,,,,,,,,,,,,
,5c31fdbafe0b5000012474e5,627c704acd775c2bfef48fa4,2022-05-12_03h27.57.299,classification_task,2021.2.3,Win32,59.95203837,627c6715c52fd12f31907bd0,,,,,,,,,,,,,,,,,,,,,,,a,1,1.6384,"[""0.163"",""0.659"",""0.616"",""0.947""]","[1,0,1,1]",0,23,23,23,1,0,0,,,0,FALSE,,,,,,,,,,,,,,,,,,,,,,,,,,,,,,,
,5c31fdbafe0b5000012474e5,627c704acd775c2bfef48fa4,2022-05-12_03h27.57.299,classification_task,2021.2.3,Win32,59.95203837,627c6715c52fd12f31907bd0,,,,,,,,,,,,,,,,,,,,,,,l,0,1.3791,"[""0.163"",""0.481"",""0.616"",""0.401""]","[1,1,1,0]",0,24,24,24,1,0,0,,,0,FALSE,,,,,,,,,,,,,,,,,,,,,,,,,,,,,,,
,5c31fdbafe0b5000012474e5,627c704acd775c2bfef48fa4,2022-05-12_03h27.57.299,classification_task,2021.2.3,Win32,59.95203837,627c6715c52fd12f31907bd0,,,,,,,,,,,,,,,,,,,,,,,a,1,2.501,"[""0.246"",""0.353"",""0.696"",""0.792""]","[1,1,1,0]",0,25,25,25,1,0,1,,,0,FALSE,,,,,,,,,,,,,,,,,,,,,,,,,,,,,,,
,5c31fdbafe0b5000012474e5,627c704acd775c2bfef48fa4,2022-05-12_03h27.57.299,classification_task,2021.2.3,Win32,59.95203837,627c6715c52fd12f31907bd0,,,,,,,,,,,,,,,,,,,,,,,a,0,2.4936,"[""0.106"",""0.301"",""0.544"",""0.870""]","[1,1,1,0]",0,26,26,26,1,1,1,,,0,FALSE,,,,,,,,,,,,,,,,,,,,,,,,,,,,,,,
,5c31fdbafe0b5000012474e5,627c704acd775c2bfef48fa4,2022-05-12_03h27.57.299,classification_task,2021.2.3,Win32,59.95203837,627c6715c52fd12f31907bd0,,,,,,,,,,,,,,,,,,,,,,,a,1,1.3214,"[""0.792"",""0.353"",""0.696"",""0.904""]","[0,1,1,1]",0,27,27,27,1,0,1,,,0,FALSE,,,,,,,,,,,,,,,,,,,,,,,,,,,,,,,
,5c31fdbafe0b5000012474e5,627c704acd775c2bfef48fa4,2022-05-12_03h27.57.299,classification_task,2021.2.3,Win32,59.95203837,627c6715c52fd12f31907bd0,,,,,,,,,,,,,,,,,,,,,,,a,0,1.4794,"[""0.799"",""0.201"",""0.436"",""0.758""]","[0,1,1,1]",0,28,28,28,1,1,0,,,0,FALSE,,,,,,,,,,,,,,,,,,,,,,,,,,,,,,,
,5c31fdbafe0b5000012474e5,627c704acd775c2bfef48fa4,2022-05-12_03h27.57.299,classification_task,2021.2.3,Win32,59.95203837,627c6715c52fd12f31907bd0,,,,,,,,,,,,,,,,,,,,,,,a,0,1.8664,"[""0.106"",""0.579"",""0.544"",""0.836""]","[1,0,1,1]",0,29,29,29,1,1,1,,,0,FALSE,,,,,,,,,,,,,,,,,,,,,,,,,,,,,,,
,5c31fdbafe0b5000012474e5,627c704acd775c2bfef48fa4,2022-05-12_03h27.57.299,classification_task,2021.2.3,Win32,59.95203837,627c6715c52fd12f31907bd0,,,,,,,,,,,,,,,,,,,,,,,l,0,1.9519,"[""0.163"",""0.481"",""0.793"",""0.947""]","[1,1,0,1]",0,30,30,30,1,0,0,,,0,FALSE,,,,,,,,,,,,,,,,,,,,,,,,,,,,,,,
,5c31fdbafe0b5000012474e5,627c704acd775c2bfef48fa4,2022-05-12_03h27.57.299,classification_task,2021.2.3,Win32,59.95203837,627c6715c52fd12f31907bd0,,,,,,,,,,,,,,,,,,,,,,,l,1,2.4968,"[""0.059"",""0.201"",""0.436"",""0.400""]","[1,1,1,0]",0,31,31,31,1,1,0,,,0,FALSE,,,,,,,,,,,,,,,,,,,,,,,,,,,,,,,
,5c31fdbafe0b5000012474e5,627c704acd775c2bfef48fa4,2022-05-12_03h27.57.299,classification_task,2021.2.3,Win32,59.95203837,627c6715c52fd12f31907bd0,,,,,,,,,,,,,,,,,,,,,,,l,1,1.6499,"[""0.106"",""0.870"",""0.544"",""0.836""]","[1,0,1,1]",0,32,32,32,1,1,1,,,0,FALSE,,,,,,,,,,,,,,,,,,,,,,,,,,,,,,,
,5c31fdbafe0b5000012474e5,627c704acd775c2bfef48fa4,2022-05-12_03h27.57.299,classification_task,2021.2.3,Win32,59.95203837,627c6715c52fd12f31907bd0,,,,,,,,,,,,,,,,,,,,,,,l,0,1.6118,"[""0.163"",""0.792"",""0.616"",""0.947""]","[1,0,1,1]",0,33,33,33,1,0,0,,,0,FALSE,,,,,,,,,,,,,,,,,,,,,,,,,,,,,,,
,5c31fdbafe0b5000012474e5,627c704acd775c2bfef48fa4,2022-05-12_03h27.57.299,classification_task,2021.2.3,Win32,59.95203837,627c6715c52fd12f31907bd0,,,,,,,,,,,,,,,,,,,,,,,l,0,1.4835,"[""0.246"",""0.353"",""0.654"",""0.904""]","[1,1,0,1]",0,34,34,34,1,0,1,,,0,FALSE,,,,,,,,,,,,,,,,,,,,,,,,,,,,,,,
,5c31fdbafe0b5000012474e5,627c704acd775c2bfef48fa4,2022-05-12_03h27.57.299,classification_task,2021.2.3,Win32,59.95203837,627c6715c52fd12f31907bd0,,,,,,,,,,,,,,,,,,,,,,,a,0,3.3855,"[""0.059"",""0.201"",""0.388"",""0.758""]","[1,1,0,1]",0,35,35,35,1,1,0,,,0,FALSE,,,,,,,,,,,,,,,,,,,,,,,,,,,,,,,
,5c31fdbafe0b5000012474e5,627c704acd775c2bfef48fa4,2022-05-12_03h27.57.299,classification_task,2021.2.3,Win32,59.95203837,627c6715c52fd12f31907bd0,,,,,,,,,,,,,,,,,,,,,,,l,0,1.6647,"[""0.246"",""0.390"",""0.696"",""0.904""]","[1,0,1,1]",0,36,36,36,1,0,1,,,0,FALSE,,,,,,,,,,,,,,,,,,,,,,,,,,,,,,,
,5c31fdbafe0b5000012474e5,627c704acd775c2bfef48fa4,2022-05-12_03h27.57.299,classification_task,2021.2.3,Win32,59.95203837,627c6715c52fd12f31907bd0,,,,,,,,,,,,,,,,,,,,,,,a,0,1.6669,"[""0.654"",""0.201"",""0.436"",""0.758""]","[0,1,1,1]",0,37,37,37,1,1,0,,,0,FALSE,,,,,,,,,,,,,,,,,,,,,,,,,,,,,,,
,5c31fdbafe0b5000012474e5,627c704acd775c2bfef48fa4,2022-05-12_03h27.57.299,classification_task,2021.2.3,Win32,59.95203837,627c6715c52fd12f31907bd0,,,,,,,,,,,,,,,,,,,,,,,l,0,1.1995,"[""0.792"",""0.481"",""0.616"",""0.947""]","[0,1,1,1]",0,38,38,38,1,0,0,,,0,FALSE,,,,,,,,,,,,,,,,,,,,,,,,,,,,,,,
,5c31fdbafe0b5000012474e5,627c704acd775c2bfef48fa4,2022-05-12_03h27.57.299,classification_task,2021.2.3,Win32,59.95203837,627c6715c52fd12f31907bd0,,,,,,,,,,,,,,,,,,,,,,,l,0,1.6676,"[""0.163"",""0.481"",""0.616"",""0.799""]","[1,1,1,0]",0,39,39,39,1,0,0,,,0,FALSE,,,,,,,,,,,,,,,,,,,,,,,,,,,,,,,
,5c31fdbafe0b5000012474e5,627c704acd775c2bfef48fa4,2022-05-12_03h27.57.299,classification_task,2021.2.3,Win32,59.95203837,627c6715c52fd12f31907bd0,,,,,,,,,,,,,,,,,,,,,,,a,0,1.3788,"[""0.389"",""0.301"",""0.544"",""0.836""]","[0,1,1,1]",0,40,40,40,1,1,1,,,0,FALSE,,,,,,,,,,,,,,,,,,,,,,,,,,,,,,,
,5c31fdbafe0b5000012474e5,627c704acd775c2bfef48fa4,2022-05-12_03h27.57.299,classification_task,2021.2.3,Win32,59.95203837,627c6715c52fd12f31907bd0,,,,,,,,,,,,,,,,,,,,,,,a,0,2.1508,"[""0.106"",""0.301"",""0.401"",""0.836""]","[1,1,0,1]",0,41,41,41,1,1,1,,,0,FALSE,,,,,,,,,,,,,,,,,,,,,,,,,,,,,,,
,5c31fdbafe0b5000012474e5,627c704acd775c2bfef48fa4,2022-05-12_03h27.57.299,classification_task,2021.2.3,Win32,59.95203837,627c6715c52fd12f31907bd0,,,,,,,,,,,,,,,,,,,,,,,l,0,2.3686,"[""0.246"",""0.353"",""0.696"",""0.025""]","[1,1,1,0]",0,42,42,42,1,0,1,,,0,FALSE,,,,,,,,,,,,,,,,,,,,,,,,,,,,,,,
,5c31fdbafe0b5000012474e5,627c704acd775c2bfef48fa4,2022-05-12_03h27.57.299,classification_task,2021.2.3,Win32,59.95203837,627c6715c52fd12f31907bd0,,,,,,,,,,,,,,,,,,,,,,,a,0,1.4272,"[""0.059"",""0.201"",""0.436"",""0.400""]","[1,1,1,0]",0,43,43,43,1,1,0,,,0,FALSE,,,,,,,,,,,,,,,,,,,,,,,,,,,,,,,
,5c31fdbafe0b5000012474e5,627c704acd775c2bfef48fa4,2022-05-12_03h27.57.299,classification_task,2021.2.3,Win32,59.95203837,627c6715c52fd12f31907bd0,,,,,,,,,,,,,,,,,,,,,,,a,0,1.4363,"[""0.059"",""0.389"",""0.436"",""0.758""]","[1,0,1,1]",0,44,44,44,1,1,0,,,0,FALSE,,,,,,,,,,,,,,,,,,,,,,,,,,,,,,,
,5c31fdbafe0b5000012474e5,627c704acd775c2bfef48fa4,2022-05-12_03h27.57.299,classification_task,2021.2.3,Win32,59.95203837,627c6715c52fd12f31907bd0,,,,,,,,,,,,,,,,,,,,,,,l,0,0.9149,"[""0.799"",""0.353"",""0.696"",""0.904""]","[0,1,1,1]",0,45,45,45,1,0,1,,,0,FALSE,,,,,,,,,,,,,,,,,,,,,,,,,,,,,,,
,5c31fdbafe0b5000012474e5,627c704acd775c2bfef48fa4,2022-05-12_03h27.57.299,classification_task,2021.2.3,Win32,59.95203837,627c6715c52fd12f31907bd0,,,,,,,,,,,,,,,,,,,,,,,l,1,1.2317,"[""0.106"",""0.301"",""0.544"",""0.025""]","[1,1,1,0]",0,46,46,46,1,1,1,,,0,FALSE,,,,,,,,,,,,,,,,,,,,,,,,,,,,,,,
,5c31fdbafe0b5000012474e5,627c704acd775c2bfef48fa4,2022-05-12_03h27.57.299,classification_task,2021.2.3,Win32,59.95203837,627c6715c52fd12f31907bd0,,,,,,,,,,,,,,,,,,,,,,,l,0,1.7343,"[""0.163"",""0.481"",""0.654"",""0.947""]","[1,1,0,1]",0,47,47,47,1,0,0,,,0,FALSE,,,,,,,,,,,,,,,,,,,,,,,,,,,,,,,
,5c31fdbafe0b5000012474e5,627c704acd775c2bfef48fa4,2022-05-12_03h27.57.299,classification_task,2021.2.3,Win32,59.95203837,627c6715c52fd12f31907bd0,,,,,,,,,,,,,,,,,,,,,,,l,0,2.1173,"[""0.163"",""0.799"",""0.616"",""0.947""]","[1,0,1,1]",0,48,48,48,1,0,0,,,0,FALSE,,,,,,,,,,,,,,,,,,,,,,,,,,,,,,,
,5c31fdbafe0b5000012474e5,627c704acd775c2bfef48fa4,2022-05-12_03h27.57.299,classification_task,2021.2.3,Win32,59.95203837,627c6715c52fd12f31907bd0,,,,,,,,,,,,,,,,,,,,,,,a,1,1.376,"[""0.163"",""0.481"",""0.793"",""0.947""]","[1,1,0,1]",0,49,49,49,1,0,0,,,0,FALSE,,,,,,,,,,,,,,,,,,,,,,,,,,,,,,,
,5c31fdbafe0b5000012474e5,627c704acd775c2bfef48fa4,2022-05-12_03h27.57.299,classification_task,2021.2.3,Win32,59.95203837,627c6715c52fd12f31907bd0,,,,,,,,,,,,,,,,,,,,,,,a,0,2.0666,"[""0.106"",""0.301"",""0.544"",""0.792""]","[1,1,1,0]",0,50,50,50,1,1,1,,,0,FALSE,,,,,,,,,,,,,,,,,,,,,,,,,,,,,,,
,5c31fdbafe0b5000012474e5,627c704acd775c2bfef48fa4,2022-05-12_03h27.57.299,classification_task,2021.2.3,Win32,59.95203837,627c6715c52fd12f31907bd0,,,,,,,,,,,,,,,,,,,,,,,a,0,1.282,"[""0.059"",""0.201"",""0.792"",""0.758""]","[1,1,0,1]",0,51,51,51,1,1,0,,,0,FALSE,,,,,,,,,,,,,,,,,,,,,,,,,,,,,,,
,5c31fdbafe0b5000012474e5,627c704acd775c2bfef48fa4,2022-05-12_03h27.57.299,classification_task,2021.2.3,Win32,59.95203837,627c6715c52fd12f31907bd0,,,,,,,,,,,,,,,,,,,,,,,l,0,1.3154,"[""0.870"",""0.481"",""0.616"",""0.947""]","[0,1,1,1]",0,52,52,52,1,0,0,,,0,FALSE,,,,,,,,,,,,,,,,,,,,,,,,,,,,,,,
,5c31fdbafe0b5000012474e5,627c704acd775c2bfef48fa4,2022-05-12_03h27.57.299,classification_task,2021.2.3,Win32,59.95203837,627c6715c52fd12f31907bd0,,,,,,,,,,,,,,,,,,,,,,,a,0,1.2684,"[""0.870"",""0.301"",""0.544"",""0.836""]","[0,1,1,1]",0,53,53,53,1,1,1,,,0,FALSE,,,,,,,,,,,,,,,,,,,,,,,,,,,,,,,
,5c31fdbafe0b5000012474e5,627c704acd775c2bfef48fa4,2022-05-12_03h27.57.299,classification_task,2021.2.3,Win32,59.95203837,627c6715c52fd12f31907bd0,,,,,,,,,,,,,,,,,,,,,,,a,0,1.7335,"[""0.059"",""0.201"",""0.436"",""0.390""]","[1,1,1,0]",0,54,54,54,1,1,0,,,0,FALSE,,,,,,,,,,,,,,,,,,,,,,,,,,,,,,,
,5c31fdbafe0b5000012474e5,627c704acd775c2bfef48fa4,2022-05-12_03h27.57.299,classification_task,2021.2.3,Win32,59.95203837,627c6715c52fd12f31907bd0,,,,,,,,,,,,,,,,,,,,,,,l,1,0.917,"[""0.106"",""0.401"",""0.544"",""0.836""]","[1,0,1,1]",0,55,55,55,1,1,1,,,0,FALSE,,,,,,,,,,,,,,,,,,,,,,,,,,,,,,,
,5c31fdbafe0b5000012474e5,627c704acd775c2bfef48fa4,2022-05-12_03h27.57.299,classification_task,2021.2.3,Win32,59.95203837,627c6715c52fd12f31907bd0,,,,,,,,,,,,,,,,,,,,,,,l,0,2.2163,"[""0.390"",""0.353"",""0.696"",""0.904""]","[0,1,1,1]",0,56,56,56,1,0,1,,,0,FALSE,,,,,,,,,,,,,,,,,,,,,,,,,,,,,,,
,5c31fdbafe0b5000012474e5,627c704acd775c2bfef48fa4,2022-05-12_03h27.57.299,classification_task,2021.2.3,Win32,59.95203837,627c6715c52fd12f31907bd0,,,,,,,,,,,,,,,,,,,,,,,l,0,1.7331,"[""0.163"",""0.481"",""0.616"",""0.401""]","[1,1,1,0]",0,57,57,57,1,0,0,,,0,FALSE,,,,,,,,,,,,,,,,,,,,,,,,,,,,,,,
,5c31fdbafe0b5000012474e5,627c704acd775c2bfef48fa4,2022-05-12_03h27.57.299,classification_task,2021.2.3,Win32,59.95203837,627c6715c52fd12f31907bd0,,,,,,,,,,,,,,,,,,,,,,,l,0,1.0481,"[""0.246"",""0.401"",""0.696"",""0.904""]","[1,0,1,1]",0,58,58,58,1,0,1,,,0,FALSE,,,,,,,,,,,,,,,,,,,,,,,,,,,,,,,
,5c31fdbafe0b5000012474e5,627c704acd775c2bfef48fa4,2022-05-12_03h27.57.299,classification_task,2021.2.3,Win32,59.95203837,627c6715c52fd12f31907bd0,,,,,,,,,,,,,,,,,,,,,,,l,0,1.8325,"[""0.246"",""0.353"",""0.696"",""0.579""]","[1,1,1,0]",0,59,59,59,1,0,1,,,0,FALSE,,,,,,,,,,,,,,,,,,,,,,,,,,,,,,,
,5c31fdbafe0b5000012474e5,627c704acd775c2bfef48fa4,2022-05-12_03h27.57.299,classification_task,2021.2.3,Win32,59.95203837,627c6715c52fd12f31907bd0,,,,,,,,,,,,,,,,,,,,,,,l,0,1.0179,"[""0.246"",""0.353"",""0.398"",""0.904""]","[1,1,0,1]",0,60,60,60,1,0,1,,,0,FALSE,,,,,,,,,,,,,,,,,,,,,,,,,,,,,,,
,5c31fdbafe0b5000012474e5,627c704acd775c2bfef48fa4,2022-05-12_03h27.57.299,classification_task,2021.2.3,Win32,59.95203837,627c6715c52fd12f31907bd0,,,,,,,,,,,,,,,,,,,,,,,l,1,1.2117,"[""0.106"",""0.301"",""0.659"",""0.836""]","[1,1,0,1]",0,61,61,61,1,1,1,,,0,FALSE,,,,,,,,,,,,,,,,,,,,,,,,,,,,,,,
,5c31fdbafe0b5000012474e5,627c704acd775c2bfef48fa4,2022-05-12_03h27.57.299,classification_task,2021.2.3,Win32,59.95203837,627c6715c52fd12f31907bd0,,,,,,,,,,,,,,,,,,,,,,,a,0,1.5835,"[""0.059"",""0.388"",""0.436"",""0.758""]","[1,0,1,1]",0,62,62,62,1,1,0,,,0,FALSE,,,,,,,,,,,,,,,,,,,,,,,,,,,,,,,
,5c31fdbafe0b5000012474e5,627c704acd775c2bfef48fa4,2022-05-12_03h27.57.299,classification_task,2021.2.3,Win32,59.95203837,627c6715c52fd12f31907bd0,,,,,,,,,,,,,,,,,,,,,,,l,1,1.8019,"[""0.659"",""0.201"",""0.436"",""0.758""]","[0,1,1,1]",0,63,63,63,1,1,0,,,0,FALSE,,,,,,,,,,,,,,,,,,,,,,,,,,,,,,,
,5c31fdbafe0b5000012474e5,627c704acd775c2bfef48fa4,2022-05-12_03h27.57.299,classification_task,2021.2.3,Win32,59.95203837,627c6715c52fd12f31907bd0,,,,,,,,,,,,,,,,,,,,,,,,,,,,,,,,,,,,,,,0, ,,0,0,203.5242,0,2,2,2,1,2,3,,,,,,,,,,,,,,,,,,
,5c31fdbafe0b5000012474e5,627c704acd775c2bfef48fa4,2022-05-12_03h27.57.299,classification_task,2021.2.3,Win32,59.95203837,627c6715c52fd12f31907bd0,,,,,,,,,,,,,,,,,,,,,,,,,,,,,,,,,,,,,,,1,  ,,0,9.761904762,207.3886,0,2,2,2,1,2,3,,,,,,,,,,,,,,,,,,
,5c31fdbafe0b5000012474e5,627c704acd775c2bfef48fa4,2022-05-12_03h27.57.299,classification_task,2021.2.3,Win32,59.95203837,627c6715c52fd12f31907bd0,,,,,,,,,,,,,,,,,,,,,,,,,,,,,,,,,,,,,,,2,  ,,0,0,209.9161,0,2,2,2,1,2,3,,,,,,,,,,,,,,,,,,
,5c31fdbafe0b5000012474e5,627c704acd775c2bfef48fa4,2022-05-12_03h27.57.299,classification_task,2021.2.3,Win32,59.95203837,627c6715c52fd12f31907bd0,,,,,,,,,,,,,,,,,,,,,,,,,,,,,,,,,,,,,,,,,,,,,0,2,2,2,1,,3,,,,,,,,,,,,,,,,,,
,5c31fdbafe0b5000012474e5,627c704acd775c2bfef48fa4,2022-05-12_03h27.57.299,classification_task,2021.2.3,Win32,59.95203837,627c6715c52fd12f31907bd0,,,,,,,,,,,,,,,,,,,,,,,,,,,,,,,,,,,,,,,,,,,,,,,,,,,,,I believe the aid is a competent performer,,0.7,0,5,933.6041,0,0,0,0,1,0,,,,,
,5c31fdbafe0b5000012474e5,627c704acd775c2bfef48fa4,2022-05-12_03h27.57.299,classification_task,2021.2.3,Win32,59.95203837,627c6715c52fd12f31907bd0,,,,,,,,,,,,,,,,,,,,,,,,,,,,,,,,,,,,,,,,,,,,,,,,,,,,,I trust the aid,,0.7,0,4,935.1533,0,0,0,0,1,0,,,,,
,5c31fdbafe0b5000012474e5,627c704acd775c2bfef48fa4,2022-05-12_03h27.57.299,classification_task,2021.2.3,Win32,59.95203837,627c6715c52fd12f31907bd0,,,,,,,,,,,,,,,,,,,,,,,,,,,,,,,,,,,,,,,,,,,,,,,,,,,,,I have confidence in the advice given by the aid,,0.7,0,4,937.0251,0,0,0,0,1,0,,,,,
,5c31fdbafe0b5000012474e5,627c704acd775c2bfef48fa4,2022-05-12_03h27.57.299,classification_task,2021.2.3,Win32,59.95203837,627c6715c52fd12f31907bd0,,,,,,,,,,,,,,,,,,,,,,,,,,,,,,,,,,,,,,,,,,,,,,,,,,,,,I can depend on the aid,,0.7,0,5,939.9281,0,0,0,0,1,0,,,,,
,5c31fdbafe0b5000012474e5,627c704acd775c2bfef48fa4,2022-05-12_03h27.57.299,classification_task,2021.2.3,Win32,59.95203837,627c6715c52fd12f31907bd0,,,,,,,,,,,,,,,,,,,,,,,,,,,,,,,,,,,,,,,,,,,,,,,,,,,,,I can rely on the aid to behave in consistent ways,,0.7,0,4,943.1091,0,0,0,0,1,0,,,,,
,5c31fdbafe0b5000012474e5,627c704acd775c2bfef48fa4,2022-05-12_03h27.57.299,classification_task,2021.2.3,Win32,59.95203837,627c6715c52fd12f31907bd0,,,,,,,,,,,,,,,,,,,,,,,,,,,,,,,,,,,,,,,,,,,,,,,,,,,,,I can rely on the aid to do its best every time I take its advice,,0.7,0,4,948.2797,0,0,0,0,1,0,,,,,
,5c31fdbafe0b5000012474e5,627c704acd775c2bfef48fa4,2022-05-12_03h27.57.299,classification_task,2021.2.3,Win32,59.95203837,627c6715c52fd12f31907bd0,,,,,,,,,,,,,,,,,,,,,,,,,,,,,,,,,,,,,,,,,,,,,,,,,,,,,"On trials you completed with assistance from the aid, how frequently did you think the aid was correct?",,0.7,0,80,,0,0,0,0,1,0,,,,,
,5c31fdbafe0b5000012474e5,627c704acd775c2bfef48fa4,2022-05-12_03h27.57.299,classification_task,2021.2.3,Win32,59.95203837,627c6715c52fd12f31907bd0,,,,,,,,,,,,,,,,,,,,,,,,,,,,,,,,,,,,,,,,,,,,,,,,,,,,,"On trials you completed without the aid, how frequently did you think you were correct?",,0.7,0,30,,0,0,0,0,1,0,,,,,
,5c31fdbafe0b5000012474e5,627c704acd775c2bfef48fa4,2022-05-12_03h27.57.299,classification_task,2021.2.3,Win32,59.95203837,627c6715c52fd12f31907bd0,,,,,,,,,,,,,,,,,,,,,,,,,,,,,,,,,,,,,,,,,,,,,,,,,,,,,,,,,,,0,0,0,0,1,,,,,,
,5c31fdbafe0b5000012474e5,627c704acd775c2bfef48fa4,2022-05-12_03h27.57.299,classification_task,2021.2.3,Win32,59.95203837,627c6715c52fd12f31907bd0,,,,,,,,,,,,,,,,,,,,,,,,,,,,,,,,,,,,,,,,,,,,,,,,,,,,,,,,,,,,,,,,,space,9.8673,975.5277,,
,5c31fdbafe0b5000012474e5,627c704acd775c2bfef48fa4,2022-05-12_03h27.57.299,classification_task,2021.2.3,Win32,59.95203837,627c6715c52fd12f31907bd0,,,,,,,,,,,,,,,,,,,,,,,,,,,,,,,,,,,,,,,,,,,,,,,,,,,,,,,,,,,,,,,,,,,,"Mozilla/5.0 (Windows NT 10.0; Win64; x64) AppleWebKit/537.36 (KHTML, like Gecko) Chrome/101.0.4951.64 Safari/537.36",
,5c31fdbafe0b5000012474e5,627c704acd775c2bfef48fa4,2022-05-12_03h27.57.299,classification_task,2021.2.3,Win32,59.95203837,627c6715c52fd12f31907bd0,,,,,,,,,,,,,,,,,,,,,,,,,,,,,,,,,,,,,,,,,,,,,,,,,,,,,,,,,,,,,,,,,,,,,LOWLIGHT
