usingWebGL,participant,session,date,expName,psychopyVersion,OS,frameRate,study_id,signatures_friend,signatures_foe,band_ranges_top,band_ranges_bottom,formitemText,formtype,formundefined,formitemWidth,formindex,formresponse,formrt,key_resp_2.keys,key_resp_2.rt,tute_resp.keys,tute_resp.rt,tutorial.thisRepN,tutorial.thisTrialN,tutorial.thisN,tutorial.thisIndex,tutorial.ran,key_resp_4.keys,key_resp_4.rt,key_resp.keys,key_resp.corr,key_resp.rt,lines_presented,is_signal_presented,trials.thisRepN,trials.thisTrialN,trials.thisN,trials.thisIndex,trials.ran,vessel,active_band,lines,is_signal,supported_pos,catch_trial,debrief_formindex,debrief_formitemText,debrief_formtype,debrief_formitemWidth,debrief_formresponse,debrief_formrt,phases.thisRepN,phases.thisTrialN,phases.thisN,phases.thisIndex,phases.ran,phases.order,phase,key_resp_3.keys,trustitemText,trusttype,trustitemWidth,trustindex,trustresponse,trustrt,support_status.thisRepN,support_status.thisTrialN,support_status.thisN,support_status.thisIndex,support_status.ran,support_status.order,key_resp_5.keys,key_resp_5.rt,globalClockTime,userAgent,manualCondition
TRUE,5c4e36a07065de00011f7a6d,627c6974f0656182f5c56abc,2022-05-12_02h57.20.022,classification_task,2021.2.3,Win32,143.9884809,627c6715c52fd12f31907bcf,,,,,,,,,,,,,,,,,,,,,,,,,,,,,,,,,,,,,,,,,,,,,,,,,,,,,,,,,,,,,,,,,,,,,
,5c4e36a07065de00011f7a6d,627c6974f0656182f5c56abc,2022-05-12_02h57.20.022,classification_task,2021.2.3,Win32,143.9884809,627c6715c52fd12f31907bcf,"[[""0.163"",""0.424"",""0.882"",""0.923""],[""0.319"",""0.381"",""0.845"",""0.974""]]","[[""0.129"",""0.214"",""0.498"",""0.810""],[""0.049"",""0.085"",""0.554"",""0.776""]]","[1,10]","[100,1000]",Video game experience,,,0.7,0,,,,,,,,,,,,,,,,,,,,,,,,,,,,,,,,,,,,,,,,,,,,,,,,,,,,,,,,,,,,
,5c4e36a07065de00011f7a6d,627c6974f0656182f5c56abc,2022-05-12_02h57.20.022,classification_task,2021.2.3,Win32,143.9884809,627c6715c52fd12f31907bcf,,,,,Approximately how many hours did you spend playing video games in the last week?,,,0.7,0,20,,,,,,,,,,,,,,,,,,,,,,,,,,,,,,,,,,,,,,,,,,,,,,,,,,,,,,,,,,,
,5c4e36a07065de00011f7a6d,627c6974f0656182f5c56abc,2022-05-12_02h57.20.022,classification_task,2021.2.3,Win32,143.9884809,627c6715c52fd12f31907bcf,,,,,"Which game did you play the most this year? (Enter ""None"" if you didn't play any)",,,0.7,0,League of Legends,,,,,,,,,,,,,,,,,,,,,,,,,,,,,,,,,,,,,,,,,,,,,,,,,,,,,,,,,,,
,5c4e36a07065de00011f7a6d,627c6974f0656182f5c56abc,2022-05-12_02h57.20.022,classification_task,2021.2.3,Win32,143.9884809,627c6715c52fd12f31907bcf,,,,,Visual perception,,,0.7,0,,,,,,,,,,,,,,,,,,,,,,,,,,,,,,,,,,,,,,,,,,,,,,,,,,,,,,,,,,,,
,5c4e36a07065de00011f7a6d,627c6974f0656182f5c56abc,2022-05-12_02h57.20.022,classification_task,2021.2.3,Win32,143.9884809,627c6715c52fd12f31907bcf,,,,,Do you have any form of color blindness?,,,0.7,0,No,19.9096,,,,,,,,,,,,,,,,,,,,,,,,,,,,,,,,,,,,,,,,,,,,,,,,,,,,,,,,,,
,5c4e36a07065de00011f7a6d,627c6974f0656182f5c56abc,2022-05-12_02h57.20.022,classification_task,2021.2.3,Win32,143.9884809,627c6715c52fd12f31907bcf,,,,,Do you use software to change the colour temperature of your screen (e.g. f.lux)?,,,0.7,0,Yes,22.484,,,,,,,,,,,,,,,,,,,,,,,,,,,,,,,,,,,,,,,,,,,,,,,,,,,,,,,,,,
,5c4e36a07065de00011f7a6d,627c6974f0656182f5c56abc,2022-05-12_02h57.20.022,classification_task,2021.2.3,Win32,143.9884809,627c6715c52fd12f31907bcf,,,,,,,,,,,,space,28.7922,space,8.7843,0,0,0,0,1,,,,,,,,,,,,,,,,,,,,,,,,,,,,,,,,,,,,,,,,,,,,,,,,,
,5c4e36a07065de00011f7a6d,627c6974f0656182f5c56abc,2022-05-12_02h57.20.022,classification_task,2021.2.3,Win32,143.9884809,627c6715c52fd12f31907bcf,,,,,,,,,,,,,,space,8.2716,1,0,1,0,1,,,,,,,,,,,,,,,,,,,,,,,,,,,,,,,,,,,,,,,,,,,,,,,,,
,5c4e36a07065de00011f7a6d,627c6974f0656182f5c56abc,2022-05-12_02h57.20.022,classification_task,2021.2.3,Win32,143.9884809,627c6715c52fd12f31907bcf,,,,,,,,,,,,,,space,23.4382,2,0,2,0,1,,,,,,,,,,,,,,,,,,,,,,,,,,,,,,,,,,,,,,,,,,,,,,,,,
,5c4e36a07065de00011f7a6d,627c6974f0656182f5c56abc,2022-05-12_02h57.20.022,classification_task,2021.2.3,Win32,143.9884809,627c6715c52fd12f31907bcf,,,,,,,,,,,,,,space,15.5153,3,0,3,0,1,,,,,,,,,,,,,,,,,,,,,,,,,,,,,,,,,,,,,,,,,,,,,,,,,
,5c4e36a07065de00011f7a6d,627c6974f0656182f5c56abc,2022-05-12_02h57.20.022,classification_task,2021.2.3,Win32,143.9884809,627c6715c52fd12f31907bcf,,,,,,,,,,,,,,space,11.0609,4,0,4,0,1,,,,,,,,,,,,,,,,,,,,,,,,,,,,,,,,,,,,,,,,,,,,,,,,,
,5c4e36a07065de00011f7a6d,627c6974f0656182f5c56abc,2022-05-12_02h57.20.022,classification_task,2021.2.3,Win32,143.9884809,627c6715c52fd12f31907bcf,,,,,,,,,,,,,,,,,,,,,space,11.8395,l,1,2.8256,"[""0.049"",""0.085"",""0.554"",""0.709""]","[1,1,1,0]",0,0,0,0,1,1,1,,,0,FALSE,,,,,,,,,,,,,,,,,,,,,,,,,,,,,,,
,5c4e36a07065de00011f7a6d,627c6974f0656182f5c56abc,2022-05-12_02h57.20.022,classification_task,2021.2.3,Win32,143.9884809,627c6715c52fd12f31907bcf,,,,,,,,,,,,,,,,,,,,,,,l,1,3.3167,"[""0.049"",""0.710"",""0.554"",""0.776""]","[1,0,1,1]",0,1,1,1,1,1,1,,,0,FALSE,,,,,,,,,,,,,,,,,,,,,,,,,,,,,,,
,5c4e36a07065de00011f7a6d,627c6974f0656182f5c56abc,2022-05-12_02h57.20.022,classification_task,2021.2.3,Win32,143.9884809,627c6715c52fd12f31907bcf,,,,,,,,,,,,,,,,,,,,,,,a,1,6.2085,"[""0.163"",""0.424"",""0.882"",""0.616""]","[1,1,1,0]",0,2,2,2,1,0,0,,,0,FALSE,,,,,,,,,,,,,,,,,,,,,,,,,,,,,,,
,5c4e36a07065de00011f7a6d,627c6974f0656182f5c56abc,2022-05-12_02h57.20.022,classification_task,2021.2.3,Win32,143.9884809,627c6715c52fd12f31907bcf,,,,,,,,,,,,,,,,,,,,,,,a,1,4.6484,"[""0.163"",""0.424"",""0.264"",""0.923""]","[1,1,0,1]",0,3,3,3,1,0,0,,,0,FALSE,,,,,,,,,,,,,,,,,,,,,,,,,,,,,,,
,5c4e36a07065de00011f7a6d,627c6974f0656182f5c56abc,2022-05-12_02h57.20.022,classification_task,2021.2.3,Win32,143.9884809,627c6715c52fd12f31907bcf,,,,,,,,,,,,,,,,,,,,,,,,0,,"[""0.631"",""0.381"",""0.845"",""0.974""]","[0,1,1,1]",0,4,4,4,1,0,1,,,0,FALSE,,,,,,,,,,,,,,,,,,,,,,,,,,,,,,,
,5c4e36a07065de00011f7a6d,627c6974f0656182f5c56abc,2022-05-12_02h57.20.022,classification_task,2021.2.3,Win32,143.9884809,627c6715c52fd12f31907bcf,,,,,,,,,,,,,,,,,,,,,,,l,1,3.6569,"[""0.129"",""0.710"",""0.498"",""0.810""]","[1,0,1,1]",0,5,5,5,1,1,0,,,0,FALSE,,,,,,,,,,,,,,,,,,,,,,,,,,,,,,,
,5c4e36a07065de00011f7a6d,627c6974f0656182f5c56abc,2022-05-12_02h57.20.022,classification_task,2021.2.3,Win32,143.9884809,627c6715c52fd12f31907bcf,,,,,,,,,,,,,,,,,,,,,,,l,1,1.8225,"[""0.129"",""0.214"",""0.498"",""0.616""]","[1,1,1,0]",0,6,6,6,1,1,0,,,0,FALSE,,,,,,,,,,,,,,,,,,,,,,,,,,,,,,,
,5c4e36a07065de00011f7a6d,627c6974f0656182f5c56abc,2022-05-12_02h57.20.022,classification_task,2021.2.3,Win32,143.9884809,627c6715c52fd12f31907bcf,,,,,,,,,,,,,,,,,,,,,,,l,1,5.3582,"[""0.630"",""0.214"",""0.498"",""0.810""]","[0,1,1,1]",0,7,7,7,1,1,0,,,0,FALSE,,,,,,,,,,,,,,,,,,,,,,,,,,,,,,,
,5c4e36a07065de00011f7a6d,627c6974f0656182f5c56abc,2022-05-12_02h57.20.022,classification_task,2021.2.3,Win32,143.9884809,627c6715c52fd12f31907bcf,,,,,,,,,,,,,,,,,,,,,,,a,1,3.3683,"[""0.319"",""0.381"",""0.845"",""0.592""]","[1,1,1,0]",0,8,8,8,1,0,1,,,0,FALSE,,,,,,,,,,,,,,,,,,,,,,,,,,,,,,,
,5c4e36a07065de00011f7a6d,627c6974f0656182f5c56abc,2022-05-12_02h57.20.022,classification_task,2021.2.3,Win32,143.9884809,627c6715c52fd12f31907bcf,,,,,,,,,,,,,,,,,,,,,,,l,1,1.8561,"[""0.049"",""0.085"",""0.710"",""0.776""]","[1,1,0,1]",0,9,9,9,1,1,1,,,0,FALSE,,,,,,,,,,,,,,,,,,,,,,,,,,,,,,,
,5c4e36a07065de00011f7a6d,627c6974f0656182f5c56abc,2022-05-12_02h57.20.022,classification_task,2021.2.3,Win32,143.9884809,627c6715c52fd12f31907bcf,,,,,,,,,,,,,,,,,,,,,,,a,1,2.285,"[""0.319"",""0.605"",""0.845"",""0.974""]","[1,0,1,1]",0,10,10,10,1,0,1,,,0,FALSE,,,,,,,,,,,,,,,,,,,,,,,,,,,,,,,
,5c4e36a07065de00011f7a6d,627c6974f0656182f5c56abc,2022-05-12_02h57.20.022,classification_task,2021.2.3,Win32,143.9884809,627c6715c52fd12f31907bcf,,,,,,,,,,,,,,,,,,,,,,,a,1,4.292,"[""0.605"",""0.424"",""0.882"",""0.923""]","[0,1,1,1]",0,11,11,11,1,0,0,,,0,FALSE,,,,,,,,,,,,,,,,,,,,,,,,,,,,,,,
,5c4e36a07065de00011f7a6d,627c6974f0656182f5c56abc,2022-05-12_02h57.20.022,classification_task,2021.2.3,Win32,143.9884809,627c6715c52fd12f31907bcf,,,,,,,,,,,,,,,,,,,,,,,l,1,2.5847,"[""0.264"",""0.085"",""0.554"",""0.776""]","[0,1,1,1]",0,12,12,12,1,1,1,,,0,FALSE,,,,,,,,,,,,,,,,,,,,,,,,,,,,,,,
,5c4e36a07065de00011f7a6d,627c6974f0656182f5c56abc,2022-05-12_02h57.20.022,classification_task,2021.2.3,Win32,143.9884809,627c6715c52fd12f31907bcf,,,,,,,,,,,,,,,,,,,,,,,a,1,2.2365,"[""0.319"",""0.381"",""0.651"",""0.974""]","[1,1,0,1]",0,13,13,13,1,0,1,,,0,FALSE,,,,,,,,,,,,,,,,,,,,,,,,,,,,,,,
,5c4e36a07065de00011f7a6d,627c6974f0656182f5c56abc,2022-05-12_02h57.20.022,classification_task,2021.2.3,Win32,143.9884809,627c6715c52fd12f31907bcf,,,,,,,,,,,,,,,,,,,,,,,l,1,1.8576,"[""0.129"",""0.214"",""0.687"",""0.810""]","[1,1,0,1]",0,14,14,14,1,1,0,,,0,FALSE,,,,,,,,,,,,,,,,,,,,,,,,,,,,,,,
,5c4e36a07065de00011f7a6d,627c6974f0656182f5c56abc,2022-05-12_02h57.20.022,classification_task,2021.2.3,Win32,143.9884809,627c6715c52fd12f31907bcf,,,,,,,,,,,,,,,,,,,,,,,a,1,2.1675,"[""0.163"",""0.651"",""0.882"",""0.923""]","[1,0,1,1]",0,15,15,15,1,0,0,,,0,FALSE,,,,,,,,,,,,,,,,,,,,,,,,,,,,,,,
,5c4e36a07065de00011f7a6d,627c6974f0656182f5c56abc,2022-05-12_02h57.20.022,classification_task,2021.2.3,Win32,143.9884809,627c6715c52fd12f31907bcf,,,,,,,,,,,,,,,,,,,,,,,a,1,2.7791,"[""0.163"",""0.424"",""0.882"",""0.630""]","[1,1,1,0]",0,16,16,16,1,0,0,,,0,FALSE,,,,,,,,,,,,,,,,,,,,,,,,,,,,,,,
,5c4e36a07065de00011f7a6d,627c6974f0656182f5c56abc,2022-05-12_02h57.20.022,classification_task,2021.2.3,Win32,143.9884809,627c6715c52fd12f31907bcf,,,,,,,,,,,,,,,,,,,,,,,a,1,2.0837,"[""0.163"",""0.424"",""0.655"",""0.923""]","[1,1,0,1]",0,17,17,17,1,0,0,,,0,FALSE,,,,,,,,,,,,,,,,,,,,,,,,,,,,,,,
,5c4e36a07065de00011f7a6d,627c6974f0656182f5c56abc,2022-05-12_02h57.20.022,classification_task,2021.2.3,Win32,143.9884809,627c6715c52fd12f31907bcf,,,,,,,,,,,,,,,,,,,,,,,l,1,1.1116,"[""0.129"",""0.653"",""0.498"",""0.810""]","[1,0,1,1]",0,18,18,18,1,1,0,,,0,FALSE,,,,,,,,,,,,,,,,,,,,,,,,,,,,,,,
,5c4e36a07065de00011f7a6d,627c6974f0656182f5c56abc,2022-05-12_02h57.20.022,classification_task,2021.2.3,Win32,143.9884809,627c6715c52fd12f31907bcf,,,,,,,,,,,,,,,,,,,,,,,l,1,1.97,"[""0.129"",""0.214"",""0.498"",""0.655""]","[1,1,1,0]",0,19,19,19,1,1,0,,,0,FALSE,,,,,,,,,,,,,,,,,,,,,,,,,,,,,,,
,5c4e36a07065de00011f7a6d,627c6974f0656182f5c56abc,2022-05-12_02h57.20.022,classification_task,2021.2.3,Win32,143.9884809,627c6715c52fd12f31907bcf,,,,,,,,,,,,,,,,,,,,,,,l,1,1.904,"[""0.129"",""0.214"",""0.264"",""0.810""]","[1,1,0,1]",0,20,20,20,1,1,0,,,0,FALSE,,,,,,,,,,,,,,,,,,,,,,,,,,,,,,,
,5c4e36a07065de00011f7a6d,627c6974f0656182f5c56abc,2022-05-12_02h57.20.022,classification_task,2021.2.3,Win32,143.9884809,627c6715c52fd12f31907bcf,,,,,,,,,,,,,,,,,,,,,,,a,1,1.8955,"[""0.319"",""0.381"",""0.845"",""0.626""]","[1,1,1,0]",0,21,21,21,1,0,1,,,0,FALSE,,,,,,,,,,,,,,,,,,,,,,,,,,,,,,,
,5c4e36a07065de00011f7a6d,627c6974f0656182f5c56abc,2022-05-12_02h57.20.022,classification_task,2021.2.3,Win32,143.9884809,627c6715c52fd12f31907bcf,,,,,,,,,,,,,,,,,,,,,,,l,1,3.0963,"[""0.605"",""0.085"",""0.554"",""0.776""]","[0,1,1,1]",0,22,22,22,1,1,1,,,0,FALSE,,,,,,,,,,,,,,,,,,,,,,,,,,,,,,,
,5c4e36a07065de00011f7a6d,627c6974f0656182f5c56abc,2022-05-12_02h57.20.022,classification_task,2021.2.3,Win32,143.9884809,627c6715c52fd12f31907bcf,,,,,,,,,,,,,,,,,,,,,,,a,1,1.423,"[""0.319"",""0.461"",""0.845"",""0.974""]","[1,0,1,1]",0,23,23,23,1,0,1,,,0,FALSE,,,,,,,,,,,,,,,,,,,,,,,,,,,,,,,
,5c4e36a07065de00011f7a6d,627c6974f0656182f5c56abc,2022-05-12_02h57.20.022,classification_task,2021.2.3,Win32,143.9884809,627c6715c52fd12f31907bcf,,,,,,,,,,,,,,,,,,,,,,,l,1,3.1938,"[""0.653"",""0.214"",""0.498"",""0.810""]","[0,1,1,1]",0,24,24,24,1,1,0,,,0,FALSE,,,,,,,,,,,,,,,,,,,,,,,,,,,,,,,
,5c4e36a07065de00011f7a6d,627c6974f0656182f5c56abc,2022-05-12_02h57.20.022,classification_task,2021.2.3,Win32,143.9884809,627c6715c52fd12f31907bcf,,,,,,,,,,,,,,,,,,,,,,,a,1,2.8902,"[""0.592"",""0.424"",""0.882"",""0.923""]","[0,1,1,1]",0,25,25,25,1,0,0,,,0,FALSE,,,,,,,,,,,,,,,,,,,,,,,,,,,,,,,
,5c4e36a07065de00011f7a6d,627c6974f0656182f5c56abc,2022-05-12_02h57.20.022,classification_task,2021.2.3,Win32,143.9884809,627c6715c52fd12f31907bcf,,,,,,,,,,,,,,,,,,,,,,,a,1,4.2132,"[""0.709"",""0.381"",""0.845"",""0.974""]","[0,1,1,1]",0,26,26,26,1,0,1,,,0,FALSE,,,,,,,,,,,,,,,,,,,,,,,,,,,,,,,
,5c4e36a07065de00011f7a6d,627c6974f0656182f5c56abc,2022-05-12_02h57.20.022,classification_task,2021.2.3,Win32,143.9884809,627c6715c52fd12f31907bcf,,,,,,,,,,,,,,,,,,,,,,,l,1,1.4813,"[""0.049"",""0.085"",""0.554"",""0.710""]","[1,1,1,0]",0,27,27,27,1,1,1,,,0,FALSE,,,,,,,,,,,,,,,,,,,,,,,,,,,,,,,
,5c4e36a07065de00011f7a6d,627c6974f0656182f5c56abc,2022-05-12_02h57.20.022,classification_task,2021.2.3,Win32,143.9884809,627c6715c52fd12f31907bcf,,,,,,,,,,,,,,,,,,,,,,,a,1,2.0692,"[""0.163"",""0.461"",""0.882"",""0.923""]","[1,0,1,1]",0,28,28,28,1,0,0,,,0,FALSE,,,,,,,,,,,,,,,,,,,,,,,,,,,,,,,
,5c4e36a07065de00011f7a6d,627c6974f0656182f5c56abc,2022-05-12_02h57.20.022,classification_task,2021.2.3,Win32,143.9884809,627c6715c52fd12f31907bcf,,,,,,,,,,,,,,,,,,,,,,,l,1,2.144,"[""0.049"",""0.626"",""0.554"",""0.776""]","[1,0,1,1]",0,29,29,29,1,1,1,,,0,FALSE,,,,,,,,,,,,,,,,,,,,,,,,,,,,,,,
,5c4e36a07065de00011f7a6d,627c6974f0656182f5c56abc,2022-05-12_02h57.20.022,classification_task,2021.2.3,Win32,143.9884809,627c6715c52fd12f31907bcf,,,,,,,,,,,,,,,,,,,,,,,a,1,2.0647,"[""0.319"",""0.381"",""0.709"",""0.974""]","[1,1,0,1]",0,30,30,30,1,0,1,,,0,FALSE,,,,,,,,,,,,,,,,,,,,,,,,,,,,,,,
,5c4e36a07065de00011f7a6d,627c6974f0656182f5c56abc,2022-05-12_02h57.20.022,classification_task,2021.2.3,Win32,143.9884809,627c6715c52fd12f31907bcf,,,,,,,,,,,,,,,,,,,,,,,l,1,2.044,"[""0.049"",""0.085"",""0.264"",""0.776""]","[1,1,0,1]",0,31,31,31,1,1,1,,,0,FALSE,,,,,,,,,,,,,,,,,,,,,,,,,,,,,,,
,5c4e36a07065de00011f7a6d,627c6974f0656182f5c56abc,2022-05-12_02h57.20.022,classification_task,2021.2.3,Win32,143.9884809,627c6715c52fd12f31907bcf,,,,,,,,,,,,,,,,,,,,,,,a,0,3.7208,"[""0.264"",""0.085"",""0.554"",""0.776""]","[0,1,1,1]",0,32,32,32,1,1,1,,,0,FALSE,,,,,,,,,,,,,,,,,,,,,,,,,,,,,,,
,5c4e36a07065de00011f7a6d,627c6974f0656182f5c56abc,2022-05-12_02h57.20.022,classification_task,2021.2.3,Win32,143.9884809,627c6715c52fd12f31907bcf,,,,,,,,,,,,,,,,,,,,,,,a,1,1.3883,"[""0.163"",""0.630"",""0.882"",""0.923""]","[1,0,1,1]",0,33,33,33,1,0,0,,,0,FALSE,,,,,,,,,,,,,,,,,,,,,,,,,,,,,,,
,5c4e36a07065de00011f7a6d,627c6974f0656182f5c56abc,2022-05-12_02h57.20.022,classification_task,2021.2.3,Win32,143.9884809,627c6715c52fd12f31907bcf,,,,,,,,,,,,,,,,,,,,,,,a,1,3.3928,"[""0.319"",""0.381"",""0.461"",""0.974""]","[1,1,0,1]",0,34,34,34,1,0,1,,,0,FALSE,,,,,,,,,,,,,,,,,,,,,,,,,,,,,,,
,5c4e36a07065de00011f7a6d,627c6974f0656182f5c56abc,2022-05-12_02h57.20.022,classification_task,2021.2.3,Win32,143.9884809,627c6715c52fd12f31907bcf,,,,,,,,,,,,,,,,,,,,,,,a,1,1.6408,"[""0.163"",""0.424"",""0.882"",""0.631""]","[1,1,1,0]",0,35,35,35,1,0,0,,,0,FALSE,,,,,,,,,,,,,,,,,,,,,,,,,,,,,,,
,5c4e36a07065de00011f7a6d,627c6974f0656182f5c56abc,2022-05-12_02h57.20.022,classification_task,2021.2.3,Win32,143.9884809,627c6715c52fd12f31907bcf,,,,,,,,,,,,,,,,,,,,,,,a,1,2.9677,"[""0.319"",""0.461"",""0.845"",""0.974""]","[1,0,1,1]",0,36,36,36,1,0,1,,,0,FALSE,,,,,,,,,,,,,,,,,,,,,,,,,,,,,,,
,5c4e36a07065de00011f7a6d,627c6974f0656182f5c56abc,2022-05-12_02h57.20.022,classification_task,2021.2.3,Win32,143.9884809,627c6715c52fd12f31907bcf,,,,,,,,,,,,,,,,,,,,,,,l,1,1.2799,"[""0.129"",""0.214"",""0.498"",""0.270""]","[1,1,1,0]",0,37,37,37,1,1,0,,,0,FALSE,,,,,,,,,,,,,,,,,,,,,,,,,,,,,,,
,5c4e36a07065de00011f7a6d,627c6974f0656182f5c56abc,2022-05-12_02h57.20.022,classification_task,2021.2.3,Win32,143.9884809,627c6715c52fd12f31907bcf,,,,,,,,,,,,,,,,,,,,,,,l,1,0.9473,"[""0.049"",""0.085"",""0.554"",""0.710""]","[1,1,1,0]",0,38,38,38,1,1,1,,,0,FALSE,,,,,,,,,,,,,,,,,,,,,,,,,,,,,,,
,5c4e36a07065de00011f7a6d,627c6974f0656182f5c56abc,2022-05-12_02h57.20.022,classification_task,2021.2.3,Win32,143.9884809,627c6715c52fd12f31907bcf,,,,,,,,,,,,,,,,,,,,,,,l,1,1.0896,"[""0.049"",""0.655"",""0.554"",""0.776""]","[1,0,1,1]",0,39,39,39,1,1,1,,,0,FALSE,,,,,,,,,,,,,,,,,,,,,,,,,,,,,,,
,5c4e36a07065de00011f7a6d,627c6974f0656182f5c56abc,2022-05-12_02h57.20.022,classification_task,2021.2.3,Win32,143.9884809,627c6715c52fd12f31907bcf,,,,,,,,,,,,,,,,,,,,,,,a,1,0.9451,"[""0.163"",""0.424"",""0.651"",""0.923""]","[1,1,0,1]",0,40,40,40,1,0,0,,,0,FALSE,,,,,,,,,,,,,,,,,,,,,,,,,,,,,,,
,5c4e36a07065de00011f7a6d,627c6974f0656182f5c56abc,2022-05-12_02h57.20.022,classification_task,2021.2.3,Win32,143.9884809,627c6715c52fd12f31907bcf,,,,,,,,,,,,,,,,,,,,,,,l,1,2.3744,"[""0.630"",""0.214"",""0.498"",""0.810""]","[0,1,1,1]",0,41,41,41,1,1,0,,,0,FALSE,,,,,,,,,,,,,,,,,,,,,,,,,,,,,,,
,5c4e36a07065de00011f7a6d,627c6974f0656182f5c56abc,2022-05-12_02h57.20.022,classification_task,2021.2.3,Win32,143.9884809,627c6715c52fd12f31907bcf,,,,,,,,,,,,,,,,,,,,,,,l,1,0.9178,"[""0.049"",""0.085"",""0.631"",""0.776""]","[1,1,0,1]",0,42,42,42,1,1,1,,,0,FALSE,,,,,,,,,,,,,,,,,,,,,,,,,,,,,,,
,5c4e36a07065de00011f7a6d,627c6974f0656182f5c56abc,2022-05-12_02h57.20.022,classification_task,2021.2.3,Win32,143.9884809,627c6715c52fd12f31907bcf,,,,,,,,,,,,,,,,,,,,,,,a,1,3.6781,"[""0.630"",""0.424"",""0.882"",""0.923""]","[0,1,1,1]",0,43,43,43,1,0,0,,,0,FALSE,,,,,,,,,,,,,,,,,,,,,,,,,,,,,,,
,5c4e36a07065de00011f7a6d,627c6974f0656182f5c56abc,2022-05-12_02h57.20.022,classification_task,2021.2.3,Win32,143.9884809,627c6715c52fd12f31907bcf,,,,,,,,,,,,,,,,,,,,,,,l,1,0.9761,"[""0.129"",""0.214"",""0.626"",""0.810""]","[1,1,0,1]",0,44,44,44,1,1,0,,,0,FALSE,,,,,,,,,,,,,,,,,,,,,,,,,,,,,,,
,5c4e36a07065de00011f7a6d,627c6974f0656182f5c56abc,2022-05-12_02h57.20.022,classification_task,2021.2.3,Win32,143.9884809,627c6715c52fd12f31907bcf,,,,,,,,,,,,,,,,,,,,,,,l,1,1.0208,"[""0.129"",""0.710"",""0.498"",""0.810""]","[1,0,1,1]",0,45,45,45,1,1,0,,,0,FALSE,,,,,,,,,,,,,,,,,,,,,,,,,,,,,,,
,5c4e36a07065de00011f7a6d,627c6974f0656182f5c56abc,2022-05-12_02h57.20.022,classification_task,2021.2.3,Win32,143.9884809,627c6715c52fd12f31907bcf,,,,,,,,,,,,,,,,,,,,,,,a,1,2.3828,"[""0.319"",""0.381"",""0.845"",""0.651""]","[1,1,1,0]",0,46,46,46,1,0,1,,,0,FALSE,,,,,,,,,,,,,,,,,,,,,,,,,,,,,,,
,5c4e36a07065de00011f7a6d,627c6974f0656182f5c56abc,2022-05-12_02h57.20.022,classification_task,2021.2.3,Win32,143.9884809,627c6715c52fd12f31907bcf,,,,,,,,,,,,,,,,,,,,,,,a,1,3.6144,"[""0.626"",""0.381"",""0.845"",""0.974""]","[0,1,1,1]",0,47,47,47,1,0,1,,,0,FALSE,,,,,,,,,,,,,,,,,,,,,,,,,,,,,,,
,5c4e36a07065de00011f7a6d,627c6974f0656182f5c56abc,2022-05-12_02h57.20.022,classification_task,2021.2.3,Win32,143.9884809,627c6715c52fd12f31907bcf,,,,,,,,,,,,,,,,,,,,,,,a,1,1.2529,"[""0.163"",""0.630"",""0.882"",""0.923""]","[1,0,1,1]",0,48,48,48,1,0,0,,,0,FALSE,,,,,,,,,,,,,,,,,,,,,,,,,,,,,,,
,5c4e36a07065de00011f7a6d,627c6974f0656182f5c56abc,2022-05-12_02h57.20.022,classification_task,2021.2.3,Win32,143.9884809,627c6715c52fd12f31907bcf,,,,,,,,,,,,,,,,,,,,,,,a,1,1.4811,"[""0.163"",""0.424"",""0.270"",""0.923""]","[1,1,0,1]",0,49,49,49,1,0,0,,,0,FALSE,,,,,,,,,,,,,,,,,,,,,,,,,,,,,,,
,5c4e36a07065de00011f7a6d,627c6974f0656182f5c56abc,2022-05-12_02h57.20.022,classification_task,2021.2.3,Win32,143.9884809,627c6715c52fd12f31907bcf,,,,,,,,,,,,,,,,,,,,,,,l,1,0.8482,"[""0.049"",""0.085"",""0.554"",""0.616""]","[1,1,1,0]",0,50,50,50,1,1,1,,,0,FALSE,,,,,,,,,,,,,,,,,,,,,,,,,,,,,,,
,5c4e36a07065de00011f7a6d,627c6974f0656182f5c56abc,2022-05-12_02h57.20.022,classification_task,2021.2.3,Win32,143.9884809,627c6715c52fd12f31907bcf,,,,,,,,,,,,,,,,,,,,,,,l,1,4.4462,"[""0.605"",""0.085"",""0.554"",""0.776""]","[0,1,1,1]",0,51,51,51,1,1,1,,,0,FALSE,,,,,,,,,,,,,,,,,,,,,,,,,,,,,,,
,5c4e36a07065de00011f7a6d,627c6974f0656182f5c56abc,2022-05-12_02h57.20.022,classification_task,2021.2.3,Win32,143.9884809,627c6715c52fd12f31907bcf,,,,,,,,,,,,,,,,,,,,,,,l,1,3.642,"[""0.129"",""0.214"",""0.605"",""0.810""]","[1,1,0,1]",0,52,52,52,1,1,0,,,0,FALSE,,,,,,,,,,,,,,,,,,,,,,,,,,,,,,,
,5c4e36a07065de00011f7a6d,627c6974f0656182f5c56abc,2022-05-12_02h57.20.022,classification_task,2021.2.3,Win32,143.9884809,627c6715c52fd12f31907bcf,,,,,,,,,,,,,,,,,,,,,,,a,1,4.0521,"[""0.319"",""0.381"",""0.655"",""0.974""]","[1,1,0,1]",0,53,53,53,1,0,1,,,0,FALSE,,,,,,,,,,,,,,,,,,,,,,,,,,,,,,,
,5c4e36a07065de00011f7a6d,627c6974f0656182f5c56abc,2022-05-12_02h57.20.022,classification_task,2021.2.3,Win32,143.9884809,627c6715c52fd12f31907bcf,,,,,,,,,,,,,,,,,,,,,,,l,0,5.3014,"[""0.319"",""0.710"",""0.845"",""0.974""]","[1,0,1,1]",0,54,54,54,1,0,1,,,0,FALSE,,,,,,,,,,,,,,,,,,,,,,,,,,,,,,,
,5c4e36a07065de00011f7a6d,627c6974f0656182f5c56abc,2022-05-12_02h57.20.022,classification_task,2021.2.3,Win32,143.9884809,627c6715c52fd12f31907bcf,,,,,,,,,,,,,,,,,,,,,,,l,0,2.6697,"[""0.605"",""0.381"",""0.845"",""0.974""]","[0,1,1,1]",0,55,55,55,1,0,1,,,0,FALSE,,,,,,,,,,,,,,,,,,,,,,,,,,,,,,,
,5c4e36a07065de00011f7a6d,627c6974f0656182f5c56abc,2022-05-12_02h57.20.022,classification_task,2021.2.3,Win32,143.9884809,627c6715c52fd12f31907bcf,,,,,,,,,,,,,,,,,,,,,,,l,1,1.4273,"[""0.129"",""0.214"",""0.498"",""0.651""]","[1,1,1,0]",0,56,56,56,1,1,0,,,0,FALSE,,,,,,,,,,,,,,,,,,,,,,,,,,,,,,,
,5c4e36a07065de00011f7a6d,627c6974f0656182f5c56abc,2022-05-12_02h57.20.022,classification_task,2021.2.3,Win32,143.9884809,627c6715c52fd12f31907bcf,,,,,,,,,,,,,,,,,,,,,,,a,1,1.1801,"[""0.163"",""0.424"",""0.882"",""0.605""]","[1,1,1,0]",0,57,57,57,1,0,0,,,0,FALSE,,,,,,,,,,,,,,,,,,,,,,,,,,,,,,,
,5c4e36a07065de00011f7a6d,627c6974f0656182f5c56abc,2022-05-12_02h57.20.022,classification_task,2021.2.3,Win32,143.9884809,627c6715c52fd12f31907bcf,,,,,,,,,,,,,,,,,,,,,,,l,1,0.9887,"[""0.049"",""0.710"",""0.554"",""0.776""]","[1,0,1,1]",0,58,58,58,1,1,1,,,0,FALSE,,,,,,,,,,,,,,,,,,,,,,,,,,,,,,,
,5c4e36a07065de00011f7a6d,627c6974f0656182f5c56abc,2022-05-12_02h57.20.022,classification_task,2021.2.3,Win32,143.9884809,627c6715c52fd12f31907bcf,,,,,,,,,,,,,,,,,,,,,,,l,1,0.8683,"[""0.129"",""0.710"",""0.498"",""0.810""]","[1,0,1,1]",0,59,59,59,1,1,0,,,0,FALSE,,,,,,,,,,,,,,,,,,,,,,,,,,,,,,,
,5c4e36a07065de00011f7a6d,627c6974f0656182f5c56abc,2022-05-12_02h57.20.022,classification_task,2021.2.3,Win32,143.9884809,627c6715c52fd12f31907bcf,,,,,,,,,,,,,,,,,,,,,,,a,1,1.5223,"[""0.655"",""0.424"",""0.882"",""0.923""]","[0,1,1,1]",0,60,60,60,1,0,0,,,0,FALSE,,,,,,,,,,,,,,,,,,,,,,,,,,,,,,,
,5c4e36a07065de00011f7a6d,627c6974f0656182f5c56abc,2022-05-12_02h57.20.022,classification_task,2021.2.3,Win32,143.9884809,627c6715c52fd12f31907bcf,,,,,,,,,,,,,,,,,,,,,,,l,1,0.8775,"[""0.049"",""0.085"",""0.461"",""0.776""]","[1,1,0,1]",0,61,61,61,1,1,1,,,0,FALSE,,,,,,,,,,,,,,,,,,,,,,,,,,,,,,,
,5c4e36a07065de00011f7a6d,627c6974f0656182f5c56abc,2022-05-12_02h57.20.022,classification_task,2021.2.3,Win32,143.9884809,627c6715c52fd12f31907bcf,,,,,,,,,,,,,,,,,,,,,,,a,0,2.002,"[""0.711"",""0.214"",""0.498"",""0.810""]","[0,1,1,1]",0,62,62,62,1,1,0,,,0,FALSE,,,,,,,,,,,,,,,,,,,,,,,,,,,,,,,
,5c4e36a07065de00011f7a6d,627c6974f0656182f5c56abc,2022-05-12_02h57.20.022,classification_task,2021.2.3,Win32,143.9884809,627c6715c52fd12f31907bcf,,,,,,,,,,,,,,,,,,,,,,,a,1,2.293,"[""0.319"",""0.381"",""0.845"",""0.687""]","[1,1,1,0]",0,63,63,63,1,0,1,,,0,FALSE,,,,,,,,,,,,,,,,,,,,,,,,,,,,,,,
,5c4e36a07065de00011f7a6d,627c6974f0656182f5c56abc,2022-05-12_02h57.20.022,classification_task,2021.2.3,Win32,143.9884809,627c6715c52fd12f31907bcf,,,,,,,,,,,,,,,,,,,,,,,,,,,,,,,,,,,,,,,0, ,,0,2.109543406,407.8778,0,0,0,0,1,2,1,,,,,,,,,,,,,,,,,,
,5c4e36a07065de00011f7a6d,627c6974f0656182f5c56abc,2022-05-12_02h57.20.022,classification_task,2021.2.3,Win32,143.9884809,627c6715c52fd12f31907bcf,,,,,,,,,,,,,,,,,,,,,,,,,,,,,,,,,,,,,,,1,  ,,0,6.004311189,386.8936,0,0,0,0,1,2,1,,,,,,,,,,,,,,,,,,
,5c4e36a07065de00011f7a6d,627c6974f0656182f5c56abc,2022-05-12_02h57.20.022,classification_task,2021.2.3,Win32,143.9884809,627c6715c52fd12f31907bcf,,,,,,,,,,,,,,,,,,,,,,,,,,,,,,,,,,,,,,,2,  ,,0,0,394.5355,0,0,0,0,1,2,1,,,,,,,,,,,,,,,,,,
,5c4e36a07065de00011f7a6d,627c6974f0656182f5c56abc,2022-05-12_02h57.20.022,classification_task,2021.2.3,Win32,143.9884809,627c6715c52fd12f31907bcf,,,,,,,,,,,,,,,,,,,,,,,,,,,,,,,,,,,,,,,,,,,,,0,0,0,0,1,,1,,,,,,,,,,,,,,,,,,
,5c4e36a07065de00011f7a6d,627c6974f0656182f5c56abc,2022-05-12_02h57.20.022,classification_task,2021.2.3,Win32,143.9884809,627c6715c52fd12f31907bcf,,,,,,,,,,,,,,,,,,,,,space,14.8155,a,1,5.3777,"[""0.319"",""0.381"",""0.845"",""0.461""]","[1,1,1,0]",0,0,0,0,1,0,1,,,0,FALSE,,,,,,,,,,,,,,,,,,,,,,,,,,,,,,,
,5c4e36a07065de00011f7a6d,627c6974f0656182f5c56abc,2022-05-12_02h57.20.022,classification_task,2021.2.3,Win32,143.9884809,627c6715c52fd12f31907bcf,,,,,,,,,,,,,,,,,,,,,,,a,1,4.4385,"[""0.163"",""0.424"",""0.616"",""0.923""]","[1,1,0,1]",0,1,1,1,1,0,0,,,0,FALSE,,,,,,,,,,,,,,,,,,,,,,,,,,,,,,,
,5c4e36a07065de00011f7a6d,627c6974f0656182f5c56abc,2022-05-12_02h57.20.022,classification_task,2021.2.3,Win32,143.9884809,627c6715c52fd12f31907bcf,,,,,,,,,,,,,,,,,,,,,,,a,1,4.1126,"[""0.264"",""0.424"",""0.882"",""0.923""]","[0,1,1,1]",0,2,2,2,1,0,0,,,0,FALSE,,,,,,,,,,,,,,,,,,,,,,,,,,,,,,,
,5c4e36a07065de00011f7a6d,627c6974f0656182f5c56abc,2022-05-12_02h57.20.022,classification_task,2021.2.3,Win32,143.9884809,627c6715c52fd12f31907bcf,,,,,,,,,,,,,,,,,,,,,,,l,1,1.009,"[""0.049"",""0.085"",""0.554"",""0.709""]","[1,1,1,0]",0,3,3,3,1,1,1,,,0,FALSE,,,,,,,,,,,,,,,,,,,,,,,,,,,,,,,
,5c4e36a07065de00011f7a6d,627c6974f0656182f5c56abc,2022-05-12_02h57.20.022,classification_task,2021.2.3,Win32,143.9884809,627c6715c52fd12f31907bcf,,,,,,,,,,,,,,,,,,,,,,,l,1,1.2444,"[""0.129"",""0.214"",""0.498"",""0.651""]","[1,1,1,0]",0,4,4,4,1,1,0,,,0,FALSE,,,,,,,,,,,,,,,,,,,,,,,,,,,,,,,
,5c4e36a07065de00011f7a6d,627c6974f0656182f5c56abc,2022-05-12_02h57.20.022,classification_task,2021.2.3,Win32,143.9884809,627c6715c52fd12f31907bcf,,,,,,,,,,,,,,,,,,,,,,,a,1,2.1113,"[""0.319"",""0.270"",""0.845"",""0.974""]","[1,0,1,1]",0,5,5,5,1,0,1,,,0,FALSE,,,,,,,,,,,,,,,,,,,,,,,,,,,,,,,
,5c4e36a07065de00011f7a6d,627c6974f0656182f5c56abc,2022-05-12_02h57.20.022,classification_task,2021.2.3,Win32,143.9884809,627c6715c52fd12f31907bcf,,,,,,,,,,,,,,,,,,,,,,,l,1,1.3671,"[""0.129"",""0.214"",""0.461"",""0.810""]","[1,1,0,1]",0,6,6,6,1,1,0,,,0,FALSE,,,,,,,,,,,,,,,,,,,,,,,,,,,,,,,
,5c4e36a07065de00011f7a6d,627c6974f0656182f5c56abc,2022-05-12_02h57.20.022,classification_task,2021.2.3,Win32,143.9884809,627c6715c52fd12f31907bcf,,,,,,,,,,,,,,,,,,,,,,,a,0,1.3815,"[""0.709"",""0.214"",""0.498"",""0.810""]","[0,1,1,1]",0,7,7,7,1,1,0,,,0,FALSE,,,,,,,,,,,,,,,,,,,,,,,,,,,,,,,
,5c4e36a07065de00011f7a6d,627c6974f0656182f5c56abc,2022-05-12_02h57.20.022,classification_task,2021.2.3,Win32,143.9884809,627c6715c52fd12f31907bcf,,,,,,,,,,,,,,,,,,,,,,,a,1,4.1553,"[""0.651"",""0.381"",""0.845"",""0.974""]","[0,1,1,1]",0,8,8,8,1,0,1,,,0,FALSE,,,,,,,,,,,,,,,,,,,,,,,,,,,,,,,
,5c4e36a07065de00011f7a6d,627c6974f0656182f5c56abc,2022-05-12_02h57.20.022,classification_task,2021.2.3,Win32,143.9884809,627c6715c52fd12f31907bcf,,,,,,,,,,,,,,,,,,,,,,,l,1,0.8416,"[""0.049"",""0.085"",""0.630"",""0.776""]","[1,1,0,1]",0,9,9,9,1,1,1,,,0,FALSE,,,,,,,,,,,,,,,,,,,,,,,,,,,,,,,
,5c4e36a07065de00011f7a6d,627c6974f0656182f5c56abc,2022-05-12_02h57.20.022,classification_task,2021.2.3,Win32,143.9884809,627c6715c52fd12f31907bcf,,,,,,,,,,,,,,,,,,,,,,,l,1,1.1731,"[""0.129"",""0.631"",""0.498"",""0.810""]","[1,0,1,1]",0,10,10,10,1,1,0,,,0,FALSE,,,,,,,,,,,,,,,,,,,,,,,,,,,,,,,
,5c4e36a07065de00011f7a6d,627c6974f0656182f5c56abc,2022-05-12_02h57.20.022,classification_task,2021.2.3,Win32,143.9884809,627c6715c52fd12f31907bcf,,,,,,,,,,,,,,,,,,,,,,,a,1,0.8882,"[""0.163"",""0.626"",""0.882"",""0.923""]","[1,0,1,1]",0,11,11,11,1,0,0,,,0,FALSE,,,,,,,,,,,,,,,,,,,,,,,,,,,,,,,
,5c4e36a07065de00011f7a6d,627c6974f0656182f5c56abc,2022-05-12_02h57.20.022,classification_task,2021.2.3,Win32,143.9884809,627c6715c52fd12f31907bcf,,,,,,,,,,,,,,,,,,,,,,,l,1,1.1079,"[""0.049"",""0.709"",""0.554"",""0.776""]","[1,0,1,1]",0,12,12,12,1,1,1,,,0,FALSE,,,,,,,,,,,,,,,,,,,,,,,,,,,,,,,
,5c4e36a07065de00011f7a6d,627c6974f0656182f5c56abc,2022-05-12_02h57.20.022,classification_task,2021.2.3,Win32,143.9884809,627c6715c52fd12f31907bcf,,,,,,,,,,,,,,,,,,,,,,,a,1,0.8142,"[""0.163"",""0.424"",""0.882"",""0.687""]","[1,1,1,0]",0,13,13,13,1,0,0,,,0,FALSE,,,,,,,,,,,,,,,,,,,,,,,,,,,,,,,
,5c4e36a07065de00011f7a6d,627c6974f0656182f5c56abc,2022-05-12_02h57.20.022,classification_task,2021.2.3,Win32,143.9884809,627c6715c52fd12f31907bcf,,,,,,,,,,,,,,,,,,,,,,,l,0,1.6879,"[""0.319"",""0.381"",""0.651"",""0.974""]","[1,1,0,1]",0,14,14,14,1,0,1,,,0,FALSE,,,,,,,,,,,,,,,,,,,,,,,,,,,,,,,
,5c4e36a07065de00011f7a6d,627c6974f0656182f5c56abc,2022-05-12_02h57.20.022,classification_task,2021.2.3,Win32,143.9884809,627c6715c52fd12f31907bcf,,,,,,,,,,,,,,,,,,,,,,,l,1,1.8519,"[""0.655"",""0.085"",""0.554"",""0.776""]","[0,1,1,1]",0,15,15,15,1,1,1,,,0,FALSE,,,,,,,,,,,,,,,,,,,,,,,,,,,,,,,
,5c4e36a07065de00011f7a6d,627c6974f0656182f5c56abc,2022-05-12_02h57.20.022,classification_task,2021.2.3,Win32,143.9884809,627c6715c52fd12f31907bcf,,,,,,,,,,,,,,,,,,,,,,,l,0,1.3381,"[""0.319"",""0.687"",""0.845"",""0.974""]","[1,0,1,1]",0,16,16,16,1,0,1,,,0,FALSE,,,,,,,,,,,,,,,,,,,,,,,,,,,,,,,
,5c4e36a07065de00011f7a6d,627c6974f0656182f5c56abc,2022-05-12_02h57.20.022,classification_task,2021.2.3,Win32,143.9884809,627c6715c52fd12f31907bcf,,,,,,,,,,,,,,,,,,,,,,,l,1,2.5071,"[""0.655"",""0.214"",""0.498"",""0.810""]","[0,1,1,1]",0,17,17,17,1,1,0,,,0,FALSE,,,,,,,,,,,,,,,,,,,,,,,,,,,,,,,
,5c4e36a07065de00011f7a6d,627c6974f0656182f5c56abc,2022-05-12_02h57.20.022,classification_task,2021.2.3,Win32,143.9884809,627c6715c52fd12f31907bcf,,,,,,,,,,,,,,,,,,,,,,,l,1,1.7149,"[""0.049"",""0.626"",""0.554"",""0.776""]","[1,0,1,1]",0,18,18,18,1,1,1,,,0,FALSE,,,,,,,,,,,,,,,,,,,,,,,,,,,,,,,
,5c4e36a07065de00011f7a6d,627c6974f0656182f5c56abc,2022-05-12_02h57.20.022,classification_task,2021.2.3,Win32,143.9884809,627c6715c52fd12f31907bcf,,,,,,,,,,,,,,,,,,,,,,,l,1,1.036,"[""0.049"",""0.085"",""0.554"",""0.605""]","[1,1,1,0]",0,19,19,19,1,1,1,,,0,FALSE,,,,,,,,,,,,,,,,,,,,,,,,,,,,,,,
,5c4e36a07065de00011f7a6d,627c6974f0656182f5c56abc,2022-05-12_02h57.20.022,classification_task,2021.2.3,Win32,143.9884809,627c6715c52fd12f31907bcf,,,,,,,,,,,,,,,,,,,,,,,a,1,1.744,"[""0.163"",""0.605"",""0.882"",""0.923""]","[1,0,1,1]",0,20,20,20,1,0,0,,,0,FALSE,,,,,,,,,,,,,,,,,,,,,,,,,,,,,,,
,5c4e36a07065de00011f7a6d,627c6974f0656182f5c56abc,2022-05-12_02h57.20.022,classification_task,2021.2.3,Win32,143.9884809,627c6715c52fd12f31907bcf,,,,,,,,,,,,,,,,,,,,,,,l,0,2.3136,"[""0.616"",""0.424"",""0.882"",""0.923""]","[0,1,1,1]",0,21,21,21,1,0,0,,,0,FALSE,,,,,,,,,,,,,,,,,,,,,,,,,,,,,,,
,5c4e36a07065de00011f7a6d,627c6974f0656182f5c56abc,2022-05-12_02h57.20.022,classification_task,2021.2.3,Win32,143.9884809,627c6715c52fd12f31907bcf,,,,,,,,,,,,,,,,,,,,,,,a,1,1.1523,"[""0.163"",""0.424"",""0.605"",""0.923""]","[1,1,0,1]",0,22,22,22,1,0,0,,,0,FALSE,,,,,,,,,,,,,,,,,,,,,,,,,,,,,,,
,5c4e36a07065de00011f7a6d,627c6974f0656182f5c56abc,2022-05-12_02h57.20.022,classification_task,2021.2.3,Win32,143.9884809,627c6715c52fd12f31907bcf,,,,,,,,,,,,,,,,,,,,,,,l,1,1.0276,"[""0.129"",""0.651"",""0.498"",""0.810""]","[1,0,1,1]",0,23,23,23,1,1,0,,,0,FALSE,,,,,,,,,,,,,,,,,,,,,,,,,,,,,,,
,5c4e36a07065de00011f7a6d,627c6974f0656182f5c56abc,2022-05-12_02h57.20.022,classification_task,2021.2.3,Win32,143.9884809,627c6715c52fd12f31907bcf,,,,,,,,,,,,,,,,,,,,,,,a,1,1.1819,"[""0.319"",""0.381"",""0.710"",""0.974""]","[1,1,0,1]",0,24,24,24,1,0,1,,,0,FALSE,,,,,,,,,,,,,,,,,,,,,,,,,,,,,,,
,5c4e36a07065de00011f7a6d,627c6974f0656182f5c56abc,2022-05-12_02h57.20.022,classification_task,2021.2.3,Win32,143.9884809,627c6715c52fd12f31907bcf,,,,,,,,,,,,,,,,,,,,,,,l,1,0.7319,"[""0.049"",""0.085"",""0.631"",""0.776""]","[1,1,0,1]",0,25,25,25,1,1,1,,,0,FALSE,,,,,,,,,,,,,,,,,,,,,,,,,,,,,,,
,5c4e36a07065de00011f7a6d,627c6974f0656182f5c56abc,2022-05-12_02h57.20.022,classification_task,2021.2.3,Win32,143.9884809,627c6715c52fd12f31907bcf,,,,,,,,,,,,,,,,,,,,,,,l,1,2.3106,"[""0.631"",""0.085"",""0.554"",""0.776""]","[0,1,1,1]",0,26,26,26,1,1,1,,,0,FALSE,,,,,,,,,,,,,,,,,,,,,,,,,,,,,,,
,5c4e36a07065de00011f7a6d,627c6974f0656182f5c56abc,2022-05-12_02h57.20.022,classification_task,2021.2.3,Win32,143.9884809,627c6715c52fd12f31907bcf,,,,,,,,,,,,,,,,,,,,,,,l,1,1.0351,"[""0.129"",""0.214"",""0.626"",""0.810""]","[1,1,0,1]",0,27,27,27,1,1,0,,,0,FALSE,,,,,,,,,,,,,,,,,,,,,,,,,,,,,,,
,5c4e36a07065de00011f7a6d,627c6974f0656182f5c56abc,2022-05-12_02h57.20.022,classification_task,2021.2.3,Win32,143.9884809,627c6715c52fd12f31907bcf,,,,,,,,,,,,,,,,,,,,,,,a,1,1.7687,"[""0.319"",""0.381"",""0.845"",""0.270""]","[1,1,1,0]",0,28,28,28,1,0,1,,,0,FALSE,,,,,,,,,,,,,,,,,,,,,,,,,,,,,,,
,5c4e36a07065de00011f7a6d,627c6974f0656182f5c56abc,2022-05-12_02h57.20.022,classification_task,2021.2.3,Win32,143.9884809,627c6715c52fd12f31907bcf,,,,,,,,,,,,,,,,,,,,,,,a,1,1.3318,"[""0.651"",""0.381"",""0.845"",""0.974""]","[0,1,1,1]",0,29,29,29,1,0,1,,,0,FALSE,,,,,,,,,,,,,,,,,,,,,,,,,,,,,,,
,5c4e36a07065de00011f7a6d,627c6974f0656182f5c56abc,2022-05-12_02h57.20.022,classification_task,2021.2.3,Win32,143.9884809,627c6715c52fd12f31907bcf,,,,,,,,,,,,,,,,,,,,,,,l,1,1.2515,"[""0.129"",""0.214"",""0.498"",""0.653""]","[1,1,1,0]",0,30,30,30,1,1,0,,,0,FALSE,,,,,,,,,,,,,,,,,,,,,,,,,,,,,,,
,5c4e36a07065de00011f7a6d,627c6974f0656182f5c56abc,2022-05-12_02h57.20.022,classification_task,2021.2.3,Win32,143.9884809,627c6715c52fd12f31907bcf,,,,,,,,,,,,,,,,,,,,,,,a,1,0.9437,"[""0.163"",""0.424"",""0.882"",""0.687""]","[1,1,1,0]",0,31,31,31,1,0,0,,,0,FALSE,,,,,,,,,,,,,,,,,,,,,,,,,,,,,,,
,5c4e36a07065de00011f7a6d,627c6974f0656182f5c56abc,2022-05-12_02h57.20.022,classification_task,2021.2.3,Win32,143.9884809,627c6715c52fd12f31907bcf,,,,,,,,,,,,,,,,,,,,,,,a,1,0.6671,"[""0.163"",""0.424"",""0.882"",""0.626""]","[1,1,1,0]",0,32,32,32,1,0,0,,,0,FALSE,,,,,,,,,,,,,,,,,,,,,,,,,,,,,,,
,5c4e36a07065de00011f7a6d,627c6974f0656182f5c56abc,2022-05-12_02h57.20.022,classification_task,2021.2.3,Win32,143.9884809,627c6715c52fd12f31907bcf,,,,,,,,,,,,,,,,,,,,,,,l,1,0.7673,"[""0.129"",""0.709"",""0.498"",""0.810""]","[1,0,1,1]",0,33,33,33,1,1,0,,,0,FALSE,,,,,,,,,,,,,,,,,,,,,,,,,,,,,,,
,5c4e36a07065de00011f7a6d,627c6974f0656182f5c56abc,2022-05-12_02h57.20.022,classification_task,2021.2.3,Win32,143.9884809,627c6715c52fd12f31907bcf,,,,,,,,,,,,,,,,,,,,,,,l,1,1.2359,"[""0.270"",""0.214"",""0.498"",""0.810""]","[0,1,1,1]",0,34,34,34,1,1,0,,,0,FALSE,,,,,,,,,,,,,,,,,,,,,,,,,,,,,,,
,5c4e36a07065de00011f7a6d,627c6974f0656182f5c56abc,2022-05-12_02h57.20.022,classification_task,2021.2.3,Win32,143.9884809,627c6715c52fd12f31907bcf,,,,,,,,,,,,,,,,,,,,,,,l,1,1.0928,"[""0.049"",""0.626"",""0.554"",""0.776""]","[1,0,1,1]",0,35,35,35,1,1,1,,,0,FALSE,,,,,,,,,,,,,,,,,,,,,,,,,,,,,,,
,5c4e36a07065de00011f7a6d,627c6974f0656182f5c56abc,2022-05-12_02h57.20.022,classification_task,2021.2.3,Win32,143.9884809,627c6715c52fd12f31907bcf,,,,,,,,,,,,,,,,,,,,,,,l,1,0.9403,"[""0.129"",""0.214"",""0.653"",""0.810""]","[1,1,0,1]",0,36,36,36,1,1,0,,,0,FALSE,,,,,,,,,,,,,,,,,,,,,,,,,,,,,,,
,5c4e36a07065de00011f7a6d,627c6974f0656182f5c56abc,2022-05-12_02h57.20.022,classification_task,2021.2.3,Win32,143.9884809,627c6715c52fd12f31907bcf,,,,,,,,,,,,,,,,,,,,,,,l,1,1.229,"[""0.710"",""0.085"",""0.554"",""0.776""]","[0,1,1,1]",0,37,37,37,1,1,1,,,0,FALSE,,,,,,,,,,,,,,,,,,,,,,,,,,,,,,,
,5c4e36a07065de00011f7a6d,627c6974f0656182f5c56abc,2022-05-12_02h57.20.022,classification_task,2021.2.3,Win32,143.9884809,627c6715c52fd12f31907bcf,,,,,,,,,,,,,,,,,,,,,,,a,1,1.3132,"[""0.655"",""0.424"",""0.882"",""0.923""]","[0,1,1,1]",0,38,38,38,1,0,0,,,0,FALSE,,,,,,,,,,,,,,,,,,,,,,,,,,,,,,,
,5c4e36a07065de00011f7a6d,627c6974f0656182f5c56abc,2022-05-12_02h57.20.022,classification_task,2021.2.3,Win32,143.9884809,627c6715c52fd12f31907bcf,,,,,,,,,,,,,,,,,,,,,,,a,1,1.2805,"[""0.319"",""0.381"",""0.845"",""0.710""]","[1,1,1,0]",0,39,39,39,1,0,1,,,0,FALSE,,,,,,,,,,,,,,,,,,,,,,,,,,,,,,,
,5c4e36a07065de00011f7a6d,627c6974f0656182f5c56abc,2022-05-12_02h57.20.022,classification_task,2021.2.3,Win32,143.9884809,627c6715c52fd12f31907bcf,,,,,,,,,,,,,,,,,,,,,,,l,1,0.7188,"[""0.049"",""0.085"",""0.554"",""0.626""]","[1,1,1,0]",0,40,40,40,1,1,1,,,0,FALSE,,,,,,,,,,,,,,,,,,,,,,,,,,,,,,,
,5c4e36a07065de00011f7a6d,627c6974f0656182f5c56abc,2022-05-12_02h57.20.022,classification_task,2021.2.3,Win32,143.9884809,627c6715c52fd12f31907bcf,,,,,,,,,,,,,,,,,,,,,,,a,1,1.011,"[""0.319"",""0.381"",""0.687"",""0.974""]","[1,1,0,1]",0,41,41,41,1,0,1,,,0,FALSE,,,,,,,,,,,,,,,,,,,,,,,,,,,,,,,
,5c4e36a07065de00011f7a6d,627c6974f0656182f5c56abc,2022-05-12_02h57.20.022,classification_task,2021.2.3,Win32,143.9884809,627c6715c52fd12f31907bcf,,,,,,,,,,,,,,,,,,,,,,,l,1,1.0175,"[""0.129"",""0.214"",""0.498"",""0.655""]","[1,1,1,0]",0,42,42,42,1,1,0,,,0,FALSE,,,,,,,,,,,,,,,,,,,,,,,,,,,,,,,
,5c4e36a07065de00011f7a6d,627c6974f0656182f5c56abc,2022-05-12_02h57.20.022,classification_task,2021.2.3,Win32,143.9884809,627c6715c52fd12f31907bcf,,,,,,,,,,,,,,,,,,,,,,,a,1,0.7851,"[""0.319"",""0.630"",""0.845"",""0.974""]","[1,0,1,1]",0,43,43,43,1,0,1,,,0,FALSE,,,,,,,,,,,,,,,,,,,,,,,,,,,,,,,
,5c4e36a07065de00011f7a6d,627c6974f0656182f5c56abc,2022-05-12_02h57.20.022,classification_task,2021.2.3,Win32,143.9884809,627c6715c52fd12f31907bcf,,,,,,,,,,,,,,,,,,,,,,,l,0,1.7508,"[""0.687"",""0.381"",""0.845"",""0.974""]","[0,1,1,1]",0,44,44,44,1,0,1,,,0,FALSE,,,,,,,,,,,,,,,,,,,,,,,,,,,,,,,
,5c4e36a07065de00011f7a6d,627c6974f0656182f5c56abc,2022-05-12_02h57.20.022,classification_task,2021.2.3,Win32,143.9884809,627c6715c52fd12f31907bcf,,,,,,,,,,,,,,,,,,,,,,,l,1,0.7997,"[""0.049"",""0.085"",""0.264"",""0.776""]","[1,1,0,1]",0,45,45,45,1,1,1,,,0,FALSE,,,,,,,,,,,,,,,,,,,,,,,,,,,,,,,
,5c4e36a07065de00011f7a6d,627c6974f0656182f5c56abc,2022-05-12_02h57.20.022,classification_task,2021.2.3,Win32,143.9884809,627c6715c52fd12f31907bcf,,,,,,,,,,,,,,,,,,,,,,,a,1,0.8419,"[""0.163"",""0.424"",""0.631"",""0.923""]","[1,1,0,1]",0,46,46,46,1,0,0,,,0,FALSE,,,,,,,,,,,,,,,,,,,,,,,,,,,,,,,
,5c4e36a07065de00011f7a6d,627c6974f0656182f5c56abc,2022-05-12_02h57.20.022,classification_task,2021.2.3,Win32,143.9884809,627c6715c52fd12f31907bcf,,,,,,,,,,,,,,,,,,,,,,,a,1,1.1393,"[""0.163"",""0.655"",""0.882"",""0.923""]","[1,0,1,1]",0,47,47,47,1,0,0,,,0,FALSE,,,,,,,,,,,,,,,,,,,,,,,,,,,,,,,
,5c4e36a07065de00011f7a6d,627c6974f0656182f5c56abc,2022-05-12_02h57.20.022,classification_task,2021.2.3,Win32,143.9884809,627c6715c52fd12f31907bcf,,,,,,,,,,,,,,,,,,,,,,,l,1,0.8622,"[""0.129"",""0.653"",""0.498"",""0.810""]","[1,0,1,1]",0,48,48,48,1,1,0,,,0,FALSE,,,,,,,,,,,,,,,,,,,,,,,,,,,,,,,
,5c4e36a07065de00011f7a6d,627c6974f0656182f5c56abc,2022-05-12_02h57.20.022,classification_task,2021.2.3,Win32,143.9884809,627c6715c52fd12f31907bcf,,,,,,,,,,,,,,,,,,,,,,,l,1,0.6912,"[""0.049"",""0.711"",""0.554"",""0.776""]","[1,0,1,1]",0,49,49,49,1,1,1,,,0,FALSE,,,,,,,,,,,,,,,,,,,,,,,,,,,,,,,
,5c4e36a07065de00011f7a6d,627c6974f0656182f5c56abc,2022-05-12_02h57.20.022,classification_task,2021.2.3,Win32,143.9884809,627c6715c52fd12f31907bcf,,,,,,,,,,,,,,,,,,,,,,,a,1,0.6054,"[""0.163"",""0.424"",""0.711"",""0.923""]","[1,1,0,1]",0,50,50,50,1,0,0,,,0,FALSE,,,,,,,,,,,,,,,,,,,,,,,,,,,,,,,
,5c4e36a07065de00011f7a6d,627c6974f0656182f5c56abc,2022-05-12_02h57.20.022,classification_task,2021.2.3,Win32,143.9884809,627c6715c52fd12f31907bcf,,,,,,,,,,,,,,,,,,,,,,,a,1,2.9456,"[""0.319"",""0.381"",""0.711"",""0.974""]","[1,1,0,1]",0,51,51,51,1,0,1,,,0,FALSE,,,,,,,,,,,,,,,,,,,,,,,,,,,,,,,
,5c4e36a07065de00011f7a6d,627c6974f0656182f5c56abc,2022-05-12_02h57.20.022,classification_task,2021.2.3,Win32,143.9884809,627c6715c52fd12f31907bcf,,,,,,,,,,,,,,,,,,,,,,,a,1,0.9498,"[""0.163"",""0.424"",""0.882"",""0.655""]","[1,1,1,0]",0,52,52,52,1,0,0,,,0,FALSE,,,,,,,,,,,,,,,,,,,,,,,,,,,,,,,
,5c4e36a07065de00011f7a6d,627c6974f0656182f5c56abc,2022-05-12_02h57.20.022,classification_task,2021.2.3,Win32,143.9884809,627c6715c52fd12f31907bcf,,,,,,,,,,,,,,,,,,,,,,,l,1,1.0648,"[""0.616"",""0.214"",""0.498"",""0.810""]","[0,1,1,1]",0,53,53,53,1,1,0,,,0,FALSE,,,,,,,,,,,,,,,,,,,,,,,,,,,,,,,
,5c4e36a07065de00011f7a6d,627c6974f0656182f5c56abc,2022-05-12_02h57.20.022,classification_task,2021.2.3,Win32,143.9884809,627c6715c52fd12f31907bcf,,,,,,,,,,,,,,,,,,,,,,,a,1,1.007,"[""0.319"",""0.626"",""0.845"",""0.974""]","[1,0,1,1]",0,54,54,54,1,0,1,,,0,FALSE,,,,,,,,,,,,,,,,,,,,,,,,,,,,,,,
,5c4e36a07065de00011f7a6d,627c6974f0656182f5c56abc,2022-05-12_02h57.20.022,classification_task,2021.2.3,Win32,143.9884809,627c6715c52fd12f31907bcf,,,,,,,,,,,,,,,,,,,,,,,l,1,1.2225,"[""0.129"",""0.214"",""0.711"",""0.810""]","[1,1,0,1]",0,55,55,55,1,1,0,,,0,FALSE,,,,,,,,,,,,,,,,,,,,,,,,,,,,,,,
,5c4e36a07065de00011f7a6d,627c6974f0656182f5c56abc,2022-05-12_02h57.20.022,classification_task,2021.2.3,Win32,143.9884809,627c6715c52fd12f31907bcf,,,,,,,,,,,,,,,,,,,,,,,l,1,0.7095,"[""0.049"",""0.085"",""0.554"",""0.264""]","[1,1,1,0]",0,56,56,56,1,1,1,,,0,FALSE,,,,,,,,,,,,,,,,,,,,,,,,,,,,,,,
,5c4e36a07065de00011f7a6d,627c6974f0656182f5c56abc,2022-05-12_02h57.20.022,classification_task,2021.2.3,Win32,143.9884809,627c6715c52fd12f31907bcf,,,,,,,,,,,,,,,,,,,,,,,l,1,0.6034,"[""0.592"",""0.085"",""0.554"",""0.776""]","[0,1,1,1]",0,57,57,57,1,1,1,,,0,FALSE,,,,,,,,,,,,,,,,,,,,,,,,,,,,,,,
,5c4e36a07065de00011f7a6d,627c6974f0656182f5c56abc,2022-05-12_02h57.20.022,classification_task,2021.2.3,Win32,143.9884809,627c6715c52fd12f31907bcf,,,,,,,,,,,,,,,,,,,,,,,a,1,0.5417,"[""0.163"",""0.631"",""0.882"",""0.923""]","[1,0,1,1]",0,58,58,58,1,0,0,,,0,FALSE,,,,,,,,,,,,,,,,,,,,,,,,,,,,,,,
,5c4e36a07065de00011f7a6d,627c6974f0656182f5c56abc,2022-05-12_02h57.20.022,classification_task,2021.2.3,Win32,143.9884809,627c6715c52fd12f31907bcf,,,,,,,,,,,,,,,,,,,,,,,a,1,1.3072,"[""0.319"",""0.381"",""0.845"",""0.709""]","[1,1,1,0]",0,59,59,59,1,0,1,,,0,FALSE,,,,,,,,,,,,,,,,,,,,,,,,,,,,,,,
,5c4e36a07065de00011f7a6d,627c6974f0656182f5c56abc,2022-05-12_02h57.20.022,classification_task,2021.2.3,Win32,143.9884809,627c6715c52fd12f31907bcf,,,,,,,,,,,,,,,,,,,,,,,a,1,3.2001,"[""0.687"",""0.424"",""0.882"",""0.923""]","[0,1,1,1]",0,60,60,60,1,0,0,,,0,FALSE,,,,,,,,,,,,,,,,,,,,,,,,,,,,,,,
,5c4e36a07065de00011f7a6d,627c6974f0656182f5c56abc,2022-05-12_02h57.20.022,classification_task,2021.2.3,Win32,143.9884809,627c6715c52fd12f31907bcf,,,,,,,,,,,,,,,,,,,,,,,l,1,0.8961,"[""0.129"",""0.214"",""0.498"",""0.651""]","[1,1,1,0]",0,61,61,61,1,1,0,,,0,FALSE,,,,,,,,,,,,,,,,,,,,,,,,,,,,,,,
,5c4e36a07065de00011f7a6d,627c6974f0656182f5c56abc,2022-05-12_02h57.20.022,classification_task,2021.2.3,Win32,143.9884809,627c6715c52fd12f31907bcf,,,,,,,,,,,,,,,,,,,,,,,a,1,2.2426,"[""0.616"",""0.381"",""0.845"",""0.974""]","[0,1,1,1]",0,62,62,62,1,0,1,,,0,FALSE,,,,,,,,,,,,,,,,,,,,,,,,,,,,,,,
,5c4e36a07065de00011f7a6d,627c6974f0656182f5c56abc,2022-05-12_02h57.20.022,classification_task,2021.2.3,Win32,143.9884809,627c6715c52fd12f31907bcf,,,,,,,,,,,,,,,,,,,,,,,l,1,0.6956,"[""0.049"",""0.085"",""0.710"",""0.776""]","[1,1,0,1]",0,63,63,63,1,1,1,,,0,FALSE,,,,,,,,,,,,,,,,,,,,,,,,,,,,,,,
,5c4e36a07065de00011f7a6d,627c6974f0656182f5c56abc,2022-05-12_02h57.20.022,classification_task,2021.2.3,Win32,143.9884809,627c6715c52fd12f31907bcf,,,,,,,,,,,,,,,,,,,,,,,,,,,,,,,,,,,,,,,0, ,,0,4.020184205,196.8258,0,1,1,1,1,2,2,,,,,,,,,,,,,,,,,,
,5c4e36a07065de00011f7a6d,627c6974f0656182f5c56abc,2022-05-12_02h57.20.022,classification_task,2021.2.3,Win32,143.9884809,627c6715c52fd12f31907bcf,,,,,,,,,,,,,,,,,,,,,,,,,,,,,,,,,,,,,,,1,  ,,0,6.420732902,186.3169,0,1,1,1,1,2,2,,,,,,,,,,,,,,,,,,
,5c4e36a07065de00011f7a6d,627c6974f0656182f5c56abc,2022-05-12_02h57.20.022,classification_task,2021.2.3,Win32,143.9884809,627c6715c52fd12f31907bcf,,,,,,,,,,,,,,,,,,,,,,,,,,,,,,,,,,,,,,,2,  ,,0,0,189.9291,0,1,1,1,1,2,2,,,,,,,,,,,,,,,,,,
,5c4e36a07065de00011f7a6d,627c6974f0656182f5c56abc,2022-05-12_02h57.20.022,classification_task,2021.2.3,Win32,143.9884809,627c6715c52fd12f31907bcf,,,,,,,,,,,,,,,,,,,,,,,,,,,,,,,,,,,,,,,,,,,,,0,1,1,1,1,,2,,,,,,,,,,,,,,,,,,
,5c4e36a07065de00011f7a6d,627c6974f0656182f5c56abc,2022-05-12_02h57.20.022,classification_task,2021.2.3,Win32,143.9884809,627c6715c52fd12f31907bcf,,,,,,,,,,,,,,,,,,,,,space,10.7466,l,1,1.3175,"[""0.049"",""0.651"",""0.554"",""0.776""]","[1,0,1,1]",0,0,0,0,1,1,1,,,0,FALSE,,,,,,,,,,,,,,,,,,,,,,,,,,,,,,,
,5c4e36a07065de00011f7a6d,627c6974f0656182f5c56abc,2022-05-12_02h57.20.022,classification_task,2021.2.3,Win32,143.9884809,627c6715c52fd12f31907bcf,,,,,,,,,,,,,,,,,,,,,,,a,1,2.2508,"[""0.319"",""0.630"",""0.845"",""0.974""]","[1,0,1,1]",0,1,1,1,1,0,1,,,0,FALSE,,,,,,,,,,,,,,,,,,,,,,,,,,,,,,,
,5c4e36a07065de00011f7a6d,627c6974f0656182f5c56abc,2022-05-12_02h57.20.022,classification_task,2021.2.3,Win32,143.9884809,627c6715c52fd12f31907bcf,,,,,,,,,,,,,,,,,,,,,,,a,1,1.4037,"[""0.687"",""0.381"",""0.845"",""0.974""]","[0,1,1,1]",0,2,2,2,1,0,1,,,0,FALSE,,,,,,,,,,,,,,,,,,,,,,,,,,,,,,,
,5c4e36a07065de00011f7a6d,627c6974f0656182f5c56abc,2022-05-12_02h57.20.022,classification_task,2021.2.3,Win32,143.9884809,627c6715c52fd12f31907bcf,,,,,,,,,,,,,,,,,,,,,,,l,1,0.823,"[""0.049"",""0.085"",""0.710"",""0.776""]","[1,1,0,1]",0,3,3,3,1,1,1,,,0,FALSE,,,,,,,,,,,,,,,,,,,,,,,,,,,,,,,
,5c4e36a07065de00011f7a6d,627c6974f0656182f5c56abc,2022-05-12_02h57.20.022,classification_task,2021.2.3,Win32,143.9884809,627c6715c52fd12f31907bcf,,,,,,,,,,,,,,,,,,,,,,,a,1,2.1451,"[""0.319"",""0.381"",""0.709"",""0.974""]","[1,1,0,1]",0,4,4,4,1,0,1,,,0,FALSE,,,,,,,,,,,,,,,,,,,,,,,,,,,,,,,
,5c4e36a07065de00011f7a6d,627c6974f0656182f5c56abc,2022-05-12_02h57.20.022,classification_task,2021.2.3,Win32,143.9884809,627c6715c52fd12f31907bcf,,,,,,,,,,,,,,,,,,,,,,,a,1,1.2561,"[""0.163"",""0.424"",""0.882"",""0.626""]","[1,1,1,0]",0,5,5,5,1,0,0,,,0,FALSE,,,,,,,,,,,,,,,,,,,,,,,,,,,,,,,
,5c4e36a07065de00011f7a6d,627c6974f0656182f5c56abc,2022-05-12_02h57.20.022,classification_task,2021.2.3,Win32,143.9884809,627c6715c52fd12f31907bcf,,,,,,,,,,,,,,,,,,,,,,,l,1,0.806,"[""0.630"",""0.085"",""0.554"",""0.776""]","[0,1,1,1]",0,6,6,6,1,1,1,,,0,FALSE,,,,,,,,,,,,,,,,,,,,,,,,,,,,,,,
,5c4e36a07065de00011f7a6d,627c6974f0656182f5c56abc,2022-05-12_02h57.20.022,classification_task,2021.2.3,Win32,143.9884809,627c6715c52fd12f31907bcf,,,,,,,,,,,,,,,,,,,,,,,l,1,1.1609,"[""0.710"",""0.214"",""0.498"",""0.810""]","[0,1,1,1]",0,7,7,7,1,1,0,,,0,FALSE,,,,,,,,,,,,,,,,,,,,,,,,,,,,,,,
,5c4e36a07065de00011f7a6d,627c6974f0656182f5c56abc,2022-05-12_02h57.20.022,classification_task,2021.2.3,Win32,143.9884809,627c6715c52fd12f31907bcf,,,,,,,,,,,,,,,,,,,,,,,l,1,0.8065,"[""0.129"",""0.214"",""0.653"",""0.810""]","[1,1,0,1]",0,8,8,8,1,1,0,,,0,FALSE,,,,,,,,,,,,,,,,,,,,,,,,,,,,,,,
,5c4e36a07065de00011f7a6d,627c6974f0656182f5c56abc,2022-05-12_02h57.20.022,classification_task,2021.2.3,Win32,143.9884809,627c6715c52fd12f31907bcf,,,,,,,,,,,,,,,,,,,,,,,a,1,1.1264,"[""0.592"",""0.424"",""0.882"",""0.923""]","[0,1,1,1]",0,9,9,9,1,0,0,,,0,FALSE,,,,,,,,,,,,,,,,,,,,,,,,,,,,,,,
,5c4e36a07065de00011f7a6d,627c6974f0656182f5c56abc,2022-05-12_02h57.20.022,classification_task,2021.2.3,Win32,143.9884809,627c6715c52fd12f31907bcf,,,,,,,,,,,,,,,,,,,,,,,l,1,0.6824,"[""0.049"",""0.085"",""0.554"",""0.651""]","[1,1,1,0]",0,10,10,10,1,1,1,,,0,FALSE,,,,,,,,,,,,,,,,,,,,,,,,,,,,,,,
,5c4e36a07065de00011f7a6d,627c6974f0656182f5c56abc,2022-05-12_02h57.20.022,classification_task,2021.2.3,Win32,143.9884809,627c6715c52fd12f31907bcf,,,,,,,,,,,,,,,,,,,,,,,a,1,0.9251,"[""0.163"",""0.709"",""0.882"",""0.923""]","[1,0,1,1]",0,11,11,11,1,0,0,,,0,FALSE,,,,,,,,,,,,,,,,,,,,,,,,,,,,,,,
,5c4e36a07065de00011f7a6d,627c6974f0656182f5c56abc,2022-05-12_02h57.20.022,classification_task,2021.2.3,Win32,143.9884809,627c6715c52fd12f31907bcf,,,,,,,,,,,,,,,,,,,,,,,a,1,0.8765,"[""0.163"",""0.424"",""0.709"",""0.923""]","[1,1,0,1]",0,12,12,12,1,0,0,,,0,FALSE,,,,,,,,,,,,,,,,,,,,,,,,,,,,,,,
,5c4e36a07065de00011f7a6d,627c6974f0656182f5c56abc,2022-05-12_02h57.20.022,classification_task,2021.2.3,Win32,143.9884809,627c6715c52fd12f31907bcf,,,,,,,,,,,,,,,,,,,,,,,l,1,0.7889,"[""0.129"",""0.616"",""0.498"",""0.810""]","[1,0,1,1]",0,13,13,13,1,1,0,,,0,FALSE,,,,,,,,,,,,,,,,,,,,,,,,,,,,,,,
,5c4e36a07065de00011f7a6d,627c6974f0656182f5c56abc,2022-05-12_02h57.20.022,classification_task,2021.2.3,Win32,143.9884809,627c6715c52fd12f31907bcf,,,,,,,,,,,,,,,,,,,,,,,a,1,1.6479,"[""0.319"",""0.381"",""0.845"",""0.605""]","[1,1,1,0]",0,14,14,14,1,0,1,,,0,FALSE,,,,,,,,,,,,,,,,,,,,,,,,,,,,,,,
,5c4e36a07065de00011f7a6d,627c6974f0656182f5c56abc,2022-05-12_02h57.20.022,classification_task,2021.2.3,Win32,143.9884809,627c6715c52fd12f31907bcf,,,,,,,,,,,,,,,,,,,,,,,l,1,1.0541,"[""0.129"",""0.214"",""0.498"",""0.264""]","[1,1,1,0]",0,15,15,15,1,1,0,,,0,FALSE,,,,,,,,,,,,,,,,,,,,,,,,,,,,,,,
,5c4e36a07065de00011f7a6d,627c6974f0656182f5c56abc,2022-05-12_02h57.20.022,classification_task,2021.2.3,Win32,143.9884809,627c6715c52fd12f31907bcf,,,,,,,,,,,,,,,,,,,,,,,l,1,0.7178,"[""0.129"",""0.214"",""0.498"",""0.651""]","[1,1,1,0]",0,16,16,16,1,1,0,,,0,FALSE,,,,,,,,,,,,,,,,,,,,,,,,,,,,,,,
,5c4e36a07065de00011f7a6d,627c6974f0656182f5c56abc,2022-05-12_02h57.20.022,classification_task,2021.2.3,Win32,143.9884809,627c6715c52fd12f31907bcf,,,,,,,,,,,,,,,,,,,,,,,a,1,0.8497,"[""0.319"",""0.626"",""0.845"",""0.974""]","[1,0,1,1]",0,17,17,17,1,0,1,,,0,FALSE,,,,,,,,,,,,,,,,,,,,,,,,,,,,,,,
,5c4e36a07065de00011f7a6d,627c6974f0656182f5c56abc,2022-05-12_02h57.20.022,classification_task,2021.2.3,Win32,143.9884809,627c6715c52fd12f31907bcf,,,,,,,,,,,,,,,,,,,,,,,l,1,0.7792,"[""0.049"",""0.630"",""0.554"",""0.776""]","[1,0,1,1]",0,18,18,18,1,1,1,,,0,FALSE,,,,,,,,,,,,,,,,,,,,,,,,,,,,,,,
,5c4e36a07065de00011f7a6d,627c6974f0656182f5c56abc,2022-05-12_02h57.20.022,classification_task,2021.2.3,Win32,143.9884809,627c6715c52fd12f31907bcf,,,,,,,,,,,,,,,,,,,,,,,a,1,2.1195,"[""0.319"",""0.381"",""0.845"",""0.631""]","[1,1,1,0]",0,19,19,19,1,0,1,,,0,FALSE,,,,,,,,,,,,,,,,,,,,,,,,,,,,,,,
,5c4e36a07065de00011f7a6d,627c6974f0656182f5c56abc,2022-05-12_02h57.20.022,classification_task,2021.2.3,Win32,143.9884809,627c6715c52fd12f31907bcf,,,,,,,,,,,,,,,,,,,,,,,l,1,0.9102,"[""0.129"",""0.653"",""0.498"",""0.810""]","[1,0,1,1]",0,20,20,20,1,1,0,,,0,FALSE,,,,,,,,,,,,,,,,,,,,,,,,,,,,,,,
,5c4e36a07065de00011f7a6d,627c6974f0656182f5c56abc,2022-05-12_02h57.20.022,classification_task,2021.2.3,Win32,143.9884809,627c6715c52fd12f31907bcf,,,,,,,,,,,,,,,,,,,,,,,a,1,0.7219,"[""0.319"",""0.381"",""0.710"",""0.974""]","[1,1,0,1]",0,21,21,21,1,0,1,,,0,FALSE,,,,,,,,,,,,,,,,,,,,,,,,,,,,,,,
,5c4e36a07065de00011f7a6d,627c6974f0656182f5c56abc,2022-05-12_02h57.20.022,classification_task,2021.2.3,Win32,143.9884809,627c6715c52fd12f31907bcf,,,,,,,,,,,,,,,,,,,,,,,a,1,0.7935,"[""0.163"",""0.616"",""0.882"",""0.923""]","[1,0,1,1]",0,22,22,22,1,0,0,,,0,FALSE,,,,,,,,,,,,,,,,,,,,,,,,,,,,,,,
,5c4e36a07065de00011f7a6d,627c6974f0656182f5c56abc,2022-05-12_02h57.20.022,classification_task,2021.2.3,Win32,143.9884809,627c6715c52fd12f31907bcf,,,,,,,,,,,,,,,,,,,,,,,a,1,0.5029,"[""0.163"",""0.424"",""0.710"",""0.923""]","[1,1,0,1]",0,23,23,23,1,0,0,,,0,FALSE,,,,,,,,,,,,,,,,,,,,,,,,,,,,,,,
,5c4e36a07065de00011f7a6d,627c6974f0656182f5c56abc,2022-05-12_02h57.20.022,classification_task,2021.2.3,Win32,143.9884809,627c6715c52fd12f31907bcf,,,,,,,,,,,,,,,,,,,,,,,l,1,1.2636,"[""0.711"",""0.214"",""0.498"",""0.810""]","[0,1,1,1]",0,24,24,24,1,1,0,,,0,FALSE,,,,,,,,,,,,,,,,,,,,,,,,,,,,,,,
,5c4e36a07065de00011f7a6d,627c6974f0656182f5c56abc,2022-05-12_02h57.20.022,classification_task,2021.2.3,Win32,143.9884809,627c6715c52fd12f31907bcf,,,,,,,,,,,,,,,,,,,,,,,l,1,0.8973,"[""0.049"",""0.085"",""0.616"",""0.776""]","[1,1,0,1]",0,25,25,25,1,1,1,,,0,FALSE,,,,,,,,,,,,,,,,,,,,,,,,,,,,,,,
,5c4e36a07065de00011f7a6d,627c6974f0656182f5c56abc,2022-05-12_02h57.20.022,classification_task,2021.2.3,Win32,143.9884809,627c6715c52fd12f31907bcf,,,,,,,,,,,,,,,,,,,,,,,l,1,0.5834,"[""0.049"",""0.085"",""0.554"",""0.655""]","[1,1,1,0]",0,26,26,26,1,1,1,,,0,FALSE,,,,,,,,,,,,,,,,,,,,,,,,,,,,,,,
,5c4e36a07065de00011f7a6d,627c6974f0656182f5c56abc,2022-05-12_02h57.20.022,classification_task,2021.2.3,Win32,143.9884809,627c6715c52fd12f31907bcf,,,,,,,,,,,,,,,,,,,,,,,a,1,1.7516,"[""0.711"",""0.381"",""0.845"",""0.974""]","[0,1,1,1]",0,27,27,27,1,0,1,,,0,FALSE,,,,,,,,,,,,,,,,,,,,,,,,,,,,,,,
,5c4e36a07065de00011f7a6d,627c6974f0656182f5c56abc,2022-05-12_02h57.20.022,classification_task,2021.2.3,Win32,143.9884809,627c6715c52fd12f31907bcf,,,,,,,,,,,,,,,,,,,,,,,a,1,0.7504,"[""0.163"",""0.424"",""0.882"",""0.264""]","[1,1,1,0]",0,28,28,28,1,0,0,,,0,FALSE,,,,,,,,,,,,,,,,,,,,,,,,,,,,,,,
,5c4e36a07065de00011f7a6d,627c6974f0656182f5c56abc,2022-05-12_02h57.20.022,classification_task,2021.2.3,Win32,143.9884809,627c6715c52fd12f31907bcf,,,,,,,,,,,,,,,,,,,,,,,l,1,0.6892,"[""0.129"",""0.214"",""0.709"",""0.810""]","[1,1,0,1]",0,29,29,29,1,1,0,,,0,FALSE,,,,,,,,,,,,,,,,,,,,,,,,,,,,,,,
,5c4e36a07065de00011f7a6d,627c6974f0656182f5c56abc,2022-05-12_02h57.20.022,classification_task,2021.2.3,Win32,143.9884809,627c6715c52fd12f31907bcf,,,,,,,,,,,,,,,,,,,,,,,l,1,1.7646,"[""0.605"",""0.085"",""0.554"",""0.776""]","[0,1,1,1]",0,30,30,30,1,1,1,,,0,FALSE,,,,,,,,,,,,,,,,,,,,,,,,,,,,,,,
,5c4e36a07065de00011f7a6d,627c6974f0656182f5c56abc,2022-05-12_02h57.20.022,classification_task,2021.2.3,Win32,143.9884809,627c6715c52fd12f31907bcf,,,,,,,,,,,,,,,,,,,,,,,a,1,1.1806,"[""0.592"",""0.424"",""0.882"",""0.923""]","[0,1,1,1]",0,31,31,31,1,0,0,,,0,FALSE,,,,,,,,,,,,,,,,,,,,,,,,,,,,,,,
,5c4e36a07065de00011f7a6d,627c6974f0656182f5c56abc,2022-05-12_02h57.20.022,classification_task,2021.2.3,Win32,143.9884809,627c6715c52fd12f31907bcf,,,,,,,,,,,,,,,,,,,,,,,a,1,1.1458,"[""0.319"",""0.381"",""0.845"",""0.653""]","[1,1,1,0]",0,32,32,32,1,0,1,,,0,FALSE,,,,,,,,,,,,,,,,,,,,,,,,,,,,,,,
,5c4e36a07065de00011f7a6d,627c6974f0656182f5c56abc,2022-05-12_02h57.20.022,classification_task,2021.2.3,Win32,143.9884809,627c6715c52fd12f31907bcf,,,,,,,,,,,,,,,,,,,,,,,l,1,0.6955,"[""0.129"",""0.214"",""0.605"",""0.810""]","[1,1,0,1]",0,33,33,33,1,1,0,,,0,FALSE,,,,,,,,,,,,,,,,,,,,,,,,,,,,,,,
,5c4e36a07065de00011f7a6d,627c6974f0656182f5c56abc,2022-05-12_02h57.20.022,classification_task,2021.2.3,Win32,143.9884809,627c6715c52fd12f31907bcf,,,,,,,,,,,,,,,,,,,,,,,a,1,0.9799,"[""0.319"",""0.655"",""0.845"",""0.974""]","[1,0,1,1]",0,34,34,34,1,0,1,,,0,FALSE,,,,,,,,,,,,,,,,,,,,,,,,,,,,,,,
,5c4e36a07065de00011f7a6d,627c6974f0656182f5c56abc,2022-05-12_02h57.20.022,classification_task,2021.2.3,Win32,143.9884809,627c6715c52fd12f31907bcf,,,,,,,,,,,,,,,,,,,,,,,a,1,0.7737,"[""0.163"",""0.424"",""0.882"",""0.687""]","[1,1,1,0]",0,35,35,35,1,0,0,,,0,FALSE,,,,,,,,,,,,,,,,,,,,,,,,,,,,,,,
,5c4e36a07065de00011f7a6d,627c6974f0656182f5c56abc,2022-05-12_02h57.20.022,classification_task,2021.2.3,Win32,143.9884809,627c6715c52fd12f31907bcf,,,,,,,,,,,,,,,,,,,,,,,l,1,0.6675,"[""0.129"",""0.214"",""0.498"",""0.461""]","[1,1,1,0]",0,36,36,36,1,1,0,,,0,FALSE,,,,,,,,,,,,,,,,,,,,,,,,,,,,,,,
,5c4e36a07065de00011f7a6d,627c6974f0656182f5c56abc,2022-05-12_02h57.20.022,classification_task,2021.2.3,Win32,143.9884809,627c6715c52fd12f31907bcf,,,,,,,,,,,,,,,,,,,,,,,l,1,0.7576,"[""0.049"",""0.270"",""0.554"",""0.776""]","[1,0,1,1]",0,37,37,37,1,1,1,,,0,FALSE,,,,,,,,,,,,,,,,,,,,,,,,,,,,,,,
,5c4e36a07065de00011f7a6d,627c6974f0656182f5c56abc,2022-05-12_02h57.20.022,classification_task,2021.2.3,Win32,143.9884809,627c6715c52fd12f31907bcf,,,,,,,,,,,,,,,,,,,,,,,a,1,0.9773,"[""0.163"",""0.626"",""0.882"",""0.923""]","[1,0,1,1]",0,38,38,38,1,0,0,,,0,FALSE,,,,,,,,,,,,,,,,,,,,,,,,,,,,,,,
,5c4e36a07065de00011f7a6d,627c6974f0656182f5c56abc,2022-05-12_02h57.20.022,classification_task,2021.2.3,Win32,143.9884809,627c6715c52fd12f31907bcf,,,,,,,,,,,,,,,,,,,,,,,a,1,0.7165,"[""0.163"",""0.424"",""0.270"",""0.923""]","[1,1,0,1]",0,39,39,39,1,0,0,,,0,FALSE,,,,,,,,,,,,,,,,,,,,,,,,,,,,,,,
,5c4e36a07065de00011f7a6d,627c6974f0656182f5c56abc,2022-05-12_02h57.20.022,classification_task,2021.2.3,Win32,143.9884809,627c6715c52fd12f31907bcf,,,,,,,,,,,,,,,,,,,,,,,l,1,0.7471,"[""0.710"",""0.085"",""0.554"",""0.776""]","[0,1,1,1]",0,40,40,40,1,1,1,,,0,FALSE,,,,,,,,,,,,,,,,,,,,,,,,,,,,,,,
,5c4e36a07065de00011f7a6d,627c6974f0656182f5c56abc,2022-05-12_02h57.20.022,classification_task,2021.2.3,Win32,143.9884809,627c6715c52fd12f31907bcf,,,,,,,,,,,,,,,,,,,,,,,l,1,0.7522,"[""0.049"",""0.085"",""0.264"",""0.776""]","[1,1,0,1]",0,41,41,41,1,1,1,,,0,FALSE,,,,,,,,,,,,,,,,,,,,,,,,,,,,,,,
,5c4e36a07065de00011f7a6d,627c6974f0656182f5c56abc,2022-05-12_02h57.20.022,classification_task,2021.2.3,Win32,143.9884809,627c6715c52fd12f31907bcf,,,,,,,,,,,,,,,,,,,,,,,a,1,1.4737,"[""0.653"",""0.381"",""0.845"",""0.974""]","[0,1,1,1]",0,42,42,42,1,0,1,,,0,FALSE,,,,,,,,,,,,,,,,,,,,,,,,,,,,,,,
,5c4e36a07065de00011f7a6d,627c6974f0656182f5c56abc,2022-05-12_02h57.20.022,classification_task,2021.2.3,Win32,143.9884809,627c6715c52fd12f31907bcf,,,,,,,,,,,,,,,,,,,,,,,l,1,0.6252,"[""0.049"",""0.085"",""0.554"",""0.711""]","[1,1,1,0]",0,43,43,43,1,1,1,,,0,FALSE,,,,,,,,,,,,,,,,,,,,,,,,,,,,,,,
,5c4e36a07065de00011f7a6d,627c6974f0656182f5c56abc,2022-05-12_02h57.20.022,classification_task,2021.2.3,Win32,143.9884809,627c6715c52fd12f31907bcf,,,,,,,,,,,,,,,,,,,,,,,l,1,1.147,"[""0.655"",""0.214"",""0.498"",""0.810""]","[0,1,1,1]",0,44,44,44,1,1,0,,,0,FALSE,,,,,,,,,,,,,,,,,,,,,,,,,,,,,,,
,5c4e36a07065de00011f7a6d,627c6974f0656182f5c56abc,2022-05-12_02h57.20.022,classification_task,2021.2.3,Win32,143.9884809,627c6715c52fd12f31907bcf,,,,,,,,,,,,,,,,,,,,,,,a,1,0.8824,"[""0.319"",""0.381"",""0.605"",""0.974""]","[1,1,0,1]",0,45,45,45,1,0,1,,,0,FALSE,,,,,,,,,,,,,,,,,,,,,,,,,,,,,,,
,5c4e36a07065de00011f7a6d,627c6974f0656182f5c56abc,2022-05-12_02h57.20.022,classification_task,2021.2.3,Win32,143.9884809,627c6715c52fd12f31907bcf,,,,,,,,,,,,,,,,,,,,,,,a,1,1.519,"[""0.461"",""0.424"",""0.882"",""0.923""]","[0,1,1,1]",0,46,46,46,1,0,0,,,0,FALSE,,,,,,,,,,,,,,,,,,,,,,,,,,,,,,,
,5c4e36a07065de00011f7a6d,627c6974f0656182f5c56abc,2022-05-12_02h57.20.022,classification_task,2021.2.3,Win32,143.9884809,627c6715c52fd12f31907bcf,,,,,,,,,,,,,,,,,,,,,,,l,1,0.8719,"[""0.129"",""0.711"",""0.498"",""0.810""]","[1,0,1,1]",0,47,47,47,1,1,0,,,0,FALSE,,,,,,,,,,,,,,,,,,,,,,,,,,,,,,,
,5c4e36a07065de00011f7a6d,627c6974f0656182f5c56abc,2022-05-12_02h57.20.022,classification_task,2021.2.3,Win32,143.9884809,627c6715c52fd12f31907bcf,,,,,,,,,,,,,,,,,,,,,,,a,1,0.844,"[""0.616"",""0.424"",""0.882"",""0.923""]","[0,1,1,1]",0,48,48,48,1,0,0,,,0,FALSE,,,,,,,,,,,,,,,,,,,,,,,,,,,,,,,
,5c4e36a07065de00011f7a6d,627c6974f0656182f5c56abc,2022-05-12_02h57.20.022,classification_task,2021.2.3,Win32,143.9884809,627c6715c52fd12f31907bcf,,,,,,,,,,,,,,,,,,,,,,,a,1,1.3124,"[""0.709"",""0.381"",""0.845"",""0.974""]","[0,1,1,1]",0,49,49,49,1,0,1,,,0,FALSE,,,,,,,,,,,,,,,,,,,,,,,,,,,,,,,
,5c4e36a07065de00011f7a6d,627c6974f0656182f5c56abc,2022-05-12_02h57.20.022,classification_task,2021.2.3,Win32,143.9884809,627c6715c52fd12f31907bcf,,,,,,,,,,,,,,,,,,,,,,,a,1,0.91,"[""0.163"",""0.424"",""0.882"",""0.270""]","[1,1,1,0]",0,50,50,50,1,0,0,,,0,FALSE,,,,,,,,,,,,,,,,,,,,,,,,,,,,,,,
,5c4e36a07065de00011f7a6d,627c6974f0656182f5c56abc,2022-05-12_02h57.20.022,classification_task,2021.2.3,Win32,143.9884809,627c6715c52fd12f31907bcf,,,,,,,,,,,,,,,,,,,,,,,l,1,0.7448,"[""0.129"",""0.264"",""0.498"",""0.810""]","[1,0,1,1]",0,51,51,51,1,1,0,,,0,FALSE,,,,,,,,,,,,,,,,,,,,,,,,,,,,,,,
,5c4e36a07065de00011f7a6d,627c6974f0656182f5c56abc,2022-05-12_02h57.20.022,classification_task,2021.2.3,Win32,143.9884809,627c6715c52fd12f31907bcf,,,,,,,,,,,,,,,,,,,,,,,l,1,0.9976,"[""0.711"",""0.214"",""0.498"",""0.810""]","[0,1,1,1]",0,52,52,52,1,1,0,,,0,FALSE,,,,,,,,,,,,,,,,,,,,,,,,,,,,,,,
,5c4e36a07065de00011f7a6d,627c6974f0656182f5c56abc,2022-05-12_02h57.20.022,classification_task,2021.2.3,Win32,143.9884809,627c6715c52fd12f31907bcf,,,,,,,,,,,,,,,,,,,,,,,a,1,1.0552,"[""0.319"",""0.653"",""0.845"",""0.974""]","[1,0,1,1]",0,53,53,53,1,0,1,,,0,FALSE,,,,,,,,,,,,,,,,,,,,,,,,,,,,,,,
,5c4e36a07065de00011f7a6d,627c6974f0656182f5c56abc,2022-05-12_02h57.20.022,classification_task,2021.2.3,Win32,143.9884809,627c6715c52fd12f31907bcf,,,,,,,,,,,,,,,,,,,,,,,,0,,"[""0.129"",""0.214"",""0.498"",""0.709""]","[1,1,1,0]",0,54,54,54,1,1,0,,,0,FALSE,,,,,,,,,,,,,,,,,,,,,,,,,,,,,,,
,5c4e36a07065de00011f7a6d,627c6974f0656182f5c56abc,2022-05-12_02h57.20.022,classification_task,2021.2.3,Win32,143.9884809,627c6715c52fd12f31907bcf,,,,,,,,,,,,,,,,,,,,,,,l,1,1.4926,"[""0.049"",""0.085"",""0.616"",""0.776""]","[1,1,0,1]",0,55,55,55,1,1,1,,,0,FALSE,,,,,,,,,,,,,,,,,,,,,,,,,,,,,,,
,5c4e36a07065de00011f7a6d,627c6974f0656182f5c56abc,2022-05-12_02h57.20.022,classification_task,2021.2.3,Win32,143.9884809,627c6715c52fd12f31907bcf,,,,,,,,,,,,,,,,,,,,,,,a,1,1.2458,"[""0.163"",""0.651"",""0.882"",""0.923""]","[1,0,1,1]",0,56,56,56,1,0,0,,,0,FALSE,,,,,,,,,,,,,,,,,,,,,,,,,,,,,,,
,5c4e36a07065de00011f7a6d,627c6974f0656182f5c56abc,2022-05-12_02h57.20.022,classification_task,2021.2.3,Win32,143.9884809,627c6715c52fd12f31907bcf,,,,,,,,,,,,,,,,,,,,,,,l,1,2.9519,"[""0.605"",""0.085"",""0.554"",""0.776""]","[0,1,1,1]",0,57,57,57,1,1,1,,,0,FALSE,,,,,,,,,,,,,,,,,,,,,,,,,,,,,,,
,5c4e36a07065de00011f7a6d,627c6974f0656182f5c56abc,2022-05-12_02h57.20.022,classification_task,2021.2.3,Win32,143.9884809,627c6715c52fd12f31907bcf,,,,,,,,,,,,,,,,,,,,,,,a,0,3.9719,"[""0.129"",""0.214"",""0.264"",""0.810""]","[1,1,0,1]",0,58,58,58,1,1,0,,,0,FALSE,,,,,,,,,,,,,,,,,,,,,,,,,,,,,,,
,5c4e36a07065de00011f7a6d,627c6974f0656182f5c56abc,2022-05-12_02h57.20.022,classification_task,2021.2.3,Win32,143.9884809,627c6715c52fd12f31907bcf,,,,,,,,,,,,,,,,,,,,,,,a,1,2.0639,"[""0.319"",""0.381"",""0.653"",""0.974""]","[1,1,0,1]",0,59,59,59,1,0,1,,,0,FALSE,,,,,,,,,,,,,,,,,,,,,,,,,,,,,,,
,5c4e36a07065de00011f7a6d,627c6974f0656182f5c56abc,2022-05-12_02h57.20.022,classification_task,2021.2.3,Win32,143.9884809,627c6715c52fd12f31907bcf,,,,,,,,,,,,,,,,,,,,,,,l,1,2.1145,"[""0.049"",""0.605"",""0.554"",""0.776""]","[1,0,1,1]",0,60,60,60,1,1,1,,,0,FALSE,,,,,,,,,,,,,,,,,,,,,,,,,,,,,,,
,5c4e36a07065de00011f7a6d,627c6974f0656182f5c56abc,2022-05-12_02h57.20.022,classification_task,2021.2.3,Win32,143.9884809,627c6715c52fd12f31907bcf,,,,,,,,,,,,,,,,,,,,,,,a,1,1.138,"[""0.319"",""0.381"",""0.845"",""0.616""]","[1,1,1,0]",0,61,61,61,1,0,1,,,0,FALSE,,,,,,,,,,,,,,,,,,,,,,,,,,,,,,,
,5c4e36a07065de00011f7a6d,627c6974f0656182f5c56abc,2022-05-12_02h57.20.022,classification_task,2021.2.3,Win32,143.9884809,627c6715c52fd12f31907bcf,,,,,,,,,,,,,,,,,,,,,,,a,1,2.2514,"[""0.163"",""0.424"",""0.631"",""0.923""]","[1,1,0,1]",0,62,62,62,1,0,0,,,0,FALSE,,,,,,,,,,,,,,,,,,,,,,,,,,,,,,,
,5c4e36a07065de00011f7a6d,627c6974f0656182f5c56abc,2022-05-12_02h57.20.022,classification_task,2021.2.3,Win32,143.9884809,627c6715c52fd12f31907bcf,,,,,,,,,,,,,,,,,,,,,,,l,1,2.2991,"[""0.049"",""0.085"",""0.554"",""0.653""]","[1,1,1,0]",0,63,63,63,1,1,1,,,0,FALSE,,,,,,,,,,,,,,,,,,,,,,,,,,,,,,,
,5c4e36a07065de00011f7a6d,627c6974f0656182f5c56abc,2022-05-12_02h57.20.022,classification_task,2021.2.3,Win32,143.9884809,627c6715c52fd12f31907bcf,,,,,,,,,,,,,,,,,,,,,,,,,,,,,,,,,,,,,,,0, ,,0,7.008622379,181.6584,0,2,2,2,1,2,3,,,,,,,,,,,,,,,,,,
,5c4e36a07065de00011f7a6d,627c6974f0656182f5c56abc,2022-05-12_02h57.20.022,classification_task,2021.2.3,Win32,143.9884809,627c6715c52fd12f31907bcf,,,,,,,,,,,,,,,,,,,,,,,,,,,,,,,,,,,,,,,1,  ,,0,9.360180286,171.3576,0,2,2,2,1,2,3,,,,,,,,,,,,,,,,,,
,5c4e36a07065de00011f7a6d,627c6974f0656182f5c56abc,2022-05-12_02h57.20.022,classification_task,2021.2.3,Win32,143.9884809,627c6715c52fd12f31907bcf,,,,,,,,,,,,,,,,,,,,,,,,,,,,,,,,,,,,,,,2,  ,,0,5.073486185,167.3181,0,2,2,2,1,2,3,,,,,,,,,,,,,,,,,,
,5c4e36a07065de00011f7a6d,627c6974f0656182f5c56abc,2022-05-12_02h57.20.022,classification_task,2021.2.3,Win32,143.9884809,627c6715c52fd12f31907bcf,,,,,,,,,,,,,,,,,,,,,,,,,,,,,,,,,,,,,,,,,,,,,0,2,2,2,1,,3,,,,,,,,,,,,,,,,,,
,5c4e36a07065de00011f7a6d,627c6974f0656182f5c56abc,2022-05-12_02h57.20.022,classification_task,2021.2.3,Win32,143.9884809,627c6715c52fd12f31907bcf,,,,,,,,,,,,,,,,,,,,,,,,,,,,,,,,,,,,,,,,,,,,,,,,,,,,,I believe the aid is a competent performer,,0.7,0,4,851.5816,0,0,0,0,1,0,,,,,
,5c4e36a07065de00011f7a6d,627c6974f0656182f5c56abc,2022-05-12_02h57.20.022,classification_task,2021.2.3,Win32,143.9884809,627c6715c52fd12f31907bcf,,,,,,,,,,,,,,,,,,,,,,,,,,,,,,,,,,,,,,,,,,,,,,,,,,,,,I trust the aid,,0.7,0,4,806.321,0,0,0,0,1,0,,,,,
,5c4e36a07065de00011f7a6d,627c6974f0656182f5c56abc,2022-05-12_02h57.20.022,classification_task,2021.2.3,Win32,143.9884809,627c6715c52fd12f31907bcf,,,,,,,,,,,,,,,,,,,,,,,,,,,,,,,,,,,,,,,,,,,,,,,,,,,,,I have confidence in the advice given by the aid,,0.7,0,5,813.2279,0,0,0,0,1,0,,,,,
,5c4e36a07065de00011f7a6d,627c6974f0656182f5c56abc,2022-05-12_02h57.20.022,classification_task,2021.2.3,Win32,143.9884809,627c6715c52fd12f31907bcf,,,,,,,,,,,,,,,,,,,,,,,,,,,,,,,,,,,,,,,,,,,,,,,,,,,,,I can depend on the aid,,0.7,0,5,815.7808,0,0,0,0,1,0,,,,,
,5c4e36a07065de00011f7a6d,627c6974f0656182f5c56abc,2022-05-12_02h57.20.022,classification_task,2021.2.3,Win32,143.9884809,627c6715c52fd12f31907bcf,,,,,,,,,,,,,,,,,,,,,,,,,,,,,,,,,,,,,,,,,,,,,,,,,,,,,I can rely on the aid to behave in consistent ways,,0.7,0,4,820.4924,0,0,0,0,1,0,,,,,
,5c4e36a07065de00011f7a6d,627c6974f0656182f5c56abc,2022-05-12_02h57.20.022,classification_task,2021.2.3,Win32,143.9884809,627c6715c52fd12f31907bcf,,,,,,,,,,,,,,,,,,,,,,,,,,,,,,,,,,,,,,,,,,,,,,,,,,,,,I can rely on the aid to do its best every time I take its advice,,0.7,0,5,825.4057,0,0,0,0,1,0,,,,,
,5c4e36a07065de00011f7a6d,627c6974f0656182f5c56abc,2022-05-12_02h57.20.022,classification_task,2021.2.3,Win32,143.9884809,627c6715c52fd12f31907bcf,,,,,,,,,,,,,,,,,,,,,,,,,,,,,,,,,,,,,,,,,,,,,,,,,,,,,"On trials you completed with assistance from the aid, how frequently did you think the aid was correct?",,0.7,0,95%,,0,0,0,0,1,0,,,,,
,5c4e36a07065de00011f7a6d,627c6974f0656182f5c56abc,2022-05-12_02h57.20.022,classification_task,2021.2.3,Win32,143.9884809,627c6715c52fd12f31907bcf,,,,,,,,,,,,,,,,,,,,,,,,,,,,,,,,,,,,,,,,,,,,,,,,,,,,,"On trials you completed without the aid, how frequently did you think you were correct?",,0.7,0,75%,,0,0,0,0,1,0,,,,,
,5c4e36a07065de00011f7a6d,627c6974f0656182f5c56abc,2022-05-12_02h57.20.022,classification_task,2021.2.3,Win32,143.9884809,627c6715c52fd12f31907bcf,,,,,,,,,,,,,,,,,,,,,,,,,,,,,,,,,,,,,,,,,,,,,,,,,,,,,,,,,,,0,0,0,0,1,,,,,,
,5c4e36a07065de00011f7a6d,627c6974f0656182f5c56abc,2022-05-12_02h57.20.022,classification_task,2021.2.3,Win32,143.9884809,627c6715c52fd12f31907bcf,,,,,,,,,,,,,,,,,,,,,,,,,,,,,,,,,,,,,,,,,,,,,,,,,,,,,,,,,,,,,,,,,space,11.4763,863.9788,,
,5c4e36a07065de00011f7a6d,627c6974f0656182f5c56abc,2022-05-12_02h57.20.022,classification_task,2021.2.3,Win32,143.9884809,627c6715c52fd12f31907bcf,,,,,,,,,,,,,,,,,,,,,,,,,,,,,,,,,,,,,,,,,,,,,,,,,,,,,,,,,,,,,,,,,,,,"Mozilla/5.0 (Windows NT 10.0; Win64; x64) AppleWebKit/537.36 (KHTML, like Gecko) Chrome/101.0.4951.54 Safari/537.36",
,5c4e36a07065de00011f7a6d,627c6974f0656182f5c56abc,2022-05-12_02h57.20.022,classification_task,2021.2.3,Win32,143.9884809,627c6715c52fd12f31907bcf,,,,,,,,,,,,,,,,,,,,,,,,,,,,,,,,,,,,,,,,,,,,,,,,,,,,,,,,,,,,,,,,,,,,,LOWLIGHT
