usingWebGL,participant,session,date,expName,psychopyVersion,OS,frameRate,study_id,signatures_friend,signatures_foe,band_ranges_top,band_ranges_bottom,formitemText,formtype,formundefined,formitemWidth,formindex,formresponse,formrt,key_resp_2.keys,key_resp_2.rt,tute_resp.keys,tute_resp.rt,tutorial.thisRepN,tutorial.thisTrialN,tutorial.thisN,tutorial.thisIndex,tutorial.ran,key_resp_4.keys,key_resp_4.rt,key_resp.keys,key_resp.corr,key_resp.rt,lines_presented,is_signal_presented,trials.thisRepN,trials.thisTrialN,trials.thisN,trials.thisIndex,trials.ran,vessel,active_band,lines,is_signal,supported_pos,catch_trial,debrief_formindex,debrief_formitemText,debrief_formtype,debrief_formitemWidth,debrief_formresponse,debrief_formrt,phases.thisRepN,phases.thisTrialN,phases.thisN,phases.thisIndex,phases.ran,phases.order,phase,key_resp_3.keys,trustitemText,trusttype,trustitemWidth,trustindex,trustresponse,trustrt,support_status.thisRepN,support_status.thisTrialN,support_status.thisN,support_status.thisIndex,support_status.ran,support_status.order,key_resp_5.keys,key_resp_5.rt,globalClockTime,userAgent,manualCondition
TRUE,5c5493207f5e0c000143e96e,627c6fb7b6090fa5e66f026f,2022-05-12_04h27.28.121,classification_task,2021.2.3,Win32,59.97720866,627c6715c52fd12f31907bcf,,,,,,,,,,,,,,,,,,,,,,,,,,,,,,,,,,,,,,,,,,,,,,,,,,,,,,,,,,,,,,,,,,,,,
,5c5493207f5e0c000143e96e,627c6fb7b6090fa5e66f026f,2022-05-12_04h27.28.121,classification_task,2021.2.3,Win32,59.97720866,627c6715c52fd12f31907bcf,"[[""0.187"",""0.428"",""0.926"",""0.974""],[""0.225"",""0.395"",""0.772"",""0.875""]]","[[""0.135"",""0.352"",""0.528"",""0.828""],[""0.065"",""0.294"",""0.481"",""0.675""]]","[1,10]","[100,1000]",Video game experience,,,0.7,0,,,,,,,,,,,,,,,,,,,,,,,,,,,,,,,,,,,,,,,,,,,,,,,,,,,,,,,,,,,,
,5c5493207f5e0c000143e96e,627c6fb7b6090fa5e66f026f,2022-05-12_04h27.28.121,classification_task,2021.2.3,Win32,59.97720866,627c6715c52fd12f31907bcf,,,,,Approximately how many hours did you spend playing video games in the last week?,,,0.7,0,40,,,,,,,,,,,,,,,,,,,,,,,,,,,,,,,,,,,,,,,,,,,,,,,,,,,,,,,,,,,
,5c5493207f5e0c000143e96e,627c6fb7b6090fa5e66f026f,2022-05-12_04h27.28.121,classification_task,2021.2.3,Win32,59.97720866,627c6715c52fd12f31907bcf,,,,,"Which game did you play the most this year? (Enter ""None"" if you didn't play any)",,,0.7,0,Fifa 22,,,,,,,,,,,,,,,,,,,,,,,,,,,,,,,,,,,,,,,,,,,,,,,,,,,,,,,,,,,
,5c5493207f5e0c000143e96e,627c6fb7b6090fa5e66f026f,2022-05-12_04h27.28.121,classification_task,2021.2.3,Win32,59.97720866,627c6715c52fd12f31907bcf,,,,,Visual perception,,,0.7,0,,,,,,,,,,,,,,,,,,,,,,,,,,,,,,,,,,,,,,,,,,,,,,,,,,,,,,,,,,,,
,5c5493207f5e0c000143e96e,627c6fb7b6090fa5e66f026f,2022-05-12_04h27.28.121,classification_task,2021.2.3,Win32,59.97720866,627c6715c52fd12f31907bcf,,,,,Do you have any form of color blindness?,,,0.7,0,No,71.0337,,,,,,,,,,,,,,,,,,,,,,,,,,,,,,,,,,,,,,,,,,,,,,,,,,,,,,,,,,
,5c5493207f5e0c000143e96e,627c6fb7b6090fa5e66f026f,2022-05-12_04h27.28.121,classification_task,2021.2.3,Win32,59.97720866,627c6715c52fd12f31907bcf,,,,,Do you use software to change the colour temperature of your screen (e.g. f.lux)?,,,0.7,0,No,73.4793,,,,,,,,,,,,,,,,,,,,,,,,,,,,,,,,,,,,,,,,,,,,,,,,,,,,,,,,,,
,5c5493207f5e0c000143e96e,627c6fb7b6090fa5e66f026f,2022-05-12_04h27.28.121,classification_task,2021.2.3,Win32,59.97720866,627c6715c52fd12f31907bcf,,,,,,,,,,,,space,101.1227,space,64.0368,0,0,0,0,1,,,,,,,,,,,,,,,,,,,,,,,,,,,,,,,,,,,,,,,,,,,,,,,,,
,5c5493207f5e0c000143e96e,627c6fb7b6090fa5e66f026f,2022-05-12_04h27.28.121,classification_task,2021.2.3,Win32,59.97720866,627c6715c52fd12f31907bcf,,,,,,,,,,,,,,space,9.9493,1,0,1,0,1,,,,,,,,,,,,,,,,,,,,,,,,,,,,,,,,,,,,,,,,,,,,,,,,,
,5c5493207f5e0c000143e96e,627c6fb7b6090fa5e66f026f,2022-05-12_04h27.28.121,classification_task,2021.2.3,Win32,59.97720866,627c6715c52fd12f31907bcf,,,,,,,,,,,,,,space,58.5028,2,0,2,0,1,,,,,,,,,,,,,,,,,,,,,,,,,,,,,,,,,,,,,,,,,,,,,,,,,
,5c5493207f5e0c000143e96e,627c6fb7b6090fa5e66f026f,2022-05-12_04h27.28.121,classification_task,2021.2.3,Win32,59.97720866,627c6715c52fd12f31907bcf,,,,,,,,,,,,,,space,9.8984,3,0,3,0,1,,,,,,,,,,,,,,,,,,,,,,,,,,,,,,,,,,,,,,,,,,,,,,,,,
,5c5493207f5e0c000143e96e,627c6fb7b6090fa5e66f026f,2022-05-12_04h27.28.121,classification_task,2021.2.3,Win32,59.97720866,627c6715c52fd12f31907bcf,,,,,,,,,,,,,,space,24.9339,4,0,4,0,1,,,,,,,,,,,,,,,,,,,,,,,,,,,,,,,,,,,,,,,,,,,,,,,,,
,5c5493207f5e0c000143e96e,627c6fb7b6090fa5e66f026f,2022-05-12_04h27.28.121,classification_task,2021.2.3,Win32,59.97720866,627c6715c52fd12f31907bcf,,,,,,,,,,,,,,,,,,,,,space,19.5761,l,1,5.01,"[""0.135"",""0.352"",""0.591"",""0.828""]","[1,1,0,1]",0,0,0,0,1,1,0,,,1,FALSE,,,,,,,,,,,,,,,,,,,,,,,,,,,,,,,
,5c5493207f5e0c000143e96e,627c6fb7b6090fa5e66f026f,2022-05-12_04h27.28.121,classification_task,2021.2.3,Win32,59.97720866,627c6715c52fd12f31907bcf,,,,,,,,,,,,,,,,,,,,,,,a,1,3.727,"[""0.028"",""0.428"",""0.926"",""0.974""]","[0,1,1,1]",0,1,1,1,1,0,0,,,1,FALSE,,,,,,,,,,,,,,,,,,,,,,,,,,,,,,,
,5c5493207f5e0c000143e96e,627c6fb7b6090fa5e66f026f,2022-05-12_04h27.28.121,classification_task,2021.2.3,Win32,59.97720866,627c6715c52fd12f31907bcf,,,,,,,,,,,,,,,,,,,,,,,a,1,3.143,"[""0.225"",""0.395"",""0.593"",""0.875""]","[1,1,0,1]",0,2,2,2,1,0,1,,,1,FALSE,,,,,,,,,,,,,,,,,,,,,,,,,,,,,,,
,5c5493207f5e0c000143e96e,627c6fb7b6090fa5e66f026f,2022-05-12_04h27.28.121,classification_task,2021.2.3,Win32,59.97720866,627c6715c52fd12f31907bcf,,,,,,,,,,,,,,,,,,,,,,,l,1,1.9387,"[""0.065"",""0.582"",""0.481"",""0.675""]","[1,0,1,1]",0,3,3,3,1,1,1,,,1,FALSE,,,,,,,,,,,,,,,,,,,,,,,,,,,,,,,
,5c5493207f5e0c000143e96e,627c6fb7b6090fa5e66f026f,2022-05-12_04h27.28.121,classification_task,2021.2.3,Win32,59.97720866,627c6715c52fd12f31907bcf,,,,,,,,,,,,,,,,,,,,,,,a,0,4.1472,"[""0.135"",""0.352"",""0.528"",""0.631""]","[1,1,1,0]",0,4,4,4,1,1,0,,,1,FALSE,,,,,,,,,,,,,,,,,,,,,,,,,,,,,,,
,5c5493207f5e0c000143e96e,627c6fb7b6090fa5e66f026f,2022-05-12_04h27.28.121,classification_task,2021.2.3,Win32,59.97720866,627c6715c52fd12f31907bcf,,,,,,,,,,,,,,,,,,,,,,,a,1,4.3825,"[""0.187"",""0.428"",""0.926"",""0.631""]","[1,1,1,0]",0,5,5,5,1,0,0,,,1,FALSE,,,,,,,,,,,,,,,,,,,,,,,,,,,,,,,
,5c5493207f5e0c000143e96e,627c6fb7b6090fa5e66f026f,2022-05-12_04h27.28.121,classification_task,2021.2.3,Win32,59.97720866,627c6715c52fd12f31907bcf,,,,,,,,,,,,,,,,,,,,,,,a,1,2.6886,"[""0.586"",""0.395"",""0.772"",""0.875""]","[0,1,1,1]",0,6,6,6,1,0,1,,,1,FALSE,,,,,,,,,,,,,,,,,,,,,,,,,,,,,,,
,5c5493207f5e0c000143e96e,627c6fb7b6090fa5e66f026f,2022-05-12_04h27.28.121,classification_task,2021.2.3,Win32,59.97720866,627c6715c52fd12f31907bcf,,,,,,,,,,,,,,,,,,,,,,,l,0,2.4978,"[""0.225"",""0.028"",""0.772"",""0.875""]","[1,0,1,1]",0,7,7,7,1,0,1,,,1,FALSE,,,,,,,,,,,,,,,,,,,,,,,,,,,,,,,
,5c5493207f5e0c000143e96e,627c6fb7b6090fa5e66f026f,2022-05-12_04h27.28.121,classification_task,2021.2.3,Win32,59.97720866,627c6715c52fd12f31907bcf,,,,,,,,,,,,,,,,,,,,,,,a,1,5.4979,"[""0.187"",""0.428"",""0.737"",""0.974""]","[1,1,0,1]",0,8,8,8,1,0,0,,,1,FALSE,,,,,,,,,,,,,,,,,,,,,,,,,,,,,,,
,5c5493207f5e0c000143e96e,627c6fb7b6090fa5e66f026f,2022-05-12_04h27.28.121,classification_task,2021.2.3,Win32,59.97720866,627c6715c52fd12f31907bcf,,,,,,,,,,,,,,,,,,,,,,,l,1,2.1576,"[""0.579"",""0.294"",""0.481"",""0.675""]","[0,1,1,1]",0,9,9,9,1,1,1,,,1,FALSE,,,,,,,,,,,,,,,,,,,,,,,,,,,,,,,
,5c5493207f5e0c000143e96e,627c6fb7b6090fa5e66f026f,2022-05-12_04h27.28.121,classification_task,2021.2.3,Win32,59.97720866,627c6715c52fd12f31907bcf,,,,,,,,,,,,,,,,,,,,,,,l,1,3.1226,"[""0.723"",""0.352"",""0.528"",""0.828""]","[0,1,1,1]",0,10,10,10,1,1,0,,,1,FALSE,,,,,,,,,,,,,,,,,,,,,,,,,,,,,,,
,5c5493207f5e0c000143e96e,627c6fb7b6090fa5e66f026f,2022-05-12_04h27.28.121,classification_task,2021.2.3,Win32,59.97720866,627c6715c52fd12f31907bcf,,,,,,,,,,,,,,,,,,,,,,,a,0,3.9108,"[""0.065"",""0.294"",""0.481"",""0.593""]","[1,1,1,0]",0,11,11,11,1,1,1,,,1,FALSE,,,,,,,,,,,,,,,,,,,,,,,,,,,,,,,
,5c5493207f5e0c000143e96e,627c6fb7b6090fa5e66f026f,2022-05-12_04h27.28.121,classification_task,2021.2.3,Win32,59.97720866,627c6715c52fd12f31907bcf,,,,,,,,,,,,,,,,,,,,,,,a,1,5.1065,"[""0.187"",""0.028"",""0.926"",""0.974""]","[1,0,1,1]",0,12,12,12,1,0,0,,,1,FALSE,,,,,,,,,,,,,,,,,,,,,,,,,,,,,,,
,5c5493207f5e0c000143e96e,627c6fb7b6090fa5e66f026f,2022-05-12_04h27.28.121,classification_task,2021.2.3,Win32,59.97720866,627c6715c52fd12f31907bcf,,,,,,,,,,,,,,,,,,,,,,,a,0,2.4109,"[""0.065"",""0.294"",""0.586"",""0.675""]","[1,1,0,1]",0,13,13,13,1,1,1,,,1,FALSE,,,,,,,,,,,,,,,,,,,,,,,,,,,,,,,
,5c5493207f5e0c000143e96e,627c6fb7b6090fa5e66f026f,2022-05-12_04h27.28.121,classification_task,2021.2.3,Win32,59.97720866,627c6715c52fd12f31907bcf,,,,,,,,,,,,,,,,,,,,,,,a,0,8.1525,"[""0.135"",""0.582"",""0.528"",""0.828""]","[1,0,1,1]",0,14,14,14,1,1,0,,,1,FALSE,,,,,,,,,,,,,,,,,,,,,,,,,,,,,,,
,5c5493207f5e0c000143e96e,627c6fb7b6090fa5e66f026f,2022-05-12_04h27.28.121,classification_task,2021.2.3,Win32,59.97720866,627c6715c52fd12f31907bcf,,,,,,,,,,,,,,,,,,,,,,,a,1,6.8006,"[""0.225"",""0.395"",""0.772"",""0.598""]","[1,1,1,0]",0,15,15,15,1,0,1,,,1,FALSE,,,,,,,,,,,,,,,,,,,,,,,,,,,,,,,
,5c5493207f5e0c000143e96e,627c6fb7b6090fa5e66f026f,2022-05-12_04h27.28.121,classification_task,2021.2.3,Win32,59.97720866,627c6715c52fd12f31907bcf,,,,,,,,,,,,,,,,,,,,,,,a,1,2.746,"[""0.187"",""0.723"",""0.926"",""0.974""]","[1,0,1,1]",0,16,16,16,1,0,0,,,1,FALSE,,,,,,,,,,,,,,,,,,,,,,,,,,,,,,,
,5c5493207f5e0c000143e96e,627c6fb7b6090fa5e66f026f,2022-05-12_04h27.28.121,classification_task,2021.2.3,Win32,59.97720866,627c6715c52fd12f31907bcf,,,,,,,,,,,,,,,,,,,,,,,l,1,2.3744,"[""0.065"",""0.294"",""0.593"",""0.675""]","[1,1,0,1]",0,17,17,17,1,1,1,,,1,FALSE,,,,,,,,,,,,,,,,,,,,,,,,,,,,,,,
,5c5493207f5e0c000143e96e,627c6fb7b6090fa5e66f026f,2022-05-12_04h27.28.121,classification_task,2021.2.3,Win32,59.97720866,627c6715c52fd12f31907bcf,,,,,,,,,,,,,,,,,,,,,,,l,1,3.5301,"[""0.631"",""0.352"",""0.528"",""0.828""]","[0,1,1,1]",0,18,18,18,1,1,0,,,1,FALSE,,,,,,,,,,,,,,,,,,,,,,,,,,,,,,,
,5c5493207f5e0c000143e96e,627c6fb7b6090fa5e66f026f,2022-05-12_04h27.28.121,classification_task,2021.2.3,Win32,59.97720866,627c6715c52fd12f31907bcf,,,,,,,,,,,,,,,,,,,,,,,a,1,2.612,"[""0.225"",""0.395"",""0.579"",""0.875""]","[1,1,0,1]",0,19,19,19,1,0,1,,,1,FALSE,,,,,,,,,,,,,,,,,,,,,,,,,,,,,,,
,5c5493207f5e0c000143e96e,627c6fb7b6090fa5e66f026f,2022-05-12_04h27.28.121,classification_task,2021.2.3,Win32,59.97720866,627c6715c52fd12f31907bcf,,,,,,,,,,,,,,,,,,,,,,,a,1,1.9106,"[""0.225"",""0.395"",""0.772"",""0.575""]","[1,1,1,0]",0,20,20,20,1,0,1,,,1,FALSE,,,,,,,,,,,,,,,,,,,,,,,,,,,,,,,
,5c5493207f5e0c000143e96e,627c6fb7b6090fa5e66f026f,2022-05-12_04h27.28.121,classification_task,2021.2.3,Win32,59.97720866,627c6715c52fd12f31907bcf,,,,,,,,,,,,,,,,,,,,,,,a,1,3.5488,"[""0.586"",""0.428"",""0.926"",""0.974""]","[0,1,1,1]",0,21,21,21,1,0,0,,,1,FALSE,,,,,,,,,,,,,,,,,,,,,,,,,,,,,,,
,5c5493207f5e0c000143e96e,627c6fb7b6090fa5e66f026f,2022-05-12_04h27.28.121,classification_task,2021.2.3,Win32,59.97720866,627c6715c52fd12f31907bcf,,,,,,,,,,,,,,,,,,,,,,,l,1,2.5665,"[""0.579"",""0.294"",""0.481"",""0.675""]","[0,1,1,1]",0,22,22,22,1,1,1,,,1,FALSE,,,,,,,,,,,,,,,,,,,,,,,,,,,,,,,
,5c5493207f5e0c000143e96e,627c6fb7b6090fa5e66f026f,2022-05-12_04h27.28.121,classification_task,2021.2.3,Win32,59.97720866,627c6715c52fd12f31907bcf,,,,,,,,,,,,,,,,,,,,,,,a,1,1.4933,"[""0.187"",""0.428"",""0.926"",""0.580""]","[1,1,1,0]",0,23,23,23,1,0,0,,,1,FALSE,,,,,,,,,,,,,,,,,,,,,,,,,,,,,,,
,5c5493207f5e0c000143e96e,627c6fb7b6090fa5e66f026f,2022-05-12_04h27.28.121,classification_task,2021.2.3,Win32,59.97720866,627c6715c52fd12f31907bcf,,,,,,,,,,,,,,,,,,,,,,,l,1,1.6401,"[""0.065"",""0.737"",""0.481"",""0.675""]","[1,0,1,1]",0,24,24,24,1,1,1,,,1,FALSE,,,,,,,,,,,,,,,,,,,,,,,,,,,,,,,
,5c5493207f5e0c000143e96e,627c6fb7b6090fa5e66f026f,2022-05-12_04h27.28.121,classification_task,2021.2.3,Win32,59.97720866,627c6715c52fd12f31907bcf,,,,,,,,,,,,,,,,,,,,,,,l,1,2.6729,"[""0.065"",""0.294"",""0.481"",""0.099""]","[1,1,1,0]",0,25,25,25,1,1,1,,,1,FALSE,,,,,,,,,,,,,,,,,,,,,,,,,,,,,,,
,5c5493207f5e0c000143e96e,627c6fb7b6090fa5e66f026f,2022-05-12_04h27.28.121,classification_task,2021.2.3,Win32,59.97720866,627c6715c52fd12f31907bcf,,,,,,,,,,,,,,,,,,,,,,,l,1,1.6984,"[""0.135"",""0.582"",""0.528"",""0.828""]","[1,0,1,1]",0,26,26,26,1,1,0,,,1,FALSE,,,,,,,,,,,,,,,,,,,,,,,,,,,,,,,
,5c5493207f5e0c000143e96e,627c6fb7b6090fa5e66f026f,2022-05-12_04h27.28.121,classification_task,2021.2.3,Win32,59.97720866,627c6715c52fd12f31907bcf,,,,,,,,,,,,,,,,,,,,,,,a,1,1.3433,"[""0.187"",""0.428"",""0.580"",""0.974""]","[1,1,0,1]",0,27,27,27,1,0,0,,,1,FALSE,,,,,,,,,,,,,,,,,,,,,,,,,,,,,,,
,5c5493207f5e0c000143e96e,627c6fb7b6090fa5e66f026f,2022-05-12_04h27.28.121,classification_task,2021.2.3,Win32,59.97720866,627c6715c52fd12f31907bcf,,,,,,,,,,,,,,,,,,,,,,,a,1,2.3441,"[""0.030"",""0.395"",""0.772"",""0.875""]","[0,1,1,1]",0,28,28,28,1,0,1,,,1,FALSE,,,,,,,,,,,,,,,,,,,,,,,,,,,,,,,
,5c5493207f5e0c000143e96e,627c6fb7b6090fa5e66f026f,2022-05-12_04h27.28.121,classification_task,2021.2.3,Win32,59.97720866,627c6715c52fd12f31907bcf,,,,,,,,,,,,,,,,,,,,,,,a,0,1.402,"[""0.135"",""0.352"",""0.575"",""0.828""]","[1,1,0,1]",0,29,29,29,1,1,0,,,1,FALSE,,,,,,,,,,,,,,,,,,,,,,,,,,,,,,,
,5c5493207f5e0c000143e96e,627c6fb7b6090fa5e66f026f,2022-05-12_04h27.28.121,classification_task,2021.2.3,Win32,59.97720866,627c6715c52fd12f31907bcf,,,,,,,,,,,,,,,,,,,,,,,a,1,1.9474,"[""0.225"",""0.028"",""0.772"",""0.875""]","[1,0,1,1]",0,30,30,30,1,0,1,,,1,FALSE,,,,,,,,,,,,,,,,,,,,,,,,,,,,,,,
,5c5493207f5e0c000143e96e,627c6fb7b6090fa5e66f026f,2022-05-12_04h27.28.121,classification_task,2021.2.3,Win32,59.97720866,627c6715c52fd12f31907bcf,,,,,,,,,,,,,,,,,,,,,,,l,1,3.5469,"[""0.135"",""0.352"",""0.528"",""0.580""]","[1,1,1,0]",0,31,31,31,1,1,0,,,1,FALSE,,,,,,,,,,,,,,,,,,,,,,,,,,,,,,,
,5c5493207f5e0c000143e96e,627c6fb7b6090fa5e66f026f,2022-05-12_04h27.28.121,classification_task,2021.2.3,Win32,59.97720866,627c6715c52fd12f31907bcf,,,,,,,,,,,,,,,,,,,,,,,l,0,5.9852,"[""0.631"",""0.428"",""0.926"",""0.974""]","[0,1,1,1]",0,32,32,32,1,0,0,,,1,FALSE,,,,,,,,,,,,,,,,,,,,,,,,,,,,,,,
,5c5493207f5e0c000143e96e,627c6fb7b6090fa5e66f026f,2022-05-12_04h27.28.121,classification_task,2021.2.3,Win32,59.97720866,627c6715c52fd12f31907bcf,,,,,,,,,,,,,,,,,,,,,,,a,0,5.0367,"[""0.065"",""0.294"",""0.481"",""0.593""]","[1,1,1,0]",0,33,33,33,1,1,1,,,1,FALSE,,,,,,,,,,,,,,,,,,,,,,,,,,,,,,,
,5c5493207f5e0c000143e96e,627c6fb7b6090fa5e66f026f,2022-05-12_04h27.28.121,classification_task,2021.2.3,Win32,59.97720866,627c6715c52fd12f31907bcf,,,,,,,,,,,,,,,,,,,,,,,a,1,4.6512,"[""0.187"",""0.593"",""0.926"",""0.974""]","[1,0,1,1]",0,34,34,34,1,0,0,,,1,FALSE,,,,,,,,,,,,,,,,,,,,,,,,,,,,,,,
,5c5493207f5e0c000143e96e,627c6fb7b6090fa5e66f026f,2022-05-12_04h27.28.121,classification_task,2021.2.3,Win32,59.97720866,627c6715c52fd12f31907bcf,,,,,,,,,,,,,,,,,,,,,,,l,1,1.3997,"[""0.723"",""0.294"",""0.481"",""0.675""]","[0,1,1,1]",0,35,35,35,1,1,1,,,1,FALSE,,,,,,,,,,,,,,,,,,,,,,,,,,,,,,,
,5c5493207f5e0c000143e96e,627c6fb7b6090fa5e66f026f,2022-05-12_04h27.28.121,classification_task,2021.2.3,Win32,59.97720866,627c6715c52fd12f31907bcf,,,,,,,,,,,,,,,,,,,,,,,a,0,1.7263,"[""0.135"",""0.030"",""0.528"",""0.828""]","[1,0,1,1]",0,36,36,36,1,1,0,,,1,FALSE,,,,,,,,,,,,,,,,,,,,,,,,,,,,,,,
,5c5493207f5e0c000143e96e,627c6fb7b6090fa5e66f026f,2022-05-12_04h27.28.121,classification_task,2021.2.3,Win32,59.97720866,627c6715c52fd12f31907bcf,,,,,,,,,,,,,,,,,,,,,,,a,1,1.0561,"[""0.225"",""0.395"",""0.598"",""0.875""]","[1,1,0,1]",0,37,37,37,1,0,1,,,1,FALSE,,,,,,,,,,,,,,,,,,,,,,,,,,,,,,,
,5c5493207f5e0c000143e96e,627c6fb7b6090fa5e66f026f,2022-05-12_04h27.28.121,classification_task,2021.2.3,Win32,59.97720866,627c6715c52fd12f31907bcf,,,,,,,,,,,,,,,,,,,,,,,l,1,2.1423,"[""0.135"",""0.352"",""0.528"",""0.099""]","[1,1,1,0]",0,38,38,38,1,1,0,,,1,FALSE,,,,,,,,,,,,,,,,,,,,,,,,,,,,,,,
,5c5493207f5e0c000143e96e,627c6fb7b6090fa5e66f026f,2022-05-12_04h27.28.121,classification_task,2021.2.3,Win32,59.97720866,627c6715c52fd12f31907bcf,,,,,,,,,,,,,,,,,,,,,,,a,1,2.328,"[""0.187"",""0.428"",""0.598"",""0.974""]","[1,1,0,1]",0,39,39,39,1,0,0,,,1,FALSE,,,,,,,,,,,,,,,,,,,,,,,,,,,,,,,
,5c5493207f5e0c000143e96e,627c6fb7b6090fa5e66f026f,2022-05-12_04h27.28.121,classification_task,2021.2.3,Win32,59.97720866,627c6715c52fd12f31907bcf,,,,,,,,,,,,,,,,,,,,,,,l,0,1.1926,"[""0.187"",""0.428"",""0.926"",""0.579""]","[1,1,1,0]",0,40,40,40,1,0,0,,,1,FALSE,,,,,,,,,,,,,,,,,,,,,,,,,,,,,,,
,5c5493207f5e0c000143e96e,627c6fb7b6090fa5e66f026f,2022-05-12_04h27.28.121,classification_task,2021.2.3,Win32,59.97720866,627c6715c52fd12f31907bcf,,,,,,,,,,,,,,,,,,,,,,,l,0,1.8652,"[""0.225"",""0.028"",""0.772"",""0.875""]","[1,0,1,1]",0,41,41,41,1,0,1,,,1,FALSE,,,,,,,,,,,,,,,,,,,,,,,,,,,,,,,
,5c5493207f5e0c000143e96e,627c6fb7b6090fa5e66f026f,2022-05-12_04h27.28.121,classification_task,2021.2.3,Win32,59.97720866,627c6715c52fd12f31907bcf,,,,,,,,,,,,,,,,,,,,,,,a,1,1.2778,"[""0.225"",""0.395"",""0.772"",""0.582""]","[1,1,1,0]",0,42,42,42,1,0,1,,,1,FALSE,,,,,,,,,,,,,,,,,,,,,,,,,,,,,,,
,5c5493207f5e0c000143e96e,627c6fb7b6090fa5e66f026f,2022-05-12_04h27.28.121,classification_task,2021.2.3,Win32,59.97720866,627c6715c52fd12f31907bcf,,,,,,,,,,,,,,,,,,,,,,,l,1,1.6507,"[""0.591"",""0.352"",""0.528"",""0.828""]","[0,1,1,1]",0,43,43,43,1,1,0,,,1,FALSE,,,,,,,,,,,,,,,,,,,,,,,,,,,,,,,
,5c5493207f5e0c000143e96e,627c6fb7b6090fa5e66f026f,2022-05-12_04h27.28.121,classification_task,2021.2.3,Win32,59.97720866,627c6715c52fd12f31907bcf,,,,,,,,,,,,,,,,,,,,,,,l,1,1.2066,"[""0.135"",""0.352"",""0.575"",""0.828""]","[1,1,0,1]",0,44,44,44,1,1,0,,,1,FALSE,,,,,,,,,,,,,,,,,,,,,,,,,,,,,,,
,5c5493207f5e0c000143e96e,627c6fb7b6090fa5e66f026f,2022-05-12_04h27.28.121,classification_task,2021.2.3,Win32,59.97720866,627c6715c52fd12f31907bcf,,,,,,,,,,,,,,,,,,,,,,,a,1,1.9108,"[""0.737"",""0.395"",""0.772"",""0.875""]","[0,1,1,1]",0,45,45,45,1,0,1,,,1,FALSE,,,,,,,,,,,,,,,,,,,,,,,,,,,,,,,
,5c5493207f5e0c000143e96e,627c6fb7b6090fa5e66f026f,2022-05-12_04h27.28.121,classification_task,2021.2.3,Win32,59.97720866,627c6715c52fd12f31907bcf,,,,,,,,,,,,,,,,,,,,,,,l,1,1.3688,"[""0.065"",""0.294"",""0.099"",""0.675""]","[1,1,0,1]",0,46,46,46,1,1,1,,,1,FALSE,,,,,,,,,,,,,,,,,,,,,,,,,,,,,,,
,5c5493207f5e0c000143e96e,627c6fb7b6090fa5e66f026f,2022-05-12_04h27.28.121,classification_task,2021.2.3,Win32,59.97720866,627c6715c52fd12f31907bcf,,,,,,,,,,,,,,,,,,,,,,,a,0,1.3685,"[""0.065"",""0.030"",""0.481"",""0.675""]","[1,0,1,1]",0,47,47,47,1,1,1,,,1,FALSE,,,,,,,,,,,,,,,,,,,,,,,,,,,,,,,
,5c5493207f5e0c000143e96e,627c6fb7b6090fa5e66f026f,2022-05-12_04h27.28.121,classification_task,2021.2.3,Win32,59.97720866,627c6715c52fd12f31907bcf,,,,,,,,,,,,,,,,,,,,,,,a,0,1.5614,"[""0.065"",""0.294"",""0.481"",""0.723""]","[1,1,1,0]",0,48,48,48,1,1,1,,,1,FALSE,,,,,,,,,,,,,,,,,,,,,,,,,,,,,,,
,5c5493207f5e0c000143e96e,627c6fb7b6090fa5e66f026f,2022-05-12_04h27.28.121,classification_task,2021.2.3,Win32,59.97720866,627c6715c52fd12f31907bcf,,,,,,,,,,,,,,,,,,,,,,,a,1,1.2778,"[""0.225"",""0.395"",""0.772"",""0.593""]","[1,1,1,0]",0,49,49,49,1,0,1,,,1,FALSE,,,,,,,,,,,,,,,,,,,,,,,,,,,,,,,
,5c5493207f5e0c000143e96e,627c6fb7b6090fa5e66f026f,2022-05-12_04h27.28.121,classification_task,2021.2.3,Win32,59.97720866,627c6715c52fd12f31907bcf,,,,,,,,,,,,,,,,,,,,,,,l,1,1.3505,"[""0.135"",""0.352"",""0.528"",""0.579""]","[1,1,1,0]",0,50,50,50,1,1,0,,,1,FALSE,,,,,,,,,,,,,,,,,,,,,,,,,,,,,,,
,5c5493207f5e0c000143e96e,627c6fb7b6090fa5e66f026f,2022-05-12_04h27.28.121,classification_task,2021.2.3,Win32,59.97720866,627c6715c52fd12f31907bcf,,,,,,,,,,,,,,,,,,,,,,,a,0,1.3996,"[""0.135"",""0.593"",""0.528"",""0.828""]","[1,0,1,1]",0,51,51,51,1,1,0,,,1,FALSE,,,,,,,,,,,,,,,,,,,,,,,,,,,,,,,
,5c5493207f5e0c000143e96e,627c6fb7b6090fa5e66f026f,2022-05-12_04h27.28.121,classification_task,2021.2.3,Win32,59.97720866,627c6715c52fd12f31907bcf,,,,,,,,,,,,,,,,,,,,,,,a,1,2.2509,"[""0.099"",""0.428"",""0.926"",""0.974""]","[0,1,1,1]",0,52,52,52,1,0,0,,,1,FALSE,,,,,,,,,,,,,,,,,,,,,,,,,,,,,,,
,5c5493207f5e0c000143e96e,627c6fb7b6090fa5e66f026f,2022-05-12_04h27.28.121,classification_task,2021.2.3,Win32,59.97720866,627c6715c52fd12f31907bcf,,,,,,,,,,,,,,,,,,,,,,,l,0,2.7011,"[""0.187"",""0.428"",""0.723"",""0.974""]","[1,1,0,1]",0,53,53,53,1,0,0,,,1,FALSE,,,,,,,,,,,,,,,,,,,,,,,,,,,,,,,
,5c5493207f5e0c000143e96e,627c6fb7b6090fa5e66f026f,2022-05-12_04h27.28.121,classification_task,2021.2.3,Win32,59.97720866,627c6715c52fd12f31907bcf,,,,,,,,,,,,,,,,,,,,,,,a,1,1.3038,"[""0.225"",""0.395"",""0.028"",""0.875""]","[1,1,0,1]",0,54,54,54,1,0,1,,,1,FALSE,,,,,,,,,,,,,,,,,,,,,,,,,,,,,,,
,5c5493207f5e0c000143e96e,627c6fb7b6090fa5e66f026f,2022-05-12_04h27.28.121,classification_task,2021.2.3,Win32,59.97720866,627c6715c52fd12f31907bcf,,,,,,,,,,,,,,,,,,,,,,,a,0,1.3963,"[""0.065"",""0.294"",""0.580"",""0.675""]","[1,1,0,1]",0,55,55,55,1,1,1,,,1,FALSE,,,,,,,,,,,,,,,,,,,,,,,,,,,,,,,
,5c5493207f5e0c000143e96e,627c6fb7b6090fa5e66f026f,2022-05-12_04h27.28.121,classification_task,2021.2.3,Win32,59.97720866,627c6715c52fd12f31907bcf,,,,,,,,,,,,,,,,,,,,,,,a,1,1.762,"[""0.187"",""0.030"",""0.926"",""0.974""]","[1,0,1,1]",0,56,56,56,1,0,0,,,1,FALSE,,,,,,,,,,,,,,,,,,,,,,,,,,,,,,,
,5c5493207f5e0c000143e96e,627c6fb7b6090fa5e66f026f,2022-05-12_04h27.28.121,classification_task,2021.2.3,Win32,59.97720866,627c6715c52fd12f31907bcf,,,,,,,,,,,,,,,,,,,,,,,l,1,0.9949,"[""0.135"",""0.352"",""0.030"",""0.828""]","[1,1,0,1]",0,57,57,57,1,1,0,,,1,FALSE,,,,,,,,,,,,,,,,,,,,,,,,,,,,,,,
,5c5493207f5e0c000143e96e,627c6fb7b6090fa5e66f026f,2022-05-12_04h27.28.121,classification_task,2021.2.3,Win32,59.97720866,627c6715c52fd12f31907bcf,,,,,,,,,,,,,,,,,,,,,,,a,1,0.9506,"[""0.187"",""0.428"",""0.926"",""0.030""]","[1,1,1,0]",0,58,58,58,1,0,0,,,1,FALSE,,,,,,,,,,,,,,,,,,,,,,,,,,,,,,,
,5c5493207f5e0c000143e96e,627c6fb7b6090fa5e66f026f,2022-05-12_04h27.28.121,classification_task,2021.2.3,Win32,59.97720866,627c6715c52fd12f31907bcf,,,,,,,,,,,,,,,,,,,,,,,l,0,1.1076,"[""0.225"",""0.099"",""0.772"",""0.875""]","[1,0,1,1]",0,59,59,59,1,0,1,,,1,FALSE,,,,,,,,,,,,,,,,,,,,,,,,,,,,,,,
,5c5493207f5e0c000143e96e,627c6fb7b6090fa5e66f026f,2022-05-12_04h27.28.121,classification_task,2021.2.3,Win32,59.97720866,627c6715c52fd12f31907bcf,,,,,,,,,,,,,,,,,,,,,,,a,0,1.9515,"[""0.065"",""0.580"",""0.481"",""0.675""]","[1,0,1,1]",0,60,60,60,1,1,1,,,1,FALSE,,,,,,,,,,,,,,,,,,,,,,,,,,,,,,,
,5c5493207f5e0c000143e96e,627c6fb7b6090fa5e66f026f,2022-05-12_04h27.28.121,classification_task,2021.2.3,Win32,59.97720866,627c6715c52fd12f31907bcf,,,,,,,,,,,,,,,,,,,,,,,l,1,1.1557,"[""0.591"",""0.294"",""0.481"",""0.675""]","[0,1,1,1]",0,61,61,61,1,1,1,,,1,FALSE,,,,,,,,,,,,,,,,,,,,,,,,,,,,,,,
,5c5493207f5e0c000143e96e,627c6fb7b6090fa5e66f026f,2022-05-12_04h27.28.121,classification_task,2021.2.3,Win32,59.97720866,627c6715c52fd12f31907bcf,,,,,,,,,,,,,,,,,,,,,,,l,0,2.468,"[""0.598"",""0.395"",""0.772"",""0.875""]","[0,1,1,1]",0,62,62,62,1,0,1,,,1,FALSE,,,,,,,,,,,,,,,,,,,,,,,,,,,,,,,
,5c5493207f5e0c000143e96e,627c6fb7b6090fa5e66f026f,2022-05-12_04h27.28.121,classification_task,2021.2.3,Win32,59.97720866,627c6715c52fd12f31907bcf,,,,,,,,,,,,,,,,,,,,,,,a,0,1.5521,"[""0.711"",""0.352"",""0.528"",""0.828""]","[0,1,1,1]",0,63,63,63,1,1,0,,,1,FALSE,,,,,,,,,,,,,,,,,,,,,,,,,,,,,,,
,5c5493207f5e0c000143e96e,627c6fb7b6090fa5e66f026f,2022-05-12_04h27.28.121,classification_task,2021.2.3,Win32,59.97720866,627c6715c52fd12f31907bcf,,,,,,,,,,,,,,,,,,,,,,,,,,,,,,,,,,,,,,,0, ,,0,6.81265922,629.3746,0,0,0,0,1,2,1,,,,,,,,,,,,,,,,,,
,5c5493207f5e0c000143e96e,627c6fb7b6090fa5e66f026f,2022-05-12_04h27.28.121,classification_task,2021.2.3,Win32,59.97720866,627c6715c52fd12f31907bcf,,,,,,,,,,,,,,,,,,,,,,,,,,,,,,,,,,,,,,,1,  ,,0,4.338624339,640.4905,0,0,0,0,1,2,1,,,,,,,,,,,,,,,,,,
,5c5493207f5e0c000143e96e,627c6fb7b6090fa5e66f026f,2022-05-12_04h27.28.121,classification_task,2021.2.3,Win32,59.97720866,627c6715c52fd12f31907bcf,,,,,,,,,,,,,,,,,,,,,,,,,,,,,,,,,,,,,,,2,  ,,0,2.942386831,660.4387,0,0,0,0,1,2,1,,,,,,,,,,,,,,,,,,
,5c5493207f5e0c000143e96e,627c6fb7b6090fa5e66f026f,2022-05-12_04h27.28.121,classification_task,2021.2.3,Win32,59.97720866,627c6715c52fd12f31907bcf,,,,,,,,,,,,,,,,,,,,,,,,,,,,,,,,,,,,,,,,,,,,,0,0,0,0,1,,1,,,,,,,,,,,,,,,,,,
,5c5493207f5e0c000143e96e,627c6fb7b6090fa5e66f026f,2022-05-12_04h27.28.121,classification_task,2021.2.3,Win32,59.97720866,627c6715c52fd12f31907bcf,,,,,,,,,,,,,,,,,,,,,space,41.6159,l,1,3.0066,"[""0.135"",""0.575"",""0.528"",""0.828""]","[1,0,1,1]",0,0,0,0,1,1,0,,,1,FALSE,,,,,,,,,,,,,,,,,,,,,,,,,,,,,,,
,5c5493207f5e0c000143e96e,627c6fb7b6090fa5e66f026f,2022-05-12_04h27.28.121,classification_task,2021.2.3,Win32,59.97720866,627c6715c52fd12f31907bcf,,,,,,,,,,,,,,,,,,,,,,,a,0,1.2835,"[""0.065"",""0.294"",""0.593"",""0.675""]","[1,1,0,1]",0,1,1,1,1,1,1,,,1,FALSE,,,,,,,,,,,,,,,,,,,,,,,,,,,,,,,
,5c5493207f5e0c000143e96e,627c6fb7b6090fa5e66f026f,2022-05-12_04h27.28.121,classification_task,2021.2.3,Win32,59.97720866,627c6715c52fd12f31907bcf,,,,,,,,,,,,,,,,,,,,,,,a,0,3.2329,"[""0.065"",""0.294"",""0.481"",""0.593""]","[1,1,1,0]",0,2,2,2,1,1,1,,,1,FALSE,,,,,,,,,,,,,,,,,,,,,,,,,,,,,,,
,5c5493207f5e0c000143e96e,627c6fb7b6090fa5e66f026f,2022-05-12_04h27.28.121,classification_task,2021.2.3,Win32,59.97720866,627c6715c52fd12f31907bcf,,,,,,,,,,,,,,,,,,,,,,,a,1,1.8673,"[""0.225"",""0.395"",""0.591"",""0.875""]","[1,1,0,1]",0,3,3,3,1,0,1,,,1,FALSE,,,,,,,,,,,,,,,,,,,,,,,,,,,,,,,
,5c5493207f5e0c000143e96e,627c6fb7b6090fa5e66f026f,2022-05-12_04h27.28.121,classification_task,2021.2.3,Win32,59.97720866,627c6715c52fd12f31907bcf,,,,,,,,,,,,,,,,,,,,,,,a,1,1.4167,"[""0.187"",""0.428"",""0.593"",""0.974""]","[1,1,0,1]",0,4,4,4,1,0,0,,,1,FALSE,,,,,,,,,,,,,,,,,,,,,,,,,,,,,,,
,5c5493207f5e0c000143e96e,627c6fb7b6090fa5e66f026f,2022-05-12_04h27.28.121,classification_task,2021.2.3,Win32,59.97720866,627c6715c52fd12f31907bcf,,,,,,,,,,,,,,,,,,,,,,,l,1,0.9168,"[""0.135"",""0.352"",""0.099"",""0.828""]","[1,1,0,1]",0,5,5,5,1,1,0,,,1,FALSE,,,,,,,,,,,,,,,,,,,,,,,,,,,,,,,
,5c5493207f5e0c000143e96e,627c6fb7b6090fa5e66f026f,2022-05-12_04h27.28.121,classification_task,2021.2.3,Win32,59.97720866,627c6715c52fd12f31907bcf,,,,,,,,,,,,,,,,,,,,,,,a,0,2.5337,"[""0.586"",""0.294"",""0.481"",""0.675""]","[0,1,1,1]",0,6,6,6,1,1,1,,,1,FALSE,,,,,,,,,,,,,,,,,,,,,,,,,,,,,,,
,5c5493207f5e0c000143e96e,627c6fb7b6090fa5e66f026f,2022-05-12_04h27.28.121,classification_task,2021.2.3,Win32,59.97720866,627c6715c52fd12f31907bcf,,,,,,,,,,,,,,,,,,,,,,,a,0,1.5335,"[""0.028"",""0.352"",""0.528"",""0.828""]","[0,1,1,1]",0,7,7,7,1,1,0,,,1,FALSE,,,,,,,,,,,,,,,,,,,,,,,,,,,,,,,
,5c5493207f5e0c000143e96e,627c6fb7b6090fa5e66f026f,2022-05-12_04h27.28.121,classification_task,2021.2.3,Win32,59.97720866,627c6715c52fd12f31907bcf,,,,,,,,,,,,,,,,,,,,,,,a,1,1.6836,"[""0.225"",""0.395"",""0.772"",""0.711""]","[1,1,1,0]",0,8,8,8,1,0,1,,,1,FALSE,,,,,,,,,,,,,,,,,,,,,,,,,,,,,,,
,5c5493207f5e0c000143e96e,627c6fb7b6090fa5e66f026f,2022-05-12_04h27.28.121,classification_task,2021.2.3,Win32,59.97720866,627c6715c52fd12f31907bcf,,,,,,,,,,,,,,,,,,,,,,,a,1,1.2341,"[""0.711"",""0.395"",""0.772"",""0.875""]","[0,1,1,1]",0,9,9,9,1,0,1,,,1,FALSE,,,,,,,,,,,,,,,,,,,,,,,,,,,,,,,
,5c5493207f5e0c000143e96e,627c6fb7b6090fa5e66f026f,2022-05-12_04h27.28.121,classification_task,2021.2.3,Win32,59.97720866,627c6715c52fd12f31907bcf,,,,,,,,,,,,,,,,,,,,,,,l,1,2.0333,"[""0.065"",""0.593"",""0.481"",""0.675""]","[1,0,1,1]",0,10,10,10,1,1,1,,,1,FALSE,,,,,,,,,,,,,,,,,,,,,,,,,,,,,,,
,5c5493207f5e0c000143e96e,627c6fb7b6090fa5e66f026f,2022-05-12_04h27.28.121,classification_task,2021.2.3,Win32,59.97720866,627c6715c52fd12f31907bcf,,,,,,,,,,,,,,,,,,,,,,,a,0,2.0842,"[""0.135"",""0.352"",""0.528"",""0.723""]","[1,1,1,0]",0,11,11,11,1,1,0,,,1,FALSE,,,,,,,,,,,,,,,,,,,,,,,,,,,,,,,
,5c5493207f5e0c000143e96e,627c6fb7b6090fa5e66f026f,2022-05-12_04h27.28.121,classification_task,2021.2.3,Win32,59.97720866,627c6715c52fd12f31907bcf,,,,,,,,,,,,,,,,,,,,,,,l,0,2.3175,"[""0.225"",""0.711"",""0.772"",""0.875""]","[1,0,1,1]",0,12,12,12,1,0,1,,,1,FALSE,,,,,,,,,,,,,,,,,,,,,,,,,,,,,,,
,5c5493207f5e0c000143e96e,627c6fb7b6090fa5e66f026f,2022-05-12_04h27.28.121,classification_task,2021.2.3,Win32,59.97720866,627c6715c52fd12f31907bcf,,,,,,,,,,,,,,,,,,,,,,,a,1,2.0169,"[""0.187"",""0.428"",""0.926"",""0.030""]","[1,1,1,0]",0,13,13,13,1,0,0,,,1,FALSE,,,,,,,,,,,,,,,,,,,,,,,,,,,,,,,
,5c5493207f5e0c000143e96e,627c6fb7b6090fa5e66f026f,2022-05-12_04h27.28.121,classification_task,2021.2.3,Win32,59.97720866,627c6715c52fd12f31907bcf,,,,,,,,,,,,,,,,,,,,,,,a,1,1.3509,"[""0.591"",""0.428"",""0.926"",""0.974""]","[0,1,1,1]",0,14,14,14,1,0,0,,,1,FALSE,,,,,,,,,,,,,,,,,,,,,,,,,,,,,,,
,5c5493207f5e0c000143e96e,627c6fb7b6090fa5e66f026f,2022-05-12_04h27.28.121,classification_task,2021.2.3,Win32,59.97720866,627c6715c52fd12f31907bcf,,,,,,,,,,,,,,,,,,,,,,,a,1,0.8505,"[""0.187"",""0.593"",""0.926"",""0.974""]","[1,0,1,1]",0,15,15,15,1,0,0,,,1,FALSE,,,,,,,,,,,,,,,,,,,,,,,,,,,,,,,
,5c5493207f5e0c000143e96e,627c6fb7b6090fa5e66f026f,2022-05-12_04h27.28.121,classification_task,2021.2.3,Win32,59.97720866,627c6715c52fd12f31907bcf,,,,,,,,,,,,,,,,,,,,,,,a,0,1.466,"[""0.030"",""0.294"",""0.481"",""0.675""]","[0,1,1,1]",0,16,16,16,1,1,1,,,1,FALSE,,,,,,,,,,,,,,,,,,,,,,,,,,,,,,,
,5c5493207f5e0c000143e96e,627c6fb7b6090fa5e66f026f,2022-05-12_04h27.28.121,classification_task,2021.2.3,Win32,59.97720866,627c6715c52fd12f31907bcf,,,,,,,,,,,,,,,,,,,,,,,l,0,2.1828,"[""0.187"",""0.428"",""0.737"",""0.974""]","[1,1,0,1]",0,17,17,17,1,0,0,,,1,FALSE,,,,,,,,,,,,,,,,,,,,,,,,,,,,,,,
,5c5493207f5e0c000143e96e,627c6fb7b6090fa5e66f026f,2022-05-12_04h27.28.121,classification_task,2021.2.3,Win32,59.97720866,627c6715c52fd12f31907bcf,,,,,,,,,,,,,,,,,,,,,,,a,0,2.2336,"[""0.135"",""0.352"",""0.528"",""0.591""]","[1,1,1,0]",0,18,18,18,1,1,0,,,1,FALSE,,,,,,,,,,,,,,,,,,,,,,,,,,,,,,,
,5c5493207f5e0c000143e96e,627c6fb7b6090fa5e66f026f,2022-05-12_04h27.28.121,classification_task,2021.2.3,Win32,59.97720866,627c6715c52fd12f31907bcf,,,,,,,,,,,,,,,,,,,,,,,a,1,1.584,"[""0.225"",""0.395"",""0.772"",""0.030""]","[1,1,1,0]",0,19,19,19,1,0,1,,,1,FALSE,,,,,,,,,,,,,,,,,,,,,,,,,,,,,,,
,5c5493207f5e0c000143e96e,627c6fb7b6090fa5e66f026f,2022-05-12_04h27.28.121,classification_task,2021.2.3,Win32,59.97720866,627c6715c52fd12f31907bcf,,,,,,,,,,,,,,,,,,,,,,,l,1,0.8331,"[""0.135"",""0.352"",""0.580"",""0.828""]","[1,1,0,1]",0,20,20,20,1,1,0,,,1,FALSE,,,,,,,,,,,,,,,,,,,,,,,,,,,,,,,
,5c5493207f5e0c000143e96e,627c6fb7b6090fa5e66f026f,2022-05-12_04h27.28.121,classification_task,2021.2.3,Win32,59.97720866,627c6715c52fd12f31907bcf,,,,,,,,,,,,,,,,,,,,,,,l,1,0.7833,"[""0.099"",""0.352"",""0.528"",""0.828""]","[0,1,1,1]",0,21,21,21,1,1,0,,,1,FALSE,,,,,,,,,,,,,,,,,,,,,,,,,,,,,,,
,5c5493207f5e0c000143e96e,627c6fb7b6090fa5e66f026f,2022-05-12_04h27.28.121,classification_task,2021.2.3,Win32,59.97720866,627c6715c52fd12f31907bcf,,,,,,,,,,,,,,,,,,,,,,,a,0,1.9514,"[""0.065"",""0.294"",""0.481"",""0.591""]","[1,1,1,0]",0,22,22,22,1,1,1,,,1,FALSE,,,,,,,,,,,,,,,,,,,,,,,,,,,,,,,
,5c5493207f5e0c000143e96e,627c6fb7b6090fa5e66f026f,2022-05-12_04h27.28.121,classification_task,2021.2.3,Win32,59.97720866,627c6715c52fd12f31907bcf,,,,,,,,,,,,,,,,,,,,,,,l,1,1.5329,"[""0.065"",""0.593"",""0.481"",""0.675""]","[1,0,1,1]",0,23,23,23,1,1,1,,,1,FALSE,,,,,,,,,,,,,,,,,,,,,,,,,,,,,,,
,5c5493207f5e0c000143e96e,627c6fb7b6090fa5e66f026f,2022-05-12_04h27.28.121,classification_task,2021.2.3,Win32,59.97720866,627c6715c52fd12f31907bcf,,,,,,,,,,,,,,,,,,,,,,,a,1,2.0003,"[""0.187"",""0.582"",""0.926"",""0.974""]","[1,0,1,1]",0,24,24,24,1,0,0,,,1,FALSE,,,,,,,,,,,,,,,,,,,,,,,,,,,,,,,
,5c5493207f5e0c000143e96e,627c6fb7b6090fa5e66f026f,2022-05-12_04h27.28.121,classification_task,2021.2.3,Win32,59.97720866,627c6715c52fd12f31907bcf,,,,,,,,,,,,,,,,,,,,,,,a,1,2.5331,"[""0.099"",""0.395"",""0.772"",""0.875""]","[0,1,1,1]",0,25,25,25,1,0,1,,,1,FALSE,,,,,,,,,,,,,,,,,,,,,,,,,,,,,,,
,5c5493207f5e0c000143e96e,627c6fb7b6090fa5e66f026f,2022-05-12_04h27.28.121,classification_task,2021.2.3,Win32,59.97720866,627c6715c52fd12f31907bcf,,,,,,,,,,,,,,,,,,,,,,,a,0,1.6998,"[""0.065"",""0.294"",""0.723"",""0.675""]","[1,1,0,1]",0,26,26,26,1,1,1,,,1,FALSE,,,,,,,,,,,,,,,,,,,,,,,,,,,,,,,
,5c5493207f5e0c000143e96e,627c6fb7b6090fa5e66f026f,2022-05-12_04h27.28.121,classification_task,2021.2.3,Win32,59.97720866,627c6715c52fd12f31907bcf,,,,,,,,,,,,,,,,,,,,,,,a,1,1.6661,"[""0.225"",""0.591"",""0.772"",""0.875""]","[1,0,1,1]",0,27,27,27,1,0,1,,,1,FALSE,,,,,,,,,,,,,,,,,,,,,,,,,,,,,,,
,5c5493207f5e0c000143e96e,627c6fb7b6090fa5e66f026f,2022-05-12_04h27.28.121,classification_task,2021.2.3,Win32,59.97720866,627c6715c52fd12f31907bcf,,,,,,,,,,,,,,,,,,,,,,,l,1,0.9001,"[""0.135"",""0.028"",""0.528"",""0.828""]","[1,0,1,1]",0,28,28,28,1,1,0,,,1,FALSE,,,,,,,,,,,,,,,,,,,,,,,,,,,,,,,
,5c5493207f5e0c000143e96e,627c6fb7b6090fa5e66f026f,2022-05-12_04h27.28.121,classification_task,2021.2.3,Win32,59.97720866,627c6715c52fd12f31907bcf,,,,,,,,,,,,,,,,,,,,,,,a,1,3.0997,"[""0.187"",""0.428"",""0.926"",""0.582""]","[1,1,1,0]",0,29,29,29,1,0,0,,,1,FALSE,,,,,,,,,,,,,,,,,,,,,,,,,,,,,,,
,5c5493207f5e0c000143e96e,627c6fb7b6090fa5e66f026f,2022-05-12_04h27.28.121,classification_task,2021.2.3,Win32,59.97720866,627c6715c52fd12f31907bcf,,,,,,,,,,,,,,,,,,,,,,,a,1,1.2354,"[""0.028"",""0.428"",""0.926"",""0.974""]","[0,1,1,1]",0,30,30,30,1,0,0,,,1,FALSE,,,,,,,,,,,,,,,,,,,,,,,,,,,,,,,
,5c5493207f5e0c000143e96e,627c6fb7b6090fa5e66f026f,2022-05-12_04h27.28.121,classification_task,2021.2.3,Win32,59.97720866,627c6715c52fd12f31907bcf,,,,,,,,,,,,,,,,,,,,,,,l,0,2.4174,"[""0.225"",""0.395"",""0.631"",""0.875""]","[1,1,0,1]",0,31,31,31,1,0,1,,,1,FALSE,,,,,,,,,,,,,,,,,,,,,,,,,,,,,,,
,5c5493207f5e0c000143e96e,627c6fb7b6090fa5e66f026f,2022-05-12_04h27.28.121,classification_task,2021.2.3,Win32,59.97720866,627c6715c52fd12f31907bcf,,,,,,,,,,,,,,,,,,,,,,,a,1,2.2333,"[""0.631"",""0.395"",""0.772"",""0.875""]","[0,1,1,1]",0,32,32,32,1,0,1,,,1,FALSE,,,,,,,,,,,,,,,,,,,,,,,,,,,,,,,
,5c5493207f5e0c000143e96e,627c6fb7b6090fa5e66f026f,2022-05-12_04h27.28.121,classification_task,2021.2.3,Win32,59.97720866,627c6715c52fd12f31907bcf,,,,,,,,,,,,,,,,,,,,,,,l,1,1.1497,"[""0.135"",""0.352"",""0.591"",""0.828""]","[1,1,0,1]",0,33,33,33,1,1,0,,,1,FALSE,,,,,,,,,,,,,,,,,,,,,,,,,,,,,,,
,5c5493207f5e0c000143e96e,627c6fb7b6090fa5e66f026f,2022-05-12_04h27.28.121,classification_task,2021.2.3,Win32,59.97720866,627c6715c52fd12f31907bcf,,,,,,,,,,,,,,,,,,,,,,,a,0,1.6838,"[""0.065"",""0.294"",""0.711"",""0.675""]","[1,1,0,1]",0,34,34,34,1,1,1,,,1,FALSE,,,,,,,,,,,,,,,,,,,,,,,,,,,,,,,
,5c5493207f5e0c000143e96e,627c6fb7b6090fa5e66f026f,2022-05-12_04h27.28.121,classification_task,2021.2.3,Win32,59.97720866,627c6715c52fd12f31907bcf,,,,,,,,,,,,,,,,,,,,,,,a,1,2.2833,"[""0.225"",""0.586"",""0.772"",""0.875""]","[1,0,1,1]",0,35,35,35,1,0,1,,,1,FALSE,,,,,,,,,,,,,,,,,,,,,,,,,,,,,,,
,5c5493207f5e0c000143e96e,627c6fb7b6090fa5e66f026f,2022-05-12_04h27.28.121,classification_task,2021.2.3,Win32,59.97720866,627c6715c52fd12f31907bcf,,,,,,,,,,,,,,,,,,,,,,,a,0,1.7993,"[""0.591"",""0.294"",""0.481"",""0.675""]","[0,1,1,1]",0,36,36,36,1,1,1,,,1,FALSE,,,,,,,,,,,,,,,,,,,,,,,,,,,,,,,
,5c5493207f5e0c000143e96e,627c6fb7b6090fa5e66f026f,2022-05-12_04h27.28.121,classification_task,2021.2.3,Win32,59.97720866,627c6715c52fd12f31907bcf,,,,,,,,,,,,,,,,,,,,,,,a,1,1.6992,"[""0.187"",""0.428"",""0.593"",""0.974""]","[1,1,0,1]",0,37,37,37,1,0,0,,,1,FALSE,,,,,,,,,,,,,,,,,,,,,,,,,,,,,,,
,5c5493207f5e0c000143e96e,627c6fb7b6090fa5e66f026f,2022-05-12_04h27.28.121,classification_task,2021.2.3,Win32,59.97720866,627c6715c52fd12f31907bcf,,,,,,,,,,,,,,,,,,,,,,,a,1,0.8663,"[""0.575"",""0.428"",""0.926"",""0.974""]","[0,1,1,1]",0,38,38,38,1,0,0,,,1,FALSE,,,,,,,,,,,,,,,,,,,,,,,,,,,,,,,
,5c5493207f5e0c000143e96e,627c6fb7b6090fa5e66f026f,2022-05-12_04h27.28.121,classification_task,2021.2.3,Win32,59.97720866,627c6715c52fd12f31907bcf,,,,,,,,,,,,,,,,,,,,,,,a,1,0.5833,"[""0.187"",""0.428"",""0.926"",""0.099""]","[1,1,1,0]",0,39,39,39,1,0,0,,,1,FALSE,,,,,,,,,,,,,,,,,,,,,,,,,,,,,,,
,5c5493207f5e0c000143e96e,627c6fb7b6090fa5e66f026f,2022-05-12_04h27.28.121,classification_task,2021.2.3,Win32,59.97720866,627c6715c52fd12f31907bcf,,,,,,,,,,,,,,,,,,,,,,,a,0,2.0333,"[""0.065"",""0.294"",""0.481"",""0.593""]","[1,1,1,0]",0,40,40,40,1,1,1,,,1,FALSE,,,,,,,,,,,,,,,,,,,,,,,,,,,,,,,
,5c5493207f5e0c000143e96e,627c6fb7b6090fa5e66f026f,2022-05-12_04h27.28.121,classification_task,2021.2.3,Win32,59.97720866,627c6715c52fd12f31907bcf,,,,,,,,,,,,,,,,,,,,,,,a,1,1.4331,"[""0.225"",""0.395"",""0.580"",""0.875""]","[1,1,0,1]",0,41,41,41,1,0,1,,,1,FALSE,,,,,,,,,,,,,,,,,,,,,,,,,,,,,,,
,5c5493207f5e0c000143e96e,627c6fb7b6090fa5e66f026f,2022-05-12_04h27.28.121,classification_task,2021.2.3,Win32,59.97720866,627c6715c52fd12f31907bcf,,,,,,,,,,,,,,,,,,,,,,,l,1,1.0832,"[""0.065"",""0.099"",""0.481"",""0.675""]","[1,0,1,1]",0,42,42,42,1,1,1,,,1,FALSE,,,,,,,,,,,,,,,,,,,,,,,,,,,,,,,
,5c5493207f5e0c000143e96e,627c6fb7b6090fa5e66f026f,2022-05-12_04h27.28.121,classification_task,2021.2.3,Win32,59.97720866,627c6715c52fd12f31907bcf,,,,,,,,,,,,,,,,,,,,,,,l,1,1.3326,"[""0.580"",""0.352"",""0.528"",""0.828""]","[0,1,1,1]",0,43,43,43,1,1,0,,,1,FALSE,,,,,,,,,,,,,,,,,,,,,,,,,,,,,,,
,5c5493207f5e0c000143e96e,627c6fb7b6090fa5e66f026f,2022-05-12_04h27.28.121,classification_task,2021.2.3,Win32,59.97720866,627c6715c52fd12f31907bcf,,,,,,,,,,,,,,,,,,,,,,,l,1,1.1669,"[""0.135"",""0.352"",""0.528"",""0.582""]","[1,1,1,0]",0,44,44,44,1,1,0,,,1,FALSE,,,,,,,,,,,,,,,,,,,,,,,,,,,,,,,
,5c5493207f5e0c000143e96e,627c6fb7b6090fa5e66f026f,2022-05-12_04h27.28.121,classification_task,2021.2.3,Win32,59.97720866,627c6715c52fd12f31907bcf,,,,,,,,,,,,,,,,,,,,,,,a,1,1.8331,"[""0.187"",""0.593"",""0.926"",""0.974""]","[1,0,1,1]",0,45,45,45,1,0,0,,,1,FALSE,,,,,,,,,,,,,,,,,,,,,,,,,,,,,,,
,5c5493207f5e0c000143e96e,627c6fb7b6090fa5e66f026f,2022-05-12_04h27.28.121,classification_task,2021.2.3,Win32,59.97720866,627c6715c52fd12f31907bcf,,,,,,,,,,,,,,,,,,,,,,,a,1,2.0342,"[""0.225"",""0.395"",""0.772"",""0.579""]","[1,1,1,0]",0,46,46,46,1,0,1,,,1,FALSE,,,,,,,,,,,,,,,,,,,,,,,,,,,,,,,
,5c5493207f5e0c000143e96e,627c6fb7b6090fa5e66f026f,2022-05-12_04h27.28.121,classification_task,2021.2.3,Win32,59.97720866,627c6715c52fd12f31907bcf,,,,,,,,,,,,,,,,,,,,,,,l,1,0.9669,"[""0.135"",""0.582"",""0.528"",""0.828""]","[1,0,1,1]",0,47,47,47,1,1,0,,,1,FALSE,,,,,,,,,,,,,,,,,,,,,,,,,,,,,,,
,5c5493207f5e0c000143e96e,627c6fb7b6090fa5e66f026f,2022-05-12_04h27.28.121,classification_task,2021.2.3,Win32,59.97720866,627c6715c52fd12f31907bcf,,,,,,,,,,,,,,,,,,,,,,,a,1,1.8336,"[""0.225"",""0.591"",""0.772"",""0.875""]","[1,0,1,1]",0,48,48,48,1,0,1,,,1,FALSE,,,,,,,,,,,,,,,,,,,,,,,,,,,,,,,
,5c5493207f5e0c000143e96e,627c6fb7b6090fa5e66f026f,2022-05-12_04h27.28.121,classification_task,2021.2.3,Win32,59.97720866,627c6715c52fd12f31907bcf,,,,,,,,,,,,,,,,,,,,,,,l,1,1.1331,"[""0.030"",""0.352"",""0.528"",""0.828""]","[0,1,1,1]",0,49,49,49,1,1,0,,,1,FALSE,,,,,,,,,,,,,,,,,,,,,,,,,,,,,,,
,5c5493207f5e0c000143e96e,627c6fb7b6090fa5e66f026f,2022-05-12_04h27.28.121,classification_task,2021.2.3,Win32,59.97720866,627c6715c52fd12f31907bcf,,,,,,,,,,,,,,,,,,,,,,,a,1,1.8003,"[""0.225"",""0.395"",""0.598"",""0.875""]","[1,1,0,1]",0,50,50,50,1,0,1,,,1,FALSE,,,,,,,,,,,,,,,,,,,,,,,,,,,,,,,
,5c5493207f5e0c000143e96e,627c6fb7b6090fa5e66f026f,2022-05-12_04h27.28.121,classification_task,2021.2.3,Win32,59.97720866,627c6715c52fd12f31907bcf,,,,,,,,,,,,,,,,,,,,,,,a,0,3.15,"[""0.135"",""0.352"",""0.528"",""0.099""]","[1,1,1,0]",0,51,51,51,1,1,0,,,1,FALSE,,,,,,,,,,,,,,,,,,,,,,,,,,,,,,,
,5c5493207f5e0c000143e96e,627c6fb7b6090fa5e66f026f,2022-05-12_04h27.28.121,classification_task,2021.2.3,Win32,59.97720866,627c6715c52fd12f31907bcf,,,,,,,,,,,,,,,,,,,,,,,a,1,1.233,"[""0.187"",""0.428"",""0.926"",""0.580""]","[1,1,1,0]",0,52,52,52,1,0,0,,,1,FALSE,,,,,,,,,,,,,,,,,,,,,,,,,,,,,,,
,5c5493207f5e0c000143e96e,627c6fb7b6090fa5e66f026f,2022-05-12_04h27.28.121,classification_task,2021.2.3,Win32,59.97720866,627c6715c52fd12f31907bcf,,,,,,,,,,,,,,,,,,,,,,,a,1,1.4167,"[""0.187"",""0.598"",""0.926"",""0.974""]","[1,0,1,1]",0,53,53,53,1,0,0,,,1,FALSE,,,,,,,,,,,,,,,,,,,,,,,,,,,,,,,
,5c5493207f5e0c000143e96e,627c6fb7b6090fa5e66f026f,2022-05-12_04h27.28.121,classification_task,2021.2.3,Win32,59.97720866,627c6715c52fd12f31907bcf,,,,,,,,,,,,,,,,,,,,,,,l,1,2.6164,"[""0.065"",""0.294"",""0.586"",""0.675""]","[1,1,0,1]",0,54,54,54,1,1,1,,,1,FALSE,,,,,,,,,,,,,,,,,,,,,,,,,,,,,,,
,5c5493207f5e0c000143e96e,627c6fb7b6090fa5e66f026f,2022-05-12_04h27.28.121,classification_task,2021.2.3,Win32,59.97720866,627c6715c52fd12f31907bcf,,,,,,,,,,,,,,,,,,,,,,,a,1,1.0672,"[""0.099"",""0.428"",""0.926"",""0.974""]","[0,1,1,1]",0,55,55,55,1,0,0,,,1,FALSE,,,,,,,,,,,,,,,,,,,,,,,,,,,,,,,
,5c5493207f5e0c000143e96e,627c6fb7b6090fa5e66f026f,2022-05-12_04h27.28.121,classification_task,2021.2.3,Win32,59.97720866,627c6715c52fd12f31907bcf,,,,,,,,,,,,,,,,,,,,,,,l,1,3.3669,"[""0.135"",""0.352"",""0.591"",""0.828""]","[1,1,0,1]",0,56,56,56,1,1,0,,,1,FALSE,,,,,,,,,,,,,,,,,,,,,,,,,,,,,,,
,5c5493207f5e0c000143e96e,627c6fb7b6090fa5e66f026f,2022-05-12_04h27.28.121,classification_task,2021.2.3,Win32,59.97720866,627c6715c52fd12f31907bcf,,,,,,,,,,,,,,,,,,,,,,,l,1,1.6832,"[""0.065"",""0.294"",""0.481"",""0.099""]","[1,1,1,0]",0,57,57,57,1,1,1,,,1,FALSE,,,,,,,,,,,,,,,,,,,,,,,,,,,,,,,
,5c5493207f5e0c000143e96e,627c6fb7b6090fa5e66f026f,2022-05-12_04h27.28.121,classification_task,2021.2.3,Win32,59.97720866,627c6715c52fd12f31907bcf,,,,,,,,,,,,,,,,,,,,,,,l,1,1.2341,"[""0.580"",""0.294"",""0.481"",""0.675""]","[0,1,1,1]",0,58,58,58,1,1,1,,,1,FALSE,,,,,,,,,,,,,,,,,,,,,,,,,,,,,,,
,5c5493207f5e0c000143e96e,627c6fb7b6090fa5e66f026f,2022-05-12_04h27.28.121,classification_task,2021.2.3,Win32,59.97720866,627c6715c52fd12f31907bcf,,,,,,,,,,,,,,,,,,,,,,,l,1,0.7502,"[""0.065"",""0.580"",""0.481"",""0.675""]","[1,0,1,1]",0,59,59,59,1,1,1,,,1,FALSE,,,,,,,,,,,,,,,,,,,,,,,,,,,,,,,
,5c5493207f5e0c000143e96e,627c6fb7b6090fa5e66f026f,2022-05-12_04h27.28.121,classification_task,2021.2.3,Win32,59.97720866,627c6715c52fd12f31907bcf,,,,,,,,,,,,,,,,,,,,,,,a,1,0.7998,"[""0.225"",""0.395"",""0.772"",""0.579""]","[1,1,1,0]",0,60,60,60,1,0,1,,,1,FALSE,,,,,,,,,,,,,,,,,,,,,,,,,,,,,,,
,5c5493207f5e0c000143e96e,627c6fb7b6090fa5e66f026f,2022-05-12_04h27.28.121,classification_task,2021.2.3,Win32,59.97720866,627c6715c52fd12f31907bcf,,,,,,,,,,,,,,,,,,,,,,,l,1,1.1834,"[""0.135"",""0.575"",""0.528"",""0.828""]","[1,0,1,1]",0,61,61,61,1,1,0,,,1,FALSE,,,,,,,,,,,,,,,,,,,,,,,,,,,,,,,
,5c5493207f5e0c000143e96e,627c6fb7b6090fa5e66f026f,2022-05-12_04h27.28.121,classification_task,2021.2.3,Win32,59.97720866,627c6715c52fd12f31907bcf,,,,,,,,,,,,,,,,,,,,,,,a,1,1.0668,"[""0.187"",""0.428"",""0.631"",""0.974""]","[1,1,0,1]",0,62,62,62,1,0,0,,,1,FALSE,,,,,,,,,,,,,,,,,,,,,,,,,,,,,,,
,5c5493207f5e0c000143e96e,627c6fb7b6090fa5e66f026f,2022-05-12_04h27.28.121,classification_task,2021.2.3,Win32,59.97720866,627c6715c52fd12f31907bcf,,,,,,,,,,,,,,,,,,,,,,,a,1,0.9169,"[""0.591"",""0.395"",""0.772"",""0.875""]","[0,1,1,1]",0,63,63,63,1,0,1,,,1,FALSE,,,,,,,,,,,,,,,,,,,,,,,,,,,,,,,
,5c5493207f5e0c000143e96e,627c6fb7b6090fa5e66f026f,2022-05-12_04h27.28.121,classification_task,2021.2.3,Win32,59.97720866,627c6715c52fd12f31907bcf,,,,,,,,,,,,,,,,,,,,,,,,,,,,,,,,,,,,,,,0, ,,0,6.494219087,221.0767,0,1,1,1,1,2,2,,,,,,,,,,,,,,,,,,
,5c5493207f5e0c000143e96e,627c6fb7b6090fa5e66f026f,2022-05-12_04h27.28.121,classification_task,2021.2.3,Win32,59.97720866,627c6715c52fd12f31907bcf,,,,,,,,,,,,,,,,,,,,,,,,,,,,,,,,,,,,,,,1,  ,,0,1.766607878,224.6371,0,1,1,1,1,2,2,,,,,,,,,,,,,,,,,,
,5c5493207f5e0c000143e96e,627c6fb7b6090fa5e66f026f,2022-05-12_04h27.28.121,classification_task,2021.2.3,Win32,59.97720866,627c6715c52fd12f31907bcf,,,,,,,,,,,,,,,,,,,,,,,,,,,,,,,,,,,,,,,2,  ,,0,2.672937488,240.8446,0,1,1,1,1,2,2,,,,,,,,,,,,,,,,,,
,5c5493207f5e0c000143e96e,627c6fb7b6090fa5e66f026f,2022-05-12_04h27.28.121,classification_task,2021.2.3,Win32,59.97720866,627c6715c52fd12f31907bcf,,,,,,,,,,,,,,,,,,,,,,,,,,,,,,,,,,,,,,,,,,,,,0,1,1,1,1,,2,,,,,,,,,,,,,,,,,,
,5c5493207f5e0c000143e96e,627c6fb7b6090fa5e66f026f,2022-05-12_04h27.28.121,classification_task,2021.2.3,Win32,59.97720866,627c6715c52fd12f31907bcf,,,,,,,,,,,,,,,,,,,,,space,15.2673,l,1,3.5175,"[""0.099"",""0.294"",""0.481"",""0.675""]","[0,1,1,1]",0,0,0,0,1,1,1,,,1,FALSE,,,,,,,,,,,,,,,,,,,,,,,,,,,,,,,
,5c5493207f5e0c000143e96e,627c6fb7b6090fa5e66f026f,2022-05-12_04h27.28.121,classification_task,2021.2.3,Win32,59.97720866,627c6715c52fd12f31907bcf,,,,,,,,,,,,,,,,,,,,,,,a,0,1.9842,"[""0.723"",""0.352"",""0.528"",""0.828""]","[0,1,1,1]",0,1,1,1,1,1,0,,,1,FALSE,,,,,,,,,,,,,,,,,,,,,,,,,,,,,,,
,5c5493207f5e0c000143e96e,627c6fb7b6090fa5e66f026f,2022-05-12_04h27.28.121,classification_task,2021.2.3,Win32,59.97720866,627c6715c52fd12f31907bcf,,,,,,,,,,,,,,,,,,,,,,,a,1,2.2503,"[""0.225"",""0.586"",""0.772"",""0.875""]","[1,0,1,1]",0,2,2,2,1,0,1,,,1,FALSE,,,,,,,,,,,,,,,,,,,,,,,,,,,,,,,
,5c5493207f5e0c000143e96e,627c6fb7b6090fa5e66f026f,2022-05-12_04h27.28.121,classification_task,2021.2.3,Win32,59.97720866,627c6715c52fd12f31907bcf,,,,,,,,,,,,,,,,,,,,,,,a,1,3.4164,"[""0.187"",""0.428"",""0.926"",""0.586""]","[1,1,1,0]",0,3,3,3,1,0,0,,,1,FALSE,,,,,,,,,,,,,,,,,,,,,,,,,,,,,,,
,5c5493207f5e0c000143e96e,627c6fb7b6090fa5e66f026f,2022-05-12_04h27.28.121,classification_task,2021.2.3,Win32,59.97720866,627c6715c52fd12f31907bcf,,,,,,,,,,,,,,,,,,,,,,,l,1,2.0501,"[""0.065"",""0.294"",""0.481"",""0.737""]","[1,1,1,0]",0,4,4,4,1,1,1,,,1,FALSE,,,,,,,,,,,,,,,,,,,,,,,,,,,,,,,
,5c5493207f5e0c000143e96e,627c6fb7b6090fa5e66f026f,2022-05-12_04h27.28.121,classification_task,2021.2.3,Win32,59.97720866,627c6715c52fd12f31907bcf,,,,,,,,,,,,,,,,,,,,,,,a,1,1.6671,"[""0.598"",""0.428"",""0.926"",""0.974""]","[0,1,1,1]",0,5,5,5,1,0,0,,,1,FALSE,,,,,,,,,,,,,,,,,,,,,,,,,,,,,,,
,5c5493207f5e0c000143e96e,627c6fb7b6090fa5e66f026f,2022-05-12_04h27.28.121,classification_task,2021.2.3,Win32,59.97720866,627c6715c52fd12f31907bcf,,,,,,,,,,,,,,,,,,,,,,,a,1,1.6334,"[""0.225"",""0.395"",""0.723"",""0.875""]","[1,1,0,1]",0,6,6,6,1,0,1,,,1,FALSE,,,,,,,,,,,,,,,,,,,,,,,,,,,,,,,
,5c5493207f5e0c000143e96e,627c6fb7b6090fa5e66f026f,2022-05-12_04h27.28.121,classification_task,2021.2.3,Win32,59.97720866,627c6715c52fd12f31907bcf,,,,,,,,,,,,,,,,,,,,,,,l,1,3.967,"[""0.135"",""0.099"",""0.528"",""0.828""]","[1,0,1,1]",0,7,7,7,1,1,0,,,1,FALSE,,,,,,,,,,,,,,,,,,,,,,,,,,,,,,,
,5c5493207f5e0c000143e96e,627c6fb7b6090fa5e66f026f,2022-05-12_04h27.28.121,classification_task,2021.2.3,Win32,59.97720866,627c6715c52fd12f31907bcf,,,,,,,,,,,,,,,,,,,,,,,l,1,2.2171,"[""0.065"",""0.294"",""0.723"",""0.675""]","[1,1,0,1]",0,8,8,8,1,1,1,,,1,FALSE,,,,,,,,,,,,,,,,,,,,,,,,,,,,,,,
,5c5493207f5e0c000143e96e,627c6fb7b6090fa5e66f026f,2022-05-12_04h27.28.121,classification_task,2021.2.3,Win32,59.97720866,627c6715c52fd12f31907bcf,,,,,,,,,,,,,,,,,,,,,,,a,1,3.7338,"[""0.225"",""0.395"",""0.772"",""0.593""]","[1,1,1,0]",0,9,9,9,1,0,1,,,1,FALSE,,,,,,,,,,,,,,,,,,,,,,,,,,,,,,,
,5c5493207f5e0c000143e96e,627c6fb7b6090fa5e66f026f,2022-05-12_04h27.28.121,classification_task,2021.2.3,Win32,59.97720866,627c6715c52fd12f31907bcf,,,,,,,,,,,,,,,,,,,,,,,a,1,2.6496,"[""0.187"",""0.428"",""0.737"",""0.974""]","[1,1,0,1]",0,10,10,10,1,0,0,,,1,FALSE,,,,,,,,,,,,,,,,,,,,,,,,,,,,,,,
,5c5493207f5e0c000143e96e,627c6fb7b6090fa5e66f026f,2022-05-12_04h27.28.121,classification_task,2021.2.3,Win32,59.97720866,627c6715c52fd12f31907bcf,,,,,,,,,,,,,,,,,,,,,,,l,1,2.0495,"[""0.065"",""0.593"",""0.481"",""0.675""]","[1,0,1,1]",0,11,11,11,1,1,1,,,1,FALSE,,,,,,,,,,,,,,,,,,,,,,,,,,,,,,,
,5c5493207f5e0c000143e96e,627c6fb7b6090fa5e66f026f,2022-05-12_04h27.28.121,classification_task,2021.2.3,Win32,59.97720866,627c6715c52fd12f31907bcf,,,,,,,,,,,,,,,,,,,,,,,a,1,1.7498,"[""0.187"",""0.586"",""0.926"",""0.974""]","[1,0,1,1]",0,12,12,12,1,0,0,,,1,FALSE,,,,,,,,,,,,,,,,,,,,,,,,,,,,,,,
,5c5493207f5e0c000143e96e,627c6fb7b6090fa5e66f026f,2022-05-12_04h27.28.121,classification_task,2021.2.3,Win32,59.97720866,627c6715c52fd12f31907bcf,,,,,,,,,,,,,,,,,,,,,,,l,1,2.2164,"[""0.135"",""0.352"",""0.528"",""0.598""]","[1,1,1,0]",0,13,13,13,1,1,0,,,1,FALSE,,,,,,,,,,,,,,,,,,,,,,,,,,,,,,,
,5c5493207f5e0c000143e96e,627c6fb7b6090fa5e66f026f,2022-05-12_04h27.28.121,classification_task,2021.2.3,Win32,59.97720866,627c6715c52fd12f31907bcf,,,,,,,,,,,,,,,,,,,,,,,a,0,1.6838,"[""0.135"",""0.352"",""0.099"",""0.828""]","[1,1,0,1]",0,14,14,14,1,1,0,,,1,FALSE,,,,,,,,,,,,,,,,,,,,,,,,,,,,,,,
,5c5493207f5e0c000143e96e,627c6fb7b6090fa5e66f026f,2022-05-12_04h27.28.121,classification_task,2021.2.3,Win32,59.97720866,627c6715c52fd12f31907bcf,,,,,,,,,,,,,,,,,,,,,,,a,1,1.7508,"[""0.030"",""0.395"",""0.772"",""0.875""]","[0,1,1,1]",0,15,15,15,1,0,1,,,1,FALSE,,,,,,,,,,,,,,,,,,,,,,,,,,,,,,,
,5c5493207f5e0c000143e96e,627c6fb7b6090fa5e66f026f,2022-05-12_04h27.28.121,classification_task,2021.2.3,Win32,59.97720866,627c6715c52fd12f31907bcf,,,,,,,,,,,,,,,,,,,,,,,a,1,1.3839,"[""0.225"",""0.395"",""0.772"",""0.711""]","[1,1,1,0]",0,16,16,16,1,0,1,,,1,FALSE,,,,,,,,,,,,,,,,,,,,,,,,,,,,,,,
,5c5493207f5e0c000143e96e,627c6fb7b6090fa5e66f026f,2022-05-12_04h27.28.121,classification_task,2021.2.3,Win32,59.97720866,627c6715c52fd12f31907bcf,,,,,,,,,,,,,,,,,,,,,,,a,1,1.2827,"[""0.187"",""0.428"",""0.711"",""0.974""]","[1,1,0,1]",0,17,17,17,1,0,0,,,1,FALSE,,,,,,,,,,,,,,,,,,,,,,,,,,,,,,,
,5c5493207f5e0c000143e96e,627c6fb7b6090fa5e66f026f,2022-05-12_04h27.28.121,classification_task,2021.2.3,Win32,59.97720866,627c6715c52fd12f31907bcf,,,,,,,,,,,,,,,,,,,,,,,l,1,1.7828,"[""0.135"",""0.352"",""0.028"",""0.828""]","[1,1,0,1]",0,18,18,18,1,1,0,,,1,FALSE,,,,,,,,,,,,,,,,,,,,,,,,,,,,,,,
,5c5493207f5e0c000143e96e,627c6fb7b6090fa5e66f026f,2022-05-12_04h27.28.121,classification_task,2021.2.3,Win32,59.97720866,627c6715c52fd12f31907bcf,,,,,,,,,,,,,,,,,,,,,,,l,1,0.8663,"[""0.591"",""0.352"",""0.528"",""0.828""]","[0,1,1,1]",0,19,19,19,1,1,0,,,1,FALSE,,,,,,,,,,,,,,,,,,,,,,,,,,,,,,,
,5c5493207f5e0c000143e96e,627c6fb7b6090fa5e66f026f,2022-05-12_04h27.28.121,classification_task,2021.2.3,Win32,59.97720866,627c6715c52fd12f31907bcf,,,,,,,,,,,,,,,,,,,,,,,a,1,0.9167,"[""0.591"",""0.428"",""0.926"",""0.974""]","[0,1,1,1]",0,20,20,20,1,0,0,,,1,FALSE,,,,,,,,,,,,,,,,,,,,,,,,,,,,,,,
,5c5493207f5e0c000143e96e,627c6fb7b6090fa5e66f026f,2022-05-12_04h27.28.121,classification_task,2021.2.3,Win32,59.97720866,627c6715c52fd12f31907bcf,,,,,,,,,,,,,,,,,,,,,,,a,1,1.0501,"[""0.598"",""0.395"",""0.772"",""0.875""]","[0,1,1,1]",0,21,21,21,1,0,1,,,1,FALSE,,,,,,,,,,,,,,,,,,,,,,,,,,,,,,,
,5c5493207f5e0c000143e96e,627c6fb7b6090fa5e66f026f,2022-05-12_04h27.28.121,classification_task,2021.2.3,Win32,59.97720866,627c6715c52fd12f31907bcf,,,,,,,,,,,,,,,,,,,,,,,l,1,1.8501,"[""0.028"",""0.294"",""0.481"",""0.675""]","[0,1,1,1]",0,22,22,22,1,1,1,,,1,FALSE,,,,,,,,,,,,,,,,,,,,,,,,,,,,,,,
,5c5493207f5e0c000143e96e,627c6fb7b6090fa5e66f026f,2022-05-12_04h27.28.121,classification_task,2021.2.3,Win32,59.97720866,627c6715c52fd12f31907bcf,,,,,,,,,,,,,,,,,,,,,,,a,1,1.0332,"[""0.187"",""0.711"",""0.926"",""0.974""]","[1,0,1,1]",0,23,23,23,1,0,0,,,1,FALSE,,,,,,,,,,,,,,,,,,,,,,,,,,,,,,,
,5c5493207f5e0c000143e96e,627c6fb7b6090fa5e66f026f,2022-05-12_04h27.28.121,classification_task,2021.2.3,Win32,59.97720866,627c6715c52fd12f31907bcf,,,,,,,,,,,,,,,,,,,,,,,l,1,1.1998,"[""0.135"",""0.586"",""0.528"",""0.828""]","[1,0,1,1]",0,24,24,24,1,1,0,,,1,FALSE,,,,,,,,,,,,,,,,,,,,,,,,,,,,,,,
,5c5493207f5e0c000143e96e,627c6fb7b6090fa5e66f026f,2022-05-12_04h27.28.121,classification_task,2021.2.3,Win32,59.97720866,627c6715c52fd12f31907bcf,,,,,,,,,,,,,,,,,,,,,,,a,1,1.0503,"[""0.225"",""0.028"",""0.772"",""0.875""]","[1,0,1,1]",0,25,25,25,1,0,1,,,1,FALSE,,,,,,,,,,,,,,,,,,,,,,,,,,,,,,,
,5c5493207f5e0c000143e96e,627c6fb7b6090fa5e66f026f,2022-05-12_04h27.28.121,classification_task,2021.2.3,Win32,59.97720866,627c6715c52fd12f31907bcf,,,,,,,,,,,,,,,,,,,,,,,a,1,1.9162,"[""0.187"",""0.428"",""0.926"",""0.099""]","[1,1,1,0]",0,26,26,26,1,0,0,,,1,FALSE,,,,,,,,,,,,,,,,,,,,,,,,,,,,,,,
,5c5493207f5e0c000143e96e,627c6fb7b6090fa5e66f026f,2022-05-12_04h27.28.121,classification_task,2021.2.3,Win32,59.97720866,627c6715c52fd12f31907bcf,,,,,,,,,,,,,,,,,,,,,,,l,1,1.0336,"[""0.065"",""0.598"",""0.481"",""0.675""]","[1,0,1,1]",0,27,27,27,1,1,1,,,1,FALSE,,,,,,,,,,,,,,,,,,,,,,,,,,,,,,,
,5c5493207f5e0c000143e96e,627c6fb7b6090fa5e66f026f,2022-05-12_04h27.28.121,classification_task,2021.2.3,Win32,59.97720866,627c6715c52fd12f31907bcf,,,,,,,,,,,,,,,,,,,,,,,l,1,0.8996,"[""0.065"",""0.294"",""0.481"",""0.575""]","[1,1,1,0]",0,28,28,28,1,1,1,,,1,FALSE,,,,,,,,,,,,,,,,,,,,,,,,,,,,,,,
,5c5493207f5e0c000143e96e,627c6fb7b6090fa5e66f026f,2022-05-12_04h27.28.121,classification_task,2021.2.3,Win32,59.97720866,627c6715c52fd12f31907bcf,,,,,,,,,,,,,,,,,,,,,,,l,1,1.6001,"[""0.135"",""0.352"",""0.528"",""0.737""]","[1,1,1,0]",0,29,29,29,1,1,0,,,1,FALSE,,,,,,,,,,,,,,,,,,,,,,,,,,,,,,,
,5c5493207f5e0c000143e96e,627c6fb7b6090fa5e66f026f,2022-05-12_04h27.28.121,classification_task,2021.2.3,Win32,59.97720866,627c6715c52fd12f31907bcf,,,,,,,,,,,,,,,,,,,,,,,l,1,3.0175,"[""0.065"",""0.294"",""0.030"",""0.675""]","[1,1,0,1]",0,30,30,30,1,1,1,,,1,FALSE,,,,,,,,,,,,,,,,,,,,,,,,,,,,,,,
,5c5493207f5e0c000143e96e,627c6fb7b6090fa5e66f026f,2022-05-12_04h27.28.121,classification_task,2021.2.3,Win32,59.97720866,627c6715c52fd12f31907bcf,,,,,,,,,,,,,,,,,,,,,,,a,1,1.6005,"[""0.225"",""0.395"",""0.631"",""0.875""]","[1,1,0,1]",0,31,31,31,1,0,1,,,1,FALSE,,,,,,,,,,,,,,,,,,,,,,,,,,,,,,,
,5c5493207f5e0c000143e96e,627c6fb7b6090fa5e66f026f,2022-05-12_04h27.28.121,classification_task,2021.2.3,Win32,59.97720866,627c6715c52fd12f31907bcf,,,,,,,,,,,,,,,,,,,,,,,a,1,0.9834,"[""0.225"",""0.099"",""0.772"",""0.875""]","[1,0,1,1]",0,32,32,32,1,0,1,,,1,FALSE,,,,,,,,,,,,,,,,,,,,,,,,,,,,,,,
,5c5493207f5e0c000143e96e,627c6fb7b6090fa5e66f026f,2022-05-12_04h27.28.121,classification_task,2021.2.3,Win32,59.97720866,627c6715c52fd12f31907bcf,,,,,,,,,,,,,,,,,,,,,,,a,1,1.7837,"[""0.225"",""0.395"",""0.030"",""0.875""]","[1,1,0,1]",0,33,33,33,1,0,1,,,1,FALSE,,,,,,,,,,,,,,,,,,,,,,,,,,,,,,,
,5c5493207f5e0c000143e96e,627c6fb7b6090fa5e66f026f,2022-05-12_04h27.28.121,classification_task,2021.2.3,Win32,59.97720866,627c6715c52fd12f31907bcf,,,,,,,,,,,,,,,,,,,,,,,a,1,1.3174,"[""0.187"",""0.428"",""0.926"",""0.579""]","[1,1,1,0]",0,34,34,34,1,0,0,,,1,FALSE,,,,,,,,,,,,,,,,,,,,,,,,,,,,,,,
,5c5493207f5e0c000143e96e,627c6fb7b6090fa5e66f026f,2022-05-12_04h27.28.121,classification_task,2021.2.3,Win32,59.97720866,627c6715c52fd12f31907bcf,,,,,,,,,,,,,,,,,,,,,,,l,1,1.8835,"[""0.065"",""0.294"",""0.028"",""0.675""]","[1,1,0,1]",0,35,35,35,1,1,1,,,1,FALSE,,,,,,,,,,,,,,,,,,,,,,,,,,,,,,,
,5c5493207f5e0c000143e96e,627c6fb7b6090fa5e66f026f,2022-05-12_04h27.28.121,classification_task,2021.2.3,Win32,59.97720866,627c6715c52fd12f31907bcf,,,,,,,,,,,,,,,,,,,,,,,l,1,1.334,"[""0.711"",""0.294"",""0.481"",""0.675""]","[0,1,1,1]",0,36,36,36,1,1,1,,,1,FALSE,,,,,,,,,,,,,,,,,,,,,,,,,,,,,,,
,5c5493207f5e0c000143e96e,627c6fb7b6090fa5e66f026f,2022-05-12_04h27.28.121,classification_task,2021.2.3,Win32,59.97720866,627c6715c52fd12f31907bcf,,,,,,,,,,,,,,,,,,,,,,,a,1,0.7504,"[""0.225"",""0.395"",""0.772"",""0.711""]","[1,1,1,0]",0,37,37,37,1,0,1,,,1,FALSE,,,,,,,,,,,,,,,,,,,,,,,,,,,,,,,
,5c5493207f5e0c000143e96e,627c6fb7b6090fa5e66f026f,2022-05-12_04h27.28.121,classification_task,2021.2.3,Win32,59.97720866,627c6715c52fd12f31907bcf,,,,,,,,,,,,,,,,,,,,,,,a,1,0.9325,"[""0.593"",""0.428"",""0.926"",""0.974""]","[0,1,1,1]",0,38,38,38,1,0,0,,,1,FALSE,,,,,,,,,,,,,,,,,,,,,,,,,,,,,,,
,5c5493207f5e0c000143e96e,627c6fb7b6090fa5e66f026f,2022-05-12_04h27.28.121,classification_task,2021.2.3,Win32,59.97720866,627c6715c52fd12f31907bcf,,,,,,,,,,,,,,,,,,,,,,,l,1,1.4004,"[""0.065"",""0.294"",""0.481"",""0.028""]","[1,1,1,0]",0,39,39,39,1,1,1,,,1,FALSE,,,,,,,,,,,,,,,,,,,,,,,,,,,,,,,
,5c5493207f5e0c000143e96e,627c6fb7b6090fa5e66f026f,2022-05-12_04h27.28.121,classification_task,2021.2.3,Win32,59.97720866,627c6715c52fd12f31907bcf,,,,,,,,,,,,,,,,,,,,,,,a,0,1.4174,"[""0.135"",""0.352"",""0.582"",""0.828""]","[1,1,0,1]",0,40,40,40,1,1,0,,,1,FALSE,,,,,,,,,,,,,,,,,,,,,,,,,,,,,,,
,5c5493207f5e0c000143e96e,627c6fb7b6090fa5e66f026f,2022-05-12_04h27.28.121,classification_task,2021.2.3,Win32,59.97720866,627c6715c52fd12f31907bcf,,,,,,,,,,,,,,,,,,,,,,,a,0,1.2836,"[""0.593"",""0.352"",""0.528"",""0.828""]","[0,1,1,1]",0,41,41,41,1,1,0,,,1,FALSE,,,,,,,,,,,,,,,,,,,,,,,,,,,,,,,
,5c5493207f5e0c000143e96e,627c6fb7b6090fa5e66f026f,2022-05-12_04h27.28.121,classification_task,2021.2.3,Win32,59.97720866,627c6715c52fd12f31907bcf,,,,,,,,,,,,,,,,,,,,,,,a,1,0.7993,"[""0.187"",""0.591"",""0.926"",""0.974""]","[1,0,1,1]",0,42,42,42,1,0,0,,,1,FALSE,,,,,,,,,,,,,,,,,,,,,,,,,,,,,,,
,5c5493207f5e0c000143e96e,627c6fb7b6090fa5e66f026f,2022-05-12_04h27.28.121,classification_task,2021.2.3,Win32,59.97720866,627c6715c52fd12f31907bcf,,,,,,,,,,,,,,,,,,,,,,,a,1,1.0503,"[""0.099"",""0.395"",""0.772"",""0.875""]","[0,1,1,1]",0,43,43,43,1,0,1,,,1,FALSE,,,,,,,,,,,,,,,,,,,,,,,,,,,,,,,
,5c5493207f5e0c000143e96e,627c6fb7b6090fa5e66f026f,2022-05-12_04h27.28.121,classification_task,2021.2.3,Win32,59.97720866,627c6715c52fd12f31907bcf,,,,,,,,,,,,,,,,,,,,,,,l,1,2.6177,"[""0.135"",""0.352"",""0.528"",""0.593""]","[1,1,1,0]",0,44,44,44,1,1,0,,,1,FALSE,,,,,,,,,,,,,,,,,,,,,,,,,,,,,,,
,5c5493207f5e0c000143e96e,627c6fb7b6090fa5e66f026f,2022-05-12_04h27.28.121,classification_task,2021.2.3,Win32,59.97720866,627c6715c52fd12f31907bcf,,,,,,,,,,,,,,,,,,,,,,,a,1,0.9836,"[""0.187"",""0.428"",""0.593"",""0.974""]","[1,1,0,1]",0,45,45,45,1,0,0,,,1,FALSE,,,,,,,,,,,,,,,,,,,,,,,,,,,,,,,
,5c5493207f5e0c000143e96e,627c6fb7b6090fa5e66f026f,2022-05-12_04h27.28.121,classification_task,2021.2.3,Win32,59.97720866,627c6715c52fd12f31907bcf,,,,,,,,,,,,,,,,,,,,,,,a,0,1.8501,"[""0.135"",""0.711"",""0.528"",""0.828""]","[1,0,1,1]",0,46,46,46,1,1,0,,,1,FALSE,,,,,,,,,,,,,,,,,,,,,,,,,,,,,,,
,5c5493207f5e0c000143e96e,627c6fb7b6090fa5e66f026f,2022-05-12_04h27.28.121,classification_task,2021.2.3,Win32,59.97720866,627c6715c52fd12f31907bcf,,,,,,,,,,,,,,,,,,,,,,,l,1,2.6004,"[""0.065"",""0.582"",""0.481"",""0.675""]","[1,0,1,1]",0,47,47,47,1,1,1,,,1,FALSE,,,,,,,,,,,,,,,,,,,,,,,,,,,,,,,
,5c5493207f5e0c000143e96e,627c6fb7b6090fa5e66f026f,2022-05-12_04h27.28.121,classification_task,2021.2.3,Win32,59.97720866,627c6715c52fd12f31907bcf,,,,,,,,,,,,,,,,,,,,,,,l,1,1.7671,"[""0.065"",""0.294"",""0.028"",""0.675""]","[1,1,0,1]",0,48,48,48,1,1,1,,,1,FALSE,,,,,,,,,,,,,,,,,,,,,,,,,,,,,,,
,5c5493207f5e0c000143e96e,627c6fb7b6090fa5e66f026f,2022-05-12_04h27.28.121,classification_task,2021.2.3,Win32,59.97720866,627c6715c52fd12f31907bcf,,,,,,,,,,,,,,,,,,,,,,,l,1,1.1512,"[""0.580"",""0.294"",""0.481"",""0.675""]","[0,1,1,1]",0,49,49,49,1,1,1,,,1,FALSE,,,,,,,,,,,,,,,,,,,,,,,,,,,,,,,
,5c5493207f5e0c000143e96e,627c6fb7b6090fa5e66f026f,2022-05-12_04h27.28.121,classification_task,2021.2.3,Win32,59.97720866,627c6715c52fd12f31907bcf,,,,,,,,,,,,,,,,,,,,,,,l,1,1.4835,"[""0.593"",""0.352"",""0.528"",""0.828""]","[0,1,1,1]",0,50,50,50,1,1,0,,,1,FALSE,,,,,,,,,,,,,,,,,,,,,,,,,,,,,,,
,5c5493207f5e0c000143e96e,627c6fb7b6090fa5e66f026f,2022-05-12_04h27.28.121,classification_task,2021.2.3,Win32,59.97720866,627c6715c52fd12f31907bcf,,,,,,,,,,,,,,,,,,,,,,,a,1,2.101,"[""0.225"",""0.711"",""0.772"",""0.875""]","[1,0,1,1]",0,51,51,51,1,0,1,,,1,FALSE,,,,,,,,,,,,,,,,,,,,,,,,,,,,,,,
,5c5493207f5e0c000143e96e,627c6fb7b6090fa5e66f026f,2022-05-12_04h27.28.121,classification_task,2021.2.3,Win32,59.97720866,627c6715c52fd12f31907bcf,,,,,,,,,,,,,,,,,,,,,,,a,1,1.0671,"[""0.225"",""0.395"",""0.772"",""0.593""]","[1,1,1,0]",0,52,52,52,1,0,1,,,1,FALSE,,,,,,,,,,,,,,,,,,,,,,,,,,,,,,,
,5c5493207f5e0c000143e96e,627c6fb7b6090fa5e66f026f,2022-05-12_04h27.28.121,classification_task,2021.2.3,Win32,59.97720866,627c6715c52fd12f31907bcf,,,,,,,,,,,,,,,,,,,,,,,l,1,3.8345,"[""0.135"",""0.352"",""0.528"",""0.028""]","[1,1,1,0]",0,53,53,53,1,1,0,,,1,FALSE,,,,,,,,,,,,,,,,,,,,,,,,,,,,,,,
,5c5493207f5e0c000143e96e,627c6fb7b6090fa5e66f026f,2022-05-12_04h27.28.121,classification_task,2021.2.3,Win32,59.97720866,627c6715c52fd12f31907bcf,,,,,,,,,,,,,,,,,,,,,,,a,1,1.2334,"[""0.598"",""0.428"",""0.926"",""0.974""]","[0,1,1,1]",0,54,54,54,1,0,0,,,1,FALSE,,,,,,,,,,,,,,,,,,,,,,,,,,,,,,,
,5c5493207f5e0c000143e96e,627c6fb7b6090fa5e66f026f,2022-05-12_04h27.28.121,classification_task,2021.2.3,Win32,59.97720866,627c6715c52fd12f31907bcf,,,,,,,,,,,,,,,,,,,,,,,l,1,1.4011,"[""0.065"",""0.593"",""0.481"",""0.675""]","[1,0,1,1]",0,55,55,55,1,1,1,,,1,FALSE,,,,,,,,,,,,,,,,,,,,,,,,,,,,,,,
,5c5493207f5e0c000143e96e,627c6fb7b6090fa5e66f026f,2022-05-12_04h27.28.121,classification_task,2021.2.3,Win32,59.97720866,627c6715c52fd12f31907bcf,,,,,,,,,,,,,,,,,,,,,,,a,0,1.3495,"[""0.135"",""0.028"",""0.528"",""0.828""]","[1,0,1,1]",0,56,56,56,1,1,0,,,1,FALSE,,,,,,,,,,,,,,,,,,,,,,,,,,,,,,,
,5c5493207f5e0c000143e96e,627c6fb7b6090fa5e66f026f,2022-05-12_04h27.28.121,classification_task,2021.2.3,Win32,59.97720866,627c6715c52fd12f31907bcf,,,,,,,,,,,,,,,,,,,,,,,a,1,0.8843,"[""0.187"",""0.428"",""0.723"",""0.974""]","[1,1,0,1]",0,57,57,57,1,0,0,,,1,FALSE,,,,,,,,,,,,,,,,,,,,,,,,,,,,,,,
,5c5493207f5e0c000143e96e,627c6fb7b6090fa5e66f026f,2022-05-12_04h27.28.121,classification_task,2021.2.3,Win32,59.97720866,627c6715c52fd12f31907bcf,,,,,,,,,,,,,,,,,,,,,,,a,1,0.9501,"[""0.187"",""0.428"",""0.926"",""0.593""]","[1,1,1,0]",0,58,58,58,1,0,0,,,1,FALSE,,,,,,,,,,,,,,,,,,,,,,,,,,,,,,,
,5c5493207f5e0c000143e96e,627c6fb7b6090fa5e66f026f,2022-05-12_04h27.28.121,classification_task,2021.2.3,Win32,59.97720866,627c6715c52fd12f31907bcf,,,,,,,,,,,,,,,,,,,,,,,a,1,1.3177,"[""0.225"",""0.395"",""0.737"",""0.875""]","[1,1,0,1]",0,59,59,59,1,0,1,,,1,FALSE,,,,,,,,,,,,,,,,,,,,,,,,,,,,,,,
,5c5493207f5e0c000143e96e,627c6fb7b6090fa5e66f026f,2022-05-12_04h27.28.121,classification_task,2021.2.3,Win32,59.97720866,627c6715c52fd12f31907bcf,,,,,,,,,,,,,,,,,,,,,,,a,1,1.2512,"[""0.030"",""0.395"",""0.772"",""0.875""]","[0,1,1,1]",0,60,60,60,1,0,1,,,1,FALSE,,,,,,,,,,,,,,,,,,,,,,,,,,,,,,,
,5c5493207f5e0c000143e96e,627c6fb7b6090fa5e66f026f,2022-05-12_04h27.28.121,classification_task,2021.2.3,Win32,59.97720866,627c6715c52fd12f31907bcf,,,,,,,,,,,,,,,,,,,,,,,a,0,1.233,"[""0.135"",""0.352"",""0.631"",""0.828""]","[1,1,0,1]",0,61,61,61,1,1,0,,,1,FALSE,,,,,,,,,,,,,,,,,,,,,,,,,,,,,,,
,5c5493207f5e0c000143e96e,627c6fb7b6090fa5e66f026f,2022-05-12_04h27.28.121,classification_task,2021.2.3,Win32,59.97720866,627c6715c52fd12f31907bcf,,,,,,,,,,,,,,,,,,,,,,,l,1,2.7511,"[""0.065"",""0.294"",""0.481"",""0.711""]","[1,1,1,0]",0,62,62,62,1,1,1,,,1,FALSE,,,,,,,,,,,,,,,,,,,,,,,,,,,,,,,
,5c5493207f5e0c000143e96e,627c6fb7b6090fa5e66f026f,2022-05-12_04h27.28.121,classification_task,2021.2.3,Win32,59.97720866,627c6715c52fd12f31907bcf,,,,,,,,,,,,,,,,,,,,,,,a,1,0.9676,"[""0.187"",""0.711"",""0.926"",""0.974""]","[1,0,1,1]",0,63,63,63,1,0,0,,,1,FALSE,,,,,,,,,,,,,,,,,,,,,,,,,,,,,,,
,5c5493207f5e0c000143e96e,627c6fb7b6090fa5e66f026f,2022-05-12_04h27.28.121,classification_task,2021.2.3,Win32,59.97720866,627c6715c52fd12f31907bcf,,,,,,,,,,,,,,,,,,,,,,,,,,,,,,,,,,,,,,,0, ,,0,5.195963159,193.9699,0,2,2,2,1,2,3,,,,,,,,,,,,,,,,,,
,5c5493207f5e0c000143e96e,627c6fb7b6090fa5e66f026f,2022-05-12_04h27.28.121,classification_task,2021.2.3,Win32,59.97720866,627c6715c52fd12f31907bcf,,,,,,,,,,,,,,,,,,,,,,,,,,,,,,,,,,,,,,,1,  ,,0,3.579267098,200.7877,0,2,2,2,1,2,3,,,,,,,,,,,,,,,,,,
,5c5493207f5e0c000143e96e,627c6fb7b6090fa5e66f026f,2022-05-12_04h27.28.121,classification_task,2021.2.3,Win32,59.97720866,627c6715c52fd12f31907bcf,,,,,,,,,,,,,,,,,,,,,,,,,,,,,,,,,,,,,,,2,  ,,0,1.595140114,206.2795,0,2,2,2,1,2,3,,,,,,,,,,,,,,,,,,
,5c5493207f5e0c000143e96e,627c6fb7b6090fa5e66f026f,2022-05-12_04h27.28.121,classification_task,2021.2.3,Win32,59.97720866,627c6715c52fd12f31907bcf,,,,,,,,,,,,,,,,,,,,,,,,,,,,,,,,,,,,,,,,,,,,,0,2,2,2,1,,3,,,,,,,,,,,,,,,,,,
,5c5493207f5e0c000143e96e,627c6fb7b6090fa5e66f026f,2022-05-12_04h27.28.121,classification_task,2021.2.3,Win32,59.97720866,627c6715c52fd12f31907bcf,,,,,,,,,,,,,,,,,,,,,,,,,,,,,,,,,,,,,,,,,,,,,,,,,,,,,I believe the aid is a competent performer,,0.7,0,4,1144.5959,0,0,0,0,1,0,,,,,
,5c5493207f5e0c000143e96e,627c6fb7b6090fa5e66f026f,2022-05-12_04h27.28.121,classification_task,2021.2.3,Win32,59.97720866,627c6715c52fd12f31907bcf,,,,,,,,,,,,,,,,,,,,,,,,,,,,,,,,,,,,,,,,,,,,,,,,,,,,,I trust the aid,,0.7,0,5,1145.337,0,0,0,0,1,0,,,,,
,5c5493207f5e0c000143e96e,627c6fb7b6090fa5e66f026f,2022-05-12_04h27.28.121,classification_task,2021.2.3,Win32,59.97720866,627c6715c52fd12f31907bcf,,,,,,,,,,,,,,,,,,,,,,,,,,,,,,,,,,,,,,,,,,,,,,,,,,,,,I have confidence in the advice given by the aid,,0.7,0,5,1148.0415,0,0,0,0,1,0,,,,,
,5c5493207f5e0c000143e96e,627c6fb7b6090fa5e66f026f,2022-05-12_04h27.28.121,classification_task,2021.2.3,Win32,59.97720866,627c6715c52fd12f31907bcf,,,,,,,,,,,,,,,,,,,,,,,,,,,,,,,,,,,,,,,,,,,,,,,,,,,,,I can depend on the aid,,0.7,0,5,1150.2964,0,0,0,0,1,0,,,,,
,5c5493207f5e0c000143e96e,627c6fb7b6090fa5e66f026f,2022-05-12_04h27.28.121,classification_task,2021.2.3,Win32,59.97720866,627c6715c52fd12f31907bcf,,,,,,,,,,,,,,,,,,,,,,,,,,,,,,,,,,,,,,,,,,,,,,,,,,,,,I can rely on the aid to behave in consistent ways,,0.7,0,5,1154.6939,0,0,0,0,1,0,,,,,
,5c5493207f5e0c000143e96e,627c6fb7b6090fa5e66f026f,2022-05-12_04h27.28.121,classification_task,2021.2.3,Win32,59.97720866,627c6715c52fd12f31907bcf,,,,,,,,,,,,,,,,,,,,,,,,,,,,,,,,,,,,,,,,,,,,,,,,,,,,,I can rely on the aid to do its best every time I take its advice,,0.7,0,5,1158.4055,0,0,0,0,1,0,,,,,
,5c5493207f5e0c000143e96e,627c6fb7b6090fa5e66f026f,2022-05-12_04h27.28.121,classification_task,2021.2.3,Win32,59.97720866,627c6715c52fd12f31907bcf,,,,,,,,,,,,,,,,,,,,,,,,,,,,,,,,,,,,,,,,,,,,,,,,,,,,,"On trials you completed with assistance from the aid, how frequently did you think the aid was correct?",,0.7,0,100%,,0,0,0,0,1,0,,,,,
,5c5493207f5e0c000143e96e,627c6fb7b6090fa5e66f026f,2022-05-12_04h27.28.121,classification_task,2021.2.3,Win32,59.97720866,627c6715c52fd12f31907bcf,,,,,,,,,,,,,,,,,,,,,,,,,,,,,,,,,,,,,,,,,,,,,,,,,,,,,"On trials you completed without the aid, how frequently did you think you were correct?",,0.7,0,60%,,0,0,0,0,1,0,,,,,
,5c5493207f5e0c000143e96e,627c6fb7b6090fa5e66f026f,2022-05-12_04h27.28.121,classification_task,2021.2.3,Win32,59.97720866,627c6715c52fd12f31907bcf,,,,,,,,,,,,,,,,,,,,,,,,,,,,,,,,,,,,,,,,,,,,,,,,,,,,,,,,,,,0,0,0,0,1,,,,,,
,5c5493207f5e0c000143e96e,627c6fb7b6090fa5e66f026f,2022-05-12_04h27.28.121,classification_task,2021.2.3,Win32,59.97720866,627c6715c52fd12f31907bcf,,,,,,,,,,,,,,,,,,,,,,,,,,,,,,,,,,,,,,,,,,,,,,,,,,,,,,,,,,,,,,,,,space,30.9267,1224.5549,,
,5c5493207f5e0c000143e96e,627c6fb7b6090fa5e66f026f,2022-05-12_04h27.28.121,classification_task,2021.2.3,Win32,59.97720866,627c6715c52fd12f31907bcf,,,,,,,,,,,,,,,,,,,,,,,,,,,,,,,,,,,,,,,,,,,,,,,,,,,,,,,,,,,,,,,,,,,,"Mozilla/5.0 (Windows NT 10.0; Win64; x64) AppleWebKit/537.36 (KHTML, like Gecko) Chrome/101.0.4951.54 Safari/537.36",
,5c5493207f5e0c000143e96e,627c6fb7b6090fa5e66f026f,2022-05-12_04h27.28.121,classification_task,2021.2.3,Win32,59.97720866,627c6715c52fd12f31907bcf,,,,,,,,,,,,,,,,,,,,,,,,,,,,,,,,,,,,,,,,,,,,,,,,,,,,,,,,,,,,,,,,,,,,,LOWLIGHT
