usingWebGL,participant,session,date,expName,psychopyVersion,OS,frameRate,PROLIFIC_PID,STUDY_ID,SESSION_ID,signatures_friend,signatures_foe,band_ranges_top,band_ranges_bottom,formitemText,formtype,formundefined,formitemWidth,formindex,formresponse,formrt,key_resp_2.keys,key_resp_2.rt,tute_resp.keys,tute_resp.rt,tutorial.thisRepN,tutorial.thisTrialN,tutorial.thisN,tutorial.thisIndex,tutorial.ran,key_resp_4.keys,key_resp_4.rt,key_resp.keys,key_resp.corr,key_resp.rt,lines_presented,is_signal_presented,trials.thisRepN,trials.thisTrialN,trials.thisN,trials.thisIndex,trials.ran,vessel,active_band,lines,is_signal,supported_pos,catch_trial,debrief_formindex,debrief_formitemText,debrief_formtype,debrief_formitemWidth,debrief_formresponse,debrief_formrt,phases.thisRepN,phases.thisTrialN,phases.thisN,phases.thisIndex,phases.ran,phases.order,phase,key_resp_3.keys,trustitemText,trusttype,trustitemWidth,trustindex,trustresponse,trustrt,support_status.thisRepN,support_status.thisTrialN,support_status.thisN,support_status.thisIndex,support_status.ran,support_status.order,key_resp_5.keys,key_resp_5.rt,globalClockTime,userAgent
TRUE,5c6219e169375500012329d9,001,2022-04-29_03h09.20.994,classification_task,2021.2.3,Win32,60.03121623,5c6219e169375500012329d9,626b377229c10585ec392f89,626b3ab1856ab59e38b0bad8,,,,,,,,,,,,,,,,,,,,,,,,,,,,,,,,,,,,,,,,,,,,,,,,,,,,,,,,,,,,,,,,,,,,
,5c6219e169375500012329d9,001,2022-04-29_03h09.20.994,classification_task,2021.2.3,Win32,60.03121623,5c6219e169375500012329d9,626b377229c10585ec392f89,626b3ab1856ab59e38b0bad8,"[[""0.306"",""0.427"",""0.643"",""0.954""],[""0.186"",""0.498"",""0.876"",""0.914""]]","[[""0.027"",""0.376"",""0.552"",""0.841""],[""0.142"",""0.242"",""0.596"",""0.723""]]","[1,10]","[100,1000]",Video game experience,,,0.7,0,,,,,,,,,,,,,,,,,,,,,,,,,,,,,,,,,,,,,,,,,,,,,,,,,,,,,,,,,,,
,5c6219e169375500012329d9,001,2022-04-29_03h09.20.994,classification_task,2021.2.3,Win32,60.03121623,5c6219e169375500012329d9,626b377229c10585ec392f89,626b3ab1856ab59e38b0bad8,,,,,Approximately how many hours did you spend playing video games in the last week?,,,0.7,0,60,,,,,,,,,,,,,,,,,,,,,,,,,,,,,,,,,,,,,,,,,,,,,,,,,,,,,,,,,,
,5c6219e169375500012329d9,001,2022-04-29_03h09.20.994,classification_task,2021.2.3,Win32,60.03121623,5c6219e169375500012329d9,626b377229c10585ec392f89,626b3ab1856ab59e38b0bad8,,,,,"Which game did you play the most this year? (Enter ""None"" if you didn't play any)",,,0.7,0,Escape From Tarkov,,,,,,,,,,,,,,,,,,,,,,,,,,,,,,,,,,,,,,,,,,,,,,,,,,,,,,,,,,
,5c6219e169375500012329d9,001,2022-04-29_03h09.20.994,classification_task,2021.2.3,Win32,60.03121623,5c6219e169375500012329d9,626b377229c10585ec392f89,626b3ab1856ab59e38b0bad8,,,,,Visual perception,,,0.7,0,,,,,,,,,,,,,,,,,,,,,,,,,,,,,,,,,,,,,,,,,,,,,,,,,,,,,,,,,,,
,5c6219e169375500012329d9,001,2022-04-29_03h09.20.994,classification_task,2021.2.3,Win32,60.03121623,5c6219e169375500012329d9,626b377229c10585ec392f89,626b3ab1856ab59e38b0bad8,,,,,Do you have any form of color blindness?,,,0.7,0,No,31.6634,,,,,,,,,,,,,,,,,,,,,,,,,,,,,,,,,,,,,,,,,,,,,,,,,,,,,,,,,
,5c6219e169375500012329d9,001,2022-04-29_03h09.20.994,classification_task,2021.2.3,Win32,60.03121623,5c6219e169375500012329d9,626b377229c10585ec392f89,626b3ab1856ab59e38b0bad8,,,,,Do you use software to change the colour temperature of your screen (e.g. f.lux)?,,,0.7,0,No,36.834,,,,,,,,,,,,,,,,,,,,,,,,,,,,,,,,,,,,,,,,,,,,,,,,,,,,,,,,,
,5c6219e169375500012329d9,001,2022-04-29_03h09.20.994,classification_task,2021.2.3,Win32,60.03121623,5c6219e169375500012329d9,626b377229c10585ec392f89,626b3ab1856ab59e38b0bad8,,,,,,,,,,,,space,56.2794,space,19.2183,0,0,0,0,1,,,,,,,,,,,,,,,,,,,,,,,,,,,,,,,,,,,,,,,,,,,,,,,,
,5c6219e169375500012329d9,001,2022-04-29_03h09.20.994,classification_task,2021.2.3,Win32,60.03121623,5c6219e169375500012329d9,626b377229c10585ec392f89,626b3ab1856ab59e38b0bad8,,,,,,,,,,,,,,space,18.4487,1,0,1,0,1,,,,,,,,,,,,,,,,,,,,,,,,,,,,,,,,,,,,,,,,,,,,,,,,
,5c6219e169375500012329d9,001,2022-04-29_03h09.20.994,classification_task,2021.2.3,Win32,60.03121623,5c6219e169375500012329d9,626b377229c10585ec392f89,626b3ab1856ab59e38b0bad8,,,,,,,,,,,,,,space,37.0311,2,0,2,0,1,,,,,,,,,,,,,,,,,,,,,,,,,,,,,,,,,,,,,,,,,,,,,,,,
,5c6219e169375500012329d9,001,2022-04-29_03h09.20.994,classification_task,2021.2.3,Win32,60.03121623,5c6219e169375500012329d9,626b377229c10585ec392f89,626b3ab1856ab59e38b0bad8,,,,,,,,,,,,,,space,9.4159,3,0,3,0,1,,,,,,,,,,,,,,,,,,,,,,,,,,,,,,,,,,,,,,,,,,,,,,,,
,5c6219e169375500012329d9,001,2022-04-29_03h09.20.994,classification_task,2021.2.3,Win32,60.03121623,5c6219e169375500012329d9,626b377229c10585ec392f89,626b3ab1856ab59e38b0bad8,,,,,,,,,,,,,,space,16.4469,4,0,4,0,1,,,,,,,,,,,,,,,,,,,,,,,,,,,,,,,,,,,,,,,,,,,,,,,,
,5c6219e169375500012329d9,001,2022-04-29_03h09.20.994,classification_task,2021.2.3,Win32,60.03121623,5c6219e169375500012329d9,626b377229c10585ec392f89,626b3ab1856ab59e38b0bad8,,,,,,,,,,,,,,,,,,,,,space,21.6927,l,1,7.1839,"[""0.142"",""0.242"",""0.086"",""0.723""]","[1,1,0,1]",0,0,0,0,1,1,1,,,0,FALSE,,,,,,,,,,,,,,,,,,,,,,,,,,,,,,
,5c6219e169375500012329d9,001,2022-04-29_03h09.20.994,classification_task,2021.2.3,Win32,60.03121623,5c6219e169375500012329d9,626b377229c10585ec392f89,626b3ab1856ab59e38b0bad8,,,,,,,,,,,,,,,,,,,,,,,a,1,5.234,"[""0.306"",""0.427"",""0.793"",""0.954""]","[1,1,0,1]",0,1,1,1,1,0,0,,,0,FALSE,,,,,,,,,,,,,,,,,,,,,,,,,,,,,,
,5c6219e169375500012329d9,001,2022-04-29_03h09.20.994,classification_task,2021.2.3,Win32,60.03121623,5c6219e169375500012329d9,626b377229c10585ec392f89,626b3ab1856ab59e38b0bad8,,,,,,,,,,,,,,,,,,,,,,,,0,,"[""0.792"",""0.376"",""0.552"",""0.841""]","[0,1,1,1]",0,2,2,2,1,1,0,,,0,FALSE,,,,,,,,,,,,,,,,,,,,,,,,,,,,,,
,5c6219e169375500012329d9,001,2022-04-29_03h09.20.994,classification_task,2021.2.3,Win32,60.03121623,5c6219e169375500012329d9,626b377229c10585ec392f89,626b3ab1856ab59e38b0bad8,,,,,,,,,,,,,,,,,,,,,,,a,1,5.4343,"[""0.186"",""0.498"",""0.876"",""0.779""]","[1,1,1,0]",0,3,3,3,1,0,1,,,0,FALSE,,,,,,,,,,,,,,,,,,,,,,,,,,,,,,
,5c6219e169375500012329d9,001,2022-04-29_03h09.20.994,classification_task,2021.2.3,Win32,60.03121623,5c6219e169375500012329d9,626b377229c10585ec392f89,626b3ab1856ab59e38b0bad8,,,,,,,,,,,,,,,,,,,,,,,l,1,2.7174,"[""0.792"",""0.242"",""0.596"",""0.723""]","[0,1,1,1]",0,4,4,4,1,1,1,,,0,FALSE,,,,,,,,,,,,,,,,,,,,,,,,,,,,,,
,5c6219e169375500012329d9,001,2022-04-29_03h09.20.994,classification_task,2021.2.3,Win32,60.03121623,5c6219e169375500012329d9,626b377229c10585ec392f89,626b3ab1856ab59e38b0bad8,,,,,,,,,,,,,,,,,,,,,,,a,1,2.7666,"[""0.806"",""0.498"",""0.876"",""0.914""]","[0,1,1,1]",0,5,5,5,1,0,1,,,0,FALSE,,,,,,,,,,,,,,,,,,,,,,,,,,,,,,
,5c6219e169375500012329d9,001,2022-04-29_03h09.20.994,classification_task,2021.2.3,Win32,60.03121623,5c6219e169375500012329d9,626b377229c10585ec392f89,626b3ab1856ab59e38b0bad8,,,,,,,,,,,,,,,,,,,,,,,a,1,4.3159,"[""0.306"",""0.682"",""0.643"",""0.954""]","[1,0,1,1]",0,6,6,6,1,0,0,,,0,FALSE,,,,,,,,,,,,,,,,,,,,,,,,,,,,,,
,5c6219e169375500012329d9,001,2022-04-29_03h09.20.994,classification_task,2021.2.3,Win32,60.03121623,5c6219e169375500012329d9,626b377229c10585ec392f89,626b3ab1856ab59e38b0bad8,,,,,,,,,,,,,,,,,,,,,,,l,0,6.5676,"[""0.186"",""0.086"",""0.876"",""0.914""]","[1,0,1,1]",0,7,7,7,1,0,1,,,0,FALSE,,,,,,,,,,,,,,,,,,,,,,,,,,,,,,
,5c6219e169375500012329d9,001,2022-04-29_03h09.20.994,classification_task,2021.2.3,Win32,60.03121623,5c6219e169375500012329d9,626b377229c10585ec392f89,626b3ab1856ab59e38b0bad8,,,,,,,,,,,,,,,,,,,,,,,l,1,4.8504,"[""0.027"",""0.376"",""0.552"",""0.792""]","[1,1,1,0]",0,8,8,8,1,1,0,,,0,FALSE,,,,,,,,,,,,,,,,,,,,,,,,,,,,,,
,5c6219e169375500012329d9,001,2022-04-29_03h09.20.994,classification_task,2021.2.3,Win32,60.03121623,5c6219e169375500012329d9,626b377229c10585ec392f89,626b3ab1856ab59e38b0bad8,,,,,,,,,,,,,,,,,,,,,,,l,0,4.983,"[""0.107"",""0.427"",""0.643"",""0.954""]","[0,1,1,1]",0,9,9,9,1,0,0,,,0,FALSE,,,,,,,,,,,,,,,,,,,,,,,,,,,,,,
,5c6219e169375500012329d9,001,2022-04-29_03h09.20.994,classification_task,2021.2.3,Win32,60.03121623,5c6219e169375500012329d9,626b377229c10585ec392f89,626b3ab1856ab59e38b0bad8,,,,,,,,,,,,,,,,,,,,,,,l,1,4.6355,"[""0.027"",""0.376"",""0.768"",""0.841""]","[1,1,0,1]",0,10,10,10,1,1,0,,,0,FALSE,,,,,,,,,,,,,,,,,,,,,,,,,,,,,,
,5c6219e169375500012329d9,001,2022-04-29_03h09.20.994,classification_task,2021.2.3,Win32,60.03121623,5c6219e169375500012329d9,626b377229c10585ec392f89,626b3ab1856ab59e38b0bad8,,,,,,,,,,,,,,,,,,,,,,,a,1,4.9169,"[""0.186"",""0.498"",""0.793"",""0.914""]","[1,1,0,1]",0,11,11,11,1,0,1,,,0,FALSE,,,,,,,,,,,,,,,,,,,,,,,,,,,,,,
,5c6219e169375500012329d9,001,2022-04-29_03h09.20.994,classification_task,2021.2.3,Win32,60.03121623,5c6219e169375500012329d9,626b377229c10585ec392f89,626b3ab1856ab59e38b0bad8,,,,,,,,,,,,,,,,,,,,,,,l,1,7.0856,"[""0.027"",""0.779"",""0.552"",""0.841""]","[1,0,1,1]",0,12,12,12,1,1,0,,,0,FALSE,,,,,,,,,,,,,,,,,,,,,,,,,,,,,,
,5c6219e169375500012329d9,001,2022-04-29_03h09.20.994,classification_task,2021.2.3,Win32,60.03121623,5c6219e169375500012329d9,626b377229c10585ec392f89,626b3ab1856ab59e38b0bad8,,,,,,,,,,,,,,,,,,,,,,,l,1,3.9172,"[""0.142"",""0.779"",""0.596"",""0.723""]","[1,0,1,1]",0,13,13,13,1,1,1,,,0,FALSE,,,,,,,,,,,,,,,,,,,,,,,,,,,,,,
,5c6219e169375500012329d9,001,2022-04-29_03h09.20.994,classification_task,2021.2.3,Win32,60.03121623,5c6219e169375500012329d9,626b377229c10585ec392f89,626b3ab1856ab59e38b0bad8,,,,,,,,,,,,,,,,,,,,,,,,0,,"[""0.306"",""0.427"",""0.643"",""0.071""]","[1,1,1,0]",0,14,14,14,1,0,0,,,0,FALSE,,,,,,,,,,,,,,,,,,,,,,,,,,,,,,
,5c6219e169375500012329d9,001,2022-04-29_03h09.20.994,classification_task,2021.2.3,Win32,60.03121623,5c6219e169375500012329d9,626b377229c10585ec392f89,626b3ab1856ab59e38b0bad8,,,,,,,,,,,,,,,,,,,,,,,l,1,6.7006,"[""0.142"",""0.242"",""0.596"",""0.779""]","[1,1,1,0]",0,15,15,15,1,1,1,,,0,FALSE,,,,,,,,,,,,,,,,,,,,,,,,,,,,,,
,5c6219e169375500012329d9,001,2022-04-29_03h09.20.994,classification_task,2021.2.3,Win32,60.03121623,5c6219e169375500012329d9,626b377229c10585ec392f89,626b3ab1856ab59e38b0bad8,,,,,,,,,,,,,,,,,,,,,,,,0,,"[""0.142"",""0.085"",""0.596"",""0.723""]","[1,0,1,1]",0,16,16,16,1,1,1,,,0,FALSE,,,,,,,,,,,,,,,,,,,,,,,,,,,,,,
,5c6219e169375500012329d9,001,2022-04-29_03h09.20.994,classification_task,2021.2.3,Win32,60.03121623,5c6219e169375500012329d9,626b377229c10585ec392f89,626b3ab1856ab59e38b0bad8,,,,,,,,,,,,,,,,,,,,,,,l,1,8.2377,"[""0.793"",""0.376"",""0.552"",""0.841""]","[0,1,1,1]",0,17,17,17,1,1,0,,,0,FALSE,,,,,,,,,,,,,,,,,,,,,,,,,,,,,,
,5c6219e169375500012329d9,001,2022-04-29_03h09.20.994,classification_task,2021.2.3,Win32,60.03121623,5c6219e169375500012329d9,626b377229c10585ec392f89,626b3ab1856ab59e38b0bad8,,,,,,,,,,,,,,,,,,,,,,,l,1,3.2669,"[""0.027"",""0.376"",""0.464"",""0.841""]","[1,1,0,1]",0,18,18,18,1,1,0,,,0,FALSE,,,,,,,,,,,,,,,,,,,,,,,,,,,,,,
,5c6219e169375500012329d9,001,2022-04-29_03h09.20.994,classification_task,2021.2.3,Win32,60.03121623,5c6219e169375500012329d9,626b377229c10585ec392f89,626b3ab1856ab59e38b0bad8,,,,,,,,,,,,,,,,,,,,,,,l,1,3.0879,"[""0.027"",""0.793"",""0.552"",""0.841""]","[1,0,1,1]",0,19,19,19,1,1,0,,,0,FALSE,,,,,,,,,,,,,,,,,,,,,,,,,,,,,,
,5c6219e169375500012329d9,001,2022-04-29_03h09.20.994,classification_task,2021.2.3,Win32,60.03121623,5c6219e169375500012329d9,626b377229c10585ec392f89,626b3ab1856ab59e38b0bad8,,,,,,,,,,,,,,,,,,,,,,,a,1,8.4505,"[""0.306"",""0.086"",""0.643"",""0.954""]","[1,0,1,1]",0,20,20,20,1,0,0,,,0,FALSE,,,,,,,,,,,,,,,,,,,,,,,,,,,,,,
,5c6219e169375500012329d9,001,2022-04-29_03h09.20.994,classification_task,2021.2.3,Win32,60.03121623,5c6219e169375500012329d9,626b377229c10585ec392f89,626b3ab1856ab59e38b0bad8,,,,,,,,,,,,,,,,,,,,,,,,0,,"[""0.767"",""0.242"",""0.596"",""0.723""]","[0,1,1,1]",0,21,21,21,1,1,1,,,0,FALSE,,,,,,,,,,,,,,,,,,,,,,,,,,,,,,
,5c6219e169375500012329d9,001,2022-04-29_03h09.20.994,classification_task,2021.2.3,Win32,60.03121623,5c6219e169375500012329d9,626b377229c10585ec392f89,626b3ab1856ab59e38b0bad8,,,,,,,,,,,,,,,,,,,,,,,a,1,6.4206,"[""0.306"",""0.427"",""0.643"",""0.071""]","[1,1,1,0]",0,22,22,22,1,0,0,,,0,FALSE,,,,,,,,,,,,,,,,,,,,,,,,,,,,,,
,5c6219e169375500012329d9,001,2022-04-29_03h09.20.994,classification_task,2021.2.3,Win32,60.03121623,5c6219e169375500012329d9,626b377229c10585ec392f89,626b3ab1856ab59e38b0bad8,,,,,,,,,,,,,,,,,,,,,,,a,1,5.967,"[""0.186"",""0.498"",""0.876"",""0.806""]","[1,1,1,0]",0,23,23,23,1,0,1,,,0,FALSE,,,,,,,,,,,,,,,,,,,,,,,,,,,,,,
,5c6219e169375500012329d9,001,2022-04-29_03h09.20.994,classification_task,2021.2.3,Win32,60.03121623,5c6219e169375500012329d9,626b377229c10585ec392f89,626b3ab1856ab59e38b0bad8,,,,,,,,,,,,,,,,,,,,,,,a,1,2.2796,"[""0.186"",""0.071"",""0.876"",""0.914""]","[1,0,1,1]",0,24,24,24,1,0,1,,,0,FALSE,,,,,,,,,,,,,,,,,,,,,,,,,,,,,,
,5c6219e169375500012329d9,001,2022-04-29_03h09.20.994,classification_task,2021.2.3,Win32,60.03121623,5c6219e169375500012329d9,626b377229c10585ec392f89,626b3ab1856ab59e38b0bad8,,,,,,,,,,,,,,,,,,,,,,,a,0,6.2006,"[""0.027"",""0.376"",""0.552"",""0.768""]","[1,1,1,0]",0,25,25,25,1,1,0,,,0,FALSE,,,,,,,,,,,,,,,,,,,,,,,,,,,,,,
,5c6219e169375500012329d9,001,2022-04-29_03h09.20.994,classification_task,2021.2.3,Win32,60.03121623,5c6219e169375500012329d9,626b377229c10585ec392f89,626b3ab1856ab59e38b0bad8,,,,,,,,,,,,,,,,,,,,,,,a,1,6.2507,"[""0.779"",""0.498"",""0.876"",""0.914""]","[0,1,1,1]",0,26,26,26,1,0,1,,,0,FALSE,,,,,,,,,,,,,,,,,,,,,,,,,,,,,,
,5c6219e169375500012329d9,001,2022-04-29_03h09.20.994,classification_task,2021.2.3,Win32,60.03121623,5c6219e169375500012329d9,626b377229c10585ec392f89,626b3ab1856ab59e38b0bad8,,,,,,,,,,,,,,,,,,,,,,,l,0,4.1708,"[""0.186"",""0.498"",""0.107"",""0.914""]","[1,1,0,1]",0,27,27,27,1,0,1,,,0,FALSE,,,,,,,,,,,,,,,,,,,,,,,,,,,,,,
,5c6219e169375500012329d9,001,2022-04-29_03h09.20.994,classification_task,2021.2.3,Win32,60.03121623,5c6219e169375500012329d9,626b377229c10585ec392f89,626b3ab1856ab59e38b0bad8,,,,,,,,,,,,,,,,,,,,,,,l,1,6.8996,"[""0.142"",""0.242"",""0.596"",""0.682""]","[1,1,1,0]",0,28,28,28,1,1,1,,,0,FALSE,,,,,,,,,,,,,,,,,,,,,,,,,,,,,,
,5c6219e169375500012329d9,001,2022-04-29_03h09.20.994,classification_task,2021.2.3,Win32,60.03121623,5c6219e169375500012329d9,626b377229c10585ec392f89,626b3ab1856ab59e38b0bad8,,,,,,,,,,,,,,,,,,,,,,,a,1,3.1003,"[""0.793"",""0.427"",""0.643"",""0.954""]","[0,1,1,1]",0,29,29,29,1,0,0,,,0,FALSE,,,,,,,,,,,,,,,,,,,,,,,,,,,,,,
,5c6219e169375500012329d9,001,2022-04-29_03h09.20.994,classification_task,2021.2.3,Win32,60.03121623,5c6219e169375500012329d9,626b377229c10585ec392f89,626b3ab1856ab59e38b0bad8,,,,,,,,,,,,,,,,,,,,,,,a,1,2.571,"[""0.306"",""0.427"",""0.792"",""0.954""]","[1,1,0,1]",0,30,30,30,1,0,0,,,0,FALSE,,,,,,,,,,,,,,,,,,,,,,,,,,,,,,
,5c6219e169375500012329d9,001,2022-04-29_03h09.20.994,classification_task,2021.2.3,Win32,60.03121623,5c6219e169375500012329d9,626b377229c10585ec392f89,626b3ab1856ab59e38b0bad8,,,,,,,,,,,,,,,,,,,,,,,l,1,4.9687,"[""0.142"",""0.242"",""0.779"",""0.723""]","[1,1,0,1]",0,31,31,31,1,1,1,,,0,FALSE,,,,,,,,,,,,,,,,,,,,,,,,,,,,,,
,5c6219e169375500012329d9,001,2022-04-29_03h09.20.994,classification_task,2021.2.3,Win32,60.03121623,5c6219e169375500012329d9,626b377229c10585ec392f89,626b3ab1856ab59e38b0bad8,,,,,,,,,,,,,,,,,,,,,,,a,0,6.9842,"[""0.806"",""0.242"",""0.596"",""0.723""]","[0,1,1,1]",0,32,32,32,1,1,1,,,0,FALSE,,,,,,,,,,,,,,,,,,,,,,,,,,,,,,
,5c6219e169375500012329d9,001,2022-04-29_03h09.20.994,classification_task,2021.2.3,Win32,60.03121623,5c6219e169375500012329d9,626b377229c10585ec392f89,626b3ab1856ab59e38b0bad8,,,,,,,,,,,,,,,,,,,,,,,a,1,4.7839,"[""0.306"",""0.427"",""0.767"",""0.954""]","[1,1,0,1]",0,33,33,33,1,0,0,,,0,FALSE,,,,,,,,,,,,,,,,,,,,,,,,,,,,,,
,5c6219e169375500012329d9,001,2022-04-29_03h09.20.994,classification_task,2021.2.3,Win32,60.03121623,5c6219e169375500012329d9,626b377229c10585ec392f89,626b3ab1856ab59e38b0bad8,,,,,,,,,,,,,,,,,,,,,,,l,0,3.199,"[""0.107"",""0.427"",""0.643"",""0.954""]","[0,1,1,1]",0,34,34,34,1,0,0,,,0,FALSE,,,,,,,,,,,,,,,,,,,,,,,,,,,,,,
,5c6219e169375500012329d9,001,2022-04-29_03h09.20.994,classification_task,2021.2.3,Win32,60.03121623,5c6219e169375500012329d9,626b377229c10585ec392f89,626b3ab1856ab59e38b0bad8,,,,,,,,,,,,,,,,,,,,,,,l,1,3.004,"[""0.027"",""0.376"",""0.552"",""0.779""]","[1,1,1,0]",0,35,35,35,1,1,0,,,0,FALSE,,,,,,,,,,,,,,,,,,,,,,,,,,,,,,
,5c6219e169375500012329d9,001,2022-04-29_03h09.20.994,classification_task,2021.2.3,Win32,60.03121623,5c6219e169375500012329d9,626b377229c10585ec392f89,626b3ab1856ab59e38b0bad8,,,,,,,,,,,,,,,,,,,,,,,l,1,3.787,"[""0.027"",""0.376"",""0.779"",""0.841""]","[1,1,0,1]",0,36,36,36,1,1,0,,,0,FALSE,,,,,,,,,,,,,,,,,,,,,,,,,,,,,,
,5c6219e169375500012329d9,001,2022-04-29_03h09.20.994,classification_task,2021.2.3,Win32,60.03121623,5c6219e169375500012329d9,626b377229c10585ec392f89,626b3ab1856ab59e38b0bad8,,,,,,,,,,,,,,,,,,,,,,,a,1,3.3822,"[""0.793"",""0.498"",""0.876"",""0.914""]","[0,1,1,1]",0,37,37,37,1,0,1,,,0,FALSE,,,,,,,,,,,,,,,,,,,,,,,,,,,,,,
,5c6219e169375500012329d9,001,2022-04-29_03h09.20.994,classification_task,2021.2.3,Win32,60.03121623,5c6219e169375500012329d9,626b377229c10585ec392f89,626b3ab1856ab59e38b0bad8,,,,,,,,,,,,,,,,,,,,,,,a,0,3.5336,"[""0.142"",""0.242"",""0.792"",""0.723""]","[1,1,0,1]",0,38,38,38,1,1,1,,,0,FALSE,,,,,,,,,,,,,,,,,,,,,,,,,,,,,,
,5c6219e169375500012329d9,001,2022-04-29_03h09.20.994,classification_task,2021.2.3,Win32,60.03121623,5c6219e169375500012329d9,626b377229c10585ec392f89,626b3ab1856ab59e38b0bad8,,,,,,,,,,,,,,,,,,,,,,,a,1,2.9668,"[""0.186"",""0.768"",""0.876"",""0.914""]","[1,0,1,1]",0,39,39,39,1,0,1,,,0,FALSE,,,,,,,,,,,,,,,,,,,,,,,,,,,,,,
,5c6219e169375500012329d9,001,2022-04-29_03h09.20.994,classification_task,2021.2.3,Win32,60.03121623,5c6219e169375500012329d9,626b377229c10585ec392f89,626b3ab1856ab59e38b0bad8,,,,,,,,,,,,,,,,,,,,,,,l,1,2.5504,"[""0.027"",""0.085"",""0.552"",""0.841""]","[1,0,1,1]",0,40,40,40,1,1,0,,,0,FALSE,,,,,,,,,,,,,,,,,,,,,,,,,,,,,,
,5c6219e169375500012329d9,001,2022-04-29_03h09.20.994,classification_task,2021.2.3,Win32,60.03121623,5c6219e169375500012329d9,626b377229c10585ec392f89,626b3ab1856ab59e38b0bad8,,,,,,,,,,,,,,,,,,,,,,,l,1,2.917,"[""0.142"",""0.242"",""0.596"",""0.768""]","[1,1,1,0]",0,41,41,41,1,1,1,,,0,FALSE,,,,,,,,,,,,,,,,,,,,,,,,,,,,,,
,5c6219e169375500012329d9,001,2022-04-29_03h09.20.994,classification_task,2021.2.3,Win32,60.03121623,5c6219e169375500012329d9,626b377229c10585ec392f89,626b3ab1856ab59e38b0bad8,,,,,,,,,,,,,,,,,,,,,,,a,1,1.8502,"[""0.306"",""0.427"",""0.643"",""0.806""]","[1,1,1,0]",0,42,42,42,1,0,0,,,0,FALSE,,,,,,,,,,,,,,,,,,,,,,,,,,,,,,
,5c6219e169375500012329d9,001,2022-04-29_03h09.20.994,classification_task,2021.2.3,Win32,60.03121623,5c6219e169375500012329d9,626b377229c10585ec392f89,626b3ab1856ab59e38b0bad8,,,,,,,,,,,,,,,,,,,,,,,a,0,0.851,"[""0.464"",""0.376"",""0.552"",""0.841""]","[0,1,1,1]",0,43,43,43,1,1,0,,,0,FALSE,,,,,,,,,,,,,,,,,,,,,,,,,,,,,,
,5c6219e169375500012329d9,001,2022-04-29_03h09.20.994,classification_task,2021.2.3,Win32,60.03121623,5c6219e169375500012329d9,626b377229c10585ec392f89,626b3ab1856ab59e38b0bad8,,,,,,,,,,,,,,,,,,,,,,,a,1,2.3671,"[""0.186"",""0.498"",""0.792"",""0.914""]","[1,1,0,1]",0,44,44,44,1,0,1,,,0,FALSE,,,,,,,,,,,,,,,,,,,,,,,,,,,,,,
,5c6219e169375500012329d9,001,2022-04-29_03h09.20.994,classification_task,2021.2.3,Win32,60.03121623,5c6219e169375500012329d9,626b377229c10585ec392f89,626b3ab1856ab59e38b0bad8,,,,,,,,,,,,,,,,,,,,,,,a,1,2.0837,"[""0.306"",""0.086"",""0.643"",""0.954""]","[1,0,1,1]",0,45,45,45,1,0,0,,,0,FALSE,,,,,,,,,,,,,,,,,,,,,,,,,,,,,,
,5c6219e169375500012329d9,001,2022-04-29_03h09.20.994,classification_task,2021.2.3,Win32,60.03121623,5c6219e169375500012329d9,626b377229c10585ec392f89,626b3ab1856ab59e38b0bad8,,,,,,,,,,,,,,,,,,,,,,,a,0,2.7843,"[""0.142"",""0.085"",""0.596"",""0.723""]","[1,0,1,1]",0,46,46,46,1,1,1,,,0,FALSE,,,,,,,,,,,,,,,,,,,,,,,,,,,,,,
,5c6219e169375500012329d9,001,2022-04-29_03h09.20.994,classification_task,2021.2.3,Win32,60.03121623,5c6219e169375500012329d9,626b377229c10585ec392f89,626b3ab1856ab59e38b0bad8,,,,,,,,,,,,,,,,,,,,,,,a,1,2.1545,"[""0.186"",""0.498"",""0.876"",""0.793""]","[1,1,1,0]",0,47,47,47,1,0,1,,,0,FALSE,,,,,,,,,,,,,,,,,,,,,,,,,,,,,,
,5c6219e169375500012329d9,001,2022-04-29_03h09.20.994,classification_task,2021.2.3,Win32,60.03121623,5c6219e169375500012329d9,626b377229c10585ec392f89,626b3ab1856ab59e38b0bad8,,,,,,,,,,,,,,,,,,,,,,,a,0,4.1209,"[""0.142"",""0.242"",""0.596"",""0.071""]","[1,1,1,0]",0,48,48,48,1,1,1,,,0,FALSE,,,,,,,,,,,,,,,,,,,,,,,,,,,,,,
,5c6219e169375500012329d9,001,2022-04-29_03h09.20.994,classification_task,2021.2.3,Win32,60.03121623,5c6219e169375500012329d9,626b377229c10585ec392f89,626b3ab1856ab59e38b0bad8,,,,,,,,,,,,,,,,,,,,,,,l,0,1.3836,"[""0.779"",""0.427"",""0.643"",""0.954""]","[0,1,1,1]",0,49,49,49,1,0,0,,,0,FALSE,,,,,,,,,,,,,,,,,,,,,,,,,,,,,,
,5c6219e169375500012329d9,001,2022-04-29_03h09.20.994,classification_task,2021.2.3,Win32,60.03121623,5c6219e169375500012329d9,626b377229c10585ec392f89,626b3ab1856ab59e38b0bad8,,,,,,,,,,,,,,,,,,,,,,,a,0,3.0836,"[""0.806"",""0.242"",""0.596"",""0.723""]","[0,1,1,1]",0,50,50,50,1,1,1,,,0,FALSE,,,,,,,,,,,,,,,,,,,,,,,,,,,,,,
,5c6219e169375500012329d9,001,2022-04-29_03h09.20.994,classification_task,2021.2.3,Win32,60.03121623,5c6219e169375500012329d9,626b377229c10585ec392f89,626b3ab1856ab59e38b0bad8,,,,,,,,,,,,,,,,,,,,,,,l,1,1.2702,"[""0.027"",""0.682"",""0.552"",""0.841""]","[1,0,1,1]",0,51,51,51,1,1,0,,,0,FALSE,,,,,,,,,,,,,,,,,,,,,,,,,,,,,,
,5c6219e169375500012329d9,001,2022-04-29_03h09.20.994,classification_task,2021.2.3,Win32,60.03121623,5c6219e169375500012329d9,626b377229c10585ec392f89,626b3ab1856ab59e38b0bad8,,,,,,,,,,,,,,,,,,,,,,,a,1,4.95,"[""0.306"",""0.085"",""0.643"",""0.954""]","[1,0,1,1]",0,52,52,52,1,0,0,,,0,FALSE,,,,,,,,,,,,,,,,,,,,,,,,,,,,,,
,5c6219e169375500012329d9,001,2022-04-29_03h09.20.994,classification_task,2021.2.3,Win32,60.03121623,5c6219e169375500012329d9,626b377229c10585ec392f89,626b3ab1856ab59e38b0bad8,,,,,,,,,,,,,,,,,,,,,,,a,0,1.634,"[""0.142"",""0.242"",""0.793"",""0.723""]","[1,1,0,1]",0,53,53,53,1,1,1,,,0,FALSE,,,,,,,,,,,,,,,,,,,,,,,,,,,,,,
,5c6219e169375500012329d9,001,2022-04-29_03h09.20.994,classification_task,2021.2.3,Win32,60.03121623,5c6219e169375500012329d9,626b377229c10585ec392f89,626b3ab1856ab59e38b0bad8,,,,,,,,,,,,,,,,,,,,,,,l,1,1.3687,"[""0.793"",""0.376"",""0.552"",""0.841""]","[0,1,1,1]",0,54,54,54,1,1,0,,,0,FALSE,,,,,,,,,,,,,,,,,,,,,,,,,,,,,,
,5c6219e169375500012329d9,001,2022-04-29_03h09.20.994,classification_task,2021.2.3,Win32,60.03121623,5c6219e169375500012329d9,626b377229c10585ec392f89,626b3ab1856ab59e38b0bad8,,,,,,,,,,,,,,,,,,,,,,,l,0,4.3167,"[""0.186"",""0.498"",""0.806"",""0.914""]","[1,1,0,1]",0,55,55,55,1,0,1,,,0,FALSE,,,,,,,,,,,,,,,,,,,,,,,,,,,,,,
,5c6219e169375500012329d9,001,2022-04-29_03h09.20.994,classification_task,2021.2.3,Win32,60.03121623,5c6219e169375500012329d9,626b377229c10585ec392f89,626b3ab1856ab59e38b0bad8,,,,,,,,,,,,,,,,,,,,,,,l,1,1.3338,"[""0.027"",""0.376"",""0.552"",""0.071""]","[1,1,1,0]",0,56,56,56,1,1,0,,,0,FALSE,,,,,,,,,,,,,,,,,,,,,,,,,,,,,,
,5c6219e169375500012329d9,001,2022-04-29_03h09.20.994,classification_task,2021.2.3,Win32,60.03121623,5c6219e169375500012329d9,626b377229c10585ec392f89,626b3ab1856ab59e38b0bad8,,,,,,,,,,,,,,,,,,,,,,,l,0,1.7677,"[""0.186"",""0.498"",""0.876"",""0.779""]","[1,1,1,0]",0,57,57,57,1,0,1,,,0,FALSE,,,,,,,,,,,,,,,,,,,,,,,,,,,,,,
,5c6219e169375500012329d9,001,2022-04-29_03h09.20.994,classification_task,2021.2.3,Win32,60.03121623,5c6219e169375500012329d9,626b377229c10585ec392f89,626b3ab1856ab59e38b0bad8,,,,,,,,,,,,,,,,,,,,,,,l,0,1.4454,"[""0.186"",""0.071"",""0.876"",""0.914""]","[1,0,1,1]",0,58,58,58,1,0,1,,,0,FALSE,,,,,,,,,,,,,,,,,,,,,,,,,,,,,,
,5c6219e169375500012329d9,001,2022-04-29_03h09.20.994,classification_task,2021.2.3,Win32,60.03121623,5c6219e169375500012329d9,626b377229c10585ec392f89,626b3ab1856ab59e38b0bad8,,,,,,,,,,,,,,,,,,,,,,,l,0,4.5506,"[""0.306"",""0.427"",""0.767"",""0.954""]","[1,1,0,1]",0,59,59,59,1,0,0,,,0,FALSE,,,,,,,,,,,,,,,,,,,,,,,,,,,,,,
,5c6219e169375500012329d9,001,2022-04-29_03h09.20.994,classification_task,2021.2.3,Win32,60.03121623,5c6219e169375500012329d9,626b377229c10585ec392f89,626b3ab1856ab59e38b0bad8,,,,,,,,,,,,,,,,,,,,,,,l,1,1.0172,"[""0.142"",""0.768"",""0.596"",""0.723""]","[1,0,1,1]",0,60,60,60,1,1,1,,,0,FALSE,,,,,,,,,,,,,,,,,,,,,,,,,,,,,,
,5c6219e169375500012329d9,001,2022-04-29_03h09.20.994,classification_task,2021.2.3,Win32,60.03121623,5c6219e169375500012329d9,626b377229c10585ec392f89,626b3ab1856ab59e38b0bad8,,,,,,,,,,,,,,,,,,,,,,,a,1,1.6037,"[""0.792"",""0.498"",""0.876"",""0.914""]","[0,1,1,1]",0,61,61,61,1,0,1,,,0,FALSE,,,,,,,,,,,,,,,,,,,,,,,,,,,,,,
,5c6219e169375500012329d9,001,2022-04-29_03h09.20.994,classification_task,2021.2.3,Win32,60.03121623,5c6219e169375500012329d9,626b377229c10585ec392f89,626b3ab1856ab59e38b0bad8,,,,,,,,,,,,,,,,,,,,,,,a,0,1.6542,"[""0.027"",""0.376"",""0.806"",""0.841""]","[1,1,0,1]",0,62,62,62,1,1,0,,,0,FALSE,,,,,,,,,,,,,,,,,,,,,,,,,,,,,,
,5c6219e169375500012329d9,001,2022-04-29_03h09.20.994,classification_task,2021.2.3,Win32,60.03121623,5c6219e169375500012329d9,626b377229c10585ec392f89,626b3ab1856ab59e38b0bad8,,,,,,,,,,,,,,,,,,,,,,,a,1,1.4341,"[""0.306"",""0.427"",""0.643"",""0.793""]","[1,1,1,0]",0,63,63,63,1,0,0,,,0,FALSE,,,,,,,,,,,,,,,,,,,,,,,,,,,,,,
,5c6219e169375500012329d9,001,2022-04-29_03h09.20.994,classification_task,2021.2.3,Win32,60.03121623,5c6219e169375500012329d9,626b377229c10585ec392f89,626b3ab1856ab59e38b0bad8,,,,,,,,,,,,,,,,,,,,,,,,,,,,,,,,,,,,,,,0, ,,0,3.848716441,585.0347,0,0,0,0,1,2,1,,,,,,,,,,,,,,,,,
,5c6219e169375500012329d9,001,2022-04-29_03h09.20.994,classification_task,2021.2.3,Win32,60.03121623,5c6219e169375500012329d9,626b377229c10585ec392f89,626b3ab1856ab59e38b0bad8,,,,,,,,,,,,,,,,,,,,,,,,,,,,,,,,,,,,,,,1,  ,,0,0.443856555,592.0957,0,0,0,0,1,2,1,,,,,,,,,,,,,,,,,
,5c6219e169375500012329d9,001,2022-04-29_03h09.20.994,classification_task,2021.2.3,Win32,60.03121623,5c6219e169375500012329d9,626b377229c10585ec392f89,626b3ab1856ab59e38b0bad8,,,,,,,,,,,,,,,,,,,,,,,,,,,,,,,,,,,,,,,2,  ,,0,1.007250637,600.4171,0,0,0,0,1,2,1,,,,,,,,,,,,,,,,,
,5c6219e169375500012329d9,001,2022-04-29_03h09.20.994,classification_task,2021.2.3,Win32,60.03121623,5c6219e169375500012329d9,626b377229c10585ec392f89,626b3ab1856ab59e38b0bad8,,,,,,,,,,,,,,,,,,,,,,,,,,,,,,,,,,,,,,,,,,,,,0,0,0,0,1,,1,,,,,,,,,,,,,,,,,
,5c6219e169375500012329d9,001,2022-04-29_03h09.20.994,classification_task,2021.2.3,Win32,60.03121623,5c6219e169375500012329d9,626b377229c10585ec392f89,626b3ab1856ab59e38b0bad8,,,,,,,,,,,,,,,,,,,,,space,18.8308,l,1,5.0027,"[""0.142"",""0.242"",""0.767"",""0.723""]","[1,1,0,1]",0,0,0,0,1,1,1,,,0,FALSE,,,,,,,,,,,,,,,,,,,,,,,,,,,,,,
,5c6219e169375500012329d9,001,2022-04-29_03h09.20.994,classification_task,2021.2.3,Win32,60.03121623,5c6219e169375500012329d9,626b377229c10585ec392f89,626b3ab1856ab59e38b0bad8,,,,,,,,,,,,,,,,,,,,,,,a,0,2.1149,"[""0.142"",""0.242"",""0.596"",""0.085""]","[1,1,1,0]",0,1,1,1,1,1,1,,,0,FALSE,,,,,,,,,,,,,,,,,,,,,,,,,,,,,,
,5c6219e169375500012329d9,001,2022-04-29_03h09.20.994,classification_task,2021.2.3,Win32,60.03121623,5c6219e169375500012329d9,626b377229c10585ec392f89,626b3ab1856ab59e38b0bad8,,,,,,,,,,,,,,,,,,,,,,,l,0,9.1835,"[""0.186"",""0.498"",""0.779"",""0.914""]","[1,1,0,1]",0,2,2,2,1,0,1,,,0,FALSE,,,,,,,,,,,,,,,,,,,,,,,,,,,,,,
,5c6219e169375500012329d9,001,2022-04-29_03h09.20.994,classification_task,2021.2.3,Win32,60.03121623,5c6219e169375500012329d9,626b377229c10585ec392f89,626b3ab1856ab59e38b0bad8,,,,,,,,,,,,,,,,,,,,,,,l,0,5.3338,"[""0.306"",""0.427"",""0.643"",""0.793""]","[1,1,1,0]",0,3,3,3,1,0,0,,,0,FALSE,,,,,,,,,,,,,,,,,,,,,,,,,,,,,,
,5c6219e169375500012329d9,001,2022-04-29_03h09.20.994,classification_task,2021.2.3,Win32,60.03121623,5c6219e169375500012329d9,626b377229c10585ec392f89,626b3ab1856ab59e38b0bad8,,,,,,,,,,,,,,,,,,,,,,,a,0,1.0185,"[""0.027"",""0.376"",""0.779"",""0.841""]","[1,1,0,1]",0,4,4,4,1,1,0,,,0,FALSE,,,,,,,,,,,,,,,,,,,,,,,,,,,,,,
,5c6219e169375500012329d9,001,2022-04-29_03h09.20.994,classification_task,2021.2.3,Win32,60.03121623,5c6219e169375500012329d9,626b377229c10585ec392f89,626b3ab1856ab59e38b0bad8,,,,,,,,,,,,,,,,,,,,,,,l,1,5.9914,"[""0.027"",""0.107"",""0.552"",""0.841""]","[1,0,1,1]",0,5,5,5,1,1,0,,,0,FALSE,,,,,,,,,,,,,,,,,,,,,,,,,,,,,,
,5c6219e169375500012329d9,001,2022-04-29_03h09.20.994,classification_task,2021.2.3,Win32,60.03121623,5c6219e169375500012329d9,626b377229c10585ec392f89,626b3ab1856ab59e38b0bad8,,,,,,,,,,,,,,,,,,,,,,,a,0,3.4764,"[""0.142"",""0.806"",""0.596"",""0.723""]","[1,0,1,1]",0,6,6,6,1,1,1,,,0,FALSE,,,,,,,,,,,,,,,,,,,,,,,,,,,,,,
,5c6219e169375500012329d9,001,2022-04-29_03h09.20.994,classification_task,2021.2.3,Win32,60.03121623,5c6219e169375500012329d9,626b377229c10585ec392f89,626b3ab1856ab59e38b0bad8,,,,,,,,,,,,,,,,,,,,,,,l,0,1.0439,"[""0.186"",""0.498"",""0.876"",""0.792""]","[1,1,1,0]",0,7,7,7,1,0,1,,,0,FALSE,,,,,,,,,,,,,,,,,,,,,,,,,,,,,,
,5c6219e169375500012329d9,001,2022-04-29_03h09.20.994,classification_task,2021.2.3,Win32,60.03121623,5c6219e169375500012329d9,626b377229c10585ec392f89,626b3ab1856ab59e38b0bad8,,,,,,,,,,,,,,,,,,,,,,,a,1,5.1246,"[""0.306"",""0.793"",""0.643"",""0.954""]","[1,0,1,1]",0,8,8,8,1,0,0,,,0,FALSE,,,,,,,,,,,,,,,,,,,,,,,,,,,,,,
,5c6219e169375500012329d9,001,2022-04-29_03h09.20.994,classification_task,2021.2.3,Win32,60.03121623,5c6219e169375500012329d9,626b377229c10585ec392f89,626b3ab1856ab59e38b0bad8,,,,,,,,,,,,,,,,,,,,,,,l,0,2.8262,"[""0.085"",""0.427"",""0.643"",""0.954""]","[0,1,1,1]",0,9,9,9,1,0,0,,,0,FALSE,,,,,,,,,,,,,,,,,,,,,,,,,,,,,,
,5c6219e169375500012329d9,001,2022-04-29_03h09.20.994,classification_task,2021.2.3,Win32,60.03121623,5c6219e169375500012329d9,626b377229c10585ec392f89,626b3ab1856ab59e38b0bad8,,,,,,,,,,,,,,,,,,,,,,,l,0,0.9015,"[""0.464"",""0.498"",""0.876"",""0.914""]","[0,1,1,1]",0,10,10,10,1,0,1,,,0,FALSE,,,,,,,,,,,,,,,,,,,,,,,,,,,,,,
,5c6219e169375500012329d9,001,2022-04-29_03h09.20.994,classification_task,2021.2.3,Win32,60.03121623,5c6219e169375500012329d9,626b377229c10585ec392f89,626b3ab1856ab59e38b0bad8,,,,,,,,,,,,,,,,,,,,,,,a,0,0.761,"[""0.793"",""0.242"",""0.596"",""0.723""]","[0,1,1,1]",0,11,11,11,1,1,1,,,0,FALSE,,,,,,,,,,,,,,,,,,,,,,,,,,,,,,
,5c6219e169375500012329d9,001,2022-04-29_03h09.20.994,classification_task,2021.2.3,Win32,60.03121623,5c6219e169375500012329d9,626b377229c10585ec392f89,626b3ab1856ab59e38b0bad8,,,,,,,,,,,,,,,,,,,,,,,l,0,0.4659,"[""0.186"",""0.792"",""0.876"",""0.914""]","[1,0,1,1]",0,12,12,12,1,0,1,,,0,FALSE,,,,,,,,,,,,,,,,,,,,,,,,,,,,,,
,5c6219e169375500012329d9,001,2022-04-29_03h09.20.994,classification_task,2021.2.3,Win32,60.03121623,5c6219e169375500012329d9,626b377229c10585ec392f89,626b3ab1856ab59e38b0bad8,,,,,,,,,,,,,,,,,,,,,,,l,1,0.9192,"[""0.792"",""0.376"",""0.552"",""0.841""]","[0,1,1,1]",0,13,13,13,1,1,0,,,0,FALSE,,,,,,,,,,,,,,,,,,,,,,,,,,,,,,
,5c6219e169375500012329d9,001,2022-04-29_03h09.20.994,classification_task,2021.2.3,Win32,60.03121623,5c6219e169375500012329d9,626b377229c10585ec392f89,626b3ab1856ab59e38b0bad8,,,,,,,,,,,,,,,,,,,,,,,a,0,1.994,"[""0.027"",""0.376"",""0.552"",""0.107""]","[1,1,1,0]",0,14,14,14,1,1,0,,,0,FALSE,,,,,,,,,,,,,,,,,,,,,,,,,,,,,,
,5c6219e169375500012329d9,001,2022-04-29_03h09.20.994,classification_task,2021.2.3,Win32,60.03121623,5c6219e169375500012329d9,626b377229c10585ec392f89,626b3ab1856ab59e38b0bad8,,,,,,,,,,,,,,,,,,,,,,,l,0,4.8611,"[""0.306"",""0.427"",""0.792"",""0.954""]","[1,1,0,1]",0,15,15,15,1,0,0,,,0,FALSE,,,,,,,,,,,,,,,,,,,,,,,,,,,,,,
,5c6219e169375500012329d9,001,2022-04-29_03h09.20.994,classification_task,2021.2.3,Win32,60.03121623,5c6219e169375500012329d9,626b377229c10585ec392f89,626b3ab1856ab59e38b0bad8,,,,,,,,,,,,,,,,,,,,,,,l,0,3.3444,"[""0.186"",""0.498"",""0.767"",""0.914""]","[1,1,0,1]",0,16,16,16,1,0,1,,,0,FALSE,,,,,,,,,,,,,,,,,,,,,,,,,,,,,,
,5c6219e169375500012329d9,001,2022-04-29_03h09.20.994,classification_task,2021.2.3,Win32,60.03121623,5c6219e169375500012329d9,626b377229c10585ec392f89,626b3ab1856ab59e38b0bad8,,,,,,,,,,,,,,,,,,,,,,,a,0,1.3798,"[""0.792"",""0.376"",""0.552"",""0.841""]","[0,1,1,1]",0,17,17,17,1,1,0,,,0,FALSE,,,,,,,,,,,,,,,,,,,,,,,,,,,,,,
,5c6219e169375500012329d9,001,2022-04-29_03h09.20.994,classification_task,2021.2.3,Win32,60.03121623,5c6219e169375500012329d9,626b377229c10585ec392f89,626b3ab1856ab59e38b0bad8,,,,,,,,,,,,,,,,,,,,,,,a,1,2.5369,"[""0.186"",""0.498"",""0.876"",""0.767""]","[1,1,1,0]",0,18,18,18,1,0,1,,,0,FALSE,,,,,,,,,,,,,,,,,,,,,,,,,,,,,,
,5c6219e169375500012329d9,001,2022-04-29_03h09.20.994,classification_task,2021.2.3,Win32,60.03121623,5c6219e169375500012329d9,626b377229c10585ec392f89,626b3ab1856ab59e38b0bad8,,,,,,,,,,,,,,,,,,,,,,,a,1,0.3772,"[""0.306"",""0.792"",""0.643"",""0.954""]","[1,0,1,1]",0,19,19,19,1,0,0,,,0,FALSE,,,,,,,,,,,,,,,,,,,,,,,,,,,,,,
,5c6219e169375500012329d9,001,2022-04-29_03h09.20.994,classification_task,2021.2.3,Win32,60.03121623,5c6219e169375500012329d9,626b377229c10585ec392f89,626b3ab1856ab59e38b0bad8,,,,,,,,,,,,,,,,,,,,,,,l,1,1.6021,"[""0.142"",""0.242"",""0.792"",""0.723""]","[1,1,0,1]",0,20,20,20,1,1,1,,,0,FALSE,,,,,,,,,,,,,,,,,,,,,,,,,,,,,,
,5c6219e169375500012329d9,001,2022-04-29_03h09.20.994,classification_task,2021.2.3,Win32,60.03121623,5c6219e169375500012329d9,626b377229c10585ec392f89,626b3ab1856ab59e38b0bad8,,,,,,,,,,,,,,,,,,,,,,,a,1,1.6531,"[""0.306"",""0.427"",""0.793"",""0.954""]","[1,1,0,1]",0,21,21,21,1,0,0,,,0,FALSE,,,,,,,,,,,,,,,,,,,,,,,,,,,,,,
,5c6219e169375500012329d9,001,2022-04-29_03h09.20.994,classification_task,2021.2.3,Win32,60.03121623,5c6219e169375500012329d9,626b377229c10585ec392f89,626b3ab1856ab59e38b0bad8,,,,,,,,,,,,,,,,,,,,,,,a,0,1.0393,"[""0.027"",""0.376"",""0.793"",""0.841""]","[1,1,0,1]",0,22,22,22,1,1,0,,,0,FALSE,,,,,,,,,,,,,,,,,,,,,,,,,,,,,,
,5c6219e169375500012329d9,001,2022-04-29_03h09.20.994,classification_task,2021.2.3,Win32,60.03121623,5c6219e169375500012329d9,626b377229c10585ec392f89,626b3ab1856ab59e38b0bad8,,,,,,,,,,,,,,,,,,,,,,,l,0,1.0857,"[""0.186"",""0.085"",""0.876"",""0.914""]","[1,0,1,1]",0,23,23,23,1,0,1,,,0,FALSE,,,,,,,,,,,,,,,,,,,,,,,,,,,,,,
,5c6219e169375500012329d9,001,2022-04-29_03h09.20.994,classification_task,2021.2.3,Win32,60.03121623,5c6219e169375500012329d9,626b377229c10585ec392f89,626b3ab1856ab59e38b0bad8,,,,,,,,,,,,,,,,,,,,,,,a,1,1.2416,"[""0.306"",""0.427"",""0.643"",""0.793""]","[1,1,1,0]",0,24,24,24,1,0,0,,,0,FALSE,,,,,,,,,,,,,,,,,,,,,,,,,,,,,,
,5c6219e169375500012329d9,001,2022-04-29_03h09.20.994,classification_task,2021.2.3,Win32,60.03121623,5c6219e169375500012329d9,626b377229c10585ec392f89,626b3ab1856ab59e38b0bad8,,,,,,,,,,,,,,,,,,,,,,,a,0,2.6401,"[""0.086"",""0.242"",""0.596"",""0.723""]","[0,1,1,1]",0,25,25,25,1,1,1,,,0,FALSE,,,,,,,,,,,,,,,,,,,,,,,,,,,,,,
,5c6219e169375500012329d9,001,2022-04-29_03h09.20.994,classification_task,2021.2.3,Win32,60.03121623,5c6219e169375500012329d9,626b377229c10585ec392f89,626b3ab1856ab59e38b0bad8,,,,,,,,,,,,,,,,,,,,,,,a,0,2.4107,"[""0.142"",""0.464"",""0.596"",""0.723""]","[1,0,1,1]",0,26,26,26,1,1,1,,,0,FALSE,,,,,,,,,,,,,,,,,,,,,,,,,,,,,,
,5c6219e169375500012329d9,001,2022-04-29_03h09.20.994,classification_task,2021.2.3,Win32,60.03121623,5c6219e169375500012329d9,626b377229c10585ec392f89,626b3ab1856ab59e38b0bad8,,,,,,,,,,,,,,,,,,,,,,,a,1,1.0724,"[""0.779"",""0.498"",""0.876"",""0.914""]","[0,1,1,1]",0,27,27,27,1,0,1,,,0,FALSE,,,,,,,,,,,,,,,,,,,,,,,,,,,,,,
,5c6219e169375500012329d9,001,2022-04-29_03h09.20.994,classification_task,2021.2.3,Win32,60.03121623,5c6219e169375500012329d9,626b377229c10585ec392f89,626b3ab1856ab59e38b0bad8,,,,,,,,,,,,,,,,,,,,,,,a,0,1.027,"[""0.027"",""0.376"",""0.552"",""0.779""]","[1,1,1,0]",0,28,28,28,1,1,0,,,0,FALSE,,,,,,,,,,,,,,,,,,,,,,,,,,,,,,
,5c6219e169375500012329d9,001,2022-04-29_03h09.20.994,classification_task,2021.2.3,Win32,60.03121623,5c6219e169375500012329d9,626b377229c10585ec392f89,626b3ab1856ab59e38b0bad8,,,,,,,,,,,,,,,,,,,,,,,l,0,0.7218,"[""0.767"",""0.427"",""0.643"",""0.954""]","[0,1,1,1]",0,29,29,29,1,0,0,,,0,FALSE,,,,,,,,,,,,,,,,,,,,,,,,,,,,,,
,5c6219e169375500012329d9,001,2022-04-29_03h09.20.994,classification_task,2021.2.3,Win32,60.03121623,5c6219e169375500012329d9,626b377229c10585ec392f89,626b3ab1856ab59e38b0bad8,,,,,,,,,,,,,,,,,,,,,,,a,0,0.8748,"[""0.027"",""0.768"",""0.552"",""0.841""]","[1,0,1,1]",0,30,30,30,1,1,0,,,0,FALSE,,,,,,,,,,,,,,,,,,,,,,,,,,,,,,
,5c6219e169375500012329d9,001,2022-04-29_03h09.20.994,classification_task,2021.2.3,Win32,60.03121623,5c6219e169375500012329d9,626b377229c10585ec392f89,626b3ab1856ab59e38b0bad8,,,,,,,,,,,,,,,,,,,,,,,a,0,1.6151,"[""0.142"",""0.242"",""0.596"",""0.793""]","[1,1,1,0]",0,31,31,31,1,1,1,,,0,FALSE,,,,,,,,,,,,,,,,,,,,,,,,,,,,,,
,5c6219e169375500012329d9,001,2022-04-29_03h09.20.994,classification_task,2021.2.3,Win32,60.03121623,5c6219e169375500012329d9,626b377229c10585ec392f89,626b3ab1856ab59e38b0bad8,,,,,,,,,,,,,,,,,,,,,,,l,1,0.9353,"[""0.682"",""0.376"",""0.552"",""0.841""]","[0,1,1,1]",0,32,32,32,1,1,0,,,0,FALSE,,,,,,,,,,,,,,,,,,,,,,,,,,,,,,
,5c6219e169375500012329d9,001,2022-04-29_03h09.20.994,classification_task,2021.2.3,Win32,60.03121623,5c6219e169375500012329d9,626b377229c10585ec392f89,626b3ab1856ab59e38b0bad8,,,,,,,,,,,,,,,,,,,,,,,l,1,3.7364,"[""0.027"",""0.376"",""0.552"",""0.767""]","[1,1,1,0]",0,33,33,33,1,1,0,,,0,FALSE,,,,,,,,,,,,,,,,,,,,,,,,,,,,,,
,5c6219e169375500012329d9,001,2022-04-29_03h09.20.994,classification_task,2021.2.3,Win32,60.03121623,5c6219e169375500012329d9,626b377229c10585ec392f89,626b3ab1856ab59e38b0bad8,,,,,,,,,,,,,,,,,,,,,,,a,0,3.4453,"[""0.142"",""0.242"",""0.792"",""0.723""]","[1,1,0,1]",0,34,34,34,1,1,1,,,0,FALSE,,,,,,,,,,,,,,,,,,,,,,,,,,,,,,
,5c6219e169375500012329d9,001,2022-04-29_03h09.20.994,classification_task,2021.2.3,Win32,60.03121623,5c6219e169375500012329d9,626b377229c10585ec392f89,626b3ab1856ab59e38b0bad8,,,,,,,,,,,,,,,,,,,,,,,a,1,1.3151,"[""0.186"",""0.498"",""0.876"",""0.107""]","[1,1,1,0]",0,35,35,35,1,0,1,,,0,FALSE,,,,,,,,,,,,,,,,,,,,,,,,,,,,,,
,5c6219e169375500012329d9,001,2022-04-29_03h09.20.994,classification_task,2021.2.3,Win32,60.03121623,5c6219e169375500012329d9,626b377229c10585ec392f89,626b3ab1856ab59e38b0bad8,,,,,,,,,,,,,,,,,,,,,,,a,1,1.8293,"[""0.306"",""0.768"",""0.643"",""0.954""]","[1,0,1,1]",0,36,36,36,1,0,0,,,0,FALSE,,,,,,,,,,,,,,,,,,,,,,,,,,,,,,
,5c6219e169375500012329d9,001,2022-04-29_03h09.20.994,classification_task,2021.2.3,Win32,60.03121623,5c6219e169375500012329d9,626b377229c10585ec392f89,626b3ab1856ab59e38b0bad8,,,,,,,,,,,,,,,,,,,,,,,a,1,1.8985,"[""0.464"",""0.427"",""0.643"",""0.954""]","[0,1,1,1]",0,37,37,37,1,0,0,,,0,FALSE,,,,,,,,,,,,,,,,,,,,,,,,,,,,,,
,5c6219e169375500012329d9,001,2022-04-29_03h09.20.994,classification_task,2021.2.3,Win32,60.03121623,5c6219e169375500012329d9,626b377229c10585ec392f89,626b3ab1856ab59e38b0bad8,,,,,,,,,,,,,,,,,,,,,,,l,1,1.4762,"[""0.142"",""0.242"",""0.596"",""0.779""]","[1,1,1,0]",0,38,38,38,1,1,1,,,0,FALSE,,,,,,,,,,,,,,,,,,,,,,,,,,,,,,
,5c6219e169375500012329d9,001,2022-04-29_03h09.20.994,classification_task,2021.2.3,Win32,60.03121623,5c6219e169375500012329d9,626b377229c10585ec392f89,626b3ab1856ab59e38b0bad8,,,,,,,,,,,,,,,,,,,,,,,a,1,1.6445,"[""0.306"",""0.427"",""0.643"",""0.792""]","[1,1,1,0]",0,39,39,39,1,0,0,,,0,FALSE,,,,,,,,,,,,,,,,,,,,,,,,,,,,,,
,5c6219e169375500012329d9,001,2022-04-29_03h09.20.994,classification_task,2021.2.3,Win32,60.03121623,5c6219e169375500012329d9,626b377229c10585ec392f89,626b3ab1856ab59e38b0bad8,,,,,,,,,,,,,,,,,,,,,,,a,1,1.399,"[""0.186"",""0.792"",""0.876"",""0.914""]","[1,0,1,1]",0,40,40,40,1,0,1,,,0,FALSE,,,,,,,,,,,,,,,,,,,,,,,,,,,,,,
,5c6219e169375500012329d9,001,2022-04-29_03h09.20.994,classification_task,2021.2.3,Win32,60.03121623,5c6219e169375500012329d9,626b377229c10585ec392f89,626b3ab1856ab59e38b0bad8,,,,,,,,,,,,,,,,,,,,,,,l,1,1.7178,"[""0.027"",""0.779"",""0.552"",""0.841""]","[1,0,1,1]",0,41,41,41,1,1,0,,,0,FALSE,,,,,,,,,,,,,,,,,,,,,,,,,,,,,,
,5c6219e169375500012329d9,001,2022-04-29_03h09.20.994,classification_task,2021.2.3,Win32,60.03121623,5c6219e169375500012329d9,626b377229c10585ec392f89,626b3ab1856ab59e38b0bad8,,,,,,,,,,,,,,,,,,,,,,,a,0,1.3317,"[""0.142"",""0.767"",""0.596"",""0.723""]","[1,0,1,1]",0,42,42,42,1,1,1,,,0,FALSE,,,,,,,,,,,,,,,,,,,,,,,,,,,,,,
,5c6219e169375500012329d9,001,2022-04-29_03h09.20.994,classification_task,2021.2.3,Win32,60.03121623,5c6219e169375500012329d9,626b377229c10585ec392f89,626b3ab1856ab59e38b0bad8,,,,,,,,,,,,,,,,,,,,,,,a,1,0.8442,"[""0.779"",""0.498"",""0.876"",""0.914""]","[0,1,1,1]",0,43,43,43,1,0,1,,,0,FALSE,,,,,,,,,,,,,,,,,,,,,,,,,,,,,,
,5c6219e169375500012329d9,001,2022-04-29_03h09.20.994,classification_task,2021.2.3,Win32,60.03121623,5c6219e169375500012329d9,626b377229c10585ec392f89,626b3ab1856ab59e38b0bad8,,,,,,,,,,,,,,,,,,,,,,,l,1,0.9152,"[""0.793"",""0.242"",""0.596"",""0.723""]","[0,1,1,1]",0,44,44,44,1,1,1,,,0,FALSE,,,,,,,,,,,,,,,,,,,,,,,,,,,,,,
,5c6219e169375500012329d9,001,2022-04-29_03h09.20.994,classification_task,2021.2.3,Win32,60.03121623,5c6219e169375500012329d9,626b377229c10585ec392f89,626b3ab1856ab59e38b0bad8,,,,,,,,,,,,,,,,,,,,,,,a,1,1.0588,"[""0.306"",""0.427"",""0.792"",""0.954""]","[1,1,0,1]",0,45,45,45,1,0,0,,,0,FALSE,,,,,,,,,,,,,,,,,,,,,,,,,,,,,,
,5c6219e169375500012329d9,001,2022-04-29_03h09.20.994,classification_task,2021.2.3,Win32,60.03121623,5c6219e169375500012329d9,626b377229c10585ec392f89,626b3ab1856ab59e38b0bad8,,,,,,,,,,,,,,,,,,,,,,,a,1,1.3925,"[""0.186"",""0.498"",""0.793"",""0.914""]","[1,1,0,1]",0,46,46,46,1,0,1,,,0,FALSE,,,,,,,,,,,,,,,,,,,,,,,,,,,,,,
,5c6219e169375500012329d9,001,2022-04-29_03h09.20.994,classification_task,2021.2.3,Win32,60.03121623,5c6219e169375500012329d9,626b377229c10585ec392f89,626b3ab1856ab59e38b0bad8,,,,,,,,,,,,,,,,,,,,,,,a,0,1.121,"[""0.027"",""0.376"",""0.806"",""0.841""]","[1,1,0,1]",0,47,47,47,1,1,0,,,0,FALSE,,,,,,,,,,,,,,,,,,,,,,,,,,,,,,
,5c6219e169375500012329d9,001,2022-04-29_03h09.20.994,classification_task,2021.2.3,Win32,60.03121623,5c6219e169375500012329d9,626b377229c10585ec392f89,626b3ab1856ab59e38b0bad8,,,,,,,,,,,,,,,,,,,,,,,a,0,1.0851,"[""0.142"",""0.682"",""0.596"",""0.723""]","[1,0,1,1]",0,48,48,48,1,1,1,,,0,FALSE,,,,,,,,,,,,,,,,,,,,,,,,,,,,,,
,5c6219e169375500012329d9,001,2022-04-29_03h09.20.994,classification_task,2021.2.3,Win32,60.03121623,5c6219e169375500012329d9,626b377229c10585ec392f89,626b3ab1856ab59e38b0bad8,,,,,,,,,,,,,,,,,,,,,,,a,0,1.6713,"[""0.085"",""0.376"",""0.552"",""0.841""]","[0,1,1,1]",0,49,49,49,1,1,0,,,0,FALSE,,,,,,,,,,,,,,,,,,,,,,,,,,,,,,
,5c6219e169375500012329d9,001,2022-04-29_03h09.20.994,classification_task,2021.2.3,Win32,60.03121623,5c6219e169375500012329d9,626b377229c10585ec392f89,626b3ab1856ab59e38b0bad8,,,,,,,,,,,,,,,,,,,,,,,a,1,1.4062,"[""0.186"",""0.793"",""0.876"",""0.914""]","[1,0,1,1]",0,50,50,50,1,0,1,,,0,FALSE,,,,,,,,,,,,,,,,,,,,,,,,,,,,,,
,5c6219e169375500012329d9,001,2022-04-29_03h09.20.994,classification_task,2021.2.3,Win32,60.03121623,5c6219e169375500012329d9,626b377229c10585ec392f89,626b3ab1856ab59e38b0bad8,,,,,,,,,,,,,,,,,,,,,,,l,0,1.1445,"[""0.186"",""0.498"",""0.876"",""0.071""]","[1,1,1,0]",0,51,51,51,1,0,1,,,0,FALSE,,,,,,,,,,,,,,,,,,,,,,,,,,,,,,
,5c6219e169375500012329d9,001,2022-04-29_03h09.20.994,classification_task,2021.2.3,Win32,60.03121623,5c6219e169375500012329d9,626b377229c10585ec392f89,626b3ab1856ab59e38b0bad8,,,,,,,,,,,,,,,,,,,,,,,a,0,0.7271,"[""0.027"",""0.779"",""0.552"",""0.841""]","[1,0,1,1]",0,52,52,52,1,1,0,,,0,FALSE,,,,,,,,,,,,,,,,,,,,,,,,,,,,,,
,5c6219e169375500012329d9,001,2022-04-29_03h09.20.994,classification_task,2021.2.3,Win32,60.03121623,5c6219e169375500012329d9,626b377229c10585ec392f89,626b3ab1856ab59e38b0bad8,,,,,,,,,,,,,,,,,,,,,,,a,1,1.5694,"[""0.779"",""0.498"",""0.876"",""0.914""]","[0,1,1,1]",0,53,53,53,1,0,1,,,0,FALSE,,,,,,,,,,,,,,,,,,,,,,,,,,,,,,
,5c6219e169375500012329d9,001,2022-04-29_03h09.20.994,classification_task,2021.2.3,Win32,60.03121623,5c6219e169375500012329d9,626b377229c10585ec392f89,626b3ab1856ab59e38b0bad8,,,,,,,,,,,,,,,,,,,,,,,l,0,1.2083,"[""0.186"",""0.498"",""0.779"",""0.914""]","[1,1,0,1]",0,54,54,54,1,0,1,,,0,FALSE,,,,,,,,,,,,,,,,,,,,,,,,,,,,,,
,5c6219e169375500012329d9,001,2022-04-29_03h09.20.994,classification_task,2021.2.3,Win32,60.03121623,5c6219e169375500012329d9,626b377229c10585ec392f89,626b3ab1856ab59e38b0bad8,,,,,,,,,,,,,,,,,,,,,,,a,1,0.992,"[""0.792"",""0.427"",""0.643"",""0.954""]","[0,1,1,1]",0,55,55,55,1,0,0,,,0,FALSE,,,,,,,,,,,,,,,,,,,,,,,,,,,,,,
,5c6219e169375500012329d9,001,2022-04-29_03h09.20.994,classification_task,2021.2.3,Win32,60.03121623,5c6219e169375500012329d9,626b377229c10585ec392f89,626b3ab1856ab59e38b0bad8,,,,,,,,,,,,,,,,,,,,,,,l,1,1.0873,"[""0.027"",""0.376"",""0.793"",""0.841""]","[1,1,0,1]",0,56,56,56,1,1,0,,,0,FALSE,,,,,,,,,,,,,,,,,,,,,,,,,,,,,,
,5c6219e169375500012329d9,001,2022-04-29_03h09.20.994,classification_task,2021.2.3,Win32,60.03121623,5c6219e169375500012329d9,626b377229c10585ec392f89,626b3ab1856ab59e38b0bad8,,,,,,,,,,,,,,,,,,,,,,,l,1,1.2941,"[""0.779"",""0.242"",""0.596"",""0.723""]","[0,1,1,1]",0,57,57,57,1,1,1,,,0,FALSE,,,,,,,,,,,,,,,,,,,,,,,,,,,,,,
,5c6219e169375500012329d9,001,2022-04-29_03h09.20.994,classification_task,2021.2.3,Win32,60.03121623,5c6219e169375500012329d9,626b377229c10585ec392f89,626b3ab1856ab59e38b0bad8,,,,,,,,,,,,,,,,,,,,,,,l,0,0.8004,"[""0.306"",""0.427"",""0.643"",""0.464""]","[1,1,1,0]",0,58,58,58,1,0,0,,,0,FALSE,,,,,,,,,,,,,,,,,,,,,,,,,,,,,,
,5c6219e169375500012329d9,001,2022-04-29_03h09.20.994,classification_task,2021.2.3,Win32,60.03121623,5c6219e169375500012329d9,626b377229c10585ec392f89,626b3ab1856ab59e38b0bad8,,,,,,,,,,,,,,,,,,,,,,,l,1,0.7153,"[""0.027"",""0.376"",""0.552"",""0.107""]","[1,1,1,0]",0,59,59,59,1,1,0,,,0,FALSE,,,,,,,,,,,,,,,,,,,,,,,,,,,,,,
,5c6219e169375500012329d9,001,2022-04-29_03h09.20.994,classification_task,2021.2.3,Win32,60.03121623,5c6219e169375500012329d9,626b377229c10585ec392f89,626b3ab1856ab59e38b0bad8,,,,,,,,,,,,,,,,,,,,,,,l,1,0.8038,"[""0.142"",""0.242"",""0.596"",""0.086""]","[1,1,1,0]",0,60,60,60,1,1,1,,,0,FALSE,,,,,,,,,,,,,,,,,,,,,,,,,,,,,,
,5c6219e169375500012329d9,001,2022-04-29_03h09.20.994,classification_task,2021.2.3,Win32,60.03121623,5c6219e169375500012329d9,626b377229c10585ec392f89,626b3ab1856ab59e38b0bad8,,,,,,,,,,,,,,,,,,,,,,,a,1,1.1777,"[""0.306"",""0.071"",""0.643"",""0.954""]","[1,0,1,1]",0,61,61,61,1,0,0,,,0,FALSE,,,,,,,,,,,,,,,,,,,,,,,,,,,,,,
,5c6219e169375500012329d9,001,2022-04-29_03h09.20.994,classification_task,2021.2.3,Win32,60.03121623,5c6219e169375500012329d9,626b377229c10585ec392f89,626b3ab1856ab59e38b0bad8,,,,,,,,,,,,,,,,,,,,,,,l,0,1.0905,"[""0.306"",""0.427"",""0.464"",""0.954""]","[1,1,0,1]",0,62,62,62,1,0,0,,,0,FALSE,,,,,,,,,,,,,,,,,,,,,,,,,,,,,,
,5c6219e169375500012329d9,001,2022-04-29_03h09.20.994,classification_task,2021.2.3,Win32,60.03121623,5c6219e169375500012329d9,626b377229c10585ec392f89,626b3ab1856ab59e38b0bad8,,,,,,,,,,,,,,,,,,,,,,,a,0,0.9268,"[""0.142"",""0.242"",""0.779"",""0.723""]","[1,1,0,1]",0,63,63,63,1,1,1,,,0,FALSE,,,,,,,,,,,,,,,,,,,,,,,,,,,,,,
,5c6219e169375500012329d9,001,2022-04-29_03h09.20.994,classification_task,2021.2.3,Win32,60.03121623,5c6219e169375500012329d9,626b377229c10585ec392f89,626b3ab1856ab59e38b0bad8,,,,,,,,,,,,,,,,,,,,,,,,,,,,,,,,,,,,,,,0, ,,0,0.394865765,208.2378,0,1,1,1,1,2,2,,,,,,,,,,,,,,,,,
,5c6219e169375500012329d9,001,2022-04-29_03h09.20.994,classification_task,2021.2.3,Win32,60.03121623,5c6219e169375500012329d9,626b377229c10585ec392f89,626b3ab1856ab59e38b0bad8,,,,,,,,,,,,,,,,,,,,,,,,,,,,,,,,,,,,,,,1,  ,,0,0.615324319,213.0298,0,1,1,1,1,2,2,,,,,,,,,,,,,,,,,
,5c6219e169375500012329d9,001,2022-04-29_03h09.20.994,classification_task,2021.2.3,Win32,60.03121623,5c6219e169375500012329d9,626b377229c10585ec392f89,626b3ab1856ab59e38b0bad8,,,,,,,,,,,,,,,,,,,,,,,,,,,,,,,,,,,,,,,2,  ,,0,4.289633549,217.1894,0,1,1,1,1,2,2,,,,,,,,,,,,,,,,,
,5c6219e169375500012329d9,001,2022-04-29_03h09.20.994,classification_task,2021.2.3,Win32,60.03121623,5c6219e169375500012329d9,626b377229c10585ec392f89,626b3ab1856ab59e38b0bad8,,,,,,,,,,,,,,,,,,,,,,,,,,,,,,,,,,,,,,,,,,,,,0,1,1,1,1,,2,,,,,,,,,,,,,,,,,
,5c6219e169375500012329d9,001,2022-04-29_03h09.20.994,classification_task,2021.2.3,Win32,60.03121623,5c6219e169375500012329d9,626b377229c10585ec392f89,626b3ab1856ab59e38b0bad8,,,,,,,,,,,,,,,,,,,,,space,10.6799,a,0,1.0143,"[""0.027"",""0.376"",""0.682"",""0.841""]","[1,1,0,1]",0,0,0,0,1,1,0,,,0,FALSE,,,,,,,,,,,,,,,,,,,,,,,,,,,,,,
,5c6219e169375500012329d9,001,2022-04-29_03h09.20.994,classification_task,2021.2.3,Win32,60.03121623,5c6219e169375500012329d9,626b377229c10585ec392f89,626b3ab1856ab59e38b0bad8,,,,,,,,,,,,,,,,,,,,,,,a,0,2.0123,"[""0.792"",""0.376"",""0.552"",""0.841""]","[0,1,1,1]",0,1,1,1,1,1,0,,,0,FALSE,,,,,,,,,,,,,,,,,,,,,,,,,,,,,,
,5c6219e169375500012329d9,001,2022-04-29_03h09.20.994,classification_task,2021.2.3,Win32,60.03121623,5c6219e169375500012329d9,626b377229c10585ec392f89,626b3ab1856ab59e38b0bad8,,,,,,,,,,,,,,,,,,,,,,,a,0,3.6995,"[""0.142"",""0.242"",""0.596"",""0.793""]","[1,1,1,0]",0,2,2,2,1,1,1,,,0,FALSE,,,,,,,,,,,,,,,,,,,,,,,,,,,,,,
,5c6219e169375500012329d9,001,2022-04-29_03h09.20.994,classification_task,2021.2.3,Win32,60.03121623,5c6219e169375500012329d9,626b377229c10585ec392f89,626b3ab1856ab59e38b0bad8,,,,,,,,,,,,,,,,,,,,,,,a,1,2.1936,"[""0.306"",""0.779"",""0.643"",""0.954""]","[1,0,1,1]",0,3,3,3,1,0,0,,,0,FALSE,,,,,,,,,,,,,,,,,,,,,,,,,,,,,,
,5c6219e169375500012329d9,001,2022-04-29_03h09.20.994,classification_task,2021.2.3,Win32,60.03121623,5c6219e169375500012329d9,626b377229c10585ec392f89,626b3ab1856ab59e38b0bad8,,,,,,,,,,,,,,,,,,,,,,,a,0,1.4726,"[""0.027"",""0.779"",""0.552"",""0.841""]","[1,0,1,1]",0,4,4,4,1,1,0,,,0,FALSE,,,,,,,,,,,,,,,,,,,,,,,,,,,,,,
,5c6219e169375500012329d9,001,2022-04-29_03h09.20.994,classification_task,2021.2.3,Win32,60.03121623,5c6219e169375500012329d9,626b377229c10585ec392f89,626b3ab1856ab59e38b0bad8,,,,,,,,,,,,,,,,,,,,,,,l,0,0.7878,"[""0.186"",""0.498"",""0.876"",""0.682""]","[1,1,1,0]",0,5,5,5,1,0,1,,,0,FALSE,,,,,,,,,,,,,,,,,,,,,,,,,,,,,,
,5c6219e169375500012329d9,001,2022-04-29_03h09.20.994,classification_task,2021.2.3,Win32,60.03121623,5c6219e169375500012329d9,626b377229c10585ec392f89,626b3ab1856ab59e38b0bad8,,,,,,,,,,,,,,,,,,,,,,,l,0,0.8437,"[""0.186"",""0.498"",""0.464"",""0.914""]","[1,1,0,1]",0,6,6,6,1,0,1,,,0,FALSE,,,,,,,,,,,,,,,,,,,,,,,,,,,,,,
,5c6219e169375500012329d9,001,2022-04-29_03h09.20.994,classification_task,2021.2.3,Win32,60.03121623,5c6219e169375500012329d9,626b377229c10585ec392f89,626b3ab1856ab59e38b0bad8,,,,,,,,,,,,,,,,,,,,,,,a,0,0.9456,"[""0.027"",""0.376"",""0.552"",""0.779""]","[1,1,1,0]",0,7,7,7,1,1,0,,,0,FALSE,,,,,,,,,,,,,,,,,,,,,,,,,,,,,,
,5c6219e169375500012329d9,001,2022-04-29_03h09.20.994,classification_task,2021.2.3,Win32,60.03121623,5c6219e169375500012329d9,626b377229c10585ec392f89,626b3ab1856ab59e38b0bad8,,,,,,,,,,,,,,,,,,,,,,,l,1,1.5238,"[""0.085"",""0.242"",""0.596"",""0.723""]","[0,1,1,1]",0,8,8,8,1,1,1,,,0,FALSE,,,,,,,,,,,,,,,,,,,,,,,,,,,,,,
,5c6219e169375500012329d9,001,2022-04-29_03h09.20.994,classification_task,2021.2.3,Win32,60.03121623,5c6219e169375500012329d9,626b377229c10585ec392f89,626b3ab1856ab59e38b0bad8,,,,,,,,,,,,,,,,,,,,,,,a,1,0.4944,"[""0.768"",""0.427"",""0.643"",""0.954""]","[0,1,1,1]",0,9,9,9,1,0,0,,,0,FALSE,,,,,,,,,,,,,,,,,,,,,,,,,,,,,,
,5c6219e169375500012329d9,001,2022-04-29_03h09.20.994,classification_task,2021.2.3,Win32,60.03121623,5c6219e169375500012329d9,626b377229c10585ec392f89,626b3ab1856ab59e38b0bad8,,,,,,,,,,,,,,,,,,,,,,,l,0,0.2115,"[""0.306"",""0.427"",""0.779"",""0.954""]","[1,1,0,1]",0,10,10,10,1,0,0,,,0,FALSE,,,,,,,,,,,,,,,,,,,,,,,,,,,,,,
,5c6219e169375500012329d9,001,2022-04-29_03h09.20.994,classification_task,2021.2.3,Win32,60.03121623,5c6219e169375500012329d9,626b377229c10585ec392f89,626b3ab1856ab59e38b0bad8,,,,,,,,,,,,,,,,,,,,,,,a,0,0.8017,"[""0.142"",""0.806"",""0.596"",""0.723""]","[1,0,1,1]",0,11,11,11,1,1,1,,,0,FALSE,,,,,,,,,,,,,,,,,,,,,,,,,,,,,,
,5c6219e169375500012329d9,001,2022-04-29_03h09.20.994,classification_task,2021.2.3,Win32,60.03121623,5c6219e169375500012329d9,626b377229c10585ec392f89,626b3ab1856ab59e38b0bad8,,,,,,,,,,,,,,,,,,,,,,,l,0,1.6732,"[""0.186"",""0.682"",""0.876"",""0.914""]","[1,0,1,1]",0,12,12,12,1,0,1,,,0,FALSE,,,,,,,,,,,,,,,,,,,,,,,,,,,,,,
,5c6219e169375500012329d9,001,2022-04-29_03h09.20.994,classification_task,2021.2.3,Win32,60.03121623,5c6219e169375500012329d9,626b377229c10585ec392f89,626b3ab1856ab59e38b0bad8,,,,,,,,,,,,,,,,,,,,,,,l,0,1.2786,"[""0.779"",""0.498"",""0.876"",""0.914""]","[0,1,1,1]",0,13,13,13,1,0,1,,,0,FALSE,,,,,,,,,,,,,,,,,,,,,,,,,,,,,,
,5c6219e169375500012329d9,001,2022-04-29_03h09.20.994,classification_task,2021.2.3,Win32,60.03121623,5c6219e169375500012329d9,626b377229c10585ec392f89,626b3ab1856ab59e38b0bad8,,,,,,,,,,,,,,,,,,,,,,,a,1,1.6015,"[""0.306"",""0.427"",""0.643"",""0.779""]","[1,1,1,0]",0,14,14,14,1,0,0,,,0,FALSE,,,,,,,,,,,,,,,,,,,,,,,,,,,,,,
,5c6219e169375500012329d9,001,2022-04-29_03h09.20.994,classification_task,2021.2.3,Win32,60.03121623,5c6219e169375500012329d9,626b377229c10585ec392f89,626b3ab1856ab59e38b0bad8,,,,,,,,,,,,,,,,,,,,,,,l,1,1.4339,"[""0.142"",""0.242"",""0.779"",""0.723""]","[1,1,0,1]",0,15,15,15,1,1,1,,,0,FALSE,,,,,,,,,,,,,,,,,,,,,,,,,,,,,,
,5c6219e169375500012329d9,001,2022-04-29_03h09.20.994,classification_task,2021.2.3,Win32,60.03121623,5c6219e169375500012329d9,626b377229c10585ec392f89,626b3ab1856ab59e38b0bad8,,,,,,,,,,,,,,,,,,,,,,,a,1,0.7037,"[""0.306"",""0.427"",""0.767"",""0.954""]","[1,1,0,1]",0,16,16,16,1,0,0,,,0,FALSE,,,,,,,,,,,,,,,,,,,,,,,,,,,,,,
,5c6219e169375500012329d9,001,2022-04-29_03h09.20.994,classification_task,2021.2.3,Win32,60.03121623,5c6219e169375500012329d9,626b377229c10585ec392f89,626b3ab1856ab59e38b0bad8,,,,,,,,,,,,,,,,,,,,,,,l,1,0.6118,"[""0.142"",""0.242"",""0.596"",""0.071""]","[1,1,1,0]",0,17,17,17,1,1,1,,,0,FALSE,,,,,,,,,,,,,,,,,,,,,,,,,,,,,,
,5c6219e169375500012329d9,001,2022-04-29_03h09.20.994,classification_task,2021.2.3,Win32,60.03121623,5c6219e169375500012329d9,626b377229c10585ec392f89,626b3ab1856ab59e38b0bad8,,,,,,,,,,,,,,,,,,,,,,,a,1,1.9845,"[""0.306"",""0.793"",""0.643"",""0.954""]","[1,0,1,1]",0,18,18,18,1,0,0,,,0,FALSE,,,,,,,,,,,,,,,,,,,,,,,,,,,,,,
,5c6219e169375500012329d9,001,2022-04-29_03h09.20.994,classification_task,2021.2.3,Win32,60.03121623,5c6219e169375500012329d9,626b377229c10585ec392f89,626b3ab1856ab59e38b0bad8,,,,,,,,,,,,,,,,,,,,,,,l,0,0.7259,"[""0.306"",""0.427"",""0.643"",""0.779""]","[1,1,1,0]",0,19,19,19,1,0,0,,,0,FALSE,,,,,,,,,,,,,,,,,,,,,,,,,,,,,,
,5c6219e169375500012329d9,001,2022-04-29_03h09.20.994,classification_task,2021.2.3,Win32,60.03121623,5c6219e169375500012329d9,626b377229c10585ec392f89,626b3ab1856ab59e38b0bad8,,,,,,,,,,,,,,,,,,,,,,,l,0,0.9174,"[""0.792"",""0.427"",""0.643"",""0.954""]","[0,1,1,1]",0,20,20,20,1,0,0,,,0,FALSE,,,,,,,,,,,,,,,,,,,,,,,,,,,,,,
,5c6219e169375500012329d9,001,2022-04-29_03h09.20.994,classification_task,2021.2.3,Win32,60.03121623,5c6219e169375500012329d9,626b377229c10585ec392f89,626b3ab1856ab59e38b0bad8,,,,,,,,,,,,,,,,,,,,,,,a,0,0.9198,"[""0.027"",""0.376"",""0.552"",""0.792""]","[1,1,1,0]",0,21,21,21,1,1,0,,,0,FALSE,,,,,,,,,,,,,,,,,,,,,,,,,,,,,,
,5c6219e169375500012329d9,001,2022-04-29_03h09.20.994,classification_task,2021.2.3,Win32,60.03121623,5c6219e169375500012329d9,626b377229c10585ec392f89,626b3ab1856ab59e38b0bad8,,,,,,,,,,,,,,,,,,,,,,,l,1,1.2089,"[""0.027"",""0.806"",""0.552"",""0.841""]","[1,0,1,1]",0,22,22,22,1,1,0,,,0,FALSE,,,,,,,,,,,,,,,,,,,,,,,,,,,,,,
,5c6219e169375500012329d9,001,2022-04-29_03h09.20.994,classification_task,2021.2.3,Win32,60.03121623,5c6219e169375500012329d9,626b377229c10585ec392f89,626b3ab1856ab59e38b0bad8,,,,,,,,,,,,,,,,,,,,,,,a,0,0.8506,"[""0.085"",""0.376"",""0.552"",""0.841""]","[0,1,1,1]",0,23,23,23,1,1,0,,,0,FALSE,,,,,,,,,,,,,,,,,,,,,,,,,,,,,,
,5c6219e169375500012329d9,001,2022-04-29_03h09.20.994,classification_task,2021.2.3,Win32,60.03121623,5c6219e169375500012329d9,626b377229c10585ec392f89,626b3ab1856ab59e38b0bad8,,,,,,,,,,,,,,,,,,,,,,,a,1,1.5117,"[""0.793"",""0.498"",""0.876"",""0.914""]","[0,1,1,1]",0,24,24,24,1,0,1,,,0,FALSE,,,,,,,,,,,,,,,,,,,,,,,,,,,,,,
,5c6219e169375500012329d9,001,2022-04-29_03h09.20.994,classification_task,2021.2.3,Win32,60.03121623,5c6219e169375500012329d9,626b377229c10585ec392f89,626b3ab1856ab59e38b0bad8,,,,,,,,,,,,,,,,,,,,,,,l,0,0.5012,"[""0.186"",""0.498"",""0.876"",""0.792""]","[1,1,1,0]",0,25,25,25,1,0,1,,,0,FALSE,,,,,,,,,,,,,,,,,,,,,,,,,,,,,,
,5c6219e169375500012329d9,001,2022-04-29_03h09.20.994,classification_task,2021.2.3,Win32,60.03121623,5c6219e169375500012329d9,626b377229c10585ec392f89,626b3ab1856ab59e38b0bad8,,,,,,,,,,,,,,,,,,,,,,,a,0,0.7102,"[""0.071"",""0.242"",""0.596"",""0.723""]","[0,1,1,1]",0,26,26,26,1,1,1,,,0,FALSE,,,,,,,,,,,,,,,,,,,,,,,,,,,,,,
,5c6219e169375500012329d9,001,2022-04-29_03h09.20.994,classification_task,2021.2.3,Win32,60.03121623,5c6219e169375500012329d9,626b377229c10585ec392f89,626b3ab1856ab59e38b0bad8,,,,,,,,,,,,,,,,,,,,,,,a,0,0.5776,"[""0.142"",""0.086"",""0.596"",""0.723""]","[1,0,1,1]",0,27,27,27,1,1,1,,,0,FALSE,,,,,,,,,,,,,,,,,,,,,,,,,,,,,,
,5c6219e169375500012329d9,001,2022-04-29_03h09.20.994,classification_task,2021.2.3,Win32,60.03121623,5c6219e169375500012329d9,626b377229c10585ec392f89,626b3ab1856ab59e38b0bad8,,,,,,,,,,,,,,,,,,,,,,,l,1,0.6746,"[""0.142"",""0.242"",""0.107"",""0.723""]","[1,1,0,1]",0,28,28,28,1,1,1,,,0,FALSE,,,,,,,,,,,,,,,,,,,,,,,,,,,,,,
,5c6219e169375500012329d9,001,2022-04-29_03h09.20.994,classification_task,2021.2.3,Win32,60.03121623,5c6219e169375500012329d9,626b377229c10585ec392f89,626b3ab1856ab59e38b0bad8,,,,,,,,,,,,,,,,,,,,,,,l,0,0.687,"[""0.186"",""0.498"",""0.779"",""0.914""]","[1,1,0,1]",0,29,29,29,1,0,1,,,0,FALSE,,,,,,,,,,,,,,,,,,,,,,,,,,,,,,
,5c6219e169375500012329d9,001,2022-04-29_03h09.20.994,classification_task,2021.2.3,Win32,60.03121623,5c6219e169375500012329d9,626b377229c10585ec392f89,626b3ab1856ab59e38b0bad8,,,,,,,,,,,,,,,,,,,,,,,l,1,0.9391,"[""0.027"",""0.376"",""0.085"",""0.841""]","[1,1,0,1]",0,30,30,30,1,1,0,,,0,FALSE,,,,,,,,,,,,,,,,,,,,,,,,,,,,,,
,5c6219e169375500012329d9,001,2022-04-29_03h09.20.994,classification_task,2021.2.3,Win32,60.03121623,5c6219e169375500012329d9,626b377229c10585ec392f89,626b3ab1856ab59e38b0bad8,,,,,,,,,,,,,,,,,,,,,,,l,0,1.4354,"[""0.186"",""0.071"",""0.876"",""0.914""]","[1,0,1,1]",0,31,31,31,1,0,1,,,0,FALSE,,,,,,,,,,,,,,,,,,,,,,,,,,,,,,
,5c6219e169375500012329d9,001,2022-04-29_03h09.20.994,classification_task,2021.2.3,Win32,60.03121623,5c6219e169375500012329d9,626b377229c10585ec392f89,626b3ab1856ab59e38b0bad8,,,,,,,,,,,,,,,,,,,,,,,a,0,1.2411,"[""0.779"",""0.376"",""0.552"",""0.841""]","[0,1,1,1]",0,32,32,32,1,1,0,,,0,FALSE,,,,,,,,,,,,,,,,,,,,,,,,,,,,,,
,5c6219e169375500012329d9,001,2022-04-29_03h09.20.994,classification_task,2021.2.3,Win32,60.03121623,5c6219e169375500012329d9,626b377229c10585ec392f89,626b3ab1856ab59e38b0bad8,,,,,,,,,,,,,,,,,,,,,,,l,1,0.9593,"[""0.027"",""0.376"",""0.552"",""0.464""]","[1,1,1,0]",0,33,33,33,1,1,0,,,0,FALSE,,,,,,,,,,,,,,,,,,,,,,,,,,,,,,
,5c6219e169375500012329d9,001,2022-04-29_03h09.20.994,classification_task,2021.2.3,Win32,60.03121623,5c6219e169375500012329d9,626b377229c10585ec392f89,626b3ab1856ab59e38b0bad8,,,,,,,,,,,,,,,,,,,,,,,a,1,0.4656,"[""0.086"",""0.427"",""0.643"",""0.954""]","[0,1,1,1]",0,34,34,34,1,0,0,,,0,FALSE,,,,,,,,,,,,,,,,,,,,,,,,,,,,,,
,5c6219e169375500012329d9,001,2022-04-29_03h09.20.994,classification_task,2021.2.3,Win32,60.03121623,5c6219e169375500012329d9,626b377229c10585ec392f89,626b3ab1856ab59e38b0bad8,,,,,,,,,,,,,,,,,,,,,,,l,0,1.1596,"[""0.306"",""0.806"",""0.643"",""0.954""]","[1,0,1,1]",0,35,35,35,1,0,0,,,0,FALSE,,,,,,,,,,,,,,,,,,,,,,,,,,,,,,
,5c6219e169375500012329d9,001,2022-04-29_03h09.20.994,classification_task,2021.2.3,Win32,60.03121623,5c6219e169375500012329d9,626b377229c10585ec392f89,626b3ab1856ab59e38b0bad8,,,,,,,,,,,,,,,,,,,,,,,a,1,0.8844,"[""0.186"",""0.498"",""0.876"",""0.779""]","[1,1,1,0]",0,36,36,36,1,0,1,,,0,FALSE,,,,,,,,,,,,,,,,,,,,,,,,,,,,,,
,5c6219e169375500012329d9,001,2022-04-29_03h09.20.994,classification_task,2021.2.3,Win32,60.03121623,5c6219e169375500012329d9,626b377229c10585ec392f89,626b3ab1856ab59e38b0bad8,,,,,,,,,,,,,,,,,,,,,,,a,0,0.4209,"[""0.142"",""0.242"",""0.596"",""0.792""]","[1,1,1,0]",0,37,37,37,1,1,1,,,0,FALSE,,,,,,,,,,,,,,,,,,,,,,,,,,,,,,
,5c6219e169375500012329d9,001,2022-04-29_03h09.20.994,classification_task,2021.2.3,Win32,60.03121623,5c6219e169375500012329d9,626b377229c10585ec392f89,626b3ab1856ab59e38b0bad8,,,,,,,,,,,,,,,,,,,,,,,l,1,1.5152,"[""0.027"",""0.376"",""0.792"",""0.841""]","[1,1,0,1]",0,38,38,38,1,1,0,,,0,FALSE,,,,,,,,,,,,,,,,,,,,,,,,,,,,,,
,5c6219e169375500012329d9,001,2022-04-29_03h09.20.994,classification_task,2021.2.3,Win32,60.03121623,5c6219e169375500012329d9,626b377229c10585ec392f89,626b3ab1856ab59e38b0bad8,,,,,,,,,,,,,,,,,,,,,,,l,0,0.8539,"[""0.806"",""0.498"",""0.876"",""0.914""]","[0,1,1,1]",0,39,39,39,1,0,1,,,0,FALSE,,,,,,,,,,,,,,,,,,,,,,,,,,,,,,
,5c6219e169375500012329d9,001,2022-04-29_03h09.20.994,classification_task,2021.2.3,Win32,60.03121623,5c6219e169375500012329d9,626b377229c10585ec392f89,626b3ab1856ab59e38b0bad8,,,,,,,,,,,,,,,,,,,,,,,l,0,0.8576,"[""0.306"",""0.427"",""0.793"",""0.954""]","[1,1,0,1]",0,40,40,40,1,0,0,,,0,FALSE,,,,,,,,,,,,,,,,,,,,,,,,,,,,,,
,5c6219e169375500012329d9,001,2022-04-29_03h09.20.994,classification_task,2021.2.3,Win32,60.03121623,5c6219e169375500012329d9,626b377229c10585ec392f89,626b3ab1856ab59e38b0bad8,,,,,,,,,,,,,,,,,,,,,,,l,0,0.7353,"[""0.186"",""0.498"",""0.768"",""0.914""]","[1,1,0,1]",0,41,41,41,1,0,1,,,0,FALSE,,,,,,,,,,,,,,,,,,,,,,,,,,,,,,
,5c6219e169375500012329d9,001,2022-04-29_03h09.20.994,classification_task,2021.2.3,Win32,60.03121623,5c6219e169375500012329d9,626b377229c10585ec392f89,626b3ab1856ab59e38b0bad8,,,,,,,,,,,,,,,,,,,,,,,a,1,1.1776,"[""0.306"",""0.427"",""0.643"",""0.806""]","[1,1,1,0]",0,42,42,42,1,0,0,,,0,FALSE,,,,,,,,,,,,,,,,,,,,,,,,,,,,,,
,5c6219e169375500012329d9,001,2022-04-29_03h09.20.994,classification_task,2021.2.3,Win32,60.03121623,5c6219e169375500012329d9,626b377229c10585ec392f89,626b3ab1856ab59e38b0bad8,,,,,,,,,,,,,,,,,,,,,,,a,0,0.5316,"[""0.027"",""0.086"",""0.552"",""0.841""]","[1,0,1,1]",0,43,43,43,1,1,0,,,0,FALSE,,,,,,,,,,,,,,,,,,,,,,,,,,,,,,
,5c6219e169375500012329d9,001,2022-04-29_03h09.20.994,classification_task,2021.2.3,Win32,60.03121623,5c6219e169375500012329d9,626b377229c10585ec392f89,626b3ab1856ab59e38b0bad8,,,,,,,,,,,,,,,,,,,,,,,l,1,0.5986,"[""0.779"",""0.242"",""0.596"",""0.723""]","[0,1,1,1]",0,44,44,44,1,1,1,,,0,FALSE,,,,,,,,,,,,,,,,,,,,,,,,,,,,,,
,5c6219e169375500012329d9,001,2022-04-29_03h09.20.994,classification_task,2021.2.3,Win32,60.03121623,5c6219e169375500012329d9,626b377229c10585ec392f89,626b3ab1856ab59e38b0bad8,,,,,,,,,,,,,,,,,,,,,,,a,0,0.9006,"[""0.142"",""0.242"",""0.768"",""0.723""]","[1,1,0,1]",0,45,45,45,1,1,1,,,0,FALSE,,,,,,,,,,,,,,,,,,,,,,,,,,,,,,
,5c6219e169375500012329d9,001,2022-04-29_03h09.20.994,classification_task,2021.2.3,Win32,60.03121623,5c6219e169375500012329d9,626b377229c10585ec392f89,626b3ab1856ab59e38b0bad8,,,,,,,,,,,,,,,,,,,,,,,a,0,1.0173,"[""0.142"",""0.767"",""0.596"",""0.723""]","[1,0,1,1]",0,46,46,46,1,1,1,,,0,FALSE,,,,,,,,,,,,,,,,,,,,,,,,,,,,,,
,5c6219e169375500012329d9,001,2022-04-29_03h09.20.994,classification_task,2021.2.3,Win32,60.03121623,5c6219e169375500012329d9,626b377229c10585ec392f89,626b3ab1856ab59e38b0bad8,,,,,,,,,,,,,,,,,,,,,,,l,0,0.3579,"[""0.186"",""0.085"",""0.876"",""0.914""]","[1,0,1,1]",0,47,47,47,1,0,1,,,0,FALSE,,,,,,,,,,,,,,,,,,,,,,,,,,,,,,
,5c6219e169375500012329d9,001,2022-04-29_03h09.20.994,classification_task,2021.2.3,Win32,60.03121623,5c6219e169375500012329d9,626b377229c10585ec392f89,626b3ab1856ab59e38b0bad8,,,,,,,,,,,,,,,,,,,,,,,l,0,0.834,"[""0.306"",""0.427"",""0.793"",""0.954""]","[1,1,0,1]",0,48,48,48,1,0,0,,,0,FALSE,,,,,,,,,,,,,,,,,,,,,,,,,,,,,,
,5c6219e169375500012329d9,001,2022-04-29_03h09.20.994,classification_task,2021.2.3,Win32,60.03121623,5c6219e169375500012329d9,626b377229c10585ec392f89,626b3ab1856ab59e38b0bad8,,,,,,,,,,,,,,,,,,,,,,,a,1,0.9492,"[""0.306"",""0.427"",""0.643"",""0.779""]","[1,1,1,0]",0,49,49,49,1,0,0,,,0,FALSE,,,,,,,,,,,,,,,,,,,,,,,,,,,,,,
,5c6219e169375500012329d9,001,2022-04-29_03h09.20.994,classification_task,2021.2.3,Win32,60.03121623,5c6219e169375500012329d9,626b377229c10585ec392f89,626b3ab1856ab59e38b0bad8,,,,,,,,,,,,,,,,,,,,,,,a,0,1.4508,"[""0.142"",""0.242"",""0.085"",""0.723""]","[1,1,0,1]",0,50,50,50,1,1,1,,,0,FALSE,,,,,,,,,,,,,,,,,,,,,,,,,,,,,,
,5c6219e169375500012329d9,001,2022-04-29_03h09.20.994,classification_task,2021.2.3,Win32,60.03121623,5c6219e169375500012329d9,626b377229c10585ec392f89,626b3ab1856ab59e38b0bad8,,,,,,,,,,,,,,,,,,,,,,,a,1,0.8216,"[""0.186"",""0.498"",""0.107"",""0.914""]","[1,1,0,1]",0,51,51,51,1,0,1,,,0,FALSE,,,,,,,,,,,,,,,,,,,,,,,,,,,,,,
,5c6219e169375500012329d9,001,2022-04-29_03h09.20.994,classification_task,2021.2.3,Win32,60.03121623,5c6219e169375500012329d9,626b377229c10585ec392f89,626b3ab1856ab59e38b0bad8,,,,,,,,,,,,,,,,,,,,,,,l,0,0.5403,"[""0.793"",""0.498"",""0.876"",""0.914""]","[0,1,1,1]",0,52,52,52,1,0,1,,,0,FALSE,,,,,,,,,,,,,,,,,,,,,,,,,,,,,,
,5c6219e169375500012329d9,001,2022-04-29_03h09.20.994,classification_task,2021.2.3,Win32,60.03121623,5c6219e169375500012329d9,626b377229c10585ec392f89,626b3ab1856ab59e38b0bad8,,,,,,,,,,,,,,,,,,,,,,,a,1,0.7162,"[""0.071"",""0.427"",""0.643"",""0.954""]","[0,1,1,1]",0,53,53,53,1,0,0,,,0,FALSE,,,,,,,,,,,,,,,,,,,,,,,,,,,,,,
,5c6219e169375500012329d9,001,2022-04-29_03h09.20.994,classification_task,2021.2.3,Win32,60.03121623,5c6219e169375500012329d9,626b377229c10585ec392f89,626b3ab1856ab59e38b0bad8,,,,,,,,,,,,,,,,,,,,,,,a,0,0.7452,"[""0.793"",""0.376"",""0.552"",""0.841""]","[0,1,1,1]",0,54,54,54,1,1,0,,,0,FALSE,,,,,,,,,,,,,,,,,,,,,,,,,,,,,,
,5c6219e169375500012329d9,001,2022-04-29_03h09.20.994,classification_task,2021.2.3,Win32,60.03121623,5c6219e169375500012329d9,626b377229c10585ec392f89,626b3ab1856ab59e38b0bad8,,,,,,,,,,,,,,,,,,,,,,,a,0,0.934,"[""0.682"",""0.242"",""0.596"",""0.723""]","[0,1,1,1]",0,55,55,55,1,1,1,,,0,FALSE,,,,,,,,,,,,,,,,,,,,,,,,,,,,,,
,5c6219e169375500012329d9,001,2022-04-29_03h09.20.994,classification_task,2021.2.3,Win32,60.03121623,5c6219e169375500012329d9,626b377229c10585ec392f89,626b3ab1856ab59e38b0bad8,,,,,,,,,,,,,,,,,,,,,,,l,0,0.6293,"[""0.186"",""0.498"",""0.876"",""0.793""]","[1,1,1,0]",0,56,56,56,1,0,1,,,0,FALSE,,,,,,,,,,,,,,,,,,,,,,,,,,,,,,
,5c6219e169375500012329d9,001,2022-04-29_03h09.20.994,classification_task,2021.2.3,Win32,60.03121623,5c6219e169375500012329d9,626b377229c10585ec392f89,626b3ab1856ab59e38b0bad8,,,,,,,,,,,,,,,,,,,,,,,l,0,2.036,"[""0.186"",""0.779"",""0.876"",""0.914""]","[1,0,1,1]",0,57,57,57,1,0,1,,,0,FALSE,,,,,,,,,,,,,,,,,,,,,,,,,,,,,,
,5c6219e169375500012329d9,001,2022-04-29_03h09.20.994,classification_task,2021.2.3,Win32,60.03121623,5c6219e169375500012329d9,626b377229c10585ec392f89,626b3ab1856ab59e38b0bad8,,,,,,,,,,,,,,,,,,,,,,,a,0,0.9959,"[""0.142"",""0.242"",""0.596"",""0.793""]","[1,1,1,0]",0,58,58,58,1,1,1,,,0,FALSE,,,,,,,,,,,,,,,,,,,,,,,,,,,,,,
,5c6219e169375500012329d9,001,2022-04-29_03h09.20.994,classification_task,2021.2.3,Win32,60.03121623,5c6219e169375500012329d9,626b377229c10585ec392f89,626b3ab1856ab59e38b0bad8,,,,,,,,,,,,,,,,,,,,,,,a,0,0.7173,"[""0.027"",""0.792"",""0.552"",""0.841""]","[1,0,1,1]",0,59,59,59,1,1,0,,,0,FALSE,,,,,,,,,,,,,,,,,,,,,,,,,,,,,,
,5c6219e169375500012329d9,001,2022-04-29_03h09.20.994,classification_task,2021.2.3,Win32,60.03121623,5c6219e169375500012329d9,626b377229c10585ec392f89,626b3ab1856ab59e38b0bad8,,,,,,,,,,,,,,,,,,,,,,,l,0,0.4697,"[""0.306"",""0.793"",""0.643"",""0.954""]","[1,0,1,1]",0,60,60,60,1,0,0,,,0,FALSE,,,,,,,,,,,,,,,,,,,,,,,,,,,,,,
,5c6219e169375500012329d9,001,2022-04-29_03h09.20.994,classification_task,2021.2.3,Win32,60.03121623,5c6219e169375500012329d9,626b377229c10585ec392f89,626b3ab1856ab59e38b0bad8,,,,,,,,,,,,,,,,,,,,,,,l,1,0.7446,"[""0.142"",""0.779"",""0.596"",""0.723""]","[1,0,1,1]",0,61,61,61,1,1,1,,,0,FALSE,,,,,,,,,,,,,,,,,,,,,,,,,,,,,,
,5c6219e169375500012329d9,001,2022-04-29_03h09.20.994,classification_task,2021.2.3,Win32,60.03121623,5c6219e169375500012329d9,626b377229c10585ec392f89,626b3ab1856ab59e38b0bad8,,,,,,,,,,,,,,,,,,,,,,,l,1,1.0907,"[""0.027"",""0.376"",""0.071"",""0.841""]","[1,1,0,1]",0,62,62,62,1,1,0,,,0,FALSE,,,,,,,,,,,,,,,,,,,,,,,,,,,,,,
,5c6219e169375500012329d9,001,2022-04-29_03h09.20.994,classification_task,2021.2.3,Win32,60.03121623,5c6219e169375500012329d9,626b377229c10585ec392f89,626b3ab1856ab59e38b0bad8,,,,,,,,,,,,,,,,,,,,,,,a,0,0.4564,"[""0.027"",""0.376"",""0.552"",""0.793""]","[1,1,1,0]",0,63,63,63,1,1,0,,,0,FALSE,,,,,,,,,,,,,,,,,,,,,,,,,,,,,,
,5c6219e169375500012329d9,001,2022-04-29_03h09.20.994,classification_task,2021.2.3,Win32,60.03121623,5c6219e169375500012329d9,626b377229c10585ec392f89,626b3ab1856ab59e38b0bad8,,,,,,,,,,,,,,,,,,,,,,,,,,,,,,,,,,,,,,,0, ,,0,1.570644719,148.608,0,2,2,2,1,2,3,,,,,,,,,,,,,,,,,
,5c6219e169375500012329d9,001,2022-04-29_03h09.20.994,classification_task,2021.2.3,Win32,60.03121623,5c6219e169375500012329d9,626b377229c10585ec392f89,626b3ab1856ab59e38b0bad8,,,,,,,,,,,,,,,,,,,,,,,,,,,,,,,,,,,,,,,1,  ,,0,2.33000196,146.8448,0,2,2,2,1,2,3,,,,,,,,,,,,,,,,,
,5c6219e169375500012329d9,001,2022-04-29_03h09.20.994,classification_task,2021.2.3,Win32,60.03121623,5c6219e169375500012329d9,626b377229c10585ec392f89,626b3ab1856ab59e38b0bad8,,,,,,,,,,,,,,,,,,,,,,,,,,,,,,,,,,,,,,,2,  ,,0,8.037428963,144.9254,0,2,2,2,1,2,3,,,,,,,,,,,,,,,,,
,5c6219e169375500012329d9,001,2022-04-29_03h09.20.994,classification_task,2021.2.3,Win32,60.03121623,5c6219e169375500012329d9,626b377229c10585ec392f89,626b3ab1856ab59e38b0bad8,,,,,,,,,,,,,,,,,,,,,,,,,,,,,,,,,,,,,,,,,,,,,0,2,2,2,1,,3,,,,,,,,,,,,,,,,,
,5c6219e169375500012329d9,001,2022-04-29_03h09.20.994,classification_task,2021.2.3,Win32,60.03121623,5c6219e169375500012329d9,626b377229c10585ec392f89,626b3ab1856ab59e38b0bad8,,,,,,,,,,,,,,,,,,,,,,,,,,,,,,,,,,,,,,,,,,,,,,,,,,,,,I believe the aid is a competent performer,,0.7,0,1,991.6504,0,0,0,0,1,0,,,,
,5c6219e169375500012329d9,001,2022-04-29_03h09.20.994,classification_task,2021.2.3,Win32,60.03121623,5c6219e169375500012329d9,626b377229c10585ec392f89,626b3ab1856ab59e38b0bad8,,,,,,,,,,,,,,,,,,,,,,,,,,,,,,,,,,,,,,,,,,,,,,,,,,,,,I trust the aid,,0.7,0,2,988.841,0,0,0,0,1,0,,,,
,5c6219e169375500012329d9,001,2022-04-29_03h09.20.994,classification_task,2021.2.3,Win32,60.03121623,5c6219e169375500012329d9,626b377229c10585ec392f89,626b3ab1856ab59e38b0bad8,,,,,,,,,,,,,,,,,,,,,,,,,,,,,,,,,,,,,,,,,,,,,,,,,,,,,I have confidence in the advice given by the aid,,0.7,0,1,993.8761,0,0,0,0,1,0,,,,
,5c6219e169375500012329d9,001,2022-04-29_03h09.20.994,classification_task,2021.2.3,Win32,60.03121623,5c6219e169375500012329d9,626b377229c10585ec392f89,626b3ab1856ab59e38b0bad8,,,,,,,,,,,,,,,,,,,,,,,,,,,,,,,,,,,,,,,,,,,,,,,,,,,,,I can depend on the aid,,0.7,0,1,995.3899,0,0,0,0,1,0,,,,
,5c6219e169375500012329d9,001,2022-04-29_03h09.20.994,classification_task,2021.2.3,Win32,60.03121623,5c6219e169375500012329d9,626b377229c10585ec392f89,626b3ab1856ab59e38b0bad8,,,,,,,,,,,,,,,,,,,,,,,,,,,,,,,,,,,,,,,,,,,,,,,,,,,,,I can rely on the aid to behave in consistent ways,,0.7,0,3,1000.4742,0,0,0,0,1,0,,,,
,5c6219e169375500012329d9,001,2022-04-29_03h09.20.994,classification_task,2021.2.3,Win32,60.03121623,5c6219e169375500012329d9,626b377229c10585ec392f89,626b3ab1856ab59e38b0bad8,,,,,,,,,,,,,,,,,,,,,,,,,,,,,,,,,,,,,,,,,,,,,,,,,,,,,I can rely on the aid to do its best every time I take its advice,,0.7,0,4,1007.8895,0,0,0,0,1,0,,,,
,5c6219e169375500012329d9,001,2022-04-29_03h09.20.994,classification_task,2021.2.3,Win32,60.03121623,5c6219e169375500012329d9,626b377229c10585ec392f89,626b3ab1856ab59e38b0bad8,,,,,,,,,,,,,,,,,,,,,,,,,,,,,,,,,,,,,,,,,,,,,,,,,,,,,"On trials you completed with assistance from the aid, how frequently did you think the aid was correct?",,0.7,0,50%,,0,0,0,0,1,0,,,,
,5c6219e169375500012329d9,001,2022-04-29_03h09.20.994,classification_task,2021.2.3,Win32,60.03121623,5c6219e169375500012329d9,626b377229c10585ec392f89,626b3ab1856ab59e38b0bad8,,,,,,,,,,,,,,,,,,,,,,,,,,,,,,,,,,,,,,,,,,,,,,,,,,,,,"On trials you completed without the aid, how frequently did you think you were correct?",,0.7,0,50%,,0,0,0,0,1,0,,,,
,5c6219e169375500012329d9,001,2022-04-29_03h09.20.994,classification_task,2021.2.3,Win32,60.03121623,5c6219e169375500012329d9,626b377229c10585ec392f89,626b3ab1856ab59e38b0bad8,,,,,,,,,,,,,,,,,,,,,,,,,,,,,,,,,,,,,,,,,,,,,,,,,,,,,,,,,,,0,0,0,0,1,,,,,
,5c6219e169375500012329d9,001,2022-04-29_03h09.20.994,classification_task,2021.2.3,Win32,60.03121623,5c6219e169375500012329d9,626b377229c10585ec392f89,626b3ab1856ab59e38b0bad8,,,,,,,,,,,,,,,,,,,,,,,,,,,,,,,,,,,,,,,,,,,,,,,,,,,,,,,,,,,,,,,,,d,12.9101,1035.8441,
,5c6219e169375500012329d9,001,2022-04-29_03h09.20.994,classification_task,2021.2.3,Win32,60.03121623,5c6219e169375500012329d9,626b377229c10585ec392f89,626b3ab1856ab59e38b0bad8,,,,,,,,,,,,,,,,,,,,,,,,,,,,,,,,,,,,,,,,,,,,,,,,,,,,,,,,,,,,,,,,,,,,"Mozilla/5.0 (Windows NT 10.0; Win64; x64) AppleWebKit/537.36 (KHTML, like Gecko) Chrome/99.0.4844.84 Safari/537.36 OPR/85.0.4341.72 (Edition Campaign 34)"
