usingWebGL,participant,session,date,expName,psychopyVersion,OS,frameRate,PROLIFIC_PID,STUDY_ID,SESSION_ID,signatures_friend,signatures_foe,band_ranges_top,band_ranges_bottom,formitemText,formtype,formundefined,formitemWidth,formindex,formresponse,formrt,key_resp_2.keys,key_resp_2.rt,tute_resp.keys,tute_resp.rt,tutorial.thisRepN,tutorial.thisTrialN,tutorial.thisN,tutorial.thisIndex,tutorial.ran,key_resp_4.keys,key_resp_4.rt,key_resp.keys,key_resp.corr,lines_presented,is_signal_presented,trials.thisRepN,trials.thisTrialN,trials.thisN,trials.thisIndex,trials.ran,vessel,active_band,lines,is_signal,supported_pos,catch_trial,key_resp.rt,debrief_formindex,debrief_formitemText,debrief_formtype,debrief_formitemWidth,debrief_formresponse,debrief_formrt,phases.thisRepN,phases.thisTrialN,phases.thisN,phases.thisIndex,phases.ran,phases.order,phase,key_resp_3.keys,trustitemText,trusttype,trustitemWidth,trustindex,trustresponse,trustrt,support_status.thisRepN,support_status.thisTrialN,support_status.thisN,support_status.thisIndex,support_status.ran,support_status.order,key_resp_5.keys,key_resp_5.rt,globalClockTime,userAgent
TRUE,5c67c986721d100001a8ebcc,001,2022-04-29_10h17.13.984,classification_task,2021.2.3,Win32,60.0348202,5c67c986721d100001a8ebcc,626b377229c10585ec392f8a,626b3c62fe3d26d4a30f1b30,,,,,,,,,,,,,,,,,,,,,,,,,,,,,,,,,,,,,,,,,,,,,,,,,,,,,,,,,,,,,,,,,,,,
,5c67c986721d100001a8ebcc,001,2022-04-29_10h17.13.984,classification_task,2021.2.3,Win32,60.0348202,5c67c986721d100001a8ebcc,626b377229c10585ec392f8a,626b3c62fe3d26d4a30f1b30,"[[""0.311"",""0.449"",""0.599"",""0.908""],[""0.232"",""0.561"",""0.762"",""0.973""]]","[[""0.102"",""0.187"",""0.637"",""0.814""],[""0.038"",""0.143"",""0.501"",""0.681""]]","[1,10]","[100,1000]",Video game experience,,,0.7,0,,,,,,,,,,,,,,,,,,,,,,,,,,,,,,,,,,,,,,,,,,,,,,,,,,,,,,,,,,,
,5c67c986721d100001a8ebcc,001,2022-04-29_10h17.13.984,classification_task,2021.2.3,Win32,60.0348202,5c67c986721d100001a8ebcc,626b377229c10585ec392f8a,626b3c62fe3d26d4a30f1b30,,,,,Approximately how many hours did you spend playing video games in the last week?,,,0.7,0,3,,,,,,,,,,,,,,,,,,,,,,,,,,,,,,,,,,,,,,,,,,,,,,,,,,,,,,,,,,
,5c67c986721d100001a8ebcc,001,2022-04-29_10h17.13.984,classification_task,2021.2.3,Win32,60.0348202,5c67c986721d100001a8ebcc,626b377229c10585ec392f8a,626b3c62fe3d26d4a30f1b30,,,,,"Which game did you play the most this year? (Enter ""None"" if you didn't play any)",,,0.7,0,"fortenite,battleunderground, zelda",,,,,,,,,,,,,,,,,,,,,,,,,,,,,,,,,,,,,,,,,,,,,,,,,,,,,,,,,,
,5c67c986721d100001a8ebcc,001,2022-04-29_10h17.13.984,classification_task,2021.2.3,Win32,60.0348202,5c67c986721d100001a8ebcc,626b377229c10585ec392f8a,626b3c62fe3d26d4a30f1b30,,,,,Visual perception,,,0.7,0,,,,,,,,,,,,,,,,,,,,,,,,,,,,,,,,,,,,,,,,,,,,,,,,,,,,,,,,,,,
,5c67c986721d100001a8ebcc,001,2022-04-29_10h17.13.984,classification_task,2021.2.3,Win32,60.0348202,5c67c986721d100001a8ebcc,626b377229c10585ec392f8a,626b3c62fe3d26d4a30f1b30,,,,,Do you have any form of color blindness?,,,0.7,0,No,35.2822,,,,,,,,,,,,,,,,,,,,,,,,,,,,,,,,,,,,,,,,,,,,,,,,,,,,,,,,,
,5c67c986721d100001a8ebcc,001,2022-04-29_10h17.13.984,classification_task,2021.2.3,Win32,60.0348202,5c67c986721d100001a8ebcc,626b377229c10585ec392f8a,626b3c62fe3d26d4a30f1b30,,,,,Do you use software to change the colour temperature of your screen (e.g. f.lux)?,,,0.7,0,No,36.8194,,,,,,,,,,,,,,,,,,,,,,,,,,,,,,,,,,,,,,,,,,,,,,,,,,,,,,,,,
,5c67c986721d100001a8ebcc,001,2022-04-29_10h17.13.984,classification_task,2021.2.3,Win32,60.0348202,5c67c986721d100001a8ebcc,626b377229c10585ec392f8a,626b3c62fe3d26d4a30f1b30,,,,,,,,,,,,space,46.9775,space,7.6039,0,0,0,0,1,,,,,,,,,,,,,,,,,,,,,,,,,,,,,,,,,,,,,,,,,,,,,,,,
,5c67c986721d100001a8ebcc,001,2022-04-29_10h17.13.984,classification_task,2021.2.3,Win32,60.0348202,5c67c986721d100001a8ebcc,626b377229c10585ec392f8a,626b3c62fe3d26d4a30f1b30,,,,,,,,,,,,,,space,12.968,1,0,1,0,1,,,,,,,,,,,,,,,,,,,,,,,,,,,,,,,,,,,,,,,,,,,,,,,,
,5c67c986721d100001a8ebcc,001,2022-04-29_10h17.13.984,classification_task,2021.2.3,Win32,60.0348202,5c67c986721d100001a8ebcc,626b377229c10585ec392f8a,626b3c62fe3d26d4a30f1b30,,,,,,,,,,,,,,space,14.3073,2,0,2,0,1,,,,,,,,,,,,,,,,,,,,,,,,,,,,,,,,,,,,,,,,,,,,,,,,
,5c67c986721d100001a8ebcc,001,2022-04-29_10h17.13.984,classification_task,2021.2.3,Win32,60.0348202,5c67c986721d100001a8ebcc,626b377229c10585ec392f8a,626b3c62fe3d26d4a30f1b30,,,,,,,,,,,,,,space,9.8837,3,0,3,0,1,,,,,,,,,,,,,,,,,,,,,,,,,,,,,,,,,,,,,,,,,,,,,,,,
,5c67c986721d100001a8ebcc,001,2022-04-29_10h17.13.984,classification_task,2021.2.3,Win32,60.0348202,5c67c986721d100001a8ebcc,626b377229c10585ec392f8a,626b3c62fe3d26d4a30f1b30,,,,,,,,,,,,,,space,16.1521,4,0,4,0,1,,,,,,,,,,,,,,,,,,,,,,,,,,,,,,,,,,,,,,,,,,,,,,,,
,5c67c986721d100001a8ebcc,001,2022-04-29_10h17.13.984,classification_task,2021.2.3,Win32,60.0348202,5c67c986721d100001a8ebcc,626b377229c10585ec392f8a,626b3c62fe3d26d4a30f1b30,,,,,,,,,,,,,,,,,,,,,space,6.698,,0,"[""0.356"",""0.187"",""0.637"",""0.814""]","[0,1,1,1]",0,0,0,0,1,1,0,,,1,FALSE,,,,,,,,,,,,,,,,,,,,,,,,,,,,,,,
,5c67c986721d100001a8ebcc,001,2022-04-29_10h17.13.984,classification_task,2021.2.3,Win32,60.0348202,5c67c986721d100001a8ebcc,626b377229c10585ec392f8a,626b3c62fe3d26d4a30f1b30,,,,,,,,,,,,,,,,,,,,,,,l,0,"[""0.232"",""0.561"",""0.762"",""0.345""]","[1,1,1,0]",0,1,1,1,1,0,1,,,1,FALSE,4.5334,,,,,,,,,,,,,,,,,,,,,,,,,,,,,,
,5c67c986721d100001a8ebcc,001,2022-04-29_10h17.13.984,classification_task,2021.2.3,Win32,60.0348202,5c67c986721d100001a8ebcc,626b377229c10585ec392f8a,626b3c62fe3d26d4a30f1b30,,,,,,,,,,,,,,,,,,,,,,,a,1,"[""0.865"",""0.449"",""0.599"",""0.908""]","[0,1,1,1]",0,2,2,2,1,0,0,,,1,FALSE,4.9138,,,,,,,,,,,,,,,,,,,,,,,,,,,,,,
,5c67c986721d100001a8ebcc,001,2022-04-29_10h17.13.984,classification_task,2021.2.3,Win32,60.0348202,5c67c986721d100001a8ebcc,626b377229c10585ec392f8a,626b3c62fe3d26d4a30f1b30,,,,,,,,,,,,,,,,,,,,,,,a,1,"[""0.311"",""0.449"",""0.599"",""0.410""]","[1,1,1,0]",0,3,3,3,1,0,0,,,1,FALSE,5.1831,,,,,,,,,,,,,,,,,,,,,,,,,,,,,,
,5c67c986721d100001a8ebcc,001,2022-04-29_10h17.13.984,classification_task,2021.2.3,Win32,60.0348202,5c67c986721d100001a8ebcc,626b377229c10585ec392f8a,626b3c62fe3d26d4a30f1b30,,,,,,,,,,,,,,,,,,,,,,,l,0,"[""0.345"",""0.561"",""0.762"",""0.973""]","[0,1,1,1]",0,4,4,4,1,0,1,,,1,FALSE,2.4289,,,,,,,,,,,,,,,,,,,,,,,,,,,,,,
,5c67c986721d100001a8ebcc,001,2022-04-29_10h17.13.984,classification_task,2021.2.3,Win32,60.0348202,5c67c986721d100001a8ebcc,626b377229c10585ec392f8a,626b3c62fe3d26d4a30f1b30,,,,,,,,,,,,,,,,,,,,,,,a,0,"[""0.038"",""0.143"",""0.501"",""0.379""]","[1,1,1,0]",0,5,5,5,1,1,1,,,1,FALSE,5.9156,,,,,,,,,,,,,,,,,,,,,,,,,,,,,,
,5c67c986721d100001a8ebcc,001,2022-04-29_10h17.13.984,classification_task,2021.2.3,Win32,60.0348202,5c67c986721d100001a8ebcc,626b377229c10585ec392f8a,626b3c62fe3d26d4a30f1b30,,,,,,,,,,,,,,,,,,,,,,,l,1,"[""0.359"",""0.143"",""0.501"",""0.681""]","[0,1,1,1]",0,6,6,6,1,1,1,,,1,FALSE,4.8986,,,,,,,,,,,,,,,,,,,,,,,,,,,,,,
,5c67c986721d100001a8ebcc,001,2022-04-29_10h17.13.984,classification_task,2021.2.3,Win32,60.0348202,5c67c986721d100001a8ebcc,626b377229c10585ec392f8a,626b3c62fe3d26d4a30f1b30,,,,,,,,,,,,,,,,,,,,,,,l,1,"[""0.038"",""0.270"",""0.501"",""0.681""]","[1,0,1,1]",0,7,7,7,1,1,1,,,1,FALSE,3.3818,,,,,,,,,,,,,,,,,,,,,,,,,,,,,,
,5c67c986721d100001a8ebcc,001,2022-04-29_10h17.13.984,classification_task,2021.2.3,Win32,60.0348202,5c67c986721d100001a8ebcc,626b377229c10585ec392f8a,626b3c62fe3d26d4a30f1b30,,,,,,,,,,,,,,,,,,,,,,,l,1,"[""0.102"",""0.867"",""0.637"",""0.814""]","[1,0,1,1]",0,8,8,8,1,1,0,,,1,FALSE,4.4304,,,,,,,,,,,,,,,,,,,,,,,,,,,,,,
,5c67c986721d100001a8ebcc,001,2022-04-29_10h17.13.984,classification_task,2021.2.3,Win32,60.0348202,5c67c986721d100001a8ebcc,626b377229c10585ec392f8a,626b3c62fe3d26d4a30f1b30,,,,,,,,,,,,,,,,,,,,,,,a,1,"[""0.311"",""0.449"",""0.410"",""0.908""]","[1,1,0,1]",0,9,9,9,1,0,0,,,1,FALSE,1.5484,,,,,,,,,,,,,,,,,,,,,,,,,,,,,,
,5c67c986721d100001a8ebcc,001,2022-04-29_10h17.13.984,classification_task,2021.2.3,Win32,60.0348202,5c67c986721d100001a8ebcc,626b377229c10585ec392f8a,626b3c62fe3d26d4a30f1b30,,,,,,,,,,,,,,,,,,,,,,,a,0,"[""0.102"",""0.187"",""0.637"",""0.365""]","[1,1,1,0]",0,10,10,10,1,1,0,,,1,FALSE,2.9834,,,,,,,,,,,,,,,,,,,,,,,,,,,,,,
,5c67c986721d100001a8ebcc,001,2022-04-29_10h17.13.984,classification_task,2021.2.3,Win32,60.0348202,5c67c986721d100001a8ebcc,626b377229c10585ec392f8a,626b3c62fe3d26d4a30f1b30,,,,,,,,,,,,,,,,,,,,,,,a,0,"[""0.038"",""0.143"",""0.410"",""0.681""]","[1,1,0,1]",0,11,11,11,1,1,1,,,1,FALSE,3.43,,,,,,,,,,,,,,,,,,,,,,,,,,,,,,
,5c67c986721d100001a8ebcc,001,2022-04-29_10h17.13.984,classification_task,2021.2.3,Win32,60.0348202,5c67c986721d100001a8ebcc,626b377229c10585ec392f8a,626b3c62fe3d26d4a30f1b30,,,,,,,,,,,,,,,,,,,,,,,l,0,"[""0.311"",""0.853"",""0.599"",""0.908""]","[1,0,1,1]",0,12,12,12,1,0,0,,,1,FALSE,1.8678,,,,,,,,,,,,,,,,,,,,,,,,,,,,,,
,5c67c986721d100001a8ebcc,001,2022-04-29_10h17.13.984,classification_task,2021.2.3,Win32,60.0348202,5c67c986721d100001a8ebcc,626b377229c10585ec392f8a,626b3c62fe3d26d4a30f1b30,,,,,,,,,,,,,,,,,,,,,,,a,1,"[""0.232"",""0.853"",""0.762"",""0.973""]","[1,0,1,1]",0,13,13,13,1,0,1,,,1,FALSE,3.8463,,,,,,,,,,,,,,,,,,,,,,,,,,,,,,
,5c67c986721d100001a8ebcc,001,2022-04-29_10h17.13.984,classification_task,2021.2.3,Win32,60.0348202,5c67c986721d100001a8ebcc,626b377229c10585ec392f8a,626b3c62fe3d26d4a30f1b30,,,,,,,,,,,,,,,,,,,,,,,a,1,"[""0.232"",""0.561"",""0.410"",""0.973""]","[1,1,0,1]",0,14,14,14,1,0,1,,,1,FALSE,5.1658,,,,,,,,,,,,,,,,,,,,,,,,,,,,,,
,5c67c986721d100001a8ebcc,001,2022-04-29_10h17.13.984,classification_task,2021.2.3,Win32,60.0348202,5c67c986721d100001a8ebcc,626b377229c10585ec392f8a,626b3c62fe3d26d4a30f1b30,,,,,,,,,,,,,,,,,,,,,,,a,0,"[""0.102"",""0.187"",""0.368"",""0.814""]","[1,1,0,1]",0,15,15,15,1,1,0,,,1,FALSE,4.7293,,,,,,,,,,,,,,,,,,,,,,,,,,,,,,
,5c67c986721d100001a8ebcc,001,2022-04-29_10h17.13.984,classification_task,2021.2.3,Win32,60.0348202,5c67c986721d100001a8ebcc,626b377229c10585ec392f8a,626b3c62fe3d26d4a30f1b30,,,,,,,,,,,,,,,,,,,,,,,l,1,"[""0.102"",""0.356"",""0.637"",""0.814""]","[1,0,1,1]",0,16,16,16,1,1,0,,,1,FALSE,1.6153,,,,,,,,,,,,,,,,,,,,,,,,,,,,,,
,5c67c986721d100001a8ebcc,001,2022-04-29_10h17.13.984,classification_task,2021.2.3,Win32,60.0348202,5c67c986721d100001a8ebcc,626b377229c10585ec392f8a,626b3c62fe3d26d4a30f1b30,,,,,,,,,,,,,,,,,,,,,,,a,1,"[""0.232"",""0.561"",""0.762"",""0.865""]","[1,1,1,0]",0,17,17,17,1,0,1,,,1,FALSE,2.8963,,,,,,,,,,,,,,,,,,,,,,,,,,,,,,
,5c67c986721d100001a8ebcc,001,2022-04-29_10h17.13.984,classification_task,2021.2.3,Win32,60.0348202,5c67c986721d100001a8ebcc,626b377229c10585ec392f8a,626b3c62fe3d26d4a30f1b30,,,,,,,,,,,,,,,,,,,,,,,a,0,"[""0.038"",""0.853"",""0.501"",""0.681""]","[1,0,1,1]",0,18,18,18,1,1,1,,,1,FALSE,1.6042,,,,,,,,,,,,,,,,,,,,,,,,,,,,,,
,5c67c986721d100001a8ebcc,001,2022-04-29_10h17.13.984,classification_task,2021.2.3,Win32,60.0348202,5c67c986721d100001a8ebcc,626b377229c10585ec392f8a,626b3c62fe3d26d4a30f1b30,,,,,,,,,,,,,,,,,,,,,,,l,1,"[""0.867"",""0.187"",""0.637"",""0.814""]","[0,1,1,1]",0,19,19,19,1,1,0,,,1,FALSE,0.4379,,,,,,,,,,,,,,,,,,,,,,,,,,,,,,
,5c67c986721d100001a8ebcc,001,2022-04-29_10h17.13.984,classification_task,2021.2.3,Win32,60.0348202,5c67c986721d100001a8ebcc,626b377229c10585ec392f8a,626b3c62fe3d26d4a30f1b30,,,,,,,,,,,,,,,,,,,,,,,l,0,"[""0.311"",""0.449"",""0.599"",""0.853""]","[1,1,1,0]",0,20,20,20,1,0,0,,,1,FALSE,0.3714,,,,,,,,,,,,,,,,,,,,,,,,,,,,,,
,5c67c986721d100001a8ebcc,001,2022-04-29_10h17.13.984,classification_task,2021.2.3,Win32,60.0348202,5c67c986721d100001a8ebcc,626b377229c10585ec392f8a,626b3c62fe3d26d4a30f1b30,,,,,,,,,,,,,,,,,,,,,,,a,1,"[""0.232"",""0.561"",""0.270"",""0.973""]","[1,1,0,1]",0,21,21,21,1,0,1,,,1,FALSE,0.3839,,,,,,,,,,,,,,,,,,,,,,,,,,,,,,
,5c67c986721d100001a8ebcc,001,2022-04-29_10h17.13.984,classification_task,2021.2.3,Win32,60.0348202,5c67c986721d100001a8ebcc,626b377229c10585ec392f8a,626b3c62fe3d26d4a30f1b30,,,,,,,,,,,,,,,,,,,,,,,a,1,"[""0.311"",""0.449"",""0.272"",""0.908""]","[1,1,0,1]",0,22,22,22,1,0,0,,,1,FALSE,1.5,,,,,,,,,,,,,,,,,,,,,,,,,,,,,,
,5c67c986721d100001a8ebcc,001,2022-04-29_10h17.13.984,classification_task,2021.2.3,Win32,60.0348202,5c67c986721d100001a8ebcc,626b377229c10585ec392f8a,626b3c62fe3d26d4a30f1b30,,,,,,,,,,,,,,,,,,,,,,,a,0,"[""0.365"",""0.143"",""0.501"",""0.681""]","[0,1,1,1]",0,23,23,23,1,1,1,,,1,FALSE,1.7512,,,,,,,,,,,,,,,,,,,,,,,,,,,,,,
,5c67c986721d100001a8ebcc,001,2022-04-29_10h17.13.984,classification_task,2021.2.3,Win32,60.0348202,5c67c986721d100001a8ebcc,626b377229c10585ec392f8a,626b3c62fe3d26d4a30f1b30,,,,,,,,,,,,,,,,,,,,,,,a,1,"[""0.368"",""0.561"",""0.762"",""0.973""]","[0,1,1,1]",0,24,24,24,1,0,1,,,1,FALSE,2.0821,,,,,,,,,,,,,,,,,,,,,,,,,,,,,,
,5c67c986721d100001a8ebcc,001,2022-04-29_10h17.13.984,classification_task,2021.2.3,Win32,60.0348202,5c67c986721d100001a8ebcc,626b377229c10585ec392f8a,626b3c62fe3d26d4a30f1b30,,,,,,,,,,,,,,,,,,,,,,,a,0,"[""0.102"",""0.187"",""0.637"",""0.272""]","[1,1,1,0]",0,25,25,25,1,1,0,,,1,FALSE,1.9504,,,,,,,,,,,,,,,,,,,,,,,,,,,,,,
,5c67c986721d100001a8ebcc,001,2022-04-29_10h17.13.984,classification_task,2021.2.3,Win32,60.0348202,5c67c986721d100001a8ebcc,626b377229c10585ec392f8a,626b3c62fe3d26d4a30f1b30,,,,,,,,,,,,,,,,,,,,,,,a,1,"[""0.867"",""0.449"",""0.599"",""0.908""]","[0,1,1,1]",0,26,26,26,1,0,0,,,1,FALSE,2.2354,,,,,,,,,,,,,,,,,,,,,,,,,,,,,,
,5c67c986721d100001a8ebcc,001,2022-04-29_10h17.13.984,classification_task,2021.2.3,Win32,60.0348202,5c67c986721d100001a8ebcc,626b377229c10585ec392f8a,626b3c62fe3d26d4a30f1b30,,,,,,,,,,,,,,,,,,,,,,,a,1,"[""0.311"",""0.272"",""0.599"",""0.908""]","[1,0,1,1]",0,27,27,27,1,0,0,,,1,FALSE,3.8759,,,,,,,,,,,,,,,,,,,,,,,,,,,,,,
,5c67c986721d100001a8ebcc,001,2022-04-29_10h17.13.984,classification_task,2021.2.3,Win32,60.0348202,5c67c986721d100001a8ebcc,626b377229c10585ec392f8a,626b3c62fe3d26d4a30f1b30,,,,,,,,,,,,,,,,,,,,,,,l,1,"[""0.038"",""0.143"",""0.865"",""0.681""]","[1,1,0,1]",0,28,28,28,1,1,1,,,1,FALSE,3.419,,,,,,,,,,,,,,,,,,,,,,,,,,,,,,
,5c67c986721d100001a8ebcc,001,2022-04-29_10h17.13.984,classification_task,2021.2.3,Win32,60.0348202,5c67c986721d100001a8ebcc,626b377229c10585ec392f8a,626b3c62fe3d26d4a30f1b30,,,,,,,,,,,,,,,,,,,,,,,a,1,"[""0.232"",""0.410"",""0.762"",""0.973""]","[1,0,1,1]",0,29,29,29,1,0,1,,,1,FALSE,2.6821,,,,,,,,,,,,,,,,,,,,,,,,,,,,,,
,5c67c986721d100001a8ebcc,001,2022-04-29_10h17.13.984,classification_task,2021.2.3,Win32,60.0348202,5c67c986721d100001a8ebcc,626b377229c10585ec392f8a,626b3c62fe3d26d4a30f1b30,,,,,,,,,,,,,,,,,,,,,,,a,0,"[""0.038"",""0.143"",""0.501"",""0.850""]","[1,1,1,0]",0,30,30,30,1,1,1,,,1,FALSE,3.033,,,,,,,,,,,,,,,,,,,,,,,,,,,,,,
,5c67c986721d100001a8ebcc,001,2022-04-29_10h17.13.984,classification_task,2021.2.3,Win32,60.0348202,5c67c986721d100001a8ebcc,626b377229c10585ec392f8a,626b3c62fe3d26d4a30f1b30,,,,,,,,,,,,,,,,,,,,,,,l,1,"[""0.102"",""0.187"",""0.864"",""0.814""]","[1,1,0,1]",0,31,31,31,1,1,0,,,1,FALSE,0.4459,,,,,,,,,,,,,,,,,,,,,,,,,,,,,,
,5c67c986721d100001a8ebcc,001,2022-04-29_10h17.13.984,classification_task,2021.2.3,Win32,60.0348202,5c67c986721d100001a8ebcc,626b377229c10585ec392f8a,626b3c62fe3d26d4a30f1b30,,,,,,,,,,,,,,,,,,,,,,,l,0,"[""0.311"",""0.449"",""0.850"",""0.908""]","[1,1,0,1]",0,32,32,32,1,0,0,,,1,FALSE,0.2854,,,,,,,,,,,,,,,,,,,,,,,,,,,,,,
,5c67c986721d100001a8ebcc,001,2022-04-29_10h17.13.984,classification_task,2021.2.3,Win32,60.0348202,5c67c986721d100001a8ebcc,626b377229c10585ec392f8a,626b3c62fe3d26d4a30f1b30,,,,,,,,,,,,,,,,,,,,,,,a,0,"[""0.350"",""0.187"",""0.637"",""0.814""]","[0,1,1,1]",0,33,33,33,1,1,0,,,1,FALSE,0.8575,,,,,,,,,,,,,,,,,,,,,,,,,,,,,,
,5c67c986721d100001a8ebcc,001,2022-04-29_10h17.13.984,classification_task,2021.2.3,Win32,60.0348202,5c67c986721d100001a8ebcc,626b377229c10585ec392f8a,626b3c62fe3d26d4a30f1b30,,,,,,,,,,,,,,,,,,,,,,,l,0,"[""0.232"",""0.561"",""0.272"",""0.973""]","[1,1,0,1]",0,34,34,34,1,0,1,,,1,FALSE,4.7354,,,,,,,,,,,,,,,,,,,,,,,,,,,,,,
,5c67c986721d100001a8ebcc,001,2022-04-29_10h17.13.984,classification_task,2021.2.3,Win32,60.0348202,5c67c986721d100001a8ebcc,626b377229c10585ec392f8a,626b3c62fe3d26d4a30f1b30,,,,,,,,,,,,,,,,,,,,,,,a,0,"[""0.102"",""0.187"",""0.637"",""0.379""]","[1,1,1,0]",0,35,35,35,1,1,0,,,1,FALSE,2.9663,,,,,,,,,,,,,,,,,,,,,,,,,,,,,,
,5c67c986721d100001a8ebcc,001,2022-04-29_10h17.13.984,classification_task,2021.2.3,Win32,60.0348202,5c67c986721d100001a8ebcc,626b377229c10585ec392f8a,626b3c62fe3d26d4a30f1b30,,,,,,,,,,,,,,,,,,,,,,,l,0,"[""0.350"",""0.561"",""0.762"",""0.973""]","[0,1,1,1]",0,36,36,36,1,0,1,,,1,FALSE,0.4389,,,,,,,,,,,,,,,,,,,,,,,,,,,,,,
,5c67c986721d100001a8ebcc,001,2022-04-29_10h17.13.984,classification_task,2021.2.3,Win32,60.0348202,5c67c986721d100001a8ebcc,626b377229c10585ec392f8a,626b3c62fe3d26d4a30f1b30,,,,,,,,,,,,,,,,,,,,,,,a,0,"[""0.379"",""0.143"",""0.501"",""0.681""]","[0,1,1,1]",0,37,37,37,1,1,1,,,1,FALSE,0.1005,,,,,,,,,,,,,,,,,,,,,,,,,,,,,,
,5c67c986721d100001a8ebcc,001,2022-04-29_10h17.13.984,classification_task,2021.2.3,Win32,60.0348202,5c67c986721d100001a8ebcc,626b377229c10585ec392f8a,626b3c62fe3d26d4a30f1b30,,,,,,,,,,,,,,,,,,,,,,,a,0,"[""0.038"",""0.143"",""0.501"",""0.864""]","[1,1,1,0]",0,38,38,38,1,1,1,,,1,FALSE,0.1504,,,,,,,,,,,,,,,,,,,,,,,,,,,,,,
,5c67c986721d100001a8ebcc,001,2022-04-29_10h17.13.984,classification_task,2021.2.3,Win32,60.0348202,5c67c986721d100001a8ebcc,626b377229c10585ec392f8a,626b3c62fe3d26d4a30f1b30,,,,,,,,,,,,,,,,,,,,,,,a,1,"[""0.850"",""0.449"",""0.599"",""0.908""]","[0,1,1,1]",0,39,39,39,1,0,0,,,1,FALSE,1.2035,,,,,,,,,,,,,,,,,,,,,,,,,,,,,,
,5c67c986721d100001a8ebcc,001,2022-04-29_10h17.13.984,classification_task,2021.2.3,Win32,60.0348202,5c67c986721d100001a8ebcc,626b377229c10585ec392f8a,626b3c62fe3d26d4a30f1b30,,,,,,,,,,,,,,,,,,,,,,,a,0,"[""0.102"",""0.187"",""0.867"",""0.814""]","[1,1,0,1]",0,40,40,40,1,1,0,,,1,FALSE,1.2591,,,,,,,,,,,,,,,,,,,,,,,,,,,,,,
,5c67c986721d100001a8ebcc,001,2022-04-29_10h17.13.984,classification_task,2021.2.3,Win32,60.0348202,5c67c986721d100001a8ebcc,626b377229c10585ec392f8a,626b3c62fe3d26d4a30f1b30,,,,,,,,,,,,,,,,,,,,,,,l,0,"[""0.232"",""0.270"",""0.762"",""0.973""]","[1,0,1,1]",0,41,41,41,1,0,1,,,1,FALSE,0.8084,,,,,,,,,,,,,,,,,,,,,,,,,,,,,,
,5c67c986721d100001a8ebcc,001,2022-04-29_10h17.13.984,classification_task,2021.2.3,Win32,60.0348202,5c67c986721d100001a8ebcc,626b377229c10585ec392f8a,626b3c62fe3d26d4a30f1b30,,,,,,,,,,,,,,,,,,,,,,,l,1,"[""0.038"",""0.345"",""0.501"",""0.681""]","[1,0,1,1]",0,42,42,42,1,1,1,,,1,FALSE,0.7035,,,,,,,,,,,,,,,,,,,,,,,,,,,,,,
,5c67c986721d100001a8ebcc,001,2022-04-29_10h17.13.984,classification_task,2021.2.3,Win32,60.0348202,5c67c986721d100001a8ebcc,626b377229c10585ec392f8a,626b3c62fe3d26d4a30f1b30,,,,,,,,,,,,,,,,,,,,,,,l,1,"[""0.038"",""0.143"",""0.853"",""0.681""]","[1,1,0,1]",0,43,43,43,1,1,1,,,1,FALSE,0.8348,,,,,,,,,,,,,,,,,,,,,,,,,,,,,,
,5c67c986721d100001a8ebcc,001,2022-04-29_10h17.13.984,classification_task,2021.2.3,Win32,60.0348202,5c67c986721d100001a8ebcc,626b377229c10585ec392f8a,626b3c62fe3d26d4a30f1b30,,,,,,,,,,,,,,,,,,,,,,,l,0,"[""0.311"",""0.865"",""0.599"",""0.908""]","[1,0,1,1]",0,44,44,44,1,0,0,,,1,FALSE,0.8173,,,,,,,,,,,,,,,,,,,,,,,,,,,,,,
,5c67c986721d100001a8ebcc,001,2022-04-29_10h17.13.984,classification_task,2021.2.3,Win32,60.0348202,5c67c986721d100001a8ebcc,626b377229c10585ec392f8a,626b3c62fe3d26d4a30f1b30,,,,,,,,,,,,,,,,,,,,,,,a,0,"[""0.102"",""0.865"",""0.637"",""0.814""]","[1,0,1,1]",0,45,45,45,1,1,0,,,1,FALSE,0.0553,,,,,,,,,,,,,,,,,,,,,,,,,,,,,,
,5c67c986721d100001a8ebcc,001,2022-04-29_10h17.13.984,classification_task,2021.2.3,Win32,60.0348202,5c67c986721d100001a8ebcc,626b377229c10585ec392f8a,626b3c62fe3d26d4a30f1b30,,,,,,,,,,,,,,,,,,,,,,,a,1,"[""0.232"",""0.561"",""0.762"",""0.359""]","[1,1,1,0]",0,46,46,46,1,0,1,,,1,FALSE,0.0526,,,,,,,,,,,,,,,,,,,,,,,,,,,,,,
,5c67c986721d100001a8ebcc,001,2022-04-29_10h17.13.984,classification_task,2021.2.3,Win32,60.0348202,5c67c986721d100001a8ebcc,626b377229c10585ec392f8a,626b3c62fe3d26d4a30f1b30,,,,,,,,,,,,,,,,,,,,,,,a,1,"[""0.311"",""0.449"",""0.599"",""0.853""]","[1,1,1,0]",0,47,47,47,1,0,0,,,1,FALSE,1.7211,,,,,,,,,,,,,,,,,,,,,,,,,,,,,,
,5c67c986721d100001a8ebcc,001,2022-04-29_10h17.13.984,classification_task,2021.2.3,Win32,60.0348202,5c67c986721d100001a8ebcc,626b377229c10585ec392f8a,626b3c62fe3d26d4a30f1b30,,,,,,,,,,,,,,,,,,,,,,,a,1,"[""0.311"",""0.449"",""0.368"",""0.908""]","[1,1,0,1]",0,48,48,48,1,0,0,,,1,FALSE,0.6193,,,,,,,,,,,,,,,,,,,,,,,,,,,,,,
,5c67c986721d100001a8ebcc,001,2022-04-29_10h17.13.984,classification_task,2021.2.3,Win32,60.0348202,5c67c986721d100001a8ebcc,626b377229c10585ec392f8a,626b3c62fe3d26d4a30f1b30,,,,,,,,,,,,,,,,,,,,,,,l,1,"[""0.038"",""0.143"",""0.359"",""0.681""]","[1,1,0,1]",0,49,49,49,1,1,1,,,1,FALSE,2.0998,,,,,,,,,,,,,,,,,,,,,,,,,,,,,,
,5c67c986721d100001a8ebcc,001,2022-04-29_10h17.13.984,classification_task,2021.2.3,Win32,60.0348202,5c67c986721d100001a8ebcc,626b377229c10585ec392f8a,626b3c62fe3d26d4a30f1b30,,,,,,,,,,,,,,,,,,,,,,,a,1,"[""0.232"",""0.561"",""0.365"",""0.973""]","[1,1,0,1]",0,50,50,50,1,0,1,,,1,FALSE,1.8544,,,,,,,,,,,,,,,,,,,,,,,,,,,,,,
,5c67c986721d100001a8ebcc,001,2022-04-29_10h17.13.984,classification_task,2021.2.3,Win32,60.0348202,5c67c986721d100001a8ebcc,626b377229c10585ec392f8a,626b3c62fe3d26d4a30f1b30,,,,,,,,,,,,,,,,,,,,,,,a,1,"[""0.365"",""0.561"",""0.762"",""0.973""]","[0,1,1,1]",0,51,51,51,1,0,1,,,1,FALSE,2.5486,,,,,,,,,,,,,,,,,,,,,,,,,,,,,,
,5c67c986721d100001a8ebcc,001,2022-04-29_10h17.13.984,classification_task,2021.2.3,Win32,60.0348202,5c67c986721d100001a8ebcc,626b377229c10585ec392f8a,626b3c62fe3d26d4a30f1b30,,,,,,,,,,,,,,,,,,,,,,,a,1,"[""0.232"",""0.867"",""0.762"",""0.973""]","[1,0,1,1]",0,52,52,52,1,0,1,,,1,FALSE,2.0828,,,,,,,,,,,,,,,,,,,,,,,,,,,,,,
,5c67c986721d100001a8ebcc,001,2022-04-29_10h17.13.984,classification_task,2021.2.3,Win32,60.0348202,5c67c986721d100001a8ebcc,626b377229c10585ec392f8a,626b3c62fe3d26d4a30f1b30,,,,,,,,,,,,,,,,,,,,,,,a,0,"[""0.038"",""0.850"",""0.501"",""0.681""]","[1,0,1,1]",0,53,53,53,1,1,1,,,1,FALSE,1.1763,,,,,,,,,,,,,,,,,,,,,,,,,,,,,,
,5c67c986721d100001a8ebcc,001,2022-04-29_10h17.13.984,classification_task,2021.2.3,Win32,60.0348202,5c67c986721d100001a8ebcc,626b377229c10585ec392f8a,626b3c62fe3d26d4a30f1b30,,,,,,,,,,,,,,,,,,,,,,,l,0,"[""0.311"",""0.449"",""0.599"",""0.359""]","[1,1,1,0]",0,54,54,54,1,0,0,,,1,FALSE,1.3052,,,,,,,,,,,,,,,,,,,,,,,,,,,,,,
,5c67c986721d100001a8ebcc,001,2022-04-29_10h17.13.984,classification_task,2021.2.3,Win32,60.0348202,5c67c986721d100001a8ebcc,626b377229c10585ec392f8a,626b3c62fe3d26d4a30f1b30,,,,,,,,,,,,,,,,,,,,,,,l,0,"[""0.350"",""0.449"",""0.599"",""0.908""]","[0,1,1,1]",0,55,55,55,1,0,0,,,1,FALSE,1.2171,,,,,,,,,,,,,,,,,,,,,,,,,,,,,,
,5c67c986721d100001a8ebcc,001,2022-04-29_10h17.13.984,classification_task,2021.2.3,Win32,60.0348202,5c67c986721d100001a8ebcc,626b377229c10585ec392f8a,626b3c62fe3d26d4a30f1b30,,,,,,,,,,,,,,,,,,,,,,,l,1,"[""0.368"",""0.143"",""0.501"",""0.681""]","[0,1,1,1]",0,56,56,56,1,1,1,,,1,FALSE,1.1654,,,,,,,,,,,,,,,,,,,,,,,,,,,,,,
,5c67c986721d100001a8ebcc,001,2022-04-29_10h17.13.984,classification_task,2021.2.3,Win32,60.0348202,5c67c986721d100001a8ebcc,626b377229c10585ec392f8a,626b3c62fe3d26d4a30f1b30,,,,,,,,,,,,,,,,,,,,,,,a,0,"[""0.038"",""0.143"",""0.501"",""0.865""]","[1,1,1,0]",0,57,57,57,1,1,1,,,1,FALSE,1.034,,,,,,,,,,,,,,,,,,,,,,,,,,,,,,
,5c67c986721d100001a8ebcc,001,2022-04-29_10h17.13.984,classification_task,2021.2.3,Win32,60.0348202,5c67c986721d100001a8ebcc,626b377229c10585ec392f8a,626b3c62fe3d26d4a30f1b30,,,,,,,,,,,,,,,,,,,,,,,a,0,"[""0.102"",""0.187"",""0.345"",""0.814""]","[1,1,0,1]",0,58,58,58,1,1,0,,,1,FALSE,1.9668,,,,,,,,,,,,,,,,,,,,,,,,,,,,,,
,5c67c986721d100001a8ebcc,001,2022-04-29_10h17.13.984,classification_task,2021.2.3,Win32,60.0348202,5c67c986721d100001a8ebcc,626b377229c10585ec392f8a,626b3c62fe3d26d4a30f1b30,,,,,,,,,,,,,,,,,,,,,,,l,0,"[""0.311"",""0.853"",""0.599"",""0.908""]","[1,0,1,1]",0,59,59,59,1,0,0,,,1,FALSE,0.7673,,,,,,,,,,,,,,,,,,,,,,,,,,,,,,
,5c67c986721d100001a8ebcc,001,2022-04-29_10h17.13.984,classification_task,2021.2.3,Win32,60.0348202,5c67c986721d100001a8ebcc,626b377229c10585ec392f8a,626b3c62fe3d26d4a30f1b30,,,,,,,,,,,,,,,,,,,,,,,l,1,"[""0.865"",""0.187"",""0.637"",""0.814""]","[0,1,1,1]",0,60,60,60,1,1,0,,,1,FALSE,1.1226,,,,,,,,,,,,,,,,,,,,,,,,,,,,,,
,5c67c986721d100001a8ebcc,001,2022-04-29_10h17.13.984,classification_task,2021.2.3,Win32,60.0348202,5c67c986721d100001a8ebcc,626b377229c10585ec392f8a,626b3c62fe3d26d4a30f1b30,,,,,,,,,,,,,,,,,,,,,,,l,0,"[""0.232"",""0.561"",""0.762"",""0.865""]","[1,1,1,0]",0,61,61,61,1,0,1,,,1,FALSE,1.2347,,,,,,,,,,,,,,,,,,,,,,,,,,,,,,
,5c67c986721d100001a8ebcc,001,2022-04-29_10h17.13.984,classification_task,2021.2.3,Win32,60.0348202,5c67c986721d100001a8ebcc,626b377229c10585ec392f8a,626b3c62fe3d26d4a30f1b30,,,,,,,,,,,,,,,,,,,,,,,l,1,"[""0.102"",""0.187"",""0.637"",""0.850""]","[1,1,1,0]",0,62,62,62,1,1,0,,,1,FALSE,0.7394,,,,,,,,,,,,,,,,,,,,,,,,,,,,,,
,5c67c986721d100001a8ebcc,001,2022-04-29_10h17.13.984,classification_task,2021.2.3,Win32,60.0348202,5c67c986721d100001a8ebcc,626b377229c10585ec392f8a,626b3c62fe3d26d4a30f1b30,,,,,,,,,,,,,,,,,,,,,,,a,0,"[""0.102"",""0.864"",""0.637"",""0.814""]","[1,0,1,1]",0,63,63,63,1,1,0,,,1,FALSE,0.9575,,,,,,,,,,,,,,,,,,,,,,,,,,,,,,
,5c67c986721d100001a8ebcc,001,2022-04-29_10h17.13.984,classification_task,2021.2.3,Win32,60.0348202,5c67c986721d100001a8ebcc,626b377229c10585ec392f8a,626b3c62fe3d26d4a30f1b30,,,,,,,,,,,,,,,,,,,,,,,,,,,,,,,,,,,,,,,0, ,,0,9.711677239,377.3126,0,0,0,0,1,2,1,,,,,,,,,,,,,,,,,
,5c67c986721d100001a8ebcc,001,2022-04-29_10h17.13.984,classification_task,2021.2.3,Win32,60.0348202,5c67c986721d100001a8ebcc,626b377229c10585ec392f8a,626b3c62fe3d26d4a30f1b30,,,,,,,,,,,,,,,,,,,,,,,,,,,,,,,,,,,,,,,1,  ,,0,8.873102862,382.5278,0,0,0,0,1,2,1,,,,,,,,,,,,,,,,,
,5c67c986721d100001a8ebcc,001,2022-04-29_10h17.13.984,classification_task,2021.2.3,Win32,60.0348202,5c67c986721d100001a8ebcc,626b377229c10585ec392f8a,626b3c62fe3d26d4a30f1b30,,,,,,,,,,,,,,,,,,,,,,,,,,,,,,,,,,,,,,,2,  ,,0,9.971236584,384.6576,0,0,0,0,1,2,1,,,,,,,,,,,,,,,,,
,5c67c986721d100001a8ebcc,001,2022-04-29_10h17.13.984,classification_task,2021.2.3,Win32,60.0348202,5c67c986721d100001a8ebcc,626b377229c10585ec392f8a,626b3c62fe3d26d4a30f1b30,,,,,,,,,,,,,,,,,,,,,,,,,,,,,,,,,,,,,,,,,,,,,0,0,0,0,1,,1,,,,,,,,,,,,,,,,,
,5c67c986721d100001a8ebcc,001,2022-04-29_10h17.13.984,classification_task,2021.2.3,Win32,60.0348202,5c67c986721d100001a8ebcc,626b377229c10585ec392f8a,626b3c62fe3d26d4a30f1b30,,,,,,,,,,,,,,,,,,,,,space,10.424,l,1,"[""0.853"",""0.187"",""0.637"",""0.814""]","[0,1,1,1]",0,0,0,0,1,1,0,,,1,FALSE,4.1626,,,,,,,,,,,,,,,,,,,,,,,,,,,,,,
,5c67c986721d100001a8ebcc,001,2022-04-29_10h17.13.984,classification_task,2021.2.3,Win32,60.0348202,5c67c986721d100001a8ebcc,626b377229c10585ec392f8a,626b3c62fe3d26d4a30f1b30,,,,,,,,,,,,,,,,,,,,,,,a,1,"[""0.232"",""0.864"",""0.762"",""0.973""]","[1,0,1,1]",0,1,1,1,1,0,1,,,1,FALSE,2.0332,,,,,,,,,,,,,,,,,,,,,,,,,,,,,,
,5c67c986721d100001a8ebcc,001,2022-04-29_10h17.13.984,classification_task,2021.2.3,Win32,60.0348202,5c67c986721d100001a8ebcc,626b377229c10585ec392f8a,626b3c62fe3d26d4a30f1b30,,,,,,,,,,,,,,,,,,,,,,,a,1,"[""0.232"",""0.561"",""0.762"",""0.864""]","[1,1,1,0]",0,2,2,2,1,0,1,,,1,FALSE,0.8646,,,,,,,,,,,,,,,,,,,,,,,,,,,,,,
,5c67c986721d100001a8ebcc,001,2022-04-29_10h17.13.984,classification_task,2021.2.3,Win32,60.0348202,5c67c986721d100001a8ebcc,626b377229c10585ec392f8a,626b3c62fe3d26d4a30f1b30,,,,,,,,,,,,,,,,,,,,,,,l,0,"[""0.311"",""0.356"",""0.599"",""0.908""]","[1,0,1,1]",0,3,3,3,1,0,0,,,1,FALSE,0.7999,,,,,,,,,,,,,,,,,,,,,,,,,,,,,,
,5c67c986721d100001a8ebcc,001,2022-04-29_10h17.13.984,classification_task,2021.2.3,Win32,60.0348202,5c67c986721d100001a8ebcc,626b377229c10585ec392f8a,626b3c62fe3d26d4a30f1b30,,,,,,,,,,,,,,,,,,,,,,,l,1,"[""0.038"",""0.143"",""0.379"",""0.681""]","[1,1,0,1]",0,4,4,4,1,1,1,,,1,FALSE,0.9526,,,,,,,,,,,,,,,,,,,,,,,,,,,,,,
,5c67c986721d100001a8ebcc,001,2022-04-29_10h17.13.984,classification_task,2021.2.3,Win32,60.0348202,5c67c986721d100001a8ebcc,626b377229c10585ec392f8a,626b3c62fe3d26d4a30f1b30,,,,,,,,,,,,,,,,,,,,,,,a,1,"[""0.270"",""0.561"",""0.762"",""0.973""]","[0,1,1,1]",0,5,5,5,1,0,1,,,1,FALSE,0.7375,,,,,,,,,,,,,,,,,,,,,,,,,,,,,,
,5c67c986721d100001a8ebcc,001,2022-04-29_10h17.13.984,classification_task,2021.2.3,Win32,60.0348202,5c67c986721d100001a8ebcc,626b377229c10585ec392f8a,626b3c62fe3d26d4a30f1b30,,,,,,,,,,,,,,,,,,,,,,,l,1,"[""0.355"",""0.143"",""0.501"",""0.681""]","[0,1,1,1]",0,6,6,6,1,1,1,,,1,FALSE,1.1088,,,,,,,,,,,,,,,,,,,,,,,,,,,,,,
,5c67c986721d100001a8ebcc,001,2022-04-29_10h17.13.984,classification_task,2021.2.3,Win32,60.0348202,5c67c986721d100001a8ebcc,626b377229c10585ec392f8a,626b3c62fe3d26d4a30f1b30,,,,,,,,,,,,,,,,,,,,,,,a,1,"[""0.232"",""0.561"",""0.272"",""0.973""]","[1,1,0,1]",0,7,7,7,1,0,1,,,1,FALSE,0.8232,,,,,,,,,,,,,,,,,,,,,,,,,,,,,,
,5c67c986721d100001a8ebcc,001,2022-04-29_10h17.13.984,classification_task,2021.2.3,Win32,60.0348202,5c67c986721d100001a8ebcc,626b377229c10585ec392f8a,626b3c62fe3d26d4a30f1b30,,,,,,,,,,,,,,,,,,,,,,,l,1,"[""0.038"",""0.143"",""0.501"",""0.270""]","[1,1,1,0]",0,8,8,8,1,1,1,,,1,FALSE,0.7575,,,,,,,,,,,,,,,,,,,,,,,,,,,,,,
,5c67c986721d100001a8ebcc,001,2022-04-29_10h17.13.984,classification_task,2021.2.3,Win32,60.0348202,5c67c986721d100001a8ebcc,626b377229c10585ec392f8a,626b3c62fe3d26d4a30f1b30,,,,,,,,,,,,,,,,,,,,,,,l,0,"[""0.311"",""0.449"",""0.867"",""0.908""]","[1,1,0,1]",0,9,9,9,1,0,0,,,1,FALSE,0.8396,,,,,,,,,,,,,,,,,,,,,,,,,,,,,,
,5c67c986721d100001a8ebcc,001,2022-04-29_10h17.13.984,classification_task,2021.2.3,Win32,60.0348202,5c67c986721d100001a8ebcc,626b377229c10585ec392f8a,626b3c62fe3d26d4a30f1b30,,,,,,,,,,,,,,,,,,,,,,,a,1,"[""0.350"",""0.449"",""0.599"",""0.908""]","[0,1,1,1]",0,10,10,10,1,0,0,,,1,FALSE,0.4169,,,,,,,,,,,,,,,,,,,,,,,,,,,,,,
,5c67c986721d100001a8ebcc,001,2022-04-29_10h17.13.984,classification_task,2021.2.3,Win32,60.0348202,5c67c986721d100001a8ebcc,626b377229c10585ec392f8a,626b3c62fe3d26d4a30f1b30,,,,,,,,,,,,,,,,,,,,,,,a,0,"[""0.102"",""0.867"",""0.637"",""0.814""]","[1,0,1,1]",0,11,11,11,1,1,0,,,1,FALSE,0.8916,,,,,,,,,,,,,,,,,,,,,,,,,,,,,,
,5c67c986721d100001a8ebcc,001,2022-04-29_10h17.13.984,classification_task,2021.2.3,Win32,60.0348202,5c67c986721d100001a8ebcc,626b377229c10585ec392f8a,626b3c62fe3d26d4a30f1b30,,,,,,,,,,,,,,,,,,,,,,,l,1,"[""0.038"",""0.867"",""0.501"",""0.681""]","[1,0,1,1]",0,12,12,12,1,1,1,,,1,FALSE,1.2876,,,,,,,,,,,,,,,,,,,,,,,,,,,,,,
,5c67c986721d100001a8ebcc,001,2022-04-29_10h17.13.984,classification_task,2021.2.3,Win32,60.0348202,5c67c986721d100001a8ebcc,626b377229c10585ec392f8a,626b3c62fe3d26d4a30f1b30,,,,,,,,,,,,,,,,,,,,,,,a,0,"[""0.102"",""0.187"",""0.865"",""0.814""]","[1,1,0,1]",0,13,13,13,1,1,0,,,1,FALSE,1.1339,,,,,,,,,,,,,,,,,,,,,,,,,,,,,,
,5c67c986721d100001a8ebcc,001,2022-04-29_10h17.13.984,classification_task,2021.2.3,Win32,60.0348202,5c67c986721d100001a8ebcc,626b377229c10585ec392f8a,626b3c62fe3d26d4a30f1b30,,,,,,,,,,,,,,,,,,,,,,,l,0,"[""0.311"",""0.449"",""0.599"",""0.368""]","[1,1,1,0]",0,14,14,14,1,0,0,,,1,FALSE,0.5413,,,,,,,,,,,,,,,,,,,,,,,,,,,,,,
,5c67c986721d100001a8ebcc,001,2022-04-29_10h17.13.984,classification_task,2021.2.3,Win32,60.0348202,5c67c986721d100001a8ebcc,626b377229c10585ec392f8a,626b3c62fe3d26d4a30f1b30,,,,,,,,,,,,,,,,,,,,,,,a,0,"[""0.102"",""0.187"",""0.637"",""0.356""]","[1,1,1,0]",0,15,15,15,1,1,0,,,1,FALSE,0.7519,,,,,,,,,,,,,,,,,,,,,,,,,,,,,,
,5c67c986721d100001a8ebcc,001,2022-04-29_10h17.13.984,classification_task,2021.2.3,Win32,60.0348202,5c67c986721d100001a8ebcc,626b377229c10585ec392f8a,626b3c62fe3d26d4a30f1b30,,,,,,,,,,,,,,,,,,,,,,,l,1,"[""0.410"",""0.143"",""0.501"",""0.681""]","[0,1,1,1]",0,16,16,16,1,1,1,,,1,FALSE,0.9502,,,,,,,,,,,,,,,,,,,,,,,,,,,,,,
,5c67c986721d100001a8ebcc,001,2022-04-29_10h17.13.984,classification_task,2021.2.3,Win32,60.0348202,5c67c986721d100001a8ebcc,626b377229c10585ec392f8a,626b3c62fe3d26d4a30f1b30,,,,,,,,,,,,,,,,,,,,,,,a,1,"[""0.232"",""0.561"",""0.853"",""0.973""]","[1,1,0,1]",0,17,17,17,1,0,1,,,1,FALSE,0.6842,,,,,,,,,,,,,,,,,,,,,,,,,,,,,,
,5c67c986721d100001a8ebcc,001,2022-04-29_10h17.13.984,classification_task,2021.2.3,Win32,60.0348202,5c67c986721d100001a8ebcc,626b377229c10585ec392f8a,626b3c62fe3d26d4a30f1b30,,,,,,,,,,,,,,,,,,,,,,,l,1,"[""0.038"",""0.864"",""0.501"",""0.681""]","[1,0,1,1]",0,18,18,18,1,1,1,,,1,FALSE,0.584,,,,,,,,,,,,,,,,,,,,,,,,,,,,,,
,5c67c986721d100001a8ebcc,001,2022-04-29_10h17.13.984,classification_task,2021.2.3,Win32,60.0348202,5c67c986721d100001a8ebcc,626b377229c10585ec392f8a,626b3c62fe3d26d4a30f1b30,,,,,,,,,,,,,,,,,,,,,,,a,1,"[""0.232"",""0.561"",""0.762"",""0.379""]","[1,1,1,0]",0,19,19,19,1,0,1,,,1,FALSE,0.7178,,,,,,,,,,,,,,,,,,,,,,,,,,,,,,
,5c67c986721d100001a8ebcc,001,2022-04-29_10h17.13.984,classification_task,2021.2.3,Win32,60.0348202,5c67c986721d100001a8ebcc,626b377229c10585ec392f8a,626b3c62fe3d26d4a30f1b30,,,,,,,,,,,,,,,,,,,,,,,l,0,"[""0.311"",""0.449"",""0.599"",""0.359""]","[1,1,1,0]",0,20,20,20,1,0,0,,,1,FALSE,0.6666,,,,,,,,,,,,,,,,,,,,,,,,,,,,,,
,5c67c986721d100001a8ebcc,001,2022-04-29_10h17.13.984,classification_task,2021.2.3,Win32,60.0348202,5c67c986721d100001a8ebcc,626b377229c10585ec392f8a,626b3c62fe3d26d4a30f1b30,,,,,,,,,,,,,,,,,,,,,,,a,1,"[""0.232"",""0.356"",""0.762"",""0.973""]","[1,0,1,1]",0,21,21,21,1,0,1,,,1,FALSE,1.1505,,,,,,,,,,,,,,,,,,,,,,,,,,,,,,
,5c67c986721d100001a8ebcc,001,2022-04-29_10h17.13.984,classification_task,2021.2.3,Win32,60.0348202,5c67c986721d100001a8ebcc,626b377229c10585ec392f8a,626b3c62fe3d26d4a30f1b30,,,,,,,,,,,,,,,,,,,,,,,l,1,"[""0.102"",""0.187"",""0.637"",""0.270""]","[1,1,1,0]",0,22,22,22,1,1,0,,,1,FALSE,0.7102,,,,,,,,,,,,,,,,,,,,,,,,,,,,,,
,5c67c986721d100001a8ebcc,001,2022-04-29_10h17.13.984,classification_task,2021.2.3,Win32,60.0348202,5c67c986721d100001a8ebcc,626b377229c10585ec392f8a,626b3c62fe3d26d4a30f1b30,,,,,,,,,,,,,,,,,,,,,,,a,0,"[""0.102"",""0.187"",""0.853"",""0.814""]","[1,1,0,1]",0,23,23,23,1,1,0,,,1,FALSE,0.8892,,,,,,,,,,,,,,,,,,,,,,,,,,,,,,
,5c67c986721d100001a8ebcc,001,2022-04-29_10h17.13.984,classification_task,2021.2.3,Win32,60.0348202,5c67c986721d100001a8ebcc,626b377229c10585ec392f8a,626b3c62fe3d26d4a30f1b30,,,,,,,,,,,,,,,,,,,,,,,l,1,"[""0.038"",""0.143"",""0.368"",""0.681""]","[1,1,0,1]",0,24,24,24,1,1,1,,,1,FALSE,0.9338,,,,,,,,,,,,,,,,,,,,,,,,,,,,,,
,5c67c986721d100001a8ebcc,001,2022-04-29_10h17.13.984,classification_task,2021.2.3,Win32,60.0348202,5c67c986721d100001a8ebcc,626b377229c10585ec392f8a,626b3c62fe3d26d4a30f1b30,,,,,,,,,,,,,,,,,,,,,,,l,1,"[""0.102"",""0.365"",""0.637"",""0.814""]","[1,0,1,1]",0,25,25,25,1,1,0,,,1,FALSE,0.4714,,,,,,,,,,,,,,,,,,,,,,,,,,,,,,
,5c67c986721d100001a8ebcc,001,2022-04-29_10h17.13.984,classification_task,2021.2.3,Win32,60.0348202,5c67c986721d100001a8ebcc,626b377229c10585ec392f8a,626b3c62fe3d26d4a30f1b30,,,,,,,,,,,,,,,,,,,,,,,l,0,"[""0.850"",""0.449"",""0.599"",""0.908""]","[0,1,1,1]",0,26,26,26,1,0,0,,,1,FALSE,0.6199,,,,,,,,,,,,,,,,,,,,,,,,,,,,,,
,5c67c986721d100001a8ebcc,001,2022-04-29_10h17.13.984,classification_task,2021.2.3,Win32,60.0348202,5c67c986721d100001a8ebcc,626b377229c10585ec392f8a,626b3c62fe3d26d4a30f1b30,,,,,,,,,,,,,,,,,,,,,,,l,1,"[""0.038"",""0.143"",""0.501"",""0.368""]","[1,1,1,0]",0,27,27,27,1,1,1,,,1,FALSE,1.1338,,,,,,,,,,,,,,,,,,,,,,,,,,,,,,
,5c67c986721d100001a8ebcc,001,2022-04-29_10h17.13.984,classification_task,2021.2.3,Win32,60.0348202,5c67c986721d100001a8ebcc,626b377229c10585ec392f8a,626b3c62fe3d26d4a30f1b30,,,,,,,,,,,,,,,,,,,,,,,a,1,"[""0.311"",""0.449"",""0.867"",""0.908""]","[1,1,0,1]",0,28,28,28,1,0,0,,,1,FALSE,0.7334,,,,,,,,,,,,,,,,,,,,,,,,,,,,,,
,5c67c986721d100001a8ebcc,001,2022-04-29_10h17.13.984,classification_task,2021.2.3,Win32,60.0348202,5c67c986721d100001a8ebcc,626b377229c10585ec392f8a,626b3c62fe3d26d4a30f1b30,,,,,,,,,,,,,,,,,,,,,,,a,0,"[""0.355"",""0.187"",""0.637"",""0.814""]","[0,1,1,1]",0,29,29,29,1,1,0,,,1,FALSE,0.5838,,,,,,,,,,,,,,,,,,,,,,,,,,,,,,
,5c67c986721d100001a8ebcc,001,2022-04-29_10h17.13.984,classification_task,2021.2.3,Win32,60.0348202,5c67c986721d100001a8ebcc,626b377229c10585ec392f8a,626b3c62fe3d26d4a30f1b30,,,,,,,,,,,,,,,,,,,,,,,a,1,"[""0.311"",""0.365"",""0.599"",""0.908""]","[1,0,1,1]",0,30,30,30,1,0,0,,,1,FALSE,0.5506,,,,,,,,,,,,,,,,,,,,,,,,,,,,,,
,5c67c986721d100001a8ebcc,001,2022-04-29_10h17.13.984,classification_task,2021.2.3,Win32,60.0348202,5c67c986721d100001a8ebcc,626b377229c10585ec392f8a,626b3c62fe3d26d4a30f1b30,,,,,,,,,,,,,,,,,,,,,,,a,1,"[""0.368"",""0.561"",""0.762"",""0.973""]","[0,1,1,1]",0,31,31,31,1,0,1,,,1,FALSE,0.7171,,,,,,,,,,,,,,,,,,,,,,,,,,,,,,
,5c67c986721d100001a8ebcc,001,2022-04-29_10h17.13.984,classification_task,2021.2.3,Win32,60.0348202,5c67c986721d100001a8ebcc,626b377229c10585ec392f8a,626b3c62fe3d26d4a30f1b30,,,,,,,,,,,,,,,,,,,,,,,a,1,"[""0.232"",""0.368"",""0.762"",""0.973""]","[1,0,1,1]",0,32,32,32,1,0,1,,,1,FALSE,0.6342,,,,,,,,,,,,,,,,,,,,,,,,,,,,,,
,5c67c986721d100001a8ebcc,001,2022-04-29_10h17.13.984,classification_task,2021.2.3,Win32,60.0348202,5c67c986721d100001a8ebcc,626b377229c10585ec392f8a,626b3c62fe3d26d4a30f1b30,,,,,,,,,,,,,,,,,,,,,,,l,1,"[""0.038"",""0.143"",""0.270"",""0.681""]","[1,1,0,1]",0,33,33,33,1,1,1,,,1,FALSE,0.5762,,,,,,,,,,,,,,,,,,,,,,,,,,,,,,
,5c67c986721d100001a8ebcc,001,2022-04-29_10h17.13.984,classification_task,2021.2.3,Win32,60.0348202,5c67c986721d100001a8ebcc,626b377229c10585ec392f8a,626b3c62fe3d26d4a30f1b30,,,,,,,,,,,,,,,,,,,,,,,a,0,"[""0.102"",""0.187"",""0.637"",""0.272""]","[1,1,1,0]",0,34,34,34,1,1,0,,,1,FALSE,0.6891,,,,,,,,,,,,,,,,,,,,,,,,,,,,,,
,5c67c986721d100001a8ebcc,001,2022-04-29_10h17.13.984,classification_task,2021.2.3,Win32,60.0348202,5c67c986721d100001a8ebcc,626b377229c10585ec392f8a,626b3c62fe3d26d4a30f1b30,,,,,,,,,,,,,,,,,,,,,,,l,0,"[""0.853"",""0.449"",""0.599"",""0.908""]","[0,1,1,1]",0,35,35,35,1,0,0,,,1,FALSE,0.5172,,,,,,,,,,,,,,,,,,,,,,,,,,,,,,
,5c67c986721d100001a8ebcc,001,2022-04-29_10h17.13.984,classification_task,2021.2.3,Win32,60.0348202,5c67c986721d100001a8ebcc,626b377229c10585ec392f8a,626b3c62fe3d26d4a30f1b30,,,,,,,,,,,,,,,,,,,,,,,a,1,"[""0.232"",""0.561"",""0.762"",""0.365""]","[1,1,1,0]",0,36,36,36,1,0,1,,,1,FALSE,0.2005,,,,,,,,,,,,,,,,,,,,,,,,,,,,,,
,5c67c986721d100001a8ebcc,001,2022-04-29_10h17.13.984,classification_task,2021.2.3,Win32,60.0348202,5c67c986721d100001a8ebcc,626b377229c10585ec392f8a,626b3c62fe3d26d4a30f1b30,,,,,,,,,,,,,,,,,,,,,,,l,1,"[""0.038"",""0.143"",""0.501"",""0.359""]","[1,1,1,0]",0,37,37,37,1,1,1,,,1,FALSE,0.7027,,,,,,,,,,,,,,,,,,,,,,,,,,,,,,
,5c67c986721d100001a8ebcc,001,2022-04-29_10h17.13.984,classification_task,2021.2.3,Win32,60.0348202,5c67c986721d100001a8ebcc,626b377229c10585ec392f8a,626b3c62fe3d26d4a30f1b30,,,,,,,,,,,,,,,,,,,,,,,a,0,"[""0.102"",""0.187"",""0.410"",""0.814""]","[1,1,0,1]",0,38,38,38,1,1,0,,,1,FALSE,0.6739,,,,,,,,,,,,,,,,,,,,,,,,,,,,,,
,5c67c986721d100001a8ebcc,001,2022-04-29_10h17.13.984,classification_task,2021.2.3,Win32,60.0348202,5c67c986721d100001a8ebcc,626b377229c10585ec392f8a,626b3c62fe3d26d4a30f1b30,,,,,,,,,,,,,,,,,,,,,,,l,1,"[""0.410"",""0.143"",""0.501"",""0.681""]","[0,1,1,1]",0,39,39,39,1,1,1,,,1,FALSE,0.2674,,,,,,,,,,,,,,,,,,,,,,,,,,,,,,
,5c67c986721d100001a8ebcc,001,2022-04-29_10h17.13.984,classification_task,2021.2.3,Win32,60.0348202,5c67c986721d100001a8ebcc,626b377229c10585ec392f8a,626b3c62fe3d26d4a30f1b30,,,,,,,,,,,,,,,,,,,,,,,l,0,"[""0.311"",""0.864"",""0.599"",""0.908""]","[1,0,1,1]",0,40,40,40,1,0,0,,,1,FALSE,0.6351,,,,,,,,,,,,,,,,,,,,,,,,,,,,,,
,5c67c986721d100001a8ebcc,001,2022-04-29_10h17.13.984,classification_task,2021.2.3,Win32,60.0348202,5c67c986721d100001a8ebcc,626b377229c10585ec392f8a,626b3c62fe3d26d4a30f1b30,,,,,,,,,,,,,,,,,,,,,,,a,1,"[""0.356"",""0.561"",""0.762"",""0.973""]","[0,1,1,1]",0,41,41,41,1,0,1,,,1,FALSE,1.0175,,,,,,,,,,,,,,,,,,,,,,,,,,,,,,
,5c67c986721d100001a8ebcc,001,2022-04-29_10h17.13.984,classification_task,2021.2.3,Win32,60.0348202,5c67c986721d100001a8ebcc,626b377229c10585ec392f8a,626b3c62fe3d26d4a30f1b30,,,,,,,,,,,,,,,,,,,,,,,a,0,"[""0.853"",""0.187"",""0.637"",""0.814""]","[0,1,1,1]",0,42,42,42,1,1,0,,,1,FALSE,0.7757,,,,,,,,,,,,,,,,,,,,,,,,,,,,,,
,5c67c986721d100001a8ebcc,001,2022-04-29_10h17.13.984,classification_task,2021.2.3,Win32,60.0348202,5c67c986721d100001a8ebcc,626b377229c10585ec392f8a,626b3c62fe3d26d4a30f1b30,,,,,,,,,,,,,,,,,,,,,,,l,1,"[""0.102"",""0.350"",""0.637"",""0.814""]","[1,0,1,1]",0,43,43,43,1,1,0,,,1,FALSE,0.6241,,,,,,,,,,,,,,,,,,,,,,,,,,,,,,
,5c67c986721d100001a8ebcc,001,2022-04-29_10h17.13.984,classification_task,2021.2.3,Win32,60.0348202,5c67c986721d100001a8ebcc,626b377229c10585ec392f8a,626b3c62fe3d26d4a30f1b30,,,,,,,,,,,,,,,,,,,,,,,l,1,"[""0.038"",""0.368"",""0.501"",""0.681""]","[1,0,1,1]",0,44,44,44,1,1,1,,,1,FALSE,0.9187,,,,,,,,,,,,,,,,,,,,,,,,,,,,,,
,5c67c986721d100001a8ebcc,001,2022-04-29_10h17.13.984,classification_task,2021.2.3,Win32,60.0348202,5c67c986721d100001a8ebcc,626b377229c10585ec392f8a,626b3c62fe3d26d4a30f1b30,,,,,,,,,,,,,,,,,,,,,,,l,0,"[""0.311"",""0.449"",""0.867"",""0.908""]","[1,1,0,1]",0,45,45,45,1,0,0,,,1,FALSE,0.5376,,,,,,,,,,,,,,,,,,,,,,,,,,,,,,
,5c67c986721d100001a8ebcc,001,2022-04-29_10h17.13.984,classification_task,2021.2.3,Win32,60.0348202,5c67c986721d100001a8ebcc,626b377229c10585ec392f8a,626b3c62fe3d26d4a30f1b30,,,,,,,,,,,,,,,,,,,,,,,l,0,"[""0.232"",""0.561"",""0.345"",""0.973""]","[1,1,0,1]",0,46,46,46,1,0,1,,,1,FALSE,0.6593,,,,,,,,,,,,,,,,,,,,,,,,,,,,,,
,5c67c986721d100001a8ebcc,001,2022-04-29_10h17.13.984,classification_task,2021.2.3,Win32,60.0348202,5c67c986721d100001a8ebcc,626b377229c10585ec392f8a,626b3c62fe3d26d4a30f1b30,,,,,,,,,,,,,,,,,,,,,,,a,1,"[""0.311"",""0.449"",""0.599"",""0.410""]","[1,1,1,0]",0,47,47,47,1,0,0,,,1,FALSE,0.6833,,,,,,,,,,,,,,,,,,,,,,,,,,,,,,
,5c67c986721d100001a8ebcc,001,2022-04-29_10h17.13.984,classification_task,2021.2.3,Win32,60.0348202,5c67c986721d100001a8ebcc,626b377229c10585ec392f8a,626b3c62fe3d26d4a30f1b30,,,,,,,,,,,,,,,,,,,,,,,l,1,"[""0.102"",""0.853"",""0.637"",""0.814""]","[1,0,1,1]",0,48,48,48,1,1,0,,,1,FALSE,0.6172,,,,,,,,,,,,,,,,,,,,,,,,,,,,,,
,5c67c986721d100001a8ebcc,001,2022-04-29_10h17.13.984,classification_task,2021.2.3,Win32,60.0348202,5c67c986721d100001a8ebcc,626b377229c10585ec392f8a,626b3c62fe3d26d4a30f1b30,,,,,,,,,,,,,,,,,,,,,,,a,1,"[""0.311"",""0.449"",""0.599"",""0.365""]","[1,1,1,0]",0,49,49,49,1,0,0,,,1,FALSE,0.7073,,,,,,,,,,,,,,,,,,,,,,,,,,,,,,
,5c67c986721d100001a8ebcc,001,2022-04-29_10h17.13.984,classification_task,2021.2.3,Win32,60.0348202,5c67c986721d100001a8ebcc,626b377229c10585ec392f8a,626b3c62fe3d26d4a30f1b30,,,,,,,,,,,,,,,,,,,,,,,a,1,"[""0.232"",""0.365"",""0.762"",""0.973""]","[1,0,1,1]",0,50,50,50,1,0,1,,,1,FALSE,1.1584,,,,,,,,,,,,,,,,,,,,,,,,,,,,,,
,5c67c986721d100001a8ebcc,001,2022-04-29_10h17.13.984,classification_task,2021.2.3,Win32,60.0348202,5c67c986721d100001a8ebcc,626b377229c10585ec392f8a,626b3c62fe3d26d4a30f1b30,,,,,,,,,,,,,,,,,,,,,,,a,1,"[""0.232"",""0.561"",""0.272"",""0.973""]","[1,1,0,1]",0,51,51,51,1,0,1,,,1,FALSE,0.6557,,,,,,,,,,,,,,,,,,,,,,,,,,,,,,
,5c67c986721d100001a8ebcc,001,2022-04-29_10h17.13.984,classification_task,2021.2.3,Win32,60.0348202,5c67c986721d100001a8ebcc,626b377229c10585ec392f8a,626b3c62fe3d26d4a30f1b30,,,,,,,,,,,,,,,,,,,,,,,l,1,"[""0.038"",""0.143"",""0.501"",""0.355""]","[1,1,1,0]",0,52,52,52,1,1,1,,,1,FALSE,0.5339,,,,,,,,,,,,,,,,,,,,,,,,,,,,,,
,5c67c986721d100001a8ebcc,001,2022-04-29_10h17.13.984,classification_task,2021.2.3,Win32,60.0348202,5c67c986721d100001a8ebcc,626b377229c10585ec392f8a,626b3c62fe3d26d4a30f1b30,,,,,,,,,,,,,,,,,,,,,,,l,1,"[""0.038"",""0.143"",""0.355"",""0.681""]","[1,1,0,1]",0,53,53,53,1,1,1,,,1,FALSE,0.8342,,,,,,,,,,,,,,,,,,,,,,,,,,,,,,
,5c67c986721d100001a8ebcc,001,2022-04-29_10h17.13.984,classification_task,2021.2.3,Win32,60.0348202,5c67c986721d100001a8ebcc,626b377229c10585ec392f8a,626b3c62fe3d26d4a30f1b30,,,,,,,,,,,,,,,,,,,,,,,a,0,"[""0.102"",""0.187"",""0.637"",""0.368""]","[1,1,1,0]",0,54,54,54,1,1,0,,,1,FALSE,0.7011,,,,,,,,,,,,,,,,,,,,,,,,,,,,,,
,5c67c986721d100001a8ebcc,001,2022-04-29_10h17.13.984,classification_task,2021.2.3,Win32,60.0348202,5c67c986721d100001a8ebcc,626b377229c10585ec392f8a,626b3c62fe3d26d4a30f1b30,,,,,,,,,,,,,,,,,,,,,,,l,0,"[""0.311"",""0.449"",""0.356"",""0.908""]","[1,1,0,1]",0,55,55,55,1,0,0,,,1,FALSE,0.3204,,,,,,,,,,,,,,,,,,,,,,,,,,,,,,
,5c67c986721d100001a8ebcc,001,2022-04-29_10h17.13.984,classification_task,2021.2.3,Win32,60.0348202,5c67c986721d100001a8ebcc,626b377229c10585ec392f8a,626b3c62fe3d26d4a30f1b30,,,,,,,,,,,,,,,,,,,,,,,l,1,"[""0.356"",""0.143"",""0.501"",""0.681""]","[0,1,1,1]",0,56,56,56,1,1,1,,,1,FALSE,0.3005,,,,,,,,,,,,,,,,,,,,,,,,,,,,,,
,5c67c986721d100001a8ebcc,001,2022-04-29_10h17.13.984,classification_task,2021.2.3,Win32,60.0348202,5c67c986721d100001a8ebcc,626b377229c10585ec392f8a,626b3c62fe3d26d4a30f1b30,,,,,,,,,,,,,,,,,,,,,,,a,1,"[""0.232"",""0.561"",""0.762"",""0.355""]","[1,1,1,0]",0,57,57,57,1,0,1,,,1,FALSE,0.7101,,,,,,,,,,,,,,,,,,,,,,,,,,,,,,
,5c67c986721d100001a8ebcc,001,2022-04-29_10h17.13.984,classification_task,2021.2.3,Win32,60.0348202,5c67c986721d100001a8ebcc,626b377229c10585ec392f8a,626b3c62fe3d26d4a30f1b30,,,,,,,,,,,,,,,,,,,,,,,l,1,"[""0.270"",""0.187"",""0.637"",""0.814""]","[0,1,1,1]",0,58,58,58,1,1,0,,,1,FALSE,0.7852,,,,,,,,,,,,,,,,,,,,,,,,,,,,,,
,5c67c986721d100001a8ebcc,001,2022-04-29_10h17.13.984,classification_task,2021.2.3,Win32,60.0348202,5c67c986721d100001a8ebcc,626b377229c10585ec392f8a,626b3c62fe3d26d4a30f1b30,,,,,,,,,,,,,,,,,,,,,,,l,0,"[""0.850"",""0.449"",""0.599"",""0.908""]","[0,1,1,1]",0,59,59,59,1,0,0,,,1,FALSE,0.6017,,,,,,,,,,,,,,,,,,,,,,,,,,,,,,
,5c67c986721d100001a8ebcc,001,2022-04-29_10h17.13.984,classification_task,2021.2.3,Win32,60.0348202,5c67c986721d100001a8ebcc,626b377229c10585ec392f8a,626b3c62fe3d26d4a30f1b30,,,,,,,,,,,,,,,,,,,,,,,a,0,"[""0.038"",""0.865"",""0.501"",""0.681""]","[1,0,1,1]",0,60,60,60,1,1,1,,,1,FALSE,0.273,,,,,,,,,,,,,,,,,,,,,,,,,,,,,,
,5c67c986721d100001a8ebcc,001,2022-04-29_10h17.13.984,classification_task,2021.2.3,Win32,60.0348202,5c67c986721d100001a8ebcc,626b377229c10585ec392f8a,626b3c62fe3d26d4a30f1b30,,,,,,,,,,,,,,,,,,,,,,,l,0,"[""0.311"",""0.345"",""0.599"",""0.908""]","[1,0,1,1]",0,61,61,61,1,0,0,,,1,FALSE,0.7573,,,,,,,,,,,,,,,,,,,,,,,,,,,,,,
,5c67c986721d100001a8ebcc,001,2022-04-29_10h17.13.984,classification_task,2021.2.3,Win32,60.0348202,5c67c986721d100001a8ebcc,626b377229c10585ec392f8a,626b3c62fe3d26d4a30f1b30,,,,,,,,,,,,,,,,,,,,,,,a,0,"[""0.102"",""0.187"",""0.379"",""0.814""]","[1,1,0,1]",0,62,62,62,1,1,0,,,1,FALSE,0.5003,,,,,,,,,,,,,,,,,,,,,,,,,,,,,,
,5c67c986721d100001a8ebcc,001,2022-04-29_10h17.13.984,classification_task,2021.2.3,Win32,60.0348202,5c67c986721d100001a8ebcc,626b377229c10585ec392f8a,626b3c62fe3d26d4a30f1b30,,,,,,,,,,,,,,,,,,,,,,,a,1,"[""0.853"",""0.561"",""0.762"",""0.973""]","[0,1,1,1]",0,63,63,63,1,0,1,,,1,FALSE,1.2013,,,,,,,,,,,,,,,,,,,,,,,,,,,,,,
,5c67c986721d100001a8ebcc,001,2022-04-29_10h17.13.984,classification_task,2021.2.3,Win32,60.0348202,5c67c986721d100001a8ebcc,626b377229c10585ec392f8a,626b3c62fe3d26d4a30f1b30,,,,,,,,,,,,,,,,,,,,,,,,,,,,,,,,,,,,,,,0, ,,0,1.665357651,134.7019,0,1,1,1,1,2,2,,,,,,,,,,,,,,,,,
,5c67c986721d100001a8ebcc,001,2022-04-29_10h17.13.984,classification_task,2021.2.3,Win32,60.0348202,5c67c986721d100001a8ebcc,626b377229c10585ec392f8a,626b3c62fe3d26d4a30f1b30,,,,,,,,,,,,,,,,,,,,,,,,,,,,,,,,,,,,,,,1,  ,,0,7.615241297,137.0619,0,1,1,1,1,2,2,,,,,,,,,,,,,,,,,
,5c67c986721d100001a8ebcc,001,2022-04-29_10h17.13.984,classification_task,2021.2.3,Win32,60.0348202,5c67c986721d100001a8ebcc,626b377229c10585ec392f8a,626b3c62fe3d26d4a30f1b30,,,,,,,,,,,,,,,,,,,,,,,,,,,,,,,,,,,,,,,2,  ,,0,0.966544452,138.8305,0,1,1,1,1,2,2,,,,,,,,,,,,,,,,,
,5c67c986721d100001a8ebcc,001,2022-04-29_10h17.13.984,classification_task,2021.2.3,Win32,60.0348202,5c67c986721d100001a8ebcc,626b377229c10585ec392f8a,626b3c62fe3d26d4a30f1b30,,,,,,,,,,,,,,,,,,,,,,,,,,,,,,,,,,,,,,,,,,,,,0,1,1,1,1,,2,,,,,,,,,,,,,,,,,
,5c67c986721d100001a8ebcc,001,2022-04-29_10h17.13.984,classification_task,2021.2.3,Win32,60.0348202,5c67c986721d100001a8ebcc,626b377229c10585ec392f8a,626b3c62fe3d26d4a30f1b30,,,,,,,,,,,,,,,,,,,,,space,7.4255,a,0,"[""0.867"",""0.143"",""0.501"",""0.681""]","[0,1,1,1]",0,0,0,0,1,1,1,,,1,FALSE,0.7609,,,,,,,,,,,,,,,,,,,,,,,,,,,,,,
,5c67c986721d100001a8ebcc,001,2022-04-29_10h17.13.984,classification_task,2021.2.3,Win32,60.0348202,5c67c986721d100001a8ebcc,626b377229c10585ec392f8a,626b3c62fe3d26d4a30f1b30,,,,,,,,,,,,,,,,,,,,,,,l,1,"[""0.102"",""0.864"",""0.637"",""0.814""]","[1,0,1,1]",0,1,1,1,1,1,0,,,1,FALSE,0.9927,,,,,,,,,,,,,,,,,,,,,,,,,,,,,,
,5c67c986721d100001a8ebcc,001,2022-04-29_10h17.13.984,classification_task,2021.2.3,Win32,60.0348202,5c67c986721d100001a8ebcc,626b377229c10585ec392f8a,626b3c62fe3d26d4a30f1b30,,,,,,,,,,,,,,,,,,,,,,,l,0,"[""0.311"",""0.449"",""0.599"",""0.270""]","[1,1,1,0]",0,2,2,2,1,0,0,,,1,FALSE,2.3537,,,,,,,,,,,,,,,,,,,,,,,,,,,,,,
,5c67c986721d100001a8ebcc,001,2022-04-29_10h17.13.984,classification_task,2021.2.3,Win32,60.0348202,5c67c986721d100001a8ebcc,626b377229c10585ec392f8a,626b3c62fe3d26d4a30f1b30,,,,,,,,,,,,,,,,,,,,,,,a,0,"[""0.038"",""0.143"",""0.501"",""0.850""]","[1,1,1,0]",0,3,3,3,1,1,1,,,1,FALSE,0.9845,,,,,,,,,,,,,,,,,,,,,,,,,,,,,,
,5c67c986721d100001a8ebcc,001,2022-04-29_10h17.13.984,classification_task,2021.2.3,Win32,60.0348202,5c67c986721d100001a8ebcc,626b377229c10585ec392f8a,626b3c62fe3d26d4a30f1b30,,,,,,,,,,,,,,,,,,,,,,,a,0,"[""0.102"",""0.187"",""0.864"",""0.814""]","[1,1,0,1]",0,4,4,4,1,1,0,,,1,FALSE,0.6747,,,,,,,,,,,,,,,,,,,,,,,,,,,,,,
,5c67c986721d100001a8ebcc,001,2022-04-29_10h17.13.984,classification_task,2021.2.3,Win32,60.0348202,5c67c986721d100001a8ebcc,626b377229c10585ec392f8a,626b3c62fe3d26d4a30f1b30,,,,,,,,,,,,,,,,,,,,,,,l,0,"[""0.232"",""0.345"",""0.762"",""0.973""]","[1,0,1,1]",0,5,5,5,1,0,1,,,1,FALSE,0.5175,,,,,,,,,,,,,,,,,,,,,,,,,,,,,,
,5c67c986721d100001a8ebcc,001,2022-04-29_10h17.13.984,classification_task,2021.2.3,Win32,60.0348202,5c67c986721d100001a8ebcc,626b377229c10585ec392f8a,626b3c62fe3d26d4a30f1b30,,,,,,,,,,,,,,,,,,,,,,,a,1,"[""0.853"",""0.561"",""0.762"",""0.973""]","[0,1,1,1]",0,6,6,6,1,0,1,,,1,FALSE,0.0265,,,,,,,,,,,,,,,,,,,,,,,,,,,,,,
,5c67c986721d100001a8ebcc,001,2022-04-29_10h17.13.984,classification_task,2021.2.3,Win32,60.0348202,5c67c986721d100001a8ebcc,626b377229c10585ec392f8a,626b3c62fe3d26d4a30f1b30,,,,,,,,,,,,,,,,,,,,,,,l,0,"[""0.356"",""0.449"",""0.599"",""0.908""]","[0,1,1,1]",0,7,7,7,1,0,0,,,1,FALSE,0.7767,,,,,,,,,,,,,,,,,,,,,,,,,,,,,,
,5c67c986721d100001a8ebcc,001,2022-04-29_10h17.13.984,classification_task,2021.2.3,Win32,60.0348202,5c67c986721d100001a8ebcc,626b377229c10585ec392f8a,626b3c62fe3d26d4a30f1b30,,,,,,,,,,,,,,,,,,,,,,,l,0,"[""0.311"",""0.864"",""0.599"",""0.908""]","[1,0,1,1]",0,8,8,8,1,0,0,,,1,FALSE,0.6835,,,,,,,,,,,,,,,,,,,,,,,,,,,,,,
,5c67c986721d100001a8ebcc,001,2022-04-29_10h17.13.984,classification_task,2021.2.3,Win32,60.0348202,5c67c986721d100001a8ebcc,626b377229c10585ec392f8a,626b3c62fe3d26d4a30f1b30,,,,,,,,,,,,,,,,,,,,,,,a,1,"[""0.232"",""0.561"",""0.762"",""0.864""]","[1,1,1,0]",0,9,9,9,1,0,1,,,1,FALSE,0.4009,,,,,,,,,,,,,,,,,,,,,,,,,,,,,,
,5c67c986721d100001a8ebcc,001,2022-04-29_10h17.13.984,classification_task,2021.2.3,Win32,60.0348202,5c67c986721d100001a8ebcc,626b377229c10585ec392f8a,626b3c62fe3d26d4a30f1b30,,,,,,,,,,,,,,,,,,,,,,,a,0,"[""0.865"",""0.187"",""0.637"",""0.814""]","[0,1,1,1]",0,10,10,10,1,1,0,,,1,FALSE,1.0365,,,,,,,,,,,,,,,,,,,,,,,,,,,,,,
,5c67c986721d100001a8ebcc,001,2022-04-29_10h17.13.984,classification_task,2021.2.3,Win32,60.0348202,5c67c986721d100001a8ebcc,626b377229c10585ec392f8a,626b3c62fe3d26d4a30f1b30,,,,,,,,,,,,,,,,,,,,,,,l,0,"[""0.232"",""0.561"",""0.272"",""0.973""]","[1,1,0,1]",0,11,11,11,1,0,1,,,1,FALSE,1.0188,,,,,,,,,,,,,,,,,,,,,,,,,,,,,,
,5c67c986721d100001a8ebcc,001,2022-04-29_10h17.13.984,classification_task,2021.2.3,Win32,60.0348202,5c67c986721d100001a8ebcc,626b377229c10585ec392f8a,626b3c62fe3d26d4a30f1b30,,,,,,,,,,,,,,,,,,,,,,,a,0,"[""0.038"",""0.365"",""0.501"",""0.681""]","[1,0,1,1]",0,12,12,12,1,1,1,,,1,FALSE,0.8729,,,,,,,,,,,,,,,,,,,,,,,,,,,,,,
,5c67c986721d100001a8ebcc,001,2022-04-29_10h17.13.984,classification_task,2021.2.3,Win32,60.0348202,5c67c986721d100001a8ebcc,626b377229c10585ec392f8a,626b3c62fe3d26d4a30f1b30,,,,,,,,,,,,,,,,,,,,,,,a,1,"[""0.311"",""0.449"",""0.272"",""0.908""]","[1,1,0,1]",0,13,13,13,1,0,0,,,1,FALSE,0.8057,,,,,,,,,,,,,,,,,,,,,,,,,,,,,,
,5c67c986721d100001a8ebcc,001,2022-04-29_10h17.13.984,classification_task,2021.2.3,Win32,60.0348202,5c67c986721d100001a8ebcc,626b377229c10585ec392f8a,626b3c62fe3d26d4a30f1b30,,,,,,,,,,,,,,,,,,,,,,,a,0,"[""0.038"",""0.143"",""0.345"",""0.681""]","[1,1,0,1]",0,14,14,14,1,1,1,,,1,FALSE,1.5674,,,,,,,,,,,,,,,,,,,,,,,,,,,,,,
,5c67c986721d100001a8ebcc,001,2022-04-29_10h17.13.984,classification_task,2021.2.3,Win32,60.0348202,5c67c986721d100001a8ebcc,626b377229c10585ec392f8a,626b3c62fe3d26d4a30f1b30,,,,,,,,,,,,,,,,,,,,,,,l,1,"[""0.102"",""0.187"",""0.637"",""0.867""]","[1,1,1,0]",0,15,15,15,1,1,0,,,1,FALSE,1.0005,,,,,,,,,,,,,,,,,,,,,,,,,,,,,,
,5c67c986721d100001a8ebcc,001,2022-04-29_10h17.13.984,classification_task,2021.2.3,Win32,60.0348202,5c67c986721d100001a8ebcc,626b377229c10585ec392f8a,626b3c62fe3d26d4a30f1b30,,,,,,,,,,,,,,,,,,,,,,,l,0,"[""0.232"",""0.350"",""0.762"",""0.973""]","[1,0,1,1]",0,16,16,16,1,0,1,,,1,FALSE,1.2534,,,,,,,,,,,,,,,,,,,,,,,,,,,,,,
,5c67c986721d100001a8ebcc,001,2022-04-29_10h17.13.984,classification_task,2021.2.3,Win32,60.0348202,5c67c986721d100001a8ebcc,626b377229c10585ec392f8a,626b3c62fe3d26d4a30f1b30,,,,,,,,,,,,,,,,,,,,,,,l,1,"[""0.102"",""0.187"",""0.850"",""0.814""]","[1,1,0,1]",0,17,17,17,1,1,0,,,1,FALSE,0.6257,,,,,,,,,,,,,,,,,,,,,,,,,,,,,,
,5c67c986721d100001a8ebcc,001,2022-04-29_10h17.13.984,classification_task,2021.2.3,Win32,60.0348202,5c67c986721d100001a8ebcc,626b377229c10585ec392f8a,626b3c62fe3d26d4a30f1b30,,,,,,,,,,,,,,,,,,,,,,,l,0,"[""0.232"",""0.561"",""0.762"",""0.356""]","[1,1,1,0]",0,18,18,18,1,0,1,,,1,FALSE,2.0009,,,,,,,,,,,,,,,,,,,,,,,,,,,,,,
,5c67c986721d100001a8ebcc,001,2022-04-29_10h17.13.984,classification_task,2021.2.3,Win32,60.0348202,5c67c986721d100001a8ebcc,626b377229c10585ec392f8a,626b3c62fe3d26d4a30f1b30,,,,,,,,,,,,,,,,,,,,,,,l,1,"[""0.102"",""0.187"",""0.637"",""0.850""]","[1,1,1,0]",0,19,19,19,1,1,0,,,1,FALSE,0.8839,,,,,,,,,,,,,,,,,,,,,,,,,,,,,,
,5c67c986721d100001a8ebcc,001,2022-04-29_10h17.13.984,classification_task,2021.2.3,Win32,60.0348202,5c67c986721d100001a8ebcc,626b377229c10585ec392f8a,626b3c62fe3d26d4a30f1b30,,,,,,,,,,,,,,,,,,,,,,,a,1,"[""0.232"",""0.561"",""0.345"",""0.973""]","[1,1,0,1]",0,20,20,20,1,0,1,,,1,FALSE,0.6194,,,,,,,,,,,,,,,,,,,,,,,,,,,,,,
,5c67c986721d100001a8ebcc,001,2022-04-29_10h17.13.984,classification_task,2021.2.3,Win32,60.0348202,5c67c986721d100001a8ebcc,626b377229c10585ec392f8a,626b3c62fe3d26d4a30f1b30,,,,,,,,,,,,,,,,,,,,,,,a,0,"[""0.270"",""0.143"",""0.501"",""0.681""]","[0,1,1,1]",0,21,21,21,1,1,1,,,1,FALSE,1.2268,,,,,,,,,,,,,,,,,,,,,,,,,,,,,,
,5c67c986721d100001a8ebcc,001,2022-04-29_10h17.13.984,classification_task,2021.2.3,Win32,60.0348202,5c67c986721d100001a8ebcc,626b377229c10585ec392f8a,626b3c62fe3d26d4a30f1b30,,,,,,,,,,,,,,,,,,,,,,,l,0,"[""0.311"",""0.449"",""0.599"",""0.350""]","[1,1,1,0]",0,22,22,22,1,0,0,,,1,FALSE,0.8008,,,,,,,,,,,,,,,,,,,,,,,,,,,,,,
,5c67c986721d100001a8ebcc,001,2022-04-29_10h17.13.984,classification_task,2021.2.3,Win32,60.0348202,5c67c986721d100001a8ebcc,626b377229c10585ec392f8a,626b3c62fe3d26d4a30f1b30,,,,,,,,,,,,,,,,,,,,,,,l,1,"[""0.038"",""0.143"",""0.501"",""0.410""]","[1,1,1,0]",0,23,23,23,1,1,1,,,1,FALSE,1.2675,,,,,,,,,,,,,,,,,,,,,,,,,,,,,,
,5c67c986721d100001a8ebcc,001,2022-04-29_10h17.13.984,classification_task,2021.2.3,Win32,60.0348202,5c67c986721d100001a8ebcc,626b377229c10585ec392f8a,626b3c62fe3d26d4a30f1b30,,,,,,,,,,,,,,,,,,,,,,,l,0,"[""0.410"",""0.561"",""0.762"",""0.973""]","[0,1,1,1]",0,24,24,24,1,0,1,,,1,FALSE,0.6846,,,,,,,,,,,,,,,,,,,,,,,,,,,,,,
,5c67c986721d100001a8ebcc,001,2022-04-29_10h17.13.984,classification_task,2021.2.3,Win32,60.0348202,5c67c986721d100001a8ebcc,626b377229c10585ec392f8a,626b3c62fe3d26d4a30f1b30,,,,,,,,,,,,,,,,,,,,,,,a,0,"[""0.038"",""0.143"",""0.359"",""0.681""]","[1,1,0,1]",0,25,25,25,1,1,1,,,1,FALSE,1.1008,,,,,,,,,,,,,,,,,,,,,,,,,,,,,,
,5c67c986721d100001a8ebcc,001,2022-04-29_10h17.13.984,classification_task,2021.2.3,Win32,60.0348202,5c67c986721d100001a8ebcc,626b377229c10585ec392f8a,626b3c62fe3d26d4a30f1b30,,,,,,,,,,,,,,,,,,,,,,,l,0,"[""0.311"",""0.449"",""0.359"",""0.908""]","[1,1,0,1]",0,26,26,26,1,0,0,,,1,FALSE,1.3168,,,,,,,,,,,,,,,,,,,,,,,,,,,,,,
,5c67c986721d100001a8ebcc,001,2022-04-29_10h17.13.984,classification_task,2021.2.3,Win32,60.0348202,5c67c986721d100001a8ebcc,626b377229c10585ec392f8a,626b3c62fe3d26d4a30f1b30,,,,,,,,,,,,,,,,,,,,,,,l,0,"[""0.368"",""0.449"",""0.599"",""0.908""]","[0,1,1,1]",0,27,27,27,1,0,0,,,1,FALSE,0.5184,,,,,,,,,,,,,,,,,,,,,,,,,,,,,,
,5c67c986721d100001a8ebcc,001,2022-04-29_10h17.13.984,classification_task,2021.2.3,Win32,60.0348202,5c67c986721d100001a8ebcc,626b377229c10585ec392f8a,626b3c62fe3d26d4a30f1b30,,,,,,,,,,,,,,,,,,,,,,,l,0,"[""0.311"",""0.350"",""0.599"",""0.908""]","[1,0,1,1]",0,28,28,28,1,0,0,,,1,FALSE,0.593,,,,,,,,,,,,,,,,,,,,,,,,,,,,,,
,5c67c986721d100001a8ebcc,001,2022-04-29_10h17.13.984,classification_task,2021.2.3,Win32,60.0348202,5c67c986721d100001a8ebcc,626b377229c10585ec392f8a,626b3c62fe3d26d4a30f1b30,,,,,,,,,,,,,,,,,,,,,,,a,0,"[""0.102"",""0.359"",""0.637"",""0.814""]","[1,0,1,1]",0,29,29,29,1,1,0,,,1,FALSE,0.7673,,,,,,,,,,,,,,,,,,,,,,,,,,,,,,
,5c67c986721d100001a8ebcc,001,2022-04-29_10h17.13.984,classification_task,2021.2.3,Win32,60.0348202,5c67c986721d100001a8ebcc,626b377229c10585ec392f8a,626b3c62fe3d26d4a30f1b30,,,,,,,,,,,,,,,,,,,,,,,a,0,"[""0.038"",""0.867"",""0.501"",""0.681""]","[1,0,1,1]",0,30,30,30,1,1,1,,,1,FALSE,0.8507,,,,,,,,,,,,,,,,,,,,,,,,,,,,,,
,5c67c986721d100001a8ebcc,001,2022-04-29_10h17.13.984,classification_task,2021.2.3,Win32,60.0348202,5c67c986721d100001a8ebcc,626b377229c10585ec392f8a,626b3c62fe3d26d4a30f1b30,,,,,,,,,,,,,,,,,,,,,,,a,0,"[""0.368"",""0.187"",""0.637"",""0.814""]","[0,1,1,1]",0,31,31,31,1,1,0,,,1,FALSE,0.7187,,,,,,,,,,,,,,,,,,,,,,,,,,,,,,
,5c67c986721d100001a8ebcc,001,2022-04-29_10h17.13.984,classification_task,2021.2.3,Win32,60.0348202,5c67c986721d100001a8ebcc,626b377229c10585ec392f8a,626b3c62fe3d26d4a30f1b30,,,,,,,,,,,,,,,,,,,,,,,a,1,"[""0.850"",""0.561"",""0.762"",""0.973""]","[0,1,1,1]",0,32,32,32,1,0,1,,,1,FALSE,0.9839,,,,,,,,,,,,,,,,,,,,,,,,,,,,,,
,5c67c986721d100001a8ebcc,001,2022-04-29_10h17.13.984,classification_task,2021.2.3,Win32,60.0348202,5c67c986721d100001a8ebcc,626b377229c10585ec392f8a,626b3c62fe3d26d4a30f1b30,,,,,,,,,,,,,,,,,,,,,,,l,0,"[""0.311"",""0.449"",""0.599"",""0.365""]","[1,1,1,0]",0,33,33,33,1,0,0,,,1,FALSE,0.6674,,,,,,,,,,,,,,,,,,,,,,,,,,,,,,
,5c67c986721d100001a8ebcc,001,2022-04-29_10h17.13.984,classification_task,2021.2.3,Win32,60.0348202,5c67c986721d100001a8ebcc,626b377229c10585ec392f8a,626b3c62fe3d26d4a30f1b30,,,,,,,,,,,,,,,,,,,,,,,a,1,"[""0.232"",""0.561"",""0.359"",""0.973""]","[1,1,0,1]",0,34,34,34,1,0,1,,,1,FALSE,0.8376,,,,,,,,,,,,,,,,,,,,,,,,,,,,,,
,5c67c986721d100001a8ebcc,001,2022-04-29_10h17.13.984,classification_task,2021.2.3,Win32,60.0348202,5c67c986721d100001a8ebcc,626b377229c10585ec392f8a,626b3c62fe3d26d4a30f1b30,,,,,,,,,,,,,,,,,,,,,,,a,1,"[""0.232"",""0.379"",""0.762"",""0.973""]","[1,0,1,1]",0,35,35,35,1,0,1,,,1,FALSE,1.601,,,,,,,,,,,,,,,,,,,,,,,,,,,,,,
,5c67c986721d100001a8ebcc,001,2022-04-29_10h17.13.984,classification_task,2021.2.3,Win32,60.0348202,5c67c986721d100001a8ebcc,626b377229c10585ec392f8a,626b3c62fe3d26d4a30f1b30,,,,,,,,,,,,,,,,,,,,,,,a,0,"[""0.359"",""0.143"",""0.501"",""0.681""]","[0,1,1,1]",0,36,36,36,1,1,1,,,1,FALSE,0.7322,,,,,,,,,,,,,,,,,,,,,,,,,,,,,,
,5c67c986721d100001a8ebcc,001,2022-04-29_10h17.13.984,classification_task,2021.2.3,Win32,60.0348202,5c67c986721d100001a8ebcc,626b377229c10585ec392f8a,626b3c62fe3d26d4a30f1b30,,,,,,,,,,,,,,,,,,,,,,,l,0,"[""0.311"",""0.449"",""0.864"",""0.908""]","[1,1,0,1]",0,37,37,37,1,0,0,,,1,FALSE,0.4669,,,,,,,,,,,,,,,,,,,,,,,,,,,,,,
,5c67c986721d100001a8ebcc,001,2022-04-29_10h17.13.984,classification_task,2021.2.3,Win32,60.0348202,5c67c986721d100001a8ebcc,626b377229c10585ec392f8a,626b3c62fe3d26d4a30f1b30,,,,,,,,,,,,,,,,,,,,,,,a,0,"[""0.038"",""0.356"",""0.501"",""0.681""]","[1,0,1,1]",0,38,38,38,1,1,1,,,1,FALSE,0.8007,,,,,,,,,,,,,,,,,,,,,,,,,,,,,,
,5c67c986721d100001a8ebcc,001,2022-04-29_10h17.13.984,classification_task,2021.2.3,Win32,60.0348202,5c67c986721d100001a8ebcc,626b377229c10585ec392f8a,626b3c62fe3d26d4a30f1b30,,,,,,,,,,,,,,,,,,,,,,,a,0,"[""0.102"",""0.187"",""0.368"",""0.814""]","[1,1,0,1]",0,39,39,39,1,1,0,,,1,FALSE,0.9211,,,,,,,,,,,,,,,,,,,,,,,,,,,,,,
,5c67c986721d100001a8ebcc,001,2022-04-29_10h17.13.984,classification_task,2021.2.3,Win32,60.0348202,5c67c986721d100001a8ebcc,626b377229c10585ec392f8a,626b3c62fe3d26d4a30f1b30,,,,,,,,,,,,,,,,,,,,,,,a,0,"[""0.038"",""0.143"",""0.270"",""0.681""]","[1,1,0,1]",0,40,40,40,1,1,1,,,1,FALSE,0.6356,,,,,,,,,,,,,,,,,,,,,,,,,,,,,,
,5c67c986721d100001a8ebcc,001,2022-04-29_10h17.13.984,classification_task,2021.2.3,Win32,60.0348202,5c67c986721d100001a8ebcc,626b377229c10585ec392f8a,626b3c62fe3d26d4a30f1b30,,,,,,,,,,,,,,,,,,,,,,,a,0,"[""0.102"",""0.379"",""0.637"",""0.814""]","[1,0,1,1]",0,41,41,41,1,1,0,,,1,FALSE,0.7338,,,,,,,,,,,,,,,,,,,,,,,,,,,,,,
,5c67c986721d100001a8ebcc,001,2022-04-29_10h17.13.984,classification_task,2021.2.3,Win32,60.0348202,5c67c986721d100001a8ebcc,626b377229c10585ec392f8a,626b3c62fe3d26d4a30f1b30,,,,,,,,,,,,,,,,,,,,,,,a,0,"[""0.102"",""0.187"",""0.637"",""0.365""]","[1,1,1,0]",0,42,42,42,1,1,0,,,1,FALSE,0.6916,,,,,,,,,,,,,,,,,,,,,,,,,,,,,,
,5c67c986721d100001a8ebcc,001,2022-04-29_10h17.13.984,classification_task,2021.2.3,Win32,60.0348202,5c67c986721d100001a8ebcc,626b377229c10585ec392f8a,626b3c62fe3d26d4a30f1b30,,,,,,,,,,,,,,,,,,,,,,,l,0,"[""0.368"",""0.449"",""0.599"",""0.908""]","[0,1,1,1]",0,43,43,43,1,0,0,,,1,FALSE,0.4554,,,,,,,,,,,,,,,,,,,,,,,,,,,,,,
,5c67c986721d100001a8ebcc,001,2022-04-29_10h17.13.984,classification_task,2021.2.3,Win32,60.0348202,5c67c986721d100001a8ebcc,626b377229c10585ec392f8a,626b3c62fe3d26d4a30f1b30,,,,,,,,,,,,,,,,,,,,,,,a,0,"[""0.038"",""0.143"",""0.501"",""0.270""]","[1,1,1,0]",0,44,44,44,1,1,1,,,1,FALSE,0.7508,,,,,,,,,,,,,,,,,,,,,,,,,,,,,,
,5c67c986721d100001a8ebcc,001,2022-04-29_10h17.13.984,classification_task,2021.2.3,Win32,60.0348202,5c67c986721d100001a8ebcc,626b377229c10585ec392f8a,626b3c62fe3d26d4a30f1b30,,,,,,,,,,,,,,,,,,,,,,,l,0,"[""0.311"",""0.345"",""0.599"",""0.908""]","[1,0,1,1]",0,45,45,45,1,0,0,,,1,FALSE,0.6005,,,,,,,,,,,,,,,,,,,,,,,,,,,,,,
,5c67c986721d100001a8ebcc,001,2022-04-29_10h17.13.984,classification_task,2021.2.3,Win32,60.0348202,5c67c986721d100001a8ebcc,626b377229c10585ec392f8a,626b3c62fe3d26d4a30f1b30,,,,,,,,,,,,,,,,,,,,,,,a,1,"[""0.232"",""0.561"",""0.762"",""0.410""]","[1,1,1,0]",0,46,46,46,1,0,1,,,1,FALSE,0.9672,,,,,,,,,,,,,,,,,,,,,,,,,,,,,,
,5c67c986721d100001a8ebcc,001,2022-04-29_10h17.13.984,classification_task,2021.2.3,Win32,60.0348202,5c67c986721d100001a8ebcc,626b377229c10585ec392f8a,626b3c62fe3d26d4a30f1b30,,,,,,,,,,,,,,,,,,,,,,,a,0,"[""0.345"",""0.187"",""0.637"",""0.814""]","[0,1,1,1]",0,47,47,47,1,1,0,,,1,FALSE,0.8698,,,,,,,,,,,,,,,,,,,,,,,,,,,,,,
,5c67c986721d100001a8ebcc,001,2022-04-29_10h17.13.984,classification_task,2021.2.3,Win32,60.0348202,5c67c986721d100001a8ebcc,626b377229c10585ec392f8a,626b3c62fe3d26d4a30f1b30,,,,,,,,,,,,,,,,,,,,,,,a,0,"[""0.102"",""0.345"",""0.637"",""0.814""]","[1,0,1,1]",0,48,48,48,1,1,0,,,1,FALSE,0.5546,,,,,,,,,,,,,,,,,,,,,,,,,,,,,,
,5c67c986721d100001a8ebcc,001,2022-04-29_10h17.13.984,classification_task,2021.2.3,Win32,60.0348202,5c67c986721d100001a8ebcc,626b377229c10585ec392f8a,626b3c62fe3d26d4a30f1b30,,,,,,,,,,,,,,,,,,,,,,,a,0,"[""0.038"",""0.143"",""0.853"",""0.681""]","[1,1,0,1]",0,49,49,49,1,1,1,,,1,FALSE,0.6198,,,,,,,,,,,,,,,,,,,,,,,,,,,,,,
,5c67c986721d100001a8ebcc,001,2022-04-29_10h17.13.984,classification_task,2021.2.3,Win32,60.0348202,5c67c986721d100001a8ebcc,626b377229c10585ec392f8a,626b3c62fe3d26d4a30f1b30,,,,,,,,,,,,,,,,,,,,,,,l,0,"[""0.232"",""0.853"",""0.762"",""0.973""]","[1,0,1,1]",0,50,50,50,1,0,1,,,1,FALSE,0.6843,,,,,,,,,,,,,,,,,,,,,,,,,,,,,,
,5c67c986721d100001a8ebcc,001,2022-04-29_10h17.13.984,classification_task,2021.2.3,Win32,60.0348202,5c67c986721d100001a8ebcc,626b377229c10585ec392f8a,626b3c62fe3d26d4a30f1b30,,,,,,,,,,,,,,,,,,,,,,,l,0,"[""0.311"",""0.853"",""0.599"",""0.908""]","[1,0,1,1]",0,51,51,51,1,0,0,,,1,FALSE,0.5347,,,,,,,,,,,,,,,,,,,,,,,,,,,,,,
,5c67c986721d100001a8ebcc,001,2022-04-29_10h17.13.984,classification_task,2021.2.3,Win32,60.0348202,5c67c986721d100001a8ebcc,626b377229c10585ec392f8a,626b3c62fe3d26d4a30f1b30,,,,,,,,,,,,,,,,,,,,,,,l,0,"[""0.311"",""0.449"",""0.599"",""0.345""]","[1,1,1,0]",0,52,52,52,1,0,0,,,1,FALSE,0.4563,,,,,,,,,,,,,,,,,,,,,,,,,,,,,,
,5c67c986721d100001a8ebcc,001,2022-04-29_10h17.13.984,classification_task,2021.2.3,Win32,60.0348202,5c67c986721d100001a8ebcc,626b377229c10585ec392f8a,626b3c62fe3d26d4a30f1b30,,,,,,,,,,,,,,,,,,,,,,,l,0,"[""0.345"",""0.449"",""0.599"",""0.908""]","[0,1,1,1]",0,53,53,53,1,0,0,,,1,FALSE,0.6056,,,,,,,,,,,,,,,,,,,,,,,,,,,,,,
,5c67c986721d100001a8ebcc,001,2022-04-29_10h17.13.984,classification_task,2021.2.3,Win32,60.0348202,5c67c986721d100001a8ebcc,626b377229c10585ec392f8a,626b3c62fe3d26d4a30f1b30,,,,,,,,,,,,,,,,,,,,,,,a,0,"[""0.038"",""0.143"",""0.501"",""0.345""]","[1,1,1,0]",0,54,54,54,1,1,1,,,1,FALSE,0.5408,,,,,,,,,,,,,,,,,,,,,,,,,,,,,,
,5c67c986721d100001a8ebcc,001,2022-04-29_10h17.13.984,classification_task,2021.2.3,Win32,60.0348202,5c67c986721d100001a8ebcc,626b377229c10585ec392f8a,626b3c62fe3d26d4a30f1b30,,,,,,,,,,,,,,,,,,,,,,,l,0,"[""0.311"",""0.449"",""0.368"",""0.908""]","[1,1,0,1]",0,55,55,55,1,0,0,,,1,FALSE,0.7587,,,,,,,,,,,,,,,,,,,,,,,,,,,,,,
,5c67c986721d100001a8ebcc,001,2022-04-29_10h17.13.984,classification_task,2021.2.3,Win32,60.0348202,5c67c986721d100001a8ebcc,626b377229c10585ec392f8a,626b3c62fe3d26d4a30f1b30,,,,,,,,,,,,,,,,,,,,,,,l,1,"[""0.102"",""0.187"",""0.637"",""0.379""]","[1,1,1,0]",0,56,56,56,1,1,0,,,1,FALSE,0.6007,,,,,,,,,,,,,,,,,,,,,,,,,,,,,,
,5c67c986721d100001a8ebcc,001,2022-04-29_10h17.13.984,classification_task,2021.2.3,Win32,60.0348202,5c67c986721d100001a8ebcc,626b377229c10585ec392f8a,626b3c62fe3d26d4a30f1b30,,,,,,,,,,,,,,,,,,,,,,,l,1,"[""0.410"",""0.187"",""0.637"",""0.814""]","[0,1,1,1]",0,57,57,57,1,1,0,,,1,FALSE,0.6399,,,,,,,,,,,,,,,,,,,,,,,,,,,,,,
,5c67c986721d100001a8ebcc,001,2022-04-29_10h17.13.984,classification_task,2021.2.3,Win32,60.0348202,5c67c986721d100001a8ebcc,626b377229c10585ec392f8a,626b3c62fe3d26d4a30f1b30,,,,,,,,,,,,,,,,,,,,,,,a,0,"[""0.350"",""0.143"",""0.501"",""0.681""]","[0,1,1,1]",0,58,58,58,1,1,1,,,1,FALSE,0.4933,,,,,,,,,,,,,,,,,,,,,,,,,,,,,,
,5c67c986721d100001a8ebcc,001,2022-04-29_10h17.13.984,classification_task,2021.2.3,Win32,60.0348202,5c67c986721d100001a8ebcc,626b377229c10585ec392f8a,626b3c62fe3d26d4a30f1b30,,,,,,,,,,,,,,,,,,,,,,,l,0,"[""0.232"",""0.561"",""0.762"",""0.272""]","[1,1,1,0]",0,59,59,59,1,0,1,,,1,FALSE,0.5933,,,,,,,,,,,,,,,,,,,,,,,,,,,,,,
,5c67c986721d100001a8ebcc,001,2022-04-29_10h17.13.984,classification_task,2021.2.3,Win32,60.0348202,5c67c986721d100001a8ebcc,626b377229c10585ec392f8a,626b3c62fe3d26d4a30f1b30,,,,,,,,,,,,,,,,,,,,,,,l,0,"[""0.232"",""0.561"",""0.350"",""0.973""]","[1,1,0,1]",0,60,60,60,1,0,1,,,1,FALSE,1.4675,,,,,,,,,,,,,,,,,,,,,,,,,,,,,,
,5c67c986721d100001a8ebcc,001,2022-04-29_10h17.13.984,classification_task,2021.2.3,Win32,60.0348202,5c67c986721d100001a8ebcc,626b377229c10585ec392f8a,626b3c62fe3d26d4a30f1b30,,,,,,,,,,,,,,,,,,,,,,,l,0,"[""0.350"",""0.561"",""0.762"",""0.973""]","[0,1,1,1]",0,61,61,61,1,0,1,,,1,FALSE,0.5008,,,,,,,,,,,,,,,,,,,,,,,,,,,,,,
,5c67c986721d100001a8ebcc,001,2022-04-29_10h17.13.984,classification_task,2021.2.3,Win32,60.0348202,5c67c986721d100001a8ebcc,626b377229c10585ec392f8a,626b3c62fe3d26d4a30f1b30,,,,,,,,,,,,,,,,,,,,,,,l,1,"[""0.102"",""0.187"",""0.355"",""0.814""]","[1,1,0,1]",0,62,62,62,1,1,0,,,1,FALSE,1.2889,,,,,,,,,,,,,,,,,,,,,,,,,,,,,,
,5c67c986721d100001a8ebcc,001,2022-04-29_10h17.13.984,classification_task,2021.2.3,Win32,60.0348202,5c67c986721d100001a8ebcc,626b377229c10585ec392f8a,626b3c62fe3d26d4a30f1b30,,,,,,,,,,,,,,,,,,,,,,,a,0,"[""0.038"",""0.864"",""0.501"",""0.681""]","[1,0,1,1]",0,63,63,63,1,1,1,,,1,FALSE,0.9341,,,,,,,,,,,,,,,,,,,,,,,,,,,,,,
,5c67c986721d100001a8ebcc,001,2022-04-29_10h17.13.984,classification_task,2021.2.3,Win32,60.0348202,5c67c986721d100001a8ebcc,626b377229c10585ec392f8a,626b3c62fe3d26d4a30f1b30,,,,,,,,,,,,,,,,,,,,,,,,,,,,,,,,,,,,,,,0, ,,0,2.364169022,131.6922,0,2,2,2,1,2,3,,,,,,,,,,,,,,,,,
,5c67c986721d100001a8ebcc,001,2022-04-29_10h17.13.984,classification_task,2021.2.3,Win32,60.0348202,5c67c986721d100001a8ebcc,626b377229c10585ec392f8a,626b3c62fe3d26d4a30f1b30,,,,,,,,,,,,,,,,,,,,,,,,,,,,,,,,,,,,,,,1,  ,,0,9.711677239,135.6441,0,2,2,2,1,2,3,,,,,,,,,,,,,,,,,
,5c67c986721d100001a8ebcc,001,2022-04-29_10h17.13.984,classification_task,2021.2.3,Win32,60.0348202,5c67c986721d100001a8ebcc,626b377229c10585ec392f8a,626b3c62fe3d26d4a30f1b30,,,,,,,,,,,,,,,,,,,,,,,,,,,,,,,,,,,,,,,2,  ,,0,5.518805355,137.4925,0,2,2,2,1,2,3,,,,,,,,,,,,,,,,,
,5c67c986721d100001a8ebcc,001,2022-04-29_10h17.13.984,classification_task,2021.2.3,Win32,60.0348202,5c67c986721d100001a8ebcc,626b377229c10585ec392f8a,626b3c62fe3d26d4a30f1b30,,,,,,,,,,,,,,,,,,,,,,,,,,,,,,,,,,,,,,,,,,,,,0,2,2,2,1,,3,,,,,,,,,,,,,,,,,
,5c67c986721d100001a8ebcc,001,2022-04-29_10h17.13.984,classification_task,2021.2.3,Win32,60.0348202,5c67c986721d100001a8ebcc,626b377229c10585ec392f8a,626b3c62fe3d26d4a30f1b30,,,,,,,,,,,,,,,,,,,,,,,,,,,,,,,,,,,,,,,,,,,,,,,,,,,,,I believe the aid is a competent performer,,0.7,0,3,667.3992,0,0,0,0,1,0,,,,
,5c67c986721d100001a8ebcc,001,2022-04-29_10h17.13.984,classification_task,2021.2.3,Win32,60.0348202,5c67c986721d100001a8ebcc,626b377229c10585ec392f8a,626b3c62fe3d26d4a30f1b30,,,,,,,,,,,,,,,,,,,,,,,,,,,,,,,,,,,,,,,,,,,,,,,,,,,,,I trust the aid,,0.7,0,4,675.8486,0,0,0,0,1,0,,,,
,5c67c986721d100001a8ebcc,001,2022-04-29_10h17.13.984,classification_task,2021.2.3,Win32,60.0348202,5c67c986721d100001a8ebcc,626b377229c10585ec392f8a,626b3c62fe3d26d4a30f1b30,,,,,,,,,,,,,,,,,,,,,,,,,,,,,,,,,,,,,,,,,,,,,,,,,,,,,I have confidence in the advice given by the aid,,0.7,0,5,674.2028,0,0,0,0,1,0,,,,
,5c67c986721d100001a8ebcc,001,2022-04-29_10h17.13.984,classification_task,2021.2.3,Win32,60.0348202,5c67c986721d100001a8ebcc,626b377229c10585ec392f8a,626b3c62fe3d26d4a30f1b30,,,,,,,,,,,,,,,,,,,,,,,,,,,,,,,,,,,,,,,,,,,,,,,,,,,,,I can depend on the aid,,0.7,0,5,679.575,0,0,0,0,1,0,,,,
,5c67c986721d100001a8ebcc,001,2022-04-29_10h17.13.984,classification_task,2021.2.3,Win32,60.0348202,5c67c986721d100001a8ebcc,626b377229c10585ec392f8a,626b3c62fe3d26d4a30f1b30,,,,,,,,,,,,,,,,,,,,,,,,,,,,,,,,,,,,,,,,,,,,,,,,,,,,,I can rely on the aid to behave in consistent ways,,0.7,0,5,683.6642,0,0,0,0,1,0,,,,
,5c67c986721d100001a8ebcc,001,2022-04-29_10h17.13.984,classification_task,2021.2.3,Win32,60.0348202,5c67c986721d100001a8ebcc,626b377229c10585ec392f8a,626b3c62fe3d26d4a30f1b30,,,,,,,,,,,,,,,,,,,,,,,,,,,,,,,,,,,,,,,,,,,,,,,,,,,,,I can rely on the aid to do its best every time I take its advice,,0.7,0,5,685.1784,0,0,0,0,1,0,,,,
,5c67c986721d100001a8ebcc,001,2022-04-29_10h17.13.984,classification_task,2021.2.3,Win32,60.0348202,5c67c986721d100001a8ebcc,626b377229c10585ec392f8a,626b3c62fe3d26d4a30f1b30,,,,,,,,,,,,,,,,,,,,,,,,,,,,,,,,,,,,,,,,,,,,,,,,,,,,,"On trials you completed with assistance from the aid, how frequently did you think the aid was correct?",,0.7,0,80,,0,0,0,0,1,0,,,,
,5c67c986721d100001a8ebcc,001,2022-04-29_10h17.13.984,classification_task,2021.2.3,Win32,60.0348202,5c67c986721d100001a8ebcc,626b377229c10585ec392f8a,626b3c62fe3d26d4a30f1b30,,,,,,,,,,,,,,,,,,,,,,,,,,,,,,,,,,,,,,,,,,,,,,,,,,,,,"On trials you completed without the aid, how frequently did you think you were correct?",,0.7,0,40,,0,0,0,0,1,0,,,,
,5c67c986721d100001a8ebcc,001,2022-04-29_10h17.13.984,classification_task,2021.2.3,Win32,60.0348202,5c67c986721d100001a8ebcc,626b377229c10585ec392f8a,626b3c62fe3d26d4a30f1b30,,,,,,,,,,,,,,,,,,,,,,,,,,,,,,,,,,,,,,,,,,,,,,,,,,,,,,,,,,,0,0,0,0,1,,,,,
,5c67c986721d100001a8ebcc,001,2022-04-29_10h17.13.984,classification_task,2021.2.3,Win32,60.0348202,5c67c986721d100001a8ebcc,626b377229c10585ec392f8a,626b3c62fe3d26d4a30f1b30,,,,,,,,,,,,,,,,,,,,,,,,,,,,,,,,,,,,,,,,,,,,,,,,,,,,,,,,,,,,,,,,,space,2.5686,703.6671,
,5c67c986721d100001a8ebcc,001,2022-04-29_10h17.13.984,classification_task,2021.2.3,Win32,60.0348202,5c67c986721d100001a8ebcc,626b377229c10585ec392f8a,626b3c62fe3d26d4a30f1b30,,,,,,,,,,,,,,,,,,,,,,,,,,,,,,,,,,,,,,,,,,,,,,,,,,,,,,,,,,,,,,,,,,,,"Mozilla/5.0 (Windows NT 10.0; Win64; x64) AppleWebKit/537.36 (KHTML, like Gecko) Chrome/100.0.4896.127 Safari/537.36"
