usingWebGL,participant,session,date,expName,psychopyVersion,OS,frameRate,PROLIFIC_PID,STUDY_ID,SESSION_ID,signatures_friend,signatures_foe,band_ranges_top,band_ranges_bottom,formitemText,formtype,formundefined,formitemWidth,formindex,formresponse,formrt,key_resp_2.keys,key_resp_2.rt,tute_resp.keys,tute_resp.rt,tutorial.thisRepN,tutorial.thisTrialN,tutorial.thisN,tutorial.thisIndex,tutorial.ran,key_resp_4.keys,key_resp_4.rt,key_resp.keys,key_resp.corr,key_resp.rt,lines_presented,is_signal_presented,trials.thisRepN,trials.thisTrialN,trials.thisN,trials.thisIndex,trials.ran,vessel,active_band,lines,is_signal,supported_pos,catch_trial,debrief_formindex,debrief_formitemText,debrief_formtype,debrief_formitemWidth,debrief_formresponse,debrief_formrt,phases.thisRepN,phases.thisTrialN,phases.thisN,phases.thisIndex,phases.ran,phases.order,phase,key_resp_3.keys,key_resp_3.rt,trustitemText,trusttype,trustitemWidth,trustindex,trustresponse,trustrt,support_status.thisRepN,support_status.thisTrialN,support_status.thisN,support_status.thisIndex,support_status.ran,support_status.order,key_resp_5.keys,key_resp_5.rt,globalClockTime,userAgent
TRUE,5c91942b707ed90011858f48,001,2022-04-29_03h09.32.419,classification_task,2021.2.3,Win32,59.98080614,5c91942b707ed90011858f48,626b377229c10585ec392f89,626b39de363d4fba9517e102,,,,,,,,,,,,,,,,,,,,,,,,,,,,,,,,,,,,,,,,,,,,,,,,,,,,,,,,,,,,,,,,,,,,,
,5c91942b707ed90011858f48,001,2022-04-29_03h09.32.419,classification_task,2021.2.3,Win32,59.98080614,5c91942b707ed90011858f48,626b377229c10585ec392f89,626b39de363d4fba9517e102,"[[""0.236"",""0.559"",""0.767"",""0.972""],[""0.311"",""0.394"",""0.652"",""0.890""]]","[[""0.078"",""0.202"",""0.601"",""0.837""],[""0.145"",""0.275"",""0.467"",""0.696""]]","[1,10]","[100,1000]",Video game experience,,,0.7,0,,,,,,,,,,,,,,,,,,,,,,,,,,,,,,,,,,,,,,,,,,,,,,,,,,,,,,,,,,,,
,5c91942b707ed90011858f48,001,2022-04-29_03h09.32.419,classification_task,2021.2.3,Win32,59.98080614,5c91942b707ed90011858f48,626b377229c10585ec392f89,626b39de363d4fba9517e102,,,,,Approximately how many hours did you spend playing video games in the last week?,,,0.7,0,26,,,,,,,,,,,,,,,,,,,,,,,,,,,,,,,,,,,,,,,,,,,,,,,,,,,,,,,,,,,
,5c91942b707ed90011858f48,001,2022-04-29_03h09.32.419,classification_task,2021.2.3,Win32,59.98080614,5c91942b707ed90011858f48,626b377229c10585ec392f89,626b39de363d4fba9517e102,,,,,"Which game did you play the most this year? (Enter ""None"" if you didn't play any)",,,0.7,0,LOST ARK,,,,,,,,,,,,,,,,,,,,,,,,,,,,,,,,,,,,,,,,,,,,,,,,,,,,,,,,,,,
,5c91942b707ed90011858f48,001,2022-04-29_03h09.32.419,classification_task,2021.2.3,Win32,59.98080614,5c91942b707ed90011858f48,626b377229c10585ec392f89,626b39de363d4fba9517e102,,,,,Visual perception,,,0.7,0,,,,,,,,,,,,,,,,,,,,,,,,,,,,,,,,,,,,,,,,,,,,,,,,,,,,,,,,,,,,
,5c91942b707ed90011858f48,001,2022-04-29_03h09.32.419,classification_task,2021.2.3,Win32,59.98080614,5c91942b707ed90011858f48,626b377229c10585ec392f89,626b39de363d4fba9517e102,,,,,Do you have any form of color blindness?,,,0.7,0,No,20.9319,,,,,,,,,,,,,,,,,,,,,,,,,,,,,,,,,,,,,,,,,,,,,,,,,,,,,,,,,,
,5c91942b707ed90011858f48,001,2022-04-29_03h09.32.419,classification_task,2021.2.3,Win32,59.98080614,5c91942b707ed90011858f48,626b377229c10585ec392f89,626b39de363d4fba9517e102,,,,,Do you use software to change the colour temperature of your screen (e.g. f.lux)?,,,0.7,0,No,23.3965,,,,,,,,,,,,,,,,,,,,,,,,,,,,,,,,,,,,,,,,,,,,,,,,,,,,,,,,,,
,5c91942b707ed90011858f48,001,2022-04-29_03h09.32.419,classification_task,2021.2.3,Win32,59.98080614,5c91942b707ed90011858f48,626b377229c10585ec392f89,626b39de363d4fba9517e102,,,,,,,,,,,,space,22.7419,space,9.4665,0,0,0,0,1,,,,,,,,,,,,,,,,,,,,,,,,,,,,,,,,,,,,,,,,,,,,,,,,,
,5c91942b707ed90011858f48,001,2022-04-29_03h09.32.419,classification_task,2021.2.3,Win32,59.98080614,5c91942b707ed90011858f48,626b377229c10585ec392f89,626b39de363d4fba9517e102,,,,,,,,,,,,,,space,8.6502,1,0,1,0,1,,,,,,,,,,,,,,,,,,,,,,,,,,,,,,,,,,,,,,,,,,,,,,,,,
,5c91942b707ed90011858f48,001,2022-04-29_03h09.32.419,classification_task,2021.2.3,Win32,59.98080614,5c91942b707ed90011858f48,626b377229c10585ec392f89,626b39de363d4fba9517e102,,,,,,,,,,,,,,space,12.8844,2,0,2,0,1,,,,,,,,,,,,,,,,,,,,,,,,,,,,,,,,,,,,,,,,,,,,,,,,,
,5c91942b707ed90011858f48,001,2022-04-29_03h09.32.419,classification_task,2021.2.3,Win32,59.98080614,5c91942b707ed90011858f48,626b377229c10585ec392f89,626b39de363d4fba9517e102,,,,,,,,,,,,,,space,10.6673,3,0,3,0,1,,,,,,,,,,,,,,,,,,,,,,,,,,,,,,,,,,,,,,,,,,,,,,,,,
,5c91942b707ed90011858f48,001,2022-04-29_03h09.32.419,classification_task,2021.2.3,Win32,59.98080614,5c91942b707ed90011858f48,626b377229c10585ec392f89,626b39de363d4fba9517e102,,,,,,,,,,,,,,space,8.0337,4,0,4,0,1,,,,,,,,,,,,,,,,,,,,,,,,,,,,,,,,,,,,,,,,,,,,,,,,,
,5c91942b707ed90011858f48,001,2022-04-29_03h09.32.419,classification_task,2021.2.3,Win32,59.98080614,5c91942b707ed90011858f48,626b377229c10585ec392f89,626b39de363d4fba9517e102,,,,,,,,,,,,,,,,,,,,,space,10.1663,l,1,8.317,"[""0.078"",""0.202"",""0.601"",""0.025""]","[1,1,1,0]",0,0,0,0,1,1,0,,,0,FALSE,,,,,,,,,,,,,,,,,,,,,,,,,,,,,,,
,5c91942b707ed90011858f48,001,2022-04-29_03h09.32.419,classification_task,2021.2.3,Win32,59.98080614,5c91942b707ed90011858f48,626b377229c10585ec392f89,626b39de363d4fba9517e102,,,,,,,,,,,,,,,,,,,,,,,l,1,7.567,"[""0.145"",""0.355"",""0.467"",""0.696""]","[1,0,1,1]",0,1,1,1,1,1,1,,,0,FALSE,,,,,,,,,,,,,,,,,,,,,,,,,,,,,,,
,5c91942b707ed90011858f48,001,2022-04-29_03h09.32.419,classification_task,2021.2.3,Win32,59.98080614,5c91942b707ed90011858f48,626b377229c10585ec392f89,626b39de363d4fba9517e102,,,,,,,,,,,,,,,,,,,,,,,l,1,3.8666,"[""0.078"",""0.202"",""0.505"",""0.837""]","[1,1,0,1]",0,2,2,2,1,1,0,,,0,FALSE,,,,,,,,,,,,,,,,,,,,,,,,,,,,,,,
,5c91942b707ed90011858f48,001,2022-04-29_03h09.32.419,classification_task,2021.2.3,Win32,59.98080614,5c91942b707ed90011858f48,626b377229c10585ec392f89,626b39de363d4fba9517e102,,,,,,,,,,,,,,,,,,,,,,,a,1,3.1169,"[""0.501"",""0.394"",""0.652"",""0.890""]","[0,1,1,1]",0,3,3,3,1,0,1,,,0,FALSE,,,,,,,,,,,,,,,,,,,,,,,,,,,,,,,
,5c91942b707ed90011858f48,001,2022-04-29_03h09.32.419,classification_task,2021.2.3,Win32,59.98080614,5c91942b707ed90011858f48,626b377229c10585ec392f89,626b39de363d4fba9517e102,,,,,,,,,,,,,,,,,,,,,,,l,1,2.4499,"[""0.078"",""0.501"",""0.601"",""0.837""]","[1,0,1,1]",0,4,4,4,1,1,0,,,0,FALSE,,,,,,,,,,,,,,,,,,,,,,,,,,,,,,,
,5c91942b707ed90011858f48,001,2022-04-29_03h09.32.419,classification_task,2021.2.3,Win32,59.98080614,5c91942b707ed90011858f48,626b377229c10585ec392f89,626b39de363d4fba9517e102,,,,,,,,,,,,,,,,,,,,,,,a,1,2.4668,"[""0.236"",""0.559"",""0.505"",""0.972""]","[1,1,0,1]",0,5,5,5,1,0,0,,,0,FALSE,,,,,,,,,,,,,,,,,,,,,,,,,,,,,,,
,5c91942b707ed90011858f48,001,2022-04-29_03h09.32.419,classification_task,2021.2.3,Win32,59.98080614,5c91942b707ed90011858f48,626b377229c10585ec392f89,626b39de363d4fba9517e102,,,,,,,,,,,,,,,,,,,,,,,a,1,3.7002,"[""0.236"",""0.559"",""0.767"",""0.520""]","[1,1,1,0]",0,6,6,6,1,0,0,,,0,FALSE,,,,,,,,,,,,,,,,,,,,,,,,,,,,,,,
,5c91942b707ed90011858f48,001,2022-04-29_03h09.32.419,classification_task,2021.2.3,Win32,59.98080614,5c91942b707ed90011858f48,626b377229c10585ec392f89,626b39de363d4fba9517e102,,,,,,,,,,,,,,,,,,,,,,,,0,,"[""0.311"",""0.509"",""0.652"",""0.890""]","[1,0,1,1]",0,7,7,7,1,0,1,,,0,FALSE,,,,,,,,,,,,,,,,,,,,,,,,,,,,,,,
,5c91942b707ed90011858f48,001,2022-04-29_03h09.32.419,classification_task,2021.2.3,Win32,59.98080614,5c91942b707ed90011858f48,626b377229c10585ec392f89,626b39de363d4fba9517e102,,,,,,,,,,,,,,,,,,,,,,,a,1,7.2502,"[""0.505"",""0.559"",""0.767"",""0.972""]","[0,1,1,1]",0,8,8,8,1,0,0,,,0,FALSE,,,,,,,,,,,,,,,,,,,,,,,,,,,,,,,
,5c91942b707ed90011858f48,001,2022-04-29_03h09.32.419,classification_task,2021.2.3,Win32,59.98080614,5c91942b707ed90011858f48,626b377229c10585ec392f89,626b39de363d4fba9517e102,,,,,,,,,,,,,,,,,,,,,,,l,1,5.717,"[""0.145"",""0.275"",""0.520"",""0.696""]","[1,1,0,1]",0,9,9,9,1,1,1,,,0,FALSE,,,,,,,,,,,,,,,,,,,,,,,,,,,,,,,
,5c91942b707ed90011858f48,001,2022-04-29_03h09.32.419,classification_task,2021.2.3,Win32,59.98080614,5c91942b707ed90011858f48,626b377229c10585ec392f89,626b39de363d4fba9517e102,,,,,,,,,,,,,,,,,,,,,,,l,1,3.45,"[""0.025"",""0.202"",""0.601"",""0.837""]","[0,1,1,1]",0,10,10,10,1,1,0,,,0,FALSE,,,,,,,,,,,,,,,,,,,,,,,,,,,,,,,
,5c91942b707ed90011858f48,001,2022-04-29_03h09.32.419,classification_task,2021.2.3,Win32,59.98080614,5c91942b707ed90011858f48,626b377229c10585ec392f89,626b39de363d4fba9517e102,,,,,,,,,,,,,,,,,,,,,,,l,0,3.6499,"[""0.311"",""0.394"",""0.652"",""0.037""]","[1,1,1,0]",0,11,11,11,1,0,1,,,0,FALSE,,,,,,,,,,,,,,,,,,,,,,,,,,,,,,,
,5c91942b707ed90011858f48,001,2022-04-29_03h09.32.419,classification_task,2021.2.3,Win32,59.98080614,5c91942b707ed90011858f48,626b377229c10585ec392f89,626b39de363d4fba9517e102,,,,,,,,,,,,,,,,,,,,,,,a,1,6.8669,"[""0.236"",""0.931"",""0.767"",""0.972""]","[1,0,1,1]",0,12,12,12,1,0,0,,,0,FALSE,,,,,,,,,,,,,,,,,,,,,,,,,,,,,,,
,5c91942b707ed90011858f48,001,2022-04-29_03h09.32.419,classification_task,2021.2.3,Win32,59.98080614,5c91942b707ed90011858f48,626b377229c10585ec392f89,626b39de363d4fba9517e102,,,,,,,,,,,,,,,,,,,,,,,a,1,5.5504,"[""0.311"",""0.394"",""0.501"",""0.890""]","[1,1,0,1]",0,13,13,13,1,0,1,,,0,FALSE,,,,,,,,,,,,,,,,,,,,,,,,,,,,,,,
,5c91942b707ed90011858f48,001,2022-04-29_03h09.32.419,classification_task,2021.2.3,Win32,59.98080614,5c91942b707ed90011858f48,626b377229c10585ec392f89,626b39de363d4fba9517e102,,,,,,,,,,,,,,,,,,,,,,,l,1,3.1003,"[""0.145"",""0.275"",""0.467"",""0.933""]","[1,1,1,0]",0,14,14,14,1,1,1,,,0,FALSE,,,,,,,,,,,,,,,,,,,,,,,,,,,,,,,
,5c91942b707ed90011858f48,001,2022-04-29_03h09.32.419,classification_task,2021.2.3,Win32,59.98080614,5c91942b707ed90011858f48,626b377229c10585ec392f89,626b39de363d4fba9517e102,,,,,,,,,,,,,,,,,,,,,,,l,1,4.967,"[""0.355"",""0.275"",""0.467"",""0.696""]","[0,1,1,1]",0,15,15,15,1,1,1,,,0,FALSE,,,,,,,,,,,,,,,,,,,,,,,,,,,,,,,
,5c91942b707ed90011858f48,001,2022-04-29_03h09.32.419,classification_task,2021.2.3,Win32,59.98080614,5c91942b707ed90011858f48,626b377229c10585ec392f89,626b39de363d4fba9517e102,,,,,,,,,,,,,,,,,,,,,,,a,1,3.8669,"[""0.311"",""0.394"",""0.501"",""0.890""]","[1,1,0,1]",0,16,16,16,1,0,1,,,0,FALSE,,,,,,,,,,,,,,,,,,,,,,,,,,,,,,,
,5c91942b707ed90011858f48,001,2022-04-29_03h09.32.419,classification_task,2021.2.3,Win32,59.98080614,5c91942b707ed90011858f48,626b377229c10585ec392f89,626b39de363d4fba9517e102,,,,,,,,,,,,,,,,,,,,,,,a,1,5.9502,"[""0.236"",""0.559"",""0.037"",""0.972""]","[1,1,0,1]",0,17,17,17,1,0,0,,,0,FALSE,,,,,,,,,,,,,,,,,,,,,,,,,,,,,,,
,5c91942b707ed90011858f48,001,2022-04-29_03h09.32.419,classification_task,2021.2.3,Win32,59.98080614,5c91942b707ed90011858f48,626b377229c10585ec392f89,626b39de363d4fba9517e102,,,,,,,,,,,,,,,,,,,,,,,a,1,2.6335,"[""0.311"",""0.394"",""0.652"",""0.501""]","[1,1,1,0]",0,18,18,18,1,0,1,,,0,FALSE,,,,,,,,,,,,,,,,,,,,,,,,,,,,,,,
,5c91942b707ed90011858f48,001,2022-04-29_03h09.32.419,classification_task,2021.2.3,Win32,59.98080614,5c91942b707ed90011858f48,626b377229c10585ec392f89,626b39de363d4fba9517e102,,,,,,,,,,,,,,,,,,,,,,,a,1,5.1337,"[""0.509"",""0.394"",""0.652"",""0.890""]","[0,1,1,1]",0,19,19,19,1,0,1,,,0,FALSE,,,,,,,,,,,,,,,,,,,,,,,,,,,,,,,
,5c91942b707ed90011858f48,001,2022-04-29_03h09.32.419,classification_task,2021.2.3,Win32,59.98080614,5c91942b707ed90011858f48,626b377229c10585ec392f89,626b39de363d4fba9517e102,,,,,,,,,,,,,,,,,,,,,,,l,1,1.9169,"[""0.145"",""0.275"",""0.467"",""0.037""]","[1,1,1,0]",0,20,20,20,1,1,1,,,0,FALSE,,,,,,,,,,,,,,,,,,,,,,,,,,,,,,,
,5c91942b707ed90011858f48,001,2022-04-29_03h09.32.419,classification_task,2021.2.3,Win32,59.98080614,5c91942b707ed90011858f48,626b377229c10585ec392f89,626b39de363d4fba9517e102,,,,,,,,,,,,,,,,,,,,,,,l,0,4.8003,"[""0.311"",""0.520"",""0.652"",""0.890""]","[1,0,1,1]",0,21,21,21,1,0,1,,,0,FALSE,,,,,,,,,,,,,,,,,,,,,,,,,,,,,,,
,5c91942b707ed90011858f48,001,2022-04-29_03h09.32.419,classification_task,2021.2.3,Win32,59.98080614,5c91942b707ed90011858f48,626b377229c10585ec392f89,626b39de363d4fba9517e102,,,,,,,,,,,,,,,,,,,,,,,l,1,4.0166,"[""0.145"",""0.025"",""0.467"",""0.696""]","[1,0,1,1]",0,22,22,22,1,1,1,,,0,FALSE,,,,,,,,,,,,,,,,,,,,,,,,,,,,,,,
,5c91942b707ed90011858f48,001,2022-04-29_03h09.32.419,classification_task,2021.2.3,Win32,59.98080614,5c91942b707ed90011858f48,626b377229c10585ec392f89,626b39de363d4fba9517e102,,,,,,,,,,,,,,,,,,,,,,,l,1,2.7837,"[""0.145"",""0.275"",""0.931"",""0.696""]","[1,1,0,1]",0,23,23,23,1,1,1,,,0,FALSE,,,,,,,,,,,,,,,,,,,,,,,,,,,,,,,
,5c91942b707ed90011858f48,001,2022-04-29_03h09.32.419,classification_task,2021.2.3,Win32,59.98080614,5c91942b707ed90011858f48,626b377229c10585ec392f89,626b39de363d4fba9517e102,,,,,,,,,,,,,,,,,,,,,,,l,1,4.3501,"[""0.078"",""0.202"",""0.601"",""0.520""]","[1,1,1,0]",0,24,24,24,1,1,0,,,0,FALSE,,,,,,,,,,,,,,,,,,,,,,,,,,,,,,,
,5c91942b707ed90011858f48,001,2022-04-29_03h09.32.419,classification_task,2021.2.3,Win32,59.98080614,5c91942b707ed90011858f48,626b377229c10585ec392f89,626b39de363d4fba9517e102,,,,,,,,,,,,,,,,,,,,,,,l,0,2.0999,"[""0.030"",""0.559"",""0.767"",""0.972""]","[0,1,1,1]",0,25,25,25,1,0,0,,,0,FALSE,,,,,,,,,,,,,,,,,,,,,,,,,,,,,,,
,5c91942b707ed90011858f48,001,2022-04-29_03h09.32.419,classification_task,2021.2.3,Win32,59.98080614,5c91942b707ed90011858f48,626b377229c10585ec392f89,626b39de363d4fba9517e102,,,,,,,,,,,,,,,,,,,,,,,l,1,5.8836,"[""0.355"",""0.202"",""0.601"",""0.837""]","[0,1,1,1]",0,26,26,26,1,1,0,,,0,FALSE,,,,,,,,,,,,,,,,,,,,,,,,,,,,,,,
,5c91942b707ed90011858f48,001,2022-04-29_03h09.32.419,classification_task,2021.2.3,Win32,59.98080614,5c91942b707ed90011858f48,626b377229c10585ec392f89,626b39de363d4fba9517e102,,,,,,,,,,,,,,,,,,,,,,,l,1,5.1671,"[""0.355"",""0.275"",""0.467"",""0.696""]","[0,1,1,1]",0,27,27,27,1,1,1,,,0,FALSE,,,,,,,,,,,,,,,,,,,,,,,,,,,,,,,
,5c91942b707ed90011858f48,001,2022-04-29_03h09.32.419,classification_task,2021.2.3,Win32,59.98080614,5c91942b707ed90011858f48,626b377229c10585ec392f89,626b39de363d4fba9517e102,,,,,,,,,,,,,,,,,,,,,,,a,1,2.9667,"[""0.236"",""0.501"",""0.767"",""0.972""]","[1,0,1,1]",0,28,28,28,1,0,0,,,0,FALSE,,,,,,,,,,,,,,,,,,,,,,,,,,,,,,,
,5c91942b707ed90011858f48,001,2022-04-29_03h09.32.419,classification_task,2021.2.3,Win32,59.98080614,5c91942b707ed90011858f48,626b377229c10585ec392f89,626b39de363d4fba9517e102,,,,,,,,,,,,,,,,,,,,,,,l,1,3.2167,"[""0.078"",""0.202"",""0.520"",""0.837""]","[1,1,0,1]",0,29,29,29,1,1,0,,,0,FALSE,,,,,,,,,,,,,,,,,,,,,,,,,,,,,,,
,5c91942b707ed90011858f48,001,2022-04-29_03h09.32.419,classification_task,2021.2.3,Win32,59.98080614,5c91942b707ed90011858f48,626b377229c10585ec392f89,626b39de363d4fba9517e102,,,,,,,,,,,,,,,,,,,,,,,a,1,1.7832,"[""0.236"",""0.559"",""0.767"",""0.512""]","[1,1,1,0]",0,30,30,30,1,0,0,,,0,FALSE,,,,,,,,,,,,,,,,,,,,,,,,,,,,,,,
,5c91942b707ed90011858f48,001,2022-04-29_03h09.32.419,classification_task,2021.2.3,Win32,59.98080614,5c91942b707ed90011858f48,626b377229c10585ec392f89,626b39de363d4fba9517e102,,,,,,,,,,,,,,,,,,,,,,,l,1,2.5,"[""0.078"",""0.505"",""0.601"",""0.837""]","[1,0,1,1]",0,31,31,31,1,1,0,,,0,FALSE,,,,,,,,,,,,,,,,,,,,,,,,,,,,,,,
,5c91942b707ed90011858f48,001,2022-04-29_03h09.32.419,classification_task,2021.2.3,Win32,59.98080614,5c91942b707ed90011858f48,626b377229c10585ec392f89,626b39de363d4fba9517e102,,,,,,,,,,,,,,,,,,,,,,,a,1,7.2005,"[""0.311"",""0.037"",""0.652"",""0.890""]","[1,0,1,1]",0,32,32,32,1,0,1,,,0,FALSE,,,,,,,,,,,,,,,,,,,,,,,,,,,,,,,
,5c91942b707ed90011858f48,001,2022-04-29_03h09.32.419,classification_task,2021.2.3,Win32,59.98080614,5c91942b707ed90011858f48,626b377229c10585ec392f89,626b39de363d4fba9517e102,,,,,,,,,,,,,,,,,,,,,,,a,1,1.5999,"[""0.236"",""0.025"",""0.767"",""0.972""]","[1,0,1,1]",0,33,33,33,1,0,0,,,0,FALSE,,,,,,,,,,,,,,,,,,,,,,,,,,,,,,,
,5c91942b707ed90011858f48,001,2022-04-29_03h09.32.419,classification_task,2021.2.3,Win32,59.98080614,5c91942b707ed90011858f48,626b377229c10585ec392f89,626b39de363d4fba9517e102,,,,,,,,,,,,,,,,,,,,,,,l,0,1.4668,"[""0.311"",""0.394"",""0.652"",""0.509""]","[1,1,1,0]",0,34,34,34,1,0,1,,,0,FALSE,,,,,,,,,,,,,,,,,,,,,,,,,,,,,,,
,5c91942b707ed90011858f48,001,2022-04-29_03h09.32.419,classification_task,2021.2.3,Win32,59.98080614,5c91942b707ed90011858f48,626b377229c10585ec392f89,626b39de363d4fba9517e102,,,,,,,,,,,,,,,,,,,,,,,a,0,1.5167,"[""0.145"",""0.275"",""0.505"",""0.696""]","[1,1,0,1]",0,35,35,35,1,1,1,,,0,FALSE,,,,,,,,,,,,,,,,,,,,,,,,,,,,,,,
,5c91942b707ed90011858f48,001,2022-04-29_03h09.32.419,classification_task,2021.2.3,Win32,59.98080614,5c91942b707ed90011858f48,626b377229c10585ec392f89,626b39de363d4fba9517e102,,,,,,,,,,,,,,,,,,,,,,,a,1,1.0833,"[""0.236"",""0.559"",""0.025"",""0.972""]","[1,1,0,1]",0,36,36,36,1,0,0,,,0,FALSE,,,,,,,,,,,,,,,,,,,,,,,,,,,,,,,
,5c91942b707ed90011858f48,001,2022-04-29_03h09.32.419,classification_task,2021.2.3,Win32,59.98080614,5c91942b707ed90011858f48,626b377229c10585ec392f89,626b39de363d4fba9517e102,,,,,,,,,,,,,,,,,,,,,,,l,0,0.9332,"[""0.236"",""0.559"",""0.767"",""0.355""]","[1,1,1,0]",0,37,37,37,1,0,0,,,0,FALSE,,,,,,,,,,,,,,,,,,,,,,,,,,,,,,,
,5c91942b707ed90011858f48,001,2022-04-29_03h09.32.419,classification_task,2021.2.3,Win32,59.98080614,5c91942b707ed90011858f48,626b377229c10585ec392f89,626b39de363d4fba9517e102,,,,,,,,,,,,,,,,,,,,,,,l,1,0.6666,"[""0.355"",""0.202"",""0.601"",""0.837""]","[0,1,1,1]",0,38,38,38,1,1,0,,,0,FALSE,,,,,,,,,,,,,,,,,,,,,,,,,,,,,,,
,5c91942b707ed90011858f48,001,2022-04-29_03h09.32.419,classification_task,2021.2.3,Win32,59.98080614,5c91942b707ed90011858f48,626b377229c10585ec392f89,626b39de363d4fba9517e102,,,,,,,,,,,,,,,,,,,,,,,a,0,1.4835,"[""0.044"",""0.275"",""0.467"",""0.696""]","[0,1,1,1]",0,39,39,39,1,1,1,,,0,FALSE,,,,,,,,,,,,,,,,,,,,,,,,,,,,,,,
,5c91942b707ed90011858f48,001,2022-04-29_03h09.32.419,classification_task,2021.2.3,Win32,59.98080614,5c91942b707ed90011858f48,626b377229c10585ec392f89,626b39de363d4fba9517e102,,,,,,,,,,,,,,,,,,,,,,,a,1,1.3168,"[""0.311"",""0.394"",""0.505"",""0.890""]","[1,1,0,1]",0,40,40,40,1,0,1,,,0,FALSE,,,,,,,,,,,,,,,,,,,,,,,,,,,,,,,
,5c91942b707ed90011858f48,001,2022-04-29_03h09.32.419,classification_task,2021.2.3,Win32,59.98080614,5c91942b707ed90011858f48,626b377229c10585ec392f89,626b39de363d4fba9517e102,,,,,,,,,,,,,,,,,,,,,,,a,0,0.8828,"[""0.078"",""0.202"",""0.037"",""0.837""]","[1,1,0,1]",0,41,41,41,1,1,0,,,0,FALSE,,,,,,,,,,,,,,,,,,,,,,,,,,,,,,,
,5c91942b707ed90011858f48,001,2022-04-29_03h09.32.419,classification_task,2021.2.3,Win32,59.98080614,5c91942b707ed90011858f48,626b377229c10585ec392f89,626b39de363d4fba9517e102,,,,,,,,,,,,,,,,,,,,,,,l,0,0.9499,"[""0.520"",""0.559"",""0.767"",""0.972""]","[0,1,1,1]",0,42,42,42,1,0,0,,,0,FALSE,,,,,,,,,,,,,,,,,,,,,,,,,,,,,,,
,5c91942b707ed90011858f48,001,2022-04-29_03h09.32.419,classification_task,2021.2.3,Win32,59.98080614,5c91942b707ed90011858f48,626b377229c10585ec392f89,626b39de363d4fba9517e102,,,,,,,,,,,,,,,,,,,,,,,l,1,1.1167,"[""0.078"",""0.202"",""0.601"",""0.512""]","[1,1,1,0]",0,43,43,43,1,1,0,,,0,FALSE,,,,,,,,,,,,,,,,,,,,,,,,,,,,,,,
,5c91942b707ed90011858f48,001,2022-04-29_03h09.32.419,classification_task,2021.2.3,Win32,59.98080614,5c91942b707ed90011858f48,626b377229c10585ec392f89,626b39de363d4fba9517e102,,,,,,,,,,,,,,,,,,,,,,,l,1,1.4835,"[""0.145"",""0.044"",""0.467"",""0.696""]","[1,0,1,1]",0,44,44,44,1,1,1,,,0,FALSE,,,,,,,,,,,,,,,,,,,,,,,,,,,,,,,
,5c91942b707ed90011858f48,001,2022-04-29_03h09.32.419,classification_task,2021.2.3,Win32,59.98080614,5c91942b707ed90011858f48,626b377229c10585ec392f89,626b39de363d4fba9517e102,,,,,,,,,,,,,,,,,,,,,,,l,1,1.3667,"[""0.145"",""0.275"",""0.467"",""0.732""]","[1,1,1,0]",0,45,45,45,1,1,1,,,0,FALSE,,,,,,,,,,,,,,,,,,,,,,,,,,,,,,,
,5c91942b707ed90011858f48,001,2022-04-29_03h09.32.419,classification_task,2021.2.3,Win32,59.98080614,5c91942b707ed90011858f48,626b377229c10585ec392f89,626b39de363d4fba9517e102,,,,,,,,,,,,,,,,,,,,,,,a,1,1.3836,"[""0.732"",""0.394"",""0.652"",""0.890""]","[0,1,1,1]",0,46,46,46,1,0,1,,,0,FALSE,,,,,,,,,,,,,,,,,,,,,,,,,,,,,,,
,5c91942b707ed90011858f48,001,2022-04-29_03h09.32.419,classification_task,2021.2.3,Win32,59.98080614,5c91942b707ed90011858f48,626b377229c10585ec392f89,626b39de363d4fba9517e102,,,,,,,,,,,,,,,,,,,,,,,l,1,1.4334,"[""0.078"",""0.933"",""0.601"",""0.837""]","[1,0,1,1]",0,47,47,47,1,1,0,,,0,FALSE,,,,,,,,,,,,,,,,,,,,,,,,,,,,,,,
,5c91942b707ed90011858f48,001,2022-04-29_03h09.32.419,classification_task,2021.2.3,Win32,59.98080614,5c91942b707ed90011858f48,626b377229c10585ec392f89,626b39de363d4fba9517e102,,,,,,,,,,,,,,,,,,,,,,,a,1,1.1667,"[""0.311"",""0.045"",""0.652"",""0.890""]","[1,0,1,1]",0,48,48,48,1,0,1,,,0,FALSE,,,,,,,,,,,,,,,,,,,,,,,,,,,,,,,
,5c91942b707ed90011858f48,001,2022-04-29_03h09.32.419,classification_task,2021.2.3,Win32,59.98080614,5c91942b707ed90011858f48,626b377229c10585ec392f89,626b39de363d4fba9517e102,,,,,,,,,,,,,,,,,,,,,,,a,1,0.8332,"[""0.236"",""0.559"",""0.767"",""0.045""]","[1,1,1,0]",0,49,49,49,1,0,0,,,0,FALSE,,,,,,,,,,,,,,,,,,,,,,,,,,,,,,,
,5c91942b707ed90011858f48,001,2022-04-29_03h09.32.419,classification_task,2021.2.3,Win32,59.98080614,5c91942b707ed90011858f48,626b377229c10585ec392f89,626b39de363d4fba9517e102,,,,,,,,,,,,,,,,,,,,,,,l,1,0.8834,"[""0.145"",""0.275"",""0.467"",""0.512""]","[1,1,1,0]",0,50,50,50,1,1,1,,,0,FALSE,,,,,,,,,,,,,,,,,,,,,,,,,,,,,,,
,5c91942b707ed90011858f48,001,2022-04-29_03h09.32.419,classification_task,2021.2.3,Win32,59.98080614,5c91942b707ed90011858f48,626b377229c10585ec392f89,626b39de363d4fba9517e102,,,,,,,,,,,,,,,,,,,,,,,a,0,1.8167,"[""0.078"",""0.202"",""0.601"",""0.045""]","[1,1,1,0]",0,51,51,51,1,1,0,,,0,FALSE,,,,,,,,,,,,,,,,,,,,,,,,,,,,,,,
,5c91942b707ed90011858f48,001,2022-04-29_03h09.32.419,classification_task,2021.2.3,Win32,59.98080614,5c91942b707ed90011858f48,626b377229c10585ec392f89,626b39de363d4fba9517e102,,,,,,,,,,,,,,,,,,,,,,,a,1,0.7832,"[""0.311"",""0.394"",""0.037"",""0.890""]","[1,1,0,1]",0,52,52,52,1,0,1,,,0,FALSE,,,,,,,,,,,,,,,,,,,,,,,,,,,,,,,
,5c91942b707ed90011858f48,001,2022-04-29_03h09.32.419,classification_task,2021.2.3,Win32,59.98080614,5c91942b707ed90011858f48,626b377229c10585ec392f89,626b39de363d4fba9517e102,,,,,,,,,,,,,,,,,,,,,,,l,1,1.6836,"[""0.359"",""0.275"",""0.467"",""0.696""]","[0,1,1,1]",0,53,53,53,1,1,1,,,0,FALSE,,,,,,,,,,,,,,,,,,,,,,,,,,,,,,,
,5c91942b707ed90011858f48,001,2022-04-29_03h09.32.419,classification_task,2021.2.3,Win32,59.98080614,5c91942b707ed90011858f48,626b377229c10585ec392f89,626b39de363d4fba9517e102,,,,,,,,,,,,,,,,,,,,,,,l,1,1.5499,"[""0.078"",""0.509"",""0.601"",""0.837""]","[1,0,1,1]",0,54,54,54,1,1,0,,,0,FALSE,,,,,,,,,,,,,,,,,,,,,,,,,,,,,,,
,5c91942b707ed90011858f48,001,2022-04-29_03h09.32.419,classification_task,2021.2.3,Win32,59.98080614,5c91942b707ed90011858f48,626b377229c10585ec392f89,626b39de363d4fba9517e102,,,,,,,,,,,,,,,,,,,,,,,l,1,0.9334,"[""0.145"",""0.275"",""0.732"",""0.696""]","[1,1,0,1]",0,55,55,55,1,1,1,,,0,FALSE,,,,,,,,,,,,,,,,,,,,,,,,,,,,,,,
,5c91942b707ed90011858f48,001,2022-04-29_03h09.32.419,classification_task,2021.2.3,Win32,59.98080614,5c91942b707ed90011858f48,626b377229c10585ec392f89,626b39de363d4fba9517e102,,,,,,,,,,,,,,,,,,,,,,,a,1,0.6001,"[""0.311"",""0.394"",""0.652"",""0.030""]","[1,1,1,0]",0,56,56,56,1,0,1,,,0,FALSE,,,,,,,,,,,,,,,,,,,,,,,,,,,,,,,
,5c91942b707ed90011858f48,001,2022-04-29_03h09.32.419,classification_task,2021.2.3,Win32,59.98080614,5c91942b707ed90011858f48,626b377229c10585ec392f89,626b39de363d4fba9517e102,,,,,,,,,,,,,,,,,,,,,,,a,0,0.6832,"[""0.030"",""0.202"",""0.601"",""0.837""]","[0,1,1,1]",0,57,57,57,1,1,0,,,0,FALSE,,,,,,,,,,,,,,,,,,,,,,,,,,,,,,,
,5c91942b707ed90011858f48,001,2022-04-29_03h09.32.419,classification_task,2021.2.3,Win32,59.98080614,5c91942b707ed90011858f48,626b377229c10585ec392f89,626b39de363d4fba9517e102,,,,,,,,,,,,,,,,,,,,,,,a,1,1.6002,"[""0.433"",""0.394"",""0.652"",""0.890""]","[0,1,1,1]",0,58,58,58,1,0,1,,,0,FALSE,,,,,,,,,,,,,,,,,,,,,,,,,,,,,,,
,5c91942b707ed90011858f48,001,2022-04-29_03h09.32.419,classification_task,2021.2.3,Win32,59.98080614,5c91942b707ed90011858f48,626b377229c10585ec392f89,626b39de363d4fba9517e102,,,,,,,,,,,,,,,,,,,,,,,l,1,1.1836,"[""0.145"",""0.509"",""0.467"",""0.696""]","[1,0,1,1]",0,59,59,59,1,1,1,,,0,FALSE,,,,,,,,,,,,,,,,,,,,,,,,,,,,,,,
,5c91942b707ed90011858f48,001,2022-04-29_03h09.32.419,classification_task,2021.2.3,Win32,59.98080614,5c91942b707ed90011858f48,626b377229c10585ec392f89,626b39de363d4fba9517e102,,,,,,,,,,,,,,,,,,,,,,,a,1,0.6499,"[""0.236"",""0.559"",""0.025"",""0.972""]","[1,1,0,1]",0,60,60,60,1,0,0,,,0,FALSE,,,,,,,,,,,,,,,,,,,,,,,,,,,,,,,
,5c91942b707ed90011858f48,001,2022-04-29_03h09.32.419,classification_task,2021.2.3,Win32,59.98080614,5c91942b707ed90011858f48,626b377229c10585ec392f89,626b39de363d4fba9517e102,,,,,,,,,,,,,,,,,,,,,,,l,1,0.6999,"[""0.078"",""0.202"",""0.501"",""0.837""]","[1,1,0,1]",0,61,61,61,1,1,0,,,0,FALSE,,,,,,,,,,,,,,,,,,,,,,,,,,,,,,,
,5c91942b707ed90011858f48,001,2022-04-29_03h09.32.419,classification_task,2021.2.3,Win32,59.98080614,5c91942b707ed90011858f48,626b377229c10585ec392f89,626b39de363d4fba9517e102,,,,,,,,,,,,,,,,,,,,,,,l,0,1.5496,"[""0.509"",""0.559"",""0.767"",""0.972""]","[0,1,1,1]",0,62,62,62,1,0,0,,,0,FALSE,,,,,,,,,,,,,,,,,,,,,,,,,,,,,,,
,5c91942b707ed90011858f48,001,2022-04-29_03h09.32.419,classification_task,2021.2.3,Win32,59.98080614,5c91942b707ed90011858f48,626b377229c10585ec392f89,626b39de363d4fba9517e102,,,,,,,,,,,,,,,,,,,,,,,l,0,0.8333,"[""0.236"",""0.505"",""0.767"",""0.972""]","[1,0,1,1]",0,63,63,63,1,0,0,,,0,FALSE,,,,,,,,,,,,,,,,,,,,,,,,,,,,,,,
,5c91942b707ed90011858f48,001,2022-04-29_03h09.32.419,classification_task,2021.2.3,Win32,59.98080614,5c91942b707ed90011858f48,626b377229c10585ec392f89,626b39de363d4fba9517e102,,,,,,,,,,,,,,,,,,,,,,,,,,,,,,,,,,,,,,,0, ,,0,6.81265922,374.49,0,0,0,0,1,2,1,,,,,,,,,,,,,,,,,,
,5c91942b707ed90011858f48,001,2022-04-29_03h09.32.419,classification_task,2021.2.3,Win32,59.98080614,5c91942b707ed90011858f48,626b377229c10585ec392f89,626b39de363d4fba9517e102,,,,,,,,,,,,,,,,,,,,,,,,,,,,,,,,,,,,,,,1,  ,,0,4.0446796,377.51,0,0,0,0,1,2,1,,,,,,,,,,,,,,,,,,
,5c91942b707ed90011858f48,001,2022-04-29_03h09.32.419,classification_task,2021.2.3,Win32,59.98080614,5c91942b707ed90011858f48,626b377229c10585ec392f89,626b39de363d4fba9517e102,,,,,,,,,,,,,,,,,,,,,,,,,,,,,,,,,,,,,,,2,  ,,0,6.175778954,381.9476,0,0,0,0,1,2,1,,,,,,,,,,,,,,,,,,
,5c91942b707ed90011858f48,001,2022-04-29_03h09.32.419,classification_task,2021.2.3,Win32,59.98080614,5c91942b707ed90011858f48,626b377229c10585ec392f89,626b39de363d4fba9517e102,,,,,,,,,,,,,,,,,,,,,,,,,,,,,,,,,,,,,,,,,,,,,0,0,0,0,1,,1,,,,,,,,,,,,,,,,,,
,5c91942b707ed90011858f48,001,2022-04-29_03h09.32.419,classification_task,2021.2.3,Win32,59.98080614,5c91942b707ed90011858f48,626b377229c10585ec392f89,626b39de363d4fba9517e102,,,,,,,,,,,,,,,,,,,,,space,4.443,l,1,3.0487,"[""0.145"",""0.732"",""0.467"",""0.696""]","[1,0,1,1]",0,0,0,0,1,1,1,,,0,FALSE,,,,,,,,,,,,,,,,,,,,,,,,,,,,,,,
,5c91942b707ed90011858f48,001,2022-04-29_03h09.32.419,classification_task,2021.2.3,Win32,59.98080614,5c91942b707ed90011858f48,626b377229c10585ec392f89,626b39de363d4fba9517e102,,,,,,,,,,,,,,,,,,,,,,,a,1,1.0001,"[""0.311"",""0.394"",""0.501"",""0.890""]","[1,1,0,1]",0,1,1,1,1,0,1,,,0,FALSE,,,,,,,,,,,,,,,,,,,,,,,,,,,,,,,
,5c91942b707ed90011858f48,001,2022-04-29_03h09.32.419,classification_task,2021.2.3,Win32,59.98080614,5c91942b707ed90011858f48,626b377229c10585ec392f89,626b39de363d4fba9517e102,,,,,,,,,,,,,,,,,,,,,,,a,0,2.9161,"[""0.078"",""0.025"",""0.601"",""0.837""]","[1,0,1,1]",0,2,2,2,1,1,0,,,0,FALSE,,,,,,,,,,,,,,,,,,,,,,,,,,,,,,,
,5c91942b707ed90011858f48,001,2022-04-29_03h09.32.419,classification_task,2021.2.3,Win32,59.98080614,5c91942b707ed90011858f48,626b377229c10585ec392f89,626b39de363d4fba9517e102,,,,,,,,,,,,,,,,,,,,,,,a,1,1.7833,"[""0.236"",""0.559"",""0.044"",""0.972""]","[1,1,0,1]",0,3,3,3,1,0,0,,,0,FALSE,,,,,,,,,,,,,,,,,,,,,,,,,,,,,,,
,5c91942b707ed90011858f48,001,2022-04-29_03h09.32.419,classification_task,2021.2.3,Win32,59.98080614,5c91942b707ed90011858f48,626b377229c10585ec392f89,626b39de363d4fba9517e102,,,,,,,,,,,,,,,,,,,,,,,a,1,1.3334,"[""0.025"",""0.394"",""0.652"",""0.890""]","[0,1,1,1]",0,4,4,4,1,0,1,,,0,FALSE,,,,,,,,,,,,,,,,,,,,,,,,,,,,,,,
,5c91942b707ed90011858f48,001,2022-04-29_03h09.32.419,classification_task,2021.2.3,Win32,59.98080614,5c91942b707ed90011858f48,626b377229c10585ec392f89,626b39de363d4fba9517e102,,,,,,,,,,,,,,,,,,,,,,,l,1,0.5491,"[""0.509"",""0.202"",""0.601"",""0.837""]","[0,1,1,1]",0,5,5,5,1,1,0,,,0,FALSE,,,,,,,,,,,,,,,,,,,,,,,,,,,,,,,
,5c91942b707ed90011858f48,001,2022-04-29_03h09.32.419,classification_task,2021.2.3,Win32,59.98080614,5c91942b707ed90011858f48,626b377229c10585ec392f89,626b39de363d4fba9517e102,,,,,,,,,,,,,,,,,,,,,,,a,1,0.6166,"[""0.236"",""0.732"",""0.767"",""0.972""]","[1,0,1,1]",0,6,6,6,1,0,0,,,0,FALSE,,,,,,,,,,,,,,,,,,,,,,,,,,,,,,,
,5c91942b707ed90011858f48,001,2022-04-29_03h09.32.419,classification_task,2021.2.3,Win32,59.98080614,5c91942b707ed90011858f48,626b377229c10585ec392f89,626b39de363d4fba9517e102,,,,,,,,,,,,,,,,,,,,,,,l,1,0.6006,"[""0.078"",""0.202"",""0.030"",""0.837""]","[1,1,0,1]",0,7,7,7,1,1,0,,,0,FALSE,,,,,,,,,,,,,,,,,,,,,,,,,,,,,,,
,5c91942b707ed90011858f48,001,2022-04-29_03h09.32.419,classification_task,2021.2.3,Win32,59.98080614,5c91942b707ed90011858f48,626b377229c10585ec392f89,626b39de363d4fba9517e102,,,,,,,,,,,,,,,,,,,,,,,a,1,0.718,"[""0.037"",""0.559"",""0.767"",""0.972""]","[0,1,1,1]",0,8,8,8,1,0,0,,,0,FALSE,,,,,,,,,,,,,,,,,,,,,,,,,,,,,,,
,5c91942b707ed90011858f48,001,2022-04-29_03h09.32.419,classification_task,2021.2.3,Win32,59.98080614,5c91942b707ed90011858f48,626b377229c10585ec392f89,626b39de363d4fba9517e102,,,,,,,,,,,,,,,,,,,,,,,a,1,1.0827,"[""0.311"",""0.394"",""0.652"",""0.025""]","[1,1,1,0]",0,9,9,9,1,0,1,,,0,FALSE,,,,,,,,,,,,,,,,,,,,,,,,,,,,,,,
,5c91942b707ed90011858f48,001,2022-04-29_03h09.32.419,classification_task,2021.2.3,Win32,59.98080614,5c91942b707ed90011858f48,626b377229c10585ec392f89,626b39de363d4fba9517e102,,,,,,,,,,,,,,,,,,,,,,,l,1,0.9667,"[""0.145"",""0.275"",""0.433"",""0.696""]","[1,1,0,1]",0,10,10,10,1,1,1,,,0,FALSE,,,,,,,,,,,,,,,,,,,,,,,,,,,,,,,
,5c91942b707ed90011858f48,001,2022-04-29_03h09.32.419,classification_task,2021.2.3,Win32,59.98080614,5c91942b707ed90011858f48,626b377229c10585ec392f89,626b39de363d4fba9517e102,,,,,,,,,,,,,,,,,,,,,,,l,1,1.6677,"[""0.145"",""0.275"",""0.467"",""0.433""]","[1,1,1,0]",0,11,11,11,1,1,1,,,0,FALSE,,,,,,,,,,,,,,,,,,,,,,,,,,,,,,,
,5c91942b707ed90011858f48,001,2022-04-29_03h09.32.419,classification_task,2021.2.3,Win32,59.98080614,5c91942b707ed90011858f48,626b377229c10585ec392f89,626b39de363d4fba9517e102,,,,,,,,,,,,,,,,,,,,,,,l,1,1.0991,"[""0.078"",""0.202"",""0.601"",""0.433""]","[1,1,1,0]",0,12,12,12,1,1,0,,,0,FALSE,,,,,,,,,,,,,,,,,,,,,,,,,,,,,,,
,5c91942b707ed90011858f48,001,2022-04-29_03h09.32.419,classification_task,2021.2.3,Win32,59.98080614,5c91942b707ed90011858f48,626b377229c10585ec392f89,626b39de363d4fba9517e102,,,,,,,,,,,,,,,,,,,,,,,l,0,1.1668,"[""0.311"",""0.933"",""0.652"",""0.890""]","[1,0,1,1]",0,13,13,13,1,0,1,,,0,FALSE,,,,,,,,,,,,,,,,,,,,,,,,,,,,,,,
,5c91942b707ed90011858f48,001,2022-04-29_03h09.32.419,classification_task,2021.2.3,Win32,59.98080614,5c91942b707ed90011858f48,626b377229c10585ec392f89,626b39de363d4fba9517e102,,,,,,,,,,,,,,,,,,,,,,,a,1,0.5499,"[""0.236"",""0.559"",""0.767"",""0.732""]","[1,1,1,0]",0,14,14,14,1,0,0,,,0,FALSE,,,,,,,,,,,,,,,,,,,,,,,,,,,,,,,
,5c91942b707ed90011858f48,001,2022-04-29_03h09.32.419,classification_task,2021.2.3,Win32,59.98080614,5c91942b707ed90011858f48,626b377229c10585ec392f89,626b39de363d4fba9517e102,,,,,,,,,,,,,,,,,,,,,,,a,0,0.85,"[""0.037"",""0.275"",""0.467"",""0.696""]","[0,1,1,1]",0,15,15,15,1,1,1,,,0,FALSE,,,,,,,,,,,,,,,,,,,,,,,,,,,,,,,
,5c91942b707ed90011858f48,001,2022-04-29_03h09.32.419,classification_task,2021.2.3,Win32,59.98080614,5c91942b707ed90011858f48,626b377229c10585ec392f89,626b39de363d4fba9517e102,,,,,,,,,,,,,,,,,,,,,,,l,1,1.0173,"[""0.355"",""0.202"",""0.601"",""0.837""]","[0,1,1,1]",0,16,16,16,1,1,0,,,0,FALSE,,,,,,,,,,,,,,,,,,,,,,,,,,,,,,,
,5c91942b707ed90011858f48,001,2022-04-29_03h09.32.419,classification_task,2021.2.3,Win32,59.98080614,5c91942b707ed90011858f48,626b377229c10585ec392f89,626b39de363d4fba9517e102,,,,,,,,,,,,,,,,,,,,,,,l,1,1.0002,"[""0.145"",""0.275"",""0.512"",""0.696""]","[1,1,0,1]",0,17,17,17,1,1,1,,,0,FALSE,,,,,,,,,,,,,,,,,,,,,,,,,,,,,,,
,5c91942b707ed90011858f48,001,2022-04-29_03h09.32.419,classification_task,2021.2.3,Win32,59.98080614,5c91942b707ed90011858f48,626b377229c10585ec392f89,626b39de363d4fba9517e102,,,,,,,,,,,,,,,,,,,,,,,l,1,1.2497,"[""0.078"",""0.202"",""0.512"",""0.837""]","[1,1,0,1]",0,18,18,18,1,1,0,,,0,FALSE,,,,,,,,,,,,,,,,,,,,,,,,,,,,,,,
,5c91942b707ed90011858f48,001,2022-04-29_03h09.32.419,classification_task,2021.2.3,Win32,59.98080614,5c91942b707ed90011858f48,626b377229c10585ec392f89,626b39de363d4fba9517e102,,,,,,,,,,,,,,,,,,,,,,,a,1,0.7005,"[""0.501"",""0.559"",""0.767"",""0.972""]","[0,1,1,1]",0,19,19,19,1,0,0,,,0,FALSE,,,,,,,,,,,,,,,,,,,,,,,,,,,,,,,
,5c91942b707ed90011858f48,001,2022-04-29_03h09.32.419,classification_task,2021.2.3,Win32,59.98080614,5c91942b707ed90011858f48,626b377229c10585ec392f89,626b39de363d4fba9517e102,,,,,,,,,,,,,,,,,,,,,,,l,1,0.5661,"[""0.078"",""0.202"",""0.601"",""0.505""]","[1,1,1,0]",0,20,20,20,1,1,0,,,0,FALSE,,,,,,,,,,,,,,,,,,,,,,,,,,,,,,,
,5c91942b707ed90011858f48,001,2022-04-29_03h09.32.419,classification_task,2021.2.3,Win32,59.98080614,5c91942b707ed90011858f48,626b377229c10585ec392f89,626b39de363d4fba9517e102,,,,,,,,,,,,,,,,,,,,,,,a,1,0.8667,"[""0.311"",""0.394"",""0.025"",""0.890""]","[1,1,0,1]",0,21,21,21,1,0,1,,,0,FALSE,,,,,,,,,,,,,,,,,,,,,,,,,,,,,,,
,5c91942b707ed90011858f48,001,2022-04-29_03h09.32.419,classification_task,2021.2.3,Win32,59.98080614,5c91942b707ed90011858f48,626b377229c10585ec392f89,626b39de363d4fba9517e102,,,,,,,,,,,,,,,,,,,,,,,a,1,0.5506,"[""0.025"",""0.394"",""0.652"",""0.890""]","[0,1,1,1]",0,22,22,22,1,0,1,,,0,FALSE,,,,,,,,,,,,,,,,,,,,,,,,,,,,,,,
,5c91942b707ed90011858f48,001,2022-04-29_03h09.32.419,classification_task,2021.2.3,Win32,59.98080614,5c91942b707ed90011858f48,626b377229c10585ec392f89,626b39de363d4fba9517e102,,,,,,,,,,,,,,,,,,,,,,,l,1,0.6001,"[""0.512"",""0.275"",""0.467"",""0.696""]","[0,1,1,1]",0,23,23,23,1,1,1,,,0,FALSE,,,,,,,,,,,,,,,,,,,,,,,,,,,,,,,
,5c91942b707ed90011858f48,001,2022-04-29_03h09.32.419,classification_task,2021.2.3,Win32,59.98080614,5c91942b707ed90011858f48,626b377229c10585ec392f89,626b39de363d4fba9517e102,,,,,,,,,,,,,,,,,,,,,,,a,0,0.6174,"[""0.145"",""0.275"",""0.467"",""0.045""]","[1,1,1,0]",0,24,24,24,1,1,1,,,0,FALSE,,,,,,,,,,,,,,,,,,,,,,,,,,,,,,,
,5c91942b707ed90011858f48,001,2022-04-29_03h09.32.419,classification_task,2021.2.3,Win32,59.98080614,5c91942b707ed90011858f48,626b377229c10585ec392f89,626b39de363d4fba9517e102,,,,,,,,,,,,,,,,,,,,,,,l,1,0.7332,"[""0.078"",""0.512"",""0.601"",""0.837""]","[1,0,1,1]",0,25,25,25,1,1,0,,,0,FALSE,,,,,,,,,,,,,,,,,,,,,,,,,,,,,,,
,5c91942b707ed90011858f48,001,2022-04-29_03h09.32.419,classification_task,2021.2.3,Win32,59.98080614,5c91942b707ed90011858f48,626b377229c10585ec392f89,626b39de363d4fba9517e102,,,,,,,,,,,,,,,,,,,,,,,a,1,1.2335,"[""0.311"",""0.512"",""0.652"",""0.890""]","[1,0,1,1]",0,26,26,26,1,0,1,,,0,FALSE,,,,,,,,,,,,,,,,,,,,,,,,,,,,,,,
,5c91942b707ed90011858f48,001,2022-04-29_03h09.32.419,classification_task,2021.2.3,Win32,59.98080614,5c91942b707ed90011858f48,626b377229c10585ec392f89,626b39de363d4fba9517e102,,,,,,,,,,,,,,,,,,,,,,,a,1,0.8325,"[""0.236"",""0.559"",""0.045"",""0.972""]","[1,1,0,1]",0,27,27,27,1,0,0,,,0,FALSE,,,,,,,,,,,,,,,,,,,,,,,,,,,,,,,
,5c91942b707ed90011858f48,001,2022-04-29_03h09.32.419,classification_task,2021.2.3,Win32,59.98080614,5c91942b707ed90011858f48,626b377229c10585ec392f89,626b39de363d4fba9517e102,,,,,,,,,,,,,,,,,,,,,,,a,1,0.6342,"[""0.236"",""0.559"",""0.767"",""0.505""]","[1,1,1,0]",0,28,28,28,1,0,0,,,0,FALSE,,,,,,,,,,,,,,,,,,,,,,,,,,,,,,,
,5c91942b707ed90011858f48,001,2022-04-29_03h09.32.419,classification_task,2021.2.3,Win32,59.98080614,5c91942b707ed90011858f48,626b377229c10585ec392f89,626b39de363d4fba9517e102,,,,,,,,,,,,,,,,,,,,,,,a,1,0.5168,"[""0.236"",""0.509"",""0.767"",""0.972""]","[1,0,1,1]",0,29,29,29,1,0,0,,,0,FALSE,,,,,,,,,,,,,,,,,,,,,,,,,,,,,,,
,5c91942b707ed90011858f48,001,2022-04-29_03h09.32.419,classification_task,2021.2.3,Win32,59.98080614,5c91942b707ed90011858f48,626b377229c10585ec392f89,626b39de363d4fba9517e102,,,,,,,,,,,,,,,,,,,,,,,a,1,1.3501,"[""0.311"",""0.394"",""0.652"",""0.933""]","[1,1,1,0]",0,30,30,30,1,0,1,,,0,FALSE,,,,,,,,,,,,,,,,,,,,,,,,,,,,,,,
,5c91942b707ed90011858f48,001,2022-04-29_03h09.32.419,classification_task,2021.2.3,Win32,59.98080614,5c91942b707ed90011858f48,626b377229c10585ec392f89,626b39de363d4fba9517e102,,,,,,,,,,,,,,,,,,,,,,,l,1,1.0501,"[""0.145"",""0.732"",""0.467"",""0.696""]","[1,0,1,1]",0,31,31,31,1,1,1,,,0,FALSE,,,,,,,,,,,,,,,,,,,,,,,,,,,,,,,
,5c91942b707ed90011858f48,001,2022-04-29_03h09.32.419,classification_task,2021.2.3,Win32,59.98080614,5c91942b707ed90011858f48,626b377229c10585ec392f89,626b39de363d4fba9517e102,,,,,,,,,,,,,,,,,,,,,,,a,1,1.1999,"[""0.236"",""0.933"",""0.767"",""0.972""]","[1,0,1,1]",0,32,32,32,1,0,0,,,0,FALSE,,,,,,,,,,,,,,,,,,,,,,,,,,,,,,,
,5c91942b707ed90011858f48,001,2022-04-29_03h09.32.419,classification_task,2021.2.3,Win32,59.98080614,5c91942b707ed90011858f48,626b377229c10585ec392f89,626b39de363d4fba9517e102,,,,,,,,,,,,,,,,,,,,,,,a,0,1.2001,"[""0.145"",""0.045"",""0.467"",""0.696""]","[1,0,1,1]",0,33,33,33,1,1,1,,,0,FALSE,,,,,,,,,,,,,,,,,,,,,,,,,,,,,,,
,5c91942b707ed90011858f48,001,2022-04-29_03h09.32.419,classification_task,2021.2.3,Win32,59.98080614,5c91942b707ed90011858f48,626b377229c10585ec392f89,626b39de363d4fba9517e102,,,,,,,,,,,,,,,,,,,,,,,l,1,0.9665,"[""0.078"",""0.501"",""0.601"",""0.837""]","[1,0,1,1]",0,34,34,34,1,1,0,,,0,FALSE,,,,,,,,,,,,,,,,,,,,,,,,,,,,,,,
,5c91942b707ed90011858f48,001,2022-04-29_03h09.32.419,classification_task,2021.2.3,Win32,59.98080614,5c91942b707ed90011858f48,626b377229c10585ec392f89,626b39de363d4fba9517e102,,,,,,,,,,,,,,,,,,,,,,,l,0,1.1166,"[""0.311"",""0.394"",""0.652"",""0.045""]","[1,1,1,0]",0,35,35,35,1,0,1,,,0,FALSE,,,,,,,,,,,,,,,,,,,,,,,,,,,,,,,
,5c91942b707ed90011858f48,001,2022-04-29_03h09.32.419,classification_task,2021.2.3,Win32,59.98080614,5c91942b707ed90011858f48,626b377229c10585ec392f89,626b39de363d4fba9517e102,,,,,,,,,,,,,,,,,,,,,,,a,1,0.9157,"[""0.236"",""0.559"",""0.767"",""0.512""]","[1,1,1,0]",0,36,36,36,1,0,0,,,0,FALSE,,,,,,,,,,,,,,,,,,,,,,,,,,,,,,,
,5c91942b707ed90011858f48,001,2022-04-29_03h09.32.419,classification_task,2021.2.3,Win32,59.98080614,5c91942b707ed90011858f48,626b377229c10585ec392f89,626b39de363d4fba9517e102,,,,,,,,,,,,,,,,,,,,,,,l,1,0.8665,"[""0.078"",""0.202"",""0.030"",""0.837""]","[1,1,0,1]",0,37,37,37,1,1,0,,,0,FALSE,,,,,,,,,,,,,,,,,,,,,,,,,,,,,,,
,5c91942b707ed90011858f48,001,2022-04-29_03h09.32.419,classification_task,2021.2.3,Win32,59.98080614,5c91942b707ed90011858f48,626b377229c10585ec392f89,626b39de363d4fba9517e102,,,,,,,,,,,,,,,,,,,,,,,a,1,0.7494,"[""0.236"",""0.559"",""0.931"",""0.972""]","[1,1,0,1]",0,38,38,38,1,0,0,,,0,FALSE,,,,,,,,,,,,,,,,,,,,,,,,,,,,,,,
,5c91942b707ed90011858f48,001,2022-04-29_03h09.32.419,classification_task,2021.2.3,Win32,59.98080614,5c91942b707ed90011858f48,626b377229c10585ec392f89,626b39de363d4fba9517e102,,,,,,,,,,,,,,,,,,,,,,,a,0,0.7334,"[""0.145"",""0.275"",""0.467"",""0.037""]","[1,1,1,0]",0,39,39,39,1,1,1,,,0,FALSE,,,,,,,,,,,,,,,,,,,,,,,,,,,,,,,
,5c91942b707ed90011858f48,001,2022-04-29_03h09.32.419,classification_task,2021.2.3,Win32,59.98080614,5c91942b707ed90011858f48,626b377229c10585ec392f89,626b39de363d4fba9517e102,,,,,,,,,,,,,,,,,,,,,,,a,1,1.1839,"[""0.311"",""0.509"",""0.652"",""0.890""]","[1,0,1,1]",0,40,40,40,1,0,1,,,0,FALSE,,,,,,,,,,,,,,,,,,,,,,,,,,,,,,,
,5c91942b707ed90011858f48,001,2022-04-29_03h09.32.419,classification_task,2021.2.3,Win32,59.98080614,5c91942b707ed90011858f48,626b377229c10585ec392f89,626b39de363d4fba9517e102,,,,,,,,,,,,,,,,,,,,,,,l,1,0.6658,"[""0.078"",""0.202"",""0.601"",""0.359""]","[1,1,1,0]",0,41,41,41,1,1,0,,,0,FALSE,,,,,,,,,,,,,,,,,,,,,,,,,,,,,,,
,5c91942b707ed90011858f48,001,2022-04-29_03h09.32.419,classification_task,2021.2.3,Win32,59.98080614,5c91942b707ed90011858f48,626b377229c10585ec392f89,626b39de363d4fba9517e102,,,,,,,,,,,,,,,,,,,,,,,l,0,1.1334,"[""0.311"",""0.394"",""0.933"",""0.890""]","[1,1,0,1]",0,42,42,42,1,0,1,,,0,FALSE,,,,,,,,,,,,,,,,,,,,,,,,,,,,,,,
,5c91942b707ed90011858f48,001,2022-04-29_03h09.32.419,classification_task,2021.2.3,Win32,59.98080614,5c91942b707ed90011858f48,626b377229c10585ec392f89,626b39de363d4fba9517e102,,,,,,,,,,,,,,,,,,,,,,,l,1,1.1674,"[""0.045"",""0.275"",""0.467"",""0.696""]","[0,1,1,1]",0,43,43,43,1,1,1,,,0,FALSE,,,,,,,,,,,,,,,,,,,,,,,,,,,,,,,
,5c91942b707ed90011858f48,001,2022-04-29_03h09.32.419,classification_task,2021.2.3,Win32,59.98080614,5c91942b707ed90011858f48,626b377229c10585ec392f89,626b39de363d4fba9517e102,,,,,,,,,,,,,,,,,,,,,,,a,1,0.9834,"[""0.025"",""0.559"",""0.767"",""0.972""]","[0,1,1,1]",0,44,44,44,1,0,0,,,0,FALSE,,,,,,,,,,,,,,,,,,,,,,,,,,,,,,,
,5c91942b707ed90011858f48,001,2022-04-29_03h09.32.419,classification_task,2021.2.3,Win32,59.98080614,5c91942b707ed90011858f48,626b377229c10585ec392f89,626b39de363d4fba9517e102,,,,,,,,,,,,,,,,,,,,,,,a,1,1.2828,"[""0.433"",""0.394"",""0.652"",""0.890""]","[0,1,1,1]",0,45,45,45,1,0,1,,,0,FALSE,,,,,,,,,,,,,,,,,,,,,,,,,,,,,,,
,5c91942b707ed90011858f48,001,2022-04-29_03h09.32.419,classification_task,2021.2.3,Win32,59.98080614,5c91942b707ed90011858f48,626b377229c10585ec392f89,626b39de363d4fba9517e102,,,,,,,,,,,,,,,,,,,,,,,l,1,0.9509,"[""0.145"",""0.275"",""0.509"",""0.696""]","[1,1,0,1]",0,46,46,46,1,1,1,,,0,FALSE,,,,,,,,,,,,,,,,,,,,,,,,,,,,,,,
,5c91942b707ed90011858f48,001,2022-04-29_03h09.32.419,classification_task,2021.2.3,Win32,59.98080614,5c91942b707ed90011858f48,626b377229c10585ec392f89,626b39de363d4fba9517e102,,,,,,,,,,,,,,,,,,,,,,,l,1,0.6158,"[""0.355"",""0.202"",""0.601"",""0.837""]","[0,1,1,1]",0,47,47,47,1,1,0,,,0,FALSE,,,,,,,,,,,,,,,,,,,,,,,,,,,,,,,
,5c91942b707ed90011858f48,001,2022-04-29_03h09.32.419,classification_task,2021.2.3,Win32,59.98080614,5c91942b707ed90011858f48,626b377229c10585ec392f89,626b39de363d4fba9517e102,,,,,,,,,,,,,,,,,,,,,,,a,1,1.0332,"[""0.512"",""0.559"",""0.767"",""0.972""]","[0,1,1,1]",0,48,48,48,1,0,0,,,0,FALSE,,,,,,,,,,,,,,,,,,,,,,,,,,,,,,,
,5c91942b707ed90011858f48,001,2022-04-29_03h09.32.419,classification_task,2021.2.3,Win32,59.98080614,5c91942b707ed90011858f48,626b377229c10585ec392f89,626b39de363d4fba9517e102,,,,,,,,,,,,,,,,,,,,,,,l,1,0.9667,"[""0.145"",""0.275"",""0.467"",""0.505""]","[1,1,1,0]",0,49,49,49,1,1,1,,,0,FALSE,,,,,,,,,,,,,,,,,,,,,,,,,,,,,,,
,5c91942b707ed90011858f48,001,2022-04-29_03h09.32.419,classification_task,2021.2.3,Win32,59.98080614,5c91942b707ed90011858f48,626b377229c10585ec392f89,626b39de363d4fba9517e102,,,,,,,,,,,,,,,,,,,,,,,l,1,1.0842,"[""0.145"",""0.275"",""0.045"",""0.696""]","[1,1,0,1]",0,50,50,50,1,1,1,,,0,FALSE,,,,,,,,,,,,,,,,,,,,,,,,,,,,,,,
,5c91942b707ed90011858f48,001,2022-04-29_03h09.32.419,classification_task,2021.2.3,Win32,59.98080614,5c91942b707ed90011858f48,626b377229c10585ec392f89,626b39de363d4fba9517e102,,,,,,,,,,,,,,,,,,,,,,,l,1,0.7992,"[""0.145"",""0.501"",""0.467"",""0.696""]","[1,0,1,1]",0,51,51,51,1,1,1,,,0,FALSE,,,,,,,,,,,,,,,,,,,,,,,,,,,,,,,
,5c91942b707ed90011858f48,001,2022-04-29_03h09.32.419,classification_task,2021.2.3,Win32,59.98080614,5c91942b707ed90011858f48,626b377229c10585ec392f89,626b39de363d4fba9517e102,,,,,,,,,,,,,,,,,,,,,,,a,1,0.8668,"[""0.311"",""0.394"",""0.931"",""0.890""]","[1,1,0,1]",0,52,52,52,1,0,1,,,0,FALSE,,,,,,,,,,,,,,,,,,,,,,,,,,,,,,,
,5c91942b707ed90011858f48,001,2022-04-29_03h09.32.419,classification_task,2021.2.3,Win32,59.98080614,5c91942b707ed90011858f48,626b377229c10585ec392f89,626b39de363d4fba9517e102,,,,,,,,,,,,,,,,,,,,,,,l,0,1.2335,"[""0.311"",""0.394"",""0.652"",""0.505""]","[1,1,1,0]",0,53,53,53,1,0,1,,,0,FALSE,,,,,,,,,,,,,,,,,,,,,,,,,,,,,,,
,5c91942b707ed90011858f48,001,2022-04-29_03h09.32.419,classification_task,2021.2.3,Win32,59.98080614,5c91942b707ed90011858f48,626b377229c10585ec392f89,626b39de363d4fba9517e102,,,,,,,,,,,,,,,,,,,,,,,a,0,0.8502,"[""0.025"",""0.275"",""0.467"",""0.696""]","[0,1,1,1]",0,54,54,54,1,1,1,,,0,FALSE,,,,,,,,,,,,,,,,,,,,,,,,,,,,,,,
,5c91942b707ed90011858f48,001,2022-04-29_03h09.32.419,classification_task,2021.2.3,Win32,59.98080614,5c91942b707ed90011858f48,626b377229c10585ec392f89,626b39de363d4fba9517e102,,,,,,,,,,,,,,,,,,,,,,,a,1,1.1161,"[""0.236"",""0.505"",""0.767"",""0.972""]","[1,0,1,1]",0,55,55,55,1,0,0,,,0,FALSE,,,,,,,,,,,,,,,,,,,,,,,,,,,,,,,
,5c91942b707ed90011858f48,001,2022-04-29_03h09.32.419,classification_task,2021.2.3,Win32,59.98080614,5c91942b707ed90011858f48,626b377229c10585ec392f89,626b39de363d4fba9517e102,,,,,,,,,,,,,,,,,,,,,,,l,1,0.8999,"[""0.078"",""0.202"",""0.601"",""0.520""]","[1,1,1,0]",0,56,56,56,1,1,0,,,0,FALSE,,,,,,,,,,,,,,,,,,,,,,,,,,,,,,,
,5c91942b707ed90011858f48,001,2022-04-29_03h09.32.419,classification_task,2021.2.3,Win32,59.98080614,5c91942b707ed90011858f48,626b377229c10585ec392f89,626b39de363d4fba9517e102,,,,,,,,,,,,,,,,,,,,,,,a,1,1.4668,"[""0.933"",""0.394"",""0.652"",""0.890""]","[0,1,1,1]",0,57,57,57,1,0,1,,,0,FALSE,,,,,,,,,,,,,,,,,,,,,,,,,,,,,,,
,5c91942b707ed90011858f48,001,2022-04-29_03h09.32.419,classification_task,2021.2.3,Win32,59.98080614,5c91942b707ed90011858f48,626b377229c10585ec392f89,626b39de363d4fba9517e102,,,,,,,,,,,,,,,,,,,,,,,l,1,0.6842,"[""0.078"",""0.202"",""0.732"",""0.837""]","[1,1,0,1]",0,58,58,58,1,1,0,,,0,FALSE,,,,,,,,,,,,,,,,,,,,,,,,,,,,,,,
,5c91942b707ed90011858f48,001,2022-04-29_03h09.32.419,classification_task,2021.2.3,Win32,59.98080614,5c91942b707ed90011858f48,626b377229c10585ec392f89,626b39de363d4fba9517e102,,,,,,,,,,,,,,,,,,,,,,,l,1,0.6165,"[""0.931"",""0.202"",""0.601"",""0.837""]","[0,1,1,1]",0,59,59,59,1,1,0,,,0,FALSE,,,,,,,,,,,,,,,,,,,,,,,,,,,,,,,
,5c91942b707ed90011858f48,001,2022-04-29_03h09.32.419,classification_task,2021.2.3,Win32,59.98080614,5c91942b707ed90011858f48,626b377229c10585ec392f89,626b39de363d4fba9517e102,,,,,,,,,,,,,,,,,,,,,,,l,1,0.6665,"[""0.078"",""0.931"",""0.601"",""0.837""]","[1,0,1,1]",0,60,60,60,1,1,0,,,0,FALSE,,,,,,,,,,,,,,,,,,,,,,,,,,,,,,,
,5c91942b707ed90011858f48,001,2022-04-29_03h09.32.419,classification_task,2021.2.3,Win32,59.98080614,5c91942b707ed90011858f48,626b377229c10585ec392f89,626b39de363d4fba9517e102,,,,,,,,,,,,,,,,,,,,,,,a,1,1.5167,"[""0.311"",""0.520"",""0.652"",""0.890""]","[1,0,1,1]",0,61,61,61,1,0,1,,,0,FALSE,,,,,,,,,,,,,,,,,,,,,,,,,,,,,,,
,5c91942b707ed90011858f48,001,2022-04-29_03h09.32.419,classification_task,2021.2.3,Win32,59.98080614,5c91942b707ed90011858f48,626b377229c10585ec392f89,626b39de363d4fba9517e102,,,,,,,,,,,,,,,,,,,,,,,a,1,1.2498,"[""0.236"",""0.559"",""0.767"",""0.933""]","[1,1,1,0]",0,62,62,62,1,0,0,,,0,FALSE,,,,,,,,,,,,,,,,,,,,,,,,,,,,,,,
,5c91942b707ed90011858f48,001,2022-04-29_03h09.32.419,classification_task,2021.2.3,Win32,59.98080614,5c91942b707ed90011858f48,626b377229c10585ec392f89,626b39de363d4fba9517e102,,,,,,,,,,,,,,,,,,,,,,,a,1,0.6999,"[""0.236"",""0.559"",""0.030"",""0.972""]","[1,1,0,1]",0,63,63,63,1,0,0,,,0,FALSE,,,,,,,,,,,,,,,,,,,,,,,,,,,,,,,
,5c91942b707ed90011858f48,001,2022-04-29_03h09.32.419,classification_task,2021.2.3,Win32,59.98080614,5c91942b707ed90011858f48,626b377229c10585ec392f89,626b39de363d4fba9517e102,,,,,,,,,,,,,,,,,,,,,,,,,,,,,,,,,,,,,,,0, ,,0,6.469723692,139.0859,0,1,1,1,1,2,2,,,,,,,,,,,,,,,,,,
,5c91942b707ed90011858f48,001,2022-04-29_03h09.32.419,classification_task,2021.2.3,Win32,59.98080614,5c91942b707ed90011858f48,626b377229c10585ec392f89,626b39de363d4fba9517e102,,,,,,,,,,,,,,,,,,,,,,,,,,,,,,,,,,,,,,,1,  ,,0,4.902018421,142.236,0,1,1,1,1,2,2,,,,,,,,,,,,,,,,,,
,5c91942b707ed90011858f48,001,2022-04-29_03h09.32.419,classification_task,2021.2.3,Win32,59.98080614,5c91942b707ed90011858f48,626b377229c10585ec392f89,626b39de363d4fba9517e102,,,,,,,,,,,,,,,,,,,,,,,,,,,,,,,,,,,,,,,2,  ,,0,6.469723692,143.2361,0,1,1,1,1,2,2,,,,,,,,,,,,,,,,,,
,5c91942b707ed90011858f48,001,2022-04-29_03h09.32.419,classification_task,2021.2.3,Win32,59.98080614,5c91942b707ed90011858f48,626b377229c10585ec392f89,626b39de363d4fba9517e102,,,,,,,,,,,,,,,,,,,,,,,,,,,,,,,,,,,,,,,,,,,,,0,1,1,1,1,,2,,,,,,,,,,,,,,,,,,
,5c91942b707ed90011858f48,001,2022-04-29_03h09.32.419,classification_task,2021.2.3,Win32,59.98080614,5c91942b707ed90011858f48,626b377229c10585ec392f89,626b39de363d4fba9517e102,,,,,,,,,,,,,,,,,,,,,space,5.6096,l,1,2.8327,"[""0.078"",""0.202"",""0.931"",""0.837""]","[1,1,0,1]",0,0,0,0,1,1,0,,,0,FALSE,,,,,,,,,,,,,,,,,,,,,,,,,,,,,,,
,5c91942b707ed90011858f48,001,2022-04-29_03h09.32.419,classification_task,2021.2.3,Win32,59.98080614,5c91942b707ed90011858f48,626b377229c10585ec392f89,626b39de363d4fba9517e102,,,,,,,,,,,,,,,,,,,,,,,a,0,0.7167,"[""0.045"",""0.202"",""0.601"",""0.837""]","[0,1,1,1]",0,1,1,1,1,1,0,,,0,FALSE,,,,,,,,,,,,,,,,,,,,,,,,,,,,,,,
,5c91942b707ed90011858f48,001,2022-04-29_03h09.32.419,classification_task,2021.2.3,Win32,59.98080614,5c91942b707ed90011858f48,626b377229c10585ec392f89,626b39de363d4fba9517e102,,,,,,,,,,,,,,,,,,,,,,,l,1,3.8502,"[""0.501"",""0.275"",""0.467"",""0.696""]","[0,1,1,1]",0,2,2,2,1,1,1,,,0,FALSE,,,,,,,,,,,,,,,,,,,,,,,,,,,,,,,
,5c91942b707ed90011858f48,001,2022-04-29_03h09.32.419,classification_task,2021.2.3,Win32,59.98080614,5c91942b707ed90011858f48,626b377229c10585ec392f89,626b39de363d4fba9517e102,,,,,,,,,,,,,,,,,,,,,,,l,1,1.0999,"[""0.078"",""0.202"",""0.601"",""0.933""]","[1,1,1,0]",0,3,3,3,1,1,0,,,0,FALSE,,,,,,,,,,,,,,,,,,,,,,,,,,,,,,,
,5c91942b707ed90011858f48,001,2022-04-29_03h09.32.419,classification_task,2021.2.3,Win32,59.98080614,5c91942b707ed90011858f48,626b377229c10585ec392f89,626b39de363d4fba9517e102,,,,,,,,,,,,,,,,,,,,,,,a,1,1.0335,"[""0.311"",""0.359"",""0.652"",""0.890""]","[1,0,1,1]",0,4,4,4,1,0,1,,,0,FALSE,,,,,,,,,,,,,,,,,,,,,,,,,,,,,,,
,5c91942b707ed90011858f48,001,2022-04-29_03h09.32.419,classification_task,2021.2.3,Win32,59.98080614,5c91942b707ed90011858f48,626b377229c10585ec392f89,626b39de363d4fba9517e102,,,,,,,,,,,,,,,,,,,,,,,l,0,1.1508,"[""0.044"",""0.394"",""0.652"",""0.890""]","[0,1,1,1]",0,5,5,5,1,0,1,,,0,FALSE,,,,,,,,,,,,,,,,,,,,,,,,,,,,,,,
,5c91942b707ed90011858f48,001,2022-04-29_03h09.32.419,classification_task,2021.2.3,Win32,59.98080614,5c91942b707ed90011858f48,626b377229c10585ec392f89,626b39de363d4fba9517e102,,,,,,,,,,,,,,,,,,,,,,,l,1,0.8994,"[""0.145"",""0.275"",""0.933"",""0.696""]","[1,1,0,1]",0,6,6,6,1,1,1,,,0,FALSE,,,,,,,,,,,,,,,,,,,,,,,,,,,,,,,
,5c91942b707ed90011858f48,001,2022-04-29_03h09.32.419,classification_task,2021.2.3,Win32,59.98080614,5c91942b707ed90011858f48,626b377229c10585ec392f89,626b39de363d4fba9517e102,,,,,,,,,,,,,,,,,,,,,,,a,0,1.1667,"[""0.145"",""0.037"",""0.467"",""0.696""]","[1,0,1,1]",0,7,7,7,1,1,1,,,0,FALSE,,,,,,,,,,,,,,,,,,,,,,,,,,,,,,,
,5c91942b707ed90011858f48,001,2022-04-29_03h09.32.419,classification_task,2021.2.3,Win32,59.98080614,5c91942b707ed90011858f48,626b377229c10585ec392f89,626b39de363d4fba9517e102,,,,,,,,,,,,,,,,,,,,,,,a,0,1.1999,"[""0.145"",""0.275"",""0.467"",""0.505""]","[1,1,1,0]",0,8,8,8,1,1,1,,,0,FALSE,,,,,,,,,,,,,,,,,,,,,,,,,,,,,,,
,5c91942b707ed90011858f48,001,2022-04-29_03h09.32.419,classification_task,2021.2.3,Win32,59.98080614,5c91942b707ed90011858f48,626b377229c10585ec392f89,626b39de363d4fba9517e102,,,,,,,,,,,,,,,,,,,,,,,a,1,1.4833,"[""0.025"",""0.559"",""0.767"",""0.972""]","[0,1,1,1]",0,9,9,9,1,0,0,,,0,FALSE,,,,,,,,,,,,,,,,,,,,,,,,,,,,,,,
,5c91942b707ed90011858f48,001,2022-04-29_03h09.32.419,classification_task,2021.2.3,Win32,59.98080614,5c91942b707ed90011858f48,626b377229c10585ec392f89,626b39de363d4fba9517e102,,,,,,,,,,,,,,,,,,,,,,,l,0,0.9341,"[""0.236"",""0.559"",""0.767"",""0.045""]","[1,1,1,0]",0,10,10,10,1,0,0,,,0,FALSE,,,,,,,,,,,,,,,,,,,,,,,,,,,,,,,
,5c91942b707ed90011858f48,001,2022-04-29_03h09.32.419,classification_task,2021.2.3,Win32,59.98080614,5c91942b707ed90011858f48,626b377229c10585ec392f89,626b39de363d4fba9517e102,,,,,,,,,,,,,,,,,,,,,,,l,0,1.6494,"[""0.311"",""0.394"",""0.652"",""0.505""]","[1,1,1,0]",0,11,11,11,1,0,1,,,0,FALSE,,,,,,,,,,,,,,,,,,,,,,,,,,,,,,,
,5c91942b707ed90011858f48,001,2022-04-29_03h09.32.419,classification_task,2021.2.3,Win32,59.98080614,5c91942b707ed90011858f48,626b377229c10585ec392f89,626b39de363d4fba9517e102,,,,,,,,,,,,,,,,,,,,,,,a,1,1.2669,"[""0.311"",""0.394"",""0.433"",""0.890""]","[1,1,0,1]",0,12,12,12,1,0,1,,,0,FALSE,,,,,,,,,,,,,,,,,,,,,,,,,,,,,,,
,5c91942b707ed90011858f48,001,2022-04-29_03h09.32.419,classification_task,2021.2.3,Win32,59.98080614,5c91942b707ed90011858f48,626b377229c10585ec392f89,626b39de363d4fba9517e102,,,,,,,,,,,,,,,,,,,,,,,a,1,1.5508,"[""0.236"",""0.559"",""0.509"",""0.972""]","[1,1,0,1]",0,13,13,13,1,0,0,,,0,FALSE,,,,,,,,,,,,,,,,,,,,,,,,,,,,,,,
,5c91942b707ed90011858f48,001,2022-04-29_03h09.32.419,classification_task,2021.2.3,Win32,59.98080614,5c91942b707ed90011858f48,626b377229c10585ec392f89,626b39de363d4fba9517e102,,,,,,,,,,,,,,,,,,,,,,,a,1,1.1659,"[""0.236"",""0.933"",""0.767"",""0.972""]","[1,0,1,1]",0,14,14,14,1,0,0,,,0,FALSE,,,,,,,,,,,,,,,,,,,,,,,,,,,,,,,
,5c91942b707ed90011858f48,001,2022-04-29_03h09.32.419,classification_task,2021.2.3,Win32,59.98080614,5c91942b707ed90011858f48,626b377229c10585ec392f89,626b39de363d4fba9517e102,,,,,,,,,,,,,,,,,,,,,,,l,1,0.8999,"[""0.078"",""0.433"",""0.601"",""0.837""]","[1,0,1,1]",0,15,15,15,1,1,0,,,0,FALSE,,,,,,,,,,,,,,,,,,,,,,,,,,,,,,,
,5c91942b707ed90011858f48,001,2022-04-29_03h09.32.419,classification_task,2021.2.3,Win32,59.98080614,5c91942b707ed90011858f48,626b377229c10585ec392f89,626b39de363d4fba9517e102,,,,,,,,,,,,,,,,,,,,,,,l,0,1.1507,"[""0.236"",""0.559"",""0.359"",""0.972""]","[1,1,0,1]",0,16,16,16,1,0,0,,,0,FALSE,,,,,,,,,,,,,,,,,,,,,,,,,,,,,,,
,5c91942b707ed90011858f48,001,2022-04-29_03h09.32.419,classification_task,2021.2.3,Win32,59.98080614,5c91942b707ed90011858f48,626b377229c10585ec392f89,626b39de363d4fba9517e102,,,,,,,,,,,,,,,,,,,,,,,a,1,1.0016,"[""0.311"",""0.394"",""0.933"",""0.890""]","[1,1,0,1]",0,17,17,17,1,0,1,,,0,FALSE,,,,,,,,,,,,,,,,,,,,,,,,,,,,,,,
,5c91942b707ed90011858f48,001,2022-04-29_03h09.32.419,classification_task,2021.2.3,Win32,59.98080614,5c91942b707ed90011858f48,626b377229c10585ec392f89,626b39de363d4fba9517e102,,,,,,,,,,,,,,,,,,,,,,,l,0,0.816,"[""0.732"",""0.394"",""0.652"",""0.890""]","[0,1,1,1]",0,18,18,18,1,0,1,,,0,FALSE,,,,,,,,,,,,,,,,,,,,,,,,,,,,,,,
,5c91942b707ed90011858f48,001,2022-04-29_03h09.32.419,classification_task,2021.2.3,Win32,59.98080614,5c91942b707ed90011858f48,626b377229c10585ec392f89,626b39de363d4fba9517e102,,,,,,,,,,,,,,,,,,,,,,,l,1,0.9662,"[""0.044"",""0.202"",""0.601"",""0.837""]","[0,1,1,1]",0,19,19,19,1,1,0,,,0,FALSE,,,,,,,,,,,,,,,,,,,,,,,,,,,,,,,
,5c91942b707ed90011858f48,001,2022-04-29_03h09.32.419,classification_task,2021.2.3,Win32,59.98080614,5c91942b707ed90011858f48,626b377229c10585ec392f89,626b39de363d4fba9517e102,,,,,,,,,,,,,,,,,,,,,,,a,0,0.9833,"[""0.078"",""0.202"",""0.025"",""0.837""]","[1,1,0,1]",0,20,20,20,1,1,0,,,0,FALSE,,,,,,,,,,,,,,,,,,,,,,,,,,,,,,,
,5c91942b707ed90011858f48,001,2022-04-29_03h09.32.419,classification_task,2021.2.3,Win32,59.98080614,5c91942b707ed90011858f48,626b377229c10585ec392f89,626b39de363d4fba9517e102,,,,,,,,,,,,,,,,,,,,,,,l,1,1.3668,"[""0.145"",""0.275"",""0.467"",""0.512""]","[1,1,1,0]",0,21,21,21,1,1,1,,,0,FALSE,,,,,,,,,,,,,,,,,,,,,,,,,,,,,,,
,5c91942b707ed90011858f48,001,2022-04-29_03h09.32.419,classification_task,2021.2.3,Win32,59.98080614,5c91942b707ed90011858f48,626b377229c10585ec392f89,626b39de363d4fba9517e102,,,,,,,,,,,,,,,,,,,,,,,a,1,0.7668,"[""0.311"",""0.394"",""0.652"",""0.931""]","[1,1,1,0]",0,22,22,22,1,0,1,,,0,FALSE,,,,,,,,,,,,,,,,,,,,,,,,,,,,,,,
,5c91942b707ed90011858f48,001,2022-04-29_03h09.32.419,classification_task,2021.2.3,Win32,59.98080614,5c91942b707ed90011858f48,626b377229c10585ec392f89,626b39de363d4fba9517e102,,,,,,,,,,,,,,,,,,,,,,,l,0,1.7329,"[""0.311"",""0.512"",""0.652"",""0.890""]","[1,0,1,1]",0,23,23,23,1,0,1,,,0,FALSE,,,,,,,,,,,,,,,,,,,,,,,,,,,,,,,
,5c91942b707ed90011858f48,001,2022-04-29_03h09.32.419,classification_task,2021.2.3,Win32,59.98080614,5c91942b707ed90011858f48,626b377229c10585ec392f89,626b39de363d4fba9517e102,,,,,,,,,,,,,,,,,,,,,,,a,0,1.3495,"[""0.030"",""0.275"",""0.467"",""0.696""]","[0,1,1,1]",0,24,24,24,1,1,1,,,0,FALSE,,,,,,,,,,,,,,,,,,,,,,,,,,,,,,,
,5c91942b707ed90011858f48,001,2022-04-29_03h09.32.419,classification_task,2021.2.3,Win32,59.98080614,5c91942b707ed90011858f48,626b377229c10585ec392f89,626b39de363d4fba9517e102,,,,,,,,,,,,,,,,,,,,,,,l,1,0.7332,"[""0.078"",""0.355"",""0.601"",""0.837""]","[1,0,1,1]",0,25,25,25,1,1,0,,,0,FALSE,,,,,,,,,,,,,,,,,,,,,,,,,,,,,,,
,5c91942b707ed90011858f48,001,2022-04-29_03h09.32.419,classification_task,2021.2.3,Win32,59.98080614,5c91942b707ed90011858f48,626b377229c10585ec392f89,626b39de363d4fba9517e102,,,,,,,,,,,,,,,,,,,,,,,a,1,1.6837,"[""0.236"",""0.559"",""0.767"",""0.501""]","[1,1,1,0]",0,26,26,26,1,0,0,,,0,FALSE,,,,,,,,,,,,,,,,,,,,,,,,,,,,,,,
,5c91942b707ed90011858f48,001,2022-04-29_03h09.32.419,classification_task,2021.2.3,Win32,59.98080614,5c91942b707ed90011858f48,626b377229c10585ec392f89,626b39de363d4fba9517e102,,,,,,,,,,,,,,,,,,,,,,,a,1,2.0834,"[""0.236"",""0.732"",""0.767"",""0.972""]","[1,0,1,1]",0,27,27,27,1,0,0,,,0,FALSE,,,,,,,,,,,,,,,,,,,,,,,,,,,,,,,
,5c91942b707ed90011858f48,001,2022-04-29_03h09.32.419,classification_task,2021.2.3,Win32,59.98080614,5c91942b707ed90011858f48,626b377229c10585ec392f89,626b39de363d4fba9517e102,,,,,,,,,,,,,,,,,,,,,,,l,1,1.1001,"[""0.145"",""0.275"",""0.501"",""0.696""]","[1,1,0,1]",0,28,28,28,1,1,1,,,0,FALSE,,,,,,,,,,,,,,,,,,,,,,,,,,,,,,,
,5c91942b707ed90011858f48,001,2022-04-29_03h09.32.419,classification_task,2021.2.3,Win32,59.98080614,5c91942b707ed90011858f48,626b377229c10585ec392f89,626b39de363d4fba9517e102,,,,,,,,,,,,,,,,,,,,,,,a,1,1.3658,"[""0.030"",""0.559"",""0.767"",""0.972""]","[0,1,1,1]",0,29,29,29,1,0,0,,,0,FALSE,,,,,,,,,,,,,,,,,,,,,,,,,,,,,,,
,5c91942b707ed90011858f48,001,2022-04-29_03h09.32.419,classification_task,2021.2.3,Win32,59.98080614,5c91942b707ed90011858f48,626b377229c10585ec392f89,626b39de363d4fba9517e102,,,,,,,,,,,,,,,,,,,,,,,l,1,0.7999,"[""0.078"",""0.202"",""0.601"",""0.931""]","[1,1,1,0]",0,30,30,30,1,1,0,,,0,FALSE,,,,,,,,,,,,,,,,,,,,,,,,,,,,,,,
,5c91942b707ed90011858f48,001,2022-04-29_03h09.32.419,classification_task,2021.2.3,Win32,59.98080614,5c91942b707ed90011858f48,626b377229c10585ec392f89,626b39de363d4fba9517e102,,,,,,,,,,,,,,,,,,,,,,,a,0,0.9669,"[""0.145"",""0.512"",""0.467"",""0.696""]","[1,0,1,1]",0,31,31,31,1,1,1,,,0,FALSE,,,,,,,,,,,,,,,,,,,,,,,,,,,,,,,
,5c91942b707ed90011858f48,001,2022-04-29_03h09.32.419,classification_task,2021.2.3,Win32,59.98080614,5c91942b707ed90011858f48,626b377229c10585ec392f89,626b39de363d4fba9517e102,,,,,,,,,,,,,,,,,,,,,,,l,0,0.6166,"[""0.236"",""0.559"",""0.767"",""0.933""]","[1,1,1,0]",0,32,32,32,1,0,0,,,0,FALSE,,,,,,,,,,,,,,,,,,,,,,,,,,,,,,,
,5c91942b707ed90011858f48,001,2022-04-29_03h09.32.419,classification_task,2021.2.3,Win32,59.98080614,5c91942b707ed90011858f48,626b377229c10585ec392f89,626b39de363d4fba9517e102,,,,,,,,,,,,,,,,,,,,,,,l,1,1.5667,"[""0.512"",""0.275"",""0.467"",""0.696""]","[0,1,1,1]",0,33,33,33,1,1,1,,,0,FALSE,,,,,,,,,,,,,,,,,,,,,,,,,,,,,,,
,5c91942b707ed90011858f48,001,2022-04-29_03h09.32.419,classification_task,2021.2.3,Win32,59.98080614,5c91942b707ed90011858f48,626b377229c10585ec392f89,626b39de363d4fba9517e102,,,,,,,,,,,,,,,,,,,,,,,l,1,0.8334,"[""0.145"",""0.275"",""0.359"",""0.696""]","[1,1,0,1]",0,34,34,34,1,1,1,,,0,FALSE,,,,,,,,,,,,,,,,,,,,,,,,,,,,,,,
,5c91942b707ed90011858f48,001,2022-04-29_03h09.32.419,classification_task,2021.2.3,Win32,59.98080614,5c91942b707ed90011858f48,626b377229c10585ec392f89,626b39de363d4fba9517e102,,,,,,,,,,,,,,,,,,,,,,,a,0,1.0177,"[""0.145"",""0.501"",""0.467"",""0.696""]","[1,0,1,1]",0,35,35,35,1,1,1,,,0,FALSE,,,,,,,,,,,,,,,,,,,,,,,,,,,,,,,
,5c91942b707ed90011858f48,001,2022-04-29_03h09.32.419,classification_task,2021.2.3,Win32,59.98080614,5c91942b707ed90011858f48,626b377229c10585ec392f89,626b39de363d4fba9517e102,,,,,,,,,,,,,,,,,,,,,,,a,1,1.2159,"[""0.044"",""0.559"",""0.767"",""0.972""]","[0,1,1,1]",0,36,36,36,1,0,0,,,0,FALSE,,,,,,,,,,,,,,,,,,,,,,,,,,,,,,,
,5c91942b707ed90011858f48,001,2022-04-29_03h09.32.419,classification_task,2021.2.3,Win32,59.98080614,5c91942b707ed90011858f48,626b377229c10585ec392f89,626b39de363d4fba9517e102,,,,,,,,,,,,,,,,,,,,,,,l,0,0.9165,"[""0.236"",""0.433"",""0.767"",""0.972""]","[1,0,1,1]",0,37,37,37,1,0,0,,,0,FALSE,,,,,,,,,,,,,,,,,,,,,,,,,,,,,,,
,5c91942b707ed90011858f48,001,2022-04-29_03h09.32.419,classification_task,2021.2.3,Win32,59.98080614,5c91942b707ed90011858f48,626b377229c10585ec392f89,626b39de363d4fba9517e102,,,,,,,,,,,,,,,,,,,,,,,l,0,0.7836,"[""0.311"",""0.394"",""0.652"",""0.931""]","[1,1,1,0]",0,38,38,38,1,0,1,,,0,FALSE,,,,,,,,,,,,,,,,,,,,,,,,,,,,,,,
,5c91942b707ed90011858f48,001,2022-04-29_03h09.32.419,classification_task,2021.2.3,Win32,59.98080614,5c91942b707ed90011858f48,626b377229c10585ec392f89,626b39de363d4fba9517e102,,,,,,,,,,,,,,,,,,,,,,,a,0,0.6499,"[""0.078"",""0.202"",""0.601"",""0.501""]","[1,1,1,0]",0,39,39,39,1,1,0,,,0,FALSE,,,,,,,,,,,,,,,,,,,,,,,,,,,,,,,
,5c91942b707ed90011858f48,001,2022-04-29_03h09.32.419,classification_task,2021.2.3,Win32,59.98080614,5c91942b707ed90011858f48,626b377229c10585ec392f89,626b39de363d4fba9517e102,,,,,,,,,,,,,,,,,,,,,,,l,0,0.7995,"[""0.236"",""0.559"",""0.359"",""0.972""]","[1,1,0,1]",0,40,40,40,1,0,0,,,0,FALSE,,,,,,,,,,,,,,,,,,,,,,,,,,,,,,,
,5c91942b707ed90011858f48,001,2022-04-29_03h09.32.419,classification_task,2021.2.3,Win32,59.98080614,5c91942b707ed90011858f48,626b377229c10585ec392f89,626b39de363d4fba9517e102,,,,,,,,,,,,,,,,,,,,,,,l,1,0.8177,"[""0.078"",""0.202"",""0.433"",""0.837""]","[1,1,0,1]",0,41,41,41,1,1,0,,,0,FALSE,,,,,,,,,,,,,,,,,,,,,,,,,,,,,,,
,5c91942b707ed90011858f48,001,2022-04-29_03h09.32.419,classification_task,2021.2.3,Win32,59.98080614,5c91942b707ed90011858f48,626b377229c10585ec392f89,626b39de363d4fba9517e102,,,,,,,,,,,,,,,,,,,,,,,a,1,1.1982,"[""0.732"",""0.394"",""0.652"",""0.890""]","[0,1,1,1]",0,42,42,42,1,0,1,,,0,FALSE,,,,,,,,,,,,,,,,,,,,,,,,,,,,,,,
,5c91942b707ed90011858f48,001,2022-04-29_03h09.32.419,classification_task,2021.2.3,Win32,59.98080614,5c91942b707ed90011858f48,626b377229c10585ec392f89,626b39de363d4fba9517e102,,,,,,,,,,,,,,,,,,,,,,,l,1,0.8498,"[""0.078"",""0.931"",""0.601"",""0.837""]","[1,0,1,1]",0,43,43,43,1,1,0,,,0,FALSE,,,,,,,,,,,,,,,,,,,,,,,,,,,,,,,
,5c91942b707ed90011858f48,001,2022-04-29_03h09.32.419,classification_task,2021.2.3,Win32,59.98080614,5c91942b707ed90011858f48,626b377229c10585ec392f89,626b39de363d4fba9517e102,,,,,,,,,,,,,,,,,,,,,,,a,0,0.8165,"[""0.025"",""0.202"",""0.601"",""0.837""]","[0,1,1,1]",0,44,44,44,1,1,0,,,0,FALSE,,,,,,,,,,,,,,,,,,,,,,,,,,,,,,,
,5c91942b707ed90011858f48,001,2022-04-29_03h09.32.419,classification_task,2021.2.3,Win32,59.98080614,5c91942b707ed90011858f48,626b377229c10585ec392f89,626b39de363d4fba9517e102,,,,,,,,,,,,,,,,,,,,,,,l,0,1.2002,"[""0.311"",""0.394"",""0.044"",""0.890""]","[1,1,0,1]",0,45,45,45,1,0,1,,,0,FALSE,,,,,,,,,,,,,,,,,,,,,,,,,,,,,,,
,5c91942b707ed90011858f48,001,2022-04-29_03h09.32.419,classification_task,2021.2.3,Win32,59.98080614,5c91942b707ed90011858f48,626b377229c10585ec392f89,626b39de363d4fba9517e102,,,,,,,,,,,,,,,,,,,,,,,l,1,1.0002,"[""0.145"",""0.275"",""0.467"",""0.355""]","[1,1,1,0]",0,46,46,46,1,1,1,,,0,FALSE,,,,,,,,,,,,,,,,,,,,,,,,,,,,,,,
,5c91942b707ed90011858f48,001,2022-04-29_03h09.32.419,classification_task,2021.2.3,Win32,59.98080614,5c91942b707ed90011858f48,626b377229c10585ec392f89,626b39de363d4fba9517e102,,,,,,,,,,,,,,,,,,,,,,,a,1,0.5001,"[""0.311"",""0.933"",""0.652"",""0.890""]","[1,0,1,1]",0,47,47,47,1,0,1,,,0,FALSE,,,,,,,,,,,,,,,,,,,,,,,,,,,,,,,
,5c91942b707ed90011858f48,001,2022-04-29_03h09.32.419,classification_task,2021.2.3,Win32,59.98080614,5c91942b707ed90011858f48,626b377229c10585ec392f89,626b39de363d4fba9517e102,,,,,,,,,,,,,,,,,,,,,,,l,1,1.0165,"[""0.078"",""0.202"",""0.045"",""0.837""]","[1,1,0,1]",0,48,48,48,1,1,0,,,0,FALSE,,,,,,,,,,,,,,,,,,,,,,,,,,,,,,,
,5c91942b707ed90011858f48,001,2022-04-29_03h09.32.419,classification_task,2021.2.3,Win32,59.98080614,5c91942b707ed90011858f48,626b377229c10585ec392f89,626b39de363d4fba9517e102,,,,,,,,,,,,,,,,,,,,,,,l,1,0.9833,"[""0.078"",""0.202"",""0.601"",""0.732""]","[1,1,1,0]",0,49,49,49,1,1,0,,,0,FALSE,,,,,,,,,,,,,,,,,,,,,,,,,,,,,,,
,5c91942b707ed90011858f48,001,2022-04-29_03h09.32.419,classification_task,2021.2.3,Win32,59.98080614,5c91942b707ed90011858f48,626b377229c10585ec392f89,626b39de363d4fba9517e102,,,,,,,,,,,,,,,,,,,,,,,a,1,0.7165,"[""0.236"",""0.559"",""0.767"",""0.933""]","[1,1,1,0]",0,50,50,50,1,0,0,,,0,FALSE,,,,,,,,,,,,,,,,,,,,,,,,,,,,,,,
,5c91942b707ed90011858f48,001,2022-04-29_03h09.32.419,classification_task,2021.2.3,Win32,59.98080614,5c91942b707ed90011858f48,626b377229c10585ec392f89,626b39de363d4fba9517e102,,,,,,,,,,,,,,,,,,,,,,,a,1,0.6495,"[""0.236"",""0.933"",""0.767"",""0.972""]","[1,0,1,1]",0,51,51,51,1,0,0,,,0,FALSE,,,,,,,,,,,,,,,,,,,,,,,,,,,,,,,
,5c91942b707ed90011858f48,001,2022-04-29_03h09.32.419,classification_task,2021.2.3,Win32,59.98080614,5c91942b707ed90011858f48,626b377229c10585ec392f89,626b39de363d4fba9517e102,,,,,,,,,,,,,,,,,,,,,,,l,1,0.8668,"[""0.145"",""0.045"",""0.467"",""0.696""]","[1,0,1,1]",0,52,52,52,1,1,1,,,0,FALSE,,,,,,,,,,,,,,,,,,,,,,,,,,,,,,,
,5c91942b707ed90011858f48,001,2022-04-29_03h09.32.419,classification_task,2021.2.3,Win32,59.98080614,5c91942b707ed90011858f48,626b377229c10585ec392f89,626b39de363d4fba9517e102,,,,,,,,,,,,,,,,,,,,,,,l,0,0.6832,"[""0.236"",""0.559"",""0.433"",""0.972""]","[1,1,0,1]",0,53,53,53,1,0,0,,,0,FALSE,,,,,,,,,,,,,,,,,,,,,,,,,,,,,,,
,5c91942b707ed90011858f48,001,2022-04-29_03h09.32.419,classification_task,2021.2.3,Win32,59.98080614,5c91942b707ed90011858f48,626b377229c10585ec392f89,626b39de363d4fba9517e102,,,,,,,,,,,,,,,,,,,,,,,l,0,0.8674,"[""0.311"",""0.512"",""0.652"",""0.890""]","[1,0,1,1]",0,54,54,54,1,0,1,,,0,FALSE,,,,,,,,,,,,,,,,,,,,,,,,,,,,,,,
,5c91942b707ed90011858f48,001,2022-04-29_03h09.32.419,classification_task,2021.2.3,Win32,59.98080614,5c91942b707ed90011858f48,626b377229c10585ec392f89,626b39de363d4fba9517e102,,,,,,,,,,,,,,,,,,,,,,,a,0,1.4004,"[""0.145"",""0.275"",""0.045"",""0.696""]","[1,1,0,1]",0,55,55,55,1,1,1,,,0,FALSE,,,,,,,,,,,,,,,,,,,,,,,,,,,,,,,
,5c91942b707ed90011858f48,001,2022-04-29_03h09.32.419,classification_task,2021.2.3,Win32,59.98080614,5c91942b707ed90011858f48,626b377229c10585ec392f89,626b39de363d4fba9517e102,,,,,,,,,,,,,,,,,,,,,,,l,0,0.8175,"[""0.505"",""0.394"",""0.652"",""0.890""]","[0,1,1,1]",0,56,56,56,1,0,1,,,0,FALSE,,,,,,,,,,,,,,,,,,,,,,,,,,,,,,,
,5c91942b707ed90011858f48,001,2022-04-29_03h09.32.419,classification_task,2021.2.3,Win32,59.98080614,5c91942b707ed90011858f48,626b377229c10585ec392f89,626b39de363d4fba9517e102,,,,,,,,,,,,,,,,,,,,,,,l,0,1.0502,"[""0.311"",""0.394"",""0.501"",""0.890""]","[1,1,0,1]",0,57,57,57,1,0,1,,,0,FALSE,,,,,,,,,,,,,,,,,,,,,,,,,,,,,,,
,5c91942b707ed90011858f48,001,2022-04-29_03h09.32.419,classification_task,2021.2.3,Win32,59.98080614,5c91942b707ed90011858f48,626b377229c10585ec392f89,626b39de363d4fba9517e102,,,,,,,,,,,,,,,,,,,,,,,a,0,1.6676,"[""0.078"",""0.359"",""0.601"",""0.837""]","[1,0,1,1]",0,58,58,58,1,1,0,,,0,FALSE,,,,,,,,,,,,,,,,,,,,,,,,,,,,,,,
,5c91942b707ed90011858f48,001,2022-04-29_03h09.32.419,classification_task,2021.2.3,Win32,59.98080614,5c91942b707ed90011858f48,626b377229c10585ec392f89,626b39de363d4fba9517e102,,,,,,,,,,,,,,,,,,,,,,,a,0,1.1493,"[""0.145"",""0.275"",""0.467"",""0.359""]","[1,1,1,0]",0,59,59,59,1,1,1,,,0,FALSE,,,,,,,,,,,,,,,,,,,,,,,,,,,,,,,
,5c91942b707ed90011858f48,001,2022-04-29_03h09.32.419,classification_task,2021.2.3,Win32,59.98080614,5c91942b707ed90011858f48,626b377229c10585ec392f89,626b39de363d4fba9517e102,,,,,,,,,,,,,,,,,,,,,,,a,1,1.3667,"[""0.732"",""0.559"",""0.767"",""0.972""]","[0,1,1,1]",0,60,60,60,1,0,0,,,0,FALSE,,,,,,,,,,,,,,,,,,,,,,,,,,,,,,,
,5c91942b707ed90011858f48,001,2022-04-29_03h09.32.419,classification_task,2021.2.3,Win32,59.98080614,5c91942b707ed90011858f48,626b377229c10585ec392f89,626b39de363d4fba9517e102,,,,,,,,,,,,,,,,,,,,,,,l,1,0.7007,"[""0.501"",""0.202"",""0.601"",""0.837""]","[0,1,1,1]",0,61,61,61,1,1,0,,,0,FALSE,,,,,,,,,,,,,,,,,,,,,,,,,,,,,,,
,5c91942b707ed90011858f48,001,2022-04-29_03h09.32.419,classification_task,2021.2.3,Win32,59.98080614,5c91942b707ed90011858f48,626b377229c10585ec392f89,626b39de363d4fba9517e102,,,,,,,,,,,,,,,,,,,,,,,l,1,0.8156,"[""0.520"",""0.275"",""0.467"",""0.696""]","[0,1,1,1]",0,62,62,62,1,1,1,,,0,FALSE,,,,,,,,,,,,,,,,,,,,,,,,,,,,,,,
,5c91942b707ed90011858f48,001,2022-04-29_03h09.32.419,classification_task,2021.2.3,Win32,59.98080614,5c91942b707ed90011858f48,626b377229c10585ec392f89,626b39de363d4fba9517e102,,,,,,,,,,,,,,,,,,,,,,,a,1,1.3002,"[""0.311"",""0.394"",""0.652"",""0.933""]","[1,1,1,0]",0,63,63,63,1,0,1,,,0,FALSE,,,,,,,,,,,,,,,,,,,,,,,,,,,,,,,
,5c91942b707ed90011858f48,001,2022-04-29_03h09.32.419,classification_task,2021.2.3,Win32,59.98080614,5c91942b707ed90011858f48,626b377229c10585ec392f89,626b39de363d4fba9517e102,,,,,,,,,,,,,,,,,,,,,,,,,,,,,,,,,,,,,,,0, ,,0,5.710366451,146.5095,0,2,2,2,1,2,3,,,,,,,,,,,,,,,,,,
,5c91942b707ed90011858f48,001,2022-04-29_03h09.32.419,classification_task,2021.2.3,Win32,59.98080614,5c91942b707ed90011858f48,626b377229c10585ec392f89,626b39de363d4fba9517e102,,,,,,,,,,,,,,,,,,,,,,,,,,,,,,,,,,,,,,,1,  ,,0,6.518714482,147.3094,0,2,2,2,1,2,3,,,,,,,,,,,,,,,,,,
,5c91942b707ed90011858f48,001,2022-04-29_03h09.32.419,classification_task,2021.2.3,Win32,59.98080614,5c91942b707ed90011858f48,626b377229c10585ec392f89,626b39de363d4fba9517e102,,,,,,,,,,,,,,,,,,,,,,,,,,,,,,,,,,,,,,,2,  ,,0,8.478346071,149.1594,0,2,2,2,1,2,3,,,,,,,,,,,,,,,,,,
,5c91942b707ed90011858f48,001,2022-04-29_03h09.32.419,classification_task,2021.2.3,Win32,59.98080614,5c91942b707ed90011858f48,626b377229c10585ec392f89,626b39de363d4fba9517e102,,,,,,,,,,,,,,,,,,,,,,,,,,,,,,,,,,,,,,,,,,,,,0,2,2,2,1,,3,,,,,,,,,,,,,,,,,,
,5c91942b707ed90011858f48,001,2022-04-29_03h09.32.419,classification_task,2021.2.3,Win32,59.98080614,5c91942b707ed90011858f48,626b377229c10585ec392f89,626b39de363d4fba9517e102,,,,,,,,,,,,,,,,,,,,,,,,,,,,,,,,,,,,,,,,,,,,,,,,,,,,space,12.5175,I believe the aid is a competent performer,,0.7,0,4,772.3975,0,0,0,0,1,0,,,,
,5c91942b707ed90011858f48,001,2022-04-29_03h09.32.419,classification_task,2021.2.3,Win32,59.98080614,5c91942b707ed90011858f48,626b377229c10585ec392f89,626b39de363d4fba9517e102,,,,,,,,,,,,,,,,,,,,,,,,,,,,,,,,,,,,,,,,,,,,,,,,,,,,,,I trust the aid,,0.7,0,4,775.7176,0,0,0,0,1,0,,,,
,5c91942b707ed90011858f48,001,2022-04-29_03h09.32.419,classification_task,2021.2.3,Win32,59.98080614,5c91942b707ed90011858f48,626b377229c10585ec392f89,626b39de363d4fba9517e102,,,,,,,,,,,,,,,,,,,,,,,,,,,,,,,,,,,,,,,,,,,,,,,,,,,,,,I have confidence in the advice given by the aid,,0.7,0,5,774.7692,0,0,0,0,1,0,,,,
,5c91942b707ed90011858f48,001,2022-04-29_03h09.32.419,classification_task,2021.2.3,Win32,59.98080614,5c91942b707ed90011858f48,626b377229c10585ec392f89,626b39de363d4fba9517e102,,,,,,,,,,,,,,,,,,,,,,,,,,,,,,,,,,,,,,,,,,,,,,,,,,,,,,I can depend on the aid,,0.7,0,4,778.5039,0,0,0,0,1,0,,,,
,5c91942b707ed90011858f48,001,2022-04-29_03h09.32.419,classification_task,2021.2.3,Win32,59.98080614,5c91942b707ed90011858f48,626b377229c10585ec392f89,626b39de363d4fba9517e102,,,,,,,,,,,,,,,,,,,,,,,,,,,,,,,,,,,,,,,,,,,,,,,,,,,,,,I can rely on the aid to behave in consistent ways,,0.7,0,5,780.7357,0,0,0,0,1,0,,,,
,5c91942b707ed90011858f48,001,2022-04-29_03h09.32.419,classification_task,2021.2.3,Win32,59.98080614,5c91942b707ed90011858f48,626b377229c10585ec392f89,626b39de363d4fba9517e102,,,,,,,,,,,,,,,,,,,,,,,,,,,,,,,,,,,,,,,,,,,,,,,,,,,,,,I can rely on the aid to do its best every time I take its advice,,0.7,0,5,783.3695,0,0,0,0,1,0,,,,
,5c91942b707ed90011858f48,001,2022-04-29_03h09.32.419,classification_task,2021.2.3,Win32,59.98080614,5c91942b707ed90011858f48,626b377229c10585ec392f89,626b39de363d4fba9517e102,,,,,,,,,,,,,,,,,,,,,,,,,,,,,,,,,,,,,,,,,,,,,,,,,,,,,,"On trials you completed with assistance from the aid, how frequently did you think the aid was correct?",,0.7,0,100,,0,0,0,0,1,0,,,,
,5c91942b707ed90011858f48,001,2022-04-29_03h09.32.419,classification_task,2021.2.3,Win32,59.98080614,5c91942b707ed90011858f48,626b377229c10585ec392f89,626b39de363d4fba9517e102,,,,,,,,,,,,,,,,,,,,,,,,,,,,,,,,,,,,,,,,,,,,,,,,,,,,,,"On trials you completed without the aid, how frequently did you think you were correct?",,0.7,0,50,,0,0,0,0,1,0,,,,
,5c91942b707ed90011858f48,001,2022-04-29_03h09.32.419,classification_task,2021.2.3,Win32,59.98080614,5c91942b707ed90011858f48,626b377229c10585ec392f89,626b39de363d4fba9517e102,,,,,,,,,,,,,,,,,,,,,,,,,,,,,,,,,,,,,,,,,,,,,,,,,,,,,,,,,,,,0,0,0,0,1,,,,,
,5c91942b707ed90011858f48,001,2022-04-29_03h09.32.419,classification_task,2021.2.3,Win32,59.98080614,5c91942b707ed90011858f48,626b377229c10585ec392f89,626b39de363d4fba9517e102,,,,,,,,,,,,,,,,,,,,,,,,,,,,,,,,,,,,,,,,,,,,,,,,,,,,,,,,,,,,,,,,,,space,6.4966,802.3545,
,5c91942b707ed90011858f48,001,2022-04-29_03h09.32.419,classification_task,2021.2.3,Win32,59.98080614,5c91942b707ed90011858f48,626b377229c10585ec392f89,626b39de363d4fba9517e102,,,,,,,,,,,,,,,,,,,,,,,,,,,,,,,,,,,,,,,,,,,,,,,,,,,,,,,,,,,,,,,,,,,,,"Mozilla/5.0 (Windows NT 10.0; Win64; x64) AppleWebKit/537.36 (KHTML, like Gecko) Chrome/100.0.4896.127 Safari/537.36"
