usingWebGL,participant,session,date,expName,psychopyVersion,OS,frameRate,study_id,signatures_friend,signatures_foe,band_ranges_top,band_ranges_bottom,formitemText,formtype,formundefined,formitemWidth,formindex,formresponse,formrt,key_resp_2.keys,key_resp_2.rt,tute_resp.keys,tute_resp.rt,tutorial.thisRepN,tutorial.thisTrialN,tutorial.thisN,tutorial.thisIndex,tutorial.ran,key_resp_4.keys,key_resp_4.rt,key_resp.keys,key_resp.corr,lines_presented,is_signal_presented,trials.thisRepN,trials.thisTrialN,trials.thisN,trials.thisIndex,trials.ran,vessel,active_band,lines,is_signal,supported_pos,catch_trial,key_resp.rt,debrief_formindex,debrief_formitemText,debrief_formtype,debrief_formitemWidth,debrief_formresponse,debrief_formrt,phases.thisRepN,phases.thisTrialN,phases.thisN,phases.thisIndex,phases.ran,phases.order,phase,key_resp_3.keys,trustitemText,trusttype,trustitemWidth,trustindex,trustresponse,trustrt,support_status.thisRepN,support_status.thisTrialN,support_status.thisN,support_status.thisIndex,support_status.ran,support_status.order,key_resp_5.keys,key_resp_5.rt,globalClockTime,userAgent,manualCondition
TRUE,5ca65510a0b6540012283c32,627c6ef9d7a94c73bd2000e1,2022-05-12_04h21.39.574,classification_task,2021.2.3,Win32,60.14675809,627c6715c52fd12f31907bd0,,,,,,,,,,,,,,,,,,,,,,,,,,,,,,,,,,,,,,,,,,,,,,,,,,,,,,,,,,,,,,,,,,,,,
,5ca65510a0b6540012283c32,627c6ef9d7a94c73bd2000e1,2022-05-12_04h21.39.574,classification_task,2021.2.3,Win32,60.14675809,627c6715c52fd12f31907bd0,"[[""0.277"",""0.391"",""0.906"",""0.973""],[""0.241"",""0.561"",""0.840"",""0.940""]]","[[""0.128"",""0.196"",""0.442"",""0.789""],[""0.047"",""0.337"",""0.606"",""0.715""]]","[1,10]","[100,1000]",Video game experience,,,0.7,0,,,,,,,,,,,,,,,,,,,,,,,,,,,,,,,,,,,,,,,,,,,,,,,,,,,,,,,,,,,,
,5ca65510a0b6540012283c32,627c6ef9d7a94c73bd2000e1,2022-05-12_04h21.39.574,classification_task,2021.2.3,Win32,60.14675809,627c6715c52fd12f31907bd0,,,,,Approximately how many hours did you spend playing video games in the last week?,,,0.7,0,20,,,,,,,,,,,,,,,,,,,,,,,,,,,,,,,,,,,,,,,,,,,,,,,,,,,,,,,,,,,
,5ca65510a0b6540012283c32,627c6ef9d7a94c73bd2000e1,2022-05-12_04h21.39.574,classification_task,2021.2.3,Win32,60.14675809,627c6715c52fd12f31907bd0,,,,,"Which game did you play the most this year? (Enter ""None"" if you didn't play any)",,,0.7,0,Overwatch,,,,,,,,,,,,,,,,,,,,,,,,,,,,,,,,,,,,,,,,,,,,,,,,,,,,,,,,,,,
,5ca65510a0b6540012283c32,627c6ef9d7a94c73bd2000e1,2022-05-12_04h21.39.574,classification_task,2021.2.3,Win32,60.14675809,627c6715c52fd12f31907bd0,,,,,Visual perception,,,0.7,0,,,,,,,,,,,,,,,,,,,,,,,,,,,,,,,,,,,,,,,,,,,,,,,,,,,,,,,,,,,,
,5ca65510a0b6540012283c32,627c6ef9d7a94c73bd2000e1,2022-05-12_04h21.39.574,classification_task,2021.2.3,Win32,60.14675809,627c6715c52fd12f31907bd0,,,,,Do you have any form of color blindness?,,,0.7,0,No,17.0913,,,,,,,,,,,,,,,,,,,,,,,,,,,,,,,,,,,,,,,,,,,,,,,,,,,,,,,,,,
,5ca65510a0b6540012283c32,627c6ef9d7a94c73bd2000e1,2022-05-12_04h21.39.574,classification_task,2021.2.3,Win32,60.14675809,627c6715c52fd12f31907bd0,,,,,Do you use software to change the colour temperature of your screen (e.g. f.lux)?,,,0.7,0,No,20.0981,,,,,,,,,,,,,,,,,,,,,,,,,,,,,,,,,,,,,,,,,,,,,,,,,,,,,,,,,,
,5ca65510a0b6540012283c32,627c6ef9d7a94c73bd2000e1,2022-05-12_04h21.39.574,classification_task,2021.2.3,Win32,60.14675809,627c6715c52fd12f31907bd0,,,,,,,,,,,,space,31.9865,space,7.3162,0,0,0,0,1,,,,,,,,,,,,,,,,,,,,,,,,,,,,,,,,,,,,,,,,,,,,,,,,,
,5ca65510a0b6540012283c32,627c6ef9d7a94c73bd2000e1,2022-05-12_04h21.39.574,classification_task,2021.2.3,Win32,60.14675809,627c6715c52fd12f31907bd0,,,,,,,,,,,,,,space,7.5018,1,0,1,0,1,,,,,,,,,,,,,,,,,,,,,,,,,,,,,,,,,,,,,,,,,,,,,,,,,
,5ca65510a0b6540012283c32,627c6ef9d7a94c73bd2000e1,2022-05-12_04h21.39.574,classification_task,2021.2.3,Win32,60.14675809,627c6715c52fd12f31907bd0,,,,,,,,,,,,,,space,12.1553,2,0,2,0,1,,,,,,,,,,,,,,,,,,,,,,,,,,,,,,,,,,,,,,,,,,,,,,,,,
,5ca65510a0b6540012283c32,627c6ef9d7a94c73bd2000e1,2022-05-12_04h21.39.574,classification_task,2021.2.3,Win32,60.14675809,627c6715c52fd12f31907bd0,,,,,,,,,,,,,,space,42.9034,3,0,3,0,1,,,,,,,,,,,,,,,,,,,,,,,,,,,,,,,,,,,,,,,,,,,,,,,,,
,5ca65510a0b6540012283c32,627c6ef9d7a94c73bd2000e1,2022-05-12_04h21.39.574,classification_task,2021.2.3,Win32,60.14675809,627c6715c52fd12f31907bd0,,,,,,,,,,,,,,space,32.5402,4,0,4,0,1,,,,,,,,,,,,,,,,,,,,,,,,,,,,,,,,,,,,,,,,,,,,,,,,,
,5ca65510a0b6540012283c32,627c6ef9d7a94c73bd2000e1,2022-05-12_04h21.39.574,classification_task,2021.2.3,Win32,60.14675809,627c6715c52fd12f31907bd0,,,,,,,,,,,,,,,,,,,,,space,15.5288,,0,"[""0.644"",""0.337"",""0.606"",""0.715""]","[0,1,1,1]",0,0,0,0,1,1,1,,,1,FALSE,,,,,,,,,,,,,,,,,,,,,,,,,,,,,,,,
,5ca65510a0b6540012283c32,627c6ef9d7a94c73bd2000e1,2022-05-12_04h21.39.574,classification_task,2021.2.3,Win32,60.14675809,627c6715c52fd12f31907bd0,,,,,,,,,,,,,,,,,,,,,,,a,1,"[""0.241"",""0.664"",""0.840"",""0.940""]","[1,0,1,1]",0,1,1,1,1,0,1,,,1,FALSE,7.8359,,,,,,,,,,,,,,,,,,,,,,,,,,,,,,,
,5ca65510a0b6540012283c32,627c6ef9d7a94c73bd2000e1,2022-05-12_04h21.39.574,classification_task,2021.2.3,Win32,60.14675809,627c6715c52fd12f31907bd0,,,,,,,,,,,,,,,,,,,,,,,a,1,"[""0.277"",""0.391"",""0.906"",""0.499""]","[1,1,1,0]",0,2,2,2,1,0,0,,,1,FALSE,5.6801,,,,,,,,,,,,,,,,,,,,,,,,,,,,,,,
,5ca65510a0b6540012283c32,627c6ef9d7a94c73bd2000e1,2022-05-12_04h21.39.574,classification_task,2021.2.3,Win32,60.14675809,627c6715c52fd12f31907bd0,,,,,,,,,,,,,,,,,,,,,,,l,1,"[""0.047"",""0.652"",""0.606"",""0.715""]","[1,0,1,1]",0,3,3,3,1,1,1,,,1,FALSE,3.3685,,,,,,,,,,,,,,,,,,,,,,,,,,,,,,,
,5ca65510a0b6540012283c32,627c6ef9d7a94c73bd2000e1,2022-05-12_04h21.39.574,classification_task,2021.2.3,Win32,60.14675809,627c6715c52fd12f31907bd0,,,,,,,,,,,,,,,,,,,,,,,l,1,"[""0.128"",""0.196"",""0.442"",""0.483""]","[1,1,1,0]",0,4,4,4,1,1,0,,,1,FALSE,2.7255,,,,,,,,,,,,,,,,,,,,,,,,,,,,,,,
,5ca65510a0b6540012283c32,627c6ef9d7a94c73bd2000e1,2022-05-12_04h21.39.574,classification_task,2021.2.3,Win32,60.14675809,627c6715c52fd12f31907bd0,,,,,,,,,,,,,,,,,,,,,,,l,1,"[""0.047"",""0.337"",""0.505"",""0.715""]","[1,1,0,1]",0,5,5,5,1,1,1,,,1,FALSE,2.5452,,,,,,,,,,,,,,,,,,,,,,,,,,,,,,,
,5ca65510a0b6540012283c32,627c6ef9d7a94c73bd2000e1,2022-05-12_04h21.39.574,classification_task,2021.2.3,Win32,60.14675809,627c6715c52fd12f31907bd0,,,,,,,,,,,,,,,,,,,,,,,a,1,"[""0.277"",""0.483"",""0.906"",""0.973""]","[1,0,1,1]",0,6,6,6,1,0,0,,,1,FALSE,2.6691,,,,,,,,,,,,,,,,,,,,,,,,,,,,,,,
,5ca65510a0b6540012283c32,627c6ef9d7a94c73bd2000e1,2022-05-12_04h21.39.574,classification_task,2021.2.3,Win32,60.14675809,627c6715c52fd12f31907bd0,,,,,,,,,,,,,,,,,,,,,,,l,1,"[""0.656"",""0.196"",""0.442"",""0.789""]","[0,1,1,1]",0,7,7,7,1,1,0,,,1,FALSE,1.9774,,,,,,,,,,,,,,,,,,,,,,,,,,,,,,,
,5ca65510a0b6540012283c32,627c6ef9d7a94c73bd2000e1,2022-05-12_04h21.39.574,classification_task,2021.2.3,Win32,60.14675809,627c6715c52fd12f31907bd0,,,,,,,,,,,,,,,,,,,,,,,a,1,"[""0.669"",""0.391"",""0.906"",""0.973""]","[0,1,1,1]",0,8,8,8,1,0,0,,,1,FALSE,1.9614,,,,,,,,,,,,,,,,,,,,,,,,,,,,,,,
,5ca65510a0b6540012283c32,627c6ef9d7a94c73bd2000e1,2022-05-12_04h21.39.574,classification_task,2021.2.3,Win32,60.14675809,627c6715c52fd12f31907bd0,,,,,,,,,,,,,,,,,,,,,,,a,1,"[""0.241"",""0.561"",""0.840"",""0.664""]","[1,1,1,0]",0,9,9,9,1,0,1,,,1,FALSE,2.7318,,,,,,,,,,,,,,,,,,,,,,,,,,,,,,,
,5ca65510a0b6540012283c32,627c6ef9d7a94c73bd2000e1,2022-05-12_04h21.39.574,classification_task,2021.2.3,Win32,60.14675809,627c6715c52fd12f31907bd0,,,,,,,,,,,,,,,,,,,,,,,l,1,"[""0.047"",""0.337"",""0.606"",""0.669""]","[1,1,1,0]",0,10,10,10,1,1,1,,,1,FALSE,1.8883,,,,,,,,,,,,,,,,,,,,,,,,,,,,,,,
,5ca65510a0b6540012283c32,627c6ef9d7a94c73bd2000e1,2022-05-12_04h21.39.574,classification_task,2021.2.3,Win32,60.14675809,627c6715c52fd12f31907bd0,,,,,,,,,,,,,,,,,,,,,,,l,1,"[""0.128"",""0.657"",""0.442"",""0.789""]","[1,0,1,1]",0,11,11,11,1,1,0,,,1,FALSE,2.183,,,,,,,,,,,,,,,,,,,,,,,,,,,,,,,
,5ca65510a0b6540012283c32,627c6ef9d7a94c73bd2000e1,2022-05-12_04h21.39.574,classification_task,2021.2.3,Win32,60.14675809,627c6715c52fd12f31907bd0,,,,,,,,,,,,,,,,,,,,,,,l,0,"[""0.479"",""0.561"",""0.840"",""0.940""]","[0,1,1,1]",0,12,12,12,1,0,1,,,1,FALSE,3.5114,,,,,,,,,,,,,,,,,,,,,,,,,,,,,,,
,5ca65510a0b6540012283c32,627c6ef9d7a94c73bd2000e1,2022-05-12_04h21.39.574,classification_task,2021.2.3,Win32,60.14675809,627c6715c52fd12f31907bd0,,,,,,,,,,,,,,,,,,,,,,,a,1,"[""0.277"",""0.391"",""0.642"",""0.973""]","[1,1,0,1]",0,13,13,13,1,0,0,,,1,FALSE,2.4927,,,,,,,,,,,,,,,,,,,,,,,,,,,,,,,
,5ca65510a0b6540012283c32,627c6ef9d7a94c73bd2000e1,2022-05-12_04h21.39.574,classification_task,2021.2.3,Win32,60.14675809,627c6715c52fd12f31907bd0,,,,,,,,,,,,,,,,,,,,,,,l,1,"[""0.128"",""0.196"",""0.520"",""0.789""]","[1,1,0,1]",0,14,14,14,1,1,0,,,1,FALSE,2.026,,,,,,,,,,,,,,,,,,,,,,,,,,,,,,,
,5ca65510a0b6540012283c32,627c6ef9d7a94c73bd2000e1,2022-05-12_04h21.39.574,classification_task,2021.2.3,Win32,60.14675809,627c6715c52fd12f31907bd0,,,,,,,,,,,,,,,,,,,,,,,a,1,"[""0.241"",""0.561"",""0.499"",""0.940""]","[1,1,0,1]",0,15,15,15,1,0,1,,,1,FALSE,2.2512,,,,,,,,,,,,,,,,,,,,,,,,,,,,,,,
,5ca65510a0b6540012283c32,627c6ef9d7a94c73bd2000e1,2022-05-12_04h21.39.574,classification_task,2021.2.3,Win32,60.14675809,627c6715c52fd12f31907bd0,,,,,,,,,,,,,,,,,,,,,,,a,0,"[""0.642"",""0.337"",""0.606"",""0.715""]","[0,1,1,1]",0,16,16,16,1,1,1,,,1,FALSE,2.5019,,,,,,,,,,,,,,,,,,,,,,,,,,,,,,,
,5ca65510a0b6540012283c32,627c6ef9d7a94c73bd2000e1,2022-05-12_04h21.39.574,classification_task,2021.2.3,Win32,60.14675809,627c6715c52fd12f31907bd0,,,,,,,,,,,,,,,,,,,,,,,a,1,"[""0.479"",""0.391"",""0.906"",""0.973""]","[0,1,1,1]",0,17,17,17,1,0,0,,,1,FALSE,2.4405,,,,,,,,,,,,,,,,,,,,,,,,,,,,,,,
,5ca65510a0b6540012283c32,627c6ef9d7a94c73bd2000e1,2022-05-12_04h21.39.574,classification_task,2021.2.3,Win32,60.14675809,627c6715c52fd12f31907bd0,,,,,,,,,,,,,,,,,,,,,,,l,1,"[""0.047"",""0.337"",""0.606"",""0.657""]","[1,1,1,0]",0,18,18,18,1,1,1,,,1,FALSE,1.6111,,,,,,,,,,,,,,,,,,,,,,,,,,,,,,,
,5ca65510a0b6540012283c32,627c6ef9d7a94c73bd2000e1,2022-05-12_04h21.39.574,classification_task,2021.2.3,Win32,60.14675809,627c6715c52fd12f31907bd0,,,,,,,,,,,,,,,,,,,,,,,a,1,"[""0.277"",""0.391"",""0.906"",""0.482""]","[1,1,1,0]",0,19,19,19,1,0,0,,,1,FALSE,1.3848,,,,,,,,,,,,,,,,,,,,,,,,,,,,,,,
,5ca65510a0b6540012283c32,627c6ef9d7a94c73bd2000e1,2022-05-12_04h21.39.574,classification_task,2021.2.3,Win32,60.14675809,627c6715c52fd12f31907bd0,,,,,,,,,,,,,,,,,,,,,,,l,1,"[""0.047"",""0.082"",""0.606"",""0.715""]","[1,0,1,1]",0,20,20,20,1,1,1,,,1,FALSE,2.1705,,,,,,,,,,,,,,,,,,,,,,,,,,,,,,,
,5ca65510a0b6540012283c32,627c6ef9d7a94c73bd2000e1,2022-05-12_04h21.39.574,classification_task,2021.2.3,Win32,60.14675809,627c6715c52fd12f31907bd0,,,,,,,,,,,,,,,,,,,,,,,l,0,"[""0.241"",""0.561"",""0.082"",""0.940""]","[1,1,0,1]",0,21,21,21,1,0,1,,,1,FALSE,1.8251,,,,,,,,,,,,,,,,,,,,,,,,,,,,,,,
,5ca65510a0b6540012283c32,627c6ef9d7a94c73bd2000e1,2022-05-12_04h21.39.574,classification_task,2021.2.3,Win32,60.14675809,627c6715c52fd12f31907bd0,,,,,,,,,,,,,,,,,,,,,,,a,0,"[""0.499"",""0.196"",""0.442"",""0.789""]","[0,1,1,1]",0,22,22,22,1,1,0,,,1,FALSE,2.1673,,,,,,,,,,,,,,,,,,,,,,,,,,,,,,,
,5ca65510a0b6540012283c32,627c6ef9d7a94c73bd2000e1,2022-05-12_04h21.39.574,classification_task,2021.2.3,Win32,60.14675809,627c6715c52fd12f31907bd0,,,,,,,,,,,,,,,,,,,,,,,l,1,"[""0.128"",""0.196"",""0.442"",""0.482""]","[1,1,1,0]",0,23,23,23,1,1,0,,,1,FALSE,3.2055,,,,,,,,,,,,,,,,,,,,,,,,,,,,,,,
,5ca65510a0b6540012283c32,627c6ef9d7a94c73bd2000e1,2022-05-12_04h21.39.574,classification_task,2021.2.3,Win32,60.14675809,627c6715c52fd12f31907bd0,,,,,,,,,,,,,,,,,,,,,,,l,1,"[""0.047"",""0.337"",""0.482"",""0.715""]","[1,1,0,1]",0,24,24,24,1,1,1,,,1,FALSE,2.9646,,,,,,,,,,,,,,,,,,,,,,,,,,,,,,,
,5ca65510a0b6540012283c32,627c6ef9d7a94c73bd2000e1,2022-05-12_04h21.39.574,classification_task,2021.2.3,Win32,60.14675809,627c6715c52fd12f31907bd0,,,,,,,,,,,,,,,,,,,,,,,a,1,"[""0.277"",""0.482"",""0.906"",""0.973""]","[1,0,1,1]",0,25,25,25,1,0,0,,,1,FALSE,3.4587,,,,,,,,,,,,,,,,,,,,,,,,,,,,,,,
,5ca65510a0b6540012283c32,627c6ef9d7a94c73bd2000e1,2022-05-12_04h21.39.574,classification_task,2021.2.3,Win32,60.14675809,627c6715c52fd12f31907bd0,,,,,,,,,,,,,,,,,,,,,,,a,1,"[""0.241"",""0.656"",""0.840"",""0.940""]","[1,0,1,1]",0,26,26,26,1,0,1,,,1,FALSE,2.8881,,,,,,,,,,,,,,,,,,,,,,,,,,,,,,,
,5ca65510a0b6540012283c32,627c6ef9d7a94c73bd2000e1,2022-05-12_04h21.39.574,classification_task,2021.2.3,Win32,60.14675809,627c6715c52fd12f31907bd0,,,,,,,,,,,,,,,,,,,,,,,a,1,"[""0.241"",""0.561"",""0.840"",""0.664""]","[1,1,1,0]",0,27,27,27,1,0,1,,,1,FALSE,2.5696,,,,,,,,,,,,,,,,,,,,,,,,,,,,,,,
,5ca65510a0b6540012283c32,627c6ef9d7a94c73bd2000e1,2022-05-12_04h21.39.574,classification_task,2021.2.3,Win32,60.14675809,627c6715c52fd12f31907bd0,,,,,,,,,,,,,,,,,,,,,,,a,1,"[""0.277"",""0.391"",""0.505"",""0.973""]","[1,1,0,1]",0,28,28,28,1,0,0,,,1,FALSE,3.5073,,,,,,,,,,,,,,,,,,,,,,,,,,,,,,,
,5ca65510a0b6540012283c32,627c6ef9d7a94c73bd2000e1,2022-05-12_04h21.39.574,classification_task,2021.2.3,Win32,60.14675809,627c6715c52fd12f31907bd0,,,,,,,,,,,,,,,,,,,,,,,a,1,"[""0.482"",""0.561"",""0.840"",""0.940""]","[0,1,1,1]",0,29,29,29,1,0,1,,,1,FALSE,4.0776,,,,,,,,,,,,,,,,,,,,,,,,,,,,,,,
,5ca65510a0b6540012283c32,627c6ef9d7a94c73bd2000e1,2022-05-12_04h21.39.574,classification_task,2021.2.3,Win32,60.14675809,627c6715c52fd12f31907bd0,,,,,,,,,,,,,,,,,,,,,,,l,1,"[""0.128"",""0.656"",""0.442"",""0.789""]","[1,0,1,1]",0,30,30,30,1,1,0,,,1,FALSE,2.8421,,,,,,,,,,,,,,,,,,,,,,,,,,,,,,,
,5ca65510a0b6540012283c32,627c6ef9d7a94c73bd2000e1,2022-05-12_04h21.39.574,classification_task,2021.2.3,Win32,60.14675809,627c6715c52fd12f31907bd0,,,,,,,,,,,,,,,,,,,,,,,l,1,"[""0.128"",""0.196"",""0.499"",""0.789""]","[1,1,0,1]",0,31,31,31,1,1,0,,,1,FALSE,2.5873,,,,,,,,,,,,,,,,,,,,,,,,,,,,,,,
,5ca65510a0b6540012283c32,627c6ef9d7a94c73bd2000e1,2022-05-12_04h21.39.574,classification_task,2021.2.3,Win32,60.14675809,627c6715c52fd12f31907bd0,,,,,,,,,,,,,,,,,,,,,,,l,1,"[""0.128"",""0.664"",""0.442"",""0.789""]","[1,0,1,1]",0,32,32,32,1,1,0,,,1,FALSE,3.7681,,,,,,,,,,,,,,,,,,,,,,,,,,,,,,,
,5ca65510a0b6540012283c32,627c6ef9d7a94c73bd2000e1,2022-05-12_04h21.39.574,classification_task,2021.2.3,Win32,60.14675809,627c6715c52fd12f31907bd0,,,,,,,,,,,,,,,,,,,,,,,l,1,"[""0.644"",""0.337"",""0.606"",""0.715""]","[0,1,1,1]",0,33,33,33,1,1,1,,,1,FALSE,3.1894,,,,,,,,,,,,,,,,,,,,,,,,,,,,,,,
,5ca65510a0b6540012283c32,627c6ef9d7a94c73bd2000e1,2022-05-12_04h21.39.574,classification_task,2021.2.3,Win32,60.14675809,627c6715c52fd12f31907bd0,,,,,,,,,,,,,,,,,,,,,,,l,0,"[""0.241"",""0.082"",""0.840"",""0.940""]","[1,0,1,1]",0,34,34,34,1,0,1,,,1,FALSE,2.0749,,,,,,,,,,,,,,,,,,,,,,,,,,,,,,,
,5ca65510a0b6540012283c32,627c6ef9d7a94c73bd2000e1,2022-05-12_04h21.39.574,classification_task,2021.2.3,Win32,60.14675809,627c6715c52fd12f31907bd0,,,,,,,,,,,,,,,,,,,,,,,a,1,"[""0.241"",""0.561"",""0.669"",""0.940""]","[1,1,0,1]",0,35,35,35,1,0,1,,,1,FALSE,1.7994,,,,,,,,,,,,,,,,,,,,,,,,,,,,,,,
,5ca65510a0b6540012283c32,627c6ef9d7a94c73bd2000e1,2022-05-12_04h21.39.574,classification_task,2021.2.3,Win32,60.14675809,627c6715c52fd12f31907bd0,,,,,,,,,,,,,,,,,,,,,,,l,1,"[""0.047"",""0.479"",""0.606"",""0.715""]","[1,0,1,1]",0,36,36,36,1,1,1,,,1,FALSE,1.9182,,,,,,,,,,,,,,,,,,,,,,,,,,,,,,,
,5ca65510a0b6540012283c32,627c6ef9d7a94c73bd2000e1,2022-05-12_04h21.39.574,classification_task,2021.2.3,Win32,60.14675809,627c6715c52fd12f31907bd0,,,,,,,,,,,,,,,,,,,,,,,l,0,"[""0.082"",""0.391"",""0.906"",""0.973""]","[0,1,1,1]",0,37,37,37,1,0,0,,,1,FALSE,2.4082,,,,,,,,,,,,,,,,,,,,,,,,,,,,,,,
,5ca65510a0b6540012283c32,627c6ef9d7a94c73bd2000e1,2022-05-12_04h21.39.574,classification_task,2021.2.3,Win32,60.14675809,627c6715c52fd12f31907bd0,,,,,,,,,,,,,,,,,,,,,,,a,1,"[""0.277"",""0.391"",""0.644"",""0.973""]","[1,1,0,1]",0,38,38,38,1,0,0,,,1,FALSE,1.6962,,,,,,,,,,,,,,,,,,,,,,,,,,,,,,,
,5ca65510a0b6540012283c32,627c6ef9d7a94c73bd2000e1,2022-05-12_04h21.39.574,classification_task,2021.2.3,Win32,60.14675809,627c6715c52fd12f31907bd0,,,,,,,,,,,,,,,,,,,,,,,a,1,"[""0.241"",""0.561"",""0.840"",""0.505""]","[1,1,1,0]",0,39,39,39,1,0,1,,,1,FALSE,2.7415,,,,,,,,,,,,,,,,,,,,,,,,,,,,,,,
,5ca65510a0b6540012283c32,627c6ef9d7a94c73bd2000e1,2022-05-12_04h21.39.574,classification_task,2021.2.3,Win32,60.14675809,627c6715c52fd12f31907bd0,,,,,,,,,,,,,,,,,,,,,,,l,1,"[""0.128"",""0.196"",""0.442"",""0.520""]","[1,1,1,0]",0,40,40,40,1,1,0,,,1,FALSE,1.9931,,,,,,,,,,,,,,,,,,,,,,,,,,,,,,,
,5ca65510a0b6540012283c32,627c6ef9d7a94c73bd2000e1,2022-05-12_04h21.39.574,classification_task,2021.2.3,Win32,60.14675809,627c6715c52fd12f31907bd0,,,,,,,,,,,,,,,,,,,,,,,a,1,"[""0.669"",""0.561"",""0.840"",""0.940""]","[0,1,1,1]",0,41,41,41,1,0,1,,,1,FALSE,3.6229,,,,,,,,,,,,,,,,,,,,,,,,,,,,,,,
,5ca65510a0b6540012283c32,627c6ef9d7a94c73bd2000e1,2022-05-12_04h21.39.574,classification_task,2021.2.3,Win32,60.14675809,627c6715c52fd12f31907bd0,,,,,,,,,,,,,,,,,,,,,,,l,1,"[""0.656"",""0.196"",""0.442"",""0.789""]","[0,1,1,1]",0,42,42,42,1,1,0,,,1,FALSE,2.6716,,,,,,,,,,,,,,,,,,,,,,,,,,,,,,,
,5ca65510a0b6540012283c32,627c6ef9d7a94c73bd2000e1,2022-05-12_04h21.39.574,classification_task,2021.2.3,Win32,60.14675809,627c6715c52fd12f31907bd0,,,,,,,,,,,,,,,,,,,,,,,l,1,"[""0.128"",""0.196"",""0.483"",""0.789""]","[1,1,0,1]",0,43,43,43,1,1,0,,,1,FALSE,2.7821,,,,,,,,,,,,,,,,,,,,,,,,,,,,,,,
,5ca65510a0b6540012283c32,627c6ef9d7a94c73bd2000e1,2022-05-12_04h21.39.574,classification_task,2021.2.3,Win32,60.14675809,627c6715c52fd12f31907bd0,,,,,,,,,,,,,,,,,,,,,,,a,1,"[""0.277"",""0.391"",""0.906"",""0.644""]","[1,1,1,0]",0,44,44,44,1,0,0,,,1,FALSE,1.6713,,,,,,,,,,,,,,,,,,,,,,,,,,,,,,,
,5ca65510a0b6540012283c32,627c6ef9d7a94c73bd2000e1,2022-05-12_04h21.39.574,classification_task,2021.2.3,Win32,60.14675809,627c6715c52fd12f31907bd0,,,,,,,,,,,,,,,,,,,,,,,l,1,"[""0.047"",""0.337"",""0.479"",""0.715""]","[1,1,0,1]",0,45,45,45,1,1,1,,,1,FALSE,2.1009,,,,,,,,,,,,,,,,,,,,,,,,,,,,,,,
,5ca65510a0b6540012283c32,627c6ef9d7a94c73bd2000e1,2022-05-12_04h21.39.574,classification_task,2021.2.3,Win32,60.14675809,627c6715c52fd12f31907bd0,,,,,,,,,,,,,,,,,,,,,,,a,1,"[""0.277"",""0.664"",""0.906"",""0.973""]","[1,0,1,1]",0,46,46,46,1,0,0,,,1,FALSE,2.7475,,,,,,,,,,,,,,,,,,,,,,,,,,,,,,,
,5ca65510a0b6540012283c32,627c6ef9d7a94c73bd2000e1,2022-05-12_04h21.39.574,classification_task,2021.2.3,Win32,60.14675809,627c6715c52fd12f31907bd0,,,,,,,,,,,,,,,,,,,,,,,l,1,"[""0.047"",""0.337"",""0.606"",""0.644""]","[1,1,1,0]",0,47,47,47,1,1,1,,,1,FALSE,2.4403,,,,,,,,,,,,,,,,,,,,,,,,,,,,,,,
,5ca65510a0b6540012283c32,627c6ef9d7a94c73bd2000e1,2022-05-12_04h21.39.574,classification_task,2021.2.3,Win32,60.14675809,627c6715c52fd12f31907bd0,,,,,,,,,,,,,,,,,,,,,,,l,1,"[""0.128"",""0.196"",""0.442"",""0.479""]","[1,1,1,0]",0,48,48,48,1,1,0,,,1,FALSE,3.5051,,,,,,,,,,,,,,,,,,,,,,,,,,,,,,,
,5ca65510a0b6540012283c32,627c6ef9d7a94c73bd2000e1,2022-05-12_04h21.39.574,classification_task,2021.2.3,Win32,60.14675809,627c6715c52fd12f31907bd0,,,,,,,,,,,,,,,,,,,,,,,a,1,"[""0.241"",""0.664"",""0.840"",""0.940""]","[1,0,1,1]",0,49,49,49,1,0,1,,,1,FALSE,2.4421,,,,,,,,,,,,,,,,,,,,,,,,,,,,,,,
,5ca65510a0b6540012283c32,627c6ef9d7a94c73bd2000e1,2022-05-12_04h21.39.574,classification_task,2021.2.3,Win32,60.14675809,627c6715c52fd12f31907bd0,,,,,,,,,,,,,,,,,,,,,,,a,1,"[""0.656"",""0.391"",""0.906"",""0.973""]","[0,1,1,1]",0,50,50,50,1,0,0,,,1,FALSE,3.1379,,,,,,,,,,,,,,,,,,,,,,,,,,,,,,,
,5ca65510a0b6540012283c32,627c6ef9d7a94c73bd2000e1,2022-05-12_04h21.39.574,classification_task,2021.2.3,Win32,60.14675809,627c6715c52fd12f31907bd0,,,,,,,,,,,,,,,,,,,,,,,l,1,"[""0.047"",""0.337"",""0.652"",""0.715""]","[1,1,0,1]",0,51,51,51,1,1,1,,,1,FALSE,1.744,,,,,,,,,,,,,,,,,,,,,,,,,,,,,,,
,5ca65510a0b6540012283c32,627c6ef9d7a94c73bd2000e1,2022-05-12_04h21.39.574,classification_task,2021.2.3,Win32,60.14675809,627c6715c52fd12f31907bd0,,,,,,,,,,,,,,,,,,,,,,,l,1,"[""0.047"",""0.642"",""0.606"",""0.715""]","[1,0,1,1]",0,52,52,52,1,1,1,,,1,FALSE,2.2469,,,,,,,,,,,,,,,,,,,,,,,,,,,,,,,
,5ca65510a0b6540012283c32,627c6ef9d7a94c73bd2000e1,2022-05-12_04h21.39.574,classification_task,2021.2.3,Win32,60.14675809,627c6715c52fd12f31907bd0,,,,,,,,,,,,,,,,,,,,,,,a,1,"[""0.482"",""0.561"",""0.840"",""0.940""]","[0,1,1,1]",0,53,53,53,1,0,1,,,1,FALSE,3.2653,,,,,,,,,,,,,,,,,,,,,,,,,,,,,,,
,5ca65510a0b6540012283c32,627c6ef9d7a94c73bd2000e1,2022-05-12_04h21.39.574,classification_task,2021.2.3,Win32,60.14675809,627c6715c52fd12f31907bd0,,,,,,,,,,,,,,,,,,,,,,,l,0,"[""0.241"",""0.561"",""0.082"",""0.940""]","[1,1,0,1]",0,54,54,54,1,0,1,,,1,FALSE,2.1842,,,,,,,,,,,,,,,,,,,,,,,,,,,,,,,
,5ca65510a0b6540012283c32,627c6ef9d7a94c73bd2000e1,2022-05-12_04h21.39.574,classification_task,2021.2.3,Win32,60.14675809,627c6715c52fd12f31907bd0,,,,,,,,,,,,,,,,,,,,,,,a,1,"[""0.277"",""0.391"",""0.906"",""0.657""]","[1,1,1,0]",0,55,55,55,1,0,0,,,1,FALSE,1.2753,,,,,,,,,,,,,,,,,,,,,,,,,,,,,,,
,5ca65510a0b6540012283c32,627c6ef9d7a94c73bd2000e1,2022-05-12_04h21.39.574,classification_task,2021.2.3,Win32,60.14675809,627c6715c52fd12f31907bd0,,,,,,,,,,,,,,,,,,,,,,,l,0,"[""0.277"",""0.082"",""0.906"",""0.973""]","[1,0,1,1]",0,56,56,56,1,0,0,,,1,FALSE,1.5719,,,,,,,,,,,,,,,,,,,,,,,,,,,,,,,
,5ca65510a0b6540012283c32,627c6ef9d7a94c73bd2000e1,2022-05-12_04h21.39.574,classification_task,2021.2.3,Win32,60.14675809,627c6715c52fd12f31907bd0,,,,,,,,,,,,,,,,,,,,,,,l,1,"[""0.047"",""0.337"",""0.606"",""0.482""]","[1,1,1,0]",0,57,57,57,1,1,1,,,1,FALSE,1.9128,,,,,,,,,,,,,,,,,,,,,,,,,,,,,,,
,5ca65510a0b6540012283c32,627c6ef9d7a94c73bd2000e1,2022-05-12_04h21.39.574,classification_task,2021.2.3,Win32,60.14675809,627c6715c52fd12f31907bd0,,,,,,,,,,,,,,,,,,,,,,,l,1,"[""0.128"",""0.196"",""0.482"",""0.789""]","[1,1,0,1]",0,58,58,58,1,1,0,,,1,FALSE,3.1629,,,,,,,,,,,,,,,,,,,,,,,,,,,,,,,
,5ca65510a0b6540012283c32,627c6ef9d7a94c73bd2000e1,2022-05-12_04h21.39.574,classification_task,2021.2.3,Win32,60.14675809,627c6715c52fd12f31907bd0,,,,,,,,,,,,,,,,,,,,,,,l,1,"[""0.128"",""0.499"",""0.442"",""0.789""]","[1,0,1,1]",0,59,59,59,1,1,0,,,1,FALSE,2.5466,,,,,,,,,,,,,,,,,,,,,,,,,,,,,,,
,5ca65510a0b6540012283c32,627c6ef9d7a94c73bd2000e1,2022-05-12_04h21.39.574,classification_task,2021.2.3,Win32,60.14675809,627c6715c52fd12f31907bd0,,,,,,,,,,,,,,,,,,,,,,,a,1,"[""0.241"",""0.561"",""0.840"",""0.669""]","[1,1,1,0]",0,60,60,60,1,0,1,,,1,FALSE,1.7336,,,,,,,,,,,,,,,,,,,,,,,,,,,,,,,
,5ca65510a0b6540012283c32,627c6ef9d7a94c73bd2000e1,2022-05-12_04h21.39.574,classification_task,2021.2.3,Win32,60.14675809,627c6715c52fd12f31907bd0,,,,,,,,,,,,,,,,,,,,,,,l,1,"[""0.082"",""0.196"",""0.442"",""0.789""]","[0,1,1,1]",0,61,61,61,1,1,0,,,1,FALSE,1.8285,,,,,,,,,,,,,,,,,,,,,,,,,,,,,,,
,5ca65510a0b6540012283c32,627c6ef9d7a94c73bd2000e1,2022-05-12_04h21.39.574,classification_task,2021.2.3,Win32,60.14675809,627c6715c52fd12f31907bd0,,,,,,,,,,,,,,,,,,,,,,,a,0,"[""0.499"",""0.337"",""0.606"",""0.715""]","[0,1,1,1]",0,62,62,62,1,1,1,,,1,FALSE,2.8632,,,,,,,,,,,,,,,,,,,,,,,,,,,,,,,
,5ca65510a0b6540012283c32,627c6ef9d7a94c73bd2000e1,2022-05-12_04h21.39.574,classification_task,2021.2.3,Win32,60.14675809,627c6715c52fd12f31907bd0,,,,,,,,,,,,,,,,,,,,,,,a,1,"[""0.277"",""0.391"",""0.520"",""0.973""]","[1,1,0,1]",0,63,63,63,1,0,0,,,1,FALSE,1.4579,,,,,,,,,,,,,,,,,,,,,,,,,,,,,,,
,5ca65510a0b6540012283c32,627c6ef9d7a94c73bd2000e1,2022-05-12_04h21.39.574,classification_task,2021.2.3,Win32,60.14675809,627c6715c52fd12f31907bd0,,,,,,,,,,,,,,,,,,,,,,,,,,,,,,,,,,,,,,,0, ,,0,0,473.0574,0,0,0,0,1,2,1,,,,,,,,,,,,,,,,,,
,5ca65510a0b6540012283c32,627c6ef9d7a94c73bd2000e1,2022-05-12_04h21.39.574,classification_task,2021.2.3,Win32,60.14675809,627c6715c52fd12f31907bd0,,,,,,,,,,,,,,,,,,,,,,,,,,,,,,,,,,,,,,,1,  ,,0,10,457.98,0,0,0,0,1,2,1,,,,,,,,,,,,,,,,,,
,5ca65510a0b6540012283c32,627c6ef9d7a94c73bd2000e1,2022-05-12_04h21.39.574,classification_task,2021.2.3,Win32,60.14675809,627c6715c52fd12f31907bd0,,,,,,,,,,,,,,,,,,,,,,,,,,,,,,,,,,,,,,,2,  ,,0,4.859152227,465.4713,0,0,0,0,1,2,1,,,,,,,,,,,,,,,,,,
,5ca65510a0b6540012283c32,627c6ef9d7a94c73bd2000e1,2022-05-12_04h21.39.574,classification_task,2021.2.3,Win32,60.14675809,627c6715c52fd12f31907bd0,,,,,,,,,,,,,,,,,,,,,,,,,,,,,,,,,,,,,,,,,,,,,0,0,0,0,1,,1,,,,,,,,,,,,,,,,,,
,5ca65510a0b6540012283c32,627c6ef9d7a94c73bd2000e1,2022-05-12_04h21.39.574,classification_task,2021.2.3,Win32,60.14675809,627c6715c52fd12f31907bd0,,,,,,,,,,,,,,,,,,,,,space,8.7921,a,0,"[""0.656"",""0.196"",""0.442"",""0.789""]","[0,1,1,1]",0,0,0,0,1,1,0,,,1,FALSE,2.6241,,,,,,,,,,,,,,,,,,,,,,,,,,,,,,,
,5ca65510a0b6540012283c32,627c6ef9d7a94c73bd2000e1,2022-05-12_04h21.39.574,classification_task,2021.2.3,Win32,60.14675809,627c6715c52fd12f31907bd0,,,,,,,,,,,,,,,,,,,,,,,l,1,"[""0.128"",""0.196"",""0.656"",""0.789""]","[1,1,0,1]",0,1,1,1,1,1,0,,,1,FALSE,2.0742,,,,,,,,,,,,,,,,,,,,,,,,,,,,,,,
,5ca65510a0b6540012283c32,627c6ef9d7a94c73bd2000e1,2022-05-12_04h21.39.574,classification_task,2021.2.3,Win32,60.14675809,627c6715c52fd12f31907bd0,,,,,,,,,,,,,,,,,,,,,,,a,1,"[""0.656"",""0.561"",""0.840"",""0.940""]","[0,1,1,1]",0,2,2,2,1,0,1,,,1,FALSE,2.9375,,,,,,,,,,,,,,,,,,,,,,,,,,,,,,,
,5ca65510a0b6540012283c32,627c6ef9d7a94c73bd2000e1,2022-05-12_04h21.39.574,classification_task,2021.2.3,Win32,60.14675809,627c6715c52fd12f31907bd0,,,,,,,,,,,,,,,,,,,,,,,a,1,"[""0.241"",""0.561"",""0.840"",""0.499""]","[1,1,1,0]",0,3,3,3,1,0,1,,,1,FALSE,2.0074,,,,,,,,,,,,,,,,,,,,,,,,,,,,,,,
,5ca65510a0b6540012283c32,627c6ef9d7a94c73bd2000e1,2022-05-12_04h21.39.574,classification_task,2021.2.3,Win32,60.14675809,627c6715c52fd12f31907bd0,,,,,,,,,,,,,,,,,,,,,,,a,1,"[""0.241"",""0.657"",""0.840"",""0.940""]","[1,0,1,1]",0,4,4,4,1,0,1,,,1,FALSE,2.4691,,,,,,,,,,,,,,,,,,,,,,,,,,,,,,,
,5ca65510a0b6540012283c32,627c6ef9d7a94c73bd2000e1,2022-05-12_04h21.39.574,classification_task,2021.2.3,Win32,60.14675809,627c6715c52fd12f31907bd0,,,,,,,,,,,,,,,,,,,,,,,l,1,"[""0.128"",""0.082"",""0.442"",""0.789""]","[1,0,1,1]",0,5,5,5,1,1,0,,,1,FALSE,2.3299,,,,,,,,,,,,,,,,,,,,,,,,,,,,,,,
,5ca65510a0b6540012283c32,627c6ef9d7a94c73bd2000e1,2022-05-12_04h21.39.574,classification_task,2021.2.3,Win32,60.14675809,627c6715c52fd12f31907bd0,,,,,,,,,,,,,,,,,,,,,,,a,1,"[""0.241"",""0.561"",""0.642"",""0.940""]","[1,1,0,1]",0,6,6,6,1,0,1,,,1,FALSE,1.4748,,,,,,,,,,,,,,,,,,,,,,,,,,,,,,,
,5ca65510a0b6540012283c32,627c6ef9d7a94c73bd2000e1,2022-05-12_04h21.39.574,classification_task,2021.2.3,Win32,60.14675809,627c6715c52fd12f31907bd0,,,,,,,,,,,,,,,,,,,,,,,l,1,"[""0.047"",""0.656"",""0.606"",""0.715""]","[1,0,1,1]",0,7,7,7,1,1,1,,,1,FALSE,1.4661,,,,,,,,,,,,,,,,,,,,,,,,,,,,,,,
,5ca65510a0b6540012283c32,627c6ef9d7a94c73bd2000e1,2022-05-12_04h21.39.574,classification_task,2021.2.3,Win32,60.14675809,627c6715c52fd12f31907bd0,,,,,,,,,,,,,,,,,,,,,,,l,1,"[""0.047"",""0.337"",""0.483"",""0.715""]","[1,1,0,1]",0,8,8,8,1,1,1,,,1,FALSE,1.394,,,,,,,,,,,,,,,,,,,,,,,,,,,,,,,
,5ca65510a0b6540012283c32,627c6ef9d7a94c73bd2000e1,2022-05-12_04h21.39.574,classification_task,2021.2.3,Win32,60.14675809,627c6715c52fd12f31907bd0,,,,,,,,,,,,,,,,,,,,,,,l,1,"[""0.128"",""0.196"",""0.442"",""0.664""]","[1,1,1,0]",0,9,9,9,1,1,0,,,1,FALSE,1.826,,,,,,,,,,,,,,,,,,,,,,,,,,,,,,,
,5ca65510a0b6540012283c32,627c6ef9d7a94c73bd2000e1,2022-05-12_04h21.39.574,classification_task,2021.2.3,Win32,60.14675809,627c6715c52fd12f31907bd0,,,,,,,,,,,,,,,,,,,,,,,a,1,"[""0.664"",""0.391"",""0.906"",""0.973""]","[0,1,1,1]",0,10,10,10,1,0,0,,,1,FALSE,1.7274,,,,,,,,,,,,,,,,,,,,,,,,,,,,,,,
,5ca65510a0b6540012283c32,627c6ef9d7a94c73bd2000e1,2022-05-12_04h21.39.574,classification_task,2021.2.3,Win32,60.14675809,627c6715c52fd12f31907bd0,,,,,,,,,,,,,,,,,,,,,,,a,1,"[""0.277"",""0.391"",""0.499"",""0.973""]","[1,1,0,1]",0,11,11,11,1,0,0,,,1,FALSE,1.7177,,,,,,,,,,,,,,,,,,,,,,,,,,,,,,,
,5ca65510a0b6540012283c32,627c6ef9d7a94c73bd2000e1,2022-05-12_04h21.39.574,classification_task,2021.2.3,Win32,60.14675809,627c6715c52fd12f31907bd0,,,,,,,,,,,,,,,,,,,,,,,a,1,"[""0.277"",""0.479"",""0.906"",""0.973""]","[1,0,1,1]",0,12,12,12,1,0,0,,,1,FALSE,1.4703,,,,,,,,,,,,,,,,,,,,,,,,,,,,,,,
,5ca65510a0b6540012283c32,627c6ef9d7a94c73bd2000e1,2022-05-12_04h21.39.574,classification_task,2021.2.3,Win32,60.14675809,627c6715c52fd12f31907bd0,,,,,,,,,,,,,,,,,,,,,,,l,1,"[""0.656"",""0.337"",""0.606"",""0.715""]","[0,1,1,1]",0,13,13,13,1,1,1,,,1,FALSE,0.8205,,,,,,,,,,,,,,,,,,,,,,,,,,,,,,,
,5ca65510a0b6540012283c32,627c6ef9d7a94c73bd2000e1,2022-05-12_04h21.39.574,classification_task,2021.2.3,Win32,60.14675809,627c6715c52fd12f31907bd0,,,,,,,,,,,,,,,,,,,,,,,l,1,"[""0.047"",""0.337"",""0.606"",""0.657""]","[1,1,1,0]",0,14,14,14,1,1,1,,,1,FALSE,0.8903,,,,,,,,,,,,,,,,,,,,,,,,,,,,,,,
,5ca65510a0b6540012283c32,627c6ef9d7a94c73bd2000e1,2022-05-12_04h21.39.574,classification_task,2021.2.3,Win32,60.14675809,627c6715c52fd12f31907bd0,,,,,,,,,,,,,,,,,,,,,,,l,0,"[""0.277"",""0.391"",""0.906"",""0.082""]","[1,1,1,0]",0,15,15,15,1,0,0,,,1,FALSE,1.3814,,,,,,,,,,,,,,,,,,,,,,,,,,,,,,,
,5ca65510a0b6540012283c32,627c6ef9d7a94c73bd2000e1,2022-05-12_04h21.39.574,classification_task,2021.2.3,Win32,60.14675809,627c6715c52fd12f31907bd0,,,,,,,,,,,,,,,,,,,,,,,a,1,"[""0.241"",""0.482"",""0.840"",""0.940""]","[1,0,1,1]",0,16,16,16,1,0,1,,,1,FALSE,0.7666,,,,,,,,,,,,,,,,,,,,,,,,,,,,,,,
,5ca65510a0b6540012283c32,627c6ef9d7a94c73bd2000e1,2022-05-12_04h21.39.574,classification_task,2021.2.3,Win32,60.14675809,627c6715c52fd12f31907bd0,,,,,,,,,,,,,,,,,,,,,,,l,1,"[""0.128"",""0.196"",""0.664"",""0.789""]","[1,1,0,1]",0,17,17,17,1,1,0,,,1,FALSE,1.4445,,,,,,,,,,,,,,,,,,,,,,,,,,,,,,,
,5ca65510a0b6540012283c32,627c6ef9d7a94c73bd2000e1,2022-05-12_04h21.39.574,classification_task,2021.2.3,Win32,60.14675809,627c6715c52fd12f31907bd0,,,,,,,,,,,,,,,,,,,,,,,l,1,"[""0.128"",""0.196"",""0.442"",""0.479""]","[1,1,1,0]",0,18,18,18,1,1,0,,,1,FALSE,1.7698,,,,,,,,,,,,,,,,,,,,,,,,,,,,,,,
,5ca65510a0b6540012283c32,627c6ef9d7a94c73bd2000e1,2022-05-12_04h21.39.574,classification_task,2021.2.3,Win32,60.14675809,627c6715c52fd12f31907bd0,,,,,,,,,,,,,,,,,,,,,,,a,1,"[""0.644"",""0.391"",""0.906"",""0.973""]","[0,1,1,1]",0,19,19,19,1,0,0,,,1,FALSE,1.5362,,,,,,,,,,,,,,,,,,,,,,,,,,,,,,,
,5ca65510a0b6540012283c32,627c6ef9d7a94c73bd2000e1,2022-05-12_04h21.39.574,classification_task,2021.2.3,Win32,60.14675809,627c6715c52fd12f31907bd0,,,,,,,,,,,,,,,,,,,,,,,l,1,"[""0.047"",""0.337"",""0.505"",""0.715""]","[1,1,0,1]",0,20,20,20,1,1,1,,,1,FALSE,0.7176,,,,,,,,,,,,,,,,,,,,,,,,,,,,,,,
,5ca65510a0b6540012283c32,627c6ef9d7a94c73bd2000e1,2022-05-12_04h21.39.574,classification_task,2021.2.3,Win32,60.14675809,627c6715c52fd12f31907bd0,,,,,,,,,,,,,,,,,,,,,,,a,1,"[""0.277"",""0.391"",""0.644"",""0.973""]","[1,1,0,1]",0,21,21,21,1,0,0,,,1,FALSE,1.5591,,,,,,,,,,,,,,,,,,,,,,,,,,,,,,,
,5ca65510a0b6540012283c32,627c6ef9d7a94c73bd2000e1,2022-05-12_04h21.39.574,classification_task,2021.2.3,Win32,60.14675809,627c6715c52fd12f31907bd0,,,,,,,,,,,,,,,,,,,,,,,l,1,"[""0.047"",""0.656"",""0.606"",""0.715""]","[1,0,1,1]",0,22,22,22,1,1,1,,,1,FALSE,0.7561,,,,,,,,,,,,,,,,,,,,,,,,,,,,,,,
,5ca65510a0b6540012283c32,627c6ef9d7a94c73bd2000e1,2022-05-12_04h21.39.574,classification_task,2021.2.3,Win32,60.14675809,627c6715c52fd12f31907bd0,,,,,,,,,,,,,,,,,,,,,,,l,1,"[""0.483"",""0.196"",""0.442"",""0.789""]","[0,1,1,1]",0,23,23,23,1,1,0,,,1,FALSE,1.4634,,,,,,,,,,,,,,,,,,,,,,,,,,,,,,,
,5ca65510a0b6540012283c32,627c6ef9d7a94c73bd2000e1,2022-05-12_04h21.39.574,classification_task,2021.2.3,Win32,60.14675809,627c6715c52fd12f31907bd0,,,,,,,,,,,,,,,,,,,,,,,l,1,"[""0.047"",""0.337"",""0.606"",""0.505""]","[1,1,1,0]",0,24,24,24,1,1,1,,,1,FALSE,0.9354,,,,,,,,,,,,,,,,,,,,,,,,,,,,,,,
,5ca65510a0b6540012283c32,627c6ef9d7a94c73bd2000e1,2022-05-12_04h21.39.574,classification_task,2021.2.3,Win32,60.14675809,627c6715c52fd12f31907bd0,,,,,,,,,,,,,,,,,,,,,,,a,1,"[""0.241"",""0.561"",""0.644"",""0.940""]","[1,1,0,1]",0,25,25,25,1,0,1,,,1,FALSE,0.7479,,,,,,,,,,,,,,,,,,,,,,,,,,,,,,,
,5ca65510a0b6540012283c32,627c6ef9d7a94c73bd2000e1,2022-05-12_04h21.39.574,classification_task,2021.2.3,Win32,60.14675809,627c6715c52fd12f31907bd0,,,,,,,,,,,,,,,,,,,,,,,a,1,"[""0.277"",""0.482"",""0.906"",""0.973""]","[1,0,1,1]",0,26,26,26,1,0,0,,,1,FALSE,1.1407,,,,,,,,,,,,,,,,,,,,,,,,,,,,,,,
,5ca65510a0b6540012283c32,627c6ef9d7a94c73bd2000e1,2022-05-12_04h21.39.574,classification_task,2021.2.3,Win32,60.14675809,627c6715c52fd12f31907bd0,,,,,,,,,,,,,,,,,,,,,,,a,1,"[""0.642"",""0.561"",""0.840"",""0.940""]","[0,1,1,1]",0,27,27,27,1,0,1,,,1,FALSE,1.4719,,,,,,,,,,,,,,,,,,,,,,,,,,,,,,,
,5ca65510a0b6540012283c32,627c6ef9d7a94c73bd2000e1,2022-05-12_04h21.39.574,classification_task,2021.2.3,Win32,60.14675809,627c6715c52fd12f31907bd0,,,,,,,,,,,,,,,,,,,,,,,a,1,"[""0.277"",""0.391"",""0.906"",""0.499""]","[1,1,1,0]",0,28,28,28,1,0,0,,,1,FALSE,1.2732,,,,,,,,,,,,,,,,,,,,,,,,,,,,,,,
,5ca65510a0b6540012283c32,627c6ef9d7a94c73bd2000e1,2022-05-12_04h21.39.574,classification_task,2021.2.3,Win32,60.14675809,627c6715c52fd12f31907bd0,,,,,,,,,,,,,,,,,,,,,,,l,1,"[""0.483"",""0.337"",""0.606"",""0.715""]","[0,1,1,1]",0,29,29,29,1,1,1,,,1,FALSE,0.7987,,,,,,,,,,,,,,,,,,,,,,,,,,,,,,,
,5ca65510a0b6540012283c32,627c6ef9d7a94c73bd2000e1,2022-05-12_04h21.39.574,classification_task,2021.2.3,Win32,60.14675809,627c6715c52fd12f31907bd0,,,,,,,,,,,,,,,,,,,,,,,l,1,"[""0.128"",""0.656"",""0.442"",""0.789""]","[1,0,1,1]",0,30,30,30,1,1,0,,,1,FALSE,1.2301,,,,,,,,,,,,,,,,,,,,,,,,,,,,,,,
,5ca65510a0b6540012283c32,627c6ef9d7a94c73bd2000e1,2022-05-12_04h21.39.574,classification_task,2021.2.3,Win32,60.14675809,627c6715c52fd12f31907bd0,,,,,,,,,,,,,,,,,,,,,,,a,1,"[""0.241"",""0.561"",""0.840"",""0.657""]","[1,1,1,0]",0,31,31,31,1,0,1,,,1,FALSE,0.9446,,,,,,,,,,,,,,,,,,,,,,,,,,,,,,,
,5ca65510a0b6540012283c32,627c6ef9d7a94c73bd2000e1,2022-05-12_04h21.39.574,classification_task,2021.2.3,Win32,60.14675809,627c6715c52fd12f31907bd0,,,,,,,,,,,,,,,,,,,,,,,a,1,"[""0.241"",""0.561"",""0.840"",""0.082""]","[1,1,1,0]",0,32,32,32,1,0,1,,,1,FALSE,1.1796,,,,,,,,,,,,,,,,,,,,,,,,,,,,,,,
,5ca65510a0b6540012283c32,627c6ef9d7a94c73bd2000e1,2022-05-12_04h21.39.574,classification_task,2021.2.3,Win32,60.14675809,627c6715c52fd12f31907bd0,,,,,,,,,,,,,,,,,,,,,,,a,0,"[""0.505"",""0.196"",""0.442"",""0.789""]","[0,1,1,1]",0,33,33,33,1,1,0,,,1,FALSE,1.8497,,,,,,,,,,,,,,,,,,,,,,,,,,,,,,,
,5ca65510a0b6540012283c32,627c6ef9d7a94c73bd2000e1,2022-05-12_04h21.39.574,classification_task,2021.2.3,Win32,60.14675809,627c6715c52fd12f31907bd0,,,,,,,,,,,,,,,,,,,,,,,a,1,"[""0.241"",""0.642"",""0.840"",""0.940""]","[1,0,1,1]",0,34,34,34,1,0,1,,,1,FALSE,1.2118,,,,,,,,,,,,,,,,,,,,,,,,,,,,,,,
,5ca65510a0b6540012283c32,627c6ef9d7a94c73bd2000e1,2022-05-12_04h21.39.574,classification_task,2021.2.3,Win32,60.14675809,627c6715c52fd12f31907bd0,,,,,,,,,,,,,,,,,,,,,,,l,1,"[""0.047"",""0.337"",""0.606"",""0.520""]","[1,1,1,0]",0,35,35,35,1,1,1,,,1,FALSE,0.8487,,,,,,,,,,,,,,,,,,,,,,,,,,,,,,,
,5ca65510a0b6540012283c32,627c6ef9d7a94c73bd2000e1,2022-05-12_04h21.39.574,classification_task,2021.2.3,Win32,60.14675809,627c6715c52fd12f31907bd0,,,,,,,,,,,,,,,,,,,,,,,l,1,"[""0.128"",""0.196"",""0.442"",""0.483""]","[1,1,1,0]",0,36,36,36,1,1,0,,,1,FALSE,1.2654,,,,,,,,,,,,,,,,,,,,,,,,,,,,,,,
,5ca65510a0b6540012283c32,627c6ef9d7a94c73bd2000e1,2022-05-12_04h21.39.574,classification_task,2021.2.3,Win32,60.14675809,627c6715c52fd12f31907bd0,,,,,,,,,,,,,,,,,,,,,,,a,1,"[""0.241"",""0.561"",""0.482"",""0.940""]","[1,1,0,1]",0,37,37,37,1,0,1,,,1,FALSE,1.0962,,,,,,,,,,,,,,,,,,,,,,,,,,,,,,,
,5ca65510a0b6540012283c32,627c6ef9d7a94c73bd2000e1,2022-05-12_04h21.39.574,classification_task,2021.2.3,Win32,60.14675809,627c6715c52fd12f31907bd0,,,,,,,,,,,,,,,,,,,,,,,l,1,"[""0.128"",""0.499"",""0.442"",""0.789""]","[1,0,1,1]",0,38,38,38,1,1,0,,,1,FALSE,1.6447,,,,,,,,,,,,,,,,,,,,,,,,,,,,,,,
,5ca65510a0b6540012283c32,627c6ef9d7a94c73bd2000e1,2022-05-12_04h21.39.574,classification_task,2021.2.3,Win32,60.14675809,627c6715c52fd12f31907bd0,,,,,,,,,,,,,,,,,,,,,,,a,1,"[""0.520"",""0.391"",""0.906"",""0.973""]","[0,1,1,1]",0,39,39,39,1,0,0,,,1,FALSE,1.2418,,,,,,,,,,,,,,,,,,,,,,,,,,,,,,,
,5ca65510a0b6540012283c32,627c6ef9d7a94c73bd2000e1,2022-05-12_04h21.39.574,classification_task,2021.2.3,Win32,60.14675809,627c6715c52fd12f31907bd0,,,,,,,,,,,,,,,,,,,,,,,a,1,"[""0.277"",""0.656"",""0.906"",""0.973""]","[1,0,1,1]",0,40,40,40,1,0,0,,,1,FALSE,1.1394,,,,,,,,,,,,,,,,,,,,,,,,,,,,,,,
,5ca65510a0b6540012283c32,627c6ef9d7a94c73bd2000e1,2022-05-12_04h21.39.574,classification_task,2021.2.3,Win32,60.14675809,627c6715c52fd12f31907bd0,,,,,,,,,,,,,,,,,,,,,,,a,1,"[""0.277"",""0.391"",""0.906"",""0.669""]","[1,1,1,0]",0,41,41,41,1,0,0,,,1,FALSE,0.9364,,,,,,,,,,,,,,,,,,,,,,,,,,,,,,,
,5ca65510a0b6540012283c32,627c6ef9d7a94c73bd2000e1,2022-05-12_04h21.39.574,classification_task,2021.2.3,Win32,60.14675809,627c6715c52fd12f31907bd0,,,,,,,,,,,,,,,,,,,,,,,a,1,"[""0.482"",""0.561"",""0.840"",""0.940""]","[0,1,1,1]",0,42,42,42,1,0,1,,,1,FALSE,1.4216,,,,,,,,,,,,,,,,,,,,,,,,,,,,,,,
,5ca65510a0b6540012283c32,627c6ef9d7a94c73bd2000e1,2022-05-12_04h21.39.574,classification_task,2021.2.3,Win32,60.14675809,627c6715c52fd12f31907bd0,,,,,,,,,,,,,,,,,,,,,,,l,1,"[""0.047"",""0.337"",""0.656"",""0.715""]","[1,1,0,1]",0,43,43,43,1,1,1,,,1,FALSE,0.7459,,,,,,,,,,,,,,,,,,,,,,,,,,,,,,,
,5ca65510a0b6540012283c32,627c6ef9d7a94c73bd2000e1,2022-05-12_04h21.39.574,classification_task,2021.2.3,Win32,60.14675809,627c6715c52fd12f31907bd0,,,,,,,,,,,,,,,,,,,,,,,a,1,"[""0.277"",""0.391"",""0.656"",""0.973""]","[1,1,0,1]",0,44,44,44,1,0,0,,,1,FALSE,0.8825,,,,,,,,,,,,,,,,,,,,,,,,,,,,,,,
,5ca65510a0b6540012283c32,627c6ef9d7a94c73bd2000e1,2022-05-12_04h21.39.574,classification_task,2021.2.3,Win32,60.14675809,627c6715c52fd12f31907bd0,,,,,,,,,,,,,,,,,,,,,,,l,1,"[""0.128"",""0.196"",""0.499"",""0.789""]","[1,1,0,1]",0,45,45,45,1,1,0,,,1,FALSE,1.0739,,,,,,,,,,,,,,,,,,,,,,,,,,,,,,,
,5ca65510a0b6540012283c32,627c6ef9d7a94c73bd2000e1,2022-05-12_04h21.39.574,classification_task,2021.2.3,Win32,60.14675809,627c6715c52fd12f31907bd0,,,,,,,,,,,,,,,,,,,,,,,l,1,"[""0.657"",""0.337"",""0.606"",""0.715""]","[0,1,1,1]",0,46,46,46,1,1,1,,,1,FALSE,1.1494,,,,,,,,,,,,,,,,,,,,,,,,,,,,,,,
,5ca65510a0b6540012283c32,627c6ef9d7a94c73bd2000e1,2022-05-12_04h21.39.574,classification_task,2021.2.3,Win32,60.14675809,627c6715c52fd12f31907bd0,,,,,,,,,,,,,,,,,,,,,,,l,1,"[""0.047"",""0.644"",""0.606"",""0.715""]","[1,0,1,1]",0,47,47,47,1,1,1,,,1,FALSE,0.7635,,,,,,,,,,,,,,,,,,,,,,,,,,,,,,,
,5ca65510a0b6540012283c32,627c6ef9d7a94c73bd2000e1,2022-05-12_04h21.39.574,classification_task,2021.2.3,Win32,60.14675809,627c6715c52fd12f31907bd0,,,,,,,,,,,,,,,,,,,,,,,l,0,"[""0.277"",""0.391"",""0.906"",""0.082""]","[1,1,1,0]",0,48,48,48,1,0,0,,,1,FALSE,1.1388,,,,,,,,,,,,,,,,,,,,,,,,,,,,,,,
,5ca65510a0b6540012283c32,627c6ef9d7a94c73bd2000e1,2022-05-12_04h21.39.574,classification_task,2021.2.3,Win32,60.14675809,627c6715c52fd12f31907bd0,,,,,,,,,,,,,,,,,,,,,,,a,1,"[""0.669"",""0.561"",""0.840"",""0.940""]","[0,1,1,1]",0,49,49,49,1,0,1,,,1,FALSE,1.8931,,,,,,,,,,,,,,,,,,,,,,,,,,,,,,,
,5ca65510a0b6540012283c32,627c6ef9d7a94c73bd2000e1,2022-05-12_04h21.39.574,classification_task,2021.2.3,Win32,60.14675809,627c6715c52fd12f31907bd0,,,,,,,,,,,,,,,,,,,,,,,a,1,"[""0.241"",""0.499"",""0.840"",""0.940""]","[1,0,1,1]",0,50,50,50,1,0,1,,,1,FALSE,1.3654,,,,,,,,,,,,,,,,,,,,,,,,,,,,,,,
,5ca65510a0b6540012283c32,627c6ef9d7a94c73bd2000e1,2022-05-12_04h21.39.574,classification_task,2021.2.3,Win32,60.14675809,627c6715c52fd12f31907bd0,,,,,,,,,,,,,,,,,,,,,,,l,1,"[""0.128"",""0.196"",""0.442"",""0.642""]","[1,1,1,0]",0,51,51,51,1,1,0,,,1,FALSE,1.6062,,,,,,,,,,,,,,,,,,,,,,,,,,,,,,,
,5ca65510a0b6540012283c32,627c6ef9d7a94c73bd2000e1,2022-05-12_04h21.39.574,classification_task,2021.2.3,Win32,60.14675809,627c6715c52fd12f31907bd0,,,,,,,,,,,,,,,,,,,,,,,a,1,"[""0.241"",""0.561"",""0.840"",""0.644""]","[1,1,1,0]",0,52,52,52,1,0,1,,,1,FALSE,1.0815,,,,,,,,,,,,,,,,,,,,,,,,,,,,,,,
,5ca65510a0b6540012283c32,627c6ef9d7a94c73bd2000e1,2022-05-12_04h21.39.574,classification_task,2021.2.3,Win32,60.14675809,627c6715c52fd12f31907bd0,,,,,,,,,,,,,,,,,,,,,,,l,1,"[""0.482"",""0.337"",""0.606"",""0.715""]","[0,1,1,1]",0,53,53,53,1,1,1,,,1,FALSE,1.4939,,,,,,,,,,,,,,,,,,,,,,,,,,,,,,,
,5ca65510a0b6540012283c32,627c6ef9d7a94c73bd2000e1,2022-05-12_04h21.39.574,classification_task,2021.2.3,Win32,60.14675809,627c6715c52fd12f31907bd0,,,,,,,,,,,,,,,,,,,,,,,l,1,"[""0.047"",""0.337"",""0.606"",""0.082""]","[1,1,1,0]",0,54,54,54,1,1,1,,,1,FALSE,1.1286,,,,,,,,,,,,,,,,,,,,,,,,,,,,,,,
,5ca65510a0b6540012283c32,627c6ef9d7a94c73bd2000e1,2022-05-12_04h21.39.574,classification_task,2021.2.3,Win32,60.14675809,627c6715c52fd12f31907bd0,,,,,,,,,,,,,,,,,,,,,,,a,1,"[""0.277"",""0.642"",""0.906"",""0.973""]","[1,0,1,1]",0,55,55,55,1,0,0,,,1,FALSE,1.6934,,,,,,,,,,,,,,,,,,,,,,,,,,,,,,,
,5ca65510a0b6540012283c32,627c6ef9d7a94c73bd2000e1,2022-05-12_04h21.39.574,classification_task,2021.2.3,Win32,60.14675809,627c6715c52fd12f31907bd0,,,,,,,,,,,,,,,,,,,,,,,a,1,"[""0.644"",""0.391"",""0.906"",""0.973""]","[0,1,1,1]",0,56,56,56,1,0,0,,,1,FALSE,1.8136,,,,,,,,,,,,,,,,,,,,,,,,,,,,,,,
,5ca65510a0b6540012283c32,627c6ef9d7a94c73bd2000e1,2022-05-12_04h21.39.574,classification_task,2021.2.3,Win32,60.14675809,627c6715c52fd12f31907bd0,,,,,,,,,,,,,,,,,,,,,,,l,1,"[""0.128"",""0.664"",""0.442"",""0.789""]","[1,0,1,1]",0,57,57,57,1,1,0,,,1,FALSE,1.7499,,,,,,,,,,,,,,,,,,,,,,,,,,,,,,,
,5ca65510a0b6540012283c32,627c6ef9d7a94c73bd2000e1,2022-05-12_04h21.39.574,classification_task,2021.2.3,Win32,60.14675809,627c6715c52fd12f31907bd0,,,,,,,,,,,,,,,,,,,,,,,l,1,"[""0.047"",""0.644"",""0.606"",""0.715""]","[1,0,1,1]",0,58,58,58,1,1,1,,,1,FALSE,1.2335,,,,,,,,,,,,,,,,,,,,,,,,,,,,,,,
,5ca65510a0b6540012283c32,627c6ef9d7a94c73bd2000e1,2022-05-12_04h21.39.574,classification_task,2021.2.3,Win32,60.14675809,627c6715c52fd12f31907bd0,,,,,,,,,,,,,,,,,,,,,,,a,1,"[""0.241"",""0.561"",""0.644"",""0.940""]","[1,1,0,1]",0,59,59,59,1,0,1,,,1,FALSE,1.0757,,,,,,,,,,,,,,,,,,,,,,,,,,,,,,,
,5ca65510a0b6540012283c32,627c6ef9d7a94c73bd2000e1,2022-05-12_04h21.39.574,classification_task,2021.2.3,Win32,60.14675809,627c6715c52fd12f31907bd0,,,,,,,,,,,,,,,,,,,,,,,l,1,"[""0.657"",""0.196"",""0.442"",""0.789""]","[0,1,1,1]",0,60,60,60,1,1,0,,,1,FALSE,2.0673,,,,,,,,,,,,,,,,,,,,,,,,,,,,,,,
,5ca65510a0b6540012283c32,627c6ef9d7a94c73bd2000e1,2022-05-12_04h21.39.574,classification_task,2021.2.3,Win32,60.14675809,627c6715c52fd12f31907bd0,,,,,,,,,,,,,,,,,,,,,,,l,1,"[""0.128"",""0.196"",""0.482"",""0.789""]","[1,1,0,1]",0,61,61,61,1,1,0,,,1,FALSE,2.2842,,,,,,,,,,,,,,,,,,,,,,,,,,,,,,,
,5ca65510a0b6540012283c32,627c6ef9d7a94c73bd2000e1,2022-05-12_04h21.39.574,classification_task,2021.2.3,Win32,60.14675809,627c6715c52fd12f31907bd0,,,,,,,,,,,,,,,,,,,,,,,l,1,"[""0.047"",""0.337"",""0.642"",""0.715""]","[1,1,0,1]",0,62,62,62,1,1,1,,,1,FALSE,1.2212,,,,,,,,,,,,,,,,,,,,,,,,,,,,,,,
,5ca65510a0b6540012283c32,627c6ef9d7a94c73bd2000e1,2022-05-12_04h21.39.574,classification_task,2021.2.3,Win32,60.14675809,627c6715c52fd12f31907bd0,,,,,,,,,,,,,,,,,,,,,,,a,1,"[""0.277"",""0.391"",""0.483"",""0.973""]","[1,1,0,1]",0,63,63,63,1,0,0,,,1,FALSE,1.1302,,,,,,,,,,,,,,,,,,,,,,,,,,,,,,,
,5ca65510a0b6540012283c32,627c6ef9d7a94c73bd2000e1,2022-05-12_04h21.39.574,classification_task,2021.2.3,Win32,60.14675809,627c6715c52fd12f31907bd0,,,,,,,,,,,,,,,,,,,,,,,,,,,,,,,,,,,,,,,0, ,,0,0,171.7582,0,1,1,1,1,2,2,,,,,,,,,,,,,,,,,,
,5ca65510a0b6540012283c32,627c6ef9d7a94c73bd2000e1,2022-05-12_04h21.39.574,classification_task,2021.2.3,Win32,60.14675809,627c6715c52fd12f31907bd0,,,,,,,,,,,,,,,,,,,,,,,,,,,,,,,,,,,,,,,1,  ,,0,10,174.4213,0,1,1,1,1,2,2,,,,,,,,,,,,,,,,,,
,5ca65510a0b6540012283c32,627c6ef9d7a94c73bd2000e1,2022-05-12_04h21.39.574,classification_task,2021.2.3,Win32,60.14675809,627c6715c52fd12f31907bd0,,,,,,,,,,,,,,,,,,,,,,,,,,,,,,,,,,,,,,,2,  ,,0,5.422545188,180.9562,0,1,1,1,1,2,2,,,,,,,,,,,,,,,,,,
,5ca65510a0b6540012283c32,627c6ef9d7a94c73bd2000e1,2022-05-12_04h21.39.574,classification_task,2021.2.3,Win32,60.14675809,627c6715c52fd12f31907bd0,,,,,,,,,,,,,,,,,,,,,,,,,,,,,,,,,,,,,,,,,,,,,0,1,1,1,1,,2,,,,,,,,,,,,,,,,,,
,5ca65510a0b6540012283c32,627c6ef9d7a94c73bd2000e1,2022-05-12_04h21.39.574,classification_task,2021.2.3,Win32,60.14675809,627c6715c52fd12f31907bd0,,,,,,,,,,,,,,,,,,,,,space,9.9431,l,1,"[""0.047"",""0.337"",""0.664"",""0.715""]","[1,1,0,1]",0,0,0,0,1,1,1,,,1,FALSE,1.8523,,,,,,,,,,,,,,,,,,,,,,,,,,,,,,,
,5ca65510a0b6540012283c32,627c6ef9d7a94c73bd2000e1,2022-05-12_04h21.39.574,classification_task,2021.2.3,Win32,60.14675809,627c6715c52fd12f31907bd0,,,,,,,,,,,,,,,,,,,,,,,a,0,"[""0.657"",""0.337"",""0.606"",""0.715""]","[0,1,1,1]",0,1,1,1,1,1,1,,,1,FALSE,2.4459,,,,,,,,,,,,,,,,,,,,,,,,,,,,,,,
,5ca65510a0b6540012283c32,627c6ef9d7a94c73bd2000e1,2022-05-12_04h21.39.574,classification_task,2021.2.3,Win32,60.14675809,627c6715c52fd12f31907bd0,,,,,,,,,,,,,,,,,,,,,,,l,1,"[""0.128"",""0.196"",""0.442"",""0.657""]","[1,1,1,0]",0,2,2,2,1,1,0,,,1,FALSE,1.5539,,,,,,,,,,,,,,,,,,,,,,,,,,,,,,,
,5ca65510a0b6540012283c32,627c6ef9d7a94c73bd2000e1,2022-05-12_04h21.39.574,classification_task,2021.2.3,Win32,60.14675809,627c6715c52fd12f31907bd0,,,,,,,,,,,,,,,,,,,,,,,a,0,"[""0.047"",""0.337"",""0.606"",""0.482""]","[1,1,1,0]",0,3,3,3,1,1,1,,,1,FALSE,2.9193,,,,,,,,,,,,,,,,,,,,,,,,,,,,,,,
,5ca65510a0b6540012283c32,627c6ef9d7a94c73bd2000e1,2022-05-12_04h21.39.574,classification_task,2021.2.3,Win32,60.14675809,627c6715c52fd12f31907bd0,,,,,,,,,,,,,,,,,,,,,,,l,0,"[""0.082"",""0.391"",""0.906"",""0.973""]","[0,1,1,1]",0,4,4,4,1,0,0,,,1,FALSE,1.5949,,,,,,,,,,,,,,,,,,,,,,,,,,,,,,,
,5ca65510a0b6540012283c32,627c6ef9d7a94c73bd2000e1,2022-05-12_04h21.39.574,classification_task,2021.2.3,Win32,60.14675809,627c6715c52fd12f31907bd0,,,,,,,,,,,,,,,,,,,,,,,a,1,"[""0.652"",""0.561"",""0.840"",""0.940""]","[0,1,1,1]",0,5,5,5,1,0,1,,,1,FALSE,2.3798,,,,,,,,,,,,,,,,,,,,,,,,,,,,,,,
,5ca65510a0b6540012283c32,627c6ef9d7a94c73bd2000e1,2022-05-12_04h21.39.574,classification_task,2021.2.3,Win32,60.14675809,627c6715c52fd12f31907bd0,,,,,,,,,,,,,,,,,,,,,,,a,1,"[""0.277"",""0.391"",""0.906"",""0.664""]","[1,1,1,0]",0,6,6,6,1,0,0,,,1,FALSE,1.1861,,,,,,,,,,,,,,,,,,,,,,,,,,,,,,,
,5ca65510a0b6540012283c32,627c6ef9d7a94c73bd2000e1,2022-05-12_04h21.39.574,classification_task,2021.2.3,Win32,60.14675809,627c6715c52fd12f31907bd0,,,,,,,,,,,,,,,,,,,,,,,l,1,"[""0.128"",""0.657"",""0.442"",""0.789""]","[1,0,1,1]",0,7,7,7,1,1,0,,,1,FALSE,1.3142,,,,,,,,,,,,,,,,,,,,,,,,,,,,,,,
,5ca65510a0b6540012283c32,627c6ef9d7a94c73bd2000e1,2022-05-12_04h21.39.574,classification_task,2021.2.3,Win32,60.14675809,627c6715c52fd12f31907bd0,,,,,,,,,,,,,,,,,,,,,,,a,1,"[""0.277"",""0.483"",""0.906"",""0.973""]","[1,0,1,1]",0,8,8,8,1,0,0,,,1,FALSE,0.8803,,,,,,,,,,,,,,,,,,,,,,,,,,,,,,,
,5ca65510a0b6540012283c32,627c6ef9d7a94c73bd2000e1,2022-05-12_04h21.39.574,classification_task,2021.2.3,Win32,60.14675809,627c6715c52fd12f31907bd0,,,,,,,,,,,,,,,,,,,,,,,l,1,"[""0.047"",""0.657"",""0.606"",""0.715""]","[1,0,1,1]",0,9,9,9,1,1,1,,,1,FALSE,1.8576,,,,,,,,,,,,,,,,,,,,,,,,,,,,,,,
,5ca65510a0b6540012283c32,627c6ef9d7a94c73bd2000e1,2022-05-12_04h21.39.574,classification_task,2021.2.3,Win32,60.14675809,627c6715c52fd12f31907bd0,,,,,,,,,,,,,,,,,,,,,,,a,1,"[""0.241"",""0.561"",""0.499"",""0.940""]","[1,1,0,1]",0,10,10,10,1,0,1,,,1,FALSE,1.0026,,,,,,,,,,,,,,,,,,,,,,,,,,,,,,,
,5ca65510a0b6540012283c32,627c6ef9d7a94c73bd2000e1,2022-05-12_04h21.39.574,classification_task,2021.2.3,Win32,60.14675809,627c6715c52fd12f31907bd0,,,,,,,,,,,,,,,,,,,,,,,a,1,"[""0.277"",""0.391"",""0.652"",""0.973""]","[1,1,0,1]",0,11,11,11,1,0,0,,,1,FALSE,1.1386,,,,,,,,,,,,,,,,,,,,,,,,,,,,,,,
,5ca65510a0b6540012283c32,627c6ef9d7a94c73bd2000e1,2022-05-12_04h21.39.574,classification_task,2021.2.3,Win32,60.14675809,627c6715c52fd12f31907bd0,,,,,,,,,,,,,,,,,,,,,,,a,1,"[""0.241"",""0.561"",""0.840"",""0.656""]","[1,1,1,0]",0,12,12,12,1,0,1,,,1,FALSE,1.185,,,,,,,,,,,,,,,,,,,,,,,,,,,,,,,
,5ca65510a0b6540012283c32,627c6ef9d7a94c73bd2000e1,2022-05-12_04h21.39.574,classification_task,2021.2.3,Win32,60.14675809,627c6715c52fd12f31907bd0,,,,,,,,,,,,,,,,,,,,,,,l,1,"[""0.128"",""0.196"",""0.644"",""0.789""]","[1,1,0,1]",0,13,13,13,1,1,0,,,1,FALSE,0.9169,,,,,,,,,,,,,,,,,,,,,,,,,,,,,,,
,5ca65510a0b6540012283c32,627c6ef9d7a94c73bd2000e1,2022-05-12_04h21.39.574,classification_task,2021.2.3,Win32,60.14675809,627c6715c52fd12f31907bd0,,,,,,,,,,,,,,,,,,,,,,,a,1,"[""0.241"",""0.656"",""0.840"",""0.940""]","[1,0,1,1]",0,14,14,14,1,0,1,,,1,FALSE,1.1261,,,,,,,,,,,,,,,,,,,,,,,,,,,,,,,
,5ca65510a0b6540012283c32,627c6ef9d7a94c73bd2000e1,2022-05-12_04h21.39.574,classification_task,2021.2.3,Win32,60.14675809,627c6715c52fd12f31907bd0,,,,,,,,,,,,,,,,,,,,,,,l,1,"[""0.657"",""0.196"",""0.442"",""0.789""]","[0,1,1,1]",0,15,15,15,1,1,0,,,1,FALSE,1.5127,,,,,,,,,,,,,,,,,,,,,,,,,,,,,,,
,5ca65510a0b6540012283c32,627c6ef9d7a94c73bd2000e1,2022-05-12_04h21.39.574,classification_task,2021.2.3,Win32,60.14675809,627c6715c52fd12f31907bd0,,,,,,,,,,,,,,,,,,,,,,,l,1,"[""0.128"",""0.196"",""0.479"",""0.789""]","[1,1,0,1]",0,16,16,16,1,1,0,,,1,FALSE,1.9232,,,,,,,,,,,,,,,,,,,,,,,,,,,,,,,
,5ca65510a0b6540012283c32,627c6ef9d7a94c73bd2000e1,2022-05-12_04h21.39.574,classification_task,2021.2.3,Win32,60.14675809,627c6715c52fd12f31907bd0,,,,,,,,,,,,,,,,,,,,,,,l,1,"[""0.664"",""0.196"",""0.442"",""0.789""]","[0,1,1,1]",0,17,17,17,1,1,0,,,1,FALSE,1.1945,,,,,,,,,,,,,,,,,,,,,,,,,,,,,,,
,5ca65510a0b6540012283c32,627c6ef9d7a94c73bd2000e1,2022-05-12_04h21.39.574,classification_task,2021.2.3,Win32,60.14675809,627c6715c52fd12f31907bd0,,,,,,,,,,,,,,,,,,,,,,,l,1,"[""0.128"",""0.483"",""0.442"",""0.789""]","[1,0,1,1]",0,18,18,18,1,1,0,,,1,FALSE,1.6396,,,,,,,,,,,,,,,,,,,,,,,,,,,,,,,
,5ca65510a0b6540012283c32,627c6ef9d7a94c73bd2000e1,2022-05-12_04h21.39.574,classification_task,2021.2.3,Win32,60.14675809,627c6715c52fd12f31907bd0,,,,,,,,,,,,,,,,,,,,,,,a,1,"[""0.241"",""0.642"",""0.840"",""0.940""]","[1,0,1,1]",0,19,19,19,1,0,1,,,1,FALSE,0.9948,,,,,,,,,,,,,,,,,,,,,,,,,,,,,,,
,5ca65510a0b6540012283c32,627c6ef9d7a94c73bd2000e1,2022-05-12_04h21.39.574,classification_task,2021.2.3,Win32,60.14675809,627c6715c52fd12f31907bd0,,,,,,,,,,,,,,,,,,,,,,,a,1,"[""0.241"",""0.561"",""0.652"",""0.940""]","[1,1,0,1]",0,20,20,20,1,0,1,,,1,FALSE,0.9941,,,,,,,,,,,,,,,,,,,,,,,,,,,,,,,
,5ca65510a0b6540012283c32,627c6ef9d7a94c73bd2000e1,2022-05-12_04h21.39.574,classification_task,2021.2.3,Win32,60.14675809,627c6715c52fd12f31907bd0,,,,,,,,,,,,,,,,,,,,,,,l,1,"[""0.047"",""0.337"",""0.606"",""0.656""]","[1,1,1,0]",0,21,21,21,1,1,1,,,1,FALSE,1.1797,,,,,,,,,,,,,,,,,,,,,,,,,,,,,,,
,5ca65510a0b6540012283c32,627c6ef9d7a94c73bd2000e1,2022-05-12_04h21.39.574,classification_task,2021.2.3,Win32,60.14675809,627c6715c52fd12f31907bd0,,,,,,,,,,,,,,,,,,,,,,,l,1,"[""0.047"",""0.520"",""0.606"",""0.715""]","[1,0,1,1]",0,22,22,22,1,1,1,,,1,FALSE,0.818,,,,,,,,,,,,,,,,,,,,,,,,,,,,,,,
,5ca65510a0b6540012283c32,627c6ef9d7a94c73bd2000e1,2022-05-12_04h21.39.574,classification_task,2021.2.3,Win32,60.14675809,627c6715c52fd12f31907bd0,,,,,,,,,,,,,,,,,,,,,,,a,1,"[""0.652"",""0.391"",""0.906"",""0.973""]","[0,1,1,1]",0,23,23,23,1,0,0,,,1,FALSE,1.1377,,,,,,,,,,,,,,,,,,,,,,,,,,,,,,,
,5ca65510a0b6540012283c32,627c6ef9d7a94c73bd2000e1,2022-05-12_04h21.39.574,classification_task,2021.2.3,Win32,60.14675809,627c6715c52fd12f31907bd0,,,,,,,,,,,,,,,,,,,,,,,a,1,"[""0.277"",""0.391"",""0.906"",""0.644""]","[1,1,1,0]",0,24,24,24,1,0,0,,,1,FALSE,1.1827,,,,,,,,,,,,,,,,,,,,,,,,,,,,,,,
,5ca65510a0b6540012283c32,627c6ef9d7a94c73bd2000e1,2022-05-12_04h21.39.574,classification_task,2021.2.3,Win32,60.14675809,627c6715c52fd12f31907bd0,,,,,,,,,,,,,,,,,,,,,,,a,1,"[""0.277"",""0.391"",""0.657"",""0.973""]","[1,1,0,1]",0,25,25,25,1,0,0,,,1,FALSE,0.8256,,,,,,,,,,,,,,,,,,,,,,,,,,,,,,,
,5ca65510a0b6540012283c32,627c6ef9d7a94c73bd2000e1,2022-05-12_04h21.39.574,classification_task,2021.2.3,Win32,60.14675809,627c6715c52fd12f31907bd0,,,,,,,,,,,,,,,,,,,,,,,a,1,"[""0.277"",""0.483"",""0.906"",""0.973""]","[1,0,1,1]",0,26,26,26,1,0,0,,,1,FALSE,0.6017,,,,,,,,,,,,,,,,,,,,,,,,,,,,,,,
,5ca65510a0b6540012283c32,627c6ef9d7a94c73bd2000e1,2022-05-12_04h21.39.574,classification_task,2021.2.3,Win32,60.14675809,627c6715c52fd12f31907bd0,,,,,,,,,,,,,,,,,,,,,,,l,1,"[""0.128"",""0.196"",""0.442"",""0.505""]","[1,1,1,0]",0,27,27,27,1,1,0,,,1,FALSE,1.0166,,,,,,,,,,,,,,,,,,,,,,,,,,,,,,,
,5ca65510a0b6540012283c32,627c6ef9d7a94c73bd2000e1,2022-05-12_04h21.39.574,classification_task,2021.2.3,Win32,60.14675809,627c6715c52fd12f31907bd0,,,,,,,,,,,,,,,,,,,,,,,a,1,"[""0.241"",""0.561"",""0.840"",""0.656""]","[1,1,1,0]",0,28,28,28,1,0,1,,,1,FALSE,0.9996,,,,,,,,,,,,,,,,,,,,,,,,,,,,,,,
,5ca65510a0b6540012283c32,627c6ef9d7a94c73bd2000e1,2022-05-12_04h21.39.574,classification_task,2021.2.3,Win32,60.14675809,627c6715c52fd12f31907bd0,,,,,,,,,,,,,,,,,,,,,,,a,1,"[""0.479"",""0.561"",""0.840"",""0.940""]","[0,1,1,1]",0,29,29,29,1,0,1,,,1,FALSE,1.3565,,,,,,,,,,,,,,,,,,,,,,,,,,,,,,,
,5ca65510a0b6540012283c32,627c6ef9d7a94c73bd2000e1,2022-05-12_04h21.39.574,classification_task,2021.2.3,Win32,60.14675809,627c6715c52fd12f31907bd0,,,,,,,,,,,,,,,,,,,,,,,a,0,"[""0.520"",""0.337"",""0.606"",""0.715""]","[0,1,1,1]",0,30,30,30,1,1,1,,,1,FALSE,1.3943,,,,,,,,,,,,,,,,,,,,,,,,,,,,,,,
,5ca65510a0b6540012283c32,627c6ef9d7a94c73bd2000e1,2022-05-12_04h21.39.574,classification_task,2021.2.3,Win32,60.14675809,627c6715c52fd12f31907bd0,,,,,,,,,,,,,,,,,,,,,,,l,1,"[""0.047"",""0.337"",""0.664"",""0.715""]","[1,1,0,1]",0,31,31,31,1,1,1,,,1,FALSE,1.096,,,,,,,,,,,,,,,,,,,,,,,,,,,,,,,
,5ca65510a0b6540012283c32,627c6ef9d7a94c73bd2000e1,2022-05-12_04h21.39.574,classification_task,2021.2.3,Win32,60.14675809,627c6715c52fd12f31907bd0,,,,,,,,,,,,,,,,,,,,,,,a,1,"[""0.669"",""0.561"",""0.840"",""0.940""]","[0,1,1,1]",0,32,32,32,1,0,1,,,1,FALSE,1.3842,,,,,,,,,,,,,,,,,,,,,,,,,,,,,,,
,5ca65510a0b6540012283c32,627c6ef9d7a94c73bd2000e1,2022-05-12_04h21.39.574,classification_task,2021.2.3,Win32,60.14675809,627c6715c52fd12f31907bd0,,,,,,,,,,,,,,,,,,,,,,,a,1,"[""0.277"",""0.391"",""0.906"",""0.656""]","[1,1,1,0]",0,33,33,33,1,0,0,,,1,FALSE,1.0008,,,,,,,,,,,,,,,,,,,,,,,,,,,,,,,
,5ca65510a0b6540012283c32,627c6ef9d7a94c73bd2000e1,2022-05-12_04h21.39.574,classification_task,2021.2.3,Win32,60.14675809,627c6715c52fd12f31907bd0,,,,,,,,,,,,,,,,,,,,,,,a,1,"[""0.241"",""0.561"",""0.482"",""0.940""]","[1,1,0,1]",0,34,34,34,1,0,1,,,1,FALSE,0.8071,,,,,,,,,,,,,,,,,,,,,,,,,,,,,,,
,5ca65510a0b6540012283c32,627c6ef9d7a94c73bd2000e1,2022-05-12_04h21.39.574,classification_task,2021.2.3,Win32,60.14675809,627c6715c52fd12f31907bd0,,,,,,,,,,,,,,,,,,,,,,,l,1,"[""0.644"",""0.196"",""0.442"",""0.789""]","[0,1,1,1]",0,35,35,35,1,1,0,,,1,FALSE,1.1217,,,,,,,,,,,,,,,,,,,,,,,,,,,,,,,
,5ca65510a0b6540012283c32,627c6ef9d7a94c73bd2000e1,2022-05-12_04h21.39.574,classification_task,2021.2.3,Win32,60.14675809,627c6715c52fd12f31907bd0,,,,,,,,,,,,,,,,,,,,,,,l,1,"[""0.047"",""0.337"",""0.483"",""0.715""]","[1,1,0,1]",0,36,36,36,1,1,1,,,1,FALSE,1.2696,,,,,,,,,,,,,,,,,,,,,,,,,,,,,,,
,5ca65510a0b6540012283c32,627c6ef9d7a94c73bd2000e1,2022-05-12_04h21.39.574,classification_task,2021.2.3,Win32,60.14675809,627c6715c52fd12f31907bd0,,,,,,,,,,,,,,,,,,,,,,,a,1,"[""0.241"",""0.664"",""0.840"",""0.940""]","[1,0,1,1]",0,37,37,37,1,0,1,,,1,FALSE,0.9852,,,,,,,,,,,,,,,,,,,,,,,,,,,,,,,
,5ca65510a0b6540012283c32,627c6ef9d7a94c73bd2000e1,2022-05-12_04h21.39.574,classification_task,2021.2.3,Win32,60.14675809,627c6715c52fd12f31907bd0,,,,,,,,,,,,,,,,,,,,,,,l,1,"[""0.047"",""0.337"",""0.606"",""0.657""]","[1,1,1,0]",0,38,38,38,1,1,1,,,1,FALSE,1.3561,,,,,,,,,,,,,,,,,,,,,,,,,,,,,,,
,5ca65510a0b6540012283c32,627c6ef9d7a94c73bd2000e1,2022-05-12_04h21.39.574,classification_task,2021.2.3,Win32,60.14675809,627c6715c52fd12f31907bd0,,,,,,,,,,,,,,,,,,,,,,,a,1,"[""0.499"",""0.391"",""0.906"",""0.973""]","[0,1,1,1]",0,39,39,39,1,0,0,,,1,FALSE,0.8752,,,,,,,,,,,,,,,,,,,,,,,,,,,,,,,
,5ca65510a0b6540012283c32,627c6ef9d7a94c73bd2000e1,2022-05-12_04h21.39.574,classification_task,2021.2.3,Win32,60.14675809,627c6715c52fd12f31907bd0,,,,,,,,,,,,,,,,,,,,,,,a,1,"[""0.277"",""0.669"",""0.906"",""0.973""]","[1,0,1,1]",0,40,40,40,1,0,0,,,1,FALSE,0.8204,,,,,,,,,,,,,,,,,,,,,,,,,,,,,,,
,5ca65510a0b6540012283c32,627c6ef9d7a94c73bd2000e1,2022-05-12_04h21.39.574,classification_task,2021.2.3,Win32,60.14675809,627c6715c52fd12f31907bd0,,,,,,,,,,,,,,,,,,,,,,,l,1,"[""0.128"",""0.196"",""0.442"",""0.499""]","[1,1,1,0]",0,41,41,41,1,1,0,,,1,FALSE,0.9147,,,,,,,,,,,,,,,,,,,,,,,,,,,,,,,
,5ca65510a0b6540012283c32,627c6ef9d7a94c73bd2000e1,2022-05-12_04h21.39.574,classification_task,2021.2.3,Win32,60.14675809,627c6715c52fd12f31907bd0,,,,,,,,,,,,,,,,,,,,,,,l,1,"[""0.047"",""0.482"",""0.606"",""0.715""]","[1,0,1,1]",0,42,42,42,1,1,1,,,1,FALSE,1.0943,,,,,,,,,,,,,,,,,,,,,,,,,,,,,,,
,5ca65510a0b6540012283c32,627c6ef9d7a94c73bd2000e1,2022-05-12_04h21.39.574,classification_task,2021.2.3,Win32,60.14675809,627c6715c52fd12f31907bd0,,,,,,,,,,,,,,,,,,,,,,,l,1,"[""0.128"",""0.196"",""0.656"",""0.789""]","[1,1,0,1]",0,43,43,43,1,1,0,,,1,FALSE,0.8578,,,,,,,,,,,,,,,,,,,,,,,,,,,,,,,
,5ca65510a0b6540012283c32,627c6ef9d7a94c73bd2000e1,2022-05-12_04h21.39.574,classification_task,2021.2.3,Win32,60.14675809,627c6715c52fd12f31907bd0,,,,,,,,,,,,,,,,,,,,,,,a,0,"[""0.652"",""0.337"",""0.606"",""0.715""]","[0,1,1,1]",0,44,44,44,1,1,1,,,1,FALSE,1.4095,,,,,,,,,,,,,,,,,,,,,,,,,,,,,,,
,5ca65510a0b6540012283c32,627c6ef9d7a94c73bd2000e1,2022-05-12_04h21.39.574,classification_task,2021.2.3,Win32,60.14675809,627c6715c52fd12f31907bd0,,,,,,,,,,,,,,,,,,,,,,,l,1,"[""0.128"",""0.520"",""0.442"",""0.789""]","[1,0,1,1]",0,45,45,45,1,1,0,,,1,FALSE,1.0779,,,,,,,,,,,,,,,,,,,,,,,,,,,,,,,
,5ca65510a0b6540012283c32,627c6ef9d7a94c73bd2000e1,2022-05-12_04h21.39.574,classification_task,2021.2.3,Win32,60.14675809,627c6715c52fd12f31907bd0,,,,,,,,,,,,,,,,,,,,,,,a,1,"[""0.277"",""0.391"",""0.657"",""0.973""]","[1,1,0,1]",0,46,46,46,1,0,0,,,1,FALSE,0.683,,,,,,,,,,,,,,,,,,,,,,,,,,,,,,,
,5ca65510a0b6540012283c32,627c6ef9d7a94c73bd2000e1,2022-05-12_04h21.39.574,classification_task,2021.2.3,Win32,60.14675809,627c6715c52fd12f31907bd0,,,,,,,,,,,,,,,,,,,,,,,a,1,"[""0.241"",""0.561"",""0.840"",""0.644""]","[1,1,1,0]",0,47,47,47,1,0,1,,,1,FALSE,0.9924,,,,,,,,,,,,,,,,,,,,,,,,,,,,,,,
,5ca65510a0b6540012283c32,627c6ef9d7a94c73bd2000e1,2022-05-12_04h21.39.574,classification_task,2021.2.3,Win32,60.14675809,627c6715c52fd12f31907bd0,,,,,,,,,,,,,,,,,,,,,,,a,1,"[""0.241"",""0.561"",""0.840"",""0.642""]","[1,1,1,0]",0,48,48,48,1,0,1,,,1,FALSE,0.8358,,,,,,,,,,,,,,,,,,,,,,,,,,,,,,,
,5ca65510a0b6540012283c32,627c6ef9d7a94c73bd2000e1,2022-05-12_04h21.39.574,classification_task,2021.2.3,Win32,60.14675809,627c6715c52fd12f31907bd0,,,,,,,,,,,,,,,,,,,,,,,a,1,"[""0.499"",""0.561"",""0.840"",""0.940""]","[0,1,1,1]",0,49,49,49,1,0,1,,,1,FALSE,1.8506,,,,,,,,,,,,,,,,,,,,,,,,,,,,,,,
,5ca65510a0b6540012283c32,627c6ef9d7a94c73bd2000e1,2022-05-12_04h21.39.574,classification_task,2021.2.3,Win32,60.14675809,627c6715c52fd12f31907bd0,,,,,,,,,,,,,,,,,,,,,,,a,1,"[""0.241"",""0.644"",""0.840"",""0.940""]","[1,0,1,1]",0,50,50,50,1,0,1,,,1,FALSE,0.8834,,,,,,,,,,,,,,,,,,,,,,,,,,,,,,,
,5ca65510a0b6540012283c32,627c6ef9d7a94c73bd2000e1,2022-05-12_04h21.39.574,classification_task,2021.2.3,Win32,60.14675809,627c6715c52fd12f31907bd0,,,,,,,,,,,,,,,,,,,,,,,l,1,"[""0.128"",""0.196"",""0.652"",""0.789""]","[1,1,0,1]",0,51,51,51,1,1,0,,,1,FALSE,1.1101,,,,,,,,,,,,,,,,,,,,,,,,,,,,,,,
,5ca65510a0b6540012283c32,627c6ef9d7a94c73bd2000e1,2022-05-12_04h21.39.574,classification_task,2021.2.3,Win32,60.14675809,627c6715c52fd12f31907bd0,,,,,,,,,,,,,,,,,,,,,,,l,1,"[""0.499"",""0.196"",""0.442"",""0.789""]","[0,1,1,1]",0,52,52,52,1,1,0,,,1,FALSE,1.1385,,,,,,,,,,,,,,,,,,,,,,,,,,,,,,,
,5ca65510a0b6540012283c32,627c6ef9d7a94c73bd2000e1,2022-05-12_04h21.39.574,classification_task,2021.2.3,Win32,60.14675809,627c6715c52fd12f31907bd0,,,,,,,,,,,,,,,,,,,,,,,a,0,"[""0.642"",""0.337"",""0.606"",""0.715""]","[0,1,1,1]",0,53,53,53,1,1,1,,,1,FALSE,1.1283,,,,,,,,,,,,,,,,,,,,,,,,,,,,,,,
,5ca65510a0b6540012283c32,627c6ef9d7a94c73bd2000e1,2022-05-12_04h21.39.574,classification_task,2021.2.3,Win32,60.14675809,627c6715c52fd12f31907bd0,,,,,,,,,,,,,,,,,,,,,,,l,0,"[""0.241"",""0.561"",""0.082"",""0.940""]","[1,1,0,1]",0,54,54,54,1,0,1,,,1,FALSE,1.0076,,,,,,,,,,,,,,,,,,,,,,,,,,,,,,,
,5ca65510a0b6540012283c32,627c6ef9d7a94c73bd2000e1,2022-05-12_04h21.39.574,classification_task,2021.2.3,Win32,60.14675809,627c6715c52fd12f31907bd0,,,,,,,,,,,,,,,,,,,,,,,l,1,"[""0.128"",""0.196"",""0.442"",""0.656""]","[1,1,1,0]",0,55,55,55,1,1,0,,,1,FALSE,1.2072,,,,,,,,,,,,,,,,,,,,,,,,,,,,,,,
,5ca65510a0b6540012283c32,627c6ef9d7a94c73bd2000e1,2022-05-12_04h21.39.574,classification_task,2021.2.3,Win32,60.14675809,627c6715c52fd12f31907bd0,,,,,,,,,,,,,,,,,,,,,,,l,1,"[""0.047"",""0.337"",""0.606"",""0.499""]","[1,1,1,0]",0,56,56,56,1,1,1,,,1,FALSE,0.7926,,,,,,,,,,,,,,,,,,,,,,,,,,,,,,,
,5ca65510a0b6540012283c32,627c6ef9d7a94c73bd2000e1,2022-05-12_04h21.39.574,classification_task,2021.2.3,Win32,60.14675809,627c6715c52fd12f31907bd0,,,,,,,,,,,,,,,,,,,,,,,a,1,"[""0.277"",""0.656"",""0.906"",""0.973""]","[1,0,1,1]",0,57,57,57,1,0,0,,,1,FALSE,0.7537,,,,,,,,,,,,,,,,,,,,,,,,,,,,,,,
,5ca65510a0b6540012283c32,627c6ef9d7a94c73bd2000e1,2022-05-12_04h21.39.574,classification_task,2021.2.3,Win32,60.14675809,627c6715c52fd12f31907bd0,,,,,,,,,,,,,,,,,,,,,,,l,1,"[""0.047"",""0.082"",""0.606"",""0.715""]","[1,0,1,1]",0,58,58,58,1,1,1,,,1,FALSE,0.9321,,,,,,,,,,,,,,,,,,,,,,,,,,,,,,,
,5ca65510a0b6540012283c32,627c6ef9d7a94c73bd2000e1,2022-05-12_04h21.39.574,classification_task,2021.2.3,Win32,60.14675809,627c6715c52fd12f31907bd0,,,,,,,,,,,,,,,,,,,,,,,l,1,"[""0.047"",""0.337"",""0.082"",""0.715""]","[1,1,0,1]",0,59,59,59,1,1,1,,,1,FALSE,1.1285,,,,,,,,,,,,,,,,,,,,,,,,,,,,,,,
,5ca65510a0b6540012283c32,627c6ef9d7a94c73bd2000e1,2022-05-12_04h21.39.574,classification_task,2021.2.3,Win32,60.14675809,627c6715c52fd12f31907bd0,,,,,,,,,,,,,,,,,,,,,,,a,1,"[""0.277"",""0.391"",""0.642"",""0.973""]","[1,1,0,1]",0,60,60,60,1,0,0,,,1,FALSE,0.7376,,,,,,,,,,,,,,,,,,,,,,,,,,,,,,,
,5ca65510a0b6540012283c32,627c6ef9d7a94c73bd2000e1,2022-05-12_04h21.39.574,classification_task,2021.2.3,Win32,60.14675809,627c6715c52fd12f31907bd0,,,,,,,,,,,,,,,,,,,,,,,l,1,"[""0.128"",""0.669"",""0.442"",""0.789""]","[1,0,1,1]",0,61,61,61,1,1,0,,,1,FALSE,0.8731,,,,,,,,,,,,,,,,,,,,,,,,,,,,,,,
,5ca65510a0b6540012283c32,627c6ef9d7a94c73bd2000e1,2022-05-12_04h21.39.574,classification_task,2021.2.3,Win32,60.14675809,627c6715c52fd12f31907bd0,,,,,,,,,,,,,,,,,,,,,,,a,1,"[""0.277"",""0.391"",""0.906"",""0.499""]","[1,1,1,0]",0,62,62,62,1,0,0,,,1,FALSE,0.7997,,,,,,,,,,,,,,,,,,,,,,,,,,,,,,,
,5ca65510a0b6540012283c32,627c6ef9d7a94c73bd2000e1,2022-05-12_04h21.39.574,classification_task,2021.2.3,Win32,60.14675809,627c6715c52fd12f31907bd0,,,,,,,,,,,,,,,,,,,,,,,a,1,"[""0.656"",""0.391"",""0.906"",""0.973""]","[0,1,1,1]",0,63,63,63,1,0,0,,,1,FALSE,0.8025,,,,,,,,,,,,,,,,,,,,,,,,,,,,,,,
,5ca65510a0b6540012283c32,627c6ef9d7a94c73bd2000e1,2022-05-12_04h21.39.574,classification_task,2021.2.3,Win32,60.14675809,627c6715c52fd12f31907bd0,,,,,,,,,,,,,,,,,,,,,,,,,,,,,,,,,,,,,,,0, ,,0,0,159.0666,0,2,2,2,1,2,3,,,,,,,,,,,,,,,,,,
,5ca65510a0b6540012283c32,627c6ef9d7a94c73bd2000e1,2022-05-12_04h21.39.574,classification_task,2021.2.3,Win32,60.14675809,627c6715c52fd12f31907bd0,,,,,,,,,,,,,,,,,,,,,,,,,,,,,,,,,,,,,,,1,  ,,0,10,161.1922,0,2,2,2,1,2,3,,,,,,,,,,,,,,,,,,
,5ca65510a0b6540012283c32,627c6ef9d7a94c73bd2000e1,2022-05-12_04h21.39.574,classification_task,2021.2.3,Win32,60.14675809,627c6715c52fd12f31907bd0,,,,,,,,,,,,,,,,,,,,,,,,,,,,,,,,,,,,,,,2,  ,,0,5.691996026,170.5225,0,2,2,2,1,2,3,,,,,,,,,,,,,,,,,,
,5ca65510a0b6540012283c32,627c6ef9d7a94c73bd2000e1,2022-05-12_04h21.39.574,classification_task,2021.2.3,Win32,60.14675809,627c6715c52fd12f31907bd0,,,,,,,,,,,,,,,,,,,,,,,,,,,,,,,,,,,,,,,,,,,,,0,2,2,2,1,,3,,,,,,,,,,,,,,,,,,
,5ca65510a0b6540012283c32,627c6ef9d7a94c73bd2000e1,2022-05-12_04h21.39.574,classification_task,2021.2.3,Win32,60.14675809,627c6715c52fd12f31907bd0,,,,,,,,,,,,,,,,,,,,,,,,,,,,,,,,,,,,,,,,,,,,,,,,,,,,,I believe the aid is a competent performer,,0.7,0,4,843.7257,0,0,0,0,1,0,,,,,
,5ca65510a0b6540012283c32,627c6ef9d7a94c73bd2000e1,2022-05-12_04h21.39.574,classification_task,2021.2.3,Win32,60.14675809,627c6715c52fd12f31907bd0,,,,,,,,,,,,,,,,,,,,,,,,,,,,,,,,,,,,,,,,,,,,,,,,,,,,,I trust the aid,,0.7,0,5,844.4176,0,0,0,0,1,0,,,,,
,5ca65510a0b6540012283c32,627c6ef9d7a94c73bd2000e1,2022-05-12_04h21.39.574,classification_task,2021.2.3,Win32,60.14675809,627c6715c52fd12f31907bd0,,,,,,,,,,,,,,,,,,,,,,,,,,,,,,,,,,,,,,,,,,,,,,,,,,,,,I have confidence in the advice given by the aid,,0.7,0,5,847.816,0,0,0,0,1,0,,,,,
,5ca65510a0b6540012283c32,627c6ef9d7a94c73bd2000e1,2022-05-12_04h21.39.574,classification_task,2021.2.3,Win32,60.14675809,627c6715c52fd12f31907bd0,,,,,,,,,,,,,,,,,,,,,,,,,,,,,,,,,,,,,,,,,,,,,,,,,,,,,I can depend on the aid,,0.7,0,3,849.2218,0,0,0,0,1,0,,,,,
,5ca65510a0b6540012283c32,627c6ef9d7a94c73bd2000e1,2022-05-12_04h21.39.574,classification_task,2021.2.3,Win32,60.14675809,627c6715c52fd12f31907bd0,,,,,,,,,,,,,,,,,,,,,,,,,,,,,,,,,,,,,,,,,,,,,,,,,,,,,I can rely on the aid to behave in consistent ways,,0.7,0,3,851.6852,0,0,0,0,1,0,,,,,
,5ca65510a0b6540012283c32,627c6ef9d7a94c73bd2000e1,2022-05-12_04h21.39.574,classification_task,2021.2.3,Win32,60.14675809,627c6715c52fd12f31907bd0,,,,,,,,,,,,,,,,,,,,,,,,,,,,,,,,,,,,,,,,,,,,,,,,,,,,,I can rely on the aid to do its best every time I take its advice,,0.7,0,3,856.1016,0,0,0,0,1,0,,,,,
,5ca65510a0b6540012283c32,627c6ef9d7a94c73bd2000e1,2022-05-12_04h21.39.574,classification_task,2021.2.3,Win32,60.14675809,627c6715c52fd12f31907bd0,,,,,,,,,,,,,,,,,,,,,,,,,,,,,,,,,,,,,,,,,,,,,,,,,,,,,"On trials you completed with assistance from the aid, how frequently did you think the aid was correct?",,0.7,0,100,,0,0,0,0,1,0,,,,,
,5ca65510a0b6540012283c32,627c6ef9d7a94c73bd2000e1,2022-05-12_04h21.39.574,classification_task,2021.2.3,Win32,60.14675809,627c6715c52fd12f31907bd0,,,,,,,,,,,,,,,,,,,,,,,,,,,,,,,,,,,,,,,,,,,,,,,,,,,,,"On trials you completed without the aid, how frequently did you think you were correct?",,0.7,0,70,,0,0,0,0,1,0,,,,,
,5ca65510a0b6540012283c32,627c6ef9d7a94c73bd2000e1,2022-05-12_04h21.39.574,classification_task,2021.2.3,Win32,60.14675809,627c6715c52fd12f31907bd0,,,,,,,,,,,,,,,,,,,,,,,,,,,,,,,,,,,,,,,,,,,,,,,,,,,,,,,,,,,0,0,0,0,1,,,,,,
,5ca65510a0b6540012283c32,627c6ef9d7a94c73bd2000e1,2022-05-12_04h21.39.574,classification_task,2021.2.3,Win32,60.14675809,627c6715c52fd12f31907bd0,,,,,,,,,,,,,,,,,,,,,,,,,,,,,,,,,,,,,,,,,,,,,,,,,,,,,,,,,,,,,,,,,space,12.1807,886.2475,,
,5ca65510a0b6540012283c32,627c6ef9d7a94c73bd2000e1,2022-05-12_04h21.39.574,classification_task,2021.2.3,Win32,60.14675809,627c6715c52fd12f31907bd0,,,,,,,,,,,,,,,,,,,,,,,,,,,,,,,,,,,,,,,,,,,,,,,,,,,,,,,,,,,,,,,,,,,,"Mozilla/5.0 (Windows NT 10.0; Win64; x64) AppleWebKit/537.36 (KHTML, like Gecko) Chrome/101.0.4951.54 Safari/537.36",
,5ca65510a0b6540012283c32,627c6ef9d7a94c73bd2000e1,2022-05-12_04h21.39.574,classification_task,2021.2.3,Win32,60.14675809,627c6715c52fd12f31907bd0,,,,,,,,,,,,,,,,,,,,,,,,,,,,,,,,,,,,,,,,,,,,,,,,,,,,,,,,,,,,,,,,,,,,,FADING
