usingWebGL,participant,session,date,expName,psychopyVersion,OS,frameRate,PROLIFIC_PID,STUDY_ID,SESSION_ID,signatures_friend,signatures_foe,band_ranges_top,band_ranges_bottom,formitemText,formtype,formundefined,formitemWidth,formindex,formresponse,formrt,key_resp_2.keys,key_resp_2.rt,tute_resp.keys,tute_resp.rt,tutorial.thisRepN,tutorial.thisTrialN,tutorial.thisN,tutorial.thisIndex,tutorial.ran,key_resp_4.keys,key_resp_4.rt,key_resp.keys,key_resp.corr,key_resp.rt,lines_presented,is_signal_presented,trials.thisRepN,trials.thisTrialN,trials.thisN,trials.thisIndex,trials.ran,vessel,active_band,lines,is_signal,supported_pos,catch_trial,debrief_formindex,debrief_formitemText,debrief_formtype,debrief_formitemWidth,debrief_formresponse,debrief_formrt,phases.thisRepN,phases.thisTrialN,phases.thisN,phases.thisIndex,phases.ran,phases.order,phase,key_resp_3.keys,trustitemText,trusttype,trustitemWidth,trustindex,trustresponse,trustrt,support_status.thisRepN,support_status.thisTrialN,support_status.thisN,support_status.thisIndex,support_status.ran,support_status.order,key_resp_5.keys,key_resp_5.rt,globalClockTime,userAgent
TRUE,5cb19d5777375f0016f32030,001,2022-04-28_21h01.42.378,classification_task,2021.2.3,Win32,59.52380952,5cb19d5777375f0016f32030,626b377229c10585ec392f8a,626b38cf1d176f04d56068e7,,,,,,,,,,,,,,,,,,,,,,,,,,,,,,,,,,,,,,,,,,,,,,,,,,,,,,,,,,,,,,,,,,,,
,5cb19d5777375f0016f32030,001,2022-04-28_21h01.42.378,classification_task,2021.2.3,Win32,59.52380952,5cb19d5777375f0016f32030,626b377229c10585ec392f8a,626b38cf1d176f04d56068e7,"[[""0.293"",""0.502"",""0.616"",""0.895""],[""0.244"",""0.411"",""0.844"",""0.942""]]","[[""0.054"",""0.137"",""0.468"",""0.679""],[""0.101"",""0.333"",""0.557"",""0.743""]]","[1,10]","[100,1000]",Video game experience,,,0.7,0,,,,,,,,,,,,,,,,,,,,,,,,,,,,,,,,,,,,,,,,,,,,,,,,,,,,,,,,,,,
,5cb19d5777375f0016f32030,001,2022-04-28_21h01.42.378,classification_task,2021.2.3,Win32,59.52380952,5cb19d5777375f0016f32030,626b377229c10585ec392f8a,626b38cf1d176f04d56068e7,,,,,Approximately how many hours did you spend playing video games in the last week?,,,0.7,0,15,,,,,,,,,,,,,,,,,,,,,,,,,,,,,,,,,,,,,,,,,,,,,,,,,,,,,,,,,,
,5cb19d5777375f0016f32030,001,2022-04-28_21h01.42.378,classification_task,2021.2.3,Win32,59.52380952,5cb19d5777375f0016f32030,626b377229c10585ec392f8a,626b38cf1d176f04d56068e7,,,,,"Which game did you play the most this year? (Enter ""None"" if you didn't play any)",,,0.7,0,The Long Dark,,,,,,,,,,,,,,,,,,,,,,,,,,,,,,,,,,,,,,,,,,,,,,,,,,,,,,,,,,
,5cb19d5777375f0016f32030,001,2022-04-28_21h01.42.378,classification_task,2021.2.3,Win32,59.52380952,5cb19d5777375f0016f32030,626b377229c10585ec392f8a,626b38cf1d176f04d56068e7,,,,,Visual perception,,,0.7,0,,,,,,,,,,,,,,,,,,,,,,,,,,,,,,,,,,,,,,,,,,,,,,,,,,,,,,,,,,,
,5cb19d5777375f0016f32030,001,2022-04-28_21h01.42.378,classification_task,2021.2.3,Win32,59.52380952,5cb19d5777375f0016f32030,626b377229c10585ec392f8a,626b38cf1d176f04d56068e7,,,,,Do you have any form of color blindness?,,,0.7,0,No,83.9862,,,,,,,,,,,,,,,,,,,,,,,,,,,,,,,,,,,,,,,,,,,,,,,,,,,,,,,,,
,5cb19d5777375f0016f32030,001,2022-04-28_21h01.42.378,classification_task,2021.2.3,Win32,59.52380952,5cb19d5777375f0016f32030,626b377229c10585ec392f8a,626b38cf1d176f04d56068e7,,,,,Do you use software to change the colour temperature of your screen (e.g. f.lux)?,,,0.7,0,No,86.2051,,,,,,,,,,,,,,,,,,,,,,,,,,,,,,,,,,,,,,,,,,,,,,,,,,,,,,,,,
,5cb19d5777375f0016f32030,001,2022-04-28_21h01.42.378,classification_task,2021.2.3,Win32,59.52380952,5cb19d5777375f0016f32030,626b377229c10585ec392f8a,626b38cf1d176f04d56068e7,,,,,,,,,,,,space,137.9598,space,10.0894,0,0,0,0,1,,,,,,,,,,,,,,,,,,,,,,,,,,,,,,,,,,,,,,,,,,,,,,,,
,5cb19d5777375f0016f32030,001,2022-04-28_21h01.42.378,classification_task,2021.2.3,Win32,59.52380952,5cb19d5777375f0016f32030,626b377229c10585ec392f8a,626b38cf1d176f04d56068e7,,,,,,,,,,,,,,space,14.65,1,0,1,0,1,,,,,,,,,,,,,,,,,,,,,,,,,,,,,,,,,,,,,,,,,,,,,,,,
,5cb19d5777375f0016f32030,001,2022-04-28_21h01.42.378,classification_task,2021.2.3,Win32,59.52380952,5cb19d5777375f0016f32030,626b377229c10585ec392f8a,626b38cf1d176f04d56068e7,,,,,,,,,,,,,,space,9.1175,2,0,2,0,1,,,,,,,,,,,,,,,,,,,,,,,,,,,,,,,,,,,,,,,,,,,,,,,,
,5cb19d5777375f0016f32030,001,2022-04-28_21h01.42.378,classification_task,2021.2.3,Win32,59.52380952,5cb19d5777375f0016f32030,626b377229c10585ec392f8a,626b38cf1d176f04d56068e7,,,,,,,,,,,,,,space,18.7529,3,0,3,0,1,,,,,,,,,,,,,,,,,,,,,,,,,,,,,,,,,,,,,,,,,,,,,,,,
,5cb19d5777375f0016f32030,001,2022-04-28_21h01.42.378,classification_task,2021.2.3,Win32,59.52380952,5cb19d5777375f0016f32030,626b377229c10585ec392f8a,626b38cf1d176f04d56068e7,,,,,,,,,,,,,,space,5.3285,4,0,4,0,1,,,,,,,,,,,,,,,,,,,,,,,,,,,,,,,,,,,,,,,,,,,,,,,,
,5cb19d5777375f0016f32030,001,2022-04-28_21h01.42.378,classification_task,2021.2.3,Win32,59.52380952,5cb19d5777375f0016f32030,626b377229c10585ec392f8a,626b38cf1d176f04d56068e7,,,,,,,,,,,,,,,,,,,,,space,4.6769,l,1,4.0509,"[""0.054"",""0.137"",""0.468"",""0.801""]","[1,1,1,0]",0,0,0,0,1,1,0,,,0,FALSE,,,,,,,,,,,,,,,,,,,,,,,,,,,,,,
,5cb19d5777375f0016f32030,001,2022-04-28_21h01.42.378,classification_task,2021.2.3,Win32,59.52380952,5cb19d5777375f0016f32030,626b377229c10585ec392f8a,626b38cf1d176f04d56068e7,,,,,,,,,,,,,,,,,,,,,,,l,1,8.9829,"[""0.101"",""0.193"",""0.557"",""0.743""]","[1,0,1,1]",0,1,1,1,1,1,1,,,0,FALSE,,,,,,,,,,,,,,,,,,,,,,,,,,,,,,
,5cb19d5777375f0016f32030,001,2022-04-28_21h01.42.378,classification_task,2021.2.3,Win32,59.52380952,5cb19d5777375f0016f32030,626b377229c10585ec392f8a,626b38cf1d176f04d56068e7,,,,,,,,,,,,,,,,,,,,,,,l,1,4.3015,"[""0.101"",""0.333"",""0.185"",""0.743""]","[1,1,0,1]",0,2,2,2,1,1,1,,,0,FALSE,,,,,,,,,,,,,,,,,,,,,,,,,,,,,,
,5cb19d5777375f0016f32030,001,2022-04-28_21h01.42.378,classification_task,2021.2.3,Win32,59.52380952,5cb19d5777375f0016f32030,626b377229c10585ec392f8a,626b38cf1d176f04d56068e7,,,,,,,,,,,,,,,,,,,,,,,l,0,8.3611,"[""0.207"",""0.502"",""0.616"",""0.895""]","[0,1,1,1]",0,3,3,3,1,0,0,,,0,FALSE,,,,,,,,,,,,,,,,,,,,,,,,,,,,,,
,5cb19d5777375f0016f32030,001,2022-04-28_21h01.42.378,classification_task,2021.2.3,Win32,59.52380952,5cb19d5777375f0016f32030,626b377229c10585ec392f8a,626b38cf1d176f04d56068e7,,,,,,,,,,,,,,,,,,,,,,,a,1,7.9343,"[""0.293"",""0.502"",""0.207"",""0.895""]","[1,1,0,1]",0,4,4,4,1,0,0,,,0,FALSE,,,,,,,,,,,,,,,,,,,,,,,,,,,,,,
,5cb19d5777375f0016f32030,001,2022-04-28_21h01.42.378,classification_task,2021.2.3,Win32,59.52380952,5cb19d5777375f0016f32030,626b377229c10585ec392f8a,626b38cf1d176f04d56068e7,,,,,,,,,,,,,,,,,,,,,,,a,1,7.3604,"[""0.207"",""0.411"",""0.844"",""0.942""]","[0,1,1,1]",0,5,5,5,1,0,1,,,0,FALSE,,,,,,,,,,,,,,,,,,,,,,,,,,,,,,
,5cb19d5777375f0016f32030,001,2022-04-28_21h01.42.378,classification_task,2021.2.3,Win32,59.52380952,5cb19d5777375f0016f32030,626b377229c10585ec392f8a,626b38cf1d176f04d56068e7,,,,,,,,,,,,,,,,,,,,,,,l,1,6.7173,"[""0.054"",""0.796"",""0.468"",""0.679""]","[1,0,1,1]",0,6,6,6,1,1,0,,,0,FALSE,,,,,,,,,,,,,,,,,,,,,,,,,,,,,,
,5cb19d5777375f0016f32030,001,2022-04-28_21h01.42.378,classification_task,2021.2.3,Win32,59.52380952,5cb19d5777375f0016f32030,626b377229c10585ec392f8a,626b38cf1d176f04d56068e7,,,,,,,,,,,,,,,,,,,,,,,l,0,6.5187,"[""0.244"",""0.411"",""0.844"",""0.185""]","[1,1,1,0]",0,7,7,7,1,0,1,,,0,FALSE,,,,,,,,,,,,,,,,,,,,,,,,,,,,,,
,5cb19d5777375f0016f32030,001,2022-04-28_21h01.42.378,classification_task,2021.2.3,Win32,59.52380952,5cb19d5777375f0016f32030,626b377229c10585ec392f8a,626b38cf1d176f04d56068e7,,,,,,,,,,,,,,,,,,,,,,,l,1,6.3676,"[""0.054"",""0.137"",""0.801"",""0.679""]","[1,1,0,1]",0,8,8,8,1,1,0,,,0,FALSE,,,,,,,,,,,,,,,,,,,,,,,,,,,,,,
,5cb19d5777375f0016f32030,001,2022-04-28_21h01.42.378,classification_task,2021.2.3,Win32,59.52380952,5cb19d5777375f0016f32030,626b377229c10585ec392f8a,626b38cf1d176f04d56068e7,,,,,,,,,,,,,,,,,,,,,,,a,1,4.8849,"[""0.293"",""0.502"",""0.616"",""0.802""]","[1,1,1,0]",0,9,9,9,1,0,0,,,0,FALSE,,,,,,,,,,,,,,,,,,,,,,,,,,,,,,
,5cb19d5777375f0016f32030,001,2022-04-28_21h01.42.378,classification_task,2021.2.3,Win32,59.52380952,5cb19d5777375f0016f32030,626b377229c10585ec392f8a,626b38cf1d176f04d56068e7,,,,,,,,,,,,,,,,,,,,,,,a,1,6.6842,"[""0.293"",""0.197"",""0.616"",""0.895""]","[1,0,1,1]",0,10,10,10,1,0,0,,,0,FALSE,,,,,,,,,,,,,,,,,,,,,,,,,,,,,,
,5cb19d5777375f0016f32030,001,2022-04-28_21h01.42.378,classification_task,2021.2.3,Win32,59.52380952,5cb19d5777375f0016f32030,626b377229c10585ec392f8a,626b38cf1d176f04d56068e7,,,,,,,,,,,,,,,,,,,,,,,l,0,3.5514,"[""0.244"",""0.207"",""0.844"",""0.942""]","[1,0,1,1]",0,11,11,11,1,0,1,,,0,FALSE,,,,,,,,,,,,,,,,,,,,,,,,,,,,,,
,5cb19d5777375f0016f32030,001,2022-04-28_21h01.42.378,classification_task,2021.2.3,Win32,59.52380952,5cb19d5777375f0016f32030,626b377229c10585ec392f8a,626b38cf1d176f04d56068e7,,,,,,,,,,,,,,,,,,,,,,,l,1,8.7339,"[""0.778"",""0.137"",""0.468"",""0.679""]","[0,1,1,1]",0,12,12,12,1,1,0,,,0,FALSE,,,,,,,,,,,,,,,,,,,,,,,,,,,,,,
,5cb19d5777375f0016f32030,001,2022-04-28_21h01.42.378,classification_task,2021.2.3,Win32,59.52380952,5cb19d5777375f0016f32030,626b377229c10585ec392f8a,626b38cf1d176f04d56068e7,,,,,,,,,,,,,,,,,,,,,,,a,1,7.2735,"[""0.244"",""0.411"",""0.193"",""0.942""]","[1,1,0,1]",0,13,13,13,1,0,1,,,0,FALSE,,,,,,,,,,,,,,,,,,,,,,,,,,,,,,
,5cb19d5777375f0016f32030,001,2022-04-28_21h01.42.378,classification_task,2021.2.3,Win32,59.52380952,5cb19d5777375f0016f32030,626b377229c10585ec392f8a,626b38cf1d176f04d56068e7,,,,,,,,,,,,,,,,,,,,,,,l,1,5.4842,"[""0.801"",""0.333"",""0.557"",""0.743""]","[0,1,1,1]",0,14,14,14,1,1,1,,,0,FALSE,,,,,,,,,,,,,,,,,,,,,,,,,,,,,,
,5cb19d5777375f0016f32030,001,2022-04-28_21h01.42.378,classification_task,2021.2.3,Win32,59.52380952,5cb19d5777375f0016f32030,626b377229c10585ec392f8a,626b38cf1d176f04d56068e7,,,,,,,,,,,,,,,,,,,,,,,l,1,3.5196,"[""0.101"",""0.333"",""0.557"",""0.778""]","[1,1,1,0]",0,15,15,15,1,1,1,,,0,FALSE,,,,,,,,,,,,,,,,,,,,,,,,,,,,,,
,5cb19d5777375f0016f32030,001,2022-04-28_21h01.42.378,classification_task,2021.2.3,Win32,59.52380952,5cb19d5777375f0016f32030,626b377229c10585ec392f8a,626b38cf1d176f04d56068e7,,,,,,,,,,,,,,,,,,,,,,,l,0,4.5347,"[""0.293"",""0.502"",""0.616"",""0.185""]","[1,1,1,0]",0,16,16,16,1,0,0,,,0,FALSE,,,,,,,,,,,,,,,,,,,,,,,,,,,,,,
,5cb19d5777375f0016f32030,001,2022-04-28_21h01.42.378,classification_task,2021.2.3,Win32,59.52380952,5cb19d5777375f0016f32030,626b377229c10585ec392f8a,626b38cf1d176f04d56068e7,,,,,,,,,,,,,,,,,,,,,,,a,1,4.3717,"[""0.293"",""0.502"",""0.801"",""0.895""]","[1,1,0,1]",0,17,17,17,1,0,0,,,0,FALSE,,,,,,,,,,,,,,,,,,,,,,,,,,,,,,
,5cb19d5777375f0016f32030,001,2022-04-28_21h01.42.378,classification_task,2021.2.3,Win32,59.52380952,5cb19d5777375f0016f32030,626b377229c10585ec392f8a,626b38cf1d176f04d56068e7,,,,,,,,,,,,,,,,,,,,,,,l,1,4.2845,"[""0.101"",""0.333"",""0.782"",""0.743""]","[1,1,0,1]",0,18,18,18,1,1,1,,,0,FALSE,,,,,,,,,,,,,,,,,,,,,,,,,,,,,,
,5cb19d5777375f0016f32030,001,2022-04-28_21h01.42.378,classification_task,2021.2.3,Win32,59.52380952,5cb19d5777375f0016f32030,626b377229c10585ec392f8a,626b38cf1d176f04d56068e7,,,,,,,,,,,,,,,,,,,,,,,l,1,5.0508,"[""0.054"",""0.782"",""0.468"",""0.679""]","[1,0,1,1]",0,19,19,19,1,1,0,,,0,FALSE,,,,,,,,,,,,,,,,,,,,,,,,,,,,,,
,5cb19d5777375f0016f32030,001,2022-04-28_21h01.42.378,classification_task,2021.2.3,Win32,59.52380952,5cb19d5777375f0016f32030,626b377229c10585ec392f8a,626b38cf1d176f04d56068e7,,,,,,,,,,,,,,,,,,,,,,,l,0,9.0183,"[""0.244"",""0.778"",""0.844"",""0.942""]","[1,0,1,1]",0,20,20,20,1,0,1,,,0,FALSE,,,,,,,,,,,,,,,,,,,,,,,,,,,,,,
,5cb19d5777375f0016f32030,001,2022-04-28_21h01.42.378,classification_task,2021.2.3,Win32,59.52380952,5cb19d5777375f0016f32030,626b377229c10585ec392f8a,626b38cf1d176f04d56068e7,,,,,,,,,,,,,,,,,,,,,,,a,1,8.7175,"[""0.244"",""0.411"",""0.844"",""0.806""]","[1,1,1,0]",0,21,21,21,1,0,1,,,0,FALSE,,,,,,,,,,,,,,,,,,,,,,,,,,,,,,
,5cb19d5777375f0016f32030,001,2022-04-28_21h01.42.378,classification_task,2021.2.3,Win32,59.52380952,5cb19d5777375f0016f32030,626b377229c10585ec392f8a,626b38cf1d176f04d56068e7,,,,,,,,,,,,,,,,,,,,,,,l,1,4.5829,"[""0.101"",""0.794"",""0.557"",""0.743""]","[1,0,1,1]",0,22,22,22,1,1,1,,,0,FALSE,,,,,,,,,,,,,,,,,,,,,,,,,,,,,,
,5cb19d5777375f0016f32030,001,2022-04-28_21h01.42.378,classification_task,2021.2.3,Win32,59.52380952,5cb19d5777375f0016f32030,626b377229c10585ec392f8a,626b38cf1d176f04d56068e7,,,,,,,,,,,,,,,,,,,,,,,l,1,2.6686,"[""0.054"",""0.137"",""0.202"",""0.679""]","[1,1,0,1]",0,23,23,23,1,1,0,,,0,FALSE,,,,,,,,,,,,,,,,,,,,,,,,,,,,,,
,5cb19d5777375f0016f32030,001,2022-04-28_21h01.42.378,classification_task,2021.2.3,Win32,59.52380952,5cb19d5777375f0016f32030,626b377229c10585ec392f8a,626b38cf1d176f04d56068e7,,,,,,,,,,,,,,,,,,,,,,,l,1,3.968,"[""0.101"",""0.333"",""0.557"",""0.202""]","[1,1,1,0]",0,24,24,24,1,1,1,,,0,FALSE,,,,,,,,,,,,,,,,,,,,,,,,,,,,,,
,5cb19d5777375f0016f32030,001,2022-04-28_21h01.42.378,classification_task,2021.2.3,Win32,59.52380952,5cb19d5777375f0016f32030,626b377229c10585ec392f8a,626b38cf1d176f04d56068e7,,,,,,,,,,,,,,,,,,,,,,,a,1,3.1892,"[""0.244"",""0.411"",""0.806"",""0.942""]","[1,1,0,1]",0,25,25,25,1,0,1,,,0,FALSE,,,,,,,,,,,,,,,,,,,,,,,,,,,,,,
,5cb19d5777375f0016f32030,001,2022-04-28_21h01.42.378,classification_task,2021.2.3,Win32,59.52380952,5cb19d5777375f0016f32030,626b377229c10585ec392f8a,626b38cf1d176f04d56068e7,,,,,,,,,,,,,,,,,,,,,,,a,1,6.5855,"[""0.810"",""0.502"",""0.616"",""0.895""]","[0,1,1,1]",0,26,26,26,1,0,0,,,0,FALSE,,,,,,,,,,,,,,,,,,,,,,,,,,,,,,
,5cb19d5777375f0016f32030,001,2022-04-28_21h01.42.378,classification_task,2021.2.3,Win32,59.52380952,5cb19d5777375f0016f32030,626b377229c10585ec392f8a,626b38cf1d176f04d56068e7,,,,,,,,,,,,,,,,,,,,,,,l,1,5.0177,"[""0.197"",""0.137"",""0.468"",""0.679""]","[0,1,1,1]",0,27,27,27,1,1,0,,,0,FALSE,,,,,,,,,,,,,,,,,,,,,,,,,,,,,,
,5cb19d5777375f0016f32030,001,2022-04-28_21h01.42.378,classification_task,2021.2.3,Win32,59.52380952,5cb19d5777375f0016f32030,626b377229c10585ec392f8a,626b38cf1d176f04d56068e7,,,,,,,,,,,,,,,,,,,,,,,l,1,8.8523,"[""0.810"",""0.333"",""0.557"",""0.743""]","[0,1,1,1]",0,28,28,28,1,1,1,,,0,FALSE,,,,,,,,,,,,,,,,,,,,,,,,,,,,,,
,5cb19d5777375f0016f32030,001,2022-04-28_21h01.42.378,classification_task,2021.2.3,Win32,59.52380952,5cb19d5777375f0016f32030,626b377229c10585ec392f8a,626b38cf1d176f04d56068e7,,,,,,,,,,,,,,,,,,,,,,,a,1,7.0496,"[""0.293"",""0.193"",""0.616"",""0.895""]","[1,0,1,1]",0,29,29,29,1,0,0,,,0,FALSE,,,,,,,,,,,,,,,,,,,,,,,,,,,,,,
,5cb19d5777375f0016f32030,001,2022-04-28_21h01.42.378,classification_task,2021.2.3,Win32,59.52380952,5cb19d5777375f0016f32030,626b377229c10585ec392f8a,626b38cf1d176f04d56068e7,,,,,,,,,,,,,,,,,,,,,,,l,1,4.4106,"[""0.054"",""0.137"",""0.468"",""0.207""]","[1,1,1,0]",0,30,30,30,1,1,0,,,0,FALSE,,,,,,,,,,,,,,,,,,,,,,,,,,,,,,
,5cb19d5777375f0016f32030,001,2022-04-28_21h01.42.378,classification_task,2021.2.3,Win32,59.52380952,5cb19d5777375f0016f32030,626b377229c10585ec392f8a,626b38cf1d176f04d56068e7,,,,,,,,,,,,,,,,,,,,,,,a,1,6.3085,"[""0.794"",""0.411"",""0.844"",""0.942""]","[0,1,1,1]",0,31,31,31,1,0,1,,,0,FALSE,,,,,,,,,,,,,,,,,,,,,,,,,,,,,,
,5cb19d5777375f0016f32030,001,2022-04-28_21h01.42.378,classification_task,2021.2.3,Win32,59.52380952,5cb19d5777375f0016f32030,626b377229c10585ec392f8a,626b38cf1d176f04d56068e7,,,,,,,,,,,,,,,,,,,,,,,l,0,8.7297,"[""0.293"",""0.502"",""0.616"",""0.802""]","[1,1,1,0]",0,32,32,32,1,0,0,,,0,FALSE,,,,,,,,,,,,,,,,,,,,,,,,,,,,,,
,5cb19d5777375f0016f32030,001,2022-04-28_21h01.42.378,classification_task,2021.2.3,Win32,59.52380952,5cb19d5777375f0016f32030,626b377229c10585ec392f8a,626b38cf1d176f04d56068e7,,,,,,,,,,,,,,,,,,,,,,,a,1,5.4403,"[""0.794"",""0.411"",""0.844"",""0.942""]","[0,1,1,1]",0,33,33,33,1,0,1,,,0,FALSE,,,,,,,,,,,,,,,,,,,,,,,,,,,,,,
,5cb19d5777375f0016f32030,001,2022-04-28_21h01.42.378,classification_task,2021.2.3,Win32,59.52380952,5cb19d5777375f0016f32030,626b377229c10585ec392f8a,626b38cf1d176f04d56068e7,,,,,,,,,,,,,,,,,,,,,,,l,0,4.4155,"[""0.244"",""0.802"",""0.844"",""0.942""]","[1,0,1,1]",0,34,34,34,1,0,1,,,0,FALSE,,,,,,,,,,,,,,,,,,,,,,,,,,,,,,
,5cb19d5777375f0016f32030,001,2022-04-28_21h01.42.378,classification_task,2021.2.3,Win32,59.52380952,5cb19d5777375f0016f32030,626b377229c10585ec392f8a,626b38cf1d176f04d56068e7,,,,,,,,,,,,,,,,,,,,,,,l,1,1.561,"[""0.054"",""0.137"",""0.468"",""0.202""]","[1,1,1,0]",0,35,35,35,1,1,0,,,0,FALSE,,,,,,,,,,,,,,,,,,,,,,,,,,,,,,
,5cb19d5777375f0016f32030,001,2022-04-28_21h01.42.378,classification_task,2021.2.3,Win32,59.52380952,5cb19d5777375f0016f32030,626b377229c10585ec392f8a,626b38cf1d176f04d56068e7,,,,,,,,,,,,,,,,,,,,,,,a,0,1.408,"[""0.101"",""0.333"",""0.557"",""0.782""]","[1,1,1,0]",0,36,36,36,1,1,1,,,0,FALSE,,,,,,,,,,,,,,,,,,,,,,,,,,,,,,
,5cb19d5777375f0016f32030,001,2022-04-28_21h01.42.378,classification_task,2021.2.3,Win32,59.52380952,5cb19d5777375f0016f32030,626b377229c10585ec392f8a,626b38cf1d176f04d56068e7,,,,,,,,,,,,,,,,,,,,,,,a,1,1.4145,"[""0.293"",""0.197"",""0.616"",""0.895""]","[1,0,1,1]",0,37,37,37,1,0,0,,,0,FALSE,,,,,,,,,,,,,,,,,,,,,,,,,,,,,,
,5cb19d5777375f0016f32030,001,2022-04-28_21h01.42.378,classification_task,2021.2.3,Win32,59.52380952,5cb19d5777375f0016f32030,626b377229c10585ec392f8a,626b38cf1d176f04d56068e7,,,,,,,,,,,,,,,,,,,,,,,a,0,1.4722,"[""0.101"",""0.333"",""0.185"",""0.743""]","[1,1,0,1]",0,38,38,38,1,1,1,,,0,FALSE,,,,,,,,,,,,,,,,,,,,,,,,,,,,,,
,5cb19d5777375f0016f32030,001,2022-04-28_21h01.42.378,classification_task,2021.2.3,Win32,59.52380952,5cb19d5777375f0016f32030,626b377229c10585ec392f8a,626b38cf1d176f04d56068e7,,,,,,,,,,,,,,,,,,,,,,,a,1,1.6039,"[""0.197"",""0.502"",""0.616"",""0.895""]","[0,1,1,1]",0,39,39,39,1,0,0,,,0,FALSE,,,,,,,,,,,,,,,,,,,,,,,,,,,,,,
,5cb19d5777375f0016f32030,001,2022-04-28_21h01.42.378,classification_task,2021.2.3,Win32,59.52380952,5cb19d5777375f0016f32030,626b377229c10585ec392f8a,626b38cf1d176f04d56068e7,,,,,,,,,,,,,,,,,,,,,,,l,0,1.1252,"[""0.293"",""0.502"",""0.794"",""0.895""]","[1,1,0,1]",0,40,40,40,1,0,0,,,0,FALSE,,,,,,,,,,,,,,,,,,,,,,,,,,,,,,
,5cb19d5777375f0016f32030,001,2022-04-28_21h01.42.378,classification_task,2021.2.3,Win32,59.52380952,5cb19d5777375f0016f32030,626b377229c10585ec392f8a,626b38cf1d176f04d56068e7,,,,,,,,,,,,,,,,,,,,,,,l,1,0.8815,"[""0.054"",""0.137"",""0.810"",""0.679""]","[1,1,0,1]",0,41,41,41,1,1,0,,,0,FALSE,,,,,,,,,,,,,,,,,,,,,,,,,,,,,,
,5cb19d5777375f0016f32030,001,2022-04-28_21h01.42.378,classification_task,2021.2.3,Win32,59.52380952,5cb19d5777375f0016f32030,626b377229c10585ec392f8a,626b38cf1d176f04d56068e7,,,,,,,,,,,,,,,,,,,,,,,l,1,1.1865,"[""0.054"",""0.794"",""0.468"",""0.679""]","[1,0,1,1]",0,42,42,42,1,1,0,,,0,FALSE,,,,,,,,,,,,,,,,,,,,,,,,,,,,,,
,5cb19d5777375f0016f32030,001,2022-04-28_21h01.42.378,classification_task,2021.2.3,Win32,59.52380952,5cb19d5777375f0016f32030,626b377229c10585ec392f8a,626b38cf1d176f04d56068e7,,,,,,,,,,,,,,,,,,,,,,,l,1,1.4206,"[""0.101"",""0.796"",""0.557"",""0.743""]","[1,0,1,1]",0,43,43,43,1,1,1,,,0,FALSE,,,,,,,,,,,,,,,,,,,,,,,,,,,,,,
,5cb19d5777375f0016f32030,001,2022-04-28_21h01.42.378,classification_task,2021.2.3,Win32,59.52380952,5cb19d5777375f0016f32030,626b377229c10585ec392f8a,626b38cf1d176f04d56068e7,,,,,,,,,,,,,,,,,,,,,,,l,0,3.0982,"[""0.244"",""0.411"",""0.202"",""0.942""]","[1,1,0,1]",0,44,44,44,1,0,1,,,0,FALSE,,,,,,,,,,,,,,,,,,,,,,,,,,,,,,
,5cb19d5777375f0016f32030,001,2022-04-28_21h01.42.378,classification_task,2021.2.3,Win32,59.52380952,5cb19d5777375f0016f32030,626b377229c10585ec392f8a,626b38cf1d176f04d56068e7,,,,,,,,,,,,,,,,,,,,,,,a,0,0.9573,"[""0.197"",""0.333"",""0.557"",""0.743""]","[0,1,1,1]",0,45,45,45,1,1,1,,,0,FALSE,,,,,,,,,,,,,,,,,,,,,,,,,,,,,,
,5cb19d5777375f0016f32030,001,2022-04-28_21h01.42.378,classification_task,2021.2.3,Win32,59.52380952,5cb19d5777375f0016f32030,626b377229c10585ec392f8a,626b38cf1d176f04d56068e7,,,,,,,,,,,,,,,,,,,,,,,a,0,0.7871,"[""0.794"",""0.137"",""0.468"",""0.679""]","[0,1,1,1]",0,46,46,46,1,1,0,,,0,FALSE,,,,,,,,,,,,,,,,,,,,,,,,,,,,,,
,5cb19d5777375f0016f32030,001,2022-04-28_21h01.42.378,classification_task,2021.2.3,Win32,59.52380952,5cb19d5777375f0016f32030,626b377229c10585ec392f8a,626b38cf1d176f04d56068e7,,,,,,,,,,,,,,,,,,,,,,,a,1,0.7744,"[""0.244"",""0.411"",""0.844"",""0.778""]","[1,1,1,0]",0,47,47,47,1,0,1,,,0,FALSE,,,,,,,,,,,,,,,,,,,,,,,,,,,,,,
,5cb19d5777375f0016f32030,001,2022-04-28_21h01.42.378,classification_task,2021.2.3,Win32,59.52380952,5cb19d5777375f0016f32030,626b377229c10585ec392f8a,626b38cf1d176f04d56068e7,,,,,,,,,,,,,,,,,,,,,,,a,1,0.7278,"[""0.244"",""0.411"",""0.844"",""0.794""]","[1,1,1,0]",0,48,48,48,1,0,1,,,0,FALSE,,,,,,,,,,,,,,,,,,,,,,,,,,,,,,
,5cb19d5777375f0016f32030,001,2022-04-28_21h01.42.378,classification_task,2021.2.3,Win32,59.52380952,5cb19d5777375f0016f32030,626b377229c10585ec392f8a,626b38cf1d176f04d56068e7,,,,,,,,,,,,,,,,,,,,,,,l,0,2.2052,"[""0.244"",""0.411"",""0.778"",""0.942""]","[1,1,0,1]",0,49,49,49,1,0,1,,,0,FALSE,,,,,,,,,,,,,,,,,,,,,,,,,,,,,,
,5cb19d5777375f0016f32030,001,2022-04-28_21h01.42.378,classification_task,2021.2.3,Win32,59.52380952,5cb19d5777375f0016f32030,626b377229c10585ec392f8a,626b38cf1d176f04d56068e7,,,,,,,,,,,,,,,,,,,,,,,a,1,1.1809,"[""0.293"",""0.502"",""0.185"",""0.895""]","[1,1,0,1]",0,50,50,50,1,0,0,,,0,FALSE,,,,,,,,,,,,,,,,,,,,,,,,,,,,,,
,5cb19d5777375f0016f32030,001,2022-04-28_21h01.42.378,classification_task,2021.2.3,Win32,59.52380952,5cb19d5777375f0016f32030,626b377229c10585ec392f8a,626b38cf1d176f04d56068e7,,,,,,,,,,,,,,,,,,,,,,,a,0,0.8314,"[""0.101"",""0.333"",""0.557"",""0.806""]","[1,1,1,0]",0,51,51,51,1,1,1,,,0,FALSE,,,,,,,,,,,,,,,,,,,,,,,,,,,,,,
,5cb19d5777375f0016f32030,001,2022-04-28_21h01.42.378,classification_task,2021.2.3,Win32,59.52380952,5cb19d5777375f0016f32030,626b377229c10585ec392f8a,626b38cf1d176f04d56068e7,,,,,,,,,,,,,,,,,,,,,,,a,0,1.0439,"[""0.202"",""0.333"",""0.557"",""0.743""]","[0,1,1,1]",0,52,52,52,1,1,1,,,0,FALSE,,,,,,,,,,,,,,,,,,,,,,,,,,,,,,
,5cb19d5777375f0016f32030,001,2022-04-28_21h01.42.378,classification_task,2021.2.3,Win32,59.52380952,5cb19d5777375f0016f32030,626b377229c10585ec392f8a,626b38cf1d176f04d56068e7,,,,,,,,,,,,,,,,,,,,,,,l,1,1.2332,"[""0.101"",""0.333"",""0.810"",""0.743""]","[1,1,0,1]",0,53,53,53,1,1,1,,,0,FALSE,,,,,,,,,,,,,,,,,,,,,,,,,,,,,,
,5cb19d5777375f0016f32030,001,2022-04-28_21h01.42.378,classification_task,2021.2.3,Win32,59.52380952,5cb19d5777375f0016f32030,626b377229c10585ec392f8a,626b38cf1d176f04d56068e7,,,,,,,,,,,,,,,,,,,,,,,l,1,0.9613,"[""0.054"",""0.137"",""0.468"",""0.202""]","[1,1,1,0]",0,54,54,54,1,1,0,,,0,FALSE,,,,,,,,,,,,,,,,,,,,,,,,,,,,,,
,5cb19d5777375f0016f32030,001,2022-04-28_21h01.42.378,classification_task,2021.2.3,Win32,59.52380952,5cb19d5777375f0016f32030,626b377229c10585ec392f8a,626b38cf1d176f04d56068e7,,,,,,,,,,,,,,,,,,,,,,,l,0,1.1571,"[""0.293"",""0.502"",""0.616"",""0.202""]","[1,1,1,0]",0,55,55,55,1,0,0,,,0,FALSE,,,,,,,,,,,,,,,,,,,,,,,,,,,,,,
,5cb19d5777375f0016f32030,001,2022-04-28_21h01.42.378,classification_task,2021.2.3,Win32,59.52380952,5cb19d5777375f0016f32030,626b377229c10585ec392f8a,626b38cf1d176f04d56068e7,,,,,,,,,,,,,,,,,,,,,,,l,1,0.6879,"[""0.782"",""0.137"",""0.468"",""0.679""]","[0,1,1,1]",0,56,56,56,1,1,0,,,0,FALSE,,,,,,,,,,,,,,,,,,,,,,,,,,,,,,
,5cb19d5777375f0016f32030,001,2022-04-28_21h01.42.378,classification_task,2021.2.3,Win32,59.52380952,5cb19d5777375f0016f32030,626b377229c10585ec392f8a,626b38cf1d176f04d56068e7,,,,,,,,,,,,,,,,,,,,,,,l,0,0.6487,"[""0.293"",""0.778"",""0.616"",""0.895""]","[1,0,1,1]",0,57,57,57,1,0,0,,,0,FALSE,,,,,,,,,,,,,,,,,,,,,,,,,,,,,,
,5cb19d5777375f0016f32030,001,2022-04-28_21h01.42.378,classification_task,2021.2.3,Win32,59.52380952,5cb19d5777375f0016f32030,626b377229c10585ec392f8a,626b38cf1d176f04d56068e7,,,,,,,,,,,,,,,,,,,,,,,l,0,2.3367,"[""0.207"",""0.411"",""0.844"",""0.942""]","[0,1,1,1]",0,58,58,58,1,0,1,,,0,FALSE,,,,,,,,,,,,,,,,,,,,,,,,,,,,,,
,5cb19d5777375f0016f32030,001,2022-04-28_21h01.42.378,classification_task,2021.2.3,Win32,59.52380952,5cb19d5777375f0016f32030,626b377229c10585ec392f8a,626b38cf1d176f04d56068e7,,,,,,,,,,,,,,,,,,,,,,,l,0,0.8366,"[""0.202"",""0.502"",""0.616"",""0.895""]","[0,1,1,1]",0,59,59,59,1,0,0,,,0,FALSE,,,,,,,,,,,,,,,,,,,,,,,,,,,,,,
,5cb19d5777375f0016f32030,001,2022-04-28_21h01.42.378,classification_task,2021.2.3,Win32,59.52380952,5cb19d5777375f0016f32030,626b377229c10585ec392f8a,626b38cf1d176f04d56068e7,,,,,,,,,,,,,,,,,,,,,,,l,1,0.7693,"[""0.054"",""0.137"",""0.796"",""0.679""]","[1,1,0,1]",0,60,60,60,1,1,0,,,0,FALSE,,,,,,,,,,,,,,,,,,,,,,,,,,,,,,
,5cb19d5777375f0016f32030,001,2022-04-28_21h01.42.378,classification_task,2021.2.3,Win32,59.52380952,5cb19d5777375f0016f32030,626b377229c10585ec392f8a,626b38cf1d176f04d56068e7,,,,,,,,,,,,,,,,,,,,,,,l,1,0.7657,"[""0.054"",""0.806"",""0.468"",""0.679""]","[1,0,1,1]",0,61,61,61,1,1,0,,,0,FALSE,,,,,,,,,,,,,,,,,,,,,,,,,,,,,,
,5cb19d5777375f0016f32030,001,2022-04-28_21h01.42.378,classification_task,2021.2.3,Win32,59.52380952,5cb19d5777375f0016f32030,626b377229c10585ec392f8a,626b38cf1d176f04d56068e7,,,,,,,,,,,,,,,,,,,,,,,a,0,1.0321,"[""0.101"",""0.202"",""0.557"",""0.743""]","[1,0,1,1]",0,62,62,62,1,1,1,,,0,FALSE,,,,,,,,,,,,,,,,,,,,,,,,,,,,,,
,5cb19d5777375f0016f32030,001,2022-04-28_21h01.42.378,classification_task,2021.2.3,Win32,59.52380952,5cb19d5777375f0016f32030,626b377229c10585ec392f8a,626b38cf1d176f04d56068e7,,,,,,,,,,,,,,,,,,,,,,,l,0,0.6025,"[""0.244"",""0.193"",""0.844"",""0.942""]","[1,0,1,1]",0,63,63,63,1,0,1,,,0,FALSE,,,,,,,,,,,,,,,,,,,,,,,,,,,,,,
,5cb19d5777375f0016f32030,001,2022-04-28_21h01.42.378,classification_task,2021.2.3,Win32,59.52380952,5cb19d5777375f0016f32030,626b377229c10585ec392f8a,626b38cf1d176f04d56068e7,,,,,,,,,,,,,,,,,,,,,,,,,,,,,,,,,,,,,,,0, ,,0,3.015873016,633.2879,0,0,0,0,1,2,1,,,,,,,,,,,,,,,,,
,5cb19d5777375f0016f32030,001,2022-04-28_21h01.42.378,classification_task,2021.2.3,Win32,59.52380952,5cb19d5777375f0016f32030,626b377229c10585ec392f8a,626b38cf1d176f04d56068e7,,,,,,,,,,,,,,,,,,,,,,,,,,,,,,,,,,,,,,,1,  ,,0,7.66999804,619.1992,0,0,0,0,1,2,1,,,,,,,,,,,,,,,,,
,5cb19d5777375f0016f32030,001,2022-04-28_21h01.42.378,classification_task,2021.2.3,Win32,59.52380952,5cb19d5777375f0016f32030,626b377229c10585ec392f8a,626b38cf1d176f04d56068e7,,,,,,,,,,,,,,,,,,,,,,,,,,,,,,,,,,,,,,,2,  ,,0,4.412110523,624.2686,0,0,0,0,1,2,1,,,,,,,,,,,,,,,,,
,5cb19d5777375f0016f32030,001,2022-04-28_21h01.42.378,classification_task,2021.2.3,Win32,59.52380952,5cb19d5777375f0016f32030,626b377229c10585ec392f8a,626b38cf1d176f04d56068e7,,,,,,,,,,,,,,,,,,,,,,,,,,,,,,,,,,,,,,,,,,,,,0,0,0,0,1,,1,,,,,,,,,,,,,,,,,
,5cb19d5777375f0016f32030,001,2022-04-28_21h01.42.378,classification_task,2021.2.3,Win32,59.52380952,5cb19d5777375f0016f32030,626b377229c10585ec392f8a,626b38cf1d176f04d56068e7,,,,,,,,,,,,,,,,,,,,,space,9.1665,l,1,4.9343,"[""0.782"",""0.333"",""0.557"",""0.743""]","[0,1,1,1]",0,0,0,0,1,1,1,,,0,FALSE,,,,,,,,,,,,,,,,,,,,,,,,,,,,,,
,5cb19d5777375f0016f32030,001,2022-04-28_21h01.42.378,classification_task,2021.2.3,Win32,59.52380952,5cb19d5777375f0016f32030,626b377229c10585ec392f8a,626b38cf1d176f04d56068e7,,,,,,,,,,,,,,,,,,,,,,,l,0,2.276,"[""0.244"",""0.411"",""0.209"",""0.942""]","[1,1,0,1]",0,1,1,1,1,0,1,,,0,FALSE,,,,,,,,,,,,,,,,,,,,,,,,,,,,,,
,5cb19d5777375f0016f32030,001,2022-04-28_21h01.42.378,classification_task,2021.2.3,Win32,59.52380952,5cb19d5777375f0016f32030,626b377229c10585ec392f8a,626b38cf1d176f04d56068e7,,,,,,,,,,,,,,,,,,,,,,,a,0,6.4524,"[""0.101"",""0.333"",""0.209"",""0.743""]","[1,1,0,1]",0,2,2,2,1,1,1,,,0,FALSE,,,,,,,,,,,,,,,,,,,,,,,,,,,,,,
,5cb19d5777375f0016f32030,001,2022-04-28_21h01.42.378,classification_task,2021.2.3,Win32,59.52380952,5cb19d5777375f0016f32030,626b377229c10585ec392f8a,626b38cf1d176f04d56068e7,,,,,,,,,,,,,,,,,,,,,,,l,1,3.5511,"[""0.101"",""0.333"",""0.557"",""0.794""]","[1,1,1,0]",0,3,3,3,1,1,1,,,0,FALSE,,,,,,,,,,,,,,,,,,,,,,,,,,,,,,
,5cb19d5777375f0016f32030,001,2022-04-28_21h01.42.378,classification_task,2021.2.3,Win32,59.52380952,5cb19d5777375f0016f32030,626b377229c10585ec392f8a,626b38cf1d176f04d56068e7,,,,,,,,,,,,,,,,,,,,,,,,0,,"[""0.207"",""0.502"",""0.616"",""0.895""]","[0,1,1,1]",0,4,4,4,1,0,0,,,0,FALSE,,,,,,,,,,,,,,,,,,,,,,,,,,,,,,
,5cb19d5777375f0016f32030,001,2022-04-28_21h01.42.378,classification_task,2021.2.3,Win32,59.52380952,5cb19d5777375f0016f32030,626b377229c10585ec392f8a,626b38cf1d176f04d56068e7,,,,,,,,,,,,,,,,,,,,,,,l,1,3.0009,"[""0.806"",""0.137"",""0.468"",""0.679""]","[0,1,1,1]",0,5,5,5,1,1,0,,,0,FALSE,,,,,,,,,,,,,,,,,,,,,,,,,,,,,,
,5cb19d5777375f0016f32030,001,2022-04-28_21h01.42.378,classification_task,2021.2.3,Win32,59.52380952,5cb19d5777375f0016f32030,626b377229c10585ec392f8a,626b38cf1d176f04d56068e7,,,,,,,,,,,,,,,,,,,,,,,l,0,1.8352,"[""0.794"",""0.411"",""0.844"",""0.942""]","[0,1,1,1]",0,6,6,6,1,0,1,,,0,FALSE,,,,,,,,,,,,,,,,,,,,,,,,,,,,,,
,5cb19d5777375f0016f32030,001,2022-04-28_21h01.42.378,classification_task,2021.2.3,Win32,59.52380952,5cb19d5777375f0016f32030,626b377229c10585ec392f8a,626b38cf1d176f04d56068e7,,,,,,,,,,,,,,,,,,,,,,,l,1,1.2883,"[""0.054"",""0.137"",""0.468"",""0.185""]","[1,1,1,0]",0,7,7,7,1,1,0,,,0,FALSE,,,,,,,,,,,,,,,,,,,,,,,,,,,,,,
,5cb19d5777375f0016f32030,001,2022-04-28_21h01.42.378,classification_task,2021.2.3,Win32,59.52380952,5cb19d5777375f0016f32030,626b377229c10585ec392f8a,626b38cf1d176f04d56068e7,,,,,,,,,,,,,,,,,,,,,,,a,0,1.4147,"[""0.054"",""0.202"",""0.468"",""0.679""]","[1,0,1,1]",0,8,8,8,1,1,0,,,0,FALSE,,,,,,,,,,,,,,,,,,,,,,,,,,,,,,
,5cb19d5777375f0016f32030,001,2022-04-28_21h01.42.378,classification_task,2021.2.3,Win32,59.52380952,5cb19d5777375f0016f32030,626b377229c10585ec392f8a,626b38cf1d176f04d56068e7,,,,,,,,,,,,,,,,,,,,,,,a,1,0.8841,"[""0.244"",""0.411"",""0.844"",""0.796""]","[1,1,1,0]",0,9,9,9,1,0,1,,,0,FALSE,,,,,,,,,,,,,,,,,,,,,,,,,,,,,,
,5cb19d5777375f0016f32030,001,2022-04-28_21h01.42.378,classification_task,2021.2.3,Win32,59.52380952,5cb19d5777375f0016f32030,626b377229c10585ec392f8a,626b38cf1d176f04d56068e7,,,,,,,,,,,,,,,,,,,,,,,l,0,1.4001,"[""0.293"",""0.502"",""0.197"",""0.895""]","[1,1,0,1]",0,10,10,10,1,0,0,,,0,FALSE,,,,,,,,,,,,,,,,,,,,,,,,,,,,,,
,5cb19d5777375f0016f32030,001,2022-04-28_21h01.42.378,classification_task,2021.2.3,Win32,59.52380952,5cb19d5777375f0016f32030,626b377229c10585ec392f8a,626b38cf1d176f04d56068e7,,,,,,,,,,,,,,,,,,,,,,,l,0,0.8995,"[""0.244"",""0.782"",""0.844"",""0.942""]","[1,0,1,1]",0,11,11,11,1,0,1,,,0,FALSE,,,,,,,,,,,,,,,,,,,,,,,,,,,,,,
,5cb19d5777375f0016f32030,001,2022-04-28_21h01.42.378,classification_task,2021.2.3,Win32,59.52380952,5cb19d5777375f0016f32030,626b377229c10585ec392f8a,626b38cf1d176f04d56068e7,,,,,,,,,,,,,,,,,,,,,,,l,0,1.9991,"[""0.293"",""0.502"",""0.616"",""0.802""]","[1,1,1,0]",0,12,12,12,1,0,0,,,0,FALSE,,,,,,,,,,,,,,,,,,,,,,,,,,,,,,
,5cb19d5777375f0016f32030,001,2022-04-28_21h01.42.378,classification_task,2021.2.3,Win32,59.52380952,5cb19d5777375f0016f32030,626b377229c10585ec392f8a,626b38cf1d176f04d56068e7,,,,,,,,,,,,,,,,,,,,,,,a,1,1.4564,"[""0.293"",""0.185"",""0.616"",""0.895""]","[1,0,1,1]",0,13,13,13,1,0,0,,,0,FALSE,,,,,,,,,,,,,,,,,,,,,,,,,,,,,,
,5cb19d5777375f0016f32030,001,2022-04-28_21h01.42.378,classification_task,2021.2.3,Win32,59.52380952,5cb19d5777375f0016f32030,626b377229c10585ec392f8a,626b38cf1d176f04d56068e7,,,,,,,,,,,,,,,,,,,,,,,a,0,1.3321,"[""0.054"",""0.137"",""0.197"",""0.679""]","[1,1,0,1]",0,14,14,14,1,1,0,,,0,FALSE,,,,,,,,,,,,,,,,,,,,,,,,,,,,,,
,5cb19d5777375f0016f32030,001,2022-04-28_21h01.42.378,classification_task,2021.2.3,Win32,59.52380952,5cb19d5777375f0016f32030,626b377229c10585ec392f8a,626b38cf1d176f04d56068e7,,,,,,,,,,,,,,,,,,,,,,,a,0,1.1339,"[""0.101"",""0.207"",""0.557"",""0.743""]","[1,0,1,1]",0,15,15,15,1,1,1,,,0,FALSE,,,,,,,,,,,,,,,,,,,,,,,,,,,,,,
,5cb19d5777375f0016f32030,001,2022-04-28_21h01.42.378,classification_task,2021.2.3,Win32,59.52380952,5cb19d5777375f0016f32030,626b377229c10585ec392f8a,626b38cf1d176f04d56068e7,,,,,,,,,,,,,,,,,,,,,,,a,1,1.4005,"[""0.293"",""0.502"",""0.806"",""0.895""]","[1,1,0,1]",0,16,16,16,1,0,0,,,0,FALSE,,,,,,,,,,,,,,,,,,,,,,,,,,,,,,
,5cb19d5777375f0016f32030,001,2022-04-28_21h01.42.378,classification_task,2021.2.3,Win32,59.52380952,5cb19d5777375f0016f32030,626b377229c10585ec392f8a,626b38cf1d176f04d56068e7,,,,,,,,,,,,,,,,,,,,,,,l,0,0.9675,"[""0.244"",""0.185"",""0.844"",""0.942""]","[1,0,1,1]",0,17,17,17,1,0,1,,,0,FALSE,,,,,,,,,,,,,,,,,,,,,,,,,,,,,,
,5cb19d5777375f0016f32030,001,2022-04-28_21h01.42.378,classification_task,2021.2.3,Win32,59.52380952,5cb19d5777375f0016f32030,626b377229c10585ec392f8a,626b38cf1d176f04d56068e7,,,,,,,,,,,,,,,,,,,,,,,a,0,1.0236,"[""0.054"",""0.137"",""0.202"",""0.679""]","[1,1,0,1]",0,18,18,18,1,1,0,,,0,FALSE,,,,,,,,,,,,,,,,,,,,,,,,,,,,,,
,5cb19d5777375f0016f32030,001,2022-04-28_21h01.42.378,classification_task,2021.2.3,Win32,59.52380952,5cb19d5777375f0016f32030,626b377229c10585ec392f8a,626b38cf1d176f04d56068e7,,,,,,,,,,,,,,,,,,,,,,,l,0,0.9836,"[""0.293"",""0.782"",""0.616"",""0.895""]","[1,0,1,1]",0,19,19,19,1,0,0,,,0,FALSE,,,,,,,,,,,,,,,,,,,,,,,,,,,,,,
,5cb19d5777375f0016f32030,001,2022-04-28_21h01.42.378,classification_task,2021.2.3,Win32,59.52380952,5cb19d5777375f0016f32030,626b377229c10585ec392f8a,626b38cf1d176f04d56068e7,,,,,,,,,,,,,,,,,,,,,,,a,0,1.1185,"[""0.101"",""0.333"",""0.557"",""0.802""]","[1,1,1,0]",0,20,20,20,1,1,1,,,0,FALSE,,,,,,,,,,,,,,,,,,,,,,,,,,,,,,
,5cb19d5777375f0016f32030,001,2022-04-28_21h01.42.378,classification_task,2021.2.3,Win32,59.52380952,5cb19d5777375f0016f32030,626b377229c10585ec392f8a,626b38cf1d176f04d56068e7,,,,,,,,,,,,,,,,,,,,,,,a,1,0.6671,"[""0.202"",""0.502"",""0.616"",""0.895""]","[0,1,1,1]",0,21,21,21,1,0,0,,,0,FALSE,,,,,,,,,,,,,,,,,,,,,,,,,,,,,,
,5cb19d5777375f0016f32030,001,2022-04-28_21h01.42.378,classification_task,2021.2.3,Win32,59.52380952,5cb19d5777375f0016f32030,626b377229c10585ec392f8a,626b38cf1d176f04d56068e7,,,,,,,,,,,,,,,,,,,,,,,a,0,3.5496,"[""0.054"",""0.202"",""0.468"",""0.679""]","[1,0,1,1]",0,22,22,22,1,1,0,,,0,FALSE,,,,,,,,,,,,,,,,,,,,,,,,,,,,,,
,5cb19d5777375f0016f32030,001,2022-04-28_21h01.42.378,classification_task,2021.2.3,Win32,59.52380952,5cb19d5777375f0016f32030,626b377229c10585ec392f8a,626b38cf1d176f04d56068e7,,,,,,,,,,,,,,,,,,,,,,,l,0,3.597,"[""0.197"",""0.411"",""0.844"",""0.942""]","[0,1,1,1]",0,23,23,23,1,0,1,,,0,FALSE,,,,,,,,,,,,,,,,,,,,,,,,,,,,,,
,5cb19d5777375f0016f32030,001,2022-04-28_21h01.42.378,classification_task,2021.2.3,Win32,59.52380952,5cb19d5777375f0016f32030,626b377229c10585ec392f8a,626b38cf1d176f04d56068e7,,,,,,,,,,,,,,,,,,,,,,,l,0,1.8512,"[""0.293"",""0.502"",""0.616"",""0.810""]","[1,1,1,0]",0,24,24,24,1,0,0,,,0,FALSE,,,,,,,,,,,,,,,,,,,,,,,,,,,,,,
,5cb19d5777375f0016f32030,001,2022-04-28_21h01.42.378,classification_task,2021.2.3,Win32,59.52380952,5cb19d5777375f0016f32030,626b377229c10585ec392f8a,626b38cf1d176f04d56068e7,,,,,,,,,,,,,,,,,,,,,,,l,1,0.821,"[""0.202"",""0.333"",""0.557"",""0.743""]","[0,1,1,1]",0,25,25,25,1,1,1,,,0,FALSE,,,,,,,,,,,,,,,,,,,,,,,,,,,,,,
,5cb19d5777375f0016f32030,001,2022-04-28_21h01.42.378,classification_task,2021.2.3,Win32,59.52380952,5cb19d5777375f0016f32030,626b377229c10585ec392f8a,626b38cf1d176f04d56068e7,,,,,,,,,,,,,,,,,,,,,,,l,0,0.9173,"[""0.244"",""0.411"",""0.802"",""0.942""]","[1,1,0,1]",0,26,26,26,1,0,1,,,0,FALSE,,,,,,,,,,,,,,,,,,,,,,,,,,,,,,
,5cb19d5777375f0016f32030,001,2022-04-28_21h01.42.378,classification_task,2021.2.3,Win32,59.52380952,5cb19d5777375f0016f32030,626b377229c10585ec392f8a,626b38cf1d176f04d56068e7,,,,,,,,,,,,,,,,,,,,,,,a,0,1.5392,"[""0.054"",""0.137"",""0.468"",""0.796""]","[1,1,1,0]",0,27,27,27,1,1,0,,,0,FALSE,,,,,,,,,,,,,,,,,,,,,,,,,,,,,,
,5cb19d5777375f0016f32030,001,2022-04-28_21h01.42.378,classification_task,2021.2.3,Win32,59.52380952,5cb19d5777375f0016f32030,626b377229c10585ec392f8a,626b38cf1d176f04d56068e7,,,,,,,,,,,,,,,,,,,,,,,a,0,1.0225,"[""0.101"",""0.782"",""0.557"",""0.743""]","[1,0,1,1]",0,28,28,28,1,1,1,,,0,FALSE,,,,,,,,,,,,,,,,,,,,,,,,,,,,,,
,5cb19d5777375f0016f32030,001,2022-04-28_21h01.42.378,classification_task,2021.2.3,Win32,59.52380952,5cb19d5777375f0016f32030,626b377229c10585ec392f8a,626b38cf1d176f04d56068e7,,,,,,,,,,,,,,,,,,,,,,,a,1,0.6028,"[""0.244"",""0.411"",""0.844"",""0.209""]","[1,1,1,0]",0,29,29,29,1,0,1,,,0,FALSE,,,,,,,,,,,,,,,,,,,,,,,,,,,,,,
,5cb19d5777375f0016f32030,001,2022-04-28_21h01.42.378,classification_task,2021.2.3,Win32,59.52380952,5cb19d5777375f0016f32030,626b377229c10585ec392f8a,626b38cf1d176f04d56068e7,,,,,,,,,,,,,,,,,,,,,,,a,0,1.1013,"[""0.101"",""0.333"",""0.782"",""0.743""]","[1,1,0,1]",0,30,30,30,1,1,1,,,0,FALSE,,,,,,,,,,,,,,,,,,,,,,,,,,,,,,
,5cb19d5777375f0016f32030,001,2022-04-28_21h01.42.378,classification_task,2021.2.3,Win32,59.52380952,5cb19d5777375f0016f32030,626b377229c10585ec392f8a,626b38cf1d176f04d56068e7,,,,,,,,,,,,,,,,,,,,,,,l,1,0.751,"[""0.794"",""0.137"",""0.468"",""0.679""]","[0,1,1,1]",0,31,31,31,1,1,0,,,0,FALSE,,,,,,,,,,,,,,,,,,,,,,,,,,,,,,
,5cb19d5777375f0016f32030,001,2022-04-28_21h01.42.378,classification_task,2021.2.3,Win32,59.52380952,5cb19d5777375f0016f32030,626b377229c10585ec392f8a,626b38cf1d176f04d56068e7,,,,,,,,,,,,,,,,,,,,,,,a,0,0.6505,"[""0.054"",""0.137"",""0.468"",""0.197""]","[1,1,1,0]",0,32,32,32,1,1,0,,,0,FALSE,,,,,,,,,,,,,,,,,,,,,,,,,,,,,,
,5cb19d5777375f0016f32030,001,2022-04-28_21h01.42.378,classification_task,2021.2.3,Win32,59.52380952,5cb19d5777375f0016f32030,626b377229c10585ec392f8a,626b38cf1d176f04d56068e7,,,,,,,,,,,,,,,,,,,,,,,l,1,0.5748,"[""0.054"",""0.137"",""0.197"",""0.679""]","[1,1,0,1]",0,33,33,33,1,1,0,,,0,FALSE,,,,,,,,,,,,,,,,,,,,,,,,,,,,,,
,5cb19d5777375f0016f32030,001,2022-04-28_21h01.42.378,classification_task,2021.2.3,Win32,59.52380952,5cb19d5777375f0016f32030,626b377229c10585ec392f8a,626b38cf1d176f04d56068e7,,,,,,,,,,,,,,,,,,,,,,,l,0,0.9334,"[""0.802"",""0.502"",""0.616"",""0.895""]","[0,1,1,1]",0,34,34,34,1,0,0,,,0,FALSE,,,,,,,,,,,,,,,,,,,,,,,,,,,,,,
,5cb19d5777375f0016f32030,001,2022-04-28_21h01.42.378,classification_task,2021.2.3,Win32,59.52380952,5cb19d5777375f0016f32030,626b377229c10585ec392f8a,626b38cf1d176f04d56068e7,,,,,,,,,,,,,,,,,,,,,,,l,1,1.4321,"[""0.101"",""0.806"",""0.557"",""0.743""]","[1,0,1,1]",0,35,35,35,1,1,1,,,0,FALSE,,,,,,,,,,,,,,,,,,,,,,,,,,,,,,
,5cb19d5777375f0016f32030,001,2022-04-28_21h01.42.378,classification_task,2021.2.3,Win32,59.52380952,5cb19d5777375f0016f32030,626b377229c10585ec392f8a,626b38cf1d176f04d56068e7,,,,,,,,,,,,,,,,,,,,,,,l,1,1.4831,"[""0.101"",""0.333"",""0.810"",""0.743""]","[1,1,0,1]",0,36,36,36,1,1,1,,,0,FALSE,,,,,,,,,,,,,,,,,,,,,,,,,,,,,,
,5cb19d5777375f0016f32030,001,2022-04-28_21h01.42.378,classification_task,2021.2.3,Win32,59.52380952,5cb19d5777375f0016f32030,626b377229c10585ec392f8a,626b38cf1d176f04d56068e7,,,,,,,,,,,,,,,,,,,,,,,a,1,1.0382,"[""0.293"",""0.502"",""0.616"",""0.209""]","[1,1,1,0]",0,37,37,37,1,0,0,,,0,FALSE,,,,,,,,,,,,,,,,,,,,,,,,,,,,,,
,5cb19d5777375f0016f32030,001,2022-04-28_21h01.42.378,classification_task,2021.2.3,Win32,59.52380952,5cb19d5777375f0016f32030,626b377229c10585ec392f8a,626b38cf1d176f04d56068e7,,,,,,,,,,,,,,,,,,,,,,,l,1,0.8167,"[""0.054"",""0.185"",""0.468"",""0.679""]","[1,0,1,1]",0,38,38,38,1,1,0,,,0,FALSE,,,,,,,,,,,,,,,,,,,,,,,,,,,,,,
,5cb19d5777375f0016f32030,001,2022-04-28_21h01.42.378,classification_task,2021.2.3,Win32,59.52380952,5cb19d5777375f0016f32030,626b377229c10585ec392f8a,626b38cf1d176f04d56068e7,,,,,,,,,,,,,,,,,,,,,,,l,0,1.2672,"[""0.209"",""0.411"",""0.844"",""0.942""]","[0,1,1,1]",0,39,39,39,1,0,1,,,0,FALSE,,,,,,,,,,,,,,,,,,,,,,,,,,,,,,
,5cb19d5777375f0016f32030,001,2022-04-28_21h01.42.378,classification_task,2021.2.3,Win32,59.52380952,5cb19d5777375f0016f32030,626b377229c10585ec392f8a,626b38cf1d176f04d56068e7,,,,,,,,,,,,,,,,,,,,,,,l,1,1.3505,"[""0.101"",""0.333"",""0.557"",""0.810""]","[1,1,1,0]",0,40,40,40,1,1,1,,,0,FALSE,,,,,,,,,,,,,,,,,,,,,,,,,,,,,,
,5cb19d5777375f0016f32030,001,2022-04-28_21h01.42.378,classification_task,2021.2.3,Win32,59.52380952,5cb19d5777375f0016f32030,626b377229c10585ec392f8a,626b38cf1d176f04d56068e7,,,,,,,,,,,,,,,,,,,,,,,l,0,1.4843,"[""0.244"",""0.411"",""0.796"",""0.942""]","[1,1,0,1]",0,41,41,41,1,0,1,,,0,FALSE,,,,,,,,,,,,,,,,,,,,,,,,,,,,,,
,5cb19d5777375f0016f32030,001,2022-04-28_21h01.42.378,classification_task,2021.2.3,Win32,59.52380952,5cb19d5777375f0016f32030,626b377229c10585ec392f8a,626b38cf1d176f04d56068e7,,,,,,,,,,,,,,,,,,,,,,,a,1,1.5824,"[""0.244"",""0.411"",""0.844"",""0.810""]","[1,1,1,0]",0,42,42,42,1,0,1,,,0,FALSE,,,,,,,,,,,,,,,,,,,,,,,,,,,,,,
,5cb19d5777375f0016f32030,001,2022-04-28_21h01.42.378,classification_task,2021.2.3,Win32,59.52380952,5cb19d5777375f0016f32030,626b377229c10585ec392f8a,626b38cf1d176f04d56068e7,,,,,,,,,,,,,,,,,,,,,,,l,1,1.3679,"[""0.207"",""0.137"",""0.468"",""0.679""]","[0,1,1,1]",0,43,43,43,1,1,0,,,0,FALSE,,,,,,,,,,,,,,,,,,,,,,,,,,,,,,
,5cb19d5777375f0016f32030,001,2022-04-28_21h01.42.378,classification_task,2021.2.3,Win32,59.52380952,5cb19d5777375f0016f32030,626b377229c10585ec392f8a,626b38cf1d176f04d56068e7,,,,,,,,,,,,,,,,,,,,,,,a,1,2.9821,"[""0.293"",""0.502"",""0.209"",""0.895""]","[1,1,0,1]",0,44,44,44,1,0,0,,,0,FALSE,,,,,,,,,,,,,,,,,,,,,,,,,,,,,,
,5cb19d5777375f0016f32030,001,2022-04-28_21h01.42.378,classification_task,2021.2.3,Win32,59.52380952,5cb19d5777375f0016f32030,626b377229c10585ec392f8a,626b38cf1d176f04d56068e7,,,,,,,,,,,,,,,,,,,,,,,l,0,3.2328,"[""0.244"",""0.778"",""0.844"",""0.942""]","[1,0,1,1]",0,45,45,45,1,0,1,,,0,FALSE,,,,,,,,,,,,,,,,,,,,,,,,,,,,,,
,5cb19d5777375f0016f32030,001,2022-04-28_21h01.42.378,classification_task,2021.2.3,Win32,59.52380952,5cb19d5777375f0016f32030,626b377229c10585ec392f8a,626b38cf1d176f04d56068e7,,,,,,,,,,,,,,,,,,,,,,,a,0,2.0857,"[""0.197"",""0.333"",""0.557"",""0.743""]","[0,1,1,1]",0,46,46,46,1,1,1,,,0,FALSE,,,,,,,,,,,,,,,,,,,,,,,,,,,,,,
,5cb19d5777375f0016f32030,001,2022-04-28_21h01.42.378,classification_task,2021.2.3,Win32,59.52380952,5cb19d5777375f0016f32030,626b377229c10585ec392f8a,626b38cf1d176f04d56068e7,,,,,,,,,,,,,,,,,,,,,,,l,0,1.9182,"[""0.293"",""0.207"",""0.616"",""0.895""]","[1,0,1,1]",0,47,47,47,1,0,0,,,0,FALSE,,,,,,,,,,,,,,,,,,,,,,,,,,,,,,
,5cb19d5777375f0016f32030,001,2022-04-28_21h01.42.378,classification_task,2021.2.3,Win32,59.52380952,5cb19d5777375f0016f32030,626b377229c10585ec392f8a,626b38cf1d176f04d56068e7,,,,,,,,,,,,,,,,,,,,,,,l,0,0.8501,"[""0.244"",""0.411"",""0.806"",""0.942""]","[1,1,0,1]",0,48,48,48,1,0,1,,,0,FALSE,,,,,,,,,,,,,,,,,,,,,,,,,,,,,,
,5cb19d5777375f0016f32030,001,2022-04-28_21h01.42.378,classification_task,2021.2.3,Win32,59.52380952,5cb19d5777375f0016f32030,626b377229c10585ec392f8a,626b38cf1d176f04d56068e7,,,,,,,,,,,,,,,,,,,,,,,l,0,0.6506,"[""0.244"",""0.411"",""0.844"",""0.810""]","[1,1,1,0]",0,49,49,49,1,0,1,,,0,FALSE,,,,,,,,,,,,,,,,,,,,,,,,,,,,,,
,5cb19d5777375f0016f32030,001,2022-04-28_21h01.42.378,classification_task,2021.2.3,Win32,59.52380952,5cb19d5777375f0016f32030,626b377229c10585ec392f8a,626b38cf1d176f04d56068e7,,,,,,,,,,,,,,,,,,,,,,,a,0,1.8845,"[""0.054"",""0.137"",""0.207"",""0.679""]","[1,1,0,1]",0,50,50,50,1,1,0,,,0,FALSE,,,,,,,,,,,,,,,,,,,,,,,,,,,,,,
,5cb19d5777375f0016f32030,001,2022-04-28_21h01.42.378,classification_task,2021.2.3,Win32,59.52380952,5cb19d5777375f0016f32030,626b377229c10585ec392f8a,626b38cf1d176f04d56068e7,,,,,,,,,,,,,,,,,,,,,,,a,1,0.9354,"[""0.293"",""0.502"",""0.616"",""0.802""]","[1,1,1,0]",0,51,51,51,1,0,0,,,0,FALSE,,,,,,,,,,,,,,,,,,,,,,,,,,,,,,
,5cb19d5777375f0016f32030,001,2022-04-28_21h01.42.378,classification_task,2021.2.3,Win32,59.52380952,5cb19d5777375f0016f32030,626b377229c10585ec392f8a,626b38cf1d176f04d56068e7,,,,,,,,,,,,,,,,,,,,,,,l,0,2.5172,"[""0.244"",""0.801"",""0.844"",""0.942""]","[1,0,1,1]",0,52,52,52,1,0,1,,,0,FALSE,,,,,,,,,,,,,,,,,,,,,,,,,,,,,,
,5cb19d5777375f0016f32030,001,2022-04-28_21h01.42.378,classification_task,2021.2.3,Win32,59.52380952,5cb19d5777375f0016f32030,626b377229c10585ec392f8a,626b38cf1d176f04d56068e7,,,,,,,,,,,,,,,,,,,,,,,a,0,0.9667,"[""0.101"",""0.794"",""0.557"",""0.743""]","[1,0,1,1]",0,53,53,53,1,1,1,,,0,FALSE,,,,,,,,,,,,,,,,,,,,,,,,,,,,,,
,5cb19d5777375f0016f32030,001,2022-04-28_21h01.42.378,classification_task,2021.2.3,Win32,59.52380952,5cb19d5777375f0016f32030,626b377229c10585ec392f8a,626b38cf1d176f04d56068e7,,,,,,,,,,,,,,,,,,,,,,,a,1,1.085,"[""0.293"",""0.502"",""0.782"",""0.895""]","[1,1,0,1]",0,54,54,54,1,0,0,,,0,FALSE,,,,,,,,,,,,,,,,,,,,,,,,,,,,,,
,5cb19d5777375f0016f32030,001,2022-04-28_21h01.42.378,classification_task,2021.2.3,Win32,59.52380952,5cb19d5777375f0016f32030,626b377229c10585ec392f8a,626b38cf1d176f04d56068e7,,,,,,,,,,,,,,,,,,,,,,,l,1,2.1513,"[""0.054"",""0.137"",""0.468"",""0.193""]","[1,1,1,0]",0,55,55,55,1,1,0,,,0,FALSE,,,,,,,,,,,,,,,,,,,,,,,,,,,,,,
,5cb19d5777375f0016f32030,001,2022-04-28_21h01.42.378,classification_task,2021.2.3,Win32,59.52380952,5cb19d5777375f0016f32030,626b377229c10585ec392f8a,626b38cf1d176f04d56068e7,,,,,,,,,,,,,,,,,,,,,,,a,0,1.3023,"[""0.101"",""0.333"",""0.810"",""0.743""]","[1,1,0,1]",0,56,56,56,1,1,1,,,0,FALSE,,,,,,,,,,,,,,,,,,,,,,,,,,,,,,
,5cb19d5777375f0016f32030,001,2022-04-28_21h01.42.378,classification_task,2021.2.3,Win32,59.52380952,5cb19d5777375f0016f32030,626b377229c10585ec392f8a,626b38cf1d176f04d56068e7,,,,,,,,,,,,,,,,,,,,,,,a,0,2.3213,"[""0.193"",""0.333"",""0.557"",""0.743""]","[0,1,1,1]",0,57,57,57,1,1,1,,,0,FALSE,,,,,,,,,,,,,,,,,,,,,,,,,,,,,,
,5cb19d5777375f0016f32030,001,2022-04-28_21h01.42.378,classification_task,2021.2.3,Win32,59.52380952,5cb19d5777375f0016f32030,626b377229c10585ec392f8a,626b38cf1d176f04d56068e7,,,,,,,,,,,,,,,,,,,,,,,l,1,1.6008,"[""0.054"",""0.209"",""0.468"",""0.679""]","[1,0,1,1]",0,58,58,58,1,1,0,,,0,FALSE,,,,,,,,,,,,,,,,,,,,,,,,,,,,,,
,5cb19d5777375f0016f32030,001,2022-04-28_21h01.42.378,classification_task,2021.2.3,Win32,59.52380952,5cb19d5777375f0016f32030,626b377229c10585ec392f8a,626b38cf1d176f04d56068e7,,,,,,,,,,,,,,,,,,,,,,,a,1,1.0997,"[""0.193"",""0.502"",""0.616"",""0.895""]","[0,1,1,1]",0,59,59,59,1,0,0,,,0,FALSE,,,,,,,,,,,,,,,,,,,,,,,,,,,,,,
,5cb19d5777375f0016f32030,001,2022-04-28_21h01.42.378,classification_task,2021.2.3,Win32,59.52380952,5cb19d5777375f0016f32030,626b377229c10585ec392f8a,626b38cf1d176f04d56068e7,,,,,,,,,,,,,,,,,,,,,,,l,1,2.6846,"[""0.202"",""0.137"",""0.468"",""0.679""]","[0,1,1,1]",0,60,60,60,1,1,0,,,0,FALSE,,,,,,,,,,,,,,,,,,,,,,,,,,,,,,
,5cb19d5777375f0016f32030,001,2022-04-28_21h01.42.378,classification_task,2021.2.3,Win32,59.52380952,5cb19d5777375f0016f32030,626b377229c10585ec392f8a,626b38cf1d176f04d56068e7,,,,,,,,,,,,,,,,,,,,,,,l,1,3.1176,"[""0.101"",""0.333"",""0.557"",""0.796""]","[1,1,1,0]",0,61,61,61,1,1,1,,,0,FALSE,,,,,,,,,,,,,,,,,,,,,,,,,,,,,,
,5cb19d5777375f0016f32030,001,2022-04-28_21h01.42.378,classification_task,2021.2.3,Win32,59.52380952,5cb19d5777375f0016f32030,626b377229c10585ec392f8a,626b38cf1d176f04d56068e7,,,,,,,,,,,,,,,,,,,,,,,a,1,3.0589,"[""0.810"",""0.411"",""0.844"",""0.942""]","[0,1,1,1]",0,62,62,62,1,0,1,,,0,FALSE,,,,,,,,,,,,,,,,,,,,,,,,,,,,,,
,5cb19d5777375f0016f32030,001,2022-04-28_21h01.42.378,classification_task,2021.2.3,Win32,59.52380952,5cb19d5777375f0016f32030,626b377229c10585ec392f8a,626b38cf1d176f04d56068e7,,,,,,,,,,,,,,,,,,,,,,,l,0,3.7858,"[""0.293"",""0.193"",""0.616"",""0.895""]","[1,0,1,1]",0,63,63,63,1,0,0,,,0,FALSE,,,,,,,,,,,,,,,,,,,,,,,,,,,,,,
,5cb19d5777375f0016f32030,001,2022-04-28_21h01.42.378,classification_task,2021.2.3,Win32,59.52380952,5cb19d5777375f0016f32030,626b377229c10585ec392f8a,626b38cf1d176f04d56068e7,,,,,,,,,,,,,,,,,,,,,,,,,,,,,,,,,,,,,,,0, ,,0,2.011561826,197.5892,0,1,1,1,1,2,2,,,,,,,,,,,,,,,,,
,5cb19d5777375f0016f32030,001,2022-04-28_21h01.42.378,classification_task,2021.2.3,Win32,59.52380952,5cb19d5777375f0016f32030,626b377229c10585ec392f8a,626b38cf1d176f04d56068e7,,,,,,,,,,,,,,,,,,,,,,,,,,,,,,,,,,,,,,,1,  ,,0,1.178718401,198.9183,0,1,1,1,1,2,2,,,,,,,,,,,,,,,,,
,5cb19d5777375f0016f32030,001,2022-04-28_21h01.42.378,classification_task,2021.2.3,Win32,59.52380952,5cb19d5777375f0016f32030,626b377229c10585ec392f8a,626b38cf1d176f04d56068e7,,,,,,,,,,,,,,,,,,,,,,,,,,,,,,,,,,,,,,,2,  ,,0,9.066235548,201.3859,0,1,1,1,1,2,2,,,,,,,,,,,,,,,,,
,5cb19d5777375f0016f32030,001,2022-04-28_21h01.42.378,classification_task,2021.2.3,Win32,59.52380952,5cb19d5777375f0016f32030,626b377229c10585ec392f8a,626b38cf1d176f04d56068e7,,,,,,,,,,,,,,,,,,,,,,,,,,,,,,,,,,,,,,,,,,,,,0,1,1,1,1,,2,,,,,,,,,,,,,,,,,
,5cb19d5777375f0016f32030,001,2022-04-28_21h01.42.378,classification_task,2021.2.3,Win32,59.52380952,5cb19d5777375f0016f32030,626b377229c10585ec392f8a,626b38cf1d176f04d56068e7,,,,,,,,,,,,,,,,,,,,,space,7.7862,l,0,5.5343,"[""0.244"",""0.207"",""0.844"",""0.942""]","[1,0,1,1]",0,0,0,0,1,0,1,,,0,FALSE,,,,,,,,,,,,,,,,,,,,,,,,,,,,,,
,5cb19d5777375f0016f32030,001,2022-04-28_21h01.42.378,classification_task,2021.2.3,Win32,59.52380952,5cb19d5777375f0016f32030,626b377229c10585ec392f8a,626b38cf1d176f04d56068e7,,,,,,,,,,,,,,,,,,,,,,,l,0,4.0175,"[""0.202"",""0.502"",""0.616"",""0.895""]","[0,1,1,1]",0,1,1,1,1,0,0,,,0,FALSE,,,,,,,,,,,,,,,,,,,,,,,,,,,,,,
,5cb19d5777375f0016f32030,001,2022-04-28_21h01.42.378,classification_task,2021.2.3,Win32,59.52380952,5cb19d5777375f0016f32030,626b377229c10585ec392f8a,626b38cf1d176f04d56068e7,,,,,,,,,,,,,,,,,,,,,,,l,1,1.9344,"[""0.054"",""0.137"",""0.468"",""0.185""]","[1,1,1,0]",0,2,2,2,1,1,0,,,0,FALSE,,,,,,,,,,,,,,,,,,,,,,,,,,,,,,
,5cb19d5777375f0016f32030,001,2022-04-28_21h01.42.378,classification_task,2021.2.3,Win32,59.52380952,5cb19d5777375f0016f32030,626b377229c10585ec392f8a,626b38cf1d176f04d56068e7,,,,,,,,,,,,,,,,,,,,,,,a,0,1.6847,"[""0.202"",""0.333"",""0.557"",""0.743""]","[0,1,1,1]",0,3,3,3,1,1,1,,,0,FALSE,,,,,,,,,,,,,,,,,,,,,,,,,,,,,,
,5cb19d5777375f0016f32030,001,2022-04-28_21h01.42.378,classification_task,2021.2.3,Win32,59.52380952,5cb19d5777375f0016f32030,626b377229c10585ec392f8a,626b38cf1d176f04d56068e7,,,,,,,,,,,,,,,,,,,,,,,a,1,1.1957,"[""0.244"",""0.411"",""0.810"",""0.942""]","[1,1,0,1]",0,4,4,4,1,0,1,,,0,FALSE,,,,,,,,,,,,,,,,,,,,,,,,,,,,,,
,5cb19d5777375f0016f32030,001,2022-04-28_21h01.42.378,classification_task,2021.2.3,Win32,59.52380952,5cb19d5777375f0016f32030,626b377229c10585ec392f8a,626b38cf1d176f04d56068e7,,,,,,,,,,,,,,,,,,,,,,,l,1,1.1838,"[""0.101"",""0.333"",""0.557"",""0.202""]","[1,1,1,0]",0,5,5,5,1,1,1,,,0,FALSE,,,,,,,,,,,,,,,,,,,,,,,,,,,,,,
,5cb19d5777375f0016f32030,001,2022-04-28_21h01.42.378,classification_task,2021.2.3,Win32,59.52380952,5cb19d5777375f0016f32030,626b377229c10585ec392f8a,626b38cf1d176f04d56068e7,,,,,,,,,,,,,,,,,,,,,,,a,1,2.1352,"[""0.293"",""0.502"",""0.616"",""0.197""]","[1,1,1,0]",0,6,6,6,1,0,0,,,0,FALSE,,,,,,,,,,,,,,,,,,,,,,,,,,,,,,
,5cb19d5777375f0016f32030,001,2022-04-28_21h01.42.378,classification_task,2021.2.3,Win32,59.52380952,5cb19d5777375f0016f32030,626b377229c10585ec392f8a,626b38cf1d176f04d56068e7,,,,,,,,,,,,,,,,,,,,,,,l,1,2.0505,"[""0.054"",""0.801"",""0.468"",""0.679""]","[1,0,1,1]",0,7,7,7,1,1,0,,,0,FALSE,,,,,,,,,,,,,,,,,,,,,,,,,,,,,,
,5cb19d5777375f0016f32030,001,2022-04-28_21h01.42.378,classification_task,2021.2.3,Win32,59.52380952,5cb19d5777375f0016f32030,626b377229c10585ec392f8a,626b38cf1d176f04d56068e7,,,,,,,,,,,,,,,,,,,,,,,l,0,1.6669,"[""0.244"",""0.411"",""0.844"",""0.185""]","[1,1,1,0]",0,8,8,8,1,0,1,,,0,FALSE,,,,,,,,,,,,,,,,,,,,,,,,,,,,,,
,5cb19d5777375f0016f32030,001,2022-04-28_21h01.42.378,classification_task,2021.2.3,Win32,59.52380952,5cb19d5777375f0016f32030,626b377229c10585ec392f8a,626b38cf1d176f04d56068e7,,,,,,,,,,,,,,,,,,,,,,,l,1,2.0654,"[""0.801"",""0.137"",""0.468"",""0.679""]","[0,1,1,1]",0,9,9,9,1,1,0,,,0,FALSE,,,,,,,,,,,,,,,,,,,,,,,,,,,,,,
,5cb19d5777375f0016f32030,001,2022-04-28_21h01.42.378,classification_task,2021.2.3,Win32,59.52380952,5cb19d5777375f0016f32030,626b377229c10585ec392f8a,626b38cf1d176f04d56068e7,,,,,,,,,,,,,,,,,,,,,,,a,1,2.6678,"[""0.806"",""0.411"",""0.844"",""0.942""]","[0,1,1,1]",0,10,10,10,1,0,1,,,0,FALSE,,,,,,,,,,,,,,,,,,,,,,,,,,,,,,
,5cb19d5777375f0016f32030,001,2022-04-28_21h01.42.378,classification_task,2021.2.3,Win32,59.52380952,5cb19d5777375f0016f32030,626b377229c10585ec392f8a,626b38cf1d176f04d56068e7,,,,,,,,,,,,,,,,,,,,,,,l,1,1.2283,"[""0.101"",""0.333"",""0.197"",""0.743""]","[1,1,0,1]",0,11,11,11,1,1,1,,,0,FALSE,,,,,,,,,,,,,,,,,,,,,,,,,,,,,,
,5cb19d5777375f0016f32030,001,2022-04-28_21h01.42.378,classification_task,2021.2.3,Win32,59.52380952,5cb19d5777375f0016f32030,626b377229c10585ec392f8a,626b38cf1d176f04d56068e7,,,,,,,,,,,,,,,,,,,,,,,a,1,1.7233,"[""0.293"",""0.502"",""0.207"",""0.895""]","[1,1,0,1]",0,12,12,12,1,0,0,,,0,FALSE,,,,,,,,,,,,,,,,,,,,,,,,,,,,,,
,5cb19d5777375f0016f32030,001,2022-04-28_21h01.42.378,classification_task,2021.2.3,Win32,59.52380952,5cb19d5777375f0016f32030,626b377229c10585ec392f8a,626b38cf1d176f04d56068e7,,,,,,,,,,,,,,,,,,,,,,,l,1,0.9842,"[""0.054"",""0.137"",""0.197"",""0.679""]","[1,1,0,1]",0,13,13,13,1,1,0,,,0,FALSE,,,,,,,,,,,,,,,,,,,,,,,,,,,,,,
,5cb19d5777375f0016f32030,001,2022-04-28_21h01.42.378,classification_task,2021.2.3,Win32,59.52380952,5cb19d5777375f0016f32030,626b377229c10585ec392f8a,626b38cf1d176f04d56068e7,,,,,,,,,,,,,,,,,,,,,,,a,1,1.4177,"[""0.293"",""0.207"",""0.616"",""0.895""]","[1,0,1,1]",0,14,14,14,1,0,0,,,0,FALSE,,,,,,,,,,,,,,,,,,,,,,,,,,,,,,
,5cb19d5777375f0016f32030,001,2022-04-28_21h01.42.378,classification_task,2021.2.3,Win32,59.52380952,5cb19d5777375f0016f32030,626b377229c10585ec392f8a,626b38cf1d176f04d56068e7,,,,,,,,,,,,,,,,,,,,,,,l,1,1.7172,"[""0.101"",""0.778"",""0.557"",""0.743""]","[1,0,1,1]",0,15,15,15,1,1,1,,,0,FALSE,,,,,,,,,,,,,,,,,,,,,,,,,,,,,,
,5cb19d5777375f0016f32030,001,2022-04-28_21h01.42.378,classification_task,2021.2.3,Win32,59.52380952,5cb19d5777375f0016f32030,626b377229c10585ec392f8a,626b38cf1d176f04d56068e7,,,,,,,,,,,,,,,,,,,,,,,a,1,1.1838,"[""0.293"",""0.502"",""0.202"",""0.895""]","[1,1,0,1]",0,16,16,16,1,0,0,,,0,FALSE,,,,,,,,,,,,,,,,,,,,,,,,,,,,,,
,5cb19d5777375f0016f32030,001,2022-04-28_21h01.42.378,classification_task,2021.2.3,Win32,59.52380952,5cb19d5777375f0016f32030,626b377229c10585ec392f8a,626b38cf1d176f04d56068e7,,,,,,,,,,,,,,,,,,,,,,,l,1,1.8507,"[""0.101"",""0.193"",""0.557"",""0.743""]","[1,0,1,1]",0,17,17,17,1,1,1,,,0,FALSE,,,,,,,,,,,,,,,,,,,,,,,,,,,,,,
,5cb19d5777375f0016f32030,001,2022-04-28_21h01.42.378,classification_task,2021.2.3,Win32,59.52380952,5cb19d5777375f0016f32030,626b377229c10585ec392f8a,626b38cf1d176f04d56068e7,,,,,,,,,,,,,,,,,,,,,,,l,1,1.5389,"[""0.054"",""0.137"",""0.802"",""0.679""]","[1,1,0,1]",0,18,18,18,1,1,0,,,0,FALSE,,,,,,,,,,,,,,,,,,,,,,,,,,,,,,
,5cb19d5777375f0016f32030,001,2022-04-28_21h01.42.378,classification_task,2021.2.3,Win32,59.52380952,5cb19d5777375f0016f32030,626b377229c10585ec392f8a,626b38cf1d176f04d56068e7,,,,,,,,,,,,,,,,,,,,,,,a,1,1.5434,"[""0.293"",""0.202"",""0.616"",""0.895""]","[1,0,1,1]",0,19,19,19,1,0,0,,,0,FALSE,,,,,,,,,,,,,,,,,,,,,,,,,,,,,,
,5cb19d5777375f0016f32030,001,2022-04-28_21h01.42.378,classification_task,2021.2.3,Win32,59.52380952,5cb19d5777375f0016f32030,626b377229c10585ec392f8a,626b38cf1d176f04d56068e7,,,,,,,,,,,,,,,,,,,,,,,a,1,1.9017,"[""0.244"",""0.411"",""0.197"",""0.942""]","[1,1,0,1]",0,20,20,20,1,0,1,,,0,FALSE,,,,,,,,,,,,,,,,,,,,,,,,,,,,,,
,5cb19d5777375f0016f32030,001,2022-04-28_21h01.42.378,classification_task,2021.2.3,Win32,59.52380952,5cb19d5777375f0016f32030,626b377229c10585ec392f8a,626b38cf1d176f04d56068e7,,,,,,,,,,,,,,,,,,,,,,,l,1,0.9686,"[""0.054"",""0.137"",""0.468"",""0.207""]","[1,1,1,0]",0,21,21,21,1,1,0,,,0,FALSE,,,,,,,,,,,,,,,,,,,,,,,,,,,,,,
,5cb19d5777375f0016f32030,001,2022-04-28_21h01.42.378,classification_task,2021.2.3,Win32,59.52380952,5cb19d5777375f0016f32030,626b377229c10585ec392f8a,626b38cf1d176f04d56068e7,,,,,,,,,,,,,,,,,,,,,,,l,0,1.7495,"[""0.293"",""0.502"",""0.616"",""0.202""]","[1,1,1,0]",0,22,22,22,1,0,0,,,0,FALSE,,,,,,,,,,,,,,,,,,,,,,,,,,,,,,
,5cb19d5777375f0016f32030,001,2022-04-28_21h01.42.378,classification_task,2021.2.3,Win32,59.52380952,5cb19d5777375f0016f32030,626b377229c10585ec392f8a,626b38cf1d176f04d56068e7,,,,,,,,,,,,,,,,,,,,,,,a,0,2.318,"[""0.796"",""0.333"",""0.557"",""0.743""]","[0,1,1,1]",0,23,23,23,1,1,1,,,0,FALSE,,,,,,,,,,,,,,,,,,,,,,,,,,,,,,
,5cb19d5777375f0016f32030,001,2022-04-28_21h01.42.378,classification_task,2021.2.3,Win32,59.52380952,5cb19d5777375f0016f32030,626b377229c10585ec392f8a,626b38cf1d176f04d56068e7,,,,,,,,,,,,,,,,,,,,,,,a,1,1.4328,"[""0.244"",""0.778"",""0.844"",""0.942""]","[1,0,1,1]",0,24,24,24,1,0,1,,,0,FALSE,,,,,,,,,,,,,,,,,,,,,,,,,,,,,,
,5cb19d5777375f0016f32030,001,2022-04-28_21h01.42.378,classification_task,2021.2.3,Win32,59.52380952,5cb19d5777375f0016f32030,626b377229c10585ec392f8a,626b38cf1d176f04d56068e7,,,,,,,,,,,,,,,,,,,,,,,a,0,1.2997,"[""0.054"",""0.801"",""0.468"",""0.679""]","[1,0,1,1]",0,25,25,25,1,1,0,,,0,FALSE,,,,,,,,,,,,,,,,,,,,,,,,,,,,,,
,5cb19d5777375f0016f32030,001,2022-04-28_21h01.42.378,classification_task,2021.2.3,Win32,59.52380952,5cb19d5777375f0016f32030,626b377229c10585ec392f8a,626b38cf1d176f04d56068e7,,,,,,,,,,,,,,,,,,,,,,,l,1,1.9676,"[""0.101"",""0.333"",""0.802"",""0.743""]","[1,1,0,1]",0,26,26,26,1,1,1,,,0,FALSE,,,,,,,,,,,,,,,,,,,,,,,,,,,,,,
,5cb19d5777375f0016f32030,001,2022-04-28_21h01.42.378,classification_task,2021.2.3,Win32,59.52380952,5cb19d5777375f0016f32030,626b377229c10585ec392f8a,626b38cf1d176f04d56068e7,,,,,,,,,,,,,,,,,,,,,,,a,1,1.8332,"[""0.244"",""0.411"",""0.844"",""0.193""]","[1,1,1,0]",0,27,27,27,1,0,1,,,0,FALSE,,,,,,,,,,,,,,,,,,,,,,,,,,,,,,
,5cb19d5777375f0016f32030,001,2022-04-28_21h01.42.378,classification_task,2021.2.3,Win32,59.52380952,5cb19d5777375f0016f32030,626b377229c10585ec392f8a,626b38cf1d176f04d56068e7,,,,,,,,,,,,,,,,,,,,,,,l,1,2.9022,"[""0.185"",""0.137"",""0.468"",""0.679""]","[0,1,1,1]",0,28,28,28,1,1,0,,,0,FALSE,,,,,,,,,,,,,,,,,,,,,,,,,,,,,,
,5cb19d5777375f0016f32030,001,2022-04-28_21h01.42.378,classification_task,2021.2.3,Win32,59.52380952,5cb19d5777375f0016f32030,626b377229c10585ec392f8a,626b38cf1d176f04d56068e7,,,,,,,,,,,,,,,,,,,,,,,l,0,3.2821,"[""0.207"",""0.502"",""0.616"",""0.895""]","[0,1,1,1]",0,29,29,29,1,0,0,,,0,FALSE,,,,,,,,,,,,,,,,,,,,,,,,,,,,,,
,5cb19d5777375f0016f32030,001,2022-04-28_21h01.42.378,classification_task,2021.2.3,Win32,59.52380952,5cb19d5777375f0016f32030,626b377229c10585ec392f8a,626b38cf1d176f04d56068e7,,,,,,,,,,,,,,,,,,,,,,,l,1,1.8523,"[""0.101"",""0.333"",""0.557"",""0.778""]","[1,1,1,0]",0,30,30,30,1,1,1,,,0,FALSE,,,,,,,,,,,,,,,,,,,,,,,,,,,,,,
,5cb19d5777375f0016f32030,001,2022-04-28_21h01.42.378,classification_task,2021.2.3,Win32,59.52380952,5cb19d5777375f0016f32030,626b377229c10585ec392f8a,626b38cf1d176f04d56068e7,,,,,,,,,,,,,,,,,,,,,,,a,1,1.0857,"[""0.193"",""0.411"",""0.844"",""0.942""]","[0,1,1,1]",0,31,31,31,1,0,1,,,0,FALSE,,,,,,,,,,,,,,,,,,,,,,,,,,,,,,
,5cb19d5777375f0016f32030,001,2022-04-28_21h01.42.378,classification_task,2021.2.3,Win32,59.52380952,5cb19d5777375f0016f32030,626b377229c10585ec392f8a,626b38cf1d176f04d56068e7,,,,,,,,,,,,,,,,,,,,,,,l,1,1.1179,"[""0.101"",""0.333"",""0.557"",""0.197""]","[1,1,1,0]",0,32,32,32,1,1,1,,,0,FALSE,,,,,,,,,,,,,,,,,,,,,,,,,,,,,,
,5cb19d5777375f0016f32030,001,2022-04-28_21h01.42.378,classification_task,2021.2.3,Win32,59.52380952,5cb19d5777375f0016f32030,626b377229c10585ec392f8a,626b38cf1d176f04d56068e7,,,,,,,,,,,,,,,,,,,,,,,l,1,1.8498,"[""0.054"",""0.185"",""0.468"",""0.679""]","[1,0,1,1]",0,33,33,33,1,1,0,,,0,FALSE,,,,,,,,,,,,,,,,,,,,,,,,,,,,,,
,5cb19d5777375f0016f32030,001,2022-04-28_21h01.42.378,classification_task,2021.2.3,Win32,59.52380952,5cb19d5777375f0016f32030,626b377229c10585ec392f8a,626b38cf1d176f04d56068e7,,,,,,,,,,,,,,,,,,,,,,,l,1,0.9834,"[""0.054"",""0.137"",""0.202"",""0.679""]","[1,1,0,1]",0,34,34,34,1,1,0,,,0,FALSE,,,,,,,,,,,,,,,,,,,,,,,,,,,,,,
,5cb19d5777375f0016f32030,001,2022-04-28_21h01.42.378,classification_task,2021.2.3,Win32,59.52380952,5cb19d5777375f0016f32030,626b377229c10585ec392f8a,626b38cf1d176f04d56068e7,,,,,,,,,,,,,,,,,,,,,,,a,1,2.8022,"[""0.293"",""0.502"",""0.616"",""0.778""]","[1,1,1,0]",0,35,35,35,1,0,0,,,0,FALSE,,,,,,,,,,,,,,,,,,,,,,,,,,,,,,
,5cb19d5777375f0016f32030,001,2022-04-28_21h01.42.378,classification_task,2021.2.3,Win32,59.52380952,5cb19d5777375f0016f32030,626b377229c10585ec392f8a,626b38cf1d176f04d56068e7,,,,,,,,,,,,,,,,,,,,,,,a,1,3.0513,"[""0.244"",""0.810"",""0.844"",""0.942""]","[1,0,1,1]",0,36,36,36,1,0,1,,,0,FALSE,,,,,,,,,,,,,,,,,,,,,,,,,,,,,,
,5cb19d5777375f0016f32030,001,2022-04-28_21h01.42.378,classification_task,2021.2.3,Win32,59.52380952,5cb19d5777375f0016f32030,626b377229c10585ec392f8a,626b38cf1d176f04d56068e7,,,,,,,,,,,,,,,,,,,,,,,l,0,1.9355,"[""0.244"",""0.411"",""0.207"",""0.942""]","[1,1,0,1]",0,37,37,37,1,0,1,,,0,FALSE,,,,,,,,,,,,,,,,,,,,,,,,,,,,,,
,5cb19d5777375f0016f32030,001,2022-04-28_21h01.42.378,classification_task,2021.2.3,Win32,59.52380952,5cb19d5777375f0016f32030,626b377229c10585ec392f8a,626b38cf1d176f04d56068e7,,,,,,,,,,,,,,,,,,,,,,,a,1,1.1335,"[""0.209"",""0.502"",""0.616"",""0.895""]","[0,1,1,1]",0,38,38,38,1,0,0,,,0,FALSE,,,,,,,,,,,,,,,,,,,,,,,,,,,,,,
,5cb19d5777375f0016f32030,001,2022-04-28_21h01.42.378,classification_task,2021.2.3,Win32,59.52380952,5cb19d5777375f0016f32030,626b377229c10585ec392f8a,626b38cf1d176f04d56068e7,,,,,,,,,,,,,,,,,,,,,,,a,0,1.6685,"[""0.197"",""0.137"",""0.468"",""0.679""]","[0,1,1,1]",0,39,39,39,1,1,0,,,0,FALSE,,,,,,,,,,,,,,,,,,,,,,,,,,,,,,
,5cb19d5777375f0016f32030,001,2022-04-28_21h01.42.378,classification_task,2021.2.3,Win32,59.52380952,5cb19d5777375f0016f32030,626b377229c10585ec392f8a,626b38cf1d176f04d56068e7,,,,,,,,,,,,,,,,,,,,,,,l,1,0.7689,"[""0.054"",""0.137"",""0.468"",""0.185""]","[1,1,1,0]",0,40,40,40,1,1,0,,,0,FALSE,,,,,,,,,,,,,,,,,,,,,,,,,,,,,,
,5cb19d5777375f0016f32030,001,2022-04-28_21h01.42.378,classification_task,2021.2.3,Win32,59.52380952,5cb19d5777375f0016f32030,626b377229c10585ec392f8a,626b38cf1d176f04d56068e7,,,,,,,,,,,,,,,,,,,,,,,a,1,1.0001,"[""0.293"",""0.502"",""0.202"",""0.895""]","[1,1,0,1]",0,41,41,41,1,0,0,,,0,FALSE,,,,,,,,,,,,,,,,,,,,,,,,,,,,,,
,5cb19d5777375f0016f32030,001,2022-04-28_21h01.42.378,classification_task,2021.2.3,Win32,59.52380952,5cb19d5777375f0016f32030,626b377229c10585ec392f8a,626b38cf1d176f04d56068e7,,,,,,,,,,,,,,,,,,,,,,,a,1,1.8005,"[""0.293"",""0.801"",""0.616"",""0.895""]","[1,0,1,1]",0,42,42,42,1,0,0,,,0,FALSE,,,,,,,,,,,,,,,,,,,,,,,,,,,,,,
,5cb19d5777375f0016f32030,001,2022-04-28_21h01.42.378,classification_task,2021.2.3,Win32,59.52380952,5cb19d5777375f0016f32030,626b377229c10585ec392f8a,626b38cf1d176f04d56068e7,,,,,,,,,,,,,,,,,,,,,,,l,1,1.444,"[""0.101"",""0.333"",""0.185"",""0.743""]","[1,1,0,1]",0,43,43,43,1,1,1,,,0,FALSE,,,,,,,,,,,,,,,,,,,,,,,,,,,,,,
,5cb19d5777375f0016f32030,001,2022-04-28_21h01.42.378,classification_task,2021.2.3,Win32,59.52380952,5cb19d5777375f0016f32030,626b377229c10585ec392f8a,626b38cf1d176f04d56068e7,,,,,,,,,,,,,,,,,,,,,,,l,1,3.8686,"[""0.185"",""0.333"",""0.557"",""0.743""]","[0,1,1,1]",0,44,44,44,1,1,1,,,0,FALSE,,,,,,,,,,,,,,,,,,,,,,,,,,,,,,
,5cb19d5777375f0016f32030,001,2022-04-28_21h01.42.378,classification_task,2021.2.3,Win32,59.52380952,5cb19d5777375f0016f32030,626b377229c10585ec392f8a,626b38cf1d176f04d56068e7,,,,,,,,,,,,,,,,,,,,,,,a,0,3.5855,"[""0.101"",""0.806"",""0.557"",""0.743""]","[1,0,1,1]",0,45,45,45,1,1,1,,,0,FALSE,,,,,,,,,,,,,,,,,,,,,,,,,,,,,,
,5cb19d5777375f0016f32030,001,2022-04-28_21h01.42.378,classification_task,2021.2.3,Win32,59.52380952,5cb19d5777375f0016f32030,626b377229c10585ec392f8a,626b38cf1d176f04d56068e7,,,,,,,,,,,,,,,,,,,,,,,l,0,1.2189,"[""0.244"",""0.411"",""0.844"",""0.209""]","[1,1,1,0]",0,46,46,46,1,0,1,,,0,FALSE,,,,,,,,,,,,,,,,,,,,,,,,,,,,,,
,5cb19d5777375f0016f32030,001,2022-04-28_21h01.42.378,classification_task,2021.2.3,Win32,59.52380952,5cb19d5777375f0016f32030,626b377229c10585ec392f8a,626b38cf1d176f04d56068e7,,,,,,,,,,,,,,,,,,,,,,,l,0,2.5172,"[""0.794"",""0.411"",""0.844"",""0.942""]","[0,1,1,1]",0,47,47,47,1,0,1,,,0,FALSE,,,,,,,,,,,,,,,,,,,,,,,,,,,,,,
,5cb19d5777375f0016f32030,001,2022-04-28_21h01.42.378,classification_task,2021.2.3,Win32,59.52380952,5cb19d5777375f0016f32030,626b377229c10585ec392f8a,626b38cf1d176f04d56068e7,,,,,,,,,,,,,,,,,,,,,,,l,1,1.1007,"[""0.054"",""0.193"",""0.468"",""0.679""]","[1,0,1,1]",0,48,48,48,1,1,0,,,0,FALSE,,,,,,,,,,,,,,,,,,,,,,,,,,,,,,
,5cb19d5777375f0016f32030,001,2022-04-28_21h01.42.378,classification_task,2021.2.3,Win32,59.52380952,5cb19d5777375f0016f32030,626b377229c10585ec392f8a,626b38cf1d176f04d56068e7,,,,,,,,,,,,,,,,,,,,,,,a,1,2.8021,"[""0.244"",""0.411"",""0.844"",""0.202""]","[1,1,1,0]",0,49,49,49,1,0,1,,,0,FALSE,,,,,,,,,,,,,,,,,,,,,,,,,,,,,,
,5cb19d5777375f0016f32030,001,2022-04-28_21h01.42.378,classification_task,2021.2.3,Win32,59.52380952,5cb19d5777375f0016f32030,626b377229c10585ec392f8a,626b38cf1d176f04d56068e7,,,,,,,,,,,,,,,,,,,,,,,l,1,3.449,"[""0.101"",""0.202"",""0.557"",""0.743""]","[1,0,1,1]",0,50,50,50,1,1,1,,,0,FALSE,,,,,,,,,,,,,,,,,,,,,,,,,,,,,,
,5cb19d5777375f0016f32030,001,2022-04-28_21h01.42.378,classification_task,2021.2.3,Win32,59.52380952,5cb19d5777375f0016f32030,626b377229c10585ec392f8a,626b38cf1d176f04d56068e7,,,,,,,,,,,,,,,,,,,,,,,l,0,4.0838,"[""0.244"",""0.794"",""0.844"",""0.942""]","[1,0,1,1]",0,51,51,51,1,0,1,,,0,FALSE,,,,,,,,,,,,,,,,,,,,,,,,,,,,,,
,5cb19d5777375f0016f32030,001,2022-04-28_21h01.42.378,classification_task,2021.2.3,Win32,59.52380952,5cb19d5777375f0016f32030,626b377229c10585ec392f8a,626b38cf1d176f04d56068e7,,,,,,,,,,,,,,,,,,,,,,,a,1,5.2339,"[""0.293"",""0.502"",""0.209"",""0.895""]","[1,1,0,1]",0,52,52,52,1,0,0,,,0,FALSE,,,,,,,,,,,,,,,,,,,,,,,,,,,,,,
,5cb19d5777375f0016f32030,001,2022-04-28_21h01.42.378,classification_task,2021.2.3,Win32,59.52380952,5cb19d5777375f0016f32030,626b377229c10585ec392f8a,626b38cf1d176f04d56068e7,,,,,,,,,,,,,,,,,,,,,,,l,1,1.7905,"[""0.193"",""0.333"",""0.557"",""0.743""]","[0,1,1,1]",0,53,53,53,1,1,1,,,0,FALSE,,,,,,,,,,,,,,,,,,,,,,,,,,,,,,
,5cb19d5777375f0016f32030,001,2022-04-28_21h01.42.378,classification_task,2021.2.3,Win32,59.52380952,5cb19d5777375f0016f32030,626b377229c10585ec392f8a,626b38cf1d176f04d56068e7,,,,,,,,,,,,,,,,,,,,,,,l,1,0.8343,"[""0.054"",""0.137"",""0.209"",""0.679""]","[1,1,0,1]",0,54,54,54,1,1,0,,,0,FALSE,,,,,,,,,,,,,,,,,,,,,,,,,,,,,,
,5cb19d5777375f0016f32030,001,2022-04-28_21h01.42.378,classification_task,2021.2.3,Win32,59.52380952,5cb19d5777375f0016f32030,626b377229c10585ec392f8a,626b38cf1d176f04d56068e7,,,,,,,,,,,,,,,,,,,,,,,l,1,1.0676,"[""0.101"",""0.333"",""0.207"",""0.743""]","[1,1,0,1]",0,55,55,55,1,1,1,,,0,FALSE,,,,,,,,,,,,,,,,,,,,,,,,,,,,,,
,5cb19d5777375f0016f32030,001,2022-04-28_21h01.42.378,classification_task,2021.2.3,Win32,59.52380952,5cb19d5777375f0016f32030,626b377229c10585ec392f8a,626b38cf1d176f04d56068e7,,,,,,,,,,,,,,,,,,,,,,,l,0,1.4007,"[""0.293"",""0.502"",""0.616"",""0.202""]","[1,1,1,0]",0,56,56,56,1,0,0,,,0,FALSE,,,,,,,,,,,,,,,,,,,,,,,,,,,,,,
,5cb19d5777375f0016f32030,001,2022-04-28_21h01.42.378,classification_task,2021.2.3,Win32,59.52380952,5cb19d5777375f0016f32030,626b377229c10585ec392f8a,626b38cf1d176f04d56068e7,,,,,,,,,,,,,,,,,,,,,,,l,0,3.1674,"[""0.293"",""0.185"",""0.616"",""0.895""]","[1,0,1,1]",0,57,57,57,1,0,0,,,0,FALSE,,,,,,,,,,,,,,,,,,,,,,,,,,,,,,
,5cb19d5777375f0016f32030,001,2022-04-28_21h01.42.378,classification_task,2021.2.3,Win32,59.52380952,5cb19d5777375f0016f32030,626b377229c10585ec392f8a,626b38cf1d176f04d56068e7,,,,,,,,,,,,,,,,,,,,,,,l,1,1.7169,"[""0.101"",""0.333"",""0.557"",""0.193""]","[1,1,1,0]",0,58,58,58,1,1,1,,,0,FALSE,,,,,,,,,,,,,,,,,,,,,,,,,,,,,,
,5cb19d5777375f0016f32030,001,2022-04-28_21h01.42.378,classification_task,2021.2.3,Win32,59.52380952,5cb19d5777375f0016f32030,626b377229c10585ec392f8a,626b38cf1d176f04d56068e7,,,,,,,,,,,,,,,,,,,,,,,l,1,2.0176,"[""0.054"",""0.137"",""0.468"",""0.801""]","[1,1,1,0]",0,59,59,59,1,1,0,,,0,FALSE,,,,,,,,,,,,,,,,,,,,,,,,,,,,,,
,5cb19d5777375f0016f32030,001,2022-04-28_21h01.42.378,classification_task,2021.2.3,Win32,59.52380952,5cb19d5777375f0016f32030,626b377229c10585ec392f8a,626b38cf1d176f04d56068e7,,,,,,,,,,,,,,,,,,,,,,,a,1,1.3661,"[""0.209"",""0.502"",""0.616"",""0.895""]","[0,1,1,1]",0,60,60,60,1,0,0,,,0,FALSE,,,,,,,,,,,,,,,,,,,,,,,,,,,,,,
,5cb19d5777375f0016f32030,001,2022-04-28_21h01.42.378,classification_task,2021.2.3,Win32,59.52380952,5cb19d5777375f0016f32030,626b377229c10585ec392f8a,626b38cf1d176f04d56068e7,,,,,,,,,,,,,,,,,,,,,,,l,0,1.8499,"[""0.796"",""0.411"",""0.844"",""0.942""]","[0,1,1,1]",0,61,61,61,1,0,1,,,0,FALSE,,,,,,,,,,,,,,,,,,,,,,,,,,,,,,
,5cb19d5777375f0016f32030,001,2022-04-28_21h01.42.378,classification_task,2021.2.3,Win32,59.52380952,5cb19d5777375f0016f32030,626b377229c10585ec392f8a,626b38cf1d176f04d56068e7,,,,,,,,,,,,,,,,,,,,,,,a,1,1.385,"[""0.244"",""0.411"",""0.202"",""0.942""]","[1,1,0,1]",0,62,62,62,1,0,1,,,0,FALSE,,,,,,,,,,,,,,,,,,,,,,,,,,,,,,
,5cb19d5777375f0016f32030,001,2022-04-28_21h01.42.378,classification_task,2021.2.3,Win32,59.52380952,5cb19d5777375f0016f32030,626b377229c10585ec392f8a,626b38cf1d176f04d56068e7,,,,,,,,,,,,,,,,,,,,,,,a,0,1.7515,"[""0.806"",""0.137"",""0.468"",""0.679""]","[0,1,1,1]",0,63,63,63,1,1,0,,,0,FALSE,,,,,,,,,,,,,,,,,,,,,,,,,,,,,,
,5cb19d5777375f0016f32030,001,2022-04-28_21h01.42.378,classification_task,2021.2.3,Win32,59.52380952,5cb19d5777375f0016f32030,626b377229c10585ec392f8a,626b38cf1d176f04d56068e7,,,,,,,,,,,,,,,,,,,,,,,,,,,,,,,,,,,,,,,0, ,,0,2.378992749,205.4111,0,2,2,2,1,2,3,,,,,,,,,,,,,,,,,
,5cb19d5777375f0016f32030,001,2022-04-28_21h01.42.378,classification_task,2021.2.3,Win32,59.52380952,5cb19d5777375f0016f32030,626b377229c10585ec392f8a,626b38cf1d176f04d56068e7,,,,,,,,,,,,,,,,,,,,,,,,,,,,,,,,,,,,,,,1,  ,,0,1.031746032,206.8712,0,2,2,2,1,2,3,,,,,,,,,,,,,,,,,
,5cb19d5777375f0016f32030,001,2022-04-28_21h01.42.378,classification_task,2021.2.3,Win32,59.52380952,5cb19d5777375f0016f32030,626b377229c10585ec392f8a,626b38cf1d176f04d56068e7,,,,,,,,,,,,,,,,,,,,,,,,,,,,,,,,,,,,,,,2,  ,,0,6.714677641,209.3942,0,2,2,2,1,2,3,,,,,,,,,,,,,,,,,
,5cb19d5777375f0016f32030,001,2022-04-28_21h01.42.378,classification_task,2021.2.3,Win32,59.52380952,5cb19d5777375f0016f32030,626b377229c10585ec392f8a,626b38cf1d176f04d56068e7,,,,,,,,,,,,,,,,,,,,,,,,,,,,,,,,,,,,,,,,,,,,,0,2,2,2,1,,3,,,,,,,,,,,,,,,,,
,5cb19d5777375f0016f32030,001,2022-04-28_21h01.42.378,classification_task,2021.2.3,Win32,59.52380952,5cb19d5777375f0016f32030,626b377229c10585ec392f8a,626b38cf1d176f04d56068e7,,,,,,,,,,,,,,,,,,,,,,,,,,,,,,,,,,,,,,,,,,,,,,,,,,,,,I believe the aid is a competent performer,,0.7,0,5,1062.8513,0,0,0,0,1,0,,,,
,5cb19d5777375f0016f32030,001,2022-04-28_21h01.42.378,classification_task,2021.2.3,Win32,59.52380952,5cb19d5777375f0016f32030,626b377229c10585ec392f8a,626b38cf1d176f04d56068e7,,,,,,,,,,,,,,,,,,,,,,,,,,,,,,,,,,,,,,,,,,,,,,,,,,,,,I trust the aid,,0.7,0,5,1064.2335,0,0,0,0,1,0,,,,
,5cb19d5777375f0016f32030,001,2022-04-28_21h01.42.378,classification_task,2021.2.3,Win32,59.52380952,5cb19d5777375f0016f32030,626b377229c10585ec392f8a,626b38cf1d176f04d56068e7,,,,,,,,,,,,,,,,,,,,,,,,,,,,,,,,,,,,,,,,,,,,,,,,,,,,,I have confidence in the advice given by the aid,,0.7,0,4,1066.2478,0,0,0,0,1,0,,,,
,5cb19d5777375f0016f32030,001,2022-04-28_21h01.42.378,classification_task,2021.2.3,Win32,59.52380952,5cb19d5777375f0016f32030,626b377229c10585ec392f8a,626b38cf1d176f04d56068e7,,,,,,,,,,,,,,,,,,,,,,,,,,,,,,,,,,,,,,,,,,,,,,,,,,,,,I can depend on the aid,,0.7,0,5,1067.1814,0,0,0,0,1,0,,,,
,5cb19d5777375f0016f32030,001,2022-04-28_21h01.42.378,classification_task,2021.2.3,Win32,59.52380952,5cb19d5777375f0016f32030,626b377229c10585ec392f8a,626b38cf1d176f04d56068e7,,,,,,,,,,,,,,,,,,,,,,,,,,,,,,,,,,,,,,,,,,,,,,,,,,,,,I can rely on the aid to behave in consistent ways,,0.7,0,4,1070.4805,0,0,0,0,1,0,,,,
,5cb19d5777375f0016f32030,001,2022-04-28_21h01.42.378,classification_task,2021.2.3,Win32,59.52380952,5cb19d5777375f0016f32030,626b377229c10585ec392f8a,626b38cf1d176f04d56068e7,,,,,,,,,,,,,,,,,,,,,,,,,,,,,,,,,,,,,,,,,,,,,,,,,,,,,I can rely on the aid to do its best every time I take its advice,,0.7,0,4,1072.0126,0,0,0,0,1,0,,,,
,5cb19d5777375f0016f32030,001,2022-04-28_21h01.42.378,classification_task,2021.2.3,Win32,59.52380952,5cb19d5777375f0016f32030,626b377229c10585ec392f8a,626b38cf1d176f04d56068e7,,,,,,,,,,,,,,,,,,,,,,,,,,,,,,,,,,,,,,,,,,,,,,,,,,,,,"On trials you completed with assistance from the aid, how frequently did you think the aid was correct?",,0.7,0,80,,0,0,0,0,1,0,,,,
,5cb19d5777375f0016f32030,001,2022-04-28_21h01.42.378,classification_task,2021.2.3,Win32,59.52380952,5cb19d5777375f0016f32030,626b377229c10585ec392f8a,626b38cf1d176f04d56068e7,,,,,,,,,,,,,,,,,,,,,,,,,,,,,,,,,,,,,,,,,,,,,,,,,,,,,"On trials you completed without the aid, how frequently did you think you were correct?",,0.7,0,30,,0,0,0,0,1,0,,,,
,5cb19d5777375f0016f32030,001,2022-04-28_21h01.42.378,classification_task,2021.2.3,Win32,59.52380952,5cb19d5777375f0016f32030,626b377229c10585ec392f8a,626b38cf1d176f04d56068e7,,,,,,,,,,,,,,,,,,,,,,,,,,,,,,,,,,,,,,,,,,,,,,,,,,,,,,,,,,,0,0,0,0,1,,,,,
,5cb19d5777375f0016f32030,001,2022-04-28_21h01.42.378,classification_task,2021.2.3,Win32,59.52380952,5cb19d5777375f0016f32030,626b377229c10585ec392f8a,626b38cf1d176f04d56068e7,,,,,,,,,,,,,,,,,,,,,,,,,,,,,,,,,,,,,,,,,,,,,,,,,,,,,,,,,,,,,,,,,right,11.8172,1097.1534,
,5cb19d5777375f0016f32030,001,2022-04-28_21h01.42.378,classification_task,2021.2.3,Win32,59.52380952,5cb19d5777375f0016f32030,626b377229c10585ec392f8a,626b38cf1d176f04d56068e7,,,,,,,,,,,,,,,,,,,,,,,,,,,,,,,,,,,,,,,,,,,,,,,,,,,,,,,,,,,,,,,,,,,,"Mozilla/5.0 (Windows NT 10.0; Win64; x64) AppleWebKit/537.36 (KHTML, like Gecko) Chrome/100.0.4896.127 Safari/537.36"
