usingWebGL,participant,session,date,expName,psychopyVersion,OS,frameRate,study_id,signatures_friend,signatures_foe,band_ranges_top,band_ranges_bottom,formitemText,formtype,formundefined,formitemWidth,formindex,formresponse,formrt,key_resp_2.keys,key_resp_2.rt,tute_resp.keys,tute_resp.rt,tutorial.thisRepN,tutorial.thisTrialN,tutorial.thisN,tutorial.thisIndex,tutorial.ran,key_resp_4.keys,key_resp_4.rt,key_resp.keys,key_resp.corr,key_resp.rt,lines_presented,is_signal_presented,trials.thisRepN,trials.thisTrialN,trials.thisN,trials.thisIndex,trials.ran,vessel,active_band,lines,is_signal,supported_pos,catch_trial,debrief_formindex,debrief_formitemText,debrief_formtype,debrief_formitemWidth,debrief_formresponse,debrief_formrt,phases.thisRepN,phases.thisTrialN,phases.thisN,phases.thisIndex,phases.ran,phases.order,phase,key_resp_3.keys,trustitemText,trusttype,trustitemWidth,trustindex,trustresponse,trustrt,support_status.thisRepN,support_status.thisTrialN,support_status.thisN,support_status.thisIndex,support_status.ran,support_status.order,key_resp_5.keys,key_resp_5.rt,globalClockTime,userAgent,manualCondition
TRUE,5cb265e54a0e090001cbb2a8,627c76dcabe10bfa4130cbfe,2022-05-11_22h57.00.255,classification_task,2021.2.3,Win32,59.69792848,627c6715c52fd12f31907bd0,,,,,,,,,,,,,,,,,,,,,,,,,,,,,,,,,,,,,,,,,,,,,,,,,,,,,,,,,,,,,,,,,,,,,
,5cb265e54a0e090001cbb2a8,627c76dcabe10bfa4130cbfe,2022-05-11_22h57.00.255,classification_task,2021.2.3,Win32,59.69792848,627c6715c52fd12f31907bd0,"[[""0.261"",""0.565"",""0.923"",""0.970""],[""0.325"",""0.437"",""0.845"",""0.888""]]","[[""0.128"",""0.181"",""0.614"",""0.725""],[""0.061"",""0.369"",""0.480"",""0.691""]]","[1,10]","[100,1000]",Video game experience,,,0.7,0,,,,,,,,,,,,,,,,,,,,,,,,,,,,,,,,,,,,,,,,,,,,,,,,,,,,,,,,,,,,
,5cb265e54a0e090001cbb2a8,627c76dcabe10bfa4130cbfe,2022-05-11_22h57.00.255,classification_task,2021.2.3,Win32,59.69792848,627c6715c52fd12f31907bd0,,,,,Approximately how many hours did you spend playing video games in the last week?,,,0.7,0,3,,,,,,,,,,,,,,,,,,,,,,,,,,,,,,,,,,,,,,,,,,,,,,,,,,,,,,,,,,,
,5cb265e54a0e090001cbb2a8,627c76dcabe10bfa4130cbfe,2022-05-11_22h57.00.255,classification_task,2021.2.3,Win32,59.69792848,627c6715c52fd12f31907bd0,,,,,"Which game did you play the most this year? (Enter ""None"" if you didn't play any)",,,0.7,0,Covet Fashion,,,,,,,,,,,,,,,,,,,,,,,,,,,,,,,,,,,,,,,,,,,,,,,,,,,,,,,,,,,
,5cb265e54a0e090001cbb2a8,627c76dcabe10bfa4130cbfe,2022-05-11_22h57.00.255,classification_task,2021.2.3,Win32,59.69792848,627c6715c52fd12f31907bd0,,,,,Visual perception,,,0.7,0,,,,,,,,,,,,,,,,,,,,,,,,,,,,,,,,,,,,,,,,,,,,,,,,,,,,,,,,,,,,
,5cb265e54a0e090001cbb2a8,627c76dcabe10bfa4130cbfe,2022-05-11_22h57.00.255,classification_task,2021.2.3,Win32,59.69792848,627c6715c52fd12f31907bd0,,,,,Do you have any form of color blindness?,,,0.7,0,No,109.2182,,,,,,,,,,,,,,,,,,,,,,,,,,,,,,,,,,,,,,,,,,,,,,,,,,,,,,,,,,
,5cb265e54a0e090001cbb2a8,627c76dcabe10bfa4130cbfe,2022-05-11_22h57.00.255,classification_task,2021.2.3,Win32,59.69792848,627c6715c52fd12f31907bd0,,,,,Do you use software to change the colour temperature of your screen (e.g. f.lux)?,,,0.7,0,No,111.5663,,,,,,,,,,,,,,,,,,,,,,,,,,,,,,,,,,,,,,,,,,,,,,,,,,,,,,,,,,
,5cb265e54a0e090001cbb2a8,627c76dcabe10bfa4130cbfe,2022-05-11_22h57.00.255,classification_task,2021.2.3,Win32,59.69792848,627c6715c52fd12f31907bd0,,,,,,,,,,,,space,57.2916,space,12.0473,0,0,0,0,1,,,,,,,,,,,,,,,,,,,,,,,,,,,,,,,,,,,,,,,,,,,,,,,,,
,5cb265e54a0e090001cbb2a8,627c76dcabe10bfa4130cbfe,2022-05-11_22h57.00.255,classification_task,2021.2.3,Win32,59.69792848,627c6715c52fd12f31907bd0,,,,,,,,,,,,,,space,16.5845,1,0,1,0,1,,,,,,,,,,,,,,,,,,,,,,,,,,,,,,,,,,,,,,,,,,,,,,,,,
,5cb265e54a0e090001cbb2a8,627c76dcabe10bfa4130cbfe,2022-05-11_22h57.00.255,classification_task,2021.2.3,Win32,59.69792848,627c6715c52fd12f31907bd0,,,,,,,,,,,,,,space,44.0138,2,0,2,0,1,,,,,,,,,,,,,,,,,,,,,,,,,,,,,,,,,,,,,,,,,,,,,,,,,
,5cb265e54a0e090001cbb2a8,627c76dcabe10bfa4130cbfe,2022-05-11_22h57.00.255,classification_task,2021.2.3,Win32,59.69792848,627c6715c52fd12f31907bd0,,,,,,,,,,,,,,space,220.6573,3,0,3,0,1,,,,,,,,,,,,,,,,,,,,,,,,,,,,,,,,,,,,,,,,,,,,,,,,,
,5cb265e54a0e090001cbb2a8,627c76dcabe10bfa4130cbfe,2022-05-11_22h57.00.255,classification_task,2021.2.3,Win32,59.69792848,627c6715c52fd12f31907bd0,,,,,,,,,,,,,,space,58.5507,4,0,4,0,1,,,,,,,,,,,,,,,,,,,,,,,,,,,,,,,,,,,,,,,,,,,,,,,,,
,5cb265e54a0e090001cbb2a8,627c76dcabe10bfa4130cbfe,2022-05-11_22h57.00.255,classification_task,2021.2.3,Win32,59.69792848,627c6715c52fd12f31907bd0,,,,,,,,,,,,,,,,,,,,,space,30.3142,l,1,6.892,"[""0.061"",""0.369"",""0.480"",""0.027""]","[1,1,1,0]",0,0,0,0,1,1,1,,,0,FALSE,,,,,,,,,,,,,,,,,,,,,,,,,,,,,,,
,5cb265e54a0e090001cbb2a8,627c76dcabe10bfa4130cbfe,2022-05-11_22h57.00.255,classification_task,2021.2.3,Win32,59.69792848,627c6715c52fd12f31907bd0,,,,,,,,,,,,,,,,,,,,,,,a,1,6.5702,"[""0.261"",""0.565"",""0.803"",""0.970""]","[1,1,0,1]",0,1,1,1,1,0,0,,,0,FALSE,,,,,,,,,,,,,,,,,,,,,,,,,,,,,,,
,5cb265e54a0e090001cbb2a8,627c76dcabe10bfa4130cbfe,2022-05-11_22h57.00.255,classification_task,2021.2.3,Win32,59.69792848,627c6715c52fd12f31907bd0,,,,,,,,,,,,,,,,,,,,,,,l,0,2.9665,"[""0.325"",""0.437"",""0.027"",""0.888""]","[1,1,0,1]",0,2,2,2,1,0,1,,,0,FALSE,,,,,,,,,,,,,,,,,,,,,,,,,,,,,,,
,5cb265e54a0e090001cbb2a8,627c76dcabe10bfa4130cbfe,2022-05-11_22h57.00.255,classification_task,2021.2.3,Win32,59.69792848,627c6715c52fd12f31907bd0,,,,,,,,,,,,,,,,,,,,,,,a,1,9.918,"[""0.325"",""0.437"",""0.845"",""0.025""]","[1,1,1,0]",0,3,3,3,1,0,1,,,0,FALSE,,,,,,,,,,,,,,,,,,,,,,,,,,,,,,,
,5cb265e54a0e090001cbb2a8,627c76dcabe10bfa4130cbfe,2022-05-11_22h57.00.255,classification_task,2021.2.3,Win32,59.69792848,627c6715c52fd12f31907bd0,,,,,,,,,,,,,,,,,,,,,,,a,1,9.843,"[""0.325"",""0.524"",""0.845"",""0.888""]","[1,0,1,1]",0,4,4,4,1,0,1,,,0,FALSE,,,,,,,,,,,,,,,,,,,,,,,,,,,,,,,
,5cb265e54a0e090001cbb2a8,627c76dcabe10bfa4130cbfe,2022-05-11_22h57.00.255,classification_task,2021.2.3,Win32,59.69792848,627c6715c52fd12f31907bd0,,,,,,,,,,,,,,,,,,,,,,,l,1,7.0715,"[""0.128"",""0.181"",""0.614"",""0.515""]","[1,1,1,0]",0,5,5,5,1,1,0,,,0,FALSE,,,,,,,,,,,,,,,,,,,,,,,,,,,,,,,
,5cb265e54a0e090001cbb2a8,627c76dcabe10bfa4130cbfe,2022-05-11_22h57.00.255,classification_task,2021.2.3,Win32,59.69792848,627c6715c52fd12f31907bd0,,,,,,,,,,,,,,,,,,,,,,,l,1,8.0649,"[""0.128"",""0.181"",""0.514"",""0.725""]","[1,1,0,1]",0,6,6,6,1,1,0,,,0,FALSE,,,,,,,,,,,,,,,,,,,,,,,,,,,,,,,
,5cb265e54a0e090001cbb2a8,627c76dcabe10bfa4130cbfe,2022-05-11_22h57.00.255,classification_task,2021.2.3,Win32,59.69792848,627c6715c52fd12f31907bd0,,,,,,,,,,,,,,,,,,,,,,,a,1,8.8951,"[""0.261"",""0.565"",""0.923"",""0.516""]","[1,1,1,0]",0,7,7,7,1,0,0,,,0,FALSE,,,,,,,,,,,,,,,,,,,,,,,,,,,,,,,
,5cb265e54a0e090001cbb2a8,627c76dcabe10bfa4130cbfe,2022-05-11_22h57.00.255,classification_task,2021.2.3,Win32,59.69792848,627c6715c52fd12f31907bd0,,,,,,,,,,,,,,,,,,,,,,,,0,,"[""0.514"",""0.565"",""0.923"",""0.970""]","[0,1,1,1]",0,8,8,8,1,0,0,,,0,FALSE,,,,,,,,,,,,,,,,,,,,,,,,,,,,,,,
,5cb265e54a0e090001cbb2a8,627c76dcabe10bfa4130cbfe,2022-05-11_22h57.00.255,classification_task,2021.2.3,Win32,59.69792848,627c6715c52fd12f31907bd0,,,,,,,,,,,,,,,,,,,,,,,l,1,5.4004,"[""0.061"",""0.369"",""0.515"",""0.691""]","[1,1,0,1]",0,9,9,9,1,1,1,,,0,FALSE,,,,,,,,,,,,,,,,,,,,,,,,,,,,,,,
,5cb265e54a0e090001cbb2a8,627c76dcabe10bfa4130cbfe,2022-05-11_22h57.00.255,classification_task,2021.2.3,Win32,59.69792848,627c6715c52fd12f31907bd0,,,,,,,,,,,,,,,,,,,,,,,l,1,7.4747,"[""0.650"",""0.369"",""0.480"",""0.691""]","[0,1,1,1]",0,10,10,10,1,1,1,,,0,FALSE,,,,,,,,,,,,,,,,,,,,,,,,,,,,,,,
,5cb265e54a0e090001cbb2a8,627c76dcabe10bfa4130cbfe,2022-05-11_22h57.00.255,classification_task,2021.2.3,Win32,59.69792848,627c6715c52fd12f31907bd0,,,,,,,,,,,,,,,,,,,,,,,l,1,2.5031,"[""0.061"",""0.026"",""0.480"",""0.691""]","[1,0,1,1]",0,11,11,11,1,1,1,,,0,FALSE,,,,,,,,,,,,,,,,,,,,,,,,,,,,,,,
,5cb265e54a0e090001cbb2a8,627c76dcabe10bfa4130cbfe,2022-05-11_22h57.00.255,classification_task,2021.2.3,Win32,59.69792848,627c6715c52fd12f31907bd0,,,,,,,,,,,,,,,,,,,,,,,a,1,4.2207,"[""0.261"",""0.803"",""0.923"",""0.970""]","[1,0,1,1]",0,12,12,12,1,0,0,,,0,FALSE,,,,,,,,,,,,,,,,,,,,,,,,,,,,,,,
,5cb265e54a0e090001cbb2a8,627c76dcabe10bfa4130cbfe,2022-05-11_22h57.00.255,classification_task,2021.2.3,Win32,59.69792848,627c6715c52fd12f31907bd0,,,,,,,,,,,,,,,,,,,,,,,a,1,5.2682,"[""0.785"",""0.437"",""0.845"",""0.888""]","[0,1,1,1]",0,13,13,13,1,0,1,,,0,FALSE,,,,,,,,,,,,,,,,,,,,,,,,,,,,,,,
,5cb265e54a0e090001cbb2a8,627c76dcabe10bfa4130cbfe,2022-05-11_22h57.00.255,classification_task,2021.2.3,Win32,59.69792848,627c6715c52fd12f31907bd0,,,,,,,,,,,,,,,,,,,,,,,l,1,3.4136,"[""0.128"",""0.027"",""0.614"",""0.725""]","[1,0,1,1]",0,14,14,14,1,1,0,,,0,FALSE,,,,,,,,,,,,,,,,,,,,,,,,,,,,,,,
,5cb265e54a0e090001cbb2a8,627c76dcabe10bfa4130cbfe,2022-05-11_22h57.00.255,classification_task,2021.2.3,Win32,59.69792848,627c6715c52fd12f31907bd0,,,,,,,,,,,,,,,,,,,,,,,l,1,3.654,"[""0.650"",""0.181"",""0.614"",""0.725""]","[0,1,1,1]",0,15,15,15,1,1,0,,,0,FALSE,,,,,,,,,,,,,,,,,,,,,,,,,,,,,,,
,5cb265e54a0e090001cbb2a8,627c76dcabe10bfa4130cbfe,2022-05-11_22h57.00.255,classification_task,2021.2.3,Win32,59.69792848,627c6715c52fd12f31907bd0,,,,,,,,,,,,,,,,,,,,,,,a,1,5.0735,"[""0.261"",""0.779"",""0.923"",""0.970""]","[1,0,1,1]",0,16,16,16,1,0,0,,,0,FALSE,,,,,,,,,,,,,,,,,,,,,,,,,,,,,,,
,5cb265e54a0e090001cbb2a8,627c76dcabe10bfa4130cbfe,2022-05-11_22h57.00.255,classification_task,2021.2.3,Win32,59.69792848,627c6715c52fd12f31907bd0,,,,,,,,,,,,,,,,,,,,,,,l,1,2.4161,"[""0.061"",""0.369"",""0.027"",""0.691""]","[1,1,0,1]",0,17,17,17,1,1,1,,,0,FALSE,,,,,,,,,,,,,,,,,,,,,,,,,,,,,,,
,5cb265e54a0e090001cbb2a8,627c76dcabe10bfa4130cbfe,2022-05-11_22h57.00.255,classification_task,2021.2.3,Win32,59.69792848,627c6715c52fd12f31907bd0,,,,,,,,,,,,,,,,,,,,,,,a,1,4.1514,"[""0.803"",""0.437"",""0.845"",""0.888""]","[0,1,1,1]",0,18,18,18,1,0,1,,,0,FALSE,,,,,,,,,,,,,,,,,,,,,,,,,,,,,,,
,5cb265e54a0e090001cbb2a8,627c76dcabe10bfa4130cbfe,2022-05-11_22h57.00.255,classification_task,2021.2.3,Win32,59.69792848,627c6715c52fd12f31907bd0,,,,,,,,,,,,,,,,,,,,,,,l,1,2.2903,"[""0.514"",""0.369"",""0.480"",""0.691""]","[0,1,1,1]",0,19,19,19,1,1,1,,,0,FALSE,,,,,,,,,,,,,,,,,,,,,,,,,,,,,,,
,5cb265e54a0e090001cbb2a8,627c76dcabe10bfa4130cbfe,2022-05-11_22h57.00.255,classification_task,2021.2.3,Win32,59.69792848,627c6715c52fd12f31907bd0,,,,,,,,,,,,,,,,,,,,,,,l,1,3.0663,"[""0.784"",""0.181"",""0.614"",""0.725""]","[0,1,1,1]",0,20,20,20,1,1,0,,,0,FALSE,,,,,,,,,,,,,,,,,,,,,,,,,,,,,,,
,5cb265e54a0e090001cbb2a8,627c76dcabe10bfa4130cbfe,2022-05-11_22h57.00.255,classification_task,2021.2.3,Win32,59.69792848,627c6715c52fd12f31907bd0,,,,,,,,,,,,,,,,,,,,,,,l,1,3.4,"[""0.061"",""0.369"",""0.480"",""0.803""]","[1,1,1,0]",0,21,21,21,1,1,1,,,0,FALSE,,,,,,,,,,,,,,,,,,,,,,,,,,,,,,,
,5cb265e54a0e090001cbb2a8,627c76dcabe10bfa4130cbfe,2022-05-11_22h57.00.255,classification_task,2021.2.3,Win32,59.69792848,627c6715c52fd12f31907bd0,,,,,,,,,,,,,,,,,,,,,,,l,1,3.7176,"[""0.128"",""0.216"",""0.614"",""0.725""]","[1,0,1,1]",0,22,22,22,1,1,0,,,0,FALSE,,,,,,,,,,,,,,,,,,,,,,,,,,,,,,,
,5cb265e54a0e090001cbb2a8,627c76dcabe10bfa4130cbfe,2022-05-11_22h57.00.255,classification_task,2021.2.3,Win32,59.69792848,627c6715c52fd12f31907bd0,,,,,,,,,,,,,,,,,,,,,,,l,0,4.9726,"[""0.216"",""0.565"",""0.923"",""0.970""]","[0,1,1,1]",0,23,23,23,1,0,0,,,0,FALSE,,,,,,,,,,,,,,,,,,,,,,,,,,,,,,,
,5cb265e54a0e090001cbb2a8,627c76dcabe10bfa4130cbfe,2022-05-11_22h57.00.255,classification_task,2021.2.3,Win32,59.69792848,627c6715c52fd12f31907bd0,,,,,,,,,,,,,,,,,,,,,,,a,1,4.7551,"[""0.261"",""0.565"",""0.025"",""0.970""]","[1,1,0,1]",0,24,24,24,1,0,0,,,0,FALSE,,,,,,,,,,,,,,,,,,,,,,,,,,,,,,,
,5cb265e54a0e090001cbb2a8,627c76dcabe10bfa4130cbfe,2022-05-11_22h57.00.255,classification_task,2021.2.3,Win32,59.69792848,627c6715c52fd12f31907bd0,,,,,,,,,,,,,,,,,,,,,,,l,1,2.352,"[""0.128"",""0.181"",""0.785"",""0.725""]","[1,1,0,1]",0,25,25,25,1,1,0,,,0,FALSE,,,,,,,,,,,,,,,,,,,,,,,,,,,,,,,
,5cb265e54a0e090001cbb2a8,627c76dcabe10bfa4130cbfe,2022-05-11_22h57.00.255,classification_task,2021.2.3,Win32,59.69792848,627c6715c52fd12f31907bd0,,,,,,,,,,,,,,,,,,,,,,,l,1,3.0816,"[""0.061"",""0.650"",""0.480"",""0.691""]","[1,0,1,1]",0,26,26,26,1,1,1,,,0,FALSE,,,,,,,,,,,,,,,,,,,,,,,,,,,,,,,
,5cb265e54a0e090001cbb2a8,627c76dcabe10bfa4130cbfe,2022-05-11_22h57.00.255,classification_task,2021.2.3,Win32,59.69792848,627c6715c52fd12f31907bd0,,,,,,,,,,,,,,,,,,,,,,,a,1,4.6998,"[""0.261"",""0.565"",""0.923"",""0.516""]","[1,1,1,0]",0,27,27,27,1,0,0,,,0,FALSE,,,,,,,,,,,,,,,,,,,,,,,,,,,,,,,
,5cb265e54a0e090001cbb2a8,627c76dcabe10bfa4130cbfe,2022-05-11_22h57.00.255,classification_task,2021.2.3,Win32,59.69792848,627c6715c52fd12f31907bd0,,,,,,,,,,,,,,,,,,,,,,,a,1,4.2865,"[""0.325"",""0.650"",""0.845"",""0.888""]","[1,0,1,1]",0,28,28,28,1,0,1,,,0,FALSE,,,,,,,,,,,,,,,,,,,,,,,,,,,,,,,
,5cb265e54a0e090001cbb2a8,627c76dcabe10bfa4130cbfe,2022-05-11_22h57.00.255,classification_task,2021.2.3,Win32,59.69792848,627c6715c52fd12f31907bd0,,,,,,,,,,,,,,,,,,,,,,,l,0,2.1174,"[""0.325"",""0.437"",""0.845"",""0.025""]","[1,1,1,0]",0,29,29,29,1,0,1,,,0,FALSE,,,,,,,,,,,,,,,,,,,,,,,,,,,,,,,
,5cb265e54a0e090001cbb2a8,627c76dcabe10bfa4130cbfe,2022-05-11_22h57.00.255,classification_task,2021.2.3,Win32,59.69792848,627c6715c52fd12f31907bd0,,,,,,,,,,,,,,,,,,,,,,,a,1,7.8776,"[""0.325"",""0.437"",""0.656"",""0.888""]","[1,1,0,1]",0,30,30,30,1,0,1,,,0,FALSE,,,,,,,,,,,,,,,,,,,,,,,,,,,,,,,
,5cb265e54a0e090001cbb2a8,627c76dcabe10bfa4130cbfe,2022-05-11_22h57.00.255,classification_task,2021.2.3,Win32,59.69792848,627c6715c52fd12f31907bd0,,,,,,,,,,,,,,,,,,,,,,,l,1,6.27,"[""0.128"",""0.181"",""0.614"",""0.027""]","[1,1,1,0]",0,31,31,31,1,1,0,,,0,FALSE,,,,,,,,,,,,,,,,,,,,,,,,,,,,,,,
,5cb265e54a0e090001cbb2a8,627c76dcabe10bfa4130cbfe,2022-05-11_22h57.00.255,classification_task,2021.2.3,Win32,59.69792848,627c6715c52fd12f31907bd0,,,,,,,,,,,,,,,,,,,,,,,a,1,8.6913,"[""0.261"",""0.779"",""0.923"",""0.970""]","[1,0,1,1]",0,32,32,32,1,0,0,,,0,FALSE,,,,,,,,,,,,,,,,,,,,,,,,,,,,,,,
,5cb265e54a0e090001cbb2a8,627c76dcabe10bfa4130cbfe,2022-05-11_22h57.00.255,classification_task,2021.2.3,Win32,59.69792848,627c6715c52fd12f31907bd0,,,,,,,,,,,,,,,,,,,,,,,a,0,3.5535,"[""0.061"",""0.369"",""0.524"",""0.691""]","[1,1,0,1]",0,33,33,33,1,1,1,,,0,FALSE,,,,,,,,,,,,,,,,,,,,,,,,,,,,,,,
,5cb265e54a0e090001cbb2a8,627c76dcabe10bfa4130cbfe,2022-05-11_22h57.00.255,classification_task,2021.2.3,Win32,59.69792848,627c6715c52fd12f31907bd0,,,,,,,,,,,,,,,,,,,,,,,a,1,2.4189,"[""0.026"",""0.437"",""0.845"",""0.888""]","[0,1,1,1]",0,34,34,34,1,0,1,,,0,FALSE,,,,,,,,,,,,,,,,,,,,,,,,,,,,,,,
,5cb265e54a0e090001cbb2a8,627c76dcabe10bfa4130cbfe,2022-05-11_22h57.00.255,classification_task,2021.2.3,Win32,59.69792848,627c6715c52fd12f31907bd0,,,,,,,,,,,,,,,,,,,,,,,l,1,1.2851,"[""0.128"",""0.181"",""0.216"",""0.725""]","[1,1,0,1]",0,35,35,35,1,1,0,,,0,FALSE,,,,,,,,,,,,,,,,,,,,,,,,,,,,,,,
,5cb265e54a0e090001cbb2a8,627c76dcabe10bfa4130cbfe,2022-05-11_22h57.00.255,classification_task,2021.2.3,Win32,59.69792848,627c6715c52fd12f31907bd0,,,,,,,,,,,,,,,,,,,,,,,l,0,2.0499,"[""0.325"",""0.437"",""0.514"",""0.888""]","[1,1,0,1]",0,36,36,36,1,0,1,,,0,FALSE,,,,,,,,,,,,,,,,,,,,,,,,,,,,,,,
,5cb265e54a0e090001cbb2a8,627c76dcabe10bfa4130cbfe,2022-05-11_22h57.00.255,classification_task,2021.2.3,Win32,59.69792848,627c6715c52fd12f31907bd0,,,,,,,,,,,,,,,,,,,,,,,a,0,2.3197,"[""0.061"",""0.779"",""0.480"",""0.691""]","[1,0,1,1]",0,37,37,37,1,1,1,,,0,FALSE,,,,,,,,,,,,,,,,,,,,,,,,,,,,,,,
,5cb265e54a0e090001cbb2a8,627c76dcabe10bfa4130cbfe,2022-05-11_22h57.00.255,classification_task,2021.2.3,Win32,59.69792848,627c6715c52fd12f31907bd0,,,,,,,,,,,,,,,,,,,,,,,a,1,0.8656,"[""0.261"",""0.565"",""0.025"",""0.970""]","[1,1,0,1]",0,38,38,38,1,0,0,,,0,FALSE,,,,,,,,,,,,,,,,,,,,,,,,,,,,,,,
,5cb265e54a0e090001cbb2a8,627c76dcabe10bfa4130cbfe,2022-05-11_22h57.00.255,classification_task,2021.2.3,Win32,59.69792848,627c6715c52fd12f31907bd0,,,,,,,,,,,,,,,,,,,,,,,l,1,0.7354,"[""0.128"",""0.803"",""0.614"",""0.725""]","[1,0,1,1]",0,39,39,39,1,1,0,,,0,FALSE,,,,,,,,,,,,,,,,,,,,,,,,,,,,,,,
,5cb265e54a0e090001cbb2a8,627c76dcabe10bfa4130cbfe,2022-05-11_22h57.00.255,classification_task,2021.2.3,Win32,59.69792848,627c6715c52fd12f31907bd0,,,,,,,,,,,,,,,,,,,,,,,a,1,1.2185,"[""0.325"",""0.437"",""0.845"",""0.784""]","[1,1,1,0]",0,40,40,40,1,0,1,,,0,FALSE,,,,,,,,,,,,,,,,,,,,,,,,,,,,,,,
,5cb265e54a0e090001cbb2a8,627c76dcabe10bfa4130cbfe,2022-05-11_22h57.00.255,classification_task,2021.2.3,Win32,59.69792848,627c6715c52fd12f31907bd0,,,,,,,,,,,,,,,,,,,,,,,l,1,1.1198,"[""0.656"",""0.181"",""0.614"",""0.725""]","[0,1,1,1]",0,41,41,41,1,1,0,,,0,FALSE,,,,,,,,,,,,,,,,,,,,,,,,,,,,,,,
,5cb265e54a0e090001cbb2a8,627c76dcabe10bfa4130cbfe,2022-05-11_22h57.00.255,classification_task,2021.2.3,Win32,59.69792848,627c6715c52fd12f31907bd0,,,,,,,,,,,,,,,,,,,,,,,l,1,1.1681,"[""0.061"",""0.369"",""0.480"",""0.026""]","[1,1,1,0]",0,42,42,42,1,1,1,,,0,FALSE,,,,,,,,,,,,,,,,,,,,,,,,,,,,,,,
,5cb265e54a0e090001cbb2a8,627c76dcabe10bfa4130cbfe,2022-05-11_22h57.00.255,classification_task,2021.2.3,Win32,59.69792848,627c6715c52fd12f31907bd0,,,,,,,,,,,,,,,,,,,,,,,l,0,0.8182,"[""0.325"",""0.803"",""0.845"",""0.888""]","[1,0,1,1]",0,43,43,43,1,0,1,,,0,FALSE,,,,,,,,,,,,,,,,,,,,,,,,,,,,,,,
,5cb265e54a0e090001cbb2a8,627c76dcabe10bfa4130cbfe,2022-05-11_22h57.00.255,classification_task,2021.2.3,Win32,59.69792848,627c6715c52fd12f31907bd0,,,,,,,,,,,,,,,,,,,,,,,a,1,1.2361,"[""0.656"",""0.565"",""0.923"",""0.970""]","[0,1,1,1]",0,44,44,44,1,0,0,,,0,FALSE,,,,,,,,,,,,,,,,,,,,,,,,,,,,,,,
,5cb265e54a0e090001cbb2a8,627c76dcabe10bfa4130cbfe,2022-05-11_22h57.00.255,classification_task,2021.2.3,Win32,59.69792848,627c6715c52fd12f31907bd0,,,,,,,,,,,,,,,,,,,,,,,a,0,2.6052,"[""0.128"",""0.181"",""0.614"",""0.515""]","[1,1,1,0]",0,45,45,45,1,1,0,,,0,FALSE,,,,,,,,,,,,,,,,,,,,,,,,,,,,,,,
,5cb265e54a0e090001cbb2a8,627c76dcabe10bfa4130cbfe,2022-05-11_22h57.00.255,classification_task,2021.2.3,Win32,59.69792848,627c6715c52fd12f31907bd0,,,,,,,,,,,,,,,,,,,,,,,a,0,0.8162,"[""0.785"",""0.369"",""0.480"",""0.691""]","[0,1,1,1]",0,46,46,46,1,1,1,,,0,FALSE,,,,,,,,,,,,,,,,,,,,,,,,,,,,,,,
,5cb265e54a0e090001cbb2a8,627c76dcabe10bfa4130cbfe,2022-05-11_22h57.00.255,classification_task,2021.2.3,Win32,59.69792848,627c6715c52fd12f31907bd0,,,,,,,,,,,,,,,,,,,,,,,l,0,1.1352,"[""0.261"",""0.565"",""0.923"",""0.524""]","[1,1,1,0]",0,47,47,47,1,0,0,,,0,FALSE,,,,,,,,,,,,,,,,,,,,,,,,,,,,,,,
,5cb265e54a0e090001cbb2a8,627c76dcabe10bfa4130cbfe,2022-05-11_22h57.00.255,classification_task,2021.2.3,Win32,59.69792848,627c6715c52fd12f31907bd0,,,,,,,,,,,,,,,,,,,,,,,l,0,0.7849,"[""0.784"",""0.437"",""0.845"",""0.888""]","[0,1,1,1]",0,48,48,48,1,0,1,,,0,FALSE,,,,,,,,,,,,,,,,,,,,,,,,,,,,,,,
,5cb265e54a0e090001cbb2a8,627c76dcabe10bfa4130cbfe,2022-05-11_22h57.00.255,classification_task,2021.2.3,Win32,59.69792848,627c6715c52fd12f31907bd0,,,,,,,,,,,,,,,,,,,,,,,a,0,1.936,"[""0.128"",""0.181"",""0.779"",""0.725""]","[1,1,0,1]",0,49,49,49,1,1,0,,,0,FALSE,,,,,,,,,,,,,,,,,,,,,,,,,,,,,,,
,5cb265e54a0e090001cbb2a8,627c76dcabe10bfa4130cbfe,2022-05-11_22h57.00.255,classification_task,2021.2.3,Win32,59.69792848,627c6715c52fd12f31907bd0,,,,,,,,,,,,,,,,,,,,,,,a,1,1.2364,"[""0.261"",""0.565"",""0.923"",""0.779""]","[1,1,1,0]",0,50,50,50,1,0,0,,,0,FALSE,,,,,,,,,,,,,,,,,,,,,,,,,,,,,,,
,5cb265e54a0e090001cbb2a8,627c76dcabe10bfa4130cbfe,2022-05-11_22h57.00.255,classification_task,2021.2.3,Win32,59.69792848,627c6715c52fd12f31907bd0,,,,,,,,,,,,,,,,,,,,,,,a,1,1.0526,"[""0.325"",""0.437"",""0.845"",""0.796""]","[1,1,1,0]",0,51,51,51,1,0,1,,,0,FALSE,,,,,,,,,,,,,,,,,,,,,,,,,,,,,,,
,5cb265e54a0e090001cbb2a8,627c76dcabe10bfa4130cbfe,2022-05-11_22h57.00.255,classification_task,2021.2.3,Win32,59.69792848,627c6715c52fd12f31907bd0,,,,,,,,,,,,,,,,,,,,,,,a,0,0.7512,"[""0.061"",""0.369"",""0.524"",""0.691""]","[1,1,0,1]",0,52,52,52,1,1,1,,,0,FALSE,,,,,,,,,,,,,,,,,,,,,,,,,,,,,,,
,5cb265e54a0e090001cbb2a8,627c76dcabe10bfa4130cbfe,2022-05-11_22h57.00.255,classification_task,2021.2.3,Win32,59.69792848,627c6715c52fd12f31907bd0,,,,,,,,,,,,,,,,,,,,,,,l,1,1.0023,"[""0.128"",""0.514"",""0.614"",""0.725""]","[1,0,1,1]",0,53,53,53,1,1,0,,,0,FALSE,,,,,,,,,,,,,,,,,,,,,,,,,,,,,,,
,5cb265e54a0e090001cbb2a8,627c76dcabe10bfa4130cbfe,2022-05-11_22h57.00.255,classification_task,2021.2.3,Win32,59.69792848,627c6715c52fd12f31907bd0,,,,,,,,,,,,,,,,,,,,,,,l,1,0.8353,"[""0.025"",""0.181"",""0.614"",""0.725""]","[0,1,1,1]",0,54,54,54,1,1,0,,,0,FALSE,,,,,,,,,,,,,,,,,,,,,,,,,,,,,,,
,5cb265e54a0e090001cbb2a8,627c76dcabe10bfa4130cbfe,2022-05-11_22h57.00.255,classification_task,2021.2.3,Win32,59.69792848,627c6715c52fd12f31907bd0,,,,,,,,,,,,,,,,,,,,,,,a,1,0.685,"[""0.261"",""0.025"",""0.923"",""0.970""]","[1,0,1,1]",0,55,55,55,1,0,0,,,0,FALSE,,,,,,,,,,,,,,,,,,,,,,,,,,,,,,,
,5cb265e54a0e090001cbb2a8,627c76dcabe10bfa4130cbfe,2022-05-11_22h57.00.255,classification_task,2021.2.3,Win32,59.69792848,627c6715c52fd12f31907bd0,,,,,,,,,,,,,,,,,,,,,,,l,1,1.5533,"[""0.516"",""0.369"",""0.480"",""0.691""]","[0,1,1,1]",0,56,56,56,1,1,1,,,0,FALSE,,,,,,,,,,,,,,,,,,,,,,,,,,,,,,,
,5cb265e54a0e090001cbb2a8,627c76dcabe10bfa4130cbfe,2022-05-11_22h57.00.255,classification_task,2021.2.3,Win32,59.69792848,627c6715c52fd12f31907bd0,,,,,,,,,,,,,,,,,,,,,,,a,1,0.7021,"[""0.325"",""0.437"",""0.026"",""0.888""]","[1,1,0,1]",0,57,57,57,1,0,1,,,0,FALSE,,,,,,,,,,,,,,,,,,,,,,,,,,,,,,,
,5cb265e54a0e090001cbb2a8,627c76dcabe10bfa4130cbfe,2022-05-11_22h57.00.255,classification_task,2021.2.3,Win32,59.69792848,627c6715c52fd12f31907bd0,,,,,,,,,,,,,,,,,,,,,,,l,0,2.521,"[""0.325"",""0.514"",""0.845"",""0.888""]","[1,0,1,1]",0,58,58,58,1,0,1,,,0,FALSE,,,,,,,,,,,,,,,,,,,,,,,,,,,,,,,
,5cb265e54a0e090001cbb2a8,627c76dcabe10bfa4130cbfe,2022-05-11_22h57.00.255,classification_task,2021.2.3,Win32,59.69792848,627c6715c52fd12f31907bd0,,,,,,,,,,,,,,,,,,,,,,,l,1,0.3657,"[""0.061"",""0.785"",""0.480"",""0.691""]","[1,0,1,1]",0,59,59,59,1,1,1,,,0,FALSE,,,,,,,,,,,,,,,,,,,,,,,,,,,,,,,
,5cb265e54a0e090001cbb2a8,627c76dcabe10bfa4130cbfe,2022-05-11_22h57.00.255,classification_task,2021.2.3,Win32,59.69792848,627c6715c52fd12f31907bd0,,,,,,,,,,,,,,,,,,,,,,,a,0,0.9027,"[""0.061"",""0.369"",""0.480"",""0.779""]","[1,1,1,0]",0,60,60,60,1,1,1,,,0,FALSE,,,,,,,,,,,,,,,,,,,,,,,,,,,,,,,
,5cb265e54a0e090001cbb2a8,627c76dcabe10bfa4130cbfe,2022-05-11_22h57.00.255,classification_task,2021.2.3,Win32,59.69792848,627c6715c52fd12f31907bd0,,,,,,,,,,,,,,,,,,,,,,,a,1,0.3354,"[""0.779"",""0.565"",""0.923"",""0.970""]","[0,1,1,1]",0,61,61,61,1,0,0,,,0,FALSE,,,,,,,,,,,,,,,,,,,,,,,,,,,,,,,
,5cb265e54a0e090001cbb2a8,627c76dcabe10bfa4130cbfe,2022-05-11_22h57.00.255,classification_task,2021.2.3,Win32,59.69792848,627c6715c52fd12f31907bd0,,,,,,,,,,,,,,,,,,,,,,,a,1,1.3027,"[""0.261"",""0.565"",""0.803"",""0.970""]","[1,1,0,1]",0,62,62,62,1,0,0,,,0,FALSE,,,,,,,,,,,,,,,,,,,,,,,,,,,,,,,
,5cb265e54a0e090001cbb2a8,627c76dcabe10bfa4130cbfe,2022-05-11_22h57.00.255,classification_task,2021.2.3,Win32,59.69792848,627c6715c52fd12f31907bd0,,,,,,,,,,,,,,,,,,,,,,,l,1,0.485,"[""0.128"",""0.181"",""0.614"",""0.025""]","[1,1,1,0]",0,63,63,63,1,1,0,,,0,FALSE,,,,,,,,,,,,,,,,,,,,,,,,,,,,,,,
,5cb265e54a0e090001cbb2a8,627c76dcabe10bfa4130cbfe,2022-05-11_22h57.00.255,classification_task,2021.2.3,Win32,59.69792848,627c6715c52fd12f31907bd0,,,,,,,,,,,,,,,,,,,,,,,,,,,,,,,,,,,,,,,0, ,,0,1.841464262,849.9271,0,0,0,0,1,2,1,,,,,,,,,,,,,,,,,,
,5cb265e54a0e090001cbb2a8,627c76dcabe10bfa4130cbfe,2022-05-11_22h57.00.255,classification_task,2021.2.3,Win32,59.69792848,627c6715c52fd12f31907bd0,,,,,,,,,,,,,,,,,,,,,,,,,,,,,,,,,,,,,,,1,  ,,0,5.463740018,860.4705,0,0,0,0,1,2,1,,,,,,,,,,,,,,,,,,
,5cb265e54a0e090001cbb2a8,627c76dcabe10bfa4130cbfe,2022-05-11_22h57.00.255,classification_task,2021.2.3,Win32,59.69792848,627c6715c52fd12f31907bd0,,,,,,,,,,,,,,,,,,,,,,,,,,,,,,,,,,,,,,,2,  ,,0,1.111166552,865.1229,0,0,0,0,1,2,1,,,,,,,,,,,,,,,,,,
,5cb265e54a0e090001cbb2a8,627c76dcabe10bfa4130cbfe,2022-05-11_22h57.00.255,classification_task,2021.2.3,Win32,59.69792848,627c6715c52fd12f31907bd0,,,,,,,,,,,,,,,,,,,,,,,,,,,,,,,,,,,,,,,,,,,,,0,0,0,0,1,,1,,,,,,,,,,,,,,,,,,
,5cb265e54a0e090001cbb2a8,627c76dcabe10bfa4130cbfe,2022-05-11_22h57.00.255,classification_task,2021.2.3,Win32,59.69792848,627c6715c52fd12f31907bd0,,,,,,,,,,,,,,,,,,,,,space,23.0819,a,0,4.3038,"[""0.656"",""0.369"",""0.480"",""0.691""]","[0,1,1,1]",0,0,0,0,1,1,1,,,0,FALSE,,,,,,,,,,,,,,,,,,,,,,,,,,,,,,,
,5cb265e54a0e090001cbb2a8,627c76dcabe10bfa4130cbfe,2022-05-11_22h57.00.255,classification_task,2021.2.3,Win32,59.69792848,627c6715c52fd12f31907bd0,,,,,,,,,,,,,,,,,,,,,,,l,1,6.4649,"[""0.128"",""0.181"",""0.650"",""0.725""]","[1,1,0,1]",0,1,1,1,1,1,0,,,0,FALSE,,,,,,,,,,,,,,,,,,,,,,,,,,,,,,,
,5cb265e54a0e090001cbb2a8,627c76dcabe10bfa4130cbfe,2022-05-11_22h57.00.255,classification_task,2021.2.3,Win32,59.69792848,627c6715c52fd12f31907bd0,,,,,,,,,,,,,,,,,,,,,,,l,0,5.1691,"[""0.784"",""0.565"",""0.923"",""0.970""]","[0,1,1,1]",0,2,2,2,1,0,0,,,0,FALSE,,,,,,,,,,,,,,,,,,,,,,,,,,,,,,,
,5cb265e54a0e090001cbb2a8,627c76dcabe10bfa4130cbfe,2022-05-11_22h57.00.255,classification_task,2021.2.3,Win32,59.69792848,627c6715c52fd12f31907bd0,,,,,,,,,,,,,,,,,,,,,,,a,0,2.7151,"[""0.128"",""0.026"",""0.614"",""0.725""]","[1,0,1,1]",0,3,3,3,1,1,0,,,0,FALSE,,,,,,,,,,,,,,,,,,,,,,,,,,,,,,,
,5cb265e54a0e090001cbb2a8,627c76dcabe10bfa4130cbfe,2022-05-11_22h57.00.255,classification_task,2021.2.3,Win32,59.69792848,627c6715c52fd12f31907bd0,,,,,,,,,,,,,,,,,,,,,,,l,1,2.1363,"[""0.514"",""0.181"",""0.614"",""0.725""]","[0,1,1,1]",0,4,4,4,1,1,0,,,0,FALSE,,,,,,,,,,,,,,,,,,,,,,,,,,,,,,,
,5cb265e54a0e090001cbb2a8,627c76dcabe10bfa4130cbfe,2022-05-11_22h57.00.255,classification_task,2021.2.3,Win32,59.69792848,627c6715c52fd12f31907bd0,,,,,,,,,,,,,,,,,,,,,,,l,0,2.8367,"[""0.261"",""0.026"",""0.923"",""0.970""]","[1,0,1,1]",0,5,5,5,1,0,0,,,0,FALSE,,,,,,,,,,,,,,,,,,,,,,,,,,,,,,,
,5cb265e54a0e090001cbb2a8,627c76dcabe10bfa4130cbfe,2022-05-11_22h57.00.255,classification_task,2021.2.3,Win32,59.69792848,627c6715c52fd12f31907bd0,,,,,,,,,,,,,,,,,,,,,,,a,1,3.936,"[""0.325"",""0.437"",""0.796"",""0.888""]","[1,1,0,1]",0,6,6,6,1,0,1,,,0,FALSE,,,,,,,,,,,,,,,,,,,,,,,,,,,,,,,
,5cb265e54a0e090001cbb2a8,627c76dcabe10bfa4130cbfe,2022-05-11_22h57.00.255,classification_task,2021.2.3,Win32,59.69792848,627c6715c52fd12f31907bd0,,,,,,,,,,,,,,,,,,,,,,,l,1,1.483,"[""0.128"",""0.181"",""0.614"",""0.785""]","[1,1,1,0]",0,7,7,7,1,1,0,,,0,FALSE,,,,,,,,,,,,,,,,,,,,,,,,,,,,,,,
,5cb265e54a0e090001cbb2a8,627c76dcabe10bfa4130cbfe,2022-05-11_22h57.00.255,classification_task,2021.2.3,Win32,59.69792848,627c6715c52fd12f31907bd0,,,,,,,,,,,,,,,,,,,,,,,a,0,1.9004,"[""0.061"",""0.369"",""0.516"",""0.691""]","[1,1,0,1]",0,8,8,8,1,1,1,,,0,FALSE,,,,,,,,,,,,,,,,,,,,,,,,,,,,,,,
,5cb265e54a0e090001cbb2a8,627c76dcabe10bfa4130cbfe,2022-05-11_22h57.00.255,classification_task,2021.2.3,Win32,59.69792848,627c6715c52fd12f31907bd0,,,,,,,,,,,,,,,,,,,,,,,l,0,1.2859,"[""0.516"",""0.437"",""0.845"",""0.888""]","[0,1,1,1]",0,9,9,9,1,0,1,,,0,FALSE,,,,,,,,,,,,,,,,,,,,,,,,,,,,,,,
,5cb265e54a0e090001cbb2a8,627c76dcabe10bfa4130cbfe,2022-05-11_22h57.00.255,classification_task,2021.2.3,Win32,59.69792848,627c6715c52fd12f31907bd0,,,,,,,,,,,,,,,,,,,,,,,l,0,1.118,"[""0.261"",""0.565"",""0.923"",""0.803""]","[1,1,1,0]",0,10,10,10,1,0,0,,,0,FALSE,,,,,,,,,,,,,,,,,,,,,,,,,,,,,,,
,5cb265e54a0e090001cbb2a8,627c76dcabe10bfa4130cbfe,2022-05-11_22h57.00.255,classification_task,2021.2.3,Win32,59.69792848,627c6715c52fd12f31907bd0,,,,,,,,,,,,,,,,,,,,,,,l,1,0.7855,"[""0.061"",""0.369"",""0.480"",""0.025""]","[1,1,1,0]",0,11,11,11,1,1,1,,,0,FALSE,,,,,,,,,,,,,,,,,,,,,,,,,,,,,,,
,5cb265e54a0e090001cbb2a8,627c76dcabe10bfa4130cbfe,2022-05-11_22h57.00.255,classification_task,2021.2.3,Win32,59.69792848,627c6715c52fd12f31907bd0,,,,,,,,,,,,,,,,,,,,,,,a,1,0.751,"[""0.325"",""0.437"",""0.845"",""0.796""]","[1,1,1,0]",0,12,12,12,1,0,1,,,0,FALSE,,,,,,,,,,,,,,,,,,,,,,,,,,,,,,,
,5cb265e54a0e090001cbb2a8,627c76dcabe10bfa4130cbfe,2022-05-11_22h57.00.255,classification_task,2021.2.3,Win32,59.69792848,627c6715c52fd12f31907bd0,,,,,,,,,,,,,,,,,,,,,,,l,0,1.2681,"[""0.325"",""0.650"",""0.845"",""0.888""]","[1,0,1,1]",0,13,13,13,1,0,1,,,0,FALSE,,,,,,,,,,,,,,,,,,,,,,,,,,,,,,,
,5cb265e54a0e090001cbb2a8,627c76dcabe10bfa4130cbfe,2022-05-11_22h57.00.255,classification_task,2021.2.3,Win32,59.69792848,627c6715c52fd12f31907bd0,,,,,,,,,,,,,,,,,,,,,,,l,0,0.2838,"[""0.261"",""0.565"",""0.519"",""0.970""]","[1,1,0,1]",0,14,14,14,1,0,0,,,0,FALSE,,,,,,,,,,,,,,,,,,,,,,,,,,,,,,,
,5cb265e54a0e090001cbb2a8,627c76dcabe10bfa4130cbfe,2022-05-11_22h57.00.255,classification_task,2021.2.3,Win32,59.69792848,627c6715c52fd12f31907bd0,,,,,,,,,,,,,,,,,,,,,,,l,1,0.9024,"[""0.061"",""0.803"",""0.480"",""0.691""]","[1,0,1,1]",0,15,15,15,1,1,1,,,0,FALSE,,,,,,,,,,,,,,,,,,,,,,,,,,,,,,,
,5cb265e54a0e090001cbb2a8,627c76dcabe10bfa4130cbfe,2022-05-11_22h57.00.255,classification_task,2021.2.3,Win32,59.69792848,627c6715c52fd12f31907bd0,,,,,,,,,,,,,,,,,,,,,,,a,0,0.802,"[""0.061"",""0.514"",""0.480"",""0.691""]","[1,0,1,1]",0,16,16,16,1,1,1,,,0,FALSE,,,,,,,,,,,,,,,,,,,,,,,,,,,,,,,
,5cb265e54a0e090001cbb2a8,627c76dcabe10bfa4130cbfe,2022-05-11_22h57.00.255,classification_task,2021.2.3,Win32,59.69792848,627c6715c52fd12f31907bd0,,,,,,,,,,,,,,,,,,,,,,,a,0,0.25,"[""0.128"",""0.656"",""0.614"",""0.725""]","[1,0,1,1]",0,17,17,17,1,1,0,,,0,FALSE,,,,,,,,,,,,,,,,,,,,,,,,,,,,,,,
,5cb265e54a0e090001cbb2a8,627c76dcabe10bfa4130cbfe,2022-05-11_22h57.00.255,classification_task,2021.2.3,Win32,59.69792848,627c6715c52fd12f31907bd0,,,,,,,,,,,,,,,,,,,,,,,a,0,0.7351,"[""0.803"",""0.369"",""0.480"",""0.691""]","[0,1,1,1]",0,18,18,18,1,1,1,,,0,FALSE,,,,,,,,,,,,,,,,,,,,,,,,,,,,,,,
,5cb265e54a0e090001cbb2a8,627c76dcabe10bfa4130cbfe,2022-05-11_22h57.00.255,classification_task,2021.2.3,Win32,59.69792848,627c6715c52fd12f31907bd0,,,,,,,,,,,,,,,,,,,,,,,l,1,1.7539,"[""0.803"",""0.181"",""0.614"",""0.725""]","[0,1,1,1]",0,19,19,19,1,1,0,,,0,FALSE,,,,,,,,,,,,,,,,,,,,,,,,,,,,,,,
,5cb265e54a0e090001cbb2a8,627c76dcabe10bfa4130cbfe,2022-05-11_22h57.00.255,classification_task,2021.2.3,Win32,59.69792848,627c6715c52fd12f31907bd0,,,,,,,,,,,,,,,,,,,,,,,a,0,1.0987,"[""0.061"",""0.369"",""0.480"",""0.656""]","[1,1,1,0]",0,20,20,20,1,1,1,,,0,FALSE,,,,,,,,,,,,,,,,,,,,,,,,,,,,,,,
,5cb265e54a0e090001cbb2a8,627c76dcabe10bfa4130cbfe,2022-05-11_22h57.00.255,classification_task,2021.2.3,Win32,59.69792848,627c6715c52fd12f31907bd0,,,,,,,,,,,,,,,,,,,,,,,l,0,0.3011,"[""0.650"",""0.437"",""0.845"",""0.888""]","[0,1,1,1]",0,21,21,21,1,0,1,,,0,FALSE,,,,,,,,,,,,,,,,,,,,,,,,,,,,,,,
,5cb265e54a0e090001cbb2a8,627c76dcabe10bfa4130cbfe,2022-05-11_22h57.00.255,classification_task,2021.2.3,Win32,59.69792848,627c6715c52fd12f31907bd0,,,,,,,,,,,,,,,,,,,,,,,l,0,0.8679,"[""0.325"",""0.026"",""0.845"",""0.888""]","[1,0,1,1]",0,22,22,22,1,0,1,,,0,FALSE,,,,,,,,,,,,,,,,,,,,,,,,,,,,,,,
,5cb265e54a0e090001cbb2a8,627c76dcabe10bfa4130cbfe,2022-05-11_22h57.00.255,classification_task,2021.2.3,Win32,59.69792848,627c6715c52fd12f31907bd0,,,,,,,,,,,,,,,,,,,,,,,a,1,1.0857,"[""0.261"",""0.803"",""0.923"",""0.970""]","[1,0,1,1]",0,23,23,23,1,0,0,,,0,FALSE,,,,,,,,,,,,,,,,,,,,,,,,,,,,,,,
,5cb265e54a0e090001cbb2a8,627c76dcabe10bfa4130cbfe,2022-05-11_22h57.00.255,classification_task,2021.2.3,Win32,59.69792848,627c6715c52fd12f31907bd0,,,,,,,,,,,,,,,,,,,,,,,a,0,1.3694,"[""0.128"",""0.181"",""0.614"",""0.026""]","[1,1,1,0]",0,24,24,24,1,1,0,,,0,FALSE,,,,,,,,,,,,,,,,,,,,,,,,,,,,,,,
,5cb265e54a0e090001cbb2a8,627c76dcabe10bfa4130cbfe,2022-05-11_22h57.00.255,classification_task,2021.2.3,Win32,59.69792848,627c6715c52fd12f31907bd0,,,,,,,,,,,,,,,,,,,,,,,l,0,0.767,"[""0.515"",""0.565"",""0.923"",""0.970""]","[0,1,1,1]",0,25,25,25,1,0,0,,,0,FALSE,,,,,,,,,,,,,,,,,,,,,,,,,,,,,,,
,5cb265e54a0e090001cbb2a8,627c76dcabe10bfa4130cbfe,2022-05-11_22h57.00.255,classification_task,2021.2.3,Win32,59.69792848,627c6715c52fd12f31907bd0,,,,,,,,,,,,,,,,,,,,,,,a,1,0.3171,"[""0.261"",""0.565"",""0.923"",""0.784""]","[1,1,1,0]",0,26,26,26,1,0,0,,,0,FALSE,,,,,,,,,,,,,,,,,,,,,,,,,,,,,,,
,5cb265e54a0e090001cbb2a8,627c76dcabe10bfa4130cbfe,2022-05-11_22h57.00.255,classification_task,2021.2.3,Win32,59.69792848,627c6715c52fd12f31907bd0,,,,,,,,,,,,,,,,,,,,,,,l,1,0.6183,"[""0.128"",""0.181"",""0.656"",""0.725""]","[1,1,0,1]",0,27,27,27,1,1,0,,,0,FALSE,,,,,,,,,,,,,,,,,,,,,,,,,,,,,,,
,5cb265e54a0e090001cbb2a8,627c76dcabe10bfa4130cbfe,2022-05-11_22h57.00.255,classification_task,2021.2.3,Win32,59.69792848,627c6715c52fd12f31907bd0,,,,,,,,,,,,,,,,,,,,,,,a,1,0.7023,"[""0.325"",""0.437"",""0.516"",""0.888""]","[1,1,0,1]",0,28,28,28,1,0,1,,,0,FALSE,,,,,,,,,,,,,,,,,,,,,,,,,,,,,,,
,5cb265e54a0e090001cbb2a8,627c76dcabe10bfa4130cbfe,2022-05-11_22h57.00.255,classification_task,2021.2.3,Win32,59.69792848,627c6715c52fd12f31907bd0,,,,,,,,,,,,,,,,,,,,,,,l,0,1.319,"[""0.261"",""0.565"",""0.656"",""0.970""]","[1,1,0,1]",0,29,29,29,1,0,0,,,0,FALSE,,,,,,,,,,,,,,,,,,,,,,,,,,,,,,,
,5cb265e54a0e090001cbb2a8,627c76dcabe10bfa4130cbfe,2022-05-11_22h57.00.255,classification_task,2021.2.3,Win32,59.69792848,627c6715c52fd12f31907bd0,,,,,,,,,,,,,,,,,,,,,,,a,1,0.5338,"[""0.325"",""0.437"",""0.845"",""0.784""]","[1,1,1,0]",0,30,30,30,1,0,1,,,0,FALSE,,,,,,,,,,,,,,,,,,,,,,,,,,,,,,,
,5cb265e54a0e090001cbb2a8,627c76dcabe10bfa4130cbfe,2022-05-11_22h57.00.255,classification_task,2021.2.3,Win32,59.69792848,627c6715c52fd12f31907bd0,,,,,,,,,,,,,,,,,,,,,,,a,0,0.5853,"[""0.061"",""0.369"",""0.027"",""0.691""]","[1,1,0,1]",0,31,31,31,1,1,1,,,0,FALSE,,,,,,,,,,,,,,,,,,,,,,,,,,,,,,,
,5cb265e54a0e090001cbb2a8,627c76dcabe10bfa4130cbfe,2022-05-11_22h57.00.255,classification_task,2021.2.3,Win32,59.69792848,627c6715c52fd12f31907bd0,,,,,,,,,,,,,,,,,,,,,,,a,1,0.5684,"[""0.325"",""0.437"",""0.650"",""0.888""]","[1,1,0,1]",0,32,32,32,1,0,1,,,0,FALSE,,,,,,,,,,,,,,,,,,,,,,,,,,,,,,,
,5cb265e54a0e090001cbb2a8,627c76dcabe10bfa4130cbfe,2022-05-11_22h57.00.255,classification_task,2021.2.3,Win32,59.69792848,627c6715c52fd12f31907bd0,,,,,,,,,,,,,,,,,,,,,,,l,0,0.7359,"[""0.516"",""0.437"",""0.845"",""0.888""]","[0,1,1,1]",0,33,33,33,1,0,1,,,0,FALSE,,,,,,,,,,,,,,,,,,,,,,,,,,,,,,,
,5cb265e54a0e090001cbb2a8,627c76dcabe10bfa4130cbfe,2022-05-11_22h57.00.255,classification_task,2021.2.3,Win32,59.69792848,627c6715c52fd12f31907bd0,,,,,,,,,,,,,,,,,,,,,,,l,0,1.0528,"[""0.261"",""0.565"",""0.923"",""0.779""]","[1,1,1,0]",0,34,34,34,1,0,0,,,0,FALSE,,,,,,,,,,,,,,,,,,,,,,,,,,,,,,,
,5cb265e54a0e090001cbb2a8,627c76dcabe10bfa4130cbfe,2022-05-11_22h57.00.255,classification_task,2021.2.3,Win32,59.69792848,627c6715c52fd12f31907bd0,,,,,,,,,,,,,,,,,,,,,,,a,0,0.6515,"[""0.061"",""0.369"",""0.803"",""0.691""]","[1,1,0,1]",0,35,35,35,1,1,1,,,0,FALSE,,,,,,,,,,,,,,,,,,,,,,,,,,,,,,,
,5cb265e54a0e090001cbb2a8,627c76dcabe10bfa4130cbfe,2022-05-11_22h57.00.255,classification_task,2021.2.3,Win32,59.69792848,627c6715c52fd12f31907bd0,,,,,,,,,,,,,,,,,,,,,,,l,0,0.3851,"[""0.261"",""0.656"",""0.923"",""0.970""]","[1,0,1,1]",0,36,36,36,1,0,0,,,0,FALSE,,,,,,,,,,,,,,,,,,,,,,,,,,,,,,,
,5cb265e54a0e090001cbb2a8,627c76dcabe10bfa4130cbfe,2022-05-11_22h57.00.255,classification_task,2021.2.3,Win32,59.69792848,627c6715c52fd12f31907bd0,,,,,,,,,,,,,,,,,,,,,,,l,1,0.2515,"[""0.779"",""0.181"",""0.614"",""0.725""]","[0,1,1,1]",0,37,37,37,1,1,0,,,0,FALSE,,,,,,,,,,,,,,,,,,,,,,,,,,,,,,,
,5cb265e54a0e090001cbb2a8,627c76dcabe10bfa4130cbfe,2022-05-11_22h57.00.255,classification_task,2021.2.3,Win32,59.69792848,627c6715c52fd12f31907bd0,,,,,,,,,,,,,,,,,,,,,,,a,0,0.4019,"[""0.128"",""0.181"",""0.614"",""0.779""]","[1,1,1,0]",0,38,38,38,1,1,0,,,0,FALSE,,,,,,,,,,,,,,,,,,,,,,,,,,,,,,,
,5cb265e54a0e090001cbb2a8,627c76dcabe10bfa4130cbfe,2022-05-11_22h57.00.255,classification_task,2021.2.3,Win32,59.69792848,627c6715c52fd12f31907bd0,,,,,,,,,,,,,,,,,,,,,,,a,0,0.2683,"[""0.128"",""0.181"",""0.779"",""0.725""]","[1,1,0,1]",0,39,39,39,1,1,0,,,0,FALSE,,,,,,,,,,,,,,,,,,,,,,,,,,,,,,,
,5cb265e54a0e090001cbb2a8,627c76dcabe10bfa4130cbfe,2022-05-11_22h57.00.255,classification_task,2021.2.3,Win32,59.69792848,627c6715c52fd12f31907bd0,,,,,,,,,,,,,,,,,,,,,,,a,1,0.4347,"[""0.796"",""0.565"",""0.923"",""0.970""]","[0,1,1,1]",0,40,40,40,1,0,0,,,0,FALSE,,,,,,,,,,,,,,,,,,,,,,,,,,,,,,,
,5cb265e54a0e090001cbb2a8,627c76dcabe10bfa4130cbfe,2022-05-11_22h57.00.255,classification_task,2021.2.3,Win32,59.69792848,627c6715c52fd12f31907bd0,,,,,,,,,,,,,,,,,,,,,,,a,0,0.5351,"[""0.128"",""0.027"",""0.614"",""0.725""]","[1,0,1,1]",0,41,41,41,1,1,0,,,0,FALSE,,,,,,,,,,,,,,,,,,,,,,,,,,,,,,,
,5cb265e54a0e090001cbb2a8,627c76dcabe10bfa4130cbfe,2022-05-11_22h57.00.255,classification_task,2021.2.3,Win32,59.69792848,627c6715c52fd12f31907bd0,,,,,,,,,,,,,,,,,,,,,,,l,0,0.3181,"[""0.261"",""0.565"",""0.519"",""0.970""]","[1,1,0,1]",0,42,42,42,1,0,0,,,0,FALSE,,,,,,,,,,,,,,,,,,,,,,,,,,,,,,,
,5cb265e54a0e090001cbb2a8,627c76dcabe10bfa4130cbfe,2022-05-11_22h57.00.255,classification_task,2021.2.3,Win32,59.69792848,627c6715c52fd12f31907bd0,,,,,,,,,,,,,,,,,,,,,,,l,0,0.1847,"[""0.325"",""0.779"",""0.845"",""0.888""]","[1,0,1,1]",0,43,43,43,1,0,1,,,0,FALSE,,,,,,,,,,,,,,,,,,,,,,,,,,,,,,,
,5cb265e54a0e090001cbb2a8,627c76dcabe10bfa4130cbfe,2022-05-11_22h57.00.255,classification_task,2021.2.3,Win32,59.69792848,627c6715c52fd12f31907bd0,,,,,,,,,,,,,,,,,,,,,,,a,0,0.4021,"[""0.061"",""0.369"",""0.480"",""0.025""]","[1,1,1,0]",0,44,44,44,1,1,1,,,0,FALSE,,,,,,,,,,,,,,,,,,,,,,,,,,,,,,,
,5cb265e54a0e090001cbb2a8,627c76dcabe10bfa4130cbfe,2022-05-11_22h57.00.255,classification_task,2021.2.3,Win32,59.69792848,627c6715c52fd12f31907bd0,,,,,,,,,,,,,,,,,,,,,,,a,1,0.3352,"[""0.325"",""0.437"",""0.845"",""0.025""]","[1,1,1,0]",0,45,45,45,1,0,1,,,0,FALSE,,,,,,,,,,,,,,,,,,,,,,,,,,,,,,,
,5cb265e54a0e090001cbb2a8,627c76dcabe10bfa4130cbfe,2022-05-11_22h57.00.255,classification_task,2021.2.3,Win32,59.69792848,627c6715c52fd12f31907bd0,,,,,,,,,,,,,,,,,,,,,,,l,1,0.5865,"[""0.779"",""0.369"",""0.480"",""0.691""]","[0,1,1,1]",0,46,46,46,1,1,1,,,0,FALSE,,,,,,,,,,,,,,,,,,,,,,,,,,,,,,,
,5cb265e54a0e090001cbb2a8,627c76dcabe10bfa4130cbfe,2022-05-11_22h57.00.255,classification_task,2021.2.3,Win32,59.69792848,627c6715c52fd12f31907bd0,,,,,,,,,,,,,,,,,,,,,,,a,0,1.0685,"[""0.061"",""0.779"",""0.480"",""0.691""]","[1,0,1,1]",0,47,47,47,1,1,1,,,0,FALSE,,,,,,,,,,,,,,,,,,,,,,,,,,,,,,,
,5cb265e54a0e090001cbb2a8,627c76dcabe10bfa4130cbfe,2022-05-11_22h57.00.255,classification_task,2021.2.3,Win32,59.69792848,627c6715c52fd12f31907bd0,,,,,,,,,,,,,,,,,,,,,,,a,1,0.4671,"[""0.325"",""0.437"",""0.845"",""0.025""]","[1,1,1,0]",0,48,48,48,1,0,1,,,0,FALSE,,,,,,,,,,,,,,,,,,,,,,,,,,,,,,,
,5cb265e54a0e090001cbb2a8,627c76dcabe10bfa4130cbfe,2022-05-11_22h57.00.255,classification_task,2021.2.3,Win32,59.69792848,627c6715c52fd12f31907bd0,,,,,,,,,,,,,,,,,,,,,,,l,1,0.6021,"[""0.061"",""0.369"",""0.803"",""0.691""]","[1,1,0,1]",0,49,49,49,1,1,1,,,0,FALSE,,,,,,,,,,,,,,,,,,,,,,,,,,,,,,,
,5cb265e54a0e090001cbb2a8,627c76dcabe10bfa4130cbfe,2022-05-11_22h57.00.255,classification_task,2021.2.3,Win32,59.69792848,627c6715c52fd12f31907bd0,,,,,,,,,,,,,,,,,,,,,,,l,0,0.6521,"[""0.325"",""0.785"",""0.845"",""0.888""]","[1,0,1,1]",0,50,50,50,1,0,1,,,0,FALSE,,,,,,,,,,,,,,,,,,,,,,,,,,,,,,,
,5cb265e54a0e090001cbb2a8,627c76dcabe10bfa4130cbfe,2022-05-11_22h57.00.255,classification_task,2021.2.3,Win32,59.69792848,627c6715c52fd12f31907bd0,,,,,,,,,,,,,,,,,,,,,,,a,1,0.4052,"[""0.261"",""0.565"",""0.516"",""0.970""]","[1,1,0,1]",0,51,51,51,1,0,0,,,0,FALSE,,,,,,,,,,,,,,,,,,,,,,,,,,,,,,,
,5cb265e54a0e090001cbb2a8,627c76dcabe10bfa4130cbfe,2022-05-11_22h57.00.255,classification_task,2021.2.3,Win32,59.69792848,627c6715c52fd12f31907bd0,,,,,,,,,,,,,,,,,,,,,,,a,0,0.2493,"[""0.061"",""0.369"",""0.480"",""0.519""]","[1,1,1,0]",0,52,52,52,1,1,1,,,0,FALSE,,,,,,,,,,,,,,,,,,,,,,,,,,,,,,,
,5cb265e54a0e090001cbb2a8,627c76dcabe10bfa4130cbfe,2022-05-11_22h57.00.255,classification_task,2021.2.3,Win32,59.69792848,627c6715c52fd12f31907bd0,,,,,,,,,,,,,,,,,,,,,,,l,1,0.2366,"[""0.128"",""0.519"",""0.614"",""0.725""]","[1,0,1,1]",0,53,53,53,1,1,0,,,0,FALSE,,,,,,,,,,,,,,,,,,,,,,,,,,,,,,,
,5cb265e54a0e090001cbb2a8,627c76dcabe10bfa4130cbfe,2022-05-11_22h57.00.255,classification_task,2021.2.3,Win32,59.69792848,627c6715c52fd12f31907bd0,,,,,,,,,,,,,,,,,,,,,,,l,1,0.3499,"[""0.128"",""0.181"",""0.519"",""0.725""]","[1,1,0,1]",0,54,54,54,1,1,0,,,0,FALSE,,,,,,,,,,,,,,,,,,,,,,,,,,,,,,,
,5cb265e54a0e090001cbb2a8,627c76dcabe10bfa4130cbfe,2022-05-11_22h57.00.255,classification_task,2021.2.3,Win32,59.69792848,627c6715c52fd12f31907bd0,,,,,,,,,,,,,,,,,,,,,,,l,1,0.4498,"[""0.128"",""0.181"",""0.614"",""0.650""]","[1,1,1,0]",0,55,55,55,1,1,0,,,0,FALSE,,,,,,,,,,,,,,,,,,,,,,,,,,,,,,,
,5cb265e54a0e090001cbb2a8,627c76dcabe10bfa4130cbfe,2022-05-11_22h57.00.255,classification_task,2021.2.3,Win32,59.69792848,627c6715c52fd12f31907bd0,,,,,,,,,,,,,,,,,,,,,,,l,0,0.316,"[""0.027"",""0.565"",""0.923"",""0.970""]","[0,1,1,1]",0,56,56,56,1,0,0,,,0,FALSE,,,,,,,,,,,,,,,,,,,,,,,,,,,,,,,
,5cb265e54a0e090001cbb2a8,627c76dcabe10bfa4130cbfe,2022-05-11_22h57.00.255,classification_task,2021.2.3,Win32,59.69792848,627c6715c52fd12f31907bd0,,,,,,,,,,,,,,,,,,,,,,,a,0,0.3332,"[""0.061"",""0.779"",""0.480"",""0.691""]","[1,0,1,1]",0,57,57,57,1,1,1,,,0,FALSE,,,,,,,,,,,,,,,,,,,,,,,,,,,,,,,
,5cb265e54a0e090001cbb2a8,627c76dcabe10bfa4130cbfe,2022-05-11_22h57.00.255,classification_task,2021.2.3,Win32,59.69792848,627c6715c52fd12f31907bd0,,,,,,,,,,,,,,,,,,,,,,,l,0,0.1999,"[""0.516"",""0.437"",""0.845"",""0.888""]","[0,1,1,1]",0,58,58,58,1,0,1,,,0,FALSE,,,,,,,,,,,,,,,,,,,,,,,,,,,,,,,
,5cb265e54a0e090001cbb2a8,627c76dcabe10bfa4130cbfe,2022-05-11_22h57.00.255,classification_task,2021.2.3,Win32,59.69792848,627c6715c52fd12f31907bd0,,,,,,,,,,,,,,,,,,,,,,,a,0,0.3822,"[""0.796"",""0.181"",""0.614"",""0.725""]","[0,1,1,1]",0,59,59,59,1,1,0,,,0,FALSE,,,,,,,,,,,,,,,,,,,,,,,,,,,,,,,
,5cb265e54a0e090001cbb2a8,627c76dcabe10bfa4130cbfe,2022-05-11_22h57.00.255,classification_task,2021.2.3,Win32,59.69792848,627c6715c52fd12f31907bd0,,,,,,,,,,,,,,,,,,,,,,,l,0,0.2829,"[""0.261"",""0.565"",""0.923"",""0.025""]","[1,1,1,0]",0,60,60,60,1,0,0,,,0,FALSE,,,,,,,,,,,,,,,,,,,,,,,,,,,,,,,
,5cb265e54a0e090001cbb2a8,627c76dcabe10bfa4130cbfe,2022-05-11_22h57.00.255,classification_task,2021.2.3,Win32,59.69792848,627c6715c52fd12f31907bd0,,,,,,,,,,,,,,,,,,,,,,,a,1,0.4333,"[""0.325"",""0.437"",""0.784"",""0.888""]","[1,1,0,1]",0,61,61,61,1,0,1,,,0,FALSE,,,,,,,,,,,,,,,,,,,,,,,,,,,,,,,
,5cb265e54a0e090001cbb2a8,627c76dcabe10bfa4130cbfe,2022-05-11_22h57.00.255,classification_task,2021.2.3,Win32,59.69792848,627c6715c52fd12f31907bd0,,,,,,,,,,,,,,,,,,,,,,,l,1,0.0325,"[""0.785"",""0.369"",""0.480"",""0.691""]","[0,1,1,1]",0,62,62,62,1,1,1,,,0,FALSE,,,,,,,,,,,,,,,,,,,,,,,,,,,,,,,
,5cb265e54a0e090001cbb2a8,627c76dcabe10bfa4130cbfe,2022-05-11_22h57.00.255,classification_task,2021.2.3,Win32,59.69792848,627c6715c52fd12f31907bd0,,,,,,,,,,,,,,,,,,,,,,,l,0,0.0497,"[""0.261"",""0.515"",""0.923"",""0.970""]","[1,0,1,1]",0,63,63,63,1,0,0,,,0,FALSE,,,,,,,,,,,,,,,,,,,,,,,,,,,,,,,
,5cb265e54a0e090001cbb2a8,627c76dcabe10bfa4130cbfe,2022-05-11_22h57.00.255,classification_task,2021.2.3,Win32,59.69792848,627c6715c52fd12f31907bd0,,,,,,,,,,,,,,,,,,,,,,,,,,,,,,,,,,,,,,,0, ,,0,1.607767951,163.6849,0,1,1,1,1,2,2,,,,,,,,,,,,,,,,,,
,5cb265e54a0e090001cbb2a8,627c76dcabe10bfa4130cbfe,2022-05-11_22h57.00.255,classification_task,2021.2.3,Win32,59.69792848,627c6715c52fd12f31907bd0,,,,,,,,,,,,,,,,,,,,,,,,,,,,,,,,,,,,,,,1,  ,,0,1.28643728,168.6778,0,1,1,1,1,2,2,,,,,,,,,,,,,,,,,,
,5cb265e54a0e090001cbb2a8,627c76dcabe10bfa4130cbfe,2022-05-11_22h57.00.255,classification_task,2021.2.3,Win32,59.69792848,627c6715c52fd12f31907bd0,,,,,,,,,,,,,,,,,,,,,,,,,,,,,,,,,,,,,,,2,  ,,0,7.625420356,170.5273,0,1,1,1,1,2,2,,,,,,,,,,,,,,,,,,
,5cb265e54a0e090001cbb2a8,627c76dcabe10bfa4130cbfe,2022-05-11_22h57.00.255,classification_task,2021.2.3,Win32,59.69792848,627c6715c52fd12f31907bd0,,,,,,,,,,,,,,,,,,,,,,,,,,,,,,,,,,,,,,,,,,,,,0,1,1,1,1,,2,,,,,,,,,,,,,,,,,,
,5cb265e54a0e090001cbb2a8,627c76dcabe10bfa4130cbfe,2022-05-11_22h57.00.255,classification_task,2021.2.3,Win32,59.69792848,627c6715c52fd12f31907bd0,,,,,,,,,,,,,,,,,,,,,space,7.1201,a,0,2.0825,"[""0.128"",""0.181"",""0.026"",""0.725""]","[1,1,0,1]",0,0,0,0,1,1,0,,,0,FALSE,,,,,,,,,,,,,,,,,,,,,,,,,,,,,,,
,5cb265e54a0e090001cbb2a8,627c76dcabe10bfa4130cbfe,2022-05-11_22h57.00.255,classification_task,2021.2.3,Win32,59.69792848,627c6715c52fd12f31907bd0,,,,,,,,,,,,,,,,,,,,,,,a,0,1.6858,"[""0.061"",""0.803"",""0.480"",""0.691""]","[1,0,1,1]",0,1,1,1,1,1,1,,,0,FALSE,,,,,,,,,,,,,,,,,,,,,,,,,,,,,,,
,5cb265e54a0e090001cbb2a8,627c76dcabe10bfa4130cbfe,2022-05-11_22h57.00.255,classification_task,2021.2.3,Win32,59.69792848,627c6715c52fd12f31907bd0,,,,,,,,,,,,,,,,,,,,,,,l,1,0.8017,"[""0.061"",""0.369"",""0.480"",""0.514""]","[1,1,1,0]",0,2,2,2,1,1,1,,,0,FALSE,,,,,,,,,,,,,,,,,,,,,,,,,,,,,,,
,5cb265e54a0e090001cbb2a8,627c76dcabe10bfa4130cbfe,2022-05-11_22h57.00.255,classification_task,2021.2.3,Win32,59.69792848,627c6715c52fd12f31907bd0,,,,,,,,,,,,,,,,,,,,,,,l,1,0.9016,"[""0.128"",""0.779"",""0.614"",""0.725""]","[1,0,1,1]",0,3,3,3,1,1,0,,,0,FALSE,,,,,,,,,,,,,,,,,,,,,,,,,,,,,,,
,5cb265e54a0e090001cbb2a8,627c76dcabe10bfa4130cbfe,2022-05-11_22h57.00.255,classification_task,2021.2.3,Win32,59.69792848,627c6715c52fd12f31907bd0,,,,,,,,,,,,,,,,,,,,,,,a,1,0.7009,"[""0.261"",""0.565"",""0.923"",""0.027""]","[1,1,1,0]",0,4,4,4,1,0,0,,,0,FALSE,,,,,,,,,,,,,,,,,,,,,,,,,,,,,,,
,5cb265e54a0e090001cbb2a8,627c76dcabe10bfa4130cbfe,2022-05-11_22h57.00.255,classification_task,2021.2.3,Win32,59.69792848,627c6715c52fd12f31907bd0,,,,,,,,,,,,,,,,,,,,,,,a,1,0.9522,"[""0.261"",""0.565"",""0.216"",""0.970""]","[1,1,0,1]",0,5,5,5,1,0,0,,,0,FALSE,,,,,,,,,,,,,,,,,,,,,,,,,,,,,,,
,5cb265e54a0e090001cbb2a8,627c76dcabe10bfa4130cbfe,2022-05-11_22h57.00.255,classification_task,2021.2.3,Win32,59.69792848,627c6715c52fd12f31907bd0,,,,,,,,,,,,,,,,,,,,,,,a,0,0.836,"[""0.061"",""0.369"",""0.519"",""0.691""]","[1,1,0,1]",0,6,6,6,1,1,1,,,0,FALSE,,,,,,,,,,,,,,,,,,,,,,,,,,,,,,,
,5cb265e54a0e090001cbb2a8,627c76dcabe10bfa4130cbfe,2022-05-11_22h57.00.255,classification_task,2021.2.3,Win32,59.69792848,627c6715c52fd12f31907bd0,,,,,,,,,,,,,,,,,,,,,,,l,1,0.801,"[""0.516"",""0.369"",""0.480"",""0.691""]","[0,1,1,1]",0,7,7,7,1,1,1,,,0,FALSE,,,,,,,,,,,,,,,,,,,,,,,,,,,,,,,
,5cb265e54a0e090001cbb2a8,627c76dcabe10bfa4130cbfe,2022-05-11_22h57.00.255,classification_task,2021.2.3,Win32,59.69792848,627c6715c52fd12f31907bd0,,,,,,,,,,,,,,,,,,,,,,,l,0,0.7852,"[""0.261"",""0.515"",""0.923"",""0.970""]","[1,0,1,1]",0,8,8,8,1,0,0,,,0,FALSE,,,,,,,,,,,,,,,,,,,,,,,,,,,,,,,
,5cb265e54a0e090001cbb2a8,627c76dcabe10bfa4130cbfe,2022-05-11_22h57.00.255,classification_task,2021.2.3,Win32,59.69792848,627c6715c52fd12f31907bd0,,,,,,,,,,,,,,,,,,,,,,,a,1,0.5672,"[""0.325"",""0.437"",""0.784"",""0.888""]","[1,1,0,1]",0,9,9,9,1,0,1,,,0,FALSE,,,,,,,,,,,,,,,,,,,,,,,,,,,,,,,
,5cb265e54a0e090001cbb2a8,627c76dcabe10bfa4130cbfe,2022-05-11_22h57.00.255,classification_task,2021.2.3,Win32,59.69792848,627c6715c52fd12f31907bd0,,,,,,,,,,,,,,,,,,,,,,,a,1,0.7013,"[""0.325"",""0.437"",""0.845"",""0.025""]","[1,1,1,0]",0,10,10,10,1,0,1,,,0,FALSE,,,,,,,,,,,,,,,,,,,,,,,,,,,,,,,
,5cb265e54a0e090001cbb2a8,627c76dcabe10bfa4130cbfe,2022-05-11_22h57.00.255,classification_task,2021.2.3,Win32,59.69792848,627c6715c52fd12f31907bd0,,,,,,,,,,,,,,,,,,,,,,,l,0,1.1527,"[""0.325"",""0.784"",""0.845"",""0.888""]","[1,0,1,1]",0,11,11,11,1,0,1,,,0,FALSE,,,,,,,,,,,,,,,,,,,,,,,,,,,,,,,
,5cb265e54a0e090001cbb2a8,627c76dcabe10bfa4130cbfe,2022-05-11_22h57.00.255,classification_task,2021.2.3,Win32,59.69792848,627c6715c52fd12f31907bd0,,,,,,,,,,,,,,,,,,,,,,,a,1,1.5997,"[""0.026"",""0.565"",""0.923"",""0.970""]","[0,1,1,1]",0,12,12,12,1,0,0,,,0,FALSE,,,,,,,,,,,,,,,,,,,,,,,,,,,,,,,
,5cb265e54a0e090001cbb2a8,627c76dcabe10bfa4130cbfe,2022-05-11_22h57.00.255,classification_task,2021.2.3,Win32,59.69792848,627c6715c52fd12f31907bd0,,,,,,,,,,,,,,,,,,,,,,,a,0,1.0023,"[""0.128"",""0.181"",""0.614"",""0.216""]","[1,1,1,0]",0,13,13,13,1,1,0,,,0,FALSE,,,,,,,,,,,,,,,,,,,,,,,,,,,,,,,
,5cb265e54a0e090001cbb2a8,627c76dcabe10bfa4130cbfe,2022-05-11_22h57.00.255,classification_task,2021.2.3,Win32,59.69792848,627c6715c52fd12f31907bd0,,,,,,,,,,,,,,,,,,,,,,,a,1,0.8689,"[""0.650"",""0.437"",""0.845"",""0.888""]","[0,1,1,1]",0,14,14,14,1,0,1,,,0,FALSE,,,,,,,,,,,,,,,,,,,,,,,,,,,,,,,
,5cb265e54a0e090001cbb2a8,627c76dcabe10bfa4130cbfe,2022-05-11_22h57.00.255,classification_task,2021.2.3,Win32,59.69792848,627c6715c52fd12f31907bd0,,,,,,,,,,,,,,,,,,,,,,,l,1,0.702,"[""0.779"",""0.181"",""0.614"",""0.725""]","[0,1,1,1]",0,15,15,15,1,1,0,,,0,FALSE,,,,,,,,,,,,,,,,,,,,,,,,,,,,,,,
,5cb265e54a0e090001cbb2a8,627c76dcabe10bfa4130cbfe,2022-05-11_22h57.00.255,classification_task,2021.2.3,Win32,59.69792848,627c6715c52fd12f31907bd0,,,,,,,,,,,,,,,,,,,,,,,l,1,0.6019,"[""0.061"",""0.369"",""0.785"",""0.691""]","[1,1,0,1]",0,16,16,16,1,1,1,,,0,FALSE,,,,,,,,,,,,,,,,,,,,,,,,,,,,,,,
,5cb265e54a0e090001cbb2a8,627c76dcabe10bfa4130cbfe,2022-05-11_22h57.00.255,classification_task,2021.2.3,Win32,59.69792848,627c6715c52fd12f31907bd0,,,,,,,,,,,,,,,,,,,,,,,a,1,0.6688,"[""0.261"",""0.514"",""0.923"",""0.970""]","[1,0,1,1]",0,17,17,17,1,0,0,,,0,FALSE,,,,,,,,,,,,,,,,,,,,,,,,,,,,,,,
,5cb265e54a0e090001cbb2a8,627c76dcabe10bfa4130cbfe,2022-05-11_22h57.00.255,classification_task,2021.2.3,Win32,59.69792848,627c6715c52fd12f31907bd0,,,,,,,,,,,,,,,,,,,,,,,a,0,0.9189,"[""0.128"",""0.181"",""0.614"",""0.524""]","[1,1,1,0]",0,18,18,18,1,1,0,,,0,FALSE,,,,,,,,,,,,,,,,,,,,,,,,,,,,,,,
,5cb265e54a0e090001cbb2a8,627c76dcabe10bfa4130cbfe,2022-05-11_22h57.00.255,classification_task,2021.2.3,Win32,59.69792848,627c6715c52fd12f31907bd0,,,,,,,,,,,,,,,,,,,,,,,l,1,0.5014,"[""0.128"",""0.181"",""0.026"",""0.725""]","[1,1,0,1]",0,19,19,19,1,1,0,,,0,FALSE,,,,,,,,,,,,,,,,,,,,,,,,,,,,,,,
,5cb265e54a0e090001cbb2a8,627c76dcabe10bfa4130cbfe,2022-05-11_22h57.00.255,classification_task,2021.2.3,Win32,59.69792848,627c6715c52fd12f31907bd0,,,,,,,,,,,,,,,,,,,,,,,a,1,0.8187,"[""0.261"",""0.565"",""0.923"",""0.803""]","[1,1,1,0]",0,20,20,20,1,0,0,,,0,FALSE,,,,,,,,,,,,,,,,,,,,,,,,,,,,,,,
,5cb265e54a0e090001cbb2a8,627c76dcabe10bfa4130cbfe,2022-05-11_22h57.00.255,classification_task,2021.2.3,Win32,59.69792848,627c6715c52fd12f31907bd0,,,,,,,,,,,,,,,,,,,,,,,a,1,0.9854,"[""0.524"",""0.437"",""0.845"",""0.888""]","[0,1,1,1]",0,21,21,21,1,0,1,,,0,FALSE,,,,,,,,,,,,,,,,,,,,,,,,,,,,,,,
,5cb265e54a0e090001cbb2a8,627c76dcabe10bfa4130cbfe,2022-05-11_22h57.00.255,classification_task,2021.2.3,Win32,59.69792848,627c6715c52fd12f31907bd0,,,,,,,,,,,,,,,,,,,,,,,l,0,0.6687,"[""0.325"",""0.524"",""0.845"",""0.888""]","[1,0,1,1]",0,22,22,22,1,0,1,,,0,FALSE,,,,,,,,,,,,,,,,,,,,,,,,,,,,,,,
,5cb265e54a0e090001cbb2a8,627c76dcabe10bfa4130cbfe,2022-05-11_22h57.00.255,classification_task,2021.2.3,Win32,59.69792848,627c6715c52fd12f31907bd0,,,,,,,,,,,,,,,,,,,,,,,l,0,0.5836,"[""0.027"",""0.565"",""0.923"",""0.970""]","[0,1,1,1]",0,23,23,23,1,0,0,,,0,FALSE,,,,,,,,,,,,,,,,,,,,,,,,,,,,,,,
,5cb265e54a0e090001cbb2a8,627c76dcabe10bfa4130cbfe,2022-05-11_22h57.00.255,classification_task,2021.2.3,Win32,59.69792848,627c6715c52fd12f31907bd0,,,,,,,,,,,,,,,,,,,,,,,l,0,0.5013,"[""0.325"",""0.437"",""0.027"",""0.888""]","[1,1,0,1]",0,24,24,24,1,0,1,,,0,FALSE,,,,,,,,,,,,,,,,,,,,,,,,,,,,,,,
,5cb265e54a0e090001cbb2a8,627c76dcabe10bfa4130cbfe,2022-05-11_22h57.00.255,classification_task,2021.2.3,Win32,59.69792848,627c6715c52fd12f31907bd0,,,,,,,,,,,,,,,,,,,,,,,l,0,0.5017,"[""0.261"",""0.565"",""0.515"",""0.970""]","[1,1,0,1]",0,25,25,25,1,0,0,,,0,FALSE,,,,,,,,,,,,,,,,,,,,,,,,,,,,,,,
,5cb265e54a0e090001cbb2a8,627c76dcabe10bfa4130cbfe,2022-05-11_22h57.00.255,classification_task,2021.2.3,Win32,59.69792848,627c6715c52fd12f31907bd0,,,,,,,,,,,,,,,,,,,,,,,a,0,0.7175,"[""0.061"",""0.025"",""0.480"",""0.691""]","[1,0,1,1]",0,26,26,26,1,1,1,,,0,FALSE,,,,,,,,,,,,,,,,,,,,,,,,,,,,,,,
,5cb265e54a0e090001cbb2a8,627c76dcabe10bfa4130cbfe,2022-05-11_22h57.00.255,classification_task,2021.2.3,Win32,59.69792848,627c6715c52fd12f31907bd0,,,,,,,,,,,,,,,,,,,,,,,l,1,0.5672,"[""0.779"",""0.369"",""0.480"",""0.691""]","[0,1,1,1]",0,27,27,27,1,1,1,,,0,FALSE,,,,,,,,,,,,,,,,,,,,,,,,,,,,,,,
,5cb265e54a0e090001cbb2a8,627c76dcabe10bfa4130cbfe,2022-05-11_22h57.00.255,classification_task,2021.2.3,Win32,59.69792848,627c6715c52fd12f31907bd0,,,,,,,,,,,,,,,,,,,,,,,a,1,0.6687,"[""0.325"",""0.437"",""0.845"",""0.025""]","[1,1,1,0]",0,28,28,28,1,0,1,,,0,FALSE,,,,,,,,,,,,,,,,,,,,,,,,,,,,,,,
,5cb265e54a0e090001cbb2a8,627c76dcabe10bfa4130cbfe,2022-05-11_22h57.00.255,classification_task,2021.2.3,Win32,59.69792848,627c6715c52fd12f31907bd0,,,,,,,,,,,,,,,,,,,,,,,l,1,0.6839,"[""0.061"",""0.369"",""0.480"",""0.027""]","[1,1,1,0]",0,29,29,29,1,1,1,,,0,FALSE,,,,,,,,,,,,,,,,,,,,,,,,,,,,,,,
,5cb265e54a0e090001cbb2a8,627c76dcabe10bfa4130cbfe,2022-05-11_22h57.00.255,classification_task,2021.2.3,Win32,59.69792848,627c6715c52fd12f31907bd0,,,,,,,,,,,,,,,,,,,,,,,l,1,1.0693,"[""0.128"",""0.796"",""0.614"",""0.725""]","[1,0,1,1]",0,30,30,30,1,1,0,,,0,FALSE,,,,,,,,,,,,,,,,,,,,,,,,,,,,,,,
,5cb265e54a0e090001cbb2a8,627c76dcabe10bfa4130cbfe,2022-05-11_22h57.00.255,classification_task,2021.2.3,Win32,59.69792848,627c6715c52fd12f31907bd0,,,,,,,,,,,,,,,,,,,,,,,a,0,0.5015,"[""0.027"",""0.181"",""0.614"",""0.725""]","[0,1,1,1]",0,31,31,31,1,1,0,,,0,FALSE,,,,,,,,,,,,,,,,,,,,,,,,,,,,,,,
,5cb265e54a0e090001cbb2a8,627c76dcabe10bfa4130cbfe,2022-05-11_22h57.00.255,classification_task,2021.2.3,Win32,59.69792848,627c6715c52fd12f31907bd0,,,,,,,,,,,,,,,,,,,,,,,l,0,0.7179,"[""0.325"",""0.785"",""0.845"",""0.888""]","[1,0,1,1]",0,32,32,32,1,0,1,,,0,FALSE,,,,,,,,,,,,,,,,,,,,,,,,,,,,,,,
,5cb265e54a0e090001cbb2a8,627c76dcabe10bfa4130cbfe,2022-05-11_22h57.00.255,classification_task,2021.2.3,Win32,59.69792848,627c6715c52fd12f31907bd0,,,,,,,,,,,,,,,,,,,,,,,l,1,0.7853,"[""0.061"",""0.369"",""0.480"",""0.516""]","[1,1,1,0]",0,33,33,33,1,1,1,,,0,FALSE,,,,,,,,,,,,,,,,,,,,,,,,,,,,,,,
,5cb265e54a0e090001cbb2a8,627c76dcabe10bfa4130cbfe,2022-05-11_22h57.00.255,classification_task,2021.2.3,Win32,59.69792848,627c6715c52fd12f31907bd0,,,,,,,,,,,,,,,,,,,,,,,a,1,0.6518,"[""0.325"",""0.437"",""0.845"",""0.524""]","[1,1,1,0]",0,34,34,34,1,0,1,,,0,FALSE,,,,,,,,,,,,,,,,,,,,,,,,,,,,,,,
,5cb265e54a0e090001cbb2a8,627c76dcabe10bfa4130cbfe,2022-05-11_22h57.00.255,classification_task,2021.2.3,Win32,59.69792848,627c6715c52fd12f31907bd0,,,,,,,,,,,,,,,,,,,,,,,l,1,0.584,"[""0.128"",""0.656"",""0.614"",""0.725""]","[1,0,1,1]",0,35,35,35,1,1,0,,,0,FALSE,,,,,,,,,,,,,,,,,,,,,,,,,,,,,,,
,5cb265e54a0e090001cbb2a8,627c76dcabe10bfa4130cbfe,2022-05-11_22h57.00.255,classification_task,2021.2.3,Win32,59.69792848,627c6715c52fd12f31907bd0,,,,,,,,,,,,,,,,,,,,,,,a,1,0.7017,"[""0.261"",""0.565"",""0.779"",""0.970""]","[1,1,0,1]",0,36,36,36,1,0,0,,,0,FALSE,,,,,,,,,,,,,,,,,,,,,,,,,,,,,,,
,5cb265e54a0e090001cbb2a8,627c76dcabe10bfa4130cbfe,2022-05-11_22h57.00.255,classification_task,2021.2.3,Win32,59.69792848,627c6715c52fd12f31907bd0,,,,,,,,,,,,,,,,,,,,,,,l,0,1.2016,"[""0.261"",""0.025"",""0.923"",""0.970""]","[1,0,1,1]",0,37,37,37,1,0,0,,,0,FALSE,,,,,,,,,,,,,,,,,,,,,,,,,,,,,,,
,5cb265e54a0e090001cbb2a8,627c76dcabe10bfa4130cbfe,2022-05-11_22h57.00.255,classification_task,2021.2.3,Win32,59.69792848,627c6715c52fd12f31907bd0,,,,,,,,,,,,,,,,,,,,,,,a,0,0.7497,"[""0.061"",""0.369"",""0.026"",""0.691""]","[1,1,0,1]",0,38,38,38,1,1,1,,,0,FALSE,,,,,,,,,,,,,,,,,,,,,,,,,,,,,,,
,5cb265e54a0e090001cbb2a8,627c76dcabe10bfa4130cbfe,2022-05-11_22h57.00.255,classification_task,2021.2.3,Win32,59.69792848,627c6715c52fd12f31907bd0,,,,,,,,,,,,,,,,,,,,,,,a,1,0.9513,"[""0.261"",""0.565"",""0.923"",""0.785""]","[1,1,1,0]",0,39,39,39,1,0,0,,,0,FALSE,,,,,,,,,,,,,,,,,,,,,,,,,,,,,,,
,5cb265e54a0e090001cbb2a8,627c76dcabe10bfa4130cbfe,2022-05-11_22h57.00.255,classification_task,2021.2.3,Win32,59.69792848,627c6715c52fd12f31907bd0,,,,,,,,,,,,,,,,,,,,,,,l,1,0.6343,"[""0.061"",""0.779"",""0.480"",""0.691""]","[1,0,1,1]",0,40,40,40,1,1,1,,,0,FALSE,,,,,,,,,,,,,,,,,,,,,,,,,,,,,,,
,5cb265e54a0e090001cbb2a8,627c76dcabe10bfa4130cbfe,2022-05-11_22h57.00.255,classification_task,2021.2.3,Win32,59.69792848,627c6715c52fd12f31907bd0,,,,,,,,,,,,,,,,,,,,,,,l,0,0.7507,"[""0.325"",""0.437"",""0.515"",""0.888""]","[1,1,0,1]",0,41,41,41,1,0,1,,,0,FALSE,,,,,,,,,,,,,,,,,,,,,,,,,,,,,,,
,5cb265e54a0e090001cbb2a8,627c76dcabe10bfa4130cbfe,2022-05-11_22h57.00.255,classification_task,2021.2.3,Win32,59.69792848,627c6715c52fd12f31907bd0,,,,,,,,,,,,,,,,,,,,,,,l,0,0.7839,"[""0.524"",""0.437"",""0.845"",""0.888""]","[0,1,1,1]",0,42,42,42,1,0,1,,,0,FALSE,,,,,,,,,,,,,,,,,,,,,,,,,,,,,,,
,5cb265e54a0e090001cbb2a8,627c76dcabe10bfa4130cbfe,2022-05-11_22h57.00.255,classification_task,2021.2.3,Win32,59.69792848,627c6715c52fd12f31907bd0,,,,,,,,,,,,,,,,,,,,,,,a,0,0.6017,"[""0.524"",""0.181"",""0.614"",""0.725""]","[0,1,1,1]",0,43,43,43,1,1,0,,,0,FALSE,,,,,,,,,,,,,,,,,,,,,,,,,,,,,,,
,5cb265e54a0e090001cbb2a8,627c76dcabe10bfa4130cbfe,2022-05-11_22h57.00.255,classification_task,2021.2.3,Win32,59.69792848,627c6715c52fd12f31907bd0,,,,,,,,,,,,,,,,,,,,,,,l,0,0.7674,"[""0.516"",""0.565"",""0.923"",""0.970""]","[0,1,1,1]",0,44,44,44,1,0,0,,,0,FALSE,,,,,,,,,,,,,,,,,,,,,,,,,,,,,,,
,5cb265e54a0e090001cbb2a8,627c76dcabe10bfa4130cbfe,2022-05-11_22h57.00.255,classification_task,2021.2.3,Win32,59.69792848,627c6715c52fd12f31907bd0,,,,,,,,,,,,,,,,,,,,,,,a,0,0.8187,"[""0.128"",""0.181"",""0.614"",""0.785""]","[1,1,1,0]",0,45,45,45,1,1,0,,,0,FALSE,,,,,,,,,,,,,,,,,,,,,,,,,,,,,,,
,5cb265e54a0e090001cbb2a8,627c76dcabe10bfa4130cbfe,2022-05-11_22h57.00.255,classification_task,2021.2.3,Win32,59.69792848,627c6715c52fd12f31907bd0,,,,,,,,,,,,,,,,,,,,,,,a,0,0.7852,"[""0.128"",""0.181"",""0.785"",""0.725""]","[1,1,0,1]",0,46,46,46,1,1,0,,,0,FALSE,,,,,,,,,,,,,,,,,,,,,,,,,,,,,,,
,5cb265e54a0e090001cbb2a8,627c76dcabe10bfa4130cbfe,2022-05-11_22h57.00.255,classification_task,2021.2.3,Win32,59.69792848,627c6715c52fd12f31907bd0,,,,,,,,,,,,,,,,,,,,,,,a,0,1.2191,"[""0.026"",""0.369"",""0.480"",""0.691""]","[0,1,1,1]",0,47,47,47,1,1,1,,,0,FALSE,,,,,,,,,,,,,,,,,,,,,,,,,,,,,,,
,5cb265e54a0e090001cbb2a8,627c76dcabe10bfa4130cbfe,2022-05-11_22h57.00.255,classification_task,2021.2.3,Win32,59.69792848,627c6715c52fd12f31907bd0,,,,,,,,,,,,,,,,,,,,,,,l,1,1.4854,"[""0.128"",""0.784"",""0.614"",""0.725""]","[1,0,1,1]",0,48,48,48,1,1,0,,,0,FALSE,,,,,,,,,,,,,,,,,,,,,,,,,,,,,,,
,5cb265e54a0e090001cbb2a8,627c76dcabe10bfa4130cbfe,2022-05-11_22h57.00.255,classification_task,2021.2.3,Win32,59.69792848,627c6715c52fd12f31907bd0,,,,,,,,,,,,,,,,,,,,,,,l,0,0.9024,"[""0.325"",""0.803"",""0.845"",""0.888""]","[1,0,1,1]",0,49,49,49,1,0,1,,,0,FALSE,,,,,,,,,,,,,,,,,,,,,,,,,,,,,,,
,5cb265e54a0e090001cbb2a8,627c76dcabe10bfa4130cbfe,2022-05-11_22h57.00.255,classification_task,2021.2.3,Win32,59.69792848,627c6715c52fd12f31907bd0,,,,,,,,,,,,,,,,,,,,,,,a,0,0.7855,"[""0.524"",""0.369"",""0.480"",""0.691""]","[0,1,1,1]",0,50,50,50,1,1,1,,,0,FALSE,,,,,,,,,,,,,,,,,,,,,,,,,,,,,,,
,5cb265e54a0e090001cbb2a8,627c76dcabe10bfa4130cbfe,2022-05-11_22h57.00.255,classification_task,2021.2.3,Win32,59.69792848,627c6715c52fd12f31907bd0,,,,,,,,,,,,,,,,,,,,,,,a,1,1.1362,"[""0.325"",""0.437"",""0.027"",""0.888""]","[1,1,0,1]",0,51,51,51,1,0,1,,,0,FALSE,,,,,,,,,,,,,,,,,,,,,,,,,,,,,,,
,5cb265e54a0e090001cbb2a8,627c76dcabe10bfa4130cbfe,2022-05-11_22h57.00.255,classification_task,2021.2.3,Win32,59.69792848,627c6715c52fd12f31907bd0,,,,,,,,,,,,,,,,,,,,,,,a,0,0.784,"[""0.128"",""0.181"",""0.656"",""0.725""]","[1,1,0,1]",0,52,52,52,1,1,0,,,0,FALSE,,,,,,,,,,,,,,,,,,,,,,,,,,,,,,,
,5cb265e54a0e090001cbb2a8,627c76dcabe10bfa4130cbfe,2022-05-11_22h57.00.255,classification_task,2021.2.3,Win32,59.69792848,627c6715c52fd12f31907bd0,,,,,,,,,,,,,,,,,,,,,,,a,1,1.2024,"[""0.261"",""0.514"",""0.923"",""0.970""]","[1,0,1,1]",0,53,53,53,1,0,0,,,0,FALSE,,,,,,,,,,,,,,,,,,,,,,,,,,,,,,,
,5cb265e54a0e090001cbb2a8,627c76dcabe10bfa4130cbfe,2022-05-11_22h57.00.255,classification_task,2021.2.3,Win32,59.69792848,627c6715c52fd12f31907bd0,,,,,,,,,,,,,,,,,,,,,,,a,0,0.7843,"[""0.128"",""0.181"",""0.614"",""0.650""]","[1,1,1,0]",0,54,54,54,1,1,0,,,0,FALSE,,,,,,,,,,,,,,,,,,,,,,,,,,,,,,,
,5cb265e54a0e090001cbb2a8,627c76dcabe10bfa4130cbfe,2022-05-11_22h57.00.255,classification_task,2021.2.3,Win32,59.69792848,627c6715c52fd12f31907bd0,,,,,,,,,,,,,,,,,,,,,,,l,1,0.6678,"[""0.514"",""0.181"",""0.614"",""0.725""]","[0,1,1,1]",0,55,55,55,1,1,0,,,0,FALSE,,,,,,,,,,,,,,,,,,,,,,,,,,,,,,,
,5cb265e54a0e090001cbb2a8,627c76dcabe10bfa4130cbfe,2022-05-11_22h57.00.255,classification_task,2021.2.3,Win32,59.69792848,627c6715c52fd12f31907bd0,,,,,,,,,,,,,,,,,,,,,,,l,0,0.7357,"[""0.796"",""0.437"",""0.845"",""0.888""]","[0,1,1,1]",0,56,56,56,1,0,1,,,0,FALSE,,,,,,,,,,,,,,,,,,,,,,,,,,,,,,,
,5cb265e54a0e090001cbb2a8,627c76dcabe10bfa4130cbfe,2022-05-11_22h57.00.255,classification_task,2021.2.3,Win32,59.69792848,627c6715c52fd12f31907bd0,,,,,,,,,,,,,,,,,,,,,,,l,1,0.5506,"[""0.061"",""0.516"",""0.480"",""0.691""]","[1,0,1,1]",0,57,57,57,1,1,1,,,0,FALSE,,,,,,,,,,,,,,,,,,,,,,,,,,,,,,,
,5cb265e54a0e090001cbb2a8,627c76dcabe10bfa4130cbfe,2022-05-11_22h57.00.255,classification_task,2021.2.3,Win32,59.69792848,627c6715c52fd12f31907bd0,,,,,,,,,,,,,,,,,,,,,,,l,0,0.6353,"[""0.261"",""0.565"",""0.515"",""0.970""]","[1,1,0,1]",0,58,58,58,1,0,0,,,0,FALSE,,,,,,,,,,,,,,,,,,,,,,,,,,,,,,,
,5cb265e54a0e090001cbb2a8,627c76dcabe10bfa4130cbfe,2022-05-11_22h57.00.255,classification_task,2021.2.3,Win32,59.69792848,627c6715c52fd12f31907bd0,,,,,,,,,,,,,,,,,,,,,,,a,1,1.1023,"[""0.325"",""0.437"",""0.845"",""0.785""]","[1,1,1,0]",0,59,59,59,1,0,1,,,0,FALSE,,,,,,,,,,,,,,,,,,,,,,,,,,,,,,,
,5cb265e54a0e090001cbb2a8,627c76dcabe10bfa4130cbfe,2022-05-11_22h57.00.255,classification_task,2021.2.3,Win32,59.69792848,627c6715c52fd12f31907bd0,,,,,,,,,,,,,,,,,,,,,,,a,0,1.0694,"[""0.061"",""0.369"",""0.027"",""0.691""]","[1,1,0,1]",0,60,60,60,1,1,1,,,0,FALSE,,,,,,,,,,,,,,,,,,,,,,,,,,,,,,,
,5cb265e54a0e090001cbb2a8,627c76dcabe10bfa4130cbfe,2022-05-11_22h57.00.255,classification_task,2021.2.3,Win32,59.69792848,627c6715c52fd12f31907bd0,,,,,,,,,,,,,,,,,,,,,,,a,1,0.7507,"[""0.261"",""0.565"",""0.923"",""0.519""]","[1,1,1,0]",0,61,61,61,1,0,0,,,0,FALSE,,,,,,,,,,,,,,,,,,,,,,,,,,,,,,,
,5cb265e54a0e090001cbb2a8,627c76dcabe10bfa4130cbfe,2022-05-11_22h57.00.255,classification_task,2021.2.3,Win32,59.69792848,627c6715c52fd12f31907bd0,,,,,,,,,,,,,,,,,,,,,,,a,1,0.7354,"[""0.514"",""0.565"",""0.923"",""0.970""]","[0,1,1,1]",0,62,62,62,1,0,0,,,0,FALSE,,,,,,,,,,,,,,,,,,,,,,,,,,,,,,,
,5cb265e54a0e090001cbb2a8,627c76dcabe10bfa4130cbfe,2022-05-11_22h57.00.255,classification_task,2021.2.3,Win32,59.69792848,627c6715c52fd12f31907bd0,,,,,,,,,,,,,,,,,,,,,,,a,0,0.9013,"[""0.061"",""0.369"",""0.480"",""0.027""]","[1,1,1,0]",0,63,63,63,1,1,1,,,0,FALSE,,,,,,,,,,,,,,,,,,,,,,,,,,,,,,,
,5cb265e54a0e090001cbb2a8,627c76dcabe10bfa4130cbfe,2022-05-11_22h57.00.255,classification_task,2021.2.3,Win32,59.69792848,627c6715c52fd12f31907bd0,,,,,,,,,,,,,,,,,,,,,,,,,,,,,,,,,,,,,,,0, ,,0,0.614563147,128.8522,0,2,2,2,1,2,3,,,,,,,,,,,,,,,,,,
,5cb265e54a0e090001cbb2a8,627c76dcabe10bfa4130cbfe,2022-05-11_22h57.00.255,classification_task,2021.2.3,Win32,59.69792848,627c6715c52fd12f31907bd0,,,,,,,,,,,,,,,,,,,,,,,,,,,,,,,,,,,,,,,1,  ,,0,4.908713037,141.8591,0,2,2,2,1,2,3,,,,,,,,,,,,,,,,,,
,5cb265e54a0e090001cbb2a8,627c76dcabe10bfa4130cbfe,2022-05-11_22h57.00.255,classification_task,2021.2.3,Win32,59.69792848,627c6715c52fd12f31907bd0,,,,,,,,,,,,,,,,,,,,,,,,,,,,,,,,,,,,,,,2,  ,,0,10,151.9072,0,2,2,2,1,2,3,,,,,,,,,,,,,,,,,,
,5cb265e54a0e090001cbb2a8,627c76dcabe10bfa4130cbfe,2022-05-11_22h57.00.255,classification_task,2021.2.3,Win32,59.69792848,627c6715c52fd12f31907bd0,,,,,,,,,,,,,,,,,,,,,,,,,,,,,,,,,,,,,,,,,,,,,0,2,2,2,1,,3,,,,,,,,,,,,,,,,,,
,5cb265e54a0e090001cbb2a8,627c76dcabe10bfa4130cbfe,2022-05-11_22h57.00.255,classification_task,2021.2.3,Win32,59.69792848,627c6715c52fd12f31907bd0,,,,,,,,,,,,,,,,,,,,,,,,,,,,,,,,,,,,,,,,,,,,,,,,,,,,,I believe the aid is a competent performer,,0.7,0,1,1203.1719,0,0,0,0,1,0,,,,,
,5cb265e54a0e090001cbb2a8,627c76dcabe10bfa4130cbfe,2022-05-11_22h57.00.255,classification_task,2021.2.3,Win32,59.69792848,627c6715c52fd12f31907bd0,,,,,,,,,,,,,,,,,,,,,,,,,,,,,,,,,,,,,,,,,,,,,,,,,,,,,I trust the aid,,0.7,0,3,1207.277,0,0,0,0,1,0,,,,,
,5cb265e54a0e090001cbb2a8,627c76dcabe10bfa4130cbfe,2022-05-11_22h57.00.255,classification_task,2021.2.3,Win32,59.69792848,627c6715c52fd12f31907bd0,,,,,,,,,,,,,,,,,,,,,,,,,,,,,,,,,,,,,,,,,,,,,,,,,,,,,I have confidence in the advice given by the aid,,0.7,0,3,1210.4967,0,0,0,0,1,0,,,,,
,5cb265e54a0e090001cbb2a8,627c76dcabe10bfa4130cbfe,2022-05-11_22h57.00.255,classification_task,2021.2.3,Win32,59.69792848,627c6715c52fd12f31907bd0,,,,,,,,,,,,,,,,,,,,,,,,,,,,,,,,,,,,,,,,,,,,,,,,,,,,,I can depend on the aid,,0.7,0,1,1211.9256,0,0,0,0,1,0,,,,,
,5cb265e54a0e090001cbb2a8,627c76dcabe10bfa4130cbfe,2022-05-11_22h57.00.255,classification_task,2021.2.3,Win32,59.69792848,627c6715c52fd12f31907bd0,,,,,,,,,,,,,,,,,,,,,,,,,,,,,,,,,,,,,,,,,,,,,,,,,,,,,I can rely on the aid to behave in consistent ways,,0.7,0,1,1213.009,0,0,0,0,1,0,,,,,
,5cb265e54a0e090001cbb2a8,627c76dcabe10bfa4130cbfe,2022-05-11_22h57.00.255,classification_task,2021.2.3,Win32,59.69792848,627c6715c52fd12f31907bd0,,,,,,,,,,,,,,,,,,,,,,,,,,,,,,,,,,,,,,,,,,,,,,,,,,,,,I can rely on the aid to do its best every time I take its advice,,0.7,0,1,1215.4297,0,0,0,0,1,0,,,,,
,5cb265e54a0e090001cbb2a8,627c76dcabe10bfa4130cbfe,2022-05-11_22h57.00.255,classification_task,2021.2.3,Win32,59.69792848,627c6715c52fd12f31907bd0,,,,,,,,,,,,,,,,,,,,,,,,,,,,,,,,,,,,,,,,,,,,,,,,,,,,,"On trials you completed with assistance from the aid, how frequently did you think the aid was correct?",,0.7,0,50%,,0,0,0,0,1,0,,,,,
,5cb265e54a0e090001cbb2a8,627c76dcabe10bfa4130cbfe,2022-05-11_22h57.00.255,classification_task,2021.2.3,Win32,59.69792848,627c6715c52fd12f31907bd0,,,,,,,,,,,,,,,,,,,,,,,,,,,,,,,,,,,,,,,,,,,,,,,,,,,,,"On trials you completed without the aid, how frequently did you think you were correct?",,0.7,0,50%,,0,0,0,0,1,0,,,,,
,5cb265e54a0e090001cbb2a8,627c76dcabe10bfa4130cbfe,2022-05-11_22h57.00.255,classification_task,2021.2.3,Win32,59.69792848,627c6715c52fd12f31907bd0,,,,,,,,,,,,,,,,,,,,,,,,,,,,,,,,,,,,,,,,,,,,,,,,,,,,,,,,,,,0,0,0,0,1,,,,,,
,5cb265e54a0e090001cbb2a8,627c76dcabe10bfa4130cbfe,2022-05-11_22h57.00.255,classification_task,2021.2.3,Win32,59.69792848,627c6715c52fd12f31907bd0,,,,,,,,,,,,,,,,,,,,,,,,,,,,,,,,,,,,,,,,,,,,,,,,,,,,,,,,,,,,,,,,,space,13.2868,1248.3668,,
,5cb265e54a0e090001cbb2a8,627c76dcabe10bfa4130cbfe,2022-05-11_22h57.00.255,classification_task,2021.2.3,Win32,59.69792848,627c6715c52fd12f31907bd0,,,,,,,,,,,,,,,,,,,,,,,,,,,,,,,,,,,,,,,,,,,,,,,,,,,,,,,,,,,,,,,,,,,,"Mozilla/5.0 (Windows NT 10.0; Win64; x64) AppleWebKit/537.36 (KHTML, like Gecko) Chrome/101.0.4951.54 Safari/537.36",
,5cb265e54a0e090001cbb2a8,627c76dcabe10bfa4130cbfe,2022-05-11_22h57.00.255,classification_task,2021.2.3,Win32,59.69792848,627c6715c52fd12f31907bd0,,,,,,,,,,,,,,,,,,,,,,,,,,,,,,,,,,,,,,,,,,,,,,,,,,,,,,,,,,,,,,,,,,,,,LOWLIGHT
