usingWebGL,participant,session,date,expName,psychopyVersion,OS,frameRate,PROLIFIC_PID,STUDY_ID,SESSION_ID,signatures_friend,signatures_foe,band_ranges_top,band_ranges_bottom,formitemText,formtype,formundefined,formitemWidth,formindex,formresponse,formrt,key_resp_2.keys,key_resp_2.rt,tute_resp.keys,tute_resp.rt,tutorial.thisRepN,tutorial.thisTrialN,tutorial.thisN,tutorial.thisIndex,tutorial.ran,key_resp_4.keys,key_resp_4.rt,key_resp.keys,key_resp.corr,key_resp.rt,lines_presented,is_signal_presented,trials.thisRepN,trials.thisTrialN,trials.thisN,trials.thisIndex,trials.ran,vessel,active_band,lines,is_signal,supported_pos,catch_trial,debrief_formindex,debrief_formitemText,debrief_formtype,debrief_formitemWidth,debrief_formresponse,debrief_formrt,phases.thisRepN,phases.thisTrialN,phases.thisN,phases.thisIndex,phases.ran,phases.order,phase,key_resp_3.keys,trustitemText,trusttype,trustitemWidth,trustindex,trustresponse,trustrt,support_status.thisRepN,support_status.thisTrialN,support_status.thisN,support_status.thisIndex,support_status.ran,support_status.order,key_resp_5.keys,key_resp_5.rt,globalClockTime,userAgent
TRUE,5cba9407cf04f6001827abfa,001,2022-04-29_10h12.44.882,classification_task,2021.2.3,Win32,60.0060006,5cba9407cf04f6001827abfa,626b377229c10585ec392f8a,626b3b5aff0b7ef5dc450f7f,,,,,,,,,,,,,,,,,,,,,,,,,,,,,,,,,,,,,,,,,,,,,,,,,,,,,,,,,,,,,,,,,,,,
,5cba9407cf04f6001827abfa,001,2022-04-29_10h12.44.882,classification_task,2021.2.3,Win32,60.0060006,5cba9407cf04f6001827abfa,626b377229c10585ec392f8a,626b3b5aff0b7ef5dc450f7f,"[[""0.309"",""0.460"",""0.601"",""0.877""],[""0.218"",""0.421"",""0.921"",""0.960""]]","[[""0.083"",""0.182"",""0.562"",""0.779""],[""0.045"",""0.371"",""0.507"",""0.701""]]","[1,10]","[100,1000]",Video game experience,,,0.7,0,,,,,,,,,,,,,,,,,,,,,,,,,,,,,,,,,,,,,,,,,,,,,,,,,,,,,,,,,,,
,5cba9407cf04f6001827abfa,001,2022-04-29_10h12.44.882,classification_task,2021.2.3,Win32,60.0060006,5cba9407cf04f6001827abfa,626b377229c10585ec392f8a,626b3b5aff0b7ef5dc450f7f,,,,,Approximately how many hours did you spend playing video games in the last week?,,,0.7,0,1,,,,,,,,,,,,,,,,,,,,,,,,,,,,,,,,,,,,,,,,,,,,,,,,,,,,,,,,,,
,5cba9407cf04f6001827abfa,001,2022-04-29_10h12.44.882,classification_task,2021.2.3,Win32,60.0060006,5cba9407cf04f6001827abfa,626b377229c10585ec392f8a,626b3b5aff0b7ef5dc450f7f,,,,,"Which game did you play the most this year? (Enter ""None"" if you didn't play any)",,,0.7,0,Take It Easy,,,,,,,,,,,,,,,,,,,,,,,,,,,,,,,,,,,,,,,,,,,,,,,,,,,,,,,,,,
,5cba9407cf04f6001827abfa,001,2022-04-29_10h12.44.882,classification_task,2021.2.3,Win32,60.0060006,5cba9407cf04f6001827abfa,626b377229c10585ec392f8a,626b3b5aff0b7ef5dc450f7f,,,,,Visual perception,,,0.7,0,,,,,,,,,,,,,,,,,,,,,,,,,,,,,,,,,,,,,,,,,,,,,,,,,,,,,,,,,,,
,5cba9407cf04f6001827abfa,001,2022-04-29_10h12.44.882,classification_task,2021.2.3,Win32,60.0060006,5cba9407cf04f6001827abfa,626b377229c10585ec392f8a,626b3b5aff0b7ef5dc450f7f,,,,,Do you have any form of color blindness?,,,0.7,0,No,19.2797,,,,,,,,,,,,,,,,,,,,,,,,,,,,,,,,,,,,,,,,,,,,,,,,,,,,,,,,,
,5cba9407cf04f6001827abfa,001,2022-04-29_10h12.44.882,classification_task,2021.2.3,Win32,60.0060006,5cba9407cf04f6001827abfa,626b377229c10585ec392f8a,626b3b5aff0b7ef5dc450f7f,,,,,Do you use software to change the colour temperature of your screen (e.g. f.lux)?,,,0.7,0,No,21.3968,,,,,,,,,,,,,,,,,,,,,,,,,,,,,,,,,,,,,,,,,,,,,,,,,,,,,,,,,
,5cba9407cf04f6001827abfa,001,2022-04-29_10h12.44.882,classification_task,2021.2.3,Win32,60.0060006,5cba9407cf04f6001827abfa,626b377229c10585ec392f8a,626b3b5aff0b7ef5dc450f7f,,,,,,,,,,,,space,16.5655,space,6.4582,0,0,0,0,1,,,,,,,,,,,,,,,,,,,,,,,,,,,,,,,,,,,,,,,,,,,,,,,,
,5cba9407cf04f6001827abfa,001,2022-04-29_10h12.44.882,classification_task,2021.2.3,Win32,60.0060006,5cba9407cf04f6001827abfa,626b377229c10585ec392f8a,626b3b5aff0b7ef5dc450f7f,,,,,,,,,,,,,,space,8.6728,1,0,1,0,1,,,,,,,,,,,,,,,,,,,,,,,,,,,,,,,,,,,,,,,,,,,,,,,,
,5cba9407cf04f6001827abfa,001,2022-04-29_10h12.44.882,classification_task,2021.2.3,Win32,60.0060006,5cba9407cf04f6001827abfa,626b377229c10585ec392f8a,626b3b5aff0b7ef5dc450f7f,,,,,,,,,,,,,,space,24.932,2,0,2,0,1,,,,,,,,,,,,,,,,,,,,,,,,,,,,,,,,,,,,,,,,,,,,,,,,
,5cba9407cf04f6001827abfa,001,2022-04-29_10h12.44.882,classification_task,2021.2.3,Win32,60.0060006,5cba9407cf04f6001827abfa,626b377229c10585ec392f8a,626b3b5aff0b7ef5dc450f7f,,,,,,,,,,,,,,space,4.3257,3,0,3,0,1,,,,,,,,,,,,,,,,,,,,,,,,,,,,,,,,,,,,,,,,,,,,,,,,
,5cba9407cf04f6001827abfa,001,2022-04-29_10h12.44.882,classification_task,2021.2.3,Win32,60.0060006,5cba9407cf04f6001827abfa,626b377229c10585ec392f8a,626b3b5aff0b7ef5dc450f7f,,,,,,,,,,,,,,space,7.1347,4,0,4,0,1,,,,,,,,,,,,,,,,,,,,,,,,,,,,,,,,,,,,,,,,,,,,,,,,
,5cba9407cf04f6001827abfa,001,2022-04-29_10h12.44.882,classification_task,2021.2.3,Win32,60.0060006,5cba9407cf04f6001827abfa,626b377229c10585ec392f8a,626b3b5aff0b7ef5dc450f7f,,,,,,,,,,,,,,,,,,,,,space,9.0454,l,1,6.4294,"[""0.045"",""0.371"",""0.507"",""0.663""]","[1,1,1,0]",0,0,0,0,1,1,1,,,1,FALSE,,,,,,,,,,,,,,,,,,,,,,,,,,,,,,
,5cba9407cf04f6001827abfa,001,2022-04-29_10h12.44.882,classification_task,2021.2.3,Win32,60.0060006,5cba9407cf04f6001827abfa,626b377229c10585ec392f8a,626b3b5aff0b7ef5dc450f7f,,,,,,,,,,,,,,,,,,,,,,,l,0,2.6603,"[""0.139"",""0.421"",""0.921"",""0.960""]","[0,1,1,1]",0,1,1,1,1,0,1,,,1,FALSE,,,,,,,,,,,,,,,,,,,,,,,,,,,,,,
,5cba9407cf04f6001827abfa,001,2022-04-29_10h12.44.882,classification_task,2021.2.3,Win32,60.0060006,5cba9407cf04f6001827abfa,626b377229c10585ec392f8a,626b3b5aff0b7ef5dc450f7f,,,,,,,,,,,,,,,,,,,,,,,l,1,7.6673,"[""0.737"",""0.182"",""0.562"",""0.779""]","[0,1,1,1]",0,2,2,2,1,1,0,,,1,FALSE,,,,,,,,,,,,,,,,,,,,,,,,,,,,,,
,5cba9407cf04f6001827abfa,001,2022-04-29_10h12.44.882,classification_task,2021.2.3,Win32,60.0060006,5cba9407cf04f6001827abfa,626b377229c10585ec392f8a,626b3b5aff0b7ef5dc450f7f,,,,,,,,,,,,,,,,,,,,,,,l,1,6.1047,"[""0.833"",""0.371"",""0.507"",""0.701""]","[0,1,1,1]",0,3,3,3,1,1,1,,,1,FALSE,,,,,,,,,,,,,,,,,,,,,,,,,,,,,,
,5cba9407cf04f6001827abfa,001,2022-04-29_10h12.44.882,classification_task,2021.2.3,Win32,60.0060006,5cba9407cf04f6001827abfa,626b377229c10585ec392f8a,626b3b5aff0b7ef5dc450f7f,,,,,,,,,,,,,,,,,,,,,,,a,1,5.9311,"[""0.309"",""0.663"",""0.601"",""0.877""]","[1,0,1,1]",0,4,4,4,1,0,0,,,1,FALSE,,,,,,,,,,,,,,,,,,,,,,,,,,,,,,
,5cba9407cf04f6001827abfa,001,2022-04-29_10h12.44.882,classification_task,2021.2.3,Win32,60.0060006,5cba9407cf04f6001827abfa,626b377229c10585ec392f8a,626b3b5aff0b7ef5dc450f7f,,,,,,,,,,,,,,,,,,,,,,,,0,,"[""0.218"",""0.838"",""0.921"",""0.960""]","[1,0,1,1]",0,5,5,5,1,0,1,,,1,FALSE,,,,,,,,,,,,,,,,,,,,,,,,,,,,,,
,5cba9407cf04f6001827abfa,001,2022-04-29_10h12.44.882,classification_task,2021.2.3,Win32,60.0060006,5cba9407cf04f6001827abfa,626b377229c10585ec392f8a,626b3b5aff0b7ef5dc450f7f,,,,,,,,,,,,,,,,,,,,,,,l,1,9.769,"[""0.045"",""0.371"",""0.636"",""0.701""]","[1,1,0,1]",0,6,6,6,1,1,1,,,1,FALSE,,,,,,,,,,,,,,,,,,,,,,,,,,,,,,
,5cba9407cf04f6001827abfa,001,2022-04-29_10h12.44.882,classification_task,2021.2.3,Win32,60.0060006,5cba9407cf04f6001827abfa,626b377229c10585ec392f8a,626b3b5aff0b7ef5dc450f7f,,,,,,,,,,,,,,,,,,,,,,,a,1,6.7879,"[""0.139"",""0.460"",""0.601"",""0.877""]","[0,1,1,1]",0,7,7,7,1,0,0,,,1,FALSE,,,,,,,,,,,,,,,,,,,,,,,,,,,,,,
,5cba9407cf04f6001827abfa,001,2022-04-29_10h12.44.882,classification_task,2021.2.3,Win32,60.0060006,5cba9407cf04f6001827abfa,626b377229c10585ec392f8a,626b3b5aff0b7ef5dc450f7f,,,,,,,,,,,,,,,,,,,,,,,l,1,8.5649,"[""0.083"",""0.182"",""0.838"",""0.779""]","[1,1,0,1]",0,8,8,8,1,1,0,,,1,FALSE,,,,,,,,,,,,,,,,,,,,,,,,,,,,,,
,5cba9407cf04f6001827abfa,001,2022-04-29_10h12.44.882,classification_task,2021.2.3,Win32,60.0060006,5cba9407cf04f6001827abfa,626b377229c10585ec392f8a,626b3b5aff0b7ef5dc450f7f,,,,,,,,,,,,,,,,,,,,,,,l,1,6.9045,"[""0.045"",""0.124"",""0.507"",""0.701""]","[1,0,1,1]",0,9,9,9,1,1,1,,,1,FALSE,,,,,,,,,,,,,,,,,,,,,,,,,,,,,,
,5cba9407cf04f6001827abfa,001,2022-04-29_10h12.44.882,classification_task,2021.2.3,Win32,60.0060006,5cba9407cf04f6001827abfa,626b377229c10585ec392f8a,626b3b5aff0b7ef5dc450f7f,,,,,,,,,,,,,,,,,,,,,,,a,1,6.1226,"[""0.309"",""0.460"",""0.647"",""0.877""]","[1,1,0,1]",0,10,10,10,1,0,0,,,1,FALSE,,,,,,,,,,,,,,,,,,,,,,,,,,,,,,
,5cba9407cf04f6001827abfa,001,2022-04-29_10h12.44.882,classification_task,2021.2.3,Win32,60.0060006,5cba9407cf04f6001827abfa,626b377229c10585ec392f8a,626b3b5aff0b7ef5dc450f7f,,,,,,,,,,,,,,,,,,,,,,,a,1,7.0215,"[""0.218"",""0.421"",""0.921"",""0.656""]","[1,1,1,0]",0,11,11,11,1,0,1,,,1,FALSE,,,,,,,,,,,,,,,,,,,,,,,,,,,,,,
,5cba9407cf04f6001827abfa,001,2022-04-29_10h12.44.882,classification_task,2021.2.3,Win32,60.0060006,5cba9407cf04f6001827abfa,626b377229c10585ec392f8a,626b3b5aff0b7ef5dc450f7f,,,,,,,,,,,,,,,,,,,,,,,l,1,6.713,"[""0.083"",""0.182"",""0.562"",""0.737""]","[1,1,1,0]",0,12,12,12,1,1,0,,,1,FALSE,,,,,,,,,,,,,,,,,,,,,,,,,,,,,,
,5cba9407cf04f6001827abfa,001,2022-04-29_10h12.44.882,classification_task,2021.2.3,Win32,60.0060006,5cba9407cf04f6001827abfa,626b377229c10585ec392f8a,626b3b5aff0b7ef5dc450f7f,,,,,,,,,,,,,,,,,,,,,,,a,1,8.2264,"[""0.218"",""0.421"",""0.737"",""0.960""]","[1,1,0,1]",0,13,13,13,1,0,1,,,1,FALSE,,,,,,,,,,,,,,,,,,,,,,,,,,,,,,
,5cba9407cf04f6001827abfa,001,2022-04-29_10h12.44.882,classification_task,2021.2.3,Win32,60.0060006,5cba9407cf04f6001827abfa,626b377229c10585ec392f8a,626b3b5aff0b7ef5dc450f7f,,,,,,,,,,,,,,,,,,,,,,,l,1,5.1124,"[""0.083"",""0.742"",""0.562"",""0.779""]","[1,0,1,1]",0,14,14,14,1,1,0,,,1,FALSE,,,,,,,,,,,,,,,,,,,,,,,,,,,,,,
,5cba9407cf04f6001827abfa,001,2022-04-29_10h12.44.882,classification_task,2021.2.3,Win32,60.0060006,5cba9407cf04f6001827abfa,626b377229c10585ec392f8a,626b3b5aff0b7ef5dc450f7f,,,,,,,,,,,,,,,,,,,,,,,a,1,7.0123,"[""0.309"",""0.460"",""0.601"",""0.268""]","[1,1,1,0]",0,15,15,15,1,0,0,,,1,FALSE,,,,,,,,,,,,,,,,,,,,,,,,,,,,,,
,5cba9407cf04f6001827abfa,001,2022-04-29_10h12.44.882,classification_task,2021.2.3,Win32,60.0060006,5cba9407cf04f6001827abfa,626b377229c10585ec392f8a,626b3b5aff0b7ef5dc450f7f,,,,,,,,,,,,,,,,,,,,,,,l,1,5.6531,"[""0.045"",""0.371"",""0.507"",""0.636""]","[1,1,1,0]",0,16,16,16,1,1,1,,,1,FALSE,,,,,,,,,,,,,,,,,,,,,,,,,,,,,,
,5cba9407cf04f6001827abfa,001,2022-04-29_10h12.44.882,classification_task,2021.2.3,Win32,60.0060006,5cba9407cf04f6001827abfa,626b377229c10585ec392f8a,626b3b5aff0b7ef5dc450f7f,,,,,,,,,,,,,,,,,,,,,,,l,1,7.1356,"[""0.635"",""0.182"",""0.562"",""0.779""]","[0,1,1,1]",0,17,17,17,1,1,0,,,1,FALSE,,,,,,,,,,,,,,,,,,,,,,,,,,,,,,
,5cba9407cf04f6001827abfa,001,2022-04-29_10h12.44.882,classification_task,2021.2.3,Win32,60.0060006,5cba9407cf04f6001827abfa,626b377229c10585ec392f8a,626b3b5aff0b7ef5dc450f7f,,,,,,,,,,,,,,,,,,,,,,,l,1,6.6346,"[""0.045"",""0.371"",""0.144"",""0.701""]","[1,1,0,1]",0,18,18,18,1,1,1,,,1,FALSE,,,,,,,,,,,,,,,,,,,,,,,,,,,,,,
,5cba9407cf04f6001827abfa,001,2022-04-29_10h12.44.882,classification_task,2021.2.3,Win32,60.0060006,5cba9407cf04f6001827abfa,626b377229c10585ec392f8a,626b3b5aff0b7ef5dc450f7f,,,,,,,,,,,,,,,,,,,,,,,l,1,5.0394,"[""0.083"",""0.182"",""0.562"",""0.652""]","[1,1,1,0]",0,19,19,19,1,1,0,,,1,FALSE,,,,,,,,,,,,,,,,,,,,,,,,,,,,,,
,5cba9407cf04f6001827abfa,001,2022-04-29_10h12.44.882,classification_task,2021.2.3,Win32,60.0060006,5cba9407cf04f6001827abfa,626b377229c10585ec392f8a,626b3b5aff0b7ef5dc450f7f,,,,,,,,,,,,,,,,,,,,,,,a,1,7.4675,"[""0.309"",""0.742"",""0.601"",""0.877""]","[1,0,1,1]",0,20,20,20,1,0,0,,,1,FALSE,,,,,,,,,,,,,,,,,,,,,,,,,,,,,,
,5cba9407cf04f6001827abfa,001,2022-04-29_10h12.44.882,classification_task,2021.2.3,Win32,60.0060006,5cba9407cf04f6001827abfa,626b377229c10585ec392f8a,626b3b5aff0b7ef5dc450f7f,,,,,,,,,,,,,,,,,,,,,,,a,1,6.936,"[""0.309"",""0.460"",""0.601"",""0.656""]","[1,1,1,0]",0,21,21,21,1,0,0,,,1,FALSE,,,,,,,,,,,,,,,,,,,,,,,,,,,,,,
,5cba9407cf04f6001827abfa,001,2022-04-29_10h12.44.882,classification_task,2021.2.3,Win32,60.0060006,5cba9407cf04f6001827abfa,626b377229c10585ec392f8a,626b3b5aff0b7ef5dc450f7f,,,,,,,,,,,,,,,,,,,,,,,a,1,6.1245,"[""0.309"",""0.460"",""0.652"",""0.877""]","[1,1,0,1]",0,22,22,22,1,0,0,,,1,FALSE,,,,,,,,,,,,,,,,,,,,,,,,,,,,,,
,5cba9407cf04f6001827abfa,001,2022-04-29_10h12.44.882,classification_task,2021.2.3,Win32,60.0060006,5cba9407cf04f6001827abfa,626b377229c10585ec392f8a,626b3b5aff0b7ef5dc450f7f,,,,,,,,,,,,,,,,,,,,,,,a,1,6.0325,"[""0.218"",""0.635"",""0.921"",""0.960""]","[1,0,1,1]",0,23,23,23,1,0,1,,,1,FALSE,,,,,,,,,,,,,,,,,,,,,,,,,,,,,,
,5cba9407cf04f6001827abfa,001,2022-04-29_10h12.44.882,classification_task,2021.2.3,Win32,60.0060006,5cba9407cf04f6001827abfa,626b377229c10585ec392f8a,626b3b5aff0b7ef5dc450f7f,,,,,,,,,,,,,,,,,,,,,,,l,1,6.4325,"[""0.139"",""0.371"",""0.507"",""0.701""]","[0,1,1,1]",0,24,24,24,1,1,1,,,1,FALSE,,,,,,,,,,,,,,,,,,,,,,,,,,,,,,
,5cba9407cf04f6001827abfa,001,2022-04-29_10h12.44.882,classification_task,2021.2.3,Win32,60.0060006,5cba9407cf04f6001827abfa,626b377229c10585ec392f8a,626b3b5aff0b7ef5dc450f7f,,,,,,,,,,,,,,,,,,,,,,,a,1,5.0932,"[""0.636"",""0.421"",""0.921"",""0.960""]","[0,1,1,1]",0,25,25,25,1,0,1,,,1,FALSE,,,,,,,,,,,,,,,,,,,,,,,,,,,,,,
,5cba9407cf04f6001827abfa,001,2022-04-29_10h12.44.882,classification_task,2021.2.3,Win32,60.0060006,5cba9407cf04f6001827abfa,626b377229c10585ec392f8a,626b3b5aff0b7ef5dc450f7f,,,,,,,,,,,,,,,,,,,,,,,l,0,4.5157,"[""0.218"",""0.421"",""0.921"",""0.268""]","[1,1,1,0]",0,26,26,26,1,0,1,,,1,FALSE,,,,,,,,,,,,,,,,,,,,,,,,,,,,,,
,5cba9407cf04f6001827abfa,001,2022-04-29_10h12.44.882,classification_task,2021.2.3,Win32,60.0060006,5cba9407cf04f6001827abfa,626b377229c10585ec392f8a,626b3b5aff0b7ef5dc450f7f,,,,,,,,,,,,,,,,,,,,,,,l,1,7.616,"[""0.045"",""0.124"",""0.507"",""0.701""]","[1,0,1,1]",0,27,27,27,1,1,1,,,1,FALSE,,,,,,,,,,,,,,,,,,,,,,,,,,,,,,
,5cba9407cf04f6001827abfa,001,2022-04-29_10h12.44.882,classification_task,2021.2.3,Win32,60.0060006,5cba9407cf04f6001827abfa,626b377229c10585ec392f8a,626b3b5aff0b7ef5dc450f7f,,,,,,,,,,,,,,,,,,,,,,,a,1,6.61,"[""0.124"",""0.460"",""0.601"",""0.877""]","[0,1,1,1]",0,28,28,28,1,0,0,,,1,FALSE,,,,,,,,,,,,,,,,,,,,,,,,,,,,,,
,5cba9407cf04f6001827abfa,001,2022-04-29_10h12.44.882,classification_task,2021.2.3,Win32,60.0060006,5cba9407cf04f6001827abfa,626b377229c10585ec392f8a,626b3b5aff0b7ef5dc450f7f,,,,,,,,,,,,,,,,,,,,,,,l,1,6.4225,"[""0.083"",""0.182"",""0.253"",""0.779""]","[1,1,0,1]",0,29,29,29,1,1,0,,,1,FALSE,,,,,,,,,,,,,,,,,,,,,,,,,,,,,,
,5cba9407cf04f6001827abfa,001,2022-04-29_10h12.44.882,classification_task,2021.2.3,Win32,60.0060006,5cba9407cf04f6001827abfa,626b377229c10585ec392f8a,626b3b5aff0b7ef5dc450f7f,,,,,,,,,,,,,,,,,,,,,,,a,1,6.8824,"[""0.218"",""0.421"",""0.253"",""0.960""]","[1,1,0,1]",0,30,30,30,1,0,1,,,1,FALSE,,,,,,,,,,,,,,,,,,,,,,,,,,,,,,
,5cba9407cf04f6001827abfa,001,2022-04-29_10h12.44.882,classification_task,2021.2.3,Win32,60.0060006,5cba9407cf04f6001827abfa,626b377229c10585ec392f8a,626b3b5aff0b7ef5dc450f7f,,,,,,,,,,,,,,,,,,,,,,,l,1,6.5196,"[""0.083"",""0.652"",""0.562"",""0.779""]","[1,0,1,1]",0,31,31,31,1,1,0,,,1,FALSE,,,,,,,,,,,,,,,,,,,,,,,,,,,,,,
,5cba9407cf04f6001827abfa,001,2022-04-29_10h12.44.882,classification_task,2021.2.3,Win32,60.0060006,5cba9407cf04f6001827abfa,626b377229c10585ec392f8a,626b3b5aff0b7ef5dc450f7f,,,,,,,,,,,,,,,,,,,,,,,l,0,8.4547,"[""0.253"",""0.460"",""0.601"",""0.877""]","[0,1,1,1]",0,32,32,32,1,0,0,,,1,FALSE,,,,,,,,,,,,,,,,,,,,,,,,,,,,,,
,5cba9407cf04f6001827abfa,001,2022-04-29_10h12.44.882,classification_task,2021.2.3,Win32,60.0060006,5cba9407cf04f6001827abfa,626b377229c10585ec392f8a,626b3b5aff0b7ef5dc450f7f,,,,,,,,,,,,,,,,,,,,,,,a,0,5.0862,"[""0.083"",""0.124"",""0.562"",""0.779""]","[1,0,1,1]",0,33,33,33,1,1,0,,,1,FALSE,,,,,,,,,,,,,,,,,,,,,,,,,,,,,,
,5cba9407cf04f6001827abfa,001,2022-04-29_10h12.44.882,classification_task,2021.2.3,Win32,60.0060006,5cba9407cf04f6001827abfa,626b377229c10585ec392f8a,626b3b5aff0b7ef5dc450f7f,,,,,,,,,,,,,,,,,,,,,,,a,0,5.1822,"[""0.045"",""0.139"",""0.507"",""0.701""]","[1,0,1,1]",0,34,34,34,1,1,1,,,1,FALSE,,,,,,,,,,,,,,,,,,,,,,,,,,,,,,
,5cba9407cf04f6001827abfa,001,2022-04-29_10h12.44.882,classification_task,2021.2.3,Win32,60.0060006,5cba9407cf04f6001827abfa,626b377229c10585ec392f8a,626b3b5aff0b7ef5dc450f7f,,,,,,,,,,,,,,,,,,,,,,,a,0,2.8325,"[""0.083"",""0.182"",""0.139"",""0.779""]","[1,1,0,1]",0,35,35,35,1,1,0,,,1,FALSE,,,,,,,,,,,,,,,,,,,,,,,,,,,,,,
,5cba9407cf04f6001827abfa,001,2022-04-29_10h12.44.882,classification_task,2021.2.3,Win32,60.0060006,5cba9407cf04f6001827abfa,626b377229c10585ec392f8a,626b3b5aff0b7ef5dc450f7f,,,,,,,,,,,,,,,,,,,,,,,a,1,2.9204,"[""0.218"",""0.139"",""0.921"",""0.960""]","[1,0,1,1]",0,36,36,36,1,0,1,,,1,FALSE,,,,,,,,,,,,,,,,,,,,,,,,,,,,,,
,5cba9407cf04f6001827abfa,001,2022-04-29_10h12.44.882,classification_task,2021.2.3,Win32,60.0060006,5cba9407cf04f6001827abfa,626b377229c10585ec392f8a,626b3b5aff0b7ef5dc450f7f,,,,,,,,,,,,,,,,,,,,,,,l,1,1.9641,"[""0.737"",""0.371"",""0.507"",""0.701""]","[0,1,1,1]",0,37,37,37,1,1,1,,,1,FALSE,,,,,,,,,,,,,,,,,,,,,,,,,,,,,,
,5cba9407cf04f6001827abfa,001,2022-04-29_10h12.44.882,classification_task,2021.2.3,Win32,60.0060006,5cba9407cf04f6001827abfa,626b377229c10585ec392f8a,626b3b5aff0b7ef5dc450f7f,,,,,,,,,,,,,,,,,,,,,,,l,1,1.1254,"[""0.045"",""0.371"",""0.652"",""0.701""]","[1,1,0,1]",0,38,38,38,1,1,1,,,1,FALSE,,,,,,,,,,,,,,,,,,,,,,,,,,,,,,
,5cba9407cf04f6001827abfa,001,2022-04-29_10h12.44.882,classification_task,2021.2.3,Win32,60.0060006,5cba9407cf04f6001827abfa,626b377229c10585ec392f8a,626b3b5aff0b7ef5dc450f7f,,,,,,,,,,,,,,,,,,,,,,,a,0,2.6602,"[""0.045"",""0.371"",""0.507"",""0.833""]","[1,1,1,0]",0,39,39,39,1,1,1,,,1,FALSE,,,,,,,,,,,,,,,,,,,,,,,,,,,,,,
,5cba9407cf04f6001827abfa,001,2022-04-29_10h12.44.882,classification_task,2021.2.3,Win32,60.0060006,5cba9407cf04f6001827abfa,626b377229c10585ec392f8a,626b3b5aff0b7ef5dc450f7f,,,,,,,,,,,,,,,,,,,,,,,a,0,5.6446,"[""0.083"",""0.182"",""0.562"",""0.635""]","[1,1,1,0]",0,40,40,40,1,1,0,,,1,FALSE,,,,,,,,,,,,,,,,,,,,,,,,,,,,,,
,5cba9407cf04f6001827abfa,001,2022-04-29_10h12.44.882,classification_task,2021.2.3,Win32,60.0060006,5cba9407cf04f6001827abfa,626b377229c10585ec392f8a,626b3b5aff0b7ef5dc450f7f,,,,,,,,,,,,,,,,,,,,,,,l,0,1.6244,"[""0.309"",""0.460"",""0.601"",""0.833""]","[1,1,1,0]",0,41,41,41,1,0,0,,,1,FALSE,,,,,,,,,,,,,,,,,,,,,,,,,,,,,,
,5cba9407cf04f6001827abfa,001,2022-04-29_10h12.44.882,classification_task,2021.2.3,Win32,60.0060006,5cba9407cf04f6001827abfa,626b377229c10585ec392f8a,626b3b5aff0b7ef5dc450f7f,,,,,,,,,,,,,,,,,,,,,,,a,1,3.4045,"[""0.742"",""0.421"",""0.921"",""0.960""]","[0,1,1,1]",0,42,42,42,1,0,1,,,1,FALSE,,,,,,,,,,,,,,,,,,,,,,,,,,,,,,
,5cba9407cf04f6001827abfa,001,2022-04-29_10h12.44.882,classification_task,2021.2.3,Win32,60.0060006,5cba9407cf04f6001827abfa,626b377229c10585ec392f8a,626b3b5aff0b7ef5dc450f7f,,,,,,,,,,,,,,,,,,,,,,,l,0,1.7885,"[""0.309"",""0.460"",""0.742"",""0.877""]","[1,1,0,1]",0,43,43,43,1,0,0,,,1,FALSE,,,,,,,,,,,,,,,,,,,,,,,,,,,,,,
,5cba9407cf04f6001827abfa,001,2022-04-29_10h12.44.882,classification_task,2021.2.3,Win32,60.0060006,5cba9407cf04f6001827abfa,626b377229c10585ec392f8a,626b3b5aff0b7ef5dc450f7f,,,,,,,,,,,,,,,,,,,,,,,l,0,1.2152,"[""0.218"",""0.421"",""0.921"",""0.652""]","[1,1,1,0]",0,44,44,44,1,0,1,,,1,FALSE,,,,,,,,,,,,,,,,,,,,,,,,,,,,,,
,5cba9407cf04f6001827abfa,001,2022-04-29_10h12.44.882,classification_task,2021.2.3,Win32,60.0060006,5cba9407cf04f6001827abfa,626b377229c10585ec392f8a,626b3b5aff0b7ef5dc450f7f,,,,,,,,,,,,,,,,,,,,,,,a,1,3.3282,"[""0.309"",""0.139"",""0.601"",""0.877""]","[1,0,1,1]",0,45,45,45,1,0,0,,,1,FALSE,,,,,,,,,,,,,,,,,,,,,,,,,,,,,,
,5cba9407cf04f6001827abfa,001,2022-04-29_10h12.44.882,classification_task,2021.2.3,Win32,60.0060006,5cba9407cf04f6001827abfa,626b377229c10585ec392f8a,626b3b5aff0b7ef5dc450f7f,,,,,,,,,,,,,,,,,,,,,,,a,1,2.1518,"[""0.218"",""0.421"",""0.139"",""0.960""]","[1,1,0,1]",0,46,46,46,1,0,1,,,1,FALSE,,,,,,,,,,,,,,,,,,,,,,,,,,,,,,
,5cba9407cf04f6001827abfa,001,2022-04-29_10h12.44.882,classification_task,2021.2.3,Win32,60.0060006,5cba9407cf04f6001827abfa,626b377229c10585ec392f8a,626b3b5aff0b7ef5dc450f7f,,,,,,,,,,,,,,,,,,,,,,,a,0,4.5155,"[""0.833"",""0.182"",""0.562"",""0.779""]","[0,1,1,1]",0,47,47,47,1,1,0,,,1,FALSE,,,,,,,,,,,,,,,,,,,,,,,,,,,,,,
,5cba9407cf04f6001827abfa,001,2022-04-29_10h12.44.882,classification_task,2021.2.3,Win32,60.0060006,5cba9407cf04f6001827abfa,626b377229c10585ec392f8a,626b3b5aff0b7ef5dc450f7f,,,,,,,,,,,,,,,,,,,,,,,a,0,2.2377,"[""0.083"",""0.182"",""0.139"",""0.779""]","[1,1,0,1]",0,48,48,48,1,1,0,,,1,FALSE,,,,,,,,,,,,,,,,,,,,,,,,,,,,,,
,5cba9407cf04f6001827abfa,001,2022-04-29_10h12.44.882,classification_task,2021.2.3,Win32,60.0060006,5cba9407cf04f6001827abfa,626b377229c10585ec392f8a,626b3b5aff0b7ef5dc450f7f,,,,,,,,,,,,,,,,,,,,,,,a,1,4.1654,"[""0.218"",""0.421"",""0.921"",""0.124""]","[1,1,1,0]",0,49,49,49,1,0,1,,,1,FALSE,,,,,,,,,,,,,,,,,,,,,,,,,,,,,,
,5cba9407cf04f6001827abfa,001,2022-04-29_10h12.44.882,classification_task,2021.2.3,Win32,60.0060006,5cba9407cf04f6001827abfa,626b377229c10585ec392f8a,626b3b5aff0b7ef5dc450f7f,,,,,,,,,,,,,,,,,,,,,,,a,1,2.9104,"[""0.139"",""0.421"",""0.921"",""0.960""]","[0,1,1,1]",0,50,50,50,1,0,1,,,1,FALSE,,,,,,,,,,,,,,,,,,,,,,,,,,,,,,
,5cba9407cf04f6001827abfa,001,2022-04-29_10h12.44.882,classification_task,2021.2.3,Win32,60.0060006,5cba9407cf04f6001827abfa,626b377229c10585ec392f8a,626b3b5aff0b7ef5dc450f7f,,,,,,,,,,,,,,,,,,,,,,,l,0,1.3878,"[""0.268"",""0.460"",""0.601"",""0.877""]","[0,1,1,1]",0,51,51,51,1,0,0,,,1,FALSE,,,,,,,,,,,,,,,,,,,,,,,,,,,,,,
,5cba9407cf04f6001827abfa,001,2022-04-29_10h12.44.882,classification_task,2021.2.3,Win32,60.0060006,5cba9407cf04f6001827abfa,626b377229c10585ec392f8a,626b3b5aff0b7ef5dc450f7f,,,,,,,,,,,,,,,,,,,,,,,a,0,1.9822,"[""0.144"",""0.182"",""0.562"",""0.779""]","[0,1,1,1]",0,52,52,52,1,1,0,,,1,FALSE,,,,,,,,,,,,,,,,,,,,,,,,,,,,,,
,5cba9407cf04f6001827abfa,001,2022-04-29_10h12.44.882,classification_task,2021.2.3,Win32,60.0060006,5cba9407cf04f6001827abfa,626b377229c10585ec392f8a,626b3b5aff0b7ef5dc450f7f,,,,,,,,,,,,,,,,,,,,,,,l,0,3.8667,"[""0.218"",""0.253"",""0.921"",""0.960""]","[1,0,1,1]",0,53,53,53,1,0,1,,,1,FALSE,,,,,,,,,,,,,,,,,,,,,,,,,,,,,,
,5cba9407cf04f6001827abfa,001,2022-04-29_10h12.44.882,classification_task,2021.2.3,Win32,60.0060006,5cba9407cf04f6001827abfa,626b377229c10585ec392f8a,626b3b5aff0b7ef5dc450f7f,,,,,,,,,,,,,,,,,,,,,,,l,0,1.8606,"[""0.309"",""0.460"",""0.601"",""0.833""]","[1,1,1,0]",0,54,54,54,1,0,0,,,1,FALSE,,,,,,,,,,,,,,,,,,,,,,,,,,,,,,
,5cba9407cf04f6001827abfa,001,2022-04-29_10h12.44.882,classification_task,2021.2.3,Win32,60.0060006,5cba9407cf04f6001827abfa,626b377229c10585ec392f8a,626b3b5aff0b7ef5dc450f7f,,,,,,,,,,,,,,,,,,,,,,,a,0,3.1137,"[""0.045"",""0.371"",""0.507"",""0.652""]","[1,1,1,0]",0,55,55,55,1,1,1,,,1,FALSE,,,,,,,,,,,,,,,,,,,,,,,,,,,,,,
,5cba9407cf04f6001827abfa,001,2022-04-29_10h12.44.882,classification_task,2021.2.3,Win32,60.0060006,5cba9407cf04f6001827abfa,626b377229c10585ec392f8a,626b3b5aff0b7ef5dc450f7f,,,,,,,,,,,,,,,,,,,,,,,a,0,4.7227,"[""0.636"",""0.371"",""0.507"",""0.701""]","[0,1,1,1]",0,56,56,56,1,1,1,,,1,FALSE,,,,,,,,,,,,,,,,,,,,,,,,,,,,,,
,5cba9407cf04f6001827abfa,001,2022-04-29_10h12.44.882,classification_task,2021.2.3,Win32,60.0060006,5cba9407cf04f6001827abfa,626b377229c10585ec392f8a,626b3b5aff0b7ef5dc450f7f,,,,,,,,,,,,,,,,,,,,,,,a,0,1.3828,"[""0.083"",""0.139"",""0.562"",""0.779""]","[1,0,1,1]",0,57,57,57,1,1,0,,,1,FALSE,,,,,,,,,,,,,,,,,,,,,,,,,,,,,,
,5cba9407cf04f6001827abfa,001,2022-04-29_10h12.44.882,classification_task,2021.2.3,Win32,60.0060006,5cba9407cf04f6001827abfa,626b377229c10585ec392f8a,626b3b5aff0b7ef5dc450f7f,,,,,,,,,,,,,,,,,,,,,,,a,0,3.36,"[""0.083"",""0.182"",""0.562"",""0.838""]","[1,1,1,0]",0,58,58,58,1,1,0,,,1,FALSE,,,,,,,,,,,,,,,,,,,,,,,,,,,,,,
,5cba9407cf04f6001827abfa,001,2022-04-29_10h12.44.882,classification_task,2021.2.3,Win32,60.0060006,5cba9407cf04f6001827abfa,626b377229c10585ec392f8a,626b3b5aff0b7ef5dc450f7f,,,,,,,,,,,,,,,,,,,,,,,a,1,5.8147,"[""0.309"",""0.124"",""0.601"",""0.877""]","[1,0,1,1]",0,59,59,59,1,0,0,,,1,FALSE,,,,,,,,,,,,,,,,,,,,,,,,,,,,,,
,5cba9407cf04f6001827abfa,001,2022-04-29_10h12.44.882,classification_task,2021.2.3,Win32,60.0060006,5cba9407cf04f6001827abfa,626b377229c10585ec392f8a,626b3b5aff0b7ef5dc450f7f,,,,,,,,,,,,,,,,,,,,,,,l,1,3.7828,"[""0.045"",""0.371"",""0.833"",""0.701""]","[1,1,0,1]",0,60,60,60,1,1,1,,,1,FALSE,,,,,,,,,,,,,,,,,,,,,,,,,,,,,,
,5cba9407cf04f6001827abfa,001,2022-04-29_10h12.44.882,classification_task,2021.2.3,Win32,60.0060006,5cba9407cf04f6001827abfa,626b377229c10585ec392f8a,626b3b5aff0b7ef5dc450f7f,,,,,,,,,,,,,,,,,,,,,,,a,1,2.9426,"[""0.218"",""0.421"",""0.144"",""0.960""]","[1,1,0,1]",0,61,61,61,1,0,1,,,1,FALSE,,,,,,,,,,,,,,,,,,,,,,,,,,,,,,
,5cba9407cf04f6001827abfa,001,2022-04-29_10h12.44.882,classification_task,2021.2.3,Win32,60.0060006,5cba9407cf04f6001827abfa,626b377229c10585ec392f8a,626b3b5aff0b7ef5dc450f7f,,,,,,,,,,,,,,,,,,,,,,,l,0,3.6265,"[""0.309"",""0.460"",""0.144"",""0.877""]","[1,1,0,1]",0,62,62,62,1,0,0,,,1,FALSE,,,,,,,,,,,,,,,,,,,,,,,,,,,,,,
,5cba9407cf04f6001827abfa,001,2022-04-29_10h12.44.882,classification_task,2021.2.3,Win32,60.0060006,5cba9407cf04f6001827abfa,626b377229c10585ec392f8a,626b3b5aff0b7ef5dc450f7f,,,,,,,,,,,,,,,,,,,,,,,l,1,2.2598,"[""0.045"",""0.742"",""0.507"",""0.701""]","[1,0,1,1]",0,63,63,63,1,1,1,,,1,FALSE,,,,,,,,,,,,,,,,,,,,,,,,,,,,,,
,5cba9407cf04f6001827abfa,001,2022-04-29_10h12.44.882,classification_task,2021.2.3,Win32,60.0060006,5cba9407cf04f6001827abfa,626b377229c10585ec392f8a,626b3b5aff0b7ef5dc450f7f,,,,,,,,,,,,,,,,,,,,,,,,,,,,,,,,,,,,,,,0, ,,0,0,579.2725,0,0,0,0,1,2,1,,,,,,,,,,,,,,,,,
,5cba9407cf04f6001827abfa,001,2022-04-29_10h12.44.882,classification_task,2021.2.3,Win32,60.0060006,5cba9407cf04f6001827abfa,626b377229c10585ec392f8a,626b3b5aff0b7ef5dc450f7f,,,,,,,,,,,,,,,,,,,,,,,,,,,,,,,,,,,,,,,1,  ,,0,10,584.1783,0,0,0,0,1,2,1,,,,,,,,,,,,,,,,,
,5cba9407cf04f6001827abfa,001,2022-04-29_10h12.44.882,classification_task,2021.2.3,Win32,60.0060006,5cba9407cf04f6001827abfa,626b377229c10585ec392f8a,626b3b5aff0b7ef5dc450f7f,,,,,,,,,,,,,,,,,,,,,,,,,,,,,,,,,,,,,,,2,  ,,0,10,588.0735,0,0,0,0,1,2,1,,,,,,,,,,,,,,,,,
,5cba9407cf04f6001827abfa,001,2022-04-29_10h12.44.882,classification_task,2021.2.3,Win32,60.0060006,5cba9407cf04f6001827abfa,626b377229c10585ec392f8a,626b3b5aff0b7ef5dc450f7f,,,,,,,,,,,,,,,,,,,,,,,,,,,,,,,,,,,,,,,,,,,,,0,0,0,0,1,,1,,,,,,,,,,,,,,,,,
,5cba9407cf04f6001827abfa,001,2022-04-29_10h12.44.882,classification_task,2021.2.3,Win32,60.0060006,5cba9407cf04f6001827abfa,626b377229c10585ec392f8a,626b3b5aff0b7ef5dc450f7f,,,,,,,,,,,,,,,,,,,,,space,6.9632,,0,,"[""0.656"",""0.460"",""0.601"",""0.877""]","[0,1,1,1]",0,0,0,0,1,0,0,,,1,FALSE,,,,,,,,,,,,,,,,,,,,,,,,,,,,,,
,5cba9407cf04f6001827abfa,001,2022-04-29_10h12.44.882,classification_task,2021.2.3,Win32,60.0060006,5cba9407cf04f6001827abfa,626b377229c10585ec392f8a,626b3b5aff0b7ef5dc450f7f,,,,,,,,,,,,,,,,,,,,,,,a,0,2.3002,"[""0.083"",""0.124"",""0.562"",""0.779""]","[1,0,1,1]",0,1,1,1,1,1,0,,,1,FALSE,,,,,,,,,,,,,,,,,,,,,,,,,,,,,,
,5cba9407cf04f6001827abfa,001,2022-04-29_10h12.44.882,classification_task,2021.2.3,Win32,60.0060006,5cba9407cf04f6001827abfa,626b377229c10585ec392f8a,626b3b5aff0b7ef5dc450f7f,,,,,,,,,,,,,,,,,,,,,,,l,1,8.2244,"[""0.045"",""0.635"",""0.507"",""0.701""]","[1,0,1,1]",0,2,2,2,1,1,1,,,1,FALSE,,,,,,,,,,,,,,,,,,,,,,,,,,,,,,
,5cba9407cf04f6001827abfa,001,2022-04-29_10h12.44.882,classification_task,2021.2.3,Win32,60.0060006,5cba9407cf04f6001827abfa,626b377229c10585ec392f8a,626b3b5aff0b7ef5dc450f7f,,,,,,,,,,,,,,,,,,,,,,,a,1,1.2305,"[""0.218"",""0.421"",""0.635"",""0.960""]","[1,1,0,1]",0,3,3,3,1,0,1,,,1,FALSE,,,,,,,,,,,,,,,,,,,,,,,,,,,,,,
,5cba9407cf04f6001827abfa,001,2022-04-29_10h12.44.882,classification_task,2021.2.3,Win32,60.0060006,5cba9407cf04f6001827abfa,626b377229c10585ec392f8a,626b3b5aff0b7ef5dc450f7f,,,,,,,,,,,,,,,,,,,,,,,l,1,0.8182,"[""0.045"",""0.371"",""0.507"",""0.663""]","[1,1,1,0]",0,4,4,4,1,1,1,,,1,FALSE,,,,,,,,,,,,,,,,,,,,,,,,,,,,,,
,5cba9407cf04f6001827abfa,001,2022-04-29_10h12.44.882,classification_task,2021.2.3,Win32,60.0060006,5cba9407cf04f6001827abfa,626b377229c10585ec392f8a,626b3b5aff0b7ef5dc450f7f,,,,,,,,,,,,,,,,,,,,,,,l,1,2.7749,"[""0.083"",""0.182"",""0.636"",""0.779""]","[1,1,0,1]",0,5,5,5,1,1,0,,,1,FALSE,,,,,,,,,,,,,,,,,,,,,,,,,,,,,,
,5cba9407cf04f6001827abfa,001,2022-04-29_10h12.44.882,classification_task,2021.2.3,Win32,60.0060006,5cba9407cf04f6001827abfa,626b377229c10585ec392f8a,626b3b5aff0b7ef5dc450f7f,,,,,,,,,,,,,,,,,,,,,,,a,1,2.1086,"[""0.218"",""0.421"",""0.921"",""0.139""]","[1,1,1,0]",0,6,6,6,1,0,1,,,1,FALSE,,,,,,,,,,,,,,,,,,,,,,,,,,,,,,
,5cba9407cf04f6001827abfa,001,2022-04-29_10h12.44.882,classification_task,2021.2.3,Win32,60.0060006,5cba9407cf04f6001827abfa,626b377229c10585ec392f8a,626b3b5aff0b7ef5dc450f7f,,,,,,,,,,,,,,,,,,,,,,,l,1,1.5556,"[""0.636"",""0.182"",""0.562"",""0.779""]","[0,1,1,1]",0,7,7,7,1,1,0,,,1,FALSE,,,,,,,,,,,,,,,,,,,,,,,,,,,,,,
,5cba9407cf04f6001827abfa,001,2022-04-29_10h12.44.882,classification_task,2021.2.3,Win32,60.0060006,5cba9407cf04f6001827abfa,626b377229c10585ec392f8a,626b3b5aff0b7ef5dc450f7f,,,,,,,,,,,,,,,,,,,,,,,a,1,2.8588,"[""0.309"",""0.460"",""0.601"",""0.139""]","[1,1,1,0]",0,8,8,8,1,0,0,,,1,FALSE,,,,,,,,,,,,,,,,,,,,,,,,,,,,,,
,5cba9407cf04f6001827abfa,001,2022-04-29_10h12.44.882,classification_task,2021.2.3,Win32,60.0060006,5cba9407cf04f6001827abfa,626b377229c10585ec392f8a,626b3b5aff0b7ef5dc450f7f,,,,,,,,,,,,,,,,,,,,,,,l,1,1.7533,"[""0.045"",""0.371"",""0.663"",""0.701""]","[1,1,0,1]",0,9,9,9,1,1,1,,,1,FALSE,,,,,,,,,,,,,,,,,,,,,,,,,,,,,,
,5cba9407cf04f6001827abfa,001,2022-04-29_10h12.44.882,classification_task,2021.2.3,Win32,60.0060006,5cba9407cf04f6001827abfa,626b377229c10585ec392f8a,626b3b5aff0b7ef5dc450f7f,,,,,,,,,,,,,,,,,,,,,,,l,1,2.0572,"[""0.124"",""0.371"",""0.507"",""0.701""]","[0,1,1,1]",0,10,10,10,1,1,1,,,1,FALSE,,,,,,,,,,,,,,,,,,,,,,,,,,,,,,
,5cba9407cf04f6001827abfa,001,2022-04-29_10h12.44.882,classification_task,2021.2.3,Win32,60.0060006,5cba9407cf04f6001827abfa,626b377229c10585ec392f8a,626b3b5aff0b7ef5dc450f7f,,,,,,,,,,,,,,,,,,,,,,,a,1,1.4936,"[""0.838"",""0.421"",""0.921"",""0.960""]","[0,1,1,1]",0,11,11,11,1,0,1,,,1,FALSE,,,,,,,,,,,,,,,,,,,,,,,,,,,,,,
,5cba9407cf04f6001827abfa,001,2022-04-29_10h12.44.882,classification_task,2021.2.3,Win32,60.0060006,5cba9407cf04f6001827abfa,626b377229c10585ec392f8a,626b3b5aff0b7ef5dc450f7f,,,,,,,,,,,,,,,,,,,,,,,a,1,2.1425,"[""0.218"",""0.663"",""0.921"",""0.960""]","[1,0,1,1]",0,12,12,12,1,0,1,,,1,FALSE,,,,,,,,,,,,,,,,,,,,,,,,,,,,,,
,5cba9407cf04f6001827abfa,001,2022-04-29_10h12.44.882,classification_task,2021.2.3,Win32,60.0060006,5cba9407cf04f6001827abfa,626b377229c10585ec392f8a,626b3b5aff0b7ef5dc450f7f,,,,,,,,,,,,,,,,,,,,,,,a,1,2.2837,"[""0.309"",""0.139"",""0.601"",""0.877""]","[1,0,1,1]",0,13,13,13,1,0,0,,,1,FALSE,,,,,,,,,,,,,,,,,,,,,,,,,,,,,,
,5cba9407cf04f6001827abfa,001,2022-04-29_10h12.44.882,classification_task,2021.2.3,Win32,60.0060006,5cba9407cf04f6001827abfa,626b377229c10585ec392f8a,626b3b5aff0b7ef5dc450f7f,,,,,,,,,,,,,,,,,,,,,,,l,1,2.3066,"[""0.083"",""0.182"",""0.562"",""0.139""]","[1,1,1,0]",0,14,14,14,1,1,0,,,1,FALSE,,,,,,,,,,,,,,,,,,,,,,,,,,,,,,
,5cba9407cf04f6001827abfa,001,2022-04-29_10h12.44.882,classification_task,2021.2.3,Win32,60.0060006,5cba9407cf04f6001827abfa,626b377229c10585ec392f8a,626b3b5aff0b7ef5dc450f7f,,,,,,,,,,,,,,,,,,,,,,,l,0,2.7584,"[""0.309"",""0.460"",""0.139"",""0.877""]","[1,1,0,1]",0,15,15,15,1,0,0,,,1,FALSE,,,,,,,,,,,,,,,,,,,,,,,,,,,,,,
,5cba9407cf04f6001827abfa,001,2022-04-29_10h12.44.882,classification_task,2021.2.3,Win32,60.0060006,5cba9407cf04f6001827abfa,626b377229c10585ec392f8a,626b3b5aff0b7ef5dc450f7f,,,,,,,,,,,,,,,,,,,,,,,l,1,4.6024,"[""0.045"",""0.371"",""0.635"",""0.701""]","[1,1,0,1]",0,16,16,16,1,1,1,,,1,FALSE,,,,,,,,,,,,,,,,,,,,,,,,,,,,,,
,5cba9407cf04f6001827abfa,001,2022-04-29_10h12.44.882,classification_task,2021.2.3,Win32,60.0060006,5cba9407cf04f6001827abfa,626b377229c10585ec392f8a,626b3b5aff0b7ef5dc450f7f,,,,,,,,,,,,,,,,,,,,,,,l,1,1.5323,"[""0.083"",""0.182"",""0.562"",""0.833""]","[1,1,1,0]",0,17,17,17,1,1,0,,,1,FALSE,,,,,,,,,,,,,,,,,,,,,,,,,,,,,,
,5cba9407cf04f6001827abfa,001,2022-04-29_10h12.44.882,classification_task,2021.2.3,Win32,60.0060006,5cba9407cf04f6001827abfa,626b377229c10585ec392f8a,626b3b5aff0b7ef5dc450f7f,,,,,,,,,,,,,,,,,,,,,,,l,1,1.8901,"[""0.647"",""0.371"",""0.507"",""0.701""]","[0,1,1,1]",0,18,18,18,1,1,1,,,1,FALSE,,,,,,,,,,,,,,,,,,,,,,,,,,,,,,
,5cba9407cf04f6001827abfa,001,2022-04-29_10h12.44.882,classification_task,2021.2.3,Win32,60.0060006,5cba9407cf04f6001827abfa,626b377229c10585ec392f8a,626b3b5aff0b7ef5dc450f7f,,,,,,,,,,,,,,,,,,,,,,,a,1,2.6891,"[""0.218"",""0.421"",""0.656"",""0.960""]","[1,1,0,1]",0,19,19,19,1,0,1,,,1,FALSE,,,,,,,,,,,,,,,,,,,,,,,,,,,,,,
,5cba9407cf04f6001827abfa,001,2022-04-29_10h12.44.882,classification_task,2021.2.3,Win32,60.0060006,5cba9407cf04f6001827abfa,626b377229c10585ec392f8a,626b3b5aff0b7ef5dc450f7f,,,,,,,,,,,,,,,,,,,,,,,l,1,3.307,"[""0.083"",""0.182"",""0.253"",""0.779""]","[1,1,0,1]",0,20,20,20,1,1,0,,,1,FALSE,,,,,,,,,,,,,,,,,,,,,,,,,,,,,,
,5cba9407cf04f6001827abfa,001,2022-04-29_10h12.44.882,classification_task,2021.2.3,Win32,60.0060006,5cba9407cf04f6001827abfa,626b377229c10585ec392f8a,626b3b5aff0b7ef5dc450f7f,,,,,,,,,,,,,,,,,,,,,,,l,0,1.4678,"[""0.139"",""0.460"",""0.601"",""0.877""]","[0,1,1,1]",0,21,21,21,1,0,0,,,1,FALSE,,,,,,,,,,,,,,,,,,,,,,,,,,,,,,
,5cba9407cf04f6001827abfa,001,2022-04-29_10h12.44.882,classification_task,2021.2.3,Win32,60.0060006,5cba9407cf04f6001827abfa,626b377229c10585ec392f8a,626b3b5aff0b7ef5dc450f7f,,,,,,,,,,,,,,,,,,,,,,,a,1,2.3023,"[""0.656"",""0.421"",""0.921"",""0.960""]","[0,1,1,1]",0,22,22,22,1,0,1,,,1,FALSE,,,,,,,,,,,,,,,,,,,,,,,,,,,,,,
,5cba9407cf04f6001827abfa,001,2022-04-29_10h12.44.882,classification_task,2021.2.3,Win32,60.0060006,5cba9407cf04f6001827abfa,626b377229c10585ec392f8a,626b3b5aff0b7ef5dc450f7f,,,,,,,,,,,,,,,,,,,,,,,a,1,2.2185,"[""0.218"",""0.656"",""0.921"",""0.960""]","[1,0,1,1]",0,23,23,23,1,0,1,,,1,FALSE,,,,,,,,,,,,,,,,,,,,,,,,,,,,,,
,5cba9407cf04f6001827abfa,001,2022-04-29_10h12.44.882,classification_task,2021.2.3,Win32,60.0060006,5cba9407cf04f6001827abfa,626b377229c10585ec392f8a,626b3b5aff0b7ef5dc450f7f,,,,,,,,,,,,,,,,,,,,,,,l,1,2.0026,"[""0.045"",""0.144"",""0.507"",""0.701""]","[1,0,1,1]",0,24,24,24,1,1,1,,,1,FALSE,,,,,,,,,,,,,,,,,,,,,,,,,,,,,,
,5cba9407cf04f6001827abfa,001,2022-04-29_10h12.44.882,classification_task,2021.2.3,Win32,60.0060006,5cba9407cf04f6001827abfa,626b377229c10585ec392f8a,626b3b5aff0b7ef5dc450f7f,,,,,,,,,,,,,,,,,,,,,,,l,1,1.322,"[""0.045"",""0.371"",""0.507"",""0.124""]","[1,1,1,0]",0,25,25,25,1,1,1,,,1,FALSE,,,,,,,,,,,,,,,,,,,,,,,,,,,,,,
,5cba9407cf04f6001827abfa,001,2022-04-29_10h12.44.882,classification_task,2021.2.3,Win32,60.0060006,5cba9407cf04f6001827abfa,626b377229c10585ec392f8a,626b3b5aff0b7ef5dc450f7f,,,,,,,,,,,,,,,,,,,,,,,a,1,2.0524,"[""0.218"",""0.421"",""0.921"",""0.742""]","[1,1,1,0]",0,26,26,26,1,0,1,,,1,FALSE,,,,,,,,,,,,,,,,,,,,,,,,,,,,,,
,5cba9407cf04f6001827abfa,001,2022-04-29_10h12.44.882,classification_task,2021.2.3,Win32,60.0060006,5cba9407cf04f6001827abfa,626b377229c10585ec392f8a,626b3b5aff0b7ef5dc450f7f,,,,,,,,,,,,,,,,,,,,,,,a,1,1.0772,"[""0.309"",""0.460"",""0.833"",""0.877""]","[1,1,0,1]",0,27,27,27,1,0,0,,,1,FALSE,,,,,,,,,,,,,,,,,,,,,,,,,,,,,,
,5cba9407cf04f6001827abfa,001,2022-04-29_10h12.44.882,classification_task,2021.2.3,Win32,60.0060006,5cba9407cf04f6001827abfa,626b377229c10585ec392f8a,626b3b5aff0b7ef5dc450f7f,,,,,,,,,,,,,,,,,,,,,,,a,1,1.2894,"[""0.309"",""0.460"",""0.601"",""0.144""]","[1,1,1,0]",0,28,28,28,1,0,0,,,1,FALSE,,,,,,,,,,,,,,,,,,,,,,,,,,,,,,
,5cba9407cf04f6001827abfa,001,2022-04-29_10h12.44.882,classification_task,2021.2.3,Win32,60.0060006,5cba9407cf04f6001827abfa,626b377229c10585ec392f8a,626b3b5aff0b7ef5dc450f7f,,,,,,,,,,,,,,,,,,,,,,,l,1,2.084,"[""0.083"",""0.647"",""0.562"",""0.779""]","[1,0,1,1]",0,29,29,29,1,1,0,,,1,FALSE,,,,,,,,,,,,,,,,,,,,,,,,,,,,,,
,5cba9407cf04f6001827abfa,001,2022-04-29_10h12.44.882,classification_task,2021.2.3,Win32,60.0060006,5cba9407cf04f6001827abfa,626b377229c10585ec392f8a,626b3b5aff0b7ef5dc450f7f,,,,,,,,,,,,,,,,,,,,,,,l,1,0.8591,"[""0.636"",""0.182"",""0.562"",""0.779""]","[0,1,1,1]",0,30,30,30,1,1,0,,,1,FALSE,,,,,,,,,,,,,,,,,,,,,,,,,,,,,,
,5cba9407cf04f6001827abfa,001,2022-04-29_10h12.44.882,classification_task,2021.2.3,Win32,60.0060006,5cba9407cf04f6001827abfa,626b377229c10585ec392f8a,626b3b5aff0b7ef5dc450f7f,,,,,,,,,,,,,,,,,,,,,,,l,0,3.4066,"[""0.309"",""0.635"",""0.601"",""0.877""]","[1,0,1,1]",0,31,31,31,1,0,0,,,1,FALSE,,,,,,,,,,,,,,,,,,,,,,,,,,,,,,
,5cba9407cf04f6001827abfa,001,2022-04-29_10h12.44.882,classification_task,2021.2.3,Win32,60.0060006,5cba9407cf04f6001827abfa,626b377229c10585ec392f8a,626b3b5aff0b7ef5dc450f7f,,,,,,,,,,,,,,,,,,,,,,,a,1,1.8373,"[""0.139"",""0.421"",""0.921"",""0.960""]","[0,1,1,1]",0,32,32,32,1,0,1,,,1,FALSE,,,,,,,,,,,,,,,,,,,,,,,,,,,,,,
,5cba9407cf04f6001827abfa,001,2022-04-29_10h12.44.882,classification_task,2021.2.3,Win32,60.0060006,5cba9407cf04f6001827abfa,626b377229c10585ec392f8a,626b3b5aff0b7ef5dc450f7f,,,,,,,,,,,,,,,,,,,,,,,l,1,1.0709,"[""0.045"",""0.833"",""0.507"",""0.701""]","[1,0,1,1]",0,33,33,33,1,1,1,,,1,FALSE,,,,,,,,,,,,,,,,,,,,,,,,,,,,,,
,5cba9407cf04f6001827abfa,001,2022-04-29_10h12.44.882,classification_task,2021.2.3,Win32,60.0060006,5cba9407cf04f6001827abfa,626b377229c10585ec392f8a,626b3b5aff0b7ef5dc450f7f,,,,,,,,,,,,,,,,,,,,,,,a,1,2.766,"[""0.253"",""0.460"",""0.601"",""0.877""]","[0,1,1,1]",0,34,34,34,1,0,0,,,1,FALSE,,,,,,,,,,,,,,,,,,,,,,,,,,,,,,
,5cba9407cf04f6001827abfa,001,2022-04-29_10h12.44.882,classification_task,2021.2.3,Win32,60.0060006,5cba9407cf04f6001827abfa,626b377229c10585ec392f8a,626b3b5aff0b7ef5dc450f7f,,,,,,,,,,,,,,,,,,,,,,,l,1,1.4709,"[""0.083"",""0.268"",""0.562"",""0.779""]","[1,0,1,1]",0,35,35,35,1,1,0,,,1,FALSE,,,,,,,,,,,,,,,,,,,,,,,,,,,,,,
,5cba9407cf04f6001827abfa,001,2022-04-29_10h12.44.882,classification_task,2021.2.3,Win32,60.0060006,5cba9407cf04f6001827abfa,626b377229c10585ec392f8a,626b3b5aff0b7ef5dc450f7f,,,,,,,,,,,,,,,,,,,,,,,a,0,2.5289,"[""0.144"",""0.182"",""0.562"",""0.779""]","[0,1,1,1]",0,36,36,36,1,1,0,,,1,FALSE,,,,,,,,,,,,,,,,,,,,,,,,,,,,,,
,5cba9407cf04f6001827abfa,001,2022-04-29_10h12.44.882,classification_task,2021.2.3,Win32,60.0060006,5cba9407cf04f6001827abfa,626b377229c10585ec392f8a,626b3b5aff0b7ef5dc450f7f,,,,,,,,,,,,,,,,,,,,,,,a,1,2.845,"[""0.218"",""0.636"",""0.921"",""0.960""]","[1,0,1,1]",0,37,37,37,1,0,1,,,1,FALSE,,,,,,,,,,,,,,,,,,,,,,,,,,,,,,
,5cba9407cf04f6001827abfa,001,2022-04-29_10h12.44.882,classification_task,2021.2.3,Win32,60.0060006,5cba9407cf04f6001827abfa,626b377229c10585ec392f8a,626b3b5aff0b7ef5dc450f7f,,,,,,,,,,,,,,,,,,,,,,,l,1,2.0332,"[""0.083"",""0.182"",""0.562"",""0.652""]","[1,1,1,0]",0,38,38,38,1,1,0,,,1,FALSE,,,,,,,,,,,,,,,,,,,,,,,,,,,,,,
,5cba9407cf04f6001827abfa,001,2022-04-29_10h12.44.882,classification_task,2021.2.3,Win32,60.0060006,5cba9407cf04f6001827abfa,626b377229c10585ec392f8a,626b3b5aff0b7ef5dc450f7f,,,,,,,,,,,,,,,,,,,,,,,l,1,2.0569,"[""0.663"",""0.371"",""0.507"",""0.701""]","[0,1,1,1]",0,39,39,39,1,1,1,,,1,FALSE,,,,,,,,,,,,,,,,,,,,,,,,,,,,,,
,5cba9407cf04f6001827abfa,001,2022-04-29_10h12.44.882,classification_task,2021.2.3,Win32,60.0060006,5cba9407cf04f6001827abfa,626b377229c10585ec392f8a,626b3b5aff0b7ef5dc450f7f,,,,,,,,,,,,,,,,,,,,,,,l,0,1.666,"[""0.309"",""0.838"",""0.601"",""0.877""]","[1,0,1,1]",0,40,40,40,1,0,0,,,1,FALSE,,,,,,,,,,,,,,,,,,,,,,,,,,,,,,
,5cba9407cf04f6001827abfa,001,2022-04-29_10h12.44.882,classification_task,2021.2.3,Win32,60.0060006,5cba9407cf04f6001827abfa,626b377229c10585ec392f8a,626b3b5aff0b7ef5dc450f7f,,,,,,,,,,,,,,,,,,,,,,,a,1,1.5679,"[""0.309"",""0.460"",""0.601"",""0.838""]","[1,1,1,0]",0,41,41,41,1,0,0,,,1,FALSE,,,,,,,,,,,,,,,,,,,,,,,,,,,,,,
,5cba9407cf04f6001827abfa,001,2022-04-29_10h12.44.882,classification_task,2021.2.3,Win32,60.0060006,5cba9407cf04f6001827abfa,626b377229c10585ec392f8a,626b3b5aff0b7ef5dc450f7f,,,,,,,,,,,,,,,,,,,,,,,a,1,2.8668,"[""0.218"",""0.421"",""0.656"",""0.960""]","[1,1,0,1]",0,42,42,42,1,0,1,,,1,FALSE,,,,,,,,,,,,,,,,,,,,,,,,,,,,,,
,5cba9407cf04f6001827abfa,001,2022-04-29_10h12.44.882,classification_task,2021.2.3,Win32,60.0060006,5cba9407cf04f6001827abfa,626b377229c10585ec392f8a,626b3b5aff0b7ef5dc450f7f,,,,,,,,,,,,,,,,,,,,,,,a,0,2.2914,"[""0.083"",""0.182"",""0.737"",""0.779""]","[1,1,0,1]",0,43,43,43,1,1,0,,,1,FALSE,,,,,,,,,,,,,,,,,,,,,,,,,,,,,,
,5cba9407cf04f6001827abfa,001,2022-04-29_10h12.44.882,classification_task,2021.2.3,Win32,60.0060006,5cba9407cf04f6001827abfa,626b377229c10585ec392f8a,626b3b5aff0b7ef5dc450f7f,,,,,,,,,,,,,,,,,,,,,,,l,1,2.2866,"[""0.045"",""0.371"",""0.742"",""0.701""]","[1,1,0,1]",0,44,44,44,1,1,1,,,1,FALSE,,,,,,,,,,,,,,,,,,,,,,,,,,,,,,
,5cba9407cf04f6001827abfa,001,2022-04-29_10h12.44.882,classification_task,2021.2.3,Win32,60.0060006,5cba9407cf04f6001827abfa,626b377229c10585ec392f8a,626b3b5aff0b7ef5dc450f7f,,,,,,,,,,,,,,,,,,,,,,,a,1,1.4596,"[""0.218"",""0.421"",""0.921"",""0.647""]","[1,1,1,0]",0,45,45,45,1,0,1,,,1,FALSE,,,,,,,,,,,,,,,,,,,,,,,,,,,,,,
,5cba9407cf04f6001827abfa,001,2022-04-29_10h12.44.882,classification_task,2021.2.3,Win32,60.0060006,5cba9407cf04f6001827abfa,626b377229c10585ec392f8a,626b3b5aff0b7ef5dc450f7f,,,,,,,,,,,,,,,,,,,,,,,l,1,2.0714,"[""0.045"",""0.371"",""0.507"",""0.742""]","[1,1,1,0]",0,46,46,46,1,1,1,,,1,FALSE,,,,,,,,,,,,,,,,,,,,,,,,,,,,,,
,5cba9407cf04f6001827abfa,001,2022-04-29_10h12.44.882,classification_task,2021.2.3,Win32,60.0060006,5cba9407cf04f6001827abfa,626b377229c10585ec392f8a,626b3b5aff0b7ef5dc450f7f,,,,,,,,,,,,,,,,,,,,,,,l,0,1.2219,"[""0.309"",""0.460"",""0.647"",""0.877""]","[1,1,0,1]",0,47,47,47,1,0,0,,,1,FALSE,,,,,,,,,,,,,,,,,,,,,,,,,,,,,,
,5cba9407cf04f6001827abfa,001,2022-04-29_10h12.44.882,classification_task,2021.2.3,Win32,60.0060006,5cba9407cf04f6001827abfa,626b377229c10585ec392f8a,626b3b5aff0b7ef5dc450f7f,,,,,,,,,,,,,,,,,,,,,,,l,1,2.4319,"[""0.083"",""0.182"",""0.647"",""0.779""]","[1,1,0,1]",0,48,48,48,1,1,0,,,1,FALSE,,,,,,,,,,,,,,,,,,,,,,,,,,,,,,
,5cba9407cf04f6001827abfa,001,2022-04-29_10h12.44.882,classification_task,2021.2.3,Win32,60.0060006,5cba9407cf04f6001827abfa,626b377229c10585ec392f8a,626b3b5aff0b7ef5dc450f7f,,,,,,,,,,,,,,,,,,,,,,,a,1,2.0739,"[""0.218"",""0.268"",""0.921"",""0.960""]","[1,0,1,1]",0,49,49,49,1,0,1,,,1,FALSE,,,,,,,,,,,,,,,,,,,,,,,,,,,,,,
,5cba9407cf04f6001827abfa,001,2022-04-29_10h12.44.882,classification_task,2021.2.3,Win32,60.0060006,5cba9407cf04f6001827abfa,626b377229c10585ec392f8a,626b3b5aff0b7ef5dc450f7f,,,,,,,,,,,,,,,,,,,,,,,a,0,1.119,"[""0.838"",""0.182"",""0.562"",""0.779""]","[0,1,1,1]",0,50,50,50,1,1,0,,,1,FALSE,,,,,,,,,,,,,,,,,,,,,,,,,,,,,,
,5cba9407cf04f6001827abfa,001,2022-04-29_10h12.44.882,classification_task,2021.2.3,Win32,60.0060006,5cba9407cf04f6001827abfa,626b377229c10585ec392f8a,626b3b5aff0b7ef5dc450f7f,,,,,,,,,,,,,,,,,,,,,,,a,1,2.7979,"[""0.218"",""0.421"",""0.652"",""0.960""]","[1,1,0,1]",0,51,51,51,1,0,1,,,1,FALSE,,,,,,,,,,,,,,,,,,,,,,,,,,,,,,
,5cba9407cf04f6001827abfa,001,2022-04-29_10h12.44.882,classification_task,2021.2.3,Win32,60.0060006,5cba9407cf04f6001827abfa,626b377229c10585ec392f8a,626b3b5aff0b7ef5dc450f7f,,,,,,,,,,,,,,,,,,,,,,,a,1,3.8018,"[""0.309"",""0.460"",""0.647"",""0.877""]","[1,1,0,1]",0,52,52,52,1,0,0,,,1,FALSE,,,,,,,,,,,,,,,,,,,,,,,,,,,,,,
,5cba9407cf04f6001827abfa,001,2022-04-29_10h12.44.882,classification_task,2021.2.3,Win32,60.0060006,5cba9407cf04f6001827abfa,626b377229c10585ec392f8a,626b3b5aff0b7ef5dc450f7f,,,,,,,,,,,,,,,,,,,,,,,a,1,3.914,"[""0.218"",""0.421"",""0.921"",""0.636""]","[1,1,1,0]",0,53,53,53,1,0,1,,,1,FALSE,,,,,,,,,,,,,,,,,,,,,,,,,,,,,,
,5cba9407cf04f6001827abfa,001,2022-04-29_10h12.44.882,classification_task,2021.2.3,Win32,60.0060006,5cba9407cf04f6001827abfa,626b377229c10585ec392f8a,626b3b5aff0b7ef5dc450f7f,,,,,,,,,,,,,,,,,,,,,,,a,0,2.1287,"[""0.083"",""0.144"",""0.562"",""0.779""]","[1,0,1,1]",0,54,54,54,1,1,0,,,1,FALSE,,,,,,,,,,,,,,,,,,,,,,,,,,,,,,
,5cba9407cf04f6001827abfa,001,2022-04-29_10h12.44.882,classification_task,2021.2.3,Win32,60.0060006,5cba9407cf04f6001827abfa,626b377229c10585ec392f8a,626b3b5aff0b7ef5dc450f7f,,,,,,,,,,,,,,,,,,,,,,,a,1,1.9711,"[""0.309"",""0.460"",""0.601"",""0.268""]","[1,1,1,0]",0,55,55,55,1,0,0,,,1,FALSE,,,,,,,,,,,,,,,,,,,,,,,,,,,,,,
,5cba9407cf04f6001827abfa,001,2022-04-29_10h12.44.882,classification_task,2021.2.3,Win32,60.0060006,5cba9407cf04f6001827abfa,626b377229c10585ec392f8a,626b3b5aff0b7ef5dc450f7f,,,,,,,,,,,,,,,,,,,,,,,l,1,1.7985,"[""0.045"",""0.371"",""0.507"",""0.737""]","[1,1,1,0]",0,56,56,56,1,1,1,,,1,FALSE,,,,,,,,,,,,,,,,,,,,,,,,,,,,,,
,5cba9407cf04f6001827abfa,001,2022-04-29_10h12.44.882,classification_task,2021.2.3,Win32,60.0060006,5cba9407cf04f6001827abfa,626b377229c10585ec392f8a,626b3b5aff0b7ef5dc450f7f,,,,,,,,,,,,,,,,,,,,,,,l,1,1.9213,"[""0.663"",""0.371"",""0.507"",""0.701""]","[0,1,1,1]",0,57,57,57,1,1,1,,,1,FALSE,,,,,,,,,,,,,,,,,,,,,,,,,,,,,,
,5cba9407cf04f6001827abfa,001,2022-04-29_10h12.44.882,classification_task,2021.2.3,Win32,60.0060006,5cba9407cf04f6001827abfa,626b377229c10585ec392f8a,626b3b5aff0b7ef5dc450f7f,,,,,,,,,,,,,,,,,,,,,,,a,1,1.7354,"[""0.144"",""0.421"",""0.921"",""0.960""]","[0,1,1,1]",0,58,58,58,1,0,1,,,1,FALSE,,,,,,,,,,,,,,,,,,,,,,,,,,,,,,
,5cba9407cf04f6001827abfa,001,2022-04-29_10h12.44.882,classification_task,2021.2.3,Win32,60.0060006,5cba9407cf04f6001827abfa,626b377229c10585ec392f8a,626b3b5aff0b7ef5dc450f7f,,,,,,,,,,,,,,,,,,,,,,,l,1,2.2505,"[""0.045"",""0.139"",""0.507"",""0.701""]","[1,0,1,1]",0,59,59,59,1,1,1,,,1,FALSE,,,,,,,,,,,,,,,,,,,,,,,,,,,,,,
,5cba9407cf04f6001827abfa,001,2022-04-29_10h12.44.882,classification_task,2021.2.3,Win32,60.0060006,5cba9407cf04f6001827abfa,626b377229c10585ec392f8a,626b3b5aff0b7ef5dc450f7f,,,,,,,,,,,,,,,,,,,,,,,l,1,2.3279,"[""0.045"",""0.371"",""0.838"",""0.701""]","[1,1,0,1]",0,60,60,60,1,1,1,,,1,FALSE,,,,,,,,,,,,,,,,,,,,,,,,,,,,,,
,5cba9407cf04f6001827abfa,001,2022-04-29_10h12.44.882,classification_task,2021.2.3,Win32,60.0060006,5cba9407cf04f6001827abfa,626b377229c10585ec392f8a,626b3b5aff0b7ef5dc450f7f,,,,,,,,,,,,,,,,,,,,,,,a,1,2.4334,"[""0.309"",""0.144"",""0.601"",""0.877""]","[1,0,1,1]",0,61,61,61,1,0,0,,,1,FALSE,,,,,,,,,,,,,,,,,,,,,,,,,,,,,,
,5cba9407cf04f6001827abfa,001,2022-04-29_10h12.44.882,classification_task,2021.2.3,Win32,60.0060006,5cba9407cf04f6001827abfa,626b377229c10585ec392f8a,626b3b5aff0b7ef5dc450f7f,,,,,,,,,,,,,,,,,,,,,,,l,1,2.5419,"[""0.083"",""0.182"",""0.562"",""0.635""]","[1,1,1,0]",0,62,62,62,1,1,0,,,1,FALSE,,,,,,,,,,,,,,,,,,,,,,,,,,,,,,
,5cba9407cf04f6001827abfa,001,2022-04-29_10h12.44.882,classification_task,2021.2.3,Win32,60.0060006,5cba9407cf04f6001827abfa,626b377229c10585ec392f8a,626b3b5aff0b7ef5dc450f7f,,,,,,,,,,,,,,,,,,,,,,,l,0,1.6278,"[""0.144"",""0.460"",""0.601"",""0.877""]","[0,1,1,1]",0,63,63,63,1,0,0,,,1,FALSE,,,,,,,,,,,,,,,,,,,,,,,,,,,,,,
,5cba9407cf04f6001827abfa,001,2022-04-29_10h12.44.882,classification_task,2021.2.3,Win32,60.0060006,5cba9407cf04f6001827abfa,626b377229c10585ec392f8a,626b3b5aff0b7ef5dc450f7f,,,,,,,,,,,,,,,,,,,,,,,,,,,,,,,,,,,,,,,0, ,,0,0,229.8722,0,1,1,1,1,2,2,,,,,,,,,,,,,,,,,
,5cba9407cf04f6001827abfa,001,2022-04-29_10h12.44.882,classification_task,2021.2.3,Win32,60.0060006,5cba9407cf04f6001827abfa,626b377229c10585ec392f8a,626b3b5aff0b7ef5dc450f7f,,,,,,,,,,,,,,,,,,,,,,,,,,,,,,,,,,,,,,,1,  ,,0,10,231.6736,0,1,1,1,1,2,2,,,,,,,,,,,,,,,,,
,5cba9407cf04f6001827abfa,001,2022-04-29_10h12.44.882,classification_task,2021.2.3,Win32,60.0060006,5cba9407cf04f6001827abfa,626b377229c10585ec392f8a,626b3b5aff0b7ef5dc450f7f,,,,,,,,,,,,,,,,,,,,,,,,,,,,,,,,,,,,,,,2,  ,,0,8.723301515,236.3836,0,1,1,1,1,2,2,,,,,,,,,,,,,,,,,
,5cba9407cf04f6001827abfa,001,2022-04-29_10h12.44.882,classification_task,2021.2.3,Win32,60.0060006,5cba9407cf04f6001827abfa,626b377229c10585ec392f8a,626b3b5aff0b7ef5dc450f7f,,,,,,,,,,,,,,,,,,,,,,,,,,,,,,,,,,,,,,,,,,,,,0,1,1,1,1,,2,,,,,,,,,,,,,,,,,
,5cba9407cf04f6001827abfa,001,2022-04-29_10h12.44.882,classification_task,2021.2.3,Win32,60.0060006,5cba9407cf04f6001827abfa,626b377229c10585ec392f8a,626b3b5aff0b7ef5dc450f7f,,,,,,,,,,,,,,,,,,,,,space,5.4598,a,0,2.3947,"[""0.083"",""0.124"",""0.562"",""0.779""]","[1,0,1,1]",0,0,0,0,1,1,0,,,1,FALSE,,,,,,,,,,,,,,,,,,,,,,,,,,,,,,
,5cba9407cf04f6001827abfa,001,2022-04-29_10h12.44.882,classification_task,2021.2.3,Win32,60.0060006,5cba9407cf04f6001827abfa,626b377229c10585ec392f8a,626b3b5aff0b7ef5dc450f7f,,,,,,,,,,,,,,,,,,,,,,,l,1,4.043,"[""0.045"",""0.371"",""0.507"",""0.652""]","[1,1,1,0]",0,1,1,1,1,1,1,,,1,FALSE,,,,,,,,,,,,,,,,,,,,,,,,,,,,,,
,5cba9407cf04f6001827abfa,001,2022-04-29_10h12.44.882,classification_task,2021.2.3,Win32,60.0060006,5cba9407cf04f6001827abfa,626b377229c10585ec392f8a,626b3b5aff0b7ef5dc450f7f,,,,,,,,,,,,,,,,,,,,,,,l,1,2.3465,"[""0.083"",""0.182"",""0.562"",""0.144""]","[1,1,1,0]",0,2,2,2,1,1,0,,,1,FALSE,,,,,,,,,,,,,,,,,,,,,,,,,,,,,,
,5cba9407cf04f6001827abfa,001,2022-04-29_10h12.44.882,classification_task,2021.2.3,Win32,60.0060006,5cba9407cf04f6001827abfa,626b377229c10585ec392f8a,626b3b5aff0b7ef5dc450f7f,,,,,,,,,,,,,,,,,,,,,,,l,1,3.1955,"[""0.652"",""0.182"",""0.562"",""0.779""]","[0,1,1,1]",0,3,3,3,1,1,0,,,1,FALSE,,,,,,,,,,,,,,,,,,,,,,,,,,,,,,
,5cba9407cf04f6001827abfa,001,2022-04-29_10h12.44.882,classification_task,2021.2.3,Win32,60.0060006,5cba9407cf04f6001827abfa,626b377229c10585ec392f8a,626b3b5aff0b7ef5dc450f7f,,,,,,,,,,,,,,,,,,,,,,,a,1,4.0614,"[""0.218"",""0.663"",""0.921"",""0.960""]","[1,0,1,1]",0,4,4,4,1,0,1,,,1,FALSE,,,,,,,,,,,,,,,,,,,,,,,,,,,,,,
,5cba9407cf04f6001827abfa,001,2022-04-29_10h12.44.882,classification_task,2021.2.3,Win32,60.0060006,5cba9407cf04f6001827abfa,626b377229c10585ec392f8a,626b3b5aff0b7ef5dc450f7f,,,,,,,,,,,,,,,,,,,,,,,a,0,2.4446,"[""0.656"",""0.371"",""0.507"",""0.701""]","[0,1,1,1]",0,5,5,5,1,1,1,,,1,FALSE,,,,,,,,,,,,,,,,,,,,,,,,,,,,,,
,5cba9407cf04f6001827abfa,001,2022-04-29_10h12.44.882,classification_task,2021.2.3,Win32,60.0060006,5cba9407cf04f6001827abfa,626b377229c10585ec392f8a,626b3b5aff0b7ef5dc450f7f,,,,,,,,,,,,,,,,,,,,,,,l,1,3.2583,"[""0.083"",""0.182"",""0.139"",""0.779""]","[1,1,0,1]",0,6,6,6,1,1,0,,,1,FALSE,,,,,,,,,,,,,,,,,,,,,,,,,,,,,,
,5cba9407cf04f6001827abfa,001,2022-04-29_10h12.44.882,classification_task,2021.2.3,Win32,60.0060006,5cba9407cf04f6001827abfa,626b377229c10585ec392f8a,626b3b5aff0b7ef5dc450f7f,,,,,,,,,,,,,,,,,,,,,,,a,1,1.6505,"[""0.139"",""0.460"",""0.601"",""0.877""]","[0,1,1,1]",0,7,7,7,1,0,0,,,1,FALSE,,,,,,,,,,,,,,,,,,,,,,,,,,,,,,
,5cba9407cf04f6001827abfa,001,2022-04-29_10h12.44.882,classification_task,2021.2.3,Win32,60.0060006,5cba9407cf04f6001827abfa,626b377229c10585ec392f8a,626b3b5aff0b7ef5dc450f7f,,,,,,,,,,,,,,,,,,,,,,,l,1,1.6346,"[""0.045"",""0.833"",""0.507"",""0.701""]","[1,0,1,1]",0,8,8,8,1,1,1,,,1,FALSE,,,,,,,,,,,,,,,,,,,,,,,,,,,,,,
,5cba9407cf04f6001827abfa,001,2022-04-29_10h12.44.882,classification_task,2021.2.3,Win32,60.0060006,5cba9407cf04f6001827abfa,626b377229c10585ec392f8a,626b3b5aff0b7ef5dc450f7f,,,,,,,,,,,,,,,,,,,,,,,a,1,2.3546,"[""0.309"",""0.460"",""0.742"",""0.877""]","[1,1,0,1]",0,9,9,9,1,0,0,,,1,FALSE,,,,,,,,,,,,,,,,,,,,,,,,,,,,,,
,5cba9407cf04f6001827abfa,001,2022-04-29_10h12.44.882,classification_task,2021.2.3,Win32,60.0060006,5cba9407cf04f6001827abfa,626b377229c10585ec392f8a,626b3b5aff0b7ef5dc450f7f,,,,,,,,,,,,,,,,,,,,,,,l,1,1.2349,"[""0.045"",""0.371"",""0.656"",""0.701""]","[1,1,0,1]",0,10,10,10,1,1,1,,,1,FALSE,,,,,,,,,,,,,,,,,,,,,,,,,,,,,,
,5cba9407cf04f6001827abfa,001,2022-04-29_10h12.44.882,classification_task,2021.2.3,Win32,60.0060006,5cba9407cf04f6001827abfa,626b377229c10585ec392f8a,626b3b5aff0b7ef5dc450f7f,,,,,,,,,,,,,,,,,,,,,,,l,0,1.7625,"[""0.218"",""0.421"",""0.921"",""0.652""]","[1,1,1,0]",0,11,11,11,1,0,1,,,1,FALSE,,,,,,,,,,,,,,,,,,,,,,,,,,,,,,
,5cba9407cf04f6001827abfa,001,2022-04-29_10h12.44.882,classification_task,2021.2.3,Win32,60.0060006,5cba9407cf04f6001827abfa,626b377229c10585ec392f8a,626b3b5aff0b7ef5dc450f7f,,,,,,,,,,,,,,,,,,,,,,,a,1,5.1516,"[""0.309"",""0.742"",""0.601"",""0.877""]","[1,0,1,1]",0,12,12,12,1,0,0,,,1,FALSE,,,,,,,,,,,,,,,,,,,,,,,,,,,,,,
,5cba9407cf04f6001827abfa,001,2022-04-29_10h12.44.882,classification_task,2021.2.3,Win32,60.0060006,5cba9407cf04f6001827abfa,626b377229c10585ec392f8a,626b3b5aff0b7ef5dc450f7f,,,,,,,,,,,,,,,,,,,,,,,a,1,2.8521,"[""0.139"",""0.421"",""0.921"",""0.960""]","[0,1,1,1]",0,13,13,13,1,0,1,,,1,FALSE,,,,,,,,,,,,,,,,,,,,,,,,,,,,,,
,5cba9407cf04f6001827abfa,001,2022-04-29_10h12.44.882,classification_task,2021.2.3,Win32,60.0060006,5cba9407cf04f6001827abfa,626b377229c10585ec392f8a,626b3b5aff0b7ef5dc450f7f,,,,,,,,,,,,,,,,,,,,,,,l,0,2.9822,"[""0.218"",""0.421"",""0.838"",""0.960""]","[1,1,0,1]",0,14,14,14,1,0,1,,,1,FALSE,,,,,,,,,,,,,,,,,,,,,,,,,,,,,,
,5cba9407cf04f6001827abfa,001,2022-04-29_10h12.44.882,classification_task,2021.2.3,Win32,60.0060006,5cba9407cf04f6001827abfa,626b377229c10585ec392f8a,626b3b5aff0b7ef5dc450f7f,,,,,,,,,,,,,,,,,,,,,,,a,1,2.2789,"[""0.309"",""0.460"",""0.601"",""0.268""]","[1,1,1,0]",0,15,15,15,1,0,0,,,1,FALSE,,,,,,,,,,,,,,,,,,,,,,,,,,,,,,
,5cba9407cf04f6001827abfa,001,2022-04-29_10h12.44.882,classification_task,2021.2.3,Win32,60.0060006,5cba9407cf04f6001827abfa,626b377229c10585ec392f8a,626b3b5aff0b7ef5dc450f7f,,,,,,,,,,,,,,,,,,,,,,,a,1,4.7555,"[""0.309"",""0.460"",""0.601"",""0.652""]","[1,1,1,0]",0,16,16,16,1,0,0,,,1,FALSE,,,,,,,,,,,,,,,,,,,,,,,,,,,,,,
,5cba9407cf04f6001827abfa,001,2022-04-29_10h12.44.882,classification_task,2021.2.3,Win32,60.0060006,5cba9407cf04f6001827abfa,626b377229c10585ec392f8a,626b3b5aff0b7ef5dc450f7f,,,,,,,,,,,,,,,,,,,,,,,l,1,2.725,"[""0.083"",""0.182"",""0.562"",""0.636""]","[1,1,1,0]",0,17,17,17,1,1,0,,,1,FALSE,,,,,,,,,,,,,,,,,,,,,,,,,,,,,,
,5cba9407cf04f6001827abfa,001,2022-04-29_10h12.44.882,classification_task,2021.2.3,Win32,60.0060006,5cba9407cf04f6001827abfa,626b377229c10585ec392f8a,626b3b5aff0b7ef5dc450f7f,,,,,,,,,,,,,,,,,,,,,,,l,1,1.5457,"[""0.045"",""0.371"",""0.636"",""0.701""]","[1,1,0,1]",0,18,18,18,1,1,1,,,1,FALSE,,,,,,,,,,,,,,,,,,,,,,,,,,,,,,
,5cba9407cf04f6001827abfa,001,2022-04-29_10h12.44.882,classification_task,2021.2.3,Win32,60.0060006,5cba9407cf04f6001827abfa,626b377229c10585ec392f8a,626b3b5aff0b7ef5dc450f7f,,,,,,,,,,,,,,,,,,,,,,,l,0,2.0361,"[""0.663"",""0.421"",""0.921"",""0.960""]","[0,1,1,1]",0,19,19,19,1,0,1,,,1,FALSE,,,,,,,,,,,,,,,,,,,,,,,,,,,,,,
,5cba9407cf04f6001827abfa,001,2022-04-29_10h12.44.882,classification_task,2021.2.3,Win32,60.0060006,5cba9407cf04f6001827abfa,626b377229c10585ec392f8a,626b3b5aff0b7ef5dc450f7f,,,,,,,,,,,,,,,,,,,,,,,l,0,3.4444,"[""0.218"",""0.421"",""0.921"",""0.144""]","[1,1,1,0]",0,20,20,20,1,0,1,,,1,FALSE,,,,,,,,,,,,,,,,,,,,,,,,,,,,,,
,5cba9407cf04f6001827abfa,001,2022-04-29_10h12.44.882,classification_task,2021.2.3,Win32,60.0060006,5cba9407cf04f6001827abfa,626b377229c10585ec392f8a,626b3b5aff0b7ef5dc450f7f,,,,,,,,,,,,,,,,,,,,,,,a,0,1.3934,"[""0.139"",""0.371"",""0.507"",""0.701""]","[0,1,1,1]",0,21,21,21,1,1,1,,,1,FALSE,,,,,,,,,,,,,,,,,,,,,,,,,,,,,,
,5cba9407cf04f6001827abfa,001,2022-04-29_10h12.44.882,classification_task,2021.2.3,Win32,60.0060006,5cba9407cf04f6001827abfa,626b377229c10585ec392f8a,626b3b5aff0b7ef5dc450f7f,,,,,,,,,,,,,,,,,,,,,,,l,0,2.8821,"[""0.218"",""0.421"",""0.833"",""0.960""]","[1,1,0,1]",0,22,22,22,1,0,1,,,1,FALSE,,,,,,,,,,,,,,,,,,,,,,,,,,,,,,
,5cba9407cf04f6001827abfa,001,2022-04-29_10h12.44.882,classification_task,2021.2.3,Win32,60.0060006,5cba9407cf04f6001827abfa,626b377229c10585ec392f8a,626b3b5aff0b7ef5dc450f7f,,,,,,,,,,,,,,,,,,,,,,,l,0,1.2789,"[""0.218"",""0.139"",""0.921"",""0.960""]","[1,0,1,1]",0,23,23,23,1,0,1,,,1,FALSE,,,,,,,,,,,,,,,,,,,,,,,,,,,,,,
,5cba9407cf04f6001827abfa,001,2022-04-29_10h12.44.882,classification_task,2021.2.3,Win32,60.0060006,5cba9407cf04f6001827abfa,626b377229c10585ec392f8a,626b3b5aff0b7ef5dc450f7f,,,,,,,,,,,,,,,,,,,,,,,l,1,1.8676,"[""0.045"",""0.371"",""0.507"",""0.833""]","[1,1,1,0]",0,24,24,24,1,1,1,,,1,FALSE,,,,,,,,,,,,,,,,,,,,,,,,,,,,,,
,5cba9407cf04f6001827abfa,001,2022-04-29_10h12.44.882,classification_task,2021.2.3,Win32,60.0060006,5cba9407cf04f6001827abfa,626b377229c10585ec392f8a,626b3b5aff0b7ef5dc450f7f,,,,,,,,,,,,,,,,,,,,,,,a,0,1.6914,"[""0.268"",""0.182"",""0.562"",""0.779""]","[0,1,1,1]",0,25,25,25,1,1,0,,,1,FALSE,,,,,,,,,,,,,,,,,,,,,,,,,,,,,,
,5cba9407cf04f6001827abfa,001,2022-04-29_10h12.44.882,classification_task,2021.2.3,Win32,60.0060006,5cba9407cf04f6001827abfa,626b377229c10585ec392f8a,626b3b5aff0b7ef5dc450f7f,,,,,,,,,,,,,,,,,,,,,,,a,1,4.0667,"[""0.663"",""0.460"",""0.601"",""0.877""]","[0,1,1,1]",0,26,26,26,1,0,0,,,1,FALSE,,,,,,,,,,,,,,,,,,,,,,,,,,,,,,
,5cba9407cf04f6001827abfa,001,2022-04-29_10h12.44.882,classification_task,2021.2.3,Win32,60.0060006,5cba9407cf04f6001827abfa,626b377229c10585ec392f8a,626b3b5aff0b7ef5dc450f7f,,,,,,,,,,,,,,,,,,,,,,,l,1,1.8028,"[""0.083"",""0.742"",""0.562"",""0.779""]","[1,0,1,1]",0,27,27,27,1,1,0,,,1,FALSE,,,,,,,,,,,,,,,,,,,,,,,,,,,,,,
,5cba9407cf04f6001827abfa,001,2022-04-29_10h12.44.882,classification_task,2021.2.3,Win32,60.0060006,5cba9407cf04f6001827abfa,626b377229c10585ec392f8a,626b3b5aff0b7ef5dc450f7f,,,,,,,,,,,,,,,,,,,,,,,a,1,1.2705,"[""0.309"",""0.124"",""0.601"",""0.877""]","[1,0,1,1]",0,28,28,28,1,0,0,,,1,FALSE,,,,,,,,,,,,,,,,,,,,,,,,,,,,,,
,5cba9407cf04f6001827abfa,001,2022-04-29_10h12.44.882,classification_task,2021.2.3,Win32,60.0060006,5cba9407cf04f6001827abfa,626b377229c10585ec392f8a,626b3b5aff0b7ef5dc450f7f,,,,,,,,,,,,,,,,,,,,,,,l,0,3.0152,"[""0.309"",""0.460"",""0.635"",""0.877""]","[1,1,0,1]",0,29,29,29,1,0,0,,,1,FALSE,,,,,,,,,,,,,,,,,,,,,,,,,,,,,,
,5cba9407cf04f6001827abfa,001,2022-04-29_10h12.44.882,classification_task,2021.2.3,Win32,60.0060006,5cba9407cf04f6001827abfa,626b377229c10585ec392f8a,626b3b5aff0b7ef5dc450f7f,,,,,,,,,,,,,,,,,,,,,,,l,1,1.4,"[""0.045"",""0.253"",""0.507"",""0.701""]","[1,0,1,1]",0,30,30,30,1,1,1,,,1,FALSE,,,,,,,,,,,,,,,,,,,,,,,,,,,,,,
,5cba9407cf04f6001827abfa,001,2022-04-29_10h12.44.882,classification_task,2021.2.3,Win32,60.0060006,5cba9407cf04f6001827abfa,626b377229c10585ec392f8a,626b3b5aff0b7ef5dc450f7f,,,,,,,,,,,,,,,,,,,,,,,a,0,3.0758,"[""0.083"",""0.182"",""0.833"",""0.779""]","[1,1,0,1]",0,31,31,31,1,1,0,,,1,FALSE,,,,,,,,,,,,,,,,,,,,,,,,,,,,,,
,5cba9407cf04f6001827abfa,001,2022-04-29_10h12.44.882,classification_task,2021.2.3,Win32,60.0060006,5cba9407cf04f6001827abfa,626b377229c10585ec392f8a,626b3b5aff0b7ef5dc450f7f,,,,,,,,,,,,,,,,,,,,,,,a,0,3.3796,"[""0.045"",""0.371"",""0.737"",""0.701""]","[1,1,0,1]",0,32,32,32,1,1,1,,,1,FALSE,,,,,,,,,,,,,,,,,,,,,,,,,,,,,,
,5cba9407cf04f6001827abfa,001,2022-04-29_10h12.44.882,classification_task,2021.2.3,Win32,60.0060006,5cba9407cf04f6001827abfa,626b377229c10585ec392f8a,626b3b5aff0b7ef5dc450f7f,,,,,,,,,,,,,,,,,,,,,,,l,0,1.1181,"[""0.218"",""0.636"",""0.921"",""0.960""]","[1,0,1,1]",0,33,33,33,1,0,1,,,1,FALSE,,,,,,,,,,,,,,,,,,,,,,,,,,,,,,
,5cba9407cf04f6001827abfa,001,2022-04-29_10h12.44.882,classification_task,2021.2.3,Win32,60.0060006,5cba9407cf04f6001827abfa,626b377229c10585ec392f8a,626b3b5aff0b7ef5dc450f7f,,,,,,,,,,,,,,,,,,,,,,,l,1,2.4995,"[""0.083"",""0.656"",""0.562"",""0.779""]","[1,0,1,1]",0,34,34,34,1,1,0,,,1,FALSE,,,,,,,,,,,,,,,,,,,,,,,,,,,,,,
,5cba9407cf04f6001827abfa,001,2022-04-29_10h12.44.882,classification_task,2021.2.3,Win32,60.0060006,5cba9407cf04f6001827abfa,626b377229c10585ec392f8a,626b3b5aff0b7ef5dc450f7f,,,,,,,,,,,,,,,,,,,,,,,a,1,2.1106,"[""0.663"",""0.460"",""0.601"",""0.877""]","[0,1,1,1]",0,35,35,35,1,0,0,,,1,FALSE,,,,,,,,,,,,,,,,,,,,,,,,,,,,,,
,5cba9407cf04f6001827abfa,001,2022-04-29_10h12.44.882,classification_task,2021.2.3,Win32,60.0060006,5cba9407cf04f6001827abfa,626b377229c10585ec392f8a,626b3b5aff0b7ef5dc450f7f,,,,,,,,,,,,,,,,,,,,,,,l,0,1.483,"[""0.636"",""0.421"",""0.921"",""0.960""]","[0,1,1,1]",0,36,36,36,1,0,1,,,1,FALSE,,,,,,,,,,,,,,,,,,,,,,,,,,,,,,
,5cba9407cf04f6001827abfa,001,2022-04-29_10h12.44.882,classification_task,2021.2.3,Win32,60.0060006,5cba9407cf04f6001827abfa,626b377229c10585ec392f8a,626b3b5aff0b7ef5dc450f7f,,,,,,,,,,,,,,,,,,,,,,,a,1,1.1887,"[""0.309"",""0.460"",""0.601"",""0.656""]","[1,1,1,0]",0,37,37,37,1,0,0,,,1,FALSE,,,,,,,,,,,,,,,,,,,,,,,,,,,,,,
,5cba9407cf04f6001827abfa,001,2022-04-29_10h12.44.882,classification_task,2021.2.3,Win32,60.0060006,5cba9407cf04f6001827abfa,626b377229c10585ec392f8a,626b3b5aff0b7ef5dc450f7f,,,,,,,,,,,,,,,,,,,,,,,l,1,1.5335,"[""0.045"",""0.371"",""0.507"",""0.139""]","[1,1,1,0]",0,38,38,38,1,1,1,,,1,FALSE,,,,,,,,,,,,,,,,,,,,,,,,,,,,,,
,5cba9407cf04f6001827abfa,001,2022-04-29_10h12.44.882,classification_task,2021.2.3,Win32,60.0060006,5cba9407cf04f6001827abfa,626b377229c10585ec392f8a,626b3b5aff0b7ef5dc450f7f,,,,,,,,,,,,,,,,,,,,,,,l,0,4.223,"[""0.218"",""0.421"",""0.921"",""0.663""]","[1,1,1,0]",0,39,39,39,1,0,1,,,1,FALSE,,,,,,,,,,,,,,,,,,,,,,,,,,,,,,
,5cba9407cf04f6001827abfa,001,2022-04-29_10h12.44.882,classification_task,2021.2.3,Win32,60.0060006,5cba9407cf04f6001827abfa,626b377229c10585ec392f8a,626b3b5aff0b7ef5dc450f7f,,,,,,,,,,,,,,,,,,,,,,,l,1,3.6598,"[""0.083"",""0.182"",""0.139"",""0.779""]","[1,1,0,1]",0,40,40,40,1,1,0,,,1,FALSE,,,,,,,,,,,,,,,,,,,,,,,,,,,,,,
,5cba9407cf04f6001827abfa,001,2022-04-29_10h12.44.882,classification_task,2021.2.3,Win32,60.0060006,5cba9407cf04f6001827abfa,626b377229c10585ec392f8a,626b3b5aff0b7ef5dc450f7f,,,,,,,,,,,,,,,,,,,,,,,a,0,9.2614,"[""0.742"",""0.371"",""0.507"",""0.701""]","[0,1,1,1]",0,41,41,41,1,1,1,,,1,FALSE,,,,,,,,,,,,,,,,,,,,,,,,,,,,,,
,5cba9407cf04f6001827abfa,001,2022-04-29_10h12.44.882,classification_task,2021.2.3,Win32,60.0060006,5cba9407cf04f6001827abfa,626b377229c10585ec392f8a,626b3b5aff0b7ef5dc450f7f,,,,,,,,,,,,,,,,,,,,,,,a,0,2.9046,"[""0.083"",""0.182"",""0.562"",""0.737""]","[1,1,1,0]",0,42,42,42,1,1,0,,,1,FALSE,,,,,,,,,,,,,,,,,,,,,,,,,,,,,,
,5cba9407cf04f6001827abfa,001,2022-04-29_10h12.44.882,classification_task,2021.2.3,Win32,60.0060006,5cba9407cf04f6001827abfa,626b377229c10585ec392f8a,626b3b5aff0b7ef5dc450f7f,,,,,,,,,,,,,,,,,,,,,,,l,0,2.6479,"[""0.309"",""0.253"",""0.601"",""0.877""]","[1,0,1,1]",0,43,43,43,1,0,0,,,1,FALSE,,,,,,,,,,,,,,,,,,,,,,,,,,,,,,
,5cba9407cf04f6001827abfa,001,2022-04-29_10h12.44.882,classification_task,2021.2.3,Win32,60.0060006,5cba9407cf04f6001827abfa,626b377229c10585ec392f8a,626b3b5aff0b7ef5dc450f7f,,,,,,,,,,,,,,,,,,,,,,,a,1,2.4776,"[""0.218"",""0.421"",""0.652"",""0.960""]","[1,1,0,1]",0,44,44,44,1,0,1,,,1,FALSE,,,,,,,,,,,,,,,,,,,,,,,,,,,,,,
,5cba9407cf04f6001827abfa,001,2022-04-29_10h12.44.882,classification_task,2021.2.3,Win32,60.0060006,5cba9407cf04f6001827abfa,626b377229c10585ec392f8a,626b3b5aff0b7ef5dc450f7f,,,,,,,,,,,,,,,,,,,,,,,a,1,2.9286,"[""0.309"",""0.460"",""0.139"",""0.877""]","[1,1,0,1]",0,45,45,45,1,0,0,,,1,FALSE,,,,,,,,,,,,,,,,,,,,,,,,,,,,,,
,5cba9407cf04f6001827abfa,001,2022-04-29_10h12.44.882,classification_task,2021.2.3,Win32,60.0060006,5cba9407cf04f6001827abfa,626b377229c10585ec392f8a,626b3b5aff0b7ef5dc450f7f,,,,,,,,,,,,,,,,,,,,,,,l,1,1.5743,"[""0.045"",""0.139"",""0.507"",""0.701""]","[1,0,1,1]",0,46,46,46,1,1,1,,,1,FALSE,,,,,,,,,,,,,,,,,,,,,,,,,,,,,,
,5cba9407cf04f6001827abfa,001,2022-04-29_10h12.44.882,classification_task,2021.2.3,Win32,60.0060006,5cba9407cf04f6001827abfa,626b377229c10585ec392f8a,626b3b5aff0b7ef5dc450f7f,,,,,,,,,,,,,,,,,,,,,,,a,0,2.0843,"[""0.737"",""0.182"",""0.562"",""0.779""]","[0,1,1,1]",0,47,47,47,1,1,0,,,1,FALSE,,,,,,,,,,,,,,,,,,,,,,,,,,,,,,
,5cba9407cf04f6001827abfa,001,2022-04-29_10h12.44.882,classification_task,2021.2.3,Win32,60.0060006,5cba9407cf04f6001827abfa,626b377229c10585ec392f8a,626b3b5aff0b7ef5dc450f7f,,,,,,,,,,,,,,,,,,,,,,,l,0,1.7103,"[""0.309"",""0.253"",""0.601"",""0.877""]","[1,0,1,1]",0,48,48,48,1,0,0,,,1,FALSE,,,,,,,,,,,,,,,,,,,,,,,,,,,,,,
,5cba9407cf04f6001827abfa,001,2022-04-29_10h12.44.882,classification_task,2021.2.3,Win32,60.0060006,5cba9407cf04f6001827abfa,626b377229c10585ec392f8a,626b3b5aff0b7ef5dc450f7f,,,,,,,,,,,,,,,,,,,,,,,a,1,1.8493,"[""0.309"",""0.460"",""0.601"",""0.636""]","[1,1,1,0]",0,49,49,49,1,0,0,,,1,FALSE,,,,,,,,,,,,,,,,,,,,,,,,,,,,,,
,5cba9407cf04f6001827abfa,001,2022-04-29_10h12.44.882,classification_task,2021.2.3,Win32,60.0060006,5cba9407cf04f6001827abfa,626b377229c10585ec392f8a,626b3b5aff0b7ef5dc450f7f,,,,,,,,,,,,,,,,,,,,,,,l,1,2.0795,"[""0.083"",""0.182"",""0.139"",""0.779""]","[1,1,0,1]",0,50,50,50,1,1,0,,,1,FALSE,,,,,,,,,,,,,,,,,,,,,,,,,,,,,,
,5cba9407cf04f6001827abfa,001,2022-04-29_10h12.44.882,classification_task,2021.2.3,Win32,60.0060006,5cba9407cf04f6001827abfa,626b377229c10585ec392f8a,626b3b5aff0b7ef5dc450f7f,,,,,,,,,,,,,,,,,,,,,,,l,0,4.6905,"[""0.309"",""0.460"",""0.139"",""0.877""]","[1,1,0,1]",0,51,51,51,1,0,0,,,1,FALSE,,,,,,,,,,,,,,,,,,,,,,,,,,,,,,
,5cba9407cf04f6001827abfa,001,2022-04-29_10h12.44.882,classification_task,2021.2.3,Win32,60.0060006,5cba9407cf04f6001827abfa,626b377229c10585ec392f8a,626b3b5aff0b7ef5dc450f7f,,,,,,,,,,,,,,,,,,,,,,,l,1,1.6998,"[""0.045"",""0.371"",""0.507"",""0.656""]","[1,1,1,0]",0,52,52,52,1,1,1,,,1,FALSE,,,,,,,,,,,,,,,,,,,,,,,,,,,,,,
,5cba9407cf04f6001827abfa,001,2022-04-29_10h12.44.882,classification_task,2021.2.3,Win32,60.0060006,5cba9407cf04f6001827abfa,626b377229c10585ec392f8a,626b3b5aff0b7ef5dc450f7f,,,,,,,,,,,,,,,,,,,,,,,a,0,2.1261,"[""0.083"",""0.182"",""0.562"",""0.253""]","[1,1,1,0]",0,53,53,53,1,1,0,,,1,FALSE,,,,,,,,,,,,,,,,,,,,,,,,,,,,,,
,5cba9407cf04f6001827abfa,001,2022-04-29_10h12.44.882,classification_task,2021.2.3,Win32,60.0060006,5cba9407cf04f6001827abfa,626b377229c10585ec392f8a,626b3b5aff0b7ef5dc450f7f,,,,,,,,,,,,,,,,,,,,,,,a,0,1.5666,"[""0.652"",""0.371"",""0.507"",""0.701""]","[0,1,1,1]",0,54,54,54,1,1,1,,,1,FALSE,,,,,,,,,,,,,,,,,,,,,,,,,,,,,,
,5cba9407cf04f6001827abfa,001,2022-04-29_10h12.44.882,classification_task,2021.2.3,Win32,60.0060006,5cba9407cf04f6001827abfa,626b377229c10585ec392f8a,626b3b5aff0b7ef5dc450f7f,,,,,,,,,,,,,,,,,,,,,,,l,0,4.278,"[""0.218"",""0.421"",""0.921"",""0.124""]","[1,1,1,0]",0,55,55,55,1,0,1,,,1,FALSE,,,,,,,,,,,,,,,,,,,,,,,,,,,,,,
,5cba9407cf04f6001827abfa,001,2022-04-29_10h12.44.882,classification_task,2021.2.3,Win32,60.0060006,5cba9407cf04f6001827abfa,626b377229c10585ec392f8a,626b3b5aff0b7ef5dc450f7f,,,,,,,,,,,,,,,,,,,,,,,l,1,2.5394,"[""0.045"",""0.371"",""0.838"",""0.701""]","[1,1,0,1]",0,56,56,56,1,1,1,,,1,FALSE,,,,,,,,,,,,,,,,,,,,,,,,,,,,,,
,5cba9407cf04f6001827abfa,001,2022-04-29_10h12.44.882,classification_task,2021.2.3,Win32,60.0060006,5cba9407cf04f6001827abfa,626b377229c10585ec392f8a,626b3b5aff0b7ef5dc450f7f,,,,,,,,,,,,,,,,,,,,,,,a,1,2.4997,"[""0.663"",""0.460"",""0.601"",""0.877""]","[0,1,1,1]",0,57,57,57,1,0,0,,,1,FALSE,,,,,,,,,,,,,,,,,,,,,,,,,,,,,,
,5cba9407cf04f6001827abfa,001,2022-04-29_10h12.44.882,classification_task,2021.2.3,Win32,60.0060006,5cba9407cf04f6001827abfa,626b377229c10585ec392f8a,626b3b5aff0b7ef5dc450f7f,,,,,,,,,,,,,,,,,,,,,,,a,0,2.2577,"[""0.083"",""0.647"",""0.562"",""0.779""]","[1,0,1,1]",0,58,58,58,1,1,0,,,1,FALSE,,,,,,,,,,,,,,,,,,,,,,,,,,,,,,
,5cba9407cf04f6001827abfa,001,2022-04-29_10h12.44.882,classification_task,2021.2.3,Win32,60.0060006,5cba9407cf04f6001827abfa,626b377229c10585ec392f8a,626b3b5aff0b7ef5dc450f7f,,,,,,,,,,,,,,,,,,,,,,,l,1,4.2528,"[""0.742"",""0.182"",""0.562"",""0.779""]","[0,1,1,1]",0,59,59,59,1,1,0,,,1,FALSE,,,,,,,,,,,,,,,,,,,,,,,,,,,,,,
,5cba9407cf04f6001827abfa,001,2022-04-29_10h12.44.882,classification_task,2021.2.3,Win32,60.0060006,5cba9407cf04f6001827abfa,626b377229c10585ec392f8a,626b3b5aff0b7ef5dc450f7f,,,,,,,,,,,,,,,,,,,,,,,l,0,1.5168,"[""0.139"",""0.421"",""0.921"",""0.960""]","[0,1,1,1]",0,60,60,60,1,0,1,,,1,FALSE,,,,,,,,,,,,,,,,,,,,,,,,,,,,,,
,5cba9407cf04f6001827abfa,001,2022-04-29_10h12.44.882,classification_task,2021.2.3,Win32,60.0060006,5cba9407cf04f6001827abfa,626b377229c10585ec392f8a,626b3b5aff0b7ef5dc450f7f,,,,,,,,,,,,,,,,,,,,,,,a,0,1.6055,"[""0.045"",""0.737"",""0.507"",""0.701""]","[1,0,1,1]",0,61,61,61,1,1,1,,,1,FALSE,,,,,,,,,,,,,,,,,,,,,,,,,,,,,,
,5cba9407cf04f6001827abfa,001,2022-04-29_10h12.44.882,classification_task,2021.2.3,Win32,60.0060006,5cba9407cf04f6001827abfa,626b377229c10585ec392f8a,626b3b5aff0b7ef5dc450f7f,,,,,,,,,,,,,,,,,,,,,,,a,1,3.1559,"[""0.218"",""0.421"",""0.833"",""0.960""]","[1,1,0,1]",0,62,62,62,1,0,1,,,1,FALSE,,,,,,,,,,,,,,,,,,,,,,,,,,,,,,
,5cba9407cf04f6001827abfa,001,2022-04-29_10h12.44.882,classification_task,2021.2.3,Win32,60.0060006,5cba9407cf04f6001827abfa,626b377229c10585ec392f8a,626b3b5aff0b7ef5dc450f7f,,,,,,,,,,,,,,,,,,,,,,,l,0,1.5344,"[""0.218"",""0.139"",""0.921"",""0.960""]","[1,0,1,1]",0,63,63,63,1,0,1,,,1,FALSE,,,,,,,,,,,,,,,,,,,,,,,,,,,,,,
,5cba9407cf04f6001827abfa,001,2022-04-29_10h12.44.882,classification_task,2021.2.3,Win32,60.0060006,5cba9407cf04f6001827abfa,626b377229c10585ec392f8a,626b3b5aff0b7ef5dc450f7f,,,,,,,,,,,,,,,,,,,,,,,,,,,,,,,,,,,,,,,0, ,,0,0,244.3037,0,2,2,2,1,2,3,,,,,,,,,,,,,,,,,
,5cba9407cf04f6001827abfa,001,2022-04-29_10h12.44.882,classification_task,2021.2.3,Win32,60.0060006,5cba9407cf04f6001827abfa,626b377229c10585ec392f8a,626b3b5aff0b7ef5dc450f7f,,,,,,,,,,,,,,,,,,,,,,,,,,,,,,,,,,,,,,,1,  ,,0,10,246.6054,0,2,2,2,1,2,3,,,,,,,,,,,,,,,,,
,5cba9407cf04f6001827abfa,001,2022-04-29_10h12.44.882,classification_task,2021.2.3,Win32,60.0060006,5cba9407cf04f6001827abfa,626b377229c10585ec392f8a,626b3b5aff0b7ef5dc450f7f,,,,,,,,,,,,,,,,,,,,,,,,,,,,,,,,,,,,,,,2,  ,,0,10,248.8443,0,2,2,2,1,2,3,,,,,,,,,,,,,,,,,
,5cba9407cf04f6001827abfa,001,2022-04-29_10h12.44.882,classification_task,2021.2.3,Win32,60.0060006,5cba9407cf04f6001827abfa,626b377229c10585ec392f8a,626b3b5aff0b7ef5dc450f7f,,,,,,,,,,,,,,,,,,,,,,,,,,,,,,,,,,,,,,,,,,,,,0,2,2,2,1,,3,,,,,,,,,,,,,,,,,
,5cba9407cf04f6001827abfa,001,2022-04-29_10h12.44.882,classification_task,2021.2.3,Win32,60.0060006,5cba9407cf04f6001827abfa,626b377229c10585ec392f8a,626b3b5aff0b7ef5dc450f7f,,,,,,,,,,,,,,,,,,,,,,,,,,,,,,,,,,,,,,,,,,,,,,,,,,,,,I believe the aid is a competent performer,,0.7,0,5,1091.3962,0,0,0,0,1,0,,,,
,5cba9407cf04f6001827abfa,001,2022-04-29_10h12.44.882,classification_task,2021.2.3,Win32,60.0060006,5cba9407cf04f6001827abfa,626b377229c10585ec392f8a,626b3b5aff0b7ef5dc450f7f,,,,,,,,,,,,,,,,,,,,,,,,,,,,,,,,,,,,,,,,,,,,,,,,,,,,,I trust the aid,,0.7,0,5,1093.2404,0,0,0,0,1,0,,,,
,5cba9407cf04f6001827abfa,001,2022-04-29_10h12.44.882,classification_task,2021.2.3,Win32,60.0060006,5cba9407cf04f6001827abfa,626b377229c10585ec392f8a,626b3b5aff0b7ef5dc450f7f,,,,,,,,,,,,,,,,,,,,,,,,,,,,,,,,,,,,,,,,,,,,,,,,,,,,,I have confidence in the advice given by the aid,,0.7,0,5,1094.7597,0,0,0,0,1,0,,,,
,5cba9407cf04f6001827abfa,001,2022-04-29_10h12.44.882,classification_task,2021.2.3,Win32,60.0060006,5cba9407cf04f6001827abfa,626b377229c10585ec392f8a,626b3b5aff0b7ef5dc450f7f,,,,,,,,,,,,,,,,,,,,,,,,,,,,,,,,,,,,,,,,,,,,,,,,,,,,,I can depend on the aid,,0.7,0,5,1096.5141,0,0,0,0,1,0,,,,
,5cba9407cf04f6001827abfa,001,2022-04-29_10h12.44.882,classification_task,2021.2.3,Win32,60.0060006,5cba9407cf04f6001827abfa,626b377229c10585ec392f8a,626b3b5aff0b7ef5dc450f7f,,,,,,,,,,,,,,,,,,,,,,,,,,,,,,,,,,,,,,,,,,,,,,,,,,,,,I can rely on the aid to behave in consistent ways,,0.7,0,5,1098.2487,0,0,0,0,1,0,,,,
,5cba9407cf04f6001827abfa,001,2022-04-29_10h12.44.882,classification_task,2021.2.3,Win32,60.0060006,5cba9407cf04f6001827abfa,626b377229c10585ec392f8a,626b3b5aff0b7ef5dc450f7f,,,,,,,,,,,,,,,,,,,,,,,,,,,,,,,,,,,,,,,,,,,,,,,,,,,,,I can rely on the aid to do its best every time I take its advice,,0.7,0,5,1099.9199,0,0,0,0,1,0,,,,
,5cba9407cf04f6001827abfa,001,2022-04-29_10h12.44.882,classification_task,2021.2.3,Win32,60.0060006,5cba9407cf04f6001827abfa,626b377229c10585ec392f8a,626b3b5aff0b7ef5dc450f7f,,,,,,,,,,,,,,,,,,,,,,,,,,,,,,,,,,,,,,,,,,,,,,,,,,,,,"On trials you completed with assistance from the aid, how frequently did you think the aid was correct?",,0.7,0,100%,,0,0,0,0,1,0,,,,
,5cba9407cf04f6001827abfa,001,2022-04-29_10h12.44.882,classification_task,2021.2.3,Win32,60.0060006,5cba9407cf04f6001827abfa,626b377229c10585ec392f8a,626b3b5aff0b7ef5dc450f7f,,,,,,,,,,,,,,,,,,,,,,,,,,,,,,,,,,,,,,,,,,,,,,,,,,,,,"On trials you completed without the aid, how frequently did you think you were correct?",,0.7,0,30%,,0,0,0,0,1,0,,,,
,5cba9407cf04f6001827abfa,001,2022-04-29_10h12.44.882,classification_task,2021.2.3,Win32,60.0060006,5cba9407cf04f6001827abfa,626b377229c10585ec392f8a,626b3b5aff0b7ef5dc450f7f,,,,,,,,,,,,,,,,,,,,,,,,,,,,,,,,,,,,,,,,,,,,,,,,,,,,,,,,,,,0,0,0,0,1,,,,,
,5cba9407cf04f6001827abfa,001,2022-04-29_10h12.44.882,classification_task,2021.2.3,Win32,60.0060006,5cba9407cf04f6001827abfa,626b377229c10585ec392f8a,626b3b5aff0b7ef5dc450f7f,,,,,,,,,,,,,,,,,,,,,,,,,,,,,,,,,,,,,,,,,,,,,,,,,,,,,,,,,,,,,,,,,space,7.1096,1134.3247,
,5cba9407cf04f6001827abfa,001,2022-04-29_10h12.44.882,classification_task,2021.2.3,Win32,60.0060006,5cba9407cf04f6001827abfa,626b377229c10585ec392f8a,626b3b5aff0b7ef5dc450f7f,,,,,,,,,,,,,,,,,,,,,,,,,,,,,,,,,,,,,,,,,,,,,,,,,,,,,,,,,,,,,,,,,,,,"Mozilla/5.0 (Windows NT 10.0; Win64; x64) AppleWebKit/537.36 (KHTML, like Gecko) Chrome/100.0.4896.127 Safari/537.36"
