usingWebGL,participant,session,date,expName,psychopyVersion,OS,frameRate,study_id,signatures_friend,signatures_foe,band_ranges_top,band_ranges_bottom,formitemText,formtype,formundefined,formitemWidth,formindex,formresponse,formrt,key_resp_2.keys,key_resp_2.rt,tute_resp.keys,tute_resp.rt,tutorial.thisRepN,tutorial.thisTrialN,tutorial.thisN,tutorial.thisIndex,tutorial.ran,key_resp_4.keys,key_resp_4.rt,key_resp.keys,key_resp.corr,key_resp.rt,lines_presented,is_signal_presented,trials.thisRepN,trials.thisTrialN,trials.thisN,trials.thisIndex,trials.ran,vessel,active_band,lines,is_signal,supported_pos,catch_trial,debrief_formindex,debrief_formitemText,debrief_formtype,debrief_formitemWidth,debrief_formresponse,debrief_formrt,phases.thisRepN,phases.thisTrialN,phases.thisN,phases.thisIndex,phases.ran,phases.order,phase,key_resp_3.keys,trustitemText,trusttype,trustitemWidth,trustindex,trustresponse,trustrt,support_status.thisRepN,support_status.thisTrialN,support_status.thisN,support_status.thisIndex,support_status.ran,support_status.order,key_resp_5.keys,key_resp_5.rt,globalClockTime,userAgent,manualCondition
TRUE,5cd6bc4604748d000119f0a7,627c6f701bf092acd0d5d6cc,2022-05-12_05h22.54.119,classification_task,2021.2.3,Win32,60.54734803,627c6715c52fd12f31907bd0,,,,,,,,,,,,,,,,,,,,,,,,,,,,,,,,,,,,,,,,,,,,,,,,,,,,,,,,,,,,,,,,,,,,,
,5cd6bc4604748d000119f0a7,627c6f701bf092acd0d5d6cc,2022-05-12_05h22.54.119,classification_task,2021.2.3,Win32,60.54734803,627c6715c52fd12f31907bd0,"[[""0.186"",""0.549"",""0.810"",""0.932""],[""0.233"",""0.407"",""0.856"",""0.965""]]","[[""0.025"",""0.129"",""0.596"",""0.746""],[""0.087"",""0.290"",""0.504"",""0.675""]]","[1,10]","[100,1000]",Video game experience,,,0.7,0,,,,,,,,,,,,,,,,,,,,,,,,,,,,,,,,,,,,,,,,,,,,,,,,,,,,,,,,,,,,
,5cd6bc4604748d000119f0a7,627c6f701bf092acd0d5d6cc,2022-05-12_05h22.54.119,classification_task,2021.2.3,Win32,60.54734803,627c6715c52fd12f31907bd0,,,,,Approximately how many hours did you spend playing video games in the last week?,,,0.7,0,4,,,,,,,,,,,,,,,,,,,,,,,,,,,,,,,,,,,,,,,,,,,,,,,,,,,,,,,,,,,
,5cd6bc4604748d000119f0a7,627c6f701bf092acd0d5d6cc,2022-05-12_05h22.54.119,classification_task,2021.2.3,Win32,60.54734803,627c6715c52fd12f31907bd0,,,,,"Which game did you play the most this year? (Enter ""None"" if you didn't play any)",,,0.7,0,Life is strange,,,,,,,,,,,,,,,,,,,,,,,,,,,,,,,,,,,,,,,,,,,,,,,,,,,,,,,,,,,
,5cd6bc4604748d000119f0a7,627c6f701bf092acd0d5d6cc,2022-05-12_05h22.54.119,classification_task,2021.2.3,Win32,60.54734803,627c6715c52fd12f31907bd0,,,,,Visual perception,,,0.7,0,,,,,,,,,,,,,,,,,,,,,,,,,,,,,,,,,,,,,,,,,,,,,,,,,,,,,,,,,,,,
,5cd6bc4604748d000119f0a7,627c6f701bf092acd0d5d6cc,2022-05-12_05h22.54.119,classification_task,2021.2.3,Win32,60.54734803,627c6715c52fd12f31907bd0,,,,,Do you have any form of color blindness?,,,0.7,0,No,38.2571,,,,,,,,,,,,,,,,,,,,,,,,,,,,,,,,,,,,,,,,,,,,,,,,,,,,,,,,,,
,5cd6bc4604748d000119f0a7,627c6f701bf092acd0d5d6cc,2022-05-12_05h22.54.119,classification_task,2021.2.3,Win32,60.54734803,627c6715c52fd12f31907bd0,,,,,Do you use software to change the colour temperature of your screen (e.g. f.lux)?,,,0.7,0,No,41.5911,,,,,,,,,,,,,,,,,,,,,,,,,,,,,,,,,,,,,,,,,,,,,,,,,,,,,,,,,,
,5cd6bc4604748d000119f0a7,627c6f701bf092acd0d5d6cc,2022-05-12_05h22.54.119,classification_task,2021.2.3,Win32,60.54734803,627c6715c52fd12f31907bd0,,,,,,,,,,,,space,31.2436,space,8.9335,0,0,0,0,1,,,,,,,,,,,,,,,,,,,,,,,,,,,,,,,,,,,,,,,,,,,,,,,,,
,5cd6bc4604748d000119f0a7,627c6f701bf092acd0d5d6cc,2022-05-12_05h22.54.119,classification_task,2021.2.3,Win32,60.54734803,627c6715c52fd12f31907bd0,,,,,,,,,,,,,,space,10.4566,1,0,1,0,1,,,,,,,,,,,,,,,,,,,,,,,,,,,,,,,,,,,,,,,,,,,,,,,,,
,5cd6bc4604748d000119f0a7,627c6f701bf092acd0d5d6cc,2022-05-12_05h22.54.119,classification_task,2021.2.3,Win32,60.54734803,627c6715c52fd12f31907bd0,,,,,,,,,,,,,,space,32.456,2,0,2,0,1,,,,,,,,,,,,,,,,,,,,,,,,,,,,,,,,,,,,,,,,,,,,,,,,,
,5cd6bc4604748d000119f0a7,627c6f701bf092acd0d5d6cc,2022-05-12_05h22.54.119,classification_task,2021.2.3,Win32,60.54734803,627c6715c52fd12f31907bd0,,,,,,,,,,,,,,space,8.8013,3,0,3,0,1,,,,,,,,,,,,,,,,,,,,,,,,,,,,,,,,,,,,,,,,,,,,,,,,,
,5cd6bc4604748d000119f0a7,627c6f701bf092acd0d5d6cc,2022-05-12_05h22.54.119,classification_task,2021.2.3,Win32,60.54734803,627c6715c52fd12f31907bd0,,,,,,,,,,,,,,space,9.0872,4,0,4,0,1,,,,,,,,,,,,,,,,,,,,,,,,,,,,,,,,,,,,,,,,,,,,,,,,,
,5cd6bc4604748d000119f0a7,627c6f701bf092acd0d5d6cc,2022-05-12_05h22.54.119,classification_task,2021.2.3,Win32,60.54734803,627c6715c52fd12f31907bd0,,,,,,,,,,,,,,,,,,,,,space,17.6469,l,1,4.5776,"[""0.025"",""0.340"",""0.596"",""0.746""]","[1,0,1,1]",0,0,0,0,1,1,0,,,1,FALSE,,,,,,,,,,,,,,,,,,,,,,,,,,,,,,,
,5cd6bc4604748d000119f0a7,627c6f701bf092acd0d5d6cc,2022-05-12_05h22.54.119,classification_task,2021.2.3,Win32,60.54734803,627c6715c52fd12f31907bd0,,,,,,,,,,,,,,,,,,,,,,,,0,,"[""0.444"",""0.290"",""0.504"",""0.675""]","[0,1,1,1]",0,1,1,1,1,1,1,,,1,FALSE,,,,,,,,,,,,,,,,,,,,,,,,,,,,,,,
,5cd6bc4604748d000119f0a7,627c6f701bf092acd0d5d6cc,2022-05-12_05h22.54.119,classification_task,2021.2.3,Win32,60.54734803,627c6715c52fd12f31907bd0,,,,,,,,,,,,,,,,,,,,,,,a,1,4.4847,"[""0.186"",""0.549"",""0.468"",""0.932""]","[1,1,0,1]",0,2,2,2,1,0,0,,,1,FALSE,,,,,,,,,,,,,,,,,,,,,,,,,,,,,,,
,5cd6bc4604748d000119f0a7,627c6f701bf092acd0d5d6cc,2022-05-12_05h22.54.119,classification_task,2021.2.3,Win32,60.54734803,627c6715c52fd12f31907bd0,,,,,,,,,,,,,,,,,,,,,,,l,1,3.639,"[""0.087"",""0.340"",""0.504"",""0.675""]","[1,0,1,1]",0,3,3,3,1,1,1,,,1,FALSE,,,,,,,,,,,,,,,,,,,,,,,,,,,,,,,
,5cd6bc4604748d000119f0a7,627c6f701bf092acd0d5d6cc,2022-05-12_05h22.54.119,classification_task,2021.2.3,Win32,60.54734803,627c6715c52fd12f31907bd0,,,,,,,,,,,,,,,,,,,,,,,l,1,3.4208,"[""0.025"",""0.129"",""0.348"",""0.746""]","[1,1,0,1]",0,4,4,4,1,1,0,,,1,FALSE,,,,,,,,,,,,,,,,,,,,,,,,,,,,,,,
,5cd6bc4604748d000119f0a7,627c6f701bf092acd0d5d6cc,2022-05-12_05h22.54.119,classification_task,2021.2.3,Win32,60.54734803,627c6715c52fd12f31907bd0,,,,,,,,,,,,,,,,,,,,,,,a,1,4.6706,"[""0.340"",""0.549"",""0.810"",""0.932""]","[0,1,1,1]",0,5,5,5,1,0,0,,,1,FALSE,,,,,,,,,,,,,,,,,,,,,,,,,,,,,,,
,5cd6bc4604748d000119f0a7,627c6f701bf092acd0d5d6cc,2022-05-12_05h22.54.119,classification_task,2021.2.3,Win32,60.54734803,627c6715c52fd12f31907bd0,,,,,,,,,,,,,,,,,,,,,,,l,1,3.9985,"[""0.087"",""0.290"",""0.504"",""0.444""]","[1,1,1,0]",0,6,6,6,1,1,1,,,1,FALSE,,,,,,,,,,,,,,,,,,,,,,,,,,,,,,,
,5cd6bc4604748d000119f0a7,627c6f701bf092acd0d5d6cc,2022-05-12_05h22.54.119,classification_task,2021.2.3,Win32,60.54734803,627c6715c52fd12f31907bd0,,,,,,,,,,,,,,,,,,,,,,,a,1,2.1514,"[""0.233"",""0.407"",""0.468"",""0.965""]","[1,1,0,1]",0,7,7,7,1,0,1,,,1,FALSE,,,,,,,,,,,,,,,,,,,,,,,,,,,,,,,
,5cd6bc4604748d000119f0a7,627c6f701bf092acd0d5d6cc,2022-05-12_05h22.54.119,classification_task,2021.2.3,Win32,60.54734803,627c6715c52fd12f31907bd0,,,,,,,,,,,,,,,,,,,,,,,a,1,2.3228,"[""0.345"",""0.407"",""0.856"",""0.965""]","[0,1,1,1]",0,8,8,8,1,0,1,,,1,FALSE,,,,,,,,,,,,,,,,,,,,,,,,,,,,,,,
,5cd6bc4604748d000119f0a7,627c6f701bf092acd0d5d6cc,2022-05-12_05h22.54.119,classification_task,2021.2.3,Win32,60.54734803,627c6715c52fd12f31907bd0,,,,,,,,,,,,,,,,,,,,,,,l,1,2.5302,"[""0.025"",""0.129"",""0.596"",""0.345""]","[1,1,1,0]",0,9,9,9,1,1,0,,,1,FALSE,,,,,,,,,,,,,,,,,,,,,,,,,,,,,,,
,5cd6bc4604748d000119f0a7,627c6f701bf092acd0d5d6cc,2022-05-12_05h22.54.119,classification_task,2021.2.3,Win32,60.54734803,627c6715c52fd12f31907bd0,,,,,,,,,,,,,,,,,,,,,,,a,1,1.7578,"[""0.233"",""0.444"",""0.856"",""0.965""]","[1,0,1,1]",0,10,10,10,1,0,1,,,1,FALSE,,,,,,,,,,,,,,,,,,,,,,,,,,,,,,,
,5cd6bc4604748d000119f0a7,627c6f701bf092acd0d5d6cc,2022-05-12_05h22.54.119,classification_task,2021.2.3,Win32,60.54734803,627c6715c52fd12f31907bd0,,,,,,,,,,,,,,,,,,,,,,,a,1,2.1881,"[""0.186"",""0.468"",""0.810"",""0.932""]","[1,0,1,1]",0,11,11,11,1,0,0,,,1,FALSE,,,,,,,,,,,,,,,,,,,,,,,,,,,,,,,
,5cd6bc4604748d000119f0a7,627c6f701bf092acd0d5d6cc,2022-05-12_05h22.54.119,classification_task,2021.2.3,Win32,60.54734803,627c6715c52fd12f31907bd0,,,,,,,,,,,,,,,,,,,,,,,l,1,2.2525,"[""0.087"",""0.290"",""0.444"",""0.675""]","[1,1,0,1]",0,12,12,12,1,1,1,,,1,FALSE,,,,,,,,,,,,,,,,,,,,,,,,,,,,,,,
,5cd6bc4604748d000119f0a7,627c6f701bf092acd0d5d6cc,2022-05-12_05h22.54.119,classification_task,2021.2.3,Win32,60.54734803,627c6715c52fd12f31907bd0,,,,,,,,,,,,,,,,,,,,,,,a,1,2.0685,"[""0.233"",""0.407"",""0.856"",""0.898""]","[1,1,1,0]",0,13,13,13,1,0,1,,,1,FALSE,,,,,,,,,,,,,,,,,,,,,,,,,,,,,,,
,5cd6bc4604748d000119f0a7,627c6f701bf092acd0d5d6cc,2022-05-12_05h22.54.119,classification_task,2021.2.3,Win32,60.54734803,627c6715c52fd12f31907bd0,,,,,,,,,,,,,,,,,,,,,,,a,0,2.0543,"[""0.468"",""0.129"",""0.596"",""0.746""]","[0,1,1,1]",0,14,14,14,1,1,0,,,1,FALSE,,,,,,,,,,,,,,,,,,,,,,,,,,,,,,,
,5cd6bc4604748d000119f0a7,627c6f701bf092acd0d5d6cc,2022-05-12_05h22.54.119,classification_task,2021.2.3,Win32,60.54734803,627c6715c52fd12f31907bd0,,,,,,,,,,,,,,,,,,,,,,,a,1,2.636,"[""0.186"",""0.549"",""0.810"",""0.468""]","[1,1,1,0]",0,15,15,15,1,0,0,,,1,FALSE,,,,,,,,,,,,,,,,,,,,,,,,,,,,,,,
,5cd6bc4604748d000119f0a7,627c6f701bf092acd0d5d6cc,2022-05-12_05h22.54.119,classification_task,2021.2.3,Win32,60.54734803,627c6715c52fd12f31907bd0,,,,,,,,,,,,,,,,,,,,,,,l,1,2.5619,"[""0.087"",""0.290"",""0.504"",""0.461""]","[1,1,1,0]",0,16,16,16,1,1,1,,,1,FALSE,,,,,,,,,,,,,,,,,,,,,,,,,,,,,,,
,5cd6bc4604748d000119f0a7,627c6f701bf092acd0d5d6cc,2022-05-12_05h22.54.119,classification_task,2021.2.3,Win32,60.54734803,627c6715c52fd12f31907bd0,,,,,,,,,,,,,,,,,,,,,,,a,0,3.0075,"[""0.444"",""0.129"",""0.596"",""0.746""]","[0,1,1,1]",0,17,17,17,1,1,0,,,1,FALSE,,,,,,,,,,,,,,,,,,,,,,,,,,,,,,,
,5cd6bc4604748d000119f0a7,627c6f701bf092acd0d5d6cc,2022-05-12_05h22.54.119,classification_task,2021.2.3,Win32,60.54734803,627c6715c52fd12f31907bd0,,,,,,,,,,,,,,,,,,,,,,,l,1,3.9527,"[""0.025"",""0.129"",""0.348"",""0.746""]","[1,1,0,1]",0,18,18,18,1,1,0,,,1,FALSE,,,,,,,,,,,,,,,,,,,,,,,,,,,,,,,
,5cd6bc4604748d000119f0a7,627c6f701bf092acd0d5d6cc,2022-05-12_05h22.54.119,classification_task,2021.2.3,Win32,60.54734803,627c6715c52fd12f31907bd0,,,,,,,,,,,,,,,,,,,,,,,a,1,3.0959,"[""0.233"",""0.447"",""0.856"",""0.965""]","[1,0,1,1]",0,19,19,19,1,0,1,,,1,FALSE,,,,,,,,,,,,,,,,,,,,,,,,,,,,,,,
,5cd6bc4604748d000119f0a7,627c6f701bf092acd0d5d6cc,2022-05-12_05h22.54.119,classification_task,2021.2.3,Win32,60.54734803,627c6715c52fd12f31907bd0,,,,,,,,,,,,,,,,,,,,,,,l,0,2.4471,"[""0.186"",""0.468"",""0.810"",""0.932""]","[1,0,1,1]",0,20,20,20,1,0,0,,,1,FALSE,,,,,,,,,,,,,,,,,,,,,,,,,,,,,,,
,5cd6bc4604748d000119f0a7,627c6f701bf092acd0d5d6cc,2022-05-12_05h22.54.119,classification_task,2021.2.3,Win32,60.54734803,627c6715c52fd12f31907bd0,,,,,,,,,,,,,,,,,,,,,,,l,0,4.4099,"[""0.898"",""0.407"",""0.856"",""0.965""]","[0,1,1,1]",0,21,21,21,1,0,1,,,1,FALSE,,,,,,,,,,,,,,,,,,,,,,,,,,,,,,,
,5cd6bc4604748d000119f0a7,627c6f701bf092acd0d5d6cc,2022-05-12_05h22.54.119,classification_task,2021.2.3,Win32,60.54734803,627c6715c52fd12f31907bd0,,,,,,,,,,,,,,,,,,,,,,,l,1,3.6359,"[""0.087"",""0.444"",""0.504"",""0.675""]","[1,0,1,1]",0,22,22,22,1,1,1,,,1,FALSE,,,,,,,,,,,,,,,,,,,,,,,,,,,,,,,
,5cd6bc4604748d000119f0a7,627c6f701bf092acd0d5d6cc,2022-05-12_05h22.54.119,classification_task,2021.2.3,Win32,60.54734803,627c6715c52fd12f31907bd0,,,,,,,,,,,,,,,,,,,,,,,a,1,2.3596,"[""0.233"",""0.407"",""0.856"",""0.634""]","[1,1,1,0]",0,23,23,23,1,0,1,,,1,FALSE,,,,,,,,,,,,,,,,,,,,,,,,,,,,,,,
,5cd6bc4604748d000119f0a7,627c6f701bf092acd0d5d6cc,2022-05-12_05h22.54.119,classification_task,2021.2.3,Win32,60.54734803,627c6715c52fd12f31907bd0,,,,,,,,,,,,,,,,,,,,,,,a,1,1.6256,"[""0.186"",""0.549"",""0.810"",""0.898""]","[1,1,1,0]",0,24,24,24,1,0,0,,,1,FALSE,,,,,,,,,,,,,,,,,,,,,,,,,,,,,,,
,5cd6bc4604748d000119f0a7,627c6f701bf092acd0d5d6cc,2022-05-12_05h22.54.119,classification_task,2021.2.3,Win32,60.54734803,627c6715c52fd12f31907bd0,,,,,,,,,,,,,,,,,,,,,,,a,1,1.4107,"[""0.186"",""0.549"",""0.468"",""0.932""]","[1,1,0,1]",0,25,25,25,1,0,0,,,1,FALSE,,,,,,,,,,,,,,,,,,,,,,,,,,,,,,,
,5cd6bc4604748d000119f0a7,627c6f701bf092acd0d5d6cc,2022-05-12_05h22.54.119,classification_task,2021.2.3,Win32,60.54734803,627c6715c52fd12f31907bd0,,,,,,,,,,,,,,,,,,,,,,,a,0,2.6783,"[""0.898"",""0.290"",""0.504"",""0.675""]","[0,1,1,1]",0,26,26,26,1,1,1,,,1,FALSE,,,,,,,,,,,,,,,,,,,,,,,,,,,,,,,
,5cd6bc4604748d000119f0a7,627c6f701bf092acd0d5d6cc,2022-05-12_05h22.54.119,classification_task,2021.2.3,Win32,60.54734803,627c6715c52fd12f31907bd0,,,,,,,,,,,,,,,,,,,,,,,l,1,3.1586,"[""0.025"",""0.129"",""0.596"",""0.365""]","[1,1,1,0]",0,27,27,27,1,1,0,,,1,FALSE,,,,,,,,,,,,,,,,,,,,,,,,,,,,,,,
,5cd6bc4604748d000119f0a7,627c6f701bf092acd0d5d6cc,2022-05-12_05h22.54.119,classification_task,2021.2.3,Win32,60.54734803,627c6715c52fd12f31907bd0,,,,,,,,,,,,,,,,,,,,,,,l,0,4.816,"[""0.340"",""0.549"",""0.810"",""0.932""]","[0,1,1,1]",0,28,28,28,1,0,0,,,1,FALSE,,,,,,,,,,,,,,,,,,,,,,,,,,,,,,,
,5cd6bc4604748d000119f0a7,627c6f701bf092acd0d5d6cc,2022-05-12_05h22.54.119,classification_task,2021.2.3,Win32,60.54734803,627c6715c52fd12f31907bd0,,,,,,,,,,,,,,,,,,,,,,,a,0,2.3907,"[""0.025"",""0.444"",""0.596"",""0.746""]","[1,0,1,1]",0,29,29,29,1,1,0,,,1,FALSE,,,,,,,,,,,,,,,,,,,,,,,,,,,,,,,
,5cd6bc4604748d000119f0a7,627c6f701bf092acd0d5d6cc,2022-05-12_05h22.54.119,classification_task,2021.2.3,Win32,60.54734803,627c6715c52fd12f31907bd0,,,,,,,,,,,,,,,,,,,,,,,a,1,2.1766,"[""0.233"",""0.407"",""0.339"",""0.965""]","[1,1,0,1]",0,30,30,30,1,0,1,,,1,FALSE,,,,,,,,,,,,,,,,,,,,,,,,,,,,,,,
,5cd6bc4604748d000119f0a7,627c6f701bf092acd0d5d6cc,2022-05-12_05h22.54.119,classification_task,2021.2.3,Win32,60.54734803,627c6715c52fd12f31907bd0,,,,,,,,,,,,,,,,,,,,,,,l,1,2.1216,"[""0.087"",""0.290"",""0.709"",""0.675""]","[1,1,0,1]",0,31,31,31,1,1,1,,,1,FALSE,,,,,,,,,,,,,,,,,,,,,,,,,,,,,,,
,5cd6bc4604748d000119f0a7,627c6f701bf092acd0d5d6cc,2022-05-12_05h22.54.119,classification_task,2021.2.3,Win32,60.54734803,627c6715c52fd12f31907bd0,,,,,,,,,,,,,,,,,,,,,,,a,0,3.6258,"[""0.025"",""0.129"",""0.348"",""0.746""]","[1,1,0,1]",0,32,32,32,1,1,0,,,1,FALSE,,,,,,,,,,,,,,,,,,,,,,,,,,,,,,,
,5cd6bc4604748d000119f0a7,627c6f701bf092acd0d5d6cc,2022-05-12_05h22.54.119,classification_task,2021.2.3,Win32,60.54734803,627c6715c52fd12f31907bd0,,,,,,,,,,,,,,,,,,,,,,,l,0,2.1993,"[""0.233"",""0.465"",""0.856"",""0.965""]","[1,0,1,1]",0,33,33,33,1,0,1,,,1,FALSE,,,,,,,,,,,,,,,,,,,,,,,,,,,,,,,
,5cd6bc4604748d000119f0a7,627c6f701bf092acd0d5d6cc,2022-05-12_05h22.54.119,classification_task,2021.2.3,Win32,60.54734803,627c6715c52fd12f31907bd0,,,,,,,,,,,,,,,,,,,,,,,a,0,1.5374,"[""0.025"",""0.129"",""0.596"",""0.709""]","[1,1,1,0]",0,34,34,34,1,1,0,,,1,FALSE,,,,,,,,,,,,,,,,,,,,,,,,,,,,,,,
,5cd6bc4604748d000119f0a7,627c6f701bf092acd0d5d6cc,2022-05-12_05h22.54.119,classification_task,2021.2.3,Win32,60.54734803,627c6715c52fd12f31907bd0,,,,,,,,,,,,,,,,,,,,,,,a,1,1.2652,"[""0.186"",""0.549"",""0.810"",""0.365""]","[1,1,1,0]",0,35,35,35,1,0,0,,,1,FALSE,,,,,,,,,,,,,,,,,,,,,,,,,,,,,,,
,5cd6bc4604748d000119f0a7,627c6f701bf092acd0d5d6cc,2022-05-12_05h22.54.119,classification_task,2021.2.3,Win32,60.54734803,627c6715c52fd12f31907bd0,,,,,,,,,,,,,,,,,,,,,,,l,0,2.2934,"[""0.468"",""0.549"",""0.810"",""0.932""]","[0,1,1,1]",0,36,36,36,1,0,0,,,1,FALSE,,,,,,,,,,,,,,,,,,,,,,,,,,,,,,,
,5cd6bc4604748d000119f0a7,627c6f701bf092acd0d5d6cc,2022-05-12_05h22.54.119,classification_task,2021.2.3,Win32,60.54734803,627c6715c52fd12f31907bd0,,,,,,,,,,,,,,,,,,,,,,,l,1,0.9928,"[""0.025"",""0.339"",""0.596"",""0.746""]","[1,0,1,1]",0,37,37,37,1,1,0,,,1,FALSE,,,,,,,,,,,,,,,,,,,,,,,,,,,,,,,
,5cd6bc4604748d000119f0a7,627c6f701bf092acd0d5d6cc,2022-05-12_05h22.54.119,classification_task,2021.2.3,Win32,60.54734803,627c6715c52fd12f31907bd0,,,,,,,,,,,,,,,,,,,,,,,l,1,1.6149,"[""0.087"",""0.290"",""0.343"",""0.675""]","[1,1,0,1]",0,38,38,38,1,1,1,,,1,FALSE,,,,,,,,,,,,,,,,,,,,,,,,,,,,,,,
,5cd6bc4604748d000119f0a7,627c6f701bf092acd0d5d6cc,2022-05-12_05h22.54.119,classification_task,2021.2.3,Win32,60.54734803,627c6715c52fd12f31907bd0,,,,,,,,,,,,,,,,,,,,,,,a,1,1.2329,"[""0.898"",""0.407"",""0.856"",""0.965""]","[0,1,1,1]",0,39,39,39,1,0,1,,,1,FALSE,,,,,,,,,,,,,,,,,,,,,,,,,,,,,,,
,5cd6bc4604748d000119f0a7,627c6f701bf092acd0d5d6cc,2022-05-12_05h22.54.119,classification_task,2021.2.3,Win32,60.54734803,627c6715c52fd12f31907bd0,,,,,,,,,,,,,,,,,,,,,,,a,0,1.9375,"[""0.468"",""0.129"",""0.596"",""0.746""]","[0,1,1,1]",0,40,40,40,1,1,0,,,1,FALSE,,,,,,,,,,,,,,,,,,,,,,,,,,,,,,,
,5cd6bc4604748d000119f0a7,627c6f701bf092acd0d5d6cc,2022-05-12_05h22.54.119,classification_task,2021.2.3,Win32,60.54734803,627c6715c52fd12f31907bd0,,,,,,,,,,,,,,,,,,,,,,,a,0,1.3772,"[""0.087"",""0.290"",""0.504"",""0.898""]","[1,1,1,0]",0,41,41,41,1,1,1,,,1,FALSE,,,,,,,,,,,,,,,,,,,,,,,,,,,,,,,
,5cd6bc4604748d000119f0a7,627c6f701bf092acd0d5d6cc,2022-05-12_05h22.54.119,classification_task,2021.2.3,Win32,60.54734803,627c6715c52fd12f31907bd0,,,,,,,,,,,,,,,,,,,,,,,l,0,1.8027,"[""0.186"",""0.549"",""0.340"",""0.932""]","[1,1,0,1]",0,42,42,42,1,0,0,,,1,FALSE,,,,,,,,,,,,,,,,,,,,,,,,,,,,,,,
,5cd6bc4604748d000119f0a7,627c6f701bf092acd0d5d6cc,2022-05-12_05h22.54.119,classification_task,2021.2.3,Win32,60.54734803,627c6715c52fd12f31907bd0,,,,,,,,,,,,,,,,,,,,,,,a,1,1.5157,"[""0.233"",""0.407"",""0.468"",""0.965""]","[1,1,0,1]",0,43,43,43,1,0,1,,,1,FALSE,,,,,,,,,,,,,,,,,,,,,,,,,,,,,,,
,5cd6bc4604748d000119f0a7,627c6f701bf092acd0d5d6cc,2022-05-12_05h22.54.119,classification_task,2021.2.3,Win32,60.54734803,627c6715c52fd12f31907bd0,,,,,,,,,,,,,,,,,,,,,,,l,1,1.6492,"[""0.363"",""0.290"",""0.504"",""0.675""]","[0,1,1,1]",0,44,44,44,1,1,1,,,1,FALSE,,,,,,,,,,,,,,,,,,,,,,,,,,,,,,,
,5cd6bc4604748d000119f0a7,627c6f701bf092acd0d5d6cc,2022-05-12_05h22.54.119,classification_task,2021.2.3,Win32,60.54734803,627c6715c52fd12f31907bd0,,,,,,,,,,,,,,,,,,,,,,,a,1,1.4711,"[""0.186"",""0.447"",""0.810"",""0.932""]","[1,0,1,1]",0,45,45,45,1,0,0,,,1,FALSE,,,,,,,,,,,,,,,,,,,,,,,,,,,,,,,
,5cd6bc4604748d000119f0a7,627c6f701bf092acd0d5d6cc,2022-05-12_05h22.54.119,classification_task,2021.2.3,Win32,60.54734803,627c6715c52fd12f31907bd0,,,,,,,,,,,,,,,,,,,,,,,l,0,1.4777,"[""0.233"",""0.407"",""0.856"",""0.339""]","[1,1,1,0]",0,46,46,46,1,0,1,,,1,FALSE,,,,,,,,,,,,,,,,,,,,,,,,,,,,,,,
,5cd6bc4604748d000119f0a7,627c6f701bf092acd0d5d6cc,2022-05-12_05h22.54.119,classification_task,2021.2.3,Win32,60.54734803,627c6715c52fd12f31907bd0,,,,,,,,,,,,,,,,,,,,,,,a,0,1.5137,"[""0.087"",""0.898"",""0.504"",""0.675""]","[1,0,1,1]",0,47,47,47,1,1,1,,,1,FALSE,,,,,,,,,,,,,,,,,,,,,,,,,,,,,,,
,5cd6bc4604748d000119f0a7,627c6f701bf092acd0d5d6cc,2022-05-12_05h22.54.119,classification_task,2021.2.3,Win32,60.54734803,627c6715c52fd12f31907bd0,,,,,,,,,,,,,,,,,,,,,,,l,0,2.0911,"[""0.233"",""0.407"",""0.363"",""0.965""]","[1,1,0,1]",0,48,48,48,1,0,1,,,1,FALSE,,,,,,,,,,,,,,,,,,,,,,,,,,,,,,,
,5cd6bc4604748d000119f0a7,627c6f701bf092acd0d5d6cc,2022-05-12_05h22.54.119,classification_task,2021.2.3,Win32,60.54734803,627c6715c52fd12f31907bd0,,,,,,,,,,,,,,,,,,,,,,,a,0,1.481,"[""0.025"",""0.343"",""0.596"",""0.746""]","[1,0,1,1]",0,49,49,49,1,1,0,,,1,FALSE,,,,,,,,,,,,,,,,,,,,,,,,,,,,,,,
,5cd6bc4604748d000119f0a7,627c6f701bf092acd0d5d6cc,2022-05-12_05h22.54.119,classification_task,2021.2.3,Win32,60.54734803,627c6715c52fd12f31907bd0,,,,,,,,,,,,,,,,,,,,,,,l,1,1.8057,"[""0.634"",""0.129"",""0.596"",""0.746""]","[0,1,1,1]",0,50,50,50,1,1,0,,,1,FALSE,,,,,,,,,,,,,,,,,,,,,,,,,,,,,,,
,5cd6bc4604748d000119f0a7,627c6f701bf092acd0d5d6cc,2022-05-12_05h22.54.119,classification_task,2021.2.3,Win32,60.54734803,627c6715c52fd12f31907bd0,,,,,,,,,,,,,,,,,,,,,,,a,0,1.3495,"[""0.343"",""0.290"",""0.504"",""0.675""]","[0,1,1,1]",0,51,51,51,1,1,1,,,1,FALSE,,,,,,,,,,,,,,,,,,,,,,,,,,,,,,,
,5cd6bc4604748d000119f0a7,627c6f701bf092acd0d5d6cc,2022-05-12_05h22.54.119,classification_task,2021.2.3,Win32,60.54734803,627c6715c52fd12f31907bd0,,,,,,,,,,,,,,,,,,,,,,,a,1,0.9782,"[""0.233"",""0.407"",""0.856"",""0.447""]","[1,1,1,0]",0,52,52,52,1,0,1,,,1,FALSE,,,,,,,,,,,,,,,,,,,,,,,,,,,,,,,
,5cd6bc4604748d000119f0a7,627c6f701bf092acd0d5d6cc,2022-05-12_05h22.54.119,classification_task,2021.2.3,Win32,60.54734803,627c6715c52fd12f31907bd0,,,,,,,,,,,,,,,,,,,,,,,a,0,0.9345,"[""0.087"",""0.290"",""0.504"",""0.363""]","[1,1,1,0]",0,53,53,53,1,1,1,,,1,FALSE,,,,,,,,,,,,,,,,,,,,,,,,,,,,,,,
,5cd6bc4604748d000119f0a7,627c6f701bf092acd0d5d6cc,2022-05-12_05h22.54.119,classification_task,2021.2.3,Win32,60.54734803,627c6715c52fd12f31907bd0,,,,,,,,,,,,,,,,,,,,,,,l,1,2.784,"[""0.025"",""0.129"",""0.343"",""0.746""]","[1,1,0,1]",0,54,54,54,1,1,0,,,1,FALSE,,,,,,,,,,,,,,,,,,,,,,,,,,,,,,,
,5cd6bc4604748d000119f0a7,627c6f701bf092acd0d5d6cc,2022-05-12_05h22.54.119,classification_task,2021.2.3,Win32,60.54734803,627c6715c52fd12f31907bd0,,,,,,,,,,,,,,,,,,,,,,,l,0,0.8112,"[""0.340"",""0.407"",""0.856"",""0.965""]","[0,1,1,1]",0,55,55,55,1,0,1,,,1,FALSE,,,,,,,,,,,,,,,,,,,,,,,,,,,,,,,
,5cd6bc4604748d000119f0a7,627c6f701bf092acd0d5d6cc,2022-05-12_05h22.54.119,classification_task,2021.2.3,Win32,60.54734803,627c6715c52fd12f31907bd0,,,,,,,,,,,,,,,,,,,,,,,a,1,1.5451,"[""0.340"",""0.549"",""0.810"",""0.932""]","[0,1,1,1]",0,56,56,56,1,0,0,,,1,FALSE,,,,,,,,,,,,,,,,,,,,,,,,,,,,,,,
,5cd6bc4604748d000119f0a7,627c6f701bf092acd0d5d6cc,2022-05-12_05h22.54.119,classification_task,2021.2.3,Win32,60.54734803,627c6715c52fd12f31907bd0,,,,,,,,,,,,,,,,,,,,,,,a,0,1.6002,"[""0.025"",""0.129"",""0.596"",""0.365""]","[1,1,1,0]",0,57,57,57,1,1,0,,,1,FALSE,,,,,,,,,,,,,,,,,,,,,,,,,,,,,,,
,5cd6bc4604748d000119f0a7,627c6f701bf092acd0d5d6cc,2022-05-12_05h22.54.119,classification_task,2021.2.3,Win32,60.54734803,627c6715c52fd12f31907bd0,,,,,,,,,,,,,,,,,,,,,,,l,0,3.0019,"[""0.186"",""0.549"",""0.709"",""0.932""]","[1,1,0,1]",0,58,58,58,1,0,0,,,1,FALSE,,,,,,,,,,,,,,,,,,,,,,,,,,,,,,,
,5cd6bc4604748d000119f0a7,627c6f701bf092acd0d5d6cc,2022-05-12_05h22.54.119,classification_task,2021.2.3,Win32,60.54734803,627c6715c52fd12f31907bd0,,,,,,,,,,,,,,,,,,,,,,,l,0,0.8166,"[""0.186"",""0.549"",""0.810"",""0.365""]","[1,1,1,0]",0,59,59,59,1,0,0,,,1,FALSE,,,,,,,,,,,,,,,,,,,,,,,,,,,,,,,
,5cd6bc4604748d000119f0a7,627c6f701bf092acd0d5d6cc,2022-05-12_05h22.54.119,classification_task,2021.2.3,Win32,60.54734803,627c6715c52fd12f31907bd0,,,,,,,,,,,,,,,,,,,,,,,a,1,1.8152,"[""0.233"",""0.340"",""0.856"",""0.965""]","[1,0,1,1]",0,60,60,60,1,0,1,,,1,FALSE,,,,,,,,,,,,,,,,,,,,,,,,,,,,,,,
,5cd6bc4604748d000119f0a7,627c6f701bf092acd0d5d6cc,2022-05-12_05h22.54.119,classification_task,2021.2.3,Win32,60.54734803,627c6715c52fd12f31907bd0,,,,,,,,,,,,,,,,,,,,,,,a,1,2.0092,"[""0.186"",""0.634"",""0.810"",""0.932""]","[1,0,1,1]",0,61,61,61,1,0,0,,,1,FALSE,,,,,,,,,,,,,,,,,,,,,,,,,,,,,,,
,5cd6bc4604748d000119f0a7,627c6f701bf092acd0d5d6cc,2022-05-12_05h22.54.119,classification_task,2021.2.3,Win32,60.54734803,627c6715c52fd12f31907bd0,,,,,,,,,,,,,,,,,,,,,,,a,0,1.4261,"[""0.087"",""0.290"",""0.345"",""0.675""]","[1,1,0,1]",0,62,62,62,1,1,1,,,1,FALSE,,,,,,,,,,,,,,,,,,,,,,,,,,,,,,,
,5cd6bc4604748d000119f0a7,627c6f701bf092acd0d5d6cc,2022-05-12_05h22.54.119,classification_task,2021.2.3,Win32,60.54734803,627c6715c52fd12f31907bd0,,,,,,,,,,,,,,,,,,,,,,,a,0,1.5028,"[""0.087"",""0.363"",""0.504"",""0.675""]","[1,0,1,1]",0,63,63,63,1,1,1,,,1,FALSE,,,,,,,,,,,,,,,,,,,,,,,,,,,,,,,
,5cd6bc4604748d000119f0a7,627c6f701bf092acd0d5d6cc,2022-05-12_05h22.54.119,classification_task,2021.2.3,Win32,60.54734803,627c6715c52fd12f31907bd0,,,,,,,,,,,,,,,,,,,,,,,,,,,,,,,,,,,,,,,0, ,,0,6.402360982,407.0917,0,0,0,0,1,2,1,,,,,,,,,,,,,,,,,,
,5cd6bc4604748d000119f0a7,627c6f701bf092acd0d5d6cc,2022-05-12_05h22.54.119,classification_task,2021.2.3,Win32,60.54734803,627c6715c52fd12f31907bd0,,,,,,,,,,,,,,,,,,,,,,,,,,,,,,,,,,,,,,,1,  ,,0,9.733736179,417.1745,0,0,0,0,1,2,1,,,,,,,,,,,,,,,,,,
,5cd6bc4604748d000119f0a7,627c6f701bf092acd0d5d6cc,2022-05-12_05h22.54.119,classification_task,2021.2.3,Win32,60.54734803,627c6715c52fd12f31907bd0,,,,,,,,,,,,,,,,,,,,,,,,,,,,,,,,,,,,,,,2,  ,,0,6.573829868,415.3932,0,0,0,0,1,2,1,,,,,,,,,,,,,,,,,,
,5cd6bc4604748d000119f0a7,627c6f701bf092acd0d5d6cc,2022-05-12_05h22.54.119,classification_task,2021.2.3,Win32,60.54734803,627c6715c52fd12f31907bd0,,,,,,,,,,,,,,,,,,,,,,,,,,,,,,,,,,,,,,,,,,,,,0,0,0,0,1,,1,,,,,,,,,,,,,,,,,,
,5cd6bc4604748d000119f0a7,627c6f701bf092acd0d5d6cc,2022-05-12_05h22.54.119,classification_task,2021.2.3,Win32,60.54734803,627c6715c52fd12f31907bd0,,,,,,,,,,,,,,,,,,,,,space,13.6545,a,1,3.3974,"[""0.186"",""0.549"",""0.461"",""0.932""]","[1,1,0,1]",0,0,0,0,1,0,0,,,1,FALSE,,,,,,,,,,,,,,,,,,,,,,,,,,,,,,,
,5cd6bc4604748d000119f0a7,627c6f701bf092acd0d5d6cc,2022-05-12_05h22.54.119,classification_task,2021.2.3,Win32,60.54734803,627c6715c52fd12f31907bd0,,,,,,,,,,,,,,,,,,,,,,,l,1,3.6741,"[""0.461"",""0.290"",""0.504"",""0.675""]","[0,1,1,1]",0,1,1,1,1,1,1,,,1,FALSE,,,,,,,,,,,,,,,,,,,,,,,,,,,,,,,
,5cd6bc4604748d000119f0a7,627c6f701bf092acd0d5d6cc,2022-05-12_05h22.54.119,classification_task,2021.2.3,Win32,60.54734803,627c6715c52fd12f31907bd0,,,,,,,,,,,,,,,,,,,,,,,l,0,2.7652,"[""0.898"",""0.549"",""0.810"",""0.932""]","[0,1,1,1]",0,2,2,2,1,0,0,,,1,FALSE,,,,,,,,,,,,,,,,,,,,,,,,,,,,,,,
,5cd6bc4604748d000119f0a7,627c6f701bf092acd0d5d6cc,2022-05-12_05h22.54.119,classification_task,2021.2.3,Win32,60.54734803,627c6715c52fd12f31907bd0,,,,,,,,,,,,,,,,,,,,,,,a,1,1.0398,"[""0.233"",""0.407"",""0.856"",""0.461""]","[1,1,1,0]",0,3,3,3,1,0,1,,,1,FALSE,,,,,,,,,,,,,,,,,,,,,,,,,,,,,,,
,5cd6bc4604748d000119f0a7,627c6f701bf092acd0d5d6cc,2022-05-12_05h22.54.119,classification_task,2021.2.3,Win32,60.54734803,627c6715c52fd12f31907bd0,,,,,,,,,,,,,,,,,,,,,,,l,1,0.6976,"[""0.087"",""0.345"",""0.504"",""0.675""]","[1,0,1,1]",0,4,4,4,1,1,1,,,1,FALSE,,,,,,,,,,,,,,,,,,,,,,,,,,,,,,,
,5cd6bc4604748d000119f0a7,627c6f701bf092acd0d5d6cc,2022-05-12_05h22.54.119,classification_task,2021.2.3,Win32,60.54734803,627c6715c52fd12f31907bd0,,,,,,,,,,,,,,,,,,,,,,,l,1,0.7949,"[""0.087"",""0.290"",""0.468"",""0.675""]","[1,1,0,1]",0,5,5,5,1,1,1,,,1,FALSE,,,,,,,,,,,,,,,,,,,,,,,,,,,,,,,
,5cd6bc4604748d000119f0a7,627c6f701bf092acd0d5d6cc,2022-05-12_05h22.54.119,classification_task,2021.2.3,Win32,60.54734803,627c6715c52fd12f31907bd0,,,,,,,,,,,,,,,,,,,,,,,a,1,0.531,"[""0.233"",""0.407"",""0.468"",""0.965""]","[1,1,0,1]",0,6,6,6,1,0,1,,,1,FALSE,,,,,,,,,,,,,,,,,,,,,,,,,,,,,,,
,5cd6bc4604748d000119f0a7,627c6f701bf092acd0d5d6cc,2022-05-12_05h22.54.119,classification_task,2021.2.3,Win32,60.54734803,627c6715c52fd12f31907bd0,,,,,,,,,,,,,,,,,,,,,,,a,1,0.6996,"[""0.233"",""0.348"",""0.856"",""0.965""]","[1,0,1,1]",0,7,7,7,1,0,1,,,1,FALSE,,,,,,,,,,,,,,,,,,,,,,,,,,,,,,,
,5cd6bc4604748d000119f0a7,627c6f701bf092acd0d5d6cc,2022-05-12_05h22.54.119,classification_task,2021.2.3,Win32,60.54734803,627c6715c52fd12f31907bd0,,,,,,,,,,,,,,,,,,,,,,,a,1,1.6069,"[""0.186"",""0.549"",""0.810"",""0.634""]","[1,1,1,0]",0,8,8,8,1,0,0,,,1,FALSE,,,,,,,,,,,,,,,,,,,,,,,,,,,,,,,
,5cd6bc4604748d000119f0a7,627c6f701bf092acd0d5d6cc,2022-05-12_05h22.54.119,classification_task,2021.2.3,Win32,60.54734803,627c6715c52fd12f31907bd0,,,,,,,,,,,,,,,,,,,,,,,l,1,1.3487,"[""0.087"",""0.290"",""0.504"",""0.634""]","[1,1,1,0]",0,9,9,9,1,1,1,,,1,FALSE,,,,,,,,,,,,,,,,,,,,,,,,,,,,,,,
,5cd6bc4604748d000119f0a7,627c6f701bf092acd0d5d6cc,2022-05-12_05h22.54.119,classification_task,2021.2.3,Win32,60.54734803,627c6715c52fd12f31907bd0,,,,,,,,,,,,,,,,,,,,,,,a,0,1.1268,"[""0.025"",""0.129"",""0.596"",""0.468""]","[1,1,1,0]",0,10,10,10,1,1,0,,,1,FALSE,,,,,,,,,,,,,,,,,,,,,,,,,,,,,,,
,5cd6bc4604748d000119f0a7,627c6f701bf092acd0d5d6cc,2022-05-12_05h22.54.119,classification_task,2021.2.3,Win32,60.54734803,627c6715c52fd12f31907bd0,,,,,,,,,,,,,,,,,,,,,,,l,0,1.2091,"[""0.345"",""0.407"",""0.856"",""0.965""]","[0,1,1,1]",0,11,11,11,1,0,1,,,1,FALSE,,,,,,,,,,,,,,,,,,,,,,,,,,,,,,,
,5cd6bc4604748d000119f0a7,627c6f701bf092acd0d5d6cc,2022-05-12_05h22.54.119,classification_task,2021.2.3,Win32,60.54734803,627c6715c52fd12f31907bd0,,,,,,,,,,,,,,,,,,,,,,,l,1,1.5075,"[""0.025"",""0.129"",""0.468"",""0.746""]","[1,1,0,1]",0,12,12,12,1,1,0,,,1,FALSE,,,,,,,,,,,,,,,,,,,,,,,,,,,,,,,
,5cd6bc4604748d000119f0a7,627c6f701bf092acd0d5d6cc,2022-05-12_05h22.54.119,classification_task,2021.2.3,Win32,60.54734803,627c6715c52fd12f31907bd0,,,,,,,,,,,,,,,,,,,,,,,a,0,1.2592,"[""0.343"",""0.129"",""0.596"",""0.746""]","[0,1,1,1]",0,13,13,13,1,1,0,,,1,FALSE,,,,,,,,,,,,,,,,,,,,,,,,,,,,,,,
,5cd6bc4604748d000119f0a7,627c6f701bf092acd0d5d6cc,2022-05-12_05h22.54.119,classification_task,2021.2.3,Win32,60.54734803,627c6715c52fd12f31907bd0,,,,,,,,,,,,,,,,,,,,,,,a,0,1.0775,"[""0.025"",""0.340"",""0.596"",""0.746""]","[1,0,1,1]",0,14,14,14,1,1,0,,,1,FALSE,,,,,,,,,,,,,,,,,,,,,,,,,,,,,,,
,5cd6bc4604748d000119f0a7,627c6f701bf092acd0d5d6cc,2022-05-12_05h22.54.119,classification_task,2021.2.3,Win32,60.54734803,627c6715c52fd12f31907bd0,,,,,,,,,,,,,,,,,,,,,,,a,1,0.9428,"[""0.186"",""0.340"",""0.810"",""0.932""]","[1,0,1,1]",0,15,15,15,1,0,0,,,1,FALSE,,,,,,,,,,,,,,,,,,,,,,,,,,,,,,,
,5cd6bc4604748d000119f0a7,627c6f701bf092acd0d5d6cc,2022-05-12_05h22.54.119,classification_task,2021.2.3,Win32,60.54734803,627c6715c52fd12f31907bd0,,,,,,,,,,,,,,,,,,,,,,,a,1,0.7499,"[""0.233"",""0.407"",""0.856"",""0.634""]","[1,1,1,0]",0,16,16,16,1,0,1,,,1,FALSE,,,,,,,,,,,,,,,,,,,,,,,,,,,,,,,
,5cd6bc4604748d000119f0a7,627c6f701bf092acd0d5d6cc,2022-05-12_05h22.54.119,classification_task,2021.2.3,Win32,60.54734803,627c6715c52fd12f31907bd0,,,,,,,,,,,,,,,,,,,,,,,a,0,0.7037,"[""0.343"",""0.129"",""0.596"",""0.746""]","[0,1,1,1]",0,17,17,17,1,1,0,,,1,FALSE,,,,,,,,,,,,,,,,,,,,,,,,,,,,,,,
,5cd6bc4604748d000119f0a7,627c6f701bf092acd0d5d6cc,2022-05-12_05h22.54.119,classification_task,2021.2.3,Win32,60.54734803,627c6715c52fd12f31907bd0,,,,,,,,,,,,,,,,,,,,,,,l,1,0.8065,"[""0.087"",""0.468"",""0.504"",""0.675""]","[1,0,1,1]",0,18,18,18,1,1,1,,,1,FALSE,,,,,,,,,,,,,,,,,,,,,,,,,,,,,,,
,5cd6bc4604748d000119f0a7,627c6f701bf092acd0d5d6cc,2022-05-12_05h22.54.119,classification_task,2021.2.3,Win32,60.54734803,627c6715c52fd12f31907bd0,,,,,,,,,,,,,,,,,,,,,,,a,1,1.4007,"[""0.186"",""0.549"",""0.810"",""0.634""]","[1,1,1,0]",0,19,19,19,1,0,0,,,1,FALSE,,,,,,,,,,,,,,,,,,,,,,,,,,,,,,,
,5cd6bc4604748d000119f0a7,627c6f701bf092acd0d5d6cc,2022-05-12_05h22.54.119,classification_task,2021.2.3,Win32,60.54734803,627c6715c52fd12f31907bd0,,,,,,,,,,,,,,,,,,,,,,,l,1,1.6836,"[""0.025"",""0.129"",""0.596"",""0.447""]","[1,1,1,0]",0,20,20,20,1,1,0,,,1,FALSE,,,,,,,,,,,,,,,,,,,,,,,,,,,,,,,
,5cd6bc4604748d000119f0a7,627c6f701bf092acd0d5d6cc,2022-05-12_05h22.54.119,classification_task,2021.2.3,Win32,60.54734803,627c6715c52fd12f31907bd0,,,,,,,,,,,,,,,,,,,,,,,a,0,1.6994,"[""0.025"",""0.129"",""0.709"",""0.746""]","[1,1,0,1]",0,21,21,21,1,1,0,,,1,FALSE,,,,,,,,,,,,,,,,,,,,,,,,,,,,,,,
,5cd6bc4604748d000119f0a7,627c6f701bf092acd0d5d6cc,2022-05-12_05h22.54.119,classification_task,2021.2.3,Win32,60.54734803,627c6715c52fd12f31907bd0,,,,,,,,,,,,,,,,,,,,,,,l,1,0.9516,"[""0.025"",""0.340"",""0.596"",""0.746""]","[1,0,1,1]",0,22,22,22,1,1,0,,,1,FALSE,,,,,,,,,,,,,,,,,,,,,,,,,,,,,,,
,5cd6bc4604748d000119f0a7,627c6f701bf092acd0d5d6cc,2022-05-12_05h22.54.119,classification_task,2021.2.3,Win32,60.54734803,627c6715c52fd12f31907bd0,,,,,,,,,,,,,,,,,,,,,,,a,1,0.9799,"[""0.233"",""0.407"",""0.468"",""0.965""]","[1,1,0,1]",0,23,23,23,1,0,1,,,1,FALSE,,,,,,,,,,,,,,,,,,,,,,,,,,,,,,,
,5cd6bc4604748d000119f0a7,627c6f701bf092acd0d5d6cc,2022-05-12_05h22.54.119,classification_task,2021.2.3,Win32,60.54734803,627c6715c52fd12f31907bd0,,,,,,,,,,,,,,,,,,,,,,,a,1,1.8128,"[""0.468"",""0.407"",""0.856"",""0.965""]","[0,1,1,1]",0,24,24,24,1,0,1,,,1,FALSE,,,,,,,,,,,,,,,,,,,,,,,,,,,,,,,
,5cd6bc4604748d000119f0a7,627c6f701bf092acd0d5d6cc,2022-05-12_05h22.54.119,classification_task,2021.2.3,Win32,60.54734803,627c6715c52fd12f31907bd0,,,,,,,,,,,,,,,,,,,,,,,a,1,1.5127,"[""0.186"",""0.549"",""0.340"",""0.932""]","[1,1,0,1]",0,25,25,25,1,0,0,,,1,FALSE,,,,,,,,,,,,,,,,,,,,,,,,,,,,,,,
,5cd6bc4604748d000119f0a7,627c6f701bf092acd0d5d6cc,2022-05-12_05h22.54.119,classification_task,2021.2.3,Win32,60.54734803,627c6715c52fd12f31907bd0,,,,,,,,,,,,,,,,,,,,,,,l,1,0.904,"[""0.087"",""0.290"",""0.345"",""0.675""]","[1,1,0,1]",0,26,26,26,1,1,1,,,1,FALSE,,,,,,,,,,,,,,,,,,,,,,,,,,,,,,,
,5cd6bc4604748d000119f0a7,627c6f701bf092acd0d5d6cc,2022-05-12_05h22.54.119,classification_task,2021.2.3,Win32,60.54734803,627c6715c52fd12f31907bd0,,,,,,,,,,,,,,,,,,,,,,,l,0,0.8519,"[""0.186"",""0.444"",""0.810"",""0.932""]","[1,0,1,1]",0,27,27,27,1,0,0,,,1,FALSE,,,,,,,,,,,,,,,,,,,,,,,,,,,,,,,
,5cd6bc4604748d000119f0a7,627c6f701bf092acd0d5d6cc,2022-05-12_05h22.54.119,classification_task,2021.2.3,Win32,60.54734803,627c6715c52fd12f31907bd0,,,,,,,,,,,,,,,,,,,,,,,l,1,0.7973,"[""0.461"",""0.290"",""0.504"",""0.675""]","[0,1,1,1]",0,28,28,28,1,1,1,,,1,FALSE,,,,,,,,,,,,,,,,,,,,,,,,,,,,,,,
,5cd6bc4604748d000119f0a7,627c6f701bf092acd0d5d6cc,2022-05-12_05h22.54.119,classification_task,2021.2.3,Win32,60.54734803,627c6715c52fd12f31907bd0,,,,,,,,,,,,,,,,,,,,,,,a,1,0.81,"[""0.233"",""0.461"",""0.856"",""0.965""]","[1,0,1,1]",0,29,29,29,1,0,1,,,1,FALSE,,,,,,,,,,,,,,,,,,,,,,,,,,,,,,,
,5cd6bc4604748d000119f0a7,627c6f701bf092acd0d5d6cc,2022-05-12_05h22.54.119,classification_task,2021.2.3,Win32,60.54734803,627c6715c52fd12f31907bd0,,,,,,,,,,,,,,,,,,,,,,,l,1,1.1144,"[""0.087"",""0.290"",""0.504"",""0.365""]","[1,1,1,0]",0,30,30,30,1,1,1,,,1,FALSE,,,,,,,,,,,,,,,,,,,,,,,,,,,,,,,
,5cd6bc4604748d000119f0a7,627c6f701bf092acd0d5d6cc,2022-05-12_05h22.54.119,classification_task,2021.2.3,Win32,60.54734803,627c6715c52fd12f31907bd0,,,,,,,,,,,,,,,,,,,,,,,l,0,1.2426,"[""0.461"",""0.549"",""0.810"",""0.932""]","[0,1,1,1]",0,31,31,31,1,0,0,,,1,FALSE,,,,,,,,,,,,,,,,,,,,,,,,,,,,,,,
,5cd6bc4604748d000119f0a7,627c6f701bf092acd0d5d6cc,2022-05-12_05h22.54.119,classification_task,2021.2.3,Win32,60.54734803,627c6715c52fd12f31907bd0,,,,,,,,,,,,,,,,,,,,,,,a,0,1.0751,"[""0.025"",""0.129"",""0.345"",""0.746""]","[1,1,0,1]",0,32,32,32,1,1,0,,,1,FALSE,,,,,,,,,,,,,,,,,,,,,,,,,,,,,,,
,5cd6bc4604748d000119f0a7,627c6f701bf092acd0d5d6cc,2022-05-12_05h22.54.119,classification_task,2021.2.3,Win32,60.54734803,627c6715c52fd12f31907bd0,,,,,,,,,,,,,,,,,,,,,,,l,1,0.8467,"[""0.087"",""0.290"",""0.504"",""0.343""]","[1,1,1,0]",0,33,33,33,1,1,1,,,1,FALSE,,,,,,,,,,,,,,,,,,,,,,,,,,,,,,,
,5cd6bc4604748d000119f0a7,627c6f701bf092acd0d5d6cc,2022-05-12_05h22.54.119,classification_task,2021.2.3,Win32,60.54734803,627c6715c52fd12f31907bd0,,,,,,,,,,,,,,,,,,,,,,,l,1,0.4869,"[""0.087"",""0.345"",""0.504"",""0.675""]","[1,0,1,1]",0,34,34,34,1,1,1,,,1,FALSE,,,,,,,,,,,,,,,,,,,,,,,,,,,,,,,
,5cd6bc4604748d000119f0a7,627c6f701bf092acd0d5d6cc,2022-05-12_05h22.54.119,classification_task,2021.2.3,Win32,60.54734803,627c6715c52fd12f31907bd0,,,,,,,,,,,,,,,,,,,,,,,a,0,1.2087,"[""0.025"",""0.129"",""0.596"",""0.468""]","[1,1,1,0]",0,35,35,35,1,1,0,,,1,FALSE,,,,,,,,,,,,,,,,,,,,,,,,,,,,,,,
,5cd6bc4604748d000119f0a7,627c6f701bf092acd0d5d6cc,2022-05-12_05h22.54.119,classification_task,2021.2.3,Win32,60.54734803,627c6715c52fd12f31907bd0,,,,,,,,,,,,,,,,,,,,,,,a,0,1.1359,"[""0.025"",""0.345"",""0.596"",""0.746""]","[1,0,1,1]",0,36,36,36,1,1,0,,,1,FALSE,,,,,,,,,,,,,,,,,,,,,,,,,,,,,,,
,5cd6bc4604748d000119f0a7,627c6f701bf092acd0d5d6cc,2022-05-12_05h22.54.119,classification_task,2021.2.3,Win32,60.54734803,627c6715c52fd12f31907bd0,,,,,,,,,,,,,,,,,,,,,,,l,1,0.683,"[""0.343"",""0.290"",""0.504"",""0.675""]","[0,1,1,1]",0,37,37,37,1,1,1,,,1,FALSE,,,,,,,,,,,,,,,,,,,,,,,,,,,,,,,
,5cd6bc4604748d000119f0a7,627c6f701bf092acd0d5d6cc,2022-05-12_05h22.54.119,classification_task,2021.2.3,Win32,60.54734803,627c6715c52fd12f31907bd0,,,,,,,,,,,,,,,,,,,,,,,l,0,2.675,"[""0.898"",""0.549"",""0.810"",""0.932""]","[0,1,1,1]",0,38,38,38,1,0,0,,,1,FALSE,,,,,,,,,,,,,,,,,,,,,,,,,,,,,,,
,5cd6bc4604748d000119f0a7,627c6f701bf092acd0d5d6cc,2022-05-12_05h22.54.119,classification_task,2021.2.3,Win32,60.54734803,627c6715c52fd12f31907bd0,,,,,,,,,,,,,,,,,,,,,,,a,1,0.8873,"[""0.186"",""0.898"",""0.810"",""0.932""]","[1,0,1,1]",0,39,39,39,1,0,0,,,1,FALSE,,,,,,,,,,,,,,,,,,,,,,,,,,,,,,,
,5cd6bc4604748d000119f0a7,627c6f701bf092acd0d5d6cc,2022-05-12_05h22.54.119,classification_task,2021.2.3,Win32,60.54734803,627c6715c52fd12f31907bd0,,,,,,,,,,,,,,,,,,,,,,,a,1,1.0428,"[""0.233"",""0.407"",""0.343"",""0.965""]","[1,1,0,1]",0,40,40,40,1,0,1,,,1,FALSE,,,,,,,,,,,,,,,,,,,,,,,,,,,,,,,
,5cd6bc4604748d000119f0a7,627c6f701bf092acd0d5d6cc,2022-05-12_05h22.54.119,classification_task,2021.2.3,Win32,60.54734803,627c6715c52fd12f31907bd0,,,,,,,,,,,,,,,,,,,,,,,a,1,0.6946,"[""0.233"",""0.339"",""0.856"",""0.965""]","[1,0,1,1]",0,41,41,41,1,0,1,,,1,FALSE,,,,,,,,,,,,,,,,,,,,,,,,,,,,,,,
,5cd6bc4604748d000119f0a7,627c6f701bf092acd0d5d6cc,2022-05-12_05h22.54.119,classification_task,2021.2.3,Win32,60.54734803,627c6715c52fd12f31907bd0,,,,,,,,,,,,,,,,,,,,,,,a,0,1.1125,"[""0.339"",""0.129"",""0.596"",""0.746""]","[0,1,1,1]",0,42,42,42,1,1,0,,,1,FALSE,,,,,,,,,,,,,,,,,,,,,,,,,,,,,,,
,5cd6bc4604748d000119f0a7,627c6f701bf092acd0d5d6cc,2022-05-12_05h22.54.119,classification_task,2021.2.3,Win32,60.54734803,627c6715c52fd12f31907bd0,,,,,,,,,,,,,,,,,,,,,,,a,1,0.7008,"[""0.233"",""0.407"",""0.856"",""0.634""]","[1,1,1,0]",0,43,43,43,1,0,1,,,1,FALSE,,,,,,,,,,,,,,,,,,,,,,,,,,,,,,,
,5cd6bc4604748d000119f0a7,627c6f701bf092acd0d5d6cc,2022-05-12_05h22.54.119,classification_task,2021.2.3,Win32,60.54734803,627c6715c52fd12f31907bd0,,,,,,,,,,,,,,,,,,,,,,,a,1,0.5744,"[""0.898"",""0.407"",""0.856"",""0.965""]","[0,1,1,1]",0,44,44,44,1,0,1,,,1,FALSE,,,,,,,,,,,,,,,,,,,,,,,,,,,,,,,
,5cd6bc4604748d000119f0a7,627c6f701bf092acd0d5d6cc,2022-05-12_05h22.54.119,classification_task,2021.2.3,Win32,60.54734803,627c6715c52fd12f31907bd0,,,,,,,,,,,,,,,,,,,,,,,a,1,1.5164,"[""0.186"",""0.549"",""0.340"",""0.932""]","[1,1,0,1]",0,45,45,45,1,0,0,,,1,FALSE,,,,,,,,,,,,,,,,,,,,,,,,,,,,,,,
,5cd6bc4604748d000119f0a7,627c6f701bf092acd0d5d6cc,2022-05-12_05h22.54.119,classification_task,2021.2.3,Win32,60.54734803,627c6715c52fd12f31907bd0,,,,,,,,,,,,,,,,,,,,,,,l,0,0.5902,"[""0.186"",""0.549"",""0.810"",""0.348""]","[1,1,1,0]",0,46,46,46,1,0,0,,,1,FALSE,,,,,,,,,,,,,,,,,,,,,,,,,,,,,,,
,5cd6bc4604748d000119f0a7,627c6f701bf092acd0d5d6cc,2022-05-12_05h22.54.119,classification_task,2021.2.3,Win32,60.54734803,627c6715c52fd12f31907bd0,,,,,,,,,,,,,,,,,,,,,,,l,1,0.7404,"[""0.087"",""0.290"",""0.340"",""0.675""]","[1,1,0,1]",0,47,47,47,1,1,1,,,1,FALSE,,,,,,,,,,,,,,,,,,,,,,,,,,,,,,,
,5cd6bc4604748d000119f0a7,627c6f701bf092acd0d5d6cc,2022-05-12_05h22.54.119,classification_task,2021.2.3,Win32,60.54734803,627c6715c52fd12f31907bd0,,,,,,,,,,,,,,,,,,,,,,,a,0,1.2541,"[""0.340"",""0.129"",""0.596"",""0.746""]","[0,1,1,1]",0,48,48,48,1,1,0,,,1,FALSE,,,,,,,,,,,,,,,,,,,,,,,,,,,,,,,
,5cd6bc4604748d000119f0a7,627c6f701bf092acd0d5d6cc,2022-05-12_05h22.54.119,classification_task,2021.2.3,Win32,60.54734803,627c6715c52fd12f31907bd0,,,,,,,,,,,,,,,,,,,,,,,a,0,0.8013,"[""0.025"",""0.129"",""0.596"",""0.898""]","[1,1,1,0]",0,49,49,49,1,1,0,,,1,FALSE,,,,,,,,,,,,,,,,,,,,,,,,,,,,,,,
,5cd6bc4604748d000119f0a7,627c6f701bf092acd0d5d6cc,2022-05-12_05h22.54.119,classification_task,2021.2.3,Win32,60.54734803,627c6715c52fd12f31907bd0,,,,,,,,,,,,,,,,,,,,,,,a,1,0.6778,"[""0.709"",""0.407"",""0.856"",""0.965""]","[0,1,1,1]",0,50,50,50,1,0,1,,,1,FALSE,,,,,,,,,,,,,,,,,,,,,,,,,,,,,,,
,5cd6bc4604748d000119f0a7,627c6f701bf092acd0d5d6cc,2022-05-12_05h22.54.119,classification_task,2021.2.3,Win32,60.54734803,627c6715c52fd12f31907bd0,,,,,,,,,,,,,,,,,,,,,,,l,1,0.6213,"[""0.087"",""0.290"",""0.898"",""0.675""]","[1,1,0,1]",0,51,51,51,1,1,1,,,1,FALSE,,,,,,,,,,,,,,,,,,,,,,,,,,,,,,,
,5cd6bc4604748d000119f0a7,627c6f701bf092acd0d5d6cc,2022-05-12_05h22.54.119,classification_task,2021.2.3,Win32,60.54734803,627c6715c52fd12f31907bd0,,,,,,,,,,,,,,,,,,,,,,,l,0,0.6744,"[""0.186"",""0.461"",""0.810"",""0.932""]","[1,0,1,1]",0,52,52,52,1,0,0,,,1,FALSE,,,,,,,,,,,,,,,,,,,,,,,,,,,,,,,
,5cd6bc4604748d000119f0a7,627c6f701bf092acd0d5d6cc,2022-05-12_05h22.54.119,classification_task,2021.2.3,Win32,60.54734803,627c6715c52fd12f31907bd0,,,,,,,,,,,,,,,,,,,,,,,l,1,0.7178,"[""0.087"",""0.447"",""0.504"",""0.675""]","[1,0,1,1]",0,53,53,53,1,1,1,,,1,FALSE,,,,,,,,,,,,,,,,,,,,,,,,,,,,,,,
,5cd6bc4604748d000119f0a7,627c6f701bf092acd0d5d6cc,2022-05-12_05h22.54.119,classification_task,2021.2.3,Win32,60.54734803,627c6715c52fd12f31907bd0,,,,,,,,,,,,,,,,,,,,,,,a,1,1.1751,"[""0.447"",""0.549"",""0.810"",""0.932""]","[0,1,1,1]",0,54,54,54,1,0,0,,,1,FALSE,,,,,,,,,,,,,,,,,,,,,,,,,,,,,,,
,5cd6bc4604748d000119f0a7,627c6f701bf092acd0d5d6cc,2022-05-12_05h22.54.119,classification_task,2021.2.3,Win32,60.54734803,627c6715c52fd12f31907bd0,,,,,,,,,,,,,,,,,,,,,,,a,0,0.9372,"[""0.025"",""0.447"",""0.596"",""0.746""]","[1,0,1,1]",0,55,55,55,1,1,0,,,1,FALSE,,,,,,,,,,,,,,,,,,,,,,,,,,,,,,,
,5cd6bc4604748d000119f0a7,627c6f701bf092acd0d5d6cc,2022-05-12_05h22.54.119,classification_task,2021.2.3,Win32,60.54734803,627c6715c52fd12f31907bd0,,,,,,,,,,,,,,,,,,,,,,,a,1,0.809,"[""0.233"",""0.407"",""0.461"",""0.965""]","[1,1,0,1]",0,56,56,56,1,0,1,,,1,FALSE,,,,,,,,,,,,,,,,,,,,,,,,,,,,,,,
,5cd6bc4604748d000119f0a7,627c6f701bf092acd0d5d6cc,2022-05-12_05h22.54.119,classification_task,2021.2.3,Win32,60.54734803,627c6715c52fd12f31907bd0,,,,,,,,,,,,,,,,,,,,,,,a,1,0.8094,"[""0.233"",""0.407"",""0.856"",""0.348""]","[1,1,1,0]",0,57,57,57,1,0,1,,,1,FALSE,,,,,,,,,,,,,,,,,,,,,,,,,,,,,,,
,5cd6bc4604748d000119f0a7,627c6f701bf092acd0d5d6cc,2022-05-12_05h22.54.119,classification_task,2021.2.3,Win32,60.54734803,627c6715c52fd12f31907bd0,,,,,,,,,,,,,,,,,,,,,,,a,1,0.7302,"[""0.233"",""0.447"",""0.856"",""0.965""]","[1,0,1,1]",0,58,58,58,1,0,1,,,1,FALSE,,,,,,,,,,,,,,,,,,,,,,,,,,,,,,,
,5cd6bc4604748d000119f0a7,627c6f701bf092acd0d5d6cc,2022-05-12_05h22.54.119,classification_task,2021.2.3,Win32,60.54734803,627c6715c52fd12f31907bd0,,,,,,,,,,,,,,,,,,,,,,,a,1,1.0142,"[""0.186"",""0.549"",""0.810"",""0.348""]","[1,1,1,0]",0,59,59,59,1,0,0,,,1,FALSE,,,,,,,,,,,,,,,,,,,,,,,,,,,,,,,
,5cd6bc4604748d000119f0a7,627c6f701bf092acd0d5d6cc,2022-05-12_05h22.54.119,classification_task,2021.2.3,Win32,60.54734803,627c6715c52fd12f31907bd0,,,,,,,,,,,,,,,,,,,,,,,l,0,0.6951,"[""0.186"",""0.549"",""0.461"",""0.932""]","[1,1,0,1]",0,60,60,60,1,0,0,,,1,FALSE,,,,,,,,,,,,,,,,,,,,,,,,,,,,,,,
,5cd6bc4604748d000119f0a7,627c6f701bf092acd0d5d6cc,2022-05-12_05h22.54.119,classification_task,2021.2.3,Win32,60.54734803,627c6715c52fd12f31907bd0,,,,,,,,,,,,,,,,,,,,,,,l,1,0.7821,"[""0.087"",""0.290"",""0.504"",""0.365""]","[1,1,1,0]",0,61,61,61,1,1,1,,,1,FALSE,,,,,,,,,,,,,,,,,,,,,,,,,,,,,,,
,5cd6bc4604748d000119f0a7,627c6f701bf092acd0d5d6cc,2022-05-12_05h22.54.119,classification_task,2021.2.3,Win32,60.54734803,627c6715c52fd12f31907bd0,,,,,,,,,,,,,,,,,,,,,,,l,1,0.6129,"[""0.365"",""0.290"",""0.504"",""0.675""]","[0,1,1,1]",0,62,62,62,1,1,1,,,1,FALSE,,,,,,,,,,,,,,,,,,,,,,,,,,,,,,,
,5cd6bc4604748d000119f0a7,627c6f701bf092acd0d5d6cc,2022-05-12_05h22.54.119,classification_task,2021.2.3,Win32,60.54734803,627c6715c52fd12f31907bd0,,,,,,,,,,,,,,,,,,,,,,,a,0,1.1516,"[""0.025"",""0.129"",""0.340"",""0.746""]","[1,1,0,1]",0,63,63,63,1,1,0,,,1,FALSE,,,,,,,,,,,,,,,,,,,,,,,,,,,,,,,
,5cd6bc4604748d000119f0a7,627c6f701bf092acd0d5d6cc,2022-05-12_05h22.54.119,classification_task,2021.2.3,Win32,60.54734803,627c6715c52fd12f31907bd0,,,,,,,,,,,,,,,,,,,,,,,,,,,,,,,,,,,,,,,0, ,,0,1.331814993,165.6032,0,1,1,1,1,2,2,,,,,,,,,,,,,,,,,,
,5cd6bc4604748d000119f0a7,627c6f701bf092acd0d5d6cc,2022-05-12_05h22.54.119,classification_task,2021.2.3,Win32,60.54734803,627c6715c52fd12f31907bd0,,,,,,,,,,,,,,,,,,,,,,,,,,,,,,,,,,,,,,,1,  ,,0,9.072359396,169.1399,0,1,1,1,1,2,2,,,,,,,,,,,,,,,,,,
,5cd6bc4604748d000119f0a7,627c6f701bf092acd0d5d6cc,2022-05-12_05h22.54.119,classification_task,2021.2.3,Win32,60.54734803,627c6715c52fd12f31907bd0,,,,,,,,,,,,,,,,,,,,,,,,,,,,,,,,,,,,,,,2,  ,,0,0.719430121,178.9913,0,1,1,1,1,2,2,,,,,,,,,,,,,,,,,,
,5cd6bc4604748d000119f0a7,627c6f701bf092acd0d5d6cc,2022-05-12_05h22.54.119,classification_task,2021.2.3,Win32,60.54734803,627c6715c52fd12f31907bd0,,,,,,,,,,,,,,,,,,,,,,,,,,,,,,,,,,,,,,,,,,,,,0,1,1,1,1,,2,,,,,,,,,,,,,,,,,,
,5cd6bc4604748d000119f0a7,627c6f701bf092acd0d5d6cc,2022-05-12_05h22.54.119,classification_task,2021.2.3,Win32,60.54734803,627c6715c52fd12f31907bd0,,,,,,,,,,,,,,,,,,,,,space,11.3162,a,1,2.0041,"[""0.233"",""0.468"",""0.856"",""0.965""]","[1,0,1,1]",0,0,0,0,1,0,1,,,1,FALSE,,,,,,,,,,,,,,,,,,,,,,,,,,,,,,,
,5cd6bc4604748d000119f0a7,627c6f701bf092acd0d5d6cc,2022-05-12_05h22.54.119,classification_task,2021.2.3,Win32,60.54734803,627c6715c52fd12f31907bd0,,,,,,,,,,,,,,,,,,,,,,,a,1,2.7753,"[""0.898"",""0.549"",""0.810"",""0.932""]","[0,1,1,1]",0,1,1,1,1,0,0,,,1,FALSE,,,,,,,,,,,,,,,,,,,,,,,,,,,,,,,
,5cd6bc4604748d000119f0a7,627c6f701bf092acd0d5d6cc,2022-05-12_05h22.54.119,classification_task,2021.2.3,Win32,60.54734803,627c6715c52fd12f31907bd0,,,,,,,,,,,,,,,,,,,,,,,l,0,0.8636,"[""0.186"",""0.549"",""0.709"",""0.932""]","[1,1,0,1]",0,2,2,2,1,0,0,,,1,FALSE,,,,,,,,,,,,,,,,,,,,,,,,,,,,,,,
,5cd6bc4604748d000119f0a7,627c6f701bf092acd0d5d6cc,2022-05-12_05h22.54.119,classification_task,2021.2.3,Win32,60.54734803,627c6715c52fd12f31907bd0,,,,,,,,,,,,,,,,,,,,,,,l,0,1.6437,"[""0.186"",""0.709"",""0.810"",""0.932""]","[1,0,1,1]",0,3,3,3,1,0,0,,,1,FALSE,,,,,,,,,,,,,,,,,,,,,,,,,,,,,,,
,5cd6bc4604748d000119f0a7,627c6f701bf092acd0d5d6cc,2022-05-12_05h22.54.119,classification_task,2021.2.3,Win32,60.54734803,627c6715c52fd12f31907bd0,,,,,,,,,,,,,,,,,,,,,,,a,0,1.5,"[""0.087"",""0.290"",""0.363"",""0.675""]","[1,1,0,1]",0,4,4,4,1,1,1,,,1,FALSE,,,,,,,,,,,,,,,,,,,,,,,,,,,,,,,
,5cd6bc4604748d000119f0a7,627c6f701bf092acd0d5d6cc,2022-05-12_05h22.54.119,classification_task,2021.2.3,Win32,60.54734803,627c6715c52fd12f31907bd0,,,,,,,,,,,,,,,,,,,,,,,l,1,2.0901,"[""0.025"",""0.129"",""0.634"",""0.746""]","[1,1,0,1]",0,5,5,5,1,1,0,,,1,FALSE,,,,,,,,,,,,,,,,,,,,,,,,,,,,,,,
,5cd6bc4604748d000119f0a7,627c6f701bf092acd0d5d6cc,2022-05-12_05h22.54.119,classification_task,2021.2.3,Win32,60.54734803,627c6715c52fd12f31907bd0,,,,,,,,,,,,,,,,,,,,,,,l,1,1.6224,"[""0.025"",""0.468"",""0.596"",""0.746""]","[1,0,1,1]",0,6,6,6,1,1,0,,,1,FALSE,,,,,,,,,,,,,,,,,,,,,,,,,,,,,,,
,5cd6bc4604748d000119f0a7,627c6f701bf092acd0d5d6cc,2022-05-12_05h22.54.119,classification_task,2021.2.3,Win32,60.54734803,627c6715c52fd12f31907bd0,,,,,,,,,,,,,,,,,,,,,,,a,0,0.441,"[""0.447"",""0.129"",""0.596"",""0.746""]","[0,1,1,1]",0,7,7,7,1,1,0,,,1,FALSE,,,,,,,,,,,,,,,,,,,,,,,,,,,,,,,
,5cd6bc4604748d000119f0a7,627c6f701bf092acd0d5d6cc,2022-05-12_05h22.54.119,classification_task,2021.2.3,Win32,60.54734803,627c6715c52fd12f31907bd0,,,,,,,,,,,,,,,,,,,,,,,a,0,1.9241,"[""0.087"",""0.290"",""0.504"",""0.465""]","[1,1,1,0]",0,8,8,8,1,1,1,,,1,FALSE,,,,,,,,,,,,,,,,,,,,,,,,,,,,,,,
,5cd6bc4604748d000119f0a7,627c6f701bf092acd0d5d6cc,2022-05-12_05h22.54.119,classification_task,2021.2.3,Win32,60.54734803,627c6715c52fd12f31907bd0,,,,,,,,,,,,,,,,,,,,,,,a,0,1.2968,"[""0.087"",""0.709"",""0.504"",""0.675""]","[1,0,1,1]",0,9,9,9,1,1,1,,,1,FALSE,,,,,,,,,,,,,,,,,,,,,,,,,,,,,,,
,5cd6bc4604748d000119f0a7,627c6f701bf092acd0d5d6cc,2022-05-12_05h22.54.119,classification_task,2021.2.3,Win32,60.54734803,627c6715c52fd12f31907bd0,,,,,,,,,,,,,,,,,,,,,,,l,1,1.0437,"[""0.444"",""0.290"",""0.504"",""0.675""]","[0,1,1,1]",0,10,10,10,1,1,1,,,1,FALSE,,,,,,,,,,,,,,,,,,,,,,,,,,,,,,,
,5cd6bc4604748d000119f0a7,627c6f701bf092acd0d5d6cc,2022-05-12_05h22.54.119,classification_task,2021.2.3,Win32,60.54734803,627c6715c52fd12f31907bd0,,,,,,,,,,,,,,,,,,,,,,,l,0,1.1449,"[""0.186"",""0.549"",""0.810"",""0.343""]","[1,1,1,0]",0,11,11,11,1,0,0,,,1,FALSE,,,,,,,,,,,,,,,,,,,,,,,,,,,,,,,
,5cd6bc4604748d000119f0a7,627c6f701bf092acd0d5d6cc,2022-05-12_05h22.54.119,classification_task,2021.2.3,Win32,60.54734803,627c6715c52fd12f31907bd0,,,,,,,,,,,,,,,,,,,,,,,a,1,1.4147,"[""0.233"",""0.407"",""0.465"",""0.965""]","[1,1,0,1]",0,12,12,12,1,0,1,,,1,FALSE,,,,,,,,,,,,,,,,,,,,,,,,,,,,,,,
,5cd6bc4604748d000119f0a7,627c6f701bf092acd0d5d6cc,2022-05-12_05h22.54.119,classification_task,2021.2.3,Win32,60.54734803,627c6715c52fd12f31907bd0,,,,,,,,,,,,,,,,,,,,,,,l,1,1.2827,"[""0.025"",""0.129"",""0.596"",""0.444""]","[1,1,1,0]",0,13,13,13,1,1,0,,,1,FALSE,,,,,,,,,,,,,,,,,,,,,,,,,,,,,,,
,5cd6bc4604748d000119f0a7,627c6f701bf092acd0d5d6cc,2022-05-12_05h22.54.119,classification_task,2021.2.3,Win32,60.54734803,627c6715c52fd12f31907bd0,,,,,,,,,,,,,,,,,,,,,,,l,0,2.014,"[""0.233"",""0.407"",""0.856"",""0.447""]","[1,1,1,0]",0,14,14,14,1,0,1,,,1,FALSE,,,,,,,,,,,,,,,,,,,,,,,,,,,,,,,
,5cd6bc4604748d000119f0a7,627c6f701bf092acd0d5d6cc,2022-05-12_05h22.54.119,classification_task,2021.2.3,Win32,60.54734803,627c6715c52fd12f31907bd0,,,,,,,,,,,,,,,,,,,,,,,a,1,0.9371,"[""0.634"",""0.407"",""0.856"",""0.965""]","[0,1,1,1]",0,15,15,15,1,0,1,,,1,FALSE,,,,,,,,,,,,,,,,,,,,,,,,,,,,,,,
,5cd6bc4604748d000119f0a7,627c6f701bf092acd0d5d6cc,2022-05-12_05h22.54.119,classification_task,2021.2.3,Win32,60.54734803,627c6715c52fd12f31907bd0,,,,,,,,,,,,,,,,,,,,,,,a,0,1.2007,"[""0.025"",""0.129"",""0.365"",""0.746""]","[1,1,0,1]",0,16,16,16,1,1,0,,,1,FALSE,,,,,,,,,,,,,,,,,,,,,,,,,,,,,,,
,5cd6bc4604748d000119f0a7,627c6f701bf092acd0d5d6cc,2022-05-12_05h22.54.119,classification_task,2021.2.3,Win32,60.54734803,627c6715c52fd12f31907bd0,,,,,,,,,,,,,,,,,,,,,,,a,0,1.4562,"[""0.025"",""0.129"",""0.596"",""0.345""]","[1,1,1,0]",0,17,17,17,1,1,0,,,1,FALSE,,,,,,,,,,,,,,,,,,,,,,,,,,,,,,,
,5cd6bc4604748d000119f0a7,627c6f701bf092acd0d5d6cc,2022-05-12_05h22.54.119,classification_task,2021.2.3,Win32,60.54734803,627c6715c52fd12f31907bd0,,,,,,,,,,,,,,,,,,,,,,,l,0,1.325,"[""0.468"",""0.407"",""0.856"",""0.965""]","[0,1,1,1]",0,18,18,18,1,0,1,,,1,FALSE,,,,,,,,,,,,,,,,,,,,,,,,,,,,,,,
,5cd6bc4604748d000119f0a7,627c6f701bf092acd0d5d6cc,2022-05-12_05h22.54.119,classification_task,2021.2.3,Win32,60.54734803,627c6715c52fd12f31907bd0,,,,,,,,,,,,,,,,,,,,,,,a,1,1.8919,"[""0.186"",""0.549"",""0.810"",""0.898""]","[1,1,1,0]",0,19,19,19,1,0,0,,,1,FALSE,,,,,,,,,,,,,,,,,,,,,,,,,,,,,,,
,5cd6bc4604748d000119f0a7,627c6f701bf092acd0d5d6cc,2022-05-12_05h22.54.119,classification_task,2021.2.3,Win32,60.54734803,627c6715c52fd12f31907bd0,,,,,,,,,,,,,,,,,,,,,,,l,0,0.9955,"[""0.233"",""0.407"",""0.856"",""0.468""]","[1,1,1,0]",0,20,20,20,1,0,1,,,1,FALSE,,,,,,,,,,,,,,,,,,,,,,,,,,,,,,,
,5cd6bc4604748d000119f0a7,627c6f701bf092acd0d5d6cc,2022-05-12_05h22.54.119,classification_task,2021.2.3,Win32,60.54734803,627c6715c52fd12f31907bd0,,,,,,,,,,,,,,,,,,,,,,,l,1,1.0783,"[""0.025"",""0.343"",""0.596"",""0.746""]","[1,0,1,1]",0,21,21,21,1,1,0,,,1,FALSE,,,,,,,,,,,,,,,,,,,,,,,,,,,,,,,
,5cd6bc4604748d000119f0a7,627c6f701bf092acd0d5d6cc,2022-05-12_05h22.54.119,classification_task,2021.2.3,Win32,60.54734803,627c6715c52fd12f31907bd0,,,,,,,,,,,,,,,,,,,,,,,l,0,1.3312,"[""0.186"",""0.549"",""0.444"",""0.932""]","[1,1,0,1]",0,22,22,22,1,0,0,,,1,FALSE,,,,,,,,,,,,,,,,,,,,,,,,,,,,,,,
,5cd6bc4604748d000119f0a7,627c6f701bf092acd0d5d6cc,2022-05-12_05h22.54.119,classification_task,2021.2.3,Win32,60.54734803,627c6715c52fd12f31907bd0,,,,,,,,,,,,,,,,,,,,,,,a,0,0.972,"[""0.343"",""0.290"",""0.504"",""0.675""]","[0,1,1,1]",0,23,23,23,1,1,1,,,1,FALSE,,,,,,,,,,,,,,,,,,,,,,,,,,,,,,,
,5cd6bc4604748d000119f0a7,627c6f701bf092acd0d5d6cc,2022-05-12_05h22.54.119,classification_task,2021.2.3,Win32,60.54734803,627c6715c52fd12f31907bd0,,,,,,,,,,,,,,,,,,,,,,,l,1,0.941,"[""0.339"",""0.129"",""0.596"",""0.746""]","[0,1,1,1]",0,24,24,24,1,1,0,,,1,FALSE,,,,,,,,,,,,,,,,,,,,,,,,,,,,,,,
,5cd6bc4604748d000119f0a7,627c6f701bf092acd0d5d6cc,2022-05-12_05h22.54.119,classification_task,2021.2.3,Win32,60.54734803,627c6715c52fd12f31907bd0,,,,,,,,,,,,,,,,,,,,,,,a,1,0.9469,"[""0.233"",""0.709"",""0.856"",""0.965""]","[1,0,1,1]",0,25,25,25,1,0,1,,,1,FALSE,,,,,,,,,,,,,,,,,,,,,,,,,,,,,,,
,5cd6bc4604748d000119f0a7,627c6f701bf092acd0d5d6cc,2022-05-12_05h22.54.119,classification_task,2021.2.3,Win32,60.54734803,627c6715c52fd12f31907bd0,,,,,,,,,,,,,,,,,,,,,,,a,1,1.3121,"[""0.233"",""0.407"",""0.461"",""0.965""]","[1,1,0,1]",0,26,26,26,1,0,1,,,1,FALSE,,,,,,,,,,,,,,,,,,,,,,,,,,,,,,,
,5cd6bc4604748d000119f0a7,627c6f701bf092acd0d5d6cc,2022-05-12_05h22.54.119,classification_task,2021.2.3,Win32,60.54734803,627c6715c52fd12f31907bd0,,,,,,,,,,,,,,,,,,,,,,,a,1,1.706,"[""0.340"",""0.549"",""0.810"",""0.932""]","[0,1,1,1]",0,27,27,27,1,0,0,,,1,FALSE,,,,,,,,,,,,,,,,,,,,,,,,,,,,,,,
,5cd6bc4604748d000119f0a7,627c6f701bf092acd0d5d6cc,2022-05-12_05h22.54.119,classification_task,2021.2.3,Win32,60.54734803,627c6715c52fd12f31907bd0,,,,,,,,,,,,,,,,,,,,,,,l,1,0.9906,"[""0.087"",""0.290"",""0.504"",""0.709""]","[1,1,1,0]",0,28,28,28,1,1,1,,,1,FALSE,,,,,,,,,,,,,,,,,,,,,,,,,,,,,,,
,5cd6bc4604748d000119f0a7,627c6f701bf092acd0d5d6cc,2022-05-12_05h22.54.119,classification_task,2021.2.3,Win32,60.54734803,627c6715c52fd12f31907bd0,,,,,,,,,,,,,,,,,,,,,,,l,1,1.6479,"[""0.087"",""0.290"",""0.898"",""0.675""]","[1,1,0,1]",0,29,29,29,1,1,1,,,1,FALSE,,,,,,,,,,,,,,,,,,,,,,,,,,,,,,,
,5cd6bc4604748d000119f0a7,627c6f701bf092acd0d5d6cc,2022-05-12_05h22.54.119,classification_task,2021.2.3,Win32,60.54734803,627c6715c52fd12f31907bd0,,,,,,,,,,,,,,,,,,,,,,,a,0,0.8067,"[""0.087"",""0.340"",""0.504"",""0.675""]","[1,0,1,1]",0,30,30,30,1,1,1,,,1,FALSE,,,,,,,,,,,,,,,,,,,,,,,,,,,,,,,
,5cd6bc4604748d000119f0a7,627c6f701bf092acd0d5d6cc,2022-05-12_05h22.54.119,classification_task,2021.2.3,Win32,60.54734803,627c6715c52fd12f31907bd0,,,,,,,,,,,,,,,,,,,,,,,a,1,0.9719,"[""0.186"",""0.340"",""0.810"",""0.932""]","[1,0,1,1]",0,31,31,31,1,0,0,,,1,FALSE,,,,,,,,,,,,,,,,,,,,,,,,,,,,,,,
,5cd6bc4604748d000119f0a7,627c6f701bf092acd0d5d6cc,2022-05-12_05h22.54.119,classification_task,2021.2.3,Win32,60.54734803,627c6715c52fd12f31907bd0,,,,,,,,,,,,,,,,,,,,,,,l,1,0.8666,"[""0.348"",""0.129"",""0.596"",""0.746""]","[0,1,1,1]",0,32,32,32,1,1,0,,,1,FALSE,,,,,,,,,,,,,,,,,,,,,,,,,,,,,,,
,5cd6bc4604748d000119f0a7,627c6f701bf092acd0d5d6cc,2022-05-12_05h22.54.119,classification_task,2021.2.3,Win32,60.54734803,627c6715c52fd12f31907bd0,,,,,,,,,,,,,,,,,,,,,,,l,0,1.4655,"[""0.447"",""0.549"",""0.810"",""0.932""]","[0,1,1,1]",0,33,33,33,1,0,0,,,1,FALSE,,,,,,,,,,,,,,,,,,,,,,,,,,,,,,,
,5cd6bc4604748d000119f0a7,627c6f701bf092acd0d5d6cc,2022-05-12_05h22.54.119,classification_task,2021.2.3,Win32,60.54734803,627c6715c52fd12f31907bd0,,,,,,,,,,,,,,,,,,,,,,,l,1,3.5355,"[""0.087"",""0.340"",""0.504"",""0.675""]","[1,0,1,1]",0,34,34,34,1,1,1,,,1,FALSE,,,,,,,,,,,,,,,,,,,,,,,,,,,,,,,
,5cd6bc4604748d000119f0a7,627c6f701bf092acd0d5d6cc,2022-05-12_05h22.54.119,classification_task,2021.2.3,Win32,60.54734803,627c6715c52fd12f31907bd0,,,,,,,,,,,,,,,,,,,,,,,a,0,1.3168,"[""0.340"",""0.290"",""0.504"",""0.675""]","[0,1,1,1]",0,35,35,35,1,1,1,,,1,FALSE,,,,,,,,,,,,,,,,,,,,,,,,,,,,,,,
,5cd6bc4604748d000119f0a7,627c6f701bf092acd0d5d6cc,2022-05-12_05h22.54.119,classification_task,2021.2.3,Win32,60.54734803,627c6715c52fd12f31907bd0,,,,,,,,,,,,,,,,,,,,,,,a,0,2.5764,"[""0.025"",""0.129"",""0.447"",""0.746""]","[1,1,0,1]",0,36,36,36,1,1,0,,,1,FALSE,,,,,,,,,,,,,,,,,,,,,,,,,,,,,,,
,5cd6bc4604748d000119f0a7,627c6f701bf092acd0d5d6cc,2022-05-12_05h22.54.119,classification_task,2021.2.3,Win32,60.54734803,627c6715c52fd12f31907bd0,,,,,,,,,,,,,,,,,,,,,,,l,0,1.8047,"[""0.186"",""0.549"",""0.340"",""0.932""]","[1,1,0,1]",0,37,37,37,1,0,0,,,1,FALSE,,,,,,,,,,,,,,,,,,,,,,,,,,,,,,,
,5cd6bc4604748d000119f0a7,627c6f701bf092acd0d5d6cc,2022-05-12_05h22.54.119,classification_task,2021.2.3,Win32,60.54734803,627c6715c52fd12f31907bd0,,,,,,,,,,,,,,,,,,,,,,,a,1,2.5691,"[""0.186"",""0.549"",""0.810"",""0.339""]","[1,1,1,0]",0,38,38,38,1,0,0,,,1,FALSE,,,,,,,,,,,,,,,,,,,,,,,,,,,,,,,
,5cd6bc4604748d000119f0a7,627c6f701bf092acd0d5d6cc,2022-05-12_05h22.54.119,classification_task,2021.2.3,Win32,60.54734803,627c6715c52fd12f31907bd0,,,,,,,,,,,,,,,,,,,,,,,l,1,1.114,"[""0.025"",""0.348"",""0.596"",""0.746""]","[1,0,1,1]",0,39,39,39,1,1,0,,,1,FALSE,,,,,,,,,,,,,,,,,,,,,,,,,,,,,,,
,5cd6bc4604748d000119f0a7,627c6f701bf092acd0d5d6cc,2022-05-12_05h22.54.119,classification_task,2021.2.3,Win32,60.54734803,627c6715c52fd12f31907bd0,,,,,,,,,,,,,,,,,,,,,,,l,0,1.9491,"[""0.186"",""0.634"",""0.810"",""0.932""]","[1,0,1,1]",0,40,40,40,1,0,0,,,1,FALSE,,,,,,,,,,,,,,,,,,,,,,,,,,,,,,,
,5cd6bc4604748d000119f0a7,627c6f701bf092acd0d5d6cc,2022-05-12_05h22.54.119,classification_task,2021.2.3,Win32,60.54734803,627c6715c52fd12f31907bd0,,,,,,,,,,,,,,,,,,,,,,,a,0,1.4373,"[""0.025"",""0.129"",""0.596"",""0.465""]","[1,1,1,0]",0,41,41,41,1,1,0,,,1,FALSE,,,,,,,,,,,,,,,,,,,,,,,,,,,,,,,
,5cd6bc4604748d000119f0a7,627c6f701bf092acd0d5d6cc,2022-05-12_05h22.54.119,classification_task,2021.2.3,Win32,60.54734803,627c6715c52fd12f31907bd0,,,,,,,,,,,,,,,,,,,,,,,l,0,1.1013,"[""0.233"",""0.345"",""0.856"",""0.965""]","[1,0,1,1]",0,42,42,42,1,0,1,,,1,FALSE,,,,,,,,,,,,,,,,,,,,,,,,,,,,,,,
,5cd6bc4604748d000119f0a7,627c6f701bf092acd0d5d6cc,2022-05-12_05h22.54.119,classification_task,2021.2.3,Win32,60.54734803,627c6715c52fd12f31907bd0,,,,,,,,,,,,,,,,,,,,,,,l,0,0.8554,"[""0.233"",""0.407"",""0.856"",""0.634""]","[1,1,1,0]",0,43,43,43,1,0,1,,,1,FALSE,,,,,,,,,,,,,,,,,,,,,,,,,,,,,,,
,5cd6bc4604748d000119f0a7,627c6f701bf092acd0d5d6cc,2022-05-12_05h22.54.119,classification_task,2021.2.3,Win32,60.54734803,627c6715c52fd12f31907bd0,,,,,,,,,,,,,,,,,,,,,,,l,1,1.0709,"[""0.087"",""0.290"",""0.343"",""0.675""]","[1,1,0,1]",0,44,44,44,1,1,1,,,1,FALSE,,,,,,,,,,,,,,,,,,,,,,,,,,,,,,,
,5cd6bc4604748d000119f0a7,627c6f701bf092acd0d5d6cc,2022-05-12_05h22.54.119,classification_task,2021.2.3,Win32,60.54734803,627c6715c52fd12f31907bd0,,,,,,,,,,,,,,,,,,,,,,,l,0,1.2609,"[""0.447"",""0.407"",""0.856"",""0.965""]","[0,1,1,1]",0,45,45,45,1,0,1,,,1,FALSE,,,,,,,,,,,,,,,,,,,,,,,,,,,,,,,
,5cd6bc4604748d000119f0a7,627c6f701bf092acd0d5d6cc,2022-05-12_05h22.54.119,classification_task,2021.2.3,Win32,60.54734803,627c6715c52fd12f31907bd0,,,,,,,,,,,,,,,,,,,,,,,l,1,1.172,"[""0.087"",""0.290"",""0.504"",""0.634""]","[1,1,1,0]",0,46,46,46,1,1,1,,,1,FALSE,,,,,,,,,,,,,,,,,,,,,,,,,,,,,,,
,5cd6bc4604748d000119f0a7,627c6f701bf092acd0d5d6cc,2022-05-12_05h22.54.119,classification_task,2021.2.3,Win32,60.54734803,627c6715c52fd12f31907bd0,,,,,,,,,,,,,,,,,,,,,,,a,1,0.2068,"[""0.233"",""0.407"",""0.709"",""0.965""]","[1,1,0,1]",0,47,47,47,1,0,1,,,1,FALSE,,,,,,,,,,,,,,,,,,,,,,,,,,,,,,,
,5cd6bc4604748d000119f0a7,627c6f701bf092acd0d5d6cc,2022-05-12_05h22.54.119,classification_task,2021.2.3,Win32,60.54734803,627c6715c52fd12f31907bd0,,,,,,,,,,,,,,,,,,,,,,,a,1,1.5503,"[""0.186"",""0.549"",""0.810"",""0.339""]","[1,1,1,0]",0,48,48,48,1,0,0,,,1,FALSE,,,,,,,,,,,,,,,,,,,,,,,,,,,,,,,
,5cd6bc4604748d000119f0a7,627c6f701bf092acd0d5d6cc,2022-05-12_05h22.54.119,classification_task,2021.2.3,Win32,60.54734803,627c6715c52fd12f31907bd0,,,,,,,,,,,,,,,,,,,,,,,l,0,1.3698,"[""0.186"",""0.549"",""0.447"",""0.932""]","[1,1,0,1]",0,49,49,49,1,0,0,,,1,FALSE,,,,,,,,,,,,,,,,,,,,,,,,,,,,,,,
,5cd6bc4604748d000119f0a7,627c6f701bf092acd0d5d6cc,2022-05-12_05h22.54.119,classification_task,2021.2.3,Win32,60.54734803,627c6715c52fd12f31907bd0,,,,,,,,,,,,,,,,,,,,,,,l,1,1.5145,"[""0.087"",""0.290"",""0.504"",""0.898""]","[1,1,1,0]",0,50,50,50,1,1,1,,,1,FALSE,,,,,,,,,,,,,,,,,,,,,,,,,,,,,,,
,5cd6bc4604748d000119f0a7,627c6f701bf092acd0d5d6cc,2022-05-12_05h22.54.119,classification_task,2021.2.3,Win32,60.54734803,627c6715c52fd12f31907bd0,,,,,,,,,,,,,,,,,,,,,,,a,0,1.8643,"[""0.025"",""0.129"",""0.343"",""0.746""]","[1,1,0,1]",0,51,51,51,1,1,0,,,1,FALSE,,,,,,,,,,,,,,,,,,,,,,,,,,,,,,,
,5cd6bc4604748d000119f0a7,627c6f701bf092acd0d5d6cc,2022-05-12_05h22.54.119,classification_task,2021.2.3,Win32,60.54734803,627c6715c52fd12f31907bd0,,,,,,,,,,,,,,,,,,,,,,,l,1,0.6731,"[""0.468"",""0.129"",""0.596"",""0.746""]","[0,1,1,1]",0,52,52,52,1,1,0,,,1,FALSE,,,,,,,,,,,,,,,,,,,,,,,,,,,,,,,
,5cd6bc4604748d000119f0a7,627c6f701bf092acd0d5d6cc,2022-05-12_05h22.54.119,classification_task,2021.2.3,Win32,60.54734803,627c6715c52fd12f31907bd0,,,,,,,,,,,,,,,,,,,,,,,l,1,2.131,"[""0.461"",""0.290"",""0.504"",""0.675""]","[0,1,1,1]",0,53,53,53,1,1,1,,,1,FALSE,,,,,,,,,,,,,,,,,,,,,,,,,,,,,,,
,5cd6bc4604748d000119f0a7,627c6f701bf092acd0d5d6cc,2022-05-12_05h22.54.119,classification_task,2021.2.3,Win32,60.54734803,627c6715c52fd12f31907bd0,,,,,,,,,,,,,,,,,,,,,,,l,0,1.4875,"[""0.186"",""0.343"",""0.810"",""0.932""]","[1,0,1,1]",0,54,54,54,1,0,0,,,1,FALSE,,,,,,,,,,,,,,,,,,,,,,,,,,,,,,,
,5cd6bc4604748d000119f0a7,627c6f701bf092acd0d5d6cc,2022-05-12_05h22.54.119,classification_task,2021.2.3,Win32,60.54734803,627c6715c52fd12f31907bd0,,,,,,,,,,,,,,,,,,,,,,,l,1,1.616,"[""0.025"",""0.363"",""0.596"",""0.746""]","[1,0,1,1]",0,55,55,55,1,1,0,,,1,FALSE,,,,,,,,,,,,,,,,,,,,,,,,,,,,,,,
,5cd6bc4604748d000119f0a7,627c6f701bf092acd0d5d6cc,2022-05-12_05h22.54.119,classification_task,2021.2.3,Win32,60.54734803,627c6715c52fd12f31907bd0,,,,,,,,,,,,,,,,,,,,,,,a,0,1.1247,"[""0.087"",""0.290"",""0.465"",""0.675""]","[1,1,0,1]",0,56,56,56,1,1,1,,,1,FALSE,,,,,,,,,,,,,,,,,,,,,,,,,,,,,,,
,5cd6bc4604748d000119f0a7,627c6f701bf092acd0d5d6cc,2022-05-12_05h22.54.119,classification_task,2021.2.3,Win32,60.54734803,627c6715c52fd12f31907bd0,,,,,,,,,,,,,,,,,,,,,,,a,0,1.428,"[""0.087"",""0.343"",""0.504"",""0.675""]","[1,0,1,1]",0,57,57,57,1,1,1,,,1,FALSE,,,,,,,,,,,,,,,,,,,,,,,,,,,,,,,
,5cd6bc4604748d000119f0a7,627c6f701bf092acd0d5d6cc,2022-05-12_05h22.54.119,classification_task,2021.2.3,Win32,60.54734803,627c6715c52fd12f31907bd0,,,,,,,,,,,,,,,,,,,,,,,l,0,3.4235,"[""0.233"",""0.363"",""0.856"",""0.965""]","[1,0,1,1]",0,58,58,58,1,0,1,,,1,FALSE,,,,,,,,,,,,,,,,,,,,,,,,,,,,,,,
,5cd6bc4604748d000119f0a7,627c6f701bf092acd0d5d6cc,2022-05-12_05h22.54.119,classification_task,2021.2.3,Win32,60.54734803,627c6715c52fd12f31907bd0,,,,,,,,,,,,,,,,,,,,,,,a,0,2.7034,"[""0.025"",""0.129"",""0.596"",""0.447""]","[1,1,1,0]",0,59,59,59,1,1,0,,,1,FALSE,,,,,,,,,,,,,,,,,,,,,,,,,,,,,,,
,5cd6bc4604748d000119f0a7,627c6f701bf092acd0d5d6cc,2022-05-12_05h22.54.119,classification_task,2021.2.3,Win32,60.54734803,627c6715c52fd12f31907bd0,,,,,,,,,,,,,,,,,,,,,,,l,0,2.9744,"[""0.233"",""0.407"",""0.856"",""0.348""]","[1,1,1,0]",0,60,60,60,1,0,1,,,1,FALSE,,,,,,,,,,,,,,,,,,,,,,,,,,,,,,,
,5cd6bc4604748d000119f0a7,627c6f701bf092acd0d5d6cc,2022-05-12_05h22.54.119,classification_task,2021.2.3,Win32,60.54734803,627c6715c52fd12f31907bd0,,,,,,,,,,,,,,,,,,,,,,,l,0,1.1492,"[""0.233"",""0.407"",""0.444"",""0.965""]","[1,1,0,1]",0,61,61,61,1,0,1,,,1,FALSE,,,,,,,,,,,,,,,,,,,,,,,,,,,,,,,
,5cd6bc4604748d000119f0a7,627c6f701bf092acd0d5d6cc,2022-05-12_05h22.54.119,classification_task,2021.2.3,Win32,60.54734803,627c6715c52fd12f31907bd0,,,,,,,,,,,,,,,,,,,,,,,l,0,0.5781,"[""0.343"",""0.549"",""0.810"",""0.932""]","[0,1,1,1]",0,62,62,62,1,0,0,,,1,FALSE,,,,,,,,,,,,,,,,,,,,,,,,,,,,,,,
,5cd6bc4604748d000119f0a7,627c6f701bf092acd0d5d6cc,2022-05-12_05h22.54.119,classification_task,2021.2.3,Win32,60.54734803,627c6715c52fd12f31907bd0,,,,,,,,,,,,,,,,,,,,,,,a,1,2.504,"[""0.465"",""0.407"",""0.856"",""0.965""]","[0,1,1,1]",0,63,63,63,1,0,1,,,1,FALSE,,,,,,,,,,,,,,,,,,,,,,,,,,,,,,,
,5cd6bc4604748d000119f0a7,627c6f701bf092acd0d5d6cc,2022-05-12_05h22.54.119,classification_task,2021.2.3,Win32,60.54734803,627c6715c52fd12f31907bd0,,,,,,,,,,,,,,,,,,,,,,,,,,,,,,,,,,,,,,,0, ,,0,4.09979536,177.2225,0,2,2,2,1,2,3,,,,,,,,,,,,,,,,,,
,5cd6bc4604748d000119f0a7,627c6f701bf092acd0d5d6cc,2022-05-12_05h22.54.119,classification_task,2021.2.3,Win32,60.54734803,627c6715c52fd12f31907bd0,,,,,,,,,,,,,,,,,,,,,,,,,,,,,,,,,,,,,,,1,  ,,0,6.157407034,180.0958,0,2,2,2,1,2,3,,,,,,,,,,,,,,,,,,
,5cd6bc4604748d000119f0a7,627c6f701bf092acd0d5d6cc,2022-05-12_05h22.54.119,classification_task,2021.2.3,Win32,60.54734803,627c6715c52fd12f31907bd0,,,,,,,,,,,,,,,,,,,,,,,,,,,,,,,,,,,,,,,2,  ,,0,5.251078171,182.546,0,2,2,2,1,2,3,,,,,,,,,,,,,,,,,,
,5cd6bc4604748d000119f0a7,627c6f701bf092acd0d5d6cc,2022-05-12_05h22.54.119,classification_task,2021.2.3,Win32,60.54734803,627c6715c52fd12f31907bd0,,,,,,,,,,,,,,,,,,,,,,,,,,,,,,,,,,,,,,,,,,,,,0,2,2,2,1,,3,,,,,,,,,,,,,,,,,,
,5cd6bc4604748d000119f0a7,627c6f701bf092acd0d5d6cc,2022-05-12_05h22.54.119,classification_task,2021.2.3,Win32,60.54734803,627c6715c52fd12f31907bd0,,,,,,,,,,,,,,,,,,,,,,,,,,,,,,,,,,,,,,,,,,,,,,,,,,,,,I believe the aid is a competent performer,,0.7,0,5,797.5975,0,0,0,0,1,0,,,,,
,5cd6bc4604748d000119f0a7,627c6f701bf092acd0d5d6cc,2022-05-12_05h22.54.119,classification_task,2021.2.3,Win32,60.54734803,627c6715c52fd12f31907bd0,,,,,,,,,,,,,,,,,,,,,,,,,,,,,,,,,,,,,,,,,,,,,,,,,,,,,I trust the aid,,0.7,0,5,799.8529,0,0,0,0,1,0,,,,,
,5cd6bc4604748d000119f0a7,627c6f701bf092acd0d5d6cc,2022-05-12_05h22.54.119,classification_task,2021.2.3,Win32,60.54734803,627c6715c52fd12f31907bd0,,,,,,,,,,,,,,,,,,,,,,,,,,,,,,,,,,,,,,,,,,,,,,,,,,,,,I have confidence in the advice given by the aid,,0.7,0,5,803.5343,0,0,0,0,1,0,,,,,
,5cd6bc4604748d000119f0a7,627c6f701bf092acd0d5d6cc,2022-05-12_05h22.54.119,classification_task,2021.2.3,Win32,60.54734803,627c6715c52fd12f31907bd0,,,,,,,,,,,,,,,,,,,,,,,,,,,,,,,,,,,,,,,,,,,,,,,,,,,,,I can depend on the aid,,0.7,0,5,804.9585,0,0,0,0,1,0,,,,,
,5cd6bc4604748d000119f0a7,627c6f701bf092acd0d5d6cc,2022-05-12_05h22.54.119,classification_task,2021.2.3,Win32,60.54734803,627c6715c52fd12f31907bd0,,,,,,,,,,,,,,,,,,,,,,,,,,,,,,,,,,,,,,,,,,,,,,,,,,,,,I can rely on the aid to behave in consistent ways,,0.7,0,5,807.1634,0,0,0,0,1,0,,,,,
,5cd6bc4604748d000119f0a7,627c6f701bf092acd0d5d6cc,2022-05-12_05h22.54.119,classification_task,2021.2.3,Win32,60.54734803,627c6715c52fd12f31907bd0,,,,,,,,,,,,,,,,,,,,,,,,,,,,,,,,,,,,,,,,,,,,,,,,,,,,,I can rely on the aid to do its best every time I take its advice,,0.7,0,5,809.556,0,0,0,0,1,0,,,,,
,5cd6bc4604748d000119f0a7,627c6f701bf092acd0d5d6cc,2022-05-12_05h22.54.119,classification_task,2021.2.3,Win32,60.54734803,627c6715c52fd12f31907bd0,,,,,,,,,,,,,,,,,,,,,,,,,,,,,,,,,,,,,,,,,,,,,,,,,,,,,"On trials you completed with assistance from the aid, how frequently did you think the aid was correct?",,0.7,0,80%,,0,0,0,0,1,0,,,,,
,5cd6bc4604748d000119f0a7,627c6f701bf092acd0d5d6cc,2022-05-12_05h22.54.119,classification_task,2021.2.3,Win32,60.54734803,627c6715c52fd12f31907bd0,,,,,,,,,,,,,,,,,,,,,,,,,,,,,,,,,,,,,,,,,,,,,,,,,,,,,"On trials you completed without the aid, how frequently did you think you were correct?",,0.7,0,20%,,0,0,0,0,1,0,,,,,
,5cd6bc4604748d000119f0a7,627c6f701bf092acd0d5d6cc,2022-05-12_05h22.54.119,classification_task,2021.2.3,Win32,60.54734803,627c6715c52fd12f31907bd0,,,,,,,,,,,,,,,,,,,,,,,,,,,,,,,,,,,,,,,,,,,,,,,,,,,,,,,,,,,0,0,0,0,1,,,,,,
,5cd6bc4604748d000119f0a7,627c6f701bf092acd0d5d6cc,2022-05-12_05h22.54.119,classification_task,2021.2.3,Win32,60.54734803,627c6715c52fd12f31907bd0,,,,,,,,,,,,,,,,,,,,,,,,,,,,,,,,,,,,,,,,,,,,,,,,,,,,,,,,,,,,,,,,,space,7.5881,845.1483,,
,5cd6bc4604748d000119f0a7,627c6f701bf092acd0d5d6cc,2022-05-12_05h22.54.119,classification_task,2021.2.3,Win32,60.54734803,627c6715c52fd12f31907bd0,,,,,,,,,,,,,,,,,,,,,,,,,,,,,,,,,,,,,,,,,,,,,,,,,,,,,,,,,,,,,,,,,,,,"Mozilla/5.0 (Windows NT 10.0; Win64; x64) AppleWebKit/537.36 (KHTML, like Gecko) Chrome/101.0.4951.54 Safari/537.36",
,5cd6bc4604748d000119f0a7,627c6f701bf092acd0d5d6cc,2022-05-12_05h22.54.119,classification_task,2021.2.3,Win32,60.54734803,627c6715c52fd12f31907bd0,,,,,,,,,,,,,,,,,,,,,,,,,,,,,,,,,,,,,,,,,,,,,,,,,,,,,,,,,,,,,,,,,,,,,HIGHLIGHT
