usingWebGL,participant,session,date,expName,psychopyVersion,OS,frameRate,PROLIFIC_PID,STUDY_ID,SESSION_ID,signatures_friend,signatures_foe,band_ranges_top,band_ranges_bottom,formitemText,formtype,formundefined,formitemWidth,formindex,formresponse,formrt,key_resp_2.keys,key_resp_2.rt,tute_resp.keys,tute_resp.rt,tutorial.thisRepN,tutorial.thisTrialN,tutorial.thisN,tutorial.thisIndex,tutorial.ran,key_resp_4.keys,key_resp_4.rt,key_resp.keys,key_resp.corr,key_resp.rt,lines_presented,is_signal_presented,trials.thisRepN,trials.thisTrialN,trials.thisN,trials.thisIndex,trials.ran,vessel,active_band,lines,is_signal,supported_pos,catch_trial,debrief_formindex,debrief_formitemText,debrief_formtype,debrief_formitemWidth,debrief_formresponse,debrief_formrt,phases.thisRepN,phases.thisTrialN,phases.thisN,phases.thisIndex,phases.ran,phases.order,phase,key_resp_3.keys,trustitemText,trusttype,trustitemWidth,trustindex,trustresponse,trustrt,support_status.thisRepN,support_status.thisTrialN,support_status.thisN,support_status.thisIndex,support_status.ran,support_status.order,key_resp_5.keys,key_resp_5.rt,globalClockTime,userAgent
TRUE,5ce7bd64a6f1d500164b6da6,001,2022-04-29_03h09.10.180,classification_task,2021.2.3,Win32,59.94125757,5ce7bd64a6f1d500164b6da6,626b377229c10585ec392f89,626b3a95674052d874d36967,,,,,,,,,,,,,,,,,,,,,,,,,,,,,,,,,,,,,,,,,,,,,,,,,,,,,,,,,,,,,,,,,,,,
,5ce7bd64a6f1d500164b6da6,001,2022-04-29_03h09.10.180,classification_task,2021.2.3,Win32,59.94125757,5ce7bd64a6f1d500164b6da6,626b377229c10585ec392f89,626b3a95674052d874d36967,"[[""0.222"",""0.545"",""0.915"",""0.971""],[""0.184"",""0.440"",""0.700"",""0.875""]]","[[""0.085"",""0.378"",""0.593"",""0.771""],[""0.029"",""0.281"",""0.503"",""0.832""]]","[1,10]","[100,1000]",Video game experience,,,0.7,0,,,,,,,,,,,,,,,,,,,,,,,,,,,,,,,,,,,,,,,,,,,,,,,,,,,,,,,,,,,
,5ce7bd64a6f1d500164b6da6,001,2022-04-29_03h09.10.180,classification_task,2021.2.3,Win32,59.94125757,5ce7bd64a6f1d500164b6da6,626b377229c10585ec392f89,626b3a95674052d874d36967,,,,,Approximately how many hours did you spend playing video games in the last week?,,,0.7,0,50,,,,,,,,,,,,,,,,,,,,,,,,,,,,,,,,,,,,,,,,,,,,,,,,,,,,,,,,,,
,5ce7bd64a6f1d500164b6da6,001,2022-04-29_03h09.10.180,classification_task,2021.2.3,Win32,59.94125757,5ce7bd64a6f1d500164b6da6,626b377229c10585ec392f89,626b3a95674052d874d36967,,,,,"Which game did you play the most this year? (Enter ""None"" if you didn't play any)",,,0.7,0,World of Warcraft,,,,,,,,,,,,,,,,,,,,,,,,,,,,,,,,,,,,,,,,,,,,,,,,,,,,,,,,,,
,5ce7bd64a6f1d500164b6da6,001,2022-04-29_03h09.10.180,classification_task,2021.2.3,Win32,59.94125757,5ce7bd64a6f1d500164b6da6,626b377229c10585ec392f89,626b3a95674052d874d36967,,,,,Visual perception,,,0.7,0,,,,,,,,,,,,,,,,,,,,,,,,,,,,,,,,,,,,,,,,,,,,,,,,,,,,,,,,,,,
,5ce7bd64a6f1d500164b6da6,001,2022-04-29_03h09.10.180,classification_task,2021.2.3,Win32,59.94125757,5ce7bd64a6f1d500164b6da6,626b377229c10585ec392f89,626b3a95674052d874d36967,,,,,Do you have any form of color blindness?,,,0.7,0,No,24.5902,,,,,,,,,,,,,,,,,,,,,,,,,,,,,,,,,,,,,,,,,,,,,,,,,,,,,,,,,
,5ce7bd64a6f1d500164b6da6,001,2022-04-29_03h09.10.180,classification_task,2021.2.3,Win32,59.94125757,5ce7bd64a6f1d500164b6da6,626b377229c10585ec392f89,626b3a95674052d874d36967,,,,,Do you use software to change the colour temperature of your screen (e.g. f.lux)?,,,0.7,0,Yes,28.1216,,,,,,,,,,,,,,,,,,,,,,,,,,,,,,,,,,,,,,,,,,,,,,,,,,,,,,,,,
,5ce7bd64a6f1d500164b6da6,001,2022-04-29_03h09.10.180,classification_task,2021.2.3,Win32,59.94125757,5ce7bd64a6f1d500164b6da6,626b377229c10585ec392f89,626b3a95674052d874d36967,,,,,,,,,,,,space,54.0903,space,4.4787,0,0,0,0,1,,,,,,,,,,,,,,,,,,,,,,,,,,,,,,,,,,,,,,,,,,,,,,,,
,5ce7bd64a6f1d500164b6da6,001,2022-04-29_03h09.10.180,classification_task,2021.2.3,Win32,59.94125757,5ce7bd64a6f1d500164b6da6,626b377229c10585ec392f89,626b3a95674052d874d36967,,,,,,,,,,,,,,space,6.1464,1,0,1,0,1,,,,,,,,,,,,,,,,,,,,,,,,,,,,,,,,,,,,,,,,,,,,,,,,
,5ce7bd64a6f1d500164b6da6,001,2022-04-29_03h09.10.180,classification_task,2021.2.3,Win32,59.94125757,5ce7bd64a6f1d500164b6da6,626b377229c10585ec392f89,626b3a95674052d874d36967,,,,,,,,,,,,,,space,19.9227,2,0,2,0,1,,,,,,,,,,,,,,,,,,,,,,,,,,,,,,,,,,,,,,,,,,,,,,,,
,5ce7bd64a6f1d500164b6da6,001,2022-04-29_03h09.10.180,classification_task,2021.2.3,Win32,59.94125757,5ce7bd64a6f1d500164b6da6,626b377229c10585ec392f89,626b3a95674052d874d36967,,,,,,,,,,,,,,space,5.3795,3,0,3,0,1,,,,,,,,,,,,,,,,,,,,,,,,,,,,,,,,,,,,,,,,,,,,,,,,
,5ce7bd64a6f1d500164b6da6,001,2022-04-29_03h09.10.180,classification_task,2021.2.3,Win32,59.94125757,5ce7bd64a6f1d500164b6da6,626b377229c10585ec392f89,626b3a95674052d874d36967,,,,,,,,,,,,,,space,7.4007,4,0,4,0,1,,,,,,,,,,,,,,,,,,,,,,,,,,,,,,,,,,,,,,,,,,,,,,,,
,5ce7bd64a6f1d500164b6da6,001,2022-04-29_03h09.10.180,classification_task,2021.2.3,Win32,59.94125757,5ce7bd64a6f1d500164b6da6,626b377229c10585ec392f89,626b3a95674052d874d36967,,,,,,,,,,,,,,,,,,,,,space,9.3602,l,1,7.0213,"[""0.085"",""0.378"",""0.333"",""0.771""]","[1,1,0,1]",0,0,0,0,1,1,0,,,1,FALSE,,,,,,,,,,,,,,,,,,,,,,,,,,,,,,
,5ce7bd64a6f1d500164b6da6,001,2022-04-29_03h09.10.180,classification_task,2021.2.3,Win32,59.94125757,5ce7bd64a6f1d500164b6da6,626b377229c10585ec392f89,626b3a95674052d874d36967,,,,,,,,,,,,,,,,,,,,,,,l,1,5.7338,"[""0.029"",""0.281"",""0.503"",""0.327""]","[1,1,1,0]",0,1,1,1,1,1,1,,,1,FALSE,,,,,,,,,,,,,,,,,,,,,,,,,,,,,,
,5ce7bd64a6f1d500164b6da6,001,2022-04-29_03h09.10.180,classification_task,2021.2.3,Win32,59.94125757,5ce7bd64a6f1d500164b6da6,626b377229c10585ec392f89,626b3a95674052d874d36967,,,,,,,,,,,,,,,,,,,,,,,l,1,2.0369,"[""0.029"",""0.340"",""0.503"",""0.832""]","[1,0,1,1]",0,2,2,2,1,1,1,,,1,FALSE,,,,,,,,,,,,,,,,,,,,,,,,,,,,,,
,5ce7bd64a6f1d500164b6da6,001,2022-04-29_03h09.10.180,classification_task,2021.2.3,Win32,59.94125757,5ce7bd64a6f1d500164b6da6,626b377229c10585ec392f89,626b3a95674052d874d36967,,,,,,,,,,,,,,,,,,,,,,,a,1,3.7995,"[""0.147"",""0.545"",""0.915"",""0.971""]","[0,1,1,1]",0,3,3,3,1,0,0,,,1,FALSE,,,,,,,,,,,,,,,,,,,,,,,,,,,,,,
,5ce7bd64a6f1d500164b6da6,001,2022-04-29_03h09.10.180,classification_task,2021.2.3,Win32,59.94125757,5ce7bd64a6f1d500164b6da6,626b377229c10585ec392f89,626b3a95674052d874d36967,,,,,,,,,,,,,,,,,,,,,,,l,1,2.5871,"[""0.085"",""0.333"",""0.593"",""0.771""]","[1,0,1,1]",0,4,4,4,1,1,0,,,1,FALSE,,,,,,,,,,,,,,,,,,,,,,,,,,,,,,
,5ce7bd64a6f1d500164b6da6,001,2022-04-29_03h09.10.180,classification_task,2021.2.3,Win32,59.94125757,5ce7bd64a6f1d500164b6da6,626b377229c10585ec392f89,626b3a95674052d874d36967,,,,,,,,,,,,,,,,,,,,,,,l,0,2.0341,"[""0.648"",""0.440"",""0.700"",""0.875""]","[0,1,1,1]",0,5,5,5,1,0,1,,,1,FALSE,,,,,,,,,,,,,,,,,,,,,,,,,,,,,,
,5ce7bd64a6f1d500164b6da6,001,2022-04-29_03h09.10.180,classification_task,2021.2.3,Win32,59.94125757,5ce7bd64a6f1d500164b6da6,626b377229c10585ec392f89,626b3a95674052d874d36967,,,,,,,,,,,,,,,,,,,,,,,,0,,"[""0.327"",""0.281"",""0.503"",""0.832""]","[0,1,1,1]",0,6,6,6,1,1,1,,,1,FALSE,,,,,,,,,,,,,,,,,,,,,,,,,,,,,,
,5ce7bd64a6f1d500164b6da6,001,2022-04-29_03h09.10.180,classification_task,2021.2.3,Win32,59.94125757,5ce7bd64a6f1d500164b6da6,626b377229c10585ec392f89,626b3a95674052d874d36967,,,,,,,,,,,,,,,,,,,,,,,a,1,2.3692,"[""0.222"",""0.545"",""0.633"",""0.971""]","[1,1,0,1]",0,7,7,7,1,0,0,,,1,FALSE,,,,,,,,,,,,,,,,,,,,,,,,,,,,,,
,5ce7bd64a6f1d500164b6da6,001,2022-04-29_03h09.10.180,classification_task,2021.2.3,Win32,59.94125757,5ce7bd64a6f1d500164b6da6,626b377229c10585ec392f89,626b3a95674052d874d36967,,,,,,,,,,,,,,,,,,,,,,,l,1,4.9037,"[""0.029"",""0.281"",""0.340"",""0.832""]","[1,1,0,1]",0,8,8,8,1,1,1,,,1,FALSE,,,,,,,,,,,,,,,,,,,,,,,,,,,,,,
,5ce7bd64a6f1d500164b6da6,001,2022-04-29_03h09.10.180,classification_task,2021.2.3,Win32,59.94125757,5ce7bd64a6f1d500164b6da6,626b377229c10585ec392f89,626b3a95674052d874d36967,,,,,,,,,,,,,,,,,,,,,,,a,1,3.6607,"[""0.184"",""0.440"",""0.700"",""0.327""]","[1,1,1,0]",0,9,9,9,1,0,1,,,1,FALSE,,,,,,,,,,,,,,,,,,,,,,,,,,,,,,
,5ce7bd64a6f1d500164b6da6,001,2022-04-29_03h09.10.180,classification_task,2021.2.3,Win32,59.94125757,5ce7bd64a6f1d500164b6da6,626b377229c10585ec392f89,626b3a95674052d874d36967,,,,,,,,,,,,,,,,,,,,,,,a,0,4.7098,"[""0.085"",""0.378"",""0.593"",""0.648""]","[1,1,1,0]",0,10,10,10,1,1,0,,,1,FALSE,,,,,,,,,,,,,,,,,,,,,,,,,,,,,,
,5ce7bd64a6f1d500164b6da6,001,2022-04-29_03h09.10.180,classification_task,2021.2.3,Win32,59.94125757,5ce7bd64a6f1d500164b6da6,626b377229c10585ec392f89,626b3a95674052d874d36967,,,,,,,,,,,,,,,,,,,,,,,a,0,6.6134,"[""0.639"",""0.378"",""0.593"",""0.771""]","[0,1,1,1]",0,11,11,11,1,1,0,,,1,FALSE,,,,,,,,,,,,,,,,,,,,,,,,,,,,,,
,5ce7bd64a6f1d500164b6da6,001,2022-04-29_03h09.10.180,classification_task,2021.2.3,Win32,59.94125757,5ce7bd64a6f1d500164b6da6,626b377229c10585ec392f89,626b3a95674052d874d36967,,,,,,,,,,,,,,,,,,,,,,,a,1,3.0227,"[""0.184"",""0.440"",""0.639"",""0.875""]","[1,1,0,1]",0,12,12,12,1,0,1,,,1,FALSE,,,,,,,,,,,,,,,,,,,,,,,,,,,,,,
,5ce7bd64a6f1d500164b6da6,001,2022-04-29_03h09.10.180,classification_task,2021.2.3,Win32,59.94125757,5ce7bd64a6f1d500164b6da6,626b377229c10585ec392f89,626b3a95674052d874d36967,,,,,,,,,,,,,,,,,,,,,,,a,1,4.0985,"[""0.184"",""0.139"",""0.700"",""0.875""]","[1,0,1,1]",0,13,13,13,1,0,1,,,1,FALSE,,,,,,,,,,,,,,,,,,,,,,,,,,,,,,
,5ce7bd64a6f1d500164b6da6,001,2022-04-29_03h09.10.180,classification_task,2021.2.3,Win32,59.94125757,5ce7bd64a6f1d500164b6da6,626b377229c10585ec392f89,626b3a95674052d874d36967,,,,,,,,,,,,,,,,,,,,,,,a,1,1.3122,"[""0.222"",""0.327"",""0.915"",""0.971""]","[1,0,1,1]",0,14,14,14,1,0,0,,,1,FALSE,,,,,,,,,,,,,,,,,,,,,,,,,,,,,,
,5ce7bd64a6f1d500164b6da6,001,2022-04-29_03h09.10.180,classification_task,2021.2.3,Win32,59.94125757,5ce7bd64a6f1d500164b6da6,626b377229c10585ec392f89,626b3a95674052d874d36967,,,,,,,,,,,,,,,,,,,,,,,a,1,1.3104,"[""0.222"",""0.545"",""0.915"",""0.328""]","[1,1,1,0]",0,15,15,15,1,0,0,,,1,FALSE,,,,,,,,,,,,,,,,,,,,,,,,,,,,,,
,5ce7bd64a6f1d500164b6da6,001,2022-04-29_03h09.10.180,classification_task,2021.2.3,Win32,59.94125757,5ce7bd64a6f1d500164b6da6,626b377229c10585ec392f89,626b3a95674052d874d36967,,,,,,,,,,,,,,,,,,,,,,,a,1,1.3058,"[""0.222"",""0.545"",""0.333"",""0.971""]","[1,1,0,1]",0,16,16,16,1,0,0,,,1,FALSE,,,,,,,,,,,,,,,,,,,,,,,,,,,,,,
,5ce7bd64a6f1d500164b6da6,001,2022-04-29_03h09.10.180,classification_task,2021.2.3,Win32,59.94125757,5ce7bd64a6f1d500164b6da6,626b377229c10585ec392f89,626b3a95674052d874d36967,,,,,,,,,,,,,,,,,,,,,,,a,1,1.2682,"[""0.222"",""0.545"",""0.915"",""0.633""]","[1,1,1,0]",0,17,17,17,1,0,0,,,1,FALSE,,,,,,,,,,,,,,,,,,,,,,,,,,,,,,
,5ce7bd64a6f1d500164b6da6,001,2022-04-29_03h09.10.180,classification_task,2021.2.3,Win32,59.94125757,5ce7bd64a6f1d500164b6da6,626b377229c10585ec392f89,626b3a95674052d874d36967,,,,,,,,,,,,,,,,,,,,,,,l,1,4.4171,"[""0.325"",""0.378"",""0.593"",""0.771""]","[0,1,1,1]",0,18,18,18,1,1,0,,,1,FALSE,,,,,,,,,,,,,,,,,,,,,,,,,,,,,,
,5ce7bd64a6f1d500164b6da6,001,2022-04-29_03h09.10.180,classification_task,2021.2.3,Win32,59.94125757,5ce7bd64a6f1d500164b6da6,626b377229c10585ec392f89,626b3a95674052d874d36967,,,,,,,,,,,,,,,,,,,,,,,l,1,3.1924,"[""0.029"",""0.333"",""0.503"",""0.832""]","[1,0,1,1]",0,19,19,19,1,1,1,,,1,FALSE,,,,,,,,,,,,,,,,,,,,,,,,,,,,,,
,5ce7bd64a6f1d500164b6da6,001,2022-04-29_03h09.10.180,classification_task,2021.2.3,Win32,59.94125757,5ce7bd64a6f1d500164b6da6,626b377229c10585ec392f89,626b3a95674052d874d36967,,,,,,,,,,,,,,,,,,,,,,,a,1,1.4538,"[""0.222"",""0.333"",""0.915"",""0.971""]","[1,0,1,1]",0,20,20,20,1,0,0,,,1,FALSE,,,,,,,,,,,,,,,,,,,,,,,,,,,,,,
,5ce7bd64a6f1d500164b6da6,001,2022-04-29_03h09.10.180,classification_task,2021.2.3,Win32,59.94125757,5ce7bd64a6f1d500164b6da6,626b377229c10585ec392f89,626b3a95674052d874d36967,,,,,,,,,,,,,,,,,,,,,,,l,1,3.8974,"[""0.029"",""0.281"",""0.139"",""0.832""]","[1,1,0,1]",0,21,21,21,1,1,1,,,1,FALSE,,,,,,,,,,,,,,,,,,,,,,,,,,,,,,
,5ce7bd64a6f1d500164b6da6,001,2022-04-29_03h09.10.180,classification_task,2021.2.3,Win32,59.94125757,5ce7bd64a6f1d500164b6da6,626b377229c10585ec392f89,626b3a95674052d874d36967,,,,,,,,,,,,,,,,,,,,,,,a,1,4.7077,"[""0.184"",""0.325"",""0.700"",""0.875""]","[1,0,1,1]",0,22,22,22,1,0,1,,,1,FALSE,,,,,,,,,,,,,,,,,,,,,,,,,,,,,,
,5ce7bd64a6f1d500164b6da6,001,2022-04-29_03h09.10.180,classification_task,2021.2.3,Win32,59.94125757,5ce7bd64a6f1d500164b6da6,626b377229c10585ec392f89,626b3a95674052d874d36967,,,,,,,,,,,,,,,,,,,,,,,a,1,9.7575,"[""0.147"",""0.440"",""0.700"",""0.875""]","[0,1,1,1]",0,23,23,23,1,0,1,,,1,FALSE,,,,,,,,,,,,,,,,,,,,,,,,,,,,,,
,5ce7bd64a6f1d500164b6da6,001,2022-04-29_03h09.10.180,classification_task,2021.2.3,Win32,59.94125757,5ce7bd64a6f1d500164b6da6,626b377229c10585ec392f89,626b3a95674052d874d36967,,,,,,,,,,,,,,,,,,,,,,,l,1,5.1599,"[""0.085"",""0.378"",""0.634"",""0.771""]","[1,1,0,1]",0,24,24,24,1,1,0,,,1,FALSE,,,,,,,,,,,,,,,,,,,,,,,,,,,,,,
,5ce7bd64a6f1d500164b6da6,001,2022-04-29_03h09.10.180,classification_task,2021.2.3,Win32,59.94125757,5ce7bd64a6f1d500164b6da6,626b377229c10585ec392f89,626b3a95674052d874d36967,,,,,,,,,,,,,,,,,,,,,,,l,1,5.6366,"[""0.085"",""0.328"",""0.593"",""0.771""]","[1,0,1,1]",0,25,25,25,1,1,0,,,1,FALSE,,,,,,,,,,,,,,,,,,,,,,,,,,,,,,
,5ce7bd64a6f1d500164b6da6,001,2022-04-29_03h09.10.180,classification_task,2021.2.3,Win32,59.94125757,5ce7bd64a6f1d500164b6da6,626b377229c10585ec392f89,626b3a95674052d874d36967,,,,,,,,,,,,,,,,,,,,,,,a,1,4.1073,"[""0.657"",""0.545"",""0.915"",""0.971""]","[0,1,1,1]",0,26,26,26,1,0,0,,,1,FALSE,,,,,,,,,,,,,,,,,,,,,,,,,,,,,,
,5ce7bd64a6f1d500164b6da6,001,2022-04-29_03h09.10.180,classification_task,2021.2.3,Win32,59.94125757,5ce7bd64a6f1d500164b6da6,626b377229c10585ec392f89,626b3a95674052d874d36967,,,,,,,,,,,,,,,,,,,,,,,l,1,2.7151,"[""0.085"",""0.378"",""0.593"",""0.139""]","[1,1,1,0]",0,27,27,27,1,1,0,,,1,FALSE,,,,,,,,,,,,,,,,,,,,,,,,,,,,,,
,5ce7bd64a6f1d500164b6da6,001,2022-04-29_03h09.10.180,classification_task,2021.2.3,Win32,59.94125757,5ce7bd64a6f1d500164b6da6,626b377229c10585ec392f89,626b3a95674052d874d36967,,,,,,,,,,,,,,,,,,,,,,,a,1,3.4247,"[""0.184"",""0.440"",""0.141"",""0.875""]","[1,1,0,1]",0,28,28,28,1,0,1,,,1,FALSE,,,,,,,,,,,,,,,,,,,,,,,,,,,,,,
,5ce7bd64a6f1d500164b6da6,001,2022-04-29_03h09.10.180,classification_task,2021.2.3,Win32,59.94125757,5ce7bd64a6f1d500164b6da6,626b377229c10585ec392f89,626b3a95674052d874d36967,,,,,,,,,,,,,,,,,,,,,,,l,1,4.5932,"[""0.327"",""0.281"",""0.503"",""0.832""]","[0,1,1,1]",0,29,29,29,1,1,1,,,1,FALSE,,,,,,,,,,,,,,,,,,,,,,,,,,,,,,
,5ce7bd64a6f1d500164b6da6,001,2022-04-29_03h09.10.180,classification_task,2021.2.3,Win32,59.94125757,5ce7bd64a6f1d500164b6da6,626b377229c10585ec392f89,626b3a95674052d874d36967,,,,,,,,,,,,,,,,,,,,,,,a,1,2.9588,"[""0.184"",""0.440"",""0.700"",""0.333""]","[1,1,1,0]",0,30,30,30,1,0,1,,,1,FALSE,,,,,,,,,,,,,,,,,,,,,,,,,,,,,,
,5ce7bd64a6f1d500164b6da6,001,2022-04-29_03h09.10.180,classification_task,2021.2.3,Win32,59.94125757,5ce7bd64a6f1d500164b6da6,626b377229c10585ec392f89,626b3a95674052d874d36967,,,,,,,,,,,,,,,,,,,,,,,a,0,4.6168,"[""0.029"",""0.281"",""0.503"",""0.147""]","[1,1,1,0]",0,31,31,31,1,1,1,,,1,FALSE,,,,,,,,,,,,,,,,,,,,,,,,,,,,,,
,5ce7bd64a6f1d500164b6da6,001,2022-04-29_03h09.10.180,classification_task,2021.2.3,Win32,59.94125757,5ce7bd64a6f1d500164b6da6,626b377229c10585ec392f89,626b3a95674052d874d36967,,,,,,,,,,,,,,,,,,,,,,,l,1,5.3601,"[""0.085"",""0.325"",""0.593"",""0.771""]","[1,0,1,1]",0,32,32,32,1,1,0,,,1,FALSE,,,,,,,,,,,,,,,,,,,,,,,,,,,,,,
,5ce7bd64a6f1d500164b6da6,001,2022-04-29_03h09.10.180,classification_task,2021.2.3,Win32,59.94125757,5ce7bd64a6f1d500164b6da6,626b377229c10585ec392f89,626b3a95674052d874d36967,,,,,,,,,,,,,,,,,,,,,,,a,1,1.2338,"[""0.222"",""0.545"",""0.648"",""0.971""]","[1,1,0,1]",0,33,33,33,1,0,0,,,1,FALSE,,,,,,,,,,,,,,,,,,,,,,,,,,,,,,
,5ce7bd64a6f1d500164b6da6,001,2022-04-29_03h09.10.180,classification_task,2021.2.3,Win32,59.94125757,5ce7bd64a6f1d500164b6da6,626b377229c10585ec392f89,626b3a95674052d874d36967,,,,,,,,,,,,,,,,,,,,,,,l,1,2.7999,"[""0.029"",""0.281"",""0.503"",""0.633""]","[1,1,1,0]",0,34,34,34,1,1,1,,,1,FALSE,,,,,,,,,,,,,,,,,,,,,,,,,,,,,,
,5ce7bd64a6f1d500164b6da6,001,2022-04-29_03h09.10.180,classification_task,2021.2.3,Win32,59.94125757,5ce7bd64a6f1d500164b6da6,626b377229c10585ec392f89,626b3a95674052d874d36967,,,,,,,,,,,,,,,,,,,,,,,a,1,0.9579,"[""0.184"",""0.440"",""0.700"",""0.141""]","[1,1,1,0]",0,35,35,35,1,0,1,,,1,FALSE,,,,,,,,,,,,,,,,,,,,,,,,,,,,,,
,5ce7bd64a6f1d500164b6da6,001,2022-04-29_03h09.10.180,classification_task,2021.2.3,Win32,59.94125757,5ce7bd64a6f1d500164b6da6,626b377229c10585ec392f89,626b3a95674052d874d36967,,,,,,,,,,,,,,,,,,,,,,,l,1,2.8999,"[""0.085"",""0.378"",""0.333"",""0.771""]","[1,1,0,1]",0,36,36,36,1,1,0,,,1,FALSE,,,,,,,,,,,,,,,,,,,,,,,,,,,,,,
,5ce7bd64a6f1d500164b6da6,001,2022-04-29_03h09.10.180,classification_task,2021.2.3,Win32,59.94125757,5ce7bd64a6f1d500164b6da6,626b377229c10585ec392f89,626b3a95674052d874d36967,,,,,,,,,,,,,,,,,,,,,,,l,1,3.1127,"[""0.634"",""0.378"",""0.593"",""0.771""]","[0,1,1,1]",0,37,37,37,1,1,0,,,1,FALSE,,,,,,,,,,,,,,,,,,,,,,,,,,,,,,
,5ce7bd64a6f1d500164b6da6,001,2022-04-29_03h09.10.180,classification_task,2021.2.3,Win32,59.94125757,5ce7bd64a6f1d500164b6da6,626b377229c10585ec392f89,626b3a95674052d874d36967,,,,,,,,,,,,,,,,,,,,,,,l,1,5.3005,"[""0.085"",""0.378"",""0.593"",""0.328""]","[1,1,1,0]",0,38,38,38,1,1,0,,,1,FALSE,,,,,,,,,,,,,,,,,,,,,,,,,,,,,,
,5ce7bd64a6f1d500164b6da6,001,2022-04-29_03h09.10.180,classification_task,2021.2.3,Win32,59.94125757,5ce7bd64a6f1d500164b6da6,626b377229c10585ec392f89,626b3a95674052d874d36967,,,,,,,,,,,,,,,,,,,,,,,a,1,1.321,"[""0.184"",""0.149"",""0.700"",""0.875""]","[1,0,1,1]",0,39,39,39,1,0,1,,,1,FALSE,,,,,,,,,,,,,,,,,,,,,,,,,,,,,,
,5ce7bd64a6f1d500164b6da6,001,2022-04-29_03h09.10.180,classification_task,2021.2.3,Win32,59.94125757,5ce7bd64a6f1d500164b6da6,626b377229c10585ec392f89,626b3a95674052d874d36967,,,,,,,,,,,,,,,,,,,,,,,a,1,3.8218,"[""0.184"",""0.440"",""0.633"",""0.875""]","[1,1,0,1]",0,40,40,40,1,0,1,,,1,FALSE,,,,,,,,,,,,,,,,,,,,,,,,,,,,,,
,5ce7bd64a6f1d500164b6da6,001,2022-04-29_03h09.10.180,classification_task,2021.2.3,Win32,59.94125757,5ce7bd64a6f1d500164b6da6,626b377229c10585ec392f89,626b3a95674052d874d36967,,,,,,,,,,,,,,,,,,,,,,,l,1,1.355,"[""0.029"",""0.139"",""0.503"",""0.832""]","[1,0,1,1]",0,41,41,41,1,1,1,,,1,FALSE,,,,,,,,,,,,,,,,,,,,,,,,,,,,,,
,5ce7bd64a6f1d500164b6da6,001,2022-04-29_03h09.10.180,classification_task,2021.2.3,Win32,59.94125757,5ce7bd64a6f1d500164b6da6,626b377229c10585ec392f89,626b3a95674052d874d36967,,,,,,,,,,,,,,,,,,,,,,,l,1,2.4542,"[""0.141"",""0.281"",""0.503"",""0.832""]","[0,1,1,1]",0,42,42,42,1,1,1,,,1,FALSE,,,,,,,,,,,,,,,,,,,,,,,,,,,,,,
,5ce7bd64a6f1d500164b6da6,001,2022-04-29_03h09.10.180,classification_task,2021.2.3,Win32,59.94125757,5ce7bd64a6f1d500164b6da6,626b377229c10585ec392f89,626b3a95674052d874d36967,,,,,,,,,,,,,,,,,,,,,,,l,1,2.0547,"[""0.029"",""0.281"",""0.327"",""0.832""]","[1,1,0,1]",0,43,43,43,1,1,1,,,1,FALSE,,,,,,,,,,,,,,,,,,,,,,,,,,,,,,
,5ce7bd64a6f1d500164b6da6,001,2022-04-29_03h09.10.180,classification_task,2021.2.3,Win32,59.94125757,5ce7bd64a6f1d500164b6da6,626b377229c10585ec392f89,626b3a95674052d874d36967,,,,,,,,,,,,,,,,,,,,,,,a,1,1.0666,"[""0.222"",""0.148"",""0.915"",""0.971""]","[1,0,1,1]",0,44,44,44,1,0,0,,,1,FALSE,,,,,,,,,,,,,,,,,,,,,,,,,,,,,,
,5ce7bd64a6f1d500164b6da6,001,2022-04-29_03h09.10.180,classification_task,2021.2.3,Win32,59.94125757,5ce7bd64a6f1d500164b6da6,626b377229c10585ec392f89,626b3a95674052d874d36967,,,,,,,,,,,,,,,,,,,,,,,a,1,0.8465,"[""0.222"",""0.545"",""0.915"",""0.327""]","[1,1,1,0]",0,45,45,45,1,0,0,,,1,FALSE,,,,,,,,,,,,,,,,,,,,,,,,,,,,,,
,5ce7bd64a6f1d500164b6da6,001,2022-04-29_03h09.10.180,classification_task,2021.2.3,Win32,59.94125757,5ce7bd64a6f1d500164b6da6,626b377229c10585ec392f89,626b3a95674052d874d36967,,,,,,,,,,,,,,,,,,,,,,,l,0,4.0348,"[""0.633"",""0.440"",""0.700"",""0.875""]","[0,1,1,1]",0,46,46,46,1,0,1,,,1,FALSE,,,,,,,,,,,,,,,,,,,,,,,,,,,,,,
,5ce7bd64a6f1d500164b6da6,001,2022-04-29_03h09.10.180,classification_task,2021.2.3,Win32,59.94125757,5ce7bd64a6f1d500164b6da6,626b377229c10585ec392f89,626b3a95674052d874d36967,,,,,,,,,,,,,,,,,,,,,,,a,1,3.5766,"[""0.148"",""0.545"",""0.915"",""0.971""]","[0,1,1,1]",0,47,47,47,1,0,0,,,1,FALSE,,,,,,,,,,,,,,,,,,,,,,,,,,,,,,
,5ce7bd64a6f1d500164b6da6,001,2022-04-29_03h09.10.180,classification_task,2021.2.3,Win32,59.94125757,5ce7bd64a6f1d500164b6da6,626b377229c10585ec392f89,626b3a95674052d874d36967,,,,,,,,,,,,,,,,,,,,,,,l,1,5.1549,"[""0.029"",""0.281"",""0.639"",""0.832""]","[1,1,0,1]",0,48,48,48,1,1,1,,,1,FALSE,,,,,,,,,,,,,,,,,,,,,,,,,,,,,,
,5ce7bd64a6f1d500164b6da6,001,2022-04-29_03h09.10.180,classification_task,2021.2.3,Win32,59.94125757,5ce7bd64a6f1d500164b6da6,626b377229c10585ec392f89,626b3a95674052d874d36967,,,,,,,,,,,,,,,,,,,,,,,a,1,3.2671,"[""0.333"",""0.545"",""0.915"",""0.971""]","[0,1,1,1]",0,49,49,49,1,0,0,,,1,FALSE,,,,,,,,,,,,,,,,,,,,,,,,,,,,,,
,5ce7bd64a6f1d500164b6da6,001,2022-04-29_03h09.10.180,classification_task,2021.2.3,Win32,59.94125757,5ce7bd64a6f1d500164b6da6,626b377229c10585ec392f89,626b3a95674052d874d36967,,,,,,,,,,,,,,,,,,,,,,,a,1,0.9,"[""0.222"",""0.657"",""0.915"",""0.971""]","[1,0,1,1]",0,50,50,50,1,0,0,,,1,FALSE,,,,,,,,,,,,,,,,,,,,,,,,,,,,,,
,5ce7bd64a6f1d500164b6da6,001,2022-04-29_03h09.10.180,classification_task,2021.2.3,Win32,59.94125757,5ce7bd64a6f1d500164b6da6,626b377229c10585ec392f89,626b3a95674052d874d36967,,,,,,,,,,,,,,,,,,,,,,,l,1,3.5337,"[""0.657"",""0.281"",""0.503"",""0.832""]","[0,1,1,1]",0,51,51,51,1,1,1,,,1,FALSE,,,,,,,,,,,,,,,,,,,,,,,,,,,,,,
,5ce7bd64a6f1d500164b6da6,001,2022-04-29_03h09.10.180,classification_task,2021.2.3,Win32,59.94125757,5ce7bd64a6f1d500164b6da6,626b377229c10585ec392f89,626b3a95674052d874d36967,,,,,,,,,,,,,,,,,,,,,,,a,1,1.2449,"[""0.222"",""0.545"",""0.915"",""0.147""]","[1,1,1,0]",0,52,52,52,1,0,0,,,1,FALSE,,,,,,,,,,,,,,,,,,,,,,,,,,,,,,
,5ce7bd64a6f1d500164b6da6,001,2022-04-29_03h09.10.180,classification_task,2021.2.3,Win32,59.94125757,5ce7bd64a6f1d500164b6da6,626b377229c10585ec392f89,626b3a95674052d874d36967,,,,,,,,,,,,,,,,,,,,,,,l,1,2.566,"[""0.029"",""0.634"",""0.503"",""0.832""]","[1,0,1,1]",0,53,53,53,1,1,1,,,1,FALSE,,,,,,,,,,,,,,,,,,,,,,,,,,,,,,
,5ce7bd64a6f1d500164b6da6,001,2022-04-29_03h09.10.180,classification_task,2021.2.3,Win32,59.94125757,5ce7bd64a6f1d500164b6da6,626b377229c10585ec392f89,626b3a95674052d874d36967,,,,,,,,,,,,,,,,,,,,,,,a,1,1.7881,"[""0.184"",""0.440"",""0.340"",""0.875""]","[1,1,0,1]",0,54,54,54,1,0,1,,,1,FALSE,,,,,,,,,,,,,,,,,,,,,,,,,,,,,,
,5ce7bd64a6f1d500164b6da6,001,2022-04-29_03h09.10.180,classification_task,2021.2.3,Win32,59.94125757,5ce7bd64a6f1d500164b6da6,626b377229c10585ec392f89,626b3a95674052d874d36967,,,,,,,,,,,,,,,,,,,,,,,l,0,2.8318,"[""0.141"",""0.440"",""0.700"",""0.875""]","[0,1,1,1]",0,55,55,55,1,0,1,,,1,FALSE,,,,,,,,,,,,,,,,,,,,,,,,,,,,,,
,5ce7bd64a6f1d500164b6da6,001,2022-04-29_03h09.10.180,classification_task,2021.2.3,Win32,59.94125757,5ce7bd64a6f1d500164b6da6,626b377229c10585ec392f89,626b3a95674052d874d36967,,,,,,,,,,,,,,,,,,,,,,,a,1,1.4331,"[""0.184"",""0.440"",""0.700"",""0.141""]","[1,1,1,0]",0,56,56,56,1,0,1,,,1,FALSE,,,,,,,,,,,,,,,,,,,,,,,,,,,,,,
,5ce7bd64a6f1d500164b6da6,001,2022-04-29_03h09.10.180,classification_task,2021.2.3,Win32,59.94125757,5ce7bd64a6f1d500164b6da6,626b377229c10585ec392f89,626b3a95674052d874d36967,,,,,,,,,,,,,,,,,,,,,,,l,1,1.5296,"[""0.085"",""0.378"",""0.593"",""0.149""]","[1,1,1,0]",0,57,57,57,1,1,0,,,1,FALSE,,,,,,,,,,,,,,,,,,,,,,,,,,,,,,
,5ce7bd64a6f1d500164b6da6,001,2022-04-29_03h09.10.180,classification_task,2021.2.3,Win32,59.94125757,5ce7bd64a6f1d500164b6da6,626b377229c10585ec392f89,626b3a95674052d874d36967,,,,,,,,,,,,,,,,,,,,,,,l,1,2.0226,"[""0.325"",""0.378"",""0.593"",""0.771""]","[0,1,1,1]",0,58,58,58,1,1,0,,,1,FALSE,,,,,,,,,,,,,,,,,,,,,,,,,,,,,,
,5ce7bd64a6f1d500164b6da6,001,2022-04-29_03h09.10.180,classification_task,2021.2.3,Win32,59.94125757,5ce7bd64a6f1d500164b6da6,626b377229c10585ec392f89,626b3a95674052d874d36967,,,,,,,,,,,,,,,,,,,,,,,l,1,2.3338,"[""0.085"",""0.141"",""0.593"",""0.771""]","[1,0,1,1]",0,59,59,59,1,1,0,,,1,FALSE,,,,,,,,,,,,,,,,,,,,,,,,,,,,,,
,5ce7bd64a6f1d500164b6da6,001,2022-04-29_03h09.10.180,classification_task,2021.2.3,Win32,59.94125757,5ce7bd64a6f1d500164b6da6,626b377229c10585ec392f89,626b3a95674052d874d36967,,,,,,,,,,,,,,,,,,,,,,,a,1,1.0852,"[""0.184"",""0.148"",""0.700"",""0.875""]","[1,0,1,1]",0,60,60,60,1,0,1,,,1,FALSE,,,,,,,,,,,,,,,,,,,,,,,,,,,,,,
,5ce7bd64a6f1d500164b6da6,001,2022-04-29_03h09.10.180,classification_task,2021.2.3,Win32,59.94125757,5ce7bd64a6f1d500164b6da6,626b377229c10585ec392f89,626b3a95674052d874d36967,,,,,,,,,,,,,,,,,,,,,,,a,1,0.9831,"[""0.222"",""0.545"",""0.325"",""0.971""]","[1,1,0,1]",0,61,61,61,1,0,0,,,1,FALSE,,,,,,,,,,,,,,,,,,,,,,,,,,,,,,
,5ce7bd64a6f1d500164b6da6,001,2022-04-29_03h09.10.180,classification_task,2021.2.3,Win32,59.94125757,5ce7bd64a6f1d500164b6da6,626b377229c10585ec392f89,626b3a95674052d874d36967,,,,,,,,,,,,,,,,,,,,,,,l,1,1.5428,"[""0.085"",""0.378"",""0.139"",""0.771""]","[1,1,0,1]",0,62,62,62,1,1,0,,,1,FALSE,,,,,,,,,,,,,,,,,,,,,,,,,,,,,,
,5ce7bd64a6f1d500164b6da6,001,2022-04-29_03h09.10.180,classification_task,2021.2.3,Win32,59.94125757,5ce7bd64a6f1d500164b6da6,626b377229c10585ec392f89,626b3a95674052d874d36967,,,,,,,,,,,,,,,,,,,,,,,l,1,3.035,"[""0.029"",""0.281"",""0.503"",""0.325""]","[1,1,1,0]",0,63,63,63,1,1,1,,,1,FALSE,,,,,,,,,,,,,,,,,,,,,,,,,,,,,,
,5ce7bd64a6f1d500164b6da6,001,2022-04-29_03h09.10.180,classification_task,2021.2.3,Win32,59.94125757,5ce7bd64a6f1d500164b6da6,626b377229c10585ec392f89,626b3a95674052d874d36967,,,,,,,,,,,,,,,,,,,,,,,,,,,,,,,,,,,,,,,0, ,,0,5.9553204,456.3648,0,0,0,0,1,2,1,,,,,,,,,,,,,,,,,
,5ce7bd64a6f1d500164b6da6,001,2022-04-29_03h09.10.180,classification_task,2021.2.3,Win32,59.94125757,5ce7bd64a6f1d500164b6da6,626b377229c10585ec392f89,626b3a95674052d874d36967,,,,,,,,,,,,,,,,,,,,,,,,,,,,,,,,,,,,,,,1,  ,,0,1.497158534,442.2331,0,0,0,0,1,2,1,,,,,,,,,,,,,,,,,
,5ce7bd64a6f1d500164b6da6,001,2022-04-29_03h09.10.180,classification_task,2021.2.3,Win32,59.94125757,5ce7bd64a6f1d500164b6da6,626b377229c10585ec392f89,626b3a95674052d874d36967,,,,,,,,,,,,,,,,,,,,,,,,,,,,,,,,,,,,,,,2,  ,,0,0.321379581,445.0722,0,0,0,0,1,2,1,,,,,,,,,,,,,,,,,
,5ce7bd64a6f1d500164b6da6,001,2022-04-29_03h09.10.180,classification_task,2021.2.3,Win32,59.94125757,5ce7bd64a6f1d500164b6da6,626b377229c10585ec392f89,626b3a95674052d874d36967,,,,,,,,,,,,,,,,,,,,,,,,,,,,,,,,,,,,,,,,,,,,,0,0,0,0,1,,1,,,,,,,,,,,,,,,,,
,5ce7bd64a6f1d500164b6da6,001,2022-04-29_03h09.10.180,classification_task,2021.2.3,Win32,59.94125757,5ce7bd64a6f1d500164b6da6,626b377229c10585ec392f89,626b3a95674052d874d36967,,,,,,,,,,,,,,,,,,,,,space,2.4671,a,1,1.5762,"[""0.222"",""0.545"",""0.141"",""0.971""]","[1,1,0,1]",0,0,0,0,1,0,0,,,1,FALSE,,,,,,,,,,,,,,,,,,,,,,,,,,,,,,
,5ce7bd64a6f1d500164b6da6,001,2022-04-29_03h09.10.180,classification_task,2021.2.3,Win32,59.94125757,5ce7bd64a6f1d500164b6da6,626b377229c10585ec392f89,626b3a95674052d874d36967,,,,,,,,,,,,,,,,,,,,,,,l,1,1.6327,"[""0.085"",""0.378"",""0.593"",""0.634""]","[1,1,1,0]",0,1,1,1,1,1,0,,,1,FALSE,,,,,,,,,,,,,,,,,,,,,,,,,,,,,,
,5ce7bd64a6f1d500164b6da6,001,2022-04-29_03h09.10.180,classification_task,2021.2.3,Win32,59.94125757,5ce7bd64a6f1d500164b6da6,626b377229c10585ec392f89,626b3a95674052d874d36967,,,,,,,,,,,,,,,,,,,,,,,l,1,2.1404,"[""0.085"",""0.325"",""0.593"",""0.771""]","[1,0,1,1]",0,2,2,2,1,1,0,,,1,FALSE,,,,,,,,,,,,,,,,,,,,,,,,,,,,,,
,5ce7bd64a6f1d500164b6da6,001,2022-04-29_03h09.10.180,classification_task,2021.2.3,Win32,59.94125757,5ce7bd64a6f1d500164b6da6,626b377229c10585ec392f89,626b3a95674052d874d36967,,,,,,,,,,,,,,,,,,,,,,,a,1,3.61,"[""0.139"",""0.440"",""0.700"",""0.875""]","[0,1,1,1]",0,3,3,3,1,0,1,,,1,FALSE,,,,,,,,,,,,,,,,,,,,,,,,,,,,,,
,5ce7bd64a6f1d500164b6da6,001,2022-04-29_03h09.10.180,classification_task,2021.2.3,Win32,59.94125757,5ce7bd64a6f1d500164b6da6,626b377229c10585ec392f89,626b3a95674052d874d36967,,,,,,,,,,,,,,,,,,,,,,,l,1,2.9857,"[""0.141"",""0.281"",""0.503"",""0.832""]","[0,1,1,1]",0,4,4,4,1,1,1,,,1,FALSE,,,,,,,,,,,,,,,,,,,,,,,,,,,,,,
,5ce7bd64a6f1d500164b6da6,001,2022-04-29_03h09.10.180,classification_task,2021.2.3,Win32,59.94125757,5ce7bd64a6f1d500164b6da6,626b377229c10585ec392f89,626b3a95674052d874d36967,,,,,,,,,,,,,,,,,,,,,,,a,1,0.6891,"[""0.222"",""0.545"",""0.915"",""0.149""]","[1,1,1,0]",0,5,5,5,1,0,0,,,1,FALSE,,,,,,,,,,,,,,,,,,,,,,,,,,,,,,
,5ce7bd64a6f1d500164b6da6,001,2022-04-29_03h09.10.180,classification_task,2021.2.3,Win32,59.94125757,5ce7bd64a6f1d500164b6da6,626b377229c10585ec392f89,626b3a95674052d874d36967,,,,,,,,,,,,,,,,,,,,,,,a,1,0.5193,"[""0.222"",""0.333"",""0.915"",""0.971""]","[1,0,1,1]",0,6,6,6,1,0,0,,,1,FALSE,,,,,,,,,,,,,,,,,,,,,,,,,,,,,,
,5ce7bd64a6f1d500164b6da6,001,2022-04-29_03h09.10.180,classification_task,2021.2.3,Win32,59.94125757,5ce7bd64a6f1d500164b6da6,626b377229c10585ec392f89,626b3a95674052d874d36967,,,,,,,,,,,,,,,,,,,,,,,l,1,2.6543,"[""0.029"",""0.281"",""0.147"",""0.832""]","[1,1,0,1]",0,7,7,7,1,1,1,,,1,FALSE,,,,,,,,,,,,,,,,,,,,,,,,,,,,,,
,5ce7bd64a6f1d500164b6da6,001,2022-04-29_03h09.10.180,classification_task,2021.2.3,Win32,59.94125757,5ce7bd64a6f1d500164b6da6,626b377229c10585ec392f89,626b3a95674052d874d36967,,,,,,,,,,,,,,,,,,,,,,,l,1,1.0956,"[""0.340"",""0.378"",""0.593"",""0.771""]","[0,1,1,1]",0,8,8,8,1,1,0,,,1,FALSE,,,,,,,,,,,,,,,,,,,,,,,,,,,,,,
,5ce7bd64a6f1d500164b6da6,001,2022-04-29_03h09.10.180,classification_task,2021.2.3,Win32,59.94125757,5ce7bd64a6f1d500164b6da6,626b377229c10585ec392f89,626b3a95674052d874d36967,,,,,,,,,,,,,,,,,,,,,,,l,1,1.7007,"[""0.029"",""0.333"",""0.503"",""0.832""]","[1,0,1,1]",0,9,9,9,1,1,1,,,1,FALSE,,,,,,,,,,,,,,,,,,,,,,,,,,,,,,
,5ce7bd64a6f1d500164b6da6,001,2022-04-29_03h09.10.180,classification_task,2021.2.3,Win32,59.94125757,5ce7bd64a6f1d500164b6da6,626b377229c10585ec392f89,626b3a95674052d874d36967,,,,,,,,,,,,,,,,,,,,,,,l,0,1.4686,"[""0.184"",""0.440"",""0.700"",""0.333""]","[1,1,1,0]",0,10,10,10,1,0,1,,,1,FALSE,,,,,,,,,,,,,,,,,,,,,,,,,,,,,,
,5ce7bd64a6f1d500164b6da6,001,2022-04-29_03h09.10.180,classification_task,2021.2.3,Win32,59.94125757,5ce7bd64a6f1d500164b6da6,626b377229c10585ec392f89,626b3a95674052d874d36967,,,,,,,,,,,,,,,,,,,,,,,l,1,2.1644,"[""0.029"",""0.281"",""0.503"",""0.648""]","[1,1,1,0]",0,11,11,11,1,1,1,,,1,FALSE,,,,,,,,,,,,,,,,,,,,,,,,,,,,,,
,5ce7bd64a6f1d500164b6da6,001,2022-04-29_03h09.10.180,classification_task,2021.2.3,Win32,59.94125757,5ce7bd64a6f1d500164b6da6,626b377229c10585ec392f89,626b3a95674052d874d36967,,,,,,,,,,,,,,,,,,,,,,,l,0,1.5748,"[""0.184"",""0.148"",""0.700"",""0.875""]","[1,0,1,1]",0,12,12,12,1,0,1,,,1,FALSE,,,,,,,,,,,,,,,,,,,,,,,,,,,,,,
,5ce7bd64a6f1d500164b6da6,001,2022-04-29_03h09.10.180,classification_task,2021.2.3,Win32,59.94125757,5ce7bd64a6f1d500164b6da6,626b377229c10585ec392f89,626b3a95674052d874d36967,,,,,,,,,,,,,,,,,,,,,,,l,0,1.3883,"[""0.340"",""0.545"",""0.915"",""0.971""]","[0,1,1,1]",0,13,13,13,1,0,0,,,1,FALSE,,,,,,,,,,,,,,,,,,,,,,,,,,,,,,
,5ce7bd64a6f1d500164b6da6,001,2022-04-29_03h09.10.180,classification_task,2021.2.3,Win32,59.94125757,5ce7bd64a6f1d500164b6da6,626b377229c10585ec392f89,626b3a95674052d874d36967,,,,,,,,,,,,,,,,,,,,,,,a,1,3.6547,"[""0.184"",""0.440"",""0.633"",""0.875""]","[1,1,0,1]",0,14,14,14,1,0,1,,,1,FALSE,,,,,,,,,,,,,,,,,,,,,,,,,,,,,,
,5ce7bd64a6f1d500164b6da6,001,2022-04-29_03h09.10.180,classification_task,2021.2.3,Win32,59.94125757,5ce7bd64a6f1d500164b6da6,626b377229c10585ec392f89,626b3a95674052d874d36967,,,,,,,,,,,,,,,,,,,,,,,l,1,1.8745,"[""0.085"",""0.378"",""0.657"",""0.771""]","[1,1,0,1]",0,15,15,15,1,1,0,,,1,FALSE,,,,,,,,,,,,,,,,,,,,,,,,,,,,,,
,5ce7bd64a6f1d500164b6da6,001,2022-04-29_03h09.10.180,classification_task,2021.2.3,Win32,59.94125757,5ce7bd64a6f1d500164b6da6,626b377229c10585ec392f89,626b3a95674052d874d36967,,,,,,,,,,,,,,,,,,,,,,,l,1,1.7552,"[""0.085"",""0.378"",""0.648"",""0.771""]","[1,1,0,1]",0,16,16,16,1,1,0,,,1,FALSE,,,,,,,,,,,,,,,,,,,,,,,,,,,,,,
,5ce7bd64a6f1d500164b6da6,001,2022-04-29_03h09.10.180,classification_task,2021.2.3,Win32,59.94125757,5ce7bd64a6f1d500164b6da6,626b377229c10585ec392f89,626b3a95674052d874d36967,,,,,,,,,,,,,,,,,,,,,,,a,1,1.1217,"[""0.222"",""0.545"",""0.915"",""0.634""]","[1,1,1,0]",0,17,17,17,1,0,0,,,1,FALSE,,,,,,,,,,,,,,,,,,,,,,,,,,,,,,
,5ce7bd64a6f1d500164b6da6,001,2022-04-29_03h09.10.180,classification_task,2021.2.3,Win32,59.94125757,5ce7bd64a6f1d500164b6da6,626b377229c10585ec392f89,626b3a95674052d874d36967,,,,,,,,,,,,,,,,,,,,,,,l,1,1.5874,"[""0.085"",""0.378"",""0.593"",""0.633""]","[1,1,1,0]",0,18,18,18,1,1,0,,,1,FALSE,,,,,,,,,,,,,,,,,,,,,,,,,,,,,,
,5ce7bd64a6f1d500164b6da6,001,2022-04-29_03h09.10.180,classification_task,2021.2.3,Win32,59.94125757,5ce7bd64a6f1d500164b6da6,626b377229c10585ec392f89,626b3a95674052d874d36967,,,,,,,,,,,,,,,,,,,,,,,a,1,1.2209,"[""0.184"",""0.440"",""0.657"",""0.875""]","[1,1,0,1]",0,19,19,19,1,0,1,,,1,FALSE,,,,,,,,,,,,,,,,,,,,,,,,,,,,,,
,5ce7bd64a6f1d500164b6da6,001,2022-04-29_03h09.10.180,classification_task,2021.2.3,Win32,59.94125757,5ce7bd64a6f1d500164b6da6,626b377229c10585ec392f89,626b3a95674052d874d36967,,,,,,,,,,,,,,,,,,,,,,,l,1,5.4886,"[""0.029"",""0.281"",""0.503"",""0.139""]","[1,1,1,0]",0,20,20,20,1,1,1,,,1,FALSE,,,,,,,,,,,,,,,,,,,,,,,,,,,,,,
,5ce7bd64a6f1d500164b6da6,001,2022-04-29_03h09.10.180,classification_task,2021.2.3,Win32,59.94125757,5ce7bd64a6f1d500164b6da6,626b377229c10585ec392f89,626b3a95674052d874d36967,,,,,,,,,,,,,,,,,,,,,,,a,1,2.1764,"[""0.139"",""0.545"",""0.915"",""0.971""]","[0,1,1,1]",0,21,21,21,1,0,0,,,1,FALSE,,,,,,,,,,,,,,,,,,,,,,,,,,,,,,
,5ce7bd64a6f1d500164b6da6,001,2022-04-29_03h09.10.180,classification_task,2021.2.3,Win32,59.94125757,5ce7bd64a6f1d500164b6da6,626b377229c10585ec392f89,626b3a95674052d874d36967,,,,,,,,,,,,,,,,,,,,,,,l,1,2.9002,"[""0.029"",""0.340"",""0.503"",""0.832""]","[1,0,1,1]",0,22,22,22,1,1,1,,,1,FALSE,,,,,,,,,,,,,,,,,,,,,,,,,,,,,,
,5ce7bd64a6f1d500164b6da6,001,2022-04-29_03h09.10.180,classification_task,2021.2.3,Win32,59.94125757,5ce7bd64a6f1d500164b6da6,626b377229c10585ec392f89,626b3a95674052d874d36967,,,,,,,,,,,,,,,,,,,,,,,a,1,5.5952,"[""0.139"",""0.440"",""0.700"",""0.875""]","[0,1,1,1]",0,23,23,23,1,0,1,,,1,FALSE,,,,,,,,,,,,,,,,,,,,,,,,,,,,,,
,5ce7bd64a6f1d500164b6da6,001,2022-04-29_03h09.10.180,classification_task,2021.2.3,Win32,59.94125757,5ce7bd64a6f1d500164b6da6,626b377229c10585ec392f89,626b3a95674052d874d36967,,,,,,,,,,,,,,,,,,,,,,,l,1,0.8898,"[""0.634"",""0.378"",""0.593"",""0.771""]","[0,1,1,1]",0,24,24,24,1,1,0,,,1,FALSE,,,,,,,,,,,,,,,,,,,,,,,,,,,,,,
,5ce7bd64a6f1d500164b6da6,001,2022-04-29_03h09.10.180,classification_task,2021.2.3,Win32,59.94125757,5ce7bd64a6f1d500164b6da6,626b377229c10585ec392f89,626b3a95674052d874d36967,,,,,,,,,,,,,,,,,,,,,,,a,1,0.8464,"[""0.222"",""0.141"",""0.915"",""0.971""]","[1,0,1,1]",0,25,25,25,1,0,0,,,1,FALSE,,,,,,,,,,,,,,,,,,,,,,,,,,,,,,
,5ce7bd64a6f1d500164b6da6,001,2022-04-29_03h09.10.180,classification_task,2021.2.3,Win32,59.94125757,5ce7bd64a6f1d500164b6da6,626b377229c10585ec392f89,626b3a95674052d874d36967,,,,,,,,,,,,,,,,,,,,,,,l,1,3.0669,"[""0.029"",""0.281"",""0.148"",""0.832""]","[1,1,0,1]",0,26,26,26,1,1,1,,,1,FALSE,,,,,,,,,,,,,,,,,,,,,,,,,,,,,,
,5ce7bd64a6f1d500164b6da6,001,2022-04-29_03h09.10.180,classification_task,2021.2.3,Win32,59.94125757,5ce7bd64a6f1d500164b6da6,626b377229c10585ec392f89,626b3a95674052d874d36967,,,,,,,,,,,,,,,,,,,,,,,a,1,0.7589,"[""0.222"",""0.545"",""0.639"",""0.971""]","[1,1,0,1]",0,27,27,27,1,0,0,,,1,FALSE,,,,,,,,,,,,,,,,,,,,,,,,,,,,,,
,5ce7bd64a6f1d500164b6da6,001,2022-04-29_03h09.10.180,classification_task,2021.2.3,Win32,59.94125757,5ce7bd64a6f1d500164b6da6,626b377229c10585ec392f89,626b3a95674052d874d36967,,,,,,,,,,,,,,,,,,,,,,,l,1,0.8826,"[""0.085"",""0.141"",""0.593"",""0.771""]","[1,0,1,1]",0,28,28,28,1,1,0,,,1,FALSE,,,,,,,,,,,,,,,,,,,,,,,,,,,,,,
,5ce7bd64a6f1d500164b6da6,001,2022-04-29_03h09.10.180,classification_task,2021.2.3,Win32,59.94125757,5ce7bd64a6f1d500164b6da6,626b377229c10585ec392f89,626b3a95674052d874d36967,,,,,,,,,,,,,,,,,,,,,,,l,1,2.6379,"[""0.148"",""0.281"",""0.503"",""0.832""]","[0,1,1,1]",0,29,29,29,1,1,1,,,1,FALSE,,,,,,,,,,,,,,,,,,,,,,,,,,,,,,
,5ce7bd64a6f1d500164b6da6,001,2022-04-29_03h09.10.180,classification_task,2021.2.3,Win32,59.94125757,5ce7bd64a6f1d500164b6da6,626b377229c10585ec392f89,626b3a95674052d874d36967,,,,,,,,,,,,,,,,,,,,,,,a,1,1.327,"[""0.184"",""0.440"",""0.700"",""0.634""]","[1,1,1,0]",0,30,30,30,1,0,1,,,1,FALSE,,,,,,,,,,,,,,,,,,,,,,,,,,,,,,
,5ce7bd64a6f1d500164b6da6,001,2022-04-29_03h09.10.180,classification_task,2021.2.3,Win32,59.94125757,5ce7bd64a6f1d500164b6da6,626b377229c10585ec392f89,626b3a95674052d874d36967,,,,,,,,,,,,,,,,,,,,,,,a,1,0.6571,"[""0.184"",""0.639"",""0.700"",""0.875""]","[1,0,1,1]",0,31,31,31,1,0,1,,,1,FALSE,,,,,,,,,,,,,,,,,,,,,,,,,,,,,,
,5ce7bd64a6f1d500164b6da6,001,2022-04-29_03h09.10.180,classification_task,2021.2.3,Win32,59.94125757,5ce7bd64a6f1d500164b6da6,626b377229c10585ec392f89,626b3a95674052d874d36967,,,,,,,,,,,,,,,,,,,,,,,a,1,0.7352,"[""0.184"",""0.440"",""0.700"",""0.333""]","[1,1,1,0]",0,32,32,32,1,0,1,,,1,FALSE,,,,,,,,,,,,,,,,,,,,,,,,,,,,,,
,5ce7bd64a6f1d500164b6da6,001,2022-04-29_03h09.10.180,classification_task,2021.2.3,Win32,59.94125757,5ce7bd64a6f1d500164b6da6,626b377229c10585ec392f89,626b3a95674052d874d36967,,,,,,,,,,,,,,,,,,,,,,,l,1,1.1501,"[""0.085"",""0.378"",""0.139"",""0.771""]","[1,1,0,1]",0,33,33,33,1,1,0,,,1,FALSE,,,,,,,,,,,,,,,,,,,,,,,,,,,,,,
,5ce7bd64a6f1d500164b6da6,001,2022-04-29_03h09.10.180,classification_task,2021.2.3,Win32,59.94125757,5ce7bd64a6f1d500164b6da6,626b377229c10585ec392f89,626b3a95674052d874d36967,,,,,,,,,,,,,,,,,,,,,,,a,1,1.2001,"[""0.634"",""0.545"",""0.915"",""0.971""]","[0,1,1,1]",0,34,34,34,1,0,0,,,1,FALSE,,,,,,,,,,,,,,,,,,,,,,,,,,,,,,
,5ce7bd64a6f1d500164b6da6,001,2022-04-29_03h09.10.180,classification_task,2021.2.3,Win32,59.94125757,5ce7bd64a6f1d500164b6da6,626b377229c10585ec392f89,626b3a95674052d874d36967,,,,,,,,,,,,,,,,,,,,,,,l,1,0.9747,"[""0.085"",""0.378"",""0.593"",""0.147""]","[1,1,1,0]",0,35,35,35,1,1,0,,,1,FALSE,,,,,,,,,,,,,,,,,,,,,,,,,,,,,,
,5ce7bd64a6f1d500164b6da6,001,2022-04-29_03h09.10.180,classification_task,2021.2.3,Win32,59.94125757,5ce7bd64a6f1d500164b6da6,626b377229c10585ec392f89,626b3a95674052d874d36967,,,,,,,,,,,,,,,,,,,,,,,a,1,0.6032,"[""0.333"",""0.440"",""0.700"",""0.875""]","[0,1,1,1]",0,36,36,36,1,0,1,,,1,FALSE,,,,,,,,,,,,,,,,,,,,,,,,,,,,,,
,5ce7bd64a6f1d500164b6da6,001,2022-04-29_03h09.10.180,classification_task,2021.2.3,Win32,59.94125757,5ce7bd64a6f1d500164b6da6,626b377229c10585ec392f89,626b3a95674052d874d36967,,,,,,,,,,,,,,,,,,,,,,,l,1,2.3997,"[""0.085"",""0.325"",""0.593"",""0.771""]","[1,0,1,1]",0,37,37,37,1,1,0,,,1,FALSE,,,,,,,,,,,,,,,,,,,,,,,,,,,,,,
,5ce7bd64a6f1d500164b6da6,001,2022-04-29_03h09.10.180,classification_task,2021.2.3,Win32,59.94125757,5ce7bd64a6f1d500164b6da6,626b377229c10585ec392f89,626b3a95674052d874d36967,,,,,,,,,,,,,,,,,,,,,,,a,1,1.6187,"[""0.184"",""0.440"",""0.333"",""0.875""]","[1,1,0,1]",0,38,38,38,1,0,1,,,1,FALSE,,,,,,,,,,,,,,,,,,,,,,,,,,,,,,
,5ce7bd64a6f1d500164b6da6,001,2022-04-29_03h09.10.180,classification_task,2021.2.3,Win32,59.94125757,5ce7bd64a6f1d500164b6da6,626b377229c10585ec392f89,626b3a95674052d874d36967,,,,,,,,,,,,,,,,,,,,,,,a,1,0.7985,"[""0.222"",""0.545"",""0.327"",""0.971""]","[1,1,0,1]",0,39,39,39,1,0,0,,,1,FALSE,,,,,,,,,,,,,,,,,,,,,,,,,,,,,,
,5ce7bd64a6f1d500164b6da6,001,2022-04-29_03h09.10.180,classification_task,2021.2.3,Win32,59.94125757,5ce7bd64a6f1d500164b6da6,626b377229c10585ec392f89,626b3a95674052d874d36967,,,,,,,,,,,,,,,,,,,,,,,l,1,1.0649,"[""0.029"",""0.281"",""0.503"",""0.148""]","[1,1,1,0]",0,40,40,40,1,1,1,,,1,FALSE,,,,,,,,,,,,,,,,,,,,,,,,,,,,,,
,5ce7bd64a6f1d500164b6da6,001,2022-04-29_03h09.10.180,classification_task,2021.2.3,Win32,59.94125757,5ce7bd64a6f1d500164b6da6,626b377229c10585ec392f89,626b3a95674052d874d36967,,,,,,,,,,,,,,,,,,,,,,,l,0,1.0922,"[""0.184"",""0.141"",""0.700"",""0.875""]","[1,0,1,1]",0,41,41,41,1,0,1,,,1,FALSE,,,,,,,,,,,,,,,,,,,,,,,,,,,,,,
,5ce7bd64a6f1d500164b6da6,001,2022-04-29_03h09.10.180,classification_task,2021.2.3,Win32,59.94125757,5ce7bd64a6f1d500164b6da6,626b377229c10585ec392f89,626b3a95674052d874d36967,,,,,,,,,,,,,,,,,,,,,,,l,1,3.4187,"[""0.029"",""0.147"",""0.503"",""0.832""]","[1,0,1,1]",0,42,42,42,1,1,1,,,1,FALSE,,,,,,,,,,,,,,,,,,,,,,,,,,,,,,
,5ce7bd64a6f1d500164b6da6,001,2022-04-29_03h09.10.180,classification_task,2021.2.3,Win32,59.94125757,5ce7bd64a6f1d500164b6da6,626b377229c10585ec392f89,626b3a95674052d874d36967,,,,,,,,,,,,,,,,,,,,,,,a,0,7.5289,"[""0.657"",""0.281"",""0.503"",""0.832""]","[0,1,1,1]",0,43,43,43,1,1,1,,,1,FALSE,,,,,,,,,,,,,,,,,,,,,,,,,,,,,,
,5ce7bd64a6f1d500164b6da6,001,2022-04-29_03h09.10.180,classification_task,2021.2.3,Win32,59.94125757,5ce7bd64a6f1d500164b6da6,626b377229c10585ec392f89,626b3a95674052d874d36967,,,,,,,,,,,,,,,,,,,,,,,l,1,3.0698,"[""0.029"",""0.281"",""0.325"",""0.832""]","[1,1,0,1]",0,44,44,44,1,1,1,,,1,FALSE,,,,,,,,,,,,,,,,,,,,,,,,,,,,,,
,5ce7bd64a6f1d500164b6da6,001,2022-04-29_03h09.10.180,classification_task,2021.2.3,Win32,59.94125757,5ce7bd64a6f1d500164b6da6,626b377229c10585ec392f89,626b3a95674052d874d36967,,,,,,,,,,,,,,,,,,,,,,,a,1,0.7602,"[""0.222"",""0.634"",""0.915"",""0.971""]","[1,0,1,1]",0,45,45,45,1,0,0,,,1,FALSE,,,,,,,,,,,,,,,,,,,,,,,,,,,,,,
,5ce7bd64a6f1d500164b6da6,001,2022-04-29_03h09.10.180,classification_task,2021.2.3,Win32,59.94125757,5ce7bd64a6f1d500164b6da6,626b377229c10585ec392f89,626b3a95674052d874d36967,,,,,,,,,,,,,,,,,,,,,,,l,1,1.601,"[""0.149"",""0.378"",""0.593"",""0.771""]","[0,1,1,1]",0,46,46,46,1,1,0,,,1,FALSE,,,,,,,,,,,,,,,,,,,,,,,,,,,,,,
,5ce7bd64a6f1d500164b6da6,001,2022-04-29_03h09.10.180,classification_task,2021.2.3,Win32,59.94125757,5ce7bd64a6f1d500164b6da6,626b377229c10585ec392f89,626b3a95674052d874d36967,,,,,,,,,,,,,,,,,,,,,,,a,1,0.8004,"[""0.222"",""0.545"",""0.915"",""0.325""]","[1,1,1,0]",0,47,47,47,1,0,0,,,1,FALSE,,,,,,,,,,,,,,,,,,,,,,,,,,,,,,
,5ce7bd64a6f1d500164b6da6,001,2022-04-29_03h09.10.180,classification_task,2021.2.3,Win32,59.94125757,5ce7bd64a6f1d500164b6da6,626b377229c10585ec392f89,626b3a95674052d874d36967,,,,,,,,,,,,,,,,,,,,,,,a,1,1.1335,"[""0.648"",""0.545"",""0.915"",""0.971""]","[0,1,1,1]",0,48,48,48,1,0,0,,,1,FALSE,,,,,,,,,,,,,,,,,,,,,,,,,,,,,,
,5ce7bd64a6f1d500164b6da6,001,2022-04-29_03h09.10.180,classification_task,2021.2.3,Win32,59.94125757,5ce7bd64a6f1d500164b6da6,626b377229c10585ec392f89,626b3a95674052d874d36967,,,,,,,,,,,,,,,,,,,,,,,l,1,0.9338,"[""0.085"",""0.378"",""0.148"",""0.771""]","[1,1,0,1]",0,49,49,49,1,1,0,,,1,FALSE,,,,,,,,,,,,,,,,,,,,,,,,,,,,,,
,5ce7bd64a6f1d500164b6da6,001,2022-04-29_03h09.10.180,classification_task,2021.2.3,Win32,59.94125757,5ce7bd64a6f1d500164b6da6,626b377229c10585ec392f89,626b3a95674052d874d36967,,,,,,,,,,,,,,,,,,,,,,,a,1,1.6657,"[""0.634"",""0.440"",""0.700"",""0.875""]","[0,1,1,1]",0,50,50,50,1,0,1,,,1,FALSE,,,,,,,,,,,,,,,,,,,,,,,,,,,,,,
,5ce7bd64a6f1d500164b6da6,001,2022-04-29_03h09.10.180,classification_task,2021.2.3,Win32,59.94125757,5ce7bd64a6f1d500164b6da6,626b377229c10585ec392f89,626b3a95674052d874d36967,,,,,,,,,,,,,,,,,,,,,,,a,1,1.2196,"[""0.184"",""0.440"",""0.700"",""0.148""]","[1,1,1,0]",0,51,51,51,1,0,1,,,1,FALSE,,,,,,,,,,,,,,,,,,,,,,,,,,,,,,
,5ce7bd64a6f1d500164b6da6,001,2022-04-29_03h09.10.180,classification_task,2021.2.3,Win32,59.94125757,5ce7bd64a6f1d500164b6da6,626b377229c10585ec392f89,626b3a95674052d874d36967,,,,,,,,,,,,,,,,,,,,,,,l,1,1.6997,"[""0.085"",""0.378"",""0.593"",""0.325""]","[1,1,1,0]",0,52,52,52,1,1,0,,,1,FALSE,,,,,,,,,,,,,,,,,,,,,,,,,,,,,,
,5ce7bd64a6f1d500164b6da6,001,2022-04-29_03h09.10.180,classification_task,2021.2.3,Win32,59.94125757,5ce7bd64a6f1d500164b6da6,626b377229c10585ec392f89,626b3a95674052d874d36967,,,,,,,,,,,,,,,,,,,,,,,a,1,1.0672,"[""0.184"",""0.440"",""0.139"",""0.875""]","[1,1,0,1]",0,53,53,53,1,0,1,,,1,FALSE,,,,,,,,,,,,,,,,,,,,,,,,,,,,,,
,5ce7bd64a6f1d500164b6da6,001,2022-04-29_03h09.10.180,classification_task,2021.2.3,Win32,59.94125757,5ce7bd64a6f1d500164b6da6,626b377229c10585ec392f89,626b3a95674052d874d36967,,,,,,,,,,,,,,,,,,,,,,,a,1,1.0002,"[""0.222"",""0.545"",""0.915"",""0.149""]","[1,1,1,0]",0,54,54,54,1,0,0,,,1,FALSE,,,,,,,,,,,,,,,,,,,,,,,,,,,,,,
,5ce7bd64a6f1d500164b6da6,001,2022-04-29_03h09.10.180,classification_task,2021.2.3,Win32,59.94125757,5ce7bd64a6f1d500164b6da6,626b377229c10585ec392f89,626b3a95674052d874d36967,,,,,,,,,,,,,,,,,,,,,,,a,1,1.4479,"[""0.184"",""0.149"",""0.700"",""0.875""]","[1,0,1,1]",0,55,55,55,1,0,1,,,1,FALSE,,,,,,,,,,,,,,,,,,,,,,,,,,,,,,
,5ce7bd64a6f1d500164b6da6,001,2022-04-29_03h09.10.180,classification_task,2021.2.3,Win32,59.94125757,5ce7bd64a6f1d500164b6da6,626b377229c10585ec392f89,626b3a95674052d874d36967,,,,,,,,,,,,,,,,,,,,,,,a,1,0.9005,"[""0.222"",""0.327"",""0.915"",""0.971""]","[1,0,1,1]",0,56,56,56,1,0,0,,,1,FALSE,,,,,,,,,,,,,,,,,,,,,,,,,,,,,,
,5ce7bd64a6f1d500164b6da6,001,2022-04-29_03h09.10.180,classification_task,2021.2.3,Win32,59.94125757,5ce7bd64a6f1d500164b6da6,626b377229c10585ec392f89,626b3a95674052d874d36967,,,,,,,,,,,,,,,,,,,,,,,l,1,0.853,"[""0.085"",""0.149"",""0.593"",""0.771""]","[1,0,1,1]",0,57,57,57,1,1,0,,,1,FALSE,,,,,,,,,,,,,,,,,,,,,,,,,,,,,,
,5ce7bd64a6f1d500164b6da6,001,2022-04-29_03h09.10.180,classification_task,2021.2.3,Win32,59.94125757,5ce7bd64a6f1d500164b6da6,626b377229c10585ec392f89,626b3a95674052d874d36967,,,,,,,,,,,,,,,,,,,,,,,l,1,2.0529,"[""0.029"",""0.281"",""0.503"",""0.340""]","[1,1,1,0]",0,58,58,58,1,1,1,,,1,FALSE,,,,,,,,,,,,,,,,,,,,,,,,,,,,,,
,5ce7bd64a6f1d500164b6da6,001,2022-04-29_03h09.10.180,classification_task,2021.2.3,Win32,59.94125757,5ce7bd64a6f1d500164b6da6,626b377229c10585ec392f89,626b3a95674052d874d36967,,,,,,,,,,,,,,,,,,,,,,,l,1,1.2337,"[""0.029"",""0.281"",""0.139"",""0.832""]","[1,1,0,1]",0,59,59,59,1,1,1,,,1,FALSE,,,,,,,,,,,,,,,,,,,,,,,,,,,,,,
,5ce7bd64a6f1d500164b6da6,001,2022-04-29_03h09.10.180,classification_task,2021.2.3,Win32,59.94125757,5ce7bd64a6f1d500164b6da6,626b377229c10585ec392f89,626b3a95674052d874d36967,,,,,,,,,,,,,,,,,,,,,,,a,1,0.7333,"[""0.222"",""0.545"",""0.633"",""0.971""]","[1,1,0,1]",0,60,60,60,1,0,0,,,1,FALSE,,,,,,,,,,,,,,,,,,,,,,,,,,,,,,
,5ce7bd64a6f1d500164b6da6,001,2022-04-29_03h09.10.180,classification_task,2021.2.3,Win32,59.94125757,5ce7bd64a6f1d500164b6da6,626b377229c10585ec392f89,626b3a95674052d874d36967,,,,,,,,,,,,,,,,,,,,,,,l,1,1.8668,"[""0.657"",""0.281"",""0.503"",""0.832""]","[0,1,1,1]",0,61,61,61,1,1,1,,,1,FALSE,,,,,,,,,,,,,,,,,,,,,,,,,,,,,,
,5ce7bd64a6f1d500164b6da6,001,2022-04-29_03h09.10.180,classification_task,2021.2.3,Win32,59.94125757,5ce7bd64a6f1d500164b6da6,626b377229c10585ec392f89,626b3a95674052d874d36967,,,,,,,,,,,,,,,,,,,,,,,l,1,1.1996,"[""0.648"",""0.378"",""0.593"",""0.771""]","[0,1,1,1]",0,62,62,62,1,1,0,,,1,FALSE,,,,,,,,,,,,,,,,,,,,,,,,,,,,,,
,5ce7bd64a6f1d500164b6da6,001,2022-04-29_03h09.10.180,classification_task,2021.2.3,Win32,59.94125757,5ce7bd64a6f1d500164b6da6,626b377229c10585ec392f89,626b3a95674052d874d36967,,,,,,,,,,,,,,,,,,,,,,,l,1,1.7003,"[""0.029"",""0.325"",""0.503"",""0.832""]","[1,0,1,1]",0,63,63,63,1,1,1,,,1,FALSE,,,,,,,,,,,,,,,,,,,,,,,,,,,,,,
,5ce7bd64a6f1d500164b6da6,001,2022-04-29_03h09.10.180,classification_task,2021.2.3,Win32,59.94125757,5ce7bd64a6f1d500164b6da6,626b377229c10585ec392f89,626b3a95674052d874d36967,,,,,,,,,,,,,,,,,,,,,,,,,,,,,,,,,,,,,,,0, ,,0,6.347246718,187.0732,0,1,1,1,1,2,2,,,,,,,,,,,,,,,,,
,5ce7bd64a6f1d500164b6da6,001,2022-04-29_03h09.10.180,classification_task,2021.2.3,Win32,59.94125757,5ce7bd64a6f1d500164b6da6,626b377229c10585ec392f89,626b3a95674052d874d36967,,,,,,,,,,,,,,,,,,,,,,,,,,,,,,,,,,,,,,,1,  ,,0,0,188.3415,0,1,1,1,1,2,2,,,,,,,,,,,,,,,,,
,5ce7bd64a6f1d500164b6da6,001,2022-04-29_03h09.10.180,classification_task,2021.2.3,Win32,59.94125757,5ce7bd64a6f1d500164b6da6,626b377229c10585ec392f89,626b3a95674052d874d36967,,,,,,,,,,,,,,,,,,,,,,,,,,,,,,,,,,,,,,,2,  ,,0,0,189.7048,0,1,1,1,1,2,2,,,,,,,,,,,,,,,,,
,5ce7bd64a6f1d500164b6da6,001,2022-04-29_03h09.10.180,classification_task,2021.2.3,Win32,59.94125757,5ce7bd64a6f1d500164b6da6,626b377229c10585ec392f89,626b3a95674052d874d36967,,,,,,,,,,,,,,,,,,,,,,,,,,,,,,,,,,,,,,,,,,,,,0,1,1,1,1,,2,,,,,,,,,,,,,,,,,
,5ce7bd64a6f1d500164b6da6,001,2022-04-29_03h09.10.180,classification_task,2021.2.3,Win32,59.94125757,5ce7bd64a6f1d500164b6da6,626b377229c10585ec392f89,626b3a95674052d874d36967,,,,,,,,,,,,,,,,,,,,,space,97.7349,a,1,1.5071,"[""0.222"",""0.147"",""0.915"",""0.971""]","[1,0,1,1]",0,0,0,0,1,0,0,,,1,FALSE,,,,,,,,,,,,,,,,,,,,,,,,,,,,,,
,5ce7bd64a6f1d500164b6da6,001,2022-04-29_03h09.10.180,classification_task,2021.2.3,Win32,59.94125757,5ce7bd64a6f1d500164b6da6,626b377229c10585ec392f89,626b3a95674052d874d36967,,,,,,,,,,,,,,,,,,,,,,,a,1,1.0667,"[""0.222"",""0.545"",""0.634"",""0.971""]","[1,1,0,1]",0,1,1,1,1,0,0,,,1,FALSE,,,,,,,,,,,,,,,,,,,,,,,,,,,,,,
,5ce7bd64a6f1d500164b6da6,001,2022-04-29_03h09.10.180,classification_task,2021.2.3,Win32,59.94125757,5ce7bd64a6f1d500164b6da6,626b377229c10585ec392f89,626b3a95674052d874d36967,,,,,,,,,,,,,,,,,,,,,,,l,1,3.4635,"[""0.634"",""0.281"",""0.503"",""0.832""]","[0,1,1,1]",0,2,2,2,1,1,1,,,1,FALSE,,,,,,,,,,,,,,,,,,,,,,,,,,,,,,
,5ce7bd64a6f1d500164b6da6,001,2022-04-29_03h09.10.180,classification_task,2021.2.3,Win32,59.94125757,5ce7bd64a6f1d500164b6da6,626b377229c10585ec392f89,626b3a95674052d874d36967,,,,,,,,,,,,,,,,,,,,,,,l,1,3.4089,"[""0.029"",""0.281"",""0.503"",""0.139""]","[1,1,1,0]",0,3,3,3,1,1,1,,,1,FALSE,,,,,,,,,,,,,,,,,,,,,,,,,,,,,,
,5ce7bd64a6f1d500164b6da6,001,2022-04-29_03h09.10.180,classification_task,2021.2.3,Win32,59.94125757,5ce7bd64a6f1d500164b6da6,626b377229c10585ec392f89,626b3a95674052d874d36967,,,,,,,,,,,,,,,,,,,,,,,a,1,1.5002,"[""0.657"",""0.440"",""0.700"",""0.875""]","[0,1,1,1]",0,4,4,4,1,0,1,,,1,FALSE,,,,,,,,,,,,,,,,,,,,,,,,,,,,,,
,5ce7bd64a6f1d500164b6da6,001,2022-04-29_03h09.10.180,classification_task,2021.2.3,Win32,59.94125757,5ce7bd64a6f1d500164b6da6,626b377229c10585ec392f89,626b3a95674052d874d36967,,,,,,,,,,,,,,,,,,,,,,,l,1,1.7145,"[""0.029"",""0.633"",""0.503"",""0.832""]","[1,0,1,1]",0,5,5,5,1,1,1,,,1,FALSE,,,,,,,,,,,,,,,,,,,,,,,,,,,,,,
,5ce7bd64a6f1d500164b6da6,001,2022-04-29_03h09.10.180,classification_task,2021.2.3,Win32,59.94125757,5ce7bd64a6f1d500164b6da6,626b377229c10585ec392f89,626b3a95674052d874d36967,,,,,,,,,,,,,,,,,,,,,,,l,1,1.6138,"[""0.085"",""0.378"",""0.593"",""0.328""]","[1,1,1,0]",0,6,6,6,1,1,0,,,1,FALSE,,,,,,,,,,,,,,,,,,,,,,,,,,,,,,
,5ce7bd64a6f1d500164b6da6,001,2022-04-29_03h09.10.180,classification_task,2021.2.3,Win32,59.94125757,5ce7bd64a6f1d500164b6da6,626b377229c10585ec392f89,626b3a95674052d874d36967,,,,,,,,,,,,,,,,,,,,,,,l,1,1.2309,"[""0.085"",""0.141"",""0.593"",""0.771""]","[1,0,1,1]",0,7,7,7,1,1,0,,,1,FALSE,,,,,,,,,,,,,,,,,,,,,,,,,,,,,,
,5ce7bd64a6f1d500164b6da6,001,2022-04-29_03h09.10.180,classification_task,2021.2.3,Win32,59.94125757,5ce7bd64a6f1d500164b6da6,626b377229c10585ec392f89,626b3a95674052d874d36967,,,,,,,,,,,,,,,,,,,,,,,l,1,1.8333,"[""0.085"",""0.378"",""0.340"",""0.771""]","[1,1,0,1]",0,8,8,8,1,1,0,,,1,FALSE,,,,,,,,,,,,,,,,,,,,,,,,,,,,,,
,5ce7bd64a6f1d500164b6da6,001,2022-04-29_03h09.10.180,classification_task,2021.2.3,Win32,59.94125757,5ce7bd64a6f1d500164b6da6,626b377229c10585ec392f89,626b3a95674052d874d36967,,,,,,,,,,,,,,,,,,,,,,,a,1,2.5676,"[""0.184"",""0.340"",""0.700"",""0.875""]","[1,0,1,1]",0,9,9,9,1,0,1,,,1,FALSE,,,,,,,,,,,,,,,,,,,,,,,,,,,,,,
,5ce7bd64a6f1d500164b6da6,001,2022-04-29_03h09.10.180,classification_task,2021.2.3,Win32,59.94125757,5ce7bd64a6f1d500164b6da6,626b377229c10585ec392f89,626b3a95674052d874d36967,,,,,,,,,,,,,,,,,,,,,,,a,1,0.8507,"[""0.222"",""0.545"",""0.915"",""0.147""]","[1,1,1,0]",0,10,10,10,1,0,0,,,1,FALSE,,,,,,,,,,,,,,,,,,,,,,,,,,,,,,
,5ce7bd64a6f1d500164b6da6,001,2022-04-29_03h09.10.180,classification_task,2021.2.3,Win32,59.94125757,5ce7bd64a6f1d500164b6da6,626b377229c10585ec392f89,626b3a95674052d874d36967,,,,,,,,,,,,,,,,,,,,,,,l,1,2.4338,"[""0.029"",""0.281"",""0.148"",""0.832""]","[1,1,0,1]",0,11,11,11,1,1,1,,,1,FALSE,,,,,,,,,,,,,,,,,,,,,,,,,,,,,,
,5ce7bd64a6f1d500164b6da6,001,2022-04-29_03h09.10.180,classification_task,2021.2.3,Win32,59.94125757,5ce7bd64a6f1d500164b6da6,626b377229c10585ec392f89,626b3a95674052d874d36967,,,,,,,,,,,,,,,,,,,,,,,l,1,1.1925,"[""0.141"",""0.378"",""0.593"",""0.771""]","[0,1,1,1]",0,12,12,12,1,1,0,,,1,FALSE,,,,,,,,,,,,,,,,,,,,,,,,,,,,,,
,5ce7bd64a6f1d500164b6da6,001,2022-04-29_03h09.10.180,classification_task,2021.2.3,Win32,59.94125757,5ce7bd64a6f1d500164b6da6,626b377229c10585ec392f89,626b3a95674052d874d36967,,,,,,,,,,,,,,,,,,,,,,,a,1,1.2176,"[""0.657"",""0.545"",""0.915"",""0.971""]","[0,1,1,1]",0,13,13,13,1,0,0,,,1,FALSE,,,,,,,,,,,,,,,,,,,,,,,,,,,,,,
,5ce7bd64a6f1d500164b6da6,001,2022-04-29_03h09.10.180,classification_task,2021.2.3,Win32,59.94125757,5ce7bd64a6f1d500164b6da6,626b377229c10585ec392f89,626b3a95674052d874d36967,,,,,,,,,,,,,,,,,,,,,,,a,1,2.0502,"[""0.184"",""0.440"",""0.700"",""0.141""]","[1,1,1,0]",0,14,14,14,1,0,1,,,1,FALSE,,,,,,,,,,,,,,,,,,,,,,,,,,,,,,
,5ce7bd64a6f1d500164b6da6,001,2022-04-29_03h09.10.180,classification_task,2021.2.3,Win32,59.94125757,5ce7bd64a6f1d500164b6da6,626b377229c10585ec392f89,626b3a95674052d874d36967,,,,,,,,,,,,,,,,,,,,,,,a,1,1.1382,"[""0.184"",""0.440"",""0.327"",""0.875""]","[1,1,0,1]",0,15,15,15,1,0,1,,,1,FALSE,,,,,,,,,,,,,,,,,,,,,,,,,,,,,,
,5ce7bd64a6f1d500164b6da6,001,2022-04-29_03h09.10.180,classification_task,2021.2.3,Win32,59.94125757,5ce7bd64a6f1d500164b6da6,626b377229c10585ec392f89,626b3a95674052d874d36967,,,,,,,,,,,,,,,,,,,,,,,l,1,1.6314,"[""0.085"",""0.378"",""0.639"",""0.771""]","[1,1,0,1]",0,16,16,16,1,1,0,,,1,FALSE,,,,,,,,,,,,,,,,,,,,,,,,,,,,,,
,5ce7bd64a6f1d500164b6da6,001,2022-04-29_03h09.10.180,classification_task,2021.2.3,Win32,59.94125757,5ce7bd64a6f1d500164b6da6,626b377229c10585ec392f89,626b3a95674052d874d36967,,,,,,,,,,,,,,,,,,,,,,,l,1,1.1388,"[""0.327"",""0.378"",""0.593"",""0.771""]","[0,1,1,1]",0,17,17,17,1,1,0,,,1,FALSE,,,,,,,,,,,,,,,,,,,,,,,,,,,,,,
,5ce7bd64a6f1d500164b6da6,001,2022-04-29_03h09.10.180,classification_task,2021.2.3,Win32,59.94125757,5ce7bd64a6f1d500164b6da6,626b377229c10585ec392f89,626b3a95674052d874d36967,,,,,,,,,,,,,,,,,,,,,,,a,1,0.5958,"[""0.141"",""0.545"",""0.915"",""0.971""]","[0,1,1,1]",0,18,18,18,1,0,0,,,1,FALSE,,,,,,,,,,,,,,,,,,,,,,,,,,,,,,
,5ce7bd64a6f1d500164b6da6,001,2022-04-29_03h09.10.180,classification_task,2021.2.3,Win32,59.94125757,5ce7bd64a6f1d500164b6da6,626b377229c10585ec392f89,626b3a95674052d874d36967,,,,,,,,,,,,,,,,,,,,,,,l,1,1.3938,"[""0.085"",""0.657"",""0.593"",""0.771""]","[1,0,1,1]",0,19,19,19,1,1,0,,,1,FALSE,,,,,,,,,,,,,,,,,,,,,,,,,,,,,,
,5ce7bd64a6f1d500164b6da6,001,2022-04-29_03h09.10.180,classification_task,2021.2.3,Win32,59.94125757,5ce7bd64a6f1d500164b6da6,626b377229c10585ec392f89,626b3a95674052d874d36967,,,,,,,,,,,,,,,,,,,,,,,a,1,1.0455,"[""0.222"",""0.545"",""0.147"",""0.971""]","[1,1,0,1]",0,20,20,20,1,0,0,,,1,FALSE,,,,,,,,,,,,,,,,,,,,,,,,,,,,,,
,5ce7bd64a6f1d500164b6da6,001,2022-04-29_03h09.10.180,classification_task,2021.2.3,Win32,59.94125757,5ce7bd64a6f1d500164b6da6,626b377229c10585ec392f89,626b3a95674052d874d36967,,,,,,,,,,,,,,,,,,,,,,,l,1,1.6204,"[""0.029"",""0.281"",""0.503"",""0.141""]","[1,1,1,0]",0,21,21,21,1,1,1,,,1,FALSE,,,,,,,,,,,,,,,,,,,,,,,,,,,,,,
,5ce7bd64a6f1d500164b6da6,001,2022-04-29_03h09.10.180,classification_task,2021.2.3,Win32,59.94125757,5ce7bd64a6f1d500164b6da6,626b377229c10585ec392f89,626b3a95674052d874d36967,,,,,,,,,,,,,,,,,,,,,,,l,1,1.4951,"[""0.141"",""0.281"",""0.503"",""0.832""]","[0,1,1,1]",0,22,22,22,1,1,1,,,1,FALSE,,,,,,,,,,,,,,,,,,,,,,,,,,,,,,
,5ce7bd64a6f1d500164b6da6,001,2022-04-29_03h09.10.180,classification_task,2021.2.3,Win32,59.94125757,5ce7bd64a6f1d500164b6da6,626b377229c10585ec392f89,626b3a95674052d874d36967,,,,,,,,,,,,,,,,,,,,,,,l,1,1.0905,"[""0.029"",""0.281"",""0.141"",""0.832""]","[1,1,0,1]",0,23,23,23,1,1,1,,,1,FALSE,,,,,,,,,,,,,,,,,,,,,,,,,,,,,,
,5ce7bd64a6f1d500164b6da6,001,2022-04-29_03h09.10.180,classification_task,2021.2.3,Win32,59.94125757,5ce7bd64a6f1d500164b6da6,626b377229c10585ec392f89,626b3a95674052d874d36967,,,,,,,,,,,,,,,,,,,,,,,a,1,1.1109,"[""0.222"",""0.545"",""0.915"",""0.333""]","[1,1,1,0]",0,24,24,24,1,0,0,,,1,FALSE,,,,,,,,,,,,,,,,,,,,,,,,,,,,,,
,5ce7bd64a6f1d500164b6da6,001,2022-04-29_03h09.10.180,classification_task,2021.2.3,Win32,59.94125757,5ce7bd64a6f1d500164b6da6,626b377229c10585ec392f89,626b3a95674052d874d36967,,,,,,,,,,,,,,,,,,,,,,,a,1,2.7884,"[""0.184"",""0.440"",""0.340"",""0.875""]","[1,1,0,1]",0,25,25,25,1,0,1,,,1,FALSE,,,,,,,,,,,,,,,,,,,,,,,,,,,,,,
,5ce7bd64a6f1d500164b6da6,001,2022-04-29_03h09.10.180,classification_task,2021.2.3,Win32,59.94125757,5ce7bd64a6f1d500164b6da6,626b377229c10585ec392f89,626b3a95674052d874d36967,,,,,,,,,,,,,,,,,,,,,,,l,1,1.6981,"[""0.085"",""0.378"",""0.593"",""0.633""]","[1,1,1,0]",0,26,26,26,1,1,0,,,1,FALSE,,,,,,,,,,,,,,,,,,,,,,,,,,,,,,
,5ce7bd64a6f1d500164b6da6,001,2022-04-29_03h09.10.180,classification_task,2021.2.3,Win32,59.94125757,5ce7bd64a6f1d500164b6da6,626b377229c10585ec392f89,626b3a95674052d874d36967,,,,,,,,,,,,,,,,,,,,,,,l,1,2.0546,"[""0.029"",""0.648"",""0.503"",""0.832""]","[1,0,1,1]",0,27,27,27,1,1,1,,,1,FALSE,,,,,,,,,,,,,,,,,,,,,,,,,,,,,,
,5ce7bd64a6f1d500164b6da6,001,2022-04-29_03h09.10.180,classification_task,2021.2.3,Win32,59.94125757,5ce7bd64a6f1d500164b6da6,626b377229c10585ec392f89,626b3a95674052d874d36967,,,,,,,,,,,,,,,,,,,,,,,l,0,1.3717,"[""0.184"",""0.148"",""0.700"",""0.875""]","[1,0,1,1]",0,28,28,28,1,0,1,,,1,FALSE,,,,,,,,,,,,,,,,,,,,,,,,,,,,,,
,5ce7bd64a6f1d500164b6da6,001,2022-04-29_03h09.10.180,classification_task,2021.2.3,Win32,59.94125757,5ce7bd64a6f1d500164b6da6,626b377229c10585ec392f89,626b3a95674052d874d36967,,,,,,,,,,,,,,,,,,,,,,,a,1,1.8101,"[""0.325"",""0.440"",""0.700"",""0.875""]","[0,1,1,1]",0,29,29,29,1,0,1,,,1,FALSE,,,,,,,,,,,,,,,,,,,,,,,,,,,,,,
,5ce7bd64a6f1d500164b6da6,001,2022-04-29_03h09.10.180,classification_task,2021.2.3,Win32,59.94125757,5ce7bd64a6f1d500164b6da6,626b377229c10585ec392f89,626b3a95674052d874d36967,,,,,,,,,,,,,,,,,,,,,,,a,1,1.4375,"[""0.184"",""0.440"",""0.700"",""0.141""]","[1,1,1,0]",0,30,30,30,1,0,1,,,1,FALSE,,,,,,,,,,,,,,,,,,,,,,,,,,,,,,
,5ce7bd64a6f1d500164b6da6,001,2022-04-29_03h09.10.180,classification_task,2021.2.3,Win32,59.94125757,5ce7bd64a6f1d500164b6da6,626b377229c10585ec392f89,626b3a95674052d874d36967,,,,,,,,,,,,,,,,,,,,,,,a,1,1.013,"[""0.222"",""0.149"",""0.915"",""0.971""]","[1,0,1,1]",0,31,31,31,1,0,0,,,1,FALSE,,,,,,,,,,,,,,,,,,,,,,,,,,,,,,
,5ce7bd64a6f1d500164b6da6,001,2022-04-29_03h09.10.180,classification_task,2021.2.3,Win32,59.94125757,5ce7bd64a6f1d500164b6da6,626b377229c10585ec392f89,626b3a95674052d874d36967,,,,,,,,,,,,,,,,,,,,,,,l,1,1.9192,"[""0.639"",""0.281"",""0.503"",""0.832""]","[0,1,1,1]",0,32,32,32,1,1,1,,,1,FALSE,,,,,,,,,,,,,,,,,,,,,,,,,,,,,,
,5ce7bd64a6f1d500164b6da6,001,2022-04-29_03h09.10.180,classification_task,2021.2.3,Win32,59.94125757,5ce7bd64a6f1d500164b6da6,626b377229c10585ec392f89,626b3a95674052d874d36967,,,,,,,,,,,,,,,,,,,,,,,a,1,1.8688,"[""0.184"",""0.340"",""0.700"",""0.875""]","[1,0,1,1]",0,33,33,33,1,0,1,,,1,FALSE,,,,,,,,,,,,,,,,,,,,,,,,,,,,,,
,5ce7bd64a6f1d500164b6da6,001,2022-04-29_03h09.10.180,classification_task,2021.2.3,Win32,59.94125757,5ce7bd64a6f1d500164b6da6,626b377229c10585ec392f89,626b3a95674052d874d36967,,,,,,,,,,,,,,,,,,,,,,,a,1,1.8038,"[""0.328"",""0.440"",""0.700"",""0.875""]","[0,1,1,1]",0,34,34,34,1,0,1,,,1,FALSE,,,,,,,,,,,,,,,,,,,,,,,,,,,,,,
,5ce7bd64a6f1d500164b6da6,001,2022-04-29_03h09.10.180,classification_task,2021.2.3,Win32,59.94125757,5ce7bd64a6f1d500164b6da6,626b377229c10585ec392f89,626b3a95674052d874d36967,,,,,,,,,,,,,,,,,,,,,,,l,1,3.0656,"[""0.029"",""0.657"",""0.503"",""0.832""]","[1,0,1,1]",0,35,35,35,1,1,1,,,1,FALSE,,,,,,,,,,,,,,,,,,,,,,,,,,,,,,
,5ce7bd64a6f1d500164b6da6,001,2022-04-29_03h09.10.180,classification_task,2021.2.3,Win32,59.94125757,5ce7bd64a6f1d500164b6da6,626b377229c10585ec392f89,626b3a95674052d874d36967,,,,,,,,,,,,,,,,,,,,,,,l,0,1.0492,"[""0.327"",""0.545"",""0.915"",""0.971""]","[0,1,1,1]",0,36,36,36,1,0,0,,,1,FALSE,,,,,,,,,,,,,,,,,,,,,,,,,,,,,,
,5ce7bd64a6f1d500164b6da6,001,2022-04-29_03h09.10.180,classification_task,2021.2.3,Win32,59.94125757,5ce7bd64a6f1d500164b6da6,626b377229c10585ec392f89,626b3a95674052d874d36967,,,,,,,,,,,,,,,,,,,,,,,l,1,2.6577,"[""0.085"",""0.378"",""0.634"",""0.771""]","[1,1,0,1]",0,37,37,37,1,1,0,,,1,FALSE,,,,,,,,,,,,,,,,,,,,,,,,,,,,,,
,5ce7bd64a6f1d500164b6da6,001,2022-04-29_03h09.10.180,classification_task,2021.2.3,Win32,59.94125757,5ce7bd64a6f1d500164b6da6,626b377229c10585ec392f89,626b3a95674052d874d36967,,,,,,,,,,,,,,,,,,,,,,,a,1,0.8371,"[""0.222"",""0.639"",""0.915"",""0.971""]","[1,0,1,1]",0,38,38,38,1,0,0,,,1,FALSE,,,,,,,,,,,,,,,,,,,,,,,,,,,,,,
,5ce7bd64a6f1d500164b6da6,001,2022-04-29_03h09.10.180,classification_task,2021.2.3,Win32,59.94125757,5ce7bd64a6f1d500164b6da6,626b377229c10585ec392f89,626b3a95674052d874d36967,,,,,,,,,,,,,,,,,,,,,,,a,1,2.3183,"[""0.184"",""0.440"",""0.633"",""0.875""]","[1,1,0,1]",0,39,39,39,1,0,1,,,1,FALSE,,,,,,,,,,,,,,,,,,,,,,,,,,,,,,
,5ce7bd64a6f1d500164b6da6,001,2022-04-29_03h09.10.180,classification_task,2021.2.3,Win32,59.94125757,5ce7bd64a6f1d500164b6da6,626b377229c10585ec392f89,626b3a95674052d874d36967,,,,,,,,,,,,,,,,,,,,,,,l,1,2.2816,"[""0.633"",""0.378"",""0.593"",""0.771""]","[0,1,1,1]",0,40,40,40,1,1,0,,,1,FALSE,,,,,,,,,,,,,,,,,,,,,,,,,,,,,,
,5ce7bd64a6f1d500164b6da6,001,2022-04-29_03h09.10.180,classification_task,2021.2.3,Win32,59.94125757,5ce7bd64a6f1d500164b6da6,626b377229c10585ec392f89,626b3a95674052d874d36967,,,,,,,,,,,,,,,,,,,,,,,a,1,0.7476,"[""0.222"",""0.545"",""0.634"",""0.971""]","[1,1,0,1]",0,41,41,41,1,0,0,,,1,FALSE,,,,,,,,,,,,,,,,,,,,,,,,,,,,,,
,5ce7bd64a6f1d500164b6da6,001,2022-04-29_03h09.10.180,classification_task,2021.2.3,Win32,59.94125757,5ce7bd64a6f1d500164b6da6,626b377229c10585ec392f89,626b3a95674052d874d36967,,,,,,,,,,,,,,,,,,,,,,,a,1,1.5415,"[""0.184"",""0.440"",""0.700"",""0.149""]","[1,1,1,0]",0,42,42,42,1,0,1,,,1,FALSE,,,,,,,,,,,,,,,,,,,,,,,,,,,,,,
,5ce7bd64a6f1d500164b6da6,001,2022-04-29_03h09.10.180,classification_task,2021.2.3,Win32,59.94125757,5ce7bd64a6f1d500164b6da6,626b377229c10585ec392f89,626b3a95674052d874d36967,,,,,,,,,,,,,,,,,,,,,,,l,1,1.4599,"[""0.085"",""0.378"",""0.593"",""0.634""]","[1,1,1,0]",0,43,43,43,1,1,0,,,1,FALSE,,,,,,,,,,,,,,,,,,,,,,,,,,,,,,
,5ce7bd64a6f1d500164b6da6,001,2022-04-29_03h09.10.180,classification_task,2021.2.3,Win32,59.94125757,5ce7bd64a6f1d500164b6da6,626b377229c10585ec392f89,626b3a95674052d874d36967,,,,,,,,,,,,,,,,,,,,,,,l,1,1.8038,"[""0.029"",""0.281"",""0.149"",""0.832""]","[1,1,0,1]",0,44,44,44,1,1,1,,,1,FALSE,,,,,,,,,,,,,,,,,,,,,,,,,,,,,,
,5ce7bd64a6f1d500164b6da6,001,2022-04-29_03h09.10.180,classification_task,2021.2.3,Win32,59.94125757,5ce7bd64a6f1d500164b6da6,626b377229c10585ec392f89,626b3a95674052d874d36967,,,,,,,,,,,,,,,,,,,,,,,a,1,0.921,"[""0.222"",""0.545"",""0.915"",""0.657""]","[1,1,1,0]",0,45,45,45,1,0,0,,,1,FALSE,,,,,,,,,,,,,,,,,,,,,,,,,,,,,,
,5ce7bd64a6f1d500164b6da6,001,2022-04-29_03h09.10.180,classification_task,2021.2.3,Win32,59.94125757,5ce7bd64a6f1d500164b6da6,626b377229c10585ec392f89,626b3a95674052d874d36967,,,,,,,,,,,,,,,,,,,,,,,l,1,1.6783,"[""0.029"",""0.281"",""0.503"",""0.648""]","[1,1,1,0]",0,46,46,46,1,1,1,,,1,FALSE,,,,,,,,,,,,,,,,,,,,,,,,,,,,,,
,5ce7bd64a6f1d500164b6da6,001,2022-04-29_03h09.10.180,classification_task,2021.2.3,Win32,59.94125757,5ce7bd64a6f1d500164b6da6,626b377229c10585ec392f89,626b3a95674052d874d36967,,,,,,,,,,,,,,,,,,,,,,,l,1,1.3673,"[""0.085"",""0.325"",""0.593"",""0.771""]","[1,0,1,1]",0,47,47,47,1,1,0,,,1,FALSE,,,,,,,,,,,,,,,,,,,,,,,,,,,,,,
,5ce7bd64a6f1d500164b6da6,001,2022-04-29_03h09.10.180,classification_task,2021.2.3,Win32,59.94125757,5ce7bd64a6f1d500164b6da6,626b377229c10585ec392f89,626b3a95674052d874d36967,,,,,,,,,,,,,,,,,,,,,,,a,1,0.6352,"[""0.141"",""0.545"",""0.915"",""0.971""]","[0,1,1,1]",0,48,48,48,1,0,0,,,1,FALSE,,,,,,,,,,,,,,,,,,,,,,,,,,,,,,
,5ce7bd64a6f1d500164b6da6,001,2022-04-29_03h09.10.180,classification_task,2021.2.3,Win32,59.94125757,5ce7bd64a6f1d500164b6da6,626b377229c10585ec392f89,626b3a95674052d874d36967,,,,,,,,,,,,,,,,,,,,,,,l,1,1.4681,"[""0.639"",""0.378"",""0.593"",""0.771""]","[0,1,1,1]",0,49,49,49,1,1,0,,,1,FALSE,,,,,,,,,,,,,,,,,,,,,,,,,,,,,,
,5ce7bd64a6f1d500164b6da6,001,2022-04-29_03h09.10.180,classification_task,2021.2.3,Win32,59.94125757,5ce7bd64a6f1d500164b6da6,626b377229c10585ec392f89,626b3a95674052d874d36967,,,,,,,,,,,,,,,,,,,,,,,l,1,1.5383,"[""0.029"",""0.281"",""0.633"",""0.832""]","[1,1,0,1]",0,50,50,50,1,1,1,,,1,FALSE,,,,,,,,,,,,,,,,,,,,,,,,,,,,,,
,5ce7bd64a6f1d500164b6da6,001,2022-04-29_03h09.10.180,classification_task,2021.2.3,Win32,59.94125757,5ce7bd64a6f1d500164b6da6,626b377229c10585ec392f89,626b3a95674052d874d36967,,,,,,,,,,,,,,,,,,,,,,,a,1,1.3261,"[""0.633"",""0.440"",""0.700"",""0.875""]","[0,1,1,1]",0,51,51,51,1,0,1,,,1,FALSE,,,,,,,,,,,,,,,,,,,,,,,,,,,,,,
,5ce7bd64a6f1d500164b6da6,001,2022-04-29_03h09.10.180,classification_task,2021.2.3,Win32,59.94125757,5ce7bd64a6f1d500164b6da6,626b377229c10585ec392f89,626b3a95674052d874d36967,,,,,,,,,,,,,,,,,,,,,,,l,1,1.3656,"[""0.085"",""0.378"",""0.593"",""0.139""]","[1,1,1,0]",0,52,52,52,1,1,0,,,1,FALSE,,,,,,,,,,,,,,,,,,,,,,,,,,,,,,
,5ce7bd64a6f1d500164b6da6,001,2022-04-29_03h09.10.180,classification_task,2021.2.3,Win32,59.94125757,5ce7bd64a6f1d500164b6da6,626b377229c10585ec392f89,626b3a95674052d874d36967,,,,,,,,,,,,,,,,,,,,,,,l,1,2.367,"[""0.029"",""0.281"",""0.503"",""0.657""]","[1,1,1,0]",0,53,53,53,1,1,1,,,1,FALSE,,,,,,,,,,,,,,,,,,,,,,,,,,,,,,
,5ce7bd64a6f1d500164b6da6,001,2022-04-29_03h09.10.180,classification_task,2021.2.3,Win32,59.94125757,5ce7bd64a6f1d500164b6da6,626b377229c10585ec392f89,626b3a95674052d874d36967,,,,,,,,,,,,,,,,,,,,,,,a,1,0.8592,"[""0.184"",""0.440"",""0.325"",""0.875""]","[1,1,0,1]",0,54,54,54,1,0,1,,,1,FALSE,,,,,,,,,,,,,,,,,,,,,,,,,,,,,,
,5ce7bd64a6f1d500164b6da6,001,2022-04-29_03h09.10.180,classification_task,2021.2.3,Win32,59.94125757,5ce7bd64a6f1d500164b6da6,626b377229c10585ec392f89,626b3a95674052d874d36967,,,,,,,,,,,,,,,,,,,,,,,a,1,0.9179,"[""0.222"",""0.149"",""0.915"",""0.971""]","[1,0,1,1]",0,55,55,55,1,0,0,,,1,FALSE,,,,,,,,,,,,,,,,,,,,,,,,,,,,,,
,5ce7bd64a6f1d500164b6da6,001,2022-04-29_03h09.10.180,classification_task,2021.2.3,Win32,59.94125757,5ce7bd64a6f1d500164b6da6,626b377229c10585ec392f89,626b3a95674052d874d36967,,,,,,,,,,,,,,,,,,,,,,,a,1,1.806,"[""0.184"",""0.440"",""0.700"",""0.149""]","[1,1,1,0]",0,56,56,56,1,0,1,,,1,FALSE,,,,,,,,,,,,,,,,,,,,,,,,,,,,,,
,5ce7bd64a6f1d500164b6da6,001,2022-04-29_03h09.10.180,classification_task,2021.2.3,Win32,59.94125757,5ce7bd64a6f1d500164b6da6,626b377229c10585ec392f89,626b3a95674052d874d36967,,,,,,,,,,,,,,,,,,,,,,,l,1,1.1564,"[""0.085"",""0.657"",""0.593"",""0.771""]","[1,0,1,1]",0,57,57,57,1,1,0,,,1,FALSE,,,,,,,,,,,,,,,,,,,,,,,,,,,,,,
,5ce7bd64a6f1d500164b6da6,001,2022-04-29_03h09.10.180,classification_task,2021.2.3,Win32,59.94125757,5ce7bd64a6f1d500164b6da6,626b377229c10585ec392f89,626b3a95674052d874d36967,,,,,,,,,,,,,,,,,,,,,,,a,1,0.9286,"[""0.222"",""0.545"",""0.634"",""0.971""]","[1,1,0,1]",0,58,58,58,1,0,0,,,1,FALSE,,,,,,,,,,,,,,,,,,,,,,,,,,,,,,
,5ce7bd64a6f1d500164b6da6,001,2022-04-29_03h09.10.180,classification_task,2021.2.3,Win32,59.94125757,5ce7bd64a6f1d500164b6da6,626b377229c10585ec392f89,626b3a95674052d874d36967,,,,,,,,,,,,,,,,,,,,,,,l,1,2.3768,"[""0.633"",""0.281"",""0.503"",""0.832""]","[0,1,1,1]",0,59,59,59,1,1,1,,,1,FALSE,,,,,,,,,,,,,,,,,,,,,,,,,,,,,,
,5ce7bd64a6f1d500164b6da6,001,2022-04-29_03h09.10.180,classification_task,2021.2.3,Win32,59.94125757,5ce7bd64a6f1d500164b6da6,626b377229c10585ec392f89,626b3a95674052d874d36967,,,,,,,,,,,,,,,,,,,,,,,l,1,0.9859,"[""0.085"",""0.378"",""0.340"",""0.771""]","[1,1,0,1]",0,60,60,60,1,1,0,,,1,FALSE,,,,,,,,,,,,,,,,,,,,,,,,,,,,,,
,5ce7bd64a6f1d500164b6da6,001,2022-04-29_03h09.10.180,classification_task,2021.2.3,Win32,59.94125757,5ce7bd64a6f1d500164b6da6,626b377229c10585ec392f89,626b3a95674052d874d36967,,,,,,,,,,,,,,,,,,,,,,,a,1,4.3318,"[""0.184"",""0.648"",""0.700"",""0.875""]","[1,0,1,1]",0,61,61,61,1,0,1,,,1,FALSE,,,,,,,,,,,,,,,,,,,,,,,,,,,,,,
,5ce7bd64a6f1d500164b6da6,001,2022-04-29_03h09.10.180,classification_task,2021.2.3,Win32,59.94125757,5ce7bd64a6f1d500164b6da6,626b377229c10585ec392f89,626b3a95674052d874d36967,,,,,,,,,,,,,,,,,,,,,,,a,1,0.9326,"[""0.222"",""0.545"",""0.915"",""0.148""]","[1,1,1,0]",0,62,62,62,1,0,0,,,1,FALSE,,,,,,,,,,,,,,,,,,,,,,,,,,,,,,
,5ce7bd64a6f1d500164b6da6,001,2022-04-29_03h09.10.180,classification_task,2021.2.3,Win32,59.94125757,5ce7bd64a6f1d500164b6da6,626b377229c10585ec392f89,626b3a95674052d874d36967,,,,,,,,,,,,,,,,,,,,,,,l,1,1.4178,"[""0.029"",""0.328"",""0.503"",""0.832""]","[1,0,1,1]",0,63,63,63,1,1,1,,,1,FALSE,,,,,,,,,,,,,,,,,,,,,,,,,,,,,,
,5ce7bd64a6f1d500164b6da6,001,2022-04-29_03h09.10.180,classification_task,2021.2.3,Win32,59.94125757,5ce7bd64a6f1d500164b6da6,626b377229c10585ec392f89,626b3a95674052d874d36967,,,,,,,,,,,,,,,,,,,,,,,,,,,,,,,,,,,,,,,0, ,,0,6.298255928,271.481,0,2,2,2,1,2,3,,,,,,,,,,,,,,,,,
,5ce7bd64a6f1d500164b6da6,001,2022-04-29_03h09.10.180,classification_task,2021.2.3,Win32,59.94125757,5ce7bd64a6f1d500164b6da6,626b377229c10585ec392f89,626b3a95674052d874d36967,,,,,,,,,,,,,,,,,,,,,,,,,,,,,,,,,,,,,,,1,  ,,0,0.076425632,272.2649,0,2,2,2,1,2,3,,,,,,,,,,,,,,,,,
,5ce7bd64a6f1d500164b6da6,001,2022-04-29_03h09.10.180,classification_task,2021.2.3,Win32,59.94125757,5ce7bd64a6f1d500164b6da6,626b377229c10585ec392f89,626b3a95674052d874d36967,,,,,,,,,,,,,,,,,,,,,,,,,,,,,,,,,,,,,,,2,  ,,0,0,274.0854,0,2,2,2,1,2,3,,,,,,,,,,,,,,,,,
,5ce7bd64a6f1d500164b6da6,001,2022-04-29_03h09.10.180,classification_task,2021.2.3,Win32,59.94125757,5ce7bd64a6f1d500164b6da6,626b377229c10585ec392f89,626b3a95674052d874d36967,,,,,,,,,,,,,,,,,,,,,,,,,,,,,,,,,,,,,,,,,,,,,0,2,2,2,1,,3,,,,,,,,,,,,,,,,,
,5ce7bd64a6f1d500164b6da6,001,2022-04-29_03h09.10.180,classification_task,2021.2.3,Win32,59.94125757,5ce7bd64a6f1d500164b6da6,626b377229c10585ec392f89,626b3a95674052d874d36967,,,,,,,,,,,,,,,,,,,,,,,,,,,,,,,,,,,,,,,,,,,,,,,,,,,,,I believe the aid is a competent performer,,0.7,0,3,1116.0393,0,0,0,0,1,0,,,,
,5ce7bd64a6f1d500164b6da6,001,2022-04-29_03h09.10.180,classification_task,2021.2.3,Win32,59.94125757,5ce7bd64a6f1d500164b6da6,626b377229c10585ec392f89,626b3a95674052d874d36967,,,,,,,,,,,,,,,,,,,,,,,,,,,,,,,,,,,,,,,,,,,,,,,,,,,,,I trust the aid,,0.7,0,3,1081.7679,0,0,0,0,1,0,,,,
,5ce7bd64a6f1d500164b6da6,001,2022-04-29_03h09.10.180,classification_task,2021.2.3,Win32,59.94125757,5ce7bd64a6f1d500164b6da6,626b377229c10585ec392f89,626b3a95674052d874d36967,,,,,,,,,,,,,,,,,,,,,,,,,,,,,,,,,,,,,,,,,,,,,,,,,,,,,I have confidence in the advice given by the aid,,0.7,0,3,1083.0468,0,0,0,0,1,0,,,,
,5ce7bd64a6f1d500164b6da6,001,2022-04-29_03h09.10.180,classification_task,2021.2.3,Win32,59.94125757,5ce7bd64a6f1d500164b6da6,626b377229c10585ec392f89,626b3a95674052d874d36967,,,,,,,,,,,,,,,,,,,,,,,,,,,,,,,,,,,,,,,,,,,,,,,,,,,,,I can depend on the aid,,0.7,0,1,1084.8777,0,0,0,0,1,0,,,,
,5ce7bd64a6f1d500164b6da6,001,2022-04-29_03h09.10.180,classification_task,2021.2.3,Win32,59.94125757,5ce7bd64a6f1d500164b6da6,626b377229c10585ec392f89,626b3a95674052d874d36967,,,,,,,,,,,,,,,,,,,,,,,,,,,,,,,,,,,,,,,,,,,,,,,,,,,,,I can rely on the aid to behave in consistent ways,,0.7,0,3,1089.1831,0,0,0,0,1,0,,,,
,5ce7bd64a6f1d500164b6da6,001,2022-04-29_03h09.10.180,classification_task,2021.2.3,Win32,59.94125757,5ce7bd64a6f1d500164b6da6,626b377229c10585ec392f89,626b3a95674052d874d36967,,,,,,,,,,,,,,,,,,,,,,,,,,,,,,,,,,,,,,,,,,,,,,,,,,,,,I can rely on the aid to do its best every time I take its advice,,0.7,0,3,1091.4226,0,0,0,0,1,0,,,,
,5ce7bd64a6f1d500164b6da6,001,2022-04-29_03h09.10.180,classification_task,2021.2.3,Win32,59.94125757,5ce7bd64a6f1d500164b6da6,626b377229c10585ec392f89,626b3a95674052d874d36967,,,,,,,,,,,,,,,,,,,,,,,,,,,,,,,,,,,,,,,,,,,,,,,,,,,,,"On trials you completed with assistance from the aid, how frequently did you think the aid was correct?",,0.7,0,50,,0,0,0,0,1,0,,,,
,5ce7bd64a6f1d500164b6da6,001,2022-04-29_03h09.10.180,classification_task,2021.2.3,Win32,59.94125757,5ce7bd64a6f1d500164b6da6,626b377229c10585ec392f89,626b3a95674052d874d36967,,,,,,,,,,,,,,,,,,,,,,,,,,,,,,,,,,,,,,,,,,,,,,,,,,,,,"On trials you completed without the aid, how frequently did you think you were correct?",,0.7,0,80,,0,0,0,0,1,0,,,,
,5ce7bd64a6f1d500164b6da6,001,2022-04-29_03h09.10.180,classification_task,2021.2.3,Win32,59.94125757,5ce7bd64a6f1d500164b6da6,626b377229c10585ec392f89,626b3a95674052d874d36967,,,,,,,,,,,,,,,,,,,,,,,,,,,,,,,,,,,,,,,,,,,,,,,,,,,,,,,,,,,0,0,0,0,1,,,,,
,5ce7bd64a6f1d500164b6da6,001,2022-04-29_03h09.10.180,classification_task,2021.2.3,Win32,59.94125757,5ce7bd64a6f1d500164b6da6,626b377229c10585ec392f89,626b3a95674052d874d36967,,,,,,,,,,,,,,,,,,,,,,,,,,,,,,,,,,,,,,,,,,,,,,,,,,,,,,,,,,,,,,,,,space,14.6995,1145.5527,
,5ce7bd64a6f1d500164b6da6,001,2022-04-29_03h09.10.180,classification_task,2021.2.3,Win32,59.94125757,5ce7bd64a6f1d500164b6da6,626b377229c10585ec392f89,626b3a95674052d874d36967,,,,,,,,,,,,,,,,,,,,,,,,,,,,,,,,,,,,,,,,,,,,,,,,,,,,,,,,,,,,,,,,,,,,"Mozilla/5.0 (Windows NT 10.0; Win64; x64) AppleWebKit/537.36 (KHTML, like Gecko) Chrome/100.0.4896.127 Safari/537.36"
