usingWebGL,participant,session,date,expName,psychopyVersion,OS,frameRate,PROLIFIC_PID,STUDY_ID,SESSION_ID,signatures_friend,signatures_foe,band_ranges_top,band_ranges_bottom,formitemText,formtype,formundefined,formitemWidth,formindex,formresponse,formrt,key_resp_2.keys,key_resp_2.rt,tute_resp.keys,tute_resp.rt,tutorial.thisRepN,tutorial.thisTrialN,tutorial.thisN,tutorial.thisIndex,tutorial.ran,key_resp_4.keys,key_resp_4.rt,key_resp.keys,key_resp.corr,key_resp.rt,lines_presented,is_signal_presented,trials.thisRepN,trials.thisTrialN,trials.thisN,trials.thisIndex,trials.ran,vessel,active_band,lines,is_signal,supported_pos,catch_trial,debrief_formindex,debrief_formitemText,debrief_formtype,debrief_formitemWidth,debrief_formresponse,debrief_formrt,phases.thisRepN,phases.thisTrialN,phases.thisN,phases.thisIndex,phases.ran,phases.order,phase,key_resp_3.keys,trustitemText,trusttype,trustitemWidth,trustindex,trustresponse,trustrt,support_status.thisRepN,support_status.thisTrialN,support_status.thisN,support_status.thisIndex,support_status.ran,support_status.order,key_resp_5.keys,key_resp_5.rt,globalClockTime,userAgent
TRUE,5cfaab352e080000016ec742,001,2022-04-29_03h03.56.802,classification_task,2021.2.3,Win32,60.0132029,5cfaab352e080000016ec742,626b377229c10585ec392f89,626b3952ce43f9be9845f73d,,,,,,,,,,,,,,,,,,,,,,,,,,,,,,,,,,,,,,,,,,,,,,,,,,,,,,,,,,,,,,,,,,,,
,5cfaab352e080000016ec742,001,2022-04-29_03h03.56.802,classification_task,2021.2.3,Win32,60.0132029,5cfaab352e080000016ec742,626b377229c10585ec392f89,626b3952ce43f9be9845f73d,"[[""0.272"",""0.436"",""0.847"",""0.959""],[""0.306"",""0.377"",""0.604"",""0.917""]]","[[""0.055"",""0.092"",""0.514"",""0.704""],[""0.146"",""0.218"",""0.559"",""0.741""]]","[1,10]","[100,1000]",Video game experience,,,0.7,0,,,,,,,,,,,,,,,,,,,,,,,,,,,,,,,,,,,,,,,,,,,,,,,,,,,,,,,,,,,
,5cfaab352e080000016ec742,001,2022-04-29_03h03.56.802,classification_task,2021.2.3,Win32,60.0132029,5cfaab352e080000016ec742,626b377229c10585ec392f89,626b3952ce43f9be9845f73d,,,,,Approximately how many hours did you spend playing video games in the last week?,,,0.7,0,10,,,,,,,,,,,,,,,,,,,,,,,,,,,,,,,,,,,,,,,,,,,,,,,,,,,,,,,,,,
,5cfaab352e080000016ec742,001,2022-04-29_03h03.56.802,classification_task,2021.2.3,Win32,60.0132029,5cfaab352e080000016ec742,626b377229c10585ec392f89,626b3952ce43f9be9845f73d,,,,,"Which game did you play the most this year? (Enter ""None"" if you didn't play any)",,,0.7,0,PUBG,,,,,,,,,,,,,,,,,,,,,,,,,,,,,,,,,,,,,,,,,,,,,,,,,,,,,,,,,,
,5cfaab352e080000016ec742,001,2022-04-29_03h03.56.802,classification_task,2021.2.3,Win32,60.0132029,5cfaab352e080000016ec742,626b377229c10585ec392f89,626b3952ce43f9be9845f73d,,,,,Visual perception,,,0.7,0,,,,,,,,,,,,,,,,,,,,,,,,,,,,,,,,,,,,,,,,,,,,,,,,,,,,,,,,,,,
,5cfaab352e080000016ec742,001,2022-04-29_03h03.56.802,classification_task,2021.2.3,Win32,60.0132029,5cfaab352e080000016ec742,626b377229c10585ec392f89,626b3952ce43f9be9845f73d,,,,,Do you have any form of color blindness?,,,0.7,0,No,23.815,,,,,,,,,,,,,,,,,,,,,,,,,,,,,,,,,,,,,,,,,,,,,,,,,,,,,,,,,
,5cfaab352e080000016ec742,001,2022-04-29_03h03.56.802,classification_task,2021.2.3,Win32,60.0132029,5cfaab352e080000016ec742,626b377229c10585ec392f89,626b3952ce43f9be9845f73d,,,,,Do you use software to change the colour temperature of your screen (e.g. f.lux)?,,,0.7,0,No,29.0816,,,,,,,,,,,,,,,,,,,,,,,,,,,,,,,,,,,,,,,,,,,,,,,,,,,,,,,,,
,5cfaab352e080000016ec742,001,2022-04-29_03h03.56.802,classification_task,2021.2.3,Win32,60.0132029,5cfaab352e080000016ec742,626b377229c10585ec392f89,626b3952ce43f9be9845f73d,,,,,,,,,,,,space,143.0724,space,27.3171,0,0,0,0,1,,,,,,,,,,,,,,,,,,,,,,,,,,,,,,,,,,,,,,,,,,,,,,,,
,5cfaab352e080000016ec742,001,2022-04-29_03h03.56.802,classification_task,2021.2.3,Win32,60.0132029,5cfaab352e080000016ec742,626b377229c10585ec392f89,626b3952ce43f9be9845f73d,,,,,,,,,,,,,,space,71.5767,1,0,1,0,1,,,,,,,,,,,,,,,,,,,,,,,,,,,,,,,,,,,,,,,,,,,,,,,,
,5cfaab352e080000016ec742,001,2022-04-29_03h03.56.802,classification_task,2021.2.3,Win32,60.0132029,5cfaab352e080000016ec742,626b377229c10585ec392f89,626b3952ce43f9be9845f73d,,,,,,,,,,,,,,space,265.0716,2,0,2,0,1,,,,,,,,,,,,,,,,,,,,,,,,,,,,,,,,,,,,,,,,,,,,,,,,
,5cfaab352e080000016ec742,001,2022-04-29_03h03.56.802,classification_task,2021.2.3,Win32,60.0132029,5cfaab352e080000016ec742,626b377229c10585ec392f89,626b3952ce43f9be9845f73d,,,,,,,,,,,,,,space,6.8718,3,0,3,0,1,,,,,,,,,,,,,,,,,,,,,,,,,,,,,,,,,,,,,,,,,,,,,,,,
,5cfaab352e080000016ec742,001,2022-04-29_03h03.56.802,classification_task,2021.2.3,Win32,60.0132029,5cfaab352e080000016ec742,626b377229c10585ec392f89,626b3952ce43f9be9845f73d,,,,,,,,,,,,,,space,12.3838,4,0,4,0,1,,,,,,,,,,,,,,,,,,,,,,,,,,,,,,,,,,,,,,,,,,,,,,,,
,5cfaab352e080000016ec742,001,2022-04-29_03h03.56.802,classification_task,2021.2.3,Win32,60.0132029,5cfaab352e080000016ec742,626b377229c10585ec392f89,626b3952ce43f9be9845f73d,,,,,,,,,,,,,,,,,,,,,space,39.3767,l,1,7.8023,"[""0.055"",""0.880"",""0.514"",""0.704""]","[1,0,1,1]",0,0,0,0,1,1,0,,,1,FALSE,,,,,,,,,,,,,,,,,,,,,,,,,,,,,,
,5cfaab352e080000016ec742,001,2022-04-29_03h03.56.802,classification_task,2021.2.3,Win32,60.0132029,5cfaab352e080000016ec742,626b377229c10585ec392f89,626b3952ce43f9be9845f73d,,,,,,,,,,,,,,,,,,,,,,,a,1,6.5927,"[""0.306"",""0.780"",""0.604"",""0.917""]","[1,0,1,1]",0,1,1,1,1,0,1,,,1,FALSE,,,,,,,,,,,,,,,,,,,,,,,,,,,,,,
,5cfaab352e080000016ec742,001,2022-04-29_03h03.56.802,classification_task,2021.2.3,Win32,60.0132029,5cfaab352e080000016ec742,626b377229c10585ec392f89,626b3952ce43f9be9845f73d,,,,,,,,,,,,,,,,,,,,,,,l,1,4.6488,"[""0.640"",""0.092"",""0.514"",""0.704""]","[0,1,1,1]",0,2,2,2,1,1,0,,,1,FALSE,,,,,,,,,,,,,,,,,,,,,,,,,,,,,,
,5cfaab352e080000016ec742,001,2022-04-29_03h03.56.802,classification_task,2021.2.3,Win32,60.0132029,5cfaab352e080000016ec742,626b377229c10585ec392f89,626b3952ce43f9be9845f73d,,,,,,,,,,,,,,,,,,,,,,,l,1,4.0982,"[""0.055"",""0.092"",""0.640"",""0.704""]","[1,1,0,1]",0,3,3,3,1,1,0,,,1,FALSE,,,,,,,,,,,,,,,,,,,,,,,,,,,,,,
,5cfaab352e080000016ec742,001,2022-04-29_03h03.56.802,classification_task,2021.2.3,Win32,60.0132029,5cfaab352e080000016ec742,626b377229c10585ec392f89,626b3952ce43f9be9845f73d,,,,,,,,,,,,,,,,,,,,,,,a,1,3.6992,"[""0.272"",""0.640"",""0.847"",""0.959""]","[1,0,1,1]",0,4,4,4,1,0,0,,,1,FALSE,,,,,,,,,,,,,,,,,,,,,,,,,,,,,,
,5cfaab352e080000016ec742,001,2022-04-29_03h03.56.802,classification_task,2021.2.3,Win32,60.0132029,5cfaab352e080000016ec742,626b377229c10585ec392f89,626b3952ce43f9be9845f73d,,,,,,,,,,,,,,,,,,,,,,,a,1,2.6372,"[""0.272"",""0.436"",""0.880"",""0.959""]","[1,1,0,1]",0,5,5,5,1,0,0,,,1,FALSE,,,,,,,,,,,,,,,,,,,,,,,,,,,,,,
,5cfaab352e080000016ec742,001,2022-04-29_03h03.56.802,classification_task,2021.2.3,Win32,60.0132029,5cfaab352e080000016ec742,626b377229c10585ec392f89,626b3952ce43f9be9845f73d,,,,,,,,,,,,,,,,,,,,,,,a,1,3.7307,"[""0.306"",""0.377"",""0.604"",""0.646""]","[1,1,1,0]",0,6,6,6,1,0,1,,,1,FALSE,,,,,,,,,,,,,,,,,,,,,,,,,,,,,,
,5cfaab352e080000016ec742,001,2022-04-29_03h03.56.802,classification_task,2021.2.3,Win32,60.0132029,5cfaab352e080000016ec742,626b377229c10585ec392f89,626b3952ce43f9be9845f73d,,,,,,,,,,,,,,,,,,,,,,,a,1,2.6881,"[""0.272"",""0.436"",""0.847"",""0.881""]","[1,1,1,0]",0,7,7,7,1,0,0,,,1,FALSE,,,,,,,,,,,,,,,,,,,,,,,,,,,,,,
,5cfaab352e080000016ec742,001,2022-04-29_03h03.56.802,classification_task,2021.2.3,Win32,60.0132029,5cfaab352e080000016ec742,626b377229c10585ec392f89,626b3952ce43f9be9845f73d,,,,,,,,,,,,,,,,,,,,,,,a,1,4.3445,"[""0.640"",""0.377"",""0.604"",""0.917""]","[0,1,1,1]",0,8,8,8,1,0,1,,,1,FALSE,,,,,,,,,,,,,,,,,,,,,,,,,,,,,,
,5cfaab352e080000016ec742,001,2022-04-29_03h03.56.802,classification_task,2021.2.3,Win32,60.0132029,5cfaab352e080000016ec742,626b377229c10585ec392f89,626b3952ce43f9be9845f73d,,,,,,,,,,,,,,,,,,,,,,,,0,,"[""0.182"",""0.436"",""0.847"",""0.959""]","[0,1,1,1]",0,9,9,9,1,0,0,,,1,FALSE,,,,,,,,,,,,,,,,,,,,,,,,,,,,,,
,5cfaab352e080000016ec742,001,2022-04-29_03h03.56.802,classification_task,2021.2.3,Win32,60.0132029,5cfaab352e080000016ec742,626b377229c10585ec392f89,626b3952ce43f9be9845f73d,,,,,,,,,,,,,,,,,,,,,,,l,1,3.022,"[""0.146"",""0.218"",""0.559"",""0.182""]","[1,1,1,0]",0,10,10,10,1,1,1,,,1,FALSE,,,,,,,,,,,,,,,,,,,,,,,,,,,,,,
,5cfaab352e080000016ec742,001,2022-04-29_03h03.56.802,classification_task,2021.2.3,Win32,60.0132029,5cfaab352e080000016ec742,626b377229c10585ec392f89,626b3952ce43f9be9845f73d,,,,,,,,,,,,,,,,,,,,,,,l,1,1.8341,"[""0.146"",""0.800"",""0.559"",""0.741""]","[1,0,1,1]",0,11,11,11,1,1,1,,,1,FALSE,,,,,,,,,,,,,,,,,,,,,,,,,,,,,,
,5cfaab352e080000016ec742,001,2022-04-29_03h03.56.802,classification_task,2021.2.3,Win32,60.0132029,5cfaab352e080000016ec742,626b377229c10585ec392f89,626b3952ce43f9be9845f73d,,,,,,,,,,,,,,,,,,,,,,,l,1,1.8316,"[""0.055"",""0.092"",""0.514"",""0.880""]","[1,1,1,0]",0,12,12,12,1,1,0,,,1,FALSE,,,,,,,,,,,,,,,,,,,,,,,,,,,,,,
,5cfaab352e080000016ec742,001,2022-04-29_03h03.56.802,classification_task,2021.2.3,Win32,60.0132029,5cfaab352e080000016ec742,626b377229c10585ec392f89,626b3952ce43f9be9845f73d,,,,,,,,,,,,,,,,,,,,,,,l,1,2.4821,"[""0.146"",""0.218"",""0.780"",""0.741""]","[1,1,0,1]",0,13,13,13,1,1,1,,,1,FALSE,,,,,,,,,,,,,,,,,,,,,,,,,,,,,,
,5cfaab352e080000016ec742,001,2022-04-29_03h03.56.802,classification_task,2021.2.3,Win32,60.0132029,5cfaab352e080000016ec742,626b377229c10585ec392f89,626b3952ce43f9be9845f73d,,,,,,,,,,,,,,,,,,,,,,,a,1,2.7194,"[""0.306"",""0.377"",""0.640"",""0.917""]","[1,1,0,1]",0,14,14,14,1,0,1,,,1,FALSE,,,,,,,,,,,,,,,,,,,,,,,,,,,,,,
,5cfaab352e080000016ec742,001,2022-04-29_03h03.56.802,classification_task,2021.2.3,Win32,60.0132029,5cfaab352e080000016ec742,626b377229c10585ec392f89,626b3952ce43f9be9845f73d,,,,,,,,,,,,,,,,,,,,,,,a,0,1.9441,"[""0.881"",""0.218"",""0.559"",""0.741""]","[0,1,1,1]",0,15,15,15,1,1,1,,,1,FALSE,,,,,,,,,,,,,,,,,,,,,,,,,,,,,,
,5cfaab352e080000016ec742,001,2022-04-29_03h03.56.802,classification_task,2021.2.3,Win32,60.0132029,5cfaab352e080000016ec742,626b377229c10585ec392f89,626b3952ce43f9be9845f73d,,,,,,,,,,,,,,,,,,,,,,,a,1,3.8541,"[""0.272"",""0.436"",""0.474"",""0.959""]","[1,1,0,1]",0,16,16,16,1,0,0,,,1,FALSE,,,,,,,,,,,,,,,,,,,,,,,,,,,,,,
,5cfaab352e080000016ec742,001,2022-04-29_03h03.56.802,classification_task,2021.2.3,Win32,60.0132029,5cfaab352e080000016ec742,626b377229c10585ec392f89,626b3952ce43f9be9845f73d,,,,,,,,,,,,,,,,,,,,,,,l,1,5.1434,"[""0.477"",""0.092"",""0.514"",""0.704""]","[0,1,1,1]",0,17,17,17,1,1,0,,,1,FALSE,,,,,,,,,,,,,,,,,,,,,,,,,,,,,,
,5cfaab352e080000016ec742,001,2022-04-29_03h03.56.802,classification_task,2021.2.3,Win32,60.0132029,5cfaab352e080000016ec742,626b377229c10585ec392f89,626b3952ce43f9be9845f73d,,,,,,,,,,,,,,,,,,,,,,,l,1,1.1201,"[""0.055"",""0.092"",""0.656"",""0.704""]","[1,1,0,1]",0,18,18,18,1,1,0,,,1,FALSE,,,,,,,,,,,,,,,,,,,,,,,,,,,,,,
,5cfaab352e080000016ec742,001,2022-04-29_03h03.56.802,classification_task,2021.2.3,Win32,60.0132029,5cfaab352e080000016ec742,626b377229c10585ec392f89,626b3952ce43f9be9845f73d,,,,,,,,,,,,,,,,,,,,,,,l,1,2.6181,"[""0.182"",""0.218"",""0.559"",""0.741""]","[0,1,1,1]",0,19,19,19,1,1,1,,,1,FALSE,,,,,,,,,,,,,,,,,,,,,,,,,,,,,,
,5cfaab352e080000016ec742,001,2022-04-29_03h03.56.802,classification_task,2021.2.3,Win32,60.0132029,5cfaab352e080000016ec742,626b377229c10585ec392f89,626b3952ce43f9be9845f73d,,,,,,,,,,,,,,,,,,,,,,,l,1,1.9268,"[""0.055"",""0.800"",""0.514"",""0.704""]","[1,0,1,1]",0,20,20,20,1,1,0,,,1,FALSE,,,,,,,,,,,,,,,,,,,,,,,,,,,,,,
,5cfaab352e080000016ec742,001,2022-04-29_03h03.56.802,classification_task,2021.2.3,Win32,60.0132029,5cfaab352e080000016ec742,626b377229c10585ec392f89,626b3952ce43f9be9845f73d,,,,,,,,,,,,,,,,,,,,,,,a,1,2.3121,"[""0.796"",""0.436"",""0.847"",""0.959""]","[0,1,1,1]",0,21,21,21,1,0,0,,,1,FALSE,,,,,,,,,,,,,,,,,,,,,,,,,,,,,,
,5cfaab352e080000016ec742,001,2022-04-29_03h03.56.802,classification_task,2021.2.3,Win32,60.0132029,5cfaab352e080000016ec742,626b377229c10585ec392f89,626b3952ce43f9be9845f73d,,,,,,,,,,,,,,,,,,,,,,,a,1,5.5942,"[""0.306"",""0.377"",""0.604"",""0.881""]","[1,1,1,0]",0,22,22,22,1,0,1,,,1,FALSE,,,,,,,,,,,,,,,,,,,,,,,,,,,,,,
,5cfaab352e080000016ec742,001,2022-04-29_03h03.56.802,classification_task,2021.2.3,Win32,60.0132029,5cfaab352e080000016ec742,626b377229c10585ec392f89,626b3952ce43f9be9845f73d,,,,,,,,,,,,,,,,,,,,,,,a,1,3.253,"[""0.646"",""0.377"",""0.604"",""0.917""]","[0,1,1,1]",0,23,23,23,1,0,1,,,1,FALSE,,,,,,,,,,,,,,,,,,,,,,,,,,,,,,
,5cfaab352e080000016ec742,001,2022-04-29_03h03.56.802,classification_task,2021.2.3,Win32,60.0132029,5cfaab352e080000016ec742,626b377229c10585ec392f89,626b3952ce43f9be9845f73d,,,,,,,,,,,,,,,,,,,,,,,l,1,1.8614,"[""0.146"",""0.798"",""0.559"",""0.741""]","[1,0,1,1]",0,24,24,24,1,1,1,,,1,FALSE,,,,,,,,,,,,,,,,,,,,,,,,,,,,,,
,5cfaab352e080000016ec742,001,2022-04-29_03h03.56.802,classification_task,2021.2.3,Win32,60.0132029,5cfaab352e080000016ec742,626b377229c10585ec392f89,626b3952ce43f9be9845f73d,,,,,,,,,,,,,,,,,,,,,,,a,1,3.1201,"[""0.272"",""0.474"",""0.847"",""0.959""]","[1,0,1,1]",0,25,25,25,1,0,0,,,1,FALSE,,,,,,,,,,,,,,,,,,,,,,,,,,,,,,
,5cfaab352e080000016ec742,001,2022-04-29_03h03.56.802,classification_task,2021.2.3,Win32,60.0132029,5cfaab352e080000016ec742,626b377229c10585ec392f89,626b3952ce43f9be9845f73d,,,,,,,,,,,,,,,,,,,,,,,l,1,1.1912,"[""0.055"",""0.092"",""0.514"",""0.477""]","[1,1,1,0]",0,26,26,26,1,1,0,,,1,FALSE,,,,,,,,,,,,,,,,,,,,,,,,,,,,,,
,5cfaab352e080000016ec742,001,2022-04-29_03h03.56.802,classification_task,2021.2.3,Win32,60.0132029,5cfaab352e080000016ec742,626b377229c10585ec392f89,626b3952ce43f9be9845f73d,,,,,,,,,,,,,,,,,,,,,,,l,1,3.3227,"[""0.146"",""0.218"",""0.780"",""0.741""]","[1,1,0,1]",0,27,27,27,1,1,1,,,1,FALSE,,,,,,,,,,,,,,,,,,,,,,,,,,,,,,
,5cfaab352e080000016ec742,001,2022-04-29_03h03.56.802,classification_task,2021.2.3,Win32,60.0132029,5cfaab352e080000016ec742,626b377229c10585ec392f89,626b3952ce43f9be9845f73d,,,,,,,,,,,,,,,,,,,,,,,l,0,4.5334,"[""0.306"",""0.377"",""0.182"",""0.917""]","[1,1,0,1]",0,28,28,28,1,0,1,,,1,FALSE,,,,,,,,,,,,,,,,,,,,,,,,,,,,,,
,5cfaab352e080000016ec742,001,2022-04-29_03h03.56.802,classification_task,2021.2.3,Win32,60.0132029,5cfaab352e080000016ec742,626b377229c10585ec392f89,626b3952ce43f9be9845f73d,,,,,,,,,,,,,,,,,,,,,,,a,1,2.775,"[""0.306"",""0.881"",""0.604"",""0.917""]","[1,0,1,1]",0,29,29,29,1,0,1,,,1,FALSE,,,,,,,,,,,,,,,,,,,,,,,,,,,,,,
,5cfaab352e080000016ec742,001,2022-04-29_03h03.56.802,classification_task,2021.2.3,Win32,60.0132029,5cfaab352e080000016ec742,626b377229c10585ec392f89,626b3952ce43f9be9845f73d,,,,,,,,,,,,,,,,,,,,,,,a,1,2.1616,"[""0.272"",""0.436"",""0.847"",""0.800""]","[1,1,1,0]",0,30,30,30,1,0,0,,,1,FALSE,,,,,,,,,,,,,,,,,,,,,,,,,,,,,,
,5cfaab352e080000016ec742,001,2022-04-29_03h03.56.802,classification_task,2021.2.3,Win32,60.0132029,5cfaab352e080000016ec742,626b377229c10585ec392f89,626b3952ce43f9be9845f73d,,,,,,,,,,,,,,,,,,,,,,,l,1,2.4924,"[""0.146"",""0.218"",""0.559"",""0.640""]","[1,1,1,0]",0,31,31,31,1,1,1,,,1,FALSE,,,,,,,,,,,,,,,,,,,,,,,,,,,,,,
,5cfaab352e080000016ec742,001,2022-04-29_03h03.56.802,classification_task,2021.2.3,Win32,60.0132029,5cfaab352e080000016ec742,626b377229c10585ec392f89,626b3952ce43f9be9845f73d,,,,,,,,,,,,,,,,,,,,,,,l,1,2.5446,"[""0.146"",""0.218"",""0.798"",""0.741""]","[1,1,0,1]",0,32,32,32,1,1,1,,,1,FALSE,,,,,,,,,,,,,,,,,,,,,,,,,,,,,,
,5cfaab352e080000016ec742,001,2022-04-29_03h03.56.802,classification_task,2021.2.3,Win32,60.0132029,5cfaab352e080000016ec742,626b377229c10585ec392f89,626b3952ce43f9be9845f73d,,,,,,,,,,,,,,,,,,,,,,,a,1,1.1995,"[""0.272"",""0.796"",""0.847"",""0.959""]","[1,0,1,1]",0,33,33,33,1,0,0,,,1,FALSE,,,,,,,,,,,,,,,,,,,,,,,,,,,,,,
,5cfaab352e080000016ec742,001,2022-04-29_03h03.56.802,classification_task,2021.2.3,Win32,60.0132029,5cfaab352e080000016ec742,626b377229c10585ec392f89,626b3952ce43f9be9845f73d,,,,,,,,,,,,,,,,,,,,,,,l,0,1.3647,"[""0.182"",""0.377"",""0.604"",""0.917""]","[0,1,1,1]",0,34,34,34,1,0,1,,,1,FALSE,,,,,,,,,,,,,,,,,,,,,,,,,,,,,,
,5cfaab352e080000016ec742,001,2022-04-29_03h03.56.802,classification_task,2021.2.3,Win32,60.0132029,5cfaab352e080000016ec742,626b377229c10585ec392f89,626b3952ce43f9be9845f73d,,,,,,,,,,,,,,,,,,,,,,,l,1,1.0095,"[""0.055"",""0.798"",""0.514"",""0.704""]","[1,0,1,1]",0,35,35,35,1,1,0,,,1,FALSE,,,,,,,,,,,,,,,,,,,,,,,,,,,,,,
,5cfaab352e080000016ec742,001,2022-04-29_03h03.56.802,classification_task,2021.2.3,Win32,60.0132029,5cfaab352e080000016ec742,626b377229c10585ec392f89,626b3952ce43f9be9845f73d,,,,,,,,,,,,,,,,,,,,,,,a,1,0.9398,"[""0.272"",""0.436"",""0.880"",""0.959""]","[1,1,0,1]",0,36,36,36,1,0,0,,,1,FALSE,,,,,,,,,,,,,,,,,,,,,,,,,,,,,,
,5cfaab352e080000016ec742,001,2022-04-29_03h03.56.802,classification_task,2021.2.3,Win32,60.0132029,5cfaab352e080000016ec742,626b377229c10585ec392f89,626b3952ce43f9be9845f73d,,,,,,,,,,,,,,,,,,,,,,,l,0,1.5795,"[""0.306"",""0.646"",""0.604"",""0.917""]","[1,0,1,1]",0,37,37,37,1,0,1,,,1,FALSE,,,,,,,,,,,,,,,,,,,,,,,,,,,,,,
,5cfaab352e080000016ec742,001,2022-04-29_03h03.56.802,classification_task,2021.2.3,Win32,60.0132029,5cfaab352e080000016ec742,626b377229c10585ec392f89,626b3952ce43f9be9845f73d,,,,,,,,,,,,,,,,,,,,,,,a,1,0.8469,"[""0.306"",""0.377"",""0.604"",""0.643""]","[1,1,1,0]",0,38,38,38,1,0,1,,,1,FALSE,,,,,,,,,,,,,,,,,,,,,,,,,,,,,,
,5cfaab352e080000016ec742,001,2022-04-29_03h03.56.802,classification_task,2021.2.3,Win32,60.0132029,5cfaab352e080000016ec742,626b377229c10585ec392f89,626b3952ce43f9be9845f73d,,,,,,,,,,,,,,,,,,,,,,,l,0,1.4168,"[""0.643"",""0.436"",""0.847"",""0.959""]","[0,1,1,1]",0,39,39,39,1,0,0,,,1,FALSE,,,,,,,,,,,,,,,,,,,,,,,,,,,,,,
,5cfaab352e080000016ec742,001,2022-04-29_03h03.56.802,classification_task,2021.2.3,Win32,60.0132029,5cfaab352e080000016ec742,626b377229c10585ec392f89,626b3952ce43f9be9845f73d,,,,,,,,,,,,,,,,,,,,,,,a,1,1.17,"[""0.306"",""0.377"",""0.477"",""0.917""]","[1,1,0,1]",0,40,40,40,1,0,1,,,1,FALSE,,,,,,,,,,,,,,,,,,,,,,,,,,,,,,
,5cfaab352e080000016ec742,001,2022-04-29_03h03.56.802,classification_task,2021.2.3,Win32,60.0132029,5cfaab352e080000016ec742,626b377229c10585ec392f89,626b3952ce43f9be9845f73d,,,,,,,,,,,,,,,,,,,,,,,a,0,1.4864,"[""0.474"",""0.218"",""0.559"",""0.741""]","[0,1,1,1]",0,41,41,41,1,1,1,,,1,FALSE,,,,,,,,,,,,,,,,,,,,,,,,,,,,,,
,5cfaab352e080000016ec742,001,2022-04-29_03h03.56.802,classification_task,2021.2.3,Win32,60.0132029,5cfaab352e080000016ec742,626b377229c10585ec392f89,626b3952ce43f9be9845f73d,,,,,,,,,,,,,,,,,,,,,,,l,1,0.9564,"[""0.055"",""0.092"",""0.514"",""0.646""]","[1,1,1,0]",0,42,42,42,1,1,0,,,1,FALSE,,,,,,,,,,,,,,,,,,,,,,,,,,,,,,
,5cfaab352e080000016ec742,001,2022-04-29_03h03.56.802,classification_task,2021.2.3,Win32,60.0132029,5cfaab352e080000016ec742,626b377229c10585ec392f89,626b3952ce43f9be9845f73d,,,,,,,,,,,,,,,,,,,,,,,a,0,1.0972,"[""0.146"",""0.218"",""0.559"",""0.666""]","[1,1,1,0]",0,43,43,43,1,1,1,,,1,FALSE,,,,,,,,,,,,,,,,,,,,,,,,,,,,,,
,5cfaab352e080000016ec742,001,2022-04-29_03h03.56.802,classification_task,2021.2.3,Win32,60.0132029,5cfaab352e080000016ec742,626b377229c10585ec392f89,626b3952ce43f9be9845f73d,,,,,,,,,,,,,,,,,,,,,,,l,0,0.7664,"[""0.272"",""0.436"",""0.847"",""0.800""]","[1,1,1,0]",0,44,44,44,1,0,0,,,1,FALSE,,,,,,,,,,,,,,,,,,,,,,,,,,,,,,
,5cfaab352e080000016ec742,001,2022-04-29_03h03.56.802,classification_task,2021.2.3,Win32,60.0132029,5cfaab352e080000016ec742,626b377229c10585ec392f89,626b3952ce43f9be9845f73d,,,,,,,,,,,,,,,,,,,,,,,a,0,0.5141,"[""0.182"",""0.092"",""0.514"",""0.704""]","[0,1,1,1]",0,45,45,45,1,1,0,,,1,FALSE,,,,,,,,,,,,,,,,,,,,,,,,,,,,,,
,5cfaab352e080000016ec742,001,2022-04-29_03h03.56.802,classification_task,2021.2.3,Win32,60.0132029,5cfaab352e080000016ec742,626b377229c10585ec392f89,626b3952ce43f9be9845f73d,,,,,,,,,,,,,,,,,,,,,,,l,1,0.7643,"[""0.055"",""0.092"",""0.880"",""0.704""]","[1,1,0,1]",0,46,46,46,1,1,0,,,1,FALSE,,,,,,,,,,,,,,,,,,,,,,,,,,,,,,
,5cfaab352e080000016ec742,001,2022-04-29_03h03.56.802,classification_task,2021.2.3,Win32,60.0132029,5cfaab352e080000016ec742,626b377229c10585ec392f89,626b3952ce43f9be9845f73d,,,,,,,,,,,,,,,,,,,,,,,l,1,1.7391,"[""0.146"",""0.881"",""0.559"",""0.741""]","[1,0,1,1]",0,47,47,47,1,1,1,,,1,FALSE,,,,,,,,,,,,,,,,,,,,,,,,,,,,,,
,5cfaab352e080000016ec742,001,2022-04-29_03h03.56.802,classification_task,2021.2.3,Win32,60.0132029,5cfaab352e080000016ec742,626b377229c10585ec392f89,626b3952ce43f9be9845f73d,,,,,,,,,,,,,,,,,,,,,,,l,1,0.7449,"[""0.055"",""0.092"",""0.881"",""0.704""]","[1,1,0,1]",0,48,48,48,1,1,0,,,1,FALSE,,,,,,,,,,,,,,,,,,,,,,,,,,,,,,
,5cfaab352e080000016ec742,001,2022-04-29_03h03.56.802,classification_task,2021.2.3,Win32,60.0132029,5cfaab352e080000016ec742,626b377229c10585ec392f89,626b3952ce43f9be9845f73d,,,,,,,,,,,,,,,,,,,,,,,a,0,1.5824,"[""0.146"",""0.218"",""0.559"",""0.640""]","[1,1,1,0]",0,49,49,49,1,1,1,,,1,FALSE,,,,,,,,,,,,,,,,,,,,,,,,,,,,,,
,5cfaab352e080000016ec742,001,2022-04-29_03h03.56.802,classification_task,2021.2.3,Win32,60.0132029,5cfaab352e080000016ec742,626b377229c10585ec392f89,626b3952ce43f9be9845f73d,,,,,,,,,,,,,,,,,,,,,,,l,0,0.9288,"[""0.306"",""0.377"",""0.666"",""0.917""]","[1,1,0,1]",0,50,50,50,1,0,1,,,1,FALSE,,,,,,,,,,,,,,,,,,,,,,,,,,,,,,
,5cfaab352e080000016ec742,001,2022-04-29_03h03.56.802,classification_task,2021.2.3,Win32,60.0132029,5cfaab352e080000016ec742,626b377229c10585ec392f89,626b3952ce43f9be9845f73d,,,,,,,,,,,,,,,,,,,,,,,l,1,1.0033,"[""0.780"",""0.218"",""0.559"",""0.741""]","[0,1,1,1]",0,51,51,51,1,1,1,,,1,FALSE,,,,,,,,,,,,,,,,,,,,,,,,,,,,,,
,5cfaab352e080000016ec742,001,2022-04-29_03h03.56.802,classification_task,2021.2.3,Win32,60.0132029,5cfaab352e080000016ec742,626b377229c10585ec392f89,626b3952ce43f9be9845f73d,,,,,,,,,,,,,,,,,,,,,,,l,1,1.1849,"[""0.146"",""0.881"",""0.559"",""0.741""]","[1,0,1,1]",0,52,52,52,1,1,1,,,1,FALSE,,,,,,,,,,,,,,,,,,,,,,,,,,,,,,
,5cfaab352e080000016ec742,001,2022-04-29_03h03.56.802,classification_task,2021.2.3,Win32,60.0132029,5cfaab352e080000016ec742,626b377229c10585ec392f89,626b3952ce43f9be9845f73d,,,,,,,,,,,,,,,,,,,,,,,a,0,0.934,"[""0.798"",""0.092"",""0.514"",""0.704""]","[0,1,1,1]",0,53,53,53,1,1,0,,,1,FALSE,,,,,,,,,,,,,,,,,,,,,,,,,,,,,,
,5cfaab352e080000016ec742,001,2022-04-29_03h03.56.802,classification_task,2021.2.3,Win32,60.0132029,5cfaab352e080000016ec742,626b377229c10585ec392f89,626b3952ce43f9be9845f73d,,,,,,,,,,,,,,,,,,,,,,,a,0,0.9173,"[""0.055"",""0.881"",""0.514"",""0.704""]","[1,0,1,1]",0,54,54,54,1,1,0,,,1,FALSE,,,,,,,,,,,,,,,,,,,,,,,,,,,,,,
,5cfaab352e080000016ec742,001,2022-04-29_03h03.56.802,classification_task,2021.2.3,Win32,60.0132029,5cfaab352e080000016ec742,626b377229c10585ec392f89,626b3952ce43f9be9845f73d,,,,,,,,,,,,,,,,,,,,,,,a,1,2.0518,"[""0.272"",""0.646"",""0.847"",""0.959""]","[1,0,1,1]",0,55,55,55,1,0,0,,,1,FALSE,,,,,,,,,,,,,,,,,,,,,,,,,,,,,,
,5cfaab352e080000016ec742,001,2022-04-29_03h03.56.802,classification_task,2021.2.3,Win32,60.0132029,5cfaab352e080000016ec742,626b377229c10585ec392f89,626b3952ce43f9be9845f73d,,,,,,,,,,,,,,,,,,,,,,,l,0,0.8543,"[""0.646"",""0.436"",""0.847"",""0.959""]","[0,1,1,1]",0,56,56,56,1,0,0,,,1,FALSE,,,,,,,,,,,,,,,,,,,,,,,,,,,,,,
,5cfaab352e080000016ec742,001,2022-04-29_03h03.56.802,classification_task,2021.2.3,Win32,60.0132029,5cfaab352e080000016ec742,626b377229c10585ec392f89,626b3952ce43f9be9845f73d,,,,,,,,,,,,,,,,,,,,,,,l,0,0.9193,"[""0.306"",""0.377"",""0.604"",""0.881""]","[1,1,1,0]",0,57,57,57,1,0,1,,,1,FALSE,,,,,,,,,,,,,,,,,,,,,,,,,,,,,,
,5cfaab352e080000016ec742,001,2022-04-29_03h03.56.802,classification_task,2021.2.3,Win32,60.0132029,5cfaab352e080000016ec742,626b377229c10585ec392f89,626b3952ce43f9be9845f73d,,,,,,,,,,,,,,,,,,,,,,,a,1,1.06,"[""0.272"",""0.436"",""0.847"",""0.640""]","[1,1,1,0]",0,58,58,58,1,0,0,,,1,FALSE,,,,,,,,,,,,,,,,,,,,,,,,,,,,,,
,5cfaab352e080000016ec742,001,2022-04-29_03h03.56.802,classification_task,2021.2.3,Win32,60.0132029,5cfaab352e080000016ec742,626b377229c10585ec392f89,626b3952ce43f9be9845f73d,,,,,,,,,,,,,,,,,,,,,,,a,0,1.0259,"[""0.146"",""0.218"",""0.656"",""0.741""]","[1,1,0,1]",0,59,59,59,1,1,1,,,1,FALSE,,,,,,,,,,,,,,,,,,,,,,,,,,,,,,
,5cfaab352e080000016ec742,001,2022-04-29_03h03.56.802,classification_task,2021.2.3,Win32,60.0132029,5cfaab352e080000016ec742,626b377229c10585ec392f89,626b3952ce43f9be9845f73d,,,,,,,,,,,,,,,,,,,,,,,l,0,1.2816,"[""0.306"",""0.477"",""0.604"",""0.917""]","[1,0,1,1]",0,60,60,60,1,0,1,,,1,FALSE,,,,,,,,,,,,,,,,,,,,,,,,,,,,,,
,5cfaab352e080000016ec742,001,2022-04-29_03h03.56.802,classification_task,2021.2.3,Win32,60.0132029,5cfaab352e080000016ec742,626b377229c10585ec392f89,626b3952ce43f9be9845f73d,,,,,,,,,,,,,,,,,,,,,,,a,1,0.7307,"[""0.272"",""0.436"",""0.881"",""0.959""]","[1,1,0,1]",0,61,61,61,1,0,0,,,1,FALSE,,,,,,,,,,,,,,,,,,,,,,,,,,,,,,
,5cfaab352e080000016ec742,001,2022-04-29_03h03.56.802,classification_task,2021.2.3,Win32,60.0132029,5cfaab352e080000016ec742,626b377229c10585ec392f89,626b3952ce43f9be9845f73d,,,,,,,,,,,,,,,,,,,,,,,l,0,1.0613,"[""0.666"",""0.377"",""0.604"",""0.917""]","[0,1,1,1]",0,62,62,62,1,0,1,,,1,FALSE,,,,,,,,,,,,,,,,,,,,,,,,,,,,,,
,5cfaab352e080000016ec742,001,2022-04-29_03h03.56.802,classification_task,2021.2.3,Win32,60.0132029,5cfaab352e080000016ec742,626b377229c10585ec392f89,626b3952ce43f9be9845f73d,,,,,,,,,,,,,,,,,,,,,,,l,1,0.8797,"[""0.055"",""0.092"",""0.514"",""0.656""]","[1,1,1,0]",0,63,63,63,1,1,0,,,1,FALSE,,,,,,,,,,,,,,,,,,,,,,,,,,,,,,
,5cfaab352e080000016ec742,001,2022-04-29_03h03.56.802,classification_task,2021.2.3,Win32,60.0132029,5cfaab352e080000016ec742,626b377229c10585ec392f89,626b3952ce43f9be9845f73d,,,,,,,,,,,,,,,,,,,,,,,,,,,,,,,,,,,,,,,0, ,,0,9.927248677,833.3741,0,0,0,0,1,2,1,,,,,,,,,,,,,,,,,
,5cfaab352e080000016ec742,001,2022-04-29_03h03.56.802,classification_task,2021.2.3,Win32,60.0132029,5cfaab352e080000016ec742,626b377229c10585ec392f89,626b3952ce43f9be9845f73d,,,,,,,,,,,,,,,,,,,,,,,,,,,,,,,,,,,,,,,1,  ,,0,8.306878307,844.6171,0,0,0,0,1,2,1,,,,,,,,,,,,,,,,,
,5cfaab352e080000016ec742,001,2022-04-29_03h03.56.802,classification_task,2021.2.3,Win32,60.0132029,5cfaab352e080000016ec742,626b377229c10585ec392f89,626b3952ce43f9be9845f73d,,,,,,,,,,,,,,,,,,,,,,,,,,,,,,,,,,,,,,,2,  ,,0,4.735449735,846.939,0,0,0,0,1,2,1,,,,,,,,,,,,,,,,,
,5cfaab352e080000016ec742,001,2022-04-29_03h03.56.802,classification_task,2021.2.3,Win32,60.0132029,5cfaab352e080000016ec742,626b377229c10585ec392f89,626b3952ce43f9be9845f73d,,,,,,,,,,,,,,,,,,,,,,,,,,,,,,,,,,,,,,,,,,,,,0,0,0,0,1,,1,,,,,,,,,,,,,,,,,
,5cfaab352e080000016ec742,001,2022-04-29_03h03.56.802,classification_task,2021.2.3,Win32,60.0132029,5cfaab352e080000016ec742,626b377229c10585ec392f89,626b3952ce43f9be9845f73d,,,,,,,,,,,,,,,,,,,,,space,13.318,l,1,4.7881,"[""0.146"",""0.218"",""0.559"",""0.182""]","[1,1,1,0]",0,0,0,0,1,1,1,,,1,FALSE,,,,,,,,,,,,,,,,,,,,,,,,,,,,,,
,5cfaab352e080000016ec742,001,2022-04-29_03h03.56.802,classification_task,2021.2.3,Win32,60.0132029,5cfaab352e080000016ec742,626b377229c10585ec392f89,626b3952ce43f9be9845f73d,,,,,,,,,,,,,,,,,,,,,,,l,0,2.4495,"[""0.306"",""0.182"",""0.604"",""0.917""]","[1,0,1,1]",0,1,1,1,1,0,1,,,1,FALSE,,,,,,,,,,,,,,,,,,,,,,,,,,,,,,
,5cfaab352e080000016ec742,001,2022-04-29_03h03.56.802,classification_task,2021.2.3,Win32,60.0132029,5cfaab352e080000016ec742,626b377229c10585ec392f89,626b3952ce43f9be9845f73d,,,,,,,,,,,,,,,,,,,,,,,l,1,0.9934,"[""0.666"",""0.218"",""0.559"",""0.741""]","[0,1,1,1]",0,2,2,2,1,1,1,,,1,FALSE,,,,,,,,,,,,,,,,,,,,,,,,,,,,,,
,5cfaab352e080000016ec742,001,2022-04-29_03h03.56.802,classification_task,2021.2.3,Win32,60.0132029,5cfaab352e080000016ec742,626b377229c10585ec392f89,626b3952ce43f9be9845f73d,,,,,,,,,,,,,,,,,,,,,,,a,1,1.1731,"[""0.272"",""0.436"",""0.847"",""0.780""]","[1,1,1,0]",0,3,3,3,1,0,0,,,1,FALSE,,,,,,,,,,,,,,,,,,,,,,,,,,,,,,
,5cfaab352e080000016ec742,001,2022-04-29_03h03.56.802,classification_task,2021.2.3,Win32,60.0132029,5cfaab352e080000016ec742,626b377229c10585ec392f89,626b3952ce43f9be9845f73d,,,,,,,,,,,,,,,,,,,,,,,a,1,0.738,"[""0.643"",""0.436"",""0.847"",""0.959""]","[0,1,1,1]",0,4,4,4,1,0,0,,,1,FALSE,,,,,,,,,,,,,,,,,,,,,,,,,,,,,,
,5cfaab352e080000016ec742,001,2022-04-29_03h03.56.802,classification_task,2021.2.3,Win32,60.0132029,5cfaab352e080000016ec742,626b377229c10585ec392f89,626b3952ce43f9be9845f73d,,,,,,,,,,,,,,,,,,,,,,,a,1,0.799,"[""0.306"",""0.377"",""0.474"",""0.917""]","[1,1,0,1]",0,5,5,5,1,0,1,,,1,FALSE,,,,,,,,,,,,,,,,,,,,,,,,,,,,,,
,5cfaab352e080000016ec742,001,2022-04-29_03h03.56.802,classification_task,2021.2.3,Win32,60.0132029,5cfaab352e080000016ec742,626b377229c10585ec392f89,626b3952ce43f9be9845f73d,,,,,,,,,,,,,,,,,,,,,,,a,0,0.5552,"[""0.055"",""0.640"",""0.514"",""0.704""]","[1,0,1,1]",0,6,6,6,1,1,0,,,1,FALSE,,,,,,,,,,,,,,,,,,,,,,,,,,,,,,
,5cfaab352e080000016ec742,001,2022-04-29_03h03.56.802,classification_task,2021.2.3,Win32,60.0132029,5cfaab352e080000016ec742,626b377229c10585ec392f89,626b3952ce43f9be9845f73d,,,,,,,,,,,,,,,,,,,,,,,a,1,2.0788,"[""0.272"",""0.436"",""0.780"",""0.959""]","[1,1,0,1]",0,7,7,7,1,0,0,,,1,FALSE,,,,,,,,,,,,,,,,,,,,,,,,,,,,,,
,5cfaab352e080000016ec742,001,2022-04-29_03h03.56.802,classification_task,2021.2.3,Win32,60.0132029,5cfaab352e080000016ec742,626b377229c10585ec392f89,626b3952ce43f9be9845f73d,,,,,,,,,,,,,,,,,,,,,,,a,1,1.5272,"[""0.306"",""0.377"",""0.604"",""0.477""]","[1,1,1,0]",0,8,8,8,1,0,1,,,1,FALSE,,,,,,,,,,,,,,,,,,,,,,,,,,,,,,
,5cfaab352e080000016ec742,001,2022-04-29_03h03.56.802,classification_task,2021.2.3,Win32,60.0132029,5cfaab352e080000016ec742,626b377229c10585ec392f89,626b3952ce43f9be9845f73d,,,,,,,,,,,,,,,,,,,,,,,l,1,1.1364,"[""0.055"",""0.092"",""0.514"",""0.881""]","[1,1,1,0]",0,9,9,9,1,1,0,,,1,FALSE,,,,,,,,,,,,,,,,,,,,,,,,,,,,,,
,5cfaab352e080000016ec742,001,2022-04-29_03h03.56.802,classification_task,2021.2.3,Win32,60.0132029,5cfaab352e080000016ec742,626b377229c10585ec392f89,626b3952ce43f9be9845f73d,,,,,,,,,,,,,,,,,,,,,,,l,1,1.4771,"[""0.146"",""0.218"",""0.640"",""0.741""]","[1,1,0,1]",0,10,10,10,1,1,1,,,1,FALSE,,,,,,,,,,,,,,,,,,,,,,,,,,,,,,
,5cfaab352e080000016ec742,001,2022-04-29_03h03.56.802,classification_task,2021.2.3,Win32,60.0132029,5cfaab352e080000016ec742,626b377229c10585ec392f89,626b3952ce43f9be9845f73d,,,,,,,,,,,,,,,,,,,,,,,a,1,1.0829,"[""0.272"",""0.640"",""0.847"",""0.959""]","[1,0,1,1]",0,11,11,11,1,0,0,,,1,FALSE,,,,,,,,,,,,,,,,,,,,,,,,,,,,,,
,5cfaab352e080000016ec742,001,2022-04-29_03h03.56.802,classification_task,2021.2.3,Win32,60.0132029,5cfaab352e080000016ec742,626b377229c10585ec392f89,626b3952ce43f9be9845f73d,,,,,,,,,,,,,,,,,,,,,,,l,1,1.5309,"[""0.146"",""0.646"",""0.559"",""0.741""]","[1,0,1,1]",0,12,12,12,1,1,1,,,1,FALSE,,,,,,,,,,,,,,,,,,,,,,,,,,,,,,
,5cfaab352e080000016ec742,001,2022-04-29_03h03.56.802,classification_task,2021.2.3,Win32,60.0132029,5cfaab352e080000016ec742,626b377229c10585ec392f89,626b3952ce43f9be9845f73d,,,,,,,,,,,,,,,,,,,,,,,a,1,1.2107,"[""0.182"",""0.377"",""0.604"",""0.917""]","[0,1,1,1]",0,13,13,13,1,0,1,,,1,FALSE,,,,,,,,,,,,,,,,,,,,,,,,,,,,,,
,5cfaab352e080000016ec742,001,2022-04-29_03h03.56.802,classification_task,2021.2.3,Win32,60.0132029,5cfaab352e080000016ec742,626b377229c10585ec392f89,626b3952ce43f9be9845f73d,,,,,,,,,,,,,,,,,,,,,,,l,1,0.9286,"[""0.055"",""0.092"",""0.474"",""0.704""]","[1,1,0,1]",0,14,14,14,1,1,0,,,1,FALSE,,,,,,,,,,,,,,,,,,,,,,,,,,,,,,
,5cfaab352e080000016ec742,001,2022-04-29_03h03.56.802,classification_task,2021.2.3,Win32,60.0132029,5cfaab352e080000016ec742,626b377229c10585ec392f89,626b3952ce43f9be9845f73d,,,,,,,,,,,,,,,,,,,,,,,l,1,0.9607,"[""0.796"",""0.092"",""0.514"",""0.704""]","[0,1,1,1]",0,15,15,15,1,1,0,,,1,FALSE,,,,,,,,,,,,,,,,,,,,,,,,,,,,,,
,5cfaab352e080000016ec742,001,2022-04-29_03h03.56.802,classification_task,2021.2.3,Win32,60.0132029,5cfaab352e080000016ec742,626b377229c10585ec392f89,626b3952ce43f9be9845f73d,,,,,,,,,,,,,,,,,,,,,,,a,0,1.8235,"[""0.146"",""0.218"",""0.559"",""0.640""]","[1,1,1,0]",0,16,16,16,1,1,1,,,1,FALSE,,,,,,,,,,,,,,,,,,,,,,,,,,,,,,
,5cfaab352e080000016ec742,001,2022-04-29_03h03.56.802,classification_task,2021.2.3,Win32,60.0132029,5cfaab352e080000016ec742,626b377229c10585ec392f89,626b3952ce43f9be9845f73d,,,,,,,,,,,,,,,,,,,,,,,l,1,0.7942,"[""0.055"",""0.881"",""0.514"",""0.704""]","[1,0,1,1]",0,17,17,17,1,1,0,,,1,FALSE,,,,,,,,,,,,,,,,,,,,,,,,,,,,,,
,5cfaab352e080000016ec742,001,2022-04-29_03h03.56.802,classification_task,2021.2.3,Win32,60.0132029,5cfaab352e080000016ec742,626b377229c10585ec392f89,626b3952ce43f9be9845f73d,,,,,,,,,,,,,,,,,,,,,,,l,0,1.1415,"[""0.881"",""0.377"",""0.604"",""0.917""]","[0,1,1,1]",0,18,18,18,1,0,1,,,1,FALSE,,,,,,,,,,,,,,,,,,,,,,,,,,,,,,
,5cfaab352e080000016ec742,001,2022-04-29_03h03.56.802,classification_task,2021.2.3,Win32,60.0132029,5cfaab352e080000016ec742,626b377229c10585ec392f89,626b3952ce43f9be9845f73d,,,,,,,,,,,,,,,,,,,,,,,a,0,1.2258,"[""0.146"",""0.798"",""0.559"",""0.741""]","[1,0,1,1]",0,19,19,19,1,1,1,,,1,FALSE,,,,,,,,,,,,,,,,,,,,,,,,,,,,,,
,5cfaab352e080000016ec742,001,2022-04-29_03h03.56.802,classification_task,2021.2.3,Win32,60.0132029,5cfaab352e080000016ec742,626b377229c10585ec392f89,626b3952ce43f9be9845f73d,,,,,,,,,,,,,,,,,,,,,,,a,1,1.0268,"[""0.272"",""0.436"",""0.640"",""0.959""]","[1,1,0,1]",0,20,20,20,1,0,0,,,1,FALSE,,,,,,,,,,,,,,,,,,,,,,,,,,,,,,
,5cfaab352e080000016ec742,001,2022-04-29_03h03.56.802,classification_task,2021.2.3,Win32,60.0132029,5cfaab352e080000016ec742,626b377229c10585ec392f89,626b3952ce43f9be9845f73d,,,,,,,,,,,,,,,,,,,,,,,l,1,0.9855,"[""0.477"",""0.218"",""0.559"",""0.741""]","[0,1,1,1]",0,21,21,21,1,1,1,,,1,FALSE,,,,,,,,,,,,,,,,,,,,,,,,,,,,,,
,5cfaab352e080000016ec742,001,2022-04-29_03h03.56.802,classification_task,2021.2.3,Win32,60.0132029,5cfaab352e080000016ec742,626b377229c10585ec392f89,626b3952ce43f9be9845f73d,,,,,,,,,,,,,,,,,,,,,,,a,1,1.352,"[""0.780"",""0.436"",""0.847"",""0.959""]","[0,1,1,1]",0,22,22,22,1,0,0,,,1,FALSE,,,,,,,,,,,,,,,,,,,,,,,,,,,,,,
,5cfaab352e080000016ec742,001,2022-04-29_03h03.56.802,classification_task,2021.2.3,Win32,60.0132029,5cfaab352e080000016ec742,626b377229c10585ec392f89,626b3952ce43f9be9845f73d,,,,,,,,,,,,,,,,,,,,,,,a,1,1.0658,"[""0.306"",""0.377"",""0.798"",""0.917""]","[1,1,0,1]",0,23,23,23,1,0,1,,,1,FALSE,,,,,,,,,,,,,,,,,,,,,,,,,,,,,,
,5cfaab352e080000016ec742,001,2022-04-29_03h03.56.802,classification_task,2021.2.3,Win32,60.0132029,5cfaab352e080000016ec742,626b377229c10585ec392f89,626b3952ce43f9be9845f73d,,,,,,,,,,,,,,,,,,,,,,,l,1,0.9132,"[""0.055"",""0.092"",""0.182"",""0.704""]","[1,1,0,1]",0,24,24,24,1,1,0,,,1,FALSE,,,,,,,,,,,,,,,,,,,,,,,,,,,,,,
,5cfaab352e080000016ec742,001,2022-04-29_03h03.56.802,classification_task,2021.2.3,Win32,60.0132029,5cfaab352e080000016ec742,626b377229c10585ec392f89,626b3952ce43f9be9845f73d,,,,,,,,,,,,,,,,,,,,,,,a,1,1.0935,"[""0.306"",""0.798"",""0.604"",""0.917""]","[1,0,1,1]",0,25,25,25,1,0,1,,,1,FALSE,,,,,,,,,,,,,,,,,,,,,,,,,,,,,,
,5cfaab352e080000016ec742,001,2022-04-29_03h03.56.802,classification_task,2021.2.3,Win32,60.0132029,5cfaab352e080000016ec742,626b377229c10585ec392f89,626b3952ce43f9be9845f73d,,,,,,,,,,,,,,,,,,,,,,,a,1,0.787,"[""0.306"",""0.377"",""0.604"",""0.656""]","[1,1,1,0]",0,26,26,26,1,0,1,,,1,FALSE,,,,,,,,,,,,,,,,,,,,,,,,,,,,,,
,5cfaab352e080000016ec742,001,2022-04-29_03h03.56.802,classification_task,2021.2.3,Win32,60.0132029,5cfaab352e080000016ec742,626b377229c10585ec392f89,626b3952ce43f9be9845f73d,,,,,,,,,,,,,,,,,,,,,,,l,1,0.8347,"[""0.055"",""0.092"",""0.514"",""0.477""]","[1,1,1,0]",0,27,27,27,1,1,0,,,1,FALSE,,,,,,,,,,,,,,,,,,,,,,,,,,,,,,
,5cfaab352e080000016ec742,001,2022-04-29_03h03.56.802,classification_task,2021.2.3,Win32,60.0132029,5cfaab352e080000016ec742,626b377229c10585ec392f89,626b3952ce43f9be9845f73d,,,,,,,,,,,,,,,,,,,,,,,a,0,1.5493,"[""0.146"",""0.218"",""0.800"",""0.741""]","[1,1,0,1]",0,28,28,28,1,1,1,,,1,FALSE,,,,,,,,,,,,,,,,,,,,,,,,,,,,,,
,5cfaab352e080000016ec742,001,2022-04-29_03h03.56.802,classification_task,2021.2.3,Win32,60.0132029,5cfaab352e080000016ec742,626b377229c10585ec392f89,626b3952ce43f9be9845f73d,,,,,,,,,,,,,,,,,,,,,,,a,1,1.3606,"[""0.272"",""0.640"",""0.847"",""0.959""]","[1,0,1,1]",0,29,29,29,1,0,0,,,1,FALSE,,,,,,,,,,,,,,,,,,,,,,,,,,,,,,
,5cfaab352e080000016ec742,001,2022-04-29_03h03.56.802,classification_task,2021.2.3,Win32,60.0132029,5cfaab352e080000016ec742,626b377229c10585ec392f89,626b3952ce43f9be9845f73d,,,,,,,,,,,,,,,,,,,,,,,l,1,0.8588,"[""0.881"",""0.092"",""0.514"",""0.704""]","[0,1,1,1]",0,30,30,30,1,1,0,,,1,FALSE,,,,,,,,,,,,,,,,,,,,,,,,,,,,,,
,5cfaab352e080000016ec742,001,2022-04-29_03h03.56.802,classification_task,2021.2.3,Win32,60.0132029,5cfaab352e080000016ec742,626b377229c10585ec392f89,626b3952ce43f9be9845f73d,,,,,,,,,,,,,,,,,,,,,,,a,1,1.1395,"[""0.272"",""0.436"",""0.847"",""0.798""]","[1,1,1,0]",0,31,31,31,1,0,0,,,1,FALSE,,,,,,,,,,,,,,,,,,,,,,,,,,,,,,
,5cfaab352e080000016ec742,001,2022-04-29_03h03.56.802,classification_task,2021.2.3,Win32,60.0132029,5cfaab352e080000016ec742,626b377229c10585ec392f89,626b3952ce43f9be9845f73d,,,,,,,,,,,,,,,,,,,,,,,l,0,1.3189,"[""0.477"",""0.436"",""0.847"",""0.959""]","[0,1,1,1]",0,32,32,32,1,0,0,,,1,FALSE,,,,,,,,,,,,,,,,,,,,,,,,,,,,,,
,5cfaab352e080000016ec742,001,2022-04-29_03h03.56.802,classification_task,2021.2.3,Win32,60.0132029,5cfaab352e080000016ec742,626b377229c10585ec392f89,626b3952ce43f9be9845f73d,,,,,,,,,,,,,,,,,,,,,,,l,1,0.9352,"[""0.796"",""0.092"",""0.514"",""0.704""]","[0,1,1,1]",0,33,33,33,1,1,0,,,1,FALSE,,,,,,,,,,,,,,,,,,,,,,,,,,,,,,
,5cfaab352e080000016ec742,001,2022-04-29_03h03.56.802,classification_task,2021.2.3,Win32,60.0132029,5cfaab352e080000016ec742,626b377229c10585ec392f89,626b3952ce43f9be9845f73d,,,,,,,,,,,,,,,,,,,,,,,a,1,1.7121,"[""0.306"",""0.377"",""0.474"",""0.917""]","[1,1,0,1]",0,34,34,34,1,0,1,,,1,FALSE,,,,,,,,,,,,,,,,,,,,,,,,,,,,,,
,5cfaab352e080000016ec742,001,2022-04-29_03h03.56.802,classification_task,2021.2.3,Win32,60.0132029,5cfaab352e080000016ec742,626b377229c10585ec392f89,626b3952ce43f9be9845f73d,,,,,,,,,,,,,,,,,,,,,,,a,1,0.6833,"[""0.306"",""0.377"",""0.604"",""0.656""]","[1,1,1,0]",0,35,35,35,1,0,1,,,1,FALSE,,,,,,,,,,,,,,,,,,,,,,,,,,,,,,
,5cfaab352e080000016ec742,001,2022-04-29_03h03.56.802,classification_task,2021.2.3,Win32,60.0132029,5cfaab352e080000016ec742,626b377229c10585ec392f89,626b3952ce43f9be9845f73d,,,,,,,,,,,,,,,,,,,,,,,a,1,1.3331,"[""0.272"",""0.477"",""0.847"",""0.959""]","[1,0,1,1]",0,36,36,36,1,0,0,,,1,FALSE,,,,,,,,,,,,,,,,,,,,,,,,,,,,,,
,5cfaab352e080000016ec742,001,2022-04-29_03h03.56.802,classification_task,2021.2.3,Win32,60.0132029,5cfaab352e080000016ec742,626b377229c10585ec392f89,626b3952ce43f9be9845f73d,,,,,,,,,,,,,,,,,,,,,,,l,1,1.2828,"[""0.146"",""0.218"",""0.559"",""0.474""]","[1,1,1,0]",0,37,37,37,1,1,1,,,1,FALSE,,,,,,,,,,,,,,,,,,,,,,,,,,,,,,
,5cfaab352e080000016ec742,001,2022-04-29_03h03.56.802,classification_task,2021.2.3,Win32,60.0132029,5cfaab352e080000016ec742,626b377229c10585ec392f89,626b3952ce43f9be9845f73d,,,,,,,,,,,,,,,,,,,,,,,a,1,0.8988,"[""0.272"",""0.436"",""0.847"",""0.881""]","[1,1,1,0]",0,38,38,38,1,0,0,,,1,FALSE,,,,,,,,,,,,,,,,,,,,,,,,,,,,,,
,5cfaab352e080000016ec742,001,2022-04-29_03h03.56.802,classification_task,2021.2.3,Win32,60.0132029,5cfaab352e080000016ec742,626b377229c10585ec392f89,626b3952ce43f9be9845f73d,,,,,,,,,,,,,,,,,,,,,,,l,1,0.841,"[""0.146"",""0.218"",""0.640"",""0.741""]","[1,1,0,1]",0,39,39,39,1,1,1,,,1,FALSE,,,,,,,,,,,,,,,,,,,,,,,,,,,,,,
,5cfaab352e080000016ec742,001,2022-04-29_03h03.56.802,classification_task,2021.2.3,Win32,60.0132029,5cfaab352e080000016ec742,626b377229c10585ec392f89,626b3952ce43f9be9845f73d,,,,,,,,,,,,,,,,,,,,,,,a,0,1.1515,"[""0.880"",""0.218"",""0.559"",""0.741""]","[0,1,1,1]",0,40,40,40,1,1,1,,,1,FALSE,,,,,,,,,,,,,,,,,,,,,,,,,,,,,,
,5cfaab352e080000016ec742,001,2022-04-29_03h03.56.802,classification_task,2021.2.3,Win32,60.0132029,5cfaab352e080000016ec742,626b377229c10585ec392f89,626b3952ce43f9be9845f73d,,,,,,,,,,,,,,,,,,,,,,,a,1,1.2818,"[""0.272"",""0.436"",""0.646"",""0.959""]","[1,1,0,1]",0,41,41,41,1,0,0,,,1,FALSE,,,,,,,,,,,,,,,,,,,,,,,,,,,,,,
,5cfaab352e080000016ec742,001,2022-04-29_03h03.56.802,classification_task,2021.2.3,Win32,60.0132029,5cfaab352e080000016ec742,626b377229c10585ec392f89,626b3952ce43f9be9845f73d,,,,,,,,,,,,,,,,,,,,,,,l,1,0.7052,"[""0.055"",""0.092"",""0.514"",""0.780""]","[1,1,1,0]",0,42,42,42,1,1,0,,,1,FALSE,,,,,,,,,,,,,,,,,,,,,,,,,,,,,,
,5cfaab352e080000016ec742,001,2022-04-29_03h03.56.802,classification_task,2021.2.3,Win32,60.0132029,5cfaab352e080000016ec742,626b377229c10585ec392f89,626b3952ce43f9be9845f73d,,,,,,,,,,,,,,,,,,,,,,,a,0,1.0555,"[""0.146"",""0.798"",""0.559"",""0.741""]","[1,0,1,1]",0,43,43,43,1,1,1,,,1,FALSE,,,,,,,,,,,,,,,,,,,,,,,,,,,,,,
,5cfaab352e080000016ec742,001,2022-04-29_03h03.56.802,classification_task,2021.2.3,Win32,60.0132029,5cfaab352e080000016ec742,626b377229c10585ec392f89,626b3952ce43f9be9845f73d,,,,,,,,,,,,,,,,,,,,,,,a,1,1.249,"[""0.881"",""0.377"",""0.604"",""0.917""]","[0,1,1,1]",0,44,44,44,1,0,1,,,1,FALSE,,,,,,,,,,,,,,,,,,,,,,,,,,,,,,
,5cfaab352e080000016ec742,001,2022-04-29_03h03.56.802,classification_task,2021.2.3,Win32,60.0132029,5cfaab352e080000016ec742,626b377229c10585ec392f89,626b3952ce43f9be9845f73d,,,,,,,,,,,,,,,,,,,,,,,a,1,1.0022,"[""0.306"",""0.643"",""0.604"",""0.917""]","[1,0,1,1]",0,45,45,45,1,0,1,,,1,FALSE,,,,,,,,,,,,,,,,,,,,,,,,,,,,,,
,5cfaab352e080000016ec742,001,2022-04-29_03h03.56.802,classification_task,2021.2.3,Win32,60.0132029,5cfaab352e080000016ec742,626b377229c10585ec392f89,626b3952ce43f9be9845f73d,,,,,,,,,,,,,,,,,,,,,,,l,1,0.6894,"[""0.055"",""0.092"",""0.798"",""0.704""]","[1,1,0,1]",0,46,46,46,1,1,0,,,1,FALSE,,,,,,,,,,,,,,,,,,,,,,,,,,,,,,
,5cfaab352e080000016ec742,001,2022-04-29_03h03.56.802,classification_task,2021.2.3,Win32,60.0132029,5cfaab352e080000016ec742,626b377229c10585ec392f89,626b3952ce43f9be9845f73d,,,,,,,,,,,,,,,,,,,,,,,l,1,0.6683,"[""0.055"",""0.643"",""0.514"",""0.704""]","[1,0,1,1]",0,47,47,47,1,1,0,,,1,FALSE,,,,,,,,,,,,,,,,,,,,,,,,,,,,,,
,5cfaab352e080000016ec742,001,2022-04-29_03h03.56.802,classification_task,2021.2.3,Win32,60.0132029,5cfaab352e080000016ec742,626b377229c10585ec392f89,626b3952ce43f9be9845f73d,,,,,,,,,,,,,,,,,,,,,,,l,1,0.6532,"[""0.055"",""0.800"",""0.514"",""0.704""]","[1,0,1,1]",0,48,48,48,1,1,0,,,1,FALSE,,,,,,,,,,,,,,,,,,,,,,,,,,,,,,
,5cfaab352e080000016ec742,001,2022-04-29_03h03.56.802,classification_task,2021.2.3,Win32,60.0132029,5cfaab352e080000016ec742,626b377229c10585ec392f89,626b3952ce43f9be9845f73d,,,,,,,,,,,,,,,,,,,,,,,a,1,1.031,"[""0.306"",""0.474"",""0.604"",""0.917""]","[1,0,1,1]",0,49,49,49,1,0,1,,,1,FALSE,,,,,,,,,,,,,,,,,,,,,,,,,,,,,,
,5cfaab352e080000016ec742,001,2022-04-29_03h03.56.802,classification_task,2021.2.3,Win32,60.0132029,5cfaab352e080000016ec742,626b377229c10585ec392f89,626b3952ce43f9be9845f73d,,,,,,,,,,,,,,,,,,,,,,,l,1,2.4413,"[""0.146"",""0.477"",""0.559"",""0.741""]","[1,0,1,1]",0,50,50,50,1,1,1,,,1,FALSE,,,,,,,,,,,,,,,,,,,,,,,,,,,,,,
,5cfaab352e080000016ec742,001,2022-04-29_03h03.56.802,classification_task,2021.2.3,Win32,60.0132029,5cfaab352e080000016ec742,626b377229c10585ec392f89,626b3952ce43f9be9845f73d,,,,,,,,,,,,,,,,,,,,,,,l,1,0.7117,"[""0.146"",""0.218"",""0.477"",""0.741""]","[1,1,0,1]",0,51,51,51,1,1,1,,,1,FALSE,,,,,,,,,,,,,,,,,,,,,,,,,,,,,,
,5cfaab352e080000016ec742,001,2022-04-29_03h03.56.802,classification_task,2021.2.3,Win32,60.0132029,5cfaab352e080000016ec742,626b377229c10585ec392f89,626b3952ce43f9be9845f73d,,,,,,,,,,,,,,,,,,,,,,,a,0,0.6205,"[""0.055"",""0.092"",""0.182"",""0.704""]","[1,1,0,1]",0,52,52,52,1,1,0,,,1,FALSE,,,,,,,,,,,,,,,,,,,,,,,,,,,,,,
,5cfaab352e080000016ec742,001,2022-04-29_03h03.56.802,classification_task,2021.2.3,Win32,60.0132029,5cfaab352e080000016ec742,626b377229c10585ec392f89,626b3952ce43f9be9845f73d,,,,,,,,,,,,,,,,,,,,,,,l,0,1.0772,"[""0.306"",""0.377"",""0.881"",""0.917""]","[1,1,0,1]",0,53,53,53,1,0,1,,,1,FALSE,,,,,,,,,,,,,,,,,,,,,,,,,,,,,,
,5cfaab352e080000016ec742,001,2022-04-29_03h03.56.802,classification_task,2021.2.3,Win32,60.0132029,5cfaab352e080000016ec742,626b377229c10585ec392f89,626b3952ce43f9be9845f73d,,,,,,,,,,,,,,,,,,,,,,,l,1,1.0311,"[""0.474"",""0.092"",""0.514"",""0.704""]","[0,1,1,1]",0,54,54,54,1,1,0,,,1,FALSE,,,,,,,,,,,,,,,,,,,,,,,,,,,,,,
,5cfaab352e080000016ec742,001,2022-04-29_03h03.56.802,classification_task,2021.2.3,Win32,60.0132029,5cfaab352e080000016ec742,626b377229c10585ec392f89,626b3952ce43f9be9845f73d,,,,,,,,,,,,,,,,,,,,,,,a,0,1.0927,"[""0.146"",""0.218"",""0.559"",""0.880""]","[1,1,1,0]",0,55,55,55,1,1,1,,,1,FALSE,,,,,,,,,,,,,,,,,,,,,,,,,,,,,,
,5cfaab352e080000016ec742,001,2022-04-29_03h03.56.802,classification_task,2021.2.3,Win32,60.0132029,5cfaab352e080000016ec742,626b377229c10585ec392f89,626b3952ce43f9be9845f73d,,,,,,,,,,,,,,,,,,,,,,,a,0,1.0393,"[""0.640"",""0.218"",""0.559"",""0.741""]","[0,1,1,1]",0,56,56,56,1,1,1,,,1,FALSE,,,,,,,,,,,,,,,,,,,,,,,,,,,,,,
,5cfaab352e080000016ec742,001,2022-04-29_03h03.56.802,classification_task,2021.2.3,Win32,60.0132029,5cfaab352e080000016ec742,626b377229c10585ec392f89,626b3952ce43f9be9845f73d,,,,,,,,,,,,,,,,,,,,,,,a,1,1.0048,"[""0.272"",""0.436"",""0.847"",""0.643""]","[1,1,1,0]",0,57,57,57,1,0,0,,,1,FALSE,,,,,,,,,,,,,,,,,,,,,,,,,,,,,,
,5cfaab352e080000016ec742,001,2022-04-29_03h03.56.802,classification_task,2021.2.3,Win32,60.0132029,5cfaab352e080000016ec742,626b377229c10585ec392f89,626b3952ce43f9be9845f73d,,,,,,,,,,,,,,,,,,,,,,,a,1,0.6075,"[""0.272"",""0.436"",""0.780"",""0.959""]","[1,1,0,1]",0,58,58,58,1,0,0,,,1,FALSE,,,,,,,,,,,,,,,,,,,,,,,,,,,,,,
,5cfaab352e080000016ec742,001,2022-04-29_03h03.56.802,classification_task,2021.2.3,Win32,60.0132029,5cfaab352e080000016ec742,626b377229c10585ec392f89,626b3952ce43f9be9845f73d,,,,,,,,,,,,,,,,,,,,,,,l,1,0.6199,"[""0.055"",""0.092"",""0.514"",""0.881""]","[1,1,1,0]",0,59,59,59,1,1,0,,,1,FALSE,,,,,,,,,,,,,,,,,,,,,,,,,,,,,,
,5cfaab352e080000016ec742,001,2022-04-29_03h03.56.802,classification_task,2021.2.3,Win32,60.0132029,5cfaab352e080000016ec742,626b377229c10585ec392f89,626b3952ce43f9be9845f73d,,,,,,,,,,,,,,,,,,,,,,,a,1,0.8869,"[""0.272"",""0.656"",""0.847"",""0.959""]","[1,0,1,1]",0,60,60,60,1,0,0,,,1,FALSE,,,,,,,,,,,,,,,,,,,,,,,,,,,,,,
,5cfaab352e080000016ec742,001,2022-04-29_03h03.56.802,classification_task,2021.2.3,Win32,60.0132029,5cfaab352e080000016ec742,626b377229c10585ec392f89,626b3952ce43f9be9845f73d,,,,,,,,,,,,,,,,,,,,,,,l,0,1.3942,"[""0.881"",""0.377"",""0.604"",""0.917""]","[0,1,1,1]",0,61,61,61,1,0,1,,,1,FALSE,,,,,,,,,,,,,,,,,,,,,,,,,,,,,,
,5cfaab352e080000016ec742,001,2022-04-29_03h03.56.802,classification_task,2021.2.3,Win32,60.0132029,5cfaab352e080000016ec742,626b377229c10585ec392f89,626b3952ce43f9be9845f73d,,,,,,,,,,,,,,,,,,,,,,,a,1,1.0734,"[""0.880"",""0.436"",""0.847"",""0.959""]","[0,1,1,1]",0,62,62,62,1,0,0,,,1,FALSE,,,,,,,,,,,,,,,,,,,,,,,,,,,,,,
,5cfaab352e080000016ec742,001,2022-04-29_03h03.56.802,classification_task,2021.2.3,Win32,60.0132029,5cfaab352e080000016ec742,626b377229c10585ec392f89,626b3952ce43f9be9845f73d,,,,,,,,,,,,,,,,,,,,,,,a,1,3.414,"[""0.306"",""0.377"",""0.604"",""0.881""]","[1,1,1,0]",0,63,63,63,1,0,1,,,1,FALSE,,,,,,,,,,,,,,,,,,,,,,,,,,,,,,
,5cfaab352e080000016ec742,001,2022-04-29_03h03.56.802,classification_task,2021.2.3,Win32,60.0132029,5cfaab352e080000016ec742,626b377229c10585ec392f89,626b3952ce43f9be9845f73d,,,,,,,,,,,,,,,,,,,,,,,,,,,,,,,,,,,,,,,0, ,,0,10,163.3336,0,1,1,1,1,2,2,,,,,,,,,,,,,,,,,
,5cfaab352e080000016ec742,001,2022-04-29_03h03.56.802,classification_task,2021.2.3,Win32,60.0132029,5cfaab352e080000016ec742,626b377229c10585ec392f89,626b3952ce43f9be9845f73d,,,,,,,,,,,,,,,,,,,,,,,,,,,,,,,,,,,,,,,1,  ,,0,7.976190476,167.9811,0,1,1,1,1,2,2,,,,,,,,,,,,,,,,,
,5cfaab352e080000016ec742,001,2022-04-29_03h03.56.802,classification_task,2021.2.3,Win32,60.0132029,5cfaab352e080000016ec742,626b377229c10585ec392f89,626b3952ce43f9be9845f73d,,,,,,,,,,,,,,,,,,,,,,,,,,,,,,,,,,,,,,,2,  ,,0,5.628306878,169.9918,0,1,1,1,1,2,2,,,,,,,,,,,,,,,,,
,5cfaab352e080000016ec742,001,2022-04-29_03h03.56.802,classification_task,2021.2.3,Win32,60.0132029,5cfaab352e080000016ec742,626b377229c10585ec392f89,626b3952ce43f9be9845f73d,,,,,,,,,,,,,,,,,,,,,,,,,,,,,,,,,,,,,,,,,,,,,0,1,1,1,1,,2,,,,,,,,,,,,,,,,,
,5cfaab352e080000016ec742,001,2022-04-29_03h03.56.802,classification_task,2021.2.3,Win32,60.0132029,5cfaab352e080000016ec742,626b377229c10585ec392f89,626b3952ce43f9be9845f73d,,,,,,,,,,,,,,,,,,,,,space,10.8343,a,0,2.9303,"[""0.798"",""0.218"",""0.559"",""0.741""]","[0,1,1,1]",0,0,0,0,1,1,1,,,1,FALSE,,,,,,,,,,,,,,,,,,,,,,,,,,,,,,
,5cfaab352e080000016ec742,001,2022-04-29_03h03.56.802,classification_task,2021.2.3,Win32,60.0132029,5cfaab352e080000016ec742,626b377229c10585ec392f89,626b3952ce43f9be9845f73d,,,,,,,,,,,,,,,,,,,,,,,l,1,3.3824,"[""0.146"",""0.218"",""0.559"",""0.643""]","[1,1,1,0]",0,1,1,1,1,1,1,,,1,FALSE,,,,,,,,,,,,,,,,,,,,,,,,,,,,,,
,5cfaab352e080000016ec742,001,2022-04-29_03h03.56.802,classification_task,2021.2.3,Win32,60.0132029,5cfaab352e080000016ec742,626b377229c10585ec392f89,626b3952ce43f9be9845f73d,,,,,,,,,,,,,,,,,,,,,,,l,1,0.9817,"[""0.055"",""0.092"",""0.514"",""0.880""]","[1,1,1,0]",0,2,2,2,1,1,0,,,1,FALSE,,,,,,,,,,,,,,,,,,,,,,,,,,,,,,
,5cfaab352e080000016ec742,001,2022-04-29_03h03.56.802,classification_task,2021.2.3,Win32,60.0132029,5cfaab352e080000016ec742,626b377229c10585ec392f89,626b3952ce43f9be9845f73d,,,,,,,,,,,,,,,,,,,,,,,a,1,0.8329,"[""0.272"",""0.796"",""0.847"",""0.959""]","[1,0,1,1]",0,3,3,3,1,0,0,,,1,FALSE,,,,,,,,,,,,,,,,,,,,,,,,,,,,,,
,5cfaab352e080000016ec742,001,2022-04-29_03h03.56.802,classification_task,2021.2.3,Win32,60.0132029,5cfaab352e080000016ec742,626b377229c10585ec392f89,626b3952ce43f9be9845f73d,,,,,,,,,,,,,,,,,,,,,,,l,0,1.0455,"[""0.306"",""0.881"",""0.604"",""0.917""]","[1,0,1,1]",0,4,4,4,1,0,1,,,1,FALSE,,,,,,,,,,,,,,,,,,,,,,,,,,,,,,
,5cfaab352e080000016ec742,001,2022-04-29_03h03.56.802,classification_task,2021.2.3,Win32,60.0132029,5cfaab352e080000016ec742,626b377229c10585ec392f89,626b3952ce43f9be9845f73d,,,,,,,,,,,,,,,,,,,,,,,l,1,1.4216,"[""0.800"",""0.092"",""0.514"",""0.704""]","[0,1,1,1]",0,5,5,5,1,1,0,,,1,FALSE,,,,,,,,,,,,,,,,,,,,,,,,,,,,,,
,5cfaab352e080000016ec742,001,2022-04-29_03h03.56.802,classification_task,2021.2.3,Win32,60.0132029,5cfaab352e080000016ec742,626b377229c10585ec392f89,626b3952ce43f9be9845f73d,,,,,,,,,,,,,,,,,,,,,,,l,0,1.3203,"[""0.643"",""0.377"",""0.604"",""0.917""]","[0,1,1,1]",0,6,6,6,1,0,1,,,1,FALSE,,,,,,,,,,,,,,,,,,,,,,,,,,,,,,
,5cfaab352e080000016ec742,001,2022-04-29_03h03.56.802,classification_task,2021.2.3,Win32,60.0132029,5cfaab352e080000016ec742,626b377229c10585ec392f89,626b3952ce43f9be9845f73d,,,,,,,,,,,,,,,,,,,,,,,a,1,0.6146,"[""0.272"",""0.436"",""0.847"",""0.474""]","[1,1,1,0]",0,7,7,7,1,0,0,,,1,FALSE,,,,,,,,,,,,,,,,,,,,,,,,,,,,,,
,5cfaab352e080000016ec742,001,2022-04-29_03h03.56.802,classification_task,2021.2.3,Win32,60.0132029,5cfaab352e080000016ec742,626b377229c10585ec392f89,626b3952ce43f9be9845f73d,,,,,,,,,,,,,,,,,,,,,,,a,1,0.8261,"[""0.272"",""0.436"",""0.800"",""0.959""]","[1,1,0,1]",0,8,8,8,1,0,0,,,1,FALSE,,,,,,,,,,,,,,,,,,,,,,,,,,,,,,
,5cfaab352e080000016ec742,001,2022-04-29_03h03.56.802,classification_task,2021.2.3,Win32,60.0132029,5cfaab352e080000016ec742,626b377229c10585ec392f89,626b3952ce43f9be9845f73d,,,,,,,,,,,,,,,,,,,,,,,l,1,1.7466,"[""0.146"",""0.218"",""0.780"",""0.741""]","[1,1,0,1]",0,9,9,9,1,1,1,,,1,FALSE,,,,,,,,,,,,,,,,,,,,,,,,,,,,,,
,5cfaab352e080000016ec742,001,2022-04-29_03h03.56.802,classification_task,2021.2.3,Win32,60.0132029,5cfaab352e080000016ec742,626b377229c10585ec392f89,626b3952ce43f9be9845f73d,,,,,,,,,,,,,,,,,,,,,,,a,1,1.1136,"[""0.306"",""0.377"",""0.604"",""0.796""]","[1,1,1,0]",0,10,10,10,1,0,1,,,1,FALSE,,,,,,,,,,,,,,,,,,,,,,,,,,,,,,
,5cfaab352e080000016ec742,001,2022-04-29_03h03.56.802,classification_task,2021.2.3,Win32,60.0132029,5cfaab352e080000016ec742,626b377229c10585ec392f89,626b3952ce43f9be9845f73d,,,,,,,,,,,,,,,,,,,,,,,l,1,0.8334,"[""0.146"",""0.640"",""0.559"",""0.741""]","[1,0,1,1]",0,11,11,11,1,1,1,,,1,FALSE,,,,,,,,,,,,,,,,,,,,,,,,,,,,,,
,5cfaab352e080000016ec742,001,2022-04-29_03h03.56.802,classification_task,2021.2.3,Win32,60.0132029,5cfaab352e080000016ec742,626b377229c10585ec392f89,626b3952ce43f9be9845f73d,,,,,,,,,,,,,,,,,,,,,,,l,1,0.6111,"[""0.055"",""0.780"",""0.514"",""0.704""]","[1,0,1,1]",0,12,12,12,1,1,0,,,1,FALSE,,,,,,,,,,,,,,,,,,,,,,,,,,,,,,
,5cfaab352e080000016ec742,001,2022-04-29_03h03.56.802,classification_task,2021.2.3,Win32,60.0132029,5cfaab352e080000016ec742,626b377229c10585ec392f89,626b3952ce43f9be9845f73d,,,,,,,,,,,,,,,,,,,,,,,l,0,1.3066,"[""0.880"",""0.436"",""0.847"",""0.959""]","[0,1,1,1]",0,13,13,13,1,0,0,,,1,FALSE,,,,,,,,,,,,,,,,,,,,,,,,,,,,,,
,5cfaab352e080000016ec742,001,2022-04-29_03h03.56.802,classification_task,2021.2.3,Win32,60.0132029,5cfaab352e080000016ec742,626b377229c10585ec392f89,626b3952ce43f9be9845f73d,,,,,,,,,,,,,,,,,,,,,,,a,0,0.6983,"[""0.055"",""0.092"",""0.796"",""0.704""]","[1,1,0,1]",0,14,14,14,1,1,0,,,1,FALSE,,,,,,,,,,,,,,,,,,,,,,,,,,,,,,
,5cfaab352e080000016ec742,001,2022-04-29_03h03.56.802,classification_task,2021.2.3,Win32,60.0132029,5cfaab352e080000016ec742,626b377229c10585ec392f89,626b3952ce43f9be9845f73d,,,,,,,,,,,,,,,,,,,,,,,l,0,1.3154,"[""0.306"",""0.377"",""0.666"",""0.917""]","[1,1,0,1]",0,15,15,15,1,0,1,,,1,FALSE,,,,,,,,,,,,,,,,,,,,,,,,,,,,,,
,5cfaab352e080000016ec742,001,2022-04-29_03h03.56.802,classification_task,2021.2.3,Win32,60.0132029,5cfaab352e080000016ec742,626b377229c10585ec392f89,626b3952ce43f9be9845f73d,,,,,,,,,,,,,,,,,,,,,,,l,0,1.1063,"[""0.306"",""0.880"",""0.604"",""0.917""]","[1,0,1,1]",0,16,16,16,1,0,1,,,1,FALSE,,,,,,,,,,,,,,,,,,,,,,,,,,,,,,
,5cfaab352e080000016ec742,001,2022-04-29_03h03.56.802,classification_task,2021.2.3,Win32,60.0132029,5cfaab352e080000016ec742,626b377229c10585ec392f89,626b3952ce43f9be9845f73d,,,,,,,,,,,,,,,,,,,,,,,a,0,0.6367,"[""0.055"",""0.092"",""0.881"",""0.704""]","[1,1,0,1]",0,17,17,17,1,1,0,,,1,FALSE,,,,,,,,,,,,,,,,,,,,,,,,,,,,,,
,5cfaab352e080000016ec742,001,2022-04-29_03h03.56.802,classification_task,2021.2.3,Win32,60.0132029,5cfaab352e080000016ec742,626b377229c10585ec392f89,626b3952ce43f9be9845f73d,,,,,,,,,,,,,,,,,,,,,,,l,0,1.3936,"[""0.881"",""0.436"",""0.847"",""0.959""]","[0,1,1,1]",0,18,18,18,1,0,0,,,1,FALSE,,,,,,,,,,,,,,,,,,,,,,,,,,,,,,
,5cfaab352e080000016ec742,001,2022-04-29_03h03.56.802,classification_task,2021.2.3,Win32,60.0132029,5cfaab352e080000016ec742,626b377229c10585ec392f89,626b3952ce43f9be9845f73d,,,,,,,,,,,,,,,,,,,,,,,l,1,1.2362,"[""0.146"",""0.218"",""0.559"",""0.798""]","[1,1,1,0]",0,19,19,19,1,1,1,,,1,FALSE,,,,,,,,,,,,,,,,,,,,,,,,,,,,,,
,5cfaab352e080000016ec742,001,2022-04-29_03h03.56.802,classification_task,2021.2.3,Win32,60.0132029,5cfaab352e080000016ec742,626b377229c10585ec392f89,626b3952ce43f9be9845f73d,,,,,,,,,,,,,,,,,,,,,,,a,1,0.9708,"[""0.272"",""0.477"",""0.847"",""0.959""]","[1,0,1,1]",0,20,20,20,1,0,0,,,1,FALSE,,,,,,,,,,,,,,,,,,,,,,,,,,,,,,
,5cfaab352e080000016ec742,001,2022-04-29_03h03.56.802,classification_task,2021.2.3,Win32,60.0132029,5cfaab352e080000016ec742,626b377229c10585ec392f89,626b3952ce43f9be9845f73d,,,,,,,,,,,,,,,,,,,,,,,l,1,1.0348,"[""0.146"",""0.218"",""0.666"",""0.741""]","[1,1,0,1]",0,21,21,21,1,1,1,,,1,FALSE,,,,,,,,,,,,,,,,,,,,,,,,,,,,,,
,5cfaab352e080000016ec742,001,2022-04-29_03h03.56.802,classification_task,2021.2.3,Win32,60.0132029,5cfaab352e080000016ec742,626b377229c10585ec392f89,626b3952ce43f9be9845f73d,,,,,,,,,,,,,,,,,,,,,,,l,1,0.8083,"[""0.146"",""0.640"",""0.559"",""0.741""]","[1,0,1,1]",0,22,22,22,1,1,1,,,1,FALSE,,,,,,,,,,,,,,,,,,,,,,,,,,,,,,
,5cfaab352e080000016ec742,001,2022-04-29_03h03.56.802,classification_task,2021.2.3,Win32,60.0132029,5cfaab352e080000016ec742,626b377229c10585ec392f89,626b3952ce43f9be9845f73d,,,,,,,,,,,,,,,,,,,,,,,a,1,0.9219,"[""0.272"",""0.436"",""0.847"",""0.800""]","[1,1,1,0]",0,23,23,23,1,0,0,,,1,FALSE,,,,,,,,,,,,,,,,,,,,,,,,,,,,,,
,5cfaab352e080000016ec742,001,2022-04-29_03h03.56.802,classification_task,2021.2.3,Win32,60.0132029,5cfaab352e080000016ec742,626b377229c10585ec392f89,626b3952ce43f9be9845f73d,,,,,,,,,,,,,,,,,,,,,,,a,1,0.7712,"[""0.272"",""0.436"",""0.646"",""0.959""]","[1,1,0,1]",0,24,24,24,1,0,0,,,1,FALSE,,,,,,,,,,,,,,,,,,,,,,,,,,,,,,
,5cfaab352e080000016ec742,001,2022-04-29_03h03.56.802,classification_task,2021.2.3,Win32,60.0132029,5cfaab352e080000016ec742,626b377229c10585ec392f89,626b3952ce43f9be9845f73d,,,,,,,,,,,,,,,,,,,,,,,l,1,0.9592,"[""0.881"",""0.092"",""0.514"",""0.704""]","[0,1,1,1]",0,25,25,25,1,1,0,,,1,FALSE,,,,,,,,,,,,,,,,,,,,,,,,,,,,,,
,5cfaab352e080000016ec742,001,2022-04-29_03h03.56.802,classification_task,2021.2.3,Win32,60.0132029,5cfaab352e080000016ec742,626b377229c10585ec392f89,626b3952ce43f9be9845f73d,,,,,,,,,,,,,,,,,,,,,,,l,1,2.3312,"[""0.477"",""0.218"",""0.559"",""0.741""]","[0,1,1,1]",0,26,26,26,1,1,1,,,1,FALSE,,,,,,,,,,,,,,,,,,,,,,,,,,,,,,
,5cfaab352e080000016ec742,001,2022-04-29_03h03.56.802,classification_task,2021.2.3,Win32,60.0132029,5cfaab352e080000016ec742,626b377229c10585ec392f89,626b3952ce43f9be9845f73d,,,,,,,,,,,,,,,,,,,,,,,a,1,1.1484,"[""0.306"",""0.377"",""0.800"",""0.917""]","[1,1,0,1]",0,27,27,27,1,0,1,,,1,FALSE,,,,,,,,,,,,,,,,,,,,,,,,,,,,,,
,5cfaab352e080000016ec742,001,2022-04-29_03h03.56.802,classification_task,2021.2.3,Win32,60.0132029,5cfaab352e080000016ec742,626b377229c10585ec392f89,626b3952ce43f9be9845f73d,,,,,,,,,,,,,,,,,,,,,,,a,1,1.0356,"[""0.306"",""0.377"",""0.604"",""0.800""]","[1,1,1,0]",0,28,28,28,1,0,1,,,1,FALSE,,,,,,,,,,,,,,,,,,,,,,,,,,,,,,
,5cfaab352e080000016ec742,001,2022-04-29_03h03.56.802,classification_task,2021.2.3,Win32,60.0132029,5cfaab352e080000016ec742,626b377229c10585ec392f89,626b3952ce43f9be9845f73d,,,,,,,,,,,,,,,,,,,,,,,l,0,0.835,"[""0.182"",""0.377"",""0.604"",""0.917""]","[0,1,1,1]",0,29,29,29,1,0,1,,,1,FALSE,,,,,,,,,,,,,,,,,,,,,,,,,,,,,,
,5cfaab352e080000016ec742,001,2022-04-29_03h03.56.802,classification_task,2021.2.3,Win32,60.0132029,5cfaab352e080000016ec742,626b377229c10585ec392f89,626b3952ce43f9be9845f73d,,,,,,,,,,,,,,,,,,,,,,,l,1,0.8716,"[""0.055"",""0.643"",""0.514"",""0.704""]","[1,0,1,1]",0,30,30,30,1,1,0,,,1,FALSE,,,,,,,,,,,,,,,,,,,,,,,,,,,,,,
,5cfaab352e080000016ec742,001,2022-04-29_03h03.56.802,classification_task,2021.2.3,Win32,60.0132029,5cfaab352e080000016ec742,626b377229c10585ec392f89,626b3952ce43f9be9845f73d,,,,,,,,,,,,,,,,,,,,,,,l,1,0.5728,"[""0.055"",""0.092"",""0.514"",""0.640""]","[1,1,1,0]",0,31,31,31,1,1,0,,,1,FALSE,,,,,,,,,,,,,,,,,,,,,,,,,,,,,,
,5cfaab352e080000016ec742,001,2022-04-29_03h03.56.802,classification_task,2021.2.3,Win32,60.0132029,5cfaab352e080000016ec742,626b377229c10585ec392f89,626b3952ce43f9be9845f73d,,,,,,,,,,,,,,,,,,,,,,,l,1,0.5433,"[""0.055"",""0.092"",""0.514"",""0.796""]","[1,1,1,0]",0,32,32,32,1,1,0,,,1,FALSE,,,,,,,,,,,,,,,,,,,,,,,,,,,,,,
,5cfaab352e080000016ec742,001,2022-04-29_03h03.56.802,classification_task,2021.2.3,Win32,60.0132029,5cfaab352e080000016ec742,626b377229c10585ec392f89,626b3952ce43f9be9845f73d,,,,,,,,,,,,,,,,,,,,,,,a,1,0.8686,"[""0.272"",""0.436"",""0.796"",""0.959""]","[1,1,0,1]",0,33,33,33,1,0,0,,,1,FALSE,,,,,,,,,,,,,,,,,,,,,,,,,,,,,,
,5cfaab352e080000016ec742,001,2022-04-29_03h03.56.802,classification_task,2021.2.3,Win32,60.0132029,5cfaab352e080000016ec742,626b377229c10585ec392f89,626b3952ce43f9be9845f73d,,,,,,,,,,,,,,,,,,,,,,,l,1,0.806,"[""0.146"",""0.646"",""0.559"",""0.741""]","[1,0,1,1]",0,34,34,34,1,1,1,,,1,FALSE,,,,,,,,,,,,,,,,,,,,,,,,,,,,,,
,5cfaab352e080000016ec742,001,2022-04-29_03h03.56.802,classification_task,2021.2.3,Win32,60.0132029,5cfaab352e080000016ec742,626b377229c10585ec392f89,626b3952ce43f9be9845f73d,,,,,,,,,,,,,,,,,,,,,,,l,1,0.9875,"[""0.474"",""0.092"",""0.514"",""0.704""]","[0,1,1,1]",0,35,35,35,1,1,0,,,1,FALSE,,,,,,,,,,,,,,,,,,,,,,,,,,,,,,
,5cfaab352e080000016ec742,001,2022-04-29_03h03.56.802,classification_task,2021.2.3,Win32,60.0132029,5cfaab352e080000016ec742,626b377229c10585ec392f89,626b3952ce43f9be9845f73d,,,,,,,,,,,,,,,,,,,,,,,l,0,1.2273,"[""0.477"",""0.436"",""0.847"",""0.959""]","[0,1,1,1]",0,36,36,36,1,0,0,,,1,FALSE,,,,,,,,,,,,,,,,,,,,,,,,,,,,,,
,5cfaab352e080000016ec742,001,2022-04-29_03h03.56.802,classification_task,2021.2.3,Win32,60.0132029,5cfaab352e080000016ec742,626b377229c10585ec392f89,626b3952ce43f9be9845f73d,,,,,,,,,,,,,,,,,,,,,,,l,1,0.7164,"[""0.055"",""0.092"",""0.880"",""0.704""]","[1,1,0,1]",0,37,37,37,1,1,0,,,1,FALSE,,,,,,,,,,,,,,,,,,,,,,,,,,,,,,
,5cfaab352e080000016ec742,001,2022-04-29_03h03.56.802,classification_task,2021.2.3,Win32,60.0132029,5cfaab352e080000016ec742,626b377229c10585ec392f89,626b3952ce43f9be9845f73d,,,,,,,,,,,,,,,,,,,,,,,l,1,0.7301,"[""0.055"",""0.881"",""0.514"",""0.704""]","[1,0,1,1]",0,38,38,38,1,1,0,,,1,FALSE,,,,,,,,,,,,,,,,,,,,,,,,,,,,,,
,5cfaab352e080000016ec742,001,2022-04-29_03h03.56.802,classification_task,2021.2.3,Win32,60.0132029,5cfaab352e080000016ec742,626b377229c10585ec392f89,626b3952ce43f9be9845f73d,,,,,,,,,,,,,,,,,,,,,,,a,1,0.8496,"[""0.272"",""0.436"",""0.847"",""0.643""]","[1,1,1,0]",0,39,39,39,1,0,0,,,1,FALSE,,,,,,,,,,,,,,,,,,,,,,,,,,,,,,
,5cfaab352e080000016ec742,001,2022-04-29_03h03.56.802,classification_task,2021.2.3,Win32,60.0132029,5cfaab352e080000016ec742,626b377229c10585ec392f89,626b3952ce43f9be9845f73d,,,,,,,,,,,,,,,,,,,,,,,l,1,1.2249,"[""0.146"",""0.218"",""0.800"",""0.741""]","[1,1,0,1]",0,40,40,40,1,1,1,,,1,FALSE,,,,,,,,,,,,,,,,,,,,,,,,,,,,,,
,5cfaab352e080000016ec742,001,2022-04-29_03h03.56.802,classification_task,2021.2.3,Win32,60.0132029,5cfaab352e080000016ec742,626b377229c10585ec392f89,626b3952ce43f9be9845f73d,,,,,,,,,,,,,,,,,,,,,,,l,1,0.6529,"[""0.146"",""0.218"",""0.559"",""0.640""]","[1,1,1,0]",0,41,41,41,1,1,1,,,1,FALSE,,,,,,,,,,,,,,,,,,,,,,,,,,,,,,
,5cfaab352e080000016ec742,001,2022-04-29_03h03.56.802,classification_task,2021.2.3,Win32,60.0132029,5cfaab352e080000016ec742,626b377229c10585ec392f89,626b3952ce43f9be9845f73d,,,,,,,,,,,,,,,,,,,,,,,a,1,1.1432,"[""0.306"",""0.377"",""0.640"",""0.917""]","[1,1,0,1]",0,42,42,42,1,0,1,,,1,FALSE,,,,,,,,,,,,,,,,,,,,,,,,,,,,,,
,5cfaab352e080000016ec742,001,2022-04-29_03h03.56.802,classification_task,2021.2.3,Win32,60.0132029,5cfaab352e080000016ec742,626b377229c10585ec392f89,626b3952ce43f9be9845f73d,,,,,,,,,,,,,,,,,,,,,,,l,0,3.946,"[""0.306"",""0.182"",""0.604"",""0.917""]","[1,0,1,1]",0,43,43,43,1,0,1,,,1,FALSE,,,,,,,,,,,,,,,,,,,,,,,,,,,,,,
,5cfaab352e080000016ec742,001,2022-04-29_03h03.56.802,classification_task,2021.2.3,Win32,60.0132029,5cfaab352e080000016ec742,626b377229c10585ec392f89,626b3952ce43f9be9845f73d,,,,,,,,,,,,,,,,,,,,,,,a,1,0.8011,"[""0.272"",""0.640"",""0.847"",""0.959""]","[1,0,1,1]",0,44,44,44,1,0,0,,,1,FALSE,,,,,,,,,,,,,,,,,,,,,,,,,,,,,,
,5cfaab352e080000016ec742,001,2022-04-29_03h03.56.802,classification_task,2021.2.3,Win32,60.0132029,5cfaab352e080000016ec742,626b377229c10585ec392f89,626b3952ce43f9be9845f73d,,,,,,,,,,,,,,,,,,,,,,,l,0,1.23,"[""0.306"",""0.377"",""0.604"",""0.780""]","[1,1,1,0]",0,45,45,45,1,0,1,,,1,FALSE,,,,,,,,,,,,,,,,,,,,,,,,,,,,,,
,5cfaab352e080000016ec742,001,2022-04-29_03h03.56.802,classification_task,2021.2.3,Win32,60.0132029,5cfaab352e080000016ec742,626b377229c10585ec392f89,626b3952ce43f9be9845f73d,,,,,,,,,,,,,,,,,,,,,,,a,0,1.0645,"[""0.640"",""0.218"",""0.559"",""0.741""]","[0,1,1,1]",0,46,46,46,1,1,1,,,1,FALSE,,,,,,,,,,,,,,,,,,,,,,,,,,,,,,
,5cfaab352e080000016ec742,001,2022-04-29_03h03.56.802,classification_task,2021.2.3,Win32,60.0132029,5cfaab352e080000016ec742,626b377229c10585ec392f89,626b3952ce43f9be9845f73d,,,,,,,,,,,,,,,,,,,,,,,l,0,1.0977,"[""0.880"",""0.377"",""0.604"",""0.917""]","[0,1,1,1]",0,47,47,47,1,0,1,,,1,FALSE,,,,,,,,,,,,,,,,,,,,,,,,,,,,,,
,5cfaab352e080000016ec742,001,2022-04-29_03h03.56.802,classification_task,2021.2.3,Win32,60.0132029,5cfaab352e080000016ec742,626b377229c10585ec392f89,626b3952ce43f9be9845f73d,,,,,,,,,,,,,,,,,,,,,,,l,1,1.1691,"[""0.146"",""0.218"",""0.559"",""0.880""]","[1,1,1,0]",0,48,48,48,1,1,1,,,1,FALSE,,,,,,,,,,,,,,,,,,,,,,,,,,,,,,
,5cfaab352e080000016ec742,001,2022-04-29_03h03.56.802,classification_task,2021.2.3,Win32,60.0132029,5cfaab352e080000016ec742,626b377229c10585ec392f89,626b3952ce43f9be9845f73d,,,,,,,,,,,,,,,,,,,,,,,l,1,0.9159,"[""0.055"",""0.092"",""0.643"",""0.704""]","[1,1,0,1]",0,49,49,49,1,1,0,,,1,FALSE,,,,,,,,,,,,,,,,,,,,,,,,,,,,,,
,5cfaab352e080000016ec742,001,2022-04-29_03h03.56.802,classification_task,2021.2.3,Win32,60.0132029,5cfaab352e080000016ec742,626b377229c10585ec392f89,626b3952ce43f9be9845f73d,,,,,,,,,,,,,,,,,,,,,,,l,0,0.9903,"[""0.306"",""0.182"",""0.604"",""0.917""]","[1,0,1,1]",0,50,50,50,1,0,1,,,1,FALSE,,,,,,,,,,,,,,,,,,,,,,,,,,,,,,
,5cfaab352e080000016ec742,001,2022-04-29_03h03.56.802,classification_task,2021.2.3,Win32,60.0132029,5cfaab352e080000016ec742,626b377229c10585ec392f89,626b3952ce43f9be9845f73d,,,,,,,,,,,,,,,,,,,,,,,l,1,1.8219,"[""0.800"",""0.092"",""0.514"",""0.704""]","[0,1,1,1]",0,51,51,51,1,1,0,,,1,FALSE,,,,,,,,,,,,,,,,,,,,,,,,,,,,,,
,5cfaab352e080000016ec742,001,2022-04-29_03h03.56.802,classification_task,2021.2.3,Win32,60.0132029,5cfaab352e080000016ec742,626b377229c10585ec392f89,626b3952ce43f9be9845f73d,,,,,,,,,,,,,,,,,,,,,,,a,1,1.415,"[""0.272"",""0.436"",""0.847"",""0.881""]","[1,1,1,0]",0,52,52,52,1,0,0,,,1,FALSE,,,,,,,,,,,,,,,,,,,,,,,,,,,,,,
,5cfaab352e080000016ec742,001,2022-04-29_03h03.56.802,classification_task,2021.2.3,Win32,60.0132029,5cfaab352e080000016ec742,626b377229c10585ec392f89,626b3952ce43f9be9845f73d,,,,,,,,,,,,,,,,,,,,,,,l,1,0.8364,"[""0.146"",""0.218"",""0.796"",""0.741""]","[1,1,0,1]",0,53,53,53,1,1,1,,,1,FALSE,,,,,,,,,,,,,,,,,,,,,,,,,,,,,,
,5cfaab352e080000016ec742,001,2022-04-29_03h03.56.802,classification_task,2021.2.3,Win32,60.0132029,5cfaab352e080000016ec742,626b377229c10585ec392f89,626b3952ce43f9be9845f73d,,,,,,,,,,,,,,,,,,,,,,,l,0,0.9616,"[""0.800"",""0.436"",""0.847"",""0.959""]","[0,1,1,1]",0,54,54,54,1,0,0,,,1,FALSE,,,,,,,,,,,,,,,,,,,,,,,,,,,,,,
,5cfaab352e080000016ec742,001,2022-04-29_03h03.56.802,classification_task,2021.2.3,Win32,60.0132029,5cfaab352e080000016ec742,626b377229c10585ec392f89,626b3952ce43f9be9845f73d,,,,,,,,,,,,,,,,,,,,,,,a,1,0.9357,"[""0.272"",""0.436"",""0.477"",""0.959""]","[1,1,0,1]",0,55,55,55,1,0,0,,,1,FALSE,,,,,,,,,,,,,,,,,,,,,,,,,,,,,,
,5cfaab352e080000016ec742,001,2022-04-29_03h03.56.802,classification_task,2021.2.3,Win32,60.0132029,5cfaab352e080000016ec742,626b377229c10585ec392f89,626b3952ce43f9be9845f73d,,,,,,,,,,,,,,,,,,,,,,,l,1,0.8196,"[""0.146"",""0.796"",""0.559"",""0.741""]","[1,0,1,1]",0,56,56,56,1,1,1,,,1,FALSE,,,,,,,,,,,,,,,,,,,,,,,,,,,,,,
,5cfaab352e080000016ec742,001,2022-04-29_03h03.56.802,classification_task,2021.2.3,Win32,60.0132029,5cfaab352e080000016ec742,626b377229c10585ec392f89,626b3952ce43f9be9845f73d,,,,,,,,,,,,,,,,,,,,,,,l,1,0.7211,"[""0.055"",""0.477"",""0.514"",""0.704""]","[1,0,1,1]",0,57,57,57,1,1,0,,,1,FALSE,,,,,,,,,,,,,,,,,,,,,,,,,,,,,,
,5cfaab352e080000016ec742,001,2022-04-29_03h03.56.802,classification_task,2021.2.3,Win32,60.0132029,5cfaab352e080000016ec742,626b377229c10585ec392f89,626b3952ce43f9be9845f73d,,,,,,,,,,,,,,,,,,,,,,,l,0,1.2046,"[""0.880"",""0.377"",""0.604"",""0.917""]","[0,1,1,1]",0,58,58,58,1,0,1,,,1,FALSE,,,,,,,,,,,,,,,,,,,,,,,,,,,,,,
,5cfaab352e080000016ec742,001,2022-04-29_03h03.56.802,classification_task,2021.2.3,Win32,60.0132029,5cfaab352e080000016ec742,626b377229c10585ec392f89,626b3952ce43f9be9845f73d,,,,,,,,,,,,,,,,,,,,,,,l,1,1.2976,"[""0.800"",""0.218"",""0.559"",""0.741""]","[0,1,1,1]",0,59,59,59,1,1,1,,,1,FALSE,,,,,,,,,,,,,,,,,,,,,,,,,,,,,,
,5cfaab352e080000016ec742,001,2022-04-29_03h03.56.802,classification_task,2021.2.3,Win32,60.0132029,5cfaab352e080000016ec742,626b377229c10585ec392f89,626b3952ce43f9be9845f73d,,,,,,,,,,,,,,,,,,,,,,,l,1,0.8139,"[""0.055"",""0.092"",""0.514"",""0.643""]","[1,1,1,0]",0,60,60,60,1,1,0,,,1,FALSE,,,,,,,,,,,,,,,,,,,,,,,,,,,,,,
,5cfaab352e080000016ec742,001,2022-04-29_03h03.56.802,classification_task,2021.2.3,Win32,60.0132029,5cfaab352e080000016ec742,626b377229c10585ec392f89,626b3952ce43f9be9845f73d,,,,,,,,,,,,,,,,,,,,,,,a,1,1.4039,"[""0.306"",""0.377"",""0.604"",""0.796""]","[1,1,1,0]",0,61,61,61,1,0,1,,,1,FALSE,,,,,,,,,,,,,,,,,,,,,,,,,,,,,,
,5cfaab352e080000016ec742,001,2022-04-29_03h03.56.802,classification_task,2021.2.3,Win32,60.0132029,5cfaab352e080000016ec742,626b377229c10585ec392f89,626b3952ce43f9be9845f73d,,,,,,,,,,,,,,,,,,,,,,,a,1,0.9893,"[""0.272"",""0.881"",""0.847"",""0.959""]","[1,0,1,1]",0,62,62,62,1,0,0,,,1,FALSE,,,,,,,,,,,,,,,,,,,,,,,,,,,,,,
,5cfaab352e080000016ec742,001,2022-04-29_03h03.56.802,classification_task,2021.2.3,Win32,60.0132029,5cfaab352e080000016ec742,626b377229c10585ec392f89,626b3952ce43f9be9845f73d,,,,,,,,,,,,,,,,,,,,,,,a,1,1.0916,"[""0.306"",""0.377"",""0.643"",""0.917""]","[1,1,0,1]",0,63,63,63,1,0,1,,,1,FALSE,,,,,,,,,,,,,,,,,,,,,,,,,,,,,,
,5cfaab352e080000016ec742,001,2022-04-29_03h03.56.802,classification_task,2021.2.3,Win32,60.0132029,5cfaab352e080000016ec742,626b377229c10585ec392f89,626b3952ce43f9be9845f73d,,,,,,,,,,,,,,,,,,,,,,,,,,,,,,,,,,,,,,,0, ,,0,7.678571429,156.6349,0,2,2,2,1,2,3,,,,,,,,,,,,,,,,,
,5cfaab352e080000016ec742,001,2022-04-29_03h03.56.802,classification_task,2021.2.3,Win32,60.0132029,5cfaab352e080000016ec742,626b377229c10585ec392f89,626b3952ce43f9be9845f73d,,,,,,,,,,,,,,,,,,,,,,,,,,,,,,,,,,,,,,,1,  ,,0,6.521164021,160.8145,0,2,2,2,1,2,3,,,,,,,,,,,,,,,,,
,5cfaab352e080000016ec742,001,2022-04-29_03h03.56.802,classification_task,2021.2.3,Win32,60.0132029,5cfaab352e080000016ec742,626b377229c10585ec392f89,626b3952ce43f9be9845f73d,,,,,,,,,,,,,,,,,,,,,,,,,,,,,,,,,,,,,,,2,  ,,0,8.670634921,167.6155,0,2,2,2,1,2,3,,,,,,,,,,,,,,,,,
,5cfaab352e080000016ec742,001,2022-04-29_03h03.56.802,classification_task,2021.2.3,Win32,60.0132029,5cfaab352e080000016ec742,626b377229c10585ec392f89,626b3952ce43f9be9845f73d,,,,,,,,,,,,,,,,,,,,,,,,,,,,,,,,,,,,,,,,,,,,,0,2,2,2,1,,3,,,,,,,,,,,,,,,,,
,5cfaab352e080000016ec742,001,2022-04-29_03h03.56.802,classification_task,2021.2.3,Win32,60.0132029,5cfaab352e080000016ec742,626b377229c10585ec392f89,626b3952ce43f9be9845f73d,,,,,,,,,,,,,,,,,,,,,,,,,,,,,,,,,,,,,,,,,,,,,,,,,,,,,I believe the aid is a competent performer,,0.7,0,2,1203.4784,0,0,0,0,1,0,,,,
,5cfaab352e080000016ec742,001,2022-04-29_03h03.56.802,classification_task,2021.2.3,Win32,60.0132029,5cfaab352e080000016ec742,626b377229c10585ec392f89,626b3952ce43f9be9845f73d,,,,,,,,,,,,,,,,,,,,,,,,,,,,,,,,,,,,,,,,,,,,,,,,,,,,,I trust the aid,,0.7,0,3,1210.0885,0,0,0,0,1,0,,,,
,5cfaab352e080000016ec742,001,2022-04-29_03h03.56.802,classification_task,2021.2.3,Win32,60.0132029,5cfaab352e080000016ec742,626b377229c10585ec392f89,626b3952ce43f9be9845f73d,,,,,,,,,,,,,,,,,,,,,,,,,,,,,,,,,,,,,,,,,,,,,,,,,,,,,I have confidence in the advice given by the aid,,0.7,0,2,1210.8051,0,0,0,0,1,0,,,,
,5cfaab352e080000016ec742,001,2022-04-29_03h03.56.802,classification_task,2021.2.3,Win32,60.0132029,5cfaab352e080000016ec742,626b377229c10585ec392f89,626b3952ce43f9be9845f73d,,,,,,,,,,,,,,,,,,,,,,,,,,,,,,,,,,,,,,,,,,,,,,,,,,,,,I can depend on the aid,,0.7,0,2,1214.1414,0,0,0,0,1,0,,,,
,5cfaab352e080000016ec742,001,2022-04-29_03h03.56.802,classification_task,2021.2.3,Win32,60.0132029,5cfaab352e080000016ec742,626b377229c10585ec392f89,626b3952ce43f9be9845f73d,,,,,,,,,,,,,,,,,,,,,,,,,,,,,,,,,,,,,,,,,,,,,,,,,,,,,I can rely on the aid to behave in consistent ways,,0.7,0,4,1217.9383,0,0,0,0,1,0,,,,
,5cfaab352e080000016ec742,001,2022-04-29_03h03.56.802,classification_task,2021.2.3,Win32,60.0132029,5cfaab352e080000016ec742,626b377229c10585ec392f89,626b3952ce43f9be9845f73d,,,,,,,,,,,,,,,,,,,,,,,,,,,,,,,,,,,,,,,,,,,,,,,,,,,,,I can rely on the aid to do its best every time I take its advice,,0.7,0,4,1224.6731,0,0,0,0,1,0,,,,
,5cfaab352e080000016ec742,001,2022-04-29_03h03.56.802,classification_task,2021.2.3,Win32,60.0132029,5cfaab352e080000016ec742,626b377229c10585ec392f89,626b3952ce43f9be9845f73d,,,,,,,,,,,,,,,,,,,,,,,,,,,,,,,,,,,,,,,,,,,,,,,,,,,,,"On trials you completed with assistance from the aid, how frequently did you think the aid was correct?",,0.7,0,some,,0,0,0,0,1,0,,,,
,5cfaab352e080000016ec742,001,2022-04-29_03h03.56.802,classification_task,2021.2.3,Win32,60.0132029,5cfaab352e080000016ec742,626b377229c10585ec392f89,626b3952ce43f9be9845f73d,,,,,,,,,,,,,,,,,,,,,,,,,,,,,,,,,,,,,,,,,,,,,,,,,,,,,"On trials you completed without the aid, how frequently did you think you were correct?",,0.7,0,few,,0,0,0,0,1,0,,,,
,5cfaab352e080000016ec742,001,2022-04-29_03h03.56.802,classification_task,2021.2.3,Win32,60.0132029,5cfaab352e080000016ec742,626b377229c10585ec392f89,626b3952ce43f9be9845f73d,,,,,,,,,,,,,,,,,,,,,,,,,,,,,,,,,,,,,,,,,,,,,,,,,,,,,,,,,,,0,0,0,0,1,,,,,
,5cfaab352e080000016ec742,001,2022-04-29_03h03.56.802,classification_task,2021.2.3,Win32,60.0132029,5cfaab352e080000016ec742,626b377229c10585ec392f89,626b3952ce43f9be9845f73d,,,,,,,,,,,,,,,,,,,,,,,,,,,,,,,,,,,,,,,,,,,,,,,,,,,,,,,,,,,,,,,,,space,11.087,1255.7436,
,5cfaab352e080000016ec742,001,2022-04-29_03h03.56.802,classification_task,2021.2.3,Win32,60.0132029,5cfaab352e080000016ec742,626b377229c10585ec392f89,626b3952ce43f9be9845f73d,,,,,,,,,,,,,,,,,,,,,,,,,,,,,,,,,,,,,,,,,,,,,,,,,,,,,,,,,,,,,,,,,,,,"Mozilla/5.0 (Windows NT 6.3) AppleWebKit/537.36 (KHTML, like Gecko) Chrome/100.0.4896.127 Safari/537.36"
