usingWebGL,participant,session,date,expName,psychopyVersion,OS,frameRate,PROLIFIC_PID,STUDY_ID,SESSION_ID,signatures_friend,signatures_foe,band_ranges_top,band_ranges_bottom,formitemText,formtype,formundefined,formitemWidth,formindex,formresponse,formrt,key_resp_2.keys,key_resp_2.rt,tute_resp.keys,tute_resp.rt,tutorial.thisRepN,tutorial.thisTrialN,tutorial.thisN,tutorial.thisIndex,tutorial.ran,key_resp_4.keys,key_resp_4.rt,key_resp.keys,key_resp.corr,lines_presented,is_signal_presented,trials.thisRepN,trials.thisTrialN,trials.thisN,trials.thisIndex,trials.ran,vessel,active_band,lines,is_signal,supported_pos,catch_trial,key_resp.rt,debrief_formindex,debrief_formitemText,debrief_formtype,debrief_formitemWidth,debrief_formresponse,debrief_formrt,phases.thisRepN,phases.thisTrialN,phases.thisN,phases.thisIndex,phases.ran,phases.order,phase,key_resp_3.keys,trustitemText,trusttype,trustitemWidth,trustindex,trustresponse,trustrt,support_status.thisRepN,support_status.thisTrialN,support_status.thisN,support_status.thisIndex,support_status.ran,support_status.order,key_resp_5.keys,key_resp_5.rt,globalClockTime,userAgent
TRUE,5d33c9fbcb8e950001c30a9b,001,2022-04-29_04h11.55.278,classification_task,2021.2.3,Win32,59.99880002,5d33c9fbcb8e950001c30a9b,626b377229c10585ec392f89,626b3b1b36fdfd036b9a8a93,,,,,,,,,,,,,,,,,,,,,,,,,,,,,,,,,,,,,,,,,,,,,,,,,,,,,,,,,,,,,,,,,,,,
,5d33c9fbcb8e950001c30a9b,001,2022-04-29_04h11.55.278,classification_task,2021.2.3,Win32,59.99880002,5d33c9fbcb8e950001c30a9b,626b377229c10585ec392f89,626b3b1b36fdfd036b9a8a93,"[[""0.220"",""0.535"",""0.913"",""0.955""],[""0.290"",""0.492"",""0.836"",""0.873""]]","[[""0.080"",""0.342"",""0.618"",""0.736""],[""0.134"",""0.375"",""0.583"",""0.689""]]","[1,10]","[100,1000]",Video game experience,,,0.7,0,,,,,,,,,,,,,,,,,,,,,,,,,,,,,,,,,,,,,,,,,,,,,,,,,,,,,,,,,,,
,5d33c9fbcb8e950001c30a9b,001,2022-04-29_04h11.55.278,classification_task,2021.2.3,Win32,59.99880002,5d33c9fbcb8e950001c30a9b,626b377229c10585ec392f89,626b3b1b36fdfd036b9a8a93,,,,,Approximately how many hours did you spend playing video games in the last week?,,,0.7,0,28,,,,,,,,,,,,,,,,,,,,,,,,,,,,,,,,,,,,,,,,,,,,,,,,,,,,,,,,,,
,5d33c9fbcb8e950001c30a9b,001,2022-04-29_04h11.55.278,classification_task,2021.2.3,Win32,59.99880002,5d33c9fbcb8e950001c30a9b,626b377229c10585ec392f89,626b3b1b36fdfd036b9a8a93,,,,,"Which game did you play the most this year? (Enter ""None"" if you didn't play any)",,,0.7,0,NBA 2K22,,,,,,,,,,,,,,,,,,,,,,,,,,,,,,,,,,,,,,,,,,,,,,,,,,,,,,,,,,
,5d33c9fbcb8e950001c30a9b,001,2022-04-29_04h11.55.278,classification_task,2021.2.3,Win32,59.99880002,5d33c9fbcb8e950001c30a9b,626b377229c10585ec392f89,626b3b1b36fdfd036b9a8a93,,,,,Visual perception,,,0.7,0,,,,,,,,,,,,,,,,,,,,,,,,,,,,,,,,,,,,,,,,,,,,,,,,,,,,,,,,,,,
,5d33c9fbcb8e950001c30a9b,001,2022-04-29_04h11.55.278,classification_task,2021.2.3,Win32,59.99880002,5d33c9fbcb8e950001c30a9b,626b377229c10585ec392f89,626b3b1b36fdfd036b9a8a93,,,,,Do you have any form of color blindness?,,,0.7,0,No,31.2558,,,,,,,,,,,,,,,,,,,,,,,,,,,,,,,,,,,,,,,,,,,,,,,,,,,,,,,,,
,5d33c9fbcb8e950001c30a9b,001,2022-04-29_04h11.55.278,classification_task,2021.2.3,Win32,59.99880002,5d33c9fbcb8e950001c30a9b,626b377229c10585ec392f89,626b3b1b36fdfd036b9a8a93,,,,,Do you use software to change the colour temperature of your screen (e.g. f.lux)?,,,0.7,0,Yes,34.3303,,,,,,,,,,,,,,,,,,,,,,,,,,,,,,,,,,,,,,,,,,,,,,,,,,,,,,,,,
,5d33c9fbcb8e950001c30a9b,001,2022-04-29_04h11.55.278,classification_task,2021.2.3,Win32,59.99880002,5d33c9fbcb8e950001c30a9b,626b377229c10585ec392f89,626b3b1b36fdfd036b9a8a93,,,,,,,,,,,,space,33.4042,space,6.6489,0,0,0,0,1,,,,,,,,,,,,,,,,,,,,,,,,,,,,,,,,,,,,,,,,,,,,,,,,
,5d33c9fbcb8e950001c30a9b,001,2022-04-29_04h11.55.278,classification_task,2021.2.3,Win32,59.99880002,5d33c9fbcb8e950001c30a9b,626b377229c10585ec392f89,626b3b1b36fdfd036b9a8a93,,,,,,,,,,,,,,space,7.5668,1,0,1,0,1,,,,,,,,,,,,,,,,,,,,,,,,,,,,,,,,,,,,,,,,,,,,,,,,
,5d33c9fbcb8e950001c30a9b,001,2022-04-29_04h11.55.278,classification_task,2021.2.3,Win32,59.99880002,5d33c9fbcb8e950001c30a9b,626b377229c10585ec392f89,626b3b1b36fdfd036b9a8a93,,,,,,,,,,,,,,space,9.8335,2,0,2,0,1,,,,,,,,,,,,,,,,,,,,,,,,,,,,,,,,,,,,,,,,,,,,,,,,
,5d33c9fbcb8e950001c30a9b,001,2022-04-29_04h11.55.278,classification_task,2021.2.3,Win32,59.99880002,5d33c9fbcb8e950001c30a9b,626b377229c10585ec392f89,626b3b1b36fdfd036b9a8a93,,,,,,,,,,,,,,space,16.4256,3,0,3,0,1,,,,,,,,,,,,,,,,,,,,,,,,,,,,,,,,,,,,,,,,,,,,,,,,
,5d33c9fbcb8e950001c30a9b,001,2022-04-29_04h11.55.278,classification_task,2021.2.3,Win32,59.99880002,5d33c9fbcb8e950001c30a9b,626b377229c10585ec392f89,626b3b1b36fdfd036b9a8a93,,,,,,,,,,,,,,space,15.3738,4,0,4,0,1,,,,,,,,,,,,,,,,,,,,,,,,,,,,,,,,,,,,,,,,,,,,,,,,
,5d33c9fbcb8e950001c30a9b,001,2022-04-29_04h11.55.278,classification_task,2021.2.3,Win32,59.99880002,5d33c9fbcb8e950001c30a9b,626b377229c10585ec392f89,626b3b1b36fdfd036b9a8a93,,,,,,,,,,,,,,,,,,,,,space,21.4175,,0,"[""0.220"",""0.171"",""0.913"",""0.955""]","[1,0,1,1]",0,0,0,0,1,0,0,,,0,FALSE,,,,,,,,,,,,,,,,,,,,,,,,,,,,,,,
,5d33c9fbcb8e950001c30a9b,001,2022-04-29_04h11.55.278,classification_task,2021.2.3,Win32,59.99880002,5d33c9fbcb8e950001c30a9b,626b377229c10585ec392f89,626b3b1b36fdfd036b9a8a93,,,,,,,,,,,,,,,,,,,,,,,a,1,"[""0.421"",""0.492"",""0.836"",""0.873""]","[0,1,1,1]",0,1,1,1,1,0,1,,,0,FALSE,6.4308,,,,,,,,,,,,,,,,,,,,,,,,,,,,,,
,5d33c9fbcb8e950001c30a9b,001,2022-04-29_04h11.55.278,classification_task,2021.2.3,Win32,59.99880002,5d33c9fbcb8e950001c30a9b,626b377229c10585ec392f89,626b3b1b36fdfd036b9a8a93,,,,,,,,,,,,,,,,,,,,,,,l,1,"[""0.080"",""0.342"",""0.652"",""0.736""]","[1,1,0,1]",0,2,2,2,1,1,0,,,0,FALSE,3.5126,,,,,,,,,,,,,,,,,,,,,,,,,,,,,,
,5d33c9fbcb8e950001c30a9b,001,2022-04-29_04h11.55.278,classification_task,2021.2.3,Win32,59.99880002,5d33c9fbcb8e950001c30a9b,626b377229c10585ec392f89,626b3b1b36fdfd036b9a8a93,,,,,,,,,,,,,,,,,,,,,,,a,1,"[""0.290"",""0.492"",""0.836"",""0.429""]","[1,1,1,0]",0,3,3,3,1,0,1,,,0,FALSE,4.9256,,,,,,,,,,,,,,,,,,,,,,,,,,,,,,
,5d33c9fbcb8e950001c30a9b,001,2022-04-29_04h11.55.278,classification_task,2021.2.3,Win32,59.99880002,5d33c9fbcb8e950001c30a9b,626b377229c10585ec392f89,626b3b1b36fdfd036b9a8a93,,,,,,,,,,,,,,,,,,,,,,,l,1,"[""0.134"",""0.375"",""0.652"",""0.689""]","[1,1,0,1]",0,4,4,4,1,1,1,,,0,FALSE,3.2457,,,,,,,,,,,,,,,,,,,,,,,,,,,,,,
,5d33c9fbcb8e950001c30a9b,001,2022-04-29_04h11.55.278,classification_task,2021.2.3,Win32,59.99880002,5d33c9fbcb8e950001c30a9b,626b377229c10585ec392f89,626b3b1b36fdfd036b9a8a93,,,,,,,,,,,,,,,,,,,,,,,a,1,"[""0.290"",""0.492"",""0.784"",""0.873""]","[1,1,0,1]",0,5,5,5,1,0,1,,,0,FALSE,3.4621,,,,,,,,,,,,,,,,,,,,,,,,,,,,,,
,5d33c9fbcb8e950001c30a9b,001,2022-04-29_04h11.55.278,classification_task,2021.2.3,Win32,59.99880002,5d33c9fbcb8e950001c30a9b,626b377229c10585ec392f89,626b3b1b36fdfd036b9a8a93,,,,,,,,,,,,,,,,,,,,,,,l,1,"[""0.080"",""0.455"",""0.618"",""0.736""]","[1,0,1,1]",0,6,6,6,1,1,0,,,0,FALSE,2.5587,,,,,,,,,,,,,,,,,,,,,,,,,,,,,,
,5d33c9fbcb8e950001c30a9b,001,2022-04-29_04h11.55.278,classification_task,2021.2.3,Win32,59.99880002,5d33c9fbcb8e950001c30a9b,626b377229c10585ec392f89,626b3b1b36fdfd036b9a8a93,,,,,,,,,,,,,,,,,,,,,,,l,1,"[""0.180"",""0.375"",""0.583"",""0.689""]","[0,1,1,1]",0,7,7,7,1,1,1,,,0,FALSE,4.0908,,,,,,,,,,,,,,,,,,,,,,,,,,,,,,
,5d33c9fbcb8e950001c30a9b,001,2022-04-29_04h11.55.278,classification_task,2021.2.3,Win32,59.99880002,5d33c9fbcb8e950001c30a9b,626b377229c10585ec392f89,626b3b1b36fdfd036b9a8a93,,,,,,,,,,,,,,,,,,,,,,,a,1,"[""0.290"",""0.455"",""0.836"",""0.873""]","[1,0,1,1]",0,8,8,8,1,0,1,,,0,FALSE,2.8974,,,,,,,,,,,,,,,,,,,,,,,,,,,,,,
,5d33c9fbcb8e950001c30a9b,001,2022-04-29_04h11.55.278,classification_task,2021.2.3,Win32,59.99880002,5d33c9fbcb8e950001c30a9b,626b377229c10585ec392f89,626b3b1b36fdfd036b9a8a93,,,,,,,,,,,,,,,,,,,,,,,a,1,"[""0.220"",""0.535"",""0.654"",""0.955""]","[1,1,0,1]",0,9,9,9,1,0,0,,,0,FALSE,2.4793,,,,,,,,,,,,,,,,,,,,,,,,,,,,,,
,5d33c9fbcb8e950001c30a9b,001,2022-04-29_04h11.55.278,classification_task,2021.2.3,Win32,59.99880002,5d33c9fbcb8e950001c30a9b,626b377229c10585ec392f89,626b3b1b36fdfd036b9a8a93,,,,,,,,,,,,,,,,,,,,,,,l,1,"[""0.134"",""0.773"",""0.583"",""0.689""]","[1,0,1,1]",0,10,10,10,1,1,1,,,0,FALSE,2.3175,,,,,,,,,,,,,,,,,,,,,,,,,,,,,,
,5d33c9fbcb8e950001c30a9b,001,2022-04-29_04h11.55.278,classification_task,2021.2.3,Win32,59.99880002,5d33c9fbcb8e950001c30a9b,626b377229c10585ec392f89,626b3b1b36fdfd036b9a8a93,,,,,,,,,,,,,,,,,,,,,,,a,0,"[""0.180"",""0.342"",""0.618"",""0.736""]","[0,1,1,1]",0,11,11,11,1,1,0,,,0,FALSE,3.1932,,,,,,,,,,,,,,,,,,,,,,,,,,,,,,
,5d33c9fbcb8e950001c30a9b,001,2022-04-29_04h11.55.278,classification_task,2021.2.3,Win32,59.99880002,5d33c9fbcb8e950001c30a9b,626b377229c10585ec392f89,626b3b1b36fdfd036b9a8a93,,,,,,,,,,,,,,,,,,,,,,,l,1,"[""0.080"",""0.342"",""0.618"",""0.801""]","[1,1,1,0]",0,12,12,12,1,1,0,,,0,FALSE,1.9697,,,,,,,,,,,,,,,,,,,,,,,,,,,,,,
,5d33c9fbcb8e950001c30a9b,001,2022-04-29_04h11.55.278,classification_task,2021.2.3,Win32,59.99880002,5d33c9fbcb8e950001c30a9b,626b377229c10585ec392f89,626b3b1b36fdfd036b9a8a93,,,,,,,,,,,,,,,,,,,,,,,l,0,"[""0.220"",""0.535"",""0.913"",""0.043""]","[1,1,1,0]",0,13,13,13,1,0,0,,,0,FALSE,3.5539,,,,,,,,,,,,,,,,,,,,,,,,,,,,,,
,5d33c9fbcb8e950001c30a9b,001,2022-04-29_04h11.55.278,classification_task,2021.2.3,Win32,59.99880002,5d33c9fbcb8e950001c30a9b,626b377229c10585ec392f89,626b3b1b36fdfd036b9a8a93,,,,,,,,,,,,,,,,,,,,,,,a,1,"[""0.429"",""0.535"",""0.913"",""0.955""]","[0,1,1,1]",0,14,14,14,1,0,0,,,0,FALSE,5.7536,,,,,,,,,,,,,,,,,,,,,,,,,,,,,,
,5d33c9fbcb8e950001c30a9b,001,2022-04-29_04h11.55.278,classification_task,2021.2.3,Win32,59.99880002,5d33c9fbcb8e950001c30a9b,626b377229c10585ec392f89,626b3b1b36fdfd036b9a8a93,,,,,,,,,,,,,,,,,,,,,,,l,1,"[""0.134"",""0.375"",""0.583"",""0.043""]","[1,1,1,0]",0,15,15,15,1,1,1,,,0,FALSE,5.1323,,,,,,,,,,,,,,,,,,,,,,,,,,,,,,
,5d33c9fbcb8e950001c30a9b,001,2022-04-29_04h11.55.278,classification_task,2021.2.3,Win32,59.99880002,5d33c9fbcb8e950001c30a9b,626b377229c10585ec392f89,626b3b1b36fdfd036b9a8a93,,,,,,,,,,,,,,,,,,,,,,,a,1,"[""0.220"",""0.801"",""0.913"",""0.955""]","[1,0,1,1]",0,16,16,16,1,0,0,,,0,FALSE,3.0475,,,,,,,,,,,,,,,,,,,,,,,,,,,,,,
,5d33c9fbcb8e950001c30a9b,001,2022-04-29_04h11.55.278,classification_task,2021.2.3,Win32,59.99880002,5d33c9fbcb8e950001c30a9b,626b377229c10585ec392f89,626b3b1b36fdfd036b9a8a93,,,,,,,,,,,,,,,,,,,,,,,a,1,"[""0.290"",""0.172"",""0.836"",""0.873""]","[1,0,1,1]",0,17,17,17,1,0,1,,,0,FALSE,3.559,,,,,,,,,,,,,,,,,,,,,,,,,,,,,,
,5d33c9fbcb8e950001c30a9b,001,2022-04-29_04h11.55.278,classification_task,2021.2.3,Win32,59.99880002,5d33c9fbcb8e950001c30a9b,626b377229c10585ec392f89,626b3b1b36fdfd036b9a8a93,,,,,,,,,,,,,,,,,,,,,,,l,1,"[""0.801"",""0.342"",""0.618"",""0.736""]","[0,1,1,1]",0,18,18,18,1,1,0,,,0,FALSE,3.9264,,,,,,,,,,,,,,,,,,,,,,,,,,,,,,
,5d33c9fbcb8e950001c30a9b,001,2022-04-29_04h11.55.278,classification_task,2021.2.3,Win32,59.99880002,5d33c9fbcb8e950001c30a9b,626b377229c10585ec392f89,626b3b1b36fdfd036b9a8a93,,,,,,,,,,,,,,,,,,,,,,,l,1,"[""0.080"",""0.342"",""0.618"",""0.801""]","[1,1,1,0]",0,19,19,19,1,1,0,,,0,FALSE,2.598,,,,,,,,,,,,,,,,,,,,,,,,,,,,,,
,5d33c9fbcb8e950001c30a9b,001,2022-04-29_04h11.55.278,classification_task,2021.2.3,Win32,59.99880002,5d33c9fbcb8e950001c30a9b,626b377229c10585ec392f89,626b3b1b36fdfd036b9a8a93,,,,,,,,,,,,,,,,,,,,,,,l,1,"[""0.134"",""0.044"",""0.583"",""0.689""]","[1,0,1,1]",0,20,20,20,1,1,1,,,0,FALSE,4.2737,,,,,,,,,,,,,,,,,,,,,,,,,,,,,,
,5d33c9fbcb8e950001c30a9b,001,2022-04-29_04h11.55.278,classification_task,2021.2.3,Win32,59.99880002,5d33c9fbcb8e950001c30a9b,626b377229c10585ec392f89,626b3b1b36fdfd036b9a8a93,,,,,,,,,,,,,,,,,,,,,,,a,1,"[""0.290"",""0.492"",""0.836"",""0.421""]","[1,1,1,0]",0,21,21,21,1,0,1,,,0,FALSE,2.2687,,,,,,,,,,,,,,,,,,,,,,,,,,,,,,
,5d33c9fbcb8e950001c30a9b,001,2022-04-29_04h11.55.278,classification_task,2021.2.3,Win32,59.99880002,5d33c9fbcb8e950001c30a9b,626b377229c10585ec392f89,626b3b1b36fdfd036b9a8a93,,,,,,,,,,,,,,,,,,,,,,,l,1,"[""0.134"",""0.375"",""0.583"",""0.455""]","[1,1,1,0]",0,22,22,22,1,1,1,,,0,FALSE,1.5561,,,,,,,,,,,,,,,,,,,,,,,,,,,,,,
,5d33c9fbcb8e950001c30a9b,001,2022-04-29_04h11.55.278,classification_task,2021.2.3,Win32,59.99880002,5d33c9fbcb8e950001c30a9b,626b377229c10585ec392f89,626b3b1b36fdfd036b9a8a93,,,,,,,,,,,,,,,,,,,,,,,l,1,"[""0.080"",""0.342"",""0.654"",""0.736""]","[1,1,0,1]",0,23,23,23,1,1,0,,,0,FALSE,1.7792,,,,,,,,,,,,,,,,,,,,,,,,,,,,,,
,5d33c9fbcb8e950001c30a9b,001,2022-04-29_04h11.55.278,classification_task,2021.2.3,Win32,59.99880002,5d33c9fbcb8e950001c30a9b,626b377229c10585ec392f89,626b3b1b36fdfd036b9a8a93,,,,,,,,,,,,,,,,,,,,,,,l,0,"[""0.044"",""0.492"",""0.836"",""0.873""]","[0,1,1,1]",0,24,24,24,1,0,1,,,0,FALSE,1.3995,,,,,,,,,,,,,,,,,,,,,,,,,,,,,,
,5d33c9fbcb8e950001c30a9b,001,2022-04-29_04h11.55.278,classification_task,2021.2.3,Win32,59.99880002,5d33c9fbcb8e950001c30a9b,626b377229c10585ec392f89,626b3b1b36fdfd036b9a8a93,,,,,,,,,,,,,,,,,,,,,,,a,1,"[""0.290"",""0.492"",""0.455"",""0.873""]","[1,1,0,1]",0,25,25,25,1,0,1,,,0,FALSE,2.1878,,,,,,,,,,,,,,,,,,,,,,,,,,,,,,
,5d33c9fbcb8e950001c30a9b,001,2022-04-29_04h11.55.278,classification_task,2021.2.3,Win32,59.99880002,5d33c9fbcb8e950001c30a9b,626b377229c10585ec392f89,626b3b1b36fdfd036b9a8a93,,,,,,,,,,,,,,,,,,,,,,,a,1,"[""0.220"",""0.535"",""0.044"",""0.955""]","[1,1,0,1]",0,26,26,26,1,0,0,,,0,FALSE,7.0928,,,,,,,,,,,,,,,,,,,,,,,,,,,,,,
,5d33c9fbcb8e950001c30a9b,001,2022-04-29_04h11.55.278,classification_task,2021.2.3,Win32,59.99880002,5d33c9fbcb8e950001c30a9b,626b377229c10585ec392f89,626b3b1b36fdfd036b9a8a93,,,,,,,,,,,,,,,,,,,,,,,l,1,"[""0.134"",""0.375"",""0.428"",""0.689""]","[1,1,0,1]",0,27,27,27,1,1,1,,,0,FALSE,1.8107,,,,,,,,,,,,,,,,,,,,,,,,,,,,,,
,5d33c9fbcb8e950001c30a9b,001,2022-04-29_04h11.55.278,classification_task,2021.2.3,Win32,59.99880002,5d33c9fbcb8e950001c30a9b,626b377229c10585ec392f89,626b3b1b36fdfd036b9a8a93,,,,,,,,,,,,,,,,,,,,,,,a,1,"[""0.773"",""0.535"",""0.913"",""0.955""]","[0,1,1,1]",0,28,28,28,1,0,0,,,0,FALSE,7.0485,,,,,,,,,,,,,,,,,,,,,,,,,,,,,,
,5d33c9fbcb8e950001c30a9b,001,2022-04-29_04h11.55.278,classification_task,2021.2.3,Win32,59.99880002,5d33c9fbcb8e950001c30a9b,626b377229c10585ec392f89,626b3b1b36fdfd036b9a8a93,,,,,,,,,,,,,,,,,,,,,,,l,1,"[""0.654"",""0.375"",""0.583"",""0.689""]","[0,1,1,1]",0,29,29,29,1,1,1,,,0,FALSE,4.8966,,,,,,,,,,,,,,,,,,,,,,,,,,,,,,
,5d33c9fbcb8e950001c30a9b,001,2022-04-29_04h11.55.278,classification_task,2021.2.3,Win32,59.99880002,5d33c9fbcb8e950001c30a9b,626b377229c10585ec392f89,626b3b1b36fdfd036b9a8a93,,,,,,,,,,,,,,,,,,,,,,,l,1,"[""0.080"",""0.652"",""0.618"",""0.736""]","[1,0,1,1]",0,30,30,30,1,1,0,,,0,FALSE,3.6122,,,,,,,,,,,,,,,,,,,,,,,,,,,,,,
,5d33c9fbcb8e950001c30a9b,001,2022-04-29_04h11.55.278,classification_task,2021.2.3,Win32,59.99880002,5d33c9fbcb8e950001c30a9b,626b377229c10585ec392f89,626b3b1b36fdfd036b9a8a93,,,,,,,,,,,,,,,,,,,,,,,l,0,"[""0.220"",""0.535"",""0.913"",""0.043""]","[1,1,1,0]",0,31,31,31,1,0,0,,,0,FALSE,2.7444,,,,,,,,,,,,,,,,,,,,,,,,,,,,,,
,5d33c9fbcb8e950001c30a9b,001,2022-04-29_04h11.55.278,classification_task,2021.2.3,Win32,59.99880002,5d33c9fbcb8e950001c30a9b,626b377229c10585ec392f89,626b3b1b36fdfd036b9a8a93,,,,,,,,,,,,,,,,,,,,,,,a,0,"[""0.080"",""0.342"",""0.171"",""0.736""]","[1,1,0,1]",0,32,32,32,1,1,0,,,0,FALSE,7.0375,,,,,,,,,,,,,,,,,,,,,,,,,,,,,,
,5d33c9fbcb8e950001c30a9b,001,2022-04-29_04h11.55.278,classification_task,2021.2.3,Win32,59.99880002,5d33c9fbcb8e950001c30a9b,626b377229c10585ec392f89,626b3b1b36fdfd036b9a8a93,,,,,,,,,,,,,,,,,,,,,,,a,0,"[""0.080"",""0.044"",""0.618"",""0.736""]","[1,0,1,1]",0,33,33,33,1,1,0,,,0,FALSE,4.3446,,,,,,,,,,,,,,,,,,,,,,,,,,,,,,
,5d33c9fbcb8e950001c30a9b,001,2022-04-29_04h11.55.278,classification_task,2021.2.3,Win32,59.99880002,5d33c9fbcb8e950001c30a9b,626b377229c10585ec392f89,626b3b1b36fdfd036b9a8a93,,,,,,,,,,,,,,,,,,,,,,,l,0,"[""0.290"",""0.492"",""0.781"",""0.873""]","[1,1,0,1]",0,34,34,34,1,0,1,,,0,FALSE,4.0843,,,,,,,,,,,,,,,,,,,,,,,,,,,,,,
,5d33c9fbcb8e950001c30a9b,001,2022-04-29_04h11.55.278,classification_task,2021.2.3,Win32,59.99880002,5d33c9fbcb8e950001c30a9b,626b377229c10585ec392f89,626b3b1b36fdfd036b9a8a93,,,,,,,,,,,,,,,,,,,,,,,a,0,"[""0.171"",""0.342"",""0.618"",""0.736""]","[0,1,1,1]",0,35,35,35,1,1,0,,,0,FALSE,1.7017,,,,,,,,,,,,,,,,,,,,,,,,,,,,,,
,5d33c9fbcb8e950001c30a9b,001,2022-04-29_04h11.55.278,classification_task,2021.2.3,Win32,59.99880002,5d33c9fbcb8e950001c30a9b,626b377229c10585ec392f89,626b3b1b36fdfd036b9a8a93,,,,,,,,,,,,,,,,,,,,,,,a,0,"[""0.080"",""0.342"",""0.618"",""0.455""]","[1,1,1,0]",0,36,36,36,1,1,0,,,0,FALSE,3.952,,,,,,,,,,,,,,,,,,,,,,,,,,,,,,
,5d33c9fbcb8e950001c30a9b,001,2022-04-29_04h11.55.278,classification_task,2021.2.3,Win32,59.99880002,5d33c9fbcb8e950001c30a9b,626b377229c10585ec392f89,626b3b1b36fdfd036b9a8a93,,,,,,,,,,,,,,,,,,,,,,,a,0,"[""0.134"",""0.375"",""0.180"",""0.689""]","[1,1,0,1]",0,37,37,37,1,1,1,,,0,FALSE,1.7453,,,,,,,,,,,,,,,,,,,,,,,,,,,,,,
,5d33c9fbcb8e950001c30a9b,001,2022-04-29_04h11.55.278,classification_task,2021.2.3,Win32,59.99880002,5d33c9fbcb8e950001c30a9b,626b377229c10585ec392f89,626b3b1b36fdfd036b9a8a93,,,,,,,,,,,,,,,,,,,,,,,a,1,"[""0.220"",""0.535"",""0.913"",""0.455""]","[1,1,1,0]",0,38,38,38,1,0,0,,,0,FALSE,0.984,,,,,,,,,,,,,,,,,,,,,,,,,,,,,,
,5d33c9fbcb8e950001c30a9b,001,2022-04-29_04h11.55.278,classification_task,2021.2.3,Win32,59.99880002,5d33c9fbcb8e950001c30a9b,626b377229c10585ec392f89,626b3b1b36fdfd036b9a8a93,,,,,,,,,,,,,,,,,,,,,,,l,0,"[""0.773"",""0.535"",""0.913"",""0.955""]","[0,1,1,1]",0,39,39,39,1,0,0,,,0,FALSE,1.9009,,,,,,,,,,,,,,,,,,,,,,,,,,,,,,
,5d33c9fbcb8e950001c30a9b,001,2022-04-29_04h11.55.278,classification_task,2021.2.3,Win32,59.99880002,5d33c9fbcb8e950001c30a9b,626b377229c10585ec392f89,626b3b1b36fdfd036b9a8a93,,,,,,,,,,,,,,,,,,,,,,,a,0,"[""0.134"",""0.180"",""0.583"",""0.689""]","[1,0,1,1]",0,40,40,40,1,1,1,,,0,FALSE,4.4853,,,,,,,,,,,,,,,,,,,,,,,,,,,,,,
,5d33c9fbcb8e950001c30a9b,001,2022-04-29_04h11.55.278,classification_task,2021.2.3,Win32,59.99880002,5d33c9fbcb8e950001c30a9b,626b377229c10585ec392f89,626b3b1b36fdfd036b9a8a93,,,,,,,,,,,,,,,,,,,,,,,a,0,"[""0.172"",""0.375"",""0.583"",""0.689""]","[0,1,1,1]",0,41,41,41,1,1,1,,,0,FALSE,2.0025,,,,,,,,,,,,,,,,,,,,,,,,,,,,,,
,5d33c9fbcb8e950001c30a9b,001,2022-04-29_04h11.55.278,classification_task,2021.2.3,Win32,59.99880002,5d33c9fbcb8e950001c30a9b,626b377229c10585ec392f89,626b3b1b36fdfd036b9a8a93,,,,,,,,,,,,,,,,,,,,,,,l,0,"[""0.290"",""0.171"",""0.836"",""0.873""]","[1,0,1,1]",0,42,42,42,1,0,1,,,0,FALSE,0.635,,,,,,,,,,,,,,,,,,,,,,,,,,,,,,
,5d33c9fbcb8e950001c30a9b,001,2022-04-29_04h11.55.278,classification_task,2021.2.3,Win32,59.99880002,5d33c9fbcb8e950001c30a9b,626b377229c10585ec392f89,626b3b1b36fdfd036b9a8a93,,,,,,,,,,,,,,,,,,,,,,,l,1,"[""0.134"",""0.375"",""0.583"",""0.421""]","[1,1,1,0]",0,43,43,43,1,1,1,,,0,FALSE,1.3016,,,,,,,,,,,,,,,,,,,,,,,,,,,,,,
,5d33c9fbcb8e950001c30a9b,001,2022-04-29_04h11.55.278,classification_task,2021.2.3,Win32,59.99880002,5d33c9fbcb8e950001c30a9b,626b377229c10585ec392f89,626b3b1b36fdfd036b9a8a93,,,,,,,,,,,,,,,,,,,,,,,l,0,"[""0.220"",""0.180"",""0.913"",""0.955""]","[1,0,1,1]",0,44,44,44,1,0,0,,,0,FALSE,2.0425,,,,,,,,,,,,,,,,,,,,,,,,,,,,,,
,5d33c9fbcb8e950001c30a9b,001,2022-04-29_04h11.55.278,classification_task,2021.2.3,Win32,59.99880002,5d33c9fbcb8e950001c30a9b,626b377229c10585ec392f89,626b3b1b36fdfd036b9a8a93,,,,,,,,,,,,,,,,,,,,,,,a,1,"[""0.290"",""0.492"",""0.836"",""0.654""]","[1,1,1,0]",0,45,45,45,1,0,1,,,0,FALSE,1.7093,,,,,,,,,,,,,,,,,,,,,,,,,,,,,,
,5d33c9fbcb8e950001c30a9b,001,2022-04-29_04h11.55.278,classification_task,2021.2.3,Win32,59.99880002,5d33c9fbcb8e950001c30a9b,626b377229c10585ec392f89,626b3b1b36fdfd036b9a8a93,,,,,,,,,,,,,,,,,,,,,,,a,1,"[""0.652"",""0.492"",""0.836"",""0.873""]","[0,1,1,1]",0,46,46,46,1,0,1,,,0,FALSE,3.6949,,,,,,,,,,,,,,,,,,,,,,,,,,,,,,
,5d33c9fbcb8e950001c30a9b,001,2022-04-29_04h11.55.278,classification_task,2021.2.3,Win32,59.99880002,5d33c9fbcb8e950001c30a9b,626b377229c10585ec392f89,626b3b1b36fdfd036b9a8a93,,,,,,,,,,,,,,,,,,,,,,,l,0,"[""0.220"",""0.535"",""0.428"",""0.955""]","[1,1,0,1]",0,47,47,47,1,0,0,,,0,FALSE,0.7452,,,,,,,,,,,,,,,,,,,,,,,,,,,,,,
,5d33c9fbcb8e950001c30a9b,001,2022-04-29_04h11.55.278,classification_task,2021.2.3,Win32,59.99880002,5d33c9fbcb8e950001c30a9b,626b377229c10585ec392f89,626b3b1b36fdfd036b9a8a93,,,,,,,,,,,,,,,,,,,,,,,a,1,"[""0.290"",""0.421"",""0.836"",""0.873""]","[1,0,1,1]",0,48,48,48,1,0,1,,,0,FALSE,1.1363,,,,,,,,,,,,,,,,,,,,,,,,,,,,,,
,5d33c9fbcb8e950001c30a9b,001,2022-04-29_04h11.55.278,classification_task,2021.2.3,Win32,59.99880002,5d33c9fbcb8e950001c30a9b,626b377229c10585ec392f89,626b3b1b36fdfd036b9a8a93,,,,,,,,,,,,,,,,,,,,,,,a,0,"[""0.080"",""0.342"",""0.618"",""0.171""]","[1,1,1,0]",0,49,49,49,1,1,0,,,0,FALSE,2.0555,,,,,,,,,,,,,,,,,,,,,,,,,,,,,,
,5d33c9fbcb8e950001c30a9b,001,2022-04-29_04h11.55.278,classification_task,2021.2.3,Win32,59.99880002,5d33c9fbcb8e950001c30a9b,626b377229c10585ec392f89,626b3b1b36fdfd036b9a8a93,,,,,,,,,,,,,,,,,,,,,,,l,1,"[""0.080"",""0.172"",""0.618"",""0.736""]","[1,0,1,1]",0,50,50,50,1,1,0,,,0,FALSE,1.6083,,,,,,,,,,,,,,,,,,,,,,,,,,,,,,
,5d33c9fbcb8e950001c30a9b,001,2022-04-29_04h11.55.278,classification_task,2021.2.3,Win32,59.99880002,5d33c9fbcb8e950001c30a9b,626b377229c10585ec392f89,626b3b1b36fdfd036b9a8a93,,,,,,,,,,,,,,,,,,,,,,,l,1,"[""0.784"",""0.342"",""0.618"",""0.736""]","[0,1,1,1]",0,51,51,51,1,1,0,,,0,FALSE,1.7815,,,,,,,,,,,,,,,,,,,,,,,,,,,,,,
,5d33c9fbcb8e950001c30a9b,001,2022-04-29_04h11.55.278,classification_task,2021.2.3,Win32,59.99880002,5d33c9fbcb8e950001c30a9b,626b377229c10585ec392f89,626b3b1b36fdfd036b9a8a93,,,,,,,,,,,,,,,,,,,,,,,a,1,"[""0.290"",""0.492"",""0.836"",""0.455""]","[1,1,1,0]",0,52,52,52,1,0,1,,,0,FALSE,2.2563,,,,,,,,,,,,,,,,,,,,,,,,,,,,,,
,5d33c9fbcb8e950001c30a9b,001,2022-04-29_04h11.55.278,classification_task,2021.2.3,Win32,59.99880002,5d33c9fbcb8e950001c30a9b,626b377229c10585ec392f89,626b3b1b36fdfd036b9a8a93,,,,,,,,,,,,,,,,,,,,,,,a,0,"[""0.134"",""0.375"",""0.583"",""0.172""]","[1,1,1,0]",0,53,53,53,1,1,1,,,0,FALSE,1.5949,,,,,,,,,,,,,,,,,,,,,,,,,,,,,,
,5d33c9fbcb8e950001c30a9b,001,2022-04-29_04h11.55.278,classification_task,2021.2.3,Win32,59.99880002,5d33c9fbcb8e950001c30a9b,626b377229c10585ec392f89,626b3b1b36fdfd036b9a8a93,,,,,,,,,,,,,,,,,,,,,,,a,1,"[""0.220"",""0.535"",""0.172"",""0.955""]","[1,1,0,1]",0,54,54,54,1,0,0,,,0,FALSE,1.4528,,,,,,,,,,,,,,,,,,,,,,,,,,,,,,
,5d33c9fbcb8e950001c30a9b,001,2022-04-29_04h11.55.278,classification_task,2021.2.3,Win32,59.99880002,5d33c9fbcb8e950001c30a9b,626b377229c10585ec392f89,626b3b1b36fdfd036b9a8a93,,,,,,,,,,,,,,,,,,,,,,,l,0,"[""0.290"",""0.492"",""0.652"",""0.873""]","[1,1,0,1]",0,55,55,55,1,0,1,,,0,FALSE,0.9592,,,,,,,,,,,,,,,,,,,,,,,,,,,,,,
,5d33c9fbcb8e950001c30a9b,001,2022-04-29_04h11.55.278,classification_task,2021.2.3,Win32,59.99880002,5d33c9fbcb8e950001c30a9b,626b377229c10585ec392f89,626b3b1b36fdfd036b9a8a93,,,,,,,,,,,,,,,,,,,,,,,l,0,"[""0.220"",""0.421"",""0.913"",""0.955""]","[1,0,1,1]",0,56,56,56,1,0,0,,,0,FALSE,2.3672,,,,,,,,,,,,,,,,,,,,,,,,,,,,,,
,5d33c9fbcb8e950001c30a9b,001,2022-04-29_04h11.55.278,classification_task,2021.2.3,Win32,59.99880002,5d33c9fbcb8e950001c30a9b,626b377229c10585ec392f89,626b3b1b36fdfd036b9a8a93,,,,,,,,,,,,,,,,,,,,,,,a,0,"[""0.134"",""0.375"",""0.654"",""0.689""]","[1,1,0,1]",0,57,57,57,1,1,1,,,0,FALSE,0.7488,,,,,,,,,,,,,,,,,,,,,,,,,,,,,,
,5d33c9fbcb8e950001c30a9b,001,2022-04-29_04h11.55.278,classification_task,2021.2.3,Win32,59.99880002,5d33c9fbcb8e950001c30a9b,626b377229c10585ec392f89,626b3b1b36fdfd036b9a8a93,,,,,,,,,,,,,,,,,,,,,,,l,0,"[""0.654"",""0.492"",""0.836"",""0.873""]","[0,1,1,1]",0,58,58,58,1,0,1,,,0,FALSE,0.7359,,,,,,,,,,,,,,,,,,,,,,,,,,,,,,
,5d33c9fbcb8e950001c30a9b,001,2022-04-29_04h11.55.278,classification_task,2021.2.3,Win32,59.99880002,5d33c9fbcb8e950001c30a9b,626b377229c10585ec392f89,626b3b1b36fdfd036b9a8a93,,,,,,,,,,,,,,,,,,,,,,,a,0,"[""0.080"",""0.342"",""0.429"",""0.736""]","[1,1,0,1]",0,59,59,59,1,1,0,,,0,FALSE,0.7549,,,,,,,,,,,,,,,,,,,,,,,,,,,,,,
,5d33c9fbcb8e950001c30a9b,001,2022-04-29_04h11.55.278,classification_task,2021.2.3,Win32,59.99880002,5d33c9fbcb8e950001c30a9b,626b377229c10585ec392f89,626b3b1b36fdfd036b9a8a93,,,,,,,,,,,,,,,,,,,,,,,l,1,"[""0.134"",""0.773"",""0.583"",""0.689""]","[1,0,1,1]",0,60,60,60,1,1,1,,,0,FALSE,0.8345,,,,,,,,,,,,,,,,,,,,,,,,,,,,,,
,5d33c9fbcb8e950001c30a9b,001,2022-04-29_04h11.55.278,classification_task,2021.2.3,Win32,59.99880002,5d33c9fbcb8e950001c30a9b,626b377229c10585ec392f89,626b3b1b36fdfd036b9a8a93,,,,,,,,,,,,,,,,,,,,,,,a,1,"[""0.654"",""0.535"",""0.913"",""0.955""]","[0,1,1,1]",0,61,61,61,1,0,0,,,0,FALSE,2.3516,,,,,,,,,,,,,,,,,,,,,,,,,,,,,,
,5d33c9fbcb8e950001c30a9b,001,2022-04-29_04h11.55.278,classification_task,2021.2.3,Win32,59.99880002,5d33c9fbcb8e950001c30a9b,626b377229c10585ec392f89,626b3b1b36fdfd036b9a8a93,,,,,,,,,,,,,,,,,,,,,,,a,1,"[""0.220"",""0.535"",""0.913"",""0.171""]","[1,1,1,0]",0,62,62,62,1,0,0,,,0,FALSE,2.5027,,,,,,,,,,,,,,,,,,,,,,,,,,,,,,
,5d33c9fbcb8e950001c30a9b,001,2022-04-29_04h11.55.278,classification_task,2021.2.3,Win32,59.99880002,5d33c9fbcb8e950001c30a9b,626b377229c10585ec392f89,626b3b1b36fdfd036b9a8a93,,,,,,,,,,,,,,,,,,,,,,,l,1,"[""0.773"",""0.375"",""0.583"",""0.689""]","[0,1,1,1]",0,63,63,63,1,1,1,,,0,FALSE,1.0635,,,,,,,,,,,,,,,,,,,,,,,,,,,,,,
,5d33c9fbcb8e950001c30a9b,001,2022-04-29_04h11.55.278,classification_task,2021.2.3,Win32,59.99880002,5d33c9fbcb8e950001c30a9b,626b377229c10585ec392f89,626b3b1b36fdfd036b9a8a93,,,,,,,,,,,,,,,,,,,,,,,,,,,,,,,,,,,,,,,0, ,,0,0,434.3013,0,0,0,0,1,2,1,,,,,,,,,,,,,,,,,
,5d33c9fbcb8e950001c30a9b,001,2022-04-29_04h11.55.278,classification_task,2021.2.3,Win32,59.99880002,5d33c9fbcb8e950001c30a9b,626b377229c10585ec392f89,626b3b1b36fdfd036b9a8a93,,,,,,,,,,,,,,,,,,,,,,,,,,,,,,,,,,,,,,,1,  ,,0,6.445228297,430.133,0,0,0,0,1,2,1,,,,,,,,,,,,,,,,,
,5d33c9fbcb8e950001c30a9b,001,2022-04-29_04h11.55.278,classification_task,2021.2.3,Win32,59.99880002,5d33c9fbcb8e950001c30a9b,626b377229c10585ec392f89,626b3b1b36fdfd036b9a8a93,,,,,,,,,,,,,,,,,,,,,,,,,,,,,,,,,,,,,,,2,  ,,0,0.345874976,443.1593,0,0,0,0,1,2,1,,,,,,,,,,,,,,,,,
,5d33c9fbcb8e950001c30a9b,001,2022-04-29_04h11.55.278,classification_task,2021.2.3,Win32,59.99880002,5d33c9fbcb8e950001c30a9b,626b377229c10585ec392f89,626b3b1b36fdfd036b9a8a93,,,,,,,,,,,,,,,,,,,,,,,,,,,,,,,,,,,,,,,,,,,,,0,0,0,0,1,,1,,,,,,,,,,,,,,,,,
,5d33c9fbcb8e950001c30a9b,001,2022-04-29_04h11.55.278,classification_task,2021.2.3,Win32,59.99880002,5d33c9fbcb8e950001c30a9b,626b377229c10585ec392f89,626b3b1b36fdfd036b9a8a93,,,,,,,,,,,,,,,,,,,,,space,13.5997,a,1,"[""0.290"",""0.492"",""0.171"",""0.873""]","[1,1,0,1]",0,0,0,0,1,0,1,,,0,FALSE,3.9022,,,,,,,,,,,,,,,,,,,,,,,,,,,,,,
,5d33c9fbcb8e950001c30a9b,001,2022-04-29_04h11.55.278,classification_task,2021.2.3,Win32,59.99880002,5d33c9fbcb8e950001c30a9b,626b377229c10585ec392f89,626b3b1b36fdfd036b9a8a93,,,,,,,,,,,,,,,,,,,,,,,l,0,"[""0.220"",""0.535"",""0.654"",""0.955""]","[1,1,0,1]",0,1,1,1,1,0,0,,,0,FALSE,3.9785,,,,,,,,,,,,,,,,,,,,,,,,,,,,,,
,5d33c9fbcb8e950001c30a9b,001,2022-04-29_04h11.55.278,classification_task,2021.2.3,Win32,59.99880002,5d33c9fbcb8e950001c30a9b,626b377229c10585ec392f89,626b3b1b36fdfd036b9a8a93,,,,,,,,,,,,,,,,,,,,,,,a,0,"[""0.428"",""0.375"",""0.583"",""0.689""]","[0,1,1,1]",0,2,2,2,1,1,1,,,0,FALSE,5.347,,,,,,,,,,,,,,,,,,,,,,,,,,,,,,
,5d33c9fbcb8e950001c30a9b,001,2022-04-29_04h11.55.278,classification_task,2021.2.3,Win32,59.99880002,5d33c9fbcb8e950001c30a9b,626b377229c10585ec392f89,626b3b1b36fdfd036b9a8a93,,,,,,,,,,,,,,,,,,,,,,,l,0,"[""0.421"",""0.492"",""0.836"",""0.873""]","[0,1,1,1]",0,3,3,3,1,0,1,,,0,FALSE,2.7756,,,,,,,,,,,,,,,,,,,,,,,,,,,,,,
,5d33c9fbcb8e950001c30a9b,001,2022-04-29_04h11.55.278,classification_task,2021.2.3,Win32,59.99880002,5d33c9fbcb8e950001c30a9b,626b377229c10585ec392f89,626b3b1b36fdfd036b9a8a93,,,,,,,,,,,,,,,,,,,,,,,a,1,"[""0.172"",""0.535"",""0.913"",""0.955""]","[0,1,1,1]",0,4,4,4,1,0,0,,,0,FALSE,6.9197,,,,,,,,,,,,,,,,,,,,,,,,,,,,,,
,5d33c9fbcb8e950001c30a9b,001,2022-04-29_04h11.55.278,classification_task,2021.2.3,Win32,59.99880002,5d33c9fbcb8e950001c30a9b,626b377229c10585ec392f89,626b3b1b36fdfd036b9a8a93,,,,,,,,,,,,,,,,,,,,,,,l,1,"[""0.134"",""0.375"",""0.583"",""0.421""]","[1,1,1,0]",0,5,5,5,1,1,1,,,0,FALSE,4.1663,,,,,,,,,,,,,,,,,,,,,,,,,,,,,,
,5d33c9fbcb8e950001c30a9b,001,2022-04-29_04h11.55.278,classification_task,2021.2.3,Win32,59.99880002,5d33c9fbcb8e950001c30a9b,626b377229c10585ec392f89,626b3b1b36fdfd036b9a8a93,,,,,,,,,,,,,,,,,,,,,,,a,1,"[""0.220"",""0.535"",""0.913"",""0.421""]","[1,1,1,0]",0,6,6,6,1,0,0,,,0,FALSE,2.05,,,,,,,,,,,,,,,,,,,,,,,,,,,,,,
,5d33c9fbcb8e950001c30a9b,001,2022-04-29_04h11.55.278,classification_task,2021.2.3,Win32,59.99880002,5d33c9fbcb8e950001c30a9b,626b377229c10585ec392f89,626b3b1b36fdfd036b9a8a93,,,,,,,,,,,,,,,,,,,,,,,l,0,"[""0.220"",""0.781"",""0.913"",""0.955""]","[1,0,1,1]",0,7,7,7,1,0,0,,,0,FALSE,1.0165,,,,,,,,,,,,,,,,,,,,,,,,,,,,,,
,5d33c9fbcb8e950001c30a9b,001,2022-04-29_04h11.55.278,classification_task,2021.2.3,Win32,59.99880002,5d33c9fbcb8e950001c30a9b,626b377229c10585ec392f89,626b3b1b36fdfd036b9a8a93,,,,,,,,,,,,,,,,,,,,,,,a,0,"[""0.134"",""0.375"",""0.043"",""0.689""]","[1,1,0,1]",0,8,8,8,1,1,1,,,0,FALSE,0.6502,,,,,,,,,,,,,,,,,,,,,,,,,,,,,,
,5d33c9fbcb8e950001c30a9b,001,2022-04-29_04h11.55.278,classification_task,2021.2.3,Win32,59.99880002,5d33c9fbcb8e950001c30a9b,626b377229c10585ec392f89,626b3b1b36fdfd036b9a8a93,,,,,,,,,,,,,,,,,,,,,,,l,1,"[""0.172"",""0.342"",""0.618"",""0.736""]","[0,1,1,1]",0,9,9,9,1,1,0,,,0,FALSE,0.2507,,,,,,,,,,,,,,,,,,,,,,,,,,,,,,
,5d33c9fbcb8e950001c30a9b,001,2022-04-29_04h11.55.278,classification_task,2021.2.3,Win32,59.99880002,5d33c9fbcb8e950001c30a9b,626b377229c10585ec392f89,626b3b1b36fdfd036b9a8a93,,,,,,,,,,,,,,,,,,,,,,,l,1,"[""0.080"",""0.342"",""0.043"",""0.736""]","[1,1,0,1]",0,10,10,10,1,1,0,,,0,FALSE,2.9167,,,,,,,,,,,,,,,,,,,,,,,,,,,,,,
,5d33c9fbcb8e950001c30a9b,001,2022-04-29_04h11.55.278,classification_task,2021.2.3,Win32,59.99880002,5d33c9fbcb8e950001c30a9b,626b377229c10585ec392f89,626b3b1b36fdfd036b9a8a93,,,,,,,,,,,,,,,,,,,,,,,l,1,"[""0.134"",""0.773"",""0.583"",""0.689""]","[1,0,1,1]",0,11,11,11,1,1,1,,,0,FALSE,1.067,,,,,,,,,,,,,,,,,,,,,,,,,,,,,,
,5d33c9fbcb8e950001c30a9b,001,2022-04-29_04h11.55.278,classification_task,2021.2.3,Win32,59.99880002,5d33c9fbcb8e950001c30a9b,626b377229c10585ec392f89,626b3b1b36fdfd036b9a8a93,,,,,,,,,,,,,,,,,,,,,,,a,0,"[""0.080"",""0.781"",""0.618"",""0.736""]","[1,0,1,1]",0,12,12,12,1,1,0,,,0,FALSE,0.3498,,,,,,,,,,,,,,,,,,,,,,,,,,,,,,
,5d33c9fbcb8e950001c30a9b,001,2022-04-29_04h11.55.278,classification_task,2021.2.3,Win32,59.99880002,5d33c9fbcb8e950001c30a9b,626b377229c10585ec392f89,626b3b1b36fdfd036b9a8a93,,,,,,,,,,,,,,,,,,,,,,,a,1,"[""0.290"",""0.492"",""0.836"",""0.043""]","[1,1,1,0]",0,13,13,13,1,0,1,,,0,FALSE,0.4834,,,,,,,,,,,,,,,,,,,,,,,,,,,,,,
,5d33c9fbcb8e950001c30a9b,001,2022-04-29_04h11.55.278,classification_task,2021.2.3,Win32,59.99880002,5d33c9fbcb8e950001c30a9b,626b377229c10585ec392f89,626b3b1b36fdfd036b9a8a93,,,,,,,,,,,,,,,,,,,,,,,l,0,"[""0.290"",""0.455"",""0.836"",""0.873""]","[1,0,1,1]",0,14,14,14,1,0,1,,,0,FALSE,1.8668,,,,,,,,,,,,,,,,,,,,,,,,,,,,,,
,5d33c9fbcb8e950001c30a9b,001,2022-04-29_04h11.55.278,classification_task,2021.2.3,Win32,59.99880002,5d33c9fbcb8e950001c30a9b,626b377229c10585ec392f89,626b3b1b36fdfd036b9a8a93,,,,,,,,,,,,,,,,,,,,,,,a,0,"[""0.080"",""0.342"",""0.618"",""0.429""]","[1,1,1,0]",0,15,15,15,1,1,0,,,0,FALSE,5.8503,,,,,,,,,,,,,,,,,,,,,,,,,,,,,,
,5d33c9fbcb8e950001c30a9b,001,2022-04-29_04h11.55.278,classification_task,2021.2.3,Win32,59.99880002,5d33c9fbcb8e950001c30a9b,626b377229c10585ec392f89,626b3b1b36fdfd036b9a8a93,,,,,,,,,,,,,,,,,,,,,,,a,0,"[""0.134"",""0.375"",""0.429"",""0.689""]","[1,1,0,1]",0,16,16,16,1,1,1,,,0,FALSE,2.1999,,,,,,,,,,,,,,,,,,,,,,,,,,,,,,
,5d33c9fbcb8e950001c30a9b,001,2022-04-29_04h11.55.278,classification_task,2021.2.3,Win32,59.99880002,5d33c9fbcb8e950001c30a9b,626b377229c10585ec392f89,626b3b1b36fdfd036b9a8a93,,,,,,,,,,,,,,,,,,,,,,,l,0,"[""0.220"",""0.535"",""0.044"",""0.955""]","[1,1,0,1]",0,17,17,17,1,0,0,,,0,FALSE,1.7003,,,,,,,,,,,,,,,,,,,,,,,,,,,,,,
,5d33c9fbcb8e950001c30a9b,001,2022-04-29_04h11.55.278,classification_task,2021.2.3,Win32,59.99880002,5d33c9fbcb8e950001c30a9b,626b377229c10585ec392f89,626b3b1b36fdfd036b9a8a93,,,,,,,,,,,,,,,,,,,,,,,l,1,"[""0.080"",""0.342"",""0.652"",""0.736""]","[1,1,0,1]",0,18,18,18,1,1,0,,,0,FALSE,0.9832,,,,,,,,,,,,,,,,,,,,,,,,,,,,,,
,5d33c9fbcb8e950001c30a9b,001,2022-04-29_04h11.55.278,classification_task,2021.2.3,Win32,59.99880002,5d33c9fbcb8e950001c30a9b,626b377229c10585ec392f89,626b3b1b36fdfd036b9a8a93,,,,,,,,,,,,,,,,,,,,,,,a,1,"[""0.220"",""0.535"",""0.913"",""0.773""]","[1,1,1,0]",0,19,19,19,1,0,0,,,0,FALSE,1.2836,,,,,,,,,,,,,,,,,,,,,,,,,,,,,,
,5d33c9fbcb8e950001c30a9b,001,2022-04-29_04h11.55.278,classification_task,2021.2.3,Win32,59.99880002,5d33c9fbcb8e950001c30a9b,626b377229c10585ec392f89,626b3b1b36fdfd036b9a8a93,,,,,,,,,,,,,,,,,,,,,,,l,1,"[""0.134"",""0.375"",""0.583"",""0.171""]","[1,1,1,0]",0,20,20,20,1,1,1,,,0,FALSE,2.6154,,,,,,,,,,,,,,,,,,,,,,,,,,,,,,
,5d33c9fbcb8e950001c30a9b,001,2022-04-29_04h11.55.278,classification_task,2021.2.3,Win32,59.99880002,5d33c9fbcb8e950001c30a9b,626b377229c10585ec392f89,626b3b1b36fdfd036b9a8a93,,,,,,,,,,,,,,,,,,,,,,,l,0,"[""0.290"",""0.492"",""0.836"",""0.171""]","[1,1,1,0]",0,21,21,21,1,0,1,,,0,FALSE,2.0002,,,,,,,,,,,,,,,,,,,,,,,,,,,,,,
,5d33c9fbcb8e950001c30a9b,001,2022-04-29_04h11.55.278,classification_task,2021.2.3,Win32,59.99880002,5d33c9fbcb8e950001c30a9b,626b377229c10585ec392f89,626b3b1b36fdfd036b9a8a93,,,,,,,,,,,,,,,,,,,,,,,l,1,"[""0.134"",""0.171"",""0.583"",""0.689""]","[1,0,1,1]",0,22,22,22,1,1,1,,,0,FALSE,1.0502,,,,,,,,,,,,,,,,,,,,,,,,,,,,,,
,5d33c9fbcb8e950001c30a9b,001,2022-04-29_04h11.55.278,classification_task,2021.2.3,Win32,59.99880002,5d33c9fbcb8e950001c30a9b,626b377229c10585ec392f89,626b3b1b36fdfd036b9a8a93,,,,,,,,,,,,,,,,,,,,,,,l,1,"[""0.080"",""0.342"",""0.618"",""0.455""]","[1,1,1,0]",0,23,23,23,1,1,0,,,0,FALSE,1.2333,,,,,,,,,,,,,,,,,,,,,,,,,,,,,,
,5d33c9fbcb8e950001c30a9b,001,2022-04-29_04h11.55.278,classification_task,2021.2.3,Win32,59.99880002,5d33c9fbcb8e950001c30a9b,626b377229c10585ec392f89,626b3b1b36fdfd036b9a8a93,,,,,,,,,,,,,,,,,,,,,,,l,1,"[""0.080"",""0.428"",""0.618"",""0.736""]","[1,0,1,1]",0,24,24,24,1,1,0,,,0,FALSE,0.8663,,,,,,,,,,,,,,,,,,,,,,,,,,,,,,
,5d33c9fbcb8e950001c30a9b,001,2022-04-29_04h11.55.278,classification_task,2021.2.3,Win32,59.99880002,5d33c9fbcb8e950001c30a9b,626b377229c10585ec392f89,626b3b1b36fdfd036b9a8a93,,,,,,,,,,,,,,,,,,,,,,,a,1,"[""0.290"",""0.429"",""0.836"",""0.873""]","[1,0,1,1]",0,25,25,25,1,0,1,,,0,FALSE,1.4667,,,,,,,,,,,,,,,,,,,,,,,,,,,,,,
,5d33c9fbcb8e950001c30a9b,001,2022-04-29_04h11.55.278,classification_task,2021.2.3,Win32,59.99880002,5d33c9fbcb8e950001c30a9b,626b377229c10585ec392f89,626b3b1b36fdfd036b9a8a93,,,,,,,,,,,,,,,,,,,,,,,a,1,"[""0.429"",""0.535"",""0.913"",""0.955""]","[0,1,1,1]",0,26,26,26,1,0,0,,,0,FALSE,1.9664,,,,,,,,,,,,,,,,,,,,,,,,,,,,,,
,5d33c9fbcb8e950001c30a9b,001,2022-04-29_04h11.55.278,classification_task,2021.2.3,Win32,59.99880002,5d33c9fbcb8e950001c30a9b,626b377229c10585ec392f89,626b3b1b36fdfd036b9a8a93,,,,,,,,,,,,,,,,,,,,,,,a,1,"[""0.220"",""0.180"",""0.913"",""0.955""]","[1,0,1,1]",0,27,27,27,1,0,0,,,0,FALSE,1.3166,,,,,,,,,,,,,,,,,,,,,,,,,,,,,,
,5d33c9fbcb8e950001c30a9b,001,2022-04-29_04h11.55.278,classification_task,2021.2.3,Win32,59.99880002,5d33c9fbcb8e950001c30a9b,626b377229c10585ec392f89,626b3b1b36fdfd036b9a8a93,,,,,,,,,,,,,,,,,,,,,,,l,1,"[""0.784"",""0.375"",""0.583"",""0.689""]","[0,1,1,1]",0,28,28,28,1,1,1,,,0,FALSE,1.599,,,,,,,,,,,,,,,,,,,,,,,,,,,,,,
,5d33c9fbcb8e950001c30a9b,001,2022-04-29_04h11.55.278,classification_task,2021.2.3,Win32,59.99880002,5d33c9fbcb8e950001c30a9b,626b377229c10585ec392f89,626b3b1b36fdfd036b9a8a93,,,,,,,,,,,,,,,,,,,,,,,l,0,"[""0.290"",""0.492"",""0.652"",""0.873""]","[1,1,0,1]",0,29,29,29,1,0,1,,,0,FALSE,1.4168,,,,,,,,,,,,,,,,,,,,,,,,,,,,,,
,5d33c9fbcb8e950001c30a9b,001,2022-04-29_04h11.55.278,classification_task,2021.2.3,Win32,59.99880002,5d33c9fbcb8e950001c30a9b,626b377229c10585ec392f89,626b3b1b36fdfd036b9a8a93,,,,,,,,,,,,,,,,,,,,,,,l,1,"[""0.784"",""0.342"",""0.618"",""0.736""]","[0,1,1,1]",0,30,30,30,1,1,0,,,0,FALSE,1.3665,,,,,,,,,,,,,,,,,,,,,,,,,,,,,,
,5d33c9fbcb8e950001c30a9b,001,2022-04-29_04h11.55.278,classification_task,2021.2.3,Win32,59.99880002,5d33c9fbcb8e950001c30a9b,626b377229c10585ec392f89,626b3b1b36fdfd036b9a8a93,,,,,,,,,,,,,,,,,,,,,,,a,1,"[""0.421"",""0.492"",""0.836"",""0.873""]","[0,1,1,1]",0,31,31,31,1,0,1,,,0,FALSE,1.4333,,,,,,,,,,,,,,,,,,,,,,,,,,,,,,
,5d33c9fbcb8e950001c30a9b,001,2022-04-29_04h11.55.278,classification_task,2021.2.3,Win32,59.99880002,5d33c9fbcb8e950001c30a9b,626b377229c10585ec392f89,626b3b1b36fdfd036b9a8a93,,,,,,,,,,,,,,,,,,,,,,,l,1,"[""0.180"",""0.342"",""0.618"",""0.736""]","[0,1,1,1]",0,32,32,32,1,1,0,,,0,FALSE,1.6152,,,,,,,,,,,,,,,,,,,,,,,,,,,,,,
,5d33c9fbcb8e950001c30a9b,001,2022-04-29_04h11.55.278,classification_task,2021.2.3,Win32,59.99880002,5d33c9fbcb8e950001c30a9b,626b377229c10585ec392f89,626b3b1b36fdfd036b9a8a93,,,,,,,,,,,,,,,,,,,,,,,l,1,"[""0.080"",""0.342"",""0.801"",""0.736""]","[1,1,0,1]",0,33,33,33,1,1,0,,,0,FALSE,0.9833,,,,,,,,,,,,,,,,,,,,,,,,,,,,,,
,5d33c9fbcb8e950001c30a9b,001,2022-04-29_04h11.55.278,classification_task,2021.2.3,Win32,59.99880002,5d33c9fbcb8e950001c30a9b,626b377229c10585ec392f89,626b3b1b36fdfd036b9a8a93,,,,,,,,,,,,,,,,,,,,,,,l,0,"[""0.220"",""0.535"",""0.913"",""0.171""]","[1,1,1,0]",0,34,34,34,1,0,0,,,0,FALSE,1.3498,,,,,,,,,,,,,,,,,,,,,,,,,,,,,,
,5d33c9fbcb8e950001c30a9b,001,2022-04-29_04h11.55.278,classification_task,2021.2.3,Win32,59.99880002,5d33c9fbcb8e950001c30a9b,626b377229c10585ec392f89,626b3b1b36fdfd036b9a8a93,,,,,,,,,,,,,,,,,,,,,,,a,1,"[""0.043"",""0.535"",""0.913"",""0.955""]","[0,1,1,1]",0,35,35,35,1,0,0,,,0,FALSE,1.3499,,,,,,,,,,,,,,,,,,,,,,,,,,,,,,
,5d33c9fbcb8e950001c30a9b,001,2022-04-29_04h11.55.278,classification_task,2021.2.3,Win32,59.99880002,5d33c9fbcb8e950001c30a9b,626b377229c10585ec392f89,626b3b1b36fdfd036b9a8a93,,,,,,,,,,,,,,,,,,,,,,,l,1,"[""0.080"",""0.342"",""0.618"",""0.172""]","[1,1,1,0]",0,36,36,36,1,1,0,,,0,FALSE,0.8496,,,,,,,,,,,,,,,,,,,,,,,,,,,,,,
,5d33c9fbcb8e950001c30a9b,001,2022-04-29_04h11.55.278,classification_task,2021.2.3,Win32,59.99880002,5d33c9fbcb8e950001c30a9b,626b377229c10585ec392f89,626b3b1b36fdfd036b9a8a93,,,,,,,,,,,,,,,,,,,,,,,l,1,"[""0.171"",""0.375"",""0.583"",""0.689""]","[0,1,1,1]",0,37,37,37,1,1,1,,,0,FALSE,1.4166,,,,,,,,,,,,,,,,,,,,,,,,,,,,,,
,5d33c9fbcb8e950001c30a9b,001,2022-04-29_04h11.55.278,classification_task,2021.2.3,Win32,59.99880002,5d33c9fbcb8e950001c30a9b,626b377229c10585ec392f89,626b3b1b36fdfd036b9a8a93,,,,,,,,,,,,,,,,,,,,,,,a,1,"[""0.043"",""0.492"",""0.836"",""0.873""]","[0,1,1,1]",0,38,38,38,1,0,1,,,0,FALSE,1.0503,,,,,,,,,,,,,,,,,,,,,,,,,,,,,,
,5d33c9fbcb8e950001c30a9b,001,2022-04-29_04h11.55.278,classification_task,2021.2.3,Win32,59.99880002,5d33c9fbcb8e950001c30a9b,626b377229c10585ec392f89,626b3b1b36fdfd036b9a8a93,,,,,,,,,,,,,,,,,,,,,,,a,1,"[""0.290"",""0.044"",""0.836"",""0.873""]","[1,0,1,1]",0,39,39,39,1,0,1,,,0,FALSE,0.7668,,,,,,,,,,,,,,,,,,,,,,,,,,,,,,
,5d33c9fbcb8e950001c30a9b,001,2022-04-29_04h11.55.278,classification_task,2021.2.3,Win32,59.99880002,5d33c9fbcb8e950001c30a9b,626b377229c10585ec392f89,626b3b1b36fdfd036b9a8a93,,,,,,,,,,,,,,,,,,,,,,,l,0,"[""0.220"",""0.773"",""0.913"",""0.955""]","[1,0,1,1]",0,40,40,40,1,0,0,,,0,FALSE,1.0654,,,,,,,,,,,,,,,,,,,,,,,,,,,,,,
,5d33c9fbcb8e950001c30a9b,001,2022-04-29_04h11.55.278,classification_task,2021.2.3,Win32,59.99880002,5d33c9fbcb8e950001c30a9b,626b377229c10585ec392f89,626b3b1b36fdfd036b9a8a93,,,,,,,,,,,,,,,,,,,,,,,l,1,"[""0.134"",""0.375"",""0.583"",""0.171""]","[1,1,1,0]",0,41,41,41,1,1,1,,,0,FALSE,1.1334,,,,,,,,,,,,,,,,,,,,,,,,,,,,,,
,5d33c9fbcb8e950001c30a9b,001,2022-04-29_04h11.55.278,classification_task,2021.2.3,Win32,59.99880002,5d33c9fbcb8e950001c30a9b,626b377229c10585ec392f89,626b3b1b36fdfd036b9a8a93,,,,,,,,,,,,,,,,,,,,,,,a,0,"[""0.134"",""0.784"",""0.583"",""0.689""]","[1,0,1,1]",0,42,42,42,1,1,1,,,0,FALSE,1.2834,,,,,,,,,,,,,,,,,,,,,,,,,,,,,,
,5d33c9fbcb8e950001c30a9b,001,2022-04-29_04h11.55.278,classification_task,2021.2.3,Win32,59.99880002,5d33c9fbcb8e950001c30a9b,626b377229c10585ec392f89,626b3b1b36fdfd036b9a8a93,,,,,,,,,,,,,,,,,,,,,,,a,1,"[""0.220"",""0.535"",""0.652"",""0.955""]","[1,1,0,1]",0,43,43,43,1,0,0,,,0,FALSE,1.5997,,,,,,,,,,,,,,,,,,,,,,,,,,,,,,
,5d33c9fbcb8e950001c30a9b,001,2022-04-29_04h11.55.278,classification_task,2021.2.3,Win32,59.99880002,5d33c9fbcb8e950001c30a9b,626b377229c10585ec392f89,626b3b1b36fdfd036b9a8a93,,,,,,,,,,,,,,,,,,,,,,,l,0,"[""0.290"",""0.492"",""0.773"",""0.873""]","[1,1,0,1]",0,44,44,44,1,0,1,,,0,FALSE,0.9823,,,,,,,,,,,,,,,,,,,,,,,,,,,,,,
,5d33c9fbcb8e950001c30a9b,001,2022-04-29_04h11.55.278,classification_task,2021.2.3,Win32,59.99880002,5d33c9fbcb8e950001c30a9b,626b377229c10585ec392f89,626b3b1b36fdfd036b9a8a93,,,,,,,,,,,,,,,,,,,,,,,l,0,"[""0.290"",""0.492"",""0.836"",""0.180""]","[1,1,1,0]",0,45,45,45,1,0,1,,,0,FALSE,1.1347,,,,,,,,,,,,,,,,,,,,,,,,,,,,,,
,5d33c9fbcb8e950001c30a9b,001,2022-04-29_04h11.55.278,classification_task,2021.2.3,Win32,59.99880002,5d33c9fbcb8e950001c30a9b,626b377229c10585ec392f89,626b3b1b36fdfd036b9a8a93,,,,,,,,,,,,,,,,,,,,,,,a,0,"[""0.134"",""0.375"",""0.652"",""0.689""]","[1,1,0,1]",0,46,46,46,1,1,1,,,0,FALSE,1.1998,,,,,,,,,,,,,,,,,,,,,,,,,,,,,,
,5d33c9fbcb8e950001c30a9b,001,2022-04-29_04h11.55.278,classification_task,2021.2.3,Win32,59.99880002,5d33c9fbcb8e950001c30a9b,626b377229c10585ec392f89,626b3b1b36fdfd036b9a8a93,,,,,,,,,,,,,,,,,,,,,,,l,1,"[""0.080"",""0.428"",""0.618"",""0.736""]","[1,0,1,1]",0,47,47,47,1,1,0,,,0,FALSE,1.884,,,,,,,,,,,,,,,,,,,,,,,,,,,,,,
,5d33c9fbcb8e950001c30a9b,001,2022-04-29_04h11.55.278,classification_task,2021.2.3,Win32,59.99880002,5d33c9fbcb8e950001c30a9b,626b377229c10585ec392f89,626b3b1b36fdfd036b9a8a93,,,,,,,,,,,,,,,,,,,,,,,l,1,"[""0.134"",""0.375"",""0.429"",""0.689""]","[1,1,0,1]",0,48,48,48,1,1,1,,,0,FALSE,1.1499,,,,,,,,,,,,,,,,,,,,,,,,,,,,,,
,5d33c9fbcb8e950001c30a9b,001,2022-04-29_04h11.55.278,classification_task,2021.2.3,Win32,59.99880002,5d33c9fbcb8e950001c30a9b,626b377229c10585ec392f89,626b3b1b36fdfd036b9a8a93,,,,,,,,,,,,,,,,,,,,,,,a,1,"[""0.290"",""0.421"",""0.836"",""0.873""]","[1,0,1,1]",0,49,49,49,1,0,1,,,0,FALSE,1.8001,,,,,,,,,,,,,,,,,,,,,,,,,,,,,,
,5d33c9fbcb8e950001c30a9b,001,2022-04-29_04h11.55.278,classification_task,2021.2.3,Win32,59.99880002,5d33c9fbcb8e950001c30a9b,626b377229c10585ec392f89,626b3b1b36fdfd036b9a8a93,,,,,,,,,,,,,,,,,,,,,,,l,1,"[""0.134"",""0.375"",""0.583"",""0.654""]","[1,1,1,0]",0,50,50,50,1,1,1,,,0,FALSE,0.8157,,,,,,,,,,,,,,,,,,,,,,,,,,,,,,
,5d33c9fbcb8e950001c30a9b,001,2022-04-29_04h11.55.278,classification_task,2021.2.3,Win32,59.99880002,5d33c9fbcb8e950001c30a9b,626b377229c10585ec392f89,626b3b1b36fdfd036b9a8a93,,,,,,,,,,,,,,,,,,,,,,,l,1,"[""0.080"",""0.342"",""0.618"",""0.784""]","[1,1,1,0]",0,51,51,51,1,1,0,,,0,FALSE,1.2154,,,,,,,,,,,,,,,,,,,,,,,,,,,,,,
,5d33c9fbcb8e950001c30a9b,001,2022-04-29_04h11.55.278,classification_task,2021.2.3,Win32,59.99880002,5d33c9fbcb8e950001c30a9b,626b377229c10585ec392f89,626b3b1b36fdfd036b9a8a93,,,,,,,,,,,,,,,,,,,,,,,l,1,"[""0.080"",""0.342"",""0.421"",""0.736""]","[1,1,0,1]",0,52,52,52,1,1,0,,,0,FALSE,0.5833,,,,,,,,,,,,,,,,,,,,,,,,,,,,,,
,5d33c9fbcb8e950001c30a9b,001,2022-04-29_04h11.55.278,classification_task,2021.2.3,Win32,59.99880002,5d33c9fbcb8e950001c30a9b,626b377229c10585ec392f89,626b3b1b36fdfd036b9a8a93,,,,,,,,,,,,,,,,,,,,,,,l,0,"[""0.290"",""0.492"",""0.836"",""0.652""]","[1,1,1,0]",0,53,53,53,1,0,1,,,0,FALSE,2.2503,,,,,,,,,,,,,,,,,,,,,,,,,,,,,,
,5d33c9fbcb8e950001c30a9b,001,2022-04-29_04h11.55.278,classification_task,2021.2.3,Win32,59.99880002,5d33c9fbcb8e950001c30a9b,626b377229c10585ec392f89,626b3b1b36fdfd036b9a8a93,,,,,,,,,,,,,,,,,,,,,,,l,1,"[""0.043"",""0.375"",""0.583"",""0.689""]","[0,1,1,1]",0,54,54,54,1,1,1,,,0,FALSE,1.3167,,,,,,,,,,,,,,,,,,,,,,,,,,,,,,
,5d33c9fbcb8e950001c30a9b,001,2022-04-29_04h11.55.278,classification_task,2021.2.3,Win32,59.99880002,5d33c9fbcb8e950001c30a9b,626b377229c10585ec392f89,626b3b1b36fdfd036b9a8a93,,,,,,,,,,,,,,,,,,,,,,,l,0,"[""0.220"",""0.535"",""0.428"",""0.955""]","[1,1,0,1]",0,55,55,55,1,0,0,,,0,FALSE,1.2664,,,,,,,,,,,,,,,,,,,,,,,,,,,,,,
,5d33c9fbcb8e950001c30a9b,001,2022-04-29_04h11.55.278,classification_task,2021.2.3,Win32,59.99880002,5d33c9fbcb8e950001c30a9b,626b377229c10585ec392f89,626b3b1b36fdfd036b9a8a93,,,,,,,,,,,,,,,,,,,,,,,l,1,"[""0.134"",""0.180"",""0.583"",""0.689""]","[1,0,1,1]",0,56,56,56,1,1,1,,,0,FALSE,1.0168,,,,,,,,,,,,,,,,,,,,,,,,,,,,,,
,5d33c9fbcb8e950001c30a9b,001,2022-04-29_04h11.55.278,classification_task,2021.2.3,Win32,59.99880002,5d33c9fbcb8e950001c30a9b,626b377229c10585ec392f89,626b3b1b36fdfd036b9a8a93,,,,,,,,,,,,,,,,,,,,,,,a,1,"[""0.171"",""0.492"",""0.836"",""0.873""]","[0,1,1,1]",0,57,57,57,1,0,1,,,0,FALSE,2.5337,,,,,,,,,,,,,,,,,,,,,,,,,,,,,,
,5d33c9fbcb8e950001c30a9b,001,2022-04-29_04h11.55.278,classification_task,2021.2.3,Win32,59.99880002,5d33c9fbcb8e950001c30a9b,626b377229c10585ec392f89,626b3b1b36fdfd036b9a8a93,,,,,,,,,,,,,,,,,,,,,,,a,1,"[""0.429"",""0.535"",""0.913"",""0.955""]","[0,1,1,1]",0,58,58,58,1,0,0,,,0,FALSE,1.2837,,,,,,,,,,,,,,,,,,,,,,,,,,,,,,
,5d33c9fbcb8e950001c30a9b,001,2022-04-29_04h11.55.278,classification_task,2021.2.3,Win32,59.99880002,5d33c9fbcb8e950001c30a9b,626b377229c10585ec392f89,626b3b1b36fdfd036b9a8a93,,,,,,,,,,,,,,,,,,,,,,,a,0,"[""0.455"",""0.342"",""0.618"",""0.736""]","[0,1,1,1]",0,59,59,59,1,1,0,,,0,FALSE,1.6665,,,,,,,,,,,,,,,,,,,,,,,,,,,,,,
,5d33c9fbcb8e950001c30a9b,001,2022-04-29_04h11.55.278,classification_task,2021.2.3,Win32,59.99880002,5d33c9fbcb8e950001c30a9b,626b377229c10585ec392f89,626b3b1b36fdfd036b9a8a93,,,,,,,,,,,,,,,,,,,,,,,l,0,"[""0.290"",""0.492"",""0.773"",""0.873""]","[1,1,0,1]",0,60,60,60,1,0,1,,,0,FALSE,0.8834,,,,,,,,,,,,,,,,,,,,,,,,,,,,,,
,5d33c9fbcb8e950001c30a9b,001,2022-04-29_04h11.55.278,classification_task,2021.2.3,Win32,59.99880002,5d33c9fbcb8e950001c30a9b,626b377229c10585ec392f89,626b3b1b36fdfd036b9a8a93,,,,,,,,,,,,,,,,,,,,,,,l,1,"[""0.080"",""0.171"",""0.618"",""0.736""]","[1,0,1,1]",0,61,61,61,1,1,0,,,0,FALSE,0.9165,,,,,,,,,,,,,,,,,,,,,,,,,,,,,,
,5d33c9fbcb8e950001c30a9b,001,2022-04-29_04h11.55.278,classification_task,2021.2.3,Win32,59.99880002,5d33c9fbcb8e950001c30a9b,626b377229c10585ec392f89,626b3b1b36fdfd036b9a8a93,,,,,,,,,,,,,,,,,,,,,,,a,1,"[""0.220"",""0.654"",""0.913"",""0.955""]","[1,0,1,1]",0,62,62,62,1,0,0,,,0,FALSE,1.0823,,,,,,,,,,,,,,,,,,,,,,,,,,,,,,
,5d33c9fbcb8e950001c30a9b,001,2022-04-29_04h11.55.278,classification_task,2021.2.3,Win32,59.99880002,5d33c9fbcb8e950001c30a9b,626b377229c10585ec392f89,626b3b1b36fdfd036b9a8a93,,,,,,,,,,,,,,,,,,,,,,,a,1,"[""0.220"",""0.535"",""0.913"",""0.455""]","[1,1,1,0]",0,63,63,63,1,0,0,,,0,FALSE,0.5497,,,,,,,,,,,,,,,,,,,,,,,,,,,,,,
,5d33c9fbcb8e950001c30a9b,001,2022-04-29_04h11.55.278,classification_task,2021.2.3,Win32,59.99880002,5d33c9fbcb8e950001c30a9b,626b377229c10585ec392f89,626b3b1b36fdfd036b9a8a93,,,,,,,,,,,,,,,,,,,,,,,,,,,,,,,,,,,,,,,0, ,,0,0,199.7933,0,1,1,1,1,2,2,,,,,,,,,,,,,,,,,
,5d33c9fbcb8e950001c30a9b,001,2022-04-29_04h11.55.278,classification_task,2021.2.3,Win32,59.99880002,5d33c9fbcb8e950001c30a9b,626b377229c10585ec392f89,626b3b1b36fdfd036b9a8a93,,,,,,,,,,,,,,,,,,,,,,,,,,,,,,,,,,,,,,,1,  ,,0,9.090730943,206.8104,0,1,1,1,1,2,2,,,,,,,,,,,,,,,,,
,5d33c9fbcb8e950001c30a9b,001,2022-04-29_04h11.55.278,classification_task,2021.2.3,Win32,59.99880002,5d33c9fbcb8e950001c30a9b,626b377229c10585ec392f89,626b3b1b36fdfd036b9a8a93,,,,,,,,,,,,,,,,,,,,,,,,,,,,,,,,,,,,,,,2,  ,,0,0.982755242,208.527,0,1,1,1,1,2,2,,,,,,,,,,,,,,,,,
,5d33c9fbcb8e950001c30a9b,001,2022-04-29_04h11.55.278,classification_task,2021.2.3,Win32,59.99880002,5d33c9fbcb8e950001c30a9b,626b377229c10585ec392f89,626b3b1b36fdfd036b9a8a93,,,,,,,,,,,,,,,,,,,,,,,,,,,,,,,,,,,,,,,,,,,,,0,1,1,1,1,,2,,,,,,,,,,,,,,,,,
,5d33c9fbcb8e950001c30a9b,001,2022-04-29_04h11.55.278,classification_task,2021.2.3,Win32,59.99880002,5d33c9fbcb8e950001c30a9b,626b377229c10585ec392f89,626b3b1b36fdfd036b9a8a93,,,,,,,,,,,,,,,,,,,,,space,9.7846,l,1,"[""0.134"",""0.375"",""0.583"",""0.773""]","[1,1,1,0]",0,0,0,0,1,1,1,,,0,FALSE,1.5503,,,,,,,,,,,,,,,,,,,,,,,,,,,,,,
,5d33c9fbcb8e950001c30a9b,001,2022-04-29_04h11.55.278,classification_task,2021.2.3,Win32,59.99880002,5d33c9fbcb8e950001c30a9b,626b377229c10585ec392f89,626b3b1b36fdfd036b9a8a93,,,,,,,,,,,,,,,,,,,,,,,a,1,"[""0.784"",""0.492"",""0.836"",""0.873""]","[0,1,1,1]",0,1,1,1,1,0,1,,,0,FALSE,2.1169,,,,,,,,,,,,,,,,,,,,,,,,,,,,,,
,5d33c9fbcb8e950001c30a9b,001,2022-04-29_04h11.55.278,classification_task,2021.2.3,Win32,59.99880002,5d33c9fbcb8e950001c30a9b,626b377229c10585ec392f89,626b3b1b36fdfd036b9a8a93,,,,,,,,,,,,,,,,,,,,,,,a,1,"[""0.220"",""0.172"",""0.913"",""0.955""]","[1,0,1,1]",0,2,2,2,1,0,0,,,0,FALSE,2.8999,,,,,,,,,,,,,,,,,,,,,,,,,,,,,,
,5d33c9fbcb8e950001c30a9b,001,2022-04-29_04h11.55.278,classification_task,2021.2.3,Win32,59.99880002,5d33c9fbcb8e950001c30a9b,626b377229c10585ec392f89,626b3b1b36fdfd036b9a8a93,,,,,,,,,,,,,,,,,,,,,,,l,1,"[""0.134"",""0.455"",""0.583"",""0.689""]","[1,0,1,1]",0,3,3,3,1,1,1,,,0,FALSE,1.8005,,,,,,,,,,,,,,,,,,,,,,,,,,,,,,
,5d33c9fbcb8e950001c30a9b,001,2022-04-29_04h11.55.278,classification_task,2021.2.3,Win32,59.99880002,5d33c9fbcb8e950001c30a9b,626b377229c10585ec392f89,626b3b1b36fdfd036b9a8a93,,,,,,,,,,,,,,,,,,,,,,,l,1,"[""0.080"",""0.171"",""0.618"",""0.736""]","[1,0,1,1]",0,4,4,4,1,1,0,,,0,FALSE,3.2848,,,,,,,,,,,,,,,,,,,,,,,,,,,,,,
,5d33c9fbcb8e950001c30a9b,001,2022-04-29_04h11.55.278,classification_task,2021.2.3,Win32,59.99880002,5d33c9fbcb8e950001c30a9b,626b377229c10585ec392f89,626b3b1b36fdfd036b9a8a93,,,,,,,,,,,,,,,,,,,,,,,a,1,"[""0.290"",""0.492"",""0.652"",""0.873""]","[1,1,0,1]",0,5,5,5,1,0,1,,,0,FALSE,1.4334,,,,,,,,,,,,,,,,,,,,,,,,,,,,,,
,5d33c9fbcb8e950001c30a9b,001,2022-04-29_04h11.55.278,classification_task,2021.2.3,Win32,59.99880002,5d33c9fbcb8e950001c30a9b,626b377229c10585ec392f89,626b3b1b36fdfd036b9a8a93,,,,,,,,,,,,,,,,,,,,,,,l,1,"[""0.134"",""0.375"",""0.654"",""0.689""]","[1,1,0,1]",0,6,6,6,1,1,1,,,0,FALSE,2.1677,,,,,,,,,,,,,,,,,,,,,,,,,,,,,,
,5d33c9fbcb8e950001c30a9b,001,2022-04-29_04h11.55.278,classification_task,2021.2.3,Win32,59.99880002,5d33c9fbcb8e950001c30a9b,626b377229c10585ec392f89,626b3b1b36fdfd036b9a8a93,,,,,,,,,,,,,,,,,,,,,,,a,1,"[""0.781"",""0.535"",""0.913"",""0.955""]","[0,1,1,1]",0,7,7,7,1,0,0,,,0,FALSE,1.0164,,,,,,,,,,,,,,,,,,,,,,,,,,,,,,
,5d33c9fbcb8e950001c30a9b,001,2022-04-29_04h11.55.278,classification_task,2021.2.3,Win32,59.99880002,5d33c9fbcb8e950001c30a9b,626b377229c10585ec392f89,626b3b1b36fdfd036b9a8a93,,,,,,,,,,,,,,,,,,,,,,,l,0,"[""0.290"",""0.492"",""0.836"",""0.044""]","[1,1,1,0]",0,8,8,8,1,0,1,,,0,FALSE,1.1167,,,,,,,,,,,,,,,,,,,,,,,,,,,,,,
,5d33c9fbcb8e950001c30a9b,001,2022-04-29_04h11.55.278,classification_task,2021.2.3,Win32,59.99880002,5d33c9fbcb8e950001c30a9b,626b377229c10585ec392f89,626b3b1b36fdfd036b9a8a93,,,,,,,,,,,,,,,,,,,,,,,a,0,"[""0.654"",""0.375"",""0.583"",""0.689""]","[0,1,1,1]",0,9,9,9,1,1,1,,,0,FALSE,1.9002,,,,,,,,,,,,,,,,,,,,,,,,,,,,,,
,5d33c9fbcb8e950001c30a9b,001,2022-04-29_04h11.55.278,classification_task,2021.2.3,Win32,59.99880002,5d33c9fbcb8e950001c30a9b,626b377229c10585ec392f89,626b3b1b36fdfd036b9a8a93,,,,,,,,,,,,,,,,,,,,,,,a,0,"[""0.080"",""0.342"",""0.429"",""0.736""]","[1,1,0,1]",0,10,10,10,1,1,0,,,0,FALSE,0.6993,,,,,,,,,,,,,,,,,,,,,,,,,,,,,,
,5d33c9fbcb8e950001c30a9b,001,2022-04-29_04h11.55.278,classification_task,2021.2.3,Win32,59.99880002,5d33c9fbcb8e950001c30a9b,626b377229c10585ec392f89,626b3b1b36fdfd036b9a8a93,,,,,,,,,,,,,,,,,,,,,,,a,1,"[""0.220"",""0.535"",""0.913"",""0.801""]","[1,1,1,0]",0,11,11,11,1,0,0,,,0,FALSE,0.9664,,,,,,,,,,,,,,,,,,,,,,,,,,,,,,
,5d33c9fbcb8e950001c30a9b,001,2022-04-29_04h11.55.278,classification_task,2021.2.3,Win32,59.99880002,5d33c9fbcb8e950001c30a9b,626b377229c10585ec392f89,626b3b1b36fdfd036b9a8a93,,,,,,,,,,,,,,,,,,,,,,,a,1,"[""0.220"",""0.535"",""0.773"",""0.955""]","[1,1,0,1]",0,12,12,12,1,0,0,,,0,FALSE,0.6664,,,,,,,,,,,,,,,,,,,,,,,,,,,,,,
,5d33c9fbcb8e950001c30a9b,001,2022-04-29_04h11.55.278,classification_task,2021.2.3,Win32,59.99880002,5d33c9fbcb8e950001c30a9b,626b377229c10585ec392f89,626b3b1b36fdfd036b9a8a93,,,,,,,,,,,,,,,,,,,,,,,l,0,"[""0.290"",""0.180"",""0.836"",""0.873""]","[1,0,1,1]",0,13,13,13,1,0,1,,,0,FALSE,1.0839,,,,,,,,,,,,,,,,,,,,,,,,,,,,,,
,5d33c9fbcb8e950001c30a9b,001,2022-04-29_04h11.55.278,classification_task,2021.2.3,Win32,59.99880002,5d33c9fbcb8e950001c30a9b,626b377229c10585ec392f89,626b3b1b36fdfd036b9a8a93,,,,,,,,,,,,,,,,,,,,,,,l,1,"[""0.044"",""0.342"",""0.618"",""0.736""]","[0,1,1,1]",0,14,14,14,1,1,0,,,0,FALSE,1.2999,,,,,,,,,,,,,,,,,,,,,,,,,,,,,,
,5d33c9fbcb8e950001c30a9b,001,2022-04-29_04h11.55.278,classification_task,2021.2.3,Win32,59.99880002,5d33c9fbcb8e950001c30a9b,626b377229c10585ec392f89,626b3b1b36fdfd036b9a8a93,,,,,,,,,,,,,,,,,,,,,,,a,0,"[""0.080"",""0.342"",""0.618"",""0.043""]","[1,1,1,0]",0,15,15,15,1,1,0,,,0,FALSE,2.2154,,,,,,,,,,,,,,,,,,,,,,,,,,,,,,
,5d33c9fbcb8e950001c30a9b,001,2022-04-29_04h11.55.278,classification_task,2021.2.3,Win32,59.99880002,5d33c9fbcb8e950001c30a9b,626b377229c10585ec392f89,626b3b1b36fdfd036b9a8a93,,,,,,,,,,,,,,,,,,,,,,,l,1,"[""0.171"",""0.375"",""0.583"",""0.689""]","[0,1,1,1]",0,16,16,16,1,1,1,,,0,FALSE,1.2167,,,,,,,,,,,,,,,,,,,,,,,,,,,,,,
,5d33c9fbcb8e950001c30a9b,001,2022-04-29_04h11.55.278,classification_task,2021.2.3,Win32,59.99880002,5d33c9fbcb8e950001c30a9b,626b377229c10585ec392f89,626b3b1b36fdfd036b9a8a93,,,,,,,,,,,,,,,,,,,,,,,l,0,"[""0.290"",""0.492"",""0.421"",""0.873""]","[1,1,0,1]",0,17,17,17,1,0,1,,,0,FALSE,0.9503,,,,,,,,,,,,,,,,,,,,,,,,,,,,,,
,5d33c9fbcb8e950001c30a9b,001,2022-04-29_04h11.55.278,classification_task,2021.2.3,Win32,59.99880002,5d33c9fbcb8e950001c30a9b,626b377229c10585ec392f89,626b3b1b36fdfd036b9a8a93,,,,,,,,,,,,,,,,,,,,,,,a,1,"[""0.654"",""0.492"",""0.836"",""0.873""]","[0,1,1,1]",0,18,18,18,1,0,1,,,0,FALSE,1.2004,,,,,,,,,,,,,,,,,,,,,,,,,,,,,,
,5d33c9fbcb8e950001c30a9b,001,2022-04-29_04h11.55.278,classification_task,2021.2.3,Win32,59.99880002,5d33c9fbcb8e950001c30a9b,626b377229c10585ec392f89,626b3b1b36fdfd036b9a8a93,,,,,,,,,,,,,,,,,,,,,,,a,1,"[""0.290"",""0.455"",""0.836"",""0.873""]","[1,0,1,1]",0,19,19,19,1,0,1,,,0,FALSE,1.1667,,,,,,,,,,,,,,,,,,,,,,,,,,,,,,
,5d33c9fbcb8e950001c30a9b,001,2022-04-29_04h11.55.278,classification_task,2021.2.3,Win32,59.99880002,5d33c9fbcb8e950001c30a9b,626b377229c10585ec392f89,626b3b1b36fdfd036b9a8a93,,,,,,,,,,,,,,,,,,,,,,,l,1,"[""0.134"",""0.375"",""0.428"",""0.689""]","[1,1,0,1]",0,20,20,20,1,1,1,,,0,FALSE,1.151,,,,,,,,,,,,,,,,,,,,,,,,,,,,,,
,5d33c9fbcb8e950001c30a9b,001,2022-04-29_04h11.55.278,classification_task,2021.2.3,Win32,59.99880002,5d33c9fbcb8e950001c30a9b,626b377229c10585ec392f89,626b3b1b36fdfd036b9a8a93,,,,,,,,,,,,,,,,,,,,,,,a,1,"[""0.220"",""0.535"",""0.654"",""0.955""]","[1,1,0,1]",0,21,21,21,1,0,0,,,0,FALSE,5.3998,,,,,,,,,,,,,,,,,,,,,,,,,,,,,,
,5d33c9fbcb8e950001c30a9b,001,2022-04-29_04h11.55.278,classification_task,2021.2.3,Win32,59.99880002,5d33c9fbcb8e950001c30a9b,626b377229c10585ec392f89,626b3b1b36fdfd036b9a8a93,,,,,,,,,,,,,,,,,,,,,,,l,0,"[""0.290"",""0.492"",""0.836"",""0.172""]","[1,1,1,0]",0,22,22,22,1,0,1,,,0,FALSE,1.9496,,,,,,,,,,,,,,,,,,,,,,,,,,,,,,
,5d33c9fbcb8e950001c30a9b,001,2022-04-29_04h11.55.278,classification_task,2021.2.3,Win32,59.99880002,5d33c9fbcb8e950001c30a9b,626b377229c10585ec392f89,626b3b1b36fdfd036b9a8a93,,,,,,,,,,,,,,,,,,,,,,,l,1,"[""0.080"",""0.652"",""0.618"",""0.736""]","[1,0,1,1]",0,23,23,23,1,1,0,,,0,FALSE,1.2837,,,,,,,,,,,,,,,,,,,,,,,,,,,,,,
,5d33c9fbcb8e950001c30a9b,001,2022-04-29_04h11.55.278,classification_task,2021.2.3,Win32,59.99880002,5d33c9fbcb8e950001c30a9b,626b377229c10585ec392f89,626b3b1b36fdfd036b9a8a93,,,,,,,,,,,,,,,,,,,,,,,a,0,"[""0.784"",""0.342"",""0.618"",""0.736""]","[0,1,1,1]",0,24,24,24,1,1,0,,,0,FALSE,1.1162,,,,,,,,,,,,,,,,,,,,,,,,,,,,,,
,5d33c9fbcb8e950001c30a9b,001,2022-04-29_04h11.55.278,classification_task,2021.2.3,Win32,59.99880002,5d33c9fbcb8e950001c30a9b,626b377229c10585ec392f89,626b3b1b36fdfd036b9a8a93,,,,,,,,,,,,,,,,,,,,,,,l,0,"[""0.172"",""0.535"",""0.913"",""0.955""]","[0,1,1,1]",0,25,25,25,1,0,0,,,0,FALSE,1.0829,,,,,,,,,,,,,,,,,,,,,,,,,,,,,,
,5d33c9fbcb8e950001c30a9b,001,2022-04-29_04h11.55.278,classification_task,2021.2.3,Win32,59.99880002,5d33c9fbcb8e950001c30a9b,626b377229c10585ec392f89,626b3b1b36fdfd036b9a8a93,,,,,,,,,,,,,,,,,,,,,,,l,1,"[""0.134"",""0.044"",""0.583"",""0.689""]","[1,0,1,1]",0,26,26,26,1,1,1,,,0,FALSE,1.2008,,,,,,,,,,,,,,,,,,,,,,,,,,,,,,
,5d33c9fbcb8e950001c30a9b,001,2022-04-29_04h11.55.278,classification_task,2021.2.3,Win32,59.99880002,5d33c9fbcb8e950001c30a9b,626b377229c10585ec392f89,626b3b1b36fdfd036b9a8a93,,,,,,,,,,,,,,,,,,,,,,,l,1,"[""0.080"",""0.342"",""0.618"",""0.801""]","[1,1,1,0]",0,27,27,27,1,1,0,,,0,FALSE,2.5837,,,,,,,,,,,,,,,,,,,,,,,,,,,,,,
,5d33c9fbcb8e950001c30a9b,001,2022-04-29_04h11.55.278,classification_task,2021.2.3,Win32,59.99880002,5d33c9fbcb8e950001c30a9b,626b377229c10585ec392f89,626b3b1b36fdfd036b9a8a93,,,,,,,,,,,,,,,,,,,,,,,a,0,"[""0.134"",""0.375"",""0.583"",""0.172""]","[1,1,1,0]",0,28,28,28,1,1,1,,,0,FALSE,2.1168,,,,,,,,,,,,,,,,,,,,,,,,,,,,,,
,5d33c9fbcb8e950001c30a9b,001,2022-04-29_04h11.55.278,classification_task,2021.2.3,Win32,59.99880002,5d33c9fbcb8e950001c30a9b,626b377229c10585ec392f89,626b3b1b36fdfd036b9a8a93,,,,,,,,,,,,,,,,,,,,,,,l,1,"[""0.080"",""0.342"",""0.455"",""0.736""]","[1,1,0,1]",0,29,29,29,1,1,0,,,0,FALSE,0.8829,,,,,,,,,,,,,,,,,,,,,,,,,,,,,,
,5d33c9fbcb8e950001c30a9b,001,2022-04-29_04h11.55.278,classification_task,2021.2.3,Win32,59.99880002,5d33c9fbcb8e950001c30a9b,626b377229c10585ec392f89,626b3b1b36fdfd036b9a8a93,,,,,,,,,,,,,,,,,,,,,,,a,1,"[""0.220"",""0.180"",""0.913"",""0.955""]","[1,0,1,1]",0,30,30,30,1,0,0,,,0,FALSE,0.7329,,,,,,,,,,,,,,,,,,,,,,,,,,,,,,
,5d33c9fbcb8e950001c30a9b,001,2022-04-29_04h11.55.278,classification_task,2021.2.3,Win32,59.99880002,5d33c9fbcb8e950001c30a9b,626b377229c10585ec392f89,626b3b1b36fdfd036b9a8a93,,,,,,,,,,,,,,,,,,,,,,,a,1,"[""0.220"",""0.535"",""0.913"",""0.171""]","[1,1,1,0]",0,31,31,31,1,0,0,,,0,FALSE,0.6162,,,,,,,,,,,,,,,,,,,,,,,,,,,,,,
,5d33c9fbcb8e950001c30a9b,001,2022-04-29_04h11.55.278,classification_task,2021.2.3,Win32,59.99880002,5d33c9fbcb8e950001c30a9b,626b377229c10585ec392f89,626b3b1b36fdfd036b9a8a93,,,,,,,,,,,,,,,,,,,,,,,l,0,"[""0.220"",""0.535"",""0.044"",""0.955""]","[1,1,0,1]",0,32,32,32,1,0,0,,,0,FALSE,0.9664,,,,,,,,,,,,,,,,,,,,,,,,,,,,,,
,5d33c9fbcb8e950001c30a9b,001,2022-04-29_04h11.55.278,classification_task,2021.2.3,Win32,59.99880002,5d33c9fbcb8e950001c30a9b,626b377229c10585ec392f89,626b3b1b36fdfd036b9a8a93,,,,,,,,,,,,,,,,,,,,,,,a,1,"[""0.290"",""0.492"",""0.836"",""0.421""]","[1,1,1,0]",0,33,33,33,1,0,1,,,0,FALSE,2.8667,,,,,,,,,,,,,,,,,,,,,,,,,,,,,,
,5d33c9fbcb8e950001c30a9b,001,2022-04-29_04h11.55.278,classification_task,2021.2.3,Win32,59.99880002,5d33c9fbcb8e950001c30a9b,626b377229c10585ec392f89,626b3b1b36fdfd036b9a8a93,,,,,,,,,,,,,,,,,,,,,,,l,1,"[""0.134"",""0.375"",""0.583"",""0.043""]","[1,1,1,0]",0,34,34,34,1,1,1,,,0,FALSE,3.0322,,,,,,,,,,,,,,,,,,,,,,,,,,,,,,
,5d33c9fbcb8e950001c30a9b,001,2022-04-29_04h11.55.278,classification_task,2021.2.3,Win32,59.99880002,5d33c9fbcb8e950001c30a9b,626b377229c10585ec392f89,626b3b1b36fdfd036b9a8a93,,,,,,,,,,,,,,,,,,,,,,,l,1,"[""0.080"",""0.342"",""0.618"",""0.429""]","[1,1,1,0]",0,35,35,35,1,1,0,,,0,FALSE,0.9835,,,,,,,,,,,,,,,,,,,,,,,,,,,,,,
,5d33c9fbcb8e950001c30a9b,001,2022-04-29_04h11.55.278,classification_task,2021.2.3,Win32,59.99880002,5d33c9fbcb8e950001c30a9b,626b377229c10585ec392f89,626b3b1b36fdfd036b9a8a93,,,,,,,,,,,,,,,,,,,,,,,a,0,"[""0.134"",""0.375"",""0.171"",""0.689""]","[1,1,0,1]",0,36,36,36,1,1,1,,,0,FALSE,1.3999,,,,,,,,,,,,,,,,,,,,,,,,,,,,,,
,5d33c9fbcb8e950001c30a9b,001,2022-04-29_04h11.55.278,classification_task,2021.2.3,Win32,59.99880002,5d33c9fbcb8e950001c30a9b,626b377229c10585ec392f89,626b3b1b36fdfd036b9a8a93,,,,,,,,,,,,,,,,,,,,,,,a,0,"[""0.455"",""0.375"",""0.583"",""0.689""]","[0,1,1,1]",0,37,37,37,1,1,1,,,0,FALSE,1.1167,,,,,,,,,,,,,,,,,,,,,,,,,,,,,,
,5d33c9fbcb8e950001c30a9b,001,2022-04-29_04h11.55.278,classification_task,2021.2.3,Win32,59.99880002,5d33c9fbcb8e950001c30a9b,626b377229c10585ec392f89,626b3b1b36fdfd036b9a8a93,,,,,,,,,,,,,,,,,,,,,,,l,1,"[""0.080"",""0.342"",""0.171"",""0.736""]","[1,1,0,1]",0,38,38,38,1,1,0,,,0,FALSE,0.7486,,,,,,,,,,,,,,,,,,,,,,,,,,,,,,
,5d33c9fbcb8e950001c30a9b,001,2022-04-29_04h11.55.278,classification_task,2021.2.3,Win32,59.99880002,5d33c9fbcb8e950001c30a9b,626b377229c10585ec392f89,626b3b1b36fdfd036b9a8a93,,,,,,,,,,,,,,,,,,,,,,,a,0,"[""0.134"",""0.773"",""0.583"",""0.689""]","[1,0,1,1]",0,39,39,39,1,1,1,,,0,FALSE,0.9001,,,,,,,,,,,,,,,,,,,,,,,,,,,,,,
,5d33c9fbcb8e950001c30a9b,001,2022-04-29_04h11.55.278,classification_task,2021.2.3,Win32,59.99880002,5d33c9fbcb8e950001c30a9b,626b377229c10585ec392f89,626b3b1b36fdfd036b9a8a93,,,,,,,,,,,,,,,,,,,,,,,a,1,"[""0.773"",""0.492"",""0.836"",""0.873""]","[0,1,1,1]",0,40,40,40,1,0,1,,,0,FALSE,2.2333,,,,,,,,,,,,,,,,,,,,,,,,,,,,,,
,5d33c9fbcb8e950001c30a9b,001,2022-04-29_04h11.55.278,classification_task,2021.2.3,Win32,59.99880002,5d33c9fbcb8e950001c30a9b,626b377229c10585ec392f89,626b3b1b36fdfd036b9a8a93,,,,,,,,,,,,,,,,,,,,,,,a,1,"[""0.784"",""0.535"",""0.913"",""0.955""]","[0,1,1,1]",0,41,41,41,1,0,0,,,0,FALSE,2.1335,,,,,,,,,,,,,,,,,,,,,,,,,,,,,,
,5d33c9fbcb8e950001c30a9b,001,2022-04-29_04h11.55.278,classification_task,2021.2.3,Win32,59.99880002,5d33c9fbcb8e950001c30a9b,626b377229c10585ec392f89,626b3b1b36fdfd036b9a8a93,,,,,,,,,,,,,,,,,,,,,,,a,1,"[""0.220"",""0.784"",""0.913"",""0.955""]","[1,0,1,1]",0,42,42,42,1,0,0,,,0,FALSE,0.9998,,,,,,,,,,,,,,,,,,,,,,,,,,,,,,
,5d33c9fbcb8e950001c30a9b,001,2022-04-29_04h11.55.278,classification_task,2021.2.3,Win32,59.99880002,5d33c9fbcb8e950001c30a9b,626b377229c10585ec392f89,626b3b1b36fdfd036b9a8a93,,,,,,,,,,,,,,,,,,,,,,,l,1,"[""0.180"",""0.342"",""0.618"",""0.736""]","[0,1,1,1]",0,43,43,43,1,1,0,,,0,FALSE,0.6999,,,,,,,,,,,,,,,,,,,,,,,,,,,,,,
,5d33c9fbcb8e950001c30a9b,001,2022-04-29_04h11.55.278,classification_task,2021.2.3,Win32,59.99880002,5d33c9fbcb8e950001c30a9b,626b377229c10585ec392f89,626b3b1b36fdfd036b9a8a93,,,,,,,,,,,,,,,,,,,,,,,l,1,"[""0.080"",""0.421"",""0.618"",""0.736""]","[1,0,1,1]",0,44,44,44,1,1,0,,,0,FALSE,0.5176,,,,,,,,,,,,,,,,,,,,,,,,,,,,,,
,5d33c9fbcb8e950001c30a9b,001,2022-04-29_04h11.55.278,classification_task,2021.2.3,Win32,59.99880002,5d33c9fbcb8e950001c30a9b,626b377229c10585ec392f89,626b3b1b36fdfd036b9a8a93,,,,,,,,,,,,,,,,,,,,,,,a,1,"[""0.290"",""0.492"",""0.421"",""0.873""]","[1,1,0,1]",0,45,45,45,1,0,1,,,0,FALSE,0.7333,,,,,,,,,,,,,,,,,,,,,,,,,,,,,,
,5d33c9fbcb8e950001c30a9b,001,2022-04-29_04h11.55.278,classification_task,2021.2.3,Win32,59.99880002,5d33c9fbcb8e950001c30a9b,626b377229c10585ec392f89,626b3b1b36fdfd036b9a8a93,,,,,,,,,,,,,,,,,,,,,,,l,0,"[""0.220"",""0.535"",""0.913"",""0.043""]","[1,1,1,0]",0,46,46,46,1,0,0,,,0,FALSE,1.1172,,,,,,,,,,,,,,,,,,,,,,,,,,,,,,
,5d33c9fbcb8e950001c30a9b,001,2022-04-29_04h11.55.278,classification_task,2021.2.3,Win32,59.99880002,5d33c9fbcb8e950001c30a9b,626b377229c10585ec392f89,626b3b1b36fdfd036b9a8a93,,,,,,,,,,,,,,,,,,,,,,,a,1,"[""0.290"",""0.171"",""0.836"",""0.873""]","[1,0,1,1]",0,47,47,47,1,0,1,,,0,FALSE,0.8499,,,,,,,,,,,,,,,,,,,,,,,,,,,,,,
,5d33c9fbcb8e950001c30a9b,001,2022-04-29_04h11.55.278,classification_task,2021.2.3,Win32,59.99880002,5d33c9fbcb8e950001c30a9b,626b377229c10585ec392f89,626b3b1b36fdfd036b9a8a93,,,,,,,,,,,,,,,,,,,,,,,a,1,"[""0.220"",""0.535"",""0.913"",""0.044""]","[1,1,1,0]",0,48,48,48,1,0,0,,,0,FALSE,0.6655,,,,,,,,,,,,,,,,,,,,,,,,,,,,,,
,5d33c9fbcb8e950001c30a9b,001,2022-04-29_04h11.55.278,classification_task,2021.2.3,Win32,59.99880002,5d33c9fbcb8e950001c30a9b,626b377229c10585ec392f89,626b3b1b36fdfd036b9a8a93,,,,,,,,,,,,,,,,,,,,,,,l,0,"[""0.290"",""0.492"",""0.429"",""0.873""]","[1,1,0,1]",0,49,49,49,1,0,1,,,0,FALSE,0.8499,,,,,,,,,,,,,,,,,,,,,,,,,,,,,,
,5d33c9fbcb8e950001c30a9b,001,2022-04-29_04h11.55.278,classification_task,2021.2.3,Win32,59.99880002,5d33c9fbcb8e950001c30a9b,626b377229c10585ec392f89,626b3b1b36fdfd036b9a8a93,,,,,,,,,,,,,,,,,,,,,,,a,0,"[""0.134"",""0.375"",""0.044"",""0.689""]","[1,1,0,1]",0,50,50,50,1,1,1,,,0,FALSE,2.9835,,,,,,,,,,,,,,,,,,,,,,,,,,,,,,
,5d33c9fbcb8e950001c30a9b,001,2022-04-29_04h11.55.278,classification_task,2021.2.3,Win32,59.99880002,5d33c9fbcb8e950001c30a9b,626b377229c10585ec392f89,626b3b1b36fdfd036b9a8a93,,,,,,,,,,,,,,,,,,,,,,,a,0,"[""0.080"",""0.773"",""0.618"",""0.736""]","[1,0,1,1]",0,51,51,51,1,1,0,,,0,FALSE,2.7332,,,,,,,,,,,,,,,,,,,,,,,,,,,,,,
,5d33c9fbcb8e950001c30a9b,001,2022-04-29_04h11.55.278,classification_task,2021.2.3,Win32,59.99880002,5d33c9fbcb8e950001c30a9b,626b377229c10585ec392f89,626b3b1b36fdfd036b9a8a93,,,,,,,,,,,,,,,,,,,,,,,l,0,"[""0.290"",""0.172"",""0.836"",""0.873""]","[1,0,1,1]",0,52,52,52,1,0,1,,,0,FALSE,1.117,,,,,,,,,,,,,,,,,,,,,,,,,,,,,,
,5d33c9fbcb8e950001c30a9b,001,2022-04-29_04h11.55.278,classification_task,2021.2.3,Win32,59.99880002,5d33c9fbcb8e950001c30a9b,626b377229c10585ec392f89,626b3b1b36fdfd036b9a8a93,,,,,,,,,,,,,,,,,,,,,,,a,0,"[""0.080"",""0.342"",""0.801"",""0.736""]","[1,1,0,1]",0,53,53,53,1,1,0,,,0,FALSE,0.6329,,,,,,,,,,,,,,,,,,,,,,,,,,,,,,
,5d33c9fbcb8e950001c30a9b,001,2022-04-29_04h11.55.278,classification_task,2021.2.3,Win32,59.99880002,5d33c9fbcb8e950001c30a9b,626b377229c10585ec392f89,626b3b1b36fdfd036b9a8a93,,,,,,,,,,,,,,,,,,,,,,,a,1,"[""0.220"",""0.535"",""0.652"",""0.955""]","[1,1,0,1]",0,54,54,54,1,0,0,,,0,FALSE,1.1503,,,,,,,,,,,,,,,,,,,,,,,,,,,,,,
,5d33c9fbcb8e950001c30a9b,001,2022-04-29_04h11.55.278,classification_task,2021.2.3,Win32,59.99880002,5d33c9fbcb8e950001c30a9b,626b377229c10585ec392f89,626b3b1b36fdfd036b9a8a93,,,,,,,,,,,,,,,,,,,,,,,l,1,"[""0.455"",""0.342"",""0.618"",""0.736""]","[0,1,1,1]",0,55,55,55,1,1,0,,,0,FALSE,0.7501,,,,,,,,,,,,,,,,,,,,,,,,,,,,,,
,5d33c9fbcb8e950001c30a9b,001,2022-04-29_04h11.55.278,classification_task,2021.2.3,Win32,59.99880002,5d33c9fbcb8e950001c30a9b,626b377229c10585ec392f89,626b3b1b36fdfd036b9a8a93,,,,,,,,,,,,,,,,,,,,,,,l,1,"[""0.134"",""0.375"",""0.583"",""0.773""]","[1,1,1,0]",0,56,56,56,1,1,1,,,0,FALSE,3.2001,,,,,,,,,,,,,,,,,,,,,,,,,,,,,,
,5d33c9fbcb8e950001c30a9b,001,2022-04-29_04h11.55.278,classification_task,2021.2.3,Win32,59.99880002,5d33c9fbcb8e950001c30a9b,626b377229c10585ec392f89,626b3b1b36fdfd036b9a8a93,,,,,,,,,,,,,,,,,,,,,,,a,0,"[""0.044"",""0.375"",""0.583"",""0.689""]","[0,1,1,1]",0,57,57,57,1,1,1,,,0,FALSE,1.3835,,,,,,,,,,,,,,,,,,,,,,,,,,,,,,
,5d33c9fbcb8e950001c30a9b,001,2022-04-29_04h11.55.278,classification_task,2021.2.3,Win32,59.99880002,5d33c9fbcb8e950001c30a9b,626b377229c10585ec392f89,626b3b1b36fdfd036b9a8a93,,,,,,,,,,,,,,,,,,,,,,,l,0,"[""0.290"",""0.492"",""0.836"",""0.171""]","[1,1,1,0]",0,58,58,58,1,0,1,,,0,FALSE,0.9664,,,,,,,,,,,,,,,,,,,,,,,,,,,,,,
,5d33c9fbcb8e950001c30a9b,001,2022-04-29_04h11.55.278,classification_task,2021.2.3,Win32,59.99880002,5d33c9fbcb8e950001c30a9b,626b377229c10585ec392f89,626b3b1b36fdfd036b9a8a93,,,,,,,,,,,,,,,,,,,,,,,a,0,"[""0.080"",""0.342"",""0.618"",""0.171""]","[1,1,1,0]",0,59,59,59,1,1,0,,,0,FALSE,0.6663,,,,,,,,,,,,,,,,,,,,,,,,,,,,,,
,5d33c9fbcb8e950001c30a9b,001,2022-04-29_04h11.55.278,classification_task,2021.2.3,Win32,59.99880002,5d33c9fbcb8e950001c30a9b,626b377229c10585ec392f89,626b3b1b36fdfd036b9a8a93,,,,,,,,,,,,,,,,,,,,,,,l,1,"[""0.134"",""0.652"",""0.583"",""0.689""]","[1,0,1,1]",0,60,60,60,1,1,1,,,0,FALSE,1.1997,,,,,,,,,,,,,,,,,,,,,,,,,,,,,,
,5d33c9fbcb8e950001c30a9b,001,2022-04-29_04h11.55.278,classification_task,2021.2.3,Win32,59.99880002,5d33c9fbcb8e950001c30a9b,626b377229c10585ec392f89,626b3b1b36fdfd036b9a8a93,,,,,,,,,,,,,,,,,,,,,,,a,1,"[""0.784"",""0.535"",""0.913"",""0.955""]","[0,1,1,1]",0,61,61,61,1,0,0,,,0,FALSE,0.8833,,,,,,,,,,,,,,,,,,,,,,,,,,,,,,
,5d33c9fbcb8e950001c30a9b,001,2022-04-29_04h11.55.278,classification_task,2021.2.3,Win32,59.99880002,5d33c9fbcb8e950001c30a9b,626b377229c10585ec392f89,626b3b1b36fdfd036b9a8a93,,,,,,,,,,,,,,,,,,,,,,,a,1,"[""0.773"",""0.492"",""0.836"",""0.873""]","[0,1,1,1]",0,62,62,62,1,0,1,,,0,FALSE,1.1837,,,,,,,,,,,,,,,,,,,,,,,,,,,,,,
,5d33c9fbcb8e950001c30a9b,001,2022-04-29_04h11.55.278,classification_task,2021.2.3,Win32,59.99880002,5d33c9fbcb8e950001c30a9b,626b377229c10585ec392f89,626b3b1b36fdfd036b9a8a93,,,,,,,,,,,,,,,,,,,,,,,a,1,"[""0.220"",""0.773"",""0.913"",""0.955""]","[1,0,1,1]",0,63,63,63,1,0,0,,,0,FALSE,1.7966,,,,,,,,,,,,,,,,,,,,,,,,,,,,,,
,5d33c9fbcb8e950001c30a9b,001,2022-04-29_04h11.55.278,classification_task,2021.2.3,Win32,59.99880002,5d33c9fbcb8e950001c30a9b,626b377229c10585ec392f89,626b3b1b36fdfd036b9a8a93,,,,,,,,,,,,,,,,,,,,,,,,,,,,,,,,,,,,,,,0, ,,0,0,175.5879,0,2,2,2,1,2,3,,,,,,,,,,,,,,,,,
,5d33c9fbcb8e950001c30a9b,001,2022-04-29_04h11.55.278,classification_task,2021.2.3,Win32,59.99880002,5d33c9fbcb8e950001c30a9b,626b377229c10585ec392f89,626b3b1b36fdfd036b9a8a93,,,,,,,,,,,,,,,,,,,,,,,,,,,,,,,,,,,,,,,1,  ,,0,5.269449344,179.3715,0,2,2,2,1,2,3,,,,,,,,,,,,,,,,,
,5d33c9fbcb8e950001c30a9b,001,2022-04-29_04h11.55.278,classification_task,2021.2.3,Win32,59.99880002,5d33c9fbcb8e950001c30a9b,626b377229c10585ec392f89,626b3b1b36fdfd036b9a8a93,,,,,,,,,,,,,,,,,,,,,,,,,,,,,,,,,,,,,,,2,  ,,0,2.378992749,180.3223,0,2,2,2,1,2,3,,,,,,,,,,,,,,,,,
,5d33c9fbcb8e950001c30a9b,001,2022-04-29_04h11.55.278,classification_task,2021.2.3,Win32,59.99880002,5d33c9fbcb8e950001c30a9b,626b377229c10585ec392f89,626b3b1b36fdfd036b9a8a93,,,,,,,,,,,,,,,,,,,,,,,,,,,,,,,,,,,,,,,,,,,,,0,2,2,2,1,,3,,,,,,,,,,,,,,,,,
,5d33c9fbcb8e950001c30a9b,001,2022-04-29_04h11.55.278,classification_task,2021.2.3,Win32,59.99880002,5d33c9fbcb8e950001c30a9b,626b377229c10585ec392f89,626b3b1b36fdfd036b9a8a93,,,,,,,,,,,,,,,,,,,,,,,,,,,,,,,,,,,,,,,,,,,,,,,,,,,,,I believe the aid is a competent performer,,0.7,0,2,852.1274,0,0,0,0,1,0,,,,
,5d33c9fbcb8e950001c30a9b,001,2022-04-29_04h11.55.278,classification_task,2021.2.3,Win32,59.99880002,5d33c9fbcb8e950001c30a9b,626b377229c10585ec392f89,626b3b1b36fdfd036b9a8a93,,,,,,,,,,,,,,,,,,,,,,,,,,,,,,,,,,,,,,,,,,,,,,,,,,,,,I trust the aid,,0.7,0,3,854.6627,0,0,0,0,1,0,,,,
,5d33c9fbcb8e950001c30a9b,001,2022-04-29_04h11.55.278,classification_task,2021.2.3,Win32,59.99880002,5d33c9fbcb8e950001c30a9b,626b377229c10585ec392f89,626b3b1b36fdfd036b9a8a93,,,,,,,,,,,,,,,,,,,,,,,,,,,,,,,,,,,,,,,,,,,,,,,,,,,,,I have confidence in the advice given by the aid,,0.7,0,3,856.8935,0,0,0,0,1,0,,,,
,5d33c9fbcb8e950001c30a9b,001,2022-04-29_04h11.55.278,classification_task,2021.2.3,Win32,59.99880002,5d33c9fbcb8e950001c30a9b,626b377229c10585ec392f89,626b3b1b36fdfd036b9a8a93,,,,,,,,,,,,,,,,,,,,,,,,,,,,,,,,,,,,,,,,,,,,,,,,,,,,,I can depend on the aid,,0.7,0,2,857.493,0,0,0,0,1,0,,,,
,5d33c9fbcb8e950001c30a9b,001,2022-04-29_04h11.55.278,classification_task,2021.2.3,Win32,59.99880002,5d33c9fbcb8e950001c30a9b,626b377229c10585ec392f89,626b3b1b36fdfd036b9a8a93,,,,,,,,,,,,,,,,,,,,,,,,,,,,,,,,,,,,,,,,,,,,,,,,,,,,,I can rely on the aid to behave in consistent ways,,0.7,0,3,860.5416,0,0,0,0,1,0,,,,
,5d33c9fbcb8e950001c30a9b,001,2022-04-29_04h11.55.278,classification_task,2021.2.3,Win32,59.99880002,5d33c9fbcb8e950001c30a9b,626b377229c10585ec392f89,626b3b1b36fdfd036b9a8a93,,,,,,,,,,,,,,,,,,,,,,,,,,,,,,,,,,,,,,,,,,,,,,,,,,,,,I can rely on the aid to do its best every time I take its advice,,0.7,0,2,862.4484,0,0,0,0,1,0,,,,
,5d33c9fbcb8e950001c30a9b,001,2022-04-29_04h11.55.278,classification_task,2021.2.3,Win32,59.99880002,5d33c9fbcb8e950001c30a9b,626b377229c10585ec392f89,626b3b1b36fdfd036b9a8a93,,,,,,,,,,,,,,,,,,,,,,,,,,,,,,,,,,,,,,,,,,,,,,,,,,,,,"On trials you completed with assistance from the aid, how frequently did you think the aid was correct?",,0.7,0,50,,0,0,0,0,1,0,,,,
,5d33c9fbcb8e950001c30a9b,001,2022-04-29_04h11.55.278,classification_task,2021.2.3,Win32,59.99880002,5d33c9fbcb8e950001c30a9b,626b377229c10585ec392f89,626b3b1b36fdfd036b9a8a93,,,,,,,,,,,,,,,,,,,,,,,,,,,,,,,,,,,,,,,,,,,,,,,,,,,,,"On trials you completed without the aid, how frequently did you think you were correct?",,0.7,0,50,,0,0,0,0,1,0,,,,
,5d33c9fbcb8e950001c30a9b,001,2022-04-29_04h11.55.278,classification_task,2021.2.3,Win32,59.99880002,5d33c9fbcb8e950001c30a9b,626b377229c10585ec392f89,626b3b1b36fdfd036b9a8a93,,,,,,,,,,,,,,,,,,,,,,,,,,,,,,,,,,,,,,,,,,,,,,,,,,,,,,,,,,,0,0,0,0,1,,,,,
,5d33c9fbcb8e950001c30a9b,001,2022-04-29_04h11.55.278,classification_task,2021.2.3,Win32,59.99880002,5d33c9fbcb8e950001c30a9b,626b377229c10585ec392f89,626b3b1b36fdfd036b9a8a93,,,,,,,,,,,,,,,,,,,,,,,,,,,,,,,,,,,,,,,,,,,,,,,,,,,,,,,,,,,,,,,,,space,12.655,889.1914,
,5d33c9fbcb8e950001c30a9b,001,2022-04-29_04h11.55.278,classification_task,2021.2.3,Win32,59.99880002,5d33c9fbcb8e950001c30a9b,626b377229c10585ec392f89,626b3b1b36fdfd036b9a8a93,,,,,,,,,,,,,,,,,,,,,,,,,,,,,,,,,,,,,,,,,,,,,,,,,,,,,,,,,,,,,,,,,,,,"Mozilla/5.0 (Windows NT 10.0; Win64; x64) AppleWebKit/537.36 (KHTML, like Gecko) Chrome/100.0.4896.127 Safari/537.36"
