usingWebGL,participant,session,date,expName,psychopyVersion,OS,frameRate,study_id,signatures_friend,signatures_foe,band_ranges_top,band_ranges_bottom,formitemText,formtype,formundefined,formitemWidth,formindex,formresponse,formrt,key_resp_2.keys,key_resp_2.rt,tute_resp.keys,tute_resp.rt,tutorial.thisRepN,tutorial.thisTrialN,tutorial.thisN,tutorial.thisIndex,tutorial.ran,key_resp_4.keys,key_resp_4.rt,key_resp.keys,key_resp.corr,key_resp.rt,lines_presented,is_signal_presented,trials.thisRepN,trials.thisTrialN,trials.thisN,trials.thisIndex,trials.ran,vessel,active_band,lines,is_signal,supported_pos,catch_trial,debrief_formindex,debrief_formitemText,debrief_formtype,debrief_formitemWidth,debrief_formresponse,debrief_formrt,phases.thisRepN,phases.thisTrialN,phases.thisN,phases.thisIndex,phases.ran,phases.order,phase,key_resp_3.keys,trustitemText,trusttype,trustitemWidth,trustindex,trustresponse,trustrt,support_status.thisRepN,support_status.thisTrialN,support_status.thisN,support_status.thisIndex,support_status.ran,support_status.order,key_resp_5.keys,key_resp_5.rt,globalClockTime,userAgent,manualCondition
TRUE,5d3f34ea8d82dd0001e04247,627c6f9070ae6af1c85fa308,2022-05-11_21h23.25.248,classification_task,2021.2.3,MacIntel,59.97361161,627c6715c52fd12f31907bcf,,,,,,,,,,,,,,,,,,,,,,,,,,,,,,,,,,,,,,,,,,,,,,,,,,,,,,,,,,,,,,,,,,,,,
,5d3f34ea8d82dd0001e04247,627c6f9070ae6af1c85fa308,2022-05-11_21h23.25.248,classification_task,2021.2.3,MacIntel,59.97361161,627c6715c52fd12f31907bcf,"[[""0.317"",""0.502"",""0.933"",""0.973""],[""0.270"",""0.400"",""0.581"",""0.898""]]","[[""0.122"",""0.181"",""0.448"",""0.839""],[""0.077"",""0.234"",""0.661"",""0.735""]]","[1,10]","[100,1000]",Video game experience,,,0.7,0,,,,,,,,,,,,,,,,,,,,,,,,,,,,,,,,,,,,,,,,,,,,,,,,,,,,,,,,,,,,
,5d3f34ea8d82dd0001e04247,627c6f9070ae6af1c85fa308,2022-05-11_21h23.25.248,classification_task,2021.2.3,MacIntel,59.97361161,627c6715c52fd12f31907bcf,,,,,Approximately how many hours did you spend playing video games in the last week?,,,0.7,0,20,,,,,,,,,,,,,,,,,,,,,,,,,,,,,,,,,,,,,,,,,,,,,,,,,,,,,,,,,,,
,5d3f34ea8d82dd0001e04247,627c6f9070ae6af1c85fa308,2022-05-11_21h23.25.248,classification_task,2021.2.3,MacIntel,59.97361161,627c6715c52fd12f31907bcf,,,,,"Which game did you play the most this year? (Enter ""None"" if you didn't play any)",,,0.7,0,iRacing,,,,,,,,,,,,,,,,,,,,,,,,,,,,,,,,,,,,,,,,,,,,,,,,,,,,,,,,,,,
,5d3f34ea8d82dd0001e04247,627c6f9070ae6af1c85fa308,2022-05-11_21h23.25.248,classification_task,2021.2.3,MacIntel,59.97361161,627c6715c52fd12f31907bcf,,,,,Visual perception,,,0.7,0,,,,,,,,,,,,,,,,,,,,,,,,,,,,,,,,,,,,,,,,,,,,,,,,,,,,,,,,,,,,
,5d3f34ea8d82dd0001e04247,627c6f9070ae6af1c85fa308,2022-05-11_21h23.25.248,classification_task,2021.2.3,MacIntel,59.97361161,627c6715c52fd12f31907bcf,,,,,Do you have any form of color blindness?,,,0.7,0,No,50.8165,,,,,,,,,,,,,,,,,,,,,,,,,,,,,,,,,,,,,,,,,,,,,,,,,,,,,,,,,,
,5d3f34ea8d82dd0001e04247,627c6f9070ae6af1c85fa308,2022-05-11_21h23.25.248,classification_task,2021.2.3,MacIntel,59.97361161,627c6715c52fd12f31907bcf,,,,,Do you use software to change the colour temperature of your screen (e.g. f.lux)?,,,0.7,0,Yes,52.7653,,,,,,,,,,,,,,,,,,,,,,,,,,,,,,,,,,,,,,,,,,,,,,,,,,,,,,,,,,
,5d3f34ea8d82dd0001e04247,627c6f9070ae6af1c85fa308,2022-05-11_21h23.25.248,classification_task,2021.2.3,MacIntel,59.97361161,627c6715c52fd12f31907bcf,,,,,,,,,,,,space,51.1362,space,3.8063,0,0,0,0,1,,,,,,,,,,,,,,,,,,,,,,,,,,,,,,,,,,,,,,,,,,,,,,,,,
,5d3f34ea8d82dd0001e04247,627c6f9070ae6af1c85fa308,2022-05-11_21h23.25.248,classification_task,2021.2.3,MacIntel,59.97361161,627c6715c52fd12f31907bcf,,,,,,,,,,,,,,space,6.7974,1,0,1,0,1,,,,,,,,,,,,,,,,,,,,,,,,,,,,,,,,,,,,,,,,,,,,,,,,,
,5d3f34ea8d82dd0001e04247,627c6f9070ae6af1c85fa308,2022-05-11_21h23.25.248,classification_task,2021.2.3,MacIntel,59.97361161,627c6715c52fd12f31907bcf,,,,,,,,,,,,,,space,9.63,2,0,2,0,1,,,,,,,,,,,,,,,,,,,,,,,,,,,,,,,,,,,,,,,,,,,,,,,,,
,5d3f34ea8d82dd0001e04247,627c6f9070ae6af1c85fa308,2022-05-11_21h23.25.248,classification_task,2021.2.3,MacIntel,59.97361161,627c6715c52fd12f31907bcf,,,,,,,,,,,,,,space,12.23,3,0,3,0,1,,,,,,,,,,,,,,,,,,,,,,,,,,,,,,,,,,,,,,,,,,,,,,,,,
,5d3f34ea8d82dd0001e04247,627c6f9070ae6af1c85fa308,2022-05-11_21h23.25.248,classification_task,2021.2.3,MacIntel,59.97361161,627c6715c52fd12f31907bcf,,,,,,,,,,,,,,space,12.0473,4,0,4,0,1,,,,,,,,,,,,,,,,,,,,,,,,,,,,,,,,,,,,,,,,,,,,,,,,,
,5d3f34ea8d82dd0001e04247,627c6f9070ae6af1c85fa308,2022-05-11_21h23.25.248,classification_task,2021.2.3,MacIntel,59.97361161,627c6715c52fd12f31907bcf,,,,,,,,,,,,,,,,,,,,,space,4.949,l,1,7.1957,"[""0.122"",""0.181"",""0.448"",""0.543""]","[1,1,1,0]",0,0,0,0,1,1,0,,,0,FALSE,,,,,,,,,,,,,,,,,,,,,,,,,,,,,,,
,5d3f34ea8d82dd0001e04247,627c6f9070ae6af1c85fa308,2022-05-11_21h23.25.248,classification_task,2021.2.3,MacIntel,59.97361161,627c6715c52fd12f31907bcf,,,,,,,,,,,,,,,,,,,,,,,a,0,4.7922,"[""0.077"",""0.234"",""0.700"",""0.735""]","[1,1,0,1]",0,1,1,1,1,1,1,,,0,FALSE,,,,,,,,,,,,,,,,,,,,,,,,,,,,,,,
,5d3f34ea8d82dd0001e04247,627c6f9070ae6af1c85fa308,2022-05-11_21h23.25.248,classification_task,2021.2.3,MacIntel,59.97361161,627c6715c52fd12f31907bcf,,,,,,,,,,,,,,,,,,,,,,,a,1,1.9217,"[""0.270"",""0.400"",""0.790"",""0.898""]","[1,1,0,1]",0,2,2,2,1,0,1,,,0,FALSE,,,,,,,,,,,,,,,,,,,,,,,,,,,,,,,
,5d3f34ea8d82dd0001e04247,627c6f9070ae6af1c85fa308,2022-05-11_21h23.25.248,classification_task,2021.2.3,MacIntel,59.97361161,627c6715c52fd12f31907bcf,,,,,,,,,,,,,,,,,,,,,,,l,1,3.0012,"[""0.077"",""0.796"",""0.661"",""0.735""]","[1,0,1,1]",0,3,3,3,1,1,1,,,0,FALSE,,,,,,,,,,,,,,,,,,,,,,,,,,,,,,,
,5d3f34ea8d82dd0001e04247,627c6f9070ae6af1c85fa308,2022-05-11_21h23.25.248,classification_task,2021.2.3,MacIntel,59.97361161,627c6715c52fd12f31907bcf,,,,,,,,,,,,,,,,,,,,,,,l,1,5.4541,"[""0.028"",""0.181"",""0.448"",""0.839""]","[0,1,1,1]",0,4,4,4,1,1,0,,,0,FALSE,,,,,,,,,,,,,,,,,,,,,,,,,,,,,,,
,5d3f34ea8d82dd0001e04247,627c6f9070ae6af1c85fa308,2022-05-11_21h23.25.248,classification_task,2021.2.3,MacIntel,59.97361161,627c6715c52fd12f31907bcf,,,,,,,,,,,,,,,,,,,,,,,a,1,3.1146,"[""0.778"",""0.400"",""0.581"",""0.898""]","[0,1,1,1]",0,5,5,5,1,0,1,,,0,FALSE,,,,,,,,,,,,,,,,,,,,,,,,,,,,,,,
,5d3f34ea8d82dd0001e04247,627c6f9070ae6af1c85fa308,2022-05-11_21h23.25.248,classification_task,2021.2.3,MacIntel,59.97361161,627c6715c52fd12f31907bcf,,,,,,,,,,,,,,,,,,,,,,,l,1,3.2332,"[""0.122"",""0.181"",""0.351"",""0.839""]","[1,1,0,1]",0,6,6,6,1,1,0,,,0,FALSE,,,,,,,,,,,,,,,,,,,,,,,,,,,,,,,
,5d3f34ea8d82dd0001e04247,627c6f9070ae6af1c85fa308,2022-05-11_21h23.25.248,classification_task,2021.2.3,MacIntel,59.97361161,627c6715c52fd12f31907bcf,,,,,,,,,,,,,,,,,,,,,,,a,1,1.7751,"[""0.317"",""0.502"",""0.351"",""0.973""]","[1,1,0,1]",0,7,7,7,1,0,0,,,0,FALSE,,,,,,,,,,,,,,,,,,,,,,,,,,,,,,,
,5d3f34ea8d82dd0001e04247,627c6f9070ae6af1c85fa308,2022-05-11_21h23.25.248,classification_task,2021.2.3,MacIntel,59.97361161,627c6715c52fd12f31907bcf,,,,,,,,,,,,,,,,,,,,,,,a,1,1.3894,"[""0.270"",""0.400"",""0.581"",""0.790""]","[1,1,1,0]",0,8,8,8,1,0,1,,,0,FALSE,,,,,,,,,,,,,,,,,,,,,,,,,,,,,,,
,5d3f34ea8d82dd0001e04247,627c6f9070ae6af1c85fa308,2022-05-11_21h23.25.248,classification_task,2021.2.3,MacIntel,59.97361161,627c6715c52fd12f31907bcf,,,,,,,,,,,,,,,,,,,,,,,a,1,1.4883,"[""0.270"",""0.352"",""0.581"",""0.898""]","[1,0,1,1]",0,9,9,9,1,0,1,,,0,FALSE,,,,,,,,,,,,,,,,,,,,,,,,,,,,,,,
,5d3f34ea8d82dd0001e04247,627c6f9070ae6af1c85fa308,2022-05-11_21h23.25.248,classification_task,2021.2.3,MacIntel,59.97361161,627c6715c52fd12f31907bcf,,,,,,,,,,,,,,,,,,,,,,,l,0,1.4564,"[""0.317"",""0.794"",""0.933"",""0.973""]","[1,0,1,1]",0,10,10,10,1,0,0,,,0,FALSE,,,,,,,,,,,,,,,,,,,,,,,,,,,,,,,
,5d3f34ea8d82dd0001e04247,627c6f9070ae6af1c85fa308,2022-05-11_21h23.25.248,classification_task,2021.2.3,MacIntel,59.97361161,627c6715c52fd12f31907bcf,,,,,,,,,,,,,,,,,,,,,,,a,1,1.4325,"[""0.317"",""0.502"",""0.933"",""0.776""]","[1,1,1,0]",0,11,11,11,1,0,0,,,0,FALSE,,,,,,,,,,,,,,,,,,,,,,,,,,,,,,,
,5d3f34ea8d82dd0001e04247,627c6f9070ae6af1c85fa308,2022-05-11_21h23.25.248,classification_task,2021.2.3,MacIntel,59.97361161,627c6715c52fd12f31907bcf,,,,,,,,,,,,,,,,,,,,,,,l,0,1.3406,"[""0.700"",""0.502"",""0.933"",""0.973""]","[0,1,1,1]",0,12,12,12,1,0,0,,,0,FALSE,,,,,,,,,,,,,,,,,,,,,,,,,,,,,,,
,5d3f34ea8d82dd0001e04247,627c6f9070ae6af1c85fa308,2022-05-11_21h23.25.248,classification_task,2021.2.3,MacIntel,59.97361161,627c6715c52fd12f31907bcf,,,,,,,,,,,,,,,,,,,,,,,l,1,3.9886,"[""0.077"",""0.234"",""0.661"",""0.351""]","[1,1,1,0]",0,13,13,13,1,1,1,,,0,FALSE,,,,,,,,,,,,,,,,,,,,,,,,,,,,,,,
,5d3f34ea8d82dd0001e04247,627c6f9070ae6af1c85fa308,2022-05-11_21h23.25.248,classification_task,2021.2.3,MacIntel,59.97361161,627c6715c52fd12f31907bcf,,,,,,,,,,,,,,,,,,,,,,,l,1,2.5717,"[""0.122"",""0.790"",""0.448"",""0.839""]","[1,0,1,1]",0,14,14,14,1,1,0,,,0,FALSE,,,,,,,,,,,,,,,,,,,,,,,,,,,,,,,
,5d3f34ea8d82dd0001e04247,627c6f9070ae6af1c85fa308,2022-05-11_21h23.25.248,classification_task,2021.2.3,MacIntel,59.97361161,627c6715c52fd12f31907bcf,,,,,,,,,,,,,,,,,,,,,,,a,0,3.0498,"[""0.790"",""0.234"",""0.661"",""0.735""]","[0,1,1,1]",0,15,15,15,1,1,1,,,0,FALSE,,,,,,,,,,,,,,,,,,,,,,,,,,,,,,,
,5d3f34ea8d82dd0001e04247,627c6f9070ae6af1c85fa308,2022-05-11_21h23.25.248,classification_task,2021.2.3,MacIntel,59.97361161,627c6715c52fd12f31907bcf,,,,,,,,,,,,,,,,,,,,,,,l,1,4.9231,"[""0.619"",""0.234"",""0.661"",""0.735""]","[0,1,1,1]",0,16,16,16,1,1,1,,,0,FALSE,,,,,,,,,,,,,,,,,,,,,,,,,,,,,,,
,5d3f34ea8d82dd0001e04247,627c6f9070ae6af1c85fa308,2022-05-11_21h23.25.248,classification_task,2021.2.3,MacIntel,59.97361161,627c6715c52fd12f31907bcf,,,,,,,,,,,,,,,,,,,,,,,l,1,4.3711,"[""0.122"",""0.181"",""0.790"",""0.839""]","[1,1,0,1]",0,17,17,17,1,1,0,,,0,FALSE,,,,,,,,,,,,,,,,,,,,,,,,,,,,,,,
,5d3f34ea8d82dd0001e04247,627c6f9070ae6af1c85fa308,2022-05-11_21h23.25.248,classification_task,2021.2.3,MacIntel,59.97361161,627c6715c52fd12f31907bcf,,,,,,,,,,,,,,,,,,,,,,,a,0,4.6514,"[""0.035"",""0.181"",""0.448"",""0.839""]","[0,1,1,1]",0,18,18,18,1,1,0,,,0,FALSE,,,,,,,,,,,,,,,,,,,,,,,,,,,,,,,
,5d3f34ea8d82dd0001e04247,627c6f9070ae6af1c85fa308,2022-05-11_21h23.25.248,classification_task,2021.2.3,MacIntel,59.97361161,627c6715c52fd12f31907bcf,,,,,,,,,,,,,,,,,,,,,,,l,1,1.4169,"[""0.077"",""0.234"",""0.035"",""0.735""]","[1,1,0,1]",0,19,19,19,1,1,1,,,0,FALSE,,,,,,,,,,,,,,,,,,,,,,,,,,,,,,,
,5d3f34ea8d82dd0001e04247,627c6f9070ae6af1c85fa308,2022-05-11_21h23.25.248,classification_task,2021.2.3,MacIntel,59.97361161,627c6715c52fd12f31907bcf,,,,,,,,,,,,,,,,,,,,,,,l,1,2.0427,"[""0.122"",""0.700"",""0.448"",""0.839""]","[1,0,1,1]",0,20,20,20,1,1,0,,,0,FALSE,,,,,,,,,,,,,,,,,,,,,,,,,,,,,,,
,5d3f34ea8d82dd0001e04247,627c6f9070ae6af1c85fa308,2022-05-11_21h23.25.248,classification_task,2021.2.3,MacIntel,59.97361161,627c6715c52fd12f31907bcf,,,,,,,,,,,,,,,,,,,,,,,l,0,2.2889,"[""0.317"",""0.502"",""0.030"",""0.973""]","[1,1,0,1]",0,21,21,21,1,0,0,,,0,FALSE,,,,,,,,,,,,,,,,,,,,,,,,,,,,,,,
,5d3f34ea8d82dd0001e04247,627c6f9070ae6af1c85fa308,2022-05-11_21h23.25.248,classification_task,2021.2.3,MacIntel,59.97361161,627c6715c52fd12f31907bcf,,,,,,,,,,,,,,,,,,,,,,,l,1,4.4047,"[""0.077"",""0.234"",""0.661"",""0.700""]","[1,1,1,0]",0,22,22,22,1,1,1,,,0,FALSE,,,,,,,,,,,,,,,,,,,,,,,,,,,,,,,
,5d3f34ea8d82dd0001e04247,627c6f9070ae6af1c85fa308,2022-05-11_21h23.25.248,classification_task,2021.2.3,MacIntel,59.97361161,627c6715c52fd12f31907bcf,,,,,,,,,,,,,,,,,,,,,,,a,1,3.2389,"[""0.270"",""0.776"",""0.581"",""0.898""]","[1,0,1,1]",0,23,23,23,1,0,1,,,0,FALSE,,,,,,,,,,,,,,,,,,,,,,,,,,,,,,,
,5d3f34ea8d82dd0001e04247,627c6f9070ae6af1c85fa308,2022-05-11_21h23.25.248,classification_task,2021.2.3,MacIntel,59.97361161,627c6715c52fd12f31907bcf,,,,,,,,,,,,,,,,,,,,,,,a,1,2.1218,"[""0.270"",""0.400"",""0.581"",""0.790""]","[1,1,1,0]",0,24,24,24,1,0,1,,,0,FALSE,,,,,,,,,,,,,,,,,,,,,,,,,,,,,,,
,5d3f34ea8d82dd0001e04247,627c6f9070ae6af1c85fa308,2022-05-11_21h23.25.248,classification_task,2021.2.3,MacIntel,59.97361161,627c6715c52fd12f31907bcf,,,,,,,,,,,,,,,,,,,,,,,a,1,5.8308,"[""0.035"",""0.502"",""0.933"",""0.973""]","[0,1,1,1]",0,25,25,25,1,0,0,,,0,FALSE,,,,,,,,,,,,,,,,,,,,,,,,,,,,,,,
,5d3f34ea8d82dd0001e04247,627c6f9070ae6af1c85fa308,2022-05-11_21h23.25.248,classification_task,2021.2.3,MacIntel,59.97361161,627c6715c52fd12f31907bcf,,,,,,,,,,,,,,,,,,,,,,,a,1,2.8603,"[""0.317"",""0.502"",""0.933"",""0.778""]","[1,1,1,0]",0,26,26,26,1,0,0,,,0,FALSE,,,,,,,,,,,,,,,,,,,,,,,,,,,,,,,
,5d3f34ea8d82dd0001e04247,627c6f9070ae6af1c85fa308,2022-05-11_21h23.25.248,classification_task,2021.2.3,MacIntel,59.97361161,627c6715c52fd12f31907bcf,,,,,,,,,,,,,,,,,,,,,,,l,0,5.4164,"[""0.270"",""0.400"",""0.028"",""0.898""]","[1,1,0,1]",0,27,27,27,1,0,1,,,0,FALSE,,,,,,,,,,,,,,,,,,,,,,,,,,,,,,,
,5d3f34ea8d82dd0001e04247,627c6f9070ae6af1c85fa308,2022-05-11_21h23.25.248,classification_task,2021.2.3,MacIntel,59.97361161,627c6715c52fd12f31907bcf,,,,,,,,,,,,,,,,,,,,,,,l,1,1.8532,"[""0.077"",""0.028"",""0.661"",""0.735""]","[1,0,1,1]",0,28,28,28,1,1,1,,,0,FALSE,,,,,,,,,,,,,,,,,,,,,,,,,,,,,,,
,5d3f34ea8d82dd0001e04247,627c6f9070ae6af1c85fa308,2022-05-11_21h23.25.248,classification_task,2021.2.3,MacIntel,59.97361161,627c6715c52fd12f31907bcf,,,,,,,,,,,,,,,,,,,,,,,l,0,4.5854,"[""0.776"",""0.400"",""0.581"",""0.898""]","[0,1,1,1]",0,29,29,29,1,0,1,,,0,FALSE,,,,,,,,,,,,,,,,,,,,,,,,,,,,,,,
,5d3f34ea8d82dd0001e04247,627c6f9070ae6af1c85fa308,2022-05-11_21h23.25.248,classification_task,2021.2.3,MacIntel,59.97361161,627c6715c52fd12f31907bcf,,,,,,,,,,,,,,,,,,,,,,,a,1,1.3821,"[""0.317"",""0.352"",""0.933"",""0.973""]","[1,0,1,1]",0,30,30,30,1,0,0,,,0,FALSE,,,,,,,,,,,,,,,,,,,,,,,,,,,,,,,
,5d3f34ea8d82dd0001e04247,627c6f9070ae6af1c85fa308,2022-05-11_21h23.25.248,classification_task,2021.2.3,MacIntel,59.97361161,627c6715c52fd12f31907bcf,,,,,,,,,,,,,,,,,,,,,,,l,1,5.5514,"[""0.122"",""0.181"",""0.448"",""0.790""]","[1,1,1,0]",0,31,31,31,1,1,0,,,0,FALSE,,,,,,,,,,,,,,,,,,,,,,,,,,,,,,,
,5d3f34ea8d82dd0001e04247,627c6f9070ae6af1c85fa308,2022-05-11_21h23.25.248,classification_task,2021.2.3,MacIntel,59.97361161,627c6715c52fd12f31907bcf,,,,,,,,,,,,,,,,,,,,,,,,0,,"[""0.270"",""0.400"",""0.581"",""0.790""]","[1,1,1,0]",0,32,32,32,1,0,1,,,0,FALSE,,,,,,,,,,,,,,,,,,,,,,,,,,,,,,,
,5d3f34ea8d82dd0001e04247,627c6f9070ae6af1c85fa308,2022-05-11_21h23.25.248,classification_task,2021.2.3,MacIntel,59.97361161,627c6715c52fd12f31907bcf,,,,,,,,,,,,,,,,,,,,,,,a,1,0.2817,"[""0.270"",""0.352"",""0.581"",""0.898""]","[1,0,1,1]",0,33,33,33,1,0,1,,,0,FALSE,,,,,,,,,,,,,,,,,,,,,,,,,,,,,,,
,5d3f34ea8d82dd0001e04247,627c6f9070ae6af1c85fa308,2022-05-11_21h23.25.248,classification_task,2021.2.3,MacIntel,59.97361161,627c6715c52fd12f31907bcf,,,,,,,,,,,,,,,,,,,,,,,l,1,0.7918,"[""0.077"",""0.234"",""0.661"",""0.790""]","[1,1,1,0]",0,34,34,34,1,1,1,,,0,FALSE,,,,,,,,,,,,,,,,,,,,,,,,,,,,,,,
,5d3f34ea8d82dd0001e04247,627c6f9070ae6af1c85fa308,2022-05-11_21h23.25.248,classification_task,2021.2.3,MacIntel,59.97361161,627c6715c52fd12f31907bcf,,,,,,,,,,,,,,,,,,,,,,,a,1,0.298,"[""0.790"",""0.502"",""0.933"",""0.973""]","[0,1,1,1]",0,35,35,35,1,0,0,,,0,FALSE,,,,,,,,,,,,,,,,,,,,,,,,,,,,,,,
,5d3f34ea8d82dd0001e04247,627c6f9070ae6af1c85fa308,2022-05-11_21h23.25.248,classification_task,2021.2.3,MacIntel,59.97361161,627c6715c52fd12f31907bcf,,,,,,,,,,,,,,,,,,,,,,,a,1,7.3032,"[""0.317"",""0.502"",""0.933"",""0.352""]","[1,1,1,0]",0,36,36,36,1,0,0,,,0,FALSE,,,,,,,,,,,,,,,,,,,,,,,,,,,,,,,
,5d3f34ea8d82dd0001e04247,627c6f9070ae6af1c85fa308,2022-05-11_21h23.25.248,classification_task,2021.2.3,MacIntel,59.97361161,627c6715c52fd12f31907bcf,,,,,,,,,,,,,,,,,,,,,,,l,1,1.2027,"[""0.122"",""0.181"",""0.448"",""0.543""]","[1,1,1,0]",0,37,37,37,1,1,0,,,0,FALSE,,,,,,,,,,,,,,,,,,,,,,,,,,,,,,,
,5d3f34ea8d82dd0001e04247,627c6f9070ae6af1c85fa308,2022-05-11_21h23.25.248,classification_task,2021.2.3,MacIntel,59.97361161,627c6715c52fd12f31907bcf,,,,,,,,,,,,,,,,,,,,,,,l,0,1.4449,"[""0.317"",""0.502"",""0.700"",""0.973""]","[1,1,0,1]",0,38,38,38,1,0,0,,,0,FALSE,,,,,,,,,,,,,,,,,,,,,,,,,,,,,,,
,5d3f34ea8d82dd0001e04247,627c6f9070ae6af1c85fa308,2022-05-11_21h23.25.248,classification_task,2021.2.3,MacIntel,59.97361161,627c6715c52fd12f31907bcf,,,,,,,,,,,,,,,,,,,,,,,a,0,0.6324,"[""0.778"",""0.181"",""0.448"",""0.839""]","[0,1,1,1]",0,39,39,39,1,1,0,,,0,FALSE,,,,,,,,,,,,,,,,,,,,,,,,,,,,,,,
,5d3f34ea8d82dd0001e04247,627c6f9070ae6af1c85fa308,2022-05-11_21h23.25.248,classification_task,2021.2.3,MacIntel,59.97361161,627c6715c52fd12f31907bcf,,,,,,,,,,,,,,,,,,,,,,,l,0,0.5,"[""0.270"",""0.400"",""0.790"",""0.898""]","[1,1,0,1]",0,40,40,40,1,0,1,,,0,FALSE,,,,,,,,,,,,,,,,,,,,,,,,,,,,,,,
,5d3f34ea8d82dd0001e04247,627c6f9070ae6af1c85fa308,2022-05-11_21h23.25.248,classification_task,2021.2.3,MacIntel,59.97361161,627c6715c52fd12f31907bcf,,,,,,,,,,,,,,,,,,,,,,,l,1,0.5505,"[""0.791"",""0.234"",""0.661"",""0.735""]","[0,1,1,1]",0,41,41,41,1,1,1,,,0,FALSE,,,,,,,,,,,,,,,,,,,,,,,,,,,,,,,
,5d3f34ea8d82dd0001e04247,627c6f9070ae6af1c85fa308,2022-05-11_21h23.25.248,classification_task,2021.2.3,MacIntel,59.97361161,627c6715c52fd12f31907bcf,,,,,,,,,,,,,,,,,,,,,,,l,0,1.2887,"[""0.317"",""0.790"",""0.933"",""0.973""]","[1,0,1,1]",0,42,42,42,1,0,0,,,0,FALSE,,,,,,,,,,,,,,,,,,,,,,,,,,,,,,,
,5d3f34ea8d82dd0001e04247,627c6f9070ae6af1c85fa308,2022-05-11_21h23.25.248,classification_task,2021.2.3,MacIntel,59.97361161,627c6715c52fd12f31907bcf,,,,,,,,,,,,,,,,,,,,,,,a,0,0.3506,"[""0.122"",""0.181"",""0.700"",""0.839""]","[1,1,0,1]",0,43,43,43,1,1,0,,,0,FALSE,,,,,,,,,,,,,,,,,,,,,,,,,,,,,,,
,5d3f34ea8d82dd0001e04247,627c6f9070ae6af1c85fa308,2022-05-11_21h23.25.248,classification_task,2021.2.3,MacIntel,59.97361161,627c6715c52fd12f31907bcf,,,,,,,,,,,,,,,,,,,,,,,a,0,1.1995,"[""0.077"",""0.778"",""0.661"",""0.735""]","[1,0,1,1]",0,44,44,44,1,1,1,,,0,FALSE,,,,,,,,,,,,,,,,,,,,,,,,,,,,,,,
,5d3f34ea8d82dd0001e04247,627c6f9070ae6af1c85fa308,2022-05-11_21h23.25.248,classification_task,2021.2.3,MacIntel,59.97361161,627c6715c52fd12f31907bcf,,,,,,,,,,,,,,,,,,,,,,,a,0,1.5671,"[""0.077"",""0.234"",""0.796"",""0.735""]","[1,1,0,1]",0,45,45,45,1,1,1,,,0,FALSE,,,,,,,,,,,,,,,,,,,,,,,,,,,,,,,
,5d3f34ea8d82dd0001e04247,627c6f9070ae6af1c85fa308,2022-05-11_21h23.25.248,classification_task,2021.2.3,MacIntel,59.97361161,627c6715c52fd12f31907bcf,,,,,,,,,,,,,,,,,,,,,,,a,0,0.6359,"[""0.122"",""0.351"",""0.448"",""0.839""]","[1,0,1,1]",0,46,46,46,1,1,0,,,0,FALSE,,,,,,,,,,,,,,,,,,,,,,,,,,,,,,,
,5d3f34ea8d82dd0001e04247,627c6f9070ae6af1c85fa308,2022-05-11_21h23.25.248,classification_task,2021.2.3,MacIntel,59.97361161,627c6715c52fd12f31907bcf,,,,,,,,,,,,,,,,,,,,,,,l,0,0.5714,"[""0.035"",""0.400"",""0.581"",""0.898""]","[0,1,1,1]",0,47,47,47,1,0,1,,,0,FALSE,,,,,,,,,,,,,,,,,,,,,,,,,,,,,,,
,5d3f34ea8d82dd0001e04247,627c6f9070ae6af1c85fa308,2022-05-11_21h23.25.248,classification_task,2021.2.3,MacIntel,59.97361161,627c6715c52fd12f31907bcf,,,,,,,,,,,,,,,,,,,,,,,l,0,0.6318,"[""0.030"",""0.502"",""0.933"",""0.973""]","[0,1,1,1]",0,48,48,48,1,0,0,,,0,FALSE,,,,,,,,,,,,,,,,,,,,,,,,,,,,,,,
,5d3f34ea8d82dd0001e04247,627c6f9070ae6af1c85fa308,2022-05-11_21h23.25.248,classification_task,2021.2.3,MacIntel,59.97361161,627c6715c52fd12f31907bcf,,,,,,,,,,,,,,,,,,,,,,,a,1,0.25,"[""0.270"",""0.400"",""0.581"",""0.028""]","[1,1,1,0]",0,49,49,49,1,0,1,,,0,FALSE,,,,,,,,,,,,,,,,,,,,,,,,,,,,,,,
,5d3f34ea8d82dd0001e04247,627c6f9070ae6af1c85fa308,2022-05-11_21h23.25.248,classification_task,2021.2.3,MacIntel,59.97361161,627c6715c52fd12f31907bcf,,,,,,,,,,,,,,,,,,,,,,,a,1,0.5354,"[""0.270"",""0.028"",""0.581"",""0.898""]","[1,0,1,1]",0,50,50,50,1,0,1,,,0,FALSE,,,,,,,,,,,,,,,,,,,,,,,,,,,,,,,
,5d3f34ea8d82dd0001e04247,627c6f9070ae6af1c85fa308,2022-05-11_21h23.25.248,classification_task,2021.2.3,MacIntel,59.97361161,627c6715c52fd12f31907bcf,,,,,,,,,,,,,,,,,,,,,,,a,1,0.6479,"[""0.317"",""0.502"",""0.933"",""0.790""]","[1,1,1,0]",0,51,51,51,1,0,0,,,0,FALSE,,,,,,,,,,,,,,,,,,,,,,,,,,,,,,,
,5d3f34ea8d82dd0001e04247,627c6f9070ae6af1c85fa308,2022-05-11_21h23.25.248,classification_task,2021.2.3,MacIntel,59.97361161,627c6715c52fd12f31907bcf,,,,,,,,,,,,,,,,,,,,,,,a,0,1.7332,"[""0.077"",""0.234"",""0.661"",""0.028""]","[1,1,1,0]",0,52,52,52,1,1,1,,,0,FALSE,,,,,,,,,,,,,,,,,,,,,,,,,,,,,,,
,5d3f34ea8d82dd0001e04247,627c6f9070ae6af1c85fa308,2022-05-11_21h23.25.248,classification_task,2021.2.3,MacIntel,59.97361161,627c6715c52fd12f31907bcf,,,,,,,,,,,,,,,,,,,,,,,l,0,1.1502,"[""0.317"",""0.796"",""0.933"",""0.973""]","[1,0,1,1]",0,53,53,53,1,0,0,,,0,FALSE,,,,,,,,,,,,,,,,,,,,,,,,,,,,,,,
,5d3f34ea8d82dd0001e04247,627c6f9070ae6af1c85fa308,2022-05-11_21h23.25.248,classification_task,2021.2.3,MacIntel,59.97361161,627c6715c52fd12f31907bcf,,,,,,,,,,,,,,,,,,,,,,,l,0,2.1039,"[""0.791"",""0.400"",""0.581"",""0.898""]","[0,1,1,1]",0,54,54,54,1,0,1,,,0,FALSE,,,,,,,,,,,,,,,,,,,,,,,,,,,,,,,
,5d3f34ea8d82dd0001e04247,627c6f9070ae6af1c85fa308,2022-05-11_21h23.25.248,classification_task,2021.2.3,MacIntel,59.97361161,627c6715c52fd12f31907bcf,,,,,,,,,,,,,,,,,,,,,,,a,0,1.4336,"[""0.122"",""0.776"",""0.448"",""0.839""]","[1,0,1,1]",0,55,55,55,1,1,0,,,0,FALSE,,,,,,,,,,,,,,,,,,,,,,,,,,,,,,,
,5d3f34ea8d82dd0001e04247,627c6f9070ae6af1c85fa308,2022-05-11_21h23.25.248,classification_task,2021.2.3,MacIntel,59.97361161,627c6715c52fd12f31907bcf,,,,,,,,,,,,,,,,,,,,,,,a,0,0.8454,"[""0.035"",""0.234"",""0.661"",""0.735""]","[0,1,1,1]",0,56,56,56,1,1,1,,,0,FALSE,,,,,,,,,,,,,,,,,,,,,,,,,,,,,,,
,5d3f34ea8d82dd0001e04247,627c6f9070ae6af1c85fa308,2022-05-11_21h23.25.248,classification_task,2021.2.3,MacIntel,59.97361161,627c6715c52fd12f31907bcf,,,,,,,,,,,,,,,,,,,,,,,a,1,0.0005,"[""0.317"",""0.502"",""0.035"",""0.973""]","[1,1,0,1]",0,57,57,57,1,0,0,,,0,FALSE,,,,,,,,,,,,,,,,,,,,,,,,,,,,,,,
,5d3f34ea8d82dd0001e04247,627c6f9070ae6af1c85fa308,2022-05-11_21h23.25.248,classification_task,2021.2.3,MacIntel,59.97361161,627c6715c52fd12f31907bcf,,,,,,,,,,,,,,,,,,,,,,,l,1,3.6103,"[""0.122"",""0.181"",""0.790"",""0.839""]","[1,1,0,1]",0,58,58,58,1,1,0,,,0,FALSE,,,,,,,,,,,,,,,,,,,,,,,,,,,,,,,
,5d3f34ea8d82dd0001e04247,627c6f9070ae6af1c85fa308,2022-05-11_21h23.25.248,classification_task,2021.2.3,MacIntel,59.97361161,627c6715c52fd12f31907bcf,,,,,,,,,,,,,,,,,,,,,,,a,0,1.7967,"[""0.077"",""0.234"",""0.028"",""0.735""]","[1,1,0,1]",0,59,59,59,1,1,1,,,0,FALSE,,,,,,,,,,,,,,,,,,,,,,,,,,,,,,,
,5d3f34ea8d82dd0001e04247,627c6f9070ae6af1c85fa308,2022-05-11_21h23.25.248,classification_task,2021.2.3,MacIntel,59.97361161,627c6715c52fd12f31907bcf,,,,,,,,,,,,,,,,,,,,,,,a,0,0.8786,"[""0.776"",""0.181"",""0.448"",""0.839""]","[0,1,1,1]",0,60,60,60,1,1,0,,,0,FALSE,,,,,,,,,,,,,,,,,,,,,,,,,,,,,,,
,5d3f34ea8d82dd0001e04247,627c6f9070ae6af1c85fa308,2022-05-11_21h23.25.248,classification_task,2021.2.3,MacIntel,59.97361161,627c6715c52fd12f31907bcf,,,,,,,,,,,,,,,,,,,,,,,l,1,0.4031,"[""0.122"",""0.181"",""0.448"",""0.796""]","[1,1,1,0]",0,61,61,61,1,1,0,,,0,FALSE,,,,,,,,,,,,,,,,,,,,,,,,,,,,,,,
,5d3f34ea8d82dd0001e04247,627c6f9070ae6af1c85fa308,2022-05-11_21h23.25.248,classification_task,2021.2.3,MacIntel,59.97361161,627c6715c52fd12f31907bcf,,,,,,,,,,,,,,,,,,,,,,,l,0,0.5981,"[""0.270"",""0.400"",""0.352"",""0.898""]","[1,1,0,1]",0,62,62,62,1,0,1,,,0,FALSE,,,,,,,,,,,,,,,,,,,,,,,,,,,,,,,
,5d3f34ea8d82dd0001e04247,627c6f9070ae6af1c85fa308,2022-05-11_21h23.25.248,classification_task,2021.2.3,MacIntel,59.97361161,627c6715c52fd12f31907bcf,,,,,,,,,,,,,,,,,,,,,,,a,0,0.6502,"[""0.077"",""0.028"",""0.661"",""0.735""]","[1,0,1,1]",0,63,63,63,1,1,1,,,0,FALSE,,,,,,,,,,,,,,,,,,,,,,,,,,,,,,,
,5d3f34ea8d82dd0001e04247,627c6f9070ae6af1c85fa308,2022-05-11_21h23.25.248,classification_task,2021.2.3,MacIntel,59.97361161,627c6715c52fd12f31907bcf,,,,,,,,,,,,,,,,,,,,,,,,,,,,,,,,,,,,,,,0, ,,0,2.103960616,404.4893,0,0,0,0,1,2,1,,,,,,,,,,,,,,,,,,
,5d3f34ea8d82dd0001e04247,627c6f9070ae6af1c85fa308,2022-05-11_21h23.25.248,classification_task,2021.2.3,MacIntel,59.97361161,627c6715c52fd12f31907bcf,,,,,,,,,,,,,,,,,,,,,,,,,,,,,,,,,,,,,,,1,  ,,0,4.887991384,406.8885,0,0,0,0,1,2,1,,,,,,,,,,,,,,,,,,
,5d3f34ea8d82dd0001e04247,627c6f9070ae6af1c85fa308,2022-05-11_21h23.25.248,classification_task,2021.2.3,MacIntel,59.97361161,627c6715c52fd12f31907bcf,,,,,,,,,,,,,,,,,,,,,,,,,,,,,,,,,,,,,,,2,  ,,0,0,410.2343,0,0,0,0,1,2,1,,,,,,,,,,,,,,,,,,
,5d3f34ea8d82dd0001e04247,627c6f9070ae6af1c85fa308,2022-05-11_21h23.25.248,classification_task,2021.2.3,MacIntel,59.97361161,627c6715c52fd12f31907bcf,,,,,,,,,,,,,,,,,,,,,,,,,,,,,,,,,,,,,,,,,,,,,0,0,0,0,1,,1,,,,,,,,,,,,,,,,,,
,5d3f34ea8d82dd0001e04247,627c6f9070ae6af1c85fa308,2022-05-11_21h23.25.248,classification_task,2021.2.3,MacIntel,59.97361161,627c6715c52fd12f31907bcf,,,,,,,,,,,,,,,,,,,,,space,6.35,l,0,3.3199,"[""0.791"",""0.400"",""0.581"",""0.898""]","[0,1,1,1]",0,0,0,0,1,0,1,,,0,FALSE,,,,,,,,,,,,,,,,,,,,,,,,,,,,,,,
,5d3f34ea8d82dd0001e04247,627c6f9070ae6af1c85fa308,2022-05-11_21h23.25.248,classification_task,2021.2.3,MacIntel,59.97361161,627c6715c52fd12f31907bcf,,,,,,,,,,,,,,,,,,,,,,,l,1,0.9792,"[""0.122"",""0.181"",""0.776"",""0.839""]","[1,1,0,1]",0,1,1,1,1,1,0,,,0,FALSE,,,,,,,,,,,,,,,,,,,,,,,,,,,,,,,
,5d3f34ea8d82dd0001e04247,627c6f9070ae6af1c85fa308,2022-05-11_21h23.25.248,classification_task,2021.2.3,MacIntel,59.97361161,627c6715c52fd12f31907bcf,,,,,,,,,,,,,,,,,,,,,,,a,1,0.605,"[""0.317"",""0.502"",""0.776"",""0.973""]","[1,1,0,1]",0,2,2,2,1,0,0,,,0,FALSE,,,,,,,,,,,,,,,,,,,,,,,,,,,,,,,
,5d3f34ea8d82dd0001e04247,627c6f9070ae6af1c85fa308,2022-05-11_21h23.25.248,classification_task,2021.2.3,MacIntel,59.97361161,627c6715c52fd12f31907bcf,,,,,,,,,,,,,,,,,,,,,,,a,0,0.6768,"[""0.122"",""0.700"",""0.448"",""0.839""]","[1,0,1,1]",0,3,3,3,1,1,0,,,0,FALSE,,,,,,,,,,,,,,,,,,,,,,,,,,,,,,,
,5d3f34ea8d82dd0001e04247,627c6f9070ae6af1c85fa308,2022-05-11_21h23.25.248,classification_task,2021.2.3,MacIntel,59.97361161,627c6715c52fd12f31907bcf,,,,,,,,,,,,,,,,,,,,,,,a,0,0.9333,"[""0.077"",""0.794"",""0.661"",""0.735""]","[1,0,1,1]",0,4,4,4,1,1,1,,,0,FALSE,,,,,,,,,,,,,,,,,,,,,,,,,,,,,,,
,5d3f34ea8d82dd0001e04247,627c6f9070ae6af1c85fa308,2022-05-11_21h23.25.248,classification_task,2021.2.3,MacIntel,59.97361161,627c6715c52fd12f31907bcf,,,,,,,,,,,,,,,,,,,,,,,l,0,0.6501,"[""0.270"",""0.400"",""0.581"",""0.790""]","[1,1,1,0]",0,5,5,5,1,0,1,,,0,FALSE,,,,,,,,,,,,,,,,,,,,,,,,,,,,,,,
,5d3f34ea8d82dd0001e04247,627c6f9070ae6af1c85fa308,2022-05-11_21h23.25.248,classification_task,2021.2.3,MacIntel,59.97361161,627c6715c52fd12f31907bcf,,,,,,,,,,,,,,,,,,,,,,,l,0,0.8018,"[""0.270"",""0.400"",""0.778"",""0.898""]","[1,1,0,1]",0,6,6,6,1,0,1,,,0,FALSE,,,,,,,,,,,,,,,,,,,,,,,,,,,,,,,
,5d3f34ea8d82dd0001e04247,627c6f9070ae6af1c85fa308,2022-05-11_21h23.25.248,classification_task,2021.2.3,MacIntel,59.97361161,627c6715c52fd12f31907bcf,,,,,,,,,,,,,,,,,,,,,,,a,1,0.8163,"[""0.317"",""0.030"",""0.933"",""0.973""]","[1,0,1,1]",0,7,7,7,1,0,0,,,0,FALSE,,,,,,,,,,,,,,,,,,,,,,,,,,,,,,,
,5d3f34ea8d82dd0001e04247,627c6f9070ae6af1c85fa308,2022-05-11_21h23.25.248,classification_task,2021.2.3,MacIntel,59.97361161,627c6715c52fd12f31907bcf,,,,,,,,,,,,,,,,,,,,,,,a,0,0.924,"[""0.077"",""0.234"",""0.619"",""0.735""]","[1,1,0,1]",0,8,8,8,1,1,1,,,0,FALSE,,,,,,,,,,,,,,,,,,,,,,,,,,,,,,,
,5d3f34ea8d82dd0001e04247,627c6f9070ae6af1c85fa308,2022-05-11_21h23.25.248,classification_task,2021.2.3,MacIntel,59.97361161,627c6715c52fd12f31907bcf,,,,,,,,,,,,,,,,,,,,,,,l,0,0.5506,"[""0.270"",""0.776"",""0.581"",""0.898""]","[1,0,1,1]",0,9,9,9,1,0,1,,,0,FALSE,,,,,,,,,,,,,,,,,,,,,,,,,,,,,,,
,5d3f34ea8d82dd0001e04247,627c6f9070ae6af1c85fa308,2022-05-11_21h23.25.248,classification_task,2021.2.3,MacIntel,59.97361161,627c6715c52fd12f31907bcf,,,,,,,,,,,,,,,,,,,,,,,a,1,1.3982,"[""0.790"",""0.502"",""0.933"",""0.973""]","[0,1,1,1]",0,10,10,10,1,0,0,,,0,FALSE,,,,,,,,,,,,,,,,,,,,,,,,,,,,,,,
,5d3f34ea8d82dd0001e04247,627c6f9070ae6af1c85fa308,2022-05-11_21h23.25.248,classification_task,2021.2.3,MacIntel,59.97361161,627c6715c52fd12f31907bcf,,,,,,,,,,,,,,,,,,,,,,,a,1,0.6288,"[""0.317"",""0.502"",""0.933"",""0.796""]","[1,1,1,0]",0,11,11,11,1,0,0,,,0,FALSE,,,,,,,,,,,,,,,,,,,,,,,,,,,,,,,
,5d3f34ea8d82dd0001e04247,627c6f9070ae6af1c85fa308,2022-05-11_21h23.25.248,classification_task,2021.2.3,MacIntel,59.97361161,627c6715c52fd12f31907bcf,,,,,,,,,,,,,,,,,,,,,,,a,0,1.0155,"[""0.794"",""0.234"",""0.661"",""0.735""]","[0,1,1,1]",0,12,12,12,1,1,1,,,0,FALSE,,,,,,,,,,,,,,,,,,,,,,,,,,,,,,,
,5d3f34ea8d82dd0001e04247,627c6f9070ae6af1c85fa308,2022-05-11_21h23.25.248,classification_task,2021.2.3,MacIntel,59.97361161,627c6715c52fd12f31907bcf,,,,,,,,,,,,,,,,,,,,,,,l,1,0.6982,"[""0.796"",""0.181"",""0.448"",""0.839""]","[0,1,1,1]",0,13,13,13,1,1,0,,,0,FALSE,,,,,,,,,,,,,,,,,,,,,,,,,,,,,,,
,5d3f34ea8d82dd0001e04247,627c6f9070ae6af1c85fa308,2022-05-11_21h23.25.248,classification_task,2021.2.3,MacIntel,59.97361161,627c6715c52fd12f31907bcf,,,,,,,,,,,,,,,,,,,,,,,a,0,0.9087,"[""0.077"",""0.234"",""0.661"",""0.791""]","[1,1,1,0]",0,14,14,14,1,1,1,,,0,FALSE,,,,,,,,,,,,,,,,,,,,,,,,,,,,,,,
,5d3f34ea8d82dd0001e04247,627c6f9070ae6af1c85fa308,2022-05-11_21h23.25.248,classification_task,2021.2.3,MacIntel,59.97361161,627c6715c52fd12f31907bcf,,,,,,,,,,,,,,,,,,,,,,,l,1,0.9051,"[""0.122"",""0.181"",""0.448"",""0.028""]","[1,1,1,0]",0,15,15,15,1,1,0,,,0,FALSE,,,,,,,,,,,,,,,,,,,,,,,,,,,,,,,
,5d3f34ea8d82dd0001e04247,627c6f9070ae6af1c85fa308,2022-05-11_21h23.25.248,classification_task,2021.2.3,MacIntel,59.97361161,627c6715c52fd12f31907bcf,,,,,,,,,,,,,,,,,,,,,,,l,0,0.8525,"[""0.270"",""0.796"",""0.581"",""0.898""]","[1,0,1,1]",0,16,16,16,1,0,1,,,0,FALSE,,,,,,,,,,,,,,,,,,,,,,,,,,,,,,,
,5d3f34ea8d82dd0001e04247,627c6f9070ae6af1c85fa308,2022-05-11_21h23.25.248,classification_task,2021.2.3,MacIntel,59.97361161,627c6715c52fd12f31907bcf,,,,,,,,,,,,,,,,,,,,,,,a,0,0.9906,"[""0.077"",""0.234"",""0.661"",""0.790""]","[1,1,1,0]",0,17,17,17,1,1,1,,,0,FALSE,,,,,,,,,,,,,,,,,,,,,,,,,,,,,,,
,5d3f34ea8d82dd0001e04247,627c6f9070ae6af1c85fa308,2022-05-11_21h23.25.248,classification_task,2021.2.3,MacIntel,59.97361161,627c6715c52fd12f31907bcf,,,,,,,,,,,,,,,,,,,,,,,a,0,0.8193,"[""0.077"",""0.790"",""0.661"",""0.735""]","[1,0,1,1]",0,18,18,18,1,1,1,,,0,FALSE,,,,,,,,,,,,,,,,,,,,,,,,,,,,,,,
,5d3f34ea8d82dd0001e04247,627c6f9070ae6af1c85fa308,2022-05-11_21h23.25.248,classification_task,2021.2.3,MacIntel,59.97361161,627c6715c52fd12f31907bcf,,,,,,,,,,,,,,,,,,,,,,,a,1,0.9746,"[""0.317"",""0.791"",""0.933"",""0.973""]","[1,0,1,1]",0,19,19,19,1,0,0,,,0,FALSE,,,,,,,,,,,,,,,,,,,,,,,,,,,,,,,
,5d3f34ea8d82dd0001e04247,627c6f9070ae6af1c85fa308,2022-05-11_21h23.25.248,classification_task,2021.2.3,MacIntel,59.97361161,627c6715c52fd12f31907bcf,,,,,,,,,,,,,,,,,,,,,,,l,1,0.6782,"[""0.122"",""0.352"",""0.448"",""0.839""]","[1,0,1,1]",0,20,20,20,1,1,0,,,0,FALSE,,,,,,,,,,,,,,,,,,,,,,,,,,,,,,,
,5d3f34ea8d82dd0001e04247,627c6f9070ae6af1c85fa308,2022-05-11_21h23.25.248,classification_task,2021.2.3,MacIntel,59.97361161,627c6715c52fd12f31907bcf,,,,,,,,,,,,,,,,,,,,,,,a,1,0.7775,"[""0.035"",""0.502"",""0.933"",""0.973""]","[0,1,1,1]",0,21,21,21,1,0,0,,,0,FALSE,,,,,,,,,,,,,,,,,,,,,,,,,,,,,,,
,5d3f34ea8d82dd0001e04247,627c6f9070ae6af1c85fa308,2022-05-11_21h23.25.248,classification_task,2021.2.3,MacIntel,59.97361161,627c6715c52fd12f31907bcf,,,,,,,,,,,,,,,,,,,,,,,l,1,0.7013,"[""0.122"",""0.181"",""0.790"",""0.839""]","[1,1,0,1]",0,22,22,22,1,1,0,,,0,FALSE,,,,,,,,,,,,,,,,,,,,,,,,,,,,,,,
,5d3f34ea8d82dd0001e04247,627c6f9070ae6af1c85fa308,2022-05-11_21h23.25.248,classification_task,2021.2.3,MacIntel,59.97361161,627c6715c52fd12f31907bcf,,,,,,,,,,,,,,,,,,,,,,,l,1,0.6526,"[""0.122"",""0.181"",""0.448"",""0.778""]","[1,1,1,0]",0,23,23,23,1,1,0,,,0,FALSE,,,,,,,,,,,,,,,,,,,,,,,,,,,,,,,
,5d3f34ea8d82dd0001e04247,627c6f9070ae6af1c85fa308,2022-05-11_21h23.25.248,classification_task,2021.2.3,MacIntel,59.97361161,627c6715c52fd12f31907bcf,,,,,,,,,,,,,,,,,,,,,,,a,1,0.6032,"[""0.317"",""0.502"",""0.776"",""0.973""]","[1,1,0,1]",0,24,24,24,1,0,0,,,0,FALSE,,,,,,,,,,,,,,,,,,,,,,,,,,,,,,,
,5d3f34ea8d82dd0001e04247,627c6f9070ae6af1c85fa308,2022-05-11_21h23.25.248,classification_task,2021.2.3,MacIntel,59.97361161,627c6715c52fd12f31907bcf,,,,,,,,,,,,,,,,,,,,,,,a,1,1.9754,"[""0.270"",""0.400"",""0.543"",""0.898""]","[1,1,0,1]",0,25,25,25,1,0,1,,,0,FALSE,,,,,,,,,,,,,,,,,,,,,,,,,,,,,,,
,5d3f34ea8d82dd0001e04247,627c6f9070ae6af1c85fa308,2022-05-11_21h23.25.248,classification_task,2021.2.3,MacIntel,59.97361161,627c6715c52fd12f31907bcf,,,,,,,,,,,,,,,,,,,,,,,l,1,0.6517,"[""0.700"",""0.181"",""0.448"",""0.839""]","[0,1,1,1]",0,26,26,26,1,1,0,,,0,FALSE,,,,,,,,,,,,,,,,,,,,,,,,,,,,,,,
,5d3f34ea8d82dd0001e04247,627c6f9070ae6af1c85fa308,2022-05-11_21h23.25.248,classification_task,2021.2.3,MacIntel,59.97361161,627c6715c52fd12f31907bcf,,,,,,,,,,,,,,,,,,,,,,,l,0,0.6973,"[""0.270"",""0.400"",""0.581"",""0.790""]","[1,1,1,0]",0,27,27,27,1,0,1,,,0,FALSE,,,,,,,,,,,,,,,,,,,,,,,,,,,,,,,
,5d3f34ea8d82dd0001e04247,627c6f9070ae6af1c85fa308,2022-05-11_21h23.25.248,classification_task,2021.2.3,MacIntel,59.97361161,627c6715c52fd12f31907bcf,,,,,,,,,,,,,,,,,,,,,,,a,1,0.8352,"[""0.796"",""0.400"",""0.581"",""0.898""]","[0,1,1,1]",0,28,28,28,1,0,1,,,0,FALSE,,,,,,,,,,,,,,,,,,,,,,,,,,,,,,,
,5d3f34ea8d82dd0001e04247,627c6f9070ae6af1c85fa308,2022-05-11_21h23.25.248,classification_task,2021.2.3,MacIntel,59.97361161,627c6715c52fd12f31907bcf,,,,,,,,,,,,,,,,,,,,,,,l,1,1.0853,"[""0.700"",""0.234"",""0.661"",""0.735""]","[0,1,1,1]",0,29,29,29,1,1,1,,,0,FALSE,,,,,,,,,,,,,,,,,,,,,,,,,,,,,,,
,5d3f34ea8d82dd0001e04247,627c6f9070ae6af1c85fa308,2022-05-11_21h23.25.248,classification_task,2021.2.3,MacIntel,59.97361161,627c6715c52fd12f31907bcf,,,,,,,,,,,,,,,,,,,,,,,a,1,0.6906,"[""0.317"",""0.502"",""0.933"",""0.794""]","[1,1,1,0]",0,30,30,30,1,0,0,,,0,FALSE,,,,,,,,,,,,,,,,,,,,,,,,,,,,,,,
,5d3f34ea8d82dd0001e04247,627c6f9070ae6af1c85fa308,2022-05-11_21h23.25.248,classification_task,2021.2.3,MacIntel,59.97361161,627c6715c52fd12f31907bcf,,,,,,,,,,,,,,,,,,,,,,,l,1,1.1875,"[""0.077"",""0.234"",""0.700"",""0.735""]","[1,1,0,1]",0,31,31,31,1,1,1,,,0,FALSE,,,,,,,,,,,,,,,,,,,,,,,,,,,,,,,
,5d3f34ea8d82dd0001e04247,627c6f9070ae6af1c85fa308,2022-05-11_21h23.25.248,classification_task,2021.2.3,MacIntel,59.97361161,627c6715c52fd12f31907bcf,,,,,,,,,,,,,,,,,,,,,,,a,0,0.9964,"[""0.619"",""0.234"",""0.661"",""0.735""]","[0,1,1,1]",0,32,32,32,1,1,1,,,0,FALSE,,,,,,,,,,,,,,,,,,,,,,,,,,,,,,,
,5d3f34ea8d82dd0001e04247,627c6f9070ae6af1c85fa308,2022-05-11_21h23.25.248,classification_task,2021.2.3,MacIntel,59.97361161,627c6715c52fd12f31907bcf,,,,,,,,,,,,,,,,,,,,,,,a,1,0.9845,"[""0.317"",""0.502"",""0.933"",""0.351""]","[1,1,1,0]",0,33,33,33,1,0,0,,,0,FALSE,,,,,,,,,,,,,,,,,,,,,,,,,,,,,,,
,5d3f34ea8d82dd0001e04247,627c6f9070ae6af1c85fa308,2022-05-11_21h23.25.248,classification_task,2021.2.3,MacIntel,59.97361161,627c6715c52fd12f31907bcf,,,,,,,,,,,,,,,,,,,,,,,l,1,0.6413,"[""0.776"",""0.181"",""0.448"",""0.839""]","[0,1,1,1]",0,34,34,34,1,1,0,,,0,FALSE,,,,,,,,,,,,,,,,,,,,,,,,,,,,,,,
,5d3f34ea8d82dd0001e04247,627c6f9070ae6af1c85fa308,2022-05-11_21h23.25.248,classification_task,2021.2.3,MacIntel,59.97361161,627c6715c52fd12f31907bcf,,,,,,,,,,,,,,,,,,,,,,,l,1,1.0075,"[""0.122"",""0.790"",""0.448"",""0.839""]","[1,0,1,1]",0,35,35,35,1,1,0,,,0,FALSE,,,,,,,,,,,,,,,,,,,,,,,,,,,,,,,
,5d3f34ea8d82dd0001e04247,627c6f9070ae6af1c85fa308,2022-05-11_21h23.25.248,classification_task,2021.2.3,MacIntel,59.97361161,627c6715c52fd12f31907bcf,,,,,,,,,,,,,,,,,,,,,,,a,1,0.6947,"[""0.317"",""0.790"",""0.933"",""0.973""]","[1,0,1,1]",0,36,36,36,1,0,0,,,0,FALSE,,,,,,,,,,,,,,,,,,,,,,,,,,,,,,,
,5d3f34ea8d82dd0001e04247,627c6f9070ae6af1c85fa308,2022-05-11_21h23.25.248,classification_task,2021.2.3,MacIntel,59.97361161,627c6715c52fd12f31907bcf,,,,,,,,,,,,,,,,,,,,,,,l,1,1.3337,"[""0.077"",""0.790"",""0.661"",""0.735""]","[1,0,1,1]",0,37,37,37,1,1,1,,,0,FALSE,,,,,,,,,,,,,,,,,,,,,,,,,,,,,,,
,5d3f34ea8d82dd0001e04247,627c6f9070ae6af1c85fa308,2022-05-11_21h23.25.248,classification_task,2021.2.3,MacIntel,59.97361161,627c6715c52fd12f31907bcf,,,,,,,,,,,,,,,,,,,,,,,a,1,0.7527,"[""0.619"",""0.502"",""0.933"",""0.973""]","[0,1,1,1]",0,38,38,38,1,0,0,,,0,FALSE,,,,,,,,,,,,,,,,,,,,,,,,,,,,,,,
,5d3f34ea8d82dd0001e04247,627c6f9070ae6af1c85fa308,2022-05-11_21h23.25.248,classification_task,2021.2.3,MacIntel,59.97361161,627c6715c52fd12f31907bcf,,,,,,,,,,,,,,,,,,,,,,,l,0,0.9711,"[""0.790"",""0.400"",""0.581"",""0.898""]","[0,1,1,1]",0,39,39,39,1,0,1,,,0,FALSE,,,,,,,,,,,,,,,,,,,,,,,,,,,,,,,
,5d3f34ea8d82dd0001e04247,627c6f9070ae6af1c85fa308,2022-05-11_21h23.25.248,classification_task,2021.2.3,MacIntel,59.97361161,627c6715c52fd12f31907bcf,,,,,,,,,,,,,,,,,,,,,,,l,1,0.9441,"[""0.077"",""0.234"",""0.778"",""0.735""]","[1,1,0,1]",0,40,40,40,1,1,1,,,0,FALSE,,,,,,,,,,,,,,,,,,,,,,,,,,,,,,,
,5d3f34ea8d82dd0001e04247,627c6f9070ae6af1c85fa308,2022-05-11_21h23.25.248,classification_task,2021.2.3,MacIntel,59.97361161,627c6715c52fd12f31907bcf,,,,,,,,,,,,,,,,,,,,,,,l,1,1.1195,"[""0.122"",""0.181"",""0.448"",""0.028""]","[1,1,1,0]",0,41,41,41,1,1,0,,,0,FALSE,,,,,,,,,,,,,,,,,,,,,,,,,,,,,,,
,5d3f34ea8d82dd0001e04247,627c6f9070ae6af1c85fa308,2022-05-11_21h23.25.248,classification_task,2021.2.3,MacIntel,59.97361161,627c6715c52fd12f31907bcf,,,,,,,,,,,,,,,,,,,,,,,a,0,0.8105,"[""0.077"",""0.234"",""0.661"",""0.791""]","[1,1,1,0]",0,42,42,42,1,1,1,,,0,FALSE,,,,,,,,,,,,,,,,,,,,,,,,,,,,,,,
,5d3f34ea8d82dd0001e04247,627c6f9070ae6af1c85fa308,2022-05-11_21h23.25.248,classification_task,2021.2.3,MacIntel,59.97361161,627c6715c52fd12f31907bcf,,,,,,,,,,,,,,,,,,,,,,,a,1,1.1887,"[""0.317"",""0.502"",""0.791"",""0.973""]","[1,1,0,1]",0,43,43,43,1,0,0,,,0,FALSE,,,,,,,,,,,,,,,,,,,,,,,,,,,,,,,
,5d3f34ea8d82dd0001e04247,627c6f9070ae6af1c85fa308,2022-05-11_21h23.25.248,classification_task,2021.2.3,MacIntel,59.97361161,627c6715c52fd12f31907bcf,,,,,,,,,,,,,,,,,,,,,,,l,1,0.7004,"[""0.122"",""0.181"",""0.790"",""0.839""]","[1,1,0,1]",0,44,44,44,1,1,0,,,0,FALSE,,,,,,,,,,,,,,,,,,,,,,,,,,,,,,,
,5d3f34ea8d82dd0001e04247,627c6f9070ae6af1c85fa308,2022-05-11_21h23.25.248,classification_task,2021.2.3,MacIntel,59.97361161,627c6715c52fd12f31907bcf,,,,,,,,,,,,,,,,,,,,,,,l,0,0.7142,"[""0.270"",""0.778"",""0.581"",""0.898""]","[1,0,1,1]",0,45,45,45,1,0,1,,,0,FALSE,,,,,,,,,,,,,,,,,,,,,,,,,,,,,,,
,5d3f34ea8d82dd0001e04247,627c6f9070ae6af1c85fa308,2022-05-11_21h23.25.248,classification_task,2021.2.3,MacIntel,59.97361161,627c6715c52fd12f31907bcf,,,,,,,,,,,,,,,,,,,,,,,a,1,0.6777,"[""0.270"",""0.400"",""0.794"",""0.898""]","[1,1,0,1]",0,46,46,46,1,0,1,,,0,FALSE,,,,,,,,,,,,,,,,,,,,,,,,,,,,,,,
,5d3f34ea8d82dd0001e04247,627c6f9070ae6af1c85fa308,2022-05-11_21h23.25.248,classification_task,2021.2.3,MacIntel,59.97361161,627c6715c52fd12f31907bcf,,,,,,,,,,,,,,,,,,,,,,,a,1,0.6847,"[""0.270"",""0.400"",""0.581"",""0.790""]","[1,1,1,0]",0,47,47,47,1,0,1,,,0,FALSE,,,,,,,,,,,,,,,,,,,,,,,,,,,,,,,
,5d3f34ea8d82dd0001e04247,627c6f9070ae6af1c85fa308,2022-05-11_21h23.25.248,classification_task,2021.2.3,MacIntel,59.97361161,627c6715c52fd12f31907bcf,,,,,,,,,,,,,,,,,,,,,,,l,1,0.5615,"[""0.790"",""0.181"",""0.448"",""0.839""]","[0,1,1,1]",0,48,48,48,1,1,0,,,0,FALSE,,,,,,,,,,,,,,,,,,,,,,,,,,,,,,,
,5d3f34ea8d82dd0001e04247,627c6f9070ae6af1c85fa308,2022-05-11_21h23.25.248,classification_task,2021.2.3,MacIntel,59.97361161,627c6715c52fd12f31907bcf,,,,,,,,,,,,,,,,,,,,,,,l,1,0.7732,"[""0.077"",""0.234"",""0.351"",""0.735""]","[1,1,0,1]",0,49,49,49,1,1,1,,,0,FALSE,,,,,,,,,,,,,,,,,,,,,,,,,,,,,,,
,5d3f34ea8d82dd0001e04247,627c6f9070ae6af1c85fa308,2022-05-11_21h23.25.248,classification_task,2021.2.3,MacIntel,59.97361161,627c6715c52fd12f31907bcf,,,,,,,,,,,,,,,,,,,,,,,l,1,0.4496,"[""0.077"",""0.790"",""0.661"",""0.735""]","[1,0,1,1]",0,50,50,50,1,1,1,,,0,FALSE,,,,,,,,,,,,,,,,,,,,,,,,,,,,,,,
,5d3f34ea8d82dd0001e04247,627c6f9070ae6af1c85fa308,2022-05-11_21h23.25.248,classification_task,2021.2.3,MacIntel,59.97361161,627c6715c52fd12f31907bcf,,,,,,,,,,,,,,,,,,,,,,,l,0,0.5033,"[""0.543"",""0.400"",""0.581"",""0.898""]","[0,1,1,1]",0,51,51,51,1,0,1,,,0,FALSE,,,,,,,,,,,,,,,,,,,,,,,,,,,,,,,
,5d3f34ea8d82dd0001e04247,627c6f9070ae6af1c85fa308,2022-05-11_21h23.25.248,classification_task,2021.2.3,MacIntel,59.97361161,627c6715c52fd12f31907bcf,,,,,,,,,,,,,,,,,,,,,,,l,1,0.5656,"[""0.122"",""0.181"",""0.448"",""0.791""]","[1,1,1,0]",0,52,52,52,1,1,0,,,0,FALSE,,,,,,,,,,,,,,,,,,,,,,,,,,,,,,,
,5d3f34ea8d82dd0001e04247,627c6f9070ae6af1c85fa308,2022-05-11_21h23.25.248,classification_task,2021.2.3,MacIntel,59.97361161,627c6715c52fd12f31907bcf,,,,,,,,,,,,,,,,,,,,,,,l,1,0.635,"[""0.122"",""0.181"",""0.794"",""0.839""]","[1,1,0,1]",0,53,53,53,1,1,0,,,0,FALSE,,,,,,,,,,,,,,,,,,,,,,,,,,,,,,,
,5d3f34ea8d82dd0001e04247,627c6f9070ae6af1c85fa308,2022-05-11_21h23.25.248,classification_task,2021.2.3,MacIntel,59.97361161,627c6715c52fd12f31907bcf,,,,,,,,,,,,,,,,,,,,,,,a,1,0.493,"[""0.317"",""0.700"",""0.933"",""0.973""]","[1,0,1,1]",0,54,54,54,1,0,0,,,0,FALSE,,,,,,,,,,,,,,,,,,,,,,,,,,,,,,,
,5d3f34ea8d82dd0001e04247,627c6f9070ae6af1c85fa308,2022-05-11_21h23.25.248,classification_task,2021.2.3,MacIntel,59.97361161,627c6715c52fd12f31907bcf,,,,,,,,,,,,,,,,,,,,,,,a,1,0.4312,"[""0.776"",""0.502"",""0.933"",""0.973""]","[0,1,1,1]",0,55,55,55,1,0,0,,,0,FALSE,,,,,,,,,,,,,,,,,,,,,,,,,,,,,,,
,5d3f34ea8d82dd0001e04247,627c6f9070ae6af1c85fa308,2022-05-11_21h23.25.248,classification_task,2021.2.3,MacIntel,59.97361161,627c6715c52fd12f31907bcf,,,,,,,,,,,,,,,,,,,,,,,a,0,0.7754,"[""0.077"",""0.234"",""0.661"",""0.700""]","[1,1,1,0]",0,56,56,56,1,1,1,,,0,FALSE,,,,,,,,,,,,,,,,,,,,,,,,,,,,,,,
,5d3f34ea8d82dd0001e04247,627c6f9070ae6af1c85fa308,2022-05-11_21h23.25.248,classification_task,2021.2.3,MacIntel,59.97361161,627c6715c52fd12f31907bcf,,,,,,,,,,,,,,,,,,,,,,,a,0,0.6857,"[""0.122"",""0.352"",""0.448"",""0.839""]","[1,0,1,1]",0,57,57,57,1,1,0,,,0,FALSE,,,,,,,,,,,,,,,,,,,,,,,,,,,,,,,
,5d3f34ea8d82dd0001e04247,627c6f9070ae6af1c85fa308,2022-05-11_21h23.25.248,classification_task,2021.2.3,MacIntel,59.97361161,627c6715c52fd12f31907bcf,,,,,,,,,,,,,,,,,,,,,,,l,0,0.9079,"[""0.270"",""0.400"",""0.581"",""0.035""]","[1,1,1,0]",0,58,58,58,1,0,1,,,0,FALSE,,,,,,,,,,,,,,,,,,,,,,,,,,,,,,,
,5d3f34ea8d82dd0001e04247,627c6f9070ae6af1c85fa308,2022-05-11_21h23.25.248,classification_task,2021.2.3,MacIntel,59.97361161,627c6715c52fd12f31907bcf,,,,,,,,,,,,,,,,,,,,,,,l,0,0.4678,"[""0.270"",""0.400"",""0.035"",""0.898""]","[1,1,0,1]",0,59,59,59,1,0,1,,,0,FALSE,,,,,,,,,,,,,,,,,,,,,,,,,,,,,,,
,5d3f34ea8d82dd0001e04247,627c6f9070ae6af1c85fa308,2022-05-11_21h23.25.248,classification_task,2021.2.3,MacIntel,59.97361161,627c6715c52fd12f31907bcf,,,,,,,,,,,,,,,,,,,,,,,a,0,0.3818,"[""0.543"",""0.234"",""0.661"",""0.735""]","[0,1,1,1]",0,60,60,60,1,1,1,,,0,FALSE,,,,,,,,,,,,,,,,,,,,,,,,,,,,,,,
,5d3f34ea8d82dd0001e04247,627c6f9070ae6af1c85fa308,2022-05-11_21h23.25.248,classification_task,2021.2.3,MacIntel,59.97361161,627c6715c52fd12f31907bcf,,,,,,,,,,,,,,,,,,,,,,,a,1,0.4274,"[""0.317"",""0.502"",""0.700"",""0.973""]","[1,1,0,1]",0,61,61,61,1,0,0,,,0,FALSE,,,,,,,,,,,,,,,,,,,,,,,,,,,,,,,
,5d3f34ea8d82dd0001e04247,627c6f9070ae6af1c85fa308,2022-05-11_21h23.25.248,classification_task,2021.2.3,MacIntel,59.97361161,627c6715c52fd12f31907bcf,,,,,,,,,,,,,,,,,,,,,,,a,1,0.7198,"[""0.317"",""0.502"",""0.933"",""0.028""]","[1,1,1,0]",0,62,62,62,1,0,0,,,0,FALSE,,,,,,,,,,,,,,,,,,,,,,,,,,,,,,,
,5d3f34ea8d82dd0001e04247,627c6f9070ae6af1c85fa308,2022-05-11_21h23.25.248,classification_task,2021.2.3,MacIntel,59.97361161,627c6715c52fd12f31907bcf,,,,,,,,,,,,,,,,,,,,,,,l,0,0.8008,"[""0.270"",""0.776"",""0.581"",""0.898""]","[1,0,1,1]",0,63,63,63,1,0,1,,,0,FALSE,,,,,,,,,,,,,,,,,,,,,,,,,,,,,,,
,5d3f34ea8d82dd0001e04247,627c6f9070ae6af1c85fa308,2022-05-11_21h23.25.248,classification_task,2021.2.3,MacIntel,59.97361161,627c6715c52fd12f31907bcf,,,,,,,,,,,,,,,,,,,,,,,,,,,,,,,,,,,,,,,0, ,,0,5.422565946,160.1331,0,1,1,1,1,2,2,,,,,,,,,,,,,,,,,,
,5d3f34ea8d82dd0001e04247,627c6f9070ae6af1c85fa308,2022-05-11_21h23.25.248,classification_task,2021.2.3,MacIntel,59.97361161,627c6715c52fd12f31907bcf,,,,,,,,,,,,,,,,,,,,,,,,,,,,,,,,,,,,,,,1,  ,,0,9.679108782,163.1033,0,1,1,1,1,2,2,,,,,,,,,,,,,,,,,,
,5d3f34ea8d82dd0001e04247,627c6f9070ae6af1c85fa308,2022-05-11_21h23.25.248,classification_task,2021.2.3,MacIntel,59.97361161,627c6715c52fd12f31907bcf,,,,,,,,,,,,,,,,,,,,,,,,,,,,,,,,,,,,,,,2,  ,,0,5.731772891,167.2745,0,1,1,1,1,2,2,,,,,,,,,,,,,,,,,,
,5d3f34ea8d82dd0001e04247,627c6f9070ae6af1c85fa308,2022-05-11_21h23.25.248,classification_task,2021.2.3,MacIntel,59.97361161,627c6715c52fd12f31907bcf,,,,,,,,,,,,,,,,,,,,,,,,,,,,,,,,,,,,,,,,,,,,,0,1,1,1,1,,2,,,,,,,,,,,,,,,,,,
,5d3f34ea8d82dd0001e04247,627c6f9070ae6af1c85fa308,2022-05-11_21h23.25.248,classification_task,2021.2.3,MacIntel,59.97361161,627c6715c52fd12f31907bcf,,,,,,,,,,,,,,,,,,,,,space,4.1639,l,0,0.9105,"[""0.796"",""0.400"",""0.581"",""0.898""]","[0,1,1,1]",0,0,0,0,1,0,1,,,0,FALSE,,,,,,,,,,,,,,,,,,,,,,,,,,,,,,,
,5d3f34ea8d82dd0001e04247,627c6f9070ae6af1c85fa308,2022-05-11_21h23.25.248,classification_task,2021.2.3,MacIntel,59.97361161,627c6715c52fd12f31907bcf,,,,,,,,,,,,,,,,,,,,,,,a,0,0.6173,"[""0.077"",""0.234"",""0.661"",""0.794""]","[1,1,1,0]",0,1,1,1,1,1,1,,,0,FALSE,,,,,,,,,,,,,,,,,,,,,,,,,,,,,,,
,5d3f34ea8d82dd0001e04247,627c6f9070ae6af1c85fa308,2022-05-11_21h23.25.248,classification_task,2021.2.3,MacIntel,59.97361161,627c6715c52fd12f31907bcf,,,,,,,,,,,,,,,,,,,,,,,a,0,0.8696,"[""0.077"",""0.352"",""0.661"",""0.735""]","[1,0,1,1]",0,2,2,2,1,1,1,,,0,FALSE,,,,,,,,,,,,,,,,,,,,,,,,,,,,,,,
,5d3f34ea8d82dd0001e04247,627c6f9070ae6af1c85fa308,2022-05-11_21h23.25.248,classification_task,2021.2.3,MacIntel,59.97361161,627c6715c52fd12f31907bcf,,,,,,,,,,,,,,,,,,,,,,,a,0,1.2196,"[""0.776"",""0.234"",""0.661"",""0.735""]","[0,1,1,1]",0,3,3,3,1,1,1,,,0,FALSE,,,,,,,,,,,,,,,,,,,,,,,,,,,,,,,
,5d3f34ea8d82dd0001e04247,627c6f9070ae6af1c85fa308,2022-05-11_21h23.25.248,classification_task,2021.2.3,MacIntel,59.97361161,627c6715c52fd12f31907bcf,,,,,,,,,,,,,,,,,,,,,,,l,1,0.8699,"[""0.122"",""0.181"",""0.448"",""0.028""]","[1,1,1,0]",0,4,4,4,1,1,0,,,0,FALSE,,,,,,,,,,,,,,,,,,,,,,,,,,,,,,,
,5d3f34ea8d82dd0001e04247,627c6f9070ae6af1c85fa308,2022-05-11_21h23.25.248,classification_task,2021.2.3,MacIntel,59.97361161,627c6715c52fd12f31907bcf,,,,,,,,,,,,,,,,,,,,,,,a,1,0.7474,"[""0.270"",""0.700"",""0.581"",""0.898""]","[1,0,1,1]",0,5,5,5,1,0,1,,,0,FALSE,,,,,,,,,,,,,,,,,,,,,,,,,,,,,,,
,5d3f34ea8d82dd0001e04247,627c6f9070ae6af1c85fa308,2022-05-11_21h23.25.248,classification_task,2021.2.3,MacIntel,59.97361161,627c6715c52fd12f31907bcf,,,,,,,,,,,,,,,,,,,,,,,l,1,0.3311,"[""0.035"",""0.181"",""0.448"",""0.839""]","[0,1,1,1]",0,6,6,6,1,1,0,,,0,FALSE,,,,,,,,,,,,,,,,,,,,,,,,,,,,,,,
,5d3f34ea8d82dd0001e04247,627c6f9070ae6af1c85fa308,2022-05-11_21h23.25.248,classification_task,2021.2.3,MacIntel,59.97361161,627c6715c52fd12f31907bcf,,,,,,,,,,,,,,,,,,,,,,,l,0,0.2854,"[""0.317"",""0.502"",""0.028"",""0.973""]","[1,1,0,1]",0,7,7,7,1,0,0,,,0,FALSE,,,,,,,,,,,,,,,,,,,,,,,,,,,,,,,
,5d3f34ea8d82dd0001e04247,627c6f9070ae6af1c85fa308,2022-05-11_21h23.25.248,classification_task,2021.2.3,MacIntel,59.97361161,627c6715c52fd12f31907bcf,,,,,,,,,,,,,,,,,,,,,,,a,1,0.4436,"[""0.317"",""0.502"",""0.933"",""0.543""]","[1,1,1,0]",0,8,8,8,1,0,0,,,0,FALSE,,,,,,,,,,,,,,,,,,,,,,,,,,,,,,,
,5d3f34ea8d82dd0001e04247,627c6f9070ae6af1c85fa308,2022-05-11_21h23.25.248,classification_task,2021.2.3,MacIntel,59.97361161,627c6715c52fd12f31907bcf,,,,,,,,,,,,,,,,,,,,,,,a,0,0.8345,"[""0.122"",""0.790"",""0.448"",""0.839""]","[1,0,1,1]",0,9,9,9,1,1,0,,,0,FALSE,,,,,,,,,,,,,,,,,,,,,,,,,,,,,,,
,5d3f34ea8d82dd0001e04247,627c6f9070ae6af1c85fa308,2022-05-11_21h23.25.248,classification_task,2021.2.3,MacIntel,59.97361161,627c6715c52fd12f31907bcf,,,,,,,,,,,,,,,,,,,,,,,a,1,0.6192,"[""0.030"",""0.502"",""0.933"",""0.973""]","[0,1,1,1]",0,10,10,10,1,0,0,,,0,FALSE,,,,,,,,,,,,,,,,,,,,,,,,,,,,,,,
,5d3f34ea8d82dd0001e04247,627c6f9070ae6af1c85fa308,2022-05-11_21h23.25.248,classification_task,2021.2.3,MacIntel,59.97361161,627c6715c52fd12f31907bcf,,,,,,,,,,,,,,,,,,,,,,,l,1,0.2673,"[""0.077"",""0.234"",""0.790"",""0.735""]","[1,1,0,1]",0,11,11,11,1,1,1,,,0,FALSE,,,,,,,,,,,,,,,,,,,,,,,,,,,,,,,
,5d3f34ea8d82dd0001e04247,627c6f9070ae6af1c85fa308,2022-05-11_21h23.25.248,classification_task,2021.2.3,MacIntel,59.97361161,627c6715c52fd12f31907bcf,,,,,,,,,,,,,,,,,,,,,,,a,0,1.047,"[""0.122"",""0.181"",""0.700"",""0.839""]","[1,1,0,1]",0,12,12,12,1,1,0,,,0,FALSE,,,,,,,,,,,,,,,,,,,,,,,,,,,,,,,
,5d3f34ea8d82dd0001e04247,627c6f9070ae6af1c85fa308,2022-05-11_21h23.25.248,classification_task,2021.2.3,MacIntel,59.97361161,627c6715c52fd12f31907bcf,,,,,,,,,,,,,,,,,,,,,,,l,0,0.5354,"[""0.317"",""0.619"",""0.933"",""0.973""]","[1,0,1,1]",0,13,13,13,1,0,0,,,0,FALSE,,,,,,,,,,,,,,,,,,,,,,,,,,,,,,,
,5d3f34ea8d82dd0001e04247,627c6f9070ae6af1c85fa308,2022-05-11_21h23.25.248,classification_task,2021.2.3,MacIntel,59.97361161,627c6715c52fd12f31907bcf,,,,,,,,,,,,,,,,,,,,,,,a,1,0.4167,"[""0.270"",""0.400"",""0.581"",""0.700""]","[1,1,1,0]",0,14,14,14,1,0,1,,,0,FALSE,,,,,,,,,,,,,,,,,,,,,,,,,,,,,,,
,5d3f34ea8d82dd0001e04247,627c6f9070ae6af1c85fa308,2022-05-11_21h23.25.248,classification_task,2021.2.3,MacIntel,59.97361161,627c6715c52fd12f31907bcf,,,,,,,,,,,,,,,,,,,,,,,l,0,0.6831,"[""0.270"",""0.400"",""0.776"",""0.898""]","[1,1,0,1]",0,15,15,15,1,0,1,,,0,FALSE,,,,,,,,,,,,,,,,,,,,,,,,,,,,,,,
,5d3f34ea8d82dd0001e04247,627c6f9070ae6af1c85fa308,2022-05-11_21h23.25.248,classification_task,2021.2.3,MacIntel,59.97361161,627c6715c52fd12f31907bcf,,,,,,,,,,,,,,,,,,,,,,,l,1,0.7462,"[""0.122"",""0.181"",""0.700"",""0.839""]","[1,1,0,1]",0,16,16,16,1,1,0,,,0,FALSE,,,,,,,,,,,,,,,,,,,,,,,,,,,,,,,
,5d3f34ea8d82dd0001e04247,627c6f9070ae6af1c85fa308,2022-05-11_21h23.25.248,classification_task,2021.2.3,MacIntel,59.97361161,627c6715c52fd12f31907bcf,,,,,,,,,,,,,,,,,,,,,,,l,1,0.3663,"[""0.794"",""0.181"",""0.448"",""0.839""]","[0,1,1,1]",0,17,17,17,1,1,0,,,0,FALSE,,,,,,,,,,,,,,,,,,,,,,,,,,,,,,,
,5d3f34ea8d82dd0001e04247,627c6f9070ae6af1c85fa308,2022-05-11_21h23.25.248,classification_task,2021.2.3,MacIntel,59.97361161,627c6715c52fd12f31907bcf,,,,,,,,,,,,,,,,,,,,,,,l,1,0.9001,"[""0.543"",""0.234"",""0.661"",""0.735""]","[0,1,1,1]",0,18,18,18,1,1,1,,,0,FALSE,,,,,,,,,,,,,,,,,,,,,,,,,,,,,,,
,5d3f34ea8d82dd0001e04247,627c6f9070ae6af1c85fa308,2022-05-11_21h23.25.248,classification_task,2021.2.3,MacIntel,59.97361161,627c6715c52fd12f31907bcf,,,,,,,,,,,,,,,,,,,,,,,a,0,0.2805,"[""0.077"",""0.234"",""0.661"",""0.796""]","[1,1,1,0]",0,19,19,19,1,1,1,,,0,FALSE,,,,,,,,,,,,,,,,,,,,,,,,,,,,,,,
,5d3f34ea8d82dd0001e04247,627c6f9070ae6af1c85fa308,2022-05-11_21h23.25.248,classification_task,2021.2.3,MacIntel,59.97361161,627c6715c52fd12f31907bcf,,,,,,,,,,,,,,,,,,,,,,,a,1,0.8792,"[""0.270"",""0.400"",""0.035"",""0.898""]","[1,1,0,1]",0,20,20,20,1,0,1,,,0,FALSE,,,,,,,,,,,,,,,,,,,,,,,,,,,,,,,
,5d3f34ea8d82dd0001e04247,627c6f9070ae6af1c85fa308,2022-05-11_21h23.25.248,classification_task,2021.2.3,MacIntel,59.97361161,627c6715c52fd12f31907bcf,,,,,,,,,,,,,,,,,,,,,,,l,0,0.4142,"[""0.270"",""0.400"",""0.581"",""0.619""]","[1,1,1,0]",0,21,21,21,1,0,1,,,0,FALSE,,,,,,,,,,,,,,,,,,,,,,,,,,,,,,,
,5d3f34ea8d82dd0001e04247,627c6f9070ae6af1c85fa308,2022-05-11_21h23.25.248,classification_task,2021.2.3,MacIntel,59.97361161,627c6715c52fd12f31907bcf,,,,,,,,,,,,,,,,,,,,,,,l,1,0.5186,"[""0.122"",""0.181"",""0.448"",""0.790""]","[1,1,1,0]",0,22,22,22,1,1,0,,,0,FALSE,,,,,,,,,,,,,,,,,,,,,,,,,,,,,,,
,5d3f34ea8d82dd0001e04247,627c6f9070ae6af1c85fa308,2022-05-11_21h23.25.248,classification_task,2021.2.3,MacIntel,59.97361161,627c6715c52fd12f31907bcf,,,,,,,,,,,,,,,,,,,,,,,a,1,0.5825,"[""0.270"",""0.035"",""0.581"",""0.898""]","[1,0,1,1]",0,23,23,23,1,0,1,,,0,FALSE,,,,,,,,,,,,,,,,,,,,,,,,,,,,,,,
,5d3f34ea8d82dd0001e04247,627c6f9070ae6af1c85fa308,2022-05-11_21h23.25.248,classification_task,2021.2.3,MacIntel,59.97361161,627c6715c52fd12f31907bcf,,,,,,,,,,,,,,,,,,,,,,,l,0,1.3801,"[""0.796"",""0.502"",""0.933"",""0.973""]","[0,1,1,1]",0,24,24,24,1,0,0,,,0,FALSE,,,,,,,,,,,,,,,,,,,,,,,,,,,,,,,
,5d3f34ea8d82dd0001e04247,627c6f9070ae6af1c85fa308,2022-05-11_21h23.25.248,classification_task,2021.2.3,MacIntel,59.97361161,627c6715c52fd12f31907bcf,,,,,,,,,,,,,,,,,,,,,,,l,0,1.5791,"[""0.543"",""0.400"",""0.581"",""0.898""]","[0,1,1,1]",0,25,25,25,1,0,1,,,0,FALSE,,,,,,,,,,,,,,,,,,,,,,,,,,,,,,,
,5d3f34ea8d82dd0001e04247,627c6f9070ae6af1c85fa308,2022-05-11_21h23.25.248,classification_task,2021.2.3,MacIntel,59.97361161,627c6715c52fd12f31907bcf,,,,,,,,,,,,,,,,,,,,,,,a,0,0.3576,"[""0.077"",""0.351"",""0.661"",""0.735""]","[1,0,1,1]",0,26,26,26,1,1,1,,,0,FALSE,,,,,,,,,,,,,,,,,,,,,,,,,,,,,,,
,5d3f34ea8d82dd0001e04247,627c6f9070ae6af1c85fa308,2022-05-11_21h23.25.248,classification_task,2021.2.3,MacIntel,59.97361161,627c6715c52fd12f31907bcf,,,,,,,,,,,,,,,,,,,,,,,a,0,0.6315,"[""0.077"",""0.234"",""0.028"",""0.735""]","[1,1,0,1]",0,27,27,27,1,1,1,,,0,FALSE,,,,,,,,,,,,,,,,,,,,,,,,,,,,,,,
,5d3f34ea8d82dd0001e04247,627c6f9070ae6af1c85fa308,2022-05-11_21h23.25.248,classification_task,2021.2.3,MacIntel,59.97361161,627c6715c52fd12f31907bcf,,,,,,,,,,,,,,,,,,,,,,,l,0,0.4008,"[""0.317"",""0.700"",""0.933"",""0.973""]","[1,0,1,1]",0,28,28,28,1,0,0,,,0,FALSE,,,,,,,,,,,,,,,,,,,,,,,,,,,,,,,
,5d3f34ea8d82dd0001e04247,627c6f9070ae6af1c85fa308,2022-05-11_21h23.25.248,classification_task,2021.2.3,MacIntel,59.97361161,627c6715c52fd12f31907bcf,,,,,,,,,,,,,,,,,,,,,,,a,1,0.5033,"[""0.317"",""0.502"",""0.351"",""0.973""]","[1,1,0,1]",0,29,29,29,1,0,0,,,0,FALSE,,,,,,,,,,,,,,,,,,,,,,,,,,,,,,,
,5d3f34ea8d82dd0001e04247,627c6f9070ae6af1c85fa308,2022-05-11_21h23.25.248,classification_task,2021.2.3,MacIntel,59.97361161,627c6715c52fd12f31907bcf,,,,,,,,,,,,,,,,,,,,,,,l,0,0.6522,"[""0.317"",""0.502"",""0.933"",""0.700""]","[1,1,1,0]",0,30,30,30,1,0,0,,,0,FALSE,,,,,,,,,,,,,,,,,,,,,,,,,,,,,,,
,5d3f34ea8d82dd0001e04247,627c6f9070ae6af1c85fa308,2022-05-11_21h23.25.248,classification_task,2021.2.3,MacIntel,59.97361161,627c6715c52fd12f31907bcf,,,,,,,,,,,,,,,,,,,,,,,a,0,0.2012,"[""0.122"",""0.619"",""0.448"",""0.839""]","[1,0,1,1]",0,31,31,31,1,1,0,,,0,FALSE,,,,,,,,,,,,,,,,,,,,,,,,,,,,,,,
,5d3f34ea8d82dd0001e04247,627c6f9070ae6af1c85fa308,2022-05-11_21h23.25.248,classification_task,2021.2.3,MacIntel,59.97361161,627c6715c52fd12f31907bcf,,,,,,,,,,,,,,,,,,,,,,,l,1,0.4831,"[""0.122"",""0.181"",""0.448"",""0.778""]","[1,1,1,0]",0,32,32,32,1,1,0,,,0,FALSE,,,,,,,,,,,,,,,,,,,,,,,,,,,,,,,
,5d3f34ea8d82dd0001e04247,627c6f9070ae6af1c85fa308,2022-05-11_21h23.25.248,classification_task,2021.2.3,MacIntel,59.97361161,627c6715c52fd12f31907bcf,,,,,,,,,,,,,,,,,,,,,,,a,0,1.0675,"[""0.796"",""0.234"",""0.661"",""0.735""]","[0,1,1,1]",0,33,33,33,1,1,1,,,0,FALSE,,,,,,,,,,,,,,,,,,,,,,,,,,,,,,,
,5d3f34ea8d82dd0001e04247,627c6f9070ae6af1c85fa308,2022-05-11_21h23.25.248,classification_task,2021.2.3,MacIntel,59.97361161,627c6715c52fd12f31907bcf,,,,,,,,,,,,,,,,,,,,,,,a,1,0.2656,"[""0.270"",""0.400"",""0.581"",""0.796""]","[1,1,1,0]",0,34,34,34,1,0,1,,,0,FALSE,,,,,,,,,,,,,,,,,,,,,,,,,,,,,,,
,5d3f34ea8d82dd0001e04247,627c6f9070ae6af1c85fa308,2022-05-11_21h23.25.248,classification_task,2021.2.3,MacIntel,59.97361161,627c6715c52fd12f31907bcf,,,,,,,,,,,,,,,,,,,,,,,a,1,0.3497,"[""0.790"",""0.400"",""0.581"",""0.898""]","[0,1,1,1]",0,35,35,35,1,0,1,,,0,FALSE,,,,,,,,,,,,,,,,,,,,,,,,,,,,,,,
,5d3f34ea8d82dd0001e04247,627c6f9070ae6af1c85fa308,2022-05-11_21h23.25.248,classification_task,2021.2.3,MacIntel,59.97361161,627c6715c52fd12f31907bcf,,,,,,,,,,,,,,,,,,,,,,,a,1,0.6328,"[""0.317"",""0.502"",""0.776"",""0.973""]","[1,1,0,1]",0,36,36,36,1,0,0,,,0,FALSE,,,,,,,,,,,,,,,,,,,,,,,,,,,,,,,
,5d3f34ea8d82dd0001e04247,627c6f9070ae6af1c85fa308,2022-05-11_21h23.25.248,classification_task,2021.2.3,MacIntel,59.97361161,627c6715c52fd12f31907bcf,,,,,,,,,,,,,,,,,,,,,,,l,0,0.3502,"[""0.317"",""0.502"",""0.933"",""0.028""]","[1,1,1,0]",0,37,37,37,1,0,0,,,0,FALSE,,,,,,,,,,,,,,,,,,,,,,,,,,,,,,,
,5d3f34ea8d82dd0001e04247,627c6f9070ae6af1c85fa308,2022-05-11_21h23.25.248,classification_task,2021.2.3,MacIntel,59.97361161,627c6715c52fd12f31907bcf,,,,,,,,,,,,,,,,,,,,,,,a,0,0.2992,"[""0.077"",""0.234"",""0.661"",""0.700""]","[1,1,1,0]",0,38,38,38,1,1,1,,,0,FALSE,,,,,,,,,,,,,,,,,,,,,,,,,,,,,,,
,5d3f34ea8d82dd0001e04247,627c6f9070ae6af1c85fa308,2022-05-11_21h23.25.248,classification_task,2021.2.3,MacIntel,59.97361161,627c6715c52fd12f31907bcf,,,,,,,,,,,,,,,,,,,,,,,a,0,0.5696,"[""0.122"",""0.181"",""0.028"",""0.839""]","[1,1,0,1]",0,39,39,39,1,1,0,,,0,FALSE,,,,,,,,,,,,,,,,,,,,,,,,,,,,,,,
,5d3f34ea8d82dd0001e04247,627c6f9070ae6af1c85fa308,2022-05-11_21h23.25.248,classification_task,2021.2.3,MacIntel,59.97361161,627c6715c52fd12f31907bcf,,,,,,,,,,,,,,,,,,,,,,,l,1,0.4334,"[""0.790"",""0.181"",""0.448"",""0.839""]","[0,1,1,1]",0,40,40,40,1,1,0,,,0,FALSE,,,,,,,,,,,,,,,,,,,,,,,,,,,,,,,
,5d3f34ea8d82dd0001e04247,627c6f9070ae6af1c85fa308,2022-05-11_21h23.25.248,classification_task,2021.2.3,MacIntel,59.97361161,627c6715c52fd12f31907bcf,,,,,,,,,,,,,,,,,,,,,,,a,0,0.6114,"[""0.077"",""0.351"",""0.661"",""0.735""]","[1,0,1,1]",0,41,41,41,1,1,1,,,0,FALSE,,,,,,,,,,,,,,,,,,,,,,,,,,,,,,,
,5d3f34ea8d82dd0001e04247,627c6f9070ae6af1c85fa308,2022-05-11_21h23.25.248,classification_task,2021.2.3,MacIntel,59.97361161,627c6715c52fd12f31907bcf,,,,,,,,,,,,,,,,,,,,,,,l,0,0.0003,"[""0.700"",""0.502"",""0.933"",""0.973""]","[0,1,1,1]",0,42,42,42,1,0,0,,,0,FALSE,,,,,,,,,,,,,,,,,,,,,,,,,,,,,,,
,5d3f34ea8d82dd0001e04247,627c6f9070ae6af1c85fa308,2022-05-11_21h23.25.248,classification_task,2021.2.3,MacIntel,59.97361161,627c6715c52fd12f31907bcf,,,,,,,,,,,,,,,,,,,,,,,a,1,3.1655,"[""0.317"",""0.351"",""0.933"",""0.973""]","[1,0,1,1]",0,43,43,43,1,0,0,,,0,FALSE,,,,,,,,,,,,,,,,,,,,,,,,,,,,,,,
,5d3f34ea8d82dd0001e04247,627c6f9070ae6af1c85fa308,2022-05-11_21h23.25.248,classification_task,2021.2.3,MacIntel,59.97361161,627c6715c52fd12f31907bcf,,,,,,,,,,,,,,,,,,,,,,,l,1,0.9293,"[""0.077"",""0.234"",""0.790"",""0.735""]","[1,1,0,1]",0,44,44,44,1,1,1,,,0,FALSE,,,,,,,,,,,,,,,,,,,,,,,,,,,,,,,
,5d3f34ea8d82dd0001e04247,627c6f9070ae6af1c85fa308,2022-05-11_21h23.25.248,classification_task,2021.2.3,MacIntel,59.97361161,627c6715c52fd12f31907bcf,,,,,,,,,,,,,,,,,,,,,,,l,0,0.5847,"[""0.270"",""0.400"",""0.035"",""0.898""]","[1,1,0,1]",0,45,45,45,1,0,1,,,0,FALSE,,,,,,,,,,,,,,,,,,,,,,,,,,,,,,,
,5d3f34ea8d82dd0001e04247,627c6f9070ae6af1c85fa308,2022-05-11_21h23.25.248,classification_task,2021.2.3,MacIntel,59.97361161,627c6715c52fd12f31907bcf,,,,,,,,,,,,,,,,,,,,,,,l,0,0.5998,"[""0.270"",""0.791"",""0.581"",""0.898""]","[1,0,1,1]",0,46,46,46,1,0,1,,,0,FALSE,,,,,,,,,,,,,,,,,,,,,,,,,,,,,,,
,5d3f34ea8d82dd0001e04247,627c6f9070ae6af1c85fa308,2022-05-11_21h23.25.248,classification_task,2021.2.3,MacIntel,59.97361161,627c6715c52fd12f31907bcf,,,,,,,,,,,,,,,,,,,,,,,l,1,1.8699,"[""0.122"",""0.776"",""0.448"",""0.839""]","[1,0,1,1]",0,47,47,47,1,1,0,,,0,FALSE,,,,,,,,,,,,,,,,,,,,,,,,,,,,,,,
,5d3f34ea8d82dd0001e04247,627c6f9070ae6af1c85fa308,2022-05-11_21h23.25.248,classification_task,2021.2.3,MacIntel,59.97361161,627c6715c52fd12f31907bcf,,,,,,,,,,,,,,,,,,,,,,,l,1,0.5656,"[""0.122"",""0.181"",""0.448"",""0.352""]","[1,1,1,0]",0,48,48,48,1,1,0,,,0,FALSE,,,,,,,,,,,,,,,,,,,,,,,,,,,,,,,
,5d3f34ea8d82dd0001e04247,627c6f9070ae6af1c85fa308,2022-05-11_21h23.25.248,classification_task,2021.2.3,MacIntel,59.97361161,627c6715c52fd12f31907bcf,,,,,,,,,,,,,,,,,,,,,,,a,0,1.4606,"[""0.122"",""0.181"",""0.790"",""0.839""]","[1,1,0,1]",0,49,49,49,1,1,0,,,0,FALSE,,,,,,,,,,,,,,,,,,,,,,,,,,,,,,,
,5d3f34ea8d82dd0001e04247,627c6f9070ae6af1c85fa308,2022-05-11_21h23.25.248,classification_task,2021.2.3,MacIntel,59.97361161,627c6715c52fd12f31907bcf,,,,,,,,,,,,,,,,,,,,,,,a,1,0.4507,"[""0.317"",""0.502"",""0.933"",""0.700""]","[1,1,1,0]",0,50,50,50,1,0,0,,,0,FALSE,,,,,,,,,,,,,,,,,,,,,,,,,,,,,,,
,5d3f34ea8d82dd0001e04247,627c6f9070ae6af1c85fa308,2022-05-11_21h23.25.248,classification_task,2021.2.3,MacIntel,59.97361161,627c6715c52fd12f31907bcf,,,,,,,,,,,,,,,,,,,,,,,l,0,1.2641,"[""0.776"",""0.502"",""0.933"",""0.973""]","[0,1,1,1]",0,51,51,51,1,0,0,,,0,FALSE,,,,,,,,,,,,,,,,,,,,,,,,,,,,,,,
,5d3f34ea8d82dd0001e04247,627c6f9070ae6af1c85fa308,2022-05-11_21h23.25.248,classification_task,2021.2.3,MacIntel,59.97361161,627c6715c52fd12f31907bcf,,,,,,,,,,,,,,,,,,,,,,,l,0,1.0849,"[""0.317"",""0.502"",""0.790"",""0.973""]","[1,1,0,1]",0,52,52,52,1,0,0,,,0,FALSE,,,,,,,,,,,,,,,,,,,,,,,,,,,,,,,
,5d3f34ea8d82dd0001e04247,627c6f9070ae6af1c85fa308,2022-05-11_21h23.25.248,classification_task,2021.2.3,MacIntel,59.97361161,627c6715c52fd12f31907bcf,,,,,,,,,,,,,,,,,,,,,,,l,1,0.3879,"[""0.619"",""0.181"",""0.448"",""0.839""]","[0,1,1,1]",0,53,53,53,1,1,0,,,0,FALSE,,,,,,,,,,,,,,,,,,,,,,,,,,,,,,,
,5d3f34ea8d82dd0001e04247,627c6f9070ae6af1c85fa308,2022-05-11_21h23.25.248,classification_task,2021.2.3,MacIntel,59.97361161,627c6715c52fd12f31907bcf,,,,,,,,,,,,,,,,,,,,,,,a,0,0.4345,"[""0.077"",""0.790"",""0.661"",""0.735""]","[1,0,1,1]",0,54,54,54,1,1,1,,,0,FALSE,,,,,,,,,,,,,,,,,,,,,,,,,,,,,,,
,5d3f34ea8d82dd0001e04247,627c6f9070ae6af1c85fa308,2022-05-11_21h23.25.248,classification_task,2021.2.3,MacIntel,59.97361161,627c6715c52fd12f31907bcf,,,,,,,,,,,,,,,,,,,,,,,a,1,0.886,"[""0.317"",""0.035"",""0.933"",""0.973""]","[1,0,1,1]",0,55,55,55,1,0,0,,,0,FALSE,,,,,,,,,,,,,,,,,,,,,,,,,,,,,,,
,5d3f34ea8d82dd0001e04247,627c6f9070ae6af1c85fa308,2022-05-11_21h23.25.248,classification_task,2021.2.3,MacIntel,59.97361161,627c6715c52fd12f31907bcf,,,,,,,,,,,,,,,,,,,,,,,a,0,0.6196,"[""0.077"",""0.234"",""0.776"",""0.735""]","[1,1,0,1]",0,56,56,56,1,1,1,,,0,FALSE,,,,,,,,,,,,,,,,,,,,,,,,,,,,,,,
,5d3f34ea8d82dd0001e04247,627c6f9070ae6af1c85fa308,2022-05-11_21h23.25.248,classification_task,2021.2.3,MacIntel,59.97361161,627c6715c52fd12f31907bcf,,,,,,,,,,,,,,,,,,,,,,,l,0,1.1845,"[""0.270"",""0.400"",""0.581"",""0.351""]","[1,1,1,0]",0,57,57,57,1,0,1,,,0,FALSE,,,,,,,,,,,,,,,,,,,,,,,,,,,,,,,
,5d3f34ea8d82dd0001e04247,627c6f9070ae6af1c85fa308,2022-05-11_21h23.25.248,classification_task,2021.2.3,MacIntel,59.97361161,627c6715c52fd12f31907bcf,,,,,,,,,,,,,,,,,,,,,,,l,1,0.7508,"[""0.122"",""0.352"",""0.448"",""0.839""]","[1,0,1,1]",0,58,58,58,1,1,0,,,0,FALSE,,,,,,,,,,,,,,,,,,,,,,,,,,,,,,,
,5d3f34ea8d82dd0001e04247,627c6f9070ae6af1c85fa308,2022-05-11_21h23.25.248,classification_task,2021.2.3,MacIntel,59.97361161,627c6715c52fd12f31907bcf,,,,,,,,,,,,,,,,,,,,,,,a,0,1.6483,"[""0.077"",""0.234"",""0.661"",""0.700""]","[1,1,1,0]",0,59,59,59,1,1,1,,,0,FALSE,,,,,,,,,,,,,,,,,,,,,,,,,,,,,,,
,5d3f34ea8d82dd0001e04247,627c6f9070ae6af1c85fa308,2022-05-11_21h23.25.248,classification_task,2021.2.3,MacIntel,59.97361161,627c6715c52fd12f31907bcf,,,,,,,,,,,,,,,,,,,,,,,l,1,0.5068,"[""0.776"",""0.234"",""0.661"",""0.735""]","[0,1,1,1]",0,60,60,60,1,1,1,,,0,FALSE,,,,,,,,,,,,,,,,,,,,,,,,,,,,,,,
,5d3f34ea8d82dd0001e04247,627c6f9070ae6af1c85fa308,2022-05-11_21h23.25.248,classification_task,2021.2.3,MacIntel,59.97361161,627c6715c52fd12f31907bcf,,,,,,,,,,,,,,,,,,,,,,,a,1,0.4966,"[""0.351"",""0.400"",""0.581"",""0.898""]","[0,1,1,1]",0,61,61,61,1,0,1,,,0,FALSE,,,,,,,,,,,,,,,,,,,,,,,,,,,,,,,
,5d3f34ea8d82dd0001e04247,627c6f9070ae6af1c85fa308,2022-05-11_21h23.25.248,classification_task,2021.2.3,MacIntel,59.97361161,627c6715c52fd12f31907bcf,,,,,,,,,,,,,,,,,,,,,,,a,1,1.3691,"[""0.270"",""0.400"",""0.028"",""0.898""]","[1,1,0,1]",0,62,62,62,1,0,1,,,0,FALSE,,,,,,,,,,,,,,,,,,,,,,,,,,,,,,,
,5d3f34ea8d82dd0001e04247,627c6f9070ae6af1c85fa308,2022-05-11_21h23.25.248,classification_task,2021.2.3,MacIntel,59.97361161,627c6715c52fd12f31907bcf,,,,,,,,,,,,,,,,,,,,,,,l,0,0.4995,"[""0.270"",""0.543"",""0.581"",""0.898""]","[1,0,1,1]",0,63,63,63,1,0,1,,,0,FALSE,,,,,,,,,,,,,,,,,,,,,,,,,,,,,,,
,5d3f34ea8d82dd0001e04247,627c6f9070ae6af1c85fa308,2022-05-11_21h23.25.248,classification_task,2021.2.3,MacIntel,59.97361161,627c6715c52fd12f31907bcf,,,,,,,,,,,,,,,,,,,,,,,,,,,,,,,,,,,,,,,0, ,,0,5.583776974,119.0372,0,2,2,2,1,2,3,,,,,,,,,,,,,,,,,,
,5d3f34ea8d82dd0001e04247,627c6f9070ae6af1c85fa308,2022-05-11_21h23.25.248,classification_task,2021.2.3,MacIntel,59.97361161,627c6715c52fd12f31907bcf,,,,,,,,,,,,,,,,,,,,,,,,,,,,,,,,,,,,,,,1,  ,,0,8.026375915,121.733,0,2,2,2,1,2,3,,,,,,,,,,,,,,,,,,
,5d3f34ea8d82dd0001e04247,627c6f9070ae6af1c85fa308,2022-05-11_21h23.25.248,classification_task,2021.2.3,MacIntel,59.97361161,627c6715c52fd12f31907bcf,,,,,,,,,,,,,,,,,,,,,,,,,,,,,,,,,,,,,,,2,  ,,0,10,122.8899,0,2,2,2,1,2,3,,,,,,,,,,,,,,,,,,
,5d3f34ea8d82dd0001e04247,627c6f9070ae6af1c85fa308,2022-05-11_21h23.25.248,classification_task,2021.2.3,MacIntel,59.97361161,627c6715c52fd12f31907bcf,,,,,,,,,,,,,,,,,,,,,,,,,,,,,,,,,,,,,,,,,,,,,0,2,2,2,1,,3,,,,,,,,,,,,,,,,,,
,5d3f34ea8d82dd0001e04247,627c6f9070ae6af1c85fa308,2022-05-11_21h23.25.248,classification_task,2021.2.3,MacIntel,59.97361161,627c6715c52fd12f31907bcf,,,,,,,,,,,,,,,,,,,,,,,,,,,,,,,,,,,,,,,,,,,,,,,,,,,,,I believe the aid is a competent performer,,0.7,0,3,749.9322,0,0,0,0,1,0,,,,,
,5d3f34ea8d82dd0001e04247,627c6f9070ae6af1c85fa308,2022-05-11_21h23.25.248,classification_task,2021.2.3,MacIntel,59.97361161,627c6715c52fd12f31907bcf,,,,,,,,,,,,,,,,,,,,,,,,,,,,,,,,,,,,,,,,,,,,,,,,,,,,,I trust the aid,,0.7,0,4,750.9943,0,0,0,0,1,0,,,,,
,5d3f34ea8d82dd0001e04247,627c6f9070ae6af1c85fa308,2022-05-11_21h23.25.248,classification_task,2021.2.3,MacIntel,59.97361161,627c6715c52fd12f31907bcf,,,,,,,,,,,,,,,,,,,,,,,,,,,,,,,,,,,,,,,,,,,,,,,,,,,,,I have confidence in the advice given by the aid,,0.7,0,4,752.4678,0,0,0,0,1,0,,,,,
,5d3f34ea8d82dd0001e04247,627c6f9070ae6af1c85fa308,2022-05-11_21h23.25.248,classification_task,2021.2.3,MacIntel,59.97361161,627c6715c52fd12f31907bcf,,,,,,,,,,,,,,,,,,,,,,,,,,,,,,,,,,,,,,,,,,,,,,,,,,,,,I can depend on the aid,,0.7,0,5,753.3517,0,0,0,0,1,0,,,,,
,5d3f34ea8d82dd0001e04247,627c6f9070ae6af1c85fa308,2022-05-11_21h23.25.248,classification_task,2021.2.3,MacIntel,59.97361161,627c6715c52fd12f31907bcf,,,,,,,,,,,,,,,,,,,,,,,,,,,,,,,,,,,,,,,,,,,,,,,,,,,,,I can rely on the aid to behave in consistent ways,,0.7,0,2,756.6218,0,0,0,0,1,0,,,,,
,5d3f34ea8d82dd0001e04247,627c6f9070ae6af1c85fa308,2022-05-11_21h23.25.248,classification_task,2021.2.3,MacIntel,59.97361161,627c6715c52fd12f31907bcf,,,,,,,,,,,,,,,,,,,,,,,,,,,,,,,,,,,,,,,,,,,,,,,,,,,,,I can rely on the aid to do its best every time I take its advice,,0.7,0,2,759.8052,0,0,0,0,1,0,,,,,
,5d3f34ea8d82dd0001e04247,627c6f9070ae6af1c85fa308,2022-05-11_21h23.25.248,classification_task,2021.2.3,MacIntel,59.97361161,627c6715c52fd12f31907bcf,,,,,,,,,,,,,,,,,,,,,,,,,,,,,,,,,,,,,,,,,,,,,,,,,,,,,"On trials you completed with assistance from the aid, how frequently did you think the aid was correct?",,0.7,0,90,,0,0,0,0,1,0,,,,,
,5d3f34ea8d82dd0001e04247,627c6f9070ae6af1c85fa308,2022-05-11_21h23.25.248,classification_task,2021.2.3,MacIntel,59.97361161,627c6715c52fd12f31907bcf,,,,,,,,,,,,,,,,,,,,,,,,,,,,,,,,,,,,,,,,,,,,,,,,,,,,,"On trials you completed without the aid, how frequently did you think you were correct?",,0.7,0,25,,0,0,0,0,1,0,,,,,
,5d3f34ea8d82dd0001e04247,627c6f9070ae6af1c85fa308,2022-05-11_21h23.25.248,classification_task,2021.2.3,MacIntel,59.97361161,627c6715c52fd12f31907bcf,,,,,,,,,,,,,,,,,,,,,,,,,,,,,,,,,,,,,,,,,,,,,,,,,,,,,,,,,,,0,0,0,0,1,,,,,,
,5d3f34ea8d82dd0001e04247,627c6f9070ae6af1c85fa308,2022-05-11_21h23.25.248,classification_task,2021.2.3,MacIntel,59.97361161,627c6715c52fd12f31907bcf,,,,,,,,,,,,,,,,,,,,,,,,,,,,,,,,,,,,,,,,,,,,,,,,,,,,,,,,,,,,,,,,,space,5.14,772.5201,,
,5d3f34ea8d82dd0001e04247,627c6f9070ae6af1c85fa308,2022-05-11_21h23.25.248,classification_task,2021.2.3,MacIntel,59.97361161,627c6715c52fd12f31907bcf,,,,,,,,,,,,,,,,,,,,,,,,,,,,,,,,,,,,,,,,,,,,,,,,,,,,,,,,,,,,,,,,,,,,"Mozilla/5.0 (Macintosh; Intel Mac OS X 10_15_7) AppleWebKit/537.36 (KHTML, like Gecko) Chrome/100.0.4896.127 Safari/537.36",
,5d3f34ea8d82dd0001e04247,627c6f9070ae6af1c85fa308,2022-05-11_21h23.25.248,classification_task,2021.2.3,MacIntel,59.97361161,627c6715c52fd12f31907bcf,,,,,,,,,,,,,,,,,,,,,,,,,,,,,,,,,,,,,,,,,,,,,,,,,,,,,,,,,,,,,,,,,,,,,HIGHLIGHT
