usingWebGL,participant,session,date,expName,psychopyVersion,OS,frameRate,study_id,signatures_friend,signatures_foe,band_ranges_top,band_ranges_bottom,formitemText,formtype,formundefined,formitemWidth,formindex,formresponse,formrt,key_resp_2.keys,key_resp_2.rt,tute_resp.keys,tute_resp.rt,tutorial.thisRepN,tutorial.thisTrialN,tutorial.thisN,tutorial.thisIndex,tutorial.ran,key_resp_4.keys,key_resp_4.rt,key_resp.keys,key_resp.corr,key_resp.rt,lines_presented,is_signal_presented,trials.thisRepN,trials.thisTrialN,trials.thisN,trials.thisIndex,trials.ran,vessel,active_band,lines,is_signal,supported_pos,catch_trial,debrief_formindex,debrief_formitemText,debrief_formtype,debrief_formitemWidth,debrief_formresponse,debrief_formrt,phases.thisRepN,phases.thisTrialN,phases.thisN,phases.thisIndex,phases.ran,phases.order,phase,key_resp_3.keys,trustitemText,trusttype,trustitemWidth,trustindex,trustresponse,trustrt,support_status.thisRepN,support_status.thisTrialN,support_status.thisN,support_status.thisIndex,support_status.ran,support_status.order,key_resp_5.keys,key_resp_5.rt,globalClockTime,userAgent,manualCondition
TRUE,5d4ca4c24f49b2001a7152b3,627c6766189a88f8213319e3,2022-05-11_20h51.41.435,classification_task,2021.2.3,MacIntel,59.97361161,627c6715c52fd12f31907bd0,,,,,,,,,,,,,,,,,,,,,,,,,,,,,,,,,,,,,,,,,,,,,,,,,,,,,,,,,,,,,,,,,,,,,
,5d4ca4c24f49b2001a7152b3,627c6766189a88f8213319e3,2022-05-11_20h51.41.435,classification_task,2021.2.3,MacIntel,59.97361161,627c6715c52fd12f31907bd0,"[[""0.197"",""0.543"",""0.896"",""0.947""],[""0.238"",""0.401"",""0.635"",""0.861""]]","[[""0.071"",""0.303"",""0.437"",""0.729""],[""0.129"",""0.346"",""0.595"",""0.789""]]","[1,10]","[100,1000]",Video game experience,,,0.7,0,,,,,,,,,,,,,,,,,,,,,,,,,,,,,,,,,,,,,,,,,,,,,,,,,,,,,,,,,,,,
,5d4ca4c24f49b2001a7152b3,627c6766189a88f8213319e3,2022-05-11_20h51.41.435,classification_task,2021.2.3,MacIntel,59.97361161,627c6715c52fd12f31907bd0,,,,,Approximately how many hours did you spend playing video games in the last week?,,,0.7,0,7,,,,,,,,,,,,,,,,,,,,,,,,,,,,,,,,,,,,,,,,,,,,,,,,,,,,,,,,,,,
,5d4ca4c24f49b2001a7152b3,627c6766189a88f8213319e3,2022-05-11_20h51.41.435,classification_task,2021.2.3,MacIntel,59.97361161,627c6715c52fd12f31907bd0,,,,,"Which game did you play the most this year? (Enter ""None"" if you didn't play any)",,,0.7,0,leyend of zelda botw,,,,,,,,,,,,,,,,,,,,,,,,,,,,,,,,,,,,,,,,,,,,,,,,,,,,,,,,,,,
,5d4ca4c24f49b2001a7152b3,627c6766189a88f8213319e3,2022-05-11_20h51.41.435,classification_task,2021.2.3,MacIntel,59.97361161,627c6715c52fd12f31907bd0,,,,,Visual perception,,,0.7,0,,,,,,,,,,,,,,,,,,,,,,,,,,,,,,,,,,,,,,,,,,,,,,,,,,,,,,,,,,,,
,5d4ca4c24f49b2001a7152b3,627c6766189a88f8213319e3,2022-05-11_20h51.41.435,classification_task,2021.2.3,MacIntel,59.97361161,627c6715c52fd12f31907bd0,,,,,Do you have any form of color blindness?,,,0.7,0,No,27.9535,,,,,,,,,,,,,,,,,,,,,,,,,,,,,,,,,,,,,,,,,,,,,,,,,,,,,,,,,,
,5d4ca4c24f49b2001a7152b3,627c6766189a88f8213319e3,2022-05-11_20h51.41.435,classification_task,2021.2.3,MacIntel,59.97361161,627c6715c52fd12f31907bd0,,,,,Do you use software to change the colour temperature of your screen (e.g. f.lux)?,,,0.7,0,No,29.87,,,,,,,,,,,,,,,,,,,,,,,,,,,,,,,,,,,,,,,,,,,,,,,,,,,,,,,,,,
,5d4ca4c24f49b2001a7152b3,627c6766189a88f8213319e3,2022-05-11_20h51.41.435,classification_task,2021.2.3,MacIntel,59.97361161,627c6715c52fd12f31907bd0,,,,,,,,,,,,space,18.6619,space,5.0756,0,0,0,0,1,,,,,,,,,,,,,,,,,,,,,,,,,,,,,,,,,,,,,,,,,,,,,,,,,
,5d4ca4c24f49b2001a7152b3,627c6766189a88f8213319e3,2022-05-11_20h51.41.435,classification_task,2021.2.3,MacIntel,59.97361161,627c6715c52fd12f31907bd0,,,,,,,,,,,,,,space,9.1785,1,0,1,0,1,,,,,,,,,,,,,,,,,,,,,,,,,,,,,,,,,,,,,,,,,,,,,,,,,
,5d4ca4c24f49b2001a7152b3,627c6766189a88f8213319e3,2022-05-11_20h51.41.435,classification_task,2021.2.3,MacIntel,59.97361161,627c6715c52fd12f31907bd0,,,,,,,,,,,,,,space,28.8725,2,0,2,0,1,,,,,,,,,,,,,,,,,,,,,,,,,,,,,,,,,,,,,,,,,,,,,,,,,
,5d4ca4c24f49b2001a7152b3,627c6766189a88f8213319e3,2022-05-11_20h51.41.435,classification_task,2021.2.3,MacIntel,59.97361161,627c6715c52fd12f31907bd0,,,,,,,,,,,,,,space,7.0077,3,0,3,0,1,,,,,,,,,,,,,,,,,,,,,,,,,,,,,,,,,,,,,,,,,,,,,,,,,
,5d4ca4c24f49b2001a7152b3,627c6766189a88f8213319e3,2022-05-11_20h51.41.435,classification_task,2021.2.3,MacIntel,59.97361161,627c6715c52fd12f31907bd0,,,,,,,,,,,,,,space,9.0289,4,0,4,0,1,,,,,,,,,,,,,,,,,,,,,,,,,,,,,,,,,,,,,,,,,,,,,,,,,
,5d4ca4c24f49b2001a7152b3,627c6766189a88f8213319e3,2022-05-11_20h51.41.435,classification_task,2021.2.3,MacIntel,59.97361161,627c6715c52fd12f31907bd0,,,,,,,,,,,,,,,,,,,,,space,12.0012,a,1,6.2494,"[""0.197"",""0.543"",""0.487"",""0.947""]","[1,1,0,1]",0,0,0,0,1,0,0,,,0,FALSE,,,,,,,,,,,,,,,,,,,,,,,,,,,,,,,
,5d4ca4c24f49b2001a7152b3,627c6766189a88f8213319e3,2022-05-11_20h51.41.435,classification_task,2021.2.3,MacIntel,59.97361161,627c6715c52fd12f31907bd0,,,,,,,,,,,,,,,,,,,,,,,l,1,6.4253,"[""0.825"",""0.346"",""0.595"",""0.789""]","[0,1,1,1]",0,1,1,1,1,1,1,,,0,FALSE,,,,,,,,,,,,,,,,,,,,,,,,,,,,,,,
,5d4ca4c24f49b2001a7152b3,627c6766189a88f8213319e3,2022-05-11_20h51.41.435,classification_task,2021.2.3,MacIntel,59.97361161,627c6715c52fd12f31907bd0,,,,,,,,,,,,,,,,,,,,,,,a,1,2.652099999,"[""0.238"",""0.401"",""0.635"",""0.480""]","[1,1,1,0]",0,2,2,2,1,0,1,,,0,FALSE,,,,,,,,,,,,,,,,,,,,,,,,,,,,,,,
,5d4ca4c24f49b2001a7152b3,627c6766189a88f8213319e3,2022-05-11_20h51.41.435,classification_task,2021.2.3,MacIntel,59.97361161,627c6715c52fd12f31907bd0,,,,,,,,,,,,,,,,,,,,,,,a,1,4.4161,"[""0.494"",""0.543"",""0.896"",""0.947""]","[0,1,1,1]",0,3,3,3,1,0,0,,,0,FALSE,,,,,,,,,,,,,,,,,,,,,,,,,,,,,,,
,5d4ca4c24f49b2001a7152b3,627c6766189a88f8213319e3,2022-05-11_20h51.41.435,classification_task,2021.2.3,MacIntel,59.97361161,627c6715c52fd12f31907bd0,,,,,,,,,,,,,,,,,,,,,,,l,1,4.7586,"[""0.071"",""0.676"",""0.437"",""0.729""]","[1,0,1,1]",0,4,4,4,1,1,0,,,0,FALSE,,,,,,,,,,,,,,,,,,,,,,,,,,,,,,,
,5d4ca4c24f49b2001a7152b3,627c6766189a88f8213319e3,2022-05-11_20h51.41.435,classification_task,2021.2.3,MacIntel,59.97361161,627c6715c52fd12f31907bd0,,,,,,,,,,,,,,,,,,,,,,,l,1,4.3026,"[""0.129"",""0.346"",""0.676"",""0.789""]","[1,1,0,1]",0,5,5,5,1,1,1,,,0,FALSE,,,,,,,,,,,,,,,,,,,,,,,,,,,,,,,
,5d4ca4c24f49b2001a7152b3,627c6766189a88f8213319e3,2022-05-11_20h51.41.435,classification_task,2021.2.3,MacIntel,59.97361161,627c6715c52fd12f31907bd0,,,,,,,,,,,,,,,,,,,,,,,a,1,3.3207,"[""0.238"",""0.480"",""0.635"",""0.861""]","[1,0,1,1]",0,6,6,6,1,0,1,,,0,FALSE,,,,,,,,,,,,,,,,,,,,,,,,,,,,,,,
,5d4ca4c24f49b2001a7152b3,627c6766189a88f8213319e3,2022-05-11_20h51.41.435,classification_task,2021.2.3,MacIntel,59.97361161,627c6715c52fd12f31907bd0,,,,,,,,,,,,,,,,,,,,,,,a,1,4.7852,"[""0.197"",""0.543"",""0.896"",""0.487""]","[1,1,1,0]",0,7,7,7,1,0,0,,,0,FALSE,,,,,,,,,,,,,,,,,,,,,,,,,,,,,,,
,5d4ca4c24f49b2001a7152b3,627c6766189a88f8213319e3,2022-05-11_20h51.41.435,classification_task,2021.2.3,MacIntel,59.97361161,627c6715c52fd12f31907bd0,,,,,,,,,,,,,,,,,,,,,,,a,1,4.886099999,"[""0.197"",""0.482"",""0.896"",""0.947""]","[1,0,1,1]",0,8,8,8,1,0,0,,,0,FALSE,,,,,,,,,,,,,,,,,,,,,,,,,,,,,,,
,5d4ca4c24f49b2001a7152b3,627c6766189a88f8213319e3,2022-05-11_20h51.41.435,classification_task,2021.2.3,MacIntel,59.97361161,627c6715c52fd12f31907bd0,,,,,,,,,,,,,,,,,,,,,,,l,1,3.968400001,"[""0.071"",""0.303"",""0.437"",""0.480""]","[1,1,1,0]",0,9,9,9,1,1,0,,,0,FALSE,,,,,,,,,,,,,,,,,,,,,,,,,,,,,,,
,5d4ca4c24f49b2001a7152b3,627c6766189a88f8213319e3,2022-05-11_20h51.41.435,classification_task,2021.2.3,MacIntel,59.97361161,627c6715c52fd12f31907bd0,,,,,,,,,,,,,,,,,,,,,,,l,1,5.5428,"[""0.491"",""0.303"",""0.437"",""0.729""]","[0,1,1,1]",0,10,10,10,1,1,0,,,0,FALSE,,,,,,,,,,,,,,,,,,,,,,,,,,,,,,,
,5d4ca4c24f49b2001a7152b3,627c6766189a88f8213319e3,2022-05-11_20h51.41.435,classification_task,2021.2.3,MacIntel,59.97361161,627c6715c52fd12f31907bd0,,,,,,,,,,,,,,,,,,,,,,,a,1,3.8989,"[""0.238"",""0.401"",""0.686"",""0.861""]","[1,1,0,1]",0,11,11,11,1,0,1,,,0,FALSE,,,,,,,,,,,,,,,,,,,,,,,,,,,,,,,
,5d4ca4c24f49b2001a7152b3,627c6766189a88f8213319e3,2022-05-11_20h51.41.435,classification_task,2021.2.3,MacIntel,59.97361161,627c6715c52fd12f31907bd0,,,,,,,,,,,,,,,,,,,,,,,l,1,2.8348,"[""0.071"",""0.303"",""0.507"",""0.729""]","[1,1,0,1]",0,12,12,12,1,1,0,,,0,FALSE,,,,,,,,,,,,,,,,,,,,,,,,,,,,,,,
,5d4ca4c24f49b2001a7152b3,627c6766189a88f8213319e3,2022-05-11_20h51.41.435,classification_task,2021.2.3,MacIntel,59.97361161,627c6715c52fd12f31907bd0,,,,,,,,,,,,,,,,,,,,,,,l,1,4.3492,"[""0.129"",""0.346"",""0.595"",""0.507""]","[1,1,1,0]",0,13,13,13,1,1,1,,,0,FALSE,,,,,,,,,,,,,,,,,,,,,,,,,,,,,,,
,5d4ca4c24f49b2001a7152b3,627c6766189a88f8213319e3,2022-05-11_20h51.41.435,classification_task,2021.2.3,MacIntel,59.97361161,627c6715c52fd12f31907bd0,,,,,,,,,,,,,,,,,,,,,,,l,1,2.2063,"[""0.129"",""0.480"",""0.595"",""0.789""]","[1,0,1,1]",0,14,14,14,1,1,1,,,0,FALSE,,,,,,,,,,,,,,,,,,,,,,,,,,,,,,,
,5d4ca4c24f49b2001a7152b3,627c6766189a88f8213319e3,2022-05-11_20h51.41.435,classification_task,2021.2.3,MacIntel,59.97361161,627c6715c52fd12f31907bd0,,,,,,,,,,,,,,,,,,,,,,,a,1,3.0106,"[""0.507"",""0.401"",""0.635"",""0.861""]","[0,1,1,1]",0,15,15,15,1,0,1,,,0,FALSE,,,,,,,,,,,,,,,,,,,,,,,,,,,,,,,
,5d4ca4c24f49b2001a7152b3,627c6766189a88f8213319e3,2022-05-11_20h51.41.435,classification_task,2021.2.3,MacIntel,59.97361161,627c6715c52fd12f31907bd0,,,,,,,,,,,,,,,,,,,,,,,a,1,2.2252,"[""0.238"",""0.401"",""0.635"",""0.677""]","[1,1,1,0]",0,16,16,16,1,0,1,,,0,FALSE,,,,,,,,,,,,,,,,,,,,,,,,,,,,,,,
,5d4ca4c24f49b2001a7152b3,627c6766189a88f8213319e3,2022-05-11_20h51.41.435,classification_task,2021.2.3,MacIntel,59.97361161,627c6715c52fd12f31907bd0,,,,,,,,,,,,,,,,,,,,,,,a,1,3.388799999,"[""0.675"",""0.543"",""0.896"",""0.947""]","[0,1,1,1]",0,17,17,17,1,0,0,,,0,FALSE,,,,,,,,,,,,,,,,,,,,,,,,,,,,,,,
,5d4ca4c24f49b2001a7152b3,627c6766189a88f8213319e3,2022-05-11_20h51.41.435,classification_task,2021.2.3,MacIntel,59.97361161,627c6715c52fd12f31907bd0,,,,,,,,,,,,,,,,,,,,,,,l,1,3.3383,"[""0.129"",""0.346"",""0.595"",""0.487""]","[1,1,1,0]",0,18,18,18,1,1,1,,,0,FALSE,,,,,,,,,,,,,,,,,,,,,,,,,,,,,,,
,5d4ca4c24f49b2001a7152b3,627c6766189a88f8213319e3,2022-05-11_20h51.41.435,classification_task,2021.2.3,MacIntel,59.97361161,627c6715c52fd12f31907bd0,,,,,,,,,,,,,,,,,,,,,,,a,1,3.6258,"[""0.238"",""0.675"",""0.635"",""0.861""]","[1,0,1,1]",0,19,19,19,1,0,1,,,0,FALSE,,,,,,,,,,,,,,,,,,,,,,,,,,,,,,,
,5d4ca4c24f49b2001a7152b3,627c6766189a88f8213319e3,2022-05-11_20h51.41.435,classification_task,2021.2.3,MacIntel,59.97361161,627c6715c52fd12f31907bd0,,,,,,,,,,,,,,,,,,,,,,,l,1,2.3985,"[""0.129"",""0.346"",""0.825"",""0.789""]","[1,1,0,1]",0,20,20,20,1,1,1,,,0,FALSE,,,,,,,,,,,,,,,,,,,,,,,,,,,,,,,
,5d4ca4c24f49b2001a7152b3,627c6766189a88f8213319e3,2022-05-11_20h51.41.435,classification_task,2021.2.3,MacIntel,59.97361161,627c6715c52fd12f31907bd0,,,,,,,,,,,,,,,,,,,,,,,a,1,2.4093,"[""0.238"",""0.401"",""0.675"",""0.861""]","[1,1,0,1]",0,21,21,21,1,0,1,,,0,FALSE,,,,,,,,,,,,,,,,,,,,,,,,,,,,,,,
,5d4ca4c24f49b2001a7152b3,627c6766189a88f8213319e3,2022-05-11_20h51.41.435,classification_task,2021.2.3,MacIntel,59.97361161,627c6715c52fd12f31907bd0,,,,,,,,,,,,,,,,,,,,,,,a,1,3.420599999,"[""0.197"",""0.543"",""0.507"",""0.947""]","[1,1,0,1]",0,22,22,22,1,0,0,,,0,FALSE,,,,,,,,,,,,,,,,,,,,,,,,,,,,,,,
,5d4ca4c24f49b2001a7152b3,627c6766189a88f8213319e3,2022-05-11_20h51.41.435,classification_task,2021.2.3,MacIntel,59.97361161,627c6715c52fd12f31907bd0,,,,,,,,,,,,,,,,,,,,,,,l,1,2.2202,"[""0.129"",""0.507"",""0.595"",""0.789""]","[1,0,1,1]",0,23,23,23,1,1,1,,,0,FALSE,,,,,,,,,,,,,,,,,,,,,,,,,,,,,,,
,5d4ca4c24f49b2001a7152b3,627c6766189a88f8213319e3,2022-05-11_20h51.41.435,classification_task,2021.2.3,MacIntel,59.97361161,627c6715c52fd12f31907bd0,,,,,,,,,,,,,,,,,,,,,,,l,1,2.7717,"[""0.071"",""0.510"",""0.437"",""0.729""]","[1,0,1,1]",0,24,24,24,1,1,0,,,0,FALSE,,,,,,,,,,,,,,,,,,,,,,,,,,,,,,,
,5d4ca4c24f49b2001a7152b3,627c6766189a88f8213319e3,2022-05-11_20h51.41.435,classification_task,2021.2.3,MacIntel,59.97361161,627c6715c52fd12f31907bd0,,,,,,,,,,,,,,,,,,,,,,,a,1,3.4335,"[""0.480"",""0.401"",""0.635"",""0.861""]","[0,1,1,1]",0,25,25,25,1,0,1,,,0,FALSE,,,,,,,,,,,,,,,,,,,,,,,,,,,,,,,
,5d4ca4c24f49b2001a7152b3,627c6766189a88f8213319e3,2022-05-11_20h51.41.435,classification_task,2021.2.3,MacIntel,59.97361161,627c6715c52fd12f31907bd0,,,,,,,,,,,,,,,,,,,,,,,a,1,4.1189,"[""0.197"",""0.677"",""0.896"",""0.947""]","[1,0,1,1]",0,26,26,26,1,0,0,,,0,FALSE,,,,,,,,,,,,,,,,,,,,,,,,,,,,,,,
,5d4ca4c24f49b2001a7152b3,627c6766189a88f8213319e3,2022-05-11_20h51.41.435,classification_task,2021.2.3,MacIntel,59.97361161,627c6715c52fd12f31907bd0,,,,,,,,,,,,,,,,,,,,,,,l,1,3.4171,"[""0.496"",""0.346"",""0.595"",""0.789""]","[0,1,1,1]",0,27,27,27,1,1,1,,,0,FALSE,,,,,,,,,,,,,,,,,,,,,,,,,,,,,,,
,5d4ca4c24f49b2001a7152b3,627c6766189a88f8213319e3,2022-05-11_20h51.41.435,classification_task,2021.2.3,MacIntel,59.97361161,627c6715c52fd12f31907bd0,,,,,,,,,,,,,,,,,,,,,,,l,1,2.7475,"[""0.824"",""0.303"",""0.437"",""0.729""]","[0,1,1,1]",0,28,28,28,1,1,0,,,0,FALSE,,,,,,,,,,,,,,,,,,,,,,,,,,,,,,,
,5d4ca4c24f49b2001a7152b3,627c6766189a88f8213319e3,2022-05-11_20h51.41.435,classification_task,2021.2.3,MacIntel,59.97361161,627c6715c52fd12f31907bd0,,,,,,,,,,,,,,,,,,,,,,,l,1,3.2766,"[""0.071"",""0.303"",""0.510"",""0.729""]","[1,1,0,1]",0,29,29,29,1,1,0,,,0,FALSE,,,,,,,,,,,,,,,,,,,,,,,,,,,,,,,
,5d4ca4c24f49b2001a7152b3,627c6766189a88f8213319e3,2022-05-11_20h51.41.435,classification_task,2021.2.3,MacIntel,59.97361161,627c6715c52fd12f31907bd0,,,,,,,,,,,,,,,,,,,,,,,a,1,2.3088,"[""0.197"",""0.543"",""0.896"",""0.677""]","[1,1,1,0]",0,30,30,30,1,0,0,,,0,FALSE,,,,,,,,,,,,,,,,,,,,,,,,,,,,,,,
,5d4ca4c24f49b2001a7152b3,627c6766189a88f8213319e3,2022-05-11_20h51.41.435,classification_task,2021.2.3,MacIntel,59.97361161,627c6715c52fd12f31907bd0,,,,,,,,,,,,,,,,,,,,,,,l,1,2.86,"[""0.071"",""0.303"",""0.437"",""0.496""]","[1,1,1,0]",0,31,31,31,1,1,0,,,0,FALSE,,,,,,,,,,,,,,,,,,,,,,,,,,,,,,,
,5d4ca4c24f49b2001a7152b3,627c6766189a88f8213319e3,2022-05-11_20h51.41.435,classification_task,2021.2.3,MacIntel,59.97361161,627c6715c52fd12f31907bd0,,,,,,,,,,,,,,,,,,,,,,,l,1,3.451599999,"[""0.129"",""0.346"",""0.677"",""0.789""]","[1,1,0,1]",0,32,32,32,1,1,1,,,0,FALSE,,,,,,,,,,,,,,,,,,,,,,,,,,,,,,,
,5d4ca4c24f49b2001a7152b3,627c6766189a88f8213319e3,2022-05-11_20h51.41.435,classification_task,2021.2.3,MacIntel,59.97361161,627c6715c52fd12f31907bd0,,,,,,,,,,,,,,,,,,,,,,,a,0,3.1452,"[""0.071"",""0.496"",""0.437"",""0.729""]","[1,0,1,1]",0,33,33,33,1,1,0,,,0,FALSE,,,,,,,,,,,,,,,,,,,,,,,,,,,,,,,
,5d4ca4c24f49b2001a7152b3,627c6766189a88f8213319e3,2022-05-11_20h51.41.435,classification_task,2021.2.3,MacIntel,59.97361161,627c6715c52fd12f31907bd0,,,,,,,,,,,,,,,,,,,,,,,l,0,1.9609,"[""0.238"",""0.401"",""0.635"",""0.676""]","[1,1,1,0]",0,34,34,34,1,0,1,,,0,FALSE,,,,,,,,,,,,,,,,,,,,,,,,,,,,,,,
,5d4ca4c24f49b2001a7152b3,627c6766189a88f8213319e3,2022-05-11_20h51.41.435,classification_task,2021.2.3,MacIntel,59.97361161,627c6715c52fd12f31907bd0,,,,,,,,,,,,,,,,,,,,,,,a,1,2.576400001,"[""0.238"",""0.401"",""0.510"",""0.861""]","[1,1,0,1]",0,35,35,35,1,0,1,,,0,FALSE,,,,,,,,,,,,,,,,,,,,,,,,,,,,,,,
,5d4ca4c24f49b2001a7152b3,627c6766189a88f8213319e3,2022-05-11_20h51.41.435,classification_task,2021.2.3,MacIntel,59.97361161,627c6715c52fd12f31907bd0,,,,,,,,,,,,,,,,,,,,,,,l,1,2.5354,"[""0.129"",""0.825"",""0.595"",""0.789""]","[1,0,1,1]",0,36,36,36,1,1,1,,,0,FALSE,,,,,,,,,,,,,,,,,,,,,,,,,,,,,,,
,5d4ca4c24f49b2001a7152b3,627c6766189a88f8213319e3,2022-05-11_20h51.41.435,classification_task,2021.2.3,MacIntel,59.97361161,627c6715c52fd12f31907bd0,,,,,,,,,,,,,,,,,,,,,,,a,0,2.143900001,"[""0.510"",""0.303"",""0.437"",""0.729""]","[0,1,1,1]",0,37,37,37,1,1,0,,,0,FALSE,,,,,,,,,,,,,,,,,,,,,,,,,,,,,,,
,5d4ca4c24f49b2001a7152b3,627c6766189a88f8213319e3,2022-05-11_20h51.41.435,classification_task,2021.2.3,MacIntel,59.97361161,627c6715c52fd12f31907bd0,,,,,,,,,,,,,,,,,,,,,,,a,1,3.6136,"[""0.197"",""0.543"",""0.896"",""0.686""]","[1,1,1,0]",0,38,38,38,1,0,0,,,0,FALSE,,,,,,,,,,,,,,,,,,,,,,,,,,,,,,,
,5d4ca4c24f49b2001a7152b3,627c6766189a88f8213319e3,2022-05-11_20h51.41.435,classification_task,2021.2.3,MacIntel,59.97361161,627c6715c52fd12f31907bd0,,,,,,,,,,,,,,,,,,,,,,,l,1,1.5436,"[""0.071"",""0.303"",""0.494"",""0.729""]","[1,1,0,1]",0,39,39,39,1,1,0,,,0,FALSE,,,,,,,,,,,,,,,,,,,,,,,,,,,,,,,
,5d4ca4c24f49b2001a7152b3,627c6766189a88f8213319e3,2022-05-11_20h51.41.435,classification_task,2021.2.3,MacIntel,59.97361161,627c6715c52fd12f31907bd0,,,,,,,,,,,,,,,,,,,,,,,l,1,1.451900001,"[""0.071"",""0.303"",""0.437"",""0.824""]","[1,1,1,0]",0,40,40,40,1,1,0,,,0,FALSE,,,,,,,,,,,,,,,,,,,,,,,,,,,,,,,
,5d4ca4c24f49b2001a7152b3,627c6766189a88f8213319e3,2022-05-11_20h51.41.435,classification_task,2021.2.3,MacIntel,59.97361161,627c6715c52fd12f31907bd0,,,,,,,,,,,,,,,,,,,,,,,l,0,3.7946,"[""0.824"",""0.401"",""0.635"",""0.861""]","[0,1,1,1]",0,41,41,41,1,0,1,,,0,FALSE,,,,,,,,,,,,,,,,,,,,,,,,,,,,,,,
,5d4ca4c24f49b2001a7152b3,627c6766189a88f8213319e3,2022-05-11_20h51.41.435,classification_task,2021.2.3,MacIntel,59.97361161,627c6715c52fd12f31907bd0,,,,,,,,,,,,,,,,,,,,,,,a,1,2.9613,"[""0.238"",""0.686"",""0.635"",""0.861""]","[1,0,1,1]",0,42,42,42,1,0,1,,,0,FALSE,,,,,,,,,,,,,,,,,,,,,,,,,,,,,,,
,5d4ca4c24f49b2001a7152b3,627c6766189a88f8213319e3,2022-05-11_20h51.41.435,classification_task,2021.2.3,MacIntel,59.97361161,627c6715c52fd12f31907bd0,,,,,,,,,,,,,,,,,,,,,,,l,0,3.076799999,"[""0.197"",""0.543"",""0.482"",""0.947""]","[1,1,0,1]",0,43,43,43,1,0,0,,,0,FALSE,,,,,,,,,,,,,,,,,,,,,,,,,,,,,,,
,5d4ca4c24f49b2001a7152b3,627c6766189a88f8213319e3,2022-05-11_20h51.41.435,classification_task,2021.2.3,MacIntel,59.97361161,627c6715c52fd12f31907bd0,,,,,,,,,,,,,,,,,,,,,,,a,0,1.674700001,"[""0.129"",""0.346"",""0.595"",""0.496""]","[1,1,1,0]",0,44,44,44,1,1,1,,,0,FALSE,,,,,,,,,,,,,,,,,,,,,,,,,,,,,,,
,5d4ca4c24f49b2001a7152b3,627c6766189a88f8213319e3,2022-05-11_20h51.41.435,classification_task,2021.2.3,MacIntel,59.97361161,627c6715c52fd12f31907bd0,,,,,,,,,,,,,,,,,,,,,,,l,0,2.301,"[""0.197"",""0.480"",""0.896"",""0.947""]","[1,0,1,1]",0,45,45,45,1,0,0,,,0,FALSE,,,,,,,,,,,,,,,,,,,,,,,,,,,,,,,
,5d4ca4c24f49b2001a7152b3,627c6766189a88f8213319e3,2022-05-11_20h51.41.435,classification_task,2021.2.3,MacIntel,59.97361161,627c6715c52fd12f31907bd0,,,,,,,,,,,,,,,,,,,,,,,l,0,2.4468,"[""0.491"",""0.543"",""0.896"",""0.947""]","[0,1,1,1]",0,46,46,46,1,0,0,,,0,FALSE,,,,,,,,,,,,,,,,,,,,,,,,,,,,,,,
,5d4ca4c24f49b2001a7152b3,627c6766189a88f8213319e3,2022-05-11_20h51.41.435,classification_task,2021.2.3,MacIntel,59.97361161,627c6715c52fd12f31907bd0,,,,,,,,,,,,,,,,,,,,,,,a,0,1.8386,"[""0.677"",""0.346"",""0.595"",""0.789""]","[0,1,1,1]",0,47,47,47,1,1,1,,,0,FALSE,,,,,,,,,,,,,,,,,,,,,,,,,,,,,,,
,5d4ca4c24f49b2001a7152b3,627c6766189a88f8213319e3,2022-05-11_20h51.41.435,classification_task,2021.2.3,MacIntel,59.97361161,627c6715c52fd12f31907bd0,,,,,,,,,,,,,,,,,,,,,,,l,1,1.9173,"[""0.071"",""0.303"",""0.510"",""0.729""]","[1,1,0,1]",0,48,48,48,1,1,0,,,0,FALSE,,,,,,,,,,,,,,,,,,,,,,,,,,,,,,,
,5d4ca4c24f49b2001a7152b3,627c6766189a88f8213319e3,2022-05-11_20h51.41.435,classification_task,2021.2.3,MacIntel,59.97361161,627c6715c52fd12f31907bd0,,,,,,,,,,,,,,,,,,,,,,,l,1,2.2438,"[""0.071"",""0.303"",""0.437"",""0.826""]","[1,1,1,0]",0,49,49,49,1,1,0,,,0,FALSE,,,,,,,,,,,,,,,,,,,,,,,,,,,,,,,
,5d4ca4c24f49b2001a7152b3,627c6766189a88f8213319e3,2022-05-11_20h51.41.435,classification_task,2021.2.3,MacIntel,59.97361161,627c6715c52fd12f31907bd0,,,,,,,,,,,,,,,,,,,,,,,a,1,2.300400001,"[""0.238"",""0.401"",""0.480"",""0.861""]","[1,1,0,1]",0,50,50,50,1,0,1,,,0,FALSE,,,,,,,,,,,,,,,,,,,,,,,,,,,,,,,
,5d4ca4c24f49b2001a7152b3,627c6766189a88f8213319e3,2022-05-11_20h51.41.435,classification_task,2021.2.3,MacIntel,59.97361161,627c6715c52fd12f31907bd0,,,,,,,,,,,,,,,,,,,,,,,l,0,3.246,"[""0.482"",""0.543"",""0.896"",""0.947""]","[0,1,1,1]",0,51,51,51,1,0,0,,,0,FALSE,,,,,,,,,,,,,,,,,,,,,,,,,,,,,,,
,5d4ca4c24f49b2001a7152b3,627c6766189a88f8213319e3,2022-05-11_20h51.41.435,classification_task,2021.2.3,MacIntel,59.97361161,627c6715c52fd12f31907bd0,,,,,,,,,,,,,,,,,,,,,,,a,0,1.844400001,"[""0.129"",""0.346"",""0.595"",""0.510""]","[1,1,1,0]",0,52,52,52,1,1,1,,,0,FALSE,,,,,,,,,,,,,,,,,,,,,,,,,,,,,,,
,5d4ca4c24f49b2001a7152b3,627c6766189a88f8213319e3,2022-05-11_20h51.41.435,classification_task,2021.2.3,MacIntel,59.97361161,627c6715c52fd12f31907bd0,,,,,,,,,,,,,,,,,,,,,,,a,1,2.1682,"[""0.238"",""0.401"",""0.635"",""0.496""]","[1,1,1,0]",0,53,53,53,1,0,1,,,0,FALSE,,,,,,,,,,,,,,,,,,,,,,,,,,,,,,,
,5d4ca4c24f49b2001a7152b3,627c6766189a88f8213319e3,2022-05-11_20h51.41.435,classification_task,2021.2.3,MacIntel,59.97361161,627c6715c52fd12f31907bd0,,,,,,,,,,,,,,,,,,,,,,,a,0,1.8127,"[""0.129"",""0.030"",""0.595"",""0.789""]","[1,0,1,1]",0,54,54,54,1,1,1,,,0,FALSE,,,,,,,,,,,,,,,,,,,,,,,,,,,,,,,
,5d4ca4c24f49b2001a7152b3,627c6766189a88f8213319e3,2022-05-11_20h51.41.435,classification_task,2021.2.3,MacIntel,59.97361161,627c6715c52fd12f31907bd0,,,,,,,,,,,,,,,,,,,,,,,l,0,1.812099999,"[""0.197"",""0.543"",""0.896"",""0.496""]","[1,1,1,0]",0,55,55,55,1,0,0,,,0,FALSE,,,,,,,,,,,,,,,,,,,,,,,,,,,,,,,
,5d4ca4c24f49b2001a7152b3,627c6766189a88f8213319e3,2022-05-11_20h51.41.435,classification_task,2021.2.3,MacIntel,59.97361161,627c6715c52fd12f31907bd0,,,,,,,,,,,,,,,,,,,,,,,a,1,1.4499,"[""0.197"",""0.496"",""0.896"",""0.947""]","[1,0,1,1]",0,56,56,56,1,0,0,,,0,FALSE,,,,,,,,,,,,,,,,,,,,,,,,,,,,,,,
,5d4ca4c24f49b2001a7152b3,627c6766189a88f8213319e3,2022-05-11_20h51.41.435,classification_task,2021.2.3,MacIntel,59.97361161,627c6715c52fd12f31907bd0,,,,,,,,,,,,,,,,,,,,,,,a,1,1.662,"[""0.238"",""0.507"",""0.635"",""0.861""]","[1,0,1,1]",0,57,57,57,1,0,1,,,0,FALSE,,,,,,,,,,,,,,,,,,,,,,,,,,,,,,,
,5d4ca4c24f49b2001a7152b3,627c6766189a88f8213319e3,2022-05-11_20h51.41.435,classification_task,2021.2.3,MacIntel,59.97361161,627c6715c52fd12f31907bd0,,,,,,,,,,,,,,,,,,,,,,,l,1,1.6009,"[""0.675"",""0.303"",""0.437"",""0.729""]","[0,1,1,1]",0,58,58,58,1,1,0,,,0,FALSE,,,,,,,,,,,,,,,,,,,,,,,,,,,,,,,
,5d4ca4c24f49b2001a7152b3,627c6766189a88f8213319e3,2022-05-11_20h51.41.435,classification_task,2021.2.3,MacIntel,59.97361161,627c6715c52fd12f31907bd0,,,,,,,,,,,,,,,,,,,,,,,l,0,2.8089,"[""0.197"",""0.543"",""0.826"",""0.947""]","[1,1,0,1]",0,59,59,59,1,0,0,,,0,FALSE,,,,,,,,,,,,,,,,,,,,,,,,,,,,,,,
,5d4ca4c24f49b2001a7152b3,627c6766189a88f8213319e3,2022-05-11_20h51.41.435,classification_task,2021.2.3,MacIntel,59.97361161,627c6715c52fd12f31907bd0,,,,,,,,,,,,,,,,,,,,,,,l,1,1.4923,"[""0.675"",""0.346"",""0.595"",""0.789""]","[0,1,1,1]",0,60,60,60,1,1,1,,,0,FALSE,,,,,,,,,,,,,,,,,,,,,,,,,,,,,,,
,5d4ca4c24f49b2001a7152b3,627c6766189a88f8213319e3,2022-05-11_20h51.41.435,classification_task,2021.2.3,MacIntel,59.97361161,627c6715c52fd12f31907bd0,,,,,,,,,,,,,,,,,,,,,,,a,0,2.1497,"[""0.071"",""0.510"",""0.437"",""0.729""]","[1,0,1,1]",0,61,61,61,1,1,0,,,0,FALSE,,,,,,,,,,,,,,,,,,,,,,,,,,,,,,,
,5d4ca4c24f49b2001a7152b3,627c6766189a88f8213319e3,2022-05-11_20h51.41.435,classification_task,2021.2.3,MacIntel,59.97361161,627c6715c52fd12f31907bd0,,,,,,,,,,,,,,,,,,,,,,,l,1,2.222400001,"[""0.129"",""0.346"",""0.030"",""0.789""]","[1,1,0,1]",0,62,62,62,1,1,1,,,0,FALSE,,,,,,,,,,,,,,,,,,,,,,,,,,,,,,,
,5d4ca4c24f49b2001a7152b3,627c6766189a88f8213319e3,2022-05-11_20h51.41.435,classification_task,2021.2.3,MacIntel,59.97361161,627c6715c52fd12f31907bd0,,,,,,,,,,,,,,,,,,,,,,,l,0,2.1843,"[""0.487"",""0.401"",""0.635"",""0.861""]","[0,1,1,1]",0,63,63,63,1,0,1,,,0,FALSE,,,,,,,,,,,,,,,,,,,,,,,,,,,,,,,
,5d4ca4c24f49b2001a7152b3,627c6766189a88f8213319e3,2022-05-11_20h51.41.435,classification_task,2021.2.3,MacIntel,59.97361161,627c6715c52fd12f31907bd0,,,,,,,,,,,,,,,,,,,,,,,,,,,,,,,,,,,,,,,0, ,,0,2.63713211,408.7049,0,0,0,0,1,2,1,,,,,,,,,,,,,,,,,,
,5d4ca4c24f49b2001a7152b3,627c6766189a88f8213319e3,2022-05-11_20h51.41.435,classification_task,2021.2.3,MacIntel,59.97361161,627c6715c52fd12f31907bd0,,,,,,,,,,,,,,,,,,,,,,,,,,,,,,,,,,,,,,,1,  ,,0,6.320426174,411.4047,0,0,0,0,1,2,1,,,,,,,,,,,,,,,,,,
,5d4ca4c24f49b2001a7152b3,627c6766189a88f8213319e3,2022-05-11_20h51.41.435,classification_task,2021.2.3,MacIntel,59.97361161,627c6715c52fd12f31907bd0,,,,,,,,,,,,,,,,,,,,,,,,,,,,,,,,,,,,,,,2,  ,,0,6.017510954,415.8386,0,0,0,0,1,2,1,,,,,,,,,,,,,,,,,,
,5d4ca4c24f49b2001a7152b3,627c6766189a88f8213319e3,2022-05-11_20h51.41.435,classification_task,2021.2.3,MacIntel,59.97361161,627c6715c52fd12f31907bd0,,,,,,,,,,,,,,,,,,,,,,,,,,,,,,,,,,,,,,,,,,,,,0,0,0,0,1,,1,,,,,,,,,,,,,,,,,,
,5d4ca4c24f49b2001a7152b3,627c6766189a88f8213319e3,2022-05-11_20h51.41.435,classification_task,2021.2.3,MacIntel,59.97361161,627c6715c52fd12f31907bd0,,,,,,,,,,,,,,,,,,,,,space,12.5383,a,0,8.313200001,"[""0.129"",""0.346"",""0.677"",""0.789""]","[1,1,0,1]",0,0,0,0,1,1,1,,,0,FALSE,,,,,,,,,,,,,,,,,,,,,,,,,,,,,,,
,5d4ca4c24f49b2001a7152b3,627c6766189a88f8213319e3,2022-05-11_20h51.41.435,classification_task,2021.2.3,MacIntel,59.97361161,627c6715c52fd12f31907bd0,,,,,,,,,,,,,,,,,,,,,,,a,1,1.7002,"[""0.030"",""0.543"",""0.896"",""0.947""]","[0,1,1,1]",0,1,1,1,1,0,0,,,0,FALSE,,,,,,,,,,,,,,,,,,,,,,,,,,,,,,,
,5d4ca4c24f49b2001a7152b3,627c6766189a88f8213319e3,2022-05-11_20h51.41.435,classification_task,2021.2.3,MacIntel,59.97361161,627c6715c52fd12f31907bd0,,,,,,,,,,,,,,,,,,,,,,,a,1,2.3208,"[""0.238"",""0.826"",""0.635"",""0.861""]","[1,0,1,1]",0,2,2,2,1,0,1,,,0,FALSE,,,,,,,,,,,,,,,,,,,,,,,,,,,,,,,
,5d4ca4c24f49b2001a7152b3,627c6766189a88f8213319e3,2022-05-11_20h51.41.435,classification_task,2021.2.3,MacIntel,59.97361161,627c6715c52fd12f31907bd0,,,,,,,,,,,,,,,,,,,,,,,a,0,2.5172,"[""0.129"",""0.346"",""0.595"",""0.826""]","[1,1,1,0]",0,3,3,3,1,1,1,,,0,FALSE,,,,,,,,,,,,,,,,,,,,,,,,,,,,,,,
,5d4ca4c24f49b2001a7152b3,627c6766189a88f8213319e3,2022-05-11_20h51.41.435,classification_task,2021.2.3,MacIntel,59.97361161,627c6715c52fd12f31907bd0,,,,,,,,,,,,,,,,,,,,,,,a,1,1.339599999,"[""0.238"",""0.401"",""0.635"",""0.686""]","[1,1,1,0]",0,4,4,4,1,0,1,,,0,FALSE,,,,,,,,,,,,,,,,,,,,,,,,,,,,,,,
,5d4ca4c24f49b2001a7152b3,627c6766189a88f8213319e3,2022-05-11_20h51.41.435,classification_task,2021.2.3,MacIntel,59.97361161,627c6715c52fd12f31907bd0,,,,,,,,,,,,,,,,,,,,,,,a,1,1.8567,"[""0.197"",""0.543"",""0.896"",""0.826""]","[1,1,1,0]",0,5,5,5,1,0,0,,,0,FALSE,,,,,,,,,,,,,,,,,,,,,,,,,,,,,,,
,5d4ca4c24f49b2001a7152b3,627c6766189a88f8213319e3,2022-05-11_20h51.41.435,classification_task,2021.2.3,MacIntel,59.97361161,627c6715c52fd12f31907bd0,,,,,,,,,,,,,,,,,,,,,,,l,1,1.606,"[""0.071"",""0.303"",""0.437"",""0.686""]","[1,1,1,0]",0,6,6,6,1,1,0,,,0,FALSE,,,,,,,,,,,,,,,,,,,,,,,,,,,,,,,
,5d4ca4c24f49b2001a7152b3,627c6766189a88f8213319e3,2022-05-11_20h51.41.435,classification_task,2021.2.3,MacIntel,59.97361161,627c6715c52fd12f31907bd0,,,,,,,,,,,,,,,,,,,,,,,l,1,2.1437,"[""0.129"",""0.480"",""0.595"",""0.789""]","[1,0,1,1]",0,7,7,7,1,1,1,,,0,FALSE,,,,,,,,,,,,,,,,,,,,,,,,,,,,,,,
,5d4ca4c24f49b2001a7152b3,627c6766189a88f8213319e3,2022-05-11_20h51.41.435,classification_task,2021.2.3,MacIntel,59.97361161,627c6715c52fd12f31907bd0,,,,,,,,,,,,,,,,,,,,,,,l,1,1.7224,"[""0.071"",""0.507"",""0.437"",""0.729""]","[1,0,1,1]",0,8,8,8,1,1,0,,,0,FALSE,,,,,,,,,,,,,,,,,,,,,,,,,,,,,,,
,5d4ca4c24f49b2001a7152b3,627c6766189a88f8213319e3,2022-05-11_20h51.41.435,classification_task,2021.2.3,MacIntel,59.97361161,627c6715c52fd12f31907bd0,,,,,,,,,,,,,,,,,,,,,,,l,1,1.0226,"[""0.071"",""0.303"",""0.825"",""0.729""]","[1,1,0,1]",0,9,9,9,1,1,0,,,0,FALSE,,,,,,,,,,,,,,,,,,,,,,,,,,,,,,,
,5d4ca4c24f49b2001a7152b3,627c6766189a88f8213319e3,2022-05-11_20h51.41.435,classification_task,2021.2.3,MacIntel,59.97361161,627c6715c52fd12f31907bd0,,,,,,,,,,,,,,,,,,,,,,,l,1,1.7815,"[""0.676"",""0.303"",""0.437"",""0.729""]","[0,1,1,1]",0,10,10,10,1,1,0,,,0,FALSE,,,,,,,,,,,,,,,,,,,,,,,,,,,,,,,
,5d4ca4c24f49b2001a7152b3,627c6766189a88f8213319e3,2022-05-11_20h51.41.435,classification_task,2021.2.3,MacIntel,59.97361161,627c6715c52fd12f31907bd0,,,,,,,,,,,,,,,,,,,,,,,a,1,1.7695,"[""0.197"",""0.543"",""0.487"",""0.947""]","[1,1,0,1]",0,11,11,11,1,0,0,,,0,FALSE,,,,,,,,,,,,,,,,,,,,,,,,,,,,,,,
,5d4ca4c24f49b2001a7152b3,627c6766189a88f8213319e3,2022-05-11_20h51.41.435,classification_task,2021.2.3,MacIntel,59.97361161,627c6715c52fd12f31907bd0,,,,,,,,,,,,,,,,,,,,,,,a,0,5.7563,"[""0.676"",""0.346"",""0.595"",""0.789""]","[0,1,1,1]",0,12,12,12,1,1,1,,,0,FALSE,,,,,,,,,,,,,,,,,,,,,,,,,,,,,,,
,5d4ca4c24f49b2001a7152b3,627c6766189a88f8213319e3,2022-05-11_20h51.41.435,classification_task,2021.2.3,MacIntel,59.97361161,627c6715c52fd12f31907bd0,,,,,,,,,,,,,,,,,,,,,,,a,1,1.9389,"[""0.824"",""0.401"",""0.635"",""0.861""]","[0,1,1,1]",0,13,13,13,1,0,1,,,0,FALSE,,,,,,,,,,,,,,,,,,,,,,,,,,,,,,,
,5d4ca4c24f49b2001a7152b3,627c6766189a88f8213319e3,2022-05-11_20h51.41.435,classification_task,2021.2.3,MacIntel,59.97361161,627c6715c52fd12f31907bd0,,,,,,,,,,,,,,,,,,,,,,,a,1,1.923700001,"[""0.238"",""0.401"",""0.496"",""0.861""]","[1,1,0,1]",0,14,14,14,1,0,1,,,0,FALSE,,,,,,,,,,,,,,,,,,,,,,,,,,,,,,,
,5d4ca4c24f49b2001a7152b3,627c6766189a88f8213319e3,2022-05-11_20h51.41.435,classification_task,2021.2.3,MacIntel,59.97361161,627c6715c52fd12f31907bd0,,,,,,,,,,,,,,,,,,,,,,,a,1,1.0287,"[""0.197"",""0.030"",""0.896"",""0.947""]","[1,0,1,1]",0,15,15,15,1,0,0,,,0,FALSE,,,,,,,,,,,,,,,,,,,,,,,,,,,,,,,
,5d4ca4c24f49b2001a7152b3,627c6766189a88f8213319e3,2022-05-11_20h51.41.435,classification_task,2021.2.3,MacIntel,59.97361161,627c6715c52fd12f31907bd0,,,,,,,,,,,,,,,,,,,,,,,l,1,1.6652,"[""0.071"",""0.303"",""0.825"",""0.729""]","[1,1,0,1]",0,16,16,16,1,1,0,,,0,FALSE,,,,,,,,,,,,,,,,,,,,,,,,,,,,,,,
,5d4ca4c24f49b2001a7152b3,627c6766189a88f8213319e3,2022-05-11_20h51.41.435,classification_task,2021.2.3,MacIntel,59.97361161,627c6715c52fd12f31907bd0,,,,,,,,,,,,,,,,,,,,,,,a,1,2.1754,"[""0.238"",""0.401"",""0.635"",""0.480""]","[1,1,1,0]",0,17,17,17,1,0,1,,,0,FALSE,,,,,,,,,,,,,,,,,,,,,,,,,,,,,,,
,5d4ca4c24f49b2001a7152b3,627c6766189a88f8213319e3,2022-05-11_20h51.41.435,classification_task,2021.2.3,MacIntel,59.97361161,627c6715c52fd12f31907bd0,,,,,,,,,,,,,,,,,,,,,,,a,1,1.3903,"[""0.238"",""0.401"",""0.482"",""0.861""]","[1,1,0,1]",0,18,18,18,1,0,1,,,0,FALSE,,,,,,,,,,,,,,,,,,,,,,,,,,,,,,,
,5d4ca4c24f49b2001a7152b3,627c6766189a88f8213319e3,2022-05-11_20h51.41.435,classification_task,2021.2.3,MacIntel,59.97361161,627c6715c52fd12f31907bd0,,,,,,,,,,,,,,,,,,,,,,,l,1,2.358,"[""0.496"",""0.303"",""0.437"",""0.729""]","[0,1,1,1]",0,19,19,19,1,1,0,,,0,FALSE,,,,,,,,,,,,,,,,,,,,,,,,,,,,,,,
,5d4ca4c24f49b2001a7152b3,627c6766189a88f8213319e3,2022-05-11_20h51.41.435,classification_task,2021.2.3,MacIntel,59.97361161,627c6715c52fd12f31907bd0,,,,,,,,,,,,,,,,,,,,,,,l,1,2.9854,"[""0.677"",""0.346"",""0.595"",""0.789""]","[0,1,1,1]",0,20,20,20,1,1,1,,,0,FALSE,,,,,,,,,,,,,,,,,,,,,,,,,,,,,,,
,5d4ca4c24f49b2001a7152b3,627c6766189a88f8213319e3,2022-05-11_20h51.41.435,classification_task,2021.2.3,MacIntel,59.97361161,627c6715c52fd12f31907bd0,,,,,,,,,,,,,,,,,,,,,,,l,1,2.9447,"[""0.129"",""0.346"",""0.825"",""0.789""]","[1,1,0,1]",0,21,21,21,1,1,1,,,0,FALSE,,,,,,,,,,,,,,,,,,,,,,,,,,,,,,,
,5d4ca4c24f49b2001a7152b3,627c6766189a88f8213319e3,2022-05-11_20h51.41.435,classification_task,2021.2.3,MacIntel,59.97361161,627c6715c52fd12f31907bd0,,,,,,,,,,,,,,,,,,,,,,,l,0,1.9784,"[""0.676"",""0.401"",""0.635"",""0.861""]","[0,1,1,1]",0,22,22,22,1,0,1,,,0,FALSE,,,,,,,,,,,,,,,,,,,,,,,,,,,,,,,
,5d4ca4c24f49b2001a7152b3,627c6766189a88f8213319e3,2022-05-11_20h51.41.435,classification_task,2021.2.3,MacIntel,59.97361161,627c6715c52fd12f31907bd0,,,,,,,,,,,,,,,,,,,,,,,a,1,2.2766,"[""0.507"",""0.543"",""0.896"",""0.947""]","[0,1,1,1]",0,23,23,23,1,0,0,,,0,FALSE,,,,,,,,,,,,,,,,,,,,,,,,,,,,,,,
,5d4ca4c24f49b2001a7152b3,627c6766189a88f8213319e3,2022-05-11_20h51.41.435,classification_task,2021.2.3,MacIntel,59.97361161,627c6715c52fd12f31907bd0,,,,,,,,,,,,,,,,,,,,,,,a,0,2.5213,"[""0.129"",""0.346"",""0.595"",""0.675""]","[1,1,1,0]",0,24,24,24,1,1,1,,,0,FALSE,,,,,,,,,,,,,,,,,,,,,,,,,,,,,,,
,5d4ca4c24f49b2001a7152b3,627c6766189a88f8213319e3,2022-05-11_20h51.41.435,classification_task,2021.2.3,MacIntel,59.97361161,627c6715c52fd12f31907bd0,,,,,,,,,,,,,,,,,,,,,,,a,1,0.968599999,"[""0.197"",""0.494"",""0.896"",""0.947""]","[1,0,1,1]",0,25,25,25,1,0,0,,,0,FALSE,,,,,,,,,,,,,,,,,,,,,,,,,,,,,,,
,5d4ca4c24f49b2001a7152b3,627c6766189a88f8213319e3,2022-05-11_20h51.41.435,classification_task,2021.2.3,MacIntel,59.97361161,627c6715c52fd12f31907bd0,,,,,,,,,,,,,,,,,,,,,,,a,1,2.2845,"[""0.197"",""0.543"",""0.487"",""0.947""]","[1,1,0,1]",0,26,26,26,1,0,0,,,0,FALSE,,,,,,,,,,,,,,,,,,,,,,,,,,,,,,,
,5d4ca4c24f49b2001a7152b3,627c6766189a88f8213319e3,2022-05-11_20h51.41.435,classification_task,2021.2.3,MacIntel,59.97361161,627c6715c52fd12f31907bd0,,,,,,,,,,,,,,,,,,,,,,,a,1,4.1474,"[""0.238"",""0.825"",""0.635"",""0.861""]","[1,0,1,1]",0,27,27,27,1,0,1,,,0,FALSE,,,,,,,,,,,,,,,,,,,,,,,,,,,,,,,
,5d4ca4c24f49b2001a7152b3,627c6766189a88f8213319e3,2022-05-11_20h51.41.435,classification_task,2021.2.3,MacIntel,59.97361161,627c6715c52fd12f31907bd0,,,,,,,,,,,,,,,,,,,,,,,a,1,2.1141,"[""0.197"",""0.543"",""0.896"",""0.510""]","[1,1,1,0]",0,28,28,28,1,0,0,,,0,FALSE,,,,,,,,,,,,,,,,,,,,,,,,,,,,,,,
,5d4ca4c24f49b2001a7152b3,627c6766189a88f8213319e3,2022-05-11_20h51.41.435,classification_task,2021.2.3,MacIntel,59.97361161,627c6715c52fd12f31907bd0,,,,,,,,,,,,,,,,,,,,,,,l,1,1.2127,"[""0.071"",""0.303"",""0.437"",""0.482""]","[1,1,1,0]",0,29,29,29,1,1,0,,,0,FALSE,,,,,,,,,,,,,,,,,,,,,,,,,,,,,,,
,5d4ca4c24f49b2001a7152b3,627c6766189a88f8213319e3,2022-05-11_20h51.41.435,classification_task,2021.2.3,MacIntel,59.97361161,627c6715c52fd12f31907bd0,,,,,,,,,,,,,,,,,,,,,,,a,0,1.876799999,"[""0.129"",""0.510"",""0.595"",""0.789""]","[1,0,1,1]",0,30,30,30,1,1,1,,,0,FALSE,,,,,,,,,,,,,,,,,,,,,,,,,,,,,,,
,5d4ca4c24f49b2001a7152b3,627c6766189a88f8213319e3,2022-05-11_20h51.41.435,classification_task,2021.2.3,MacIntel,59.97361161,627c6715c52fd12f31907bd0,,,,,,,,,,,,,,,,,,,,,,,l,1,1.4365,"[""0.071"",""0.824"",""0.437"",""0.729""]","[1,0,1,1]",0,31,31,31,1,1,0,,,0,FALSE,,,,,,,,,,,,,,,,,,,,,,,,,,,,,,,
,5d4ca4c24f49b2001a7152b3,627c6766189a88f8213319e3,2022-05-11_20h51.41.435,classification_task,2021.2.3,MacIntel,59.97361161,627c6715c52fd12f31907bd0,,,,,,,,,,,,,,,,,,,,,,,a,0,2.7095,"[""0.487"",""0.346"",""0.595"",""0.789""]","[0,1,1,1]",0,32,32,32,1,1,1,,,0,FALSE,,,,,,,,,,,,,,,,,,,,,,,,,,,,,,,
,5d4ca4c24f49b2001a7152b3,627c6766189a88f8213319e3,2022-05-11_20h51.41.435,classification_task,2021.2.3,MacIntel,59.97361161,627c6715c52fd12f31907bd0,,,,,,,,,,,,,,,,,,,,,,,a,1,1.2673,"[""0.494"",""0.543"",""0.896"",""0.947""]","[0,1,1,1]",0,33,33,33,1,0,0,,,0,FALSE,,,,,,,,,,,,,,,,,,,,,,,,,,,,,,,
,5d4ca4c24f49b2001a7152b3,627c6766189a88f8213319e3,2022-05-11_20h51.41.435,classification_task,2021.2.3,MacIntel,59.97361161,627c6715c52fd12f31907bd0,,,,,,,,,,,,,,,,,,,,,,,a,1,0.950099999,"[""0.197"",""0.824"",""0.896"",""0.947""]","[1,0,1,1]",0,34,34,34,1,0,0,,,0,FALSE,,,,,,,,,,,,,,,,,,,,,,,,,,,,,,,
,5d4ca4c24f49b2001a7152b3,627c6766189a88f8213319e3,2022-05-11_20h51.41.435,classification_task,2021.2.3,MacIntel,59.97361161,627c6715c52fd12f31907bd0,,,,,,,,,,,,,,,,,,,,,,,l,1,1.4072,"[""0.129"",""0.030"",""0.595"",""0.789""]","[1,0,1,1]",0,35,35,35,1,1,1,,,0,FALSE,,,,,,,,,,,,,,,,,,,,,,,,,,,,,,,
,5d4ca4c24f49b2001a7152b3,627c6766189a88f8213319e3,2022-05-11_20h51.41.435,classification_task,2021.2.3,MacIntel,59.97361161,627c6715c52fd12f31907bd0,,,,,,,,,,,,,,,,,,,,,,,a,0,1.545,"[""0.129"",""0.346"",""0.595"",""0.676""]","[1,1,1,0]",0,36,36,36,1,1,1,,,0,FALSE,,,,,,,,,,,,,,,,,,,,,,,,,,,,,,,
,5d4ca4c24f49b2001a7152b3,627c6766189a88f8213319e3,2022-05-11_20h51.41.435,classification_task,2021.2.3,MacIntel,59.97361161,627c6715c52fd12f31907bd0,,,,,,,,,,,,,,,,,,,,,,,l,1,1.1195,"[""0.071"",""0.480"",""0.437"",""0.729""]","[1,0,1,1]",0,37,37,37,1,1,0,,,0,FALSE,,,,,,,,,,,,,,,,,,,,,,,,,,,,,,,
,5d4ca4c24f49b2001a7152b3,627c6766189a88f8213319e3,2022-05-11_20h51.41.435,classification_task,2021.2.3,MacIntel,59.97361161,627c6715c52fd12f31907bd0,,,,,,,,,,,,,,,,,,,,,,,l,1,3.0482,"[""0.494"",""0.303"",""0.437"",""0.729""]","[0,1,1,1]",0,38,38,38,1,1,0,,,0,FALSE,,,,,,,,,,,,,,,,,,,,,,,,,,,,,,,
,5d4ca4c24f49b2001a7152b3,627c6766189a88f8213319e3,2022-05-11_20h51.41.435,classification_task,2021.2.3,MacIntel,59.97361161,627c6715c52fd12f31907bd0,,,,,,,,,,,,,,,,,,,,,,,a,1,1.3874,"[""0.197"",""0.543"",""0.896"",""0.482""]","[1,1,1,0]",0,39,39,39,1,0,0,,,0,FALSE,,,,,,,,,,,,,,,,,,,,,,,,,,,,,,,
,5d4ca4c24f49b2001a7152b3,627c6766189a88f8213319e3,2022-05-11_20h51.41.435,classification_task,2021.2.3,MacIntel,59.97361161,627c6715c52fd12f31907bd0,,,,,,,,,,,,,,,,,,,,,,,l,0,1.4047,"[""0.238"",""0.401"",""0.676"",""0.861""]","[1,1,0,1]",0,40,40,40,1,0,1,,,0,FALSE,,,,,,,,,,,,,,,,,,,,,,,,,,,,,,,
,5d4ca4c24f49b2001a7152b3,627c6766189a88f8213319e3,2022-05-11_20h51.41.435,classification_task,2021.2.3,MacIntel,59.97361161,627c6715c52fd12f31907bd0,,,,,,,,,,,,,,,,,,,,,,,a,1,0.9693,"[""0.197"",""0.543"",""0.496"",""0.947""]","[1,1,0,1]",0,41,41,41,1,0,0,,,0,FALSE,,,,,,,,,,,,,,,,,,,,,,,,,,,,,,,
,5d4ca4c24f49b2001a7152b3,627c6766189a88f8213319e3,2022-05-11_20h51.41.435,classification_task,2021.2.3,MacIntel,59.97361161,627c6715c52fd12f31907bd0,,,,,,,,,,,,,,,,,,,,,,,l,1,1.1835,"[""0.071"",""0.303"",""0.824"",""0.729""]","[1,1,0,1]",0,42,42,42,1,1,0,,,0,FALSE,,,,,,,,,,,,,,,,,,,,,,,,,,,,,,,
,5d4ca4c24f49b2001a7152b3,627c6766189a88f8213319e3,2022-05-11_20h51.41.435,classification_task,2021.2.3,MacIntel,59.97361161,627c6715c52fd12f31907bd0,,,,,,,,,,,,,,,,,,,,,,,l,1,1.2701,"[""0.071"",""0.303"",""0.437"",""0.510""]","[1,1,1,0]",0,43,43,43,1,1,0,,,0,FALSE,,,,,,,,,,,,,,,,,,,,,,,,,,,,,,,
,5d4ca4c24f49b2001a7152b3,627c6766189a88f8213319e3,2022-05-11_20h51.41.435,classification_task,2021.2.3,MacIntel,59.97361161,627c6715c52fd12f31907bd0,,,,,,,,,,,,,,,,,,,,,,,l,1,3.586599999,"[""0.129"",""0.346"",""0.487"",""0.789""]","[1,1,0,1]",0,44,44,44,1,1,1,,,0,FALSE,,,,,,,,,,,,,,,,,,,,,,,,,,,,,,,
,5d4ca4c24f49b2001a7152b3,627c6766189a88f8213319e3,2022-05-11_20h51.41.435,classification_task,2021.2.3,MacIntel,59.97361161,627c6715c52fd12f31907bd0,,,,,,,,,,,,,,,,,,,,,,,a,1,1.157,"[""0.238"",""0.401"",""0.635"",""0.677""]","[1,1,1,0]",0,45,45,45,1,0,1,,,0,FALSE,,,,,,,,,,,,,,,,,,,,,,,,,,,,,,,
,5d4ca4c24f49b2001a7152b3,627c6766189a88f8213319e3,2022-05-11_20h51.41.435,classification_task,2021.2.3,MacIntel,59.97361161,627c6715c52fd12f31907bd0,,,,,,,,,,,,,,,,,,,,,,,a,1,1.2382,"[""0.238"",""0.675"",""0.635"",""0.861""]","[1,0,1,1]",0,46,46,46,1,0,1,,,0,FALSE,,,,,,,,,,,,,,,,,,,,,,,,,,,,,,,
,5d4ca4c24f49b2001a7152b3,627c6766189a88f8213319e3,2022-05-11_20h51.41.435,classification_task,2021.2.3,MacIntel,59.97361161,627c6715c52fd12f31907bd0,,,,,,,,,,,,,,,,,,,,,,,a,1,3.9874,"[""0.686"",""0.401"",""0.635"",""0.861""]","[0,1,1,1]",0,47,47,47,1,0,1,,,0,FALSE,,,,,,,,,,,,,,,,,,,,,,,,,,,,,,,
,5d4ca4c24f49b2001a7152b3,627c6766189a88f8213319e3,2022-05-11_20h51.41.435,classification_task,2021.2.3,MacIntel,59.97361161,627c6715c52fd12f31907bd0,,,,,,,,,,,,,,,,,,,,,,,l,1,1.7638,"[""0.071"",""0.303"",""0.437"",""0.826""]","[1,1,1,0]",0,48,48,48,1,1,0,,,0,FALSE,,,,,,,,,,,,,,,,,,,,,,,,,,,,,,,
,5d4ca4c24f49b2001a7152b3,627c6766189a88f8213319e3,2022-05-11_20h51.41.435,classification_task,2021.2.3,MacIntel,59.97361161,627c6715c52fd12f31907bd0,,,,,,,,,,,,,,,,,,,,,,,a,1,5.005099999,"[""0.238"",""0.401"",""0.824"",""0.861""]","[1,1,0,1]",0,49,49,49,1,0,1,,,0,FALSE,,,,,,,,,,,,,,,,,,,,,,,,,,,,,,,
,5d4ca4c24f49b2001a7152b3,627c6766189a88f8213319e3,2022-05-11_20h51.41.435,classification_task,2021.2.3,MacIntel,59.97361161,627c6715c52fd12f31907bd0,,,,,,,,,,,,,,,,,,,,,,,l,1,1.8581,"[""0.129"",""0.346"",""0.595"",""0.480""]","[1,1,1,0]",0,50,50,50,1,1,1,,,0,FALSE,,,,,,,,,,,,,,,,,,,,,,,,,,,,,,,
,5d4ca4c24f49b2001a7152b3,627c6766189a88f8213319e3,2022-05-11_20h51.41.435,classification_task,2021.2.3,MacIntel,59.97361161,627c6715c52fd12f31907bd0,,,,,,,,,,,,,,,,,,,,,,,a,1,1.5506,"[""0.197"",""0.543"",""0.896"",""0.496""]","[1,1,1,0]",0,51,51,51,1,0,0,,,0,FALSE,,,,,,,,,,,,,,,,,,,,,,,,,,,,,,,
,5d4ca4c24f49b2001a7152b3,627c6766189a88f8213319e3,2022-05-11_20h51.41.435,classification_task,2021.2.3,MacIntel,59.97361161,627c6715c52fd12f31907bd0,,,,,,,,,,,,,,,,,,,,,,,l,1,2.2493,"[""0.494"",""0.303"",""0.437"",""0.729""]","[0,1,1,1]",0,52,52,52,1,1,0,,,0,FALSE,,,,,,,,,,,,,,,,,,,,,,,,,,,,,,,
,5d4ca4c24f49b2001a7152b3,627c6766189a88f8213319e3,2022-05-11_20h51.41.435,classification_task,2021.2.3,MacIntel,59.97361161,627c6715c52fd12f31907bd0,,,,,,,,,,,,,,,,,,,,,,,l,0,4.9357,"[""0.676"",""0.401"",""0.635"",""0.861""]","[0,1,1,1]",0,53,53,53,1,0,1,,,0,FALSE,,,,,,,,,,,,,,,,,,,,,,,,,,,,,,,
,5d4ca4c24f49b2001a7152b3,627c6766189a88f8213319e3,2022-05-11_20h51.41.435,classification_task,2021.2.3,MacIntel,59.97361161,627c6715c52fd12f31907bd0,,,,,,,,,,,,,,,,,,,,,,,a,1,0.9137,"[""0.197"",""0.507"",""0.896"",""0.947""]","[1,0,1,1]",0,54,54,54,1,0,0,,,0,FALSE,,,,,,,,,,,,,,,,,,,,,,,,,,,,,,,
,5d4ca4c24f49b2001a7152b3,627c6766189a88f8213319e3,2022-05-11_20h51.41.435,classification_task,2021.2.3,MacIntel,59.97361161,627c6715c52fd12f31907bd0,,,,,,,,,,,,,,,,,,,,,,,l,1,3.8059,"[""0.129"",""0.825"",""0.595"",""0.789""]","[1,0,1,1]",0,55,55,55,1,1,1,,,0,FALSE,,,,,,,,,,,,,,,,,,,,,,,,,,,,,,,
,5d4ca4c24f49b2001a7152b3,627c6766189a88f8213319e3,2022-05-11_20h51.41.435,classification_task,2021.2.3,MacIntel,59.97361161,627c6715c52fd12f31907bd0,,,,,,,,,,,,,,,,,,,,,,,l,1,4.144799999,"[""0.030"",""0.346"",""0.595"",""0.789""]","[0,1,1,1]",0,56,56,56,1,1,1,,,0,FALSE,,,,,,,,,,,,,,,,,,,,,,,,,,,,,,,
,5d4ca4c24f49b2001a7152b3,627c6766189a88f8213319e3,2022-05-11_20h51.41.435,classification_task,2021.2.3,MacIntel,59.97361161,627c6715c52fd12f31907bd0,,,,,,,,,,,,,,,,,,,,,,,l,1,2.1303,"[""0.071"",""0.030"",""0.437"",""0.729""]","[1,0,1,1]",0,57,57,57,1,1,0,,,0,FALSE,,,,,,,,,,,,,,,,,,,,,,,,,,,,,,,
,5d4ca4c24f49b2001a7152b3,627c6766189a88f8213319e3,2022-05-11_20h51.41.435,classification_task,2021.2.3,MacIntel,59.97361161,627c6715c52fd12f31907bd0,,,,,,,,,,,,,,,,,,,,,,,l,1,2.617900001,"[""0.129"",""0.346"",""0.677"",""0.789""]","[1,1,0,1]",0,58,58,58,1,1,1,,,0,FALSE,,,,,,,,,,,,,,,,,,,,,,,,,,,,,,,
,5d4ca4c24f49b2001a7152b3,627c6766189a88f8213319e3,2022-05-11_20h51.41.435,classification_task,2021.2.3,MacIntel,59.97361161,627c6715c52fd12f31907bd0,,,,,,,,,,,,,,,,,,,,,,,a,1,2.197200001,"[""0.677"",""0.543"",""0.896"",""0.947""]","[0,1,1,1]",0,59,59,59,1,0,0,,,0,FALSE,,,,,,,,,,,,,,,,,,,,,,,,,,,,,,,
,5d4ca4c24f49b2001a7152b3,627c6766189a88f8213319e3,2022-05-11_20h51.41.435,classification_task,2021.2.3,MacIntel,59.97361161,627c6715c52fd12f31907bd0,,,,,,,,,,,,,,,,,,,,,,,a,1,2.043400001,"[""0.238"",""0.401"",""0.635"",""0.487""]","[1,1,1,0]",0,60,60,60,1,0,1,,,0,FALSE,,,,,,,,,,,,,,,,,,,,,,,,,,,,,,,
,5d4ca4c24f49b2001a7152b3,627c6766189a88f8213319e3,2022-05-11_20h51.41.435,classification_task,2021.2.3,MacIntel,59.97361161,627c6715c52fd12f31907bd0,,,,,,,,,,,,,,,,,,,,,,,l,1,1.9379,"[""0.071"",""0.303"",""0.507"",""0.729""]","[1,1,0,1]",0,61,61,61,1,1,0,,,0,FALSE,,,,,,,,,,,,,,,,,,,,,,,,,,,,,,,
,5d4ca4c24f49b2001a7152b3,627c6766189a88f8213319e3,2022-05-11_20h51.41.435,classification_task,2021.2.3,MacIntel,59.97361161,627c6715c52fd12f31907bd0,,,,,,,,,,,,,,,,,,,,,,,a,1,1.7504,"[""0.197"",""0.543"",""0.496"",""0.947""]","[1,1,0,1]",0,62,62,62,1,0,0,,,0,FALSE,,,,,,,,,,,,,,,,,,,,,,,,,,,,,,,
,5d4ca4c24f49b2001a7152b3,627c6766189a88f8213319e3,2022-05-11_20h51.41.435,classification_task,2021.2.3,MacIntel,59.97361161,627c6715c52fd12f31907bd0,,,,,,,,,,,,,,,,,,,,,,,a,1,3.0494,"[""0.238"",""0.482"",""0.635"",""0.861""]","[1,0,1,1]",0,63,63,63,1,0,1,,,0,FALSE,,,,,,,,,,,,,,,,,,,,,,,,,,,,,,,
,5d4ca4c24f49b2001a7152b3,627c6766189a88f8213319e3,2022-05-11_20h51.41.435,classification_task,2021.2.3,MacIntel,59.97361161,627c6715c52fd12f31907bd0,,,,,,,,,,,,,,,,,,,,,,,,,,,,,,,,,,,,,,,0, ,,0,0.881903108,228.8911,0,1,1,1,1,2,2,,,,,,,,,,,,,,,,,,
,5d4ca4c24f49b2001a7152b3,627c6766189a88f8213319e3,2022-05-11_20h51.41.435,classification_task,2021.2.3,MacIntel,59.97361161,627c6715c52fd12f31907bd0,,,,,,,,,,,,,,,,,,,,,,,,,,,,,,,,,,,,,,,1,  ,,0,7.489071801,231.5246,0,1,1,1,1,2,2,,,,,,,,,,,,,,,,,,
,5d4ca4c24f49b2001a7152b3,627c6766189a88f8213319e3,2022-05-11_20h51.41.435,classification_task,2021.2.3,MacIntel,59.97361161,627c6715c52fd12f31907bd0,,,,,,,,,,,,,,,,,,,,,,,,,,,,,,,,,,,,,,,2,  ,,0,6.032882771,233.8927,0,1,1,1,1,2,2,,,,,,,,,,,,,,,,,,
,5d4ca4c24f49b2001a7152b3,627c6766189a88f8213319e3,2022-05-11_20h51.41.435,classification_task,2021.2.3,MacIntel,59.97361161,627c6715c52fd12f31907bd0,,,,,,,,,,,,,,,,,,,,,,,,,,,,,,,,,,,,,,,,,,,,,0,1,1,1,1,,2,,,,,,,,,,,,,,,,,,
,5d4ca4c24f49b2001a7152b3,627c6766189a88f8213319e3,2022-05-11_20h51.41.435,classification_task,2021.2.3,MacIntel,59.97361161,627c6715c52fd12f31907bd0,,,,,,,,,,,,,,,,,,,,,space,6.094,l,1,3.037599999,"[""0.071"",""0.676"",""0.437"",""0.729""]","[1,0,1,1]",0,0,0,0,1,1,0,,,0,FALSE,,,,,,,,,,,,,,,,,,,,,,,,,,,,,,,
,5d4ca4c24f49b2001a7152b3,627c6766189a88f8213319e3,2022-05-11_20h51.41.435,classification_task,2021.2.3,MacIntel,59.97361161,627c6715c52fd12f31907bd0,,,,,,,,,,,,,,,,,,,,,,,a,1,4.3025,"[""0.238"",""0.675"",""0.635"",""0.861""]","[1,0,1,1]",0,1,1,1,1,0,1,,,0,FALSE,,,,,,,,,,,,,,,,,,,,,,,,,,,,,,,
,5d4ca4c24f49b2001a7152b3,627c6766189a88f8213319e3,2022-05-11_20h51.41.435,classification_task,2021.2.3,MacIntel,59.97361161,627c6715c52fd12f31907bd0,,,,,,,,,,,,,,,,,,,,,,,a,0,4.5542,"[""0.129"",""0.346"",""0.030"",""0.789""]","[1,1,0,1]",0,2,2,2,1,1,1,,,0,FALSE,,,,,,,,,,,,,,,,,,,,,,,,,,,,,,,
,5d4ca4c24f49b2001a7152b3,627c6766189a88f8213319e3,2022-05-11_20h51.41.435,classification_task,2021.2.3,MacIntel,59.97361161,627c6715c52fd12f31907bd0,,,,,,,,,,,,,,,,,,,,,,,a,0,2.4409,"[""0.480"",""0.346"",""0.595"",""0.789""]","[0,1,1,1]",0,3,3,3,1,1,1,,,0,FALSE,,,,,,,,,,,,,,,,,,,,,,,,,,,,,,,
,5d4ca4c24f49b2001a7152b3,627c6766189a88f8213319e3,2022-05-11_20h51.41.435,classification_task,2021.2.3,MacIntel,59.97361161,627c6715c52fd12f31907bd0,,,,,,,,,,,,,,,,,,,,,,,a,1,4.5568,"[""0.197"",""0.543"",""0.491"",""0.947""]","[1,1,0,1]",0,4,4,4,1,0,0,,,0,FALSE,,,,,,,,,,,,,,,,,,,,,,,,,,,,,,,
,5d4ca4c24f49b2001a7152b3,627c6766189a88f8213319e3,2022-05-11_20h51.41.435,classification_task,2021.2.3,MacIntel,59.97361161,627c6715c52fd12f31907bd0,,,,,,,,,,,,,,,,,,,,,,,l,0,2.5752,"[""0.494"",""0.543"",""0.896"",""0.947""]","[0,1,1,1]",0,5,5,5,1,0,0,,,0,FALSE,,,,,,,,,,,,,,,,,,,,,,,,,,,,,,,
,5d4ca4c24f49b2001a7152b3,627c6766189a88f8213319e3,2022-05-11_20h51.41.435,classification_task,2021.2.3,MacIntel,59.97361161,627c6715c52fd12f31907bd0,,,,,,,,,,,,,,,,,,,,,,,a,1,1.8227,"[""0.238"",""0.401"",""0.482"",""0.861""]","[1,1,0,1]",0,6,6,6,1,0,1,,,0,FALSE,,,,,,,,,,,,,,,,,,,,,,,,,,,,,,,
,5d4ca4c24f49b2001a7152b3,627c6766189a88f8213319e3,2022-05-11_20h51.41.435,classification_task,2021.2.3,MacIntel,59.97361161,627c6715c52fd12f31907bd0,,,,,,,,,,,,,,,,,,,,,,,a,0,3.2846,"[""0.071"",""0.303"",""0.437"",""0.480""]","[1,1,1,0]",0,7,7,7,1,1,0,,,0,FALSE,,,,,,,,,,,,,,,,,,,,,,,,,,,,,,,
,5d4ca4c24f49b2001a7152b3,627c6766189a88f8213319e3,2022-05-11_20h51.41.435,classification_task,2021.2.3,MacIntel,59.97361161,627c6715c52fd12f31907bd0,,,,,,,,,,,,,,,,,,,,,,,l,1,1.374900001,"[""0.129"",""0.346"",""0.595"",""0.676""]","[1,1,1,0]",0,8,8,8,1,1,1,,,0,FALSE,,,,,,,,,,,,,,,,,,,,,,,,,,,,,,,
,5d4ca4c24f49b2001a7152b3,627c6766189a88f8213319e3,2022-05-11_20h51.41.435,classification_task,2021.2.3,MacIntel,59.97361161,627c6715c52fd12f31907bd0,,,,,,,,,,,,,,,,,,,,,,,a,1,1.5252,"[""0.238"",""0.401"",""0.635"",""0.686""]","[1,1,1,0]",0,9,9,9,1,0,1,,,0,FALSE,,,,,,,,,,,,,,,,,,,,,,,,,,,,,,,
,5d4ca4c24f49b2001a7152b3,627c6766189a88f8213319e3,2022-05-11_20h51.41.435,classification_task,2021.2.3,MacIntel,59.97361161,627c6715c52fd12f31907bd0,,,,,,,,,,,,,,,,,,,,,,,a,0,2.8536,"[""0.487"",""0.303"",""0.437"",""0.729""]","[0,1,1,1]",0,10,10,10,1,1,0,,,0,FALSE,,,,,,,,,,,,,,,,,,,,,,,,,,,,,,,
,5d4ca4c24f49b2001a7152b3,627c6766189a88f8213319e3,2022-05-11_20h51.41.435,classification_task,2021.2.3,MacIntel,59.97361161,627c6715c52fd12f31907bd0,,,,,,,,,,,,,,,,,,,,,,,l,0,2.441900001,"[""0.510"",""0.401"",""0.635"",""0.861""]","[0,1,1,1]",0,11,11,11,1,0,1,,,0,FALSE,,,,,,,,,,,,,,,,,,,,,,,,,,,,,,,
,5d4ca4c24f49b2001a7152b3,627c6766189a88f8213319e3,2022-05-11_20h51.41.435,classification_task,2021.2.3,MacIntel,59.97361161,627c6715c52fd12f31907bd0,,,,,,,,,,,,,,,,,,,,,,,l,0,3.2056,"[""0.197"",""0.675"",""0.896"",""0.947""]","[1,0,1,1]",0,12,12,12,1,0,0,,,0,FALSE,,,,,,,,,,,,,,,,,,,,,,,,,,,,,,,
,5d4ca4c24f49b2001a7152b3,627c6766189a88f8213319e3,2022-05-11_20h51.41.435,classification_task,2021.2.3,MacIntel,59.97361161,627c6715c52fd12f31907bd0,,,,,,,,,,,,,,,,,,,,,,,a,0,3.4079,"[""0.071"",""0.303"",""0.482"",""0.729""]","[1,1,0,1]",0,13,13,13,1,1,0,,,0,FALSE,,,,,,,,,,,,,,,,,,,,,,,,,,,,,,,
,5d4ca4c24f49b2001a7152b3,627c6766189a88f8213319e3,2022-05-11_20h51.41.435,classification_task,2021.2.3,MacIntel,59.97361161,627c6715c52fd12f31907bd0,,,,,,,,,,,,,,,,,,,,,,,l,1,1.890900001,"[""0.129"",""0.480"",""0.595"",""0.789""]","[1,0,1,1]",0,14,14,14,1,1,1,,,0,FALSE,,,,,,,,,,,,,,,,,,,,,,,,,,,,,,,
,5d4ca4c24f49b2001a7152b3,627c6766189a88f8213319e3,2022-05-11_20h51.41.435,classification_task,2021.2.3,MacIntel,59.97361161,627c6715c52fd12f31907bd0,,,,,,,,,,,,,,,,,,,,,,,l,0,6.0767,"[""0.197"",""0.543"",""0.896"",""0.676""]","[1,1,1,0]",0,15,15,15,1,0,0,,,0,FALSE,,,,,,,,,,,,,,,,,,,,,,,,,,,,,,,
,5d4ca4c24f49b2001a7152b3,627c6766189a88f8213319e3,2022-05-11_20h51.41.435,classification_task,2021.2.3,MacIntel,59.97361161,627c6715c52fd12f31907bd0,,,,,,,,,,,,,,,,,,,,,,,l,1,1.908,"[""0.129"",""0.346"",""0.686"",""0.789""]","[1,1,0,1]",0,16,16,16,1,1,1,,,0,FALSE,,,,,,,,,,,,,,,,,,,,,,,,,,,,,,,
,5d4ca4c24f49b2001a7152b3,627c6766189a88f8213319e3,2022-05-11_20h51.41.435,classification_task,2021.2.3,MacIntel,59.97361161,627c6715c52fd12f31907bd0,,,,,,,,,,,,,,,,,,,,,,,l,0,4.0032,"[""0.675"",""0.401"",""0.635"",""0.861""]","[0,1,1,1]",0,17,17,17,1,0,1,,,0,FALSE,,,,,,,,,,,,,,,,,,,,,,,,,,,,,,,
,5d4ca4c24f49b2001a7152b3,627c6766189a88f8213319e3,2022-05-11_20h51.41.435,classification_task,2021.2.3,MacIntel,59.97361161,627c6715c52fd12f31907bd0,,,,,,,,,,,,,,,,,,,,,,,l,0,2.457,"[""0.496"",""0.543"",""0.896"",""0.947""]","[0,1,1,1]",0,18,18,18,1,0,0,,,0,FALSE,,,,,,,,,,,,,,,,,,,,,,,,,,,,,,,
,5d4ca4c24f49b2001a7152b3,627c6766189a88f8213319e3,2022-05-11_20h51.41.435,classification_task,2021.2.3,MacIntel,59.97361161,627c6715c52fd12f31907bd0,,,,,,,,,,,,,,,,,,,,,,,a,0,2.5913,"[""0.071"",""0.675"",""0.437"",""0.729""]","[1,0,1,1]",0,19,19,19,1,1,0,,,0,FALSE,,,,,,,,,,,,,,,,,,,,,,,,,,,,,,,
,5d4ca4c24f49b2001a7152b3,627c6766189a88f8213319e3,2022-05-11_20h51.41.435,classification_task,2021.2.3,MacIntel,59.97361161,627c6715c52fd12f31907bd0,,,,,,,,,,,,,,,,,,,,,,,a,1,1.732700001,"[""0.197"",""0.543"",""0.896"",""0.676""]","[1,1,1,0]",0,20,20,20,1,0,0,,,0,FALSE,,,,,,,,,,,,,,,,,,,,,,,,,,,,,,,
,5d4ca4c24f49b2001a7152b3,627c6766189a88f8213319e3,2022-05-11_20h51.41.435,classification_task,2021.2.3,MacIntel,59.97361161,627c6715c52fd12f31907bd0,,,,,,,,,,,,,,,,,,,,,,,a,0,3.0257,"[""0.030"",""0.303"",""0.437"",""0.729""]","[0,1,1,1]",0,21,21,21,1,1,0,,,0,FALSE,,,,,,,,,,,,,,,,,,,,,,,,,,,,,,,
,5d4ca4c24f49b2001a7152b3,627c6766189a88f8213319e3,2022-05-11_20h51.41.435,classification_task,2021.2.3,MacIntel,59.97361161,627c6715c52fd12f31907bd0,,,,,,,,,,,,,,,,,,,,,,,a,1,2.0488,"[""0.238"",""0.826"",""0.635"",""0.861""]","[1,0,1,1]",0,22,22,22,1,0,1,,,0,FALSE,,,,,,,,,,,,,,,,,,,,,,,,,,,,,,,
,5d4ca4c24f49b2001a7152b3,627c6766189a88f8213319e3,2022-05-11_20h51.41.435,classification_task,2021.2.3,MacIntel,59.97361161,627c6715c52fd12f31907bd0,,,,,,,,,,,,,,,,,,,,,,,a,1,1.236,"[""0.238"",""0.401"",""0.494"",""0.861""]","[1,1,0,1]",0,23,23,23,1,0,1,,,0,FALSE,,,,,,,,,,,,,,,,,,,,,,,,,,,,,,,
,5d4ca4c24f49b2001a7152b3,627c6766189a88f8213319e3,2022-05-11_20h51.41.435,classification_task,2021.2.3,MacIntel,59.97361161,627c6715c52fd12f31907bd0,,,,,,,,,,,,,,,,,,,,,,,a,1,1.0258,"[""0.238"",""0.401"",""0.635"",""0.825""]","[1,1,1,0]",0,24,24,24,1,0,1,,,0,FALSE,,,,,,,,,,,,,,,,,,,,,,,,,,,,,,,
,5d4ca4c24f49b2001a7152b3,627c6766189a88f8213319e3,2022-05-11_20h51.41.435,classification_task,2021.2.3,MacIntel,59.97361161,627c6715c52fd12f31907bd0,,,,,,,,,,,,,,,,,,,,,,,l,0,5.3385,"[""0.197"",""0.543"",""0.507"",""0.947""]","[1,1,0,1]",0,25,25,25,1,0,0,,,0,FALSE,,,,,,,,,,,,,,,,,,,,,,,,,,,,,,,
,5d4ca4c24f49b2001a7152b3,627c6766189a88f8213319e3,2022-05-11_20h51.41.435,classification_task,2021.2.3,MacIntel,59.97361161,627c6715c52fd12f31907bd0,,,,,,,,,,,,,,,,,,,,,,,l,1,1.7584,"[""0.129"",""0.346"",""0.595"",""0.494""]","[1,1,1,0]",0,26,26,26,1,1,1,,,0,FALSE,,,,,,,,,,,,,,,,,,,,,,,,,,,,,,,
,5d4ca4c24f49b2001a7152b3,627c6766189a88f8213319e3,2022-05-11_20h51.41.435,classification_task,2021.2.3,MacIntel,59.97361161,627c6715c52fd12f31907bd0,,,,,,,,,,,,,,,,,,,,,,,l,1,1.0188,"[""0.129"",""0.482"",""0.595"",""0.789""]","[1,0,1,1]",0,27,27,27,1,1,1,,,0,FALSE,,,,,,,,,,,,,,,,,,,,,,,,,,,,,,,
,5d4ca4c24f49b2001a7152b3,627c6766189a88f8213319e3,2022-05-11_20h51.41.435,classification_task,2021.2.3,MacIntel,59.97361161,627c6715c52fd12f31907bd0,,,,,,,,,,,,,,,,,,,,,,,a,0,2.4344,"[""0.071"",""0.303"",""0.437"",""0.825""]","[1,1,1,0]",0,28,28,28,1,1,0,,,0,FALSE,,,,,,,,,,,,,,,,,,,,,,,,,,,,,,,
,5d4ca4c24f49b2001a7152b3,627c6766189a88f8213319e3,2022-05-11_20h51.41.435,classification_task,2021.2.3,MacIntel,59.97361161,627c6715c52fd12f31907bd0,,,,,,,,,,,,,,,,,,,,,,,l,0,1.8593,"[""0.197"",""0.677"",""0.896"",""0.947""]","[1,0,1,1]",0,29,29,29,1,0,0,,,0,FALSE,,,,,,,,,,,,,,,,,,,,,,,,,,,,,,,
,5d4ca4c24f49b2001a7152b3,627c6766189a88f8213319e3,2022-05-11_20h51.41.435,classification_task,2021.2.3,MacIntel,59.97361161,627c6715c52fd12f31907bd0,,,,,,,,,,,,,,,,,,,,,,,l,1,3.2019,"[""0.507"",""0.346"",""0.595"",""0.789""]","[0,1,1,1]",0,30,30,30,1,1,1,,,0,FALSE,,,,,,,,,,,,,,,,,,,,,,,,,,,,,,,
,5d4ca4c24f49b2001a7152b3,627c6766189a88f8213319e3,2022-05-11_20h51.41.435,classification_task,2021.2.3,MacIntel,59.97361161,627c6715c52fd12f31907bd0,,,,,,,,,,,,,,,,,,,,,,,a,0,2.077400001,"[""0.071"",""0.303"",""0.494"",""0.729""]","[1,1,0,1]",0,31,31,31,1,1,0,,,0,FALSE,,,,,,,,,,,,,,,,,,,,,,,,,,,,,,,
,5d4ca4c24f49b2001a7152b3,627c6766189a88f8213319e3,2022-05-11_20h51.41.435,classification_task,2021.2.3,MacIntel,59.97361161,627c6715c52fd12f31907bd0,,,,,,,,,,,,,,,,,,,,,,,l,1,1.742900001,"[""0.071"",""0.303"",""0.030"",""0.729""]","[1,1,0,1]",0,32,32,32,1,1,0,,,0,FALSE,,,,,,,,,,,,,,,,,,,,,,,,,,,,,,,
,5d4ca4c24f49b2001a7152b3,627c6766189a88f8213319e3,2022-05-11_20h51.41.435,classification_task,2021.2.3,MacIntel,59.97361161,627c6715c52fd12f31907bd0,,,,,,,,,,,,,,,,,,,,,,,a,1,4.6353,"[""0.197"",""0.543"",""0.482"",""0.947""]","[1,1,0,1]",0,33,33,33,1,0,0,,,0,FALSE,,,,,,,,,,,,,,,,,,,,,,,,,,,,,,,
,5d4ca4c24f49b2001a7152b3,627c6766189a88f8213319e3,2022-05-11_20h51.41.435,classification_task,2021.2.3,MacIntel,59.97361161,627c6715c52fd12f31907bd0,,,,,,,,,,,,,,,,,,,,,,,l,1,1.943900001,"[""0.071"",""0.494"",""0.437"",""0.729""]","[1,0,1,1]",0,34,34,34,1,1,0,,,0,FALSE,,,,,,,,,,,,,,,,,,,,,,,,,,,,,,,
,5d4ca4c24f49b2001a7152b3,627c6766189a88f8213319e3,2022-05-11_20h51.41.435,classification_task,2021.2.3,MacIntel,59.97361161,627c6715c52fd12f31907bd0,,,,,,,,,,,,,,,,,,,,,,,l,1,1.7105,"[""0.677"",""0.303"",""0.437"",""0.729""]","[0,1,1,1]",0,35,35,35,1,1,0,,,0,FALSE,,,,,,,,,,,,,,,,,,,,,,,,,,,,,,,
,5d4ca4c24f49b2001a7152b3,627c6766189a88f8213319e3,2022-05-11_20h51.41.435,classification_task,2021.2.3,MacIntel,59.97361161,627c6715c52fd12f31907bd0,,,,,,,,,,,,,,,,,,,,,,,l,1,1.8043,"[""0.129"",""0.346"",""0.595"",""0.675""]","[1,1,1,0]",0,36,36,36,1,1,1,,,0,FALSE,,,,,,,,,,,,,,,,,,,,,,,,,,,,,,,
,5d4ca4c24f49b2001a7152b3,627c6766189a88f8213319e3,2022-05-11_20h51.41.435,classification_task,2021.2.3,MacIntel,59.97361161,627c6715c52fd12f31907bd0,,,,,,,,,,,,,,,,,,,,,,,a,1,5.3532,"[""0.197"",""0.507"",""0.896"",""0.947""]","[1,0,1,1]",0,37,37,37,1,0,0,,,0,FALSE,,,,,,,,,,,,,,,,,,,,,,,,,,,,,,,
,5d4ca4c24f49b2001a7152b3,627c6766189a88f8213319e3,2022-05-11_20h51.41.435,classification_task,2021.2.3,MacIntel,59.97361161,627c6715c52fd12f31907bd0,,,,,,,,,,,,,,,,,,,,,,,a,1,5.779799999,"[""0.197"",""0.543"",""0.896"",""0.494""]","[1,1,1,0]",0,38,38,38,1,0,0,,,0,FALSE,,,,,,,,,,,,,,,,,,,,,,,,,,,,,,,
,5d4ca4c24f49b2001a7152b3,627c6766189a88f8213319e3,2022-05-11_20h51.41.435,classification_task,2021.2.3,MacIntel,59.97361161,627c6715c52fd12f31907bd0,,,,,,,,,,,,,,,,,,,,,,,a,1,2.4958,"[""0.238"",""0.686"",""0.635"",""0.861""]","[1,0,1,1]",0,39,39,39,1,0,1,,,0,FALSE,,,,,,,,,,,,,,,,,,,,,,,,,,,,,,,
,5d4ca4c24f49b2001a7152b3,627c6766189a88f8213319e3,2022-05-11_20h51.41.435,classification_task,2021.2.3,MacIntel,59.97361161,627c6715c52fd12f31907bd0,,,,,,,,,,,,,,,,,,,,,,,l,1,1.9434,"[""0.071"",""0.303"",""0.437"",""0.487""]","[1,1,1,0]",0,40,40,40,1,1,0,,,0,FALSE,,,,,,,,,,,,,,,,,,,,,,,,,,,,,,,
,5d4ca4c24f49b2001a7152b3,627c6766189a88f8213319e3,2022-05-11_20h51.41.435,classification_task,2021.2.3,MacIntel,59.97361161,627c6715c52fd12f31907bd0,,,,,,,,,,,,,,,,,,,,,,,l,1,1.1352,"[""0.129"",""0.676"",""0.595"",""0.789""]","[1,0,1,1]",0,41,41,41,1,1,1,,,0,FALSE,,,,,,,,,,,,,,,,,,,,,,,,,,,,,,,
,5d4ca4c24f49b2001a7152b3,627c6766189a88f8213319e3,2022-05-11_20h51.41.435,classification_task,2021.2.3,MacIntel,59.97361161,627c6715c52fd12f31907bd0,,,,,,,,,,,,,,,,,,,,,,,l,0,3.968099999,"[""0.676"",""0.543"",""0.896"",""0.947""]","[0,1,1,1]",0,42,42,42,1,0,0,,,0,FALSE,,,,,,,,,,,,,,,,,,,,,,,,,,,,,,,
,5d4ca4c24f49b2001a7152b3,627c6766189a88f8213319e3,2022-05-11_20h51.41.435,classification_task,2021.2.3,MacIntel,59.97361161,627c6715c52fd12f31907bd0,,,,,,,,,,,,,,,,,,,,,,,a,1,1.9619,"[""0.238"",""0.401"",""0.635"",""0.510""]","[1,1,1,0]",0,43,43,43,1,0,1,,,0,FALSE,,,,,,,,,,,,,,,,,,,,,,,,,,,,,,,
,5d4ca4c24f49b2001a7152b3,627c6766189a88f8213319e3,2022-05-11_20h51.41.435,classification_task,2021.2.3,MacIntel,59.97361161,627c6715c52fd12f31907bd0,,,,,,,,,,,,,,,,,,,,,,,l,1,1.3687,"[""0.129"",""0.346"",""0.507"",""0.789""]","[1,1,0,1]",0,44,44,44,1,1,1,,,0,FALSE,,,,,,,,,,,,,,,,,,,,,,,,,,,,,,,
,5d4ca4c24f49b2001a7152b3,627c6766189a88f8213319e3,2022-05-11_20h51.41.435,classification_task,2021.2.3,MacIntel,59.97361161,627c6715c52fd12f31907bd0,,,,,,,,,,,,,,,,,,,,,,,a,1,2.410599999,"[""0.677"",""0.401"",""0.635"",""0.861""]","[0,1,1,1]",0,45,45,45,1,0,1,,,0,FALSE,,,,,,,,,,,,,,,,,,,,,,,,,,,,,,,
,5d4ca4c24f49b2001a7152b3,627c6766189a88f8213319e3,2022-05-11_20h51.41.435,classification_task,2021.2.3,MacIntel,59.97361161,627c6715c52fd12f31907bd0,,,,,,,,,,,,,,,,,,,,,,,a,1,1.5844,"[""0.238"",""0.401"",""0.675"",""0.861""]","[1,1,0,1]",0,46,46,46,1,0,1,,,0,FALSE,,,,,,,,,,,,,,,,,,,,,,,,,,,,,,,
,5d4ca4c24f49b2001a7152b3,627c6766189a88f8213319e3,2022-05-11_20h51.41.435,classification_task,2021.2.3,MacIntel,59.97361161,627c6715c52fd12f31907bd0,,,,,,,,,,,,,,,,,,,,,,,a,0,2.6401,"[""0.487"",""0.346"",""0.595"",""0.789""]","[0,1,1,1]",0,47,47,47,1,1,1,,,0,FALSE,,,,,,,,,,,,,,,,,,,,,,,,,,,,,,,
,5d4ca4c24f49b2001a7152b3,627c6766189a88f8213319e3,2022-05-11_20h51.41.435,classification_task,2021.2.3,MacIntel,59.97361161,627c6715c52fd12f31907bd0,,,,,,,,,,,,,,,,,,,,,,,l,1,1.779599999,"[""0.071"",""0.826"",""0.437"",""0.729""]","[1,0,1,1]",0,48,48,48,1,1,0,,,0,FALSE,,,,,,,,,,,,,,,,,,,,,,,,,,,,,,,
,5d4ca4c24f49b2001a7152b3,627c6766189a88f8213319e3,2022-05-11_20h51.41.435,classification_task,2021.2.3,MacIntel,59.97361161,627c6715c52fd12f31907bd0,,,,,,,,,,,,,,,,,,,,,,,a,1,1.377799999,"[""0.238"",""0.401"",""0.675"",""0.861""]","[1,1,0,1]",0,49,49,49,1,0,1,,,0,FALSE,,,,,,,,,,,,,,,,,,,,,,,,,,,,,,,
,5d4ca4c24f49b2001a7152b3,627c6766189a88f8213319e3,2022-05-11_20h51.41.435,classification_task,2021.2.3,MacIntel,59.97361161,627c6715c52fd12f31907bd0,,,,,,,,,,,,,,,,,,,,,,,l,1,3.4963,"[""0.487"",""0.303"",""0.437"",""0.729""]","[0,1,1,1]",0,50,50,50,1,1,0,,,0,FALSE,,,,,,,,,,,,,,,,,,,,,,,,,,,,,,,
,5d4ca4c24f49b2001a7152b3,627c6766189a88f8213319e3,2022-05-11_20h51.41.435,classification_task,2021.2.3,MacIntel,59.97361161,627c6715c52fd12f31907bd0,,,,,,,,,,,,,,,,,,,,,,,l,1,0.907700001,"[""0.129"",""0.346"",""0.595"",""0.686""]","[1,1,1,0]",0,51,51,51,1,1,1,,,0,FALSE,,,,,,,,,,,,,,,,,,,,,,,,,,,,,,,
,5d4ca4c24f49b2001a7152b3,627c6766189a88f8213319e3,2022-05-11_20h51.41.435,classification_task,2021.2.3,MacIntel,59.97361161,627c6715c52fd12f31907bd0,,,,,,,,,,,,,,,,,,,,,,,a,1,1.0002,"[""0.238"",""0.401"",""0.635"",""0.507""]","[1,1,1,0]",0,52,52,52,1,0,1,,,0,FALSE,,,,,,,,,,,,,,,,,,,,,,,,,,,,,,,
,5d4ca4c24f49b2001a7152b3,627c6766189a88f8213319e3,2022-05-11_20h51.41.435,classification_task,2021.2.3,MacIntel,59.97361161,627c6715c52fd12f31907bd0,,,,,,,,,,,,,,,,,,,,,,,l,1,2.3115,"[""0.129"",""0.496"",""0.595"",""0.789""]","[1,0,1,1]",0,53,53,53,1,1,1,,,0,FALSE,,,,,,,,,,,,,,,,,,,,,,,,,,,,,,,
,5d4ca4c24f49b2001a7152b3,627c6766189a88f8213319e3,2022-05-11_20h51.41.435,classification_task,2021.2.3,MacIntel,59.97361161,627c6715c52fd12f31907bd0,,,,,,,,,,,,,,,,,,,,,,,l,0,3.3333,"[""0.676"",""0.401"",""0.635"",""0.861""]","[0,1,1,1]",0,54,54,54,1,0,1,,,0,FALSE,,,,,,,,,,,,,,,,,,,,,,,,,,,,,,,
,5d4ca4c24f49b2001a7152b3,627c6766189a88f8213319e3,2022-05-11_20h51.41.435,classification_task,2021.2.3,MacIntel,59.97361161,627c6715c52fd12f31907bd0,,,,,,,,,,,,,,,,,,,,,,,a,1,1.0591,"[""0.238"",""0.496"",""0.635"",""0.861""]","[1,0,1,1]",0,55,55,55,1,0,1,,,0,FALSE,,,,,,,,,,,,,,,,,,,,,,,,,,,,,,,
,5d4ca4c24f49b2001a7152b3,627c6766189a88f8213319e3,2022-05-11_20h51.41.435,classification_task,2021.2.3,MacIntel,59.97361161,627c6715c52fd12f31907bd0,,,,,,,,,,,,,,,,,,,,,,,l,0,3.2619,"[""0.675"",""0.543"",""0.896"",""0.947""]","[0,1,1,1]",0,56,56,56,1,0,0,,,0,FALSE,,,,,,,,,,,,,,,,,,,,,,,,,,,,,,,
,5d4ca4c24f49b2001a7152b3,627c6766189a88f8213319e3,2022-05-11_20h51.41.435,classification_task,2021.2.3,MacIntel,59.97361161,627c6715c52fd12f31907bd0,,,,,,,,,,,,,,,,,,,,,,,l,1,1.7307,"[""0.129"",""0.346"",""0.824"",""0.789""]","[1,1,0,1]",0,57,57,57,1,1,1,,,0,FALSE,,,,,,,,,,,,,,,,,,,,,,,,,,,,,,,
,5d4ca4c24f49b2001a7152b3,627c6766189a88f8213319e3,2022-05-11_20h51.41.435,classification_task,2021.2.3,MacIntel,59.97361161,627c6715c52fd12f31907bd0,,,,,,,,,,,,,,,,,,,,,,,a,1,3.3274,"[""0.197"",""0.825"",""0.896"",""0.947""]","[1,0,1,1]",0,58,58,58,1,0,0,,,0,FALSE,,,,,,,,,,,,,,,,,,,,,,,,,,,,,,,
,5d4ca4c24f49b2001a7152b3,627c6766189a88f8213319e3,2022-05-11_20h51.41.435,classification_task,2021.2.3,MacIntel,59.97361161,627c6715c52fd12f31907bd0,,,,,,,,,,,,,,,,,,,,,,,a,0,2.413099999,"[""0.496"",""0.346"",""0.595"",""0.789""]","[0,1,1,1]",0,59,59,59,1,1,1,,,0,FALSE,,,,,,,,,,,,,,,,,,,,,,,,,,,,,,,
,5d4ca4c24f49b2001a7152b3,627c6766189a88f8213319e3,2022-05-11_20h51.41.435,classification_task,2021.2.3,MacIntel,59.97361161,627c6715c52fd12f31907bd0,,,,,,,,,,,,,,,,,,,,,,,l,1,2.105599999,"[""0.071"",""0.303"",""0.437"",""0.487""]","[1,1,1,0]",0,60,60,60,1,1,0,,,0,FALSE,,,,,,,,,,,,,,,,,,,,,,,,,,,,,,,
,5d4ca4c24f49b2001a7152b3,627c6766189a88f8213319e3,2022-05-11_20h51.41.435,classification_task,2021.2.3,MacIntel,59.97361161,627c6715c52fd12f31907bd0,,,,,,,,,,,,,,,,,,,,,,,l,1,1.4906,"[""0.071"",""0.303"",""0.675"",""0.729""]","[1,1,0,1]",0,61,61,61,1,1,0,,,0,FALSE,,,,,,,,,,,,,,,,,,,,,,,,,,,,,,,
,5d4ca4c24f49b2001a7152b3,627c6766189a88f8213319e3,2022-05-11_20h51.41.435,classification_task,2021.2.3,MacIntel,59.97361161,627c6715c52fd12f31907bd0,,,,,,,,,,,,,,,,,,,,,,,a,1,2.318,"[""0.197"",""0.543"",""0.896"",""0.494""]","[1,1,1,0]",0,62,62,62,1,0,0,,,0,FALSE,,,,,,,,,,,,,,,,,,,,,,,,,,,,,,,
,5d4ca4c24f49b2001a7152b3,627c6766189a88f8213319e3,2022-05-11_20h51.41.435,classification_task,2021.2.3,MacIntel,59.97361161,627c6715c52fd12f31907bd0,,,,,,,,,,,,,,,,,,,,,,,a,1,2.9637,"[""0.197"",""0.543"",""0.030"",""0.947""]","[1,1,0,1]",0,63,63,63,1,0,0,,,0,FALSE,,,,,,,,,,,,,,,,,,,,,,,,,,,,,,,
,5d4ca4c24f49b2001a7152b3,627c6766189a88f8213319e3,2022-05-11_20h51.41.435,classification_task,2021.2.3,MacIntel,59.97361161,627c6715c52fd12f31907bd0,,,,,,,,,,,,,,,,,,,,,,,,,,,,,,,,,,,,,,,0, ,,0,3.651542865,247.5195,0,2,2,2,1,2,3,,,,,,,,,,,,,,,,,,
,5d4ca4c24f49b2001a7152b3,627c6766189a88f8213319e3,2022-05-11_20h51.41.435,classification_task,2021.2.3,MacIntel,59.97361161,627c6715c52fd12f31907bd0,,,,,,,,,,,,,,,,,,,,,,,,,,,,,,,,,,,,,,,1,  ,,0,7.709702588,249.8674,0,2,2,2,1,2,3,,,,,,,,,,,,,,,,,,
,5d4ca4c24f49b2001a7152b3,627c6766189a88f8213319e3,2022-05-11_20h51.41.435,classification_task,2021.2.3,MacIntel,59.97361161,627c6715c52fd12f31907bd0,,,,,,,,,,,,,,,,,,,,,,,,,,,,,,,,,,,,,,,2,  ,,0,5.068979415,253.6197,0,2,2,2,1,2,3,,,,,,,,,,,,,,,,,,
,5d4ca4c24f49b2001a7152b3,627c6766189a88f8213319e3,2022-05-11_20h51.41.435,classification_task,2021.2.3,MacIntel,59.97361161,627c6715c52fd12f31907bd0,,,,,,,,,,,,,,,,,,,,,,,,,,,,,,,,,,,,,,,,,,,,,0,2,2,2,1,,3,,,,,,,,,,,,,,,,,,
,5d4ca4c24f49b2001a7152b3,627c6766189a88f8213319e3,2022-05-11_20h51.41.435,classification_task,2021.2.3,MacIntel,59.97361161,627c6715c52fd12f31907bd0,,,,,,,,,,,,,,,,,,,,,,,,,,,,,,,,,,,,,,,,,,,,,,,,,,,,,I believe the aid is a competent performer,,0.7,0,5,950.6724,0,0,0,0,1,0,,,,,
,5d4ca4c24f49b2001a7152b3,627c6766189a88f8213319e3,2022-05-11_20h51.41.435,classification_task,2021.2.3,MacIntel,59.97361161,627c6715c52fd12f31907bd0,,,,,,,,,,,,,,,,,,,,,,,,,,,,,,,,,,,,,,,,,,,,,,,,,,,,,I trust the aid,,0.7,0,4,923.5083,0,0,0,0,1,0,,,,,
,5d4ca4c24f49b2001a7152b3,627c6766189a88f8213319e3,2022-05-11_20h51.41.435,classification_task,2021.2.3,MacIntel,59.97361161,627c6715c52fd12f31907bd0,,,,,,,,,,,,,,,,,,,,,,,,,,,,,,,,,,,,,,,,,,,,,,,,,,,,,I have confidence in the advice given by the aid,,0.7,0,4,924.5481,0,0,0,0,1,0,,,,,
,5d4ca4c24f49b2001a7152b3,627c6766189a88f8213319e3,2022-05-11_20h51.41.435,classification_task,2021.2.3,MacIntel,59.97361161,627c6715c52fd12f31907bd0,,,,,,,,,,,,,,,,,,,,,,,,,,,,,,,,,,,,,,,,,,,,,,,,,,,,,I can depend on the aid,,0.7,0,4,925.9146,0,0,0,0,1,0,,,,,
,5d4ca4c24f49b2001a7152b3,627c6766189a88f8213319e3,2022-05-11_20h51.41.435,classification_task,2021.2.3,MacIntel,59.97361161,627c6715c52fd12f31907bd0,,,,,,,,,,,,,,,,,,,,,,,,,,,,,,,,,,,,,,,,,,,,,,,,,,,,,I can rely on the aid to behave in consistent ways,,0.7,0,5,928.6457,0,0,0,0,1,0,,,,,
,5d4ca4c24f49b2001a7152b3,627c6766189a88f8213319e3,2022-05-11_20h51.41.435,classification_task,2021.2.3,MacIntel,59.97361161,627c6715c52fd12f31907bd0,,,,,,,,,,,,,,,,,,,,,,,,,,,,,,,,,,,,,,,,,,,,,,,,,,,,,I can rely on the aid to do its best every time I take its advice,,0.7,0,5,930.2776,0,0,0,0,1,0,,,,,
,5d4ca4c24f49b2001a7152b3,627c6766189a88f8213319e3,2022-05-11_20h51.41.435,classification_task,2021.2.3,MacIntel,59.97361161,627c6715c52fd12f31907bd0,,,,,,,,,,,,,,,,,,,,,,,,,,,,,,,,,,,,,,,,,,,,,,,,,,,,,"On trials you completed with assistance from the aid, how frequently did you think the aid was correct?",,0.7,0,95%,,0,0,0,0,1,0,,,,,
,5d4ca4c24f49b2001a7152b3,627c6766189a88f8213319e3,2022-05-11_20h51.41.435,classification_task,2021.2.3,MacIntel,59.97361161,627c6715c52fd12f31907bd0,,,,,,,,,,,,,,,,,,,,,,,,,,,,,,,,,,,,,,,,,,,,,,,,,,,,,"On trials you completed without the aid, how frequently did you think you were correct?",,0.7,0,70%,,0,0,0,0,1,0,,,,,
,5d4ca4c24f49b2001a7152b3,627c6766189a88f8213319e3,2022-05-11_20h51.41.435,classification_task,2021.2.3,MacIntel,59.97361161,627c6715c52fd12f31907bd0,,,,,,,,,,,,,,,,,,,,,,,,,,,,,,,,,,,,,,,,,,,,,,,,,,,,,,,,,,,0,0,0,0,1,,,,,,
,5d4ca4c24f49b2001a7152b3,627c6766189a88f8213319e3,2022-05-11_20h51.41.435,classification_task,2021.2.3,MacIntel,59.97361161,627c6715c52fd12f31907bd0,,,,,,,,,,,,,,,,,,,,,,,,,,,,,,,,,,,,,,,,,,,,,,,,,,,,,,,,,,,,,,,,,space,6.1223,958.0377,,
,5d4ca4c24f49b2001a7152b3,627c6766189a88f8213319e3,2022-05-11_20h51.41.435,classification_task,2021.2.3,MacIntel,59.97361161,627c6715c52fd12f31907bd0,,,,,,,,,,,,,,,,,,,,,,,,,,,,,,,,,,,,,,,,,,,,,,,,,,,,,,,,,,,,,,,,,,,,"Mozilla/5.0 (Macintosh; Intel Mac OS X 10_11_6) AppleWebKit/537.36 (KHTML, like Gecko) Chrome/98.0.4758.80 Safari/537.36",
,5d4ca4c24f49b2001a7152b3,627c6766189a88f8213319e3,2022-05-11_20h51.41.435,classification_task,2021.2.3,MacIntel,59.97361161,627c6715c52fd12f31907bd0,,,,,,,,,,,,,,,,,,,,,,,,,,,,,,,,,,,,,,,,,,,,,,,,,,,,,,,,,,,,,,,,,,,,,HIGHLIGHT
