usingWebGL,participant,session,date,expName,psychopyVersion,OS,frameRate,PROLIFIC_PID,STUDY_ID,SESSION_ID,signatures_friend,signatures_foe,band_ranges_top,band_ranges_bottom,formitemText,formtype,formundefined,formitemWidth,formindex,formresponse,formrt,key_resp_2.keys,key_resp_2.rt,tute_resp.keys,tute_resp.rt,tutorial.thisRepN,tutorial.thisTrialN,tutorial.thisN,tutorial.thisIndex,tutorial.ran,key_resp_4.keys,key_resp_4.rt,key_resp.keys,key_resp.corr,lines_presented,is_signal_presented,trials.thisRepN,trials.thisTrialN,trials.thisN,trials.thisIndex,trials.ran,vessel,active_band,lines,is_signal,supported_pos,catch_trial,key_resp.rt,debrief_formindex,debrief_formitemText,debrief_formtype,debrief_formitemWidth,debrief_formresponse,debrief_formrt,phases.thisRepN,phases.thisTrialN,phases.thisN,phases.thisIndex,phases.ran,phases.order,phase,key_resp_3.keys,trustitemText,trusttype,trustitemWidth,trustindex,trustresponse,trustrt,support_status.thisRepN,support_status.thisTrialN,support_status.thisN,support_status.thisIndex,support_status.ran,support_status.order,key_resp_5.keys,key_resp_5.rt,globalClockTime,userAgent
TRUE,5d6092f01d7a3e0001d6a7f6,001,2022-04-29_04h14.50.456,classification_task,2021.2.3,Win32,59.94485074,5d6092f01d7a3e0001d6a7f6,626b377229c10585ec392f8a,626b3bd3b635dd57debdebfc,,,,,,,,,,,,,,,,,,,,,,,,,,,,,,,,,,,,,,,,,,,,,,,,,,,,,,,,,,,,,,,,,,,,
,5d6092f01d7a3e0001d6a7f6,001,2022-04-29_04h14.50.456,classification_task,2021.2.3,Win32,59.94485074,5d6092f01d7a3e0001d6a7f6,626b377229c10585ec392f8a,626b3bd3b635dd57debdebfc,"[[""0.177"",""0.378"",""0.586"",""0.960""],[""0.224"",""0.429"",""0.884"",""0.923""]]","[[""0.137"",""0.269"",""0.530"",""0.835""],[""0.088"",""0.340"",""0.665"",""0.733""]]","[1,10]","[100,1000]",Video game experience,,,0.7,0,,,,,,,,,,,,,,,,,,,,,,,,,,,,,,,,,,,,,,,,,,,,,,,,,,,,,,,,,,,
,5d6092f01d7a3e0001d6a7f6,001,2022-04-29_04h14.50.456,classification_task,2021.2.3,Win32,59.94485074,5d6092f01d7a3e0001d6a7f6,626b377229c10585ec392f8a,626b3bd3b635dd57debdebfc,,,,,Approximately how many hours did you spend playing video games in the last week?,,,0.7,0,50,,,,,,,,,,,,,,,,,,,,,,,,,,,,,,,,,,,,,,,,,,,,,,,,,,,,,,,,,,
,5d6092f01d7a3e0001d6a7f6,001,2022-04-29_04h14.50.456,classification_task,2021.2.3,Win32,59.94485074,5d6092f01d7a3e0001d6a7f6,626b377229c10585ec392f8a,626b3bd3b635dd57debdebfc,,,,,"Which game did you play the most this year? (Enter ""None"" if you didn't play any)",,,0.7,0,League of Legends,,,,,,,,,,,,,,,,,,,,,,,,,,,,,,,,,,,,,,,,,,,,,,,,,,,,,,,,,,
,5d6092f01d7a3e0001d6a7f6,001,2022-04-29_04h14.50.456,classification_task,2021.2.3,Win32,59.94485074,5d6092f01d7a3e0001d6a7f6,626b377229c10585ec392f8a,626b3bd3b635dd57debdebfc,,,,,Visual perception,,,0.7,0,,,,,,,,,,,,,,,,,,,,,,,,,,,,,,,,,,,,,,,,,,,,,,,,,,,,,,,,,,,
,5d6092f01d7a3e0001d6a7f6,001,2022-04-29_04h14.50.456,classification_task,2021.2.3,Win32,59.94485074,5d6092f01d7a3e0001d6a7f6,626b377229c10585ec392f8a,626b3bd3b635dd57debdebfc,,,,,Do you have any form of color blindness?,,,0.7,0,No,74.7307,,,,,,,,,,,,,,,,,,,,,,,,,,,,,,,,,,,,,,,,,,,,,,,,,,,,,,,,,
,5d6092f01d7a3e0001d6a7f6,001,2022-04-29_04h14.50.456,classification_task,2021.2.3,Win32,59.94485074,5d6092f01d7a3e0001d6a7f6,626b377229c10585ec392f8a,626b3bd3b635dd57debdebfc,,,,,Do you use software to change the colour temperature of your screen (e.g. f.lux)?,,,0.7,0,No,78.2091,,,,,,,,,,,,,,,,,,,,,,,,,,,,,,,,,,,,,,,,,,,,,,,,,,,,,,,,,
,5d6092f01d7a3e0001d6a7f6,001,2022-04-29_04h14.50.456,classification_task,2021.2.3,Win32,59.94485074,5d6092f01d7a3e0001d6a7f6,626b377229c10585ec392f8a,626b3bd3b635dd57debdebfc,,,,,,,,,,,,space,32.6322,space,6.4974,0,0,0,0,1,,,,,,,,,,,,,,,,,,,,,,,,,,,,,,,,,,,,,,,,,,,,,,,,
,5d6092f01d7a3e0001d6a7f6,001,2022-04-29_04h14.50.456,classification_task,2021.2.3,Win32,59.94485074,5d6092f01d7a3e0001d6a7f6,626b377229c10585ec392f8a,626b3bd3b635dd57debdebfc,,,,,,,,,,,,,,space,5.598,1,0,1,0,1,,,,,,,,,,,,,,,,,,,,,,,,,,,,,,,,,,,,,,,,,,,,,,,,
,5d6092f01d7a3e0001d6a7f6,001,2022-04-29_04h14.50.456,classification_task,2021.2.3,Win32,59.94485074,5d6092f01d7a3e0001d6a7f6,626b377229c10585ec392f8a,626b3bd3b635dd57debdebfc,,,,,,,,,,,,,,space,62.4282,2,0,2,0,1,,,,,,,,,,,,,,,,,,,,,,,,,,,,,,,,,,,,,,,,,,,,,,,,
,5d6092f01d7a3e0001d6a7f6,001,2022-04-29_04h14.50.456,classification_task,2021.2.3,Win32,59.94485074,5d6092f01d7a3e0001d6a7f6,626b377229c10585ec392f8a,626b3bd3b635dd57debdebfc,,,,,,,,,,,,,,space,22.9786,3,0,3,0,1,,,,,,,,,,,,,,,,,,,,,,,,,,,,,,,,,,,,,,,,,,,,,,,,
,5d6092f01d7a3e0001d6a7f6,001,2022-04-29_04h14.50.456,classification_task,2021.2.3,Win32,59.94485074,5d6092f01d7a3e0001d6a7f6,626b377229c10585ec392f8a,626b3bd3b635dd57debdebfc,,,,,,,,,,,,,,space,12.7341,4,0,4,0,1,,,,,,,,,,,,,,,,,,,,,,,,,,,,,,,,,,,,,,,,,,,,,,,,
,5d6092f01d7a3e0001d6a7f6,001,2022-04-29_04h14.50.456,classification_task,2021.2.3,Win32,59.94485074,5d6092f01d7a3e0001d6a7f6,626b377229c10585ec392f8a,626b3bd3b635dd57debdebfc,,,,,,,,,,,,,,,,,,,,,space,14.0329,,0,"[""0.475"",""0.340"",""0.665"",""0.733""]","[0,1,1,1]",0,0,0,0,1,1,1,,,1,FALSE,,,,,,,,,,,,,,,,,,,,,,,,,,,,,,,
,5d6092f01d7a3e0001d6a7f6,001,2022-04-29_04h14.50.456,classification_task,2021.2.3,Win32,59.94485074,5d6092f01d7a3e0001d6a7f6,626b377229c10585ec392f8a,626b3bd3b635dd57debdebfc,,,,,,,,,,,,,,,,,,,,,,,a,0,"[""0.137"",""0.475"",""0.530"",""0.835""]","[1,0,1,1]",0,1,1,1,1,1,0,,,1,FALSE,5.0453,,,,,,,,,,,,,,,,,,,,,,,,,,,,,,
,5d6092f01d7a3e0001d6a7f6,001,2022-04-29_04h14.50.456,classification_task,2021.2.3,Win32,59.94485074,5d6092f01d7a3e0001d6a7f6,626b377229c10585ec392f8a,626b3bd3b635dd57debdebfc,,,,,,,,,,,,,,,,,,,,,,,a,1,"[""0.177"",""0.495"",""0.586"",""0.960""]","[1,0,1,1]",0,2,2,2,1,0,0,,,1,FALSE,6.8754,,,,,,,,,,,,,,,,,,,,,,,,,,,,,,
,5d6092f01d7a3e0001d6a7f6,001,2022-04-29_04h14.50.456,classification_task,2021.2.3,Win32,59.94485074,5d6092f01d7a3e0001d6a7f6,626b377229c10585ec392f8a,626b3bd3b635dd57debdebfc,,,,,,,,,,,,,,,,,,,,,,,l,1,"[""0.088"",""0.340"",""0.469"",""0.733""]","[1,1,0,1]",0,3,3,3,1,1,1,,,1,FALSE,4.6246,,,,,,,,,,,,,,,,,,,,,,,,,,,,,,
,5d6092f01d7a3e0001d6a7f6,001,2022-04-29_04h14.50.456,classification_task,2021.2.3,Win32,59.94485074,5d6092f01d7a3e0001d6a7f6,626b377229c10585ec392f8a,626b3bd3b635dd57debdebfc,,,,,,,,,,,,,,,,,,,,,,,a,1,"[""0.495"",""0.378"",""0.586"",""0.960""]","[0,1,1,1]",0,4,4,4,1,0,0,,,1,FALSE,3.2432,,,,,,,,,,,,,,,,,,,,,,,,,,,,,,
,5d6092f01d7a3e0001d6a7f6,001,2022-04-29_04h14.50.456,classification_task,2021.2.3,Win32,59.94485074,5d6092f01d7a3e0001d6a7f6,626b377229c10585ec392f8a,626b3bd3b635dd57debdebfc,,,,,,,,,,,,,,,,,,,,,,,a,1,"[""0.699"",""0.429"",""0.884"",""0.923""]","[0,1,1,1]",0,5,5,5,1,0,1,,,1,FALSE,2.8561,,,,,,,,,,,,,,,,,,,,,,,,,,,,,,
,5d6092f01d7a3e0001d6a7f6,001,2022-04-29_04h14.50.456,classification_task,2021.2.3,Win32,59.94485074,5d6092f01d7a3e0001d6a7f6,626b377229c10585ec392f8a,626b3bd3b635dd57debdebfc,,,,,,,,,,,,,,,,,,,,,,,l,1,"[""0.137"",""0.269"",""0.530"",""0.495""]","[1,1,1,0]",0,6,6,6,1,1,0,,,1,FALSE,4.7896,,,,,,,,,,,,,,,,,,,,,,,,,,,,,,
,5d6092f01d7a3e0001d6a7f6,001,2022-04-29_04h14.50.456,classification_task,2021.2.3,Win32,59.94485074,5d6092f01d7a3e0001d6a7f6,626b377229c10585ec392f8a,626b3bd3b635dd57debdebfc,,,,,,,,,,,,,,,,,,,,,,,l,0,"[""0.224"",""0.429"",""0.884"",""0.033""]","[1,1,1,0]",0,7,7,7,1,0,1,,,1,FALSE,4.7624,,,,,,,,,,,,,,,,,,,,,,,,,,,,,,
,5d6092f01d7a3e0001d6a7f6,001,2022-04-29_04h14.50.456,classification_task,2021.2.3,Win32,59.94485074,5d6092f01d7a3e0001d6a7f6,626b377229c10585ec392f8a,626b3bd3b635dd57debdebfc,,,,,,,,,,,,,,,,,,,,,,,l,1,"[""0.137"",""0.269"",""0.784"",""0.835""]","[1,1,0,1]",0,8,8,8,1,1,0,,,1,FALSE,2.9801,,,,,,,,,,,,,,,,,,,,,,,,,,,,,,
,5d6092f01d7a3e0001d6a7f6,001,2022-04-29_04h14.50.456,classification_task,2021.2.3,Win32,59.94485074,5d6092f01d7a3e0001d6a7f6,626b377229c10585ec392f8a,626b3bd3b635dd57debdebfc,,,,,,,,,,,,,,,,,,,,,,,l,1,"[""0.475"",""0.269"",""0.530"",""0.835""]","[0,1,1,1]",0,9,9,9,1,1,0,,,1,FALSE,2.9988,,,,,,,,,,,,,,,,,,,,,,,,,,,,,,
,5d6092f01d7a3e0001d6a7f6,001,2022-04-29_04h14.50.456,classification_task,2021.2.3,Win32,59.94485074,5d6092f01d7a3e0001d6a7f6,626b377229c10585ec392f8a,626b3bd3b635dd57debdebfc,,,,,,,,,,,,,,,,,,,,,,,a,1,"[""0.177"",""0.378"",""0.586"",""0.495""]","[1,1,1,0]",0,10,10,10,1,0,0,,,1,FALSE,4.3949,,,,,,,,,,,,,,,,,,,,,,,,,,,,,,
,5d6092f01d7a3e0001d6a7f6,001,2022-04-29_04h14.50.456,classification_task,2021.2.3,Win32,59.94485074,5d6092f01d7a3e0001d6a7f6,626b377229c10585ec392f8a,626b3bd3b635dd57debdebfc,,,,,,,,,,,,,,,,,,,,,,,a,1,"[""0.224"",""0.484"",""0.884"",""0.923""]","[1,0,1,1]",0,11,11,11,1,0,1,,,1,FALSE,2.177,,,,,,,,,,,,,,,,,,,,,,,,,,,,,,
,5d6092f01d7a3e0001d6a7f6,001,2022-04-29_04h14.50.456,classification_task,2021.2.3,Win32,59.94485074,5d6092f01d7a3e0001d6a7f6,626b377229c10585ec392f8a,626b3bd3b635dd57debdebfc,,,,,,,,,,,,,,,,,,,,,,,l,1,"[""0.088"",""0.780"",""0.665"",""0.733""]","[1,0,1,1]",0,12,12,12,1,1,1,,,1,FALSE,2.2087,,,,,,,,,,,,,,,,,,,,,,,,,,,,,,
,5d6092f01d7a3e0001d6a7f6,001,2022-04-29_04h14.50.456,classification_task,2021.2.3,Win32,59.94485074,5d6092f01d7a3e0001d6a7f6,626b377229c10585ec392f8a,626b3bd3b635dd57debdebfc,,,,,,,,,,,,,,,,,,,,,,,a,1,"[""0.177"",""0.378"",""0.475"",""0.960""]","[1,1,0,1]",0,13,13,13,1,0,0,,,1,FALSE,2.2411,,,,,,,,,,,,,,,,,,,,,,,,,,,,,,
,5d6092f01d7a3e0001d6a7f6,001,2022-04-29_04h14.50.456,classification_task,2021.2.3,Win32,59.94485074,5d6092f01d7a3e0001d6a7f6,626b377229c10585ec392f8a,626b3bd3b635dd57debdebfc,,,,,,,,,,,,,,,,,,,,,,,a,0,"[""0.088"",""0.340"",""0.665"",""0.466""]","[1,1,1,0]",0,14,14,14,1,1,1,,,1,FALSE,1.8289,,,,,,,,,,,,,,,,,,,,,,,,,,,,,,
,5d6092f01d7a3e0001d6a7f6,001,2022-04-29_04h14.50.456,classification_task,2021.2.3,Win32,59.94485074,5d6092f01d7a3e0001d6a7f6,626b377229c10585ec392f8a,626b3bd3b635dd57debdebfc,,,,,,,,,,,,,,,,,,,,,,,a,1,"[""0.224"",""0.429"",""0.495"",""0.923""]","[1,1,0,1]",0,15,15,15,1,0,1,,,1,FALSE,1.8935,,,,,,,,,,,,,,,,,,,,,,,,,,,,,,
,5d6092f01d7a3e0001d6a7f6,001,2022-04-29_04h14.50.456,classification_task,2021.2.3,Win32,59.94485074,5d6092f01d7a3e0001d6a7f6,626b377229c10585ec392f8a,626b3bd3b635dd57debdebfc,,,,,,,,,,,,,,,,,,,,,,,l,1,"[""0.088"",""0.340"",""0.665"",""0.475""]","[1,1,1,0]",0,16,16,16,1,1,1,,,1,FALSE,3.6991,,,,,,,,,,,,,,,,,,,,,,,,,,,,,,
,5d6092f01d7a3e0001d6a7f6,001,2022-04-29_04h14.50.456,classification_task,2021.2.3,Win32,59.94485074,5d6092f01d7a3e0001d6a7f6,626b377229c10585ec392f8a,626b3bd3b635dd57debdebfc,,,,,,,,,,,,,,,,,,,,,,,a,1,"[""0.177"",""0.378"",""0.586"",""0.469""]","[1,1,1,0]",0,17,17,17,1,0,0,,,1,FALSE,2.1936,,,,,,,,,,,,,,,,,,,,,,,,,,,,,,
,5d6092f01d7a3e0001d6a7f6,001,2022-04-29_04h14.50.456,classification_task,2021.2.3,Win32,59.94485074,5d6092f01d7a3e0001d6a7f6,626b377229c10585ec392f8a,626b3bd3b635dd57debdebfc,,,,,,,,,,,,,,,,,,,,,,,a,1,"[""0.224"",""0.780"",""0.884"",""0.923""]","[1,0,1,1]",0,18,18,18,1,0,1,,,1,FALSE,1.9775,,,,,,,,,,,,,,,,,,,,,,,,,,,,,,
,5d6092f01d7a3e0001d6a7f6,001,2022-04-29_04h14.50.456,classification_task,2021.2.3,Win32,59.94485074,5d6092f01d7a3e0001d6a7f6,626b377229c10585ec392f8a,626b3bd3b635dd57debdebfc,,,,,,,,,,,,,,,,,,,,,,,a,1,"[""0.177"",""0.784"",""0.586"",""0.960""]","[1,0,1,1]",0,19,19,19,1,0,0,,,1,FALSE,1.6228,,,,,,,,,,,,,,,,,,,,,,,,,,,,,,
,5d6092f01d7a3e0001d6a7f6,001,2022-04-29_04h14.50.456,classification_task,2021.2.3,Win32,59.94485074,5d6092f01d7a3e0001d6a7f6,626b377229c10585ec392f8a,626b3bd3b635dd57debdebfc,,,,,,,,,,,,,,,,,,,,,,,a,1,"[""0.224"",""0.429"",""0.465"",""0.923""]","[1,1,0,1]",0,20,20,20,1,0,1,,,1,FALSE,2.2792,,,,,,,,,,,,,,,,,,,,,,,,,,,,,,
,5d6092f01d7a3e0001d6a7f6,001,2022-04-29_04h14.50.456,classification_task,2021.2.3,Win32,59.94485074,5d6092f01d7a3e0001d6a7f6,626b377229c10585ec392f8a,626b3bd3b635dd57debdebfc,,,,,,,,,,,,,,,,,,,,,,,a,0,"[""0.137"",""0.269"",""0.530"",""0.699""]","[1,1,1,0]",0,21,21,21,1,1,0,,,1,FALSE,5.5574,,,,,,,,,,,,,,,,,,,,,,,,,,,,,,
,5d6092f01d7a3e0001d6a7f6,001,2022-04-29_04h14.50.456,classification_task,2021.2.3,Win32,59.94485074,5d6092f01d7a3e0001d6a7f6,626b377229c10585ec392f8a,626b3bd3b635dd57debdebfc,,,,,,,,,,,,,,,,,,,,,,,a,1,"[""0.466"",""0.429"",""0.884"",""0.923""]","[0,1,1,1]",0,22,22,22,1,0,1,,,1,FALSE,3.674,,,,,,,,,,,,,,,,,,,,,,,,,,,,,,
,5d6092f01d7a3e0001d6a7f6,001,2022-04-29_04h14.50.456,classification_task,2021.2.3,Win32,59.94485074,5d6092f01d7a3e0001d6a7f6,626b377229c10585ec392f8a,626b3bd3b635dd57debdebfc,,,,,,,,,,,,,,,,,,,,,,,a,1,"[""0.177"",""0.378"",""0.624"",""0.960""]","[1,1,0,1]",0,23,23,23,1,0,0,,,1,FALSE,2.6617,,,,,,,,,,,,,,,,,,,,,,,,,,,,,,
,5d6092f01d7a3e0001d6a7f6,001,2022-04-29_04h14.50.456,classification_task,2021.2.3,Win32,59.94485074,5d6092f01d7a3e0001d6a7f6,626b377229c10585ec392f8a,626b3bd3b635dd57debdebfc,,,,,,,,,,,,,,,,,,,,,,,l,1,"[""0.088"",""0.340"",""0.303"",""0.733""]","[1,1,0,1]",0,24,24,24,1,1,1,,,1,FALSE,2.5896,,,,,,,,,,,,,,,,,,,,,,,,,,,,,,
,5d6092f01d7a3e0001d6a7f6,001,2022-04-29_04h14.50.456,classification_task,2021.2.3,Win32,59.94485074,5d6092f01d7a3e0001d6a7f6,626b377229c10585ec392f8a,626b3bd3b635dd57debdebfc,,,,,,,,,,,,,,,,,,,,,,,l,1,"[""0.475"",""0.340"",""0.665"",""0.733""]","[0,1,1,1]",0,25,25,25,1,1,1,,,1,FALSE,3.3307,,,,,,,,,,,,,,,,,,,,,,,,,,,,,,
,5d6092f01d7a3e0001d6a7f6,001,2022-04-29_04h14.50.456,classification_task,2021.2.3,Win32,59.94485074,5d6092f01d7a3e0001d6a7f6,626b377229c10585ec392f8a,626b3bd3b635dd57debdebfc,,,,,,,,,,,,,,,,,,,,,,,l,1,"[""0.466"",""0.269"",""0.530"",""0.835""]","[0,1,1,1]",0,26,26,26,1,1,0,,,1,FALSE,3.9427,,,,,,,,,,,,,,,,,,,,,,,,,,,,,,
,5d6092f01d7a3e0001d6a7f6,001,2022-04-29_04h14.50.456,classification_task,2021.2.3,Win32,59.94485074,5d6092f01d7a3e0001d6a7f6,626b377229c10585ec392f8a,626b3bd3b635dd57debdebfc,,,,,,,,,,,,,,,,,,,,,,,l,1,"[""0.137"",""0.269"",""0.475"",""0.835""]","[1,1,0,1]",0,27,27,27,1,1,0,,,1,FALSE,1.9765,,,,,,,,,,,,,,,,,,,,,,,,,,,,,,
,5d6092f01d7a3e0001d6a7f6,001,2022-04-29_04h14.50.456,classification_task,2021.2.3,Win32,59.94485074,5d6092f01d7a3e0001d6a7f6,626b377229c10585ec392f8a,626b3bd3b635dd57debdebfc,,,,,,,,,,,,,,,,,,,,,,,a,1,"[""0.780"",""0.378"",""0.586"",""0.960""]","[0,1,1,1]",0,28,28,28,1,0,0,,,1,FALSE,1.8939,,,,,,,,,,,,,,,,,,,,,,,,,,,,,,
,5d6092f01d7a3e0001d6a7f6,001,2022-04-29_04h14.50.456,classification_task,2021.2.3,Win32,59.94485074,5d6092f01d7a3e0001d6a7f6,626b377229c10585ec392f8a,626b3bd3b635dd57debdebfc,,,,,,,,,,,,,,,,,,,,,,,l,1,"[""0.137"",""0.484"",""0.530"",""0.835""]","[1,0,1,1]",0,29,29,29,1,1,0,,,1,FALSE,1.7496,,,,,,,,,,,,,,,,,,,,,,,,,,,,,,
,5d6092f01d7a3e0001d6a7f6,001,2022-04-29_04h14.50.456,classification_task,2021.2.3,Win32,59.94485074,5d6092f01d7a3e0001d6a7f6,626b377229c10585ec392f8a,626b3bd3b635dd57debdebfc,,,,,,,,,,,,,,,,,,,,,,,l,1,"[""0.088"",""0.475"",""0.665"",""0.733""]","[1,0,1,1]",0,30,30,30,1,1,1,,,1,FALSE,2.191,,,,,,,,,,,,,,,,,,,,,,,,,,,,,,
,5d6092f01d7a3e0001d6a7f6,001,2022-04-29_04h14.50.456,classification_task,2021.2.3,Win32,59.94485074,5d6092f01d7a3e0001d6a7f6,626b377229c10585ec392f8a,626b3bd3b635dd57debdebfc,,,,,,,,,,,,,,,,,,,,,,,a,1,"[""0.224"",""0.429"",""0.884"",""0.624""]","[1,1,1,0]",0,31,31,31,1,0,1,,,1,FALSE,1.5004,,,,,,,,,,,,,,,,,,,,,,,,,,,,,,
,5d6092f01d7a3e0001d6a7f6,001,2022-04-29_04h14.50.456,classification_task,2021.2.3,Win32,59.94485074,5d6092f01d7a3e0001d6a7f6,626b377229c10585ec392f8a,626b3bd3b635dd57debdebfc,,,,,,,,,,,,,,,,,,,,,,,l,0,"[""0.177"",""0.378"",""0.475"",""0.960""]","[1,1,0,1]",0,32,32,32,1,0,0,,,1,FALSE,4.689,,,,,,,,,,,,,,,,,,,,,,,,,,,,,,
,5d6092f01d7a3e0001d6a7f6,001,2022-04-29_04h14.50.456,classification_task,2021.2.3,Win32,59.94485074,5d6092f01d7a3e0001d6a7f6,626b377229c10585ec392f8a,626b3bd3b635dd57debdebfc,,,,,,,,,,,,,,,,,,,,,,,a,1,"[""0.303"",""0.378"",""0.586"",""0.960""]","[0,1,1,1]",0,33,33,33,1,0,0,,,1,FALSE,1.7273,,,,,,,,,,,,,,,,,,,,,,,,,,,,,,
,5d6092f01d7a3e0001d6a7f6,001,2022-04-29_04h14.50.456,classification_task,2021.2.3,Win32,59.94485074,5d6092f01d7a3e0001d6a7f6,626b377229c10585ec392f8a,626b3bd3b635dd57debdebfc,,,,,,,,,,,,,,,,,,,,,,,a,1,"[""0.224"",""0.429"",""0.033"",""0.923""]","[1,1,0,1]",0,34,34,34,1,0,1,,,1,FALSE,2.4414,,,,,,,,,,,,,,,,,,,,,,,,,,,,,,
,5d6092f01d7a3e0001d6a7f6,001,2022-04-29_04h14.50.456,classification_task,2021.2.3,Win32,59.94485074,5d6092f01d7a3e0001d6a7f6,626b377229c10585ec392f8a,626b3bd3b635dd57debdebfc,,,,,,,,,,,,,,,,,,,,,,,a,1,"[""0.177"",""0.378"",""0.586"",""0.051""]","[1,1,1,0]",0,35,35,35,1,0,0,,,1,FALSE,2.857,,,,,,,,,,,,,,,,,,,,,,,,,,,,,,
,5d6092f01d7a3e0001d6a7f6,001,2022-04-29_04h14.50.456,classification_task,2021.2.3,Win32,59.94485074,5d6092f01d7a3e0001d6a7f6,626b377229c10585ec392f8a,626b3bd3b635dd57debdebfc,,,,,,,,,,,,,,,,,,,,,,,l,0,"[""0.303"",""0.429"",""0.884"",""0.923""]","[0,1,1,1]",0,36,36,36,1,0,1,,,1,FALSE,0.9638,,,,,,,,,,,,,,,,,,,,,,,,,,,,,,
,5d6092f01d7a3e0001d6a7f6,001,2022-04-29_04h14.50.456,classification_task,2021.2.3,Win32,59.94485074,5d6092f01d7a3e0001d6a7f6,626b377229c10585ec392f8a,626b3bd3b635dd57debdebfc,,,,,,,,,,,,,,,,,,,,,,,a,0,"[""0.469"",""0.340"",""0.665"",""0.733""]","[0,1,1,1]",0,37,37,37,1,1,1,,,1,FALSE,0.5671,,,,,,,,,,,,,,,,,,,,,,,,,,,,,,
,5d6092f01d7a3e0001d6a7f6,001,2022-04-29_04h14.50.456,classification_task,2021.2.3,Win32,59.94485074,5d6092f01d7a3e0001d6a7f6,626b377229c10585ec392f8a,626b3bd3b635dd57debdebfc,,,,,,,,,,,,,,,,,,,,,,,a,1,"[""0.224"",""0.303"",""0.884"",""0.923""]","[1,0,1,1]",0,38,38,38,1,0,1,,,1,FALSE,0.3829,,,,,,,,,,,,,,,,,,,,,,,,,,,,,,
,5d6092f01d7a3e0001d6a7f6,001,2022-04-29_04h14.50.456,classification_task,2021.2.3,Win32,59.94485074,5d6092f01d7a3e0001d6a7f6,626b377229c10585ec392f8a,626b3bd3b635dd57debdebfc,,,,,,,,,,,,,,,,,,,,,,,l,1,"[""0.137"",""0.465"",""0.530"",""0.835""]","[1,0,1,1]",0,39,39,39,1,1,0,,,1,FALSE,2.2824,,,,,,,,,,,,,,,,,,,,,,,,,,,,,,
,5d6092f01d7a3e0001d6a7f6,001,2022-04-29_04h14.50.456,classification_task,2021.2.3,Win32,59.94485074,5d6092f01d7a3e0001d6a7f6,626b377229c10585ec392f8a,626b3bd3b635dd57debdebfc,,,,,,,,,,,,,,,,,,,,,,,l,0,"[""0.224"",""0.429"",""0.884"",""0.495""]","[1,1,1,0]",0,40,40,40,1,0,1,,,1,FALSE,1.1748,,,,,,,,,,,,,,,,,,,,,,,,,,,,,,
,5d6092f01d7a3e0001d6a7f6,001,2022-04-29_04h14.50.456,classification_task,2021.2.3,Win32,59.94485074,5d6092f01d7a3e0001d6a7f6,626b377229c10585ec392f8a,626b3bd3b635dd57debdebfc,,,,,,,,,,,,,,,,,,,,,,,l,1,"[""0.088"",""0.788"",""0.665"",""0.733""]","[1,0,1,1]",0,41,41,41,1,1,1,,,1,FALSE,0.9834,,,,,,,,,,,,,,,,,,,,,,,,,,,,,,
,5d6092f01d7a3e0001d6a7f6,001,2022-04-29_04h14.50.456,classification_task,2021.2.3,Win32,59.94485074,5d6092f01d7a3e0001d6a7f6,626b377229c10585ec392f8a,626b3bd3b635dd57debdebfc,,,,,,,,,,,,,,,,,,,,,,,a,0,"[""0.088"",""0.340"",""0.665"",""0.699""]","[1,1,1,0]",0,42,42,42,1,1,1,,,1,FALSE,1.0822,,,,,,,,,,,,,,,,,,,,,,,,,,,,,,
,5d6092f01d7a3e0001d6a7f6,001,2022-04-29_04h14.50.456,classification_task,2021.2.3,Win32,59.94485074,5d6092f01d7a3e0001d6a7f6,626b377229c10585ec392f8a,626b3bd3b635dd57debdebfc,,,,,,,,,,,,,,,,,,,,,,,l,1,"[""0.137"",""0.269"",""0.530"",""0.780""]","[1,1,1,0]",0,43,43,43,1,1,0,,,1,FALSE,1.4005,,,,,,,,,,,,,,,,,,,,,,,,,,,,,,
,5d6092f01d7a3e0001d6a7f6,001,2022-04-29_04h14.50.456,classification_task,2021.2.3,Win32,59.94485074,5d6092f01d7a3e0001d6a7f6,626b377229c10585ec392f8a,626b3bd3b635dd57debdebfc,,,,,,,,,,,,,,,,,,,,,,,l,0,"[""0.177"",""0.051"",""0.586"",""0.960""]","[1,0,1,1]",0,44,44,44,1,0,0,,,1,FALSE,0.8998,,,,,,,,,,,,,,,,,,,,,,,,,,,,,,
,5d6092f01d7a3e0001d6a7f6,001,2022-04-29_04h14.50.456,classification_task,2021.2.3,Win32,59.94485074,5d6092f01d7a3e0001d6a7f6,626b377229c10585ec392f8a,626b3bd3b635dd57debdebfc,,,,,,,,,,,,,,,,,,,,,,,l,1,"[""0.088"",""0.340"",""0.495"",""0.733""]","[1,1,0,1]",0,45,45,45,1,1,1,,,1,FALSE,1.0498,,,,,,,,,,,,,,,,,,,,,,,,,,,,,,
,5d6092f01d7a3e0001d6a7f6,001,2022-04-29_04h14.50.456,classification_task,2021.2.3,Win32,59.94485074,5d6092f01d7a3e0001d6a7f6,626b377229c10585ec392f8a,626b3bd3b635dd57debdebfc,,,,,,,,,,,,,,,,,,,,,,,a,0,"[""0.137"",""0.269"",""0.495"",""0.835""]","[1,1,0,1]",0,46,46,46,1,1,0,,,1,FALSE,0.7514,,,,,,,,,,,,,,,,,,,,,,,,,,,,,,
,5d6092f01d7a3e0001d6a7f6,001,2022-04-29_04h14.50.456,classification_task,2021.2.3,Win32,59.94485074,5d6092f01d7a3e0001d6a7f6,626b377229c10585ec392f8a,626b3bd3b635dd57debdebfc,,,,,,,,,,,,,,,,,,,,,,,a,0,"[""0.788"",""0.269"",""0.530"",""0.835""]","[0,1,1,1]",0,47,47,47,1,1,0,,,1,FALSE,0.7705,,,,,,,,,,,,,,,,,,,,,,,,,,,,,,
,5d6092f01d7a3e0001d6a7f6,001,2022-04-29_04h14.50.456,classification_task,2021.2.3,Win32,59.94485074,5d6092f01d7a3e0001d6a7f6,626b377229c10585ec392f8a,626b3bd3b635dd57debdebfc,,,,,,,,,,,,,,,,,,,,,,,a,0,"[""0.475"",""0.269"",""0.530"",""0.835""]","[0,1,1,1]",0,48,48,48,1,1,0,,,1,FALSE,0.5656,,,,,,,,,,,,,,,,,,,,,,,,,,,,,,
,5d6092f01d7a3e0001d6a7f6,001,2022-04-29_04h14.50.456,classification_task,2021.2.3,Win32,59.94485074,5d6092f01d7a3e0001d6a7f6,626b377229c10585ec392f8a,626b3bd3b635dd57debdebfc,,,,,,,,,,,,,,,,,,,,,,,l,1,"[""0.491"",""0.340"",""0.665"",""0.733""]","[0,1,1,1]",0,49,49,49,1,1,1,,,1,FALSE,0.6703,,,,,,,,,,,,,,,,,,,,,,,,,,,,,,
,5d6092f01d7a3e0001d6a7f6,001,2022-04-29_04h14.50.456,classification_task,2021.2.3,Win32,59.94485074,5d6092f01d7a3e0001d6a7f6,626b377229c10585ec392f8a,626b3bd3b635dd57debdebfc,,,,,,,,,,,,,,,,,,,,,,,a,1,"[""0.224"",""0.429"",""0.884"",""0.053""]","[1,1,1,0]",0,50,50,50,1,0,1,,,1,FALSE,0.9006,,,,,,,,,,,,,,,,,,,,,,,,,,,,,,
,5d6092f01d7a3e0001d6a7f6,001,2022-04-29_04h14.50.456,classification_task,2021.2.3,Win32,59.94485074,5d6092f01d7a3e0001d6a7f6,626b377229c10585ec392f8a,626b3bd3b635dd57debdebfc,,,,,,,,,,,,,,,,,,,,,,,a,0,"[""0.137"",""0.269"",""0.699"",""0.835""]","[1,1,0,1]",0,51,51,51,1,1,0,,,1,FALSE,1.0195,,,,,,,,,,,,,,,,,,,,,,,,,,,,,,
,5d6092f01d7a3e0001d6a7f6,001,2022-04-29_04h14.50.456,classification_task,2021.2.3,Win32,59.94485074,5d6092f01d7a3e0001d6a7f6,626b377229c10585ec392f8a,626b3bd3b635dd57debdebfc,,,,,,,,,,,,,,,,,,,,,,,l,0,"[""0.224"",""0.303"",""0.884"",""0.923""]","[1,0,1,1]",0,52,52,52,1,0,1,,,1,FALSE,0.952,,,,,,,,,,,,,,,,,,,,,,,,,,,,,,
,5d6092f01d7a3e0001d6a7f6,001,2022-04-29_04h14.50.456,classification_task,2021.2.3,Win32,59.94485074,5d6092f01d7a3e0001d6a7f6,626b377229c10585ec392f8a,626b3bd3b635dd57debdebfc,,,,,,,,,,,,,,,,,,,,,,,a,1,"[""0.177"",""0.788"",""0.586"",""0.960""]","[1,0,1,1]",0,53,53,53,1,0,0,,,1,FALSE,1.1007,,,,,,,,,,,,,,,,,,,,,,,,,,,,,,
,5d6092f01d7a3e0001d6a7f6,001,2022-04-29_04h14.50.456,classification_task,2021.2.3,Win32,59.94485074,5d6092f01d7a3e0001d6a7f6,626b377229c10585ec392f8a,626b3bd3b635dd57debdebfc,,,,,,,,,,,,,,,,,,,,,,,a,0,"[""0.088"",""0.340"",""0.665"",""0.784""]","[1,1,1,0]",0,54,54,54,1,1,1,,,1,FALSE,0.7463,,,,,,,,,,,,,,,,,,,,,,,,,,,,,,
,5d6092f01d7a3e0001d6a7f6,001,2022-04-29_04h14.50.456,classification_task,2021.2.3,Win32,59.94485074,5d6092f01d7a3e0001d6a7f6,626b377229c10585ec392f8a,626b3bd3b635dd57debdebfc,,,,,,,,,,,,,,,,,,,,,,,a,1,"[""0.484"",""0.429"",""0.884"",""0.923""]","[0,1,1,1]",0,55,55,55,1,0,1,,,1,FALSE,0.7883,,,,,,,,,,,,,,,,,,,,,,,,,,,,,,
,5d6092f01d7a3e0001d6a7f6,001,2022-04-29_04h14.50.456,classification_task,2021.2.3,Win32,59.94485074,5d6092f01d7a3e0001d6a7f6,626b377229c10585ec392f8a,626b3bd3b635dd57debdebfc,,,,,,,,,,,,,,,,,,,,,,,l,0,"[""0.224"",""0.429"",""0.053"",""0.923""]","[1,1,0,1]",0,56,56,56,1,0,1,,,1,FALSE,0.8668,,,,,,,,,,,,,,,,,,,,,,,,,,,,,,
,5d6092f01d7a3e0001d6a7f6,001,2022-04-29_04h14.50.456,classification_task,2021.2.3,Win32,59.94485074,5d6092f01d7a3e0001d6a7f6,626b377229c10585ec392f8a,626b3bd3b635dd57debdebfc,,,,,,,,,,,,,,,,,,,,,,,a,0,"[""0.137"",""0.624"",""0.530"",""0.835""]","[1,0,1,1]",0,57,57,57,1,1,0,,,1,FALSE,0.9989,,,,,,,,,,,,,,,,,,,,,,,,,,,,,,
,5d6092f01d7a3e0001d6a7f6,001,2022-04-29_04h14.50.456,classification_task,2021.2.3,Win32,59.94485074,5d6092f01d7a3e0001d6a7f6,626b377229c10585ec392f8a,626b3bd3b635dd57debdebfc,,,,,,,,,,,,,,,,,,,,,,,a,0,"[""0.088"",""0.340"",""0.303"",""0.733""]","[1,1,0,1]",0,58,58,58,1,1,1,,,1,FALSE,0.5654,,,,,,,,,,,,,,,,,,,,,,,,,,,,,,
,5d6092f01d7a3e0001d6a7f6,001,2022-04-29_04h14.50.456,classification_task,2021.2.3,Win32,59.94485074,5d6092f01d7a3e0001d6a7f6,626b377229c10585ec392f8a,626b3bd3b635dd57debdebfc,,,,,,,,,,,,,,,,,,,,,,,a,0,"[""0.088"",""0.033"",""0.665"",""0.733""]","[1,0,1,1]",0,59,59,59,1,1,1,,,1,FALSE,0.5174,,,,,,,,,,,,,,,,,,,,,,,,,,,,,,
,5d6092f01d7a3e0001d6a7f6,001,2022-04-29_04h14.50.456,classification_task,2021.2.3,Win32,59.94485074,5d6092f01d7a3e0001d6a7f6,626b377229c10585ec392f8a,626b3bd3b635dd57debdebfc,,,,,,,,,,,,,,,,,,,,,,,a,1,"[""0.699"",""0.378"",""0.586"",""0.960""]","[0,1,1,1]",0,60,60,60,1,0,0,,,1,FALSE,1.0326,,,,,,,,,,,,,,,,,,,,,,,,,,,,,,
,5d6092f01d7a3e0001d6a7f6,001,2022-04-29_04h14.50.456,classification_task,2021.2.3,Win32,59.94485074,5d6092f01d7a3e0001d6a7f6,626b377229c10585ec392f8a,626b3bd3b635dd57debdebfc,,,,,,,,,,,,,,,,,,,,,,,a,1,"[""0.177"",""0.378"",""0.586"",""0.491""]","[1,1,1,0]",0,61,61,61,1,0,0,,,1,FALSE,1.1155,,,,,,,,,,,,,,,,,,,,,,,,,,,,,,
,5d6092f01d7a3e0001d6a7f6,001,2022-04-29_04h14.50.456,classification_task,2021.2.3,Win32,59.94485074,5d6092f01d7a3e0001d6a7f6,626b377229c10585ec392f8a,626b3bd3b635dd57debdebfc,,,,,,,,,,,,,,,,,,,,,,,l,0,"[""0.177"",""0.378"",""0.780"",""0.960""]","[1,1,0,1]",0,62,62,62,1,0,0,,,1,FALSE,0.6363,,,,,,,,,,,,,,,,,,,,,,,,,,,,,,
,5d6092f01d7a3e0001d6a7f6,001,2022-04-29_04h14.50.456,classification_task,2021.2.3,Win32,59.94485074,5d6092f01d7a3e0001d6a7f6,626b377229c10585ec392f8a,626b3bd3b635dd57debdebfc,,,,,,,,,,,,,,,,,,,,,,,l,1,"[""0.137"",""0.269"",""0.530"",""0.495""]","[1,1,1,0]",0,63,63,63,1,1,0,,,1,FALSE,0.4403,,,,,,,,,,,,,,,,,,,,,,,,,,,,,,
,5d6092f01d7a3e0001d6a7f6,001,2022-04-29_04h14.50.456,classification_task,2021.2.3,Win32,59.94485074,5d6092f01d7a3e0001d6a7f6,626b377229c10585ec392f8a,626b3bd3b635dd57debdebfc,,,,,,,,,,,,,,,,,,,,,,,,,,,,,,,,,,,,,,,0, ,,0,1.987066432,468.9751,0,0,0,0,1,2,1,,,,,,,,,,,,,,,,,
,5d6092f01d7a3e0001d6a7f6,001,2022-04-29_04h14.50.456,classification_task,2021.2.3,Win32,59.94485074,5d6092f01d7a3e0001d6a7f6,626b377229c10585ec392f8a,626b3bd3b635dd57debdebfc,,,,,,,,,,,,,,,,,,,,,,,,,,,,,,,,,,,,,,,1,  ,,0,5.90632961,495.52,0,0,0,0,1,2,1,,,,,,,,,,,,,,,,,
,5d6092f01d7a3e0001d6a7f6,001,2022-04-29_04h14.50.456,classification_task,2021.2.3,Win32,59.94485074,5d6092f01d7a3e0001d6a7f6,626b377229c10585ec392f8a,626b3bd3b635dd57debdebfc,,,,,,,,,,,,,,,,,,,,,,,,,,,,,,,,,,,,,,,2,  ,,0,2.085048011,489.8945,0,0,0,0,1,2,1,,,,,,,,,,,,,,,,,
,5d6092f01d7a3e0001d6a7f6,001,2022-04-29_04h14.50.456,classification_task,2021.2.3,Win32,59.94485074,5d6092f01d7a3e0001d6a7f6,626b377229c10585ec392f8a,626b3bd3b635dd57debdebfc,,,,,,,,,,,,,,,,,,,,,,,,,,,,,,,,,,,,,,,,,,,,,0,0,0,0,1,,1,,,,,,,,,,,,,,,,,
,5d6092f01d7a3e0001d6a7f6,001,2022-04-29_04h14.50.456,classification_task,2021.2.3,Win32,59.94485074,5d6092f01d7a3e0001d6a7f6,626b377229c10585ec392f8a,626b3bd3b635dd57debdebfc,,,,,,,,,,,,,,,,,,,,,space,9.5568,a,0,"[""0.137"",""0.269"",""0.466"",""0.835""]","[1,1,0,1]",0,0,0,0,1,1,0,,,1,FALSE,6.6287,,,,,,,,,,,,,,,,,,,,,,,,,,,,,,
,5d6092f01d7a3e0001d6a7f6,001,2022-04-29_04h14.50.456,classification_task,2021.2.3,Win32,59.94485074,5d6092f01d7a3e0001d6a7f6,626b377229c10585ec392f8a,626b3bd3b635dd57debdebfc,,,,,,,,,,,,,,,,,,,,,,,a,0,"[""0.137"",""0.269"",""0.530"",""0.624""]","[1,1,1,0]",0,1,1,1,1,1,0,,,1,FALSE,1.2932,,,,,,,,,,,,,,,,,,,,,,,,,,,,,,
,5d6092f01d7a3e0001d6a7f6,001,2022-04-29_04h14.50.456,classification_task,2021.2.3,Win32,59.94485074,5d6092f01d7a3e0001d6a7f6,626b377229c10585ec392f8a,626b3bd3b635dd57debdebfc,,,,,,,,,,,,,,,,,,,,,,,l,0,"[""0.177"",""0.484"",""0.586"",""0.960""]","[1,0,1,1]",0,2,2,2,1,0,0,,,1,FALSE,1.783,,,,,,,,,,,,,,,,,,,,,,,,,,,,,,
,5d6092f01d7a3e0001d6a7f6,001,2022-04-29_04h14.50.456,classification_task,2021.2.3,Win32,59.94485074,5d6092f01d7a3e0001d6a7f6,626b377229c10585ec392f8a,626b3bd3b635dd57debdebfc,,,,,,,,,,,,,,,,,,,,,,,l,0,"[""0.699"",""0.429"",""0.884"",""0.923""]","[0,1,1,1]",0,3,3,3,1,0,1,,,1,FALSE,0.4596,,,,,,,,,,,,,,,,,,,,,,,,,,,,,,
,5d6092f01d7a3e0001d6a7f6,001,2022-04-29_04h14.50.456,classification_task,2021.2.3,Win32,59.94485074,5d6092f01d7a3e0001d6a7f6,626b377229c10585ec392f8a,626b3bd3b635dd57debdebfc,,,,,,,,,,,,,,,,,,,,,,,l,1,"[""0.088"",""0.340"",""0.475"",""0.733""]","[1,1,0,1]",0,4,4,4,1,1,1,,,1,FALSE,0.4829,,,,,,,,,,,,,,,,,,,,,,,,,,,,,,
,5d6092f01d7a3e0001d6a7f6,001,2022-04-29_04h14.50.456,classification_task,2021.2.3,Win32,59.94485074,5d6092f01d7a3e0001d6a7f6,626b377229c10585ec392f8a,626b3bd3b635dd57debdebfc,,,,,,,,,,,,,,,,,,,,,,,a,0,"[""0.088"",""0.699"",""0.665"",""0.733""]","[1,0,1,1]",0,5,5,5,1,1,1,,,1,FALSE,0.786,,,,,,,,,,,,,,,,,,,,,,,,,,,,,,
,5d6092f01d7a3e0001d6a7f6,001,2022-04-29_04h14.50.456,classification_task,2021.2.3,Win32,59.94485074,5d6092f01d7a3e0001d6a7f6,626b377229c10585ec392f8a,626b3bd3b635dd57debdebfc,,,,,,,,,,,,,,,,,,,,,,,l,0,"[""0.224"",""0.429"",""0.465"",""0.923""]","[1,1,0,1]",0,6,6,6,1,0,1,,,1,FALSE,2.5654,,,,,,,,,,,,,,,,,,,,,,,,,,,,,,
,5d6092f01d7a3e0001d6a7f6,001,2022-04-29_04h14.50.456,classification_task,2021.2.3,Win32,59.94485074,5d6092f01d7a3e0001d6a7f6,626b377229c10585ec392f8a,626b3bd3b635dd57debdebfc,,,,,,,,,,,,,,,,,,,,,,,l,1,"[""0.033"",""0.340"",""0.665"",""0.733""]","[0,1,1,1]",0,7,7,7,1,1,1,,,1,FALSE,2.145,,,,,,,,,,,,,,,,,,,,,,,,,,,,,,
,5d6092f01d7a3e0001d6a7f6,001,2022-04-29_04h14.50.456,classification_task,2021.2.3,Win32,59.94485074,5d6092f01d7a3e0001d6a7f6,626b377229c10585ec392f8a,626b3bd3b635dd57debdebfc,,,,,,,,,,,,,,,,,,,,,,,l,0,"[""0.177"",""0.378"",""0.495"",""0.960""]","[1,1,0,1]",0,8,8,8,1,0,0,,,1,FALSE,1.1406,,,,,,,,,,,,,,,,,,,,,,,,,,,,,,
,5d6092f01d7a3e0001d6a7f6,001,2022-04-29_04h14.50.456,classification_task,2021.2.3,Win32,59.94485074,5d6092f01d7a3e0001d6a7f6,626b377229c10585ec392f8a,626b3bd3b635dd57debdebfc,,,,,,,,,,,,,,,,,,,,,,,l,0,"[""0.469"",""0.378"",""0.586"",""0.960""]","[0,1,1,1]",0,9,9,9,1,0,0,,,1,FALSE,0.8048,,,,,,,,,,,,,,,,,,,,,,,,,,,,,,
,5d6092f01d7a3e0001d6a7f6,001,2022-04-29_04h14.50.456,classification_task,2021.2.3,Win32,59.94485074,5d6092f01d7a3e0001d6a7f6,626b377229c10585ec392f8a,626b3bd3b635dd57debdebfc,,,,,,,,,,,,,,,,,,,,,,,a,0,"[""0.033"",""0.269"",""0.530"",""0.835""]","[0,1,1,1]",0,10,10,10,1,1,0,,,1,FALSE,0.7994,,,,,,,,,,,,,,,,,,,,,,,,,,,,,,
,5d6092f01d7a3e0001d6a7f6,001,2022-04-29_04h14.50.456,classification_task,2021.2.3,Win32,59.94485074,5d6092f01d7a3e0001d6a7f6,626b377229c10585ec392f8a,626b3bd3b635dd57debdebfc,,,,,,,,,,,,,,,,,,,,,,,l,0,"[""0.177"",""0.378"",""0.586"",""0.699""]","[1,1,1,0]",0,11,11,11,1,0,0,,,1,FALSE,1.1504,,,,,,,,,,,,,,,,,,,,,,,,,,,,,,
,5d6092f01d7a3e0001d6a7f6,001,2022-04-29_04h14.50.456,classification_task,2021.2.3,Win32,59.94485074,5d6092f01d7a3e0001d6a7f6,626b377229c10585ec392f8a,626b3bd3b635dd57debdebfc,,,,,,,,,,,,,,,,,,,,,,,a,1,"[""0.224"",""0.469"",""0.884"",""0.923""]","[1,0,1,1]",0,12,12,12,1,0,1,,,1,FALSE,1.1691,,,,,,,,,,,,,,,,,,,,,,,,,,,,,,
,5d6092f01d7a3e0001d6a7f6,001,2022-04-29_04h14.50.456,classification_task,2021.2.3,Win32,59.94485074,5d6092f01d7a3e0001d6a7f6,626b377229c10585ec392f8a,626b3bd3b635dd57debdebfc,,,,,,,,,,,,,,,,,,,,,,,l,1,"[""0.088"",""0.340"",""0.665"",""0.788""]","[1,1,1,0]",0,13,13,13,1,1,1,,,1,FALSE,4.535,,,,,,,,,,,,,,,,,,,,,,,,,,,,,,
,5d6092f01d7a3e0001d6a7f6,001,2022-04-29_04h14.50.456,classification_task,2021.2.3,Win32,59.94485074,5d6092f01d7a3e0001d6a7f6,626b377229c10585ec392f8a,626b3bd3b635dd57debdebfc,,,,,,,,,,,,,,,,,,,,,,,a,0,"[""0.137"",""0.484"",""0.530"",""0.835""]","[1,0,1,1]",0,14,14,14,1,1,0,,,1,FALSE,1.1625,,,,,,,,,,,,,,,,,,,,,,,,,,,,,,
,5d6092f01d7a3e0001d6a7f6,001,2022-04-29_04h14.50.456,classification_task,2021.2.3,Win32,59.94485074,5d6092f01d7a3e0001d6a7f6,626b377229c10585ec392f8a,626b3bd3b635dd57debdebfc,,,,,,,,,,,,,,,,,,,,,,,l,0,"[""0.224"",""0.429"",""0.884"",""0.469""]","[1,1,1,0]",0,15,15,15,1,0,1,,,1,FALSE,0.9412,,,,,,,,,,,,,,,,,,,,,,,,,,,,,,
,5d6092f01d7a3e0001d6a7f6,001,2022-04-29_04h14.50.456,classification_task,2021.2.3,Win32,59.94485074,5d6092f01d7a3e0001d6a7f6,626b377229c10585ec392f8a,626b3bd3b635dd57debdebfc,,,,,,,,,,,,,,,,,,,,,,,l,1,"[""0.033"",""0.269"",""0.530"",""0.835""]","[0,1,1,1]",0,16,16,16,1,1,0,,,1,FALSE,0.9698,,,,,,,,,,,,,,,,,,,,,,,,,,,,,,
,5d6092f01d7a3e0001d6a7f6,001,2022-04-29_04h14.50.456,classification_task,2021.2.3,Win32,59.94485074,5d6092f01d7a3e0001d6a7f6,626b377229c10585ec392f8a,626b3bd3b635dd57debdebfc,,,,,,,,,,,,,,,,,,,,,,,a,1,"[""0.177"",""0.033"",""0.586"",""0.960""]","[1,0,1,1]",0,17,17,17,1,0,0,,,1,FALSE,3.232,,,,,,,,,,,,,,,,,,,,,,,,,,,,,,
,5d6092f01d7a3e0001d6a7f6,001,2022-04-29_04h14.50.456,classification_task,2021.2.3,Win32,59.94485074,5d6092f01d7a3e0001d6a7f6,626b377229c10585ec392f8a,626b3bd3b635dd57debdebfc,,,,,,,,,,,,,,,,,,,,,,,l,1,"[""0.088"",""0.340"",""0.665"",""0.495""]","[1,1,1,0]",0,18,18,18,1,1,1,,,1,FALSE,1.0619,,,,,,,,,,,,,,,,,,,,,,,,,,,,,,
,5d6092f01d7a3e0001d6a7f6,001,2022-04-29_04h14.50.456,classification_task,2021.2.3,Win32,59.94485074,5d6092f01d7a3e0001d6a7f6,626b377229c10585ec392f8a,626b3bd3b635dd57debdebfc,,,,,,,,,,,,,,,,,,,,,,,a,0,"[""0.303"",""0.340"",""0.665"",""0.733""]","[0,1,1,1]",0,19,19,19,1,1,1,,,1,FALSE,1.1989,,,,,,,,,,,,,,,,,,,,,,,,,,,,,,
,5d6092f01d7a3e0001d6a7f6,001,2022-04-29_04h14.50.456,classification_task,2021.2.3,Win32,59.94485074,5d6092f01d7a3e0001d6a7f6,626b377229c10585ec392f8a,626b3bd3b635dd57debdebfc,,,,,,,,,,,,,,,,,,,,,,,l,1,"[""0.088"",""0.469"",""0.665"",""0.733""]","[1,0,1,1]",0,20,20,20,1,1,1,,,1,FALSE,2.0337,,,,,,,,,,,,,,,,,,,,,,,,,,,,,,
,5d6092f01d7a3e0001d6a7f6,001,2022-04-29_04h14.50.456,classification_task,2021.2.3,Win32,59.94485074,5d6092f01d7a3e0001d6a7f6,626b377229c10585ec392f8a,626b3bd3b635dd57debdebfc,,,,,,,,,,,,,,,,,,,,,,,l,1,"[""0.088"",""0.340"",""0.033"",""0.733""]","[1,1,0,1]",0,21,21,21,1,1,1,,,1,FALSE,2.3315,,,,,,,,,,,,,,,,,,,,,,,,,,,,,,
,5d6092f01d7a3e0001d6a7f6,001,2022-04-29_04h14.50.456,classification_task,2021.2.3,Win32,59.94485074,5d6092f01d7a3e0001d6a7f6,626b377229c10585ec392f8a,626b3bd3b635dd57debdebfc,,,,,,,,,,,,,,,,,,,,,,,a,1,"[""0.475"",""0.378"",""0.586"",""0.960""]","[0,1,1,1]",0,22,22,22,1,0,0,,,1,FALSE,1.4281,,,,,,,,,,,,,,,,,,,,,,,,,,,,,,
,5d6092f01d7a3e0001d6a7f6,001,2022-04-29_04h14.50.456,classification_task,2021.2.3,Win32,59.94485074,5d6092f01d7a3e0001d6a7f6,626b377229c10585ec392f8a,626b3bd3b635dd57debdebfc,,,,,,,,,,,,,,,,,,,,,,,l,0,"[""0.224"",""0.033"",""0.884"",""0.923""]","[1,0,1,1]",0,23,23,23,1,0,1,,,1,FALSE,1.2723,,,,,,,,,,,,,,,,,,,,,,,,,,,,,,
,5d6092f01d7a3e0001d6a7f6,001,2022-04-29_04h14.50.456,classification_task,2021.2.3,Win32,59.94485074,5d6092f01d7a3e0001d6a7f6,626b377229c10585ec392f8a,626b3bd3b635dd57debdebfc,,,,,,,,,,,,,,,,,,,,,,,a,1,"[""0.177"",""0.378"",""0.466"",""0.960""]","[1,1,0,1]",0,24,24,24,1,0,0,,,1,FALSE,1.1668,,,,,,,,,,,,,,,,,,,,,,,,,,,,,,
,5d6092f01d7a3e0001d6a7f6,001,2022-04-29_04h14.50.456,classification_task,2021.2.3,Win32,59.94485074,5d6092f01d7a3e0001d6a7f6,626b377229c10585ec392f8a,626b3bd3b635dd57debdebfc,,,,,,,,,,,,,,,,,,,,,,,l,0,"[""0.224"",""0.429"",""0.495"",""0.923""]","[1,1,0,1]",0,25,25,25,1,0,1,,,1,FALSE,0.9338,,,,,,,,,,,,,,,,,,,,,,,,,,,,,,
,5d6092f01d7a3e0001d6a7f6,001,2022-04-29_04h14.50.456,classification_task,2021.2.3,Win32,59.94485074,5d6092f01d7a3e0001d6a7f6,626b377229c10585ec392f8a,626b3bd3b635dd57debdebfc,,,,,,,,,,,,,,,,,,,,,,,a,0,"[""0.137"",""0.269"",""0.530"",""0.624""]","[1,1,1,0]",0,26,26,26,1,1,0,,,1,FALSE,0.683,,,,,,,,,,,,,,,,,,,,,,,,,,,,,,
,5d6092f01d7a3e0001d6a7f6,001,2022-04-29_04h14.50.456,classification_task,2021.2.3,Win32,59.94485074,5d6092f01d7a3e0001d6a7f6,626b377229c10585ec392f8a,626b3bd3b635dd57debdebfc,,,,,,,,,,,,,,,,,,,,,,,a,0,"[""0.137"",""0.475"",""0.530"",""0.835""]","[1,0,1,1]",0,27,27,27,1,1,0,,,1,FALSE,0.5366,,,,,,,,,,,,,,,,,,,,,,,,,,,,,,
,5d6092f01d7a3e0001d6a7f6,001,2022-04-29_04h14.50.456,classification_task,2021.2.3,Win32,59.94485074,5d6092f01d7a3e0001d6a7f6,626b377229c10585ec392f8a,626b3bd3b635dd57debdebfc,,,,,,,,,,,,,,,,,,,,,,,a,1,"[""0.469"",""0.429"",""0.884"",""0.923""]","[0,1,1,1]",0,28,28,28,1,0,1,,,1,FALSE,0.6833,,,,,,,,,,,,,,,,,,,,,,,,,,,,,,
,5d6092f01d7a3e0001d6a7f6,001,2022-04-29_04h14.50.456,classification_task,2021.2.3,Win32,59.94485074,5d6092f01d7a3e0001d6a7f6,626b377229c10585ec392f8a,626b3bd3b635dd57debdebfc,,,,,,,,,,,,,,,,,,,,,,,l,0,"[""0.177"",""0.378"",""0.586"",""0.466""]","[1,1,1,0]",0,29,29,29,1,0,0,,,1,FALSE,0.7671,,,,,,,,,,,,,,,,,,,,,,,,,,,,,,
,5d6092f01d7a3e0001d6a7f6,001,2022-04-29_04h14.50.456,classification_task,2021.2.3,Win32,59.94485074,5d6092f01d7a3e0001d6a7f6,626b377229c10585ec392f8a,626b3bd3b635dd57debdebfc,,,,,,,,,,,,,,,,,,,,,,,l,0,"[""0.224"",""0.429"",""0.884"",""0.051""]","[1,1,1,0]",0,30,30,30,1,0,1,,,1,FALSE,0.7992,,,,,,,,,,,,,,,,,,,,,,,,,,,,,,
,5d6092f01d7a3e0001d6a7f6,001,2022-04-29_04h14.50.456,classification_task,2021.2.3,Win32,59.94485074,5d6092f01d7a3e0001d6a7f6,626b377229c10585ec392f8a,626b3bd3b635dd57debdebfc,,,,,,,,,,,,,,,,,,,,,,,a,0,"[""0.137"",""0.269"",""0.491"",""0.835""]","[1,1,0,1]",0,31,31,31,1,1,0,,,1,FALSE,0.4826,,,,,,,,,,,,,,,,,,,,,,,,,,,,,,
,5d6092f01d7a3e0001d6a7f6,001,2022-04-29_04h14.50.456,classification_task,2021.2.3,Win32,59.94485074,5d6092f01d7a3e0001d6a7f6,626b377229c10585ec392f8a,626b3bd3b635dd57debdebfc,,,,,,,,,,,,,,,,,,,,,,,a,1,"[""0.177"",""0.788"",""0.586"",""0.960""]","[1,0,1,1]",0,32,32,32,1,0,0,,,1,FALSE,0.8485,,,,,,,,,,,,,,,,,,,,,,,,,,,,,,
,5d6092f01d7a3e0001d6a7f6,001,2022-04-29_04h14.50.456,classification_task,2021.2.3,Win32,59.94485074,5d6092f01d7a3e0001d6a7f6,626b377229c10585ec392f8a,626b3bd3b635dd57debdebfc,,,,,,,,,,,,,,,,,,,,,,,a,1,"[""0.699"",""0.378"",""0.586"",""0.960""]","[0,1,1,1]",0,33,33,33,1,0,0,,,1,FALSE,0.9003,,,,,,,,,,,,,,,,,,,,,,,,,,,,,,
,5d6092f01d7a3e0001d6a7f6,001,2022-04-29_04h14.50.456,classification_task,2021.2.3,Win32,59.94485074,5d6092f01d7a3e0001d6a7f6,626b377229c10585ec392f8a,626b3bd3b635dd57debdebfc,,,,,,,,,,,,,,,,,,,,,,,l,1,"[""0.088"",""0.340"",""0.665"",""0.466""]","[1,1,1,0]",0,34,34,34,1,1,1,,,1,FALSE,0.7986,,,,,,,,,,,,,,,,,,,,,,,,,,,,,,
,5d6092f01d7a3e0001d6a7f6,001,2022-04-29_04h14.50.456,classification_task,2021.2.3,Win32,59.94485074,5d6092f01d7a3e0001d6a7f6,626b377229c10585ec392f8a,626b3bd3b635dd57debdebfc,,,,,,,,,,,,,,,,,,,,,,,l,0,"[""0.624"",""0.429"",""0.884"",""0.923""]","[0,1,1,1]",0,35,35,35,1,0,1,,,1,FALSE,0.6876,,,,,,,,,,,,,,,,,,,,,,,,,,,,,,
,5d6092f01d7a3e0001d6a7f6,001,2022-04-29_04h14.50.456,classification_task,2021.2.3,Win32,59.94485074,5d6092f01d7a3e0001d6a7f6,626b377229c10585ec392f8a,626b3bd3b635dd57debdebfc,,,,,,,,,,,,,,,,,,,,,,,a,1,"[""0.224"",""0.429"",""0.053"",""0.923""]","[1,1,0,1]",0,36,36,36,1,0,1,,,1,FALSE,0.7485,,,,,,,,,,,,,,,,,,,,,,,,,,,,,,
,5d6092f01d7a3e0001d6a7f6,001,2022-04-29_04h14.50.456,classification_task,2021.2.3,Win32,59.94485074,5d6092f01d7a3e0001d6a7f6,626b377229c10585ec392f8a,626b3bd3b635dd57debdebfc,,,,,,,,,,,,,,,,,,,,,,,a,0,"[""0.053"",""0.269"",""0.530"",""0.835""]","[0,1,1,1]",0,37,37,37,1,1,0,,,1,FALSE,1.2833,,,,,,,,,,,,,,,,,,,,,,,,,,,,,,
,5d6092f01d7a3e0001d6a7f6,001,2022-04-29_04h14.50.456,classification_task,2021.2.3,Win32,59.94485074,5d6092f01d7a3e0001d6a7f6,626b377229c10585ec392f8a,626b3bd3b635dd57debdebfc,,,,,,,,,,,,,,,,,,,,,,,a,1,"[""0.224"",""0.429"",""0.884"",""0.495""]","[1,1,1,0]",0,38,38,38,1,0,1,,,1,FALSE,0.8329,,,,,,,,,,,,,,,,,,,,,,,,,,,,,,
,5d6092f01d7a3e0001d6a7f6,001,2022-04-29_04h14.50.456,classification_task,2021.2.3,Win32,59.94485074,5d6092f01d7a3e0001d6a7f6,626b377229c10585ec392f8a,626b3bd3b635dd57debdebfc,,,,,,,,,,,,,,,,,,,,,,,a,1,"[""0.224"",""0.303"",""0.884"",""0.923""]","[1,0,1,1]",0,39,39,39,1,0,1,,,1,FALSE,0.8724,,,,,,,,,,,,,,,,,,,,,,,,,,,,,,
,5d6092f01d7a3e0001d6a7f6,001,2022-04-29_04h14.50.456,classification_task,2021.2.3,Win32,59.94485074,5d6092f01d7a3e0001d6a7f6,626b377229c10585ec392f8a,626b3bd3b635dd57debdebfc,,,,,,,,,,,,,,,,,,,,,,,l,1,"[""0.137"",""0.303"",""0.530"",""0.835""]","[1,0,1,1]",0,40,40,40,1,1,0,,,1,FALSE,1.2192,,,,,,,,,,,,,,,,,,,,,,,,,,,,,,
,5d6092f01d7a3e0001d6a7f6,001,2022-04-29_04h14.50.456,classification_task,2021.2.3,Win32,59.94485074,5d6092f01d7a3e0001d6a7f6,626b377229c10585ec392f8a,626b3bd3b635dd57debdebfc,,,,,,,,,,,,,,,,,,,,,,,a,0,"[""0.088"",""0.340"",""0.475"",""0.733""]","[1,1,0,1]",0,41,41,41,1,1,1,,,1,FALSE,0.9823,,,,,,,,,,,,,,,,,,,,,,,,,,,,,,
,5d6092f01d7a3e0001d6a7f6,001,2022-04-29_04h14.50.456,classification_task,2021.2.3,Win32,59.94485074,5d6092f01d7a3e0001d6a7f6,626b377229c10585ec392f8a,626b3bd3b635dd57debdebfc,,,,,,,,,,,,,,,,,,,,,,,l,1,"[""0.088"",""0.484"",""0.665"",""0.733""]","[1,0,1,1]",0,42,42,42,1,1,1,,,1,FALSE,0.9671,,,,,,,,,,,,,,,,,,,,,,,,,,,,,,
,5d6092f01d7a3e0001d6a7f6,001,2022-04-29_04h14.50.456,classification_task,2021.2.3,Win32,59.94485074,5d6092f01d7a3e0001d6a7f6,626b377229c10585ec392f8a,626b3bd3b635dd57debdebfc,,,,,,,,,,,,,,,,,,,,,,,a,0,"[""0.137"",""0.269"",""0.530"",""0.465""]","[1,1,1,0]",0,43,43,43,1,1,0,,,1,FALSE,0.8058,,,,,,,,,,,,,,,,,,,,,,,,,,,,,,
,5d6092f01d7a3e0001d6a7f6,001,2022-04-29_04h14.50.456,classification_task,2021.2.3,Win32,59.94485074,5d6092f01d7a3e0001d6a7f6,626b377229c10585ec392f8a,626b3bd3b635dd57debdebfc,,,,,,,,,,,,,,,,,,,,,,,l,0,"[""0.177"",""0.378"",""0.586"",""0.469""]","[1,1,1,0]",0,44,44,44,1,0,0,,,1,FALSE,0.8364,,,,,,,,,,,,,,,,,,,,,,,,,,,,,,
,5d6092f01d7a3e0001d6a7f6,001,2022-04-29_04h14.50.456,classification_task,2021.2.3,Win32,59.94485074,5d6092f01d7a3e0001d6a7f6,626b377229c10585ec392f8a,626b3bd3b635dd57debdebfc,,,,,,,,,,,,,,,,,,,,,,,l,1,"[""0.788"",""0.340"",""0.665"",""0.733""]","[0,1,1,1]",0,45,45,45,1,1,1,,,1,FALSE,1.0671,,,,,,,,,,,,,,,,,,,,,,,,,,,,,,
,5d6092f01d7a3e0001d6a7f6,001,2022-04-29_04h14.50.456,classification_task,2021.2.3,Win32,59.94485074,5d6092f01d7a3e0001d6a7f6,626b377229c10585ec392f8a,626b3bd3b635dd57debdebfc,,,,,,,,,,,,,,,,,,,,,,,l,0,"[""0.177"",""0.378"",""0.303"",""0.960""]","[1,1,0,1]",0,46,46,46,1,0,0,,,1,FALSE,1.0215,,,,,,,,,,,,,,,,,,,,,,,,,,,,,,
,5d6092f01d7a3e0001d6a7f6,001,2022-04-29_04h14.50.456,classification_task,2021.2.3,Win32,59.94485074,5d6092f01d7a3e0001d6a7f6,626b377229c10585ec392f8a,626b3bd3b635dd57debdebfc,,,,,,,,,,,,,,,,,,,,,,,l,1,"[""0.137"",""0.269"",""0.033"",""0.835""]","[1,1,0,1]",0,47,47,47,1,1,0,,,1,FALSE,0.8653,,,,,,,,,,,,,,,,,,,,,,,,,,,,,,
,5d6092f01d7a3e0001d6a7f6,001,2022-04-29_04h14.50.456,classification_task,2021.2.3,Win32,59.94485074,5d6092f01d7a3e0001d6a7f6,626b377229c10585ec392f8a,626b3bd3b635dd57debdebfc,,,,,,,,,,,,,,,,,,,,,,,a,1,"[""0.224"",""0.429"",""0.884"",""0.491""]","[1,1,1,0]",0,48,48,48,1,0,1,,,1,FALSE,1.7988,,,,,,,,,,,,,,,,,,,,,,,,,,,,,,
,5d6092f01d7a3e0001d6a7f6,001,2022-04-29_04h14.50.456,classification_task,2021.2.3,Win32,59.94485074,5d6092f01d7a3e0001d6a7f6,626b377229c10585ec392f8a,626b3bd3b635dd57debdebfc,,,,,,,,,,,,,,,,,,,,,,,l,1,"[""0.475"",""0.269"",""0.530"",""0.835""]","[0,1,1,1]",0,49,49,49,1,1,0,,,1,FALSE,0.9994,,,,,,,,,,,,,,,,,,,,,,,,,,,,,,
,5d6092f01d7a3e0001d6a7f6,001,2022-04-29_04h14.50.456,classification_task,2021.2.3,Win32,59.94485074,5d6092f01d7a3e0001d6a7f6,626b377229c10585ec392f8a,626b3bd3b635dd57debdebfc,,,,,,,,,,,,,,,,,,,,,,,a,0,"[""0.088"",""0.465"",""0.665"",""0.733""]","[1,0,1,1]",0,50,50,50,1,1,1,,,1,FALSE,0.9469,,,,,,,,,,,,,,,,,,,,,,,,,,,,,,
,5d6092f01d7a3e0001d6a7f6,001,2022-04-29_04h14.50.456,classification_task,2021.2.3,Win32,59.94485074,5d6092f01d7a3e0001d6a7f6,626b377229c10585ec392f8a,626b3bd3b635dd57debdebfc,,,,,,,,,,,,,,,,,,,,,,,l,1,"[""0.137"",""0.269"",""0.530"",""0.051""]","[1,1,1,0]",0,51,51,51,1,1,0,,,1,FALSE,0.8015,,,,,,,,,,,,,,,,,,,,,,,,,,,,,,
,5d6092f01d7a3e0001d6a7f6,001,2022-04-29_04h14.50.456,classification_task,2021.2.3,Win32,59.94485074,5d6092f01d7a3e0001d6a7f6,626b377229c10585ec392f8a,626b3bd3b635dd57debdebfc,,,,,,,,,,,,,,,,,,,,,,,l,1,"[""0.137"",""0.269"",""0.466"",""0.835""]","[1,1,0,1]",0,52,52,52,1,1,0,,,1,FALSE,1.1169,,,,,,,,,,,,,,,,,,,,,,,,,,,,,,
,5d6092f01d7a3e0001d6a7f6,001,2022-04-29_04h14.50.456,classification_task,2021.2.3,Win32,59.94485074,5d6092f01d7a3e0001d6a7f6,626b377229c10585ec392f8a,626b3bd3b635dd57debdebfc,,,,,,,,,,,,,,,,,,,,,,,a,0,"[""0.088"",""0.340"",""0.469"",""0.733""]","[1,1,0,1]",0,53,53,53,1,1,1,,,1,FALSE,1.0166,,,,,,,,,,,,,,,,,,,,,,,,,,,,,,
,5d6092f01d7a3e0001d6a7f6,001,2022-04-29_04h14.50.456,classification_task,2021.2.3,Win32,59.94485074,5d6092f01d7a3e0001d6a7f6,626b377229c10585ec392f8a,626b3bd3b635dd57debdebfc,,,,,,,,,,,,,,,,,,,,,,,a,1,"[""0.784"",""0.429"",""0.884"",""0.923""]","[0,1,1,1]",0,54,54,54,1,0,1,,,1,FALSE,0.7501,,,,,,,,,,,,,,,,,,,,,,,,,,,,,,
,5d6092f01d7a3e0001d6a7f6,001,2022-04-29_04h14.50.456,classification_task,2021.2.3,Win32,59.94485074,5d6092f01d7a3e0001d6a7f6,626b377229c10585ec392f8a,626b3bd3b635dd57debdebfc,,,,,,,,,,,,,,,,,,,,,,,l,0,"[""0.224"",""0.429"",""0.466"",""0.923""]","[1,1,0,1]",0,55,55,55,1,0,1,,,1,FALSE,0.8323,,,,,,,,,,,,,,,,,,,,,,,,,,,,,,
,5d6092f01d7a3e0001d6a7f6,001,2022-04-29_04h14.50.456,classification_task,2021.2.3,Win32,59.94485074,5d6092f01d7a3e0001d6a7f6,626b377229c10585ec392f8a,626b3bd3b635dd57debdebfc,,,,,,,,,,,,,,,,,,,,,,,a,0,"[""0.088"",""0.340"",""0.665"",""0.033""]","[1,1,1,0]",0,56,56,56,1,1,1,,,1,FALSE,0.5843,,,,,,,,,,,,,,,,,,,,,,,,,,,,,,
,5d6092f01d7a3e0001d6a7f6,001,2022-04-29_04h14.50.456,classification_task,2021.2.3,Win32,59.94485074,5d6092f01d7a3e0001d6a7f6,626b377229c10585ec392f8a,626b3bd3b635dd57debdebfc,,,,,,,,,,,,,,,,,,,,,,,a,1,"[""0.177"",""0.378"",""0.586"",""0.051""]","[1,1,1,0]",0,57,57,57,1,0,0,,,1,FALSE,1.1008,,,,,,,,,,,,,,,,,,,,,,,,,,,,,,
,5d6092f01d7a3e0001d6a7f6,001,2022-04-29_04h14.50.456,classification_task,2021.2.3,Win32,59.94485074,5d6092f01d7a3e0001d6a7f6,626b377229c10585ec392f8a,626b3bd3b635dd57debdebfc,,,,,,,,,,,,,,,,,,,,,,,l,0,"[""0.051"",""0.378"",""0.586"",""0.960""]","[0,1,1,1]",0,58,58,58,1,0,0,,,1,FALSE,0.816,,,,,,,,,,,,,,,,,,,,,,,,,,,,,,
,5d6092f01d7a3e0001d6a7f6,001,2022-04-29_04h14.50.456,classification_task,2021.2.3,Win32,59.94485074,5d6092f01d7a3e0001d6a7f6,626b377229c10585ec392f8a,626b3bd3b635dd57debdebfc,,,,,,,,,,,,,,,,,,,,,,,a,0,"[""0.699"",""0.340"",""0.665"",""0.733""]","[0,1,1,1]",0,59,59,59,1,1,1,,,1,FALSE,0.8314,,,,,,,,,,,,,,,,,,,,,,,,,,,,,,
,5d6092f01d7a3e0001d6a7f6,001,2022-04-29_04h14.50.456,classification_task,2021.2.3,Win32,59.94485074,5d6092f01d7a3e0001d6a7f6,626b377229c10585ec392f8a,626b3bd3b635dd57debdebfc,,,,,,,,,,,,,,,,,,,,,,,a,1,"[""0.177"",""0.491"",""0.586"",""0.960""]","[1,0,1,1]",0,60,60,60,1,0,0,,,1,FALSE,0.4684,,,,,,,,,,,,,,,,,,,,,,,,,,,,,,
,5d6092f01d7a3e0001d6a7f6,001,2022-04-29_04h14.50.456,classification_task,2021.2.3,Win32,59.94485074,5d6092f01d7a3e0001d6a7f6,626b377229c10585ec392f8a,626b3bd3b635dd57debdebfc,,,,,,,,,,,,,,,,,,,,,,,a,1,"[""0.177"",""0.378"",""0.466"",""0.960""]","[1,1,0,1]",0,61,61,61,1,0,0,,,1,FALSE,0.999,,,,,,,,,,,,,,,,,,,,,,,,,,,,,,
,5d6092f01d7a3e0001d6a7f6,001,2022-04-29_04h14.50.456,classification_task,2021.2.3,Win32,59.94485074,5d6092f01d7a3e0001d6a7f6,626b377229c10585ec392f8a,626b3bd3b635dd57debdebfc,,,,,,,,,,,,,,,,,,,,,,,l,0,"[""0.224"",""0.466"",""0.884"",""0.923""]","[1,0,1,1]",0,62,62,62,1,0,1,,,1,FALSE,1.8537,,,,,,,,,,,,,,,,,,,,,,,,,,,,,,
,5d6092f01d7a3e0001d6a7f6,001,2022-04-29_04h14.50.456,classification_task,2021.2.3,Win32,59.94485074,5d6092f01d7a3e0001d6a7f6,626b377229c10585ec392f8a,626b3bd3b635dd57debdebfc,,,,,,,,,,,,,,,,,,,,,,,l,1,"[""0.137"",""0.491"",""0.530"",""0.835""]","[1,0,1,1]",0,63,63,63,1,1,0,,,1,FALSE,1.0662,,,,,,,,,,,,,,,,,,,,,,,,,,,,,,
,5d6092f01d7a3e0001d6a7f6,001,2022-04-29_04h14.50.456,classification_task,2021.2.3,Win32,59.94485074,5d6092f01d7a3e0001d6a7f6,626b377229c10585ec392f8a,626b3bd3b635dd57debdebfc,,,,,,,,,,,,,,,,,,,,,,,,,,,,,,,,,,,,,,,0, ,,0,6.518714482,183.9532,0,1,1,1,1,2,2,,,,,,,,,,,,,,,,,
,5d6092f01d7a3e0001d6a7f6,001,2022-04-29_04h14.50.456,classification_task,2021.2.3,Win32,59.94485074,5d6092f01d7a3e0001d6a7f6,626b377229c10585ec392f8a,626b3bd3b635dd57debdebfc,,,,,,,,,,,,,,,,,,,,,,,,,,,,,,,,,,,,,,,1,  ,,0,8.67430923,187.4723,0,1,1,1,1,2,2,,,,,,,,,,,,,,,,,
,5d6092f01d7a3e0001d6a7f6,001,2022-04-29_04h14.50.456,classification_task,2021.2.3,Win32,59.94485074,5d6092f01d7a3e0001d6a7f6,626b377229c10585ec392f8a,626b3bd3b635dd57debdebfc,,,,,,,,,,,,,,,,,,,,,,,,,,,,,,,,,,,,,,,2,  ,,0,5.440917108,188.735,0,1,1,1,1,2,2,,,,,,,,,,,,,,,,,
,5d6092f01d7a3e0001d6a7f6,001,2022-04-29_04h14.50.456,classification_task,2021.2.3,Win32,59.94485074,5d6092f01d7a3e0001d6a7f6,626b377229c10585ec392f8a,626b3bd3b635dd57debdebfc,,,,,,,,,,,,,,,,,,,,,,,,,,,,,,,,,,,,,,,,,,,,,0,1,1,1,1,,2,,,,,,,,,,,,,,,,,
,5d6092f01d7a3e0001d6a7f6,001,2022-04-29_04h14.50.456,classification_task,2021.2.3,Win32,59.94485074,5d6092f01d7a3e0001d6a7f6,626b377229c10585ec392f8a,626b3bd3b635dd57debdebfc,,,,,,,,,,,,,,,,,,,,,space,56.4571,l,1,"[""0.033"",""0.340"",""0.665"",""0.733""]","[0,1,1,1]",0,0,0,0,1,1,1,,,1,FALSE,1.6864,,,,,,,,,,,,,,,,,,,,,,,,,,,,,,
,5d6092f01d7a3e0001d6a7f6,001,2022-04-29_04h14.50.456,classification_task,2021.2.3,Win32,59.94485074,5d6092f01d7a3e0001d6a7f6,626b377229c10585ec392f8a,626b3bd3b635dd57debdebfc,,,,,,,,,,,,,,,,,,,,,,,l,0,"[""0.224"",""0.429"",""0.033"",""0.923""]","[1,1,0,1]",0,1,1,1,1,0,1,,,1,FALSE,1.0331,,,,,,,,,,,,,,,,,,,,,,,,,,,,,,
,5d6092f01d7a3e0001d6a7f6,001,2022-04-29_04h14.50.456,classification_task,2021.2.3,Win32,59.94485074,5d6092f01d7a3e0001d6a7f6,626b377229c10585ec392f8a,626b3bd3b635dd57debdebfc,,,,,,,,,,,,,,,,,,,,,,,l,0,"[""0.177"",""0.469"",""0.586"",""0.960""]","[1,0,1,1]",0,2,2,2,1,0,0,,,1,FALSE,1.332,,,,,,,,,,,,,,,,,,,,,,,,,,,,,,
,5d6092f01d7a3e0001d6a7f6,001,2022-04-29_04h14.50.456,classification_task,2021.2.3,Win32,59.94485074,5d6092f01d7a3e0001d6a7f6,626b377229c10585ec392f8a,626b3bd3b635dd57debdebfc,,,,,,,,,,,,,,,,,,,,,,,a,0,"[""0.088"",""0.469"",""0.665"",""0.733""]","[1,0,1,1]",0,3,3,3,1,1,1,,,1,FALSE,0.8348,,,,,,,,,,,,,,,,,,,,,,,,,,,,,,
,5d6092f01d7a3e0001d6a7f6,001,2022-04-29_04h14.50.456,classification_task,2021.2.3,Win32,59.94485074,5d6092f01d7a3e0001d6a7f6,626b377229c10585ec392f8a,626b3bd3b635dd57debdebfc,,,,,,,,,,,,,,,,,,,,,,,a,0,"[""0.137"",""0.466"",""0.530"",""0.835""]","[1,0,1,1]",0,4,4,4,1,1,0,,,1,FALSE,1.2485,,,,,,,,,,,,,,,,,,,,,,,,,,,,,,
,5d6092f01d7a3e0001d6a7f6,001,2022-04-29_04h14.50.456,classification_task,2021.2.3,Win32,59.94485074,5d6092f01d7a3e0001d6a7f6,626b377229c10585ec392f8a,626b3bd3b635dd57debdebfc,,,,,,,,,,,,,,,,,,,,,,,l,0,"[""0.624"",""0.378"",""0.586"",""0.960""]","[0,1,1,1]",0,5,5,5,1,0,0,,,1,FALSE,0.8152,,,,,,,,,,,,,,,,,,,,,,,,,,,,,,
,5d6092f01d7a3e0001d6a7f6,001,2022-04-29_04h14.50.456,classification_task,2021.2.3,Win32,59.94485074,5d6092f01d7a3e0001d6a7f6,626b377229c10585ec392f8a,626b3bd3b635dd57debdebfc,,,,,,,,,,,,,,,,,,,,,,,a,0,"[""0.137"",""0.269"",""0.491"",""0.835""]","[1,1,0,1]",0,6,6,6,1,1,0,,,1,FALSE,0.7342,,,,,,,,,,,,,,,,,,,,,,,,,,,,,,
,5d6092f01d7a3e0001d6a7f6,001,2022-04-29_04h14.50.456,classification_task,2021.2.3,Win32,59.94485074,5d6092f01d7a3e0001d6a7f6,626b377229c10585ec392f8a,626b3bd3b635dd57debdebfc,,,,,,,,,,,,,,,,,,,,,,,a,1,"[""0.177"",""0.378"",""0.053"",""0.960""]","[1,1,0,1]",0,7,7,7,1,0,0,,,1,FALSE,1.1731,,,,,,,,,,,,,,,,,,,,,,,,,,,,,,
,5d6092f01d7a3e0001d6a7f6,001,2022-04-29_04h14.50.456,classification_task,2021.2.3,Win32,59.94485074,5d6092f01d7a3e0001d6a7f6,626b377229c10585ec392f8a,626b3bd3b635dd57debdebfc,,,,,,,,,,,,,,,,,,,,,,,a,1,"[""0.177"",""0.378"",""0.586"",""0.780""]","[1,1,1,0]",0,8,8,8,1,0,0,,,1,FALSE,1.3175,,,,,,,,,,,,,,,,,,,,,,,,,,,,,,
,5d6092f01d7a3e0001d6a7f6,001,2022-04-29_04h14.50.456,classification_task,2021.2.3,Win32,59.94485074,5d6092f01d7a3e0001d6a7f6,626b377229c10585ec392f8a,626b3bd3b635dd57debdebfc,,,,,,,,,,,,,,,,,,,,,,,l,1,"[""0.088"",""0.340"",""0.051"",""0.733""]","[1,1,0,1]",0,9,9,9,1,1,1,,,1,FALSE,0.8359,,,,,,,,,,,,,,,,,,,,,,,,,,,,,,
,5d6092f01d7a3e0001d6a7f6,001,2022-04-29_04h14.50.456,classification_task,2021.2.3,Win32,59.94485074,5d6092f01d7a3e0001d6a7f6,626b377229c10585ec392f8a,626b3bd3b635dd57debdebfc,,,,,,,,,,,,,,,,,,,,,,,l,1,"[""0.780"",""0.269"",""0.530"",""0.835""]","[0,1,1,1]",0,10,10,10,1,1,0,,,1,FALSE,1.0705,,,,,,,,,,,,,,,,,,,,,,,,,,,,,,
,5d6092f01d7a3e0001d6a7f6,001,2022-04-29_04h14.50.456,classification_task,2021.2.3,Win32,59.94485074,5d6092f01d7a3e0001d6a7f6,626b377229c10585ec392f8a,626b3bd3b635dd57debdebfc,,,,,,,,,,,,,,,,,,,,,,,a,0,"[""0.137"",""0.269"",""0.530"",""0.484""]","[1,1,1,0]",0,11,11,11,1,1,0,,,1,FALSE,1.7162,,,,,,,,,,,,,,,,,,,,,,,,,,,,,,
,5d6092f01d7a3e0001d6a7f6,001,2022-04-29_04h14.50.456,classification_task,2021.2.3,Win32,59.94485074,5d6092f01d7a3e0001d6a7f6,626b377229c10585ec392f8a,626b3bd3b635dd57debdebfc,,,,,,,,,,,,,,,,,,,,,,,a,0,"[""0.088"",""0.340"",""0.665"",""0.624""]","[1,1,1,0]",0,12,12,12,1,1,1,,,1,FALSE,1.301,,,,,,,,,,,,,,,,,,,,,,,,,,,,,,
,5d6092f01d7a3e0001d6a7f6,001,2022-04-29_04h14.50.456,classification_task,2021.2.3,Win32,59.94485074,5d6092f01d7a3e0001d6a7f6,626b377229c10585ec392f8a,626b3bd3b635dd57debdebfc,,,,,,,,,,,,,,,,,,,,,,,l,0,"[""0.224"",""0.429"",""0.884"",""0.051""]","[1,1,1,0]",0,13,13,13,1,0,1,,,1,FALSE,1.1272,,,,,,,,,,,,,,,,,,,,,,,,,,,,,,
,5d6092f01d7a3e0001d6a7f6,001,2022-04-29_04h14.50.456,classification_task,2021.2.3,Win32,59.94485074,5d6092f01d7a3e0001d6a7f6,626b377229c10585ec392f8a,626b3bd3b635dd57debdebfc,,,,,,,,,,,,,,,,,,,,,,,l,0,"[""0.224"",""0.788"",""0.884"",""0.923""]","[1,0,1,1]",0,14,14,14,1,0,1,,,1,FALSE,1.0708,,,,,,,,,,,,,,,,,,,,,,,,,,,,,,
,5d6092f01d7a3e0001d6a7f6,001,2022-04-29_04h14.50.456,classification_task,2021.2.3,Win32,59.94485074,5d6092f01d7a3e0001d6a7f6,626b377229c10585ec392f8a,626b3bd3b635dd57debdebfc,,,,,,,,,,,,,,,,,,,,,,,a,1,"[""0.033"",""0.429"",""0.884"",""0.923""]","[0,1,1,1]",0,15,15,15,1,0,1,,,1,FALSE,0.8488,,,,,,,,,,,,,,,,,,,,,,,,,,,,,,
,5d6092f01d7a3e0001d6a7f6,001,2022-04-29_04h14.50.456,classification_task,2021.2.3,Win32,59.94485074,5d6092f01d7a3e0001d6a7f6,626b377229c10585ec392f8a,626b3bd3b635dd57debdebfc,,,,,,,,,,,,,,,,,,,,,,,a,0,"[""0.137"",""0.269"",""0.788"",""0.835""]","[1,1,0,1]",0,16,16,16,1,1,0,,,1,FALSE,0.8006,,,,,,,,,,,,,,,,,,,,,,,,,,,,,,
,5d6092f01d7a3e0001d6a7f6,001,2022-04-29_04h14.50.456,classification_task,2021.2.3,Win32,59.94485074,5d6092f01d7a3e0001d6a7f6,626b377229c10585ec392f8a,626b3bd3b635dd57debdebfc,,,,,,,,,,,,,,,,,,,,,,,l,0,"[""0.177"",""0.378"",""0.586"",""0.784""]","[1,1,1,0]",0,17,17,17,1,0,0,,,1,FALSE,1.017,,,,,,,,,,,,,,,,,,,,,,,,,,,,,,
,5d6092f01d7a3e0001d6a7f6,001,2022-04-29_04h14.50.456,classification_task,2021.2.3,Win32,59.94485074,5d6092f01d7a3e0001d6a7f6,626b377229c10585ec392f8a,626b3bd3b635dd57debdebfc,,,,,,,,,,,,,,,,,,,,,,,a,1,"[""0.224"",""0.429"",""0.884"",""0.469""]","[1,1,1,0]",0,18,18,18,1,0,1,,,1,FALSE,0.9001,,,,,,,,,,,,,,,,,,,,,,,,,,,,,,
,5d6092f01d7a3e0001d6a7f6,001,2022-04-29_04h14.50.456,classification_task,2021.2.3,Win32,59.94485074,5d6092f01d7a3e0001d6a7f6,626b377229c10585ec392f8a,626b3bd3b635dd57debdebfc,,,,,,,,,,,,,,,,,,,,,,,l,1,"[""0.137"",""0.269"",""0.530"",""0.788""]","[1,1,1,0]",0,19,19,19,1,1,0,,,1,FALSE,0.7864,,,,,,,,,,,,,,,,,,,,,,,,,,,,,,
,5d6092f01d7a3e0001d6a7f6,001,2022-04-29_04h14.50.456,classification_task,2021.2.3,Win32,59.94485074,5d6092f01d7a3e0001d6a7f6,626b377229c10585ec392f8a,626b3bd3b635dd57debdebfc,,,,,,,,,,,,,,,,,,,,,,,a,0,"[""0.088"",""0.340"",""0.491"",""0.733""]","[1,1,0,1]",0,20,20,20,1,1,1,,,1,FALSE,0.7337,,,,,,,,,,,,,,,,,,,,,,,,,,,,,,
,5d6092f01d7a3e0001d6a7f6,001,2022-04-29_04h14.50.456,classification_task,2021.2.3,Win32,59.94485074,5d6092f01d7a3e0001d6a7f6,626b377229c10585ec392f8a,626b3bd3b635dd57debdebfc,,,,,,,,,,,,,,,,,,,,,,,l,1,"[""0.784"",""0.269"",""0.530"",""0.835""]","[0,1,1,1]",0,21,21,21,1,1,0,,,1,FALSE,0.6652,,,,,,,,,,,,,,,,,,,,,,,,,,,,,,
,5d6092f01d7a3e0001d6a7f6,001,2022-04-29_04h14.50.456,classification_task,2021.2.3,Win32,59.94485074,5d6092f01d7a3e0001d6a7f6,626b377229c10585ec392f8a,626b3bd3b635dd57debdebfc,,,,,,,,,,,,,,,,,,,,,,,a,0,"[""0.088"",""0.340"",""0.665"",""0.788""]","[1,1,1,0]",0,22,22,22,1,1,1,,,1,FALSE,0.7062,,,,,,,,,,,,,,,,,,,,,,,,,,,,,,
,5d6092f01d7a3e0001d6a7f6,001,2022-04-29_04h14.50.456,classification_task,2021.2.3,Win32,59.94485074,5d6092f01d7a3e0001d6a7f6,626b377229c10585ec392f8a,626b3bd3b635dd57debdebfc,,,,,,,,,,,,,,,,,,,,,,,l,0,"[""0.224"",""0.624"",""0.884"",""0.923""]","[1,0,1,1]",0,23,23,23,1,0,1,,,1,FALSE,1.0323,,,,,,,,,,,,,,,,,,,,,,,,,,,,,,
,5d6092f01d7a3e0001d6a7f6,001,2022-04-29_04h14.50.456,classification_task,2021.2.3,Win32,59.94485074,5d6092f01d7a3e0001d6a7f6,626b377229c10585ec392f8a,626b3bd3b635dd57debdebfc,,,,,,,,,,,,,,,,,,,,,,,l,0,"[""0.224"",""0.429"",""0.780"",""0.923""]","[1,1,0,1]",0,24,24,24,1,0,1,,,1,FALSE,0.6495,,,,,,,,,,,,,,,,,,,,,,,,,,,,,,
,5d6092f01d7a3e0001d6a7f6,001,2022-04-29_04h14.50.456,classification_task,2021.2.3,Win32,59.94485074,5d6092f01d7a3e0001d6a7f6,626b377229c10585ec392f8a,626b3bd3b635dd57debdebfc,,,,,,,,,,,,,,,,,,,,,,,a,0,"[""0.137"",""0.053"",""0.530"",""0.835""]","[1,0,1,1]",0,25,25,25,1,1,0,,,1,FALSE,0.7338,,,,,,,,,,,,,,,,,,,,,,,,,,,,,,
,5d6092f01d7a3e0001d6a7f6,001,2022-04-29_04h14.50.456,classification_task,2021.2.3,Win32,59.94485074,5d6092f01d7a3e0001d6a7f6,626b377229c10585ec392f8a,626b3bd3b635dd57debdebfc,,,,,,,,,,,,,,,,,,,,,,,l,0,"[""0.177"",""0.378"",""0.624"",""0.960""]","[1,1,0,1]",0,26,26,26,1,0,0,,,1,FALSE,0.8659,,,,,,,,,,,,,,,,,,,,,,,,,,,,,,
,5d6092f01d7a3e0001d6a7f6,001,2022-04-29_04h14.50.456,classification_task,2021.2.3,Win32,59.94485074,5d6092f01d7a3e0001d6a7f6,626b377229c10585ec392f8a,626b3bd3b635dd57debdebfc,,,,,,,,,,,,,,,,,,,,,,,a,0,"[""0.088"",""0.051"",""0.665"",""0.733""]","[1,0,1,1]",0,27,27,27,1,1,1,,,1,FALSE,0.8211,,,,,,,,,,,,,,,,,,,,,,,,,,,,,,
,5d6092f01d7a3e0001d6a7f6,001,2022-04-29_04h14.50.456,classification_task,2021.2.3,Win32,59.94485074,5d6092f01d7a3e0001d6a7f6,626b377229c10585ec392f8a,626b3bd3b635dd57debdebfc,,,,,,,,,,,,,,,,,,,,,,,l,0,"[""0.624"",""0.378"",""0.586"",""0.960""]","[0,1,1,1]",0,28,28,28,1,0,0,,,1,FALSE,0.7496,,,,,,,,,,,,,,,,,,,,,,,,,,,,,,
,5d6092f01d7a3e0001d6a7f6,001,2022-04-29_04h14.50.456,classification_task,2021.2.3,Win32,59.94485074,5d6092f01d7a3e0001d6a7f6,626b377229c10585ec392f8a,626b3bd3b635dd57debdebfc,,,,,,,,,,,,,,,,,,,,,,,l,0,"[""0.177"",""0.624"",""0.586"",""0.960""]","[1,0,1,1]",0,29,29,29,1,0,0,,,1,FALSE,0.4659,,,,,,,,,,,,,,,,,,,,,,,,,,,,,,
,5d6092f01d7a3e0001d6a7f6,001,2022-04-29_04h14.50.456,classification_task,2021.2.3,Win32,59.94485074,5d6092f01d7a3e0001d6a7f6,626b377229c10585ec392f8a,626b3bd3b635dd57debdebfc,,,,,,,,,,,,,,,,,,,,,,,l,0,"[""0.484"",""0.429"",""0.884"",""0.923""]","[0,1,1,1]",0,30,30,30,1,0,1,,,1,FALSE,0.6845,,,,,,,,,,,,,,,,,,,,,,,,,,,,,,
,5d6092f01d7a3e0001d6a7f6,001,2022-04-29_04h14.50.456,classification_task,2021.2.3,Win32,59.94485074,5d6092f01d7a3e0001d6a7f6,626b377229c10585ec392f8a,626b3bd3b635dd57debdebfc,,,,,,,,,,,,,,,,,,,,,,,a,0,"[""0.624"",""0.340"",""0.665"",""0.733""]","[0,1,1,1]",0,31,31,31,1,1,1,,,1,FALSE,2.5034,,,,,,,,,,,,,,,,,,,,,,,,,,,,,,
,5d6092f01d7a3e0001d6a7f6,001,2022-04-29_04h14.50.456,classification_task,2021.2.3,Win32,59.94485074,5d6092f01d7a3e0001d6a7f6,626b377229c10585ec392f8a,626b3bd3b635dd57debdebfc,,,,,,,,,,,,,,,,,,,,,,,l,1,"[""0.788"",""0.340"",""0.665"",""0.733""]","[0,1,1,1]",0,32,32,32,1,1,1,,,1,FALSE,4.6301,,,,,,,,,,,,,,,,,,,,,,,,,,,,,,
,5d6092f01d7a3e0001d6a7f6,001,2022-04-29_04h14.50.456,classification_task,2021.2.3,Win32,59.94485074,5d6092f01d7a3e0001d6a7f6,626b377229c10585ec392f8a,626b3bd3b635dd57debdebfc,,,,,,,,,,,,,,,,,,,,,,,a,1,"[""0.491"",""0.378"",""0.586"",""0.960""]","[0,1,1,1]",0,33,33,33,1,0,0,,,1,FALSE,1.7607,,,,,,,,,,,,,,,,,,,,,,,,,,,,,,
,5d6092f01d7a3e0001d6a7f6,001,2022-04-29_04h14.50.456,classification_task,2021.2.3,Win32,59.94485074,5d6092f01d7a3e0001d6a7f6,626b377229c10585ec392f8a,626b3bd3b635dd57debdebfc,,,,,,,,,,,,,,,,,,,,,,,l,0,"[""0.224"",""0.429"",""0.884"",""0.491""]","[1,1,1,0]",0,34,34,34,1,0,1,,,1,FALSE,1.735,,,,,,,,,,,,,,,,,,,,,,,,,,,,,,
,5d6092f01d7a3e0001d6a7f6,001,2022-04-29_04h14.50.456,classification_task,2021.2.3,Win32,59.94485074,5d6092f01d7a3e0001d6a7f6,626b377229c10585ec392f8a,626b3bd3b635dd57debdebfc,,,,,,,,,,,,,,,,,,,,,,,l,0,"[""0.177"",""0.699"",""0.586"",""0.960""]","[1,0,1,1]",0,35,35,35,1,0,0,,,1,FALSE,0.5813,,,,,,,,,,,,,,,,,,,,,,,,,,,,,,
,5d6092f01d7a3e0001d6a7f6,001,2022-04-29_04h14.50.456,classification_task,2021.2.3,Win32,59.94485074,5d6092f01d7a3e0001d6a7f6,626b377229c10585ec392f8a,626b3bd3b635dd57debdebfc,,,,,,,,,,,,,,,,,,,,,,,a,0,"[""0.088"",""0.340"",""0.665"",""0.475""]","[1,1,1,0]",0,36,36,36,1,1,1,,,1,FALSE,1.5499,,,,,,,,,,,,,,,,,,,,,,,,,,,,,,
,5d6092f01d7a3e0001d6a7f6,001,2022-04-29_04h14.50.456,classification_task,2021.2.3,Win32,59.94485074,5d6092f01d7a3e0001d6a7f6,626b377229c10585ec392f8a,626b3bd3b635dd57debdebfc,,,,,,,,,,,,,,,,,,,,,,,a,0,"[""0.088"",""0.495"",""0.665"",""0.733""]","[1,0,1,1]",0,37,37,37,1,1,1,,,1,FALSE,0.5441,,,,,,,,,,,,,,,,,,,,,,,,,,,,,,
,5d6092f01d7a3e0001d6a7f6,001,2022-04-29_04h14.50.456,classification_task,2021.2.3,Win32,59.94485074,5d6092f01d7a3e0001d6a7f6,626b377229c10585ec392f8a,626b3bd3b635dd57debdebfc,,,,,,,,,,,,,,,,,,,,,,,l,0,"[""0.224"",""0.303"",""0.884"",""0.923""]","[1,0,1,1]",0,38,38,38,1,0,1,,,1,FALSE,0.5977,,,,,,,,,,,,,,,,,,,,,,,,,,,,,,
,5d6092f01d7a3e0001d6a7f6,001,2022-04-29_04h14.50.456,classification_task,2021.2.3,Win32,59.94485074,5d6092f01d7a3e0001d6a7f6,626b377229c10585ec392f8a,626b3bd3b635dd57debdebfc,,,,,,,,,,,,,,,,,,,,,,,a,0,"[""0.137"",""0.269"",""0.484"",""0.835""]","[1,1,0,1]",0,39,39,39,1,1,0,,,1,FALSE,0.8328,,,,,,,,,,,,,,,,,,,,,,,,,,,,,,
,5d6092f01d7a3e0001d6a7f6,001,2022-04-29_04h14.50.456,classification_task,2021.2.3,Win32,59.94485074,5d6092f01d7a3e0001d6a7f6,626b377229c10585ec392f8a,626b3bd3b635dd57debdebfc,,,,,,,,,,,,,,,,,,,,,,,l,0,"[""0.466"",""0.429"",""0.884"",""0.923""]","[0,1,1,1]",0,40,40,40,1,0,1,,,1,FALSE,1.0322,,,,,,,,,,,,,,,,,,,,,,,,,,,,,,
,5d6092f01d7a3e0001d6a7f6,001,2022-04-29_04h14.50.456,classification_task,2021.2.3,Win32,59.94485074,5d6092f01d7a3e0001d6a7f6,626b377229c10585ec392f8a,626b3bd3b635dd57debdebfc,,,,,,,,,,,,,,,,,,,,,,,l,1,"[""0.465"",""0.269"",""0.530"",""0.835""]","[0,1,1,1]",0,41,41,41,1,1,0,,,1,FALSE,1.233,,,,,,,,,,,,,,,,,,,,,,,,,,,,,,
,5d6092f01d7a3e0001d6a7f6,001,2022-04-29_04h14.50.456,classification_task,2021.2.3,Win32,59.94485074,5d6092f01d7a3e0001d6a7f6,626b377229c10585ec392f8a,626b3bd3b635dd57debdebfc,,,,,,,,,,,,,,,,,,,,,,,a,0,"[""0.137"",""0.053"",""0.530"",""0.835""]","[1,0,1,1]",0,42,42,42,1,1,0,,,1,FALSE,0.6505,,,,,,,,,,,,,,,,,,,,,,,,,,,,,,
,5d6092f01d7a3e0001d6a7f6,001,2022-04-29_04h14.50.456,classification_task,2021.2.3,Win32,59.94485074,5d6092f01d7a3e0001d6a7f6,626b377229c10585ec392f8a,626b3bd3b635dd57debdebfc,,,,,,,,,,,,,,,,,,,,,,,a,1,"[""0.177"",""0.378"",""0.586"",""0.465""]","[1,1,1,0]",0,43,43,43,1,0,0,,,1,FALSE,0.5322,,,,,,,,,,,,,,,,,,,,,,,,,,,,,,
,5d6092f01d7a3e0001d6a7f6,001,2022-04-29_04h14.50.456,classification_task,2021.2.3,Win32,59.94485074,5d6092f01d7a3e0001d6a7f6,626b377229c10585ec392f8a,626b3bd3b635dd57debdebfc,,,,,,,,,,,,,,,,,,,,,,,a,0,"[""0.088"",""0.340"",""0.051"",""0.733""]","[1,1,0,1]",0,44,44,44,1,1,1,,,1,FALSE,0.7499,,,,,,,,,,,,,,,,,,,,,,,,,,,,,,
,5d6092f01d7a3e0001d6a7f6,001,2022-04-29_04h14.50.456,classification_task,2021.2.3,Win32,59.94485074,5d6092f01d7a3e0001d6a7f6,626b377229c10585ec392f8a,626b3bd3b635dd57debdebfc,,,,,,,,,,,,,,,,,,,,,,,l,0,"[""0.177"",""0.378"",""0.484"",""0.960""]","[1,1,0,1]",0,45,45,45,1,0,0,,,1,FALSE,0.5666,,,,,,,,,,,,,,,,,,,,,,,,,,,,,,
,5d6092f01d7a3e0001d6a7f6,001,2022-04-29_04h14.50.456,classification_task,2021.2.3,Win32,59.94485074,5d6092f01d7a3e0001d6a7f6,626b377229c10585ec392f8a,626b3bd3b635dd57debdebfc,,,,,,,,,,,,,,,,,,,,,,,a,0,"[""0.137"",""0.269"",""0.530"",""0.303""]","[1,1,1,0]",0,46,46,46,1,1,0,,,1,FALSE,1.0987,,,,,,,,,,,,,,,,,,,,,,,,,,,,,,
,5d6092f01d7a3e0001d6a7f6,001,2022-04-29_04h14.50.456,classification_task,2021.2.3,Win32,59.94485074,5d6092f01d7a3e0001d6a7f6,626b377229c10585ec392f8a,626b3bd3b635dd57debdebfc,,,,,,,,,,,,,,,,,,,,,,,l,0,"[""0.224"",""0.429"",""0.784"",""0.923""]","[1,1,0,1]",0,47,47,47,1,0,1,,,1,FALSE,0.7324,,,,,,,,,,,,,,,,,,,,,,,,,,,,,,
,5d6092f01d7a3e0001d6a7f6,001,2022-04-29_04h14.50.456,classification_task,2021.2.3,Win32,59.94485074,5d6092f01d7a3e0001d6a7f6,626b377229c10585ec392f8a,626b3bd3b635dd57debdebfc,,,,,,,,,,,,,,,,,,,,,,,a,1,"[""0.177"",""0.378"",""0.586"",""0.469""]","[1,1,1,0]",0,48,48,48,1,0,0,,,1,FALSE,0.7166,,,,,,,,,,,,,,,,,,,,,,,,,,,,,,
,5d6092f01d7a3e0001d6a7f6,001,2022-04-29_04h14.50.456,classification_task,2021.2.3,Win32,59.94485074,5d6092f01d7a3e0001d6a7f6,626b377229c10585ec392f8a,626b3bd3b635dd57debdebfc,,,,,,,,,,,,,,,,,,,,,,,a,0,"[""0.053"",""0.340"",""0.665"",""0.733""]","[0,1,1,1]",0,49,49,49,1,1,1,,,1,FALSE,0.8489,,,,,,,,,,,,,,,,,,,,,,,,,,,,,,
,5d6092f01d7a3e0001d6a7f6,001,2022-04-29_04h14.50.456,classification_task,2021.2.3,Win32,59.94485074,5d6092f01d7a3e0001d6a7f6,626b377229c10585ec392f8a,626b3bd3b635dd57debdebfc,,,,,,,,,,,,,,,,,,,,,,,a,0,"[""0.137"",""0.269"",""0.303"",""0.835""]","[1,1,0,1]",0,50,50,50,1,1,0,,,1,FALSE,1.1828,,,,,,,,,,,,,,,,,,,,,,,,,,,,,,
,5d6092f01d7a3e0001d6a7f6,001,2022-04-29_04h14.50.456,classification_task,2021.2.3,Win32,59.94485074,5d6092f01d7a3e0001d6a7f6,626b377229c10585ec392f8a,626b3bd3b635dd57debdebfc,,,,,,,,,,,,,,,,,,,,,,,l,1,"[""0.088"",""0.340"",""0.665"",""0.624""]","[1,1,1,0]",0,51,51,51,1,1,1,,,1,FALSE,2.2164,,,,,,,,,,,,,,,,,,,,,,,,,,,,,,
,5d6092f01d7a3e0001d6a7f6,001,2022-04-29_04h14.50.456,classification_task,2021.2.3,Win32,59.94485074,5d6092f01d7a3e0001d6a7f6,626b377229c10585ec392f8a,626b3bd3b635dd57debdebfc,,,,,,,,,,,,,,,,,,,,,,,l,0,"[""0.224"",""0.429"",""0.884"",""0.465""]","[1,1,1,0]",0,52,52,52,1,0,1,,,1,FALSE,0.8992,,,,,,,,,,,,,,,,,,,,,,,,,,,,,,
,5d6092f01d7a3e0001d6a7f6,001,2022-04-29_04h14.50.456,classification_task,2021.2.3,Win32,59.94485074,5d6092f01d7a3e0001d6a7f6,626b377229c10585ec392f8a,626b3bd3b635dd57debdebfc,,,,,,,,,,,,,,,,,,,,,,,l,0,"[""0.466"",""0.429"",""0.884"",""0.923""]","[0,1,1,1]",0,53,53,53,1,0,1,,,1,FALSE,0.6493,,,,,,,,,,,,,,,,,,,,,,,,,,,,,,
,5d6092f01d7a3e0001d6a7f6,001,2022-04-29_04h14.50.456,classification_task,2021.2.3,Win32,59.94485074,5d6092f01d7a3e0001d6a7f6,626b377229c10585ec392f8a,626b3bd3b635dd57debdebfc,,,,,,,,,,,,,,,,,,,,,,,a,1,"[""0.224"",""0.429"",""0.303"",""0.923""]","[1,1,0,1]",0,54,54,54,1,0,1,,,1,FALSE,0.5146,,,,,,,,,,,,,,,,,,,,,,,,,,,,,,
,5d6092f01d7a3e0001d6a7f6,001,2022-04-29_04h14.50.456,classification_task,2021.2.3,Win32,59.94485074,5d6092f01d7a3e0001d6a7f6,626b377229c10585ec392f8a,626b3bd3b635dd57debdebfc,,,,,,,,,,,,,,,,,,,,,,,l,0,"[""0.177"",""0.491"",""0.586"",""0.960""]","[1,0,1,1]",0,55,55,55,1,0,0,,,1,FALSE,0.9996,,,,,,,,,,,,,,,,,,,,,,,,,,,,,,
,5d6092f01d7a3e0001d6a7f6,001,2022-04-29_04h14.50.456,classification_task,2021.2.3,Win32,59.94485074,5d6092f01d7a3e0001d6a7f6,626b377229c10585ec392f8a,626b3bd3b635dd57debdebfc,,,,,,,,,,,,,,,,,,,,,,,a,0,"[""0.088"",""0.340"",""0.053"",""0.733""]","[1,1,0,1]",0,56,56,56,1,1,1,,,1,FALSE,0.5841,,,,,,,,,,,,,,,,,,,,,,,,,,,,,,
,5d6092f01d7a3e0001d6a7f6,001,2022-04-29_04h14.50.456,classification_task,2021.2.3,Win32,59.94485074,5d6092f01d7a3e0001d6a7f6,626b377229c10585ec392f8a,626b3bd3b635dd57debdebfc,,,,,,,,,,,,,,,,,,,,,,,l,0,"[""0.469"",""0.378"",""0.586"",""0.960""]","[0,1,1,1]",0,57,57,57,1,0,0,,,1,FALSE,0.6171,,,,,,,,,,,,,,,,,,,,,,,,,,,,,,
,5d6092f01d7a3e0001d6a7f6,001,2022-04-29_04h14.50.456,classification_task,2021.2.3,Win32,59.94485074,5d6092f01d7a3e0001d6a7f6,626b377229c10585ec392f8a,626b3bd3b635dd57debdebfc,,,,,,,,,,,,,,,,,,,,,,,l,0,"[""0.224"",""0.053"",""0.884"",""0.923""]","[1,0,1,1]",0,58,58,58,1,0,1,,,1,FALSE,0.7002,,,,,,,,,,,,,,,,,,,,,,,,,,,,,,
,5d6092f01d7a3e0001d6a7f6,001,2022-04-29_04h14.50.456,classification_task,2021.2.3,Win32,59.94485074,5d6092f01d7a3e0001d6a7f6,626b377229c10585ec392f8a,626b3bd3b635dd57debdebfc,,,,,,,,,,,,,,,,,,,,,,,l,0,"[""0.177"",""0.378"",""0.303"",""0.960""]","[1,1,0,1]",0,59,59,59,1,0,0,,,1,FALSE,0.8321,,,,,,,,,,,,,,,,,,,,,,,,,,,,,,
,5d6092f01d7a3e0001d6a7f6,001,2022-04-29_04h14.50.456,classification_task,2021.2.3,Win32,59.94485074,5d6092f01d7a3e0001d6a7f6,626b377229c10585ec392f8a,626b3bd3b635dd57debdebfc,,,,,,,,,,,,,,,,,,,,,,,a,0,"[""0.137"",""0.033"",""0.530"",""0.835""]","[1,0,1,1]",0,60,60,60,1,1,0,,,1,FALSE,0.4811,,,,,,,,,,,,,,,,,,,,,,,,,,,,,,
,5d6092f01d7a3e0001d6a7f6,001,2022-04-29_04h14.50.456,classification_task,2021.2.3,Win32,59.94485074,5d6092f01d7a3e0001d6a7f6,626b377229c10585ec392f8a,626b3bd3b635dd57debdebfc,,,,,,,,,,,,,,,,,,,,,,,a,0,"[""0.137"",""0.269"",""0.530"",""0.491""]","[1,1,1,0]",0,61,61,61,1,1,0,,,1,FALSE,0.5672,,,,,,,,,,,,,,,,,,,,,,,,,,,,,,
,5d6092f01d7a3e0001d6a7f6,001,2022-04-29_04h14.50.456,classification_task,2021.2.3,Win32,59.94485074,5d6092f01d7a3e0001d6a7f6,626b377229c10585ec392f8a,626b3bd3b635dd57debdebfc,,,,,,,,,,,,,,,,,,,,,,,l,1,"[""0.495"",""0.269"",""0.530"",""0.835""]","[0,1,1,1]",0,62,62,62,1,1,0,,,1,FALSE,0.6331,,,,,,,,,,,,,,,,,,,,,,,,,,,,,,
,5d6092f01d7a3e0001d6a7f6,001,2022-04-29_04h14.50.456,classification_task,2021.2.3,Win32,59.94485074,5d6092f01d7a3e0001d6a7f6,626b377229c10585ec392f8a,626b3bd3b635dd57debdebfc,,,,,,,,,,,,,,,,,,,,,,,l,1,"[""0.088"",""0.303"",""0.665"",""0.733""]","[1,0,1,1]",0,63,63,63,1,1,1,,,1,FALSE,1.2655,,,,,,,,,,,,,,,,,,,,,,,,,,,,,,
,5d6092f01d7a3e0001d6a7f6,001,2022-04-29_04h14.50.456,classification_task,2021.2.3,Win32,59.94485074,5d6092f01d7a3e0001d6a7f6,626b377229c10585ec392f8a,626b3bd3b635dd57debdebfc,,,,,,,,,,,,,,,,,,,,,,,,,,,,,,,,,,,,,,,0, ,,0,1.031746032,192.1627,0,2,2,2,1,2,3,,,,,,,,,,,,,,,,,
,5d6092f01d7a3e0001d6a7f6,001,2022-04-29_04h14.50.456,classification_task,2021.2.3,Win32,59.94485074,5d6092f01d7a3e0001d6a7f6,626b377229c10585ec392f8a,626b3bd3b635dd57debdebfc,,,,,,,,,,,,,,,,,,,,,,,,,,,,,,,,,,,,,,,1,  ,,0,6.788163825,195.2302,0,2,2,2,1,2,3,,,,,,,,,,,,,,,,,
,5d6092f01d7a3e0001d6a7f6,001,2022-04-29_04h14.50.456,classification_task,2021.2.3,Win32,59.94485074,5d6092f01d7a3e0001d6a7f6,626b377229c10585ec392f8a,626b3bd3b635dd57debdebfc,,,,,,,,,,,,,,,,,,,,,,,,,,,,,,,,,,,,,,,2,  ,,0,9.923574368,199.4382,0,2,2,2,1,2,3,,,,,,,,,,,,,,,,,
,5d6092f01d7a3e0001d6a7f6,001,2022-04-29_04h14.50.456,classification_task,2021.2.3,Win32,59.94485074,5d6092f01d7a3e0001d6a7f6,626b377229c10585ec392f8a,626b3bd3b635dd57debdebfc,,,,,,,,,,,,,,,,,,,,,,,,,,,,,,,,,,,,,,,,,,,,,0,2,2,2,1,,3,,,,,,,,,,,,,,,,,
,5d6092f01d7a3e0001d6a7f6,001,2022-04-29_04h14.50.456,classification_task,2021.2.3,Win32,59.94485074,5d6092f01d7a3e0001d6a7f6,626b377229c10585ec392f8a,626b3bd3b635dd57debdebfc,,,,,,,,,,,,,,,,,,,,,,,,,,,,,,,,,,,,,,,,,,,,,,,,,,,,,I believe the aid is a competent performer,,0.7,0,2,936.6532,0,0,0,0,1,0,,,,
,5d6092f01d7a3e0001d6a7f6,001,2022-04-29_04h14.50.456,classification_task,2021.2.3,Win32,59.94485074,5d6092f01d7a3e0001d6a7f6,626b377229c10585ec392f8a,626b3bd3b635dd57debdebfc,,,,,,,,,,,,,,,,,,,,,,,,,,,,,,,,,,,,,,,,,,,,,,,,,,,,,I trust the aid,,0.7,0,2,940.8295,0,0,0,0,1,0,,,,
,5d6092f01d7a3e0001d6a7f6,001,2022-04-29_04h14.50.456,classification_task,2021.2.3,Win32,59.94485074,5d6092f01d7a3e0001d6a7f6,626b377229c10585ec392f8a,626b3bd3b635dd57debdebfc,,,,,,,,,,,,,,,,,,,,,,,,,,,,,,,,,,,,,,,,,,,,,,,,,,,,,I have confidence in the advice given by the aid,,0.7,0,1,940.2086,0,0,0,0,1,0,,,,
,5d6092f01d7a3e0001d6a7f6,001,2022-04-29_04h14.50.456,classification_task,2021.2.3,Win32,59.94485074,5d6092f01d7a3e0001d6a7f6,626b377229c10585ec392f8a,626b3bd3b635dd57debdebfc,,,,,,,,,,,,,,,,,,,,,,,,,,,,,,,,,,,,,,,,,,,,,,,,,,,,,I can depend on the aid,,0.7,0,2,942.3525,0,0,0,0,1,0,,,,
,5d6092f01d7a3e0001d6a7f6,001,2022-04-29_04h14.50.456,classification_task,2021.2.3,Win32,59.94485074,5d6092f01d7a3e0001d6a7f6,626b377229c10585ec392f8a,626b3bd3b635dd57debdebfc,,,,,,,,,,,,,,,,,,,,,,,,,,,,,,,,,,,,,,,,,,,,,,,,,,,,,I can rely on the aid to behave in consistent ways,,0.7,0,3,945.2245,0,0,0,0,1,0,,,,
,5d6092f01d7a3e0001d6a7f6,001,2022-04-29_04h14.50.456,classification_task,2021.2.3,Win32,59.94485074,5d6092f01d7a3e0001d6a7f6,626b377229c10585ec392f8a,626b3bd3b635dd57debdebfc,,,,,,,,,,,,,,,,,,,,,,,,,,,,,,,,,,,,,,,,,,,,,,,,,,,,,I can rely on the aid to do its best every time I take its advice,,0.7,0,2,950.5825,0,0,0,0,1,0,,,,
,5d6092f01d7a3e0001d6a7f6,001,2022-04-29_04h14.50.456,classification_task,2021.2.3,Win32,59.94485074,5d6092f01d7a3e0001d6a7f6,626b377229c10585ec392f8a,626b3bd3b635dd57debdebfc,,,,,,,,,,,,,,,,,,,,,,,,,,,,,,,,,,,,,,,,,,,,,,,,,,,,,"On trials you completed with assistance from the aid, how frequently did you think the aid was correct?",,0.7,0,60%,,0,0,0,0,1,0,,,,
,5d6092f01d7a3e0001d6a7f6,001,2022-04-29_04h14.50.456,classification_task,2021.2.3,Win32,59.94485074,5d6092f01d7a3e0001d6a7f6,626b377229c10585ec392f8a,626b3bd3b635dd57debdebfc,,,,,,,,,,,,,,,,,,,,,,,,,,,,,,,,,,,,,,,,,,,,,,,,,,,,,"On trials you completed without the aid, how frequently did you think you were correct?",,0.7,0,30%,,0,0,0,0,1,0,,,,
,5d6092f01d7a3e0001d6a7f6,001,2022-04-29_04h14.50.456,classification_task,2021.2.3,Win32,59.94485074,5d6092f01d7a3e0001d6a7f6,626b377229c10585ec392f8a,626b3bd3b635dd57debdebfc,,,,,,,,,,,,,,,,,,,,,,,,,,,,,,,,,,,,,,,,,,,,,,,,,,,,,,,,,,,0,0,0,0,1,,,,,
,5d6092f01d7a3e0001d6a7f6,001,2022-04-29_04h14.50.456,classification_task,2021.2.3,Win32,59.94485074,5d6092f01d7a3e0001d6a7f6,626b377229c10585ec392f8a,626b3bd3b635dd57debdebfc,,,,,,,,,,,,,,,,,,,,,,,,,,,,,,,,,,,,,,,,,,,,,,,,,,,,,,,,,,,,,,,,,space,14.9178,987.3801,
,5d6092f01d7a3e0001d6a7f6,001,2022-04-29_04h14.50.456,classification_task,2021.2.3,Win32,59.94485074,5d6092f01d7a3e0001d6a7f6,626b377229c10585ec392f8a,626b3bd3b635dd57debdebfc,,,,,,,,,,,,,,,,,,,,,,,,,,,,,,,,,,,,,,,,,,,,,,,,,,,,,,,,,,,,,,,,,,,,"Mozilla/5.0 (Windows NT 10.0; Win64; x64) AppleWebKit/537.36 (KHTML, like Gecko) Chrome/100.0.4896.127 Safari/537.36"
