usingWebGL,participant,session,date,expName,psychopyVersion,OS,frameRate,study_id,signatures_friend,signatures_foe,band_ranges_top,band_ranges_bottom,formitemText,formtype,formundefined,formitemWidth,formindex,formresponse,formrt,key_resp_2.keys,key_resp_2.rt,tute_resp.keys,tute_resp.rt,tutorial.thisRepN,tutorial.thisTrialN,tutorial.thisN,tutorial.thisIndex,tutorial.ran,key_resp_4.keys,key_resp_4.rt,key_resp.keys,key_resp.corr,key_resp.rt,lines_presented,is_signal_presented,trials.thisRepN,trials.thisTrialN,trials.thisN,trials.thisIndex,trials.ran,vessel,active_band,lines,is_signal,supported_pos,catch_trial,debrief_formindex,debrief_formitemText,debrief_formtype,debrief_formitemWidth,debrief_formresponse,debrief_formrt,phases.thisRepN,phases.thisTrialN,phases.thisN,phases.thisIndex,phases.ran,phases.order,phase,key_resp_3.keys,trustitemText,trusttype,trustitemWidth,trustindex,trustresponse,trustrt,support_status.thisRepN,support_status.thisTrialN,support_status.thisN,support_status.thisIndex,support_status.ran,support_status.order,key_resp_5.keys,key_resp_5.rt,globalClockTime,userAgent,manualCondition
TRUE,5d67fe2073cd1d001a611229,627c6ed8180400602c21953b,2022-05-11_22h20.45.554,classification_task,2021.2.3,Win32,59.95203837,627c6715c52fd12f31907bcf,,,,,,,,,,,,,,,,,,,,,,,,,,,,,,,,,,,,,,,,,,,,,,,,,,,,,,,,,,,,,,,,,,,,,
,5d67fe2073cd1d001a611229,627c6ed8180400602c21953b,2022-05-11_22h20.45.554,classification_task,2021.2.3,Win32,59.95203837,627c6715c52fd12f31907bcf,"[[""0.167"",""0.366"",""0.602"",""0.955""],[""0.321"",""0.445"",""0.845"",""0.885""]]","[[""0.108"",""0.410"",""0.494"",""0.732""],[""0.060"",""0.241"",""0.543"",""0.783""]]","[1,10]","[100,1000]",Video game experience,,,0.7,0,,,,,,,,,,,,,,,,,,,,,,,,,,,,,,,,,,,,,,,,,,,,,,,,,,,,,,,,,,,,
,5d67fe2073cd1d001a611229,627c6ed8180400602c21953b,2022-05-11_22h20.45.554,classification_task,2021.2.3,Win32,59.95203837,627c6715c52fd12f31907bcf,,,,,Approximately how many hours did you spend playing video games in the last week?,,,0.7,0,12,,,,,,,,,,,,,,,,,,,,,,,,,,,,,,,,,,,,,,,,,,,,,,,,,,,,,,,,,,,
,5d67fe2073cd1d001a611229,627c6ed8180400602c21953b,2022-05-11_22h20.45.554,classification_task,2021.2.3,Win32,59.95203837,627c6715c52fd12f31907bcf,,,,,"Which game did you play the most this year? (Enter ""None"" if you didn't play any)",,,0.7,0,Cities Skylines,,,,,,,,,,,,,,,,,,,,,,,,,,,,,,,,,,,,,,,,,,,,,,,,,,,,,,,,,,,
,5d67fe2073cd1d001a611229,627c6ed8180400602c21953b,2022-05-11_22h20.45.554,classification_task,2021.2.3,Win32,59.95203837,627c6715c52fd12f31907bcf,,,,,Visual perception,,,0.7,0,,,,,,,,,,,,,,,,,,,,,,,,,,,,,,,,,,,,,,,,,,,,,,,,,,,,,,,,,,,,
,5d67fe2073cd1d001a611229,627c6ed8180400602c21953b,2022-05-11_22h20.45.554,classification_task,2021.2.3,Win32,59.95203837,627c6715c52fd12f31907bcf,,,,,Do you have any form of color blindness?,,,0.7,0,No,30.61,,,,,,,,,,,,,,,,,,,,,,,,,,,,,,,,,,,,,,,,,,,,,,,,,,,,,,,,,,
,5d67fe2073cd1d001a611229,627c6ed8180400602c21953b,2022-05-11_22h20.45.554,classification_task,2021.2.3,Win32,59.95203837,627c6715c52fd12f31907bcf,,,,,Do you use software to change the colour temperature of your screen (e.g. f.lux)?,,,0.7,0,Yes,35.353,,,,,,,,,,,,,,,,,,,,,,,,,,,,,,,,,,,,,,,,,,,,,,,,,,,,,,,,,,
,5d67fe2073cd1d001a611229,627c6ed8180400602c21953b,2022-05-11_22h20.45.554,classification_task,2021.2.3,Win32,59.95203837,627c6715c52fd12f31907bcf,,,,,,,,,,,,space,32.743,space,6.699,0,0,0,0,1,,,,,,,,,,,,,,,,,,,,,,,,,,,,,,,,,,,,,,,,,,,,,,,,,
,5d67fe2073cd1d001a611229,627c6ed8180400602c21953b,2022-05-11_22h20.45.554,classification_task,2021.2.3,Win32,59.95203837,627c6715c52fd12f31907bcf,,,,,,,,,,,,,,space,6.266,1,0,1,0,1,,,,,,,,,,,,,,,,,,,,,,,,,,,,,,,,,,,,,,,,,,,,,,,,,
,5d67fe2073cd1d001a611229,627c6ed8180400602c21953b,2022-05-11_22h20.45.554,classification_task,2021.2.3,Win32,59.95203837,627c6715c52fd12f31907bcf,,,,,,,,,,,,,,space,14.373,2,0,2,0,1,,,,,,,,,,,,,,,,,,,,,,,,,,,,,,,,,,,,,,,,,,,,,,,,,
,5d67fe2073cd1d001a611229,627c6ed8180400602c21953b,2022-05-11_22h20.45.554,classification_task,2021.2.3,Win32,59.95203837,627c6715c52fd12f31907bcf,,,,,,,,,,,,,,space,15.621,3,0,3,0,1,,,,,,,,,,,,,,,,,,,,,,,,,,,,,,,,,,,,,,,,,,,,,,,,,
,5d67fe2073cd1d001a611229,627c6ed8180400602c21953b,2022-05-11_22h20.45.554,classification_task,2021.2.3,Win32,59.95203837,627c6715c52fd12f31907bcf,,,,,,,,,,,,,,space,14.883,4,0,4,0,1,,,,,,,,,,,,,,,,,,,,,,,,,,,,,,,,,,,,,,,,,,,,,,,,,
,5d67fe2073cd1d001a611229,627c6ed8180400602c21953b,2022-05-11_22h20.45.554,classification_task,2021.2.3,Win32,59.95203837,627c6715c52fd12f31907bcf,,,,,,,,,,,,,,,,,,,,,space,17.478,a,1,7.203,"[""0.321"",""0.678"",""0.845"",""0.885""]","[1,0,1,1]",0,0,0,0,1,0,1,,,0,FALSE,,,,,,,,,,,,,,,,,,,,,,,,,,,,,,,
,5d67fe2073cd1d001a611229,627c6ed8180400602c21953b,2022-05-11_22h20.45.554,classification_task,2021.2.3,Win32,59.95203837,627c6715c52fd12f31907bcf,,,,,,,,,,,,,,,,,,,,,,,a,1,3.742,"[""0.321"",""0.445"",""0.697"",""0.885""]","[1,1,0,1]",0,1,1,1,1,0,1,,,0,FALSE,,,,,,,,,,,,,,,,,,,,,,,,,,,,,,,
,5d67fe2073cd1d001a611229,627c6ed8180400602c21953b,2022-05-11_22h20.45.554,classification_task,2021.2.3,Win32,59.95203837,627c6715c52fd12f31907bcf,,,,,,,,,,,,,,,,,,,,,,,l,1,5.9,"[""0.108"",""0.410"",""0.494"",""0.678""]","[1,1,1,0]",0,2,2,2,1,1,0,,,0,FALSE,,,,,,,,,,,,,,,,,,,,,,,,,,,,,,,
,5d67fe2073cd1d001a611229,627c6ed8180400602c21953b,2022-05-11_22h20.45.554,classification_task,2021.2.3,Win32,59.95203837,627c6715c52fd12f31907bcf,,,,,,,,,,,,,,,,,,,,,,,l,1,6.305,"[""0.285"",""0.410"",""0.494"",""0.732""]","[0,1,1,1]",0,3,3,3,1,1,0,,,0,FALSE,,,,,,,,,,,,,,,,,,,,,,,,,,,,,,,
,5d67fe2073cd1d001a611229,627c6ed8180400602c21953b,2022-05-11_22h20.45.554,classification_task,2021.2.3,Win32,59.95203837,627c6715c52fd12f31907bcf,,,,,,,,,,,,,,,,,,,,,,,a,1,5.478,"[""0.673"",""0.445"",""0.845"",""0.885""]","[0,1,1,1]",0,4,4,4,1,0,1,,,0,FALSE,,,,,,,,,,,,,,,,,,,,,,,,,,,,,,,
,5d67fe2073cd1d001a611229,627c6ed8180400602c21953b,2022-05-11_22h20.45.554,classification_task,2021.2.3,Win32,59.95203837,627c6715c52fd12f31907bcf,,,,,,,,,,,,,,,,,,,,,,,l,1,3.267,"[""0.108"",""0.653"",""0.494"",""0.732""]","[1,0,1,1]",0,5,5,5,1,1,0,,,0,FALSE,,,,,,,,,,,,,,,,,,,,,,,,,,,,,,,
,5d67fe2073cd1d001a611229,627c6ed8180400602c21953b,2022-05-11_22h20.45.554,classification_task,2021.2.3,Win32,59.95203837,627c6715c52fd12f31907bcf,,,,,,,,,,,,,,,,,,,,,,,a,1,3.382,"[""0.678"",""0.366"",""0.602"",""0.955""]","[0,1,1,1]",0,6,6,6,1,0,0,,,0,FALSE,,,,,,,,,,,,,,,,,,,,,,,,,,,,,,,
,5d67fe2073cd1d001a611229,627c6ed8180400602c21953b,2022-05-11_22h20.45.554,classification_task,2021.2.3,Win32,59.95203837,627c6715c52fd12f31907bcf,,,,,,,,,,,,,,,,,,,,,,,l,1,3.299,"[""0.060"",""0.920"",""0.543"",""0.783""]","[1,0,1,1]",0,7,7,7,1,1,1,,,0,FALSE,,,,,,,,,,,,,,,,,,,,,,,,,,,,,,,
,5d67fe2073cd1d001a611229,627c6ed8180400602c21953b,2022-05-11_22h20.45.554,classification_task,2021.2.3,Win32,59.95203837,627c6715c52fd12f31907bcf,,,,,,,,,,,,,,,,,,,,,,,l,1,1.931,"[""0.060"",""0.241"",""0.543"",""0.653""]","[1,1,1,0]",0,8,8,8,1,1,1,,,0,FALSE,,,,,,,,,,,,,,,,,,,,,,,,,,,,,,,
,5d67fe2073cd1d001a611229,627c6ed8180400602c21953b,2022-05-11_22h20.45.554,classification_task,2021.2.3,Win32,59.95203837,627c6715c52fd12f31907bcf,,,,,,,,,,,,,,,,,,,,,,,a,1,3.507,"[""0.167"",""0.366"",""0.920"",""0.955""]","[1,1,0,1]",0,9,9,9,1,0,0,,,0,FALSE,,,,,,,,,,,,,,,,,,,,,,,,,,,,,,,
,5d67fe2073cd1d001a611229,627c6ed8180400602c21953b,2022-05-11_22h20.45.554,classification_task,2021.2.3,Win32,59.95203837,627c6715c52fd12f31907bcf,,,,,,,,,,,,,,,,,,,,,,,a,1,3.212,"[""0.321"",""0.445"",""0.845"",""0.673""]","[1,1,1,0]",0,10,10,10,1,0,1,,,0,FALSE,,,,,,,,,,,,,,,,,,,,,,,,,,,,,,,
,5d67fe2073cd1d001a611229,627c6ed8180400602c21953b,2022-05-11_22h20.45.554,classification_task,2021.2.3,Win32,59.95203837,627c6715c52fd12f31907bcf,,,,,,,,,,,,,,,,,,,,,,,a,1,1.974,"[""0.167"",""0.366"",""0.602"",""0.689""]","[1,1,1,0]",0,11,11,11,1,0,0,,,0,FALSE,,,,,,,,,,,,,,,,,,,,,,,,,,,,,,,
,5d67fe2073cd1d001a611229,627c6ed8180400602c21953b,2022-05-11_22h20.45.554,classification_task,2021.2.3,Win32,59.95203837,627c6715c52fd12f31907bcf,,,,,,,,,,,,,,,,,,,,,,,a,1,2.556,"[""0.167"",""0.649"",""0.602"",""0.955""]","[1,0,1,1]",0,12,12,12,1,0,0,,,0,FALSE,,,,,,,,,,,,,,,,,,,,,,,,,,,,,,,
,5d67fe2073cd1d001a611229,627c6ed8180400602c21953b,2022-05-11_22h20.45.554,classification_task,2021.2.3,Win32,59.95203837,627c6715c52fd12f31907bcf,,,,,,,,,,,,,,,,,,,,,,,l,1,3.768,"[""0.649"",""0.241"",""0.543"",""0.783""]","[0,1,1,1]",0,13,13,13,1,1,1,,,0,FALSE,,,,,,,,,,,,,,,,,,,,,,,,,,,,,,,
,5d67fe2073cd1d001a611229,627c6ed8180400602c21953b,2022-05-11_22h20.45.554,classification_task,2021.2.3,Win32,59.95203837,627c6715c52fd12f31907bcf,,,,,,,,,,,,,,,,,,,,,,,l,1,2.773,"[""0.060"",""0.241"",""0.675"",""0.783""]","[1,1,0,1]",0,14,14,14,1,1,1,,,0,FALSE,,,,,,,,,,,,,,,,,,,,,,,,,,,,,,,
,5d67fe2073cd1d001a611229,627c6ed8180400602c21953b,2022-05-11_22h20.45.554,classification_task,2021.2.3,Win32,59.95203837,627c6715c52fd12f31907bcf,,,,,,,,,,,,,,,,,,,,,,,l,1,2.482,"[""0.108"",""0.410"",""0.649"",""0.732""]","[1,1,0,1]",0,15,15,15,1,1,0,,,0,FALSE,,,,,,,,,,,,,,,,,,,,,,,,,,,,,,,
,5d67fe2073cd1d001a611229,627c6ed8180400602c21953b,2022-05-11_22h20.45.554,classification_task,2021.2.3,Win32,59.95203837,627c6715c52fd12f31907bcf,,,,,,,,,,,,,,,,,,,,,,,l,1,2.732,"[""0.678"",""0.241"",""0.543"",""0.783""]","[0,1,1,1]",0,16,16,16,1,1,1,,,0,FALSE,,,,,,,,,,,,,,,,,,,,,,,,,,,,,,,
,5d67fe2073cd1d001a611229,627c6ed8180400602c21953b,2022-05-11_22h20.45.554,classification_task,2021.2.3,Win32,59.95203837,627c6715c52fd12f31907bcf,,,,,,,,,,,,,,,,,,,,,,,a,1,8.801,"[""0.321"",""0.445"",""0.845"",""0.284""]","[1,1,1,0]",0,17,17,17,1,0,1,,,0,FALSE,,,,,,,,,,,,,,,,,,,,,,,,,,,,,,,
,5d67fe2073cd1d001a611229,627c6ed8180400602c21953b,2022-05-11_22h20.45.554,classification_task,2021.2.3,Win32,59.95203837,627c6715c52fd12f31907bcf,,,,,,,,,,,,,,,,,,,,,,,l,1,2.53,"[""0.108"",""0.410"",""0.678"",""0.732""]","[1,1,0,1]",0,18,18,18,1,1,0,,,0,FALSE,,,,,,,,,,,,,,,,,,,,,,,,,,,,,,,
,5d67fe2073cd1d001a611229,627c6ed8180400602c21953b,2022-05-11_22h20.45.554,classification_task,2021.2.3,Win32,59.95203837,627c6715c52fd12f31907bcf,,,,,,,,,,,,,,,,,,,,,,,a,1,3.15,"[""0.678"",""0.445"",""0.845"",""0.885""]","[0,1,1,1]",0,19,19,19,1,0,1,,,0,FALSE,,,,,,,,,,,,,,,,,,,,,,,,,,,,,,,
,5d67fe2073cd1d001a611229,627c6ed8180400602c21953b,2022-05-11_22h20.45.554,classification_task,2021.2.3,Win32,59.95203837,627c6715c52fd12f31907bcf,,,,,,,,,,,,,,,,,,,,,,,a,1,2.507,"[""0.321"",""0.445"",""0.689"",""0.885""]","[1,1,0,1]",0,20,20,20,1,0,1,,,0,FALSE,,,,,,,,,,,,,,,,,,,,,,,,,,,,,,,
,5d67fe2073cd1d001a611229,627c6ed8180400602c21953b,2022-05-11_22h20.45.554,classification_task,2021.2.3,Win32,59.95203837,627c6715c52fd12f31907bcf,,,,,,,,,,,,,,,,,,,,,,,l,1,2.088,"[""0.060"",""0.241"",""0.543"",""0.663""]","[1,1,1,0]",0,21,21,21,1,1,1,,,0,FALSE,,,,,,,,,,,,,,,,,,,,,,,,,,,,,,,
,5d67fe2073cd1d001a611229,627c6ed8180400602c21953b,2022-05-11_22h20.45.554,classification_task,2021.2.3,Win32,59.95203837,627c6715c52fd12f31907bcf,,,,,,,,,,,,,,,,,,,,,,,l,1,7.154,"[""0.284"",""0.410"",""0.494"",""0.732""]","[0,1,1,1]",0,22,22,22,1,1,0,,,0,FALSE,,,,,,,,,,,,,,,,,,,,,,,,,,,,,,,
,5d67fe2073cd1d001a611229,627c6ed8180400602c21953b,2022-05-11_22h20.45.554,classification_task,2021.2.3,Win32,59.95203837,627c6715c52fd12f31907bcf,,,,,,,,,,,,,,,,,,,,,,,a,1,1.451,"[""0.167"",""0.366"",""0.602"",""0.649""]","[1,1,1,0]",0,23,23,23,1,0,0,,,0,FALSE,,,,,,,,,,,,,,,,,,,,,,,,,,,,,,,
,5d67fe2073cd1d001a611229,627c6ed8180400602c21953b,2022-05-11_22h20.45.554,classification_task,2021.2.3,Win32,59.95203837,627c6715c52fd12f31907bcf,,,,,,,,,,,,,,,,,,,,,,,l,1,1.901,"[""0.108"",""0.410"",""0.494"",""0.689""]","[1,1,1,0]",0,24,24,24,1,1,0,,,0,FALSE,,,,,,,,,,,,,,,,,,,,,,,,,,,,,,,
,5d67fe2073cd1d001a611229,627c6ed8180400602c21953b,2022-05-11_22h20.45.554,classification_task,2021.2.3,Win32,59.95203837,627c6715c52fd12f31907bcf,,,,,,,,,,,,,,,,,,,,,,,a,1,1.172,"[""0.167"",""0.678"",""0.602"",""0.955""]","[1,0,1,1]",0,25,25,25,1,0,0,,,0,FALSE,,,,,,,,,,,,,,,,,,,,,,,,,,,,,,,
,5d67fe2073cd1d001a611229,627c6ed8180400602c21953b,2022-05-11_22h20.45.554,classification_task,2021.2.3,Win32,59.95203837,627c6715c52fd12f31907bcf,,,,,,,,,,,,,,,,,,,,,,,l,1,1.996,"[""0.060"",""0.241"",""0.920"",""0.783""]","[1,1,0,1]",0,26,26,26,1,1,1,,,0,FALSE,,,,,,,,,,,,,,,,,,,,,,,,,,,,,,,
,5d67fe2073cd1d001a611229,627c6ed8180400602c21953b,2022-05-11_22h20.45.554,classification_task,2021.2.3,Win32,59.95203837,627c6715c52fd12f31907bcf,,,,,,,,,,,,,,,,,,,,,,,l,1,1.495,"[""0.060"",""0.920"",""0.543"",""0.783""]","[1,0,1,1]",0,27,27,27,1,1,1,,,0,FALSE,,,,,,,,,,,,,,,,,,,,,,,,,,,,,,,
,5d67fe2073cd1d001a611229,627c6ed8180400602c21953b,2022-05-11_22h20.45.554,classification_task,2021.2.3,Win32,59.95203837,627c6715c52fd12f31907bcf,,,,,,,,,,,,,,,,,,,,,,,a,1,2.601,"[""0.321"",""0.689"",""0.845"",""0.885""]","[1,0,1,1]",0,28,28,28,1,0,1,,,0,FALSE,,,,,,,,,,,,,,,,,,,,,,,,,,,,,,,
,5d67fe2073cd1d001a611229,627c6ed8180400602c21953b,2022-05-11_22h20.45.554,classification_task,2021.2.3,Win32,59.95203837,627c6715c52fd12f31907bcf,,,,,,,,,,,,,,,,,,,,,,,a,1,1.403,"[""0.167"",""0.366"",""0.284"",""0.955""]","[1,1,0,1]",0,29,29,29,1,0,0,,,0,FALSE,,,,,,,,,,,,,,,,,,,,,,,,,,,,,,,
,5d67fe2073cd1d001a611229,627c6ed8180400602c21953b,2022-05-11_22h20.45.554,classification_task,2021.2.3,Win32,59.95203837,627c6715c52fd12f31907bcf,,,,,,,,,,,,,,,,,,,,,,,l,1,1.791,"[""0.108"",""0.920"",""0.494"",""0.732""]","[1,0,1,1]",0,30,30,30,1,1,0,,,0,FALSE,,,,,,,,,,,,,,,,,,,,,,,,,,,,,,,
,5d67fe2073cd1d001a611229,627c6ed8180400602c21953b,2022-05-11_22h20.45.554,classification_task,2021.2.3,Win32,59.95203837,627c6715c52fd12f31907bcf,,,,,,,,,,,,,,,,,,,,,,,a,1,3.102,"[""0.920"",""0.366"",""0.602"",""0.955""]","[0,1,1,1]",0,31,31,31,1,0,0,,,0,FALSE,,,,,,,,,,,,,,,,,,,,,,,,,,,,,,,
,5d67fe2073cd1d001a611229,627c6ed8180400602c21953b,2022-05-11_22h20.45.554,classification_task,2021.2.3,Win32,59.95203837,627c6715c52fd12f31907bcf,,,,,,,,,,,,,,,,,,,,,,,a,1,3.216,"[""0.321"",""0.445"",""0.845"",""0.920""]","[1,1,1,0]",0,32,32,32,1,0,1,,,0,FALSE,,,,,,,,,,,,,,,,,,,,,,,,,,,,,,,
,5d67fe2073cd1d001a611229,627c6ed8180400602c21953b,2022-05-11_22h20.45.554,classification_task,2021.2.3,Win32,59.95203837,627c6715c52fd12f31907bcf,,,,,,,,,,,,,,,,,,,,,,,l,1,3.321,"[""0.060"",""0.241"",""0.543"",""0.689""]","[1,1,1,0]",0,33,33,33,1,1,1,,,0,FALSE,,,,,,,,,,,,,,,,,,,,,,,,,,,,,,,
,5d67fe2073cd1d001a611229,627c6ed8180400602c21953b,2022-05-11_22h20.45.554,classification_task,2021.2.3,Win32,59.95203837,627c6715c52fd12f31907bcf,,,,,,,,,,,,,,,,,,,,,,,l,1,0.999,"[""0.060"",""0.241"",""0.673"",""0.783""]","[1,1,0,1]",0,34,34,34,1,1,1,,,0,FALSE,,,,,,,,,,,,,,,,,,,,,,,,,,,,,,,
,5d67fe2073cd1d001a611229,627c6ed8180400602c21953b,2022-05-11_22h20.45.554,classification_task,2021.2.3,Win32,59.95203837,627c6715c52fd12f31907bcf,,,,,,,,,,,,,,,,,,,,,,,l,0,2.192,"[""0.321"",""0.285"",""0.845"",""0.885""]","[1,0,1,1]",0,35,35,35,1,0,1,,,0,FALSE,,,,,,,,,,,,,,,,,,,,,,,,,,,,,,,
,5d67fe2073cd1d001a611229,627c6ed8180400602c21953b,2022-05-11_22h20.45.554,classification_task,2021.2.3,Win32,59.95203837,627c6715c52fd12f31907bcf,,,,,,,,,,,,,,,,,,,,,,,l,1,1.365,"[""0.108"",""0.663"",""0.494"",""0.732""]","[1,0,1,1]",0,36,36,36,1,1,0,,,0,FALSE,,,,,,,,,,,,,,,,,,,,,,,,,,,,,,,
,5d67fe2073cd1d001a611229,627c6ed8180400602c21953b,2022-05-11_22h20.45.554,classification_task,2021.2.3,Win32,59.95203837,627c6715c52fd12f31907bcf,,,,,,,,,,,,,,,,,,,,,,,a,1,1.443,"[""0.167"",""0.653"",""0.602"",""0.955""]","[1,0,1,1]",0,37,37,37,1,0,0,,,0,FALSE,,,,,,,,,,,,,,,,,,,,,,,,,,,,,,,
,5d67fe2073cd1d001a611229,627c6ed8180400602c21953b,2022-05-11_22h20.45.554,classification_task,2021.2.3,Win32,59.95203837,627c6715c52fd12f31907bcf,,,,,,,,,,,,,,,,,,,,,,,l,1,2.467,"[""0.653"",""0.241"",""0.543"",""0.783""]","[0,1,1,1]",0,38,38,38,1,1,1,,,0,FALSE,,,,,,,,,,,,,,,,,,,,,,,,,,,,,,,
,5d67fe2073cd1d001a611229,627c6ed8180400602c21953b,2022-05-11_22h20.45.554,classification_task,2021.2.3,Win32,59.95203837,627c6715c52fd12f31907bcf,,,,,,,,,,,,,,,,,,,,,,,a,1,2.8,"[""0.321"",""0.445"",""0.653"",""0.885""]","[1,1,0,1]",0,39,39,39,1,0,1,,,0,FALSE,,,,,,,,,,,,,,,,,,,,,,,,,,,,,,,
,5d67fe2073cd1d001a611229,627c6ed8180400602c21953b,2022-05-11_22h20.45.554,classification_task,2021.2.3,Win32,59.95203837,627c6715c52fd12f31907bcf,,,,,,,,,,,,,,,,,,,,,,,a,1,2.234,"[""0.167"",""0.366"",""0.602"",""0.697""]","[1,1,1,0]",0,40,40,40,1,0,0,,,0,FALSE,,,,,,,,,,,,,,,,,,,,,,,,,,,,,,,
,5d67fe2073cd1d001a611229,627c6ed8180400602c21953b,2022-05-11_22h20.45.554,classification_task,2021.2.3,Win32,59.95203837,627c6715c52fd12f31907bcf,,,,,,,,,,,,,,,,,,,,,,,a,1,2.107,"[""0.285"",""0.445"",""0.845"",""0.885""]","[0,1,1,1]",0,41,41,41,1,0,1,,,0,FALSE,,,,,,,,,,,,,,,,,,,,,,,,,,,,,,,
,5d67fe2073cd1d001a611229,627c6ed8180400602c21953b,2022-05-11_22h20.45.554,classification_task,2021.2.3,Win32,59.95203837,627c6715c52fd12f31907bcf,,,,,,,,,,,,,,,,,,,,,,,l,1,1.614,"[""0.060"",""0.663"",""0.543"",""0.783""]","[1,0,1,1]",0,42,42,42,1,1,1,,,0,FALSE,,,,,,,,,,,,,,,,,,,,,,,,,,,,,,,
,5d67fe2073cd1d001a611229,627c6ed8180400602c21953b,2022-05-11_22h20.45.554,classification_task,2021.2.3,Win32,59.95203837,627c6715c52fd12f31907bcf,,,,,,,,,,,,,,,,,,,,,,,l,1,2.104,"[""0.920"",""0.410"",""0.494"",""0.732""]","[0,1,1,1]",0,43,43,43,1,1,0,,,0,FALSE,,,,,,,,,,,,,,,,,,,,,,,,,,,,,,,
,5d67fe2073cd1d001a611229,627c6ed8180400602c21953b,2022-05-11_22h20.45.554,classification_task,2021.2.3,Win32,59.95203837,627c6715c52fd12f31907bcf,,,,,,,,,,,,,,,,,,,,,,,l,1,1.296,"[""0.108"",""0.410"",""0.494"",""0.649""]","[1,1,1,0]",0,44,44,44,1,1,0,,,0,FALSE,,,,,,,,,,,,,,,,,,,,,,,,,,,,,,,
,5d67fe2073cd1d001a611229,627c6ed8180400602c21953b,2022-05-11_22h20.45.554,classification_task,2021.2.3,Win32,59.95203837,627c6715c52fd12f31907bcf,,,,,,,,,,,,,,,,,,,,,,,l,1,1.12,"[""0.108"",""0.410"",""0.653"",""0.732""]","[1,1,0,1]",0,45,45,45,1,1,0,,,0,FALSE,,,,,,,,,,,,,,,,,,,,,,,,,,,,,,,
,5d67fe2073cd1d001a611229,627c6ed8180400602c21953b,2022-05-11_22h20.45.554,classification_task,2021.2.3,Win32,59.95203837,627c6715c52fd12f31907bcf,,,,,,,,,,,,,,,,,,,,,,,l,0,1.541,"[""0.686"",""0.366"",""0.602"",""0.955""]","[0,1,1,1]",0,46,46,46,1,0,0,,,0,FALSE,,,,,,,,,,,,,,,,,,,,,,,,,,,,,,,
,5d67fe2073cd1d001a611229,627c6ed8180400602c21953b,2022-05-11_22h20.45.554,classification_task,2021.2.3,Win32,59.95203837,627c6715c52fd12f31907bcf,,,,,,,,,,,,,,,,,,,,,,,a,1,2.269,"[""0.167"",""0.366"",""0.663"",""0.955""]","[1,1,0,1]",0,47,47,47,1,0,0,,,0,FALSE,,,,,,,,,,,,,,,,,,,,,,,,,,,,,,,
,5d67fe2073cd1d001a611229,627c6ed8180400602c21953b,2022-05-11_22h20.45.554,classification_task,2021.2.3,Win32,59.95203837,627c6715c52fd12f31907bcf,,,,,,,,,,,,,,,,,,,,,,,l,1,1.107,"[""0.108"",""0.410"",""0.494"",""0.653""]","[1,1,1,0]",0,48,48,48,1,1,0,,,0,FALSE,,,,,,,,,,,,,,,,,,,,,,,,,,,,,,,
,5d67fe2073cd1d001a611229,627c6ed8180400602c21953b,2022-05-11_22h20.45.554,classification_task,2021.2.3,Win32,59.95203837,627c6715c52fd12f31907bcf,,,,,,,,,,,,,,,,,,,,,,,l,1,1.567,"[""0.284"",""0.410"",""0.494"",""0.732""]","[0,1,1,1]",0,49,49,49,1,1,0,,,0,FALSE,,,,,,,,,,,,,,,,,,,,,,,,,,,,,,,
,5d67fe2073cd1d001a611229,627c6ed8180400602c21953b,2022-05-11_22h20.45.554,classification_task,2021.2.3,Win32,59.95203837,627c6715c52fd12f31907bcf,,,,,,,,,,,,,,,,,,,,,,,a,1,1.652,"[""0.167"",""0.285"",""0.602"",""0.955""]","[1,0,1,1]",0,50,50,50,1,0,0,,,0,FALSE,,,,,,,,,,,,,,,,,,,,,,,,,,,,,,,
,5d67fe2073cd1d001a611229,627c6ed8180400602c21953b,2022-05-11_22h20.45.554,classification_task,2021.2.3,Win32,59.95203837,627c6715c52fd12f31907bcf,,,,,,,,,,,,,,,,,,,,,,,l,1,1.912,"[""0.060"",""0.697"",""0.543"",""0.783""]","[1,0,1,1]",0,51,51,51,1,1,1,,,0,FALSE,,,,,,,,,,,,,,,,,,,,,,,,,,,,,,,
,5d67fe2073cd1d001a611229,627c6ed8180400602c21953b,2022-05-11_22h20.45.554,classification_task,2021.2.3,Win32,59.95203837,627c6715c52fd12f31907bcf,,,,,,,,,,,,,,,,,,,,,,,l,1,1.525,"[""0.108"",""0.697"",""0.494"",""0.732""]","[1,0,1,1]",0,52,52,52,1,1,0,,,0,FALSE,,,,,,,,,,,,,,,,,,,,,,,,,,,,,,,
,5d67fe2073cd1d001a611229,627c6ed8180400602c21953b,2022-05-11_22h20.45.554,classification_task,2021.2.3,Win32,59.95203837,627c6715c52fd12f31907bcf,,,,,,,,,,,,,,,,,,,,,,,a,1,1.152,"[""0.167"",""0.366"",""0.602"",""0.697""]","[1,1,1,0]",0,53,53,53,1,0,0,,,0,FALSE,,,,,,,,,,,,,,,,,,,,,,,,,,,,,,,
,5d67fe2073cd1d001a611229,627c6ed8180400602c21953b,2022-05-11_22h20.45.554,classification_task,2021.2.3,Win32,59.95203837,627c6715c52fd12f31907bcf,,,,,,,,,,,,,,,,,,,,,,,l,1,1.585,"[""0.060"",""0.241"",""0.543"",""0.284""]","[1,1,1,0]",0,54,54,54,1,1,1,,,0,FALSE,,,,,,,,,,,,,,,,,,,,,,,,,,,,,,,
,5d67fe2073cd1d001a611229,627c6ed8180400602c21953b,2022-05-11_22h20.45.554,classification_task,2021.2.3,Win32,59.95203837,627c6715c52fd12f31907bcf,,,,,,,,,,,,,,,,,,,,,,,a,1,1.584,"[""0.321"",""0.445"",""0.845"",""0.658""]","[1,1,1,0]",0,55,55,55,1,0,1,,,0,FALSE,,,,,,,,,,,,,,,,,,,,,,,,,,,,,,,
,5d67fe2073cd1d001a611229,627c6ed8180400602c21953b,2022-05-11_22h20.45.554,classification_task,2021.2.3,Win32,59.95203837,627c6715c52fd12f31907bcf,,,,,,,,,,,,,,,,,,,,,,,a,1,1.087,"[""0.321"",""0.653"",""0.845"",""0.885""]","[1,0,1,1]",0,56,56,56,1,0,1,,,0,FALSE,,,,,,,,,,,,,,,,,,,,,,,,,,,,,,,
,5d67fe2073cd1d001a611229,627c6ed8180400602c21953b,2022-05-11_22h20.45.554,classification_task,2021.2.3,Win32,59.95203837,627c6715c52fd12f31907bcf,,,,,,,,,,,,,,,,,,,,,,,l,1,1.147,"[""0.673"",""0.241"",""0.543"",""0.783""]","[0,1,1,1]",0,57,57,57,1,1,1,,,0,FALSE,,,,,,,,,,,,,,,,,,,,,,,,,,,,,,,
,5d67fe2073cd1d001a611229,627c6ed8180400602c21953b,2022-05-11_22h20.45.554,classification_task,2021.2.3,Win32,59.95203837,627c6715c52fd12f31907bcf,,,,,,,,,,,,,,,,,,,,,,,l,1,1.543,"[""0.060"",""0.241"",""0.691"",""0.783""]","[1,1,0,1]",0,58,58,58,1,1,1,,,0,FALSE,,,,,,,,,,,,,,,,,,,,,,,,,,,,,,,
,5d67fe2073cd1d001a611229,627c6ed8180400602c21953b,2022-05-11_22h20.45.554,classification_task,2021.2.3,Win32,59.95203837,627c6715c52fd12f31907bcf,,,,,,,,,,,,,,,,,,,,,,,a,1,1.216,"[""0.167"",""0.366"",""0.673"",""0.955""]","[1,1,0,1]",0,59,59,59,1,0,0,,,0,FALSE,,,,,,,,,,,,,,,,,,,,,,,,,,,,,,,
,5d67fe2073cd1d001a611229,627c6ed8180400602c21953b,2022-05-11_22h20.45.554,classification_task,2021.2.3,Win32,59.95203837,627c6715c52fd12f31907bcf,,,,,,,,,,,,,,,,,,,,,,,l,0,1.992,"[""0.673"",""0.366"",""0.602"",""0.955""]","[0,1,1,1]",0,60,60,60,1,0,0,,,0,FALSE,,,,,,,,,,,,,,,,,,,,,,,,,,,,,,,
,5d67fe2073cd1d001a611229,627c6ed8180400602c21953b,2022-05-11_22h20.45.554,classification_task,2021.2.3,Win32,59.95203837,627c6715c52fd12f31907bcf,,,,,,,,,,,,,,,,,,,,,,,l,1,1.546,"[""0.108"",""0.410"",""0.678"",""0.732""]","[1,1,0,1]",0,61,61,61,1,1,0,,,0,FALSE,,,,,,,,,,,,,,,,,,,,,,,,,,,,,,,
,5d67fe2073cd1d001a611229,627c6ed8180400602c21953b,2022-05-11_22h20.45.554,classification_task,2021.2.3,Win32,59.95203837,627c6715c52fd12f31907bcf,,,,,,,,,,,,,,,,,,,,,,,a,1,1.45,"[""0.321"",""0.445"",""0.678"",""0.885""]","[1,1,0,1]",0,62,62,62,1,0,1,,,0,FALSE,,,,,,,,,,,,,,,,,,,,,,,,,,,,,,,
,5d67fe2073cd1d001a611229,627c6ed8180400602c21953b,2022-05-11_22h20.45.554,classification_task,2021.2.3,Win32,59.95203837,627c6715c52fd12f31907bcf,,,,,,,,,,,,,,,,,,,,,,,l,0,1.252,"[""0.284"",""0.445"",""0.845"",""0.885""]","[0,1,1,1]",0,63,63,63,1,0,1,,,0,FALSE,,,,,,,,,,,,,,,,,,,,,,,,,,,,,,,
,5d67fe2073cd1d001a611229,627c6ed8180400602c21953b,2022-05-11_22h20.45.554,classification_task,2021.2.3,Win32,59.95203837,627c6715c52fd12f31907bcf,,,,,,,,,,,,,,,,,,,,,,,,,,,,,,,,,,,,,,,0, ,,0,0,389.7,0,0,0,0,1,2,1,,,,,,,,,,,,,,,,,,
,5d67fe2073cd1d001a611229,627c6ed8180400602c21953b,2022-05-11_22h20.45.554,classification_task,2021.2.3,Win32,59.95203837,627c6715c52fd12f31907bcf,,,,,,,,,,,,,,,,,,,,,,,,,,,,,,,,,,,,,,,1,  ,,0,6.077797374,394.838,0,0,0,0,1,2,1,,,,,,,,,,,,,,,,,,
,5d67fe2073cd1d001a611229,627c6ed8180400602c21953b,2022-05-11_22h20.45.554,classification_task,2021.2.3,Win32,59.95203837,627c6715c52fd12f31907bcf,,,,,,,,,,,,,,,,,,,,,,,,,,,,,,,,,,,,,,,2,  ,,0,0.909269057,398.335,0,0,0,0,1,2,1,,,,,,,,,,,,,,,,,,
,5d67fe2073cd1d001a611229,627c6ed8180400602c21953b,2022-05-11_22h20.45.554,classification_task,2021.2.3,Win32,59.95203837,627c6715c52fd12f31907bcf,,,,,,,,,,,,,,,,,,,,,,,,,,,,,,,,,,,,,,,,,,,,,0,0,0,0,1,,1,,,,,,,,,,,,,,,,,,
,5d67fe2073cd1d001a611229,627c6ed8180400602c21953b,2022-05-11_22h20.45.554,classification_task,2021.2.3,Win32,59.95203837,627c6715c52fd12f31907bcf,,,,,,,,,,,,,,,,,,,,,space,20.408,l,1,2.911,"[""0.060"",""0.673"",""0.543"",""0.783""]","[1,0,1,1]",0,0,0,0,1,1,1,,,0,FALSE,,,,,,,,,,,,,,,,,,,,,,,,,,,,,,,
,5d67fe2073cd1d001a611229,627c6ed8180400602c21953b,2022-05-11_22h20.45.554,classification_task,2021.2.3,Win32,59.95203837,627c6715c52fd12f31907bcf,,,,,,,,,,,,,,,,,,,,,,,l,1,2.149,"[""0.108"",""0.691"",""0.494"",""0.732""]","[1,0,1,1]",0,1,1,1,1,1,0,,,0,FALSE,,,,,,,,,,,,,,,,,,,,,,,,,,,,,,,
,5d67fe2073cd1d001a611229,627c6ed8180400602c21953b,2022-05-11_22h20.45.554,classification_task,2021.2.3,Win32,59.95203837,627c6715c52fd12f31907bcf,,,,,,,,,,,,,,,,,,,,,,,a,1,0.751,"[""0.167"",""0.366"",""0.602"",""0.689""]","[1,1,1,0]",0,2,2,2,1,0,0,,,0,FALSE,,,,,,,,,,,,,,,,,,,,,,,,,,,,,,,
,5d67fe2073cd1d001a611229,627c6ed8180400602c21953b,2022-05-11_22h20.45.554,classification_task,2021.2.3,Win32,59.95203837,627c6715c52fd12f31907bcf,,,,,,,,,,,,,,,,,,,,,,,l,1,1.449,"[""0.060"",""0.241"",""0.543"",""0.653""]","[1,1,1,0]",0,3,3,3,1,1,1,,,0,FALSE,,,,,,,,,,,,,,,,,,,,,,,,,,,,,,,
,5d67fe2073cd1d001a611229,627c6ed8180400602c21953b,2022-05-11_22h20.45.554,classification_task,2021.2.3,Win32,59.95203837,627c6715c52fd12f31907bcf,,,,,,,,,,,,,,,,,,,,,,,a,1,1.052,"[""0.167"",""0.366"",""0.285"",""0.955""]","[1,1,0,1]",0,4,4,4,1,0,0,,,0,FALSE,,,,,,,,,,,,,,,,,,,,,,,,,,,,,,,
,5d67fe2073cd1d001a611229,627c6ed8180400602c21953b,2022-05-11_22h20.45.554,classification_task,2021.2.3,Win32,59.95203837,627c6715c52fd12f31907bcf,,,,,,,,,,,,,,,,,,,,,,,a,1,0.59,"[""0.688"",""0.366"",""0.602"",""0.955""]","[0,1,1,1]",0,5,5,5,1,0,0,,,0,FALSE,,,,,,,,,,,,,,,,,,,,,,,,,,,,,,,
,5d67fe2073cd1d001a611229,627c6ed8180400602c21953b,2022-05-11_22h20.45.554,classification_task,2021.2.3,Win32,59.95203837,627c6715c52fd12f31907bcf,,,,,,,,,,,,,,,,,,,,,,,a,1,1.694,"[""0.689"",""0.445"",""0.845"",""0.885""]","[0,1,1,1]",0,6,6,6,1,0,1,,,0,FALSE,,,,,,,,,,,,,,,,,,,,,,,,,,,,,,,
,5d67fe2073cd1d001a611229,627c6ed8180400602c21953b,2022-05-11_22h20.45.554,classification_task,2021.2.3,Win32,59.95203837,627c6715c52fd12f31907bcf,,,,,,,,,,,,,,,,,,,,,,,l,0,1.407,"[""0.321"",""0.445"",""0.845"",""0.697""]","[1,1,1,0]",0,7,7,7,1,0,1,,,0,FALSE,,,,,,,,,,,,,,,,,,,,,,,,,,,,,,,
,5d67fe2073cd1d001a611229,627c6ed8180400602c21953b,2022-05-11_22h20.45.554,classification_task,2021.2.3,Win32,59.95203837,627c6715c52fd12f31907bcf,,,,,,,,,,,,,,,,,,,,,,,a,0,0.757,"[""0.108"",""0.410"",""0.494"",""0.691""]","[1,1,1,0]",0,8,8,8,1,1,0,,,0,FALSE,,,,,,,,,,,,,,,,,,,,,,,,,,,,,,,
,5d67fe2073cd1d001a611229,627c6ed8180400602c21953b,2022-05-11_22h20.45.554,classification_task,2021.2.3,Win32,59.95203837,627c6715c52fd12f31907bcf,,,,,,,,,,,,,,,,,,,,,,,l,1,1.659,"[""0.675"",""0.241"",""0.543"",""0.783""]","[0,1,1,1]",0,9,9,9,1,1,1,,,0,FALSE,,,,,,,,,,,,,,,,,,,,,,,,,,,,,,,
,5d67fe2073cd1d001a611229,627c6ed8180400602c21953b,2022-05-11_22h20.45.554,classification_task,2021.2.3,Win32,59.95203837,627c6715c52fd12f31907bcf,,,,,,,,,,,,,,,,,,,,,,,l,1,0.863,"[""0.663"",""0.410"",""0.494"",""0.732""]","[0,1,1,1]",0,10,10,10,1,1,0,,,0,FALSE,,,,,,,,,,,,,,,,,,,,,,,,,,,,,,,
,5d67fe2073cd1d001a611229,627c6ed8180400602c21953b,2022-05-11_22h20.45.554,classification_task,2021.2.3,Win32,59.95203837,627c6715c52fd12f31907bcf,,,,,,,,,,,,,,,,,,,,,,,l,0,1.536,"[""0.321"",""0.445"",""0.689"",""0.885""]","[1,1,0,1]",0,11,11,11,1,0,1,,,0,FALSE,,,,,,,,,,,,,,,,,,,,,,,,,,,,,,,
,5d67fe2073cd1d001a611229,627c6ed8180400602c21953b,2022-05-11_22h20.45.554,classification_task,2021.2.3,Win32,59.95203837,627c6715c52fd12f31907bcf,,,,,,,,,,,,,,,,,,,,,,,a,1,0.892,"[""0.321"",""0.663"",""0.845"",""0.885""]","[1,0,1,1]",0,12,12,12,1,0,1,,,0,FALSE,,,,,,,,,,,,,,,,,,,,,,,,,,,,,,,
,5d67fe2073cd1d001a611229,627c6ed8180400602c21953b,2022-05-11_22h20.45.554,classification_task,2021.2.3,Win32,59.95203837,627c6715c52fd12f31907bcf,,,,,,,,,,,,,,,,,,,,,,,l,1,0.945,"[""0.108"",""0.410"",""0.688"",""0.732""]","[1,1,0,1]",0,13,13,13,1,1,0,,,0,FALSE,,,,,,,,,,,,,,,,,,,,,,,,,,,,,,,
,5d67fe2073cd1d001a611229,627c6ed8180400602c21953b,2022-05-11_22h20.45.554,classification_task,2021.2.3,Win32,59.95203837,627c6715c52fd12f31907bcf,,,,,,,,,,,,,,,,,,,,,,,a,1,0.734,"[""0.167"",""0.284"",""0.602"",""0.955""]","[1,0,1,1]",0,14,14,14,1,0,0,,,0,FALSE,,,,,,,,,,,,,,,,,,,,,,,,,,,,,,,
,5d67fe2073cd1d001a611229,627c6ed8180400602c21953b,2022-05-11_22h20.45.554,classification_task,2021.2.3,Win32,59.95203837,627c6715c52fd12f31907bcf,,,,,,,,,,,,,,,,,,,,,,,l,1,1.774,"[""0.060"",""0.241"",""0.673"",""0.783""]","[1,1,0,1]",0,15,15,15,1,1,1,,,0,FALSE,,,,,,,,,,,,,,,,,,,,,,,,,,,,,,,
,5d67fe2073cd1d001a611229,627c6ed8180400602c21953b,2022-05-11_22h20.45.554,classification_task,2021.2.3,Win32,59.95203837,627c6715c52fd12f31907bcf,,,,,,,,,,,,,,,,,,,,,,,l,1,0.916,"[""0.060"",""0.285"",""0.543"",""0.783""]","[1,0,1,1]",0,16,16,16,1,1,1,,,0,FALSE,,,,,,,,,,,,,,,,,,,,,,,,,,,,,,,
,5d67fe2073cd1d001a611229,627c6ed8180400602c21953b,2022-05-11_22h20.45.554,classification_task,2021.2.3,Win32,59.95203837,627c6715c52fd12f31907bcf,,,,,,,,,,,,,,,,,,,,,,,a,1,0.598,"[""0.675"",""0.366"",""0.602"",""0.955""]","[0,1,1,1]",0,17,17,17,1,0,0,,,0,FALSE,,,,,,,,,,,,,,,,,,,,,,,,,,,,,,,
,5d67fe2073cd1d001a611229,627c6ed8180400602c21953b,2022-05-11_22h20.45.554,classification_task,2021.2.3,Win32,59.95203837,627c6715c52fd12f31907bcf,,,,,,,,,,,,,,,,,,,,,,,l,1,0.633,"[""0.658"",""0.410"",""0.494"",""0.732""]","[0,1,1,1]",0,18,18,18,1,1,0,,,0,FALSE,,,,,,,,,,,,,,,,,,,,,,,,,,,,,,,
,5d67fe2073cd1d001a611229,627c6ed8180400602c21953b,2022-05-11_22h20.45.554,classification_task,2021.2.3,Win32,59.95203837,627c6715c52fd12f31907bcf,,,,,,,,,,,,,,,,,,,,,,,l,1,0.701,"[""0.108"",""0.410"",""0.494"",""0.673""]","[1,1,1,0]",0,19,19,19,1,1,0,,,0,FALSE,,,,,,,,,,,,,,,,,,,,,,,,,,,,,,,
,5d67fe2073cd1d001a611229,627c6ed8180400602c21953b,2022-05-11_22h20.45.554,classification_task,2021.2.3,Win32,59.95203837,627c6715c52fd12f31907bcf,,,,,,,,,,,,,,,,,,,,,,,l,0,1.2,"[""0.321"",""0.445"",""0.845"",""0.663""]","[1,1,1,0]",0,20,20,20,1,0,1,,,0,FALSE,,,,,,,,,,,,,,,,,,,,,,,,,,,,,,,
,5d67fe2073cd1d001a611229,627c6ed8180400602c21953b,2022-05-11_22h20.45.554,classification_task,2021.2.3,Win32,59.95203837,627c6715c52fd12f31907bcf,,,,,,,,,,,,,,,,,,,,,,,a,1,0.967,"[""0.321"",""0.697"",""0.845"",""0.885""]","[1,0,1,1]",0,21,21,21,1,0,1,,,0,FALSE,,,,,,,,,,,,,,,,,,,,,,,,,,,,,,,
,5d67fe2073cd1d001a611229,627c6ed8180400602c21953b,2022-05-11_22h20.45.554,classification_task,2021.2.3,Win32,59.95203837,627c6715c52fd12f31907bcf,,,,,,,,,,,,,,,,,,,,,,,a,1,0.716,"[""0.321"",""0.445"",""0.691"",""0.885""]","[1,1,0,1]",0,22,22,22,1,0,1,,,0,FALSE,,,,,,,,,,,,,,,,,,,,,,,,,,,,,,,
,5d67fe2073cd1d001a611229,627c6ed8180400602c21953b,2022-05-11_22h20.45.554,classification_task,2021.2.3,Win32,59.95203837,627c6715c52fd12f31907bcf,,,,,,,,,,,,,,,,,,,,,,,a,1,0.753,"[""0.167"",""0.366"",""0.920"",""0.955""]","[1,1,0,1]",0,23,23,23,1,0,0,,,0,FALSE,,,,,,,,,,,,,,,,,,,,,,,,,,,,,,,
,5d67fe2073cd1d001a611229,627c6ed8180400602c21953b,2022-05-11_22h20.45.554,classification_task,2021.2.3,Win32,59.95203837,627c6715c52fd12f31907bcf,,,,,,,,,,,,,,,,,,,,,,,a,1,0.5,"[""0.167"",""0.366"",""0.602"",""0.653""]","[1,1,1,0]",0,24,24,24,1,0,0,,,0,FALSE,,,,,,,,,,,,,,,,,,,,,,,,,,,,,,,
,5d67fe2073cd1d001a611229,627c6ed8180400602c21953b,2022-05-11_22h20.45.554,classification_task,2021.2.3,Win32,59.95203837,627c6715c52fd12f31907bcf,,,,,,,,,,,,,,,,,,,,,,,a,1,0.571,"[""0.167"",""0.284"",""0.602"",""0.955""]","[1,0,1,1]",0,25,25,25,1,0,0,,,0,FALSE,,,,,,,,,,,,,,,,,,,,,,,,,,,,,,,
,5d67fe2073cd1d001a611229,627c6ed8180400602c21953b,2022-05-11_22h20.45.554,classification_task,2021.2.3,Win32,59.95203837,627c6715c52fd12f31907bcf,,,,,,,,,,,,,,,,,,,,,,,a,1,1.85,"[""0.673"",""0.445"",""0.845"",""0.885""]","[0,1,1,1]",0,26,26,26,1,0,1,,,0,FALSE,,,,,,,,,,,,,,,,,,,,,,,,,,,,,,,
,5d67fe2073cd1d001a611229,627c6ed8180400602c21953b,2022-05-11_22h20.45.554,classification_task,2021.2.3,Win32,59.95203837,627c6715c52fd12f31907bcf,,,,,,,,,,,,,,,,,,,,,,,l,1,0.629,"[""0.108"",""0.410"",""0.691"",""0.732""]","[1,1,0,1]",0,27,27,27,1,1,0,,,0,FALSE,,,,,,,,,,,,,,,,,,,,,,,,,,,,,,,
,5d67fe2073cd1d001a611229,627c6ed8180400602c21953b,2022-05-11_22h20.45.554,classification_task,2021.2.3,Win32,59.95203837,627c6715c52fd12f31907bcf,,,,,,,,,,,,,,,,,,,,,,,l,1,1.482,"[""0.060"",""0.241"",""0.658"",""0.783""]","[1,1,0,1]",0,28,28,28,1,1,1,,,0,FALSE,,,,,,,,,,,,,,,,,,,,,,,,,,,,,,,
,5d67fe2073cd1d001a611229,627c6ed8180400602c21953b,2022-05-11_22h20.45.554,classification_task,2021.2.3,Win32,59.95203837,627c6715c52fd12f31907bcf,,,,,,,,,,,,,,,,,,,,,,,a,0,1.817,"[""0.691"",""0.241"",""0.543"",""0.783""]","[0,1,1,1]",0,29,29,29,1,1,1,,,0,FALSE,,,,,,,,,,,,,,,,,,,,,,,,,,,,,,,
,5d67fe2073cd1d001a611229,627c6ed8180400602c21953b,2022-05-11_22h20.45.554,classification_task,2021.2.3,Win32,59.95203837,627c6715c52fd12f31907bcf,,,,,,,,,,,,,,,,,,,,,,,l,1,0.962,"[""0.108"",""0.649"",""0.494"",""0.732""]","[1,0,1,1]",0,30,30,30,1,1,0,,,0,FALSE,,,,,,,,,,,,,,,,,,,,,,,,,,,,,,,
,5d67fe2073cd1d001a611229,627c6ed8180400602c21953b,2022-05-11_22h20.45.554,classification_task,2021.2.3,Win32,59.95203837,627c6715c52fd12f31907bcf,,,,,,,,,,,,,,,,,,,,,,,l,1,1.579,"[""0.060"",""0.241"",""0.543"",""0.689""]","[1,1,1,0]",0,31,31,31,1,1,1,,,0,FALSE,,,,,,,,,,,,,,,,,,,,,,,,,,,,,,,
,5d67fe2073cd1d001a611229,627c6ed8180400602c21953b,2022-05-11_22h20.45.554,classification_task,2021.2.3,Win32,59.95203837,627c6715c52fd12f31907bcf,,,,,,,,,,,,,,,,,,,,,,,a,1,0.636,"[""0.649"",""0.366"",""0.602"",""0.955""]","[0,1,1,1]",0,32,32,32,1,0,0,,,0,FALSE,,,,,,,,,,,,,,,,,,,,,,,,,,,,,,,
,5d67fe2073cd1d001a611229,627c6ed8180400602c21953b,2022-05-11_22h20.45.554,classification_task,2021.2.3,Win32,59.95203837,627c6715c52fd12f31907bcf,,,,,,,,,,,,,,,,,,,,,,,l,1,0.964,"[""0.108"",""0.410"",""0.494"",""0.920""]","[1,1,1,0]",0,33,33,33,1,1,0,,,0,FALSE,,,,,,,,,,,,,,,,,,,,,,,,,,,,,,,
,5d67fe2073cd1d001a611229,627c6ed8180400602c21953b,2022-05-11_22h20.45.554,classification_task,2021.2.3,Win32,59.95203837,627c6715c52fd12f31907bcf,,,,,,,,,,,,,,,,,,,,,,,a,0,1.579,"[""0.691"",""0.241"",""0.543"",""0.783""]","[0,1,1,1]",0,34,34,34,1,1,1,,,0,FALSE,,,,,,,,,,,,,,,,,,,,,,,,,,,,,,,
,5d67fe2073cd1d001a611229,627c6ed8180400602c21953b,2022-05-11_22h20.45.554,classification_task,2021.2.3,Win32,59.95203837,627c6715c52fd12f31907bcf,,,,,,,,,,,,,,,,,,,,,,,a,1,1.079,"[""0.167"",""0.366"",""0.602"",""0.649""]","[1,1,1,0]",0,35,35,35,1,0,0,,,0,FALSE,,,,,,,,,,,,,,,,,,,,,,,,,,,,,,,
,5d67fe2073cd1d001a611229,627c6ed8180400602c21953b,2022-05-11_22h20.45.554,classification_task,2021.2.3,Win32,59.95203837,627c6715c52fd12f31907bcf,,,,,,,,,,,,,,,,,,,,,,,a,1,1.725,"[""0.658"",""0.445"",""0.845"",""0.885""]","[0,1,1,1]",0,36,36,36,1,0,1,,,0,FALSE,,,,,,,,,,,,,,,,,,,,,,,,,,,,,,,
,5d67fe2073cd1d001a611229,627c6ed8180400602c21953b,2022-05-11_22h20.45.554,classification_task,2021.2.3,Win32,59.95203837,627c6715c52fd12f31907bcf,,,,,,,,,,,,,,,,,,,,,,,l,1,1.168,"[""0.060"",""0.678"",""0.543"",""0.783""]","[1,0,1,1]",0,37,37,37,1,1,1,,,0,FALSE,,,,,,,,,,,,,,,,,,,,,,,,,,,,,,,
,5d67fe2073cd1d001a611229,627c6ed8180400602c21953b,2022-05-11_22h20.45.554,classification_task,2021.2.3,Win32,59.95203837,627c6715c52fd12f31907bcf,,,,,,,,,,,,,,,,,,,,,,,a,1,1.41,"[""0.321"",""0.445"",""0.845"",""0.675""]","[1,1,1,0]",0,38,38,38,1,0,1,,,0,FALSE,,,,,,,,,,,,,,,,,,,,,,,,,,,,,,,
,5d67fe2073cd1d001a611229,627c6ed8180400602c21953b,2022-05-11_22h20.45.554,classification_task,2021.2.3,Win32,59.95203837,627c6715c52fd12f31907bcf,,,,,,,,,,,,,,,,,,,,,,,a,1,1.228,"[""0.167"",""0.920"",""0.602"",""0.955""]","[1,0,1,1]",0,39,39,39,1,0,0,,,0,FALSE,,,,,,,,,,,,,,,,,,,,,,,,,,,,,,,
,5d67fe2073cd1d001a611229,627c6ed8180400602c21953b,2022-05-11_22h20.45.554,classification_task,2021.2.3,Win32,59.95203837,627c6715c52fd12f31907bcf,,,,,,,,,,,,,,,,,,,,,,,l,1,1.131,"[""0.060"",""0.241"",""0.543"",""0.649""]","[1,1,1,0]",0,40,40,40,1,1,1,,,0,FALSE,,,,,,,,,,,,,,,,,,,,,,,,,,,,,,,
,5d67fe2073cd1d001a611229,627c6ed8180400602c21953b,2022-05-11_22h20.45.554,classification_task,2021.2.3,Win32,59.95203837,627c6715c52fd12f31907bcf,,,,,,,,,,,,,,,,,,,,,,,a,1,0.959,"[""0.321"",""0.445"",""0.689"",""0.885""]","[1,1,0,1]",0,41,41,41,1,0,1,,,0,FALSE,,,,,,,,,,,,,,,,,,,,,,,,,,,,,,,
,5d67fe2073cd1d001a611229,627c6ed8180400602c21953b,2022-05-11_22h20.45.554,classification_task,2021.2.3,Win32,59.95203837,627c6715c52fd12f31907bcf,,,,,,,,,,,,,,,,,,,,,,,l,1,0.852,"[""0.060"",""0.241"",""0.649"",""0.783""]","[1,1,0,1]",0,42,42,42,1,1,1,,,0,FALSE,,,,,,,,,,,,,,,,,,,,,,,,,,,,,,,
,5d67fe2073cd1d001a611229,627c6ed8180400602c21953b,2022-05-11_22h20.45.554,classification_task,2021.2.3,Win32,59.95203837,627c6715c52fd12f31907bcf,,,,,,,,,,,,,,,,,,,,,,,l,1,0.742,"[""0.284"",""0.410"",""0.494"",""0.732""]","[0,1,1,1]",0,43,43,43,1,1,0,,,0,FALSE,,,,,,,,,,,,,,,,,,,,,,,,,,,,,,,
,5d67fe2073cd1d001a611229,627c6ed8180400602c21953b,2022-05-11_22h20.45.554,classification_task,2021.2.3,Win32,59.95203837,627c6715c52fd12f31907bcf,,,,,,,,,,,,,,,,,,,,,,,a,1,0.701,"[""0.167"",""0.366"",""0.697"",""0.955""]","[1,1,0,1]",0,44,44,44,1,0,0,,,0,FALSE,,,,,,,,,,,,,,,,,,,,,,,,,,,,,,,
,5d67fe2073cd1d001a611229,627c6ed8180400602c21953b,2022-05-11_22h20.45.554,classification_task,2021.2.3,Win32,59.95203837,627c6715c52fd12f31907bcf,,,,,,,,,,,,,,,,,,,,,,,l,1,0.656,"[""0.108"",""0.410"",""0.686"",""0.732""]","[1,1,0,1]",0,45,45,45,1,1,0,,,0,FALSE,,,,,,,,,,,,,,,,,,,,,,,,,,,,,,,
,5d67fe2073cd1d001a611229,627c6ed8180400602c21953b,2022-05-11_22h20.45.554,classification_task,2021.2.3,Win32,59.95203837,627c6715c52fd12f31907bcf,,,,,,,,,,,,,,,,,,,,,,,a,1,1.264,"[""0.321"",""0.658"",""0.845"",""0.885""]","[1,0,1,1]",0,46,46,46,1,0,1,,,0,FALSE,,,,,,,,,,,,,,,,,,,,,,,,,,,,,,,
,5d67fe2073cd1d001a611229,627c6ed8180400602c21953b,2022-05-11_22h20.45.554,classification_task,2021.2.3,Win32,59.95203837,627c6715c52fd12f31907bcf,,,,,,,,,,,,,,,,,,,,,,,l,1,0.711,"[""0.108"",""0.649"",""0.494"",""0.732""]","[1,0,1,1]",0,47,47,47,1,1,0,,,0,FALSE,,,,,,,,,,,,,,,,,,,,,,,,,,,,,,,
,5d67fe2073cd1d001a611229,627c6ed8180400602c21953b,2022-05-11_22h20.45.554,classification_task,2021.2.3,Win32,59.95203837,627c6715c52fd12f31907bcf,,,,,,,,,,,,,,,,,,,,,,,l,1,2.133,"[""0.108"",""0.673"",""0.494"",""0.732""]","[1,0,1,1]",0,48,48,48,1,1,0,,,0,FALSE,,,,,,,,,,,,,,,,,,,,,,,,,,,,,,,
,5d67fe2073cd1d001a611229,627c6ed8180400602c21953b,2022-05-11_22h20.45.554,classification_task,2021.2.3,Win32,59.95203837,627c6715c52fd12f31907bcf,,,,,,,,,,,,,,,,,,,,,,,a,1,0.682,"[""0.167"",""0.366"",""0.689"",""0.955""]","[1,1,0,1]",0,49,49,49,1,0,0,,,0,FALSE,,,,,,,,,,,,,,,,,,,,,,,,,,,,,,,
,5d67fe2073cd1d001a611229,627c6ed8180400602c21953b,2022-05-11_22h20.45.554,classification_task,2021.2.3,Win32,59.95203837,627c6715c52fd12f31907bcf,,,,,,,,,,,,,,,,,,,,,,,a,1,0.565,"[""0.167"",""0.366"",""0.602"",""0.675""]","[1,1,1,0]",0,50,50,50,1,0,0,,,0,FALSE,,,,,,,,,,,,,,,,,,,,,,,,,,,,,,,
,5d67fe2073cd1d001a611229,627c6ed8180400602c21953b,2022-05-11_22h20.45.554,classification_task,2021.2.3,Win32,59.95203837,627c6715c52fd12f31907bcf,,,,,,,,,,,,,,,,,,,,,,,l,1,0.972,"[""0.108"",""0.410"",""0.494"",""0.663""]","[1,1,1,0]",0,51,51,51,1,1,0,,,0,FALSE,,,,,,,,,,,,,,,,,,,,,,,,,,,,,,,
,5d67fe2073cd1d001a611229,627c6ed8180400602c21953b,2022-05-11_22h20.45.554,classification_task,2021.2.3,Win32,59.95203837,627c6715c52fd12f31907bcf,,,,,,,,,,,,,,,,,,,,,,,a,0,2.217,"[""0.060"",""0.241"",""0.675"",""0.783""]","[1,1,0,1]",0,52,52,52,1,1,1,,,0,FALSE,,,,,,,,,,,,,,,,,,,,,,,,,,,,,,,
,5d67fe2073cd1d001a611229,627c6ed8180400602c21953b,2022-05-11_22h20.45.554,classification_task,2021.2.3,Win32,59.95203837,627c6715c52fd12f31907bcf,,,,,,,,,,,,,,,,,,,,,,,a,1,0.866,"[""0.167"",""0.675"",""0.602"",""0.955""]","[1,0,1,1]",0,53,53,53,1,0,0,,,0,FALSE,,,,,,,,,,,,,,,,,,,,,,,,,,,,,,,
,5d67fe2073cd1d001a611229,627c6ed8180400602c21953b,2022-05-11_22h20.45.554,classification_task,2021.2.3,Win32,59.95203837,627c6715c52fd12f31907bcf,,,,,,,,,,,,,,,,,,,,,,,a,1,1.634,"[""0.649"",""0.445"",""0.845"",""0.885""]","[0,1,1,1]",0,54,54,54,1,0,1,,,0,FALSE,,,,,,,,,,,,,,,,,,,,,,,,,,,,,,,
,5d67fe2073cd1d001a611229,627c6ed8180400602c21953b,2022-05-11_22h20.45.554,classification_task,2021.2.3,Win32,59.95203837,627c6715c52fd12f31907bcf,,,,,,,,,,,,,,,,,,,,,,,a,1,0.676,"[""0.689"",""0.366"",""0.602"",""0.955""]","[0,1,1,1]",0,55,55,55,1,0,0,,,0,FALSE,,,,,,,,,,,,,,,,,,,,,,,,,,,,,,,
,5d67fe2073cd1d001a611229,627c6ed8180400602c21953b,2022-05-11_22h20.45.554,classification_task,2021.2.3,Win32,59.95203837,627c6715c52fd12f31907bcf,,,,,,,,,,,,,,,,,,,,,,,a,1,1.635,"[""0.321"",""0.697"",""0.845"",""0.885""]","[1,0,1,1]",0,56,56,56,1,0,1,,,0,FALSE,,,,,,,,,,,,,,,,,,,,,,,,,,,,,,,
,5d67fe2073cd1d001a611229,627c6ed8180400602c21953b,2022-05-11_22h20.45.554,classification_task,2021.2.3,Win32,59.95203837,627c6715c52fd12f31907bcf,,,,,,,,,,,,,,,,,,,,,,,l,1,2.349,"[""0.060"",""0.658"",""0.543"",""0.783""]","[1,0,1,1]",0,57,57,57,1,1,1,,,0,FALSE,,,,,,,,,,,,,,,,,,,,,,,,,,,,,,,
,5d67fe2073cd1d001a611229,627c6ed8180400602c21953b,2022-05-11_22h20.45.554,classification_task,2021.2.3,Win32,59.95203837,627c6715c52fd12f31907bcf,,,,,,,,,,,,,,,,,,,,,,,a,1,1.948,"[""0.321"",""0.445"",""0.845"",""0.285""]","[1,1,1,0]",0,58,58,58,1,0,1,,,0,FALSE,,,,,,,,,,,,,,,,,,,,,,,,,,,,,,,
,5d67fe2073cd1d001a611229,627c6ed8180400602c21953b,2022-05-11_22h20.45.554,classification_task,2021.2.3,Win32,59.95203837,627c6715c52fd12f31907bcf,,,,,,,,,,,,,,,,,,,,,,,a,1,1.083,"[""0.321"",""0.445"",""0.658"",""0.885""]","[1,1,0,1]",0,59,59,59,1,0,1,,,0,FALSE,,,,,,,,,,,,,,,,,,,,,,,,,,,,,,,
,5d67fe2073cd1d001a611229,627c6ed8180400602c21953b,2022-05-11_22h20.45.554,classification_task,2021.2.3,Win32,59.95203837,627c6715c52fd12f31907bcf,,,,,,,,,,,,,,,,,,,,,,,l,1,1.114,"[""0.920"",""0.410"",""0.494"",""0.732""]","[0,1,1,1]",0,60,60,60,1,1,0,,,0,FALSE,,,,,,,,,,,,,,,,,,,,,,,,,,,,,,,
,5d67fe2073cd1d001a611229,627c6ed8180400602c21953b,2022-05-11_22h20.45.554,classification_task,2021.2.3,Win32,59.95203837,627c6715c52fd12f31907bcf,,,,,,,,,,,,,,,,,,,,,,,l,1,0.815,"[""0.108"",""0.410"",""0.649"",""0.732""]","[1,1,0,1]",0,61,61,61,1,1,0,,,0,FALSE,,,,,,,,,,,,,,,,,,,,,,,,,,,,,,,
,5d67fe2073cd1d001a611229,627c6ed8180400602c21953b,2022-05-11_22h20.45.554,classification_task,2021.2.3,Win32,59.95203837,627c6715c52fd12f31907bcf,,,,,,,,,,,,,,,,,,,,,,,a,0,1.39,"[""0.060"",""0.241"",""0.543"",""0.285""]","[1,1,1,0]",0,62,62,62,1,1,1,,,0,FALSE,,,,,,,,,,,,,,,,,,,,,,,,,,,,,,,
,5d67fe2073cd1d001a611229,627c6ed8180400602c21953b,2022-05-11_22h20.45.554,classification_task,2021.2.3,Win32,59.95203837,627c6715c52fd12f31907bcf,,,,,,,,,,,,,,,,,,,,,,,a,0,1.197,"[""0.686"",""0.241"",""0.543"",""0.783""]","[0,1,1,1]",0,63,63,63,1,1,1,,,0,FALSE,,,,,,,,,,,,,,,,,,,,,,,,,,,,,,,
,5d67fe2073cd1d001a611229,627c6ed8180400602c21953b,2022-05-11_22h20.45.554,classification_task,2021.2.3,Win32,59.95203837,627c6715c52fd12f31907bcf,,,,,,,,,,,,,,,,,,,,,,,,,,,,,,,,,,,,,,,0, ,,0,0,166.362,0,1,1,1,1,2,2,,,,,,,,,,,,,,,,,,
,5d67fe2073cd1d001a611229,627c6ed8180400602c21953b,2022-05-11_22h20.45.554,classification_task,2021.2.3,Win32,59.95203837,627c6715c52fd12f31907bcf,,,,,,,,,,,,,,,,,,,,,,,,,,,,,,,,,,,,,,,1,  ,,0,7.743484225,171.128,0,1,1,1,1,2,2,,,,,,,,,,,,,,,,,,
,5d67fe2073cd1d001a611229,627c6ed8180400602c21953b,2022-05-11_22h20.45.554,classification_task,2021.2.3,Win32,59.95203837,627c6715c52fd12f31907bcf,,,,,,,,,,,,,,,,,,,,,,,,,,,,,,,,,,,,,,,2,  ,,0,2.550460513,180.696,0,1,1,1,1,2,2,,,,,,,,,,,,,,,,,,
,5d67fe2073cd1d001a611229,627c6ed8180400602c21953b,2022-05-11_22h20.45.554,classification_task,2021.2.3,Win32,59.95203837,627c6715c52fd12f31907bcf,,,,,,,,,,,,,,,,,,,,,,,,,,,,,,,,,,,,,,,,,,,,,0,1,1,1,1,,2,,,,,,,,,,,,,,,,,,
,5d67fe2073cd1d001a611229,627c6ed8180400602c21953b,2022-05-11_22h20.45.554,classification_task,2021.2.3,Win32,59.95203837,627c6715c52fd12f31907bcf,,,,,,,,,,,,,,,,,,,,,space,10.881,a,1,2.213,"[""0.167"",""0.285"",""0.602"",""0.955""]","[1,0,1,1]",0,0,0,0,1,0,0,,,0,FALSE,,,,,,,,,,,,,,,,,,,,,,,,,,,,,,,
,5d67fe2073cd1d001a611229,627c6ed8180400602c21953b,2022-05-11_22h20.45.554,classification_task,2021.2.3,Win32,59.95203837,627c6715c52fd12f31907bcf,,,,,,,,,,,,,,,,,,,,,,,l,1,1.234,"[""0.060"",""0.241"",""0.284"",""0.783""]","[1,1,0,1]",0,1,1,1,1,1,1,,,0,FALSE,,,,,,,,,,,,,,,,,,,,,,,,,,,,,,,
,5d67fe2073cd1d001a611229,627c6ed8180400602c21953b,2022-05-11_22h20.45.554,classification_task,2021.2.3,Win32,59.95203837,627c6715c52fd12f31907bcf,,,,,,,,,,,,,,,,,,,,,,,a,0,2.763,"[""0.108"",""0.410"",""0.689"",""0.732""]","[1,1,0,1]",0,2,2,2,1,1,0,,,0,FALSE,,,,,,,,,,,,,,,,,,,,,,,,,,,,,,,
,5d67fe2073cd1d001a611229,627c6ed8180400602c21953b,2022-05-11_22h20.45.554,classification_task,2021.2.3,Win32,59.95203837,627c6715c52fd12f31907bcf,,,,,,,,,,,,,,,,,,,,,,,a,0,0.857,"[""0.108"",""0.688"",""0.494"",""0.732""]","[1,0,1,1]",0,3,3,3,1,1,0,,,0,FALSE,,,,,,,,,,,,,,,,,,,,,,,,,,,,,,,
,5d67fe2073cd1d001a611229,627c6ed8180400602c21953b,2022-05-11_22h20.45.554,classification_task,2021.2.3,Win32,59.95203837,627c6715c52fd12f31907bcf,,,,,,,,,,,,,,,,,,,,,,,l,0,0.873,"[""0.167"",""0.366"",""0.602"",""0.675""]","[1,1,1,0]",0,4,4,4,1,0,0,,,0,FALSE,,,,,,,,,,,,,,,,,,,,,,,,,,,,,,,
,5d67fe2073cd1d001a611229,627c6ed8180400602c21953b,2022-05-11_22h20.45.554,classification_task,2021.2.3,Win32,59.95203837,627c6715c52fd12f31907bcf,,,,,,,,,,,,,,,,,,,,,,,l,1,1.485,"[""0.060"",""0.241"",""0.543"",""0.920""]","[1,1,1,0]",0,5,5,5,1,1,1,,,0,FALSE,,,,,,,,,,,,,,,,,,,,,,,,,,,,,,,
,5d67fe2073cd1d001a611229,627c6ed8180400602c21953b,2022-05-11_22h20.45.554,classification_task,2021.2.3,Win32,59.95203837,627c6715c52fd12f31907bcf,,,,,,,,,,,,,,,,,,,,,,,a,0,1.119,"[""0.108"",""0.410"",""0.494"",""0.653""]","[1,1,1,0]",0,6,6,6,1,1,0,,,0,FALSE,,,,,,,,,,,,,,,,,,,,,,,,,,,,,,,
,5d67fe2073cd1d001a611229,627c6ed8180400602c21953b,2022-05-11_22h20.45.554,classification_task,2021.2.3,Win32,59.95203837,627c6715c52fd12f31907bcf,,,,,,,,,,,,,,,,,,,,,,,l,1,1.035,"[""0.060"",""0.653"",""0.543"",""0.783""]","[1,0,1,1]",0,7,7,7,1,1,1,,,0,FALSE,,,,,,,,,,,,,,,,,,,,,,,,,,,,,,,
,5d67fe2073cd1d001a611229,627c6ed8180400602c21953b,2022-05-11_22h20.45.554,classification_task,2021.2.3,Win32,59.95203837,627c6715c52fd12f31907bcf,,,,,,,,,,,,,,,,,,,,,,,a,0,1.816,"[""0.688"",""0.241"",""0.543"",""0.783""]","[0,1,1,1]",0,8,8,8,1,1,1,,,0,FALSE,,,,,,,,,,,,,,,,,,,,,,,,,,,,,,,
,5d67fe2073cd1d001a611229,627c6ed8180400602c21953b,2022-05-11_22h20.45.554,classification_task,2021.2.3,Win32,59.95203837,627c6715c52fd12f31907bcf,,,,,,,,,,,,,,,,,,,,,,,a,0,1.589,"[""0.663"",""0.410"",""0.494"",""0.732""]","[0,1,1,1]",0,9,9,9,1,1,0,,,0,FALSE,,,,,,,,,,,,,,,,,,,,,,,,,,,,,,,
,5d67fe2073cd1d001a611229,627c6ed8180400602c21953b,2022-05-11_22h20.45.554,classification_task,2021.2.3,Win32,59.95203837,627c6715c52fd12f31907bcf,,,,,,,,,,,,,,,,,,,,,,,a,1,1.36,"[""0.321"",""0.445"",""0.845"",""0.673""]","[1,1,1,0]",0,10,10,10,1,0,1,,,0,FALSE,,,,,,,,,,,,,,,,,,,,,,,,,,,,,,,
,5d67fe2073cd1d001a611229,627c6ed8180400602c21953b,2022-05-11_22h20.45.554,classification_task,2021.2.3,Win32,59.95203837,627c6715c52fd12f31907bcf,,,,,,,,,,,,,,,,,,,,,,,a,1,0.775,"[""0.321"",""0.688"",""0.845"",""0.885""]","[1,0,1,1]",0,11,11,11,1,0,1,,,0,FALSE,,,,,,,,,,,,,,,,,,,,,,,,,,,,,,,
,5d67fe2073cd1d001a611229,627c6ed8180400602c21953b,2022-05-11_22h20.45.554,classification_task,2021.2.3,Win32,59.95203837,627c6715c52fd12f31907bcf,,,,,,,,,,,,,,,,,,,,,,,l,0,1.52,"[""0.284"",""0.366"",""0.602"",""0.955""]","[0,1,1,1]",0,12,12,12,1,0,0,,,0,FALSE,,,,,,,,,,,,,,,,,,,,,,,,,,,,,,,
,5d67fe2073cd1d001a611229,627c6ed8180400602c21953b,2022-05-11_22h20.45.554,classification_task,2021.2.3,Win32,59.95203837,627c6715c52fd12f31907bcf,,,,,,,,,,,,,,,,,,,,,,,a,1,1.624,"[""0.167"",""0.366"",""0.285"",""0.955""]","[1,1,0,1]",0,13,13,13,1,0,0,,,0,FALSE,,,,,,,,,,,,,,,,,,,,,,,,,,,,,,,
,5d67fe2073cd1d001a611229,627c6ed8180400602c21953b,2022-05-11_22h20.45.554,classification_task,2021.2.3,Win32,59.95203837,627c6715c52fd12f31907bcf,,,,,,,,,,,,,,,,,,,,,,,l,0,2.169,"[""0.920"",""0.445"",""0.845"",""0.885""]","[0,1,1,1]",0,14,14,14,1,0,1,,,0,FALSE,,,,,,,,,,,,,,,,,,,,,,,,,,,,,,,
,5d67fe2073cd1d001a611229,627c6ed8180400602c21953b,2022-05-11_22h20.45.554,classification_task,2021.2.3,Win32,59.95203837,627c6715c52fd12f31907bcf,,,,,,,,,,,,,,,,,,,,,,,l,0,1.121,"[""0.321"",""0.445"",""0.678"",""0.885""]","[1,1,0,1]",0,15,15,15,1,0,1,,,0,FALSE,,,,,,,,,,,,,,,,,,,,,,,,,,,,,,,
,5d67fe2073cd1d001a611229,627c6ed8180400602c21953b,2022-05-11_22h20.45.554,classification_task,2021.2.3,Win32,59.95203837,627c6715c52fd12f31907bcf,,,,,,,,,,,,,,,,,,,,,,,a,1,0.849,"[""0.321"",""0.678"",""0.845"",""0.885""]","[1,0,1,1]",0,16,16,16,1,0,1,,,0,FALSE,,,,,,,,,,,,,,,,,,,,,,,,,,,,,,,
,5d67fe2073cd1d001a611229,627c6ed8180400602c21953b,2022-05-11_22h20.45.554,classification_task,2021.2.3,Win32,59.95203837,627c6715c52fd12f31907bcf,,,,,,,,,,,,,,,,,,,,,,,a,1,0.586,"[""0.321"",""0.445"",""0.845"",""0.653""]","[1,1,1,0]",0,17,17,17,1,0,1,,,0,FALSE,,,,,,,,,,,,,,,,,,,,,,,,,,,,,,,
,5d67fe2073cd1d001a611229,627c6ed8180400602c21953b,2022-05-11_22h20.45.554,classification_task,2021.2.3,Win32,59.95203837,627c6715c52fd12f31907bcf,,,,,,,,,,,,,,,,,,,,,,,a,1,1.882,"[""0.167"",""0.366"",""0.686"",""0.955""]","[1,1,0,1]",0,18,18,18,1,0,0,,,0,FALSE,,,,,,,,,,,,,,,,,,,,,,,,,,,,,,,
,5d67fe2073cd1d001a611229,627c6ed8180400602c21953b,2022-05-11_22h20.45.554,classification_task,2021.2.3,Win32,59.95203837,627c6715c52fd12f31907bcf,,,,,,,,,,,,,,,,,,,,,,,l,1,1.516,"[""0.060"",""0.241"",""0.543"",""0.658""]","[1,1,1,0]",0,19,19,19,1,1,1,,,0,FALSE,,,,,,,,,,,,,,,,,,,,,,,,,,,,,,,
,5d67fe2073cd1d001a611229,627c6ed8180400602c21953b,2022-05-11_22h20.45.554,classification_task,2021.2.3,Win32,59.95203837,627c6715c52fd12f31907bcf,,,,,,,,,,,,,,,,,,,,,,,l,1,1.76,"[""0.108"",""0.284"",""0.494"",""0.732""]","[1,0,1,1]",0,20,20,20,1,1,0,,,0,FALSE,,,,,,,,,,,,,,,,,,,,,,,,,,,,,,,
,5d67fe2073cd1d001a611229,627c6ed8180400602c21953b,2022-05-11_22h20.45.554,classification_task,2021.2.3,Win32,59.95203837,627c6715c52fd12f31907bcf,,,,,,,,,,,,,,,,,,,,,,,l,1,0.667,"[""0.108"",""0.410"",""0.663"",""0.732""]","[1,1,0,1]",0,21,21,21,1,1,0,,,0,FALSE,,,,,,,,,,,,,,,,,,,,,,,,,,,,,,,
,5d67fe2073cd1d001a611229,627c6ed8180400602c21953b,2022-05-11_22h20.45.554,classification_task,2021.2.3,Win32,59.95203837,627c6715c52fd12f31907bcf,,,,,,,,,,,,,,,,,,,,,,,a,1,1.335,"[""0.321"",""0.445"",""0.663"",""0.885""]","[1,1,0,1]",0,22,22,22,1,0,1,,,0,FALSE,,,,,,,,,,,,,,,,,,,,,,,,,,,,,,,
,5d67fe2073cd1d001a611229,627c6ed8180400602c21953b,2022-05-11_22h20.45.554,classification_task,2021.2.3,Win32,59.95203837,627c6715c52fd12f31907bcf,,,,,,,,,,,,,,,,,,,,,,,l,1,1.003,"[""0.060"",""0.241"",""0.689"",""0.783""]","[1,1,0,1]",0,23,23,23,1,1,1,,,0,FALSE,,,,,,,,,,,,,,,,,,,,,,,,,,,,,,,
,5d67fe2073cd1d001a611229,627c6ed8180400602c21953b,2022-05-11_22h20.45.554,classification_task,2021.2.3,Win32,59.95203837,627c6715c52fd12f31907bcf,,,,,,,,,,,,,,,,,,,,,,,a,1,1.835,"[""0.167"",""0.653"",""0.602"",""0.955""]","[1,0,1,1]",0,24,24,24,1,0,0,,,0,FALSE,,,,,,,,,,,,,,,,,,,,,,,,,,,,,,,
,5d67fe2073cd1d001a611229,627c6ed8180400602c21953b,2022-05-11_22h20.45.554,classification_task,2021.2.3,Win32,59.95203837,627c6715c52fd12f31907bcf,,,,,,,,,,,,,,,,,,,,,,,l,1,1.185,"[""0.060"",""0.673"",""0.543"",""0.783""]","[1,0,1,1]",0,25,25,25,1,1,1,,,0,FALSE,,,,,,,,,,,,,,,,,,,,,,,,,,,,,,,
,5d67fe2073cd1d001a611229,627c6ed8180400602c21953b,2022-05-11_22h20.45.554,classification_task,2021.2.3,Win32,59.95203837,627c6715c52fd12f31907bcf,,,,,,,,,,,,,,,,,,,,,,,a,1,2.22,"[""0.920"",""0.366"",""0.602"",""0.955""]","[0,1,1,1]",0,26,26,26,1,0,0,,,0,FALSE,,,,,,,,,,,,,,,,,,,,,,,,,,,,,,,
,5d67fe2073cd1d001a611229,627c6ed8180400602c21953b,2022-05-11_22h20.45.554,classification_task,2021.2.3,Win32,59.95203837,627c6715c52fd12f31907bcf,,,,,,,,,,,,,,,,,,,,,,,l,1,2.136,"[""0.285"",""0.410"",""0.494"",""0.732""]","[0,1,1,1]",0,27,27,27,1,1,0,,,0,FALSE,,,,,,,,,,,,,,,,,,,,,,,,,,,,,,,
,5d67fe2073cd1d001a611229,627c6ed8180400602c21953b,2022-05-11_22h20.45.554,classification_task,2021.2.3,Win32,59.95203837,627c6715c52fd12f31907bcf,,,,,,,,,,,,,,,,,,,,,,,l,1,1.385,"[""0.284"",""0.241"",""0.543"",""0.783""]","[0,1,1,1]",0,28,28,28,1,1,1,,,0,FALSE,,,,,,,,,,,,,,,,,,,,,,,,,,,,,,,
,5d67fe2073cd1d001a611229,627c6ed8180400602c21953b,2022-05-11_22h20.45.554,classification_task,2021.2.3,Win32,59.95203837,627c6715c52fd12f31907bcf,,,,,,,,,,,,,,,,,,,,,,,l,1,1.282,"[""0.108"",""0.410"",""0.494"",""0.686""]","[1,1,1,0]",0,29,29,29,1,1,0,,,0,FALSE,,,,,,,,,,,,,,,,,,,,,,,,,,,,,,,
,5d67fe2073cd1d001a611229,627c6ed8180400602c21953b,2022-05-11_22h20.45.554,classification_task,2021.2.3,Win32,59.95203837,627c6715c52fd12f31907bcf,,,,,,,,,,,,,,,,,,,,,,,a,1,1.365,"[""0.673"",""0.445"",""0.845"",""0.885""]","[0,1,1,1]",0,30,30,30,1,0,1,,,0,FALSE,,,,,,,,,,,,,,,,,,,,,,,,,,,,,,,
,5d67fe2073cd1d001a611229,627c6ed8180400602c21953b,2022-05-11_22h20.45.554,classification_task,2021.2.3,Win32,59.95203837,627c6715c52fd12f31907bcf,,,,,,,,,,,,,,,,,,,,,,,a,1,1.322,"[""0.167"",""0.366"",""0.602"",""0.673""]","[1,1,1,0]",0,31,31,31,1,0,0,,,0,FALSE,,,,,,,,,,,,,,,,,,,,,,,,,,,,,,,
,5d67fe2073cd1d001a611229,627c6ed8180400602c21953b,2022-05-11_22h20.45.554,classification_task,2021.2.3,Win32,59.95203837,627c6715c52fd12f31907bcf,,,,,,,,,,,,,,,,,,,,,,,l,1,1.322,"[""0.284"",""0.410"",""0.494"",""0.732""]","[0,1,1,1]",0,32,32,32,1,1,0,,,0,FALSE,,,,,,,,,,,,,,,,,,,,,,,,,,,,,,,
,5d67fe2073cd1d001a611229,627c6ed8180400602c21953b,2022-05-11_22h20.45.554,classification_task,2021.2.3,Win32,59.95203837,627c6715c52fd12f31907bcf,,,,,,,,,,,,,,,,,,,,,,,a,1,0.918,"[""0.167"",""0.366"",""0.602"",""0.689""]","[1,1,1,0]",0,33,33,33,1,0,0,,,0,FALSE,,,,,,,,,,,,,,,,,,,,,,,,,,,,,,,
,5d67fe2073cd1d001a611229,627c6ed8180400602c21953b,2022-05-11_22h20.45.554,classification_task,2021.2.3,Win32,59.95203837,627c6715c52fd12f31907bcf,,,,,,,,,,,,,,,,,,,,,,,a,1,1.414,"[""0.321"",""0.445"",""0.845"",""0.697""]","[1,1,1,0]",0,34,34,34,1,0,1,,,0,FALSE,,,,,,,,,,,,,,,,,,,,,,,,,,,,,,,
,5d67fe2073cd1d001a611229,627c6ed8180400602c21953b,2022-05-11_22h20.45.554,classification_task,2021.2.3,Win32,59.95203837,627c6715c52fd12f31907bcf,,,,,,,,,,,,,,,,,,,,,,,l,0,1.002,"[""0.167"",""0.366"",""0.697"",""0.955""]","[1,1,0,1]",0,35,35,35,1,0,0,,,0,FALSE,,,,,,,,,,,,,,,,,,,,,,,,,,,,,,,
,5d67fe2073cd1d001a611229,627c6ed8180400602c21953b,2022-05-11_22h20.45.554,classification_task,2021.2.3,Win32,59.95203837,627c6715c52fd12f31907bcf,,,,,,,,,,,,,,,,,,,,,,,a,1,1.236,"[""0.321"",""0.445"",""0.920"",""0.885""]","[1,1,0,1]",0,36,36,36,1,0,1,,,0,FALSE,,,,,,,,,,,,,,,,,,,,,,,,,,,,,,,
,5d67fe2073cd1d001a611229,627c6ed8180400602c21953b,2022-05-11_22h20.45.554,classification_task,2021.2.3,Win32,59.95203837,627c6715c52fd12f31907bcf,,,,,,,,,,,,,,,,,,,,,,,l,1,1.067,"[""0.108"",""0.410"",""0.658"",""0.732""]","[1,1,0,1]",0,37,37,37,1,1,0,,,0,FALSE,,,,,,,,,,,,,,,,,,,,,,,,,,,,,,,
,5d67fe2073cd1d001a611229,627c6ed8180400602c21953b,2022-05-11_22h20.45.554,classification_task,2021.2.3,Win32,59.95203837,627c6715c52fd12f31907bcf,,,,,,,,,,,,,,,,,,,,,,,a,1,1.041,"[""0.321"",""0.678"",""0.845"",""0.885""]","[1,0,1,1]",0,38,38,38,1,0,1,,,0,FALSE,,,,,,,,,,,,,,,,,,,,,,,,,,,,,,,
,5d67fe2073cd1d001a611229,627c6ed8180400602c21953b,2022-05-11_22h20.45.554,classification_task,2021.2.3,Win32,59.95203837,627c6715c52fd12f31907bcf,,,,,,,,,,,,,,,,,,,,,,,a,1,0.685,"[""0.688"",""0.445"",""0.845"",""0.885""]","[0,1,1,1]",0,39,39,39,1,0,1,,,0,FALSE,,,,,,,,,,,,,,,,,,,,,,,,,,,,,,,
,5d67fe2073cd1d001a611229,627c6ed8180400602c21953b,2022-05-11_22h20.45.554,classification_task,2021.2.3,Win32,59.95203837,627c6715c52fd12f31907bcf,,,,,,,,,,,,,,,,,,,,,,,l,1,0.935,"[""0.060"",""0.697"",""0.543"",""0.783""]","[1,0,1,1]",0,40,40,40,1,1,1,,,0,FALSE,,,,,,,,,,,,,,,,,,,,,,,,,,,,,,,
,5d67fe2073cd1d001a611229,627c6ed8180400602c21953b,2022-05-11_22h20.45.554,classification_task,2021.2.3,Win32,59.95203837,627c6715c52fd12f31907bcf,,,,,,,,,,,,,,,,,,,,,,,l,1,1.438,"[""0.108"",""0.688"",""0.494"",""0.732""]","[1,0,1,1]",0,41,41,41,1,1,0,,,0,FALSE,,,,,,,,,,,,,,,,,,,,,,,,,,,,,,,
,5d67fe2073cd1d001a611229,627c6ed8180400602c21953b,2022-05-11_22h20.45.554,classification_task,2021.2.3,Win32,59.95203837,627c6715c52fd12f31907bcf,,,,,,,,,,,,,,,,,,,,,,,a,1,1.322,"[""0.691"",""0.366"",""0.602"",""0.955""]","[0,1,1,1]",0,42,42,42,1,0,0,,,0,FALSE,,,,,,,,,,,,,,,,,,,,,,,,,,,,,,,
,5d67fe2073cd1d001a611229,627c6ed8180400602c21953b,2022-05-11_22h20.45.554,classification_task,2021.2.3,Win32,59.95203837,627c6715c52fd12f31907bcf,,,,,,,,,,,,,,,,,,,,,,,l,1,1.965,"[""0.653"",""0.241"",""0.543"",""0.783""]","[0,1,1,1]",0,43,43,43,1,1,1,,,0,FALSE,,,,,,,,,,,,,,,,,,,,,,,,,,,,,,,
,5d67fe2073cd1d001a611229,627c6ed8180400602c21953b,2022-05-11_22h20.45.554,classification_task,2021.2.3,Win32,59.95203837,627c6715c52fd12f31907bcf,,,,,,,,,,,,,,,,,,,,,,,a,1,1.139,"[""0.167"",""0.649"",""0.602"",""0.955""]","[1,0,1,1]",0,44,44,44,1,0,0,,,0,FALSE,,,,,,,,,,,,,,,,,,,,,,,,,,,,,,,
,5d67fe2073cd1d001a611229,627c6ed8180400602c21953b,2022-05-11_22h20.45.554,classification_task,2021.2.3,Win32,59.95203837,627c6715c52fd12f31907bcf,,,,,,,,,,,,,,,,,,,,,,,l,1,1.056,"[""0.108"",""0.410"",""0.494"",""0.688""]","[1,1,1,0]",0,45,45,45,1,1,0,,,0,FALSE,,,,,,,,,,,,,,,,,,,,,,,,,,,,,,,
,5d67fe2073cd1d001a611229,627c6ed8180400602c21953b,2022-05-11_22h20.45.554,classification_task,2021.2.3,Win32,59.95203837,627c6715c52fd12f31907bcf,,,,,,,,,,,,,,,,,,,,,,,l,1,1.252,"[""0.060"",""0.241"",""0.920"",""0.783""]","[1,1,0,1]",0,46,46,46,1,1,1,,,0,FALSE,,,,,,,,,,,,,,,,,,,,,,,,,,,,,,,
,5d67fe2073cd1d001a611229,627c6ed8180400602c21953b,2022-05-11_22h20.45.554,classification_task,2021.2.3,Win32,59.95203837,627c6715c52fd12f31907bcf,,,,,,,,,,,,,,,,,,,,,,,l,1,0.879,"[""0.060"",""0.241"",""0.543"",""0.285""]","[1,1,1,0]",0,47,47,47,1,1,1,,,0,FALSE,,,,,,,,,,,,,,,,,,,,,,,,,,,,,,,
,5d67fe2073cd1d001a611229,627c6ed8180400602c21953b,2022-05-11_22h20.45.554,classification_task,2021.2.3,Win32,59.95203837,627c6715c52fd12f31907bcf,,,,,,,,,,,,,,,,,,,,,,,l,1,0.89,"[""0.060"",""0.241"",""0.920"",""0.783""]","[1,1,0,1]",0,48,48,48,1,1,1,,,0,FALSE,,,,,,,,,,,,,,,,,,,,,,,,,,,,,,,
,5d67fe2073cd1d001a611229,627c6ed8180400602c21953b,2022-05-11_22h20.45.554,classification_task,2021.2.3,Win32,59.95203837,627c6715c52fd12f31907bcf,,,,,,,,,,,,,,,,,,,,,,,l,1,1.416,"[""0.108"",""0.410"",""0.689"",""0.732""]","[1,1,0,1]",0,49,49,49,1,1,0,,,0,FALSE,,,,,,,,,,,,,,,,,,,,,,,,,,,,,,,
,5d67fe2073cd1d001a611229,627c6ed8180400602c21953b,2022-05-11_22h20.45.554,classification_task,2021.2.3,Win32,59.95203837,627c6715c52fd12f31907bcf,,,,,,,,,,,,,,,,,,,,,,,a,1,1.287,"[""0.673"",""0.445"",""0.845"",""0.885""]","[0,1,1,1]",0,50,50,50,1,0,1,,,0,FALSE,,,,,,,,,,,,,,,,,,,,,,,,,,,,,,,
,5d67fe2073cd1d001a611229,627c6ed8180400602c21953b,2022-05-11_22h20.45.554,classification_task,2021.2.3,Win32,59.95203837,627c6715c52fd12f31907bcf,,,,,,,,,,,,,,,,,,,,,,,l,1,1.204,"[""0.060"",""0.241"",""0.543"",""0.649""]","[1,1,1,0]",0,51,51,51,1,1,1,,,0,FALSE,,,,,,,,,,,,,,,,,,,,,,,,,,,,,,,
,5d67fe2073cd1d001a611229,627c6ed8180400602c21953b,2022-05-11_22h20.45.554,classification_task,2021.2.3,Win32,59.95203837,627c6715c52fd12f31907bcf,,,,,,,,,,,,,,,,,,,,,,,a,1,1.589,"[""0.321"",""0.445"",""0.845"",""0.686""]","[1,1,1,0]",0,52,52,52,1,0,1,,,0,FALSE,,,,,,,,,,,,,,,,,,,,,,,,,,,,,,,
,5d67fe2073cd1d001a611229,627c6ed8180400602c21953b,2022-05-11_22h20.45.554,classification_task,2021.2.3,Win32,59.95203837,627c6715c52fd12f31907bcf,,,,,,,,,,,,,,,,,,,,,,,a,0,1.839,"[""0.691"",""0.410"",""0.494"",""0.732""]","[0,1,1,1]",0,53,53,53,1,1,0,,,0,FALSE,,,,,,,,,,,,,,,,,,,,,,,,,,,,,,,
,5d67fe2073cd1d001a611229,627c6ed8180400602c21953b,2022-05-11_22h20.45.554,classification_task,2021.2.3,Win32,59.95203837,627c6715c52fd12f31907bcf,,,,,,,,,,,,,,,,,,,,,,,l,1,1.748,"[""0.060"",""0.673"",""0.543"",""0.783""]","[1,0,1,1]",0,54,54,54,1,1,1,,,0,FALSE,,,,,,,,,,,,,,,,,,,,,,,,,,,,,,,
,5d67fe2073cd1d001a611229,627c6ed8180400602c21953b,2022-05-11_22h20.45.554,classification_task,2021.2.3,Win32,59.95203837,627c6715c52fd12f31907bcf,,,,,,,,,,,,,,,,,,,,,,,l,1,1.202,"[""0.108"",""0.410"",""0.494"",""0.284""]","[1,1,1,0]",0,55,55,55,1,1,0,,,0,FALSE,,,,,,,,,,,,,,,,,,,,,,,,,,,,,,,
,5d67fe2073cd1d001a611229,627c6ed8180400602c21953b,2022-05-11_22h20.45.554,classification_task,2021.2.3,Win32,59.95203837,627c6715c52fd12f31907bcf,,,,,,,,,,,,,,,,,,,,,,,a,1,1.245,"[""0.321"",""0.445"",""0.678"",""0.885""]","[1,1,0,1]",0,56,56,56,1,0,1,,,0,FALSE,,,,,,,,,,,,,,,,,,,,,,,,,,,,,,,
,5d67fe2073cd1d001a611229,627c6ed8180400602c21953b,2022-05-11_22h20.45.554,classification_task,2021.2.3,Win32,59.95203837,627c6715c52fd12f31907bcf,,,,,,,,,,,,,,,,,,,,,,,a,0,1.782,"[""0.675"",""0.241"",""0.543"",""0.783""]","[0,1,1,1]",0,57,57,57,1,1,1,,,0,FALSE,,,,,,,,,,,,,,,,,,,,,,,,,,,,,,,
,5d67fe2073cd1d001a611229,627c6ed8180400602c21953b,2022-05-11_22h20.45.554,classification_task,2021.2.3,Win32,59.95203837,627c6715c52fd12f31907bcf,,,,,,,,,,,,,,,,,,,,,,,a,0,1.264,"[""0.108"",""0.658"",""0.494"",""0.732""]","[1,0,1,1]",0,58,58,58,1,1,0,,,0,FALSE,,,,,,,,,,,,,,,,,,,,,,,,,,,,,,,
,5d67fe2073cd1d001a611229,627c6ed8180400602c21953b,2022-05-11_22h20.45.554,classification_task,2021.2.3,Win32,59.95203837,627c6715c52fd12f31907bcf,,,,,,,,,,,,,,,,,,,,,,,a,1,1.499,"[""0.673"",""0.366"",""0.602"",""0.955""]","[0,1,1,1]",0,59,59,59,1,0,0,,,0,FALSE,,,,,,,,,,,,,,,,,,,,,,,,,,,,,,,
,5d67fe2073cd1d001a611229,627c6ed8180400602c21953b,2022-05-11_22h20.45.554,classification_task,2021.2.3,Win32,59.95203837,627c6715c52fd12f31907bcf,,,,,,,,,,,,,,,,,,,,,,,a,1,1.271,"[""0.167"",""0.366"",""0.602"",""0.285""]","[1,1,1,0]",0,60,60,60,1,0,0,,,0,FALSE,,,,,,,,,,,,,,,,,,,,,,,,,,,,,,,
,5d67fe2073cd1d001a611229,627c6ed8180400602c21953b,2022-05-11_22h20.45.554,classification_task,2021.2.3,Win32,59.95203837,627c6715c52fd12f31907bcf,,,,,,,,,,,,,,,,,,,,,,,a,1,1.184,"[""0.321"",""0.691"",""0.845"",""0.885""]","[1,0,1,1]",0,61,61,61,1,0,1,,,0,FALSE,,,,,,,,,,,,,,,,,,,,,,,,,,,,,,,
,5d67fe2073cd1d001a611229,627c6ed8180400602c21953b,2022-05-11_22h20.45.554,classification_task,2021.2.3,Win32,59.95203837,627c6715c52fd12f31907bcf,,,,,,,,,,,,,,,,,,,,,,,a,1,1.434,"[""0.167"",""0.653"",""0.602"",""0.955""]","[1,0,1,1]",0,62,62,62,1,0,0,,,0,FALSE,,,,,,,,,,,,,,,,,,,,,,,,,,,,,,,
,5d67fe2073cd1d001a611229,627c6ed8180400602c21953b,2022-05-11_22h20.45.554,classification_task,2021.2.3,Win32,59.95203837,627c6715c52fd12f31907bcf,,,,,,,,,,,,,,,,,,,,,,,a,1,0.701,"[""0.167"",""0.366"",""0.920"",""0.955""]","[1,1,0,1]",0,63,63,63,1,0,0,,,0,FALSE,,,,,,,,,,,,,,,,,,,,,,,,,,,,,,,
,5d67fe2073cd1d001a611229,627c6ed8180400602c21953b,2022-05-11_22h20.45.554,classification_task,2021.2.3,Win32,59.95203837,627c6715c52fd12f31907bcf,,,,,,,,,,,,,,,,,,,,,,,,,,,,,,,,,,,,,,,0, ,,0,0,166.007,0,2,2,2,1,2,3,,,,,,,,,,,,,,,,,,
,5d67fe2073cd1d001a611229,627c6ed8180400602c21953b,2022-05-11_22h20.45.554,classification_task,2021.2.3,Win32,59.95203837,627c6715c52fd12f31907bcf,,,,,,,,,,,,,,,,,,,,,,,,,,,,,,,,,,,,,,,1,  ,,0,5.563394082,169.356,0,2,2,2,1,2,3,,,,,,,,,,,,,,,,,,
,5d67fe2073cd1d001a611229,627c6ed8180400602c21953b,2022-05-11_22h20.45.554,classification_task,2021.2.3,Win32,59.95203837,627c6715c52fd12f31907bcf,,,,,,,,,,,,,,,,,,,,,,,,,,,,,,,,,,,,,,,2,  ,,0,0.615324319,171.479,0,2,2,2,1,2,3,,,,,,,,,,,,,,,,,,
,5d67fe2073cd1d001a611229,627c6ed8180400602c21953b,2022-05-11_22h20.45.554,classification_task,2021.2.3,Win32,59.95203837,627c6715c52fd12f31907bcf,,,,,,,,,,,,,,,,,,,,,,,,,,,,,,,,,,,,,,,,,,,,,0,2,2,2,1,,3,,,,,,,,,,,,,,,,,,
,5d67fe2073cd1d001a611229,627c6ed8180400602c21953b,2022-05-11_22h20.45.554,classification_task,2021.2.3,Win32,59.95203837,627c6715c52fd12f31907bcf,,,,,,,,,,,,,,,,,,,,,,,,,,,,,,,,,,,,,,,,,,,,,,,,,,,,,I believe the aid is a competent performer,,0.7,0,5,768.083,0,0,0,0,1,0,,,,,
,5d67fe2073cd1d001a611229,627c6ed8180400602c21953b,2022-05-11_22h20.45.554,classification_task,2021.2.3,Win32,59.95203837,627c6715c52fd12f31907bcf,,,,,,,,,,,,,,,,,,,,,,,,,,,,,,,,,,,,,,,,,,,,,,,,,,,,,I trust the aid,,0.7,0,5,769.221,0,0,0,0,1,0,,,,,
,5d67fe2073cd1d001a611229,627c6ed8180400602c21953b,2022-05-11_22h20.45.554,classification_task,2021.2.3,Win32,59.95203837,627c6715c52fd12f31907bcf,,,,,,,,,,,,,,,,,,,,,,,,,,,,,,,,,,,,,,,,,,,,,,,,,,,,,I have confidence in the advice given by the aid,,0.7,0,5,770.981,0,0,0,0,1,0,,,,,
,5d67fe2073cd1d001a611229,627c6ed8180400602c21953b,2022-05-11_22h20.45.554,classification_task,2021.2.3,Win32,59.95203837,627c6715c52fd12f31907bcf,,,,,,,,,,,,,,,,,,,,,,,,,,,,,,,,,,,,,,,,,,,,,,,,,,,,,I can depend on the aid,,0.7,0,5,772.604,0,0,0,0,1,0,,,,,
,5d67fe2073cd1d001a611229,627c6ed8180400602c21953b,2022-05-11_22h20.45.554,classification_task,2021.2.3,Win32,59.95203837,627c6715c52fd12f31907bcf,,,,,,,,,,,,,,,,,,,,,,,,,,,,,,,,,,,,,,,,,,,,,,,,,,,,,I can rely on the aid to behave in consistent ways,,0.7,0,5,774.595,0,0,0,0,1,0,,,,,
,5d67fe2073cd1d001a611229,627c6ed8180400602c21953b,2022-05-11_22h20.45.554,classification_task,2021.2.3,Win32,59.95203837,627c6715c52fd12f31907bcf,,,,,,,,,,,,,,,,,,,,,,,,,,,,,,,,,,,,,,,,,,,,,,,,,,,,,I can rely on the aid to do its best every time I take its advice,,0.7,0,5,778.211,0,0,0,0,1,0,,,,,
,5d67fe2073cd1d001a611229,627c6ed8180400602c21953b,2022-05-11_22h20.45.554,classification_task,2021.2.3,Win32,59.95203837,627c6715c52fd12f31907bcf,,,,,,,,,,,,,,,,,,,,,,,,,,,,,,,,,,,,,,,,,,,,,,,,,,,,,"On trials you completed with assistance from the aid, how frequently did you think the aid was correct?",,0.7,0,100%,,0,0,0,0,1,0,,,,,
,5d67fe2073cd1d001a611229,627c6ed8180400602c21953b,2022-05-11_22h20.45.554,classification_task,2021.2.3,Win32,59.95203837,627c6715c52fd12f31907bcf,,,,,,,,,,,,,,,,,,,,,,,,,,,,,,,,,,,,,,,,,,,,,,,,,,,,,"On trials you completed without the aid, how frequently did you think you were correct?",,0.7,0,30%,,0,0,0,0,1,0,,,,,
,5d67fe2073cd1d001a611229,627c6ed8180400602c21953b,2022-05-11_22h20.45.554,classification_task,2021.2.3,Win32,59.95203837,627c6715c52fd12f31907bcf,,,,,,,,,,,,,,,,,,,,,,,,,,,,,,,,,,,,,,,,,,,,,,,,,,,,,,,,,,,0,0,0,0,1,,,,,,
,5d67fe2073cd1d001a611229,627c6ed8180400602c21953b,2022-05-11_22h20.45.554,classification_task,2021.2.3,Win32,59.95203837,627c6715c52fd12f31907bcf,,,,,,,,,,,,,,,,,,,,,,,,,,,,,,,,,,,,,,,,,,,,,,,,,,,,,,,,,,,,,,,,,space,12.162,809.868,,
,5d67fe2073cd1d001a611229,627c6ed8180400602c21953b,2022-05-11_22h20.45.554,classification_task,2021.2.3,Win32,59.95203837,627c6715c52fd12f31907bcf,,,,,,,,,,,,,,,,,,,,,,,,,,,,,,,,,,,,,,,,,,,,,,,,,,,,,,,,,,,,,,,,,,,,Mozilla/5.0 (Windows NT 10.0; Win64; x64; rv:100.0) Gecko/20100101 Firefox/100.0,
,5d67fe2073cd1d001a611229,627c6ed8180400602c21953b,2022-05-11_22h20.45.554,classification_task,2021.2.3,Win32,59.95203837,627c6715c52fd12f31907bcf,,,,,,,,,,,,,,,,,,,,,,,,,,,,,,,,,,,,,,,,,,,,,,,,,,,,,,,,,,,,,,,,,,,,,FADING
