usingWebGL,participant,session,date,expName,psychopyVersion,OS,frameRate,study_id,signatures_friend,signatures_foe,band_ranges_top,band_ranges_bottom,formitemText,formtype,formundefined,formitemWidth,formindex,formresponse,formrt,key_resp_2.keys,key_resp_2.rt,tute_resp.keys,tute_resp.rt,tutorial.thisRepN,tutorial.thisTrialN,tutorial.thisN,tutorial.thisIndex,tutorial.ran,key_resp_4.keys,key_resp_4.rt,key_resp.keys,key_resp.corr,key_resp.rt,lines_presented,is_signal_presented,trials.thisRepN,trials.thisTrialN,trials.thisN,trials.thisIndex,trials.ran,vessel,active_band,lines,is_signal,supported_pos,catch_trial,debrief_formindex,debrief_formitemText,debrief_formtype,debrief_formitemWidth,debrief_formresponse,debrief_formrt,phases.thisRepN,phases.thisTrialN,phases.thisN,phases.thisIndex,phases.ran,phases.order,phase,key_resp_3.keys,trustitemText,trusttype,trustitemWidth,trustindex,trustresponse,trustrt,support_status.thisRepN,support_status.thisTrialN,support_status.thisN,support_status.thisIndex,support_status.ran,support_status.order,key_resp_5.keys,key_resp_5.rt,globalClockTime,userAgent,manualCondition
TRUE,5d6d82acab68f90001f53194,627c6fdb9bfc50338e6155d0,2022-05-12_03h34.05.179,classification_task,2021.2.3,Win32,59.98080614,627c6715c52fd12f31907bcf,,,,,,,,,,,,,,,,,,,,,,,,,,,,,,,,,,,,,,,,,,,,,,,,,,,,,,,,,,,,,,,,,,,,,
,5d6d82acab68f90001f53194,627c6fdb9bfc50338e6155d0,2022-05-12_03h34.05.179,classification_task,2021.2.3,Win32,59.98080614,627c6715c52fd12f31907bcf,"[[""0.212"",""0.338"",""0.910"",""0.952""],[""0.172"",""0.459"",""0.719"",""0.868""]]","[[""0.092"",""0.417"",""0.571"",""0.681""],[""0.038"",""0.377"",""0.501"",""0.809""]]","[1,10]","[100,1000]",Video game experience,,,0.7,0,,,,,,,,,,,,,,,,,,,,,,,,,,,,,,,,,,,,,,,,,,,,,,,,,,,,,,,,,,,,
,5d6d82acab68f90001f53194,627c6fdb9bfc50338e6155d0,2022-05-12_03h34.05.179,classification_task,2021.2.3,Win32,59.98080614,627c6715c52fd12f31907bcf,,,,,Approximately how many hours did you spend playing video games in the last week?,,,0.7,0,24,,,,,,,,,,,,,,,,,,,,,,,,,,,,,,,,,,,,,,,,,,,,,,,,,,,,,,,,,,,
,5d6d82acab68f90001f53194,627c6fdb9bfc50338e6155d0,2022-05-12_03h34.05.179,classification_task,2021.2.3,Win32,59.98080614,627c6715c52fd12f31907bcf,,,,,"Which game did you play the most this year? (Enter ""None"" if you didn't play any)",,,0.7,0,Rocket League,,,,,,,,,,,,,,,,,,,,,,,,,,,,,,,,,,,,,,,,,,,,,,,,,,,,,,,,,,,
,5d6d82acab68f90001f53194,627c6fdb9bfc50338e6155d0,2022-05-12_03h34.05.179,classification_task,2021.2.3,Win32,59.98080614,627c6715c52fd12f31907bcf,,,,,Visual perception,,,0.7,0,,,,,,,,,,,,,,,,,,,,,,,,,,,,,,,,,,,,,,,,,,,,,,,,,,,,,,,,,,,,
,5d6d82acab68f90001f53194,627c6fdb9bfc50338e6155d0,2022-05-12_03h34.05.179,classification_task,2021.2.3,Win32,59.98080614,627c6715c52fd12f31907bcf,,,,,Do you have any form of color blindness?,,,0.7,0,No,24.9401,,,,,,,,,,,,,,,,,,,,,,,,,,,,,,,,,,,,,,,,,,,,,,,,,,,,,,,,,,
,5d6d82acab68f90001f53194,627c6fdb9bfc50338e6155d0,2022-05-12_03h34.05.179,classification_task,2021.2.3,Win32,59.98080614,627c6715c52fd12f31907bcf,,,,,Do you use software to change the colour temperature of your screen (e.g. f.lux)?,,,0.7,0,No,27.8937,,,,,,,,,,,,,,,,,,,,,,,,,,,,,,,,,,,,,,,,,,,,,,,,,,,,,,,,,,
,5d6d82acab68f90001f53194,627c6fdb9bfc50338e6155d0,2022-05-12_03h34.05.179,classification_task,2021.2.3,Win32,59.98080614,627c6715c52fd12f31907bcf,,,,,,,,,,,,space,40.1274,space,7.85,0,0,0,0,1,,,,,,,,,,,,,,,,,,,,,,,,,,,,,,,,,,,,,,,,,,,,,,,,,
,5d6d82acab68f90001f53194,627c6fdb9bfc50338e6155d0,2022-05-12_03h34.05.179,classification_task,2021.2.3,Win32,59.98080614,627c6715c52fd12f31907bcf,,,,,,,,,,,,,,space,7.7834,1,0,1,0,1,,,,,,,,,,,,,,,,,,,,,,,,,,,,,,,,,,,,,,,,,,,,,,,,,
,5d6d82acab68f90001f53194,627c6fdb9bfc50338e6155d0,2022-05-12_03h34.05.179,classification_task,2021.2.3,Win32,59.98080614,627c6715c52fd12f31907bcf,,,,,,,,,,,,,,space,29.9908,2,0,2,0,1,,,,,,,,,,,,,,,,,,,,,,,,,,,,,,,,,,,,,,,,,,,,,,,,,
,5d6d82acab68f90001f53194,627c6fdb9bfc50338e6155d0,2022-05-12_03h34.05.179,classification_task,2021.2.3,Win32,59.98080614,627c6715c52fd12f31907bcf,,,,,,,,,,,,,,space,9.3446,3,0,3,0,1,,,,,,,,,,,,,,,,,,,,,,,,,,,,,,,,,,,,,,,,,,,,,,,,,
,5d6d82acab68f90001f53194,627c6fdb9bfc50338e6155d0,2022-05-12_03h34.05.179,classification_task,2021.2.3,Win32,59.98080614,627c6715c52fd12f31907bcf,,,,,,,,,,,,,,space,9.1888,4,0,4,0,1,,,,,,,,,,,,,,,,,,,,,,,,,,,,,,,,,,,,,,,,,,,,,,,,,
,5d6d82acab68f90001f53194,627c6fdb9bfc50338e6155d0,2022-05-12_03h34.05.179,classification_task,2021.2.3,Win32,59.98080614,627c6715c52fd12f31907bcf,,,,,,,,,,,,,,,,,,,,,space,20.9112,l,1,2.5815,"[""0.092"",""0.417"",""0.766"",""0.681""]","[1,1,0,1]",0,0,0,0,1,1,0,,,1,FALSE,,,,,,,,,,,,,,,,,,,,,,,,,,,,,,,
,5d6d82acab68f90001f53194,627c6fdb9bfc50338e6155d0,2022-05-12_03h34.05.179,classification_task,2021.2.3,Win32,59.98080614,627c6715c52fd12f31907bcf,,,,,,,,,,,,,,,,,,,,,,,a,1,2.8688,"[""0.172"",""0.766"",""0.719"",""0.868""]","[1,0,1,1]",0,1,1,1,1,0,1,,,1,FALSE,,,,,,,,,,,,,,,,,,,,,,,,,,,,,,,
,5d6d82acab68f90001f53194,627c6fdb9bfc50338e6155d0,2022-05-12_03h34.05.179,classification_task,2021.2.3,Win32,59.98080614,627c6715c52fd12f31907bcf,,,,,,,,,,,,,,,,,,,,,,,a,1,2.0238,"[""0.172"",""0.459"",""0.257"",""0.868""]","[1,1,0,1]",0,2,2,2,1,0,1,,,1,FALSE,,,,,,,,,,,,,,,,,,,,,,,,,,,,,,,
,5d6d82acab68f90001f53194,627c6fdb9bfc50338e6155d0,2022-05-12_03h34.05.179,classification_task,2021.2.3,Win32,59.98080614,627c6715c52fd12f31907bcf,,,,,,,,,,,,,,,,,,,,,,,l,1,2.2291,"[""0.279"",""0.417"",""0.571"",""0.681""]","[0,1,1,1]",0,3,3,3,1,1,0,,,1,FALSE,,,,,,,,,,,,,,,,,,,,,,,,,,,,,,,
,5d6d82acab68f90001f53194,627c6fdb9bfc50338e6155d0,2022-05-12_03h34.05.179,classification_task,2021.2.3,Win32,59.98080614,627c6715c52fd12f31907bcf,,,,,,,,,,,,,,,,,,,,,,,l,1,2.8017,"[""0.092"",""0.129"",""0.571"",""0.681""]","[1,0,1,1]",0,4,4,4,1,1,0,,,1,FALSE,,,,,,,,,,,,,,,,,,,,,,,,,,,,,,,
,5d6d82acab68f90001f53194,627c6fdb9bfc50338e6155d0,2022-05-12_03h34.05.179,classification_task,2021.2.3,Win32,59.98080614,627c6715c52fd12f31907bcf,,,,,,,,,,,,,,,,,,,,,,,l,1,2.1314,"[""0.092"",""0.417"",""0.571"",""0.296""]","[1,1,1,0]",0,5,5,5,1,1,0,,,1,FALSE,,,,,,,,,,,,,,,,,,,,,,,,,,,,,,,
,5d6d82acab68f90001f53194,627c6fdb9bfc50338e6155d0,2022-05-12_03h34.05.179,classification_task,2021.2.3,Win32,59.98080614,627c6715c52fd12f31907bcf,,,,,,,,,,,,,,,,,,,,,,,a,1,2.3974,"[""0.212"",""0.338"",""0.910"",""0.286""]","[1,1,1,0]",0,6,6,6,1,0,0,,,1,FALSE,,,,,,,,,,,,,,,,,,,,,,,,,,,,,,,
,5d6d82acab68f90001f53194,627c6fdb9bfc50338e6155d0,2022-05-12_03h34.05.179,classification_task,2021.2.3,Win32,59.98080614,627c6715c52fd12f31907bcf,,,,,,,,,,,,,,,,,,,,,,,l,1,1.9943,"[""0.038"",""0.253"",""0.501"",""0.809""]","[1,0,1,1]",0,7,7,7,1,1,1,,,1,FALSE,,,,,,,,,,,,,,,,,,,,,,,,,,,,,,,
,5d6d82acab68f90001f53194,627c6fdb9bfc50338e6155d0,2022-05-12_03h34.05.179,classification_task,2021.2.3,Win32,59.98080614,627c6715c52fd12f31907bcf,,,,,,,,,,,,,,,,,,,,,,,a,1,4.1187,"[""0.773"",""0.338"",""0.910"",""0.952""]","[0,1,1,1]",0,8,8,8,1,0,0,,,1,FALSE,,,,,,,,,,,,,,,,,,,,,,,,,,,,,,,
,5d6d82acab68f90001f53194,627c6fdb9bfc50338e6155d0,2022-05-12_03h34.05.179,classification_task,2021.2.3,Win32,59.98080614,627c6715c52fd12f31907bcf,,,,,,,,,,,,,,,,,,,,,,,l,1,3.1722,"[""0.038"",""0.377"",""0.501"",""0.253""]","[1,1,1,0]",0,9,9,9,1,1,1,,,1,FALSE,,,,,,,,,,,,,,,,,,,,,,,,,,,,,,,
,5d6d82acab68f90001f53194,627c6fdb9bfc50338e6155d0,2022-05-12_03h34.05.179,classification_task,2021.2.3,Win32,59.98080614,627c6715c52fd12f31907bcf,,,,,,,,,,,,,,,,,,,,,,,a,1,4.5506,"[""0.773"",""0.459"",""0.719"",""0.868""]","[0,1,1,1]",0,10,10,10,1,0,1,,,1,FALSE,,,,,,,,,,,,,,,,,,,,,,,,,,,,,,,
,5d6d82acab68f90001f53194,627c6fdb9bfc50338e6155d0,2022-05-12_03h34.05.179,classification_task,2021.2.3,Win32,59.98080614,627c6715c52fd12f31907bcf,,,,,,,,,,,,,,,,,,,,,,,a,1,2.4721,"[""0.172"",""0.459"",""0.719"",""0.766""]","[1,1,1,0]",0,11,11,11,1,0,1,,,1,FALSE,,,,,,,,,,,,,,,,,,,,,,,,,,,,,,,
,5d6d82acab68f90001f53194,627c6fdb9bfc50338e6155d0,2022-05-12_03h34.05.179,classification_task,2021.2.3,Win32,59.98080614,627c6715c52fd12f31907bcf,,,,,,,,,,,,,,,,,,,,,,,l,1,1.8343,"[""0.038"",""0.377"",""0.262"",""0.809""]","[1,1,0,1]",0,12,12,12,1,1,1,,,1,FALSE,,,,,,,,,,,,,,,,,,,,,,,,,,,,,,,
,5d6d82acab68f90001f53194,627c6fdb9bfc50338e6155d0,2022-05-12_03h34.05.179,classification_task,2021.2.3,Win32,59.98080614,627c6715c52fd12f31907bcf,,,,,,,,,,,,,,,,,,,,,,,a,1,2.2261,"[""0.212"",""0.770"",""0.910"",""0.952""]","[1,0,1,1]",0,13,13,13,1,0,0,,,1,FALSE,,,,,,,,,,,,,,,,,,,,,,,,,,,,,,,
,5d6d82acab68f90001f53194,627c6fdb9bfc50338e6155d0,2022-05-12_03h34.05.179,classification_task,2021.2.3,Win32,59.98080614,627c6715c52fd12f31907bcf,,,,,,,,,,,,,,,,,,,,,,,a,1,2.1577,"[""0.212"",""0.338"",""0.619"",""0.952""]","[1,1,0,1]",0,14,14,14,1,0,0,,,1,FALSE,,,,,,,,,,,,,,,,,,,,,,,,,,,,,,,
,5d6d82acab68f90001f53194,627c6fdb9bfc50338e6155d0,2022-05-12_03h34.05.179,classification_task,2021.2.3,Win32,59.98080614,627c6715c52fd12f31907bcf,,,,,,,,,,,,,,,,,,,,,,,l,1,2.5608,"[""0.619"",""0.377"",""0.501"",""0.809""]","[0,1,1,1]",0,15,15,15,1,1,1,,,1,FALSE,,,,,,,,,,,,,,,,,,,,,,,,,,,,,,,
,5d6d82acab68f90001f53194,627c6fdb9bfc50338e6155d0,2022-05-12_03h34.05.179,classification_task,2021.2.3,Win32,59.98080614,627c6715c52fd12f31907bcf,,,,,,,,,,,,,,,,,,,,,,,a,1,2.4184,"[""0.605"",""0.459"",""0.719"",""0.868""]","[0,1,1,1]",0,16,16,16,1,0,1,,,1,FALSE,,,,,,,,,,,,,,,,,,,,,,,,,,,,,,,
,5d6d82acab68f90001f53194,627c6fdb9bfc50338e6155d0,2022-05-12_03h34.05.179,classification_task,2021.2.3,Win32,59.98080614,627c6715c52fd12f31907bcf,,,,,,,,,,,,,,,,,,,,,,,l,1,2.1575,"[""0.038"",""0.605"",""0.501"",""0.809""]","[1,0,1,1]",0,17,17,17,1,1,1,,,1,FALSE,,,,,,,,,,,,,,,,,,,,,,,,,,,,,,,
,5d6d82acab68f90001f53194,627c6fdb9bfc50338e6155d0,2022-05-12_03h34.05.179,classification_task,2021.2.3,Win32,59.98080614,627c6715c52fd12f31907bcf,,,,,,,,,,,,,,,,,,,,,,,a,1,2.0458,"[""0.172"",""0.296"",""0.719"",""0.868""]","[1,0,1,1]",0,18,18,18,1,0,1,,,1,FALSE,,,,,,,,,,,,,,,,,,,,,,,,,,,,,,,
,5d6d82acab68f90001f53194,627c6fdb9bfc50338e6155d0,2022-05-12_03h34.05.179,classification_task,2021.2.3,Win32,59.98080614,627c6715c52fd12f31907bcf,,,,,,,,,,,,,,,,,,,,,,,a,1,1.6043,"[""0.212"",""0.338"",""0.296"",""0.952""]","[1,1,0,1]",0,19,19,19,1,0,0,,,1,FALSE,,,,,,,,,,,,,,,,,,,,,,,,,,,,,,,
,5d6d82acab68f90001f53194,627c6fdb9bfc50338e6155d0,2022-05-12_03h34.05.179,classification_task,2021.2.3,Win32,59.98080614,627c6715c52fd12f31907bcf,,,,,,,,,,,,,,,,,,,,,,,a,1,7.168,"[""0.212"",""0.338"",""0.910"",""0.129""]","[1,1,1,0]",0,20,20,20,1,0,0,,,1,FALSE,,,,,,,,,,,,,,,,,,,,,,,,,,,,,,,
,5d6d82acab68f90001f53194,627c6fdb9bfc50338e6155d0,2022-05-12_03h34.05.179,classification_task,2021.2.3,Win32,59.98080614,627c6715c52fd12f31907bcf,,,,,,,,,,,,,,,,,,,,,,,a,1,2.3903,"[""0.302"",""0.338"",""0.910"",""0.952""]","[0,1,1,1]",0,21,21,21,1,0,0,,,1,FALSE,,,,,,,,,,,,,,,,,,,,,,,,,,,,,,,
,5d6d82acab68f90001f53194,627c6fdb9bfc50338e6155d0,2022-05-12_03h34.05.179,classification_task,2021.2.3,Win32,59.98080614,627c6715c52fd12f31907bcf,,,,,,,,,,,,,,,,,,,,,,,l,1,2.3348,"[""0.092"",""0.417"",""0.262"",""0.681""]","[1,1,0,1]",0,22,22,22,1,1,0,,,1,FALSE,,,,,,,,,,,,,,,,,,,,,,,,,,,,,,,
,5d6d82acab68f90001f53194,627c6fdb9bfc50338e6155d0,2022-05-12_03h34.05.179,classification_task,2021.2.3,Win32,59.98080614,627c6715c52fd12f31907bcf,,,,,,,,,,,,,,,,,,,,,,,a,1,2.3397,"[""0.172"",""0.459"",""0.719"",""0.773""]","[1,1,1,0]",0,23,23,23,1,0,1,,,1,FALSE,,,,,,,,,,,,,,,,,,,,,,,,,,,,,,,
,5d6d82acab68f90001f53194,627c6fdb9bfc50338e6155d0,2022-05-12_03h34.05.179,classification_task,2021.2.3,Win32,59.98080614,627c6715c52fd12f31907bcf,,,,,,,,,,,,,,,,,,,,,,,l,1,1.8824,"[""0.038"",""0.377"",""0.501"",""0.262""]","[1,1,1,0]",0,24,24,24,1,1,1,,,1,FALSE,,,,,,,,,,,,,,,,,,,,,,,,,,,,,,,
,5d6d82acab68f90001f53194,627c6fdb9bfc50338e6155d0,2022-05-12_03h34.05.179,classification_task,2021.2.3,Win32,59.98080614,627c6715c52fd12f31907bcf,,,,,,,,,,,,,,,,,,,,,,,a,1,2.138,"[""0.212"",""0.279"",""0.910"",""0.952""]","[1,0,1,1]",0,25,25,25,1,0,0,,,1,FALSE,,,,,,,,,,,,,,,,,,,,,,,,,,,,,,,
,5d6d82acab68f90001f53194,627c6fdb9bfc50338e6155d0,2022-05-12_03h34.05.179,classification_task,2021.2.3,Win32,59.98080614,627c6715c52fd12f31907bcf,,,,,,,,,,,,,,,,,,,,,,,l,1,1.9122,"[""0.092"",""0.766"",""0.571"",""0.681""]","[1,0,1,1]",0,26,26,26,1,1,0,,,1,FALSE,,,,,,,,,,,,,,,,,,,,,,,,,,,,,,,
,5d6d82acab68f90001f53194,627c6fdb9bfc50338e6155d0,2022-05-12_03h34.05.179,classification_task,2021.2.3,Win32,59.98080614,627c6715c52fd12f31907bcf,,,,,,,,,,,,,,,,,,,,,,,a,1,2.2068,"[""0.172"",""0.459"",""0.286"",""0.868""]","[1,1,0,1]",0,27,27,27,1,0,1,,,1,FALSE,,,,,,,,,,,,,,,,,,,,,,,,,,,,,,,
,5d6d82acab68f90001f53194,627c6fdb9bfc50338e6155d0,2022-05-12_03h34.05.179,classification_task,2021.2.3,Win32,59.98080614,627c6715c52fd12f31907bcf,,,,,,,,,,,,,,,,,,,,,,,l,1,1.4501,"[""0.038"",""0.377"",""0.296"",""0.809""]","[1,1,0,1]",0,28,28,28,1,1,1,,,1,FALSE,,,,,,,,,,,,,,,,,,,,,,,,,,,,,,,
,5d6d82acab68f90001f53194,627c6fdb9bfc50338e6155d0,2022-05-12_03h34.05.179,classification_task,2021.2.3,Win32,59.98080614,627c6715c52fd12f31907bcf,,,,,,,,,,,,,,,,,,,,,,,l,1,1.7061,"[""0.092"",""0.417"",""0.571"",""0.286""]","[1,1,1,0]",0,29,29,29,1,1,0,,,1,FALSE,,,,,,,,,,,,,,,,,,,,,,,,,,,,,,,
,5d6d82acab68f90001f53194,627c6fdb9bfc50338e6155d0,2022-05-12_03h34.05.179,classification_task,2021.2.3,Win32,59.98080614,627c6715c52fd12f31907bcf,,,,,,,,,,,,,,,,,,,,,,,l,1,6.279,"[""0.286"",""0.417"",""0.571"",""0.681""]","[0,1,1,1]",0,30,30,30,1,1,0,,,1,FALSE,,,,,,,,,,,,,,,,,,,,,,,,,,,,,,,
,5d6d82acab68f90001f53194,627c6fdb9bfc50338e6155d0,2022-05-12_03h34.05.179,classification_task,2021.2.3,Win32,59.98080614,627c6715c52fd12f31907bcf,,,,,,,,,,,,,,,,,,,,,,,l,1,5.852,"[""0.286"",""0.377"",""0.501"",""0.809""]","[0,1,1,1]",0,31,31,31,1,1,1,,,1,FALSE,,,,,,,,,,,,,,,,,,,,,,,,,,,,,,,
,5d6d82acab68f90001f53194,627c6fdb9bfc50338e6155d0,2022-05-12_03h34.05.179,classification_task,2021.2.3,Win32,59.98080614,627c6715c52fd12f31907bcf,,,,,,,,,,,,,,,,,,,,,,,a,1,8.0003,"[""0.212"",""0.338"",""0.605"",""0.952""]","[1,1,0,1]",0,32,32,32,1,0,0,,,1,FALSE,,,,,,,,,,,,,,,,,,,,,,,,,,,,,,,
,5d6d82acab68f90001f53194,627c6fdb9bfc50338e6155d0,2022-05-12_03h34.05.179,classification_task,2021.2.3,Win32,59.98080614,627c6715c52fd12f31907bcf,,,,,,,,,,,,,,,,,,,,,,,a,1,1.1223,"[""0.212"",""0.338"",""0.910"",""0.615""]","[1,1,1,0]",0,33,33,33,1,0,0,,,1,FALSE,,,,,,,,,,,,,,,,,,,,,,,,,,,,,,,
,5d6d82acab68f90001f53194,627c6fdb9bfc50338e6155d0,2022-05-12_03h34.05.179,classification_task,2021.2.3,Win32,59.98080614,627c6715c52fd12f31907bcf,,,,,,,,,,,,,,,,,,,,,,,l,1,1.0904,"[""0.038"",""0.773"",""0.501"",""0.809""]","[1,0,1,1]",0,34,34,34,1,1,1,,,1,FALSE,,,,,,,,,,,,,,,,,,,,,,,,,,,,,,,
,5d6d82acab68f90001f53194,627c6fdb9bfc50338e6155d0,2022-05-12_03h34.05.179,classification_task,2021.2.3,Win32,59.98080614,627c6715c52fd12f31907bcf,,,,,,,,,,,,,,,,,,,,,,,l,1,0.5263,"[""0.038"",""0.377"",""0.501"",""0.619""]","[1,1,1,0]",0,35,35,35,1,1,1,,,1,FALSE,,,,,,,,,,,,,,,,,,,,,,,,,,,,,,,
,5d6d82acab68f90001f53194,627c6fdb9bfc50338e6155d0,2022-05-12_03h34.05.179,classification_task,2021.2.3,Win32,59.98080614,627c6715c52fd12f31907bcf,,,,,,,,,,,,,,,,,,,,,,,a,0,2.337,"[""0.773"",""0.377"",""0.501"",""0.809""]","[0,1,1,1]",0,36,36,36,1,1,1,,,1,FALSE,,,,,,,,,,,,,,,,,,,,,,,,,,,,,,,
,5d6d82acab68f90001f53194,627c6fdb9bfc50338e6155d0,2022-05-12_03h34.05.179,classification_task,2021.2.3,Win32,59.98080614,627c6715c52fd12f31907bcf,,,,,,,,,,,,,,,,,,,,,,,a,1,0.9178,"[""0.172"",""0.459"",""0.719"",""0.305""]","[1,1,1,0]",0,37,37,37,1,0,1,,,1,FALSE,,,,,,,,,,,,,,,,,,,,,,,,,,,,,,,
,5d6d82acab68f90001f53194,627c6fdb9bfc50338e6155d0,2022-05-12_03h34.05.179,classification_task,2021.2.3,Win32,59.98080614,627c6715c52fd12f31907bcf,,,,,,,,,,,,,,,,,,,,,,,l,1,1.7676,"[""0.092"",""0.766"",""0.571"",""0.681""]","[1,0,1,1]",0,38,38,38,1,1,0,,,1,FALSE,,,,,,,,,,,,,,,,,,,,,,,,,,,,,,,
,5d6d82acab68f90001f53194,627c6fdb9bfc50338e6155d0,2022-05-12_03h34.05.179,classification_task,2021.2.3,Win32,59.98080614,627c6715c52fd12f31907bcf,,,,,,,,,,,,,,,,,,,,,,,a,1,1.1511,"[""0.212"",""0.262"",""0.910"",""0.952""]","[1,0,1,1]",0,39,39,39,1,0,0,,,1,FALSE,,,,,,,,,,,,,,,,,,,,,,,,,,,,,,,
,5d6d82acab68f90001f53194,627c6fdb9bfc50338e6155d0,2022-05-12_03h34.05.179,classification_task,2021.2.3,Win32,59.98080614,627c6715c52fd12f31907bcf,,,,,,,,,,,,,,,,,,,,,,,l,1,0.8873,"[""0.038"",""0.377"",""0.773"",""0.809""]","[1,1,0,1]",0,40,40,40,1,1,1,,,1,FALSE,,,,,,,,,,,,,,,,,,,,,,,,,,,,,,,
,5d6d82acab68f90001f53194,627c6fdb9bfc50338e6155d0,2022-05-12_03h34.05.179,classification_task,2021.2.3,Win32,59.98080614,627c6715c52fd12f31907bcf,,,,,,,,,,,,,,,,,,,,,,,l,1,1.5132,"[""0.092"",""0.417"",""0.571"",""0.296""]","[1,1,1,0]",0,41,41,41,1,1,0,,,1,FALSE,,,,,,,,,,,,,,,,,,,,,,,,,,,,,,,
,5d6d82acab68f90001f53194,627c6fdb9bfc50338e6155d0,2022-05-12_03h34.05.179,classification_task,2021.2.3,Win32,59.98080614,627c6715c52fd12f31907bcf,,,,,,,,,,,,,,,,,,,,,,,a,1,1.0623,"[""0.172"",""0.279"",""0.719"",""0.868""]","[1,0,1,1]",0,42,42,42,1,0,1,,,1,FALSE,,,,,,,,,,,,,,,,,,,,,,,,,,,,,,,
,5d6d82acab68f90001f53194,627c6fdb9bfc50338e6155d0,2022-05-12_03h34.05.179,classification_task,2021.2.3,Win32,59.98080614,627c6715c52fd12f31907bcf,,,,,,,,,,,,,,,,,,,,,,,l,1,1.2272,"[""0.129"",""0.417"",""0.571"",""0.681""]","[0,1,1,1]",0,43,43,43,1,1,0,,,1,FALSE,,,,,,,,,,,,,,,,,,,,,,,,,,,,,,,
,5d6d82acab68f90001f53194,627c6fdb9bfc50338e6155d0,2022-05-12_03h34.05.179,classification_task,2021.2.3,Win32,59.98080614,627c6715c52fd12f31907bcf,,,,,,,,,,,,,,,,,,,,,,,a,1,1.0951,"[""0.172"",""0.459"",""0.305"",""0.868""]","[1,1,0,1]",0,44,44,44,1,0,1,,,1,FALSE,,,,,,,,,,,,,,,,,,,,,,,,,,,,,,,
,5d6d82acab68f90001f53194,627c6fdb9bfc50338e6155d0,2022-05-12_03h34.05.179,classification_task,2021.2.3,Win32,59.98080614,627c6715c52fd12f31907bcf,,,,,,,,,,,,,,,,,,,,,,,l,0,1.3341,"[""0.296"",""0.338"",""0.910"",""0.952""]","[0,1,1,1]",0,45,45,45,1,0,0,,,1,FALSE,,,,,,,,,,,,,,,,,,,,,,,,,,,,,,,
,5d6d82acab68f90001f53194,627c6fdb9bfc50338e6155d0,2022-05-12_03h34.05.179,classification_task,2021.2.3,Win32,59.98080614,627c6715c52fd12f31907bcf,,,,,,,,,,,,,,,,,,,,,,,l,1,0.9749,"[""0.092"",""0.417"",""0.257"",""0.681""]","[1,1,0,1]",0,46,46,46,1,1,0,,,1,FALSE,,,,,,,,,,,,,,,,,,,,,,,,,,,,,,,
,5d6d82acab68f90001f53194,627c6fdb9bfc50338e6155d0,2022-05-12_03h34.05.179,classification_task,2021.2.3,Win32,59.98080614,627c6715c52fd12f31907bcf,,,,,,,,,,,,,,,,,,,,,,,a,1,1.8677,"[""0.279"",""0.459"",""0.719"",""0.868""]","[0,1,1,1]",0,47,47,47,1,0,1,,,1,FALSE,,,,,,,,,,,,,,,,,,,,,,,,,,,,,,,
,5d6d82acab68f90001f53194,627c6fdb9bfc50338e6155d0,2022-05-12_03h34.05.179,classification_task,2021.2.3,Win32,59.98080614,627c6715c52fd12f31907bcf,,,,,,,,,,,,,,,,,,,,,,,l,1,0.972,"[""0.092"",""0.417"",""0.571"",""0.619""]","[1,1,1,0]",0,48,48,48,1,1,0,,,1,FALSE,,,,,,,,,,,,,,,,,,,,,,,,,,,,,,,
,5d6d82acab68f90001f53194,627c6fdb9bfc50338e6155d0,2022-05-12_03h34.05.179,classification_task,2021.2.3,Win32,59.98080614,627c6715c52fd12f31907bcf,,,,,,,,,,,,,,,,,,,,,,,a,1,1.6687,"[""0.605"",""0.459"",""0.719"",""0.868""]","[0,1,1,1]",0,49,49,49,1,0,1,,,1,FALSE,,,,,,,,,,,,,,,,,,,,,,,,,,,,,,,
,5d6d82acab68f90001f53194,627c6fdb9bfc50338e6155d0,2022-05-12_03h34.05.179,classification_task,2021.2.3,Win32,59.98080614,627c6715c52fd12f31907bcf,,,,,,,,,,,,,,,,,,,,,,,a,1,0.9557,"[""0.172"",""0.459"",""0.619"",""0.868""]","[1,1,0,1]",0,50,50,50,1,0,1,,,1,FALSE,,,,,,,,,,,,,,,,,,,,,,,,,,,,,,,
,5d6d82acab68f90001f53194,627c6fdb9bfc50338e6155d0,2022-05-12_03h34.05.179,classification_task,2021.2.3,Win32,59.98080614,627c6715c52fd12f31907bcf,,,,,,,,,,,,,,,,,,,,,,,a,1,0.7343,"[""0.172"",""0.459"",""0.719"",""0.279""]","[1,1,1,0]",0,51,51,51,1,0,1,,,1,FALSE,,,,,,,,,,,,,,,,,,,,,,,,,,,,,,,
,5d6d82acab68f90001f53194,627c6fdb9bfc50338e6155d0,2022-05-12_03h34.05.179,classification_task,2021.2.3,Win32,59.98080614,627c6715c52fd12f31907bcf,,,,,,,,,,,,,,,,,,,,,,,a,1,1.1844,"[""0.212"",""0.338"",""0.910"",""0.302""]","[1,1,1,0]",0,52,52,52,1,0,0,,,1,FALSE,,,,,,,,,,,,,,,,,,,,,,,,,,,,,,,
,5d6d82acab68f90001f53194,627c6fdb9bfc50338e6155d0,2022-05-12_03h34.05.179,classification_task,2021.2.3,Win32,59.98080614,627c6715c52fd12f31907bcf,,,,,,,,,,,,,,,,,,,,,,,l,1,0.7905,"[""0.038"",""0.377"",""0.766"",""0.809""]","[1,1,0,1]",0,53,53,53,1,1,1,,,1,FALSE,,,,,,,,,,,,,,,,,,,,,,,,,,,,,,,
,5d6d82acab68f90001f53194,627c6fdb9bfc50338e6155d0,2022-05-12_03h34.05.179,classification_task,2021.2.3,Win32,59.98080614,627c6715c52fd12f31907bcf,,,,,,,,,,,,,,,,,,,,,,,l,1,1.2363,"[""0.092"",""0.286"",""0.571"",""0.681""]","[1,0,1,1]",0,54,54,54,1,1,0,,,1,FALSE,,,,,,,,,,,,,,,,,,,,,,,,,,,,,,,
,5d6d82acab68f90001f53194,627c6fdb9bfc50338e6155d0,2022-05-12_03h34.05.179,classification_task,2021.2.3,Win32,59.98080614,627c6715c52fd12f31907bcf,,,,,,,,,,,,,,,,,,,,,,,l,1,0.9007,"[""0.092"",""0.417"",""0.615"",""0.681""]","[1,1,0,1]",0,55,55,55,1,1,0,,,1,FALSE,,,,,,,,,,,,,,,,,,,,,,,,,,,,,,,
,5d6d82acab68f90001f53194,627c6fdb9bfc50338e6155d0,2022-05-12_03h34.05.179,classification_task,2021.2.3,Win32,59.98080614,627c6715c52fd12f31907bcf,,,,,,,,,,,,,,,,,,,,,,,a,1,1.0376,"[""0.212"",""0.338"",""0.286"",""0.952""]","[1,1,0,1]",0,56,56,56,1,0,0,,,1,FALSE,,,,,,,,,,,,,,,,,,,,,,,,,,,,,,,
,5d6d82acab68f90001f53194,627c6fdb9bfc50338e6155d0,2022-05-12_03h34.05.179,classification_task,2021.2.3,Win32,59.98080614,627c6715c52fd12f31907bcf,,,,,,,,,,,,,,,,,,,,,,,a,0,1.2357,"[""0.305"",""0.417"",""0.571"",""0.681""]","[0,1,1,1]",0,57,57,57,1,1,0,,,1,FALSE,,,,,,,,,,,,,,,,,,,,,,,,,,,,,,,
,5d6d82acab68f90001f53194,627c6fdb9bfc50338e6155d0,2022-05-12_03h34.05.179,classification_task,2021.2.3,Win32,59.98080614,627c6715c52fd12f31907bcf,,,,,,,,,,,,,,,,,,,,,,,l,1,0.9534,"[""0.038"",""0.377"",""0.501"",""0.770""]","[1,1,1,0]",0,58,58,58,1,1,1,,,1,FALSE,,,,,,,,,,,,,,,,,,,,,,,,,,,,,,,
,5d6d82acab68f90001f53194,627c6fdb9bfc50338e6155d0,2022-05-12_03h34.05.179,classification_task,2021.2.3,Win32,59.98080614,627c6715c52fd12f31907bcf,,,,,,,,,,,,,,,,,,,,,,,a,1,0.9467,"[""0.172"",""0.279"",""0.719"",""0.868""]","[1,0,1,1]",0,59,59,59,1,0,1,,,1,FALSE,,,,,,,,,,,,,,,,,,,,,,,,,,,,,,,
,5d6d82acab68f90001f53194,627c6fdb9bfc50338e6155d0,2022-05-12_03h34.05.179,classification_task,2021.2.3,Win32,59.98080614,627c6715c52fd12f31907bcf,,,,,,,,,,,,,,,,,,,,,,,l,0,1.6366,"[""0.129"",""0.338"",""0.910"",""0.952""]","[0,1,1,1]",0,60,60,60,1,0,0,,,1,FALSE,,,,,,,,,,,,,,,,,,,,,,,,,,,,,,,
,5d6d82acab68f90001f53194,627c6fdb9bfc50338e6155d0,2022-05-12_03h34.05.179,classification_task,2021.2.3,Win32,59.98080614,627c6715c52fd12f31907bcf,,,,,,,,,,,,,,,,,,,,,,,a,0,1.4105,"[""0.279"",""0.377"",""0.501"",""0.809""]","[0,1,1,1]",0,61,61,61,1,1,1,,,1,FALSE,,,,,,,,,,,,,,,,,,,,,,,,,,,,,,,
,5d6d82acab68f90001f53194,627c6fdb9bfc50338e6155d0,2022-05-12_03h34.05.179,classification_task,2021.2.3,Win32,59.98080614,627c6715c52fd12f31907bcf,,,,,,,,,,,,,,,,,,,,,,,l,1,0.8741,"[""0.038"",""0.296"",""0.501"",""0.809""]","[1,0,1,1]",0,62,62,62,1,1,1,,,1,FALSE,,,,,,,,,,,,,,,,,,,,,,,,,,,,,,,
,5d6d82acab68f90001f53194,627c6fdb9bfc50338e6155d0,2022-05-12_03h34.05.179,classification_task,2021.2.3,Win32,59.98080614,627c6715c52fd12f31907bcf,,,,,,,,,,,,,,,,,,,,,,,a,1,1.0783,"[""0.212"",""0.286"",""0.910"",""0.952""]","[1,0,1,1]",0,63,63,63,1,0,0,,,1,FALSE,,,,,,,,,,,,,,,,,,,,,,,,,,,,,,,
,5d6d82acab68f90001f53194,627c6fdb9bfc50338e6155d0,2022-05-12_03h34.05.179,classification_task,2021.2.3,Win32,59.98080614,627c6715c52fd12f31907bcf,,,,,,,,,,,,,,,,,,,,,,,,,,,,,,,,,,,,,,,0, ,,0,3.064863806,370.3199,0,0,0,0,1,2,1,,,,,,,,,,,,,,,,,,
,5d6d82acab68f90001f53194,627c6fdb9bfc50338e6155d0,2022-05-12_03h34.05.179,classification_task,2021.2.3,Win32,59.98080614,627c6715c52fd12f31907bcf,,,,,,,,,,,,,,,,,,,,,,,,,,,,,,,,,,,,,,,1,  ,,0,6.469723692,375.2898,0,0,0,0,1,2,1,,,,,,,,,,,,,,,,,,
,5d6d82acab68f90001f53194,627c6fdb9bfc50338e6155d0,2022-05-12_03h34.05.179,classification_task,2021.2.3,Win32,59.98080614,627c6715c52fd12f31907bcf,,,,,,,,,,,,,,,,,,,,,,,,,,,,,,,,,,,,,,,2,  ,,0,5.073486185,381.001,0,0,0,0,1,2,1,,,,,,,,,,,,,,,,,,
,5d6d82acab68f90001f53194,627c6fdb9bfc50338e6155d0,2022-05-12_03h34.05.179,classification_task,2021.2.3,Win32,59.98080614,627c6715c52fd12f31907bcf,,,,,,,,,,,,,,,,,,,,,,,,,,,,,,,,,,,,,,,,,,,,,0,0,0,0,1,,1,,,,,,,,,,,,,,,,,,
,5d6d82acab68f90001f53194,627c6fdb9bfc50338e6155d0,2022-05-12_03h34.05.179,classification_task,2021.2.3,Win32,59.98080614,627c6715c52fd12f31907bcf,,,,,,,,,,,,,,,,,,,,,space,5.8694,a,0,2.7279,"[""0.296"",""0.377"",""0.501"",""0.809""]","[0,1,1,1]",0,0,0,0,1,1,1,,,1,FALSE,,,,,,,,,,,,,,,,,,,,,,,,,,,,,,,
,5d6d82acab68f90001f53194,627c6fdb9bfc50338e6155d0,2022-05-12_03h34.05.179,classification_task,2021.2.3,Win32,59.98080614,627c6715c52fd12f31907bcf,,,,,,,,,,,,,,,,,,,,,,,l,1,0.8458,"[""0.038"",""0.766"",""0.501"",""0.809""]","[1,0,1,1]",0,1,1,1,1,1,1,,,1,FALSE,,,,,,,,,,,,,,,,,,,,,,,,,,,,,,,
,5d6d82acab68f90001f53194,627c6fdb9bfc50338e6155d0,2022-05-12_03h34.05.179,classification_task,2021.2.3,Win32,59.98080614,627c6715c52fd12f31907bcf,,,,,,,,,,,,,,,,,,,,,,,a,1,0.7203,"[""0.172"",""0.459"",""0.305"",""0.868""]","[1,1,0,1]",0,2,2,2,1,0,1,,,1,FALSE,,,,,,,,,,,,,,,,,,,,,,,,,,,,,,,
,5d6d82acab68f90001f53194,627c6fdb9bfc50338e6155d0,2022-05-12_03h34.05.179,classification_task,2021.2.3,Win32,59.98080614,627c6715c52fd12f31907bcf,,,,,,,,,,,,,,,,,,,,,,,l,1,0.9511,"[""0.092"",""0.605"",""0.571"",""0.681""]","[1,0,1,1]",0,3,3,3,1,1,0,,,1,FALSE,,,,,,,,,,,,,,,,,,,,,,,,,,,,,,,
,5d6d82acab68f90001f53194,627c6fdb9bfc50338e6155d0,2022-05-12_03h34.05.179,classification_task,2021.2.3,Win32,59.98080614,627c6715c52fd12f31907bcf,,,,,,,,,,,,,,,,,,,,,,,a,1,1.6443,"[""0.770"",""0.338"",""0.910"",""0.952""]","[0,1,1,1]",0,4,4,4,1,0,0,,,1,FALSE,,,,,,,,,,,,,,,,,,,,,,,,,,,,,,,
,5d6d82acab68f90001f53194,627c6fdb9bfc50338e6155d0,2022-05-12_03h34.05.179,classification_task,2021.2.3,Win32,59.98080614,627c6715c52fd12f31907bcf,,,,,,,,,,,,,,,,,,,,,,,l,1,0.701,"[""0.092"",""0.417"",""0.571"",""0.296""]","[1,1,1,0]",0,5,5,5,1,1,0,,,1,FALSE,,,,,,,,,,,,,,,,,,,,,,,,,,,,,,,
,5d6d82acab68f90001f53194,627c6fdb9bfc50338e6155d0,2022-05-12_03h34.05.179,classification_task,2021.2.3,Win32,59.98080614,627c6715c52fd12f31907bcf,,,,,,,,,,,,,,,,,,,,,,,a,1,0.9176,"[""0.212"",""0.338"",""0.910"",""0.262""]","[1,1,1,0]",0,6,6,6,1,0,0,,,1,FALSE,,,,,,,,,,,,,,,,,,,,,,,,,,,,,,,
,5d6d82acab68f90001f53194,627c6fdb9bfc50338e6155d0,2022-05-12_03h34.05.179,classification_task,2021.2.3,Win32,59.98080614,627c6715c52fd12f31907bcf,,,,,,,,,,,,,,,,,,,,,,,l,1,0.9524,"[""0.092"",""0.417"",""0.262"",""0.681""]","[1,1,0,1]",0,7,7,7,1,1,0,,,1,FALSE,,,,,,,,,,,,,,,,,,,,,,,,,,,,,,,
,5d6d82acab68f90001f53194,627c6fdb9bfc50338e6155d0,2022-05-12_03h34.05.179,classification_task,2021.2.3,Win32,59.98080614,627c6715c52fd12f31907bcf,,,,,,,,,,,,,,,,,,,,,,,a,1,0.7008,"[""0.172"",""0.459"",""0.719"",""0.773""]","[1,1,1,0]",0,8,8,8,1,0,1,,,1,FALSE,,,,,,,,,,,,,,,,,,,,,,,,,,,,,,,
,5d6d82acab68f90001f53194,627c6fdb9bfc50338e6155d0,2022-05-12_03h34.05.179,classification_task,2021.2.3,Win32,59.98080614,627c6715c52fd12f31907bcf,,,,,,,,,,,,,,,,,,,,,,,l,0,1.2046,"[""0.212"",""0.338"",""0.129"",""0.952""]","[1,1,0,1]",0,9,9,9,1,0,0,,,1,FALSE,,,,,,,,,,,,,,,,,,,,,,,,,,,,,,,
,5d6d82acab68f90001f53194,627c6fdb9bfc50338e6155d0,2022-05-12_03h34.05.179,classification_task,2021.2.3,Win32,59.98080614,627c6715c52fd12f31907bcf,,,,,,,,,,,,,,,,,,,,,,,l,1,0.8198,"[""0.038"",""0.377"",""0.279"",""0.809""]","[1,1,0,1]",0,10,10,10,1,1,1,,,1,FALSE,,,,,,,,,,,,,,,,,,,,,,,,,,,,,,,
,5d6d82acab68f90001f53194,627c6fdb9bfc50338e6155d0,2022-05-12_03h34.05.179,classification_task,2021.2.3,Win32,59.98080614,627c6715c52fd12f31907bcf,,,,,,,,,,,,,,,,,,,,,,,l,1,1.5464,"[""0.615"",""0.417"",""0.571"",""0.681""]","[0,1,1,1]",0,11,11,11,1,1,0,,,1,FALSE,,,,,,,,,,,,,,,,,,,,,,,,,,,,,,,
,5d6d82acab68f90001f53194,627c6fdb9bfc50338e6155d0,2022-05-12_03h34.05.179,classification_task,2021.2.3,Win32,59.98080614,627c6715c52fd12f31907bcf,,,,,,,,,,,,,,,,,,,,,,,a,1,0.9967,"[""0.172"",""0.615"",""0.719"",""0.868""]","[1,0,1,1]",0,12,12,12,1,0,1,,,1,FALSE,,,,,,,,,,,,,,,,,,,,,,,,,,,,,,,
,5d6d82acab68f90001f53194,627c6fdb9bfc50338e6155d0,2022-05-12_03h34.05.179,classification_task,2021.2.3,Win32,59.98080614,627c6715c52fd12f31907bcf,,,,,,,,,,,,,,,,,,,,,,,a,1,1.1563,"[""0.257"",""0.459"",""0.719"",""0.868""]","[0,1,1,1]",0,13,13,13,1,0,1,,,1,FALSE,,,,,,,,,,,,,,,,,,,,,,,,,,,,,,,
,5d6d82acab68f90001f53194,627c6fdb9bfc50338e6155d0,2022-05-12_03h34.05.179,classification_task,2021.2.3,Win32,59.98080614,627c6715c52fd12f31907bcf,,,,,,,,,,,,,,,,,,,,,,,a,1,1.1177,"[""0.212"",""0.773"",""0.910"",""0.952""]","[1,0,1,1]",0,14,14,14,1,0,0,,,1,FALSE,,,,,,,,,,,,,,,,,,,,,,,,,,,,,,,
,5d6d82acab68f90001f53194,627c6fdb9bfc50338e6155d0,2022-05-12_03h34.05.179,classification_task,2021.2.3,Win32,59.98080614,627c6715c52fd12f31907bcf,,,,,,,,,,,,,,,,,,,,,,,l,1,0.7623,"[""0.038"",""0.377"",""0.501"",""0.262""]","[1,1,1,0]",0,15,15,15,1,1,1,,,1,FALSE,,,,,,,,,,,,,,,,,,,,,,,,,,,,,,,
,5d6d82acab68f90001f53194,627c6fdb9bfc50338e6155d0,2022-05-12_03h34.05.179,classification_task,2021.2.3,Win32,59.98080614,627c6715c52fd12f31907bcf,,,,,,,,,,,,,,,,,,,,,,,a,1,1.2727,"[""0.766"",""0.338"",""0.910"",""0.952""]","[0,1,1,1]",0,16,16,16,1,0,0,,,1,FALSE,,,,,,,,,,,,,,,,,,,,,,,,,,,,,,,
,5d6d82acab68f90001f53194,627c6fdb9bfc50338e6155d0,2022-05-12_03h34.05.179,classification_task,2021.2.3,Win32,59.98080614,627c6715c52fd12f31907bcf,,,,,,,,,,,,,,,,,,,,,,,l,1,0.6875,"[""0.038"",""0.377"",""0.770"",""0.809""]","[1,1,0,1]",0,17,17,17,1,1,1,,,1,FALSE,,,,,,,,,,,,,,,,,,,,,,,,,,,,,,,
,5d6d82acab68f90001f53194,627c6fdb9bfc50338e6155d0,2022-05-12_03h34.05.179,classification_task,2021.2.3,Win32,59.98080614,627c6715c52fd12f31907bcf,,,,,,,,,,,,,,,,,,,,,,,l,1,0.809,"[""0.038"",""0.377"",""0.501"",""0.257""]","[1,1,1,0]",0,18,18,18,1,1,1,,,1,FALSE,,,,,,,,,,,,,,,,,,,,,,,,,,,,,,,
,5d6d82acab68f90001f53194,627c6fdb9bfc50338e6155d0,2022-05-12_03h34.05.179,classification_task,2021.2.3,Win32,59.98080614,627c6715c52fd12f31907bcf,,,,,,,,,,,,,,,,,,,,,,,l,1,1.7205,"[""0.770"",""0.377"",""0.501"",""0.809""]","[0,1,1,1]",0,19,19,19,1,1,1,,,1,FALSE,,,,,,,,,,,,,,,,,,,,,,,,,,,,,,,
,5d6d82acab68f90001f53194,627c6fdb9bfc50338e6155d0,2022-05-12_03h34.05.179,classification_task,2021.2.3,Win32,59.98080614,627c6715c52fd12f31907bcf,,,,,,,,,,,,,,,,,,,,,,,a,0,0.8055,"[""0.092"",""0.417"",""0.571"",""0.605""]","[1,1,1,0]",0,20,20,20,1,1,0,,,1,FALSE,,,,,,,,,,,,,,,,,,,,,,,,,,,,,,,
,5d6d82acab68f90001f53194,627c6fdb9bfc50338e6155d0,2022-05-12_03h34.05.179,classification_task,2021.2.3,Win32,59.98080614,627c6715c52fd12f31907bcf,,,,,,,,,,,,,,,,,,,,,,,a,1,2.0263,"[""0.212"",""0.338"",""0.910"",""0.279""]","[1,1,1,0]",0,21,21,21,1,0,0,,,1,FALSE,,,,,,,,,,,,,,,,,,,,,,,,,,,,,,,
,5d6d82acab68f90001f53194,627c6fdb9bfc50338e6155d0,2022-05-12_03h34.05.179,classification_task,2021.2.3,Win32,59.98080614,627c6715c52fd12f31907bcf,,,,,,,,,,,,,,,,,,,,,,,l,1,1.5532,"[""0.605"",""0.417"",""0.571"",""0.681""]","[0,1,1,1]",0,22,22,22,1,1,0,,,1,FALSE,,,,,,,,,,,,,,,,,,,,,,,,,,,,,,,
,5d6d82acab68f90001f53194,627c6fdb9bfc50338e6155d0,2022-05-12_03h34.05.179,classification_task,2021.2.3,Win32,59.98080614,627c6715c52fd12f31907bcf,,,,,,,,,,,,,,,,,,,,,,,a,1,1.3623,"[""0.172"",""0.262"",""0.719"",""0.868""]","[1,0,1,1]",0,23,23,23,1,0,1,,,1,FALSE,,,,,,,,,,,,,,,,,,,,,,,,,,,,,,,
,5d6d82acab68f90001f53194,627c6fdb9bfc50338e6155d0,2022-05-12_03h34.05.179,classification_task,2021.2.3,Win32,59.98080614,627c6715c52fd12f31907bcf,,,,,,,,,,,,,,,,,,,,,,,l,1,1.479,"[""0.092"",""0.417"",""0.773"",""0.681""]","[1,1,0,1]",0,24,24,24,1,1,0,,,1,FALSE,,,,,,,,,,,,,,,,,,,,,,,,,,,,,,,
,5d6d82acab68f90001f53194,627c6fdb9bfc50338e6155d0,2022-05-12_03h34.05.179,classification_task,2021.2.3,Win32,59.98080614,627c6715c52fd12f31907bcf,,,,,,,,,,,,,,,,,,,,,,,l,0,1.5752,"[""0.770"",""0.459"",""0.719"",""0.868""]","[0,1,1,1]",0,25,25,25,1,0,1,,,1,FALSE,,,,,,,,,,,,,,,,,,,,,,,,,,,,,,,
,5d6d82acab68f90001f53194,627c6fdb9bfc50338e6155d0,2022-05-12_03h34.05.179,classification_task,2021.2.3,Win32,59.98080614,627c6715c52fd12f31907bcf,,,,,,,,,,,,,,,,,,,,,,,a,1,0.9359,"[""0.172"",""0.459"",""0.257"",""0.868""]","[1,1,0,1]",0,26,26,26,1,0,1,,,1,FALSE,,,,,,,,,,,,,,,,,,,,,,,,,,,,,,,
,5d6d82acab68f90001f53194,627c6fdb9bfc50338e6155d0,2022-05-12_03h34.05.179,classification_task,2021.2.3,Win32,59.98080614,627c6715c52fd12f31907bcf,,,,,,,,,,,,,,,,,,,,,,,a,1,1.0677,"[""0.212"",""0.338"",""0.619"",""0.952""]","[1,1,0,1]",0,27,27,27,1,0,0,,,1,FALSE,,,,,,,,,,,,,,,,,,,,,,,,,,,,,,,
,5d6d82acab68f90001f53194,627c6fdb9bfc50338e6155d0,2022-05-12_03h34.05.179,classification_task,2021.2.3,Win32,59.98080614,627c6715c52fd12f31907bcf,,,,,,,,,,,,,,,,,,,,,,,l,1,0.7905,"[""0.038"",""0.286"",""0.501"",""0.809""]","[1,0,1,1]",0,28,28,28,1,1,1,,,1,FALSE,,,,,,,,,,,,,,,,,,,,,,,,,,,,,,,
,5d6d82acab68f90001f53194,627c6fdb9bfc50338e6155d0,2022-05-12_03h34.05.179,classification_task,2021.2.3,Win32,59.98080614,627c6715c52fd12f31907bcf,,,,,,,,,,,,,,,,,,,,,,,l,1,1.1264,"[""0.092"",""0.296"",""0.571"",""0.681""]","[1,0,1,1]",0,29,29,29,1,1,0,,,1,FALSE,,,,,,,,,,,,,,,,,,,,,,,,,,,,,,,
,5d6d82acab68f90001f53194,627c6fdb9bfc50338e6155d0,2022-05-12_03h34.05.179,classification_task,2021.2.3,Win32,59.98080614,627c6715c52fd12f31907bcf,,,,,,,,,,,,,,,,,,,,,,,a,1,0.8343,"[""0.172"",""0.459"",""0.719"",""0.770""]","[1,1,1,0]",0,30,30,30,1,0,1,,,1,FALSE,,,,,,,,,,,,,,,,,,,,,,,,,,,,,,,
,5d6d82acab68f90001f53194,627c6fdb9bfc50338e6155d0,2022-05-12_03h34.05.179,classification_task,2021.2.3,Win32,59.98080614,627c6715c52fd12f31907bcf,,,,,,,,,,,,,,,,,,,,,,,a,1,0.719,"[""0.212"",""0.619"",""0.910"",""0.952""]","[1,0,1,1]",0,31,31,31,1,0,0,,,1,FALSE,,,,,,,,,,,,,,,,,,,,,,,,,,,,,,,
,5d6d82acab68f90001f53194,627c6fdb9bfc50338e6155d0,2022-05-12_03h34.05.179,classification_task,2021.2.3,Win32,59.98080614,627c6715c52fd12f31907bcf,,,,,,,,,,,,,,,,,,,,,,,a,1,1.5458,"[""0.296"",""0.459"",""0.719"",""0.868""]","[0,1,1,1]",0,32,32,32,1,0,1,,,1,FALSE,,,,,,,,,,,,,,,,,,,,,,,,,,,,,,,
,5d6d82acab68f90001f53194,627c6fdb9bfc50338e6155d0,2022-05-12_03h34.05.179,classification_task,2021.2.3,Win32,59.98080614,627c6715c52fd12f31907bcf,,,,,,,,,,,,,,,,,,,,,,,l,1,0.7075,"[""0.038"",""0.129"",""0.501"",""0.809""]","[1,0,1,1]",0,33,33,33,1,1,1,,,1,FALSE,,,,,,,,,,,,,,,,,,,,,,,,,,,,,,,
,5d6d82acab68f90001f53194,627c6fdb9bfc50338e6155d0,2022-05-12_03h34.05.179,classification_task,2021.2.3,Win32,59.98080614,627c6715c52fd12f31907bcf,,,,,,,,,,,,,,,,,,,,,,,l,1,1.1908,"[""0.092"",""0.129"",""0.571"",""0.681""]","[1,0,1,1]",0,34,34,34,1,1,0,,,1,FALSE,,,,,,,,,,,,,,,,,,,,,,,,,,,,,,,
,5d6d82acab68f90001f53194,627c6fdb9bfc50338e6155d0,2022-05-12_03h34.05.179,classification_task,2021.2.3,Win32,59.98080614,627c6715c52fd12f31907bcf,,,,,,,,,,,,,,,,,,,,,,,a,1,0.8505,"[""0.172"",""0.296"",""0.719"",""0.868""]","[1,0,1,1]",0,35,35,35,1,0,1,,,1,FALSE,,,,,,,,,,,,,,,,,,,,,,,,,,,,,,,
,5d6d82acab68f90001f53194,627c6fdb9bfc50338e6155d0,2022-05-12_03h34.05.179,classification_task,2021.2.3,Win32,59.98080614,627c6715c52fd12f31907bcf,,,,,,,,,,,,,,,,,,,,,,,a,1,0.7177,"[""0.212"",""0.338"",""0.910"",""0.305""]","[1,1,1,0]",0,36,36,36,1,0,0,,,1,FALSE,,,,,,,,,,,,,,,,,,,,,,,,,,,,,,,
,5d6d82acab68f90001f53194,627c6fdb9bfc50338e6155d0,2022-05-12_03h34.05.179,classification_task,2021.2.3,Win32,59.98080614,627c6715c52fd12f31907bcf,,,,,,,,,,,,,,,,,,,,,,,l,1,0.6707,"[""0.038"",""0.377"",""0.302"",""0.809""]","[1,1,0,1]",0,37,37,37,1,1,1,,,1,FALSE,,,,,,,,,,,,,,,,,,,,,,,,,,,,,,,
,5d6d82acab68f90001f53194,627c6fdb9bfc50338e6155d0,2022-05-12_03h34.05.179,classification_task,2021.2.3,Win32,59.98080614,627c6715c52fd12f31907bcf,,,,,,,,,,,,,,,,,,,,,,,a,1,0.7,"[""0.172"",""0.459"",""0.719"",""0.286""]","[1,1,1,0]",0,38,38,38,1,0,1,,,1,FALSE,,,,,,,,,,,,,,,,,,,,,,,,,,,,,,,
,5d6d82acab68f90001f53194,627c6fdb9bfc50338e6155d0,2022-05-12_03h34.05.179,classification_task,2021.2.3,Win32,59.98080614,627c6715c52fd12f31907bcf,,,,,,,,,,,,,,,,,,,,,,,l,0,0.8625,"[""0.296"",""0.338"",""0.910"",""0.952""]","[0,1,1,1]",0,39,39,39,1,0,0,,,1,FALSE,,,,,,,,,,,,,,,,,,,,,,,,,,,,,,,
,5d6d82acab68f90001f53194,627c6fdb9bfc50338e6155d0,2022-05-12_03h34.05.179,classification_task,2021.2.3,Win32,59.98080614,627c6715c52fd12f31907bcf,,,,,,,,,,,,,,,,,,,,,,,l,1,1.8199,"[""0.296"",""0.377"",""0.501"",""0.809""]","[0,1,1,1]",0,40,40,40,1,1,1,,,1,FALSE,,,,,,,,,,,,,,,,,,,,,,,,,,,,,,,
,5d6d82acab68f90001f53194,627c6fdb9bfc50338e6155d0,2022-05-12_03h34.05.179,classification_task,2021.2.3,Win32,59.98080614,627c6715c52fd12f31907bcf,,,,,,,,,,,,,,,,,,,,,,,l,1,1.17,"[""0.092"",""0.417"",""0.773"",""0.681""]","[1,1,0,1]",0,41,41,41,1,1,0,,,1,FALSE,,,,,,,,,,,,,,,,,,,,,,,,,,,,,,,
,5d6d82acab68f90001f53194,627c6fdb9bfc50338e6155d0,2022-05-12_03h34.05.179,classification_task,2021.2.3,Win32,59.98080614,627c6715c52fd12f31907bcf,,,,,,,,,,,,,,,,,,,,,,,a,1,1.0424,"[""0.172"",""0.459"",""0.257"",""0.868""]","[1,1,0,1]",0,42,42,42,1,0,1,,,1,FALSE,,,,,,,,,,,,,,,,,,,,,,,,,,,,,,,
,5d6d82acab68f90001f53194,627c6fdb9bfc50338e6155d0,2022-05-12_03h34.05.179,classification_task,2021.2.3,Win32,59.98080614,627c6715c52fd12f31907bcf,,,,,,,,,,,,,,,,,,,,,,,a,1,2.4251,"[""0.212"",""0.338"",""0.773"",""0.952""]","[1,1,0,1]",0,43,43,43,1,0,0,,,1,FALSE,,,,,,,,,,,,,,,,,,,,,,,,,,,,,,,
,5d6d82acab68f90001f53194,627c6fdb9bfc50338e6155d0,2022-05-12_03h34.05.179,classification_task,2021.2.3,Win32,59.98080614,627c6715c52fd12f31907bcf,,,,,,,,,,,,,,,,,,,,,,,l,1,0.9789,"[""0.092"",""0.417"",""0.571"",""0.615""]","[1,1,1,0]",0,44,44,44,1,1,0,,,1,FALSE,,,,,,,,,,,,,,,,,,,,,,,,,,,,,,,
,5d6d82acab68f90001f53194,627c6fdb9bfc50338e6155d0,2022-05-12_03h34.05.179,classification_task,2021.2.3,Win32,59.98080614,627c6715c52fd12f31907bcf,,,,,,,,,,,,,,,,,,,,,,,a,1,1.0344,"[""0.212"",""0.279"",""0.910"",""0.952""]","[1,0,1,1]",0,45,45,45,1,0,0,,,1,FALSE,,,,,,,,,,,,,,,,,,,,,,,,,,,,,,,
,5d6d82acab68f90001f53194,627c6fdb9bfc50338e6155d0,2022-05-12_03h34.05.179,classification_task,2021.2.3,Win32,59.98080614,627c6715c52fd12f31907bcf,,,,,,,,,,,,,,,,,,,,,,,l,1,1.0693,"[""0.038"",""0.377"",""0.501"",""0.296""]","[1,1,1,0]",0,46,46,46,1,1,1,,,1,FALSE,,,,,,,,,,,,,,,,,,,,,,,,,,,,,,,
,5d6d82acab68f90001f53194,627c6fdb9bfc50338e6155d0,2022-05-12_03h34.05.179,classification_task,2021.2.3,Win32,59.98080614,627c6715c52fd12f31907bcf,,,,,,,,,,,,,,,,,,,,,,,a,0,1.9619,"[""0.296"",""0.417"",""0.571"",""0.681""]","[0,1,1,1]",0,47,47,47,1,1,0,,,1,FALSE,,,,,,,,,,,,,,,,,,,,,,,,,,,,,,,
,5d6d82acab68f90001f53194,627c6fdb9bfc50338e6155d0,2022-05-12_03h34.05.179,classification_task,2021.2.3,Win32,59.98080614,627c6715c52fd12f31907bcf,,,,,,,,,,,,,,,,,,,,,,,l,1,0.7676,"[""0.038"",""0.377"",""0.286"",""0.809""]","[1,1,0,1]",0,48,48,48,1,1,1,,,1,FALSE,,,,,,,,,,,,,,,,,,,,,,,,,,,,,,,
,5d6d82acab68f90001f53194,627c6fdb9bfc50338e6155d0,2022-05-12_03h34.05.179,classification_task,2021.2.3,Win32,59.98080614,627c6715c52fd12f31907bcf,,,,,,,,,,,,,,,,,,,,,,,a,1,1.0357,"[""0.172"",""0.459"",""0.719"",""0.296""]","[1,1,1,0]",0,49,49,49,1,0,1,,,1,FALSE,,,,,,,,,,,,,,,,,,,,,,,,,,,,,,,
,5d6d82acab68f90001f53194,627c6fdb9bfc50338e6155d0,2022-05-12_03h34.05.179,classification_task,2021.2.3,Win32,59.98080614,627c6715c52fd12f31907bcf,,,,,,,,,,,,,,,,,,,,,,,l,1,0.9937,"[""0.619"",""0.417"",""0.571"",""0.681""]","[0,1,1,1]",0,50,50,50,1,1,0,,,1,FALSE,,,,,,,,,,,,,,,,,,,,,,,,,,,,,,,
,5d6d82acab68f90001f53194,627c6fdb9bfc50338e6155d0,2022-05-12_03h34.05.179,classification_task,2021.2.3,Win32,59.98080614,627c6715c52fd12f31907bcf,,,,,,,,,,,,,,,,,,,,,,,a,1,1.3535,"[""0.212"",""0.338"",""0.910"",""0.305""]","[1,1,1,0]",0,51,51,51,1,0,0,,,1,FALSE,,,,,,,,,,,,,,,,,,,,,,,,,,,,,,,
,5d6d82acab68f90001f53194,627c6fdb9bfc50338e6155d0,2022-05-12_03h34.05.179,classification_task,2021.2.3,Win32,59.98080614,627c6715c52fd12f31907bcf,,,,,,,,,,,,,,,,,,,,,,,l,1,0.6909,"[""0.038"",""0.286"",""0.501"",""0.809""]","[1,0,1,1]",0,52,52,52,1,1,1,,,1,FALSE,,,,,,,,,,,,,,,,,,,,,,,,,,,,,,,
,5d6d82acab68f90001f53194,627c6fdb9bfc50338e6155d0,2022-05-12_03h34.05.179,classification_task,2021.2.3,Win32,59.98080614,627c6715c52fd12f31907bcf,,,,,,,,,,,,,,,,,,,,,,,l,1,0.8511,"[""0.092"",""0.417"",""0.262"",""0.681""]","[1,1,0,1]",0,53,53,53,1,1,0,,,1,FALSE,,,,,,,,,,,,,,,,,,,,,,,,,,,,,,,
,5d6d82acab68f90001f53194,627c6fdb9bfc50338e6155d0,2022-05-12_03h34.05.179,classification_task,2021.2.3,Win32,59.98080614,627c6715c52fd12f31907bcf,,,,,,,,,,,,,,,,,,,,,,,l,1,0.6204,"[""0.092"",""0.417"",""0.571"",""0.605""]","[1,1,1,0]",0,54,54,54,1,1,0,,,1,FALSE,,,,,,,,,,,,,,,,,,,,,,,,,,,,,,,
,5d6d82acab68f90001f53194,627c6fdb9bfc50338e6155d0,2022-05-12_03h34.05.179,classification_task,2021.2.3,Win32,59.98080614,627c6715c52fd12f31907bcf,,,,,,,,,,,,,,,,,,,,,,,a,1,0.9468,"[""0.172"",""0.459"",""0.262"",""0.868""]","[1,1,0,1]",0,55,55,55,1,0,1,,,1,FALSE,,,,,,,,,,,,,,,,,,,,,,,,,,,,,,,
,5d6d82acab68f90001f53194,627c6fdb9bfc50338e6155d0,2022-05-12_03h34.05.179,classification_task,2021.2.3,Win32,59.98080614,627c6715c52fd12f31907bcf,,,,,,,,,,,,,,,,,,,,,,,a,1,1.6602,"[""0.212"",""0.338"",""0.253"",""0.952""]","[1,1,0,1]",0,56,56,56,1,0,0,,,1,FALSE,,,,,,,,,,,,,,,,,,,,,,,,,,,,,,,
,5d6d82acab68f90001f53194,627c6fdb9bfc50338e6155d0,2022-05-12_03h34.05.179,classification_task,2021.2.3,Win32,59.98080614,627c6715c52fd12f31907bcf,,,,,,,,,,,,,,,,,,,,,,,l,1,0.8676,"[""0.038"",""0.377"",""0.501"",""0.773""]","[1,1,1,0]",0,57,57,57,1,1,1,,,1,FALSE,,,,,,,,,,,,,,,,,,,,,,,,,,,,,,,
,5d6d82acab68f90001f53194,627c6fdb9bfc50338e6155d0,2022-05-12_03h34.05.179,classification_task,2021.2.3,Win32,59.98080614,627c6715c52fd12f31907bcf,,,,,,,,,,,,,,,,,,,,,,,l,1,1.0344,"[""0.092"",""0.305"",""0.571"",""0.681""]","[1,0,1,1]",0,58,58,58,1,1,0,,,1,FALSE,,,,,,,,,,,,,,,,,,,,,,,,,,,,,,,
,5d6d82acab68f90001f53194,627c6fdb9bfc50338e6155d0,2022-05-12_03h34.05.179,classification_task,2021.2.3,Win32,59.98080614,627c6715c52fd12f31907bcf,,,,,,,,,,,,,,,,,,,,,,,a,1,1.0126,"[""0.172"",""0.615"",""0.719"",""0.868""]","[1,0,1,1]",0,59,59,59,1,0,1,,,1,FALSE,,,,,,,,,,,,,,,,,,,,,,,,,,,,,,,
,5d6d82acab68f90001f53194,627c6fdb9bfc50338e6155d0,2022-05-12_03h34.05.179,classification_task,2021.2.3,Win32,59.98080614,627c6715c52fd12f31907bcf,,,,,,,,,,,,,,,,,,,,,,,a,1,1.2355,"[""0.212"",""0.253"",""0.910"",""0.952""]","[1,0,1,1]",0,60,60,60,1,0,0,,,1,FALSE,,,,,,,,,,,,,,,,,,,,,,,,,,,,,,,
,5d6d82acab68f90001f53194,627c6fdb9bfc50338e6155d0,2022-05-12_03h34.05.179,classification_task,2021.2.3,Win32,59.98080614,627c6715c52fd12f31907bcf,,,,,,,,,,,,,,,,,,,,,,,a,1,1.8255,"[""0.257"",""0.459"",""0.719"",""0.868""]","[0,1,1,1]",0,61,61,61,1,0,1,,,1,FALSE,,,,,,,,,,,,,,,,,,,,,,,,,,,,,,,
,5d6d82acab68f90001f53194,627c6fdb9bfc50338e6155d0,2022-05-12_03h34.05.179,classification_task,2021.2.3,Win32,59.98080614,627c6715c52fd12f31907bcf,,,,,,,,,,,,,,,,,,,,,,,a,1,0.938,"[""0.262"",""0.338"",""0.910"",""0.952""]","[0,1,1,1]",0,62,62,62,1,0,0,,,1,FALSE,,,,,,,,,,,,,,,,,,,,,,,,,,,,,,,
,5d6d82acab68f90001f53194,627c6fdb9bfc50338e6155d0,2022-05-12_03h34.05.179,classification_task,2021.2.3,Win32,59.98080614,627c6715c52fd12f31907bcf,,,,,,,,,,,,,,,,,,,,,,,l,1,1.4421,"[""0.605"",""0.377"",""0.501"",""0.809""]","[0,1,1,1]",0,63,63,63,1,1,1,,,1,FALSE,,,,,,,,,,,,,,,,,,,,,,,,,,,,,,,
,5d6d82acab68f90001f53194,627c6fdb9bfc50338e6155d0,2022-05-12_03h34.05.179,classification_task,2021.2.3,Win32,59.98080614,627c6715c52fd12f31907bcf,,,,,,,,,,,,,,,,,,,,,,,,,,,,,,,,,,,,,,,0, ,,0,1.815598667,149.0906,0,1,1,1,1,2,2,,,,,,,,,,,,,,,,,,
,5d6d82acab68f90001f53194,627c6fdb9bfc50338e6155d0,2022-05-12_03h34.05.179,classification_task,2021.2.3,Win32,59.98080614,627c6715c52fd12f31907bcf,,,,,,,,,,,,,,,,,,,,,,,,,,,,,,,,,,,,,,,1,  ,,0,6.420732902,153.3237,0,1,1,1,1,2,2,,,,,,,,,,,,,,,,,,
,5d6d82acab68f90001f53194,627c6fdb9bfc50338e6155d0,2022-05-12_03h34.05.179,classification_task,2021.2.3,Win32,59.98080614,627c6715c52fd12f31907bcf,,,,,,,,,,,,,,,,,,,,,,,,,,,,,,,,,,,,,,,2,  ,,0,5.024495395,155.2442,0,1,1,1,1,2,2,,,,,,,,,,,,,,,,,,
,5d6d82acab68f90001f53194,627c6fdb9bfc50338e6155d0,2022-05-12_03h34.05.179,classification_task,2021.2.3,Win32,59.98080614,627c6715c52fd12f31907bcf,,,,,,,,,,,,,,,,,,,,,,,,,,,,,,,,,,,,,,,,,,,,,0,1,1,1,1,,2,,,,,,,,,,,,,,,,,,
,5d6d82acab68f90001f53194,627c6fdb9bfc50338e6155d0,2022-05-12_03h34.05.179,classification_task,2021.2.3,Win32,59.98080614,627c6715c52fd12f31907bcf,,,,,,,,,,,,,,,,,,,,,space,2.0783,l,1,0.9494,"[""0.619"",""0.417"",""0.571"",""0.681""]","[0,1,1,1]",0,0,0,0,1,1,0,,,1,FALSE,,,,,,,,,,,,,,,,,,,,,,,,,,,,,,,
,5d6d82acab68f90001f53194,627c6fdb9bfc50338e6155d0,2022-05-12_03h34.05.179,classification_task,2021.2.3,Win32,59.98080614,627c6715c52fd12f31907bcf,,,,,,,,,,,,,,,,,,,,,,,l,1,1.2695,"[""0.092"",""0.615"",""0.571"",""0.681""]","[1,0,1,1]",0,1,1,1,1,1,0,,,1,FALSE,,,,,,,,,,,,,,,,,,,,,,,,,,,,,,,
,5d6d82acab68f90001f53194,627c6fdb9bfc50338e6155d0,2022-05-12_03h34.05.179,classification_task,2021.2.3,Win32,59.98080614,627c6715c52fd12f31907bcf,,,,,,,,,,,,,,,,,,,,,,,a,1,3.4738,"[""0.172"",""0.459"",""0.129"",""0.868""]","[1,1,0,1]",0,2,2,2,1,0,1,,,1,FALSE,,,,,,,,,,,,,,,,,,,,,,,,,,,,,,,
,5d6d82acab68f90001f53194,627c6fdb9bfc50338e6155d0,2022-05-12_03h34.05.179,classification_task,2021.2.3,Win32,59.98080614,627c6715c52fd12f31907bcf,,,,,,,,,,,,,,,,,,,,,,,l,1,0.913,"[""0.092"",""0.417"",""0.571"",""0.770""]","[1,1,1,0]",0,3,3,3,1,1,0,,,1,FALSE,,,,,,,,,,,,,,,,,,,,,,,,,,,,,,,
,5d6d82acab68f90001f53194,627c6fdb9bfc50338e6155d0,2022-05-12_03h34.05.179,classification_task,2021.2.3,Win32,59.98080614,627c6715c52fd12f31907bcf,,,,,,,,,,,,,,,,,,,,,,,l,0,1.2093,"[""0.302"",""0.338"",""0.910"",""0.952""]","[0,1,1,1]",0,4,4,4,1,0,0,,,1,FALSE,,,,,,,,,,,,,,,,,,,,,,,,,,,,,,,
,5d6d82acab68f90001f53194,627c6fdb9bfc50338e6155d0,2022-05-12_03h34.05.179,classification_task,2021.2.3,Win32,59.98080614,627c6715c52fd12f31907bcf,,,,,,,,,,,,,,,,,,,,,,,a,1,0.9683,"[""0.212"",""0.338"",""0.770"",""0.952""]","[1,1,0,1]",0,5,5,5,1,0,0,,,1,FALSE,,,,,,,,,,,,,,,,,,,,,,,,,,,,,,,
,5d6d82acab68f90001f53194,627c6fdb9bfc50338e6155d0,2022-05-12_03h34.05.179,classification_task,2021.2.3,Win32,59.98080614,627c6715c52fd12f31907bcf,,,,,,,,,,,,,,,,,,,,,,,a,1,0.801,"[""0.212"",""0.338"",""0.910"",""0.286""]","[1,1,1,0]",0,6,6,6,1,0,0,,,1,FALSE,,,,,,,,,,,,,,,,,,,,,,,,,,,,,,,
,5d6d82acab68f90001f53194,627c6fdb9bfc50338e6155d0,2022-05-12_03h34.05.179,classification_task,2021.2.3,Win32,59.98080614,627c6715c52fd12f31907bcf,,,,,,,,,,,,,,,,,,,,,,,l,1,0.7439,"[""0.038"",""0.377"",""0.615"",""0.809""]","[1,1,0,1]",0,7,7,7,1,1,1,,,1,FALSE,,,,,,,,,,,,,,,,,,,,,,,,,,,,,,,
,5d6d82acab68f90001f53194,627c6fdb9bfc50338e6155d0,2022-05-12_03h34.05.179,classification_task,2021.2.3,Win32,59.98080614,627c6715c52fd12f31907bcf,,,,,,,,,,,,,,,,,,,,,,,a,0,1.7221,"[""0.286"",""0.377"",""0.501"",""0.809""]","[0,1,1,1]",0,8,8,8,1,1,1,,,1,FALSE,,,,,,,,,,,,,,,,,,,,,,,,,,,,,,,
,5d6d82acab68f90001f53194,627c6fdb9bfc50338e6155d0,2022-05-12_03h34.05.179,classification_task,2021.2.3,Win32,59.98080614,627c6715c52fd12f31907bcf,,,,,,,,,,,,,,,,,,,,,,,a,1,1.2285,"[""0.172"",""0.615"",""0.719"",""0.868""]","[1,0,1,1]",0,9,9,9,1,0,1,,,1,FALSE,,,,,,,,,,,,,,,,,,,,,,,,,,,,,,,
,5d6d82acab68f90001f53194,627c6fdb9bfc50338e6155d0,2022-05-12_03h34.05.179,classification_task,2021.2.3,Win32,59.98080614,627c6715c52fd12f31907bcf,,,,,,,,,,,,,,,,,,,,,,,a,1,1.0753,"[""0.212"",""0.279"",""0.910"",""0.952""]","[1,0,1,1]",0,10,10,10,1,0,0,,,1,FALSE,,,,,,,,,,,,,,,,,,,,,,,,,,,,,,,
,5d6d82acab68f90001f53194,627c6fdb9bfc50338e6155d0,2022-05-12_03h34.05.179,classification_task,2021.2.3,Win32,59.98080614,627c6715c52fd12f31907bcf,,,,,,,,,,,,,,,,,,,,,,,l,1,0.5599,"[""0.038"",""0.615"",""0.501"",""0.809""]","[1,0,1,1]",0,11,11,11,1,1,1,,,1,FALSE,,,,,,,,,,,,,,,,,,,,,,,,,,,,,,,
,5d6d82acab68f90001f53194,627c6fdb9bfc50338e6155d0,2022-05-12_03h34.05.179,classification_task,2021.2.3,Win32,59.98080614,627c6715c52fd12f31907bcf,,,,,,,,,,,,,,,,,,,,,,,a,1,1.0572,"[""0.172"",""0.459"",""0.719"",""0.619""]","[1,1,1,0]",0,12,12,12,1,0,1,,,1,FALSE,,,,,,,,,,,,,,,,,,,,,,,,,,,,,,,
,5d6d82acab68f90001f53194,627c6fdb9bfc50338e6155d0,2022-05-12_03h34.05.179,classification_task,2021.2.3,Win32,59.98080614,627c6715c52fd12f31907bcf,,,,,,,,,,,,,,,,,,,,,,,l,1,0.8785,"[""0.092"",""0.417"",""0.286"",""0.681""]","[1,1,0,1]",0,13,13,13,1,1,0,,,1,FALSE,,,,,,,,,,,,,,,,,,,,,,,,,,,,,,,
,5d6d82acab68f90001f53194,627c6fdb9bfc50338e6155d0,2022-05-12_03h34.05.179,classification_task,2021.2.3,Win32,59.98080614,627c6715c52fd12f31907bcf,,,,,,,,,,,,,,,,,,,,,,,l,1,0.8511,"[""0.038"",""0.377"",""0.501"",""0.129""]","[1,1,1,0]",0,14,14,14,1,1,1,,,1,FALSE,,,,,,,,,,,,,,,,,,,,,,,,,,,,,,,
,5d6d82acab68f90001f53194,627c6fdb9bfc50338e6155d0,2022-05-12_03h34.05.179,classification_task,2021.2.3,Win32,59.98080614,627c6715c52fd12f31907bcf,,,,,,,,,,,,,,,,,,,,,,,l,0,1.8566,"[""0.605"",""0.459"",""0.719"",""0.868""]","[0,1,1,1]",0,15,15,15,1,0,1,,,1,FALSE,,,,,,,,,,,,,,,,,,,,,,,,,,,,,,,
,5d6d82acab68f90001f53194,627c6fdb9bfc50338e6155d0,2022-05-12_03h34.05.179,classification_task,2021.2.3,Win32,59.98080614,627c6715c52fd12f31907bcf,,,,,,,,,,,,,,,,,,,,,,,l,1,0.7176,"[""0.038"",""0.279"",""0.501"",""0.809""]","[1,0,1,1]",0,16,16,16,1,1,1,,,1,FALSE,,,,,,,,,,,,,,,,,,,,,,,,,,,,,,,
,5d6d82acab68f90001f53194,627c6fdb9bfc50338e6155d0,2022-05-12_03h34.05.179,classification_task,2021.2.3,Win32,59.98080614,627c6715c52fd12f31907bcf,,,,,,,,,,,,,,,,,,,,,,,a,1,1.5363,"[""0.262"",""0.338"",""0.910"",""0.952""]","[0,1,1,1]",0,17,17,17,1,0,0,,,1,FALSE,,,,,,,,,,,,,,,,,,,,,,,,,,,,,,,
,5d6d82acab68f90001f53194,627c6fdb9bfc50338e6155d0,2022-05-12_03h34.05.179,classification_task,2021.2.3,Win32,59.98080614,627c6715c52fd12f31907bcf,,,,,,,,,,,,,,,,,,,,,,,l,0,0.9726,"[""0.773"",""0.459"",""0.719"",""0.868""]","[0,1,1,1]",0,18,18,18,1,0,1,,,1,FALSE,,,,,,,,,,,,,,,,,,,,,,,,,,,,,,,
,5d6d82acab68f90001f53194,627c6fdb9bfc50338e6155d0,2022-05-12_03h34.05.179,classification_task,2021.2.3,Win32,59.98080614,627c6715c52fd12f31907bcf,,,,,,,,,,,,,,,,,,,,,,,l,1,0.9229,"[""0.092"",""0.262"",""0.571"",""0.681""]","[1,0,1,1]",0,19,19,19,1,1,0,,,1,FALSE,,,,,,,,,,,,,,,,,,,,,,,,,,,,,,,
,5d6d82acab68f90001f53194,627c6fdb9bfc50338e6155d0,2022-05-12_03h34.05.179,classification_task,2021.2.3,Win32,59.98080614,627c6715c52fd12f31907bcf,,,,,,,,,,,,,,,,,,,,,,,l,1,0.6768,"[""0.038"",""0.377"",""0.253"",""0.809""]","[1,1,0,1]",0,20,20,20,1,1,1,,,1,FALSE,,,,,,,,,,,,,,,,,,,,,,,,,,,,,,,
,5d6d82acab68f90001f53194,627c6fdb9bfc50338e6155d0,2022-05-12_03h34.05.179,classification_task,2021.2.3,Win32,59.98080614,627c6715c52fd12f31907bcf,,,,,,,,,,,,,,,,,,,,,,,a,1,0.9463,"[""0.212"",""0.262"",""0.910"",""0.952""]","[1,0,1,1]",0,21,21,21,1,0,0,,,1,FALSE,,,,,,,,,,,,,,,,,,,,,,,,,,,,,,,
,5d6d82acab68f90001f53194,627c6fdb9bfc50338e6155d0,2022-05-12_03h34.05.179,classification_task,2021.2.3,Win32,59.98080614,627c6715c52fd12f31907bcf,,,,,,,,,,,,,,,,,,,,,,,l,1,0.9079,"[""0.038"",""0.377"",""0.501"",""0.615""]","[1,1,1,0]",0,22,22,22,1,1,1,,,1,FALSE,,,,,,,,,,,,,,,,,,,,,,,,,,,,,,,
,5d6d82acab68f90001f53194,627c6fdb9bfc50338e6155d0,2022-05-12_03h34.05.179,classification_task,2021.2.3,Win32,59.98080614,627c6715c52fd12f31907bcf,,,,,,,,,,,,,,,,,,,,,,,l,1,0.991,"[""0.092"",""0.417"",""0.253"",""0.681""]","[1,1,0,1]",0,23,23,23,1,1,0,,,1,FALSE,,,,,,,,,,,,,,,,,,,,,,,,,,,,,,,
,5d6d82acab68f90001f53194,627c6fdb9bfc50338e6155d0,2022-05-12_03h34.05.179,classification_task,2021.2.3,Win32,59.98080614,627c6715c52fd12f31907bcf,,,,,,,,,,,,,,,,,,,,,,,a,1,3.127,"[""0.212"",""0.338"",""0.129"",""0.952""]","[1,1,0,1]",0,24,24,24,1,0,0,,,1,FALSE,,,,,,,,,,,,,,,,,,,,,,,,,,,,,,,
,5d6d82acab68f90001f53194,627c6fdb9bfc50338e6155d0,2022-05-12_03h34.05.179,classification_task,2021.2.3,Win32,59.98080614,627c6715c52fd12f31907bcf,,,,,,,,,,,,,,,,,,,,,,,a,0,1.679,"[""0.262"",""0.377"",""0.501"",""0.809""]","[0,1,1,1]",0,25,25,25,1,1,1,,,1,FALSE,,,,,,,,,,,,,,,,,,,,,,,,,,,,,,,
,5d6d82acab68f90001f53194,627c6fdb9bfc50338e6155d0,2022-05-12_03h34.05.179,classification_task,2021.2.3,Win32,59.98080614,627c6715c52fd12f31907bcf,,,,,,,,,,,,,,,,,,,,,,,a,1,1.0163,"[""0.172"",""0.459"",""0.286"",""0.868""]","[1,1,0,1]",0,26,26,26,1,0,1,,,1,FALSE,,,,,,,,,,,,,,,,,,,,,,,,,,,,,,,
,5d6d82acab68f90001f53194,627c6fdb9bfc50338e6155d0,2022-05-12_03h34.05.179,classification_task,2021.2.3,Win32,59.98080614,627c6715c52fd12f31907bcf,,,,,,,,,,,,,,,,,,,,,,,a,1,0.9725,"[""0.212"",""0.338"",""0.910"",""0.605""]","[1,1,1,0]",0,27,27,27,1,0,0,,,1,FALSE,,,,,,,,,,,,,,,,,,,,,,,,,,,,,,,
,5d6d82acab68f90001f53194,627c6fdb9bfc50338e6155d0,2022-05-12_03h34.05.179,classification_task,2021.2.3,Win32,59.98080614,627c6715c52fd12f31907bcf,,,,,,,,,,,,,,,,,,,,,,,a,1,0.939,"[""0.172"",""0.766"",""0.719"",""0.868""]","[1,0,1,1]",0,28,28,28,1,0,1,,,1,FALSE,,,,,,,,,,,,,,,,,,,,,,,,,,,,,,,
,5d6d82acab68f90001f53194,627c6fdb9bfc50338e6155d0,2022-05-12_03h34.05.179,classification_task,2021.2.3,Win32,59.98080614,627c6715c52fd12f31907bcf,,,,,,,,,,,,,,,,,,,,,,,l,1,1.203,"[""0.770"",""0.417"",""0.571"",""0.681""]","[0,1,1,1]",0,29,29,29,1,1,0,,,1,FALSE,,,,,,,,,,,,,,,,,,,,,,,,,,,,,,,
,5d6d82acab68f90001f53194,627c6fdb9bfc50338e6155d0,2022-05-12_03h34.05.179,classification_task,2021.2.3,Win32,59.98080614,627c6715c52fd12f31907bcf,,,,,,,,,,,,,,,,,,,,,,,a,1,0.7509,"[""0.172"",""0.459"",""0.719"",""0.253""]","[1,1,1,0]",0,30,30,30,1,0,1,,,1,FALSE,,,,,,,,,,,,,,,,,,,,,,,,,,,,,,,
,5d6d82acab68f90001f53194,627c6fdb9bfc50338e6155d0,2022-05-12_03h34.05.179,classification_task,2021.2.3,Win32,59.98080614,627c6715c52fd12f31907bcf,,,,,,,,,,,,,,,,,,,,,,,l,1,0.968,"[""0.092"",""0.417"",""0.571"",""0.770""]","[1,1,1,0]",0,31,31,31,1,1,0,,,1,FALSE,,,,,,,,,,,,,,,,,,,,,,,,,,,,,,,
,5d6d82acab68f90001f53194,627c6fdb9bfc50338e6155d0,2022-05-12_03h34.05.179,classification_task,2021.2.3,Win32,59.98080614,627c6715c52fd12f31907bcf,,,,,,,,,,,,,,,,,,,,,,,a,1,1.0082,"[""0.212"",""0.338"",""0.910"",""0.305""]","[1,1,1,0]",0,32,32,32,1,0,0,,,1,FALSE,,,,,,,,,,,,,,,,,,,,,,,,,,,,,,,
,5d6d82acab68f90001f53194,627c6fdb9bfc50338e6155d0,2022-05-12_03h34.05.179,classification_task,2021.2.3,Win32,59.98080614,627c6715c52fd12f31907bcf,,,,,,,,,,,,,,,,,,,,,,,a,0,1.801,"[""0.253"",""0.377"",""0.501"",""0.809""]","[0,1,1,1]",0,33,33,33,1,1,1,,,1,FALSE,,,,,,,,,,,,,,,,,,,,,,,,,,,,,,,
,5d6d82acab68f90001f53194,627c6fdb9bfc50338e6155d0,2022-05-12_03h34.05.179,classification_task,2021.2.3,Win32,59.98080614,627c6715c52fd12f31907bcf,,,,,,,,,,,,,,,,,,,,,,,l,1,0.9187,"[""0.092"",""0.417"",""0.302"",""0.681""]","[1,1,0,1]",0,34,34,34,1,1,0,,,1,FALSE,,,,,,,,,,,,,,,,,,,,,,,,,,,,,,,
,5d6d82acab68f90001f53194,627c6fdb9bfc50338e6155d0,2022-05-12_03h34.05.179,classification_task,2021.2.3,Win32,59.98080614,627c6715c52fd12f31907bcf,,,,,,,,,,,,,,,,,,,,,,,l,1,0.6414,"[""0.038"",""0.377"",""0.305"",""0.809""]","[1,1,0,1]",0,35,35,35,1,1,1,,,1,FALSE,,,,,,,,,,,,,,,,,,,,,,,,,,,,,,,
,5d6d82acab68f90001f53194,627c6fdb9bfc50338e6155d0,2022-05-12_03h34.05.179,classification_task,2021.2.3,Win32,59.98080614,627c6715c52fd12f31907bcf,,,,,,,,,,,,,,,,,,,,,,,a,1,0.8342,"[""0.212"",""0.286"",""0.910"",""0.952""]","[1,0,1,1]",0,36,36,36,1,0,0,,,1,FALSE,,,,,,,,,,,,,,,,,,,,,,,,,,,,,,,
,5d6d82acab68f90001f53194,627c6fdb9bfc50338e6155d0,2022-05-12_03h34.05.179,classification_task,2021.2.3,Win32,59.98080614,627c6715c52fd12f31907bcf,,,,,,,,,,,,,,,,,,,,,,,a,1,0.9891,"[""0.212"",""0.338"",""0.262"",""0.952""]","[1,1,0,1]",0,37,37,37,1,0,0,,,1,FALSE,,,,,,,,,,,,,,,,,,,,,,,,,,,,,,,
,5d6d82acab68f90001f53194,627c6fdb9bfc50338e6155d0,2022-05-12_03h34.05.179,classification_task,2021.2.3,Win32,59.98080614,627c6715c52fd12f31907bcf,,,,,,,,,,,,,,,,,,,,,,,l,0,2.1342,"[""0.770"",""0.338"",""0.910"",""0.952""]","[0,1,1,1]",0,38,38,38,1,0,0,,,1,FALSE,,,,,,,,,,,,,,,,,,,,,,,,,,,,,,,
,5d6d82acab68f90001f53194,627c6fdb9bfc50338e6155d0,2022-05-12_03h34.05.179,classification_task,2021.2.3,Win32,59.98080614,627c6715c52fd12f31907bcf,,,,,,,,,,,,,,,,,,,,,,,a,1,1.3514,"[""0.172"",""0.766"",""0.719"",""0.868""]","[1,0,1,1]",0,39,39,39,1,0,1,,,1,FALSE,,,,,,,,,,,,,,,,,,,,,,,,,,,,,,,
,5d6d82acab68f90001f53194,627c6fdb9bfc50338e6155d0,2022-05-12_03h34.05.179,classification_task,2021.2.3,Win32,59.98080614,627c6715c52fd12f31907bcf,,,,,,,,,,,,,,,,,,,,,,,l,1,0.7954,"[""0.038"",""0.286"",""0.501"",""0.809""]","[1,0,1,1]",0,40,40,40,1,1,1,,,1,FALSE,,,,,,,,,,,,,,,,,,,,,,,,,,,,,,,
,5d6d82acab68f90001f53194,627c6fdb9bfc50338e6155d0,2022-05-12_03h34.05.179,classification_task,2021.2.3,Win32,59.98080614,627c6715c52fd12f31907bcf,,,,,,,,,,,,,,,,,,,,,,,l,1,0.6559,"[""0.038"",""0.377"",""0.501"",""0.262""]","[1,1,1,0]",0,41,41,41,1,1,1,,,1,FALSE,,,,,,,,,,,,,,,,,,,,,,,,,,,,,,,
,5d6d82acab68f90001f53194,627c6fdb9bfc50338e6155d0,2022-05-12_03h34.05.179,classification_task,2021.2.3,Win32,59.98080614,627c6715c52fd12f31907bcf,,,,,,,,,,,,,,,,,,,,,,,l,1,1.2209,"[""0.092"",""0.417"",""0.571"",""0.129""]","[1,1,1,0]",0,42,42,42,1,1,0,,,1,FALSE,,,,,,,,,,,,,,,,,,,,,,,,,,,,,,,
,5d6d82acab68f90001f53194,627c6fdb9bfc50338e6155d0,2022-05-12_03h34.05.179,classification_task,2021.2.3,Win32,59.98080614,627c6715c52fd12f31907bcf,,,,,,,,,,,,,,,,,,,,,,,a,1,0.9555,"[""0.172"",""0.459"",""0.719"",""0.253""]","[1,1,1,0]",0,43,43,43,1,0,1,,,1,FALSE,,,,,,,,,,,,,,,,,,,,,,,,,,,,,,,
,5d6d82acab68f90001f53194,627c6fdb9bfc50338e6155d0,2022-05-12_03h34.05.179,classification_task,2021.2.3,Win32,59.98080614,627c6715c52fd12f31907bcf,,,,,,,,,,,,,,,,,,,,,,,a,0,2.1009,"[""0.305"",""0.417"",""0.571"",""0.681""]","[0,1,1,1]",0,44,44,44,1,1,0,,,1,FALSE,,,,,,,,,,,,,,,,,,,,,,,,,,,,,,,
,5d6d82acab68f90001f53194,627c6fdb9bfc50338e6155d0,2022-05-12_03h34.05.179,classification_task,2021.2.3,Win32,59.98080614,627c6715c52fd12f31907bcf,,,,,,,,,,,,,,,,,,,,,,,a,1,1.0286,"[""0.172"",""0.459"",""0.305"",""0.868""]","[1,1,0,1]",0,45,45,45,1,0,1,,,1,FALSE,,,,,,,,,,,,,,,,,,,,,,,,,,,,,,,
,5d6d82acab68f90001f53194,627c6fdb9bfc50338e6155d0,2022-05-12_03h34.05.179,classification_task,2021.2.3,Win32,59.98080614,627c6715c52fd12f31907bcf,,,,,,,,,,,,,,,,,,,,,,,a,1,1.9102,"[""0.619"",""0.459"",""0.719"",""0.868""]","[0,1,1,1]",0,46,46,46,1,0,1,,,1,FALSE,,,,,,,,,,,,,,,,,,,,,,,,,,,,,,,
,5d6d82acab68f90001f53194,627c6fdb9bfc50338e6155d0,2022-05-12_03h34.05.179,classification_task,2021.2.3,Win32,59.98080614,627c6715c52fd12f31907bcf,,,,,,,,,,,,,,,,,,,,,,,l,1,1.257,"[""0.092"",""0.305"",""0.571"",""0.681""]","[1,0,1,1]",0,47,47,47,1,1,0,,,1,FALSE,,,,,,,,,,,,,,,,,,,,,,,,,,,,,,,
,5d6d82acab68f90001f53194,627c6fdb9bfc50338e6155d0,2022-05-12_03h34.05.179,classification_task,2021.2.3,Win32,59.98080614,627c6715c52fd12f31907bcf,,,,,,,,,,,,,,,,,,,,,,,l,1,0.6646,"[""0.038"",""0.377"",""0.501"",""0.619""]","[1,1,1,0]",0,48,48,48,1,1,1,,,1,FALSE,,,,,,,,,,,,,,,,,,,,,,,,,,,,,,,
,5d6d82acab68f90001f53194,627c6fdb9bfc50338e6155d0,2022-05-12_03h34.05.179,classification_task,2021.2.3,Win32,59.98080614,627c6715c52fd12f31907bcf,,,,,,,,,,,,,,,,,,,,,,,a,1,1.243,"[""0.212"",""0.773"",""0.910"",""0.952""]","[1,0,1,1]",0,49,49,49,1,0,0,,,1,FALSE,,,,,,,,,,,,,,,,,,,,,,,,,,,,,,,
,5d6d82acab68f90001f53194,627c6fdb9bfc50338e6155d0,2022-05-12_03h34.05.179,classification_task,2021.2.3,Win32,59.98080614,627c6715c52fd12f31907bcf,,,,,,,,,,,,,,,,,,,,,,,l,1,0.845,"[""0.092"",""0.773"",""0.571"",""0.681""]","[1,0,1,1]",0,50,50,50,1,1,0,,,1,FALSE,,,,,,,,,,,,,,,,,,,,,,,,,,,,,,,
,5d6d82acab68f90001f53194,627c6fdb9bfc50338e6155d0,2022-05-12_03h34.05.179,classification_task,2021.2.3,Win32,59.98080614,627c6715c52fd12f31907bcf,,,,,,,,,,,,,,,,,,,,,,,a,1,0.9509,"[""0.257"",""0.459"",""0.719"",""0.868""]","[0,1,1,1]",0,51,51,51,1,0,1,,,1,FALSE,,,,,,,,,,,,,,,,,,,,,,,,,,,,,,,
,5d6d82acab68f90001f53194,627c6fdb9bfc50338e6155d0,2022-05-12_03h34.05.179,classification_task,2021.2.3,Win32,59.98080614,627c6715c52fd12f31907bcf,,,,,,,,,,,,,,,,,,,,,,,a,1,0.8395,"[""0.253"",""0.338"",""0.910"",""0.952""]","[0,1,1,1]",0,52,52,52,1,0,0,,,1,FALSE,,,,,,,,,,,,,,,,,,,,,,,,,,,,,,,
,5d6d82acab68f90001f53194,627c6fdb9bfc50338e6155d0,2022-05-12_03h34.05.179,classification_task,2021.2.3,Win32,59.98080614,627c6715c52fd12f31907bcf,,,,,,,,,,,,,,,,,,,,,,,l,1,0.7344,"[""0.038"",""0.377"",""0.773"",""0.809""]","[1,1,0,1]",0,53,53,53,1,1,1,,,1,FALSE,,,,,,,,,,,,,,,,,,,,,,,,,,,,,,,
,5d6d82acab68f90001f53194,627c6fdb9bfc50338e6155d0,2022-05-12_03h34.05.179,classification_task,2021.2.3,Win32,59.98080614,627c6715c52fd12f31907bcf,,,,,,,,,,,,,,,,,,,,,,,a,1,1.0395,"[""0.212"",""0.338"",""0.910"",""0.302""]","[1,1,1,0]",0,54,54,54,1,0,0,,,1,FALSE,,,,,,,,,,,,,,,,,,,,,,,,,,,,,,,
,5d6d82acab68f90001f53194,627c6fdb9bfc50338e6155d0,2022-05-12_03h34.05.179,classification_task,2021.2.3,Win32,59.98080614,627c6715c52fd12f31907bcf,,,,,,,,,,,,,,,,,,,,,,,l,1,0.9093,"[""0.092"",""0.417"",""0.286"",""0.681""]","[1,1,0,1]",0,55,55,55,1,1,0,,,1,FALSE,,,,,,,,,,,,,,,,,,,,,,,,,,,,,,,
,5d6d82acab68f90001f53194,627c6fdb9bfc50338e6155d0,2022-05-12_03h34.05.179,classification_task,2021.2.3,Win32,59.98080614,627c6715c52fd12f31907bcf,,,,,,,,,,,,,,,,,,,,,,,a,0,1.2008,"[""0.279"",""0.377"",""0.501"",""0.809""]","[0,1,1,1]",0,56,56,56,1,1,1,,,1,FALSE,,,,,,,,,,,,,,,,,,,,,,,,,,,,,,,
,5d6d82acab68f90001f53194,627c6fdb9bfc50338e6155d0,2022-05-12_03h34.05.179,classification_task,2021.2.3,Win32,59.98080614,627c6715c52fd12f31907bcf,,,,,,,,,,,,,,,,,,,,,,,a,1,2.5601,"[""0.172"",""0.459"",""0.129"",""0.868""]","[1,1,0,1]",0,57,57,57,1,0,1,,,1,FALSE,,,,,,,,,,,,,,,,,,,,,,,,,,,,,,,
,5d6d82acab68f90001f53194,627c6fdb9bfc50338e6155d0,2022-05-12_03h34.05.179,classification_task,2021.2.3,Win32,59.98080614,627c6715c52fd12f31907bcf,,,,,,,,,,,,,,,,,,,,,,,l,1,0.7557,"[""0.038"",""0.253"",""0.501"",""0.809""]","[1,0,1,1]",0,58,58,58,1,1,1,,,1,FALSE,,,,,,,,,,,,,,,,,,,,,,,,,,,,,,,
,5d6d82acab68f90001f53194,627c6fdb9bfc50338e6155d0,2022-05-12_03h34.05.179,classification_task,2021.2.3,Win32,59.98080614,627c6715c52fd12f31907bcf,,,,,,,,,,,,,,,,,,,,,,,a,1,0.8837,"[""0.212"",""0.338"",""0.262"",""0.952""]","[1,1,0,1]",0,59,59,59,1,0,0,,,1,FALSE,,,,,,,,,,,,,,,,,,,,,,,,,,,,,,,
,5d6d82acab68f90001f53194,627c6fdb9bfc50338e6155d0,2022-05-12_03h34.05.179,classification_task,2021.2.3,Win32,59.98080614,627c6715c52fd12f31907bcf,,,,,,,,,,,,,,,,,,,,,,,a,0,2.9022,"[""0.279"",""0.417"",""0.571"",""0.681""]","[0,1,1,1]",0,60,60,60,1,1,0,,,1,FALSE,,,,,,,,,,,,,,,,,,,,,,,,,,,,,,,
,5d6d82acab68f90001f53194,627c6fdb9bfc50338e6155d0,2022-05-12_03h34.05.179,classification_task,2021.2.3,Win32,59.98080614,627c6715c52fd12f31907bcf,,,,,,,,,,,,,,,,,,,,,,,a,1,0.9078,"[""0.172"",""0.257"",""0.719"",""0.868""]","[1,0,1,1]",0,61,61,61,1,0,1,,,1,FALSE,,,,,,,,,,,,,,,,,,,,,,,,,,,,,,,
,5d6d82acab68f90001f53194,627c6fdb9bfc50338e6155d0,2022-05-12_03h34.05.179,classification_task,2021.2.3,Win32,59.98080614,627c6715c52fd12f31907bcf,,,,,,,,,,,,,,,,,,,,,,,l,1,0.805,"[""0.092"",""0.417"",""0.571"",""0.296""]","[1,1,1,0]",0,62,62,62,1,1,0,,,1,FALSE,,,,,,,,,,,,,,,,,,,,,,,,,,,,,,,
,5d6d82acab68f90001f53194,627c6fdb9bfc50338e6155d0,2022-05-12_03h34.05.179,classification_task,2021.2.3,Win32,59.98080614,627c6715c52fd12f31907bcf,,,,,,,,,,,,,,,,,,,,,,,a,1,0.8199,"[""0.172"",""0.459"",""0.719"",""0.605""]","[1,1,1,0]",0,63,63,63,1,0,1,,,1,FALSE,,,,,,,,,,,,,,,,,,,,,,,,,,,,,,,
,5d6d82acab68f90001f53194,627c6fdb9bfc50338e6155d0,2022-05-12_03h34.05.179,classification_task,2021.2.3,Win32,59.98080614,627c6715c52fd12f31907bcf,,,,,,,,,,,,,,,,,,,,,,,,,,,,,,,,,,,,,,,0, ,,0,2.476974329,145.0946,0,2,2,2,1,2,3,,,,,,,,,,,,,,,,,,
,5d6d82acab68f90001f53194,627c6fdb9bfc50338e6155d0,2022-05-12_03h34.05.179,classification_task,2021.2.3,Win32,59.98080614,627c6715c52fd12f31907bcf,,,,,,,,,,,,,,,,,,,,,,,,,,,,,,,,,,,,,,,1,  ,,0,8.478346071,146.1931,0,2,2,2,1,2,3,,,,,,,,,,,,,,,,,,
,5d6d82acab68f90001f53194,627c6fdb9bfc50338e6155d0,2022-05-12_03h34.05.179,classification_task,2021.2.3,Win32,59.98080614,627c6715c52fd12f31907bcf,,,,,,,,,,,,,,,,,,,,,,,,,,,,,,,,,,,,,,,2,  ,,0,6.224769743,149.8661,0,2,2,2,1,2,3,,,,,,,,,,,,,,,,,,
,5d6d82acab68f90001f53194,627c6fdb9bfc50338e6155d0,2022-05-12_03h34.05.179,classification_task,2021.2.3,Win32,59.98080614,627c6715c52fd12f31907bcf,,,,,,,,,,,,,,,,,,,,,,,,,,,,,,,,,,,,,,,,,,,,,0,2,2,2,1,,3,,,,,,,,,,,,,,,,,,
,5d6d82acab68f90001f53194,627c6fdb9bfc50338e6155d0,2022-05-12_03h34.05.179,classification_task,2021.2.3,Win32,59.98080614,627c6715c52fd12f31907bcf,,,,,,,,,,,,,,,,,,,,,,,,,,,,,,,,,,,,,,,,,,,,,,,,,,,,,I believe the aid is a competent performer,,0.7,0,4,782.5881,0,0,0,0,1,0,,,,,
,5d6d82acab68f90001f53194,627c6fdb9bfc50338e6155d0,2022-05-12_03h34.05.179,classification_task,2021.2.3,Win32,59.98080614,627c6715c52fd12f31907bcf,,,,,,,,,,,,,,,,,,,,,,,,,,,,,,,,,,,,,,,,,,,,,,,,,,,,,I trust the aid,,0.7,0,4,783.8203,0,0,0,0,1,0,,,,,
,5d6d82acab68f90001f53194,627c6fdb9bfc50338e6155d0,2022-05-12_03h34.05.179,classification_task,2021.2.3,Win32,59.98080614,627c6715c52fd12f31907bcf,,,,,,,,,,,,,,,,,,,,,,,,,,,,,,,,,,,,,,,,,,,,,,,,,,,,,I have confidence in the advice given by the aid,,0.7,0,4,785.4193,0,0,0,0,1,0,,,,,
,5d6d82acab68f90001f53194,627c6fdb9bfc50338e6155d0,2022-05-12_03h34.05.179,classification_task,2021.2.3,Win32,59.98080614,627c6715c52fd12f31907bcf,,,,,,,,,,,,,,,,,,,,,,,,,,,,,,,,,,,,,,,,,,,,,,,,,,,,,I can depend on the aid,,0.7,0,4,787.1179,0,0,0,0,1,0,,,,,
,5d6d82acab68f90001f53194,627c6fdb9bfc50338e6155d0,2022-05-12_03h34.05.179,classification_task,2021.2.3,Win32,59.98080614,627c6715c52fd12f31907bcf,,,,,,,,,,,,,,,,,,,,,,,,,,,,,,,,,,,,,,,,,,,,,,,,,,,,,I can rely on the aid to behave in consistent ways,,0.7,0,5,791.4835,0,0,0,0,1,0,,,,,
,5d6d82acab68f90001f53194,627c6fdb9bfc50338e6155d0,2022-05-12_03h34.05.179,classification_task,2021.2.3,Win32,59.98080614,627c6715c52fd12f31907bcf,,,,,,,,,,,,,,,,,,,,,,,,,,,,,,,,,,,,,,,,,,,,,,,,,,,,,I can rely on the aid to do its best every time I take its advice,,0.7,0,4,794.466,0,0,0,0,1,0,,,,,
,5d6d82acab68f90001f53194,627c6fdb9bfc50338e6155d0,2022-05-12_03h34.05.179,classification_task,2021.2.3,Win32,59.98080614,627c6715c52fd12f31907bcf,,,,,,,,,,,,,,,,,,,,,,,,,,,,,,,,,,,,,,,,,,,,,,,,,,,,,"On trials you completed with assistance from the aid, how frequently did you think the aid was correct?",,0.7,0,100%,,0,0,0,0,1,0,,,,,
,5d6d82acab68f90001f53194,627c6fdb9bfc50338e6155d0,2022-05-12_03h34.05.179,classification_task,2021.2.3,Win32,59.98080614,627c6715c52fd12f31907bcf,,,,,,,,,,,,,,,,,,,,,,,,,,,,,,,,,,,,,,,,,,,,,,,,,,,,,"On trials you completed without the aid, how frequently did you think you were correct?",,0.7,0,55%,,0,0,0,0,1,0,,,,,
,5d6d82acab68f90001f53194,627c6fdb9bfc50338e6155d0,2022-05-12_03h34.05.179,classification_task,2021.2.3,Win32,59.98080614,627c6715c52fd12f31907bcf,,,,,,,,,,,,,,,,,,,,,,,,,,,,,,,,,,,,,,,,,,,,,,,,,,,,,,,,,,,0,0,0,0,1,,,,,,
,5d6d82acab68f90001f53194,627c6fdb9bfc50338e6155d0,2022-05-12_03h34.05.179,classification_task,2021.2.3,Win32,59.98080614,627c6715c52fd12f31907bcf,,,,,,,,,,,,,,,,,,,,,,,,,,,,,,,,,,,,,,,,,,,,,,,,,,,,,,,,,,,,,,,,,space,8.9468,828.4263,,
,5d6d82acab68f90001f53194,627c6fdb9bfc50338e6155d0,2022-05-12_03h34.05.179,classification_task,2021.2.3,Win32,59.98080614,627c6715c52fd12f31907bcf,,,,,,,,,,,,,,,,,,,,,,,,,,,,,,,,,,,,,,,,,,,,,,,,,,,,,,,,,,,,,,,,,,,,"Mozilla/5.0 (Windows NT 10.0; Win64; x64) AppleWebKit/537.36 (KHTML, like Gecko) Chrome/101.0.4951.64 Safari/537.36",
,5d6d82acab68f90001f53194,627c6fdb9bfc50338e6155d0,2022-05-12_03h34.05.179,classification_task,2021.2.3,Win32,59.98080614,627c6715c52fd12f31907bcf,,,,,,,,,,,,,,,,,,,,,,,,,,,,,,,,,,,,,,,,,,,,,,,,,,,,,,,,,,,,,,,,,,,,,LOWLIGHT
