usingWebGL,participant,session,date,expName,psychopyVersion,OS,frameRate,study_id,signatures_friend,signatures_foe,band_ranges_top,band_ranges_bottom,formitemText,formtype,formundefined,formitemWidth,formindex,formresponse,formrt,key_resp_2.keys,key_resp_2.rt,tute_resp.keys,tute_resp.rt,tutorial.thisRepN,tutorial.thisTrialN,tutorial.thisN,tutorial.thisIndex,tutorial.ran,key_resp_4.keys,key_resp_4.rt,key_resp.keys,key_resp.corr,key_resp.rt,lines_presented,is_signal_presented,trials.thisRepN,trials.thisTrialN,trials.thisN,trials.thisIndex,trials.ran,vessel,active_band,lines,is_signal,supported_pos,catch_trial,debrief_formindex,debrief_formitemText,debrief_formtype,debrief_formitemWidth,debrief_formresponse,debrief_formrt,phases.thisRepN,phases.thisTrialN,phases.thisN,phases.thisIndex,phases.ran,phases.order,phase,key_resp_3.keys,trustitemText,trusttype,trustitemWidth,trustindex,trustresponse,trustrt,support_status.thisRepN,support_status.thisTrialN,support_status.thisN,support_status.thisIndex,support_status.ran,support_status.order,key_resp_5.keys,key_resp_5.rt,globalClockTime,userAgent,manualCondition
TRUE,5d7513fbad0dbc00010f8fa8,627c7471b5d79924877b2a07,2022-05-11_21h44.38.369,classification_task,2021.2.3,MacIntel,60.0024001,627c6715c52fd12f31907bcf,,,,,,,,,,,,,,,,,,,,,,,,,,,,,,,,,,,,,,,,,,,,,,,,,,,,,,,,,,,,,,,,,,,,,
,5d7513fbad0dbc00010f8fa8,627c7471b5d79924877b2a07,2022-05-11_21h44.38.369,classification_task,2021.2.3,MacIntel,60.0024001,627c6715c52fd12f31907bcf,"[[""0.208"",""0.453"",""0.900"",""0.944""],[""0.255"",""0.528"",""0.672"",""0.865""]]","[[""0.045"",""0.298"",""0.587"",""0.794""],[""0.101"",""0.417"",""0.625"",""0.831""]]","[1,10]","[100,1000]",Video game experience,,,0.7,0,,,,,,,,,,,,,,,,,,,,,,,,,,,,,,,,,,,,,,,,,,,,,,,,,,,,,,,,,,,,
,5d7513fbad0dbc00010f8fa8,627c7471b5d79924877b2a07,2022-05-11_21h44.38.369,classification_task,2021.2.3,MacIntel,60.0024001,627c6715c52fd12f31907bcf,,,,,Approximately how many hours did you spend playing video games in the last week?,,,0.7,0,5,,,,,,,,,,,,,,,,,,,,,,,,,,,,,,,,,,,,,,,,,,,,,,,,,,,,,,,,,,,
,5d7513fbad0dbc00010f8fa8,627c7471b5d79924877b2a07,2022-05-11_21h44.38.369,classification_task,2021.2.3,MacIntel,60.0024001,627c6715c52fd12f31907bcf,,,,,"Which game did you play the most this year? (Enter ""None"" if you didn't play any)",,,0.7,0,War Thunder,,,,,,,,,,,,,,,,,,,,,,,,,,,,,,,,,,,,,,,,,,,,,,,,,,,,,,,,,,,
,5d7513fbad0dbc00010f8fa8,627c7471b5d79924877b2a07,2022-05-11_21h44.38.369,classification_task,2021.2.3,MacIntel,60.0024001,627c6715c52fd12f31907bcf,,,,,Visual perception,,,0.7,0,,,,,,,,,,,,,,,,,,,,,,,,,,,,,,,,,,,,,,,,,,,,,,,,,,,,,,,,,,,,
,5d7513fbad0dbc00010f8fa8,627c7471b5d79924877b2a07,2022-05-11_21h44.38.369,classification_task,2021.2.3,MacIntel,60.0024001,627c6715c52fd12f31907bcf,,,,,Do you have any form of color blindness?,,,0.7,0,No,24.354,,,,,,,,,,,,,,,,,,,,,,,,,,,,,,,,,,,,,,,,,,,,,,,,,,,,,,,,,,
,5d7513fbad0dbc00010f8fa8,627c7471b5d79924877b2a07,2022-05-11_21h44.38.369,classification_task,2021.2.3,MacIntel,60.0024001,627c6715c52fd12f31907bcf,,,,,Do you use software to change the colour temperature of your screen (e.g. f.lux)?,,,0.7,0,No,27.035,,,,,,,,,,,,,,,,,,,,,,,,,,,,,,,,,,,,,,,,,,,,,,,,,,,,,,,,,,
,5d7513fbad0dbc00010f8fa8,627c7471b5d79924877b2a07,2022-05-11_21h44.38.369,classification_task,2021.2.3,MacIntel,60.0024001,627c6715c52fd12f31907bcf,,,,,,,,,,,,space,24.0792,space,9.835,0,0,0,0,1,,,,,,,,,,,,,,,,,,,,,,,,,,,,,,,,,,,,,,,,,,,,,,,,,
,5d7513fbad0dbc00010f8fa8,627c7471b5d79924877b2a07,2022-05-11_21h44.38.369,classification_task,2021.2.3,MacIntel,60.0024001,627c6715c52fd12f31907bcf,,,,,,,,,,,,,,space,6.4204,1,0,1,0,1,,,,,,,,,,,,,,,,,,,,,,,,,,,,,,,,,,,,,,,,,,,,,,,,,
,5d7513fbad0dbc00010f8fa8,627c7471b5d79924877b2a07,2022-05-11_21h44.38.369,classification_task,2021.2.3,MacIntel,60.0024001,627c6715c52fd12f31907bcf,,,,,,,,,,,,,,space,27.3102,2,0,2,0,1,,,,,,,,,,,,,,,,,,,,,,,,,,,,,,,,,,,,,,,,,,,,,,,,,
,5d7513fbad0dbc00010f8fa8,627c7471b5d79924877b2a07,2022-05-11_21h44.38.369,classification_task,2021.2.3,MacIntel,60.0024001,627c6715c52fd12f31907bcf,,,,,,,,,,,,,,space,7.4859,3,0,3,0,1,,,,,,,,,,,,,,,,,,,,,,,,,,,,,,,,,,,,,,,,,,,,,,,,,
,5d7513fbad0dbc00010f8fa8,627c7471b5d79924877b2a07,2022-05-11_21h44.38.369,classification_task,2021.2.3,MacIntel,60.0024001,627c6715c52fd12f31907bcf,,,,,,,,,,,,,,space,13.6688,4,0,4,0,1,,,,,,,,,,,,,,,,,,,,,,,,,,,,,,,,,,,,,,,,,,,,,,,,,
,5d7513fbad0dbc00010f8fa8,627c7471b5d79924877b2a07,2022-05-11_21h44.38.369,classification_task,2021.2.3,MacIntel,60.0024001,627c6715c52fd12f31907bcf,,,,,,,,,,,,,,,,,,,,,space,13.227,a,1,4.7566,"[""0.208"",""0.453"",""0.166"",""0.944""]","[1,1,0,1]",0,0,0,0,1,0,0,,,1,FALSE,,,,,,,,,,,,,,,,,,,,,,,,,,,,,,,
,5d7513fbad0dbc00010f8fa8,627c7471b5d79924877b2a07,2022-05-11_21h44.38.369,classification_task,2021.2.3,MacIntel,60.0024001,627c6715c52fd12f31907bcf,,,,,,,,,,,,,,,,,,,,,,,a,1,3.8688,"[""0.145"",""0.453"",""0.900"",""0.944""]","[0,1,1,1]",0,1,1,1,1,0,0,,,1,FALSE,,,,,,,,,,,,,,,,,,,,,,,,,,,,,,,
,5d7513fbad0dbc00010f8fa8,627c7471b5d79924877b2a07,2022-05-11_21h44.38.369,classification_task,2021.2.3,MacIntel,60.0024001,627c6715c52fd12f31907bcf,,,,,,,,,,,,,,,,,,,,,,,l,1,3.4166,"[""0.101"",""0.417"",""0.625"",""0.714""]","[1,1,1,0]",0,2,2,2,1,1,1,,,1,FALSE,,,,,,,,,,,,,,,,,,,,,,,,,,,,,,,
,5d7513fbad0dbc00010f8fa8,627c7471b5d79924877b2a07,2022-05-11_21h44.38.369,classification_task,2021.2.3,MacIntel,60.0024001,627c6715c52fd12f31907bcf,,,,,,,,,,,,,,,,,,,,,,,,0,,"[""0.208"",""0.135"",""0.900"",""0.944""]","[1,0,1,1]",0,3,3,3,1,0,0,,,1,FALSE,,,,,,,,,,,,,,,,,,,,,,,,,,,,,,,
,5d7513fbad0dbc00010f8fa8,627c7471b5d79924877b2a07,2022-05-11_21h44.38.369,classification_task,2021.2.3,MacIntel,60.0024001,627c6715c52fd12f31907bcf,,,,,,,,,,,,,,,,,,,,,,,l,1,3.6633,"[""0.101"",""0.366"",""0.625"",""0.831""]","[1,0,1,1]",0,4,4,4,1,1,1,,,1,FALSE,,,,,,,,,,,,,,,,,,,,,,,,,,,,,,,
,5d7513fbad0dbc00010f8fa8,627c7471b5d79924877b2a07,2022-05-11_21h44.38.369,classification_task,2021.2.3,MacIntel,60.0024001,627c6715c52fd12f31907bcf,,,,,,,,,,,,,,,,,,,,,,,l,1,6.936,"[""0.045"",""0.366"",""0.587"",""0.794""]","[1,0,1,1]",0,5,5,5,1,1,0,,,1,FALSE,,,,,,,,,,,,,,,,,,,,,,,,,,,,,,,
,5d7513fbad0dbc00010f8fa8,627c7471b5d79924877b2a07,2022-05-11_21h44.38.369,classification_task,2021.2.3,MacIntel,60.0024001,627c6715c52fd12f31907bcf,,,,,,,,,,,,,,,,,,,,,,,,0,,"[""0.714"",""0.417"",""0.625"",""0.831""]","[0,1,1,1]",0,6,6,6,1,1,1,,,1,FALSE,,,,,,,,,,,,,,,,,,,,,,,,,,,,,,,
,5d7513fbad0dbc00010f8fa8,627c7471b5d79924877b2a07,2022-05-11_21h44.38.369,classification_task,2021.2.3,MacIntel,60.0024001,627c6715c52fd12f31907bcf,,,,,,,,,,,,,,,,,,,,,,,l,1,7.1892,"[""0.729"",""0.298"",""0.587"",""0.794""]","[0,1,1,1]",0,7,7,7,1,1,0,,,1,FALSE,,,,,,,,,,,,,,,,,,,,,,,,,,,,,,,
,5d7513fbad0dbc00010f8fa8,627c7471b5d79924877b2a07,2022-05-11_21h44.38.369,classification_task,2021.2.3,MacIntel,60.0024001,627c6715c52fd12f31907bcf,,,,,,,,,,,,,,,,,,,,,,,a,1,5.743,"[""0.717"",""0.528"",""0.672"",""0.865""]","[0,1,1,1]",0,8,8,8,1,0,1,,,1,FALSE,,,,,,,,,,,,,,,,,,,,,,,,,,,,,,,
,5d7513fbad0dbc00010f8fa8,627c7471b5d79924877b2a07,2022-05-11_21h44.38.369,classification_task,2021.2.3,MacIntel,60.0024001,627c6715c52fd12f31907bcf,,,,,,,,,,,,,,,,,,,,,,,a,1,7.795,"[""0.255"",""0.163"",""0.672"",""0.865""]","[1,0,1,1]",0,9,9,9,1,0,1,,,1,FALSE,,,,,,,,,,,,,,,,,,,,,,,,,,,,,,,
,5d7513fbad0dbc00010f8fa8,627c7471b5d79924877b2a07,2022-05-11_21h44.38.369,classification_task,2021.2.3,MacIntel,60.0024001,627c6715c52fd12f31907bcf,,,,,,,,,,,,,,,,,,,,,,,l,1,3.7428,"[""0.045"",""0.298"",""0.729"",""0.794""]","[1,1,0,1]",0,10,10,10,1,1,0,,,1,FALSE,,,,,,,,,,,,,,,,,,,,,,,,,,,,,,,
,5d7513fbad0dbc00010f8fa8,627c7471b5d79924877b2a07,2022-05-11_21h44.38.369,classification_task,2021.2.3,MacIntel,60.0024001,627c6715c52fd12f31907bcf,,,,,,,,,,,,,,,,,,,,,,,l,1,3.7003,"[""0.101"",""0.417"",""0.135"",""0.831""]","[1,1,0,1]",0,11,11,11,1,1,1,,,1,FALSE,,,,,,,,,,,,,,,,,,,,,,,,,,,,,,,
,5d7513fbad0dbc00010f8fa8,627c7471b5d79924877b2a07,2022-05-11_21h44.38.369,classification_task,2021.2.3,MacIntel,60.0024001,627c6715c52fd12f31907bcf,,,,,,,,,,,,,,,,,,,,,,,a,1,6.7262,"[""0.255"",""0.528"",""0.672"",""0.145""]","[1,1,1,0]",0,12,12,12,1,0,1,,,1,FALSE,,,,,,,,,,,,,,,,,,,,,,,,,,,,,,,
,5d7513fbad0dbc00010f8fa8,627c7471b5d79924877b2a07,2022-05-11_21h44.38.369,classification_task,2021.2.3,MacIntel,60.0024001,627c6715c52fd12f31907bcf,,,,,,,,,,,,,,,,,,,,,,,a,1,4.8298,"[""0.255"",""0.528"",""0.166"",""0.865""]","[1,1,0,1]",0,13,13,13,1,0,1,,,1,FALSE,,,,,,,,,,,,,,,,,,,,,,,,,,,,,,,
,5d7513fbad0dbc00010f8fa8,627c7471b5d79924877b2a07,2022-05-11_21h44.38.369,classification_task,2021.2.3,MacIntel,60.0024001,627c6715c52fd12f31907bcf,,,,,,,,,,,,,,,,,,,,,,,l,1,3.1748,"[""0.045"",""0.298"",""0.587"",""0.714""]","[1,1,1,0]",0,14,14,14,1,1,0,,,1,FALSE,,,,,,,,,,,,,,,,,,,,,,,,,,,,,,,
,5d7513fbad0dbc00010f8fa8,627c7471b5d79924877b2a07,2022-05-11_21h44.38.369,classification_task,2021.2.3,MacIntel,60.0024001,627c6715c52fd12f31907bcf,,,,,,,,,,,,,,,,,,,,,,,a,1,3.1285,"[""0.208"",""0.453"",""0.900"",""0.742""]","[1,1,1,0]",0,15,15,15,1,0,0,,,1,FALSE,,,,,,,,,,,,,,,,,,,,,,,,,,,,,,,
,5d7513fbad0dbc00010f8fa8,627c7471b5d79924877b2a07,2022-05-11_21h44.38.369,classification_task,2021.2.3,MacIntel,60.0024001,627c6715c52fd12f31907bcf,,,,,,,,,,,,,,,,,,,,,,,a,1,3.5573,"[""0.208"",""0.166"",""0.900"",""0.944""]","[1,0,1,1]",0,16,16,16,1,0,0,,,1,FALSE,,,,,,,,,,,,,,,,,,,,,,,,,,,,,,,
,5d7513fbad0dbc00010f8fa8,627c7471b5d79924877b2a07,2022-05-11_21h44.38.369,classification_task,2021.2.3,MacIntel,60.0024001,627c6715c52fd12f31907bcf,,,,,,,,,,,,,,,,,,,,,,,l,1,3.1942,"[""0.101"",""0.166"",""0.625"",""0.831""]","[1,0,1,1]",0,17,17,17,1,1,1,,,1,FALSE,,,,,,,,,,,,,,,,,,,,,,,,,,,,,,,
,5d7513fbad0dbc00010f8fa8,627c7471b5d79924877b2a07,2022-05-11_21h44.38.369,classification_task,2021.2.3,MacIntel,60.0024001,627c6715c52fd12f31907bcf,,,,,,,,,,,,,,,,,,,,,,,l,1,3.7945,"[""0.341"",""0.298"",""0.587"",""0.794""]","[0,1,1,1]",0,18,18,18,1,1,0,,,1,FALSE,,,,,,,,,,,,,,,,,,,,,,,,,,,,,,,
,5d7513fbad0dbc00010f8fa8,627c7471b5d79924877b2a07,2022-05-11_21h44.38.369,classification_task,2021.2.3,MacIntel,60.0024001,627c6715c52fd12f31907bcf,,,,,,,,,,,,,,,,,,,,,,,l,1,3.9519,"[""0.366"",""0.417"",""0.625"",""0.831""]","[0,1,1,1]",0,19,19,19,1,1,1,,,1,FALSE,,,,,,,,,,,,,,,,,,,,,,,,,,,,,,,
,5d7513fbad0dbc00010f8fa8,627c7471b5d79924877b2a07,2022-05-11_21h44.38.369,classification_task,2021.2.3,MacIntel,60.0024001,627c6715c52fd12f31907bcf,,,,,,,,,,,,,,,,,,,,,,,l,1,2.3304,"[""0.101"",""0.417"",""0.381"",""0.831""]","[1,1,0,1]",0,20,20,20,1,1,1,,,1,FALSE,,,,,,,,,,,,,,,,,,,,,,,,,,,,,,,
,5d7513fbad0dbc00010f8fa8,627c7471b5d79924877b2a07,2022-05-11_21h44.38.369,classification_task,2021.2.3,MacIntel,60.0024001,627c6715c52fd12f31907bcf,,,,,,,,,,,,,,,,,,,,,,,a,1,5.2983,"[""0.166"",""0.528"",""0.672"",""0.865""]","[0,1,1,1]",0,21,21,21,1,0,1,,,1,FALSE,,,,,,,,,,,,,,,,,,,,,,,,,,,,,,,
,5d7513fbad0dbc00010f8fa8,627c7471b5d79924877b2a07,2022-05-11_21h44.38.369,classification_task,2021.2.3,MacIntel,60.0024001,627c6715c52fd12f31907bcf,,,,,,,,,,,,,,,,,,,,,,,a,1,2.6211,"[""0.714"",""0.453"",""0.900"",""0.944""]","[0,1,1,1]",0,22,22,22,1,0,0,,,1,FALSE,,,,,,,,,,,,,,,,,,,,,,,,,,,,,,,
,5d7513fbad0dbc00010f8fa8,627c7471b5d79924877b2a07,2022-05-11_21h44.38.369,classification_task,2021.2.3,MacIntel,60.0024001,627c6715c52fd12f31907bcf,,,,,,,,,,,,,,,,,,,,,,,l,1,2.3275,"[""0.101"",""0.417"",""0.625"",""0.135""]","[1,1,1,0]",0,23,23,23,1,1,1,,,1,FALSE,,,,,,,,,,,,,,,,,,,,,,,,,,,,,,,
,5d7513fbad0dbc00010f8fa8,627c7471b5d79924877b2a07,2022-05-11_21h44.38.369,classification_task,2021.2.3,MacIntel,60.0024001,627c6715c52fd12f31907bcf,,,,,,,,,,,,,,,,,,,,,,,a,1,2.2309,"[""0.255"",""0.528"",""0.672"",""0.732""]","[1,1,1,0]",0,24,24,24,1,0,1,,,1,FALSE,,,,,,,,,,,,,,,,,,,,,,,,,,,,,,,
,5d7513fbad0dbc00010f8fa8,627c7471b5d79924877b2a07,2022-05-11_21h44.38.369,classification_task,2021.2.3,MacIntel,60.0024001,627c6715c52fd12f31907bcf,,,,,,,,,,,,,,,,,,,,,,,a,1,2.0313,"[""0.255"",""0.528"",""0.732"",""0.865""]","[1,1,0,1]",0,25,25,25,1,0,1,,,1,FALSE,,,,,,,,,,,,,,,,,,,,,,,,,,,,,,,
,5d7513fbad0dbc00010f8fa8,627c7471b5d79924877b2a07,2022-05-11_21h44.38.369,classification_task,2021.2.3,MacIntel,60.0024001,627c6715c52fd12f31907bcf,,,,,,,,,,,,,,,,,,,,,,,a,1,2.9236,"[""0.208"",""0.453"",""0.900"",""0.163""]","[1,1,1,0]",0,26,26,26,1,0,0,,,1,FALSE,,,,,,,,,,,,,,,,,,,,,,,,,,,,,,,
,5d7513fbad0dbc00010f8fa8,627c7471b5d79924877b2a07,2022-05-11_21h44.38.369,classification_task,2021.2.3,MacIntel,60.0024001,627c6715c52fd12f31907bcf,,,,,,,,,,,,,,,,,,,,,,,l,1,4.03,"[""0.045"",""0.298"",""0.732"",""0.794""]","[1,1,0,1]",0,27,27,27,1,1,0,,,1,FALSE,,,,,,,,,,,,,,,,,,,,,,,,,,,,,,,
,5d7513fbad0dbc00010f8fa8,627c7471b5d79924877b2a07,2022-05-11_21h44.38.369,classification_task,2021.2.3,MacIntel,60.0024001,627c6715c52fd12f31907bcf,,,,,,,,,,,,,,,,,,,,,,,l,1,2.1438,"[""0.045"",""0.341"",""0.587"",""0.794""]","[1,0,1,1]",0,28,28,28,1,1,0,,,1,FALSE,,,,,,,,,,,,,,,,,,,,,,,,,,,,,,,
,5d7513fbad0dbc00010f8fa8,627c7471b5d79924877b2a07,2022-05-11_21h44.38.369,classification_task,2021.2.3,MacIntel,60.0024001,627c6715c52fd12f31907bcf,,,,,,,,,,,,,,,,,,,,,,,a,1,4.4058,"[""0.208"",""0.453"",""0.135"",""0.944""]","[1,1,0,1]",0,29,29,29,1,0,0,,,1,FALSE,,,,,,,,,,,,,,,,,,,,,,,,,,,,,,,
,5d7513fbad0dbc00010f8fa8,627c7471b5d79924877b2a07,2022-05-11_21h44.38.369,classification_task,2021.2.3,MacIntel,60.0024001,627c6715c52fd12f31907bcf,,,,,,,,,,,,,,,,,,,,,,,a,1,2.2428,"[""0.255"",""0.166"",""0.672"",""0.865""]","[1,0,1,1]",0,30,30,30,1,0,1,,,1,FALSE,,,,,,,,,,,,,,,,,,,,,,,,,,,,,,,
,5d7513fbad0dbc00010f8fa8,627c7471b5d79924877b2a07,2022-05-11_21h44.38.369,classification_task,2021.2.3,MacIntel,60.0024001,627c6715c52fd12f31907bcf,,,,,,,,,,,,,,,,,,,,,,,l,1,2.0385,"[""0.045"",""0.298"",""0.587"",""0.162""]","[1,1,1,0]",0,31,31,31,1,1,0,,,1,FALSE,,,,,,,,,,,,,,,,,,,,,,,,,,,,,,,
,5d7513fbad0dbc00010f8fa8,627c7471b5d79924877b2a07,2022-05-11_21h44.38.369,classification_task,2021.2.3,MacIntel,60.0024001,627c6715c52fd12f31907bcf,,,,,,,,,,,,,,,,,,,,,,,a,1,3.7109,"[""0.208"",""0.453"",""0.166"",""0.944""]","[1,1,0,1]",0,32,32,32,1,0,0,,,1,FALSE,,,,,,,,,,,,,,,,,,,,,,,,,,,,,,,
,5d7513fbad0dbc00010f8fa8,627c7471b5d79924877b2a07,2022-05-11_21h44.38.369,classification_task,2021.2.3,MacIntel,60.0024001,627c6715c52fd12f31907bcf,,,,,,,,,,,,,,,,,,,,,,,l,1,3.4954,"[""0.045"",""0.166"",""0.587"",""0.794""]","[1,0,1,1]",0,33,33,33,1,1,0,,,1,FALSE,,,,,,,,,,,,,,,,,,,,,,,,,,,,,,,
,5d7513fbad0dbc00010f8fa8,627c7471b5d79924877b2a07,2022-05-11_21h44.38.369,classification_task,2021.2.3,MacIntel,60.0024001,627c6715c52fd12f31907bcf,,,,,,,,,,,,,,,,,,,,,,,a,0,2.6719,"[""0.101"",""0.417"",""0.625"",""0.729""]","[1,1,1,0]",0,34,34,34,1,1,1,,,1,FALSE,,,,,,,,,,,,,,,,,,,,,,,,,,,,,,,
,5d7513fbad0dbc00010f8fa8,627c7471b5d79924877b2a07,2022-05-11_21h44.38.369,classification_task,2021.2.3,MacIntel,60.0024001,627c6715c52fd12f31907bcf,,,,,,,,,,,,,,,,,,,,,,,a,0,1.7958,"[""0.742"",""0.417"",""0.625"",""0.831""]","[0,1,1,1]",0,35,35,35,1,1,1,,,1,FALSE,,,,,,,,,,,,,,,,,,,,,,,,,,,,,,,
,5d7513fbad0dbc00010f8fa8,627c7471b5d79924877b2a07,2022-05-11_21h44.38.369,classification_task,2021.2.3,MacIntel,60.0024001,627c6715c52fd12f31907bcf,,,,,,,,,,,,,,,,,,,,,,,a,0,2.3634,"[""0.045"",""0.298"",""0.587"",""0.381""]","[1,1,1,0]",0,36,36,36,1,1,0,,,1,FALSE,,,,,,,,,,,,,,,,,,,,,,,,,,,,,,,
,5d7513fbad0dbc00010f8fa8,627c7471b5d79924877b2a07,2022-05-11_21h44.38.369,classification_task,2021.2.3,MacIntel,60.0024001,627c6715c52fd12f31907bcf,,,,,,,,,,,,,,,,,,,,,,,a,1,2.6152,"[""0.366"",""0.528"",""0.672"",""0.865""]","[0,1,1,1]",0,37,37,37,1,0,1,,,1,FALSE,,,,,,,,,,,,,,,,,,,,,,,,,,,,,,,
,5d7513fbad0dbc00010f8fa8,627c7471b5d79924877b2a07,2022-05-11_21h44.38.369,classification_task,2021.2.3,MacIntel,60.0024001,627c6715c52fd12f31907bcf,,,,,,,,,,,,,,,,,,,,,,,l,0,2.4227,"[""0.255"",""0.166"",""0.672"",""0.865""]","[1,0,1,1]",0,38,38,38,1,0,1,,,1,FALSE,,,,,,,,,,,,,,,,,,,,,,,,,,,,,,,
,5d7513fbad0dbc00010f8fa8,627c7471b5d79924877b2a07,2022-05-11_21h44.38.369,classification_task,2021.2.3,MacIntel,60.0024001,627c6715c52fd12f31907bcf,,,,,,,,,,,,,,,,,,,,,,,l,1,0.7791,"[""0.101"",""0.717"",""0.625"",""0.831""]","[1,0,1,1]",0,39,39,39,1,1,1,,,1,FALSE,,,,,,,,,,,,,,,,,,,,,,,,,,,,,,,
,5d7513fbad0dbc00010f8fa8,627c7471b5d79924877b2a07,2022-05-11_21h44.38.369,classification_task,2021.2.3,MacIntel,60.0024001,627c6715c52fd12f31907bcf,,,,,,,,,,,,,,,,,,,,,,,a,1,0.8293,"[""0.255"",""0.528"",""0.714"",""0.865""]","[1,1,0,1]",0,40,40,40,1,0,1,,,1,FALSE,,,,,,,,,,,,,,,,,,,,,,,,,,,,,,,
,5d7513fbad0dbc00010f8fa8,627c7471b5d79924877b2a07,2022-05-11_21h44.38.369,classification_task,2021.2.3,MacIntel,60.0024001,627c6715c52fd12f31907bcf,,,,,,,,,,,,,,,,,,,,,,,a,1,1.3786,"[""0.255"",""0.528"",""0.672"",""0.166""]","[1,1,1,0]",0,41,41,41,1,0,1,,,1,FALSE,,,,,,,,,,,,,,,,,,,,,,,,,,,,,,,
,5d7513fbad0dbc00010f8fa8,627c7471b5d79924877b2a07,2022-05-11_21h44.38.369,classification_task,2021.2.3,MacIntel,60.0024001,627c6715c52fd12f31907bcf,,,,,,,,,,,,,,,,,,,,,,,a,1,1.5321,"[""0.208"",""0.341"",""0.900"",""0.944""]","[1,0,1,1]",0,42,42,42,1,0,0,,,1,FALSE,,,,,,,,,,,,,,,,,,,,,,,,,,,,,,,
,5d7513fbad0dbc00010f8fa8,627c7471b5d79924877b2a07,2022-05-11_21h44.38.369,classification_task,2021.2.3,MacIntel,60.0024001,627c6715c52fd12f31907bcf,,,,,,,,,,,,,,,,,,,,,,,l,1,1.2813,"[""0.162"",""0.298"",""0.587"",""0.794""]","[0,1,1,1]",0,43,43,43,1,1,0,,,1,FALSE,,,,,,,,,,,,,,,,,,,,,,,,,,,,,,,
,5d7513fbad0dbc00010f8fa8,627c7471b5d79924877b2a07,2022-05-11_21h44.38.369,classification_task,2021.2.3,MacIntel,60.0024001,627c6715c52fd12f31907bcf,,,,,,,,,,,,,,,,,,,,,,,l,1,1.1981,"[""0.045"",""0.298"",""0.714"",""0.794""]","[1,1,0,1]",0,44,44,44,1,1,0,,,1,FALSE,,,,,,,,,,,,,,,,,,,,,,,,,,,,,,,
,5d7513fbad0dbc00010f8fa8,627c7471b5d79924877b2a07,2022-05-11_21h44.38.369,classification_task,2021.2.3,MacIntel,60.0024001,627c6715c52fd12f31907bcf,,,,,,,,,,,,,,,,,,,,,,,a,1,1.5334,"[""0.366"",""0.453"",""0.900"",""0.944""]","[0,1,1,1]",0,45,45,45,1,0,0,,,1,FALSE,,,,,,,,,,,,,,,,,,,,,,,,,,,,,,,
,5d7513fbad0dbc00010f8fa8,627c7471b5d79924877b2a07,2022-05-11_21h44.38.369,classification_task,2021.2.3,MacIntel,60.0024001,627c6715c52fd12f31907bcf,,,,,,,,,,,,,,,,,,,,,,,l,1,1.027,"[""0.101"",""0.417"",""0.732"",""0.831""]","[1,1,0,1]",0,46,46,46,1,1,1,,,1,FALSE,,,,,,,,,,,,,,,,,,,,,,,,,,,,,,,
,5d7513fbad0dbc00010f8fa8,627c7471b5d79924877b2a07,2022-05-11_21h44.38.369,classification_task,2021.2.3,MacIntel,60.0024001,627c6715c52fd12f31907bcf,,,,,,,,,,,,,,,,,,,,,,,l,0,1.9791,"[""0.208"",""0.453"",""0.900"",""0.162""]","[1,1,1,0]",0,47,47,47,1,0,0,,,1,FALSE,,,,,,,,,,,,,,,,,,,,,,,,,,,,,,,
,5d7513fbad0dbc00010f8fa8,627c7471b5d79924877b2a07,2022-05-11_21h44.38.369,classification_task,2021.2.3,MacIntel,60.0024001,627c6715c52fd12f31907bcf,,,,,,,,,,,,,,,,,,,,,,,a,1,2.0593,"[""0.255"",""0.381"",""0.672"",""0.865""]","[1,0,1,1]",0,48,48,48,1,0,1,,,1,FALSE,,,,,,,,,,,,,,,,,,,,,,,,,,,,,,,
,5d7513fbad0dbc00010f8fa8,627c7471b5d79924877b2a07,2022-05-11_21h44.38.369,classification_task,2021.2.3,MacIntel,60.0024001,627c6715c52fd12f31907bcf,,,,,,,,,,,,,,,,,,,,,,,l,1,1.1914,"[""0.045"",""0.298"",""0.587"",""0.166""]","[1,1,1,0]",0,49,49,49,1,1,0,,,1,FALSE,,,,,,,,,,,,,,,,,,,,,,,,,,,,,,,
,5d7513fbad0dbc00010f8fa8,627c7471b5d79924877b2a07,2022-05-11_21h44.38.369,classification_task,2021.2.3,MacIntel,60.0024001,627c6715c52fd12f31907bcf,,,,,,,,,,,,,,,,,,,,,,,l,0,0.832,"[""0.135"",""0.453"",""0.900"",""0.944""]","[0,1,1,1]",0,50,50,50,1,0,0,,,1,FALSE,,,,,,,,,,,,,,,,,,,,,,,,,,,,,,,
,5d7513fbad0dbc00010f8fa8,627c7471b5d79924877b2a07,2022-05-11_21h44.38.369,classification_task,2021.2.3,MacIntel,60.0024001,627c6715c52fd12f31907bcf,,,,,,,,,,,,,,,,,,,,,,,a,0,1.0156,"[""0.714"",""0.417"",""0.625"",""0.831""]","[0,1,1,1]",0,51,51,51,1,1,1,,,1,FALSE,,,,,,,,,,,,,,,,,,,,,,,,,,,,,,,
,5d7513fbad0dbc00010f8fa8,627c7471b5d79924877b2a07,2022-05-11_21h44.38.369,classification_task,2021.2.3,MacIntel,60.0024001,627c6715c52fd12f31907bcf,,,,,,,,,,,,,,,,,,,,,,,a,1,0.9789,"[""0.717"",""0.528"",""0.672"",""0.865""]","[0,1,1,1]",0,52,52,52,1,0,1,,,1,FALSE,,,,,,,,,,,,,,,,,,,,,,,,,,,,,,,
,5d7513fbad0dbc00010f8fa8,627c7471b5d79924877b2a07,2022-05-11_21h44.38.369,classification_task,2021.2.3,MacIntel,60.0024001,627c6715c52fd12f31907bcf,,,,,,,,,,,,,,,,,,,,,,,l,0,1.565,"[""0.255"",""0.528"",""0.366"",""0.865""]","[1,1,0,1]",0,53,53,53,1,0,1,,,1,FALSE,,,,,,,,,,,,,,,,,,,,,,,,,,,,,,,
,5d7513fbad0dbc00010f8fa8,627c7471b5d79924877b2a07,2022-05-11_21h44.38.369,classification_task,2021.2.3,MacIntel,60.0024001,627c6715c52fd12f31907bcf,,,,,,,,,,,,,,,,,,,,,,,l,1,0.6964,"[""0.101"",""0.417"",""0.625"",""0.162""]","[1,1,1,0]",0,54,54,54,1,1,1,,,1,FALSE,,,,,,,,,,,,,,,,,,,,,,,,,,,,,,,
,5d7513fbad0dbc00010f8fa8,627c7471b5d79924877b2a07,2022-05-11_21h44.38.369,classification_task,2021.2.3,MacIntel,60.0024001,627c6715c52fd12f31907bcf,,,,,,,,,,,,,,,,,,,,,,,l,1,1.0584,"[""0.045"",""0.732"",""0.587"",""0.794""]","[1,0,1,1]",0,55,55,55,1,1,0,,,1,FALSE,,,,,,,,,,,,,,,,,,,,,,,,,,,,,,,
,5d7513fbad0dbc00010f8fa8,627c7471b5d79924877b2a07,2022-05-11_21h44.38.369,classification_task,2021.2.3,MacIntel,60.0024001,627c6715c52fd12f31907bcf,,,,,,,,,,,,,,,,,,,,,,,a,0,1.9329,"[""0.101"",""0.417"",""0.341"",""0.831""]","[1,1,0,1]",0,56,56,56,1,1,1,,,1,FALSE,,,,,,,,,,,,,,,,,,,,,,,,,,,,,,,
,5d7513fbad0dbc00010f8fa8,627c7471b5d79924877b2a07,2022-05-11_21h44.38.369,classification_task,2021.2.3,MacIntel,60.0024001,627c6715c52fd12f31907bcf,,,,,,,,,,,,,,,,,,,,,,,a,1,1.2608,"[""0.208"",""0.453"",""0.166"",""0.944""]","[1,1,0,1]",0,57,57,57,1,0,0,,,1,FALSE,,,,,,,,,,,,,,,,,,,,,,,,,,,,,,,
,5d7513fbad0dbc00010f8fa8,627c7471b5d79924877b2a07,2022-05-11_21h44.38.369,classification_task,2021.2.3,MacIntel,60.0024001,627c6715c52fd12f31907bcf,,,,,,,,,,,,,,,,,,,,,,,l,1,3.4758,"[""0.714"",""0.298"",""0.587"",""0.794""]","[0,1,1,1]",0,58,58,58,1,1,0,,,1,FALSE,,,,,,,,,,,,,,,,,,,,,,,,,,,,,,,
,5d7513fbad0dbc00010f8fa8,627c7471b5d79924877b2a07,2022-05-11_21h44.38.369,classification_task,2021.2.3,MacIntel,60.0024001,627c6715c52fd12f31907bcf,,,,,,,,,,,,,,,,,,,,,,,a,1,1.0608,"[""0.208"",""0.453"",""0.900"",""0.135""]","[1,1,1,0]",0,59,59,59,1,0,0,,,1,FALSE,,,,,,,,,,,,,,,,,,,,,,,,,,,,,,,
,5d7513fbad0dbc00010f8fa8,627c7471b5d79924877b2a07,2022-05-11_21h44.38.369,classification_task,2021.2.3,MacIntel,60.0024001,627c6715c52fd12f31907bcf,,,,,,,,,,,,,,,,,,,,,,,l,0,1.7656,"[""0.208"",""0.135"",""0.900"",""0.944""]","[1,0,1,1]",0,60,60,60,1,0,0,,,1,FALSE,,,,,,,,,,,,,,,,,,,,,,,,,,,,,,,
,5d7513fbad0dbc00010f8fa8,627c7471b5d79924877b2a07,2022-05-11_21h44.38.369,classification_task,2021.2.3,MacIntel,60.0024001,627c6715c52fd12f31907bcf,,,,,,,,,,,,,,,,,,,,,,,l,0,1.248,"[""0.255"",""0.528"",""0.672"",""0.729""]","[1,1,1,0]",0,61,61,61,1,0,1,,,1,FALSE,,,,,,,,,,,,,,,,,,,,,,,,,,,,,,,
,5d7513fbad0dbc00010f8fa8,627c7471b5d79924877b2a07,2022-05-11_21h44.38.369,classification_task,2021.2.3,MacIntel,60.0024001,627c6715c52fd12f31907bcf,,,,,,,,,,,,,,,,,,,,,,,l,1,1.1999,"[""0.101"",""0.135"",""0.625"",""0.831""]","[1,0,1,1]",0,62,62,62,1,1,1,,,1,FALSE,,,,,,,,,,,,,,,,,,,,,,,,,,,,,,,
,5d7513fbad0dbc00010f8fa8,627c7471b5d79924877b2a07,2022-05-11_21h44.38.369,classification_task,2021.2.3,MacIntel,60.0024001,627c6715c52fd12f31907bcf,,,,,,,,,,,,,,,,,,,,,,,l,1,1.5154,"[""0.045"",""0.298"",""0.717"",""0.794""]","[1,1,0,1]",0,63,63,63,1,1,0,,,1,FALSE,,,,,,,,,,,,,,,,,,,,,,,,,,,,,,,
,5d7513fbad0dbc00010f8fa8,627c7471b5d79924877b2a07,2022-05-11_21h44.38.369,classification_task,2021.2.3,MacIntel,60.0024001,627c6715c52fd12f31907bcf,,,,,,,,,,,,,,,,,,,,,,,,,,,,,,,,,,,,,,,0, ,,0,7.313243379,503.6965,0,0,0,0,1,2,1,,,,,,,,,,,,,,,,,,
,5d7513fbad0dbc00010f8fa8,627c7471b5d79924877b2a07,2022-05-11_21h44.38.369,classification_task,2021.2.3,MacIntel,60.0024001,627c6715c52fd12f31907bcf,,,,,,,,,,,,,,,,,,,,,,,,,,,,,,,,,,,,,,,1,  ,,0,8.121451726,483.0639,0,0,0,0,1,2,1,,,,,,,,,,,,,,,,,,
,5d7513fbad0dbc00010f8fa8,627c7471b5d79924877b2a07,2022-05-11_21h44.38.369,classification_task,2021.2.3,MacIntel,60.0024001,627c6715c52fd12f31907bcf,,,,,,,,,,,,,,,,,,,,,,,,,,,,,,,,,,,,,,,2,  ,,0,3.017409852,443.8422,0,0,0,0,1,2,1,,,,,,,,,,,,,,,,,,
,5d7513fbad0dbc00010f8fa8,627c7471b5d79924877b2a07,2022-05-11_21h44.38.369,classification_task,2021.2.3,MacIntel,60.0024001,627c6715c52fd12f31907bcf,,,,,,,,,,,,,,,,,,,,,,,,,,,,,,,,,,,,,,,,,,,,,0,0,0,0,1,,1,,,,,,,,,,,,,,,,,,
,5d7513fbad0dbc00010f8fa8,627c7471b5d79924877b2a07,2022-05-11_21h44.38.369,classification_task,2021.2.3,MacIntel,60.0024001,627c6715c52fd12f31907bcf,,,,,,,,,,,,,,,,,,,,,space,31.3026,l,1,1.9062,"[""0.101"",""0.417"",""0.625"",""0.732""]","[1,1,1,0]",0,0,0,0,1,1,1,,,1,FALSE,,,,,,,,,,,,,,,,,,,,,,,,,,,,,,,
,5d7513fbad0dbc00010f8fa8,627c7471b5d79924877b2a07,2022-05-11_21h44.38.369,classification_task,2021.2.3,MacIntel,60.0024001,627c6715c52fd12f31907bcf,,,,,,,,,,,,,,,,,,,,,,,l,0,2.5402,"[""0.729"",""0.453"",""0.900"",""0.944""]","[0,1,1,1]",0,1,1,1,1,0,0,,,1,FALSE,,,,,,,,,,,,,,,,,,,,,,,,,,,,,,,
,5d7513fbad0dbc00010f8fa8,627c7471b5d79924877b2a07,2022-05-11_21h44.38.369,classification_task,2021.2.3,MacIntel,60.0024001,627c6715c52fd12f31907bcf,,,,,,,,,,,,,,,,,,,,,,,l,0,1.7094,"[""0.208"",""0.453"",""0.714"",""0.944""]","[1,1,0,1]",0,2,2,2,1,0,0,,,1,FALSE,,,,,,,,,,,,,,,,,,,,,,,,,,,,,,,
,5d7513fbad0dbc00010f8fa8,627c7471b5d79924877b2a07,2022-05-11_21h44.38.369,classification_task,2021.2.3,MacIntel,60.0024001,627c6715c52fd12f31907bcf,,,,,,,,,,,,,,,,,,,,,,,a,1,2.2682,"[""0.255"",""0.528"",""0.672"",""0.341""]","[1,1,1,0]",0,3,3,3,1,0,1,,,1,FALSE,,,,,,,,,,,,,,,,,,,,,,,,,,,,,,,
,5d7513fbad0dbc00010f8fa8,627c7471b5d79924877b2a07,2022-05-11_21h44.38.369,classification_task,2021.2.3,MacIntel,60.0024001,627c6715c52fd12f31907bcf,,,,,,,,,,,,,,,,,,,,,,,l,1,0.9823,"[""0.101"",""0.417"",""0.366"",""0.831""]","[1,1,0,1]",0,4,4,4,1,1,1,,,1,FALSE,,,,,,,,,,,,,,,,,,,,,,,,,,,,,,,
,5d7513fbad0dbc00010f8fa8,627c7471b5d79924877b2a07,2022-05-11_21h44.38.369,classification_task,2021.2.3,MacIntel,60.0024001,627c6715c52fd12f31907bcf,,,,,,,,,,,,,,,,,,,,,,,l,1,0.9643,"[""0.101"",""0.135"",""0.625"",""0.831""]","[1,0,1,1]",0,5,5,5,1,1,1,,,1,FALSE,,,,,,,,,,,,,,,,,,,,,,,,,,,,,,,
,5d7513fbad0dbc00010f8fa8,627c7471b5d79924877b2a07,2022-05-11_21h44.38.369,classification_task,2021.2.3,MacIntel,60.0024001,627c6715c52fd12f31907bcf,,,,,,,,,,,,,,,,,,,,,,,a,0,2.303,"[""0.045"",""0.298"",""0.587"",""0.714""]","[1,1,1,0]",0,6,6,6,1,1,0,,,1,FALSE,,,,,,,,,,,,,,,,,,,,,,,,,,,,,,,
,5d7513fbad0dbc00010f8fa8,627c7471b5d79924877b2a07,2022-05-11_21h44.38.369,classification_task,2021.2.3,MacIntel,60.0024001,627c6715c52fd12f31907bcf,,,,,,,,,,,,,,,,,,,,,,,l,1,1.0964,"[""0.045"",""0.714"",""0.587"",""0.794""]","[1,0,1,1]",0,7,7,7,1,1,0,,,1,FALSE,,,,,,,,,,,,,,,,,,,,,,,,,,,,,,,
,5d7513fbad0dbc00010f8fa8,627c7471b5d79924877b2a07,2022-05-11_21h44.38.369,classification_task,2021.2.3,MacIntel,60.0024001,627c6715c52fd12f31907bcf,,,,,,,,,,,,,,,,,,,,,,,l,0,1.0815,"[""0.208"",""0.145"",""0.900"",""0.944""]","[1,0,1,1]",0,8,8,8,1,0,0,,,1,FALSE,,,,,,,,,,,,,,,,,,,,,,,,,,,,,,,
,5d7513fbad0dbc00010f8fa8,627c7471b5d79924877b2a07,2022-05-11_21h44.38.369,classification_task,2021.2.3,MacIntel,60.0024001,627c6715c52fd12f31907bcf,,,,,,,,,,,,,,,,,,,,,,,l,1,1.5148,"[""0.045"",""0.298"",""0.381"",""0.794""]","[1,1,0,1]",0,9,9,9,1,1,0,,,1,FALSE,,,,,,,,,,,,,,,,,,,,,,,,,,,,,,,
,5d7513fbad0dbc00010f8fa8,627c7471b5d79924877b2a07,2022-05-11_21h44.38.369,classification_task,2021.2.3,MacIntel,60.0024001,627c6715c52fd12f31907bcf,,,,,,,,,,,,,,,,,,,,,,,a,0,0.7888,"[""0.166"",""0.298"",""0.587"",""0.794""]","[0,1,1,1]",0,10,10,10,1,1,0,,,1,FALSE,,,,,,,,,,,,,,,,,,,,,,,,,,,,,,,
,5d7513fbad0dbc00010f8fa8,627c7471b5d79924877b2a07,2022-05-11_21h44.38.369,classification_task,2021.2.3,MacIntel,60.0024001,627c6715c52fd12f31907bcf,,,,,,,,,,,,,,,,,,,,,,,a,1,0.598,"[""0.208"",""0.453"",""0.900"",""0.742""]","[1,1,1,0]",0,11,11,11,1,0,0,,,1,FALSE,,,,,,,,,,,,,,,,,,,,,,,,,,,,,,,
,5d7513fbad0dbc00010f8fa8,627c7471b5d79924877b2a07,2022-05-11_21h44.38.369,classification_task,2021.2.3,MacIntel,60.0024001,627c6715c52fd12f31907bcf,,,,,,,,,,,,,,,,,,,,,,,a,1,1.2137,"[""0.255"",""0.366"",""0.672"",""0.865""]","[1,0,1,1]",0,12,12,12,1,0,1,,,1,FALSE,,,,,,,,,,,,,,,,,,,,,,,,,,,,,,,
,5d7513fbad0dbc00010f8fa8,627c7471b5d79924877b2a07,2022-05-11_21h44.38.369,classification_task,2021.2.3,MacIntel,60.0024001,627c6715c52fd12f31907bcf,,,,,,,,,,,,,,,,,,,,,,,a,1,4.7667,"[""0.255"",""0.528"",""0.163"",""0.865""]","[1,1,0,1]",0,13,13,13,1,0,1,,,1,FALSE,,,,,,,,,,,,,,,,,,,,,,,,,,,,,,,
,5d7513fbad0dbc00010f8fa8,627c7471b5d79924877b2a07,2022-05-11_21h44.38.369,classification_task,2021.2.3,MacIntel,60.0024001,627c6715c52fd12f31907bcf,,,,,,,,,,,,,,,,,,,,,,,a,1,0.9766,"[""0.366"",""0.528"",""0.672"",""0.865""]","[0,1,1,1]",0,14,14,14,1,0,1,,,1,FALSE,,,,,,,,,,,,,,,,,,,,,,,,,,,,,,,
,5d7513fbad0dbc00010f8fa8,627c7471b5d79924877b2a07,2022-05-11_21h44.38.369,classification_task,2021.2.3,MacIntel,60.0024001,627c6715c52fd12f31907bcf,,,,,,,,,,,,,,,,,,,,,,,l,1,0.8979,"[""0.135"",""0.417"",""0.625"",""0.831""]","[0,1,1,1]",0,15,15,15,1,1,1,,,1,FALSE,,,,,,,,,,,,,,,,,,,,,,,,,,,,,,,
,5d7513fbad0dbc00010f8fa8,627c7471b5d79924877b2a07,2022-05-11_21h44.38.369,classification_task,2021.2.3,MacIntel,60.0024001,627c6715c52fd12f31907bcf,,,,,,,,,,,,,,,,,,,,,,,a,0,1.6604,"[""0.135"",""0.298"",""0.587"",""0.794""]","[0,1,1,1]",0,16,16,16,1,1,0,,,1,FALSE,,,,,,,,,,,,,,,,,,,,,,,,,,,,,,,
,5d7513fbad0dbc00010f8fa8,627c7471b5d79924877b2a07,2022-05-11_21h44.38.369,classification_task,2021.2.3,MacIntel,60.0024001,627c6715c52fd12f31907bcf,,,,,,,,,,,,,,,,,,,,,,,l,1,2.3672,"[""0.101"",""0.417"",""0.625"",""0.135""]","[1,1,1,0]",0,17,17,17,1,1,1,,,1,FALSE,,,,,,,,,,,,,,,,,,,,,,,,,,,,,,,
,5d7513fbad0dbc00010f8fa8,627c7471b5d79924877b2a07,2022-05-11_21h44.38.369,classification_task,2021.2.3,MacIntel,60.0024001,627c6715c52fd12f31907bcf,,,,,,,,,,,,,,,,,,,,,,,a,1,0.9983,"[""0.255"",""0.528"",""0.714"",""0.865""]","[1,1,0,1]",0,18,18,18,1,0,1,,,1,FALSE,,,,,,,,,,,,,,,,,,,,,,,,,,,,,,,
,5d7513fbad0dbc00010f8fa8,627c7471b5d79924877b2a07,2022-05-11_21h44.38.369,classification_task,2021.2.3,MacIntel,60.0024001,627c6715c52fd12f31907bcf,,,,,,,,,,,,,,,,,,,,,,,a,0,3.3439,"[""0.045"",""0.135"",""0.587"",""0.794""]","[1,0,1,1]",0,19,19,19,1,1,0,,,1,FALSE,,,,,,,,,,,,,,,,,,,,,,,,,,,,,,,
,5d7513fbad0dbc00010f8fa8,627c7471b5d79924877b2a07,2022-05-11_21h44.38.369,classification_task,2021.2.3,MacIntel,60.0024001,627c6715c52fd12f31907bcf,,,,,,,,,,,,,,,,,,,,,,,a,1,1.5541,"[""0.208"",""0.166"",""0.900"",""0.944""]","[1,0,1,1]",0,20,20,20,1,0,0,,,1,FALSE,,,,,,,,,,,,,,,,,,,,,,,,,,,,,,,
,5d7513fbad0dbc00010f8fa8,627c7471b5d79924877b2a07,2022-05-11_21h44.38.369,classification_task,2021.2.3,MacIntel,60.0024001,627c6715c52fd12f31907bcf,,,,,,,,,,,,,,,,,,,,,,,a,0,1.9794,"[""0.045"",""0.298"",""0.729"",""0.794""]","[1,1,0,1]",0,21,21,21,1,1,0,,,1,FALSE,,,,,,,,,,,,,,,,,,,,,,,,,,,,,,,
,5d7513fbad0dbc00010f8fa8,627c7471b5d79924877b2a07,2022-05-11_21h44.38.369,classification_task,2021.2.3,MacIntel,60.0024001,627c6715c52fd12f31907bcf,,,,,,,,,,,,,,,,,,,,,,,l,1,1.0546,"[""0.101"",""0.381"",""0.625"",""0.831""]","[1,0,1,1]",0,22,22,22,1,1,1,,,1,FALSE,,,,,,,,,,,,,,,,,,,,,,,,,,,,,,,
,5d7513fbad0dbc00010f8fa8,627c7471b5d79924877b2a07,2022-05-11_21h44.38.369,classification_task,2021.2.3,MacIntel,60.0024001,627c6715c52fd12f31907bcf,,,,,,,,,,,,,,,,,,,,,,,a,1,2.7473,"[""0.208"",""0.453"",""0.145"",""0.944""]","[1,1,0,1]",0,23,23,23,1,0,0,,,1,FALSE,,,,,,,,,,,,,,,,,,,,,,,,,,,,,,,
,5d7513fbad0dbc00010f8fa8,627c7471b5d79924877b2a07,2022-05-11_21h44.38.369,classification_task,2021.2.3,MacIntel,60.0024001,627c6715c52fd12f31907bcf,,,,,,,,,,,,,,,,,,,,,,,l,1,1.6451,"[""0.045"",""0.298"",""0.587"",""0.166""]","[1,1,1,0]",0,24,24,24,1,1,0,,,1,FALSE,,,,,,,,,,,,,,,,,,,,,,,,,,,,,,,
,5d7513fbad0dbc00010f8fa8,627c7471b5d79924877b2a07,2022-05-11_21h44.38.369,classification_task,2021.2.3,MacIntel,60.0024001,627c6715c52fd12f31907bcf,,,,,,,,,,,,,,,,,,,,,,,a,1,1.7786,"[""0.255"",""0.135"",""0.672"",""0.865""]","[1,0,1,1]",0,25,25,25,1,0,1,,,1,FALSE,,,,,,,,,,,,,,,,,,,,,,,,,,,,,,,
,5d7513fbad0dbc00010f8fa8,627c7471b5d79924877b2a07,2022-05-11_21h44.38.369,classification_task,2021.2.3,MacIntel,60.0024001,627c6715c52fd12f31907bcf,,,,,,,,,,,,,,,,,,,,,,,a,1,2.3135,"[""0.162"",""0.453"",""0.900"",""0.944""]","[0,1,1,1]",0,26,26,26,1,0,0,,,1,FALSE,,,,,,,,,,,,,,,,,,,,,,,,,,,,,,,
,5d7513fbad0dbc00010f8fa8,627c7471b5d79924877b2a07,2022-05-11_21h44.38.369,classification_task,2021.2.3,MacIntel,60.0024001,627c6715c52fd12f31907bcf,,,,,,,,,,,,,,,,,,,,,,,a,1,3.2212,"[""0.208"",""0.453"",""0.900"",""0.366""]","[1,1,1,0]",0,27,27,27,1,0,0,,,1,FALSE,,,,,,,,,,,,,,,,,,,,,,,,,,,,,,,
,5d7513fbad0dbc00010f8fa8,627c7471b5d79924877b2a07,2022-05-11_21h44.38.369,classification_task,2021.2.3,MacIntel,60.0024001,627c6715c52fd12f31907bcf,,,,,,,,,,,,,,,,,,,,,,,l,1,2.7591,"[""0.101"",""0.417"",""0.366"",""0.831""]","[1,1,0,1]",0,28,28,28,1,1,1,,,1,FALSE,,,,,,,,,,,,,,,,,,,,,,,,,,,,,,,
,5d7513fbad0dbc00010f8fa8,627c7471b5d79924877b2a07,2022-05-11_21h44.38.369,classification_task,2021.2.3,MacIntel,60.0024001,627c6715c52fd12f31907bcf,,,,,,,,,,,,,,,,,,,,,,,a,1,0.8937,"[""0.717"",""0.528"",""0.672"",""0.865""]","[0,1,1,1]",0,29,29,29,1,0,1,,,1,FALSE,,,,,,,,,,,,,,,,,,,,,,,,,,,,,,,
,5d7513fbad0dbc00010f8fa8,627c7471b5d79924877b2a07,2022-05-11_21h44.38.369,classification_task,2021.2.3,MacIntel,60.0024001,627c6715c52fd12f31907bcf,,,,,,,,,,,,,,,,,,,,,,,a,1,0.9306,"[""0.255"",""0.528"",""0.672"",""0.166""]","[1,1,1,0]",0,30,30,30,1,0,1,,,1,FALSE,,,,,,,,,,,,,,,,,,,,,,,,,,,,,,,
,5d7513fbad0dbc00010f8fa8,627c7471b5d79924877b2a07,2022-05-11_21h44.38.369,classification_task,2021.2.3,MacIntel,60.0024001,627c6715c52fd12f31907bcf,,,,,,,,,,,,,,,,,,,,,,,l,1,0.9954,"[""0.341"",""0.417"",""0.625"",""0.831""]","[0,1,1,1]",0,31,31,31,1,1,1,,,1,FALSE,,,,,,,,,,,,,,,,,,,,,,,,,,,,,,,
,5d7513fbad0dbc00010f8fa8,627c7471b5d79924877b2a07,2022-05-11_21h44.38.369,classification_task,2021.2.3,MacIntel,60.0024001,627c6715c52fd12f31907bcf,,,,,,,,,,,,,,,,,,,,,,,l,1,0.9096,"[""0.163"",""0.417"",""0.625"",""0.831""]","[0,1,1,1]",0,32,32,32,1,1,1,,,1,FALSE,,,,,,,,,,,,,,,,,,,,,,,,,,,,,,,
,5d7513fbad0dbc00010f8fa8,627c7471b5d79924877b2a07,2022-05-11_21h44.38.369,classification_task,2021.2.3,MacIntel,60.0024001,627c6715c52fd12f31907bcf,,,,,,,,,,,,,,,,,,,,,,,a,1,2.1568,"[""0.255"",""0.528"",""0.381"",""0.865""]","[1,1,0,1]",0,33,33,33,1,0,1,,,1,FALSE,,,,,,,,,,,,,,,,,,,,,,,,,,,,,,,
,5d7513fbad0dbc00010f8fa8,627c7471b5d79924877b2a07,2022-05-11_21h44.38.369,classification_task,2021.2.3,MacIntel,60.0024001,627c6715c52fd12f31907bcf,,,,,,,,,,,,,,,,,,,,,,,a,1,1.1138,"[""0.255"",""0.381"",""0.672"",""0.865""]","[1,0,1,1]",0,34,34,34,1,0,1,,,1,FALSE,,,,,,,,,,,,,,,,,,,,,,,,,,,,,,,
,5d7513fbad0dbc00010f8fa8,627c7471b5d79924877b2a07,2022-05-11_21h44.38.369,classification_task,2021.2.3,MacIntel,60.0024001,627c6715c52fd12f31907bcf,,,,,,,,,,,,,,,,,,,,,,,a,0,1.8496,"[""0.045"",""0.742"",""0.587"",""0.794""]","[1,0,1,1]",0,35,35,35,1,1,0,,,1,FALSE,,,,,,,,,,,,,,,,,,,,,,,,,,,,,,,
,5d7513fbad0dbc00010f8fa8,627c7471b5d79924877b2a07,2022-05-11_21h44.38.369,classification_task,2021.2.3,MacIntel,60.0024001,627c6715c52fd12f31907bcf,,,,,,,,,,,,,,,,,,,,,,,a,0,1.7705,"[""0.166"",""0.298"",""0.587"",""0.794""]","[0,1,1,1]",0,36,36,36,1,1,0,,,1,FALSE,,,,,,,,,,,,,,,,,,,,,,,,,,,,,,,
,5d7513fbad0dbc00010f8fa8,627c7471b5d79924877b2a07,2022-05-11_21h44.38.369,classification_task,2021.2.3,MacIntel,60.0024001,627c6715c52fd12f31907bcf,,,,,,,,,,,,,,,,,,,,,,,a,1,0.963,"[""0.255"",""0.528"",""0.672"",""0.717""]","[1,1,1,0]",0,37,37,37,1,0,1,,,1,FALSE,,,,,,,,,,,,,,,,,,,,,,,,,,,,,,,
,5d7513fbad0dbc00010f8fa8,627c7471b5d79924877b2a07,2022-05-11_21h44.38.369,classification_task,2021.2.3,MacIntel,60.0024001,627c6715c52fd12f31907bcf,,,,,,,,,,,,,,,,,,,,,,,l,1,0.8297,"[""0.101"",""0.417"",""0.714"",""0.831""]","[1,1,0,1]",0,38,38,38,1,1,1,,,1,FALSE,,,,,,,,,,,,,,,,,,,,,,,,,,,,,,,
,5d7513fbad0dbc00010f8fa8,627c7471b5d79924877b2a07,2022-05-11_21h44.38.369,classification_task,2021.2.3,MacIntel,60.0024001,627c6715c52fd12f31907bcf,,,,,,,,,,,,,,,,,,,,,,,l,1,0.7602,"[""0.101"",""0.417"",""0.625"",""0.162""]","[1,1,1,0]",0,39,39,39,1,1,1,,,1,FALSE,,,,,,,,,,,,,,,,,,,,,,,,,,,,,,,
,5d7513fbad0dbc00010f8fa8,627c7471b5d79924877b2a07,2022-05-11_21h44.38.369,classification_task,2021.2.3,MacIntel,60.0024001,627c6715c52fd12f31907bcf,,,,,,,,,,,,,,,,,,,,,,,l,1,1.9447,"[""0.045"",""0.298"",""0.742"",""0.794""]","[1,1,0,1]",0,40,40,40,1,1,0,,,1,FALSE,,,,,,,,,,,,,,,,,,,,,,,,,,,,,,,
,5d7513fbad0dbc00010f8fa8,627c7471b5d79924877b2a07,2022-05-11_21h44.38.369,classification_task,2021.2.3,MacIntel,60.0024001,627c6715c52fd12f31907bcf,,,,,,,,,,,,,,,,,,,,,,,a,1,1.4797,"[""0.341"",""0.453"",""0.900"",""0.944""]","[0,1,1,1]",0,41,41,41,1,0,0,,,1,FALSE,,,,,,,,,,,,,,,,,,,,,,,,,,,,,,,
,5d7513fbad0dbc00010f8fa8,627c7471b5d79924877b2a07,2022-05-11_21h44.38.369,classification_task,2021.2.3,MacIntel,60.0024001,627c6715c52fd12f31907bcf,,,,,,,,,,,,,,,,,,,,,,,l,0,1.6931,"[""0.208"",""0.135"",""0.900"",""0.944""]","[1,0,1,1]",0,42,42,42,1,0,0,,,1,FALSE,,,,,,,,,,,,,,,,,,,,,,,,,,,,,,,
,5d7513fbad0dbc00010f8fa8,627c7471b5d79924877b2a07,2022-05-11_21h44.38.369,classification_task,2021.2.3,MacIntel,60.0024001,627c6715c52fd12f31907bcf,,,,,,,,,,,,,,,,,,,,,,,l,0,0.9962,"[""0.208"",""0.453"",""0.900"",""0.742""]","[1,1,1,0]",0,43,43,43,1,0,0,,,1,FALSE,,,,,,,,,,,,,,,,,,,,,,,,,,,,,,,
,5d7513fbad0dbc00010f8fa8,627c7471b5d79924877b2a07,2022-05-11_21h44.38.369,classification_task,2021.2.3,MacIntel,60.0024001,627c6715c52fd12f31907bcf,,,,,,,,,,,,,,,,,,,,,,,l,1,1.3474,"[""0.045"",""0.298"",""0.587"",""0.163""]","[1,1,1,0]",0,44,44,44,1,1,0,,,1,FALSE,,,,,,,,,,,,,,,,,,,,,,,,,,,,,,,
,5d7513fbad0dbc00010f8fa8,627c7471b5d79924877b2a07,2022-05-11_21h44.38.369,classification_task,2021.2.3,MacIntel,60.0024001,627c6715c52fd12f31907bcf,,,,,,,,,,,,,,,,,,,,,,,l,1,1.7719,"[""0.101"",""0.714"",""0.625"",""0.831""]","[1,0,1,1]",0,45,45,45,1,1,1,,,1,FALSE,,,,,,,,,,,,,,,,,,,,,,,,,,,,,,,
,5d7513fbad0dbc00010f8fa8,627c7471b5d79924877b2a07,2022-05-11_21h44.38.369,classification_task,2021.2.3,MacIntel,60.0024001,627c6715c52fd12f31907bcf,,,,,,,,,,,,,,,,,,,,,,,l,0,1.6623,"[""0.208"",""0.453"",""0.163"",""0.944""]","[1,1,0,1]",0,46,46,46,1,0,0,,,1,FALSE,,,,,,,,,,,,,,,,,,,,,,,,,,,,,,,
,5d7513fbad0dbc00010f8fa8,627c7471b5d79924877b2a07,2022-05-11_21h44.38.369,classification_task,2021.2.3,MacIntel,60.0024001,627c6715c52fd12f31907bcf,,,,,,,,,,,,,,,,,,,,,,,a,1,0.9354,"[""0.742"",""0.528"",""0.672"",""0.865""]","[0,1,1,1]",0,47,47,47,1,0,1,,,1,FALSE,,,,,,,,,,,,,,,,,,,,,,,,,,,,,,,
,5d7513fbad0dbc00010f8fa8,627c7471b5d79924877b2a07,2022-05-11_21h44.38.369,classification_task,2021.2.3,MacIntel,60.0024001,627c6715c52fd12f31907bcf,,,,,,,,,,,,,,,,,,,,,,,a,1,0.8425,"[""0.717"",""0.528"",""0.672"",""0.865""]","[0,1,1,1]",0,48,48,48,1,0,1,,,1,FALSE,,,,,,,,,,,,,,,,,,,,,,,,,,,,,,,
,5d7513fbad0dbc00010f8fa8,627c7471b5d79924877b2a07,2022-05-11_21h44.38.369,classification_task,2021.2.3,MacIntel,60.0024001,627c6715c52fd12f31907bcf,,,,,,,,,,,,,,,,,,,,,,,a,1,1.2127,"[""0.255"",""0.714"",""0.672"",""0.865""]","[1,0,1,1]",0,49,49,49,1,0,1,,,1,FALSE,,,,,,,,,,,,,,,,,,,,,,,,,,,,,,,
,5d7513fbad0dbc00010f8fa8,627c7471b5d79924877b2a07,2022-05-11_21h44.38.369,classification_task,2021.2.3,MacIntel,60.0024001,627c6715c52fd12f31907bcf,,,,,,,,,,,,,,,,,,,,,,,a,1,0.9302,"[""0.255"",""0.528"",""0.672"",""0.135""]","[1,1,1,0]",0,50,50,50,1,0,1,,,1,FALSE,,,,,,,,,,,,,,,,,,,,,,,,,,,,,,,
,5d7513fbad0dbc00010f8fa8,627c7471b5d79924877b2a07,2022-05-11_21h44.38.369,classification_task,2021.2.3,MacIntel,60.0024001,627c6715c52fd12f31907bcf,,,,,,,,,,,,,,,,,,,,,,,a,1,1.0106,"[""0.208"",""0.453"",""0.742"",""0.944""]","[1,1,0,1]",0,51,51,51,1,0,0,,,1,FALSE,,,,,,,,,,,,,,,,,,,,,,,,,,,,,,,
,5d7513fbad0dbc00010f8fa8,627c7471b5d79924877b2a07,2022-05-11_21h44.38.369,classification_task,2021.2.3,MacIntel,60.0024001,627c6715c52fd12f31907bcf,,,,,,,,,,,,,,,,,,,,,,,a,0,0.6453,"[""0.162"",""0.298"",""0.587"",""0.794""]","[0,1,1,1]",0,52,52,52,1,1,0,,,1,FALSE,,,,,,,,,,,,,,,,,,,,,,,,,,,,,,,
,5d7513fbad0dbc00010f8fa8,627c7471b5d79924877b2a07,2022-05-11_21h44.38.369,classification_task,2021.2.3,MacIntel,60.0024001,627c6715c52fd12f31907bcf,,,,,,,,,,,,,,,,,,,,,,,l,1,1.1107,"[""0.101"",""0.417"",""0.145"",""0.831""]","[1,1,0,1]",0,53,53,53,1,1,1,,,1,FALSE,,,,,,,,,,,,,,,,,,,,,,,,,,,,,,,
,5d7513fbad0dbc00010f8fa8,627c7471b5d79924877b2a07,2022-05-11_21h44.38.369,classification_task,2021.2.3,MacIntel,60.0024001,627c6715c52fd12f31907bcf,,,,,,,,,,,,,,,,,,,,,,,a,0,1.4208,"[""0.045"",""0.298"",""0.162"",""0.794""]","[1,1,0,1]",0,54,54,54,1,1,0,,,1,FALSE,,,,,,,,,,,,,,,,,,,,,,,,,,,,,,,
,5d7513fbad0dbc00010f8fa8,627c7471b5d79924877b2a07,2022-05-11_21h44.38.369,classification_task,2021.2.3,MacIntel,60.0024001,627c6715c52fd12f31907bcf,,,,,,,,,,,,,,,,,,,,,,,l,1,0.7892,"[""0.101"",""0.417"",""0.625"",""0.366""]","[1,1,1,0]",0,55,55,55,1,1,1,,,1,FALSE,,,,,,,,,,,,,,,,,,,,,,,,,,,,,,,
,5d7513fbad0dbc00010f8fa8,627c7471b5d79924877b2a07,2022-05-11_21h44.38.369,classification_task,2021.2.3,MacIntel,60.0024001,627c6715c52fd12f31907bcf,,,,,,,,,,,,,,,,,,,,,,,a,0,1.5797,"[""0.045"",""0.298"",""0.587"",""0.162""]","[1,1,1,0]",0,56,56,56,1,1,0,,,1,FALSE,,,,,,,,,,,,,,,,,,,,,,,,,,,,,,,
,5d7513fbad0dbc00010f8fa8,627c7471b5d79924877b2a07,2022-05-11_21h44.38.369,classification_task,2021.2.3,MacIntel,60.0024001,627c6715c52fd12f31907bcf,,,,,,,,,,,,,,,,,,,,,,,l,1,0.7929,"[""0.135"",""0.417"",""0.625"",""0.831""]","[0,1,1,1]",0,57,57,57,1,1,1,,,1,FALSE,,,,,,,,,,,,,,,,,,,,,,,,,,,,,,,
,5d7513fbad0dbc00010f8fa8,627c7471b5d79924877b2a07,2022-05-11_21h44.38.369,classification_task,2021.2.3,MacIntel,60.0024001,627c6715c52fd12f31907bcf,,,,,,,,,,,,,,,,,,,,,,,a,1,1.6959,"[""0.341"",""0.453"",""0.900"",""0.944""]","[0,1,1,1]",0,58,58,58,1,0,0,,,1,FALSE,,,,,,,,,,,,,,,,,,,,,,,,,,,,,,,
,5d7513fbad0dbc00010f8fa8,627c7471b5d79924877b2a07,2022-05-11_21h44.38.369,classification_task,2021.2.3,MacIntel,60.0024001,627c6715c52fd12f31907bcf,,,,,,,,,,,,,,,,,,,,,,,a,0,1.3977,"[""0.045"",""0.166"",""0.587"",""0.794""]","[1,0,1,1]",0,59,59,59,1,1,0,,,1,FALSE,,,,,,,,,,,,,,,,,,,,,,,,,,,,,,,
,5d7513fbad0dbc00010f8fa8,627c7471b5d79924877b2a07,2022-05-11_21h44.38.369,classification_task,2021.2.3,MacIntel,60.0024001,627c6715c52fd12f31907bcf,,,,,,,,,,,,,,,,,,,,,,,a,1,0.9083,"[""0.255"",""0.528"",""0.714"",""0.865""]","[1,1,0,1]",0,60,60,60,1,0,1,,,1,FALSE,,,,,,,,,,,,,,,,,,,,,,,,,,,,,,,
,5d7513fbad0dbc00010f8fa8,627c7471b5d79924877b2a07,2022-05-11_21h44.38.369,classification_task,2021.2.3,MacIntel,60.0024001,627c6715c52fd12f31907bcf,,,,,,,,,,,,,,,,,,,,,,,a,1,2.1237,"[""0.208"",""0.135"",""0.900"",""0.944""]","[1,0,1,1]",0,61,61,61,1,0,0,,,1,FALSE,,,,,,,,,,,,,,,,,,,,,,,,,,,,,,,
,5d7513fbad0dbc00010f8fa8,627c7471b5d79924877b2a07,2022-05-11_21h44.38.369,classification_task,2021.2.3,MacIntel,60.0024001,627c6715c52fd12f31907bcf,,,,,,,,,,,,,,,,,,,,,,,l,1,1.1281,"[""0.101"",""0.135"",""0.625"",""0.831""]","[1,0,1,1]",0,62,62,62,1,1,1,,,1,FALSE,,,,,,,,,,,,,,,,,,,,,,,,,,,,,,,
,5d7513fbad0dbc00010f8fa8,627c7471b5d79924877b2a07,2022-05-11_21h44.38.369,classification_task,2021.2.3,MacIntel,60.0024001,627c6715c52fd12f31907bcf,,,,,,,,,,,,,,,,,,,,,,,a,1,1.7468,"[""0.208"",""0.453"",""0.900"",""0.732""]","[1,1,1,0]",0,63,63,63,1,0,0,,,1,FALSE,,,,,,,,,,,,,,,,,,,,,,,,,,,,,,,
,5d7513fbad0dbc00010f8fa8,627c7471b5d79924877b2a07,2022-05-11_21h44.38.369,classification_task,2021.2.3,MacIntel,60.0024001,627c6715c52fd12f31907bcf,,,,,,,,,,,,,,,,,,,,,,,,,,,,,,,,,,,,,,,0, ,,0,3.30192341,240.3398,0,1,1,1,1,2,2,,,,,,,,,,,,,,,,,,
,5d7513fbad0dbc00010f8fa8,627c7471b5d79924877b2a07,2022-05-11_21h44.38.369,classification_task,2021.2.3,MacIntel,60.0024001,627c6715c52fd12f31907bcf,,,,,,,,,,,,,,,,,,,,,,,,,,,,,,,,,,,,,,,1,  ,,0,7.903492092,242.2567,0,1,1,1,1,2,2,,,,,,,,,,,,,,,,,,
,5d7513fbad0dbc00010f8fa8,627c7471b5d79924877b2a07,2022-05-11_21h44.38.369,classification_task,2021.2.3,MacIntel,60.0024001,627c6715c52fd12f31907bcf,,,,,,,,,,,,,,,,,,,,,,,,,,,,,,,,,,,,,,,2,  ,,0,6.886184704,247.757,0,1,1,1,1,2,2,,,,,,,,,,,,,,,,,,
,5d7513fbad0dbc00010f8fa8,627c7471b5d79924877b2a07,2022-05-11_21h44.38.369,classification_task,2021.2.3,MacIntel,60.0024001,627c6715c52fd12f31907bcf,,,,,,,,,,,,,,,,,,,,,,,,,,,,,,,,,,,,,,,,,,,,,0,1,1,1,1,,2,,,,,,,,,,,,,,,,,,
,5d7513fbad0dbc00010f8fa8,627c7471b5d79924877b2a07,2022-05-11_21h44.38.369,classification_task,2021.2.3,MacIntel,60.0024001,627c6715c52fd12f31907bcf,,,,,,,,,,,,,,,,,,,,,space,181.8367,a,1,5.3478,"[""0.742"",""0.453"",""0.900"",""0.944""]","[0,1,1,1]",0,0,0,0,1,0,0,,,1,FALSE,,,,,,,,,,,,,,,,,,,,,,,,,,,,,,,
,5d7513fbad0dbc00010f8fa8,627c7471b5d79924877b2a07,2022-05-11_21h44.38.369,classification_task,2021.2.3,MacIntel,60.0024001,627c6715c52fd12f31907bcf,,,,,,,,,,,,,,,,,,,,,,,a,0,3.9958,"[""0.162"",""0.298"",""0.587"",""0.794""]","[0,1,1,1]",0,1,1,1,1,1,0,,,1,FALSE,,,,,,,,,,,,,,,,,,,,,,,,,,,,,,,
,5d7513fbad0dbc00010f8fa8,627c7471b5d79924877b2a07,2022-05-11_21h44.38.369,classification_task,2021.2.3,MacIntel,60.0024001,627c6715c52fd12f31907bcf,,,,,,,,,,,,,,,,,,,,,,,a,1,2.5244,"[""0.255"",""0.528"",""0.381"",""0.865""]","[1,1,0,1]",0,2,2,2,1,0,1,,,1,FALSE,,,,,,,,,,,,,,,,,,,,,,,,,,,,,,,
,5d7513fbad0dbc00010f8fa8,627c7471b5d79924877b2a07,2022-05-11_21h44.38.369,classification_task,2021.2.3,MacIntel,60.0024001,627c6715c52fd12f31907bcf,,,,,,,,,,,,,,,,,,,,,,,l,0,1.3973,"[""0.208"",""0.453"",""0.900"",""0.366""]","[1,1,1,0]",0,3,3,3,1,0,0,,,1,FALSE,,,,,,,,,,,,,,,,,,,,,,,,,,,,,,,
,5d7513fbad0dbc00010f8fa8,627c7471b5d79924877b2a07,2022-05-11_21h44.38.369,classification_task,2021.2.3,MacIntel,60.0024001,627c6715c52fd12f31907bcf,,,,,,,,,,,,,,,,,,,,,,,l,1,1.4336,"[""0.045"",""0.298"",""0.742"",""0.794""]","[1,1,0,1]",0,4,4,4,1,1,0,,,1,FALSE,,,,,,,,,,,,,,,,,,,,,,,,,,,,,,,
,5d7513fbad0dbc00010f8fa8,627c7471b5d79924877b2a07,2022-05-11_21h44.38.369,classification_task,2021.2.3,MacIntel,60.0024001,627c6715c52fd12f31907bcf,,,,,,,,,,,,,,,,,,,,,,,l,0,2.4127,"[""0.162"",""0.528"",""0.672"",""0.865""]","[0,1,1,1]",0,5,5,5,1,0,1,,,1,FALSE,,,,,,,,,,,,,,,,,,,,,,,,,,,,,,,
,5d7513fbad0dbc00010f8fa8,627c7471b5d79924877b2a07,2022-05-11_21h44.38.369,classification_task,2021.2.3,MacIntel,60.0024001,627c6715c52fd12f31907bcf,,,,,,,,,,,,,,,,,,,,,,,a,0,2.0301,"[""0.101"",""0.417"",""0.162"",""0.831""]","[1,1,0,1]",0,6,6,6,1,1,1,,,1,FALSE,,,,,,,,,,,,,,,,,,,,,,,,,,,,,,,
,5d7513fbad0dbc00010f8fa8,627c7471b5d79924877b2a07,2022-05-11_21h44.38.369,classification_task,2021.2.3,MacIntel,60.0024001,627c6715c52fd12f31907bcf,,,,,,,,,,,,,,,,,,,,,,,a,0,0.9076,"[""0.101"",""0.417"",""0.625"",""0.166""]","[1,1,1,0]",0,7,7,7,1,1,1,,,1,FALSE,,,,,,,,,,,,,,,,,,,,,,,,,,,,,,,
,5d7513fbad0dbc00010f8fa8,627c7471b5d79924877b2a07,2022-05-11_21h44.38.369,classification_task,2021.2.3,MacIntel,60.0024001,627c6715c52fd12f31907bcf,,,,,,,,,,,,,,,,,,,,,,,a,0,1.5755,"[""0.101"",""0.162"",""0.625"",""0.831""]","[1,0,1,1]",0,8,8,8,1,1,1,,,1,FALSE,,,,,,,,,,,,,,,,,,,,,,,,,,,,,,,
,5d7513fbad0dbc00010f8fa8,627c7471b5d79924877b2a07,2022-05-11_21h44.38.369,classification_task,2021.2.3,MacIntel,60.0024001,627c6715c52fd12f31907bcf,,,,,,,,,,,,,,,,,,,,,,,l,1,1.282,"[""0.162"",""0.417"",""0.625"",""0.831""]","[0,1,1,1]",0,9,9,9,1,1,1,,,1,FALSE,,,,,,,,,,,,,,,,,,,,,,,,,,,,,,,
,5d7513fbad0dbc00010f8fa8,627c7471b5d79924877b2a07,2022-05-11_21h44.38.369,classification_task,2021.2.3,MacIntel,60.0024001,627c6715c52fd12f31907bcf,,,,,,,,,,,,,,,,,,,,,,,a,1,1.3805,"[""0.208"",""0.453"",""0.162"",""0.944""]","[1,1,0,1]",0,10,10,10,1,0,0,,,1,FALSE,,,,,,,,,,,,,,,,,,,,,,,,,,,,,,,
,5d7513fbad0dbc00010f8fa8,627c7471b5d79924877b2a07,2022-05-11_21h44.38.369,classification_task,2021.2.3,MacIntel,60.0024001,627c6715c52fd12f31907bcf,,,,,,,,,,,,,,,,,,,,,,,a,1,1.6614,"[""0.208"",""0.163"",""0.900"",""0.944""]","[1,0,1,1]",0,11,11,11,1,0,0,,,1,FALSE,,,,,,,,,,,,,,,,,,,,,,,,,,,,,,,
,5d7513fbad0dbc00010f8fa8,627c7471b5d79924877b2a07,2022-05-11_21h44.38.369,classification_task,2021.2.3,MacIntel,60.0024001,627c6715c52fd12f31907bcf,,,,,,,,,,,,,,,,,,,,,,,l,1,2.1751,"[""0.045"",""0.298"",""0.587"",""0.341""]","[1,1,1,0]",0,12,12,12,1,1,0,,,1,FALSE,,,,,,,,,,,,,,,,,,,,,,,,,,,,,,,
,5d7513fbad0dbc00010f8fa8,627c7471b5d79924877b2a07,2022-05-11_21h44.38.369,classification_task,2021.2.3,MacIntel,60.0024001,627c6715c52fd12f31907bcf,,,,,,,,,,,,,,,,,,,,,,,a,1,2.2145,"[""0.255"",""0.366"",""0.672"",""0.865""]","[1,0,1,1]",0,13,13,13,1,0,1,,,1,FALSE,,,,,,,,,,,,,,,,,,,,,,,,,,,,,,,
,5d7513fbad0dbc00010f8fa8,627c7471b5d79924877b2a07,2022-05-11_21h44.38.369,classification_task,2021.2.3,MacIntel,60.0024001,627c6715c52fd12f31907bcf,,,,,,,,,,,,,,,,,,,,,,,l,1,4.0853,"[""0.045"",""0.366"",""0.587"",""0.794""]","[1,0,1,1]",0,14,14,14,1,1,0,,,1,FALSE,,,,,,,,,,,,,,,,,,,,,,,,,,,,,,,
,5d7513fbad0dbc00010f8fa8,627c7471b5d79924877b2a07,2022-05-11_21h44.38.369,classification_task,2021.2.3,MacIntel,60.0024001,627c6715c52fd12f31907bcf,,,,,,,,,,,,,,,,,,,,,,,a,1,1.8066,"[""0.255"",""0.528"",""0.672"",""0.729""]","[1,1,1,0]",0,15,15,15,1,0,1,,,1,FALSE,,,,,,,,,,,,,,,,,,,,,,,,,,,,,,,
,5d7513fbad0dbc00010f8fa8,627c7471b5d79924877b2a07,2022-05-11_21h44.38.369,classification_task,2021.2.3,MacIntel,60.0024001,627c6715c52fd12f31907bcf,,,,,,,,,,,,,,,,,,,,,,,l,1,2.1618,"[""0.045"",""0.298"",""0.587"",""0.714""]","[1,1,1,0]",0,16,16,16,1,1,0,,,1,FALSE,,,,,,,,,,,,,,,,,,,,,,,,,,,,,,,
,5d7513fbad0dbc00010f8fa8,627c7471b5d79924877b2a07,2022-05-11_21h44.38.369,classification_task,2021.2.3,MacIntel,60.0024001,627c6715c52fd12f31907bcf,,,,,,,,,,,,,,,,,,,,,,,a,0,1.3796,"[""0.341"",""0.417"",""0.625"",""0.831""]","[0,1,1,1]",0,17,17,17,1,1,1,,,1,FALSE,,,,,,,,,,,,,,,,,,,,,,,,,,,,,,,
,5d7513fbad0dbc00010f8fa8,627c7471b5d79924877b2a07,2022-05-11_21h44.38.369,classification_task,2021.2.3,MacIntel,60.0024001,627c6715c52fd12f31907bcf,,,,,,,,,,,,,,,,,,,,,,,a,1,1.9172,"[""0.255"",""0.528"",""0.672"",""0.714""]","[1,1,1,0]",0,18,18,18,1,0,1,,,1,FALSE,,,,,,,,,,,,,,,,,,,,,,,,,,,,,,,
,5d7513fbad0dbc00010f8fa8,627c7471b5d79924877b2a07,2022-05-11_21h44.38.369,classification_task,2021.2.3,MacIntel,60.0024001,627c6715c52fd12f31907bcf,,,,,,,,,,,,,,,,,,,,,,,a,1,0.9959,"[""0.208"",""0.453"",""0.900"",""0.714""]","[1,1,1,0]",0,19,19,19,1,0,0,,,1,FALSE,,,,,,,,,,,,,,,,,,,,,,,,,,,,,,,
,5d7513fbad0dbc00010f8fa8,627c7471b5d79924877b2a07,2022-05-11_21h44.38.369,classification_task,2021.2.3,MacIntel,60.0024001,627c6715c52fd12f31907bcf,,,,,,,,,,,,,,,,,,,,,,,l,0,1.7261,"[""0.208"",""0.453"",""0.166"",""0.944""]","[1,1,0,1]",0,20,20,20,1,0,0,,,1,FALSE,,,,,,,,,,,,,,,,,,,,,,,,,,,,,,,
,5d7513fbad0dbc00010f8fa8,627c7471b5d79924877b2a07,2022-05-11_21h44.38.369,classification_task,2021.2.3,MacIntel,60.0024001,627c6715c52fd12f31907bcf,,,,,,,,,,,,,,,,,,,,,,,a,1,2.1625,"[""0.208"",""0.732"",""0.900"",""0.944""]","[1,0,1,1]",0,21,21,21,1,0,0,,,1,FALSE,,,,,,,,,,,,,,,,,,,,,,,,,,,,,,,
,5d7513fbad0dbc00010f8fa8,627c7471b5d79924877b2a07,2022-05-11_21h44.38.369,classification_task,2021.2.3,MacIntel,60.0024001,627c6715c52fd12f31907bcf,,,,,,,,,,,,,,,,,,,,,,,l,0,2.611,"[""0.717"",""0.453"",""0.900"",""0.944""]","[0,1,1,1]",0,22,22,22,1,0,0,,,1,FALSE,,,,,,,,,,,,,,,,,,,,,,,,,,,,,,,
,5d7513fbad0dbc00010f8fa8,627c7471b5d79924877b2a07,2022-05-11_21h44.38.369,classification_task,2021.2.3,MacIntel,60.0024001,627c6715c52fd12f31907bcf,,,,,,,,,,,,,,,,,,,,,,,a,1,1.0367,"[""0.255"",""0.528"",""0.162"",""0.865""]","[1,1,0,1]",0,23,23,23,1,0,1,,,1,FALSE,,,,,,,,,,,,,,,,,,,,,,,,,,,,,,,
,5d7513fbad0dbc00010f8fa8,627c7471b5d79924877b2a07,2022-05-11_21h44.38.369,classification_task,2021.2.3,MacIntel,60.0024001,627c6715c52fd12f31907bcf,,,,,,,,,,,,,,,,,,,,,,,a,0,0.8155,"[""0.742"",""0.298"",""0.587"",""0.794""]","[0,1,1,1]",0,24,24,24,1,1,0,,,1,FALSE,,,,,,,,,,,,,,,,,,,,,,,,,,,,,,,
,5d7513fbad0dbc00010f8fa8,627c7471b5d79924877b2a07,2022-05-11_21h44.38.369,classification_task,2021.2.3,MacIntel,60.0024001,627c6715c52fd12f31907bcf,,,,,,,,,,,,,,,,,,,,,,,l,1,0.878,"[""0.045"",""0.163"",""0.587"",""0.794""]","[1,0,1,1]",0,25,25,25,1,1,0,,,1,FALSE,,,,,,,,,,,,,,,,,,,,,,,,,,,,,,,
,5d7513fbad0dbc00010f8fa8,627c7471b5d79924877b2a07,2022-05-11_21h44.38.369,classification_task,2021.2.3,MacIntel,60.0024001,627c6715c52fd12f31907bcf,,,,,,,,,,,,,,,,,,,,,,,a,1,1.8982,"[""0.255"",""0.135"",""0.672"",""0.865""]","[1,0,1,1]",0,26,26,26,1,0,1,,,1,FALSE,,,,,,,,,,,,,,,,,,,,,,,,,,,,,,,
,5d7513fbad0dbc00010f8fa8,627c7471b5d79924877b2a07,2022-05-11_21h44.38.369,classification_task,2021.2.3,MacIntel,60.0024001,627c6715c52fd12f31907bcf,,,,,,,,,,,,,,,,,,,,,,,a,1,1.0102,"[""0.729"",""0.528"",""0.672"",""0.865""]","[0,1,1,1]",0,27,27,27,1,0,1,,,1,FALSE,,,,,,,,,,,,,,,,,,,,,,,,,,,,,,,
,5d7513fbad0dbc00010f8fa8,627c7471b5d79924877b2a07,2022-05-11_21h44.38.369,classification_task,2021.2.3,MacIntel,60.0024001,627c6715c52fd12f31907bcf,,,,,,,,,,,,,,,,,,,,,,,l,1,1.5144,"[""0.101"",""0.717"",""0.625"",""0.831""]","[1,0,1,1]",0,28,28,28,1,1,1,,,1,FALSE,,,,,,,,,,,,,,,,,,,,,,,,,,,,,,,
,5d7513fbad0dbc00010f8fa8,627c7471b5d79924877b2a07,2022-05-11_21h44.38.369,classification_task,2021.2.3,MacIntel,60.0024001,627c6715c52fd12f31907bcf,,,,,,,,,,,,,,,,,,,,,,,l,1,1.3637,"[""0.045"",""0.298"",""0.729"",""0.794""]","[1,1,0,1]",0,29,29,29,1,1,0,,,1,FALSE,,,,,,,,,,,,,,,,,,,,,,,,,,,,,,,
,5d7513fbad0dbc00010f8fa8,627c7471b5d79924877b2a07,2022-05-11_21h44.38.369,classification_task,2021.2.3,MacIntel,60.0024001,627c6715c52fd12f31907bcf,,,,,,,,,,,,,,,,,,,,,,,a,0,1.3796,"[""0.101"",""0.417"",""0.625"",""0.341""]","[1,1,1,0]",0,30,30,30,1,1,1,,,1,FALSE,,,,,,,,,,,,,,,,,,,,,,,,,,,,,,,
,5d7513fbad0dbc00010f8fa8,627c7471b5d79924877b2a07,2022-05-11_21h44.38.369,classification_task,2021.2.3,MacIntel,60.0024001,627c6715c52fd12f31907bcf,,,,,,,,,,,,,,,,,,,,,,,a,0,0.7325,"[""0.101"",""0.417"",""0.366"",""0.831""]","[1,1,0,1]",0,31,31,31,1,1,1,,,1,FALSE,,,,,,,,,,,,,,,,,,,,,,,,,,,,,,,
,5d7513fbad0dbc00010f8fa8,627c7471b5d79924877b2a07,2022-05-11_21h44.38.369,classification_task,2021.2.3,MacIntel,60.0024001,627c6715c52fd12f31907bcf,,,,,,,,,,,,,,,,,,,,,,,a,1,1.1254,"[""0.208"",""0.453"",""0.900"",""0.732""]","[1,1,1,0]",0,32,32,32,1,0,0,,,1,FALSE,,,,,,,,,,,,,,,,,,,,,,,,,,,,,,,
,5d7513fbad0dbc00010f8fa8,627c7471b5d79924877b2a07,2022-05-11_21h44.38.369,classification_task,2021.2.3,MacIntel,60.0024001,627c6715c52fd12f31907bcf,,,,,,,,,,,,,,,,,,,,,,,a,1,1.9155,"[""0.208"",""0.453"",""0.166"",""0.944""]","[1,1,0,1]",0,33,33,33,1,0,0,,,1,FALSE,,,,,,,,,,,,,,,,,,,,,,,,,,,,,,,
,5d7513fbad0dbc00010f8fa8,627c7471b5d79924877b2a07,2022-05-11_21h44.38.369,classification_task,2021.2.3,MacIntel,60.0024001,627c6715c52fd12f31907bcf,,,,,,,,,,,,,,,,,,,,,,,l,1,1.6325,"[""0.135"",""0.417"",""0.625"",""0.831""]","[0,1,1,1]",0,34,34,34,1,1,1,,,1,FALSE,,,,,,,,,,,,,,,,,,,,,,,,,,,,,,,
,5d7513fbad0dbc00010f8fa8,627c7471b5d79924877b2a07,2022-05-11_21h44.38.369,classification_task,2021.2.3,MacIntel,60.0024001,627c6715c52fd12f31907bcf,,,,,,,,,,,,,,,,,,,,,,,a,1,1.2611,"[""0.255"",""0.528"",""0.672"",""0.341""]","[1,1,1,0]",0,35,35,35,1,0,1,,,1,FALSE,,,,,,,,,,,,,,,,,,,,,,,,,,,,,,,
,5d7513fbad0dbc00010f8fa8,627c7471b5d79924877b2a07,2022-05-11_21h44.38.369,classification_task,2021.2.3,MacIntel,60.0024001,627c6715c52fd12f31907bcf,,,,,,,,,,,,,,,,,,,,,,,l,1,1.3135,"[""0.101"",""0.341"",""0.625"",""0.831""]","[1,0,1,1]",0,36,36,36,1,1,1,,,1,FALSE,,,,,,,,,,,,,,,,,,,,,,,,,,,,,,,
,5d7513fbad0dbc00010f8fa8,627c7471b5d79924877b2a07,2022-05-11_21h44.38.369,classification_task,2021.2.3,MacIntel,60.0024001,627c6715c52fd12f31907bcf,,,,,,,,,,,,,,,,,,,,,,,a,1,0.8749,"[""0.255"",""0.528"",""0.381"",""0.865""]","[1,1,0,1]",0,37,37,37,1,0,1,,,1,FALSE,,,,,,,,,,,,,,,,,,,,,,,,,,,,,,,
,5d7513fbad0dbc00010f8fa8,627c7471b5d79924877b2a07,2022-05-11_21h44.38.369,classification_task,2021.2.3,MacIntel,60.0024001,627c6715c52fd12f31907bcf,,,,,,,,,,,,,,,,,,,,,,,l,1,1.3268,"[""0.045"",""0.298"",""0.587"",""0.381""]","[1,1,1,0]",0,38,38,38,1,1,0,,,1,FALSE,,,,,,,,,,,,,,,,,,,,,,,,,,,,,,,
,5d7513fbad0dbc00010f8fa8,627c7471b5d79924877b2a07,2022-05-11_21h44.38.369,classification_task,2021.2.3,MacIntel,60.0024001,627c6715c52fd12f31907bcf,,,,,,,,,,,,,,,,,,,,,,,a,0,0.9378,"[""0.714"",""0.298"",""0.587"",""0.794""]","[0,1,1,1]",0,39,39,39,1,1,0,,,1,FALSE,,,,,,,,,,,,,,,,,,,,,,,,,,,,,,,
,5d7513fbad0dbc00010f8fa8,627c7471b5d79924877b2a07,2022-05-11_21h44.38.369,classification_task,2021.2.3,MacIntel,60.0024001,627c6715c52fd12f31907bcf,,,,,,,,,,,,,,,,,,,,,,,a,0,1.2491,"[""0.101"",""0.417"",""0.341"",""0.831""]","[1,1,0,1]",0,40,40,40,1,1,1,,,1,FALSE,,,,,,,,,,,,,,,,,,,,,,,,,,,,,,,
,5d7513fbad0dbc00010f8fa8,627c7471b5d79924877b2a07,2022-05-11_21h44.38.369,classification_task,2021.2.3,MacIntel,60.0024001,627c6715c52fd12f31907bcf,,,,,,,,,,,,,,,,,,,,,,,a,0,0.9472,"[""0.101"",""0.417"",""0.625"",""0.714""]","[1,1,1,0]",0,41,41,41,1,1,1,,,1,FALSE,,,,,,,,,,,,,,,,,,,,,,,,,,,,,,,
,5d7513fbad0dbc00010f8fa8,627c7471b5d79924877b2a07,2022-05-11_21h44.38.369,classification_task,2021.2.3,MacIntel,60.0024001,627c6715c52fd12f31907bcf,,,,,,,,,,,,,,,,,,,,,,,a,1,1.7502,"[""0.729"",""0.528"",""0.672"",""0.865""]","[0,1,1,1]",0,42,42,42,1,0,1,,,1,FALSE,,,,,,,,,,,,,,,,,,,,,,,,,,,,,,,
,5d7513fbad0dbc00010f8fa8,627c7471b5d79924877b2a07,2022-05-11_21h44.38.369,classification_task,2021.2.3,MacIntel,60.0024001,627c6715c52fd12f31907bcf,,,,,,,,,,,,,,,,,,,,,,,l,1,1.7961,"[""0.045"",""0.298"",""0.163"",""0.794""]","[1,1,0,1]",0,43,43,43,1,1,0,,,1,FALSE,,,,,,,,,,,,,,,,,,,,,,,,,,,,,,,
,5d7513fbad0dbc00010f8fa8,627c7471b5d79924877b2a07,2022-05-11_21h44.38.369,classification_task,2021.2.3,MacIntel,60.0024001,627c6715c52fd12f31907bcf,,,,,,,,,,,,,,,,,,,,,,,a,1,1.4297,"[""0.208"",""0.714"",""0.900"",""0.944""]","[1,0,1,1]",0,44,44,44,1,0,0,,,1,FALSE,,,,,,,,,,,,,,,,,,,,,,,,,,,,,,,
,5d7513fbad0dbc00010f8fa8,627c7471b5d79924877b2a07,2022-05-11_21h44.38.369,classification_task,2021.2.3,MacIntel,60.0024001,627c6715c52fd12f31907bcf,,,,,,,,,,,,,,,,,,,,,,,a,0,2.3585,"[""0.045"",""0.366"",""0.587"",""0.794""]","[1,0,1,1]",0,45,45,45,1,1,0,,,1,FALSE,,,,,,,,,,,,,,,,,,,,,,,,,,,,,,,
,5d7513fbad0dbc00010f8fa8,627c7471b5d79924877b2a07,2022-05-11_21h44.38.369,classification_task,2021.2.3,MacIntel,60.0024001,627c6715c52fd12f31907bcf,,,,,,,,,,,,,,,,,,,,,,,l,0,1.9128,"[""0.255"",""0.381"",""0.672"",""0.865""]","[1,0,1,1]",0,46,46,46,1,0,1,,,1,FALSE,,,,,,,,,,,,,,,,,,,,,,,,,,,,,,,
,5d7513fbad0dbc00010f8fa8,627c7471b5d79924877b2a07,2022-05-11_21h44.38.369,classification_task,2021.2.3,MacIntel,60.0024001,627c6715c52fd12f31907bcf,,,,,,,,,,,,,,,,,,,,,,,a,1,1.3426,"[""0.714"",""0.453"",""0.900"",""0.944""]","[0,1,1,1]",0,47,47,47,1,0,0,,,1,FALSE,,,,,,,,,,,,,,,,,,,,,,,,,,,,,,,
,5d7513fbad0dbc00010f8fa8,627c7471b5d79924877b2a07,2022-05-11_21h44.38.369,classification_task,2021.2.3,MacIntel,60.0024001,627c6715c52fd12f31907bcf,,,,,,,,,,,,,,,,,,,,,,,l,1,1.4303,"[""0.045"",""0.298"",""0.587"",""0.341""]","[1,1,1,0]",0,48,48,48,1,1,0,,,1,FALSE,,,,,,,,,,,,,,,,,,,,,,,,,,,,,,,
,5d7513fbad0dbc00010f8fa8,627c7471b5d79924877b2a07,2022-05-11_21h44.38.369,classification_task,2021.2.3,MacIntel,60.0024001,627c6715c52fd12f31907bcf,,,,,,,,,,,,,,,,,,,,,,,a,1,0.7266,"[""0.255"",""0.528"",""0.714"",""0.865""]","[1,1,0,1]",0,49,49,49,1,0,1,,,1,FALSE,,,,,,,,,,,,,,,,,,,,,,,,,,,,,,,
,5d7513fbad0dbc00010f8fa8,627c7471b5d79924877b2a07,2022-05-11_21h44.38.369,classification_task,2021.2.3,MacIntel,60.0024001,627c6715c52fd12f31907bcf,,,,,,,,,,,,,,,,,,,,,,,l,1,2.7112,"[""0.101"",""0.166"",""0.625"",""0.831""]","[1,0,1,1]",0,50,50,50,1,1,1,,,1,FALSE,,,,,,,,,,,,,,,,,,,,,,,,,,,,,,,
,5d7513fbad0dbc00010f8fa8,627c7471b5d79924877b2a07,2022-05-11_21h44.38.369,classification_task,2021.2.3,MacIntel,60.0024001,627c6715c52fd12f31907bcf,,,,,,,,,,,,,,,,,,,,,,,a,0,1.0638,"[""0.145"",""0.298"",""0.587"",""0.794""]","[0,1,1,1]",0,51,51,51,1,1,0,,,1,FALSE,,,,,,,,,,,,,,,,,,,,,,,,,,,,,,,
,5d7513fbad0dbc00010f8fa8,627c7471b5d79924877b2a07,2022-05-11_21h44.38.369,classification_task,2021.2.3,MacIntel,60.0024001,627c6715c52fd12f31907bcf,,,,,,,,,,,,,,,,,,,,,,,a,1,1.5805,"[""0.208"",""0.453"",""0.900"",""0.145""]","[1,1,1,0]",0,52,52,52,1,0,0,,,1,FALSE,,,,,,,,,,,,,,,,,,,,,,,,,,,,,,,
,5d7513fbad0dbc00010f8fa8,627c7471b5d79924877b2a07,2022-05-11_21h44.38.369,classification_task,2021.2.3,MacIntel,60.0024001,627c6715c52fd12f31907bcf,,,,,,,,,,,,,,,,,,,,,,,l,1,1.2106,"[""0.101"",""0.417"",""0.625"",""0.732""]","[1,1,1,0]",0,53,53,53,1,1,1,,,1,FALSE,,,,,,,,,,,,,,,,,,,,,,,,,,,,,,,
,5d7513fbad0dbc00010f8fa8,627c7471b5d79924877b2a07,2022-05-11_21h44.38.369,classification_task,2021.2.3,MacIntel,60.0024001,627c6715c52fd12f31907bcf,,,,,,,,,,,,,,,,,,,,,,,l,0,1.8309,"[""0.208"",""0.453"",""0.742"",""0.944""]","[1,1,0,1]",0,54,54,54,1,0,0,,,1,FALSE,,,,,,,,,,,,,,,,,,,,,,,,,,,,,,,
,5d7513fbad0dbc00010f8fa8,627c7471b5d79924877b2a07,2022-05-11_21h44.38.369,classification_task,2021.2.3,MacIntel,60.0024001,627c6715c52fd12f31907bcf,,,,,,,,,,,,,,,,,,,,,,,l,1,1.1318,"[""0.045"",""0.298"",""0.341"",""0.794""]","[1,1,0,1]",0,55,55,55,1,1,0,,,1,FALSE,,,,,,,,,,,,,,,,,,,,,,,,,,,,,,,
,5d7513fbad0dbc00010f8fa8,627c7471b5d79924877b2a07,2022-05-11_21h44.38.369,classification_task,2021.2.3,MacIntel,60.0024001,627c6715c52fd12f31907bcf,,,,,,,,,,,,,,,,,,,,,,,a,1,2.4416,"[""0.208"",""0.732"",""0.900"",""0.944""]","[1,0,1,1]",0,56,56,56,1,0,0,,,1,FALSE,,,,,,,,,,,,,,,,,,,,,,,,,,,,,,,
,5d7513fbad0dbc00010f8fa8,627c7471b5d79924877b2a07,2022-05-11_21h44.38.369,classification_task,2021.2.3,MacIntel,60.0024001,627c6715c52fd12f31907bcf,,,,,,,,,,,,,,,,,,,,,,,a,1,1.2101,"[""0.255"",""0.732"",""0.672"",""0.865""]","[1,0,1,1]",0,57,57,57,1,0,1,,,1,FALSE,,,,,,,,,,,,,,,,,,,,,,,,,,,,,,,
,5d7513fbad0dbc00010f8fa8,627c7471b5d79924877b2a07,2022-05-11_21h44.38.369,classification_task,2021.2.3,MacIntel,60.0024001,627c6715c52fd12f31907bcf,,,,,,,,,,,,,,,,,,,,,,,a,0,1.4339,"[""0.717"",""0.417"",""0.625"",""0.831""]","[0,1,1,1]",0,58,58,58,1,1,1,,,1,FALSE,,,,,,,,,,,,,,,,,,,,,,,,,,,,,,,
,5d7513fbad0dbc00010f8fa8,627c7471b5d79924877b2a07,2022-05-11_21h44.38.369,classification_task,2021.2.3,MacIntel,60.0024001,627c6715c52fd12f31907bcf,,,,,,,,,,,,,,,,,,,,,,,l,1,0.8787,"[""0.045"",""0.742"",""0.587"",""0.794""]","[1,0,1,1]",0,59,59,59,1,1,0,,,1,FALSE,,,,,,,,,,,,,,,,,,,,,,,,,,,,,,,
,5d7513fbad0dbc00010f8fa8,627c7471b5d79924877b2a07,2022-05-11_21h44.38.369,classification_task,2021.2.3,MacIntel,60.0024001,627c6715c52fd12f31907bcf,,,,,,,,,,,,,,,,,,,,,,,l,1,1.5292,"[""0.101"",""0.417"",""0.717"",""0.831""]","[1,1,0,1]",0,60,60,60,1,1,1,,,1,FALSE,,,,,,,,,,,,,,,,,,,,,,,,,,,,,,,
,5d7513fbad0dbc00010f8fa8,627c7471b5d79924877b2a07,2022-05-11_21h44.38.369,classification_task,2021.2.3,MacIntel,60.0024001,627c6715c52fd12f31907bcf,,,,,,,,,,,,,,,,,,,,,,,a,1,0.7183,"[""0.255"",""0.528"",""0.672"",""0.166""]","[1,1,1,0]",0,61,61,61,1,0,1,,,1,FALSE,,,,,,,,,,,,,,,,,,,,,,,,,,,,,,,
,5d7513fbad0dbc00010f8fa8,627c7471b5d79924877b2a07,2022-05-11_21h44.38.369,classification_task,2021.2.3,MacIntel,60.0024001,627c6715c52fd12f31907bcf,,,,,,,,,,,,,,,,,,,,,,,a,1,1.1184,"[""0.162"",""0.453"",""0.900"",""0.944""]","[0,1,1,1]",0,62,62,62,1,0,0,,,1,FALSE,,,,,,,,,,,,,,,,,,,,,,,,,,,,,,,
,5d7513fbad0dbc00010f8fa8,627c7471b5d79924877b2a07,2022-05-11_21h44.38.369,classification_task,2021.2.3,MacIntel,60.0024001,627c6715c52fd12f31907bcf,,,,,,,,,,,,,,,,,,,,,,,a,1,0.8966,"[""0.341"",""0.528"",""0.672"",""0.865""]","[0,1,1,1]",0,63,63,63,1,0,1,,,1,FALSE,,,,,,,,,,,,,,,,,,,,,,,,,,,,,,,
,5d7513fbad0dbc00010f8fa8,627c7471b5d79924877b2a07,2022-05-11_21h44.38.369,classification_task,2021.2.3,MacIntel,60.0024001,627c6715c52fd12f31907bcf,,,,,,,,,,,,,,,,,,,,,,,,,,,,,,,,,,,,,,,0, ,,0,5.649927245,358.3959,0,2,2,2,1,2,3,,,,,,,,,,,,,,,,,,
,5d7513fbad0dbc00010f8fa8,627c7471b5d79924877b2a07,2022-05-11_21h44.38.369,classification_task,2021.2.3,MacIntel,60.0024001,627c6715c52fd12f31907bcf,,,,,,,,,,,,,,,,,,,,,,,,,,,,,,,,,,,,,,,1,  ,,0,6.524467497,394.8149,0,2,2,2,1,2,3,,,,,,,,,,,,,,,,,,
,5d7513fbad0dbc00010f8fa8,627c7471b5d79924877b2a07,2022-05-11_21h44.38.369,classification_task,2021.2.3,MacIntel,60.0024001,627c6715c52fd12f31907bcf,,,,,,,,,,,,,,,,,,,,,,,,,,,,,,,,,,,,,,,2,  ,,0,7.453726886,378.5698,0,2,2,2,1,2,3,,,,,,,,,,,,,,,,,,
,5d7513fbad0dbc00010f8fa8,627c7471b5d79924877b2a07,2022-05-11_21h44.38.369,classification_task,2021.2.3,MacIntel,60.0024001,627c6715c52fd12f31907bcf,,,,,,,,,,,,,,,,,,,,,,,,,,,,,,,,,,,,,,,,,,,,,0,2,2,2,1,,3,,,,,,,,,,,,,,,,,,
,5d7513fbad0dbc00010f8fa8,627c7471b5d79924877b2a07,2022-05-11_21h44.38.369,classification_task,2021.2.3,MacIntel,60.0024001,627c6715c52fd12f31907bcf,,,,,,,,,,,,,,,,,,,,,,,,,,,,,,,,,,,,,,,,,,,,,,,,,,,,,I believe the aid is a competent performer,,0.7,0,4,1219.9677,0,0,0,0,1,0,,,,,
,5d7513fbad0dbc00010f8fa8,627c7471b5d79924877b2a07,2022-05-11_21h44.38.369,classification_task,2021.2.3,MacIntel,60.0024001,627c6715c52fd12f31907bcf,,,,,,,,,,,,,,,,,,,,,,,,,,,,,,,,,,,,,,,,,,,,,,,,,,,,,I trust the aid,,0.7,0,5,1185.9986,0,0,0,0,1,0,,,,,
,5d7513fbad0dbc00010f8fa8,627c7471b5d79924877b2a07,2022-05-11_21h44.38.369,classification_task,2021.2.3,MacIntel,60.0024001,627c6715c52fd12f31907bcf,,,,,,,,,,,,,,,,,,,,,,,,,,,,,,,,,,,,,,,,,,,,,,,,,,,,,I have confidence in the advice given by the aid,,0.7,0,5,1188.1266,0,0,0,0,1,0,,,,,
,5d7513fbad0dbc00010f8fa8,627c7471b5d79924877b2a07,2022-05-11_21h44.38.369,classification_task,2021.2.3,MacIntel,60.0024001,627c6715c52fd12f31907bcf,,,,,,,,,,,,,,,,,,,,,,,,,,,,,,,,,,,,,,,,,,,,,,,,,,,,,I can depend on the aid,,0.7,0,5,1189.6041,0,0,0,0,1,0,,,,,
,5d7513fbad0dbc00010f8fa8,627c7471b5d79924877b2a07,2022-05-11_21h44.38.369,classification_task,2021.2.3,MacIntel,60.0024001,627c6715c52fd12f31907bcf,,,,,,,,,,,,,,,,,,,,,,,,,,,,,,,,,,,,,,,,,,,,,,,,,,,,,I can rely on the aid to behave in consistent ways,,0.7,0,4,1225.0854,0,0,0,0,1,0,,,,,
,5d7513fbad0dbc00010f8fa8,627c7471b5d79924877b2a07,2022-05-11_21h44.38.369,classification_task,2021.2.3,MacIntel,60.0024001,627c6715c52fd12f31907bcf,,,,,,,,,,,,,,,,,,,,,,,,,,,,,,,,,,,,,,,,,,,,,,,,,,,,,I can rely on the aid to do its best every time I take its advice,,0.7,0,4,1195.1617,0,0,0,0,1,0,,,,,
,5d7513fbad0dbc00010f8fa8,627c7471b5d79924877b2a07,2022-05-11_21h44.38.369,classification_task,2021.2.3,MacIntel,60.0024001,627c6715c52fd12f31907bcf,,,,,,,,,,,,,,,,,,,,,,,,,,,,,,,,,,,,,,,,,,,,,,,,,,,,,"On trials you completed with assistance from the aid, how frequently did you think the aid was correct?",,0.7,0,90,,0,0,0,0,1,0,,,,,
,5d7513fbad0dbc00010f8fa8,627c7471b5d79924877b2a07,2022-05-11_21h44.38.369,classification_task,2021.2.3,MacIntel,60.0024001,627c6715c52fd12f31907bcf,,,,,,,,,,,,,,,,,,,,,,,,,,,,,,,,,,,,,,,,,,,,,,,,,,,,,"On trials you completed without the aid, how frequently did you think you were correct?",,0.7,0,75,,0,0,0,0,1,0,,,,,
,5d7513fbad0dbc00010f8fa8,627c7471b5d79924877b2a07,2022-05-11_21h44.38.369,classification_task,2021.2.3,MacIntel,60.0024001,627c6715c52fd12f31907bcf,,,,,,,,,,,,,,,,,,,,,,,,,,,,,,,,,,,,,,,,,,,,,,,,,,,,,,,,,,,0,0,0,0,1,,,,,,
,5d7513fbad0dbc00010f8fa8,627c7471b5d79924877b2a07,2022-05-11_21h44.38.369,classification_task,2021.2.3,MacIntel,60.0024001,627c6715c52fd12f31907bcf,,,,,,,,,,,,,,,,,,,,,,,,,,,,,,,,,,,,,,,,,,,,,,,,,,,,,,,,,,,,,,,,,space,8.633,1254.0841,,
,5d7513fbad0dbc00010f8fa8,627c7471b5d79924877b2a07,2022-05-11_21h44.38.369,classification_task,2021.2.3,MacIntel,60.0024001,627c6715c52fd12f31907bcf,,,,,,,,,,,,,,,,,,,,,,,,,,,,,,,,,,,,,,,,,,,,,,,,,,,,,,,,,,,,,,,,,,,,"Mozilla/5.0 (Macintosh; Intel Mac OS X 10_15_7) AppleWebKit/537.36 (KHTML, like Gecko) Chrome/101.0.4951.54 Safari/537.36",
,5d7513fbad0dbc00010f8fa8,627c7471b5d79924877b2a07,2022-05-11_21h44.38.369,classification_task,2021.2.3,MacIntel,60.0024001,627c6715c52fd12f31907bcf,,,,,,,,,,,,,,,,,,,,,,,,,,,,,,,,,,,,,,,,,,,,,,,,,,,,,,,,,,,,,,,,,,,,,HIGHLIGHT
