usingWebGL,participant,session,date,expName,psychopyVersion,OS,frameRate,PROLIFIC_PID,STUDY_ID,SESSION_ID,signatures_friend,signatures_foe,band_ranges_top,band_ranges_bottom,formitemText,formtype,formundefined,formitemWidth,formindex,formresponse,formrt,key_resp_2.keys,key_resp_2.rt,tute_resp.keys,tute_resp.rt,tutorial.thisRepN,tutorial.thisTrialN,tutorial.thisN,tutorial.thisIndex,tutorial.ran,key_resp_4.keys,key_resp_4.rt,key_resp.keys,key_resp.corr,key_resp.rt,lines_presented,is_signal_presented,trials.thisRepN,trials.thisTrialN,trials.thisN,trials.thisIndex,trials.ran,vessel,active_band,lines,is_signal,supported_pos,catch_trial,debrief_formindex,debrief_formitemText,debrief_formtype,debrief_formitemWidth,debrief_formresponse,debrief_formrt,phases.thisRepN,phases.thisTrialN,phases.thisN,phases.thisIndex,phases.ran,phases.order,phase,key_resp_3.keys,trustitemText,trusttype,trustitemWidth,trustindex,trustresponse,trustrt,support_status.thisRepN,support_status.thisTrialN,support_status.thisN,support_status.thisIndex,support_status.ran,support_status.order,key_resp_5.keys,key_resp_5.rt,globalClockTime,userAgent
TRUE,5d79d3f3fa7c0700018f0a14,001,2022-04-29_03h15.37.677,classification_task,2021.2.3,Win32,60.0060006,5d79d3f3fa7c0700018f0a14,626b377229c10585ec392f89,626b3bd510b7b3eb45797a00,,,,,,,,,,,,,,,,,,,,,,,,,,,,,,,,,,,,,,,,,,,,,,,,,,,,,,,,,,,,,,,,,,,,
,5d79d3f3fa7c0700018f0a14,001,2022-04-29_03h15.37.677,classification_task,2021.2.3,Win32,60.0060006,5d79d3f3fa7c0700018f0a14,626b377229c10585ec392f89,626b3bd510b7b3eb45797a00,"[[""0.276"",""0.419"",""0.612"",""0.873""],[""0.242"",""0.467"",""0.824"",""0.974""]]","[[""0.102"",""0.315"",""0.664"",""0.703""],[""0.035"",""0.178"",""0.575"",""0.738""]]","[1,10]","[100,1000]",Video game experience,,,0.7,0,,,,,,,,,,,,,,,,,,,,,,,,,,,,,,,,,,,,,,,,,,,,,,,,,,,,,,,,,,,
,5d79d3f3fa7c0700018f0a14,001,2022-04-29_03h15.37.677,classification_task,2021.2.3,Win32,60.0060006,5d79d3f3fa7c0700018f0a14,626b377229c10585ec392f89,626b3bd510b7b3eb45797a00,,,,,Approximately how many hours did you spend playing video games in the last week?,,,0.7,0,20,,,,,,,,,,,,,,,,,,,,,,,,,,,,,,,,,,,,,,,,,,,,,,,,,,,,,,,,,,
,5d79d3f3fa7c0700018f0a14,001,2022-04-29_03h15.37.677,classification_task,2021.2.3,Win32,60.0060006,5d79d3f3fa7c0700018f0a14,626b377229c10585ec392f89,626b3bd510b7b3eb45797a00,,,,,"Which game did you play the most this year? (Enter ""None"" if you didn't play any)",,,0.7,0,Lost ark,,,,,,,,,,,,,,,,,,,,,,,,,,,,,,,,,,,,,,,,,,,,,,,,,,,,,,,,,,
,5d79d3f3fa7c0700018f0a14,001,2022-04-29_03h15.37.677,classification_task,2021.2.3,Win32,60.0060006,5d79d3f3fa7c0700018f0a14,626b377229c10585ec392f89,626b3bd510b7b3eb45797a00,,,,,Visual perception,,,0.7,0,,,,,,,,,,,,,,,,,,,,,,,,,,,,,,,,,,,,,,,,,,,,,,,,,,,,,,,,,,,
,5d79d3f3fa7c0700018f0a14,001,2022-04-29_03h15.37.677,classification_task,2021.2.3,Win32,60.0060006,5d79d3f3fa7c0700018f0a14,626b377229c10585ec392f89,626b3bd510b7b3eb45797a00,,,,,Do you have any form of color blindness?,,,0.7,0,No,31.6535,,,,,,,,,,,,,,,,,,,,,,,,,,,,,,,,,,,,,,,,,,,,,,,,,,,,,,,,,
,5d79d3f3fa7c0700018f0a14,001,2022-04-29_03h15.37.677,classification_task,2021.2.3,Win32,60.0060006,5d79d3f3fa7c0700018f0a14,626b377229c10585ec392f89,626b3bd510b7b3eb45797a00,,,,,Do you use software to change the colour temperature of your screen (e.g. f.lux)?,,,0.7,0,No,35.5352,,,,,,,,,,,,,,,,,,,,,,,,,,,,,,,,,,,,,,,,,,,,,,,,,,,,,,,,,
,5d79d3f3fa7c0700018f0a14,001,2022-04-29_03h15.37.677,classification_task,2021.2.3,Win32,60.0060006,5d79d3f3fa7c0700018f0a14,626b377229c10585ec392f89,626b3bd510b7b3eb45797a00,,,,,,,,,,,,space,47.0162,space,9.3316,0,0,0,0,1,,,,,,,,,,,,,,,,,,,,,,,,,,,,,,,,,,,,,,,,,,,,,,,,
,5d79d3f3fa7c0700018f0a14,001,2022-04-29_03h15.37.677,classification_task,2021.2.3,Win32,60.0060006,5d79d3f3fa7c0700018f0a14,626b377229c10585ec392f89,626b3bd510b7b3eb45797a00,,,,,,,,,,,,,,space,9.073,1,0,1,0,1,,,,,,,,,,,,,,,,,,,,,,,,,,,,,,,,,,,,,,,,,,,,,,,,
,5d79d3f3fa7c0700018f0a14,001,2022-04-29_03h15.37.677,classification_task,2021.2.3,Win32,60.0060006,5d79d3f3fa7c0700018f0a14,626b377229c10585ec392f89,626b3bd510b7b3eb45797a00,,,,,,,,,,,,,,space,15.3508,2,0,2,0,1,,,,,,,,,,,,,,,,,,,,,,,,,,,,,,,,,,,,,,,,,,,,,,,,
,5d79d3f3fa7c0700018f0a14,001,2022-04-29_03h15.37.677,classification_task,2021.2.3,Win32,60.0060006,5d79d3f3fa7c0700018f0a14,626b377229c10585ec392f89,626b3bd510b7b3eb45797a00,,,,,,,,,,,,,,space,9.0248,3,0,3,0,1,,,,,,,,,,,,,,,,,,,,,,,,,,,,,,,,,,,,,,,,,,,,,,,,
,5d79d3f3fa7c0700018f0a14,001,2022-04-29_03h15.37.677,classification_task,2021.2.3,Win32,60.0060006,5d79d3f3fa7c0700018f0a14,626b377229c10585ec392f89,626b3bd510b7b3eb45797a00,,,,,,,,,,,,,,space,6.8754,4,0,4,0,1,,,,,,,,,,,,,,,,,,,,,,,,,,,,,,,,,,,,,,,,,,,,,,,,
,5d79d3f3fa7c0700018f0a14,001,2022-04-29_03h15.37.677,classification_task,2021.2.3,Win32,60.0060006,5d79d3f3fa7c0700018f0a14,626b377229c10585ec392f89,626b3bd510b7b3eb45797a00,,,,,,,,,,,,,,,,,,,,,space,8.0329,a,1,5.2422,"[""0.276"",""0.419"",""0.612"",""0.377""]","[1,1,1,0]",0,0,0,0,1,0,0,,,0,FALSE,,,,,,,,,,,,,,,,,,,,,,,,,,,,,,
,5d79d3f3fa7c0700018f0a14,001,2022-04-29_03h15.37.677,classification_task,2021.2.3,Win32,60.0060006,5d79d3f3fa7c0700018f0a14,626b377229c10585ec392f89,626b3bd510b7b3eb45797a00,,,,,,,,,,,,,,,,,,,,,,,l,1,3.487,"[""0.102"",""0.315"",""0.789"",""0.703""]","[1,1,0,1]",0,1,1,1,1,1,0,,,0,FALSE,,,,,,,,,,,,,,,,,,,,,,,,,,,,,,
,5d79d3f3fa7c0700018f0a14,001,2022-04-29_03h15.37.677,classification_task,2021.2.3,Win32,60.0060006,5d79d3f3fa7c0700018f0a14,626b377229c10585ec392f89,626b3bd510b7b3eb45797a00,,,,,,,,,,,,,,,,,,,,,,,a,0,2.7164,"[""0.515"",""0.315"",""0.664"",""0.703""]","[0,1,1,1]",0,2,2,2,1,1,0,,,0,FALSE,,,,,,,,,,,,,,,,,,,,,,,,,,,,,,
,5d79d3f3fa7c0700018f0a14,001,2022-04-29_03h15.37.677,classification_task,2021.2.3,Win32,60.0060006,5d79d3f3fa7c0700018f0a14,626b377229c10585ec392f89,626b3bd510b7b3eb45797a00,,,,,,,,,,,,,,,,,,,,,,,l,0,5.536,"[""0.242"",""0.467"",""0.824"",""0.530""]","[1,1,1,0]",0,3,3,3,1,0,1,,,0,FALSE,,,,,,,,,,,,,,,,,,,,,,,,,,,,,,
,5d79d3f3fa7c0700018f0a14,001,2022-04-29_03h15.37.677,classification_task,2021.2.3,Win32,60.0060006,5d79d3f3fa7c0700018f0a14,626b377229c10585ec392f89,626b3bd510b7b3eb45797a00,,,,,,,,,,,,,,,,,,,,,,,l,1,4.8372,"[""0.102"",""0.315"",""0.664"",""0.781""]","[1,1,1,0]",0,4,4,4,1,1,0,,,0,FALSE,,,,,,,,,,,,,,,,,,,,,,,,,,,,,,
,5d79d3f3fa7c0700018f0a14,001,2022-04-29_03h15.37.677,classification_task,2021.2.3,Win32,60.0060006,5d79d3f3fa7c0700018f0a14,626b377229c10585ec392f89,626b3bd510b7b3eb45797a00,,,,,,,,,,,,,,,,,,,,,,,a,1,3.6924,"[""0.276"",""0.781"",""0.612"",""0.873""]","[1,0,1,1]",0,5,5,5,1,0,0,,,0,FALSE,,,,,,,,,,,,,,,,,,,,,,,,,,,,,,
,5d79d3f3fa7c0700018f0a14,001,2022-04-29_03h15.37.677,classification_task,2021.2.3,Win32,60.0060006,5d79d3f3fa7c0700018f0a14,626b377229c10585ec392f89,626b3bd510b7b3eb45797a00,,,,,,,,,,,,,,,,,,,,,,,a,1,2.9387,"[""0.242"",""0.787"",""0.824"",""0.974""]","[1,0,1,1]",0,6,6,6,1,0,1,,,0,FALSE,,,,,,,,,,,,,,,,,,,,,,,,,,,,,,
,5d79d3f3fa7c0700018f0a14,001,2022-04-29_03h15.37.677,classification_task,2021.2.3,Win32,60.0060006,5d79d3f3fa7c0700018f0a14,626b377229c10585ec392f89,626b3bd510b7b3eb45797a00,,,,,,,,,,,,,,,,,,,,,,,l,1,9.0439,"[""0.789"",""0.178"",""0.575"",""0.738""]","[0,1,1,1]",0,7,7,7,1,1,1,,,0,FALSE,,,,,,,,,,,,,,,,,,,,,,,,,,,,,,
,5d79d3f3fa7c0700018f0a14,001,2022-04-29_03h15.37.677,classification_task,2021.2.3,Win32,60.0060006,5d79d3f3fa7c0700018f0a14,626b377229c10585ec392f89,626b3bd510b7b3eb45797a00,,,,,,,,,,,,,,,,,,,,,,,l,1,2.6035,"[""0.035"",""0.178"",""0.515"",""0.738""]","[1,1,0,1]",0,8,8,8,1,1,1,,,0,FALSE,,,,,,,,,,,,,,,,,,,,,,,,,,,,,,
,5d79d3f3fa7c0700018f0a14,001,2022-04-29_03h15.37.677,classification_task,2021.2.3,Win32,60.0060006,5d79d3f3fa7c0700018f0a14,626b377229c10585ec392f89,626b3bd510b7b3eb45797a00,,,,,,,,,,,,,,,,,,,,,,,,0,,"[""0.512"",""0.419"",""0.612"",""0.873""]","[0,1,1,1]",0,9,9,9,1,0,0,,,0,FALSE,,,,,,,,,,,,,,,,,,,,,,,,,,,,,,
,5d79d3f3fa7c0700018f0a14,001,2022-04-29_03h15.37.677,classification_task,2021.2.3,Win32,60.0060006,5d79d3f3fa7c0700018f0a14,626b377229c10585ec392f89,626b3bd510b7b3eb45797a00,,,,,,,,,,,,,,,,,,,,,,,a,1,5.0352,"[""0.276"",""0.419"",""0.377"",""0.873""]","[1,1,0,1]",0,10,10,10,1,0,0,,,0,FALSE,,,,,,,,,,,,,,,,,,,,,,,,,,,,,,
,5d79d3f3fa7c0700018f0a14,001,2022-04-29_03h15.37.677,classification_task,2021.2.3,Win32,60.0060006,5d79d3f3fa7c0700018f0a14,626b377229c10585ec392f89,626b3bd510b7b3eb45797a00,,,,,,,,,,,,,,,,,,,,,,,a,1,5.8723,"[""0.242"",""0.467"",""0.918"",""0.974""]","[1,1,0,1]",0,11,11,11,1,0,1,,,0,FALSE,,,,,,,,,,,,,,,,,,,,,,,,,,,,,,
,5d79d3f3fa7c0700018f0a14,001,2022-04-29_03h15.37.677,classification_task,2021.2.3,Win32,60.0060006,5d79d3f3fa7c0700018f0a14,626b377229c10585ec392f89,626b3bd510b7b3eb45797a00,,,,,,,,,,,,,,,,,,,,,,,a,1,6.5002,"[""0.787"",""0.467"",""0.824"",""0.974""]","[0,1,1,1]",0,12,12,12,1,0,1,,,0,FALSE,,,,,,,,,,,,,,,,,,,,,,,,,,,,,,
,5d79d3f3fa7c0700018f0a14,001,2022-04-29_03h15.37.677,classification_task,2021.2.3,Win32,60.0060006,5d79d3f3fa7c0700018f0a14,626b377229c10585ec392f89,626b3bd510b7b3eb45797a00,,,,,,,,,,,,,,,,,,,,,,,l,1,3.0302,"[""0.035"",""0.178"",""0.575"",""0.530""]","[1,1,1,0]",0,13,13,13,1,1,1,,,0,FALSE,,,,,,,,,,,,,,,,,,,,,,,,,,,,,,
,5d79d3f3fa7c0700018f0a14,001,2022-04-29_03h15.37.677,classification_task,2021.2.3,Win32,60.0060006,5d79d3f3fa7c0700018f0a14,626b377229c10585ec392f89,626b3bd510b7b3eb45797a00,,,,,,,,,,,,,,,,,,,,,,,l,1,3.047,"[""0.035"",""0.939"",""0.575"",""0.738""]","[1,0,1,1]",0,14,14,14,1,1,1,,,0,FALSE,,,,,,,,,,,,,,,,,,,,,,,,,,,,,,
,5d79d3f3fa7c0700018f0a14,001,2022-04-29_03h15.37.677,classification_task,2021.2.3,Win32,60.0060006,5d79d3f3fa7c0700018f0a14,626b377229c10585ec392f89,626b3bd510b7b3eb45797a00,,,,,,,,,,,,,,,,,,,,,,,l,1,4.2665,"[""0.102"",""0.517"",""0.664"",""0.703""]","[1,0,1,1]",0,15,15,15,1,1,0,,,0,FALSE,,,,,,,,,,,,,,,,,,,,,,,,,,,,,,
,5d79d3f3fa7c0700018f0a14,001,2022-04-29_03h15.37.677,classification_task,2021.2.3,Win32,60.0060006,5d79d3f3fa7c0700018f0a14,626b377229c10585ec392f89,626b3bd510b7b3eb45797a00,,,,,,,,,,,,,,,,,,,,,,,a,1,6.2927,"[""0.517"",""0.467"",""0.824"",""0.974""]","[0,1,1,1]",0,16,16,16,1,0,1,,,0,FALSE,,,,,,,,,,,,,,,,,,,,,,,,,,,,,,
,5d79d3f3fa7c0700018f0a14,001,2022-04-29_03h15.37.677,classification_task,2021.2.3,Win32,60.0060006,5d79d3f3fa7c0700018f0a14,626b377229c10585ec392f89,626b3bd510b7b3eb45797a00,,,,,,,,,,,,,,,,,,,,,,,a,1,2.7718,"[""0.276"",""0.419"",""0.612"",""0.939""]","[1,1,1,0]",0,17,17,17,1,0,0,,,0,FALSE,,,,,,,,,,,,,,,,,,,,,,,,,,,,,,
,5d79d3f3fa7c0700018f0a14,001,2022-04-29_03h15.37.677,classification_task,2021.2.3,Win32,60.0060006,5d79d3f3fa7c0700018f0a14,626b377229c10585ec392f89,626b3bd510b7b3eb45797a00,,,,,,,,,,,,,,,,,,,,,,,a,1,5.0101,"[""0.242"",""0.787"",""0.824"",""0.974""]","[1,0,1,1]",0,18,18,18,1,0,1,,,0,FALSE,,,,,,,,,,,,,,,,,,,,,,,,,,,,,,
,5d79d3f3fa7c0700018f0a14,001,2022-04-29_03h15.37.677,classification_task,2021.2.3,Win32,60.0060006,5d79d3f3fa7c0700018f0a14,626b377229c10585ec392f89,626b3bd510b7b3eb45797a00,,,,,,,,,,,,,,,,,,,,,,,l,1,3.3093,"[""0.102"",""0.315"",""0.664"",""0.789""]","[1,1,1,0]",0,19,19,19,1,1,0,,,0,FALSE,,,,,,,,,,,,,,,,,,,,,,,,,,,,,,
,5d79d3f3fa7c0700018f0a14,001,2022-04-29_03h15.37.677,classification_task,2021.2.3,Win32,60.0060006,5d79d3f3fa7c0700018f0a14,626b377229c10585ec392f89,626b3bd510b7b3eb45797a00,,,,,,,,,,,,,,,,,,,,,,,a,1,5.4088,"[""0.276"",""0.419"",""0.918"",""0.873""]","[1,1,0,1]",0,20,20,20,1,0,0,,,0,FALSE,,,,,,,,,,,,,,,,,,,,,,,,,,,,,,
,5d79d3f3fa7c0700018f0a14,001,2022-04-29_03h15.37.677,classification_task,2021.2.3,Win32,60.0060006,5d79d3f3fa7c0700018f0a14,626b377229c10585ec392f89,626b3bd510b7b3eb45797a00,,,,,,,,,,,,,,,,,,,,,,,a,0,5.1618,"[""0.530"",""0.315"",""0.664"",""0.703""]","[0,1,1,1]",0,21,21,21,1,1,0,,,0,FALSE,,,,,,,,,,,,,,,,,,,,,,,,,,,,,,
,5d79d3f3fa7c0700018f0a14,001,2022-04-29_03h15.37.677,classification_task,2021.2.3,Win32,60.0060006,5d79d3f3fa7c0700018f0a14,626b377229c10585ec392f89,626b3bd510b7b3eb45797a00,,,,,,,,,,,,,,,,,,,,,,,l,1,5.3316,"[""0.939"",""0.178"",""0.575"",""0.738""]","[0,1,1,1]",0,22,22,22,1,1,1,,,0,FALSE,,,,,,,,,,,,,,,,,,,,,,,,,,,,,,
,5d79d3f3fa7c0700018f0a14,001,2022-04-29_03h15.37.677,classification_task,2021.2.3,Win32,60.0060006,5d79d3f3fa7c0700018f0a14,626b377229c10585ec392f89,626b3bd510b7b3eb45797a00,,,,,,,,,,,,,,,,,,,,,,,l,1,3.7906,"[""0.035"",""0.178"",""0.575"",""0.515""]","[1,1,1,0]",0,23,23,23,1,1,1,,,0,FALSE,,,,,,,,,,,,,,,,,,,,,,,,,,,,,,
,5d79d3f3fa7c0700018f0a14,001,2022-04-29_03h15.37.677,classification_task,2021.2.3,Win32,60.0060006,5d79d3f3fa7c0700018f0a14,626b377229c10585ec392f89,626b3bd510b7b3eb45797a00,,,,,,,,,,,,,,,,,,,,,,,l,1,2.2544,"[""0.102"",""0.315"",""0.916"",""0.703""]","[1,1,0,1]",0,24,24,24,1,1,0,,,0,FALSE,,,,,,,,,,,,,,,,,,,,,,,,,,,,,,
,5d79d3f3fa7c0700018f0a14,001,2022-04-29_03h15.37.677,classification_task,2021.2.3,Win32,60.0060006,5d79d3f3fa7c0700018f0a14,626b377229c10585ec392f89,626b3bd510b7b3eb45797a00,,,,,,,,,,,,,,,,,,,,,,,l,1,2.5322,"[""0.102"",""0.541"",""0.664"",""0.703""]","[1,0,1,1]",0,25,25,25,1,1,0,,,0,FALSE,,,,,,,,,,,,,,,,,,,,,,,,,,,,,,
,5d79d3f3fa7c0700018f0a14,001,2022-04-29_03h15.37.677,classification_task,2021.2.3,Win32,60.0060006,5d79d3f3fa7c0700018f0a14,626b377229c10585ec392f89,626b3bd510b7b3eb45797a00,,,,,,,,,,,,,,,,,,,,,,,l,1,2.1066,"[""0.035"",""0.525"",""0.575"",""0.738""]","[1,0,1,1]",0,26,26,26,1,1,1,,,0,FALSE,,,,,,,,,,,,,,,,,,,,,,,,,,,,,,
,5d79d3f3fa7c0700018f0a14,001,2022-04-29_03h15.37.677,classification_task,2021.2.3,Win32,60.0060006,5d79d3f3fa7c0700018f0a14,626b377229c10585ec392f89,626b3bd510b7b3eb45797a00,,,,,,,,,,,,,,,,,,,,,,,l,1,1.665,"[""0.035"",""0.178"",""0.525"",""0.738""]","[1,1,0,1]",0,27,27,27,1,1,1,,,0,FALSE,,,,,,,,,,,,,,,,,,,,,,,,,,,,,,
,5d79d3f3fa7c0700018f0a14,001,2022-04-29_03h15.37.677,classification_task,2021.2.3,Win32,60.0060006,5d79d3f3fa7c0700018f0a14,626b377229c10585ec392f89,626b3bd510b7b3eb45797a00,,,,,,,,,,,,,,,,,,,,,,,a,1,3.6037,"[""0.515"",""0.419"",""0.612"",""0.873""]","[0,1,1,1]",0,28,28,28,1,0,0,,,0,FALSE,,,,,,,,,,,,,,,,,,,,,,,,,,,,,,
,5d79d3f3fa7c0700018f0a14,001,2022-04-29_03h15.37.677,classification_task,2021.2.3,Win32,60.0060006,5d79d3f3fa7c0700018f0a14,626b377229c10585ec392f89,626b3bd510b7b3eb45797a00,,,,,,,,,,,,,,,,,,,,,,,a,1,2.1518,"[""0.242"",""0.467"",""0.384"",""0.974""]","[1,1,0,1]",0,29,29,29,1,0,1,,,0,FALSE,,,,,,,,,,,,,,,,,,,,,,,,,,,,,,
,5d79d3f3fa7c0700018f0a14,001,2022-04-29_03h15.37.677,classification_task,2021.2.3,Win32,60.0060006,5d79d3f3fa7c0700018f0a14,626b377229c10585ec392f89,626b3bd510b7b3eb45797a00,,,,,,,,,,,,,,,,,,,,,,,a,1,0.8598,"[""0.242"",""0.467"",""0.824"",""0.541""]","[1,1,1,0]",0,30,30,30,1,0,1,,,0,FALSE,,,,,,,,,,,,,,,,,,,,,,,,,,,,,,
,5d79d3f3fa7c0700018f0a14,001,2022-04-29_03h15.37.677,classification_task,2021.2.3,Win32,60.0060006,5d79d3f3fa7c0700018f0a14,626b377229c10585ec392f89,626b3bd510b7b3eb45797a00,,,,,,,,,,,,,,,,,,,,,,,a,1,1.5586,"[""0.276"",""0.789"",""0.612"",""0.873""]","[1,0,1,1]",0,31,31,31,1,0,0,,,0,FALSE,,,,,,,,,,,,,,,,,,,,,,,,,,,,,,
,5d79d3f3fa7c0700018f0a14,001,2022-04-29_03h15.37.677,classification_task,2021.2.3,Win32,60.0060006,5d79d3f3fa7c0700018f0a14,626b377229c10585ec392f89,626b3bd510b7b3eb45797a00,,,,,,,,,,,,,,,,,,,,,,,a,1,0.8153,"[""0.276"",""0.517"",""0.612"",""0.873""]","[1,0,1,1]",0,32,32,32,1,0,0,,,0,FALSE,,,,,,,,,,,,,,,,,,,,,,,,,,,,,,
,5d79d3f3fa7c0700018f0a14,001,2022-04-29_03h15.37.677,classification_task,2021.2.3,Win32,60.0060006,5d79d3f3fa7c0700018f0a14,626b377229c10585ec392f89,626b3bd510b7b3eb45797a00,,,,,,,,,,,,,,,,,,,,,,,a,0,0.9384,"[""0.916"",""0.315"",""0.664"",""0.703""]","[0,1,1,1]",0,33,33,33,1,1,0,,,0,FALSE,,,,,,,,,,,,,,,,,,,,,,,,,,,,,,
,5d79d3f3fa7c0700018f0a14,001,2022-04-29_03h15.37.677,classification_task,2021.2.3,Win32,60.0060006,5d79d3f3fa7c0700018f0a14,626b377229c10585ec392f89,626b3bd510b7b3eb45797a00,,,,,,,,,,,,,,,,,,,,,,,l,0,2.7482,"[""0.929"",""0.467"",""0.824"",""0.974""]","[0,1,1,1]",0,34,34,34,1,0,1,,,0,FALSE,,,,,,,,,,,,,,,,,,,,,,,,,,,,,,
,5d79d3f3fa7c0700018f0a14,001,2022-04-29_03h15.37.677,classification_task,2021.2.3,Win32,60.0060006,5d79d3f3fa7c0700018f0a14,626b377229c10585ec392f89,626b3bd510b7b3eb45797a00,,,,,,,,,,,,,,,,,,,,,,,l,0,3.6328,"[""0.530"",""0.419"",""0.612"",""0.873""]","[0,1,1,1]",0,35,35,35,1,0,0,,,0,FALSE,,,,,,,,,,,,,,,,,,,,,,,,,,,,,,
,5d79d3f3fa7c0700018f0a14,001,2022-04-29_03h15.37.677,classification_task,2021.2.3,Win32,60.0060006,5d79d3f3fa7c0700018f0a14,626b377229c10585ec392f89,626b3bd510b7b3eb45797a00,,,,,,,,,,,,,,,,,,,,,,,a,0,3.207,"[""0.102"",""0.541"",""0.664"",""0.703""]","[1,0,1,1]",0,36,36,36,1,1,0,,,0,FALSE,,,,,,,,,,,,,,,,,,,,,,,,,,,,,,
,5d79d3f3fa7c0700018f0a14,001,2022-04-29_03h15.37.677,classification_task,2021.2.3,Win32,60.0060006,5d79d3f3fa7c0700018f0a14,626b377229c10585ec392f89,626b3bd510b7b3eb45797a00,,,,,,,,,,,,,,,,,,,,,,,l,1,1.2791,"[""0.102"",""0.315"",""0.664"",""0.789""]","[1,1,1,0]",0,37,37,37,1,1,0,,,0,FALSE,,,,,,,,,,,,,,,,,,,,,,,,,,,,,,
,5d79d3f3fa7c0700018f0a14,001,2022-04-29_03h15.37.677,classification_task,2021.2.3,Win32,60.0060006,5d79d3f3fa7c0700018f0a14,626b377229c10585ec392f89,626b3bd510b7b3eb45797a00,,,,,,,,,,,,,,,,,,,,,,,l,1,0.5955,"[""0.102"",""0.315"",""0.939"",""0.703""]","[1,1,0,1]",0,38,38,38,1,1,0,,,0,FALSE,,,,,,,,,,,,,,,,,,,,,,,,,,,,,,
,5d79d3f3fa7c0700018f0a14,001,2022-04-29_03h15.37.677,classification_task,2021.2.3,Win32,60.0060006,5d79d3f3fa7c0700018f0a14,626b377229c10585ec392f89,626b3bd510b7b3eb45797a00,,,,,,,,,,,,,,,,,,,,,,,a,1,0.8231,"[""0.276"",""0.419"",""0.612"",""0.513""]","[1,1,1,0]",0,39,39,39,1,0,0,,,0,FALSE,,,,,,,,,,,,,,,,,,,,,,,,,,,,,,
,5d79d3f3fa7c0700018f0a14,001,2022-04-29_03h15.37.677,classification_task,2021.2.3,Win32,60.0060006,5d79d3f3fa7c0700018f0a14,626b377229c10585ec392f89,626b3bd510b7b3eb45797a00,,,,,,,,,,,,,,,,,,,,,,,a,1,1.2971,"[""0.276"",""0.419"",""0.377"",""0.873""]","[1,1,0,1]",0,40,40,40,1,0,0,,,0,FALSE,,,,,,,,,,,,,,,,,,,,,,,,,,,,,,
,5d79d3f3fa7c0700018f0a14,001,2022-04-29_03h15.37.677,classification_task,2021.2.3,Win32,60.0060006,5d79d3f3fa7c0700018f0a14,626b377229c10585ec392f89,626b3bd510b7b3eb45797a00,,,,,,,,,,,,,,,,,,,,,,,a,0,1.3359,"[""0.035"",""0.178"",""0.530"",""0.738""]","[1,1,0,1]",0,41,41,41,1,1,1,,,0,FALSE,,,,,,,,,,,,,,,,,,,,,,,,,,,,,,
,5d79d3f3fa7c0700018f0a14,001,2022-04-29_03h15.37.677,classification_task,2021.2.3,Win32,60.0060006,5d79d3f3fa7c0700018f0a14,626b377229c10585ec392f89,626b3bd510b7b3eb45797a00,,,,,,,,,,,,,,,,,,,,,,,l,1,0.5586,"[""0.035"",""0.178"",""0.575"",""0.513""]","[1,1,1,0]",0,42,42,42,1,1,1,,,0,FALSE,,,,,,,,,,,,,,,,,,,,,,,,,,,,,,
,5d79d3f3fa7c0700018f0a14,001,2022-04-29_03h15.37.677,classification_task,2021.2.3,Win32,60.0060006,5d79d3f3fa7c0700018f0a14,626b377229c10585ec392f89,626b3bd510b7b3eb45797a00,,,,,,,,,,,,,,,,,,,,,,,l,1,0.6731,"[""0.035"",""0.530"",""0.575"",""0.738""]","[1,0,1,1]",0,43,43,43,1,1,1,,,0,FALSE,,,,,,,,,,,,,,,,,,,,,,,,,,,,,,
,5d79d3f3fa7c0700018f0a14,001,2022-04-29_03h15.37.677,classification_task,2021.2.3,Win32,60.0060006,5d79d3f3fa7c0700018f0a14,626b377229c10585ec392f89,626b3bd510b7b3eb45797a00,,,,,,,,,,,,,,,,,,,,,,,a,0,1.1444,"[""0.541"",""0.178"",""0.575"",""0.738""]","[0,1,1,1]",0,44,44,44,1,1,1,,,0,FALSE,,,,,,,,,,,,,,,,,,,,,,,,,,,,,,
,5d79d3f3fa7c0700018f0a14,001,2022-04-29_03h15.37.677,classification_task,2021.2.3,Win32,60.0060006,5d79d3f3fa7c0700018f0a14,626b377229c10585ec392f89,626b3bd510b7b3eb45797a00,,,,,,,,,,,,,,,,,,,,,,,l,0,0.9292,"[""0.242"",""0.781"",""0.824"",""0.974""]","[1,0,1,1]",0,45,45,45,1,0,1,,,0,FALSE,,,,,,,,,,,,,,,,,,,,,,,,,,,,,,
,5d79d3f3fa7c0700018f0a14,001,2022-04-29_03h15.37.677,classification_task,2021.2.3,Win32,60.0060006,5d79d3f3fa7c0700018f0a14,626b377229c10585ec392f89,626b3bd510b7b3eb45797a00,,,,,,,,,,,,,,,,,,,,,,,a,1,0.9511,"[""0.242"",""0.467"",""0.517"",""0.974""]","[1,1,0,1]",0,46,46,46,1,0,1,,,0,FALSE,,,,,,,,,,,,,,,,,,,,,,,,,,,,,,
,5d79d3f3fa7c0700018f0a14,001,2022-04-29_03h15.37.677,classification_task,2021.2.3,Win32,60.0060006,5d79d3f3fa7c0700018f0a14,626b377229c10585ec392f89,626b3bd510b7b3eb45797a00,,,,,,,,,,,,,,,,,,,,,,,a,1,0.8271,"[""0.242"",""0.467"",""0.824"",""0.781""]","[1,1,1,0]",0,47,47,47,1,0,1,,,0,FALSE,,,,,,,,,,,,,,,,,,,,,,,,,,,,,,
,5d79d3f3fa7c0700018f0a14,001,2022-04-29_03h15.37.677,classification_task,2021.2.3,Win32,60.0060006,5d79d3f3fa7c0700018f0a14,626b377229c10585ec392f89,626b3bd510b7b3eb45797a00,,,,,,,,,,,,,,,,,,,,,,,l,1,1.5882,"[""0.513"",""0.315"",""0.664"",""0.703""]","[0,1,1,1]",0,48,48,48,1,1,0,,,0,FALSE,,,,,,,,,,,,,,,,,,,,,,,,,,,,,,
,5d79d3f3fa7c0700018f0a14,001,2022-04-29_03h15.37.677,classification_task,2021.2.3,Win32,60.0060006,5d79d3f3fa7c0700018f0a14,626b377229c10585ec392f89,626b3bd510b7b3eb45797a00,,,,,,,,,,,,,,,,,,,,,,,a,0,1.4281,"[""0.789"",""0.178"",""0.575"",""0.738""]","[0,1,1,1]",0,49,49,49,1,1,1,,,0,FALSE,,,,,,,,,,,,,,,,,,,,,,,,,,,,,,
,5d79d3f3fa7c0700018f0a14,001,2022-04-29_03h15.37.677,classification_task,2021.2.3,Win32,60.0060006,5d79d3f3fa7c0700018f0a14,626b377229c10585ec392f89,626b3bd510b7b3eb45797a00,,,,,,,,,,,,,,,,,,,,,,,a,1,1.412,"[""0.242"",""0.467"",""0.824"",""0.384""]","[1,1,1,0]",0,50,50,50,1,0,1,,,0,FALSE,,,,,,,,,,,,,,,,,,,,,,,,,,,,,,
,5d79d3f3fa7c0700018f0a14,001,2022-04-29_03h15.37.677,classification_task,2021.2.3,Win32,60.0060006,5d79d3f3fa7c0700018f0a14,626b377229c10585ec392f89,626b3bd510b7b3eb45797a00,,,,,,,,,,,,,,,,,,,,,,,l,1,1.7872,"[""0.035"",""0.178"",""0.575"",""0.525""]","[1,1,1,0]",0,51,51,51,1,1,1,,,0,FALSE,,,,,,,,,,,,,,,,,,,,,,,,,,,,,,
,5d79d3f3fa7c0700018f0a14,001,2022-04-29_03h15.37.677,classification_task,2021.2.3,Win32,60.0060006,5d79d3f3fa7c0700018f0a14,626b377229c10585ec392f89,626b3bd510b7b3eb45797a00,,,,,,,,,,,,,,,,,,,,,,,a,0,1.3519,"[""0.102"",""0.315"",""0.664"",""0.789""]","[1,1,1,0]",0,52,52,52,1,1,0,,,0,FALSE,,,,,,,,,,,,,,,,,,,,,,,,,,,,,,
,5d79d3f3fa7c0700018f0a14,001,2022-04-29_03h15.37.677,classification_task,2021.2.3,Win32,60.0060006,5d79d3f3fa7c0700018f0a14,626b377229c10585ec392f89,626b3bd510b7b3eb45797a00,,,,,,,,,,,,,,,,,,,,,,,l,1,1.7023,"[""0.035"",""0.178"",""0.530"",""0.738""]","[1,1,0,1]",0,53,53,53,1,1,1,,,0,FALSE,,,,,,,,,,,,,,,,,,,,,,,,,,,,,,
,5d79d3f3fa7c0700018f0a14,001,2022-04-29_03h15.37.677,classification_task,2021.2.3,Win32,60.0060006,5d79d3f3fa7c0700018f0a14,626b377229c10585ec392f89,626b3bd510b7b3eb45797a00,,,,,,,,,,,,,,,,,,,,,,,a,1,1.1393,"[""0.512"",""0.467"",""0.824"",""0.974""]","[0,1,1,1]",0,54,54,54,1,0,1,,,0,FALSE,,,,,,,,,,,,,,,,,,,,,,,,,,,,,,
,5d79d3f3fa7c0700018f0a14,001,2022-04-29_03h15.37.677,classification_task,2021.2.3,Win32,60.0060006,5d79d3f3fa7c0700018f0a14,626b377229c10585ec392f89,626b3bd510b7b3eb45797a00,,,,,,,,,,,,,,,,,,,,,,,l,1,1.3253,"[""0.102"",""0.377"",""0.664"",""0.703""]","[1,0,1,1]",0,55,55,55,1,1,0,,,0,FALSE,,,,,,,,,,,,,,,,,,,,,,,,,,,,,,
,5d79d3f3fa7c0700018f0a14,001,2022-04-29_03h15.37.677,classification_task,2021.2.3,Win32,60.0060006,5d79d3f3fa7c0700018f0a14,626b377229c10585ec392f89,626b3bd510b7b3eb45797a00,,,,,,,,,,,,,,,,,,,,,,,a,1,1.0853,"[""0.512"",""0.419"",""0.612"",""0.873""]","[0,1,1,1]",0,56,56,56,1,0,0,,,0,FALSE,,,,,,,,,,,,,,,,,,,,,,,,,,,,,,
,5d79d3f3fa7c0700018f0a14,001,2022-04-29_03h15.37.677,classification_task,2021.2.3,Win32,60.0060006,5d79d3f3fa7c0700018f0a14,626b377229c10585ec392f89,626b3bd510b7b3eb45797a00,,,,,,,,,,,,,,,,,,,,,,,l,1,0.8648,"[""0.102"",""0.315"",""0.789"",""0.703""]","[1,1,0,1]",0,57,57,57,1,1,0,,,0,FALSE,,,,,,,,,,,,,,,,,,,,,,,,,,,,,,
,5d79d3f3fa7c0700018f0a14,001,2022-04-29_03h15.37.677,classification_task,2021.2.3,Win32,60.0060006,5d79d3f3fa7c0700018f0a14,626b377229c10585ec392f89,626b3bd510b7b3eb45797a00,,,,,,,,,,,,,,,,,,,,,,,a,1,0.9911,"[""0.276"",""0.419"",""0.612"",""0.530""]","[1,1,1,0]",0,58,58,58,1,0,0,,,0,FALSE,,,,,,,,,,,,,,,,,,,,,,,,,,,,,,
,5d79d3f3fa7c0700018f0a14,001,2022-04-29_03h15.37.677,classification_task,2021.2.3,Win32,60.0060006,5d79d3f3fa7c0700018f0a14,626b377229c10585ec392f89,626b3bd510b7b3eb45797a00,,,,,,,,,,,,,,,,,,,,,,,a,1,0.619,"[""0.276"",""0.419"",""0.525"",""0.873""]","[1,1,0,1]",0,59,59,59,1,0,0,,,0,FALSE,,,,,,,,,,,,,,,,,,,,,,,,,,,,,,
,5d79d3f3fa7c0700018f0a14,001,2022-04-29_03h15.37.677,classification_task,2021.2.3,Win32,60.0060006,5d79d3f3fa7c0700018f0a14,626b377229c10585ec392f89,626b3bd510b7b3eb45797a00,,,,,,,,,,,,,,,,,,,,,,,l,0,1.1429,"[""0.242"",""0.929"",""0.824"",""0.974""]","[1,0,1,1]",0,60,60,60,1,0,1,,,0,FALSE,,,,,,,,,,,,,,,,,,,,,,,,,,,,,,
,5d79d3f3fa7c0700018f0a14,001,2022-04-29_03h15.37.677,classification_task,2021.2.3,Win32,60.0060006,5d79d3f3fa7c0700018f0a14,626b377229c10585ec392f89,626b3bd510b7b3eb45797a00,,,,,,,,,,,,,,,,,,,,,,,l,0,1.3263,"[""0.276"",""0.512"",""0.612"",""0.873""]","[1,0,1,1]",0,61,61,61,1,0,0,,,0,FALSE,,,,,,,,,,,,,,,,,,,,,,,,,,,,,,
,5d79d3f3fa7c0700018f0a14,001,2022-04-29_03h15.37.677,classification_task,2021.2.3,Win32,60.0060006,5d79d3f3fa7c0700018f0a14,626b377229c10585ec392f89,626b3bd510b7b3eb45797a00,,,,,,,,,,,,,,,,,,,,,,,l,1,1.2383,"[""0.035"",""0.789"",""0.575"",""0.738""]","[1,0,1,1]",0,62,62,62,1,1,1,,,0,FALSE,,,,,,,,,,,,,,,,,,,,,,,,,,,,,,
,5d79d3f3fa7c0700018f0a14,001,2022-04-29_03h15.37.677,classification_task,2021.2.3,Win32,60.0060006,5d79d3f3fa7c0700018f0a14,626b377229c10585ec392f89,626b3bd510b7b3eb45797a00,,,,,,,,,,,,,,,,,,,,,,,a,1,1.8959,"[""0.242"",""0.467"",""0.525"",""0.974""]","[1,1,0,1]",0,63,63,63,1,0,1,,,0,FALSE,,,,,,,,,,,,,,,,,,,,,,,,,,,,,,
,5d79d3f3fa7c0700018f0a14,001,2022-04-29_03h15.37.677,classification_task,2021.2.3,Win32,60.0060006,5d79d3f3fa7c0700018f0a14,626b377229c10585ec392f89,626b3bd510b7b3eb45797a00,,,,,,,,,,,,,,,,,,,,,,,,,,,,,,,,,,,,,,,0, ,,0,3.530276308,404.526,0,0,0,0,1,2,1,,,,,,,,,,,,,,,,,
,5d79d3f3fa7c0700018f0a14,001,2022-04-29_03h15.37.677,classification_task,2021.2.3,Win32,60.0060006,5d79d3f3fa7c0700018f0a14,626b377229c10585ec392f89,626b3bd510b7b3eb45797a00,,,,,,,,,,,,,,,,,,,,,,,,,,,,,,,,,,,,,,,1,  ,,0,8.086419753,407.775,0,0,0,0,1,2,1,,,,,,,,,,,,,,,,,
,5d79d3f3fa7c0700018f0a14,001,2022-04-29_03h15.37.677,classification_task,2021.2.3,Win32,60.0060006,5d79d3f3fa7c0700018f0a14,626b377229c10585ec392f89,626b3bd510b7b3eb45797a00,,,,,,,,,,,,,,,,,,,,,,,,,,,,,,,,,,,,,,,2,  ,,0,1.815598667,411.2028,0,0,0,0,1,2,1,,,,,,,,,,,,,,,,,
,5d79d3f3fa7c0700018f0a14,001,2022-04-29_03h15.37.677,classification_task,2021.2.3,Win32,60.0060006,5d79d3f3fa7c0700018f0a14,626b377229c10585ec392f89,626b3bd510b7b3eb45797a00,,,,,,,,,,,,,,,,,,,,,,,,,,,,,,,,,,,,,,,,,,,,,0,0,0,0,1,,1,,,,,,,,,,,,,,,,,
,5d79d3f3fa7c0700018f0a14,001,2022-04-29_03h15.37.677,classification_task,2021.2.3,Win32,60.0060006,5d79d3f3fa7c0700018f0a14,626b377229c10585ec392f89,626b3bd510b7b3eb45797a00,,,,,,,,,,,,,,,,,,,,,space,2.799,a,1,2.0594,"[""0.276"",""0.513"",""0.612"",""0.873""]","[1,0,1,1]",0,0,0,0,1,0,0,,,0,FALSE,,,,,,,,,,,,,,,,,,,,,,,,,,,,,,
,5d79d3f3fa7c0700018f0a14,001,2022-04-29_03h15.37.677,classification_task,2021.2.3,Win32,60.0060006,5d79d3f3fa7c0700018f0a14,626b377229c10585ec392f89,626b3bd510b7b3eb45797a00,,,,,,,,,,,,,,,,,,,,,,,l,0,2.572,"[""0.242"",""0.467"",""0.530"",""0.974""]","[1,1,0,1]",0,1,1,1,1,0,1,,,0,FALSE,,,,,,,,,,,,,,,,,,,,,,,,,,,,,,
,5d79d3f3fa7c0700018f0a14,001,2022-04-29_03h15.37.677,classification_task,2021.2.3,Win32,60.0060006,5d79d3f3fa7c0700018f0a14,626b377229c10585ec392f89,626b3bd510b7b3eb45797a00,,,,,,,,,,,,,,,,,,,,,,,l,1,1.4227,"[""0.035"",""0.178"",""0.541"",""0.738""]","[1,1,0,1]",0,2,2,2,1,1,1,,,0,FALSE,,,,,,,,,,,,,,,,,,,,,,,,,,,,,,
,5d79d3f3fa7c0700018f0a14,001,2022-04-29_03h15.37.677,classification_task,2021.2.3,Win32,60.0060006,5d79d3f3fa7c0700018f0a14,626b377229c10585ec392f89,626b3bd510b7b3eb45797a00,,,,,,,,,,,,,,,,,,,,,,,a,1,2.8166,"[""0.939"",""0.419"",""0.612"",""0.873""]","[0,1,1,1]",0,3,3,3,1,0,0,,,0,FALSE,,,,,,,,,,,,,,,,,,,,,,,,,,,,,,
,5d79d3f3fa7c0700018f0a14,001,2022-04-29_03h15.37.677,classification_task,2021.2.3,Win32,60.0060006,5d79d3f3fa7c0700018f0a14,626b377229c10585ec392f89,626b3bd510b7b3eb45797a00,,,,,,,,,,,,,,,,,,,,,,,l,0,2.7162,"[""0.242"",""0.787"",""0.824"",""0.974""]","[1,0,1,1]",0,4,4,4,1,0,1,,,0,FALSE,,,,,,,,,,,,,,,,,,,,,,,,,,,,,,
,5d79d3f3fa7c0700018f0a14,001,2022-04-29_03h15.37.677,classification_task,2021.2.3,Win32,60.0060006,5d79d3f3fa7c0700018f0a14,626b377229c10585ec392f89,626b3bd510b7b3eb45797a00,,,,,,,,,,,,,,,,,,,,,,,l,1,0.7749,"[""0.515"",""0.315"",""0.664"",""0.703""]","[0,1,1,1]",0,5,5,5,1,1,0,,,0,FALSE,,,,,,,,,,,,,,,,,,,,,,,,,,,,,,
,5d79d3f3fa7c0700018f0a14,001,2022-04-29_03h15.37.677,classification_task,2021.2.3,Win32,60.0060006,5d79d3f3fa7c0700018f0a14,626b377229c10585ec392f89,626b3bd510b7b3eb45797a00,,,,,,,,,,,,,,,,,,,,,,,l,1,0.5695,"[""0.102"",""0.515"",""0.664"",""0.703""]","[1,0,1,1]",0,6,6,6,1,1,0,,,0,FALSE,,,,,,,,,,,,,,,,,,,,,,,,,,,,,,
,5d79d3f3fa7c0700018f0a14,001,2022-04-29_03h15.37.677,classification_task,2021.2.3,Win32,60.0060006,5d79d3f3fa7c0700018f0a14,626b377229c10585ec392f89,626b3bd510b7b3eb45797a00,,,,,,,,,,,,,,,,,,,,,,,a,1,1.4775,"[""0.787"",""0.467"",""0.824"",""0.974""]","[0,1,1,1]",0,7,7,7,1,0,1,,,0,FALSE,,,,,,,,,,,,,,,,,,,,,,,,,,,,,,
,5d79d3f3fa7c0700018f0a14,001,2022-04-29_03h15.37.677,classification_task,2021.2.3,Win32,60.0060006,5d79d3f3fa7c0700018f0a14,626b377229c10585ec392f89,626b3bd510b7b3eb45797a00,,,,,,,,,,,,,,,,,,,,,,,a,1,1.1075,"[""0.242"",""0.467"",""0.824"",""0.512""]","[1,1,1,0]",0,8,8,8,1,0,1,,,0,FALSE,,,,,,,,,,,,,,,,,,,,,,,,,,,,,,
,5d79d3f3fa7c0700018f0a14,001,2022-04-29_03h15.37.677,classification_task,2021.2.3,Win32,60.0060006,5d79d3f3fa7c0700018f0a14,626b377229c10585ec392f89,626b3bd510b7b3eb45797a00,,,,,,,,,,,,,,,,,,,,,,,l,0,1.134,"[""0.276"",""0.419"",""0.541"",""0.873""]","[1,1,0,1]",0,9,9,9,1,0,0,,,0,FALSE,,,,,,,,,,,,,,,,,,,,,,,,,,,,,,
,5d79d3f3fa7c0700018f0a14,001,2022-04-29_03h15.37.677,classification_task,2021.2.3,Win32,60.0060006,5d79d3f3fa7c0700018f0a14,626b377229c10585ec392f89,626b3bd510b7b3eb45797a00,,,,,,,,,,,,,,,,,,,,,,,l,1,1.3129,"[""0.102"",""0.315"",""0.664"",""0.512""]","[1,1,1,0]",0,10,10,10,1,1,0,,,0,FALSE,,,,,,,,,,,,,,,,,,,,,,,,,,,,,,
,5d79d3f3fa7c0700018f0a14,001,2022-04-29_03h15.37.677,classification_task,2021.2.3,Win32,60.0060006,5d79d3f3fa7c0700018f0a14,626b377229c10585ec392f89,626b3bd510b7b3eb45797a00,,,,,,,,,,,,,,,,,,,,,,,a,1,1.1246,"[""0.276"",""0.419"",""0.612"",""0.916""]","[1,1,1,0]",0,11,11,11,1,0,0,,,0,FALSE,,,,,,,,,,,,,,,,,,,,,,,,,,,,,,
,5d79d3f3fa7c0700018f0a14,001,2022-04-29_03h15.37.677,classification_task,2021.2.3,Win32,60.0060006,5d79d3f3fa7c0700018f0a14,626b377229c10585ec392f89,626b3bd510b7b3eb45797a00,,,,,,,,,,,,,,,,,,,,,,,l,1,0.7218,"[""0.102"",""0.315"",""0.541"",""0.703""]","[1,1,0,1]",0,12,12,12,1,1,0,,,0,FALSE,,,,,,,,,,,,,,,,,,,,,,,,,,,,,,
,5d79d3f3fa7c0700018f0a14,001,2022-04-29_03h15.37.677,classification_task,2021.2.3,Win32,60.0060006,5d79d3f3fa7c0700018f0a14,626b377229c10585ec392f89,626b3bd510b7b3eb45797a00,,,,,,,,,,,,,,,,,,,,,,,l,1,1.0185,"[""0.035"",""0.178"",""0.575"",""0.787""]","[1,1,1,0]",0,13,13,13,1,1,1,,,0,FALSE,,,,,,,,,,,,,,,,,,,,,,,,,,,,,,
,5d79d3f3fa7c0700018f0a14,001,2022-04-29_03h15.37.677,classification_task,2021.2.3,Win32,60.0060006,5d79d3f3fa7c0700018f0a14,626b377229c10585ec392f89,626b3bd510b7b3eb45797a00,,,,,,,,,,,,,,,,,,,,,,,l,1,1.0285,"[""0.781"",""0.178"",""0.575"",""0.738""]","[0,1,1,1]",0,14,14,14,1,1,1,,,0,FALSE,,,,,,,,,,,,,,,,,,,,,,,,,,,,,,
,5d79d3f3fa7c0700018f0a14,001,2022-04-29_03h15.37.677,classification_task,2021.2.3,Win32,60.0060006,5d79d3f3fa7c0700018f0a14,626b377229c10585ec392f89,626b3bd510b7b3eb45797a00,,,,,,,,,,,,,,,,,,,,,,,l,1,0.8661,"[""0.035"",""0.929"",""0.575"",""0.738""]","[1,0,1,1]",0,15,15,15,1,1,1,,,0,FALSE,,,,,,,,,,,,,,,,,,,,,,,,,,,,,,
,5d79d3f3fa7c0700018f0a14,001,2022-04-29_03h15.37.677,classification_task,2021.2.3,Win32,60.0060006,5d79d3f3fa7c0700018f0a14,626b377229c10585ec392f89,626b3bd510b7b3eb45797a00,,,,,,,,,,,,,,,,,,,,,,,a,1,1.7376,"[""0.276"",""0.525"",""0.612"",""0.873""]","[1,0,1,1]",0,16,16,16,1,0,0,,,0,FALSE,,,,,,,,,,,,,,,,,,,,,,,,,,,,,,
,5d79d3f3fa7c0700018f0a14,001,2022-04-29_03h15.37.677,classification_task,2021.2.3,Win32,60.0060006,5d79d3f3fa7c0700018f0a14,626b377229c10585ec392f89,626b3bd510b7b3eb45797a00,,,,,,,,,,,,,,,,,,,,,,,l,0,1.2358,"[""0.242"",""0.515"",""0.824"",""0.974""]","[1,0,1,1]",0,17,17,17,1,0,1,,,0,FALSE,,,,,,,,,,,,,,,,,,,,,,,,,,,,,,
,5d79d3f3fa7c0700018f0a14,001,2022-04-29_03h15.37.677,classification_task,2021.2.3,Win32,60.0060006,5d79d3f3fa7c0700018f0a14,626b377229c10585ec392f89,626b3bd510b7b3eb45797a00,,,,,,,,,,,,,,,,,,,,,,,l,1,2.6453,"[""0.035"",""0.178"",""0.575"",""0.525""]","[1,1,1,0]",0,18,18,18,1,1,1,,,0,FALSE,,,,,,,,,,,,,,,,,,,,,,,,,,,,,,
,5d79d3f3fa7c0700018f0a14,001,2022-04-29_03h15.37.677,classification_task,2021.2.3,Win32,60.0060006,5d79d3f3fa7c0700018f0a14,626b377229c10585ec392f89,626b3bd510b7b3eb45797a00,,,,,,,,,,,,,,,,,,,,,,,l,1,1.5149,"[""0.102"",""0.315"",""0.664"",""0.517""]","[1,1,1,0]",0,19,19,19,1,1,0,,,0,FALSE,,,,,,,,,,,,,,,,,,,,,,,,,,,,,,
,5d79d3f3fa7c0700018f0a14,001,2022-04-29_03h15.37.677,classification_task,2021.2.3,Win32,60.0060006,5d79d3f3fa7c0700018f0a14,626b377229c10585ec392f89,626b3bd510b7b3eb45797a00,,,,,,,,,,,,,,,,,,,,,,,a,1,1.5621,"[""0.276"",""0.419"",""0.612"",""0.515""]","[1,1,1,0]",0,20,20,20,1,0,0,,,0,FALSE,,,,,,,,,,,,,,,,,,,,,,,,,,,,,,
,5d79d3f3fa7c0700018f0a14,001,2022-04-29_03h15.37.677,classification_task,2021.2.3,Win32,60.0060006,5d79d3f3fa7c0700018f0a14,626b377229c10585ec392f89,626b3bd510b7b3eb45797a00,,,,,,,,,,,,,,,,,,,,,,,a,1,1.1158,"[""0.276"",""0.419"",""0.929"",""0.873""]","[1,1,0,1]",0,21,21,21,1,0,0,,,0,FALSE,,,,,,,,,,,,,,,,,,,,,,,,,,,,,,
,5d79d3f3fa7c0700018f0a14,001,2022-04-29_03h15.37.677,classification_task,2021.2.3,Win32,60.0060006,5d79d3f3fa7c0700018f0a14,626b377229c10585ec392f89,626b3bd510b7b3eb45797a00,,,,,,,,,,,,,,,,,,,,,,,l,1,1.8278,"[""0.035"",""0.517"",""0.575"",""0.738""]","[1,0,1,1]",0,22,22,22,1,1,1,,,0,FALSE,,,,,,,,,,,,,,,,,,,,,,,,,,,,,,
,5d79d3f3fa7c0700018f0a14,001,2022-04-29_03h15.37.677,classification_task,2021.2.3,Win32,60.0060006,5d79d3f3fa7c0700018f0a14,626b377229c10585ec392f89,626b3bd510b7b3eb45797a00,,,,,,,,,,,,,,,,,,,,,,,l,1,1.4965,"[""0.513"",""0.178"",""0.575"",""0.738""]","[0,1,1,1]",0,23,23,23,1,1,1,,,0,FALSE,,,,,,,,,,,,,,,,,,,,,,,,,,,,,,
,5d79d3f3fa7c0700018f0a14,001,2022-04-29_03h15.37.677,classification_task,2021.2.3,Win32,60.0060006,5d79d3f3fa7c0700018f0a14,626b377229c10585ec392f89,626b3bd510b7b3eb45797a00,,,,,,,,,,,,,,,,,,,,,,,a,1,1.3117,"[""0.530"",""0.419"",""0.612"",""0.873""]","[0,1,1,1]",0,24,24,24,1,0,0,,,0,FALSE,,,,,,,,,,,,,,,,,,,,,,,,,,,,,,
,5d79d3f3fa7c0700018f0a14,001,2022-04-29_03h15.37.677,classification_task,2021.2.3,Win32,60.0060006,5d79d3f3fa7c0700018f0a14,626b377229c10585ec392f89,626b3bd510b7b3eb45797a00,,,,,,,,,,,,,,,,,,,,,,,a,1,2.8249,"[""0.242"",""0.467"",""0.939"",""0.974""]","[1,1,0,1]",0,25,25,25,1,0,1,,,0,FALSE,,,,,,,,,,,,,,,,,,,,,,,,,,,,,,
,5d79d3f3fa7c0700018f0a14,001,2022-04-29_03h15.37.677,classification_task,2021.2.3,Win32,60.0060006,5d79d3f3fa7c0700018f0a14,626b377229c10585ec392f89,626b3bd510b7b3eb45797a00,,,,,,,,,,,,,,,,,,,,,,,l,1,0.7915,"[""0.102"",""0.525"",""0.664"",""0.703""]","[1,0,1,1]",0,26,26,26,1,1,0,,,0,FALSE,,,,,,,,,,,,,,,,,,,,,,,,,,,,,,
,5d79d3f3fa7c0700018f0a14,001,2022-04-29_03h15.37.677,classification_task,2021.2.3,Win32,60.0060006,5d79d3f3fa7c0700018f0a14,626b377229c10585ec392f89,626b3bd510b7b3eb45797a00,,,,,,,,,,,,,,,,,,,,,,,l,1,1.471,"[""0.035"",""0.178"",""0.377"",""0.738""]","[1,1,0,1]",0,27,27,27,1,1,1,,,0,FALSE,,,,,,,,,,,,,,,,,,,,,,,,,,,,,,
,5d79d3f3fa7c0700018f0a14,001,2022-04-29_03h15.37.677,classification_task,2021.2.3,Win32,60.0060006,5d79d3f3fa7c0700018f0a14,626b377229c10585ec392f89,626b3bd510b7b3eb45797a00,,,,,,,,,,,,,,,,,,,,,,,l,1,1.6441,"[""0.939"",""0.315"",""0.664"",""0.703""]","[0,1,1,1]",0,28,28,28,1,1,0,,,0,FALSE,,,,,,,,,,,,,,,,,,,,,,,,,,,,,,
,5d79d3f3fa7c0700018f0a14,001,2022-04-29_03h15.37.677,classification_task,2021.2.3,Win32,60.0060006,5d79d3f3fa7c0700018f0a14,626b377229c10585ec392f89,626b3bd510b7b3eb45797a00,,,,,,,,,,,,,,,,,,,,,,,l,1,0.6177,"[""0.102"",""0.315"",""0.781"",""0.703""]","[1,1,0,1]",0,29,29,29,1,1,0,,,0,FALSE,,,,,,,,,,,,,,,,,,,,,,,,,,,,,,
,5d79d3f3fa7c0700018f0a14,001,2022-04-29_03h15.37.677,classification_task,2021.2.3,Win32,60.0060006,5d79d3f3fa7c0700018f0a14,626b377229c10585ec392f89,626b3bd510b7b3eb45797a00,,,,,,,,,,,,,,,,,,,,,,,a,1,0.9059,"[""0.242"",""0.467"",""0.824"",""0.384""]","[1,1,1,0]",0,30,30,30,1,0,1,,,0,FALSE,,,,,,,,,,,,,,,,,,,,,,,,,,,,,,
,5d79d3f3fa7c0700018f0a14,001,2022-04-29_03h15.37.677,classification_task,2021.2.3,Win32,60.0060006,5d79d3f3fa7c0700018f0a14,626b377229c10585ec392f89,626b3bd510b7b3eb45797a00,,,,,,,,,,,,,,,,,,,,,,,l,0,0.9684,"[""0.384"",""0.467"",""0.824"",""0.974""]","[0,1,1,1]",0,31,31,31,1,0,1,,,0,FALSE,,,,,,,,,,,,,,,,,,,,,,,,,,,,,,
,5d79d3f3fa7c0700018f0a14,001,2022-04-29_03h15.37.677,classification_task,2021.2.3,Win32,60.0060006,5d79d3f3fa7c0700018f0a14,626b377229c10585ec392f89,626b3bd510b7b3eb45797a00,,,,,,,,,,,,,,,,,,,,,,,a,1,1.8768,"[""0.276"",""0.517"",""0.612"",""0.873""]","[1,0,1,1]",0,32,32,32,1,0,0,,,0,FALSE,,,,,,,,,,,,,,,,,,,,,,,,,,,,,,
,5d79d3f3fa7c0700018f0a14,001,2022-04-29_03h15.37.677,classification_task,2021.2.3,Win32,60.0060006,5d79d3f3fa7c0700018f0a14,626b377229c10585ec392f89,626b3bd510b7b3eb45797a00,,,,,,,,,,,,,,,,,,,,,,,a,1,1.0403,"[""0.242"",""0.467"",""0.787"",""0.974""]","[1,1,0,1]",0,33,33,33,1,0,1,,,0,FALSE,,,,,,,,,,,,,,,,,,,,,,,,,,,,,,
,5d79d3f3fa7c0700018f0a14,001,2022-04-29_03h15.37.677,classification_task,2021.2.3,Win32,60.0060006,5d79d3f3fa7c0700018f0a14,626b377229c10585ec392f89,626b3bd510b7b3eb45797a00,,,,,,,,,,,,,,,,,,,,,,,a,1,0.7158,"[""0.276"",""0.419"",""0.530"",""0.873""]","[1,1,0,1]",0,34,34,34,1,0,0,,,0,FALSE,,,,,,,,,,,,,,,,,,,,,,,,,,,,,,
,5d79d3f3fa7c0700018f0a14,001,2022-04-29_03h15.37.677,classification_task,2021.2.3,Win32,60.0060006,5d79d3f3fa7c0700018f0a14,626b377229c10585ec392f89,626b3bd510b7b3eb45797a00,,,,,,,,,,,,,,,,,,,,,,,l,1,0.7224,"[""0.035"",""0.178"",""0.787"",""0.738""]","[1,1,0,1]",0,35,35,35,1,1,1,,,0,FALSE,,,,,,,,,,,,,,,,,,,,,,,,,,,,,,
,5d79d3f3fa7c0700018f0a14,001,2022-04-29_03h15.37.677,classification_task,2021.2.3,Win32,60.0060006,5d79d3f3fa7c0700018f0a14,626b377229c10585ec392f89,626b3bd510b7b3eb45797a00,,,,,,,,,,,,,,,,,,,,,,,l,1,1.0597,"[""0.102"",""0.315"",""0.918"",""0.703""]","[1,1,0,1]",0,36,36,36,1,1,0,,,0,FALSE,,,,,,,,,,,,,,,,,,,,,,,,,,,,,,
,5d79d3f3fa7c0700018f0a14,001,2022-04-29_03h15.37.677,classification_task,2021.2.3,Win32,60.0060006,5d79d3f3fa7c0700018f0a14,626b377229c10585ec392f89,626b3bd510b7b3eb45797a00,,,,,,,,,,,,,,,,,,,,,,,a,1,1.2403,"[""0.929"",""0.419"",""0.612"",""0.873""]","[0,1,1,1]",0,37,37,37,1,0,0,,,0,FALSE,,,,,,,,,,,,,,,,,,,,,,,,,,,,,,
,5d79d3f3fa7c0700018f0a14,001,2022-04-29_03h15.37.677,classification_task,2021.2.3,Win32,60.0060006,5d79d3f3fa7c0700018f0a14,626b377229c10585ec392f89,626b3bd510b7b3eb45797a00,,,,,,,,,,,,,,,,,,,,,,,l,1,1.6234,"[""0.035"",""0.178"",""0.575"",""0.525""]","[1,1,1,0]",0,38,38,38,1,1,1,,,0,FALSE,,,,,,,,,,,,,,,,,,,,,,,,,,,,,,
,5d79d3f3fa7c0700018f0a14,001,2022-04-29_03h15.37.677,classification_task,2021.2.3,Win32,60.0060006,5d79d3f3fa7c0700018f0a14,626b377229c10585ec392f89,626b3bd510b7b3eb45797a00,,,,,,,,,,,,,,,,,,,,,,,l,1,0.7408,"[""0.102"",""0.377"",""0.664"",""0.703""]","[1,0,1,1]",0,39,39,39,1,1,0,,,0,FALSE,,,,,,,,,,,,,,,,,,,,,,,,,,,,,,
,5d79d3f3fa7c0700018f0a14,001,2022-04-29_03h15.37.677,classification_task,2021.2.3,Win32,60.0060006,5d79d3f3fa7c0700018f0a14,626b377229c10585ec392f89,626b3bd510b7b3eb45797a00,,,,,,,,,,,,,,,,,,,,,,,l,1,1.0673,"[""0.929"",""0.178"",""0.575"",""0.738""]","[0,1,1,1]",0,40,40,40,1,1,1,,,0,FALSE,,,,,,,,,,,,,,,,,,,,,,,,,,,,,,
,5d79d3f3fa7c0700018f0a14,001,2022-04-29_03h15.37.677,classification_task,2021.2.3,Win32,60.0060006,5d79d3f3fa7c0700018f0a14,626b377229c10585ec392f89,626b3bd510b7b3eb45797a00,,,,,,,,,,,,,,,,,,,,,,,a,1,0.6895,"[""0.242"",""0.517"",""0.824"",""0.974""]","[1,0,1,1]",0,41,41,41,1,0,1,,,0,FALSE,,,,,,,,,,,,,,,,,,,,,,,,,,,,,,
,5d79d3f3fa7c0700018f0a14,001,2022-04-29_03h15.37.677,classification_task,2021.2.3,Win32,60.0060006,5d79d3f3fa7c0700018f0a14,626b377229c10585ec392f89,626b3bd510b7b3eb45797a00,,,,,,,,,,,,,,,,,,,,,,,l,1,0.5606,"[""0.918"",""0.315"",""0.664"",""0.703""]","[0,1,1,1]",0,42,42,42,1,1,0,,,0,FALSE,,,,,,,,,,,,,,,,,,,,,,,,,,,,,,
,5d79d3f3fa7c0700018f0a14,001,2022-04-29_03h15.37.677,classification_task,2021.2.3,Win32,60.0060006,5d79d3f3fa7c0700018f0a14,626b377229c10585ec392f89,626b3bd510b7b3eb45797a00,,,,,,,,,,,,,,,,,,,,,,,l,1,1.7189,"[""0.035"",""0.530"",""0.575"",""0.738""]","[1,0,1,1]",0,43,43,43,1,1,1,,,0,FALSE,,,,,,,,,,,,,,,,,,,,,,,,,,,,,,
,5d79d3f3fa7c0700018f0a14,001,2022-04-29_03h15.37.677,classification_task,2021.2.3,Win32,60.0060006,5d79d3f3fa7c0700018f0a14,626b377229c10585ec392f89,626b3bd510b7b3eb45797a00,,,,,,,,,,,,,,,,,,,,,,,a,1,0.9619,"[""0.242"",""0.467"",""0.824"",""0.525""]","[1,1,1,0]",0,44,44,44,1,0,1,,,0,FALSE,,,,,,,,,,,,,,,,,,,,,,,,,,,,,,
,5d79d3f3fa7c0700018f0a14,001,2022-04-29_03h15.37.677,classification_task,2021.2.3,Win32,60.0060006,5d79d3f3fa7c0700018f0a14,626b377229c10585ec392f89,626b3bd510b7b3eb45797a00,,,,,,,,,,,,,,,,,,,,,,,a,1,0.7329,"[""0.916"",""0.467"",""0.824"",""0.974""]","[0,1,1,1]",0,45,45,45,1,0,1,,,0,FALSE,,,,,,,,,,,,,,,,,,,,,,,,,,,,,,
,5d79d3f3fa7c0700018f0a14,001,2022-04-29_03h15.37.677,classification_task,2021.2.3,Win32,60.0060006,5d79d3f3fa7c0700018f0a14,626b377229c10585ec392f89,626b3bd510b7b3eb45797a00,,,,,,,,,,,,,,,,,,,,,,,l,1,0.8669,"[""0.102"",""0.315"",""0.664"",""0.513""]","[1,1,1,0]",0,46,46,46,1,1,0,,,0,FALSE,,,,,,,,,,,,,,,,,,,,,,,,,,,,,,
,5d79d3f3fa7c0700018f0a14,001,2022-04-29_03h15.37.677,classification_task,2021.2.3,Win32,60.0060006,5d79d3f3fa7c0700018f0a14,626b377229c10585ec392f89,626b3bd510b7b3eb45797a00,,,,,,,,,,,,,,,,,,,,,,,a,1,0.6751,"[""0.276"",""0.419"",""0.612"",""0.513""]","[1,1,1,0]",0,47,47,47,1,0,0,,,0,FALSE,,,,,,,,,,,,,,,,,,,,,,,,,,,,,,
,5d79d3f3fa7c0700018f0a14,001,2022-04-29_03h15.37.677,classification_task,2021.2.3,Win32,60.0060006,5d79d3f3fa7c0700018f0a14,626b377229c10585ec392f89,626b3bd510b7b3eb45797a00,,,,,,,,,,,,,,,,,,,,,,,l,1,1.0704,"[""0.102"",""0.315"",""0.664"",""0.789""]","[1,1,1,0]",0,48,48,48,1,1,0,,,0,FALSE,,,,,,,,,,,,,,,,,,,,,,,,,,,,,,
,5d79d3f3fa7c0700018f0a14,001,2022-04-29_03h15.37.677,classification_task,2021.2.3,Win32,60.0060006,5d79d3f3fa7c0700018f0a14,626b377229c10585ec392f89,626b3bd510b7b3eb45797a00,,,,,,,,,,,,,,,,,,,,,,,a,1,0.9484,"[""0.242"",""0.467"",""0.824"",""0.929""]","[1,1,1,0]",0,49,49,49,1,0,1,,,0,FALSE,,,,,,,,,,,,,,,,,,,,,,,,,,,,,,
,5d79d3f3fa7c0700018f0a14,001,2022-04-29_03h15.37.677,classification_task,2021.2.3,Win32,60.0060006,5d79d3f3fa7c0700018f0a14,626b377229c10585ec392f89,626b3bd510b7b3eb45797a00,,,,,,,,,,,,,,,,,,,,,,,a,1,1.2718,"[""0.276"",""0.419"",""0.612"",""0.525""]","[1,1,1,0]",0,50,50,50,1,0,0,,,0,FALSE,,,,,,,,,,,,,,,,,,,,,,,,,,,,,,
,5d79d3f3fa7c0700018f0a14,001,2022-04-29_03h15.37.677,classification_task,2021.2.3,Win32,60.0060006,5d79d3f3fa7c0700018f0a14,626b377229c10585ec392f89,626b3bd510b7b3eb45797a00,,,,,,,,,,,,,,,,,,,,,,,l,1,1.4274,"[""0.035"",""0.178"",""0.530"",""0.738""]","[1,1,0,1]",0,51,51,51,1,1,1,,,0,FALSE,,,,,,,,,,,,,,,,,,,,,,,,,,,,,,
,5d79d3f3fa7c0700018f0a14,001,2022-04-29_03h15.37.677,classification_task,2021.2.3,Win32,60.0060006,5d79d3f3fa7c0700018f0a14,626b377229c10585ec392f89,626b3bd510b7b3eb45797a00,,,,,,,,,,,,,,,,,,,,,,,l,1,1.0164,"[""0.102"",""0.315"",""0.530"",""0.703""]","[1,1,0,1]",0,52,52,52,1,1,0,,,0,FALSE,,,,,,,,,,,,,,,,,,,,,,,,,,,,,,
,5d79d3f3fa7c0700018f0a14,001,2022-04-29_03h15.37.677,classification_task,2021.2.3,Win32,60.0060006,5d79d3f3fa7c0700018f0a14,626b377229c10585ec392f89,626b3bd510b7b3eb45797a00,,,,,,,,,,,,,,,,,,,,,,,a,1,1.0248,"[""0.513"",""0.467"",""0.824"",""0.974""]","[0,1,1,1]",0,53,53,53,1,0,1,,,0,FALSE,,,,,,,,,,,,,,,,,,,,,,,,,,,,,,
,5d79d3f3fa7c0700018f0a14,001,2022-04-29_03h15.37.677,classification_task,2021.2.3,Win32,60.0060006,5d79d3f3fa7c0700018f0a14,626b377229c10585ec392f89,626b3bd510b7b3eb45797a00,,,,,,,,,,,,,,,,,,,,,,,l,1,1.0086,"[""0.035"",""0.178"",""0.575"",""0.515""]","[1,1,1,0]",0,54,54,54,1,1,1,,,0,FALSE,,,,,,,,,,,,,,,,,,,,,,,,,,,,,,
,5d79d3f3fa7c0700018f0a14,001,2022-04-29_03h15.37.677,classification_task,2021.2.3,Win32,60.0060006,5d79d3f3fa7c0700018f0a14,626b377229c10585ec392f89,626b3bd510b7b3eb45797a00,,,,,,,,,,,,,,,,,,,,,,,l,1,1.8768,"[""0.781"",""0.315"",""0.664"",""0.703""]","[0,1,1,1]",0,55,55,55,1,1,0,,,0,FALSE,,,,,,,,,,,,,,,,,,,,,,,,,,,,,,
,5d79d3f3fa7c0700018f0a14,001,2022-04-29_03h15.37.677,classification_task,2021.2.3,Win32,60.0060006,5d79d3f3fa7c0700018f0a14,626b377229c10585ec392f89,626b3bd510b7b3eb45797a00,,,,,,,,,,,,,,,,,,,,,,,a,1,1.0987,"[""0.242"",""0.467"",""0.384"",""0.974""]","[1,1,0,1]",0,56,56,56,1,0,1,,,0,FALSE,,,,,,,,,,,,,,,,,,,,,,,,,,,,,,
,5d79d3f3fa7c0700018f0a14,001,2022-04-29_03h15.37.677,classification_task,2021.2.3,Win32,60.0060006,5d79d3f3fa7c0700018f0a14,626b377229c10585ec392f89,626b3bd510b7b3eb45797a00,,,,,,,,,,,,,,,,,,,,,,,l,1,1.0649,"[""0.789"",""0.178"",""0.575"",""0.738""]","[0,1,1,1]",0,57,57,57,1,1,1,,,0,FALSE,,,,,,,,,,,,,,,,,,,,,,,,,,,,,,
,5d79d3f3fa7c0700018f0a14,001,2022-04-29_03h15.37.677,classification_task,2021.2.3,Win32,60.0060006,5d79d3f3fa7c0700018f0a14,626b377229c10585ec392f89,626b3bd510b7b3eb45797a00,,,,,,,,,,,,,,,,,,,,,,,l,1,0.8424,"[""0.035"",""0.517"",""0.575"",""0.738""]","[1,0,1,1]",0,58,58,58,1,1,1,,,0,FALSE,,,,,,,,,,,,,,,,,,,,,,,,,,,,,,
,5d79d3f3fa7c0700018f0a14,001,2022-04-29_03h15.37.677,classification_task,2021.2.3,Win32,60.0060006,5d79d3f3fa7c0700018f0a14,626b377229c10585ec392f89,626b3bd510b7b3eb45797a00,,,,,,,,,,,,,,,,,,,,,,,l,1,0.8692,"[""0.102"",""0.939"",""0.664"",""0.703""]","[1,0,1,1]",0,59,59,59,1,1,0,,,0,FALSE,,,,,,,,,,,,,,,,,,,,,,,,,,,,,,
,5d79d3f3fa7c0700018f0a14,001,2022-04-29_03h15.37.677,classification_task,2021.2.3,Win32,60.0060006,5d79d3f3fa7c0700018f0a14,626b377229c10585ec392f89,626b3bd510b7b3eb45797a00,,,,,,,,,,,,,,,,,,,,,,,a,1,0.672,"[""0.276"",""0.513"",""0.612"",""0.873""]","[1,0,1,1]",0,60,60,60,1,0,0,,,0,FALSE,,,,,,,,,,,,,,,,,,,,,,,,,,,,,,
,5d79d3f3fa7c0700018f0a14,001,2022-04-29_03h15.37.677,classification_task,2021.2.3,Win32,60.0060006,5d79d3f3fa7c0700018f0a14,626b377229c10585ec392f89,626b3bd510b7b3eb45797a00,,,,,,,,,,,,,,,,,,,,,,,a,1,0.7105,"[""0.939"",""0.419"",""0.612"",""0.873""]","[0,1,1,1]",0,61,61,61,1,0,0,,,0,FALSE,,,,,,,,,,,,,,,,,,,,,,,,,,,,,,
,5d79d3f3fa7c0700018f0a14,001,2022-04-29_03h15.37.677,classification_task,2021.2.3,Win32,60.0060006,5d79d3f3fa7c0700018f0a14,626b377229c10585ec392f89,626b3bd510b7b3eb45797a00,,,,,,,,,,,,,,,,,,,,,,,a,1,1.0265,"[""0.242"",""0.916"",""0.824"",""0.974""]","[1,0,1,1]",0,62,62,62,1,0,1,,,0,FALSE,,,,,,,,,,,,,,,,,,,,,,,,,,,,,,
,5d79d3f3fa7c0700018f0a14,001,2022-04-29_03h15.37.677,classification_task,2021.2.3,Win32,60.0060006,5d79d3f3fa7c0700018f0a14,626b377229c10585ec392f89,626b3bd510b7b3eb45797a00,,,,,,,,,,,,,,,,,,,,,,,a,1,0.6579,"[""0.276"",""0.419"",""0.512"",""0.873""]","[1,1,0,1]",0,63,63,63,1,0,0,,,0,FALSE,,,,,,,,,,,,,,,,,,,,,,,,,,,,,,
,5d79d3f3fa7c0700018f0a14,001,2022-04-29_03h15.37.677,classification_task,2021.2.3,Win32,60.0060006,5d79d3f3fa7c0700018f0a14,626b377229c10585ec392f89,626b3bd510b7b3eb45797a00,,,,,,,,,,,,,,,,,,,,,,,,,,,,,,,,,,,,,,,0, ,,0,6.322751323,159.1043,0,1,1,1,1,2,2,,,,,,,,,,,,,,,,,
,5d79d3f3fa7c0700018f0a14,001,2022-04-29_03h15.37.677,classification_task,2021.2.3,Win32,60.0060006,5d79d3f3fa7c0700018f0a14,626b377229c10585ec392f89,626b3bd510b7b3eb45797a00,,,,,,,,,,,,,,,,,,,,,,,,,,,,,,,,,,,,,,,1,  ,,0,1.570644719,162.6659,0,1,1,1,1,2,2,,,,,,,,,,,,,,,,,
,5d79d3f3fa7c0700018f0a14,001,2022-04-29_03h15.37.677,classification_task,2021.2.3,Win32,60.0060006,5d79d3f3fa7c0700018f0a14,626b377229c10585ec392f89,626b3bd510b7b3eb45797a00,,,,,,,,,,,,,,,,,,,,,,,,,,,,,,,,,,,,,,,2,  ,,0,3.775230257,170.0838,0,1,1,1,1,2,2,,,,,,,,,,,,,,,,,
,5d79d3f3fa7c0700018f0a14,001,2022-04-29_03h15.37.677,classification_task,2021.2.3,Win32,60.0060006,5d79d3f3fa7c0700018f0a14,626b377229c10585ec392f89,626b3bd510b7b3eb45797a00,,,,,,,,,,,,,,,,,,,,,,,,,,,,,,,,,,,,,,,,,,,,,0,1,1,1,1,,2,,,,,,,,,,,,,,,,,
,5d79d3f3fa7c0700018f0a14,001,2022-04-29_03h15.37.677,classification_task,2021.2.3,Win32,60.0060006,5d79d3f3fa7c0700018f0a14,626b377229c10585ec392f89,626b3bd510b7b3eb45797a00,,,,,,,,,,,,,,,,,,,,,space,5.4747,l,0,1.8087,"[""0.513"",""0.467"",""0.824"",""0.974""]","[0,1,1,1]",0,0,0,0,1,0,1,,,0,FALSE,,,,,,,,,,,,,,,,,,,,,,,,,,,,,,
,5d79d3f3fa7c0700018f0a14,001,2022-04-29_03h15.37.677,classification_task,2021.2.3,Win32,60.0060006,5d79d3f3fa7c0700018f0a14,626b377229c10585ec392f89,626b3bd510b7b3eb45797a00,,,,,,,,,,,,,,,,,,,,,,,a,1,1.958,"[""0.242"",""0.467"",""0.824"",""0.530""]","[1,1,1,0]",0,1,1,1,1,0,1,,,0,FALSE,,,,,,,,,,,,,,,,,,,,,,,,,,,,,,
,5d79d3f3fa7c0700018f0a14,001,2022-04-29_03h15.37.677,classification_task,2021.2.3,Win32,60.0060006,5d79d3f3fa7c0700018f0a14,626b377229c10585ec392f89,626b3bd510b7b3eb45797a00,,,,,,,,,,,,,,,,,,,,,,,l,0,3.1537,"[""0.525"",""0.419"",""0.612"",""0.873""]","[0,1,1,1]",0,2,2,2,1,0,0,,,0,FALSE,,,,,,,,,,,,,,,,,,,,,,,,,,,,,,
,5d79d3f3fa7c0700018f0a14,001,2022-04-29_03h15.37.677,classification_task,2021.2.3,Win32,60.0060006,5d79d3f3fa7c0700018f0a14,626b377229c10585ec392f89,626b3bd510b7b3eb45797a00,,,,,,,,,,,,,,,,,,,,,,,a,0,2.3639,"[""0.102"",""0.315"",""0.515"",""0.703""]","[1,1,0,1]",0,3,3,3,1,1,0,,,0,FALSE,,,,,,,,,,,,,,,,,,,,,,,,,,,,,,
,5d79d3f3fa7c0700018f0a14,001,2022-04-29_03h15.37.677,classification_task,2021.2.3,Win32,60.0060006,5d79d3f3fa7c0700018f0a14,626b377229c10585ec392f89,626b3bd510b7b3eb45797a00,,,,,,,,,,,,,,,,,,,,,,,a,1,1.1312,"[""0.242"",""0.467"",""0.789"",""0.974""]","[1,1,0,1]",0,4,4,4,1,0,1,,,0,FALSE,,,,,,,,,,,,,,,,,,,,,,,,,,,,,,
,5d79d3f3fa7c0700018f0a14,001,2022-04-29_03h15.37.677,classification_task,2021.2.3,Win32,60.0060006,5d79d3f3fa7c0700018f0a14,626b377229c10585ec392f89,626b3bd510b7b3eb45797a00,,,,,,,,,,,,,,,,,,,,,,,a,0,1.0951,"[""0.102"",""0.315"",""0.664"",""0.517""]","[1,1,1,0]",0,5,5,5,1,1,0,,,0,FALSE,,,,,,,,,,,,,,,,,,,,,,,,,,,,,,
,5d79d3f3fa7c0700018f0a14,001,2022-04-29_03h15.37.677,classification_task,2021.2.3,Win32,60.0060006,5d79d3f3fa7c0700018f0a14,626b377229c10585ec392f89,626b3bd510b7b3eb45797a00,,,,,,,,,,,,,,,,,,,,,,,l,1,2.3887,"[""0.787"",""0.178"",""0.575"",""0.738""]","[0,1,1,1]",0,6,6,6,1,1,1,,,0,FALSE,,,,,,,,,,,,,,,,,,,,,,,,,,,,,,
,5d79d3f3fa7c0700018f0a14,001,2022-04-29_03h15.37.677,classification_task,2021.2.3,Win32,60.0060006,5d79d3f3fa7c0700018f0a14,626b377229c10585ec392f89,626b3bd510b7b3eb45797a00,,,,,,,,,,,,,,,,,,,,,,,l,0,4.5281,"[""0.276"",""0.419"",""0.512"",""0.873""]","[1,1,0,1]",0,7,7,7,1,0,0,,,0,FALSE,,,,,,,,,,,,,,,,,,,,,,,,,,,,,,
,5d79d3f3fa7c0700018f0a14,001,2022-04-29_03h15.37.677,classification_task,2021.2.3,Win32,60.0060006,5d79d3f3fa7c0700018f0a14,626b377229c10585ec392f89,626b3bd510b7b3eb45797a00,,,,,,,,,,,,,,,,,,,,,,,a,0,1.1933,"[""0.102"",""0.541"",""0.664"",""0.703""]","[1,0,1,1]",0,8,8,8,1,1,0,,,0,FALSE,,,,,,,,,,,,,,,,,,,,,,,,,,,,,,
,5d79d3f3fa7c0700018f0a14,001,2022-04-29_03h15.37.677,classification_task,2021.2.3,Win32,60.0060006,5d79d3f3fa7c0700018f0a14,626b377229c10585ec392f89,626b3bd510b7b3eb45797a00,,,,,,,,,,,,,,,,,,,,,,,l,0,1.1364,"[""0.276"",""0.419"",""0.612"",""0.515""]","[1,1,1,0]",0,9,9,9,1,0,0,,,0,FALSE,,,,,,,,,,,,,,,,,,,,,,,,,,,,,,
,5d79d3f3fa7c0700018f0a14,001,2022-04-29_03h15.37.677,classification_task,2021.2.3,Win32,60.0060006,5d79d3f3fa7c0700018f0a14,626b377229c10585ec392f89,626b3bd510b7b3eb45797a00,,,,,,,,,,,,,,,,,,,,,,,l,1,0.8619,"[""0.035"",""0.178"",""0.575"",""0.377""]","[1,1,1,0]",0,10,10,10,1,1,1,,,0,FALSE,,,,,,,,,,,,,,,,,,,,,,,,,,,,,,
,5d79d3f3fa7c0700018f0a14,001,2022-04-29_03h15.37.677,classification_task,2021.2.3,Win32,60.0060006,5d79d3f3fa7c0700018f0a14,626b377229c10585ec392f89,626b3bd510b7b3eb45797a00,,,,,,,,,,,,,,,,,,,,,,,l,1,1.7934,"[""0.035"",""0.789"",""0.575"",""0.738""]","[1,0,1,1]",0,11,11,11,1,1,1,,,0,FALSE,,,,,,,,,,,,,,,,,,,,,,,,,,,,,,
,5d79d3f3fa7c0700018f0a14,001,2022-04-29_03h15.37.677,classification_task,2021.2.3,Win32,60.0060006,5d79d3f3fa7c0700018f0a14,626b377229c10585ec392f89,626b3bd510b7b3eb45797a00,,,,,,,,,,,,,,,,,,,,,,,a,1,0.7963,"[""0.242"",""0.916"",""0.824"",""0.974""]","[1,0,1,1]",0,12,12,12,1,0,1,,,0,FALSE,,,,,,,,,,,,,,,,,,,,,,,,,,,,,,
,5d79d3f3fa7c0700018f0a14,001,2022-04-29_03h15.37.677,classification_task,2021.2.3,Win32,60.0060006,5d79d3f3fa7c0700018f0a14,626b377229c10585ec392f89,626b3bd510b7b3eb45797a00,,,,,,,,,,,,,,,,,,,,,,,l,1,1.7634,"[""0.035"",""0.178"",""0.789"",""0.738""]","[1,1,0,1]",0,13,13,13,1,1,1,,,0,FALSE,,,,,,,,,,,,,,,,,,,,,,,,,,,,,,
,5d79d3f3fa7c0700018f0a14,001,2022-04-29_03h15.37.677,classification_task,2021.2.3,Win32,60.0060006,5d79d3f3fa7c0700018f0a14,626b377229c10585ec392f89,626b3bd510b7b3eb45797a00,,,,,,,,,,,,,,,,,,,,,,,l,1,2.7262,"[""0.513"",""0.315"",""0.664"",""0.703""]","[0,1,1,1]",0,14,14,14,1,1,0,,,0,FALSE,,,,,,,,,,,,,,,,,,,,,,,,,,,,,,
,5d79d3f3fa7c0700018f0a14,001,2022-04-29_03h15.37.677,classification_task,2021.2.3,Win32,60.0060006,5d79d3f3fa7c0700018f0a14,626b377229c10585ec392f89,626b3bd510b7b3eb45797a00,,,,,,,,,,,,,,,,,,,,,,,a,1,4.7558,"[""0.276"",""0.515"",""0.612"",""0.873""]","[1,0,1,1]",0,15,15,15,1,0,0,,,0,FALSE,,,,,,,,,,,,,,,,,,,,,,,,,,,,,,
,5d79d3f3fa7c0700018f0a14,001,2022-04-29_03h15.37.677,classification_task,2021.2.3,Win32,60.0060006,5d79d3f3fa7c0700018f0a14,626b377229c10585ec392f89,626b3bd510b7b3eb45797a00,,,,,,,,,,,,,,,,,,,,,,,l,0,1.1841,"[""0.276"",""0.419"",""0.612"",""0.918""]","[1,1,1,0]",0,16,16,16,1,0,0,,,0,FALSE,,,,,,,,,,,,,,,,,,,,,,,,,,,,,,
,5d79d3f3fa7c0700018f0a14,001,2022-04-29_03h15.37.677,classification_task,2021.2.3,Win32,60.0060006,5d79d3f3fa7c0700018f0a14,626b377229c10585ec392f89,626b3bd510b7b3eb45797a00,,,,,,,,,,,,,,,,,,,,,,,l,1,1.2027,"[""0.035"",""0.178"",""0.929"",""0.738""]","[1,1,0,1]",0,17,17,17,1,1,1,,,0,FALSE,,,,,,,,,,,,,,,,,,,,,,,,,,,,,,
,5d79d3f3fa7c0700018f0a14,001,2022-04-29_03h15.37.677,classification_task,2021.2.3,Win32,60.0060006,5d79d3f3fa7c0700018f0a14,626b377229c10585ec392f89,626b3bd510b7b3eb45797a00,,,,,,,,,,,,,,,,,,,,,,,l,1,2.2345,"[""0.102"",""0.315"",""0.513"",""0.703""]","[1,1,0,1]",0,18,18,18,1,1,0,,,0,FALSE,,,,,,,,,,,,,,,,,,,,,,,,,,,,,,
,5d79d3f3fa7c0700018f0a14,001,2022-04-29_03h15.37.677,classification_task,2021.2.3,Win32,60.0060006,5d79d3f3fa7c0700018f0a14,626b377229c10585ec392f89,626b3bd510b7b3eb45797a00,,,,,,,,,,,,,,,,,,,,,,,l,1,4.3755,"[""0.035"",""0.525"",""0.575"",""0.738""]","[1,0,1,1]",0,19,19,19,1,1,1,,,0,FALSE,,,,,,,,,,,,,,,,,,,,,,,,,,,,,,
,5d79d3f3fa7c0700018f0a14,001,2022-04-29_03h15.37.677,classification_task,2021.2.3,Win32,60.0060006,5d79d3f3fa7c0700018f0a14,626b377229c10585ec392f89,626b3bd510b7b3eb45797a00,,,,,,,,,,,,,,,,,,,,,,,l,1,0.9971,"[""0.530"",""0.178"",""0.575"",""0.738""]","[0,1,1,1]",0,20,20,20,1,1,1,,,0,FALSE,,,,,,,,,,,,,,,,,,,,,,,,,,,,,,
,5d79d3f3fa7c0700018f0a14,001,2022-04-29_03h15.37.677,classification_task,2021.2.3,Win32,60.0060006,5d79d3f3fa7c0700018f0a14,626b377229c10585ec392f89,626b3bd510b7b3eb45797a00,,,,,,,,,,,,,,,,,,,,,,,a,0,0.8858,"[""0.102"",""0.315"",""0.664"",""0.525""]","[1,1,1,0]",0,21,21,21,1,1,0,,,0,FALSE,,,,,,,,,,,,,,,,,,,,,,,,,,,,,,
,5d79d3f3fa7c0700018f0a14,001,2022-04-29_03h15.37.677,classification_task,2021.2.3,Win32,60.0060006,5d79d3f3fa7c0700018f0a14,626b377229c10585ec392f89,626b3bd510b7b3eb45797a00,,,,,,,,,,,,,,,,,,,,,,,l,0,1.8538,"[""0.916"",""0.419"",""0.612"",""0.873""]","[0,1,1,1]",0,22,22,22,1,0,0,,,0,FALSE,,,,,,,,,,,,,,,,,,,,,,,,,,,,,,
,5d79d3f3fa7c0700018f0a14,001,2022-04-29_03h15.37.677,classification_task,2021.2.3,Win32,60.0060006,5d79d3f3fa7c0700018f0a14,626b377229c10585ec392f89,626b3bd510b7b3eb45797a00,,,,,,,,,,,,,,,,,,,,,,,a,1,3.3023,"[""0.242"",""0.467"",""0.512"",""0.974""]","[1,1,0,1]",0,23,23,23,1,0,1,,,0,FALSE,,,,,,,,,,,,,,,,,,,,,,,,,,,,,,
,5d79d3f3fa7c0700018f0a14,001,2022-04-29_03h15.37.677,classification_task,2021.2.3,Win32,60.0060006,5d79d3f3fa7c0700018f0a14,626b377229c10585ec392f89,626b3bd510b7b3eb45797a00,,,,,,,,,,,,,,,,,,,,,,,a,1,1.447,"[""0.384"",""0.467"",""0.824"",""0.974""]","[0,1,1,1]",0,24,24,24,1,0,1,,,0,FALSE,,,,,,,,,,,,,,,,,,,,,,,,,,,,,,
,5d79d3f3fa7c0700018f0a14,001,2022-04-29_03h15.37.677,classification_task,2021.2.3,Win32,60.0060006,5d79d3f3fa7c0700018f0a14,626b377229c10585ec392f89,626b3bd510b7b3eb45797a00,,,,,,,,,,,,,,,,,,,,,,,l,0,2.1318,"[""0.276"",""0.530"",""0.612"",""0.873""]","[1,0,1,1]",0,25,25,25,1,0,0,,,0,FALSE,,,,,,,,,,,,,,,,,,,,,,,,,,,,,,
,5d79d3f3fa7c0700018f0a14,001,2022-04-29_03h15.37.677,classification_task,2021.2.3,Win32,60.0060006,5d79d3f3fa7c0700018f0a14,626b377229c10585ec392f89,626b3bd510b7b3eb45797a00,,,,,,,,,,,,,,,,,,,,,,,l,1,1.0032,"[""0.035"",""0.178"",""0.575"",""0.513""]","[1,1,1,0]",0,26,26,26,1,1,1,,,0,FALSE,,,,,,,,,,,,,,,,,,,,,,,,,,,,,,
,5d79d3f3fa7c0700018f0a14,001,2022-04-29_03h15.37.677,classification_task,2021.2.3,Win32,60.0060006,5d79d3f3fa7c0700018f0a14,626b377229c10585ec392f89,626b3bd510b7b3eb45797a00,,,,,,,,,,,,,,,,,,,,,,,l,1,1.9859,"[""0.918"",""0.315"",""0.664"",""0.703""]","[0,1,1,1]",0,27,27,27,1,1,0,,,0,FALSE,,,,,,,,,,,,,,,,,,,,,,,,,,,,,,
,5d79d3f3fa7c0700018f0a14,001,2022-04-29_03h15.37.677,classification_task,2021.2.3,Win32,60.0060006,5d79d3f3fa7c0700018f0a14,626b377229c10585ec392f89,626b3bd510b7b3eb45797a00,,,,,,,,,,,,,,,,,,,,,,,a,1,0.9759,"[""0.242"",""0.467"",""0.824"",""0.929""]","[1,1,1,0]",0,28,28,28,1,0,1,,,0,FALSE,,,,,,,,,,,,,,,,,,,,,,,,,,,,,,
,5d79d3f3fa7c0700018f0a14,001,2022-04-29_03h15.37.677,classification_task,2021.2.3,Win32,60.0060006,5d79d3f3fa7c0700018f0a14,626b377229c10585ec392f89,626b3bd510b7b3eb45797a00,,,,,,,,,,,,,,,,,,,,,,,a,1,0.8056,"[""0.242"",""0.512"",""0.824"",""0.974""]","[1,0,1,1]",0,29,29,29,1,0,1,,,0,FALSE,,,,,,,,,,,,,,,,,,,,,,,,,,,,,,
,5d79d3f3fa7c0700018f0a14,001,2022-04-29_03h15.37.677,classification_task,2021.2.3,Win32,60.0060006,5d79d3f3fa7c0700018f0a14,626b377229c10585ec392f89,626b3bd510b7b3eb45797a00,,,,,,,,,,,,,,,,,,,,,,,a,0,1.322,"[""0.102"",""0.384"",""0.664"",""0.703""]","[1,0,1,1]",0,30,30,30,1,1,0,,,0,FALSE,,,,,,,,,,,,,,,,,,,,,,,,,,,,,,
,5d79d3f3fa7c0700018f0a14,001,2022-04-29_03h15.37.677,classification_task,2021.2.3,Win32,60.0060006,5d79d3f3fa7c0700018f0a14,626b377229c10585ec392f89,626b3bd510b7b3eb45797a00,,,,,,,,,,,,,,,,,,,,,,,l,0,0.9466,"[""0.276"",""0.419"",""0.929"",""0.873""]","[1,1,0,1]",0,31,31,31,1,0,0,,,0,FALSE,,,,,,,,,,,,,,,,,,,,,,,,,,,,,,
,5d79d3f3fa7c0700018f0a14,001,2022-04-29_03h15.37.677,classification_task,2021.2.3,Win32,60.0060006,5d79d3f3fa7c0700018f0a14,626b377229c10585ec392f89,626b3bd510b7b3eb45797a00,,,,,,,,,,,,,,,,,,,,,,,l,1,2.3838,"[""0.035"",""0.178"",""0.916"",""0.738""]","[1,1,0,1]",0,32,32,32,1,1,1,,,0,FALSE,,,,,,,,,,,,,,,,,,,,,,,,,,,,,,
,5d79d3f3fa7c0700018f0a14,001,2022-04-29_03h15.37.677,classification_task,2021.2.3,Win32,60.0060006,5d79d3f3fa7c0700018f0a14,626b377229c10585ec392f89,626b3bd510b7b3eb45797a00,,,,,,,,,,,,,,,,,,,,,,,a,1,1.4273,"[""0.789"",""0.419"",""0.612"",""0.873""]","[0,1,1,1]",0,33,33,33,1,0,0,,,0,FALSE,,,,,,,,,,,,,,,,,,,,,,,,,,,,,,
,5d79d3f3fa7c0700018f0a14,001,2022-04-29_03h15.37.677,classification_task,2021.2.3,Win32,60.0060006,5d79d3f3fa7c0700018f0a14,626b377229c10585ec392f89,626b3bd510b7b3eb45797a00,,,,,,,,,,,,,,,,,,,,,,,l,0,1.2407,"[""0.276"",""0.384"",""0.612"",""0.873""]","[1,0,1,1]",0,34,34,34,1,0,0,,,0,FALSE,,,,,,,,,,,,,,,,,,,,,,,,,,,,,,
,5d79d3f3fa7c0700018f0a14,001,2022-04-29_03h15.37.677,classification_task,2021.2.3,Win32,60.0060006,5d79d3f3fa7c0700018f0a14,626b377229c10585ec392f89,626b3bd510b7b3eb45797a00,,,,,,,,,,,,,,,,,,,,,,,a,0,2.758,"[""0.102"",""0.315"",""0.789"",""0.703""]","[1,1,0,1]",0,35,35,35,1,1,0,,,0,FALSE,,,,,,,,,,,,,,,,,,,,,,,,,,,,,,
,5d79d3f3fa7c0700018f0a14,001,2022-04-29_03h15.37.677,classification_task,2021.2.3,Win32,60.0060006,5d79d3f3fa7c0700018f0a14,626b377229c10585ec392f89,626b3bd510b7b3eb45797a00,,,,,,,,,,,,,,,,,,,,,,,l,1,1.3893,"[""0.929"",""0.178"",""0.575"",""0.738""]","[0,1,1,1]",0,36,36,36,1,1,1,,,0,FALSE,,,,,,,,,,,,,,,,,,,,,,,,,,,,,,
,5d79d3f3fa7c0700018f0a14,001,2022-04-29_03h15.37.677,classification_task,2021.2.3,Win32,60.0060006,5d79d3f3fa7c0700018f0a14,626b377229c10585ec392f89,626b3bd510b7b3eb45797a00,,,,,,,,,,,,,,,,,,,,,,,a,1,1.392,"[""0.242"",""0.467"",""0.824"",""0.918""]","[1,1,1,0]",0,37,37,37,1,0,1,,,0,FALSE,,,,,,,,,,,,,,,,,,,,,,,,,,,,,,
,5d79d3f3fa7c0700018f0a14,001,2022-04-29_03h15.37.677,classification_task,2021.2.3,Win32,60.0060006,5d79d3f3fa7c0700018f0a14,626b377229c10585ec392f89,626b3bd510b7b3eb45797a00,,,,,,,,,,,,,,,,,,,,,,,l,1,1.3862,"[""0.102"",""0.939"",""0.664"",""0.703""]","[1,0,1,1]",0,38,38,38,1,1,0,,,0,FALSE,,,,,,,,,,,,,,,,,,,,,,,,,,,,,,
,5d79d3f3fa7c0700018f0a14,001,2022-04-29_03h15.37.677,classification_task,2021.2.3,Win32,60.0060006,5d79d3f3fa7c0700018f0a14,626b377229c10585ec392f89,626b3bd510b7b3eb45797a00,,,,,,,,,,,,,,,,,,,,,,,l,0,1.5771,"[""0.276"",""0.419"",""0.918"",""0.873""]","[1,1,0,1]",0,39,39,39,1,0,0,,,0,FALSE,,,,,,,,,,,,,,,,,,,,,,,,,,,,,,
,5d79d3f3fa7c0700018f0a14,001,2022-04-29_03h15.37.677,classification_task,2021.2.3,Win32,60.0060006,5d79d3f3fa7c0700018f0a14,626b377229c10585ec392f89,626b3bd510b7b3eb45797a00,,,,,,,,,,,,,,,,,,,,,,,a,0,1.3304,"[""0.102"",""0.315"",""0.664"",""0.384""]","[1,1,1,0]",0,40,40,40,1,1,0,,,0,FALSE,,,,,,,,,,,,,,,,,,,,,,,,,,,,,,
,5d79d3f3fa7c0700018f0a14,001,2022-04-29_03h15.37.677,classification_task,2021.2.3,Win32,60.0060006,5d79d3f3fa7c0700018f0a14,626b377229c10585ec392f89,626b3bd510b7b3eb45797a00,,,,,,,,,,,,,,,,,,,,,,,l,1,0.7247,"[""0.525"",""0.315"",""0.664"",""0.703""]","[0,1,1,1]",0,41,41,41,1,1,0,,,0,FALSE,,,,,,,,,,,,,,,,,,,,,,,,,,,,,,
,5d79d3f3fa7c0700018f0a14,001,2022-04-29_03h15.37.677,classification_task,2021.2.3,Win32,60.0060006,5d79d3f3fa7c0700018f0a14,626b377229c10585ec392f89,626b3bd510b7b3eb45797a00,,,,,,,,,,,,,,,,,,,,,,,a,1,1.5361,"[""0.789"",""0.467"",""0.824"",""0.974""]","[0,1,1,1]",0,42,42,42,1,0,1,,,0,FALSE,,,,,,,,,,,,,,,,,,,,,,,,,,,,,,
,5d79d3f3fa7c0700018f0a14,001,2022-04-29_03h15.37.677,classification_task,2021.2.3,Win32,60.0060006,5d79d3f3fa7c0700018f0a14,626b377229c10585ec392f89,626b3bd510b7b3eb45797a00,,,,,,,,,,,,,,,,,,,,,,,l,0,1.3813,"[""0.276"",""0.419"",""0.612"",""0.525""]","[1,1,1,0]",0,43,43,43,1,0,0,,,0,FALSE,,,,,,,,,,,,,,,,,,,,,,,,,,,,,,
,5d79d3f3fa7c0700018f0a14,001,2022-04-29_03h15.37.677,classification_task,2021.2.3,Win32,60.0060006,5d79d3f3fa7c0700018f0a14,626b377229c10585ec392f89,626b3bd510b7b3eb45797a00,,,,,,,,,,,,,,,,,,,,,,,l,1,1.1528,"[""0.035"",""0.781"",""0.575"",""0.738""]","[1,0,1,1]",0,44,44,44,1,1,1,,,0,FALSE,,,,,,,,,,,,,,,,,,,,,,,,,,,,,,
,5d79d3f3fa7c0700018f0a14,001,2022-04-29_03h15.37.677,classification_task,2021.2.3,Win32,60.0060006,5d79d3f3fa7c0700018f0a14,626b377229c10585ec392f89,626b3bd510b7b3eb45797a00,,,,,,,,,,,,,,,,,,,,,,,a,1,1.1481,"[""0.242"",""0.467"",""0.517"",""0.974""]","[1,1,0,1]",0,45,45,45,1,0,1,,,0,FALSE,,,,,,,,,,,,,,,,,,,,,,,,,,,,,,
,5d79d3f3fa7c0700018f0a14,001,2022-04-29_03h15.37.677,classification_task,2021.2.3,Win32,60.0060006,5d79d3f3fa7c0700018f0a14,626b377229c10585ec392f89,626b3bd510b7b3eb45797a00,,,,,,,,,,,,,,,,,,,,,,,l,1,1.4779,"[""0.035"",""0.178"",""0.575"",""0.789""]","[1,1,1,0]",0,46,46,46,1,1,1,,,0,FALSE,,,,,,,,,,,,,,,,,,,,,,,,,,,,,,
,5d79d3f3fa7c0700018f0a14,001,2022-04-29_03h15.37.677,classification_task,2021.2.3,Win32,60.0060006,5d79d3f3fa7c0700018f0a14,626b377229c10585ec392f89,626b3bd510b7b3eb45797a00,,,,,,,,,,,,,,,,,,,,,,,a,1,0.703,"[""0.242"",""0.916"",""0.824"",""0.974""]","[1,0,1,1]",0,47,47,47,1,0,1,,,0,FALSE,,,,,,,,,,,,,,,,,,,,,,,,,,,,,,
,5d79d3f3fa7c0700018f0a14,001,2022-04-29_03h15.37.677,classification_task,2021.2.3,Win32,60.0060006,5d79d3f3fa7c0700018f0a14,626b377229c10585ec392f89,626b3bd510b7b3eb45797a00,,,,,,,,,,,,,,,,,,,,,,,l,1,0.9672,"[""0.781"",""0.178"",""0.575"",""0.738""]","[0,1,1,1]",0,48,48,48,1,1,1,,,0,FALSE,,,,,,,,,,,,,,,,,,,,,,,,,,,,,,
,5d79d3f3fa7c0700018f0a14,001,2022-04-29_03h15.37.677,classification_task,2021.2.3,Win32,60.0060006,5d79d3f3fa7c0700018f0a14,626b377229c10585ec392f89,626b3bd510b7b3eb45797a00,,,,,,,,,,,,,,,,,,,,,,,l,0,0.9375,"[""0.276"",""0.419"",""0.612"",""0.789""]","[1,1,1,0]",0,49,49,49,1,0,0,,,0,FALSE,,,,,,,,,,,,,,,,,,,,,,,,,,,,,,
,5d79d3f3fa7c0700018f0a14,001,2022-04-29_03h15.37.677,classification_task,2021.2.3,Win32,60.0060006,5d79d3f3fa7c0700018f0a14,626b377229c10585ec392f89,626b3bd510b7b3eb45797a00,,,,,,,,,,,,,,,,,,,,,,,a,1,0.7589,"[""0.242"",""0.513"",""0.824"",""0.974""]","[1,0,1,1]",0,50,50,50,1,0,1,,,0,FALSE,,,,,,,,,,,,,,,,,,,,,,,,,,,,,,
,5d79d3f3fa7c0700018f0a14,001,2022-04-29_03h15.37.677,classification_task,2021.2.3,Win32,60.0060006,5d79d3f3fa7c0700018f0a14,626b377229c10585ec392f89,626b3bd510b7b3eb45797a00,,,,,,,,,,,,,,,,,,,,,,,l,1,0.9384,"[""0.102"",""0.315"",""0.517"",""0.703""]","[1,1,0,1]",0,51,51,51,1,1,0,,,0,FALSE,,,,,,,,,,,,,,,,,,,,,,,,,,,,,,
,5d79d3f3fa7c0700018f0a14,001,2022-04-29_03h15.37.677,classification_task,2021.2.3,Win32,60.0060006,5d79d3f3fa7c0700018f0a14,626b377229c10585ec392f89,626b3bd510b7b3eb45797a00,,,,,,,,,,,,,,,,,,,,,,,l,1,0.5432,"[""0.918"",""0.315"",""0.664"",""0.703""]","[0,1,1,1]",0,52,52,52,1,1,0,,,0,FALSE,,,,,,,,,,,,,,,,,,,,,,,,,,,,,,
,5d79d3f3fa7c0700018f0a14,001,2022-04-29_03h15.37.677,classification_task,2021.2.3,Win32,60.0060006,5d79d3f3fa7c0700018f0a14,626b377229c10585ec392f89,626b3bd510b7b3eb45797a00,,,,,,,,,,,,,,,,,,,,,,,a,1,0.6042,"[""0.242"",""0.467"",""0.824"",""0.515""]","[1,1,1,0]",0,53,53,53,1,0,1,,,0,FALSE,,,,,,,,,,,,,,,,,,,,,,,,,,,,,,
,5d79d3f3fa7c0700018f0a14,001,2022-04-29_03h15.37.677,classification_task,2021.2.3,Win32,60.0060006,5d79d3f3fa7c0700018f0a14,626b377229c10585ec392f89,626b3bd510b7b3eb45797a00,,,,,,,,,,,,,,,,,,,,,,,l,0,0.7502,"[""0.541"",""0.419"",""0.612"",""0.873""]","[0,1,1,1]",0,54,54,54,1,0,0,,,0,FALSE,,,,,,,,,,,,,,,,,,,,,,,,,,,,,,
,5d79d3f3fa7c0700018f0a14,001,2022-04-29_03h15.37.677,classification_task,2021.2.3,Win32,60.0060006,5d79d3f3fa7c0700018f0a14,626b377229c10585ec392f89,626b3bd510b7b3eb45797a00,,,,,,,,,,,,,,,,,,,,,,,a,1,0.5244,"[""0.276"",""0.419"",""0.530"",""0.873""]","[1,1,0,1]",0,55,55,55,1,0,0,,,0,FALSE,,,,,,,,,,,,,,,,,,,,,,,,,,,,,,
,5d79d3f3fa7c0700018f0a14,001,2022-04-29_03h15.37.677,classification_task,2021.2.3,Win32,60.0060006,5d79d3f3fa7c0700018f0a14,626b377229c10585ec392f89,626b3bd510b7b3eb45797a00,,,,,,,,,,,,,,,,,,,,,,,l,1,0.997,"[""0.035"",""0.178"",""0.575"",""0.525""]","[1,1,1,0]",0,56,56,56,1,1,1,,,0,FALSE,,,,,,,,,,,,,,,,,,,,,,,,,,,,,,
,5d79d3f3fa7c0700018f0a14,001,2022-04-29_03h15.37.677,classification_task,2021.2.3,Win32,60.0060006,5d79d3f3fa7c0700018f0a14,626b377229c10585ec392f89,626b3bd510b7b3eb45797a00,,,,,,,,,,,,,,,,,,,,,,,l,1,0.7772,"[""0.035"",""0.929"",""0.575"",""0.738""]","[1,0,1,1]",0,57,57,57,1,1,1,,,0,FALSE,,,,,,,,,,,,,,,,,,,,,,,,,,,,,,
,5d79d3f3fa7c0700018f0a14,001,2022-04-29_03h15.37.677,classification_task,2021.2.3,Win32,60.0060006,5d79d3f3fa7c0700018f0a14,626b377229c10585ec392f89,626b3bd510b7b3eb45797a00,,,,,,,,,,,,,,,,,,,,,,,a,0,0.9477,"[""0.102"",""0.315"",""0.664"",""0.384""]","[1,1,1,0]",0,58,58,58,1,1,0,,,0,FALSE,,,,,,,,,,,,,,,,,,,,,,,,,,,,,,
,5d79d3f3fa7c0700018f0a14,001,2022-04-29_03h15.37.677,classification_task,2021.2.3,Win32,60.0060006,5d79d3f3fa7c0700018f0a14,626b377229c10585ec392f89,626b3bd510b7b3eb45797a00,,,,,,,,,,,,,,,,,,,,,,,a,1,0.8222,"[""0.242"",""0.467"",""0.787"",""0.974""]","[1,1,0,1]",0,59,59,59,1,0,1,,,0,FALSE,,,,,,,,,,,,,,,,,,,,,,,,,,,,,,
,5d79d3f3fa7c0700018f0a14,001,2022-04-29_03h15.37.677,classification_task,2021.2.3,Win32,60.0060006,5d79d3f3fa7c0700018f0a14,626b377229c10585ec392f89,626b3bd510b7b3eb45797a00,,,,,,,,,,,,,,,,,,,,,,,l,1,0.9522,"[""0.035"",""0.178"",""0.525"",""0.738""]","[1,1,0,1]",0,60,60,60,1,1,1,,,0,FALSE,,,,,,,,,,,,,,,,,,,,,,,,,,,,,,
,5d79d3f3fa7c0700018f0a14,001,2022-04-29_03h15.37.677,classification_task,2021.2.3,Win32,60.0060006,5d79d3f3fa7c0700018f0a14,626b377229c10585ec392f89,626b3bd510b7b3eb45797a00,,,,,,,,,,,,,,,,,,,,,,,a,1,1.8988,"[""0.512"",""0.467"",""0.824"",""0.974""]","[0,1,1,1]",0,61,61,61,1,0,1,,,0,FALSE,,,,,,,,,,,,,,,,,,,,,,,,,,,,,,
,5d79d3f3fa7c0700018f0a14,001,2022-04-29_03h15.37.677,classification_task,2021.2.3,Win32,60.0060006,5d79d3f3fa7c0700018f0a14,626b377229c10585ec392f89,626b3bd510b7b3eb45797a00,,,,,,,,,,,,,,,,,,,,,,,l,0,1.6314,"[""0.276"",""0.918"",""0.612"",""0.873""]","[1,0,1,1]",0,62,62,62,1,0,0,,,0,FALSE,,,,,,,,,,,,,,,,,,,,,,,,,,,,,,
,5d79d3f3fa7c0700018f0a14,001,2022-04-29_03h15.37.677,classification_task,2021.2.3,Win32,60.0060006,5d79d3f3fa7c0700018f0a14,626b377229c10585ec392f89,626b3bd510b7b3eb45797a00,,,,,,,,,,,,,,,,,,,,,,,a,0,1.0381,"[""0.102"",""0.541"",""0.664"",""0.703""]","[1,0,1,1]",0,63,63,63,1,1,0,,,0,FALSE,,,,,,,,,,,,,,,,,,,,,,,,,,,,,,
,5d79d3f3fa7c0700018f0a14,001,2022-04-29_03h15.37.677,classification_task,2021.2.3,Win32,60.0060006,5d79d3f3fa7c0700018f0a14,626b377229c10585ec392f89,626b3bd510b7b3eb45797a00,,,,,,,,,,,,,,,,,,,,,,,,,,,,,,,,,,,,,,,0, ,,0,2.623946698,174.2043,0,2,2,2,1,2,3,,,,,,,,,,,,,,,,,
,5d79d3f3fa7c0700018f0a14,001,2022-04-29_03h15.37.677,classification_task,2021.2.3,Win32,60.0060006,5d79d3f3fa7c0700018f0a14,626b377229c10585ec392f89,626b3bd510b7b3eb45797a00,,,,,,,,,,,,,,,,,,,,,,,,,,,,,,,,,,,,,,,1,  ,,0,8.551832256,177.0092,0,2,2,2,1,2,3,,,,,,,,,,,,,,,,,
,5d79d3f3fa7c0700018f0a14,001,2022-04-29_03h15.37.677,classification_task,2021.2.3,Win32,60.0060006,5d79d3f3fa7c0700018f0a14,626b377229c10585ec392f89,626b3bd510b7b3eb45797a00,,,,,,,,,,,,,,,,,,,,,,,,,,,,,,,,,,,,,,,2,  ,,0,4.926513815,178.4969,0,2,2,2,1,2,3,,,,,,,,,,,,,,,,,
,5d79d3f3fa7c0700018f0a14,001,2022-04-29_03h15.37.677,classification_task,2021.2.3,Win32,60.0060006,5d79d3f3fa7c0700018f0a14,626b377229c10585ec392f89,626b3bd510b7b3eb45797a00,,,,,,,,,,,,,,,,,,,,,,,,,,,,,,,,,,,,,,,,,,,,,0,2,2,2,1,,3,,,,,,,,,,,,,,,,,
,5d79d3f3fa7c0700018f0a14,001,2022-04-29_03h15.37.677,classification_task,2021.2.3,Win32,60.0060006,5d79d3f3fa7c0700018f0a14,626b377229c10585ec392f89,626b3bd510b7b3eb45797a00,,,,,,,,,,,,,,,,,,,,,,,,,,,,,,,,,,,,,,,,,,,,,,,,,,,,,I believe the aid is a competent performer,,0.7,0,3,778.2982,0,0,0,0,1,0,,,,
,5d79d3f3fa7c0700018f0a14,001,2022-04-29_03h15.37.677,classification_task,2021.2.3,Win32,60.0060006,5d79d3f3fa7c0700018f0a14,626b377229c10585ec392f89,626b3bd510b7b3eb45797a00,,,,,,,,,,,,,,,,,,,,,,,,,,,,,,,,,,,,,,,,,,,,,,,,,,,,,I trust the aid,,0.7,0,4,776.695,0,0,0,0,1,0,,,,
,5d79d3f3fa7c0700018f0a14,001,2022-04-29_03h15.37.677,classification_task,2021.2.3,Win32,60.0060006,5d79d3f3fa7c0700018f0a14,626b377229c10585ec392f89,626b3bd510b7b3eb45797a00,,,,,,,,,,,,,,,,,,,,,,,,,,,,,,,,,,,,,,,,,,,,,,,,,,,,,I have confidence in the advice given by the aid,,0.7,0,4,779.5135,0,0,0,0,1,0,,,,
,5d79d3f3fa7c0700018f0a14,001,2022-04-29_03h15.37.677,classification_task,2021.2.3,Win32,60.0060006,5d79d3f3fa7c0700018f0a14,626b377229c10585ec392f89,626b3bd510b7b3eb45797a00,,,,,,,,,,,,,,,,,,,,,,,,,,,,,,,,,,,,,,,,,,,,,,,,,,,,,I can depend on the aid,,0.7,0,3,781.3353,0,0,0,0,1,0,,,,
,5d79d3f3fa7c0700018f0a14,001,2022-04-29_03h15.37.677,classification_task,2021.2.3,Win32,60.0060006,5d79d3f3fa7c0700018f0a14,626b377229c10585ec392f89,626b3bd510b7b3eb45797a00,,,,,,,,,,,,,,,,,,,,,,,,,,,,,,,,,,,,,,,,,,,,,,,,,,,,,I can rely on the aid to behave in consistent ways,,0.7,0,3,782.8158,0,0,0,0,1,0,,,,
,5d79d3f3fa7c0700018f0a14,001,2022-04-29_03h15.37.677,classification_task,2021.2.3,Win32,60.0060006,5d79d3f3fa7c0700018f0a14,626b377229c10585ec392f89,626b3bd510b7b3eb45797a00,,,,,,,,,,,,,,,,,,,,,,,,,,,,,,,,,,,,,,,,,,,,,,,,,,,,,I can rely on the aid to do its best every time I take its advice,,0.7,0,4,784.4808,0,0,0,0,1,0,,,,
,5d79d3f3fa7c0700018f0a14,001,2022-04-29_03h15.37.677,classification_task,2021.2.3,Win32,60.0060006,5d79d3f3fa7c0700018f0a14,626b377229c10585ec392f89,626b3bd510b7b3eb45797a00,,,,,,,,,,,,,,,,,,,,,,,,,,,,,,,,,,,,,,,,,,,,,,,,,,,,,"On trials you completed with assistance from the aid, how frequently did you think the aid was correct?",,0.7,0,80%,,0,0,0,0,1,0,,,,
,5d79d3f3fa7c0700018f0a14,001,2022-04-29_03h15.37.677,classification_task,2021.2.3,Win32,60.0060006,5d79d3f3fa7c0700018f0a14,626b377229c10585ec392f89,626b3bd510b7b3eb45797a00,,,,,,,,,,,,,,,,,,,,,,,,,,,,,,,,,,,,,,,,,,,,,,,,,,,,,"On trials you completed without the aid, how frequently did you think you were correct?",,0.7,0,40%,,0,0,0,0,1,0,,,,
,5d79d3f3fa7c0700018f0a14,001,2022-04-29_03h15.37.677,classification_task,2021.2.3,Win32,60.0060006,5d79d3f3fa7c0700018f0a14,626b377229c10585ec392f89,626b3bd510b7b3eb45797a00,,,,,,,,,,,,,,,,,,,,,,,,,,,,,,,,,,,,,,,,,,,,,,,,,,,,,,,,,,,0,0,0,0,1,,,,,
,5d79d3f3fa7c0700018f0a14,001,2022-04-29_03h15.37.677,classification_task,2021.2.3,Win32,60.0060006,5d79d3f3fa7c0700018f0a14,626b377229c10585ec392f89,626b3bd510b7b3eb45797a00,,,,,,,,,,,,,,,,,,,,,,,,,,,,,,,,,,,,,,,,,,,,,,,,,,,,,,,,,,,,,,,,,space,8.4627,817.2328,
,5d79d3f3fa7c0700018f0a14,001,2022-04-29_03h15.37.677,classification_task,2021.2.3,Win32,60.0060006,5d79d3f3fa7c0700018f0a14,626b377229c10585ec392f89,626b3bd510b7b3eb45797a00,,,,,,,,,,,,,,,,,,,,,,,,,,,,,,,,,,,,,,,,,,,,,,,,,,,,,,,,,,,,,,,,,,,,"Mozilla/5.0 (Windows NT 10.0; Win64; x64) AppleWebKit/537.36 (KHTML, like Gecko) Chrome/99.0.4844.84 Safari/537.36 OPR/85.0.4341.72"
