usingWebGL,participant,session,date,expName,psychopyVersion,OS,frameRate,study_id,signatures_friend,signatures_foe,band_ranges_top,band_ranges_bottom,formitemText,formtype,formundefined,formitemWidth,formindex,formresponse,formrt,key_resp_2.keys,key_resp_2.rt,tute_resp.keys,tute_resp.rt,tutorial.thisRepN,tutorial.thisTrialN,tutorial.thisN,tutorial.thisIndex,tutorial.ran,key_resp_4.keys,key_resp_4.rt,key_resp.keys,key_resp.corr,key_resp.rt,lines_presented,is_signal_presented,trials.thisRepN,trials.thisTrialN,trials.thisN,trials.thisIndex,trials.ran,vessel,active_band,lines,is_signal,supported_pos,catch_trial,debrief_formindex,debrief_formitemText,debrief_formtype,debrief_formitemWidth,debrief_formresponse,debrief_formrt,phases.thisRepN,phases.thisTrialN,phases.thisN,phases.thisIndex,phases.ran,phases.order,phase,key_resp_3.keys,trustitemText,trusttype,trustitemWidth,trustindex,trustresponse,trustrt,support_status.thisRepN,support_status.thisTrialN,support_status.thisN,support_status.thisIndex,support_status.ran,support_status.order,key_resp_5.keys,key_resp_5.rt,globalClockTime,userAgent,manualCondition
TRUE,5d877c37c3e7ca001816fb8f,627c6fe868045f95450e342a,2022-05-12_12h25.02.578,classification_task,2021.2.3,Win32,59.99520038,627c6715c52fd12f31907bcf,,,,,,,,,,,,,,,,,,,,,,,,,,,,,,,,,,,,,,,,,,,,,,,,,,,,,,,,,,,,,,,,,,,,,
,5d877c37c3e7ca001816fb8f,627c6fe868045f95450e342a,2022-05-12_12h25.02.578,classification_task,2021.2.3,Win32,59.99520038,627c6715c52fd12f31907bcf,"[[""0.240"",""0.407"",""0.862"",""0.899""],[""0.205"",""0.444"",""0.935"",""0.972""]]","[[""0.107"",""0.365"",""0.638"",""0.707""],[""0.049"",""0.154"",""0.567"",""0.744""]]","[1,10]","[100,1000]",Video game experience,,,0.7,0,,,,,,,,,,,,,,,,,,,,,,,,,,,,,,,,,,,,,,,,,,,,,,,,,,,,,,,,,,,,
,5d877c37c3e7ca001816fb8f,627c6fe868045f95450e342a,2022-05-12_12h25.02.578,classification_task,2021.2.3,Win32,59.99520038,627c6715c52fd12f31907bcf,,,,,Approximately how many hours did you spend playing video games in the last week?,,,0.7,0,2,,,,,,,,,,,,,,,,,,,,,,,,,,,,,,,,,,,,,,,,,,,,,,,,,,,,,,,,,,,
,5d877c37c3e7ca001816fb8f,627c6fe868045f95450e342a,2022-05-12_12h25.02.578,classification_task,2021.2.3,Win32,59.99520038,627c6715c52fd12f31907bcf,,,,,"Which game did you play the most this year? (Enter ""None"" if you didn't play any)",,,0.7,0,Clash Quest,,,,,,,,,,,,,,,,,,,,,,,,,,,,,,,,,,,,,,,,,,,,,,,,,,,,,,,,,,,
,5d877c37c3e7ca001816fb8f,627c6fe868045f95450e342a,2022-05-12_12h25.02.578,classification_task,2021.2.3,Win32,59.99520038,627c6715c52fd12f31907bcf,,,,,Visual perception,,,0.7,0,,,,,,,,,,,,,,,,,,,,,,,,,,,,,,,,,,,,,,,,,,,,,,,,,,,,,,,,,,,,
,5d877c37c3e7ca001816fb8f,627c6fe868045f95450e342a,2022-05-12_12h25.02.578,classification_task,2021.2.3,Win32,59.99520038,627c6715c52fd12f31907bcf,,,,,Do you have any form of color blindness?,,,0.7,0,No,18.5426,,,,,,,,,,,,,,,,,,,,,,,,,,,,,,,,,,,,,,,,,,,,,,,,,,,,,,,,,,
,5d877c37c3e7ca001816fb8f,627c6fe868045f95450e342a,2022-05-12_12h25.02.578,classification_task,2021.2.3,Win32,59.99520038,627c6715c52fd12f31907bcf,,,,,Do you use software to change the colour temperature of your screen (e.g. f.lux)?,,,0.7,0,No,24.1144,,,,,,,,,,,,,,,,,,,,,,,,,,,,,,,,,,,,,,,,,,,,,,,,,,,,,,,,,,
,5d877c37c3e7ca001816fb8f,627c6fe868045f95450e342a,2022-05-12_12h25.02.578,classification_task,2021.2.3,Win32,59.99520038,627c6715c52fd12f31907bcf,,,,,,,,,,,,space,29.1452,space,10.3952,0,0,0,0,1,,,,,,,,,,,,,,,,,,,,,,,,,,,,,,,,,,,,,,,,,,,,,,,,,
,5d877c37c3e7ca001816fb8f,627c6fe868045f95450e342a,2022-05-12_12h25.02.578,classification_task,2021.2.3,Win32,59.99520038,627c6715c52fd12f31907bcf,,,,,,,,,,,,,,space,10.3743,1,0,1,0,1,,,,,,,,,,,,,,,,,,,,,,,,,,,,,,,,,,,,,,,,,,,,,,,,,
,5d877c37c3e7ca001816fb8f,627c6fe868045f95450e342a,2022-05-12_12h25.02.578,classification_task,2021.2.3,Win32,59.99520038,627c6715c52fd12f31907bcf,,,,,,,,,,,,,,space,18.4653,2,0,2,0,1,,,,,,,,,,,,,,,,,,,,,,,,,,,,,,,,,,,,,,,,,,,,,,,,,
,5d877c37c3e7ca001816fb8f,627c6fe868045f95450e342a,2022-05-12_12h25.02.578,classification_task,2021.2.3,Win32,59.99520038,627c6715c52fd12f31907bcf,,,,,,,,,,,,,,space,4.1664,3,0,3,0,1,,,,,,,,,,,,,,,,,,,,,,,,,,,,,,,,,,,,,,,,,,,,,,,,,
,5d877c37c3e7ca001816fb8f,627c6fe868045f95450e342a,2022-05-12_12h25.02.578,classification_task,2021.2.3,Win32,59.99520038,627c6715c52fd12f31907bcf,,,,,,,,,,,,,,space,9.3181,4,0,4,0,1,,,,,,,,,,,,,,,,,,,,,,,,,,,,,,,,,,,,,,,,,,,,,,,,,
,5d877c37c3e7ca001816fb8f,627c6fe868045f95450e342a,2022-05-12_12h25.02.578,classification_task,2021.2.3,Win32,59.99520038,627c6715c52fd12f31907bcf,,,,,,,,,,,,,,,,,,,,,space,17.366,a,1,3.5106,"[""0.240"",""0.407"",""0.497"",""0.899""]","[1,1,0,1]",0,0,0,0,1,0,0,,,1,FALSE,,,,,,,,,,,,,,,,,,,,,,,,,,,,,,,
,5d877c37c3e7ca001816fb8f,627c6fe868045f95450e342a,2022-05-12_12h25.02.578,classification_task,2021.2.3,Win32,59.99520038,627c6715c52fd12f31907bcf,,,,,,,,,,,,,,,,,,,,,,,a,1,1.7544,"[""0.240"",""0.407"",""0.862"",""0.489""]","[1,1,1,0]",0,1,1,1,1,0,0,,,1,FALSE,,,,,,,,,,,,,,,,,,,,,,,,,,,,,,,
,5d877c37c3e7ca001816fb8f,627c6fe868045f95450e342a,2022-05-12_12h25.02.578,classification_task,2021.2.3,Win32,59.99520038,627c6715c52fd12f31907bcf,,,,,,,,,,,,,,,,,,,,,,,a,1,3.492,"[""0.205"",""0.444"",""0.935"",""0.312""]","[1,1,1,0]",0,2,2,2,1,0,1,,,1,FALSE,,,,,,,,,,,,,,,,,,,,,,,,,,,,,,,
,5d877c37c3e7ca001816fb8f,627c6fe868045f95450e342a,2022-05-12_12h25.02.578,classification_task,2021.2.3,Win32,59.99520038,627c6715c52fd12f31907bcf,,,,,,,,,,,,,,,,,,,,,,,l,1,2.5258,"[""0.107"",""0.494"",""0.638"",""0.707""]","[1,0,1,1]",0,3,3,3,1,1,0,,,1,FALSE,,,,,,,,,,,,,,,,,,,,,,,,,,,,,,,
,5d877c37c3e7ca001816fb8f,627c6fe868045f95450e342a,2022-05-12_12h25.02.578,classification_task,2021.2.3,Win32,59.99520038,627c6715c52fd12f31907bcf,,,,,,,,,,,,,,,,,,,,,,,l,1,2.133,"[""0.107"",""0.365"",""0.638"",""0.802""]","[1,1,1,0]",0,4,4,4,1,1,0,,,1,FALSE,,,,,,,,,,,,,,,,,,,,,,,,,,,,,,,
,5d877c37c3e7ca001816fb8f,627c6fe868045f95450e342a,2022-05-12_12h25.02.578,classification_task,2021.2.3,Win32,59.99520038,627c6715c52fd12f31907bcf,,,,,,,,,,,,,,,,,,,,,,,l,1,2.549,"[""0.049"",""0.154"",""0.567"",""0.803""]","[1,1,1,0]",0,5,5,5,1,1,1,,,1,FALSE,,,,,,,,,,,,,,,,,,,,,,,,,,,,,,,
,5d877c37c3e7ca001816fb8f,627c6fe868045f95450e342a,2022-05-12_12h25.02.578,classification_task,2021.2.3,Win32,59.99520038,627c6715c52fd12f31907bcf,,,,,,,,,,,,,,,,,,,,,,,l,1,2.6063,"[""0.049"",""0.154"",""0.296"",""0.744""]","[1,1,0,1]",0,6,6,6,1,1,1,,,1,FALSE,,,,,,,,,,,,,,,,,,,,,,,,,,,,,,,
,5d877c37c3e7ca001816fb8f,627c6fe868045f95450e342a,2022-05-12_12h25.02.578,classification_task,2021.2.3,Win32,59.99520038,627c6715c52fd12f31907bcf,,,,,,,,,,,,,,,,,,,,,,,l,1,6.3057,"[""0.497"",""0.365"",""0.638"",""0.707""]","[0,1,1,1]",0,7,7,7,1,1,0,,,1,FALSE,,,,,,,,,,,,,,,,,,,,,,,,,,,,,,,
,5d877c37c3e7ca001816fb8f,627c6fe868045f95450e342a,2022-05-12_12h25.02.578,classification_task,2021.2.3,Win32,59.99520038,627c6715c52fd12f31907bcf,,,,,,,,,,,,,,,,,,,,,,,a,1,2.6738,"[""0.205"",""0.290"",""0.935"",""0.972""]","[1,0,1,1]",0,8,8,8,1,0,1,,,1,FALSE,,,,,,,,,,,,,,,,,,,,,,,,,,,,,,,
,5d877c37c3e7ca001816fb8f,627c6fe868045f95450e342a,2022-05-12_12h25.02.578,classification_task,2021.2.3,Win32,59.99520038,627c6715c52fd12f31907bcf,,,,,,,,,,,,,,,,,,,,,,,a,1,2.37,"[""0.205"",""0.444"",""0.286"",""0.972""]","[1,1,0,1]",0,9,9,9,1,0,1,,,1,FALSE,,,,,,,,,,,,,,,,,,,,,,,,,,,,,,,
,5d877c37c3e7ca001816fb8f,627c6fe868045f95450e342a,2022-05-12_12h25.02.578,classification_task,2021.2.3,Win32,59.99520038,627c6715c52fd12f31907bcf,,,,,,,,,,,,,,,,,,,,,,,a,1,5.1576,"[""0.508"",""0.407"",""0.862"",""0.899""]","[0,1,1,1]",0,10,10,10,1,0,0,,,1,FALSE,,,,,,,,,,,,,,,,,,,,,,,,,,,,,,,
,5d877c37c3e7ca001816fb8f,627c6fe868045f95450e342a,2022-05-12_12h25.02.578,classification_task,2021.2.3,Win32,59.99520038,627c6715c52fd12f31907bcf,,,,,,,,,,,,,,,,,,,,,,,a,1,5.5619,"[""0.290"",""0.444"",""0.935"",""0.972""]","[0,1,1,1]",0,11,11,11,1,0,1,,,1,FALSE,,,,,,,,,,,,,,,,,,,,,,,,,,,,,,,
,5d877c37c3e7ca001816fb8f,627c6fe868045f95450e342a,2022-05-12_12h25.02.578,classification_task,2021.2.3,Win32,59.99520038,627c6715c52fd12f31907bcf,,,,,,,,,,,,,,,,,,,,,,,l,1,4.6361,"[""0.049"",""0.510"",""0.567"",""0.744""]","[1,0,1,1]",0,12,12,12,1,1,1,,,1,FALSE,,,,,,,,,,,,,,,,,,,,,,,,,,,,,,,
,5d877c37c3e7ca001816fb8f,627c6fe868045f95450e342a,2022-05-12_12h25.02.578,classification_task,2021.2.3,Win32,59.99520038,627c6715c52fd12f31907bcf,,,,,,,,,,,,,,,,,,,,,,,l,1,3.7089,"[""0.323"",""0.154"",""0.567"",""0.744""]","[0,1,1,1]",0,13,13,13,1,1,1,,,1,FALSE,,,,,,,,,,,,,,,,,,,,,,,,,,,,,,,
,5d877c37c3e7ca001816fb8f,627c6fe868045f95450e342a,2022-05-12_12h25.02.578,classification_task,2021.2.3,Win32,59.99520038,627c6715c52fd12f31907bcf,,,,,,,,,,,,,,,,,,,,,,,a,1,2.6174,"[""0.240"",""0.510"",""0.862"",""0.899""]","[1,0,1,1]",0,14,14,14,1,0,0,,,1,FALSE,,,,,,,,,,,,,,,,,,,,,,,,,,,,,,,
,5d877c37c3e7ca001816fb8f,627c6fe868045f95450e342a,2022-05-12_12h25.02.578,classification_task,2021.2.3,Win32,59.99520038,627c6715c52fd12f31907bcf,,,,,,,,,,,,,,,,,,,,,,,l,1,4.2484,"[""0.107"",""0.365"",""0.492"",""0.707""]","[1,1,0,1]",0,15,15,15,1,1,0,,,1,FALSE,,,,,,,,,,,,,,,,,,,,,,,,,,,,,,,
,5d877c37c3e7ca001816fb8f,627c6fe868045f95450e342a,2022-05-12_12h25.02.578,classification_task,2021.2.3,Win32,59.99520038,627c6715c52fd12f31907bcf,,,,,,,,,,,,,,,,,,,,,,,l,1,5.687,"[""0.296"",""0.365"",""0.638"",""0.707""]","[0,1,1,1]",0,16,16,16,1,1,0,,,1,FALSE,,,,,,,,,,,,,,,,,,,,,,,,,,,,,,,
,5d877c37c3e7ca001816fb8f,627c6fe868045f95450e342a,2022-05-12_12h25.02.578,classification_task,2021.2.3,Win32,59.99520038,627c6715c52fd12f31907bcf,,,,,,,,,,,,,,,,,,,,,,,a,1,4.793,"[""0.205"",""0.793"",""0.935"",""0.972""]","[1,0,1,1]",0,17,17,17,1,0,1,,,1,FALSE,,,,,,,,,,,,,,,,,,,,,,,,,,,,,,,
,5d877c37c3e7ca001816fb8f,627c6fe868045f95450e342a,2022-05-12_12h25.02.578,classification_task,2021.2.3,Win32,59.99520038,627c6715c52fd12f31907bcf,,,,,,,,,,,,,,,,,,,,,,,l,1,4.0936,"[""0.049"",""0.492"",""0.567"",""0.744""]","[1,0,1,1]",0,18,18,18,1,1,1,,,1,FALSE,,,,,,,,,,,,,,,,,,,,,,,,,,,,,,,
,5d877c37c3e7ca001816fb8f,627c6fe868045f95450e342a,2022-05-12_12h25.02.578,classification_task,2021.2.3,Win32,59.99520038,627c6715c52fd12f31907bcf,,,,,,,,,,,,,,,,,,,,,,,l,1,3.527,"[""0.049"",""0.154"",""0.492"",""0.744""]","[1,1,0,1]",0,19,19,19,1,1,1,,,1,FALSE,,,,,,,,,,,,,,,,,,,,,,,,,,,,,,,
,5d877c37c3e7ca001816fb8f,627c6fe868045f95450e342a,2022-05-12_12h25.02.578,classification_task,2021.2.3,Win32,59.99520038,627c6715c52fd12f31907bcf,,,,,,,,,,,,,,,,,,,,,,,a,1,3.0369,"[""0.240"",""0.407"",""0.862"",""0.492""]","[1,1,1,0]",0,20,20,20,1,0,0,,,1,FALSE,,,,,,,,,,,,,,,,,,,,,,,,,,,,,,,
,5d877c37c3e7ca001816fb8f,627c6fe868045f95450e342a,2022-05-12_12h25.02.578,classification_task,2021.2.3,Win32,59.99520038,627c6715c52fd12f31907bcf,,,,,,,,,,,,,,,,,,,,,,,a,1,6.4287,"[""0.240"",""0.286"",""0.862"",""0.899""]","[1,0,1,1]",0,21,21,21,1,0,0,,,1,FALSE,,,,,,,,,,,,,,,,,,,,,,,,,,,,,,,
,5d877c37c3e7ca001816fb8f,627c6fe868045f95450e342a,2022-05-12_12h25.02.578,classification_task,2021.2.3,Win32,59.99520038,627c6715c52fd12f31907bcf,,,,,,,,,,,,,,,,,,,,,,,l,1,3.415,"[""0.049"",""0.154"",""0.567"",""0.286""]","[1,1,1,0]",0,22,22,22,1,1,1,,,1,FALSE,,,,,,,,,,,,,,,,,,,,,,,,,,,,,,,
,5d877c37c3e7ca001816fb8f,627c6fe868045f95450e342a,2022-05-12_12h25.02.578,classification_task,2021.2.3,Win32,59.99520038,627c6715c52fd12f31907bcf,,,,,,,,,,,,,,,,,,,,,,,l,1,3.0944,"[""0.515"",""0.154"",""0.567"",""0.744""]","[0,1,1,1]",0,23,23,23,1,1,1,,,1,FALSE,,,,,,,,,,,,,,,,,,,,,,,,,,,,,,,
,5d877c37c3e7ca001816fb8f,627c6fe868045f95450e342a,2022-05-12_12h25.02.578,classification_task,2021.2.3,Win32,59.99520038,627c6715c52fd12f31907bcf,,,,,,,,,,,,,,,,,,,,,,,l,1,3.2776,"[""0.107"",""0.497"",""0.638"",""0.707""]","[1,0,1,1]",0,24,24,24,1,1,0,,,1,FALSE,,,,,,,,,,,,,,,,,,,,,,,,,,,,,,,
,5d877c37c3e7ca001816fb8f,627c6fe868045f95450e342a,2022-05-12_12h25.02.578,classification_task,2021.2.3,Win32,59.99520038,627c6715c52fd12f31907bcf,,,,,,,,,,,,,,,,,,,,,,,a,1,3.0846,"[""0.494"",""0.444"",""0.935"",""0.972""]","[0,1,1,1]",0,25,25,25,1,0,1,,,1,FALSE,,,,,,,,,,,,,,,,,,,,,,,,,,,,,,,
,5d877c37c3e7ca001816fb8f,627c6fe868045f95450e342a,2022-05-12_12h25.02.578,classification_task,2021.2.3,Win32,59.99520038,627c6715c52fd12f31907bcf,,,,,,,,,,,,,,,,,,,,,,,a,1,3.2575,"[""0.240"",""0.407"",""0.494"",""0.899""]","[1,1,0,1]",0,26,26,26,1,0,0,,,1,FALSE,,,,,,,,,,,,,,,,,,,,,,,,,,,,,,,
,5d877c37c3e7ca001816fb8f,627c6fe868045f95450e342a,2022-05-12_12h25.02.578,classification_task,2021.2.3,Win32,59.99520038,627c6715c52fd12f31907bcf,,,,,,,,,,,,,,,,,,,,,,,a,1,2.926,"[""0.205"",""0.444"",""0.935"",""0.312""]","[1,1,1,0]",0,27,27,27,1,0,1,,,1,FALSE,,,,,,,,,,,,,,,,,,,,,,,,,,,,,,,
,5d877c37c3e7ca001816fb8f,627c6fe868045f95450e342a,2022-05-12_12h25.02.578,classification_task,2021.2.3,Win32,59.99520038,627c6715c52fd12f31907bcf,,,,,,,,,,,,,,,,,,,,,,,l,1,4.3842,"[""0.107"",""0.365"",""0.638"",""0.312""]","[1,1,1,0]",0,28,28,28,1,1,0,,,1,FALSE,,,,,,,,,,,,,,,,,,,,,,,,,,,,,,,
,5d877c37c3e7ca001816fb8f,627c6fe868045f95450e342a,2022-05-12_12h25.02.578,classification_task,2021.2.3,Win32,59.99520038,627c6715c52fd12f31907bcf,,,,,,,,,,,,,,,,,,,,,,,a,1,5.9147,"[""0.205"",""0.444"",""0.290"",""0.972""]","[1,1,0,1]",0,29,29,29,1,0,1,,,1,FALSE,,,,,,,,,,,,,,,,,,,,,,,,,,,,,,,
,5d877c37c3e7ca001816fb8f,627c6fe868045f95450e342a,2022-05-12_12h25.02.578,classification_task,2021.2.3,Win32,59.99520038,627c6715c52fd12f31907bcf,,,,,,,,,,,,,,,,,,,,,,,a,1,4.0699,"[""0.803"",""0.407"",""0.862"",""0.899""]","[0,1,1,1]",0,30,30,30,1,0,0,,,1,FALSE,,,,,,,,,,,,,,,,,,,,,,,,,,,,,,,
,5d877c37c3e7ca001816fb8f,627c6fe868045f95450e342a,2022-05-12_12h25.02.578,classification_task,2021.2.3,Win32,59.99520038,627c6715c52fd12f31907bcf,,,,,,,,,,,,,,,,,,,,,,,l,1,3.2107,"[""0.107"",""0.365"",""0.296"",""0.707""]","[1,1,0,1]",0,31,31,31,1,1,0,,,1,FALSE,,,,,,,,,,,,,,,,,,,,,,,,,,,,,,,
,5d877c37c3e7ca001816fb8f,627c6fe868045f95450e342a,2022-05-12_12h25.02.578,classification_task,2021.2.3,Win32,59.99520038,627c6715c52fd12f31907bcf,,,,,,,,,,,,,,,,,,,,,,,a,0,4.9787,"[""0.312"",""0.365"",""0.638"",""0.707""]","[0,1,1,1]",0,32,32,32,1,1,0,,,1,FALSE,,,,,,,,,,,,,,,,,,,,,,,,,,,,,,,
,5d877c37c3e7ca001816fb8f,627c6fe868045f95450e342a,2022-05-12_12h25.02.578,classification_task,2021.2.3,Win32,59.99520038,627c6715c52fd12f31907bcf,,,,,,,,,,,,,,,,,,,,,,,l,1,3.5716,"[""0.049"",""0.494"",""0.567"",""0.744""]","[1,0,1,1]",0,33,33,33,1,1,1,,,1,FALSE,,,,,,,,,,,,,,,,,,,,,,,,,,,,,,,
,5d877c37c3e7ca001816fb8f,627c6fe868045f95450e342a,2022-05-12_12h25.02.578,classification_task,2021.2.3,Win32,59.99520038,627c6715c52fd12f31907bcf,,,,,,,,,,,,,,,,,,,,,,,a,1,3.9714,"[""0.240"",""0.407"",""0.497"",""0.899""]","[1,1,0,1]",0,34,34,34,1,0,0,,,1,FALSE,,,,,,,,,,,,,,,,,,,,,,,,,,,,,,,
,5d877c37c3e7ca001816fb8f,627c6fe868045f95450e342a,2022-05-12_12h25.02.578,classification_task,2021.2.3,Win32,59.99520038,627c6715c52fd12f31907bcf,,,,,,,,,,,,,,,,,,,,,,,a,1,1.9696,"[""0.779"",""0.444"",""0.935"",""0.972""]","[0,1,1,1]",0,35,35,35,1,0,1,,,1,FALSE,,,,,,,,,,,,,,,,,,,,,,,,,,,,,,,
,5d877c37c3e7ca001816fb8f,627c6fe868045f95450e342a,2022-05-12_12h25.02.578,classification_task,2021.2.3,Win32,59.99520038,627c6715c52fd12f31907bcf,,,,,,,,,,,,,,,,,,,,,,,a,0,3.048,"[""0.049"",""0.154"",""0.567"",""0.515""]","[1,1,1,0]",0,36,36,36,1,1,1,,,1,FALSE,,,,,,,,,,,,,,,,,,,,,,,,,,,,,,,
,5d877c37c3e7ca001816fb8f,627c6fe868045f95450e342a,2022-05-12_12h25.02.578,classification_task,2021.2.3,Win32,59.99520038,627c6715c52fd12f31907bcf,,,,,,,,,,,,,,,,,,,,,,,l,0,1.8813,"[""0.205"",""0.444"",""0.935"",""0.779""]","[1,1,1,0]",0,37,37,37,1,0,1,,,1,FALSE,,,,,,,,,,,,,,,,,,,,,,,,,,,,,,,
,5d877c37c3e7ca001816fb8f,627c6fe868045f95450e342a,2022-05-12_12h25.02.578,classification_task,2021.2.3,Win32,59.99520038,627c6715c52fd12f31907bcf,,,,,,,,,,,,,,,,,,,,,,,a,0,2.7961,"[""0.107"",""0.365"",""0.779"",""0.707""]","[1,1,0,1]",0,38,38,38,1,1,0,,,1,FALSE,,,,,,,,,,,,,,,,,,,,,,,,,,,,,,,
,5d877c37c3e7ca001816fb8f,627c6fe868045f95450e342a,2022-05-12_12h25.02.578,classification_task,2021.2.3,Win32,59.99520038,627c6715c52fd12f31907bcf,,,,,,,,,,,,,,,,,,,,,,,l,1,2.7689,"[""0.107"",""0.489"",""0.638"",""0.707""]","[1,0,1,1]",0,39,39,39,1,1,0,,,1,FALSE,,,,,,,,,,,,,,,,,,,,,,,,,,,,,,,
,5d877c37c3e7ca001816fb8f,627c6fe868045f95450e342a,2022-05-12_12h25.02.578,classification_task,2021.2.3,Win32,59.99520038,627c6715c52fd12f31907bcf,,,,,,,,,,,,,,,,,,,,,,,l,0,3.584,"[""0.205"",""0.444"",""0.494"",""0.972""]","[1,1,0,1]",0,40,40,40,1,0,1,,,1,FALSE,,,,,,,,,,,,,,,,,,,,,,,,,,,,,,,
,5d877c37c3e7ca001816fb8f,627c6fe868045f95450e342a,2022-05-12_12h25.02.578,classification_task,2021.2.3,Win32,59.99520038,627c6715c52fd12f31907bcf,,,,,,,,,,,,,,,,,,,,,,,l,0,1.8154,"[""0.802"",""0.407"",""0.862"",""0.899""]","[0,1,1,1]",0,41,41,41,1,0,0,,,1,FALSE,,,,,,,,,,,,,,,,,,,,,,,,,,,,,,,
,5d877c37c3e7ca001816fb8f,627c6fe868045f95450e342a,2022-05-12_12h25.02.578,classification_task,2021.2.3,Win32,59.99520038,627c6715c52fd12f31907bcf,,,,,,,,,,,,,,,,,,,,,,,a,1,0.9447,"[""0.240"",""0.515"",""0.862"",""0.899""]","[1,0,1,1]",0,42,42,42,1,0,0,,,1,FALSE,,,,,,,,,,,,,,,,,,,,,,,,,,,,,,,
,5d877c37c3e7ca001816fb8f,627c6fe868045f95450e342a,2022-05-12_12h25.02.578,classification_task,2021.2.3,Win32,59.99520038,627c6715c52fd12f31907bcf,,,,,,,,,,,,,,,,,,,,,,,a,0,0.7381,"[""0.779"",""0.154"",""0.567"",""0.744""]","[0,1,1,1]",0,43,43,43,1,1,1,,,1,FALSE,,,,,,,,,,,,,,,,,,,,,,,,,,,,,,,
,5d877c37c3e7ca001816fb8f,627c6fe868045f95450e342a,2022-05-12_12h25.02.578,classification_task,2021.2.3,Win32,59.99520038,627c6715c52fd12f31907bcf,,,,,,,,,,,,,,,,,,,,,,,a,0,1.9594,"[""0.107"",""0.365"",""0.638"",""0.497""]","[1,1,1,0]",0,44,44,44,1,1,0,,,1,FALSE,,,,,,,,,,,,,,,,,,,,,,,,,,,,,,,
,5d877c37c3e7ca001816fb8f,627c6fe868045f95450e342a,2022-05-12_12h25.02.578,classification_task,2021.2.3,Win32,59.99520038,627c6715c52fd12f31907bcf,,,,,,,,,,,,,,,,,,,,,,,a,1,1.4911,"[""0.240"",""0.407"",""0.862"",""0.492""]","[1,1,1,0]",0,45,45,45,1,0,0,,,1,FALSE,,,,,,,,,,,,,,,,,,,,,,,,,,,,,,,
,5d877c37c3e7ca001816fb8f,627c6fe868045f95450e342a,2022-05-12_12h25.02.578,classification_task,2021.2.3,Win32,59.99520038,627c6715c52fd12f31907bcf,,,,,,,,,,,,,,,,,,,,,,,a,0,1.57,"[""0.049"",""0.154"",""0.296"",""0.744""]","[1,1,0,1]",0,46,46,46,1,1,1,,,1,FALSE,,,,,,,,,,,,,,,,,,,,,,,,,,,,,,,
,5d877c37c3e7ca001816fb8f,627c6fe868045f95450e342a,2022-05-12_12h25.02.578,classification_task,2021.2.3,Win32,59.99520038,627c6715c52fd12f31907bcf,,,,,,,,,,,,,,,,,,,,,,,a,1,1.1421,"[""0.205"",""0.803"",""0.935"",""0.972""]","[1,0,1,1]",0,47,47,47,1,0,1,,,1,FALSE,,,,,,,,,,,,,,,,,,,,,,,,,,,,,,,
,5d877c37c3e7ca001816fb8f,627c6fe868045f95450e342a,2022-05-12_12h25.02.578,classification_task,2021.2.3,Win32,59.99520038,627c6715c52fd12f31907bcf,,,,,,,,,,,,,,,,,,,,,,,l,0,0.8896,"[""0.240"",""0.407"",""0.497"",""0.899""]","[1,1,0,1]",0,48,48,48,1,0,0,,,1,FALSE,,,,,,,,,,,,,,,,,,,,,,,,,,,,,,,
,5d877c37c3e7ca001816fb8f,627c6fe868045f95450e342a,2022-05-12_12h25.02.578,classification_task,2021.2.3,Win32,59.99520038,627c6715c52fd12f31907bcf,,,,,,,,,,,,,,,,,,,,,,,l,1,1.0112,"[""0.049"",""0.296"",""0.567"",""0.744""]","[1,0,1,1]",0,49,49,49,1,1,1,,,1,FALSE,,,,,,,,,,,,,,,,,,,,,,,,,,,,,,,
,5d877c37c3e7ca001816fb8f,627c6fe868045f95450e342a,2022-05-12_12h25.02.578,classification_task,2021.2.3,Win32,59.99520038,627c6715c52fd12f31907bcf,,,,,,,,,,,,,,,,,,,,,,,a,0,1.7568,"[""0.508"",""0.365"",""0.638"",""0.707""]","[0,1,1,1]",0,50,50,50,1,1,0,,,1,FALSE,,,,,,,,,,,,,,,,,,,,,,,,,,,,,,,
,5d877c37c3e7ca001816fb8f,627c6fe868045f95450e342a,2022-05-12_12h25.02.578,classification_task,2021.2.3,Win32,59.99520038,627c6715c52fd12f31907bcf,,,,,,,,,,,,,,,,,,,,,,,a,0,1.5287,"[""0.286"",""0.154"",""0.567"",""0.744""]","[0,1,1,1]",0,51,51,51,1,1,1,,,1,FALSE,,,,,,,,,,,,,,,,,,,,,,,,,,,,,,,
,5d877c37c3e7ca001816fb8f,627c6fe868045f95450e342a,2022-05-12_12h25.02.578,classification_task,2021.2.3,Win32,59.99520038,627c6715c52fd12f31907bcf,,,,,,,,,,,,,,,,,,,,,,,a,0,1.4336,"[""0.107"",""0.365"",""0.638"",""0.489""]","[1,1,1,0]",0,52,52,52,1,1,0,,,1,FALSE,,,,,,,,,,,,,,,,,,,,,,,,,,,,,,,
,5d877c37c3e7ca001816fb8f,627c6fe868045f95450e342a,2022-05-12_12h25.02.578,classification_task,2021.2.3,Win32,59.99520038,627c6715c52fd12f31907bcf,,,,,,,,,,,,,,,,,,,,,,,a,0,1.49,"[""0.049"",""0.154"",""0.567"",""0.296""]","[1,1,1,0]",0,53,53,53,1,1,1,,,1,FALSE,,,,,,,,,,,,,,,,,,,,,,,,,,,,,,,
,5d877c37c3e7ca001816fb8f,627c6fe868045f95450e342a,2022-05-12_12h25.02.578,classification_task,2021.2.3,Win32,59.99520038,627c6715c52fd12f31907bcf,,,,,,,,,,,,,,,,,,,,,,,l,0,0.9515,"[""0.205"",""0.444"",""0.508"",""0.972""]","[1,1,0,1]",0,54,54,54,1,0,1,,,1,FALSE,,,,,,,,,,,,,,,,,,,,,,,,,,,,,,,
,5d877c37c3e7ca001816fb8f,627c6fe868045f95450e342a,2022-05-12_12h25.02.578,classification_task,2021.2.3,Win32,59.99520038,627c6715c52fd12f31907bcf,,,,,,,,,,,,,,,,,,,,,,,l,0,1.2013,"[""0.205"",""0.444"",""0.935"",""0.802""]","[1,1,1,0]",0,55,55,55,1,0,1,,,1,FALSE,,,,,,,,,,,,,,,,,,,,,,,,,,,,,,,
,5d877c37c3e7ca001816fb8f,627c6fe868045f95450e342a,2022-05-12_12h25.02.578,classification_task,2021.2.3,Win32,59.99520038,627c6715c52fd12f31907bcf,,,,,,,,,,,,,,,,,,,,,,,a,0,0.9228,"[""0.107"",""0.508"",""0.638"",""0.707""]","[1,0,1,1]",0,56,56,56,1,1,0,,,1,FALSE,,,,,,,,,,,,,,,,,,,,,,,,,,,,,,,
,5d877c37c3e7ca001816fb8f,627c6fe868045f95450e342a,2022-05-12_12h25.02.578,classification_task,2021.2.3,Win32,59.99520038,627c6715c52fd12f31907bcf,,,,,,,,,,,,,,,,,,,,,,,l,1,0.7433,"[""0.107"",""0.365"",""0.494"",""0.707""]","[1,1,0,1]",0,57,57,57,1,1,0,,,1,FALSE,,,,,,,,,,,,,,,,,,,,,,,,,,,,,,,
,5d877c37c3e7ca001816fb8f,627c6fe868045f95450e342a,2022-05-12_12h25.02.578,classification_task,2021.2.3,Win32,59.99520038,627c6715c52fd12f31907bcf,,,,,,,,,,,,,,,,,,,,,,,a,0,0.8898,"[""0.049"",""0.154"",""0.290"",""0.744""]","[1,1,0,1]",0,58,58,58,1,1,1,,,1,FALSE,,,,,,,,,,,,,,,,,,,,,,,,,,,,,,,
,5d877c37c3e7ca001816fb8f,627c6fe868045f95450e342a,2022-05-12_12h25.02.578,classification_task,2021.2.3,Win32,59.99520038,627c6715c52fd12f31907bcf,,,,,,,,,,,,,,,,,,,,,,,a,1,0.7635,"[""0.489"",""0.444"",""0.935"",""0.972""]","[0,1,1,1]",0,59,59,59,1,0,1,,,1,FALSE,,,,,,,,,,,,,,,,,,,,,,,,,,,,,,,
,5d877c37c3e7ca001816fb8f,627c6fe868045f95450e342a,2022-05-12_12h25.02.578,classification_task,2021.2.3,Win32,59.99520038,627c6715c52fd12f31907bcf,,,,,,,,,,,,,,,,,,,,,,,a,1,0.6131,"[""0.205"",""0.508"",""0.935"",""0.972""]","[1,0,1,1]",0,60,60,60,1,0,1,,,1,FALSE,,,,,,,,,,,,,,,,,,,,,,,,,,,,,,,
,5d877c37c3e7ca001816fb8f,627c6fe868045f95450e342a,2022-05-12_12h25.02.578,classification_task,2021.2.3,Win32,59.99520038,627c6715c52fd12f31907bcf,,,,,,,,,,,,,,,,,,,,,,,a,1,0.5883,"[""0.296"",""0.407"",""0.862"",""0.899""]","[0,1,1,1]",0,61,61,61,1,0,0,,,1,FALSE,,,,,,,,,,,,,,,,,,,,,,,,,,,,,,,
,5d877c37c3e7ca001816fb8f,627c6fe868045f95450e342a,2022-05-12_12h25.02.578,classification_task,2021.2.3,Win32,59.99520038,627c6715c52fd12f31907bcf,,,,,,,,,,,,,,,,,,,,,,,l,0,1.372,"[""0.240"",""0.407"",""0.862"",""0.286""]","[1,1,1,0]",0,62,62,62,1,0,0,,,1,FALSE,,,,,,,,,,,,,,,,,,,,,,,,,,,,,,,
,5d877c37c3e7ca001816fb8f,627c6fe868045f95450e342a,2022-05-12_12h25.02.578,classification_task,2021.2.3,Win32,59.99520038,627c6715c52fd12f31907bcf,,,,,,,,,,,,,,,,,,,,,,,a,1,0.6978,"[""0.240"",""0.515"",""0.862"",""0.899""]","[1,0,1,1]",0,63,63,63,1,0,0,,,1,FALSE,,,,,,,,,,,,,,,,,,,,,,,,,,,,,,,
,5d877c37c3e7ca001816fb8f,627c6fe868045f95450e342a,2022-05-12_12h25.02.578,classification_task,2021.2.3,Win32,59.99520038,627c6715c52fd12f31907bcf,,,,,,,,,,,,,,,,,,,,,,,,,,,,,,,,,,,,,,,0, ,,0,5.447806437,399.2614,0,0,0,0,1,2,1,,,,,,,,,,,,,,,,,,
,5d877c37c3e7ca001816fb8f,627c6fe868045f95450e342a,2022-05-12_12h25.02.578,classification_task,2021.2.3,Win32,59.99520038,627c6715c52fd12f31907bcf,,,,,,,,,,,,,,,,,,,,,,,,,,,,,,,,,,,,,,,1,  ,,0,4.311067019,405.9571,0,0,0,0,1,2,1,,,,,,,,,,,,,,,,,,
,5d877c37c3e7ca001816fb8f,627c6fe868045f95450e342a,2022-05-12_12h25.02.578,classification_task,2021.2.3,Win32,59.99520038,627c6715c52fd12f31907bcf,,,,,,,,,,,,,,,,,,,,,,,,,,,,,,,,,,,,,,,2,  ,,0,3.691027337,411.0118,0,0,0,0,1,2,1,,,,,,,,,,,,,,,,,,
,5d877c37c3e7ca001816fb8f,627c6fe868045f95450e342a,2022-05-12_12h25.02.578,classification_task,2021.2.3,Win32,59.99520038,627c6715c52fd12f31907bcf,,,,,,,,,,,,,,,,,,,,,,,,,,,,,,,,,,,,,,,,,,,,,0,0,0,0,1,,1,,,,,,,,,,,,,,,,,,
,5d877c37c3e7ca001816fb8f,627c6fe868045f95450e342a,2022-05-12_12h25.02.578,classification_task,2021.2.3,Win32,59.99520038,627c6715c52fd12f31907bcf,,,,,,,,,,,,,,,,,,,,,space,16.1465,l,1,4.8609,"[""0.107"",""0.365"",""0.510"",""0.707""]","[1,1,0,1]",0,0,0,0,1,1,0,,,1,FALSE,,,,,,,,,,,,,,,,,,,,,,,,,,,,,,,
,5d877c37c3e7ca001816fb8f,627c6fe868045f95450e342a,2022-05-12_12h25.02.578,classification_task,2021.2.3,Win32,59.99520038,627c6715c52fd12f31907bcf,,,,,,,,,,,,,,,,,,,,,,,a,1,0.6593,"[""0.240"",""0.296"",""0.862"",""0.899""]","[1,0,1,1]",0,1,1,1,1,0,0,,,1,FALSE,,,,,,,,,,,,,,,,,,,,,,,,,,,,,,,
,5d877c37c3e7ca001816fb8f,627c6fe868045f95450e342a,2022-05-12_12h25.02.578,classification_task,2021.2.3,Win32,59.99520038,627c6715c52fd12f31907bcf,,,,,,,,,,,,,,,,,,,,,,,l,1,4.3744,"[""0.049"",""0.154"",""0.286"",""0.744""]","[1,1,0,1]",0,2,2,2,1,1,1,,,1,FALSE,,,,,,,,,,,,,,,,,,,,,,,,,,,,,,,
,5d877c37c3e7ca001816fb8f,627c6fe868045f95450e342a,2022-05-12_12h25.02.578,classification_task,2021.2.3,Win32,59.99520038,627c6715c52fd12f31907bcf,,,,,,,,,,,,,,,,,,,,,,,l,1,2.4701,"[""0.107"",""0.323"",""0.638"",""0.707""]","[1,0,1,1]",0,3,3,3,1,1,0,,,1,FALSE,,,,,,,,,,,,,,,,,,,,,,,,,,,,,,,
,5d877c37c3e7ca001816fb8f,627c6fe868045f95450e342a,2022-05-12_12h25.02.578,classification_task,2021.2.3,Win32,59.99520038,627c6715c52fd12f31907bcf,,,,,,,,,,,,,,,,,,,,,,,l,1,0.6652,"[""0.107"",""0.365"",""0.638"",""0.494""]","[1,1,1,0]",0,4,4,4,1,1,0,,,1,FALSE,,,,,,,,,,,,,,,,,,,,,,,,,,,,,,,
,5d877c37c3e7ca001816fb8f,627c6fe868045f95450e342a,2022-05-12_12h25.02.578,classification_task,2021.2.3,Win32,59.99520038,627c6715c52fd12f31907bcf,,,,,,,,,,,,,,,,,,,,,,,l,0,0.6221,"[""0.240"",""0.407"",""0.862"",""0.508""]","[1,1,1,0]",0,5,5,5,1,0,0,,,1,FALSE,,,,,,,,,,,,,,,,,,,,,,,,,,,,,,,
,5d877c37c3e7ca001816fb8f,627c6fe868045f95450e342a,2022-05-12_12h25.02.578,classification_task,2021.2.3,Win32,59.99520038,627c6715c52fd12f31907bcf,,,,,,,,,,,,,,,,,,,,,,,a,1,1.3439,"[""0.205"",""0.444"",""0.494"",""0.972""]","[1,1,0,1]",0,6,6,6,1,0,1,,,1,FALSE,,,,,,,,,,,,,,,,,,,,,,,,,,,,,,,
,5d877c37c3e7ca001816fb8f,627c6fe868045f95450e342a,2022-05-12_12h25.02.578,classification_task,2021.2.3,Win32,59.99520038,627c6715c52fd12f31907bcf,,,,,,,,,,,,,,,,,,,,,,,a,1,0.5577,"[""0.497"",""0.444"",""0.935"",""0.972""]","[0,1,1,1]",0,7,7,7,1,0,1,,,1,FALSE,,,,,,,,,,,,,,,,,,,,,,,,,,,,,,,
,5d877c37c3e7ca001816fb8f,627c6fe868045f95450e342a,2022-05-12_12h25.02.578,classification_task,2021.2.3,Win32,59.99520038,627c6715c52fd12f31907bcf,,,,,,,,,,,,,,,,,,,,,,,l,1,0.6403,"[""0.793"",""0.154"",""0.567"",""0.744""]","[0,1,1,1]",0,8,8,8,1,1,1,,,1,FALSE,,,,,,,,,,,,,,,,,,,,,,,,,,,,,,,
,5d877c37c3e7ca001816fb8f,627c6fe868045f95450e342a,2022-05-12_12h25.02.578,classification_task,2021.2.3,Win32,59.99520038,627c6715c52fd12f31907bcf,,,,,,,,,,,,,,,,,,,,,,,a,1,0.6817,"[""0.205"",""0.444"",""0.935"",""0.494""]","[1,1,1,0]",0,9,9,9,1,0,1,,,1,FALSE,,,,,,,,,,,,,,,,,,,,,,,,,,,,,,,
,5d877c37c3e7ca001816fb8f,627c6fe868045f95450e342a,2022-05-12_12h25.02.578,classification_task,2021.2.3,Win32,59.99520038,627c6715c52fd12f31907bcf,,,,,,,,,,,,,,,,,,,,,,,l,1,0.6206,"[""0.049"",""0.154"",""0.567"",""0.793""]","[1,1,1,0]",0,10,10,10,1,1,1,,,1,FALSE,,,,,,,,,,,,,,,,,,,,,,,,,,,,,,,
,5d877c37c3e7ca001816fb8f,627c6fe868045f95450e342a,2022-05-12_12h25.02.578,classification_task,2021.2.3,Win32,59.99520038,627c6715c52fd12f31907bcf,,,,,,,,,,,,,,,,,,,,,,,a,1,1.5398,"[""0.497"",""0.407"",""0.862"",""0.899""]","[0,1,1,1]",0,11,11,11,1,0,0,,,1,FALSE,,,,,,,,,,,,,,,,,,,,,,,,,,,,,,,
,5d877c37c3e7ca001816fb8f,627c6fe868045f95450e342a,2022-05-12_12h25.02.578,classification_task,2021.2.3,Win32,59.99520038,627c6715c52fd12f31907bcf,,,,,,,,,,,,,,,,,,,,,,,a,1,0.6929,"[""0.205"",""0.492"",""0.935"",""0.972""]","[1,0,1,1]",0,12,12,12,1,0,1,,,1,FALSE,,,,,,,,,,,,,,,,,,,,,,,,,,,,,,,
,5d877c37c3e7ca001816fb8f,627c6fe868045f95450e342a,2022-05-12_12h25.02.578,classification_task,2021.2.3,Win32,59.99520038,627c6715c52fd12f31907bcf,,,,,,,,,,,,,,,,,,,,,,,l,1,1.4768,"[""0.803"",""0.365"",""0.638"",""0.707""]","[0,1,1,1]",0,13,13,13,1,1,0,,,1,FALSE,,,,,,,,,,,,,,,,,,,,,,,,,,,,,,,
,5d877c37c3e7ca001816fb8f,627c6fe868045f95450e342a,2022-05-12_12h25.02.578,classification_task,2021.2.3,Win32,59.99520038,627c6715c52fd12f31907bcf,,,,,,,,,,,,,,,,,,,,,,,l,1,0.828,"[""0.049"",""0.793"",""0.567"",""0.744""]","[1,0,1,1]",0,14,14,14,1,1,1,,,1,FALSE,,,,,,,,,,,,,,,,,,,,,,,,,,,,,,,
,5d877c37c3e7ca001816fb8f,627c6fe868045f95450e342a,2022-05-12_12h25.02.578,classification_task,2021.2.3,Win32,59.99520038,627c6715c52fd12f31907bcf,,,,,,,,,,,,,,,,,,,,,,,l,0,1.56,"[""0.240"",""0.407"",""0.494"",""0.899""]","[1,1,0,1]",0,15,15,15,1,0,0,,,1,FALSE,,,,,,,,,,,,,,,,,,,,,,,,,,,,,,,
,5d877c37c3e7ca001816fb8f,627c6fe868045f95450e342a,2022-05-12_12h25.02.578,classification_task,2021.2.3,Win32,59.99520038,627c6715c52fd12f31907bcf,,,,,,,,,,,,,,,,,,,,,,,l,1,0.6199,"[""0.049"",""0.154"",""0.567"",""0.793""]","[1,1,1,0]",0,16,16,16,1,1,1,,,1,FALSE,,,,,,,,,,,,,,,,,,,,,,,,,,,,,,,
,5d877c37c3e7ca001816fb8f,627c6fe868045f95450e342a,2022-05-12_12h25.02.578,classification_task,2021.2.3,Win32,59.99520038,627c6715c52fd12f31907bcf,,,,,,,,,,,,,,,,,,,,,,,l,1,0.5119,"[""0.508"",""0.154"",""0.567"",""0.744""]","[0,1,1,1]",0,17,17,17,1,1,1,,,1,FALSE,,,,,,,,,,,,,,,,,,,,,,,,,,,,,,,
,5d877c37c3e7ca001816fb8f,627c6fe868045f95450e342a,2022-05-12_12h25.02.578,classification_task,2021.2.3,Win32,59.99520038,627c6715c52fd12f31907bcf,,,,,,,,,,,,,,,,,,,,,,,a,1,0.5047,"[""0.205"",""0.508"",""0.935"",""0.972""]","[1,0,1,1]",0,18,18,18,1,0,1,,,1,FALSE,,,,,,,,,,,,,,,,,,,,,,,,,,,,,,,
,5d877c37c3e7ca001816fb8f,627c6fe868045f95450e342a,2022-05-12_12h25.02.578,classification_task,2021.2.3,Win32,59.99520038,627c6715c52fd12f31907bcf,,,,,,,,,,,,,,,,,,,,,,,a,1,0.9942,"[""0.489"",""0.407"",""0.862"",""0.899""]","[0,1,1,1]",0,19,19,19,1,0,0,,,1,FALSE,,,,,,,,,,,,,,,,,,,,,,,,,,,,,,,
,5d877c37c3e7ca001816fb8f,627c6fe868045f95450e342a,2022-05-12_12h25.02.578,classification_task,2021.2.3,Win32,59.99520038,627c6715c52fd12f31907bcf,,,,,,,,,,,,,,,,,,,,,,,l,1,0.7182,"[""0.049"",""0.492"",""0.567"",""0.744""]","[1,0,1,1]",0,20,20,20,1,1,1,,,1,FALSE,,,,,,,,,,,,,,,,,,,,,,,,,,,,,,,
,5d877c37c3e7ca001816fb8f,627c6fe868045f95450e342a,2022-05-12_12h25.02.578,classification_task,2021.2.3,Win32,59.99520038,627c6715c52fd12f31907bcf,,,,,,,,,,,,,,,,,,,,,,,l,1,1.3909,"[""0.107"",""0.365"",""0.638"",""0.492""]","[1,1,1,0]",0,21,21,21,1,1,0,,,1,FALSE,,,,,,,,,,,,,,,,,,,,,,,,,,,,,,,
,5d877c37c3e7ca001816fb8f,627c6fe868045f95450e342a,2022-05-12_12h25.02.578,classification_task,2021.2.3,Win32,59.99520038,627c6715c52fd12f31907bcf,,,,,,,,,,,,,,,,,,,,,,,l,1,0.8958,"[""0.107"",""0.365"",""0.290"",""0.707""]","[1,1,0,1]",0,22,22,22,1,1,0,,,1,FALSE,,,,,,,,,,,,,,,,,,,,,,,,,,,,,,,
,5d877c37c3e7ca001816fb8f,627c6fe868045f95450e342a,2022-05-12_12h25.02.578,classification_task,2021.2.3,Win32,59.99520038,627c6715c52fd12f31907bcf,,,,,,,,,,,,,,,,,,,,,,,a,1,0.9548,"[""0.510"",""0.444"",""0.935"",""0.972""]","[0,1,1,1]",0,23,23,23,1,0,1,,,1,FALSE,,,,,,,,,,,,,,,,,,,,,,,,,,,,,,,
,5d877c37c3e7ca001816fb8f,627c6fe868045f95450e342a,2022-05-12_12h25.02.578,classification_task,2021.2.3,Win32,59.99520038,627c6715c52fd12f31907bcf,,,,,,,,,,,,,,,,,,,,,,,a,1,0.6194,"[""0.205"",""0.444"",""0.508"",""0.972""]","[1,1,0,1]",0,24,24,24,1,0,1,,,1,FALSE,,,,,,,,,,,,,,,,,,,,,,,,,,,,,,,
,5d877c37c3e7ca001816fb8f,627c6fe868045f95450e342a,2022-05-12_12h25.02.578,classification_task,2021.2.3,Win32,59.99520038,627c6715c52fd12f31907bcf,,,,,,,,,,,,,,,,,,,,,,,a,1,0.3527,"[""0.205"",""0.444"",""0.935"",""0.793""]","[1,1,1,0]",0,25,25,25,1,0,1,,,1,FALSE,,,,,,,,,,,,,,,,,,,,,,,,,,,,,,,
,5d877c37c3e7ca001816fb8f,627c6fe868045f95450e342a,2022-05-12_12h25.02.578,classification_task,2021.2.3,Win32,59.99520038,627c6715c52fd12f31907bcf,,,,,,,,,,,,,,,,,,,,,,,l,0,1.6644,"[""0.240"",""0.407"",""0.862"",""0.489""]","[1,1,1,0]",0,26,26,26,1,0,0,,,1,FALSE,,,,,,,,,,,,,,,,,,,,,,,,,,,,,,,
,5d877c37c3e7ca001816fb8f,627c6fe868045f95450e342a,2022-05-12_12h25.02.578,classification_task,2021.2.3,Win32,59.99520038,627c6715c52fd12f31907bcf,,,,,,,,,,,,,,,,,,,,,,,l,1,1.4394,"[""0.286"",""0.365"",""0.638"",""0.707""]","[0,1,1,1]",0,27,27,27,1,1,0,,,1,FALSE,,,,,,,,,,,,,,,,,,,,,,,,,,,,,,,
,5d877c37c3e7ca001816fb8f,627c6fe868045f95450e342a,2022-05-12_12h25.02.578,classification_task,2021.2.3,Win32,59.99520038,627c6715c52fd12f31907bcf,,,,,,,,,,,,,,,,,,,,,,,l,1,1.1921,"[""0.107"",""0.779"",""0.638"",""0.707""]","[1,0,1,1]",0,28,28,28,1,1,0,,,1,FALSE,,,,,,,,,,,,,,,,,,,,,,,,,,,,,,,
,5d877c37c3e7ca001816fb8f,627c6fe868045f95450e342a,2022-05-12_12h25.02.578,classification_task,2021.2.3,Win32,59.99520038,627c6715c52fd12f31907bcf,,,,,,,,,,,,,,,,,,,,,,,l,1,0.8427,"[""0.049"",""0.154"",""0.489"",""0.744""]","[1,1,0,1]",0,29,29,29,1,1,1,,,1,FALSE,,,,,,,,,,,,,,,,,,,,,,,,,,,,,,,
,5d877c37c3e7ca001816fb8f,627c6fe868045f95450e342a,2022-05-12_12h25.02.578,classification_task,2021.2.3,Win32,59.99520038,627c6715c52fd12f31907bcf,,,,,,,,,,,,,,,,,,,,,,,l,0,1.0892,"[""0.240"",""0.407"",""0.803"",""0.899""]","[1,1,0,1]",0,30,30,30,1,0,0,,,1,FALSE,,,,,,,,,,,,,,,,,,,,,,,,,,,,,,,
,5d877c37c3e7ca001816fb8f,627c6fe868045f95450e342a,2022-05-12_12h25.02.578,classification_task,2021.2.3,Win32,59.99520038,627c6715c52fd12f31907bcf,,,,,,,,,,,,,,,,,,,,,,,a,1,0.7516,"[""0.240"",""0.492"",""0.862"",""0.899""]","[1,0,1,1]",0,31,31,31,1,0,0,,,1,FALSE,,,,,,,,,,,,,,,,,,,,,,,,,,,,,,,
,5d877c37c3e7ca001816fb8f,627c6fe868045f95450e342a,2022-05-12_12h25.02.578,classification_task,2021.2.3,Win32,59.99520038,627c6715c52fd12f31907bcf,,,,,,,,,,,,,,,,,,,,,,,l,1,0.8157,"[""0.049"",""0.154"",""0.567"",""0.489""]","[1,1,1,0]",0,32,32,32,1,1,1,,,1,FALSE,,,,,,,,,,,,,,,,,,,,,,,,,,,,,,,
,5d877c37c3e7ca001816fb8f,627c6fe868045f95450e342a,2022-05-12_12h25.02.578,classification_task,2021.2.3,Win32,59.99520038,627c6715c52fd12f31907bcf,,,,,,,,,,,,,,,,,,,,,,,a,1,0.644,"[""0.205"",""0.444"",""0.290"",""0.972""]","[1,1,0,1]",0,33,33,33,1,0,1,,,1,FALSE,,,,,,,,,,,,,,,,,,,,,,,,,,,,,,,
,5d877c37c3e7ca001816fb8f,627c6fe868045f95450e342a,2022-05-12_12h25.02.578,classification_task,2021.2.3,Win32,59.99520038,627c6715c52fd12f31907bcf,,,,,,,,,,,,,,,,,,,,,,,l,1,1.3908,"[""0.107"",""0.515"",""0.638"",""0.707""]","[1,0,1,1]",0,34,34,34,1,1,0,,,1,FALSE,,,,,,,,,,,,,,,,,,,,,,,,,,,,,,,
,5d877c37c3e7ca001816fb8f,627c6fe868045f95450e342a,2022-05-12_12h25.02.578,classification_task,2021.2.3,Win32,59.99520038,627c6715c52fd12f31907bcf,,,,,,,,,,,,,,,,,,,,,,,a,1,0.9281,"[""0.240"",""0.407"",""0.489"",""0.899""]","[1,1,0,1]",0,35,35,35,1,0,0,,,1,FALSE,,,,,,,,,,,,,,,,,,,,,,,,,,,,,,,
,5d877c37c3e7ca001816fb8f,627c6fe868045f95450e342a,2022-05-12_12h25.02.578,classification_task,2021.2.3,Win32,59.99520038,627c6715c52fd12f31907bcf,,,,,,,,,,,,,,,,,,,,,,,l,1,1.3409,"[""0.107"",""0.365"",""0.638"",""0.492""]","[1,1,1,0]",0,36,36,36,1,1,0,,,1,FALSE,,,,,,,,,,,,,,,,,,,,,,,,,,,,,,,
,5d877c37c3e7ca001816fb8f,627c6fe868045f95450e342a,2022-05-12_12h25.02.578,classification_task,2021.2.3,Win32,59.99520038,627c6715c52fd12f31907bcf,,,,,,,,,,,,,,,,,,,,,,,a,1,0.6187,"[""0.497"",""0.444"",""0.935"",""0.972""]","[0,1,1,1]",0,37,37,37,1,0,1,,,1,FALSE,,,,,,,,,,,,,,,,,,,,,,,,,,,,,,,
,5d877c37c3e7ca001816fb8f,627c6fe868045f95450e342a,2022-05-12_12h25.02.578,classification_task,2021.2.3,Win32,59.99520038,627c6715c52fd12f31907bcf,,,,,,,,,,,,,,,,,,,,,,,a,1,0.9982,"[""0.508"",""0.407"",""0.862"",""0.899""]","[0,1,1,1]",0,38,38,38,1,0,0,,,1,FALSE,,,,,,,,,,,,,,,,,,,,,,,,,,,,,,,
,5d877c37c3e7ca001816fb8f,627c6fe868045f95450e342a,2022-05-12_12h25.02.578,classification_task,2021.2.3,Win32,59.99520038,627c6715c52fd12f31907bcf,,,,,,,,,,,,,,,,,,,,,,,a,1,0.8661,"[""0.205"",""0.323"",""0.935"",""0.972""]","[1,0,1,1]",0,39,39,39,1,0,1,,,1,FALSE,,,,,,,,,,,,,,,,,,,,,,,,,,,,,,,
,5d877c37c3e7ca001816fb8f,627c6fe868045f95450e342a,2022-05-12_12h25.02.578,classification_task,2021.2.3,Win32,59.99520038,627c6715c52fd12f31907bcf,,,,,,,,,,,,,,,,,,,,,,,a,0,1.0881,"[""0.312"",""0.365"",""0.638"",""0.707""]","[0,1,1,1]",0,40,40,40,1,1,0,,,1,FALSE,,,,,,,,,,,,,,,,,,,,,,,,,,,,,,,
,5d877c37c3e7ca001816fb8f,627c6fe868045f95450e342a,2022-05-12_12h25.02.578,classification_task,2021.2.3,Win32,59.99520038,627c6715c52fd12f31907bcf,,,,,,,,,,,,,,,,,,,,,,,a,0,1.4534,"[""0.107"",""0.365"",""0.793"",""0.707""]","[1,1,0,1]",0,41,41,41,1,1,0,,,1,FALSE,,,,,,,,,,,,,,,,,,,,,,,,,,,,,,,
,5d877c37c3e7ca001816fb8f,627c6fe868045f95450e342a,2022-05-12_12h25.02.578,classification_task,2021.2.3,Win32,59.99520038,627c6715c52fd12f31907bcf,,,,,,,,,,,,,,,,,,,,,,,a,0,0.5161,"[""0.049"",""0.510"",""0.567"",""0.744""]","[1,0,1,1]",0,42,42,42,1,1,1,,,1,FALSE,,,,,,,,,,,,,,,,,,,,,,,,,,,,,,,
,5d877c37c3e7ca001816fb8f,627c6fe868045f95450e342a,2022-05-12_12h25.02.578,classification_task,2021.2.3,Win32,59.99520038,627c6715c52fd12f31907bcf,,,,,,,,,,,,,,,,,,,,,,,l,1,0.5551,"[""0.049"",""0.154"",""0.803"",""0.744""]","[1,1,0,1]",0,43,43,43,1,1,1,,,1,FALSE,,,,,,,,,,,,,,,,,,,,,,,,,,,,,,,
,5d877c37c3e7ca001816fb8f,627c6fe868045f95450e342a,2022-05-12_12h25.02.578,classification_task,2021.2.3,Win32,59.99520038,627c6715c52fd12f31907bcf,,,,,,,,,,,,,,,,,,,,,,,a,1,0.5516,"[""0.205"",""0.444"",""0.935"",""0.494""]","[1,1,1,0]",0,44,44,44,1,0,1,,,1,FALSE,,,,,,,,,,,,,,,,,,,,,,,,,,,,,,,
,5d877c37c3e7ca001816fb8f,627c6fe868045f95450e342a,2022-05-12_12h25.02.578,classification_task,2021.2.3,Win32,59.99520038,627c6715c52fd12f31907bcf,,,,,,,,,,,,,,,,,,,,,,,a,1,0.8635,"[""0.240"",""0.803"",""0.862"",""0.899""]","[1,0,1,1]",0,45,45,45,1,0,0,,,1,FALSE,,,,,,,,,,,,,,,,,,,,,,,,,,,,,,,
,5d877c37c3e7ca001816fb8f,627c6fe868045f95450e342a,2022-05-12_12h25.02.578,classification_task,2021.2.3,Win32,59.99520038,627c6715c52fd12f31907bcf,,,,,,,,,,,,,,,,,,,,,,,l,0,1.286,"[""0.240"",""0.407"",""0.862"",""0.323""]","[1,1,1,0]",0,46,46,46,1,0,0,,,1,FALSE,,,,,,,,,,,,,,,,,,,,,,,,,,,,,,,
,5d877c37c3e7ca001816fb8f,627c6fe868045f95450e342a,2022-05-12_12h25.02.578,classification_task,2021.2.3,Win32,59.99520038,627c6715c52fd12f31907bcf,,,,,,,,,,,,,,,,,,,,,,,l,1,0.6014,"[""0.803"",""0.154"",""0.567"",""0.744""]","[0,1,1,1]",0,47,47,47,1,1,1,,,1,FALSE,,,,,,,,,,,,,,,,,,,,,,,,,,,,,,,
,5d877c37c3e7ca001816fb8f,627c6fe868045f95450e342a,2022-05-12_12h25.02.578,classification_task,2021.2.3,Win32,59.99520038,627c6715c52fd12f31907bcf,,,,,,,,,,,,,,,,,,,,,,,l,1,0.4182,"[""0.049"",""0.489"",""0.567"",""0.744""]","[1,0,1,1]",0,48,48,48,1,1,1,,,1,FALSE,,,,,,,,,,,,,,,,,,,,,,,,,,,,,,,
,5d877c37c3e7ca001816fb8f,627c6fe868045f95450e342a,2022-05-12_12h25.02.578,classification_task,2021.2.3,Win32,59.99520038,627c6715c52fd12f31907bcf,,,,,,,,,,,,,,,,,,,,,,,l,0,1.3993,"[""0.240"",""0.407"",""0.494"",""0.899""]","[1,1,0,1]",0,49,49,49,1,0,0,,,1,FALSE,,,,,,,,,,,,,,,,,,,,,,,,,,,,,,,
,5d877c37c3e7ca001816fb8f,627c6fe868045f95450e342a,2022-05-12_12h25.02.578,classification_task,2021.2.3,Win32,59.99520038,627c6715c52fd12f31907bcf,,,,,,,,,,,,,,,,,,,,,,,a,1,0.5769,"[""0.205"",""0.444"",""0.290"",""0.972""]","[1,1,0,1]",0,50,50,50,1,0,1,,,1,FALSE,,,,,,,,,,,,,,,,,,,,,,,,,,,,,,,
,5d877c37c3e7ca001816fb8f,627c6fe868045f95450e342a,2022-05-12_12h25.02.578,classification_task,2021.2.3,Win32,59.99520038,627c6715c52fd12f31907bcf,,,,,,,,,,,,,,,,,,,,,,,l,1,1.1625,"[""0.107"",""0.365"",""0.494"",""0.707""]","[1,1,0,1]",0,51,51,51,1,1,0,,,1,FALSE,,,,,,,,,,,,,,,,,,,,,,,,,,,,,,,
,5d877c37c3e7ca001816fb8f,627c6fe868045f95450e342a,2022-05-12_12h25.02.578,classification_task,2021.2.3,Win32,59.99520038,627c6715c52fd12f31907bcf,,,,,,,,,,,,,,,,,,,,,,,a,1,0.6849,"[""0.240"",""0.290"",""0.862"",""0.899""]","[1,0,1,1]",0,52,52,52,1,0,0,,,1,FALSE,,,,,,,,,,,,,,,,,,,,,,,,,,,,,,,
,5d877c37c3e7ca001816fb8f,627c6fe868045f95450e342a,2022-05-12_12h25.02.578,classification_task,2021.2.3,Win32,59.99520038,627c6715c52fd12f31907bcf,,,,,,,,,,,,,,,,,,,,,,,a,1,0.578,"[""0.205"",""0.444"",""0.935"",""0.510""]","[1,1,1,0]",0,53,53,53,1,0,1,,,1,FALSE,,,,,,,,,,,,,,,,,,,,,,,,,,,,,,,
,5d877c37c3e7ca001816fb8f,627c6fe868045f95450e342a,2022-05-12_12h25.02.578,classification_task,2021.2.3,Win32,59.99520038,627c6715c52fd12f31907bcf,,,,,,,,,,,,,,,,,,,,,,,l,1,0.5962,"[""0.508"",""0.154"",""0.567"",""0.744""]","[0,1,1,1]",0,54,54,54,1,1,1,,,1,FALSE,,,,,,,,,,,,,,,,,,,,,,,,,,,,,,,
,5d877c37c3e7ca001816fb8f,627c6fe868045f95450e342a,2022-05-12_12h25.02.578,classification_task,2021.2.3,Win32,59.99520038,627c6715c52fd12f31907bcf,,,,,,,,,,,,,,,,,,,,,,,l,1,0.5301,"[""0.049"",""0.154"",""0.567"",""0.312""]","[1,1,1,0]",0,55,55,55,1,1,1,,,1,FALSE,,,,,,,,,,,,,,,,,,,,,,,,,,,,,,,
,5d877c37c3e7ca001816fb8f,627c6fe868045f95450e342a,2022-05-12_12h25.02.578,classification_task,2021.2.3,Win32,59.99520038,627c6715c52fd12f31907bcf,,,,,,,,,,,,,,,,,,,,,,,l,1,0.4876,"[""0.049"",""0.154"",""0.803"",""0.744""]","[1,1,0,1]",0,56,56,56,1,1,1,,,1,FALSE,,,,,,,,,,,,,,,,,,,,,,,,,,,,,,,
,5d877c37c3e7ca001816fb8f,627c6fe868045f95450e342a,2022-05-12_12h25.02.578,classification_task,2021.2.3,Win32,59.99520038,627c6715c52fd12f31907bcf,,,,,,,,,,,,,,,,,,,,,,,a,1,1.5902,"[""0.793"",""0.407"",""0.862"",""0.899""]","[0,1,1,1]",0,57,57,57,1,0,0,,,1,FALSE,,,,,,,,,,,,,,,,,,,,,,,,,,,,,,,
,5d877c37c3e7ca001816fb8f,627c6fe868045f95450e342a,2022-05-12_12h25.02.578,classification_task,2021.2.3,Win32,59.99520038,627c6715c52fd12f31907bcf,,,,,,,,,,,,,,,,,,,,,,,l,1,1.084,"[""0.107"",""0.323"",""0.638"",""0.707""]","[1,0,1,1]",0,58,58,58,1,1,0,,,1,FALSE,,,,,,,,,,,,,,,,,,,,,,,,,,,,,,,
,5d877c37c3e7ca001816fb8f,627c6fe868045f95450e342a,2022-05-12_12h25.02.578,classification_task,2021.2.3,Win32,59.99520038,627c6715c52fd12f31907bcf,,,,,,,,,,,,,,,,,,,,,,,a,1,0.5748,"[""0.205"",""0.290"",""0.935"",""0.972""]","[1,0,1,1]",0,59,59,59,1,0,1,,,1,FALSE,,,,,,,,,,,,,,,,,,,,,,,,,,,,,,,
,5d877c37c3e7ca001816fb8f,627c6fe868045f95450e342a,2022-05-12_12h25.02.578,classification_task,2021.2.3,Win32,59.99520038,627c6715c52fd12f31907bcf,,,,,,,,,,,,,,,,,,,,,,,l,0,1.5502,"[""0.240"",""0.407"",""0.862"",""0.497""]","[1,1,1,0]",0,60,60,60,1,0,0,,,1,FALSE,,,,,,,,,,,,,,,,,,,,,,,,,,,,,,,
,5d877c37c3e7ca001816fb8f,627c6fe868045f95450e342a,2022-05-12_12h25.02.578,classification_task,2021.2.3,Win32,59.99520038,627c6715c52fd12f31907bcf,,,,,,,,,,,,,,,,,,,,,,,l,1,1.0824,"[""0.793"",""0.365"",""0.638"",""0.707""]","[0,1,1,1]",0,61,61,61,1,1,0,,,1,FALSE,,,,,,,,,,,,,,,,,,,,,,,,,,,,,,,
,5d877c37c3e7ca001816fb8f,627c6fe868045f95450e342a,2022-05-12_12h25.02.578,classification_task,2021.2.3,Win32,59.99520038,627c6715c52fd12f31907bcf,,,,,,,,,,,,,,,,,,,,,,,l,1,0.8624,"[""0.107"",""0.365"",""0.638"",""0.494""]","[1,1,1,0]",0,62,62,62,1,1,0,,,1,FALSE,,,,,,,,,,,,,,,,,,,,,,,,,,,,,,,
,5d877c37c3e7ca001816fb8f,627c6fe868045f95450e342a,2022-05-12_12h25.02.578,classification_task,2021.2.3,Win32,59.99520038,627c6715c52fd12f31907bcf,,,,,,,,,,,,,,,,,,,,,,,a,1,0.5545,"[""0.510"",""0.444"",""0.935"",""0.972""]","[0,1,1,1]",0,63,63,63,1,0,1,,,1,FALSE,,,,,,,,,,,,,,,,,,,,,,,,,,,,,,,
,5d877c37c3e7ca001816fb8f,627c6fe868045f95450e342a,2022-05-12_12h25.02.578,classification_task,2021.2.3,Win32,59.99520038,627c6715c52fd12f31907bcf,,,,,,,,,,,,,,,,,,,,,,,,,,,,,,,,,,,,,,,0, ,,0,7.514605379,154.9766,0,1,1,1,1,2,2,,,,,,,,,,,,,,,,,,
,5d877c37c3e7ca001816fb8f,627c6fe868045f95450e342a,2022-05-12_12h25.02.578,classification_task,2021.2.3,Win32,59.99520038,627c6715c52fd12f31907bcf,,,,,,,,,,,,,,,,,,,,,,,,,,,,,,,,,,,,,,,1,  ,,0,5.757826279,158.3237,0,1,1,1,1,2,2,,,,,,,,,,,,,,,,,,
,5d877c37c3e7ca001816fb8f,627c6fe868045f95450e342a,2022-05-12_12h25.02.578,classification_task,2021.2.3,Win32,59.99520038,627c6715c52fd12f31907bcf,,,,,,,,,,,,,,,,,,,,,,,,,,,,,,,,,,,,,,,2,  ,,0,4.793320106,161.4025,0,1,1,1,1,2,2,,,,,,,,,,,,,,,,,,
,5d877c37c3e7ca001816fb8f,627c6fe868045f95450e342a,2022-05-12_12h25.02.578,classification_task,2021.2.3,Win32,59.99520038,627c6715c52fd12f31907bcf,,,,,,,,,,,,,,,,,,,,,,,,,,,,,,,,,,,,,,,,,,,,,0,1,1,1,1,,2,,,,,,,,,,,,,,,,,,
,5d877c37c3e7ca001816fb8f,627c6fe868045f95450e342a,2022-05-12_12h25.02.578,classification_task,2021.2.3,Win32,59.99520038,627c6715c52fd12f31907bcf,,,,,,,,,,,,,,,,,,,,,space,3.9294,l,0,3.0963,"[""0.205"",""0.444"",""0.935"",""0.494""]","[1,1,1,0]",0,0,0,0,1,0,1,,,1,FALSE,,,,,,,,,,,,,,,,,,,,,,,,,,,,,,,
,5d877c37c3e7ca001816fb8f,627c6fe868045f95450e342a,2022-05-12_12h25.02.578,classification_task,2021.2.3,Win32,59.99520038,627c6715c52fd12f31907bcf,,,,,,,,,,,,,,,,,,,,,,,a,1,0.8089,"[""0.205"",""0.515"",""0.935"",""0.972""]","[1,0,1,1]",0,1,1,1,1,0,1,,,1,FALSE,,,,,,,,,,,,,,,,,,,,,,,,,,,,,,,
,5d877c37c3e7ca001816fb8f,627c6fe868045f95450e342a,2022-05-12_12h25.02.578,classification_task,2021.2.3,Win32,59.99520038,627c6715c52fd12f31907bcf,,,,,,,,,,,,,,,,,,,,,,,l,1,2.6476,"[""0.049"",""0.494"",""0.567"",""0.744""]","[1,0,1,1]",0,2,2,2,1,1,1,,,1,FALSE,,,,,,,,,,,,,,,,,,,,,,,,,,,,,,,
,5d877c37c3e7ca001816fb8f,627c6fe868045f95450e342a,2022-05-12_12h25.02.578,classification_task,2021.2.3,Win32,59.99520038,627c6715c52fd12f31907bcf,,,,,,,,,,,,,,,,,,,,,,,a,1,0.8887,"[""0.515"",""0.444"",""0.935"",""0.972""]","[0,1,1,1]",0,3,3,3,1,0,1,,,1,FALSE,,,,,,,,,,,,,,,,,,,,,,,,,,,,,,,
,5d877c37c3e7ca001816fb8f,627c6fe868045f95450e342a,2022-05-12_12h25.02.578,classification_task,2021.2.3,Win32,59.99520038,627c6715c52fd12f31907bcf,,,,,,,,,,,,,,,,,,,,,,,l,0,2.0774,"[""0.205"",""0.444"",""0.510"",""0.972""]","[1,1,0,1]",0,4,4,4,1,0,1,,,1,FALSE,,,,,,,,,,,,,,,,,,,,,,,,,,,,,,,
,5d877c37c3e7ca001816fb8f,627c6fe868045f95450e342a,2022-05-12_12h25.02.578,classification_task,2021.2.3,Win32,59.99520038,627c6715c52fd12f31907bcf,,,,,,,,,,,,,,,,,,,,,,,a,0,2.281,"[""0.489"",""0.154"",""0.567"",""0.744""]","[0,1,1,1]",0,5,5,5,1,1,1,,,1,FALSE,,,,,,,,,,,,,,,,,,,,,,,,,,,,,,,
,5d877c37c3e7ca001816fb8f,627c6fe868045f95450e342a,2022-05-12_12h25.02.578,classification_task,2021.2.3,Win32,59.99520038,627c6715c52fd12f31907bcf,,,,,,,,,,,,,,,,,,,,,,,a,1,0.7791,"[""0.290"",""0.407"",""0.862"",""0.899""]","[0,1,1,1]",0,6,6,6,1,0,0,,,1,FALSE,,,,,,,,,,,,,,,,,,,,,,,,,,,,,,,
,5d877c37c3e7ca001816fb8f,627c6fe868045f95450e342a,2022-05-12_12h25.02.578,classification_task,2021.2.3,Win32,59.99520038,627c6715c52fd12f31907bcf,,,,,,,,,,,,,,,,,,,,,,,l,1,1.4163,"[""0.049"",""0.154"",""0.567"",""0.494""]","[1,1,1,0]",0,7,7,7,1,1,1,,,1,FALSE,,,,,,,,,,,,,,,,,,,,,,,,,,,,,,,
,5d877c37c3e7ca001816fb8f,627c6fe868045f95450e342a,2022-05-12_12h25.02.578,classification_task,2021.2.3,Win32,59.99520038,627c6715c52fd12f31907bcf,,,,,,,,,,,,,,,,,,,,,,,a,1,0.6887,"[""0.240"",""0.290"",""0.862"",""0.899""]","[1,0,1,1]",0,8,8,8,1,0,0,,,1,FALSE,,,,,,,,,,,,,,,,,,,,,,,,,,,,,,,
,5d877c37c3e7ca001816fb8f,627c6fe868045f95450e342a,2022-05-12_12h25.02.578,classification_task,2021.2.3,Win32,59.99520038,627c6715c52fd12f31907bcf,,,,,,,,,,,,,,,,,,,,,,,l,1,1.2393,"[""0.107"",""0.290"",""0.638"",""0.707""]","[1,0,1,1]",0,9,9,9,1,1,0,,,1,FALSE,,,,,,,,,,,,,,,,,,,,,,,,,,,,,,,
,5d877c37c3e7ca001816fb8f,627c6fe868045f95450e342a,2022-05-12_12h25.02.578,classification_task,2021.2.3,Win32,59.99520038,627c6715c52fd12f31907bcf,,,,,,,,,,,,,,,,,,,,,,,a,1,1.4541,"[""0.240"",""0.407"",""0.779"",""0.899""]","[1,1,0,1]",0,10,10,10,1,0,0,,,1,FALSE,,,,,,,,,,,,,,,,,,,,,,,,,,,,,,,
,5d877c37c3e7ca001816fb8f,627c6fe868045f95450e342a,2022-05-12_12h25.02.578,classification_task,2021.2.3,Win32,59.99520038,627c6715c52fd12f31907bcf,,,,,,,,,,,,,,,,,,,,,,,l,1,1.2676,"[""0.107"",""0.365"",""0.638"",""0.803""]","[1,1,1,0]",0,11,11,11,1,1,0,,,1,FALSE,,,,,,,,,,,,,,,,,,,,,,,,,,,,,,,
,5d877c37c3e7ca001816fb8f,627c6fe868045f95450e342a,2022-05-12_12h25.02.578,classification_task,2021.2.3,Win32,59.99520038,627c6715c52fd12f31907bcf,,,,,,,,,,,,,,,,,,,,,,,l,1,1.0566,"[""0.107"",""0.365"",""0.779"",""0.707""]","[1,1,0,1]",0,12,12,12,1,1,0,,,1,FALSE,,,,,,,,,,,,,,,,,,,,,,,,,,,,,,,
,5d877c37c3e7ca001816fb8f,627c6fe868045f95450e342a,2022-05-12_12h25.02.578,classification_task,2021.2.3,Win32,59.99520038,627c6715c52fd12f31907bcf,,,,,,,,,,,,,,,,,,,,,,,l,1,0.972,"[""0.492"",""0.365"",""0.638"",""0.707""]","[0,1,1,1]",0,13,13,13,1,1,0,,,1,FALSE,,,,,,,,,,,,,,,,,,,,,,,,,,,,,,,
,5d877c37c3e7ca001816fb8f,627c6fe868045f95450e342a,2022-05-12_12h25.02.578,classification_task,2021.2.3,Win32,59.99520038,627c6715c52fd12f31907bcf,,,,,,,,,,,,,,,,,,,,,,,l,1,1.57,"[""0.049"",""0.154"",""0.312"",""0.744""]","[1,1,0,1]",0,14,14,14,1,1,1,,,1,FALSE,,,,,,,,,,,,,,,,,,,,,,,,,,,,,,,
,5d877c37c3e7ca001816fb8f,627c6fe868045f95450e342a,2022-05-12_12h25.02.578,classification_task,2021.2.3,Win32,59.99520038,627c6715c52fd12f31907bcf,,,,,,,,,,,,,,,,,,,,,,,l,0,1.0793,"[""0.240"",""0.407"",""0.862"",""0.508""]","[1,1,1,0]",0,15,15,15,1,0,0,,,1,FALSE,,,,,,,,,,,,,,,,,,,,,,,,,,,,,,,
,5d877c37c3e7ca001816fb8f,627c6fe868045f95450e342a,2022-05-12_12h25.02.578,classification_task,2021.2.3,Win32,59.99520038,627c6715c52fd12f31907bcf,,,,,,,,,,,,,,,,,,,,,,,l,0,0.8837,"[""0.205"",""0.444"",""0.935"",""0.508""]","[1,1,1,0]",0,16,16,16,1,0,1,,,1,FALSE,,,,,,,,,,,,,,,,,,,,,,,,,,,,,,,
,5d877c37c3e7ca001816fb8f,627c6fe868045f95450e342a,2022-05-12_12h25.02.578,classification_task,2021.2.3,Win32,59.99520038,627c6715c52fd12f31907bcf,,,,,,,,,,,,,,,,,,,,,,,a,1,0.7592,"[""0.497"",""0.407"",""0.862"",""0.899""]","[0,1,1,1]",0,17,17,17,1,0,0,,,1,FALSE,,,,,,,,,,,,,,,,,,,,,,,,,,,,,,,
,5d877c37c3e7ca001816fb8f,627c6fe868045f95450e342a,2022-05-12_12h25.02.578,classification_task,2021.2.3,Win32,59.99520038,627c6715c52fd12f31907bcf,,,,,,,,,,,,,,,,,,,,,,,a,1,1.1271,"[""0.205"",""0.492"",""0.935"",""0.972""]","[1,0,1,1]",0,18,18,18,1,0,1,,,1,FALSE,,,,,,,,,,,,,,,,,,,,,,,,,,,,,,,
,5d877c37c3e7ca001816fb8f,627c6fe868045f95450e342a,2022-05-12_12h25.02.578,classification_task,2021.2.3,Win32,59.99520038,627c6715c52fd12f31907bcf,,,,,,,,,,,,,,,,,,,,,,,a,1,0.8425,"[""0.240"",""0.407"",""0.862"",""0.802""]","[1,1,1,0]",0,19,19,19,1,0,0,,,1,FALSE,,,,,,,,,,,,,,,,,,,,,,,,,,,,,,,
,5d877c37c3e7ca001816fb8f,627c6fe868045f95450e342a,2022-05-12_12h25.02.578,classification_task,2021.2.3,Win32,59.99520038,627c6715c52fd12f31907bcf,,,,,,,,,,,,,,,,,,,,,,,l,1,1.2063,"[""0.049"",""0.154"",""0.567"",""0.296""]","[1,1,1,0]",0,20,20,20,1,1,1,,,1,FALSE,,,,,,,,,,,,,,,,,,,,,,,,,,,,,,,
,5d877c37c3e7ca001816fb8f,627c6fe868045f95450e342a,2022-05-12_12h25.02.578,classification_task,2021.2.3,Win32,59.99520038,627c6715c52fd12f31907bcf,,,,,,,,,,,,,,,,,,,,,,,l,1,0.5076,"[""0.049"",""0.154"",""0.489"",""0.744""]","[1,1,0,1]",0,21,21,21,1,1,1,,,1,FALSE,,,,,,,,,,,,,,,,,,,,,,,,,,,,,,,
,5d877c37c3e7ca001816fb8f,627c6fe868045f95450e342a,2022-05-12_12h25.02.578,classification_task,2021.2.3,Win32,59.99520038,627c6715c52fd12f31907bcf,,,,,,,,,,,,,,,,,,,,,,,l,0,1.2898,"[""0.240"",""0.407"",""0.779"",""0.899""]","[1,1,0,1]",0,22,22,22,1,0,0,,,1,FALSE,,,,,,,,,,,,,,,,,,,,,,,,,,,,,,,
,5d877c37c3e7ca001816fb8f,627c6fe868045f95450e342a,2022-05-12_12h25.02.578,classification_task,2021.2.3,Win32,59.99520038,627c6715c52fd12f31907bcf,,,,,,,,,,,,,,,,,,,,,,,l,1,1.842,"[""0.049"",""0.489"",""0.567"",""0.744""]","[1,0,1,1]",0,23,23,23,1,1,1,,,1,FALSE,,,,,,,,,,,,,,,,,,,,,,,,,,,,,,,
,5d877c37c3e7ca001816fb8f,627c6fe868045f95450e342a,2022-05-12_12h25.02.578,classification_task,2021.2.3,Win32,59.99520038,627c6715c52fd12f31907bcf,,,,,,,,,,,,,,,,,,,,,,,l,1,1.332,"[""0.793"",""0.365"",""0.638"",""0.707""]","[0,1,1,1]",0,24,24,24,1,1,0,,,1,FALSE,,,,,,,,,,,,,,,,,,,,,,,,,,,,,,,
,5d877c37c3e7ca001816fb8f,627c6fe868045f95450e342a,2022-05-12_12h25.02.578,classification_task,2021.2.3,Win32,59.99520038,627c6715c52fd12f31907bcf,,,,,,,,,,,,,,,,,,,,,,,l,0,2.0628,"[""0.205"",""0.444"",""0.489"",""0.972""]","[1,1,0,1]",0,25,25,25,1,0,1,,,1,FALSE,,,,,,,,,,,,,,,,,,,,,,,,,,,,,,,
,5d877c37c3e7ca001816fb8f,627c6fe868045f95450e342a,2022-05-12_12h25.02.578,classification_task,2021.2.3,Win32,59.99520038,627c6715c52fd12f31907bcf,,,,,,,,,,,,,,,,,,,,,,,a,1,0.9929,"[""0.779"",""0.444"",""0.935"",""0.972""]","[0,1,1,1]",0,26,26,26,1,0,1,,,1,FALSE,,,,,,,,,,,,,,,,,,,,,,,,,,,,,,,
,5d877c37c3e7ca001816fb8f,627c6fe868045f95450e342a,2022-05-12_12h25.02.578,classification_task,2021.2.3,Win32,59.99520038,627c6715c52fd12f31907bcf,,,,,,,,,,,,,,,,,,,,,,,a,0,5.6829,"[""0.107"",""0.365"",""0.489"",""0.707""]","[1,1,0,1]",0,27,27,27,1,1,0,,,1,FALSE,,,,,,,,,,,,,,,,,,,,,,,,,,,,,,,
,5d877c37c3e7ca001816fb8f,627c6fe868045f95450e342a,2022-05-12_12h25.02.578,classification_task,2021.2.3,Win32,59.99520038,627c6715c52fd12f31907bcf,,,,,,,,,,,,,,,,,,,,,,,a,0,2.6499,"[""0.323"",""0.154"",""0.567"",""0.744""]","[0,1,1,1]",0,28,28,28,1,1,1,,,1,FALSE,,,,,,,,,,,,,,,,,,,,,,,,,,,,,,,
,5d877c37c3e7ca001816fb8f,627c6fe868045f95450e342a,2022-05-12_12h25.02.578,classification_task,2021.2.3,Win32,59.99520038,627c6715c52fd12f31907bcf,,,,,,,,,,,,,,,,,,,,,,,a,0,1.0848,"[""0.107"",""0.489"",""0.638"",""0.707""]","[1,0,1,1]",0,29,29,29,1,1,0,,,1,FALSE,,,,,,,,,,,,,,,,,,,,,,,,,,,,,,,
,5d877c37c3e7ca001816fb8f,627c6fe868045f95450e342a,2022-05-12_12h25.02.578,classification_task,2021.2.3,Win32,59.99520038,627c6715c52fd12f31907bcf,,,,,,,,,,,,,,,,,,,,,,,l,1,1.5908,"[""0.107"",""0.365"",""0.638"",""0.492""]","[1,1,1,0]",0,30,30,30,1,1,0,,,1,FALSE,,,,,,,,,,,,,,,,,,,,,,,,,,,,,,,
,5d877c37c3e7ca001816fb8f,627c6fe868045f95450e342a,2022-05-12_12h25.02.578,classification_task,2021.2.3,Win32,59.99520038,627c6715c52fd12f31907bcf,,,,,,,,,,,,,,,,,,,,,,,a,1,0.7816,"[""0.240"",""0.802"",""0.862"",""0.899""]","[1,0,1,1]",0,31,31,31,1,0,0,,,1,FALSE,,,,,,,,,,,,,,,,,,,,,,,,,,,,,,,
,5d877c37c3e7ca001816fb8f,627c6fe868045f95450e342a,2022-05-12_12h25.02.578,classification_task,2021.2.3,Win32,59.99520038,627c6715c52fd12f31907bcf,,,,,,,,,,,,,,,,,,,,,,,l,0,3.34,"[""0.240"",""0.407"",""0.793"",""0.899""]","[1,1,0,1]",0,32,32,32,1,0,0,,,1,FALSE,,,,,,,,,,,,,,,,,,,,,,,,,,,,,,,
,5d877c37c3e7ca001816fb8f,627c6fe868045f95450e342a,2022-05-12_12h25.02.578,classification_task,2021.2.3,Win32,59.99520038,627c6715c52fd12f31907bcf,,,,,,,,,,,,,,,,,,,,,,,l,0,1.4706,"[""0.205"",""0.444"",""0.935"",""0.494""]","[1,1,1,0]",0,33,33,33,1,0,1,,,1,FALSE,,,,,,,,,,,,,,,,,,,,,,,,,,,,,,,
,5d877c37c3e7ca001816fb8f,627c6fe868045f95450e342a,2022-05-12_12h25.02.578,classification_task,2021.2.3,Win32,59.99520038,627c6715c52fd12f31907bcf,,,,,,,,,,,,,,,,,,,,,,,a,1,0.8285,"[""0.205"",""0.803"",""0.935"",""0.972""]","[1,0,1,1]",0,34,34,34,1,0,1,,,1,FALSE,,,,,,,,,,,,,,,,,,,,,,,,,,,,,,,
,5d877c37c3e7ca001816fb8f,627c6fe868045f95450e342a,2022-05-12_12h25.02.578,classification_task,2021.2.3,Win32,59.99520038,627c6715c52fd12f31907bcf,,,,,,,,,,,,,,,,,,,,,,,a,1,0.6374,"[""0.240"",""0.492"",""0.862"",""0.899""]","[1,0,1,1]",0,35,35,35,1,0,0,,,1,FALSE,,,,,,,,,,,,,,,,,,,,,,,,,,,,,,,
,5d877c37c3e7ca001816fb8f,627c6fe868045f95450e342a,2022-05-12_12h25.02.578,classification_task,2021.2.3,Win32,59.99520038,627c6715c52fd12f31907bcf,,,,,,,,,,,,,,,,,,,,,,,l,1,0.9482,"[""0.049"",""0.154"",""0.567"",""0.290""]","[1,1,1,0]",0,36,36,36,1,1,1,,,1,FALSE,,,,,,,,,,,,,,,,,,,,,,,,,,,,,,,
,5d877c37c3e7ca001816fb8f,627c6fe868045f95450e342a,2022-05-12_12h25.02.578,classification_task,2021.2.3,Win32,59.99520038,627c6715c52fd12f31907bcf,,,,,,,,,,,,,,,,,,,,,,,l,1,0.7934,"[""0.049"",""0.154"",""0.508"",""0.744""]","[1,1,0,1]",0,37,37,37,1,1,1,,,1,FALSE,,,,,,,,,,,,,,,,,,,,,,,,,,,,,,,
,5d877c37c3e7ca001816fb8f,627c6fe868045f95450e342a,2022-05-12_12h25.02.578,classification_task,2021.2.3,Win32,59.99520038,627c6715c52fd12f31907bcf,,,,,,,,,,,,,,,,,,,,,,,l,0,1.8278,"[""0.240"",""0.407"",""0.862"",""0.286""]","[1,1,1,0]",0,38,38,38,1,0,0,,,1,FALSE,,,,,,,,,,,,,,,,,,,,,,,,,,,,,,,
,5d877c37c3e7ca001816fb8f,627c6fe868045f95450e342a,2022-05-12_12h25.02.578,classification_task,2021.2.3,Win32,59.99520038,627c6715c52fd12f31907bcf,,,,,,,,,,,,,,,,,,,,,,,l,1,0.983,"[""0.286"",""0.154"",""0.567"",""0.744""]","[0,1,1,1]",0,39,39,39,1,1,1,,,1,FALSE,,,,,,,,,,,,,,,,,,,,,,,,,,,,,,,
,5d877c37c3e7ca001816fb8f,627c6fe868045f95450e342a,2022-05-12_12h25.02.578,classification_task,2021.2.3,Win32,59.99520038,627c6715c52fd12f31907bcf,,,,,,,,,,,,,,,,,,,,,,,a,1,1.5468,"[""0.205"",""0.444"",""0.494"",""0.972""]","[1,1,0,1]",0,40,40,40,1,0,1,,,1,FALSE,,,,,,,,,,,,,,,,,,,,,,,,,,,,,,,
,5d877c37c3e7ca001816fb8f,627c6fe868045f95450e342a,2022-05-12_12h25.02.578,classification_task,2021.2.3,Win32,59.99520038,627c6715c52fd12f31907bcf,,,,,,,,,,,,,,,,,,,,,,,a,0,0.8771,"[""0.049"",""0.803"",""0.567"",""0.744""]","[1,0,1,1]",0,41,41,41,1,1,1,,,1,FALSE,,,,,,,,,,,,,,,,,,,,,,,,,,,,,,,
,5d877c37c3e7ca001816fb8f,627c6fe868045f95450e342a,2022-05-12_12h25.02.578,classification_task,2021.2.3,Win32,59.99520038,627c6715c52fd12f31907bcf,,,,,,,,,,,,,,,,,,,,,,,l,1,0.76,"[""0.107"",""0.365"",""0.803"",""0.707""]","[1,1,0,1]",0,42,42,42,1,1,0,,,1,FALSE,,,,,,,,,,,,,,,,,,,,,,,,,,,,,,,
,5d877c37c3e7ca001816fb8f,627c6fe868045f95450e342a,2022-05-12_12h25.02.578,classification_task,2021.2.3,Win32,59.99520038,627c6715c52fd12f31907bcf,,,,,,,,,,,,,,,,,,,,,,,l,1,0.8919,"[""0.803"",""0.365"",""0.638"",""0.707""]","[0,1,1,1]",0,43,43,43,1,1,0,,,1,FALSE,,,,,,,,,,,,,,,,,,,,,,,,,,,,,,,
,5d877c37c3e7ca001816fb8f,627c6fe868045f95450e342a,2022-05-12_12h25.02.578,classification_task,2021.2.3,Win32,59.99520038,627c6715c52fd12f31907bcf,,,,,,,,,,,,,,,,,,,,,,,a,1,0.889,"[""0.779"",""0.444"",""0.935"",""0.972""]","[0,1,1,1]",0,44,44,44,1,0,1,,,1,FALSE,,,,,,,,,,,,,,,,,,,,,,,,,,,,,,,
,5d877c37c3e7ca001816fb8f,627c6fe868045f95450e342a,2022-05-12_12h25.02.578,classification_task,2021.2.3,Win32,59.99520038,627c6715c52fd12f31907bcf,,,,,,,,,,,,,,,,,,,,,,,a,0,0.6958,"[""0.107"",""0.510"",""0.638"",""0.707""]","[1,0,1,1]",0,45,45,45,1,1,0,,,1,FALSE,,,,,,,,,,,,,,,,,,,,,,,,,,,,,,,
,5d877c37c3e7ca001816fb8f,627c6fe868045f95450e342a,2022-05-12_12h25.02.578,classification_task,2021.2.3,Win32,59.99520038,627c6715c52fd12f31907bcf,,,,,,,,,,,,,,,,,,,,,,,a,1,0.6517,"[""0.323"",""0.407"",""0.862"",""0.899""]","[0,1,1,1]",0,46,46,46,1,0,0,,,1,FALSE,,,,,,,,,,,,,,,,,,,,,,,,,,,,,,,
,5d877c37c3e7ca001816fb8f,627c6fe868045f95450e342a,2022-05-12_12h25.02.578,classification_task,2021.2.3,Win32,59.99520038,627c6715c52fd12f31907bcf,,,,,,,,,,,,,,,,,,,,,,,l,1,1.0577,"[""0.107"",""0.365"",""0.638"",""0.296""]","[1,1,1,0]",0,47,47,47,1,1,0,,,1,FALSE,,,,,,,,,,,,,,,,,,,,,,,,,,,,,,,
,5d877c37c3e7ca001816fb8f,627c6fe868045f95450e342a,2022-05-12_12h25.02.578,classification_task,2021.2.3,Win32,59.99520038,627c6715c52fd12f31907bcf,,,,,,,,,,,,,,,,,,,,,,,a,0,1.2488,"[""0.494"",""0.365"",""0.638"",""0.707""]","[0,1,1,1]",0,48,48,48,1,1,0,,,1,FALSE,,,,,,,,,,,,,,,,,,,,,,,,,,,,,,,
,5d877c37c3e7ca001816fb8f,627c6fe868045f95450e342a,2022-05-12_12h25.02.578,classification_task,2021.2.3,Win32,59.99520038,627c6715c52fd12f31907bcf,,,,,,,,,,,,,,,,,,,,,,,a,1,0.6983,"[""0.240"",""0.323"",""0.862"",""0.899""]","[1,0,1,1]",0,49,49,49,1,0,0,,,1,FALSE,,,,,,,,,,,,,,,,,,,,,,,,,,,,,,,
,5d877c37c3e7ca001816fb8f,627c6fe868045f95450e342a,2022-05-12_12h25.02.578,classification_task,2021.2.3,Win32,59.99520038,627c6715c52fd12f31907bcf,,,,,,,,,,,,,,,,,,,,,,,a,0,0.7378,"[""0.107"",""0.365"",""0.494"",""0.707""]","[1,1,0,1]",0,50,50,50,1,1,0,,,1,FALSE,,,,,,,,,,,,,,,,,,,,,,,,,,,,,,,
,5d877c37c3e7ca001816fb8f,627c6fe868045f95450e342a,2022-05-12_12h25.02.578,classification_task,2021.2.3,Win32,59.99520038,627c6715c52fd12f31907bcf,,,,,,,,,,,,,,,,,,,,,,,a,1,0.8135,"[""0.323"",""0.444"",""0.935"",""0.972""]","[0,1,1,1]",0,51,51,51,1,0,1,,,1,FALSE,,,,,,,,,,,,,,,,,,,,,,,,,,,,,,,
,5d877c37c3e7ca001816fb8f,627c6fe868045f95450e342a,2022-05-12_12h25.02.578,classification_task,2021.2.3,Win32,59.99520038,627c6715c52fd12f31907bcf,,,,,,,,,,,,,,,,,,,,,,,l,0,0.8146,"[""0.205"",""0.444"",""0.935"",""0.802""]","[1,1,1,0]",0,52,52,52,1,0,1,,,1,FALSE,,,,,,,,,,,,,,,,,,,,,,,,,,,,,,,
,5d877c37c3e7ca001816fb8f,627c6fe868045f95450e342a,2022-05-12_12h25.02.578,classification_task,2021.2.3,Win32,59.99520038,627c6715c52fd12f31907bcf,,,,,,,,,,,,,,,,,,,,,,,l,1,0.7609,"[""0.107"",""0.365"",""0.638"",""0.494""]","[1,1,1,0]",0,53,53,53,1,1,0,,,1,FALSE,,,,,,,,,,,,,,,,,,,,,,,,,,,,,,,
,5d877c37c3e7ca001816fb8f,627c6fe868045f95450e342a,2022-05-12_12h25.02.578,classification_task,2021.2.3,Win32,59.99520038,627c6715c52fd12f31907bcf,,,,,,,,,,,,,,,,,,,,,,,a,1,0.7616,"[""0.240"",""0.407"",""0.862"",""0.290""]","[1,1,1,0]",0,54,54,54,1,0,0,,,1,FALSE,,,,,,,,,,,,,,,,,,,,,,,,,,,,,,,
,5d877c37c3e7ca001816fb8f,627c6fe868045f95450e342a,2022-05-12_12h25.02.578,classification_task,2021.2.3,Win32,59.99520038,627c6715c52fd12f31907bcf,,,,,,,,,,,,,,,,,,,,,,,l,1,1.0817,"[""0.296"",""0.154"",""0.567"",""0.744""]","[0,1,1,1]",0,55,55,55,1,1,1,,,1,FALSE,,,,,,,,,,,,,,,,,,,,,,,,,,,,,,,
,5d877c37c3e7ca001816fb8f,627c6fe868045f95450e342a,2022-05-12_12h25.02.578,classification_task,2021.2.3,Win32,59.99520038,627c6715c52fd12f31907bcf,,,,,,,,,,,,,,,,,,,,,,,a,1,1.2435,"[""0.205"",""0.444"",""0.508"",""0.972""]","[1,1,0,1]",0,56,56,56,1,0,1,,,1,FALSE,,,,,,,,,,,,,,,,,,,,,,,,,,,,,,,
,5d877c37c3e7ca001816fb8f,627c6fe868045f95450e342a,2022-05-12_12h25.02.578,classification_task,2021.2.3,Win32,59.99520038,627c6715c52fd12f31907bcf,,,,,,,,,,,,,,,,,,,,,,,a,1,1.3229,"[""0.240"",""0.407"",""0.802"",""0.899""]","[1,1,0,1]",0,57,57,57,1,0,0,,,1,FALSE,,,,,,,,,,,,,,,,,,,,,,,,,,,,,,,
,5d877c37c3e7ca001816fb8f,627c6fe868045f95450e342a,2022-05-12_12h25.02.578,classification_task,2021.2.3,Win32,59.99520038,627c6715c52fd12f31907bcf,,,,,,,,,,,,,,,,,,,,,,,a,0,0.8457,"[""0.107"",""0.803"",""0.638"",""0.707""]","[1,0,1,1]",0,58,58,58,1,1,0,,,1,FALSE,,,,,,,,,,,,,,,,,,,,,,,,,,,,,,,
,5d877c37c3e7ca001816fb8f,627c6fe868045f95450e342a,2022-05-12_12h25.02.578,classification_task,2021.2.3,Win32,59.99520038,627c6715c52fd12f31907bcf,,,,,,,,,,,,,,,,,,,,,,,l,1,1.0305,"[""0.049"",""0.154"",""0.802"",""0.744""]","[1,1,0,1]",0,59,59,59,1,1,1,,,1,FALSE,,,,,,,,,,,,,,,,,,,,,,,,,,,,,,,
,5d877c37c3e7ca001816fb8f,627c6fe868045f95450e342a,2022-05-12_12h25.02.578,classification_task,2021.2.3,Win32,59.99520038,627c6715c52fd12f31907bcf,,,,,,,,,,,,,,,,,,,,,,,a,1,1.0851,"[""0.515"",""0.407"",""0.862"",""0.899""]","[0,1,1,1]",0,60,60,60,1,0,0,,,1,FALSE,,,,,,,,,,,,,,,,,,,,,,,,,,,,,,,
,5d877c37c3e7ca001816fb8f,627c6fe868045f95450e342a,2022-05-12_12h25.02.578,classification_task,2021.2.3,Win32,59.99520038,627c6715c52fd12f31907bcf,,,,,,,,,,,,,,,,,,,,,,,l,1,1.2372,"[""0.049"",""0.494"",""0.567"",""0.744""]","[1,0,1,1]",0,61,61,61,1,1,1,,,1,FALSE,,,,,,,,,,,,,,,,,,,,,,,,,,,,,,,
,5d877c37c3e7ca001816fb8f,627c6fe868045f95450e342a,2022-05-12_12h25.02.578,classification_task,2021.2.3,Win32,59.99520038,627c6715c52fd12f31907bcf,,,,,,,,,,,,,,,,,,,,,,,l,1,1.2033,"[""0.049"",""0.154"",""0.567"",""0.793""]","[1,1,1,0]",0,62,62,62,1,1,1,,,1,FALSE,,,,,,,,,,,,,,,,,,,,,,,,,,,,,,,
,5d877c37c3e7ca001816fb8f,627c6fe868045f95450e342a,2022-05-12_12h25.02.578,classification_task,2021.2.3,Win32,59.99520038,627c6715c52fd12f31907bcf,,,,,,,,,,,,,,,,,,,,,,,a,1,0.9116,"[""0.205"",""0.802"",""0.935"",""0.972""]","[1,0,1,1]",0,63,63,63,1,0,1,,,1,FALSE,,,,,,,,,,,,,,,,,,,,,,,,,,,,,,,
,5d877c37c3e7ca001816fb8f,627c6fe868045f95450e342a,2022-05-12_12h25.02.578,classification_task,2021.2.3,Win32,59.99520038,627c6715c52fd12f31907bcf,,,,,,,,,,,,,,,,,,,,,,,,,,,,,,,,,,,,,,,0, ,,0,3.58768739,158.0176,0,2,2,2,1,2,3,,,,,,,,,,,,,,,,,,
,5d877c37c3e7ca001816fb8f,627c6fe868045f95450e342a,2022-05-12_12h25.02.578,classification_task,2021.2.3,Win32,59.99520038,627c6715c52fd12f31907bcf,,,,,,,,,,,,,,,,,,,,,,,,,,,,,,,,,,,,,,,1,  ,,0,4.069940476,160.6609,0,2,2,2,1,2,3,,,,,,,,,,,,,,,,,,
,5d877c37c3e7ca001816fb8f,627c6fe868045f95450e342a,2022-05-12_12h25.02.578,classification_task,2021.2.3,Win32,59.99520038,627c6715c52fd12f31907bcf,,,,,,,,,,,,,,,,,,,,,,,,,,,,,,,,,,,,,,,2,  ,,0,5.172233245,163.1078,0,2,2,2,1,2,3,,,,,,,,,,,,,,,,,,
,5d877c37c3e7ca001816fb8f,627c6fe868045f95450e342a,2022-05-12_12h25.02.578,classification_task,2021.2.3,Win32,59.99520038,627c6715c52fd12f31907bcf,,,,,,,,,,,,,,,,,,,,,,,,,,,,,,,,,,,,,,,,,,,,,0,2,2,2,1,,3,,,,,,,,,,,,,,,,,,
,5d877c37c3e7ca001816fb8f,627c6fe868045f95450e342a,2022-05-12_12h25.02.578,classification_task,2021.2.3,Win32,59.99520038,627c6715c52fd12f31907bcf,,,,,,,,,,,,,,,,,,,,,,,,,,,,,,,,,,,,,,,,,,,,,,,,,,,,,I believe the aid is a competent performer,,0.7,0,5,749.9964,0,0,0,0,1,0,,,,,
,5d877c37c3e7ca001816fb8f,627c6fe868045f95450e342a,2022-05-12_12h25.02.578,classification_task,2021.2.3,Win32,59.99520038,627c6715c52fd12f31907bcf,,,,,,,,,,,,,,,,,,,,,,,,,,,,,,,,,,,,,,,,,,,,,,,,,,,,,I trust the aid,,0.7,0,5,753.2291,0,0,0,0,1,0,,,,,
,5d877c37c3e7ca001816fb8f,627c6fe868045f95450e342a,2022-05-12_12h25.02.578,classification_task,2021.2.3,Win32,59.99520038,627c6715c52fd12f31907bcf,,,,,,,,,,,,,,,,,,,,,,,,,,,,,,,,,,,,,,,,,,,,,,,,,,,,,I have confidence in the advice given by the aid,,0.7,0,5,754.7226,0,0,0,0,1,0,,,,,
,5d877c37c3e7ca001816fb8f,627c6fe868045f95450e342a,2022-05-12_12h25.02.578,classification_task,2021.2.3,Win32,59.99520038,627c6715c52fd12f31907bcf,,,,,,,,,,,,,,,,,,,,,,,,,,,,,,,,,,,,,,,,,,,,,,,,,,,,,I can depend on the aid,,0.7,0,5,756.1513,0,0,0,0,1,0,,,,,
,5d877c37c3e7ca001816fb8f,627c6fe868045f95450e342a,2022-05-12_12h25.02.578,classification_task,2021.2.3,Win32,59.99520038,627c6715c52fd12f31907bcf,,,,,,,,,,,,,,,,,,,,,,,,,,,,,,,,,,,,,,,,,,,,,,,,,,,,,I can rely on the aid to behave in consistent ways,,0.7,0,5,757.5964,0,0,0,0,1,0,,,,,
,5d877c37c3e7ca001816fb8f,627c6fe868045f95450e342a,2022-05-12_12h25.02.578,classification_task,2021.2.3,Win32,59.99520038,627c6715c52fd12f31907bcf,,,,,,,,,,,,,,,,,,,,,,,,,,,,,,,,,,,,,,,,,,,,,,,,,,,,,I can rely on the aid to do its best every time I take its advice,,0.7,0,5,759.1409,0,0,0,0,1,0,,,,,
,5d877c37c3e7ca001816fb8f,627c6fe868045f95450e342a,2022-05-12_12h25.02.578,classification_task,2021.2.3,Win32,59.99520038,627c6715c52fd12f31907bcf,,,,,,,,,,,,,,,,,,,,,,,,,,,,,,,,,,,,,,,,,,,,,,,,,,,,,"On trials you completed with assistance from the aid, how frequently did you think the aid was correct?",,0.7,0,90%,,0,0,0,0,1,0,,,,,
,5d877c37c3e7ca001816fb8f,627c6fe868045f95450e342a,2022-05-12_12h25.02.578,classification_task,2021.2.3,Win32,59.99520038,627c6715c52fd12f31907bcf,,,,,,,,,,,,,,,,,,,,,,,,,,,,,,,,,,,,,,,,,,,,,,,,,,,,,"On trials you completed without the aid, how frequently did you think you were correct?",,0.7,0,40%,,0,0,0,0,1,0,,,,,
,5d877c37c3e7ca001816fb8f,627c6fe868045f95450e342a,2022-05-12_12h25.02.578,classification_task,2021.2.3,Win32,59.99520038,627c6715c52fd12f31907bcf,,,,,,,,,,,,,,,,,,,,,,,,,,,,,,,,,,,,,,,,,,,,,,,,,,,,,,,,,,,0,0,0,0,1,,,,,,
,5d877c37c3e7ca001816fb8f,627c6fe868045f95450e342a,2022-05-12_12h25.02.578,classification_task,2021.2.3,Win32,59.99520038,627c6715c52fd12f31907bcf,,,,,,,,,,,,,,,,,,,,,,,,,,,,,,,,,,,,,,,,,,,,,,,,,,,,,,,,,,,,,,,,,comma,6.672,797.4298,,
,5d877c37c3e7ca001816fb8f,627c6fe868045f95450e342a,2022-05-12_12h25.02.578,classification_task,2021.2.3,Win32,59.99520038,627c6715c52fd12f31907bcf,,,,,,,,,,,,,,,,,,,,,,,,,,,,,,,,,,,,,,,,,,,,,,,,,,,,,,,,,,,,,,,,,,,,"Mozilla/5.0 (Windows NT 10.0; Win64; x64) AppleWebKit/537.36 (KHTML, like Gecko) Chrome/101.0.4951.54 Safari/537.36",
,5d877c37c3e7ca001816fb8f,627c6fe868045f95450e342a,2022-05-12_12h25.02.578,classification_task,2021.2.3,Win32,59.99520038,627c6715c52fd12f31907bcf,,,,,,,,,,,,,,,,,,,,,,,,,,,,,,,,,,,,,,,,,,,,,,,,,,,,,,,,,,,,,,,,,,,,,HIGHLIGHT
