usingWebGL,participant,session,date,expName,psychopyVersion,OS,frameRate,PROLIFIC_PID,STUDY_ID,SESSION_ID,signatures_friend,signatures_foe,band_ranges_top,band_ranges_bottom,formitemText,formtype,formundefined,formitemWidth,formindex,formresponse,formrt,key_resp_2.keys,key_resp_2.rt,tute_resp.keys,tute_resp.rt,tutorial.thisRepN,tutorial.thisTrialN,tutorial.thisN,tutorial.thisIndex,tutorial.ran,key_resp_4.keys,key_resp_4.rt,key_resp.keys,key_resp.corr,key_resp.rt,lines_presented,is_signal_presented,trials.thisRepN,trials.thisTrialN,trials.thisN,trials.thisIndex,trials.ran,vessel,active_band,lines,is_signal,supported_pos,catch_trial,debrief_formindex,debrief_formitemText,debrief_formtype,debrief_formitemWidth,debrief_formresponse,debrief_formrt,phases.thisRepN,phases.thisTrialN,phases.thisN,phases.thisIndex,phases.ran,phases.order,phase,key_resp_3.keys,trustitemText,trusttype,trustitemWidth,trustindex,trustresponse,trustrt,support_status.thisRepN,support_status.thisTrialN,support_status.thisN,support_status.thisIndex,support_status.ran,support_status.order,key_resp_5.keys,key_resp_5.rt,globalClockTime,userAgent
TRUE,5da903f3b5c28d0017745a1c,001,2022-04-29_01h57.56.326,classification_task,2021.2.3,Win32,59.65875194,5da903f3b5c28d0017745a1c,626b377229c10585ec392f89,626b38007479d2fb10b9a9ba,,,,,,,,,,,,,,,,,,,,,,,,,,,,,,,,,,,,,,,,,,,,,,,,,,,,,,,,,,,,,,,,,,,,
,5da903f3b5c28d0017745a1c,001,2022-04-29_01h57.56.326,classification_task,2021.2.3,Win32,59.65875194,5da903f3b5c28d0017745a1c,626b377229c10585ec392f89,626b38007479d2fb10b9a9ba,"[[""0.304"",""0.344"",""0.830"",""0.868""],[""0.170"",""0.467"",""0.919"",""0.967""]]","[[""0.134"",""0.387"",""0.658"",""0.702""],[""0.097"",""0.225"",""0.577"",""0.767""]]","[1,10]","[100,1000]",Video game experience,,,0.7,0,,,,,,,,,,,,,,,,,,,,,,,,,,,,,,,,,,,,,,,,,,,,,,,,,,,,,,,,,,,
,5da903f3b5c28d0017745a1c,001,2022-04-29_01h57.56.326,classification_task,2021.2.3,Win32,59.65875194,5da903f3b5c28d0017745a1c,626b377229c10585ec392f89,626b38007479d2fb10b9a9ba,,,,,Approximately how many hours did you spend playing video games in the last week?,,,0.7,0,36,,,,,,,,,,,,,,,,,,,,,,,,,,,,,,,,,,,,,,,,,,,,,,,,,,,,,,,,,,
,5da903f3b5c28d0017745a1c,001,2022-04-29_01h57.56.326,classification_task,2021.2.3,Win32,59.65875194,5da903f3b5c28d0017745a1c,626b377229c10585ec392f89,626b38007479d2fb10b9a9ba,,,,,"Which game did you play the most this year? (Enter ""None"" if you didn't play any)",,,0.7,0,FFXIV,,,,,,,,,,,,,,,,,,,,,,,,,,,,,,,,,,,,,,,,,,,,,,,,,,,,,,,,,,
,5da903f3b5c28d0017745a1c,001,2022-04-29_01h57.56.326,classification_task,2021.2.3,Win32,59.65875194,5da903f3b5c28d0017745a1c,626b377229c10585ec392f89,626b38007479d2fb10b9a9ba,,,,,Visual perception,,,0.7,0,,,,,,,,,,,,,,,,,,,,,,,,,,,,,,,,,,,,,,,,,,,,,,,,,,,,,,,,,,,
,5da903f3b5c28d0017745a1c,001,2022-04-29_01h57.56.326,classification_task,2021.2.3,Win32,59.65875194,5da903f3b5c28d0017745a1c,626b377229c10585ec392f89,626b38007479d2fb10b9a9ba,,,,,Do you have any form of color blindness?,,,0.7,0,No,14.2018,,,,,,,,,,,,,,,,,,,,,,,,,,,,,,,,,,,,,,,,,,,,,,,,,,,,,,,,,
,5da903f3b5c28d0017745a1c,001,2022-04-29_01h57.56.326,classification_task,2021.2.3,Win32,59.65875194,5da903f3b5c28d0017745a1c,626b377229c10585ec392f89,626b38007479d2fb10b9a9ba,,,,,Do you use software to change the colour temperature of your screen (e.g. f.lux)?,,,0.7,0,Yes,17.8063,,,,,,,,,,,,,,,,,,,,,,,,,,,,,,,,,,,,,,,,,,,,,,,,,,,,,,,,,
,5da903f3b5c28d0017745a1c,001,2022-04-29_01h57.56.326,classification_task,2021.2.3,Win32,59.65875194,5da903f3b5c28d0017745a1c,626b377229c10585ec392f89,626b38007479d2fb10b9a9ba,,,,,,,,,,,,space,112.0507,space,2.2348,0,0,0,0,1,,,,,,,,,,,,,,,,,,,,,,,,,,,,,,,,,,,,,,,,,,,,,,,,
,5da903f3b5c28d0017745a1c,001,2022-04-29_01h57.56.326,classification_task,2021.2.3,Win32,59.65875194,5da903f3b5c28d0017745a1c,626b377229c10585ec392f89,626b38007479d2fb10b9a9ba,,,,,,,,,,,,,,space,2.3368,1,0,1,0,1,,,,,,,,,,,,,,,,,,,,,,,,,,,,,,,,,,,,,,,,,,,,,,,,
,5da903f3b5c28d0017745a1c,001,2022-04-29_01h57.56.326,classification_task,2021.2.3,Win32,59.65875194,5da903f3b5c28d0017745a1c,626b377229c10585ec392f89,626b38007479d2fb10b9a9ba,,,,,,,,,,,,,,space,5.1563,2,0,2,0,1,,,,,,,,,,,,,,,,,,,,,,,,,,,,,,,,,,,,,,,,,,,,,,,,
,5da903f3b5c28d0017745a1c,001,2022-04-29_01h57.56.326,classification_task,2021.2.3,Win32,59.65875194,5da903f3b5c28d0017745a1c,626b377229c10585ec392f89,626b38007479d2fb10b9a9ba,,,,,,,,,,,,,,space,11.9638,3,0,3,0,1,,,,,,,,,,,,,,,,,,,,,,,,,,,,,,,,,,,,,,,,,,,,,,,,
,5da903f3b5c28d0017745a1c,001,2022-04-29_01h57.56.326,classification_task,2021.2.3,Win32,59.65875194,5da903f3b5c28d0017745a1c,626b377229c10585ec392f89,626b38007479d2fb10b9a9ba,,,,,,,,,,,,,,space,5.2373,4,0,4,0,1,,,,,,,,,,,,,,,,,,,,,,,,,,,,,,,,,,,,,,,,,,,,,,,,
,5da903f3b5c28d0017745a1c,001,2022-04-29_01h57.56.326,classification_task,2021.2.3,Win32,59.65875194,5da903f3b5c28d0017745a1c,626b377229c10585ec392f89,626b38007479d2fb10b9a9ba,,,,,,,,,,,,,,,,,,,,,space,78.14,a,0,9.5114,"[""0.270"",""0.387"",""0.658"",""0.702""]","[0,1,1,1]",0,0,0,0,1,1,0,,,1,FALSE,,,,,,,,,,,,,,,,,,,,,,,,,,,,,,
,5da903f3b5c28d0017745a1c,001,2022-04-29_01h57.56.326,classification_task,2021.2.3,Win32,59.65875194,5da903f3b5c28d0017745a1c,626b377229c10585ec392f89,626b38007479d2fb10b9a9ba,,,,,,,,,,,,,,,,,,,,,,,l,1,4.973,"[""0.097"",""0.533"",""0.577"",""0.767""]","[1,0,1,1]",0,1,1,1,1,1,1,,,1,FALSE,,,,,,,,,,,,,,,,,,,,,,,,,,,,,,
,5da903f3b5c28d0017745a1c,001,2022-04-29_01h57.56.326,classification_task,2021.2.3,Win32,59.65875194,5da903f3b5c28d0017745a1c,626b377229c10585ec392f89,626b38007479d2fb10b9a9ba,,,,,,,,,,,,,,,,,,,,,,,l,1,3.1096,"[""0.134"",""0.387"",""0.658"",""0.510""]","[1,1,1,0]",0,2,2,2,1,1,0,,,1,FALSE,,,,,,,,,,,,,,,,,,,,,,,,,,,,,,
,5da903f3b5c28d0017745a1c,001,2022-04-29_01h57.56.326,classification_task,2021.2.3,Win32,59.65875194,5da903f3b5c28d0017745a1c,626b377229c10585ec392f89,626b38007479d2fb10b9a9ba,,,,,,,,,,,,,,,,,,,,,,,l,0,6.2843,"[""0.170"",""0.467"",""0.919"",""0.049""]","[1,1,1,0]",0,3,3,3,1,0,1,,,1,FALSE,,,,,,,,,,,,,,,,,,,,,,,,,,,,,,
,5da903f3b5c28d0017745a1c,001,2022-04-29_01h57.56.326,classification_task,2021.2.3,Win32,59.65875194,5da903f3b5c28d0017745a1c,626b377229c10585ec392f89,626b38007479d2fb10b9a9ba,,,,,,,,,,,,,,,,,,,,,,,a,1,7.0714,"[""0.170"",""0.044"",""0.919"",""0.967""]","[1,0,1,1]",0,4,4,4,1,0,1,,,1,FALSE,,,,,,,,,,,,,,,,,,,,,,,,,,,,,,
,5da903f3b5c28d0017745a1c,001,2022-04-29_01h57.56.326,classification_task,2021.2.3,Win32,59.65875194,5da903f3b5c28d0017745a1c,626b377229c10585ec392f89,626b38007479d2fb10b9a9ba,,,,,,,,,,,,,,,,,,,,,,,a,1,3.6328,"[""0.170"",""0.467"",""0.038"",""0.967""]","[1,1,0,1]",0,5,5,5,1,0,1,,,1,FALSE,,,,,,,,,,,,,,,,,,,,,,,,,,,,,,
,5da903f3b5c28d0017745a1c,001,2022-04-29_01h57.56.326,classification_task,2021.2.3,Win32,59.65875194,5da903f3b5c28d0017745a1c,626b377229c10585ec392f89,626b38007479d2fb10b9a9ba,,,,,,,,,,,,,,,,,,,,,,,a,1,3.7328,"[""0.304"",""0.344"",""0.533"",""0.868""]","[1,1,0,1]",0,6,6,6,1,0,0,,,1,FALSE,,,,,,,,,,,,,,,,,,,,,,,,,,,,,,
,5da903f3b5c28d0017745a1c,001,2022-04-29_01h57.56.326,classification_task,2021.2.3,Win32,59.65875194,5da903f3b5c28d0017745a1c,626b377229c10585ec392f89,626b38007479d2fb10b9a9ba,,,,,,,,,,,,,,,,,,,,,,,l,1,3.3992,"[""0.097"",""0.225"",""0.538"",""0.767""]","[1,1,0,1]",0,7,7,7,1,1,1,,,1,FALSE,,,,,,,,,,,,,,,,,,,,,,,,,,,,,,
,5da903f3b5c28d0017745a1c,001,2022-04-29_01h57.56.326,classification_task,2021.2.3,Win32,59.65875194,5da903f3b5c28d0017745a1c,626b377229c10585ec392f89,626b38007479d2fb10b9a9ba,,,,,,,,,,,,,,,,,,,,,,,l,0,2.0106,"[""0.304"",""0.344"",""0.830"",""0.038""]","[1,1,1,0]",0,8,8,8,1,0,0,,,1,FALSE,,,,,,,,,,,,,,,,,,,,,,,,,,,,,,
,5da903f3b5c28d0017745a1c,001,2022-04-29_01h57.56.326,classification_task,2021.2.3,Win32,59.65875194,5da903f3b5c28d0017745a1c,626b377229c10585ec392f89,626b38007479d2fb10b9a9ba,,,,,,,,,,,,,,,,,,,,,,,a,1,4.98,"[""0.049"",""0.467"",""0.919"",""0.967""]","[0,1,1,1]",0,9,9,9,1,0,1,,,1,FALSE,,,,,,,,,,,,,,,,,,,,,,,,,,,,,,
,5da903f3b5c28d0017745a1c,001,2022-04-29_01h57.56.326,classification_task,2021.2.3,Win32,59.65875194,5da903f3b5c28d0017745a1c,626b377229c10585ec392f89,626b38007479d2fb10b9a9ba,,,,,,,,,,,,,,,,,,,,,,,l,1,7.8866,"[""0.097"",""0.225"",""0.577"",""0.426""]","[1,1,1,0]",0,10,10,10,1,1,1,,,1,FALSE,,,,,,,,,,,,,,,,,,,,,,,,,,,,,,
,5da903f3b5c28d0017745a1c,001,2022-04-29_01h57.56.326,classification_task,2021.2.3,Win32,59.65875194,5da903f3b5c28d0017745a1c,626b377229c10585ec392f89,626b38007479d2fb10b9a9ba,,,,,,,,,,,,,,,,,,,,,,,l,1,4.5505,"[""0.134"",""0.270"",""0.658"",""0.702""]","[1,0,1,1]",0,11,11,11,1,1,0,,,1,FALSE,,,,,,,,,,,,,,,,,,,,,,,,,,,,,,
,5da903f3b5c28d0017745a1c,001,2022-04-29_01h57.56.326,classification_task,2021.2.3,Win32,59.65875194,5da903f3b5c28d0017745a1c,626b377229c10585ec392f89,626b38007479d2fb10b9a9ba,,,,,,,,,,,,,,,,,,,,,,,a,1,7.7875,"[""0.304"",""0.538"",""0.830"",""0.868""]","[1,0,1,1]",0,12,12,12,1,0,0,,,1,FALSE,,,,,,,,,,,,,,,,,,,,,,,,,,,,,,
,5da903f3b5c28d0017745a1c,001,2022-04-29_01h57.56.326,classification_task,2021.2.3,Win32,59.65875194,5da903f3b5c28d0017745a1c,626b377229c10585ec392f89,626b38007479d2fb10b9a9ba,,,,,,,,,,,,,,,,,,,,,,,a,1,5.3512,"[""0.049"",""0.344"",""0.830"",""0.868""]","[0,1,1,1]",0,13,13,13,1,0,0,,,1,FALSE,,,,,,,,,,,,,,,,,,,,,,,,,,,,,,
,5da903f3b5c28d0017745a1c,001,2022-04-29_01h57.56.326,classification_task,2021.2.3,Win32,59.65875194,5da903f3b5c28d0017745a1c,626b377229c10585ec392f89,626b38007479d2fb10b9a9ba,,,,,,,,,,,,,,,,,,,,,,,l,1,6.4553,"[""0.134"",""0.387"",""0.270"",""0.702""]","[1,1,0,1]",0,14,14,14,1,1,0,,,1,FALSE,,,,,,,,,,,,,,,,,,,,,,,,,,,,,,
,5da903f3b5c28d0017745a1c,001,2022-04-29_01h57.56.326,classification_task,2021.2.3,Win32,59.65875194,5da903f3b5c28d0017745a1c,626b377229c10585ec392f89,626b38007479d2fb10b9a9ba,,,,,,,,,,,,,,,,,,,,,,,l,1,6.1004,"[""0.049"",""0.225"",""0.577"",""0.767""]","[0,1,1,1]",0,15,15,15,1,1,1,,,1,FALSE,,,,,,,,,,,,,,,,,,,,,,,,,,,,,,
,5da903f3b5c28d0017745a1c,001,2022-04-29_01h57.56.326,classification_task,2021.2.3,Win32,59.65875194,5da903f3b5c28d0017745a1c,626b377229c10585ec392f89,626b38007479d2fb10b9a9ba,,,,,,,,,,,,,,,,,,,,,,,a,1,5.1025,"[""0.170"",""0.467"",""0.919"",""0.041""]","[1,1,1,0]",0,16,16,16,1,0,1,,,1,FALSE,,,,,,,,,,,,,,,,,,,,,,,,,,,,,,
,5da903f3b5c28d0017745a1c,001,2022-04-29_01h57.56.326,classification_task,2021.2.3,Win32,59.65875194,5da903f3b5c28d0017745a1c,626b377229c10585ec392f89,626b38007479d2fb10b9a9ba,,,,,,,,,,,,,,,,,,,,,,,l,1,3.4164,"[""0.097"",""0.225"",""0.577"",""0.612""]","[1,1,1,0]",0,17,17,17,1,1,1,,,1,FALSE,,,,,,,,,,,,,,,,,,,,,,,,,,,,,,
,5da903f3b5c28d0017745a1c,001,2022-04-29_01h57.56.326,classification_task,2021.2.3,Win32,59.65875194,5da903f3b5c28d0017745a1c,626b377229c10585ec392f89,626b38007479d2fb10b9a9ba,,,,,,,,,,,,,,,,,,,,,,,a,1,5.5363,"[""0.170"",""0.467"",""0.038"",""0.967""]","[1,1,0,1]",0,18,18,18,1,0,1,,,1,FALSE,,,,,,,,,,,,,,,,,,,,,,,,,,,,,,
,5da903f3b5c28d0017745a1c,001,2022-04-29_01h57.56.326,classification_task,2021.2.3,Win32,59.65875194,5da903f3b5c28d0017745a1c,626b377229c10585ec392f89,626b38007479d2fb10b9a9ba,,,,,,,,,,,,,,,,,,,,,,,a,1,9.4519,"[""0.270"",""0.344"",""0.830"",""0.868""]","[0,1,1,1]",0,19,19,19,1,0,0,,,1,FALSE,,,,,,,,,,,,,,,,,,,,,,,,,,,,,,
,5da903f3b5c28d0017745a1c,001,2022-04-29_01h57.56.326,classification_task,2021.2.3,Win32,59.65875194,5da903f3b5c28d0017745a1c,626b377229c10585ec392f89,626b38007479d2fb10b9a9ba,,,,,,,,,,,,,,,,,,,,,,,a,1,5.1179,"[""0.304"",""0.344"",""0.033"",""0.868""]","[1,1,0,1]",0,20,20,20,1,0,0,,,1,FALSE,,,,,,,,,,,,,,,,,,,,,,,,,,,,,,
,5da903f3b5c28d0017745a1c,001,2022-04-29_01h57.56.326,classification_task,2021.2.3,Win32,59.65875194,5da903f3b5c28d0017745a1c,626b377229c10585ec392f89,626b38007479d2fb10b9a9ba,,,,,,,,,,,,,,,,,,,,,,,l,1,8.1871,"[""0.134"",""0.387"",""0.426"",""0.702""]","[1,1,0,1]",0,21,21,21,1,1,0,,,1,FALSE,,,,,,,,,,,,,,,,,,,,,,,,,,,,,,
,5da903f3b5c28d0017745a1c,001,2022-04-29_01h57.56.326,classification_task,2021.2.3,Win32,59.65875194,5da903f3b5c28d0017745a1c,626b377229c10585ec392f89,626b38007479d2fb10b9a9ba,,,,,,,,,,,,,,,,,,,,,,,a,1,2.0124,"[""0.304"",""0.426"",""0.830"",""0.868""]","[1,0,1,1]",0,22,22,22,1,0,0,,,1,FALSE,,,,,,,,,,,,,,,,,,,,,,,,,,,,,,
,5da903f3b5c28d0017745a1c,001,2022-04-29_01h57.56.326,classification_task,2021.2.3,Win32,59.65875194,5da903f3b5c28d0017745a1c,626b377229c10585ec392f89,626b38007479d2fb10b9a9ba,,,,,,,,,,,,,,,,,,,,,,,l,1,2.3987,"[""0.612"",""0.387"",""0.658"",""0.702""]","[0,1,1,1]",0,23,23,23,1,1,0,,,1,FALSE,,,,,,,,,,,,,,,,,,,,,,,,,,,,,,
,5da903f3b5c28d0017745a1c,001,2022-04-29_01h57.56.326,classification_task,2021.2.3,Win32,59.65875194,5da903f3b5c28d0017745a1c,626b377229c10585ec392f89,626b38007479d2fb10b9a9ba,,,,,,,,,,,,,,,,,,,,,,,l,1,3.2872,"[""0.134"",""0.387"",""0.658"",""0.044""]","[1,1,1,0]",0,24,24,24,1,1,0,,,1,FALSE,,,,,,,,,,,,,,,,,,,,,,,,,,,,,,
,5da903f3b5c28d0017745a1c,001,2022-04-29_01h57.56.326,classification_task,2021.2.3,Win32,59.65875194,5da903f3b5c28d0017745a1c,626b377229c10585ec392f89,626b38007479d2fb10b9a9ba,,,,,,,,,,,,,,,,,,,,,,,l,1,4.0124,"[""0.031"",""0.225"",""0.577"",""0.767""]","[0,1,1,1]",0,25,25,25,1,1,1,,,1,FALSE,,,,,,,,,,,,,,,,,,,,,,,,,,,,,,
,5da903f3b5c28d0017745a1c,001,2022-04-29_01h57.56.326,classification_task,2021.2.3,Win32,59.65875194,5da903f3b5c28d0017745a1c,626b377229c10585ec392f89,626b38007479d2fb10b9a9ba,,,,,,,,,,,,,,,,,,,,,,,a,1,2.3479,"[""0.170"",""0.049"",""0.919"",""0.967""]","[1,0,1,1]",0,26,26,26,1,0,1,,,1,FALSE,,,,,,,,,,,,,,,,,,,,,,,,,,,,,,
,5da903f3b5c28d0017745a1c,001,2022-04-29_01h57.56.326,classification_task,2021.2.3,Win32,59.65875194,5da903f3b5c28d0017745a1c,626b377229c10585ec392f89,626b38007479d2fb10b9a9ba,,,,,,,,,,,,,,,,,,,,,,,a,1,2.8334,"[""0.038"",""0.467"",""0.919"",""0.967""]","[0,1,1,1]",0,27,27,27,1,0,1,,,1,FALSE,,,,,,,,,,,,,,,,,,,,,,,,,,,,,,
,5da903f3b5c28d0017745a1c,001,2022-04-29_01h57.56.326,classification_task,2021.2.3,Win32,59.65875194,5da903f3b5c28d0017745a1c,626b377229c10585ec392f89,626b38007479d2fb10b9a9ba,,,,,,,,,,,,,,,,,,,,,,,l,1,2.4152,"[""0.134"",""0.042"",""0.658"",""0.702""]","[1,0,1,1]",0,28,28,28,1,1,0,,,1,FALSE,,,,,,,,,,,,,,,,,,,,,,,,,,,,,,
,5da903f3b5c28d0017745a1c,001,2022-04-29_01h57.56.326,classification_task,2021.2.3,Win32,59.65875194,5da903f3b5c28d0017745a1c,626b377229c10585ec392f89,626b38007479d2fb10b9a9ba,,,,,,,,,,,,,,,,,,,,,,,a,1,1.8833,"[""0.304"",""0.344"",""0.830"",""0.033""]","[1,1,1,0]",0,29,29,29,1,0,0,,,1,FALSE,,,,,,,,,,,,,,,,,,,,,,,,,,,,,,
,5da903f3b5c28d0017745a1c,001,2022-04-29_01h57.56.326,classification_task,2021.2.3,Win32,59.65875194,5da903f3b5c28d0017745a1c,626b377229c10585ec392f89,626b38007479d2fb10b9a9ba,,,,,,,,,,,,,,,,,,,,,,,l,1,2.2771,"[""0.097"",""0.225"",""0.044"",""0.767""]","[1,1,0,1]",0,30,30,30,1,1,1,,,1,FALSE,,,,,,,,,,,,,,,,,,,,,,,,,,,,,,
,5da903f3b5c28d0017745a1c,001,2022-04-29_01h57.56.326,classification_task,2021.2.3,Win32,59.65875194,5da903f3b5c28d0017745a1c,626b377229c10585ec392f89,626b38007479d2fb10b9a9ba,,,,,,,,,,,,,,,,,,,,,,,l,1,2.4847,"[""0.097"",""0.533"",""0.577"",""0.767""]","[1,0,1,1]",0,31,31,31,1,1,1,,,1,FALSE,,,,,,,,,,,,,,,,,,,,,,,,,,,,,,
,5da903f3b5c28d0017745a1c,001,2022-04-29_01h57.56.326,classification_task,2021.2.3,Win32,59.65875194,5da903f3b5c28d0017745a1c,626b377229c10585ec392f89,626b38007479d2fb10b9a9ba,,,,,,,,,,,,,,,,,,,,,,,,0,,"[""0.134"",""0.387"",""0.658"",""0.041""]","[1,1,1,0]",0,32,32,32,1,1,0,,,1,FALSE,,,,,,,,,,,,,,,,,,,,,,,,,,,,,,
,5da903f3b5c28d0017745a1c,001,2022-04-29_01h57.56.326,classification_task,2021.2.3,Win32,59.65875194,5da903f3b5c28d0017745a1c,626b377229c10585ec392f89,626b38007479d2fb10b9a9ba,,,,,,,,,,,,,,,,,,,,,,,l,1,7.1527,"[""0.134"",""0.387"",""0.507"",""0.702""]","[1,1,0,1]",0,33,33,33,1,1,0,,,1,FALSE,,,,,,,,,,,,,,,,,,,,,,,,,,,,,,
,5da903f3b5c28d0017745a1c,001,2022-04-29_01h57.56.326,classification_task,2021.2.3,Win32,59.65875194,5da903f3b5c28d0017745a1c,626b377229c10585ec392f89,626b38007479d2fb10b9a9ba,,,,,,,,,,,,,,,,,,,,,,,a,0,7.4786,"[""0.612"",""0.387"",""0.658"",""0.702""]","[0,1,1,1]",0,34,34,34,1,1,0,,,1,FALSE,,,,,,,,,,,,,,,,,,,,,,,,,,,,,,
,5da903f3b5c28d0017745a1c,001,2022-04-29_01h57.56.326,classification_task,2021.2.3,Win32,59.65875194,5da903f3b5c28d0017745a1c,626b377229c10585ec392f89,626b38007479d2fb10b9a9ba,,,,,,,,,,,,,,,,,,,,,,,l,0,2.5283,"[""0.170"",""0.263"",""0.919"",""0.967""]","[1,0,1,1]",0,35,35,35,1,0,1,,,1,FALSE,,,,,,,,,,,,,,,,,,,,,,,,,,,,,,
,5da903f3b5c28d0017745a1c,001,2022-04-29_01h57.56.326,classification_task,2021.2.3,Win32,59.65875194,5da903f3b5c28d0017745a1c,626b377229c10585ec392f89,626b38007479d2fb10b9a9ba,,,,,,,,,,,,,,,,,,,,,,,,0,,"[""0.041"",""0.467"",""0.919"",""0.967""]","[0,1,1,1]",0,36,36,36,1,0,1,,,1,FALSE,,,,,,,,,,,,,,,,,,,,,,,,,,,,,,
,5da903f3b5c28d0017745a1c,001,2022-04-29_01h57.56.326,classification_task,2021.2.3,Win32,59.65875194,5da903f3b5c28d0017745a1c,626b377229c10585ec392f89,626b38007479d2fb10b9a9ba,,,,,,,,,,,,,,,,,,,,,,,l,0,3.4989,"[""0.304"",""0.344"",""0.830"",""0.510""]","[1,1,1,0]",0,37,37,37,1,0,0,,,1,FALSE,,,,,,,,,,,,,,,,,,,,,,,,,,,,,,
,5da903f3b5c28d0017745a1c,001,2022-04-29_01h57.56.326,classification_task,2021.2.3,Win32,59.65875194,5da903f3b5c28d0017745a1c,626b377229c10585ec392f89,626b38007479d2fb10b9a9ba,,,,,,,,,,,,,,,,,,,,,,,a,0,1.4973,"[""0.507"",""0.225"",""0.577"",""0.767""]","[0,1,1,1]",0,38,38,38,1,1,1,,,1,FALSE,,,,,,,,,,,,,,,,,,,,,,,,,,,,,,
,5da903f3b5c28d0017745a1c,001,2022-04-29_01h57.56.326,classification_task,2021.2.3,Win32,59.65875194,5da903f3b5c28d0017745a1c,626b377229c10585ec392f89,626b38007479d2fb10b9a9ba,,,,,,,,,,,,,,,,,,,,,,,a,1,4.9873,"[""0.031"",""0.344"",""0.830"",""0.868""]","[0,1,1,1]",0,39,39,39,1,0,0,,,1,FALSE,,,,,,,,,,,,,,,,,,,,,,,,,,,,,,
,5da903f3b5c28d0017745a1c,001,2022-04-29_01h57.56.326,classification_task,2021.2.3,Win32,59.65875194,5da903f3b5c28d0017745a1c,626b377229c10585ec392f89,626b38007479d2fb10b9a9ba,,,,,,,,,,,,,,,,,,,,,,,l,1,3.9707,"[""0.097"",""0.621"",""0.577"",""0.767""]","[1,0,1,1]",0,40,40,40,1,1,1,,,1,FALSE,,,,,,,,,,,,,,,,,,,,,,,,,,,,,,
,5da903f3b5c28d0017745a1c,001,2022-04-29_01h57.56.326,classification_task,2021.2.3,Win32,59.65875194,5da903f3b5c28d0017745a1c,626b377229c10585ec392f89,626b38007479d2fb10b9a9ba,,,,,,,,,,,,,,,,,,,,,,,a,1,2.5658,"[""0.170"",""0.467"",""0.919"",""0.621""]","[1,1,1,0]",0,41,41,41,1,0,1,,,1,FALSE,,,,,,,,,,,,,,,,,,,,,,,,,,,,,,
,5da903f3b5c28d0017745a1c,001,2022-04-29_01h57.56.326,classification_task,2021.2.3,Win32,59.65875194,5da903f3b5c28d0017745a1c,626b377229c10585ec392f89,626b38007479d2fb10b9a9ba,,,,,,,,,,,,,,,,,,,,,,,l,1,1.1008,"[""0.097"",""0.225"",""0.533"",""0.767""]","[1,1,0,1]",0,42,42,42,1,1,1,,,1,FALSE,,,,,,,,,,,,,,,,,,,,,,,,,,,,,,
,5da903f3b5c28d0017745a1c,001,2022-04-29_01h57.56.326,classification_task,2021.2.3,Win32,59.65875194,5da903f3b5c28d0017745a1c,626b377229c10585ec392f89,626b38007479d2fb10b9a9ba,,,,,,,,,,,,,,,,,,,,,,,a,0,2.8375,"[""0.134"",""0.038"",""0.658"",""0.702""]","[1,0,1,1]",0,43,43,43,1,1,0,,,1,FALSE,,,,,,,,,,,,,,,,,,,,,,,,,,,,,,
,5da903f3b5c28d0017745a1c,001,2022-04-29_01h57.56.326,classification_task,2021.2.3,Win32,59.65875194,5da903f3b5c28d0017745a1c,626b377229c10585ec392f89,626b38007479d2fb10b9a9ba,,,,,,,,,,,,,,,,,,,,,,,l,0,2.7327,"[""0.304"",""0.038"",""0.830"",""0.868""]","[1,0,1,1]",0,44,44,44,1,0,0,,,1,FALSE,,,,,,,,,,,,,,,,,,,,,,,,,,,,,,
,5da903f3b5c28d0017745a1c,001,2022-04-29_01h57.56.326,classification_task,2021.2.3,Win32,59.65875194,5da903f3b5c28d0017745a1c,626b377229c10585ec392f89,626b38007479d2fb10b9a9ba,,,,,,,,,,,,,,,,,,,,,,,l,1,3.5999,"[""0.097"",""0.225"",""0.577"",""0.031""]","[1,1,1,0]",0,45,45,45,1,1,1,,,1,FALSE,,,,,,,,,,,,,,,,,,,,,,,,,,,,,,
,5da903f3b5c28d0017745a1c,001,2022-04-29_01h57.56.326,classification_task,2021.2.3,Win32,59.65875194,5da903f3b5c28d0017745a1c,626b377229c10585ec392f89,626b38007479d2fb10b9a9ba,,,,,,,,,,,,,,,,,,,,,,,a,1,2.2135,"[""0.304"",""0.344"",""0.533"",""0.868""]","[1,1,0,1]",0,46,46,46,1,0,0,,,1,FALSE,,,,,,,,,,,,,,,,,,,,,,,,,,,,,,
,5da903f3b5c28d0017745a1c,001,2022-04-29_01h57.56.326,classification_task,2021.2.3,Win32,59.65875194,5da903f3b5c28d0017745a1c,626b377229c10585ec392f89,626b38007479d2fb10b9a9ba,,,,,,,,,,,,,,,,,,,,,,,a,1,1.2793,"[""0.170"",""0.467"",""0.033"",""0.967""]","[1,1,0,1]",0,47,47,47,1,0,1,,,1,FALSE,,,,,,,,,,,,,,,,,,,,,,,,,,,,,,
,5da903f3b5c28d0017745a1c,001,2022-04-29_01h57.56.326,classification_task,2021.2.3,Win32,59.65875194,5da903f3b5c28d0017745a1c,626b377229c10585ec392f89,626b38007479d2fb10b9a9ba,,,,,,,,,,,,,,,,,,,,,,,a,1,1.1189,"[""0.304"",""0.344"",""0.830"",""0.612""]","[1,1,1,0]",0,48,48,48,1,0,0,,,1,FALSE,,,,,,,,,,,,,,,,,,,,,,,,,,,,,,
,5da903f3b5c28d0017745a1c,001,2022-04-29_01h57.56.326,classification_task,2021.2.3,Win32,59.65875194,5da903f3b5c28d0017745a1c,626b377229c10585ec392f89,626b38007479d2fb10b9a9ba,,,,,,,,,,,,,,,,,,,,,,,l,1,1.6528,"[""0.533"",""0.387"",""0.658"",""0.702""]","[0,1,1,1]",0,49,49,49,1,1,0,,,1,FALSE,,,,,,,,,,,,,,,,,,,,,,,,,,,,,,
,5da903f3b5c28d0017745a1c,001,2022-04-29_01h57.56.326,classification_task,2021.2.3,Win32,59.65875194,5da903f3b5c28d0017745a1c,626b377229c10585ec392f89,626b38007479d2fb10b9a9ba,,,,,,,,,,,,,,,,,,,,,,,l,1,1.68,"[""0.134"",""0.387"",""0.658"",""0.041""]","[1,1,1,0]",0,50,50,50,1,1,0,,,1,FALSE,,,,,,,,,,,,,,,,,,,,,,,,,,,,,,
,5da903f3b5c28d0017745a1c,001,2022-04-29_01h57.56.326,classification_task,2021.2.3,Win32,59.65875194,5da903f3b5c28d0017745a1c,626b377229c10585ec392f89,626b38007479d2fb10b9a9ba,,,,,,,,,,,,,,,,,,,,,,,l,1,3.2032,"[""0.097"",""0.225"",""0.577"",""0.033""]","[1,1,1,0]",0,51,51,51,1,1,1,,,1,FALSE,,,,,,,,,,,,,,,,,,,,,,,,,,,,,,
,5da903f3b5c28d0017745a1c,001,2022-04-29_01h57.56.326,classification_task,2021.2.3,Win32,59.65875194,5da903f3b5c28d0017745a1c,626b377229c10585ec392f89,626b38007479d2fb10b9a9ba,,,,,,,,,,,,,,,,,,,,,,,a,1,1.1615,"[""0.031"",""0.344"",""0.830"",""0.868""]","[0,1,1,1]",0,52,52,52,1,0,0,,,1,FALSE,,,,,,,,,,,,,,,,,,,,,,,,,,,,,,
,5da903f3b5c28d0017745a1c,001,2022-04-29_01h57.56.326,classification_task,2021.2.3,Win32,59.65875194,5da903f3b5c28d0017745a1c,626b377229c10585ec392f89,626b38007479d2fb10b9a9ba,,,,,,,,,,,,,,,,,,,,,,,l,1,1.7178,"[""0.097"",""0.507"",""0.577"",""0.767""]","[1,0,1,1]",0,53,53,53,1,1,1,,,1,FALSE,,,,,,,,,,,,,,,,,,,,,,,,,,,,,,
,5da903f3b5c28d0017745a1c,001,2022-04-29_01h57.56.326,classification_task,2021.2.3,Win32,59.65875194,5da903f3b5c28d0017745a1c,626b377229c10585ec392f89,626b38007479d2fb10b9a9ba,,,,,,,,,,,,,,,,,,,,,,,l,0,1.2135,"[""0.044"",""0.467"",""0.919"",""0.967""]","[0,1,1,1]",0,54,54,54,1,0,1,,,1,FALSE,,,,,,,,,,,,,,,,,,,,,,,,,,,,,,
,5da903f3b5c28d0017745a1c,001,2022-04-29_01h57.56.326,classification_task,2021.2.3,Win32,59.65875194,5da903f3b5c28d0017745a1c,626b377229c10585ec392f89,626b38007479d2fb10b9a9ba,,,,,,,,,,,,,,,,,,,,,,,a,1,1.2852,"[""0.170"",""0.044"",""0.919"",""0.967""]","[1,0,1,1]",0,55,55,55,1,0,1,,,1,FALSE,,,,,,,,,,,,,,,,,,,,,,,,,,,,,,
,5da903f3b5c28d0017745a1c,001,2022-04-29_01h57.56.326,classification_task,2021.2.3,Win32,59.65875194,5da903f3b5c28d0017745a1c,626b377229c10585ec392f89,626b38007479d2fb10b9a9ba,,,,,,,,,,,,,,,,,,,,,,,a,1,0.7528,"[""0.170"",""0.467"",""0.919"",""0.612""]","[1,1,1,0]",0,56,56,56,1,0,1,,,1,FALSE,,,,,,,,,,,,,,,,,,,,,,,,,,,,,,
,5da903f3b5c28d0017745a1c,001,2022-04-29_01h57.56.326,classification_task,2021.2.3,Win32,59.65875194,5da903f3b5c28d0017745a1c,626b377229c10585ec392f89,626b38007479d2fb10b9a9ba,,,,,,,,,,,,,,,,,,,,,,,l,1,0.9674,"[""0.426"",""0.225"",""0.577"",""0.767""]","[0,1,1,1]",0,57,57,57,1,1,1,,,1,FALSE,,,,,,,,,,,,,,,,,,,,,,,,,,,,,,
,5da903f3b5c28d0017745a1c,001,2022-04-29_01h57.56.326,classification_task,2021.2.3,Win32,59.65875194,5da903f3b5c28d0017745a1c,626b377229c10585ec392f89,626b38007479d2fb10b9a9ba,,,,,,,,,,,,,,,,,,,,,,,l,1,1.5523,"[""0.097"",""0.225"",""0.533"",""0.767""]","[1,1,0,1]",0,58,58,58,1,1,1,,,1,FALSE,,,,,,,,,,,,,,,,,,,,,,,,,,,,,,
,5da903f3b5c28d0017745a1c,001,2022-04-29_01h57.56.326,classification_task,2021.2.3,Win32,59.65875194,5da903f3b5c28d0017745a1c,626b377229c10585ec392f89,626b38007479d2fb10b9a9ba,,,,,,,,,,,,,,,,,,,,,,,a,1,1.0353,"[""0.170"",""0.467"",""0.621"",""0.967""]","[1,1,0,1]",0,59,59,59,1,0,1,,,1,FALSE,,,,,,,,,,,,,,,,,,,,,,,,,,,,,,
,5da903f3b5c28d0017745a1c,001,2022-04-29_01h57.56.326,classification_task,2021.2.3,Win32,59.65875194,5da903f3b5c28d0017745a1c,626b377229c10585ec392f89,626b38007479d2fb10b9a9ba,,,,,,,,,,,,,,,,,,,,,,,l,0,2.2862,"[""0.304"",""0.344"",""0.263"",""0.868""]","[1,1,0,1]",0,60,60,60,1,0,0,,,1,FALSE,,,,,,,,,,,,,,,,,,,,,,,,,,,,,,
,5da903f3b5c28d0017745a1c,001,2022-04-29_01h57.56.326,classification_task,2021.2.3,Win32,59.65875194,5da903f3b5c28d0017745a1c,626b377229c10585ec392f89,626b38007479d2fb10b9a9ba,,,,,,,,,,,,,,,,,,,,,,,a,1,1.3682,"[""0.304"",""0.507"",""0.830"",""0.868""]","[1,0,1,1]",0,61,61,61,1,0,0,,,1,FALSE,,,,,,,,,,,,,,,,,,,,,,,,,,,,,,
,5da903f3b5c28d0017745a1c,001,2022-04-29_01h57.56.326,classification_task,2021.2.3,Win32,59.65875194,5da903f3b5c28d0017745a1c,626b377229c10585ec392f89,626b38007479d2fb10b9a9ba,,,,,,,,,,,,,,,,,,,,,,,a,0,1.1025,"[""0.134"",""0.270"",""0.658"",""0.702""]","[1,0,1,1]",0,62,62,62,1,1,0,,,1,FALSE,,,,,,,,,,,,,,,,,,,,,,,,,,,,,,
,5da903f3b5c28d0017745a1c,001,2022-04-29_01h57.56.326,classification_task,2021.2.3,Win32,59.65875194,5da903f3b5c28d0017745a1c,626b377229c10585ec392f89,626b38007479d2fb10b9a9ba,,,,,,,,,,,,,,,,,,,,,,,l,1,2.2864,"[""0.134"",""0.387"",""0.533"",""0.702""]","[1,1,0,1]",0,63,63,63,1,1,0,,,1,FALSE,,,,,,,,,,,,,,,,,,,,,,,,,,,,,,
,5da903f3b5c28d0017745a1c,001,2022-04-29_01h57.56.326,classification_task,2021.2.3,Win32,59.65875194,5da903f3b5c28d0017745a1c,626b377229c10585ec392f89,626b38007479d2fb10b9a9ba,,,,,,,,,,,,,,,,,,,,,,,,,,,,,,,,,,,,,,,0, ,,0,6.81265922,579.2859,0,0,0,0,1,2,1,,,,,,,,,,,,,,,,,
,5da903f3b5c28d0017745a1c,001,2022-04-29_01h57.56.326,classification_task,2021.2.3,Win32,59.65875194,5da903f3b5c28d0017745a1c,626b377229c10585ec392f89,626b38007479d2fb10b9a9ba,,,,,,,,,,,,,,,,,,,,,,,,,,,,,,,,,,,,,,,1,  ,,0,6.86165001,576.5003,0,0,0,0,1,2,1,,,,,,,,,,,,,,,,,
,5da903f3b5c28d0017745a1c,001,2022-04-29_01h57.56.326,classification_task,2021.2.3,Win32,59.65875194,5da903f3b5c28d0017745a1c,626b377229c10585ec392f89,626b38007479d2fb10b9a9ba,,,,,,,,,,,,,,,,,,,,,,,,,,,,,,,,,,,,,,,2,  ,,0,0.982755242,571.868,0,0,0,0,1,2,1,,,,,,,,,,,,,,,,,
,5da903f3b5c28d0017745a1c,001,2022-04-29_01h57.56.326,classification_task,2021.2.3,Win32,59.65875194,5da903f3b5c28d0017745a1c,626b377229c10585ec392f89,626b38007479d2fb10b9a9ba,,,,,,,,,,,,,,,,,,,,,,,,,,,,,,,,,,,,,,,,,,,,,0,0,0,0,1,,1,,,,,,,,,,,,,,,,,
,5da903f3b5c28d0017745a1c,001,2022-04-29_01h57.56.326,classification_task,2021.2.3,Win32,59.65875194,5da903f3b5c28d0017745a1c,626b377229c10585ec392f89,626b38007479d2fb10b9a9ba,,,,,,,,,,,,,,,,,,,,,space,13.3337,l,0,4.169,"[""0.170"",""0.467"",""0.919"",""0.270""]","[1,1,1,0]",0,0,0,0,1,0,1,,,1,FALSE,,,,,,,,,,,,,,,,,,,,,,,,,,,,,,
,5da903f3b5c28d0017745a1c,001,2022-04-29_01h57.56.326,classification_task,2021.2.3,Win32,59.65875194,5da903f3b5c28d0017745a1c,626b377229c10585ec392f89,626b38007479d2fb10b9a9ba,,,,,,,,,,,,,,,,,,,,,,,a,1,2.2477,"[""0.170"",""0.467"",""0.612"",""0.967""]","[1,1,0,1]",0,1,1,1,1,0,1,,,1,FALSE,,,,,,,,,,,,,,,,,,,,,,,,,,,,,,
,5da903f3b5c28d0017745a1c,001,2022-04-29_01h57.56.326,classification_task,2021.2.3,Win32,59.65875194,5da903f3b5c28d0017745a1c,626b377229c10585ec392f89,626b38007479d2fb10b9a9ba,,,,,,,,,,,,,,,,,,,,,,,a,1,2.2095,"[""0.304"",""0.344"",""0.830"",""0.270""]","[1,1,1,0]",0,2,2,2,1,0,0,,,1,FALSE,,,,,,,,,,,,,,,,,,,,,,,,,,,,,,
,5da903f3b5c28d0017745a1c,001,2022-04-29_01h57.56.326,classification_task,2021.2.3,Win32,59.65875194,5da903f3b5c28d0017745a1c,626b377229c10585ec392f89,626b38007479d2fb10b9a9ba,,,,,,,,,,,,,,,,,,,,,,,a,1,1.2517,"[""0.270"",""0.344"",""0.830"",""0.868""]","[0,1,1,1]",0,3,3,3,1,0,0,,,1,FALSE,,,,,,,,,,,,,,,,,,,,,,,,,,,,,,
,5da903f3b5c28d0017745a1c,001,2022-04-29_01h57.56.326,classification_task,2021.2.3,Win32,59.65875194,5da903f3b5c28d0017745a1c,626b377229c10585ec392f89,626b38007479d2fb10b9a9ba,,,,,,,,,,,,,,,,,,,,,,,l,1,0.8811,"[""0.097"",""0.049"",""0.577"",""0.767""]","[1,0,1,1]",0,4,4,4,1,1,1,,,1,FALSE,,,,,,,,,,,,,,,,,,,,,,,,,,,,,,
,5da903f3b5c28d0017745a1c,001,2022-04-29_01h57.56.326,classification_task,2021.2.3,Win32,59.65875194,5da903f3b5c28d0017745a1c,626b377229c10585ec392f89,626b38007479d2fb10b9a9ba,,,,,,,,,,,,,,,,,,,,,,,a,1,0.9185,"[""0.170"",""0.041"",""0.919"",""0.967""]","[1,0,1,1]",0,5,5,5,1,0,1,,,1,FALSE,,,,,,,,,,,,,,,,,,,,,,,,,,,,,,
,5da903f3b5c28d0017745a1c,001,2022-04-29_01h57.56.326,classification_task,2021.2.3,Win32,59.65875194,5da903f3b5c28d0017745a1c,626b377229c10585ec392f89,626b38007479d2fb10b9a9ba,,,,,,,,,,,,,,,,,,,,,,,a,1,1.466,"[""0.304"",""0.344"",""0.042"",""0.868""]","[1,1,0,1]",0,6,6,6,1,0,0,,,1,FALSE,,,,,,,,,,,,,,,,,,,,,,,,,,,,,,
,5da903f3b5c28d0017745a1c,001,2022-04-29_01h57.56.326,classification_task,2021.2.3,Win32,59.65875194,5da903f3b5c28d0017745a1c,626b377229c10585ec392f89,626b38007479d2fb10b9a9ba,,,,,,,,,,,,,,,,,,,,,,,a,1,1.2953,"[""0.507"",""0.467"",""0.919"",""0.967""]","[0,1,1,1]",0,7,7,7,1,0,1,,,1,FALSE,,,,,,,,,,,,,,,,,,,,,,,,,,,,,,
,5da903f3b5c28d0017745a1c,001,2022-04-29_01h57.56.326,classification_task,2021.2.3,Win32,59.65875194,5da903f3b5c28d0017745a1c,626b377229c10585ec392f89,626b38007479d2fb10b9a9ba,,,,,,,,,,,,,,,,,,,,,,,a,0,2.0518,"[""0.134"",""0.387"",""0.658"",""0.270""]","[1,1,1,0]",0,8,8,8,1,1,0,,,1,FALSE,,,,,,,,,,,,,,,,,,,,,,,,,,,,,,
,5da903f3b5c28d0017745a1c,001,2022-04-29_01h57.56.326,classification_task,2021.2.3,Win32,59.65875194,5da903f3b5c28d0017745a1c,626b377229c10585ec392f89,626b38007479d2fb10b9a9ba,,,,,,,,,,,,,,,,,,,,,,,l,1,1.5383,"[""0.134"",""0.263"",""0.658"",""0.702""]","[1,0,1,1]",0,9,9,9,1,1,0,,,1,FALSE,,,,,,,,,,,,,,,,,,,,,,,,,,,,,,
,5da903f3b5c28d0017745a1c,001,2022-04-29_01h57.56.326,classification_task,2021.2.3,Win32,59.65875194,5da903f3b5c28d0017745a1c,626b377229c10585ec392f89,626b38007479d2fb10b9a9ba,,,,,,,,,,,,,,,,,,,,,,,l,1,2.0792,"[""0.612"",""0.387"",""0.658"",""0.702""]","[0,1,1,1]",0,10,10,10,1,1,0,,,1,FALSE,,,,,,,,,,,,,,,,,,,,,,,,,,,,,,
,5da903f3b5c28d0017745a1c,001,2022-04-29_01h57.56.326,classification_task,2021.2.3,Win32,59.65875194,5da903f3b5c28d0017745a1c,626b377229c10585ec392f89,626b38007479d2fb10b9a9ba,,,,,,,,,,,,,,,,,,,,,,,l,1,0.6991,"[""0.097"",""0.225"",""0.577"",""0.263""]","[1,1,1,0]",0,11,11,11,1,1,1,,,1,FALSE,,,,,,,,,,,,,,,,,,,,,,,,,,,,,,
,5da903f3b5c28d0017745a1c,001,2022-04-29_01h57.56.326,classification_task,2021.2.3,Win32,59.65875194,5da903f3b5c28d0017745a1c,626b377229c10585ec392f89,626b38007479d2fb10b9a9ba,,,,,,,,,,,,,,,,,,,,,,,l,0,1.3697,"[""0.304"",""0.612"",""0.830"",""0.868""]","[1,0,1,1]",0,12,12,12,1,0,0,,,1,FALSE,,,,,,,,,,,,,,,,,,,,,,,,,,,,,,
,5da903f3b5c28d0017745a1c,001,2022-04-29_01h57.56.326,classification_task,2021.2.3,Win32,59.65875194,5da903f3b5c28d0017745a1c,626b377229c10585ec392f89,626b38007479d2fb10b9a9ba,,,,,,,,,,,,,,,,,,,,,,,l,1,0.7331,"[""0.097"",""0.225"",""0.263"",""0.767""]","[1,1,0,1]",0,13,13,13,1,1,1,,,1,FALSE,,,,,,,,,,,,,,,,,,,,,,,,,,,,,,
,5da903f3b5c28d0017745a1c,001,2022-04-29_01h57.56.326,classification_task,2021.2.3,Win32,59.65875194,5da903f3b5c28d0017745a1c,626b377229c10585ec392f89,626b38007479d2fb10b9a9ba,,,,,,,,,,,,,,,,,,,,,,,a,0,1.6499,"[""0.134"",""0.387"",""0.612"",""0.702""]","[1,1,0,1]",0,14,14,14,1,1,0,,,1,FALSE,,,,,,,,,,,,,,,,,,,,,,,,,,,,,,
,5da903f3b5c28d0017745a1c,001,2022-04-29_01h57.56.326,classification_task,2021.2.3,Win32,59.65875194,5da903f3b5c28d0017745a1c,626b377229c10585ec392f89,626b38007479d2fb10b9a9ba,,,,,,,,,,,,,,,,,,,,,,,l,1,0.7149,"[""0.044"",""0.225"",""0.577"",""0.767""]","[0,1,1,1]",0,15,15,15,1,1,1,,,1,FALSE,,,,,,,,,,,,,,,,,,,,,,,,,,,,,,
,5da903f3b5c28d0017745a1c,001,2022-04-29_01h57.56.326,classification_task,2021.2.3,Win32,59.65875194,5da903f3b5c28d0017745a1c,626b377229c10585ec392f89,626b38007479d2fb10b9a9ba,,,,,,,,,,,,,,,,,,,,,,,l,0,2.3521,"[""0.304"",""0.344"",""0.270"",""0.868""]","[1,1,0,1]",0,16,16,16,1,0,0,,,1,FALSE,,,,,,,,,,,,,,,,,,,,,,,,,,,,,,
,5da903f3b5c28d0017745a1c,001,2022-04-29_01h57.56.326,classification_task,2021.2.3,Win32,59.65875194,5da903f3b5c28d0017745a1c,626b377229c10585ec392f89,626b38007479d2fb10b9a9ba,,,,,,,,,,,,,,,,,,,,,,,a,1,0.607,"[""0.042"",""0.467"",""0.919"",""0.967""]","[0,1,1,1]",0,17,17,17,1,0,1,,,1,FALSE,,,,,,,,,,,,,,,,,,,,,,,,,,,,,,
,5da903f3b5c28d0017745a1c,001,2022-04-29_01h57.56.326,classification_task,2021.2.3,Win32,59.65875194,5da903f3b5c28d0017745a1c,626b377229c10585ec392f89,626b38007479d2fb10b9a9ba,,,,,,,,,,,,,,,,,,,,,,,l,1,0.8017,"[""0.097"",""0.538"",""0.577"",""0.767""]","[1,0,1,1]",0,18,18,18,1,1,1,,,1,FALSE,,,,,,,,,,,,,,,,,,,,,,,,,,,,,,
,5da903f3b5c28d0017745a1c,001,2022-04-29_01h57.56.326,classification_task,2021.2.3,Win32,59.65875194,5da903f3b5c28d0017745a1c,626b377229c10585ec392f89,626b38007479d2fb10b9a9ba,,,,,,,,,,,,,,,,,,,,,,,l,1,5.2886,"[""0.097"",""0.225"",""0.263"",""0.767""]","[1,1,0,1]",0,19,19,19,1,1,1,,,1,FALSE,,,,,,,,,,,,,,,,,,,,,,,,,,,,,,
,5da903f3b5c28d0017745a1c,001,2022-04-29_01h57.56.326,classification_task,2021.2.3,Win32,59.65875194,5da903f3b5c28d0017745a1c,626b377229c10585ec392f89,626b38007479d2fb10b9a9ba,,,,,,,,,,,,,,,,,,,,,,,a,0,1.7775,"[""0.134"",""0.612"",""0.658"",""0.702""]","[1,0,1,1]",0,20,20,20,1,1,0,,,1,FALSE,,,,,,,,,,,,,,,,,,,,,,,,,,,,,,
,5da903f3b5c28d0017745a1c,001,2022-04-29_01h57.56.326,classification_task,2021.2.3,Win32,59.65875194,5da903f3b5c28d0017745a1c,626b377229c10585ec392f89,626b38007479d2fb10b9a9ba,,,,,,,,,,,,,,,,,,,,,,,l,0,1.0897,"[""0.304"",""0.044"",""0.830"",""0.868""]","[1,0,1,1]",0,21,21,21,1,0,0,,,1,FALSE,,,,,,,,,,,,,,,,,,,,,,,,,,,,,,
,5da903f3b5c28d0017745a1c,001,2022-04-29_01h57.56.326,classification_task,2021.2.3,Win32,59.65875194,5da903f3b5c28d0017745a1c,626b377229c10585ec392f89,626b38007479d2fb10b9a9ba,,,,,,,,,,,,,,,,,,,,,,,l,1,0.6818,"[""0.042"",""0.225"",""0.577"",""0.767""]","[0,1,1,1]",0,22,22,22,1,1,1,,,1,FALSE,,,,,,,,,,,,,,,,,,,,,,,,,,,,,,
,5da903f3b5c28d0017745a1c,001,2022-04-29_01h57.56.326,classification_task,2021.2.3,Win32,59.65875194,5da903f3b5c28d0017745a1c,626b377229c10585ec392f89,626b38007479d2fb10b9a9ba,,,,,,,,,,,,,,,,,,,,,,,a,0,3.1017,"[""0.134"",""0.387"",""0.658"",""0.270""]","[1,1,1,0]",0,23,23,23,1,1,0,,,1,FALSE,,,,,,,,,,,,,,,,,,,,,,,,,,,,,,
,5da903f3b5c28d0017745a1c,001,2022-04-29_01h57.56.326,classification_task,2021.2.3,Win32,59.65875194,5da903f3b5c28d0017745a1c,626b377229c10585ec392f89,626b38007479d2fb10b9a9ba,,,,,,,,,,,,,,,,,,,,,,,l,0,1.263,"[""0.031"",""0.344"",""0.830"",""0.868""]","[0,1,1,1]",0,24,24,24,1,0,0,,,1,FALSE,,,,,,,,,,,,,,,,,,,,,,,,,,,,,,
,5da903f3b5c28d0017745a1c,001,2022-04-29_01h57.56.326,classification_task,2021.2.3,Win32,59.65875194,5da903f3b5c28d0017745a1c,626b377229c10585ec392f89,626b38007479d2fb10b9a9ba,,,,,,,,,,,,,,,,,,,,,,,a,1,0.7365,"[""0.304"",""0.344"",""0.830"",""0.533""]","[1,1,1,0]",0,25,25,25,1,0,0,,,1,FALSE,,,,,,,,,,,,,,,,,,,,,,,,,,,,,,
,5da903f3b5c28d0017745a1c,001,2022-04-29_01h57.56.326,classification_task,2021.2.3,Win32,59.65875194,5da903f3b5c28d0017745a1c,626b377229c10585ec392f89,626b38007479d2fb10b9a9ba,,,,,,,,,,,,,,,,,,,,,,,a,1,0.7137,"[""0.170"",""0.467"",""0.919"",""0.270""]","[1,1,1,0]",0,26,26,26,1,0,1,,,1,FALSE,,,,,,,,,,,,,,,,,,,,,,,,,,,,,,
,5da903f3b5c28d0017745a1c,001,2022-04-29_01h57.56.326,classification_task,2021.2.3,Win32,59.65875194,5da903f3b5c28d0017745a1c,626b377229c10585ec392f89,626b38007479d2fb10b9a9ba,,,,,,,,,,,,,,,,,,,,,,,a,0,0.9507,"[""0.134"",""0.387"",""0.263"",""0.702""]","[1,1,0,1]",0,27,27,27,1,1,0,,,1,FALSE,,,,,,,,,,,,,,,,,,,,,,,,,,,,,,
,5da903f3b5c28d0017745a1c,001,2022-04-29_01h57.56.326,classification_task,2021.2.3,Win32,59.65875194,5da903f3b5c28d0017745a1c,626b377229c10585ec392f89,626b38007479d2fb10b9a9ba,,,,,,,,,,,,,,,,,,,,,,,a,1,0.702,"[""0.170"",""0.538"",""0.919"",""0.967""]","[1,0,1,1]",0,28,28,28,1,0,1,,,1,FALSE,,,,,,,,,,,,,,,,,,,,,,,,,,,,,,
,5da903f3b5c28d0017745a1c,001,2022-04-29_01h57.56.326,classification_task,2021.2.3,Win32,59.65875194,5da903f3b5c28d0017745a1c,626b377229c10585ec392f89,626b38007479d2fb10b9a9ba,,,,,,,,,,,,,,,,,,,,,,,l,1,1.3715,"[""0.097"",""0.225"",""0.577"",""0.533""]","[1,1,1,0]",0,29,29,29,1,1,1,,,1,FALSE,,,,,,,,,,,,,,,,,,,,,,,,,,,,,,
,5da903f3b5c28d0017745a1c,001,2022-04-29_01h57.56.326,classification_task,2021.2.3,Win32,59.65875194,5da903f3b5c28d0017745a1c,626b377229c10585ec392f89,626b38007479d2fb10b9a9ba,,,,,,,,,,,,,,,,,,,,,,,a,1,0.7505,"[""0.170"",""0.467"",""0.612"",""0.967""]","[1,1,0,1]",0,30,30,30,1,0,1,,,1,FALSE,,,,,,,,,,,,,,,,,,,,,,,,,,,,,,
,5da903f3b5c28d0017745a1c,001,2022-04-29_01h57.56.326,classification_task,2021.2.3,Win32,59.65875194,5da903f3b5c28d0017745a1c,626b377229c10585ec392f89,626b38007479d2fb10b9a9ba,,,,,,,,,,,,,,,,,,,,,,,l,1,1.736,"[""0.533"",""0.387"",""0.658"",""0.702""]","[0,1,1,1]",0,31,31,31,1,1,0,,,1,FALSE,,,,,,,,,,,,,,,,,,,,,,,,,,,,,,
,5da903f3b5c28d0017745a1c,001,2022-04-29_01h57.56.326,classification_task,2021.2.3,Win32,59.65875194,5da903f3b5c28d0017745a1c,626b377229c10585ec392f89,626b38007479d2fb10b9a9ba,,,,,,,,,,,,,,,,,,,,,,,l,0,0.7331,"[""0.170"",""0.467"",""0.263"",""0.967""]","[1,1,0,1]",0,32,32,32,1,0,1,,,1,FALSE,,,,,,,,,,,,,,,,,,,,,,,,,,,,,,
,5da903f3b5c28d0017745a1c,001,2022-04-29_01h57.56.326,classification_task,2021.2.3,Win32,59.65875194,5da903f3b5c28d0017745a1c,626b377229c10585ec392f89,626b38007479d2fb10b9a9ba,,,,,,,,,,,,,,,,,,,,,,,l,0,1.5839,"[""0.038"",""0.344"",""0.830"",""0.868""]","[0,1,1,1]",0,33,33,33,1,0,0,,,1,FALSE,,,,,,,,,,,,,,,,,,,,,,,,,,,,,,
,5da903f3b5c28d0017745a1c,001,2022-04-29_01h57.56.326,classification_task,2021.2.3,Win32,59.65875194,5da903f3b5c28d0017745a1c,626b377229c10585ec392f89,626b38007479d2fb10b9a9ba,,,,,,,,,,,,,,,,,,,,,,,a,1,1.4616,"[""0.304"",""0.344"",""0.042"",""0.868""]","[1,1,0,1]",0,34,34,34,1,0,0,,,1,FALSE,,,,,,,,,,,,,,,,,,,,,,,,,,,,,,
,5da903f3b5c28d0017745a1c,001,2022-04-29_01h57.56.326,classification_task,2021.2.3,Win32,59.65875194,5da903f3b5c28d0017745a1c,626b377229c10585ec392f89,626b38007479d2fb10b9a9ba,,,,,,,,,,,,,,,,,,,,,,,a,1,0.6335,"[""0.170"",""0.467"",""0.919"",""0.612""]","[1,1,1,0]",0,35,35,35,1,0,1,,,1,FALSE,,,,,,,,,,,,,,,,,,,,,,,,,,,,,,
,5da903f3b5c28d0017745a1c,001,2022-04-29_01h57.56.326,classification_task,2021.2.3,Win32,59.65875194,5da903f3b5c28d0017745a1c,626b377229c10585ec392f89,626b38007479d2fb10b9a9ba,,,,,,,,,,,,,,,,,,,,,,,a,0,1.0697,"[""0.134"",""0.031"",""0.658"",""0.702""]","[1,0,1,1]",0,36,36,36,1,1,0,,,1,FALSE,,,,,,,,,,,,,,,,,,,,,,,,,,,,,,
,5da903f3b5c28d0017745a1c,001,2022-04-29_01h57.56.326,classification_task,2021.2.3,Win32,59.65875194,5da903f3b5c28d0017745a1c,626b377229c10585ec392f89,626b38007479d2fb10b9a9ba,,,,,,,,,,,,,,,,,,,,,,,l,1,0.5999,"[""0.097"",""0.225"",""0.044"",""0.767""]","[1,1,0,1]",0,37,37,37,1,1,1,,,1,FALSE,,,,,,,,,,,,,,,,,,,,,,,,,,,,,,
,5da903f3b5c28d0017745a1c,001,2022-04-29_01h57.56.326,classification_task,2021.2.3,Win32,59.65875194,5da903f3b5c28d0017745a1c,626b377229c10585ec392f89,626b38007479d2fb10b9a9ba,,,,,,,,,,,,,,,,,,,,,,,l,0,1.4836,"[""0.304"",""0.344"",""0.830"",""0.621""]","[1,1,1,0]",0,38,38,38,1,0,0,,,1,FALSE,,,,,,,,,,,,,,,,,,,,,,,,,,,,,,
,5da903f3b5c28d0017745a1c,001,2022-04-29_01h57.56.326,classification_task,2021.2.3,Win32,59.65875194,5da903f3b5c28d0017745a1c,626b377229c10585ec392f89,626b38007479d2fb10b9a9ba,,,,,,,,,,,,,,,,,,,,,,,a,1,0.8282,"[""0.031"",""0.467"",""0.919"",""0.967""]","[0,1,1,1]",0,39,39,39,1,0,1,,,1,FALSE,,,,,,,,,,,,,,,,,,,,,,,,,,,,,,
,5da903f3b5c28d0017745a1c,001,2022-04-29_01h57.56.326,classification_task,2021.2.3,Win32,59.65875194,5da903f3b5c28d0017745a1c,626b377229c10585ec392f89,626b38007479d2fb10b9a9ba,,,,,,,,,,,,,,,,,,,,,,,a,1,0.5673,"[""0.170"",""0.426"",""0.919"",""0.967""]","[1,0,1,1]",0,40,40,40,1,0,1,,,1,FALSE,,,,,,,,,,,,,,,,,,,,,,,,,,,,,,
,5da903f3b5c28d0017745a1c,001,2022-04-29_01h57.56.326,classification_task,2021.2.3,Win32,59.65875194,5da903f3b5c28d0017745a1c,626b377229c10585ec392f89,626b38007479d2fb10b9a9ba,,,,,,,,,,,,,,,,,,,,,,,l,1,1.1334,"[""0.134"",""0.387"",""0.658"",""0.263""]","[1,1,1,0]",0,41,41,41,1,1,0,,,1,FALSE,,,,,,,,,,,,,,,,,,,,,,,,,,,,,,
,5da903f3b5c28d0017745a1c,001,2022-04-29_01h57.56.326,classification_task,2021.2.3,Win32,59.65875194,5da903f3b5c28d0017745a1c,626b377229c10585ec392f89,626b38007479d2fb10b9a9ba,,,,,,,,,,,,,,,,,,,,,,,a,0,1.0836,"[""0.134"",""0.387"",""0.612"",""0.702""]","[1,1,0,1]",0,42,42,42,1,1,0,,,1,FALSE,,,,,,,,,,,,,,,,,,,,,,,,,,,,,,
,5da903f3b5c28d0017745a1c,001,2022-04-29_01h57.56.326,classification_task,2021.2.3,Win32,59.65875194,5da903f3b5c28d0017745a1c,626b377229c10585ec392f89,626b38007479d2fb10b9a9ba,,,,,,,,,,,,,,,,,,,,,,,l,1,0.5324,"[""0.097"",""0.044"",""0.577"",""0.767""]","[1,0,1,1]",0,43,43,43,1,1,1,,,1,FALSE,,,,,,,,,,,,,,,,,,,,,,,,,,,,,,
,5da903f3b5c28d0017745a1c,001,2022-04-29_01h57.56.326,classification_task,2021.2.3,Win32,59.65875194,5da903f3b5c28d0017745a1c,626b377229c10585ec392f89,626b38007479d2fb10b9a9ba,,,,,,,,,,,,,,,,,,,,,,,l,1,0.5823,"[""0.612"",""0.225"",""0.577"",""0.767""]","[0,1,1,1]",0,44,44,44,1,1,1,,,1,FALSE,,,,,,,,,,,,,,,,,,,,,,,,,,,,,,
,5da903f3b5c28d0017745a1c,001,2022-04-29_01h57.56.326,classification_task,2021.2.3,Win32,59.65875194,5da903f3b5c28d0017745a1c,626b377229c10585ec392f89,626b38007479d2fb10b9a9ba,,,,,,,,,,,,,,,,,,,,,,,l,1,0.9668,"[""0.097"",""0.225"",""0.577"",""0.538""]","[1,1,1,0]",0,45,45,45,1,1,1,,,1,FALSE,,,,,,,,,,,,,,,,,,,,,,,,,,,,,,
,5da903f3b5c28d0017745a1c,001,2022-04-29_01h57.56.326,classification_task,2021.2.3,Win32,59.65875194,5da903f3b5c28d0017745a1c,626b377229c10585ec392f89,626b38007479d2fb10b9a9ba,,,,,,,,,,,,,,,,,,,,,,,l,1,3.2026,"[""0.041"",""0.387"",""0.658"",""0.702""]","[0,1,1,1]",0,46,46,46,1,1,0,,,1,FALSE,,,,,,,,,,,,,,,,,,,,,,,,,,,,,,
,5da903f3b5c28d0017745a1c,001,2022-04-29_01h57.56.326,classification_task,2021.2.3,Win32,59.65875194,5da903f3b5c28d0017745a1c,626b377229c10585ec392f89,626b38007479d2fb10b9a9ba,,,,,,,,,,,,,,,,,,,,,,,a,1,1.164,"[""0.304"",""0.049"",""0.830"",""0.868""]","[1,0,1,1]",0,47,47,47,1,0,0,,,1,FALSE,,,,,,,,,,,,,,,,,,,,,,,,,,,,,,
,5da903f3b5c28d0017745a1c,001,2022-04-29_01h57.56.326,classification_task,2021.2.3,Win32,59.65875194,5da903f3b5c28d0017745a1c,626b377229c10585ec392f89,626b38007479d2fb10b9a9ba,,,,,,,,,,,,,,,,,,,,,,,a,1,0.7989,"[""0.170"",""0.467"",""0.919"",""0.038""]","[1,1,1,0]",0,48,48,48,1,0,1,,,1,FALSE,,,,,,,,,,,,,,,,,,,,,,,,,,,,,,
,5da903f3b5c28d0017745a1c,001,2022-04-29_01h57.56.326,classification_task,2021.2.3,Win32,59.65875194,5da903f3b5c28d0017745a1c,626b377229c10585ec392f89,626b38007479d2fb10b9a9ba,,,,,,,,,,,,,,,,,,,,,,,l,0,1.4342,"[""0.304"",""0.344"",""0.830"",""0.612""]","[1,1,1,0]",0,49,49,49,1,0,0,,,1,FALSE,,,,,,,,,,,,,,,,,,,,,,,,,,,,,,
,5da903f3b5c28d0017745a1c,001,2022-04-29_01h57.56.326,classification_task,2021.2.3,Win32,59.65875194,5da903f3b5c28d0017745a1c,626b377229c10585ec392f89,626b38007479d2fb10b9a9ba,,,,,,,,,,,,,,,,,,,,,,,a,1,0.6994,"[""0.426"",""0.467"",""0.919"",""0.967""]","[0,1,1,1]",0,50,50,50,1,0,1,,,1,FALSE,,,,,,,,,,,,,,,,,,,,,,,,,,,,,,
,5da903f3b5c28d0017745a1c,001,2022-04-29_01h57.56.326,classification_task,2021.2.3,Win32,59.65875194,5da903f3b5c28d0017745a1c,626b377229c10585ec392f89,626b38007479d2fb10b9a9ba,,,,,,,,,,,,,,,,,,,,,,,l,1,0.6688,"[""0.097"",""0.225"",""0.621"",""0.767""]","[1,1,0,1]",0,51,51,51,1,1,1,,,1,FALSE,,,,,,,,,,,,,,,,,,,,,,,,,,,,,,
,5da903f3b5c28d0017745a1c,001,2022-04-29_01h57.56.326,classification_task,2021.2.3,Win32,59.65875194,5da903f3b5c28d0017745a1c,626b377229c10585ec392f89,626b38007479d2fb10b9a9ba,,,,,,,,,,,,,,,,,,,,,,,l,1,0.4689,"[""0.097"",""0.510"",""0.577"",""0.767""]","[1,0,1,1]",0,52,52,52,1,1,1,,,1,FALSE,,,,,,,,,,,,,,,,,,,,,,,,,,,,,,
,5da903f3b5c28d0017745a1c,001,2022-04-29_01h57.56.326,classification_task,2021.2.3,Win32,59.65875194,5da903f3b5c28d0017745a1c,626b377229c10585ec392f89,626b38007479d2fb10b9a9ba,,,,,,,,,,,,,,,,,,,,,,,a,0,2.9005,"[""0.134"",""0.387"",""0.049"",""0.702""]","[1,1,0,1]",0,53,53,53,1,1,0,,,1,FALSE,,,,,,,,,,,,,,,,,,,,,,,,,,,,,,
,5da903f3b5c28d0017745a1c,001,2022-04-29_01h57.56.326,classification_task,2021.2.3,Win32,59.65875194,5da903f3b5c28d0017745a1c,626b377229c10585ec392f89,626b38007479d2fb10b9a9ba,,,,,,,,,,,,,,,,,,,,,,,a,1,1.9634,"[""0.304"",""0.049"",""0.830"",""0.868""]","[1,0,1,1]",0,54,54,54,1,0,0,,,1,FALSE,,,,,,,,,,,,,,,,,,,,,,,,,,,,,,
,5da903f3b5c28d0017745a1c,001,2022-04-29_01h57.56.326,classification_task,2021.2.3,Win32,59.65875194,5da903f3b5c28d0017745a1c,626b377229c10585ec392f89,626b38007479d2fb10b9a9ba,,,,,,,,,,,,,,,,,,,,,,,l,1,5.1228,"[""0.134"",""0.263"",""0.658"",""0.702""]","[1,0,1,1]",0,55,55,55,1,1,0,,,1,FALSE,,,,,,,,,,,,,,,,,,,,,,,,,,,,,,
,5da903f3b5c28d0017745a1c,001,2022-04-29_01h57.56.326,classification_task,2021.2.3,Win32,59.65875194,5da903f3b5c28d0017745a1c,626b377229c10585ec392f89,626b38007479d2fb10b9a9ba,,,,,,,,,,,,,,,,,,,,,,,a,1,2.1644,"[""0.304"",""0.344"",""0.533"",""0.868""]","[1,1,0,1]",0,56,56,56,1,0,0,,,1,FALSE,,,,,,,,,,,,,,,,,,,,,,,,,,,,,,
,5da903f3b5c28d0017745a1c,001,2022-04-29_01h57.56.326,classification_task,2021.2.3,Win32,59.65875194,5da903f3b5c28d0017745a1c,626b377229c10585ec392f89,626b38007479d2fb10b9a9ba,,,,,,,,,,,,,,,,,,,,,,,l,1,0.942,"[""0.097"",""0.225"",""0.577"",""0.044""]","[1,1,1,0]",0,57,57,57,1,1,1,,,1,FALSE,,,,,,,,,,,,,,,,,,,,,,,,,,,,,,
,5da903f3b5c28d0017745a1c,001,2022-04-29_01h57.56.326,classification_task,2021.2.3,Win32,59.65875194,5da903f3b5c28d0017745a1c,626b377229c10585ec392f89,626b38007479d2fb10b9a9ba,,,,,,,,,,,,,,,,,,,,,,,a,1,2.3036,"[""0.612"",""0.344"",""0.830"",""0.868""]","[0,1,1,1]",0,58,58,58,1,0,0,,,1,FALSE,,,,,,,,,,,,,,,,,,,,,,,,,,,,,,
,5da903f3b5c28d0017745a1c,001,2022-04-29_01h57.56.326,classification_task,2021.2.3,Win32,59.65875194,5da903f3b5c28d0017745a1c,626b377229c10585ec392f89,626b38007479d2fb10b9a9ba,,,,,,,,,,,,,,,,,,,,,,,l,1,1.7647,"[""0.041"",""0.225"",""0.577"",""0.767""]","[0,1,1,1]",0,59,59,59,1,1,1,,,1,FALSE,,,,,,,,,,,,,,,,,,,,,,,,,,,,,,
,5da903f3b5c28d0017745a1c,001,2022-04-29_01h57.56.326,classification_task,2021.2.3,Win32,59.65875194,5da903f3b5c28d0017745a1c,626b377229c10585ec392f89,626b38007479d2fb10b9a9ba,,,,,,,,,,,,,,,,,,,,,,,a,1,0.6343,"[""0.170"",""0.467"",""0.038"",""0.967""]","[1,1,0,1]",0,60,60,60,1,0,1,,,1,FALSE,,,,,,,,,,,,,,,,,,,,,,,,,,,,,,
,5da903f3b5c28d0017745a1c,001,2022-04-29_01h57.56.326,classification_task,2021.2.3,Win32,59.65875194,5da903f3b5c28d0017745a1c,626b377229c10585ec392f89,626b38007479d2fb10b9a9ba,,,,,,,,,,,,,,,,,,,,,,,l,1,1.1331,"[""0.134"",""0.387"",""0.658"",""0.033""]","[1,1,1,0]",0,61,61,61,1,1,0,,,1,FALSE,,,,,,,,,,,,,,,,,,,,,,,,,,,,,,
,5da903f3b5c28d0017745a1c,001,2022-04-29_01h57.56.326,classification_task,2021.2.3,Win32,59.65875194,5da903f3b5c28d0017745a1c,626b377229c10585ec392f89,626b38007479d2fb10b9a9ba,,,,,,,,,,,,,,,,,,,,,,,l,1,0.9511,"[""0.033"",""0.387"",""0.658"",""0.702""]","[0,1,1,1]",0,62,62,62,1,1,0,,,1,FALSE,,,,,,,,,,,,,,,,,,,,,,,,,,,,,,
,5da903f3b5c28d0017745a1c,001,2022-04-29_01h57.56.326,classification_task,2021.2.3,Win32,59.65875194,5da903f3b5c28d0017745a1c,626b377229c10585ec392f89,626b38007479d2fb10b9a9ba,,,,,,,,,,,,,,,,,,,,,,,a,1,0.5664,"[""0.170"",""0.263"",""0.919"",""0.967""]","[1,0,1,1]",0,63,63,63,1,0,1,,,1,FALSE,,,,,,,,,,,,,,,,,,,,,,,,,,,,,,
,5da903f3b5c28d0017745a1c,001,2022-04-29_01h57.56.326,classification_task,2021.2.3,Win32,59.65875194,5da903f3b5c28d0017745a1c,626b377229c10585ec392f89,626b38007479d2fb10b9a9ba,,,,,,,,,,,,,,,,,,,,,,,,,,,,,,,,,,,,,,,0, ,,0,4.363119733,189.8847,0,1,1,1,1,2,2,,,,,,,,,,,,,,,,,
,5da903f3b5c28d0017745a1c,001,2022-04-29_01h57.56.326,classification_task,2021.2.3,Win32,59.65875194,5da903f3b5c28d0017745a1c,626b377229c10585ec392f89,626b38007479d2fb10b9a9ba,,,,,,,,,,,,,,,,,,,,,,,,,,,,,,,,,,,,,,,1,  ,,0,6.9106408,184.7884,0,1,1,1,1,2,2,,,,,,,,,,,,,,,,,
,5da903f3b5c28d0017745a1c,001,2022-04-29_01h57.56.326,classification_task,2021.2.3,Win32,59.65875194,5da903f3b5c28d0017745a1c,626b377229c10585ec392f89,626b38007479d2fb10b9a9ba,,,,,,,,,,,,,,,,,,,,,,,,,,,,,,,,,,,,,,,2,  ,,0,6.151283559,182.2267,0,1,1,1,1,2,2,,,,,,,,,,,,,,,,,
,5da903f3b5c28d0017745a1c,001,2022-04-29_01h57.56.326,classification_task,2021.2.3,Win32,59.65875194,5da903f3b5c28d0017745a1c,626b377229c10585ec392f89,626b38007479d2fb10b9a9ba,,,,,,,,,,,,,,,,,,,,,,,,,,,,,,,,,,,,,,,,,,,,,0,1,1,1,1,,2,,,,,,,,,,,,,,,,,
,5da903f3b5c28d0017745a1c,001,2022-04-29_01h57.56.326,classification_task,2021.2.3,Win32,59.65875194,5da903f3b5c28d0017745a1c,626b377229c10585ec392f89,626b38007479d2fb10b9a9ba,,,,,,,,,,,,,,,,,,,,,space,10.6685,a,1,2.9609,"[""0.170"",""0.467"",""0.033"",""0.967""]","[1,1,0,1]",0,0,0,0,1,0,1,,,1,FALSE,,,,,,,,,,,,,,,,,,,,,,,,,,,,,,
,5da903f3b5c28d0017745a1c,001,2022-04-29_01h57.56.326,classification_task,2021.2.3,Win32,59.65875194,5da903f3b5c28d0017745a1c,626b377229c10585ec392f89,626b38007479d2fb10b9a9ba,,,,,,,,,,,,,,,,,,,,,,,l,0,8.5095,"[""0.304"",""0.344"",""0.621"",""0.868""]","[1,1,0,1]",0,1,1,1,1,0,0,,,1,FALSE,,,,,,,,,,,,,,,,,,,,,,,,,,,,,,
,5da903f3b5c28d0017745a1c,001,2022-04-29_01h57.56.326,classification_task,2021.2.3,Win32,59.65875194,5da903f3b5c28d0017745a1c,626b377229c10585ec392f89,626b38007479d2fb10b9a9ba,,,,,,,,,,,,,,,,,,,,,,,a,1,5.6339,"[""0.621"",""0.467"",""0.919"",""0.967""]","[0,1,1,1]",0,2,2,2,1,0,1,,,1,FALSE,,,,,,,,,,,,,,,,,,,,,,,,,,,,,,
,5da903f3b5c28d0017745a1c,001,2022-04-29_01h57.56.326,classification_task,2021.2.3,Win32,59.65875194,5da903f3b5c28d0017745a1c,626b377229c10585ec392f89,626b38007479d2fb10b9a9ba,,,,,,,,,,,,,,,,,,,,,,,a,0,6.6029,"[""0.097"",""0.225"",""0.041"",""0.767""]","[1,1,0,1]",0,3,3,3,1,1,1,,,1,FALSE,,,,,,,,,,,,,,,,,,,,,,,,,,,,,,
,5da903f3b5c28d0017745a1c,001,2022-04-29_01h57.56.326,classification_task,2021.2.3,Win32,59.65875194,5da903f3b5c28d0017745a1c,626b377229c10585ec392f89,626b38007479d2fb10b9a9ba,,,,,,,,,,,,,,,,,,,,,,,l,0,1.2475,"[""0.170"",""0.467"",""0.919"",""0.270""]","[1,1,1,0]",0,4,4,4,1,0,1,,,1,FALSE,,,,,,,,,,,,,,,,,,,,,,,,,,,,,,
,5da903f3b5c28d0017745a1c,001,2022-04-29_01h57.56.326,classification_task,2021.2.3,Win32,59.65875194,5da903f3b5c28d0017745a1c,626b377229c10585ec392f89,626b38007479d2fb10b9a9ba,,,,,,,,,,,,,,,,,,,,,,,l,1,3.3377,"[""0.621"",""0.225"",""0.577"",""0.767""]","[0,1,1,1]",0,5,5,5,1,1,1,,,1,FALSE,,,,,,,,,,,,,,,,,,,,,,,,,,,,,,
,5da903f3b5c28d0017745a1c,001,2022-04-29_01h57.56.326,classification_task,2021.2.3,Win32,59.65875194,5da903f3b5c28d0017745a1c,626b377229c10585ec392f89,626b38007479d2fb10b9a9ba,,,,,,,,,,,,,,,,,,,,,,,a,0,2.5802,"[""0.538"",""0.387"",""0.658"",""0.702""]","[0,1,1,1]",0,6,6,6,1,1,0,,,1,FALSE,,,,,,,,,,,,,,,,,,,,,,,,,,,,,,
,5da903f3b5c28d0017745a1c,001,2022-04-29_01h57.56.326,classification_task,2021.2.3,Win32,59.65875194,5da903f3b5c28d0017745a1c,626b377229c10585ec392f89,626b38007479d2fb10b9a9ba,,,,,,,,,,,,,,,,,,,,,,,l,1,2.0142,"[""0.134"",""0.387"",""0.044"",""0.702""]","[1,1,0,1]",0,7,7,7,1,1,0,,,1,FALSE,,,,,,,,,,,,,,,,,,,,,,,,,,,,,,
,5da903f3b5c28d0017745a1c,001,2022-04-29_01h57.56.326,classification_task,2021.2.3,Win32,59.65875194,5da903f3b5c28d0017745a1c,626b377229c10585ec392f89,626b38007479d2fb10b9a9ba,,,,,,,,,,,,,,,,,,,,,,,a,1,1.2682,"[""0.170"",""0.031"",""0.919"",""0.967""]","[1,0,1,1]",0,8,8,8,1,0,1,,,1,FALSE,,,,,,,,,,,,,,,,,,,,,,,,,,,,,,
,5da903f3b5c28d0017745a1c,001,2022-04-29_01h57.56.326,classification_task,2021.2.3,Win32,59.65875194,5da903f3b5c28d0017745a1c,626b377229c10585ec392f89,626b38007479d2fb10b9a9ba,,,,,,,,,,,,,,,,,,,,,,,l,0,1.536,"[""0.426"",""0.344"",""0.830"",""0.868""]","[0,1,1,1]",0,9,9,9,1,0,0,,,1,FALSE,,,,,,,,,,,,,,,,,,,,,,,,,,,,,,
,5da903f3b5c28d0017745a1c,001,2022-04-29_01h57.56.326,classification_task,2021.2.3,Win32,59.65875194,5da903f3b5c28d0017745a1c,626b377229c10585ec392f89,626b38007479d2fb10b9a9ba,,,,,,,,,,,,,,,,,,,,,,,a,0,4.8669,"[""0.097"",""0.225"",""0.577"",""0.044""]","[1,1,1,0]",0,10,10,10,1,1,1,,,1,FALSE,,,,,,,,,,,,,,,,,,,,,,,,,,,,,,
,5da903f3b5c28d0017745a1c,001,2022-04-29_01h57.56.326,classification_task,2021.2.3,Win32,59.65875194,5da903f3b5c28d0017745a1c,626b377229c10585ec392f89,626b38007479d2fb10b9a9ba,,,,,,,,,,,,,,,,,,,,,,,l,0,3.2333,"[""0.304"",""0.344"",""0.830"",""0.426""]","[1,1,1,0]",0,11,11,11,1,0,0,,,1,FALSE,,,,,,,,,,,,,,,,,,,,,,,,,,,,,,
,5da903f3b5c28d0017745a1c,001,2022-04-29_01h57.56.326,classification_task,2021.2.3,Win32,59.65875194,5da903f3b5c28d0017745a1c,626b377229c10585ec392f89,626b38007479d2fb10b9a9ba,,,,,,,,,,,,,,,,,,,,,,,a,0,2.513,"[""0.097"",""0.263"",""0.577"",""0.767""]","[1,0,1,1]",0,12,12,12,1,1,1,,,1,FALSE,,,,,,,,,,,,,,,,,,,,,,,,,,,,,,
,5da903f3b5c28d0017745a1c,001,2022-04-29_01h57.56.326,classification_task,2021.2.3,Win32,59.65875194,5da903f3b5c28d0017745a1c,626b377229c10585ec392f89,626b38007479d2fb10b9a9ba,,,,,,,,,,,,,,,,,,,,,,,l,1,2.0013,"[""0.134"",""0.621"",""0.658"",""0.702""]","[1,0,1,1]",0,13,13,13,1,1,0,,,1,FALSE,,,,,,,,,,,,,,,,,,,,,,,,,,,,,,
,5da903f3b5c28d0017745a1c,001,2022-04-29_01h57.56.326,classification_task,2021.2.3,Win32,59.65875194,5da903f3b5c28d0017745a1c,626b377229c10585ec392f89,626b38007479d2fb10b9a9ba,,,,,,,,,,,,,,,,,,,,,,,l,1,1.7854,"[""0.134"",""0.387"",""0.658"",""0.042""]","[1,1,1,0]",0,14,14,14,1,1,0,,,1,FALSE,,,,,,,,,,,,,,,,,,,,,,,,,,,,,,
,5da903f3b5c28d0017745a1c,001,2022-04-29_01h57.56.326,classification_task,2021.2.3,Win32,59.65875194,5da903f3b5c28d0017745a1c,626b377229c10585ec392f89,626b38007479d2fb10b9a9ba,,,,,,,,,,,,,,,,,,,,,,,a,1,1.0666,"[""0.304"",""0.533"",""0.830"",""0.868""]","[1,0,1,1]",0,15,15,15,1,0,0,,,1,FALSE,,,,,,,,,,,,,,,,,,,,,,,,,,,,,,
,5da903f3b5c28d0017745a1c,001,2022-04-29_01h57.56.326,classification_task,2021.2.3,Win32,59.65875194,5da903f3b5c28d0017745a1c,626b377229c10585ec392f89,626b38007479d2fb10b9a9ba,,,,,,,,,,,,,,,,,,,,,,,l,1,1.9506,"[""0.134"",""0.031"",""0.658"",""0.702""]","[1,0,1,1]",0,16,16,16,1,1,0,,,1,FALSE,,,,,,,,,,,,,,,,,,,,,,,,,,,,,,
,5da903f3b5c28d0017745a1c,001,2022-04-29_01h57.56.326,classification_task,2021.2.3,Win32,59.65875194,5da903f3b5c28d0017745a1c,626b377229c10585ec392f89,626b38007479d2fb10b9a9ba,,,,,,,,,,,,,,,,,,,,,,,a,1,1.8968,"[""0.170"",""0.467"",""0.263"",""0.967""]","[1,1,0,1]",0,17,17,17,1,0,1,,,1,FALSE,,,,,,,,,,,,,,,,,,,,,,,,,,,,,,
,5da903f3b5c28d0017745a1c,001,2022-04-29_01h57.56.326,classification_task,2021.2.3,Win32,59.65875194,5da903f3b5c28d0017745a1c,626b377229c10585ec392f89,626b38007479d2fb10b9a9ba,,,,,,,,,,,,,,,,,,,,,,,a,1,2.9376,"[""0.304"",""0.344"",""0.830"",""0.507""]","[1,1,1,0]",0,18,18,18,1,0,0,,,1,FALSE,,,,,,,,,,,,,,,,,,,,,,,,,,,,,,
,5da903f3b5c28d0017745a1c,001,2022-04-29_01h57.56.326,classification_task,2021.2.3,Win32,59.65875194,5da903f3b5c28d0017745a1c,626b377229c10585ec392f89,626b38007479d2fb10b9a9ba,,,,,,,,,,,,,,,,,,,,,,,a,1,0.7485,"[""0.041"",""0.344"",""0.830"",""0.868""]","[0,1,1,1]",0,19,19,19,1,0,0,,,1,FALSE,,,,,,,,,,,,,,,,,,,,,,,,,,,,,,
,5da903f3b5c28d0017745a1c,001,2022-04-29_01h57.56.326,classification_task,2021.2.3,Win32,59.65875194,5da903f3b5c28d0017745a1c,626b377229c10585ec392f89,626b38007479d2fb10b9a9ba,,,,,,,,,,,,,,,,,,,,,,,a,1,0.7183,"[""0.304"",""0.426"",""0.830"",""0.868""]","[1,0,1,1]",0,20,20,20,1,0,0,,,1,FALSE,,,,,,,,,,,,,,,,,,,,,,,,,,,,,,
,5da903f3b5c28d0017745a1c,001,2022-04-29_01h57.56.326,classification_task,2021.2.3,Win32,59.65875194,5da903f3b5c28d0017745a1c,626b377229c10585ec392f89,626b38007479d2fb10b9a9ba,,,,,,,,,,,,,,,,,,,,,,,l,1,3.804,"[""0.426"",""0.225"",""0.577"",""0.767""]","[0,1,1,1]",0,21,21,21,1,1,1,,,1,FALSE,,,,,,,,,,,,,,,,,,,,,,,,,,,,,,
,5da903f3b5c28d0017745a1c,001,2022-04-29_01h57.56.326,classification_task,2021.2.3,Win32,59.65875194,5da903f3b5c28d0017745a1c,626b377229c10585ec392f89,626b38007479d2fb10b9a9ba,,,,,,,,,,,,,,,,,,,,,,,a,1,1.2493,"[""0.170"",""0.467"",""0.919"",""0.270""]","[1,1,1,0]",0,22,22,22,1,0,1,,,1,FALSE,,,,,,,,,,,,,,,,,,,,,,,,,,,,,,
,5da903f3b5c28d0017745a1c,001,2022-04-29_01h57.56.326,classification_task,2021.2.3,Win32,59.65875194,5da903f3b5c28d0017745a1c,626b377229c10585ec392f89,626b38007479d2fb10b9a9ba,,,,,,,,,,,,,,,,,,,,,,,a,0,1.7362,"[""0.097"",""0.225"",""0.577"",""0.538""]","[1,1,1,0]",0,23,23,23,1,1,1,,,1,FALSE,,,,,,,,,,,,,,,,,,,,,,,,,,,,,,
,5da903f3b5c28d0017745a1c,001,2022-04-29_01h57.56.326,classification_task,2021.2.3,Win32,59.65875194,5da903f3b5c28d0017745a1c,626b377229c10585ec392f89,626b38007479d2fb10b9a9ba,,,,,,,,,,,,,,,,,,,,,,,a,1,3.1543,"[""0.044"",""0.467"",""0.919"",""0.967""]","[0,1,1,1]",0,24,24,24,1,0,1,,,1,FALSE,,,,,,,,,,,,,,,,,,,,,,,,,,,,,,
,5da903f3b5c28d0017745a1c,001,2022-04-29_01h57.56.326,classification_task,2021.2.3,Win32,59.65875194,5da903f3b5c28d0017745a1c,626b377229c10585ec392f89,626b38007479d2fb10b9a9ba,,,,,,,,,,,,,,,,,,,,,,,l,1,1.2627,"[""0.097"",""0.225"",""0.621"",""0.767""]","[1,1,0,1]",0,25,25,25,1,1,1,,,1,FALSE,,,,,,,,,,,,,,,,,,,,,,,,,,,,,,
,5da903f3b5c28d0017745a1c,001,2022-04-29_01h57.56.326,classification_task,2021.2.3,Win32,59.65875194,5da903f3b5c28d0017745a1c,626b377229c10585ec392f89,626b38007479d2fb10b9a9ba,,,,,,,,,,,,,,,,,,,,,,,l,1,1.4686,"[""0.134"",""0.387"",""0.533"",""0.702""]","[1,1,0,1]",0,26,26,26,1,1,0,,,1,FALSE,,,,,,,,,,,,,,,,,,,,,,,,,,,,,,
,5da903f3b5c28d0017745a1c,001,2022-04-29_01h57.56.326,classification_task,2021.2.3,Win32,59.65875194,5da903f3b5c28d0017745a1c,626b377229c10585ec392f89,626b38007479d2fb10b9a9ba,,,,,,,,,,,,,,,,,,,,,,,l,1,1.0132,"[""0.134"",""0.387"",""0.658"",""0.042""]","[1,1,1,0]",0,27,27,27,1,1,0,,,1,FALSE,,,,,,,,,,,,,,,,,,,,,,,,,,,,,,
,5da903f3b5c28d0017745a1c,001,2022-04-29_01h57.56.326,classification_task,2021.2.3,Win32,59.65875194,5da903f3b5c28d0017745a1c,626b377229c10585ec392f89,626b38007479d2fb10b9a9ba,,,,,,,,,,,,,,,,,,,,,,,a,1,1.0689,"[""0.170"",""0.426"",""0.919"",""0.967""]","[1,0,1,1]",0,28,28,28,1,0,1,,,1,FALSE,,,,,,,,,,,,,,,,,,,,,,,,,,,,,,
,5da903f3b5c28d0017745a1c,001,2022-04-29_01h57.56.326,classification_task,2021.2.3,Win32,59.65875194,5da903f3b5c28d0017745a1c,626b377229c10585ec392f89,626b38007479d2fb10b9a9ba,,,,,,,,,,,,,,,,,,,,,,,l,1,2.8365,"[""0.426"",""0.387"",""0.658"",""0.702""]","[0,1,1,1]",0,29,29,29,1,1,0,,,1,FALSE,,,,,,,,,,,,,,,,,,,,,,,,,,,,,,
,5da903f3b5c28d0017745a1c,001,2022-04-29_01h57.56.326,classification_task,2021.2.3,Win32,59.65875194,5da903f3b5c28d0017745a1c,626b377229c10585ec392f89,626b38007479d2fb10b9a9ba,,,,,,,,,,,,,,,,,,,,,,,a,0,5.4728,"[""0.097"",""0.031"",""0.577"",""0.767""]","[1,0,1,1]",0,30,30,30,1,1,1,,,1,FALSE,,,,,,,,,,,,,,,,,,,,,,,,,,,,,,
,5da903f3b5c28d0017745a1c,001,2022-04-29_01h57.56.326,classification_task,2021.2.3,Win32,59.65875194,5da903f3b5c28d0017745a1c,626b377229c10585ec392f89,626b38007479d2fb10b9a9ba,,,,,,,,,,,,,,,,,,,,,,,l,0,7.4537,"[""0.304"",""0.344"",""0.044"",""0.868""]","[1,1,0,1]",0,31,31,31,1,0,0,,,1,FALSE,,,,,,,,,,,,,,,,,,,,,,,,,,,,,,
,5da903f3b5c28d0017745a1c,001,2022-04-29_01h57.56.326,classification_task,2021.2.3,Win32,59.65875194,5da903f3b5c28d0017745a1c,626b377229c10585ec392f89,626b38007479d2fb10b9a9ba,,,,,,,,,,,,,,,,,,,,,,,a,1,2.1286,"[""0.304"",""0.263"",""0.830"",""0.868""]","[1,0,1,1]",0,32,32,32,1,0,0,,,1,FALSE,,,,,,,,,,,,,,,,,,,,,,,,,,,,,,
,5da903f3b5c28d0017745a1c,001,2022-04-29_01h57.56.326,classification_task,2021.2.3,Win32,59.65875194,5da903f3b5c28d0017745a1c,626b377229c10585ec392f89,626b38007479d2fb10b9a9ba,,,,,,,,,,,,,,,,,,,,,,,l,1,1.0142,"[""0.538"",""0.387"",""0.658"",""0.702""]","[0,1,1,1]",0,33,33,33,1,1,0,,,1,FALSE,,,,,,,,,,,,,,,,,,,,,,,,,,,,,,
,5da903f3b5c28d0017745a1c,001,2022-04-29_01h57.56.326,classification_task,2021.2.3,Win32,59.65875194,5da903f3b5c28d0017745a1c,626b377229c10585ec392f89,626b38007479d2fb10b9a9ba,,,,,,,,,,,,,,,,,,,,,,,a,0,4.7422,"[""0.097"",""0.225"",""0.577"",""0.033""]","[1,1,1,0]",0,34,34,34,1,1,1,,,1,FALSE,,,,,,,,,,,,,,,,,,,,,,,,,,,,,,
,5da903f3b5c28d0017745a1c,001,2022-04-29_01h57.56.326,classification_task,2021.2.3,Win32,59.65875194,5da903f3b5c28d0017745a1c,626b377229c10585ec392f89,626b38007479d2fb10b9a9ba,,,,,,,,,,,,,,,,,,,,,,,a,1,2.0983,"[""0.044"",""0.467"",""0.919"",""0.967""]","[0,1,1,1]",0,35,35,35,1,0,1,,,1,FALSE,,,,,,,,,,,,,,,,,,,,,,,,,,,,,,
,5da903f3b5c28d0017745a1c,001,2022-04-29_01h57.56.326,classification_task,2021.2.3,Win32,59.65875194,5da903f3b5c28d0017745a1c,626b377229c10585ec392f89,626b38007479d2fb10b9a9ba,,,,,,,,,,,,,,,,,,,,,,,a,0,5.5694,"[""0.097"",""0.225"",""0.533"",""0.767""]","[1,1,0,1]",0,36,36,36,1,1,1,,,1,FALSE,,,,,,,,,,,,,,,,,,,,,,,,,,,,,,
,5da903f3b5c28d0017745a1c,001,2022-04-29_01h57.56.326,classification_task,2021.2.3,Win32,59.65875194,5da903f3b5c28d0017745a1c,626b377229c10585ec392f89,626b38007479d2fb10b9a9ba,,,,,,,,,,,,,,,,,,,,,,,l,1,1.0633,"[""0.134"",""0.387"",""0.658"",""0.507""]","[1,1,1,0]",0,37,37,37,1,1,0,,,1,FALSE,,,,,,,,,,,,,,,,,,,,,,,,,,,,,,
,5da903f3b5c28d0017745a1c,001,2022-04-29_01h57.56.326,classification_task,2021.2.3,Win32,59.65875194,5da903f3b5c28d0017745a1c,626b377229c10585ec392f89,626b38007479d2fb10b9a9ba,,,,,,,,,,,,,,,,,,,,,,,a,1,2.1693,"[""0.170"",""0.467"",""0.919"",""0.533""]","[1,1,1,0]",0,38,38,38,1,0,1,,,1,FALSE,,,,,,,,,,,,,,,,,,,,,,,,,,,,,,
,5da903f3b5c28d0017745a1c,001,2022-04-29_01h57.56.326,classification_task,2021.2.3,Win32,59.65875194,5da903f3b5c28d0017745a1c,626b377229c10585ec392f89,626b38007479d2fb10b9a9ba,,,,,,,,,,,,,,,,,,,,,,,a,0,1.7512,"[""0.134"",""0.049"",""0.658"",""0.702""]","[1,0,1,1]",0,39,39,39,1,1,0,,,1,FALSE,,,,,,,,,,,,,,,,,,,,,,,,,,,,,,
,5da903f3b5c28d0017745a1c,001,2022-04-29_01h57.56.326,classification_task,2021.2.3,Win32,59.65875194,5da903f3b5c28d0017745a1c,626b377229c10585ec392f89,626b38007479d2fb10b9a9ba,,,,,,,,,,,,,,,,,,,,,,,a,1,2.1833,"[""0.304"",""0.344"",""0.538"",""0.868""]","[1,1,0,1]",0,40,40,40,1,0,0,,,1,FALSE,,,,,,,,,,,,,,,,,,,,,,,,,,,,,,
,5da903f3b5c28d0017745a1c,001,2022-04-29_01h57.56.326,classification_task,2021.2.3,Win32,59.65875194,5da903f3b5c28d0017745a1c,626b377229c10585ec392f89,626b38007479d2fb10b9a9ba,,,,,,,,,,,,,,,,,,,,,,,a,1,4.7515,"[""0.033"",""0.344"",""0.830"",""0.868""]","[0,1,1,1]",0,41,41,41,1,0,0,,,1,FALSE,,,,,,,,,,,,,,,,,,,,,,,,,,,,,,
,5da903f3b5c28d0017745a1c,001,2022-04-29_01h57.56.326,classification_task,2021.2.3,Win32,59.65875194,5da903f3b5c28d0017745a1c,626b377229c10585ec392f89,626b38007479d2fb10b9a9ba,,,,,,,,,,,,,,,,,,,,,,,,0,,"[""0.304"",""0.344"",""0.830"",""0.426""]","[1,1,1,0]",0,42,42,42,1,0,0,,,1,FALSE,,,,,,,,,,,,,,,,,,,,,,,,,,,,,,
,5da903f3b5c28d0017745a1c,001,2022-04-29_01h57.56.326,classification_task,2021.2.3,Win32,59.65875194,5da903f3b5c28d0017745a1c,626b377229c10585ec392f89,626b38007479d2fb10b9a9ba,,,,,,,,,,,,,,,,,,,,,,,,0,,"[""0.621"",""0.225"",""0.577"",""0.767""]","[0,1,1,1]",0,43,43,43,1,1,1,,,1,FALSE,,,,,,,,,,,,,,,,,,,,,,,,,,,,,,
,5da903f3b5c28d0017745a1c,001,2022-04-29_01h57.56.326,classification_task,2021.2.3,Win32,59.65875194,5da903f3b5c28d0017745a1c,626b377229c10585ec392f89,626b38007479d2fb10b9a9ba,,,,,,,,,,,,,,,,,,,,,,,l,1,1.7465,"[""0.097"",""0.621"",""0.577"",""0.767""]","[1,0,1,1]",0,44,44,44,1,1,1,,,1,FALSE,,,,,,,,,,,,,,,,,,,,,,,,,,,,,,
,5da903f3b5c28d0017745a1c,001,2022-04-29_01h57.56.326,classification_task,2021.2.3,Win32,59.65875194,5da903f3b5c28d0017745a1c,626b377229c10585ec392f89,626b38007479d2fb10b9a9ba,,,,,,,,,,,,,,,,,,,,,,,a,1,1.1536,"[""0.170"",""0.038"",""0.919"",""0.967""]","[1,0,1,1]",0,45,45,45,1,0,1,,,1,FALSE,,,,,,,,,,,,,,,,,,,,,,,,,,,,,,
,5da903f3b5c28d0017745a1c,001,2022-04-29_01h57.56.326,classification_task,2021.2.3,Win32,59.65875194,5da903f3b5c28d0017745a1c,626b377229c10585ec392f89,626b38007479d2fb10b9a9ba,,,,,,,,,,,,,,,,,,,,,,,a,1,3.0351,"[""0.170"",""0.467"",""0.044"",""0.967""]","[1,1,0,1]",0,46,46,46,1,0,1,,,1,FALSE,,,,,,,,,,,,,,,,,,,,,,,,,,,,,,
,5da903f3b5c28d0017745a1c,001,2022-04-29_01h57.56.326,classification_task,2021.2.3,Win32,59.65875194,5da903f3b5c28d0017745a1c,626b377229c10585ec392f89,626b38007479d2fb10b9a9ba,,,,,,,,,,,,,,,,,,,,,,,l,1,3.7827,"[""0.134"",""0.387"",""0.049"",""0.702""]","[1,1,0,1]",0,47,47,47,1,1,0,,,1,FALSE,,,,,,,,,,,,,,,,,,,,,,,,,,,,,,
,5da903f3b5c28d0017745a1c,001,2022-04-29_01h57.56.326,classification_task,2021.2.3,Win32,59.65875194,5da903f3b5c28d0017745a1c,626b377229c10585ec392f89,626b38007479d2fb10b9a9ba,,,,,,,,,,,,,,,,,,,,,,,a,1,1.1159,"[""0.304"",""0.041"",""0.830"",""0.868""]","[1,0,1,1]",0,48,48,48,1,0,0,,,1,FALSE,,,,,,,,,,,,,,,,,,,,,,,,,,,,,,
,5da903f3b5c28d0017745a1c,001,2022-04-29_01h57.56.326,classification_task,2021.2.3,Win32,59.65875194,5da903f3b5c28d0017745a1c,626b377229c10585ec392f89,626b38007479d2fb10b9a9ba,,,,,,,,,,,,,,,,,,,,,,,a,1,0.7171,"[""0.510"",""0.344"",""0.830"",""0.868""]","[0,1,1,1]",0,49,49,49,1,0,0,,,1,FALSE,,,,,,,,,,,,,,,,,,,,,,,,,,,,,,
,5da903f3b5c28d0017745a1c,001,2022-04-29_01h57.56.326,classification_task,2021.2.3,Win32,59.65875194,5da903f3b5c28d0017745a1c,626b377229c10585ec392f89,626b38007479d2fb10b9a9ba,,,,,,,,,,,,,,,,,,,,,,,a,0,3.5549,"[""0.097"",""0.225"",""0.577"",""0.507""]","[1,1,1,0]",0,50,50,50,1,1,1,,,1,FALSE,,,,,,,,,,,,,,,,,,,,,,,,,,,,,,
,5da903f3b5c28d0017745a1c,001,2022-04-29_01h57.56.326,classification_task,2021.2.3,Win32,59.65875194,5da903f3b5c28d0017745a1c,626b377229c10585ec392f89,626b38007479d2fb10b9a9ba,,,,,,,,,,,,,,,,,,,,,,,l,1,3.865,"[""0.033"",""0.225"",""0.577"",""0.767""]","[0,1,1,1]",0,51,51,51,1,1,1,,,1,FALSE,,,,,,,,,,,,,,,,,,,,,,,,,,,,,,
,5da903f3b5c28d0017745a1c,001,2022-04-29_01h57.56.326,classification_task,2021.2.3,Win32,59.65875194,5da903f3b5c28d0017745a1c,626b377229c10585ec392f89,626b38007479d2fb10b9a9ba,,,,,,,,,,,,,,,,,,,,,,,l,1,1.6305,"[""0.134"",""0.538"",""0.658"",""0.702""]","[1,0,1,1]",0,52,52,52,1,1,0,,,1,FALSE,,,,,,,,,,,,,,,,,,,,,,,,,,,,,,
,5da903f3b5c28d0017745a1c,001,2022-04-29_01h57.56.326,classification_task,2021.2.3,Win32,59.65875194,5da903f3b5c28d0017745a1c,626b377229c10585ec392f89,626b38007479d2fb10b9a9ba,,,,,,,,,,,,,,,,,,,,,,,l,1,1.1528,"[""0.134"",""0.387"",""0.042"",""0.702""]","[1,1,0,1]",0,53,53,53,1,1,0,,,1,FALSE,,,,,,,,,,,,,,,,,,,,,,,,,,,,,,
,5da903f3b5c28d0017745a1c,001,2022-04-29_01h57.56.326,classification_task,2021.2.3,Win32,59.65875194,5da903f3b5c28d0017745a1c,626b377229c10585ec392f89,626b38007479d2fb10b9a9ba,,,,,,,,,,,,,,,,,,,,,,,a,1,2.3202,"[""0.304"",""0.344"",""0.830"",""0.033""]","[1,1,1,0]",0,54,54,54,1,0,0,,,1,FALSE,,,,,,,,,,,,,,,,,,,,,,,,,,,,,,
,5da903f3b5c28d0017745a1c,001,2022-04-29_01h57.56.326,classification_task,2021.2.3,Win32,59.65875194,5da903f3b5c28d0017745a1c,626b377229c10585ec392f89,626b38007479d2fb10b9a9ba,,,,,,,,,,,,,,,,,,,,,,,l,1,2.0803,"[""0.621"",""0.387"",""0.658"",""0.702""]","[0,1,1,1]",0,55,55,55,1,1,0,,,1,FALSE,,,,,,,,,,,,,,,,,,,,,,,,,,,,,,
,5da903f3b5c28d0017745a1c,001,2022-04-29_01h57.56.326,classification_task,2021.2.3,Win32,59.65875194,5da903f3b5c28d0017745a1c,626b377229c10585ec392f89,626b38007479d2fb10b9a9ba,,,,,,,,,,,,,,,,,,,,,,,l,1,1.9502,"[""0.097"",""0.225"",""0.621"",""0.767""]","[1,1,0,1]",0,56,56,56,1,1,1,,,1,FALSE,,,,,,,,,,,,,,,,,,,,,,,,,,,,,,
,5da903f3b5c28d0017745a1c,001,2022-04-29_01h57.56.326,classification_task,2021.2.3,Win32,59.65875194,5da903f3b5c28d0017745a1c,626b377229c10585ec392f89,626b38007479d2fb10b9a9ba,,,,,,,,,,,,,,,,,,,,,,,a,1,1.7195,"[""0.170"",""0.467"",""0.919"",""0.612""]","[1,1,1,0]",0,57,57,57,1,0,1,,,1,FALSE,,,,,,,,,,,,,,,,,,,,,,,,,,,,,,
,5da903f3b5c28d0017745a1c,001,2022-04-29_01h57.56.326,classification_task,2021.2.3,Win32,59.65875194,5da903f3b5c28d0017745a1c,626b377229c10585ec392f89,626b38007479d2fb10b9a9ba,,,,,,,,,,,,,,,,,,,,,,,a,1,0.9455,"[""0.170"",""0.426"",""0.919"",""0.967""]","[1,0,1,1]",0,58,58,58,1,0,1,,,1,FALSE,,,,,,,,,,,,,,,,,,,,,,,,,,,,,,
,5da903f3b5c28d0017745a1c,001,2022-04-29_01h57.56.326,classification_task,2021.2.3,Win32,59.65875194,5da903f3b5c28d0017745a1c,626b377229c10585ec392f89,626b38007479d2fb10b9a9ba,,,,,,,,,,,,,,,,,,,,,,,a,1,0.7498,"[""0.538"",""0.467"",""0.919"",""0.967""]","[0,1,1,1]",0,59,59,59,1,0,1,,,1,FALSE,,,,,,,,,,,,,,,,,,,,,,,,,,,,,,
,5da903f3b5c28d0017745a1c,001,2022-04-29_01h57.56.326,classification_task,2021.2.3,Win32,59.65875194,5da903f3b5c28d0017745a1c,626b377229c10585ec392f89,626b38007479d2fb10b9a9ba,,,,,,,,,,,,,,,,,,,,,,,a,1,1.0019,"[""0.170"",""0.467"",""0.044"",""0.967""]","[1,1,0,1]",0,60,60,60,1,0,1,,,1,FALSE,,,,,,,,,,,,,,,,,,,,,,,,,,,,,,
,5da903f3b5c28d0017745a1c,001,2022-04-29_01h57.56.326,classification_task,2021.2.3,Win32,59.65875194,5da903f3b5c28d0017745a1c,626b377229c10585ec392f89,626b38007479d2fb10b9a9ba,,,,,,,,,,,,,,,,,,,,,,,l,1,1.7198,"[""0.097"",""0.621"",""0.577"",""0.767""]","[1,0,1,1]",0,61,61,61,1,1,1,,,1,FALSE,,,,,,,,,,,,,,,,,,,,,,,,,,,,,,
,5da903f3b5c28d0017745a1c,001,2022-04-29_01h57.56.326,classification_task,2021.2.3,Win32,59.65875194,5da903f3b5c28d0017745a1c,626b377229c10585ec392f89,626b38007479d2fb10b9a9ba,,,,,,,,,,,,,,,,,,,,,,,l,1,3.8833,"[""0.134"",""0.387"",""0.658"",""0.041""]","[1,1,1,0]",0,62,62,62,1,1,0,,,1,FALSE,,,,,,,,,,,,,,,,,,,,,,,,,,,,,,
,5da903f3b5c28d0017745a1c,001,2022-04-29_01h57.56.326,classification_task,2021.2.3,Win32,59.65875194,5da903f3b5c28d0017745a1c,626b377229c10585ec392f89,626b38007479d2fb10b9a9ba,,,,,,,,,,,,,,,,,,,,,,,a,1,2.2522,"[""0.304"",""0.344"",""0.263"",""0.868""]","[1,1,0,1]",0,63,63,63,1,0,0,,,1,FALSE,,,,,,,,,,,,,,,,,,,,,,,,,,,,,,
,5da903f3b5c28d0017745a1c,001,2022-04-29_01h57.56.326,classification_task,2021.2.3,Win32,59.65875194,5da903f3b5c28d0017745a1c,626b377229c10585ec392f89,626b38007479d2fb10b9a9ba,,,,,,,,,,,,,,,,,,,,,,,,,,,,,,,,,,,,,,,0, ,,0,3.162845385,260.9336,0,2,2,2,1,2,3,,,,,,,,,,,,,,,,,
,5da903f3b5c28d0017745a1c,001,2022-04-29_01h57.56.326,classification_task,2021.2.3,Win32,59.65875194,5da903f3b5c28d0017745a1c,626b377229c10585ec392f89,626b38007479d2fb10b9a9ba,,,,,,,,,,,,,,,,,,,,,,,,,,,,,,,,,,,,,,,1,  ,,0,9.48265726,262.2939,0,2,2,2,1,2,3,,,,,,,,,,,,,,,,,
,5da903f3b5c28d0017745a1c,001,2022-04-29_01h57.56.326,classification_task,2021.2.3,Win32,59.65875194,5da903f3b5c28d0017745a1c,626b377229c10585ec392f89,626b38007479d2fb10b9a9ba,,,,,,,,,,,,,,,,,,,,,,,,,,,,,,,,,,,,,,,2,  ,,0,9.703115814,258.6537,0,2,2,2,1,2,3,,,,,,,,,,,,,,,,,
,5da903f3b5c28d0017745a1c,001,2022-04-29_01h57.56.326,classification_task,2021.2.3,Win32,59.65875194,5da903f3b5c28d0017745a1c,626b377229c10585ec392f89,626b38007479d2fb10b9a9ba,,,,,,,,,,,,,,,,,,,,,,,,,,,,,,,,,,,,,,,,,,,,,0,2,2,2,1,,3,,,,,,,,,,,,,,,,,
,5da903f3b5c28d0017745a1c,001,2022-04-29_01h57.56.326,classification_task,2021.2.3,Win32,59.65875194,5da903f3b5c28d0017745a1c,626b377229c10585ec392f89,626b38007479d2fb10b9a9ba,,,,,,,,,,,,,,,,,,,,,,,,,,,,,,,,,,,,,,,,,,,,,,,,,,,,,I believe the aid is a competent performer,,0.7,0,4,1106.4864,0,0,0,0,1,0,,,,
,5da903f3b5c28d0017745a1c,001,2022-04-29_01h57.56.326,classification_task,2021.2.3,Win32,59.65875194,5da903f3b5c28d0017745a1c,626b377229c10585ec392f89,626b38007479d2fb10b9a9ba,,,,,,,,,,,,,,,,,,,,,,,,,,,,,,,,,,,,,,,,,,,,,,,,,,,,,I trust the aid,,0.7,0,5,1107.5383,0,0,0,0,1,0,,,,
,5da903f3b5c28d0017745a1c,001,2022-04-29_01h57.56.326,classification_task,2021.2.3,Win32,59.65875194,5da903f3b5c28d0017745a1c,626b377229c10585ec392f89,626b38007479d2fb10b9a9ba,,,,,,,,,,,,,,,,,,,,,,,,,,,,,,,,,,,,,,,,,,,,,,,,,,,,,I have confidence in the advice given by the aid,,0.7,0,4,1109.289,0,0,0,0,1,0,,,,
,5da903f3b5c28d0017745a1c,001,2022-04-29_01h57.56.326,classification_task,2021.2.3,Win32,59.65875194,5da903f3b5c28d0017745a1c,626b377229c10585ec392f89,626b38007479d2fb10b9a9ba,,,,,,,,,,,,,,,,,,,,,,,,,,,,,,,,,,,,,,,,,,,,,,,,,,,,,I can depend on the aid,,0.7,0,4,1111.68,0,0,0,0,1,0,,,,
,5da903f3b5c28d0017745a1c,001,2022-04-29_01h57.56.326,classification_task,2021.2.3,Win32,59.65875194,5da903f3b5c28d0017745a1c,626b377229c10585ec392f89,626b38007479d2fb10b9a9ba,,,,,,,,,,,,,,,,,,,,,,,,,,,,,,,,,,,,,,,,,,,,,,,,,,,,,I can rely on the aid to behave in consistent ways,,0.7,0,4,1114.8495,0,0,0,0,1,0,,,,
,5da903f3b5c28d0017745a1c,001,2022-04-29_01h57.56.326,classification_task,2021.2.3,Win32,59.65875194,5da903f3b5c28d0017745a1c,626b377229c10585ec392f89,626b38007479d2fb10b9a9ba,,,,,,,,,,,,,,,,,,,,,,,,,,,,,,,,,,,,,,,,,,,,,,,,,,,,,I can rely on the aid to do its best every time I take its advice,,0.7,0,5,1137.9612,0,0,0,0,1,0,,,,
,5da903f3b5c28d0017745a1c,001,2022-04-29_01h57.56.326,classification_task,2021.2.3,Win32,59.65875194,5da903f3b5c28d0017745a1c,626b377229c10585ec392f89,626b38007479d2fb10b9a9ba,,,,,,,,,,,,,,,,,,,,,,,,,,,,,,,,,,,,,,,,,,,,,,,,,,,,,"On trials you completed with assistance from the aid, how frequently did you think the aid was correct?",,0.7,0,100%,,0,0,0,0,1,0,,,,
,5da903f3b5c28d0017745a1c,001,2022-04-29_01h57.56.326,classification_task,2021.2.3,Win32,59.65875194,5da903f3b5c28d0017745a1c,626b377229c10585ec392f89,626b38007479d2fb10b9a9ba,,,,,,,,,,,,,,,,,,,,,,,,,,,,,,,,,,,,,,,,,,,,,,,,,,,,,"On trials you completed without the aid, how frequently did you think you were correct?",,0.7,0,30%,,0,0,0,0,1,0,,,,
,5da903f3b5c28d0017745a1c,001,2022-04-29_01h57.56.326,classification_task,2021.2.3,Win32,59.65875194,5da903f3b5c28d0017745a1c,626b377229c10585ec392f89,626b38007479d2fb10b9a9ba,,,,,,,,,,,,,,,,,,,,,,,,,,,,,,,,,,,,,,,,,,,,,,,,,,,,,,,,,,,0,0,0,0,1,,,,,
,5da903f3b5c28d0017745a1c,001,2022-04-29_01h57.56.326,classification_task,2021.2.3,Win32,59.65875194,5da903f3b5c28d0017745a1c,626b377229c10585ec392f89,626b38007479d2fb10b9a9ba,,,,,,,,,,,,,,,,,,,,,,,,,,,,,,,,,,,,,,,,,,,,,,,,,,,,,,,,,,,,,,,,,space,9.0001,1147.917,
,5da903f3b5c28d0017745a1c,001,2022-04-29_01h57.56.326,classification_task,2021.2.3,Win32,59.65875194,5da903f3b5c28d0017745a1c,626b377229c10585ec392f89,626b38007479d2fb10b9a9ba,,,,,,,,,,,,,,,,,,,,,,,,,,,,,,,,,,,,,,,,,,,,,,,,,,,,,,,,,,,,,,,,,,,,"Mozilla/5.0 (Windows NT 10.0; Win64; x64) AppleWebKit/537.36 (KHTML, like Gecko) Chrome/100.0.4896.127 Safari/537.36 Edg/100.0.1185.50"
