usingWebGL,participant,session,date,expName,psychopyVersion,OS,frameRate,PROLIFIC_PID,STUDY_ID,SESSION_ID,signatures_friend,signatures_foe,band_ranges_top,band_ranges_bottom,formitemText,formtype,formundefined,formitemWidth,formindex,formresponse,formrt,key_resp_2.keys,key_resp_2.rt,tute_resp.keys,tute_resp.rt,tutorial.thisRepN,tutorial.thisTrialN,tutorial.thisN,tutorial.thisIndex,tutorial.ran,key_resp_4.keys,key_resp_4.rt,key_resp.keys,key_resp.corr,key_resp.rt,lines_presented,is_signal_presented,trials.thisRepN,trials.thisTrialN,trials.thisN,trials.thisIndex,trials.ran,vessel,active_band,lines,is_signal,supported_pos,catch_trial,debrief_formindex,debrief_formitemText,debrief_formtype,debrief_formitemWidth,debrief_formresponse,debrief_formrt,phases.thisRepN,phases.thisTrialN,phases.thisN,phases.thisIndex,phases.ran,phases.order,phase,key_resp_3.keys,trustitemText,trusttype,trustitemWidth,trustindex,trustresponse,trustrt,support_status.thisRepN,support_status.thisTrialN,support_status.thisN,support_status.thisIndex,support_status.ran,support_status.order,key_resp_5.keys,key_resp_5.rt,globalClockTime,userAgent
TRUE,5df42244946e972fd0bfeddb,001,2022-04-29_04h02.22.845,classification_task,2021.2.3,Win32,143.9055979,5df42244946e972fd0bfeddb,626b377229c10585ec392f8a,626b390edce70f07abfb883a,,,,,,,,,,,,,,,,,,,,,,,,,,,,,,,,,,,,,,,,,,,,,,,,,,,,,,,,,,,,,,,,,,,,
,5df42244946e972fd0bfeddb,001,2022-04-29_04h02.22.845,classification_task,2021.2.3,Win32,143.9055979,5df42244946e972fd0bfeddb,626b377229c10585ec392f8a,626b390edce70f07abfb883a,"[[""0.178"",""0.509"",""0.901"",""0.955""],[""0.221"",""0.472"",""0.608"",""0.852""]]","[[""0.138"",""0.355"",""0.544"",""0.712""],[""0.071"",""0.286"",""0.670"",""0.800""]]","[1,10]","[100,1000]",Video game experience,,,0.7,0,,,,,,,,,,,,,,,,,,,,,,,,,,,,,,,,,,,,,,,,,,,,,,,,,,,,,,,,,,,
,5df42244946e972fd0bfeddb,001,2022-04-29_04h02.22.845,classification_task,2021.2.3,Win32,143.9055979,5df42244946e972fd0bfeddb,626b377229c10585ec392f8a,626b390edce70f07abfb883a,,,,,Approximately how many hours did you spend playing video games in the last week?,,,0.7,0,3,,,,,,,,,,,,,,,,,,,,,,,,,,,,,,,,,,,,,,,,,,,,,,,,,,,,,,,,,,
,5df42244946e972fd0bfeddb,001,2022-04-29_04h02.22.845,classification_task,2021.2.3,Win32,143.9055979,5df42244946e972fd0bfeddb,626b377229c10585ec392f8a,626b390edce70f07abfb883a,,,,,"Which game did you play the most this year? (Enter ""None"" if you didn't play any)",,,0.7,0,pubg,,,,,,,,,,,,,,,,,,,,,,,,,,,,,,,,,,,,,,,,,,,,,,,,,,,,,,,,,,
,5df42244946e972fd0bfeddb,001,2022-04-29_04h02.22.845,classification_task,2021.2.3,Win32,143.9055979,5df42244946e972fd0bfeddb,626b377229c10585ec392f8a,626b390edce70f07abfb883a,,,,,Visual perception,,,0.7,0,,,,,,,,,,,,,,,,,,,,,,,,,,,,,,,,,,,,,,,,,,,,,,,,,,,,,,,,,,,
,5df42244946e972fd0bfeddb,001,2022-04-29_04h02.22.845,classification_task,2021.2.3,Win32,143.9055979,5df42244946e972fd0bfeddb,626b377229c10585ec392f8a,626b390edce70f07abfb883a,,,,,Do you have any form of color blindness?,,,0.7,0,No,7.5767,,,,,,,,,,,,,,,,,,,,,,,,,,,,,,,,,,,,,,,,,,,,,,,,,,,,,,,,,
,5df42244946e972fd0bfeddb,001,2022-04-29_04h02.22.845,classification_task,2021.2.3,Win32,143.9055979,5df42244946e972fd0bfeddb,626b377229c10585ec392f8a,626b390edce70f07abfb883a,,,,,Do you use software to change the colour temperature of your screen (e.g. f.lux)?,,,0.7,0,No,8.6379,,,,,,,,,,,,,,,,,,,,,,,,,,,,,,,,,,,,,,,,,,,,,,,,,,,,,,,,,
,5df42244946e972fd0bfeddb,001,2022-04-29_04h02.22.845,classification_task,2021.2.3,Win32,143.9055979,5df42244946e972fd0bfeddb,626b377229c10585ec392f8a,626b390edce70f07abfb883a,,,,,,,,,,,,space,10.0918,space,23.1697,0,0,0,0,1,,,,,,,,,,,,,,,,,,,,,,,,,,,,,,,,,,,,,,,,,,,,,,,,
,5df42244946e972fd0bfeddb,001,2022-04-29_04h02.22.845,classification_task,2021.2.3,Win32,143.9055979,5df42244946e972fd0bfeddb,626b377229c10585ec392f8a,626b390edce70f07abfb883a,,,,,,,,,,,,,,space,27.5871,1,0,1,0,1,,,,,,,,,,,,,,,,,,,,,,,,,,,,,,,,,,,,,,,,,,,,,,,,
,5df42244946e972fd0bfeddb,001,2022-04-29_04h02.22.845,classification_task,2021.2.3,Win32,143.9055979,5df42244946e972fd0bfeddb,626b377229c10585ec392f8a,626b390edce70f07abfb883a,,,,,,,,,,,,,,space,82.1946,2,0,2,0,1,,,,,,,,,,,,,,,,,,,,,,,,,,,,,,,,,,,,,,,,,,,,,,,,
,5df42244946e972fd0bfeddb,001,2022-04-29_04h02.22.845,classification_task,2021.2.3,Win32,143.9055979,5df42244946e972fd0bfeddb,626b377229c10585ec392f8a,626b390edce70f07abfb883a,,,,,,,,,,,,,,space,27.5856,3,0,3,0,1,,,,,,,,,,,,,,,,,,,,,,,,,,,,,,,,,,,,,,,,,,,,,,,,
,5df42244946e972fd0bfeddb,001,2022-04-29_04h02.22.845,classification_task,2021.2.3,Win32,143.9055979,5df42244946e972fd0bfeddb,626b377229c10585ec392f8a,626b390edce70f07abfb883a,,,,,,,,,,,,,,space,8.8965,4,0,4,0,1,,,,,,,,,,,,,,,,,,,,,,,,,,,,,,,,,,,,,,,,,,,,,,,,
,5df42244946e972fd0bfeddb,001,2022-04-29_04h02.22.845,classification_task,2021.2.3,Win32,143.9055979,5df42244946e972fd0bfeddb,626b377229c10585ec392f8a,626b390edce70f07abfb883a,,,,,,,,,,,,,,,,,,,,,space,68.8553,l,1,4.8631,"[""0.071"",""0.286"",""0.031"",""0.800""]","[1,1,0,1]",0,0,0,0,1,1,1,,,1,FALSE,,,,,,,,,,,,,,,,,,,,,,,,,,,,,,
,5df42244946e972fd0bfeddb,001,2022-04-29_04h02.22.845,classification_task,2021.2.3,Win32,143.9055979,5df42244946e972fd0bfeddb,626b377229c10585ec392f8a,626b390edce70f07abfb883a,,,,,,,,,,,,,,,,,,,,,,,l,1,6.5017,"[""0.031"",""0.355"",""0.544"",""0.712""]","[0,1,1,1]",0,1,1,1,1,1,0,,,1,FALSE,,,,,,,,,,,,,,,,,,,,,,,,,,,,,,
,5df42244946e972fd0bfeddb,001,2022-04-29_04h02.22.845,classification_task,2021.2.3,Win32,143.9055979,5df42244946e972fd0bfeddb,626b377229c10585ec392f8a,626b390edce70f07abfb883a,,,,,,,,,,,,,,,,,,,,,,,l,1,3.7581,"[""0.071"",""0.418"",""0.670"",""0.800""]","[1,0,1,1]",0,2,2,2,1,1,1,,,1,FALSE,,,,,,,,,,,,,,,,,,,,,,,,,,,,,,
,5df42244946e972fd0bfeddb,001,2022-04-29_04h02.22.845,classification_task,2021.2.3,Win32,143.9055979,5df42244946e972fd0bfeddb,626b377229c10585ec392f8a,626b390edce70f07abfb883a,,,,,,,,,,,,,,,,,,,,,,,l,1,3.0086,"[""0.138"",""0.032"",""0.544"",""0.712""]","[1,0,1,1]",0,3,3,3,1,1,0,,,1,FALSE,,,,,,,,,,,,,,,,,,,,,,,,,,,,,,
,5df42244946e972fd0bfeddb,001,2022-04-29_04h02.22.845,classification_task,2021.2.3,Win32,143.9055979,5df42244946e972fd0bfeddb,626b377229c10585ec392f8a,626b390edce70f07abfb883a,,,,,,,,,,,,,,,,,,,,,,,a,1,2.5247,"[""0.399"",""0.509"",""0.901"",""0.955""]","[0,1,1,1]",0,4,4,4,1,0,0,,,1,FALSE,,,,,,,,,,,,,,,,,,,,,,,,,,,,,,
,5df42244946e972fd0bfeddb,001,2022-04-29_04h02.22.845,classification_task,2021.2.3,Win32,143.9055979,5df42244946e972fd0bfeddb,626b377229c10585ec392f8a,626b390edce70f07abfb883a,,,,,,,,,,,,,,,,,,,,,,,l,1,3.6547,"[""0.071"",""0.286"",""0.670"",""0.748""]","[1,1,1,0]",0,5,5,5,1,1,1,,,1,FALSE,,,,,,,,,,,,,,,,,,,,,,,,,,,,,,
,5df42244946e972fd0bfeddb,001,2022-04-29_04h02.22.845,classification_task,2021.2.3,Win32,143.9055979,5df42244946e972fd0bfeddb,626b377229c10585ec392f8a,626b390edce70f07abfb883a,,,,,,,,,,,,,,,,,,,,,,,a,1,2.506,"[""0.221"",""0.472"",""0.032"",""0.852""]","[1,1,0,1]",0,6,6,6,1,0,1,,,1,FALSE,,,,,,,,,,,,,,,,,,,,,,,,,,,,,,
,5df42244946e972fd0bfeddb,001,2022-04-29_04h02.22.845,classification_task,2021.2.3,Win32,143.9055979,5df42244946e972fd0bfeddb,626b377229c10585ec392f8a,626b390edce70f07abfb883a,,,,,,,,,,,,,,,,,,,,,,,a,1,3.1333,"[""0.178"",""0.509"",""0.033"",""0.955""]","[1,1,0,1]",0,7,7,7,1,0,0,,,1,FALSE,,,,,,,,,,,,,,,,,,,,,,,,,,,,,,
,5df42244946e972fd0bfeddb,001,2022-04-29_04h02.22.845,classification_task,2021.2.3,Win32,143.9055979,5df42244946e972fd0bfeddb,626b377229c10585ec392f8a,626b390edce70f07abfb883a,,,,,,,,,,,,,,,,,,,,,,,a,1,1.9451,"[""0.178"",""0.509"",""0.901"",""0.401""]","[1,1,1,0]",0,8,8,8,1,0,0,,,1,FALSE,,,,,,,,,,,,,,,,,,,,,,,,,,,,,,
,5df42244946e972fd0bfeddb,001,2022-04-29_04h02.22.845,classification_task,2021.2.3,Win32,143.9055979,5df42244946e972fd0bfeddb,626b377229c10585ec392f8a,626b390edce70f07abfb883a,,,,,,,,,,,,,,,,,,,,,,,l,1,2.068,"[""0.033"",""0.286"",""0.670"",""0.800""]","[0,1,1,1]",0,9,9,9,1,1,1,,,1,FALSE,,,,,,,,,,,,,,,,,,,,,,,,,,,,,,
,5df42244946e972fd0bfeddb,001,2022-04-29_04h02.22.845,classification_task,2021.2.3,Win32,143.9055979,5df42244946e972fd0bfeddb,626b377229c10585ec392f8a,626b390edce70f07abfb883a,,,,,,,,,,,,,,,,,,,,,,,a,1,2.1975,"[""0.221"",""0.472"",""0.608"",""0.395""]","[1,1,1,0]",0,10,10,10,1,0,1,,,1,FALSE,,,,,,,,,,,,,,,,,,,,,,,,,,,,,,
,5df42244946e972fd0bfeddb,001,2022-04-29_04h02.22.845,classification_task,2021.2.3,Win32,143.9055979,5df42244946e972fd0bfeddb,626b377229c10585ec392f8a,626b390edce70f07abfb883a,,,,,,,,,,,,,,,,,,,,,,,a,1,1.5401,"[""0.221"",""0.033"",""0.608"",""0.852""]","[1,0,1,1]",0,11,11,11,1,0,1,,,1,FALSE,,,,,,,,,,,,,,,,,,,,,,,,,,,,,,
,5df42244946e972fd0bfeddb,001,2022-04-29_04h02.22.845,classification_task,2021.2.3,Win32,143.9055979,5df42244946e972fd0bfeddb,626b377229c10585ec392f8a,626b390edce70f07abfb883a,,,,,,,,,,,,,,,,,,,,,,,l,0,1.3526,"[""0.418"",""0.472"",""0.608"",""0.852""]","[0,1,1,1]",0,12,12,12,1,0,1,,,1,FALSE,,,,,,,,,,,,,,,,,,,,,,,,,,,,,,
,5df42244946e972fd0bfeddb,001,2022-04-29_04h02.22.845,classification_task,2021.2.3,Win32,143.9055979,5df42244946e972fd0bfeddb,626b377229c10585ec392f8a,626b390edce70f07abfb883a,,,,,,,,,,,,,,,,,,,,,,,l,1,1.9707,"[""0.138"",""0.355"",""0.418"",""0.712""]","[1,1,0,1]",0,13,13,13,1,1,0,,,1,FALSE,,,,,,,,,,,,,,,,,,,,,,,,,,,,,,
,5df42244946e972fd0bfeddb,001,2022-04-29_04h02.22.845,classification_task,2021.2.3,Win32,143.9055979,5df42244946e972fd0bfeddb,626b377229c10585ec392f8a,626b390edce70f07abfb883a,,,,,,,,,,,,,,,,,,,,,,,l,1,1.6392,"[""0.138"",""0.355"",""0.544"",""0.033""]","[1,1,1,0]",0,14,14,14,1,1,0,,,1,FALSE,,,,,,,,,,,,,,,,,,,,,,,,,,,,,,
,5df42244946e972fd0bfeddb,001,2022-04-29_04h02.22.845,classification_task,2021.2.3,Win32,143.9055979,5df42244946e972fd0bfeddb,626b377229c10585ec392f8a,626b390edce70f07abfb883a,,,,,,,,,,,,,,,,,,,,,,,a,1,1.6721,"[""0.178"",""0.418"",""0.901"",""0.955""]","[1,0,1,1]",0,15,15,15,1,0,0,,,1,FALSE,,,,,,,,,,,,,,,,,,,,,,,,,,,,,,
,5df42244946e972fd0bfeddb,001,2022-04-29_04h02.22.845,classification_task,2021.2.3,Win32,143.9055979,5df42244946e972fd0bfeddb,626b377229c10585ec392f8a,626b390edce70f07abfb883a,,,,,,,,,,,,,,,,,,,,,,,l,0,2.7574,"[""0.221"",""0.033"",""0.608"",""0.852""]","[1,0,1,1]",0,16,16,16,1,0,1,,,1,FALSE,,,,,,,,,,,,,,,,,,,,,,,,,,,,,,
,5df42244946e972fd0bfeddb,001,2022-04-29_04h02.22.845,classification_task,2021.2.3,Win32,143.9055979,5df42244946e972fd0bfeddb,626b377229c10585ec392f8a,626b390edce70f07abfb883a,,,,,,,,,,,,,,,,,,,,,,,l,1,1.9792,"[""0.071"",""0.286"",""0.670"",""0.033""]","[1,1,1,0]",0,17,17,17,1,1,1,,,1,FALSE,,,,,,,,,,,,,,,,,,,,,,,,,,,,,,
,5df42244946e972fd0bfeddb,001,2022-04-29_04h02.22.845,classification_task,2021.2.3,Win32,143.9055979,5df42244946e972fd0bfeddb,626b377229c10585ec392f8a,626b390edce70f07abfb883a,,,,,,,,,,,,,,,,,,,,,,,l,0,1.6929,"[""0.221"",""0.472"",""0.399"",""0.852""]","[1,1,0,1]",0,18,18,18,1,0,1,,,1,FALSE,,,,,,,,,,,,,,,,,,,,,,,,,,,,,,
,5df42244946e972fd0bfeddb,001,2022-04-29_04h02.22.845,classification_task,2021.2.3,Win32,143.9055979,5df42244946e972fd0bfeddb,626b377229c10585ec392f8a,626b390edce70f07abfb883a,,,,,,,,,,,,,,,,,,,,,,,a,1,1.6448,"[""0.178"",""0.509"",""0.403"",""0.955""]","[1,1,0,1]",0,19,19,19,1,0,0,,,1,FALSE,,,,,,,,,,,,,,,,,,,,,,,,,,,,,,
,5df42244946e972fd0bfeddb,001,2022-04-29_04h02.22.845,classification_task,2021.2.3,Win32,143.9055979,5df42244946e972fd0bfeddb,626b377229c10585ec392f8a,626b390edce70f07abfb883a,,,,,,,,,,,,,,,,,,,,,,,a,1,1.2137,"[""0.178"",""0.408"",""0.901"",""0.955""]","[1,0,1,1]",0,20,20,20,1,0,0,,,1,FALSE,,,,,,,,,,,,,,,,,,,,,,,,,,,,,,
,5df42244946e972fd0bfeddb,001,2022-04-29_04h02.22.845,classification_task,2021.2.3,Win32,143.9055979,5df42244946e972fd0bfeddb,626b377229c10585ec392f8a,626b390edce70f07abfb883a,,,,,,,,,,,,,,,,,,,,,,,l,1,1.2344,"[""0.406"",""0.355"",""0.544"",""0.712""]","[0,1,1,1]",0,21,21,21,1,1,0,,,1,FALSE,,,,,,,,,,,,,,,,,,,,,,,,,,,,,,
,5df42244946e972fd0bfeddb,001,2022-04-29_04h02.22.845,classification_task,2021.2.3,Win32,143.9055979,5df42244946e972fd0bfeddb,626b377229c10585ec392f8a,626b390edce70f07abfb883a,,,,,,,,,,,,,,,,,,,,,,,l,1,1.4696,"[""0.138"",""0.355"",""0.033"",""0.712""]","[1,1,0,1]",0,22,22,22,1,1,0,,,1,FALSE,,,,,,,,,,,,,,,,,,,,,,,,,,,,,,
,5df42244946e972fd0bfeddb,001,2022-04-29_04h02.22.845,classification_task,2021.2.3,Win32,143.9055979,5df42244946e972fd0bfeddb,626b377229c10585ec392f8a,626b390edce70f07abfb883a,,,,,,,,,,,,,,,,,,,,,,,l,1,2.6163,"[""0.071"",""0.403"",""0.670"",""0.800""]","[1,0,1,1]",0,23,23,23,1,1,1,,,1,FALSE,,,,,,,,,,,,,,,,,,,,,,,,,,,,,,
,5df42244946e972fd0bfeddb,001,2022-04-29_04h02.22.845,classification_task,2021.2.3,Win32,143.9055979,5df42244946e972fd0bfeddb,626b377229c10585ec392f8a,626b390edce70f07abfb883a,,,,,,,,,,,,,,,,,,,,,,,l,0,1.5419,"[""0.221"",""0.472"",""0.608"",""0.033""]","[1,1,1,0]",0,24,24,24,1,0,1,,,1,FALSE,,,,,,,,,,,,,,,,,,,,,,,,,,,,,,
,5df42244946e972fd0bfeddb,001,2022-04-29_04h02.22.845,classification_task,2021.2.3,Win32,143.9055979,5df42244946e972fd0bfeddb,626b377229c10585ec392f8a,626b390edce70f07abfb883a,,,,,,,,,,,,,,,,,,,,,,,l,1,2.1162,"[""0.071"",""0.286"",""0.403"",""0.800""]","[1,1,0,1]",0,25,25,25,1,1,1,,,1,FALSE,,,,,,,,,,,,,,,,,,,,,,,,,,,,,,
,5df42244946e972fd0bfeddb,001,2022-04-29_04h02.22.845,classification_task,2021.2.3,Win32,143.9055979,5df42244946e972fd0bfeddb,626b377229c10585ec392f8a,626b390edce70f07abfb883a,,,,,,,,,,,,,,,,,,,,,,,a,1,2.0263,"[""0.748"",""0.472"",""0.608"",""0.852""]","[0,1,1,1]",0,26,26,26,1,0,1,,,1,FALSE,,,,,,,,,,,,,,,,,,,,,,,,,,,,,,
,5df42244946e972fd0bfeddb,001,2022-04-29_04h02.22.845,classification_task,2021.2.3,Win32,143.9055979,5df42244946e972fd0bfeddb,626b377229c10585ec392f8a,626b390edce70f07abfb883a,,,,,,,,,,,,,,,,,,,,,,,l,0,1.23,"[""0.178"",""0.509"",""0.901"",""0.031""]","[1,1,1,0]",0,27,27,27,1,0,0,,,1,FALSE,,,,,,,,,,,,,,,,,,,,,,,,,,,,,,
,5df42244946e972fd0bfeddb,001,2022-04-29_04h02.22.845,classification_task,2021.2.3,Win32,143.9055979,5df42244946e972fd0bfeddb,626b377229c10585ec392f8a,626b390edce70f07abfb883a,,,,,,,,,,,,,,,,,,,,,,,a,1,2.6598,"[""0.408"",""0.509"",""0.901"",""0.955""]","[0,1,1,1]",0,28,28,28,1,0,0,,,1,FALSE,,,,,,,,,,,,,,,,,,,,,,,,,,,,,,
,5df42244946e972fd0bfeddb,001,2022-04-29_04h02.22.845,classification_task,2021.2.3,Win32,143.9055979,5df42244946e972fd0bfeddb,626b377229c10585ec392f8a,626b390edce70f07abfb883a,,,,,,,,,,,,,,,,,,,,,,,l,1,1.2567,"[""0.138"",""0.355"",""0.544"",""0.757""]","[1,1,1,0]",0,29,29,29,1,1,0,,,1,FALSE,,,,,,,,,,,,,,,,,,,,,,,,,,,,,,
,5df42244946e972fd0bfeddb,001,2022-04-29_04h02.22.845,classification_task,2021.2.3,Win32,143.9055979,5df42244946e972fd0bfeddb,626b377229c10585ec392f8a,626b390edce70f07abfb883a,,,,,,,,,,,,,,,,,,,,,,,l,1,1.8563,"[""0.138"",""0.418"",""0.544"",""0.712""]","[1,0,1,1]",0,30,30,30,1,1,0,,,1,FALSE,,,,,,,,,,,,,,,,,,,,,,,,,,,,,,
,5df42244946e972fd0bfeddb,001,2022-04-29_04h02.22.845,classification_task,2021.2.3,Win32,143.9055979,5df42244946e972fd0bfeddb,626b377229c10585ec392f8a,626b390edce70f07abfb883a,,,,,,,,,,,,,,,,,,,,,,,l,1,1.5705,"[""0.395"",""0.286"",""0.670"",""0.800""]","[0,1,1,1]",0,31,31,31,1,1,1,,,1,FALSE,,,,,,,,,,,,,,,,,,,,,,,,,,,,,,
,5df42244946e972fd0bfeddb,001,2022-04-29_04h02.22.845,classification_task,2021.2.3,Win32,143.9055979,5df42244946e972fd0bfeddb,626b377229c10585ec392f8a,626b390edce70f07abfb883a,,,,,,,,,,,,,,,,,,,,,,,a,0,3.1652,"[""0.032"",""0.355"",""0.544"",""0.712""]","[0,1,1,1]",0,32,32,32,1,1,0,,,1,FALSE,,,,,,,,,,,,,,,,,,,,,,,,,,,,,,
,5df42244946e972fd0bfeddb,001,2022-04-29_04h02.22.845,classification_task,2021.2.3,Win32,143.9055979,5df42244946e972fd0bfeddb,626b377229c10585ec392f8a,626b390edce70f07abfb883a,,,,,,,,,,,,,,,,,,,,,,,a,1,3.0008,"[""0.178"",""0.509"",""0.901"",""0.748""]","[1,1,1,0]",0,33,33,33,1,0,0,,,1,FALSE,,,,,,,,,,,,,,,,,,,,,,,,,,,,,,
,5df42244946e972fd0bfeddb,001,2022-04-29_04h02.22.845,classification_task,2021.2.3,Win32,143.9055979,5df42244946e972fd0bfeddb,626b377229c10585ec392f8a,626b390edce70f07abfb883a,,,,,,,,,,,,,,,,,,,,,,,l,1,1.6247,"[""0.138"",""0.418"",""0.544"",""0.712""]","[1,0,1,1]",0,34,34,34,1,1,0,,,1,FALSE,,,,,,,,,,,,,,,,,,,,,,,,,,,,,,
,5df42244946e972fd0bfeddb,001,2022-04-29_04h02.22.845,classification_task,2021.2.3,Win32,143.9055979,5df42244946e972fd0bfeddb,626b377229c10585ec392f8a,626b390edce70f07abfb883a,,,,,,,,,,,,,,,,,,,,,,,a,1,2.4431,"[""0.221"",""0.472"",""0.608"",""0.408""]","[1,1,1,0]",0,35,35,35,1,0,1,,,1,FALSE,,,,,,,,,,,,,,,,,,,,,,,,,,,,,,
,5df42244946e972fd0bfeddb,001,2022-04-29_04h02.22.845,classification_task,2021.2.3,Win32,143.9055979,5df42244946e972fd0bfeddb,626b377229c10585ec392f8a,626b390edce70f07abfb883a,,,,,,,,,,,,,,,,,,,,,,,l,0,2.7663,"[""0.178"",""0.509"",""0.755"",""0.955""]","[1,1,0,1]",0,36,36,36,1,0,0,,,1,FALSE,,,,,,,,,,,,,,,,,,,,,,,,,,,,,,
,5df42244946e972fd0bfeddb,001,2022-04-29_04h02.22.845,classification_task,2021.2.3,Win32,143.9055979,5df42244946e972fd0bfeddb,626b377229c10585ec392f8a,626b390edce70f07abfb883a,,,,,,,,,,,,,,,,,,,,,,,a,1,1.7526,"[""0.395"",""0.509"",""0.901"",""0.955""]","[0,1,1,1]",0,37,37,37,1,0,0,,,1,FALSE,,,,,,,,,,,,,,,,,,,,,,,,,,,,,,
,5df42244946e972fd0bfeddb,001,2022-04-29_04h02.22.845,classification_task,2021.2.3,Win32,143.9055979,5df42244946e972fd0bfeddb,626b377229c10585ec392f8a,626b390edce70f07abfb883a,,,,,,,,,,,,,,,,,,,,,,,l,0,1.0936,"[""0.221"",""0.757"",""0.608"",""0.852""]","[1,0,1,1]",0,38,38,38,1,0,1,,,1,FALSE,,,,,,,,,,,,,,,,,,,,,,,,,,,,,,
,5df42244946e972fd0bfeddb,001,2022-04-29_04h02.22.845,classification_task,2021.2.3,Win32,143.9055979,5df42244946e972fd0bfeddb,626b377229c10585ec392f8a,626b390edce70f07abfb883a,,,,,,,,,,,,,,,,,,,,,,,l,1,2.0269,"[""0.071"",""0.755"",""0.670"",""0.800""]","[1,0,1,1]",0,39,39,39,1,1,1,,,1,FALSE,,,,,,,,,,,,,,,,,,,,,,,,,,,,,,
,5df42244946e972fd0bfeddb,001,2022-04-29_04h02.22.845,classification_task,2021.2.3,Win32,143.9055979,5df42244946e972fd0bfeddb,626b377229c10585ec392f8a,626b390edce70f07abfb883a,,,,,,,,,,,,,,,,,,,,,,,l,0,1.7743,"[""0.418"",""0.472"",""0.608"",""0.852""]","[0,1,1,1]",0,40,40,40,1,0,1,,,1,FALSE,,,,,,,,,,,,,,,,,,,,,,,,,,,,,,
,5df42244946e972fd0bfeddb,001,2022-04-29_04h02.22.845,classification_task,2021.2.3,Win32,143.9055979,5df42244946e972fd0bfeddb,626b377229c10585ec392f8a,626b390edce70f07abfb883a,,,,,,,,,,,,,,,,,,,,,,,a,0,1.5814,"[""0.138"",""0.355"",""0.544"",""0.033""]","[1,1,1,0]",0,41,41,41,1,1,0,,,1,FALSE,,,,,,,,,,,,,,,,,,,,,,,,,,,,,,
,5df42244946e972fd0bfeddb,001,2022-04-29_04h02.22.845,classification_task,2021.2.3,Win32,143.9055979,5df42244946e972fd0bfeddb,626b377229c10585ec392f8a,626b390edce70f07abfb883a,,,,,,,,,,,,,,,,,,,,,,,l,0,1.2702,"[""0.221"",""0.472"",""0.031"",""0.852""]","[1,1,0,1]",0,42,42,42,1,0,1,,,1,FALSE,,,,,,,,,,,,,,,,,,,,,,,,,,,,,,
,5df42244946e972fd0bfeddb,001,2022-04-29_04h02.22.845,classification_task,2021.2.3,Win32,143.9055979,5df42244946e972fd0bfeddb,626b377229c10585ec392f8a,626b390edce70f07abfb883a,,,,,,,,,,,,,,,,,,,,,,,l,1,1.2652,"[""0.071"",""0.286"",""0.748"",""0.800""]","[1,1,0,1]",0,43,43,43,1,1,1,,,1,FALSE,,,,,,,,,,,,,,,,,,,,,,,,,,,,,,
,5df42244946e972fd0bfeddb,001,2022-04-29_04h02.22.845,classification_task,2021.2.3,Win32,143.9055979,5df42244946e972fd0bfeddb,626b377229c10585ec392f8a,626b390edce70f07abfb883a,,,,,,,,,,,,,,,,,,,,,,,a,1,1.7127,"[""0.178"",""0.032"",""0.901"",""0.955""]","[1,0,1,1]",0,44,44,44,1,0,0,,,1,FALSE,,,,,,,,,,,,,,,,,,,,,,,,,,,,,,
,5df42244946e972fd0bfeddb,001,2022-04-29_04h02.22.845,classification_task,2021.2.3,Win32,143.9055979,5df42244946e972fd0bfeddb,626b377229c10585ec392f8a,626b390edce70f07abfb883a,,,,,,,,,,,,,,,,,,,,,,,l,1,2.0731,"[""0.395"",""0.286"",""0.670"",""0.800""]","[0,1,1,1]",0,45,45,45,1,1,1,,,1,FALSE,,,,,,,,,,,,,,,,,,,,,,,,,,,,,,
,5df42244946e972fd0bfeddb,001,2022-04-29_04h02.22.845,classification_task,2021.2.3,Win32,143.9055979,5df42244946e972fd0bfeddb,626b377229c10585ec392f8a,626b390edce70f07abfb883a,,,,,,,,,,,,,,,,,,,,,,,l,1,1.0817,"[""0.138"",""0.355"",""0.403"",""0.712""]","[1,1,0,1]",0,46,46,46,1,1,0,,,1,FALSE,,,,,,,,,,,,,,,,,,,,,,,,,,,,,,
,5df42244946e972fd0bfeddb,001,2022-04-29_04h02.22.845,classification_task,2021.2.3,Win32,143.9055979,5df42244946e972fd0bfeddb,626b377229c10585ec392f8a,626b390edce70f07abfb883a,,,,,,,,,,,,,,,,,,,,,,,l,1,2.5558,"[""0.071"",""0.286"",""0.670"",""0.757""]","[1,1,1,0]",0,47,47,47,1,1,1,,,1,FALSE,,,,,,,,,,,,,,,,,,,,,,,,,,,,,,
,5df42244946e972fd0bfeddb,001,2022-04-29_04h02.22.845,classification_task,2021.2.3,Win32,143.9055979,5df42244946e972fd0bfeddb,626b377229c10585ec392f8a,626b390edce70f07abfb883a,,,,,,,,,,,,,,,,,,,,,,,a,1,1.2838,"[""0.033"",""0.472"",""0.608"",""0.852""]","[0,1,1,1]",0,48,48,48,1,0,1,,,1,FALSE,,,,,,,,,,,,,,,,,,,,,,,,,,,,,,
,5df42244946e972fd0bfeddb,001,2022-04-29_04h02.22.845,classification_task,2021.2.3,Win32,143.9055979,5df42244946e972fd0bfeddb,626b377229c10585ec392f8a,626b390edce70f07abfb883a,,,,,,,,,,,,,,,,,,,,,,,l,0,1.3821,"[""0.221"",""0.472"",""0.608"",""0.406""]","[1,1,1,0]",0,49,49,49,1,0,1,,,1,FALSE,,,,,,,,,,,,,,,,,,,,,,,,,,,,,,
,5df42244946e972fd0bfeddb,001,2022-04-29_04h02.22.845,classification_task,2021.2.3,Win32,143.9055979,5df42244946e972fd0bfeddb,626b377229c10585ec392f8a,626b390edce70f07abfb883a,,,,,,,,,,,,,,,,,,,,,,,l,0,1.1229,"[""0.221"",""0.472"",""0.408"",""0.852""]","[1,1,0,1]",0,50,50,50,1,0,1,,,1,FALSE,,,,,,,,,,,,,,,,,,,,,,,,,,,,,,
,5df42244946e972fd0bfeddb,001,2022-04-29_04h02.22.845,classification_task,2021.2.3,Win32,143.9055979,5df42244946e972fd0bfeddb,626b377229c10585ec392f8a,626b390edce70f07abfb883a,,,,,,,,,,,,,,,,,,,,,,,l,1,1.3783,"[""0.138"",""0.355"",""0.544"",""0.748""]","[1,1,1,0]",0,51,51,51,1,1,0,,,1,FALSE,,,,,,,,,,,,,,,,,,,,,,,,,,,,,,
,5df42244946e972fd0bfeddb,001,2022-04-29_04h02.22.845,classification_task,2021.2.3,Win32,143.9055979,5df42244946e972fd0bfeddb,626b377229c10585ec392f8a,626b390edce70f07abfb883a,,,,,,,,,,,,,,,,,,,,,,,l,1,1.1443,"[""0.071"",""0.408"",""0.670"",""0.800""]","[1,0,1,1]",0,52,52,52,1,1,1,,,1,FALSE,,,,,,,,,,,,,,,,,,,,,,,,,,,,,,
,5df42244946e972fd0bfeddb,001,2022-04-29_04h02.22.845,classification_task,2021.2.3,Win32,143.9055979,5df42244946e972fd0bfeddb,626b377229c10585ec392f8a,626b390edce70f07abfb883a,,,,,,,,,,,,,,,,,,,,,,,a,0,0.8862,"[""0.138"",""0.403"",""0.544"",""0.712""]","[1,0,1,1]",0,53,53,53,1,1,0,,,1,FALSE,,,,,,,,,,,,,,,,,,,,,,,,,,,,,,
,5df42244946e972fd0bfeddb,001,2022-04-29_04h02.22.845,classification_task,2021.2.3,Win32,143.9055979,5df42244946e972fd0bfeddb,626b377229c10585ec392f8a,626b390edce70f07abfb883a,,,,,,,,,,,,,,,,,,,,,,,l,1,0.2084,"[""0.071"",""0.286"",""0.033"",""0.800""]","[1,1,0,1]",0,54,54,54,1,1,1,,,1,FALSE,,,,,,,,,,,,,,,,,,,,,,,,,,,,,,
,5df42244946e972fd0bfeddb,001,2022-04-29_04h02.22.845,classification_task,2021.2.3,Win32,143.9055979,5df42244946e972fd0bfeddb,626b377229c10585ec392f8a,626b390edce70f07abfb883a,,,,,,,,,,,,,,,,,,,,,,,a,1,1.2417,"[""0.178"",""0.509"",""0.033"",""0.955""]","[1,1,0,1]",0,55,55,55,1,0,0,,,1,FALSE,,,,,,,,,,,,,,,,,,,,,,,,,,,,,,
,5df42244946e972fd0bfeddb,001,2022-04-29_04h02.22.845,classification_task,2021.2.3,Win32,143.9055979,5df42244946e972fd0bfeddb,626b377229c10585ec392f8a,626b390edce70f07abfb883a,,,,,,,,,,,,,,,,,,,,,,,a,1,0.6094,"[""0.403"",""0.509"",""0.901"",""0.955""]","[0,1,1,1]",0,56,56,56,1,0,0,,,1,FALSE,,,,,,,,,,,,,,,,,,,,,,,,,,,,,,
,5df42244946e972fd0bfeddb,001,2022-04-29_04h02.22.845,classification_task,2021.2.3,Win32,143.9055979,5df42244946e972fd0bfeddb,626b377229c10585ec392f8a,626b390edce70f07abfb883a,,,,,,,,,,,,,,,,,,,,,,,l,1,0.6066,"[""0.418"",""0.355"",""0.544"",""0.712""]","[0,1,1,1]",0,57,57,57,1,1,0,,,1,FALSE,,,,,,,,,,,,,,,,,,,,,,,,,,,,,,
,5df42244946e972fd0bfeddb,001,2022-04-29_04h02.22.845,classification_task,2021.2.3,Win32,143.9055979,5df42244946e972fd0bfeddb,626b377229c10585ec392f8a,626b390edce70f07abfb883a,,,,,,,,,,,,,,,,,,,,,,,a,0,0.5421,"[""0.033"",""0.286"",""0.670"",""0.800""]","[0,1,1,1]",0,58,58,58,1,1,1,,,1,FALSE,,,,,,,,,,,,,,,,,,,,,,,,,,,,,,
,5df42244946e972fd0bfeddb,001,2022-04-29_04h02.22.845,classification_task,2021.2.3,Win32,143.9055979,5df42244946e972fd0bfeddb,626b377229c10585ec392f8a,626b390edce70f07abfb883a,,,,,,,,,,,,,,,,,,,,,,,l,1,0.5494,"[""0.138"",""0.355"",""0.403"",""0.712""]","[1,1,0,1]",0,59,59,59,1,1,0,,,1,FALSE,,,,,,,,,,,,,,,,,,,,,,,,,,,,,,
,5df42244946e972fd0bfeddb,001,2022-04-29_04h02.22.845,classification_task,2021.2.3,Win32,143.9055979,5df42244946e972fd0bfeddb,626b377229c10585ec392f8a,626b390edce70f07abfb883a,,,,,,,,,,,,,,,,,,,,,,,a,1,1.4688,"[""0.178"",""0.418"",""0.901"",""0.955""]","[1,0,1,1]",0,60,60,60,1,0,0,,,1,FALSE,,,,,,,,,,,,,,,,,,,,,,,,,,,,,,
,5df42244946e972fd0bfeddb,001,2022-04-29_04h02.22.845,classification_task,2021.2.3,Win32,143.9055979,5df42244946e972fd0bfeddb,626b377229c10585ec392f8a,626b390edce70f07abfb883a,,,,,,,,,,,,,,,,,,,,,,,l,1,0.8795,"[""0.071"",""0.286"",""0.670"",""0.408""]","[1,1,1,0]",0,61,61,61,1,1,1,,,1,FALSE,,,,,,,,,,,,,,,,,,,,,,,,,,,,,,
,5df42244946e972fd0bfeddb,001,2022-04-29_04h02.22.845,classification_task,2021.2.3,Win32,143.9055979,5df42244946e972fd0bfeddb,626b377229c10585ec392f8a,626b390edce70f07abfb883a,,,,,,,,,,,,,,,,,,,,,,,a,1,1.1112,"[""0.221"",""0.418"",""0.608"",""0.852""]","[1,0,1,1]",0,62,62,62,1,0,1,,,1,FALSE,,,,,,,,,,,,,,,,,,,,,,,,,,,,,,
,5df42244946e972fd0bfeddb,001,2022-04-29_04h02.22.845,classification_task,2021.2.3,Win32,143.9055979,5df42244946e972fd0bfeddb,626b377229c10585ec392f8a,626b390edce70f07abfb883a,,,,,,,,,,,,,,,,,,,,,,,a,1,1.2847,"[""0.178"",""0.509"",""0.901"",""0.408""]","[1,1,1,0]",0,63,63,63,1,0,0,,,1,FALSE,,,,,,,,,,,,,,,,,,,,,,,,,,,,,,
,5df42244946e972fd0bfeddb,001,2022-04-29_04h02.22.845,classification_task,2021.2.3,Win32,143.9055979,5df42244946e972fd0bfeddb,626b377229c10585ec392f8a,626b390edce70f07abfb883a,,,,,,,,,,,,,,,,,,,,,,,,,,,,,,,,,,,,,,,0, ,,0,,,0,0,0,0,1,2,1,,,,,,,,,,,,,,,,,
,5df42244946e972fd0bfeddb,001,2022-04-29_04h02.22.845,classification_task,2021.2.3,Win32,143.9055979,5df42244946e972fd0bfeddb,626b377229c10585ec392f8a,626b390edce70f07abfb883a,,,,,,,,,,,,,,,,,,,,,,,,,,,,,,,,,,,,,,,1,  ,,0,,,0,0,0,0,1,2,1,,,,,,,,,,,,,,,,,
,5df42244946e972fd0bfeddb,001,2022-04-29_04h02.22.845,classification_task,2021.2.3,Win32,143.9055979,5df42244946e972fd0bfeddb,626b377229c10585ec392f8a,626b390edce70f07abfb883a,,,,,,,,,,,,,,,,,,,,,,,,,,,,,,,,,,,,,,,2,  ,,0,,,0,0,0,0,1,2,1,,,,,,,,,,,,,,,,,
,5df42244946e972fd0bfeddb,001,2022-04-29_04h02.22.845,classification_task,2021.2.3,Win32,143.9055979,5df42244946e972fd0bfeddb,626b377229c10585ec392f8a,626b390edce70f07abfb883a,,,,,,,,,,,,,,,,,,,,,,,,,,,,,,,,,,,,,,,,,,,,,0,0,0,0,1,,1,,,,,,,,,,,,,,,,,
,5df42244946e972fd0bfeddb,001,2022-04-29_04h02.22.845,classification_task,2021.2.3,Win32,143.9055979,5df42244946e972fd0bfeddb,626b377229c10585ec392f8a,626b390edce70f07abfb883a,,,,,,,,,,,,,,,,,,,,,space,69.2095,l,0,1.6974,"[""0.178"",""0.509"",""0.408"",""0.955""]","[1,1,0,1]",0,0,0,0,1,0,0,,,1,FALSE,,,,,,,,,,,,,,,,,,,,,,,,,,,,,,
,5df42244946e972fd0bfeddb,001,2022-04-29_04h02.22.845,classification_task,2021.2.3,Win32,143.9055979,5df42244946e972fd0bfeddb,626b377229c10585ec392f8a,626b390edce70f07abfb883a,,,,,,,,,,,,,,,,,,,,,,,l,1,0.7558,"[""0.138"",""0.401"",""0.544"",""0.712""]","[1,0,1,1]",0,1,1,1,1,1,0,,,1,FALSE,,,,,,,,,,,,,,,,,,,,,,,,,,,,,,
,5df42244946e972fd0bfeddb,001,2022-04-29_04h02.22.845,classification_task,2021.2.3,Win32,143.9055979,5df42244946e972fd0bfeddb,626b377229c10585ec392f8a,626b390edce70f07abfb883a,,,,,,,,,,,,,,,,,,,,,,,a,1,0.9331,"[""0.221"",""0.472"",""0.033"",""0.852""]","[1,1,0,1]",0,2,2,2,1,0,1,,,1,FALSE,,,,,,,,,,,,,,,,,,,,,,,,,,,,,,
,5df42244946e972fd0bfeddb,001,2022-04-29_04h02.22.845,classification_task,2021.2.3,Win32,143.9055979,5df42244946e972fd0bfeddb,626b377229c10585ec392f8a,626b390edce70f07abfb883a,,,,,,,,,,,,,,,,,,,,,,,l,0,0.2896,"[""0.221"",""0.418"",""0.608"",""0.852""]","[1,0,1,1]",0,3,3,3,1,0,1,,,1,FALSE,,,,,,,,,,,,,,,,,,,,,,,,,,,,,,
,5df42244946e972fd0bfeddb,001,2022-04-29_04h02.22.845,classification_task,2021.2.3,Win32,143.9055979,5df42244946e972fd0bfeddb,626b377229c10585ec392f8a,626b390edce70f07abfb883a,,,,,,,,,,,,,,,,,,,,,,,a,1,0.4371,"[""0.221"",""0.472"",""0.608"",""0.403""]","[1,1,1,0]",0,4,4,4,1,0,1,,,1,FALSE,,,,,,,,,,,,,,,,,,,,,,,,,,,,,,
,5df42244946e972fd0bfeddb,001,2022-04-29_04h02.22.845,classification_task,2021.2.3,Win32,143.9055979,5df42244946e972fd0bfeddb,626b377229c10585ec392f8a,626b390edce70f07abfb883a,,,,,,,,,,,,,,,,,,,,,,,l,1,1.812,"[""0.071"",""0.286"",""0.670"",""0.033""]","[1,1,1,0]",0,5,5,5,1,1,1,,,1,FALSE,,,,,,,,,,,,,,,,,,,,,,,,,,,,,,
,5df42244946e972fd0bfeddb,001,2022-04-29_04h02.22.845,classification_task,2021.2.3,Win32,143.9055979,5df42244946e972fd0bfeddb,626b377229c10585ec392f8a,626b390edce70f07abfb883a,,,,,,,,,,,,,,,,,,,,,,,l,1,1.4613,"[""0.071"",""0.032"",""0.670"",""0.800""]","[1,0,1,1]",0,6,6,6,1,1,1,,,1,FALSE,,,,,,,,,,,,,,,,,,,,,,,,,,,,,,
,5df42244946e972fd0bfeddb,001,2022-04-29_04h02.22.845,classification_task,2021.2.3,Win32,143.9055979,5df42244946e972fd0bfeddb,626b377229c10585ec392f8a,626b390edce70f07abfb883a,,,,,,,,,,,,,,,,,,,,,,,l,1,1.1295,"[""0.071"",""0.286"",""0.403"",""0.800""]","[1,1,0,1]",0,7,7,7,1,1,1,,,1,FALSE,,,,,,,,,,,,,,,,,,,,,,,,,,,,,,
,5df42244946e972fd0bfeddb,001,2022-04-29_04h02.22.845,classification_task,2021.2.3,Win32,143.9055979,5df42244946e972fd0bfeddb,626b377229c10585ec392f8a,626b390edce70f07abfb883a,,,,,,,,,,,,,,,,,,,,,,,a,0,1.3246,"[""0.395"",""0.355"",""0.544"",""0.712""]","[0,1,1,1]",0,8,8,8,1,1,0,,,1,FALSE,,,,,,,,,,,,,,,,,,,,,,,,,,,,,,
,5df42244946e972fd0bfeddb,001,2022-04-29_04h02.22.845,classification_task,2021.2.3,Win32,143.9055979,5df42244946e972fd0bfeddb,626b377229c10585ec392f8a,626b390edce70f07abfb883a,,,,,,,,,,,,,,,,,,,,,,,l,0,0.9975,"[""0.178"",""0.509"",""0.901"",""0.033""]","[1,1,1,0]",0,9,9,9,1,0,0,,,1,FALSE,,,,,,,,,,,,,,,,,,,,,,,,,,,,,,
,5df42244946e972fd0bfeddb,001,2022-04-29_04h02.22.845,classification_task,2021.2.3,Win32,143.9055979,5df42244946e972fd0bfeddb,626b377229c10585ec392f8a,626b390edce70f07abfb883a,,,,,,,,,,,,,,,,,,,,,,,l,0,1.8825,"[""0.178"",""0.033"",""0.901"",""0.955""]","[1,0,1,1]",0,10,10,10,1,0,0,,,1,FALSE,,,,,,,,,,,,,,,,,,,,,,,,,,,,,,
,5df42244946e972fd0bfeddb,001,2022-04-29_04h02.22.845,classification_task,2021.2.3,Win32,143.9055979,5df42244946e972fd0bfeddb,626b377229c10585ec392f8a,626b390edce70f07abfb883a,,,,,,,,,,,,,,,,,,,,,,,l,1,1.1693,"[""0.418"",""0.286"",""0.670"",""0.800""]","[0,1,1,1]",0,11,11,11,1,1,1,,,1,FALSE,,,,,,,,,,,,,,,,,,,,,,,,,,,,,,
,5df42244946e972fd0bfeddb,001,2022-04-29_04h02.22.845,classification_task,2021.2.3,Win32,143.9055979,5df42244946e972fd0bfeddb,626b377229c10585ec392f8a,626b390edce70f07abfb883a,,,,,,,,,,,,,,,,,,,,,,,a,1,1.5373,"[""0.757"",""0.509"",""0.901"",""0.955""]","[0,1,1,1]",0,12,12,12,1,0,0,,,1,FALSE,,,,,,,,,,,,,,,,,,,,,,,,,,,,,,
,5df42244946e972fd0bfeddb,001,2022-04-29_04h02.22.845,classification_task,2021.2.3,Win32,143.9055979,5df42244946e972fd0bfeddb,626b377229c10585ec392f8a,626b390edce70f07abfb883a,,,,,,,,,,,,,,,,,,,,,,,a,0,1.4781,"[""0.138"",""0.355"",""0.544"",""0.418""]","[1,1,1,0]",0,13,13,13,1,1,0,,,1,FALSE,,,,,,,,,,,,,,,,,,,,,,,,,,,,,,
,5df42244946e972fd0bfeddb,001,2022-04-29_04h02.22.845,classification_task,2021.2.3,Win32,143.9055979,5df42244946e972fd0bfeddb,626b377229c10585ec392f8a,626b390edce70f07abfb883a,,,,,,,,,,,,,,,,,,,,,,,a,1,1.4299,"[""0.033"",""0.472"",""0.608"",""0.852""]","[0,1,1,1]",0,14,14,14,1,0,1,,,1,FALSE,,,,,,,,,,,,,,,,,,,,,,,,,,,,,,
,5df42244946e972fd0bfeddb,001,2022-04-29_04h02.22.845,classification_task,2021.2.3,Win32,143.9055979,5df42244946e972fd0bfeddb,626b377229c10585ec392f8a,626b390edce70f07abfb883a,,,,,,,,,,,,,,,,,,,,,,,l,1,1.9962,"[""0.138"",""0.355"",""0.033"",""0.712""]","[1,1,0,1]",0,15,15,15,1,1,0,,,1,FALSE,,,,,,,,,,,,,,,,,,,,,,,,,,,,,,
,5df42244946e972fd0bfeddb,001,2022-04-29_04h02.22.845,classification_task,2021.2.3,Win32,143.9055979,5df42244946e972fd0bfeddb,626b377229c10585ec392f8a,626b390edce70f07abfb883a,,,,,,,,,,,,,,,,,,,,,,,a,1,2.1959,"[""0.408"",""0.509"",""0.901"",""0.955""]","[0,1,1,1]",0,16,16,16,1,0,0,,,1,FALSE,,,,,,,,,,,,,,,,,,,,,,,,,,,,,,
,5df42244946e972fd0bfeddb,001,2022-04-29_04h02.22.845,classification_task,2021.2.3,Win32,143.9055979,5df42244946e972fd0bfeddb,626b377229c10585ec392f8a,626b390edce70f07abfb883a,,,,,,,,,,,,,,,,,,,,,,,a,1,1.2225,"[""0.748"",""0.472"",""0.608"",""0.852""]","[0,1,1,1]",0,17,17,17,1,0,1,,,1,FALSE,,,,,,,,,,,,,,,,,,,,,,,,,,,,,,
,5df42244946e972fd0bfeddb,001,2022-04-29_04h02.22.845,classification_task,2021.2.3,Win32,143.9055979,5df42244946e972fd0bfeddb,626b377229c10585ec392f8a,626b390edce70f07abfb883a,,,,,,,,,,,,,,,,,,,,,,,l,1,0.9722,"[""0.138"",""0.355"",""0.544"",""0.755""]","[1,1,1,0]",0,18,18,18,1,1,0,,,1,FALSE,,,,,,,,,,,,,,,,,,,,,,,,,,,,,,
,5df42244946e972fd0bfeddb,001,2022-04-29_04h02.22.845,classification_task,2021.2.3,Win32,143.9055979,5df42244946e972fd0bfeddb,626b377229c10585ec392f8a,626b390edce70f07abfb883a,,,,,,,,,,,,,,,,,,,,,,,a,0,3.2163,"[""0.418"",""0.355"",""0.544"",""0.712""]","[0,1,1,1]",0,19,19,19,1,1,0,,,1,FALSE,,,,,,,,,,,,,,,,,,,,,,,,,,,,,,
,5df42244946e972fd0bfeddb,001,2022-04-29_04h02.22.845,classification_task,2021.2.3,Win32,143.9055979,5df42244946e972fd0bfeddb,626b377229c10585ec392f8a,626b390edce70f07abfb883a,,,,,,,,,,,,,,,,,,,,,,,l,1,1.1636,"[""0.138"",""0.355"",""0.408"",""0.712""]","[1,1,0,1]",0,20,20,20,1,1,0,,,1,FALSE,,,,,,,,,,,,,,,,,,,,,,,,,,,,,,
,5df42244946e972fd0bfeddb,001,2022-04-29_04h02.22.845,classification_task,2021.2.3,Win32,143.9055979,5df42244946e972fd0bfeddb,626b377229c10585ec392f8a,626b390edce70f07abfb883a,,,,,,,,,,,,,,,,,,,,,,,l,1,1.164,"[""0.748"",""0.286"",""0.670"",""0.800""]","[0,1,1,1]",0,21,21,21,1,1,1,,,1,FALSE,,,,,,,,,,,,,,,,,,,,,,,,,,,,,,
,5df42244946e972fd0bfeddb,001,2022-04-29_04h02.22.845,classification_task,2021.2.3,Win32,143.9055979,5df42244946e972fd0bfeddb,626b377229c10585ec392f8a,626b390edce70f07abfb883a,,,,,,,,,,,,,,,,,,,,,,,l,1,0.6698,"[""0.071"",""0.286"",""0.670"",""0.399""]","[1,1,1,0]",0,22,22,22,1,1,1,,,1,FALSE,,,,,,,,,,,,,,,,,,,,,,,,,,,,,,
,5df42244946e972fd0bfeddb,001,2022-04-29_04h02.22.845,classification_task,2021.2.3,Win32,143.9055979,5df42244946e972fd0bfeddb,626b377229c10585ec392f8a,626b390edce70f07abfb883a,,,,,,,,,,,,,,,,,,,,,,,l,1,0.6431,"[""0.071"",""0.418"",""0.670"",""0.800""]","[1,0,1,1]",0,23,23,23,1,1,1,,,1,FALSE,,,,,,,,,,,,,,,,,,,,,,,,,,,,,,
,5df42244946e972fd0bfeddb,001,2022-04-29_04h02.22.845,classification_task,2021.2.3,Win32,143.9055979,5df42244946e972fd0bfeddb,626b377229c10585ec392f8a,626b390edce70f07abfb883a,,,,,,,,,,,,,,,,,,,,,,,a,1,0.66,"[""0.221"",""0.472"",""0.608"",""0.757""]","[1,1,1,0]",0,24,24,24,1,0,1,,,1,FALSE,,,,,,,,,,,,,,,,,,,,,,,,,,,,,,
,5df42244946e972fd0bfeddb,001,2022-04-29_04h02.22.845,classification_task,2021.2.3,Win32,143.9055979,5df42244946e972fd0bfeddb,626b377229c10585ec392f8a,626b390edce70f07abfb883a,,,,,,,,,,,,,,,,,,,,,,,a,1,1.293,"[""0.178"",""0.418"",""0.901"",""0.955""]","[1,0,1,1]",0,25,25,25,1,0,0,,,1,FALSE,,,,,,,,,,,,,,,,,,,,,,,,,,,,,,
,5df42244946e972fd0bfeddb,001,2022-04-29_04h02.22.845,classification_task,2021.2.3,Win32,143.9055979,5df42244946e972fd0bfeddb,626b377229c10585ec392f8a,626b390edce70f07abfb883a,,,,,,,,,,,,,,,,,,,,,,,l,1,1.8789,"[""0.138"",""0.755"",""0.544"",""0.712""]","[1,0,1,1]",0,26,26,26,1,1,0,,,1,FALSE,,,,,,,,,,,,,,,,,,,,,,,,,,,,,,
,5df42244946e972fd0bfeddb,001,2022-04-29_04h02.22.845,classification_task,2021.2.3,Win32,143.9055979,5df42244946e972fd0bfeddb,626b377229c10585ec392f8a,626b390edce70f07abfb883a,,,,,,,,,,,,,,,,,,,,,,,a,1,1.1138,"[""0.178"",""0.509"",""0.031"",""0.955""]","[1,1,0,1]",0,27,27,27,1,0,0,,,1,FALSE,,,,,,,,,,,,,,,,,,,,,,,,,,,,,,
,5df42244946e972fd0bfeddb,001,2022-04-29_04h02.22.845,classification_task,2021.2.3,Win32,143.9055979,5df42244946e972fd0bfeddb,626b377229c10585ec392f8a,626b390edce70f07abfb883a,,,,,,,,,,,,,,,,,,,,,,,a,1,1.267,"[""0.178"",""0.509"",""0.901"",""0.033""]","[1,1,1,0]",0,28,28,28,1,0,0,,,1,FALSE,,,,,,,,,,,,,,,,,,,,,,,,,,,,,,
,5df42244946e972fd0bfeddb,001,2022-04-29_04h02.22.845,classification_task,2021.2.3,Win32,143.9055979,5df42244946e972fd0bfeddb,626b377229c10585ec392f8a,626b390edce70f07abfb883a,,,,,,,,,,,,,,,,,,,,,,,a,1,0.9357,"[""0.221"",""0.472"",""0.032"",""0.852""]","[1,1,0,1]",0,29,29,29,1,0,1,,,1,FALSE,,,,,,,,,,,,,,,,,,,,,,,,,,,,,,
,5df42244946e972fd0bfeddb,001,2022-04-29_04h02.22.845,classification_task,2021.2.3,Win32,143.9055979,5df42244946e972fd0bfeddb,626b377229c10585ec392f8a,626b390edce70f07abfb883a,,,,,,,,,,,,,,,,,,,,,,,l,1,1.0905,"[""0.071"",""0.286"",""0.033"",""0.800""]","[1,1,0,1]",0,30,30,30,1,1,1,,,1,FALSE,,,,,,,,,,,,,,,,,,,,,,,,,,,,,,
,5df42244946e972fd0bfeddb,001,2022-04-29_04h02.22.845,classification_task,2021.2.3,Win32,143.9055979,5df42244946e972fd0bfeddb,626b377229c10585ec392f8a,626b390edce70f07abfb883a,,,,,,,,,,,,,,,,,,,,,,,a,1,0.6732,"[""0.221"",""0.033"",""0.608"",""0.852""]","[1,0,1,1]",0,31,31,31,1,0,1,,,1,FALSE,,,,,,,,,,,,,,,,,,,,,,,,,,,,,,
,5df42244946e972fd0bfeddb,001,2022-04-29_04h02.22.845,classification_task,2021.2.3,Win32,143.9055979,5df42244946e972fd0bfeddb,626b377229c10585ec392f8a,626b390edce70f07abfb883a,,,,,,,,,,,,,,,,,,,,,,,,0,,"[""0.221"",""0.748"",""0.608"",""0.852""]","[1,0,1,1]",0,32,32,32,1,0,1,,,1,FALSE,,,,,,,,,,,,,,,,,,,,,,,,,,,,,,
,5df42244946e972fd0bfeddb,001,2022-04-29_04h02.22.845,classification_task,2021.2.3,Win32,143.9055979,5df42244946e972fd0bfeddb,626b377229c10585ec392f8a,626b390edce70f07abfb883a,,,,,,,,,,,,,,,,,,,,,,,,0,,"[""0.178"",""0.509"",""0.418"",""0.955""]","[1,1,0,1]",0,33,33,33,1,0,0,,,1,FALSE,,,,,,,,,,,,,,,,,,,,,,,,,,,,,,
,5df42244946e972fd0bfeddb,001,2022-04-29_04h02.22.845,classification_task,2021.2.3,Win32,143.9055979,5df42244946e972fd0bfeddb,626b377229c10585ec392f8a,626b390edce70f07abfb883a,,,,,,,,,,,,,,,,,,,,,,,,0,,"[""0.138"",""0.355"",""0.544"",""0.395""]","[1,1,1,0]",0,34,34,34,1,1,0,,,1,FALSE,,,,,,,,,,,,,,,,,,,,,,,,,,,,,,
,5df42244946e972fd0bfeddb,001,2022-04-29_04h02.22.845,classification_task,2021.2.3,Win32,143.9055979,5df42244946e972fd0bfeddb,626b377229c10585ec392f8a,626b390edce70f07abfb883a,,,,,,,,,,,,,,,,,,,,,,,,0,,"[""0.406"",""0.355"",""0.544"",""0.712""]","[0,1,1,1]",0,35,35,35,1,1,0,,,1,FALSE,,,,,,,,,,,,,,,,,,,,,,,,,,,,,,
,5df42244946e972fd0bfeddb,001,2022-04-29_04h02.22.845,classification_task,2021.2.3,Win32,143.9055979,5df42244946e972fd0bfeddb,626b377229c10585ec392f8a,626b390edce70f07abfb883a,,,,,,,,,,,,,,,,,,,,,,,,0,,"[""0.138"",""0.395"",""0.544"",""0.712""]","[1,0,1,1]",0,36,36,36,1,1,0,,,1,FALSE,,,,,,,,,,,,,,,,,,,,,,,,,,,,,,
,5df42244946e972fd0bfeddb,001,2022-04-29_04h02.22.845,classification_task,2021.2.3,Win32,143.9055979,5df42244946e972fd0bfeddb,626b377229c10585ec392f8a,626b390edce70f07abfb883a,,,,,,,,,,,,,,,,,,,,,,,,0,,"[""0.138"",""0.355"",""0.418"",""0.712""]","[1,1,0,1]",0,37,37,37,1,1,0,,,1,FALSE,,,,,,,,,,,,,,,,,,,,,,,,,,,,,,
,5df42244946e972fd0bfeddb,001,2022-04-29_04h02.22.845,classification_task,2021.2.3,Win32,143.9055979,5df42244946e972fd0bfeddb,626b377229c10585ec392f8a,626b390edce70f07abfb883a,,,,,,,,,,,,,,,,,,,,,,,,0,,"[""0.757"",""0.286"",""0.670"",""0.800""]","[0,1,1,1]",0,38,38,38,1,1,1,,,1,FALSE,,,,,,,,,,,,,,,,,,,,,,,,,,,,,,
,5df42244946e972fd0bfeddb,001,2022-04-29_04h02.22.845,classification_task,2021.2.3,Win32,143.9055979,5df42244946e972fd0bfeddb,626b377229c10585ec392f8a,626b390edce70f07abfb883a,,,,,,,,,,,,,,,,,,,,,,,l,1,6.5806,"[""0.071"",""0.418"",""0.670"",""0.800""]","[1,0,1,1]",0,39,39,39,1,1,1,,,1,FALSE,,,,,,,,,,,,,,,,,,,,,,,,,,,,,,
,5df42244946e972fd0bfeddb,001,2022-04-29_04h02.22.845,classification_task,2021.2.3,Win32,143.9055979,5df42244946e972fd0bfeddb,626b377229c10585ec392f8a,626b390edce70f07abfb883a,,,,,,,,,,,,,,,,,,,,,,,a,1,1.5641,"[""0.032"",""0.472"",""0.608"",""0.852""]","[0,1,1,1]",0,40,40,40,1,0,1,,,1,FALSE,,,,,,,,,,,,,,,,,,,,,,,,,,,,,,
,5df42244946e972fd0bfeddb,001,2022-04-29_04h02.22.845,classification_task,2021.2.3,Win32,143.9055979,5df42244946e972fd0bfeddb,626b377229c10585ec392f8a,626b390edce70f07abfb883a,,,,,,,,,,,,,,,,,,,,,,,l,0,1.3654,"[""0.178"",""0.509"",""0.901"",""0.031""]","[1,1,1,0]",0,41,41,41,1,0,0,,,1,FALSE,,,,,,,,,,,,,,,,,,,,,,,,,,,,,,
,5df42244946e972fd0bfeddb,001,2022-04-29_04h02.22.845,classification_task,2021.2.3,Win32,143.9055979,5df42244946e972fd0bfeddb,626b377229c10585ec392f8a,626b390edce70f07abfb883a,,,,,,,,,,,,,,,,,,,,,,,a,1,0.792,"[""0.178"",""0.755"",""0.901"",""0.955""]","[1,0,1,1]",0,42,42,42,1,0,0,,,1,FALSE,,,,,,,,,,,,,,,,,,,,,,,,,,,,,,
,5df42244946e972fd0bfeddb,001,2022-04-29_04h02.22.845,classification_task,2021.2.3,Win32,143.9055979,5df42244946e972fd0bfeddb,626b377229c10585ec392f8a,626b390edce70f07abfb883a,,,,,,,,,,,,,,,,,,,,,,,a,1,1.0989,"[""0.418"",""0.509"",""0.901"",""0.955""]","[0,1,1,1]",0,43,43,43,1,0,0,,,1,FALSE,,,,,,,,,,,,,,,,,,,,,,,,,,,,,,
,5df42244946e972fd0bfeddb,001,2022-04-29_04h02.22.845,classification_task,2021.2.3,Win32,143.9055979,5df42244946e972fd0bfeddb,626b377229c10585ec392f8a,626b390edce70f07abfb883a,,,,,,,,,,,,,,,,,,,,,,,a,1,0.7838,"[""0.221"",""0.472"",""0.418"",""0.852""]","[1,1,0,1]",0,44,44,44,1,0,1,,,1,FALSE,,,,,,,,,,,,,,,,,,,,,,,,,,,,,,
,5df42244946e972fd0bfeddb,001,2022-04-29_04h02.22.845,classification_task,2021.2.3,Win32,143.9055979,5df42244946e972fd0bfeddb,626b377229c10585ec392f8a,626b390edce70f07abfb883a,,,,,,,,,,,,,,,,,,,,,,,l,1,0.4138,"[""0.071"",""0.286"",""0.670"",""0.403""]","[1,1,1,0]",0,45,45,45,1,1,1,,,1,FALSE,,,,,,,,,,,,,,,,,,,,,,,,,,,,,,
,5df42244946e972fd0bfeddb,001,2022-04-29_04h02.22.845,classification_task,2021.2.3,Win32,143.9055979,5df42244946e972fd0bfeddb,626b377229c10585ec392f8a,626b390edce70f07abfb883a,,,,,,,,,,,,,,,,,,,,,,,l,1,0.5165,"[""0.071"",""0.286"",""0.748"",""0.800""]","[1,1,0,1]",0,46,46,46,1,1,1,,,1,FALSE,,,,,,,,,,,,,,,,,,,,,,,,,,,,,,
,5df42244946e972fd0bfeddb,001,2022-04-29_04h02.22.845,classification_task,2021.2.3,Win32,143.9055979,5df42244946e972fd0bfeddb,626b377229c10585ec392f8a,626b390edce70f07abfb883a,,,,,,,,,,,,,,,,,,,,,,,a,1,0.5027,"[""0.221"",""0.472"",""0.608"",""0.418""]","[1,1,1,0]",0,47,47,47,1,0,1,,,1,FALSE,,,,,,,,,,,,,,,,,,,,,,,,,,,,,,
,5df42244946e972fd0bfeddb,001,2022-04-29_04h02.22.845,classification_task,2021.2.3,Win32,143.9055979,5df42244946e972fd0bfeddb,626b377229c10585ec392f8a,626b390edce70f07abfb883a,,,,,,,,,,,,,,,,,,,,,,,l,1,1.0072,"[""0.138"",""0.355"",""0.418"",""0.712""]","[1,1,0,1]",0,48,48,48,1,1,0,,,1,FALSE,,,,,,,,,,,,,,,,,,,,,,,,,,,,,,
,5df42244946e972fd0bfeddb,001,2022-04-29_04h02.22.845,classification_task,2021.2.3,Win32,143.9055979,5df42244946e972fd0bfeddb,626b377229c10585ec392f8a,626b390edce70f07abfb883a,,,,,,,,,,,,,,,,,,,,,,,a,0,0.9568,"[""0.138"",""0.355"",""0.544"",""0.418""]","[1,1,1,0]",0,49,49,49,1,1,0,,,1,FALSE,,,,,,,,,,,,,,,,,,,,,,,,,,,,,,
,5df42244946e972fd0bfeddb,001,2022-04-29_04h02.22.845,classification_task,2021.2.3,Win32,143.9055979,5df42244946e972fd0bfeddb,626b377229c10585ec392f8a,626b390edce70f07abfb883a,,,,,,,,,,,,,,,,,,,,,,,l,0,1.0311,"[""0.178"",""0.509"",""0.418"",""0.955""]","[1,1,0,1]",0,50,50,50,1,0,0,,,1,FALSE,,,,,,,,,,,,,,,,,,,,,,,,,,,,,,
,5df42244946e972fd0bfeddb,001,2022-04-29_04h02.22.845,classification_task,2021.2.3,Win32,143.9055979,5df42244946e972fd0bfeddb,626b377229c10585ec392f8a,626b390edce70f07abfb883a,,,,,,,,,,,,,,,,,,,,,,,l,1,0.9929,"[""0.395"",""0.286"",""0.670"",""0.800""]","[0,1,1,1]",0,51,51,51,1,1,1,,,1,FALSE,,,,,,,,,,,,,,,,,,,,,,,,,,,,,,
,5df42244946e972fd0bfeddb,001,2022-04-29_04h02.22.845,classification_task,2021.2.3,Win32,143.9055979,5df42244946e972fd0bfeddb,626b377229c10585ec392f8a,626b390edce70f07abfb883a,,,,,,,,,,,,,,,,,,,,,,,a,1,0.5755,"[""0.221"",""0.401"",""0.608"",""0.852""]","[1,0,1,1]",0,52,52,52,1,0,1,,,1,FALSE,,,,,,,,,,,,,,,,,,,,,,,,,,,,,,
,5df42244946e972fd0bfeddb,001,2022-04-29_04h02.22.845,classification_task,2021.2.3,Win32,143.9055979,5df42244946e972fd0bfeddb,626b377229c10585ec392f8a,626b390edce70f07abfb883a,,,,,,,,,,,,,,,,,,,,,,,a,0,0.9284,"[""0.406"",""0.355"",""0.544"",""0.712""]","[0,1,1,1]",0,53,53,53,1,1,0,,,1,FALSE,,,,,,,,,,,,,,,,,,,,,,,,,,,,,,
,5df42244946e972fd0bfeddb,001,2022-04-29_04h02.22.845,classification_task,2021.2.3,Win32,143.9055979,5df42244946e972fd0bfeddb,626b377229c10585ec392f8a,626b390edce70f07abfb883a,,,,,,,,,,,,,,,,,,,,,,,l,1,0.9468,"[""0.071"",""0.286"",""0.033"",""0.800""]","[1,1,0,1]",0,54,54,54,1,1,1,,,1,FALSE,,,,,,,,,,,,,,,,,,,,,,,,,,,,,,
,5df42244946e972fd0bfeddb,001,2022-04-29_04h02.22.845,classification_task,2021.2.3,Win32,143.9055979,5df42244946e972fd0bfeddb,626b377229c10585ec392f8a,626b390edce70f07abfb883a,,,,,,,,,,,,,,,,,,,,,,,l,0,0.5793,"[""0.757"",""0.509"",""0.901"",""0.955""]","[0,1,1,1]",0,55,55,55,1,0,0,,,1,FALSE,,,,,,,,,,,,,,,,,,,,,,,,,,,,,,
,5df42244946e972fd0bfeddb,001,2022-04-29_04h02.22.845,classification_task,2021.2.3,Win32,143.9055979,5df42244946e972fd0bfeddb,626b377229c10585ec392f8a,626b390edce70f07abfb883a,,,,,,,,,,,,,,,,,,,,,,,a,0,0.2394,"[""0.138"",""0.032"",""0.544"",""0.712""]","[1,0,1,1]",0,56,56,56,1,1,0,,,1,FALSE,,,,,,,,,,,,,,,,,,,,,,,,,,,,,,
,5df42244946e972fd0bfeddb,001,2022-04-29_04h02.22.845,classification_task,2021.2.3,Win32,143.9055979,5df42244946e972fd0bfeddb,626b377229c10585ec392f8a,626b390edce70f07abfb883a,,,,,,,,,,,,,,,,,,,,,,,a,1,1.2024,"[""0.221"",""0.472"",""0.757"",""0.852""]","[1,1,0,1]",0,57,57,57,1,0,1,,,1,FALSE,,,,,,,,,,,,,,,,,,,,,,,,,,,,,,
,5df42244946e972fd0bfeddb,001,2022-04-29_04h02.22.845,classification_task,2021.2.3,Win32,143.9055979,5df42244946e972fd0bfeddb,626b377229c10585ec392f8a,626b390edce70f07abfb883a,,,,,,,,,,,,,,,,,,,,,,,a,1,1.0474,"[""0.178"",""0.509"",""0.901"",""0.031""]","[1,1,1,0]",0,58,58,58,1,0,0,,,1,FALSE,,,,,,,,,,,,,,,,,,,,,,,,,,,,,,
,5df42244946e972fd0bfeddb,001,2022-04-29_04h02.22.845,classification_task,2021.2.3,Win32,143.9055979,5df42244946e972fd0bfeddb,626b377229c10585ec392f8a,626b390edce70f07abfb883a,,,,,,,,,,,,,,,,,,,,,,,l,1,0.527,"[""0.071"",""0.408"",""0.670"",""0.800""]","[1,0,1,1]",0,59,59,59,1,1,1,,,1,FALSE,,,,,,,,,,,,,,,,,,,,,,,,,,,,,,
,5df42244946e972fd0bfeddb,001,2022-04-29_04h02.22.845,classification_task,2021.2.3,Win32,143.9055979,5df42244946e972fd0bfeddb,626b377229c10585ec392f8a,626b390edce70f07abfb883a,,,,,,,,,,,,,,,,,,,,,,,a,1,0.793,"[""0.178"",""0.395"",""0.901"",""0.955""]","[1,0,1,1]",0,60,60,60,1,0,0,,,1,FALSE,,,,,,,,,,,,,,,,,,,,,,,,,,,,,,
,5df42244946e972fd0bfeddb,001,2022-04-29_04h02.22.845,classification_task,2021.2.3,Win32,143.9055979,5df42244946e972fd0bfeddb,626b377229c10585ec392f8a,626b390edce70f07abfb883a,,,,,,,,,,,,,,,,,,,,,,,l,1,0.7539,"[""0.071"",""0.286"",""0.670"",""0.408""]","[1,1,1,0]",0,61,61,61,1,1,1,,,1,FALSE,,,,,,,,,,,,,,,,,,,,,,,,,,,,,,
,5df42244946e972fd0bfeddb,001,2022-04-29_04h02.22.845,classification_task,2021.2.3,Win32,143.9055979,5df42244946e972fd0bfeddb,626b377229c10585ec392f8a,626b390edce70f07abfb883a,,,,,,,,,,,,,,,,,,,,,,,a,1,0.6352,"[""0.221"",""0.472"",""0.608"",""0.401""]","[1,1,1,0]",0,62,62,62,1,0,1,,,1,FALSE,,,,,,,,,,,,,,,,,,,,,,,,,,,,,,
,5df42244946e972fd0bfeddb,001,2022-04-29_04h02.22.845,classification_task,2021.2.3,Win32,143.9055979,5df42244946e972fd0bfeddb,626b377229c10585ec392f8a,626b390edce70f07abfb883a,,,,,,,,,,,,,,,,,,,,,,,a,1,0.53,"[""0.031"",""0.472"",""0.608"",""0.852""]","[0,1,1,1]",0,63,63,63,1,0,1,,,1,FALSE,,,,,,,,,,,,,,,,,,,,,,,,,,,,,,
,5df42244946e972fd0bfeddb,001,2022-04-29_04h02.22.845,classification_task,2021.2.3,Win32,143.9055979,5df42244946e972fd0bfeddb,626b377229c10585ec392f8a,626b390edce70f07abfb883a,,,,,,,,,,,,,,,,,,,,,,,,,,,,,,,,,,,,,,,0, ,,0,,,0,1,1,1,1,2,2,,,,,,,,,,,,,,,,,
,5df42244946e972fd0bfeddb,001,2022-04-29_04h02.22.845,classification_task,2021.2.3,Win32,143.9055979,5df42244946e972fd0bfeddb,626b377229c10585ec392f8a,626b390edce70f07abfb883a,,,,,,,,,,,,,,,,,,,,,,,,,,,,,,,,,,,,,,,1,  ,,0,,,0,1,1,1,1,2,2,,,,,,,,,,,,,,,,,
,5df42244946e972fd0bfeddb,001,2022-04-29_04h02.22.845,classification_task,2021.2.3,Win32,143.9055979,5df42244946e972fd0bfeddb,626b377229c10585ec392f8a,626b390edce70f07abfb883a,,,,,,,,,,,,,,,,,,,,,,,,,,,,,,,,,,,,,,,2,  ,,0,,,0,1,1,1,1,2,2,,,,,,,,,,,,,,,,,
,5df42244946e972fd0bfeddb,001,2022-04-29_04h02.22.845,classification_task,2021.2.3,Win32,143.9055979,5df42244946e972fd0bfeddb,626b377229c10585ec392f8a,626b390edce70f07abfb883a,,,,,,,,,,,,,,,,,,,,,,,,,,,,,,,,,,,,,,,,,,,,,0,1,1,1,1,,2,,,,,,,,,,,,,,,,,
,5df42244946e972fd0bfeddb,001,2022-04-29_04h02.22.845,classification_task,2021.2.3,Win32,143.9055979,5df42244946e972fd0bfeddb,626b377229c10585ec392f8a,626b390edce70f07abfb883a,,,,,,,,,,,,,,,,,,,,,space,5.6307,a,1,1.0061,"[""0.178"",""0.418"",""0.901"",""0.955""]","[1,0,1,1]",0,0,0,0,1,0,0,,,1,FALSE,,,,,,,,,,,,,,,,,,,,,,,,,,,,,,
,5df42244946e972fd0bfeddb,001,2022-04-29_04h02.22.845,classification_task,2021.2.3,Win32,143.9055979,5df42244946e972fd0bfeddb,626b377229c10585ec392f8a,626b390edce70f07abfb883a,,,,,,,,,,,,,,,,,,,,,,,l,1,0.883,"[""0.418"",""0.355"",""0.544"",""0.712""]","[0,1,1,1]",0,1,1,1,1,1,0,,,1,FALSE,,,,,,,,,,,,,,,,,,,,,,,,,,,,,,
,5df42244946e972fd0bfeddb,001,2022-04-29_04h02.22.845,classification_task,2021.2.3,Win32,143.9055979,5df42244946e972fd0bfeddb,626b377229c10585ec392f8a,626b390edce70f07abfb883a,,,,,,,,,,,,,,,,,,,,,,,l,0,0.891,"[""0.221"",""0.401"",""0.608"",""0.852""]","[1,0,1,1]",0,2,2,2,1,0,1,,,1,FALSE,,,,,,,,,,,,,,,,,,,,,,,,,,,,,,
,5df42244946e972fd0bfeddb,001,2022-04-29_04h02.22.845,classification_task,2021.2.3,Win32,143.9055979,5df42244946e972fd0bfeddb,626b377229c10585ec392f8a,626b390edce70f07abfb883a,,,,,,,,,,,,,,,,,,,,,,,a,0,0.9061,"[""0.071"",""0.286"",""0.670"",""0.403""]","[1,1,1,0]",0,3,3,3,1,1,1,,,1,FALSE,,,,,,,,,,,,,,,,,,,,,,,,,,,,,,
,5df42244946e972fd0bfeddb,001,2022-04-29_04h02.22.845,classification_task,2021.2.3,Win32,143.9055979,5df42244946e972fd0bfeddb,626b377229c10585ec392f8a,626b390edce70f07abfb883a,,,,,,,,,,,,,,,,,,,,,,,a,0,1.1031,"[""0.138"",""0.355"",""0.031"",""0.712""]","[1,1,0,1]",0,4,4,4,1,1,0,,,1,FALSE,,,,,,,,,,,,,,,,,,,,,,,,,,,,,,
,5df42244946e972fd0bfeddb,001,2022-04-29_04h02.22.845,classification_task,2021.2.3,Win32,143.9055979,5df42244946e972fd0bfeddb,626b377229c10585ec392f8a,626b390edce70f07abfb883a,,,,,,,,,,,,,,,,,,,,,,,l,0,1.2449,"[""0.395"",""0.472"",""0.608"",""0.852""]","[0,1,1,1]",0,5,5,5,1,0,1,,,1,FALSE,,,,,,,,,,,,,,,,,,,,,,,,,,,,,,
,5df42244946e972fd0bfeddb,001,2022-04-29_04h02.22.845,classification_task,2021.2.3,Win32,143.9055979,5df42244946e972fd0bfeddb,626b377229c10585ec392f8a,626b390edce70f07abfb883a,,,,,,,,,,,,,,,,,,,,,,,l,1,1.3897,"[""0.757"",""0.286"",""0.670"",""0.800""]","[0,1,1,1]",0,6,6,6,1,1,1,,,1,FALSE,,,,,,,,,,,,,,,,,,,,,,,,,,,,,,
,5df42244946e972fd0bfeddb,001,2022-04-29_04h02.22.845,classification_task,2021.2.3,Win32,143.9055979,5df42244946e972fd0bfeddb,626b377229c10585ec392f8a,626b390edce70f07abfb883a,,,,,,,,,,,,,,,,,,,,,,,a,1,0.9444,"[""0.178"",""0.509"",""0.901"",""0.032""]","[1,1,1,0]",0,7,7,7,1,0,0,,,1,FALSE,,,,,,,,,,,,,,,,,,,,,,,,,,,,,,
,5df42244946e972fd0bfeddb,001,2022-04-29_04h02.22.845,classification_task,2021.2.3,Win32,143.9055979,5df42244946e972fd0bfeddb,626b377229c10585ec392f8a,626b390edce70f07abfb883a,,,,,,,,,,,,,,,,,,,,,,,l,0,0.7224,"[""0.178"",""0.509"",""0.757"",""0.955""]","[1,1,0,1]",0,8,8,8,1,0,0,,,1,FALSE,,,,,,,,,,,,,,,,,,,,,,,,,,,,,,
,5df42244946e972fd0bfeddb,001,2022-04-29_04h02.22.845,classification_task,2021.2.3,Win32,143.9055979,5df42244946e972fd0bfeddb,626b377229c10585ec392f8a,626b390edce70f07abfb883a,,,,,,,,,,,,,,,,,,,,,,,l,0,1.3275,"[""0.221"",""0.472"",""0.408"",""0.852""]","[1,1,0,1]",0,9,9,9,1,0,1,,,1,FALSE,,,,,,,,,,,,,,,,,,,,,,,,,,,,,,
,5df42244946e972fd0bfeddb,001,2022-04-29_04h02.22.845,classification_task,2021.2.3,Win32,143.9055979,5df42244946e972fd0bfeddb,626b377229c10585ec392f8a,626b390edce70f07abfb883a,,,,,,,,,,,,,,,,,,,,,,,a,1,0.5214,"[""0.418"",""0.509"",""0.901"",""0.955""]","[0,1,1,1]",0,10,10,10,1,0,0,,,1,FALSE,,,,,,,,,,,,,,,,,,,,,,,,,,,,,,
,5df42244946e972fd0bfeddb,001,2022-04-29_04h02.22.845,classification_task,2021.2.3,Win32,143.9055979,5df42244946e972fd0bfeddb,626b377229c10585ec392f8a,626b390edce70f07abfb883a,,,,,,,,,,,,,,,,,,,,,,,l,1,1.1881,"[""0.071"",""0.401"",""0.670"",""0.800""]","[1,0,1,1]",0,11,11,11,1,1,1,,,1,FALSE,,,,,,,,,,,,,,,,,,,,,,,,,,,,,,
,5df42244946e972fd0bfeddb,001,2022-04-29_04h02.22.845,classification_task,2021.2.3,Win32,143.9055979,5df42244946e972fd0bfeddb,626b377229c10585ec392f8a,626b390edce70f07abfb883a,,,,,,,,,,,,,,,,,,,,,,,a,0,0.9297,"[""0.138"",""0.418"",""0.544"",""0.712""]","[1,0,1,1]",0,12,12,12,1,1,0,,,1,FALSE,,,,,,,,,,,,,,,,,,,,,,,,,,,,,,
,5df42244946e972fd0bfeddb,001,2022-04-29_04h02.22.845,classification_task,2021.2.3,Win32,143.9055979,5df42244946e972fd0bfeddb,626b377229c10585ec392f8a,626b390edce70f07abfb883a,,,,,,,,,,,,,,,,,,,,,,,a,0,0.3496,"[""0.071"",""0.286"",""0.399"",""0.800""]","[1,1,0,1]",0,13,13,13,1,1,1,,,1,FALSE,,,,,,,,,,,,,,,,,,,,,,,,,,,,,,
,5df42244946e972fd0bfeddb,001,2022-04-29_04h02.22.845,classification_task,2021.2.3,Win32,143.9055979,5df42244946e972fd0bfeddb,626b377229c10585ec392f8a,626b390edce70f07abfb883a,,,,,,,,,,,,,,,,,,,,,,,l,1,0.2089,"[""0.138"",""0.355"",""0.544"",""0.033""]","[1,1,1,0]",0,14,14,14,1,1,0,,,1,FALSE,,,,,,,,,,,,,,,,,,,,,,,,,,,,,,
,5df42244946e972fd0bfeddb,001,2022-04-29_04h02.22.845,classification_task,2021.2.3,Win32,143.9055979,5df42244946e972fd0bfeddb,626b377229c10585ec392f8a,626b390edce70f07abfb883a,,,,,,,,,,,,,,,,,,,,,,,a,1,0.4191,"[""0.221"",""0.472"",""0.608"",""0.418""]","[1,1,1,0]",0,15,15,15,1,0,1,,,1,FALSE,,,,,,,,,,,,,,,,,,,,,,,,,,,,,,
,5df42244946e972fd0bfeddb,001,2022-04-29_04h02.22.845,classification_task,2021.2.3,Win32,143.9055979,5df42244946e972fd0bfeddb,626b377229c10585ec392f8a,626b390edce70f07abfb883a,,,,,,,,,,,,,,,,,,,,,,,l,1,4.3507,"[""0.071"",""0.286"",""0.670"",""0.033""]","[1,1,1,0]",0,16,16,16,1,1,1,,,1,FALSE,,,,,,,,,,,,,,,,,,,,,,,,,,,,,,
,5df42244946e972fd0bfeddb,001,2022-04-29_04h02.22.845,classification_task,2021.2.3,Win32,143.9055979,5df42244946e972fd0bfeddb,626b377229c10585ec392f8a,626b390edce70f07abfb883a,,,,,,,,,,,,,,,,,,,,,,,a,0,1.9857,"[""0.071"",""0.403"",""0.670"",""0.800""]","[1,0,1,1]",0,17,17,17,1,1,1,,,1,FALSE,,,,,,,,,,,,,,,,,,,,,,,,,,,,,,
,5df42244946e972fd0bfeddb,001,2022-04-29_04h02.22.845,classification_task,2021.2.3,Win32,143.9055979,5df42244946e972fd0bfeddb,626b377229c10585ec392f8a,626b390edce70f07abfb883a,,,,,,,,,,,,,,,,,,,,,,,a,1,0.8207,"[""0.757"",""0.509"",""0.901"",""0.955""]","[0,1,1,1]",0,18,18,18,1,0,0,,,1,FALSE,,,,,,,,,,,,,,,,,,,,,,,,,,,,,,
,5df42244946e972fd0bfeddb,001,2022-04-29_04h02.22.845,classification_task,2021.2.3,Win32,143.9055979,5df42244946e972fd0bfeddb,626b377229c10585ec392f8a,626b390edce70f07abfb883a,,,,,,,,,,,,,,,,,,,,,,,l,1,0.8398,"[""0.138"",""0.355"",""0.544"",""0.032""]","[1,1,1,0]",0,19,19,19,1,1,0,,,1,FALSE,,,,,,,,,,,,,,,,,,,,,,,,,,,,,,
,5df42244946e972fd0bfeddb,001,2022-04-29_04h02.22.845,classification_task,2021.2.3,Win32,143.9055979,5df42244946e972fd0bfeddb,626b377229c10585ec392f8a,626b390edce70f07abfb883a,,,,,,,,,,,,,,,,,,,,,,,a,1,0.4864,"[""0.221"",""0.033"",""0.608"",""0.852""]","[1,0,1,1]",0,20,20,20,1,0,1,,,1,FALSE,,,,,,,,,,,,,,,,,,,,,,,,,,,,,,
,5df42244946e972fd0bfeddb,001,2022-04-29_04h02.22.845,classification_task,2021.2.3,Win32,143.9055979,5df42244946e972fd0bfeddb,626b377229c10585ec392f8a,626b390edce70f07abfb883a,,,,,,,,,,,,,,,,,,,,,,,l,0,0.2551,"[""0.403"",""0.472"",""0.608"",""0.852""]","[0,1,1,1]",0,21,21,21,1,0,1,,,1,FALSE,,,,,,,,,,,,,,,,,,,,,,,,,,,,,,
,5df42244946e972fd0bfeddb,001,2022-04-29_04h02.22.845,classification_task,2021.2.3,Win32,143.9055979,5df42244946e972fd0bfeddb,626b377229c10585ec392f8a,626b390edce70f07abfb883a,,,,,,,,,,,,,,,,,,,,,,,l,0,0.4164,"[""0.178"",""0.509"",""0.418"",""0.955""]","[1,1,0,1]",0,22,22,22,1,0,0,,,1,FALSE,,,,,,,,,,,,,,,,,,,,,,,,,,,,,,
,5df42244946e972fd0bfeddb,001,2022-04-29_04h02.22.845,classification_task,2021.2.3,Win32,143.9055979,5df42244946e972fd0bfeddb,626b377229c10585ec392f8a,626b390edce70f07abfb883a,,,,,,,,,,,,,,,,,,,,,,,a,1,1.1467,"[""0.221"",""0.472"",""0.608"",""0.399""]","[1,1,1,0]",0,23,23,23,1,0,1,,,1,FALSE,,,,,,,,,,,,,,,,,,,,,,,,,,,,,,
,5df42244946e972fd0bfeddb,001,2022-04-29_04h02.22.845,classification_task,2021.2.3,Win32,143.9055979,5df42244946e972fd0bfeddb,626b377229c10585ec392f8a,626b390edce70f07abfb883a,,,,,,,,,,,,,,,,,,,,,,,l,0,8.083,"[""0.178"",""0.033"",""0.901"",""0.955""]","[1,0,1,1]",0,24,24,24,1,0,0,,,1,FALSE,,,,,,,,,,,,,,,,,,,,,,,,,,,,,,
,5df42244946e972fd0bfeddb,001,2022-04-29_04h02.22.845,classification_task,2021.2.3,Win32,143.9055979,5df42244946e972fd0bfeddb,626b377229c10585ec392f8a,626b390edce70f07abfb883a,,,,,,,,,,,,,,,,,,,,,,,l,1,4.2709,"[""0.071"",""0.286"",""0.032"",""0.800""]","[1,1,0,1]",0,25,25,25,1,1,1,,,1,FALSE,,,,,,,,,,,,,,,,,,,,,,,,,,,,,,
,5df42244946e972fd0bfeddb,001,2022-04-29_04h02.22.845,classification_task,2021.2.3,Win32,143.9055979,5df42244946e972fd0bfeddb,626b377229c10585ec392f8a,626b390edce70f07abfb883a,,,,,,,,,,,,,,,,,,,,,,,l,0,2.1795,"[""0.221"",""0.472"",""0.031"",""0.852""]","[1,1,0,1]",0,26,26,26,1,0,1,,,1,FALSE,,,,,,,,,,,,,,,,,,,,,,,,,,,,,,
,5df42244946e972fd0bfeddb,001,2022-04-29_04h02.22.845,classification_task,2021.2.3,Win32,143.9055979,5df42244946e972fd0bfeddb,626b377229c10585ec392f8a,626b390edce70f07abfb883a,,,,,,,,,,,,,,,,,,,,,,,l,1,3.7759,"[""0.138"",""0.355"",""0.395"",""0.712""]","[1,1,0,1]",0,27,27,27,1,1,0,,,1,FALSE,,,,,,,,,,,,,,,,,,,,,,,,,,,,,,
,5df42244946e972fd0bfeddb,001,2022-04-29_04h02.22.845,classification_task,2021.2.3,Win32,143.9055979,5df42244946e972fd0bfeddb,626b377229c10585ec392f8a,626b390edce70f07abfb883a,,,,,,,,,,,,,,,,,,,,,,,a,1,3.1783,"[""0.178"",""0.509"",""0.901"",""0.032""]","[1,1,1,0]",0,28,28,28,1,0,0,,,1,FALSE,,,,,,,,,,,,,,,,,,,,,,,,,,,,,,
,5df42244946e972fd0bfeddb,001,2022-04-29_04h02.22.845,classification_task,2021.2.3,Win32,143.9055979,5df42244946e972fd0bfeddb,626b377229c10585ec392f8a,626b390edce70f07abfb883a,,,,,,,,,,,,,,,,,,,,,,,l,1,1.7546,"[""0.408"",""0.286"",""0.670"",""0.800""]","[0,1,1,1]",0,29,29,29,1,1,1,,,1,FALSE,,,,,,,,,,,,,,,,,,,,,,,,,,,,,,
,5df42244946e972fd0bfeddb,001,2022-04-29_04h02.22.845,classification_task,2021.2.3,Win32,143.9055979,5df42244946e972fd0bfeddb,626b377229c10585ec392f8a,626b390edce70f07abfb883a,,,,,,,,,,,,,,,,,,,,,,,a,0,1.1886,"[""0.399"",""0.355"",""0.544"",""0.712""]","[0,1,1,1]",0,30,30,30,1,1,0,,,1,FALSE,,,,,,,,,,,,,,,,,,,,,,,,,,,,,,
,5df42244946e972fd0bfeddb,001,2022-04-29_04h02.22.845,classification_task,2021.2.3,Win32,143.9055979,5df42244946e972fd0bfeddb,626b377229c10585ec392f8a,626b390edce70f07abfb883a,,,,,,,,,,,,,,,,,,,,,,,l,1,0.2693,"[""0.138"",""0.401"",""0.544"",""0.712""]","[1,0,1,1]",0,31,31,31,1,1,0,,,1,FALSE,,,,,,,,,,,,,,,,,,,,,,,,,,,,,,
,5df42244946e972fd0bfeddb,001,2022-04-29_04h02.22.845,classification_task,2021.2.3,Win32,143.9055979,5df42244946e972fd0bfeddb,626b377229c10585ec392f8a,626b390edce70f07abfb883a,,,,,,,,,,,,,,,,,,,,,,,l,1,1.1393,"[""0.395"",""0.286"",""0.670"",""0.800""]","[0,1,1,1]",0,32,32,32,1,1,1,,,1,FALSE,,,,,,,,,,,,,,,,,,,,,,,,,,,,,,
,5df42244946e972fd0bfeddb,001,2022-04-29_04h02.22.845,classification_task,2021.2.3,Win32,143.9055979,5df42244946e972fd0bfeddb,626b377229c10585ec392f8a,626b390edce70f07abfb883a,,,,,,,,,,,,,,,,,,,,,,,l,1,0.4513,"[""0.755"",""0.355"",""0.544"",""0.712""]","[0,1,1,1]",0,33,33,33,1,1,0,,,1,FALSE,,,,,,,,,,,,,,,,,,,,,,,,,,,,,,
,5df42244946e972fd0bfeddb,001,2022-04-29_04h02.22.845,classification_task,2021.2.3,Win32,143.9055979,5df42244946e972fd0bfeddb,626b377229c10585ec392f8a,626b390edce70f07abfb883a,,,,,,,,,,,,,,,,,,,,,,,l,1,0.792,"[""0.138"",""0.748"",""0.544"",""0.712""]","[1,0,1,1]",0,34,34,34,1,1,0,,,1,FALSE,,,,,,,,,,,,,,,,,,,,,,,,,,,,,,
,5df42244946e972fd0bfeddb,001,2022-04-29_04h02.22.845,classification_task,2021.2.3,Win32,143.9055979,5df42244946e972fd0bfeddb,626b377229c10585ec392f8a,626b390edce70f07abfb883a,,,,,,,,,,,,,,,,,,,,,,,a,0,0.3094,"[""0.138"",""0.355"",""0.544"",""0.031""]","[1,1,1,0]",0,35,35,35,1,1,0,,,1,FALSE,,,,,,,,,,,,,,,,,,,,,,,,,,,,,,
,5df42244946e972fd0bfeddb,001,2022-04-29_04h02.22.845,classification_task,2021.2.3,Win32,143.9055979,5df42244946e972fd0bfeddb,626b377229c10585ec392f8a,626b390edce70f07abfb883a,,,,,,,,,,,,,,,,,,,,,,,l,0,0.8683,"[""0.221"",""0.472"",""0.608"",""0.418""]","[1,1,1,0]",0,36,36,36,1,0,1,,,1,FALSE,,,,,,,,,,,,,,,,,,,,,,,,,,,,,,
,5df42244946e972fd0bfeddb,001,2022-04-29_04h02.22.845,classification_task,2021.2.3,Win32,143.9055979,5df42244946e972fd0bfeddb,626b377229c10585ec392f8a,626b390edce70f07abfb883a,,,,,,,,,,,,,,,,,,,,,,,a,1,4.3881,"[""0.748"",""0.509"",""0.901"",""0.955""]","[0,1,1,1]",0,37,37,37,1,0,0,,,1,FALSE,,,,,,,,,,,,,,,,,,,,,,,,,,,,,,
,5df42244946e972fd0bfeddb,001,2022-04-29_04h02.22.845,classification_task,2021.2.3,Win32,143.9055979,5df42244946e972fd0bfeddb,626b377229c10585ec392f8a,626b390edce70f07abfb883a,,,,,,,,,,,,,,,,,,,,,,,l,1,1.6575,"[""0.071"",""0.286"",""0.403"",""0.800""]","[1,1,0,1]",0,38,38,38,1,1,1,,,1,FALSE,,,,,,,,,,,,,,,,,,,,,,,,,,,,,,
,5df42244946e972fd0bfeddb,001,2022-04-29_04h02.22.845,classification_task,2021.2.3,Win32,143.9055979,5df42244946e972fd0bfeddb,626b377229c10585ec392f8a,626b390edce70f07abfb883a,,,,,,,,,,,,,,,,,,,,,,,l,0,1.7522,"[""0.403"",""0.472"",""0.608"",""0.852""]","[0,1,1,1]",0,39,39,39,1,0,1,,,1,FALSE,,,,,,,,,,,,,,,,,,,,,,,,,,,,,,
,5df42244946e972fd0bfeddb,001,2022-04-29_04h02.22.845,classification_task,2021.2.3,Win32,143.9055979,5df42244946e972fd0bfeddb,626b377229c10585ec392f8a,626b390edce70f07abfb883a,,,,,,,,,,,,,,,,,,,,,,,a,0,0.8252,"[""0.071"",""0.033"",""0.670"",""0.800""]","[1,0,1,1]",0,40,40,40,1,1,1,,,1,FALSE,,,,,,,,,,,,,,,,,,,,,,,,,,,,,,
,5df42244946e972fd0bfeddb,001,2022-04-29_04h02.22.845,classification_task,2021.2.3,Win32,143.9055979,5df42244946e972fd0bfeddb,626b377229c10585ec392f8a,626b390edce70f07abfb883a,,,,,,,,,,,,,,,,,,,,,,,l,0,0.8965,"[""0.178"",""0.509"",""0.901"",""0.757""]","[1,1,1,0]",0,41,41,41,1,0,0,,,1,FALSE,,,,,,,,,,,,,,,,,,,,,,,,,,,,,,
,5df42244946e972fd0bfeddb,001,2022-04-29_04h02.22.845,classification_task,2021.2.3,Win32,143.9055979,5df42244946e972fd0bfeddb,626b377229c10585ec392f8a,626b390edce70f07abfb883a,,,,,,,,,,,,,,,,,,,,,,,l,1,0.8897,"[""0.071"",""0.286"",""0.670"",""0.418""]","[1,1,1,0]",0,42,42,42,1,1,1,,,1,FALSE,,,,,,,,,,,,,,,,,,,,,,,,,,,,,,
,5df42244946e972fd0bfeddb,001,2022-04-29_04h02.22.845,classification_task,2021.2.3,Win32,143.9055979,5df42244946e972fd0bfeddb,626b377229c10585ec392f8a,626b390edce70f07abfb883a,,,,,,,,,,,,,,,,,,,,,,,a,1,0.5096,"[""0.178"",""0.757"",""0.901"",""0.955""]","[1,0,1,1]",0,43,43,43,1,0,0,,,1,FALSE,,,,,,,,,,,,,,,,,,,,,,,,,,,,,,
,5df42244946e972fd0bfeddb,001,2022-04-29_04h02.22.845,classification_task,2021.2.3,Win32,143.9055979,5df42244946e972fd0bfeddb,626b377229c10585ec392f8a,626b390edce70f07abfb883a,,,,,,,,,,,,,,,,,,,,,,,a,1,1.1687,"[""0.221"",""0.472"",""0.033"",""0.852""]","[1,1,0,1]",0,44,44,44,1,0,1,,,1,FALSE,,,,,,,,,,,,,,,,,,,,,,,,,,,,,,
,5df42244946e972fd0bfeddb,001,2022-04-29_04h02.22.845,classification_task,2021.2.3,Win32,143.9055979,5df42244946e972fd0bfeddb,626b377229c10585ec392f8a,626b390edce70f07abfb883a,,,,,,,,,,,,,,,,,,,,,,,a,1,7.0756,"[""0.221"",""0.033"",""0.608"",""0.852""]","[1,0,1,1]",0,45,45,45,1,0,1,,,1,FALSE,,,,,,,,,,,,,,,,,,,,,,,,,,,,,,
,5df42244946e972fd0bfeddb,001,2022-04-29_04h02.22.845,classification_task,2021.2.3,Win32,143.9055979,5df42244946e972fd0bfeddb,626b377229c10585ec392f8a,626b390edce70f07abfb883a,,,,,,,,,,,,,,,,,,,,,,,l,1,1.7184,"[""0.138"",""0.355"",""0.408"",""0.712""]","[1,1,0,1]",0,46,46,46,1,1,0,,,1,FALSE,,,,,,,,,,,,,,,,,,,,,,,,,,,,,,
,5df42244946e972fd0bfeddb,001,2022-04-29_04h02.22.845,classification_task,2021.2.3,Win32,143.9055979,5df42244946e972fd0bfeddb,626b377229c10585ec392f8a,626b390edce70f07abfb883a,,,,,,,,,,,,,,,,,,,,,,,l,0,2.0272,"[""0.178"",""0.509"",""0.403"",""0.955""]","[1,1,0,1]",0,47,47,47,1,0,0,,,1,FALSE,,,,,,,,,,,,,,,,,,,,,,,,,,,,,,
,5df42244946e972fd0bfeddb,001,2022-04-29_04h02.22.845,classification_task,2021.2.3,Win32,143.9055979,5df42244946e972fd0bfeddb,626b377229c10585ec392f8a,626b390edce70f07abfb883a,,,,,,,,,,,,,,,,,,,,,,,l,1,1.6687,"[""0.033"",""0.286"",""0.670"",""0.800""]","[0,1,1,1]",0,48,48,48,1,1,1,,,1,FALSE,,,,,,,,,,,,,,,,,,,,,,,,,,,,,,
,5df42244946e972fd0bfeddb,001,2022-04-29_04h02.22.845,classification_task,2021.2.3,Win32,143.9055979,5df42244946e972fd0bfeddb,626b377229c10585ec392f8a,626b390edce70f07abfb883a,,,,,,,,,,,,,,,,,,,,,,,a,1,0.6947,"[""0.221"",""0.472"",""0.608"",""0.033""]","[1,1,1,0]",0,49,49,49,1,0,1,,,1,FALSE,,,,,,,,,,,,,,,,,,,,,,,,,,,,,,
,5df42244946e972fd0bfeddb,001,2022-04-29_04h02.22.845,classification_task,2021.2.3,Win32,143.9055979,5df42244946e972fd0bfeddb,626b377229c10585ec392f8a,626b390edce70f07abfb883a,,,,,,,,,,,,,,,,,,,,,,,l,1,1.5698,"[""0.071"",""0.401"",""0.670"",""0.800""]","[1,0,1,1]",0,50,50,50,1,1,1,,,1,FALSE,,,,,,,,,,,,,,,,,,,,,,,,,,,,,,
,5df42244946e972fd0bfeddb,001,2022-04-29_04h02.22.845,classification_task,2021.2.3,Win32,143.9055979,5df42244946e972fd0bfeddb,626b377229c10585ec392f8a,626b390edce70f07abfb883a,,,,,,,,,,,,,,,,,,,,,,,l,1,1.0355,"[""0.138"",""0.395"",""0.544"",""0.712""]","[1,0,1,1]",0,51,51,51,1,1,0,,,1,FALSE,,,,,,,,,,,,,,,,,,,,,,,,,,,,,,
,5df42244946e972fd0bfeddb,001,2022-04-29_04h02.22.845,classification_task,2021.2.3,Win32,143.9055979,5df42244946e972fd0bfeddb,626b377229c10585ec392f8a,626b390edce70f07abfb883a,,,,,,,,,,,,,,,,,,,,,,,a,1,3.8974,"[""0.178"",""0.509"",""0.901"",""0.032""]","[1,1,1,0]",0,52,52,52,1,0,0,,,1,FALSE,,,,,,,,,,,,,,,,,,,,,,,,,,,,,,
,5df42244946e972fd0bfeddb,001,2022-04-29_04h02.22.845,classification_task,2021.2.3,Win32,143.9055979,5df42244946e972fd0bfeddb,626b377229c10585ec392f8a,626b390edce70f07abfb883a,,,,,,,,,,,,,,,,,,,,,,,l,0,2.0206,"[""0.221"",""0.472"",""0.395"",""0.852""]","[1,1,0,1]",0,53,53,53,1,0,1,,,1,FALSE,,,,,,,,,,,,,,,,,,,,,,,,,,,,,,
,5df42244946e972fd0bfeddb,001,2022-04-29_04h02.22.845,classification_task,2021.2.3,Win32,143.9055979,5df42244946e972fd0bfeddb,626b377229c10585ec392f8a,626b390edce70f07abfb883a,,,,,,,,,,,,,,,,,,,,,,,l,0,2.1639,"[""0.401"",""0.472"",""0.608"",""0.852""]","[0,1,1,1]",0,54,54,54,1,0,1,,,1,FALSE,,,,,,,,,,,,,,,,,,,,,,,,,,,,,,
,5df42244946e972fd0bfeddb,001,2022-04-29_04h02.22.845,classification_task,2021.2.3,Win32,143.9055979,5df42244946e972fd0bfeddb,626b377229c10585ec392f8a,626b390edce70f07abfb883a,,,,,,,,,,,,,,,,,,,,,,,a,1,1.444,"[""0.178"",""0.509"",""0.748"",""0.955""]","[1,1,0,1]",0,55,55,55,1,0,0,,,1,FALSE,,,,,,,,,,,,,,,,,,,,,,,,,,,,,,
,5df42244946e972fd0bfeddb,001,2022-04-29_04h02.22.845,classification_task,2021.2.3,Win32,143.9055979,5df42244946e972fd0bfeddb,626b377229c10585ec392f8a,626b390edce70f07abfb883a,,,,,,,,,,,,,,,,,,,,,,,a,0,0.9249,"[""0.071"",""0.286"",""0.408"",""0.800""]","[1,1,0,1]",0,56,56,56,1,1,1,,,1,FALSE,,,,,,,,,,,,,,,,,,,,,,,,,,,,,,
,5df42244946e972fd0bfeddb,001,2022-04-29_04h02.22.845,classification_task,2021.2.3,Win32,143.9055979,5df42244946e972fd0bfeddb,626b377229c10585ec392f8a,626b390edce70f07abfb883a,,,,,,,,,,,,,,,,,,,,,,,l,1,1.3085,"[""0.138"",""0.355"",""0.401"",""0.712""]","[1,1,0,1]",0,57,57,57,1,1,0,,,1,FALSE,,,,,,,,,,,,,,,,,,,,,,,,,,,,,,
,5df42244946e972fd0bfeddb,001,2022-04-29_04h02.22.845,classification_task,2021.2.3,Win32,143.9055979,5df42244946e972fd0bfeddb,626b377229c10585ec392f8a,626b390edce70f07abfb883a,,,,,,,,,,,,,,,,,,,,,,,l,1,1.3625,"[""0.071"",""0.286"",""0.670"",""0.033""]","[1,1,1,0]",0,58,58,58,1,1,1,,,1,FALSE,,,,,,,,,,,,,,,,,,,,,,,,,,,,,,
,5df42244946e972fd0bfeddb,001,2022-04-29_04h02.22.845,classification_task,2021.2.3,Win32,143.9055979,5df42244946e972fd0bfeddb,626b377229c10585ec392f8a,626b390edce70f07abfb883a,,,,,,,,,,,,,,,,,,,,,,,a,1,0.4447,"[""0.221"",""0.418"",""0.608"",""0.852""]","[1,0,1,1]",0,59,59,59,1,0,1,,,1,FALSE,,,,,,,,,,,,,,,,,,,,,,,,,,,,,,
,5df42244946e972fd0bfeddb,001,2022-04-29_04h02.22.845,classification_task,2021.2.3,Win32,143.9055979,5df42244946e972fd0bfeddb,626b377229c10585ec392f8a,626b390edce70f07abfb883a,,,,,,,,,,,,,,,,,,,,,,,l,0,0.3839,"[""0.178"",""0.033"",""0.901"",""0.955""]","[1,0,1,1]",0,60,60,60,1,0,0,,,1,FALSE,,,,,,,,,,,,,,,,,,,,,,,,,,,,,,
,5df42244946e972fd0bfeddb,001,2022-04-29_04h02.22.845,classification_task,2021.2.3,Win32,143.9055979,5df42244946e972fd0bfeddb,626b377229c10585ec392f8a,626b390edce70f07abfb883a,,,,,,,,,,,,,,,,,,,,,,,l,1,0.5289,"[""0.138"",""0.355"",""0.544"",""0.757""]","[1,1,1,0]",0,61,61,61,1,1,0,,,1,FALSE,,,,,,,,,,,,,,,,,,,,,,,,,,,,,,
,5df42244946e972fd0bfeddb,001,2022-04-29_04h02.22.845,classification_task,2021.2.3,Win32,143.9055979,5df42244946e972fd0bfeddb,626b377229c10585ec392f8a,626b390edce70f07abfb883a,,,,,,,,,,,,,,,,,,,,,,,a,0,0.4606,"[""0.755"",""0.355"",""0.544"",""0.712""]","[0,1,1,1]",0,62,62,62,1,1,0,,,1,FALSE,,,,,,,,,,,,,,,,,,,,,,,,,,,,,,
,5df42244946e972fd0bfeddb,001,2022-04-29_04h02.22.845,classification_task,2021.2.3,Win32,143.9055979,5df42244946e972fd0bfeddb,626b377229c10585ec392f8a,626b390edce70f07abfb883a,,,,,,,,,,,,,,,,,,,,,,,a,1,0.6185,"[""0.031"",""0.509"",""0.901"",""0.955""]","[0,1,1,1]",0,63,63,63,1,0,0,,,1,FALSE,,,,,,,,,,,,,,,,,,,,,,,,,,,,,,
,5df42244946e972fd0bfeddb,001,2022-04-29_04h02.22.845,classification_task,2021.2.3,Win32,143.9055979,5df42244946e972fd0bfeddb,626b377229c10585ec392f8a,626b390edce70f07abfb883a,,,,,,,,,,,,,,,,,,,,,,,,,,,,,,,,,,,,,,,0, ,,0,,,0,2,2,2,1,2,3,,,,,,,,,,,,,,,,,
,5df42244946e972fd0bfeddb,001,2022-04-29_04h02.22.845,classification_task,2021.2.3,Win32,143.9055979,5df42244946e972fd0bfeddb,626b377229c10585ec392f8a,626b390edce70f07abfb883a,,,,,,,,,,,,,,,,,,,,,,,,,,,,,,,,,,,,,,,1,  ,,0,,,0,2,2,2,1,2,3,,,,,,,,,,,,,,,,,
,5df42244946e972fd0bfeddb,001,2022-04-29_04h02.22.845,classification_task,2021.2.3,Win32,143.9055979,5df42244946e972fd0bfeddb,626b377229c10585ec392f8a,626b390edce70f07abfb883a,,,,,,,,,,,,,,,,,,,,,,,,,,,,,,,,,,,,,,,2,  ,,0,,,0,2,2,2,1,2,3,,,,,,,,,,,,,,,,,
,5df42244946e972fd0bfeddb,001,2022-04-29_04h02.22.845,classification_task,2021.2.3,Win32,143.9055979,5df42244946e972fd0bfeddb,626b377229c10585ec392f8a,626b390edce70f07abfb883a,,,,,,,,,,,,,,,,,,,,,,,,,,,,,,,,,,,,,,,,,,,,,0,2,2,2,1,,3,,,,,,,,,,,,,,,,,
,5df42244946e972fd0bfeddb,001,2022-04-29_04h02.22.845,classification_task,2021.2.3,Win32,143.9055979,5df42244946e972fd0bfeddb,626b377229c10585ec392f8a,626b390edce70f07abfb883a,,,,,,,,,,,,,,,,,,,,,,,,,,,,,,,,,,,,,,,,,,,,,,,,,,,,,I believe the aid is a competent performer,,0.7,0,4,921.5876,0,0,0,0,1,0,,,,
,5df42244946e972fd0bfeddb,001,2022-04-29_04h02.22.845,classification_task,2021.2.3,Win32,143.9055979,5df42244946e972fd0bfeddb,626b377229c10585ec392f8a,626b390edce70f07abfb883a,,,,,,,,,,,,,,,,,,,,,,,,,,,,,,,,,,,,,,,,,,,,,,,,,,,,,I trust the aid,,0.7,0,4,922.0854,0,0,0,0,1,0,,,,
,5df42244946e972fd0bfeddb,001,2022-04-29_04h02.22.845,classification_task,2021.2.3,Win32,143.9055979,5df42244946e972fd0bfeddb,626b377229c10585ec392f8a,626b390edce70f07abfb883a,,,,,,,,,,,,,,,,,,,,,,,,,,,,,,,,,,,,,,,,,,,,,,,,,,,,,I have confidence in the advice given by the aid,,0.7,0,4,923.3683,0,0,0,0,1,0,,,,
,5df42244946e972fd0bfeddb,001,2022-04-29_04h02.22.845,classification_task,2021.2.3,Win32,143.9055979,5df42244946e972fd0bfeddb,626b377229c10585ec392f8a,626b390edce70f07abfb883a,,,,,,,,,,,,,,,,,,,,,,,,,,,,,,,,,,,,,,,,,,,,,,,,,,,,,I can depend on the aid,,0.7,0,5,924.5822,0,0,0,0,1,0,,,,
,5df42244946e972fd0bfeddb,001,2022-04-29_04h02.22.845,classification_task,2021.2.3,Win32,143.9055979,5df42244946e972fd0bfeddb,626b377229c10585ec392f8a,626b390edce70f07abfb883a,,,,,,,,,,,,,,,,,,,,,,,,,,,,,,,,,,,,,,,,,,,,,,,,,,,,,I can rely on the aid to behave in consistent ways,,0.7,0,5,927.4159,0,0,0,0,1,0,,,,
,5df42244946e972fd0bfeddb,001,2022-04-29_04h02.22.845,classification_task,2021.2.3,Win32,143.9055979,5df42244946e972fd0bfeddb,626b377229c10585ec392f8a,626b390edce70f07abfb883a,,,,,,,,,,,,,,,,,,,,,,,,,,,,,,,,,,,,,,,,,,,,,,,,,,,,,I can rely on the aid to do its best every time I take its advice,,0.7,0,3,928.2908,0,0,0,0,1,0,,,,
,5df42244946e972fd0bfeddb,001,2022-04-29_04h02.22.845,classification_task,2021.2.3,Win32,143.9055979,5df42244946e972fd0bfeddb,626b377229c10585ec392f8a,626b390edce70f07abfb883a,,,,,,,,,,,,,,,,,,,,,,,,,,,,,,,,,,,,,,,,,,,,,,,,,,,,,"On trials you completed with assistance from the aid, how frequently did you think the aid was correct?",,0.7,0,80,,0,0,0,0,1,0,,,,
,5df42244946e972fd0bfeddb,001,2022-04-29_04h02.22.845,classification_task,2021.2.3,Win32,143.9055979,5df42244946e972fd0bfeddb,626b377229c10585ec392f8a,626b390edce70f07abfb883a,,,,,,,,,,,,,,,,,,,,,,,,,,,,,,,,,,,,,,,,,,,,,,,,,,,,,"On trials you completed without the aid, how frequently did you think you were correct?",,0.7,0,50,,0,0,0,0,1,0,,,,
,5df42244946e972fd0bfeddb,001,2022-04-29_04h02.22.845,classification_task,2021.2.3,Win32,143.9055979,5df42244946e972fd0bfeddb,626b377229c10585ec392f8a,626b390edce70f07abfb883a,,,,,,,,,,,,,,,,,,,,,,,,,,,,,,,,,,,,,,,,,,,,,,,,,,,,,,,,,,,0,0,0,0,1,,,,,
,5df42244946e972fd0bfeddb,001,2022-04-29_04h02.22.845,classification_task,2021.2.3,Win32,143.9055979,5df42244946e972fd0bfeddb,626b377229c10585ec392f8a,626b390edce70f07abfb883a,,,,,,,,,,,,,,,,,,,,,,,,,,,,,,,,,,,,,,,,,,,,,,,,,,,,,,,,,,,,,,,,,return,14.0775,961.4679,
,5df42244946e972fd0bfeddb,001,2022-04-29_04h02.22.845,classification_task,2021.2.3,Win32,143.9055979,5df42244946e972fd0bfeddb,626b377229c10585ec392f8a,626b390edce70f07abfb883a,,,,,,,,,,,,,,,,,,,,,,,,,,,,,,,,,,,,,,,,,,,,,,,,,,,,,,,,,,,,,,,,,,,,"Mozilla/5.0 (Windows NT 10.0; Win64; x64) AppleWebKit/537.36 (KHTML, like Gecko) Chrome/100.0.4896.127 Safari/537.36"
