usingWebGL,participant,session,date,expName,psychopyVersion,OS,frameRate,PROLIFIC_PID,STUDY_ID,SESSION_ID,signatures_friend,signatures_foe,band_ranges_top,band_ranges_bottom,formitemText,formtype,formundefined,formitemWidth,formindex,formresponse,formrt,key_resp_2.keys,key_resp_2.rt,tute_resp.keys,tute_resp.rt,tutorial.thisRepN,tutorial.thisTrialN,tutorial.thisN,tutorial.thisIndex,tutorial.ran,key_resp_4.keys,key_resp_4.rt,key_resp.keys,key_resp.corr,lines_presented,is_signal_presented,trials.thisRepN,trials.thisTrialN,trials.thisN,trials.thisIndex,trials.ran,vessel,active_band,lines,is_signal,supported_pos,catch_trial,key_resp.rt,debrief_formindex,debrief_formitemText,debrief_formtype,debrief_formitemWidth,debrief_formresponse,debrief_formrt,phases.thisRepN,phases.thisTrialN,phases.thisN,phases.thisIndex,phases.ran,phases.order,phase,key_resp_3.keys,trustitemText,trusttype,trustitemWidth,trustindex,trustresponse,trustrt,support_status.thisRepN,support_status.thisTrialN,support_status.thisN,support_status.thisIndex,support_status.ran,support_status.order,key_resp_5.keys,key_resp_5.rt,globalClockTime,userAgent
TRUE,5e3628fe1cdf265e0d75cdf2,001,2022-04-29_04h17.13.339,classification_task,2021.2.3,Win32,59.74429442,5e3628fe1cdf265e0d75cdf2,626b377229c10585ec392f8a,626b3c6e17aabf30cec2b14b,,,,,,,,,,,,,,,,,,,,,,,,,,,,,,,,,,,,,,,,,,,,,,,,,,,,,,,,,,,,,,,,,,,,
,5e3628fe1cdf265e0d75cdf2,001,2022-04-29_04h17.13.339,classification_task,2021.2.3,Win32,59.74429442,5e3628fe1cdf265e0d75cdf2,626b377229c10585ec392f8a,626b3c6e17aabf30cec2b14b,"[[""0.274"",""0.372"",""0.683"",""0.880""],[""0.324"",""0.553"",""0.780"",""0.956""]]","[[""0.060"",""0.104"",""0.516"",""0.817""],[""0.149"",""0.224"",""0.636"",""0.718""]]","[1,10]","[100,1000]",Video game experience,,,0.7,0,,,,,,,,,,,,,,,,,,,,,,,,,,,,,,,,,,,,,,,,,,,,,,,,,,,,,,,,,,,
,5e3628fe1cdf265e0d75cdf2,001,2022-04-29_04h17.13.339,classification_task,2021.2.3,Win32,59.74429442,5e3628fe1cdf265e0d75cdf2,626b377229c10585ec392f8a,626b3c6e17aabf30cec2b14b,,,,,Approximately how many hours did you spend playing video games in the last week?,,,0.7,0,2,,,,,,,,,,,,,,,,,,,,,,,,,,,,,,,,,,,,,,,,,,,,,,,,,,,,,,,,,,
,5e3628fe1cdf265e0d75cdf2,001,2022-04-29_04h17.13.339,classification_task,2021.2.3,Win32,59.74429442,5e3628fe1cdf265e0d75cdf2,626b377229c10585ec392f8a,626b3c6e17aabf30cec2b14b,,,,,"Which game did you play the most this year? (Enter ""None"" if you didn't play any)",,,0.7,0,fall guys,,,,,,,,,,,,,,,,,,,,,,,,,,,,,,,,,,,,,,,,,,,,,,,,,,,,,,,,,,
,5e3628fe1cdf265e0d75cdf2,001,2022-04-29_04h17.13.339,classification_task,2021.2.3,Win32,59.74429442,5e3628fe1cdf265e0d75cdf2,626b377229c10585ec392f8a,626b3c6e17aabf30cec2b14b,,,,,Visual perception,,,0.7,0,,,,,,,,,,,,,,,,,,,,,,,,,,,,,,,,,,,,,,,,,,,,,,,,,,,,,,,,,,,
,5e3628fe1cdf265e0d75cdf2,001,2022-04-29_04h17.13.339,classification_task,2021.2.3,Win32,59.74429442,5e3628fe1cdf265e0d75cdf2,626b377229c10585ec392f8a,626b3c6e17aabf30cec2b14b,,,,,Do you have any form of color blindness?,,,0.7,0,No,22.9745,,,,,,,,,,,,,,,,,,,,,,,,,,,,,,,,,,,,,,,,,,,,,,,,,,,,,,,,,
,5e3628fe1cdf265e0d75cdf2,001,2022-04-29_04h17.13.339,classification_task,2021.2.3,Win32,59.74429442,5e3628fe1cdf265e0d75cdf2,626b377229c10585ec392f8a,626b3c6e17aabf30cec2b14b,,,,,Do you use software to change the colour temperature of your screen (e.g. f.lux)?,,,0.7,0,No,27.7624,,,,,,,,,,,,,,,,,,,,,,,,,,,,,,,,,,,,,,,,,,,,,,,,,,,,,,,,,
,5e3628fe1cdf265e0d75cdf2,001,2022-04-29_04h17.13.339,classification_task,2021.2.3,Win32,59.74429442,5e3628fe1cdf265e0d75cdf2,626b377229c10585ec392f8a,626b3c6e17aabf30cec2b14b,,,,,,,,,,,,space,46.6877,space,9.8718,0,0,0,0,1,,,,,,,,,,,,,,,,,,,,,,,,,,,,,,,,,,,,,,,,,,,,,,,,
,5e3628fe1cdf265e0d75cdf2,001,2022-04-29_04h17.13.339,classification_task,2021.2.3,Win32,59.74429442,5e3628fe1cdf265e0d75cdf2,626b377229c10585ec392f8a,626b3c6e17aabf30cec2b14b,,,,,,,,,,,,,,space,9.2142,1,0,1,0,1,,,,,,,,,,,,,,,,,,,,,,,,,,,,,,,,,,,,,,,,,,,,,,,,
,5e3628fe1cdf265e0d75cdf2,001,2022-04-29_04h17.13.339,classification_task,2021.2.3,Win32,59.74429442,5e3628fe1cdf265e0d75cdf2,626b377229c10585ec392f8a,626b3c6e17aabf30cec2b14b,,,,,,,,,,,,,,space,37.9031,2,0,2,0,1,,,,,,,,,,,,,,,,,,,,,,,,,,,,,,,,,,,,,,,,,,,,,,,,
,5e3628fe1cdf265e0d75cdf2,001,2022-04-29_04h17.13.339,classification_task,2021.2.3,Win32,59.74429442,5e3628fe1cdf265e0d75cdf2,626b377229c10585ec392f8a,626b3c6e17aabf30cec2b14b,,,,,,,,,,,,,,space,8.3794,3,0,3,0,1,,,,,,,,,,,,,,,,,,,,,,,,,,,,,,,,,,,,,,,,,,,,,,,,
,5e3628fe1cdf265e0d75cdf2,001,2022-04-29_04h17.13.339,classification_task,2021.2.3,Win32,59.74429442,5e3628fe1cdf265e0d75cdf2,626b377229c10585ec392f8a,626b3c6e17aabf30cec2b14b,,,,,,,,,,,,,,space,22.6906,4,0,4,0,1,,,,,,,,,,,,,,,,,,,,,,,,,,,,,,,,,,,,,,,,,,,,,,,,
,5e3628fe1cdf265e0d75cdf2,001,2022-04-29_04h17.13.339,classification_task,2021.2.3,Win32,59.74429442,5e3628fe1cdf265e0d75cdf2,626b377229c10585ec392f8a,626b3c6e17aabf30cec2b14b,,,,,,,,,,,,,,,,,,,,,space,24.8167,,0,"[""0.060"",""0.104"",""0.457"",""0.817""]","[1,1,0,1]",0,0,0,0,1,1,0,,,1,FALSE,,,,,,,,,,,,,,,,,,,,,,,,,,,,,,,
,5e3628fe1cdf265e0d75cdf2,001,2022-04-29_04h17.13.339,classification_task,2021.2.3,Win32,59.74429442,5e3628fe1cdf265e0d75cdf2,626b377229c10585ec392f8a,626b3c6e17aabf30cec2b14b,,,,,,,,,,,,,,,,,,,,,,,a,1,"[""0.324"",""0.185"",""0.780"",""0.956""]","[1,0,1,1]",0,1,1,1,1,0,1,,,1,FALSE,6.4878,,,,,,,,,,,,,,,,,,,,,,,,,,,,,,
,5e3628fe1cdf265e0d75cdf2,001,2022-04-29_04h17.13.339,classification_task,2021.2.3,Win32,59.74429442,5e3628fe1cdf265e0d75cdf2,626b377229c10585ec392f8a,626b3c6e17aabf30cec2b14b,,,,,,,,,,,,,,,,,,,,,,,a,1,"[""0.274"",""0.475"",""0.683"",""0.880""]","[1,0,1,1]",0,2,2,2,1,0,0,,,1,FALSE,8.7168,,,,,,,,,,,,,,,,,,,,,,,,,,,,,,
,5e3628fe1cdf265e0d75cdf2,001,2022-04-29_04h17.13.339,classification_task,2021.2.3,Win32,59.74429442,5e3628fe1cdf265e0d75cdf2,626b377229c10585ec392f8a,626b3c6e17aabf30cec2b14b,,,,,,,,,,,,,,,,,,,,,,,a,1,"[""0.274"",""0.372"",""0.683"",""0.412""]","[1,1,1,0]",0,3,3,3,1,0,0,,,1,FALSE,3.8566,,,,,,,,,,,,,,,,,,,,,,,,,,,,,,
,5e3628fe1cdf265e0d75cdf2,001,2022-04-29_04h17.13.339,classification_task,2021.2.3,Win32,59.74429442,5e3628fe1cdf265e0d75cdf2,626b377229c10585ec392f8a,626b3c6e17aabf30cec2b14b,,,,,,,,,,,,,,,,,,,,,,,a,1,"[""0.324"",""0.553"",""0.440"",""0.956""]","[1,1,0,1]",0,4,4,4,1,0,1,,,1,FALSE,3.9593,,,,,,,,,,,,,,,,,,,,,,,,,,,,,,
,5e3628fe1cdf265e0d75cdf2,001,2022-04-29_04h17.13.339,classification_task,2021.2.3,Win32,59.74429442,5e3628fe1cdf265e0d75cdf2,626b377229c10585ec392f8a,626b3c6e17aabf30cec2b14b,,,,,,,,,,,,,,,,,,,,,,,l,1,"[""0.457"",""0.224"",""0.636"",""0.718""]","[0,1,1,1]",0,5,5,5,1,1,1,,,1,FALSE,5.6742,,,,,,,,,,,,,,,,,,,,,,,,,,,,,,
,5e3628fe1cdf265e0d75cdf2,001,2022-04-29_04h17.13.339,classification_task,2021.2.3,Win32,59.74429442,5e3628fe1cdf265e0d75cdf2,626b377229c10585ec392f8a,626b3c6e17aabf30cec2b14b,,,,,,,,,,,,,,,,,,,,,,,a,1,"[""0.324"",""0.553"",""0.780"",""0.590""]","[1,1,1,0]",0,6,6,6,1,0,1,,,1,FALSE,3.2378,,,,,,,,,,,,,,,,,,,,,,,,,,,,,,
,5e3628fe1cdf265e0d75cdf2,001,2022-04-29_04h17.13.339,classification_task,2021.2.3,Win32,59.74429442,5e3628fe1cdf265e0d75cdf2,626b377229c10585ec392f8a,626b3c6e17aabf30cec2b14b,,,,,,,,,,,,,,,,,,,,,,,l,1,"[""0.060"",""0.467"",""0.516"",""0.817""]","[1,0,1,1]",0,7,7,7,1,1,0,,,1,FALSE,3.928,,,,,,,,,,,,,,,,,,,,,,,,,,,,,,
,5e3628fe1cdf265e0d75cdf2,001,2022-04-29_04h17.13.339,classification_task,2021.2.3,Win32,59.74429442,5e3628fe1cdf265e0d75cdf2,626b377229c10585ec392f8a,626b3c6e17aabf30cec2b14b,,,,,,,,,,,,,,,,,,,,,,,l,1,"[""0.060"",""0.104"",""0.516"",""0.428""]","[1,1,1,0]",0,8,8,8,1,1,0,,,1,FALSE,3.6094,,,,,,,,,,,,,,,,,,,,,,,,,,,,,,
,5e3628fe1cdf265e0d75cdf2,001,2022-04-29_04h17.13.339,classification_task,2021.2.3,Win32,59.74429442,5e3628fe1cdf265e0d75cdf2,626b377229c10585ec392f8a,626b3c6e17aabf30cec2b14b,,,,,,,,,,,,,,,,,,,,,,,a,1,"[""0.274"",""0.372"",""0.475"",""0.880""]","[1,1,0,1]",0,9,9,9,1,0,0,,,1,FALSE,2.9496,,,,,,,,,,,,,,,,,,,,,,,,,,,,,,
,5e3628fe1cdf265e0d75cdf2,001,2022-04-29_04h17.13.339,classification_task,2021.2.3,Win32,59.74429442,5e3628fe1cdf265e0d75cdf2,626b377229c10585ec392f8a,626b3c6e17aabf30cec2b14b,,,,,,,,,,,,,,,,,,,,,,,a,1,"[""0.467"",""0.553"",""0.780"",""0.956""]","[0,1,1,1]",0,10,10,10,1,0,1,,,1,FALSE,5.6229,,,,,,,,,,,,,,,,,,,,,,,,,,,,,,
,5e3628fe1cdf265e0d75cdf2,001,2022-04-29_04h17.13.339,classification_task,2021.2.3,Win32,59.74429442,5e3628fe1cdf265e0d75cdf2,626b377229c10585ec392f8a,626b3c6e17aabf30cec2b14b,,,,,,,,,,,,,,,,,,,,,,,a,1,"[""0.591"",""0.372"",""0.683"",""0.880""]","[0,1,1,1]",0,11,11,11,1,0,0,,,1,FALSE,3.8282,,,,,,,,,,,,,,,,,,,,,,,,,,,,,,
,5e3628fe1cdf265e0d75cdf2,001,2022-04-29_04h17.13.339,classification_task,2021.2.3,Win32,59.74429442,5e3628fe1cdf265e0d75cdf2,626b377229c10585ec392f8a,626b3c6e17aabf30cec2b14b,,,,,,,,,,,,,,,,,,,,,,,l,1,"[""0.149"",""0.224"",""0.430"",""0.718""]","[1,1,0,1]",0,12,12,12,1,1,1,,,1,FALSE,4.1683,,,,,,,,,,,,,,,,,,,,,,,,,,,,,,
,5e3628fe1cdf265e0d75cdf2,001,2022-04-29_04h17.13.339,classification_task,2021.2.3,Win32,59.74429442,5e3628fe1cdf265e0d75cdf2,626b377229c10585ec392f8a,626b3c6e17aabf30cec2b14b,,,,,,,,,,,,,,,,,,,,,,,l,1,"[""0.149"",""0.224"",""0.636"",""0.422""]","[1,1,1,0]",0,13,13,13,1,1,1,,,1,FALSE,2.1696,,,,,,,,,,,,,,,,,,,,,,,,,,,,,,
,5e3628fe1cdf265e0d75cdf2,001,2022-04-29_04h17.13.339,classification_task,2021.2.3,Win32,59.74429442,5e3628fe1cdf265e0d75cdf2,626b377229c10585ec392f8a,626b3c6e17aabf30cec2b14b,,,,,,,,,,,,,,,,,,,,,,,l,1,"[""0.149"",""0.602"",""0.636"",""0.718""]","[1,0,1,1]",0,14,14,14,1,1,1,,,1,FALSE,2.3337,,,,,,,,,,,,,,,,,,,,,,,,,,,,,,
,5e3628fe1cdf265e0d75cdf2,001,2022-04-29_04h17.13.339,classification_task,2021.2.3,Win32,59.74429442,5e3628fe1cdf265e0d75cdf2,626b377229c10585ec392f8a,626b3c6e17aabf30cec2b14b,,,,,,,,,,,,,,,,,,,,,,,l,1,"[""0.602"",""0.104"",""0.516"",""0.817""]","[0,1,1,1]",0,15,15,15,1,1,0,,,1,FALSE,1.9159,,,,,,,,,,,,,,,,,,,,,,,,,,,,,,
,5e3628fe1cdf265e0d75cdf2,001,2022-04-29_04h17.13.339,classification_task,2021.2.3,Win32,59.74429442,5e3628fe1cdf265e0d75cdf2,626b377229c10585ec392f8a,626b3c6e17aabf30cec2b14b,,,,,,,,,,,,,,,,,,,,,,,a,1,"[""0.591"",""0.372"",""0.683"",""0.880""]","[0,1,1,1]",0,16,16,16,1,0,0,,,1,FALSE,2.1343,,,,,,,,,,,,,,,,,,,,,,,,,,,,,,
,5e3628fe1cdf265e0d75cdf2,001,2022-04-29_04h17.13.339,classification_task,2021.2.3,Win32,59.74429442,5e3628fe1cdf265e0d75cdf2,626b377229c10585ec392f8a,626b3c6e17aabf30cec2b14b,,,,,,,,,,,,,,,,,,,,,,,a,1,"[""0.324"",""0.553"",""0.780"",""0.481""]","[1,1,1,0]",0,17,17,17,1,0,1,,,1,FALSE,2.6798,,,,,,,,,,,,,,,,,,,,,,,,,,,,,,
,5e3628fe1cdf265e0d75cdf2,001,2022-04-29_04h17.13.339,classification_task,2021.2.3,Win32,59.74429442,5e3628fe1cdf265e0d75cdf2,626b377229c10585ec392f8a,626b3c6e17aabf30cec2b14b,,,,,,,,,,,,,,,,,,,,,,,a,1,"[""0.274"",""0.475"",""0.683"",""0.880""]","[1,0,1,1]",0,18,18,18,1,0,0,,,1,FALSE,3.0259,,,,,,,,,,,,,,,,,,,,,,,,,,,,,,
,5e3628fe1cdf265e0d75cdf2,001,2022-04-29_04h17.13.339,classification_task,2021.2.3,Win32,59.74429442,5e3628fe1cdf265e0d75cdf2,626b377229c10585ec392f8a,626b3c6e17aabf30cec2b14b,,,,,,,,,,,,,,,,,,,,,,,l,1,"[""0.149"",""0.224"",""0.636"",""0.185""]","[1,1,1,0]",0,19,19,19,1,1,1,,,1,FALSE,2.3856,,,,,,,,,,,,,,,,,,,,,,,,,,,,,,
,5e3628fe1cdf265e0d75cdf2,001,2022-04-29_04h17.13.339,classification_task,2021.2.3,Win32,59.74429442,5e3628fe1cdf265e0d75cdf2,626b377229c10585ec392f8a,626b3c6e17aabf30cec2b14b,,,,,,,,,,,,,,,,,,,,,,,l,1,"[""0.060"",""0.467"",""0.516"",""0.817""]","[1,0,1,1]",0,20,20,20,1,1,0,,,1,FALSE,2.3969,,,,,,,,,,,,,,,,,,,,,,,,,,,,,,
,5e3628fe1cdf265e0d75cdf2,001,2022-04-29_04h17.13.339,classification_task,2021.2.3,Win32,59.74429442,5e3628fe1cdf265e0d75cdf2,626b377229c10585ec392f8a,626b3c6e17aabf30cec2b14b,,,,,,,,,,,,,,,,,,,,,,,l,1,"[""0.149"",""0.422"",""0.636"",""0.718""]","[1,0,1,1]",0,21,21,21,1,1,1,,,1,FALSE,1.8467,,,,,,,,,,,,,,,,,,,,,,,,,,,,,,
,5e3628fe1cdf265e0d75cdf2,001,2022-04-29_04h17.13.339,classification_task,2021.2.3,Win32,59.74429442,5e3628fe1cdf265e0d75cdf2,626b377229c10585ec392f8a,626b3c6e17aabf30cec2b14b,,,,,,,,,,,,,,,,,,,,,,,l,1,"[""0.475"",""0.104"",""0.516"",""0.817""]","[0,1,1,1]",0,22,22,22,1,1,0,,,1,FALSE,1.8854,,,,,,,,,,,,,,,,,,,,,,,,,,,,,,
,5e3628fe1cdf265e0d75cdf2,001,2022-04-29_04h17.13.339,classification_task,2021.2.3,Win32,59.74429442,5e3628fe1cdf265e0d75cdf2,626b377229c10585ec392f8a,626b3c6e17aabf30cec2b14b,,,,,,,,,,,,,,,,,,,,,,,a,1,"[""0.467"",""0.553"",""0.780"",""0.956""]","[0,1,1,1]",0,23,23,23,1,0,1,,,1,FALSE,2.1272,,,,,,,,,,,,,,,,,,,,,,,,,,,,,,
,5e3628fe1cdf265e0d75cdf2,001,2022-04-29_04h17.13.339,classification_task,2021.2.3,Win32,59.74429442,5e3628fe1cdf265e0d75cdf2,626b377229c10585ec392f8a,626b3c6e17aabf30cec2b14b,,,,,,,,,,,,,,,,,,,,,,,a,1,"[""0.274"",""0.372"",""0.683"",""0.481""]","[1,1,1,0]",0,24,24,24,1,0,0,,,1,FALSE,2.1799,,,,,,,,,,,,,,,,,,,,,,,,,,,,,,
,5e3628fe1cdf265e0d75cdf2,001,2022-04-29_04h17.13.339,classification_task,2021.2.3,Win32,59.74429442,5e3628fe1cdf265e0d75cdf2,626b377229c10585ec392f8a,626b3c6e17aabf30cec2b14b,,,,,,,,,,,,,,,,,,,,,,,a,0,"[""0.412"",""0.224"",""0.636"",""0.718""]","[0,1,1,1]",0,25,25,25,1,1,1,,,1,FALSE,7.628,,,,,,,,,,,,,,,,,,,,,,,,,,,,,,
,5e3628fe1cdf265e0d75cdf2,001,2022-04-29_04h17.13.339,classification_task,2021.2.3,Win32,59.74429442,5e3628fe1cdf265e0d75cdf2,626b377229c10585ec392f8a,626b3c6e17aabf30cec2b14b,,,,,,,,,,,,,,,,,,,,,,,l,1,"[""0.060"",""0.104"",""0.457"",""0.817""]","[1,1,0,1]",0,26,26,26,1,1,0,,,1,FALSE,4.3933,,,,,,,,,,,,,,,,,,,,,,,,,,,,,,
,5e3628fe1cdf265e0d75cdf2,001,2022-04-29_04h17.13.339,classification_task,2021.2.3,Win32,59.74429442,5e3628fe1cdf265e0d75cdf2,626b377229c10585ec392f8a,626b3c6e17aabf30cec2b14b,,,,,,,,,,,,,,,,,,,,,,,a,1,"[""0.274"",""0.372"",""0.602"",""0.880""]","[1,1,0,1]",0,27,27,27,1,0,0,,,1,FALSE,2.5755,,,,,,,,,,,,,,,,,,,,,,,,,,,,,,
,5e3628fe1cdf265e0d75cdf2,001,2022-04-29_04h17.13.339,classification_task,2021.2.3,Win32,59.74429442,5e3628fe1cdf265e0d75cdf2,626b377229c10585ec392f8a,626b3c6e17aabf30cec2b14b,,,,,,,,,,,,,,,,,,,,,,,l,1,"[""0.060"",""0.104"",""0.516"",""0.594""]","[1,1,1,0]",0,28,28,28,1,1,0,,,1,FALSE,2.5327,,,,,,,,,,,,,,,,,,,,,,,,,,,,,,
,5e3628fe1cdf265e0d75cdf2,001,2022-04-29_04h17.13.339,classification_task,2021.2.3,Win32,59.74429442,5e3628fe1cdf265e0d75cdf2,626b377229c10585ec392f8a,626b3c6e17aabf30cec2b14b,,,,,,,,,,,,,,,,,,,,,,,a,1,"[""0.324"",""0.553"",""0.453"",""0.956""]","[1,1,0,1]",0,29,29,29,1,0,1,,,1,FALSE,1.9896,,,,,,,,,,,,,,,,,,,,,,,,,,,,,,
,5e3628fe1cdf265e0d75cdf2,001,2022-04-29_04h17.13.339,classification_task,2021.2.3,Win32,59.74429442,5e3628fe1cdf265e0d75cdf2,626b377229c10585ec392f8a,626b3c6e17aabf30cec2b14b,,,,,,,,,,,,,,,,,,,,,,,l,1,"[""0.149"",""0.224"",""0.467"",""0.718""]","[1,1,0,1]",0,30,30,30,1,1,1,,,1,FALSE,1.6244,,,,,,,,,,,,,,,,,,,,,,,,,,,,,,
,5e3628fe1cdf265e0d75cdf2,001,2022-04-29_04h17.13.339,classification_task,2021.2.3,Win32,59.74429442,5e3628fe1cdf265e0d75cdf2,626b377229c10585ec392f8a,626b3c6e17aabf30cec2b14b,,,,,,,,,,,,,,,,,,,,,,,l,0,"[""0.324"",""0.188"",""0.780"",""0.956""]","[1,0,1,1]",0,31,31,31,1,0,1,,,1,FALSE,3.2832,,,,,,,,,,,,,,,,,,,,,,,,,,,,,,
,5e3628fe1cdf265e0d75cdf2,001,2022-04-29_04h17.13.339,classification_task,2021.2.3,Win32,59.74429442,5e3628fe1cdf265e0d75cdf2,626b377229c10585ec392f8a,626b3c6e17aabf30cec2b14b,,,,,,,,,,,,,,,,,,,,,,,a,1,"[""0.274"",""0.372"",""0.683"",""0.453""]","[1,1,1,0]",0,32,32,32,1,0,0,,,1,FALSE,3.8941,,,,,,,,,,,,,,,,,,,,,,,,,,,,,,
,5e3628fe1cdf265e0d75cdf2,001,2022-04-29_04h17.13.339,classification_task,2021.2.3,Win32,59.74429442,5e3628fe1cdf265e0d75cdf2,626b377229c10585ec392f8a,626b3c6e17aabf30cec2b14b,,,,,,,,,,,,,,,,,,,,,,,a,1,"[""0.324"",""0.553"",""0.780"",""0.412""]","[1,1,1,0]",0,33,33,33,1,0,1,,,1,FALSE,1.3504,,,,,,,,,,,,,,,,,,,,,,,,,,,,,,
,5e3628fe1cdf265e0d75cdf2,001,2022-04-29_04h17.13.339,classification_task,2021.2.3,Win32,59.74429442,5e3628fe1cdf265e0d75cdf2,626b377229c10585ec392f8a,626b3c6e17aabf30cec2b14b,,,,,,,,,,,,,,,,,,,,,,,a,1,"[""0.324"",""0.553"",""0.188"",""0.956""]","[1,1,0,1]",0,34,34,34,1,0,1,,,1,FALSE,2.1671,,,,,,,,,,,,,,,,,,,,,,,,,,,,,,
,5e3628fe1cdf265e0d75cdf2,001,2022-04-29_04h17.13.339,classification_task,2021.2.3,Win32,59.74429442,5e3628fe1cdf265e0d75cdf2,626b377229c10585ec392f8a,626b3c6e17aabf30cec2b14b,,,,,,,,,,,,,,,,,,,,,,,a,1,"[""0.590"",""0.372"",""0.683"",""0.880""]","[0,1,1,1]",0,35,35,35,1,0,0,,,1,FALSE,1.7833,,,,,,,,,,,,,,,,,,,,,,,,,,,,,,
,5e3628fe1cdf265e0d75cdf2,001,2022-04-29_04h17.13.339,classification_task,2021.2.3,Win32,59.74429442,5e3628fe1cdf265e0d75cdf2,626b377229c10585ec392f8a,626b3c6e17aabf30cec2b14b,,,,,,,,,,,,,,,,,,,,,,,l,1,"[""0.060"",""0.104"",""0.475"",""0.817""]","[1,1,0,1]",0,36,36,36,1,1,0,,,1,FALSE,1.5277,,,,,,,,,,,,,,,,,,,,,,,,,,,,,,
,5e3628fe1cdf265e0d75cdf2,001,2022-04-29_04h17.13.339,classification_task,2021.2.3,Win32,59.74429442,5e3628fe1cdf265e0d75cdf2,626b377229c10585ec392f8a,626b3c6e17aabf30cec2b14b,,,,,,,,,,,,,,,,,,,,,,,l,1,"[""0.149"",""0.224"",""0.636"",""0.594""]","[1,1,1,0]",0,37,37,37,1,1,1,,,1,FALSE,1.444,,,,,,,,,,,,,,,,,,,,,,,,,,,,,,
,5e3628fe1cdf265e0d75cdf2,001,2022-04-29_04h17.13.339,classification_task,2021.2.3,Win32,59.74429442,5e3628fe1cdf265e0d75cdf2,626b377229c10585ec392f8a,626b3c6e17aabf30cec2b14b,,,,,,,,,,,,,,,,,,,,,,,a,1,"[""0.274"",""0.372"",""0.188"",""0.880""]","[1,1,0,1]",0,38,38,38,1,0,0,,,1,FALSE,1.6399,,,,,,,,,,,,,,,,,,,,,,,,,,,,,,
,5e3628fe1cdf265e0d75cdf2,001,2022-04-29_04h17.13.339,classification_task,2021.2.3,Win32,59.74429442,5e3628fe1cdf265e0d75cdf2,626b377229c10585ec392f8a,626b3c6e17aabf30cec2b14b,,,,,,,,,,,,,,,,,,,,,,,a,0,"[""0.412"",""0.224"",""0.636"",""0.718""]","[0,1,1,1]",0,39,39,39,1,1,1,,,1,FALSE,1.7005,,,,,,,,,,,,,,,,,,,,,,,,,,,,,,
,5e3628fe1cdf265e0d75cdf2,001,2022-04-29_04h17.13.339,classification_task,2021.2.3,Win32,59.74429442,5e3628fe1cdf265e0d75cdf2,626b377229c10585ec392f8a,626b3c6e17aabf30cec2b14b,,,,,,,,,,,,,,,,,,,,,,,a,1,"[""0.324"",""0.422"",""0.780"",""0.956""]","[1,0,1,1]",0,40,40,40,1,0,1,,,1,FALSE,1.0644,,,,,,,,,,,,,,,,,,,,,,,,,,,,,,
,5e3628fe1cdf265e0d75cdf2,001,2022-04-29_04h17.13.339,classification_task,2021.2.3,Win32,59.74429442,5e3628fe1cdf265e0d75cdf2,626b377229c10585ec392f8a,626b3c6e17aabf30cec2b14b,,,,,,,,,,,,,,,,,,,,,,,a,1,"[""0.591"",""0.553"",""0.780"",""0.956""]","[0,1,1,1]",0,41,41,41,1,0,1,,,1,FALSE,1.3986,,,,,,,,,,,,,,,,,,,,,,,,,,,,,,
,5e3628fe1cdf265e0d75cdf2,001,2022-04-29_04h17.13.339,classification_task,2021.2.3,Win32,59.74429442,5e3628fe1cdf265e0d75cdf2,626b377229c10585ec392f8a,626b3c6e17aabf30cec2b14b,,,,,,,,,,,,,,,,,,,,,,,l,1,"[""0.412"",""0.104"",""0.516"",""0.817""]","[0,1,1,1]",0,42,42,42,1,1,0,,,1,FALSE,1.4501,,,,,,,,,,,,,,,,,,,,,,,,,,,,,,
,5e3628fe1cdf265e0d75cdf2,001,2022-04-29_04h17.13.339,classification_task,2021.2.3,Win32,59.74429442,5e3628fe1cdf265e0d75cdf2,626b377229c10585ec392f8a,626b3c6e17aabf30cec2b14b,,,,,,,,,,,,,,,,,,,,,,,a,1,"[""0.274"",""0.428"",""0.683"",""0.880""]","[1,0,1,1]",0,43,43,43,1,0,0,,,1,FALSE,1.1534,,,,,,,,,,,,,,,,,,,,,,,,,,,,,,
,5e3628fe1cdf265e0d75cdf2,001,2022-04-29_04h17.13.339,classification_task,2021.2.3,Win32,59.74429442,5e3628fe1cdf265e0d75cdf2,626b377229c10585ec392f8a,626b3c6e17aabf30cec2b14b,,,,,,,,,,,,,,,,,,,,,,,l,1,"[""0.060"",""0.453"",""0.516"",""0.817""]","[1,0,1,1]",0,44,44,44,1,1,0,,,1,FALSE,1.1384,,,,,,,,,,,,,,,,,,,,,,,,,,,,,,
,5e3628fe1cdf265e0d75cdf2,001,2022-04-29_04h17.13.339,classification_task,2021.2.3,Win32,59.74429442,5e3628fe1cdf265e0d75cdf2,626b377229c10585ec392f8a,626b3c6e17aabf30cec2b14b,,,,,,,,,,,,,,,,,,,,,,,l,1,"[""0.060"",""0.104"",""0.516"",""0.422""]","[1,1,1,0]",0,45,45,45,1,1,0,,,1,FALSE,1.0144,,,,,,,,,,,,,,,,,,,,,,,,,,,,,,
,5e3628fe1cdf265e0d75cdf2,001,2022-04-29_04h17.13.339,classification_task,2021.2.3,Win32,59.74429442,5e3628fe1cdf265e0d75cdf2,626b377229c10585ec392f8a,626b3c6e17aabf30cec2b14b,,,,,,,,,,,,,,,,,,,,,,,l,1,"[""0.149"",""0.224"",""0.185"",""0.718""]","[1,1,0,1]",0,46,46,46,1,1,1,,,1,FALSE,1.1205,,,,,,,,,,,,,,,,,,,,,,,,,,,,,,
,5e3628fe1cdf265e0d75cdf2,001,2022-04-29_04h17.13.339,classification_task,2021.2.3,Win32,59.74429442,5e3628fe1cdf265e0d75cdf2,626b377229c10585ec392f8a,626b3c6e17aabf30cec2b14b,,,,,,,,,,,,,,,,,,,,,,,l,1,"[""0.149"",""0.453"",""0.636"",""0.718""]","[1,0,1,1]",0,47,47,47,1,1,1,,,1,FALSE,1.1072,,,,,,,,,,,,,,,,,,,,,,,,,,,,,,
,5e3628fe1cdf265e0d75cdf2,001,2022-04-29_04h17.13.339,classification_task,2021.2.3,Win32,59.74429442,5e3628fe1cdf265e0d75cdf2,626b377229c10585ec392f8a,626b3c6e17aabf30cec2b14b,,,,,,,,,,,,,,,,,,,,,,,l,1,"[""0.060"",""0.104"",""0.422"",""0.817""]","[1,1,0,1]",0,48,48,48,1,1,0,,,1,FALSE,1.2433,,,,,,,,,,,,,,,,,,,,,,,,,,,,,,
,5e3628fe1cdf265e0d75cdf2,001,2022-04-29_04h17.13.339,classification_task,2021.2.3,Win32,59.74429442,5e3628fe1cdf265e0d75cdf2,626b377229c10585ec392f8a,626b3c6e17aabf30cec2b14b,,,,,,,,,,,,,,,,,,,,,,,a,1,"[""0.324"",""0.553"",""0.780"",""0.440""]","[1,1,1,0]",0,49,49,49,1,0,1,,,1,FALSE,1.0346,,,,,,,,,,,,,,,,,,,,,,,,,,,,,,
,5e3628fe1cdf265e0d75cdf2,001,2022-04-29_04h17.13.339,classification_task,2021.2.3,Win32,59.74429442,5e3628fe1cdf265e0d75cdf2,626b377229c10585ec392f8a,626b3c6e17aabf30cec2b14b,,,,,,,,,,,,,,,,,,,,,,,a,1,"[""0.274"",""0.428"",""0.683"",""0.880""]","[1,0,1,1]",0,50,50,50,1,0,0,,,1,FALSE,1.0636,,,,,,,,,,,,,,,,,,,,,,,,,,,,,,
,5e3628fe1cdf265e0d75cdf2,001,2022-04-29_04h17.13.339,classification_task,2021.2.3,Win32,59.74429442,5e3628fe1cdf265e0d75cdf2,626b377229c10585ec392f8a,626b3c6e17aabf30cec2b14b,,,,,,,,,,,,,,,,,,,,,,,a,1,"[""0.324"",""0.422"",""0.780"",""0.956""]","[1,0,1,1]",0,51,51,51,1,0,1,,,1,FALSE,0.9191,,,,,,,,,,,,,,,,,,,,,,,,,,,,,,
,5e3628fe1cdf265e0d75cdf2,001,2022-04-29_04h17.13.339,classification_task,2021.2.3,Win32,59.74429442,5e3628fe1cdf265e0d75cdf2,626b377229c10585ec392f8a,626b3c6e17aabf30cec2b14b,,,,,,,,,,,,,,,,,,,,,,,l,1,"[""0.060"",""0.481"",""0.516"",""0.817""]","[1,0,1,1]",0,52,52,52,1,1,0,,,1,FALSE,1.1958,,,,,,,,,,,,,,,,,,,,,,,,,,,,,,
,5e3628fe1cdf265e0d75cdf2,001,2022-04-29_04h17.13.339,classification_task,2021.2.3,Win32,59.74429442,5e3628fe1cdf265e0d75cdf2,626b377229c10585ec392f8a,626b3c6e17aabf30cec2b14b,,,,,,,,,,,,,,,,,,,,,,,l,1,"[""0.149"",""0.224"",""0.467"",""0.718""]","[1,1,0,1]",0,53,53,53,1,1,1,,,1,FALSE,0.9848,,,,,,,,,,,,,,,,,,,,,,,,,,,,,,
,5e3628fe1cdf265e0d75cdf2,001,2022-04-29_04h17.13.339,classification_task,2021.2.3,Win32,59.74429442,5e3628fe1cdf265e0d75cdf2,626b377229c10585ec392f8a,626b3c6e17aabf30cec2b14b,,,,,,,,,,,,,,,,,,,,,,,a,1,"[""0.274"",""0.372"",""0.430"",""0.880""]","[1,1,0,1]",0,54,54,54,1,0,0,,,1,FALSE,1.2159,,,,,,,,,,,,,,,,,,,,,,,,,,,,,,
,5e3628fe1cdf265e0d75cdf2,001,2022-04-29_04h17.13.339,classification_task,2021.2.3,Win32,59.74429442,5e3628fe1cdf265e0d75cdf2,626b377229c10585ec392f8a,626b3c6e17aabf30cec2b14b,,,,,,,,,,,,,,,,,,,,,,,l,1,"[""0.060"",""0.104"",""0.516"",""0.602""]","[1,1,1,0]",0,55,55,55,1,1,0,,,1,FALSE,0.9969,,,,,,,,,,,,,,,,,,,,,,,,,,,,,,
,5e3628fe1cdf265e0d75cdf2,001,2022-04-29_04h17.13.339,classification_task,2021.2.3,Win32,59.74429442,5e3628fe1cdf265e0d75cdf2,626b377229c10585ec392f8a,626b3c6e17aabf30cec2b14b,,,,,,,,,,,,,,,,,,,,,,,a,0,"[""0.149"",""0.440"",""0.636"",""0.718""]","[1,0,1,1]",0,56,56,56,1,1,1,,,1,FALSE,1.3182,,,,,,,,,,,,,,,,,,,,,,,,,,,,,,
,5e3628fe1cdf265e0d75cdf2,001,2022-04-29_04h17.13.339,classification_task,2021.2.3,Win32,59.74429442,5e3628fe1cdf265e0d75cdf2,626b377229c10585ec392f8a,626b3c6e17aabf30cec2b14b,,,,,,,,,,,,,,,,,,,,,,,l,1,"[""0.149"",""0.224"",""0.636"",""0.412""]","[1,1,1,0]",0,57,57,57,1,1,1,,,1,FALSE,2.0911,,,,,,,,,,,,,,,,,,,,,,,,,,,,,,
,5e3628fe1cdf265e0d75cdf2,001,2022-04-29_04h17.13.339,classification_task,2021.2.3,Win32,59.74429442,5e3628fe1cdf265e0d75cdf2,626b377229c10585ec392f8a,626b3c6e17aabf30cec2b14b,,,,,,,,,,,,,,,,,,,,,,,a,0,"[""0.594"",""0.224"",""0.636"",""0.718""]","[0,1,1,1]",0,58,58,58,1,1,1,,,1,FALSE,1.4684,,,,,,,,,,,,,,,,,,,,,,,,,,,,,,
,5e3628fe1cdf265e0d75cdf2,001,2022-04-29_04h17.13.339,classification_task,2021.2.3,Win32,59.74429442,5e3628fe1cdf265e0d75cdf2,626b377229c10585ec392f8a,626b3c6e17aabf30cec2b14b,,,,,,,,,,,,,,,,,,,,,,,a,1,"[""0.274"",""0.372"",""0.683"",""0.591""]","[1,1,1,0]",0,59,59,59,1,0,0,,,1,FALSE,2.6161,,,,,,,,,,,,,,,,,,,,,,,,,,,,,,
,5e3628fe1cdf265e0d75cdf2,001,2022-04-29_04h17.13.339,classification_task,2021.2.3,Win32,59.74429442,5e3628fe1cdf265e0d75cdf2,626b377229c10585ec392f8a,626b3c6e17aabf30cec2b14b,,,,,,,,,,,,,,,,,,,,,,,l,1,"[""0.422"",""0.104"",""0.516"",""0.817""]","[0,1,1,1]",0,60,60,60,1,1,0,,,1,FALSE,1.3634,,,,,,,,,,,,,,,,,,,,,,,,,,,,,,
,5e3628fe1cdf265e0d75cdf2,001,2022-04-29_04h17.13.339,classification_task,2021.2.3,Win32,59.74429442,5e3628fe1cdf265e0d75cdf2,626b377229c10585ec392f8a,626b3c6e17aabf30cec2b14b,,,,,,,,,,,,,,,,,,,,,,,a,1,"[""0.457"",""0.553"",""0.780"",""0.956""]","[0,1,1,1]",0,61,61,61,1,0,1,,,1,FALSE,1.3033,,,,,,,,,,,,,,,,,,,,,,,,,,,,,,
,5e3628fe1cdf265e0d75cdf2,001,2022-04-29_04h17.13.339,classification_task,2021.2.3,Win32,59.74429442,5e3628fe1cdf265e0d75cdf2,626b377229c10585ec392f8a,626b3c6e17aabf30cec2b14b,,,,,,,,,,,,,,,,,,,,,,,a,1,"[""0.590"",""0.372"",""0.683"",""0.880""]","[0,1,1,1]",0,62,62,62,1,0,0,,,1,FALSE,1.0867,,,,,,,,,,,,,,,,,,,,,,,,,,,,,,
,5e3628fe1cdf265e0d75cdf2,001,2022-04-29_04h17.13.339,classification_task,2021.2.3,Win32,59.74429442,5e3628fe1cdf265e0d75cdf2,626b377229c10585ec392f8a,626b3c6e17aabf30cec2b14b,,,,,,,,,,,,,,,,,,,,,,,a,1,"[""0.324"",""0.553"",""0.590"",""0.956""]","[1,1,0,1]",0,63,63,63,1,0,1,,,1,FALSE,1.1169,,,,,,,,,,,,,,,,,,,,,,,,,,,,,,
,5e3628fe1cdf265e0d75cdf2,001,2022-04-29_04h17.13.339,classification_task,2021.2.3,Win32,59.74429442,5e3628fe1cdf265e0d75cdf2,626b377229c10585ec392f8a,626b3c6e17aabf30cec2b14b,,,,,,,,,,,,,,,,,,,,,,,,,,,,,,,,,,,,,,,0, ,,0,1.870712932,447.9135,0,0,0,0,1,2,1,,,,,,,,,,,,,,,,,
,5e3628fe1cdf265e0d75cdf2,001,2022-04-29_04h17.13.339,classification_task,2021.2.3,Win32,59.74429442,5e3628fe1cdf265e0d75cdf2,626b377229c10585ec392f8a,626b3c6e17aabf30cec2b14b,,,,,,,,,,,,,,,,,,,,,,,,,,,,,,,,,,,,,,,1,  ,,0,1.527778899,453.2521,0,0,0,0,1,2,1,,,,,,,,,,,,,,,,,
,5e3628fe1cdf265e0d75cdf2,001,2022-04-29_04h17.13.339,classification_task,2021.2.3,Win32,59.74429442,5e3628fe1cdf265e0d75cdf2,626b377229c10585ec392f8a,626b3c6e17aabf30cec2b14b,,,,,,,,,,,,,,,,,,,,,,,,,,,,,,,,,,,,,,,2,  ,,0,1.55227392,464.7507,0,0,0,0,1,2,1,,,,,,,,,,,,,,,,,
,5e3628fe1cdf265e0d75cdf2,001,2022-04-29_04h17.13.339,classification_task,2021.2.3,Win32,59.74429442,5e3628fe1cdf265e0d75cdf2,626b377229c10585ec392f8a,626b3c6e17aabf30cec2b14b,,,,,,,,,,,,,,,,,,,,,,,,,,,,,,,,,,,,,,,,,,,,,0,0,0,0,1,,1,,,,,,,,,,,,,,,,,
,5e3628fe1cdf265e0d75cdf2,001,2022-04-29_04h17.13.339,classification_task,2021.2.3,Win32,59.74429442,5e3628fe1cdf265e0d75cdf2,626b377229c10585ec392f8a,626b3c6e17aabf30cec2b14b,,,,,,,,,,,,,,,,,,,,,space,15.4207,a,1,"[""0.274"",""0.372"",""0.590"",""0.880""]","[1,1,0,1]",0,0,0,0,1,0,0,,,1,FALSE,2.5839,,,,,,,,,,,,,,,,,,,,,,,,,,,,,,
,5e3628fe1cdf265e0d75cdf2,001,2022-04-29_04h17.13.339,classification_task,2021.2.3,Win32,59.74429442,5e3628fe1cdf265e0d75cdf2,626b377229c10585ec392f8a,626b3c6e17aabf30cec2b14b,,,,,,,,,,,,,,,,,,,,,,,a,1,"[""0.428"",""0.372"",""0.683"",""0.880""]","[0,1,1,1]",0,1,1,1,1,0,0,,,1,FALSE,1.4555,,,,,,,,,,,,,,,,,,,,,,,,,,,,,,
,5e3628fe1cdf265e0d75cdf2,001,2022-04-29_04h17.13.339,classification_task,2021.2.3,Win32,59.74429442,5e3628fe1cdf265e0d75cdf2,626b377229c10585ec392f8a,626b3c6e17aabf30cec2b14b,,,,,,,,,,,,,,,,,,,,,,,,0,"[""0.324"",""0.185"",""0.780"",""0.956""]","[1,0,1,1]",0,2,2,2,1,0,1,,,1,FALSE,,,,,,,,,,,,,,,,,,,,,,,,,,,,,,,
,5e3628fe1cdf265e0d75cdf2,001,2022-04-29_04h17.13.339,classification_task,2021.2.3,Win32,59.74429442,5e3628fe1cdf265e0d75cdf2,626b377229c10585ec392f8a,626b3c6e17aabf30cec2b14b,,,,,,,,,,,,,,,,,,,,,,,l,1,"[""0.149"",""0.440"",""0.636"",""0.718""]","[1,0,1,1]",0,3,3,3,1,1,1,,,1,FALSE,4.0798,,,,,,,,,,,,,,,,,,,,,,,,,,,,,,
,5e3628fe1cdf265e0d75cdf2,001,2022-04-29_04h17.13.339,classification_task,2021.2.3,Win32,59.74429442,5e3628fe1cdf265e0d75cdf2,626b377229c10585ec392f8a,626b3c6e17aabf30cec2b14b,,,,,,,,,,,,,,,,,,,,,,,a,1,"[""0.324"",""0.553"",""0.430"",""0.956""]","[1,1,0,1]",0,4,4,4,1,0,1,,,1,FALSE,1.6189,,,,,,,,,,,,,,,,,,,,,,,,,,,,,,
,5e3628fe1cdf265e0d75cdf2,001,2022-04-29_04h17.13.339,classification_task,2021.2.3,Win32,59.74429442,5e3628fe1cdf265e0d75cdf2,626b377229c10585ec392f8a,626b3c6e17aabf30cec2b14b,,,,,,,,,,,,,,,,,,,,,,,l,1,"[""0.149"",""0.224"",""0.467"",""0.718""]","[1,1,0,1]",0,5,5,5,1,1,1,,,1,FALSE,0.8952,,,,,,,,,,,,,,,,,,,,,,,,,,,,,,
,5e3628fe1cdf265e0d75cdf2,001,2022-04-29_04h17.13.339,classification_task,2021.2.3,Win32,59.74429442,5e3628fe1cdf265e0d75cdf2,626b377229c10585ec392f8a,626b3c6e17aabf30cec2b14b,,,,,,,,,,,,,,,,,,,,,,,l,1,"[""0.060"",""0.457"",""0.516"",""0.817""]","[1,0,1,1]",0,6,6,6,1,1,0,,,1,FALSE,2.0516,,,,,,,,,,,,,,,,,,,,,,,,,,,,,,
,5e3628fe1cdf265e0d75cdf2,001,2022-04-29_04h17.13.339,classification_task,2021.2.3,Win32,59.74429442,5e3628fe1cdf265e0d75cdf2,626b377229c10585ec392f8a,626b3c6e17aabf30cec2b14b,,,,,,,,,,,,,,,,,,,,,,,l,1,"[""0.412"",""0.104"",""0.516"",""0.817""]","[0,1,1,1]",0,7,7,7,1,1,0,,,1,FALSE,0.5507,,,,,,,,,,,,,,,,,,,,,,,,,,,,,,
,5e3628fe1cdf265e0d75cdf2,001,2022-04-29_04h17.13.339,classification_task,2021.2.3,Win32,59.74429442,5e3628fe1cdf265e0d75cdf2,626b377229c10585ec392f8a,626b3c6e17aabf30cec2b14b,,,,,,,,,,,,,,,,,,,,,,,a,1,"[""0.274"",""0.372"",""0.683"",""0.457""]","[1,1,1,0]",0,8,8,8,1,0,0,,,1,FALSE,1.2931,,,,,,,,,,,,,,,,,,,,,,,,,,,,,,
,5e3628fe1cdf265e0d75cdf2,001,2022-04-29_04h17.13.339,classification_task,2021.2.3,Win32,59.74429442,5e3628fe1cdf265e0d75cdf2,626b377229c10585ec392f8a,626b3c6e17aabf30cec2b14b,,,,,,,,,,,,,,,,,,,,,,,a,1,"[""0.274"",""0.188"",""0.683"",""0.880""]","[1,0,1,1]",0,9,9,9,1,0,0,,,1,FALSE,1.1631,,,,,,,,,,,,,,,,,,,,,,,,,,,,,,
,5e3628fe1cdf265e0d75cdf2,001,2022-04-29_04h17.13.339,classification_task,2021.2.3,Win32,59.74429442,5e3628fe1cdf265e0d75cdf2,626b377229c10585ec392f8a,626b3c6e17aabf30cec2b14b,,,,,,,,,,,,,,,,,,,,,,,l,1,"[""0.060"",""0.104"",""0.516"",""0.467""]","[1,1,1,0]",0,10,10,10,1,1,0,,,1,FALSE,0.7984,,,,,,,,,,,,,,,,,,,,,,,,,,,,,,
,5e3628fe1cdf265e0d75cdf2,001,2022-04-29_04h17.13.339,classification_task,2021.2.3,Win32,59.74429442,5e3628fe1cdf265e0d75cdf2,626b377229c10585ec392f8a,626b3c6e17aabf30cec2b14b,,,,,,,,,,,,,,,,,,,,,,,a,1,"[""0.324"",""0.553"",""0.780"",""0.412""]","[1,1,1,0]",0,11,11,11,1,0,1,,,1,FALSE,2.5848,,,,,,,,,,,,,,,,,,,,,,,,,,,,,,
,5e3628fe1cdf265e0d75cdf2,001,2022-04-29_04h17.13.339,classification_task,2021.2.3,Win32,59.74429442,5e3628fe1cdf265e0d75cdf2,626b377229c10585ec392f8a,626b3c6e17aabf30cec2b14b,,,,,,,,,,,,,,,,,,,,,,,l,1,"[""0.060"",""0.104"",""0.422"",""0.817""]","[1,1,0,1]",0,12,12,12,1,1,0,,,1,FALSE,1.4966,,,,,,,,,,,,,,,,,,,,,,,,,,,,,,
,5e3628fe1cdf265e0d75cdf2,001,2022-04-29_04h17.13.339,classification_task,2021.2.3,Win32,59.74429442,5e3628fe1cdf265e0d75cdf2,626b377229c10585ec392f8a,626b3c6e17aabf30cec2b14b,,,,,,,,,,,,,,,,,,,,,,,l,1,"[""0.149"",""0.224"",""0.636"",""0.453""]","[1,1,1,0]",0,13,13,13,1,1,1,,,1,FALSE,0.9257,,,,,,,,,,,,,,,,,,,,,,,,,,,,,,
,5e3628fe1cdf265e0d75cdf2,001,2022-04-29_04h17.13.339,classification_task,2021.2.3,Win32,59.74429442,5e3628fe1cdf265e0d75cdf2,626b377229c10585ec392f8a,626b3c6e17aabf30cec2b14b,,,,,,,,,,,,,,,,,,,,,,,l,1,"[""0.457"",""0.224"",""0.636"",""0.718""]","[0,1,1,1]",0,14,14,14,1,1,1,,,1,FALSE,0.6314,,,,,,,,,,,,,,,,,,,,,,,,,,,,,,
,5e3628fe1cdf265e0d75cdf2,001,2022-04-29_04h17.13.339,classification_task,2021.2.3,Win32,59.74429442,5e3628fe1cdf265e0d75cdf2,626b377229c10585ec392f8a,626b3c6e17aabf30cec2b14b,,,,,,,,,,,,,,,,,,,,,,,a,1,"[""0.440"",""0.553"",""0.780"",""0.956""]","[0,1,1,1]",0,15,15,15,1,0,1,,,1,FALSE,3.1925,,,,,,,,,,,,,,,,,,,,,,,,,,,,,,
,5e3628fe1cdf265e0d75cdf2,001,2022-04-29_04h17.13.339,classification_task,2021.2.3,Win32,59.74429442,5e3628fe1cdf265e0d75cdf2,626b377229c10585ec392f8a,626b3c6e17aabf30cec2b14b,,,,,,,,,,,,,,,,,,,,,,,l,1,"[""0.457"",""0.224"",""0.636"",""0.718""]","[0,1,1,1]",0,16,16,16,1,1,1,,,1,FALSE,1.3613,,,,,,,,,,,,,,,,,,,,,,,,,,,,,,
,5e3628fe1cdf265e0d75cdf2,001,2022-04-29_04h17.13.339,classification_task,2021.2.3,Win32,59.74429442,5e3628fe1cdf265e0d75cdf2,626b377229c10585ec392f8a,626b3c6e17aabf30cec2b14b,,,,,,,,,,,,,,,,,,,,,,,l,1,"[""0.060"",""0.104"",""0.516"",""0.591""]","[1,1,1,0]",0,17,17,17,1,1,0,,,1,FALSE,1.8063,,,,,,,,,,,,,,,,,,,,,,,,,,,,,,
,5e3628fe1cdf265e0d75cdf2,001,2022-04-29_04h17.13.339,classification_task,2021.2.3,Win32,59.74429442,5e3628fe1cdf265e0d75cdf2,626b377229c10585ec392f8a,626b3c6e17aabf30cec2b14b,,,,,,,,,,,,,,,,,,,,,,,l,1,"[""0.149"",""0.224"",""0.422"",""0.718""]","[1,1,0,1]",0,18,18,18,1,1,1,,,1,FALSE,1.3395,,,,,,,,,,,,,,,,,,,,,,,,,,,,,,
,5e3628fe1cdf265e0d75cdf2,001,2022-04-29_04h17.13.339,classification_task,2021.2.3,Win32,59.74429442,5e3628fe1cdf265e0d75cdf2,626b377229c10585ec392f8a,626b3c6e17aabf30cec2b14b,,,,,,,,,,,,,,,,,,,,,,,a,1,"[""0.324"",""0.453"",""0.780"",""0.956""]","[1,0,1,1]",0,19,19,19,1,0,1,,,1,FALSE,0.9517,,,,,,,,,,,,,,,,,,,,,,,,,,,,,,
,5e3628fe1cdf265e0d75cdf2,001,2022-04-29_04h17.13.339,classification_task,2021.2.3,Win32,59.74429442,5e3628fe1cdf265e0d75cdf2,626b377229c10585ec392f8a,626b3c6e17aabf30cec2b14b,,,,,,,,,,,,,,,,,,,,,,,l,0,"[""0.274"",""0.188"",""0.683"",""0.880""]","[1,0,1,1]",0,20,20,20,1,0,0,,,1,FALSE,2.096,,,,,,,,,,,,,,,,,,,,,,,,,,,,,,
,5e3628fe1cdf265e0d75cdf2,001,2022-04-29_04h17.13.339,classification_task,2021.2.3,Win32,59.74429442,5e3628fe1cdf265e0d75cdf2,626b377229c10585ec392f8a,626b3c6e17aabf30cec2b14b,,,,,,,,,,,,,,,,,,,,,,,l,1,"[""0.060"",""0.104"",""0.440"",""0.817""]","[1,1,0,1]",0,21,21,21,1,1,0,,,1,FALSE,0.7317,,,,,,,,,,,,,,,,,,,,,,,,,,,,,,
,5e3628fe1cdf265e0d75cdf2,001,2022-04-29_04h17.13.339,classification_task,2021.2.3,Win32,59.74429442,5e3628fe1cdf265e0d75cdf2,626b377229c10585ec392f8a,626b3c6e17aabf30cec2b14b,,,,,,,,,,,,,,,,,,,,,,,a,1,"[""0.467"",""0.372"",""0.683"",""0.880""]","[0,1,1,1]",0,22,22,22,1,0,0,,,1,FALSE,0.8466,,,,,,,,,,,,,,,,,,,,,,,,,,,,,,
,5e3628fe1cdf265e0d75cdf2,001,2022-04-29_04h17.13.339,classification_task,2021.2.3,Win32,59.74429442,5e3628fe1cdf265e0d75cdf2,626b377229c10585ec392f8a,626b3c6e17aabf30cec2b14b,,,,,,,,,,,,,,,,,,,,,,,l,1,"[""0.149"",""0.590"",""0.636"",""0.718""]","[1,0,1,1]",0,23,23,23,1,1,1,,,1,FALSE,1.0629,,,,,,,,,,,,,,,,,,,,,,,,,,,,,,
,5e3628fe1cdf265e0d75cdf2,001,2022-04-29_04h17.13.339,classification_task,2021.2.3,Win32,59.74429442,5e3628fe1cdf265e0d75cdf2,626b377229c10585ec392f8a,626b3c6e17aabf30cec2b14b,,,,,,,,,,,,,,,,,,,,,,,a,1,"[""0.324"",""0.553"",""0.780"",""0.430""]","[1,1,1,0]",0,24,24,24,1,0,1,,,1,FALSE,0.8604,,,,,,,,,,,,,,,,,,,,,,,,,,,,,,
,5e3628fe1cdf265e0d75cdf2,001,2022-04-29_04h17.13.339,classification_task,2021.2.3,Win32,59.74429442,5e3628fe1cdf265e0d75cdf2,626b377229c10585ec392f8a,626b3c6e17aabf30cec2b14b,,,,,,,,,,,,,,,,,,,,,,,a,1,"[""0.274"",""0.372"",""0.683"",""0.590""]","[1,1,1,0]",0,25,25,25,1,0,0,,,1,FALSE,1.7998,,,,,,,,,,,,,,,,,,,,,,,,,,,,,,
,5e3628fe1cdf265e0d75cdf2,001,2022-04-29_04h17.13.339,classification_task,2021.2.3,Win32,59.74429442,5e3628fe1cdf265e0d75cdf2,626b377229c10585ec392f8a,626b3c6e17aabf30cec2b14b,,,,,,,,,,,,,,,,,,,,,,,l,1,"[""0.060"",""0.481"",""0.516"",""0.817""]","[1,0,1,1]",0,26,26,26,1,1,0,,,1,FALSE,1.0191,,,,,,,,,,,,,,,,,,,,,,,,,,,,,,
,5e3628fe1cdf265e0d75cdf2,001,2022-04-29_04h17.13.339,classification_task,2021.2.3,Win32,59.74429442,5e3628fe1cdf265e0d75cdf2,626b377229c10585ec392f8a,626b3c6e17aabf30cec2b14b,,,,,,,,,,,,,,,,,,,,,,,a,1,"[""0.412"",""0.553"",""0.780"",""0.956""]","[0,1,1,1]",0,27,27,27,1,0,1,,,1,FALSE,0.9855,,,,,,,,,,,,,,,,,,,,,,,,,,,,,,
,5e3628fe1cdf265e0d75cdf2,001,2022-04-29_04h17.13.339,classification_task,2021.2.3,Win32,59.74429442,5e3628fe1cdf265e0d75cdf2,626b377229c10585ec392f8a,626b3c6e17aabf30cec2b14b,,,,,,,,,,,,,,,,,,,,,,,l,1,"[""0.149"",""0.224"",""0.636"",""0.422""]","[1,1,1,0]",0,28,28,28,1,1,1,,,1,FALSE,0.8122,,,,,,,,,,,,,,,,,,,,,,,,,,,,,,
,5e3628fe1cdf265e0d75cdf2,001,2022-04-29_04h17.13.339,classification_task,2021.2.3,Win32,59.74429442,5e3628fe1cdf265e0d75cdf2,626b377229c10585ec392f8a,626b3c6e17aabf30cec2b14b,,,,,,,,,,,,,,,,,,,,,,,l,1,"[""0.430"",""0.104"",""0.516"",""0.817""]","[0,1,1,1]",0,29,29,29,1,1,0,,,1,FALSE,1.518,,,,,,,,,,,,,,,,,,,,,,,,,,,,,,
,5e3628fe1cdf265e0d75cdf2,001,2022-04-29_04h17.13.339,classification_task,2021.2.3,Win32,59.74429442,5e3628fe1cdf265e0d75cdf2,626b377229c10585ec392f8a,626b3c6e17aabf30cec2b14b,,,,,,,,,,,,,,,,,,,,,,,a,1,"[""0.274"",""0.372"",""0.428"",""0.880""]","[1,1,0,1]",0,30,30,30,1,0,0,,,1,FALSE,0.8623,,,,,,,,,,,,,,,,,,,,,,,,,,,,,,
,5e3628fe1cdf265e0d75cdf2,001,2022-04-29_04h17.13.339,classification_task,2021.2.3,Win32,59.74429442,5e3628fe1cdf265e0d75cdf2,626b377229c10585ec392f8a,626b3c6e17aabf30cec2b14b,,,,,,,,,,,,,,,,,,,,,,,a,1,"[""0.324"",""0.553"",""0.590"",""0.956""]","[1,1,0,1]",0,31,31,31,1,0,1,,,1,FALSE,1.4666,,,,,,,,,,,,,,,,,,,,,,,,,,,,,,
,5e3628fe1cdf265e0d75cdf2,001,2022-04-29_04h17.13.339,classification_task,2021.2.3,Win32,59.74429442,5e3628fe1cdf265e0d75cdf2,626b377229c10585ec392f8a,626b3c6e17aabf30cec2b14b,,,,,,,,,,,,,,,,,,,,,,,l,1,"[""0.412"",""0.224"",""0.636"",""0.718""]","[0,1,1,1]",0,32,32,32,1,1,1,,,1,FALSE,0.9981,,,,,,,,,,,,,,,,,,,,,,,,,,,,,,
,5e3628fe1cdf265e0d75cdf2,001,2022-04-29_04h17.13.339,classification_task,2021.2.3,Win32,59.74429442,5e3628fe1cdf265e0d75cdf2,626b377229c10585ec392f8a,626b3c6e17aabf30cec2b14b,,,,,,,,,,,,,,,,,,,,,,,l,0,"[""0.274"",""0.372"",""0.683"",""0.422""]","[1,1,1,0]",0,33,33,33,1,0,0,,,1,FALSE,2.6463,,,,,,,,,,,,,,,,,,,,,,,,,,,,,,
,5e3628fe1cdf265e0d75cdf2,001,2022-04-29_04h17.13.339,classification_task,2021.2.3,Win32,59.74429442,5e3628fe1cdf265e0d75cdf2,626b377229c10585ec392f8a,626b3c6e17aabf30cec2b14b,,,,,,,,,,,,,,,,,,,,,,,a,1,"[""0.440"",""0.372"",""0.683"",""0.880""]","[0,1,1,1]",0,34,34,34,1,0,0,,,1,FALSE,0.8015,,,,,,,,,,,,,,,,,,,,,,,,,,,,,,
,5e3628fe1cdf265e0d75cdf2,001,2022-04-29_04h17.13.339,classification_task,2021.2.3,Win32,59.74429442,5e3628fe1cdf265e0d75cdf2,626b377229c10585ec392f8a,626b3c6e17aabf30cec2b14b,,,,,,,,,,,,,,,,,,,,,,,l,1,"[""0.149"",""0.224"",""0.453"",""0.718""]","[1,1,0,1]",0,35,35,35,1,1,1,,,1,FALSE,1.5798,,,,,,,,,,,,,,,,,,,,,,,,,,,,,,
,5e3628fe1cdf265e0d75cdf2,001,2022-04-29_04h17.13.339,classification_task,2021.2.3,Win32,59.74429442,5e3628fe1cdf265e0d75cdf2,626b377229c10585ec392f8a,626b3c6e17aabf30cec2b14b,,,,,,,,,,,,,,,,,,,,,,,l,1,"[""0.060"",""0.481"",""0.516"",""0.817""]","[1,0,1,1]",0,36,36,36,1,1,0,,,1,FALSE,1.0161,,,,,,,,,,,,,,,,,,,,,,,,,,,,,,
,5e3628fe1cdf265e0d75cdf2,001,2022-04-29_04h17.13.339,classification_task,2021.2.3,Win32,59.74429442,5e3628fe1cdf265e0d75cdf2,626b377229c10585ec392f8a,626b3c6e17aabf30cec2b14b,,,,,,,,,,,,,,,,,,,,,,,a,1,"[""0.274"",""0.590"",""0.683"",""0.880""]","[1,0,1,1]",0,37,37,37,1,0,0,,,1,FALSE,0.6945,,,,,,,,,,,,,,,,,,,,,,,,,,,,,,
,5e3628fe1cdf265e0d75cdf2,001,2022-04-29_04h17.13.339,classification_task,2021.2.3,Win32,59.74429442,5e3628fe1cdf265e0d75cdf2,626b377229c10585ec392f8a,626b3c6e17aabf30cec2b14b,,,,,,,,,,,,,,,,,,,,,,,a,1,"[""0.324"",""0.590"",""0.780"",""0.956""]","[1,0,1,1]",0,38,38,38,1,0,1,,,1,FALSE,1.3479,,,,,,,,,,,,,,,,,,,,,,,,,,,,,,
,5e3628fe1cdf265e0d75cdf2,001,2022-04-29_04h17.13.339,classification_task,2021.2.3,Win32,59.74429442,5e3628fe1cdf265e0d75cdf2,626b377229c10585ec392f8a,626b3c6e17aabf30cec2b14b,,,,,,,,,,,,,,,,,,,,,,,l,1,"[""0.149"",""0.412"",""0.636"",""0.718""]","[1,0,1,1]",0,39,39,39,1,1,1,,,1,FALSE,0.6591,,,,,,,,,,,,,,,,,,,,,,,,,,,,,,
,5e3628fe1cdf265e0d75cdf2,001,2022-04-29_04h17.13.339,classification_task,2021.2.3,Win32,59.74429442,5e3628fe1cdf265e0d75cdf2,626b377229c10585ec392f8a,626b3c6e17aabf30cec2b14b,,,,,,,,,,,,,,,,,,,,,,,l,1,"[""0.060"",""0.104"",""0.412"",""0.817""]","[1,1,0,1]",0,40,40,40,1,1,0,,,1,FALSE,1.2679,,,,,,,,,,,,,,,,,,,,,,,,,,,,,,
,5e3628fe1cdf265e0d75cdf2,001,2022-04-29_04h17.13.339,classification_task,2021.2.3,Win32,59.74429442,5e3628fe1cdf265e0d75cdf2,626b377229c10585ec392f8a,626b3c6e17aabf30cec2b14b,,,,,,,,,,,,,,,,,,,,,,,a,1,"[""0.324"",""0.553"",""0.780"",""0.188""]","[1,1,1,0]",0,41,41,41,1,0,1,,,1,FALSE,1.3514,,,,,,,,,,,,,,,,,,,,,,,,,,,,,,
,5e3628fe1cdf265e0d75cdf2,001,2022-04-29_04h17.13.339,classification_task,2021.2.3,Win32,59.74429442,5e3628fe1cdf265e0d75cdf2,626b377229c10585ec392f8a,626b3c6e17aabf30cec2b14b,,,,,,,,,,,,,,,,,,,,,,,l,1,"[""0.060"",""0.104"",""0.516"",""0.430""]","[1,1,1,0]",0,42,42,42,1,1,0,,,1,FALSE,1.4704,,,,,,,,,,,,,,,,,,,,,,,,,,,,,,
,5e3628fe1cdf265e0d75cdf2,001,2022-04-29_04h17.13.339,classification_task,2021.2.3,Win32,59.74429442,5e3628fe1cdf265e0d75cdf2,626b377229c10585ec392f8a,626b3c6e17aabf30cec2b14b,,,,,,,,,,,,,,,,,,,,,,,a,1,"[""0.324"",""0.553"",""0.457"",""0.956""]","[1,1,0,1]",0,43,43,43,1,0,1,,,1,FALSE,1.0557,,,,,,,,,,,,,,,,,,,,,,,,,,,,,,
,5e3628fe1cdf265e0d75cdf2,001,2022-04-29_04h17.13.339,classification_task,2021.2.3,Win32,59.74429442,5e3628fe1cdf265e0d75cdf2,626b377229c10585ec392f8a,626b3c6e17aabf30cec2b14b,,,,,,,,,,,,,,,,,,,,,,,l,1,"[""0.457"",""0.104"",""0.516"",""0.817""]","[0,1,1,1]",0,44,44,44,1,1,0,,,1,FALSE,1.0714,,,,,,,,,,,,,,,,,,,,,,,,,,,,,,
,5e3628fe1cdf265e0d75cdf2,001,2022-04-29_04h17.13.339,classification_task,2021.2.3,Win32,59.74429442,5e3628fe1cdf265e0d75cdf2,626b377229c10585ec392f8a,626b3c6e17aabf30cec2b14b,,,,,,,,,,,,,,,,,,,,,,,a,1,"[""0.274"",""0.372"",""0.430"",""0.880""]","[1,1,0,1]",0,45,45,45,1,0,0,,,1,FALSE,0.8931,,,,,,,,,,,,,,,,,,,,,,,,,,,,,,
,5e3628fe1cdf265e0d75cdf2,001,2022-04-29_04h17.13.339,classification_task,2021.2.3,Win32,59.74429442,5e3628fe1cdf265e0d75cdf2,626b377229c10585ec392f8a,626b3c6e17aabf30cec2b14b,,,,,,,,,,,,,,,,,,,,,,,a,1,"[""0.188"",""0.553"",""0.780"",""0.956""]","[0,1,1,1]",0,46,46,46,1,0,1,,,1,FALSE,0.8954,,,,,,,,,,,,,,,,,,,,,,,,,,,,,,
,5e3628fe1cdf265e0d75cdf2,001,2022-04-29_04h17.13.339,classification_task,2021.2.3,Win32,59.74429442,5e3628fe1cdf265e0d75cdf2,626b377229c10585ec392f8a,626b3c6e17aabf30cec2b14b,,,,,,,,,,,,,,,,,,,,,,,l,1,"[""0.149"",""0.224"",""0.636"",""0.467""]","[1,1,1,0]",0,47,47,47,1,1,1,,,1,FALSE,0.5778,,,,,,,,,,,,,,,,,,,,,,,,,,,,,,
,5e3628fe1cdf265e0d75cdf2,001,2022-04-29_04h17.13.339,classification_task,2021.2.3,Win32,59.74429442,5e3628fe1cdf265e0d75cdf2,626b377229c10585ec392f8a,626b3c6e17aabf30cec2b14b,,,,,,,,,,,,,,,,,,,,,,,l,1,"[""0.060"",""0.104"",""0.516"",""0.422""]","[1,1,1,0]",0,48,48,48,1,1,0,,,1,FALSE,1.01,,,,,,,,,,,,,,,,,,,,,,,,,,,,,,
,5e3628fe1cdf265e0d75cdf2,001,2022-04-29_04h17.13.339,classification_task,2021.2.3,Win32,59.74429442,5e3628fe1cdf265e0d75cdf2,626b377229c10585ec392f8a,626b3c6e17aabf30cec2b14b,,,,,,,,,,,,,,,,,,,,,,,l,1,"[""0.149"",""0.224"",""0.636"",""0.594""]","[1,1,1,0]",0,49,49,49,1,1,1,,,1,FALSE,1.3214,,,,,,,,,,,,,,,,,,,,,,,,,,,,,,
,5e3628fe1cdf265e0d75cdf2,001,2022-04-29_04h17.13.339,classification_task,2021.2.3,Win32,59.74429442,5e3628fe1cdf265e0d75cdf2,626b377229c10585ec392f8a,626b3c6e17aabf30cec2b14b,,,,,,,,,,,,,,,,,,,,,,,l,1,"[""0.149"",""0.224"",""0.475"",""0.718""]","[1,1,0,1]",0,50,50,50,1,1,1,,,1,FALSE,0.8524,,,,,,,,,,,,,,,,,,,,,,,,,,,,,,
,5e3628fe1cdf265e0d75cdf2,001,2022-04-29_04h17.13.339,classification_task,2021.2.3,Win32,59.74429442,5e3628fe1cdf265e0d75cdf2,626b377229c10585ec392f8a,626b3c6e17aabf30cec2b14b,,,,,,,,,,,,,,,,,,,,,,,a,1,"[""0.324"",""0.553"",""0.188"",""0.956""]","[1,1,0,1]",0,51,51,51,1,0,1,,,1,FALSE,1.7815,,,,,,,,,,,,,,,,,,,,,,,,,,,,,,
,5e3628fe1cdf265e0d75cdf2,001,2022-04-29_04h17.13.339,classification_task,2021.2.3,Win32,59.74429442,5e3628fe1cdf265e0d75cdf2,626b377229c10585ec392f8a,626b3c6e17aabf30cec2b14b,,,,,,,,,,,,,,,,,,,,,,,l,1,"[""0.060"",""0.104"",""0.467"",""0.817""]","[1,1,0,1]",0,52,52,52,1,1,0,,,1,FALSE,2.5167,,,,,,,,,,,,,,,,,,,,,,,,,,,,,,
,5e3628fe1cdf265e0d75cdf2,001,2022-04-29_04h17.13.339,classification_task,2021.2.3,Win32,59.74429442,5e3628fe1cdf265e0d75cdf2,626b377229c10585ec392f8a,626b3c6e17aabf30cec2b14b,,,,,,,,,,,,,,,,,,,,,,,a,0,"[""0.594"",""0.224"",""0.636"",""0.718""]","[0,1,1,1]",0,53,53,53,1,1,1,,,1,FALSE,1.3199,,,,,,,,,,,,,,,,,,,,,,,,,,,,,,
,5e3628fe1cdf265e0d75cdf2,001,2022-04-29_04h17.13.339,classification_task,2021.2.3,Win32,59.74429442,5e3628fe1cdf265e0d75cdf2,626b377229c10585ec392f8a,626b3c6e17aabf30cec2b14b,,,,,,,,,,,,,,,,,,,,,,,l,1,"[""0.060"",""0.475"",""0.516"",""0.817""]","[1,0,1,1]",0,54,54,54,1,1,0,,,1,FALSE,1.614,,,,,,,,,,,,,,,,,,,,,,,,,,,,,,
,5e3628fe1cdf265e0d75cdf2,001,2022-04-29_04h17.13.339,classification_task,2021.2.3,Win32,59.74429442,5e3628fe1cdf265e0d75cdf2,626b377229c10585ec392f8a,626b3c6e17aabf30cec2b14b,,,,,,,,,,,,,,,,,,,,,,,a,1,"[""0.274"",""0.372"",""0.430"",""0.880""]","[1,1,0,1]",0,55,55,55,1,0,0,,,1,FALSE,1.065,,,,,,,,,,,,,,,,,,,,,,,,,,,,,,
,5e3628fe1cdf265e0d75cdf2,001,2022-04-29_04h17.13.339,classification_task,2021.2.3,Win32,59.74429442,5e3628fe1cdf265e0d75cdf2,626b377229c10585ec392f8a,626b3c6e17aabf30cec2b14b,,,,,,,,,,,,,,,,,,,,,,,a,1,"[""0.324"",""0.188"",""0.780"",""0.956""]","[1,0,1,1]",0,56,56,56,1,0,1,,,1,FALSE,1.3778,,,,,,,,,,,,,,,,,,,,,,,,,,,,,,
,5e3628fe1cdf265e0d75cdf2,001,2022-04-29_04h17.13.339,classification_task,2021.2.3,Win32,59.74429442,5e3628fe1cdf265e0d75cdf2,626b377229c10585ec392f8a,626b3c6e17aabf30cec2b14b,,,,,,,,,,,,,,,,,,,,,,,l,1,"[""0.453"",""0.104"",""0.516"",""0.817""]","[0,1,1,1]",0,57,57,57,1,1,0,,,1,FALSE,2.6526,,,,,,,,,,,,,,,,,,,,,,,,,,,,,,
,5e3628fe1cdf265e0d75cdf2,001,2022-04-29_04h17.13.339,classification_task,2021.2.3,Win32,59.74429442,5e3628fe1cdf265e0d75cdf2,626b377229c10585ec392f8a,626b3c6e17aabf30cec2b14b,,,,,,,,,,,,,,,,,,,,,,,a,1,"[""0.590"",""0.553"",""0.780"",""0.956""]","[0,1,1,1]",0,58,58,58,1,0,1,,,1,FALSE,1.4199,,,,,,,,,,,,,,,,,,,,,,,,,,,,,,
,5e3628fe1cdf265e0d75cdf2,001,2022-04-29_04h17.13.339,classification_task,2021.2.3,Win32,59.74429442,5e3628fe1cdf265e0d75cdf2,626b377229c10585ec392f8a,626b3c6e17aabf30cec2b14b,,,,,,,,,,,,,,,,,,,,,,,a,1,"[""0.274"",""0.481"",""0.683"",""0.880""]","[1,0,1,1]",0,59,59,59,1,0,0,,,1,FALSE,1.2458,,,,,,,,,,,,,,,,,,,,,,,,,,,,,,
,5e3628fe1cdf265e0d75cdf2,001,2022-04-29_04h17.13.339,classification_task,2021.2.3,Win32,59.74429442,5e3628fe1cdf265e0d75cdf2,626b377229c10585ec392f8a,626b3c6e17aabf30cec2b14b,,,,,,,,,,,,,,,,,,,,,,,a,1,"[""0.324"",""0.553"",""0.780"",""0.467""]","[1,1,1,0]",0,60,60,60,1,0,1,,,1,FALSE,1.0595,,,,,,,,,,,,,,,,,,,,,,,,,,,,,,
,5e3628fe1cdf265e0d75cdf2,001,2022-04-29_04h17.13.339,classification_task,2021.2.3,Win32,59.74429442,5e3628fe1cdf265e0d75cdf2,626b377229c10585ec392f8a,626b3c6e17aabf30cec2b14b,,,,,,,,,,,,,,,,,,,,,,,a,1,"[""0.274"",""0.372"",""0.683"",""0.188""]","[1,1,1,0]",0,61,61,61,1,0,0,,,1,FALSE,2.845,,,,,,,,,,,,,,,,,,,,,,,,,,,,,,
,5e3628fe1cdf265e0d75cdf2,001,2022-04-29_04h17.13.339,classification_task,2021.2.3,Win32,59.74429442,5e3628fe1cdf265e0d75cdf2,626b377229c10585ec392f8a,626b3c6e17aabf30cec2b14b,,,,,,,,,,,,,,,,,,,,,,,a,1,"[""0.457"",""0.372"",""0.683"",""0.880""]","[0,1,1,1]",0,62,62,62,1,0,0,,,1,FALSE,0.8372,,,,,,,,,,,,,,,,,,,,,,,,,,,,,,
,5e3628fe1cdf265e0d75cdf2,001,2022-04-29_04h17.13.339,classification_task,2021.2.3,Win32,59.74429442,5e3628fe1cdf265e0d75cdf2,626b377229c10585ec392f8a,626b3c6e17aabf30cec2b14b,,,,,,,,,,,,,,,,,,,,,,,l,1,"[""0.149"",""0.422"",""0.636"",""0.718""]","[1,0,1,1]",0,63,63,63,1,1,1,,,1,FALSE,1.7684,,,,,,,,,,,,,,,,,,,,,,,,,,,,,,
,5e3628fe1cdf265e0d75cdf2,001,2022-04-29_04h17.13.339,classification_task,2021.2.3,Win32,59.74429442,5e3628fe1cdf265e0d75cdf2,626b377229c10585ec392f8a,626b3c6e17aabf30cec2b14b,,,,,,,,,,,,,,,,,,,,,,,,,,,,,,,,,,,,,,,0, ,,0,1.919704843,187.3723,0,1,1,1,1,2,2,,,,,,,,,,,,,,,,,
,5e3628fe1cdf265e0d75cdf2,001,2022-04-29_04h17.13.339,classification_task,2021.2.3,Win32,59.74429442,5e3628fe1cdf265e0d75cdf2,626b377229c10585ec392f8a,626b3c6e17aabf30cec2b14b,,,,,,,,,,,,,,,,,,,,,,,,,,,,,,,,,,,,,,,1,  ,,0,6.451352893,192.7554,0,1,1,1,1,2,2,,,,,,,,,,,,,,,,,
,5e3628fe1cdf265e0d75cdf2,001,2022-04-29_04h17.13.339,classification_task,2021.2.3,Win32,59.74429442,5e3628fe1cdf265e0d75cdf2,626b377229c10585ec392f8a,626b3c6e17aabf30cec2b14b,,,,,,,,,,,,,,,,,,,,,,,,,,,,,,,,,,,,,,,2,  ,,0,2.115666881,198.5735,0,1,1,1,1,2,2,,,,,,,,,,,,,,,,,
,5e3628fe1cdf265e0d75cdf2,001,2022-04-29_04h17.13.339,classification_task,2021.2.3,Win32,59.74429442,5e3628fe1cdf265e0d75cdf2,626b377229c10585ec392f8a,626b3c6e17aabf30cec2b14b,,,,,,,,,,,,,,,,,,,,,,,,,,,,,,,,,,,,,,,,,,,,,0,1,1,1,1,,2,,,,,,,,,,,,,,,,,
,5e3628fe1cdf265e0d75cdf2,001,2022-04-29_04h17.13.339,classification_task,2021.2.3,Win32,59.74429442,5e3628fe1cdf265e0d75cdf2,626b377229c10585ec392f8a,626b3c6e17aabf30cec2b14b,,,,,,,,,,,,,,,,,,,,,space,11.0569,a,1,"[""0.591"",""0.553"",""0.780"",""0.956""]","[0,1,1,1]",0,0,0,0,1,0,1,,,1,FALSE,2.4609,,,,,,,,,,,,,,,,,,,,,,,,,,,,,,
,5e3628fe1cdf265e0d75cdf2,001,2022-04-29_04h17.13.339,classification_task,2021.2.3,Win32,59.74429442,5e3628fe1cdf265e0d75cdf2,626b377229c10585ec392f8a,626b3c6e17aabf30cec2b14b,,,,,,,,,,,,,,,,,,,,,,,a,0,"[""0.412"",""0.224"",""0.636"",""0.718""]","[0,1,1,1]",0,1,1,1,1,1,1,,,1,FALSE,1.2435,,,,,,,,,,,,,,,,,,,,,,,,,,,,,,
,5e3628fe1cdf265e0d75cdf2,001,2022-04-29_04h17.13.339,classification_task,2021.2.3,Win32,59.74429442,5e3628fe1cdf265e0d75cdf2,626b377229c10585ec392f8a,626b3c6e17aabf30cec2b14b,,,,,,,,,,,,,,,,,,,,,,,l,1,"[""0.457"",""0.104"",""0.516"",""0.817""]","[0,1,1,1]",0,2,2,2,1,1,0,,,1,FALSE,1.0466,,,,,,,,,,,,,,,,,,,,,,,,,,,,,,
,5e3628fe1cdf265e0d75cdf2,001,2022-04-29_04h17.13.339,classification_task,2021.2.3,Win32,59.74429442,5e3628fe1cdf265e0d75cdf2,626b377229c10585ec392f8a,626b3c6e17aabf30cec2b14b,,,,,,,,,,,,,,,,,,,,,,,a,1,"[""0.324"",""0.553"",""0.780"",""0.412""]","[1,1,1,0]",0,3,3,3,1,0,1,,,1,FALSE,0.9131,,,,,,,,,,,,,,,,,,,,,,,,,,,,,,
,5e3628fe1cdf265e0d75cdf2,001,2022-04-29_04h17.13.339,classification_task,2021.2.3,Win32,59.74429442,5e3628fe1cdf265e0d75cdf2,626b377229c10585ec392f8a,626b3c6e17aabf30cec2b14b,,,,,,,,,,,,,,,,,,,,,,,a,1,"[""0.453"",""0.372"",""0.683"",""0.880""]","[0,1,1,1]",0,4,4,4,1,0,0,,,1,FALSE,1.1442,,,,,,,,,,,,,,,,,,,,,,,,,,,,,,
,5e3628fe1cdf265e0d75cdf2,001,2022-04-29_04h17.13.339,classification_task,2021.2.3,Win32,59.74429442,5e3628fe1cdf265e0d75cdf2,626b377229c10585ec392f8a,626b3c6e17aabf30cec2b14b,,,,,,,,,,,,,,,,,,,,,,,a,1,"[""0.324"",""0.553"",""0.457"",""0.956""]","[1,1,0,1]",0,5,5,5,1,0,1,,,1,FALSE,0.9951,,,,,,,,,,,,,,,,,,,,,,,,,,,,,,
,5e3628fe1cdf265e0d75cdf2,001,2022-04-29_04h17.13.339,classification_task,2021.2.3,Win32,59.74429442,5e3628fe1cdf265e0d75cdf2,626b377229c10585ec392f8a,626b3c6e17aabf30cec2b14b,,,,,,,,,,,,,,,,,,,,,,,l,1,"[""0.149"",""0.602"",""0.636"",""0.718""]","[1,0,1,1]",0,6,6,6,1,1,1,,,1,FALSE,1.0348,,,,,,,,,,,,,,,,,,,,,,,,,,,,,,
,5e3628fe1cdf265e0d75cdf2,001,2022-04-29_04h17.13.339,classification_task,2021.2.3,Win32,59.74429442,5e3628fe1cdf265e0d75cdf2,626b377229c10585ec392f8a,626b3c6e17aabf30cec2b14b,,,,,,,,,,,,,,,,,,,,,,,l,1,"[""0.060"",""0.104"",""0.516"",""0.188""]","[1,1,1,0]",0,7,7,7,1,1,0,,,1,FALSE,1.8164,,,,,,,,,,,,,,,,,,,,,,,,,,,,,,
,5e3628fe1cdf265e0d75cdf2,001,2022-04-29_04h17.13.339,classification_task,2021.2.3,Win32,59.74429442,5e3628fe1cdf265e0d75cdf2,626b377229c10585ec392f8a,626b3c6e17aabf30cec2b14b,,,,,,,,,,,,,,,,,,,,,,,l,1,"[""0.149"",""0.224"",""0.636"",""0.457""]","[1,1,1,0]",0,8,8,8,1,1,1,,,1,FALSE,1.2107,,,,,,,,,,,,,,,,,,,,,,,,,,,,,,
,5e3628fe1cdf265e0d75cdf2,001,2022-04-29_04h17.13.339,classification_task,2021.2.3,Win32,59.74429442,5e3628fe1cdf265e0d75cdf2,626b377229c10585ec392f8a,626b3c6e17aabf30cec2b14b,,,,,,,,,,,,,,,,,,,,,,,a,1,"[""0.274"",""0.457"",""0.683"",""0.880""]","[1,0,1,1]",0,9,9,9,1,0,0,,,1,FALSE,0.8491,,,,,,,,,,,,,,,,,,,,,,,,,,,,,,
,5e3628fe1cdf265e0d75cdf2,001,2022-04-29_04h17.13.339,classification_task,2021.2.3,Win32,59.74429442,5e3628fe1cdf265e0d75cdf2,626b377229c10585ec392f8a,626b3c6e17aabf30cec2b14b,,,,,,,,,,,,,,,,,,,,,,,l,1,"[""0.149"",""0.224"",""0.422"",""0.718""]","[1,1,0,1]",0,10,10,10,1,1,1,,,1,FALSE,0.9345,,,,,,,,,,,,,,,,,,,,,,,,,,,,,,
,5e3628fe1cdf265e0d75cdf2,001,2022-04-29_04h17.13.339,classification_task,2021.2.3,Win32,59.74429442,5e3628fe1cdf265e0d75cdf2,626b377229c10585ec392f8a,626b3c6e17aabf30cec2b14b,,,,,,,,,,,,,,,,,,,,,,,l,1,"[""0.060"",""0.104"",""0.185"",""0.817""]","[1,1,0,1]",0,11,11,11,1,1,0,,,1,FALSE,1.1008,,,,,,,,,,,,,,,,,,,,,,,,,,,,,,
,5e3628fe1cdf265e0d75cdf2,001,2022-04-29_04h17.13.339,classification_task,2021.2.3,Win32,59.74429442,5e3628fe1cdf265e0d75cdf2,626b377229c10585ec392f8a,626b3c6e17aabf30cec2b14b,,,,,,,,,,,,,,,,,,,,,,,a,1,"[""0.324"",""0.457"",""0.780"",""0.956""]","[1,0,1,1]",0,12,12,12,1,0,1,,,1,FALSE,0.7527,,,,,,,,,,,,,,,,,,,,,,,,,,,,,,
,5e3628fe1cdf265e0d75cdf2,001,2022-04-29_04h17.13.339,classification_task,2021.2.3,Win32,59.74429442,5e3628fe1cdf265e0d75cdf2,626b377229c10585ec392f8a,626b3c6e17aabf30cec2b14b,,,,,,,,,,,,,,,,,,,,,,,l,1,"[""0.060"",""0.475"",""0.516"",""0.817""]","[1,0,1,1]",0,13,13,13,1,1,0,,,1,FALSE,0.8977,,,,,,,,,,,,,,,,,,,,,,,,,,,,,,
,5e3628fe1cdf265e0d75cdf2,001,2022-04-29_04h17.13.339,classification_task,2021.2.3,Win32,59.74429442,5e3628fe1cdf265e0d75cdf2,626b377229c10585ec392f8a,626b3c6e17aabf30cec2b14b,,,,,,,,,,,,,,,,,,,,,,,a,1,"[""0.274"",""0.372"",""0.453"",""0.880""]","[1,1,0,1]",0,14,14,14,1,0,0,,,1,FALSE,0.9829,,,,,,,,,,,,,,,,,,,,,,,,,,,,,,
,5e3628fe1cdf265e0d75cdf2,001,2022-04-29_04h17.13.339,classification_task,2021.2.3,Win32,59.74429442,5e3628fe1cdf265e0d75cdf2,626b377229c10585ec392f8a,626b3c6e17aabf30cec2b14b,,,,,,,,,,,,,,,,,,,,,,,a,1,"[""0.274"",""0.372"",""0.683"",""0.475""]","[1,1,1,0]",0,15,15,15,1,0,0,,,1,FALSE,1.0393,,,,,,,,,,,,,,,,,,,,,,,,,,,,,,
,5e3628fe1cdf265e0d75cdf2,001,2022-04-29_04h17.13.339,classification_task,2021.2.3,Win32,59.74429442,5e3628fe1cdf265e0d75cdf2,626b377229c10585ec392f8a,626b3c6e17aabf30cec2b14b,,,,,,,,,,,,,,,,,,,,,,,a,1,"[""0.324"",""0.553"",""0.780"",""0.602""]","[1,1,1,0]",0,16,16,16,1,0,1,,,1,FALSE,1.0535,,,,,,,,,,,,,,,,,,,,,,,,,,,,,,
,5e3628fe1cdf265e0d75cdf2,001,2022-04-29_04h17.13.339,classification_task,2021.2.3,Win32,59.74429442,5e3628fe1cdf265e0d75cdf2,626b377229c10585ec392f8a,626b3c6e17aabf30cec2b14b,,,,,,,,,,,,,,,,,,,,,,,l,1,"[""0.149"",""0.457"",""0.636"",""0.718""]","[1,0,1,1]",0,17,17,17,1,1,1,,,1,FALSE,0.8003,,,,,,,,,,,,,,,,,,,,,,,,,,,,,,
,5e3628fe1cdf265e0d75cdf2,001,2022-04-29_04h17.13.339,classification_task,2021.2.3,Win32,59.74429442,5e3628fe1cdf265e0d75cdf2,626b377229c10585ec392f8a,626b3c6e17aabf30cec2b14b,,,,,,,,,,,,,,,,,,,,,,,a,1,"[""0.324"",""0.457"",""0.780"",""0.956""]","[1,0,1,1]",0,18,18,18,1,0,1,,,1,FALSE,0.9685,,,,,,,,,,,,,,,,,,,,,,,,,,,,,,
,5e3628fe1cdf265e0d75cdf2,001,2022-04-29_04h17.13.339,classification_task,2021.2.3,Win32,59.74429442,5e3628fe1cdf265e0d75cdf2,626b377229c10585ec392f8a,626b3c6e17aabf30cec2b14b,,,,,,,,,,,,,,,,,,,,,,,l,1,"[""0.060"",""0.104"",""0.590"",""0.817""]","[1,1,0,1]",0,19,19,19,1,1,0,,,1,FALSE,0.7043,,,,,,,,,,,,,,,,,,,,,,,,,,,,,,
,5e3628fe1cdf265e0d75cdf2,001,2022-04-29_04h17.13.339,classification_task,2021.2.3,Win32,59.74429442,5e3628fe1cdf265e0d75cdf2,626b377229c10585ec392f8a,626b3c6e17aabf30cec2b14b,,,,,,,,,,,,,,,,,,,,,,,a,1,"[""0.324"",""0.553"",""0.422"",""0.956""]","[1,1,0,1]",0,20,20,20,1,0,1,,,1,FALSE,0.8003,,,,,,,,,,,,,,,,,,,,,,,,,,,,,,
,5e3628fe1cdf265e0d75cdf2,001,2022-04-29_04h17.13.339,classification_task,2021.2.3,Win32,59.74429442,5e3628fe1cdf265e0d75cdf2,626b377229c10585ec392f8a,626b3c6e17aabf30cec2b14b,,,,,,,,,,,,,,,,,,,,,,,a,1,"[""0.274"",""0.372"",""0.683"",""0.453""]","[1,1,1,0]",0,21,21,21,1,0,0,,,1,FALSE,1.2864,,,,,,,,,,,,,,,,,,,,,,,,,,,,,,
,5e3628fe1cdf265e0d75cdf2,001,2022-04-29_04h17.13.339,classification_task,2021.2.3,Win32,59.74429442,5e3628fe1cdf265e0d75cdf2,626b377229c10585ec392f8a,626b3c6e17aabf30cec2b14b,,,,,,,,,,,,,,,,,,,,,,,a,1,"[""0.274"",""0.372"",""0.412"",""0.880""]","[1,1,0,1]",0,22,22,22,1,0,0,,,1,FALSE,0.8409,,,,,,,,,,,,,,,,,,,,,,,,,,,,,,
,5e3628fe1cdf265e0d75cdf2,001,2022-04-29_04h17.13.339,classification_task,2021.2.3,Win32,59.74429442,5e3628fe1cdf265e0d75cdf2,626b377229c10585ec392f8a,626b3c6e17aabf30cec2b14b,,,,,,,,,,,,,,,,,,,,,,,a,1,"[""0.440"",""0.553"",""0.780"",""0.956""]","[0,1,1,1]",0,23,23,23,1,0,1,,,1,FALSE,1.0922,,,,,,,,,,,,,,,,,,,,,,,,,,,,,,
,5e3628fe1cdf265e0d75cdf2,001,2022-04-29_04h17.13.339,classification_task,2021.2.3,Win32,59.74429442,5e3628fe1cdf265e0d75cdf2,626b377229c10585ec392f8a,626b3c6e17aabf30cec2b14b,,,,,,,,,,,,,,,,,,,,,,,l,1,"[""0.149"",""0.224"",""0.440"",""0.718""]","[1,1,0,1]",0,24,24,24,1,1,1,,,1,FALSE,0.7549,,,,,,,,,,,,,,,,,,,,,,,,,,,,,,
,5e3628fe1cdf265e0d75cdf2,001,2022-04-29_04h17.13.339,classification_task,2021.2.3,Win32,59.74429442,5e3628fe1cdf265e0d75cdf2,626b377229c10585ec392f8a,626b3c6e17aabf30cec2b14b,,,,,,,,,,,,,,,,,,,,,,,l,1,"[""0.060"",""0.453"",""0.516"",""0.817""]","[1,0,1,1]",0,25,25,25,1,1,0,,,1,FALSE,0.9541,,,,,,,,,,,,,,,,,,,,,,,,,,,,,,
,5e3628fe1cdf265e0d75cdf2,001,2022-04-29_04h17.13.339,classification_task,2021.2.3,Win32,59.74429442,5e3628fe1cdf265e0d75cdf2,626b377229c10585ec392f8a,626b3c6e17aabf30cec2b14b,,,,,,,,,,,,,,,,,,,,,,,a,1,"[""0.274"",""0.602"",""0.683"",""0.880""]","[1,0,1,1]",0,26,26,26,1,0,0,,,1,FALSE,0.932,,,,,,,,,,,,,,,,,,,,,,,,,,,,,,
,5e3628fe1cdf265e0d75cdf2,001,2022-04-29_04h17.13.339,classification_task,2021.2.3,Win32,59.74429442,5e3628fe1cdf265e0d75cdf2,626b377229c10585ec392f8a,626b3c6e17aabf30cec2b14b,,,,,,,,,,,,,,,,,,,,,,,l,1,"[""0.060"",""0.104"",""0.516"",""0.428""]","[1,1,1,0]",0,27,27,27,1,1,0,,,1,FALSE,0.9422,,,,,,,,,,,,,,,,,,,,,,,,,,,,,,
,5e3628fe1cdf265e0d75cdf2,001,2022-04-29_04h17.13.339,classification_task,2021.2.3,Win32,59.74429442,5e3628fe1cdf265e0d75cdf2,626b377229c10585ec392f8a,626b3c6e17aabf30cec2b14b,,,,,,,,,,,,,,,,,,,,,,,l,1,"[""0.149"",""0.224"",""0.636"",""0.591""]","[1,1,1,0]",0,28,28,28,1,1,1,,,1,FALSE,1.1229,,,,,,,,,,,,,,,,,,,,,,,,,,,,,,
,5e3628fe1cdf265e0d75cdf2,001,2022-04-29_04h17.13.339,classification_task,2021.2.3,Win32,59.74429442,5e3628fe1cdf265e0d75cdf2,626b377229c10585ec392f8a,626b3c6e17aabf30cec2b14b,,,,,,,,,,,,,,,,,,,,,,,a,0,"[""0.453"",""0.224"",""0.636"",""0.718""]","[0,1,1,1]",0,29,29,29,1,1,1,,,1,FALSE,1.1328,,,,,,,,,,,,,,,,,,,,,,,,,,,,,,
,5e3628fe1cdf265e0d75cdf2,001,2022-04-29_04h17.13.339,classification_task,2021.2.3,Win32,59.74429442,5e3628fe1cdf265e0d75cdf2,626b377229c10585ec392f8a,626b3c6e17aabf30cec2b14b,,,,,,,,,,,,,,,,,,,,,,,a,1,"[""0.188"",""0.372"",""0.683"",""0.880""]","[0,1,1,1]",0,30,30,30,1,0,0,,,1,FALSE,2.4448,,,,,,,,,,,,,,,,,,,,,,,,,,,,,,
,5e3628fe1cdf265e0d75cdf2,001,2022-04-29_04h17.13.339,classification_task,2021.2.3,Win32,59.74429442,5e3628fe1cdf265e0d75cdf2,626b377229c10585ec392f8a,626b3c6e17aabf30cec2b14b,,,,,,,,,,,,,,,,,,,,,,,l,1,"[""0.481"",""0.104"",""0.516"",""0.817""]","[0,1,1,1]",0,31,31,31,1,1,0,,,1,FALSE,0.9253,,,,,,,,,,,,,,,,,,,,,,,,,,,,,,
,5e3628fe1cdf265e0d75cdf2,001,2022-04-29_04h17.13.339,classification_task,2021.2.3,Win32,59.74429442,5e3628fe1cdf265e0d75cdf2,626b377229c10585ec392f8a,626b3c6e17aabf30cec2b14b,,,,,,,,,,,,,,,,,,,,,,,a,1,"[""0.274"",""0.372"",""0.188"",""0.880""]","[1,1,0,1]",0,32,32,32,1,0,0,,,1,FALSE,1.227,,,,,,,,,,,,,,,,,,,,,,,,,,,,,,
,5e3628fe1cdf265e0d75cdf2,001,2022-04-29_04h17.13.339,classification_task,2021.2.3,Win32,59.74429442,5e3628fe1cdf265e0d75cdf2,626b377229c10585ec392f8a,626b3c6e17aabf30cec2b14b,,,,,,,,,,,,,,,,,,,,,,,l,1,"[""0.149"",""0.224"",""0.636"",""0.475""]","[1,1,1,0]",0,33,33,33,1,1,1,,,1,FALSE,1.0035,,,,,,,,,,,,,,,,,,,,,,,,,,,,,,
,5e3628fe1cdf265e0d75cdf2,001,2022-04-29_04h17.13.339,classification_task,2021.2.3,Win32,59.74429442,5e3628fe1cdf265e0d75cdf2,626b377229c10585ec392f8a,626b3c6e17aabf30cec2b14b,,,,,,,,,,,,,,,,,,,,,,,a,1,"[""0.481"",""0.372"",""0.683"",""0.880""]","[0,1,1,1]",0,34,34,34,1,0,0,,,1,FALSE,0.963,,,,,,,,,,,,,,,,,,,,,,,,,,,,,,
,5e3628fe1cdf265e0d75cdf2,001,2022-04-29_04h17.13.339,classification_task,2021.2.3,Win32,59.74429442,5e3628fe1cdf265e0d75cdf2,626b377229c10585ec392f8a,626b3c6e17aabf30cec2b14b,,,,,,,,,,,,,,,,,,,,,,,l,1,"[""0.060"",""0.104"",""0.516"",""0.594""]","[1,1,1,0]",0,35,35,35,1,1,0,,,1,FALSE,0.8284,,,,,,,,,,,,,,,,,,,,,,,,,,,,,,
,5e3628fe1cdf265e0d75cdf2,001,2022-04-29_04h17.13.339,classification_task,2021.2.3,Win32,59.74429442,5e3628fe1cdf265e0d75cdf2,626b377229c10585ec392f8a,626b3c6e17aabf30cec2b14b,,,,,,,,,,,,,,,,,,,,,,,l,1,"[""0.149"",""0.224"",""0.481"",""0.718""]","[1,1,0,1]",0,36,36,36,1,1,1,,,1,FALSE,1.5442,,,,,,,,,,,,,,,,,,,,,,,,,,,,,,
,5e3628fe1cdf265e0d75cdf2,001,2022-04-29_04h17.13.339,classification_task,2021.2.3,Win32,59.74429442,5e3628fe1cdf265e0d75cdf2,626b377229c10585ec392f8a,626b3c6e17aabf30cec2b14b,,,,,,,,,,,,,,,,,,,,,,,l,1,"[""0.149"",""0.467"",""0.636"",""0.718""]","[1,0,1,1]",0,37,37,37,1,1,1,,,1,FALSE,0.7822,,,,,,,,,,,,,,,,,,,,,,,,,,,,,,
,5e3628fe1cdf265e0d75cdf2,001,2022-04-29_04h17.13.339,classification_task,2021.2.3,Win32,59.74429442,5e3628fe1cdf265e0d75cdf2,626b377229c10585ec392f8a,626b3c6e17aabf30cec2b14b,,,,,,,,,,,,,,,,,,,,,,,a,1,"[""0.430"",""0.553"",""0.780"",""0.956""]","[0,1,1,1]",0,38,38,38,1,0,1,,,1,FALSE,1.149,,,,,,,,,,,,,,,,,,,,,,,,,,,,,,
,5e3628fe1cdf265e0d75cdf2,001,2022-04-29_04h17.13.339,classification_task,2021.2.3,Win32,59.74429442,5e3628fe1cdf265e0d75cdf2,626b377229c10585ec392f8a,626b3c6e17aabf30cec2b14b,,,,,,,,,,,,,,,,,,,,,,,a,1,"[""0.324"",""0.467"",""0.780"",""0.956""]","[1,0,1,1]",0,39,39,39,1,0,1,,,1,FALSE,1.0496,,,,,,,,,,,,,,,,,,,,,,,,,,,,,,
,5e3628fe1cdf265e0d75cdf2,001,2022-04-29_04h17.13.339,classification_task,2021.2.3,Win32,59.74429442,5e3628fe1cdf265e0d75cdf2,626b377229c10585ec392f8a,626b3c6e17aabf30cec2b14b,,,,,,,,,,,,,,,,,,,,,,,l,1,"[""0.060"",""0.104"",""0.440"",""0.817""]","[1,1,0,1]",0,40,40,40,1,1,0,,,1,FALSE,1.1535,,,,,,,,,,,,,,,,,,,,,,,,,,,,,,
,5e3628fe1cdf265e0d75cdf2,001,2022-04-29_04h17.13.339,classification_task,2021.2.3,Win32,59.74429442,5e3628fe1cdf265e0d75cdf2,626b377229c10585ec392f8a,626b3c6e17aabf30cec2b14b,,,,,,,,,,,,,,,,,,,,,,,l,1,"[""0.060"",""0.428"",""0.516"",""0.817""]","[1,0,1,1]",0,41,41,41,1,1,0,,,1,FALSE,0.7211,,,,,,,,,,,,,,,,,,,,,,,,,,,,,,
,5e3628fe1cdf265e0d75cdf2,001,2022-04-29_04h17.13.339,classification_task,2021.2.3,Win32,59.74429442,5e3628fe1cdf265e0d75cdf2,626b377229c10585ec392f8a,626b3c6e17aabf30cec2b14b,,,,,,,,,,,,,,,,,,,,,,,a,1,"[""0.324"",""0.553"",""0.467"",""0.956""]","[1,1,0,1]",0,42,42,42,1,0,1,,,1,FALSE,0.9885,,,,,,,,,,,,,,,,,,,,,,,,,,,,,,
,5e3628fe1cdf265e0d75cdf2,001,2022-04-29_04h17.13.339,classification_task,2021.2.3,Win32,59.74429442,5e3628fe1cdf265e0d75cdf2,626b377229c10585ec392f8a,626b3c6e17aabf30cec2b14b,,,,,,,,,,,,,,,,,,,,,,,a,1,"[""0.324"",""0.553"",""0.780"",""0.428""]","[1,1,1,0]",0,43,43,43,1,0,1,,,1,FALSE,0.7167,,,,,,,,,,,,,,,,,,,,,,,,,,,,,,
,5e3628fe1cdf265e0d75cdf2,001,2022-04-29_04h17.13.339,classification_task,2021.2.3,Win32,59.74429442,5e3628fe1cdf265e0d75cdf2,626b377229c10585ec392f8a,626b3c6e17aabf30cec2b14b,,,,,,,,,,,,,,,,,,,,,,,a,1,"[""0.274"",""0.430"",""0.683"",""0.880""]","[1,0,1,1]",0,44,44,44,1,0,0,,,1,FALSE,1.1925,,,,,,,,,,,,,,,,,,,,,,,,,,,,,,
,5e3628fe1cdf265e0d75cdf2,001,2022-04-29_04h17.13.339,classification_task,2021.2.3,Win32,59.74429442,5e3628fe1cdf265e0d75cdf2,626b377229c10585ec392f8a,626b3c6e17aabf30cec2b14b,,,,,,,,,,,,,,,,,,,,,,,a,1,"[""0.274"",""0.372"",""0.683"",""0.481""]","[1,1,1,0]",0,45,45,45,1,0,0,,,1,FALSE,0.885,,,,,,,,,,,,,,,,,,,,,,,,,,,,,,
,5e3628fe1cdf265e0d75cdf2,001,2022-04-29_04h17.13.339,classification_task,2021.2.3,Win32,59.74429442,5e3628fe1cdf265e0d75cdf2,626b377229c10585ec392f8a,626b3c6e17aabf30cec2b14b,,,,,,,,,,,,,,,,,,,,,,,a,0,"[""0.430"",""0.224"",""0.636"",""0.718""]","[0,1,1,1]",0,46,46,46,1,1,1,,,1,FALSE,1.2341,,,,,,,,,,,,,,,,,,,,,,,,,,,,,,
,5e3628fe1cdf265e0d75cdf2,001,2022-04-29_04h17.13.339,classification_task,2021.2.3,Win32,59.74429442,5e3628fe1cdf265e0d75cdf2,626b377229c10585ec392f8a,626b3c6e17aabf30cec2b14b,,,,,,,,,,,,,,,,,,,,,,,l,1,"[""0.475"",""0.104"",""0.516"",""0.817""]","[0,1,1,1]",0,47,47,47,1,1,0,,,1,FALSE,0.8827,,,,,,,,,,,,,,,,,,,,,,,,,,,,,,
,5e3628fe1cdf265e0d75cdf2,001,2022-04-29_04h17.13.339,classification_task,2021.2.3,Win32,59.74429442,5e3628fe1cdf265e0d75cdf2,626b377229c10585ec392f8a,626b3c6e17aabf30cec2b14b,,,,,,,,,,,,,,,,,,,,,,,l,1,"[""0.149"",""0.590"",""0.636"",""0.718""]","[1,0,1,1]",0,48,48,48,1,1,1,,,1,FALSE,0.8219,,,,,,,,,,,,,,,,,,,,,,,,,,,,,,
,5e3628fe1cdf265e0d75cdf2,001,2022-04-29_04h17.13.339,classification_task,2021.2.3,Win32,59.74429442,5e3628fe1cdf265e0d75cdf2,626b377229c10585ec392f8a,626b3c6e17aabf30cec2b14b,,,,,,,,,,,,,,,,,,,,,,,l,1,"[""0.412"",""0.104"",""0.516"",""0.817""]","[0,1,1,1]",0,49,49,49,1,1,0,,,1,FALSE,0.9654,,,,,,,,,,,,,,,,,,,,,,,,,,,,,,
,5e3628fe1cdf265e0d75cdf2,001,2022-04-29_04h17.13.339,classification_task,2021.2.3,Win32,59.74429442,5e3628fe1cdf265e0d75cdf2,626b377229c10585ec392f8a,626b3c6e17aabf30cec2b14b,,,,,,,,,,,,,,,,,,,,,,,l,1,"[""0.060"",""0.104"",""0.412"",""0.817""]","[1,1,0,1]",0,50,50,50,1,1,0,,,1,FALSE,0.9667,,,,,,,,,,,,,,,,,,,,,,,,,,,,,,
,5e3628fe1cdf265e0d75cdf2,001,2022-04-29_04h17.13.339,classification_task,2021.2.3,Win32,59.74429442,5e3628fe1cdf265e0d75cdf2,626b377229c10585ec392f8a,626b3c6e17aabf30cec2b14b,,,,,,,,,,,,,,,,,,,,,,,l,1,"[""0.060"",""0.104"",""0.516"",""0.591""]","[1,1,1,0]",0,51,51,51,1,1,0,,,1,FALSE,0.7839,,,,,,,,,,,,,,,,,,,,,,,,,,,,,,
,5e3628fe1cdf265e0d75cdf2,001,2022-04-29_04h17.13.339,classification_task,2021.2.3,Win32,59.74429442,5e3628fe1cdf265e0d75cdf2,626b377229c10585ec392f8a,626b3c6e17aabf30cec2b14b,,,,,,,,,,,,,,,,,,,,,,,l,1,"[""0.149"",""0.224"",""0.457"",""0.718""]","[1,1,0,1]",0,52,52,52,1,1,1,,,1,FALSE,0.9995,,,,,,,,,,,,,,,,,,,,,,,,,,,,,,
,5e3628fe1cdf265e0d75cdf2,001,2022-04-29_04h17.13.339,classification_task,2021.2.3,Win32,59.74429442,5e3628fe1cdf265e0d75cdf2,626b377229c10585ec392f8a,626b3c6e17aabf30cec2b14b,,,,,,,,,,,,,,,,,,,,,,,a,1,"[""0.324"",""0.467"",""0.780"",""0.956""]","[1,0,1,1]",0,53,53,53,1,0,1,,,1,FALSE,1.0147,,,,,,,,,,,,,,,,,,,,,,,,,,,,,,
,5e3628fe1cdf265e0d75cdf2,001,2022-04-29_04h17.13.339,classification_task,2021.2.3,Win32,59.74429442,5e3628fe1cdf265e0d75cdf2,626b377229c10585ec392f8a,626b3c6e17aabf30cec2b14b,,,,,,,,,,,,,,,,,,,,,,,l,1,"[""0.060"",""0.188"",""0.516"",""0.817""]","[1,0,1,1]",0,54,54,54,1,1,0,,,1,FALSE,0.833,,,,,,,,,,,,,,,,,,,,,,,,,,,,,,
,5e3628fe1cdf265e0d75cdf2,001,2022-04-29_04h17.13.339,classification_task,2021.2.3,Win32,59.74429442,5e3628fe1cdf265e0d75cdf2,626b377229c10585ec392f8a,626b3c6e17aabf30cec2b14b,,,,,,,,,,,,,,,,,,,,,,,a,1,"[""0.324"",""0.553"",""0.422"",""0.956""]","[1,1,0,1]",0,55,55,55,1,0,1,,,1,FALSE,0.7185,,,,,,,,,,,,,,,,,,,,,,,,,,,,,,
,5e3628fe1cdf265e0d75cdf2,001,2022-04-29_04h17.13.339,classification_task,2021.2.3,Win32,59.74429442,5e3628fe1cdf265e0d75cdf2,626b377229c10585ec392f8a,626b3c6e17aabf30cec2b14b,,,,,,,,,,,,,,,,,,,,,,,a,1,"[""0.481"",""0.372"",""0.683"",""0.880""]","[0,1,1,1]",0,56,56,56,1,0,0,,,1,FALSE,0.9863,,,,,,,,,,,,,,,,,,,,,,,,,,,,,,
,5e3628fe1cdf265e0d75cdf2,001,2022-04-29_04h17.13.339,classification_task,2021.2.3,Win32,59.74429442,5e3628fe1cdf265e0d75cdf2,626b377229c10585ec392f8a,626b3c6e17aabf30cec2b14b,,,,,,,,,,,,,,,,,,,,,,,l,1,"[""0.149"",""0.224"",""0.636"",""0.453""]","[1,1,1,0]",0,57,57,57,1,1,1,,,1,FALSE,1.0325,,,,,,,,,,,,,,,,,,,,,,,,,,,,,,
,5e3628fe1cdf265e0d75cdf2,001,2022-04-29_04h17.13.339,classification_task,2021.2.3,Win32,59.74429442,5e3628fe1cdf265e0d75cdf2,626b377229c10585ec392f8a,626b3c6e17aabf30cec2b14b,,,,,,,,,,,,,,,,,,,,,,,a,0,"[""0.475"",""0.224"",""0.636"",""0.718""]","[0,1,1,1]",0,58,58,58,1,1,1,,,1,FALSE,1.2318,,,,,,,,,,,,,,,,,,,,,,,,,,,,,,
,5e3628fe1cdf265e0d75cdf2,001,2022-04-29_04h17.13.339,classification_task,2021.2.3,Win32,59.74429442,5e3628fe1cdf265e0d75cdf2,626b377229c10585ec392f8a,626b3c6e17aabf30cec2b14b,,,,,,,,,,,,,,,,,,,,,,,a,1,"[""0.274"",""0.372"",""0.428"",""0.880""]","[1,1,0,1]",0,59,59,59,1,0,0,,,1,FALSE,0.916,,,,,,,,,,,,,,,,,,,,,,,,,,,,,,
,5e3628fe1cdf265e0d75cdf2,001,2022-04-29_04h17.13.339,classification_task,2021.2.3,Win32,59.74429442,5e3628fe1cdf265e0d75cdf2,626b377229c10585ec392f8a,626b3c6e17aabf30cec2b14b,,,,,,,,,,,,,,,,,,,,,,,a,1,"[""0.274"",""0.430"",""0.683"",""0.880""]","[1,0,1,1]",0,60,60,60,1,0,0,,,1,FALSE,1.0346,,,,,,,,,,,,,,,,,,,,,,,,,,,,,,
,5e3628fe1cdf265e0d75cdf2,001,2022-04-29_04h17.13.339,classification_task,2021.2.3,Win32,59.74429442,5e3628fe1cdf265e0d75cdf2,626b377229c10585ec392f8a,626b3c6e17aabf30cec2b14b,,,,,,,,,,,,,,,,,,,,,,,l,0,"[""0.185"",""0.553"",""0.780"",""0.956""]","[0,1,1,1]",0,61,61,61,1,0,1,,,1,FALSE,1.9649,,,,,,,,,,,,,,,,,,,,,,,,,,,,,,
,5e3628fe1cdf265e0d75cdf2,001,2022-04-29_04h17.13.339,classification_task,2021.2.3,Win32,59.74429442,5e3628fe1cdf265e0d75cdf2,626b377229c10585ec392f8a,626b3c6e17aabf30cec2b14b,,,,,,,,,,,,,,,,,,,,,,,a,1,"[""0.274"",""0.372"",""0.683"",""0.602""]","[1,1,1,0]",0,62,62,62,1,0,0,,,1,FALSE,1.0775,,,,,,,,,,,,,,,,,,,,,,,,,,,,,,
,5e3628fe1cdf265e0d75cdf2,001,2022-04-29_04h17.13.339,classification_task,2021.2.3,Win32,59.74429442,5e3628fe1cdf265e0d75cdf2,626b377229c10585ec392f8a,626b3c6e17aabf30cec2b14b,,,,,,,,,,,,,,,,,,,,,,,a,1,"[""0.324"",""0.553"",""0.780"",""0.602""]","[1,1,1,0]",0,63,63,63,1,0,1,,,1,FALSE,0.8995,,,,,,,,,,,,,,,,,,,,,,,,,,,,,,
,5e3628fe1cdf265e0d75cdf2,001,2022-04-29_04h17.13.339,classification_task,2021.2.3,Win32,59.74429442,5e3628fe1cdf265e0d75cdf2,626b377229c10585ec392f8a,626b3c6e17aabf30cec2b14b,,,,,,,,,,,,,,,,,,,,,,,,,,,,,,,,,,,,,,,0, ,,0,1.55227392,147.5363,0,2,2,2,1,2,3,,,,,,,,,,,,,,,,,
,5e3628fe1cdf265e0d75cdf2,001,2022-04-29_04h17.13.339,classification_task,2021.2.3,Win32,59.74429442,5e3628fe1cdf265e0d75cdf2,626b377229c10585ec392f8a,626b3c6e17aabf30cec2b14b,,,,,,,,,,,,,,,,,,,,,,,,,,,,,,,,,,,,,,,1,  ,,0,5.104106176,149.8502,0,2,2,2,1,2,3,,,,,,,,,,,,,,,,,
,5e3628fe1cdf265e0d75cdf2,001,2022-04-29_04h17.13.339,classification_task,2021.2.3,Win32,59.74429442,5e3628fe1cdf265e0d75cdf2,626b377229c10585ec392f8a,626b3c6e17aabf30cec2b14b,,,,,,,,,,,,,,,,,,,,,,,,,,,,,,,,,,,,,,,2,  ,,0,1.723740937,151.0323,0,2,2,2,1,2,3,,,,,,,,,,,,,,,,,
,5e3628fe1cdf265e0d75cdf2,001,2022-04-29_04h17.13.339,classification_task,2021.2.3,Win32,59.74429442,5e3628fe1cdf265e0d75cdf2,626b377229c10585ec392f8a,626b3c6e17aabf30cec2b14b,,,,,,,,,,,,,,,,,,,,,,,,,,,,,,,,,,,,,,,,,,,,,0,2,2,2,1,,3,,,,,,,,,,,,,,,,,
,5e3628fe1cdf265e0d75cdf2,001,2022-04-29_04h17.13.339,classification_task,2021.2.3,Win32,59.74429442,5e3628fe1cdf265e0d75cdf2,626b377229c10585ec392f8a,626b3c6e17aabf30cec2b14b,,,,,,,,,,,,,,,,,,,,,,,,,,,,,,,,,,,,,,,,,,,,,,,,,,,,,I believe the aid is a competent performer,,0.7,0,3,829.5878,0,0,0,0,1,0,,,,
,5e3628fe1cdf265e0d75cdf2,001,2022-04-29_04h17.13.339,classification_task,2021.2.3,Win32,59.74429442,5e3628fe1cdf265e0d75cdf2,626b377229c10585ec392f8a,626b3c6e17aabf30cec2b14b,,,,,,,,,,,,,,,,,,,,,,,,,,,,,,,,,,,,,,,,,,,,,,,,,,,,,I trust the aid,,0.7,0,4,837.1698,0,0,0,0,1,0,,,,
,5e3628fe1cdf265e0d75cdf2,001,2022-04-29_04h17.13.339,classification_task,2021.2.3,Win32,59.74429442,5e3628fe1cdf265e0d75cdf2,626b377229c10585ec392f8a,626b3c6e17aabf30cec2b14b,,,,,,,,,,,,,,,,,,,,,,,,,,,,,,,,,,,,,,,,,,,,,,,,,,,,,I have confidence in the advice given by the aid,,0.7,0,3,842.3378,0,0,0,0,1,0,,,,
,5e3628fe1cdf265e0d75cdf2,001,2022-04-29_04h17.13.339,classification_task,2021.2.3,Win32,59.74429442,5e3628fe1cdf265e0d75cdf2,626b377229c10585ec392f8a,626b3c6e17aabf30cec2b14b,,,,,,,,,,,,,,,,,,,,,,,,,,,,,,,,,,,,,,,,,,,,,,,,,,,,,I can depend on the aid,,0.7,0,3,845.2366,0,0,0,0,1,0,,,,
,5e3628fe1cdf265e0d75cdf2,001,2022-04-29_04h17.13.339,classification_task,2021.2.3,Win32,59.74429442,5e3628fe1cdf265e0d75cdf2,626b377229c10585ec392f8a,626b3c6e17aabf30cec2b14b,,,,,,,,,,,,,,,,,,,,,,,,,,,,,,,,,,,,,,,,,,,,,,,,,,,,,I can rely on the aid to behave in consistent ways,,0.7,0,3,849.8876,0,0,0,0,1,0,,,,
,5e3628fe1cdf265e0d75cdf2,001,2022-04-29_04h17.13.339,classification_task,2021.2.3,Win32,59.74429442,5e3628fe1cdf265e0d75cdf2,626b377229c10585ec392f8a,626b3c6e17aabf30cec2b14b,,,,,,,,,,,,,,,,,,,,,,,,,,,,,,,,,,,,,,,,,,,,,,,,,,,,,I can rely on the aid to do its best every time I take its advice,,0.7,0,3,855.2351,0,0,0,0,1,0,,,,
,5e3628fe1cdf265e0d75cdf2,001,2022-04-29_04h17.13.339,classification_task,2021.2.3,Win32,59.74429442,5e3628fe1cdf265e0d75cdf2,626b377229c10585ec392f8a,626b3c6e17aabf30cec2b14b,,,,,,,,,,,,,,,,,,,,,,,,,,,,,,,,,,,,,,,,,,,,,,,,,,,,,"On trials you completed with assistance from the aid, how frequently did you think the aid was correct?",,0.7,0,90%,,0,0,0,0,1,0,,,,
,5e3628fe1cdf265e0d75cdf2,001,2022-04-29_04h17.13.339,classification_task,2021.2.3,Win32,59.74429442,5e3628fe1cdf265e0d75cdf2,626b377229c10585ec392f8a,626b3c6e17aabf30cec2b14b,,,,,,,,,,,,,,,,,,,,,,,,,,,,,,,,,,,,,,,,,,,,,,,,,,,,,"On trials you completed without the aid, how frequently did you think you were correct?",,0.7,0,90%,,0,0,0,0,1,0,,,,
,5e3628fe1cdf265e0d75cdf2,001,2022-04-29_04h17.13.339,classification_task,2021.2.3,Win32,59.74429442,5e3628fe1cdf265e0d75cdf2,626b377229c10585ec392f8a,626b3c6e17aabf30cec2b14b,,,,,,,,,,,,,,,,,,,,,,,,,,,,,,,,,,,,,,,,,,,,,,,,,,,,,,,,,,,0,0,0,0,1,,,,,
,5e3628fe1cdf265e0d75cdf2,001,2022-04-29_04h17.13.339,classification_task,2021.2.3,Win32,59.74429442,5e3628fe1cdf265e0d75cdf2,626b377229c10585ec392f8a,626b3c6e17aabf30cec2b14b,,,,,,,,,,,,,,,,,,,,,,,,,,,,,,,,,,,,,,,,,,,,,,,,,,,,,,,,,,,,,,,,,space,13.1652,897.8176,
,5e3628fe1cdf265e0d75cdf2,001,2022-04-29_04h17.13.339,classification_task,2021.2.3,Win32,59.74429442,5e3628fe1cdf265e0d75cdf2,626b377229c10585ec392f8a,626b3c6e17aabf30cec2b14b,,,,,,,,,,,,,,,,,,,,,,,,,,,,,,,,,,,,,,,,,,,,,,,,,,,,,,,,,,,,,,,,,,,,"Mozilla/5.0 (Windows NT 10.0; Win64; x64) AppleWebKit/537.36 (KHTML, like Gecko) Chrome/100.0.4896.88 Safari/537.36"
