usingWebGL,participant,session,date,expName,psychopyVersion,OS,frameRate,PROLIFIC_PID,STUDY_ID,SESSION_ID,signatures_friend,signatures_foe,band_ranges_top,band_ranges_bottom,formitemText,formtype,formundefined,formitemWidth,formindex,formresponse,formrt,key_resp_2.keys,key_resp_2.rt,tute_resp.keys,tute_resp.rt,tutorial.thisRepN,tutorial.thisTrialN,tutorial.thisN,tutorial.thisIndex,tutorial.ran,key_resp_4.keys,key_resp_4.rt,key_resp.keys,key_resp.corr,key_resp.rt,lines_presented,is_signal_presented,trials.thisRepN,trials.thisTrialN,trials.thisN,trials.thisIndex,trials.ran,vessel,active_band,lines,is_signal,supported_pos,catch_trial,debrief_formindex,debrief_formitemText,debrief_formtype,debrief_formitemWidth,debrief_formresponse,debrief_formrt,phases.thisRepN,phases.thisTrialN,phases.thisN,phases.thisIndex,phases.ran,phases.order,phase,key_resp_3.keys,trustitemText,trusttype,trustitemWidth,trustindex,trustresponse,trustrt,support_status.thisRepN,support_status.thisTrialN,support_status.thisN,support_status.thisIndex,support_status.ran,support_status.order,key_resp_5.keys,key_resp_5.rt,globalClockTime,userAgent
TRUE,5e3e11a36a0b8a000c609d5e,001,2022-04-28_20h10.21.187,classification_task,2021.2.3,Win32,59.99520038,5e3e11a36a0b8a000c609d5e,626b377229c10585ec392f89,626b3ab23d49090b081d6454,,,,,,,,,,,,,,,,,,,,,,,,,,,,,,,,,,,,,,,,,,,,,,,,,,,,,,,,,,,,,,,,,,,,
,5e3e11a36a0b8a000c609d5e,001,2022-04-28_20h10.21.187,classification_task,2021.2.3,Win32,59.99520038,5e3e11a36a0b8a000c609d5e,626b377229c10585ec392f89,626b3ab23d49090b081d6454,"[[""0.183"",""0.432"",""0.617"",""0.892""],[""0.216"",""0.347"",""0.723"",""0.957""]]","[[""0.060"",""0.298"",""0.667"",""0.837""],[""0.100"",""0.249"",""0.515"",""0.802""]]","[1,10]","[100,1000]",Video game experience,,,0.7,0,,,,,,,,,,,,,,,,,,,,,,,,,,,,,,,,,,,,,,,,,,,,,,,,,,,,,,,,,,,
,5e3e11a36a0b8a000c609d5e,001,2022-04-28_20h10.21.187,classification_task,2021.2.3,Win32,59.99520038,5e3e11a36a0b8a000c609d5e,626b377229c10585ec392f89,626b3ab23d49090b081d6454,,,,,Approximately how many hours did you spend playing video games in the last week?,,,0.7,0,5,,,,,,,,,,,,,,,,,,,,,,,,,,,,,,,,,,,,,,,,,,,,,,,,,,,,,,,,,,
,5e3e11a36a0b8a000c609d5e,001,2022-04-28_20h10.21.187,classification_task,2021.2.3,Win32,59.99520038,5e3e11a36a0b8a000c609d5e,626b377229c10585ec392f89,626b3ab23d49090b081d6454,,,,,"Which game did you play the most this year? (Enter ""None"" if you didn't play any)",,,0.7,0,Legend of mana,,,,,,,,,,,,,,,,,,,,,,,,,,,,,,,,,,,,,,,,,,,,,,,,,,,,,,,,,,
,5e3e11a36a0b8a000c609d5e,001,2022-04-28_20h10.21.187,classification_task,2021.2.3,Win32,59.99520038,5e3e11a36a0b8a000c609d5e,626b377229c10585ec392f89,626b3ab23d49090b081d6454,,,,,Visual perception,,,0.7,0,,,,,,,,,,,,,,,,,,,,,,,,,,,,,,,,,,,,,,,,,,,,,,,,,,,,,,,,,,,
,5e3e11a36a0b8a000c609d5e,001,2022-04-28_20h10.21.187,classification_task,2021.2.3,Win32,59.99520038,5e3e11a36a0b8a000c609d5e,626b377229c10585ec392f89,626b3ab23d49090b081d6454,,,,,Do you have any form of color blindness?,,,0.7,0,No,84.7185,,,,,,,,,,,,,,,,,,,,,,,,,,,,,,,,,,,,,,,,,,,,,,,,,,,,,,,,,
,5e3e11a36a0b8a000c609d5e,001,2022-04-28_20h10.21.187,classification_task,2021.2.3,Win32,59.99520038,5e3e11a36a0b8a000c609d5e,626b377229c10585ec392f89,626b3ab23d49090b081d6454,,,,,Do you use software to change the colour temperature of your screen (e.g. f.lux)?,,,0.7,0,No,86.6431,,,,,,,,,,,,,,,,,,,,,,,,,,,,,,,,,,,,,,,,,,,,,,,,,,,,,,,,,
,5e3e11a36a0b8a000c609d5e,001,2022-04-28_20h10.21.187,classification_task,2021.2.3,Win32,59.99520038,5e3e11a36a0b8a000c609d5e,626b377229c10585ec392f89,626b3ab23d49090b081d6454,,,,,,,,,,,,space,71.8184,space,11.5232,0,0,0,0,1,,,,,,,,,,,,,,,,,,,,,,,,,,,,,,,,,,,,,,,,,,,,,,,,
,5e3e11a36a0b8a000c609d5e,001,2022-04-28_20h10.21.187,classification_task,2021.2.3,Win32,59.99520038,5e3e11a36a0b8a000c609d5e,626b377229c10585ec392f89,626b3ab23d49090b081d6454,,,,,,,,,,,,,,space,7.8167,1,0,1,0,1,,,,,,,,,,,,,,,,,,,,,,,,,,,,,,,,,,,,,,,,,,,,,,,,
,5e3e11a36a0b8a000c609d5e,001,2022-04-28_20h10.21.187,classification_task,2021.2.3,Win32,59.99520038,5e3e11a36a0b8a000c609d5e,626b377229c10585ec392f89,626b3ab23d49090b081d6454,,,,,,,,,,,,,,space,68.8383,2,0,2,0,1,,,,,,,,,,,,,,,,,,,,,,,,,,,,,,,,,,,,,,,,,,,,,,,,
,5e3e11a36a0b8a000c609d5e,001,2022-04-28_20h10.21.187,classification_task,2021.2.3,Win32,59.99520038,5e3e11a36a0b8a000c609d5e,626b377229c10585ec392f89,626b3ab23d49090b081d6454,,,,,,,,,,,,,,space,7.9421,3,0,3,0,1,,,,,,,,,,,,,,,,,,,,,,,,,,,,,,,,,,,,,,,,,,,,,,,,
,5e3e11a36a0b8a000c609d5e,001,2022-04-28_20h10.21.187,classification_task,2021.2.3,Win32,59.99520038,5e3e11a36a0b8a000c609d5e,626b377229c10585ec392f89,626b3ab23d49090b081d6454,,,,,,,,,,,,,,space,156.9375,4,0,4,0,1,,,,,,,,,,,,,,,,,,,,,,,,,,,,,,,,,,,,,,,,,,,,,,,,
,5e3e11a36a0b8a000c609d5e,001,2022-04-28_20h10.21.187,classification_task,2021.2.3,Win32,59.99520038,5e3e11a36a0b8a000c609d5e,626b377229c10585ec392f89,626b3ab23d49090b081d6454,,,,,,,,,,,,,,,,,,,,,space,53.9952,a,1,8.0207,"[""0.183"",""0.432"",""0.471"",""0.892""]","[1,1,0,1]",0,0,0,0,1,0,0,,,0,FALSE,,,,,,,,,,,,,,,,,,,,,,,,,,,,,,
,5e3e11a36a0b8a000c609d5e,001,2022-04-28_20h10.21.187,classification_task,2021.2.3,Win32,59.99520038,5e3e11a36a0b8a000c609d5e,626b377229c10585ec392f89,626b3ab23d49090b081d6454,,,,,,,,,,,,,,,,,,,,,,,,0,,"[""0.766"",""0.347"",""0.723"",""0.957""]","[0,1,1,1]",0,1,1,1,1,0,1,,,0,FALSE,,,,,,,,,,,,,,,,,,,,,,,,,,,,,,
,5e3e11a36a0b8a000c609d5e,001,2022-04-28_20h10.21.187,classification_task,2021.2.3,Win32,59.99520038,5e3e11a36a0b8a000c609d5e,626b377229c10585ec392f89,626b3ab23d49090b081d6454,,,,,,,,,,,,,,,,,,,,,,,l,1,7.8048,"[""0.471"",""0.298"",""0.667"",""0.837""]","[0,1,1,1]",0,2,2,2,1,1,0,,,0,FALSE,,,,,,,,,,,,,,,,,,,,,,,,,,,,,,
,5e3e11a36a0b8a000c609d5e,001,2022-04-28_20h10.21.187,classification_task,2021.2.3,Win32,59.99520038,5e3e11a36a0b8a000c609d5e,626b377229c10585ec392f89,626b3ab23d49090b081d6454,,,,,,,,,,,,,,,,,,,,,,,a,1,7.0475,"[""0.183"",""0.568"",""0.617"",""0.892""]","[1,0,1,1]",0,3,3,3,1,0,0,,,0,FALSE,,,,,,,,,,,,,,,,,,,,,,,,,,,,,,
,5e3e11a36a0b8a000c609d5e,001,2022-04-28_20h10.21.187,classification_task,2021.2.3,Win32,59.99520038,5e3e11a36a0b8a000c609d5e,626b377229c10585ec392f89,626b3ab23d49090b081d6454,,,,,,,,,,,,,,,,,,,,,,,l,1,3.3017,"[""0.060"",""0.568"",""0.667"",""0.837""]","[1,0,1,1]",0,4,4,4,1,1,0,,,0,FALSE,,,,,,,,,,,,,,,,,,,,,,,,,,,,,,
,5e3e11a36a0b8a000c609d5e,001,2022-04-28_20h10.21.187,classification_task,2021.2.3,Win32,59.99520038,5e3e11a36a0b8a000c609d5e,626b377229c10585ec392f89,626b3ab23d49090b081d6454,,,,,,,,,,,,,,,,,,,,,,,l,1,3.3655,"[""0.100"",""0.249"",""0.515"",""0.133""]","[1,1,1,0]",0,5,5,5,1,1,1,,,0,FALSE,,,,,,,,,,,,,,,,,,,,,,,,,,,,,,
,5e3e11a36a0b8a000c609d5e,001,2022-04-28_20h10.21.187,classification_task,2021.2.3,Win32,59.99520038,5e3e11a36a0b8a000c609d5e,626b377229c10585ec392f89,626b3ab23d49090b081d6454,,,,,,,,,,,,,,,,,,,,,,,l,1,2.478,"[""0.100"",""0.573"",""0.515"",""0.802""]","[1,0,1,1]",0,6,6,6,1,1,1,,,0,FALSE,,,,,,,,,,,,,,,,,,,,,,,,,,,,,,
,5e3e11a36a0b8a000c609d5e,001,2022-04-28_20h10.21.187,classification_task,2021.2.3,Win32,59.99520038,5e3e11a36a0b8a000c609d5e,626b377229c10585ec392f89,626b3ab23d49090b081d6454,,,,,,,,,,,,,,,,,,,,,,,a,1,2.2097,"[""0.183"",""0.432"",""0.617"",""0.766""]","[1,1,1,0]",0,7,7,7,1,0,0,,,0,FALSE,,,,,,,,,,,,,,,,,,,,,,,,,,,,,,
,5e3e11a36a0b8a000c609d5e,001,2022-04-28_20h10.21.187,classification_task,2021.2.3,Win32,59.99520038,5e3e11a36a0b8a000c609d5e,626b377229c10585ec392f89,626b3ab23d49090b081d6454,,,,,,,,,,,,,,,,,,,,,,,a,1,1.6521,"[""0.216"",""0.471"",""0.723"",""0.957""]","[1,0,1,1]",0,8,8,8,1,0,1,,,0,FALSE,,,,,,,,,,,,,,,,,,,,,,,,,,,,,,
,5e3e11a36a0b8a000c609d5e,001,2022-04-28_20h10.21.187,classification_task,2021.2.3,Win32,59.99520038,5e3e11a36a0b8a000c609d5e,626b377229c10585ec392f89,626b3ab23d49090b081d6454,,,,,,,,,,,,,,,,,,,,,,,l,1,2.9939,"[""0.060"",""0.298"",""0.667"",""0.133""]","[1,1,1,0]",0,9,9,9,1,1,0,,,0,FALSE,,,,,,,,,,,,,,,,,,,,,,,,,,,,,,
,5e3e11a36a0b8a000c609d5e,001,2022-04-28_20h10.21.187,classification_task,2021.2.3,Win32,59.99520038,5e3e11a36a0b8a000c609d5e,626b377229c10585ec392f89,626b3ab23d49090b081d6454,,,,,,,,,,,,,,,,,,,,,,,a,1,2.7012,"[""0.216"",""0.347"",""0.573"",""0.957""]","[1,1,0,1]",0,10,10,10,1,0,1,,,0,FALSE,,,,,,,,,,,,,,,,,,,,,,,,,,,,,,
,5e3e11a36a0b8a000c609d5e,001,2022-04-28_20h10.21.187,classification_task,2021.2.3,Win32,59.99520038,5e3e11a36a0b8a000c609d5e,626b377229c10585ec392f89,626b3ab23d49090b081d6454,,,,,,,,,,,,,,,,,,,,,,,l,1,1.6271,"[""0.060"",""0.298"",""0.479"",""0.837""]","[1,1,0,1]",0,11,11,11,1,1,0,,,0,FALSE,,,,,,,,,,,,,,,,,,,,,,,,,,,,,,
,5e3e11a36a0b8a000c609d5e,001,2022-04-28_20h10.21.187,classification_task,2021.2.3,Win32,59.99520038,5e3e11a36a0b8a000c609d5e,626b377229c10585ec392f89,626b3ab23d49090b081d6454,,,,,,,,,,,,,,,,,,,,,,,a,0,2.9185,"[""0.143"",""0.249"",""0.515"",""0.802""]","[0,1,1,1]",0,12,12,12,1,1,1,,,0,FALSE,,,,,,,,,,,,,,,,,,,,,,,,,,,,,,
,5e3e11a36a0b8a000c609d5e,001,2022-04-28_20h10.21.187,classification_task,2021.2.3,Win32,59.99520038,5e3e11a36a0b8a000c609d5e,626b377229c10585ec392f89,626b3ab23d49090b081d6454,,,,,,,,,,,,,,,,,,,,,,,a,1,3.8748,"[""0.575"",""0.432"",""0.617"",""0.892""]","[0,1,1,1]",0,13,13,13,1,0,0,,,0,FALSE,,,,,,,,,,,,,,,,,,,,,,,,,,,,,,
,5e3e11a36a0b8a000c609d5e,001,2022-04-28_20h10.21.187,classification_task,2021.2.3,Win32,59.99520038,5e3e11a36a0b8a000c609d5e,626b377229c10585ec392f89,626b3ab23d49090b081d6454,,,,,,,,,,,,,,,,,,,,,,,l,1,1.9925,"[""0.100"",""0.249"",""0.471"",""0.802""]","[1,1,0,1]",0,14,14,14,1,1,1,,,0,FALSE,,,,,,,,,,,,,,,,,,,,,,,,,,,,,,
,5e3e11a36a0b8a000c609d5e,001,2022-04-28_20h10.21.187,classification_task,2021.2.3,Win32,59.99520038,5e3e11a36a0b8a000c609d5e,626b377229c10585ec392f89,626b3ab23d49090b081d6454,,,,,,,,,,,,,,,,,,,,,,,a,1,2.2169,"[""0.216"",""0.347"",""0.723"",""0.471""]","[1,1,1,0]",0,15,15,15,1,0,1,,,0,FALSE,,,,,,,,,,,,,,,,,,,,,,,,,,,,,,
,5e3e11a36a0b8a000c609d5e,001,2022-04-28_20h10.21.187,classification_task,2021.2.3,Win32,59.99520038,5e3e11a36a0b8a000c609d5e,626b377229c10585ec392f89,626b3ab23d49090b081d6454,,,,,,,,,,,,,,,,,,,,,,,l,1,1.5965,"[""0.060"",""0.298"",""0.667"",""0.133""]","[1,1,1,0]",0,16,16,16,1,1,0,,,0,FALSE,,,,,,,,,,,,,,,,,,,,,,,,,,,,,,
,5e3e11a36a0b8a000c609d5e,001,2022-04-28_20h10.21.187,classification_task,2021.2.3,Win32,59.99520038,5e3e11a36a0b8a000c609d5e,626b377229c10585ec392f89,626b3ab23d49090b081d6454,,,,,,,,,,,,,,,,,,,,,,,a,1,2.8802,"[""0.183"",""0.432"",""0.143"",""0.892""]","[1,1,0,1]",0,17,17,17,1,0,0,,,0,FALSE,,,,,,,,,,,,,,,,,,,,,,,,,,,,,,
,5e3e11a36a0b8a000c609d5e,001,2022-04-28_20h10.21.187,classification_task,2021.2.3,Win32,59.99520038,5e3e11a36a0b8a000c609d5e,626b377229c10585ec392f89,626b3ab23d49090b081d6454,,,,,,,,,,,,,,,,,,,,,,,l,1,1.5825,"[""0.060"",""0.471"",""0.667"",""0.837""]","[1,0,1,1]",0,18,18,18,1,1,0,,,0,FALSE,,,,,,,,,,,,,,,,,,,,,,,,,,,,,,
,5e3e11a36a0b8a000c609d5e,001,2022-04-28_20h10.21.187,classification_task,2021.2.3,Win32,59.99520038,5e3e11a36a0b8a000c609d5e,626b377229c10585ec392f89,626b3ab23d49090b081d6454,,,,,,,,,,,,,,,,,,,,,,,a,1,3.7522,"[""0.471"",""0.347"",""0.723"",""0.957""]","[0,1,1,1]",0,19,19,19,1,0,1,,,0,FALSE,,,,,,,,,,,,,,,,,,,,,,,,,,,,,,
,5e3e11a36a0b8a000c609d5e,001,2022-04-28_20h10.21.187,classification_task,2021.2.3,Win32,59.99520038,5e3e11a36a0b8a000c609d5e,626b377229c10585ec392f89,626b3ab23d49090b081d6454,,,,,,,,,,,,,,,,,,,,,,,l,1,2.1009,"[""0.100"",""0.133"",""0.515"",""0.802""]","[1,0,1,1]",0,20,20,20,1,1,1,,,0,FALSE,,,,,,,,,,,,,,,,,,,,,,,,,,,,,,
,5e3e11a36a0b8a000c609d5e,001,2022-04-28_20h10.21.187,classification_task,2021.2.3,Win32,59.99520038,5e3e11a36a0b8a000c609d5e,626b377229c10585ec392f89,626b3ab23d49090b081d6454,,,,,,,,,,,,,,,,,,,,,,,a,1,3.9648,"[""0.216"",""0.347"",""0.560"",""0.957""]","[1,1,0,1]",0,21,21,21,1,0,1,,,0,FALSE,,,,,,,,,,,,,,,,,,,,,,,,,,,,,,
,5e3e11a36a0b8a000c609d5e,001,2022-04-28_20h10.21.187,classification_task,2021.2.3,Win32,59.99520038,5e3e11a36a0b8a000c609d5e,626b377229c10585ec392f89,626b3ab23d49090b081d6454,,,,,,,,,,,,,,,,,,,,,,,a,1,1.4156,"[""0.183"",""0.549"",""0.617"",""0.892""]","[1,0,1,1]",0,22,22,22,1,0,0,,,0,FALSE,,,,,,,,,,,,,,,,,,,,,,,,,,,,,,
,5e3e11a36a0b8a000c609d5e,001,2022-04-28_20h10.21.187,classification_task,2021.2.3,Win32,59.99520038,5e3e11a36a0b8a000c609d5e,626b377229c10585ec392f89,626b3ab23d49090b081d6454,,,,,,,,,,,,,,,,,,,,,,,l,1,4.1843,"[""0.146"",""0.249"",""0.515"",""0.802""]","[0,1,1,1]",0,23,23,23,1,1,1,,,0,FALSE,,,,,,,,,,,,,,,,,,,,,,,,,,,,,,
,5e3e11a36a0b8a000c609d5e,001,2022-04-28_20h10.21.187,classification_task,2021.2.3,Win32,59.99520038,5e3e11a36a0b8a000c609d5e,626b377229c10585ec392f89,626b3ab23d49090b081d6454,,,,,,,,,,,,,,,,,,,,,,,l,1,2.1918,"[""0.100"",""0.249"",""0.146"",""0.802""]","[1,1,0,1]",0,24,24,24,1,1,1,,,0,FALSE,,,,,,,,,,,,,,,,,,,,,,,,,,,,,,
,5e3e11a36a0b8a000c609d5e,001,2022-04-28_20h10.21.187,classification_task,2021.2.3,Win32,59.99520038,5e3e11a36a0b8a000c609d5e,626b377229c10585ec392f89,626b3ab23d49090b081d6454,,,,,,,,,,,,,,,,,,,,,,,l,1,1.5809,"[""0.100"",""0.249"",""0.515"",""0.573""]","[1,1,1,0]",0,25,25,25,1,1,1,,,0,FALSE,,,,,,,,,,,,,,,,,,,,,,,,,,,,,,
,5e3e11a36a0b8a000c609d5e,001,2022-04-28_20h10.21.187,classification_task,2021.2.3,Win32,59.99520038,5e3e11a36a0b8a000c609d5e,626b377229c10585ec392f89,626b3ab23d49090b081d6454,,,,,,,,,,,,,,,,,,,,,,,a,1,1.3631,"[""0.216"",""0.560"",""0.723"",""0.957""]","[1,0,1,1]",0,26,26,26,1,0,1,,,0,FALSE,,,,,,,,,,,,,,,,,,,,,,,,,,,,,,
,5e3e11a36a0b8a000c609d5e,001,2022-04-28_20h10.21.187,classification_task,2021.2.3,Win32,59.99520038,5e3e11a36a0b8a000c609d5e,626b377229c10585ec392f89,626b3ab23d49090b081d6454,,,,,,,,,,,,,,,,,,,,,,,a,1,3.3498,"[""0.568"",""0.432"",""0.617"",""0.892""]","[0,1,1,1]",0,27,27,27,1,0,0,,,0,FALSE,,,,,,,,,,,,,,,,,,,,,,,,,,,,,,
,5e3e11a36a0b8a000c609d5e,001,2022-04-28_20h10.21.187,classification_task,2021.2.3,Win32,59.99520038,5e3e11a36a0b8a000c609d5e,626b377229c10585ec392f89,626b3ab23d49090b081d6454,,,,,,,,,,,,,,,,,,,,,,,l,1,2.3271,"[""0.060"",""0.298"",""0.471"",""0.837""]","[1,1,0,1]",0,28,28,28,1,1,0,,,0,FALSE,,,,,,,,,,,,,,,,,,,,,,,,,,,,,,
,5e3e11a36a0b8a000c609d5e,001,2022-04-28_20h10.21.187,classification_task,2021.2.3,Win32,59.99520038,5e3e11a36a0b8a000c609d5e,626b377229c10585ec392f89,626b3ab23d49090b081d6454,,,,,,,,,,,,,,,,,,,,,,,a,1,1.4023,"[""0.183"",""0.432"",""0.617"",""0.471""]","[1,1,1,0]",0,29,29,29,1,0,0,,,0,FALSE,,,,,,,,,,,,,,,,,,,,,,,,,,,,,,
,5e3e11a36a0b8a000c609d5e,001,2022-04-28_20h10.21.187,classification_task,2021.2.3,Win32,59.99520038,5e3e11a36a0b8a000c609d5e,626b377229c10585ec392f89,626b3ab23d49090b081d6454,,,,,,,,,,,,,,,,,,,,,,,l,1,2.5475,"[""0.568"",""0.298"",""0.667"",""0.837""]","[0,1,1,1]",0,30,30,30,1,1,0,,,0,FALSE,,,,,,,,,,,,,,,,,,,,,,,,,,,,,,
,5e3e11a36a0b8a000c609d5e,001,2022-04-28_20h10.21.187,classification_task,2021.2.3,Win32,59.99520038,5e3e11a36a0b8a000c609d5e,626b377229c10585ec392f89,626b3ab23d49090b081d6454,,,,,,,,,,,,,,,,,,,,,,,a,1,3.8502,"[""0.216"",""0.347"",""0.723"",""0.146""]","[1,1,1,0]",0,31,31,31,1,0,1,,,0,FALSE,,,,,,,,,,,,,,,,,,,,,,,,,,,,,,
,5e3e11a36a0b8a000c609d5e,001,2022-04-28_20h10.21.187,classification_task,2021.2.3,Win32,59.99520038,5e3e11a36a0b8a000c609d5e,626b377229c10585ec392f89,626b3ab23d49090b081d6454,,,,,,,,,,,,,,,,,,,,,,,a,0,4.4188,"[""0.568"",""0.298"",""0.667"",""0.837""]","[0,1,1,1]",0,32,32,32,1,1,0,,,0,FALSE,,,,,,,,,,,,,,,,,,,,,,,,,,,,,,
,5e3e11a36a0b8a000c609d5e,001,2022-04-28_20h10.21.187,classification_task,2021.2.3,Win32,59.99520038,5e3e11a36a0b8a000c609d5e,626b377229c10585ec392f89,626b3ab23d49090b081d6454,,,,,,,,,,,,,,,,,,,,,,,a,1,4.7606,"[""0.183"",""0.479"",""0.617"",""0.892""]","[1,0,1,1]",0,33,33,33,1,0,0,,,0,FALSE,,,,,,,,,,,,,,,,,,,,,,,,,,,,,,
,5e3e11a36a0b8a000c609d5e,001,2022-04-28_20h10.21.187,classification_task,2021.2.3,Win32,59.99520038,5e3e11a36a0b8a000c609d5e,626b377229c10585ec392f89,626b3ab23d49090b081d6454,,,,,,,,,,,,,,,,,,,,,,,a,0,3.5225,"[""0.100"",""0.133"",""0.515"",""0.802""]","[1,0,1,1]",0,34,34,34,1,1,1,,,0,FALSE,,,,,,,,,,,,,,,,,,,,,,,,,,,,,,
,5e3e11a36a0b8a000c609d5e,001,2022-04-28_20h10.21.187,classification_task,2021.2.3,Win32,59.99520038,5e3e11a36a0b8a000c609d5e,626b377229c10585ec392f89,626b3ab23d49090b081d6454,,,,,,,,,,,,,,,,,,,,,,,a,1,3.5652,"[""0.183"",""0.432"",""0.568"",""0.892""]","[1,1,0,1]",0,35,35,35,1,0,0,,,0,FALSE,,,,,,,,,,,,,,,,,,,,,,,,,,,,,,
,5e3e11a36a0b8a000c609d5e,001,2022-04-28_20h10.21.187,classification_task,2021.2.3,Win32,59.99520038,5e3e11a36a0b8a000c609d5e,626b377229c10585ec392f89,626b3ab23d49090b081d6454,,,,,,,,,,,,,,,,,,,,,,,l,0,2.2615,"[""0.216"",""0.347"",""0.479"",""0.957""]","[1,1,0,1]",0,36,36,36,1,0,1,,,0,FALSE,,,,,,,,,,,,,,,,,,,,,,,,,,,,,,
,5e3e11a36a0b8a000c609d5e,001,2022-04-28_20h10.21.187,classification_task,2021.2.3,Win32,59.99520038,5e3e11a36a0b8a000c609d5e,626b377229c10585ec392f89,626b3ab23d49090b081d6454,,,,,,,,,,,,,,,,,,,,,,,a,0,2.1022,"[""0.100"",""0.249"",""0.515"",""0.568""]","[1,1,1,0]",0,37,37,37,1,1,1,,,0,FALSE,,,,,,,,,,,,,,,,,,,,,,,,,,,,,,
,5e3e11a36a0b8a000c609d5e,001,2022-04-28_20h10.21.187,classification_task,2021.2.3,Win32,59.99520038,5e3e11a36a0b8a000c609d5e,626b377229c10585ec392f89,626b3ab23d49090b081d6454,,,,,,,,,,,,,,,,,,,,,,,a,0,1.5442,"[""0.060"",""0.298"",""0.573"",""0.837""]","[1,1,0,1]",0,38,38,38,1,1,0,,,0,FALSE,,,,,,,,,,,,,,,,,,,,,,,,,,,,,,
,5e3e11a36a0b8a000c609d5e,001,2022-04-28_20h10.21.187,classification_task,2021.2.3,Win32,59.99520038,5e3e11a36a0b8a000c609d5e,626b377229c10585ec392f89,626b3ab23d49090b081d6454,,,,,,,,,,,,,,,,,,,,,,,l,1,1.7943,"[""0.133"",""0.249"",""0.515"",""0.802""]","[0,1,1,1]",0,39,39,39,1,1,1,,,0,FALSE,,,,,,,,,,,,,,,,,,,,,,,,,,,,,,
,5e3e11a36a0b8a000c609d5e,001,2022-04-28_20h10.21.187,classification_task,2021.2.3,Win32,59.99520038,5e3e11a36a0b8a000c609d5e,626b377229c10585ec392f89,626b3ab23d49090b081d6454,,,,,,,,,,,,,,,,,,,,,,,a,0,1.4029,"[""0.100"",""0.249"",""0.766"",""0.802""]","[1,1,0,1]",0,40,40,40,1,1,1,,,0,FALSE,,,,,,,,,,,,,,,,,,,,,,,,,,,,,,
,5e3e11a36a0b8a000c609d5e,001,2022-04-28_20h10.21.187,classification_task,2021.2.3,Win32,59.99520038,5e3e11a36a0b8a000c609d5e,626b377229c10585ec392f89,626b3ab23d49090b081d6454,,,,,,,,,,,,,,,,,,,,,,,a,0,1.4125,"[""0.060"",""0.133"",""0.667"",""0.837""]","[1,0,1,1]",0,41,41,41,1,1,0,,,0,FALSE,,,,,,,,,,,,,,,,,,,,,,,,,,,,,,
,5e3e11a36a0b8a000c609d5e,001,2022-04-28_20h10.21.187,classification_task,2021.2.3,Win32,59.99520038,5e3e11a36a0b8a000c609d5e,626b377229c10585ec392f89,626b3ab23d49090b081d6454,,,,,,,,,,,,,,,,,,,,,,,l,0,1.7919,"[""0.141"",""0.432"",""0.617"",""0.892""]","[0,1,1,1]",0,42,42,42,1,0,0,,,0,FALSE,,,,,,,,,,,,,,,,,,,,,,,,,,,,,,
,5e3e11a36a0b8a000c609d5e,001,2022-04-28_20h10.21.187,classification_task,2021.2.3,Win32,59.99520038,5e3e11a36a0b8a000c609d5e,626b377229c10585ec392f89,626b3ab23d49090b081d6454,,,,,,,,,,,,,,,,,,,,,,,l,0,1.23,"[""0.573"",""0.347"",""0.723"",""0.957""]","[0,1,1,1]",0,43,43,43,1,0,1,,,0,FALSE,,,,,,,,,,,,,,,,,,,,,,,,,,,,,,
,5e3e11a36a0b8a000c609d5e,001,2022-04-28_20h10.21.187,classification_task,2021.2.3,Win32,59.99520038,5e3e11a36a0b8a000c609d5e,626b377229c10585ec392f89,626b3ab23d49090b081d6454,,,,,,,,,,,,,,,,,,,,,,,l,0,0.8012,"[""0.183"",""0.432"",""0.617"",""0.568""]","[1,1,1,0]",0,44,44,44,1,0,0,,,0,FALSE,,,,,,,,,,,,,,,,,,,,,,,,,,,,,,
,5e3e11a36a0b8a000c609d5e,001,2022-04-28_20h10.21.187,classification_task,2021.2.3,Win32,59.99520038,5e3e11a36a0b8a000c609d5e,626b377229c10585ec392f89,626b3ab23d49090b081d6454,,,,,,,,,,,,,,,,,,,,,,,l,0,1.0382,"[""0.216"",""0.471"",""0.723"",""0.957""]","[1,0,1,1]",0,45,45,45,1,0,1,,,0,FALSE,,,,,,,,,,,,,,,,,,,,,,,,,,,,,,
,5e3e11a36a0b8a000c609d5e,001,2022-04-28_20h10.21.187,classification_task,2021.2.3,Win32,59.99520038,5e3e11a36a0b8a000c609d5e,626b377229c10585ec392f89,626b3ab23d49090b081d6454,,,,,,,,,,,,,,,,,,,,,,,l,1,0.6141,"[""0.060"",""0.298"",""0.667"",""0.549""]","[1,1,1,0]",0,46,46,46,1,1,0,,,0,FALSE,,,,,,,,,,,,,,,,,,,,,,,,,,,,,,
,5e3e11a36a0b8a000c609d5e,001,2022-04-28_20h10.21.187,classification_task,2021.2.3,Win32,59.99520038,5e3e11a36a0b8a000c609d5e,626b377229c10585ec392f89,626b3ab23d49090b081d6454,,,,,,,,,,,,,,,,,,,,,,,l,0,1.241,"[""0.216"",""0.347"",""0.723"",""0.568""]","[1,1,1,0]",0,47,47,47,1,0,1,,,0,FALSE,,,,,,,,,,,,,,,,,,,,,,,,,,,,,,
,5e3e11a36a0b8a000c609d5e,001,2022-04-28_20h10.21.187,classification_task,2021.2.3,Win32,59.99520038,5e3e11a36a0b8a000c609d5e,626b377229c10585ec392f89,626b3ab23d49090b081d6454,,,,,,,,,,,,,,,,,,,,,,,a,0,1.0192,"[""0.100"",""0.249"",""0.515"",""0.471""]","[1,1,1,0]",0,48,48,48,1,1,1,,,0,FALSE,,,,,,,,,,,,,,,,,,,,,,,,,,,,,,
,5e3e11a36a0b8a000c609d5e,001,2022-04-28_20h10.21.187,classification_task,2021.2.3,Win32,59.99520038,5e3e11a36a0b8a000c609d5e,626b377229c10585ec392f89,626b3ab23d49090b081d6454,,,,,,,,,,,,,,,,,,,,,,,a,0,0.7701,"[""0.060"",""0.298"",""0.139"",""0.837""]","[1,1,0,1]",0,49,49,49,1,1,0,,,0,FALSE,,,,,,,,,,,,,,,,,,,,,,,,,,,,,,
,5e3e11a36a0b8a000c609d5e,001,2022-04-28_20h10.21.187,classification_task,2021.2.3,Win32,59.99520038,5e3e11a36a0b8a000c609d5e,626b377229c10585ec392f89,626b3ab23d49090b081d6454,,,,,,,,,,,,,,,,,,,,,,,l,0,0.9537,"[""0.183"",""0.432"",""0.766"",""0.892""]","[1,1,0,1]",0,50,50,50,1,0,0,,,0,FALSE,,,,,,,,,,,,,,,,,,,,,,,,,,,,,,
,5e3e11a36a0b8a000c609d5e,001,2022-04-28_20h10.21.187,classification_task,2021.2.3,Win32,59.99520038,5e3e11a36a0b8a000c609d5e,626b377229c10585ec392f89,626b3ab23d49090b081d6454,,,,,,,,,,,,,,,,,,,,,,,a,0,0.7668,"[""0.060"",""0.139"",""0.667"",""0.837""]","[1,0,1,1]",0,51,51,51,1,1,0,,,0,FALSE,,,,,,,,,,,,,,,,,,,,,,,,,,,,,,
,5e3e11a36a0b8a000c609d5e,001,2022-04-28_20h10.21.187,classification_task,2021.2.3,Win32,59.99520038,5e3e11a36a0b8a000c609d5e,626b377229c10585ec392f89,626b3ab23d49090b081d6454,,,,,,,,,,,,,,,,,,,,,,,l,1,2.1216,"[""0.100"",""0.471"",""0.515"",""0.802""]","[1,0,1,1]",0,52,52,52,1,1,1,,,0,FALSE,,,,,,,,,,,,,,,,,,,,,,,,,,,,,,
,5e3e11a36a0b8a000c609d5e,001,2022-04-28_20h10.21.187,classification_task,2021.2.3,Win32,59.99520038,5e3e11a36a0b8a000c609d5e,626b377229c10585ec392f89,626b3ab23d49090b081d6454,,,,,,,,,,,,,,,,,,,,,,,a,0,2.1333,"[""0.100"",""0.249"",""0.575"",""0.802""]","[1,1,0,1]",0,53,53,53,1,1,1,,,0,FALSE,,,,,,,,,,,,,,,,,,,,,,,,,,,,,,
,5e3e11a36a0b8a000c609d5e,001,2022-04-28_20h10.21.187,classification_task,2021.2.3,Win32,59.99520038,5e3e11a36a0b8a000c609d5e,626b377229c10585ec392f89,626b3ab23d49090b081d6454,,,,,,,,,,,,,,,,,,,,,,,l,1,1.6327,"[""0.060"",""0.298"",""0.667"",""0.136""]","[1,1,1,0]",0,54,54,54,1,1,0,,,0,FALSE,,,,,,,,,,,,,,,,,,,,,,,,,,,,,,
,5e3e11a36a0b8a000c609d5e,001,2022-04-28_20h10.21.187,classification_task,2021.2.3,Win32,59.99520038,5e3e11a36a0b8a000c609d5e,626b377229c10585ec392f89,626b3ab23d49090b081d6454,,,,,,,,,,,,,,,,,,,,,,,l,0,1.357,"[""0.141"",""0.432"",""0.617"",""0.892""]","[0,1,1,1]",0,55,55,55,1,0,0,,,0,FALSE,,,,,,,,,,,,,,,,,,,,,,,,,,,,,,
,5e3e11a36a0b8a000c609d5e,001,2022-04-28_20h10.21.187,classification_task,2021.2.3,Win32,59.99520038,5e3e11a36a0b8a000c609d5e,626b377229c10585ec392f89,626b3ab23d49090b081d6454,,,,,,,,,,,,,,,,,,,,,,,l,1,1.4325,"[""0.573"",""0.298"",""0.667"",""0.837""]","[0,1,1,1]",0,56,56,56,1,1,0,,,0,FALSE,,,,,,,,,,,,,,,,,,,,,,,,,,,,,,
,5e3e11a36a0b8a000c609d5e,001,2022-04-28_20h10.21.187,classification_task,2021.2.3,Win32,59.99520038,5e3e11a36a0b8a000c609d5e,626b377229c10585ec392f89,626b3ab23d49090b081d6454,,,,,,,,,,,,,,,,,,,,,,,a,1,0.787,"[""0.183"",""0.432"",""0.617"",""0.471""]","[1,1,1,0]",0,57,57,57,1,0,0,,,0,FALSE,,,,,,,,,,,,,,,,,,,,,,,,,,,,,,
,5e3e11a36a0b8a000c609d5e,001,2022-04-28_20h10.21.187,classification_task,2021.2.3,Win32,59.99520038,5e3e11a36a0b8a000c609d5e,626b377229c10585ec392f89,626b3ab23d49090b081d6454,,,,,,,,,,,,,,,,,,,,,,,a,1,1.0697,"[""0.216"",""0.347"",""0.723"",""0.568""]","[1,1,1,0]",0,58,58,58,1,0,1,,,0,FALSE,,,,,,,,,,,,,,,,,,,,,,,,,,,,,,
,5e3e11a36a0b8a000c609d5e,001,2022-04-28_20h10.21.187,classification_task,2021.2.3,Win32,59.99520038,5e3e11a36a0b8a000c609d5e,626b377229c10585ec392f89,626b3ab23d49090b081d6454,,,,,,,,,,,,,,,,,,,,,,,l,0,1.2708,"[""0.183"",""0.560"",""0.617"",""0.892""]","[1,0,1,1]",0,59,59,59,1,0,0,,,0,FALSE,,,,,,,,,,,,,,,,,,,,,,,,,,,,,,
,5e3e11a36a0b8a000c609d5e,001,2022-04-28_20h10.21.187,classification_task,2021.2.3,Win32,59.99520038,5e3e11a36a0b8a000c609d5e,626b377229c10585ec392f89,626b3ab23d49090b081d6454,,,,,,,,,,,,,,,,,,,,,,,l,0,1.4875,"[""0.216"",""0.141"",""0.723"",""0.957""]","[1,0,1,1]",0,60,60,60,1,0,1,,,0,FALSE,,,,,,,,,,,,,,,,,,,,,,,,,,,,,,
,5e3e11a36a0b8a000c609d5e,001,2022-04-28_20h10.21.187,classification_task,2021.2.3,Win32,59.99520038,5e3e11a36a0b8a000c609d5e,626b377229c10585ec392f89,626b3ab23d49090b081d6454,,,,,,,,,,,,,,,,,,,,,,,l,1,1.3461,"[""0.479"",""0.249"",""0.515"",""0.802""]","[0,1,1,1]",0,61,61,61,1,1,1,,,0,FALSE,,,,,,,,,,,,,,,,,,,,,,,,,,,,,,
,5e3e11a36a0b8a000c609d5e,001,2022-04-28_20h10.21.187,classification_task,2021.2.3,Win32,59.99520038,5e3e11a36a0b8a000c609d5e,626b377229c10585ec392f89,626b3ab23d49090b081d6454,,,,,,,,,,,,,,,,,,,,,,,a,1,0.9973,"[""0.143"",""0.347"",""0.723"",""0.957""]","[0,1,1,1]",0,62,62,62,1,0,1,,,0,FALSE,,,,,,,,,,,,,,,,,,,,,,,,,,,,,,
,5e3e11a36a0b8a000c609d5e,001,2022-04-28_20h10.21.187,classification_task,2021.2.3,Win32,59.99520038,5e3e11a36a0b8a000c609d5e,626b377229c10585ec392f89,626b3ab23d49090b081d6454,,,,,,,,,,,,,,,,,,,,,,,a,1,1.0663,"[""0.216"",""0.347"",""0.479"",""0.957""]","[1,1,0,1]",0,63,63,63,1,0,1,,,0,FALSE,,,,,,,,,,,,,,,,,,,,,,,,,,,,,,
,5e3e11a36a0b8a000c609d5e,001,2022-04-28_20h10.21.187,classification_task,2021.2.3,Win32,59.99520038,5e3e11a36a0b8a000c609d5e,626b377229c10585ec392f89,626b3ab23d49090b081d6454,,,,,,,,,,,,,,,,,,,,,,,,,,,,,,,,,,,,,,,0, ,,0,5.832843425,747.786,0,0,0,0,1,2,1,,,,,,,,,,,,,,,,,
,5e3e11a36a0b8a000c609d5e,001,2022-04-28_20h10.21.187,classification_task,2021.2.3,Win32,59.99520038,5e3e11a36a0b8a000c609d5e,626b377229c10585ec392f89,626b3ab23d49090b081d6454,,,,,,,,,,,,,,,,,,,,,,,,,,,,,,,,,,,,,,,1,  ,,0,3.799725652,750.4949,0,0,0,0,1,2,1,,,,,,,,,,,,,,,,,
,5e3e11a36a0b8a000c609d5e,001,2022-04-28_20h10.21.187,classification_task,2021.2.3,Win32,59.99520038,5e3e11a36a0b8a000c609d5e,626b377229c10585ec392f89,626b3ab23d49090b081d6454,,,,,,,,,,,,,,,,,,,,,,,,,,,,,,,,,,,,,,,2,  ,,0,3.579267098,754.3573,0,0,0,0,1,2,1,,,,,,,,,,,,,,,,,
,5e3e11a36a0b8a000c609d5e,001,2022-04-28_20h10.21.187,classification_task,2021.2.3,Win32,59.99520038,5e3e11a36a0b8a000c609d5e,626b377229c10585ec392f89,626b3ab23d49090b081d6454,,,,,,,,,,,,,,,,,,,,,,,,,,,,,,,,,,,,,,,,,,,,,0,0,0,0,1,,1,,,,,,,,,,,,,,,,,
,5e3e11a36a0b8a000c609d5e,001,2022-04-28_20h10.21.187,classification_task,2021.2.3,Win32,59.99520038,5e3e11a36a0b8a000c609d5e,626b377229c10585ec392f89,626b3ab23d49090b081d6454,,,,,,,,,,,,,,,,,,,,,space,10.0027,a,1,3.9906,"[""0.183"",""0.432"",""0.617"",""0.560""]","[1,1,1,0]",0,0,0,0,1,0,0,,,0,FALSE,,,,,,,,,,,,,,,,,,,,,,,,,,,,,,
,5e3e11a36a0b8a000c609d5e,001,2022-04-28_20h10.21.187,classification_task,2021.2.3,Win32,59.99520038,5e3e11a36a0b8a000c609d5e,626b377229c10585ec392f89,626b3ab23d49090b081d6454,,,,,,,,,,,,,,,,,,,,,,,a,1,2.0359,"[""0.479"",""0.432"",""0.617"",""0.892""]","[0,1,1,1]",0,1,1,1,1,0,0,,,0,FALSE,,,,,,,,,,,,,,,,,,,,,,,,,,,,,,
,5e3e11a36a0b8a000c609d5e,001,2022-04-28_20h10.21.187,classification_task,2021.2.3,Win32,59.99520038,5e3e11a36a0b8a000c609d5e,626b377229c10585ec392f89,626b3ab23d49090b081d6454,,,,,,,,,,,,,,,,,,,,,,,l,1,2.6008,"[""0.060"",""0.136"",""0.667"",""0.837""]","[1,0,1,1]",0,2,2,2,1,1,0,,,0,FALSE,,,,,,,,,,,,,,,,,,,,,,,,,,,,,,
,5e3e11a36a0b8a000c609d5e,001,2022-04-28_20h10.21.187,classification_task,2021.2.3,Win32,59.99520038,5e3e11a36a0b8a000c609d5e,626b377229c10585ec392f89,626b3ab23d49090b081d6454,,,,,,,,,,,,,,,,,,,,,,,l,1,2.4149,"[""0.549"",""0.249"",""0.515"",""0.802""]","[0,1,1,1]",0,3,3,3,1,1,1,,,0,FALSE,,,,,,,,,,,,,,,,,,,,,,,,,,,,,,
,5e3e11a36a0b8a000c609d5e,001,2022-04-28_20h10.21.187,classification_task,2021.2.3,Win32,59.99520038,5e3e11a36a0b8a000c609d5e,626b377229c10585ec392f89,626b3ab23d49090b081d6454,,,,,,,,,,,,,,,,,,,,,,,a,0,1.5615,"[""0.100"",""0.560"",""0.515"",""0.802""]","[1,0,1,1]",0,4,4,4,1,1,1,,,0,FALSE,,,,,,,,,,,,,,,,,,,,,,,,,,,,,,
,5e3e11a36a0b8a000c609d5e,001,2022-04-28_20h10.21.187,classification_task,2021.2.3,Win32,59.99520038,5e3e11a36a0b8a000c609d5e,626b377229c10585ec392f89,626b3ab23d49090b081d6454,,,,,,,,,,,,,,,,,,,,,,,a,1,1.4832,"[""0.183"",""0.432"",""0.549"",""0.892""]","[1,1,0,1]",0,5,5,5,1,0,0,,,0,FALSE,,,,,,,,,,,,,,,,,,,,,,,,,,,,,,
,5e3e11a36a0b8a000c609d5e,001,2022-04-28_20h10.21.187,classification_task,2021.2.3,Win32,59.99520038,5e3e11a36a0b8a000c609d5e,626b377229c10585ec392f89,626b3ab23d49090b081d6454,,,,,,,,,,,,,,,,,,,,,,,l,0,1.4351,"[""0.216"",""0.139"",""0.723"",""0.957""]","[1,0,1,1]",0,6,6,6,1,0,1,,,0,FALSE,,,,,,,,,,,,,,,,,,,,,,,,,,,,,,
,5e3e11a36a0b8a000c609d5e,001,2022-04-28_20h10.21.187,classification_task,2021.2.3,Win32,59.99520038,5e3e11a36a0b8a000c609d5e,626b377229c10585ec392f89,626b3ab23d49090b081d6454,,,,,,,,,,,,,,,,,,,,,,,l,1,0.9074,"[""0.060"",""0.298"",""0.766"",""0.837""]","[1,1,0,1]",0,7,7,7,1,1,0,,,0,FALSE,,,,,,,,,,,,,,,,,,,,,,,,,,,,,,
,5e3e11a36a0b8a000c609d5e,001,2022-04-28_20h10.21.187,classification_task,2021.2.3,Win32,59.99520038,5e3e11a36a0b8a000c609d5e,626b377229c10585ec392f89,626b3ab23d49090b081d6454,,,,,,,,,,,,,,,,,,,,,,,a,1,1.2472,"[""0.216"",""0.347"",""0.471"",""0.957""]","[1,1,0,1]",0,8,8,8,1,0,1,,,0,FALSE,,,,,,,,,,,,,,,,,,,,,,,,,,,,,,
,5e3e11a36a0b8a000c609d5e,001,2022-04-28_20h10.21.187,classification_task,2021.2.3,Win32,59.99520038,5e3e11a36a0b8a000c609d5e,626b377229c10585ec392f89,626b3ab23d49090b081d6454,,,,,,,,,,,,,,,,,,,,,,,a,1,1.429,"[""0.216"",""0.347"",""0.723"",""0.568""]","[1,1,1,0]",0,9,9,9,1,0,1,,,0,FALSE,,,,,,,,,,,,,,,,,,,,,,,,,,,,,,
,5e3e11a36a0b8a000c609d5e,001,2022-04-28_20h10.21.187,classification_task,2021.2.3,Win32,59.99520038,5e3e11a36a0b8a000c609d5e,626b377229c10585ec392f89,626b3ab23d49090b081d6454,,,,,,,,,,,,,,,,,,,,,,,l,1,0.8711,"[""0.100"",""0.249"",""0.568"",""0.802""]","[1,1,0,1]",0,10,10,10,1,1,1,,,0,FALSE,,,,,,,,,,,,,,,,,,,,,,,,,,,,,,
,5e3e11a36a0b8a000c609d5e,001,2022-04-28_20h10.21.187,classification_task,2021.2.3,Win32,59.99520038,5e3e11a36a0b8a000c609d5e,626b377229c10585ec392f89,626b3ab23d49090b081d6454,,,,,,,,,,,,,,,,,,,,,,,l,1,1.1641,"[""0.146"",""0.298"",""0.667"",""0.837""]","[0,1,1,1]",0,11,11,11,1,1,0,,,0,FALSE,,,,,,,,,,,,,,,,,,,,,,,,,,,,,,
,5e3e11a36a0b8a000c609d5e,001,2022-04-28_20h10.21.187,classification_task,2021.2.3,Win32,59.99520038,5e3e11a36a0b8a000c609d5e,626b377229c10585ec392f89,626b3ab23d49090b081d6454,,,,,,,,,,,,,,,,,,,,,,,a,1,1.5457,"[""0.183"",""0.766"",""0.617"",""0.892""]","[1,0,1,1]",0,12,12,12,1,0,0,,,0,FALSE,,,,,,,,,,,,,,,,,,,,,,,,,,,,,,
,5e3e11a36a0b8a000c609d5e,001,2022-04-28_20h10.21.187,classification_task,2021.2.3,Win32,59.99520038,5e3e11a36a0b8a000c609d5e,626b377229c10585ec392f89,626b3ab23d49090b081d6454,,,,,,,,,,,,,,,,,,,,,,,l,0,1.3654,"[""0.139"",""0.347"",""0.723"",""0.957""]","[0,1,1,1]",0,13,13,13,1,0,1,,,0,FALSE,,,,,,,,,,,,,,,,,,,,,,,,,,,,,,
,5e3e11a36a0b8a000c609d5e,001,2022-04-28_20h10.21.187,classification_task,2021.2.3,Win32,59.99520038,5e3e11a36a0b8a000c609d5e,626b377229c10585ec392f89,626b3ab23d49090b081d6454,,,,,,,,,,,,,,,,,,,,,,,l,1,0.9648,"[""0.060"",""0.298"",""0.667"",""0.141""]","[1,1,1,0]",0,14,14,14,1,1,0,,,0,FALSE,,,,,,,,,,,,,,,,,,,,,,,,,,,,,,
,5e3e11a36a0b8a000c609d5e,001,2022-04-28_20h10.21.187,classification_task,2021.2.3,Win32,59.99520038,5e3e11a36a0b8a000c609d5e,626b377229c10585ec392f89,626b3ab23d49090b081d6454,,,,,,,,,,,,,,,,,,,,,,,a,0,1.2286,"[""0.100"",""0.249"",""0.515"",""0.560""]","[1,1,1,0]",0,15,15,15,1,1,1,,,0,FALSE,,,,,,,,,,,,,,,,,,,,,,,,,,,,,,
,5e3e11a36a0b8a000c609d5e,001,2022-04-28_20h10.21.187,classification_task,2021.2.3,Win32,59.99520038,5e3e11a36a0b8a000c609d5e,626b377229c10585ec392f89,626b3ab23d49090b081d6454,,,,,,,,,,,,,,,,,,,,,,,l,1,0.9,"[""0.060"",""0.298"",""0.560"",""0.837""]","[1,1,0,1]",0,16,16,16,1,1,0,,,0,FALSE,,,,,,,,,,,,,,,,,,,,,,,,,,,,,,
,5e3e11a36a0b8a000c609d5e,001,2022-04-28_20h10.21.187,classification_task,2021.2.3,Win32,59.99520038,5e3e11a36a0b8a000c609d5e,626b377229c10585ec392f89,626b3ab23d49090b081d6454,,,,,,,,,,,,,,,,,,,,,,,a,1,1.1512,"[""0.216"",""0.347"",""0.723"",""0.133""]","[1,1,1,0]",0,17,17,17,1,0,1,,,0,FALSE,,,,,,,,,,,,,,,,,,,,,,,,,,,,,,
,5e3e11a36a0b8a000c609d5e,001,2022-04-28_20h10.21.187,classification_task,2021.2.3,Win32,59.99520038,5e3e11a36a0b8a000c609d5e,626b377229c10585ec392f89,626b3ab23d49090b081d6454,,,,,,,,,,,,,,,,,,,,,,,l,0,0.9343,"[""0.183"",""0.432"",""0.617"",""0.141""]","[1,1,1,0]",0,18,18,18,1,0,0,,,0,FALSE,,,,,,,,,,,,,,,,,,,,,,,,,,,,,,
,5e3e11a36a0b8a000c609d5e,001,2022-04-28_20h10.21.187,classification_task,2021.2.3,Win32,59.99520038,5e3e11a36a0b8a000c609d5e,626b377229c10585ec392f89,626b3ab23d49090b081d6454,,,,,,,,,,,,,,,,,,,,,,,l,1,0.5685,"[""0.060"",""0.575"",""0.667"",""0.837""]","[1,0,1,1]",0,19,19,19,1,1,0,,,0,FALSE,,,,,,,,,,,,,,,,,,,,,,,,,,,,,,
,5e3e11a36a0b8a000c609d5e,001,2022-04-28_20h10.21.187,classification_task,2021.2.3,Win32,59.99520038,5e3e11a36a0b8a000c609d5e,626b377229c10585ec392f89,626b3ab23d49090b081d6454,,,,,,,,,,,,,,,,,,,,,,,l,1,0.5139,"[""0.060"",""0.298"",""0.667"",""0.146""]","[1,1,1,0]",0,20,20,20,1,1,0,,,0,FALSE,,,,,,,,,,,,,,,,,,,,,,,,,,,,,,
,5e3e11a36a0b8a000c609d5e,001,2022-04-28_20h10.21.187,classification_task,2021.2.3,Win32,59.99520038,5e3e11a36a0b8a000c609d5e,626b377229c10585ec392f89,626b3ab23d49090b081d6454,,,,,,,,,,,,,,,,,,,,,,,a,0,0.7991,"[""0.100"",""0.249"",""0.515"",""0.133""]","[1,1,1,0]",0,21,21,21,1,1,1,,,0,FALSE,,,,,,,,,,,,,,,,,,,,,,,,,,,,,,
,5e3e11a36a0b8a000c609d5e,001,2022-04-28_20h10.21.187,classification_task,2021.2.3,Win32,59.99520038,5e3e11a36a0b8a000c609d5e,626b377229c10585ec392f89,626b3ab23d49090b081d6454,,,,,,,,,,,,,,,,,,,,,,,a,1,0.6162,"[""0.183"",""0.573"",""0.617"",""0.892""]","[1,0,1,1]",0,22,22,22,1,0,0,,,0,FALSE,,,,,,,,,,,,,,,,,,,,,,,,,,,,,,
,5e3e11a36a0b8a000c609d5e,001,2022-04-28_20h10.21.187,classification_task,2021.2.3,Win32,59.99520038,5e3e11a36a0b8a000c609d5e,626b377229c10585ec392f89,626b3ab23d49090b081d6454,,,,,,,,,,,,,,,,,,,,,,,a,1,0.5352,"[""0.143"",""0.432"",""0.617"",""0.892""]","[0,1,1,1]",0,23,23,23,1,0,0,,,0,FALSE,,,,,,,,,,,,,,,,,,,,,,,,,,,,,,
,5e3e11a36a0b8a000c609d5e,001,2022-04-28_20h10.21.187,classification_task,2021.2.3,Win32,59.99520038,5e3e11a36a0b8a000c609d5e,626b377229c10585ec392f89,626b3ab23d49090b081d6454,,,,,,,,,,,,,,,,,,,,,,,a,1,0.6707,"[""0.183"",""0.432"",""0.573"",""0.892""]","[1,1,0,1]",0,24,24,24,1,0,0,,,0,FALSE,,,,,,,,,,,,,,,,,,,,,,,,,,,,,,
,5e3e11a36a0b8a000c609d5e,001,2022-04-28_20h10.21.187,classification_task,2021.2.3,Win32,59.99520038,5e3e11a36a0b8a000c609d5e,626b377229c10585ec392f89,626b3ab23d49090b081d6454,,,,,,,,,,,,,,,,,,,,,,,a,1,1.1344,"[""0.216"",""0.347"",""0.560"",""0.957""]","[1,1,0,1]",0,25,25,25,1,0,1,,,0,FALSE,,,,,,,,,,,,,,,,,,,,,,,,,,,,,,
,5e3e11a36a0b8a000c609d5e,001,2022-04-28_20h10.21.187,classification_task,2021.2.3,Win32,59.99520038,5e3e11a36a0b8a000c609d5e,626b377229c10585ec392f89,626b3ab23d49090b081d6454,,,,,,,,,,,,,,,,,,,,,,,l,0,1.0017,"[""0.573"",""0.347"",""0.723"",""0.957""]","[0,1,1,1]",0,26,26,26,1,0,1,,,0,FALSE,,,,,,,,,,,,,,,,,,,,,,,,,,,,,,
,5e3e11a36a0b8a000c609d5e,001,2022-04-28_20h10.21.187,classification_task,2021.2.3,Win32,59.99520038,5e3e11a36a0b8a000c609d5e,626b377229c10585ec392f89,626b3ab23d49090b081d6454,,,,,,,,,,,,,,,,,,,,,,,l,1,0.9719,"[""0.549"",""0.249"",""0.515"",""0.802""]","[0,1,1,1]",0,27,27,27,1,1,1,,,0,FALSE,,,,,,,,,,,,,,,,,,,,,,,,,,,,,,
,5e3e11a36a0b8a000c609d5e,001,2022-04-28_20h10.21.187,classification_task,2021.2.3,Win32,59.99520038,5e3e11a36a0b8a000c609d5e,626b377229c10585ec392f89,626b3ab23d49090b081d6454,,,,,,,,,,,,,,,,,,,,,,,a,0,1.0417,"[""0.100"",""0.573"",""0.515"",""0.802""]","[1,0,1,1]",0,28,28,28,1,1,1,,,0,FALSE,,,,,,,,,,,,,,,,,,,,,,,,,,,,,,
,5e3e11a36a0b8a000c609d5e,001,2022-04-28_20h10.21.187,classification_task,2021.2.3,Win32,59.99520038,5e3e11a36a0b8a000c609d5e,626b377229c10585ec392f89,626b3ab23d49090b081d6454,,,,,,,,,,,,,,,,,,,,,,,a,0,0.9336,"[""0.100"",""0.249"",""0.766"",""0.802""]","[1,1,0,1]",0,29,29,29,1,1,1,,,0,FALSE,,,,,,,,,,,,,,,,,,,,,,,,,,,,,,
,5e3e11a36a0b8a000c609d5e,001,2022-04-28_20h10.21.187,classification_task,2021.2.3,Win32,59.99520038,5e3e11a36a0b8a000c609d5e,626b377229c10585ec392f89,626b3ab23d49090b081d6454,,,,,,,,,,,,,,,,,,,,,,,l,1,1.0331,"[""0.141"",""0.298"",""0.667"",""0.837""]","[0,1,1,1]",0,30,30,30,1,1,0,,,0,FALSE,,,,,,,,,,,,,,,,,,,,,,,,,,,,,,
,5e3e11a36a0b8a000c609d5e,001,2022-04-28_20h10.21.187,classification_task,2021.2.3,Win32,59.99520038,5e3e11a36a0b8a000c609d5e,626b377229c10585ec392f89,626b3ab23d49090b081d6454,,,,,,,,,,,,,,,,,,,,,,,l,0,1.0497,"[""0.216"",""0.471"",""0.723"",""0.957""]","[1,0,1,1]",0,31,31,31,1,0,1,,,0,FALSE,,,,,,,,,,,,,,,,,,,,,,,,,,,,,,
,5e3e11a36a0b8a000c609d5e,001,2022-04-28_20h10.21.187,classification_task,2021.2.3,Win32,59.99520038,5e3e11a36a0b8a000c609d5e,626b377229c10585ec392f89,626b3ab23d49090b081d6454,,,,,,,,,,,,,,,,,,,,,,,l,1,1.169,"[""0.575"",""0.249"",""0.515"",""0.802""]","[0,1,1,1]",0,32,32,32,1,1,1,,,0,FALSE,,,,,,,,,,,,,,,,,,,,,,,,,,,,,,
,5e3e11a36a0b8a000c609d5e,001,2022-04-28_20h10.21.187,classification_task,2021.2.3,Win32,59.99520038,5e3e11a36a0b8a000c609d5e,626b377229c10585ec392f89,626b3ab23d49090b081d6454,,,,,,,,,,,,,,,,,,,,,,,a,1,0.8859,"[""0.216"",""0.146"",""0.723"",""0.957""]","[1,0,1,1]",0,33,33,33,1,0,1,,,0,FALSE,,,,,,,,,,,,,,,,,,,,,,,,,,,,,,
,5e3e11a36a0b8a000c609d5e,001,2022-04-28_20h10.21.187,classification_task,2021.2.3,Win32,59.99520038,5e3e11a36a0b8a000c609d5e,626b377229c10585ec392f89,626b3ab23d49090b081d6454,,,,,,,,,,,,,,,,,,,,,,,l,1,1.0172,"[""0.060"",""0.139"",""0.667"",""0.837""]","[1,0,1,1]",0,34,34,34,1,1,0,,,0,FALSE,,,,,,,,,,,,,,,,,,,,,,,,,,,,,,
,5e3e11a36a0b8a000c609d5e,001,2022-04-28_20h10.21.187,classification_task,2021.2.3,Win32,59.99520038,5e3e11a36a0b8a000c609d5e,626b377229c10585ec392f89,626b3ab23d49090b081d6454,,,,,,,,,,,,,,,,,,,,,,,a,0,0.9476,"[""0.100"",""0.249"",""0.133"",""0.802""]","[1,1,0,1]",0,35,35,35,1,1,1,,,0,FALSE,,,,,,,,,,,,,,,,,,,,,,,,,,,,,,
,5e3e11a36a0b8a000c609d5e,001,2022-04-28_20h10.21.187,classification_task,2021.2.3,Win32,59.99520038,5e3e11a36a0b8a000c609d5e,626b377229c10585ec392f89,626b3ab23d49090b081d6454,,,,,,,,,,,,,,,,,,,,,,,a,0,0.7871,"[""0.100"",""0.249"",""0.515"",""0.575""]","[1,1,1,0]",0,36,36,36,1,1,1,,,0,FALSE,,,,,,,,,,,,,,,,,,,,,,,,,,,,,,
,5e3e11a36a0b8a000c609d5e,001,2022-04-28_20h10.21.187,classification_task,2021.2.3,Win32,59.99520038,5e3e11a36a0b8a000c609d5e,626b377229c10585ec392f89,626b3ab23d49090b081d6454,,,,,,,,,,,,,,,,,,,,,,,l,1,0.6062,"[""0.060"",""0.298"",""0.667"",""0.141""]","[1,1,1,0]",0,37,37,37,1,1,0,,,0,FALSE,,,,,,,,,,,,,,,,,,,,,,,,,,,,,,
,5e3e11a36a0b8a000c609d5e,001,2022-04-28_20h10.21.187,classification_task,2021.2.3,Win32,59.99520038,5e3e11a36a0b8a000c609d5e,626b377229c10585ec392f89,626b3ab23d49090b081d6454,,,,,,,,,,,,,,,,,,,,,,,a,0,1.121,"[""0.100"",""0.575"",""0.515"",""0.802""]","[1,0,1,1]",0,38,38,38,1,1,1,,,0,FALSE,,,,,,,,,,,,,,,,,,,,,,,,,,,,,,
,5e3e11a36a0b8a000c609d5e,001,2022-04-28_20h10.21.187,classification_task,2021.2.3,Win32,59.99520038,5e3e11a36a0b8a000c609d5e,626b377229c10585ec392f89,626b3ab23d49090b081d6454,,,,,,,,,,,,,,,,,,,,,,,a,1,0.5023,"[""0.183"",""0.432"",""0.573"",""0.892""]","[1,1,0,1]",0,39,39,39,1,0,0,,,0,FALSE,,,,,,,,,,,,,,,,,,,,,,,,,,,,,,
,5e3e11a36a0b8a000c609d5e,001,2022-04-28_20h10.21.187,classification_task,2021.2.3,Win32,59.99520038,5e3e11a36a0b8a000c609d5e,626b377229c10585ec392f89,626b3ab23d49090b081d6454,,,,,,,,,,,,,,,,,,,,,,,a,1,0.7875,"[""0.573"",""0.432"",""0.617"",""0.892""]","[0,1,1,1]",0,40,40,40,1,0,0,,,0,FALSE,,,,,,,,,,,,,,,,,,,,,,,,,,,,,,
,5e3e11a36a0b8a000c609d5e,001,2022-04-28_20h10.21.187,classification_task,2021.2.3,Win32,59.99520038,5e3e11a36a0b8a000c609d5e,626b377229c10585ec392f89,626b3ab23d49090b081d6454,,,,,,,,,,,,,,,,,,,,,,,l,0,0.8534,"[""0.216"",""0.347"",""0.723"",""0.141""]","[1,1,1,0]",0,41,41,41,1,0,1,,,0,FALSE,,,,,,,,,,,,,,,,,,,,,,,,,,,,,,
,5e3e11a36a0b8a000c609d5e,001,2022-04-28_20h10.21.187,classification_task,2021.2.3,Win32,59.99520038,5e3e11a36a0b8a000c609d5e,626b377229c10585ec392f89,626b3ab23d49090b081d6454,,,,,,,,,,,,,,,,,,,,,,,a,1,0.7528,"[""0.216"",""0.347"",""0.146"",""0.957""]","[1,1,0,1]",0,42,42,42,1,0,1,,,0,FALSE,,,,,,,,,,,,,,,,,,,,,,,,,,,,,,
,5e3e11a36a0b8a000c609d5e,001,2022-04-28_20h10.21.187,classification_task,2021.2.3,Win32,59.99520038,5e3e11a36a0b8a000c609d5e,626b377229c10585ec392f89,626b3ab23d49090b081d6454,,,,,,,,,,,,,,,,,,,,,,,l,1,0.6656,"[""0.060"",""0.298"",""0.560"",""0.837""]","[1,1,0,1]",0,43,43,43,1,1,0,,,0,FALSE,,,,,,,,,,,,,,,,,,,,,,,,,,,,,,
,5e3e11a36a0b8a000c609d5e,001,2022-04-28_20h10.21.187,classification_task,2021.2.3,Win32,59.99520038,5e3e11a36a0b8a000c609d5e,626b377229c10585ec392f89,626b3ab23d49090b081d6454,,,,,,,,,,,,,,,,,,,,,,,l,1,0.7289,"[""0.575"",""0.298"",""0.667"",""0.837""]","[0,1,1,1]",0,44,44,44,1,1,0,,,0,FALSE,,,,,,,,,,,,,,,,,,,,,,,,,,,,,,
,5e3e11a36a0b8a000c609d5e,001,2022-04-28_20h10.21.187,classification_task,2021.2.3,Win32,59.99520038,5e3e11a36a0b8a000c609d5e,626b377229c10585ec392f89,626b3ab23d49090b081d6454,,,,,,,,,,,,,,,,,,,,,,,a,1,0.7863,"[""0.183"",""0.432"",""0.617"",""0.471""]","[1,1,1,0]",0,45,45,45,1,0,0,,,0,FALSE,,,,,,,,,,,,,,,,,,,,,,,,,,,,,,
,5e3e11a36a0b8a000c609d5e,001,2022-04-28_20h10.21.187,classification_task,2021.2.3,Win32,59.99520038,5e3e11a36a0b8a000c609d5e,626b377229c10585ec392f89,626b3ab23d49090b081d6454,,,,,,,,,,,,,,,,,,,,,,,a,1,0.7593,"[""0.183"",""0.136"",""0.617"",""0.892""]","[1,0,1,1]",0,46,46,46,1,0,0,,,0,FALSE,,,,,,,,,,,,,,,,,,,,,,,,,,,,,,
,5e3e11a36a0b8a000c609d5e,001,2022-04-28_20h10.21.187,classification_task,2021.2.3,Win32,59.99520038,5e3e11a36a0b8a000c609d5e,626b377229c10585ec392f89,626b3ab23d49090b081d6454,,,,,,,,,,,,,,,,,,,,,,,l,0,0.8814,"[""0.146"",""0.347"",""0.723"",""0.957""]","[0,1,1,1]",0,47,47,47,1,0,1,,,0,FALSE,,,,,,,,,,,,,,,,,,,,,,,,,,,,,,
,5e3e11a36a0b8a000c609d5e,001,2022-04-28_20h10.21.187,classification_task,2021.2.3,Win32,59.99520038,5e3e11a36a0b8a000c609d5e,626b377229c10585ec392f89,626b3ab23d49090b081d6454,,,,,,,,,,,,,,,,,,,,,,,l,0,0.7556,"[""0.216"",""0.347"",""0.723"",""0.766""]","[1,1,1,0]",0,48,48,48,1,0,1,,,0,FALSE,,,,,,,,,,,,,,,,,,,,,,,,,,,,,,
,5e3e11a36a0b8a000c609d5e,001,2022-04-28_20h10.21.187,classification_task,2021.2.3,Win32,59.99520038,5e3e11a36a0b8a000c609d5e,626b377229c10585ec392f89,626b3ab23d49090b081d6454,,,,,,,,,,,,,,,,,,,,,,,a,0,0.7032,"[""0.100"",""0.249"",""0.515"",""0.143""]","[1,1,1,0]",0,49,49,49,1,1,1,,,0,FALSE,,,,,,,,,,,,,,,,,,,,,,,,,,,,,,
,5e3e11a36a0b8a000c609d5e,001,2022-04-28_20h10.21.187,classification_task,2021.2.3,Win32,59.99520038,5e3e11a36a0b8a000c609d5e,626b377229c10585ec392f89,626b3ab23d49090b081d6454,,,,,,,,,,,,,,,,,,,,,,,a,0,0.6487,"[""0.060"",""0.298"",""0.667"",""0.575""]","[1,1,1,0]",0,50,50,50,1,1,0,,,0,FALSE,,,,,,,,,,,,,,,,,,,,,,,,,,,,,,
,5e3e11a36a0b8a000c609d5e,001,2022-04-28_20h10.21.187,classification_task,2021.2.3,Win32,59.99520038,5e3e11a36a0b8a000c609d5e,626b377229c10585ec392f89,626b3ab23d49090b081d6454,,,,,,,,,,,,,,,,,,,,,,,a,1,0.8852,"[""0.568"",""0.347"",""0.723"",""0.957""]","[0,1,1,1]",0,51,51,51,1,0,1,,,0,FALSE,,,,,,,,,,,,,,,,,,,,,,,,,,,,,,
,5e3e11a36a0b8a000c609d5e,001,2022-04-28_20h10.21.187,classification_task,2021.2.3,Win32,59.99520038,5e3e11a36a0b8a000c609d5e,626b377229c10585ec392f89,626b3ab23d49090b081d6454,,,,,,,,,,,,,,,,,,,,,,,l,1,0.5874,"[""0.060"",""0.298"",""0.766"",""0.837""]","[1,1,0,1]",0,52,52,52,1,1,0,,,0,FALSE,,,,,,,,,,,,,,,,,,,,,,,,,,,,,,
,5e3e11a36a0b8a000c609d5e,001,2022-04-28_20h10.21.187,classification_task,2021.2.3,Win32,59.99520038,5e3e11a36a0b8a000c609d5e,626b377229c10585ec392f89,626b3ab23d49090b081d6454,,,,,,,,,,,,,,,,,,,,,,,l,1,0.9166,"[""0.100"",""0.568"",""0.515"",""0.802""]","[1,0,1,1]",0,53,53,53,1,1,1,,,0,FALSE,,,,,,,,,,,,,,,,,,,,,,,,,,,,,,
,5e3e11a36a0b8a000c609d5e,001,2022-04-28_20h10.21.187,classification_task,2021.2.3,Win32,59.99520038,5e3e11a36a0b8a000c609d5e,626b377229c10585ec392f89,626b3ab23d49090b081d6454,,,,,,,,,,,,,,,,,,,,,,,l,1,0.8999,"[""0.100"",""0.249"",""0.479"",""0.802""]","[1,1,0,1]",0,54,54,54,1,1,1,,,0,FALSE,,,,,,,,,,,,,,,,,,,,,,,,,,,,,,
,5e3e11a36a0b8a000c609d5e,001,2022-04-28_20h10.21.187,classification_task,2021.2.3,Win32,59.99520038,5e3e11a36a0b8a000c609d5e,626b377229c10585ec392f89,626b3ab23d49090b081d6454,,,,,,,,,,,,,,,,,,,,,,,a,0,0.8573,"[""0.573"",""0.249"",""0.515"",""0.802""]","[0,1,1,1]",0,55,55,55,1,1,1,,,0,FALSE,,,,,,,,,,,,,,,,,,,,,,,,,,,,,,
,5e3e11a36a0b8a000c609d5e,001,2022-04-28_20h10.21.187,classification_task,2021.2.3,Win32,59.99520038,5e3e11a36a0b8a000c609d5e,626b377229c10585ec392f89,626b3ab23d49090b081d6454,,,,,,,,,,,,,,,,,,,,,,,l,1,0.7306,"[""0.060"",""0.573"",""0.667"",""0.837""]","[1,0,1,1]",0,56,56,56,1,1,0,,,0,FALSE,,,,,,,,,,,,,,,,,,,,,,,,,,,,,,
,5e3e11a36a0b8a000c609d5e,001,2022-04-28_20h10.21.187,classification_task,2021.2.3,Win32,59.99520038,5e3e11a36a0b8a000c609d5e,626b377229c10585ec392f89,626b3ab23d49090b081d6454,,,,,,,,,,,,,,,,,,,,,,,a,1,0.6537,"[""0.183"",""0.432"",""0.139"",""0.892""]","[1,1,0,1]",0,57,57,57,1,0,0,,,0,FALSE,,,,,,,,,,,,,,,,,,,,,,,,,,,,,,
,5e3e11a36a0b8a000c609d5e,001,2022-04-28_20h10.21.187,classification_task,2021.2.3,Win32,59.99520038,5e3e11a36a0b8a000c609d5e,626b377229c10585ec392f89,626b3ab23d49090b081d6454,,,,,,,,,,,,,,,,,,,,,,,l,0,0.9041,"[""0.216"",""0.549"",""0.723"",""0.957""]","[1,0,1,1]",0,58,58,58,1,0,1,,,0,FALSE,,,,,,,,,,,,,,,,,,,,,,,,,,,,,,
,5e3e11a36a0b8a000c609d5e,001,2022-04-28_20h10.21.187,classification_task,2021.2.3,Win32,59.99520038,5e3e11a36a0b8a000c609d5e,626b377229c10585ec392f89,626b3ab23d49090b081d6454,,,,,,,,,,,,,,,,,,,,,,,a,1,0.9682,"[""0.183"",""0.471"",""0.617"",""0.892""]","[1,0,1,1]",0,59,59,59,1,0,0,,,0,FALSE,,,,,,,,,,,,,,,,,,,,,,,,,,,,,,
,5e3e11a36a0b8a000c609d5e,001,2022-04-28_20h10.21.187,classification_task,2021.2.3,Win32,59.99520038,5e3e11a36a0b8a000c609d5e,626b377229c10585ec392f89,626b3ab23d49090b081d6454,,,,,,,,,,,,,,,,,,,,,,,l,1,0.5956,"[""0.766"",""0.298"",""0.667"",""0.837""]","[0,1,1,1]",0,60,60,60,1,1,0,,,0,FALSE,,,,,,,,,,,,,,,,,,,,,,,,,,,,,,
,5e3e11a36a0b8a000c609d5e,001,2022-04-28_20h10.21.187,classification_task,2021.2.3,Win32,59.99520038,5e3e11a36a0b8a000c609d5e,626b377229c10585ec392f89,626b3ab23d49090b081d6454,,,,,,,,,,,,,,,,,,,,,,,a,1,0.7596,"[""0.216"",""0.347"",""0.573"",""0.957""]","[1,1,0,1]",0,61,61,61,1,0,1,,,0,FALSE,,,,,,,,,,,,,,,,,,,,,,,,,,,,,,
,5e3e11a36a0b8a000c609d5e,001,2022-04-28_20h10.21.187,classification_task,2021.2.3,Win32,59.99520038,5e3e11a36a0b8a000c609d5e,626b377229c10585ec392f89,626b3ab23d49090b081d6454,,,,,,,,,,,,,,,,,,,,,,,l,0,0.8505,"[""0.183"",""0.432"",""0.617"",""0.146""]","[1,1,1,0]",0,62,62,62,1,0,0,,,0,FALSE,,,,,,,,,,,,,,,,,,,,,,,,,,,,,,
,5e3e11a36a0b8a000c609d5e,001,2022-04-28_20h10.21.187,classification_task,2021.2.3,Win32,59.99520038,5e3e11a36a0b8a000c609d5e,626b377229c10585ec392f89,626b3ab23d49090b081d6454,,,,,,,,,,,,,,,,,,,,,,,a,1,0.8052,"[""0.471"",""0.432"",""0.617"",""0.892""]","[0,1,1,1]",0,63,63,63,1,0,0,,,0,FALSE,,,,,,,,,,,,,,,,,,,,,,,,,,,,,,
,5e3e11a36a0b8a000c609d5e,001,2022-04-28_20h10.21.187,classification_task,2021.2.3,Win32,59.99520038,5e3e11a36a0b8a000c609d5e,626b377229c10585ec392f89,626b3ab23d49090b081d6454,,,,,,,,,,,,,,,,,,,,,,,,,,,,,,,,,,,,,,,0, ,,0,8.159905938,144.4654,0,1,1,1,1,2,2,,,,,,,,,,,,,,,,,
,5e3e11a36a0b8a000c609d5e,001,2022-04-28_20h10.21.187,classification_task,2021.2.3,Win32,59.99520038,5e3e11a36a0b8a000c609d5e,626b377229c10585ec392f89,626b3ab23d49090b081d6454,,,,,,,,,,,,,,,,,,,,,,,,,,,,,,,,,,,,,,,1,  ,,0,5.90632961,148.0299,0,1,1,1,1,2,2,,,,,,,,,,,,,,,,,
,5e3e11a36a0b8a000c609d5e,001,2022-04-28_20h10.21.187,classification_task,2021.2.3,Win32,59.99520038,5e3e11a36a0b8a000c609d5e,626b377229c10585ec392f89,626b3ab23d49090b081d6454,,,,,,,,,,,,,,,,,,,,,,,,,,,,,,,,,,,,,,,2,  ,,0,4.412110523,150.0975,0,1,1,1,1,2,2,,,,,,,,,,,,,,,,,
,5e3e11a36a0b8a000c609d5e,001,2022-04-28_20h10.21.187,classification_task,2021.2.3,Win32,59.99520038,5e3e11a36a0b8a000c609d5e,626b377229c10585ec392f89,626b3ab23d49090b081d6454,,,,,,,,,,,,,,,,,,,,,,,,,,,,,,,,,,,,,,,,,,,,,0,1,1,1,1,,2,,,,,,,,,,,,,,,,,
,5e3e11a36a0b8a000c609d5e,001,2022-04-28_20h10.21.187,classification_task,2021.2.3,Win32,59.99520038,5e3e11a36a0b8a000c609d5e,626b377229c10585ec392f89,626b3ab23d49090b081d6454,,,,,,,,,,,,,,,,,,,,,space,9.6577,l,1,1.6092,"[""0.139"",""0.298"",""0.667"",""0.837""]","[0,1,1,1]",0,0,0,0,1,1,0,,,0,FALSE,,,,,,,,,,,,,,,,,,,,,,,,,,,,,,
,5e3e11a36a0b8a000c609d5e,001,2022-04-28_20h10.21.187,classification_task,2021.2.3,Win32,59.99520038,5e3e11a36a0b8a000c609d5e,626b377229c10585ec392f89,626b3ab23d49090b081d6454,,,,,,,,,,,,,,,,,,,,,,,a,0,1.2052,"[""0.060"",""0.298"",""0.146"",""0.837""]","[1,1,0,1]",0,1,1,1,1,1,0,,,0,FALSE,,,,,,,,,,,,,,,,,,,,,,,,,,,,,,
,5e3e11a36a0b8a000c609d5e,001,2022-04-28_20h10.21.187,classification_task,2021.2.3,Win32,59.99520038,5e3e11a36a0b8a000c609d5e,626b377229c10585ec392f89,626b3ab23d49090b081d6454,,,,,,,,,,,,,,,,,,,,,,,a,1,1.2828,"[""0.183"",""0.432"",""0.617"",""0.471""]","[1,1,1,0]",0,2,2,2,1,0,0,,,0,FALSE,,,,,,,,,,,,,,,,,,,,,,,,,,,,,,
,5e3e11a36a0b8a000c609d5e,001,2022-04-28_20h10.21.187,classification_task,2021.2.3,Win32,59.99520038,5e3e11a36a0b8a000c609d5e,626b377229c10585ec392f89,626b3ab23d49090b081d6454,,,,,,,,,,,,,,,,,,,,,,,l,0,0.7171,"[""0.139"",""0.347"",""0.723"",""0.957""]","[0,1,1,1]",0,3,3,3,1,0,1,,,0,FALSE,,,,,,,,,,,,,,,,,,,,,,,,,,,,,,
,5e3e11a36a0b8a000c609d5e,001,2022-04-28_20h10.21.187,classification_task,2021.2.3,Win32,59.99520038,5e3e11a36a0b8a000c609d5e,626b377229c10585ec392f89,626b3ab23d49090b081d6454,,,,,,,,,,,,,,,,,,,,,,,a,0,0.4793,"[""0.060"",""0.298"",""0.667"",""0.568""]","[1,1,1,0]",0,4,4,4,1,1,0,,,0,FALSE,,,,,,,,,,,,,,,,,,,,,,,,,,,,,,
,5e3e11a36a0b8a000c609d5e,001,2022-04-28_20h10.21.187,classification_task,2021.2.3,Win32,59.99520038,5e3e11a36a0b8a000c609d5e,626b377229c10585ec392f89,626b3ab23d49090b081d6454,,,,,,,,,,,,,,,,,,,,,,,l,0,0.3715,"[""0.216"",""0.568"",""0.723"",""0.957""]","[1,0,1,1]",0,5,5,5,1,0,1,,,0,FALSE,,,,,,,,,,,,,,,,,,,,,,,,,,,,,,
,5e3e11a36a0b8a000c609d5e,001,2022-04-28_20h10.21.187,classification_task,2021.2.3,Win32,59.99520038,5e3e11a36a0b8a000c609d5e,626b377229c10585ec392f89,626b3ab23d49090b081d6454,,,,,,,,,,,,,,,,,,,,,,,a,0,0.4833,"[""0.060"",""0.568"",""0.667"",""0.837""]","[1,0,1,1]",0,6,6,6,1,1,0,,,0,FALSE,,,,,,,,,,,,,,,,,,,,,,,,,,,,,,
,5e3e11a36a0b8a000c609d5e,001,2022-04-28_20h10.21.187,classification_task,2021.2.3,Win32,59.99520038,5e3e11a36a0b8a000c609d5e,626b377229c10585ec392f89,626b3ab23d49090b081d6454,,,,,,,,,,,,,,,,,,,,,,,a,1,0.2319,"[""0.216"",""0.347"",""0.573"",""0.957""]","[1,1,0,1]",0,7,7,7,1,0,1,,,0,FALSE,,,,,,,,,,,,,,,,,,,,,,,,,,,,,,
,5e3e11a36a0b8a000c609d5e,001,2022-04-28_20h10.21.187,classification_task,2021.2.3,Win32,59.99520038,5e3e11a36a0b8a000c609d5e,626b377229c10585ec392f89,626b3ab23d49090b081d6454,,,,,,,,,,,,,,,,,,,,,,,l,1,0.3598,"[""0.146"",""0.249"",""0.515"",""0.802""]","[0,1,1,1]",0,8,8,8,1,1,1,,,0,FALSE,,,,,,,,,,,,,,,,,,,,,,,,,,,,,,
,5e3e11a36a0b8a000c609d5e,001,2022-04-28_20h10.21.187,classification_task,2021.2.3,Win32,59.99520038,5e3e11a36a0b8a000c609d5e,626b377229c10585ec392f89,626b3ab23d49090b081d6454,,,,,,,,,,,,,,,,,,,,,,,l,1,0.6452,"[""0.100"",""0.568"",""0.515"",""0.802""]","[1,0,1,1]",0,9,9,9,1,1,1,,,0,FALSE,,,,,,,,,,,,,,,,,,,,,,,,,,,,,,
,5e3e11a36a0b8a000c609d5e,001,2022-04-28_20h10.21.187,classification_task,2021.2.3,Win32,59.99520038,5e3e11a36a0b8a000c609d5e,626b377229c10585ec392f89,626b3ab23d49090b081d6454,,,,,,,,,,,,,,,,,,,,,,,a,1,0.2354,"[""0.133"",""0.432"",""0.617"",""0.892""]","[0,1,1,1]",0,10,10,10,1,0,0,,,0,FALSE,,,,,,,,,,,,,,,,,,,,,,,,,,,,,,
,5e3e11a36a0b8a000c609d5e,001,2022-04-28_20h10.21.187,classification_task,2021.2.3,Win32,59.99520038,5e3e11a36a0b8a000c609d5e,626b377229c10585ec392f89,626b3ab23d49090b081d6454,,,,,,,,,,,,,,,,,,,,,,,l,0,0.2721,"[""0.183"",""0.432"",""0.560"",""0.892""]","[1,1,0,1]",0,11,11,11,1,0,0,,,0,FALSE,,,,,,,,,,,,,,,,,,,,,,,,,,,,,,
,5e3e11a36a0b8a000c609d5e,001,2022-04-28_20h10.21.187,classification_task,2021.2.3,Win32,59.99520038,5e3e11a36a0b8a000c609d5e,626b377229c10585ec392f89,626b3ab23d49090b081d6454,,,,,,,,,,,,,,,,,,,,,,,a,1,0.2672,"[""0.216"",""0.347"",""0.723"",""0.146""]","[1,1,1,0]",0,12,12,12,1,0,1,,,0,FALSE,,,,,,,,,,,,,,,,,,,,,,,,,,,,,,
,5e3e11a36a0b8a000c609d5e,001,2022-04-28_20h10.21.187,classification_task,2021.2.3,Win32,59.99520038,5e3e11a36a0b8a000c609d5e,626b377229c10585ec392f89,626b3ab23d49090b081d6454,,,,,,,,,,,,,,,,,,,,,,,a,0,0.2348,"[""0.100"",""0.249"",""0.573"",""0.802""]","[1,1,0,1]",0,13,13,13,1,1,1,,,0,FALSE,,,,,,,,,,,,,,,,,,,,,,,,,,,,,,
,5e3e11a36a0b8a000c609d5e,001,2022-04-28_20h10.21.187,classification_task,2021.2.3,Win32,59.99520038,5e3e11a36a0b8a000c609d5e,626b377229c10585ec392f89,626b3ab23d49090b081d6454,,,,,,,,,,,,,,,,,,,,,,,l,0,0.2387,"[""0.183"",""0.573"",""0.617"",""0.892""]","[1,0,1,1]",0,14,14,14,1,0,0,,,0,FALSE,,,,,,,,,,,,,,,,,,,,,,,,,,,,,,
,5e3e11a36a0b8a000c609d5e,001,2022-04-28_20h10.21.187,classification_task,2021.2.3,Win32,59.99520038,5e3e11a36a0b8a000c609d5e,626b377229c10585ec392f89,626b3ab23d49090b081d6454,,,,,,,,,,,,,,,,,,,,,,,a,0,0.2337,"[""0.100"",""0.249"",""0.515"",""0.141""]","[1,1,1,0]",0,15,15,15,1,1,1,,,0,FALSE,,,,,,,,,,,,,,,,,,,,,,,,,,,,,,
,5e3e11a36a0b8a000c609d5e,001,2022-04-28_20h10.21.187,classification_task,2021.2.3,Win32,59.99520038,5e3e11a36a0b8a000c609d5e,626b377229c10585ec392f89,626b3ab23d49090b081d6454,,,,,,,,,,,,,,,,,,,,,,,l,0,0.2305,"[""0.560"",""0.347"",""0.723"",""0.957""]","[0,1,1,1]",0,16,16,16,1,0,1,,,0,FALSE,,,,,,,,,,,,,,,,,,,,,,,,,,,,,,
,5e3e11a36a0b8a000c609d5e,001,2022-04-28_20h10.21.187,classification_task,2021.2.3,Win32,59.99520038,5e3e11a36a0b8a000c609d5e,626b377229c10585ec392f89,626b3ab23d49090b081d6454,,,,,,,,,,,,,,,,,,,,,,,l,1,0.2565,"[""0.060"",""0.298"",""0.667"",""0.133""]","[1,1,1,0]",0,17,17,17,1,1,0,,,0,FALSE,,,,,,,,,,,,,,,,,,,,,,,,,,,,,,
,5e3e11a36a0b8a000c609d5e,001,2022-04-28_20h10.21.187,classification_task,2021.2.3,Win32,59.99520038,5e3e11a36a0b8a000c609d5e,626b377229c10585ec392f89,626b3ab23d49090b081d6454,,,,,,,,,,,,,,,,,,,,,,,a,0,0.2229,"[""0.100"",""0.471"",""0.515"",""0.802""]","[1,0,1,1]",0,18,18,18,1,1,1,,,0,FALSE,,,,,,,,,,,,,,,,,,,,,,,,,,,,,,
,5e3e11a36a0b8a000c609d5e,001,2022-04-28_20h10.21.187,classification_task,2021.2.3,Win32,59.99520038,5e3e11a36a0b8a000c609d5e,626b377229c10585ec392f89,626b3ab23d49090b081d6454,,,,,,,,,,,,,,,,,,,,,,,l,0,0.2207,"[""0.216"",""0.471"",""0.723"",""0.957""]","[1,0,1,1]",0,19,19,19,1,0,1,,,0,FALSE,,,,,,,,,,,,,,,,,,,,,,,,,,,,,,
,5e3e11a36a0b8a000c609d5e,001,2022-04-28_20h10.21.187,classification_task,2021.2.3,Win32,59.99520038,5e3e11a36a0b8a000c609d5e,626b377229c10585ec392f89,626b3ab23d49090b081d6454,,,,,,,,,,,,,,,,,,,,,,,a,0,0.2469,"[""0.060"",""0.298"",""0.560"",""0.837""]","[1,1,0,1]",0,20,20,20,1,1,0,,,0,FALSE,,,,,,,,,,,,,,,,,,,,,,,,,,,,,,
,5e3e11a36a0b8a000c609d5e,001,2022-04-28_20h10.21.187,classification_task,2021.2.3,Win32,59.99520038,5e3e11a36a0b8a000c609d5e,626b377229c10585ec392f89,626b3ab23d49090b081d6454,,,,,,,,,,,,,,,,,,,,,,,l,0,0.2988,"[""0.216"",""0.347"",""0.133"",""0.957""]","[1,1,0,1]",0,21,21,21,1,0,1,,,0,FALSE,,,,,,,,,,,,,,,,,,,,,,,,,,,,,,
,5e3e11a36a0b8a000c609d5e,001,2022-04-28_20h10.21.187,classification_task,2021.2.3,Win32,59.99520038,5e3e11a36a0b8a000c609d5e,626b377229c10585ec392f89,626b3ab23d49090b081d6454,,,,,,,,,,,,,,,,,,,,,,,l,0,0.2304,"[""0.183"",""0.432"",""0.617"",""0.479""]","[1,1,1,0]",0,22,22,22,1,0,0,,,0,FALSE,,,,,,,,,,,,,,,,,,,,,,,,,,,,,,
,5e3e11a36a0b8a000c609d5e,001,2022-04-28_20h10.21.187,classification_task,2021.2.3,Win32,59.99520038,5e3e11a36a0b8a000c609d5e,626b377229c10585ec392f89,626b3ab23d49090b081d6454,,,,,,,,,,,,,,,,,,,,,,,a,1,0.2186,"[""0.183"",""0.432"",""0.549"",""0.892""]","[1,1,0,1]",0,23,23,23,1,0,0,,,0,FALSE,,,,,,,,,,,,,,,,,,,,,,,,,,,,,,
,5e3e11a36a0b8a000c609d5e,001,2022-04-28_20h10.21.187,classification_task,2021.2.3,Win32,59.99520038,5e3e11a36a0b8a000c609d5e,626b377229c10585ec392f89,626b3ab23d49090b081d6454,,,,,,,,,,,,,,,,,,,,,,,l,1,0.2317,"[""0.100"",""0.249"",""0.515"",""0.560""]","[1,1,1,0]",0,24,24,24,1,1,1,,,0,FALSE,,,,,,,,,,,,,,,,,,,,,,,,,,,,,,
,5e3e11a36a0b8a000c609d5e,001,2022-04-28_20h10.21.187,classification_task,2021.2.3,Win32,59.99520038,5e3e11a36a0b8a000c609d5e,626b377229c10585ec392f89,626b3ab23d49090b081d6454,,,,,,,,,,,,,,,,,,,,,,,a,0,0.1833,"[""0.133"",""0.249"",""0.515"",""0.802""]","[0,1,1,1]",0,25,25,25,1,1,1,,,0,FALSE,,,,,,,,,,,,,,,,,,,,,,,,,,,,,,
,5e3e11a36a0b8a000c609d5e,001,2022-04-28_20h10.21.187,classification_task,2021.2.3,Win32,59.99520038,5e3e11a36a0b8a000c609d5e,626b377229c10585ec392f89,626b3ab23d49090b081d6454,,,,,,,,,,,,,,,,,,,,,,,a,0,0.2844,"[""0.060"",""0.133"",""0.667"",""0.837""]","[1,0,1,1]",0,26,26,26,1,1,0,,,0,FALSE,,,,,,,,,,,,,,,,,,,,,,,,,,,,,,
,5e3e11a36a0b8a000c609d5e,001,2022-04-28_20h10.21.187,classification_task,2021.2.3,Win32,59.99520038,5e3e11a36a0b8a000c609d5e,626b377229c10585ec392f89,626b3ab23d49090b081d6454,,,,,,,,,,,,,,,,,,,,,,,l,1,0.2218,"[""0.146"",""0.298"",""0.667"",""0.837""]","[0,1,1,1]",0,27,27,27,1,1,0,,,0,FALSE,,,,,,,,,,,,,,,,,,,,,,,,,,,,,,
,5e3e11a36a0b8a000c609d5e,001,2022-04-28_20h10.21.187,classification_task,2021.2.3,Win32,59.99520038,5e3e11a36a0b8a000c609d5e,626b377229c10585ec392f89,626b3ab23d49090b081d6454,,,,,,,,,,,,,,,,,,,,,,,a,1,0.2614,"[""0.183"",""0.139"",""0.617"",""0.892""]","[1,0,1,1]",0,28,28,28,1,0,0,,,0,FALSE,,,,,,,,,,,,,,,,,,,,,,,,,,,,,,
,5e3e11a36a0b8a000c609d5e,001,2022-04-28_20h10.21.187,classification_task,2021.2.3,Win32,59.99520038,5e3e11a36a0b8a000c609d5e,626b377229c10585ec392f89,626b3ab23d49090b081d6454,,,,,,,,,,,,,,,,,,,,,,,l,0,0.1872,"[""0.216"",""0.347"",""0.723"",""0.766""]","[1,1,1,0]",0,29,29,29,1,0,1,,,0,FALSE,,,,,,,,,,,,,,,,,,,,,,,,,,,,,,
,5e3e11a36a0b8a000c609d5e,001,2022-04-28_20h10.21.187,classification_task,2021.2.3,Win32,59.99520038,5e3e11a36a0b8a000c609d5e,626b377229c10585ec392f89,626b3ab23d49090b081d6454,,,,,,,,,,,,,,,,,,,,,,,l,1,0.4521,"[""0.100"",""0.249"",""0.766"",""0.802""]","[1,1,0,1]",0,30,30,30,1,1,1,,,0,FALSE,,,,,,,,,,,,,,,,,,,,,,,,,,,,,,
,5e3e11a36a0b8a000c609d5e,001,2022-04-28_20h10.21.187,classification_task,2021.2.3,Win32,59.99520038,5e3e11a36a0b8a000c609d5e,626b377229c10585ec392f89,626b3ab23d49090b081d6454,,,,,,,,,,,,,,,,,,,,,,,a,1,0.22,"[""0.141"",""0.432"",""0.617"",""0.892""]","[0,1,1,1]",0,31,31,31,1,0,0,,,0,FALSE,,,,,,,,,,,,,,,,,,,,,,,,,,,,,,
,5e3e11a36a0b8a000c609d5e,001,2022-04-28_20h10.21.187,classification_task,2021.2.3,Win32,59.99520038,5e3e11a36a0b8a000c609d5e,626b377229c10585ec392f89,626b3ab23d49090b081d6454,,,,,,,,,,,,,,,,,,,,,,,l,0,0.2222,"[""0.183"",""0.560"",""0.617"",""0.892""]","[1,0,1,1]",0,32,32,32,1,0,0,,,0,FALSE,,,,,,,,,,,,,,,,,,,,,,,,,,,,,,
,5e3e11a36a0b8a000c609d5e,001,2022-04-28_20h10.21.187,classification_task,2021.2.3,Win32,59.99520038,5e3e11a36a0b8a000c609d5e,626b377229c10585ec392f89,626b3ab23d49090b081d6454,,,,,,,,,,,,,,,,,,,,,,,a,0,0.2538,"[""0.100"",""0.249"",""0.549"",""0.802""]","[1,1,0,1]",0,33,33,33,1,1,1,,,0,FALSE,,,,,,,,,,,,,,,,,,,,,,,,,,,,,,
,5e3e11a36a0b8a000c609d5e,001,2022-04-28_20h10.21.187,classification_task,2021.2.3,Win32,59.99520038,5e3e11a36a0b8a000c609d5e,626b377229c10585ec392f89,626b3ab23d49090b081d6454,,,,,,,,,,,,,,,,,,,,,,,l,1,0.2226,"[""0.100"",""0.133"",""0.515"",""0.802""]","[1,0,1,1]",0,34,34,34,1,1,1,,,0,FALSE,,,,,,,,,,,,,,,,,,,,,,,,,,,,,,
,5e3e11a36a0b8a000c609d5e,001,2022-04-28_20h10.21.187,classification_task,2021.2.3,Win32,59.99520038,5e3e11a36a0b8a000c609d5e,626b377229c10585ec392f89,626b3ab23d49090b081d6454,,,,,,,,,,,,,,,,,,,,,,,a,0,0.318,"[""0.060"",""0.298"",""0.667"",""0.143""]","[1,1,1,0]",0,35,35,35,1,1,0,,,0,FALSE,,,,,,,,,,,,,,,,,,,,,,,,,,,,,,
,5e3e11a36a0b8a000c609d5e,001,2022-04-28_20h10.21.187,classification_task,2021.2.3,Win32,59.99520038,5e3e11a36a0b8a000c609d5e,626b377229c10585ec392f89,626b3ab23d49090b081d6454,,,,,,,,,,,,,,,,,,,,,,,l,0,0.2336,"[""0.216"",""0.575"",""0.723"",""0.957""]","[1,0,1,1]",0,36,36,36,1,0,1,,,0,FALSE,,,,,,,,,,,,,,,,,,,,,,,,,,,,,,
,5e3e11a36a0b8a000c609d5e,001,2022-04-28_20h10.21.187,classification_task,2021.2.3,Win32,59.99520038,5e3e11a36a0b8a000c609d5e,626b377229c10585ec392f89,626b3ab23d49090b081d6454,,,,,,,,,,,,,,,,,,,,,,,a,0,0.2733,"[""0.100"",""0.249"",""0.515"",""0.146""]","[1,1,1,0]",0,37,37,37,1,1,1,,,0,FALSE,,,,,,,,,,,,,,,,,,,,,,,,,,,,,,
,5e3e11a36a0b8a000c609d5e,001,2022-04-28_20h10.21.187,classification_task,2021.2.3,Win32,59.99520038,5e3e11a36a0b8a000c609d5e,626b377229c10585ec392f89,626b3ab23d49090b081d6454,,,,,,,,,,,,,,,,,,,,,,,l,0,0.2062,"[""0.183"",""0.432"",""0.479"",""0.892""]","[1,1,0,1]",0,38,38,38,1,0,0,,,0,FALSE,,,,,,,,,,,,,,,,,,,,,,,,,,,,,,
,5e3e11a36a0b8a000c609d5e,001,2022-04-28_20h10.21.187,classification_task,2021.2.3,Win32,59.99520038,5e3e11a36a0b8a000c609d5e,626b377229c10585ec392f89,626b3ab23d49090b081d6454,,,,,,,,,,,,,,,,,,,,,,,a,0,0.2352,"[""0.060"",""0.298"",""0.766"",""0.837""]","[1,1,0,1]",0,39,39,39,1,1,0,,,0,FALSE,,,,,,,,,,,,,,,,,,,,,,,,,,,,,,
,5e3e11a36a0b8a000c609d5e,001,2022-04-28_20h10.21.187,classification_task,2021.2.3,Win32,59.99520038,5e3e11a36a0b8a000c609d5e,626b377229c10585ec392f89,626b3ab23d49090b081d6454,,,,,,,,,,,,,,,,,,,,,,,a,1,0.2159,"[""0.216"",""0.347"",""0.471"",""0.957""]","[1,1,0,1]",0,40,40,40,1,0,1,,,0,FALSE,,,,,,,,,,,,,,,,,,,,,,,,,,,,,,
,5e3e11a36a0b8a000c609d5e,001,2022-04-28_20h10.21.187,classification_task,2021.2.3,Win32,59.99520038,5e3e11a36a0b8a000c609d5e,626b377229c10585ec392f89,626b3ab23d49090b081d6454,,,,,,,,,,,,,,,,,,,,,,,l,0,0.1675,"[""0.568"",""0.347"",""0.723"",""0.957""]","[0,1,1,1]",0,41,41,41,1,0,1,,,0,FALSE,,,,,,,,,,,,,,,,,,,,,,,,,,,,,,
,5e3e11a36a0b8a000c609d5e,001,2022-04-28_20h10.21.187,classification_task,2021.2.3,Win32,59.99520038,5e3e11a36a0b8a000c609d5e,626b377229c10585ec392f89,626b3ab23d49090b081d6454,,,,,,,,,,,,,,,,,,,,,,,a,1,0.1994,"[""0.216"",""0.347"",""0.723"",""0.471""]","[1,1,1,0]",0,42,42,42,1,0,1,,,0,FALSE,,,,,,,,,,,,,,,,,,,,,,,,,,,,,,
,5e3e11a36a0b8a000c609d5e,001,2022-04-28_20h10.21.187,classification_task,2021.2.3,Win32,59.99520038,5e3e11a36a0b8a000c609d5e,626b377229c10585ec392f89,626b3ab23d49090b081d6454,,,,,,,,,,,,,,,,,,,,,,,l,0,0.2421,"[""0.471"",""0.432"",""0.617"",""0.892""]","[0,1,1,1]",0,43,43,43,1,0,0,,,0,FALSE,,,,,,,,,,,,,,,,,,,,,,,,,,,,,,
,5e3e11a36a0b8a000c609d5e,001,2022-04-28_20h10.21.187,classification_task,2021.2.3,Win32,59.99520038,5e3e11a36a0b8a000c609d5e,626b377229c10585ec392f89,626b3ab23d49090b081d6454,,,,,,,,,,,,,,,,,,,,,,,a,0,0.1906,"[""0.141"",""0.249"",""0.515"",""0.802""]","[0,1,1,1]",0,44,44,44,1,1,1,,,0,FALSE,,,,,,,,,,,,,,,,,,,,,,,,,,,,,,
,5e3e11a36a0b8a000c609d5e,001,2022-04-28_20h10.21.187,classification_task,2021.2.3,Win32,59.99520038,5e3e11a36a0b8a000c609d5e,626b377229c10585ec392f89,626b3ab23d49090b081d6454,,,,,,,,,,,,,,,,,,,,,,,a,0,0.2688,"[""0.060"",""0.146"",""0.667"",""0.837""]","[1,0,1,1]",0,45,45,45,1,1,0,,,0,FALSE,,,,,,,,,,,,,,,,,,,,,,,,,,,,,,
,5e3e11a36a0b8a000c609d5e,001,2022-04-28_20h10.21.187,classification_task,2021.2.3,Win32,59.99520038,5e3e11a36a0b8a000c609d5e,626b377229c10585ec392f89,626b3ab23d49090b081d6454,,,,,,,,,,,,,,,,,,,,,,,l,1,0.1991,"[""0.143"",""0.298"",""0.667"",""0.837""]","[0,1,1,1]",0,46,46,46,1,1,0,,,0,FALSE,,,,,,,,,,,,,,,,,,,,,,,,,,,,,,
,5e3e11a36a0b8a000c609d5e,001,2022-04-28_20h10.21.187,classification_task,2021.2.3,Win32,59.99520038,5e3e11a36a0b8a000c609d5e,626b377229c10585ec392f89,626b3ab23d49090b081d6454,,,,,,,,,,,,,,,,,,,,,,,a,1,0.1742,"[""0.183"",""0.432"",""0.617"",""0.141""]","[1,1,1,0]",0,47,47,47,1,0,0,,,0,FALSE,,,,,,,,,,,,,,,,,,,,,,,,,,,,,,
,5e3e11a36a0b8a000c609d5e,001,2022-04-28_20h10.21.187,classification_task,2021.2.3,Win32,59.99520038,5e3e11a36a0b8a000c609d5e,626b377229c10585ec392f89,626b3ab23d49090b081d6454,,,,,,,,,,,,,,,,,,,,,,,l,1,0.2122,"[""0.060"",""0.471"",""0.667"",""0.837""]","[1,0,1,1]",0,48,48,48,1,1,0,,,0,FALSE,,,,,,,,,,,,,,,,,,,,,,,,,,,,,,
,5e3e11a36a0b8a000c609d5e,001,2022-04-28_20h10.21.187,classification_task,2021.2.3,Win32,59.99520038,5e3e11a36a0b8a000c609d5e,626b377229c10585ec392f89,626b3ab23d49090b081d6454,,,,,,,,,,,,,,,,,,,,,,,a,1,0.2577,"[""0.183"",""0.432"",""0.617"",""0.143""]","[1,1,1,0]",0,49,49,49,1,0,0,,,0,FALSE,,,,,,,,,,,,,,,,,,,,,,,,,,,,,,
,5e3e11a36a0b8a000c609d5e,001,2022-04-28_20h10.21.187,classification_task,2021.2.3,Win32,59.99520038,5e3e11a36a0b8a000c609d5e,626b377229c10585ec392f89,626b3ab23d49090b081d6454,,,,,,,,,,,,,,,,,,,,,,,a,0,0.2729,"[""0.100"",""0.139"",""0.515"",""0.802""]","[1,0,1,1]",0,50,50,50,1,1,1,,,0,FALSE,,,,,,,,,,,,,,,,,,,,,,,,,,,,,,
,5e3e11a36a0b8a000c609d5e,001,2022-04-28_20h10.21.187,classification_task,2021.2.3,Win32,59.99520038,5e3e11a36a0b8a000c609d5e,626b377229c10585ec392f89,626b3ab23d49090b081d6454,,,,,,,,,,,,,,,,,,,,,,,l,1,0.3076,"[""0.100"",""0.249"",""0.515"",""0.139""]","[1,1,1,0]",0,51,51,51,1,1,1,,,0,FALSE,,,,,,,,,,,,,,,,,,,,,,,,,,,,,,
,5e3e11a36a0b8a000c609d5e,001,2022-04-28_20h10.21.187,classification_task,2021.2.3,Win32,59.99520038,5e3e11a36a0b8a000c609d5e,626b377229c10585ec392f89,626b3ab23d49090b081d6454,,,,,,,,,,,,,,,,,,,,,,,a,0,0.2732,"[""0.133"",""0.249"",""0.515"",""0.802""]","[0,1,1,1]",0,52,52,52,1,1,1,,,0,FALSE,,,,,,,,,,,,,,,,,,,,,,,,,,,,,,
,5e3e11a36a0b8a000c609d5e,001,2022-04-28_20h10.21.187,classification_task,2021.2.3,Win32,59.99520038,5e3e11a36a0b8a000c609d5e,626b377229c10585ec392f89,626b3ab23d49090b081d6454,,,,,,,,,,,,,,,,,,,,,,,l,0,0.2286,"[""0.146"",""0.432"",""0.617"",""0.892""]","[0,1,1,1]",0,53,53,53,1,0,0,,,0,FALSE,,,,,,,,,,,,,,,,,,,,,,,,,,,,,,
,5e3e11a36a0b8a000c609d5e,001,2022-04-28_20h10.21.187,classification_task,2021.2.3,Win32,59.99520038,5e3e11a36a0b8a000c609d5e,626b377229c10585ec392f89,626b3ab23d49090b081d6454,,,,,,,,,,,,,,,,,,,,,,,a,0,0.2577,"[""0.060"",""0.298"",""0.667"",""0.568""]","[1,1,1,0]",0,54,54,54,1,1,0,,,0,FALSE,,,,,,,,,,,,,,,,,,,,,,,,,,,,,,
,5e3e11a36a0b8a000c609d5e,001,2022-04-28_20h10.21.187,classification_task,2021.2.3,Win32,59.99520038,5e3e11a36a0b8a000c609d5e,626b377229c10585ec392f89,626b3ab23d49090b081d6454,,,,,,,,,,,,,,,,,,,,,,,a,1,0.3116,"[""0.216"",""0.347"",""0.723"",""0.143""]","[1,1,1,0]",0,55,55,55,1,0,1,,,0,FALSE,,,,,,,,,,,,,,,,,,,,,,,,,,,,,,
,5e3e11a36a0b8a000c609d5e,001,2022-04-28_20h10.21.187,classification_task,2021.2.3,Win32,59.99520038,5e3e11a36a0b8a000c609d5e,626b377229c10585ec392f89,626b3ab23d49090b081d6454,,,,,,,,,,,,,,,,,,,,,,,l,1,0.2553,"[""0.471"",""0.298"",""0.667"",""0.837""]","[0,1,1,1]",0,56,56,56,1,1,0,,,0,FALSE,,,,,,,,,,,,,,,,,,,,,,,,,,,,,,
,5e3e11a36a0b8a000c609d5e,001,2022-04-28_20h10.21.187,classification_task,2021.2.3,Win32,59.99520038,5e3e11a36a0b8a000c609d5e,626b377229c10585ec392f89,626b3ab23d49090b081d6454,,,,,,,,,,,,,,,,,,,,,,,a,1,0.7812,"[""0.183"",""0.432"",""0.766"",""0.892""]","[1,1,0,1]",0,57,57,57,1,0,0,,,0,FALSE,,,,,,,,,,,,,,,,,,,,,,,,,,,,,,
,5e3e11a36a0b8a000c609d5e,001,2022-04-28_20h10.21.187,classification_task,2021.2.3,Win32,59.99520038,5e3e11a36a0b8a000c609d5e,626b377229c10585ec392f89,626b3ab23d49090b081d6454,,,,,,,,,,,,,,,,,,,,,,,a,0,0.5571,"[""0.060"",""0.298"",""0.568"",""0.837""]","[1,1,0,1]",0,58,58,58,1,1,0,,,0,FALSE,,,,,,,,,,,,,,,,,,,,,,,,,,,,,,
,5e3e11a36a0b8a000c609d5e,001,2022-04-28_20h10.21.187,classification_task,2021.2.3,Win32,59.99520038,5e3e11a36a0b8a000c609d5e,626b377229c10585ec392f89,626b3ab23d49090b081d6454,,,,,,,,,,,,,,,,,,,,,,,l,0,0.3562,"[""0.216"",""0.347"",""0.139"",""0.957""]","[1,1,0,1]",0,59,59,59,1,0,1,,,0,FALSE,,,,,,,,,,,,,,,,,,,,,,,,,,,,,,
,5e3e11a36a0b8a000c609d5e,001,2022-04-28_20h10.21.187,classification_task,2021.2.3,Win32,59.99520038,5e3e11a36a0b8a000c609d5e,626b377229c10585ec392f89,626b3ab23d49090b081d6454,,,,,,,,,,,,,,,,,,,,,,,a,1,0.3694,"[""0.549"",""0.347"",""0.723"",""0.957""]","[0,1,1,1]",0,60,60,60,1,0,1,,,0,FALSE,,,,,,,,,,,,,,,,,,,,,,,,,,,,,,
,5e3e11a36a0b8a000c609d5e,001,2022-04-28_20h10.21.187,classification_task,2021.2.3,Win32,59.99520038,5e3e11a36a0b8a000c609d5e,626b377229c10585ec392f89,626b3ab23d49090b081d6454,,,,,,,,,,,,,,,,,,,,,,,a,1,0.5344,"[""0.183"",""0.471"",""0.617"",""0.892""]","[1,0,1,1]",0,61,61,61,1,0,0,,,0,FALSE,,,,,,,,,,,,,,,,,,,,,,,,,,,,,,
,5e3e11a36a0b8a000c609d5e,001,2022-04-28_20h10.21.187,classification_task,2021.2.3,Win32,59.99520038,5e3e11a36a0b8a000c609d5e,626b377229c10585ec392f89,626b3ab23d49090b081d6454,,,,,,,,,,,,,,,,,,,,,,,l,0,0.2731,"[""0.216"",""0.560"",""0.723"",""0.957""]","[1,0,1,1]",0,62,62,62,1,0,1,,,0,FALSE,,,,,,,,,,,,,,,,,,,,,,,,,,,,,,
,5e3e11a36a0b8a000c609d5e,001,2022-04-28_20h10.21.187,classification_task,2021.2.3,Win32,59.99520038,5e3e11a36a0b8a000c609d5e,626b377229c10585ec392f89,626b3ab23d49090b081d6454,,,,,,,,,,,,,,,,,,,,,,,l,1,0.3055,"[""0.100"",""0.249"",""0.139"",""0.802""]","[1,1,0,1]",0,63,63,63,1,1,1,,,0,FALSE,,,,,,,,,,,,,,,,,,,,,,,,,,,,,,
,5e3e11a36a0b8a000c609d5e,001,2022-04-28_20h10.21.187,classification_task,2021.2.3,Win32,59.99520038,5e3e11a36a0b8a000c609d5e,626b377229c10585ec392f89,626b3ab23d49090b081d6454,,,,,,,,,,,,,,,,,,,,,,,,,,,,,,,,,,,,,,,0, ,,0,1.595140114,99.9441,0,2,2,2,1,2,3,,,,,,,,,,,,,,,,,
,5e3e11a36a0b8a000c609d5e,001,2022-04-28_20h10.21.187,classification_task,2021.2.3,Win32,59.99520038,5e3e11a36a0b8a000c609d5e,626b377229c10585ec392f89,626b3ab23d49090b081d6454,,,,,,,,,,,,,,,,,,,,,,,,,,,,,,,,,,,,,,,1,  ,,0,2.476974329,101.2097,0,2,2,2,1,2,3,,,,,,,,,,,,,,,,,
,5e3e11a36a0b8a000c609d5e,001,2022-04-28_20h10.21.187,classification_task,2021.2.3,Win32,59.99520038,5e3e11a36a0b8a000c609d5e,626b377229c10585ec392f89,626b3ab23d49090b081d6454,,,,,,,,,,,,,,,,,,,,,,,,,,,,,,,,,,,,,,,2,  ,,0,2.427983539,103.1431,0,2,2,2,1,2,3,,,,,,,,,,,,,,,,,
,5e3e11a36a0b8a000c609d5e,001,2022-04-28_20h10.21.187,classification_task,2021.2.3,Win32,59.99520038,5e3e11a36a0b8a000c609d5e,626b377229c10585ec392f89,626b3ab23d49090b081d6454,,,,,,,,,,,,,,,,,,,,,,,,,,,,,,,,,,,,,,,,,,,,,0,2,2,2,1,,3,,,,,,,,,,,,,,,,,
,5e3e11a36a0b8a000c609d5e,001,2022-04-28_20h10.21.187,classification_task,2021.2.3,Win32,59.99520038,5e3e11a36a0b8a000c609d5e,626b377229c10585ec392f89,626b3ab23d49090b081d6454,,,,,,,,,,,,,,,,,,,,,,,,,,,,,,,,,,,,,,,,,,,,,,,,,,,,,I believe the aid is a competent performer,,0.7,0,5,1033.5022,0,0,0,0,1,0,,,,
,5e3e11a36a0b8a000c609d5e,001,2022-04-28_20h10.21.187,classification_task,2021.2.3,Win32,59.99520038,5e3e11a36a0b8a000c609d5e,626b377229c10585ec392f89,626b3ab23d49090b081d6454,,,,,,,,,,,,,,,,,,,,,,,,,,,,,,,,,,,,,,,,,,,,,,,,,,,,,I trust the aid,,0.7,0,5,1034.2833,0,0,0,0,1,0,,,,
,5e3e11a36a0b8a000c609d5e,001,2022-04-28_20h10.21.187,classification_task,2021.2.3,Win32,59.99520038,5e3e11a36a0b8a000c609d5e,626b377229c10585ec392f89,626b3ab23d49090b081d6454,,,,,,,,,,,,,,,,,,,,,,,,,,,,,,,,,,,,,,,,,,,,,,,,,,,,,I have confidence in the advice given by the aid,,0.7,0,5,1036.1791,0,0,0,0,1,0,,,,
,5e3e11a36a0b8a000c609d5e,001,2022-04-28_20h10.21.187,classification_task,2021.2.3,Win32,59.99520038,5e3e11a36a0b8a000c609d5e,626b377229c10585ec392f89,626b3ab23d49090b081d6454,,,,,,,,,,,,,,,,,,,,,,,,,,,,,,,,,,,,,,,,,,,,,,,,,,,,,I can depend on the aid,,0.7,0,5,1037.0107,0,0,0,0,1,0,,,,
,5e3e11a36a0b8a000c609d5e,001,2022-04-28_20h10.21.187,classification_task,2021.2.3,Win32,59.99520038,5e3e11a36a0b8a000c609d5e,626b377229c10585ec392f89,626b3ab23d49090b081d6454,,,,,,,,,,,,,,,,,,,,,,,,,,,,,,,,,,,,,,,,,,,,,,,,,,,,,I can rely on the aid to behave in consistent ways,,0.7,0,5,1039.4241,0,0,0,0,1,0,,,,
,5e3e11a36a0b8a000c609d5e,001,2022-04-28_20h10.21.187,classification_task,2021.2.3,Win32,59.99520038,5e3e11a36a0b8a000c609d5e,626b377229c10585ec392f89,626b3ab23d49090b081d6454,,,,,,,,,,,,,,,,,,,,,,,,,,,,,,,,,,,,,,,,,,,,,,,,,,,,,I can rely on the aid to do its best every time I take its advice,,0.7,0,5,1041.7701,0,0,0,0,1,0,,,,
,5e3e11a36a0b8a000c609d5e,001,2022-04-28_20h10.21.187,classification_task,2021.2.3,Win32,59.99520038,5e3e11a36a0b8a000c609d5e,626b377229c10585ec392f89,626b3ab23d49090b081d6454,,,,,,,,,,,,,,,,,,,,,,,,,,,,,,,,,,,,,,,,,,,,,,,,,,,,,"On trials you completed with assistance from the aid, how frequently did you think the aid was correct?",,0.7,0,100,,0,0,0,0,1,0,,,,
,5e3e11a36a0b8a000c609d5e,001,2022-04-28_20h10.21.187,classification_task,2021.2.3,Win32,59.99520038,5e3e11a36a0b8a000c609d5e,626b377229c10585ec392f89,626b3ab23d49090b081d6454,,,,,,,,,,,,,,,,,,,,,,,,,,,,,,,,,,,,,,,,,,,,,,,,,,,,,"On trials you completed without the aid, how frequently did you think you were correct?",,0.7,0,40,,0,0,0,0,1,0,,,,
,5e3e11a36a0b8a000c609d5e,001,2022-04-28_20h10.21.187,classification_task,2021.2.3,Win32,59.99520038,5e3e11a36a0b8a000c609d5e,626b377229c10585ec392f89,626b3ab23d49090b081d6454,,,,,,,,,,,,,,,,,,,,,,,,,,,,,,,,,,,,,,,,,,,,,,,,,,,,,,,,,,,0,0,0,0,1,,,,,
,5e3e11a36a0b8a000c609d5e,001,2022-04-28_20h10.21.187,classification_task,2021.2.3,Win32,59.99520038,5e3e11a36a0b8a000c609d5e,626b377229c10585ec392f89,626b3ab23d49090b081d6454,,,,,,,,,,,,,,,,,,,,,,,,,,,,,,,,,,,,,,,,,,,,,,,,,,,,,,,,,,,,,,,,,left,12.01,1077.2201,
,5e3e11a36a0b8a000c609d5e,001,2022-04-28_20h10.21.187,classification_task,2021.2.3,Win32,59.99520038,5e3e11a36a0b8a000c609d5e,626b377229c10585ec392f89,626b3ab23d49090b081d6454,,,,,,,,,,,,,,,,,,,,,,,,,,,,,,,,,,,,,,,,,,,,,,,,,,,,,,,,,,,,,,,,,,,,"Mozilla/5.0 (Windows NT 10.0; Win64; x64) AppleWebKit/537.36 (KHTML, like Gecko) Chrome/100.0.4896.127 Safari/537.36"
