usingWebGL,participant,session,date,expName,psychopyVersion,OS,frameRate,study_id,signatures_friend,signatures_foe,band_ranges_top,band_ranges_bottom,formitemText,formtype,formundefined,formitemWidth,formindex,formresponse,formrt,key_resp_2.keys,key_resp_2.rt,tute_resp.keys,tute_resp.rt,tutorial.thisRepN,tutorial.thisTrialN,tutorial.thisN,tutorial.thisIndex,tutorial.ran,key_resp_4.keys,key_resp_4.rt,key_resp.keys,key_resp.corr,key_resp.rt,lines_presented,is_signal_presented,trials.thisRepN,trials.thisTrialN,trials.thisN,trials.thisIndex,trials.ran,vessel,active_band,lines,is_signal,supported_pos,catch_trial,debrief_formindex,debrief_formitemText,debrief_formtype,debrief_formitemWidth,debrief_formresponse,debrief_formrt,phases.thisRepN,phases.thisTrialN,phases.thisN,phases.thisIndex,phases.ran,phases.order,phase,key_resp_3.keys,trustitemText,trusttype,trustitemWidth,trustindex,trustresponse,trustrt,support_status.thisRepN,support_status.thisTrialN,support_status.thisN,support_status.thisIndex,support_status.ran,support_status.order,key_resp_5.keys,key_resp_5.rt,globalClockTime,userAgent,manualCondition
TRUE,5e57a0020c3c6a14a1624031,627c82cb6b240a418bf97d65,2022-05-12_05h46.11.896,classification_task,2021.2.3,Win32,59.93766483,627c6715c52fd12f31907bcf,,,,,,,,,,,,,,,,,,,,,,,,,,,,,,,,,,,,,,,,,,,,,,,,,,,,,,,,,,,,,,,,,,,,,
,5e57a0020c3c6a14a1624031,627c82cb6b240a418bf97d65,2022-05-12_05h46.11.896,classification_task,2021.2.3,Win32,59.93766483,627c6715c52fd12f31907bcf,"[[""0.322"",""0.355"",""0.851"",""0.973""],[""0.243"",""0.553"",""0.905"",""0.939""]]","[[""0.079"",""0.279"",""0.506"",""0.730""],[""0.141"",""0.411"",""0.448"",""0.795""]]","[1,10]","[100,1000]",Video game experience,,,0.7,0,,,,,,,,,,,,,,,,,,,,,,,,,,,,,,,,,,,,,,,,,,,,,,,,,,,,,,,,,,,,
,5e57a0020c3c6a14a1624031,627c82cb6b240a418bf97d65,2022-05-12_05h46.11.896,classification_task,2021.2.3,Win32,59.93766483,627c6715c52fd12f31907bcf,,,,,Approximately how many hours did you spend playing video games in the last week?,,,0.7,0,40,,,,,,,,,,,,,,,,,,,,,,,,,,,,,,,,,,,,,,,,,,,,,,,,,,,,,,,,,,,
,5e57a0020c3c6a14a1624031,627c82cb6b240a418bf97d65,2022-05-12_05h46.11.896,classification_task,2021.2.3,Win32,59.93766483,627c6715c52fd12f31907bcf,,,,,"Which game did you play the most this year? (Enter ""None"" if you didn't play any)",,,0.7,0,Elden Ring,,,,,,,,,,,,,,,,,,,,,,,,,,,,,,,,,,,,,,,,,,,,,,,,,,,,,,,,,,,
,5e57a0020c3c6a14a1624031,627c82cb6b240a418bf97d65,2022-05-12_05h46.11.896,classification_task,2021.2.3,Win32,59.93766483,627c6715c52fd12f31907bcf,,,,,Visual perception,,,0.7,0,,,,,,,,,,,,,,,,,,,,,,,,,,,,,,,,,,,,,,,,,,,,,,,,,,,,,,,,,,,,
,5e57a0020c3c6a14a1624031,627c82cb6b240a418bf97d65,2022-05-12_05h46.11.896,classification_task,2021.2.3,Win32,59.93766483,627c6715c52fd12f31907bcf,,,,,Do you have any form of color blindness?,,,0.7,0,No,18.0436,,,,,,,,,,,,,,,,,,,,,,,,,,,,,,,,,,,,,,,,,,,,,,,,,,,,,,,,,,
,5e57a0020c3c6a14a1624031,627c82cb6b240a418bf97d65,2022-05-12_05h46.11.896,classification_task,2021.2.3,Win32,59.93766483,627c6715c52fd12f31907bcf,,,,,Do you use software to change the colour temperature of your screen (e.g. f.lux)?,,,0.7,0,No,22.0512,,,,,,,,,,,,,,,,,,,,,,,,,,,,,,,,,,,,,,,,,,,,,,,,,,,,,,,,,,
,5e57a0020c3c6a14a1624031,627c82cb6b240a418bf97d65,2022-05-12_05h46.11.896,classification_task,2021.2.3,Win32,59.93766483,627c6715c52fd12f31907bcf,,,,,,,,,,,,space,22.7757,space,7.8983,0,0,0,0,1,,,,,,,,,,,,,,,,,,,,,,,,,,,,,,,,,,,,,,,,,,,,,,,,,
,5e57a0020c3c6a14a1624031,627c82cb6b240a418bf97d65,2022-05-12_05h46.11.896,classification_task,2021.2.3,Win32,59.93766483,627c6715c52fd12f31907bcf,,,,,,,,,,,,,,space,5.5994,1,0,1,0,1,,,,,,,,,,,,,,,,,,,,,,,,,,,,,,,,,,,,,,,,,,,,,,,,,
,5e57a0020c3c6a14a1624031,627c82cb6b240a418bf97d65,2022-05-12_05h46.11.896,classification_task,2021.2.3,Win32,59.93766483,627c6715c52fd12f31907bcf,,,,,,,,,,,,,,space,26.6821,2,0,2,0,1,,,,,,,,,,,,,,,,,,,,,,,,,,,,,,,,,,,,,,,,,,,,,,,,,
,5e57a0020c3c6a14a1624031,627c82cb6b240a418bf97d65,2022-05-12_05h46.11.896,classification_task,2021.2.3,Win32,59.93766483,627c6715c52fd12f31907bcf,,,,,,,,,,,,,,space,5.3765,3,0,3,0,1,,,,,,,,,,,,,,,,,,,,,,,,,,,,,,,,,,,,,,,,,,,,,,,,,
,5e57a0020c3c6a14a1624031,627c82cb6b240a418bf97d65,2022-05-12_05h46.11.896,classification_task,2021.2.3,Win32,59.93766483,627c6715c52fd12f31907bcf,,,,,,,,,,,,,,space,14.8589,4,0,4,0,1,,,,,,,,,,,,,,,,,,,,,,,,,,,,,,,,,,,,,,,,,,,,,,,,,
,5e57a0020c3c6a14a1624031,627c82cb6b240a418bf97d65,2022-05-12_05h46.11.896,classification_task,2021.2.3,Win32,59.93766483,627c6715c52fd12f31907bcf,,,,,,,,,,,,,,,,,,,,,space,12.9043,a,1,8.2528,"[""0.661"",""0.553"",""0.905"",""0.939""]","[0,1,1,1]",0,0,0,0,1,0,1,,,0,FALSE,,,,,,,,,,,,,,,,,,,,,,,,,,,,,,,
,5e57a0020c3c6a14a1624031,627c82cb6b240a418bf97d65,2022-05-12_05h46.11.896,classification_task,2021.2.3,Win32,59.93766483,627c6715c52fd12f31907bcf,,,,,,,,,,,,,,,,,,,,,,,a,1,2.809,"[""0.243"",""0.600"",""0.905"",""0.939""]","[1,0,1,1]",0,1,1,1,1,0,1,,,0,FALSE,,,,,,,,,,,,,,,,,,,,,,,,,,,,,,,
,5e57a0020c3c6a14a1624031,627c82cb6b240a418bf97d65,2022-05-12_05h46.11.896,classification_task,2021.2.3,Win32,59.93766483,627c6715c52fd12f31907bcf,,,,,,,,,,,,,,,,,,,,,,,,0,,"[""0.322"",""0.045"",""0.851"",""0.973""]","[1,0,1,1]",0,2,2,2,1,0,0,,,0,FALSE,,,,,,,,,,,,,,,,,,,,,,,,,,,,,,,
,5e57a0020c3c6a14a1624031,627c82cb6b240a418bf97d65,2022-05-12_05h46.11.896,classification_task,2021.2.3,Win32,59.93766483,627c6715c52fd12f31907bcf,,,,,,,,,,,,,,,,,,,,,,,l,1,3.1602,"[""0.079"",""0.044"",""0.506"",""0.730""]","[1,0,1,1]",0,3,3,3,1,1,0,,,0,FALSE,,,,,,,,,,,,,,,,,,,,,,,,,,,,,,,
,5e57a0020c3c6a14a1624031,627c82cb6b240a418bf97d65,2022-05-12_05h46.11.896,classification_task,2021.2.3,Win32,59.93766483,627c6715c52fd12f31907bcf,,,,,,,,,,,,,,,,,,,,,,,a,1,3.575,"[""0.243"",""0.553"",""0.640"",""0.939""]","[1,1,0,1]",0,4,4,4,1,0,1,,,0,FALSE,,,,,,,,,,,,,,,,,,,,,,,,,,,,,,,
,5e57a0020c3c6a14a1624031,627c82cb6b240a418bf97d65,2022-05-12_05h46.11.896,classification_task,2021.2.3,Win32,59.93766483,627c6715c52fd12f31907bcf,,,,,,,,,,,,,,,,,,,,,,,,0,,"[""0.028"",""0.411"",""0.448"",""0.795""]","[0,1,1,1]",0,5,5,5,1,1,1,,,0,FALSE,,,,,,,,,,,,,,,,,,,,,,,,,,,,,,,
,5e57a0020c3c6a14a1624031,627c82cb6b240a418bf97d65,2022-05-12_05h46.11.896,classification_task,2021.2.3,Win32,59.93766483,627c6715c52fd12f31907bcf,,,,,,,,,,,,,,,,,,,,,,,l,1,5.3853,"[""0.141"",""0.026"",""0.448"",""0.795""]","[1,0,1,1]",0,6,6,6,1,1,1,,,0,FALSE,,,,,,,,,,,,,,,,,,,,,,,,,,,,,,,
,5e57a0020c3c6a14a1624031,627c82cb6b240a418bf97d65,2022-05-12_05h46.11.896,classification_task,2021.2.3,Win32,59.93766483,627c6715c52fd12f31907bcf,,,,,,,,,,,,,,,,,,,,,,,l,1,6.4128,"[""0.045"",""0.279"",""0.506"",""0.730""]","[0,1,1,1]",0,7,7,7,1,1,0,,,0,FALSE,,,,,,,,,,,,,,,,,,,,,,,,,,,,,,,
,5e57a0020c3c6a14a1624031,627c82cb6b240a418bf97d65,2022-05-12_05h46.11.896,classification_task,2021.2.3,Win32,59.93766483,627c6715c52fd12f31907bcf,,,,,,,,,,,,,,,,,,,,,,,l,1,2.2052,"[""0.141"",""0.411"",""0.633"",""0.795""]","[1,1,0,1]",0,8,8,8,1,1,1,,,0,FALSE,,,,,,,,,,,,,,,,,,,,,,,,,,,,,,,
,5e57a0020c3c6a14a1624031,627c82cb6b240a418bf97d65,2022-05-12_05h46.11.896,classification_task,2021.2.3,Win32,59.93766483,627c6715c52fd12f31907bcf,,,,,,,,,,,,,,,,,,,,,,,l,1,3.7227,"[""0.079"",""0.279"",""0.045"",""0.730""]","[1,1,0,1]",0,9,9,9,1,1,0,,,0,FALSE,,,,,,,,,,,,,,,,,,,,,,,,,,,,,,,
,5e57a0020c3c6a14a1624031,627c82cb6b240a418bf97d65,2022-05-12_05h46.11.896,classification_task,2021.2.3,Win32,59.93766483,627c6715c52fd12f31907bcf,,,,,,,,,,,,,,,,,,,,,,,a,1,8.2106,"[""0.322"",""0.355"",""0.851"",""0.028""]","[1,1,1,0]",0,10,10,10,1,0,0,,,0,FALSE,,,,,,,,,,,,,,,,,,,,,,,,,,,,,,,
,5e57a0020c3c6a14a1624031,627c82cb6b240a418bf97d65,2022-05-12_05h46.11.896,classification_task,2021.2.3,Win32,59.93766483,627c6715c52fd12f31907bcf,,,,,,,,,,,,,,,,,,,,,,,l,1,4.6539,"[""0.079"",""0.279"",""0.506"",""0.028""]","[1,1,1,0]",0,11,11,11,1,1,0,,,0,FALSE,,,,,,,,,,,,,,,,,,,,,,,,,,,,,,,
,5e57a0020c3c6a14a1624031,627c82cb6b240a418bf97d65,2022-05-12_05h46.11.896,classification_task,2021.2.3,Win32,59.93766483,627c6715c52fd12f31907bcf,,,,,,,,,,,,,,,,,,,,,,,a,1,6.6768,"[""0.322"",""0.355"",""0.682"",""0.973""]","[1,1,0,1]",0,12,12,12,1,0,0,,,0,FALSE,,,,,,,,,,,,,,,,,,,,,,,,,,,,,,,
,5e57a0020c3c6a14a1624031,627c82cb6b240a418bf97d65,2022-05-12_05h46.11.896,classification_task,2021.2.3,Win32,59.93766483,627c6715c52fd12f31907bcf,,,,,,,,,,,,,,,,,,,,,,,a,1,2.1828,"[""0.633"",""0.355"",""0.851"",""0.973""]","[0,1,1,1]",0,13,13,13,1,0,0,,,0,FALSE,,,,,,,,,,,,,,,,,,,,,,,,,,,,,,,
,5e57a0020c3c6a14a1624031,627c82cb6b240a418bf97d65,2022-05-12_05h46.11.896,classification_task,2021.2.3,Win32,59.93766483,627c6715c52fd12f31907bcf,,,,,,,,,,,,,,,,,,,,,,,,0,,"[""0.141"",""0.411"",""0.448"",""0.206""]","[1,1,1,0]",0,14,14,14,1,1,1,,,0,FALSE,,,,,,,,,,,,,,,,,,,,,,,,,,,,,,,
,5e57a0020c3c6a14a1624031,627c82cb6b240a418bf97d65,2022-05-12_05h46.11.896,classification_task,2021.2.3,Win32,59.93766483,627c6715c52fd12f31907bcf,,,,,,,,,,,,,,,,,,,,,,,a,1,5.2941,"[""0.243"",""0.553"",""0.905"",""0.685""]","[1,1,1,0]",0,15,15,15,1,0,1,,,0,FALSE,,,,,,,,,,,,,,,,,,,,,,,,,,,,,,,
,5e57a0020c3c6a14a1624031,627c82cb6b240a418bf97d65,2022-05-12_05h46.11.896,classification_task,2021.2.3,Win32,59.93766483,627c6715c52fd12f31907bcf,,,,,,,,,,,,,,,,,,,,,,,l,1,7.9329,"[""0.028"",""0.279"",""0.506"",""0.730""]","[0,1,1,1]",0,16,16,16,1,1,0,,,0,FALSE,,,,,,,,,,,,,,,,,,,,,,,,,,,,,,,
,5e57a0020c3c6a14a1624031,627c82cb6b240a418bf97d65,2022-05-12_05h46.11.896,classification_task,2021.2.3,Win32,59.93766483,627c6715c52fd12f31907bcf,,,,,,,,,,,,,,,,,,,,,,,l,1,2.1917,"[""0.141"",""0.661"",""0.448"",""0.795""]","[1,0,1,1]",0,17,17,17,1,1,1,,,0,FALSE,,,,,,,,,,,,,,,,,,,,,,,,,,,,,,,
,5e57a0020c3c6a14a1624031,627c82cb6b240a418bf97d65,2022-05-12_05h46.11.896,classification_task,2021.2.3,Win32,59.93766483,627c6715c52fd12f31907bcf,,,,,,,,,,,,,,,,,,,,,,,l,1,1.4269,"[""0.028"",""0.411"",""0.448"",""0.795""]","[0,1,1,1]",0,18,18,18,1,1,1,,,0,FALSE,,,,,,,,,,,,,,,,,,,,,,,,,,,,,,,
,5e57a0020c3c6a14a1624031,627c82cb6b240a418bf97d65,2022-05-12_05h46.11.896,classification_task,2021.2.3,Win32,59.93766483,627c6715c52fd12f31907bcf,,,,,,,,,,,,,,,,,,,,,,,l,1,2.0991,"[""0.079"",""0.682"",""0.506"",""0.730""]","[1,0,1,1]",0,19,19,19,1,1,0,,,0,FALSE,,,,,,,,,,,,,,,,,,,,,,,,,,,,,,,
,5e57a0020c3c6a14a1624031,627c82cb6b240a418bf97d65,2022-05-12_05h46.11.896,classification_task,2021.2.3,Win32,59.93766483,627c6715c52fd12f31907bcf,,,,,,,,,,,,,,,,,,,,,,,a,1,4.4608,"[""0.322"",""0.355"",""0.600"",""0.973""]","[1,1,0,1]",0,20,20,20,1,0,0,,,0,FALSE,,,,,,,,,,,,,,,,,,,,,,,,,,,,,,,
,5e57a0020c3c6a14a1624031,627c82cb6b240a418bf97d65,2022-05-12_05h46.11.896,classification_task,2021.2.3,Win32,59.93766483,627c6715c52fd12f31907bcf,,,,,,,,,,,,,,,,,,,,,,,l,0,2.744,"[""0.322"",""0.355"",""0.851"",""0.028""]","[1,1,1,0]",0,21,21,21,1,0,0,,,0,FALSE,,,,,,,,,,,,,,,,,,,,,,,,,,,,,,,
,5e57a0020c3c6a14a1624031,627c82cb6b240a418bf97d65,2022-05-12_05h46.11.896,classification_task,2021.2.3,Win32,59.93766483,627c6715c52fd12f31907bcf,,,,,,,,,,,,,,,,,,,,,,,a,1,1.8105,"[""0.619"",""0.355"",""0.851"",""0.973""]","[0,1,1,1]",0,22,22,22,1,0,0,,,0,FALSE,,,,,,,,,,,,,,,,,,,,,,,,,,,,,,,
,5e57a0020c3c6a14a1624031,627c82cb6b240a418bf97d65,2022-05-12_05h46.11.896,classification_task,2021.2.3,Win32,59.93766483,627c6715c52fd12f31907bcf,,,,,,,,,,,,,,,,,,,,,,,a,1,2.092,"[""0.243"",""0.553"",""0.905"",""0.600""]","[1,1,1,0]",0,23,23,23,1,0,1,,,0,FALSE,,,,,,,,,,,,,,,,,,,,,,,,,,,,,,,
,5e57a0020c3c6a14a1624031,627c82cb6b240a418bf97d65,2022-05-12_05h46.11.896,classification_task,2021.2.3,Win32,59.93766483,627c6715c52fd12f31907bcf,,,,,,,,,,,,,,,,,,,,,,,a,1,2.9818,"[""0.322"",""0.661"",""0.851"",""0.973""]","[1,0,1,1]",0,24,24,24,1,0,0,,,0,FALSE,,,,,,,,,,,,,,,,,,,,,,,,,,,,,,,
,5e57a0020c3c6a14a1624031,627c82cb6b240a418bf97d65,2022-05-12_05h46.11.896,classification_task,2021.2.3,Win32,59.93766483,627c6715c52fd12f31907bcf,,,,,,,,,,,,,,,,,,,,,,,l,1,2.7754,"[""0.141"",""0.411"",""0.619"",""0.795""]","[1,1,0,1]",0,25,25,25,1,1,1,,,0,FALSE,,,,,,,,,,,,,,,,,,,,,,,,,,,,,,,
,5e57a0020c3c6a14a1624031,627c82cb6b240a418bf97d65,2022-05-12_05h46.11.896,classification_task,2021.2.3,Win32,59.93766483,627c6715c52fd12f31907bcf,,,,,,,,,,,,,,,,,,,,,,,a,1,4.0105,"[""0.685"",""0.553"",""0.905"",""0.939""]","[0,1,1,1]",0,26,26,26,1,0,1,,,0,FALSE,,,,,,,,,,,,,,,,,,,,,,,,,,,,,,,
,5e57a0020c3c6a14a1624031,627c82cb6b240a418bf97d65,2022-05-12_05h46.11.896,classification_task,2021.2.3,Win32,59.93766483,627c6715c52fd12f31907bcf,,,,,,,,,,,,,,,,,,,,,,,l,1,2.2852,"[""0.079"",""0.279"",""0.506"",""0.028""]","[1,1,1,0]",0,27,27,27,1,1,0,,,0,FALSE,,,,,,,,,,,,,,,,,,,,,,,,,,,,,,,
,5e57a0020c3c6a14a1624031,627c82cb6b240a418bf97d65,2022-05-12_05h46.11.896,classification_task,2021.2.3,Win32,59.93766483,627c6715c52fd12f31907bcf,,,,,,,,,,,,,,,,,,,,,,,l,1,2.6548,"[""0.141"",""0.411"",""0.448"",""0.028""]","[1,1,1,0]",0,28,28,28,1,1,1,,,0,FALSE,,,,,,,,,,,,,,,,,,,,,,,,,,,,,,,
,5e57a0020c3c6a14a1624031,627c82cb6b240a418bf97d65,2022-05-12_05h46.11.896,classification_task,2021.2.3,Win32,59.93766483,627c6715c52fd12f31907bcf,,,,,,,,,,,,,,,,,,,,,,,a,1,3.7941,"[""0.243"",""0.553"",""0.619"",""0.939""]","[1,1,0,1]",0,29,29,29,1,0,1,,,0,FALSE,,,,,,,,,,,,,,,,,,,,,,,,,,,,,,,
,5e57a0020c3c6a14a1624031,627c82cb6b240a418bf97d65,2022-05-12_05h46.11.896,classification_task,2021.2.3,Win32,59.93766483,627c6715c52fd12f31907bcf,,,,,,,,,,,,,,,,,,,,,,,a,1,2.3371,"[""0.243"",""0.028"",""0.905"",""0.939""]","[1,0,1,1]",0,30,30,30,1,0,1,,,0,FALSE,,,,,,,,,,,,,,,,,,,,,,,,,,,,,,,
,5e57a0020c3c6a14a1624031,627c82cb6b240a418bf97d65,2022-05-12_05h46.11.896,classification_task,2021.2.3,Win32,59.93766483,627c6715c52fd12f31907bcf,,,,,,,,,,,,,,,,,,,,,,,l,1,1.6091,"[""0.079"",""0.279"",""0.661"",""0.730""]","[1,1,0,1]",0,31,31,31,1,1,0,,,0,FALSE,,,,,,,,,,,,,,,,,,,,,,,,,,,,,,,
,5e57a0020c3c6a14a1624031,627c82cb6b240a418bf97d65,2022-05-12_05h46.11.896,classification_task,2021.2.3,Win32,59.93766483,627c6715c52fd12f31907bcf,,,,,,,,,,,,,,,,,,,,,,,l,0,1.9393,"[""0.322"",""0.661"",""0.851"",""0.973""]","[1,0,1,1]",0,32,32,32,1,0,0,,,0,FALSE,,,,,,,,,,,,,,,,,,,,,,,,,,,,,,,
,5e57a0020c3c6a14a1624031,627c82cb6b240a418bf97d65,2022-05-12_05h46.11.896,classification_task,2021.2.3,Win32,59.93766483,627c6715c52fd12f31907bcf,,,,,,,,,,,,,,,,,,,,,,,a,0,3.2674,"[""0.079"",""0.279"",""0.659"",""0.730""]","[1,1,0,1]",0,33,33,33,1,1,0,,,0,FALSE,,,,,,,,,,,,,,,,,,,,,,,,,,,,,,,
,5e57a0020c3c6a14a1624031,627c82cb6b240a418bf97d65,2022-05-12_05h46.11.896,classification_task,2021.2.3,Win32,59.93766483,627c6715c52fd12f31907bcf,,,,,,,,,,,,,,,,,,,,,,,a,0,4.2955,"[""0.141"",""0.411"",""0.619"",""0.795""]","[1,1,0,1]",0,34,34,34,1,1,1,,,0,FALSE,,,,,,,,,,,,,,,,,,,,,,,,,,,,,,,
,5e57a0020c3c6a14a1624031,627c82cb6b240a418bf97d65,2022-05-12_05h46.11.896,classification_task,2021.2.3,Win32,59.93766483,627c6715c52fd12f31907bcf,,,,,,,,,,,,,,,,,,,,,,,l,0,2.3535,"[""0.322"",""0.355"",""0.851"",""0.640""]","[1,1,1,0]",0,35,35,35,1,0,0,,,0,FALSE,,,,,,,,,,,,,,,,,,,,,,,,,,,,,,,
,5e57a0020c3c6a14a1624031,627c82cb6b240a418bf97d65,2022-05-12_05h46.11.896,classification_task,2021.2.3,Win32,59.93766483,627c6715c52fd12f31907bcf,,,,,,,,,,,,,,,,,,,,,,,l,0,1.0258,"[""0.243"",""0.619"",""0.905"",""0.939""]","[1,0,1,1]",0,36,36,36,1,0,1,,,0,FALSE,,,,,,,,,,,,,,,,,,,,,,,,,,,,,,,
,5e57a0020c3c6a14a1624031,627c82cb6b240a418bf97d65,2022-05-12_05h46.11.896,classification_task,2021.2.3,Win32,59.93766483,627c6715c52fd12f31907bcf,,,,,,,,,,,,,,,,,,,,,,,l,1,3.2329,"[""0.661"",""0.279"",""0.506"",""0.730""]","[0,1,1,1]",0,37,37,37,1,1,0,,,0,FALSE,,,,,,,,,,,,,,,,,,,,,,,,,,,,,,,
,5e57a0020c3c6a14a1624031,627c82cb6b240a418bf97d65,2022-05-12_05h46.11.896,classification_task,2021.2.3,Win32,59.93766483,627c6715c52fd12f31907bcf,,,,,,,,,,,,,,,,,,,,,,,a,1,3.4728,"[""0.243"",""0.553"",""0.905"",""0.618""]","[1,1,1,0]",0,38,38,38,1,0,1,,,0,FALSE,,,,,,,,,,,,,,,,,,,,,,,,,,,,,,,
,5e57a0020c3c6a14a1624031,627c82cb6b240a418bf97d65,2022-05-12_05h46.11.896,classification_task,2021.2.3,Win32,59.93766483,627c6715c52fd12f31907bcf,,,,,,,,,,,,,,,,,,,,,,,l,1,3.949,"[""0.618"",""0.411"",""0.448"",""0.795""]","[0,1,1,1]",0,39,39,39,1,1,1,,,0,FALSE,,,,,,,,,,,,,,,,,,,,,,,,,,,,,,,
,5e57a0020c3c6a14a1624031,627c82cb6b240a418bf97d65,2022-05-12_05h46.11.896,classification_task,2021.2.3,Win32,59.93766483,627c6715c52fd12f31907bcf,,,,,,,,,,,,,,,,,,,,,,,a,1,1.6463,"[""0.045"",""0.553"",""0.905"",""0.939""]","[0,1,1,1]",0,40,40,40,1,0,1,,,0,FALSE,,,,,,,,,,,,,,,,,,,,,,,,,,,,,,,
,5e57a0020c3c6a14a1624031,627c82cb6b240a418bf97d65,2022-05-12_05h46.11.896,classification_task,2021.2.3,Win32,59.93766483,627c6715c52fd12f31907bcf,,,,,,,,,,,,,,,,,,,,,,,l,0,3.1392,"[""0.684"",""0.355"",""0.851"",""0.973""]","[0,1,1,1]",0,41,41,41,1,0,0,,,0,FALSE,,,,,,,,,,,,,,,,,,,,,,,,,,,,,,,
,5e57a0020c3c6a14a1624031,627c82cb6b240a418bf97d65,2022-05-12_05h46.11.896,classification_task,2021.2.3,Win32,59.93766483,627c6715c52fd12f31907bcf,,,,,,,,,,,,,,,,,,,,,,,l,1,1.2614,"[""0.079"",""0.279"",""0.506"",""0.661""]","[1,1,1,0]",0,42,42,42,1,1,0,,,0,FALSE,,,,,,,,,,,,,,,,,,,,,,,,,,,,,,,
,5e57a0020c3c6a14a1624031,627c82cb6b240a418bf97d65,2022-05-12_05h46.11.896,classification_task,2021.2.3,Win32,59.93766483,627c6715c52fd12f31907bcf,,,,,,,,,,,,,,,,,,,,,,,a,0,1.9108,"[""0.141"",""0.411"",""0.448"",""0.045""]","[1,1,1,0]",0,43,43,43,1,1,1,,,0,FALSE,,,,,,,,,,,,,,,,,,,,,,,,,,,,,,,
,5e57a0020c3c6a14a1624031,627c82cb6b240a418bf97d65,2022-05-12_05h46.11.896,classification_task,2021.2.3,Win32,59.93766483,627c6715c52fd12f31907bcf,,,,,,,,,,,,,,,,,,,,,,,a,1,2.3165,"[""0.243"",""0.553"",""0.619"",""0.939""]","[1,1,0,1]",0,44,44,44,1,0,1,,,0,FALSE,,,,,,,,,,,,,,,,,,,,,,,,,,,,,,,
,5e57a0020c3c6a14a1624031,627c82cb6b240a418bf97d65,2022-05-12_05h46.11.896,classification_task,2021.2.3,Win32,59.93766483,627c6715c52fd12f31907bcf,,,,,,,,,,,,,,,,,,,,,,,l,1,2.0236,"[""0.079"",""0.640"",""0.506"",""0.730""]","[1,0,1,1]",0,45,45,45,1,1,0,,,0,FALSE,,,,,,,,,,,,,,,,,,,,,,,,,,,,,,,
,5e57a0020c3c6a14a1624031,627c82cb6b240a418bf97d65,2022-05-12_05h46.11.896,classification_task,2021.2.3,Win32,59.93766483,627c6715c52fd12f31907bcf,,,,,,,,,,,,,,,,,,,,,,,a,1,2.8442,"[""0.322"",""0.355"",""0.659"",""0.973""]","[1,1,0,1]",0,46,46,46,1,0,0,,,0,FALSE,,,,,,,,,,,,,,,,,,,,,,,,,,,,,,,
,5e57a0020c3c6a14a1624031,627c82cb6b240a418bf97d65,2022-05-12_05h46.11.896,classification_task,2021.2.3,Win32,59.93766483,627c6715c52fd12f31907bcf,,,,,,,,,,,,,,,,,,,,,,,a,0,3.7399,"[""0.141"",""0.682"",""0.448"",""0.795""]","[1,0,1,1]",0,47,47,47,1,1,1,,,0,FALSE,,,,,,,,,,,,,,,,,,,,,,,,,,,,,,,
,5e57a0020c3c6a14a1624031,627c82cb6b240a418bf97d65,2022-05-12_05h46.11.896,classification_task,2021.2.3,Win32,59.93766483,627c6715c52fd12f31907bcf,,,,,,,,,,,,,,,,,,,,,,,l,1,1.9435,"[""0.633"",""0.411"",""0.448"",""0.795""]","[0,1,1,1]",0,48,48,48,1,1,1,,,0,FALSE,,,,,,,,,,,,,,,,,,,,,,,,,,,,,,,
,5e57a0020c3c6a14a1624031,627c82cb6b240a418bf97d65,2022-05-12_05h46.11.896,classification_task,2021.2.3,Win32,59.93766483,627c6715c52fd12f31907bcf,,,,,,,,,,,,,,,,,,,,,,,a,0,1.3324,"[""0.079"",""0.619"",""0.506"",""0.730""]","[1,0,1,1]",0,49,49,49,1,1,0,,,0,FALSE,,,,,,,,,,,,,,,,,,,,,,,,,,,,,,,
,5e57a0020c3c6a14a1624031,627c82cb6b240a418bf97d65,2022-05-12_05h46.11.896,classification_task,2021.2.3,Win32,59.93766483,627c6715c52fd12f31907bcf,,,,,,,,,,,,,,,,,,,,,,,l,0,2.8946,"[""0.243"",""0.553"",""0.905"",""0.682""]","[1,1,1,0]",0,50,50,50,1,0,1,,,0,FALSE,,,,,,,,,,,,,,,,,,,,,,,,,,,,,,,
,5e57a0020c3c6a14a1624031,627c82cb6b240a418bf97d65,2022-05-12_05h46.11.896,classification_task,2021.2.3,Win32,59.93766483,627c6715c52fd12f31907bcf,,,,,,,,,,,,,,,,,,,,,,,a,1,2.7567,"[""0.322"",""0.355"",""0.851"",""0.640""]","[1,1,1,0]",0,51,51,51,1,0,0,,,0,FALSE,,,,,,,,,,,,,,,,,,,,,,,,,,,,,,,
,5e57a0020c3c6a14a1624031,627c82cb6b240a418bf97d65,2022-05-12_05h46.11.896,classification_task,2021.2.3,Win32,59.93766483,627c6715c52fd12f31907bcf,,,,,,,,,,,,,,,,,,,,,,,a,1,1.3276,"[""0.322"",""0.355"",""0.618"",""0.973""]","[1,1,0,1]",0,52,52,52,1,0,0,,,0,FALSE,,,,,,,,,,,,,,,,,,,,,,,,,,,,,,,
,5e57a0020c3c6a14a1624031,627c82cb6b240a418bf97d65,2022-05-12_05h46.11.896,classification_task,2021.2.3,Win32,59.93766483,627c6715c52fd12f31907bcf,,,,,,,,,,,,,,,,,,,,,,,a,1,2.6218,"[""0.322"",""0.682"",""0.851"",""0.973""]","[1,0,1,1]",0,53,53,53,1,0,0,,,0,FALSE,,,,,,,,,,,,,,,,,,,,,,,,,,,,,,,
,5e57a0020c3c6a14a1624031,627c82cb6b240a418bf97d65,2022-05-12_05h46.11.896,classification_task,2021.2.3,Win32,59.93766483,627c6715c52fd12f31907bcf,,,,,,,,,,,,,,,,,,,,,,,a,0,3.8224,"[""0.141"",""0.411"",""0.640"",""0.795""]","[1,1,0,1]",0,54,54,54,1,1,1,,,0,FALSE,,,,,,,,,,,,,,,,,,,,,,,,,,,,,,,
,5e57a0020c3c6a14a1624031,627c82cb6b240a418bf97d65,2022-05-12_05h46.11.896,classification_task,2021.2.3,Win32,59.93766483,627c6715c52fd12f31907bcf,,,,,,,,,,,,,,,,,,,,,,,a,1,1.4691,"[""0.661"",""0.553"",""0.905"",""0.939""]","[0,1,1,1]",0,55,55,55,1,0,1,,,0,FALSE,,,,,,,,,,,,,,,,,,,,,,,,,,,,,,,
,5e57a0020c3c6a14a1624031,627c82cb6b240a418bf97d65,2022-05-12_05h46.11.896,classification_task,2021.2.3,Win32,59.93766483,627c6715c52fd12f31907bcf,,,,,,,,,,,,,,,,,,,,,,,l,1,1.2881,"[""0.141"",""0.411"",""0.448"",""0.633""]","[1,1,1,0]",0,56,56,56,1,1,1,,,0,FALSE,,,,,,,,,,,,,,,,,,,,,,,,,,,,,,,
,5e57a0020c3c6a14a1624031,627c82cb6b240a418bf97d65,2022-05-12_05h46.11.896,classification_task,2021.2.3,Win32,59.93766483,627c6715c52fd12f31907bcf,,,,,,,,,,,,,,,,,,,,,,,a,1,2.8429,"[""0.206"",""0.355"",""0.851"",""0.973""]","[0,1,1,1]",0,57,57,57,1,0,0,,,0,FALSE,,,,,,,,,,,,,,,,,,,,,,,,,,,,,,,
,5e57a0020c3c6a14a1624031,627c82cb6b240a418bf97d65,2022-05-12_05h46.11.896,classification_task,2021.2.3,Win32,59.93766483,627c6715c52fd12f31907bcf,,,,,,,,,,,,,,,,,,,,,,,l,1,3.3068,"[""0.141"",""0.045"",""0.448"",""0.795""]","[1,0,1,1]",0,58,58,58,1,1,1,,,0,FALSE,,,,,,,,,,,,,,,,,,,,,,,,,,,,,,,
,5e57a0020c3c6a14a1624031,627c82cb6b240a418bf97d65,2022-05-12_05h46.11.896,classification_task,2021.2.3,Win32,59.93766483,627c6715c52fd12f31907bcf,,,,,,,,,,,,,,,,,,,,,,,l,1,4.054,"[""0.079"",""0.279"",""0.044"",""0.730""]","[1,1,0,1]",0,59,59,59,1,1,0,,,0,FALSE,,,,,,,,,,,,,,,,,,,,,,,,,,,,,,,
,5e57a0020c3c6a14a1624031,627c82cb6b240a418bf97d65,2022-05-12_05h46.11.896,classification_task,2021.2.3,Win32,59.93766483,627c6715c52fd12f31907bcf,,,,,,,,,,,,,,,,,,,,,,,l,0,1.8423,"[""0.243"",""0.553"",""0.028"",""0.939""]","[1,1,0,1]",0,60,60,60,1,0,1,,,0,FALSE,,,,,,,,,,,,,,,,,,,,,,,,,,,,,,,
,5e57a0020c3c6a14a1624031,627c82cb6b240a418bf97d65,2022-05-12_05h46.11.896,classification_task,2021.2.3,Win32,59.93766483,627c6715c52fd12f31907bcf,,,,,,,,,,,,,,,,,,,,,,,l,1,4.2547,"[""0.079"",""0.279"",""0.506"",""0.659""]","[1,1,1,0]",0,61,61,61,1,1,0,,,0,FALSE,,,,,,,,,,,,,,,,,,,,,,,,,,,,,,,
,5e57a0020c3c6a14a1624031,627c82cb6b240a418bf97d65,2022-05-12_05h46.11.896,classification_task,2021.2.3,Win32,59.93766483,627c6715c52fd12f31907bcf,,,,,,,,,,,,,,,,,,,,,,,l,0,2.4134,"[""0.243"",""0.684"",""0.905"",""0.939""]","[1,0,1,1]",0,62,62,62,1,0,1,,,0,FALSE,,,,,,,,,,,,,,,,,,,,,,,,,,,,,,,
,5e57a0020c3c6a14a1624031,627c82cb6b240a418bf97d65,2022-05-12_05h46.11.896,classification_task,2021.2.3,Win32,59.93766483,627c6715c52fd12f31907bcf,,,,,,,,,,,,,,,,,,,,,,,a,0,1.5537,"[""0.028"",""0.279"",""0.506"",""0.730""]","[0,1,1,1]",0,63,63,63,1,1,0,,,0,FALSE,,,,,,,,,,,,,,,,,,,,,,,,,,,,,,,
,5e57a0020c3c6a14a1624031,627c82cb6b240a418bf97d65,2022-05-12_05h46.11.896,classification_task,2021.2.3,Win32,59.93766483,627c6715c52fd12f31907bcf,,,,,,,,,,,,,,,,,,,,,,,,,,,,,,,,,,,,,,,0, ,,0,5.979815795,457.6939,0,0,0,0,1,2,1,,,,,,,,,,,,,,,,,,
,5e57a0020c3c6a14a1624031,627c82cb6b240a418bf97d65,2022-05-12_05h46.11.896,classification_task,2021.2.3,Win32,59.93766483,627c6715c52fd12f31907bcf,,,,,,,,,,,,,,,,,,,,,,,,,,,,,,,,,,,,,,,1,  ,,0,6.935136194,460.6266,0,0,0,0,1,2,1,,,,,,,,,,,,,,,,,,
,5e57a0020c3c6a14a1624031,627c82cb6b240a418bf97d65,2022-05-12_05h46.11.896,classification_task,2021.2.3,Win32,59.93766483,627c6715c52fd12f31907bcf,,,,,,,,,,,,,,,,,,,,,,,,,,,,,,,,,,,,,,,2,  ,,0,5.808348031,465.0429,0,0,0,0,1,2,1,,,,,,,,,,,,,,,,,,
,5e57a0020c3c6a14a1624031,627c82cb6b240a418bf97d65,2022-05-12_05h46.11.896,classification_task,2021.2.3,Win32,59.93766483,627c6715c52fd12f31907bcf,,,,,,,,,,,,,,,,,,,,,,,,,,,,,,,,,,,,,,,,,,,,,0,0,0,0,1,,1,,,,,,,,,,,,,,,,,,
,5e57a0020c3c6a14a1624031,627c82cb6b240a418bf97d65,2022-05-12_05h46.11.896,classification_task,2021.2.3,Win32,59.93766483,627c6715c52fd12f31907bcf,,,,,,,,,,,,,,,,,,,,,space,12.4166,l,0,3.1208,"[""0.243"",""0.619"",""0.905"",""0.939""]","[1,0,1,1]",0,0,0,0,1,0,1,,,0,FALSE,,,,,,,,,,,,,,,,,,,,,,,,,,,,,,,
,5e57a0020c3c6a14a1624031,627c82cb6b240a418bf97d65,2022-05-12_05h46.11.896,classification_task,2021.2.3,Win32,59.93766483,627c6715c52fd12f31907bcf,,,,,,,,,,,,,,,,,,,,,,,a,1,4.8856,"[""0.243"",""0.553"",""0.045"",""0.939""]","[1,1,0,1]",0,1,1,1,1,0,1,,,0,FALSE,,,,,,,,,,,,,,,,,,,,,,,,,,,,,,,
,5e57a0020c3c6a14a1624031,627c82cb6b240a418bf97d65,2022-05-12_05h46.11.896,classification_task,2021.2.3,Win32,59.93766483,627c6715c52fd12f31907bcf,,,,,,,,,,,,,,,,,,,,,,,a,0,4.8196,"[""0.141"",""0.411"",""0.600"",""0.795""]","[1,1,0,1]",0,2,2,2,1,1,1,,,0,FALSE,,,,,,,,,,,,,,,,,,,,,,,,,,,,,,,
,5e57a0020c3c6a14a1624031,627c82cb6b240a418bf97d65,2022-05-12_05h46.11.896,classification_task,2021.2.3,Win32,59.93766483,627c6715c52fd12f31907bcf,,,,,,,,,,,,,,,,,,,,,,,a,0,1.2599,"[""0.026"",""0.411"",""0.448"",""0.795""]","[0,1,1,1]",0,3,3,3,1,1,1,,,0,FALSE,,,,,,,,,,,,,,,,,,,,,,,,,,,,,,,
,5e57a0020c3c6a14a1624031,627c82cb6b240a418bf97d65,2022-05-12_05h46.11.896,classification_task,2021.2.3,Win32,59.93766483,627c6715c52fd12f31907bcf,,,,,,,,,,,,,,,,,,,,,,,a,1,1.7059,"[""0.322"",""0.355"",""0.851"",""0.684""]","[1,1,1,0]",0,4,4,4,1,0,0,,,0,FALSE,,,,,,,,,,,,,,,,,,,,,,,,,,,,,,,
,5e57a0020c3c6a14a1624031,627c82cb6b240a418bf97d65,2022-05-12_05h46.11.896,classification_task,2021.2.3,Win32,59.93766483,627c6715c52fd12f31907bcf,,,,,,,,,,,,,,,,,,,,,,,l,1,0.7586,"[""0.079"",""0.279"",""0.044"",""0.730""]","[1,1,0,1]",0,5,5,5,1,1,0,,,0,FALSE,,,,,,,,,,,,,,,,,,,,,,,,,,,,,,,
,5e57a0020c3c6a14a1624031,627c82cb6b240a418bf97d65,2022-05-12_05h46.11.896,classification_task,2021.2.3,Win32,59.93766483,627c6715c52fd12f31907bcf,,,,,,,,,,,,,,,,,,,,,,,a,1,0.9129,"[""0.045"",""0.355"",""0.851"",""0.973""]","[0,1,1,1]",0,6,6,6,1,0,0,,,0,FALSE,,,,,,,,,,,,,,,,,,,,,,,,,,,,,,,
,5e57a0020c3c6a14a1624031,627c82cb6b240a418bf97d65,2022-05-12_05h46.11.896,classification_task,2021.2.3,Win32,59.93766483,627c6715c52fd12f31907bcf,,,,,,,,,,,,,,,,,,,,,,,l,0,1.7632,"[""0.243"",""0.553"",""0.905"",""0.684""]","[1,1,1,0]",0,7,7,7,1,0,1,,,0,FALSE,,,,,,,,,,,,,,,,,,,,,,,,,,,,,,,
,5e57a0020c3c6a14a1624031,627c82cb6b240a418bf97d65,2022-05-12_05h46.11.896,classification_task,2021.2.3,Win32,59.93766483,627c6715c52fd12f31907bcf,,,,,,,,,,,,,,,,,,,,,,,l,1,2.6439,"[""0.141"",""0.411"",""0.448"",""0.028""]","[1,1,1,0]",0,8,8,8,1,1,1,,,0,FALSE,,,,,,,,,,,,,,,,,,,,,,,,,,,,,,,
,5e57a0020c3c6a14a1624031,627c82cb6b240a418bf97d65,2022-05-12_05h46.11.896,classification_task,2021.2.3,Win32,59.93766483,627c6715c52fd12f31907bcf,,,,,,,,,,,,,,,,,,,,,,,l,1,1.4598,"[""0.141"",""0.661"",""0.448"",""0.795""]","[1,0,1,1]",0,9,9,9,1,1,1,,,0,FALSE,,,,,,,,,,,,,,,,,,,,,,,,,,,,,,,
,5e57a0020c3c6a14a1624031,627c82cb6b240a418bf97d65,2022-05-12_05h46.11.896,classification_task,2021.2.3,Win32,59.93766483,627c6715c52fd12f31907bcf,,,,,,,,,,,,,,,,,,,,,,,l,1,1.0683,"[""0.028"",""0.279"",""0.506"",""0.730""]","[0,1,1,1]",0,10,10,10,1,1,0,,,0,FALSE,,,,,,,,,,,,,,,,,,,,,,,,,,,,,,,
,5e57a0020c3c6a14a1624031,627c82cb6b240a418bf97d65,2022-05-12_05h46.11.896,classification_task,2021.2.3,Win32,59.93766483,627c6715c52fd12f31907bcf,,,,,,,,,,,,,,,,,,,,,,,l,1,0.499,"[""0.079"",""0.279"",""0.506"",""0.618""]","[1,1,1,0]",0,11,11,11,1,1,0,,,0,FALSE,,,,,,,,,,,,,,,,,,,,,,,,,,,,,,,
,5e57a0020c3c6a14a1624031,627c82cb6b240a418bf97d65,2022-05-12_05h46.11.896,classification_task,2021.2.3,Win32,59.93766483,627c6715c52fd12f31907bcf,,,,,,,,,,,,,,,,,,,,,,,a,1,1.8632,"[""0.322"",""0.044"",""0.851"",""0.973""]","[1,0,1,1]",0,12,12,12,1,0,0,,,0,FALSE,,,,,,,,,,,,,,,,,,,,,,,,,,,,,,,
,5e57a0020c3c6a14a1624031,627c82cb6b240a418bf97d65,2022-05-12_05h46.11.896,classification_task,2021.2.3,Win32,59.93766483,627c6715c52fd12f31907bcf,,,,,,,,,,,,,,,,,,,,,,,a,1,1.2038,"[""0.322"",""0.355"",""0.028"",""0.973""]","[1,1,0,1]",0,13,13,13,1,0,0,,,0,FALSE,,,,,,,,,,,,,,,,,,,,,,,,,,,,,,,
,5e57a0020c3c6a14a1624031,627c82cb6b240a418bf97d65,2022-05-12_05h46.11.896,classification_task,2021.2.3,Win32,59.93766483,627c6715c52fd12f31907bcf,,,,,,,,,,,,,,,,,,,,,,,l,1,0.965,"[""0.079"",""0.619"",""0.506"",""0.730""]","[1,0,1,1]",0,14,14,14,1,1,0,,,0,FALSE,,,,,,,,,,,,,,,,,,,,,,,,,,,,,,,
,5e57a0020c3c6a14a1624031,627c82cb6b240a418bf97d65,2022-05-12_05h46.11.896,classification_task,2021.2.3,Win32,59.93766483,627c6715c52fd12f31907bcf,,,,,,,,,,,,,,,,,,,,,,,l,0,1.7294,"[""0.661"",""0.553"",""0.905"",""0.939""]","[0,1,1,1]",0,15,15,15,1,0,1,,,0,FALSE,,,,,,,,,,,,,,,,,,,,,,,,,,,,,,,
,5e57a0020c3c6a14a1624031,627c82cb6b240a418bf97d65,2022-05-12_05h46.11.896,classification_task,2021.2.3,Win32,59.93766483,627c6715c52fd12f31907bcf,,,,,,,,,,,,,,,,,,,,,,,a,1,2.3636,"[""0.322"",""0.355"",""0.851"",""0.684""]","[1,1,1,0]",0,16,16,16,1,0,0,,,0,FALSE,,,,,,,,,,,,,,,,,,,,,,,,,,,,,,,
,5e57a0020c3c6a14a1624031,627c82cb6b240a418bf97d65,2022-05-12_05h46.11.896,classification_task,2021.2.3,Win32,59.93766483,627c6715c52fd12f31907bcf,,,,,,,,,,,,,,,,,,,,,,,a,1,3.6538,"[""0.243"",""0.553"",""0.905"",""0.619""]","[1,1,1,0]",0,17,17,17,1,0,1,,,0,FALSE,,,,,,,,,,,,,,,,,,,,,,,,,,,,,,,
,5e57a0020c3c6a14a1624031,627c82cb6b240a418bf97d65,2022-05-12_05h46.11.896,classification_task,2021.2.3,Win32,59.93766483,627c6715c52fd12f31907bcf,,,,,,,,,,,,,,,,,,,,,,,a,1,1.1968,"[""0.243"",""0.045"",""0.905"",""0.939""]","[1,0,1,1]",0,18,18,18,1,0,1,,,0,FALSE,,,,,,,,,,,,,,,,,,,,,,,,,,,,,,,
,5e57a0020c3c6a14a1624031,627c82cb6b240a418bf97d65,2022-05-12_05h46.11.896,classification_task,2021.2.3,Win32,59.93766483,627c6715c52fd12f31907bcf,,,,,,,,,,,,,,,,,,,,,,,l,1,1.7443,"[""0.079"",""0.279"",""0.685"",""0.730""]","[1,1,0,1]",0,19,19,19,1,1,0,,,0,FALSE,,,,,,,,,,,,,,,,,,,,,,,,,,,,,,,
,5e57a0020c3c6a14a1624031,627c82cb6b240a418bf97d65,2022-05-12_05h46.11.896,classification_task,2021.2.3,Win32,59.93766483,627c6715c52fd12f31907bcf,,,,,,,,,,,,,,,,,,,,,,,a,0,3.0523,"[""0.640"",""0.411"",""0.448"",""0.795""]","[0,1,1,1]",0,20,20,20,1,1,1,,,0,FALSE,,,,,,,,,,,,,,,,,,,,,,,,,,,,,,,
,5e57a0020c3c6a14a1624031,627c82cb6b240a418bf97d65,2022-05-12_05h46.11.896,classification_task,2021.2.3,Win32,59.93766483,627c6715c52fd12f31907bcf,,,,,,,,,,,,,,,,,,,,,,,l,1,1.7787,"[""0.141"",""0.411"",""0.618"",""0.795""]","[1,1,0,1]",0,21,21,21,1,1,1,,,0,FALSE,,,,,,,,,,,,,,,,,,,,,,,,,,,,,,,
,5e57a0020c3c6a14a1624031,627c82cb6b240a418bf97d65,2022-05-12_05h46.11.896,classification_task,2021.2.3,Win32,59.93766483,627c6715c52fd12f31907bcf,,,,,,,,,,,,,,,,,,,,,,,a,1,2.3122,"[""0.618"",""0.553"",""0.905"",""0.939""]","[0,1,1,1]",0,22,22,22,1,0,1,,,0,FALSE,,,,,,,,,,,,,,,,,,,,,,,,,,,,,,,
,5e57a0020c3c6a14a1624031,627c82cb6b240a418bf97d65,2022-05-12_05h46.11.896,classification_task,2021.2.3,Win32,59.93766483,627c6715c52fd12f31907bcf,,,,,,,,,,,,,,,,,,,,,,,l,1,1.6379,"[""0.141"",""0.682"",""0.448"",""0.795""]","[1,0,1,1]",0,23,23,23,1,1,1,,,0,FALSE,,,,,,,,,,,,,,,,,,,,,,,,,,,,,,,
,5e57a0020c3c6a14a1624031,627c82cb6b240a418bf97d65,2022-05-12_05h46.11.896,classification_task,2021.2.3,Win32,59.93766483,627c6715c52fd12f31907bcf,,,,,,,,,,,,,,,,,,,,,,,l,1,1.2243,"[""0.045"",""0.279"",""0.506"",""0.730""]","[0,1,1,1]",0,24,24,24,1,1,0,,,0,FALSE,,,,,,,,,,,,,,,,,,,,,,,,,,,,,,,
,5e57a0020c3c6a14a1624031,627c82cb6b240a418bf97d65,2022-05-12_05h46.11.896,classification_task,2021.2.3,Win32,59.93766483,627c6715c52fd12f31907bcf,,,,,,,,,,,,,,,,,,,,,,,l,1,1.3575,"[""0.141"",""0.411"",""0.448"",""0.684""]","[1,1,1,0]",0,25,25,25,1,1,1,,,0,FALSE,,,,,,,,,,,,,,,,,,,,,,,,,,,,,,,
,5e57a0020c3c6a14a1624031,627c82cb6b240a418bf97d65,2022-05-12_05h46.11.896,classification_task,2021.2.3,Win32,59.93766483,627c6715c52fd12f31907bcf,,,,,,,,,,,,,,,,,,,,,,,a,1,2.8006,"[""0.243"",""0.553"",""0.045"",""0.939""]","[1,1,0,1]",0,26,26,26,1,0,1,,,0,FALSE,,,,,,,,,,,,,,,,,,,,,,,,,,,,,,,
,5e57a0020c3c6a14a1624031,627c82cb6b240a418bf97d65,2022-05-12_05h46.11.896,classification_task,2021.2.3,Win32,59.93766483,627c6715c52fd12f31907bcf,,,,,,,,,,,,,,,,,,,,,,,a,1,3.0238,"[""0.682"",""0.355"",""0.851"",""0.973""]","[0,1,1,1]",0,27,27,27,1,0,0,,,0,FALSE,,,,,,,,,,,,,,,,,,,,,,,,,,,,,,,
,5e57a0020c3c6a14a1624031,627c82cb6b240a418bf97d65,2022-05-12_05h46.11.896,classification_task,2021.2.3,Win32,59.93766483,627c6715c52fd12f31907bcf,,,,,,,,,,,,,,,,,,,,,,,a,1,1.5933,"[""0.322"",""0.206"",""0.851"",""0.973""]","[1,0,1,1]",0,28,28,28,1,0,0,,,0,FALSE,,,,,,,,,,,,,,,,,,,,,,,,,,,,,,,
,5e57a0020c3c6a14a1624031,627c82cb6b240a418bf97d65,2022-05-12_05h46.11.896,classification_task,2021.2.3,Win32,59.93766483,627c6715c52fd12f31907bcf,,,,,,,,,,,,,,,,,,,,,,,l,1,1.437,"[""0.079"",""0.279"",""0.506"",""0.045""]","[1,1,1,0]",0,29,29,29,1,1,0,,,0,FALSE,,,,,,,,,,,,,,,,,,,,,,,,,,,,,,,
,5e57a0020c3c6a14a1624031,627c82cb6b240a418bf97d65,2022-05-12_05h46.11.896,classification_task,2021.2.3,Win32,59.93766483,627c6715c52fd12f31907bcf,,,,,,,,,,,,,,,,,,,,,,,a,1,1.8847,"[""0.322"",""0.355"",""0.044"",""0.973""]","[1,1,0,1]",0,30,30,30,1,0,0,,,0,FALSE,,,,,,,,,,,,,,,,,,,,,,,,,,,,,,,
,5e57a0020c3c6a14a1624031,627c82cb6b240a418bf97d65,2022-05-12_05h46.11.896,classification_task,2021.2.3,Win32,59.93766483,627c6715c52fd12f31907bcf,,,,,,,,,,,,,,,,,,,,,,,l,1,1.559,"[""0.079"",""0.684"",""0.506"",""0.730""]","[1,0,1,1]",0,31,31,31,1,1,0,,,0,FALSE,,,,,,,,,,,,,,,,,,,,,,,,,,,,,,,
,5e57a0020c3c6a14a1624031,627c82cb6b240a418bf97d65,2022-05-12_05h46.11.896,classification_task,2021.2.3,Win32,59.93766483,627c6715c52fd12f31907bcf,,,,,,,,,,,,,,,,,,,,,,,l,1,2.5036,"[""0.141"",""0.411"",""0.640"",""0.795""]","[1,1,0,1]",0,32,32,32,1,1,1,,,0,FALSE,,,,,,,,,,,,,,,,,,,,,,,,,,,,,,,
,5e57a0020c3c6a14a1624031,627c82cb6b240a418bf97d65,2022-05-12_05h46.11.896,classification_task,2021.2.3,Win32,59.93766483,627c6715c52fd12f31907bcf,,,,,,,,,,,,,,,,,,,,,,,l,0,0.9268,"[""0.243"",""0.553"",""0.045"",""0.939""]","[1,1,0,1]",0,33,33,33,1,0,1,,,0,FALSE,,,,,,,,,,,,,,,,,,,,,,,,,,,,,,,
,5e57a0020c3c6a14a1624031,627c82cb6b240a418bf97d65,2022-05-12_05h46.11.896,classification_task,2021.2.3,Win32,59.93766483,627c6715c52fd12f31907bcf,,,,,,,,,,,,,,,,,,,,,,,l,1,1.97,"[""0.079"",""0.279"",""0.206"",""0.730""]","[1,1,0,1]",0,34,34,34,1,1,0,,,0,FALSE,,,,,,,,,,,,,,,,,,,,,,,,,,,,,,,
,5e57a0020c3c6a14a1624031,627c82cb6b240a418bf97d65,2022-05-12_05h46.11.896,classification_task,2021.2.3,Win32,59.93766483,627c6715c52fd12f31907bcf,,,,,,,,,,,,,,,,,,,,,,,l,1,0.968,"[""0.079"",""0.279"",""0.506"",""0.684""]","[1,1,1,0]",0,35,35,35,1,1,0,,,0,FALSE,,,,,,,,,,,,,,,,,,,,,,,,,,,,,,,
,5e57a0020c3c6a14a1624031,627c82cb6b240a418bf97d65,2022-05-12_05h46.11.896,classification_task,2021.2.3,Win32,59.93766483,627c6715c52fd12f31907bcf,,,,,,,,,,,,,,,,,,,,,,,l,0,1.3725,"[""0.661"",""0.553"",""0.905"",""0.939""]","[0,1,1,1]",0,36,36,36,1,0,1,,,0,FALSE,,,,,,,,,,,,,,,,,,,,,,,,,,,,,,,
,5e57a0020c3c6a14a1624031,627c82cb6b240a418bf97d65,2022-05-12_05h46.11.896,classification_task,2021.2.3,Win32,59.93766483,627c6715c52fd12f31907bcf,,,,,,,,,,,,,,,,,,,,,,,a,1,4.237,"[""0.206"",""0.355"",""0.851"",""0.973""]","[0,1,1,1]",0,37,37,37,1,0,0,,,0,FALSE,,,,,,,,,,,,,,,,,,,,,,,,,,,,,,,
,5e57a0020c3c6a14a1624031,627c82cb6b240a418bf97d65,2022-05-12_05h46.11.896,classification_task,2021.2.3,Win32,59.93766483,627c6715c52fd12f31907bcf,,,,,,,,,,,,,,,,,,,,,,,a,1,2.3103,"[""0.322"",""0.684"",""0.851"",""0.973""]","[1,0,1,1]",0,38,38,38,1,0,0,,,0,FALSE,,,,,,,,,,,,,,,,,,,,,,,,,,,,,,,
,5e57a0020c3c6a14a1624031,627c82cb6b240a418bf97d65,2022-05-12_05h46.11.896,classification_task,2021.2.3,Win32,59.93766483,627c6715c52fd12f31907bcf,,,,,,,,,,,,,,,,,,,,,,,l,1,1.8433,"[""0.079"",""0.684"",""0.506"",""0.730""]","[1,0,1,1]",0,39,39,39,1,1,0,,,0,FALSE,,,,,,,,,,,,,,,,,,,,,,,,,,,,,,,
,5e57a0020c3c6a14a1624031,627c82cb6b240a418bf97d65,2022-05-12_05h46.11.896,classification_task,2021.2.3,Win32,59.93766483,627c6715c52fd12f31907bcf,,,,,,,,,,,,,,,,,,,,,,,a,0,2.6038,"[""0.045"",""0.411"",""0.448"",""0.795""]","[0,1,1,1]",0,40,40,40,1,1,1,,,0,FALSE,,,,,,,,,,,,,,,,,,,,,,,,,,,,,,,
,5e57a0020c3c6a14a1624031,627c82cb6b240a418bf97d65,2022-05-12_05h46.11.896,classification_task,2021.2.3,Win32,59.93766483,627c6715c52fd12f31907bcf,,,,,,,,,,,,,,,,,,,,,,,l,0,1.5157,"[""0.243"",""0.045"",""0.905"",""0.939""]","[1,0,1,1]",0,41,41,41,1,0,1,,,0,FALSE,,,,,,,,,,,,,,,,,,,,,,,,,,,,,,,
,5e57a0020c3c6a14a1624031,627c82cb6b240a418bf97d65,2022-05-12_05h46.11.896,classification_task,2021.2.3,Win32,59.93766483,627c6715c52fd12f31907bcf,,,,,,,,,,,,,,,,,,,,,,,a,1,1.0559,"[""0.243"",""0.553"",""0.905"",""0.618""]","[1,1,1,0]",0,42,42,42,1,0,1,,,0,FALSE,,,,,,,,,,,,,,,,,,,,,,,,,,,,,,,
,5e57a0020c3c6a14a1624031,627c82cb6b240a418bf97d65,2022-05-12_05h46.11.896,classification_task,2021.2.3,Win32,59.93766483,627c6715c52fd12f31907bcf,,,,,,,,,,,,,,,,,,,,,,,a,1,2.1372,"[""0.322"",""0.355"",""0.661"",""0.973""]","[1,1,0,1]",0,43,43,43,1,0,0,,,0,FALSE,,,,,,,,,,,,,,,,,,,,,,,,,,,,,,,
,5e57a0020c3c6a14a1624031,627c82cb6b240a418bf97d65,2022-05-12_05h46.11.896,classification_task,2021.2.3,Win32,59.93766483,627c6715c52fd12f31907bcf,,,,,,,,,,,,,,,,,,,,,,,a,1,0.599,"[""0.322"",""0.355"",""0.851"",""0.619""]","[1,1,1,0]",0,44,44,44,1,0,0,,,0,FALSE,,,,,,,,,,,,,,,,,,,,,,,,,,,,,,,
,5e57a0020c3c6a14a1624031,627c82cb6b240a418bf97d65,2022-05-12_05h46.11.896,classification_task,2021.2.3,Win32,59.93766483,627c6715c52fd12f31907bcf,,,,,,,,,,,,,,,,,,,,,,,l,1,1.0293,"[""0.600"",""0.279"",""0.506"",""0.730""]","[0,1,1,1]",0,45,45,45,1,1,0,,,0,FALSE,,,,,,,,,,,,,,,,,,,,,,,,,,,,,,,
,5e57a0020c3c6a14a1624031,627c82cb6b240a418bf97d65,2022-05-12_05h46.11.896,classification_task,2021.2.3,Win32,59.93766483,627c6715c52fd12f31907bcf,,,,,,,,,,,,,,,,,,,,,,,l,1,3.5738,"[""0.141"",""0.411"",""0.448"",""0.633""]","[1,1,1,0]",0,46,46,46,1,1,1,,,0,FALSE,,,,,,,,,,,,,,,,,,,,,,,,,,,,,,,
,5e57a0020c3c6a14a1624031,627c82cb6b240a418bf97d65,2022-05-12_05h46.11.896,classification_task,2021.2.3,Win32,59.93766483,627c6715c52fd12f31907bcf,,,,,,,,,,,,,,,,,,,,,,,l,1,0.7265,"[""0.141"",""0.618"",""0.448"",""0.795""]","[1,0,1,1]",0,47,47,47,1,1,1,,,0,FALSE,,,,,,,,,,,,,,,,,,,,,,,,,,,,,,,
,5e57a0020c3c6a14a1624031,627c82cb6b240a418bf97d65,2022-05-12_05h46.11.896,classification_task,2021.2.3,Win32,59.93766483,627c6715c52fd12f31907bcf,,,,,,,,,,,,,,,,,,,,,,,l,1,0.5576,"[""0.141"",""0.633"",""0.448"",""0.795""]","[1,0,1,1]",0,48,48,48,1,1,1,,,0,FALSE,,,,,,,,,,,,,,,,,,,,,,,,,,,,,,,
,5e57a0020c3c6a14a1624031,627c82cb6b240a418bf97d65,2022-05-12_05h46.11.896,classification_task,2021.2.3,Win32,59.93766483,627c6715c52fd12f31907bcf,,,,,,,,,,,,,,,,,,,,,,,a,1,1.8837,"[""0.322"",""0.355"",""0.619"",""0.973""]","[1,1,0,1]",0,49,49,49,1,0,0,,,0,FALSE,,,,,,,,,,,,,,,,,,,,,,,,,,,,,,,
,5e57a0020c3c6a14a1624031,627c82cb6b240a418bf97d65,2022-05-12_05h46.11.896,classification_task,2021.2.3,Win32,59.93766483,627c6715c52fd12f31907bcf,,,,,,,,,,,,,,,,,,,,,,,l,1,1.7678,"[""0.141"",""0.411"",""0.045"",""0.795""]","[1,1,0,1]",0,50,50,50,1,1,1,,,0,FALSE,,,,,,,,,,,,,,,,,,,,,,,,,,,,,,,
,5e57a0020c3c6a14a1624031,627c82cb6b240a418bf97d65,2022-05-12_05h46.11.896,classification_task,2021.2.3,Win32,59.93766483,627c6715c52fd12f31907bcf,,,,,,,,,,,,,,,,,,,,,,,l,1,0.7093,"[""0.141"",""0.411"",""0.448"",""0.640""]","[1,1,1,0]",0,51,51,51,1,1,1,,,0,FALSE,,,,,,,,,,,,,,,,,,,,,,,,,,,,,,,
,5e57a0020c3c6a14a1624031,627c82cb6b240a418bf97d65,2022-05-12_05h46.11.896,classification_task,2021.2.3,Win32,59.93766483,627c6715c52fd12f31907bcf,,,,,,,,,,,,,,,,,,,,,,,a,1,1.6777,"[""0.243"",""0.553"",""0.044"",""0.939""]","[1,1,0,1]",0,52,52,52,1,0,1,,,0,FALSE,,,,,,,,,,,,,,,,,,,,,,,,,,,,,,,
,5e57a0020c3c6a14a1624031,627c82cb6b240a418bf97d65,2022-05-12_05h46.11.896,classification_task,2021.2.3,Win32,59.93766483,627c6715c52fd12f31907bcf,,,,,,,,,,,,,,,,,,,,,,,a,1,2.8586,"[""0.243"",""0.553"",""0.905"",""0.661""]","[1,1,1,0]",0,53,53,53,1,0,1,,,0,FALSE,,,,,,,,,,,,,,,,,,,,,,,,,,,,,,,
,5e57a0020c3c6a14a1624031,627c82cb6b240a418bf97d65,2022-05-12_05h46.11.896,classification_task,2021.2.3,Win32,59.93766483,627c6715c52fd12f31907bcf,,,,,,,,,,,,,,,,,,,,,,,a,1,1.7057,"[""0.243"",""0.684"",""0.905"",""0.939""]","[1,0,1,1]",0,54,54,54,1,0,1,,,0,FALSE,,,,,,,,,,,,,,,,,,,,,,,,,,,,,,,
,5e57a0020c3c6a14a1624031,627c82cb6b240a418bf97d65,2022-05-12_05h46.11.896,classification_task,2021.2.3,Win32,59.93766483,627c6715c52fd12f31907bcf,,,,,,,,,,,,,,,,,,,,,,,l,1,1.3275,"[""0.079"",""0.279"",""0.506"",""0.661""]","[1,1,1,0]",0,55,55,55,1,1,0,,,0,FALSE,,,,,,,,,,,,,,,,,,,,,,,,,,,,,,,
,5e57a0020c3c6a14a1624031,627c82cb6b240a418bf97d65,2022-05-12_05h46.11.896,classification_task,2021.2.3,Win32,59.93766483,627c6715c52fd12f31907bcf,,,,,,,,,,,,,,,,,,,,,,,l,1,1.1164,"[""0.079"",""0.279"",""0.028"",""0.730""]","[1,1,0,1]",0,56,56,56,1,1,0,,,0,FALSE,,,,,,,,,,,,,,,,,,,,,,,,,,,,,,,
,5e57a0020c3c6a14a1624031,627c82cb6b240a418bf97d65,2022-05-12_05h46.11.896,classification_task,2021.2.3,Win32,59.93766483,627c6715c52fd12f31907bcf,,,,,,,,,,,,,,,,,,,,,,,a,1,3.215,"[""0.661"",""0.553"",""0.905"",""0.939""]","[0,1,1,1]",0,57,57,57,1,0,1,,,0,FALSE,,,,,,,,,,,,,,,,,,,,,,,,,,,,,,,
,5e57a0020c3c6a14a1624031,627c82cb6b240a418bf97d65,2022-05-12_05h46.11.896,classification_task,2021.2.3,Win32,59.93766483,627c6715c52fd12f31907bcf,,,,,,,,,,,,,,,,,,,,,,,a,1,1.3652,"[""0.206"",""0.355"",""0.851"",""0.973""]","[0,1,1,1]",0,58,58,58,1,0,0,,,0,FALSE,,,,,,,,,,,,,,,,,,,,,,,,,,,,,,,
,5e57a0020c3c6a14a1624031,627c82cb6b240a418bf97d65,2022-05-12_05h46.11.896,classification_task,2021.2.3,Win32,59.93766483,627c6715c52fd12f31907bcf,,,,,,,,,,,,,,,,,,,,,,,l,1,0.7472,"[""0.079"",""0.633"",""0.506"",""0.730""]","[1,0,1,1]",0,59,59,59,1,1,0,,,0,FALSE,,,,,,,,,,,,,,,,,,,,,,,,,,,,,,,
,5e57a0020c3c6a14a1624031,627c82cb6b240a418bf97d65,2022-05-12_05h46.11.896,classification_task,2021.2.3,Win32,59.93766483,627c6715c52fd12f31907bcf,,,,,,,,,,,,,,,,,,,,,,,l,1,0.8075,"[""0.045"",""0.279"",""0.506"",""0.730""]","[0,1,1,1]",0,60,60,60,1,1,0,,,0,FALSE,,,,,,,,,,,,,,,,,,,,,,,,,,,,,,,
,5e57a0020c3c6a14a1624031,627c82cb6b240a418bf97d65,2022-05-12_05h46.11.896,classification_task,2021.2.3,Win32,59.93766483,627c6715c52fd12f31907bcf,,,,,,,,,,,,,,,,,,,,,,,a,1,3.2388,"[""0.322"",""0.045"",""0.851"",""0.973""]","[1,0,1,1]",0,61,61,61,1,0,0,,,0,FALSE,,,,,,,,,,,,,,,,,,,,,,,,,,,,,,,
,5e57a0020c3c6a14a1624031,627c82cb6b240a418bf97d65,2022-05-12_05h46.11.896,classification_task,2021.2.3,Win32,59.93766483,627c6715c52fd12f31907bcf,,,,,,,,,,,,,,,,,,,,,,,a,1,0.9428,"[""0.322"",""0.355"",""0.851"",""0.640""]","[1,1,1,0]",0,62,62,62,1,0,0,,,0,FALSE,,,,,,,,,,,,,,,,,,,,,,,,,,,,,,,
,5e57a0020c3c6a14a1624031,627c82cb6b240a418bf97d65,2022-05-12_05h46.11.896,classification_task,2021.2.3,Win32,59.93766483,627c6715c52fd12f31907bcf,,,,,,,,,,,,,,,,,,,,,,,a,0,4.866,"[""0.618"",""0.411"",""0.448"",""0.795""]","[0,1,1,1]",0,63,63,63,1,1,1,,,0,FALSE,,,,,,,,,,,,,,,,,,,,,,,,,,,,,,,
,5e57a0020c3c6a14a1624031,627c82cb6b240a418bf97d65,2022-05-12_05h46.11.896,classification_task,2021.2.3,Win32,59.93766483,627c6715c52fd12f31907bcf,,,,,,,,,,,,,,,,,,,,,,,,,,,,,,,,,,,,,,,0, ,,0,5.538898687,202.5374,0,1,1,1,1,2,2,,,,,,,,,,,,,,,,,,
,5e57a0020c3c6a14a1624031,627c82cb6b240a418bf97d65,2022-05-12_05h46.11.896,classification_task,2021.2.3,Win32,59.93766483,627c6715c52fd12f31907bcf,,,,,,,,,,,,,,,,,,,,,,,,,,,,,,,,,,,,,,,1,  ,,0,5.293944738,206.7804,0,1,1,1,1,2,2,,,,,,,,,,,,,,,,,,
,5e57a0020c3c6a14a1624031,627c82cb6b240a418bf97d65,2022-05-12_05h46.11.896,classification_task,2021.2.3,Win32,59.93766483,627c6715c52fd12f31907bcf,,,,,,,,,,,,,,,,,,,,,,,,,,,,,,,,,,,,,,,2,  ,,0,5.685871056,209.3311,0,1,1,1,1,2,2,,,,,,,,,,,,,,,,,,
,5e57a0020c3c6a14a1624031,627c82cb6b240a418bf97d65,2022-05-12_05h46.11.896,classification_task,2021.2.3,Win32,59.93766483,627c6715c52fd12f31907bcf,,,,,,,,,,,,,,,,,,,,,,,,,,,,,,,,,,,,,,,,,,,,,0,1,1,1,1,,2,,,,,,,,,,,,,,,,,,
,5e57a0020c3c6a14a1624031,627c82cb6b240a418bf97d65,2022-05-12_05h46.11.896,classification_task,2021.2.3,Win32,59.93766483,627c6715c52fd12f31907bcf,,,,,,,,,,,,,,,,,,,,,space,5.4118,a,1,1.9382,"[""0.322"",""0.619"",""0.851"",""0.973""]","[1,0,1,1]",0,0,0,0,1,0,0,,,0,FALSE,,,,,,,,,,,,,,,,,,,,,,,,,,,,,,,
,5e57a0020c3c6a14a1624031,627c82cb6b240a418bf97d65,2022-05-12_05h46.11.896,classification_task,2021.2.3,Win32,59.93766483,627c6715c52fd12f31907bcf,,,,,,,,,,,,,,,,,,,,,,,l,1,2.3331,"[""0.079"",""0.279"",""0.028"",""0.730""]","[1,1,0,1]",0,1,1,1,1,1,0,,,0,FALSE,,,,,,,,,,,,,,,,,,,,,,,,,,,,,,,
,5e57a0020c3c6a14a1624031,627c82cb6b240a418bf97d65,2022-05-12_05h46.11.896,classification_task,2021.2.3,Win32,59.93766483,627c6715c52fd12f31907bcf,,,,,,,,,,,,,,,,,,,,,,,l,1,1.7601,"[""0.141"",""0.411"",""0.448"",""0.206""]","[1,1,1,0]",0,2,2,2,1,1,1,,,0,FALSE,,,,,,,,,,,,,,,,,,,,,,,,,,,,,,,
,5e57a0020c3c6a14a1624031,627c82cb6b240a418bf97d65,2022-05-12_05h46.11.896,classification_task,2021.2.3,Win32,59.93766483,627c6715c52fd12f31907bcf,,,,,,,,,,,,,,,,,,,,,,,a,0,2.6625,"[""0.045"",""0.411"",""0.448"",""0.795""]","[0,1,1,1]",0,3,3,3,1,1,1,,,0,FALSE,,,,,,,,,,,,,,,,,,,,,,,,,,,,,,,
,5e57a0020c3c6a14a1624031,627c82cb6b240a418bf97d65,2022-05-12_05h46.11.896,classification_task,2021.2.3,Win32,59.93766483,627c6715c52fd12f31907bcf,,,,,,,,,,,,,,,,,,,,,,,l,1,2.1603,"[""0.044"",""0.279"",""0.506"",""0.730""]","[0,1,1,1]",0,4,4,4,1,1,0,,,0,FALSE,,,,,,,,,,,,,,,,,,,,,,,,,,,,,,,
,5e57a0020c3c6a14a1624031,627c82cb6b240a418bf97d65,2022-05-12_05h46.11.896,classification_task,2021.2.3,Win32,59.93766483,627c6715c52fd12f31907bcf,,,,,,,,,,,,,,,,,,,,,,,l,1,1.6463,"[""0.079"",""0.279"",""0.506"",""0.684""]","[1,1,1,0]",0,5,5,5,1,1,0,,,0,FALSE,,,,,,,,,,,,,,,,,,,,,,,,,,,,,,,
,5e57a0020c3c6a14a1624031,627c82cb6b240a418bf97d65,2022-05-12_05h46.11.896,classification_task,2021.2.3,Win32,59.93766483,627c6715c52fd12f31907bcf,,,,,,,,,,,,,,,,,,,,,,,a,1,2.6013,"[""0.640"",""0.553"",""0.905"",""0.939""]","[0,1,1,1]",0,6,6,6,1,0,1,,,0,FALSE,,,,,,,,,,,,,,,,,,,,,,,,,,,,,,,
,5e57a0020c3c6a14a1624031,627c82cb6b240a418bf97d65,2022-05-12_05h46.11.896,classification_task,2021.2.3,Win32,59.93766483,627c6715c52fd12f31907bcf,,,,,,,,,,,,,,,,,,,,,,,a,1,2.0346,"[""0.243"",""0.553"",""0.905"",""0.640""]","[1,1,1,0]",0,7,7,7,1,0,1,,,0,FALSE,,,,,,,,,,,,,,,,,,,,,,,,,,,,,,,
,5e57a0020c3c6a14a1624031,627c82cb6b240a418bf97d65,2022-05-12_05h46.11.896,classification_task,2021.2.3,Win32,59.93766483,627c6715c52fd12f31907bcf,,,,,,,,,,,,,,,,,,,,,,,a,0,3.0163,"[""0.141"",""0.640"",""0.448"",""0.795""]","[1,0,1,1]",0,8,8,8,1,1,1,,,0,FALSE,,,,,,,,,,,,,,,,,,,,,,,,,,,,,,,
,5e57a0020c3c6a14a1624031,627c82cb6b240a418bf97d65,2022-05-12_05h46.11.896,classification_task,2021.2.3,Win32,59.93766483,627c6715c52fd12f31907bcf,,,,,,,,,,,,,,,,,,,,,,,a,1,3.5597,"[""0.028"",""0.355"",""0.851"",""0.973""]","[0,1,1,1]",0,9,9,9,1,0,0,,,0,FALSE,,,,,,,,,,,,,,,,,,,,,,,,,,,,,,,
,5e57a0020c3c6a14a1624031,627c82cb6b240a418bf97d65,2022-05-12_05h46.11.896,classification_task,2021.2.3,Win32,59.93766483,627c6715c52fd12f31907bcf,,,,,,,,,,,,,,,,,,,,,,,a,1,0.7836,"[""0.322"",""0.355"",""0.682"",""0.973""]","[1,1,0,1]",0,10,10,10,1,0,0,,,0,FALSE,,,,,,,,,,,,,,,,,,,,,,,,,,,,,,,
,5e57a0020c3c6a14a1624031,627c82cb6b240a418bf97d65,2022-05-12_05h46.11.896,classification_task,2021.2.3,Win32,59.93766483,627c6715c52fd12f31907bcf,,,,,,,,,,,,,,,,,,,,,,,l,1,1.261,"[""0.141"",""0.411"",""0.619"",""0.795""]","[1,1,0,1]",0,11,11,11,1,1,1,,,0,FALSE,,,,,,,,,,,,,,,,,,,,,,,,,,,,,,,
,5e57a0020c3c6a14a1624031,627c82cb6b240a418bf97d65,2022-05-12_05h46.11.896,classification_task,2021.2.3,Win32,59.93766483,627c6715c52fd12f31907bcf,,,,,,,,,,,,,,,,,,,,,,,a,1,3.1545,"[""0.243"",""0.206"",""0.905"",""0.939""]","[1,0,1,1]",0,12,12,12,1,0,1,,,0,FALSE,,,,,,,,,,,,,,,,,,,,,,,,,,,,,,,
,5e57a0020c3c6a14a1624031,627c82cb6b240a418bf97d65,2022-05-12_05h46.11.896,classification_task,2021.2.3,Win32,59.93766483,627c6715c52fd12f31907bcf,,,,,,,,,,,,,,,,,,,,,,,a,1,2.7969,"[""0.322"",""0.355"",""0.851"",""0.659""]","[1,1,1,0]",0,13,13,13,1,0,0,,,0,FALSE,,,,,,,,,,,,,,,,,,,,,,,,,,,,,,,
,5e57a0020c3c6a14a1624031,627c82cb6b240a418bf97d65,2022-05-12_05h46.11.896,classification_task,2021.2.3,Win32,59.93766483,627c6715c52fd12f31907bcf,,,,,,,,,,,,,,,,,,,,,,,l,1,4.6368,"[""0.079"",""0.640"",""0.506"",""0.730""]","[1,0,1,1]",0,14,14,14,1,1,0,,,0,FALSE,,,,,,,,,,,,,,,,,,,,,,,,,,,,,,,
,5e57a0020c3c6a14a1624031,627c82cb6b240a418bf97d65,2022-05-12_05h46.11.896,classification_task,2021.2.3,Win32,59.93766483,627c6715c52fd12f31907bcf,,,,,,,,,,,,,,,,,,,,,,,a,1,2.2603,"[""0.243"",""0.553"",""0.619"",""0.939""]","[1,1,0,1]",0,15,15,15,1,0,1,,,0,FALSE,,,,,,,,,,,,,,,,,,,,,,,,,,,,,,,
,5e57a0020c3c6a14a1624031,627c82cb6b240a418bf97d65,2022-05-12_05h46.11.896,classification_task,2021.2.3,Win32,59.93766483,627c6715c52fd12f31907bcf,,,,,,,,,,,,,,,,,,,,,,,l,1,2.8932,"[""0.079"",""0.684"",""0.506"",""0.730""]","[1,0,1,1]",0,16,16,16,1,1,0,,,0,FALSE,,,,,,,,,,,,,,,,,,,,,,,,,,,,,,,
,5e57a0020c3c6a14a1624031,627c82cb6b240a418bf97d65,2022-05-12_05h46.11.896,classification_task,2021.2.3,Win32,59.93766483,627c6715c52fd12f31907bcf,,,,,,,,,,,,,,,,,,,,,,,l,1,1.8934,"[""0.141"",""0.045"",""0.448"",""0.795""]","[1,0,1,1]",0,17,17,17,1,1,1,,,0,FALSE,,,,,,,,,,,,,,,,,,,,,,,,,,,,,,,
,5e57a0020c3c6a14a1624031,627c82cb6b240a418bf97d65,2022-05-12_05h46.11.896,classification_task,2021.2.3,Win32,59.93766483,627c6715c52fd12f31907bcf,,,,,,,,,,,,,,,,,,,,,,,l,0,0.7606,"[""0.243"",""0.206"",""0.905"",""0.939""]","[1,0,1,1]",0,18,18,18,1,0,1,,,0,FALSE,,,,,,,,,,,,,,,,,,,,,,,,,,,,,,,
,5e57a0020c3c6a14a1624031,627c82cb6b240a418bf97d65,2022-05-12_05h46.11.896,classification_task,2021.2.3,Win32,59.93766483,627c6715c52fd12f31907bcf,,,,,,,,,,,,,,,,,,,,,,,l,1,2.8212,"[""0.079"",""0.279"",""0.661"",""0.730""]","[1,1,0,1]",0,19,19,19,1,1,0,,,0,FALSE,,,,,,,,,,,,,,,,,,,,,,,,,,,,,,,
,5e57a0020c3c6a14a1624031,627c82cb6b240a418bf97d65,2022-05-12_05h46.11.896,classification_task,2021.2.3,Win32,59.93766483,627c6715c52fd12f31907bcf,,,,,,,,,,,,,,,,,,,,,,,a,1,1.7173,"[""0.322"",""0.355"",""0.600"",""0.973""]","[1,1,0,1]",0,20,20,20,1,0,0,,,0,FALSE,,,,,,,,,,,,,,,,,,,,,,,,,,,,,,,
,5e57a0020c3c6a14a1624031,627c82cb6b240a418bf97d65,2022-05-12_05h46.11.896,classification_task,2021.2.3,Win32,59.93766483,627c6715c52fd12f31907bcf,,,,,,,,,,,,,,,,,,,,,,,l,1,4.4167,"[""0.079"",""0.279"",""0.506"",""0.206""]","[1,1,1,0]",0,21,21,21,1,1,0,,,0,FALSE,,,,,,,,,,,,,,,,,,,,,,,,,,,,,,,
,5e57a0020c3c6a14a1624031,627c82cb6b240a418bf97d65,2022-05-12_05h46.11.896,classification_task,2021.2.3,Win32,59.93766483,627c6715c52fd12f31907bcf,,,,,,,,,,,,,,,,,,,,,,,a,1,4.5981,"[""0.243"",""0.553"",""0.905"",""0.618""]","[1,1,1,0]",0,22,22,22,1,0,1,,,0,FALSE,,,,,,,,,,,,,,,,,,,,,,,,,,,,,,,
,5e57a0020c3c6a14a1624031,627c82cb6b240a418bf97d65,2022-05-12_05h46.11.896,classification_task,2021.2.3,Win32,59.93766483,627c6715c52fd12f31907bcf,,,,,,,,,,,,,,,,,,,,,,,a,1,1.1174,"[""0.026"",""0.553"",""0.905"",""0.939""]","[0,1,1,1]",0,23,23,23,1,0,1,,,0,FALSE,,,,,,,,,,,,,,,,,,,,,,,,,,,,,,,
,5e57a0020c3c6a14a1624031,627c82cb6b240a418bf97d65,2022-05-12_05h46.11.896,classification_task,2021.2.3,Win32,59.93766483,627c6715c52fd12f31907bcf,,,,,,,,,,,,,,,,,,,,,,,l,1,3.7664,"[""0.045"",""0.279"",""0.506"",""0.730""]","[0,1,1,1]",0,24,24,24,1,1,0,,,0,FALSE,,,,,,,,,,,,,,,,,,,,,,,,,,,,,,,
,5e57a0020c3c6a14a1624031,627c82cb6b240a418bf97d65,2022-05-12_05h46.11.896,classification_task,2021.2.3,Win32,59.93766483,627c6715c52fd12f31907bcf,,,,,,,,,,,,,,,,,,,,,,,l,1,2.1127,"[""0.618"",""0.411"",""0.448"",""0.795""]","[0,1,1,1]",0,25,25,25,1,1,1,,,0,FALSE,,,,,,,,,,,,,,,,,,,,,,,,,,,,,,,
,5e57a0020c3c6a14a1624031,627c82cb6b240a418bf97d65,2022-05-12_05h46.11.896,classification_task,2021.2.3,Win32,59.93766483,627c6715c52fd12f31907bcf,,,,,,,,,,,,,,,,,,,,,,,l,1,2.0574,"[""0.141"",""0.411"",""0.633"",""0.795""]","[1,1,0,1]",0,26,26,26,1,1,1,,,0,FALSE,,,,,,,,,,,,,,,,,,,,,,,,,,,,,,,
,5e57a0020c3c6a14a1624031,627c82cb6b240a418bf97d65,2022-05-12_05h46.11.896,classification_task,2021.2.3,Win32,59.93766483,627c6715c52fd12f31907bcf,,,,,,,,,,,,,,,,,,,,,,,a,1,1.3679,"[""0.243"",""0.553"",""0.633"",""0.939""]","[1,1,0,1]",0,27,27,27,1,0,1,,,0,FALSE,,,,,,,,,,,,,,,,,,,,,,,,,,,,,,,
,5e57a0020c3c6a14a1624031,627c82cb6b240a418bf97d65,2022-05-12_05h46.11.896,classification_task,2021.2.3,Win32,59.93766483,627c6715c52fd12f31907bcf,,,,,,,,,,,,,,,,,,,,,,,a,1,1.8331,"[""0.682"",""0.355"",""0.851"",""0.973""]","[0,1,1,1]",0,28,28,28,1,0,0,,,0,FALSE,,,,,,,,,,,,,,,,,,,,,,,,,,,,,,,
,5e57a0020c3c6a14a1624031,627c82cb6b240a418bf97d65,2022-05-12_05h46.11.896,classification_task,2021.2.3,Win32,59.93766483,627c6715c52fd12f31907bcf,,,,,,,,,,,,,,,,,,,,,,,l,1,1.3989,"[""0.141"",""0.411"",""0.448"",""0.659""]","[1,1,1,0]",0,29,29,29,1,1,1,,,0,FALSE,,,,,,,,,,,,,,,,,,,,,,,,,,,,,,,
,5e57a0020c3c6a14a1624031,627c82cb6b240a418bf97d65,2022-05-12_05h46.11.896,classification_task,2021.2.3,Win32,59.93766483,627c6715c52fd12f31907bcf,,,,,,,,,,,,,,,,,,,,,,,a,1,1.2359,"[""0.322"",""0.028"",""0.851"",""0.973""]","[1,0,1,1]",0,30,30,30,1,0,0,,,0,FALSE,,,,,,,,,,,,,,,,,,,,,,,,,,,,,,,
,5e57a0020c3c6a14a1624031,627c82cb6b240a418bf97d65,2022-05-12_05h46.11.896,classification_task,2021.2.3,Win32,59.93766483,627c6715c52fd12f31907bcf,,,,,,,,,,,,,,,,,,,,,,,a,1,0.9221,"[""0.322"",""0.355"",""0.851"",""0.682""]","[1,1,1,0]",0,31,31,31,1,0,0,,,0,FALSE,,,,,,,,,,,,,,,,,,,,,,,,,,,,,,,
,5e57a0020c3c6a14a1624031,627c82cb6b240a418bf97d65,2022-05-12_05h46.11.896,classification_task,2021.2.3,Win32,59.93766483,627c6715c52fd12f31907bcf,,,,,,,,,,,,,,,,,,,,,,,l,1,0.9328,"[""0.141"",""0.411"",""0.448"",""0.633""]","[1,1,1,0]",0,32,32,32,1,1,1,,,0,FALSE,,,,,,,,,,,,,,,,,,,,,,,,,,,,,,,
,5e57a0020c3c6a14a1624031,627c82cb6b240a418bf97d65,2022-05-12_05h46.11.896,classification_task,2021.2.3,Win32,59.93766483,627c6715c52fd12f31907bcf,,,,,,,,,,,,,,,,,,,,,,,a,1,1.4467,"[""0.682"",""0.553"",""0.905"",""0.939""]","[0,1,1,1]",0,33,33,33,1,0,1,,,0,FALSE,,,,,,,,,,,,,,,,,,,,,,,,,,,,,,,
,5e57a0020c3c6a14a1624031,627c82cb6b240a418bf97d65,2022-05-12_05h46.11.896,classification_task,2021.2.3,Win32,59.93766483,627c6715c52fd12f31907bcf,,,,,,,,,,,,,,,,,,,,,,,l,0,2.1004,"[""0.243"",""0.028"",""0.905"",""0.939""]","[1,0,1,1]",0,34,34,34,1,0,1,,,0,FALSE,,,,,,,,,,,,,,,,,,,,,,,,,,,,,,,
,5e57a0020c3c6a14a1624031,627c82cb6b240a418bf97d65,2022-05-12_05h46.11.896,classification_task,2021.2.3,Win32,59.93766483,627c6715c52fd12f31907bcf,,,,,,,,,,,,,,,,,,,,,,,l,1,2.8813,"[""0.079"",""0.044"",""0.506"",""0.730""]","[1,0,1,1]",0,35,35,35,1,1,0,,,0,FALSE,,,,,,,,,,,,,,,,,,,,,,,,,,,,,,,
,5e57a0020c3c6a14a1624031,627c82cb6b240a418bf97d65,2022-05-12_05h46.11.896,classification_task,2021.2.3,Win32,59.93766483,627c6715c52fd12f31907bcf,,,,,,,,,,,,,,,,,,,,,,,a,0,1.4449,"[""0.619"",""0.411"",""0.448"",""0.795""]","[0,1,1,1]",0,36,36,36,1,1,1,,,0,FALSE,,,,,,,,,,,,,,,,,,,,,,,,,,,,,,,
,5e57a0020c3c6a14a1624031,627c82cb6b240a418bf97d65,2022-05-12_05h46.11.896,classification_task,2021.2.3,Win32,59.93766483,627c6715c52fd12f31907bcf,,,,,,,,,,,,,,,,,,,,,,,a,0,1.8883,"[""0.079"",""0.279"",""0.618"",""0.730""]","[1,1,0,1]",0,37,37,37,1,1,0,,,0,FALSE,,,,,,,,,,,,,,,,,,,,,,,,,,,,,,,
,5e57a0020c3c6a14a1624031,627c82cb6b240a418bf97d65,2022-05-12_05h46.11.896,classification_task,2021.2.3,Win32,59.93766483,627c6715c52fd12f31907bcf,,,,,,,,,,,,,,,,,,,,,,,l,1,2.5333,"[""0.079"",""0.279"",""0.506"",""0.619""]","[1,1,1,0]",0,38,38,38,1,1,0,,,0,FALSE,,,,,,,,,,,,,,,,,,,,,,,,,,,,,,,
,5e57a0020c3c6a14a1624031,627c82cb6b240a418bf97d65,2022-05-12_05h46.11.896,classification_task,2021.2.3,Win32,59.93766483,627c6715c52fd12f31907bcf,,,,,,,,,,,,,,,,,,,,,,,a,1,4.2558,"[""0.243"",""0.553"",""0.905"",""0.661""]","[1,1,1,0]",0,39,39,39,1,0,1,,,0,FALSE,,,,,,,,,,,,,,,,,,,,,,,,,,,,,,,
,5e57a0020c3c6a14a1624031,627c82cb6b240a418bf97d65,2022-05-12_05h46.11.896,classification_task,2021.2.3,Win32,59.93766483,627c6715c52fd12f31907bcf,,,,,,,,,,,,,,,,,,,,,,,a,1,1.6212,"[""0.322"",""0.355"",""0.684"",""0.973""]","[1,1,0,1]",0,40,40,40,1,0,0,,,0,FALSE,,,,,,,,,,,,,,,,,,,,,,,,,,,,,,,
,5e57a0020c3c6a14a1624031,627c82cb6b240a418bf97d65,2022-05-12_05h46.11.896,classification_task,2021.2.3,Win32,59.93766483,627c6715c52fd12f31907bcf,,,,,,,,,,,,,,,,,,,,,,,l,1,3.4343,"[""0.661"",""0.279"",""0.506"",""0.730""]","[0,1,1,1]",0,41,41,41,1,1,0,,,0,FALSE,,,,,,,,,,,,,,,,,,,,,,,,,,,,,,,
,5e57a0020c3c6a14a1624031,627c82cb6b240a418bf97d65,2022-05-12_05h46.11.896,classification_task,2021.2.3,Win32,59.93766483,627c6715c52fd12f31907bcf,,,,,,,,,,,,,,,,,,,,,,,l,1,1.4815,"[""0.141"",""0.411"",""0.045"",""0.795""]","[1,1,0,1]",0,42,42,42,1,1,1,,,0,FALSE,,,,,,,,,,,,,,,,,,,,,,,,,,,,,,,
,5e57a0020c3c6a14a1624031,627c82cb6b240a418bf97d65,2022-05-12_05h46.11.896,classification_task,2021.2.3,Win32,59.93766483,627c6715c52fd12f31907bcf,,,,,,,,,,,,,,,,,,,,,,,a,1,1.2036,"[""0.685"",""0.355"",""0.851"",""0.973""]","[0,1,1,1]",0,43,43,43,1,0,0,,,0,FALSE,,,,,,,,,,,,,,,,,,,,,,,,,,,,,,,
,5e57a0020c3c6a14a1624031,627c82cb6b240a418bf97d65,2022-05-12_05h46.11.896,classification_task,2021.2.3,Win32,59.93766483,627c6715c52fd12f31907bcf,,,,,,,,,,,,,,,,,,,,,,,a,1,0.9007,"[""0.322"",""0.684"",""0.851"",""0.973""]","[1,0,1,1]",0,44,44,44,1,0,0,,,0,FALSE,,,,,,,,,,,,,,,,,,,,,,,,,,,,,,,
,5e57a0020c3c6a14a1624031,627c82cb6b240a418bf97d65,2022-05-12_05h46.11.896,classification_task,2021.2.3,Win32,59.93766483,627c6715c52fd12f31907bcf,,,,,,,,,,,,,,,,,,,,,,,a,1,0.7665,"[""0.322"",""0.355"",""0.851"",""0.045""]","[1,1,1,0]",0,45,45,45,1,0,0,,,0,FALSE,,,,,,,,,,,,,,,,,,,,,,,,,,,,,,,
,5e57a0020c3c6a14a1624031,627c82cb6b240a418bf97d65,2022-05-12_05h46.11.896,classification_task,2021.2.3,Win32,59.93766483,627c6715c52fd12f31907bcf,,,,,,,,,,,,,,,,,,,,,,,a,1,1.9427,"[""0.243"",""0.553"",""0.600"",""0.939""]","[1,1,0,1]",0,46,46,46,1,0,1,,,0,FALSE,,,,,,,,,,,,,,,,,,,,,,,,,,,,,,,
,5e57a0020c3c6a14a1624031,627c82cb6b240a418bf97d65,2022-05-12_05h46.11.896,classification_task,2021.2.3,Win32,59.93766483,627c6715c52fd12f31907bcf,,,,,,,,,,,,,,,,,,,,,,,l,1,1.2108,"[""0.141"",""0.044"",""0.448"",""0.795""]","[1,0,1,1]",0,47,47,47,1,1,1,,,0,FALSE,,,,,,,,,,,,,,,,,,,,,,,,,,,,,,,
,5e57a0020c3c6a14a1624031,627c82cb6b240a418bf97d65,2022-05-12_05h46.11.896,classification_task,2021.2.3,Win32,59.93766483,627c6715c52fd12f31907bcf,,,,,,,,,,,,,,,,,,,,,,,a,1,3.2333,"[""0.028"",""0.553"",""0.905"",""0.939""]","[0,1,1,1]",0,48,48,48,1,0,1,,,0,FALSE,,,,,,,,,,,,,,,,,,,,,,,,,,,,,,,
,5e57a0020c3c6a14a1624031,627c82cb6b240a418bf97d65,2022-05-12_05h46.11.896,classification_task,2021.2.3,Win32,59.93766483,627c6715c52fd12f31907bcf,,,,,,,,,,,,,,,,,,,,,,,l,1,5.8468,"[""0.684"",""0.279"",""0.506"",""0.730""]","[0,1,1,1]",0,49,49,49,1,1,0,,,0,FALSE,,,,,,,,,,,,,,,,,,,,,,,,,,,,,,,
,5e57a0020c3c6a14a1624031,627c82cb6b240a418bf97d65,2022-05-12_05h46.11.896,classification_task,2021.2.3,Win32,59.93766483,627c6715c52fd12f31907bcf,,,,,,,,,,,,,,,,,,,,,,,a,1,0.7802,"[""0.322"",""0.355"",""0.045"",""0.973""]","[1,1,0,1]",0,50,50,50,1,0,0,,,0,FALSE,,,,,,,,,,,,,,,,,,,,,,,,,,,,,,,
,5e57a0020c3c6a14a1624031,627c82cb6b240a418bf97d65,2022-05-12_05h46.11.896,classification_task,2021.2.3,Win32,59.93766483,627c6715c52fd12f31907bcf,,,,,,,,,,,,,,,,,,,,,,,a,0,5.4497,"[""0.640"",""0.411"",""0.448"",""0.795""]","[0,1,1,1]",0,51,51,51,1,1,1,,,0,FALSE,,,,,,,,,,,,,,,,,,,,,,,,,,,,,,,
,5e57a0020c3c6a14a1624031,627c82cb6b240a418bf97d65,2022-05-12_05h46.11.896,classification_task,2021.2.3,Win32,59.93766483,627c6715c52fd12f31907bcf,,,,,,,,,,,,,,,,,,,,,,,a,1,0.9771,"[""0.322"",""0.640"",""0.851"",""0.973""]","[1,0,1,1]",0,52,52,52,1,0,0,,,0,FALSE,,,,,,,,,,,,,,,,,,,,,,,,,,,,,,,
,5e57a0020c3c6a14a1624031,627c82cb6b240a418bf97d65,2022-05-12_05h46.11.896,classification_task,2021.2.3,Win32,59.93766483,627c6715c52fd12f31907bcf,,,,,,,,,,,,,,,,,,,,,,,a,1,1.8496,"[""0.243"",""0.553"",""0.618"",""0.939""]","[1,1,0,1]",0,53,53,53,1,0,1,,,0,FALSE,,,,,,,,,,,,,,,,,,,,,,,,,,,,,,,
,5e57a0020c3c6a14a1624031,627c82cb6b240a418bf97d65,2022-05-12_05h46.11.896,classification_task,2021.2.3,Win32,59.93766483,627c6715c52fd12f31907bcf,,,,,,,,,,,,,,,,,,,,,,,a,1,1.5163,"[""0.243"",""0.206"",""0.905"",""0.939""]","[1,0,1,1]",0,54,54,54,1,0,1,,,0,FALSE,,,,,,,,,,,,,,,,,,,,,,,,,,,,,,,
,5e57a0020c3c6a14a1624031,627c82cb6b240a418bf97d65,2022-05-12_05h46.11.896,classification_task,2021.2.3,Win32,59.93766483,627c6715c52fd12f31907bcf,,,,,,,,,,,,,,,,,,,,,,,l,1,0.943,"[""0.141"",""0.026"",""0.448"",""0.795""]","[1,0,1,1]",0,55,55,55,1,1,1,,,0,FALSE,,,,,,,,,,,,,,,,,,,,,,,,,,,,,,,
,5e57a0020c3c6a14a1624031,627c82cb6b240a418bf97d65,2022-05-12_05h46.11.896,classification_task,2021.2.3,Win32,59.93766483,627c6715c52fd12f31907bcf,,,,,,,,,,,,,,,,,,,,,,,l,1,0.833,"[""0.141"",""0.411"",""0.682"",""0.795""]","[1,1,0,1]",0,56,56,56,1,1,1,,,0,FALSE,,,,,,,,,,,,,,,,,,,,,,,,,,,,,,,
,5e57a0020c3c6a14a1624031,627c82cb6b240a418bf97d65,2022-05-12_05h46.11.896,classification_task,2021.2.3,Win32,59.93766483,627c6715c52fd12f31907bcf,,,,,,,,,,,,,,,,,,,,,,,l,1,3.8226,"[""0.079"",""0.279"",""0.659"",""0.730""]","[1,1,0,1]",0,57,57,57,1,1,0,,,0,FALSE,,,,,,,,,,,,,,,,,,,,,,,,,,,,,,,
,5e57a0020c3c6a14a1624031,627c82cb6b240a418bf97d65,2022-05-12_05h46.11.896,classification_task,2021.2.3,Win32,59.93766483,627c6715c52fd12f31907bcf,,,,,,,,,,,,,,,,,,,,,,,l,1,0.8152,"[""0.079"",""0.685"",""0.506"",""0.730""]","[1,0,1,1]",0,58,58,58,1,1,0,,,0,FALSE,,,,,,,,,,,,,,,,,,,,,,,,,,,,,,,
,5e57a0020c3c6a14a1624031,627c82cb6b240a418bf97d65,2022-05-12_05h46.11.896,classification_task,2021.2.3,Win32,59.93766483,627c6715c52fd12f31907bcf,,,,,,,,,,,,,,,,,,,,,,,a,1,1.8916,"[""0.045"",""0.355"",""0.851"",""0.973""]","[0,1,1,1]",0,59,59,59,1,0,0,,,0,FALSE,,,,,,,,,,,,,,,,,,,,,,,,,,,,,,,
,5e57a0020c3c6a14a1624031,627c82cb6b240a418bf97d65,2022-05-12_05h46.11.896,classification_task,2021.2.3,Win32,59.93766483,627c6715c52fd12f31907bcf,,,,,,,,,,,,,,,,,,,,,,,a,1,1.3756,"[""0.243"",""0.553"",""0.905"",""0.618""]","[1,1,1,0]",0,60,60,60,1,0,1,,,0,FALSE,,,,,,,,,,,,,,,,,,,,,,,,,,,,,,,
,5e57a0020c3c6a14a1624031,627c82cb6b240a418bf97d65,2022-05-12_05h46.11.896,classification_task,2021.2.3,Win32,59.93766483,627c6715c52fd12f31907bcf,,,,,,,,,,,,,,,,,,,,,,,l,1,1.4879,"[""0.079"",""0.279"",""0.506"",""0.684""]","[1,1,1,0]",0,61,61,61,1,1,0,,,0,FALSE,,,,,,,,,,,,,,,,,,,,,,,,,,,,,,,
,5e57a0020c3c6a14a1624031,627c82cb6b240a418bf97d65,2022-05-12_05h46.11.896,classification_task,2021.2.3,Win32,59.93766483,627c6715c52fd12f31907bcf,,,,,,,,,,,,,,,,,,,,,,,l,1,1.254,"[""0.141"",""0.411"",""0.448"",""0.661""]","[1,1,1,0]",0,62,62,62,1,1,1,,,0,FALSE,,,,,,,,,,,,,,,,,,,,,,,,,,,,,,,
,5e57a0020c3c6a14a1624031,627c82cb6b240a418bf97d65,2022-05-12_05h46.11.896,classification_task,2021.2.3,Win32,59.93766483,627c6715c52fd12f31907bcf,,,,,,,,,,,,,,,,,,,,,,,a,1,0.7855,"[""0.322"",""0.355"",""0.851"",""0.682""]","[1,1,1,0]",0,63,63,63,1,0,0,,,0,FALSE,,,,,,,,,,,,,,,,,,,,,,,,,,,,,,,
,5e57a0020c3c6a14a1624031,627c82cb6b240a418bf97d65,2022-05-12_05h46.11.896,classification_task,2021.2.3,Win32,59.93766483,627c6715c52fd12f31907bcf,,,,,,,,,,,,,,,,,,,,,,,,,,,,,,,,,,,,,,,0, ,,0,3.848716441,210.7997,0,2,2,2,1,2,3,,,,,,,,,,,,,,,,,,
,5e57a0020c3c6a14a1624031,627c82cb6b240a418bf97d65,2022-05-12_05h46.11.896,classification_task,2021.2.3,Win32,59.93766483,627c6715c52fd12f31907bcf,,,,,,,,,,,,,,,,,,,,,,,,,,,,,,,,,,,,,,,1,  ,,0,8.233392122,212.6605,0,2,2,2,1,2,3,,,,,,,,,,,,,,,,,,
,5e57a0020c3c6a14a1624031,627c82cb6b240a418bf97d65,2022-05-12_05h46.11.896,classification_task,2021.2.3,Win32,59.93766483,627c6715c52fd12f31907bcf,,,,,,,,,,,,,,,,,,,,,,,,,,,,,,,,,,,,,,,2,  ,,0,7.71898883,214.9332,0,2,2,2,1,2,3,,,,,,,,,,,,,,,,,,
,5e57a0020c3c6a14a1624031,627c82cb6b240a418bf97d65,2022-05-12_05h46.11.896,classification_task,2021.2.3,Win32,59.93766483,627c6715c52fd12f31907bcf,,,,,,,,,,,,,,,,,,,,,,,,,,,,,,,,,,,,,,,,,,,,,0,2,2,2,1,,3,,,,,,,,,,,,,,,,,,
,5e57a0020c3c6a14a1624031,627c82cb6b240a418bf97d65,2022-05-12_05h46.11.896,classification_task,2021.2.3,Win32,59.93766483,627c6715c52fd12f31907bcf,,,,,,,,,,,,,,,,,,,,,,,,,,,,,,,,,,,,,,,,,,,,,,,,,,,,,I believe the aid is a competent performer,,0.7,0,4,904.3961,0,0,0,0,1,0,,,,,
,5e57a0020c3c6a14a1624031,627c82cb6b240a418bf97d65,2022-05-12_05h46.11.896,classification_task,2021.2.3,Win32,59.93766483,627c6715c52fd12f31907bcf,,,,,,,,,,,,,,,,,,,,,,,,,,,,,,,,,,,,,,,,,,,,,,,,,,,,,I trust the aid,,0.7,0,5,906.3712,0,0,0,0,1,0,,,,,
,5e57a0020c3c6a14a1624031,627c82cb6b240a418bf97d65,2022-05-12_05h46.11.896,classification_task,2021.2.3,Win32,59.93766483,627c6715c52fd12f31907bcf,,,,,,,,,,,,,,,,,,,,,,,,,,,,,,,,,,,,,,,,,,,,,,,,,,,,,I have confidence in the advice given by the aid,,0.7,0,5,908.3521,0,0,0,0,1,0,,,,,
,5e57a0020c3c6a14a1624031,627c82cb6b240a418bf97d65,2022-05-12_05h46.11.896,classification_task,2021.2.3,Win32,59.93766483,627c6715c52fd12f31907bcf,,,,,,,,,,,,,,,,,,,,,,,,,,,,,,,,,,,,,,,,,,,,,,,,,,,,,I can depend on the aid,,0.7,0,5,909.6348,0,0,0,0,1,0,,,,,
,5e57a0020c3c6a14a1624031,627c82cb6b240a418bf97d65,2022-05-12_05h46.11.896,classification_task,2021.2.3,Win32,59.93766483,627c6715c52fd12f31907bcf,,,,,,,,,,,,,,,,,,,,,,,,,,,,,,,,,,,,,,,,,,,,,,,,,,,,,I can rely on the aid to behave in consistent ways,,0.7,0,5,911.0221,0,0,0,0,1,0,,,,,
,5e57a0020c3c6a14a1624031,627c82cb6b240a418bf97d65,2022-05-12_05h46.11.896,classification_task,2021.2.3,Win32,59.93766483,627c6715c52fd12f31907bcf,,,,,,,,,,,,,,,,,,,,,,,,,,,,,,,,,,,,,,,,,,,,,,,,,,,,,I can rely on the aid to do its best every time I take its advice,,0.7,0,5,913.1137,0,0,0,0,1,0,,,,,
,5e57a0020c3c6a14a1624031,627c82cb6b240a418bf97d65,2022-05-12_05h46.11.896,classification_task,2021.2.3,Win32,59.93766483,627c6715c52fd12f31907bcf,,,,,,,,,,,,,,,,,,,,,,,,,,,,,,,,,,,,,,,,,,,,,,,,,,,,,"On trials you completed with assistance from the aid, how frequently did you think the aid was correct?",,0.7,0,90%,,0,0,0,0,1,0,,,,,
,5e57a0020c3c6a14a1624031,627c82cb6b240a418bf97d65,2022-05-12_05h46.11.896,classification_task,2021.2.3,Win32,59.93766483,627c6715c52fd12f31907bcf,,,,,,,,,,,,,,,,,,,,,,,,,,,,,,,,,,,,,,,,,,,,,,,,,,,,,"On trials you completed without the aid, how frequently did you think you were correct?",,0.7,0,70%,,0,0,0,0,1,0,,,,,
,5e57a0020c3c6a14a1624031,627c82cb6b240a418bf97d65,2022-05-12_05h46.11.896,classification_task,2021.2.3,Win32,59.93766483,627c6715c52fd12f31907bcf,,,,,,,,,,,,,,,,,,,,,,,,,,,,,,,,,,,,,,,,,,,,,,,,,,,,,,,,,,,0,0,0,0,1,,,,,,
,5e57a0020c3c6a14a1624031,627c82cb6b240a418bf97d65,2022-05-12_05h46.11.896,classification_task,2021.2.3,Win32,59.93766483,627c6715c52fd12f31907bcf,,,,,,,,,,,,,,,,,,,,,,,,,,,,,,,,,,,,,,,,,,,,,,,,,,,,,,,,,,,,,,,,,space,11.172,944.2831,,
,5e57a0020c3c6a14a1624031,627c82cb6b240a418bf97d65,2022-05-12_05h46.11.896,classification_task,2021.2.3,Win32,59.93766483,627c6715c52fd12f31907bcf,,,,,,,,,,,,,,,,,,,,,,,,,,,,,,,,,,,,,,,,,,,,,,,,,,,,,,,,,,,,,,,,,,,,"Mozilla/5.0 (Windows NT 10.0; Win64; x64) AppleWebKit/537.36 (KHTML, like Gecko) Chrome/101.0.4951.54 Safari/537.36",
,5e57a0020c3c6a14a1624031,627c82cb6b240a418bf97d65,2022-05-12_05h46.11.896,classification_task,2021.2.3,Win32,59.93766483,627c6715c52fd12f31907bcf,,,,,,,,,,,,,,,,,,,,,,,,,,,,,,,,,,,,,,,,,,,,,,,,,,,,,,,,,,,,,,,,,,,,,FADING
