usingWebGL,participant,session,date,expName,psychopyVersion,OS,frameRate,PROLIFIC_PID,STUDY_ID,SESSION_ID,signatures_friend,signatures_foe,band_ranges_top,band_ranges_bottom,formitemText,formtype,formundefined,formitemWidth,formindex,formresponse,formrt,key_resp_2.keys,key_resp_2.rt,tute_resp.keys,tute_resp.rt,tutorial.thisRepN,tutorial.thisTrialN,tutorial.thisN,tutorial.thisIndex,tutorial.ran,key_resp_4.keys,key_resp_4.rt,key_resp.keys,key_resp.corr,key_resp.rt,lines_presented,is_signal_presented,trials.thisRepN,trials.thisTrialN,trials.thisN,trials.thisIndex,trials.ran,vessel,active_band,lines,is_signal,supported_pos,catch_trial,debrief_formindex,debrief_formitemText,debrief_formtype,debrief_formitemWidth,debrief_formresponse,debrief_formrt,phases.thisRepN,phases.thisTrialN,phases.thisN,phases.thisIndex,phases.ran,phases.order,phase,key_resp_3.keys,trustitemText,trusttype,trustitemWidth,trustindex,trustresponse,trustrt,support_status.thisRepN,support_status.thisTrialN,support_status.thisN,support_status.thisIndex,support_status.ran,support_status.order,key_resp_5.keys,key_resp_5.rt,globalClockTime,userAgent
TRUE,5e7d2988ad9157106e1811c7,001,2022-04-28_20h09.13.737,classification_task,2021.2.3,Win32,59.87665409,5e7d2988ad9157106e1811c7,626b377229c10585ec392f8a,626b3a93a643ca4dfe1f41f9,,,,,,,,,,,,,,,,,,,,,,,,,,,,,,,,,,,,,,,,,,,,,,,,,,,,,,,,,,,,,,,,,,,,
,5e7d2988ad9157106e1811c7,001,2022-04-28_20h09.13.737,classification_task,2021.2.3,Win32,59.87665409,5e7d2988ad9157106e1811c7,626b377229c10585ec392f8a,626b3a93a643ca4dfe1f41f9,"[[""0.182"",""0.487"",""0.612"",""0.868""],[""0.226"",""0.363"",""0.832"",""0.935""]]","[[""0.138"",""0.266"",""0.561"",""0.763""],[""0.063"",""0.103"",""0.439"",""0.704""]]","[1,10]","[100,1000]",Video game experience,,,0.7,0,,,,,,,,,,,,,,,,,,,,,,,,,,,,,,,,,,,,,,,,,,,,,,,,,,,,,,,,,,,
,5e7d2988ad9157106e1811c7,001,2022-04-28_20h09.13.737,classification_task,2021.2.3,Win32,59.87665409,5e7d2988ad9157106e1811c7,626b377229c10585ec392f8a,626b3a93a643ca4dfe1f41f9,,,,,Approximately how many hours did you spend playing video games in the last week?,,,0.7,0,8,,,,,,,,,,,,,,,,,,,,,,,,,,,,,,,,,,,,,,,,,,,,,,,,,,,,,,,,,,
,5e7d2988ad9157106e1811c7,001,2022-04-28_20h09.13.737,classification_task,2021.2.3,Win32,59.87665409,5e7d2988ad9157106e1811c7,626b377229c10585ec392f8a,626b3a93a643ca4dfe1f41f9,,,,,"Which game did you play the most this year? (Enter ""None"" if you didn't play any)",,,0.7,0,Genshin Impact,,,,,,,,,,,,,,,,,,,,,,,,,,,,,,,,,,,,,,,,,,,,,,,,,,,,,,,,,,
,5e7d2988ad9157106e1811c7,001,2022-04-28_20h09.13.737,classification_task,2021.2.3,Win32,59.87665409,5e7d2988ad9157106e1811c7,626b377229c10585ec392f8a,626b3a93a643ca4dfe1f41f9,,,,,Visual perception,,,0.7,0,,,,,,,,,,,,,,,,,,,,,,,,,,,,,,,,,,,,,,,,,,,,,,,,,,,,,,,,,,,
,5e7d2988ad9157106e1811c7,001,2022-04-28_20h09.13.737,classification_task,2021.2.3,Win32,59.87665409,5e7d2988ad9157106e1811c7,626b377229c10585ec392f8a,626b3a93a643ca4dfe1f41f9,,,,,Do you have any form of color blindness?,,,0.7,0,No,16.7041,,,,,,,,,,,,,,,,,,,,,,,,,,,,,,,,,,,,,,,,,,,,,,,,,,,,,,,,,
,5e7d2988ad9157106e1811c7,001,2022-04-28_20h09.13.737,classification_task,2021.2.3,Win32,59.87665409,5e7d2988ad9157106e1811c7,626b377229c10585ec392f8a,626b3a93a643ca4dfe1f41f9,,,,,Do you use software to change the colour temperature of your screen (e.g. f.lux)?,,,0.7,0,No,18.0951,,,,,,,,,,,,,,,,,,,,,,,,,,,,,,,,,,,,,,,,,,,,,,,,,,,,,,,,,
,5e7d2988ad9157106e1811c7,001,2022-04-28_20h09.13.737,classification_task,2021.2.3,Win32,59.87665409,5e7d2988ad9157106e1811c7,626b377229c10585ec392f8a,626b3a93a643ca4dfe1f41f9,,,,,,,,,,,,space,14.2392,space,2905.4848,0,0,0,0,1,,,,,,,,,,,,,,,,,,,,,,,,,,,,,,,,,,,,,,,,,,,,,,,,
,5e7d2988ad9157106e1811c7,001,2022-04-28_20h09.13.737,classification_task,2021.2.3,Win32,59.87665409,5e7d2988ad9157106e1811c7,626b377229c10585ec392f8a,626b3a93a643ca4dfe1f41f9,,,,,,,,,,,,,,space,7.1122,1,0,1,0,1,,,,,,,,,,,,,,,,,,,,,,,,,,,,,,,,,,,,,,,,,,,,,,,,
,5e7d2988ad9157106e1811c7,001,2022-04-28_20h09.13.737,classification_task,2021.2.3,Win32,59.87665409,5e7d2988ad9157106e1811c7,626b377229c10585ec392f8a,626b3a93a643ca4dfe1f41f9,,,,,,,,,,,,,,space,18.6523,2,0,2,0,1,,,,,,,,,,,,,,,,,,,,,,,,,,,,,,,,,,,,,,,,,,,,,,,,
,5e7d2988ad9157106e1811c7,001,2022-04-28_20h09.13.737,classification_task,2021.2.3,Win32,59.87665409,5e7d2988ad9157106e1811c7,626b377229c10585ec392f8a,626b3a93a643ca4dfe1f41f9,,,,,,,,,,,,,,space,4.7364,3,0,3,0,1,,,,,,,,,,,,,,,,,,,,,,,,,,,,,,,,,,,,,,,,,,,,,,,,
,5e7d2988ad9157106e1811c7,001,2022-04-28_20h09.13.737,classification_task,2021.2.3,Win32,59.87665409,5e7d2988ad9157106e1811c7,626b377229c10585ec392f8a,626b3a93a643ca4dfe1f41f9,,,,,,,,,,,,,,space,3.75,4,0,4,0,1,,,,,,,,,,,,,,,,,,,,,,,,,,,,,,,,,,,,,,,,,,,,,,,,
,5e7d2988ad9157106e1811c7,001,2022-04-28_20h09.13.737,classification_task,2021.2.3,Win32,59.87665409,5e7d2988ad9157106e1811c7,626b377229c10585ec392f8a,626b3a93a643ca4dfe1f41f9,,,,,,,,,,,,,,,,,,,,,space,6.6551,l,0,3.6509,"[""0.311"",""0.487"",""0.612"",""0.868""]","[0,1,1,1]",0,0,0,0,1,0,0,,,0,FALSE,,,,,,,,,,,,,,,,,,,,,,,,,,,,,,
,5e7d2988ad9157106e1811c7,001,2022-04-28_20h09.13.737,classification_task,2021.2.3,Win32,59.87665409,5e7d2988ad9157106e1811c7,626b377229c10585ec392f8a,626b3a93a643ca4dfe1f41f9,,,,,,,,,,,,,,,,,,,,,,,l,1,3.8374,"[""0.063"",""0.103"",""0.439"",""0.403""]","[1,1,1,0]",0,1,1,1,1,1,1,,,0,FALSE,,,,,,,,,,,,,,,,,,,,,,,,,,,,,,
,5e7d2988ad9157106e1811c7,001,2022-04-28_20h09.13.737,classification_task,2021.2.3,Win32,59.87665409,5e7d2988ad9157106e1811c7,626b377229c10585ec392f8a,626b3a93a643ca4dfe1f41f9,,,,,,,,,,,,,,,,,,,,,,,l,1,5.0349,"[""0.138"",""0.266"",""0.311"",""0.763""]","[1,1,0,1]",0,2,2,2,1,1,0,,,0,FALSE,,,,,,,,,,,,,,,,,,,,,,,,,,,,,,
,5e7d2988ad9157106e1811c7,001,2022-04-28_20h09.13.737,classification_task,2021.2.3,Win32,59.87665409,5e7d2988ad9157106e1811c7,626b377229c10585ec392f8a,626b3a93a643ca4dfe1f41f9,,,,,,,,,,,,,,,,,,,,,,,l,1,3.6189,"[""0.311"",""0.266"",""0.561"",""0.763""]","[0,1,1,1]",0,3,3,3,1,1,0,,,0,FALSE,,,,,,,,,,,,,,,,,,,,,,,,,,,,,,
,5e7d2988ad9157106e1811c7,001,2022-04-28_20h09.13.737,classification_task,2021.2.3,Win32,59.87665409,5e7d2988ad9157106e1811c7,626b377229c10585ec392f8a,626b3a93a643ca4dfe1f41f9,,,,,,,,,,,,,,,,,,,,,,,a,1,4.5513,"[""0.226"",""0.403"",""0.832"",""0.935""]","[1,0,1,1]",0,4,4,4,1,0,1,,,0,FALSE,,,,,,,,,,,,,,,,,,,,,,,,,,,,,,
,5e7d2988ad9157106e1811c7,001,2022-04-28_20h09.13.737,classification_task,2021.2.3,Win32,59.87665409,5e7d2988ad9157106e1811c7,626b377229c10585ec392f8a,626b3a93a643ca4dfe1f41f9,,,,,,,,,,,,,,,,,,,,,,,l,1,2.0866,"[""0.063"",""0.103"",""0.311"",""0.704""]","[1,1,0,1]",0,5,5,5,1,1,1,,,0,FALSE,,,,,,,,,,,,,,,,,,,,,,,,,,,,,,
,5e7d2988ad9157106e1811c7,001,2022-04-28_20h09.13.737,classification_task,2021.2.3,Win32,59.87665409,5e7d2988ad9157106e1811c7,626b377229c10585ec392f8a,626b3a93a643ca4dfe1f41f9,,,,,,,,,,,,,,,,,,,,,,,a,1,2.5498,"[""0.226"",""0.363"",""0.329"",""0.935""]","[1,1,0,1]",0,6,6,6,1,0,1,,,0,FALSE,,,,,,,,,,,,,,,,,,,,,,,,,,,,,,
,5e7d2988ad9157106e1811c7,001,2022-04-28_20h09.13.737,classification_task,2021.2.3,Win32,59.87665409,5e7d2988ad9157106e1811c7,626b377229c10585ec392f8a,626b3a93a643ca4dfe1f41f9,,,,,,,,,,,,,,,,,,,,,,,l,1,2.5838,"[""0.063"",""0.311"",""0.439"",""0.704""]","[1,0,1,1]",0,7,7,7,1,1,1,,,0,FALSE,,,,,,,,,,,,,,,,,,,,,,,,,,,,,,
,5e7d2988ad9157106e1811c7,001,2022-04-28_20h09.13.737,classification_task,2021.2.3,Win32,59.87665409,5e7d2988ad9157106e1811c7,626b377229c10585ec392f8a,626b3a93a643ca4dfe1f41f9,,,,,,,,,,,,,,,,,,,,,,,a,1,6.1393,"[""0.403"",""0.363"",""0.832"",""0.935""]","[0,1,1,1]",0,8,8,8,1,0,1,,,0,FALSE,,,,,,,,,,,,,,,,,,,,,,,,,,,,,,
,5e7d2988ad9157106e1811c7,001,2022-04-28_20h09.13.737,classification_task,2021.2.3,Win32,59.87665409,5e7d2988ad9157106e1811c7,626b377229c10585ec392f8a,626b3a93a643ca4dfe1f41f9,,,,,,,,,,,,,,,,,,,,,,,l,1,2.9369,"[""0.138"",""0.266"",""0.561"",""0.321""]","[1,1,1,0]",0,9,9,9,1,1,0,,,0,FALSE,,,,,,,,,,,,,,,,,,,,,,,,,,,,,,
,5e7d2988ad9157106e1811c7,001,2022-04-28_20h09.13.737,classification_task,2021.2.3,Win32,59.87665409,5e7d2988ad9157106e1811c7,626b377229c10585ec392f8a,626b3a93a643ca4dfe1f41f9,,,,,,,,,,,,,,,,,,,,,,,l,1,2.9035,"[""0.138"",""0.311"",""0.561"",""0.763""]","[1,0,1,1]",0,10,10,10,1,1,0,,,0,FALSE,,,,,,,,,,,,,,,,,,,,,,,,,,,,,,
,5e7d2988ad9157106e1811c7,001,2022-04-28_20h09.13.737,classification_task,2021.2.3,Win32,59.87665409,5e7d2988ad9157106e1811c7,626b377229c10585ec392f8a,626b3a93a643ca4dfe1f41f9,,,,,,,,,,,,,,,,,,,,,,,l,0,1.8525,"[""0.182"",""0.487"",""0.612"",""0.661""]","[1,1,1,0]",0,11,11,11,1,0,0,,,0,FALSE,,,,,,,,,,,,,,,,,,,,,,,,,,,,,,
,5e7d2988ad9157106e1811c7,001,2022-04-28_20h09.13.737,classification_task,2021.2.3,Win32,59.87665409,5e7d2988ad9157106e1811c7,626b377229c10585ec392f8a,626b3a93a643ca4dfe1f41f9,,,,,,,,,,,,,,,,,,,,,,,a,1,2.0017,"[""0.182"",""0.311"",""0.612"",""0.868""]","[1,0,1,1]",0,12,12,12,1,0,0,,,0,FALSE,,,,,,,,,,,,,,,,,,,,,,,,,,,,,,
,5e7d2988ad9157106e1811c7,001,2022-04-28_20h09.13.737,classification_task,2021.2.3,Win32,59.87665409,5e7d2988ad9157106e1811c7,626b377229c10585ec392f8a,626b3a93a643ca4dfe1f41f9,,,,,,,,,,,,,,,,,,,,,,,l,1,2.7984,"[""0.667"",""0.103"",""0.439"",""0.704""]","[0,1,1,1]",0,13,13,13,1,1,1,,,0,FALSE,,,,,,,,,,,,,,,,,,,,,,,,,,,,,,
,5e7d2988ad9157106e1811c7,001,2022-04-28_20h09.13.737,classification_task,2021.2.3,Win32,59.87665409,5e7d2988ad9157106e1811c7,626b377229c10585ec392f8a,626b3a93a643ca4dfe1f41f9,,,,,,,,,,,,,,,,,,,,,,,a,1,2.3344,"[""0.182"",""0.487"",""0.403"",""0.868""]","[1,1,0,1]",0,14,14,14,1,0,0,,,0,FALSE,,,,,,,,,,,,,,,,,,,,,,,,,,,,,,
,5e7d2988ad9157106e1811c7,001,2022-04-28_20h09.13.737,classification_task,2021.2.3,Win32,59.87665409,5e7d2988ad9157106e1811c7,626b377229c10585ec392f8a,626b3a93a643ca4dfe1f41f9,,,,,,,,,,,,,,,,,,,,,,,,0,,"[""0.226"",""0.363"",""0.832"",""0.403""]","[1,1,1,0]",0,15,15,15,1,0,1,,,0,FALSE,,,,,,,,,,,,,,,,,,,,,,,,,,,,,,
,5e7d2988ad9157106e1811c7,001,2022-04-28_20h09.13.737,classification_task,2021.2.3,Win32,59.87665409,5e7d2988ad9157106e1811c7,626b377229c10585ec392f8a,626b3a93a643ca4dfe1f41f9,,,,,,,,,,,,,,,,,,,,,,,a,1,3.9718,"[""0.182"",""0.654"",""0.612"",""0.868""]","[1,0,1,1]",0,16,16,16,1,0,0,,,0,FALSE,,,,,,,,,,,,,,,,,,,,,,,,,,,,,,
,5e7d2988ad9157106e1811c7,001,2022-04-28_20h09.13.737,classification_task,2021.2.3,Win32,59.87665409,5e7d2988ad9157106e1811c7,626b377229c10585ec392f8a,626b3a93a643ca4dfe1f41f9,,,,,,,,,,,,,,,,,,,,,,,a,1,3.2185,"[""0.226"",""0.363"",""0.321"",""0.935""]","[1,1,0,1]",0,17,17,17,1,0,1,,,0,FALSE,,,,,,,,,,,,,,,,,,,,,,,,,,,,,,
,5e7d2988ad9157106e1811c7,001,2022-04-28_20h09.13.737,classification_task,2021.2.3,Win32,59.87665409,5e7d2988ad9157106e1811c7,626b377229c10585ec392f8a,626b3a93a643ca4dfe1f41f9,,,,,,,,,,,,,,,,,,,,,,,l,1,2.3187,"[""0.138"",""0.266"",""0.314"",""0.763""]","[1,1,0,1]",0,18,18,18,1,1,0,,,0,FALSE,,,,,,,,,,,,,,,,,,,,,,,,,,,,,,
,5e7d2988ad9157106e1811c7,001,2022-04-28_20h09.13.737,classification_task,2021.2.3,Win32,59.87665409,5e7d2988ad9157106e1811c7,626b377229c10585ec392f8a,626b3a93a643ca4dfe1f41f9,,,,,,,,,,,,,,,,,,,,,,,l,1,2.1185,"[""0.063"",""0.103"",""0.439"",""0.664""]","[1,1,1,0]",0,19,19,19,1,1,1,,,0,FALSE,,,,,,,,,,,,,,,,,,,,,,,,,,,,,,
,5e7d2988ad9157106e1811c7,001,2022-04-28_20h09.13.737,classification_task,2021.2.3,Win32,59.87665409,5e7d2988ad9157106e1811c7,626b377229c10585ec392f8a,626b3a93a643ca4dfe1f41f9,,,,,,,,,,,,,,,,,,,,,,,a,1,1.6345,"[""0.309"",""0.363"",""0.832"",""0.935""]","[0,1,1,1]",0,20,20,20,1,0,1,,,0,FALSE,,,,,,,,,,,,,,,,,,,,,,,,,,,,,,
,5e7d2988ad9157106e1811c7,001,2022-04-28_20h09.13.737,classification_task,2021.2.3,Win32,59.87665409,5e7d2988ad9157106e1811c7,626b377229c10585ec392f8a,626b3a93a643ca4dfe1f41f9,,,,,,,,,,,,,,,,,,,,,,,l,1,2.4702,"[""0.138"",""0.266"",""0.561"",""0.664""]","[1,1,1,0]",0,21,21,21,1,1,0,,,0,FALSE,,,,,,,,,,,,,,,,,,,,,,,,,,,,,,
,5e7d2988ad9157106e1811c7,001,2022-04-28_20h09.13.737,classification_task,2021.2.3,Win32,59.87665409,5e7d2988ad9157106e1811c7,626b377229c10585ec392f8a,626b3a93a643ca4dfe1f41f9,,,,,,,,,,,,,,,,,,,,,,,a,1,2.3836,"[""0.226"",""0.664"",""0.832"",""0.935""]","[1,0,1,1]",0,22,22,22,1,0,1,,,0,FALSE,,,,,,,,,,,,,,,,,,,,,,,,,,,,,,
,5e7d2988ad9157106e1811c7,001,2022-04-28_20h09.13.737,classification_task,2021.2.3,Win32,59.87665409,5e7d2988ad9157106e1811c7,626b377229c10585ec392f8a,626b3a93a643ca4dfe1f41f9,,,,,,,,,,,,,,,,,,,,,,,a,1,5.3878,"[""0.182"",""0.487"",""0.612"",""0.321""]","[1,1,1,0]",0,23,23,23,1,0,0,,,0,FALSE,,,,,,,,,,,,,,,,,,,,,,,,,,,,,,
,5e7d2988ad9157106e1811c7,001,2022-04-28_20h09.13.737,classification_task,2021.2.3,Win32,59.87665409,5e7d2988ad9157106e1811c7,626b377229c10585ec392f8a,626b3a93a643ca4dfe1f41f9,,,,,,,,,,,,,,,,,,,,,,,l,1,7.7885,"[""0.063"",""0.321"",""0.439"",""0.704""]","[1,0,1,1]",0,24,24,24,1,1,1,,,0,FALSE,,,,,,,,,,,,,,,,,,,,,,,,,,,,,,
,5e7d2988ad9157106e1811c7,001,2022-04-28_20h09.13.737,classification_task,2021.2.3,Win32,59.87665409,5e7d2988ad9157106e1811c7,626b377229c10585ec392f8a,626b3a93a643ca4dfe1f41f9,,,,,,,,,,,,,,,,,,,,,,,a,1,5.1751,"[""0.311"",""0.487"",""0.612"",""0.868""]","[0,1,1,1]",0,25,25,25,1,0,0,,,0,FALSE,,,,,,,,,,,,,,,,,,,,,,,,,,,,,,
,5e7d2988ad9157106e1811c7,001,2022-04-28_20h09.13.737,classification_task,2021.2.3,Win32,59.87665409,5e7d2988ad9157106e1811c7,626b377229c10585ec392f8a,626b3a93a643ca4dfe1f41f9,,,,,,,,,,,,,,,,,,,,,,,l,1,2.6413,"[""0.063"",""0.103"",""0.654"",""0.704""]","[1,1,0,1]",0,26,26,26,1,1,1,,,0,FALSE,,,,,,,,,,,,,,,,,,,,,,,,,,,,,,
,5e7d2988ad9157106e1811c7,001,2022-04-28_20h09.13.737,classification_task,2021.2.3,Win32,59.87665409,5e7d2988ad9157106e1811c7,626b377229c10585ec392f8a,626b3a93a643ca4dfe1f41f9,,,,,,,,,,,,,,,,,,,,,,,l,1,5.3695,"[""0.312"",""0.103"",""0.439"",""0.704""]","[0,1,1,1]",0,27,27,27,1,1,1,,,0,FALSE,,,,,,,,,,,,,,,,,,,,,,,,,,,,,,
,5e7d2988ad9157106e1811c7,001,2022-04-28_20h09.13.737,classification_task,2021.2.3,Win32,59.87665409,5e7d2988ad9157106e1811c7,626b377229c10585ec392f8a,626b3a93a643ca4dfe1f41f9,,,,,,,,,,,,,,,,,,,,,,,,0,,"[""0.138"",""0.311"",""0.561"",""0.763""]","[1,0,1,1]",0,28,28,28,1,1,0,,,0,FALSE,,,,,,,,,,,,,,,,,,,,,,,,,,,,,,
,5e7d2988ad9157106e1811c7,001,2022-04-28_20h09.13.737,classification_task,2021.2.3,Win32,59.87665409,5e7d2988ad9157106e1811c7,626b377229c10585ec392f8a,626b3a93a643ca4dfe1f41f9,,,,,,,,,,,,,,,,,,,,,,,l,1,6.1511,"[""0.661"",""0.266"",""0.561"",""0.763""]","[0,1,1,1]",0,29,29,29,1,1,0,,,0,FALSE,,,,,,,,,,,,,,,,,,,,,,,,,,,,,,
,5e7d2988ad9157106e1811c7,001,2022-04-28_20h09.13.737,classification_task,2021.2.3,Win32,59.87665409,5e7d2988ad9157106e1811c7,626b377229c10585ec392f8a,626b3a93a643ca4dfe1f41f9,,,,,,,,,,,,,,,,,,,,,,,a,1,2.8496,"[""0.182"",""0.487"",""0.329"",""0.868""]","[1,1,0,1]",0,30,30,30,1,0,0,,,0,FALSE,,,,,,,,,,,,,,,,,,,,,,,,,,,,,,
,5e7d2988ad9157106e1811c7,001,2022-04-28_20h09.13.737,classification_task,2021.2.3,Win32,59.87665409,5e7d2988ad9157106e1811c7,626b377229c10585ec392f8a,626b3a93a643ca4dfe1f41f9,,,,,,,,,,,,,,,,,,,,,,,a,1,5.3281,"[""0.226"",""0.363"",""0.832"",""0.312""]","[1,1,1,0]",0,31,31,31,1,0,1,,,0,FALSE,,,,,,,,,,,,,,,,,,,,,,,,,,,,,,
,5e7d2988ad9157106e1811c7,001,2022-04-28_20h09.13.737,classification_task,2021.2.3,Win32,59.87665409,5e7d2988ad9157106e1811c7,626b377229c10585ec392f8a,626b3a93a643ca4dfe1f41f9,,,,,,,,,,,,,,,,,,,,,,,a,0,3.3544,"[""0.311"",""0.266"",""0.561"",""0.763""]","[0,1,1,1]",0,32,32,32,1,1,0,,,0,FALSE,,,,,,,,,,,,,,,,,,,,,,,,,,,,,,
,5e7d2988ad9157106e1811c7,001,2022-04-28_20h09.13.737,classification_task,2021.2.3,Win32,59.87665409,5e7d2988ad9157106e1811c7,626b377229c10585ec392f8a,626b3a93a643ca4dfe1f41f9,,,,,,,,,,,,,,,,,,,,,,,l,1,2.7397,"[""0.138"",""0.266"",""0.027"",""0.763""]","[1,1,0,1]",0,33,33,33,1,1,0,,,0,FALSE,,,,,,,,,,,,,,,,,,,,,,,,,,,,,,
,5e7d2988ad9157106e1811c7,001,2022-04-28_20h09.13.737,classification_task,2021.2.3,Win32,59.87665409,5e7d2988ad9157106e1811c7,626b377229c10585ec392f8a,626b3a93a643ca4dfe1f41f9,,,,,,,,,,,,,,,,,,,,,,,a,1,0.6508,"[""0.027"",""0.363"",""0.832"",""0.935""]","[0,1,1,1]",0,34,34,34,1,0,1,,,0,FALSE,,,,,,,,,,,,,,,,,,,,,,,,,,,,,,
,5e7d2988ad9157106e1811c7,001,2022-04-28_20h09.13.737,classification_task,2021.2.3,Win32,59.87665409,5e7d2988ad9157106e1811c7,626b377229c10585ec392f8a,626b3a93a643ca4dfe1f41f9,,,,,,,,,,,,,,,,,,,,,,,a,0,0.4811,"[""0.314"",""0.103"",""0.439"",""0.704""]","[0,1,1,1]",0,35,35,35,1,1,1,,,0,FALSE,,,,,,,,,,,,,,,,,,,,,,,,,,,,,,
,5e7d2988ad9157106e1811c7,001,2022-04-28_20h09.13.737,classification_task,2021.2.3,Win32,59.87665409,5e7d2988ad9157106e1811c7,626b377229c10585ec392f8a,626b3a93a643ca4dfe1f41f9,,,,,,,,,,,,,,,,,,,,,,,l,0,4.1708,"[""0.226"",""0.363"",""0.832"",""0.311""]","[1,1,1,0]",0,36,36,36,1,0,1,,,0,FALSE,,,,,,,,,,,,,,,,,,,,,,,,,,,,,,
,5e7d2988ad9157106e1811c7,001,2022-04-28_20h09.13.737,classification_task,2021.2.3,Win32,59.87665409,5e7d2988ad9157106e1811c7,626b377229c10585ec392f8a,626b3a93a643ca4dfe1f41f9,,,,,,,,,,,,,,,,,,,,,,,a,0,4.1347,"[""0.063"",""0.314"",""0.439"",""0.704""]","[1,0,1,1]",0,37,37,37,1,1,1,,,0,FALSE,,,,,,,,,,,,,,,,,,,,,,,,,,,,,,
,5e7d2988ad9157106e1811c7,001,2022-04-28_20h09.13.737,classification_task,2021.2.3,Win32,59.87665409,5e7d2988ad9157106e1811c7,626b377229c10585ec392f8a,626b3a93a643ca4dfe1f41f9,,,,,,,,,,,,,,,,,,,,,,,a,0,0.9854,"[""0.063"",""0.103"",""0.439"",""0.655""]","[1,1,1,0]",0,38,38,38,1,1,1,,,0,FALSE,,,,,,,,,,,,,,,,,,,,,,,,,,,,,,
,5e7d2988ad9157106e1811c7,001,2022-04-28_20h09.13.737,classification_task,2021.2.3,Win32,59.87665409,5e7d2988ad9157106e1811c7,626b377229c10585ec392f8a,626b3a93a643ca4dfe1f41f9,,,,,,,,,,,,,,,,,,,,,,,a,1,0.5504,"[""0.226"",""0.363"",""0.659"",""0.935""]","[1,1,0,1]",0,39,39,39,1,0,1,,,0,FALSE,,,,,,,,,,,,,,,,,,,,,,,,,,,,,,
,5e7d2988ad9157106e1811c7,001,2022-04-28_20h09.13.737,classification_task,2021.2.3,Win32,59.87665409,5e7d2988ad9157106e1811c7,626b377229c10585ec392f8a,626b3a93a643ca4dfe1f41f9,,,,,,,,,,,,,,,,,,,,,,,a,0,0.6689,"[""0.138"",""0.312"",""0.561"",""0.763""]","[1,0,1,1]",0,40,40,40,1,1,0,,,0,FALSE,,,,,,,,,,,,,,,,,,,,,,,,,,,,,,
,5e7d2988ad9157106e1811c7,001,2022-04-28_20h09.13.737,classification_task,2021.2.3,Win32,59.87665409,5e7d2988ad9157106e1811c7,626b377229c10585ec392f8a,626b3a93a643ca4dfe1f41f9,,,,,,,,,,,,,,,,,,,,,,,l,0,0.7127,"[""0.182"",""0.487"",""0.612"",""0.311""]","[1,1,1,0]",0,41,41,41,1,0,0,,,0,FALSE,,,,,,,,,,,,,,,,,,,,,,,,,,,,,,
,5e7d2988ad9157106e1811c7,001,2022-04-28_20h09.13.737,classification_task,2021.2.3,Win32,59.87665409,5e7d2988ad9157106e1811c7,626b377229c10585ec392f8a,626b3a93a643ca4dfe1f41f9,,,,,,,,,,,,,,,,,,,,,,,a,1,0.6617,"[""0.182"",""0.312"",""0.612"",""0.868""]","[1,0,1,1]",0,42,42,42,1,0,0,,,0,FALSE,,,,,,,,,,,,,,,,,,,,,,,,,,,,,,
,5e7d2988ad9157106e1811c7,001,2022-04-28_20h09.13.737,classification_task,2021.2.3,Win32,59.87665409,5e7d2988ad9157106e1811c7,626b377229c10585ec392f8a,626b3a93a643ca4dfe1f41f9,,,,,,,,,,,,,,,,,,,,,,,l,0,2.0506,"[""0.226"",""0.309"",""0.832"",""0.935""]","[1,0,1,1]",0,43,43,43,1,0,1,,,0,FALSE,,,,,,,,,,,,,,,,,,,,,,,,,,,,,,
,5e7d2988ad9157106e1811c7,001,2022-04-28_20h09.13.737,classification_task,2021.2.3,Win32,59.87665409,5e7d2988ad9157106e1811c7,626b377229c10585ec392f8a,626b3a93a643ca4dfe1f41f9,,,,,,,,,,,,,,,,,,,,,,,l,0,0.5056,"[""0.403"",""0.487"",""0.612"",""0.868""]","[0,1,1,1]",0,44,44,44,1,0,0,,,0,FALSE,,,,,,,,,,,,,,,,,,,,,,,,,,,,,,
,5e7d2988ad9157106e1811c7,001,2022-04-28_20h09.13.737,classification_task,2021.2.3,Win32,59.87665409,5e7d2988ad9157106e1811c7,626b377229c10585ec392f8a,626b3a93a643ca4dfe1f41f9,,,,,,,,,,,,,,,,,,,,,,,l,1,0.8092,"[""0.063"",""0.103"",""0.311"",""0.704""]","[1,1,0,1]",0,45,45,45,1,1,1,,,0,FALSE,,,,,,,,,,,,,,,,,,,,,,,,,,,,,,
,5e7d2988ad9157106e1811c7,001,2022-04-28_20h09.13.737,classification_task,2021.2.3,Win32,59.87665409,5e7d2988ad9157106e1811c7,626b377229c10585ec392f8a,626b3a93a643ca4dfe1f41f9,,,,,,,,,,,,,,,,,,,,,,,a,1,0.5117,"[""0.182"",""0.487"",""0.667"",""0.868""]","[1,1,0,1]",0,46,46,46,1,0,0,,,0,FALSE,,,,,,,,,,,,,,,,,,,,,,,,,,,,,,
,5e7d2988ad9157106e1811c7,001,2022-04-28_20h09.13.737,classification_task,2021.2.3,Win32,59.87665409,5e7d2988ad9157106e1811c7,626b377229c10585ec392f8a,626b3a93a643ca4dfe1f41f9,,,,,,,,,,,,,,,,,,,,,,,a,0,0.5829,"[""0.138"",""0.266"",""0.561"",""0.655""]","[1,1,1,0]",0,47,47,47,1,1,0,,,0,FALSE,,,,,,,,,,,,,,,,,,,,,,,,,,,,,,
,5e7d2988ad9157106e1811c7,001,2022-04-28_20h09.13.737,classification_task,2021.2.3,Win32,59.87665409,5e7d2988ad9157106e1811c7,626b377229c10585ec392f8a,626b3a93a643ca4dfe1f41f9,,,,,,,,,,,,,,,,,,,,,,,l,1,0.6774,"[""0.063"",""0.103"",""0.439"",""0.312""]","[1,1,1,0]",0,48,48,48,1,1,1,,,0,FALSE,,,,,,,,,,,,,,,,,,,,,,,,,,,,,,
,5e7d2988ad9157106e1811c7,001,2022-04-28_20h09.13.737,classification_task,2021.2.3,Win32,59.87665409,5e7d2988ad9157106e1811c7,626b377229c10585ec392f8a,626b3a93a643ca4dfe1f41f9,,,,,,,,,,,,,,,,,,,,,,,l,0,0.7979,"[""0.226"",""0.363"",""0.832"",""0.659""]","[1,1,1,0]",0,49,49,49,1,0,1,,,0,FALSE,,,,,,,,,,,,,,,,,,,,,,,,,,,,,,
,5e7d2988ad9157106e1811c7,001,2022-04-28_20h09.13.737,classification_task,2021.2.3,Win32,59.87665409,5e7d2988ad9157106e1811c7,626b377229c10585ec392f8a,626b3a93a643ca4dfe1f41f9,,,,,,,,,,,,,,,,,,,,,,,l,1,0.602,"[""0.138"",""0.266"",""0.561"",""0.654""]","[1,1,1,0]",0,50,50,50,1,1,0,,,0,FALSE,,,,,,,,,,,,,,,,,,,,,,,,,,,,,,
,5e7d2988ad9157106e1811c7,001,2022-04-28_20h09.13.737,classification_task,2021.2.3,Win32,59.87665409,5e7d2988ad9157106e1811c7,626b377229c10585ec392f8a,626b3a93a643ca4dfe1f41f9,,,,,,,,,,,,,,,,,,,,,,,l,0,1.3372,"[""0.226"",""0.314"",""0.832"",""0.935""]","[1,0,1,1]",0,51,51,51,1,0,1,,,0,FALSE,,,,,,,,,,,,,,,,,,,,,,,,,,,,,,
,5e7d2988ad9157106e1811c7,001,2022-04-28_20h09.13.737,classification_task,2021.2.3,Win32,59.87665409,5e7d2988ad9157106e1811c7,626b377229c10585ec392f8a,626b3a93a643ca4dfe1f41f9,,,,,,,,,,,,,,,,,,,,,,,a,0,0.5833,"[""0.138"",""0.329"",""0.561"",""0.763""]","[1,0,1,1]",0,52,52,52,1,1,0,,,0,FALSE,,,,,,,,,,,,,,,,,,,,,,,,,,,,,,
,5e7d2988ad9157106e1811c7,001,2022-04-28_20h09.13.737,classification_task,2021.2.3,Win32,59.87665409,5e7d2988ad9157106e1811c7,626b377229c10585ec392f8a,626b3a93a643ca4dfe1f41f9,,,,,,,,,,,,,,,,,,,,,,,l,0,0.8312,"[""0.667"",""0.487"",""0.612"",""0.868""]","[0,1,1,1]",0,53,53,53,1,0,0,,,0,FALSE,,,,,,,,,,,,,,,,,,,,,,,,,,,,,,
,5e7d2988ad9157106e1811c7,001,2022-04-28_20h09.13.737,classification_task,2021.2.3,Win32,59.87665409,5e7d2988ad9157106e1811c7,626b377229c10585ec392f8a,626b3a93a643ca4dfe1f41f9,,,,,,,,,,,,,,,,,,,,,,,l,0,0.5203,"[""0.182"",""0.309"",""0.612"",""0.868""]","[1,0,1,1]",0,54,54,54,1,0,0,,,0,FALSE,,,,,,,,,,,,,,,,,,,,,,,,,,,,,,
,5e7d2988ad9157106e1811c7,001,2022-04-28_20h09.13.737,classification_task,2021.2.3,Win32,59.87665409,5e7d2988ad9157106e1811c7,626b377229c10585ec392f8a,626b3a93a643ca4dfe1f41f9,,,,,,,,,,,,,,,,,,,,,,,a,1,0.5591,"[""0.226"",""0.363"",""0.664"",""0.935""]","[1,1,0,1]",0,55,55,55,1,0,1,,,0,FALSE,,,,,,,,,,,,,,,,,,,,,,,,,,,,,,
,5e7d2988ad9157106e1811c7,001,2022-04-28_20h09.13.737,classification_task,2021.2.3,Win32,59.87665409,5e7d2988ad9157106e1811c7,626b377229c10585ec392f8a,626b3a93a643ca4dfe1f41f9,,,,,,,,,,,,,,,,,,,,,,,a,1,1.5804,"[""0.182"",""0.487"",""0.612"",""0.655""]","[1,1,1,0]",0,56,56,56,1,0,0,,,0,FALSE,,,,,,,,,,,,,,,,,,,,,,,,,,,,,,
,5e7d2988ad9157106e1811c7,001,2022-04-28_20h09.13.737,classification_task,2021.2.3,Win32,59.87665409,5e7d2988ad9157106e1811c7,626b377229c10585ec392f8a,626b3a93a643ca4dfe1f41f9,,,,,,,,,,,,,,,,,,,,,,,l,1,1.7023,"[""0.138"",""0.266"",""0.311"",""0.763""]","[1,1,0,1]",0,57,57,57,1,1,0,,,0,FALSE,,,,,,,,,,,,,,,,,,,,,,,,,,,,,,
,5e7d2988ad9157106e1811c7,001,2022-04-28_20h09.13.737,classification_task,2021.2.3,Win32,59.87665409,5e7d2988ad9157106e1811c7,626b377229c10585ec392f8a,626b3a93a643ca4dfe1f41f9,,,,,,,,,,,,,,,,,,,,,,,l,1,1.2433,"[""0.063"",""0.312"",""0.439"",""0.704""]","[1,0,1,1]",0,58,58,58,1,1,1,,,0,FALSE,,,,,,,,,,,,,,,,,,,,,,,,,,,,,,
,5e7d2988ad9157106e1811c7,001,2022-04-28_20h09.13.737,classification_task,2021.2.3,Win32,59.87665409,5e7d2988ad9157106e1811c7,626b377229c10585ec392f8a,626b3a93a643ca4dfe1f41f9,,,,,,,,,,,,,,,,,,,,,,,a,0,1.1136,"[""0.403"",""0.103"",""0.439"",""0.704""]","[0,1,1,1]",0,59,59,59,1,1,1,,,0,FALSE,,,,,,,,,,,,,,,,,,,,,,,,,,,,,,
,5e7d2988ad9157106e1811c7,001,2022-04-28_20h09.13.737,classification_task,2021.2.3,Win32,59.87665409,5e7d2988ad9157106e1811c7,626b377229c10585ec392f8a,626b3a93a643ca4dfe1f41f9,,,,,,,,,,,,,,,,,,,,,,,a,0,1.0847,"[""0.063"",""0.103"",""0.309"",""0.704""]","[1,1,0,1]",0,60,60,60,1,1,1,,,0,FALSE,,,,,,,,,,,,,,,,,,,,,,,,,,,,,,
,5e7d2988ad9157106e1811c7,001,2022-04-28_20h09.13.737,classification_task,2021.2.3,Win32,59.87665409,5e7d2988ad9157106e1811c7,626b377229c10585ec392f8a,626b3a93a643ca4dfe1f41f9,,,,,,,,,,,,,,,,,,,,,,,a,0,0.862,"[""0.311"",""0.266"",""0.561"",""0.763""]","[0,1,1,1]",0,61,61,61,1,1,0,,,0,FALSE,,,,,,,,,,,,,,,,,,,,,,,,,,,,,,
,5e7d2988ad9157106e1811c7,001,2022-04-28_20h09.13.737,classification_task,2021.2.3,Win32,59.87665409,5e7d2988ad9157106e1811c7,626b377229c10585ec392f8a,626b3a93a643ca4dfe1f41f9,,,,,,,,,,,,,,,,,,,,,,,l,0,0.5281,"[""0.659"",""0.363"",""0.832"",""0.935""]","[0,1,1,1]",0,62,62,62,1,0,1,,,0,FALSE,,,,,,,,,,,,,,,,,,,,,,,,,,,,,,
,5e7d2988ad9157106e1811c7,001,2022-04-28_20h09.13.737,classification_task,2021.2.3,Win32,59.87665409,5e7d2988ad9157106e1811c7,626b377229c10585ec392f8a,626b3a93a643ca4dfe1f41f9,,,,,,,,,,,,,,,,,,,,,,,l,0,0.495,"[""0.182"",""0.487"",""0.655"",""0.868""]","[1,1,0,1]",0,63,63,63,1,0,0,,,0,FALSE,,,,,,,,,,,,,,,,,,,,,,,,,,,,,,
,5e7d2988ad9157106e1811c7,001,2022-04-28_20h09.13.737,classification_task,2021.2.3,Win32,59.87665409,5e7d2988ad9157106e1811c7,626b377229c10585ec392f8a,626b3a93a643ca4dfe1f41f9,,,,,,,,,,,,,,,,,,,,,,,,,,,,,,,,,,,,,,,0, ,,0,9.902209375,3221.8081,0,0,0,0,1,2,1,,,,,,,,,,,,,,,,,
,5e7d2988ad9157106e1811c7,001,2022-04-28_20h09.13.737,classification_task,2021.2.3,Win32,59.87665409,5e7d2988ad9157106e1811c7,626b377229c10585ec392f8a,626b3a93a643ca4dfe1f41f9,,,,,,,,,,,,,,,,,,,,,,,,,,,,,,,,,,,,,,,1,  ,,0,10,3226.628,0,0,0,0,1,2,1,,,,,,,,,,,,,,,,,
,5e7d2988ad9157106e1811c7,001,2022-04-28_20h09.13.737,classification_task,2021.2.3,Win32,59.87665409,5e7d2988ad9157106e1811c7,626b377229c10585ec392f8a,626b3a93a643ca4dfe1f41f9,,,,,,,,,,,,,,,,,,,,,,,,,,,,,,,,,,,,,,,2,  ,,0,8.183618732,3231.1141,0,0,0,0,1,2,1,,,,,,,,,,,,,,,,,
,5e7d2988ad9157106e1811c7,001,2022-04-28_20h09.13.737,classification_task,2021.2.3,Win32,59.87665409,5e7d2988ad9157106e1811c7,626b377229c10585ec392f8a,626b3a93a643ca4dfe1f41f9,,,,,,,,,,,,,,,,,,,,,,,,,,,,,,,,,,,,,,,,,,,,,0,0,0,0,1,,1,,,,,,,,,,,,,,,,,
,5e7d2988ad9157106e1811c7,001,2022-04-28_20h09.13.737,classification_task,2021.2.3,Win32,59.87665409,5e7d2988ad9157106e1811c7,626b377229c10585ec392f8a,626b3a93a643ca4dfe1f41f9,,,,,,,,,,,,,,,,,,,,,space,5.5435,l,1,2.6792,"[""0.664"",""0.266"",""0.561"",""0.763""]","[0,1,1,1]",0,0,0,0,1,1,0,,,0,FALSE,,,,,,,,,,,,,,,,,,,,,,,,,,,,,,
,5e7d2988ad9157106e1811c7,001,2022-04-28_20h09.13.737,classification_task,2021.2.3,Win32,59.87665409,5e7d2988ad9157106e1811c7,626b377229c10585ec392f8a,626b3a93a643ca4dfe1f41f9,,,,,,,,,,,,,,,,,,,,,,,l,1,0.7144,"[""0.138"",""0.266"",""0.659"",""0.763""]","[1,1,0,1]",0,1,1,1,1,1,0,,,0,FALSE,,,,,,,,,,,,,,,,,,,,,,,,,,,,,,
,5e7d2988ad9157106e1811c7,001,2022-04-28_20h09.13.737,classification_task,2021.2.3,Win32,59.87665409,5e7d2988ad9157106e1811c7,626b377229c10585ec392f8a,626b3a93a643ca4dfe1f41f9,,,,,,,,,,,,,,,,,,,,,,,l,1,0.6619,"[""0.138"",""0.312"",""0.561"",""0.763""]","[1,0,1,1]",0,2,2,2,1,1,0,,,0,FALSE,,,,,,,,,,,,,,,,,,,,,,,,,,,,,,
,5e7d2988ad9157106e1811c7,001,2022-04-28_20h09.13.737,classification_task,2021.2.3,Win32,59.87665409,5e7d2988ad9157106e1811c7,626b377229c10585ec392f8a,626b3a93a643ca4dfe1f41f9,,,,,,,,,,,,,,,,,,,,,,,l,1,0.4957,"[""0.138"",""0.266"",""0.561"",""0.667""]","[1,1,1,0]",0,3,3,3,1,1,0,,,0,FALSE,,,,,,,,,,,,,,,,,,,,,,,,,,,,,,
,5e7d2988ad9157106e1811c7,001,2022-04-28_20h09.13.737,classification_task,2021.2.3,Win32,59.87665409,5e7d2988ad9157106e1811c7,626b377229c10585ec392f8a,626b3a93a643ca4dfe1f41f9,,,,,,,,,,,,,,,,,,,,,,,a,1,0.5475,"[""0.226"",""0.363"",""0.832"",""0.403""]","[1,1,1,0]",0,4,4,4,1,0,1,,,0,FALSE,,,,,,,,,,,,,,,,,,,,,,,,,,,,,,
,5e7d2988ad9157106e1811c7,001,2022-04-28_20h09.13.737,classification_task,2021.2.3,Win32,59.87665409,5e7d2988ad9157106e1811c7,626b377229c10585ec392f8a,626b3a93a643ca4dfe1f41f9,,,,,,,,,,,,,,,,,,,,,,,a,0,0.5208,"[""0.312"",""0.103"",""0.439"",""0.704""]","[0,1,1,1]",0,5,5,5,1,1,1,,,0,FALSE,,,,,,,,,,,,,,,,,,,,,,,,,,,,,,
,5e7d2988ad9157106e1811c7,001,2022-04-28_20h09.13.737,classification_task,2021.2.3,Win32,59.87665409,5e7d2988ad9157106e1811c7,626b377229c10585ec392f8a,626b3a93a643ca4dfe1f41f9,,,,,,,,,,,,,,,,,,,,,,,a,1,1.1501,"[""0.226"",""0.363"",""0.329"",""0.935""]","[1,1,0,1]",0,6,6,6,1,0,1,,,0,FALSE,,,,,,,,,,,,,,,,,,,,,,,,,,,,,,
,5e7d2988ad9157106e1811c7,001,2022-04-28_20h09.13.737,classification_task,2021.2.3,Win32,59.87665409,5e7d2988ad9157106e1811c7,626b377229c10585ec392f8a,626b3a93a643ca4dfe1f41f9,,,,,,,,,,,,,,,,,,,,,,,l,0,0.516,"[""0.312"",""0.487"",""0.612"",""0.868""]","[0,1,1,1]",0,7,7,7,1,0,0,,,0,FALSE,,,,,,,,,,,,,,,,,,,,,,,,,,,,,,
,5e7d2988ad9157106e1811c7,001,2022-04-28_20h09.13.737,classification_task,2021.2.3,Win32,59.87665409,5e7d2988ad9157106e1811c7,626b377229c10585ec392f8a,626b3a93a643ca4dfe1f41f9,,,,,,,,,,,,,,,,,,,,,,,a,1,1.1508,"[""0.226"",""0.655"",""0.832"",""0.935""]","[1,0,1,1]",0,8,8,8,1,0,1,,,0,FALSE,,,,,,,,,,,,,,,,,,,,,,,,,,,,,,
,5e7d2988ad9157106e1811c7,001,2022-04-28_20h09.13.737,classification_task,2021.2.3,Win32,59.87665409,5e7d2988ad9157106e1811c7,626b377229c10585ec392f8a,626b3a93a643ca4dfe1f41f9,,,,,,,,,,,,,,,,,,,,,,,a,1,1.1454,"[""0.027"",""0.363"",""0.832"",""0.935""]","[0,1,1,1]",0,9,9,9,1,0,1,,,0,FALSE,,,,,,,,,,,,,,,,,,,,,,,,,,,,,,
,5e7d2988ad9157106e1811c7,001,2022-04-28_20h09.13.737,classification_task,2021.2.3,Win32,59.87665409,5e7d2988ad9157106e1811c7,626b377229c10585ec392f8a,626b3a93a643ca4dfe1f41f9,,,,,,,,,,,,,,,,,,,,,,,l,0,0.6782,"[""0.182"",""0.487"",""0.403"",""0.868""]","[1,1,0,1]",0,10,10,10,1,0,0,,,0,FALSE,,,,,,,,,,,,,,,,,,,,,,,,,,,,,,
,5e7d2988ad9157106e1811c7,001,2022-04-28_20h09.13.737,classification_task,2021.2.3,Win32,59.87665409,5e7d2988ad9157106e1811c7,626b377229c10585ec392f8a,626b3a93a643ca4dfe1f41f9,,,,,,,,,,,,,,,,,,,,,,,l,0,1.0662,"[""0.182"",""0.487"",""0.612"",""0.659""]","[1,1,1,0]",0,11,11,11,1,0,0,,,0,FALSE,,,,,,,,,,,,,,,,,,,,,,,,,,,,,,
,5e7d2988ad9157106e1811c7,001,2022-04-28_20h09.13.737,classification_task,2021.2.3,Win32,59.87665409,5e7d2988ad9157106e1811c7,626b377229c10585ec392f8a,626b3a93a643ca4dfe1f41f9,,,,,,,,,,,,,,,,,,,,,,,a,0,0.6827,"[""0.063"",""0.103"",""0.439"",""0.329""]","[1,1,1,0]",0,12,12,12,1,1,1,,,0,FALSE,,,,,,,,,,,,,,,,,,,,,,,,,,,,,,
,5e7d2988ad9157106e1811c7,001,2022-04-28_20h09.13.737,classification_task,2021.2.3,Win32,59.87665409,5e7d2988ad9157106e1811c7,626b377229c10585ec392f8a,626b3a93a643ca4dfe1f41f9,,,,,,,,,,,,,,,,,,,,,,,a,1,1.1544,"[""0.182"",""0.321"",""0.612"",""0.868""]","[1,0,1,1]",0,13,13,13,1,0,0,,,0,FALSE,,,,,,,,,,,,,,,,,,,,,,,,,,,,,,
,5e7d2988ad9157106e1811c7,001,2022-04-28_20h09.13.737,classification_task,2021.2.3,Win32,59.87665409,5e7d2988ad9157106e1811c7,626b377229c10585ec392f8a,626b3a93a643ca4dfe1f41f9,,,,,,,,,,,,,,,,,,,,,,,l,1,0.5585,"[""0.063"",""0.664"",""0.439"",""0.704""]","[1,0,1,1]",0,14,14,14,1,1,1,,,0,FALSE,,,,,,,,,,,,,,,,,,,,,,,,,,,,,,
,5e7d2988ad9157106e1811c7,001,2022-04-28_20h09.13.737,classification_task,2021.2.3,Win32,59.87665409,5e7d2988ad9157106e1811c7,626b377229c10585ec392f8a,626b3a93a643ca4dfe1f41f9,,,,,,,,,,,,,,,,,,,,,,,a,0,2.1121,"[""0.063"",""0.103"",""0.659"",""0.704""]","[1,1,0,1]",0,15,15,15,1,1,1,,,0,FALSE,,,,,,,,,,,,,,,,,,,,,,,,,,,,,,
,5e7d2988ad9157106e1811c7,001,2022-04-28_20h09.13.737,classification_task,2021.2.3,Win32,59.87665409,5e7d2988ad9157106e1811c7,626b377229c10585ec392f8a,626b3a93a643ca4dfe1f41f9,,,,,,,,,,,,,,,,,,,,,,,l,0,0.8661,"[""0.321"",""0.363"",""0.832"",""0.935""]","[0,1,1,1]",0,16,16,16,1,0,1,,,0,FALSE,,,,,,,,,,,,,,,,,,,,,,,,,,,,,,
,5e7d2988ad9157106e1811c7,001,2022-04-28_20h09.13.737,classification_task,2021.2.3,Win32,59.87665409,5e7d2988ad9157106e1811c7,626b377229c10585ec392f8a,626b3a93a643ca4dfe1f41f9,,,,,,,,,,,,,,,,,,,,,,,l,1,0.6688,"[""0.138"",""0.266"",""0.659"",""0.763""]","[1,1,0,1]",0,17,17,17,1,1,0,,,0,FALSE,,,,,,,,,,,,,,,,,,,,,,,,,,,,,,
,5e7d2988ad9157106e1811c7,001,2022-04-28_20h09.13.737,classification_task,2021.2.3,Win32,59.87665409,5e7d2988ad9157106e1811c7,626b377229c10585ec392f8a,626b3a93a643ca4dfe1f41f9,,,,,,,,,,,,,,,,,,,,,,,l,1,0.7952,"[""0.138"",""0.667"",""0.561"",""0.763""]","[1,0,1,1]",0,18,18,18,1,1,0,,,0,FALSE,,,,,,,,,,,,,,,,,,,,,,,,,,,,,,
,5e7d2988ad9157106e1811c7,001,2022-04-28_20h09.13.737,classification_task,2021.2.3,Win32,59.87665409,5e7d2988ad9157106e1811c7,626b377229c10585ec392f8a,626b3a93a643ca4dfe1f41f9,,,,,,,,,,,,,,,,,,,,,,,a,0,0.4613,"[""0.654"",""0.103"",""0.439"",""0.704""]","[0,1,1,1]",0,19,19,19,1,1,1,,,0,FALSE,,,,,,,,,,,,,,,,,,,,,,,,,,,,,,
,5e7d2988ad9157106e1811c7,001,2022-04-28_20h09.13.737,classification_task,2021.2.3,Win32,59.87665409,5e7d2988ad9157106e1811c7,626b377229c10585ec392f8a,626b3a93a643ca4dfe1f41f9,,,,,,,,,,,,,,,,,,,,,,,l,1,0.5624,"[""0.063"",""0.103"",""0.661"",""0.704""]","[1,1,0,1]",0,20,20,20,1,1,1,,,0,FALSE,,,,,,,,,,,,,,,,,,,,,,,,,,,,,,
,5e7d2988ad9157106e1811c7,001,2022-04-28_20h09.13.737,classification_task,2021.2.3,Win32,59.87665409,5e7d2988ad9157106e1811c7,626b377229c10585ec392f8a,626b3a93a643ca4dfe1f41f9,,,,,,,,,,,,,,,,,,,,,,,l,0,0.8247,"[""0.226"",""0.363"",""0.832"",""0.314""]","[1,1,1,0]",0,21,21,21,1,0,1,,,0,FALSE,,,,,,,,,,,,,,,,,,,,,,,,,,,,,,
,5e7d2988ad9157106e1811c7,001,2022-04-28_20h09.13.737,classification_task,2021.2.3,Win32,59.87665409,5e7d2988ad9157106e1811c7,626b377229c10585ec392f8a,626b3a93a643ca4dfe1f41f9,,,,,,,,,,,,,,,,,,,,,,,l,1,0.786,"[""0.063"",""0.103"",""0.439"",""0.661""]","[1,1,1,0]",0,22,22,22,1,1,1,,,0,FALSE,,,,,,,,,,,,,,,,,,,,,,,,,,,,,,
,5e7d2988ad9157106e1811c7,001,2022-04-28_20h09.13.737,classification_task,2021.2.3,Win32,59.87665409,5e7d2988ad9157106e1811c7,626b377229c10585ec392f8a,626b3a93a643ca4dfe1f41f9,,,,,,,,,,,,,,,,,,,,,,,l,1,1.3855,"[""0.138"",""0.266"",""0.561"",""0.661""]","[1,1,1,0]",0,23,23,23,1,1,0,,,0,FALSE,,,,,,,,,,,,,,,,,,,,,,,,,,,,,,
,5e7d2988ad9157106e1811c7,001,2022-04-28_20h09.13.737,classification_task,2021.2.3,Win32,59.87665409,5e7d2988ad9157106e1811c7,626b377229c10585ec392f8a,626b3a93a643ca4dfe1f41f9,,,,,,,,,,,,,,,,,,,,,,,a,1,1.1394,"[""0.226"",""0.655"",""0.832"",""0.935""]","[1,0,1,1]",0,24,24,24,1,0,1,,,0,FALSE,,,,,,,,,,,,,,,,,,,,,,,,,,,,,,
,5e7d2988ad9157106e1811c7,001,2022-04-28_20h09.13.737,classification_task,2021.2.3,Win32,59.87665409,5e7d2988ad9157106e1811c7,626b377229c10585ec392f8a,626b3a93a643ca4dfe1f41f9,,,,,,,,,,,,,,,,,,,,,,,l,0,0.7999,"[""0.659"",""0.487"",""0.612"",""0.868""]","[0,1,1,1]",0,25,25,25,1,0,0,,,0,FALSE,,,,,,,,,,,,,,,,,,,,,,,,,,,,,,
,5e7d2988ad9157106e1811c7,001,2022-04-28_20h09.13.737,classification_task,2021.2.3,Win32,59.87665409,5e7d2988ad9157106e1811c7,626b377229c10585ec392f8a,626b3a93a643ca4dfe1f41f9,,,,,,,,,,,,,,,,,,,,,,,a,0,1.0512,"[""0.063"",""0.659"",""0.439"",""0.704""]","[1,0,1,1]",0,26,26,26,1,1,1,,,0,FALSE,,,,,,,,,,,,,,,,,,,,,,,,,,,,,,
,5e7d2988ad9157106e1811c7,001,2022-04-28_20h09.13.737,classification_task,2021.2.3,Win32,59.87665409,5e7d2988ad9157106e1811c7,626b377229c10585ec392f8a,626b3a93a643ca4dfe1f41f9,,,,,,,,,,,,,,,,,,,,,,,l,0,2.2524,"[""0.182"",""0.487"",""0.655"",""0.868""]","[1,1,0,1]",0,27,27,27,1,0,0,,,0,FALSE,,,,,,,,,,,,,,,,,,,,,,,,,,,,,,
,5e7d2988ad9157106e1811c7,001,2022-04-28_20h09.13.737,classification_task,2021.2.3,Win32,59.87665409,5e7d2988ad9157106e1811c7,626b377229c10585ec392f8a,626b3a93a643ca4dfe1f41f9,,,,,,,,,,,,,,,,,,,,,,,l,0,1.9526,"[""0.182"",""0.329"",""0.612"",""0.868""]","[1,0,1,1]",0,28,28,28,1,0,0,,,0,FALSE,,,,,,,,,,,,,,,,,,,,,,,,,,,,,,
,5e7d2988ad9157106e1811c7,001,2022-04-28_20h09.13.737,classification_task,2021.2.3,Win32,59.87665409,5e7d2988ad9157106e1811c7,626b377229c10585ec392f8a,626b3a93a643ca4dfe1f41f9,,,,,,,,,,,,,,,,,,,,,,,a,1,0.6472,"[""0.226"",""0.363"",""0.667"",""0.935""]","[1,1,0,1]",0,29,29,29,1,0,1,,,0,FALSE,,,,,,,,,,,,,,,,,,,,,,,,,,,,,,
,5e7d2988ad9157106e1811c7,001,2022-04-28_20h09.13.737,classification_task,2021.2.3,Win32,59.87665409,5e7d2988ad9157106e1811c7,626b377229c10585ec392f8a,626b3a93a643ca4dfe1f41f9,,,,,,,,,,,,,,,,,,,,,,,l,1,0.7536,"[""0.403"",""0.266"",""0.561"",""0.763""]","[0,1,1,1]",0,30,30,30,1,1,0,,,0,FALSE,,,,,,,,,,,,,,,,,,,,,,,,,,,,,,
,5e7d2988ad9157106e1811c7,001,2022-04-28_20h09.13.737,classification_task,2021.2.3,Win32,59.87665409,5e7d2988ad9157106e1811c7,626b377229c10585ec392f8a,626b3a93a643ca4dfe1f41f9,,,,,,,,,,,,,,,,,,,,,,,l,0,1.4729,"[""0.182"",""0.487"",""0.612"",""0.329""]","[1,1,1,0]",0,31,31,31,1,0,0,,,0,FALSE,,,,,,,,,,,,,,,,,,,,,,,,,,,,,,
,5e7d2988ad9157106e1811c7,001,2022-04-28_20h09.13.737,classification_task,2021.2.3,Win32,59.87665409,5e7d2988ad9157106e1811c7,626b377229c10585ec392f8a,626b3a93a643ca4dfe1f41f9,,,,,,,,,,,,,,,,,,,,,,,a,0,0.6509,"[""0.063"",""0.103"",""0.311"",""0.704""]","[1,1,0,1]",0,32,32,32,1,1,1,,,0,FALSE,,,,,,,,,,,,,,,,,,,,,,,,,,,,,,
,5e7d2988ad9157106e1811c7,001,2022-04-28_20h09.13.737,classification_task,2021.2.3,Win32,59.87665409,5e7d2988ad9157106e1811c7,626b377229c10585ec392f8a,626b3a93a643ca4dfe1f41f9,,,,,,,,,,,,,,,,,,,,,,,a,0,0.715,"[""0.138"",""0.266"",""0.561"",""0.654""]","[1,1,1,0]",0,33,33,33,1,1,0,,,0,FALSE,,,,,,,,,,,,,,,,,,,,,,,,,,,,,,
,5e7d2988ad9157106e1811c7,001,2022-04-28_20h09.13.737,classification_task,2021.2.3,Win32,59.87665409,5e7d2988ad9157106e1811c7,626b377229c10585ec392f8a,626b3a93a643ca4dfe1f41f9,,,,,,,,,,,,,,,,,,,,,,,l,0,0.5265,"[""0.654"",""0.487"",""0.612"",""0.868""]","[0,1,1,1]",0,34,34,34,1,0,0,,,0,FALSE,,,,,,,,,,,,,,,,,,,,,,,,,,,,,,
,5e7d2988ad9157106e1811c7,001,2022-04-28_20h09.13.737,classification_task,2021.2.3,Win32,59.87665409,5e7d2988ad9157106e1811c7,626b377229c10585ec392f8a,626b3a93a643ca4dfe1f41f9,,,,,,,,,,,,,,,,,,,,,,,l,1,0.814,"[""0.138"",""0.329"",""0.561"",""0.763""]","[1,0,1,1]",0,35,35,35,1,1,0,,,0,FALSE,,,,,,,,,,,,,,,,,,,,,,,,,,,,,,
,5e7d2988ad9157106e1811c7,001,2022-04-28_20h09.13.737,classification_task,2021.2.3,Win32,59.87665409,5e7d2988ad9157106e1811c7,626b377229c10585ec392f8a,626b3a93a643ca4dfe1f41f9,,,,,,,,,,,,,,,,,,,,,,,a,0,1.3419,"[""0.659"",""0.266"",""0.561"",""0.763""]","[0,1,1,1]",0,36,36,36,1,1,0,,,0,FALSE,,,,,,,,,,,,,,,,,,,,,,,,,,,,,,
,5e7d2988ad9157106e1811c7,001,2022-04-28_20h09.13.737,classification_task,2021.2.3,Win32,59.87665409,5e7d2988ad9157106e1811c7,626b377229c10585ec392f8a,626b3a93a643ca4dfe1f41f9,,,,,,,,,,,,,,,,,,,,,,,a,1,1.7121,"[""0.182"",""0.311"",""0.612"",""0.868""]","[1,0,1,1]",0,37,37,37,1,0,0,,,0,FALSE,,,,,,,,,,,,,,,,,,,,,,,,,,,,,,
,5e7d2988ad9157106e1811c7,001,2022-04-28_20h09.13.737,classification_task,2021.2.3,Win32,59.87665409,5e7d2988ad9157106e1811c7,626b377229c10585ec392f8a,626b3a93a643ca4dfe1f41f9,,,,,,,,,,,,,,,,,,,,,,,l,0,0.8969,"[""0.182"",""0.487"",""0.612"",""0.654""]","[1,1,1,0]",0,38,38,38,1,0,0,,,0,FALSE,,,,,,,,,,,,,,,,,,,,,,,,,,,,,,
,5e7d2988ad9157106e1811c7,001,2022-04-28_20h09.13.737,classification_task,2021.2.3,Win32,59.87665409,5e7d2988ad9157106e1811c7,626b377229c10585ec392f8a,626b3a93a643ca4dfe1f41f9,,,,,,,,,,,,,,,,,,,,,,,l,1,1.5907,"[""0.063"",""0.103"",""0.439"",""0.667""]","[1,1,1,0]",0,39,39,39,1,1,1,,,0,FALSE,,,,,,,,,,,,,,,,,,,,,,,,,,,,,,
,5e7d2988ad9157106e1811c7,001,2022-04-28_20h09.13.737,classification_task,2021.2.3,Win32,59.87665409,5e7d2988ad9157106e1811c7,626b377229c10585ec392f8a,626b3a93a643ca4dfe1f41f9,,,,,,,,,,,,,,,,,,,,,,,a,1,0.8484,"[""0.182"",""0.487"",""0.312"",""0.868""]","[1,1,0,1]",0,40,40,40,1,0,0,,,0,FALSE,,,,,,,,,,,,,,,,,,,,,,,,,,,,,,
,5e7d2988ad9157106e1811c7,001,2022-04-28_20h09.13.737,classification_task,2021.2.3,Win32,59.87665409,5e7d2988ad9157106e1811c7,626b377229c10585ec392f8a,626b3a93a643ca4dfe1f41f9,,,,,,,,,,,,,,,,,,,,,,,a,0,0.9509,"[""0.063"",""0.329"",""0.439"",""0.704""]","[1,0,1,1]",0,41,41,41,1,1,1,,,0,FALSE,,,,,,,,,,,,,,,,,,,,,,,,,,,,,,
,5e7d2988ad9157106e1811c7,001,2022-04-28_20h09.13.737,classification_task,2021.2.3,Win32,59.87665409,5e7d2988ad9157106e1811c7,626b377229c10585ec392f8a,626b3a93a643ca4dfe1f41f9,,,,,,,,,,,,,,,,,,,,,,,l,0,0.7367,"[""0.226"",""0.363"",""0.312"",""0.935""]","[1,1,0,1]",0,42,42,42,1,0,1,,,0,FALSE,,,,,,,,,,,,,,,,,,,,,,,,,,,,,,
,5e7d2988ad9157106e1811c7,001,2022-04-28_20h09.13.737,classification_task,2021.2.3,Win32,59.87665409,5e7d2988ad9157106e1811c7,626b377229c10585ec392f8a,626b3a93a643ca4dfe1f41f9,,,,,,,,,,,,,,,,,,,,,,,a,0,0.5673,"[""0.309"",""0.103"",""0.439"",""0.704""]","[0,1,1,1]",0,43,43,43,1,1,1,,,0,FALSE,,,,,,,,,,,,,,,,,,,,,,,,,,,,,,
,5e7d2988ad9157106e1811c7,001,2022-04-28_20h09.13.737,classification_task,2021.2.3,Win32,59.87665409,5e7d2988ad9157106e1811c7,626b377229c10585ec392f8a,626b3a93a643ca4dfe1f41f9,,,,,,,,,,,,,,,,,,,,,,,l,0,0.5185,"[""0.226"",""0.654"",""0.832"",""0.935""]","[1,0,1,1]",0,44,44,44,1,0,1,,,0,FALSE,,,,,,,,,,,,,,,,,,,,,,,,,,,,,,
,5e7d2988ad9157106e1811c7,001,2022-04-28_20h09.13.737,classification_task,2021.2.3,Win32,59.87665409,5e7d2988ad9157106e1811c7,626b377229c10585ec392f8a,626b3a93a643ca4dfe1f41f9,,,,,,,,,,,,,,,,,,,,,,,a,1,0.6814,"[""0.226"",""0.363"",""0.832"",""0.027""]","[1,1,1,0]",0,45,45,45,1,0,1,,,0,FALSE,,,,,,,,,,,,,,,,,,,,,,,,,,,,,,
,5e7d2988ad9157106e1811c7,001,2022-04-28_20h09.13.737,classification_task,2021.2.3,Win32,59.87665409,5e7d2988ad9157106e1811c7,626b377229c10585ec392f8a,626b3a93a643ca4dfe1f41f9,,,,,,,,,,,,,,,,,,,,,,,l,1,0.9289,"[""0.138"",""0.266"",""0.664"",""0.763""]","[1,1,0,1]",0,46,46,46,1,1,0,,,0,FALSE,,,,,,,,,,,,,,,,,,,,,,,,,,,,,,
,5e7d2988ad9157106e1811c7,001,2022-04-28_20h09.13.737,classification_task,2021.2.3,Win32,59.87665409,5e7d2988ad9157106e1811c7,626b377229c10585ec392f8a,626b3a93a643ca4dfe1f41f9,,,,,,,,,,,,,,,,,,,,,,,a,1,0.6094,"[""0.659"",""0.363"",""0.832"",""0.935""]","[0,1,1,1]",0,47,47,47,1,0,1,,,0,FALSE,,,,,,,,,,,,,,,,,,,,,,,,,,,,,,
,5e7d2988ad9157106e1811c7,001,2022-04-28_20h09.13.737,classification_task,2021.2.3,Win32,59.87665409,5e7d2988ad9157106e1811c7,626b377229c10585ec392f8a,626b3a93a643ca4dfe1f41f9,,,,,,,,,,,,,,,,,,,,,,,l,0,0.3891,"[""0.226"",""0.363"",""0.832"",""0.311""]","[1,1,1,0]",0,48,48,48,1,0,1,,,0,FALSE,,,,,,,,,,,,,,,,,,,,,,,,,,,,,,
,5e7d2988ad9157106e1811c7,001,2022-04-28_20h09.13.737,classification_task,2021.2.3,Win32,59.87665409,5e7d2988ad9157106e1811c7,626b377229c10585ec392f8a,626b3a93a643ca4dfe1f41f9,,,,,,,,,,,,,,,,,,,,,,,l,1,0.5828,"[""0.403"",""0.266"",""0.561"",""0.763""]","[0,1,1,1]",0,49,49,49,1,1,0,,,0,FALSE,,,,,,,,,,,,,,,,,,,,,,,,,,,,,,
,5e7d2988ad9157106e1811c7,001,2022-04-28_20h09.13.737,classification_task,2021.2.3,Win32,59.87665409,5e7d2988ad9157106e1811c7,626b377229c10585ec392f8a,626b3a93a643ca4dfe1f41f9,,,,,,,,,,,,,,,,,,,,,,,l,1,0.642,"[""0.138"",""0.266"",""0.561"",""0.312""]","[1,1,1,0]",0,50,50,50,1,1,0,,,0,FALSE,,,,,,,,,,,,,,,,,,,,,,,,,,,,,,
,5e7d2988ad9157106e1811c7,001,2022-04-28_20h09.13.737,classification_task,2021.2.3,Win32,59.87665409,5e7d2988ad9157106e1811c7,626b377229c10585ec392f8a,626b3a93a643ca4dfe1f41f9,,,,,,,,,,,,,,,,,,,,,,,l,1,0.9178,"[""0.063"",""0.103"",""0.439"",""0.664""]","[1,1,1,0]",0,51,51,51,1,1,1,,,0,FALSE,,,,,,,,,,,,,,,,,,,,,,,,,,,,,,
,5e7d2988ad9157106e1811c7,001,2022-04-28_20h09.13.737,classification_task,2021.2.3,Win32,59.87665409,5e7d2988ad9157106e1811c7,626b377229c10585ec392f8a,626b3a93a643ca4dfe1f41f9,,,,,,,,,,,,,,,,,,,,,,,a,0,0.7312,"[""0.138"",""0.266"",""0.661"",""0.763""]","[1,1,0,1]",0,52,52,52,1,1,0,,,0,FALSE,,,,,,,,,,,,,,,,,,,,,,,,,,,,,,
,5e7d2988ad9157106e1811c7,001,2022-04-28_20h09.13.737,classification_task,2021.2.3,Win32,59.87665409,5e7d2988ad9157106e1811c7,626b377229c10585ec392f8a,626b3a93a643ca4dfe1f41f9,,,,,,,,,,,,,,,,,,,,,,,a,0,0.7083,"[""0.311"",""0.103"",""0.439"",""0.704""]","[0,1,1,1]",0,53,53,53,1,1,1,,,0,FALSE,,,,,,,,,,,,,,,,,,,,,,,,,,,,,,
,5e7d2988ad9157106e1811c7,001,2022-04-28_20h09.13.737,classification_task,2021.2.3,Win32,59.87665409,5e7d2988ad9157106e1811c7,626b377229c10585ec392f8a,626b3a93a643ca4dfe1f41f9,,,,,,,,,,,,,,,,,,,,,,,a,0,1.0486,"[""0.063"",""0.103"",""0.667"",""0.704""]","[1,1,0,1]",0,54,54,54,1,1,1,,,0,FALSE,,,,,,,,,,,,,,,,,,,,,,,,,,,,,,
,5e7d2988ad9157106e1811c7,001,2022-04-28_20h09.13.737,classification_task,2021.2.3,Win32,59.87665409,5e7d2988ad9157106e1811c7,626b377229c10585ec392f8a,626b3a93a643ca4dfe1f41f9,,,,,,,,,,,,,,,,,,,,,,,a,1,0.4536,"[""0.182"",""0.487"",""0.329"",""0.868""]","[1,1,0,1]",0,55,55,55,1,0,0,,,0,FALSE,,,,,,,,,,,,,,,,,,,,,,,,,,,,,,
,5e7d2988ad9157106e1811c7,001,2022-04-28_20h09.13.737,classification_task,2021.2.3,Win32,59.87665409,5e7d2988ad9157106e1811c7,626b377229c10585ec392f8a,626b3a93a643ca4dfe1f41f9,,,,,,,,,,,,,,,,,,,,,,,a,1,0.7151,"[""0.182"",""0.487"",""0.612"",""0.403""]","[1,1,1,0]",0,56,56,56,1,0,0,,,0,FALSE,,,,,,,,,,,,,,,,,,,,,,,,,,,,,,
,5e7d2988ad9157106e1811c7,001,2022-04-28_20h09.13.737,classification_task,2021.2.3,Win32,59.87665409,5e7d2988ad9157106e1811c7,626b377229c10585ec392f8a,626b3a93a643ca4dfe1f41f9,,,,,,,,,,,,,,,,,,,,,,,l,0,0.5499,"[""0.664"",""0.487"",""0.612"",""0.868""]","[0,1,1,1]",0,57,57,57,1,0,0,,,0,FALSE,,,,,,,,,,,,,,,,,,,,,,,,,,,,,,
,5e7d2988ad9157106e1811c7,001,2022-04-28_20h09.13.737,classification_task,2021.2.3,Win32,59.87665409,5e7d2988ad9157106e1811c7,626b377229c10585ec392f8a,626b3a93a643ca4dfe1f41f9,,,,,,,,,,,,,,,,,,,,,,,l,1,0.621,"[""0.138"",""0.654"",""0.561"",""0.763""]","[1,0,1,1]",0,58,58,58,1,1,0,,,0,FALSE,,,,,,,,,,,,,,,,,,,,,,,,,,,,,,
,5e7d2988ad9157106e1811c7,001,2022-04-28_20h09.13.737,classification_task,2021.2.3,Win32,59.87665409,5e7d2988ad9157106e1811c7,626b377229c10585ec392f8a,626b3a93a643ca4dfe1f41f9,,,,,,,,,,,,,,,,,,,,,,,l,0,0.8056,"[""0.226"",""0.654"",""0.832"",""0.935""]","[1,0,1,1]",0,59,59,59,1,0,1,,,0,FALSE,,,,,,,,,,,,,,,,,,,,,,,,,,,,,,
,5e7d2988ad9157106e1811c7,001,2022-04-28_20h09.13.737,classification_task,2021.2.3,Win32,59.87665409,5e7d2988ad9157106e1811c7,626b377229c10585ec392f8a,626b3a93a643ca4dfe1f41f9,,,,,,,,,,,,,,,,,,,,,,,l,1,0.5489,"[""0.063"",""0.311"",""0.439"",""0.704""]","[1,0,1,1]",0,60,60,60,1,1,1,,,0,FALSE,,,,,,,,,,,,,,,,,,,,,,,,,,,,,,
,5e7d2988ad9157106e1811c7,001,2022-04-28_20h09.13.737,classification_task,2021.2.3,Win32,59.87665409,5e7d2988ad9157106e1811c7,626b377229c10585ec392f8a,626b3a93a643ca4dfe1f41f9,,,,,,,,,,,,,,,,,,,,,,,l,0,0.8498,"[""0.226"",""0.363"",""0.311"",""0.935""]","[1,1,0,1]",0,61,61,61,1,0,1,,,0,FALSE,,,,,,,,,,,,,,,,,,,,,,,,,,,,,,
,5e7d2988ad9157106e1811c7,001,2022-04-28_20h09.13.737,classification_task,2021.2.3,Win32,59.87665409,5e7d2988ad9157106e1811c7,626b377229c10585ec392f8a,626b3a93a643ca4dfe1f41f9,,,,,,,,,,,,,,,,,,,,,,,l,0,1.6634,"[""0.182"",""0.664"",""0.612"",""0.868""]","[1,0,1,1]",0,62,62,62,1,0,0,,,0,FALSE,,,,,,,,,,,,,,,,,,,,,,,,,,,,,,
,5e7d2988ad9157106e1811c7,001,2022-04-28_20h09.13.737,classification_task,2021.2.3,Win32,59.87665409,5e7d2988ad9157106e1811c7,626b377229c10585ec392f8a,626b3a93a643ca4dfe1f41f9,,,,,,,,,,,,,,,,,,,,,,,a,1,0.7256,"[""0.311"",""0.363"",""0.832"",""0.935""]","[0,1,1,1]",0,63,63,63,1,0,1,,,0,FALSE,,,,,,,,,,,,,,,,,,,,,,,,,,,,,,
,5e7d2988ad9157106e1811c7,001,2022-04-28_20h09.13.737,classification_task,2021.2.3,Win32,59.87665409,5e7d2988ad9157106e1811c7,626b377229c10585ec392f8a,626b3a93a643ca4dfe1f41f9,,,,,,,,,,,,,,,,,,,,,,,,,,,,,,,,,,,,,,,0, ,,0,0,136.4397,0,1,1,1,1,2,2,,,,,,,,,,,,,,,,,
,5e7d2988ad9157106e1811c7,001,2022-04-28_20h09.13.737,classification_task,2021.2.3,Win32,59.87665409,5e7d2988ad9157106e1811c7,626b377229c10585ec392f8a,626b3a93a643ca4dfe1f41f9,,,,,,,,,,,,,,,,,,,,,,,,,,,,,,,,,,,,,,,1,  ,,0,10,140.2587,0,1,1,1,1,2,2,,,,,,,,,,,,,,,,,
,5e7d2988ad9157106e1811c7,001,2022-04-28_20h09.13.737,classification_task,2021.2.3,Win32,59.87665409,5e7d2988ad9157106e1811c7,626b377229c10585ec392f8a,626b3a93a643ca4dfe1f41f9,,,,,,,,,,,,,,,,,,,,,,,,,,,,,,,,,,,,,,,2,  ,,0,10,141.9305,0,1,1,1,1,2,2,,,,,,,,,,,,,,,,,
,5e7d2988ad9157106e1811c7,001,2022-04-28_20h09.13.737,classification_task,2021.2.3,Win32,59.87665409,5e7d2988ad9157106e1811c7,626b377229c10585ec392f8a,626b3a93a643ca4dfe1f41f9,,,,,,,,,,,,,,,,,,,,,,,,,,,,,,,,,,,,,,,,,,,,,0,1,1,1,1,,2,,,,,,,,,,,,,,,,,
,5e7d2988ad9157106e1811c7,001,2022-04-28_20h09.13.737,classification_task,2021.2.3,Win32,59.87665409,5e7d2988ad9157106e1811c7,626b377229c10585ec392f8a,626b3a93a643ca4dfe1f41f9,,,,,,,,,,,,,,,,,,,,,space,1.4549,a,1,2.8913,"[""0.182"",""0.487"",""0.612"",""0.664""]","[1,1,1,0]",0,0,0,0,1,0,0,,,0,FALSE,,,,,,,,,,,,,,,,,,,,,,,,,,,,,,
,5e7d2988ad9157106e1811c7,001,2022-04-28_20h09.13.737,classification_task,2021.2.3,Win32,59.87665409,5e7d2988ad9157106e1811c7,626b377229c10585ec392f8a,626b3a93a643ca4dfe1f41f9,,,,,,,,,,,,,,,,,,,,,,,l,0,2.6033,"[""0.664"",""0.363"",""0.832"",""0.935""]","[0,1,1,1]",0,1,1,1,1,0,1,,,0,FALSE,,,,,,,,,,,,,,,,,,,,,,,,,,,,,,
,5e7d2988ad9157106e1811c7,001,2022-04-28_20h09.13.737,classification_task,2021.2.3,Win32,59.87665409,5e7d2988ad9157106e1811c7,626b377229c10585ec392f8a,626b3a93a643ca4dfe1f41f9,,,,,,,,,,,,,,,,,,,,,,,a,1,2.1187,"[""0.182"",""0.659"",""0.612"",""0.868""]","[1,0,1,1]",0,2,2,2,1,0,0,,,0,FALSE,,,,,,,,,,,,,,,,,,,,,,,,,,,,,,
,5e7d2988ad9157106e1811c7,001,2022-04-28_20h09.13.737,classification_task,2021.2.3,Win32,59.87665409,5e7d2988ad9157106e1811c7,626b377229c10585ec392f8a,626b3a93a643ca4dfe1f41f9,,,,,,,,,,,,,,,,,,,,,,,a,0,1.4905,"[""0.311"",""0.103"",""0.439"",""0.704""]","[0,1,1,1]",0,3,3,3,1,1,1,,,0,FALSE,,,,,,,,,,,,,,,,,,,,,,,,,,,,,,
,5e7d2988ad9157106e1811c7,001,2022-04-28_20h09.13.737,classification_task,2021.2.3,Win32,59.87665409,5e7d2988ad9157106e1811c7,626b377229c10585ec392f8a,626b3a93a643ca4dfe1f41f9,,,,,,,,,,,,,,,,,,,,,,,l,1,1.3171,"[""0.138"",""0.659"",""0.561"",""0.763""]","[1,0,1,1]",0,4,4,4,1,1,0,,,0,FALSE,,,,,,,,,,,,,,,,,,,,,,,,,,,,,,
,5e7d2988ad9157106e1811c7,001,2022-04-28_20h09.13.737,classification_task,2021.2.3,Win32,59.87665409,5e7d2988ad9157106e1811c7,626b377229c10585ec392f8a,626b3a93a643ca4dfe1f41f9,,,,,,,,,,,,,,,,,,,,,,,a,0,0.5381,"[""0.027"",""0.266"",""0.561"",""0.763""]","[0,1,1,1]",0,5,5,5,1,1,0,,,0,FALSE,,,,,,,,,,,,,,,,,,,,,,,,,,,,,,
,5e7d2988ad9157106e1811c7,001,2022-04-28_20h09.13.737,classification_task,2021.2.3,Win32,59.87665409,5e7d2988ad9157106e1811c7,626b377229c10585ec392f8a,626b3a93a643ca4dfe1f41f9,,,,,,,,,,,,,,,,,,,,,,,a,0,3.4838,"[""0.138"",""0.266"",""0.561"",""0.329""]","[1,1,1,0]",0,6,6,6,1,1,0,,,0,FALSE,,,,,,,,,,,,,,,,,,,,,,,,,,,,,,
,5e7d2988ad9157106e1811c7,001,2022-04-28_20h09.13.737,classification_task,2021.2.3,Win32,59.87665409,5e7d2988ad9157106e1811c7,626b377229c10585ec392f8a,626b3a93a643ca4dfe1f41f9,,,,,,,,,,,,,,,,,,,,,,,l,1,2.8108,"[""0.063"",""0.664"",""0.439"",""0.704""]","[1,0,1,1]",0,7,7,7,1,1,1,,,0,FALSE,,,,,,,,,,,,,,,,,,,,,,,,,,,,,,
,5e7d2988ad9157106e1811c7,001,2022-04-28_20h09.13.737,classification_task,2021.2.3,Win32,59.87665409,5e7d2988ad9157106e1811c7,626b377229c10585ec392f8a,626b3a93a643ca4dfe1f41f9,,,,,,,,,,,,,,,,,,,,,,,a,0,1.5011,"[""0.063"",""0.103"",""0.312"",""0.704""]","[1,1,0,1]",0,8,8,8,1,1,1,,,0,FALSE,,,,,,,,,,,,,,,,,,,,,,,,,,,,,,
,5e7d2988ad9157106e1811c7,001,2022-04-28_20h09.13.737,classification_task,2021.2.3,Win32,59.87665409,5e7d2988ad9157106e1811c7,626b377229c10585ec392f8a,626b3a93a643ca4dfe1f41f9,,,,,,,,,,,,,,,,,,,,,,,a,1,0.7517,"[""0.182"",""0.487"",""0.655"",""0.868""]","[1,1,0,1]",0,9,9,9,1,0,0,,,0,FALSE,,,,,,,,,,,,,,,,,,,,,,,,,,,,,,
,5e7d2988ad9157106e1811c7,001,2022-04-28_20h09.13.737,classification_task,2021.2.3,Win32,59.87665409,5e7d2988ad9157106e1811c7,626b377229c10585ec392f8a,626b3a93a643ca4dfe1f41f9,,,,,,,,,,,,,,,,,,,,,,,a,1,1.516,"[""0.226"",""0.655"",""0.832"",""0.935""]","[1,0,1,1]",0,10,10,10,1,0,1,,,0,FALSE,,,,,,,,,,,,,,,,,,,,,,,,,,,,,,
,5e7d2988ad9157106e1811c7,001,2022-04-28_20h09.13.737,classification_task,2021.2.3,Win32,59.87665409,5e7d2988ad9157106e1811c7,626b377229c10585ec392f8a,626b3a93a643ca4dfe1f41f9,,,,,,,,,,,,,,,,,,,,,,,a,1,1.5848,"[""0.027"",""0.487"",""0.612"",""0.868""]","[0,1,1,1]",0,11,11,11,1,0,0,,,0,FALSE,,,,,,,,,,,,,,,,,,,,,,,,,,,,,,
,5e7d2988ad9157106e1811c7,001,2022-04-28_20h09.13.737,classification_task,2021.2.3,Win32,59.87665409,5e7d2988ad9157106e1811c7,626b377229c10585ec392f8a,626b3a93a643ca4dfe1f41f9,,,,,,,,,,,,,,,,,,,,,,,a,0,1.6281,"[""0.138"",""0.266"",""0.321"",""0.763""]","[1,1,0,1]",0,12,12,12,1,1,0,,,0,FALSE,,,,,,,,,,,,,,,,,,,,,,,,,,,,,,
,5e7d2988ad9157106e1811c7,001,2022-04-28_20h09.13.737,classification_task,2021.2.3,Win32,59.87665409,5e7d2988ad9157106e1811c7,626b377229c10585ec392f8a,626b3a93a643ca4dfe1f41f9,,,,,,,,,,,,,,,,,,,,,,,l,0,1.9282,"[""0.226"",""0.363"",""0.832"",""0.654""]","[1,1,1,0]",0,13,13,13,1,0,1,,,0,FALSE,,,,,,,,,,,,,,,,,,,,,,,,,,,,,,
,5e7d2988ad9157106e1811c7,001,2022-04-28_20h09.13.737,classification_task,2021.2.3,Win32,59.87665409,5e7d2988ad9157106e1811c7,626b377229c10585ec392f8a,626b3a93a643ca4dfe1f41f9,,,,,,,,,,,,,,,,,,,,,,,l,1,2.5547,"[""0.063"",""0.103"",""0.439"",""0.027""]","[1,1,1,0]",0,14,14,14,1,1,1,,,0,FALSE,,,,,,,,,,,,,,,,,,,,,,,,,,,,,,
,5e7d2988ad9157106e1811c7,001,2022-04-28_20h09.13.737,classification_task,2021.2.3,Win32,59.87665409,5e7d2988ad9157106e1811c7,626b377229c10585ec392f8a,626b3a93a643ca4dfe1f41f9,,,,,,,,,,,,,,,,,,,,,,,l,0,0.5806,"[""0.226"",""0.363"",""0.314"",""0.935""]","[1,1,0,1]",0,15,15,15,1,0,1,,,0,FALSE,,,,,,,,,,,,,,,,,,,,,,,,,,,,,,
,5e7d2988ad9157106e1811c7,001,2022-04-28_20h09.13.737,classification_task,2021.2.3,Win32,59.87665409,5e7d2988ad9157106e1811c7,626b377229c10585ec392f8a,626b3a93a643ca4dfe1f41f9,,,,,,,,,,,,,,,,,,,,,,,a,1,0.6064,"[""0.226"",""0.667"",""0.832"",""0.935""]","[1,0,1,1]",0,16,16,16,1,0,1,,,0,FALSE,,,,,,,,,,,,,,,,,,,,,,,,,,,,,,
,5e7d2988ad9157106e1811c7,001,2022-04-28_20h09.13.737,classification_task,2021.2.3,Win32,59.87665409,5e7d2988ad9157106e1811c7,626b377229c10585ec392f8a,626b3a93a643ca4dfe1f41f9,,,,,,,,,,,,,,,,,,,,,,,a,0,0.5911,"[""0.063"",""0.103"",""0.027"",""0.704""]","[1,1,0,1]",0,17,17,17,1,1,1,,,0,FALSE,,,,,,,,,,,,,,,,,,,,,,,,,,,,,,
,5e7d2988ad9157106e1811c7,001,2022-04-28_20h09.13.737,classification_task,2021.2.3,Win32,59.87665409,5e7d2988ad9157106e1811c7,626b377229c10585ec392f8a,626b3a93a643ca4dfe1f41f9,,,,,,,,,,,,,,,,,,,,,,,l,1,0.3295,"[""0.655"",""0.103"",""0.439"",""0.704""]","[0,1,1,1]",0,18,18,18,1,1,1,,,0,FALSE,,,,,,,,,,,,,,,,,,,,,,,,,,,,,,
,5e7d2988ad9157106e1811c7,001,2022-04-28_20h09.13.737,classification_task,2021.2.3,Win32,59.87665409,5e7d2988ad9157106e1811c7,626b377229c10585ec392f8a,626b3a93a643ca4dfe1f41f9,,,,,,,,,,,,,,,,,,,,,,,l,0,0.6658,"[""0.329"",""0.363"",""0.832"",""0.935""]","[0,1,1,1]",0,19,19,19,1,0,1,,,0,FALSE,,,,,,,,,,,,,,,,,,,,,,,,,,,,,,
,5e7d2988ad9157106e1811c7,001,2022-04-28_20h09.13.737,classification_task,2021.2.3,Win32,59.87665409,5e7d2988ad9157106e1811c7,626b377229c10585ec392f8a,626b3a93a643ca4dfe1f41f9,,,,,,,,,,,,,,,,,,,,,,,a,0,0.9259,"[""0.138"",""0.266"",""0.659"",""0.763""]","[1,1,0,1]",0,20,20,20,1,1,0,,,0,FALSE,,,,,,,,,,,,,,,,,,,,,,,,,,,,,,
,5e7d2988ad9157106e1811c7,001,2022-04-28_20h09.13.737,classification_task,2021.2.3,Win32,59.87665409,5e7d2988ad9157106e1811c7,626b377229c10585ec392f8a,626b3a93a643ca4dfe1f41f9,,,,,,,,,,,,,,,,,,,,,,,a,0,0.7259,"[""0.063"",""0.103"",""0.439"",""0.659""]","[1,1,1,0]",0,21,21,21,1,1,1,,,0,FALSE,,,,,,,,,,,,,,,,,,,,,,,,,,,,,,
,5e7d2988ad9157106e1811c7,001,2022-04-28_20h09.13.737,classification_task,2021.2.3,Win32,59.87665409,5e7d2988ad9157106e1811c7,626b377229c10585ec392f8a,626b3a93a643ca4dfe1f41f9,,,,,,,,,,,,,,,,,,,,,,,l,1,0.7829,"[""0.138"",""0.266"",""0.561"",""0.309""]","[1,1,1,0]",0,22,22,22,1,1,0,,,0,FALSE,,,,,,,,,,,,,,,,,,,,,,,,,,,,,,
,5e7d2988ad9157106e1811c7,001,2022-04-28_20h09.13.737,classification_task,2021.2.3,Win32,59.87665409,5e7d2988ad9157106e1811c7,626b377229c10585ec392f8a,626b3a93a643ca4dfe1f41f9,,,,,,,,,,,,,,,,,,,,,,,a,1,0.6123,"[""0.182"",""0.487"",""0.612"",""0.312""]","[1,1,1,0]",0,23,23,23,1,0,0,,,0,FALSE,,,,,,,,,,,,,,,,,,,,,,,,,,,,,,
,5e7d2988ad9157106e1811c7,001,2022-04-28_20h09.13.737,classification_task,2021.2.3,Win32,59.87665409,5e7d2988ad9157106e1811c7,626b377229c10585ec392f8a,626b3a93a643ca4dfe1f41f9,,,,,,,,,,,,,,,,,,,,,,,a,1,1.305,"[""0.226"",""0.363"",""0.661"",""0.935""]","[1,1,0,1]",0,24,24,24,1,0,1,,,0,FALSE,,,,,,,,,,,,,,,,,,,,,,,,,,,,,,
,5e7d2988ad9157106e1811c7,001,2022-04-28_20h09.13.737,classification_task,2021.2.3,Win32,59.87665409,5e7d2988ad9157106e1811c7,626b377229c10585ec392f8a,626b3a93a643ca4dfe1f41f9,,,,,,,,,,,,,,,,,,,,,,,l,0,0.5706,"[""0.226"",""0.363"",""0.832"",""0.403""]","[1,1,1,0]",0,25,25,25,1,0,1,,,0,FALSE,,,,,,,,,,,,,,,,,,,,,,,,,,,,,,
,5e7d2988ad9157106e1811c7,001,2022-04-28_20h09.13.737,classification_task,2021.2.3,Win32,59.87665409,5e7d2988ad9157106e1811c7,626b377229c10585ec392f8a,626b3a93a643ca4dfe1f41f9,,,,,,,,,,,,,,,,,,,,,,,a,0,0.5383,"[""0.329"",""0.266"",""0.561"",""0.763""]","[0,1,1,1]",0,26,26,26,1,1,0,,,0,FALSE,,,,,,,,,,,,,,,,,,,,,,,,,,,,,,
,5e7d2988ad9157106e1811c7,001,2022-04-28_20h09.13.737,classification_task,2021.2.3,Win32,59.87665409,5e7d2988ad9157106e1811c7,626b377229c10585ec392f8a,626b3a93a643ca4dfe1f41f9,,,,,,,,,,,,,,,,,,,,,,,l,0,0.4655,"[""0.312"",""0.487"",""0.612"",""0.868""]","[0,1,1,1]",0,27,27,27,1,0,0,,,0,FALSE,,,,,,,,,,,,,,,,,,,,,,,,,,,,,,
,5e7d2988ad9157106e1811c7,001,2022-04-28_20h09.13.737,classification_task,2021.2.3,Win32,59.87665409,5e7d2988ad9157106e1811c7,626b377229c10585ec392f8a,626b3a93a643ca4dfe1f41f9,,,,,,,,,,,,,,,,,,,,,,,a,0,0.6816,"[""0.063"",""0.403"",""0.439"",""0.704""]","[1,0,1,1]",0,28,28,28,1,1,1,,,0,FALSE,,,,,,,,,,,,,,,,,,,,,,,,,,,,,,
,5e7d2988ad9157106e1811c7,001,2022-04-28_20h09.13.737,classification_task,2021.2.3,Win32,59.87665409,5e7d2988ad9157106e1811c7,626b377229c10585ec392f8a,626b3a93a643ca4dfe1f41f9,,,,,,,,,,,,,,,,,,,,,,,a,1,1.8092,"[""0.182"",""0.487"",""0.664"",""0.868""]","[1,1,0,1]",0,29,29,29,1,0,0,,,0,FALSE,,,,,,,,,,,,,,,,,,,,,,,,,,,,,,
,5e7d2988ad9157106e1811c7,001,2022-04-28_20h09.13.737,classification_task,2021.2.3,Win32,59.87665409,5e7d2988ad9157106e1811c7,626b377229c10585ec392f8a,626b3a93a643ca4dfe1f41f9,,,,,,,,,,,,,,,,,,,,,,,a,0,1.0516,"[""0.138"",""0.659"",""0.561"",""0.763""]","[1,0,1,1]",0,30,30,30,1,1,0,,,0,FALSE,,,,,,,,,,,,,,,,,,,,,,,,,,,,,,
,5e7d2988ad9157106e1811c7,001,2022-04-28_20h09.13.737,classification_task,2021.2.3,Win32,59.87665409,5e7d2988ad9157106e1811c7,626b377229c10585ec392f8a,626b3a93a643ca4dfe1f41f9,,,,,,,,,,,,,,,,,,,,,,,l,0,2.5289,"[""0.182"",""0.659"",""0.612"",""0.868""]","[1,0,1,1]",0,31,31,31,1,0,0,,,0,FALSE,,,,,,,,,,,,,,,,,,,,,,,,,,,,,,
,5e7d2988ad9157106e1811c7,001,2022-04-28_20h09.13.737,classification_task,2021.2.3,Win32,59.87665409,5e7d2988ad9157106e1811c7,626b377229c10585ec392f8a,626b3a93a643ca4dfe1f41f9,,,,,,,,,,,,,,,,,,,,,,,a,1,1.5825,"[""0.182"",""0.487"",""0.659"",""0.868""]","[1,1,0,1]",0,32,32,32,1,0,0,,,0,FALSE,,,,,,,,,,,,,,,,,,,,,,,,,,,,,,
,5e7d2988ad9157106e1811c7,001,2022-04-28_20h09.13.737,classification_task,2021.2.3,Win32,59.87665409,5e7d2988ad9157106e1811c7,626b377229c10585ec392f8a,626b3a93a643ca4dfe1f41f9,,,,,,,,,,,,,,,,,,,,,,,l,0,0.975,"[""0.226"",""0.654"",""0.832"",""0.935""]","[1,0,1,1]",0,33,33,33,1,0,1,,,0,FALSE,,,,,,,,,,,,,,,,,,,,,,,,,,,,,,
,5e7d2988ad9157106e1811c7,001,2022-04-28_20h09.13.737,classification_task,2021.2.3,Win32,59.87665409,5e7d2988ad9157106e1811c7,626b377229c10585ec392f8a,626b3a93a643ca4dfe1f41f9,,,,,,,,,,,,,,,,,,,,,,,l,0,1.7489,"[""0.182"",""0.659"",""0.612"",""0.868""]","[1,0,1,1]",0,34,34,34,1,0,0,,,0,FALSE,,,,,,,,,,,,,,,,,,,,,,,,,,,,,,
,5e7d2988ad9157106e1811c7,001,2022-04-28_20h09.13.737,classification_task,2021.2.3,Win32,59.87665409,5e7d2988ad9157106e1811c7,626b377229c10585ec392f8a,626b3a93a643ca4dfe1f41f9,,,,,,,,,,,,,,,,,,,,,,,l,0,0.6724,"[""0.226"",""0.363"",""0.832"",""0.321""]","[1,1,1,0]",0,35,35,35,1,0,1,,,0,FALSE,,,,,,,,,,,,,,,,,,,,,,,,,,,,,,
,5e7d2988ad9157106e1811c7,001,2022-04-28_20h09.13.737,classification_task,2021.2.3,Win32,59.87665409,5e7d2988ad9157106e1811c7,626b377229c10585ec392f8a,626b3a93a643ca4dfe1f41f9,,,,,,,,,,,,,,,,,,,,,,,a,0,0.5172,"[""0.063"",""0.309"",""0.439"",""0.704""]","[1,0,1,1]",0,36,36,36,1,1,1,,,0,FALSE,,,,,,,,,,,,,,,,,,,,,,,,,,,,,,
,5e7d2988ad9157106e1811c7,001,2022-04-28_20h09.13.737,classification_task,2021.2.3,Win32,59.87665409,5e7d2988ad9157106e1811c7,626b377229c10585ec392f8a,626b3a93a643ca4dfe1f41f9,,,,,,,,,,,,,,,,,,,,,,,a,0,1.3799,"[""0.063"",""0.103"",""0.439"",""0.311""]","[1,1,1,0]",0,37,37,37,1,1,1,,,0,FALSE,,,,,,,,,,,,,,,,,,,,,,,,,,,,,,
,5e7d2988ad9157106e1811c7,001,2022-04-28_20h09.13.737,classification_task,2021.2.3,Win32,59.87665409,5e7d2988ad9157106e1811c7,626b377229c10585ec392f8a,626b3a93a643ca4dfe1f41f9,,,,,,,,,,,,,,,,,,,,,,,l,1,0.7297,"[""0.138"",""0.266"",""0.321"",""0.763""]","[1,1,0,1]",0,38,38,38,1,1,0,,,0,FALSE,,,,,,,,,,,,,,,,,,,,,,,,,,,,,,
,5e7d2988ad9157106e1811c7,001,2022-04-28_20h09.13.737,classification_task,2021.2.3,Win32,59.87665409,5e7d2988ad9157106e1811c7,626b377229c10585ec392f8a,626b3a93a643ca4dfe1f41f9,,,,,,,,,,,,,,,,,,,,,,,l,0,0.5649,"[""0.182"",""0.487"",""0.612"",""0.664""]","[1,1,1,0]",0,39,39,39,1,0,0,,,0,FALSE,,,,,,,,,,,,,,,,,,,,,,,,,,,,,,
,5e7d2988ad9157106e1811c7,001,2022-04-28_20h09.13.737,classification_task,2021.2.3,Win32,59.87665409,5e7d2988ad9157106e1811c7,626b377229c10585ec392f8a,626b3a93a643ca4dfe1f41f9,,,,,,,,,,,,,,,,,,,,,,,a,0,0.5782,"[""0.314"",""0.103"",""0.439"",""0.704""]","[0,1,1,1]",0,40,40,40,1,1,1,,,0,FALSE,,,,,,,,,,,,,,,,,,,,,,,,,,,,,,
,5e7d2988ad9157106e1811c7,001,2022-04-28_20h09.13.737,classification_task,2021.2.3,Win32,59.87665409,5e7d2988ad9157106e1811c7,626b377229c10585ec392f8a,626b3a93a643ca4dfe1f41f9,,,,,,,,,,,,,,,,,,,,,,,a,1,0.7598,"[""0.226"",""0.363"",""0.655"",""0.935""]","[1,1,0,1]",0,41,41,41,1,0,1,,,0,FALSE,,,,,,,,,,,,,,,,,,,,,,,,,,,,,,
,5e7d2988ad9157106e1811c7,001,2022-04-28_20h09.13.737,classification_task,2021.2.3,Win32,59.87665409,5e7d2988ad9157106e1811c7,626b377229c10585ec392f8a,626b3a93a643ca4dfe1f41f9,,,,,,,,,,,,,,,,,,,,,,,l,1,0.7857,"[""0.027"",""0.266"",""0.561"",""0.763""]","[0,1,1,1]",0,42,42,42,1,1,0,,,0,FALSE,,,,,,,,,,,,,,,,,,,,,,,,,,,,,,
,5e7d2988ad9157106e1811c7,001,2022-04-28_20h09.13.737,classification_task,2021.2.3,Win32,59.87665409,5e7d2988ad9157106e1811c7,626b377229c10585ec392f8a,626b3a93a643ca4dfe1f41f9,,,,,,,,,,,,,,,,,,,,,,,a,0,0.3827,"[""0.063"",""0.103"",""0.659"",""0.704""]","[1,1,0,1]",0,43,43,43,1,1,1,,,0,FALSE,,,,,,,,,,,,,,,,,,,,,,,,,,,,,,
,5e7d2988ad9157106e1811c7,001,2022-04-28_20h09.13.737,classification_task,2021.2.3,Win32,59.87665409,5e7d2988ad9157106e1811c7,626b377229c10585ec392f8a,626b3a93a643ca4dfe1f41f9,,,,,,,,,,,,,,,,,,,,,,,l,0,0.9927,"[""0.654"",""0.487"",""0.612"",""0.868""]","[0,1,1,1]",0,44,44,44,1,0,0,,,0,FALSE,,,,,,,,,,,,,,,,,,,,,,,,,,,,,,
,5e7d2988ad9157106e1811c7,001,2022-04-28_20h09.13.737,classification_task,2021.2.3,Win32,59.87665409,5e7d2988ad9157106e1811c7,626b377229c10585ec392f8a,626b3a93a643ca4dfe1f41f9,,,,,,,,,,,,,,,,,,,,,,,l,0,0.5326,"[""0.664"",""0.363"",""0.832"",""0.935""]","[0,1,1,1]",0,45,45,45,1,0,1,,,0,FALSE,,,,,,,,,,,,,,,,,,,,,,,,,,,,,,
,5e7d2988ad9157106e1811c7,001,2022-04-28_20h09.13.737,classification_task,2021.2.3,Win32,59.87665409,5e7d2988ad9157106e1811c7,626b377229c10585ec392f8a,626b3a93a643ca4dfe1f41f9,,,,,,,,,,,,,,,,,,,,,,,a,0,1.4437,"[""0.138"",""0.321"",""0.561"",""0.763""]","[1,0,1,1]",0,46,46,46,1,1,0,,,0,FALSE,,,,,,,,,,,,,,,,,,,,,,,,,,,,,,
,5e7d2988ad9157106e1811c7,001,2022-04-28_20h09.13.737,classification_task,2021.2.3,Win32,59.87665409,5e7d2988ad9157106e1811c7,626b377229c10585ec392f8a,626b3a93a643ca4dfe1f41f9,,,,,,,,,,,,,,,,,,,,,,,a,0,0.6373,"[""0.138"",""0.266"",""0.561"",""0.667""]","[1,1,1,0]",0,47,47,47,1,1,0,,,0,FALSE,,,,,,,,,,,,,,,,,,,,,,,,,,,,,,
,5e7d2988ad9157106e1811c7,001,2022-04-28_20h09.13.737,classification_task,2021.2.3,Win32,59.87665409,5e7d2988ad9157106e1811c7,626b377229c10585ec392f8a,626b3a93a643ca4dfe1f41f9,,,,,,,,,,,,,,,,,,,,,,,a,0,0.7173,"[""0.063"",""0.311"",""0.439"",""0.704""]","[1,0,1,1]",0,48,48,48,1,1,1,,,0,FALSE,,,,,,,,,,,,,,,,,,,,,,,,,,,,,,
,5e7d2988ad9157106e1811c7,001,2022-04-28_20h09.13.737,classification_task,2021.2.3,Win32,59.87665409,5e7d2988ad9157106e1811c7,626b377229c10585ec392f8a,626b3a93a643ca4dfe1f41f9,,,,,,,,,,,,,,,,,,,,,,,a,1,1.966,"[""0.226"",""0.363"",""0.832"",""0.027""]","[1,1,1,0]",0,49,49,49,1,0,1,,,0,FALSE,,,,,,,,,,,,,,,,,,,,,,,,,,,,,,
,5e7d2988ad9157106e1811c7,001,2022-04-28_20h09.13.737,classification_task,2021.2.3,Win32,59.87665409,5e7d2988ad9157106e1811c7,626b377229c10585ec392f8a,626b3a93a643ca4dfe1f41f9,,,,,,,,,,,,,,,,,,,,,,,a,1,1.1999,"[""0.182"",""0.487"",""0.314"",""0.868""]","[1,1,0,1]",0,50,50,50,1,0,0,,,0,FALSE,,,,,,,,,,,,,,,,,,,,,,,,,,,,,,
,5e7d2988ad9157106e1811c7,001,2022-04-28_20h09.13.737,classification_task,2021.2.3,Win32,59.87665409,5e7d2988ad9157106e1811c7,626b377229c10585ec392f8a,626b3a93a643ca4dfe1f41f9,,,,,,,,,,,,,,,,,,,,,,,l,0,0.3341,"[""0.226"",""0.311"",""0.832"",""0.935""]","[1,0,1,1]",0,51,51,51,1,0,1,,,0,FALSE,,,,,,,,,,,,,,,,,,,,,,,,,,,,,,
,5e7d2988ad9157106e1811c7,001,2022-04-28_20h09.13.737,classification_task,2021.2.3,Win32,59.87665409,5e7d2988ad9157106e1811c7,626b377229c10585ec392f8a,626b3a93a643ca4dfe1f41f9,,,,,,,,,,,,,,,,,,,,,,,a,0,0.3825,"[""0.063"",""0.103"",""0.439"",""0.403""]","[1,1,1,0]",0,52,52,52,1,1,1,,,0,FALSE,,,,,,,,,,,,,,,,,,,,,,,,,,,,,,
,5e7d2988ad9157106e1811c7,001,2022-04-28_20h09.13.737,classification_task,2021.2.3,Win32,59.87665409,5e7d2988ad9157106e1811c7,626b377229c10585ec392f8a,626b3a93a643ca4dfe1f41f9,,,,,,,,,,,,,,,,,,,,,,,a,0,0.431,"[""0.311"",""0.103"",""0.439"",""0.704""]","[0,1,1,1]",0,53,53,53,1,1,1,,,0,FALSE,,,,,,,,,,,,,,,,,,,,,,,,,,,,,,
,5e7d2988ad9157106e1811c7,001,2022-04-28_20h09.13.737,classification_task,2021.2.3,Win32,59.87665409,5e7d2988ad9157106e1811c7,626b377229c10585ec392f8a,626b3a93a643ca4dfe1f41f9,,,,,,,,,,,,,,,,,,,,,,,l,0,0.7665,"[""0.321"",""0.363"",""0.832"",""0.935""]","[0,1,1,1]",0,54,54,54,1,0,1,,,0,FALSE,,,,,,,,,,,,,,,,,,,,,,,,,,,,,,
,5e7d2988ad9157106e1811c7,001,2022-04-28_20h09.13.737,classification_task,2021.2.3,Win32,59.87665409,5e7d2988ad9157106e1811c7,626b377229c10585ec392f8a,626b3a93a643ca4dfe1f41f9,,,,,,,,,,,,,,,,,,,,,,,l,1,0.4674,"[""0.063"",""0.103"",""0.309"",""0.704""]","[1,1,0,1]",0,55,55,55,1,1,1,,,0,FALSE,,,,,,,,,,,,,,,,,,,,,,,,,,,,,,
,5e7d2988ad9157106e1811c7,001,2022-04-28_20h09.13.737,classification_task,2021.2.3,Win32,59.87665409,5e7d2988ad9157106e1811c7,626b377229c10585ec392f8a,626b3a93a643ca4dfe1f41f9,,,,,,,,,,,,,,,,,,,,,,,l,0,0.4155,"[""0.226"",""0.363"",""0.312"",""0.935""]","[1,1,0,1]",0,56,56,56,1,0,1,,,0,FALSE,,,,,,,,,,,,,,,,,,,,,,,,,,,,,,
,5e7d2988ad9157106e1811c7,001,2022-04-28_20h09.13.737,classification_task,2021.2.3,Win32,59.87665409,5e7d2988ad9157106e1811c7,626b377229c10585ec392f8a,626b3a93a643ca4dfe1f41f9,,,,,,,,,,,,,,,,,,,,,,,a,1,0.6908,"[""0.182"",""0.487"",""0.612"",""0.314""]","[1,1,1,0]",0,57,57,57,1,0,0,,,0,FALSE,,,,,,,,,,,,,,,,,,,,,,,,,,,,,,
,5e7d2988ad9157106e1811c7,001,2022-04-28_20h09.13.737,classification_task,2021.2.3,Win32,59.87665409,5e7d2988ad9157106e1811c7,626b377229c10585ec392f8a,626b3a93a643ca4dfe1f41f9,,,,,,,,,,,,,,,,,,,,,,,l,0,1.3008,"[""0.182"",""0.654"",""0.612"",""0.868""]","[1,0,1,1]",0,58,58,58,1,0,0,,,0,FALSE,,,,,,,,,,,,,,,,,,,,,,,,,,,,,,
,5e7d2988ad9157106e1811c7,001,2022-04-28_20h09.13.737,classification_task,2021.2.3,Win32,59.87665409,5e7d2988ad9157106e1811c7,626b377229c10585ec392f8a,626b3a93a643ca4dfe1f41f9,,,,,,,,,,,,,,,,,,,,,,,l,1,1.0823,"[""0.138"",""0.266"",""0.309"",""0.763""]","[1,1,0,1]",0,59,59,59,1,1,0,,,0,FALSE,,,,,,,,,,,,,,,,,,,,,,,,,,,,,,
,5e7d2988ad9157106e1811c7,001,2022-04-28_20h09.13.737,classification_task,2021.2.3,Win32,59.87665409,5e7d2988ad9157106e1811c7,626b377229c10585ec392f8a,626b3a93a643ca4dfe1f41f9,,,,,,,,,,,,,,,,,,,,,,,l,1,0.6642,"[""0.138"",""0.266"",""0.561"",""0.654""]","[1,1,1,0]",0,60,60,60,1,1,0,,,0,FALSE,,,,,,,,,,,,,,,,,,,,,,,,,,,,,,
,5e7d2988ad9157106e1811c7,001,2022-04-28_20h09.13.737,classification_task,2021.2.3,Win32,59.87665409,5e7d2988ad9157106e1811c7,626b377229c10585ec392f8a,626b3a93a643ca4dfe1f41f9,,,,,,,,,,,,,,,,,,,,,,,a,0,0.9649,"[""0.138"",""0.659"",""0.561"",""0.763""]","[1,0,1,1]",0,61,61,61,1,1,0,,,0,FALSE,,,,,,,,,,,,,,,,,,,,,,,,,,,,,,
,5e7d2988ad9157106e1811c7,001,2022-04-28_20h09.13.737,classification_task,2021.2.3,Win32,59.87665409,5e7d2988ad9157106e1811c7,626b377229c10585ec392f8a,626b3a93a643ca4dfe1f41f9,,,,,,,,,,,,,,,,,,,,,,,a,1,0.4965,"[""0.654"",""0.487"",""0.612"",""0.868""]","[0,1,1,1]",0,62,62,62,1,0,0,,,0,FALSE,,,,,,,,,,,,,,,,,,,,,,,,,,,,,,
,5e7d2988ad9157106e1811c7,001,2022-04-28_20h09.13.737,classification_task,2021.2.3,Win32,59.87665409,5e7d2988ad9157106e1811c7,626b377229c10585ec392f8a,626b3a93a643ca4dfe1f41f9,,,,,,,,,,,,,,,,,,,,,,,l,1,0.2663,"[""0.659"",""0.266"",""0.561"",""0.763""]","[0,1,1,1]",0,63,63,63,1,1,0,,,0,FALSE,,,,,,,,,,,,,,,,,,,,,,,,,,,,,,
,5e7d2988ad9157106e1811c7,001,2022-04-28_20h09.13.737,classification_task,2021.2.3,Win32,59.87665409,5e7d2988ad9157106e1811c7,626b377229c10585ec392f8a,626b3a93a643ca4dfe1f41f9,,,,,,,,,,,,,,,,,,,,,,,,,,,,,,,,,,,,,,,0, ,,0,0,142.2759,0,2,2,2,1,2,3,,,,,,,,,,,,,,,,,
,5e7d2988ad9157106e1811c7,001,2022-04-28_20h09.13.737,classification_task,2021.2.3,Win32,59.87665409,5e7d2988ad9157106e1811c7,626b377229c10585ec392f8a,626b3a93a643ca4dfe1f41f9,,,,,,,,,,,,,,,,,,,,,,,,,,,,,,,,,,,,,,,1,  ,,0,10,141.2749,0,2,2,2,1,2,3,,,,,,,,,,,,,,,,,
,5e7d2988ad9157106e1811c7,001,2022-04-28_20h09.13.737,classification_task,2021.2.3,Win32,59.87665409,5e7d2988ad9157106e1811c7,626b377229c10585ec392f8a,626b3a93a643ca4dfe1f41f9,,,,,,,,,,,,,,,,,,,,,,,,,,,,,,,,,,,,,,,2,  ,,0,10,139.8406,0,2,2,2,1,2,3,,,,,,,,,,,,,,,,,
,5e7d2988ad9157106e1811c7,001,2022-04-28_20h09.13.737,classification_task,2021.2.3,Win32,59.87665409,5e7d2988ad9157106e1811c7,626b377229c10585ec392f8a,626b3a93a643ca4dfe1f41f9,,,,,,,,,,,,,,,,,,,,,,,,,,,,,,,,,,,,,,,,,,,,,0,2,2,2,1,,3,,,,,,,,,,,,,,,,,
,5e7d2988ad9157106e1811c7,001,2022-04-28_20h09.13.737,classification_task,2021.2.3,Win32,59.87665409,5e7d2988ad9157106e1811c7,626b377229c10585ec392f8a,626b3a93a643ca4dfe1f41f9,,,,,,,,,,,,,,,,,,,,,,,,,,,,,,,,,,,,,,,,,,,,,,,,,,,,,I believe the aid is a competent performer,,0.7,0,4,3522.016,0,0,0,0,1,0,,,,
,5e7d2988ad9157106e1811c7,001,2022-04-28_20h09.13.737,classification_task,2021.2.3,Win32,59.87665409,5e7d2988ad9157106e1811c7,626b377229c10585ec392f8a,626b3a93a643ca4dfe1f41f9,,,,,,,,,,,,,,,,,,,,,,,,,,,,,,,,,,,,,,,,,,,,,,,,,,,,,I trust the aid,,0.7,0,4,3523.2537,0,0,0,0,1,0,,,,
,5e7d2988ad9157106e1811c7,001,2022-04-28_20h09.13.737,classification_task,2021.2.3,Win32,59.87665409,5e7d2988ad9157106e1811c7,626b377229c10585ec392f8a,626b3a93a643ca4dfe1f41f9,,,,,,,,,,,,,,,,,,,,,,,,,,,,,,,,,,,,,,,,,,,,,,,,,,,,,I have confidence in the advice given by the aid,,0.7,0,4,3524.8823,0,0,0,0,1,0,,,,
,5e7d2988ad9157106e1811c7,001,2022-04-28_20h09.13.737,classification_task,2021.2.3,Win32,59.87665409,5e7d2988ad9157106e1811c7,626b377229c10585ec392f8a,626b3a93a643ca4dfe1f41f9,,,,,,,,,,,,,,,,,,,,,,,,,,,,,,,,,,,,,,,,,,,,,,,,,,,,,I can depend on the aid,,0.7,0,4,3528.067,0,0,0,0,1,0,,,,
,5e7d2988ad9157106e1811c7,001,2022-04-28_20h09.13.737,classification_task,2021.2.3,Win32,59.87665409,5e7d2988ad9157106e1811c7,626b377229c10585ec392f8a,626b3a93a643ca4dfe1f41f9,,,,,,,,,,,,,,,,,,,,,,,,,,,,,,,,,,,,,,,,,,,,,,,,,,,,,I can rely on the aid to behave in consistent ways,,0.7,0,4,3527.4968,0,0,0,0,1,0,,,,
,5e7d2988ad9157106e1811c7,001,2022-04-28_20h09.13.737,classification_task,2021.2.3,Win32,59.87665409,5e7d2988ad9157106e1811c7,626b377229c10585ec392f8a,626b3a93a643ca4dfe1f41f9,,,,,,,,,,,,,,,,,,,,,,,,,,,,,,,,,,,,,,,,,,,,,,,,,,,,,I can rely on the aid to do its best every time I take its advice,,0.7,0,4,3529.3174,0,0,0,0,1,0,,,,
,5e7d2988ad9157106e1811c7,001,2022-04-28_20h09.13.737,classification_task,2021.2.3,Win32,59.87665409,5e7d2988ad9157106e1811c7,626b377229c10585ec392f8a,626b3a93a643ca4dfe1f41f9,,,,,,,,,,,,,,,,,,,,,,,,,,,,,,,,,,,,,,,,,,,,,,,,,,,,,"On trials you completed with assistance from the aid, how frequently did you think the aid was correct?",,0.7,0,80%,,0,0,0,0,1,0,,,,
,5e7d2988ad9157106e1811c7,001,2022-04-28_20h09.13.737,classification_task,2021.2.3,Win32,59.87665409,5e7d2988ad9157106e1811c7,626b377229c10585ec392f8a,626b3a93a643ca4dfe1f41f9,,,,,,,,,,,,,,,,,,,,,,,,,,,,,,,,,,,,,,,,,,,,,,,,,,,,,"On trials you completed without the aid, how frequently did you think you were correct?",,0.7,0,0%,,0,0,0,0,1,0,,,,
,5e7d2988ad9157106e1811c7,001,2022-04-28_20h09.13.737,classification_task,2021.2.3,Win32,59.87665409,5e7d2988ad9157106e1811c7,626b377229c10585ec392f8a,626b3a93a643ca4dfe1f41f9,,,,,,,,,,,,,,,,,,,,,,,,,,,,,,,,,,,,,,,,,,,,,,,,,,,,,,,,,,,0,0,0,0,1,,,,,
,5e7d2988ad9157106e1811c7,001,2022-04-28_20h09.13.737,classification_task,2021.2.3,Win32,59.87665409,5e7d2988ad9157106e1811c7,626b377229c10585ec392f8a,626b3a93a643ca4dfe1f41f9,,,,,,,,,,,,,,,,,,,,,,,,,,,,,,,,,,,,,,,,,,,,,,,,,,,,,,,,,,,,,,,,,space,9.0905,3554.274,
,5e7d2988ad9157106e1811c7,001,2022-04-28_20h09.13.737,classification_task,2021.2.3,Win32,59.87665409,5e7d2988ad9157106e1811c7,626b377229c10585ec392f8a,626b3a93a643ca4dfe1f41f9,,,,,,,,,,,,,,,,,,,,,,,,,,,,,,,,,,,,,,,,,,,,,,,,,,,,,,,,,,,,,,,,,,,,"Mozilla/5.0 (Windows NT 10.0; Win64; x64) AppleWebKit/537.36 (KHTML, like Gecko) Chrome/99.0.4844.84 Safari/537.36 OPR/85.0.4341.75"
