usingWebGL,participant,session,date,expName,psychopyVersion,OS,frameRate,PROLIFIC_PID,STUDY_ID,SESSION_ID,signatures_friend,signatures_foe,band_ranges_top,band_ranges_bottom,formitemText,formtype,formundefined,formitemWidth,formindex,formresponse,formrt,key_resp_2.keys,key_resp_2.rt,tute_resp.keys,tute_resp.rt,tutorial.thisRepN,tutorial.thisTrialN,tutorial.thisN,tutorial.thisIndex,tutorial.ran,key_resp_4.keys,key_resp_4.rt,key_resp.keys,key_resp.corr,lines_presented,is_signal_presented,trials.thisRepN,trials.thisTrialN,trials.thisN,trials.thisIndex,trials.ran,vessel,active_band,lines,is_signal,supported_pos,catch_trial,key_resp.rt,debrief_formindex,debrief_formitemText,debrief_formtype,debrief_formitemWidth,debrief_formresponse,debrief_formrt,phases.thisRepN,phases.thisTrialN,phases.thisN,phases.thisIndex,phases.ran,phases.order,phase,key_resp_3.keys,trustitemText,trusttype,trustitemWidth,trustindex,trustresponse,trustrt,support_status.thisRepN,support_status.thisTrialN,support_status.thisN,support_status.thisIndex,support_status.ran,support_status.order,key_resp_5.keys,key_resp_5.rt,globalClockTime,userAgent
TRUE,5e7d45108c94553d66207f51,001,2022-04-29_03h08.39.654,classification_task,2021.2.3,Win32,60.09254252,5e7d45108c94553d66207f51,626b377229c10585ec392f89,626b3a8d3faadc900a728b6a,,,,,,,,,,,,,,,,,,,,,,,,,,,,,,,,,,,,,,,,,,,,,,,,,,,,,,,,,,,,,,,,,,,,
,5e7d45108c94553d66207f51,001,2022-04-29_03h08.39.654,classification_task,2021.2.3,Win32,60.09254252,5e7d45108c94553d66207f51,626b377229c10585ec392f89,626b3a8d3faadc900a728b6a,"[[""0.243"",""0.492"",""0.858"",""0.966""],[""0.188"",""0.426"",""0.893"",""0.929""]]","[[""0.152"",""0.354"",""0.603"",""0.744""],[""0.098"",""0.292"",""0.671"",""0.704""]]","[1,10]","[100,1000]",Video game experience,,,0.7,0,,,,,,,,,,,,,,,,,,,,,,,,,,,,,,,,,,,,,,,,,,,,,,,,,,,,,,,,,,,
,5e7d45108c94553d66207f51,001,2022-04-29_03h08.39.654,classification_task,2021.2.3,Win32,60.09254252,5e7d45108c94553d66207f51,626b377229c10585ec392f89,626b3a8d3faadc900a728b6a,,,,,Approximately how many hours did you spend playing video games in the last week?,,,0.7,0,25,,,,,,,,,,,,,,,,,,,,,,,,,,,,,,,,,,,,,,,,,,,,,,,,,,,,,,,,,,
,5e7d45108c94553d66207f51,001,2022-04-29_03h08.39.654,classification_task,2021.2.3,Win32,60.09254252,5e7d45108c94553d66207f51,626b377229c10585ec392f89,626b3a8d3faadc900a728b6a,,,,,"Which game did you play the most this year? (Enter ""None"" if you didn't play any)",,,0.7,0,league of legends,,,,,,,,,,,,,,,,,,,,,,,,,,,,,,,,,,,,,,,,,,,,,,,,,,,,,,,,,,
,5e7d45108c94553d66207f51,001,2022-04-29_03h08.39.654,classification_task,2021.2.3,Win32,60.09254252,5e7d45108c94553d66207f51,626b377229c10585ec392f89,626b3a8d3faadc900a728b6a,,,,,Visual perception,,,0.7,0,,,,,,,,,,,,,,,,,,,,,,,,,,,,,,,,,,,,,,,,,,,,,,,,,,,,,,,,,,,
,5e7d45108c94553d66207f51,001,2022-04-29_03h08.39.654,classification_task,2021.2.3,Win32,60.09254252,5e7d45108c94553d66207f51,626b377229c10585ec392f89,626b3a8d3faadc900a728b6a,,,,,Do you have any form of color blindness?,,,0.7,0,No,5.7445,,,,,,,,,,,,,,,,,,,,,,,,,,,,,,,,,,,,,,,,,,,,,,,,,,,,,,,,,
,5e7d45108c94553d66207f51,001,2022-04-29_03h08.39.654,classification_task,2021.2.3,Win32,60.09254252,5e7d45108c94553d66207f51,626b377229c10585ec392f89,626b3a8d3faadc900a728b6a,,,,,Do you use software to change the colour temperature of your screen (e.g. f.lux)?,,,0.7,0,Yes,23.736,,,,,,,,,,,,,,,,,,,,,,,,,,,,,,,,,,,,,,,,,,,,,,,,,,,,,,,,,
,5e7d45108c94553d66207f51,001,2022-04-29_03h08.39.654,classification_task,2021.2.3,Win32,60.09254252,5e7d45108c94553d66207f51,626b377229c10585ec392f89,626b3a8d3faadc900a728b6a,,,,,,,,,,,,space,6.4704,space,283.8857,0,0,0,0,1,,,,,,,,,,,,,,,,,,,,,,,,,,,,,,,,,,,,,,,,,,,,,,,,
,5e7d45108c94553d66207f51,001,2022-04-29_03h08.39.654,classification_task,2021.2.3,Win32,60.09254252,5e7d45108c94553d66207f51,626b377229c10585ec392f89,626b3a8d3faadc900a728b6a,,,,,,,,,,,,,,space,3.3307,1,0,1,0,1,,,,,,,,,,,,,,,,,,,,,,,,,,,,,,,,,,,,,,,,,,,,,,,,
,5e7d45108c94553d66207f51,001,2022-04-29_03h08.39.654,classification_task,2021.2.3,Win32,60.09254252,5e7d45108c94553d66207f51,626b377229c10585ec392f89,626b3a8d3faadc900a728b6a,,,,,,,,,,,,,,space,4.1375,2,0,2,0,1,,,,,,,,,,,,,,,,,,,,,,,,,,,,,,,,,,,,,,,,,,,,,,,,
,5e7d45108c94553d66207f51,001,2022-04-29_03h08.39.654,classification_task,2021.2.3,Win32,60.09254252,5e7d45108c94553d66207f51,626b377229c10585ec392f89,626b3a8d3faadc900a728b6a,,,,,,,,,,,,,,space,3.9185,3,0,3,0,1,,,,,,,,,,,,,,,,,,,,,,,,,,,,,,,,,,,,,,,,,,,,,,,,
,5e7d45108c94553d66207f51,001,2022-04-29_03h08.39.654,classification_task,2021.2.3,Win32,60.09254252,5e7d45108c94553d66207f51,626b377229c10585ec392f89,626b3a8d3faadc900a728b6a,,,,,,,,,,,,,,space,2.1459,4,0,4,0,1,,,,,,,,,,,,,,,,,,,,,,,,,,,,,,,,,,,,,,,,,,,,,,,,
,5e7d45108c94553d66207f51,001,2022-04-29_03h08.39.654,classification_task,2021.2.3,Win32,60.09254252,5e7d45108c94553d66207f51,626b377229c10585ec392f89,626b3a8d3faadc900a728b6a,,,,,,,,,,,,,,,,,,,,,space,4.4342,,0,"[""0.818"",""0.492"",""0.858"",""0.966""]","[0,1,1,1]",0,0,0,0,1,0,0,,,0,FALSE,,,,,,,,,,,,,,,,,,,,,,,,,,,,,,,
,5e7d45108c94553d66207f51,001,2022-04-29_03h08.39.654,classification_task,2021.2.3,Win32,60.09254252,5e7d45108c94553d66207f51,626b377229c10585ec392f89,626b3a8d3faadc900a728b6a,,,,,,,,,,,,,,,,,,,,,,,a,0,"[""0.152"",""0.391"",""0.603"",""0.744""]","[1,0,1,1]",0,1,1,1,1,1,0,,,0,FALSE,0.4271,,,,,,,,,,,,,,,,,,,,,,,,,,,,,,
,5e7d45108c94553d66207f51,001,2022-04-29_03h08.39.654,classification_task,2021.2.3,Win32,60.09254252,5e7d45108c94553d66207f51,626b377229c10585ec392f89,626b3a8d3faadc900a728b6a,,,,,,,,,,,,,,,,,,,,,,,,0,"[""0.243"",""0.492"",""0.858"",""0.051""]","[1,1,1,0]",0,2,2,2,1,0,0,,,0,FALSE,,,,,,,,,,,,,,,,,,,,,,,,,,,,,,,
,5e7d45108c94553d66207f51,001,2022-04-29_03h08.39.654,classification_task,2021.2.3,Win32,60.09254252,5e7d45108c94553d66207f51,626b377229c10585ec392f89,626b3a8d3faadc900a728b6a,,,,,,,,,,,,,,,,,,,,,,,l,1,"[""0.029"",""0.292"",""0.671"",""0.704""]","[0,1,1,1]",0,3,3,3,1,1,1,,,0,FALSE,3.1404,,,,,,,,,,,,,,,,,,,,,,,,,,,,,,
,5e7d45108c94553d66207f51,001,2022-04-29_03h08.39.654,classification_task,2021.2.3,Win32,60.09254252,5e7d45108c94553d66207f51,626b377229c10585ec392f89,626b3a8d3faadc900a728b6a,,,,,,,,,,,,,,,,,,,,,,,a,1,"[""0.243"",""0.492"",""0.043"",""0.966""]","[1,1,0,1]",0,4,4,4,1,0,0,,,0,FALSE,1.391,,,,,,,,,,,,,,,,,,,,,,,,,,,,,,
,5e7d45108c94553d66207f51,001,2022-04-29_03h08.39.654,classification_task,2021.2.3,Win32,60.09254252,5e7d45108c94553d66207f51,626b377229c10585ec392f89,626b3a8d3faadc900a728b6a,,,,,,,,,,,,,,,,,,,,,,,l,0,"[""0.188"",""0.563"",""0.893"",""0.929""]","[1,0,1,1]",0,5,5,5,1,0,1,,,0,FALSE,3.1409,,,,,,,,,,,,,,,,,,,,,,,,,,,,,,
,5e7d45108c94553d66207f51,001,2022-04-29_03h08.39.654,classification_task,2021.2.3,Win32,60.09254252,5e7d45108c94553d66207f51,626b377229c10585ec392f89,626b3a8d3faadc900a728b6a,,,,,,,,,,,,,,,,,,,,,,,a,1,"[""0.243"",""0.557"",""0.858"",""0.966""]","[1,0,1,1]",0,6,6,6,1,0,0,,,0,FALSE,3.0723,,,,,,,,,,,,,,,,,,,,,,,,,,,,,,
,5e7d45108c94553d66207f51,001,2022-04-29_03h08.39.654,classification_task,2021.2.3,Win32,60.09254252,5e7d45108c94553d66207f51,626b377229c10585ec392f89,626b3a8d3faadc900a728b6a,,,,,,,,,,,,,,,,,,,,,,,l,1,"[""0.152"",""0.354"",""0.603"",""0.043""]","[1,1,1,0]",0,7,7,7,1,1,0,,,0,FALSE,2.7503,,,,,,,,,,,,,,,,,,,,,,,,,,,,,,
,5e7d45108c94553d66207f51,001,2022-04-29_03h08.39.654,classification_task,2021.2.3,Win32,60.09254252,5e7d45108c94553d66207f51,626b377229c10585ec392f89,626b3a8d3faadc900a728b6a,,,,,,,,,,,,,,,,,,,,,,,a,1,"[""0.045"",""0.426"",""0.893"",""0.929""]","[0,1,1,1]",0,8,8,8,1,0,1,,,0,FALSE,5.0753,,,,,,,,,,,,,,,,,,,,,,,,,,,,,,
,5e7d45108c94553d66207f51,001,2022-04-29_03h08.39.654,classification_task,2021.2.3,Win32,60.09254252,5e7d45108c94553d66207f51,626b377229c10585ec392f89,626b3a8d3faadc900a728b6a,,,,,,,,,,,,,,,,,,,,,,,a,1,"[""0.188"",""0.426"",""0.538"",""0.929""]","[1,1,0,1]",0,9,9,9,1,0,1,,,0,FALSE,3.1088,,,,,,,,,,,,,,,,,,,,,,,,,,,,,,
,5e7d45108c94553d66207f51,001,2022-04-29_03h08.39.654,classification_task,2021.2.3,Win32,60.09254252,5e7d45108c94553d66207f51,626b377229c10585ec392f89,626b3a8d3faadc900a728b6a,,,,,,,,,,,,,,,,,,,,,,,l,1,"[""0.538"",""0.354"",""0.603"",""0.744""]","[0,1,1,1]",0,10,10,10,1,1,0,,,0,FALSE,5.3794,,,,,,,,,,,,,,,,,,,,,,,,,,,,,,
,5e7d45108c94553d66207f51,001,2022-04-29_03h08.39.654,classification_task,2021.2.3,Win32,60.09254252,5e7d45108c94553d66207f51,626b377229c10585ec392f89,626b3a8d3faadc900a728b6a,,,,,,,,,,,,,,,,,,,,,,,l,1,"[""0.098"",""0.781"",""0.671"",""0.704""]","[1,0,1,1]",0,11,11,11,1,1,1,,,0,FALSE,2.9072,,,,,,,,,,,,,,,,,,,,,,,,,,,,,,
,5e7d45108c94553d66207f51,001,2022-04-29_03h08.39.654,classification_task,2021.2.3,Win32,60.09254252,5e7d45108c94553d66207f51,626b377229c10585ec392f89,626b3a8d3faadc900a728b6a,,,,,,,,,,,,,,,,,,,,,,,l,1,"[""0.098"",""0.292"",""0.562"",""0.704""]","[1,1,0,1]",0,12,12,12,1,1,1,,,0,FALSE,0.9599,,,,,,,,,,,,,,,,,,,,,,,,,,,,,,
,5e7d45108c94553d66207f51,001,2022-04-29_03h08.39.654,classification_task,2021.2.3,Win32,60.09254252,5e7d45108c94553d66207f51,626b377229c10585ec392f89,626b3a8d3faadc900a728b6a,,,,,,,,,,,,,,,,,,,,,,,a,1,"[""0.188"",""0.426"",""0.893"",""0.045""]","[1,1,1,0]",0,13,13,13,1,0,1,,,0,FALSE,2.2398,,,,,,,,,,,,,,,,,,,,,,,,,,,,,,
,5e7d45108c94553d66207f51,001,2022-04-29_03h08.39.654,classification_task,2021.2.3,Win32,60.09254252,5e7d45108c94553d66207f51,626b377229c10585ec392f89,626b3a8d3faadc900a728b6a,,,,,,,,,,,,,,,,,,,,,,,a,0,"[""0.152"",""0.354"",""0.057"",""0.744""]","[1,1,0,1]",0,14,14,14,1,1,0,,,0,FALSE,2.8751,,,,,,,,,,,,,,,,,,,,,,,,,,,,,,
,5e7d45108c94553d66207f51,001,2022-04-29_03h08.39.654,classification_task,2021.2.3,Win32,60.09254252,5e7d45108c94553d66207f51,626b377229c10585ec392f89,626b3a8d3faadc900a728b6a,,,,,,,,,,,,,,,,,,,,,,,a,0,"[""0.098"",""0.292"",""0.671"",""0.811""]","[1,1,1,0]",0,15,15,15,1,1,1,,,0,FALSE,8.6784,,,,,,,,,,,,,,,,,,,,,,,,,,,,,,
,5e7d45108c94553d66207f51,001,2022-04-29_03h08.39.654,classification_task,2021.2.3,Win32,60.09254252,5e7d45108c94553d66207f51,626b377229c10585ec392f89,626b3a8d3faadc900a728b6a,,,,,,,,,,,,,,,,,,,,,,,a,1,"[""0.243"",""0.492"",""0.858"",""0.045""]","[1,1,1,0]",0,16,16,16,1,0,0,,,0,FALSE,7.8664,,,,,,,,,,,,,,,,,,,,,,,,,,,,,,
,5e7d45108c94553d66207f51,001,2022-04-29_03h08.39.654,classification_task,2021.2.3,Win32,60.09254252,5e7d45108c94553d66207f51,626b377229c10585ec392f89,626b3a8d3faadc900a728b6a,,,,,,,,,,,,,,,,,,,,,,,a,1,"[""0.188"",""0.426"",""0.893"",""0.538""]","[1,1,1,0]",0,17,17,17,1,0,1,,,0,FALSE,3.7989,,,,,,,,,,,,,,,,,,,,,,,,,,,,,,
,5e7d45108c94553d66207f51,001,2022-04-29_03h08.39.654,classification_task,2021.2.3,Win32,60.09254252,5e7d45108c94553d66207f51,626b377229c10585ec392f89,626b3a8d3faadc900a728b6a,,,,,,,,,,,,,,,,,,,,,,,l,1,"[""0.152"",""0.354"",""0.603"",""0.057""]","[1,1,1,0]",0,18,18,18,1,1,0,,,0,FALSE,3.3985,,,,,,,,,,,,,,,,,,,,,,,,,,,,,,
,5e7d45108c94553d66207f51,001,2022-04-29_03h08.39.654,classification_task,2021.2.3,Win32,60.09254252,5e7d45108c94553d66207f51,626b377229c10585ec392f89,626b3a8d3faadc900a728b6a,,,,,,,,,,,,,,,,,,,,,,,l,1,"[""0.098"",""0.292"",""0.566"",""0.704""]","[1,1,0,1]",0,19,19,19,1,1,1,,,0,FALSE,3.0403,,,,,,,,,,,,,,,,,,,,,,,,,,,,,,
,5e7d45108c94553d66207f51,001,2022-04-29_03h08.39.654,classification_task,2021.2.3,Win32,60.09254252,5e7d45108c94553d66207f51,626b377229c10585ec392f89,626b3a8d3faadc900a728b6a,,,,,,,,,,,,,,,,,,,,,,,l,1,"[""0.098"",""0.563"",""0.671"",""0.704""]","[1,0,1,1]",0,20,20,20,1,1,1,,,0,FALSE,2.3091,,,,,,,,,,,,,,,,,,,,,,,,,,,,,,
,5e7d45108c94553d66207f51,001,2022-04-29_03h08.39.654,classification_task,2021.2.3,Win32,60.09254252,5e7d45108c94553d66207f51,626b377229c10585ec392f89,626b3a8d3faadc900a728b6a,,,,,,,,,,,,,,,,,,,,,,,a,1,"[""0.812"",""0.426"",""0.893"",""0.929""]","[0,1,1,1]",0,21,21,21,1,0,1,,,0,FALSE,2.3355,,,,,,,,,,,,,,,,,,,,,,,,,,,,,,
,5e7d45108c94553d66207f51,001,2022-04-29_03h08.39.654,classification_task,2021.2.3,Win32,60.09254252,5e7d45108c94553d66207f51,626b377229c10585ec392f89,626b3a8d3faadc900a728b6a,,,,,,,,,,,,,,,,,,,,,,,a,1,"[""0.566"",""0.492"",""0.858"",""0.966""]","[0,1,1,1]",0,22,22,22,1,0,0,,,0,FALSE,1.8632,,,,,,,,,,,,,,,,,,,,,,,,,,,,,,
,5e7d45108c94553d66207f51,001,2022-04-29_03h08.39.654,classification_task,2021.2.3,Win32,60.09254252,5e7d45108c94553d66207f51,626b377229c10585ec392f89,626b3a8d3faadc900a728b6a,,,,,,,,,,,,,,,,,,,,,,,a,0,"[""0.098"",""0.292"",""0.671"",""0.818""]","[1,1,1,0]",0,23,23,23,1,1,1,,,0,FALSE,1.4361,,,,,,,,,,,,,,,,,,,,,,,,,,,,,,
,5e7d45108c94553d66207f51,001,2022-04-29_03h08.39.654,classification_task,2021.2.3,Win32,60.09254252,5e7d45108c94553d66207f51,626b377229c10585ec392f89,626b3a8d3faadc900a728b6a,,,,,,,,,,,,,,,,,,,,,,,a,1,"[""0.188"",""0.043"",""0.893"",""0.929""]","[1,0,1,1]",0,24,24,24,1,0,1,,,0,FALSE,1.5499,,,,,,,,,,,,,,,,,,,,,,,,,,,,,,
,5e7d45108c94553d66207f51,001,2022-04-29_03h08.39.654,classification_task,2021.2.3,Win32,60.09254252,5e7d45108c94553d66207f51,626b377229c10585ec392f89,626b3a8d3faadc900a728b6a,,,,,,,,,,,,,,,,,,,,,,,l,1,"[""0.152"",""0.562"",""0.603"",""0.744""]","[1,0,1,1]",0,25,25,25,1,1,0,,,0,FALSE,2.49,,,,,,,,,,,,,,,,,,,,,,,,,,,,,,
,5e7d45108c94553d66207f51,001,2022-04-29_03h08.39.654,classification_task,2021.2.3,Win32,60.09254252,5e7d45108c94553d66207f51,626b377229c10585ec392f89,626b3a8d3faadc900a728b6a,,,,,,,,,,,,,,,,,,,,,,,a,1,"[""0.188"",""0.426"",""0.566"",""0.929""]","[1,1,0,1]",0,26,26,26,1,0,1,,,0,FALSE,1.8788,,,,,,,,,,,,,,,,,,,,,,,,,,,,,,
,5e7d45108c94553d66207f51,001,2022-04-29_03h08.39.654,classification_task,2021.2.3,Win32,60.09254252,5e7d45108c94553d66207f51,626b377229c10585ec392f89,626b3a8d3faadc900a728b6a,,,,,,,,,,,,,,,,,,,,,,,l,1,"[""0.152"",""0.354"",""0.812"",""0.744""]","[1,1,0,1]",0,27,27,27,1,1,0,,,0,FALSE,2.5936,,,,,,,,,,,,,,,,,,,,,,,,,,,,,,
,5e7d45108c94553d66207f51,001,2022-04-29_03h08.39.654,classification_task,2021.2.3,Win32,60.09254252,5e7d45108c94553d66207f51,626b377229c10585ec392f89,626b3a8d3faadc900a728b6a,,,,,,,,,,,,,,,,,,,,,,,a,1,"[""0.243"",""0.492"",""0.391"",""0.966""]","[1,1,0,1]",0,28,28,28,1,0,0,,,0,FALSE,1.4032,,,,,,,,,,,,,,,,,,,,,,,,,,,,,,
,5e7d45108c94553d66207f51,001,2022-04-29_03h08.39.654,classification_task,2021.2.3,Win32,60.09254252,5e7d45108c94553d66207f51,626b377229c10585ec392f89,626b3a8d3faadc900a728b6a,,,,,,,,,,,,,,,,,,,,,,,l,1,"[""0.812"",""0.354"",""0.603"",""0.744""]","[0,1,1,1]",0,29,29,29,1,1,0,,,0,FALSE,2.4928,,,,,,,,,,,,,,,,,,,,,,,,,,,,,,
,5e7d45108c94553d66207f51,001,2022-04-29_03h08.39.654,classification_task,2021.2.3,Win32,60.09254252,5e7d45108c94553d66207f51,626b377229c10585ec392f89,626b3a8d3faadc900a728b6a,,,,,,,,,,,,,,,,,,,,,,,l,1,"[""0.563"",""0.292"",""0.671"",""0.704""]","[0,1,1,1]",0,30,30,30,1,1,1,,,0,FALSE,1.7547,,,,,,,,,,,,,,,,,,,,,,,,,,,,,,
,5e7d45108c94553d66207f51,001,2022-04-29_03h08.39.654,classification_task,2021.2.3,Win32,60.09254252,5e7d45108c94553d66207f51,626b377229c10585ec392f89,626b3a8d3faadc900a728b6a,,,,,,,,,,,,,,,,,,,,,,,a,1,"[""0.243"",""0.781"",""0.858"",""0.966""]","[1,0,1,1]",0,31,31,31,1,0,0,,,0,FALSE,1.5335,,,,,,,,,,,,,,,,,,,,,,,,,,,,,,
,5e7d45108c94553d66207f51,001,2022-04-29_03h08.39.654,classification_task,2021.2.3,Win32,60.09254252,5e7d45108c94553d66207f51,626b377229c10585ec392f89,626b3a8d3faadc900a728b6a,,,,,,,,,,,,,,,,,,,,,,,,0,"[""0.152"",""0.354"",""0.818"",""0.744""]","[1,1,0,1]",0,32,32,32,1,1,0,,,0,FALSE,,,,,,,,,,,,,,,,,,,,,,,,,,,,,,,
,5e7d45108c94553d66207f51,001,2022-04-29_03h08.39.654,classification_task,2021.2.3,Win32,60.09254252,5e7d45108c94553d66207f51,626b377229c10585ec392f89,626b3a8d3faadc900a728b6a,,,,,,,,,,,,,,,,,,,,,,,a,1,"[""0.243"",""0.811"",""0.858"",""0.966""]","[1,0,1,1]",0,33,33,33,1,0,0,,,0,FALSE,2.8587,,,,,,,,,,,,,,,,,,,,,,,,,,,,,,
,5e7d45108c94553d66207f51,001,2022-04-29_03h08.39.654,classification_task,2021.2.3,Win32,60.09254252,5e7d45108c94553d66207f51,626b377229c10585ec392f89,626b3a8d3faadc900a728b6a,,,,,,,,,,,,,,,,,,,,,,,a,1,"[""0.188"",""0.426"",""0.781"",""0.929""]","[1,1,0,1]",0,34,34,34,1,0,1,,,0,FALSE,1.3887,,,,,,,,,,,,,,,,,,,,,,,,,,,,,,
,5e7d45108c94553d66207f51,001,2022-04-29_03h08.39.654,classification_task,2021.2.3,Win32,60.09254252,5e7d45108c94553d66207f51,626b377229c10585ec392f89,626b3a8d3faadc900a728b6a,,,,,,,,,,,,,,,,,,,,,,,l,1,"[""0.098"",""0.292"",""0.671"",""0.391""]","[1,1,1,0]",0,35,35,35,1,1,1,,,0,FALSE,0.9086,,,,,,,,,,,,,,,,,,,,,,,,,,,,,,
,5e7d45108c94553d66207f51,001,2022-04-29_03h08.39.654,classification_task,2021.2.3,Win32,60.09254252,5e7d45108c94553d66207f51,626b377229c10585ec392f89,626b3a8d3faadc900a728b6a,,,,,,,,,,,,,,,,,,,,,,,l,1,"[""0.051"",""0.292"",""0.671"",""0.704""]","[0,1,1,1]",0,36,36,36,1,1,1,,,0,FALSE,1.4173,,,,,,,,,,,,,,,,,,,,,,,,,,,,,,
,5e7d45108c94553d66207f51,001,2022-04-29_03h08.39.654,classification_task,2021.2.3,Win32,60.09254252,5e7d45108c94553d66207f51,626b377229c10585ec392f89,626b3a8d3faadc900a728b6a,,,,,,,,,,,,,,,,,,,,,,,a,0,"[""0.057"",""0.354"",""0.603"",""0.744""]","[0,1,1,1]",0,37,37,37,1,1,0,,,0,FALSE,1.5096,,,,,,,,,,,,,,,,,,,,,,,,,,,,,,
,5e7d45108c94553d66207f51,001,2022-04-29_03h08.39.654,classification_task,2021.2.3,Win32,60.09254252,5e7d45108c94553d66207f51,626b377229c10585ec392f89,626b3a8d3faadc900a728b6a,,,,,,,,,,,,,,,,,,,,,,,a,1,"[""0.243"",""0.492"",""0.858"",""0.045""]","[1,1,1,0]",0,38,38,38,1,0,0,,,0,FALSE,0.8414,,,,,,,,,,,,,,,,,,,,,,,,,,,,,,
,5e7d45108c94553d66207f51,001,2022-04-29_03h08.39.654,classification_task,2021.2.3,Win32,60.09254252,5e7d45108c94553d66207f51,626b377229c10585ec392f89,626b3a8d3faadc900a728b6a,,,,,,,,,,,,,,,,,,,,,,,l,1,"[""0.152"",""0.043"",""0.603"",""0.744""]","[1,0,1,1]",0,39,39,39,1,1,0,,,0,FALSE,0.8218,,,,,,,,,,,,,,,,,,,,,,,,,,,,,,
,5e7d45108c94553d66207f51,001,2022-04-29_03h08.39.654,classification_task,2021.2.3,Win32,60.09254252,5e7d45108c94553d66207f51,626b377229c10585ec392f89,626b3a8d3faadc900a728b6a,,,,,,,,,,,,,,,,,,,,,,,a,1,"[""0.188"",""0.781"",""0.893"",""0.929""]","[1,0,1,1]",0,40,40,40,1,0,1,,,0,FALSE,0.9254,,,,,,,,,,,,,,,,,,,,,,,,,,,,,,
,5e7d45108c94553d66207f51,001,2022-04-29_03h08.39.654,classification_task,2021.2.3,Win32,60.09254252,5e7d45108c94553d66207f51,626b377229c10585ec392f89,626b3a8d3faadc900a728b6a,,,,,,,,,,,,,,,,,,,,,,,l,1,"[""0.098"",""0.292"",""0.558"",""0.704""]","[1,1,0,1]",0,41,41,41,1,1,1,,,0,FALSE,0.85,,,,,,,,,,,,,,,,,,,,,,,,,,,,,,
,5e7d45108c94553d66207f51,001,2022-04-29_03h08.39.654,classification_task,2021.2.3,Win32,60.09254252,5e7d45108c94553d66207f51,626b377229c10585ec392f89,626b3a8d3faadc900a728b6a,,,,,,,,,,,,,,,,,,,,,,,a,0,"[""0.098"",""0.811"",""0.671"",""0.704""]","[1,0,1,1]",0,42,42,42,1,1,1,,,0,FALSE,1.2609,,,,,,,,,,,,,,,,,,,,,,,,,,,,,,
,5e7d45108c94553d66207f51,001,2022-04-29_03h08.39.654,classification_task,2021.2.3,Win32,60.09254252,5e7d45108c94553d66207f51,626b377229c10585ec392f89,626b3a8d3faadc900a728b6a,,,,,,,,,,,,,,,,,,,,,,,a,1,"[""0.558"",""0.426"",""0.893"",""0.929""]","[0,1,1,1]",0,43,43,43,1,0,1,,,0,FALSE,0.6744,,,,,,,,,,,,,,,,,,,,,,,,,,,,,,
,5e7d45108c94553d66207f51,001,2022-04-29_03h08.39.654,classification_task,2021.2.3,Win32,60.09254252,5e7d45108c94553d66207f51,626b377229c10585ec392f89,626b3a8d3faadc900a728b6a,,,,,,,,,,,,,,,,,,,,,,,a,1,"[""0.188"",""0.426"",""0.893"",""0.562""]","[1,1,1,0]",0,44,44,44,1,0,1,,,0,FALSE,0.8799,,,,,,,,,,,,,,,,,,,,,,,,,,,,,,
,5e7d45108c94553d66207f51,001,2022-04-29_03h08.39.654,classification_task,2021.2.3,Win32,60.09254252,5e7d45108c94553d66207f51,626b377229c10585ec392f89,626b3a8d3faadc900a728b6a,,,,,,,,,,,,,,,,,,,,,,,a,1,"[""0.243"",""0.492"",""0.563"",""0.966""]","[1,1,0,1]",0,45,45,45,1,0,0,,,0,FALSE,0.8754,,,,,,,,,,,,,,,,,,,,,,,,,,,,,,
,5e7d45108c94553d66207f51,001,2022-04-29_03h08.39.654,classification_task,2021.2.3,Win32,60.09254252,5e7d45108c94553d66207f51,626b377229c10585ec392f89,626b3a8d3faadc900a728b6a,,,,,,,,,,,,,,,,,,,,,,,a,1,"[""0.781"",""0.492"",""0.858"",""0.966""]","[0,1,1,1]",0,46,46,46,1,0,0,,,0,FALSE,0.6563,,,,,,,,,,,,,,,,,,,,,,,,,,,,,,
,5e7d45108c94553d66207f51,001,2022-04-29_03h08.39.654,classification_task,2021.2.3,Win32,60.09254252,5e7d45108c94553d66207f51,626b377229c10585ec392f89,626b3a8d3faadc900a728b6a,,,,,,,,,,,,,,,,,,,,,,,l,1,"[""0.152"",""0.354"",""0.603"",""0.391""]","[1,1,1,0]",0,47,47,47,1,1,0,,,0,FALSE,0.8528,,,,,,,,,,,,,,,,,,,,,,,,,,,,,,
,5e7d45108c94553d66207f51,001,2022-04-29_03h08.39.654,classification_task,2021.2.3,Win32,60.09254252,5e7d45108c94553d66207f51,626b377229c10585ec392f89,626b3a8d3faadc900a728b6a,,,,,,,,,,,,,,,,,,,,,,,a,1,"[""0.563"",""0.426"",""0.893"",""0.929""]","[0,1,1,1]",0,48,48,48,1,0,1,,,0,FALSE,0.7063,,,,,,,,,,,,,,,,,,,,,,,,,,,,,,
,5e7d45108c94553d66207f51,001,2022-04-29_03h08.39.654,classification_task,2021.2.3,Win32,60.09254252,5e7d45108c94553d66207f51,626b377229c10585ec392f89,626b3a8d3faadc900a728b6a,,,,,,,,,,,,,,,,,,,,,,,a,1,"[""0.188"",""0.426"",""0.029"",""0.929""]","[1,1,0,1]",0,49,49,49,1,0,1,,,0,FALSE,0.7017,,,,,,,,,,,,,,,,,,,,,,,,,,,,,,
,5e7d45108c94553d66207f51,001,2022-04-29_03h08.39.654,classification_task,2021.2.3,Win32,60.09254252,5e7d45108c94553d66207f51,626b377229c10585ec392f89,626b3a8d3faadc900a728b6a,,,,,,,,,,,,,,,,,,,,,,,l,1,"[""0.781"",""0.354"",""0.603"",""0.744""]","[0,1,1,1]",0,50,50,50,1,1,0,,,0,FALSE,0.8491,,,,,,,,,,,,,,,,,,,,,,,,,,,,,,
,5e7d45108c94553d66207f51,001,2022-04-29_03h08.39.654,classification_task,2021.2.3,Win32,60.09254252,5e7d45108c94553d66207f51,626b377229c10585ec392f89,626b3a8d3faadc900a728b6a,,,,,,,,,,,,,,,,,,,,,,,l,1,"[""0.566"",""0.292"",""0.671"",""0.704""]","[0,1,1,1]",0,51,51,51,1,1,1,,,0,FALSE,0.8656,,,,,,,,,,,,,,,,,,,,,,,,,,,,,,
,5e7d45108c94553d66207f51,001,2022-04-29_03h08.39.654,classification_task,2021.2.3,Win32,60.09254252,5e7d45108c94553d66207f51,626b377229c10585ec392f89,626b3a8d3faadc900a728b6a,,,,,,,,,,,,,,,,,,,,,,,l,1,"[""0.152"",""0.354"",""0.603"",""0.562""]","[1,1,1,0]",0,52,52,52,1,1,0,,,0,FALSE,0.5711,,,,,,,,,,,,,,,,,,,,,,,,,,,,,,
,5e7d45108c94553d66207f51,001,2022-04-29_03h08.39.654,classification_task,2021.2.3,Win32,60.09254252,5e7d45108c94553d66207f51,626b377229c10585ec392f89,626b3a8d3faadc900a728b6a,,,,,,,,,,,,,,,,,,,,,,,a,1,"[""0.057"",""0.492"",""0.858"",""0.966""]","[0,1,1,1]",0,53,53,53,1,0,0,,,0,FALSE,0.6352,,,,,,,,,,,,,,,,,,,,,,,,,,,,,,
,5e7d45108c94553d66207f51,001,2022-04-29_03h08.39.654,classification_task,2021.2.3,Win32,60.09254252,5e7d45108c94553d66207f51,626b377229c10585ec392f89,626b3a8d3faadc900a728b6a,,,,,,,,,,,,,,,,,,,,,,,a,1,"[""0.188"",""0.426"",""0.893"",""0.563""]","[1,1,1,0]",0,54,54,54,1,0,1,,,0,FALSE,0.553,,,,,,,,,,,,,,,,,,,,,,,,,,,,,,
,5e7d45108c94553d66207f51,001,2022-04-29_03h08.39.654,classification_task,2021.2.3,Win32,60.09254252,5e7d45108c94553d66207f51,626b377229c10585ec392f89,626b3a8d3faadc900a728b6a,,,,,,,,,,,,,,,,,,,,,,,l,1,"[""0.152"",""0.354"",""0.057"",""0.744""]","[1,1,0,1]",0,55,55,55,1,1,0,,,0,FALSE,0.6903,,,,,,,,,,,,,,,,,,,,,,,,,,,,,,
,5e7d45108c94553d66207f51,001,2022-04-29_03h08.39.654,classification_task,2021.2.3,Win32,60.09254252,5e7d45108c94553d66207f51,626b377229c10585ec392f89,626b3a8d3faadc900a728b6a,,,,,,,,,,,,,,,,,,,,,,,a,1,"[""0.243"",""0.492"",""0.858"",""0.558""]","[1,1,1,0]",0,56,56,56,1,0,0,,,0,FALSE,0.6069,,,,,,,,,,,,,,,,,,,,,,,,,,,,,,
,5e7d45108c94553d66207f51,001,2022-04-29_03h08.39.654,classification_task,2021.2.3,Win32,60.09254252,5e7d45108c94553d66207f51,626b377229c10585ec392f89,626b3a8d3faadc900a728b6a,,,,,,,,,,,,,,,,,,,,,,,l,1,"[""0.098"",""0.292"",""0.557"",""0.704""]","[1,1,0,1]",0,57,57,57,1,1,1,,,0,FALSE,0.8296,,,,,,,,,,,,,,,,,,,,,,,,,,,,,,
,5e7d45108c94553d66207f51,001,2022-04-29_03h08.39.654,classification_task,2021.2.3,Win32,60.09254252,5e7d45108c94553d66207f51,626b377229c10585ec392f89,626b3a8d3faadc900a728b6a,,,,,,,,,,,,,,,,,,,,,,,a,0,"[""0.098"",""0.781"",""0.671"",""0.704""]","[1,0,1,1]",0,58,58,58,1,1,1,,,0,FALSE,0.9406,,,,,,,,,,,,,,,,,,,,,,,,,,,,,,
,5e7d45108c94553d66207f51,001,2022-04-29_03h08.39.654,classification_task,2021.2.3,Win32,60.09254252,5e7d45108c94553d66207f51,626b377229c10585ec392f89,626b3a8d3faadc900a728b6a,,,,,,,,,,,,,,,,,,,,,,,a,0,"[""0.152"",""0.781"",""0.603"",""0.744""]","[1,0,1,1]",0,59,59,59,1,1,0,,,0,FALSE,0.71,,,,,,,,,,,,,,,,,,,,,,,,,,,,,,
,5e7d45108c94553d66207f51,001,2022-04-29_03h08.39.654,classification_task,2021.2.3,Win32,60.09254252,5e7d45108c94553d66207f51,626b377229c10585ec392f89,626b3a8d3faadc900a728b6a,,,,,,,,,,,,,,,,,,,,,,,a,1,"[""0.188"",""0.557"",""0.893"",""0.929""]","[1,0,1,1]",0,60,60,60,1,0,1,,,0,FALSE,0.9467,,,,,,,,,,,,,,,,,,,,,,,,,,,,,,
,5e7d45108c94553d66207f51,001,2022-04-29_03h08.39.654,classification_task,2021.2.3,Win32,60.09254252,5e7d45108c94553d66207f51,626b377229c10585ec392f89,626b3a8d3faadc900a728b6a,,,,,,,,,,,,,,,,,,,,,,,l,1,"[""0.098"",""0.292"",""0.671"",""0.057""]","[1,1,1,0]",0,61,61,61,1,1,1,,,0,FALSE,0.8191,,,,,,,,,,,,,,,,,,,,,,,,,,,,,,
,5e7d45108c94553d66207f51,001,2022-04-29_03h08.39.654,classification_task,2021.2.3,Win32,60.09254252,5e7d45108c94553d66207f51,626b377229c10585ec392f89,626b3a8d3faadc900a728b6a,,,,,,,,,,,,,,,,,,,,,,,a,1,"[""0.243"",""0.492"",""0.029"",""0.966""]","[1,1,0,1]",0,62,62,62,1,0,0,,,0,FALSE,3.6334,,,,,,,,,,,,,,,,,,,,,,,,,,,,,,
,5e7d45108c94553d66207f51,001,2022-04-29_03h08.39.654,classification_task,2021.2.3,Win32,60.09254252,5e7d45108c94553d66207f51,626b377229c10585ec392f89,626b3a8d3faadc900a728b6a,,,,,,,,,,,,,,,,,,,,,,,a,1,"[""0.243"",""0.818"",""0.858"",""0.966""]","[1,0,1,1]",0,63,63,63,1,0,0,,,0,FALSE,0.5442,,,,,,,,,,,,,,,,,,,,,,,,,,,,,,
,5e7d45108c94553d66207f51,001,2022-04-29_03h08.39.654,classification_task,2021.2.3,Win32,60.09254252,5e7d45108c94553d66207f51,626b377229c10585ec392f89,626b3a8d3faadc900a728b6a,,,,,,,,,,,,,,,,,,,,,,,,,,,,,,,,,,,,,,,0, ,,0,8.500985358,609.7827,0,0,0,0,1,2,1,,,,,,,,,,,,,,,,,
,5e7d45108c94553d66207f51,001,2022-04-29_03h08.39.654,classification_task,2021.2.3,Win32,60.09254252,5e7d45108c94553d66207f51,626b377229c10585ec392f89,626b3a8d3faadc900a728b6a,,,,,,,,,,,,,,,,,,,,,,,,,,,,,,,,,,,,,,,1,  ,,0,9.093894169,605.3444,0,0,0,0,1,2,1,,,,,,,,,,,,,,,,,
,5e7d45108c94553d66207f51,001,2022-04-29_03h08.39.654,classification_task,2021.2.3,Win32,60.09254252,5e7d45108c94553d66207f51,626b377229c10585ec392f89,626b3a8d3faadc900a728b6a,,,,,,,,,,,,,,,,,,,,,,,,,,,,,,,,,,,,,,,2,  ,,0,0,614.8009,0,0,0,0,1,2,1,,,,,,,,,,,,,,,,,
,5e7d45108c94553d66207f51,001,2022-04-29_03h08.39.654,classification_task,2021.2.3,Win32,60.09254252,5e7d45108c94553d66207f51,626b377229c10585ec392f89,626b3a8d3faadc900a728b6a,,,,,,,,,,,,,,,,,,,,,,,,,,,,,,,,,,,,,,,,,,,,,0,0,0,0,1,,1,,,,,,,,,,,,,,,,,
,5e7d45108c94553d66207f51,001,2022-04-29_03h08.39.654,classification_task,2021.2.3,Win32,60.09254252,5e7d45108c94553d66207f51,626b377229c10585ec392f89,626b3a8d3faadc900a728b6a,,,,,,,,,,,,,,,,,,,,,space,4.0513,l,1,"[""0.152"",""0.354"",""0.051"",""0.744""]","[1,1,0,1]",0,0,0,0,1,1,0,,,0,FALSE,4.1777,,,,,,,,,,,,,,,,,,,,,,,,,,,,,,
,5e7d45108c94553d66207f51,001,2022-04-29_03h08.39.654,classification_task,2021.2.3,Win32,60.09254252,5e7d45108c94553d66207f51,626b377229c10585ec392f89,626b3a8d3faadc900a728b6a,,,,,,,,,,,,,,,,,,,,,,,l,1,"[""0.391"",""0.354"",""0.603"",""0.744""]","[0,1,1,1]",0,1,1,1,1,1,0,,,0,FALSE,1.1296,,,,,,,,,,,,,,,,,,,,,,,,,,,,,,
,5e7d45108c94553d66207f51,001,2022-04-29_03h08.39.654,classification_task,2021.2.3,Win32,60.09254252,5e7d45108c94553d66207f51,626b377229c10585ec392f89,626b3a8d3faadc900a728b6a,,,,,,,,,,,,,,,,,,,,,,,l,1,"[""0.098"",""0.029"",""0.671"",""0.704""]","[1,0,1,1]",0,2,2,2,1,1,1,,,0,FALSE,0.8908,,,,,,,,,,,,,,,,,,,,,,,,,,,,,,
,5e7d45108c94553d66207f51,001,2022-04-29_03h08.39.654,classification_task,2021.2.3,Win32,60.09254252,5e7d45108c94553d66207f51,626b377229c10585ec392f89,626b3a8d3faadc900a728b6a,,,,,,,,,,,,,,,,,,,,,,,a,1,"[""0.563"",""0.492"",""0.858"",""0.966""]","[0,1,1,1]",0,3,3,3,1,0,0,,,0,FALSE,0.5439,,,,,,,,,,,,,,,,,,,,,,,,,,,,,,
,5e7d45108c94553d66207f51,001,2022-04-29_03h08.39.654,classification_task,2021.2.3,Win32,60.09254252,5e7d45108c94553d66207f51,626b377229c10585ec392f89,626b3a8d3faadc900a728b6a,,,,,,,,,,,,,,,,,,,,,,,l,1,"[""0.045"",""0.292"",""0.671"",""0.704""]","[0,1,1,1]",0,4,4,4,1,1,1,,,0,FALSE,0.7848,,,,,,,,,,,,,,,,,,,,,,,,,,,,,,
,5e7d45108c94553d66207f51,001,2022-04-29_03h08.39.654,classification_task,2021.2.3,Win32,60.09254252,5e7d45108c94553d66207f51,626b377229c10585ec392f89,626b3a8d3faadc900a728b6a,,,,,,,,,,,,,,,,,,,,,,,a,1,"[""0.188"",""0.426"",""0.538"",""0.929""]","[1,1,0,1]",0,5,5,5,1,0,1,,,0,FALSE,0.6413,,,,,,,,,,,,,,,,,,,,,,,,,,,,,,
,5e7d45108c94553d66207f51,001,2022-04-29_03h08.39.654,classification_task,2021.2.3,Win32,60.09254252,5e7d45108c94553d66207f51,626b377229c10585ec392f89,626b3a8d3faadc900a728b6a,,,,,,,,,,,,,,,,,,,,,,,l,1,"[""0.098"",""0.292"",""0.562"",""0.704""]","[1,1,0,1]",0,6,6,6,1,1,1,,,0,FALSE,0.6798,,,,,,,,,,,,,,,,,,,,,,,,,,,,,,
,5e7d45108c94553d66207f51,001,2022-04-29_03h08.39.654,classification_task,2021.2.3,Win32,60.09254252,5e7d45108c94553d66207f51,626b377229c10585ec392f89,626b3a8d3faadc900a728b6a,,,,,,,,,,,,,,,,,,,,,,,a,0,"[""0.098"",""0.292"",""0.671"",""0.562""]","[1,1,1,0]",0,7,7,7,1,1,1,,,0,FALSE,0.6185,,,,,,,,,,,,,,,,,,,,,,,,,,,,,,
,5e7d45108c94553d66207f51,001,2022-04-29_03h08.39.654,classification_task,2021.2.3,Win32,60.09254252,5e7d45108c94553d66207f51,626b377229c10585ec392f89,626b3a8d3faadc900a728b6a,,,,,,,,,,,,,,,,,,,,,,,a,1,"[""0.243"",""0.492"",""0.858"",""0.391""]","[1,1,1,0]",0,8,8,8,1,0,0,,,0,FALSE,0.6657,,,,,,,,,,,,,,,,,,,,,,,,,,,,,,
,5e7d45108c94553d66207f51,001,2022-04-29_03h08.39.654,classification_task,2021.2.3,Win32,60.09254252,5e7d45108c94553d66207f51,626b377229c10585ec392f89,626b3a8d3faadc900a728b6a,,,,,,,,,,,,,,,,,,,,,,,a,1,"[""0.243"",""0.045"",""0.858"",""0.966""]","[1,0,1,1]",0,9,9,9,1,0,0,,,0,FALSE,0.6552,,,,,,,,,,,,,,,,,,,,,,,,,,,,,,
,5e7d45108c94553d66207f51,001,2022-04-29_03h08.39.654,classification_task,2021.2.3,Win32,60.09254252,5e7d45108c94553d66207f51,626b377229c10585ec392f89,626b3a8d3faadc900a728b6a,,,,,,,,,,,,,,,,,,,,,,,a,1,"[""0.781"",""0.426"",""0.893"",""0.929""]","[0,1,1,1]",0,10,10,10,1,0,1,,,0,FALSE,0.6521,,,,,,,,,,,,,,,,,,,,,,,,,,,,,,
,5e7d45108c94553d66207f51,001,2022-04-29_03h08.39.654,classification_task,2021.2.3,Win32,60.09254252,5e7d45108c94553d66207f51,626b377229c10585ec392f89,626b3a8d3faadc900a728b6a,,,,,,,,,,,,,,,,,,,,,,,a,1,"[""0.243"",""0.492"",""0.812"",""0.966""]","[1,1,0,1]",0,11,11,11,1,0,0,,,0,FALSE,0.7045,,,,,,,,,,,,,,,,,,,,,,,,,,,,,,
,5e7d45108c94553d66207f51,001,2022-04-29_03h08.39.654,classification_task,2021.2.3,Win32,60.09254252,5e7d45108c94553d66207f51,626b377229c10585ec392f89,626b3a8d3faadc900a728b6a,,,,,,,,,,,,,,,,,,,,,,,a,1,"[""0.188"",""0.426"",""0.893"",""0.563""]","[1,1,1,0]",0,12,12,12,1,0,1,,,0,FALSE,0.5329,,,,,,,,,,,,,,,,,,,,,,,,,,,,,,
,5e7d45108c94553d66207f51,001,2022-04-29_03h08.39.654,classification_task,2021.2.3,Win32,60.09254252,5e7d45108c94553d66207f51,626b377229c10585ec392f89,626b3a8d3faadc900a728b6a,,,,,,,,,,,,,,,,,,,,,,,a,1,"[""0.188"",""0.538"",""0.893"",""0.929""]","[1,0,1,1]",0,13,13,13,1,0,1,,,0,FALSE,0.5427,,,,,,,,,,,,,,,,,,,,,,,,,,,,,,
,5e7d45108c94553d66207f51,001,2022-04-29_03h08.39.654,classification_task,2021.2.3,Win32,60.09254252,5e7d45108c94553d66207f51,626b377229c10585ec392f89,626b3a8d3faadc900a728b6a,,,,,,,,,,,,,,,,,,,,,,,l,1,"[""0.152"",""0.354"",""0.603"",""0.051""]","[1,1,1,0]",0,14,14,14,1,1,0,,,0,FALSE,0.7042,,,,,,,,,,,,,,,,,,,,,,,,,,,,,,
,5e7d45108c94553d66207f51,001,2022-04-29_03h08.39.654,classification_task,2021.2.3,Win32,60.09254252,5e7d45108c94553d66207f51,626b377229c10585ec392f89,626b3a8d3faadc900a728b6a,,,,,,,,,,,,,,,,,,,,,,,a,0,"[""0.152"",""0.563"",""0.603"",""0.744""]","[1,0,1,1]",0,15,15,15,1,1,0,,,0,FALSE,0.7237,,,,,,,,,,,,,,,,,,,,,,,,,,,,,,
,5e7d45108c94553d66207f51,001,2022-04-29_03h08.39.654,classification_task,2021.2.3,Win32,60.09254252,5e7d45108c94553d66207f51,626b377229c10585ec392f89,626b3a8d3faadc900a728b6a,,,,,,,,,,,,,,,,,,,,,,,a,1,"[""0.243"",""0.811"",""0.858"",""0.966""]","[1,0,1,1]",0,16,16,16,1,0,0,,,0,FALSE,0.6222,,,,,,,,,,,,,,,,,,,,,,,,,,,,,,
,5e7d45108c94553d66207f51,001,2022-04-29_03h08.39.654,classification_task,2021.2.3,Win32,60.09254252,5e7d45108c94553d66207f51,626b377229c10585ec392f89,626b3a8d3faadc900a728b6a,,,,,,,,,,,,,,,,,,,,,,,,0,"[""0.098"",""0.292"",""0.051"",""0.704""]","[1,1,0,1]",0,17,17,17,1,1,1,,,0,FALSE,,,,,,,,,,,,,,,,,,,,,,,,,,,,,,,
,5e7d45108c94553d66207f51,001,2022-04-29_03h08.39.654,classification_task,2021.2.3,Win32,60.09254252,5e7d45108c94553d66207f51,626b377229c10585ec392f89,626b3a8d3faadc900a728b6a,,,,,,,,,,,,,,,,,,,,,,,a,0,"[""0.098"",""0.566"",""0.671"",""0.704""]","[1,0,1,1]",0,18,18,18,1,1,1,,,0,FALSE,1.1268,,,,,,,,,,,,,,,,,,,,,,,,,,,,,,
,5e7d45108c94553d66207f51,001,2022-04-29_03h08.39.654,classification_task,2021.2.3,Win32,60.09254252,5e7d45108c94553d66207f51,626b377229c10585ec392f89,626b3a8d3faadc900a728b6a,,,,,,,,,,,,,,,,,,,,,,,a,1,"[""0.243"",""0.492"",""0.538"",""0.966""]","[1,1,0,1]",0,19,19,19,1,0,0,,,0,FALSE,0.7659,,,,,,,,,,,,,,,,,,,,,,,,,,,,,,
,5e7d45108c94553d66207f51,001,2022-04-29_03h08.39.654,classification_task,2021.2.3,Win32,60.09254252,5e7d45108c94553d66207f51,626b377229c10585ec392f89,626b3a8d3faadc900a728b6a,,,,,,,,,,,,,,,,,,,,,,,a,1,"[""0.562"",""0.492"",""0.858"",""0.966""]","[0,1,1,1]",0,20,20,20,1,0,0,,,0,FALSE,0.6243,,,,,,,,,,,,,,,,,,,,,,,,,,,,,,
,5e7d45108c94553d66207f51,001,2022-04-29_03h08.39.654,classification_task,2021.2.3,Win32,60.09254252,5e7d45108c94553d66207f51,626b377229c10585ec392f89,626b3a8d3faadc900a728b6a,,,,,,,,,,,,,,,,,,,,,,,l,1,"[""0.781"",""0.292"",""0.671"",""0.704""]","[0,1,1,1]",0,21,21,21,1,1,1,,,0,FALSE,0.7256,,,,,,,,,,,,,,,,,,,,,,,,,,,,,,
,5e7d45108c94553d66207f51,001,2022-04-29_03h08.39.654,classification_task,2021.2.3,Win32,60.09254252,5e7d45108c94553d66207f51,626b377229c10585ec392f89,626b3a8d3faadc900a728b6a,,,,,,,,,,,,,,,,,,,,,,,l,1,"[""0.152"",""0.354"",""0.603"",""0.557""]","[1,1,1,0]",0,22,22,22,1,1,0,,,0,FALSE,0.716,,,,,,,,,,,,,,,,,,,,,,,,,,,,,,
,5e7d45108c94553d66207f51,001,2022-04-29_03h08.39.654,classification_task,2021.2.3,Win32,60.09254252,5e7d45108c94553d66207f51,626b377229c10585ec392f89,626b3a8d3faadc900a728b6a,,,,,,,,,,,,,,,,,,,,,,,a,0,"[""0.098"",""0.292"",""0.671"",""0.562""]","[1,1,1,0]",0,23,23,23,1,1,1,,,0,FALSE,1.3601,,,,,,,,,,,,,,,,,,,,,,,,,,,,,,
,5e7d45108c94553d66207f51,001,2022-04-29_03h08.39.654,classification_task,2021.2.3,Win32,60.09254252,5e7d45108c94553d66207f51,626b377229c10585ec392f89,626b3a8d3faadc900a728b6a,,,,,,,,,,,,,,,,,,,,,,,l,1,"[""0.152"",""0.562"",""0.603"",""0.744""]","[1,0,1,1]",0,24,24,24,1,1,0,,,0,FALSE,0.8526,,,,,,,,,,,,,,,,,,,,,,,,,,,,,,
,5e7d45108c94553d66207f51,001,2022-04-29_03h08.39.654,classification_task,2021.2.3,Win32,60.09254252,5e7d45108c94553d66207f51,626b377229c10585ec392f89,626b3a8d3faadc900a728b6a,,,,,,,,,,,,,,,,,,,,,,,a,1,"[""0.029"",""0.426"",""0.893"",""0.929""]","[0,1,1,1]",0,25,25,25,1,0,1,,,0,FALSE,0.6941,,,,,,,,,,,,,,,,,,,,,,,,,,,,,,
,5e7d45108c94553d66207f51,001,2022-04-29_03h08.39.654,classification_task,2021.2.3,Win32,60.09254252,5e7d45108c94553d66207f51,626b377229c10585ec392f89,626b3a8d3faadc900a728b6a,,,,,,,,,,,,,,,,,,,,,,,l,1,"[""0.563"",""0.354"",""0.603"",""0.744""]","[0,1,1,1]",0,26,26,26,1,1,0,,,0,FALSE,0.8852,,,,,,,,,,,,,,,,,,,,,,,,,,,,,,
,5e7d45108c94553d66207f51,001,2022-04-29_03h08.39.654,classification_task,2021.2.3,Win32,60.09254252,5e7d45108c94553d66207f51,626b377229c10585ec392f89,626b3a8d3faadc900a728b6a,,,,,,,,,,,,,,,,,,,,,,,l,1,"[""0.152"",""0.354"",""0.029"",""0.744""]","[1,1,0,1]",0,27,27,27,1,1,0,,,0,FALSE,2.5391,,,,,,,,,,,,,,,,,,,,,,,,,,,,,,
,5e7d45108c94553d66207f51,001,2022-04-29_03h08.39.654,classification_task,2021.2.3,Win32,60.09254252,5e7d45108c94553d66207f51,626b377229c10585ec392f89,626b3a8d3faadc900a728b6a,,,,,,,,,,,,,,,,,,,,,,,a,1,"[""0.188"",""0.562"",""0.893"",""0.929""]","[1,0,1,1]",0,28,28,28,1,0,1,,,0,FALSE,0.9204,,,,,,,,,,,,,,,,,,,,,,,,,,,,,,
,5e7d45108c94553d66207f51,001,2022-04-29_03h08.39.654,classification_task,2021.2.3,Win32,60.09254252,5e7d45108c94553d66207f51,626b377229c10585ec392f89,626b3a8d3faadc900a728b6a,,,,,,,,,,,,,,,,,,,,,,,a,1,"[""0.188"",""0.426"",""0.812"",""0.929""]","[1,1,0,1]",0,29,29,29,1,0,1,,,0,FALSE,0.9852,,,,,,,,,,,,,,,,,,,,,,,,,,,,,,
,5e7d45108c94553d66207f51,001,2022-04-29_03h08.39.654,classification_task,2021.2.3,Win32,60.09254252,5e7d45108c94553d66207f51,626b377229c10585ec392f89,626b3a8d3faadc900a728b6a,,,,,,,,,,,,,,,,,,,,,,,a,1,"[""0.243"",""0.492"",""0.858"",""0.051""]","[1,1,1,0]",0,30,30,30,1,0,0,,,0,FALSE,3.3379,,,,,,,,,,,,,,,,,,,,,,,,,,,,,,
,5e7d45108c94553d66207f51,001,2022-04-29_03h08.39.654,classification_task,2021.2.3,Win32,60.09254252,5e7d45108c94553d66207f51,626b377229c10585ec392f89,626b3a8d3faadc900a728b6a,,,,,,,,,,,,,,,,,,,,,,,a,1,"[""0.188"",""0.426"",""0.893"",""0.391""]","[1,1,1,0]",0,31,31,31,1,0,1,,,0,FALSE,2.0842,,,,,,,,,,,,,,,,,,,,,,,,,,,,,,
,5e7d45108c94553d66207f51,001,2022-04-29_03h08.39.654,classification_task,2021.2.3,Win32,60.09254252,5e7d45108c94553d66207f51,626b377229c10585ec392f89,626b3a8d3faadc900a728b6a,,,,,,,,,,,,,,,,,,,,,,,l,1,"[""0.152"",""0.354"",""0.057"",""0.744""]","[1,1,0,1]",0,32,32,32,1,1,0,,,0,FALSE,3.8633,,,,,,,,,,,,,,,,,,,,,,,,,,,,,,
,5e7d45108c94553d66207f51,001,2022-04-29_03h08.39.654,classification_task,2021.2.3,Win32,60.09254252,5e7d45108c94553d66207f51,626b377229c10585ec392f89,626b3a8d3faadc900a728b6a,,,,,,,,,,,,,,,,,,,,,,,l,1,"[""0.152"",""0.391"",""0.603"",""0.744""]","[1,0,1,1]",0,33,33,33,1,1,0,,,0,FALSE,0.8853,,,,,,,,,,,,,,,,,,,,,,,,,,,,,,
,5e7d45108c94553d66207f51,001,2022-04-29_03h08.39.654,classification_task,2021.2.3,Win32,60.09254252,5e7d45108c94553d66207f51,626b377229c10585ec392f89,626b3a8d3faadc900a728b6a,,,,,,,,,,,,,,,,,,,,,,,l,0,"[""0.243"",""0.492"",""0.858"",""0.558""]","[1,1,1,0]",0,34,34,34,1,0,0,,,0,FALSE,1.673,,,,,,,,,,,,,,,,,,,,,,,,,,,,,,
,5e7d45108c94553d66207f51,001,2022-04-29_03h08.39.654,classification_task,2021.2.3,Win32,60.09254252,5e7d45108c94553d66207f51,626b377229c10585ec392f89,626b3a8d3faadc900a728b6a,,,,,,,,,,,,,,,,,,,,,,,a,1,"[""0.562"",""0.492"",""0.858"",""0.966""]","[0,1,1,1]",0,35,35,35,1,0,0,,,0,FALSE,1.7169,,,,,,,,,,,,,,,,,,,,,,,,,,,,,,
,5e7d45108c94553d66207f51,001,2022-04-29_03h08.39.654,classification_task,2021.2.3,Win32,60.09254252,5e7d45108c94553d66207f51,626b377229c10585ec392f89,626b3a8d3faadc900a728b6a,,,,,,,,,,,,,,,,,,,,,,,l,1,"[""0.558"",""0.292"",""0.671"",""0.704""]","[0,1,1,1]",0,36,36,36,1,1,1,,,0,FALSE,3.8795,,,,,,,,,,,,,,,,,,,,,,,,,,,,,,
,5e7d45108c94553d66207f51,001,2022-04-29_03h08.39.654,classification_task,2021.2.3,Win32,60.09254252,5e7d45108c94553d66207f51,626b377229c10585ec392f89,626b3a8d3faadc900a728b6a,,,,,,,,,,,,,,,,,,,,,,,a,1,"[""0.243"",""0.391"",""0.858"",""0.966""]","[1,0,1,1]",0,37,37,37,1,0,0,,,0,FALSE,1.1882,,,,,,,,,,,,,,,,,,,,,,,,,,,,,,
,5e7d45108c94553d66207f51,001,2022-04-29_03h08.39.654,classification_task,2021.2.3,Win32,60.09254252,5e7d45108c94553d66207f51,626b377229c10585ec392f89,626b3a8d3faadc900a728b6a,,,,,,,,,,,,,,,,,,,,,,,l,1,"[""0.098"",""0.292"",""0.671"",""0.557""]","[1,1,1,0]",0,38,38,38,1,1,1,,,0,FALSE,4.0186,,,,,,,,,,,,,,,,,,,,,,,,,,,,,,
,5e7d45108c94553d66207f51,001,2022-04-29_03h08.39.654,classification_task,2021.2.3,Win32,60.09254252,5e7d45108c94553d66207f51,626b377229c10585ec392f89,626b3a8d3faadc900a728b6a,,,,,,,,,,,,,,,,,,,,,,,a,1,"[""0.188"",""0.029"",""0.893"",""0.929""]","[1,0,1,1]",0,39,39,39,1,0,1,,,0,FALSE,2.7617,,,,,,,,,,,,,,,,,,,,,,,,,,,,,,
,5e7d45108c94553d66207f51,001,2022-04-29_03h08.39.654,classification_task,2021.2.3,Win32,60.09254252,5e7d45108c94553d66207f51,626b377229c10585ec392f89,626b3a8d3faadc900a728b6a,,,,,,,,,,,,,,,,,,,,,,,a,1,"[""0.557"",""0.426"",""0.893"",""0.929""]","[0,1,1,1]",0,40,40,40,1,0,1,,,0,FALSE,1.7006,,,,,,,,,,,,,,,,,,,,,,,,,,,,,,
,5e7d45108c94553d66207f51,001,2022-04-29_03h08.39.654,classification_task,2021.2.3,Win32,60.09254252,5e7d45108c94553d66207f51,626b377229c10585ec392f89,626b3a8d3faadc900a728b6a,,,,,,,,,,,,,,,,,,,,,,,l,1,"[""0.043"",""0.354"",""0.603"",""0.744""]","[0,1,1,1]",0,41,41,41,1,1,0,,,0,FALSE,2.3629,,,,,,,,,,,,,,,,,,,,,,,,,,,,,,
,5e7d45108c94553d66207f51,001,2022-04-29_03h08.39.654,classification_task,2021.2.3,Win32,60.09254252,5e7d45108c94553d66207f51,626b377229c10585ec392f89,626b3a8d3faadc900a728b6a,,,,,,,,,,,,,,,,,,,,,,,a,1,"[""0.188"",""0.426"",""0.781"",""0.929""]","[1,1,0,1]",0,42,42,42,1,0,1,,,0,FALSE,2.0513,,,,,,,,,,,,,,,,,,,,,,,,,,,,,,
,5e7d45108c94553d66207f51,001,2022-04-29_03h08.39.654,classification_task,2021.2.3,Win32,60.09254252,5e7d45108c94553d66207f51,626b377229c10585ec392f89,626b3a8d3faadc900a728b6a,,,,,,,,,,,,,,,,,,,,,,,l,0,"[""0.188"",""0.426"",""0.893"",""0.818""]","[1,1,1,0]",0,43,43,43,1,0,1,,,0,FALSE,3.9773,,,,,,,,,,,,,,,,,,,,,,,,,,,,,,
,5e7d45108c94553d66207f51,001,2022-04-29_03h08.39.654,classification_task,2021.2.3,Win32,60.09254252,5e7d45108c94553d66207f51,626b377229c10585ec392f89,626b3a8d3faadc900a728b6a,,,,,,,,,,,,,,,,,,,,,,,a,1,"[""0.243"",""0.492"",""0.563"",""0.966""]","[1,1,0,1]",0,44,44,44,1,0,0,,,0,FALSE,0.7284,,,,,,,,,,,,,,,,,,,,,,,,,,,,,,
,5e7d45108c94553d66207f51,001,2022-04-29_03h08.39.654,classification_task,2021.2.3,Win32,60.09254252,5e7d45108c94553d66207f51,626b377229c10585ec392f89,626b3a8d3faadc900a728b6a,,,,,,,,,,,,,,,,,,,,,,,l,1,"[""0.152"",""0.354"",""0.603"",""0.538""]","[1,1,1,0]",0,45,45,45,1,1,0,,,0,FALSE,1.6827,,,,,,,,,,,,,,,,,,,,,,,,,,,,,,
,5e7d45108c94553d66207f51,001,2022-04-29_03h08.39.654,classification_task,2021.2.3,Win32,60.09254252,5e7d45108c94553d66207f51,626b377229c10585ec392f89,626b3a8d3faadc900a728b6a,,,,,,,,,,,,,,,,,,,,,,,l,1,"[""0.098"",""0.292"",""0.557"",""0.704""]","[1,1,0,1]",0,46,46,46,1,1,1,,,0,FALSE,0.8853,,,,,,,,,,,,,,,,,,,,,,,,,,,,,,
,5e7d45108c94553d66207f51,001,2022-04-29_03h08.39.654,classification_task,2021.2.3,Win32,60.09254252,5e7d45108c94553d66207f51,626b377229c10585ec392f89,626b3a8d3faadc900a728b6a,,,,,,,,,,,,,,,,,,,,,,,a,0,"[""0.098"",""0.811"",""0.671"",""0.704""]","[1,0,1,1]",0,47,47,47,1,1,1,,,0,FALSE,1.0994,,,,,,,,,,,,,,,,,,,,,,,,,,,,,,
,5e7d45108c94553d66207f51,001,2022-04-29_03h08.39.654,classification_task,2021.2.3,Win32,60.09254252,5e7d45108c94553d66207f51,626b377229c10585ec392f89,626b3a8d3faadc900a728b6a,,,,,,,,,,,,,,,,,,,,,,,a,0,"[""0.098"",""0.812"",""0.671"",""0.704""]","[1,0,1,1]",0,48,48,48,1,1,1,,,0,FALSE,0.8455,,,,,,,,,,,,,,,,,,,,,,,,,,,,,,
,5e7d45108c94553d66207f51,001,2022-04-29_03h08.39.654,classification_task,2021.2.3,Win32,60.09254252,5e7d45108c94553d66207f51,626b377229c10585ec392f89,626b3a8d3faadc900a728b6a,,,,,,,,,,,,,,,,,,,,,,,a,1,"[""0.188"",""0.781"",""0.893"",""0.929""]","[1,0,1,1]",0,49,49,49,1,0,1,,,0,FALSE,0.7163,,,,,,,,,,,,,,,,,,,,,,,,,,,,,,
,5e7d45108c94553d66207f51,001,2022-04-29_03h08.39.654,classification_task,2021.2.3,Win32,60.09254252,5e7d45108c94553d66207f51,626b377229c10585ec392f89,626b3a8d3faadc900a728b6a,,,,,,,,,,,,,,,,,,,,,,,a,1,"[""0.045"",""0.492"",""0.858"",""0.966""]","[0,1,1,1]",0,50,50,50,1,0,0,,,0,FALSE,0.6461,,,,,,,,,,,,,,,,,,,,,,,,,,,,,,
,5e7d45108c94553d66207f51,001,2022-04-29_03h08.39.654,classification_task,2021.2.3,Win32,60.09254252,5e7d45108c94553d66207f51,626b377229c10585ec392f89,626b3a8d3faadc900a728b6a,,,,,,,,,,,,,,,,,,,,,,,a,1,"[""0.188"",""0.426"",""0.781"",""0.929""]","[1,1,0,1]",0,51,51,51,1,0,1,,,0,FALSE,0.7324,,,,,,,,,,,,,,,,,,,,,,,,,,,,,,
,5e7d45108c94553d66207f51,001,2022-04-29_03h08.39.654,classification_task,2021.2.3,Win32,60.09254252,5e7d45108c94553d66207f51,626b377229c10585ec392f89,626b3a8d3faadc900a728b6a,,,,,,,,,,,,,,,,,,,,,,,a,1,"[""0.243"",""0.492"",""0.858"",""0.057""]","[1,1,1,0]",0,52,52,52,1,0,0,,,0,FALSE,1.0208,,,,,,,,,,,,,,,,,,,,,,,,,,,,,,
,5e7d45108c94553d66207f51,001,2022-04-29_03h08.39.654,classification_task,2021.2.3,Win32,60.09254252,5e7d45108c94553d66207f51,626b377229c10585ec392f89,626b3a8d3faadc900a728b6a,,,,,,,,,,,,,,,,,,,,,,,a,1,"[""0.243"",""0.812"",""0.858"",""0.966""]","[1,0,1,1]",0,53,53,53,1,0,0,,,0,FALSE,0.6039,,,,,,,,,,,,,,,,,,,,,,,,,,,,,,
,5e7d45108c94553d66207f51,001,2022-04-29_03h08.39.654,classification_task,2021.2.3,Win32,60.09254252,5e7d45108c94553d66207f51,626b377229c10585ec392f89,626b3a8d3faadc900a728b6a,,,,,,,,,,,,,,,,,,,,,,,l,1,"[""0.152"",""0.354"",""0.562"",""0.744""]","[1,1,0,1]",0,54,54,54,1,1,0,,,0,FALSE,0.8996,,,,,,,,,,,,,,,,,,,,,,,,,,,,,,
,5e7d45108c94553d66207f51,001,2022-04-29_03h08.39.654,classification_task,2021.2.3,Win32,60.09254252,5e7d45108c94553d66207f51,626b377229c10585ec392f89,626b3a8d3faadc900a728b6a,,,,,,,,,,,,,,,,,,,,,,,l,1,"[""0.098"",""0.292"",""0.671"",""0.818""]","[1,1,1,0]",0,55,55,55,1,1,1,,,0,FALSE,3.7094,,,,,,,,,,,,,,,,,,,,,,,,,,,,,,
,5e7d45108c94553d66207f51,001,2022-04-29_03h08.39.654,classification_task,2021.2.3,Win32,60.09254252,5e7d45108c94553d66207f51,626b377229c10585ec392f89,626b3a8d3faadc900a728b6a,,,,,,,,,,,,,,,,,,,,,,,a,1,"[""0.558"",""0.426"",""0.893"",""0.929""]","[0,1,1,1]",0,56,56,56,1,0,1,,,0,FALSE,0.6976,,,,,,,,,,,,,,,,,,,,,,,,,,,,,,
,5e7d45108c94553d66207f51,001,2022-04-29_03h08.39.654,classification_task,2021.2.3,Win32,60.09254252,5e7d45108c94553d66207f51,626b377229c10585ec392f89,626b3a8d3faadc900a728b6a,,,,,,,,,,,,,,,,,,,,,,,l,1,"[""0.538"",""0.292"",""0.671"",""0.704""]","[0,1,1,1]",0,57,57,57,1,1,1,,,0,FALSE,0.9406,,,,,,,,,,,,,,,,,,,,,,,,,,,,,,
,5e7d45108c94553d66207f51,001,2022-04-29_03h08.39.654,classification_task,2021.2.3,Win32,60.09254252,5e7d45108c94553d66207f51,626b377229c10585ec392f89,626b3a8d3faadc900a728b6a,,,,,,,,,,,,,,,,,,,,,,,a,0,"[""0.557"",""0.354"",""0.603"",""0.744""]","[0,1,1,1]",0,58,58,58,1,1,0,,,0,FALSE,1.1822,,,,,,,,,,,,,,,,,,,,,,,,,,,,,,
,5e7d45108c94553d66207f51,001,2022-04-29_03h08.39.654,classification_task,2021.2.3,Win32,60.09254252,5e7d45108c94553d66207f51,626b377229c10585ec392f89,626b3a8d3faadc900a728b6a,,,,,,,,,,,,,,,,,,,,,,,a,1,"[""0.243"",""0.492"",""0.818"",""0.966""]","[1,1,0,1]",0,59,59,59,1,0,0,,,0,FALSE,0.7732,,,,,,,,,,,,,,,,,,,,,,,,,,,,,,
,5e7d45108c94553d66207f51,001,2022-04-29_03h08.39.654,classification_task,2021.2.3,Win32,60.09254252,5e7d45108c94553d66207f51,626b377229c10585ec392f89,626b3a8d3faadc900a728b6a,,,,,,,,,,,,,,,,,,,,,,,l,1,"[""0.152"",""0.558"",""0.603"",""0.744""]","[1,0,1,1]",0,60,60,60,1,1,0,,,0,FALSE,0.7747,,,,,,,,,,,,,,,,,,,,,,,,,,,,,,
,5e7d45108c94553d66207f51,001,2022-04-29_03h08.39.654,classification_task,2021.2.3,Win32,60.09254252,5e7d45108c94553d66207f51,626b377229c10585ec392f89,626b3a8d3faadc900a728b6a,,,,,,,,,,,,,,,,,,,,,,,l,1,"[""0.152"",""0.354"",""0.603"",""0.029""]","[1,1,1,0]",0,61,61,61,1,1,0,,,0,FALSE,0.736,,,,,,,,,,,,,,,,,,,,,,,,,,,,,,
,5e7d45108c94553d66207f51,001,2022-04-29_03h08.39.654,classification_task,2021.2.3,Win32,60.09254252,5e7d45108c94553d66207f51,626b377229c10585ec392f89,626b3a8d3faadc900a728b6a,,,,,,,,,,,,,,,,,,,,,,,a,0,"[""0.098"",""0.292"",""0.811"",""0.704""]","[1,1,0,1]",0,62,62,62,1,1,1,,,0,FALSE,1.2168,,,,,,,,,,,,,,,,,,,,,,,,,,,,,,
,5e7d45108c94553d66207f51,001,2022-04-29_03h08.39.654,classification_task,2021.2.3,Win32,60.09254252,5e7d45108c94553d66207f51,626b377229c10585ec392f89,626b3a8d3faadc900a728b6a,,,,,,,,,,,,,,,,,,,,,,,a,1,"[""0.188"",""0.426"",""0.893"",""0.563""]","[1,1,1,0]",0,63,63,63,1,0,1,,,0,FALSE,0.736,,,,,,,,,,,,,,,,,,,,,,,,,,,,,,
,5e7d45108c94553d66207f51,001,2022-04-29_03h08.39.654,classification_task,2021.2.3,Win32,60.09254252,5e7d45108c94553d66207f51,626b377229c10585ec392f89,626b3a8d3faadc900a728b6a,,,,,,,,,,,,,,,,,,,,,,,,,,,,,,,,,,,,,,,0, ,,0,8.162180323,168.9209,0,1,1,1,1,2,2,,,,,,,,,,,,,,,,,
,5e7d45108c94553d66207f51,001,2022-04-29_03h08.39.654,classification_task,2021.2.3,Win32,60.09254252,5e7d45108c94553d66207f51,626b377229c10585ec392f89,626b3a8d3faadc900a728b6a,,,,,,,,,,,,,,,,,,,,,,,,,,,,,,,,,,,,,,,1,  ,,0,9.347997945,165.2636,0,1,1,1,1,2,2,,,,,,,,,,,,,,,,,
,5e7d45108c94553d66207f51,001,2022-04-29_03h08.39.654,classification_task,2021.2.3,Win32,60.09254252,5e7d45108c94553d66207f51,626b377229c10585ec392f89,626b3a8d3faadc900a728b6a,,,,,,,,,,,,,,,,,,,,,,,,,,,,,,,,,,,,,,,2,  ,,0,0.002625739,167.5365,0,1,1,1,1,2,2,,,,,,,,,,,,,,,,,
,5e7d45108c94553d66207f51,001,2022-04-29_03h08.39.654,classification_task,2021.2.3,Win32,60.09254252,5e7d45108c94553d66207f51,626b377229c10585ec392f89,626b3a8d3faadc900a728b6a,,,,,,,,,,,,,,,,,,,,,,,,,,,,,,,,,,,,,,,,,,,,,0,1,1,1,1,,2,,,,,,,,,,,,,,,,,
,5e7d45108c94553d66207f51,001,2022-04-29_03h08.39.654,classification_task,2021.2.3,Win32,60.09254252,5e7d45108c94553d66207f51,626b377229c10585ec392f89,626b3a8d3faadc900a728b6a,,,,,,,,,,,,,,,,,,,,,space,4.4749,a,1,"[""0.188"",""0.558"",""0.893"",""0.929""]","[1,0,1,1]",0,0,0,0,1,0,1,,,0,FALSE,1.2018,,,,,,,,,,,,,,,,,,,,,,,,,,,,,,
,5e7d45108c94553d66207f51,001,2022-04-29_03h08.39.654,classification_task,2021.2.3,Win32,60.09254252,5e7d45108c94553d66207f51,626b377229c10585ec392f89,626b3a8d3faadc900a728b6a,,,,,,,,,,,,,,,,,,,,,,,l,1,"[""0.562"",""0.292"",""0.671"",""0.704""]","[0,1,1,1]",0,1,1,1,1,1,1,,,0,FALSE,3.1929,,,,,,,,,,,,,,,,,,,,,,,,,,,,,,
,5e7d45108c94553d66207f51,001,2022-04-29_03h08.39.654,classification_task,2021.2.3,Win32,60.09254252,5e7d45108c94553d66207f51,626b377229c10585ec392f89,626b3a8d3faadc900a728b6a,,,,,,,,,,,,,,,,,,,,,,,a,1,"[""0.243"",""0.492"",""0.557"",""0.966""]","[1,1,0,1]",0,2,2,2,1,0,0,,,0,FALSE,0.736,,,,,,,,,,,,,,,,,,,,,,,,,,,,,,
,5e7d45108c94553d66207f51,001,2022-04-29_03h08.39.654,classification_task,2021.2.3,Win32,60.09254252,5e7d45108c94553d66207f51,626b377229c10585ec392f89,626b3a8d3faadc900a728b6a,,,,,,,,,,,,,,,,,,,,,,,a,1,"[""0.188"",""0.426"",""0.562"",""0.929""]","[1,1,0,1]",0,3,3,3,1,0,1,,,0,FALSE,0.7851,,,,,,,,,,,,,,,,,,,,,,,,,,,,,,
,5e7d45108c94553d66207f51,001,2022-04-29_03h08.39.654,classification_task,2021.2.3,Win32,60.09254252,5e7d45108c94553d66207f51,626b377229c10585ec392f89,626b3a8d3faadc900a728b6a,,,,,,,,,,,,,,,,,,,,,,,a,1,"[""0.243"",""0.812"",""0.858"",""0.966""]","[1,0,1,1]",0,4,4,4,1,0,0,,,0,FALSE,0.6334,,,,,,,,,,,,,,,,,,,,,,,,,,,,,,
,5e7d45108c94553d66207f51,001,2022-04-29_03h08.39.654,classification_task,2021.2.3,Win32,60.09254252,5e7d45108c94553d66207f51,626b377229c10585ec392f89,626b3a8d3faadc900a728b6a,,,,,,,,,,,,,,,,,,,,,,,l,1,"[""0.152"",""0.051"",""0.603"",""0.744""]","[1,0,1,1]",0,5,5,5,1,1,0,,,0,FALSE,0.8868,,,,,,,,,,,,,,,,,,,,,,,,,,,,,,
,5e7d45108c94553d66207f51,001,2022-04-29_03h08.39.654,classification_task,2021.2.3,Win32,60.09254252,5e7d45108c94553d66207f51,626b377229c10585ec392f89,626b3a8d3faadc900a728b6a,,,,,,,,,,,,,,,,,,,,,,,l,1,"[""0.098"",""0.562"",""0.671"",""0.704""]","[1,0,1,1]",0,6,6,6,1,1,1,,,0,FALSE,1.0509,,,,,,,,,,,,,,,,,,,,,,,,,,,,,,
,5e7d45108c94553d66207f51,001,2022-04-29_03h08.39.654,classification_task,2021.2.3,Win32,60.09254252,5e7d45108c94553d66207f51,626b377229c10585ec392f89,626b3a8d3faadc900a728b6a,,,,,,,,,,,,,,,,,,,,,,,l,1,"[""0.043"",""0.354"",""0.603"",""0.744""]","[0,1,1,1]",0,7,7,7,1,1,0,,,0,FALSE,0.7839,,,,,,,,,,,,,,,,,,,,,,,,,,,,,,
,5e7d45108c94553d66207f51,001,2022-04-29_03h08.39.654,classification_task,2021.2.3,Win32,60.09254252,5e7d45108c94553d66207f51,626b377229c10585ec392f89,626b3a8d3faadc900a728b6a,,,,,,,,,,,,,,,,,,,,,,,a,1,"[""0.562"",""0.492"",""0.858"",""0.966""]","[0,1,1,1]",0,8,8,8,1,0,0,,,0,FALSE,1.0408,,,,,,,,,,,,,,,,,,,,,,,,,,,,,,
,5e7d45108c94553d66207f51,001,2022-04-29_03h08.39.654,classification_task,2021.2.3,Win32,60.09254252,5e7d45108c94553d66207f51,626b377229c10585ec392f89,626b3a8d3faadc900a728b6a,,,,,,,,,,,,,,,,,,,,,,,a,1,"[""0.243"",""0.492"",""0.858"",""0.566""]","[1,1,1,0]",0,9,9,9,1,0,0,,,0,FALSE,3.1744,,,,,,,,,,,,,,,,,,,,,,,,,,,,,,
,5e7d45108c94553d66207f51,001,2022-04-29_03h08.39.654,classification_task,2021.2.3,Win32,60.09254252,5e7d45108c94553d66207f51,626b377229c10585ec392f89,626b3a8d3faadc900a728b6a,,,,,,,,,,,,,,,,,,,,,,,a,1,"[""0.188"",""0.426"",""0.893"",""0.538""]","[1,1,1,0]",0,10,10,10,1,0,1,,,0,FALSE,6.3116,,,,,,,,,,,,,,,,,,,,,,,,,,,,,,
,5e7d45108c94553d66207f51,001,2022-04-29_03h08.39.654,classification_task,2021.2.3,Win32,60.09254252,5e7d45108c94553d66207f51,626b377229c10585ec392f89,626b3a8d3faadc900a728b6a,,,,,,,,,,,,,,,,,,,,,,,l,1,"[""0.152"",""0.354"",""0.045"",""0.744""]","[1,1,0,1]",0,11,11,11,1,1,0,,,0,FALSE,1.4331,,,,,,,,,,,,,,,,,,,,,,,,,,,,,,
,5e7d45108c94553d66207f51,001,2022-04-29_03h08.39.654,classification_task,2021.2.3,Win32,60.09254252,5e7d45108c94553d66207f51,626b377229c10585ec392f89,626b3a8d3faadc900a728b6a,,,,,,,,,,,,,,,,,,,,,,,l,1,"[""0.152"",""0.354"",""0.603"",""0.781""]","[1,1,1,0]",0,12,12,12,1,1,0,,,0,FALSE,4.9513,,,,,,,,,,,,,,,,,,,,,,,,,,,,,,
,5e7d45108c94553d66207f51,001,2022-04-29_03h08.39.654,classification_task,2021.2.3,Win32,60.09254252,5e7d45108c94553d66207f51,626b377229c10585ec392f89,626b3a8d3faadc900a728b6a,,,,,,,,,,,,,,,,,,,,,,,l,1,"[""0.098"",""0.292"",""0.563"",""0.704""]","[1,1,0,1]",0,13,13,13,1,1,1,,,0,FALSE,3.0804,,,,,,,,,,,,,,,,,,,,,,,,,,,,,,
,5e7d45108c94553d66207f51,001,2022-04-29_03h08.39.654,classification_task,2021.2.3,Win32,60.09254252,5e7d45108c94553d66207f51,626b377229c10585ec392f89,626b3a8d3faadc900a728b6a,,,,,,,,,,,,,,,,,,,,,,,l,1,"[""0.098"",""0.292"",""0.671"",""0.045""]","[1,1,1,0]",0,14,14,14,1,1,1,,,0,FALSE,8.1593,,,,,,,,,,,,,,,,,,,,,,,,,,,,,,
,5e7d45108c94553d66207f51,001,2022-04-29_03h08.39.654,classification_task,2021.2.3,Win32,60.09254252,5e7d45108c94553d66207f51,626b377229c10585ec392f89,626b3a8d3faadc900a728b6a,,,,,,,,,,,,,,,,,,,,,,,a,1,"[""0.781"",""0.426"",""0.893"",""0.929""]","[0,1,1,1]",0,15,15,15,1,0,1,,,0,FALSE,2.0532,,,,,,,,,,,,,,,,,,,,,,,,,,,,,,
,5e7d45108c94553d66207f51,001,2022-04-29_03h08.39.654,classification_task,2021.2.3,Win32,60.09254252,5e7d45108c94553d66207f51,626b377229c10585ec392f89,626b3a8d3faadc900a728b6a,,,,,,,,,,,,,,,,,,,,,,,l,1,"[""0.098"",""0.557"",""0.671"",""0.704""]","[1,0,1,1]",0,16,16,16,1,1,1,,,0,FALSE,4.6333,,,,,,,,,,,,,,,,,,,,,,,,,,,,,,
,5e7d45108c94553d66207f51,001,2022-04-29_03h08.39.654,classification_task,2021.2.3,Win32,60.09254252,5e7d45108c94553d66207f51,626b377229c10585ec392f89,626b3a8d3faadc900a728b6a,,,,,,,,,,,,,,,,,,,,,,,l,1,"[""0.781"",""0.292"",""0.671"",""0.704""]","[0,1,1,1]",0,17,17,17,1,1,1,,,0,FALSE,1.0161,,,,,,,,,,,,,,,,,,,,,,,,,,,,,,
,5e7d45108c94553d66207f51,001,2022-04-29_03h08.39.654,classification_task,2021.2.3,Win32,60.09254252,5e7d45108c94553d66207f51,626b377229c10585ec392f89,626b3a8d3faadc900a728b6a,,,,,,,,,,,,,,,,,,,,,,,l,1,"[""0.152"",""0.354"",""0.562"",""0.744""]","[1,1,0,1]",0,18,18,18,1,1,0,,,0,FALSE,4.8219,,,,,,,,,,,,,,,,,,,,,,,,,,,,,,
,5e7d45108c94553d66207f51,001,2022-04-29_03h08.39.654,classification_task,2021.2.3,Win32,60.09254252,5e7d45108c94553d66207f51,626b377229c10585ec392f89,626b3a8d3faadc900a728b6a,,,,,,,,,,,,,,,,,,,,,,,a,0,"[""0.557"",""0.354"",""0.603"",""0.744""]","[0,1,1,1]",0,19,19,19,1,1,0,,,0,FALSE,1.2601,,,,,,,,,,,,,,,,,,,,,,,,,,,,,,
,5e7d45108c94553d66207f51,001,2022-04-29_03h08.39.654,classification_task,2021.2.3,Win32,60.09254252,5e7d45108c94553d66207f51,626b377229c10585ec392f89,626b3a8d3faadc900a728b6a,,,,,,,,,,,,,,,,,,,,,,,a,1,"[""0.243"",""0.492"",""0.057"",""0.966""]","[1,1,0,1]",0,20,20,20,1,0,0,,,0,FALSE,0.7773,,,,,,,,,,,,,,,,,,,,,,,,,,,,,,
,5e7d45108c94553d66207f51,001,2022-04-29_03h08.39.654,classification_task,2021.2.3,Win32,60.09254252,5e7d45108c94553d66207f51,626b377229c10585ec392f89,626b3a8d3faadc900a728b6a,,,,,,,,,,,,,,,,,,,,,,,a,0,"[""0.152"",""0.781"",""0.603"",""0.744""]","[1,0,1,1]",0,21,21,21,1,1,0,,,0,FALSE,0.5449,,,,,,,,,,,,,,,,,,,,,,,,,,,,,,
,5e7d45108c94553d66207f51,001,2022-04-29_03h08.39.654,classification_task,2021.2.3,Win32,60.09254252,5e7d45108c94553d66207f51,626b377229c10585ec392f89,626b3a8d3faadc900a728b6a,,,,,,,,,,,,,,,,,,,,,,,l,1,"[""0.098"",""0.292"",""0.671"",""0.538""]","[1,1,1,0]",0,22,22,22,1,1,1,,,0,FALSE,0.7062,,,,,,,,,,,,,,,,,,,,,,,,,,,,,,
,5e7d45108c94553d66207f51,001,2022-04-29_03h08.39.654,classification_task,2021.2.3,Win32,60.09254252,5e7d45108c94553d66207f51,626b377229c10585ec392f89,626b3a8d3faadc900a728b6a,,,,,,,,,,,,,,,,,,,,,,,a,1,"[""0.558"",""0.426"",""0.893"",""0.929""]","[0,1,1,1]",0,23,23,23,1,0,1,,,0,FALSE,2.1341,,,,,,,,,,,,,,,,,,,,,,,,,,,,,,
,5e7d45108c94553d66207f51,001,2022-04-29_03h08.39.654,classification_task,2021.2.3,Win32,60.09254252,5e7d45108c94553d66207f51,626b377229c10585ec392f89,626b3a8d3faadc900a728b6a,,,,,,,,,,,,,,,,,,,,,,,a,1,"[""0.812"",""0.492"",""0.858"",""0.966""]","[0,1,1,1]",0,24,24,24,1,0,0,,,0,FALSE,3.2164,,,,,,,,,,,,,,,,,,,,,,,,,,,,,,
,5e7d45108c94553d66207f51,001,2022-04-29_03h08.39.654,classification_task,2021.2.3,Win32,60.09254252,5e7d45108c94553d66207f51,626b377229c10585ec392f89,626b3a8d3faadc900a728b6a,,,,,,,,,,,,,,,,,,,,,,,a,1,"[""0.188"",""0.426"",""0.893"",""0.045""]","[1,1,1,0]",0,25,25,25,1,0,1,,,0,FALSE,1.2092,,,,,,,,,,,,,,,,,,,,,,,,,,,,,,
,5e7d45108c94553d66207f51,001,2022-04-29_03h08.39.654,classification_task,2021.2.3,Win32,60.09254252,5e7d45108c94553d66207f51,626b377229c10585ec392f89,626b3a8d3faadc900a728b6a,,,,,,,,,,,,,,,,,,,,,,,a,1,"[""0.243"",""0.492"",""0.858"",""0.562""]","[1,1,1,0]",0,26,26,26,1,0,0,,,0,FALSE,0.9239,,,,,,,,,,,,,,,,,,,,,,,,,,,,,,
,5e7d45108c94553d66207f51,001,2022-04-29_03h08.39.654,classification_task,2021.2.3,Win32,60.09254252,5e7d45108c94553d66207f51,626b377229c10585ec392f89,626b3a8d3faadc900a728b6a,,,,,,,,,,,,,,,,,,,,,,,l,0,"[""0.188"",""0.557"",""0.893"",""0.929""]","[1,0,1,1]",0,27,27,27,1,0,1,,,0,FALSE,1.3196,,,,,,,,,,,,,,,,,,,,,,,,,,,,,,
,5e7d45108c94553d66207f51,001,2022-04-29_03h08.39.654,classification_task,2021.2.3,Win32,60.09254252,5e7d45108c94553d66207f51,626b377229c10585ec392f89,626b3a8d3faadc900a728b6a,,,,,,,,,,,,,,,,,,,,,,,a,1,"[""0.243"",""0.818"",""0.858"",""0.966""]","[1,0,1,1]",0,28,28,28,1,0,0,,,0,FALSE,0.8833,,,,,,,,,,,,,,,,,,,,,,,,,,,,,,
,5e7d45108c94553d66207f51,001,2022-04-29_03h08.39.654,classification_task,2021.2.3,Win32,60.09254252,5e7d45108c94553d66207f51,626b377229c10585ec392f89,626b3a8d3faadc900a728b6a,,,,,,,,,,,,,,,,,,,,,,,l,1,"[""0.098"",""0.292"",""0.557"",""0.704""]","[1,1,0,1]",0,29,29,29,1,1,1,,,0,FALSE,0.653,,,,,,,,,,,,,,,,,,,,,,,,,,,,,,
,5e7d45108c94553d66207f51,001,2022-04-29_03h08.39.654,classification_task,2021.2.3,Win32,60.09254252,5e7d45108c94553d66207f51,626b377229c10585ec392f89,626b3a8d3faadc900a728b6a,,,,,,,,,,,,,,,,,,,,,,,a,1,"[""0.188"",""0.426"",""0.563"",""0.929""]","[1,1,0,1]",0,30,30,30,1,0,1,,,0,FALSE,1.3,,,,,,,,,,,,,,,,,,,,,,,,,,,,,,
,5e7d45108c94553d66207f51,001,2022-04-29_03h08.39.654,classification_task,2021.2.3,Win32,60.09254252,5e7d45108c94553d66207f51,626b377229c10585ec392f89,626b3a8d3faadc900a728b6a,,,,,,,,,,,,,,,,,,,,,,,l,1,"[""0.152"",""0.354"",""0.603"",""0.057""]","[1,1,1,0]",0,31,31,31,1,1,0,,,0,FALSE,0.6863,,,,,,,,,,,,,,,,,,,,,,,,,,,,,,
,5e7d45108c94553d66207f51,001,2022-04-29_03h08.39.654,classification_task,2021.2.3,Win32,60.09254252,5e7d45108c94553d66207f51,626b377229c10585ec392f89,626b3a8d3faadc900a728b6a,,,,,,,,,,,,,,,,,,,,,,,a,0,"[""0.098"",""0.292"",""0.812"",""0.704""]","[1,1,0,1]",0,32,32,32,1,1,1,,,0,FALSE,1.5866,,,,,,,,,,,,,,,,,,,,,,,,,,,,,,
,5e7d45108c94553d66207f51,001,2022-04-29_03h08.39.654,classification_task,2021.2.3,Win32,60.09254252,5e7d45108c94553d66207f51,626b377229c10585ec392f89,626b3a8d3faadc900a728b6a,,,,,,,,,,,,,,,,,,,,,,,l,1,"[""0.152"",""0.354"",""0.566"",""0.744""]","[1,1,0,1]",0,33,33,33,1,1,0,,,0,FALSE,0.6017,,,,,,,,,,,,,,,,,,,,,,,,,,,,,,
,5e7d45108c94553d66207f51,001,2022-04-29_03h08.39.654,classification_task,2021.2.3,Win32,60.09254252,5e7d45108c94553d66207f51,626b377229c10585ec392f89,626b3a8d3faadc900a728b6a,,,,,,,,,,,,,,,,,,,,,,,l,1,"[""0.098"",""0.292"",""0.671"",""0.558""]","[1,1,1,0]",0,34,34,34,1,1,1,,,0,FALSE,0.8095,,,,,,,,,,,,,,,,,,,,,,,,,,,,,,
,5e7d45108c94553d66207f51,001,2022-04-29_03h08.39.654,classification_task,2021.2.3,Win32,60.09254252,5e7d45108c94553d66207f51,626b377229c10585ec392f89,626b3a8d3faadc900a728b6a,,,,,,,,,,,,,,,,,,,,,,,a,1,"[""0.243"",""0.492"",""0.811"",""0.966""]","[1,1,0,1]",0,35,35,35,1,0,0,,,0,FALSE,0.7206,,,,,,,,,,,,,,,,,,,,,,,,,,,,,,
,5e7d45108c94553d66207f51,001,2022-04-29_03h08.39.654,classification_task,2021.2.3,Win32,60.09254252,5e7d45108c94553d66207f51,626b377229c10585ec392f89,626b3a8d3faadc900a728b6a,,,,,,,,,,,,,,,,,,,,,,,a,1,"[""0.188"",""0.818"",""0.893"",""0.929""]","[1,0,1,1]",0,36,36,36,1,0,1,,,0,FALSE,0.8503,,,,,,,,,,,,,,,,,,,,,,,,,,,,,,
,5e7d45108c94553d66207f51,001,2022-04-29_03h08.39.654,classification_task,2021.2.3,Win32,60.09254252,5e7d45108c94553d66207f51,626b377229c10585ec392f89,626b3a8d3faadc900a728b6a,,,,,,,,,,,,,,,,,,,,,,,l,1,"[""0.152"",""0.354"",""0.603"",""0.043""]","[1,1,1,0]",0,37,37,37,1,1,0,,,0,FALSE,0.7045,,,,,,,,,,,,,,,,,,,,,,,,,,,,,,
,5e7d45108c94553d66207f51,001,2022-04-29_03h08.39.654,classification_task,2021.2.3,Win32,60.09254252,5e7d45108c94553d66207f51,626b377229c10585ec392f89,626b3a8d3faadc900a728b6a,,,,,,,,,,,,,,,,,,,,,,,l,1,"[""0.098"",""0.558"",""0.671"",""0.704""]","[1,0,1,1]",0,38,38,38,1,1,1,,,0,FALSE,0.6829,,,,,,,,,,,,,,,,,,,,,,,,,,,,,,
,5e7d45108c94553d66207f51,001,2022-04-29_03h08.39.654,classification_task,2021.2.3,Win32,60.09254252,5e7d45108c94553d66207f51,626b377229c10585ec392f89,626b3a8d3faadc900a728b6a,,,,,,,,,,,,,,,,,,,,,,,a,1,"[""0.057"",""0.426"",""0.893"",""0.929""]","[0,1,1,1]",0,39,39,39,1,0,1,,,0,FALSE,0.9999,,,,,,,,,,,,,,,,,,,,,,,,,,,,,,
,5e7d45108c94553d66207f51,001,2022-04-29_03h08.39.654,classification_task,2021.2.3,Win32,60.09254252,5e7d45108c94553d66207f51,626b377229c10585ec392f89,626b3a8d3faadc900a728b6a,,,,,,,,,,,,,,,,,,,,,,,a,1,"[""0.188"",""0.426"",""0.893"",""0.391""]","[1,1,1,0]",0,40,40,40,1,0,1,,,0,FALSE,0.7508,,,,,,,,,,,,,,,,,,,,,,,,,,,,,,
,5e7d45108c94553d66207f51,001,2022-04-29_03h08.39.654,classification_task,2021.2.3,Win32,60.09254252,5e7d45108c94553d66207f51,626b377229c10585ec392f89,626b3a8d3faadc900a728b6a,,,,,,,,,,,,,,,,,,,,,,,a,1,"[""0.188"",""0.426"",""0.043"",""0.929""]","[1,1,0,1]",0,41,41,41,1,0,1,,,0,FALSE,0.7609,,,,,,,,,,,,,,,,,,,,,,,,,,,,,,
,5e7d45108c94553d66207f51,001,2022-04-29_03h08.39.654,classification_task,2021.2.3,Win32,60.09254252,5e7d45108c94553d66207f51,626b377229c10585ec392f89,626b3a8d3faadc900a728b6a,,,,,,,,,,,,,,,,,,,,,,,a,1,"[""0.243"",""0.492"",""0.858"",""0.045""]","[1,1,1,0]",0,42,42,42,1,0,0,,,0,FALSE,1.4331,,,,,,,,,,,,,,,,,,,,,,,,,,,,,,
,5e7d45108c94553d66207f51,001,2022-04-29_03h08.39.654,classification_task,2021.2.3,Win32,60.09254252,5e7d45108c94553d66207f51,626b377229c10585ec392f89,626b3a8d3faadc900a728b6a,,,,,,,,,,,,,,,,,,,,,,,l,1,"[""0.391"",""0.292"",""0.671"",""0.704""]","[0,1,1,1]",0,43,43,43,1,1,1,,,0,FALSE,0.8887,,,,,,,,,,,,,,,,,,,,,,,,,,,,,,
,5e7d45108c94553d66207f51,001,2022-04-29_03h08.39.654,classification_task,2021.2.3,Win32,60.09254252,5e7d45108c94553d66207f51,626b377229c10585ec392f89,626b3a8d3faadc900a728b6a,,,,,,,,,,,,,,,,,,,,,,,l,1,"[""0.152"",""0.562"",""0.603"",""0.744""]","[1,0,1,1]",0,44,44,44,1,1,0,,,0,FALSE,0.9322,,,,,,,,,,,,,,,,,,,,,,,,,,,,,,
,5e7d45108c94553d66207f51,001,2022-04-29_03h08.39.654,classification_task,2021.2.3,Win32,60.09254252,5e7d45108c94553d66207f51,626b377229c10585ec392f89,626b3a8d3faadc900a728b6a,,,,,,,,,,,,,,,,,,,,,,,a,1,"[""0.243"",""0.045"",""0.858"",""0.966""]","[1,0,1,1]",0,45,45,45,1,0,0,,,0,FALSE,0.8691,,,,,,,,,,,,,,,,,,,,,,,,,,,,,,
,5e7d45108c94553d66207f51,001,2022-04-29_03h08.39.654,classification_task,2021.2.3,Win32,60.09254252,5e7d45108c94553d66207f51,626b377229c10585ec392f89,626b3a8d3faadc900a728b6a,,,,,,,,,,,,,,,,,,,,,,,a,1,"[""0.566"",""0.492"",""0.858"",""0.966""]","[0,1,1,1]",0,46,46,46,1,0,0,,,0,FALSE,0.7698,,,,,,,,,,,,,,,,,,,,,,,,,,,,,,
,5e7d45108c94553d66207f51,001,2022-04-29_03h08.39.654,classification_task,2021.2.3,Win32,60.09254252,5e7d45108c94553d66207f51,626b377229c10585ec392f89,626b3a8d3faadc900a728b6a,,,,,,,,,,,,,,,,,,,,,,,l,1,"[""0.811"",""0.354"",""0.603"",""0.744""]","[0,1,1,1]",0,47,47,47,1,1,0,,,0,FALSE,0.9544,,,,,,,,,,,,,,,,,,,,,,,,,,,,,,
,5e7d45108c94553d66207f51,001,2022-04-29_03h08.39.654,classification_task,2021.2.3,Win32,60.09254252,5e7d45108c94553d66207f51,626b377229c10585ec392f89,626b3a8d3faadc900a728b6a,,,,,,,,,,,,,,,,,,,,,,,a,1,"[""0.243"",""0.492"",""0.043"",""0.966""]","[1,1,0,1]",0,48,48,48,1,0,0,,,0,FALSE,0.6121,,,,,,,,,,,,,,,,,,,,,,,,,,,,,,
,5e7d45108c94553d66207f51,001,2022-04-29_03h08.39.654,classification_task,2021.2.3,Win32,60.09254252,5e7d45108c94553d66207f51,626b377229c10585ec392f89,626b3a8d3faadc900a728b6a,,,,,,,,,,,,,,,,,,,,,,,l,1,"[""0.098"",""0.292"",""0.671"",""0.391""]","[1,1,1,0]",0,49,49,49,1,1,1,,,0,FALSE,1.0425,,,,,,,,,,,,,,,,,,,,,,,,,,,,,,
,5e7d45108c94553d66207f51,001,2022-04-29_03h08.39.654,classification_task,2021.2.3,Win32,60.09254252,5e7d45108c94553d66207f51,626b377229c10585ec392f89,626b3a8d3faadc900a728b6a,,,,,,,,,,,,,,,,,,,,,,,l,1,"[""0.152"",""0.354"",""0.603"",""0.781""]","[1,1,1,0]",0,50,50,50,1,1,0,,,0,FALSE,1.0248,,,,,,,,,,,,,,,,,,,,,,,,,,,,,,
,5e7d45108c94553d66207f51,001,2022-04-29_03h08.39.654,classification_task,2021.2.3,Win32,60.09254252,5e7d45108c94553d66207f51,626b377229c10585ec392f89,626b3a8d3faadc900a728b6a,,,,,,,,,,,,,,,,,,,,,,,a,1,"[""0.043"",""0.492"",""0.858"",""0.966""]","[0,1,1,1]",0,51,51,51,1,0,0,,,0,FALSE,0.935,,,,,,,,,,,,,,,,,,,,,,,,,,,,,,
,5e7d45108c94553d66207f51,001,2022-04-29_03h08.39.654,classification_task,2021.2.3,Win32,60.09254252,5e7d45108c94553d66207f51,626b377229c10585ec392f89,626b3a8d3faadc900a728b6a,,,,,,,,,,,,,,,,,,,,,,,l,1,"[""0.152"",""0.566"",""0.603"",""0.744""]","[1,0,1,1]",0,52,52,52,1,1,0,,,0,FALSE,0.7002,,,,,,,,,,,,,,,,,,,,,,,,,,,,,,
,5e7d45108c94553d66207f51,001,2022-04-29_03h08.39.654,classification_task,2021.2.3,Win32,60.09254252,5e7d45108c94553d66207f51,626b377229c10585ec392f89,626b3a8d3faadc900a728b6a,,,,,,,,,,,,,,,,,,,,,,,a,1,"[""0.188"",""0.566"",""0.893"",""0.929""]","[1,0,1,1]",0,53,53,53,1,0,1,,,0,FALSE,0.6353,,,,,,,,,,,,,,,,,,,,,,,,,,,,,,
,5e7d45108c94553d66207f51,001,2022-04-29_03h08.39.654,classification_task,2021.2.3,Win32,60.09254252,5e7d45108c94553d66207f51,626b377229c10585ec392f89,626b3a8d3faadc900a728b6a,,,,,,,,,,,,,,,,,,,,,,,l,1,"[""0.098"",""0.811"",""0.671"",""0.704""]","[1,0,1,1]",0,54,54,54,1,1,1,,,0,FALSE,1.2331,,,,,,,,,,,,,,,,,,,,,,,,,,,,,,
,5e7d45108c94553d66207f51,001,2022-04-29_03h08.39.654,classification_task,2021.2.3,Win32,60.09254252,5e7d45108c94553d66207f51,626b377229c10585ec392f89,626b3a8d3faadc900a728b6a,,,,,,,,,,,,,,,,,,,,,,,l,1,"[""0.098"",""0.292"",""0.566"",""0.704""]","[1,1,0,1]",0,55,55,55,1,1,1,,,0,FALSE,0.8167,,,,,,,,,,,,,,,,,,,,,,,,,,,,,,
,5e7d45108c94553d66207f51,001,2022-04-29_03h08.39.654,classification_task,2021.2.3,Win32,60.09254252,5e7d45108c94553d66207f51,626b377229c10585ec392f89,626b3a8d3faadc900a728b6a,,,,,,,,,,,,,,,,,,,,,,,l,0,"[""0.391"",""0.426"",""0.893"",""0.929""]","[0,1,1,1]",0,56,56,56,1,0,1,,,0,FALSE,0.6802,,,,,,,,,,,,,,,,,,,,,,,,,,,,,,
,5e7d45108c94553d66207f51,001,2022-04-29_03h08.39.654,classification_task,2021.2.3,Win32,60.09254252,5e7d45108c94553d66207f51,626b377229c10585ec392f89,626b3a8d3faadc900a728b6a,,,,,,,,,,,,,,,,,,,,,,,l,0,"[""0.243"",""0.492"",""0.858"",""0.391""]","[1,1,1,0]",0,57,57,57,1,0,0,,,0,FALSE,0.7077,,,,,,,,,,,,,,,,,,,,,,,,,,,,,,
,5e7d45108c94553d66207f51,001,2022-04-29_03h08.39.654,classification_task,2021.2.3,Win32,60.09254252,5e7d45108c94553d66207f51,626b377229c10585ec392f89,626b3a8d3faadc900a728b6a,,,,,,,,,,,,,,,,,,,,,,,a,1,"[""0.243"",""0.811"",""0.858"",""0.966""]","[1,0,1,1]",0,58,58,58,1,0,0,,,0,FALSE,1.4071,,,,,,,,,,,,,,,,,,,,,,,,,,,,,,
,5e7d45108c94553d66207f51,001,2022-04-29_03h08.39.654,classification_task,2021.2.3,Win32,60.09254252,5e7d45108c94553d66207f51,626b377229c10585ec392f89,626b3a8d3faadc900a728b6a,,,,,,,,,,,,,,,,,,,,,,,a,1,"[""0.188"",""0.426"",""0.893"",""0.781""]","[1,1,1,0]",0,59,59,59,1,0,1,,,0,FALSE,1.0783,,,,,,,,,,,,,,,,,,,,,,,,,,,,,,
,5e7d45108c94553d66207f51,001,2022-04-29_03h08.39.654,classification_task,2021.2.3,Win32,60.09254252,5e7d45108c94553d66207f51,626b377229c10585ec392f89,626b3a8d3faadc900a728b6a,,,,,,,,,,,,,,,,,,,,,,,a,0,"[""0.818"",""0.354"",""0.603"",""0.744""]","[0,1,1,1]",0,60,60,60,1,1,0,,,0,FALSE,1.3225,,,,,,,,,,,,,,,,,,,,,,,,,,,,,,
,5e7d45108c94553d66207f51,001,2022-04-29_03h08.39.654,classification_task,2021.2.3,Win32,60.09254252,5e7d45108c94553d66207f51,626b377229c10585ec392f89,626b3a8d3faadc900a728b6a,,,,,,,,,,,,,,,,,,,,,,,l,0,"[""0.188"",""0.426"",""0.029"",""0.929""]","[1,1,0,1]",0,61,61,61,1,0,1,,,0,FALSE,0.5562,,,,,,,,,,,,,,,,,,,,,,,,,,,,,,
,5e7d45108c94553d66207f51,001,2022-04-29_03h08.39.654,classification_task,2021.2.3,Win32,60.09254252,5e7d45108c94553d66207f51,626b377229c10585ec392f89,626b3a8d3faadc900a728b6a,,,,,,,,,,,,,,,,,,,,,,,l,1,"[""0.558"",""0.292"",""0.671"",""0.704""]","[0,1,1,1]",0,62,62,62,1,1,1,,,0,FALSE,0.6543,,,,,,,,,,,,,,,,,,,,,,,,,,,,,,
,5e7d45108c94553d66207f51,001,2022-04-29_03h08.39.654,classification_task,2021.2.3,Win32,60.09254252,5e7d45108c94553d66207f51,626b377229c10585ec392f89,626b3a8d3faadc900a728b6a,,,,,,,,,,,,,,,,,,,,,,,l,1,"[""0.152"",""0.354"",""0.566"",""0.744""]","[1,1,0,1]",0,63,63,63,1,1,0,,,0,FALSE,0.7072,,,,,,,,,,,,,,,,,,,,,,,,,,,,,,
,5e7d45108c94553d66207f51,001,2022-04-29_03h08.39.654,classification_task,2021.2.3,Win32,60.09254252,5e7d45108c94553d66207f51,626b377229c10585ec392f89,626b3a8d3faadc900a728b6a,,,,,,,,,,,,,,,,,,,,,,,,,,,,,,,,,,,,,,,0, ,,0,4.520026201,169.2171,0,2,2,2,1,2,3,,,,,,,,,,,,,,,,,
,5e7d45108c94553d66207f51,001,2022-04-29_03h08.39.654,classification_task,2021.2.3,Win32,60.09254252,5e7d45108c94553d66207f51,626b377229c10585ec392f89,626b3a8d3faadc900a728b6a,,,,,,,,,,,,,,,,,,,,,,,,,,,,,,,,,,,,,,,1,  ,,0,10,170.9909,0,2,2,2,1,2,3,,,,,,,,,,,,,,,,,
,5e7d45108c94553d66207f51,001,2022-04-29_03h08.39.654,classification_task,2021.2.3,Win32,60.09254252,5e7d45108c94553d66207f51,626b377229c10585ec392f89,626b3a8d3faadc900a728b6a,,,,,,,,,,,,,,,,,,,,,,,,,,,,,,,,,,,,,,,2,  ,,0,0.087326998,172.1254,0,2,2,2,1,2,3,,,,,,,,,,,,,,,,,
,5e7d45108c94553d66207f51,001,2022-04-29_03h08.39.654,classification_task,2021.2.3,Win32,60.09254252,5e7d45108c94553d66207f51,626b377229c10585ec392f89,626b3a8d3faadc900a728b6a,,,,,,,,,,,,,,,,,,,,,,,,,,,,,,,,,,,,,,,,,,,,,0,2,2,2,1,,3,,,,,,,,,,,,,,,,,
,5e7d45108c94553d66207f51,001,2022-04-29_03h08.39.654,classification_task,2021.2.3,Win32,60.09254252,5e7d45108c94553d66207f51,626b377229c10585ec392f89,626b3a8d3faadc900a728b6a,,,,,,,,,,,,,,,,,,,,,,,,,,,,,,,,,,,,,,,,,,,,,,,,,,,,,I believe the aid is a competent performer,,0.7,0,2,970.9047,0,0,0,0,1,0,,,,
,5e7d45108c94553d66207f51,001,2022-04-29_03h08.39.654,classification_task,2021.2.3,Win32,60.09254252,5e7d45108c94553d66207f51,626b377229c10585ec392f89,626b3a8d3faadc900a728b6a,,,,,,,,,,,,,,,,,,,,,,,,,,,,,,,,,,,,,,,,,,,,,,,,,,,,,I trust the aid,,0.7,0,3,975.9238,0,0,0,0,1,0,,,,
,5e7d45108c94553d66207f51,001,2022-04-29_03h08.39.654,classification_task,2021.2.3,Win32,60.09254252,5e7d45108c94553d66207f51,626b377229c10585ec392f89,626b3a8d3faadc900a728b6a,,,,,,,,,,,,,,,,,,,,,,,,,,,,,,,,,,,,,,,,,,,,,,,,,,,,,I have confidence in the advice given by the aid,,0.7,0,4,978.6478,0,0,0,0,1,0,,,,
,5e7d45108c94553d66207f51,001,2022-04-29_03h08.39.654,classification_task,2021.2.3,Win32,60.09254252,5e7d45108c94553d66207f51,626b377229c10585ec392f89,626b3a8d3faadc900a728b6a,,,,,,,,,,,,,,,,,,,,,,,,,,,,,,,,,,,,,,,,,,,,,,,,,,,,,I can depend on the aid,,0.7,0,3,972.6515,0,0,0,0,1,0,,,,
,5e7d45108c94553d66207f51,001,2022-04-29_03h08.39.654,classification_task,2021.2.3,Win32,60.09254252,5e7d45108c94553d66207f51,626b377229c10585ec392f89,626b3a8d3faadc900a728b6a,,,,,,,,,,,,,,,,,,,,,,,,,,,,,,,,,,,,,,,,,,,,,,,,,,,,,I can rely on the aid to behave in consistent ways,,0.7,0,2,980.9828,0,0,0,0,1,0,,,,
,5e7d45108c94553d66207f51,001,2022-04-29_03h08.39.654,classification_task,2021.2.3,Win32,60.09254252,5e7d45108c94553d66207f51,626b377229c10585ec392f89,626b3a8d3faadc900a728b6a,,,,,,,,,,,,,,,,,,,,,,,,,,,,,,,,,,,,,,,,,,,,,,,,,,,,,I can rely on the aid to do its best every time I take its advice,,0.7,0,2,983.1066,0,0,0,0,1,0,,,,
,5e7d45108c94553d66207f51,001,2022-04-29_03h08.39.654,classification_task,2021.2.3,Win32,60.09254252,5e7d45108c94553d66207f51,626b377229c10585ec392f89,626b3a8d3faadc900a728b6a,,,,,,,,,,,,,,,,,,,,,,,,,,,,,,,,,,,,,,,,,,,,,,,,,,,,,"On trials you completed with assistance from the aid, how frequently did you think the aid was correct?",,0.7,0,85%,,0,0,0,0,1,0,,,,
,5e7d45108c94553d66207f51,001,2022-04-29_03h08.39.654,classification_task,2021.2.3,Win32,60.09254252,5e7d45108c94553d66207f51,626b377229c10585ec392f89,626b3a8d3faadc900a728b6a,,,,,,,,,,,,,,,,,,,,,,,,,,,,,,,,,,,,,,,,,,,,,,,,,,,,,"On trials you completed without the aid, how frequently did you think you were correct?",,0.7,0,74%,,0,0,0,0,1,0,,,,
,5e7d45108c94553d66207f51,001,2022-04-29_03h08.39.654,classification_task,2021.2.3,Win32,60.09254252,5e7d45108c94553d66207f51,626b377229c10585ec392f89,626b3a8d3faadc900a728b6a,,,,,,,,,,,,,,,,,,,,,,,,,,,,,,,,,,,,,,,,,,,,,,,,,,,,,,,,,,,0,0,0,0,1,,,,,
,5e7d45108c94553d66207f51,001,2022-04-29_03h08.39.654,classification_task,2021.2.3,Win32,60.09254252,5e7d45108c94553d66207f51,626b377229c10585ec392f89,626b3a8d3faadc900a728b6a,,,,,,,,,,,,,,,,,,,,,,,,,,,,,,,,,,,,,,,,,,,,,,,,,,,,,,,,,,,,,,,,,space,19.6898,1037.3146,
,5e7d45108c94553d66207f51,001,2022-04-29_03h08.39.654,classification_task,2021.2.3,Win32,60.09254252,5e7d45108c94553d66207f51,626b377229c10585ec392f89,626b3a8d3faadc900a728b6a,,,,,,,,,,,,,,,,,,,,,,,,,,,,,,,,,,,,,,,,,,,,,,,,,,,,,,,,,,,,,,,,,,,,"Mozilla/5.0 (Windows NT 10.0; Win64; x64) AppleWebKit/537.36 (KHTML, like Gecko) Chrome/101.0.4951.41 Safari/537.36"
