usingWebGL,participant,session,date,expName,psychopyVersion,OS,frameRate,PROLIFIC_PID,STUDY_ID,SESSION_ID,signatures_friend,signatures_foe,band_ranges_top,band_ranges_bottom,formitemText,formtype,formundefined,formitemWidth,formindex,formresponse,formrt,key_resp_2.keys,key_resp_2.rt,tute_resp.keys,tute_resp.rt,tutorial.thisRepN,tutorial.thisTrialN,tutorial.thisN,tutorial.thisIndex,tutorial.ran,key_resp_4.keys,key_resp_4.rt,key_resp.keys,key_resp.corr,key_resp.rt,lines_presented,is_signal_presented,trials.thisRepN,trials.thisTrialN,trials.thisN,trials.thisIndex,trials.ran,vessel,active_band,lines,is_signal,supported_pos,catch_trial,debrief_formindex,debrief_formitemText,debrief_formtype,debrief_formitemWidth,debrief_formresponse,debrief_formrt,phases.thisRepN,phases.thisTrialN,phases.thisN,phases.thisIndex,phases.ran,phases.order,phase,key_resp_3.keys,trustitemText,trusttype,trustitemWidth,trustindex,trustresponse,trustrt,support_status.thisRepN,support_status.thisTrialN,support_status.thisN,support_status.thisIndex,support_status.ran,support_status.order,key_resp_5.keys,key_resp_5.rt,globalClockTime,userAgent
TRUE,5e8348450e128b0539d77ddc,001,2022-04-29_04h11.29.355,classification_task,2021.2.3,Win32,60.0240096,5e8348450e128b0539d77ddc,626b377229c10585ec392f8a,626b3a644f48837dbde9ab41,,,,,,,,,,,,,,,,,,,,,,,,,,,,,,,,,,,,,,,,,,,,,,,,,,,,,,,,,,,,,,,,,,,,
,5e8348450e128b0539d77ddc,001,2022-04-29_04h11.29.355,classification_task,2021.2.3,Win32,60.0240096,5e8348450e128b0539d77ddc,626b377229c10585ec392f8a,626b3a644f48837dbde9ab41,"[[""0.165"",""0.333"",""0.827"",""0.899""],[""0.287"",""0.532"",""0.863"",""0.958""]]","[[""0.124"",""0.248"",""0.471"",""0.790""],[""0.045"",""0.080"",""0.619"",""0.695""]]","[1,10]","[100,1000]",Video game experience,,,0.7,0,,,,,,,,,,,,,,,,,,,,,,,,,,,,,,,,,,,,,,,,,,,,,,,,,,,,,,,,,,,
,5e8348450e128b0539d77ddc,001,2022-04-29_04h11.29.355,classification_task,2021.2.3,Win32,60.0240096,5e8348450e128b0539d77ddc,626b377229c10585ec392f8a,626b3a644f48837dbde9ab41,,,,,Approximately how many hours did you spend playing video games in the last week?,,,0.7,0,0,,,,,,,,,,,,,,,,,,,,,,,,,,,,,,,,,,,,,,,,,,,,,,,,,,,,,,,,,,
,5e8348450e128b0539d77ddc,001,2022-04-29_04h11.29.355,classification_task,2021.2.3,Win32,60.0240096,5e8348450e128b0539d77ddc,626b377229c10585ec392f8a,626b3a644f48837dbde9ab41,,,,,"Which game did you play the most this year? (Enter ""None"" if you didn't play any)",,,0.7,0,None,,,,,,,,,,,,,,,,,,,,,,,,,,,,,,,,,,,,,,,,,,,,,,,,,,,,,,,,,,
,5e8348450e128b0539d77ddc,001,2022-04-29_04h11.29.355,classification_task,2021.2.3,Win32,60.0240096,5e8348450e128b0539d77ddc,626b377229c10585ec392f8a,626b3a644f48837dbde9ab41,,,,,Visual perception,,,0.7,0,,,,,,,,,,,,,,,,,,,,,,,,,,,,,,,,,,,,,,,,,,,,,,,,,,,,,,,,,,,
,5e8348450e128b0539d77ddc,001,2022-04-29_04h11.29.355,classification_task,2021.2.3,Win32,60.0240096,5e8348450e128b0539d77ddc,626b377229c10585ec392f8a,626b3a644f48837dbde9ab41,,,,,Do you have any form of color blindness?,,,0.7,0,No,23.005,,,,,,,,,,,,,,,,,,,,,,,,,,,,,,,,,,,,,,,,,,,,,,,,,,,,,,,,,
,5e8348450e128b0539d77ddc,001,2022-04-29_04h11.29.355,classification_task,2021.2.3,Win32,60.0240096,5e8348450e128b0539d77ddc,626b377229c10585ec392f8a,626b3a644f48837dbde9ab41,,,,,Do you use software to change the colour temperature of your screen (e.g. f.lux)?,,,0.7,0,No,24.318,,,,,,,,,,,,,,,,,,,,,,,,,,,,,,,,,,,,,,,,,,,,,,,,,,,,,,,,,
,5e8348450e128b0539d77ddc,001,2022-04-29_04h11.29.355,classification_task,2021.2.3,Win32,60.0240096,5e8348450e128b0539d77ddc,626b377229c10585ec392f8a,626b3a644f48837dbde9ab41,,,,,,,,,,,,space,53.435,space,34.722,0,0,0,0,1,,,,,,,,,,,,,,,,,,,,,,,,,,,,,,,,,,,,,,,,,,,,,,,,
,5e8348450e128b0539d77ddc,001,2022-04-29_04h11.29.355,classification_task,2021.2.3,Win32,60.0240096,5e8348450e128b0539d77ddc,626b377229c10585ec392f8a,626b3a644f48837dbde9ab41,,,,,,,,,,,,,,space,17.971,1,0,1,0,1,,,,,,,,,,,,,,,,,,,,,,,,,,,,,,,,,,,,,,,,,,,,,,,,
,5e8348450e128b0539d77ddc,001,2022-04-29_04h11.29.355,classification_task,2021.2.3,Win32,60.0240096,5e8348450e128b0539d77ddc,626b377229c10585ec392f8a,626b3a644f48837dbde9ab41,,,,,,,,,,,,,,space,37.787,2,0,2,0,1,,,,,,,,,,,,,,,,,,,,,,,,,,,,,,,,,,,,,,,,,,,,,,,,
,5e8348450e128b0539d77ddc,001,2022-04-29_04h11.29.355,classification_task,2021.2.3,Win32,60.0240096,5e8348450e128b0539d77ddc,626b377229c10585ec392f8a,626b3a644f48837dbde9ab41,,,,,,,,,,,,,,space,14.121,3,0,3,0,1,,,,,,,,,,,,,,,,,,,,,,,,,,,,,,,,,,,,,,,,,,,,,,,,
,5e8348450e128b0539d77ddc,001,2022-04-29_04h11.29.355,classification_task,2021.2.3,Win32,60.0240096,5e8348450e128b0539d77ddc,626b377229c10585ec392f8a,626b3a644f48837dbde9ab41,,,,,,,,,,,,,,space,52.344,4,0,4,0,1,,,,,,,,,,,,,,,,,,,,,,,,,,,,,,,,,,,,,,,,,,,,,,,,
,5e8348450e128b0539d77ddc,001,2022-04-29_04h11.29.355,classification_task,2021.2.3,Win32,60.0240096,5e8348450e128b0539d77ddc,626b377229c10585ec392f8a,626b3a644f48837dbde9ab41,,,,,,,,,,,,,,,,,,,,,space,26.169,l,1,4.147,"[""0.045"",""0.080"",""0.619"",""0.378""]","[1,1,1,0]",0,0,0,0,1,1,1,,,0,FALSE,,,,,,,,,,,,,,,,,,,,,,,,,,,,,,
,5e8348450e128b0539d77ddc,001,2022-04-29_04h11.29.355,classification_task,2021.2.3,Win32,60.0240096,5e8348450e128b0539d77ddc,626b377229c10585ec392f8a,626b3a644f48837dbde9ab41,,,,,,,,,,,,,,,,,,,,,,,a,1,6.717,"[""0.585"",""0.333"",""0.827"",""0.899""]","[0,1,1,1]",0,1,1,1,1,0,0,,,0,FALSE,,,,,,,,,,,,,,,,,,,,,,,,,,,,,,
,5e8348450e128b0539d77ddc,001,2022-04-29_04h11.29.355,classification_task,2021.2.3,Win32,60.0240096,5e8348450e128b0539d77ddc,626b377229c10585ec392f8a,626b3a644f48837dbde9ab41,,,,,,,,,,,,,,,,,,,,,,,,0,,"[""0.287"",""0.566"",""0.863"",""0.958""]","[1,0,1,1]",0,2,2,2,1,0,1,,,0,FALSE,,,,,,,,,,,,,,,,,,,,,,,,,,,,,,
,5e8348450e128b0539d77ddc,001,2022-04-29_04h11.29.355,classification_task,2021.2.3,Win32,60.0240096,5e8348450e128b0539d77ddc,626b377229c10585ec392f8a,626b3a644f48837dbde9ab41,,,,,,,,,,,,,,,,,,,,,,,a,1,3.434,"[""0.287"",""0.532"",""0.863"",""0.730""]","[1,1,1,0]",0,3,3,3,1,0,1,,,0,FALSE,,,,,,,,,,,,,,,,,,,,,,,,,,,,,,
,5e8348450e128b0539d77ddc,001,2022-04-29_04h11.29.355,classification_task,2021.2.3,Win32,60.0240096,5e8348450e128b0539d77ddc,626b377229c10585ec392f8a,626b3a644f48837dbde9ab41,,,,,,,,,,,,,,,,,,,,,,,a,1,3.521,"[""0.165"",""0.333"",""0.585"",""0.899""]","[1,1,0,1]",0,4,4,4,1,0,0,,,0,FALSE,,,,,,,,,,,,,,,,,,,,,,,,,,,,,,
,5e8348450e128b0539d77ddc,001,2022-04-29_04h11.29.355,classification_task,2021.2.3,Win32,60.0240096,5e8348450e128b0539d77ddc,626b377229c10585ec392f8a,626b3a644f48837dbde9ab41,,,,,,,,,,,,,,,,,,,,,,,l,1,3.88,"[""0.124"",""0.378"",""0.471"",""0.790""]","[1,0,1,1]",0,5,5,5,1,1,0,,,0,FALSE,,,,,,,,,,,,,,,,,,,,,,,,,,,,,,
,5e8348450e128b0539d77ddc,001,2022-04-29_04h11.29.355,classification_task,2021.2.3,Win32,60.0240096,5e8348450e128b0539d77ddc,626b377229c10585ec392f8a,626b3a644f48837dbde9ab41,,,,,,,,,,,,,,,,,,,,,,,a,1,5.535,"[""0.585"",""0.532"",""0.863"",""0.958""]","[0,1,1,1]",0,6,6,6,1,0,1,,,0,FALSE,,,,,,,,,,,,,,,,,,,,,,,,,,,,,,
,5e8348450e128b0539d77ddc,001,2022-04-29_04h11.29.355,classification_task,2021.2.3,Win32,60.0240096,5e8348450e128b0539d77ddc,626b377229c10585ec392f8a,626b3a644f48837dbde9ab41,,,,,,,,,,,,,,,,,,,,,,,l,1,4.034,"[""0.388"",""0.248"",""0.471"",""0.790""]","[0,1,1,1]",0,7,7,7,1,1,0,,,0,FALSE,,,,,,,,,,,,,,,,,,,,,,,,,,,,,,
,5e8348450e128b0539d77ddc,001,2022-04-29_04h11.29.355,classification_task,2021.2.3,Win32,60.0240096,5e8348450e128b0539d77ddc,626b377229c10585ec392f8a,626b3a644f48837dbde9ab41,,,,,,,,,,,,,,,,,,,,,,,l,1,4.8,"[""0.394"",""0.080"",""0.619"",""0.695""]","[0,1,1,1]",0,8,8,8,1,1,1,,,0,FALSE,,,,,,,,,,,,,,,,,,,,,,,,,,,,,,
,5e8348450e128b0539d77ddc,001,2022-04-29_04h11.29.355,classification_task,2021.2.3,Win32,60.0240096,5e8348450e128b0539d77ddc,626b377229c10585ec392f8a,626b3a644f48837dbde9ab41,,,,,,,,,,,,,,,,,,,,,,,l,1,4.549,"[""0.045"",""0.739"",""0.619"",""0.695""]","[1,0,1,1]",0,9,9,9,1,1,1,,,0,FALSE,,,,,,,,,,,,,,,,,,,,,,,,,,,,,,
,5e8348450e128b0539d77ddc,001,2022-04-29_04h11.29.355,classification_task,2021.2.3,Win32,60.0240096,5e8348450e128b0539d77ddc,626b377229c10585ec392f8a,626b3a644f48837dbde9ab41,,,,,,,,,,,,,,,,,,,,,,,l,1,3.642,"[""0.124"",""0.248"",""0.378"",""0.790""]","[1,1,0,1]",0,10,10,10,1,1,0,,,0,FALSE,,,,,,,,,,,,,,,,,,,,,,,,,,,,,,
,5e8348450e128b0539d77ddc,001,2022-04-29_04h11.29.355,classification_task,2021.2.3,Win32,60.0240096,5e8348450e128b0539d77ddc,626b377229c10585ec392f8a,626b3a644f48837dbde9ab41,,,,,,,,,,,,,,,,,,,,,,,a,1,5.166,"[""0.287"",""0.532"",""0.572"",""0.958""]","[1,1,0,1]",0,11,11,11,1,0,1,,,0,FALSE,,,,,,,,,,,,,,,,,,,,,,,,,,,,,,
,5e8348450e128b0539d77ddc,001,2022-04-29_04h11.29.355,classification_task,2021.2.3,Win32,60.0240096,5e8348450e128b0539d77ddc,626b377229c10585ec392f8a,626b3a644f48837dbde9ab41,,,,,,,,,,,,,,,,,,,,,,,a,1,3.851,"[""0.165"",""0.333"",""0.827"",""0.394""]","[1,1,1,0]",0,12,12,12,1,0,0,,,0,FALSE,,,,,,,,,,,,,,,,,,,,,,,,,,,,,,
,5e8348450e128b0539d77ddc,001,2022-04-29_04h11.29.355,classification_task,2021.2.3,Win32,60.0240096,5e8348450e128b0539d77ddc,626b377229c10585ec392f8a,626b3a644f48837dbde9ab41,,,,,,,,,,,,,,,,,,,,,,,l,1,3.829,"[""0.124"",""0.248"",""0.471"",""0.657""]","[1,1,1,0]",0,13,13,13,1,1,0,,,0,FALSE,,,,,,,,,,,,,,,,,,,,,,,,,,,,,,
,5e8348450e128b0539d77ddc,001,2022-04-29_04h11.29.355,classification_task,2021.2.3,Win32,60.0240096,5e8348450e128b0539d77ddc,626b377229c10585ec392f8a,626b3a644f48837dbde9ab41,,,,,,,,,,,,,,,,,,,,,,,a,1,5.896,"[""0.165"",""0.739"",""0.827"",""0.899""]","[1,0,1,1]",0,14,14,14,1,0,0,,,0,FALSE,,,,,,,,,,,,,,,,,,,,,,,,,,,,,,
,5e8348450e128b0539d77ddc,001,2022-04-29_04h11.29.355,classification_task,2021.2.3,Win32,60.0240096,5e8348450e128b0539d77ddc,626b377229c10585ec392f8a,626b3a644f48837dbde9ab41,,,,,,,,,,,,,,,,,,,,,,,l,1,3.205,"[""0.045"",""0.080"",""0.394"",""0.695""]","[1,1,0,1]",0,15,15,15,1,1,1,,,0,FALSE,,,,,,,,,,,,,,,,,,,,,,,,,,,,,,
,5e8348450e128b0539d77ddc,001,2022-04-29_04h11.29.355,classification_task,2021.2.3,Win32,60.0240096,5e8348450e128b0539d77ddc,626b377229c10585ec392f8a,626b3a644f48837dbde9ab41,,,,,,,,,,,,,,,,,,,,,,,l,1,4.453,"[""0.124"",""0.248"",""0.471"",""0.388""]","[1,1,1,0]",0,16,16,16,1,1,0,,,0,FALSE,,,,,,,,,,,,,,,,,,,,,,,,,,,,,,
,5e8348450e128b0539d77ddc,001,2022-04-29_04h11.29.355,classification_task,2021.2.3,Win32,60.0240096,5e8348450e128b0539d77ddc,626b377229c10585ec392f8a,626b3a644f48837dbde9ab41,,,,,,,,,,,,,,,,,,,,,,,l,1,2.867,"[""0.124"",""0.207"",""0.471"",""0.790""]","[1,0,1,1]",0,17,17,17,1,1,0,,,0,FALSE,,,,,,,,,,,,,,,,,,,,,,,,,,,,,,
,5e8348450e128b0539d77ddc,001,2022-04-29_04h11.29.355,classification_task,2021.2.3,Win32,60.0240096,5e8348450e128b0539d77ddc,626b377229c10585ec392f8a,626b3a644f48837dbde9ab41,,,,,,,,,,,,,,,,,,,,,,,l,1,5.383,"[""0.205"",""0.080"",""0.619"",""0.695""]","[0,1,1,1]",0,18,18,18,1,1,1,,,0,FALSE,,,,,,,,,,,,,,,,,,,,,,,,,,,,,,
,5e8348450e128b0539d77ddc,001,2022-04-29_04h11.29.355,classification_task,2021.2.3,Win32,60.0240096,5e8348450e128b0539d77ddc,626b377229c10585ec392f8a,626b3a644f48837dbde9ab41,,,,,,,,,,,,,,,,,,,,,,,l,1,3.415,"[""0.045"",""0.566"",""0.619"",""0.695""]","[1,0,1,1]",0,19,19,19,1,1,1,,,0,FALSE,,,,,,,,,,,,,,,,,,,,,,,,,,,,,,
,5e8348450e128b0539d77ddc,001,2022-04-29_04h11.29.355,classification_task,2021.2.3,Win32,60.0240096,5e8348450e128b0539d77ddc,626b377229c10585ec392f8a,626b3a644f48837dbde9ab41,,,,,,,,,,,,,,,,,,,,,,,a,1,3.821,"[""0.165"",""0.333"",""0.827"",""0.378""]","[1,1,1,0]",0,20,20,20,1,0,0,,,0,FALSE,,,,,,,,,,,,,,,,,,,,,,,,,,,,,,
,5e8348450e128b0539d77ddc,001,2022-04-29_04h11.29.355,classification_task,2021.2.3,Win32,60.0240096,5e8348450e128b0539d77ddc,626b377229c10585ec392f8a,626b3a644f48837dbde9ab41,,,,,,,,,,,,,,,,,,,,,,,a,1,3.235,"[""0.287"",""0.394"",""0.863"",""0.958""]","[1,0,1,1]",0,21,21,21,1,0,1,,,0,FALSE,,,,,,,,,,,,,,,,,,,,,,,,,,,,,,
,5e8348450e128b0539d77ddc,001,2022-04-29_04h11.29.355,classification_task,2021.2.3,Win32,60.0240096,5e8348450e128b0539d77ddc,626b377229c10585ec392f8a,626b3a644f48837dbde9ab41,,,,,,,,,,,,,,,,,,,,,,,a,1,3.031,"[""0.287"",""0.532"",""0.863"",""0.739""]","[1,1,1,0]",0,22,22,22,1,0,1,,,0,FALSE,,,,,,,,,,,,,,,,,,,,,,,,,,,,,,
,5e8348450e128b0539d77ddc,001,2022-04-29_04h11.29.355,classification_task,2021.2.3,Win32,60.0240096,5e8348450e128b0539d77ddc,626b377229c10585ec392f8a,626b3a644f48837dbde9ab41,,,,,,,,,,,,,,,,,,,,,,,a,1,5.184,"[""0.165"",""0.394"",""0.827"",""0.899""]","[1,0,1,1]",0,23,23,23,1,0,0,,,0,FALSE,,,,,,,,,,,,,,,,,,,,,,,,,,,,,,
,5e8348450e128b0539d77ddc,001,2022-04-29_04h11.29.355,classification_task,2021.2.3,Win32,60.0240096,5e8348450e128b0539d77ddc,626b377229c10585ec392f8a,626b3a644f48837dbde9ab41,,,,,,,,,,,,,,,,,,,,,,,l,1,2.631,"[""0.124"",""0.248"",""0.205"",""0.790""]","[1,1,0,1]",0,24,24,24,1,1,0,,,0,FALSE,,,,,,,,,,,,,,,,,,,,,,,,,,,,,,
,5e8348450e128b0539d77ddc,001,2022-04-29_04h11.29.355,classification_task,2021.2.3,Win32,60.0240096,5e8348450e128b0539d77ddc,626b377229c10585ec392f8a,626b3a644f48837dbde9ab41,,,,,,,,,,,,,,,,,,,,,,,l,1,2.785,"[""0.739"",""0.248"",""0.471"",""0.790""]","[0,1,1,1]",0,25,25,25,1,1,0,,,0,FALSE,,,,,,,,,,,,,,,,,,,,,,,,,,,,,,
,5e8348450e128b0539d77ddc,001,2022-04-29_04h11.29.355,classification_task,2021.2.3,Win32,60.0240096,5e8348450e128b0539d77ddc,626b377229c10585ec392f8a,626b3a644f48837dbde9ab41,,,,,,,,,,,,,,,,,,,,,,,a,1,2.997,"[""0.287"",""0.532"",""0.388"",""0.958""]","[1,1,0,1]",0,26,26,26,1,0,1,,,0,FALSE,,,,,,,,,,,,,,,,,,,,,,,,,,,,,,
,5e8348450e128b0539d77ddc,001,2022-04-29_04h11.29.355,classification_task,2021.2.3,Win32,60.0240096,5e8348450e128b0539d77ddc,626b377229c10585ec392f8a,626b3a644f48837dbde9ab41,,,,,,,,,,,,,,,,,,,,,,,l,1,3.142,"[""0.045"",""0.080"",""0.394"",""0.695""]","[1,1,0,1]",0,27,27,27,1,1,1,,,0,FALSE,,,,,,,,,,,,,,,,,,,,,,,,,,,,,,
,5e8348450e128b0539d77ddc,001,2022-04-29_04h11.29.355,classification_task,2021.2.3,Win32,60.0240096,5e8348450e128b0539d77ddc,626b377229c10585ec392f8a,626b3a644f48837dbde9ab41,,,,,,,,,,,,,,,,,,,,,,,a,1,5.337,"[""0.205"",""0.333"",""0.827"",""0.899""]","[0,1,1,1]",0,28,28,28,1,0,0,,,0,FALSE,,,,,,,,,,,,,,,,,,,,,,,,,,,,,,
,5e8348450e128b0539d77ddc,001,2022-04-29_04h11.29.355,classification_task,2021.2.3,Win32,60.0240096,5e8348450e128b0539d77ddc,626b377229c10585ec392f8a,626b3a644f48837dbde9ab41,,,,,,,,,,,,,,,,,,,,,,,a,1,2.123,"[""0.165"",""0.333"",""0.739"",""0.899""]","[1,1,0,1]",0,29,29,29,1,0,0,,,0,FALSE,,,,,,,,,,,,,,,,,,,,,,,,,,,,,,
,5e8348450e128b0539d77ddc,001,2022-04-29_04h11.29.355,classification_task,2021.2.3,Win32,60.0240096,5e8348450e128b0539d77ddc,626b377229c10585ec392f8a,626b3a644f48837dbde9ab41,,,,,,,,,,,,,,,,,,,,,,,l,1,4.137,"[""0.045"",""0.080"",""0.619"",""0.207""]","[1,1,1,0]",0,30,30,30,1,1,1,,,0,FALSE,,,,,,,,,,,,,,,,,,,,,,,,,,,,,,
,5e8348450e128b0539d77ddc,001,2022-04-29_04h11.29.355,classification_task,2021.2.3,Win32,60.0240096,5e8348450e128b0539d77ddc,626b377229c10585ec392f8a,626b3a644f48837dbde9ab41,,,,,,,,,,,,,,,,,,,,,,,a,1,4.311,"[""0.388"",""0.532"",""0.863"",""0.958""]","[0,1,1,1]",0,31,31,31,1,0,1,,,0,FALSE,,,,,,,,,,,,,,,,,,,,,,,,,,,,,,
,5e8348450e128b0539d77ddc,001,2022-04-29_04h11.29.355,classification_task,2021.2.3,Win32,60.0240096,5e8348450e128b0539d77ddc,626b377229c10585ec392f8a,626b3a644f48837dbde9ab41,,,,,,,,,,,,,,,,,,,,,,,l,1,3.818,"[""0.431"",""0.248"",""0.471"",""0.790""]","[0,1,1,1]",0,32,32,32,1,1,0,,,0,FALSE,,,,,,,,,,,,,,,,,,,,,,,,,,,,,,
,5e8348450e128b0539d77ddc,001,2022-04-29_04h11.29.355,classification_task,2021.2.3,Win32,60.0240096,5e8348450e128b0539d77ddc,626b377229c10585ec392f8a,626b3a644f48837dbde9ab41,,,,,,,,,,,,,,,,,,,,,,,a,1,3.515,"[""0.287"",""0.532"",""0.397"",""0.958""]","[1,1,0,1]",0,33,33,33,1,0,1,,,0,FALSE,,,,,,,,,,,,,,,,,,,,,,,,,,,,,,
,5e8348450e128b0539d77ddc,001,2022-04-29_04h11.29.355,classification_task,2021.2.3,Win32,60.0240096,5e8348450e128b0539d77ddc,626b377229c10585ec392f8a,626b3a644f48837dbde9ab41,,,,,,,,,,,,,,,,,,,,,,,l,1,1.512,"[""0.397"",""0.080"",""0.619"",""0.695""]","[0,1,1,1]",0,34,34,34,1,1,1,,,0,FALSE,,,,,,,,,,,,,,,,,,,,,,,,,,,,,,
,5e8348450e128b0539d77ddc,001,2022-04-29_04h11.29.355,classification_task,2021.2.3,Win32,60.0240096,5e8348450e128b0539d77ddc,626b377229c10585ec392f8a,626b3a644f48837dbde9ab41,,,,,,,,,,,,,,,,,,,,,,,a,1,2.565,"[""0.165"",""0.657"",""0.827"",""0.899""]","[1,0,1,1]",0,35,35,35,1,0,0,,,0,FALSE,,,,,,,,,,,,,,,,,,,,,,,,,,,,,,
,5e8348450e128b0539d77ddc,001,2022-04-29_04h11.29.355,classification_task,2021.2.3,Win32,60.0240096,5e8348450e128b0539d77ddc,626b377229c10585ec392f8a,626b3a644f48837dbde9ab41,,,,,,,,,,,,,,,,,,,,,,,l,1,1.064,"[""0.045"",""0.080"",""0.619"",""0.207""]","[1,1,1,0]",0,36,36,36,1,1,1,,,0,FALSE,,,,,,,,,,,,,,,,,,,,,,,,,,,,,,
,5e8348450e128b0539d77ddc,001,2022-04-29_04h11.29.355,classification_task,2021.2.3,Win32,60.0240096,5e8348450e128b0539d77ddc,626b377229c10585ec392f8a,626b3a644f48837dbde9ab41,,,,,,,,,,,,,,,,,,,,,,,l,1,1.155,"[""0.045"",""0.730"",""0.619"",""0.695""]","[1,0,1,1]",0,37,37,37,1,1,1,,,0,FALSE,,,,,,,,,,,,,,,,,,,,,,,,,,,,,,
,5e8348450e128b0539d77ddc,001,2022-04-29_04h11.29.355,classification_task,2021.2.3,Win32,60.0240096,5e8348450e128b0539d77ddc,626b377229c10585ec392f8a,626b3a644f48837dbde9ab41,,,,,,,,,,,,,,,,,,,,,,,a,1,2.248,"[""0.287"",""0.532"",""0.863"",""0.730""]","[1,1,1,0]",0,38,38,38,1,0,1,,,0,FALSE,,,,,,,,,,,,,,,,,,,,,,,,,,,,,,
,5e8348450e128b0539d77ddc,001,2022-04-29_04h11.29.355,classification_task,2021.2.3,Win32,60.0240096,5e8348450e128b0539d77ddc,626b377229c10585ec392f8a,626b3a644f48837dbde9ab41,,,,,,,,,,,,,,,,,,,,,,,l,1,1.966,"[""0.124"",""0.248"",""0.394"",""0.790""]","[1,1,0,1]",0,39,39,39,1,1,0,,,0,FALSE,,,,,,,,,,,,,,,,,,,,,,,,,,,,,,
,5e8348450e128b0539d77ddc,001,2022-04-29_04h11.29.355,classification_task,2021.2.3,Win32,60.0240096,5e8348450e128b0539d77ddc,626b377229c10585ec392f8a,626b3a644f48837dbde9ab41,,,,,,,,,,,,,,,,,,,,,,,l,1,1.12,"[""0.124"",""0.397"",""0.471"",""0.790""]","[1,0,1,1]",0,40,40,40,1,1,0,,,0,FALSE,,,,,,,,,,,,,,,,,,,,,,,,,,,,,,
,5e8348450e128b0539d77ddc,001,2022-04-29_04h11.29.355,classification_task,2021.2.3,Win32,60.0240096,5e8348450e128b0539d77ddc,626b377229c10585ec392f8a,626b3a644f48837dbde9ab41,,,,,,,,,,,,,,,,,,,,,,,a,1,2.83,"[""0.205"",""0.333"",""0.827"",""0.899""]","[0,1,1,1]",0,41,41,41,1,0,0,,,0,FALSE,,,,,,,,,,,,,,,,,,,,,,,,,,,,,,
,5e8348450e128b0539d77ddc,001,2022-04-29_04h11.29.355,classification_task,2021.2.3,Win32,60.0240096,5e8348450e128b0539d77ddc,626b377229c10585ec392f8a,626b3a644f48837dbde9ab41,,,,,,,,,,,,,,,,,,,,,,,a,1,1.41,"[""0.165"",""0.333"",""0.827"",""0.585""]","[1,1,1,0]",0,42,42,42,1,0,0,,,0,FALSE,,,,,,,,,,,,,,,,,,,,,,,,,,,,,,
,5e8348450e128b0539d77ddc,001,2022-04-29_04h11.29.355,classification_task,2021.2.3,Win32,60.0240096,5e8348450e128b0539d77ddc,626b377229c10585ec392f8a,626b3a644f48837dbde9ab41,,,,,,,,,,,,,,,,,,,,,,,l,0,2.675,"[""0.730"",""0.532"",""0.863"",""0.958""]","[0,1,1,1]",0,43,43,43,1,0,1,,,0,FALSE,,,,,,,,,,,,,,,,,,,,,,,,,,,,,,
,5e8348450e128b0539d77ddc,001,2022-04-29_04h11.29.355,classification_task,2021.2.3,Win32,60.0240096,5e8348450e128b0539d77ddc,626b377229c10585ec392f8a,626b3a644f48837dbde9ab41,,,,,,,,,,,,,,,,,,,,,,,l,1,2.531,"[""0.124"",""0.248"",""0.471"",""0.567""]","[1,1,1,0]",0,44,44,44,1,1,0,,,0,FALSE,,,,,,,,,,,,,,,,,,,,,,,,,,,,,,
,5e8348450e128b0539d77ddc,001,2022-04-29_04h11.29.355,classification_task,2021.2.3,Win32,60.0240096,5e8348450e128b0539d77ddc,626b377229c10585ec392f8a,626b3a644f48837dbde9ab41,,,,,,,,,,,,,,,,,,,,,,,l,1,1.487,"[""0.045"",""0.080"",""0.397"",""0.695""]","[1,1,0,1]",0,45,45,45,1,1,1,,,0,FALSE,,,,,,,,,,,,,,,,,,,,,,,,,,,,,,
,5e8348450e128b0539d77ddc,001,2022-04-29_04h11.29.355,classification_task,2021.2.3,Win32,60.0240096,5e8348450e128b0539d77ddc,626b377229c10585ec392f8a,626b3a644f48837dbde9ab41,,,,,,,,,,,,,,,,,,,,,,,a,1,3.018,"[""0.287"",""0.378"",""0.863"",""0.958""]","[1,0,1,1]",0,46,46,46,1,0,1,,,0,FALSE,,,,,,,,,,,,,,,,,,,,,,,,,,,,,,
,5e8348450e128b0539d77ddc,001,2022-04-29_04h11.29.355,classification_task,2021.2.3,Win32,60.0240096,5e8348450e128b0539d77ddc,626b377229c10585ec392f8a,626b3a644f48837dbde9ab41,,,,,,,,,,,,,,,,,,,,,,,a,1,1.831,"[""0.165"",""0.333"",""0.205"",""0.899""]","[1,1,0,1]",0,47,47,47,1,0,0,,,0,FALSE,,,,,,,,,,,,,,,,,,,,,,,,,,,,,,
,5e8348450e128b0539d77ddc,001,2022-04-29_04h11.29.355,classification_task,2021.2.3,Win32,60.0240096,5e8348450e128b0539d77ddc,626b377229c10585ec392f8a,626b3a644f48837dbde9ab41,,,,,,,,,,,,,,,,,,,,,,,a,1,3.204,"[""0.287"",""0.572"",""0.863"",""0.958""]","[1,0,1,1]",0,48,48,48,1,0,1,,,0,FALSE,,,,,,,,,,,,,,,,,,,,,,,,,,,,,,
,5e8348450e128b0539d77ddc,001,2022-04-29_04h11.29.355,classification_task,2021.2.3,Win32,60.0240096,5e8348450e128b0539d77ddc,626b377229c10585ec392f8a,626b3a644f48837dbde9ab41,,,,,,,,,,,,,,,,,,,,,,,l,1,1.033,"[""0.045"",""0.730"",""0.619"",""0.695""]","[1,0,1,1]",0,49,49,49,1,1,1,,,0,FALSE,,,,,,,,,,,,,,,,,,,,,,,,,,,,,,
,5e8348450e128b0539d77ddc,001,2022-04-29_04h11.29.355,classification_task,2021.2.3,Win32,60.0240096,5e8348450e128b0539d77ddc,626b377229c10585ec392f8a,626b3a644f48837dbde9ab41,,,,,,,,,,,,,,,,,,,,,,,l,1,3.663,"[""0.205"",""0.248"",""0.471"",""0.790""]","[0,1,1,1]",0,50,50,50,1,1,0,,,0,FALSE,,,,,,,,,,,,,,,,,,,,,,,,,,,,,,
,5e8348450e128b0539d77ddc,001,2022-04-29_04h11.29.355,classification_task,2021.2.3,Win32,60.0240096,5e8348450e128b0539d77ddc,626b377229c10585ec392f8a,626b3a644f48837dbde9ab41,,,,,,,,,,,,,,,,,,,,,,,l,0,4.465,"[""0.374"",""0.532"",""0.863"",""0.958""]","[0,1,1,1]",0,51,51,51,1,0,1,,,0,FALSE,,,,,,,,,,,,,,,,,,,,,,,,,,,,,,
,5e8348450e128b0539d77ddc,001,2022-04-29_04h11.29.355,classification_task,2021.2.3,Win32,60.0240096,5e8348450e128b0539d77ddc,626b377229c10585ec392f8a,626b3a644f48837dbde9ab41,,,,,,,,,,,,,,,,,,,,,,,a,1,1.647,"[""0.165"",""0.333"",""0.827"",""0.585""]","[1,1,1,0]",0,52,52,52,1,0,0,,,0,FALSE,,,,,,,,,,,,,,,,,,,,,,,,,,,,,,
,5e8348450e128b0539d77ddc,001,2022-04-29_04h11.29.355,classification_task,2021.2.3,Win32,60.0240096,5e8348450e128b0539d77ddc,626b377229c10585ec392f8a,626b3a644f48837dbde9ab41,,,,,,,,,,,,,,,,,,,,,,,a,1,3.03,"[""0.165"",""0.397"",""0.827"",""0.899""]","[1,0,1,1]",0,53,53,53,1,0,0,,,0,FALSE,,,,,,,,,,,,,,,,,,,,,,,,,,,,,,
,5e8348450e128b0539d77ddc,001,2022-04-29_04h11.29.355,classification_task,2021.2.3,Win32,60.0240096,5e8348450e128b0539d77ddc,626b377229c10585ec392f8a,626b3a644f48837dbde9ab41,,,,,,,,,,,,,,,,,,,,,,,l,1,3.002,"[""0.124"",""0.657"",""0.471"",""0.790""]","[1,0,1,1]",0,54,54,54,1,1,0,,,0,FALSE,,,,,,,,,,,,,,,,,,,,,,,,,,,,,,
,5e8348450e128b0539d77ddc,001,2022-04-29_04h11.29.355,classification_task,2021.2.3,Win32,60.0240096,5e8348450e128b0539d77ddc,626b377229c10585ec392f8a,626b3a644f48837dbde9ab41,,,,,,,,,,,,,,,,,,,,,,,l,1,2.783,"[""0.572"",""0.080"",""0.619"",""0.695""]","[0,1,1,1]",0,55,55,55,1,1,1,,,0,FALSE,,,,,,,,,,,,,,,,,,,,,,,,,,,,,,
,5e8348450e128b0539d77ddc,001,2022-04-29_04h11.29.355,classification_task,2021.2.3,Win32,60.0240096,5e8348450e128b0539d77ddc,626b377229c10585ec392f8a,626b3a644f48837dbde9ab41,,,,,,,,,,,,,,,,,,,,,,,a,1,2.363,"[""0.287"",""0.532"",""0.863"",""0.739""]","[1,1,1,0]",0,56,56,56,1,0,1,,,0,FALSE,,,,,,,,,,,,,,,,,,,,,,,,,,,,,,
,5e8348450e128b0539d77ddc,001,2022-04-29_04h11.29.355,classification_task,2021.2.3,Win32,60.0240096,5e8348450e128b0539d77ddc,626b377229c10585ec392f8a,626b3a644f48837dbde9ab41,,,,,,,,,,,,,,,,,,,,,,,l,1,1.052,"[""0.045"",""0.080"",""0.394"",""0.695""]","[1,1,0,1]",0,57,57,57,1,1,1,,,0,FALSE,,,,,,,,,,,,,,,,,,,,,,,,,,,,,,
,5e8348450e128b0539d77ddc,001,2022-04-29_04h11.29.355,classification_task,2021.2.3,Win32,60.0240096,5e8348450e128b0539d77ddc,626b377229c10585ec392f8a,626b3a644f48837dbde9ab41,,,,,,,,,,,,,,,,,,,,,,,a,1,1.683,"[""0.165"",""0.333"",""0.585"",""0.899""]","[1,1,0,1]",0,58,58,58,1,0,0,,,0,FALSE,,,,,,,,,,,,,,,,,,,,,,,,,,,,,,
,5e8348450e128b0539d77ddc,001,2022-04-29_04h11.29.355,classification_task,2021.2.3,Win32,60.0240096,5e8348450e128b0539d77ddc,626b377229c10585ec392f8a,626b3a644f48837dbde9ab41,,,,,,,,,,,,,,,,,,,,,,,l,1,2.935,"[""0.124"",""0.248"",""0.739"",""0.790""]","[1,1,0,1]",0,59,59,59,1,1,0,,,0,FALSE,,,,,,,,,,,,,,,,,,,,,,,,,,,,,,
,5e8348450e128b0539d77ddc,001,2022-04-29_04h11.29.355,classification_task,2021.2.3,Win32,60.0240096,5e8348450e128b0539d77ddc,626b377229c10585ec392f8a,626b3a644f48837dbde9ab41,,,,,,,,,,,,,,,,,,,,,,,a,1,2.147,"[""0.207"",""0.333"",""0.827"",""0.899""]","[0,1,1,1]",0,60,60,60,1,0,0,,,0,FALSE,,,,,,,,,,,,,,,,,,,,,,,,,,,,,,
,5e8348450e128b0539d77ddc,001,2022-04-29_04h11.29.355,classification_task,2021.2.3,Win32,60.0240096,5e8348450e128b0539d77ddc,626b377229c10585ec392f8a,626b3a644f48837dbde9ab41,,,,,,,,,,,,,,,,,,,,,,,l,1,1.28,"[""0.045"",""0.080"",""0.619"",""0.388""]","[1,1,1,0]",0,61,61,61,1,1,1,,,0,FALSE,,,,,,,,,,,,,,,,,,,,,,,,,,,,,,
,5e8348450e128b0539d77ddc,001,2022-04-29_04h11.29.355,classification_task,2021.2.3,Win32,60.0240096,5e8348450e128b0539d77ddc,626b377229c10585ec392f8a,626b3a644f48837dbde9ab41,,,,,,,,,,,,,,,,,,,,,,,l,0,3.93,"[""0.287"",""0.532"",""0.205"",""0.958""]","[1,1,0,1]",0,62,62,62,1,0,1,,,0,FALSE,,,,,,,,,,,,,,,,,,,,,,,,,,,,,,
,5e8348450e128b0539d77ddc,001,2022-04-29_04h11.29.355,classification_task,2021.2.3,Win32,60.0240096,5e8348450e128b0539d77ddc,626b377229c10585ec392f8a,626b3a644f48837dbde9ab41,,,,,,,,,,,,,,,,,,,,,,,l,1,4.247,"[""0.124"",""0.248"",""0.471"",""0.394""]","[1,1,1,0]",0,63,63,63,1,1,0,,,0,FALSE,,,,,,,,,,,,,,,,,,,,,,,,,,,,,,
,5e8348450e128b0539d77ddc,001,2022-04-29_04h11.29.355,classification_task,2021.2.3,Win32,60.0240096,5e8348450e128b0539d77ddc,626b377229c10585ec392f8a,626b3a644f48837dbde9ab41,,,,,,,,,,,,,,,,,,,,,,,,,,,,,,,,,,,,,,,0, ,,0,8.823578042,594.607,0,0,0,0,1,2,1,,,,,,,,,,,,,,,,,
,5e8348450e128b0539d77ddc,001,2022-04-29_04h11.29.355,classification_task,2021.2.3,Win32,60.0240096,5e8348450e128b0539d77ddc,626b377229c10585ec392f8a,626b3a644f48837dbde9ab41,,,,,,,,,,,,,,,,,,,,,,,,,,,,,,,,,,,,,,,1,  ,,0,10,588.755,0,0,0,0,1,2,1,,,,,,,,,,,,,,,,,
,5e8348450e128b0539d77ddc,001,2022-04-29_04h11.29.355,classification_task,2021.2.3,Win32,60.0240096,5e8348450e128b0539d77ddc,626b377229c10585ec392f8a,626b3a644f48837dbde9ab41,,,,,,,,,,,,,,,,,,,,,,,,,,,,,,,,,,,,,,,2,  ,,0,7.686838624,602.948,0,0,0,0,1,2,1,,,,,,,,,,,,,,,,,
,5e8348450e128b0539d77ddc,001,2022-04-29_04h11.29.355,classification_task,2021.2.3,Win32,60.0240096,5e8348450e128b0539d77ddc,626b377229c10585ec392f8a,626b3a644f48837dbde9ab41,,,,,,,,,,,,,,,,,,,,,,,,,,,,,,,,,,,,,,,,,,,,,0,0,0,0,1,,1,,,,,,,,,,,,,,,,,
,5e8348450e128b0539d77ddc,001,2022-04-29_04h11.29.355,classification_task,2021.2.3,Win32,60.0240096,5e8348450e128b0539d77ddc,626b377229c10585ec392f8a,626b3a644f48837dbde9ab41,,,,,,,,,,,,,,,,,,,,,space,32.055,l,0,3.885,"[""0.287"",""0.202"",""0.863"",""0.958""]","[1,0,1,1]",0,0,0,0,1,0,1,,,0,FALSE,,,,,,,,,,,,,,,,,,,,,,,,,,,,,,
,5e8348450e128b0539d77ddc,001,2022-04-29_04h11.29.355,classification_task,2021.2.3,Win32,60.0240096,5e8348450e128b0539d77ddc,626b377229c10585ec392f8a,626b3a644f48837dbde9ab41,,,,,,,,,,,,,,,,,,,,,,,l,1,2.351,"[""0.394"",""0.080"",""0.619"",""0.695""]","[0,1,1,1]",0,1,1,1,1,1,1,,,0,FALSE,,,,,,,,,,,,,,,,,,,,,,,,,,,,,,
,5e8348450e128b0539d77ddc,001,2022-04-29_04h11.29.355,classification_task,2021.2.3,Win32,60.0240096,5e8348450e128b0539d77ddc,626b377229c10585ec392f8a,626b3a644f48837dbde9ab41,,,,,,,,,,,,,,,,,,,,,,,a,1,3.466,"[""0.165"",""0.333"",""0.827"",""0.431""]","[1,1,1,0]",0,2,2,2,1,0,0,,,0,FALSE,,,,,,,,,,,,,,,,,,,,,,,,,,,,,,
,5e8348450e128b0539d77ddc,001,2022-04-29_04h11.29.355,classification_task,2021.2.3,Win32,60.0240096,5e8348450e128b0539d77ddc,626b377229c10585ec392f8a,626b3a644f48837dbde9ab41,,,,,,,,,,,,,,,,,,,,,,,a,1,2.475,"[""0.165"",""0.388"",""0.827"",""0.899""]","[1,0,1,1]",0,3,3,3,1,0,0,,,0,FALSE,,,,,,,,,,,,,,,,,,,,,,,,,,,,,,
,5e8348450e128b0539d77ddc,001,2022-04-29_04h11.29.355,classification_task,2021.2.3,Win32,60.0240096,5e8348450e128b0539d77ddc,626b377229c10585ec392f8a,626b3a644f48837dbde9ab41,,,,,,,,,,,,,,,,,,,,,,,a,1,2.19,"[""0.165"",""0.333"",""0.567"",""0.899""]","[1,1,0,1]",0,4,4,4,1,0,0,,,0,FALSE,,,,,,,,,,,,,,,,,,,,,,,,,,,,,,
,5e8348450e128b0539d77ddc,001,2022-04-29_04h11.29.355,classification_task,2021.2.3,Win32,60.0240096,5e8348450e128b0539d77ddc,626b377229c10585ec392f8a,626b3a644f48837dbde9ab41,,,,,,,,,,,,,,,,,,,,,,,a,1,4.082,"[""0.287"",""0.532"",""0.202"",""0.958""]","[1,1,0,1]",0,5,5,5,1,0,1,,,0,FALSE,,,,,,,,,,,,,,,,,,,,,,,,,,,,,,
,5e8348450e128b0539d77ddc,001,2022-04-29_04h11.29.355,classification_task,2021.2.3,Win32,60.0240096,5e8348450e128b0539d77ddc,626b377229c10585ec392f8a,626b3a644f48837dbde9ab41,,,,,,,,,,,,,,,,,,,,,,,l,1,1.181,"[""0.045"",""0.572"",""0.619"",""0.695""]","[1,0,1,1]",0,6,6,6,1,1,1,,,0,FALSE,,,,,,,,,,,,,,,,,,,,,,,,,,,,,,
,5e8348450e128b0539d77ddc,001,2022-04-29_04h11.29.355,classification_task,2021.2.3,Win32,60.0240096,5e8348450e128b0539d77ddc,626b377229c10585ec392f8a,626b3a644f48837dbde9ab41,,,,,,,,,,,,,,,,,,,,,,,a,1,2.083,"[""0.394"",""0.532"",""0.863"",""0.958""]","[0,1,1,1]",0,7,7,7,1,0,1,,,0,FALSE,,,,,,,,,,,,,,,,,,,,,,,,,,,,,,
,5e8348450e128b0539d77ddc,001,2022-04-29_04h11.29.355,classification_task,2021.2.3,Win32,60.0240096,5e8348450e128b0539d77ddc,626b377229c10585ec392f8a,626b3a644f48837dbde9ab41,,,,,,,,,,,,,,,,,,,,,,,l,1,2.81,"[""0.566"",""0.248"",""0.471"",""0.790""]","[0,1,1,1]",0,8,8,8,1,1,0,,,0,FALSE,,,,,,,,,,,,,,,,,,,,,,,,,,,,,,
,5e8348450e128b0539d77ddc,001,2022-04-29_04h11.29.355,classification_task,2021.2.3,Win32,60.0240096,5e8348450e128b0539d77ddc,626b377229c10585ec392f8a,626b3a644f48837dbde9ab41,,,,,,,,,,,,,,,,,,,,,,,l,1,1.907,"[""0.124"",""0.248"",""0.394"",""0.790""]","[1,1,0,1]",0,9,9,9,1,1,0,,,0,FALSE,,,,,,,,,,,,,,,,,,,,,,,,,,,,,,
,5e8348450e128b0539d77ddc,001,2022-04-29_04h11.29.355,classification_task,2021.2.3,Win32,60.0240096,5e8348450e128b0539d77ddc,626b377229c10585ec392f8a,626b3a644f48837dbde9ab41,,,,,,,,,,,,,,,,,,,,,,,l,1,2.248,"[""0.124"",""0.248"",""0.471"",""0.388""]","[1,1,1,0]",0,10,10,10,1,1,0,,,0,FALSE,,,,,,,,,,,,,,,,,,,,,,,,,,,,,,
,5e8348450e128b0539d77ddc,001,2022-04-29_04h11.29.355,classification_task,2021.2.3,Win32,60.0240096,5e8348450e128b0539d77ddc,626b377229c10585ec392f8a,626b3a644f48837dbde9ab41,,,,,,,,,,,,,,,,,,,,,,,l,1,1.101,"[""0.045"",""0.080"",""0.619"",""0.567""]","[1,1,1,0]",0,11,11,11,1,1,1,,,0,FALSE,,,,,,,,,,,,,,,,,,,,,,,,,,,,,,
,5e8348450e128b0539d77ddc,001,2022-04-29_04h11.29.355,classification_task,2021.2.3,Win32,60.0240096,5e8348450e128b0539d77ddc,626b377229c10585ec392f8a,626b3a644f48837dbde9ab41,,,,,,,,,,,,,,,,,,,,,,,a,1,1.467,"[""0.207"",""0.333"",""0.827"",""0.899""]","[0,1,1,1]",0,12,12,12,1,0,0,,,0,FALSE,,,,,,,,,,,,,,,,,,,,,,,,,,,,,,
,5e8348450e128b0539d77ddc,001,2022-04-29_04h11.29.355,classification_task,2021.2.3,Win32,60.0240096,5e8348450e128b0539d77ddc,626b377229c10585ec392f8a,626b3a644f48837dbde9ab41,,,,,,,,,,,,,,,,,,,,,,,l,1,1.981,"[""0.124"",""0.730"",""0.471"",""0.790""]","[1,0,1,1]",0,13,13,13,1,1,0,,,0,FALSE,,,,,,,,,,,,,,,,,,,,,,,,,,,,,,
,5e8348450e128b0539d77ddc,001,2022-04-29_04h11.29.355,classification_task,2021.2.3,Win32,60.0240096,5e8348450e128b0539d77ddc,626b377229c10585ec392f8a,626b3a644f48837dbde9ab41,,,,,,,,,,,,,,,,,,,,,,,l,1,1.129,"[""0.045"",""0.080"",""0.205"",""0.695""]","[1,1,0,1]",0,14,14,14,1,1,1,,,0,FALSE,,,,,,,,,,,,,,,,,,,,,,,,,,,,,,
,5e8348450e128b0539d77ddc,001,2022-04-29_04h11.29.355,classification_task,2021.2.3,Win32,60.0240096,5e8348450e128b0539d77ddc,626b377229c10585ec392f8a,626b3a644f48837dbde9ab41,,,,,,,,,,,,,,,,,,,,,,,a,1,1.916,"[""0.287"",""0.532"",""0.863"",""0.431""]","[1,1,1,0]",0,15,15,15,1,0,1,,,0,FALSE,,,,,,,,,,,,,,,,,,,,,,,,,,,,,,
,5e8348450e128b0539d77ddc,001,2022-04-29_04h11.29.355,classification_task,2021.2.3,Win32,60.0240096,5e8348450e128b0539d77ddc,626b377229c10585ec392f8a,626b3a644f48837dbde9ab41,,,,,,,,,,,,,,,,,,,,,,,l,1,1.18,"[""0.045"",""0.080"",""0.202"",""0.695""]","[1,1,0,1]",0,16,16,16,1,1,1,,,0,FALSE,,,,,,,,,,,,,,,,,,,,,,,,,,,,,,
,5e8348450e128b0539d77ddc,001,2022-04-29_04h11.29.355,classification_task,2021.2.3,Win32,60.0240096,5e8348450e128b0539d77ddc,626b377229c10585ec392f8a,626b3a644f48837dbde9ab41,,,,,,,,,,,,,,,,,,,,,,,l,1,2.267,"[""0.124"",""0.585"",""0.471"",""0.790""]","[1,0,1,1]",0,17,17,17,1,1,0,,,0,FALSE,,,,,,,,,,,,,,,,,,,,,,,,,,,,,,
,5e8348450e128b0539d77ddc,001,2022-04-29_04h11.29.355,classification_task,2021.2.3,Win32,60.0240096,5e8348450e128b0539d77ddc,626b377229c10585ec392f8a,626b3a644f48837dbde9ab41,,,,,,,,,,,,,,,,,,,,,,,l,1,1.469,"[""0.045"",""0.207"",""0.619"",""0.695""]","[1,0,1,1]",0,18,18,18,1,1,1,,,0,FALSE,,,,,,,,,,,,,,,,,,,,,,,,,,,,,,
,5e8348450e128b0539d77ddc,001,2022-04-29_04h11.29.355,classification_task,2021.2.3,Win32,60.0240096,5e8348450e128b0539d77ddc,626b377229c10585ec392f8a,626b3a644f48837dbde9ab41,,,,,,,,,,,,,,,,,,,,,,,l,1,1.765,"[""0.388"",""0.080"",""0.619"",""0.695""]","[0,1,1,1]",0,19,19,19,1,1,1,,,0,FALSE,,,,,,,,,,,,,,,,,,,,,,,,,,,,,,
,5e8348450e128b0539d77ddc,001,2022-04-29_04h11.29.355,classification_task,2021.2.3,Win32,60.0240096,5e8348450e128b0539d77ddc,626b377229c10585ec392f8a,626b3a644f48837dbde9ab41,,,,,,,,,,,,,,,,,,,,,,,l,0,4.697,"[""0.202"",""0.532"",""0.863"",""0.958""]","[0,1,1,1]",0,20,20,20,1,0,1,,,0,FALSE,,,,,,,,,,,,,,,,,,,,,,,,,,,,,,
,5e8348450e128b0539d77ddc,001,2022-04-29_04h11.29.355,classification_task,2021.2.3,Win32,60.0240096,5e8348450e128b0539d77ddc,626b377229c10585ec392f8a,626b3a644f48837dbde9ab41,,,,,,,,,,,,,,,,,,,,,,,l,1,2.84,"[""0.124"",""0.248"",""0.471"",""0.739""]","[1,1,1,0]",0,21,21,21,1,1,0,,,0,FALSE,,,,,,,,,,,,,,,,,,,,,,,,,,,,,,
,5e8348450e128b0539d77ddc,001,2022-04-29_04h11.29.355,classification_task,2021.2.3,Win32,60.0240096,5e8348450e128b0539d77ddc,626b377229c10585ec392f8a,626b3a644f48837dbde9ab41,,,,,,,,,,,,,,,,,,,,,,,a,1,1.181,"[""0.730"",""0.333"",""0.827"",""0.899""]","[0,1,1,1]",0,22,22,22,1,0,0,,,0,FALSE,,,,,,,,,,,,,,,,,,,,,,,,,,,,,,
,5e8348450e128b0539d77ddc,001,2022-04-29_04h11.29.355,classification_task,2021.2.3,Win32,60.0240096,5e8348450e128b0539d77ddc,626b377229c10585ec392f8a,626b3a644f48837dbde9ab41,,,,,,,,,,,,,,,,,,,,,,,a,1,1.503,"[""0.165"",""0.333"",""0.827"",""0.378""]","[1,1,1,0]",0,23,23,23,1,0,0,,,0,FALSE,,,,,,,,,,,,,,,,,,,,,,,,,,,,,,
,5e8348450e128b0539d77ddc,001,2022-04-29_04h11.29.355,classification_task,2021.2.3,Win32,60.0240096,5e8348450e128b0539d77ddc,626b377229c10585ec392f8a,626b3a644f48837dbde9ab41,,,,,,,,,,,,,,,,,,,,,,,a,1,1.792,"[""0.287"",""0.397"",""0.863"",""0.958""]","[1,0,1,1]",0,24,24,24,1,0,1,,,0,FALSE,,,,,,,,,,,,,,,,,,,,,,,,,,,,,,
,5e8348450e128b0539d77ddc,001,2022-04-29_04h11.29.355,classification_task,2021.2.3,Win32,60.0240096,5e8348450e128b0539d77ddc,626b377229c10585ec392f8a,626b3a644f48837dbde9ab41,,,,,,,,,,,,,,,,,,,,,,,l,0,3.824,"[""0.287"",""0.532"",""0.863"",""0.202""]","[1,1,1,0]",0,25,25,25,1,0,1,,,0,FALSE,,,,,,,,,,,,,,,,,,,,,,,,,,,,,,
,5e8348450e128b0539d77ddc,001,2022-04-29_04h11.29.355,classification_task,2021.2.3,Win32,60.0240096,5e8348450e128b0539d77ddc,626b377229c10585ec392f8a,626b3a644f48837dbde9ab41,,,,,,,,,,,,,,,,,,,,,,,a,1,2.602,"[""0.287"",""0.532"",""0.374"",""0.958""]","[1,1,0,1]",0,26,26,26,1,0,1,,,0,FALSE,,,,,,,,,,,,,,,,,,,,,,,,,,,,,,
,5e8348450e128b0539d77ddc,001,2022-04-29_04h11.29.355,classification_task,2021.2.3,Win32,60.0240096,5e8348450e128b0539d77ddc,626b377229c10585ec392f8a,626b3a644f48837dbde9ab41,,,,,,,,,,,,,,,,,,,,,,,a,1,3.383,"[""0.165"",""0.739"",""0.827"",""0.899""]","[1,0,1,1]",0,27,27,27,1,0,0,,,0,FALSE,,,,,,,,,,,,,,,,,,,,,,,,,,,,,,
,5e8348450e128b0539d77ddc,001,2022-04-29_04h11.29.355,classification_task,2021.2.3,Win32,60.0240096,5e8348450e128b0539d77ddc,626b377229c10585ec392f8a,626b3a644f48837dbde9ab41,,,,,,,,,,,,,,,,,,,,,,,l,1,2.149,"[""0.124"",""0.248"",""0.566"",""0.790""]","[1,1,0,1]",0,28,28,28,1,1,0,,,0,FALSE,,,,,,,,,,,,,,,,,,,,,,,,,,,,,,
,5e8348450e128b0539d77ddc,001,2022-04-29_04h11.29.355,classification_task,2021.2.3,Win32,60.0240096,5e8348450e128b0539d77ddc,626b377229c10585ec392f8a,626b3a644f48837dbde9ab41,,,,,,,,,,,,,,,,,,,,,,,a,1,1.175,"[""0.165"",""0.333"",""0.567"",""0.899""]","[1,1,0,1]",0,29,29,29,1,0,0,,,0,FALSE,,,,,,,,,,,,,,,,,,,,,,,,,,,,,,
,5e8348450e128b0539d77ddc,001,2022-04-29_04h11.29.355,classification_task,2021.2.3,Win32,60.0240096,5e8348450e128b0539d77ddc,626b377229c10585ec392f8a,626b3a644f48837dbde9ab41,,,,,,,,,,,,,,,,,,,,,,,l,1,1.108,"[""0.045"",""0.080"",""0.619"",""0.394""]","[1,1,1,0]",0,30,30,30,1,1,1,,,0,FALSE,,,,,,,,,,,,,,,,,,,,,,,,,,,,,,
,5e8348450e128b0539d77ddc,001,2022-04-29_04h11.29.355,classification_task,2021.2.3,Win32,60.0240096,5e8348450e128b0539d77ddc,626b377229c10585ec392f8a,626b3a644f48837dbde9ab41,,,,,,,,,,,,,,,,,,,,,,,l,1,3.267,"[""0.572"",""0.248"",""0.471"",""0.790""]","[0,1,1,1]",0,31,31,31,1,1,0,,,0,FALSE,,,,,,,,,,,,,,,,,,,,,,,,,,,,,,
,5e8348450e128b0539d77ddc,001,2022-04-29_04h11.29.355,classification_task,2021.2.3,Win32,60.0240096,5e8348450e128b0539d77ddc,626b377229c10585ec392f8a,626b3a644f48837dbde9ab41,,,,,,,,,,,,,,,,,,,,,,,a,1,2.262,"[""0.287"",""0.205"",""0.863"",""0.958""]","[1,0,1,1]",0,32,32,32,1,0,1,,,0,FALSE,,,,,,,,,,,,,,,,,,,,,,,,,,,,,,
,5e8348450e128b0539d77ddc,001,2022-04-29_04h11.29.355,classification_task,2021.2.3,Win32,60.0240096,5e8348450e128b0539d77ddc,626b377229c10585ec392f8a,626b3a644f48837dbde9ab41,,,,,,,,,,,,,,,,,,,,,,,l,0,2.514,"[""0.205"",""0.532"",""0.863"",""0.958""]","[0,1,1,1]",0,33,33,33,1,0,1,,,0,FALSE,,,,,,,,,,,,,,,,,,,,,,,,,,,,,,
,5e8348450e128b0539d77ddc,001,2022-04-29_04h11.29.355,classification_task,2021.2.3,Win32,60.0240096,5e8348450e128b0539d77ddc,626b377229c10585ec392f8a,626b3a644f48837dbde9ab41,,,,,,,,,,,,,,,,,,,,,,,l,1,2.151,"[""0.205"",""0.248"",""0.471"",""0.790""]","[0,1,1,1]",0,34,34,34,1,1,0,,,0,FALSE,,,,,,,,,,,,,,,,,,,,,,,,,,,,,,
,5e8348450e128b0539d77ddc,001,2022-04-29_04h11.29.355,classification_task,2021.2.3,Win32,60.0240096,5e8348450e128b0539d77ddc,626b377229c10585ec392f8a,626b3a644f48837dbde9ab41,,,,,,,,,,,,,,,,,,,,,,,l,1,0.979,"[""0.045"",""0.730"",""0.619"",""0.695""]","[1,0,1,1]",0,35,35,35,1,1,1,,,0,FALSE,,,,,,,,,,,,,,,,,,,,,,,,,,,,,,
,5e8348450e128b0539d77ddc,001,2022-04-29_04h11.29.355,classification_task,2021.2.3,Win32,60.0240096,5e8348450e128b0539d77ddc,626b377229c10585ec392f8a,626b3a644f48837dbde9ab41,,,,,,,,,,,,,,,,,,,,,,,l,1,1.864,"[""0.124"",""0.248"",""0.388"",""0.790""]","[1,1,0,1]",0,36,36,36,1,1,0,,,0,FALSE,,,,,,,,,,,,,,,,,,,,,,,,,,,,,,
,5e8348450e128b0539d77ddc,001,2022-04-29_04h11.29.355,classification_task,2021.2.3,Win32,60.0240096,5e8348450e128b0539d77ddc,626b377229c10585ec392f8a,626b3a644f48837dbde9ab41,,,,,,,,,,,,,,,,,,,,,,,a,1,1.599,"[""0.165"",""0.394"",""0.827"",""0.899""]","[1,0,1,1]",0,37,37,37,1,0,0,,,0,FALSE,,,,,,,,,,,,,,,,,,,,,,,,,,,,,,
,5e8348450e128b0539d77ddc,001,2022-04-29_04h11.29.355,classification_task,2021.2.3,Win32,60.0240096,5e8348450e128b0539d77ddc,626b377229c10585ec392f8a,626b3a644f48837dbde9ab41,,,,,,,,,,,,,,,,,,,,,,,a,1,1.309,"[""0.378"",""0.333"",""0.827"",""0.899""]","[0,1,1,1]",0,38,38,38,1,0,0,,,0,FALSE,,,,,,,,,,,,,,,,,,,,,,,,,,,,,,
,5e8348450e128b0539d77ddc,001,2022-04-29_04h11.29.355,classification_task,2021.2.3,Win32,60.0240096,5e8348450e128b0539d77ddc,626b377229c10585ec392f8a,626b3a644f48837dbde9ab41,,,,,,,,,,,,,,,,,,,,,,,l,1,1.982,"[""0.124"",""0.248"",""0.471"",""0.374""]","[1,1,1,0]",0,39,39,39,1,1,0,,,0,FALSE,,,,,,,,,,,,,,,,,,,,,,,,,,,,,,
,5e8348450e128b0539d77ddc,001,2022-04-29_04h11.29.355,classification_task,2021.2.3,Win32,60.0240096,5e8348450e128b0539d77ddc,626b377229c10585ec392f8a,626b3a644f48837dbde9ab41,,,,,,,,,,,,,,,,,,,,,,,a,1,1.15,"[""0.165"",""0.333"",""0.827"",""0.567""]","[1,1,1,0]",0,40,40,40,1,0,0,,,0,FALSE,,,,,,,,,,,,,,,,,,,,,,,,,,,,,,
,5e8348450e128b0539d77ddc,001,2022-04-29_04h11.29.355,classification_task,2021.2.3,Win32,60.0240096,5e8348450e128b0539d77ddc,626b377229c10585ec392f8a,626b3a644f48837dbde9ab41,,,,,,,,,,,,,,,,,,,,,,,l,1,1.02,"[""0.045"",""0.080"",""0.619"",""0.388""]","[1,1,1,0]",0,41,41,41,1,1,1,,,0,FALSE,,,,,,,,,,,,,,,,,,,,,,,,,,,,,,
,5e8348450e128b0539d77ddc,001,2022-04-29_04h11.29.355,classification_task,2021.2.3,Win32,60.0240096,5e8348450e128b0539d77ddc,626b377229c10585ec392f8a,626b3a644f48837dbde9ab41,,,,,,,,,,,,,,,,,,,,,,,a,1,3.677,"[""0.287"",""0.532"",""0.730"",""0.958""]","[1,1,0,1]",0,42,42,42,1,0,1,,,0,FALSE,,,,,,,,,,,,,,,,,,,,,,,,,,,,,,
,5e8348450e128b0539d77ddc,001,2022-04-29_04h11.29.355,classification_task,2021.2.3,Win32,60.0240096,5e8348450e128b0539d77ddc,626b377229c10585ec392f8a,626b3a644f48837dbde9ab41,,,,,,,,,,,,,,,,,,,,,,,l,1,1.518,"[""0.205"",""0.080"",""0.619"",""0.695""]","[0,1,1,1]",0,43,43,43,1,1,1,,,0,FALSE,,,,,,,,,,,,,,,,,,,,,,,,,,,,,,
,5e8348450e128b0539d77ddc,001,2022-04-29_04h11.29.355,classification_task,2021.2.3,Win32,60.0240096,5e8348450e128b0539d77ddc,626b377229c10585ec392f8a,626b3a644f48837dbde9ab41,,,,,,,,,,,,,,,,,,,,,,,l,1,2.395,"[""0.124"",""0.657"",""0.471"",""0.790""]","[1,0,1,1]",0,44,44,44,1,1,0,,,0,FALSE,,,,,,,,,,,,,,,,,,,,,,,,,,,,,,
,5e8348450e128b0539d77ddc,001,2022-04-29_04h11.29.355,classification_task,2021.2.3,Win32,60.0240096,5e8348450e128b0539d77ddc,626b377229c10585ec392f8a,626b3a644f48837dbde9ab41,,,,,,,,,,,,,,,,,,,,,,,a,1,3.564,"[""0.287"",""0.532"",""0.863"",""0.657""]","[1,1,1,0]",0,45,45,45,1,0,1,,,0,FALSE,,,,,,,,,,,,,,,,,,,,,,,,,,,,,,
,5e8348450e128b0539d77ddc,001,2022-04-29_04h11.29.355,classification_task,2021.2.3,Win32,60.0240096,5e8348450e128b0539d77ddc,626b377229c10585ec392f8a,626b3a644f48837dbde9ab41,,,,,,,,,,,,,,,,,,,,,,,a,1,1.615,"[""0.165"",""0.333"",""0.388"",""0.899""]","[1,1,0,1]",0,46,46,46,1,0,0,,,0,FALSE,,,,,,,,,,,,,,,,,,,,,,,,,,,,,,
,5e8348450e128b0539d77ddc,001,2022-04-29_04h11.29.355,classification_task,2021.2.3,Win32,60.0240096,5e8348450e128b0539d77ddc,626b377229c10585ec392f8a,626b3a644f48837dbde9ab41,,,,,,,,,,,,,,,,,,,,,,,l,1,0.967,"[""0.045"",""0.080"",""0.207"",""0.695""]","[1,1,0,1]",0,47,47,47,1,1,1,,,0,FALSE,,,,,,,,,,,,,,,,,,,,,,,,,,,,,,
,5e8348450e128b0539d77ddc,001,2022-04-29_04h11.29.355,classification_task,2021.2.3,Win32,60.0240096,5e8348450e128b0539d77ddc,626b377229c10585ec392f8a,626b3a644f48837dbde9ab41,,,,,,,,,,,,,,,,,,,,,,,l,1,0.919,"[""0.045"",""0.080"",""0.388"",""0.695""]","[1,1,0,1]",0,48,48,48,1,1,1,,,0,FALSE,,,,,,,,,,,,,,,,,,,,,,,,,,,,,,
,5e8348450e128b0539d77ddc,001,2022-04-29_04h11.29.355,classification_task,2021.2.3,Win32,60.0240096,5e8348450e128b0539d77ddc,626b377229c10585ec392f8a,626b3a644f48837dbde9ab41,,,,,,,,,,,,,,,,,,,,,,,a,1,1.149,"[""0.165"",""0.333"",""0.572"",""0.899""]","[1,1,0,1]",0,49,49,49,1,0,0,,,0,FALSE,,,,,,,,,,,,,,,,,,,,,,,,,,,,,,
,5e8348450e128b0539d77ddc,001,2022-04-29_04h11.29.355,classification_task,2021.2.3,Win32,60.0240096,5e8348450e128b0539d77ddc,626b377229c10585ec392f8a,626b3a644f48837dbde9ab41,,,,,,,,,,,,,,,,,,,,,,,a,1,1.015,"[""0.431"",""0.333"",""0.827"",""0.899""]","[0,1,1,1]",0,50,50,50,1,0,0,,,0,FALSE,,,,,,,,,,,,,,,,,,,,,,,,,,,,,,
,5e8348450e128b0539d77ddc,001,2022-04-29_04h11.29.355,classification_task,2021.2.3,Win32,60.0240096,5e8348450e128b0539d77ddc,626b377229c10585ec392f8a,626b3a644f48837dbde9ab41,,,,,,,,,,,,,,,,,,,,,,,l,0,2.863,"[""0.202"",""0.532"",""0.863"",""0.958""]","[0,1,1,1]",0,51,51,51,1,0,1,,,0,FALSE,,,,,,,,,,,,,,,,,,,,,,,,,,,,,,
,5e8348450e128b0539d77ddc,001,2022-04-29_04h11.29.355,classification_task,2021.2.3,Win32,60.0240096,5e8348450e128b0539d77ddc,626b377229c10585ec392f8a,626b3a644f48837dbde9ab41,,,,,,,,,,,,,,,,,,,,,,,a,1,2.67,"[""0.287"",""0.532"",""0.863"",""0.394""]","[1,1,1,0]",0,52,52,52,1,0,1,,,0,FALSE,,,,,,,,,,,,,,,,,,,,,,,,,,,,,,
,5e8348450e128b0539d77ddc,001,2022-04-29_04h11.29.355,classification_task,2021.2.3,Win32,60.0240096,5e8348450e128b0539d77ddc,626b377229c10585ec392f8a,626b3a644f48837dbde9ab41,,,,,,,,,,,,,,,,,,,,,,,l,1,2.802,"[""0.124"",""0.248"",""0.205"",""0.790""]","[1,1,0,1]",0,53,53,53,1,1,0,,,0,FALSE,,,,,,,,,,,,,,,,,,,,,,,,,,,,,,
,5e8348450e128b0539d77ddc,001,2022-04-29_04h11.29.355,classification_task,2021.2.3,Win32,60.0240096,5e8348450e128b0539d77ddc,626b377229c10585ec392f8a,626b3a644f48837dbde9ab41,,,,,,,,,,,,,,,,,,,,,,,l,1,1.513,"[""0.124"",""0.248"",""0.471"",""0.374""]","[1,1,1,0]",0,54,54,54,1,1,0,,,0,FALSE,,,,,,,,,,,,,,,,,,,,,,,,,,,,,,
,5e8348450e128b0539d77ddc,001,2022-04-29_04h11.29.355,classification_task,2021.2.3,Win32,60.0240096,5e8348450e128b0539d77ddc,626b377229c10585ec392f8a,626b3a644f48837dbde9ab41,,,,,,,,,,,,,,,,,,,,,,,l,1,1.116,"[""0.045"",""0.657"",""0.619"",""0.695""]","[1,0,1,1]",0,55,55,55,1,1,1,,,0,FALSE,,,,,,,,,,,,,,,,,,,,,,,,,,,,,,
,5e8348450e128b0539d77ddc,001,2022-04-29_04h11.29.355,classification_task,2021.2.3,Win32,60.0240096,5e8348450e128b0539d77ddc,626b377229c10585ec392f8a,626b3a644f48837dbde9ab41,,,,,,,,,,,,,,,,,,,,,,,a,1,2.832,"[""0.287"",""0.205"",""0.863"",""0.958""]","[1,0,1,1]",0,56,56,56,1,0,1,,,0,FALSE,,,,,,,,,,,,,,,,,,,,,,,,,,,,,,
,5e8348450e128b0539d77ddc,001,2022-04-29_04h11.29.355,classification_task,2021.2.3,Win32,60.0240096,5e8348450e128b0539d77ddc,626b377229c10585ec392f8a,626b3a644f48837dbde9ab41,,,,,,,,,,,,,,,,,,,,,,,l,1,2.548,"[""0.124"",""0.572"",""0.471"",""0.790""]","[1,0,1,1]",0,57,57,57,1,1,0,,,0,FALSE,,,,,,,,,,,,,,,,,,,,,,,,,,,,,,
,5e8348450e128b0539d77ddc,001,2022-04-29_04h11.29.355,classification_task,2021.2.3,Win32,60.0240096,5e8348450e128b0539d77ddc,626b377229c10585ec392f8a,626b3a644f48837dbde9ab41,,,,,,,,,,,,,,,,,,,,,,,l,1,0.962,"[""0.045"",""0.080"",""0.619"",""0.394""]","[1,1,1,0]",0,58,58,58,1,1,1,,,0,FALSE,,,,,,,,,,,,,,,,,,,,,,,,,,,,,,
,5e8348450e128b0539d77ddc,001,2022-04-29_04h11.29.355,classification_task,2021.2.3,Win32,60.0240096,5e8348450e128b0539d77ddc,626b377229c10585ec392f8a,626b3a644f48837dbde9ab41,,,,,,,,,,,,,,,,,,,,,,,a,1,1.464,"[""0.165"",""0.566"",""0.827"",""0.899""]","[1,0,1,1]",0,59,59,59,1,0,0,,,0,FALSE,,,,,,,,,,,,,,,,,,,,,,,,,,,,,,
,5e8348450e128b0539d77ddc,001,2022-04-29_04h11.29.355,classification_task,2021.2.3,Win32,60.0240096,5e8348450e128b0539d77ddc,626b377229c10585ec392f8a,626b3a644f48837dbde9ab41,,,,,,,,,,,,,,,,,,,,,,,a,1,1.116,"[""0.165"",""0.333"",""0.827"",""0.567""]","[1,1,1,0]",0,60,60,60,1,0,0,,,0,FALSE,,,,,,,,,,,,,,,,,,,,,,,,,,,,,,
,5e8348450e128b0539d77ddc,001,2022-04-29_04h11.29.355,classification_task,2021.2.3,Win32,60.0240096,5e8348450e128b0539d77ddc,626b377229c10585ec392f8a,626b3a644f48837dbde9ab41,,,,,,,,,,,,,,,,,,,,,,,l,1,2.356,"[""0.572"",""0.248"",""0.471"",""0.790""]","[0,1,1,1]",0,61,61,61,1,1,0,,,0,FALSE,,,,,,,,,,,,,,,,,,,,,,,,,,,,,,
,5e8348450e128b0539d77ddc,001,2022-04-29_04h11.29.355,classification_task,2021.2.3,Win32,60.0240096,5e8348450e128b0539d77ddc,626b377229c10585ec392f8a,626b3a644f48837dbde9ab41,,,,,,,,,,,,,,,,,,,,,,,a,1,4.334,"[""0.287"",""0.532"",""0.207"",""0.958""]","[1,1,0,1]",0,62,62,62,1,0,1,,,0,FALSE,,,,,,,,,,,,,,,,,,,,,,,,,,,,,,
,5e8348450e128b0539d77ddc,001,2022-04-29_04h11.29.355,classification_task,2021.2.3,Win32,60.0240096,5e8348450e128b0539d77ddc,626b377229c10585ec392f8a,626b3a644f48837dbde9ab41,,,,,,,,,,,,,,,,,,,,,,,l,1,1.164,"[""0.657"",""0.080"",""0.619"",""0.695""]","[0,1,1,1]",0,63,63,63,1,1,1,,,0,FALSE,,,,,,,,,,,,,,,,,,,,,,,,,,,,,,
,5e8348450e128b0539d77ddc,001,2022-04-29_04h11.29.355,classification_task,2021.2.3,Win32,60.0240096,5e8348450e128b0539d77ddc,626b377229c10585ec392f8a,626b3a644f48837dbde9ab41,,,,,,,,,,,,,,,,,,,,,,,,,,,,,,,,,,,,,,,0, ,,0,9.030257937,290.603,0,1,1,1,1,2,2,,,,,,,,,,,,,,,,,
,5e8348450e128b0539d77ddc,001,2022-04-29_04h11.29.355,classification_task,2021.2.3,Win32,60.0240096,5e8348450e128b0539d77ddc,626b377229c10585ec392f8a,626b3a644f48837dbde9ab41,,,,,,,,,,,,,,,,,,,,,,,,,,,,,,,,,,,,,,,1,  ,,0,9.753637566,254.559,0,1,1,1,1,2,2,,,,,,,,,,,,,,,,,
,5e8348450e128b0539d77ddc,001,2022-04-29_04h11.29.355,classification_task,2021.2.3,Win32,60.0240096,5e8348450e128b0539d77ddc,626b377229c10585ec392f8a,626b3a644f48837dbde9ab41,,,,,,,,,,,,,,,,,,,,,,,,,,,,,,,,,,,,,,,2,  ,,0,7.686838624,272.048,0,1,1,1,1,2,2,,,,,,,,,,,,,,,,,
,5e8348450e128b0539d77ddc,001,2022-04-29_04h11.29.355,classification_task,2021.2.3,Win32,60.0240096,5e8348450e128b0539d77ddc,626b377229c10585ec392f8a,626b3a644f48837dbde9ab41,,,,,,,,,,,,,,,,,,,,,,,,,,,,,,,,,,,,,,,,,,,,,0,1,1,1,1,,2,,,,,,,,,,,,,,,,,
,5e8348450e128b0539d77ddc,001,2022-04-29_04h11.29.355,classification_task,2021.2.3,Win32,60.0240096,5e8348450e128b0539d77ddc,626b377229c10585ec392f8a,626b3a644f48837dbde9ab41,,,,,,,,,,,,,,,,,,,,,space,29.321,l,1,2.694,"[""0.124"",""0.248"",""0.471"",""0.397""]","[1,1,1,0]",0,0,0,0,1,1,0,,,0,FALSE,,,,,,,,,,,,,,,,,,,,,,,,,,,,,,
,5e8348450e128b0539d77ddc,001,2022-04-29_04h11.29.355,classification_task,2021.2.3,Win32,60.0240096,5e8348450e128b0539d77ddc,626b377229c10585ec392f8a,626b3a644f48837dbde9ab41,,,,,,,,,,,,,,,,,,,,,,,l,1,1.632,"[""0.045"",""0.080"",""0.567"",""0.695""]","[1,1,0,1]",0,1,1,1,1,1,1,,,0,FALSE,,,,,,,,,,,,,,,,,,,,,,,,,,,,,,
,5e8348450e128b0539d77ddc,001,2022-04-29_04h11.29.355,classification_task,2021.2.3,Win32,60.0240096,5e8348450e128b0539d77ddc,626b377229c10585ec392f8a,626b3a644f48837dbde9ab41,,,,,,,,,,,,,,,,,,,,,,,l,1,2.35,"[""0.124"",""0.205"",""0.471"",""0.790""]","[1,0,1,1]",0,2,2,2,1,1,0,,,0,FALSE,,,,,,,,,,,,,,,,,,,,,,,,,,,,,,
,5e8348450e128b0539d77ddc,001,2022-04-29_04h11.29.355,classification_task,2021.2.3,Win32,60.0240096,5e8348450e128b0539d77ddc,626b377229c10585ec392f8a,626b3a644f48837dbde9ab41,,,,,,,,,,,,,,,,,,,,,,,l,1,1.117,"[""0.045"",""0.080"",""0.619"",""0.378""]","[1,1,1,0]",0,3,3,3,1,1,1,,,0,FALSE,,,,,,,,,,,,,,,,,,,,,,,,,,,,,,
,5e8348450e128b0539d77ddc,001,2022-04-29_04h11.29.355,classification_task,2021.2.3,Win32,60.0240096,5e8348450e128b0539d77ddc,626b377229c10585ec392f8a,626b3a644f48837dbde9ab41,,,,,,,,,,,,,,,,,,,,,,,a,1,2.684,"[""0.287"",""0.739"",""0.863"",""0.958""]","[1,0,1,1]",0,4,4,4,1,0,1,,,0,FALSE,,,,,,,,,,,,,,,,,,,,,,,,,,,,,,
,5e8348450e128b0539d77ddc,001,2022-04-29_04h11.29.355,classification_task,2021.2.3,Win32,60.0240096,5e8348450e128b0539d77ddc,626b377229c10585ec392f8a,626b3a644f48837dbde9ab41,,,,,,,,,,,,,,,,,,,,,,,a,1,3.697,"[""0.287"",""0.532"",""0.657"",""0.958""]","[1,1,0,1]",0,5,5,5,1,0,1,,,0,FALSE,,,,,,,,,,,,,,,,,,,,,,,,,,,,,,
,5e8348450e128b0539d77ddc,001,2022-04-29_04h11.29.355,classification_task,2021.2.3,Win32,60.0240096,5e8348450e128b0539d77ddc,626b377229c10585ec392f8a,626b3a644f48837dbde9ab41,,,,,,,,,,,,,,,,,,,,,,,a,1,1.238,"[""0.165"",""0.333"",""0.566"",""0.899""]","[1,1,0,1]",0,6,6,6,1,0,0,,,0,FALSE,,,,,,,,,,,,,,,,,,,,,,,,,,,,,,
,5e8348450e128b0539d77ddc,001,2022-04-29_04h11.29.355,classification_task,2021.2.3,Win32,60.0240096,5e8348450e128b0539d77ddc,626b377229c10585ec392f8a,626b3a644f48837dbde9ab41,,,,,,,,,,,,,,,,,,,,,,,a,1,1.181,"[""0.165"",""0.333"",""0.827"",""0.374""]","[1,1,1,0]",0,7,7,7,1,0,0,,,0,FALSE,,,,,,,,,,,,,,,,,,,,,,,,,,,,,,
,5e8348450e128b0539d77ddc,001,2022-04-29_04h11.29.355,classification_task,2021.2.3,Win32,60.0240096,5e8348450e128b0539d77ddc,626b377229c10585ec392f8a,626b3a644f48837dbde9ab41,,,,,,,,,,,,,,,,,,,,,,,a,1,2.048,"[""0.165"",""0.205"",""0.827"",""0.899""]","[1,0,1,1]",0,8,8,8,1,0,0,,,0,FALSE,,,,,,,,,,,,,,,,,,,,,,,,,,,,,,
,5e8348450e128b0539d77ddc,001,2022-04-29_04h11.29.355,classification_task,2021.2.3,Win32,60.0240096,5e8348450e128b0539d77ddc,626b377229c10585ec392f8a,626b3a644f48837dbde9ab41,,,,,,,,,,,,,,,,,,,,,,,a,1,0.85,"[""0.739"",""0.333"",""0.827"",""0.899""]","[0,1,1,1]",0,9,9,9,1,0,0,,,0,FALSE,,,,,,,,,,,,,,,,,,,,,,,,,,,,,,
,5e8348450e128b0539d77ddc,001,2022-04-29_04h11.29.355,classification_task,2021.2.3,Win32,60.0240096,5e8348450e128b0539d77ddc,626b377229c10585ec392f8a,626b3a644f48837dbde9ab41,,,,,,,,,,,,,,,,,,,,,,,l,1,2.069,"[""0.730"",""0.248"",""0.471"",""0.790""]","[0,1,1,1]",0,10,10,10,1,1,0,,,0,FALSE,,,,,,,,,,,,,,,,,,,,,,,,,,,,,,
,5e8348450e128b0539d77ddc,001,2022-04-29_04h11.29.355,classification_task,2021.2.3,Win32,60.0240096,5e8348450e128b0539d77ddc,626b377229c10585ec392f8a,626b3a644f48837dbde9ab41,,,,,,,,,,,,,,,,,,,,,,,l,1,1.046,"[""0.739"",""0.080"",""0.619"",""0.695""]","[0,1,1,1]",0,11,11,11,1,1,1,,,0,FALSE,,,,,,,,,,,,,,,,,,,,,,,,,,,,,,
,5e8348450e128b0539d77ddc,001,2022-04-29_04h11.29.355,classification_task,2021.2.3,Win32,60.0240096,5e8348450e128b0539d77ddc,626b377229c10585ec392f8a,626b3a644f48837dbde9ab41,,,,,,,,,,,,,,,,,,,,,,,a,1,3.681,"[""0.287"",""0.532"",""0.863"",""0.730""]","[1,1,1,0]",0,12,12,12,1,0,1,,,0,FALSE,,,,,,,,,,,,,,,,,,,,,,,,,,,,,,
,5e8348450e128b0539d77ddc,001,2022-04-29_04h11.29.355,classification_task,2021.2.3,Win32,60.0240096,5e8348450e128b0539d77ddc,626b377229c10585ec392f8a,626b3a644f48837dbde9ab41,,,,,,,,,,,,,,,,,,,,,,,l,1,0.951,"[""0.045"",""0.207"",""0.619"",""0.695""]","[1,0,1,1]",0,13,13,13,1,1,1,,,0,FALSE,,,,,,,,,,,,,,,,,,,,,,,,,,,,,,
,5e8348450e128b0539d77ddc,001,2022-04-29_04h11.29.355,classification_task,2021.2.3,Win32,60.0240096,5e8348450e128b0539d77ddc,626b377229c10585ec392f8a,626b3a644f48837dbde9ab41,,,,,,,,,,,,,,,,,,,,,,,l,1,2.549,"[""0.124"",""0.248"",""0.202"",""0.790""]","[1,1,0,1]",0,14,14,14,1,1,0,,,0,FALSE,,,,,,,,,,,,,,,,,,,,,,,,,,,,,,
,5e8348450e128b0539d77ddc,001,2022-04-29_04h11.29.355,classification_task,2021.2.3,Win32,60.0240096,5e8348450e128b0539d77ddc,626b377229c10585ec392f8a,626b3a644f48837dbde9ab41,,,,,,,,,,,,,,,,,,,,,,,a,1,2.415,"[""0.202"",""0.532"",""0.863"",""0.958""]","[0,1,1,1]",0,15,15,15,1,0,1,,,0,FALSE,,,,,,,,,,,,,,,,,,,,,,,,,,,,,,
,5e8348450e128b0539d77ddc,001,2022-04-29_04h11.29.355,classification_task,2021.2.3,Win32,60.0240096,5e8348450e128b0539d77ddc,626b377229c10585ec392f8a,626b3a644f48837dbde9ab41,,,,,,,,,,,,,,,,,,,,,,,l,1,1.634,"[""0.378"",""0.248"",""0.471"",""0.790""]","[0,1,1,1]",0,16,16,16,1,1,0,,,0,FALSE,,,,,,,,,,,,,,,,,,,,,,,,,,,,,,
,5e8348450e128b0539d77ddc,001,2022-04-29_04h11.29.355,classification_task,2021.2.3,Win32,60.0240096,5e8348450e128b0539d77ddc,626b377229c10585ec392f8a,626b3a644f48837dbde9ab41,,,,,,,,,,,,,,,,,,,,,,,l,1,0.983,"[""0.045"",""0.431"",""0.619"",""0.695""]","[1,0,1,1]",0,17,17,17,1,1,1,,,0,FALSE,,,,,,,,,,,,,,,,,,,,,,,,,,,,,,
,5e8348450e128b0539d77ddc,001,2022-04-29_04h11.29.355,classification_task,2021.2.3,Win32,60.0240096,5e8348450e128b0539d77ddc,626b377229c10585ec392f8a,626b3a644f48837dbde9ab41,,,,,,,,,,,,,,,,,,,,,,,l,1,3.042,"[""0.124"",""0.248"",""0.471"",""0.374""]","[1,1,1,0]",0,18,18,18,1,1,0,,,0,FALSE,,,,,,,,,,,,,,,,,,,,,,,,,,,,,,
,5e8348450e128b0539d77ddc,001,2022-04-29_04h11.29.355,classification_task,2021.2.3,Win32,60.0240096,5e8348450e128b0539d77ddc,626b377229c10585ec392f8a,626b3a644f48837dbde9ab41,,,,,,,,,,,,,,,,,,,,,,,l,1,0.964,"[""0.045"",""0.080"",""0.394"",""0.695""]","[1,1,0,1]",0,19,19,19,1,1,1,,,0,FALSE,,,,,,,,,,,,,,,,,,,,,,,,,,,,,,
,5e8348450e128b0539d77ddc,001,2022-04-29_04h11.29.355,classification_task,2021.2.3,Win32,60.0240096,5e8348450e128b0539d77ddc,626b377229c10585ec392f8a,626b3a644f48837dbde9ab41,,,,,,,,,,,,,,,,,,,,,,,a,1,2.617,"[""0.287"",""0.567"",""0.863"",""0.958""]","[1,0,1,1]",0,20,20,20,1,0,1,,,0,FALSE,,,,,,,,,,,,,,,,,,,,,,,,,,,,,,
,5e8348450e128b0539d77ddc,001,2022-04-29_04h11.29.355,classification_task,2021.2.3,Win32,60.0240096,5e8348450e128b0539d77ddc,626b377229c10585ec392f8a,626b3a644f48837dbde9ab41,,,,,,,,,,,,,,,,,,,,,,,a,1,1.198,"[""0.165"",""0.333"",""0.827"",""0.394""]","[1,1,1,0]",0,21,21,21,1,0,0,,,0,FALSE,,,,,,,,,,,,,,,,,,,,,,,,,,,,,,
,5e8348450e128b0539d77ddc,001,2022-04-29_04h11.29.355,classification_task,2021.2.3,Win32,60.0240096,5e8348450e128b0539d77ddc,626b377229c10585ec392f8a,626b3a644f48837dbde9ab41,,,,,,,,,,,,,,,,,,,,,,,a,1,2.281,"[""0.287"",""0.532"",""0.863"",""0.657""]","[1,1,1,0]",0,22,22,22,1,0,1,,,0,FALSE,,,,,,,,,,,,,,,,,,,,,,,,,,,,,,
,5e8348450e128b0539d77ddc,001,2022-04-29_04h11.29.355,classification_task,2021.2.3,Win32,60.0240096,5e8348450e128b0539d77ddc,626b377229c10585ec392f8a,626b3a644f48837dbde9ab41,,,,,,,,,,,,,,,,,,,,,,,l,1,0.969,"[""0.378"",""0.080"",""0.619"",""0.695""]","[0,1,1,1]",0,23,23,23,1,1,1,,,0,FALSE,,,,,,,,,,,,,,,,,,,,,,,,,,,,,,
,5e8348450e128b0539d77ddc,001,2022-04-29_04h11.29.355,classification_task,2021.2.3,Win32,60.0240096,5e8348450e128b0539d77ddc,626b377229c10585ec392f8a,626b3a644f48837dbde9ab41,,,,,,,,,,,,,,,,,,,,,,,l,1,2.465,"[""0.124"",""0.431"",""0.471"",""0.790""]","[1,0,1,1]",0,24,24,24,1,1,0,,,0,FALSE,,,,,,,,,,,,,,,,,,,,,,,,,,,,,,
,5e8348450e128b0539d77ddc,001,2022-04-29_04h11.29.355,classification_task,2021.2.3,Win32,60.0240096,5e8348450e128b0539d77ddc,626b377229c10585ec392f8a,626b3a644f48837dbde9ab41,,,,,,,,,,,,,,,,,,,,,,,a,1,0.916,"[""0.165"",""0.333"",""0.202"",""0.899""]","[1,1,0,1]",0,25,25,25,1,0,0,,,0,FALSE,,,,,,,,,,,,,,,,,,,,,,,,,,,,,,
,5e8348450e128b0539d77ddc,001,2022-04-29_04h11.29.355,classification_task,2021.2.3,Win32,60.0240096,5e8348450e128b0539d77ddc,626b377229c10585ec392f8a,626b3a644f48837dbde9ab41,,,,,,,,,,,,,,,,,,,,,,,l,1,1.844,"[""0.124"",""0.248"",""0.585"",""0.790""]","[1,1,0,1]",0,26,26,26,1,1,0,,,0,FALSE,,,,,,,,,,,,,,,,,,,,,,,,,,,,,,
,5e8348450e128b0539d77ddc,001,2022-04-29_04h11.29.355,classification_task,2021.2.3,Win32,60.0240096,5e8348450e128b0539d77ddc,626b377229c10585ec392f8a,626b3a644f48837dbde9ab41,,,,,,,,,,,,,,,,,,,,,,,a,1,2.655,"[""0.165"",""0.207"",""0.827"",""0.899""]","[1,0,1,1]",0,27,27,27,1,0,0,,,0,FALSE,,,,,,,,,,,,,,,,,,,,,,,,,,,,,,
,5e8348450e128b0539d77ddc,001,2022-04-29_04h11.29.355,classification_task,2021.2.3,Win32,60.0240096,5e8348450e128b0539d77ddc,626b377229c10585ec392f8a,626b3a644f48837dbde9ab41,,,,,,,,,,,,,,,,,,,,,,,a,1,3.662,"[""0.374"",""0.532"",""0.863"",""0.958""]","[0,1,1,1]",0,28,28,28,1,0,1,,,0,FALSE,,,,,,,,,,,,,,,,,,,,,,,,,,,,,,
,5e8348450e128b0539d77ddc,001,2022-04-29_04h11.29.355,classification_task,2021.2.3,Win32,60.0240096,5e8348450e128b0539d77ddc,626b377229c10585ec392f8a,626b3a644f48837dbde9ab41,,,,,,,,,,,,,,,,,,,,,,,l,1,0.965,"[""0.045"",""0.080"",""0.619"",""0.394""]","[1,1,1,0]",0,29,29,29,1,1,1,,,0,FALSE,,,,,,,,,,,,,,,,,,,,,,,,,,,,,,
,5e8348450e128b0539d77ddc,001,2022-04-29_04h11.29.355,classification_task,2021.2.3,Win32,60.0240096,5e8348450e128b0539d77ddc,626b377229c10585ec392f8a,626b3a644f48837dbde9ab41,,,,,,,,,,,,,,,,,,,,,,,a,1,1.033,"[""0.388"",""0.333"",""0.827"",""0.899""]","[0,1,1,1]",0,30,30,30,1,0,0,,,0,FALSE,,,,,,,,,,,,,,,,,,,,,,,,,,,,,,
,5e8348450e128b0539d77ddc,001,2022-04-29_04h11.29.355,classification_task,2021.2.3,Win32,60.0240096,5e8348450e128b0539d77ddc,626b377229c10585ec392f8a,626b3a644f48837dbde9ab41,,,,,,,,,,,,,,,,,,,,,,,a,1,3.099,"[""0.287"",""0.532"",""0.730"",""0.958""]","[1,1,0,1]",0,31,31,31,1,0,1,,,0,FALSE,,,,,,,,,,,,,,,,,,,,,,,,,,,,,,
,5e8348450e128b0539d77ddc,001,2022-04-29_04h11.29.355,classification_task,2021.2.3,Win32,60.0240096,5e8348450e128b0539d77ddc,626b377229c10585ec392f8a,626b3a644f48837dbde9ab41,,,,,,,,,,,,,,,,,,,,,,,a,1,1.814,"[""0.165"",""0.567"",""0.827"",""0.899""]","[1,0,1,1]",0,32,32,32,1,0,0,,,0,FALSE,,,,,,,,,,,,,,,,,,,,,,,,,,,,,,
,5e8348450e128b0539d77ddc,001,2022-04-29_04h11.29.355,classification_task,2021.2.3,Win32,60.0240096,5e8348450e128b0539d77ddc,626b377229c10585ec392f8a,626b3a644f48837dbde9ab41,,,,,,,,,,,,,,,,,,,,,,,a,1,2.514,"[""0.287"",""0.532"",""0.572"",""0.958""]","[1,1,0,1]",0,33,33,33,1,0,1,,,0,FALSE,,,,,,,,,,,,,,,,,,,,,,,,,,,,,,
,5e8348450e128b0539d77ddc,001,2022-04-29_04h11.29.355,classification_task,2021.2.3,Win32,60.0240096,5e8348450e128b0539d77ddc,626b377229c10585ec392f8a,626b3a644f48837dbde9ab41,,,,,,,,,,,,,,,,,,,,,,,l,1,1.076,"[""0.572"",""0.080"",""0.619"",""0.695""]","[0,1,1,1]",0,34,34,34,1,1,1,,,0,FALSE,,,,,,,,,,,,,,,,,,,,,,,,,,,,,,
,5e8348450e128b0539d77ddc,001,2022-04-29_04h11.29.355,classification_task,2021.2.3,Win32,60.0240096,5e8348450e128b0539d77ddc,626b377229c10585ec392f8a,626b3a644f48837dbde9ab41,,,,,,,,,,,,,,,,,,,,,,,l,1,1.76,"[""0.124"",""0.248"",""0.471"",""0.730""]","[1,1,1,0]",0,35,35,35,1,1,0,,,0,FALSE,,,,,,,,,,,,,,,,,,,,,,,,,,,,,,
,5e8348450e128b0539d77ddc,001,2022-04-29_04h11.29.355,classification_task,2021.2.3,Win32,60.0240096,5e8348450e128b0539d77ddc,626b377229c10585ec392f8a,626b3a644f48837dbde9ab41,,,,,,,,,,,,,,,,,,,,,,,a,1,0.809,"[""0.165"",""0.333"",""0.827"",""0.202""]","[1,1,1,0]",0,36,36,36,1,0,0,,,0,FALSE,,,,,,,,,,,,,,,,,,,,,,,,,,,,,,
,5e8348450e128b0539d77ddc,001,2022-04-29_04h11.29.355,classification_task,2021.2.3,Win32,60.0240096,5e8348450e128b0539d77ddc,626b377229c10585ec392f8a,626b3a644f48837dbde9ab41,,,,,,,,,,,,,,,,,,,,,,,a,1,2.547,"[""0.287"",""0.532"",""0.863"",""0.585""]","[1,1,1,0]",0,37,37,37,1,0,1,,,0,FALSE,,,,,,,,,,,,,,,,,,,,,,,,,,,,,,
,5e8348450e128b0539d77ddc,001,2022-04-29_04h11.29.355,classification_task,2021.2.3,Win32,60.0240096,5e8348450e128b0539d77ddc,626b377229c10585ec392f8a,626b3a644f48837dbde9ab41,,,,,,,,,,,,,,,,,,,,,,,l,1,2.494,"[""0.124"",""0.572"",""0.471"",""0.790""]","[1,0,1,1]",0,38,38,38,1,1,0,,,0,FALSE,,,,,,,,,,,,,,,,,,,,,,,,,,,,,,
,5e8348450e128b0539d77ddc,001,2022-04-29_04h11.29.355,classification_task,2021.2.3,Win32,60.0240096,5e8348450e128b0539d77ddc,626b377229c10585ec392f8a,626b3a644f48837dbde9ab41,,,,,,,,,,,,,,,,,,,,,,,l,1,1.575,"[""0.202"",""0.248"",""0.471"",""0.790""]","[0,1,1,1]",0,39,39,39,1,1,0,,,0,FALSE,,,,,,,,,,,,,,,,,,,,,,,,,,,,,,
,5e8348450e128b0539d77ddc,001,2022-04-29_04h11.29.355,classification_task,2021.2.3,Win32,60.0240096,5e8348450e128b0539d77ddc,626b377229c10585ec392f8a,626b3a644f48837dbde9ab41,,,,,,,,,,,,,,,,,,,,,,,l,1,0.928,"[""0.045"",""0.080"",""0.739"",""0.695""]","[1,1,0,1]",0,40,40,40,1,1,1,,,0,FALSE,,,,,,,,,,,,,,,,,,,,,,,,,,,,,,
,5e8348450e128b0539d77ddc,001,2022-04-29_04h11.29.355,classification_task,2021.2.3,Win32,60.0240096,5e8348450e128b0539d77ddc,626b377229c10585ec392f8a,626b3a644f48837dbde9ab41,,,,,,,,,,,,,,,,,,,,,,,a,1,2.222,"[""0.287"",""0.374"",""0.863"",""0.958""]","[1,0,1,1]",0,41,41,41,1,0,1,,,0,FALSE,,,,,,,,,,,,,,,,,,,,,,,,,,,,,,
,5e8348450e128b0539d77ddc,001,2022-04-29_04h11.29.355,classification_task,2021.2.3,Win32,60.0240096,5e8348450e128b0539d77ddc,626b377229c10585ec392f8a,626b3a644f48837dbde9ab41,,,,,,,,,,,,,,,,,,,,,,,a,1,2.067,"[""0.394"",""0.532"",""0.863"",""0.958""]","[0,1,1,1]",0,42,42,42,1,0,1,,,0,FALSE,,,,,,,,,,,,,,,,,,,,,,,,,,,,,,
,5e8348450e128b0539d77ddc,001,2022-04-29_04h11.29.355,classification_task,2021.2.3,Win32,60.0240096,5e8348450e128b0539d77ddc,626b377229c10585ec392f8a,626b3a644f48837dbde9ab41,,,,,,,,,,,,,,,,,,,,,,,a,1,1.815,"[""0.165"",""0.333"",""0.207"",""0.899""]","[1,1,0,1]",0,43,43,43,1,0,0,,,0,FALSE,,,,,,,,,,,,,,,,,,,,,,,,,,,,,,
,5e8348450e128b0539d77ddc,001,2022-04-29_04h11.29.355,classification_task,2021.2.3,Win32,60.0240096,5e8348450e128b0539d77ddc,626b377229c10585ec392f8a,626b3a644f48837dbde9ab41,,,,,,,,,,,,,,,,,,,,,,,l,1,0.968,"[""0.045"",""0.080"",""0.619"",""0.431""]","[1,1,1,0]",0,44,44,44,1,1,1,,,0,FALSE,,,,,,,,,,,,,,,,,,,,,,,,,,,,,,
,5e8348450e128b0539d77ddc,001,2022-04-29_04h11.29.355,classification_task,2021.2.3,Win32,60.0240096,5e8348450e128b0539d77ddc,626b377229c10585ec392f8a,626b3a644f48837dbde9ab41,,,,,,,,,,,,,,,,,,,,,,,l,1,0.934,"[""0.045"",""0.431"",""0.619"",""0.695""]","[1,0,1,1]",0,45,45,45,1,1,1,,,0,FALSE,,,,,,,,,,,,,,,,,,,,,,,,,,,,,,
,5e8348450e128b0539d77ddc,001,2022-04-29_04h11.29.355,classification_task,2021.2.3,Win32,60.0240096,5e8348450e128b0539d77ddc,626b377229c10585ec392f8a,626b3a644f48837dbde9ab41,,,,,,,,,,,,,,,,,,,,,,,l,1,1.729,"[""0.124"",""0.248"",""0.394"",""0.790""]","[1,1,0,1]",0,46,46,46,1,1,0,,,0,FALSE,,,,,,,,,,,,,,,,,,,,,,,,,,,,,,
,5e8348450e128b0539d77ddc,001,2022-04-29_04h11.29.355,classification_task,2021.2.3,Win32,60.0240096,5e8348450e128b0539d77ddc,626b377229c10585ec392f8a,626b3a644f48837dbde9ab41,,,,,,,,,,,,,,,,,,,,,,,a,1,0.803,"[""0.739"",""0.333"",""0.827"",""0.899""]","[0,1,1,1]",0,47,47,47,1,0,0,,,0,FALSE,,,,,,,,,,,,,,,,,,,,,,,,,,,,,,
,5e8348450e128b0539d77ddc,001,2022-04-29_04h11.29.355,classification_task,2021.2.3,Win32,60.0240096,5e8348450e128b0539d77ddc,626b377229c10585ec392f8a,626b3a644f48837dbde9ab41,,,,,,,,,,,,,,,,,,,,,,,l,1,0.87,"[""0.045"",""0.080"",""0.397"",""0.695""]","[1,1,0,1]",0,48,48,48,1,1,1,,,0,FALSE,,,,,,,,,,,,,,,,,,,,,,,,,,,,,,
,5e8348450e128b0539d77ddc,001,2022-04-29_04h11.29.355,classification_task,2021.2.3,Win32,60.0240096,5e8348450e128b0539d77ddc,626b377229c10585ec392f8a,626b3a644f48837dbde9ab41,,,,,,,,,,,,,,,,,,,,,,,a,1,0.95,"[""0.566"",""0.333"",""0.827"",""0.899""]","[0,1,1,1]",0,49,49,49,1,0,0,,,0,FALSE,,,,,,,,,,,,,,,,,,,,,,,,,,,,,,
,5e8348450e128b0539d77ddc,001,2022-04-29_04h11.29.355,classification_task,2021.2.3,Win32,60.0240096,5e8348450e128b0539d77ddc,626b377229c10585ec392f8a,626b3a644f48837dbde9ab41,,,,,,,,,,,,,,,,,,,,,,,a,1,1.878,"[""0.287"",""0.532"",""0.572"",""0.958""]","[1,1,0,1]",0,50,50,50,1,0,1,,,0,FALSE,,,,,,,,,,,,,,,,,,,,,,,,,,,,,,
,5e8348450e128b0539d77ddc,001,2022-04-29_04h11.29.355,classification_task,2021.2.3,Win32,60.0240096,5e8348450e128b0539d77ddc,626b377229c10585ec392f8a,626b3a644f48837dbde9ab41,,,,,,,,,,,,,,,,,,,,,,,l,1,0.917,"[""0.045"",""0.567"",""0.619"",""0.695""]","[1,0,1,1]",0,51,51,51,1,1,1,,,0,FALSE,,,,,,,,,,,,,,,,,,,,,,,,,,,,,,
,5e8348450e128b0539d77ddc,001,2022-04-29_04h11.29.355,classification_task,2021.2.3,Win32,60.0240096,5e8348450e128b0539d77ddc,626b377229c10585ec392f8a,626b3a644f48837dbde9ab41,,,,,,,,,,,,,,,,,,,,,,,a,1,3.04,"[""0.287"",""0.532"",""0.863"",""0.207""]","[1,1,1,0]",0,52,52,52,1,0,1,,,0,FALSE,,,,,,,,,,,,,,,,,,,,,,,,,,,,,,
,5e8348450e128b0539d77ddc,001,2022-04-29_04h11.29.355,classification_task,2021.2.3,Win32,60.0240096,5e8348450e128b0539d77ddc,626b377229c10585ec392f8a,626b3a644f48837dbde9ab41,,,,,,,,,,,,,,,,,,,,,,,l,1,1.314,"[""0.388"",""0.080"",""0.619"",""0.695""]","[0,1,1,1]",0,53,53,53,1,1,1,,,0,FALSE,,,,,,,,,,,,,,,,,,,,,,,,,,,,,,
,5e8348450e128b0539d77ddc,001,2022-04-29_04h11.29.355,classification_task,2021.2.3,Win32,60.0240096,5e8348450e128b0539d77ddc,626b377229c10585ec392f8a,626b3a644f48837dbde9ab41,,,,,,,,,,,,,,,,,,,,,,,a,1,1.054,"[""0.165"",""0.333"",""0.827"",""0.394""]","[1,1,1,0]",0,54,54,54,1,0,0,,,0,FALSE,,,,,,,,,,,,,,,,,,,,,,,,,,,,,,
,5e8348450e128b0539d77ddc,001,2022-04-29_04h11.29.355,classification_task,2021.2.3,Win32,60.0240096,5e8348450e128b0539d77ddc,626b377229c10585ec392f8a,626b3a644f48837dbde9ab41,,,,,,,,,,,,,,,,,,,,,,,l,1,1.682,"[""0.124"",""0.248"",""0.572"",""0.790""]","[1,1,0,1]",0,55,55,55,1,1,0,,,0,FALSE,,,,,,,,,,,,,,,,,,,,,,,,,,,,,,
,5e8348450e128b0539d77ddc,001,2022-04-29_04h11.29.355,classification_task,2021.2.3,Win32,60.0240096,5e8348450e128b0539d77ddc,626b377229c10585ec392f8a,626b3a644f48837dbde9ab41,,,,,,,,,,,,,,,,,,,,,,,l,1,0.992,"[""0.045"",""0.080"",""0.619"",""0.657""]","[1,1,1,0]",0,56,56,56,1,1,1,,,0,FALSE,,,,,,,,,,,,,,,,,,,,,,,,,,,,,,
,5e8348450e128b0539d77ddc,001,2022-04-29_04h11.29.355,classification_task,2021.2.3,Win32,60.0240096,5e8348450e128b0539d77ddc,626b377229c10585ec392f8a,626b3a644f48837dbde9ab41,,,,,,,,,,,,,,,,,,,,,,,l,1,1.564,"[""0.124"",""0.730"",""0.471"",""0.790""]","[1,0,1,1]",0,57,57,57,1,1,0,,,0,FALSE,,,,,,,,,,,,,,,,,,,,,,,,,,,,,,
,5e8348450e128b0539d77ddc,001,2022-04-29_04h11.29.355,classification_task,2021.2.3,Win32,60.0240096,5e8348450e128b0539d77ddc,626b377229c10585ec392f8a,626b3a644f48837dbde9ab41,,,,,,,,,,,,,,,,,,,,,,,l,1,1.642,"[""0.657"",""0.248"",""0.471"",""0.790""]","[0,1,1,1]",0,58,58,58,1,1,0,,,0,FALSE,,,,,,,,,,,,,,,,,,,,,,,,,,,,,,
,5e8348450e128b0539d77ddc,001,2022-04-29_04h11.29.355,classification_task,2021.2.3,Win32,60.0240096,5e8348450e128b0539d77ddc,626b377229c10585ec392f8a,626b3a644f48837dbde9ab41,,,,,,,,,,,,,,,,,,,,,,,a,1,0.95,"[""0.165"",""0.333"",""0.657"",""0.899""]","[1,1,0,1]",0,59,59,59,1,0,0,,,0,FALSE,,,,,,,,,,,,,,,,,,,,,,,,,,,,,,
,5e8348450e128b0539d77ddc,001,2022-04-29_04h11.29.355,classification_task,2021.2.3,Win32,60.0240096,5e8348450e128b0539d77ddc,626b377229c10585ec392f8a,626b3a644f48837dbde9ab41,,,,,,,,,,,,,,,,,,,,,,,a,1,1.521,"[""0.165"",""0.566"",""0.827"",""0.899""]","[1,0,1,1]",0,60,60,60,1,0,0,,,0,FALSE,,,,,,,,,,,,,,,,,,,,,,,,,,,,,,
,5e8348450e128b0539d77ddc,001,2022-04-29_04h11.29.355,classification_task,2021.2.3,Win32,60.0240096,5e8348450e128b0539d77ddc,626b377229c10585ec392f8a,626b3a644f48837dbde9ab41,,,,,,,,,,,,,,,,,,,,,,,l,0,2.599,"[""0.431"",""0.532"",""0.863"",""0.958""]","[0,1,1,1]",0,61,61,61,1,0,1,,,0,FALSE,,,,,,,,,,,,,,,,,,,,,,,,,,,,,,
,5e8348450e128b0539d77ddc,001,2022-04-29_04h11.29.355,classification_task,2021.2.3,Win32,60.0240096,5e8348450e128b0539d77ddc,626b377229c10585ec392f8a,626b3a644f48837dbde9ab41,,,,,,,,,,,,,,,,,,,,,,,l,1,1.051,"[""0.124"",""0.248"",""0.471"",""0.394""]","[1,1,1,0]",0,62,62,62,1,1,0,,,0,FALSE,,,,,,,,,,,,,,,,,,,,,,,,,,,,,,
,5e8348450e128b0539d77ddc,001,2022-04-29_04h11.29.355,classification_task,2021.2.3,Win32,60.0240096,5e8348450e128b0539d77ddc,626b377229c10585ec392f8a,626b3a644f48837dbde9ab41,,,,,,,,,,,,,,,,,,,,,,,l,0,3.291,"[""0.287"",""0.205"",""0.863"",""0.958""]","[1,0,1,1]",0,63,63,63,1,0,1,,,0,FALSE,,,,,,,,,,,,,,,,,,,,,,,,,,,,,,
,5e8348450e128b0539d77ddc,001,2022-04-29_04h11.29.355,classification_task,2021.2.3,Win32,60.0240096,5e8348450e128b0539d77ddc,626b377229c10585ec392f8a,626b3a644f48837dbde9ab41,,,,,,,,,,,,,,,,,,,,,,,,,,,,,,,,,,,,,,,0, ,,0,9.099151235,217.466,0,2,2,2,1,2,3,,,,,,,,,,,,,,,,,
,5e8348450e128b0539d77ddc,001,2022-04-29_04h11.29.355,classification_task,2021.2.3,Win32,60.0240096,5e8348450e128b0539d77ddc,626b377229c10585ec392f8a,626b3a644f48837dbde9ab41,,,,,,,,,,,,,,,,,,,,,,,,,,,,,,,,,,,,,,,1,  ,,0,9.443617725,235.539,0,2,2,2,1,2,3,,,,,,,,,,,,,,,,,
,5e8348450e128b0539d77ddc,001,2022-04-29_04h11.29.355,classification_task,2021.2.3,Win32,60.0240096,5e8348450e128b0539d77ddc,626b377229c10585ec392f8a,626b3a644f48837dbde9ab41,,,,,,,,,,,,,,,,,,,,,,,,,,,,,,,,,,,,,,,2,  ,,0,8.823578042,245.982,0,2,2,2,1,2,3,,,,,,,,,,,,,,,,,
,5e8348450e128b0539d77ddc,001,2022-04-29_04h11.29.355,classification_task,2021.2.3,Win32,60.0240096,5e8348450e128b0539d77ddc,626b377229c10585ec392f8a,626b3a644f48837dbde9ab41,,,,,,,,,,,,,,,,,,,,,,,,,,,,,,,,,,,,,,,,,,,,,0,2,2,2,1,,3,,,,,,,,,,,,,,,,,
,5e8348450e128b0539d77ddc,001,2022-04-29_04h11.29.355,classification_task,2021.2.3,Win32,60.0240096,5e8348450e128b0539d77ddc,626b377229c10585ec392f8a,626b3a644f48837dbde9ab41,,,,,,,,,,,,,,,,,,,,,,,,,,,,,,,,,,,,,,,,,,,,,,,,,,,,,I believe the aid is a competent performer,,0.7,0,4,1290.953,0,0,0,0,1,0,,,,
,5e8348450e128b0539d77ddc,001,2022-04-29_04h11.29.355,classification_task,2021.2.3,Win32,60.0240096,5e8348450e128b0539d77ddc,626b377229c10585ec392f8a,626b3a644f48837dbde9ab41,,,,,,,,,,,,,,,,,,,,,,,,,,,,,,,,,,,,,,,,,,,,,,,,,,,,,I trust the aid,,0.7,0,3,1292.42,0,0,0,0,1,0,,,,
,5e8348450e128b0539d77ddc,001,2022-04-29_04h11.29.355,classification_task,2021.2.3,Win32,60.0240096,5e8348450e128b0539d77ddc,626b377229c10585ec392f8a,626b3a644f48837dbde9ab41,,,,,,,,,,,,,,,,,,,,,,,,,,,,,,,,,,,,,,,,,,,,,,,,,,,,,I have confidence in the advice given by the aid,,0.7,0,3,1295.358,0,0,0,0,1,0,,,,
,5e8348450e128b0539d77ddc,001,2022-04-29_04h11.29.355,classification_task,2021.2.3,Win32,60.0240096,5e8348450e128b0539d77ddc,626b377229c10585ec392f8a,626b3a644f48837dbde9ab41,,,,,,,,,,,,,,,,,,,,,,,,,,,,,,,,,,,,,,,,,,,,,,,,,,,,,I can depend on the aid,,0.7,0,2,1280.167,0,0,0,0,1,0,,,,
,5e8348450e128b0539d77ddc,001,2022-04-29_04h11.29.355,classification_task,2021.2.3,Win32,60.0240096,5e8348450e128b0539d77ddc,626b377229c10585ec392f8a,626b3a644f48837dbde9ab41,,,,,,,,,,,,,,,,,,,,,,,,,,,,,,,,,,,,,,,,,,,,,,,,,,,,,I can rely on the aid to behave in consistent ways,,0.7,0,2,1260.509,0,0,0,0,1,0,,,,
,5e8348450e128b0539d77ddc,001,2022-04-29_04h11.29.355,classification_task,2021.2.3,Win32,60.0240096,5e8348450e128b0539d77ddc,626b377229c10585ec392f8a,626b3a644f48837dbde9ab41,,,,,,,,,,,,,,,,,,,,,,,,,,,,,,,,,,,,,,,,,,,,,,,,,,,,,I can rely on the aid to do its best every time I take its advice,,0.7,0,3,1272.101,0,0,0,0,1,0,,,,
,5e8348450e128b0539d77ddc,001,2022-04-29_04h11.29.355,classification_task,2021.2.3,Win32,60.0240096,5e8348450e128b0539d77ddc,626b377229c10585ec392f8a,626b3a644f48837dbde9ab41,,,,,,,,,,,,,,,,,,,,,,,,,,,,,,,,,,,,,,,,,,,,,,,,,,,,,"On trials you completed with assistance from the aid, how frequently did you think the aid was correct?",,0.7,0,About half of the time,,0,0,0,0,1,0,,,,
,5e8348450e128b0539d77ddc,001,2022-04-29_04h11.29.355,classification_task,2021.2.3,Win32,60.0240096,5e8348450e128b0539d77ddc,626b377229c10585ec392f8a,626b3a644f48837dbde9ab41,,,,,,,,,,,,,,,,,,,,,,,,,,,,,,,,,,,,,,,,,,,,,,,,,,,,,"On trials you completed without the aid, how frequently did you think you were correct?",,0.7,0,About 2/3 of the time,,0,0,0,0,1,0,,,,
,5e8348450e128b0539d77ddc,001,2022-04-29_04h11.29.355,classification_task,2021.2.3,Win32,60.0240096,5e8348450e128b0539d77ddc,626b377229c10585ec392f8a,626b3a644f48837dbde9ab41,,,,,,,,,,,,,,,,,,,,,,,,,,,,,,,,,,,,,,,,,,,,,,,,,,,,,,,,,,,0,0,0,0,1,,,,,
,5e8348450e128b0539d77ddc,001,2022-04-29_04h11.29.355,classification_task,2021.2.3,Win32,60.0240096,5e8348450e128b0539d77ddc,626b377229c10585ec392f8a,626b3a644f48837dbde9ab41,,,,,,,,,,,,,,,,,,,,,,,,,,,,,,,,,,,,,,,,,,,,,,,,,,,,,,,,,,,,,,,,,space,29.215,1469.313,
,5e8348450e128b0539d77ddc,001,2022-04-29_04h11.29.355,classification_task,2021.2.3,Win32,60.0240096,5e8348450e128b0539d77ddc,626b377229c10585ec392f8a,626b3a644f48837dbde9ab41,,,,,,,,,,,,,,,,,,,,,,,,,,,,,,,,,,,,,,,,,,,,,,,,,,,,,,,,,,,,,,,,,,,,Mozilla/5.0 (Windows NT 10.0; Win64; x64; rv:99.0) Gecko/20100101 Firefox/99.0
