usingWebGL,participant,session,date,expName,psychopyVersion,OS,frameRate,study_id,signatures_friend,signatures_foe,band_ranges_top,band_ranges_bottom,formitemText,formtype,formundefined,formitemWidth,formindex,formresponse,formrt,key_resp_2.keys,key_resp_2.rt,tute_resp.keys,tute_resp.rt,tutorial.thisRepN,tutorial.thisTrialN,tutorial.thisN,tutorial.thisIndex,tutorial.ran,key_resp_4.keys,key_resp_4.rt,key_resp.keys,key_resp.corr,key_resp.rt,lines_presented,is_signal_presented,trials.thisRepN,trials.thisTrialN,trials.thisN,trials.thisIndex,trials.ran,vessel,active_band,lines,is_signal,supported_pos,catch_trial,debrief_formindex,debrief_formitemText,debrief_formtype,debrief_formitemWidth,debrief_formresponse,debrief_formrt,phases.thisRepN,phases.thisTrialN,phases.thisN,phases.thisIndex,phases.ran,phases.order,phase,key_resp_3.keys,trustitemText,trusttype,trustitemWidth,trustindex,trustresponse,trustrt,support_status.thisRepN,support_status.thisTrialN,support_status.thisN,support_status.thisIndex,support_status.ran,support_status.order,key_resp_5.keys,key_resp_5.rt,globalClockTime,userAgent,manualCondition
TRUE,5e89e89bf025be000c01eead,627c6fa887fb4fd63b5b431f,2022-05-12_03h23.45.856,classification_task,2021.2.3,Win32,60.33910577,627c6715c52fd12f31907bcf,,,,,,,,,,,,,,,,,,,,,,,,,,,,,,,,,,,,,,,,,,,,,,,,,,,,,,,,,,,,,,,,,,,,,
,5e89e89bf025be000c01eead,627c6fa887fb4fd63b5b431f,2022-05-12_03h23.45.856,classification_task,2021.2.3,Win32,60.33910577,627c6715c52fd12f31907bcf,"[[""0.323"",""0.358"",""0.878"",""0.926""],[""0.235"",""0.516"",""0.713"",""0.969""]]","[[""0.034"",""0.171"",""0.591"",""0.839""],[""0.128"",""0.431"",""0.638"",""0.792""]]","[1,10]","[100,1000]",Video game experience,,,0.7,0,,,,,,,,,,,,,,,,,,,,,,,,,,,,,,,,,,,,,,,,,,,,,,,,,,,,,,,,,,,,
,5e89e89bf025be000c01eead,627c6fa887fb4fd63b5b431f,2022-05-12_03h23.45.856,classification_task,2021.2.3,Win32,60.33910577,627c6715c52fd12f31907bcf,,,,,Approximately how many hours did you spend playing video games in the last week?,,,0.7,0,10,,,,,,,,,,,,,,,,,,,,,,,,,,,,,,,,,,,,,,,,,,,,,,,,,,,,,,,,,,,
,5e89e89bf025be000c01eead,627c6fa887fb4fd63b5b431f,2022-05-12_03h23.45.856,classification_task,2021.2.3,Win32,60.33910577,627c6715c52fd12f31907bcf,,,,,"Which game did you play the most this year? (Enter ""None"" if you didn't play any)",,,0.7,0,RISK,,,,,,,,,,,,,,,,,,,,,,,,,,,,,,,,,,,,,,,,,,,,,,,,,,,,,,,,,,,
,5e89e89bf025be000c01eead,627c6fa887fb4fd63b5b431f,2022-05-12_03h23.45.856,classification_task,2021.2.3,Win32,60.33910577,627c6715c52fd12f31907bcf,,,,,Visual perception,,,0.7,0,,,,,,,,,,,,,,,,,,,,,,,,,,,,,,,,,,,,,,,,,,,,,,,,,,,,,,,,,,,,
,5e89e89bf025be000c01eead,627c6fa887fb4fd63b5b431f,2022-05-12_03h23.45.856,classification_task,2021.2.3,Win32,60.33910577,627c6715c52fd12f31907bcf,,,,,Do you have any form of color blindness?,,,0.7,0,No,414.0875,,,,,,,,,,,,,,,,,,,,,,,,,,,,,,,,,,,,,,,,,,,,,,,,,,,,,,,,,,
,5e89e89bf025be000c01eead,627c6fa887fb4fd63b5b431f,2022-05-12_03h23.45.856,classification_task,2021.2.3,Win32,60.33910577,627c6715c52fd12f31907bcf,,,,,Do you use software to change the colour temperature of your screen (e.g. f.lux)?,,,0.7,0,No,415.4652,,,,,,,,,,,,,,,,,,,,,,,,,,,,,,,,,,,,,,,,,,,,,,,,,,,,,,,,,,
,5e89e89bf025be000c01eead,627c6fa887fb4fd63b5b431f,2022-05-12_03h23.45.856,classification_task,2021.2.3,Win32,60.33910577,627c6715c52fd12f31907bcf,,,,,,,,,,,,space,58.6049,space,8.4433,0,0,0,0,1,,,,,,,,,,,,,,,,,,,,,,,,,,,,,,,,,,,,,,,,,,,,,,,,,
,5e89e89bf025be000c01eead,627c6fa887fb4fd63b5b431f,2022-05-12_03h23.45.856,classification_task,2021.2.3,Win32,60.33910577,627c6715c52fd12f31907bcf,,,,,,,,,,,,,,space,6.8097,1,0,1,0,1,,,,,,,,,,,,,,,,,,,,,,,,,,,,,,,,,,,,,,,,,,,,,,,,,
,5e89e89bf025be000c01eead,627c6fa887fb4fd63b5b431f,2022-05-12_03h23.45.856,classification_task,2021.2.3,Win32,60.33910577,627c6715c52fd12f31907bcf,,,,,,,,,,,,,,space,25.2926,2,0,2,0,1,,,,,,,,,,,,,,,,,,,,,,,,,,,,,,,,,,,,,,,,,,,,,,,,,
,5e89e89bf025be000c01eead,627c6fa887fb4fd63b5b431f,2022-05-12_03h23.45.856,classification_task,2021.2.3,Win32,60.33910577,627c6715c52fd12f31907bcf,,,,,,,,,,,,,,space,5.8503,3,0,3,0,1,,,,,,,,,,,,,,,,,,,,,,,,,,,,,,,,,,,,,,,,,,,,,,,,,
,5e89e89bf025be000c01eead,627c6fa887fb4fd63b5b431f,2022-05-12_03h23.45.856,classification_task,2021.2.3,Win32,60.33910577,627c6715c52fd12f31907bcf,,,,,,,,,,,,,,space,20.1649,4,0,4,0,1,,,,,,,,,,,,,,,,,,,,,,,,,,,,,,,,,,,,,,,,,,,,,,,,,
,5e89e89bf025be000c01eead,627c6fa887fb4fd63b5b431f,2022-05-12_03h23.45.856,classification_task,2021.2.3,Win32,60.33910577,627c6715c52fd12f31907bcf,,,,,,,,,,,,,,,,,,,,,space,249.9845,a,1,2.5188,"[""0.235"",""0.516"",""0.713"",""0.551""]","[1,1,1,0]",0,0,0,0,1,0,1,,,0,FALSE,,,,,,,,,,,,,,,,,,,,,,,,,,,,,,,
,5e89e89bf025be000c01eead,627c6fa887fb4fd63b5b431f,2022-05-12_03h23.45.856,classification_task,2021.2.3,Win32,60.33910577,627c6715c52fd12f31907bcf,,,,,,,,,,,,,,,,,,,,,,,l,1,1.6156,"[""0.757"",""0.431"",""0.638"",""0.792""]","[0,1,1,1]",0,1,1,1,1,1,1,,,0,FALSE,,,,,,,,,,,,,,,,,,,,,,,,,,,,,,,
,5e89e89bf025be000c01eead,627c6fa887fb4fd63b5b431f,2022-05-12_03h23.45.856,classification_task,2021.2.3,Win32,60.33910577,627c6715c52fd12f31907bcf,,,,,,,,,,,,,,,,,,,,,,,l,1,1.4164,"[""0.128"",""0.748"",""0.638"",""0.792""]","[1,0,1,1]",0,2,2,2,1,1,1,,,0,FALSE,,,,,,,,,,,,,,,,,,,,,,,,,,,,,,,
,5e89e89bf025be000c01eead,627c6fa887fb4fd63b5b431f,2022-05-12_03h23.45.856,classification_task,2021.2.3,Win32,60.33910577,627c6715c52fd12f31907bcf,,,,,,,,,,,,,,,,,,,,,,,a,1,2.2255,"[""0.235"",""0.747"",""0.713"",""0.969""]","[1,0,1,1]",0,3,3,3,1,0,1,,,0,FALSE,,,,,,,,,,,,,,,,,,,,,,,,,,,,,,,
,5e89e89bf025be000c01eead,627c6fa887fb4fd63b5b431f,2022-05-12_03h23.45.856,classification_task,2021.2.3,Win32,60.33910577,627c6715c52fd12f31907bcf,,,,,,,,,,,,,,,,,,,,,,,a,0,3.7777,"[""0.128"",""0.431"",""0.638"",""0.272""]","[1,1,1,0]",0,4,4,4,1,1,1,,,0,FALSE,,,,,,,,,,,,,,,,,,,,,,,,,,,,,,,
,5e89e89bf025be000c01eead,627c6fa887fb4fd63b5b431f,2022-05-12_03h23.45.856,classification_task,2021.2.3,Win32,60.33910577,627c6715c52fd12f31907bcf,,,,,,,,,,,,,,,,,,,,,,,a,1,8.9337,"[""0.323"",""0.272"",""0.878"",""0.926""]","[1,0,1,1]",0,5,5,5,1,0,0,,,0,FALSE,,,,,,,,,,,,,,,,,,,,,,,,,,,,,,,
,5e89e89bf025be000c01eead,627c6fa887fb4fd63b5b431f,2022-05-12_03h23.45.856,classification_task,2021.2.3,Win32,60.33910577,627c6715c52fd12f31907bcf,,,,,,,,,,,,,,,,,,,,,,,l,1,8.7861,"[""0.553"",""0.171"",""0.591"",""0.839""]","[0,1,1,1]",0,6,6,6,1,1,0,,,0,FALSE,,,,,,,,,,,,,,,,,,,,,,,,,,,,,,,
,5e89e89bf025be000c01eead,627c6fa887fb4fd63b5b431f,2022-05-12_03h23.45.856,classification_task,2021.2.3,Win32,60.33910577,627c6715c52fd12f31907bcf,,,,,,,,,,,,,,,,,,,,,,,a,1,6.0175,"[""0.235"",""0.516"",""0.072"",""0.969""]","[1,1,0,1]",0,7,7,7,1,0,1,,,0,FALSE,,,,,,,,,,,,,,,,,,,,,,,,,,,,,,,
,5e89e89bf025be000c01eead,627c6fa887fb4fd63b5b431f,2022-05-12_03h23.45.856,classification_task,2021.2.3,Win32,60.33910577,627c6715c52fd12f31907bcf,,,,,,,,,,,,,,,,,,,,,,,l,1,2.8045,"[""0.034"",""0.286"",""0.591"",""0.839""]","[1,0,1,1]",0,8,8,8,1,1,0,,,0,FALSE,,,,,,,,,,,,,,,,,,,,,,,,,,,,,,,
,5e89e89bf025be000c01eead,627c6fa887fb4fd63b5b431f,2022-05-12_03h23.45.856,classification_task,2021.2.3,Win32,60.33910577,627c6715c52fd12f31907bcf,,,,,,,,,,,,,,,,,,,,,,,a,1,2.5935,"[""0.323"",""0.358"",""0.878"",""0.471""]","[1,1,1,0]",0,9,9,9,1,0,0,,,0,FALSE,,,,,,,,,,,,,,,,,,,,,,,,,,,,,,,
,5e89e89bf025be000c01eead,627c6fa887fb4fd63b5b431f,2022-05-12_03h23.45.856,classification_task,2021.2.3,Win32,60.33910577,627c6715c52fd12f31907bcf,,,,,,,,,,,,,,,,,,,,,,,l,1,2.0255,"[""0.034"",""0.171"",""0.591"",""0.272""]","[1,1,1,0]",0,10,10,10,1,1,0,,,0,FALSE,,,,,,,,,,,,,,,,,,,,,,,,,,,,,,,
,5e89e89bf025be000c01eead,627c6fa887fb4fd63b5b431f,2022-05-12_03h23.45.856,classification_task,2021.2.3,Win32,60.33910577,627c6715c52fd12f31907bcf,,,,,,,,,,,,,,,,,,,,,,,a,1,1.9182,"[""0.323"",""0.358"",""0.757"",""0.926""]","[1,1,0,1]",0,11,11,11,1,0,0,,,0,FALSE,,,,,,,,,,,,,,,,,,,,,,,,,,,,,,,
,5e89e89bf025be000c01eead,627c6fa887fb4fd63b5b431f,2022-05-12_03h23.45.856,classification_task,2021.2.3,Win32,60.33910577,627c6715c52fd12f31907bcf,,,,,,,,,,,,,,,,,,,,,,,a,1,9.5816,"[""0.672"",""0.516"",""0.713"",""0.969""]","[0,1,1,1]",0,12,12,12,1,0,1,,,0,FALSE,,,,,,,,,,,,,,,,,,,,,,,,,,,,,,,
,5e89e89bf025be000c01eead,627c6fa887fb4fd63b5b431f,2022-05-12_03h23.45.856,classification_task,2021.2.3,Win32,60.33910577,627c6715c52fd12f31907bcf,,,,,,,,,,,,,,,,,,,,,,,l,1,3.3418,"[""0.128"",""0.431"",""0.471"",""0.792""]","[1,1,0,1]",0,13,13,13,1,1,1,,,0,FALSE,,,,,,,,,,,,,,,,,,,,,,,,,,,,,,,
,5e89e89bf025be000c01eead,627c6fa887fb4fd63b5b431f,2022-05-12_03h23.45.856,classification_task,2021.2.3,Win32,60.33910577,627c6715c52fd12f31907bcf,,,,,,,,,,,,,,,,,,,,,,,a,1,4.4899,"[""0.672"",""0.358"",""0.878"",""0.926""]","[0,1,1,1]",0,14,14,14,1,0,0,,,0,FALSE,,,,,,,,,,,,,,,,,,,,,,,,,,,,,,,
,5e89e89bf025be000c01eead,627c6fa887fb4fd63b5b431f,2022-05-12_03h23.45.856,classification_task,2021.2.3,Win32,60.33910577,627c6715c52fd12f31907bcf,,,,,,,,,,,,,,,,,,,,,,,l,1,2.826,"[""0.034"",""0.171"",""0.676"",""0.839""]","[1,1,0,1]",0,15,15,15,1,1,0,,,0,FALSE,,,,,,,,,,,,,,,,,,,,,,,,,,,,,,,
,5e89e89bf025be000c01eead,627c6fa887fb4fd63b5b431f,2022-05-12_03h23.45.856,classification_task,2021.2.3,Win32,60.33910577,627c6715c52fd12f31907bcf,,,,,,,,,,,,,,,,,,,,,,,a,1,1.7474,"[""0.235"",""0.516"",""0.272"",""0.969""]","[1,1,0,1]",0,16,16,16,1,0,1,,,0,FALSE,,,,,,,,,,,,,,,,,,,,,,,,,,,,,,,
,5e89e89bf025be000c01eead,627c6fa887fb4fd63b5b431f,2022-05-12_03h23.45.856,classification_task,2021.2.3,Win32,60.33910577,627c6715c52fd12f31907bcf,,,,,,,,,,,,,,,,,,,,,,,l,1,3.6103,"[""0.128"",""0.431"",""0.286"",""0.792""]","[1,1,0,1]",0,17,17,17,1,1,1,,,0,FALSE,,,,,,,,,,,,,,,,,,,,,,,,,,,,,,,
,5e89e89bf025be000c01eead,627c6fa887fb4fd63b5b431f,2022-05-12_03h23.45.856,classification_task,2021.2.3,Win32,60.33910577,627c6715c52fd12f31907bcf,,,,,,,,,,,,,,,,,,,,,,,l,1,3.2314,"[""0.551"",""0.431"",""0.638"",""0.792""]","[0,1,1,1]",0,18,18,18,1,1,1,,,0,FALSE,,,,,,,,,,,,,,,,,,,,,,,,,,,,,,,
,5e89e89bf025be000c01eead,627c6fa887fb4fd63b5b431f,2022-05-12_03h23.45.856,classification_task,2021.2.3,Win32,60.33910577,627c6715c52fd12f31907bcf,,,,,,,,,,,,,,,,,,,,,,,a,1,4.0768,"[""0.287"",""0.358"",""0.878"",""0.926""]","[0,1,1,1]",0,19,19,19,1,0,0,,,0,FALSE,,,,,,,,,,,,,,,,,,,,,,,,,,,,,,,
,5e89e89bf025be000c01eead,627c6fa887fb4fd63b5b431f,2022-05-12_03h23.45.856,classification_task,2021.2.3,Win32,60.33910577,627c6715c52fd12f31907bcf,,,,,,,,,,,,,,,,,,,,,,,a,1,2.938,"[""0.235"",""0.471"",""0.713"",""0.969""]","[1,0,1,1]",0,20,20,20,1,0,1,,,0,FALSE,,,,,,,,,,,,,,,,,,,,,,,,,,,,,,,
,5e89e89bf025be000c01eead,627c6fa887fb4fd63b5b431f,2022-05-12_03h23.45.856,classification_task,2021.2.3,Win32,60.33910577,627c6715c52fd12f31907bcf,,,,,,,,,,,,,,,,,,,,,,,l,1,3.9917,"[""0.128"",""0.431"",""0.638"",""0.395""]","[1,1,1,0]",0,21,21,21,1,1,1,,,0,FALSE,,,,,,,,,,,,,,,,,,,,,,,,,,,,,,,
,5e89e89bf025be000c01eead,627c6fa887fb4fd63b5b431f,2022-05-12_03h23.45.856,classification_task,2021.2.3,Win32,60.33910577,627c6715c52fd12f31907bcf,,,,,,,,,,,,,,,,,,,,,,,a,1,3.7553,"[""0.323"",""0.358"",""0.672"",""0.926""]","[1,1,0,1]",0,22,22,22,1,0,0,,,0,FALSE,,,,,,,,,,,,,,,,,,,,,,,,,,,,,,,
,5e89e89bf025be000c01eead,627c6fa887fb4fd63b5b431f,2022-05-12_03h23.45.856,classification_task,2021.2.3,Win32,60.33910577,627c6715c52fd12f31907bcf,,,,,,,,,,,,,,,,,,,,,,,a,1,3.3464,"[""0.323"",""0.395"",""0.878"",""0.926""]","[1,0,1,1]",0,23,23,23,1,0,0,,,0,FALSE,,,,,,,,,,,,,,,,,,,,,,,,,,,,,,,
,5e89e89bf025be000c01eead,627c6fa887fb4fd63b5b431f,2022-05-12_03h23.45.856,classification_task,2021.2.3,Win32,60.33910577,627c6715c52fd12f31907bcf,,,,,,,,,,,,,,,,,,,,,,,l,1,2.8562,"[""0.034"",""0.171"",""0.591"",""0.471""]","[1,1,1,0]",0,24,24,24,1,1,0,,,0,FALSE,,,,,,,,,,,,,,,,,,,,,,,,,,,,,,,
,5e89e89bf025be000c01eead,627c6fa887fb4fd63b5b431f,2022-05-12_03h23.45.856,classification_task,2021.2.3,Win32,60.33910577,627c6715c52fd12f31907bcf,,,,,,,,,,,,,,,,,,,,,,,a,1,4.0266,"[""0.553"",""0.516"",""0.713"",""0.969""]","[0,1,1,1]",0,25,25,25,1,0,1,,,0,FALSE,,,,,,,,,,,,,,,,,,,,,,,,,,,,,,,
,5e89e89bf025be000c01eead,627c6fa887fb4fd63b5b431f,2022-05-12_03h23.45.856,classification_task,2021.2.3,Win32,60.33910577,627c6715c52fd12f31907bcf,,,,,,,,,,,,,,,,,,,,,,,a,1,1.4756,"[""0.235"",""0.516"",""0.713"",""0.747""]","[1,1,1,0]",0,26,26,26,1,0,1,,,0,FALSE,,,,,,,,,,,,,,,,,,,,,,,,,,,,,,,
,5e89e89bf025be000c01eead,627c6fa887fb4fd63b5b431f,2022-05-12_03h23.45.856,classification_task,2021.2.3,Win32,60.33910577,627c6715c52fd12f31907bcf,,,,,,,,,,,,,,,,,,,,,,,l,1,4.0138,"[""0.034"",""0.171"",""0.757"",""0.839""]","[1,1,0,1]",0,27,27,27,1,1,0,,,0,FALSE,,,,,,,,,,,,,,,,,,,,,,,,,,,,,,,
,5e89e89bf025be000c01eead,627c6fa887fb4fd63b5b431f,2022-05-12_03h23.45.856,classification_task,2021.2.3,Win32,60.33910577,627c6715c52fd12f31907bcf,,,,,,,,,,,,,,,,,,,,,,,a,1,3.2609,"[""0.323"",""0.358"",""0.878"",""0.287""]","[1,1,1,0]",0,28,28,28,1,0,0,,,0,FALSE,,,,,,,,,,,,,,,,,,,,,,,,,,,,,,,
,5e89e89bf025be000c01eead,627c6fa887fb4fd63b5b431f,2022-05-12_03h23.45.856,classification_task,2021.2.3,Win32,60.33910577,627c6715c52fd12f31907bcf,,,,,,,,,,,,,,,,,,,,,,,l,1,4.8914,"[""0.034"",""0.471"",""0.591"",""0.839""]","[1,0,1,1]",0,29,29,29,1,1,0,,,0,FALSE,,,,,,,,,,,,,,,,,,,,,,,,,,,,,,,
,5e89e89bf025be000c01eead,627c6fa887fb4fd63b5b431f,2022-05-12_03h23.45.856,classification_task,2021.2.3,Win32,60.33910577,627c6715c52fd12f31907bcf,,,,,,,,,,,,,,,,,,,,,,,a,0,3.0748,"[""0.676"",""0.171"",""0.591"",""0.839""]","[0,1,1,1]",0,30,30,30,1,1,0,,,0,FALSE,,,,,,,,,,,,,,,,,,,,,,,,,,,,,,,
,5e89e89bf025be000c01eead,627c6fa887fb4fd63b5b431f,2022-05-12_03h23.45.856,classification_task,2021.2.3,Win32,60.33910577,627c6715c52fd12f31907bcf,,,,,,,,,,,,,,,,,,,,,,,l,1,4.3618,"[""0.128"",""0.672"",""0.638"",""0.792""]","[1,0,1,1]",0,31,31,31,1,1,1,,,0,FALSE,,,,,,,,,,,,,,,,,,,,,,,,,,,,,,,
,5e89e89bf025be000c01eead,627c6fa887fb4fd63b5b431f,2022-05-12_03h23.45.856,classification_task,2021.2.3,Win32,60.33910577,627c6715c52fd12f31907bcf,,,,,,,,,,,,,,,,,,,,,,,a,0,4.237,"[""0.034"",""0.287"",""0.591"",""0.839""]","[1,0,1,1]",0,32,32,32,1,1,0,,,0,FALSE,,,,,,,,,,,,,,,,,,,,,,,,,,,,,,,
,5e89e89bf025be000c01eead,627c6fa887fb4fd63b5b431f,2022-05-12_03h23.45.856,classification_task,2021.2.3,Win32,60.33910577,627c6715c52fd12f31907bcf,,,,,,,,,,,,,,,,,,,,,,,l,1,5.6777,"[""0.395"",""0.171"",""0.591"",""0.839""]","[0,1,1,1]",0,33,33,33,1,1,0,,,0,FALSE,,,,,,,,,,,,,,,,,,,,,,,,,,,,,,,
,5e89e89bf025be000c01eead,627c6fa887fb4fd63b5b431f,2022-05-12_03h23.45.856,classification_task,2021.2.3,Win32,60.33910577,627c6715c52fd12f31907bcf,,,,,,,,,,,,,,,,,,,,,,,l,0,1.3935,"[""0.323"",""0.553"",""0.878"",""0.926""]","[1,0,1,1]",0,34,34,34,1,0,0,,,0,FALSE,,,,,,,,,,,,,,,,,,,,,,,,,,,,,,,
,5e89e89bf025be000c01eead,627c6fa887fb4fd63b5b431f,2022-05-12_03h23.45.856,classification_task,2021.2.3,Win32,60.33910577,627c6715c52fd12f31907bcf,,,,,,,,,,,,,,,,,,,,,,,a,0,1.4824,"[""0.034"",""0.171"",""0.672"",""0.839""]","[1,1,0,1]",0,35,35,35,1,1,0,,,0,FALSE,,,,,,,,,,,,,,,,,,,,,,,,,,,,,,,
,5e89e89bf025be000c01eead,627c6fa887fb4fd63b5b431f,2022-05-12_03h23.45.856,classification_task,2021.2.3,Win32,60.33910577,627c6715c52fd12f31907bcf,,,,,,,,,,,,,,,,,,,,,,,l,1,2.952,"[""0.128"",""0.672"",""0.638"",""0.792""]","[1,0,1,1]",0,36,36,36,1,1,1,,,0,FALSE,,,,,,,,,,,,,,,,,,,,,,,,,,,,,,,
,5e89e89bf025be000c01eead,627c6fa887fb4fd63b5b431f,2022-05-12_03h23.45.856,classification_task,2021.2.3,Win32,60.33910577,627c6715c52fd12f31907bcf,,,,,,,,,,,,,,,,,,,,,,,l,1,1.6611,"[""0.034"",""0.171"",""0.591"",""0.672""]","[1,1,1,0]",0,37,37,37,1,1,0,,,0,FALSE,,,,,,,,,,,,,,,,,,,,,,,,,,,,,,,
,5e89e89bf025be000c01eead,627c6fa887fb4fd63b5b431f,2022-05-12_03h23.45.856,classification_task,2021.2.3,Win32,60.33910577,627c6715c52fd12f31907bcf,,,,,,,,,,,,,,,,,,,,,,,l,1,1.3983,"[""0.128"",""0.431"",""0.638"",""0.287""]","[1,1,1,0]",0,38,38,38,1,1,1,,,0,FALSE,,,,,,,,,,,,,,,,,,,,,,,,,,,,,,,
,5e89e89bf025be000c01eead,627c6fa887fb4fd63b5b431f,2022-05-12_03h23.45.856,classification_task,2021.2.3,Win32,60.33910577,627c6715c52fd12f31907bcf,,,,,,,,,,,,,,,,,,,,,,,l,1,0.8298,"[""0.128"",""0.431"",""0.747"",""0.792""]","[1,1,0,1]",0,39,39,39,1,1,1,,,0,FALSE,,,,,,,,,,,,,,,,,,,,,,,,,,,,,,,
,5e89e89bf025be000c01eead,627c6fa887fb4fd63b5b431f,2022-05-12_03h23.45.856,classification_task,2021.2.3,Win32,60.33910577,627c6715c52fd12f31907bcf,,,,,,,,,,,,,,,,,,,,,,,a,1,1.1971,"[""0.235"",""0.747"",""0.713"",""0.969""]","[1,0,1,1]",0,40,40,40,1,0,1,,,0,FALSE,,,,,,,,,,,,,,,,,,,,,,,,,,,,,,,
,5e89e89bf025be000c01eead,627c6fa887fb4fd63b5b431f,2022-05-12_03h23.45.856,classification_task,2021.2.3,Win32,60.33910577,627c6715c52fd12f31907bcf,,,,,,,,,,,,,,,,,,,,,,,a,1,1.332,"[""0.235"",""0.516"",""0.553"",""0.969""]","[1,1,0,1]",0,41,41,41,1,0,1,,,0,FALSE,,,,,,,,,,,,,,,,,,,,,,,,,,,,,,,
,5e89e89bf025be000c01eead,627c6fa887fb4fd63b5b431f,2022-05-12_03h23.45.856,classification_task,2021.2.3,Win32,60.33910577,627c6715c52fd12f31907bcf,,,,,,,,,,,,,,,,,,,,,,,a,1,1.3702,"[""0.323"",""0.358"",""0.672"",""0.926""]","[1,1,0,1]",0,42,42,42,1,0,0,,,0,FALSE,,,,,,,,,,,,,,,,,,,,,,,,,,,,,,,
,5e89e89bf025be000c01eead,627c6fa887fb4fd63b5b431f,2022-05-12_03h23.45.856,classification_task,2021.2.3,Win32,60.33910577,627c6715c52fd12f31907bcf,,,,,,,,,,,,,,,,,,,,,,,a,1,0.9188,"[""0.757"",""0.358"",""0.878"",""0.926""]","[0,1,1,1]",0,43,43,43,1,0,0,,,0,FALSE,,,,,,,,,,,,,,,,,,,,,,,,,,,,,,,
,5e89e89bf025be000c01eead,627c6fa887fb4fd63b5b431f,2022-05-12_03h23.45.856,classification_task,2021.2.3,Win32,60.33910577,627c6715c52fd12f31907bcf,,,,,,,,,,,,,,,,,,,,,,,a,1,1.0207,"[""0.235"",""0.516"",""0.713"",""0.748""]","[1,1,1,0]",0,44,44,44,1,0,1,,,0,FALSE,,,,,,,,,,,,,,,,,,,,,,,,,,,,,,,
,5e89e89bf025be000c01eead,627c6fa887fb4fd63b5b431f,2022-05-12_03h23.45.856,classification_task,2021.2.3,Win32,60.33910577,627c6715c52fd12f31907bcf,,,,,,,,,,,,,,,,,,,,,,,a,1,0.8732,"[""0.323"",""0.358"",""0.878"",""0.676""]","[1,1,1,0]",0,45,45,45,1,0,0,,,0,FALSE,,,,,,,,,,,,,,,,,,,,,,,,,,,,,,,
,5e89e89bf025be000c01eead,627c6fa887fb4fd63b5b431f,2022-05-12_03h23.45.856,classification_task,2021.2.3,Win32,60.33910577,627c6715c52fd12f31907bcf,,,,,,,,,,,,,,,,,,,,,,,l,0,1.3481,"[""0.287"",""0.516"",""0.713"",""0.969""]","[0,1,1,1]",0,46,46,46,1,0,1,,,0,FALSE,,,,,,,,,,,,,,,,,,,,,,,,,,,,,,,
,5e89e89bf025be000c01eead,627c6fa887fb4fd63b5b431f,2022-05-12_03h23.45.856,classification_task,2021.2.3,Win32,60.33910577,627c6715c52fd12f31907bcf,,,,,,,,,,,,,,,,,,,,,,,l,1,2.0873,"[""0.471"",""0.431"",""0.638"",""0.792""]","[0,1,1,1]",0,47,47,47,1,1,1,,,0,FALSE,,,,,,,,,,,,,,,,,,,,,,,,,,,,,,,
,5e89e89bf025be000c01eead,627c6fa887fb4fd63b5b431f,2022-05-12_03h23.45.856,classification_task,2021.2.3,Win32,60.33910577,627c6715c52fd12f31907bcf,,,,,,,,,,,,,,,,,,,,,,,a,0,0.8111,"[""0.034"",""0.171"",""0.672"",""0.839""]","[1,1,0,1]",0,48,48,48,1,1,0,,,0,FALSE,,,,,,,,,,,,,,,,,,,,,,,,,,,,,,,
,5e89e89bf025be000c01eead,627c6fa887fb4fd63b5b431f,2022-05-12_03h23.45.856,classification_task,2021.2.3,Win32,60.33910577,627c6715c52fd12f31907bcf,,,,,,,,,,,,,,,,,,,,,,,a,1,1.3728,"[""0.323"",""0.748"",""0.878"",""0.926""]","[1,0,1,1]",0,49,49,49,1,0,0,,,0,FALSE,,,,,,,,,,,,,,,,,,,,,,,,,,,,,,,
,5e89e89bf025be000c01eead,627c6fa887fb4fd63b5b431f,2022-05-12_03h23.45.856,classification_task,2021.2.3,Win32,60.33910577,627c6715c52fd12f31907bcf,,,,,,,,,,,,,,,,,,,,,,,l,0,1.0992,"[""0.757"",""0.516"",""0.713"",""0.969""]","[0,1,1,1]",0,50,50,50,1,0,1,,,0,FALSE,,,,,,,,,,,,,,,,,,,,,,,,,,,,,,,
,5e89e89bf025be000c01eead,627c6fa887fb4fd63b5b431f,2022-05-12_03h23.45.856,classification_task,2021.2.3,Win32,60.33910577,627c6715c52fd12f31907bcf,,,,,,,,,,,,,,,,,,,,,,,a,1,1.2161,"[""0.235"",""0.516"",""0.553"",""0.969""]","[1,1,0,1]",0,51,51,51,1,0,1,,,0,FALSE,,,,,,,,,,,,,,,,,,,,,,,,,,,,,,,
,5e89e89bf025be000c01eead,627c6fa887fb4fd63b5b431f,2022-05-12_03h23.45.856,classification_task,2021.2.3,Win32,60.33910577,627c6715c52fd12f31907bcf,,,,,,,,,,,,,,,,,,,,,,,l,1,1.4062,"[""0.128"",""0.481"",""0.638"",""0.792""]","[1,0,1,1]",0,52,52,52,1,1,1,,,0,FALSE,,,,,,,,,,,,,,,,,,,,,,,,,,,,,,,
,5e89e89bf025be000c01eead,627c6fa887fb4fd63b5b431f,2022-05-12_03h23.45.856,classification_task,2021.2.3,Win32,60.33910577,627c6715c52fd12f31907bcf,,,,,,,,,,,,,,,,,,,,,,,a,1,1.2803,"[""0.481"",""0.358"",""0.878"",""0.926""]","[0,1,1,1]",0,53,53,53,1,0,0,,,0,FALSE,,,,,,,,,,,,,,,,,,,,,,,,,,,,,,,
,5e89e89bf025be000c01eead,627c6fa887fb4fd63b5b431f,2022-05-12_03h23.45.856,classification_task,2021.2.3,Win32,60.33910577,627c6715c52fd12f31907bcf,,,,,,,,,,,,,,,,,,,,,,,l,1,1.3661,"[""0.034"",""0.171"",""0.591"",""0.672""]","[1,1,1,0]",0,54,54,54,1,1,0,,,0,FALSE,,,,,,,,,,,,,,,,,,,,,,,,,,,,,,,
,5e89e89bf025be000c01eead,627c6fa887fb4fd63b5b431f,2022-05-12_03h23.45.856,classification_task,2021.2.3,Win32,60.33910577,627c6715c52fd12f31907bcf,,,,,,,,,,,,,,,,,,,,,,,a,0,2.3581,"[""0.471"",""0.431"",""0.638"",""0.792""]","[0,1,1,1]",0,55,55,55,1,1,1,,,0,FALSE,,,,,,,,,,,,,,,,,,,,,,,,,,,,,,,
,5e89e89bf025be000c01eead,627c6fa887fb4fd63b5b431f,2022-05-12_03h23.45.856,classification_task,2021.2.3,Win32,60.33910577,627c6715c52fd12f31907bcf,,,,,,,,,,,,,,,,,,,,,,,l,1,2.0223,"[""0.128"",""0.431"",""0.638"",""0.272""]","[1,1,1,0]",0,56,56,56,1,1,1,,,0,FALSE,,,,,,,,,,,,,,,,,,,,,,,,,,,,,,,
,5e89e89bf025be000c01eead,627c6fa887fb4fd63b5b431f,2022-05-12_03h23.45.856,classification_task,2021.2.3,Win32,60.33910577,627c6715c52fd12f31907bcf,,,,,,,,,,,,,,,,,,,,,,,l,1,2.258,"[""0.034"",""0.287"",""0.591"",""0.839""]","[1,0,1,1]",0,57,57,57,1,1,0,,,0,FALSE,,,,,,,,,,,,,,,,,,,,,,,,,,,,,,,
,5e89e89bf025be000c01eead,627c6fa887fb4fd63b5b431f,2022-05-12_03h23.45.856,classification_task,2021.2.3,Win32,60.33910577,627c6715c52fd12f31907bcf,,,,,,,,,,,,,,,,,,,,,,,a,0,1.4306,"[""0.272"",""0.171"",""0.591"",""0.839""]","[0,1,1,1]",0,58,58,58,1,1,0,,,0,FALSE,,,,,,,,,,,,,,,,,,,,,,,,,,,,,,,
,5e89e89bf025be000c01eead,627c6fa887fb4fd63b5b431f,2022-05-12_03h23.45.856,classification_task,2021.2.3,Win32,60.33910577,627c6715c52fd12f31907bcf,,,,,,,,,,,,,,,,,,,,,,,a,1,1.0319,"[""0.323"",""0.358"",""0.878"",""0.676""]","[1,1,1,0]",0,59,59,59,1,0,0,,,0,FALSE,,,,,,,,,,,,,,,,,,,,,,,,,,,,,,,
,5e89e89bf025be000c01eead,627c6fa887fb4fd63b5b431f,2022-05-12_03h23.45.856,classification_task,2021.2.3,Win32,60.33910577,627c6715c52fd12f31907bcf,,,,,,,,,,,,,,,,,,,,,,,a,1,2.2651,"[""0.235"",""0.072"",""0.713"",""0.969""]","[1,0,1,1]",0,60,60,60,1,0,1,,,0,FALSE,,,,,,,,,,,,,,,,,,,,,,,,,,,,,,,
,5e89e89bf025be000c01eead,627c6fa887fb4fd63b5b431f,2022-05-12_03h23.45.856,classification_task,2021.2.3,Win32,60.33910577,627c6715c52fd12f31907bcf,,,,,,,,,,,,,,,,,,,,,,,a,1,0.8166,"[""0.235"",""0.516"",""0.713"",""0.287""]","[1,1,1,0]",0,61,61,61,1,0,1,,,0,FALSE,,,,,,,,,,,,,,,,,,,,,,,,,,,,,,,
,5e89e89bf025be000c01eead,627c6fa887fb4fd63b5b431f,2022-05-12_03h23.45.856,classification_task,2021.2.3,Win32,60.33910577,627c6715c52fd12f31907bcf,,,,,,,,,,,,,,,,,,,,,,,l,1,1.3165,"[""0.128"",""0.431"",""0.287"",""0.792""]","[1,1,0,1]",0,62,62,62,1,1,1,,,0,FALSE,,,,,,,,,,,,,,,,,,,,,,,,,,,,,,,
,5e89e89bf025be000c01eead,627c6fa887fb4fd63b5b431f,2022-05-12_03h23.45.856,classification_task,2021.2.3,Win32,60.33910577,627c6715c52fd12f31907bcf,,,,,,,,,,,,,,,,,,,,,,,a,1,1.7634,"[""0.323"",""0.358"",""0.481"",""0.926""]","[1,1,0,1]",0,63,63,63,1,0,0,,,0,FALSE,,,,,,,,,,,,,,,,,,,,,,,,,,,,,,,
,5e89e89bf025be000c01eead,627c6fa887fb4fd63b5b431f,2022-05-12_03h23.45.856,classification_task,2021.2.3,Win32,60.33910577,627c6715c52fd12f31907bcf,,,,,,,,,,,,,,,,,,,,,,,,,,,,,,,,,,,,,,,0, ,,0,4.344749309,1052.1047,0,0,0,0,1,2,1,,,,,,,,,,,,,,,,,,
,5e89e89bf025be000c01eead,627c6fa887fb4fd63b5b431f,2022-05-12_03h23.45.856,classification_task,2021.2.3,Win32,60.33910577,627c6715c52fd12f31907bcf,,,,,,,,,,,,,,,,,,,,,,,,,,,,,,,,,,,,,,,1,  ,,0,7.137222828,1055.788,0,0,0,0,1,2,1,,,,,,,,,,,,,,,,,,
,5e89e89bf025be000c01eead,627c6fa887fb4fd63b5b431f,2022-05-12_03h23.45.856,classification_task,2021.2.3,Win32,60.33910577,627c6715c52fd12f31907bcf,,,,,,,,,,,,,,,,,,,,,,,,,,,,,,,,,,,,,,,2,  ,,0,5.373555145,1070.0199,0,0,0,0,1,2,1,,,,,,,,,,,,,,,,,,
,5e89e89bf025be000c01eead,627c6fa887fb4fd63b5b431f,2022-05-12_03h23.45.856,classification_task,2021.2.3,Win32,60.33910577,627c6715c52fd12f31907bcf,,,,,,,,,,,,,,,,,,,,,,,,,,,,,,,,,,,,,,,,,,,,,0,0,0,0,1,,1,,,,,,,,,,,,,,,,,,
,5e89e89bf025be000c01eead,627c6fa887fb4fd63b5b431f,2022-05-12_03h23.45.856,classification_task,2021.2.3,Win32,60.33910577,627c6715c52fd12f31907bcf,,,,,,,,,,,,,,,,,,,,,space,30.6799,l,1,8.4865,"[""0.672"",""0.431"",""0.638"",""0.792""]","[0,1,1,1]",0,0,0,0,1,1,1,,,0,FALSE,,,,,,,,,,,,,,,,,,,,,,,,,,,,,,,
,5e89e89bf025be000c01eead,627c6fa887fb4fd63b5b431f,2022-05-12_03h23.45.856,classification_task,2021.2.3,Win32,60.33910577,627c6715c52fd12f31907bcf,,,,,,,,,,,,,,,,,,,,,,,l,1,1.7493,"[""0.034"",""0.171"",""0.591"",""0.747""]","[1,1,1,0]",0,1,1,1,1,1,0,,,0,FALSE,,,,,,,,,,,,,,,,,,,,,,,,,,,,,,,
,5e89e89bf025be000c01eead,627c6fa887fb4fd63b5b431f,2022-05-12_03h23.45.856,classification_task,2021.2.3,Win32,60.33910577,627c6715c52fd12f31907bcf,,,,,,,,,,,,,,,,,,,,,,,l,1,0.8651,"[""0.034"",""0.469"",""0.591"",""0.839""]","[1,0,1,1]",0,2,2,2,1,1,0,,,0,FALSE,,,,,,,,,,,,,,,,,,,,,,,,,,,,,,,
,5e89e89bf025be000c01eead,627c6fa887fb4fd63b5b431f,2022-05-12_03h23.45.856,classification_task,2021.2.3,Win32,60.33910577,627c6715c52fd12f31907bcf,,,,,,,,,,,,,,,,,,,,,,,l,1,3.2102,"[""0.128"",""0.431"",""0.638"",""0.469""]","[1,1,1,0]",0,3,3,3,1,1,1,,,0,FALSE,,,,,,,,,,,,,,,,,,,,,,,,,,,,,,,
,5e89e89bf025be000c01eead,627c6fa887fb4fd63b5b431f,2022-05-12_03h23.45.856,classification_task,2021.2.3,Win32,60.33910577,627c6715c52fd12f31907bcf,,,,,,,,,,,,,,,,,,,,,,,a,1,1.3803,"[""0.235"",""0.672"",""0.713"",""0.969""]","[1,0,1,1]",0,4,4,4,1,0,1,,,0,FALSE,,,,,,,,,,,,,,,,,,,,,,,,,,,,,,,
,5e89e89bf025be000c01eead,627c6fa887fb4fd63b5b431f,2022-05-12_03h23.45.856,classification_task,2021.2.3,Win32,60.33910577,627c6715c52fd12f31907bcf,,,,,,,,,,,,,,,,,,,,,,,l,1,0.8149,"[""0.128"",""0.757"",""0.638"",""0.792""]","[1,0,1,1]",0,5,5,5,1,1,1,,,0,FALSE,,,,,,,,,,,,,,,,,,,,,,,,,,,,,,,
,5e89e89bf025be000c01eead,627c6fa887fb4fd63b5b431f,2022-05-12_03h23.45.856,classification_task,2021.2.3,Win32,60.33910577,627c6715c52fd12f31907bcf,,,,,,,,,,,,,,,,,,,,,,,a,1,0.6996,"[""0.235"",""0.516"",""0.553"",""0.969""]","[1,1,0,1]",0,6,6,6,1,0,1,,,0,FALSE,,,,,,,,,,,,,,,,,,,,,,,,,,,,,,,
,5e89e89bf025be000c01eead,627c6fa887fb4fd63b5b431f,2022-05-12_03h23.45.856,classification_task,2021.2.3,Win32,60.33910577,627c6715c52fd12f31907bcf,,,,,,,,,,,,,,,,,,,,,,,l,1,1.5643,"[""0.034"",""0.171"",""0.286"",""0.839""]","[1,1,0,1]",0,7,7,7,1,1,0,,,0,FALSE,,,,,,,,,,,,,,,,,,,,,,,,,,,,,,,
,5e89e89bf025be000c01eead,627c6fa887fb4fd63b5b431f,2022-05-12_03h23.45.856,classification_task,2021.2.3,Win32,60.33910577,627c6715c52fd12f31907bcf,,,,,,,,,,,,,,,,,,,,,,,l,1,2.3647,"[""0.128"",""0.431"",""0.676"",""0.792""]","[1,1,0,1]",0,8,8,8,1,1,1,,,0,FALSE,,,,,,,,,,,,,,,,,,,,,,,,,,,,,,,
,5e89e89bf025be000c01eead,627c6fa887fb4fd63b5b431f,2022-05-12_03h23.45.856,classification_task,2021.2.3,Win32,60.33910577,627c6715c52fd12f31907bcf,,,,,,,,,,,,,,,,,,,,,,,a,1,1.2775,"[""0.323"",""0.672"",""0.878"",""0.926""]","[1,0,1,1]",0,9,9,9,1,0,0,,,0,FALSE,,,,,,,,,,,,,,,,,,,,,,,,,,,,,,,
,5e89e89bf025be000c01eead,627c6fa887fb4fd63b5b431f,2022-05-12_03h23.45.856,classification_task,2021.2.3,Win32,60.33910577,627c6715c52fd12f31907bcf,,,,,,,,,,,,,,,,,,,,,,,a,1,1.8629,"[""0.323"",""0.358"",""0.878"",""0.747""]","[1,1,1,0]",0,10,10,10,1,0,0,,,0,FALSE,,,,,,,,,,,,,,,,,,,,,,,,,,,,,,,
,5e89e89bf025be000c01eead,627c6fa887fb4fd63b5b431f,2022-05-12_03h23.45.856,classification_task,2021.2.3,Win32,60.33910577,627c6715c52fd12f31907bcf,,,,,,,,,,,,,,,,,,,,,,,l,0,2.2135,"[""0.747"",""0.516"",""0.713"",""0.969""]","[0,1,1,1]",0,11,11,11,1,0,1,,,0,FALSE,,,,,,,,,,,,,,,,,,,,,,,,,,,,,,,
,5e89e89bf025be000c01eead,627c6fa887fb4fd63b5b431f,2022-05-12_03h23.45.856,classification_task,2021.2.3,Win32,60.33910577,627c6715c52fd12f31907bcf,,,,,,,,,,,,,,,,,,,,,,,l,1,0.9164,"[""0.757"",""0.171"",""0.591"",""0.839""]","[0,1,1,1]",0,12,12,12,1,1,0,,,0,FALSE,,,,,,,,,,,,,,,,,,,,,,,,,,,,,,,
,5e89e89bf025be000c01eead,627c6fa887fb4fd63b5b431f,2022-05-12_03h23.45.856,classification_task,2021.2.3,Win32,60.33910577,627c6715c52fd12f31907bcf,,,,,,,,,,,,,,,,,,,,,,,a,1,0.7319,"[""0.471"",""0.358"",""0.878"",""0.926""]","[0,1,1,1]",0,13,13,13,1,0,0,,,0,FALSE,,,,,,,,,,,,,,,,,,,,,,,,,,,,,,,
,5e89e89bf025be000c01eead,627c6fa887fb4fd63b5b431f,2022-05-12_03h23.45.856,classification_task,2021.2.3,Win32,60.33910577,627c6715c52fd12f31907bcf,,,,,,,,,,,,,,,,,,,,,,,a,1,0.6002,"[""0.323"",""0.358"",""0.471"",""0.926""]","[1,1,0,1]",0,14,14,14,1,0,0,,,0,FALSE,,,,,,,,,,,,,,,,,,,,,,,,,,,,,,,
,5e89e89bf025be000c01eead,627c6fa887fb4fd63b5b431f,2022-05-12_03h23.45.856,classification_task,2021.2.3,Win32,60.33910577,627c6715c52fd12f31907bcf,,,,,,,,,,,,,,,,,,,,,,,a,1,3.5801,"[""0.235"",""0.516"",""0.713"",""0.553""]","[1,1,1,0]",0,15,15,15,1,0,1,,,0,FALSE,,,,,,,,,,,,,,,,,,,,,,,,,,,,,,,
,5e89e89bf025be000c01eead,627c6fa887fb4fd63b5b431f,2022-05-12_03h23.45.856,classification_task,2021.2.3,Win32,60.33910577,627c6715c52fd12f31907bcf,,,,,,,,,,,,,,,,,,,,,,,a,1,0.9492,"[""0.235"",""0.757"",""0.713"",""0.969""]","[1,0,1,1]",0,16,16,16,1,0,1,,,0,FALSE,,,,,,,,,,,,,,,,,,,,,,,,,,,,,,,
,5e89e89bf025be000c01eead,627c6fa887fb4fd63b5b431f,2022-05-12_03h23.45.856,classification_task,2021.2.3,Win32,60.33910577,627c6715c52fd12f31907bcf,,,,,,,,,,,,,,,,,,,,,,,a,1,2.2308,"[""0.323"",""0.358"",""0.747"",""0.926""]","[1,1,0,1]",0,17,17,17,1,0,0,,,0,FALSE,,,,,,,,,,,,,,,,,,,,,,,,,,,,,,,
,5e89e89bf025be000c01eead,627c6fa887fb4fd63b5b431f,2022-05-12_03h23.45.856,classification_task,2021.2.3,Win32,60.33910577,627c6715c52fd12f31907bcf,,,,,,,,,,,,,,,,,,,,,,,l,1,1.4816,"[""0.286"",""0.431"",""0.638"",""0.792""]","[0,1,1,1]",0,18,18,18,1,1,1,,,0,FALSE,,,,,,,,,,,,,,,,,,,,,,,,,,,,,,,
,5e89e89bf025be000c01eead,627c6fa887fb4fd63b5b431f,2022-05-12_03h23.45.856,classification_task,2021.2.3,Win32,60.33910577,627c6715c52fd12f31907bcf,,,,,,,,,,,,,,,,,,,,,,,a,1,1.3979,"[""0.323"",""0.395"",""0.878"",""0.926""]","[1,0,1,1]",0,19,19,19,1,0,0,,,0,FALSE,,,,,,,,,,,,,,,,,,,,,,,,,,,,,,,
,5e89e89bf025be000c01eead,627c6fa887fb4fd63b5b431f,2022-05-12_03h23.45.856,classification_task,2021.2.3,Win32,60.33910577,627c6715c52fd12f31907bcf,,,,,,,,,,,,,,,,,,,,,,,l,1,1.33,"[""0.128"",""0.272"",""0.638"",""0.792""]","[1,0,1,1]",0,20,20,20,1,1,1,,,0,FALSE,,,,,,,,,,,,,,,,,,,,,,,,,,,,,,,
,5e89e89bf025be000c01eead,627c6fa887fb4fd63b5b431f,2022-05-12_03h23.45.856,classification_task,2021.2.3,Win32,60.33910577,627c6715c52fd12f31907bcf,,,,,,,,,,,,,,,,,,,,,,,a,1,0.9508,"[""0.235"",""0.516"",""0.713"",""0.471""]","[1,1,1,0]",0,21,21,21,1,0,1,,,0,FALSE,,,,,,,,,,,,,,,,,,,,,,,,,,,,,,,
,5e89e89bf025be000c01eead,627c6fa887fb4fd63b5b431f,2022-05-12_03h23.45.856,classification_task,2021.2.3,Win32,60.33910577,627c6715c52fd12f31907bcf,,,,,,,,,,,,,,,,,,,,,,,l,1,2.4966,"[""0.034"",""0.287"",""0.591"",""0.839""]","[1,0,1,1]",0,22,22,22,1,1,0,,,0,FALSE,,,,,,,,,,,,,,,,,,,,,,,,,,,,,,,
,5e89e89bf025be000c01eead,627c6fa887fb4fd63b5b431f,2022-05-12_03h23.45.856,classification_task,2021.2.3,Win32,60.33910577,627c6715c52fd12f31907bcf,,,,,,,,,,,,,,,,,,,,,,,a,0,2.2314,"[""0.128"",""0.431"",""0.672"",""0.792""]","[1,1,0,1]",0,23,23,23,1,1,1,,,0,FALSE,,,,,,,,,,,,,,,,,,,,,,,,,,,,,,,
,5e89e89bf025be000c01eead,627c6fa887fb4fd63b5b431f,2022-05-12_03h23.45.856,classification_task,2021.2.3,Win32,60.33910577,627c6715c52fd12f31907bcf,,,,,,,,,,,,,,,,,,,,,,,a,1,1.3155,"[""0.551"",""0.358"",""0.878"",""0.926""]","[0,1,1,1]",0,24,24,24,1,0,0,,,0,FALSE,,,,,,,,,,,,,,,,,,,,,,,,,,,,,,,
,5e89e89bf025be000c01eead,627c6fa887fb4fd63b5b431f,2022-05-12_03h23.45.856,classification_task,2021.2.3,Win32,60.33910577,627c6715c52fd12f31907bcf,,,,,,,,,,,,,,,,,,,,,,,a,1,0.7491,"[""0.323"",""0.358"",""0.878"",""0.747""]","[1,1,1,0]",0,25,25,25,1,0,0,,,0,FALSE,,,,,,,,,,,,,,,,,,,,,,,,,,,,,,,
,5e89e89bf025be000c01eead,627c6fa887fb4fd63b5b431f,2022-05-12_03h23.45.856,classification_task,2021.2.3,Win32,60.33910577,627c6715c52fd12f31907bcf,,,,,,,,,,,,,,,,,,,,,,,l,1,1.9968,"[""0.128"",""0.431"",""0.638"",""0.676""]","[1,1,1,0]",0,26,26,26,1,1,1,,,0,FALSE,,,,,,,,,,,,,,,,,,,,,,,,,,,,,,,
,5e89e89bf025be000c01eead,627c6fa887fb4fd63b5b431f,2022-05-12_03h23.45.856,classification_task,2021.2.3,Win32,60.33910577,627c6715c52fd12f31907bcf,,,,,,,,,,,,,,,,,,,,,,,l,1,2.7552,"[""0.757"",""0.171"",""0.591"",""0.839""]","[0,1,1,1]",0,27,27,27,1,1,0,,,0,FALSE,,,,,,,,,,,,,,,,,,,,,,,,,,,,,,,
,5e89e89bf025be000c01eead,627c6fa887fb4fd63b5b431f,2022-05-12_03h23.45.856,classification_task,2021.2.3,Win32,60.33910577,627c6715c52fd12f31907bcf,,,,,,,,,,,,,,,,,,,,,,,l,0,2.3809,"[""0.672"",""0.516"",""0.713"",""0.969""]","[0,1,1,1]",0,28,28,28,1,0,1,,,0,FALSE,,,,,,,,,,,,,,,,,,,,,,,,,,,,,,,
,5e89e89bf025be000c01eead,627c6fa887fb4fd63b5b431f,2022-05-12_03h23.45.856,classification_task,2021.2.3,Win32,60.33910577,627c6715c52fd12f31907bcf,,,,,,,,,,,,,,,,,,,,,,,l,1,1.4985,"[""0.034"",""0.171"",""0.591"",""0.672""]","[1,1,1,0]",0,29,29,29,1,1,0,,,0,FALSE,,,,,,,,,,,,,,,,,,,,,,,,,,,,,,,
,5e89e89bf025be000c01eead,627c6fa887fb4fd63b5b431f,2022-05-12_03h23.45.856,classification_task,2021.2.3,Win32,60.33910577,627c6715c52fd12f31907bcf,,,,,,,,,,,,,,,,,,,,,,,l,1,0.7671,"[""0.034"",""0.171"",""0.672"",""0.839""]","[1,1,0,1]",0,30,30,30,1,1,0,,,0,FALSE,,,,,,,,,,,,,,,,,,,,,,,,,,,,,,,
,5e89e89bf025be000c01eead,627c6fa887fb4fd63b5b431f,2022-05-12_03h23.45.856,classification_task,2021.2.3,Win32,60.33910577,627c6715c52fd12f31907bcf,,,,,,,,,,,,,,,,,,,,,,,a,1,1.4507,"[""0.235"",""0.516"",""0.469"",""0.969""]","[1,1,0,1]",0,31,31,31,1,0,1,,,0,FALSE,,,,,,,,,,,,,,,,,,,,,,,,,,,,,,,
,5e89e89bf025be000c01eead,627c6fa887fb4fd63b5b431f,2022-05-12_03h23.45.856,classification_task,2021.2.3,Win32,60.33910577,627c6715c52fd12f31907bcf,,,,,,,,,,,,,,,,,,,,,,,l,1,1.6479,"[""0.395"",""0.171"",""0.591"",""0.839""]","[0,1,1,1]",0,32,32,32,1,1,0,,,0,FALSE,,,,,,,,,,,,,,,,,,,,,,,,,,,,,,,
,5e89e89bf025be000c01eead,627c6fa887fb4fd63b5b431f,2022-05-12_03h23.45.856,classification_task,2021.2.3,Win32,60.33910577,627c6715c52fd12f31907bcf,,,,,,,,,,,,,,,,,,,,,,,l,1,2.6141,"[""0.128"",""0.287"",""0.638"",""0.792""]","[1,0,1,1]",0,33,33,33,1,1,1,,,0,FALSE,,,,,,,,,,,,,,,,,,,,,,,,,,,,,,,
,5e89e89bf025be000c01eead,627c6fa887fb4fd63b5b431f,2022-05-12_03h23.45.856,classification_task,2021.2.3,Win32,60.33910577,627c6715c52fd12f31907bcf,,,,,,,,,,,,,,,,,,,,,,,l,1,1.3826,"[""0.128"",""0.431"",""0.638"",""0.072""]","[1,1,1,0]",0,34,34,34,1,1,1,,,0,FALSE,,,,,,,,,,,,,,,,,,,,,,,,,,,,,,,
,5e89e89bf025be000c01eead,627c6fa887fb4fd63b5b431f,2022-05-12_03h23.45.856,classification_task,2021.2.3,Win32,60.33910577,627c6715c52fd12f31907bcf,,,,,,,,,,,,,,,,,,,,,,,l,1,0.7719,"[""0.128"",""0.431"",""0.748"",""0.792""]","[1,1,0,1]",0,35,35,35,1,1,1,,,0,FALSE,,,,,,,,,,,,,,,,,,,,,,,,,,,,,,,
,5e89e89bf025be000c01eead,627c6fa887fb4fd63b5b431f,2022-05-12_03h23.45.856,classification_task,2021.2.3,Win32,60.33910577,627c6715c52fd12f31907bcf,,,,,,,,,,,,,,,,,,,,,,,a,1,1.5636,"[""0.323"",""0.395"",""0.878"",""0.926""]","[1,0,1,1]",0,36,36,36,1,0,0,,,0,FALSE,,,,,,,,,,,,,,,,,,,,,,,,,,,,,,,
,5e89e89bf025be000c01eead,627c6fa887fb4fd63b5b431f,2022-05-12_03h23.45.856,classification_task,2021.2.3,Win32,60.33910577,627c6715c52fd12f31907bcf,,,,,,,,,,,,,,,,,,,,,,,a,1,1.6814,"[""0.757"",""0.516"",""0.713"",""0.969""]","[0,1,1,1]",0,37,37,37,1,0,1,,,0,FALSE,,,,,,,,,,,,,,,,,,,,,,,,,,,,,,,
,5e89e89bf025be000c01eead,627c6fa887fb4fd63b5b431f,2022-05-12_03h23.45.856,classification_task,2021.2.3,Win32,60.33910577,627c6715c52fd12f31907bcf,,,,,,,,,,,,,,,,,,,,,,,a,1,1.2851,"[""0.235"",""0.672"",""0.713"",""0.969""]","[1,0,1,1]",0,38,38,38,1,0,1,,,0,FALSE,,,,,,,,,,,,,,,,,,,,,,,,,,,,,,,
,5e89e89bf025be000c01eead,627c6fa887fb4fd63b5b431f,2022-05-12_03h23.45.856,classification_task,2021.2.3,Win32,60.33910577,627c6715c52fd12f31907bcf,,,,,,,,,,,,,,,,,,,,,,,a,1,0.5007,"[""0.235"",""0.516"",""0.481"",""0.969""]","[1,1,0,1]",0,39,39,39,1,0,1,,,0,FALSE,,,,,,,,,,,,,,,,,,,,,,,,,,,,,,,
,5e89e89bf025be000c01eead,627c6fa887fb4fd63b5b431f,2022-05-12_03h23.45.856,classification_task,2021.2.3,Win32,60.33910577,627c6715c52fd12f31907bcf,,,,,,,,,,,,,,,,,,,,,,,l,1,1.0821,"[""0.034"",""0.676"",""0.591"",""0.839""]","[1,0,1,1]",0,40,40,40,1,1,0,,,0,FALSE,,,,,,,,,,,,,,,,,,,,,,,,,,,,,,,
,5e89e89bf025be000c01eead,627c6fa887fb4fd63b5b431f,2022-05-12_03h23.45.856,classification_task,2021.2.3,Win32,60.33910577,627c6715c52fd12f31907bcf,,,,,,,,,,,,,,,,,,,,,,,a,1,1.8551,"[""0.235"",""0.516"",""0.713"",""0.672""]","[1,1,1,0]",0,41,41,41,1,0,1,,,0,FALSE,,,,,,,,,,,,,,,,,,,,,,,,,,,,,,,
,5e89e89bf025be000c01eead,627c6fa887fb4fd63b5b431f,2022-05-12_03h23.45.856,classification_task,2021.2.3,Win32,60.33910577,627c6715c52fd12f31907bcf,,,,,,,,,,,,,,,,,,,,,,,l,1,1.0818,"[""0.034"",""0.171"",""0.481"",""0.839""]","[1,1,0,1]",0,42,42,42,1,1,0,,,0,FALSE,,,,,,,,,,,,,,,,,,,,,,,,,,,,,,,
,5e89e89bf025be000c01eead,627c6fa887fb4fd63b5b431f,2022-05-12_03h23.45.856,classification_task,2021.2.3,Win32,60.33910577,627c6715c52fd12f31907bcf,,,,,,,,,,,,,,,,,,,,,,,a,0,1.7621,"[""0.551"",""0.431"",""0.638"",""0.792""]","[0,1,1,1]",0,43,43,43,1,1,1,,,0,FALSE,,,,,,,,,,,,,,,,,,,,,,,,,,,,,,,
,5e89e89bf025be000c01eead,627c6fa887fb4fd63b5b431f,2022-05-12_03h23.45.856,classification_task,2021.2.3,Win32,60.33910577,627c6715c52fd12f31907bcf,,,,,,,,,,,,,,,,,,,,,,,l,1,1.3295,"[""0.034"",""0.171"",""0.591"",""0.286""]","[1,1,1,0]",0,44,44,44,1,1,0,,,0,FALSE,,,,,,,,,,,,,,,,,,,,,,,,,,,,,,,
,5e89e89bf025be000c01eead,627c6fa887fb4fd63b5b431f,2022-05-12_03h23.45.856,classification_task,2021.2.3,Win32,60.33910577,627c6715c52fd12f31907bcf,,,,,,,,,,,,,,,,,,,,,,,a,1,1.0673,"[""0.323"",""0.358"",""0.072"",""0.926""]","[1,1,0,1]",0,45,45,45,1,0,0,,,0,FALSE,,,,,,,,,,,,,,,,,,,,,,,,,,,,,,,
,5e89e89bf025be000c01eead,627c6fa887fb4fd63b5b431f,2022-05-12_03h23.45.856,classification_task,2021.2.3,Win32,60.33910577,627c6715c52fd12f31907bcf,,,,,,,,,,,,,,,,,,,,,,,a,1,0.7991,"[""0.395"",""0.358"",""0.878"",""0.926""]","[0,1,1,1]",0,46,46,46,1,0,0,,,0,FALSE,,,,,,,,,,,,,,,,,,,,,,,,,,,,,,,
,5e89e89bf025be000c01eead,627c6fa887fb4fd63b5b431f,2022-05-12_03h23.45.856,classification_task,2021.2.3,Win32,60.33910577,627c6715c52fd12f31907bcf,,,,,,,,,,,,,,,,,,,,,,,a,1,0.849,"[""0.323"",""0.358"",""0.878"",""0.286""]","[1,1,1,0]",0,47,47,47,1,0,0,,,0,FALSE,,,,,,,,,,,,,,,,,,,,,,,,,,,,,,,
,5e89e89bf025be000c01eead,627c6fa887fb4fd63b5b431f,2022-05-12_03h23.45.856,classification_task,2021.2.3,Win32,60.33910577,627c6715c52fd12f31907bcf,,,,,,,,,,,,,,,,,,,,,,,l,1,2.5321,"[""0.672"",""0.171"",""0.591"",""0.839""]","[0,1,1,1]",0,48,48,48,1,1,0,,,0,FALSE,,,,,,,,,,,,,,,,,,,,,,,,,,,,,,,
,5e89e89bf025be000c01eead,627c6fa887fb4fd63b5b431f,2022-05-12_03h23.45.856,classification_task,2021.2.3,Win32,60.33910577,627c6715c52fd12f31907bcf,,,,,,,,,,,,,,,,,,,,,,,a,1,1.6648,"[""0.323"",""0.358"",""0.878"",""0.395""]","[1,1,1,0]",0,49,49,49,1,0,0,,,0,FALSE,,,,,,,,,,,,,,,,,,,,,,,,,,,,,,,
,5e89e89bf025be000c01eead,627c6fa887fb4fd63b5b431f,2022-05-12_03h23.45.856,classification_task,2021.2.3,Win32,60.33910577,627c6715c52fd12f31907bcf,,,,,,,,,,,,,,,,,,,,,,,a,1,2.112,"[""0.672"",""0.516"",""0.713"",""0.969""]","[0,1,1,1]",0,50,50,50,1,0,1,,,0,FALSE,,,,,,,,,,,,,,,,,,,,,,,,,,,,,,,
,5e89e89bf025be000c01eead,627c6fa887fb4fd63b5b431f,2022-05-12_03h23.45.856,classification_task,2021.2.3,Win32,60.33910577,627c6715c52fd12f31907bcf,,,,,,,,,,,,,,,,,,,,,,,a,1,2.0331,"[""0.235"",""0.516"",""0.713"",""0.676""]","[1,1,1,0]",0,51,51,51,1,0,1,,,0,FALSE,,,,,,,,,,,,,,,,,,,,,,,,,,,,,,,
,5e89e89bf025be000c01eead,627c6fa887fb4fd63b5b431f,2022-05-12_03h23.45.856,classification_task,2021.2.3,Win32,60.33910577,627c6715c52fd12f31907bcf,,,,,,,,,,,,,,,,,,,,,,,a,1,2.9951,"[""0.553"",""0.358"",""0.878"",""0.926""]","[0,1,1,1]",0,52,52,52,1,0,0,,,0,FALSE,,,,,,,,,,,,,,,,,,,,,,,,,,,,,,,
,5e89e89bf025be000c01eead,627c6fa887fb4fd63b5b431f,2022-05-12_03h23.45.856,classification_task,2021.2.3,Win32,60.33910577,627c6715c52fd12f31907bcf,,,,,,,,,,,,,,,,,,,,,,,l,1,1.5609,"[""0.128"",""0.431"",""0.676"",""0.792""]","[1,1,0,1]",0,53,53,53,1,1,1,,,0,FALSE,,,,,,,,,,,,,,,,,,,,,,,,,,,,,,,
,5e89e89bf025be000c01eead,627c6fa887fb4fd63b5b431f,2022-05-12_03h23.45.856,classification_task,2021.2.3,Win32,60.33910577,627c6715c52fd12f31907bcf,,,,,,,,,,,,,,,,,,,,,,,l,1,2.3466,"[""0.034"",""0.171"",""0.591"",""0.676""]","[1,1,1,0]",0,54,54,54,1,1,0,,,0,FALSE,,,,,,,,,,,,,,,,,,,,,,,,,,,,,,,
,5e89e89bf025be000c01eead,627c6fa887fb4fd63b5b431f,2022-05-12_03h23.45.856,classification_task,2021.2.3,Win32,60.33910577,627c6715c52fd12f31907bcf,,,,,,,,,,,,,,,,,,,,,,,a,1,1.63,"[""0.235"",""0.516"",""0.287"",""0.969""]","[1,1,0,1]",0,55,55,55,1,0,1,,,0,FALSE,,,,,,,,,,,,,,,,,,,,,,,,,,,,,,,
,5e89e89bf025be000c01eead,627c6fa887fb4fd63b5b431f,2022-05-12_03h23.45.856,classification_task,2021.2.3,Win32,60.33910577,627c6715c52fd12f31907bcf,,,,,,,,,,,,,,,,,,,,,,,a,1,0.833,"[""0.235"",""0.395"",""0.713"",""0.969""]","[1,0,1,1]",0,56,56,56,1,0,1,,,0,FALSE,,,,,,,,,,,,,,,,,,,,,,,,,,,,,,,
,5e89e89bf025be000c01eead,627c6fa887fb4fd63b5b431f,2022-05-12_03h23.45.856,classification_task,2021.2.3,Win32,60.33910577,627c6715c52fd12f31907bcf,,,,,,,,,,,,,,,,,,,,,,,a,1,1.8983,"[""0.323"",""0.469"",""0.878"",""0.926""]","[1,0,1,1]",0,57,57,57,1,0,0,,,0,FALSE,,,,,,,,,,,,,,,,,,,,,,,,,,,,,,,
,5e89e89bf025be000c01eead,627c6fa887fb4fd63b5b431f,2022-05-12_03h23.45.856,classification_task,2021.2.3,Win32,60.33910577,627c6715c52fd12f31907bcf,,,,,,,,,,,,,,,,,,,,,,,l,1,1.215,"[""0.128"",""0.431"",""0.638"",""0.286""]","[1,1,1,0]",0,58,58,58,1,1,1,,,0,FALSE,,,,,,,,,,,,,,,,,,,,,,,,,,,,,,,
,5e89e89bf025be000c01eead,627c6fa887fb4fd63b5b431f,2022-05-12_03h23.45.856,classification_task,2021.2.3,Win32,60.33910577,627c6715c52fd12f31907bcf,,,,,,,,,,,,,,,,,,,,,,,l,1,1.0662,"[""0.034"",""0.272"",""0.591"",""0.839""]","[1,0,1,1]",0,59,59,59,1,1,0,,,0,FALSE,,,,,,,,,,,,,,,,,,,,,,,,,,,,,,,
,5e89e89bf025be000c01eead,627c6fa887fb4fd63b5b431f,2022-05-12_03h23.45.856,classification_task,2021.2.3,Win32,60.33910577,627c6715c52fd12f31907bcf,,,,,,,,,,,,,,,,,,,,,,,l,1,0.8823,"[""0.034"",""0.171"",""0.672"",""0.839""]","[1,1,0,1]",0,60,60,60,1,1,0,,,0,FALSE,,,,,,,,,,,,,,,,,,,,,,,,,,,,,,,
,5e89e89bf025be000c01eead,627c6fa887fb4fd63b5b431f,2022-05-12_03h23.45.856,classification_task,2021.2.3,Win32,60.33910577,627c6715c52fd12f31907bcf,,,,,,,,,,,,,,,,,,,,,,,a,1,1.3797,"[""0.323"",""0.358"",""0.272"",""0.926""]","[1,1,0,1]",0,61,61,61,1,0,0,,,0,FALSE,,,,,,,,,,,,,,,,,,,,,,,,,,,,,,,
,5e89e89bf025be000c01eead,627c6fa887fb4fd63b5b431f,2022-05-12_03h23.45.856,classification_task,2021.2.3,Win32,60.33910577,627c6715c52fd12f31907bcf,,,,,,,,,,,,,,,,,,,,,,,l,1,3.396,"[""0.469"",""0.431"",""0.638"",""0.792""]","[0,1,1,1]",0,62,62,62,1,1,1,,,0,FALSE,,,,,,,,,,,,,,,,,,,,,,,,,,,,,,,
,5e89e89bf025be000c01eead,627c6fa887fb4fd63b5b431f,2022-05-12_03h23.45.856,classification_task,2021.2.3,Win32,60.33910577,627c6715c52fd12f31907bcf,,,,,,,,,,,,,,,,,,,,,,,l,1,1.1804,"[""0.128"",""0.395"",""0.638"",""0.792""]","[1,0,1,1]",0,63,63,63,1,1,1,,,0,FALSE,,,,,,,,,,,,,,,,,,,,,,,,,,,,,,,
,5e89e89bf025be000c01eead,627c6fa887fb4fd63b5b431f,2022-05-12_03h23.45.856,classification_task,2021.2.3,Win32,60.33910577,627c6715c52fd12f31907bcf,,,,,,,,,,,,,,,,,,,,,,,,,,,,,,,,,,,,,,,0, ,,0,2.630071668,207.9319,0,1,1,1,1,2,2,,,,,,,,,,,,,,,,,,
,5e89e89bf025be000c01eead,627c6fa887fb4fd63b5b431f,2022-05-12_03h23.45.856,classification_task,2021.2.3,Win32,60.33910577,627c6715c52fd12f31907bcf,,,,,,,,,,,,,,,,,,,,,,,,,,,,,,,,,,,,,,,1,  ,,0,7.77410459,209.6453,0,1,1,1,1,2,2,,,,,,,,,,,,,,,,,,
,5e89e89bf025be000c01eead,627c6fa887fb4fd63b5b431f,2022-05-12_03h23.45.856,classification_task,2021.2.3,Win32,60.33910577,627c6715c52fd12f31907bcf,,,,,,,,,,,,,,,,,,,,,,,,,,,,,,,,,,,,,,,2,  ,,0,6.524837957,211.1945,0,1,1,1,1,2,2,,,,,,,,,,,,,,,,,,
,5e89e89bf025be000c01eead,627c6fa887fb4fd63b5b431f,2022-05-12_03h23.45.856,classification_task,2021.2.3,Win32,60.33910577,627c6715c52fd12f31907bcf,,,,,,,,,,,,,,,,,,,,,,,,,,,,,,,,,,,,,,,,,,,,,0,1,1,1,1,,2,,,,,,,,,,,,,,,,,,
,5e89e89bf025be000c01eead,627c6fa887fb4fd63b5b431f,2022-05-12_03h23.45.856,classification_task,2021.2.3,Win32,60.33910577,627c6715c52fd12f31907bcf,,,,,,,,,,,,,,,,,,,,,space,5.8634,l,1,2.1486,"[""0.469"",""0.431"",""0.638"",""0.792""]","[0,1,1,1]",0,0,0,0,1,1,1,,,0,FALSE,,,,,,,,,,,,,,,,,,,,,,,,,,,,,,,
,5e89e89bf025be000c01eead,627c6fa887fb4fd63b5b431f,2022-05-12_03h23.45.856,classification_task,2021.2.3,Win32,60.33910577,627c6715c52fd12f31907bcf,,,,,,,,,,,,,,,,,,,,,,,a,1,1.4477,"[""0.323"",""0.395"",""0.878"",""0.926""]","[1,0,1,1]",0,1,1,1,1,0,0,,,0,FALSE,,,,,,,,,,,,,,,,,,,,,,,,,,,,,,,
,5e89e89bf025be000c01eead,627c6fa887fb4fd63b5b431f,2022-05-12_03h23.45.856,classification_task,2021.2.3,Win32,60.33910577,627c6715c52fd12f31907bcf,,,,,,,,,,,,,,,,,,,,,,,l,1,1.0765,"[""0.128"",""0.431"",""0.638"",""0.747""]","[1,1,1,0]",0,2,2,2,1,1,1,,,0,FALSE,,,,,,,,,,,,,,,,,,,,,,,,,,,,,,,
,5e89e89bf025be000c01eead,627c6fa887fb4fd63b5b431f,2022-05-12_03h23.45.856,classification_task,2021.2.3,Win32,60.33910577,627c6715c52fd12f31907bcf,,,,,,,,,,,,,,,,,,,,,,,a,0,1.1328,"[""0.034"",""0.171"",""0.591"",""0.286""]","[1,1,1,0]",0,3,3,3,1,1,0,,,0,FALSE,,,,,,,,,,,,,,,,,,,,,,,,,,,,,,,
,5e89e89bf025be000c01eead,627c6fa887fb4fd63b5b431f,2022-05-12_03h23.45.856,classification_task,2021.2.3,Win32,60.33910577,627c6715c52fd12f31907bcf,,,,,,,,,,,,,,,,,,,,,,,a,1,1.6815,"[""0.323"",""0.358"",""0.757"",""0.926""]","[1,1,0,1]",0,4,4,4,1,0,0,,,0,FALSE,,,,,,,,,,,,,,,,,,,,,,,,,,,,,,,
,5e89e89bf025be000c01eead,627c6fa887fb4fd63b5b431f,2022-05-12_03h23.45.856,classification_task,2021.2.3,Win32,60.33910577,627c6715c52fd12f31907bcf,,,,,,,,,,,,,,,,,,,,,,,a,1,0.6994,"[""0.481"",""0.358"",""0.878"",""0.926""]","[0,1,1,1]",0,5,5,5,1,0,0,,,0,FALSE,,,,,,,,,,,,,,,,,,,,,,,,,,,,,,,
,5e89e89bf025be000c01eead,627c6fa887fb4fd63b5b431f,2022-05-12_03h23.45.856,classification_task,2021.2.3,Win32,60.33910577,627c6715c52fd12f31907bcf,,,,,,,,,,,,,,,,,,,,,,,a,1,1.7997,"[""0.676"",""0.516"",""0.713"",""0.969""]","[0,1,1,1]",0,6,6,6,1,0,1,,,0,FALSE,,,,,,,,,,,,,,,,,,,,,,,,,,,,,,,
,5e89e89bf025be000c01eead,627c6fa887fb4fd63b5b431f,2022-05-12_03h23.45.856,classification_task,2021.2.3,Win32,60.33910577,627c6715c52fd12f31907bcf,,,,,,,,,,,,,,,,,,,,,,,l,1,0.683,"[""0.034"",""0.469"",""0.591"",""0.839""]","[1,0,1,1]",0,7,7,7,1,1,0,,,0,FALSE,,,,,,,,,,,,,,,,,,,,,,,,,,,,,,,
,5e89e89bf025be000c01eead,627c6fa887fb4fd63b5b431f,2022-05-12_03h23.45.856,classification_task,2021.2.3,Win32,60.33910577,627c6715c52fd12f31907bcf,,,,,,,,,,,,,,,,,,,,,,,a,1,1.4827,"[""0.235"",""0.516"",""0.469"",""0.969""]","[1,1,0,1]",0,8,8,8,1,0,1,,,0,FALSE,,,,,,,,,,,,,,,,,,,,,,,,,,,,,,,
,5e89e89bf025be000c01eead,627c6fa887fb4fd63b5b431f,2022-05-12_03h23.45.856,classification_task,2021.2.3,Win32,60.33910577,627c6715c52fd12f31907bcf,,,,,,,,,,,,,,,,,,,,,,,a,1,0.717,"[""0.235"",""0.757"",""0.713"",""0.969""]","[1,0,1,1]",0,9,9,9,1,0,1,,,0,FALSE,,,,,,,,,,,,,,,,,,,,,,,,,,,,,,,
,5e89e89bf025be000c01eead,627c6fa887fb4fd63b5b431f,2022-05-12_03h23.45.856,classification_task,2021.2.3,Win32,60.33910577,627c6715c52fd12f31907bcf,,,,,,,,,,,,,,,,,,,,,,,a,1,1.9993,"[""0.323"",""0.358"",""0.878"",""0.748""]","[1,1,1,0]",0,10,10,10,1,0,0,,,0,FALSE,,,,,,,,,,,,,,,,,,,,,,,,,,,,,,,
,5e89e89bf025be000c01eead,627c6fa887fb4fd63b5b431f,2022-05-12_03h23.45.856,classification_task,2021.2.3,Win32,60.33910577,627c6715c52fd12f31907bcf,,,,,,,,,,,,,,,,,,,,,,,l,1,0.8657,"[""0.034"",""0.171"",""0.553"",""0.839""]","[1,1,0,1]",0,11,11,11,1,1,0,,,0,FALSE,,,,,,,,,,,,,,,,,,,,,,,,,,,,,,,
,5e89e89bf025be000c01eead,627c6fa887fb4fd63b5b431f,2022-05-12_03h23.45.856,classification_task,2021.2.3,Win32,60.33910577,627c6715c52fd12f31907bcf,,,,,,,,,,,,,,,,,,,,,,,l,1,1.2116,"[""0.128"",""0.431"",""0.272"",""0.792""]","[1,1,0,1]",0,12,12,12,1,1,1,,,0,FALSE,,,,,,,,,,,,,,,,,,,,,,,,,,,,,,,
,5e89e89bf025be000c01eead,627c6fa887fb4fd63b5b431f,2022-05-12_03h23.45.856,classification_task,2021.2.3,Win32,60.33910577,627c6715c52fd12f31907bcf,,,,,,,,,,,,,,,,,,,,,,,a,1,1.0844,"[""0.235"",""0.516"",""0.713"",""0.481""]","[1,1,1,0]",0,13,13,13,1,0,1,,,0,FALSE,,,,,,,,,,,,,,,,,,,,,,,,,,,,,,,
,5e89e89bf025be000c01eead,627c6fa887fb4fd63b5b431f,2022-05-12_03h23.45.856,classification_task,2021.2.3,Win32,60.33910577,627c6715c52fd12f31907bcf,,,,,,,,,,,,,,,,,,,,,,,l,1,3.1795,"[""0.553"",""0.171"",""0.591"",""0.839""]","[0,1,1,1]",0,14,14,14,1,1,0,,,0,FALSE,,,,,,,,,,,,,,,,,,,,,,,,,,,,,,,
,5e89e89bf025be000c01eead,627c6fa887fb4fd63b5b431f,2022-05-12_03h23.45.856,classification_task,2021.2.3,Win32,60.33910577,627c6715c52fd12f31907bcf,,,,,,,,,,,,,,,,,,,,,,,l,1,0.949,"[""0.128"",""0.551"",""0.638"",""0.792""]","[1,0,1,1]",0,15,15,15,1,1,1,,,0,FALSE,,,,,,,,,,,,,,,,,,,,,,,,,,,,,,,
,5e89e89bf025be000c01eead,627c6fa887fb4fd63b5b431f,2022-05-12_03h23.45.856,classification_task,2021.2.3,Win32,60.33910577,627c6715c52fd12f31907bcf,,,,,,,,,,,,,,,,,,,,,,,l,1,0.7002,"[""0.034"",""0.553"",""0.591"",""0.839""]","[1,0,1,1]",0,16,16,16,1,1,0,,,0,FALSE,,,,,,,,,,,,,,,,,,,,,,,,,,,,,,,
,5e89e89bf025be000c01eead,627c6fa887fb4fd63b5b431f,2022-05-12_03h23.45.856,classification_task,2021.2.3,Win32,60.33910577,627c6715c52fd12f31907bcf,,,,,,,,,,,,,,,,,,,,,,,l,1,0.7642,"[""0.034"",""0.171"",""0.591"",""0.286""]","[1,1,1,0]",0,17,17,17,1,1,0,,,0,FALSE,,,,,,,,,,,,,,,,,,,,,,,,,,,,,,,
,5e89e89bf025be000c01eead,627c6fa887fb4fd63b5b431f,2022-05-12_03h23.45.856,classification_task,2021.2.3,Win32,60.33910577,627c6715c52fd12f31907bcf,,,,,,,,,,,,,,,,,,,,,,,a,0,1.8482,"[""0.287"",""0.431"",""0.638"",""0.792""]","[0,1,1,1]",0,18,18,18,1,1,1,,,0,FALSE,,,,,,,,,,,,,,,,,,,,,,,,,,,,,,,
,5e89e89bf025be000c01eead,627c6fa887fb4fd63b5b431f,2022-05-12_03h23.45.856,classification_task,2021.2.3,Win32,60.33910577,627c6715c52fd12f31907bcf,,,,,,,,,,,,,,,,,,,,,,,l,1,0.8985,"[""0.128"",""0.431"",""0.638"",""0.551""]","[1,1,1,0]",0,19,19,19,1,1,1,,,0,FALSE,,,,,,,,,,,,,,,,,,,,,,,,,,,,,,,
,5e89e89bf025be000c01eead,627c6fa887fb4fd63b5b431f,2022-05-12_03h23.45.856,classification_task,2021.2.3,Win32,60.33910577,627c6715c52fd12f31907bcf,,,,,,,,,,,,,,,,,,,,,,,a,1,1.8311,"[""0.235"",""0.516"",""0.713"",""0.072""]","[1,1,1,0]",0,20,20,20,1,0,1,,,0,FALSE,,,,,,,,,,,,,,,,,,,,,,,,,,,,,,,
,5e89e89bf025be000c01eead,627c6fa887fb4fd63b5b431f,2022-05-12_03h23.45.856,classification_task,2021.2.3,Win32,60.33910577,627c6715c52fd12f31907bcf,,,,,,,,,,,,,,,,,,,,,,,a,1,0.7649,"[""0.323"",""0.358"",""0.672"",""0.926""]","[1,1,0,1]",0,21,21,21,1,0,0,,,0,FALSE,,,,,,,,,,,,,,,,,,,,,,,,,,,,,,,
,5e89e89bf025be000c01eead,627c6fa887fb4fd63b5b431f,2022-05-12_03h23.45.856,classification_task,2021.2.3,Win32,60.33910577,627c6715c52fd12f31907bcf,,,,,,,,,,,,,,,,,,,,,,,a,1,2.1813,"[""0.471"",""0.516"",""0.713"",""0.969""]","[0,1,1,1]",0,22,22,22,1,0,1,,,0,FALSE,,,,,,,,,,,,,,,,,,,,,,,,,,,,,,,
,5e89e89bf025be000c01eead,627c6fa887fb4fd63b5b431f,2022-05-12_03h23.45.856,classification_task,2021.2.3,Win32,60.33910577,627c6715c52fd12f31907bcf,,,,,,,,,,,,,,,,,,,,,,,a,0,2.3632,"[""0.287"",""0.171"",""0.591"",""0.839""]","[0,1,1,1]",0,23,23,23,1,1,0,,,0,FALSE,,,,,,,,,,,,,,,,,,,,,,,,,,,,,,,
,5e89e89bf025be000c01eead,627c6fa887fb4fd63b5b431f,2022-05-12_03h23.45.856,classification_task,2021.2.3,Win32,60.33910577,627c6715c52fd12f31907bcf,,,,,,,,,,,,,,,,,,,,,,,a,1,1.5834,"[""0.323"",""0.469"",""0.878"",""0.926""]","[1,0,1,1]",0,24,24,24,1,0,0,,,0,FALSE,,,,,,,,,,,,,,,,,,,,,,,,,,,,,,,
,5e89e89bf025be000c01eead,627c6fa887fb4fd63b5b431f,2022-05-12_03h23.45.856,classification_task,2021.2.3,Win32,60.33910577,627c6715c52fd12f31907bcf,,,,,,,,,,,,,,,,,,,,,,,l,1,2.8131,"[""0.034"",""0.171"",""0.272"",""0.839""]","[1,1,0,1]",0,25,25,25,1,1,0,,,0,FALSE,,,,,,,,,,,,,,,,,,,,,,,,,,,,,,,
,5e89e89bf025be000c01eead,627c6fa887fb4fd63b5b431f,2022-05-12_03h23.45.856,classification_task,2021.2.3,Win32,60.33910577,627c6715c52fd12f31907bcf,,,,,,,,,,,,,,,,,,,,,,,l,1,2.8326,"[""0.128"",""0.287"",""0.638"",""0.792""]","[1,0,1,1]",0,26,26,26,1,1,1,,,0,FALSE,,,,,,,,,,,,,,,,,,,,,,,,,,,,,,,
,5e89e89bf025be000c01eead,627c6fa887fb4fd63b5b431f,2022-05-12_03h23.45.856,classification_task,2021.2.3,Win32,60.33910577,627c6715c52fd12f31907bcf,,,,,,,,,,,,,,,,,,,,,,,a,1,1.3663,"[""0.235"",""0.516"",""0.481"",""0.969""]","[1,1,0,1]",0,27,27,27,1,0,1,,,0,FALSE,,,,,,,,,,,,,,,,,,,,,,,,,,,,,,,
,5e89e89bf025be000c01eead,627c6fa887fb4fd63b5b431f,2022-05-12_03h23.45.856,classification_task,2021.2.3,Win32,60.33910577,627c6715c52fd12f31907bcf,,,,,,,,,,,,,,,,,,,,,,,a,1,2.2639,"[""0.471"",""0.358"",""0.878"",""0.926""]","[0,1,1,1]",0,28,28,28,1,0,0,,,0,FALSE,,,,,,,,,,,,,,,,,,,,,,,,,,,,,,,
,5e89e89bf025be000c01eead,627c6fa887fb4fd63b5b431f,2022-05-12_03h23.45.856,classification_task,2021.2.3,Win32,60.33910577,627c6715c52fd12f31907bcf,,,,,,,,,,,,,,,,,,,,,,,a,1,0.6164,"[""0.323"",""0.358"",""0.878"",""0.286""]","[1,1,1,0]",0,29,29,29,1,0,0,,,0,FALSE,,,,,,,,,,,,,,,,,,,,,,,,,,,,,,,
,5e89e89bf025be000c01eead,627c6fa887fb4fd63b5b431f,2022-05-12_03h23.45.856,classification_task,2021.2.3,Win32,60.33910577,627c6715c52fd12f31907bcf,,,,,,,,,,,,,,,,,,,,,,,l,1,2.2958,"[""0.128"",""0.431"",""0.469"",""0.792""]","[1,1,0,1]",0,30,30,30,1,1,1,,,0,FALSE,,,,,,,,,,,,,,,,,,,,,,,,,,,,,,,
,5e89e89bf025be000c01eead,627c6fa887fb4fd63b5b431f,2022-05-12_03h23.45.856,classification_task,2021.2.3,Win32,60.33910577,627c6715c52fd12f31907bcf,,,,,,,,,,,,,,,,,,,,,,,a,1,0.8484,"[""0.235"",""0.471"",""0.713"",""0.969""]","[1,0,1,1]",0,31,31,31,1,0,1,,,0,FALSE,,,,,,,,,,,,,,,,,,,,,,,,,,,,,,,
,5e89e89bf025be000c01eead,627c6fa887fb4fd63b5b431f,2022-05-12_03h23.45.856,classification_task,2021.2.3,Win32,60.33910577,627c6715c52fd12f31907bcf,,,,,,,,,,,,,,,,,,,,,,,l,1,1.232,"[""0.128"",""0.072"",""0.638"",""0.792""]","[1,0,1,1]",0,32,32,32,1,1,1,,,0,FALSE,,,,,,,,,,,,,,,,,,,,,,,,,,,,,,,
,5e89e89bf025be000c01eead,627c6fa887fb4fd63b5b431f,2022-05-12_03h23.45.856,classification_task,2021.2.3,Win32,60.33910577,627c6715c52fd12f31907bcf,,,,,,,,,,,,,,,,,,,,,,,a,1,1.1673,"[""0.235"",""0.516"",""0.713"",""0.072""]","[1,1,1,0]",0,33,33,33,1,0,1,,,0,FALSE,,,,,,,,,,,,,,,,,,,,,,,,,,,,,,,
,5e89e89bf025be000c01eead,627c6fa887fb4fd63b5b431f,2022-05-12_03h23.45.856,classification_task,2021.2.3,Win32,60.33910577,627c6715c52fd12f31907bcf,,,,,,,,,,,,,,,,,,,,,,,a,1,0.8173,"[""0.323"",""0.358"",""0.469"",""0.926""]","[1,1,0,1]",0,34,34,34,1,0,0,,,0,FALSE,,,,,,,,,,,,,,,,,,,,,,,,,,,,,,,
,5e89e89bf025be000c01eead,627c6fa887fb4fd63b5b431f,2022-05-12_03h23.45.856,classification_task,2021.2.3,Win32,60.33910577,627c6715c52fd12f31907bcf,,,,,,,,,,,,,,,,,,,,,,,a,1,0.3993,"[""0.323"",""0.358"",""0.878"",""0.481""]","[1,1,1,0]",0,35,35,35,1,0,0,,,0,FALSE,,,,,,,,,,,,,,,,,,,,,,,,,,,,,,,
,5e89e89bf025be000c01eead,627c6fa887fb4fd63b5b431f,2022-05-12_03h23.45.856,classification_task,2021.2.3,Win32,60.33910577,627c6715c52fd12f31907bcf,,,,,,,,,,,,,,,,,,,,,,,a,1,1.2645,"[""0.235"",""0.516"",""0.286"",""0.969""]","[1,1,0,1]",0,36,36,36,1,0,1,,,0,FALSE,,,,,,,,,,,,,,,,,,,,,,,,,,,,,,,
,5e89e89bf025be000c01eead,627c6fa887fb4fd63b5b431f,2022-05-12_03h23.45.856,classification_task,2021.2.3,Win32,60.33910577,627c6715c52fd12f31907bcf,,,,,,,,,,,,,,,,,,,,,,,l,1,1.5673,"[""0.676"",""0.431"",""0.638"",""0.792""]","[0,1,1,1]",0,37,37,37,1,1,1,,,0,FALSE,,,,,,,,,,,,,,,,,,,,,,,,,,,,,,,
,5e89e89bf025be000c01eead,627c6fa887fb4fd63b5b431f,2022-05-12_03h23.45.856,classification_task,2021.2.3,Win32,60.33910577,627c6715c52fd12f31907bcf,,,,,,,,,,,,,,,,,,,,,,,l,1,1.5643,"[""0.128"",""0.431"",""0.638"",""0.469""]","[1,1,1,0]",0,38,38,38,1,1,1,,,0,FALSE,,,,,,,,,,,,,,,,,,,,,,,,,,,,,,,
,5e89e89bf025be000c01eead,627c6fa887fb4fd63b5b431f,2022-05-12_03h23.45.856,classification_task,2021.2.3,Win32,60.33910577,627c6715c52fd12f31907bcf,,,,,,,,,,,,,,,,,,,,,,,a,1,0.8455,"[""0.235"",""0.551"",""0.713"",""0.969""]","[1,0,1,1]",0,39,39,39,1,0,1,,,0,FALSE,,,,,,,,,,,,,,,,,,,,,,,,,,,,,,,
,5e89e89bf025be000c01eead,627c6fa887fb4fd63b5b431f,2022-05-12_03h23.45.856,classification_task,2021.2.3,Win32,60.33910577,627c6715c52fd12f31907bcf,,,,,,,,,,,,,,,,,,,,,,,l,1,0.833,"[""0.034"",""0.395"",""0.591"",""0.839""]","[1,0,1,1]",0,40,40,40,1,1,0,,,0,FALSE,,,,,,,,,,,,,,,,,,,,,,,,,,,,,,,
,5e89e89bf025be000c01eead,627c6fa887fb4fd63b5b431f,2022-05-12_03h23.45.856,classification_task,2021.2.3,Win32,60.33910577,627c6715c52fd12f31907bcf,,,,,,,,,,,,,,,,,,,,,,,a,0,3.2307,"[""0.287"",""0.171"",""0.591"",""0.839""]","[0,1,1,1]",0,41,41,41,1,1,0,,,0,FALSE,,,,,,,,,,,,,,,,,,,,,,,,,,,,,,,
,5e89e89bf025be000c01eead,627c6fa887fb4fd63b5b431f,2022-05-12_03h23.45.856,classification_task,2021.2.3,Win32,60.33910577,627c6715c52fd12f31907bcf,,,,,,,,,,,,,,,,,,,,,,,l,0,0.9993,"[""0.072"",""0.516"",""0.713"",""0.969""]","[0,1,1,1]",0,42,42,42,1,0,1,,,0,FALSE,,,,,,,,,,,,,,,,,,,,,,,,,,,,,,,
,5e89e89bf025be000c01eead,627c6fa887fb4fd63b5b431f,2022-05-12_03h23.45.856,classification_task,2021.2.3,Win32,60.33910577,627c6715c52fd12f31907bcf,,,,,,,,,,,,,,,,,,,,,,,l,1,0.8755,"[""0.034"",""0.171"",""0.591"",""0.747""]","[1,1,1,0]",0,43,43,43,1,1,0,,,0,FALSE,,,,,,,,,,,,,,,,,,,,,,,,,,,,,,,
,5e89e89bf025be000c01eead,627c6fa887fb4fd63b5b431f,2022-05-12_03h23.45.856,classification_task,2021.2.3,Win32,60.33910577,627c6715c52fd12f31907bcf,,,,,,,,,,,,,,,,,,,,,,,a,1,1.3639,"[""0.323"",""0.072"",""0.878"",""0.926""]","[1,0,1,1]",0,44,44,44,1,0,0,,,0,FALSE,,,,,,,,,,,,,,,,,,,,,,,,,,,,,,,
,5e89e89bf025be000c01eead,627c6fa887fb4fd63b5b431f,2022-05-12_03h23.45.856,classification_task,2021.2.3,Win32,60.33910577,627c6715c52fd12f31907bcf,,,,,,,,,,,,,,,,,,,,,,,a,0,1.8462,"[""0.034"",""0.171"",""0.272"",""0.839""]","[1,1,0,1]",0,45,45,45,1,1,0,,,0,FALSE,,,,,,,,,,,,,,,,,,,,,,,,,,,,,,,
,5e89e89bf025be000c01eead,627c6fa887fb4fd63b5b431f,2022-05-12_03h23.45.856,classification_task,2021.2.3,Win32,60.33910577,627c6715c52fd12f31907bcf,,,,,,,,,,,,,,,,,,,,,,,l,1,1.5985,"[""0.128"",""0.431"",""0.672"",""0.792""]","[1,1,0,1]",0,46,46,46,1,1,1,,,0,FALSE,,,,,,,,,,,,,,,,,,,,,,,,,,,,,,,
,5e89e89bf025be000c01eead,627c6fa887fb4fd63b5b431f,2022-05-12_03h23.45.856,classification_task,2021.2.3,Win32,60.33910577,627c6715c52fd12f31907bcf,,,,,,,,,,,,,,,,,,,,,,,a,1,0.9653,"[""0.469"",""0.358"",""0.878"",""0.926""]","[0,1,1,1]",0,47,47,47,1,0,0,,,0,FALSE,,,,,,,,,,,,,,,,,,,,,,,,,,,,,,,
,5e89e89bf025be000c01eead,627c6fa887fb4fd63b5b431f,2022-05-12_03h23.45.856,classification_task,2021.2.3,Win32,60.33910577,627c6715c52fd12f31907bcf,,,,,,,,,,,,,,,,,,,,,,,l,0,2.7138,"[""0.748"",""0.516"",""0.713"",""0.969""]","[0,1,1,1]",0,48,48,48,1,0,1,,,0,FALSE,,,,,,,,,,,,,,,,,,,,,,,,,,,,,,,
,5e89e89bf025be000c01eead,627c6fa887fb4fd63b5b431f,2022-05-12_03h23.45.856,classification_task,2021.2.3,Win32,60.33910577,627c6715c52fd12f31907bcf,,,,,,,,,,,,,,,,,,,,,,,l,1,1.0331,"[""0.128"",""0.431"",""0.395"",""0.792""]","[1,1,0,1]",0,49,49,49,1,1,1,,,0,FALSE,,,,,,,,,,,,,,,,,,,,,,,,,,,,,,,
,5e89e89bf025be000c01eead,627c6fa887fb4fd63b5b431f,2022-05-12_03h23.45.856,classification_task,2021.2.3,Win32,60.33910577,627c6715c52fd12f31907bcf,,,,,,,,,,,,,,,,,,,,,,,l,1,0.9491,"[""0.034"",""0.395"",""0.591"",""0.839""]","[1,0,1,1]",0,50,50,50,1,1,0,,,0,FALSE,,,,,,,,,,,,,,,,,,,,,,,,,,,,,,,
,5e89e89bf025be000c01eead,627c6fa887fb4fd63b5b431f,2022-05-12_03h23.45.856,classification_task,2021.2.3,Win32,60.33910577,627c6715c52fd12f31907bcf,,,,,,,,,,,,,,,,,,,,,,,l,1,1.0314,"[""0.128"",""0.287"",""0.638"",""0.792""]","[1,0,1,1]",0,51,51,51,1,1,1,,,0,FALSE,,,,,,,,,,,,,,,,,,,,,,,,,,,,,,,
,5e89e89bf025be000c01eead,627c6fa887fb4fd63b5b431f,2022-05-12_03h23.45.856,classification_task,2021.2.3,Win32,60.33910577,627c6715c52fd12f31907bcf,,,,,,,,,,,,,,,,,,,,,,,l,1,0.982,"[""0.469"",""0.171"",""0.591"",""0.839""]","[0,1,1,1]",0,52,52,52,1,1,0,,,0,FALSE,,,,,,,,,,,,,,,,,,,,,,,,,,,,,,,
,5e89e89bf025be000c01eead,627c6fa887fb4fd63b5b431f,2022-05-12_03h23.45.856,classification_task,2021.2.3,Win32,60.33910577,627c6715c52fd12f31907bcf,,,,,,,,,,,,,,,,,,,,,,,a,1,0.5847,"[""0.323"",""0.358"",""0.878"",""0.676""]","[1,1,1,0]",0,53,53,53,1,0,0,,,0,FALSE,,,,,,,,,,,,,,,,,,,,,,,,,,,,,,,
,5e89e89bf025be000c01eead,627c6fa887fb4fd63b5b431f,2022-05-12_03h23.45.856,classification_task,2021.2.3,Win32,60.33910577,627c6715c52fd12f31907bcf,,,,,,,,,,,,,,,,,,,,,,,a,0,1.8317,"[""0.128"",""0.431"",""0.638"",""0.272""]","[1,1,1,0]",0,54,54,54,1,1,1,,,0,FALSE,,,,,,,,,,,,,,,,,,,,,,,,,,,,,,,
,5e89e89bf025be000c01eead,627c6fa887fb4fd63b5b431f,2022-05-12_03h23.45.856,classification_task,2021.2.3,Win32,60.33910577,627c6715c52fd12f31907bcf,,,,,,,,,,,,,,,,,,,,,,,l,1,1.2006,"[""0.034"",""0.171"",""0.591"",""0.551""]","[1,1,1,0]",0,55,55,55,1,1,0,,,0,FALSE,,,,,,,,,,,,,,,,,,,,,,,,,,,,,,,
,5e89e89bf025be000c01eead,627c6fa887fb4fd63b5b431f,2022-05-12_03h23.45.856,classification_task,2021.2.3,Win32,60.33910577,627c6715c52fd12f31907bcf,,,,,,,,,,,,,,,,,,,,,,,a,1,0.732,"[""0.323"",""0.358"",""0.553"",""0.926""]","[1,1,0,1]",0,56,56,56,1,0,0,,,0,FALSE,,,,,,,,,,,,,,,,,,,,,,,,,,,,,,,
,5e89e89bf025be000c01eead,627c6fa887fb4fd63b5b431f,2022-05-12_03h23.45.856,classification_task,2021.2.3,Win32,60.33910577,627c6715c52fd12f31907bcf,,,,,,,,,,,,,,,,,,,,,,,l,1,1.2329,"[""0.748"",""0.431"",""0.638"",""0.792""]","[0,1,1,1]",0,57,57,57,1,1,1,,,0,FALSE,,,,,,,,,,,,,,,,,,,,,,,,,,,,,,,
,5e89e89bf025be000c01eead,627c6fa887fb4fd63b5b431f,2022-05-12_03h23.45.856,classification_task,2021.2.3,Win32,60.33910577,627c6715c52fd12f31907bcf,,,,,,,,,,,,,,,,,,,,,,,a,1,1.1166,"[""0.235"",""0.481"",""0.713"",""0.969""]","[1,0,1,1]",0,58,58,58,1,0,1,,,0,FALSE,,,,,,,,,,,,,,,,,,,,,,,,,,,,,,,
,5e89e89bf025be000c01eead,627c6fa887fb4fd63b5b431f,2022-05-12_03h23.45.856,classification_task,2021.2.3,Win32,60.33910577,627c6715c52fd12f31907bcf,,,,,,,,,,,,,,,,,,,,,,,a,1,0.6168,"[""0.235"",""0.516"",""0.713"",""0.676""]","[1,1,1,0]",0,59,59,59,1,0,1,,,0,FALSE,,,,,,,,,,,,,,,,,,,,,,,,,,,,,,,
,5e89e89bf025be000c01eead,627c6fa887fb4fd63b5b431f,2022-05-12_03h23.45.856,classification_task,2021.2.3,Win32,60.33910577,627c6715c52fd12f31907bcf,,,,,,,,,,,,,,,,,,,,,,,a,1,0.6379,"[""0.235"",""0.516"",""0.748"",""0.969""]","[1,1,0,1]",0,60,60,60,1,0,1,,,0,FALSE,,,,,,,,,,,,,,,,,,,,,,,,,,,,,,,
,5e89e89bf025be000c01eead,627c6fa887fb4fd63b5b431f,2022-05-12_03h23.45.856,classification_task,2021.2.3,Win32,60.33910577,627c6715c52fd12f31907bcf,,,,,,,,,,,,,,,,,,,,,,,a,0,2.8478,"[""0.034"",""0.171"",""0.286"",""0.839""]","[1,1,0,1]",0,61,61,61,1,1,0,,,0,FALSE,,,,,,,,,,,,,,,,,,,,,,,,,,,,,,,
,5e89e89bf025be000c01eead,627c6fa887fb4fd63b5b431f,2022-05-12_03h23.45.856,classification_task,2021.2.3,Win32,60.33910577,627c6715c52fd12f31907bcf,,,,,,,,,,,,,,,,,,,,,,,l,0,0.9328,"[""0.323"",""0.395"",""0.878"",""0.926""]","[1,0,1,1]",0,62,62,62,1,0,0,,,0,FALSE,,,,,,,,,,,,,,,,,,,,,,,,,,,,,,,
,5e89e89bf025be000c01eead,627c6fa887fb4fd63b5b431f,2022-05-12_03h23.45.856,classification_task,2021.2.3,Win32,60.33910577,627c6715c52fd12f31907bcf,,,,,,,,,,,,,,,,,,,,,,,a,1,0.8002,"[""0.481"",""0.358"",""0.878"",""0.926""]","[0,1,1,1]",0,63,63,63,1,0,0,,,0,FALSE,,,,,,,,,,,,,,,,,,,,,,,,,,,,,,,
,5e89e89bf025be000c01eead,627c6fa887fb4fd63b5b431f,2022-05-12_03h23.45.856,classification_task,2021.2.3,Win32,60.33910577,627c6715c52fd12f31907bcf,,,,,,,,,,,,,,,,,,,,,,,,,,,,,,,,,,,,,,,0, ,,0,3.609887463,162.3823,0,2,2,2,1,2,3,,,,,,,,,,,,,,,,,,
,5e89e89bf025be000c01eead,627c6fa887fb4fd63b5b431f,2022-05-12_03h23.45.856,classification_task,2021.2.3,Win32,60.33910577,627c6715c52fd12f31907bcf,,,,,,,,,,,,,,,,,,,,,,,,,,,,,,,,,,,,,,,1,  ,,0,6.451352893,164.1751,0,2,2,2,1,2,3,,,,,,,,,,,,,,,,,,
,5e89e89bf025be000c01eead,627c6fa887fb4fd63b5b431f,2022-05-12_03h23.45.856,classification_task,2021.2.3,Win32,60.33910577,627c6715c52fd12f31907bcf,,,,,,,,,,,,,,,,,,,,,,,,,,,,,,,,,,,,,,,2,  ,,0,2.630071668,166.3896,0,2,2,2,1,2,3,,,,,,,,,,,,,,,,,,
,5e89e89bf025be000c01eead,627c6fa887fb4fd63b5b431f,2022-05-12_03h23.45.856,classification_task,2021.2.3,Win32,60.33910577,627c6715c52fd12f31907bcf,,,,,,,,,,,,,,,,,,,,,,,,,,,,,,,,,,,,,,,,,,,,,0,2,2,2,1,,3,,,,,,,,,,,,,,,,,,
,5e89e89bf025be000c01eead,627c6fa887fb4fd63b5b431f,2022-05-12_03h23.45.856,classification_task,2021.2.3,Win32,60.33910577,627c6715c52fd12f31907bcf,,,,,,,,,,,,,,,,,,,,,,,,,,,,,,,,,,,,,,,,,,,,,,,,,,,,,I believe the aid is a competent performer,,0.7,0,4,1465.8112,0,0,0,0,1,0,,,,,
,5e89e89bf025be000c01eead,627c6fa887fb4fd63b5b431f,2022-05-12_03h23.45.856,classification_task,2021.2.3,Win32,60.33910577,627c6715c52fd12f31907bcf,,,,,,,,,,,,,,,,,,,,,,,,,,,,,,,,,,,,,,,,,,,,,,,,,,,,,I trust the aid,,0.7,0,5,1467.5176,0,0,0,0,1,0,,,,,
,5e89e89bf025be000c01eead,627c6fa887fb4fd63b5b431f,2022-05-12_03h23.45.856,classification_task,2021.2.3,Win32,60.33910577,627c6715c52fd12f31907bcf,,,,,,,,,,,,,,,,,,,,,,,,,,,,,,,,,,,,,,,,,,,,,,,,,,,,,I have confidence in the advice given by the aid,,0.7,0,5,1469.581,0,0,0,0,1,0,,,,,
,5e89e89bf025be000c01eead,627c6fa887fb4fd63b5b431f,2022-05-12_03h23.45.856,classification_task,2021.2.3,Win32,60.33910577,627c6715c52fd12f31907bcf,,,,,,,,,,,,,,,,,,,,,,,,,,,,,,,,,,,,,,,,,,,,,,,,,,,,,I can depend on the aid,,0.7,0,5,1471.0795,0,0,0,0,1,0,,,,,
,5e89e89bf025be000c01eead,627c6fa887fb4fd63b5b431f,2022-05-12_03h23.45.856,classification_task,2021.2.3,Win32,60.33910577,627c6715c52fd12f31907bcf,,,,,,,,,,,,,,,,,,,,,,,,,,,,,,,,,,,,,,,,,,,,,,,,,,,,,I can rely on the aid to behave in consistent ways,,0.7,0,5,1473.3923,0,0,0,0,1,0,,,,,
,5e89e89bf025be000c01eead,627c6fa887fb4fd63b5b431f,2022-05-12_03h23.45.856,classification_task,2021.2.3,Win32,60.33910577,627c6715c52fd12f31907bcf,,,,,,,,,,,,,,,,,,,,,,,,,,,,,,,,,,,,,,,,,,,,,,,,,,,,,I can rely on the aid to do its best every time I take its advice,,0.7,0,5,1474.5056,0,0,0,0,1,0,,,,,
,5e89e89bf025be000c01eead,627c6fa887fb4fd63b5b431f,2022-05-12_03h23.45.856,classification_task,2021.2.3,Win32,60.33910577,627c6715c52fd12f31907bcf,,,,,,,,,,,,,,,,,,,,,,,,,,,,,,,,,,,,,,,,,,,,,,,,,,,,,"On trials you completed with assistance from the aid, how frequently did you think the aid was correct?",,0.7,0,0%,,0,0,0,0,1,0,,,,,
,5e89e89bf025be000c01eead,627c6fa887fb4fd63b5b431f,2022-05-12_03h23.45.856,classification_task,2021.2.3,Win32,60.33910577,627c6715c52fd12f31907bcf,,,,,,,,,,,,,,,,,,,,,,,,,,,,,,,,,,,,,,,,,,,,,,,,,,,,,"On trials you completed without the aid, how frequently did you think you were correct?",,0.7,0,40%,,0,0,0,0,1,0,,,,,
,5e89e89bf025be000c01eead,627c6fa887fb4fd63b5b431f,2022-05-12_03h23.45.856,classification_task,2021.2.3,Win32,60.33910577,627c6715c52fd12f31907bcf,,,,,,,,,,,,,,,,,,,,,,,,,,,,,,,,,,,,,,,,,,,,,,,,,,,,,,,,,,,0,0,0,0,1,,,,,,
,5e89e89bf025be000c01eead,627c6fa887fb4fd63b5b431f,2022-05-12_03h23.45.856,classification_task,2021.2.3,Win32,60.33910577,627c6715c52fd12f31907bcf,,,,,,,,,,,,,,,,,,,,,,,,,,,,,,,,,,,,,,,,,,,,,,,,,,,,,,,,,,,,,,,,,space,5.6905,1512.0096,,
,5e89e89bf025be000c01eead,627c6fa887fb4fd63b5b431f,2022-05-12_03h23.45.856,classification_task,2021.2.3,Win32,60.33910577,627c6715c52fd12f31907bcf,,,,,,,,,,,,,,,,,,,,,,,,,,,,,,,,,,,,,,,,,,,,,,,,,,,,,,,,,,,,,,,,,,,,"Mozilla/5.0 (Windows NT 10.0; Win64; x64) AppleWebKit/537.36 (KHTML, like Gecko) Chrome/101.0.4951.54 Safari/537.36",
,5e89e89bf025be000c01eead,627c6fa887fb4fd63b5b431f,2022-05-12_03h23.45.856,classification_task,2021.2.3,Win32,60.33910577,627c6715c52fd12f31907bcf,,,,,,,,,,,,,,,,,,,,,,,,,,,,,,,,,,,,,,,,,,,,,,,,,,,,,,,,,,,,,,,,,,,,,FADING
