usingWebGL,participant,session,date,expName,psychopyVersion,OS,frameRate,PROLIFIC_PID,STUDY_ID,SESSION_ID,signatures_friend,signatures_foe,band_ranges_top,band_ranges_bottom,formitemText,formtype,formundefined,formitemWidth,formindex,formresponse,formrt,key_resp_2.keys,key_resp_2.rt,tute_resp.keys,tute_resp.rt,tutorial.thisRepN,tutorial.thisTrialN,tutorial.thisN,tutorial.thisIndex,tutorial.ran,key_resp_4.keys,key_resp_4.rt,key_resp.keys,key_resp.corr,key_resp.rt,lines_presented,is_signal_presented,trials.thisRepN,trials.thisTrialN,trials.thisN,trials.thisIndex,trials.ran,vessel,active_band,lines,is_signal,supported_pos,catch_trial,debrief_formindex,debrief_formitemText,debrief_formtype,debrief_formitemWidth,debrief_formresponse,debrief_formrt,phases.thisRepN,phases.thisTrialN,phases.thisN,phases.thisIndex,phases.ran,phases.order,phase,key_resp_3.keys,trustitemText,trusttype,trustitemWidth,trustindex,trustresponse,trustrt,support_status.thisRepN,support_status.thisTrialN,support_status.thisN,support_status.thisIndex,support_status.ran,support_status.order,key_resp_5.keys,key_resp_5.rt,globalClockTime,userAgent
TRUE,5e9133f704391d46ee2bcb31,001,2022-04-28_21h11.41.627,classification_task,2021.2.3,Win32,60.81245439,5e9133f704391d46ee2bcb31,626b377229c10585ec392f89,626b3b17cd2dc8cbf2e4efbd,,,,,,,,,,,,,,,,,,,,,,,,,,,,,,,,,,,,,,,,,,,,,,,,,,,,,,,,,,,,,,,,,,,,
,5e9133f704391d46ee2bcb31,001,2022-04-28_21h11.41.627,classification_task,2021.2.3,Win32,60.81245439,5e9133f704391d46ee2bcb31,626b377229c10585ec392f89,626b3b17cd2dc8cbf2e4efbd,"[[""0.240"",""0.392"",""0.616"",""0.956""],[""0.324"",""0.529"",""0.679"",""0.876""]]","[[""0.025"",""0.191"",""0.579"",""0.733""],[""0.085"",""0.289"",""0.481"",""0.806""]]","[1,10]","[100,1000]",Video game experience,,,0.7,0,,,,,,,,,,,,,,,,,,,,,,,,,,,,,,,,,,,,,,,,,,,,,,,,,,,,,,,,,,,
,5e9133f704391d46ee2bcb31,001,2022-04-28_21h11.41.627,classification_task,2021.2.3,Win32,60.81245439,5e9133f704391d46ee2bcb31,626b377229c10585ec392f89,626b3b17cd2dc8cbf2e4efbd,,,,,Approximately how many hours did you spend playing video games in the last week?,,,0.7,0,1,,,,,,,,,,,,,,,,,,,,,,,,,,,,,,,,,,,,,,,,,,,,,,,,,,,,,,,,,,
,5e9133f704391d46ee2bcb31,001,2022-04-28_21h11.41.627,classification_task,2021.2.3,Win32,60.81245439,5e9133f704391d46ee2bcb31,626b377229c10585ec392f89,626b3b17cd2dc8cbf2e4efbd,,,,,"Which game did you play the most this year? (Enter ""None"" if you didn't play any)",,,0.7,0,League of Legends,,,,,,,,,,,,,,,,,,,,,,,,,,,,,,,,,,,,,,,,,,,,,,,,,,,,,,,,,,
,5e9133f704391d46ee2bcb31,001,2022-04-28_21h11.41.627,classification_task,2021.2.3,Win32,60.81245439,5e9133f704391d46ee2bcb31,626b377229c10585ec392f89,626b3b17cd2dc8cbf2e4efbd,,,,,Visual perception,,,0.7,0,,,,,,,,,,,,,,,,,,,,,,,,,,,,,,,,,,,,,,,,,,,,,,,,,,,,,,,,,,,
,5e9133f704391d46ee2bcb31,001,2022-04-28_21h11.41.627,classification_task,2021.2.3,Win32,60.81245439,5e9133f704391d46ee2bcb31,626b377229c10585ec392f89,626b3b17cd2dc8cbf2e4efbd,,,,,Do you have any form of color blindness?,,,0.7,0,No,18.4998,,,,,,,,,,,,,,,,,,,,,,,,,,,,,,,,,,,,,,,,,,,,,,,,,,,,,,,,,
,5e9133f704391d46ee2bcb31,001,2022-04-28_21h11.41.627,classification_task,2021.2.3,Win32,60.81245439,5e9133f704391d46ee2bcb31,626b377229c10585ec392f89,626b3b17cd2dc8cbf2e4efbd,,,,,Do you use software to change the colour temperature of your screen (e.g. f.lux)?,,,0.7,0,No,22.1689,,,,,,,,,,,,,,,,,,,,,,,,,,,,,,,,,,,,,,,,,,,,,,,,,,,,,,,,,
,5e9133f704391d46ee2bcb31,001,2022-04-28_21h11.41.627,classification_task,2021.2.3,Win32,60.81245439,5e9133f704391d46ee2bcb31,626b377229c10585ec392f89,626b3b17cd2dc8cbf2e4efbd,,,,,,,,,,,,space,24.7695,space,10.9935,0,0,0,0,1,,,,,,,,,,,,,,,,,,,,,,,,,,,,,,,,,,,,,,,,,,,,,,,,
,5e9133f704391d46ee2bcb31,001,2022-04-28_21h11.41.627,classification_task,2021.2.3,Win32,60.81245439,5e9133f704391d46ee2bcb31,626b377229c10585ec392f89,626b3b17cd2dc8cbf2e4efbd,,,,,,,,,,,,,,space,5.2286,1,0,1,0,1,,,,,,,,,,,,,,,,,,,,,,,,,,,,,,,,,,,,,,,,,,,,,,,,
,5e9133f704391d46ee2bcb31,001,2022-04-28_21h11.41.627,classification_task,2021.2.3,Win32,60.81245439,5e9133f704391d46ee2bcb31,626b377229c10585ec392f89,626b3b17cd2dc8cbf2e4efbd,,,,,,,,,,,,,,space,22.6902,2,0,2,0,1,,,,,,,,,,,,,,,,,,,,,,,,,,,,,,,,,,,,,,,,,,,,,,,,
,5e9133f704391d46ee2bcb31,001,2022-04-28_21h11.41.627,classification_task,2021.2.3,Win32,60.81245439,5e9133f704391d46ee2bcb31,626b377229c10585ec392f89,626b3b17cd2dc8cbf2e4efbd,,,,,,,,,,,,,,space,5.5789,3,0,3,0,1,,,,,,,,,,,,,,,,,,,,,,,,,,,,,,,,,,,,,,,,,,,,,,,,
,5e9133f704391d46ee2bcb31,001,2022-04-28_21h11.41.627,classification_task,2021.2.3,Win32,60.81245439,5e9133f704391d46ee2bcb31,626b377229c10585ec392f89,626b3b17cd2dc8cbf2e4efbd,,,,,,,,,,,,,,space,10.4531,4,0,4,0,1,,,,,,,,,,,,,,,,,,,,,,,,,,,,,,,,,,,,,,,,,,,,,,,,
,5e9133f704391d46ee2bcb31,001,2022-04-28_21h11.41.627,classification_task,2021.2.3,Win32,60.81245439,5e9133f704391d46ee2bcb31,626b377229c10585ec392f89,626b3b17cd2dc8cbf2e4efbd,,,,,,,,,,,,,,,,,,,,,space,24.208,l,1,2.8343,"[""0.085"",""0.289"",""0.481"",""0.125""]","[1,1,1,0]",0,0,0,0,1,1,1,,,1,FALSE,,,,,,,,,,,,,,,,,,,,,,,,,,,,,,
,5e9133f704391d46ee2bcb31,001,2022-04-28_21h11.41.627,classification_task,2021.2.3,Win32,60.81245439,5e9133f704391d46ee2bcb31,626b377229c10585ec392f89,626b3b17cd2dc8cbf2e4efbd,,,,,,,,,,,,,,,,,,,,,,,a,1,3.1434,"[""0.240"",""0.426"",""0.616"",""0.956""]","[1,0,1,1]",0,1,1,1,1,0,0,,,1,FALSE,,,,,,,,,,,,,,,,,,,,,,,,,,,,,,
,5e9133f704391d46ee2bcb31,001,2022-04-28_21h11.41.627,classification_task,2021.2.3,Win32,60.81245439,5e9133f704391d46ee2bcb31,626b377229c10585ec392f89,626b3b17cd2dc8cbf2e4efbd,,,,,,,,,,,,,,,,,,,,,,,a,1,3.0646,"[""0.240"",""0.392"",""0.125"",""0.956""]","[1,1,0,1]",0,2,2,2,1,0,0,,,1,FALSE,,,,,,,,,,,,,,,,,,,,,,,,,,,,,,
,5e9133f704391d46ee2bcb31,001,2022-04-28_21h11.41.627,classification_task,2021.2.3,Win32,60.81245439,5e9133f704391d46ee2bcb31,626b377229c10585ec392f89,626b3b17cd2dc8cbf2e4efbd,,,,,,,,,,,,,,,,,,,,,,,a,0,2.8045,"[""0.769"",""0.289"",""0.481"",""0.806""]","[0,1,1,1]",0,3,3,3,1,1,1,,,1,FALSE,,,,,,,,,,,,,,,,,,,,,,,,,,,,,,
,5e9133f704391d46ee2bcb31,001,2022-04-28_21h11.41.627,classification_task,2021.2.3,Win32,60.81245439,5e9133f704391d46ee2bcb31,626b377229c10585ec392f89,626b3b17cd2dc8cbf2e4efbd,,,,,,,,,,,,,,,,,,,,,,,l,1,3.7137,"[""0.025"",""0.191"",""0.579"",""0.137""]","[1,1,1,0]",0,4,4,4,1,1,0,,,1,FALSE,,,,,,,,,,,,,,,,,,,,,,,,,,,,,,
,5e9133f704391d46ee2bcb31,001,2022-04-28_21h11.41.627,classification_task,2021.2.3,Win32,60.81245439,5e9133f704391d46ee2bcb31,626b377229c10585ec392f89,626b3b17cd2dc8cbf2e4efbd,,,,,,,,,,,,,,,,,,,,,,,l,1,3.7311,"[""0.919"",""0.191"",""0.579"",""0.733""]","[0,1,1,1]",0,5,5,5,1,1,0,,,1,FALSE,,,,,,,,,,,,,,,,,,,,,,,,,,,,,,
,5e9133f704391d46ee2bcb31,001,2022-04-28_21h11.41.627,classification_task,2021.2.3,Win32,60.81245439,5e9133f704391d46ee2bcb31,626b377229c10585ec392f89,626b3b17cd2dc8cbf2e4efbd,,,,,,,,,,,,,,,,,,,,,,,a,1,5.0864,"[""0.121"",""0.529"",""0.679"",""0.876""]","[0,1,1,1]",0,6,6,6,1,0,1,,,1,FALSE,,,,,,,,,,,,,,,,,,,,,,,,,,,,,,
,5e9133f704391d46ee2bcb31,001,2022-04-28_21h11.41.627,classification_task,2021.2.3,Win32,60.81245439,5e9133f704391d46ee2bcb31,626b377229c10585ec392f89,626b3b17cd2dc8cbf2e4efbd,,,,,,,,,,,,,,,,,,,,,,,l,1,3.9092,"[""0.085"",""0.769"",""0.481"",""0.806""]","[1,0,1,1]",0,7,7,7,1,1,1,,,1,FALSE,,,,,,,,,,,,,,,,,,,,,,,,,,,,,,
,5e9133f704391d46ee2bcb31,001,2022-04-28_21h11.41.627,classification_task,2021.2.3,Win32,60.81245439,5e9133f704391d46ee2bcb31,626b377229c10585ec392f89,626b3b17cd2dc8cbf2e4efbd,,,,,,,,,,,,,,,,,,,,,,,l,0,2.7584,"[""0.240"",""0.392"",""0.616"",""0.125""]","[1,1,1,0]",0,8,8,8,1,0,0,,,1,FALSE,,,,,,,,,,,,,,,,,,,,,,,,,,,,,,
,5e9133f704391d46ee2bcb31,001,2022-04-28_21h11.41.627,classification_task,2021.2.3,Win32,60.81245439,5e9133f704391d46ee2bcb31,626b377229c10585ec392f89,626b3b17cd2dc8cbf2e4efbd,,,,,,,,,,,,,,,,,,,,,,,a,1,3.2571,"[""0.324"",""0.529"",""0.679"",""0.769""]","[1,1,1,0]",0,9,9,9,1,0,1,,,1,FALSE,,,,,,,,,,,,,,,,,,,,,,,,,,,,,,
,5e9133f704391d46ee2bcb31,001,2022-04-28_21h11.41.627,classification_task,2021.2.3,Win32,60.81245439,5e9133f704391d46ee2bcb31,626b377229c10585ec392f89,626b3b17cd2dc8cbf2e4efbd,,,,,,,,,,,,,,,,,,,,,,,a,1,4.7454,"[""0.324"",""0.529"",""0.121"",""0.876""]","[1,1,0,1]",0,10,10,10,1,0,1,,,1,FALSE,,,,,,,,,,,,,,,,,,,,,,,,,,,,,,
,5e9133f704391d46ee2bcb31,001,2022-04-28_21h11.41.627,classification_task,2021.2.3,Win32,60.81245439,5e9133f704391d46ee2bcb31,626b377229c10585ec392f89,626b3b17cd2dc8cbf2e4efbd,,,,,,,,,,,,,,,,,,,,,,,a,1,3.6236,"[""0.919"",""0.392"",""0.616"",""0.956""]","[0,1,1,1]",0,11,11,11,1,0,0,,,1,FALSE,,,,,,,,,,,,,,,,,,,,,,,,,,,,,,
,5e9133f704391d46ee2bcb31,001,2022-04-28_21h11.41.627,classification_task,2021.2.3,Win32,60.81245439,5e9133f704391d46ee2bcb31,626b377229c10585ec392f89,626b3b17cd2dc8cbf2e4efbd,,,,,,,,,,,,,,,,,,,,,,,a,1,5.9889,"[""0.324"",""0.141"",""0.679"",""0.876""]","[1,0,1,1]",0,12,12,12,1,0,1,,,1,FALSE,,,,,,,,,,,,,,,,,,,,,,,,,,,,,,
,5e9133f704391d46ee2bcb31,001,2022-04-28_21h11.41.627,classification_task,2021.2.3,Win32,60.81245439,5e9133f704391d46ee2bcb31,626b377229c10585ec392f89,626b3b17cd2dc8cbf2e4efbd,,,,,,,,,,,,,,,,,,,,,,,l,1,7.9704,"[""0.025"",""0.191"",""0.145"",""0.733""]","[1,1,0,1]",0,13,13,13,1,1,0,,,1,FALSE,,,,,,,,,,,,,,,,,,,,,,,,,,,,,,
,5e9133f704391d46ee2bcb31,001,2022-04-28_21h11.41.627,classification_task,2021.2.3,Win32,60.81245439,5e9133f704391d46ee2bcb31,626b377229c10585ec392f89,626b3b17cd2dc8cbf2e4efbd,,,,,,,,,,,,,,,,,,,,,,,l,1,6.037,"[""0.085"",""0.289"",""0.124"",""0.806""]","[1,1,0,1]",0,14,14,14,1,1,1,,,1,FALSE,,,,,,,,,,,,,,,,,,,,,,,,,,,,,,
,5e9133f704391d46ee2bcb31,001,2022-04-28_21h11.41.627,classification_task,2021.2.3,Win32,60.81245439,5e9133f704391d46ee2bcb31,626b377229c10585ec392f89,626b3b17cd2dc8cbf2e4efbd,,,,,,,,,,,,,,,,,,,,,,,l,1,3.7805,"[""0.025"",""0.913"",""0.579"",""0.733""]","[1,0,1,1]",0,15,15,15,1,1,0,,,1,FALSE,,,,,,,,,,,,,,,,,,,,,,,,,,,,,,
,5e9133f704391d46ee2bcb31,001,2022-04-28_21h11.41.627,classification_task,2021.2.3,Win32,60.81245439,5e9133f704391d46ee2bcb31,626b377229c10585ec392f89,626b3b17cd2dc8cbf2e4efbd,,,,,,,,,,,,,,,,,,,,,,,a,1,4.689,"[""0.324"",""0.145"",""0.679"",""0.876""]","[1,0,1,1]",0,16,16,16,1,0,1,,,1,FALSE,,,,,,,,,,,,,,,,,,,,,,,,,,,,,,
,5e9133f704391d46ee2bcb31,001,2022-04-28_21h11.41.627,classification_task,2021.2.3,Win32,60.81245439,5e9133f704391d46ee2bcb31,626b377229c10585ec392f89,626b3b17cd2dc8cbf2e4efbd,,,,,,,,,,,,,,,,,,,,,,,l,1,7.2245,"[""0.025"",""0.191"",""0.913"",""0.733""]","[1,1,0,1]",0,17,17,17,1,1,0,,,1,FALSE,,,,,,,,,,,,,,,,,,,,,,,,,,,,,,
,5e9133f704391d46ee2bcb31,001,2022-04-28_21h11.41.627,classification_task,2021.2.3,Win32,60.81245439,5e9133f704391d46ee2bcb31,626b377229c10585ec392f89,626b3b17cd2dc8cbf2e4efbd,,,,,,,,,,,,,,,,,,,,,,,l,1,5.9267,"[""0.085"",""0.289"",""0.130"",""0.806""]","[1,1,0,1]",0,18,18,18,1,1,1,,,1,FALSE,,,,,,,,,,,,,,,,,,,,,,,,,,,,,,
,5e9133f704391d46ee2bcb31,001,2022-04-28_21h11.41.627,classification_task,2021.2.3,Win32,60.81245439,5e9133f704391d46ee2bcb31,626b377229c10585ec392f89,626b3b17cd2dc8cbf2e4efbd,,,,,,,,,,,,,,,,,,,,,,,a,1,7.5357,"[""0.240"",""0.770"",""0.616"",""0.956""]","[1,0,1,1]",0,19,19,19,1,0,0,,,1,FALSE,,,,,,,,,,,,,,,,,,,,,,,,,,,,,,
,5e9133f704391d46ee2bcb31,001,2022-04-28_21h11.41.627,classification_task,2021.2.3,Win32,60.81245439,5e9133f704391d46ee2bcb31,626b377229c10585ec392f89,626b3b17cd2dc8cbf2e4efbd,,,,,,,,,,,,,,,,,,,,,,,l,1,4.8666,"[""0.025"",""0.141"",""0.579"",""0.733""]","[1,0,1,1]",0,20,20,20,1,1,0,,,1,FALSE,,,,,,,,,,,,,,,,,,,,,,,,,,,,,,
,5e9133f704391d46ee2bcb31,001,2022-04-28_21h11.41.627,classification_task,2021.2.3,Win32,60.81245439,5e9133f704391d46ee2bcb31,626b377229c10585ec392f89,626b3b17cd2dc8cbf2e4efbd,,,,,,,,,,,,,,,,,,,,,,,l,1,6.9583,"[""0.125"",""0.191"",""0.579"",""0.733""]","[0,1,1,1]",0,21,21,21,1,1,0,,,1,FALSE,,,,,,,,,,,,,,,,,,,,,,,,,,,,,,
,5e9133f704391d46ee2bcb31,001,2022-04-28_21h11.41.627,classification_task,2021.2.3,Win32,60.81245439,5e9133f704391d46ee2bcb31,626b377229c10585ec392f89,626b3b17cd2dc8cbf2e4efbd,,,,,,,,,,,,,,,,,,,,,,,l,1,4.0889,"[""0.025"",""0.191"",""0.579"",""0.125""]","[1,1,1,0]",0,22,22,22,1,1,0,,,1,FALSE,,,,,,,,,,,,,,,,,,,,,,,,,,,,,,
,5e9133f704391d46ee2bcb31,001,2022-04-28_21h11.41.627,classification_task,2021.2.3,Win32,60.81245439,5e9133f704391d46ee2bcb31,626b377229c10585ec392f89,626b3b17cd2dc8cbf2e4efbd,,,,,,,,,,,,,,,,,,,,,,,l,1,4.6392,"[""0.085"",""0.289"",""0.481"",""0.141""]","[1,1,1,0]",0,23,23,23,1,1,1,,,1,FALSE,,,,,,,,,,,,,,,,,,,,,,,,,,,,,,
,5e9133f704391d46ee2bcb31,001,2022-04-28_21h11.41.627,classification_task,2021.2.3,Win32,60.81245439,5e9133f704391d46ee2bcb31,626b377229c10585ec392f89,626b3b17cd2dc8cbf2e4efbd,,,,,,,,,,,,,,,,,,,,,,,l,1,3.9556,"[""0.144"",""0.289"",""0.481"",""0.806""]","[0,1,1,1]",0,24,24,24,1,1,1,,,1,FALSE,,,,,,,,,,,,,,,,,,,,,,,,,,,,,,
,5e9133f704391d46ee2bcb31,001,2022-04-28_21h11.41.627,classification_task,2021.2.3,Win32,60.81245439,5e9133f704391d46ee2bcb31,626b377229c10585ec392f89,626b3b17cd2dc8cbf2e4efbd,,,,,,,,,,,,,,,,,,,,,,,l,1,3.4256,"[""0.085"",""0.154"",""0.481"",""0.806""]","[1,0,1,1]",0,25,25,25,1,1,1,,,1,FALSE,,,,,,,,,,,,,,,,,,,,,,,,,,,,,,
,5e9133f704391d46ee2bcb31,001,2022-04-28_21h11.41.627,classification_task,2021.2.3,Win32,60.81245439,5e9133f704391d46ee2bcb31,626b377229c10585ec392f89,626b3b17cd2dc8cbf2e4efbd,,,,,,,,,,,,,,,,,,,,,,,a,1,5.5262,"[""0.144"",""0.529"",""0.679"",""0.876""]","[0,1,1,1]",0,26,26,26,1,0,1,,,1,FALSE,,,,,,,,,,,,,,,,,,,,,,,,,,,,,,
,5e9133f704391d46ee2bcb31,001,2022-04-28_21h11.41.627,classification_task,2021.2.3,Win32,60.81245439,5e9133f704391d46ee2bcb31,626b377229c10585ec392f89,626b3b17cd2dc8cbf2e4efbd,,,,,,,,,,,,,,,,,,,,,,,a,1,4.9237,"[""0.324"",""0.529"",""0.679"",""0.124""]","[1,1,1,0]",0,27,27,27,1,0,1,,,1,FALSE,,,,,,,,,,,,,,,,,,,,,,,,,,,,,,
,5e9133f704391d46ee2bcb31,001,2022-04-28_21h11.41.627,classification_task,2021.2.3,Win32,60.81245439,5e9133f704391d46ee2bcb31,626b377229c10585ec392f89,626b3b17cd2dc8cbf2e4efbd,,,,,,,,,,,,,,,,,,,,,,,a,1,6.2258,"[""0.913"",""0.392"",""0.616"",""0.956""]","[0,1,1,1]",0,28,28,28,1,0,0,,,1,FALSE,,,,,,,,,,,,,,,,,,,,,,,,,,,,,,
,5e9133f704391d46ee2bcb31,001,2022-04-28_21h11.41.627,classification_task,2021.2.3,Win32,60.81245439,5e9133f704391d46ee2bcb31,626b377229c10585ec392f89,626b3b17cd2dc8cbf2e4efbd,,,,,,,,,,,,,,,,,,,,,,,a,1,4.5377,"[""0.324"",""0.529"",""0.770"",""0.876""]","[1,1,0,1]",0,29,29,29,1,0,1,,,1,FALSE,,,,,,,,,,,,,,,,,,,,,,,,,,,,,,
,5e9133f704391d46ee2bcb31,001,2022-04-28_21h11.41.627,classification_task,2021.2.3,Win32,60.81245439,5e9133f704391d46ee2bcb31,626b377229c10585ec392f89,626b3b17cd2dc8cbf2e4efbd,,,,,,,,,,,,,,,,,,,,,,,l,0,4.2916,"[""0.240"",""0.392"",""0.144"",""0.956""]","[1,1,0,1]",0,30,30,30,1,0,0,,,1,FALSE,,,,,,,,,,,,,,,,,,,,,,,,,,,,,,
,5e9133f704391d46ee2bcb31,001,2022-04-28_21h11.41.627,classification_task,2021.2.3,Win32,60.81245439,5e9133f704391d46ee2bcb31,626b377229c10585ec392f89,626b3b17cd2dc8cbf2e4efbd,,,,,,,,,,,,,,,,,,,,,,,a,1,3.7139,"[""0.240"",""0.392"",""0.616"",""0.137""]","[1,1,1,0]",0,31,31,31,1,0,0,,,1,FALSE,,,,,,,,,,,,,,,,,,,,,,,,,,,,,,
,5e9133f704391d46ee2bcb31,001,2022-04-28_21h11.41.627,classification_task,2021.2.3,Win32,60.81245439,5e9133f704391d46ee2bcb31,626b377229c10585ec392f89,626b3b17cd2dc8cbf2e4efbd,,,,,,,,,,,,,,,,,,,,,,,a,1,3.8194,"[""0.145"",""0.392"",""0.616"",""0.956""]","[0,1,1,1]",0,32,32,32,1,0,0,,,1,FALSE,,,,,,,,,,,,,,,,,,,,,,,,,,,,,,
,5e9133f704391d46ee2bcb31,001,2022-04-28_21h11.41.627,classification_task,2021.2.3,Win32,60.81245439,5e9133f704391d46ee2bcb31,626b377229c10585ec392f89,626b3b17cd2dc8cbf2e4efbd,,,,,,,,,,,,,,,,,,,,,,,a,1,3.2698,"[""0.324"",""0.529"",""0.679"",""0.141""]","[1,1,1,0]",0,33,33,33,1,0,1,,,1,FALSE,,,,,,,,,,,,,,,,,,,,,,,,,,,,,,
,5e9133f704391d46ee2bcb31,001,2022-04-28_21h11.41.627,classification_task,2021.2.3,Win32,60.81245439,5e9133f704391d46ee2bcb31,626b377229c10585ec392f89,626b3b17cd2dc8cbf2e4efbd,,,,,,,,,,,,,,,,,,,,,,,l,1,2.7585,"[""0.085"",""0.289"",""0.481"",""0.769""]","[1,1,1,0]",0,34,34,34,1,1,1,,,1,FALSE,,,,,,,,,,,,,,,,,,,,,,,,,,,,,,
,5e9133f704391d46ee2bcb31,001,2022-04-28_21h11.41.627,classification_task,2021.2.3,Win32,60.81245439,5e9133f704391d46ee2bcb31,626b377229c10585ec392f89,626b3b17cd2dc8cbf2e4efbd,,,,,,,,,,,,,,,,,,,,,,,a,0,2.8174,"[""0.124"",""0.191"",""0.579"",""0.733""]","[0,1,1,1]",0,35,35,35,1,1,0,,,1,FALSE,,,,,,,,,,,,,,,,,,,,,,,,,,,,,,
,5e9133f704391d46ee2bcb31,001,2022-04-28_21h11.41.627,classification_task,2021.2.3,Win32,60.81245439,5e9133f704391d46ee2bcb31,626b377229c10585ec392f89,626b3b17cd2dc8cbf2e4efbd,,,,,,,,,,,,,,,,,,,,,,,a,1,3.1416,"[""0.324"",""0.529"",""0.130"",""0.876""]","[1,1,0,1]",0,36,36,36,1,0,1,,,1,FALSE,,,,,,,,,,,,,,,,,,,,,,,,,,,,,,
,5e9133f704391d46ee2bcb31,001,2022-04-28_21h11.41.627,classification_task,2021.2.3,Win32,60.81245439,5e9133f704391d46ee2bcb31,626b377229c10585ec392f89,626b3b17cd2dc8cbf2e4efbd,,,,,,,,,,,,,,,,,,,,,,,a,1,3.3015,"[""0.240"",""0.392"",""0.616"",""0.144""]","[1,1,1,0]",0,37,37,37,1,0,0,,,1,FALSE,,,,,,,,,,,,,,,,,,,,,,,,,,,,,,
,5e9133f704391d46ee2bcb31,001,2022-04-28_21h11.41.627,classification_task,2021.2.3,Win32,60.81245439,5e9133f704391d46ee2bcb31,626b377229c10585ec392f89,626b3b17cd2dc8cbf2e4efbd,,,,,,,,,,,,,,,,,,,,,,,l,0,3.2967,"[""0.240"",""0.392"",""0.141"",""0.956""]","[1,1,0,1]",0,38,38,38,1,0,0,,,1,FALSE,,,,,,,,,,,,,,,,,,,,,,,,,,,,,,
,5e9133f704391d46ee2bcb31,001,2022-04-28_21h11.41.627,classification_task,2021.2.3,Win32,60.81245439,5e9133f704391d46ee2bcb31,626b377229c10585ec392f89,626b3b17cd2dc8cbf2e4efbd,,,,,,,,,,,,,,,,,,,,,,,l,1,2.0761,"[""0.025"",""0.191"",""0.913"",""0.733""]","[1,1,0,1]",0,39,39,39,1,1,0,,,1,FALSE,,,,,,,,,,,,,,,,,,,,,,,,,,,,,,
,5e9133f704391d46ee2bcb31,001,2022-04-28_21h11.41.627,classification_task,2021.2.3,Win32,60.81245439,5e9133f704391d46ee2bcb31,626b377229c10585ec392f89,626b3b17cd2dc8cbf2e4efbd,,,,,,,,,,,,,,,,,,,,,,,a,0,1.4347,"[""0.085"",""0.289"",""0.141"",""0.806""]","[1,1,0,1]",0,40,40,40,1,1,1,,,1,FALSE,,,,,,,,,,,,,,,,,,,,,,,,,,,,,,
,5e9133f704391d46ee2bcb31,001,2022-04-28_21h11.41.627,classification_task,2021.2.3,Win32,60.81245439,5e9133f704391d46ee2bcb31,626b377229c10585ec392f89,626b3b17cd2dc8cbf2e4efbd,,,,,,,,,,,,,,,,,,,,,,,l,1,1.4035,"[""0.085"",""0.141"",""0.481"",""0.806""]","[1,0,1,1]",0,41,41,41,1,1,1,,,1,FALSE,,,,,,,,,,,,,,,,,,,,,,,,,,,,,,
,5e9133f704391d46ee2bcb31,001,2022-04-28_21h11.41.627,classification_task,2021.2.3,Win32,60.81245439,5e9133f704391d46ee2bcb31,626b377229c10585ec392f89,626b3b17cd2dc8cbf2e4efbd,,,,,,,,,,,,,,,,,,,,,,,a,0,2.3867,"[""0.025"",""0.191"",""0.579"",""0.154""]","[1,1,1,0]",0,42,42,42,1,1,0,,,1,FALSE,,,,,,,,,,,,,,,,,,,,,,,,,,,,,,
,5e9133f704391d46ee2bcb31,001,2022-04-28_21h11.41.627,classification_task,2021.2.3,Win32,60.81245439,5e9133f704391d46ee2bcb31,626b377229c10585ec392f89,626b3b17cd2dc8cbf2e4efbd,,,,,,,,,,,,,,,,,,,,,,,a,0,2.011,"[""0.426"",""0.289"",""0.481"",""0.806""]","[0,1,1,1]",0,43,43,43,1,1,1,,,1,FALSE,,,,,,,,,,,,,,,,,,,,,,,,,,,,,,
,5e9133f704391d46ee2bcb31,001,2022-04-28_21h11.41.627,classification_task,2021.2.3,Win32,60.81245439,5e9133f704391d46ee2bcb31,626b377229c10585ec392f89,626b3b17cd2dc8cbf2e4efbd,,,,,,,,,,,,,,,,,,,,,,,a,1,2.6209,"[""0.324"",""0.124"",""0.679"",""0.876""]","[1,0,1,1]",0,44,44,44,1,0,1,,,1,FALSE,,,,,,,,,,,,,,,,,,,,,,,,,,,,,,
,5e9133f704391d46ee2bcb31,001,2022-04-28_21h11.41.627,classification_task,2021.2.3,Win32,60.81245439,5e9133f704391d46ee2bcb31,626b377229c10585ec392f89,626b3b17cd2dc8cbf2e4efbd,,,,,,,,,,,,,,,,,,,,,,,a,1,2.0667,"[""0.240"",""0.141"",""0.616"",""0.956""]","[1,0,1,1]",0,45,45,45,1,0,0,,,1,FALSE,,,,,,,,,,,,,,,,,,,,,,,,,,,,,,
,5e9133f704391d46ee2bcb31,001,2022-04-28_21h11.41.627,classification_task,2021.2.3,Win32,60.81245439,5e9133f704391d46ee2bcb31,626b377229c10585ec392f89,626b3b17cd2dc8cbf2e4efbd,,,,,,,,,,,,,,,,,,,,,,,a,0,2.81,"[""0.025"",""0.141"",""0.579"",""0.733""]","[1,0,1,1]",0,46,46,46,1,1,0,,,1,FALSE,,,,,,,,,,,,,,,,,,,,,,,,,,,,,,
,5e9133f704391d46ee2bcb31,001,2022-04-28_21h11.41.627,classification_task,2021.2.3,Win32,60.81245439,5e9133f704391d46ee2bcb31,626b377229c10585ec392f89,626b3b17cd2dc8cbf2e4efbd,,,,,,,,,,,,,,,,,,,,,,,a,1,1.1323,"[""0.154"",""0.529"",""0.679"",""0.876""]","[0,1,1,1]",0,47,47,47,1,0,1,,,1,FALSE,,,,,,,,,,,,,,,,,,,,,,,,,,,,,,
,5e9133f704391d46ee2bcb31,001,2022-04-28_21h11.41.627,classification_task,2021.2.3,Win32,60.81245439,5e9133f704391d46ee2bcb31,626b377229c10585ec392f89,626b3b17cd2dc8cbf2e4efbd,,,,,,,,,,,,,,,,,,,,,,,l,0,1.005,"[""0.240"",""0.392"",""0.137"",""0.956""]","[1,1,0,1]",0,48,48,48,1,0,0,,,1,FALSE,,,,,,,,,,,,,,,,,,,,,,,,,,,,,,
,5e9133f704391d46ee2bcb31,001,2022-04-28_21h11.41.627,classification_task,2021.2.3,Win32,60.81245439,5e9133f704391d46ee2bcb31,626b377229c10585ec392f89,626b3b17cd2dc8cbf2e4efbd,,,,,,,,,,,,,,,,,,,,,,,l,0,2.5666,"[""0.324"",""0.529"",""0.679"",""0.121""]","[1,1,1,0]",0,49,49,49,1,0,1,,,1,FALSE,,,,,,,,,,,,,,,,,,,,,,,,,,,,,,
,5e9133f704391d46ee2bcb31,001,2022-04-28_21h11.41.627,classification_task,2021.2.3,Win32,60.81245439,5e9133f704391d46ee2bcb31,626b377229c10585ec392f89,626b3b17cd2dc8cbf2e4efbd,,,,,,,,,,,,,,,,,,,,,,,a,0,3.1643,"[""0.025"",""0.191"",""0.579"",""0.145""]","[1,1,1,0]",0,50,50,50,1,1,0,,,1,FALSE,,,,,,,,,,,,,,,,,,,,,,,,,,,,,,
,5e9133f704391d46ee2bcb31,001,2022-04-28_21h11.41.627,classification_task,2021.2.3,Win32,60.81245439,5e9133f704391d46ee2bcb31,626b377229c10585ec392f89,626b3b17cd2dc8cbf2e4efbd,,,,,,,,,,,,,,,,,,,,,,,a,1,1.929,"[""0.240"",""0.392"",""0.616"",""0.137""]","[1,1,1,0]",0,51,51,51,1,0,0,,,1,FALSE,,,,,,,,,,,,,,,,,,,,,,,,,,,,,,
,5e9133f704391d46ee2bcb31,001,2022-04-28_21h11.41.627,classification_task,2021.2.3,Win32,60.81245439,5e9133f704391d46ee2bcb31,626b377229c10585ec392f89,626b3b17cd2dc8cbf2e4efbd,,,,,,,,,,,,,,,,,,,,,,,a,1,2.7654,"[""0.324"",""0.121"",""0.679"",""0.876""]","[1,0,1,1]",0,52,52,52,1,0,1,,,1,FALSE,,,,,,,,,,,,,,,,,,,,,,,,,,,,,,
,5e9133f704391d46ee2bcb31,001,2022-04-28_21h11.41.627,classification_task,2021.2.3,Win32,60.81245439,5e9133f704391d46ee2bcb31,626b377229c10585ec392f89,626b3b17cd2dc8cbf2e4efbd,,,,,,,,,,,,,,,,,,,,,,,l,1,1.9817,"[""0.025"",""0.145"",""0.579"",""0.733""]","[1,0,1,1]",0,53,53,53,1,1,0,,,1,FALSE,,,,,,,,,,,,,,,,,,,,,,,,,,,,,,
,5e9133f704391d46ee2bcb31,001,2022-04-28_21h11.41.627,classification_task,2021.2.3,Win32,60.81245439,5e9133f704391d46ee2bcb31,626b377229c10585ec392f89,626b3b17cd2dc8cbf2e4efbd,,,,,,,,,,,,,,,,,,,,,,,a,1,0.9266,"[""0.324"",""0.529"",""0.145"",""0.876""]","[1,1,0,1]",0,54,54,54,1,0,1,,,1,FALSE,,,,,,,,,,,,,,,,,,,,,,,,,,,,,,
,5e9133f704391d46ee2bcb31,001,2022-04-28_21h11.41.627,classification_task,2021.2.3,Win32,60.81245439,5e9133f704391d46ee2bcb31,626b377229c10585ec392f89,626b3b17cd2dc8cbf2e4efbd,,,,,,,,,,,,,,,,,,,,,,,a,0,0.7714,"[""0.085"",""0.289"",""0.481"",""0.121""]","[1,1,1,0]",0,55,55,55,1,1,1,,,1,FALSE,,,,,,,,,,,,,,,,,,,,,,,,,,,,,,
,5e9133f704391d46ee2bcb31,001,2022-04-28_21h11.41.627,classification_task,2021.2.3,Win32,60.81245439,5e9133f704391d46ee2bcb31,626b377229c10585ec392f89,626b3b17cd2dc8cbf2e4efbd,,,,,,,,,,,,,,,,,,,,,,,a,0,0.9499,"[""0.125"",""0.191"",""0.579"",""0.733""]","[0,1,1,1]",0,56,56,56,1,1,0,,,1,FALSE,,,,,,,,,,,,,,,,,,,,,,,,,,,,,,
,5e9133f704391d46ee2bcb31,001,2022-04-28_21h11.41.627,classification_task,2021.2.3,Win32,60.81245439,5e9133f704391d46ee2bcb31,626b377229c10585ec392f89,626b3b17cd2dc8cbf2e4efbd,,,,,,,,,,,,,,,,,,,,,,,l,1,0.8663,"[""0.085"",""0.289"",""0.145"",""0.806""]","[1,1,0,1]",0,57,57,57,1,1,1,,,1,FALSE,,,,,,,,,,,,,,,,,,,,,,,,,,,,,,
,5e9133f704391d46ee2bcb31,001,2022-04-28_21h11.41.627,classification_task,2021.2.3,Win32,60.81245439,5e9133f704391d46ee2bcb31,626b377229c10585ec392f89,626b3b17cd2dc8cbf2e4efbd,,,,,,,,,,,,,,,,,,,,,,,l,0,1.9294,"[""0.137"",""0.529"",""0.679"",""0.876""]","[0,1,1,1]",0,58,58,58,1,0,1,,,1,FALSE,,,,,,,,,,,,,,,,,,,,,,,,,,,,,,
,5e9133f704391d46ee2bcb31,001,2022-04-28_21h11.41.627,classification_task,2021.2.3,Win32,60.81245439,5e9133f704391d46ee2bcb31,626b377229c10585ec392f89,626b3b17cd2dc8cbf2e4efbd,,,,,,,,,,,,,,,,,,,,,,,l,1,0.8652,"[""0.145"",""0.289"",""0.481"",""0.806""]","[0,1,1,1]",0,59,59,59,1,1,1,,,1,FALSE,,,,,,,,,,,,,,,,,,,,,,,,,,,,,,
,5e9133f704391d46ee2bcb31,001,2022-04-28_21h11.41.627,classification_task,2021.2.3,Win32,60.81245439,5e9133f704391d46ee2bcb31,626b377229c10585ec392f89,626b3b17cd2dc8cbf2e4efbd,,,,,,,,,,,,,,,,,,,,,,,a,1,1.6653,"[""0.240"",""0.137"",""0.616"",""0.956""]","[1,0,1,1]",0,60,60,60,1,0,0,,,1,FALSE,,,,,,,,,,,,,,,,,,,,,,,,,,,,,,
,5e9133f704391d46ee2bcb31,001,2022-04-28_21h11.41.627,classification_task,2021.2.3,Win32,60.81245439,5e9133f704391d46ee2bcb31,626b377229c10585ec392f89,626b3b17cd2dc8cbf2e4efbd,,,,,,,,,,,,,,,,,,,,,,,a,0,0.7832,"[""0.085"",""0.154"",""0.481"",""0.806""]","[1,0,1,1]",0,61,61,61,1,1,1,,,1,FALSE,,,,,,,,,,,,,,,,,,,,,,,,,,,,,,
,5e9133f704391d46ee2bcb31,001,2022-04-28_21h11.41.627,classification_task,2021.2.3,Win32,60.81245439,5e9133f704391d46ee2bcb31,626b377229c10585ec392f89,626b3b17cd2dc8cbf2e4efbd,,,,,,,,,,,,,,,,,,,,,,,a,0,0.6997,"[""0.025"",""0.191"",""0.130"",""0.733""]","[1,1,0,1]",0,62,62,62,1,1,0,,,1,FALSE,,,,,,,,,,,,,,,,,,,,,,,,,,,,,,
,5e9133f704391d46ee2bcb31,001,2022-04-28_21h11.41.627,classification_task,2021.2.3,Win32,60.81245439,5e9133f704391d46ee2bcb31,626b377229c10585ec392f89,626b3b17cd2dc8cbf2e4efbd,,,,,,,,,,,,,,,,,,,,,,,l,0,0.8999,"[""0.124"",""0.392"",""0.616"",""0.956""]","[0,1,1,1]",0,63,63,63,1,0,0,,,1,FALSE,,,,,,,,,,,,,,,,,,,,,,,,,,,,,,
,5e9133f704391d46ee2bcb31,001,2022-04-28_21h11.41.627,classification_task,2021.2.3,Win32,60.81245439,5e9133f704391d46ee2bcb31,626b377229c10585ec392f89,626b3b17cd2dc8cbf2e4efbd,,,,,,,,,,,,,,,,,,,,,,,,,,,,,,,,,,,,,,,0, ,,0,4.965553351,450.8578,0,0,0,0,1,2,1,,,,,,,,,,,,,,,,,
,5e9133f704391d46ee2bcb31,001,2022-04-28_21h11.41.627,classification_task,2021.2.3,Win32,60.81245439,5e9133f704391d46ee2bcb31,626b377229c10585ec392f89,626b3b17cd2dc8cbf2e4efbd,,,,,,,,,,,,,,,,,,,,,,,,,,,,,,,,,,,,,,,1,  ,,0,6.136739418,441.8085,0,0,0,0,1,2,1,,,,,,,,,,,,,,,,,
,5e9133f704391d46ee2bcb31,001,2022-04-28_21h11.41.627,classification_task,2021.2.3,Win32,60.81245439,5e9133f704391d46ee2bcb31,626b377229c10585ec392f89,626b3b17cd2dc8cbf2e4efbd,,,,,,,,,,,,,,,,,,,,,,,,,,,,,,,,,,,,,,,2,  ,,0,1.79646164,446.6645,0,0,0,0,1,2,1,,,,,,,,,,,,,,,,,
,5e9133f704391d46ee2bcb31,001,2022-04-28_21h11.41.627,classification_task,2021.2.3,Win32,60.81245439,5e9133f704391d46ee2bcb31,626b377229c10585ec392f89,626b3b17cd2dc8cbf2e4efbd,,,,,,,,,,,,,,,,,,,,,,,,,,,,,,,,,,,,,,,,,,,,,0,0,0,0,1,,1,,,,,,,,,,,,,,,,,
,5e9133f704391d46ee2bcb31,001,2022-04-28_21h11.41.627,classification_task,2021.2.3,Win32,60.81245439,5e9133f704391d46ee2bcb31,626b377229c10585ec392f89,626b3b17cd2dc8cbf2e4efbd,,,,,,,,,,,,,,,,,,,,,space,15.7592,l,1,2.0054,"[""0.025"",""0.144"",""0.579"",""0.733""]","[1,0,1,1]",0,0,0,0,1,1,0,,,1,FALSE,,,,,,,,,,,,,,,,,,,,,,,,,,,,,,
,5e9133f704391d46ee2bcb31,001,2022-04-28_21h11.41.627,classification_task,2021.2.3,Win32,60.81245439,5e9133f704391d46ee2bcb31,626b377229c10585ec392f89,626b3b17cd2dc8cbf2e4efbd,,,,,,,,,,,,,,,,,,,,,,,a,1,1.6985,"[""0.324"",""0.529"",""0.679"",""0.769""]","[1,1,1,0]",0,1,1,1,1,0,1,,,1,FALSE,,,,,,,,,,,,,,,,,,,,,,,,,,,,,,
,5e9133f704391d46ee2bcb31,001,2022-04-28_21h11.41.627,classification_task,2021.2.3,Win32,60.81245439,5e9133f704391d46ee2bcb31,626b377229c10585ec392f89,626b3b17cd2dc8cbf2e4efbd,,,,,,,,,,,,,,,,,,,,,,,l,0,2.6036,"[""0.324"",""0.529"",""0.144"",""0.876""]","[1,1,0,1]",0,2,2,2,1,0,1,,,1,FALSE,,,,,,,,,,,,,,,,,,,,,,,,,,,,,,
,5e9133f704391d46ee2bcb31,001,2022-04-28_21h11.41.627,classification_task,2021.2.3,Win32,60.81245439,5e9133f704391d46ee2bcb31,626b377229c10585ec392f89,626b3b17cd2dc8cbf2e4efbd,,,,,,,,,,,,,,,,,,,,,,,a,1,0.7756,"[""0.121"",""0.529"",""0.679"",""0.876""]","[0,1,1,1]",0,3,3,3,1,0,1,,,1,FALSE,,,,,,,,,,,,,,,,,,,,,,,,,,,,,,
,5e9133f704391d46ee2bcb31,001,2022-04-28_21h11.41.627,classification_task,2021.2.3,Win32,60.81245439,5e9133f704391d46ee2bcb31,626b377229c10585ec392f89,626b3b17cd2dc8cbf2e4efbd,,,,,,,,,,,,,,,,,,,,,,,l,1,0.9998,"[""0.769"",""0.289"",""0.481"",""0.806""]","[0,1,1,1]",0,4,4,4,1,1,1,,,1,FALSE,,,,,,,,,,,,,,,,,,,,,,,,,,,,,,
,5e9133f704391d46ee2bcb31,001,2022-04-28_21h11.41.627,classification_task,2021.2.3,Win32,60.81245439,5e9133f704391d46ee2bcb31,626b377229c10585ec392f89,626b3b17cd2dc8cbf2e4efbd,,,,,,,,,,,,,,,,,,,,,,,a,0,1.9534,"[""0.025"",""0.191"",""0.579"",""0.130""]","[1,1,1,0]",0,5,5,5,1,1,0,,,1,FALSE,,,,,,,,,,,,,,,,,,,,,,,,,,,,,,
,5e9133f704391d46ee2bcb31,001,2022-04-28_21h11.41.627,classification_task,2021.2.3,Win32,60.81245439,5e9133f704391d46ee2bcb31,626b377229c10585ec392f89,626b3b17cd2dc8cbf2e4efbd,,,,,,,,,,,,,,,,,,,,,,,l,1,1.0233,"[""0.085"",""0.289"",""0.913"",""0.806""]","[1,1,0,1]",0,6,6,6,1,1,1,,,1,FALSE,,,,,,,,,,,,,,,,,,,,,,,,,,,,,,
,5e9133f704391d46ee2bcb31,001,2022-04-28_21h11.41.627,classification_task,2021.2.3,Win32,60.81245439,5e9133f704391d46ee2bcb31,626b377229c10585ec392f89,626b3b17cd2dc8cbf2e4efbd,,,,,,,,,,,,,,,,,,,,,,,l,0,1.737,"[""0.240"",""0.392"",""0.616"",""0.770""]","[1,1,1,0]",0,7,7,7,1,0,0,,,1,FALSE,,,,,,,,,,,,,,,,,,,,,,,,,,,,,,
,5e9133f704391d46ee2bcb31,001,2022-04-28_21h11.41.627,classification_task,2021.2.3,Win32,60.81245439,5e9133f704391d46ee2bcb31,626b377229c10585ec392f89,626b3b17cd2dc8cbf2e4efbd,,,,,,,,,,,,,,,,,,,,,,,a,1,0.8394,"[""0.324"",""0.154"",""0.679"",""0.876""]","[1,0,1,1]",0,8,8,8,1,0,1,,,1,FALSE,,,,,,,,,,,,,,,,,,,,,,,,,,,,,,
,5e9133f704391d46ee2bcb31,001,2022-04-28_21h11.41.627,classification_task,2021.2.3,Win32,60.81245439,5e9133f704391d46ee2bcb31,626b377229c10585ec392f89,626b3b17cd2dc8cbf2e4efbd,,,,,,,,,,,,,,,,,,,,,,,a,0,1.0488,"[""0.085"",""0.289"",""0.481"",""0.130""]","[1,1,1,0]",0,9,9,9,1,1,1,,,1,FALSE,,,,,,,,,,,,,,,,,,,,,,,,,,,,,,
,5e9133f704391d46ee2bcb31,001,2022-04-28_21h11.41.627,classification_task,2021.2.3,Win32,60.81245439,5e9133f704391d46ee2bcb31,626b377229c10585ec392f89,626b3b17cd2dc8cbf2e4efbd,,,,,,,,,,,,,,,,,,,,,,,l,0,2.0506,"[""0.240"",""0.154"",""0.616"",""0.956""]","[1,0,1,1]",0,10,10,10,1,0,0,,,1,FALSE,,,,,,,,,,,,,,,,,,,,,,,,,,,,,,
,5e9133f704391d46ee2bcb31,001,2022-04-28_21h11.41.627,classification_task,2021.2.3,Win32,60.81245439,5e9133f704391d46ee2bcb31,626b377229c10585ec392f89,626b3b17cd2dc8cbf2e4efbd,,,,,,,,,,,,,,,,,,,,,,,a,1,1.2854,"[""0.913"",""0.392"",""0.616"",""0.956""]","[0,1,1,1]",0,11,11,11,1,0,0,,,1,FALSE,,,,,,,,,,,,,,,,,,,,,,,,,,,,,,
,5e9133f704391d46ee2bcb31,001,2022-04-28_21h11.41.627,classification_task,2021.2.3,Win32,60.81245439,5e9133f704391d46ee2bcb31,626b377229c10585ec392f89,626b3b17cd2dc8cbf2e4efbd,,,,,,,,,,,,,,,,,,,,,,,l,0,3.9739,"[""0.240"",""0.392"",""0.426"",""0.956""]","[1,1,0,1]",0,12,12,12,1,0,0,,,1,FALSE,,,,,,,,,,,,,,,,,,,,,,,,,,,,,,
,5e9133f704391d46ee2bcb31,001,2022-04-28_21h11.41.627,classification_task,2021.2.3,Win32,60.81245439,5e9133f704391d46ee2bcb31,626b377229c10585ec392f89,626b3b17cd2dc8cbf2e4efbd,,,,,,,,,,,,,,,,,,,,,,,l,1,2.4666,"[""0.141"",""0.191"",""0.579"",""0.733""]","[0,1,1,1]",0,13,13,13,1,1,0,,,1,FALSE,,,,,,,,,,,,,,,,,,,,,,,,,,,,,,
,5e9133f704391d46ee2bcb31,001,2022-04-28_21h11.41.627,classification_task,2021.2.3,Win32,60.81245439,5e9133f704391d46ee2bcb31,626b377229c10585ec392f89,626b3b17cd2dc8cbf2e4efbd,,,,,,,,,,,,,,,,,,,,,,,l,1,1.7938,"[""0.025"",""0.191"",""0.141"",""0.733""]","[1,1,0,1]",0,14,14,14,1,1,0,,,1,FALSE,,,,,,,,,,,,,,,,,,,,,,,,,,,,,,
,5e9133f704391d46ee2bcb31,001,2022-04-28_21h11.41.627,classification_task,2021.2.3,Win32,60.81245439,5e9133f704391d46ee2bcb31,626b377229c10585ec392f89,626b3b17cd2dc8cbf2e4efbd,,,,,,,,,,,,,,,,,,,,,,,l,1,4.6259,"[""0.085"",""0.770"",""0.481"",""0.806""]","[1,0,1,1]",0,15,15,15,1,1,1,,,1,FALSE,,,,,,,,,,,,,,,,,,,,,,,,,,,,,,
,5e9133f704391d46ee2bcb31,001,2022-04-28_21h11.41.627,classification_task,2021.2.3,Win32,60.81245439,5e9133f704391d46ee2bcb31,626b377229c10585ec392f89,626b3b17cd2dc8cbf2e4efbd,,,,,,,,,,,,,,,,,,,,,,,a,0,3.1243,"[""0.025"",""0.191"",""0.426"",""0.733""]","[1,1,0,1]",0,16,16,16,1,1,0,,,1,FALSE,,,,,,,,,,,,,,,,,,,,,,,,,,,,,,
,5e9133f704391d46ee2bcb31,001,2022-04-28_21h11.41.627,classification_task,2021.2.3,Win32,60.81245439,5e9133f704391d46ee2bcb31,626b377229c10585ec392f89,626b3b17cd2dc8cbf2e4efbd,,,,,,,,,,,,,,,,,,,,,,,l,1,4.0987,"[""0.025"",""0.191"",""0.579"",""0.769""]","[1,1,1,0]",0,17,17,17,1,1,0,,,1,FALSE,,,,,,,,,,,,,,,,,,,,,,,,,,,,,,
,5e9133f704391d46ee2bcb31,001,2022-04-28_21h11.41.627,classification_task,2021.2.3,Win32,60.81245439,5e9133f704391d46ee2bcb31,626b377229c10585ec392f89,626b3b17cd2dc8cbf2e4efbd,,,,,,,,,,,,,,,,,,,,,,,a,1,2.4439,"[""0.240"",""0.144"",""0.616"",""0.956""]","[1,0,1,1]",0,18,18,18,1,0,0,,,1,FALSE,,,,,,,,,,,,,,,,,,,,,,,,,,,,,,
,5e9133f704391d46ee2bcb31,001,2022-04-28_21h11.41.627,classification_task,2021.2.3,Win32,60.81245439,5e9133f704391d46ee2bcb31,626b377229c10585ec392f89,626b3b17cd2dc8cbf2e4efbd,,,,,,,,,,,,,,,,,,,,,,,a,1,2.5114,"[""0.324"",""0.529"",""0.679"",""0.141""]","[1,1,1,0]",0,19,19,19,1,0,1,,,1,FALSE,,,,,,,,,,,,,,,,,,,,,,,,,,,,,,
,5e9133f704391d46ee2bcb31,001,2022-04-28_21h11.41.627,classification_task,2021.2.3,Win32,60.81245439,5e9133f704391d46ee2bcb31,626b377229c10585ec392f89,626b3b17cd2dc8cbf2e4efbd,,,,,,,,,,,,,,,,,,,,,,,a,0,2.0594,"[""0.085"",""0.289"",""0.770"",""0.806""]","[1,1,0,1]",0,20,20,20,1,1,1,,,1,FALSE,,,,,,,,,,,,,,,,,,,,,,,,,,,,,,
,5e9133f704391d46ee2bcb31,001,2022-04-28_21h11.41.627,classification_task,2021.2.3,Win32,60.81245439,5e9133f704391d46ee2bcb31,626b377229c10585ec392f89,626b3b17cd2dc8cbf2e4efbd,,,,,,,,,,,,,,,,,,,,,,,l,1,1.6099,"[""0.144"",""0.191"",""0.579"",""0.733""]","[0,1,1,1]",0,21,21,21,1,1,0,,,1,FALSE,,,,,,,,,,,,,,,,,,,,,,,,,,,,,,
,5e9133f704391d46ee2bcb31,001,2022-04-28_21h11.41.627,classification_task,2021.2.3,Win32,60.81245439,5e9133f704391d46ee2bcb31,626b377229c10585ec392f89,626b3b17cd2dc8cbf2e4efbd,,,,,,,,,,,,,,,,,,,,,,,a,0,2.9961,"[""0.769"",""0.289"",""0.481"",""0.806""]","[0,1,1,1]",0,22,22,22,1,1,1,,,1,FALSE,,,,,,,,,,,,,,,,,,,,,,,,,,,,,,
,5e9133f704391d46ee2bcb31,001,2022-04-28_21h11.41.627,classification_task,2021.2.3,Win32,60.81245439,5e9133f704391d46ee2bcb31,626b377229c10585ec392f89,626b3b17cd2dc8cbf2e4efbd,,,,,,,,,,,,,,,,,,,,,,,a,0,2.6423,"[""0.025"",""0.144"",""0.579"",""0.733""]","[1,0,1,1]",0,23,23,23,1,1,0,,,1,FALSE,,,,,,,,,,,,,,,,,,,,,,,,,,,,,,
,5e9133f704391d46ee2bcb31,001,2022-04-28_21h11.41.627,classification_task,2021.2.3,Win32,60.81245439,5e9133f704391d46ee2bcb31,626b377229c10585ec392f89,626b3b17cd2dc8cbf2e4efbd,,,,,,,,,,,,,,,,,,,,,,,l,0,6.2013,"[""0.240"",""0.392"",""0.769"",""0.956""]","[1,1,0,1]",0,24,24,24,1,0,0,,,1,FALSE,,,,,,,,,,,,,,,,,,,,,,,,,,,,,,
,5e9133f704391d46ee2bcb31,001,2022-04-28_21h11.41.627,classification_task,2021.2.3,Win32,60.81245439,5e9133f704391d46ee2bcb31,626b377229c10585ec392f89,626b3b17cd2dc8cbf2e4efbd,,,,,,,,,,,,,,,,,,,,,,,a,1,1.0673,"[""0.240"",""0.392"",""0.616"",""0.770""]","[1,1,1,0]",0,25,25,25,1,0,0,,,1,FALSE,,,,,,,,,,,,,,,,,,,,,,,,,,,,,,
,5e9133f704391d46ee2bcb31,001,2022-04-28_21h11.41.627,classification_task,2021.2.3,Win32,60.81245439,5e9133f704391d46ee2bcb31,626b377229c10585ec392f89,626b3b17cd2dc8cbf2e4efbd,,,,,,,,,,,,,,,,,,,,,,,l,1,2.9272,"[""0.085"",""0.289"",""0.481"",""0.137""]","[1,1,1,0]",0,26,26,26,1,1,1,,,1,FALSE,,,,,,,,,,,,,,,,,,,,,,,,,,,,,,
,5e9133f704391d46ee2bcb31,001,2022-04-28_21h11.41.627,classification_task,2021.2.3,Win32,60.81245439,5e9133f704391d46ee2bcb31,626b377229c10585ec392f89,626b3b17cd2dc8cbf2e4efbd,,,,,,,,,,,,,,,,,,,,,,,a,1,0.9996,"[""0.137"",""0.529"",""0.679"",""0.876""]","[0,1,1,1]",0,27,27,27,1,0,1,,,1,FALSE,,,,,,,,,,,,,,,,,,,,,,,,,,,,,,
,5e9133f704391d46ee2bcb31,001,2022-04-28_21h11.41.627,classification_task,2021.2.3,Win32,60.81245439,5e9133f704391d46ee2bcb31,626b377229c10585ec392f89,626b3b17cd2dc8cbf2e4efbd,,,,,,,,,,,,,,,,,,,,,,,l,0,2.5495,"[""0.144"",""0.392"",""0.616"",""0.956""]","[0,1,1,1]",0,28,28,28,1,0,0,,,1,FALSE,,,,,,,,,,,,,,,,,,,,,,,,,,,,,,
,5e9133f704391d46ee2bcb31,001,2022-04-28_21h11.41.627,classification_task,2021.2.3,Win32,60.81245439,5e9133f704391d46ee2bcb31,626b377229c10585ec392f89,626b3b17cd2dc8cbf2e4efbd,,,,,,,,,,,,,,,,,,,,,,,a,1,2.5712,"[""0.324"",""0.154"",""0.679"",""0.876""]","[1,0,1,1]",0,29,29,29,1,0,1,,,1,FALSE,,,,,,,,,,,,,,,,,,,,,,,,,,,,,,
,5e9133f704391d46ee2bcb31,001,2022-04-28_21h11.41.627,classification_task,2021.2.3,Win32,60.81245439,5e9133f704391d46ee2bcb31,626b377229c10585ec392f89,626b3b17cd2dc8cbf2e4efbd,,,,,,,,,,,,,,,,,,,,,,,l,0,1.4329,"[""0.324"",""0.529"",""0.919"",""0.876""]","[1,1,0,1]",0,30,30,30,1,0,1,,,1,FALSE,,,,,,,,,,,,,,,,,,,,,,,,,,,,,,
,5e9133f704391d46ee2bcb31,001,2022-04-28_21h11.41.627,classification_task,2021.2.3,Win32,60.81245439,5e9133f704391d46ee2bcb31,626b377229c10585ec392f89,626b3b17cd2dc8cbf2e4efbd,,,,,,,,,,,,,,,,,,,,,,,l,1,2.0478,"[""0.085"",""0.124"",""0.481"",""0.806""]","[1,0,1,1]",0,31,31,31,1,1,1,,,1,FALSE,,,,,,,,,,,,,,,,,,,,,,,,,,,,,,
,5e9133f704391d46ee2bcb31,001,2022-04-28_21h11.41.627,classification_task,2021.2.3,Win32,60.81245439,5e9133f704391d46ee2bcb31,626b377229c10585ec392f89,626b3b17cd2dc8cbf2e4efbd,,,,,,,,,,,,,,,,,,,,,,,a,1,2.0268,"[""0.324"",""0.141"",""0.679"",""0.876""]","[1,0,1,1]",0,32,32,32,1,0,1,,,1,FALSE,,,,,,,,,,,,,,,,,,,,,,,,,,,,,,
,5e9133f704391d46ee2bcb31,001,2022-04-28_21h11.41.627,classification_task,2021.2.3,Win32,60.81245439,5e9133f704391d46ee2bcb31,626b377229c10585ec392f89,626b3b17cd2dc8cbf2e4efbd,,,,,,,,,,,,,,,,,,,,,,,l,1,1.6788,"[""0.085"",""0.144"",""0.481"",""0.806""]","[1,0,1,1]",0,33,33,33,1,1,1,,,1,FALSE,,,,,,,,,,,,,,,,,,,,,,,,,,,,,,
,5e9133f704391d46ee2bcb31,001,2022-04-28_21h11.41.627,classification_task,2021.2.3,Win32,60.81245439,5e9133f704391d46ee2bcb31,626b377229c10585ec392f89,626b3b17cd2dc8cbf2e4efbd,,,,,,,,,,,,,,,,,,,,,,,a,0,3.8419,"[""0.025"",""0.145"",""0.579"",""0.733""]","[1,0,1,1]",0,34,34,34,1,1,0,,,1,FALSE,,,,,,,,,,,,,,,,,,,,,,,,,,,,,,
,5e9133f704391d46ee2bcb31,001,2022-04-28_21h11.41.627,classification_task,2021.2.3,Win32,60.81245439,5e9133f704391d46ee2bcb31,626b377229c10585ec392f89,626b3b17cd2dc8cbf2e4efbd,,,,,,,,,,,,,,,,,,,,,,,a,1,3.0262,"[""0.324"",""0.529"",""0.919"",""0.876""]","[1,1,0,1]",0,35,35,35,1,0,1,,,1,FALSE,,,,,,,,,,,,,,,,,,,,,,,,,,,,,,
,5e9133f704391d46ee2bcb31,001,2022-04-28_21h11.41.627,classification_task,2021.2.3,Win32,60.81245439,5e9133f704391d46ee2bcb31,626b377229c10585ec392f89,626b3b17cd2dc8cbf2e4efbd,,,,,,,,,,,,,,,,,,,,,,,l,0,3.2262,"[""0.154"",""0.392"",""0.616"",""0.956""]","[0,1,1,1]",0,36,36,36,1,0,0,,,1,FALSE,,,,,,,,,,,,,,,,,,,,,,,,,,,,,,
,5e9133f704391d46ee2bcb31,001,2022-04-28_21h11.41.627,classification_task,2021.2.3,Win32,60.81245439,5e9133f704391d46ee2bcb31,626b377229c10585ec392f89,626b3b17cd2dc8cbf2e4efbd,,,,,,,,,,,,,,,,,,,,,,,a,0,2.814,"[""0.085"",""0.289"",""0.481"",""0.121""]","[1,1,1,0]",0,37,37,37,1,1,1,,,1,FALSE,,,,,,,,,,,,,,,,,,,,,,,,,,,,,,
,5e9133f704391d46ee2bcb31,001,2022-04-28_21h11.41.627,classification_task,2021.2.3,Win32,60.81245439,5e9133f704391d46ee2bcb31,626b377229c10585ec392f89,626b3b17cd2dc8cbf2e4efbd,,,,,,,,,,,,,,,,,,,,,,,a,1,2.7084,"[""0.240"",""0.770"",""0.616"",""0.956""]","[1,0,1,1]",0,38,38,38,1,0,0,,,1,FALSE,,,,,,,,,,,,,,,,,,,,,,,,,,,,,,
,5e9133f704391d46ee2bcb31,001,2022-04-28_21h11.41.627,classification_task,2021.2.3,Win32,60.81245439,5e9133f704391d46ee2bcb31,626b377229c10585ec392f89,626b3b17cd2dc8cbf2e4efbd,,,,,,,,,,,,,,,,,,,,,,,l,1,2.613,"[""0.025"",""0.191"",""0.130"",""0.733""]","[1,1,0,1]",0,39,39,39,1,1,0,,,1,FALSE,,,,,,,,,,,,,,,,,,,,,,,,,,,,,,
,5e9133f704391d46ee2bcb31,001,2022-04-28_21h11.41.627,classification_task,2021.2.3,Win32,60.81245439,5e9133f704391d46ee2bcb31,626b377229c10585ec392f89,626b3b17cd2dc8cbf2e4efbd,,,,,,,,,,,,,,,,,,,,,,,l,1,1.7612,"[""0.025"",""0.191"",""0.579"",""0.124""]","[1,1,1,0]",0,40,40,40,1,1,0,,,1,FALSE,,,,,,,,,,,,,,,,,,,,,,,,,,,,,,
,5e9133f704391d46ee2bcb31,001,2022-04-28_21h11.41.627,classification_task,2021.2.3,Win32,60.81245439,5e9133f704391d46ee2bcb31,626b377229c10585ec392f89,626b3b17cd2dc8cbf2e4efbd,,,,,,,,,,,,,,,,,,,,,,,a,1,1.4957,"[""0.324"",""0.529"",""0.679"",""0.919""]","[1,1,1,0]",0,41,41,41,1,0,1,,,1,FALSE,,,,,,,,,,,,,,,,,,,,,,,,,,,,,,
,5e9133f704391d46ee2bcb31,001,2022-04-28_21h11.41.627,classification_task,2021.2.3,Win32,60.81245439,5e9133f704391d46ee2bcb31,626b377229c10585ec392f89,626b3b17cd2dc8cbf2e4efbd,,,,,,,,,,,,,,,,,,,,,,,l,0,5.3066,"[""0.769"",""0.529"",""0.679"",""0.876""]","[0,1,1,1]",0,42,42,42,1,0,1,,,1,FALSE,,,,,,,,,,,,,,,,,,,,,,,,,,,,,,
,5e9133f704391d46ee2bcb31,001,2022-04-28_21h11.41.627,classification_task,2021.2.3,Win32,60.81245439,5e9133f704391d46ee2bcb31,626b377229c10585ec392f89,626b3b17cd2dc8cbf2e4efbd,,,,,,,,,,,,,,,,,,,,,,,l,1,3.1316,"[""0.154"",""0.289"",""0.481"",""0.806""]","[0,1,1,1]",0,43,43,43,1,1,1,,,1,FALSE,,,,,,,,,,,,,,,,,,,,,,,,,,,,,,
,5e9133f704391d46ee2bcb31,001,2022-04-28_21h11.41.627,classification_task,2021.2.3,Win32,60.81245439,5e9133f704391d46ee2bcb31,626b377229c10585ec392f89,626b3b17cd2dc8cbf2e4efbd,,,,,,,,,,,,,,,,,,,,,,,l,1,2.477,"[""0.085"",""0.289"",""0.124"",""0.806""]","[1,1,0,1]",0,44,44,44,1,1,1,,,1,FALSE,,,,,,,,,,,,,,,,,,,,,,,,,,,,,,
,5e9133f704391d46ee2bcb31,001,2022-04-28_21h11.41.627,classification_task,2021.2.3,Win32,60.81245439,5e9133f704391d46ee2bcb31,626b377229c10585ec392f89,626b3b17cd2dc8cbf2e4efbd,,,,,,,,,,,,,,,,,,,,,,,a,0,6.1328,"[""0.124"",""0.191"",""0.579"",""0.733""]","[0,1,1,1]",0,45,45,45,1,1,0,,,1,FALSE,,,,,,,,,,,,,,,,,,,,,,,,,,,,,,
,5e9133f704391d46ee2bcb31,001,2022-04-28_21h11.41.627,classification_task,2021.2.3,Win32,60.81245439,5e9133f704391d46ee2bcb31,626b377229c10585ec392f89,626b3b17cd2dc8cbf2e4efbd,,,,,,,,,,,,,,,,,,,,,,,a,1,2.4374,"[""0.240"",""0.392"",""0.154"",""0.956""]","[1,1,0,1]",0,46,46,46,1,0,0,,,1,FALSE,,,,,,,,,,,,,,,,,,,,,,,,,,,,,,
,5e9133f704391d46ee2bcb31,001,2022-04-28_21h11.41.627,classification_task,2021.2.3,Win32,60.81245439,5e9133f704391d46ee2bcb31,626b377229c10585ec392f89,626b3b17cd2dc8cbf2e4efbd,,,,,,,,,,,,,,,,,,,,,,,a,1,2.0103,"[""0.240"",""0.392"",""0.616"",""0.141""]","[1,1,1,0]",0,47,47,47,1,0,0,,,1,FALSE,,,,,,,,,,,,,,,,,,,,,,,,,,,,,,
,5e9133f704391d46ee2bcb31,001,2022-04-28_21h11.41.627,classification_task,2021.2.3,Win32,60.81245439,5e9133f704391d46ee2bcb31,626b377229c10585ec392f89,626b3b17cd2dc8cbf2e4efbd,,,,,,,,,,,,,,,,,,,,,,,l,1,2.7052,"[""0.085"",""0.154"",""0.481"",""0.806""]","[1,0,1,1]",0,48,48,48,1,1,1,,,1,FALSE,,,,,,,,,,,,,,,,,,,,,,,,,,,,,,
,5e9133f704391d46ee2bcb31,001,2022-04-28_21h11.41.627,classification_task,2021.2.3,Win32,60.81245439,5e9133f704391d46ee2bcb31,626b377229c10585ec392f89,626b3b17cd2dc8cbf2e4efbd,,,,,,,,,,,,,,,,,,,,,,,a,0,1.4641,"[""0.025"",""0.191"",""0.579"",""0.144""]","[1,1,1,0]",0,49,49,49,1,1,0,,,1,FALSE,,,,,,,,,,,,,,,,,,,,,,,,,,,,,,
,5e9133f704391d46ee2bcb31,001,2022-04-28_21h11.41.627,classification_task,2021.2.3,Win32,60.81245439,5e9133f704391d46ee2bcb31,626b377229c10585ec392f89,626b3b17cd2dc8cbf2e4efbd,,,,,,,,,,,,,,,,,,,,,,,l,1,1.1703,"[""0.025"",""0.191"",""0.124"",""0.733""]","[1,1,0,1]",0,50,50,50,1,1,0,,,1,FALSE,,,,,,,,,,,,,,,,,,,,,,,,,,,,,,
,5e9133f704391d46ee2bcb31,001,2022-04-28_21h11.41.627,classification_task,2021.2.3,Win32,60.81245439,5e9133f704391d46ee2bcb31,626b377229c10585ec392f89,626b3b17cd2dc8cbf2e4efbd,,,,,,,,,,,,,,,,,,,,,,,l,1,2.2816,"[""0.137"",""0.289"",""0.481"",""0.806""]","[0,1,1,1]",0,51,51,51,1,1,1,,,1,FALSE,,,,,,,,,,,,,,,,,,,,,,,,,,,,,,
,5e9133f704391d46ee2bcb31,001,2022-04-28_21h11.41.627,classification_task,2021.2.3,Win32,60.81245439,5e9133f704391d46ee2bcb31,626b377229c10585ec392f89,626b3b17cd2dc8cbf2e4efbd,,,,,,,,,,,,,,,,,,,,,,,a,1,0.9434,"[""0.324"",""0.529"",""0.679"",""0.137""]","[1,1,1,0]",0,52,52,52,1,0,1,,,1,FALSE,,,,,,,,,,,,,,,,,,,,,,,,,,,,,,
,5e9133f704391d46ee2bcb31,001,2022-04-28_21h11.41.627,classification_task,2021.2.3,Win32,60.81245439,5e9133f704391d46ee2bcb31,626b377229c10585ec392f89,626b3b17cd2dc8cbf2e4efbd,,,,,,,,,,,,,,,,,,,,,,,l,1,1.2477,"[""0.085"",""0.289"",""0.769"",""0.806""]","[1,1,0,1]",0,53,53,53,1,1,1,,,1,FALSE,,,,,,,,,,,,,,,,,,,,,,,,,,,,,,
,5e9133f704391d46ee2bcb31,001,2022-04-28_21h11.41.627,classification_task,2021.2.3,Win32,60.81245439,5e9133f704391d46ee2bcb31,626b377229c10585ec392f89,626b3b17cd2dc8cbf2e4efbd,,,,,,,,,,,,,,,,,,,,,,,l,1,0.9004,"[""0.085"",""0.289"",""0.481"",""0.769""]","[1,1,1,0]",0,54,54,54,1,1,1,,,1,FALSE,,,,,,,,,,,,,,,,,,,,,,,,,,,,,,
,5e9133f704391d46ee2bcb31,001,2022-04-28_21h11.41.627,classification_task,2021.2.3,Win32,60.81245439,5e9133f704391d46ee2bcb31,626b377229c10585ec392f89,626b3b17cd2dc8cbf2e4efbd,,,,,,,,,,,,,,,,,,,,,,,a,1,5.5103,"[""0.324"",""0.529"",""0.770"",""0.876""]","[1,1,0,1]",0,55,55,55,1,0,1,,,1,FALSE,,,,,,,,,,,,,,,,,,,,,,,,,,,,,,
,5e9133f704391d46ee2bcb31,001,2022-04-28_21h11.41.627,classification_task,2021.2.3,Win32,60.81245439,5e9133f704391d46ee2bcb31,626b377229c10585ec392f89,626b3b17cd2dc8cbf2e4efbd,,,,,,,,,,,,,,,,,,,,,,,a,0,9.3174,"[""0.025"",""0.770"",""0.579"",""0.733""]","[1,0,1,1]",0,56,56,56,1,1,0,,,1,FALSE,,,,,,,,,,,,,,,,,,,,,,,,,,,,,,
,5e9133f704391d46ee2bcb31,001,2022-04-28_21h11.41.627,classification_task,2021.2.3,Win32,60.81245439,5e9133f704391d46ee2bcb31,626b377229c10585ec392f89,626b3b17cd2dc8cbf2e4efbd,,,,,,,,,,,,,,,,,,,,,,,l,0,3.4433,"[""0.240"",""0.392"",""0.770"",""0.956""]","[1,1,0,1]",0,57,57,57,1,0,0,,,1,FALSE,,,,,,,,,,,,,,,,,,,,,,,,,,,,,,
,5e9133f704391d46ee2bcb31,001,2022-04-28_21h11.41.627,classification_task,2021.2.3,Win32,60.81245439,5e9133f704391d46ee2bcb31,626b377229c10585ec392f89,626b3b17cd2dc8cbf2e4efbd,,,,,,,,,,,,,,,,,,,,,,,,0,,"[""0.240"",""0.392"",""0.616"",""0.919""]","[1,1,1,0]",0,58,58,58,1,0,0,,,1,FALSE,,,,,,,,,,,,,,,,,,,,,,,,,,,,,,
,5e9133f704391d46ee2bcb31,001,2022-04-28_21h11.41.627,classification_task,2021.2.3,Win32,60.81245439,5e9133f704391d46ee2bcb31,626b377229c10585ec392f89,626b3b17cd2dc8cbf2e4efbd,,,,,,,,,,,,,,,,,,,,,,,l,0,2.5124,"[""0.240"",""0.913"",""0.616"",""0.956""]","[1,0,1,1]",0,59,59,59,1,0,0,,,1,FALSE,,,,,,,,,,,,,,,,,,,,,,,,,,,,,,
,5e9133f704391d46ee2bcb31,001,2022-04-28_21h11.41.627,classification_task,2021.2.3,Win32,60.81245439,5e9133f704391d46ee2bcb31,626b377229c10585ec392f89,626b3b17cd2dc8cbf2e4efbd,,,,,,,,,,,,,,,,,,,,,,,a,1,1.2987,"[""0.324"",""0.426"",""0.679"",""0.876""]","[1,0,1,1]",0,60,60,60,1,0,1,,,1,FALSE,,,,,,,,,,,,,,,,,,,,,,,,,,,,,,
,5e9133f704391d46ee2bcb31,001,2022-04-28_21h11.41.627,classification_task,2021.2.3,Win32,60.81245439,5e9133f704391d46ee2bcb31,626b377229c10585ec392f89,626b3b17cd2dc8cbf2e4efbd,,,,,,,,,,,,,,,,,,,,,,,l,0,2.6484,"[""0.144"",""0.392"",""0.616"",""0.956""]","[0,1,1,1]",0,61,61,61,1,0,0,,,1,FALSE,,,,,,,,,,,,,,,,,,,,,,,,,,,,,,
,5e9133f704391d46ee2bcb31,001,2022-04-28_21h11.41.627,classification_task,2021.2.3,Win32,60.81245439,5e9133f704391d46ee2bcb31,626b377229c10585ec392f89,626b3b17cd2dc8cbf2e4efbd,,,,,,,,,,,,,,,,,,,,,,,l,1,1.3181,"[""0.141"",""0.191"",""0.579"",""0.733""]","[0,1,1,1]",0,62,62,62,1,1,0,,,1,FALSE,,,,,,,,,,,,,,,,,,,,,,,,,,,,,,
,5e9133f704391d46ee2bcb31,001,2022-04-28_21h11.41.627,classification_task,2021.2.3,Win32,60.81245439,5e9133f704391d46ee2bcb31,626b377229c10585ec392f89,626b3b17cd2dc8cbf2e4efbd,,,,,,,,,,,,,,,,,,,,,,,a,1,3.6468,"[""0.769"",""0.529"",""0.679"",""0.876""]","[0,1,1,1]",0,63,63,63,1,0,1,,,1,FALSE,,,,,,,,,,,,,,,,,,,,,,,,,,,,,,
,5e9133f704391d46ee2bcb31,001,2022-04-28_21h11.41.627,classification_task,2021.2.3,Win32,60.81245439,5e9133f704391d46ee2bcb31,626b377229c10585ec392f89,626b3b17cd2dc8cbf2e4efbd,,,,,,,,,,,,,,,,,,,,,,,,,,,,,,,,,,,,,,,0, ,,0,5.998952822,261.9322,0,1,1,1,1,2,2,,,,,,,,,,,,,,,,,
,5e9133f704391d46ee2bcb31,001,2022-04-28_21h11.41.627,classification_task,2021.2.3,Win32,60.81245439,5e9133f704391d46ee2bcb31,626b377229c10585ec392f89,626b3b17cd2dc8cbf2e4efbd,,,,,,,,,,,,,,,,,,,,,,,,,,,,,,,,,,,,,,,1,  ,,0,6.102292769,268.6598,0,1,1,1,1,2,2,,,,,,,,,,,,,,,,,
,5e9133f704391d46ee2bcb31,001,2022-04-28_21h11.41.627,classification_task,2021.2.3,Win32,60.81245439,5e9133f704391d46ee2bcb31,626b377229c10585ec392f89,626b3b17cd2dc8cbf2e4efbd,,,,,,,,,,,,,,,,,,,,,,,,,,,,,,,,,,,,,,,2,  ,,0,3.277667549,273.1358,0,1,1,1,1,2,2,,,,,,,,,,,,,,,,,
,5e9133f704391d46ee2bcb31,001,2022-04-28_21h11.41.627,classification_task,2021.2.3,Win32,60.81245439,5e9133f704391d46ee2bcb31,626b377229c10585ec392f89,626b3b17cd2dc8cbf2e4efbd,,,,,,,,,,,,,,,,,,,,,,,,,,,,,,,,,,,,,,,,,,,,,0,1,1,1,1,,2,,,,,,,,,,,,,,,,,
,5e9133f704391d46ee2bcb31,001,2022-04-28_21h11.41.627,classification_task,2021.2.3,Win32,60.81245439,5e9133f704391d46ee2bcb31,626b377229c10585ec392f89,626b3b17cd2dc8cbf2e4efbd,,,,,,,,,,,,,,,,,,,,,space,8.2732,l,1,1.5581,"[""0.025"",""0.141"",""0.579"",""0.733""]","[1,0,1,1]",0,0,0,0,1,1,0,,,1,FALSE,,,,,,,,,,,,,,,,,,,,,,,,,,,,,,
,5e9133f704391d46ee2bcb31,001,2022-04-28_21h11.41.627,classification_task,2021.2.3,Win32,60.81245439,5e9133f704391d46ee2bcb31,626b377229c10585ec392f89,626b3b17cd2dc8cbf2e4efbd,,,,,,,,,,,,,,,,,,,,,,,a,1,2.2492,"[""0.240"",""0.137"",""0.616"",""0.956""]","[1,0,1,1]",0,1,1,1,1,0,0,,,1,FALSE,,,,,,,,,,,,,,,,,,,,,,,,,,,,,,
,5e9133f704391d46ee2bcb31,001,2022-04-28_21h11.41.627,classification_task,2021.2.3,Win32,60.81245439,5e9133f704391d46ee2bcb31,626b377229c10585ec392f89,626b3b17cd2dc8cbf2e4efbd,,,,,,,,,,,,,,,,,,,,,,,a,0,3.497,"[""0.085"",""0.289"",""0.426"",""0.806""]","[1,1,0,1]",0,2,2,2,1,1,1,,,1,FALSE,,,,,,,,,,,,,,,,,,,,,,,,,,,,,,
,5e9133f704391d46ee2bcb31,001,2022-04-28_21h11.41.627,classification_task,2021.2.3,Win32,60.81245439,5e9133f704391d46ee2bcb31,626b377229c10585ec392f89,626b3b17cd2dc8cbf2e4efbd,,,,,,,,,,,,,,,,,,,,,,,l,1,1.4508,"[""0.130"",""0.191"",""0.579"",""0.733""]","[0,1,1,1]",0,3,3,3,1,1,0,,,1,FALSE,,,,,,,,,,,,,,,,,,,,,,,,,,,,,,
,5e9133f704391d46ee2bcb31,001,2022-04-28_21h11.41.627,classification_task,2021.2.3,Win32,60.81245439,5e9133f704391d46ee2bcb31,626b377229c10585ec392f89,626b3b17cd2dc8cbf2e4efbd,,,,,,,,,,,,,,,,,,,,,,,l,1,1.7683,"[""0.025"",""0.191"",""0.130"",""0.733""]","[1,1,0,1]",0,4,4,4,1,1,0,,,1,FALSE,,,,,,,,,,,,,,,,,,,,,,,,,,,,,,
,5e9133f704391d46ee2bcb31,001,2022-04-28_21h11.41.627,classification_task,2021.2.3,Win32,60.81245439,5e9133f704391d46ee2bcb31,626b377229c10585ec392f89,626b3b17cd2dc8cbf2e4efbd,,,,,,,,,,,,,,,,,,,,,,,l,0,3.7804,"[""0.240"",""0.392"",""0.616"",""0.137""]","[1,1,1,0]",0,5,5,5,1,0,0,,,1,FALSE,,,,,,,,,,,,,,,,,,,,,,,,,,,,,,
,5e9133f704391d46ee2bcb31,001,2022-04-28_21h11.41.627,classification_task,2021.2.3,Win32,60.81245439,5e9133f704391d46ee2bcb31,626b377229c10585ec392f89,626b3b17cd2dc8cbf2e4efbd,,,,,,,,,,,,,,,,,,,,,,,a,1,1.2597,"[""0.324"",""0.144"",""0.679"",""0.876""]","[1,0,1,1]",0,6,6,6,1,0,1,,,1,FALSE,,,,,,,,,,,,,,,,,,,,,,,,,,,,,,
,5e9133f704391d46ee2bcb31,001,2022-04-28_21h11.41.627,classification_task,2021.2.3,Win32,60.81245439,5e9133f704391d46ee2bcb31,626b377229c10585ec392f89,626b3b17cd2dc8cbf2e4efbd,,,,,,,,,,,,,,,,,,,,,,,a,1,0.7663,"[""0.324"",""0.529"",""0.130"",""0.876""]","[1,1,0,1]",0,7,7,7,1,0,1,,,1,FALSE,,,,,,,,,,,,,,,,,,,,,,,,,,,,,,
,5e9133f704391d46ee2bcb31,001,2022-04-28_21h11.41.627,classification_task,2021.2.3,Win32,60.81245439,5e9133f704391d46ee2bcb31,626b377229c10585ec392f89,626b3b17cd2dc8cbf2e4efbd,,,,,,,,,,,,,,,,,,,,,,,l,1,2.321,"[""0.426"",""0.289"",""0.481"",""0.806""]","[0,1,1,1]",0,8,8,8,1,1,1,,,1,FALSE,,,,,,,,,,,,,,,,,,,,,,,,,,,,,,
,5e9133f704391d46ee2bcb31,001,2022-04-28_21h11.41.627,classification_task,2021.2.3,Win32,60.81245439,5e9133f704391d46ee2bcb31,626b377229c10585ec392f89,626b3b17cd2dc8cbf2e4efbd,,,,,,,,,,,,,,,,,,,,,,,l,1,1.6238,"[""0.085"",""0.289"",""0.481"",""0.121""]","[1,1,1,0]",0,9,9,9,1,1,1,,,1,FALSE,,,,,,,,,,,,,,,,,,,,,,,,,,,,,,
,5e9133f704391d46ee2bcb31,001,2022-04-28_21h11.41.627,classification_task,2021.2.3,Win32,60.81245439,5e9133f704391d46ee2bcb31,626b377229c10585ec392f89,626b3b17cd2dc8cbf2e4efbd,,,,,,,,,,,,,,,,,,,,,,,a,1,1.5845,"[""0.324"",""0.529"",""0.679"",""0.125""]","[1,1,1,0]",0,10,10,10,1,0,1,,,1,FALSE,,,,,,,,,,,,,,,,,,,,,,,,,,,,,,
,5e9133f704391d46ee2bcb31,001,2022-04-28_21h11.41.627,classification_task,2021.2.3,Win32,60.81245439,5e9133f704391d46ee2bcb31,626b377229c10585ec392f89,626b3b17cd2dc8cbf2e4efbd,,,,,,,,,,,,,,,,,,,,,,,l,1,5.0928,"[""0.085"",""0.426"",""0.481"",""0.806""]","[1,0,1,1]",0,11,11,11,1,1,1,,,1,FALSE,,,,,,,,,,,,,,,,,,,,,,,,,,,,,,
,5e9133f704391d46ee2bcb31,001,2022-04-28_21h11.41.627,classification_task,2021.2.3,Win32,60.81245439,5e9133f704391d46ee2bcb31,626b377229c10585ec392f89,626b3b17cd2dc8cbf2e4efbd,,,,,,,,,,,,,,,,,,,,,,,l,0,2.4108,"[""0.137"",""0.529"",""0.679"",""0.876""]","[0,1,1,1]",0,12,12,12,1,0,1,,,1,FALSE,,,,,,,,,,,,,,,,,,,,,,,,,,,,,,
,5e9133f704391d46ee2bcb31,001,2022-04-28_21h11.41.627,classification_task,2021.2.3,Win32,60.81245439,5e9133f704391d46ee2bcb31,626b377229c10585ec392f89,626b3b17cd2dc8cbf2e4efbd,,,,,,,,,,,,,,,,,,,,,,,l,0,2.6475,"[""0.240"",""0.392"",""0.770"",""0.956""]","[1,1,0,1]",0,13,13,13,1,0,0,,,1,FALSE,,,,,,,,,,,,,,,,,,,,,,,,,,,,,,
,5e9133f704391d46ee2bcb31,001,2022-04-28_21h11.41.627,classification_task,2021.2.3,Win32,60.81245439,5e9133f704391d46ee2bcb31,626b377229c10585ec392f89,626b3b17cd2dc8cbf2e4efbd,,,,,,,,,,,,,,,,,,,,,,,a,1,5.2423,"[""0.121"",""0.392"",""0.616"",""0.956""]","[0,1,1,1]",0,14,14,14,1,0,0,,,1,FALSE,,,,,,,,,,,,,,,,,,,,,,,,,,,,,,
,5e9133f704391d46ee2bcb31,001,2022-04-28_21h11.41.627,classification_task,2021.2.3,Win32,60.81245439,5e9133f704391d46ee2bcb31,626b377229c10585ec392f89,626b3b17cd2dc8cbf2e4efbd,,,,,,,,,,,,,,,,,,,,,,,a,0,3.8064,"[""0.025"",""0.191"",""0.579"",""0.769""]","[1,1,1,0]",0,15,15,15,1,1,0,,,1,FALSE,,,,,,,,,,,,,,,,,,,,,,,,,,,,,,
,5e9133f704391d46ee2bcb31,001,2022-04-28_21h11.41.627,classification_task,2021.2.3,Win32,60.81245439,5e9133f704391d46ee2bcb31,626b377229c10585ec392f89,626b3b17cd2dc8cbf2e4efbd,,,,,,,,,,,,,,,,,,,,,,,a,1,2.5973,"[""0.324"",""0.529"",""0.679"",""0.124""]","[1,1,1,0]",0,16,16,16,1,0,1,,,1,FALSE,,,,,,,,,,,,,,,,,,,,,,,,,,,,,,
,5e9133f704391d46ee2bcb31,001,2022-04-28_21h11.41.627,classification_task,2021.2.3,Win32,60.81245439,5e9133f704391d46ee2bcb31,626b377229c10585ec392f89,626b3b17cd2dc8cbf2e4efbd,,,,,,,,,,,,,,,,,,,,,,,l,1,1.3368,"[""0.145"",""0.289"",""0.481"",""0.806""]","[0,1,1,1]",0,17,17,17,1,1,1,,,1,FALSE,,,,,,,,,,,,,,,,,,,,,,,,,,,,,,
,5e9133f704391d46ee2bcb31,001,2022-04-28_21h11.41.627,classification_task,2021.2.3,Win32,60.81245439,5e9133f704391d46ee2bcb31,626b377229c10585ec392f89,626b3b17cd2dc8cbf2e4efbd,,,,,,,,,,,,,,,,,,,,,,,l,0,2.9836,"[""0.240"",""0.392"",""0.121"",""0.956""]","[1,1,0,1]",0,18,18,18,1,0,0,,,1,FALSE,,,,,,,,,,,,,,,,,,,,,,,,,,,,,,
,5e9133f704391d46ee2bcb31,001,2022-04-28_21h11.41.627,classification_task,2021.2.3,Win32,60.81245439,5e9133f704391d46ee2bcb31,626b377229c10585ec392f89,626b3b17cd2dc8cbf2e4efbd,,,,,,,,,,,,,,,,,,,,,,,l,0,2.6773,"[""0.240"",""0.392"",""0.616"",""0.769""]","[1,1,1,0]",0,19,19,19,1,0,0,,,1,FALSE,,,,,,,,,,,,,,,,,,,,,,,,,,,,,,
,5e9133f704391d46ee2bcb31,001,2022-04-28_21h11.41.627,classification_task,2021.2.3,Win32,60.81245439,5e9133f704391d46ee2bcb31,626b377229c10585ec392f89,626b3b17cd2dc8cbf2e4efbd,,,,,,,,,,,,,,,,,,,,,,,l,0,7.4273,"[""0.324"",""0.141"",""0.679"",""0.876""]","[1,0,1,1]",0,20,20,20,1,0,1,,,1,FALSE,,,,,,,,,,,,,,,,,,,,,,,,,,,,,,
,5e9133f704391d46ee2bcb31,001,2022-04-28_21h11.41.627,classification_task,2021.2.3,Win32,60.81245439,5e9133f704391d46ee2bcb31,626b377229c10585ec392f89,626b3b17cd2dc8cbf2e4efbd,,,,,,,,,,,,,,,,,,,,,,,a,1,3.6266,"[""0.144"",""0.392"",""0.616"",""0.956""]","[0,1,1,1]",0,21,21,21,1,0,0,,,1,FALSE,,,,,,,,,,,,,,,,,,,,,,,,,,,,,,
,5e9133f704391d46ee2bcb31,001,2022-04-28_21h11.41.627,classification_task,2021.2.3,Win32,60.81245439,5e9133f704391d46ee2bcb31,626b377229c10585ec392f89,626b3b17cd2dc8cbf2e4efbd,,,,,,,,,,,,,,,,,,,,,,,l,1,3.0651,"[""0.085"",""0.289"",""0.141"",""0.806""]","[1,1,0,1]",0,22,22,22,1,1,1,,,1,FALSE,,,,,,,,,,,,,,,,,,,,,,,,,,,,,,
,5e9133f704391d46ee2bcb31,001,2022-04-28_21h11.41.627,classification_task,2021.2.3,Win32,60.81245439,5e9133f704391d46ee2bcb31,626b377229c10585ec392f89,626b3b17cd2dc8cbf2e4efbd,,,,,,,,,,,,,,,,,,,,,,,l,1,2.8468,"[""0.085"",""0.289"",""0.481"",""0.141""]","[1,1,1,0]",0,23,23,23,1,1,1,,,1,FALSE,,,,,,,,,,,,,,,,,,,,,,,,,,,,,,
,5e9133f704391d46ee2bcb31,001,2022-04-28_21h11.41.627,classification_task,2021.2.3,Win32,60.81245439,5e9133f704391d46ee2bcb31,626b377229c10585ec392f89,626b3b17cd2dc8cbf2e4efbd,,,,,,,,,,,,,,,,,,,,,,,a,1,1.4284,"[""0.324"",""0.529"",""0.141"",""0.876""]","[1,1,0,1]",0,24,24,24,1,0,1,,,1,FALSE,,,,,,,,,,,,,,,,,,,,,,,,,,,,,,
,5e9133f704391d46ee2bcb31,001,2022-04-28_21h11.41.627,classification_task,2021.2.3,Win32,60.81245439,5e9133f704391d46ee2bcb31,626b377229c10585ec392f89,626b3b17cd2dc8cbf2e4efbd,,,,,,,,,,,,,,,,,,,,,,,l,0,4.5604,"[""0.240"",""0.141"",""0.616"",""0.956""]","[1,0,1,1]",0,25,25,25,1,0,0,,,1,FALSE,,,,,,,,,,,,,,,,,,,,,,,,,,,,,,
,5e9133f704391d46ee2bcb31,001,2022-04-28_21h11.41.627,classification_task,2021.2.3,Win32,60.81245439,5e9133f704391d46ee2bcb31,626b377229c10585ec392f89,626b3b17cd2dc8cbf2e4efbd,,,,,,,,,,,,,,,,,,,,,,,l,1,1.9675,"[""0.025"",""0.191"",""0.919"",""0.733""]","[1,1,0,1]",0,26,26,26,1,1,0,,,1,FALSE,,,,,,,,,,,,,,,,,,,,,,,,,,,,,,
,5e9133f704391d46ee2bcb31,001,2022-04-28_21h11.41.627,classification_task,2021.2.3,Win32,60.81245439,5e9133f704391d46ee2bcb31,626b377229c10585ec392f89,626b3b17cd2dc8cbf2e4efbd,,,,,,,,,,,,,,,,,,,,,,,a,0,4.9278,"[""0.085"",""0.130"",""0.481"",""0.806""]","[1,0,1,1]",0,27,27,27,1,1,1,,,1,FALSE,,,,,,,,,,,,,,,,,,,,,,,,,,,,,,
,5e9133f704391d46ee2bcb31,001,2022-04-28_21h11.41.627,classification_task,2021.2.3,Win32,60.81245439,5e9133f704391d46ee2bcb31,626b377229c10585ec392f89,626b3b17cd2dc8cbf2e4efbd,,,,,,,,,,,,,,,,,,,,,,,a,1,2.96,"[""0.124"",""0.529"",""0.679"",""0.876""]","[0,1,1,1]",0,28,28,28,1,0,1,,,1,FALSE,,,,,,,,,,,,,,,,,,,,,,,,,,,,,,
,5e9133f704391d46ee2bcb31,001,2022-04-28_21h11.41.627,classification_task,2021.2.3,Win32,60.81245439,5e9133f704391d46ee2bcb31,626b377229c10585ec392f89,626b3b17cd2dc8cbf2e4efbd,,,,,,,,,,,,,,,,,,,,,,,a,0,1.6352,"[""0.025"",""0.145"",""0.579"",""0.733""]","[1,0,1,1]",0,29,29,29,1,1,0,,,1,FALSE,,,,,,,,,,,,,,,,,,,,,,,,,,,,,,
,5e9133f704391d46ee2bcb31,001,2022-04-28_21h11.41.627,classification_task,2021.2.3,Win32,60.81245439,5e9133f704391d46ee2bcb31,626b377229c10585ec392f89,626b3b17cd2dc8cbf2e4efbd,,,,,,,,,,,,,,,,,,,,,,,l,1,2.3649,"[""0.025"",""0.191"",""0.579"",""0.154""]","[1,1,1,0]",0,30,30,30,1,1,0,,,1,FALSE,,,,,,,,,,,,,,,,,,,,,,,,,,,,,,
,5e9133f704391d46ee2bcb31,001,2022-04-28_21h11.41.627,classification_task,2021.2.3,Win32,60.81245439,5e9133f704391d46ee2bcb31,626b377229c10585ec392f89,626b3b17cd2dc8cbf2e4efbd,,,,,,,,,,,,,,,,,,,,,,,l,1,2.0088,"[""0.145"",""0.191"",""0.579"",""0.733""]","[0,1,1,1]",0,31,31,31,1,1,0,,,1,FALSE,,,,,,,,,,,,,,,,,,,,,,,,,,,,,,
,5e9133f704391d46ee2bcb31,001,2022-04-28_21h11.41.627,classification_task,2021.2.3,Win32,60.81245439,5e9133f704391d46ee2bcb31,626b377229c10585ec392f89,626b3b17cd2dc8cbf2e4efbd,,,,,,,,,,,,,,,,,,,,,,,l,1,3.3425,"[""0.085"",""0.144"",""0.481"",""0.806""]","[1,0,1,1]",0,32,32,32,1,1,1,,,1,FALSE,,,,,,,,,,,,,,,,,,,,,,,,,,,,,,
,5e9133f704391d46ee2bcb31,001,2022-04-28_21h11.41.627,classification_task,2021.2.3,Win32,60.81245439,5e9133f704391d46ee2bcb31,626b377229c10585ec392f89,626b3b17cd2dc8cbf2e4efbd,,,,,,,,,,,,,,,,,,,,,,,l,1,1.7498,"[""0.770"",""0.289"",""0.481"",""0.806""]","[0,1,1,1]",0,33,33,33,1,1,1,,,1,FALSE,,,,,,,,,,,,,,,,,,,,,,,,,,,,,,
,5e9133f704391d46ee2bcb31,001,2022-04-28_21h11.41.627,classification_task,2021.2.3,Win32,60.81245439,5e9133f704391d46ee2bcb31,626b377229c10585ec392f89,626b3b17cd2dc8cbf2e4efbd,,,,,,,,,,,,,,,,,,,,,,,l,0,2.6139,"[""0.240"",""0.392"",""0.616"",""0.130""]","[1,1,1,0]",0,34,34,34,1,0,0,,,1,FALSE,,,,,,,,,,,,,,,,,,,,,,,,,,,,,,
,5e9133f704391d46ee2bcb31,001,2022-04-28_21h11.41.627,classification_task,2021.2.3,Win32,60.81245439,5e9133f704391d46ee2bcb31,626b377229c10585ec392f89,626b3b17cd2dc8cbf2e4efbd,,,,,,,,,,,,,,,,,,,,,,,a,1,1.1955,"[""0.324"",""0.529"",""0.679"",""0.769""]","[1,1,1,0]",0,35,35,35,1,0,1,,,1,FALSE,,,,,,,,,,,,,,,,,,,,,,,,,,,,,,
,5e9133f704391d46ee2bcb31,001,2022-04-28_21h11.41.627,classification_task,2021.2.3,Win32,60.81245439,5e9133f704391d46ee2bcb31,626b377229c10585ec392f89,626b3b17cd2dc8cbf2e4efbd,,,,,,,,,,,,,,,,,,,,,,,l,0,2.6612,"[""0.240"",""0.913"",""0.616"",""0.956""]","[1,0,1,1]",0,36,36,36,1,0,0,,,1,FALSE,,,,,,,,,,,,,,,,,,,,,,,,,,,,,,
,5e9133f704391d46ee2bcb31,001,2022-04-28_21h11.41.627,classification_task,2021.2.3,Win32,60.81245439,5e9133f704391d46ee2bcb31,626b377229c10585ec392f89,626b3b17cd2dc8cbf2e4efbd,,,,,,,,,,,,,,,,,,,,,,,a,1,1.3747,"[""0.324"",""0.124"",""0.679"",""0.876""]","[1,0,1,1]",0,37,37,37,1,0,1,,,1,FALSE,,,,,,,,,,,,,,,,,,,,,,,,,,,,,,
,5e9133f704391d46ee2bcb31,001,2022-04-28_21h11.41.627,classification_task,2021.2.3,Win32,60.81245439,5e9133f704391d46ee2bcb31,626b377229c10585ec392f89,626b3b17cd2dc8cbf2e4efbd,,,,,,,,,,,,,,,,,,,,,,,l,1,2.1483,"[""0.085"",""0.289"",""0.137"",""0.806""]","[1,1,0,1]",0,38,38,38,1,1,1,,,1,FALSE,,,,,,,,,,,,,,,,,,,,,,,,,,,,,,
,5e9133f704391d46ee2bcb31,001,2022-04-28_21h11.41.627,classification_task,2021.2.3,Win32,60.81245439,5e9133f704391d46ee2bcb31,626b377229c10585ec392f89,626b3b17cd2dc8cbf2e4efbd,,,,,,,,,,,,,,,,,,,,,,,l,1,1.5341,"[""0.770"",""0.191"",""0.579"",""0.733""]","[0,1,1,1]",0,39,39,39,1,1,0,,,1,FALSE,,,,,,,,,,,,,,,,,,,,,,,,,,,,,,
,5e9133f704391d46ee2bcb31,001,2022-04-28_21h11.41.627,classification_task,2021.2.3,Win32,60.81245439,5e9133f704391d46ee2bcb31,626b377229c10585ec392f89,626b3b17cd2dc8cbf2e4efbd,,,,,,,,,,,,,,,,,,,,,,,l,0,1.8473,"[""0.240"",""0.392"",""0.145"",""0.956""]","[1,1,0,1]",0,40,40,40,1,0,0,,,1,FALSE,,,,,,,,,,,,,,,,,,,,,,,,,,,,,,
,5e9133f704391d46ee2bcb31,001,2022-04-28_21h11.41.627,classification_task,2021.2.3,Win32,60.81245439,5e9133f704391d46ee2bcb31,626b377229c10585ec392f89,626b3b17cd2dc8cbf2e4efbd,,,,,,,,,,,,,,,,,,,,,,,l,1,1.2011,"[""0.025"",""0.191"",""0.141"",""0.733""]","[1,1,0,1]",0,41,41,41,1,1,0,,,1,FALSE,,,,,,,,,,,,,,,,,,,,,,,,,,,,,,
,5e9133f704391d46ee2bcb31,001,2022-04-28_21h11.41.627,classification_task,2021.2.3,Win32,60.81245439,5e9133f704391d46ee2bcb31,626b377229c10585ec392f89,626b3b17cd2dc8cbf2e4efbd,,,,,,,,,,,,,,,,,,,,,,,l,1,1.5028,"[""0.025"",""0.154"",""0.579"",""0.733""]","[1,0,1,1]",0,42,42,42,1,1,0,,,1,FALSE,,,,,,,,,,,,,,,,,,,,,,,,,,,,,,
,5e9133f704391d46ee2bcb31,001,2022-04-28_21h11.41.627,classification_task,2021.2.3,Win32,60.81245439,5e9133f704391d46ee2bcb31,626b377229c10585ec392f89,626b3b17cd2dc8cbf2e4efbd,,,,,,,,,,,,,,,,,,,,,,,l,1,2.0159,"[""0.085"",""0.289"",""0.481"",""0.144""]","[1,1,1,0]",0,43,43,43,1,1,1,,,1,FALSE,,,,,,,,,,,,,,,,,,,,,,,,,,,,,,
,5e9133f704391d46ee2bcb31,001,2022-04-28_21h11.41.627,classification_task,2021.2.3,Win32,60.81245439,5e9133f704391d46ee2bcb31,626b377229c10585ec392f89,626b3b17cd2dc8cbf2e4efbd,,,,,,,,,,,,,,,,,,,,,,,a,0,3.7161,"[""0.025"",""0.191"",""0.579"",""0.130""]","[1,1,1,0]",0,44,44,44,1,1,0,,,1,FALSE,,,,,,,,,,,,,,,,,,,,,,,,,,,,,,
,5e9133f704391d46ee2bcb31,001,2022-04-28_21h11.41.627,classification_task,2021.2.3,Win32,60.81245439,5e9133f704391d46ee2bcb31,626b377229c10585ec392f89,626b3b17cd2dc8cbf2e4efbd,,,,,,,,,,,,,,,,,,,,,,,a,1,3.6137,"[""0.426"",""0.392"",""0.616"",""0.956""]","[0,1,1,1]",0,45,45,45,1,0,0,,,1,FALSE,,,,,,,,,,,,,,,,,,,,,,,,,,,,,,
,5e9133f704391d46ee2bcb31,001,2022-04-28_21h11.41.627,classification_task,2021.2.3,Win32,60.81245439,5e9133f704391d46ee2bcb31,626b377229c10585ec392f89,626b3b17cd2dc8cbf2e4efbd,,,,,,,,,,,,,,,,,,,,,,,a,1,4.2729,"[""0.141"",""0.529"",""0.679"",""0.876""]","[0,1,1,1]",0,46,46,46,1,0,1,,,1,FALSE,,,,,,,,,,,,,,,,,,,,,,,,,,,,,,
,5e9133f704391d46ee2bcb31,001,2022-04-28_21h11.41.627,classification_task,2021.2.3,Win32,60.81245439,5e9133f704391d46ee2bcb31,626b377229c10585ec392f89,626b3b17cd2dc8cbf2e4efbd,,,,,,,,,,,,,,,,,,,,,,,a,1,1.3152,"[""0.324"",""0.529"",""0.769"",""0.876""]","[1,1,0,1]",0,47,47,47,1,0,1,,,1,FALSE,,,,,,,,,,,,,,,,,,,,,,,,,,,,,,
,5e9133f704391d46ee2bcb31,001,2022-04-28_21h11.41.627,classification_task,2021.2.3,Win32,60.81245439,5e9133f704391d46ee2bcb31,626b377229c10585ec392f89,626b3b17cd2dc8cbf2e4efbd,,,,,,,,,,,,,,,,,,,,,,,a,0,1.965,"[""0.025"",""0.125"",""0.579"",""0.733""]","[1,0,1,1]",0,48,48,48,1,1,0,,,1,FALSE,,,,,,,,,,,,,,,,,,,,,,,,,,,,,,
,5e9133f704391d46ee2bcb31,001,2022-04-28_21h11.41.627,classification_task,2021.2.3,Win32,60.81245439,5e9133f704391d46ee2bcb31,626b377229c10585ec392f89,626b3b17cd2dc8cbf2e4efbd,,,,,,,,,,,,,,,,,,,,,,,a,1,5.8111,"[""0.130"",""0.529"",""0.679"",""0.876""]","[0,1,1,1]",0,49,49,49,1,0,1,,,1,FALSE,,,,,,,,,,,,,,,,,,,,,,,,,,,,,,
,5e9133f704391d46ee2bcb31,001,2022-04-28_21h11.41.627,classification_task,2021.2.3,Win32,60.81245439,5e9133f704391d46ee2bcb31,626b377229c10585ec392f89,626b3b17cd2dc8cbf2e4efbd,,,,,,,,,,,,,,,,,,,,,,,l,1,1.3653,"[""0.085"",""0.289"",""0.141"",""0.806""]","[1,1,0,1]",0,50,50,50,1,1,1,,,1,FALSE,,,,,,,,,,,,,,,,,,,,,,,,,,,,,,
,5e9133f704391d46ee2bcb31,001,2022-04-28_21h11.41.627,classification_task,2021.2.3,Win32,60.81245439,5e9133f704391d46ee2bcb31,626b377229c10585ec392f89,626b3b17cd2dc8cbf2e4efbd,,,,,,,,,,,,,,,,,,,,,,,a,1,1.0049,"[""0.324"",""0.141"",""0.679"",""0.876""]","[1,0,1,1]",0,51,51,51,1,0,1,,,1,FALSE,,,,,,,,,,,,,,,,,,,,,,,,,,,,,,
,5e9133f704391d46ee2bcb31,001,2022-04-28_21h11.41.627,classification_task,2021.2.3,Win32,60.81245439,5e9133f704391d46ee2bcb31,626b377229c10585ec392f89,626b3b17cd2dc8cbf2e4efbd,,,,,,,,,,,,,,,,,,,,,,,l,1,1.7321,"[""0.085"",""0.289"",""0.481"",""0.154""]","[1,1,1,0]",0,52,52,52,1,1,1,,,1,FALSE,,,,,,,,,,,,,,,,,,,,,,,,,,,,,,
,5e9133f704391d46ee2bcb31,001,2022-04-28_21h11.41.627,classification_task,2021.2.3,Win32,60.81245439,5e9133f704391d46ee2bcb31,626b377229c10585ec392f89,626b3b17cd2dc8cbf2e4efbd,,,,,,,,,,,,,,,,,,,,,,,a,1,4.4312,"[""0.240"",""0.392"",""0.616"",""0.770""]","[1,1,1,0]",0,53,53,53,1,0,0,,,1,FALSE,,,,,,,,,,,,,,,,,,,,,,,,,,,,,,
,5e9133f704391d46ee2bcb31,001,2022-04-28_21h11.41.627,classification_task,2021.2.3,Win32,60.81245439,5e9133f704391d46ee2bcb31,626b377229c10585ec392f89,626b3b17cd2dc8cbf2e4efbd,,,,,,,,,,,,,,,,,,,,,,,l,0,1.7631,"[""0.240"",""0.392"",""0.145"",""0.956""]","[1,1,0,1]",0,54,54,54,1,0,0,,,1,FALSE,,,,,,,,,,,,,,,,,,,,,,,,,,,,,,
,5e9133f704391d46ee2bcb31,001,2022-04-28_21h11.41.627,classification_task,2021.2.3,Win32,60.81245439,5e9133f704391d46ee2bcb31,626b377229c10585ec392f89,626b3b17cd2dc8cbf2e4efbd,,,,,,,,,,,,,,,,,,,,,,,a,1,1.0489,"[""0.324"",""0.529"",""0.679"",""0.121""]","[1,1,1,0]",0,55,55,55,1,0,1,,,1,FALSE,,,,,,,,,,,,,,,,,,,,,,,,,,,,,,
,5e9133f704391d46ee2bcb31,001,2022-04-28_21h11.41.627,classification_task,2021.2.3,Win32,60.81245439,5e9133f704391d46ee2bcb31,626b377229c10585ec392f89,626b3b17cd2dc8cbf2e4efbd,,,,,,,,,,,,,,,,,,,,,,,a,1,1.5007,"[""0.324"",""0.529"",""0.913"",""0.876""]","[1,1,0,1]",0,56,56,56,1,0,1,,,1,FALSE,,,,,,,,,,,,,,,,,,,,,,,,,,,,,,
,5e9133f704391d46ee2bcb31,001,2022-04-28_21h11.41.627,classification_task,2021.2.3,Win32,60.81245439,5e9133f704391d46ee2bcb31,626b377229c10585ec392f89,626b3b17cd2dc8cbf2e4efbd,,,,,,,,,,,,,,,,,,,,,,,l,1,1.131,"[""0.145"",""0.191"",""0.579"",""0.733""]","[0,1,1,1]",0,57,57,57,1,1,0,,,1,FALSE,,,,,,,,,,,,,,,,,,,,,,,,,,,,,,
,5e9133f704391d46ee2bcb31,001,2022-04-28_21h11.41.627,classification_task,2021.2.3,Win32,60.81245439,5e9133f704391d46ee2bcb31,626b377229c10585ec392f89,626b3b17cd2dc8cbf2e4efbd,,,,,,,,,,,,,,,,,,,,,,,l,1,2.2604,"[""0.085"",""0.125"",""0.481"",""0.806""]","[1,0,1,1]",0,58,58,58,1,1,1,,,1,FALSE,,,,,,,,,,,,,,,,,,,,,,,,,,,,,,
,5e9133f704391d46ee2bcb31,001,2022-04-28_21h11.41.627,classification_task,2021.2.3,Win32,60.81245439,5e9133f704391d46ee2bcb31,626b377229c10585ec392f89,626b3b17cd2dc8cbf2e4efbd,,,,,,,,,,,,,,,,,,,,,,,l,0,2.3538,"[""0.240"",""0.154"",""0.616"",""0.956""]","[1,0,1,1]",0,59,59,59,1,0,0,,,1,FALSE,,,,,,,,,,,,,,,,,,,,,,,,,,,,,,
,5e9133f704391d46ee2bcb31,001,2022-04-28_21h11.41.627,classification_task,2021.2.3,Win32,60.81245439,5e9133f704391d46ee2bcb31,626b377229c10585ec392f89,626b3b17cd2dc8cbf2e4efbd,,,,,,,,,,,,,,,,,,,,,,,l,1,2.0177,"[""0.025"",""0.191"",""0.426"",""0.733""]","[1,1,0,1]",0,60,60,60,1,1,0,,,1,FALSE,,,,,,,,,,,,,,,,,,,,,,,,,,,,,,
,5e9133f704391d46ee2bcb31,001,2022-04-28_21h11.41.627,classification_task,2021.2.3,Win32,60.81245439,5e9133f704391d46ee2bcb31,626b377229c10585ec392f89,626b3b17cd2dc8cbf2e4efbd,,,,,,,,,,,,,,,,,,,,,,,l,0,1.3864,"[""0.913"",""0.392"",""0.616"",""0.956""]","[0,1,1,1]",0,61,61,61,1,0,0,,,1,FALSE,,,,,,,,,,,,,,,,,,,,,,,,,,,,,,
,5e9133f704391d46ee2bcb31,001,2022-04-28_21h11.41.627,classification_task,2021.2.3,Win32,60.81245439,5e9133f704391d46ee2bcb31,626b377229c10585ec392f89,626b3b17cd2dc8cbf2e4efbd,,,,,,,,,,,,,,,,,,,,,,,l,1,1.7916,"[""0.154"",""0.289"",""0.481"",""0.806""]","[0,1,1,1]",0,62,62,62,1,1,1,,,1,FALSE,,,,,,,,,,,,,,,,,,,,,,,,,,,,,,
,5e9133f704391d46ee2bcb31,001,2022-04-28_21h11.41.627,classification_task,2021.2.3,Win32,60.81245439,5e9133f704391d46ee2bcb31,626b377229c10585ec392f89,626b3b17cd2dc8cbf2e4efbd,,,,,,,,,,,,,,,,,,,,,,,l,1,1.5161,"[""0.025"",""0.191"",""0.579"",""0.426""]","[1,1,1,0]",0,63,63,63,1,1,0,,,1,FALSE,,,,,,,,,,,,,,,,,,,,,,,,,,,,,,
,5e9133f704391d46ee2bcb31,001,2022-04-28_21h11.41.627,classification_task,2021.2.3,Win32,60.81245439,5e9133f704391d46ee2bcb31,626b377229c10585ec392f89,626b3b17cd2dc8cbf2e4efbd,,,,,,,,,,,,,,,,,,,,,,,,,,,,,,,,,,,,,,,0, ,,0,6.06784612,245.4358,0,2,2,2,1,2,3,,,,,,,,,,,,,,,,,
,5e9133f704391d46ee2bcb31,001,2022-04-28_21h11.41.627,classification_task,2021.2.3,Win32,60.81245439,5e9133f704391d46ee2bcb31,626b377229c10585ec392f89,626b3b17cd2dc8cbf2e4efbd,,,,,,,,,,,,,,,,,,,,,,,,,,,,,,,,,,,,,,,1,  ,,0,4.448853616,253.1963,0,2,2,2,1,2,3,,,,,,,,,,,,,,,,,
,5e9133f704391d46ee2bcb31,001,2022-04-28_21h11.41.627,classification_task,2021.2.3,Win32,60.81245439,5e9133f704391d46ee2bcb31,626b377229c10585ec392f89,626b3b17cd2dc8cbf2e4efbd,,,,,,,,,,,,,,,,,,,,,,,,,,,,,,,,,,,,,,,2,  ,,0,6.274526014,258.584,0,2,2,2,1,2,3,,,,,,,,,,,,,,,,,
,5e9133f704391d46ee2bcb31,001,2022-04-28_21h11.41.627,classification_task,2021.2.3,Win32,60.81245439,5e9133f704391d46ee2bcb31,626b377229c10585ec392f89,626b3b17cd2dc8cbf2e4efbd,,,,,,,,,,,,,,,,,,,,,,,,,,,,,,,,,,,,,,,,,,,,,0,2,2,2,1,,3,,,,,,,,,,,,,,,,,
,5e9133f704391d46ee2bcb31,001,2022-04-28_21h11.41.627,classification_task,2021.2.3,Win32,60.81245439,5e9133f704391d46ee2bcb31,626b377229c10585ec392f89,626b3b17cd2dc8cbf2e4efbd,,,,,,,,,,,,,,,,,,,,,,,,,,,,,,,,,,,,,,,,,,,,,,,,,,,,,I believe the aid is a competent performer,,0.7,0,3,1004.7076,0,0,0,0,1,0,,,,
,5e9133f704391d46ee2bcb31,001,2022-04-28_21h11.41.627,classification_task,2021.2.3,Win32,60.81245439,5e9133f704391d46ee2bcb31,626b377229c10585ec392f89,626b3b17cd2dc8cbf2e4efbd,,,,,,,,,,,,,,,,,,,,,,,,,,,,,,,,,,,,,,,,,,,,,,,,,,,,,I trust the aid,,0.7,0,2,1007.1458,0,0,0,0,1,0,,,,
,5e9133f704391d46ee2bcb31,001,2022-04-28_21h11.41.627,classification_task,2021.2.3,Win32,60.81245439,5e9133f704391d46ee2bcb31,626b377229c10585ec392f89,626b3b17cd2dc8cbf2e4efbd,,,,,,,,,,,,,,,,,,,,,,,,,,,,,,,,,,,,,,,,,,,,,,,,,,,,,I have confidence in the advice given by the aid,,0.7,0,3,1045.5116,0,0,0,0,1,0,,,,
,5e9133f704391d46ee2bcb31,001,2022-04-28_21h11.41.627,classification_task,2021.2.3,Win32,60.81245439,5e9133f704391d46ee2bcb31,626b377229c10585ec392f89,626b3b17cd2dc8cbf2e4efbd,,,,,,,,,,,,,,,,,,,,,,,,,,,,,,,,,,,,,,,,,,,,,,,,,,,,,I can depend on the aid,,0.7,0,2,1047.2632,0,0,0,0,1,0,,,,
,5e9133f704391d46ee2bcb31,001,2022-04-28_21h11.41.627,classification_task,2021.2.3,Win32,60.81245439,5e9133f704391d46ee2bcb31,626b377229c10585ec392f89,626b3b17cd2dc8cbf2e4efbd,,,,,,,,,,,,,,,,,,,,,,,,,,,,,,,,,,,,,,,,,,,,,,,,,,,,,I can rely on the aid to behave in consistent ways,,0.7,0,3,1016.0698,0,0,0,0,1,0,,,,
,5e9133f704391d46ee2bcb31,001,2022-04-28_21h11.41.627,classification_task,2021.2.3,Win32,60.81245439,5e9133f704391d46ee2bcb31,626b377229c10585ec392f89,626b3b17cd2dc8cbf2e4efbd,,,,,,,,,,,,,,,,,,,,,,,,,,,,,,,,,,,,,,,,,,,,,,,,,,,,,I can rely on the aid to do its best every time I take its advice,,0.7,0,2,1019.3029,0,0,0,0,1,0,,,,
,5e9133f704391d46ee2bcb31,001,2022-04-28_21h11.41.627,classification_task,2021.2.3,Win32,60.81245439,5e9133f704391d46ee2bcb31,626b377229c10585ec392f89,626b3b17cd2dc8cbf2e4efbd,,,,,,,,,,,,,,,,,,,,,,,,,,,,,,,,,,,,,,,,,,,,,,,,,,,,,"On trials you completed with assistance from the aid, how frequently did you think the aid was correct?",,0.7,0,50%,,0,0,0,0,1,0,,,,
,5e9133f704391d46ee2bcb31,001,2022-04-28_21h11.41.627,classification_task,2021.2.3,Win32,60.81245439,5e9133f704391d46ee2bcb31,626b377229c10585ec392f89,626b3b17cd2dc8cbf2e4efbd,,,,,,,,,,,,,,,,,,,,,,,,,,,,,,,,,,,,,,,,,,,,,,,,,,,,,"On trials you completed without the aid, how frequently did you think you were correct?",,0.7,0,40%,,0,0,0,0,1,0,,,,
,5e9133f704391d46ee2bcb31,001,2022-04-28_21h11.41.627,classification_task,2021.2.3,Win32,60.81245439,5e9133f704391d46ee2bcb31,626b377229c10585ec392f89,626b3b17cd2dc8cbf2e4efbd,,,,,,,,,,,,,,,,,,,,,,,,,,,,,,,,,,,,,,,,,,,,,,,,,,,,,,,,,,,0,0,0,0,1,,,,,
,5e9133f704391d46ee2bcb31,001,2022-04-28_21h11.41.627,classification_task,2021.2.3,Win32,60.81245439,5e9133f704391d46ee2bcb31,626b377229c10585ec392f89,626b3b17cd2dc8cbf2e4efbd,,,,,,,,,,,,,,,,,,,,,,,,,,,,,,,,,,,,,,,,,,,,,,,,,,,,,,,,,,,,,,,,,space,11.8479,1062.7606,
,5e9133f704391d46ee2bcb31,001,2022-04-28_21h11.41.627,classification_task,2021.2.3,Win32,60.81245439,5e9133f704391d46ee2bcb31,626b377229c10585ec392f89,626b3b17cd2dc8cbf2e4efbd,,,,,,,,,,,,,,,,,,,,,,,,,,,,,,,,,,,,,,,,,,,,,,,,,,,,,,,,,,,,,,,,,,,,"Mozilla/5.0 (Windows NT 10.0; Win64; x64) AppleWebKit/537.36 (KHTML, like Gecko) Chrome/100.0.4896.127 Safari/537.36"
