usingWebGL,participant,session,date,expName,psychopyVersion,OS,frameRate,study_id,signatures_friend,signatures_foe,band_ranges_top,band_ranges_bottom,formitemText,formtype,formundefined,formitemWidth,formindex,formresponse,formrt,key_resp_2.keys,key_resp_2.rt,tute_resp.keys,tute_resp.rt,tutorial.thisRepN,tutorial.thisTrialN,tutorial.thisN,tutorial.thisIndex,tutorial.ran,key_resp_4.keys,key_resp_4.rt,key_resp.keys,key_resp.corr,lines_presented,is_signal_presented,trials.thisRepN,trials.thisTrialN,trials.thisN,trials.thisIndex,trials.ran,vessel,active_band,lines,is_signal,supported_pos,catch_trial,key_resp.rt,debrief_formindex,debrief_formitemText,debrief_formtype,debrief_formitemWidth,debrief_formresponse,debrief_formrt,phases.thisRepN,phases.thisTrialN,phases.thisN,phases.thisIndex,phases.ran,phases.order,phase,key_resp_3.keys,trustitemText,trusttype,trustitemWidth,trustindex,trustresponse,trustrt,support_status.thisRepN,support_status.thisTrialN,support_status.thisN,support_status.thisIndex,support_status.ran,support_status.order,key_resp_5.keys,key_resp_5.rt,globalClockTime,userAgent,manualCondition
TRUE,5ea6572b086c724ee6eb019a,627c6f8c10af4547ceae7ee5,2022-05-11_22h24.05.808,classification_task,2021.2.3,Win32,60.7348922,627c6715c52fd12f31907bcf,,,,,,,,,,,,,,,,,,,,,,,,,,,,,,,,,,,,,,,,,,,,,,,,,,,,,,,,,,,,,,,,,,,,,
,5ea6572b086c724ee6eb019a,627c6f8c10af4547ceae7ee5,2022-05-11_22h24.05.808,classification_task,2021.2.3,Win32,60.7348922,627c6715c52fd12f31907bcf,"[[""0.281"",""0.396"",""0.889"",""0.973""],[""0.185"",""0.355"",""0.822"",""0.939""]]","[[""0.146"",""0.219"",""0.569"",""0.743""],[""0.061"",""0.316"",""0.662"",""0.779""]]","[1,10]","[100,1000]",Video game experience,,,0.7,0,,,,,,,,,,,,,,,,,,,,,,,,,,,,,,,,,,,,,,,,,,,,,,,,,,,,,,,,,,,,
,5ea6572b086c724ee6eb019a,627c6f8c10af4547ceae7ee5,2022-05-11_22h24.05.808,classification_task,2021.2.3,Win32,60.7348922,627c6715c52fd12f31907bcf,,,,,Approximately how many hours did you spend playing video games in the last week?,,,0.7,0,14,,,,,,,,,,,,,,,,,,,,,,,,,,,,,,,,,,,,,,,,,,,,,,,,,,,,,,,,,,,
,5ea6572b086c724ee6eb019a,627c6f8c10af4547ceae7ee5,2022-05-11_22h24.05.808,classification_task,2021.2.3,Win32,60.7348922,627c6715c52fd12f31907bcf,,,,,"Which game did you play the most this year? (Enter ""None"" if you didn't play any)",,,0.7,0,Assetto Corsa,,,,,,,,,,,,,,,,,,,,,,,,,,,,,,,,,,,,,,,,,,,,,,,,,,,,,,,,,,,
,5ea6572b086c724ee6eb019a,627c6f8c10af4547ceae7ee5,2022-05-11_22h24.05.808,classification_task,2021.2.3,Win32,60.7348922,627c6715c52fd12f31907bcf,,,,,Visual perception,,,0.7,0,,,,,,,,,,,,,,,,,,,,,,,,,,,,,,,,,,,,,,,,,,,,,,,,,,,,,,,,,,,,
,5ea6572b086c724ee6eb019a,627c6f8c10af4547ceae7ee5,2022-05-11_22h24.05.808,classification_task,2021.2.3,Win32,60.7348922,627c6715c52fd12f31907bcf,,,,,Do you have any form of color blindness?,,,0.7,0,No,40.8791,,,,,,,,,,,,,,,,,,,,,,,,,,,,,,,,,,,,,,,,,,,,,,,,,,,,,,,,,,
,5ea6572b086c724ee6eb019a,627c6f8c10af4547ceae7ee5,2022-05-11_22h24.05.808,classification_task,2021.2.3,Win32,60.7348922,627c6715c52fd12f31907bcf,,,,,Do you use software to change the colour temperature of your screen (e.g. f.lux)?,,,0.7,0,No,43.2467,,,,,,,,,,,,,,,,,,,,,,,,,,,,,,,,,,,,,,,,,,,,,,,,,,,,,,,,,,
,5ea6572b086c724ee6eb019a,627c6f8c10af4547ceae7ee5,2022-05-11_22h24.05.808,classification_task,2021.2.3,Win32,60.7348922,627c6715c52fd12f31907bcf,,,,,,,,,,,,space,18.3979,space,11.0754,0,0,0,0,1,,,,,,,,,,,,,,,,,,,,,,,,,,,,,,,,,,,,,,,,,,,,,,,,,
,5ea6572b086c724ee6eb019a,627c6f8c10af4547ceae7ee5,2022-05-11_22h24.05.808,classification_task,2021.2.3,Win32,60.7348922,627c6715c52fd12f31907bcf,,,,,,,,,,,,,,space,9.2268,1,0,1,0,1,,,,,,,,,,,,,,,,,,,,,,,,,,,,,,,,,,,,,,,,,,,,,,,,,
,5ea6572b086c724ee6eb019a,627c6f8c10af4547ceae7ee5,2022-05-11_22h24.05.808,classification_task,2021.2.3,Win32,60.7348922,627c6715c52fd12f31907bcf,,,,,,,,,,,,,,space,23.0921,2,0,2,0,1,,,,,,,,,,,,,,,,,,,,,,,,,,,,,,,,,,,,,,,,,,,,,,,,,
,5ea6572b086c724ee6eb019a,627c6f8c10af4547ceae7ee5,2022-05-11_22h24.05.808,classification_task,2021.2.3,Win32,60.7348922,627c6715c52fd12f31907bcf,,,,,,,,,,,,,,space,3.9621,3,0,3,0,1,,,,,,,,,,,,,,,,,,,,,,,,,,,,,,,,,,,,,,,,,,,,,,,,,
,5ea6572b086c724ee6eb019a,627c6f8c10af4547ceae7ee5,2022-05-11_22h24.05.808,classification_task,2021.2.3,Win32,60.7348922,627c6715c52fd12f31907bcf,,,,,,,,,,,,,,space,6.5458,4,0,4,0,1,,,,,,,,,,,,,,,,,,,,,,,,,,,,,,,,,,,,,,,,,,,,,,,,,
,5ea6572b086c724ee6eb019a,627c6f8c10af4547ceae7ee5,2022-05-11_22h24.05.808,classification_task,2021.2.3,Win32,60.7348922,627c6715c52fd12f31907bcf,,,,,,,,,,,,,,,,,,,,,space,9.1735,,0,"[""0.185"",""0.355"",""0.473"",""0.939""]","[1,1,0,1]",0,0,0,0,1,0,1,,,1,FALSE,,,,,,,,,,,,,,,,,,,,,,,,,,,,,,,,
,5ea6572b086c724ee6eb019a,627c6f8c10af4547ceae7ee5,2022-05-11_22h24.05.808,classification_task,2021.2.3,Win32,60.7348922,627c6715c52fd12f31907bcf,,,,,,,,,,,,,,,,,,,,,,,l,1,"[""0.061"",""0.316"",""0.662"",""0.517""]","[1,1,1,0]",0,1,1,1,1,1,1,,,1,FALSE,3.9489,,,,,,,,,,,,,,,,,,,,,,,,,,,,,,,
,5ea6572b086c724ee6eb019a,627c6f8c10af4547ceae7ee5,2022-05-11_22h24.05.808,classification_task,2021.2.3,Win32,60.7348922,627c6715c52fd12f31907bcf,,,,,,,,,,,,,,,,,,,,,,,l,1,"[""0.146"",""0.219"",""0.569"",""0.448""]","[1,1,1,0]",0,2,2,2,1,1,0,,,1,FALSE,4.0906,,,,,,,,,,,,,,,,,,,,,,,,,,,,,,,
,5ea6572b086c724ee6eb019a,627c6f8c10af4547ceae7ee5,2022-05-11_22h24.05.808,classification_task,2021.2.3,Win32,60.7348922,627c6715c52fd12f31907bcf,,,,,,,,,,,,,,,,,,,,,,,a,1,"[""0.281"",""0.396"",""0.889"",""0.098""]","[1,1,1,0]",0,3,3,3,1,0,0,,,1,FALSE,5.0124,,,,,,,,,,,,,,,,,,,,,,,,,,,,,,,
,5ea6572b086c724ee6eb019a,627c6f8c10af4547ceae7ee5,2022-05-11_22h24.05.808,classification_task,2021.2.3,Win32,60.7348922,627c6715c52fd12f31907bcf,,,,,,,,,,,,,,,,,,,,,,,a,0,"[""0.448"",""0.316"",""0.662"",""0.779""]","[0,1,1,1]",0,4,4,4,1,1,1,,,1,FALSE,6.8556,,,,,,,,,,,,,,,,,,,,,,,,,,,,,,,
,5ea6572b086c724ee6eb019a,627c6f8c10af4547ceae7ee5,2022-05-11_22h24.05.808,classification_task,2021.2.3,Win32,60.7348922,627c6715c52fd12f31907bcf,,,,,,,,,,,,,,,,,,,,,,,a,1,"[""0.185"",""0.355"",""0.822"",""0.518""]","[1,1,1,0]",0,5,5,5,1,0,1,,,1,FALSE,6.4463,,,,,,,,,,,,,,,,,,,,,,,,,,,,,,,
,5ea6572b086c724ee6eb019a,627c6f8c10af4547ceae7ee5,2022-05-11_22h24.05.808,classification_task,2021.2.3,Win32,60.7348922,627c6715c52fd12f31907bcf,,,,,,,,,,,,,,,,,,,,,,,a,1,"[""0.517"",""0.355"",""0.822"",""0.939""]","[0,1,1,1]",0,6,6,6,1,0,1,,,1,FALSE,7.4911,,,,,,,,,,,,,,,,,,,,,,,,,,,,,,,
,5ea6572b086c724ee6eb019a,627c6f8c10af4547ceae7ee5,2022-05-11_22h24.05.808,classification_task,2021.2.3,Win32,60.7348922,627c6715c52fd12f31907bcf,,,,,,,,,,,,,,,,,,,,,,,a,1,"[""0.098"",""0.396"",""0.889"",""0.973""]","[0,1,1,1]",0,7,7,7,1,0,0,,,1,FALSE,5.7665,,,,,,,,,,,,,,,,,,,,,,,,,,,,,,,
,5ea6572b086c724ee6eb019a,627c6f8c10af4547ceae7ee5,2022-05-11_22h24.05.808,classification_task,2021.2.3,Win32,60.7348922,627c6715c52fd12f31907bcf,,,,,,,,,,,,,,,,,,,,,,,a,1,"[""0.185"",""0.517"",""0.822"",""0.939""]","[1,0,1,1]",0,8,8,8,1,0,1,,,1,FALSE,6.5909,,,,,,,,,,,,,,,,,,,,,,,,,,,,,,,
,5ea6572b086c724ee6eb019a,627c6f8c10af4547ceae7ee5,2022-05-11_22h24.05.808,classification_task,2021.2.3,Win32,60.7348922,627c6715c52fd12f31907bcf,,,,,,,,,,,,,,,,,,,,,,,l,1,"[""0.146"",""0.531"",""0.569"",""0.743""]","[1,0,1,1]",0,9,9,9,1,1,0,,,1,FALSE,5.9825,,,,,,,,,,,,,,,,,,,,,,,,,,,,,,,
,5ea6572b086c724ee6eb019a,627c6f8c10af4547ceae7ee5,2022-05-11_22h24.05.808,classification_task,2021.2.3,Win32,60.7348922,627c6715c52fd12f31907bcf,,,,,,,,,,,,,,,,,,,,,,,a,1,"[""0.281"",""0.446"",""0.889"",""0.973""]","[1,0,1,1]",0,10,10,10,1,0,0,,,1,FALSE,5.3449,,,,,,,,,,,,,,,,,,,,,,,,,,,,,,,
,5ea6572b086c724ee6eb019a,627c6f8c10af4547ceae7ee5,2022-05-11_22h24.05.808,classification_task,2021.2.3,Win32,60.7348922,627c6715c52fd12f31907bcf,,,,,,,,,,,,,,,,,,,,,,,l,1,"[""0.531"",""0.219"",""0.569"",""0.743""]","[0,1,1,1]",0,11,11,11,1,1,0,,,1,FALSE,7.2039,,,,,,,,,,,,,,,,,,,,,,,,,,,,,,,
,5ea6572b086c724ee6eb019a,627c6f8c10af4547ceae7ee5,2022-05-11_22h24.05.808,classification_task,2021.2.3,Win32,60.7348922,627c6715c52fd12f31907bcf,,,,,,,,,,,,,,,,,,,,,,,l,1,"[""0.061"",""0.316"",""0.504"",""0.779""]","[1,1,0,1]",0,12,12,12,1,1,1,,,1,FALSE,4.9602,,,,,,,,,,,,,,,,,,,,,,,,,,,,,,,
,5ea6572b086c724ee6eb019a,627c6f8c10af4547ceae7ee5,2022-05-11_22h24.05.808,classification_task,2021.2.3,Win32,60.7348922,627c6715c52fd12f31907bcf,,,,,,,,,,,,,,,,,,,,,,,l,1,"[""0.061"",""0.450"",""0.662"",""0.779""]","[1,0,1,1]",0,13,13,13,1,1,1,,,1,FALSE,2.8713,,,,,,,,,,,,,,,,,,,,,,,,,,,,,,,
,5ea6572b086c724ee6eb019a,627c6f8c10af4547ceae7ee5,2022-05-11_22h24.05.808,classification_task,2021.2.3,Win32,60.7348922,627c6715c52fd12f31907bcf,,,,,,,,,,,,,,,,,,,,,,,l,1,"[""0.146"",""0.219"",""0.517"",""0.743""]","[1,1,0,1]",0,14,14,14,1,1,0,,,1,FALSE,3.053,,,,,,,,,,,,,,,,,,,,,,,,,,,,,,,
,5ea6572b086c724ee6eb019a,627c6f8c10af4547ceae7ee5,2022-05-11_22h24.05.808,classification_task,2021.2.3,Win32,60.7348922,627c6715c52fd12f31907bcf,,,,,,,,,,,,,,,,,,,,,,,a,1,"[""0.281"",""0.396"",""0.098"",""0.973""]","[1,1,0,1]",0,15,15,15,1,0,0,,,1,FALSE,5.3098,,,,,,,,,,,,,,,,,,,,,,,,,,,,,,,
,5ea6572b086c724ee6eb019a,627c6f8c10af4547ceae7ee5,2022-05-11_22h24.05.808,classification_task,2021.2.3,Win32,60.7348922,627c6715c52fd12f31907bcf,,,,,,,,,,,,,,,,,,,,,,,l,1,"[""0.146"",""0.518"",""0.569"",""0.743""]","[1,0,1,1]",0,16,16,16,1,1,0,,,1,FALSE,4.2612,,,,,,,,,,,,,,,,,,,,,,,,,,,,,,,
,5ea6572b086c724ee6eb019a,627c6f8c10af4547ceae7ee5,2022-05-11_22h24.05.808,classification_task,2021.2.3,Win32,60.7348922,627c6715c52fd12f31907bcf,,,,,,,,,,,,,,,,,,,,,,,l,1,"[""0.061"",""0.103"",""0.662"",""0.779""]","[1,0,1,1]",0,17,17,17,1,1,1,,,1,FALSE,3.234,,,,,,,,,,,,,,,,,,,,,,,,,,,,,,,
,5ea6572b086c724ee6eb019a,627c6f8c10af4547ceae7ee5,2022-05-11_22h24.05.808,classification_task,2021.2.3,Win32,60.7348922,627c6715c52fd12f31907bcf,,,,,,,,,,,,,,,,,,,,,,,l,1,"[""0.146"",""0.219"",""0.569"",""0.111""]","[1,1,1,0]",0,18,18,18,1,1,0,,,1,FALSE,3.165,,,,,,,,,,,,,,,,,,,,,,,,,,,,,,,
,5ea6572b086c724ee6eb019a,627c6f8c10af4547ceae7ee5,2022-05-11_22h24.05.808,classification_task,2021.2.3,Win32,60.7348922,627c6715c52fd12f31907bcf,,,,,,,,,,,,,,,,,,,,,,,a,1,"[""0.281"",""0.396"",""0.450"",""0.973""]","[1,1,0,1]",0,19,19,19,1,0,0,,,1,FALSE,3.046,,,,,,,,,,,,,,,,,,,,,,,,,,,,,,,
,5ea6572b086c724ee6eb019a,627c6f8c10af4547ceae7ee5,2022-05-11_22h24.05.808,classification_task,2021.2.3,Win32,60.7348922,627c6715c52fd12f31907bcf,,,,,,,,,,,,,,,,,,,,,,,l,1,"[""0.061"",""0.316"",""0.473"",""0.779""]","[1,1,0,1]",0,20,20,20,1,1,1,,,1,FALSE,5.2578,,,,,,,,,,,,,,,,,,,,,,,,,,,,,,,
,5ea6572b086c724ee6eb019a,627c6f8c10af4547ceae7ee5,2022-05-11_22h24.05.808,classification_task,2021.2.3,Win32,60.7348922,627c6715c52fd12f31907bcf,,,,,,,,,,,,,,,,,,,,,,,a,1,"[""0.185"",""0.450"",""0.822"",""0.939""]","[1,0,1,1]",0,21,21,21,1,0,1,,,1,FALSE,4.2449,,,,,,,,,,,,,,,,,,,,,,,,,,,,,,,
,5ea6572b086c724ee6eb019a,627c6f8c10af4547ceae7ee5,2022-05-11_22h24.05.808,classification_task,2021.2.3,Win32,60.7348922,627c6715c52fd12f31907bcf,,,,,,,,,,,,,,,,,,,,,,,a,1,"[""0.185"",""0.355"",""0.822"",""0.450""]","[1,1,1,0]",0,22,22,22,1,0,1,,,1,FALSE,3.1947,,,,,,,,,,,,,,,,,,,,,,,,,,,,,,,
,5ea6572b086c724ee6eb019a,627c6f8c10af4547ceae7ee5,2022-05-11_22h24.05.808,classification_task,2021.2.3,Win32,60.7348922,627c6715c52fd12f31907bcf,,,,,,,,,,,,,,,,,,,,,,,l,1,"[""0.146"",""0.219"",""0.473"",""0.743""]","[1,1,0,1]",0,23,23,23,1,1,0,,,1,FALSE,2.53,,,,,,,,,,,,,,,,,,,,,,,,,,,,,,,
,5ea6572b086c724ee6eb019a,627c6f8c10af4547ceae7ee5,2022-05-11_22h24.05.808,classification_task,2021.2.3,Win32,60.7348922,627c6715c52fd12f31907bcf,,,,,,,,,,,,,,,,,,,,,,,a,1,"[""0.103"",""0.396"",""0.889"",""0.973""]","[0,1,1,1]",0,24,24,24,1,0,0,,,1,FALSE,4.0306,,,,,,,,,,,,,,,,,,,,,,,,,,,,,,,
,5ea6572b086c724ee6eb019a,627c6f8c10af4547ceae7ee5,2022-05-11_22h24.05.808,classification_task,2021.2.3,Win32,60.7348922,627c6715c52fd12f31907bcf,,,,,,,,,,,,,,,,,,,,,,,l,1,"[""0.103"",""0.316"",""0.662"",""0.779""]","[0,1,1,1]",0,25,25,25,1,1,1,,,1,FALSE,4.508,,,,,,,,,,,,,,,,,,,,,,,,,,,,,,,
,5ea6572b086c724ee6eb019a,627c6f8c10af4547ceae7ee5,2022-05-11_22h24.05.808,classification_task,2021.2.3,Win32,60.7348922,627c6715c52fd12f31907bcf,,,,,,,,,,,,,,,,,,,,,,,l,1,"[""0.517"",""0.219"",""0.569"",""0.743""]","[0,1,1,1]",0,26,26,26,1,1,0,,,1,FALSE,3.7364,,,,,,,,,,,,,,,,,,,,,,,,,,,,,,,
,5ea6572b086c724ee6eb019a,627c6f8c10af4547ceae7ee5,2022-05-11_22h24.05.808,classification_task,2021.2.3,Win32,60.7348922,627c6715c52fd12f31907bcf,,,,,,,,,,,,,,,,,,,,,,,a,1,"[""0.281"",""0.396"",""0.889"",""0.103""]","[1,1,1,0]",0,27,27,27,1,0,0,,,1,FALSE,5.1442,,,,,,,,,,,,,,,,,,,,,,,,,,,,,,,
,5ea6572b086c724ee6eb019a,627c6f8c10af4547ceae7ee5,2022-05-11_22h24.05.808,classification_task,2021.2.3,Win32,60.7348922,627c6715c52fd12f31907bcf,,,,,,,,,,,,,,,,,,,,,,,l,1,"[""0.061"",""0.316"",""0.662"",""0.450""]","[1,1,1,0]",0,28,28,28,1,1,1,,,1,FALSE,7.2818,,,,,,,,,,,,,,,,,,,,,,,,,,,,,,,
,5ea6572b086c724ee6eb019a,627c6f8c10af4547ceae7ee5,2022-05-11_22h24.05.808,classification_task,2021.2.3,Win32,60.7348922,627c6715c52fd12f31907bcf,,,,,,,,,,,,,,,,,,,,,,,a,1,"[""0.504"",""0.355"",""0.822"",""0.939""]","[0,1,1,1]",0,29,29,29,1,0,1,,,1,FALSE,6.2257,,,,,,,,,,,,,,,,,,,,,,,,,,,,,,,
,5ea6572b086c724ee6eb019a,627c6f8c10af4547ceae7ee5,2022-05-11_22h24.05.808,classification_task,2021.2.3,Win32,60.7348922,627c6715c52fd12f31907bcf,,,,,,,,,,,,,,,,,,,,,,,a,1,"[""0.281"",""0.098"",""0.889"",""0.973""]","[1,0,1,1]",0,30,30,30,1,0,0,,,1,FALSE,3.5272,,,,,,,,,,,,,,,,,,,,,,,,,,,,,,,
,5ea6572b086c724ee6eb019a,627c6f8c10af4547ceae7ee5,2022-05-11_22h24.05.808,classification_task,2021.2.3,Win32,60.7348922,627c6715c52fd12f31907bcf,,,,,,,,,,,,,,,,,,,,,,,a,1,"[""0.185"",""0.355"",""0.446"",""0.939""]","[1,1,0,1]",0,31,31,31,1,0,1,,,1,FALSE,3.277,,,,,,,,,,,,,,,,,,,,,,,,,,,,,,,
,5ea6572b086c724ee6eb019a,627c6f8c10af4547ceae7ee5,2022-05-11_22h24.05.808,classification_task,2021.2.3,Win32,60.7348922,627c6715c52fd12f31907bcf,,,,,,,,,,,,,,,,,,,,,,,l,0,"[""0.185"",""0.355"",""0.098"",""0.939""]","[1,1,0,1]",0,32,32,32,1,0,1,,,1,FALSE,4.0466,,,,,,,,,,,,,,,,,,,,,,,,,,,,,,,
,5ea6572b086c724ee6eb019a,627c6f8c10af4547ceae7ee5,2022-05-11_22h24.05.808,classification_task,2021.2.3,Win32,60.7348922,627c6715c52fd12f31907bcf,,,,,,,,,,,,,,,,,,,,,,,l,1,"[""0.146"",""0.219"",""0.569"",""0.448""]","[1,1,1,0]",0,33,33,33,1,1,0,,,1,FALSE,2.3534,,,,,,,,,,,,,,,,,,,,,,,,,,,,,,,
,5ea6572b086c724ee6eb019a,627c6f8c10af4547ceae7ee5,2022-05-11_22h24.05.808,classification_task,2021.2.3,Win32,60.7348922,627c6715c52fd12f31907bcf,,,,,,,,,,,,,,,,,,,,,,,a,1,"[""0.281"",""0.396"",""0.098"",""0.973""]","[1,1,0,1]",0,34,34,34,1,0,0,,,1,FALSE,1.1282,,,,,,,,,,,,,,,,,,,,,,,,,,,,,,,
,5ea6572b086c724ee6eb019a,627c6f8c10af4547ceae7ee5,2022-05-11_22h24.05.808,classification_task,2021.2.3,Win32,60.7348922,627c6715c52fd12f31907bcf,,,,,,,,,,,,,,,,,,,,,,,l,1,"[""0.146"",""0.104"",""0.569"",""0.743""]","[1,0,1,1]",0,35,35,35,1,1,0,,,1,FALSE,1.0156,,,,,,,,,,,,,,,,,,,,,,,,,,,,,,,
,5ea6572b086c724ee6eb019a,627c6f8c10af4547ceae7ee5,2022-05-11_22h24.05.808,classification_task,2021.2.3,Win32,60.7348922,627c6715c52fd12f31907bcf,,,,,,,,,,,,,,,,,,,,,,,a,1,"[""0.185"",""0.355"",""0.822"",""0.531""]","[1,1,1,0]",0,36,36,36,1,0,1,,,1,FALSE,1.1497,,,,,,,,,,,,,,,,,,,,,,,,,,,,,,,
,5ea6572b086c724ee6eb019a,627c6f8c10af4547ceae7ee5,2022-05-11_22h24.05.808,classification_task,2021.2.3,Win32,60.7348922,627c6715c52fd12f31907bcf,,,,,,,,,,,,,,,,,,,,,,,a,1,"[""0.281"",""0.396"",""0.889"",""0.104""]","[1,1,1,0]",0,37,37,37,1,0,0,,,1,FALSE,1.1244,,,,,,,,,,,,,,,,,,,,,,,,,,,,,,,
,5ea6572b086c724ee6eb019a,627c6f8c10af4547ceae7ee5,2022-05-11_22h24.05.808,classification_task,2021.2.3,Win32,60.7348922,627c6715c52fd12f31907bcf,,,,,,,,,,,,,,,,,,,,,,,a,1,"[""0.026"",""0.355"",""0.822"",""0.939""]","[0,1,1,1]",0,38,38,38,1,0,1,,,1,FALSE,1.254,,,,,,,,,,,,,,,,,,,,,,,,,,,,,,,
,5ea6572b086c724ee6eb019a,627c6f8c10af4547ceae7ee5,2022-05-11_22h24.05.808,classification_task,2021.2.3,Win32,60.7348922,627c6715c52fd12f31907bcf,,,,,,,,,,,,,,,,,,,,,,,l,1,"[""0.531"",""0.219"",""0.569"",""0.743""]","[0,1,1,1]",0,39,39,39,1,1,0,,,1,FALSE,0.9661,,,,,,,,,,,,,,,,,,,,,,,,,,,,,,,
,5ea6572b086c724ee6eb019a,627c6f8c10af4547ceae7ee5,2022-05-11_22h24.05.808,classification_task,2021.2.3,Win32,60.7348922,627c6715c52fd12f31907bcf,,,,,,,,,,,,,,,,,,,,,,,a,0,"[""0.061"",""0.316"",""0.662"",""0.517""]","[1,1,1,0]",0,40,40,40,1,1,1,,,1,FALSE,0.8371,,,,,,,,,,,,,,,,,,,,,,,,,,,,,,,
,5ea6572b086c724ee6eb019a,627c6f8c10af4547ceae7ee5,2022-05-11_22h24.05.808,classification_task,2021.2.3,Win32,60.7348922,627c6715c52fd12f31907bcf,,,,,,,,,,,,,,,,,,,,,,,a,1,"[""0.098"",""0.396"",""0.889"",""0.973""]","[0,1,1,1]",0,41,41,41,1,0,0,,,1,FALSE,1.1211,,,,,,,,,,,,,,,,,,,,,,,,,,,,,,,
,5ea6572b086c724ee6eb019a,627c6f8c10af4547ceae7ee5,2022-05-11_22h24.05.808,classification_task,2021.2.3,Win32,60.7348922,627c6715c52fd12f31907bcf,,,,,,,,,,,,,,,,,,,,,,,l,1,"[""0.146"",""0.219"",""0.098"",""0.743""]","[1,1,0,1]",0,42,42,42,1,1,0,,,1,FALSE,1.0515,,,,,,,,,,,,,,,,,,,,,,,,,,,,,,,
,5ea6572b086c724ee6eb019a,627c6f8c10af4547ceae7ee5,2022-05-11_22h24.05.808,classification_task,2021.2.3,Win32,60.7348922,627c6715c52fd12f31907bcf,,,,,,,,,,,,,,,,,,,,,,,a,0,"[""0.061"",""0.450"",""0.662"",""0.779""]","[1,0,1,1]",0,43,43,43,1,1,1,,,1,FALSE,0.8264,,,,,,,,,,,,,,,,,,,,,,,,,,,,,,,
,5ea6572b086c724ee6eb019a,627c6f8c10af4547ceae7ee5,2022-05-11_22h24.05.808,classification_task,2021.2.3,Win32,60.7348922,627c6715c52fd12f31907bcf,,,,,,,,,,,,,,,,,,,,,,,a,0,"[""0.061"",""0.316"",""0.518"",""0.779""]","[1,1,0,1]",0,44,44,44,1,1,1,,,1,FALSE,0.7237,,,,,,,,,,,,,,,,,,,,,,,,,,,,,,,
,5ea6572b086c724ee6eb019a,627c6f8c10af4547ceae7ee5,2022-05-11_22h24.05.808,classification_task,2021.2.3,Win32,60.7348922,627c6715c52fd12f31907bcf,,,,,,,,,,,,,,,,,,,,,,,a,1,"[""0.281"",""0.473"",""0.889"",""0.973""]","[1,0,1,1]",0,45,45,45,1,0,0,,,1,FALSE,1.3494,,,,,,,,,,,,,,,,,,,,,,,,,,,,,,,
,5ea6572b086c724ee6eb019a,627c6f8c10af4547ceae7ee5,2022-05-11_22h24.05.808,classification_task,2021.2.3,Win32,60.7348922,627c6715c52fd12f31907bcf,,,,,,,,,,,,,,,,,,,,,,,a,0,"[""0.518"",""0.316"",""0.662"",""0.779""]","[0,1,1,1]",0,46,46,46,1,1,1,,,1,FALSE,0.9271,,,,,,,,,,,,,,,,,,,,,,,,,,,,,,,
,5ea6572b086c724ee6eb019a,627c6f8c10af4547ceae7ee5,2022-05-11_22h24.05.808,classification_task,2021.2.3,Win32,60.7348922,627c6715c52fd12f31907bcf,,,,,,,,,,,,,,,,,,,,,,,a,1,"[""0.185"",""0.450"",""0.822"",""0.939""]","[1,0,1,1]",0,47,47,47,1,0,1,,,1,FALSE,1.1695,,,,,,,,,,,,,,,,,,,,,,,,,,,,,,,
,5ea6572b086c724ee6eb019a,627c6f8c10af4547ceae7ee5,2022-05-11_22h24.05.808,classification_task,2021.2.3,Win32,60.7348922,627c6715c52fd12f31907bcf,,,,,,,,,,,,,,,,,,,,,,,l,0,"[""0.185"",""0.355"",""0.111"",""0.939""]","[1,1,0,1]",0,48,48,48,1,0,1,,,1,FALSE,1.0668,,,,,,,,,,,,,,,,,,,,,,,,,,,,,,,
,5ea6572b086c724ee6eb019a,627c6f8c10af4547ceae7ee5,2022-05-11_22h24.05.808,classification_task,2021.2.3,Win32,60.7348922,627c6715c52fd12f31907bcf,,,,,,,,,,,,,,,,,,,,,,,l,1,"[""0.146"",""0.219"",""0.504"",""0.743""]","[1,1,0,1]",0,49,49,49,1,1,0,,,1,FALSE,1.1189,,,,,,,,,,,,,,,,,,,,,,,,,,,,,,,
,5ea6572b086c724ee6eb019a,627c6f8c10af4547ceae7ee5,2022-05-11_22h24.05.808,classification_task,2021.2.3,Win32,60.7348922,627c6715c52fd12f31907bcf,,,,,,,,,,,,,,,,,,,,,,,a,1,"[""0.185"",""0.104"",""0.822"",""0.939""]","[1,0,1,1]",0,50,50,50,1,0,1,,,1,FALSE,1.2524,,,,,,,,,,,,,,,,,,,,,,,,,,,,,,,
,5ea6572b086c724ee6eb019a,627c6f8c10af4547ceae7ee5,2022-05-11_22h24.05.808,classification_task,2021.2.3,Win32,60.7348922,627c6715c52fd12f31907bcf,,,,,,,,,,,,,,,,,,,,,,,l,0,"[""0.281"",""0.396"",""0.889"",""0.518""]","[1,1,1,0]",0,51,51,51,1,0,0,,,1,FALSE,2.8183,,,,,,,,,,,,,,,,,,,,,,,,,,,,,,,
,5ea6572b086c724ee6eb019a,627c6f8c10af4547ceae7ee5,2022-05-11_22h24.05.808,classification_task,2021.2.3,Win32,60.7348922,627c6715c52fd12f31907bcf,,,,,,,,,,,,,,,,,,,,,,,a,0,"[""0.531"",""0.316"",""0.662"",""0.779""]","[0,1,1,1]",0,52,52,52,1,1,1,,,1,FALSE,1.9993,,,,,,,,,,,,,,,,,,,,,,,,,,,,,,,
,5ea6572b086c724ee6eb019a,627c6f8c10af4547ceae7ee5,2022-05-11_22h24.05.808,classification_task,2021.2.3,Win32,60.7348922,627c6715c52fd12f31907bcf,,,,,,,,,,,,,,,,,,,,,,,l,1,"[""0.061"",""0.098"",""0.662"",""0.779""]","[1,0,1,1]",0,53,53,53,1,1,1,,,1,FALSE,1.0641,,,,,,,,,,,,,,,,,,,,,,,,,,,,,,,
,5ea6572b086c724ee6eb019a,627c6f8c10af4547ceae7ee5,2022-05-11_22h24.05.808,classification_task,2021.2.3,Win32,60.7348922,627c6715c52fd12f31907bcf,,,,,,,,,,,,,,,,,,,,,,,a,1,"[""0.281"",""0.396"",""0.104"",""0.973""]","[1,1,0,1]",0,54,54,54,1,0,0,,,1,FALSE,1.1993,,,,,,,,,,,,,,,,,,,,,,,,,,,,,,,
,5ea6572b086c724ee6eb019a,627c6f8c10af4547ceae7ee5,2022-05-11_22h24.05.808,classification_task,2021.2.3,Win32,60.7348922,627c6715c52fd12f31907bcf,,,,,,,,,,,,,,,,,,,,,,,l,1,"[""0.146"",""0.219"",""0.569"",""0.111""]","[1,1,1,0]",0,55,55,55,1,1,0,,,1,FALSE,0.6939,,,,,,,,,,,,,,,,,,,,,,,,,,,,,,,
,5ea6572b086c724ee6eb019a,627c6f8c10af4547ceae7ee5,2022-05-11_22h24.05.808,classification_task,2021.2.3,Win32,60.7348922,627c6715c52fd12f31907bcf,,,,,,,,,,,,,,,,,,,,,,,a,1,"[""0.518"",""0.396"",""0.889"",""0.973""]","[0,1,1,1]",0,56,56,56,1,0,0,,,1,FALSE,0.9644,,,,,,,,,,,,,,,,,,,,,,,,,,,,,,,
,5ea6572b086c724ee6eb019a,627c6f8c10af4547ceae7ee5,2022-05-11_22h24.05.808,classification_task,2021.2.3,Win32,60.7348922,627c6715c52fd12f31907bcf,,,,,,,,,,,,,,,,,,,,,,,a,1,"[""0.185"",""0.355"",""0.822"",""0.518""]","[1,1,1,0]",0,57,57,57,1,0,1,,,1,FALSE,0.7158,,,,,,,,,,,,,,,,,,,,,,,,,,,,,,,
,5ea6572b086c724ee6eb019a,627c6f8c10af4547ceae7ee5,2022-05-11_22h24.05.808,classification_task,2021.2.3,Win32,60.7348922,627c6715c52fd12f31907bcf,,,,,,,,,,,,,,,,,,,,,,,l,1,"[""0.492"",""0.219"",""0.569"",""0.743""]","[0,1,1,1]",0,58,58,58,1,1,0,,,1,FALSE,0.7321,,,,,,,,,,,,,,,,,,,,,,,,,,,,,,,
,5ea6572b086c724ee6eb019a,627c6f8c10af4547ceae7ee5,2022-05-11_22h24.05.808,classification_task,2021.2.3,Win32,60.7348922,627c6715c52fd12f31907bcf,,,,,,,,,,,,,,,,,,,,,,,l,1,"[""0.146"",""0.517"",""0.569"",""0.743""]","[1,0,1,1]",0,59,59,59,1,1,0,,,1,FALSE,0.8385,,,,,,,,,,,,,,,,,,,,,,,,,,,,,,,
,5ea6572b086c724ee6eb019a,627c6f8c10af4547ceae7ee5,2022-05-11_22h24.05.808,classification_task,2021.2.3,Win32,60.7348922,627c6715c52fd12f31907bcf,,,,,,,,,,,,,,,,,,,,,,,a,1,"[""0.531"",""0.355"",""0.822"",""0.939""]","[0,1,1,1]",0,60,60,60,1,0,1,,,1,FALSE,0.724,,,,,,,,,,,,,,,,,,,,,,,,,,,,,,,
,5ea6572b086c724ee6eb019a,627c6f8c10af4547ceae7ee5,2022-05-11_22h24.05.808,classification_task,2021.2.3,Win32,60.7348922,627c6715c52fd12f31907bcf,,,,,,,,,,,,,,,,,,,,,,,a,0,"[""0.061"",""0.316"",""0.662"",""0.448""]","[1,1,1,0]",0,61,61,61,1,1,1,,,1,FALSE,0.4429,,,,,,,,,,,,,,,,,,,,,,,,,,,,,,,
,5ea6572b086c724ee6eb019a,627c6f8c10af4547ceae7ee5,2022-05-11_22h24.05.808,classification_task,2021.2.3,Win32,60.7348922,627c6715c52fd12f31907bcf,,,,,,,,,,,,,,,,,,,,,,,l,1,"[""0.061"",""0.316"",""0.098"",""0.779""]","[1,1,0,1]",0,62,62,62,1,1,1,,,1,FALSE,0.8664,,,,,,,,,,,,,,,,,,,,,,,,,,,,,,,
,5ea6572b086c724ee6eb019a,627c6f8c10af4547ceae7ee5,2022-05-11_22h24.05.808,classification_task,2021.2.3,Win32,60.7348922,627c6715c52fd12f31907bcf,,,,,,,,,,,,,,,,,,,,,,,l,0,"[""0.281"",""0.450"",""0.889"",""0.973""]","[1,0,1,1]",0,63,63,63,1,0,0,,,1,FALSE,1.2826,,,,,,,,,,,,,,,,,,,,,,,,,,,,,,,
,5ea6572b086c724ee6eb019a,627c6f8c10af4547ceae7ee5,2022-05-11_22h24.05.808,classification_task,2021.2.3,Win32,60.7348922,627c6715c52fd12f31907bcf,,,,,,,,,,,,,,,,,,,,,,,,,,,,,,,,,,,,,,,0, ,,0,0,429.002,0,0,0,0,1,2,1,,,,,,,,,,,,,,,,,,
,5ea6572b086c724ee6eb019a,627c6f8c10af4547ceae7ee5,2022-05-11_22h24.05.808,classification_task,2021.2.3,Win32,60.7348922,627c6715c52fd12f31907bcf,,,,,,,,,,,,,,,,,,,,,,,,,,,,,,,,,,,,,,,1,  ,,0,3.609887463,426.8247,0,0,0,0,1,2,1,,,,,,,,,,,,,,,,,,
,5ea6572b086c724ee6eb019a,627c6f8c10af4547ceae7ee5,2022-05-11_22h24.05.808,classification_task,2021.2.3,Win32,60.7348922,627c6715c52fd12f31907bcf,,,,,,,,,,,,,,,,,,,,,,,,,,,,,,,,,,,,,,,2,  ,,0,8.63144341,437.624,0,0,0,0,1,2,1,,,,,,,,,,,,,,,,,,
,5ea6572b086c724ee6eb019a,627c6f8c10af4547ceae7ee5,2022-05-11_22h24.05.808,classification_task,2021.2.3,Win32,60.7348922,627c6715c52fd12f31907bcf,,,,,,,,,,,,,,,,,,,,,,,,,,,,,,,,,,,,,,,,,,,,,0,0,0,0,1,,1,,,,,,,,,,,,,,,,,,
,5ea6572b086c724ee6eb019a,627c6f8c10af4547ceae7ee5,2022-05-11_22h24.05.808,classification_task,2021.2.3,Win32,60.7348922,627c6715c52fd12f31907bcf,,,,,,,,,,,,,,,,,,,,,space,13.8907,a,1,"[""0.185"",""0.355"",""0.103"",""0.939""]","[1,1,0,1]",0,0,0,0,1,0,1,,,1,FALSE,2.9872,,,,,,,,,,,,,,,,,,,,,,,,,,,,,,,
,5ea6572b086c724ee6eb019a,627c6f8c10af4547ceae7ee5,2022-05-11_22h24.05.808,classification_task,2021.2.3,Win32,60.7348922,627c6715c52fd12f31907bcf,,,,,,,,,,,,,,,,,,,,,,,a,1,"[""0.185"",""0.473"",""0.822"",""0.939""]","[1,0,1,1]",0,1,1,1,1,0,1,,,1,FALSE,1.3463,,,,,,,,,,,,,,,,,,,,,,,,,,,,,,,
,5ea6572b086c724ee6eb019a,627c6f8c10af4547ceae7ee5,2022-05-11_22h24.05.808,classification_task,2021.2.3,Win32,60.7348922,627c6715c52fd12f31907bcf,,,,,,,,,,,,,,,,,,,,,,,a,1,"[""0.281"",""0.504"",""0.889"",""0.973""]","[1,0,1,1]",0,2,2,2,1,0,0,,,1,FALSE,3.091,,,,,,,,,,,,,,,,,,,,,,,,,,,,,,,
,5ea6572b086c724ee6eb019a,627c6f8c10af4547ceae7ee5,2022-05-11_22h24.05.808,classification_task,2021.2.3,Win32,60.7348922,627c6715c52fd12f31907bcf,,,,,,,,,,,,,,,,,,,,,,,a,0,"[""0.061"",""0.448"",""0.662"",""0.779""]","[1,0,1,1]",0,3,3,3,1,1,1,,,1,FALSE,1.3537,,,,,,,,,,,,,,,,,,,,,,,,,,,,,,,
,5ea6572b086c724ee6eb019a,627c6f8c10af4547ceae7ee5,2022-05-11_22h24.05.808,classification_task,2021.2.3,Win32,60.7348922,627c6715c52fd12f31907bcf,,,,,,,,,,,,,,,,,,,,,,,a,1,"[""0.281"",""0.396"",""0.889"",""0.111""]","[1,1,1,0]",0,4,4,4,1,0,0,,,1,FALSE,1.1081,,,,,,,,,,,,,,,,,,,,,,,,,,,,,,,
,5ea6572b086c724ee6eb019a,627c6f8c10af4547ceae7ee5,2022-05-11_22h24.05.808,classification_task,2021.2.3,Win32,60.7348922,627c6715c52fd12f31907bcf,,,,,,,,,,,,,,,,,,,,,,,l,1,"[""0.146"",""0.518"",""0.569"",""0.743""]","[1,0,1,1]",0,5,5,5,1,1,0,,,1,FALSE,0.7926,,,,,,,,,,,,,,,,,,,,,,,,,,,,,,,
,5ea6572b086c724ee6eb019a,627c6f8c10af4547ceae7ee5,2022-05-11_22h24.05.808,classification_task,2021.2.3,Win32,60.7348922,627c6715c52fd12f31907bcf,,,,,,,,,,,,,,,,,,,,,,,l,1,"[""0.146"",""0.219"",""0.473"",""0.743""]","[1,1,0,1]",0,6,6,6,1,1,0,,,1,FALSE,0.7011,,,,,,,,,,,,,,,,,,,,,,,,,,,,,,,
,5ea6572b086c724ee6eb019a,627c6f8c10af4547ceae7ee5,2022-05-11_22h24.05.808,classification_task,2021.2.3,Win32,60.7348922,627c6715c52fd12f31907bcf,,,,,,,,,,,,,,,,,,,,,,,a,1,"[""0.281"",""0.396"",""0.492"",""0.973""]","[1,1,0,1]",0,7,7,7,1,0,0,,,1,FALSE,3.4024,,,,,,,,,,,,,,,,,,,,,,,,,,,,,,,
,5ea6572b086c724ee6eb019a,627c6f8c10af4547ceae7ee5,2022-05-11_22h24.05.808,classification_task,2021.2.3,Win32,60.7348922,627c6715c52fd12f31907bcf,,,,,,,,,,,,,,,,,,,,,,,a,0,"[""0.492"",""0.219"",""0.569"",""0.743""]","[0,1,1,1]",0,8,8,8,1,1,0,,,1,FALSE,1.0803,,,,,,,,,,,,,,,,,,,,,,,,,,,,,,,
,5ea6572b086c724ee6eb019a,627c6f8c10af4547ceae7ee5,2022-05-11_22h24.05.808,classification_task,2021.2.3,Win32,60.7348922,627c6715c52fd12f31907bcf,,,,,,,,,,,,,,,,,,,,,,,a,1,"[""0.098"",""0.355"",""0.822"",""0.939""]","[0,1,1,1]",0,9,9,9,1,0,1,,,1,FALSE,0.8826,,,,,,,,,,,,,,,,,,,,,,,,,,,,,,,
,5ea6572b086c724ee6eb019a,627c6f8c10af4547ceae7ee5,2022-05-11_22h24.05.808,classification_task,2021.2.3,Win32,60.7348922,627c6715c52fd12f31907bcf,,,,,,,,,,,,,,,,,,,,,,,a,1,"[""0.504"",""0.396"",""0.889"",""0.973""]","[0,1,1,1]",0,10,10,10,1,0,0,,,1,FALSE,1.1172,,,,,,,,,,,,,,,,,,,,,,,,,,,,,,,
,5ea6572b086c724ee6eb019a,627c6f8c10af4547ceae7ee5,2022-05-11_22h24.05.808,classification_task,2021.2.3,Win32,60.7348922,627c6715c52fd12f31907bcf,,,,,,,,,,,,,,,,,,,,,,,a,0,"[""0.061"",""0.316"",""0.662"",""0.450""]","[1,1,1,0]",0,11,11,11,1,1,1,,,1,FALSE,0.8211,,,,,,,,,,,,,,,,,,,,,,,,,,,,,,,
,5ea6572b086c724ee6eb019a,627c6f8c10af4547ceae7ee5,2022-05-11_22h24.05.808,classification_task,2021.2.3,Win32,60.7348922,627c6715c52fd12f31907bcf,,,,,,,,,,,,,,,,,,,,,,,a,1,"[""0.185"",""0.355"",""0.822"",""0.026""]","[1,1,1,0]",0,12,12,12,1,0,1,,,1,FALSE,0.9563,,,,,,,,,,,,,,,,,,,,,,,,,,,,,,,
,5ea6572b086c724ee6eb019a,627c6f8c10af4547ceae7ee5,2022-05-11_22h24.05.808,classification_task,2021.2.3,Win32,60.7348922,627c6715c52fd12f31907bcf,,,,,,,,,,,,,,,,,,,,,,,l,1,"[""0.146"",""0.219"",""0.569"",""0.103""]","[1,1,1,0]",0,13,13,13,1,1,0,,,1,FALSE,0.5009,,,,,,,,,,,,,,,,,,,,,,,,,,,,,,,
,5ea6572b086c724ee6eb019a,627c6f8c10af4547ceae7ee5,2022-05-11_22h24.05.808,classification_task,2021.2.3,Win32,60.7348922,627c6715c52fd12f31907bcf,,,,,,,,,,,,,,,,,,,,,,,a,0,"[""0.061"",""0.316"",""0.448"",""0.779""]","[1,1,0,1]",0,14,14,14,1,1,1,,,1,FALSE,0.6212,,,,,,,,,,,,,,,,,,,,,,,,,,,,,,,
,5ea6572b086c724ee6eb019a,627c6f8c10af4547ceae7ee5,2022-05-11_22h24.05.808,classification_task,2021.2.3,Win32,60.7348922,627c6715c52fd12f31907bcf,,,,,,,,,,,,,,,,,,,,,,,a,0,"[""0.450"",""0.316"",""0.662"",""0.779""]","[0,1,1,1]",0,15,15,15,1,1,1,,,1,FALSE,0.9271,,,,,,,,,,,,,,,,,,,,,,,,,,,,,,,
,5ea6572b086c724ee6eb019a,627c6f8c10af4547ceae7ee5,2022-05-11_22h24.05.808,classification_task,2021.2.3,Win32,60.7348922,627c6715c52fd12f31907bcf,,,,,,,,,,,,,,,,,,,,,,,a,1,"[""0.185"",""0.473"",""0.822"",""0.939""]","[1,0,1,1]",0,16,16,16,1,0,1,,,1,FALSE,0.7325,,,,,,,,,,,,,,,,,,,,,,,,,,,,,,,
,5ea6572b086c724ee6eb019a,627c6f8c10af4547ceae7ee5,2022-05-11_22h24.05.808,classification_task,2021.2.3,Win32,60.7348922,627c6715c52fd12f31907bcf,,,,,,,,,,,,,,,,,,,,,,,l,0,"[""0.281"",""0.111"",""0.889"",""0.973""]","[1,0,1,1]",0,17,17,17,1,0,0,,,1,FALSE,1.4999,,,,,,,,,,,,,,,,,,,,,,,,,,,,,,,
,5ea6572b086c724ee6eb019a,627c6f8c10af4547ceae7ee5,2022-05-11_22h24.05.808,classification_task,2021.2.3,Win32,60.7348922,627c6715c52fd12f31907bcf,,,,,,,,,,,,,,,,,,,,,,,a,0,"[""0.103"",""0.219"",""0.569"",""0.743""]","[0,1,1,1]",0,18,18,18,1,1,0,,,1,FALSE,0.7802,,,,,,,,,,,,,,,,,,,,,,,,,,,,,,,
,5ea6572b086c724ee6eb019a,627c6f8c10af4547ceae7ee5,2022-05-11_22h24.05.808,classification_task,2021.2.3,Win32,60.7348922,627c6715c52fd12f31907bcf,,,,,,,,,,,,,,,,,,,,,,,a,0,"[""0.061"",""0.316"",""0.662"",""0.518""]","[1,1,1,0]",0,19,19,19,1,1,1,,,1,FALSE,1.0892,,,,,,,,,,,,,,,,,,,,,,,,,,,,,,,
,5ea6572b086c724ee6eb019a,627c6f8c10af4547ceae7ee5,2022-05-11_22h24.05.808,classification_task,2021.2.3,Win32,60.7348922,627c6715c52fd12f31907bcf,,,,,,,,,,,,,,,,,,,,,,,l,1,"[""0.146"",""0.219"",""0.569"",""0.531""]","[1,1,1,0]",0,20,20,20,1,1,0,,,1,FALSE,0.8518,,,,,,,,,,,,,,,,,,,,,,,,,,,,,,,
,5ea6572b086c724ee6eb019a,627c6f8c10af4547ceae7ee5,2022-05-11_22h24.05.808,classification_task,2021.2.3,Win32,60.7348922,627c6715c52fd12f31907bcf,,,,,,,,,,,,,,,,,,,,,,,a,1,"[""0.185"",""0.355"",""0.822"",""0.518""]","[1,1,1,0]",0,21,21,21,1,0,1,,,1,FALSE,2.6807,,,,,,,,,,,,,,,,,,,,,,,,,,,,,,,
,5ea6572b086c724ee6eb019a,627c6f8c10af4547ceae7ee5,2022-05-11_22h24.05.808,classification_task,2021.2.3,Win32,60.7348922,627c6715c52fd12f31907bcf,,,,,,,,,,,,,,,,,,,,,,,l,1,"[""0.146"",""0.219"",""0.446"",""0.743""]","[1,1,0,1]",0,22,22,22,1,1,0,,,1,FALSE,0.784,,,,,,,,,,,,,,,,,,,,,,,,,,,,,,,
,5ea6572b086c724ee6eb019a,627c6f8c10af4547ceae7ee5,2022-05-11_22h24.05.808,classification_task,2021.2.3,Win32,60.7348922,627c6715c52fd12f31907bcf,,,,,,,,,,,,,,,,,,,,,,,l,1,"[""0.061"",""0.111"",""0.662"",""0.779""]","[1,0,1,1]",0,23,23,23,1,1,1,,,1,FALSE,0.8346,,,,,,,,,,,,,,,,,,,,,,,,,,,,,,,
,5ea6572b086c724ee6eb019a,627c6f8c10af4547ceae7ee5,2022-05-11_22h24.05.808,classification_task,2021.2.3,Win32,60.7348922,627c6715c52fd12f31907bcf,,,,,,,,,,,,,,,,,,,,,,,a,1,"[""0.281"",""0.396"",""0.889"",""0.103""]","[1,1,1,0]",0,24,24,24,1,0,0,,,1,FALSE,1.8508,,,,,,,,,,,,,,,,,,,,,,,,,,,,,,,
,5ea6572b086c724ee6eb019a,627c6f8c10af4547ceae7ee5,2022-05-11_22h24.05.808,classification_task,2021.2.3,Win32,60.7348922,627c6715c52fd12f31907bcf,,,,,,,,,,,,,,,,,,,,,,,l,0,"[""0.111"",""0.396"",""0.889"",""0.973""]","[0,1,1,1]",0,25,25,25,1,0,0,,,1,FALSE,0.7782,,,,,,,,,,,,,,,,,,,,,,,,,,,,,,,
,5ea6572b086c724ee6eb019a,627c6f8c10af4547ceae7ee5,2022-05-11_22h24.05.808,classification_task,2021.2.3,Win32,60.7348922,627c6715c52fd12f31907bcf,,,,,,,,,,,,,,,,,,,,,,,a,1,"[""0.281"",""0.396"",""0.111"",""0.973""]","[1,1,0,1]",0,26,26,26,1,0,0,,,1,FALSE,1.0163,,,,,,,,,,,,,,,,,,,,,,,,,,,,,,,
,5ea6572b086c724ee6eb019a,627c6f8c10af4547ceae7ee5,2022-05-11_22h24.05.808,classification_task,2021.2.3,Win32,60.7348922,627c6715c52fd12f31907bcf,,,,,,,,,,,,,,,,,,,,,,,a,0,"[""0.061"",""0.316"",""0.492"",""0.779""]","[1,1,0,1]",0,27,27,27,1,1,1,,,1,FALSE,1.3009,,,,,,,,,,,,,,,,,,,,,,,,,,,,,,,
,5ea6572b086c724ee6eb019a,627c6f8c10af4547ceae7ee5,2022-05-11_22h24.05.808,classification_task,2021.2.3,Win32,60.7348922,627c6715c52fd12f31907bcf,,,,,,,,,,,,,,,,,,,,,,,a,0,"[""0.446"",""0.316"",""0.662"",""0.779""]","[0,1,1,1]",0,28,28,28,1,1,1,,,1,FALSE,0.9351,,,,,,,,,,,,,,,,,,,,,,,,,,,,,,,
,5ea6572b086c724ee6eb019a,627c6f8c10af4547ceae7ee5,2022-05-11_22h24.05.808,classification_task,2021.2.3,Win32,60.7348922,627c6715c52fd12f31907bcf,,,,,,,,,,,,,,,,,,,,,,,a,1,"[""0.185"",""0.355"",""0.098"",""0.939""]","[1,1,0,1]",0,29,29,29,1,0,1,,,1,FALSE,0.9355,,,,,,,,,,,,,,,,,,,,,,,,,,,,,,,
,5ea6572b086c724ee6eb019a,627c6f8c10af4547ceae7ee5,2022-05-11_22h24.05.808,classification_task,2021.2.3,Win32,60.7348922,627c6715c52fd12f31907bcf,,,,,,,,,,,,,,,,,,,,,,,a,1,"[""0.111"",""0.355"",""0.822"",""0.939""]","[0,1,1,1]",0,30,30,30,1,0,1,,,1,FALSE,0.9322,,,,,,,,,,,,,,,,,,,,,,,,,,,,,,,
,5ea6572b086c724ee6eb019a,627c6f8c10af4547ceae7ee5,2022-05-11_22h24.05.808,classification_task,2021.2.3,Win32,60.7348922,627c6715c52fd12f31907bcf,,,,,,,,,,,,,,,,,,,,,,,l,1,"[""0.146"",""0.104"",""0.569"",""0.743""]","[1,0,1,1]",0,31,31,31,1,1,0,,,1,FALSE,0.8055,,,,,,,,,,,,,,,,,,,,,,,,,,,,,,,
,5ea6572b086c724ee6eb019a,627c6f8c10af4547ceae7ee5,2022-05-11_22h24.05.808,classification_task,2021.2.3,Win32,60.7348922,627c6715c52fd12f31907bcf,,,,,,,,,,,,,,,,,,,,,,,l,0,"[""0.281"",""0.396"",""0.473"",""0.973""]","[1,1,0,1]",0,32,32,32,1,0,0,,,1,FALSE,0.7236,,,,,,,,,,,,,,,,,,,,,,,,,,,,,,,
,5ea6572b086c724ee6eb019a,627c6f8c10af4547ceae7ee5,2022-05-11_22h24.05.808,classification_task,2021.2.3,Win32,60.7348922,627c6715c52fd12f31907bcf,,,,,,,,,,,,,,,,,,,,,,,l,1,"[""0.146"",""0.450"",""0.569"",""0.743""]","[1,0,1,1]",0,33,33,33,1,1,0,,,1,FALSE,0.669,,,,,,,,,,,,,,,,,,,,,,,,,,,,,,,
,5ea6572b086c724ee6eb019a,627c6f8c10af4547ceae7ee5,2022-05-11_22h24.05.808,classification_task,2021.2.3,Win32,60.7348922,627c6715c52fd12f31907bcf,,,,,,,,,,,,,,,,,,,,,,,l,1,"[""0.146"",""0.219"",""0.446"",""0.743""]","[1,1,0,1]",0,34,34,34,1,1,0,,,1,FALSE,0.8702,,,,,,,,,,,,,,,,,,,,,,,,,,,,,,,
,5ea6572b086c724ee6eb019a,627c6f8c10af4547ceae7ee5,2022-05-11_22h24.05.808,classification_task,2021.2.3,Win32,60.7348922,627c6715c52fd12f31907bcf,,,,,,,,,,,,,,,,,,,,,,,l,1,"[""0.111"",""0.316"",""0.662"",""0.779""]","[0,1,1,1]",0,35,35,35,1,1,1,,,1,FALSE,1.8174,,,,,,,,,,,,,,,,,,,,,,,,,,,,,,,
,5ea6572b086c724ee6eb019a,627c6f8c10af4547ceae7ee5,2022-05-11_22h24.05.808,classification_task,2021.2.3,Win32,60.7348922,627c6715c52fd12f31907bcf,,,,,,,,,,,,,,,,,,,,,,,a,0,"[""0.061"",""0.316"",""0.662"",""0.517""]","[1,1,1,0]",0,36,36,36,1,1,1,,,1,FALSE,1.7471,,,,,,,,,,,,,,,,,,,,,,,,,,,,,,,
,5ea6572b086c724ee6eb019a,627c6f8c10af4547ceae7ee5,2022-05-11_22h24.05.808,classification_task,2021.2.3,Win32,60.7348922,627c6715c52fd12f31907bcf,,,,,,,,,,,,,,,,,,,,,,,a,1,"[""0.185"",""0.355"",""0.450"",""0.939""]","[1,1,0,1]",0,37,37,37,1,0,1,,,1,FALSE,1.2766,,,,,,,,,,,,,,,,,,,,,,,,,,,,,,,
,5ea6572b086c724ee6eb019a,627c6f8c10af4547ceae7ee5,2022-05-11_22h24.05.808,classification_task,2021.2.3,Win32,60.7348922,627c6715c52fd12f31907bcf,,,,,,,,,,,,,,,,,,,,,,,l,0,"[""0.185"",""0.355"",""0.822"",""0.518""]","[1,1,1,0]",0,38,38,38,1,0,1,,,1,FALSE,0.7663,,,,,,,,,,,,,,,,,,,,,,,,,,,,,,,
,5ea6572b086c724ee6eb019a,627c6f8c10af4547ceae7ee5,2022-05-11_22h24.05.808,classification_task,2021.2.3,Win32,60.7348922,627c6715c52fd12f31907bcf,,,,,,,,,,,,,,,,,,,,,,,l,0,"[""0.281"",""0.396"",""0.889"",""0.504""]","[1,1,1,0]",0,39,39,39,1,0,0,,,1,FALSE,0.8331,,,,,,,,,,,,,,,,,,,,,,,,,,,,,,,
,5ea6572b086c724ee6eb019a,627c6f8c10af4547ceae7ee5,2022-05-11_22h24.05.808,classification_task,2021.2.3,Win32,60.7348922,627c6715c52fd12f31907bcf,,,,,,,,,,,,,,,,,,,,,,,a,1,"[""0.098"",""0.396"",""0.889"",""0.973""]","[0,1,1,1]",0,40,40,40,1,0,0,,,1,FALSE,4.9193,,,,,,,,,,,,,,,,,,,,,,,,,,,,,,,
,5ea6572b086c724ee6eb019a,627c6f8c10af4547ceae7ee5,2022-05-11_22h24.05.808,classification_task,2021.2.3,Win32,60.7348922,627c6715c52fd12f31907bcf,,,,,,,,,,,,,,,,,,,,,,,a,1,"[""0.281"",""0.446"",""0.889"",""0.973""]","[1,0,1,1]",0,41,41,41,1,0,0,,,1,FALSE,3.2641,,,,,,,,,,,,,,,,,,,,,,,,,,,,,,,
,5ea6572b086c724ee6eb019a,627c6f8c10af4547ceae7ee5,2022-05-11_22h24.05.808,classification_task,2021.2.3,Win32,60.7348922,627c6715c52fd12f31907bcf,,,,,,,,,,,,,,,,,,,,,,,l,1,"[""0.492"",""0.219"",""0.569"",""0.743""]","[0,1,1,1]",0,42,42,42,1,1,0,,,1,FALSE,0.8548,,,,,,,,,,,,,,,,,,,,,,,,,,,,,,,
,5ea6572b086c724ee6eb019a,627c6f8c10af4547ceae7ee5,2022-05-11_22h24.05.808,classification_task,2021.2.3,Win32,60.7348922,627c6715c52fd12f31907bcf,,,,,,,,,,,,,,,,,,,,,,,l,1,"[""0.061"",""0.316"",""0.098"",""0.779""]","[1,1,0,1]",0,43,43,43,1,1,1,,,1,FALSE,0.9828,,,,,,,,,,,,,,,,,,,,,,,,,,,,,,,
,5ea6572b086c724ee6eb019a,627c6f8c10af4547ceae7ee5,2022-05-11_22h24.05.808,classification_task,2021.2.3,Win32,60.7348922,627c6715c52fd12f31907bcf,,,,,,,,,,,,,,,,,,,,,,,l,0,"[""0.185"",""0.504"",""0.822"",""0.939""]","[1,0,1,1]",0,44,44,44,1,0,1,,,1,FALSE,2.3845,,,,,,,,,,,,,,,,,,,,,,,,,,,,,,,
,5ea6572b086c724ee6eb019a,627c6f8c10af4547ceae7ee5,2022-05-11_22h24.05.808,classification_task,2021.2.3,Win32,60.7348922,627c6715c52fd12f31907bcf,,,,,,,,,,,,,,,,,,,,,,,l,0,"[""0.492"",""0.355"",""0.822"",""0.939""]","[0,1,1,1]",0,45,45,45,1,0,1,,,1,FALSE,1.7292,,,,,,,,,,,,,,,,,,,,,,,,,,,,,,,
,5ea6572b086c724ee6eb019a,627c6f8c10af4547ceae7ee5,2022-05-11_22h24.05.808,classification_task,2021.2.3,Win32,60.7348922,627c6715c52fd12f31907bcf,,,,,,,,,,,,,,,,,,,,,,,a,0,"[""0.061"",""0.504"",""0.662"",""0.779""]","[1,0,1,1]",0,46,46,46,1,1,1,,,1,FALSE,1.8412,,,,,,,,,,,,,,,,,,,,,,,,,,,,,,,
,5ea6572b086c724ee6eb019a,627c6f8c10af4547ceae7ee5,2022-05-11_22h24.05.808,classification_task,2021.2.3,Win32,60.7348922,627c6715c52fd12f31907bcf,,,,,,,,,,,,,,,,,,,,,,,l,1,"[""0.146"",""0.219"",""0.569"",""0.504""]","[1,1,1,0]",0,47,47,47,1,1,0,,,1,FALSE,4.2251,,,,,,,,,,,,,,,,,,,,,,,,,,,,,,,
,5ea6572b086c724ee6eb019a,627c6f8c10af4547ceae7ee5,2022-05-11_22h24.05.808,classification_task,2021.2.3,Win32,60.7348922,627c6715c52fd12f31907bcf,,,,,,,,,,,,,,,,,,,,,,,l,1,"[""0.146"",""0.518"",""0.569"",""0.743""]","[1,0,1,1]",0,48,48,48,1,1,0,,,1,FALSE,0.6963,,,,,,,,,,,,,,,,,,,,,,,,,,,,,,,
,5ea6572b086c724ee6eb019a,627c6f8c10af4547ceae7ee5,2022-05-11_22h24.05.808,classification_task,2021.2.3,Win32,60.7348922,627c6715c52fd12f31907bcf,,,,,,,,,,,,,,,,,,,,,,,a,1,"[""0.281"",""0.396"",""0.098"",""0.973""]","[1,1,0,1]",0,49,49,49,1,0,0,,,1,FALSE,1.5057,,,,,,,,,,,,,,,,,,,,,,,,,,,,,,,
,5ea6572b086c724ee6eb019a,627c6f8c10af4547ceae7ee5,2022-05-11_22h24.05.808,classification_task,2021.2.3,Win32,60.7348922,627c6715c52fd12f31907bcf,,,,,,,,,,,,,,,,,,,,,,,a,1,"[""0.281"",""0.473"",""0.889"",""0.973""]","[1,0,1,1]",0,50,50,50,1,0,0,,,1,FALSE,1.3213,,,,,,,,,,,,,,,,,,,,,,,,,,,,,,,
,5ea6572b086c724ee6eb019a,627c6f8c10af4547ceae7ee5,2022-05-11_22h24.05.808,classification_task,2021.2.3,Win32,60.7348922,627c6715c52fd12f31907bcf,,,,,,,,,,,,,,,,,,,,,,,a,1,"[""0.185"",""0.355"",""0.448"",""0.939""]","[1,1,0,1]",0,51,51,51,1,0,1,,,1,FALSE,3.0314,,,,,,,,,,,,,,,,,,,,,,,,,,,,,,,
,5ea6572b086c724ee6eb019a,627c6f8c10af4547ceae7ee5,2022-05-11_22h24.05.808,classification_task,2021.2.3,Win32,60.7348922,627c6715c52fd12f31907bcf,,,,,,,,,,,,,,,,,,,,,,,l,1,"[""0.061"",""0.026"",""0.662"",""0.779""]","[1,0,1,1]",0,52,52,52,1,1,1,,,1,FALSE,0.6372,,,,,,,,,,,,,,,,,,,,,,,,,,,,,,,
,5ea6572b086c724ee6eb019a,627c6f8c10af4547ceae7ee5,2022-05-11_22h24.05.808,classification_task,2021.2.3,Win32,60.7348922,627c6715c52fd12f31907bcf,,,,,,,,,,,,,,,,,,,,,,,l,1,"[""0.061"",""0.316"",""0.662"",""0.492""]","[1,1,1,0]",0,53,53,53,1,1,1,,,1,FALSE,1.8491,,,,,,,,,,,,,,,,,,,,,,,,,,,,,,,
,5ea6572b086c724ee6eb019a,627c6f8c10af4547ceae7ee5,2022-05-11_22h24.05.808,classification_task,2021.2.3,Win32,60.7348922,627c6715c52fd12f31907bcf,,,,,,,,,,,,,,,,,,,,,,,l,0,"[""0.111"",""0.355"",""0.822"",""0.939""]","[0,1,1,1]",0,54,54,54,1,0,1,,,1,FALSE,2.9776,,,,,,,,,,,,,,,,,,,,,,,,,,,,,,,
,5ea6572b086c724ee6eb019a,627c6f8c10af4547ceae7ee5,2022-05-11_22h24.05.808,classification_task,2021.2.3,Win32,60.7348922,627c6715c52fd12f31907bcf,,,,,,,,,,,,,,,,,,,,,,,l,1,"[""0.531"",""0.316"",""0.662"",""0.779""]","[0,1,1,1]",0,55,55,55,1,1,1,,,1,FALSE,3.1842,,,,,,,,,,,,,,,,,,,,,,,,,,,,,,,
,5ea6572b086c724ee6eb019a,627c6f8c10af4547ceae7ee5,2022-05-11_22h24.05.808,classification_task,2021.2.3,Win32,60.7348922,627c6715c52fd12f31907bcf,,,,,,,,,,,,,,,,,,,,,,,l,0,"[""0.111"",""0.396"",""0.889"",""0.973""]","[0,1,1,1]",0,56,56,56,1,0,0,,,1,FALSE,1.8123,,,,,,,,,,,,,,,,,,,,,,,,,,,,,,,
,5ea6572b086c724ee6eb019a,627c6f8c10af4547ceae7ee5,2022-05-11_22h24.05.808,classification_task,2021.2.3,Win32,60.7348922,627c6715c52fd12f31907bcf,,,,,,,,,,,,,,,,,,,,,,,l,1,"[""0.448"",""0.219"",""0.569"",""0.743""]","[0,1,1,1]",0,57,57,57,1,1,0,,,1,FALSE,1.2329,,,,,,,,,,,,,,,,,,,,,,,,,,,,,,,
,5ea6572b086c724ee6eb019a,627c6f8c10af4547ceae7ee5,2022-05-11_22h24.05.808,classification_task,2021.2.3,Win32,60.7348922,627c6715c52fd12f31907bcf,,,,,,,,,,,,,,,,,,,,,,,a,1,"[""0.281"",""0.396"",""0.889"",""0.103""]","[1,1,1,0]",0,58,58,58,1,0,0,,,1,FALSE,1.6221,,,,,,,,,,,,,,,,,,,,,,,,,,,,,,,
,5ea6572b086c724ee6eb019a,627c6f8c10af4547ceae7ee5,2022-05-11_22h24.05.808,classification_task,2021.2.3,Win32,60.7348922,627c6715c52fd12f31907bcf,,,,,,,,,,,,,,,,,,,,,,,l,1,"[""0.061"",""0.316"",""0.450"",""0.779""]","[1,1,0,1]",0,59,59,59,1,1,1,,,1,FALSE,3.2388,,,,,,,,,,,,,,,,,,,,,,,,,,,,,,,
,5ea6572b086c724ee6eb019a,627c6f8c10af4547ceae7ee5,2022-05-11_22h24.05.808,classification_task,2021.2.3,Win32,60.7348922,627c6715c52fd12f31907bcf,,,,,,,,,,,,,,,,,,,,,,,l,0,"[""0.185"",""0.355"",""0.822"",""0.103""]","[1,1,1,0]",0,60,60,60,1,0,1,,,1,FALSE,1.5451,,,,,,,,,,,,,,,,,,,,,,,,,,,,,,,
,5ea6572b086c724ee6eb019a,627c6f8c10af4547ceae7ee5,2022-05-11_22h24.05.808,classification_task,2021.2.3,Win32,60.7348922,627c6715c52fd12f31907bcf,,,,,,,,,,,,,,,,,,,,,,,l,1,"[""0.146"",""0.219"",""0.569"",""0.517""]","[1,1,1,0]",0,61,61,61,1,1,0,,,1,FALSE,0.867,,,,,,,,,,,,,,,,,,,,,,,,,,,,,,,
,5ea6572b086c724ee6eb019a,627c6f8c10af4547ceae7ee5,2022-05-11_22h24.05.808,classification_task,2021.2.3,Win32,60.7348922,627c6715c52fd12f31907bcf,,,,,,,,,,,,,,,,,,,,,,,l,0,"[""0.185"",""0.103"",""0.822"",""0.939""]","[1,0,1,1]",0,62,62,62,1,0,1,,,1,FALSE,1.2391,,,,,,,,,,,,,,,,,,,,,,,,,,,,,,,
,5ea6572b086c724ee6eb019a,627c6f8c10af4547ceae7ee5,2022-05-11_22h24.05.808,classification_task,2021.2.3,Win32,60.7348922,627c6715c52fd12f31907bcf,,,,,,,,,,,,,,,,,,,,,,,l,1,"[""0.146"",""0.219"",""0.517"",""0.743""]","[1,1,0,1]",0,63,63,63,1,1,0,,,1,FALSE,1.0069,,,,,,,,,,,,,,,,,,,,,,,,,,,,,,,
,5ea6572b086c724ee6eb019a,627c6f8c10af4547ceae7ee5,2022-05-11_22h24.05.808,classification_task,2021.2.3,Win32,60.7348922,627c6715c52fd12f31907bcf,,,,,,,,,,,,,,,,,,,,,,,,,,,,,,,,,,,,,,,0, ,,0,1.576768941,180.4959,0,1,1,1,1,2,2,,,,,,,,,,,,,,,,,,
,5ea6572b086c724ee6eb019a,627c6f8c10af4547ceae7ee5,2022-05-11_22h24.05.808,classification_task,2021.2.3,Win32,60.7348922,627c6715c52fd12f31907bcf,,,,,,,,,,,,,,,,,,,,,,,,,,,,,,,,,,,,,,,1,  ,,0,3.487410488,184.3056,0,1,1,1,1,2,2,,,,,,,,,,,,,,,,,,
,5ea6572b086c724ee6eb019a,627c6f8c10af4547ceae7ee5,2022-05-11_22h24.05.808,classification_task,2021.2.3,Win32,60.7348922,627c6715c52fd12f31907bcf,,,,,,,,,,,,,,,,,,,,,,,,,,,,,,,,,,,,,,,2,  ,,0,4.36924433,187.4672,0,1,1,1,1,2,2,,,,,,,,,,,,,,,,,,
,5ea6572b086c724ee6eb019a,627c6f8c10af4547ceae7ee5,2022-05-11_22h24.05.808,classification_task,2021.2.3,Win32,60.7348922,627c6715c52fd12f31907bcf,,,,,,,,,,,,,,,,,,,,,,,,,,,,,,,,,,,,,,,,,,,,,0,1,1,1,1,,2,,,,,,,,,,,,,,,,,,
,5ea6572b086c724ee6eb019a,627c6f8c10af4547ceae7ee5,2022-05-11_22h24.05.808,classification_task,2021.2.3,Win32,60.7348922,627c6715c52fd12f31907bcf,,,,,,,,,,,,,,,,,,,,,space,7.0108,a,0,"[""0.446"",""0.219"",""0.569"",""0.743""]","[0,1,1,1]",0,0,0,0,1,1,0,,,1,FALSE,1.4639,,,,,,,,,,,,,,,,,,,,,,,,,,,,,,,
,5ea6572b086c724ee6eb019a,627c6f8c10af4547ceae7ee5,2022-05-11_22h24.05.808,classification_task,2021.2.3,Win32,60.7348922,627c6715c52fd12f31907bcf,,,,,,,,,,,,,,,,,,,,,,,l,1,"[""0.061"",""0.098"",""0.662"",""0.779""]","[1,0,1,1]",0,1,1,1,1,1,1,,,1,FALSE,0.716,,,,,,,,,,,,,,,,,,,,,,,,,,,,,,,
,5ea6572b086c724ee6eb019a,627c6f8c10af4547ceae7ee5,2022-05-11_22h24.05.808,classification_task,2021.2.3,Win32,60.7348922,627c6715c52fd12f31907bcf,,,,,,,,,,,,,,,,,,,,,,,a,1,"[""0.185"",""0.504"",""0.822"",""0.939""]","[1,0,1,1]",0,2,2,2,1,0,1,,,1,FALSE,1.5099,,,,,,,,,,,,,,,,,,,,,,,,,,,,,,,
,5ea6572b086c724ee6eb019a,627c6f8c10af4547ceae7ee5,2022-05-11_22h24.05.808,classification_task,2021.2.3,Win32,60.7348922,627c6715c52fd12f31907bcf,,,,,,,,,,,,,,,,,,,,,,,l,1,"[""0.518"",""0.316"",""0.662"",""0.779""]","[0,1,1,1]",0,3,3,3,1,1,1,,,1,FALSE,1.3994,,,,,,,,,,,,,,,,,,,,,,,,,,,,,,,
,5ea6572b086c724ee6eb019a,627c6f8c10af4547ceae7ee5,2022-05-11_22h24.05.808,classification_task,2021.2.3,Win32,60.7348922,627c6715c52fd12f31907bcf,,,,,,,,,,,,,,,,,,,,,,,a,1,"[""0.185"",""0.355"",""0.492"",""0.939""]","[1,1,0,1]",0,4,4,4,1,0,1,,,1,FALSE,1.1176,,,,,,,,,,,,,,,,,,,,,,,,,,,,,,,
,5ea6572b086c724ee6eb019a,627c6f8c10af4547ceae7ee5,2022-05-11_22h24.05.808,classification_task,2021.2.3,Win32,60.7348922,627c6715c52fd12f31907bcf,,,,,,,,,,,,,,,,,,,,,,,a,1,"[""0.281"",""0.396"",""0.492"",""0.973""]","[1,1,0,1]",0,5,5,5,1,0,0,,,1,FALSE,1.8697,,,,,,,,,,,,,,,,,,,,,,,,,,,,,,,
,5ea6572b086c724ee6eb019a,627c6f8c10af4547ceae7ee5,2022-05-11_22h24.05.808,classification_task,2021.2.3,Win32,60.7348922,627c6715c52fd12f31907bcf,,,,,,,,,,,,,,,,,,,,,,,a,1,"[""0.185"",""0.355"",""0.822"",""0.492""]","[1,1,1,0]",0,6,6,6,1,0,1,,,1,FALSE,1.8537,,,,,,,,,,,,,,,,,,,,,,,,,,,,,,,
,5ea6572b086c724ee6eb019a,627c6f8c10af4547ceae7ee5,2022-05-11_22h24.05.808,classification_task,2021.2.3,Win32,60.7348922,627c6715c52fd12f31907bcf,,,,,,,,,,,,,,,,,,,,,,,l,1,"[""0.146"",""0.219"",""0.569"",""0.518""]","[1,1,1,0]",0,7,7,7,1,1,0,,,1,FALSE,0.8289,,,,,,,,,,,,,,,,,,,,,,,,,,,,,,,
,5ea6572b086c724ee6eb019a,627c6f8c10af4547ceae7ee5,2022-05-11_22h24.05.808,classification_task,2021.2.3,Win32,60.7348922,627c6715c52fd12f31907bcf,,,,,,,,,,,,,,,,,,,,,,,l,1,"[""0.146"",""0.219"",""0.518"",""0.743""]","[1,1,0,1]",0,8,8,8,1,1,0,,,1,FALSE,1.3857,,,,,,,,,,,,,,,,,,,,,,,,,,,,,,,
,5ea6572b086c724ee6eb019a,627c6f8c10af4547ceae7ee5,2022-05-11_22h24.05.808,classification_task,2021.2.3,Win32,60.7348922,627c6715c52fd12f31907bcf,,,,,,,,,,,,,,,,,,,,,,,l,1,"[""0.146"",""0.111"",""0.569"",""0.743""]","[1,0,1,1]",0,9,9,9,1,1,0,,,1,FALSE,0.8017,,,,,,,,,,,,,,,,,,,,,,,,,,,,,,,
,5ea6572b086c724ee6eb019a,627c6f8c10af4547ceae7ee5,2022-05-11_22h24.05.808,classification_task,2021.2.3,Win32,60.7348922,627c6715c52fd12f31907bcf,,,,,,,,,,,,,,,,,,,,,,,a,1,"[""0.281"",""0.446"",""0.889"",""0.973""]","[1,0,1,1]",0,10,10,10,1,0,0,,,1,FALSE,1.427,,,,,,,,,,,,,,,,,,,,,,,,,,,,,,,
,5ea6572b086c724ee6eb019a,627c6f8c10af4547ceae7ee5,2022-05-11_22h24.05.808,classification_task,2021.2.3,Win32,60.7348922,627c6715c52fd12f31907bcf,,,,,,,,,,,,,,,,,,,,,,,a,1,"[""0.103"",""0.396"",""0.889"",""0.973""]","[0,1,1,1]",0,11,11,11,1,0,0,,,1,FALSE,1.6764,,,,,,,,,,,,,,,,,,,,,,,,,,,,,,,
,5ea6572b086c724ee6eb019a,627c6f8c10af4547ceae7ee5,2022-05-11_22h24.05.808,classification_task,2021.2.3,Win32,60.7348922,627c6715c52fd12f31907bcf,,,,,,,,,,,,,,,,,,,,,,,a,1,"[""0.473"",""0.355"",""0.822"",""0.939""]","[0,1,1,1]",0,12,12,12,1,0,1,,,1,FALSE,1.2327,,,,,,,,,,,,,,,,,,,,,,,,,,,,,,,
,5ea6572b086c724ee6eb019a,627c6f8c10af4547ceae7ee5,2022-05-11_22h24.05.808,classification_task,2021.2.3,Win32,60.7348922,627c6715c52fd12f31907bcf,,,,,,,,,,,,,,,,,,,,,,,a,1,"[""0.281"",""0.396"",""0.889"",""0.518""]","[1,1,1,0]",0,13,13,13,1,0,0,,,1,FALSE,0.9829,,,,,,,,,,,,,,,,,,,,,,,,,,,,,,,
,5ea6572b086c724ee6eb019a,627c6f8c10af4547ceae7ee5,2022-05-11_22h24.05.808,classification_task,2021.2.3,Win32,60.7348922,627c6715c52fd12f31907bcf,,,,,,,,,,,,,,,,,,,,,,,l,1,"[""0.061"",""0.316"",""0.098"",""0.779""]","[1,1,0,1]",0,14,14,14,1,1,1,,,1,FALSE,0.7393,,,,,,,,,,,,,,,,,,,,,,,,,,,,,,,
,5ea6572b086c724ee6eb019a,627c6f8c10af4547ceae7ee5,2022-05-11_22h24.05.808,classification_task,2021.2.3,Win32,60.7348922,627c6715c52fd12f31907bcf,,,,,,,,,,,,,,,,,,,,,,,l,1,"[""0.061"",""0.316"",""0.662"",""0.518""]","[1,1,1,0]",0,15,15,15,1,1,1,,,1,FALSE,2.6021,,,,,,,,,,,,,,,,,,,,,,,,,,,,,,,
,5ea6572b086c724ee6eb019a,627c6f8c10af4547ceae7ee5,2022-05-11_22h24.05.808,classification_task,2021.2.3,Win32,60.7348922,627c6715c52fd12f31907bcf,,,,,,,,,,,,,,,,,,,,,,,a,0,"[""0.111"",""0.219"",""0.569"",""0.743""]","[0,1,1,1]",0,16,16,16,1,1,0,,,1,FALSE,1.1785,,,,,,,,,,,,,,,,,,,,,,,,,,,,,,,
,5ea6572b086c724ee6eb019a,627c6f8c10af4547ceae7ee5,2022-05-11_22h24.05.808,classification_task,2021.2.3,Win32,60.7348922,627c6715c52fd12f31907bcf,,,,,,,,,,,,,,,,,,,,,,,l,1,"[""0.098"",""0.316"",""0.662"",""0.779""]","[0,1,1,1]",0,17,17,17,1,1,1,,,1,FALSE,2.4215,,,,,,,,,,,,,,,,,,,,,,,,,,,,,,,
,5ea6572b086c724ee6eb019a,627c6f8c10af4547ceae7ee5,2022-05-11_22h24.05.808,classification_task,2021.2.3,Win32,60.7348922,627c6715c52fd12f31907bcf,,,,,,,,,,,,,,,,,,,,,,,a,1,"[""0.098"",""0.355"",""0.822"",""0.939""]","[0,1,1,1]",0,18,18,18,1,0,1,,,1,FALSE,3.3979,,,,,,,,,,,,,,,,,,,,,,,,,,,,,,,
,5ea6572b086c724ee6eb019a,627c6f8c10af4547ceae7ee5,2022-05-11_22h24.05.808,classification_task,2021.2.3,Win32,60.7348922,627c6715c52fd12f31907bcf,,,,,,,,,,,,,,,,,,,,,,,a,1,"[""0.281"",""0.492"",""0.889"",""0.973""]","[1,0,1,1]",0,19,19,19,1,0,0,,,1,FALSE,1.203,,,,,,,,,,,,,,,,,,,,,,,,,,,,,,,
,5ea6572b086c724ee6eb019a,627c6f8c10af4547ceae7ee5,2022-05-11_22h24.05.808,classification_task,2021.2.3,Win32,60.7348922,627c6715c52fd12f31907bcf,,,,,,,,,,,,,,,,,,,,,,,l,1,"[""0.061"",""0.104"",""0.662"",""0.779""]","[1,0,1,1]",0,20,20,20,1,1,1,,,1,FALSE,0.885,,,,,,,,,,,,,,,,,,,,,,,,,,,,,,,
,5ea6572b086c724ee6eb019a,627c6f8c10af4547ceae7ee5,2022-05-11_22h24.05.808,classification_task,2021.2.3,Win32,60.7348922,627c6715c52fd12f31907bcf,,,,,,,,,,,,,,,,,,,,,,,l,0,"[""0.281"",""0.396"",""0.889"",""0.450""]","[1,1,1,0]",0,21,21,21,1,0,0,,,1,FALSE,1.0417,,,,,,,,,,,,,,,,,,,,,,,,,,,,,,,
,5ea6572b086c724ee6eb019a,627c6f8c10af4547ceae7ee5,2022-05-11_22h24.05.808,classification_task,2021.2.3,Win32,60.7348922,627c6715c52fd12f31907bcf,,,,,,,,,,,,,,,,,,,,,,,a,0,"[""0.146"",""0.219"",""0.569"",""0.450""]","[1,1,1,0]",0,22,22,22,1,1,0,,,1,FALSE,1.0145,,,,,,,,,,,,,,,,,,,,,,,,,,,,,,,
,5ea6572b086c724ee6eb019a,627c6f8c10af4547ceae7ee5,2022-05-11_22h24.05.808,classification_task,2021.2.3,Win32,60.7348922,627c6715c52fd12f31907bcf,,,,,,,,,,,,,,,,,,,,,,,l,0,"[""0.185"",""0.098"",""0.822"",""0.939""]","[1,0,1,1]",0,23,23,23,1,0,1,,,1,FALSE,2.4168,,,,,,,,,,,,,,,,,,,,,,,,,,,,,,,
,5ea6572b086c724ee6eb019a,627c6f8c10af4547ceae7ee5,2022-05-11_22h24.05.808,classification_task,2021.2.3,Win32,60.7348922,627c6715c52fd12f31907bcf,,,,,,,,,,,,,,,,,,,,,,,l,1,"[""0.146"",""0.219"",""0.111"",""0.743""]","[1,1,0,1]",0,24,24,24,1,1,0,,,1,FALSE,0.801,,,,,,,,,,,,,,,,,,,,,,,,,,,,,,,
,5ea6572b086c724ee6eb019a,627c6f8c10af4547ceae7ee5,2022-05-11_22h24.05.808,classification_task,2021.2.3,Win32,60.7348922,627c6715c52fd12f31907bcf,,,,,,,,,,,,,,,,,,,,,,,l,1,"[""0.061"",""0.316"",""0.662"",""0.026""]","[1,1,1,0]",0,25,25,25,1,1,1,,,1,FALSE,0.6998,,,,,,,,,,,,,,,,,,,,,,,,,,,,,,,
,5ea6572b086c724ee6eb019a,627c6f8c10af4547ceae7ee5,2022-05-11_22h24.05.808,classification_task,2021.2.3,Win32,60.7348922,627c6715c52fd12f31907bcf,,,,,,,,,,,,,,,,,,,,,,,a,1,"[""0.185"",""0.355"",""0.518"",""0.939""]","[1,1,0,1]",0,26,26,26,1,0,1,,,1,FALSE,1.0342,,,,,,,,,,,,,,,,,,,,,,,,,,,,,,,
,5ea6572b086c724ee6eb019a,627c6f8c10af4547ceae7ee5,2022-05-11_22h24.05.808,classification_task,2021.2.3,Win32,60.7348922,627c6715c52fd12f31907bcf,,,,,,,,,,,,,,,,,,,,,,,a,1,"[""0.281"",""0.396"",""0.098"",""0.973""]","[1,1,0,1]",0,27,27,27,1,0,0,,,1,FALSE,1.0752,,,,,,,,,,,,,,,,,,,,,,,,,,,,,,,
,5ea6572b086c724ee6eb019a,627c6f8c10af4547ceae7ee5,2022-05-11_22h24.05.808,classification_task,2021.2.3,Win32,60.7348922,627c6715c52fd12f31907bcf,,,,,,,,,,,,,,,,,,,,,,,a,1,"[""0.185"",""0.355"",""0.822"",""0.450""]","[1,1,1,0]",0,28,28,28,1,0,1,,,1,FALSE,1.0671,,,,,,,,,,,,,,,,,,,,,,,,,,,,,,,
,5ea6572b086c724ee6eb019a,627c6f8c10af4547ceae7ee5,2022-05-11_22h24.05.808,classification_task,2021.2.3,Win32,60.7348922,627c6715c52fd12f31907bcf,,,,,,,,,,,,,,,,,,,,,,,a,1,"[""0.504"",""0.396"",""0.889"",""0.973""]","[0,1,1,1]",0,29,29,29,1,0,0,,,1,FALSE,1.2533,,,,,,,,,,,,,,,,,,,,,,,,,,,,,,,
,5ea6572b086c724ee6eb019a,627c6f8c10af4547ceae7ee5,2022-05-11_22h24.05.808,classification_task,2021.2.3,Win32,60.7348922,627c6715c52fd12f31907bcf,,,,,,,,,,,,,,,,,,,,,,,a,0,"[""0.146"",""0.492"",""0.569"",""0.743""]","[1,0,1,1]",0,30,30,30,1,1,0,,,1,FALSE,1.5077,,,,,,,,,,,,,,,,,,,,,,,,,,,,,,,
,5ea6572b086c724ee6eb019a,627c6f8c10af4547ceae7ee5,2022-05-11_22h24.05.808,classification_task,2021.2.3,Win32,60.7348922,627c6715c52fd12f31907bcf,,,,,,,,,,,,,,,,,,,,,,,a,0,"[""0.061"",""0.316"",""0.504"",""0.779""]","[1,1,0,1]",0,31,31,31,1,1,1,,,1,FALSE,1.9472,,,,,,,,,,,,,,,,,,,,,,,,,,,,,,,
,5ea6572b086c724ee6eb019a,627c6f8c10af4547ceae7ee5,2022-05-11_22h24.05.808,classification_task,2021.2.3,Win32,60.7348922,627c6715c52fd12f31907bcf,,,,,,,,,,,,,,,,,,,,,,,a,1,"[""0.281"",""0.396"",""0.111"",""0.973""]","[1,1,0,1]",0,32,32,32,1,0,0,,,1,FALSE,3.0725,,,,,,,,,,,,,,,,,,,,,,,,,,,,,,,
,5ea6572b086c724ee6eb019a,627c6f8c10af4547ceae7ee5,2022-05-11_22h24.05.808,classification_task,2021.2.3,Win32,60.7348922,627c6715c52fd12f31907bcf,,,,,,,,,,,,,,,,,,,,,,,l,0,"[""0.185"",""0.098"",""0.822"",""0.939""]","[1,0,1,1]",0,33,33,33,1,0,1,,,1,FALSE,0.7368,,,,,,,,,,,,,,,,,,,,,,,,,,,,,,,
,5ea6572b086c724ee6eb019a,627c6f8c10af4547ceae7ee5,2022-05-11_22h24.05.808,classification_task,2021.2.3,Win32,60.7348922,627c6715c52fd12f31907bcf,,,,,,,,,,,,,,,,,,,,,,,a,0,"[""0.504"",""0.316"",""0.662"",""0.779""]","[0,1,1,1]",0,34,34,34,1,1,1,,,1,FALSE,1.054,,,,,,,,,,,,,,,,,,,,,,,,,,,,,,,
,5ea6572b086c724ee6eb019a,627c6f8c10af4547ceae7ee5,2022-05-11_22h24.05.808,classification_task,2021.2.3,Win32,60.7348922,627c6715c52fd12f31907bcf,,,,,,,,,,,,,,,,,,,,,,,l,0,"[""0.185"",""0.355"",""0.822"",""0.103""]","[1,1,1,0]",0,35,35,35,1,0,1,,,1,FALSE,4.0049,,,,,,,,,,,,,,,,,,,,,,,,,,,,,,,
,5ea6572b086c724ee6eb019a,627c6f8c10af4547ceae7ee5,2022-05-11_22h24.05.808,classification_task,2021.2.3,Win32,60.7348922,627c6715c52fd12f31907bcf,,,,,,,,,,,,,,,,,,,,,,,l,1,"[""0.518"",""0.219"",""0.569"",""0.743""]","[0,1,1,1]",0,36,36,36,1,1,0,,,1,FALSE,0.8517,,,,,,,,,,,,,,,,,,,,,,,,,,,,,,,
,5ea6572b086c724ee6eb019a,627c6f8c10af4547ceae7ee5,2022-05-11_22h24.05.808,classification_task,2021.2.3,Win32,60.7348922,627c6715c52fd12f31907bcf,,,,,,,,,,,,,,,,,,,,,,,l,1,"[""0.061"",""0.316"",""0.103"",""0.779""]","[1,1,0,1]",0,37,37,37,1,1,1,,,1,FALSE,2.7823,,,,,,,,,,,,,,,,,,,,,,,,,,,,,,,
,5ea6572b086c724ee6eb019a,627c6f8c10af4547ceae7ee5,2022-05-11_22h24.05.808,classification_task,2021.2.3,Win32,60.7348922,627c6715c52fd12f31907bcf,,,,,,,,,,,,,,,,,,,,,,,l,1,"[""0.146"",""0.219"",""0.473"",""0.743""]","[1,1,0,1]",0,38,38,38,1,1,0,,,1,FALSE,1.3178,,,,,,,,,,,,,,,,,,,,,,,,,,,,,,,
,5ea6572b086c724ee6eb019a,627c6f8c10af4547ceae7ee5,2022-05-11_22h24.05.808,classification_task,2021.2.3,Win32,60.7348922,627c6715c52fd12f31907bcf,,,,,,,,,,,,,,,,,,,,,,,a,1,"[""0.185"",""0.355"",""0.448"",""0.939""]","[1,1,0,1]",0,39,39,39,1,0,1,,,1,FALSE,1.7508,,,,,,,,,,,,,,,,,,,,,,,,,,,,,,,
,5ea6572b086c724ee6eb019a,627c6f8c10af4547ceae7ee5,2022-05-11_22h24.05.808,classification_task,2021.2.3,Win32,60.7348922,627c6715c52fd12f31907bcf,,,,,,,,,,,,,,,,,,,,,,,l,1,"[""0.146"",""0.219"",""0.569"",""0.103""]","[1,1,1,0]",0,40,40,40,1,1,0,,,1,FALSE,0.6994,,,,,,,,,,,,,,,,,,,,,,,,,,,,,,,
,5ea6572b086c724ee6eb019a,627c6f8c10af4547ceae7ee5,2022-05-11_22h24.05.808,classification_task,2021.2.3,Win32,60.7348922,627c6715c52fd12f31907bcf,,,,,,,,,,,,,,,,,,,,,,,l,1,"[""0.061"",""0.098"",""0.662"",""0.779""]","[1,0,1,1]",0,41,41,41,1,1,1,,,1,FALSE,0.7383,,,,,,,,,,,,,,,,,,,,,,,,,,,,,,,
,5ea6572b086c724ee6eb019a,627c6f8c10af4547ceae7ee5,2022-05-11_22h24.05.808,classification_task,2021.2.3,Win32,60.7348922,627c6715c52fd12f31907bcf,,,,,,,,,,,,,,,,,,,,,,,a,1,"[""0.281"",""0.531"",""0.889"",""0.973""]","[1,0,1,1]",0,42,42,42,1,0,0,,,1,FALSE,1.8363,,,,,,,,,,,,,,,,,,,,,,,,,,,,,,,
,5ea6572b086c724ee6eb019a,627c6f8c10af4547ceae7ee5,2022-05-11_22h24.05.808,classification_task,2021.2.3,Win32,60.7348922,627c6715c52fd12f31907bcf,,,,,,,,,,,,,,,,,,,,,,,l,0,"[""0.281"",""0.396"",""0.889"",""0.492""]","[1,1,1,0]",0,43,43,43,1,0,0,,,1,FALSE,2.8648,,,,,,,,,,,,,,,,,,,,,,,,,,,,,,,
,5ea6572b086c724ee6eb019a,627c6f8c10af4547ceae7ee5,2022-05-11_22h24.05.808,classification_task,2021.2.3,Win32,60.7348922,627c6715c52fd12f31907bcf,,,,,,,,,,,,,,,,,,,,,,,l,1,"[""0.146"",""0.517"",""0.569"",""0.743""]","[1,0,1,1]",0,44,44,44,1,1,0,,,1,FALSE,0.866,,,,,,,,,,,,,,,,,,,,,,,,,,,,,,,
,5ea6572b086c724ee6eb019a,627c6f8c10af4547ceae7ee5,2022-05-11_22h24.05.808,classification_task,2021.2.3,Win32,60.7348922,627c6715c52fd12f31907bcf,,,,,,,,,,,,,,,,,,,,,,,a,1,"[""0.098"",""0.396"",""0.889"",""0.973""]","[0,1,1,1]",0,45,45,45,1,0,0,,,1,FALSE,0.9056,,,,,,,,,,,,,,,,,,,,,,,,,,,,,,,
,5ea6572b086c724ee6eb019a,627c6f8c10af4547ceae7ee5,2022-05-11_22h24.05.808,classification_task,2021.2.3,Win32,60.7348922,627c6715c52fd12f31907bcf,,,,,,,,,,,,,,,,,,,,,,,a,1,"[""0.104"",""0.355"",""0.822"",""0.939""]","[0,1,1,1]",0,46,46,46,1,0,1,,,1,FALSE,1.4335,,,,,,,,,,,,,,,,,,,,,,,,,,,,,,,
,5ea6572b086c724ee6eb019a,627c6f8c10af4547ceae7ee5,2022-05-11_22h24.05.808,classification_task,2021.2.3,Win32,60.7348922,627c6715c52fd12f31907bcf,,,,,,,,,,,,,,,,,,,,,,,a,0,"[""0.061"",""0.316"",""0.662"",""0.098""]","[1,1,1,0]",0,47,47,47,1,1,1,,,1,FALSE,0.7481,,,,,,,,,,,,,,,,,,,,,,,,,,,,,,,
,5ea6572b086c724ee6eb019a,627c6f8c10af4547ceae7ee5,2022-05-11_22h24.05.808,classification_task,2021.2.3,Win32,60.7348922,627c6715c52fd12f31907bcf,,,,,,,,,,,,,,,,,,,,,,,a,0,"[""0.061"",""0.518"",""0.662"",""0.779""]","[1,0,1,1]",0,48,48,48,1,1,1,,,1,FALSE,1.0334,,,,,,,,,,,,,,,,,,,,,,,,,,,,,,,
,5ea6572b086c724ee6eb019a,627c6f8c10af4547ceae7ee5,2022-05-11_22h24.05.808,classification_task,2021.2.3,Win32,60.7348922,627c6715c52fd12f31907bcf,,,,,,,,,,,,,,,,,,,,,,,a,1,"[""0.185"",""0.518"",""0.822"",""0.939""]","[1,0,1,1]",0,49,49,49,1,0,1,,,1,FALSE,1.5926,,,,,,,,,,,,,,,,,,,,,,,,,,,,,,,
,5ea6572b086c724ee6eb019a,627c6f8c10af4547ceae7ee5,2022-05-11_22h24.05.808,classification_task,2021.2.3,Win32,60.7348922,627c6715c52fd12f31907bcf,,,,,,,,,,,,,,,,,,,,,,,l,1,"[""0.026"",""0.219"",""0.569"",""0.743""]","[0,1,1,1]",0,50,50,50,1,1,0,,,1,FALSE,2.412,,,,,,,,,,,,,,,,,,,,,,,,,,,,,,,
,5ea6572b086c724ee6eb019a,627c6f8c10af4547ceae7ee5,2022-05-11_22h24.05.808,classification_task,2021.2.3,Win32,60.7348922,627c6715c52fd12f31907bcf,,,,,,,,,,,,,,,,,,,,,,,a,1,"[""0.450"",""0.355"",""0.822"",""0.939""]","[0,1,1,1]",0,51,51,51,1,0,1,,,1,FALSE,1.0349,,,,,,,,,,,,,,,,,,,,,,,,,,,,,,,
,5ea6572b086c724ee6eb019a,627c6f8c10af4547ceae7ee5,2022-05-11_22h24.05.808,classification_task,2021.2.3,Win32,60.7348922,627c6715c52fd12f31907bcf,,,,,,,,,,,,,,,,,,,,,,,l,1,"[""0.061"",""0.316"",""0.026"",""0.779""]","[1,1,0,1]",0,52,52,52,1,1,1,,,1,FALSE,0.8661,,,,,,,,,,,,,,,,,,,,,,,,,,,,,,,
,5ea6572b086c724ee6eb019a,627c6f8c10af4547ceae7ee5,2022-05-11_22h24.05.808,classification_task,2021.2.3,Win32,60.7348922,627c6715c52fd12f31907bcf,,,,,,,,,,,,,,,,,,,,,,,a,0,"[""0.061"",""0.316"",""0.662"",""0.448""]","[1,1,1,0]",0,53,53,53,1,1,1,,,1,FALSE,0.8106,,,,,,,,,,,,,,,,,,,,,,,,,,,,,,,
,5ea6572b086c724ee6eb019a,627c6f8c10af4547ceae7ee5,2022-05-11_22h24.05.808,classification_task,2021.2.3,Win32,60.7348922,627c6715c52fd12f31907bcf,,,,,,,,,,,,,,,,,,,,,,,l,1,"[""0.146"",""0.219"",""0.569"",""0.531""]","[1,1,1,0]",0,54,54,54,1,1,0,,,1,FALSE,0.7666,,,,,,,,,,,,,,,,,,,,,,,,,,,,,,,
,5ea6572b086c724ee6eb019a,627c6f8c10af4547ceae7ee5,2022-05-11_22h24.05.808,classification_task,2021.2.3,Win32,60.7348922,627c6715c52fd12f31907bcf,,,,,,,,,,,,,,,,,,,,,,,l,0,"[""0.448"",""0.396"",""0.889"",""0.973""]","[0,1,1,1]",0,55,55,55,1,0,0,,,1,FALSE,0.6731,,,,,,,,,,,,,,,,,,,,,,,,,,,,,,,
,5ea6572b086c724ee6eb019a,627c6f8c10af4547ceae7ee5,2022-05-11_22h24.05.808,classification_task,2021.2.3,Win32,60.7348922,627c6715c52fd12f31907bcf,,,,,,,,,,,,,,,,,,,,,,,l,1,"[""0.146"",""0.446"",""0.569"",""0.743""]","[1,0,1,1]",0,56,56,56,1,1,0,,,1,FALSE,3.9174,,,,,,,,,,,,,,,,,,,,,,,,,,,,,,,
,5ea6572b086c724ee6eb019a,627c6f8c10af4547ceae7ee5,2022-05-11_22h24.05.808,classification_task,2021.2.3,Win32,60.7348922,627c6715c52fd12f31907bcf,,,,,,,,,,,,,,,,,,,,,,,a,1,"[""0.281"",""0.517"",""0.889"",""0.973""]","[1,0,1,1]",0,57,57,57,1,0,0,,,1,FALSE,1.3066,,,,,,,,,,,,,,,,,,,,,,,,,,,,,,,
,5ea6572b086c724ee6eb019a,627c6f8c10af4547ceae7ee5,2022-05-11_22h24.05.808,classification_task,2021.2.3,Win32,60.7348922,627c6715c52fd12f31907bcf,,,,,,,,,,,,,,,,,,,,,,,a,1,"[""0.185"",""0.355"",""0.822"",""0.518""]","[1,1,1,0]",0,58,58,58,1,0,1,,,1,FALSE,2.3366,,,,,,,,,,,,,,,,,,,,,,,,,,,,,,,
,5ea6572b086c724ee6eb019a,627c6f8c10af4547ceae7ee5,2022-05-11_22h24.05.808,classification_task,2021.2.3,Win32,60.7348922,627c6715c52fd12f31907bcf,,,,,,,,,,,,,,,,,,,,,,,l,1,"[""0.448"",""0.316"",""0.662"",""0.779""]","[0,1,1,1]",0,59,59,59,1,1,1,,,1,FALSE,2.0159,,,,,,,,,,,,,,,,,,,,,,,,,,,,,,,
,5ea6572b086c724ee6eb019a,627c6f8c10af4547ceae7ee5,2022-05-11_22h24.05.808,classification_task,2021.2.3,Win32,60.7348922,627c6715c52fd12f31907bcf,,,,,,,,,,,,,,,,,,,,,,,a,1,"[""0.185"",""0.355"",""0.448"",""0.939""]","[1,1,0,1]",0,60,60,60,1,0,1,,,1,FALSE,2.9296,,,,,,,,,,,,,,,,,,,,,,,,,,,,,,,
,5ea6572b086c724ee6eb019a,627c6f8c10af4547ceae7ee5,2022-05-11_22h24.05.808,classification_task,2021.2.3,Win32,60.7348922,627c6715c52fd12f31907bcf,,,,,,,,,,,,,,,,,,,,,,,l,0,"[""0.281"",""0.396"",""0.448"",""0.973""]","[1,1,0,1]",0,61,61,61,1,0,0,,,1,FALSE,0.6463,,,,,,,,,,,,,,,,,,,,,,,,,,,,,,,
,5ea6572b086c724ee6eb019a,627c6f8c10af4547ceae7ee5,2022-05-11_22h24.05.808,classification_task,2021.2.3,Win32,60.7348922,627c6715c52fd12f31907bcf,,,,,,,,,,,,,,,,,,,,,,,a,1,"[""0.281"",""0.396"",""0.889"",""0.504""]","[1,1,1,0]",0,62,62,62,1,0,0,,,1,FALSE,1.2555,,,,,,,,,,,,,,,,,,,,,,,,,,,,,,,
,5ea6572b086c724ee6eb019a,627c6f8c10af4547ceae7ee5,2022-05-11_22h24.05.808,classification_task,2021.2.3,Win32,60.7348922,627c6715c52fd12f31907bcf,,,,,,,,,,,,,,,,,,,,,,,l,1,"[""0.146"",""0.219"",""0.517"",""0.743""]","[1,1,0,1]",0,63,63,63,1,1,0,,,1,FALSE,1.0873,,,,,,,,,,,,,,,,,,,,,,,,,,,,,,,
,5ea6572b086c724ee6eb019a,627c6f8c10af4547ceae7ee5,2022-05-11_22h24.05.808,classification_task,2021.2.3,Win32,60.7348922,627c6715c52fd12f31907bcf,,,,,,,,,,,,,,,,,,,,,,,,,,,,,,,,,,,,,,,0, ,,0,0.841907095,170.9174,0,2,2,2,1,2,3,,,,,,,,,,,,,,,,,,
,5ea6572b086c724ee6eb019a,627c6f8c10af4547ceae7ee5,2022-05-11_22h24.05.808,classification_task,2021.2.3,Win32,60.7348922,627c6715c52fd12f31907bcf,,,,,,,,,,,,,,,,,,,,,,,,,,,,,,,,,,,,,,,1,  ,,0,0.621448168,172.0835,0,2,2,2,1,2,3,,,,,,,,,,,,,,,,,,
,5ea6572b086c724ee6eb019a,627c6f8c10af4547ceae7ee5,2022-05-11_22h24.05.808,classification_task,2021.2.3,Win32,60.7348922,627c6715c52fd12f31907bcf,,,,,,,,,,,,,,,,,,,,,,,,,,,,,,,,,,,,,,,2,  ,,0,1.429796946,174.0864,0,2,2,2,1,2,3,,,,,,,,,,,,,,,,,,
,5ea6572b086c724ee6eb019a,627c6f8c10af4547ceae7ee5,2022-05-11_22h24.05.808,classification_task,2021.2.3,Win32,60.7348922,627c6715c52fd12f31907bcf,,,,,,,,,,,,,,,,,,,,,,,,,,,,,,,,,,,,,,,,,,,,,0,2,2,2,1,,3,,,,,,,,,,,,,,,,,,
,5ea6572b086c724ee6eb019a,627c6f8c10af4547ceae7ee5,2022-05-11_22h24.05.808,classification_task,2021.2.3,Win32,60.7348922,627c6715c52fd12f31907bcf,,,,,,,,,,,,,,,,,,,,,,,,,,,,,,,,,,,,,,,,,,,,,,,,,,,,,I believe the aid is a competent performer,,0.7,0,1,820.6341,0,0,0,0,1,0,,,,,
,5ea6572b086c724ee6eb019a,627c6f8c10af4547ceae7ee5,2022-05-11_22h24.05.808,classification_task,2021.2.3,Win32,60.7348922,627c6715c52fd12f31907bcf,,,,,,,,,,,,,,,,,,,,,,,,,,,,,,,,,,,,,,,,,,,,,,,,,,,,,I trust the aid,,0.7,0,1,822.1499,0,0,0,0,1,0,,,,,
,5ea6572b086c724ee6eb019a,627c6f8c10af4547ceae7ee5,2022-05-11_22h24.05.808,classification_task,2021.2.3,Win32,60.7348922,627c6715c52fd12f31907bcf,,,,,,,,,,,,,,,,,,,,,,,,,,,,,,,,,,,,,,,,,,,,,,,,,,,,,I have confidence in the advice given by the aid,,0.7,0,2,823.7197,0,0,0,0,1,0,,,,,
,5ea6572b086c724ee6eb019a,627c6f8c10af4547ceae7ee5,2022-05-11_22h24.05.808,classification_task,2021.2.3,Win32,60.7348922,627c6715c52fd12f31907bcf,,,,,,,,,,,,,,,,,,,,,,,,,,,,,,,,,,,,,,,,,,,,,,,,,,,,,I can depend on the aid,,0.7,0,2,825.02,0,0,0,0,1,0,,,,,
,5ea6572b086c724ee6eb019a,627c6f8c10af4547ceae7ee5,2022-05-11_22h24.05.808,classification_task,2021.2.3,Win32,60.7348922,627c6715c52fd12f31907bcf,,,,,,,,,,,,,,,,,,,,,,,,,,,,,,,,,,,,,,,,,,,,,,,,,,,,,I can rely on the aid to behave in consistent ways,,0.7,0,1,827.1213,0,0,0,0,1,0,,,,,
,5ea6572b086c724ee6eb019a,627c6f8c10af4547ceae7ee5,2022-05-11_22h24.05.808,classification_task,2021.2.3,Win32,60.7348922,627c6715c52fd12f31907bcf,,,,,,,,,,,,,,,,,,,,,,,,,,,,,,,,,,,,,,,,,,,,,,,,,,,,,I can rely on the aid to do its best every time I take its advice,,0.7,0,1,828.8236,0,0,0,0,1,0,,,,,
,5ea6572b086c724ee6eb019a,627c6f8c10af4547ceae7ee5,2022-05-11_22h24.05.808,classification_task,2021.2.3,Win32,60.7348922,627c6715c52fd12f31907bcf,,,,,,,,,,,,,,,,,,,,,,,,,,,,,,,,,,,,,,,,,,,,,,,,,,,,,"On trials you completed with assistance from the aid, how frequently did you think the aid was correct?",,0.7,0,33%,,0,0,0,0,1,0,,,,,
,5ea6572b086c724ee6eb019a,627c6f8c10af4547ceae7ee5,2022-05-11_22h24.05.808,classification_task,2021.2.3,Win32,60.7348922,627c6715c52fd12f31907bcf,,,,,,,,,,,,,,,,,,,,,,,,,,,,,,,,,,,,,,,,,,,,,,,,,,,,,"On trials you completed without the aid, how frequently did you think you were correct?",,0.7,0,75%,,0,0,0,0,1,0,,,,,
,5ea6572b086c724ee6eb019a,627c6f8c10af4547ceae7ee5,2022-05-11_22h24.05.808,classification_task,2021.2.3,Win32,60.7348922,627c6715c52fd12f31907bcf,,,,,,,,,,,,,,,,,,,,,,,,,,,,,,,,,,,,,,,,,,,,,,,,,,,,,,,,,,,0,0,0,0,1,,,,,,
,5ea6572b086c724ee6eb019a,627c6f8c10af4547ceae7ee5,2022-05-11_22h24.05.808,classification_task,2021.2.3,Win32,60.7348922,627c6715c52fd12f31907bcf,,,,,,,,,,,,,,,,,,,,,,,,,,,,,,,,,,,,,,,,,,,,,,,,,,,,,,,,,,,,,,,,,space,11.3212,858.8557,,
,5ea6572b086c724ee6eb019a,627c6f8c10af4547ceae7ee5,2022-05-11_22h24.05.808,classification_task,2021.2.3,Win32,60.7348922,627c6715c52fd12f31907bcf,,,,,,,,,,,,,,,,,,,,,,,,,,,,,,,,,,,,,,,,,,,,,,,,,,,,,,,,,,,,,,,,,,,,"Mozilla/5.0 (Windows NT 10.0; Win64; x64) AppleWebKit/537.36 (KHTML, like Gecko) Chrome/101.0.4951.54 Safari/537.36 Edg/101.0.1210.39",
,5ea6572b086c724ee6eb019a,627c6f8c10af4547ceae7ee5,2022-05-11_22h24.05.808,classification_task,2021.2.3,Win32,60.7348922,627c6715c52fd12f31907bcf,,,,,,,,,,,,,,,,,,,,,,,,,,,,,,,,,,,,,,,,,,,,,,,,,,,,,,,,,,,,,,,,,,,,,LOWLIGHT
