usingWebGL,participant,session,date,expName,psychopyVersion,OS,frameRate,PROLIFIC_PID,STUDY_ID,SESSION_ID,signatures_friend,signatures_foe,band_ranges_top,band_ranges_bottom,formitemText,formtype,formundefined,formitemWidth,formindex,formresponse,formrt,key_resp_2.keys,key_resp_2.rt,tute_resp.keys,tute_resp.rt,tutorial.thisRepN,tutorial.thisTrialN,tutorial.thisN,tutorial.thisIndex,tutorial.ran,key_resp_4.keys,key_resp_4.rt,key_resp.keys,key_resp.corr,key_resp.rt,lines_presented,is_signal_presented,trials.thisRepN,trials.thisTrialN,trials.thisN,trials.thisIndex,trials.ran,vessel,active_band,lines,is_signal,supported_pos,catch_trial,debrief_formindex,debrief_formitemText,debrief_formtype,debrief_formitemWidth,debrief_formresponse,debrief_formrt,phases.thisRepN,phases.thisTrialN,phases.thisN,phases.thisIndex,phases.ran,phases.order,phase,key_resp_3.keys,trustitemText,trusttype,trustitemWidth,trustindex,trustresponse,trustrt,support_status.thisRepN,support_status.thisTrialN,support_status.thisN,support_status.thisIndex,support_status.ran,support_status.order,key_resp_5.keys,key_resp_5.rt,globalClockTime,userAgent
TRUE,5ea8176676434f02a39db063,001,2022-04-28_20h14.30.299,classification_task,2021.2.3,Win32,59.93407252,5ea8176676434f02a39db063,626b377229c10585ec392f89,626b3ac19e6814ab52aa8bb4,,,,,,,,,,,,,,,,,,,,,,,,,,,,,,,,,,,,,,,,,,,,,,,,,,,,,,,,,,,,,,,,,,,,
,5ea8176676434f02a39db063,001,2022-04-28_20h14.30.299,classification_task,2021.2.3,Win32,59.93407252,5ea8176676434f02a39db063,626b377229c10585ec392f89,626b3ac19e6814ab52aa8bb4,"[[""0.252"",""0.465"",""0.879"",""0.913""],[""0.298"",""0.375"",""0.613"",""0.968""]]","[[""0.051"",""0.190"",""0.665"",""0.750""],[""0.087"",""0.339"",""0.531"",""0.799""]]","[1,10]","[100,1000]",Video game experience,,,0.7,0,,,,,,,,,,,,,,,,,,,,,,,,,,,,,,,,,,,,,,,,,,,,,,,,,,,,,,,,,,,
,5ea8176676434f02a39db063,001,2022-04-28_20h14.30.299,classification_task,2021.2.3,Win32,59.93407252,5ea8176676434f02a39db063,626b377229c10585ec392f89,626b3ac19e6814ab52aa8bb4,,,,,Approximately how many hours did you spend playing video games in the last week?,,,0.7,0,12,,,,,,,,,,,,,,,,,,,,,,,,,,,,,,,,,,,,,,,,,,,,,,,,,,,,,,,,,,
,5ea8176676434f02a39db063,001,2022-04-28_20h14.30.299,classification_task,2021.2.3,Win32,59.93407252,5ea8176676434f02a39db063,626b377229c10585ec392f89,626b3ac19e6814ab52aa8bb4,,,,,"Which game did you play the most this year? (Enter ""None"" if you didn't play any)",,,0.7,0,God of War,,,,,,,,,,,,,,,,,,,,,,,,,,,,,,,,,,,,,,,,,,,,,,,,,,,,,,,,,,
,5ea8176676434f02a39db063,001,2022-04-28_20h14.30.299,classification_task,2021.2.3,Win32,59.93407252,5ea8176676434f02a39db063,626b377229c10585ec392f89,626b3ac19e6814ab52aa8bb4,,,,,Visual perception,,,0.7,0,,,,,,,,,,,,,,,,,,,,,,,,,,,,,,,,,,,,,,,,,,,,,,,,,,,,,,,,,,,
,5ea8176676434f02a39db063,001,2022-04-28_20h14.30.299,classification_task,2021.2.3,Win32,59.93407252,5ea8176676434f02a39db063,626b377229c10585ec392f89,626b3ac19e6814ab52aa8bb4,,,,,Do you have any form of color blindness?,,,0.7,0,No,37.6765,,,,,,,,,,,,,,,,,,,,,,,,,,,,,,,,,,,,,,,,,,,,,,,,,,,,,,,,,
,5ea8176676434f02a39db063,001,2022-04-28_20h14.30.299,classification_task,2021.2.3,Win32,59.93407252,5ea8176676434f02a39db063,626b377229c10585ec392f89,626b3ac19e6814ab52aa8bb4,,,,,Do you use software to change the colour temperature of your screen (e.g. f.lux)?,,,0.7,0,No,44.7132,,,,,,,,,,,,,,,,,,,,,,,,,,,,,,,,,,,,,,,,,,,,,,,,,,,,,,,,,
,5ea8176676434f02a39db063,001,2022-04-28_20h14.30.299,classification_task,2021.2.3,Win32,59.93407252,5ea8176676434f02a39db063,626b377229c10585ec392f89,626b3ac19e6814ab52aa8bb4,,,,,,,,,,,,space,26.9245,space,15.4464,0,0,0,0,1,,,,,,,,,,,,,,,,,,,,,,,,,,,,,,,,,,,,,,,,,,,,,,,,
,5ea8176676434f02a39db063,001,2022-04-28_20h14.30.299,classification_task,2021.2.3,Win32,59.93407252,5ea8176676434f02a39db063,626b377229c10585ec392f89,626b3ac19e6814ab52aa8bb4,,,,,,,,,,,,,,space,9.539,1,0,1,0,1,,,,,,,,,,,,,,,,,,,,,,,,,,,,,,,,,,,,,,,,,,,,,,,,
,5ea8176676434f02a39db063,001,2022-04-28_20h14.30.299,classification_task,2021.2.3,Win32,59.93407252,5ea8176676434f02a39db063,626b377229c10585ec392f89,626b3ac19e6814ab52aa8bb4,,,,,,,,,,,,,,space,46.0125,2,0,2,0,1,,,,,,,,,,,,,,,,,,,,,,,,,,,,,,,,,,,,,,,,,,,,,,,,
,5ea8176676434f02a39db063,001,2022-04-28_20h14.30.299,classification_task,2021.2.3,Win32,59.93407252,5ea8176676434f02a39db063,626b377229c10585ec392f89,626b3ac19e6814ab52aa8bb4,,,,,,,,,,,,,,space,12.4627,3,0,3,0,1,,,,,,,,,,,,,,,,,,,,,,,,,,,,,,,,,,,,,,,,,,,,,,,,
,5ea8176676434f02a39db063,001,2022-04-28_20h14.30.299,classification_task,2021.2.3,Win32,59.93407252,5ea8176676434f02a39db063,626b377229c10585ec392f89,626b3ac19e6814ab52aa8bb4,,,,,,,,,,,,,,space,19.3273,4,0,4,0,1,,,,,,,,,,,,,,,,,,,,,,,,,,,,,,,,,,,,,,,,,,,,,,,,
,5ea8176676434f02a39db063,001,2022-04-28_20h14.30.299,classification_task,2021.2.3,Win32,59.93407252,5ea8176676434f02a39db063,626b377229c10585ec392f89,626b3ac19e6814ab52aa8bb4,,,,,,,,,,,,,,,,,,,,,space,17.1757,l,0,7.759,"[""0.252"",""0.465"",""0.153"",""0.913""]","[1,1,0,1]",0,0,0,0,1,0,0,,,0,FALSE,,,,,,,,,,,,,,,,,,,,,,,,,,,,,,
,5ea8176676434f02a39db063,001,2022-04-28_20h14.30.299,classification_task,2021.2.3,Win32,59.93407252,5ea8176676434f02a39db063,626b377229c10585ec392f89,626b3ac19e6814ab52aa8bb4,,,,,,,,,,,,,,,,,,,,,,,l,1,4.2988,"[""0.087"",""0.339"",""0.832"",""0.799""]","[1,1,0,1]",0,1,1,1,1,1,1,,,0,FALSE,,,,,,,,,,,,,,,,,,,,,,,,,,,,,,
,5ea8176676434f02a39db063,001,2022-04-28_20h14.30.299,classification_task,2021.2.3,Win32,59.93407252,5ea8176676434f02a39db063,626b377229c10585ec392f89,626b3ac19e6814ab52aa8bb4,,,,,,,,,,,,,,,,,,,,,,,a,1,3.6014,"[""0.415"",""0.375"",""0.613"",""0.968""]","[0,1,1,1]",0,2,2,2,1,0,1,,,0,FALSE,,,,,,,,,,,,,,,,,,,,,,,,,,,,,,
,5ea8176676434f02a39db063,001,2022-04-28_20h14.30.299,classification_task,2021.2.3,Win32,59.93407252,5ea8176676434f02a39db063,626b377229c10585ec392f89,626b3ac19e6814ab52aa8bb4,,,,,,,,,,,,,,,,,,,,,,,a,1,4.6129,"[""0.298"",""0.375"",""0.613"",""0.431""]","[1,1,1,0]",0,3,3,3,1,0,1,,,0,FALSE,,,,,,,,,,,,,,,,,,,,,,,,,,,,,,
,5ea8176676434f02a39db063,001,2022-04-28_20h14.30.299,classification_task,2021.2.3,Win32,59.93407252,5ea8176676434f02a39db063,626b377229c10585ec392f89,626b3ac19e6814ab52aa8bb4,,,,,,,,,,,,,,,,,,,,,,,l,1,3.3857,"[""0.051"",""0.190"",""0.665"",""0.120""]","[1,1,1,0]",0,4,4,4,1,1,0,,,0,FALSE,,,,,,,,,,,,,,,,,,,,,,,,,,,,,,
,5ea8176676434f02a39db063,001,2022-04-28_20h14.30.299,classification_task,2021.2.3,Win32,59.93407252,5ea8176676434f02a39db063,626b377229c10585ec392f89,626b3ac19e6814ab52aa8bb4,,,,,,,,,,,,,,,,,,,,,,,a,0,8.6593,"[""0.708"",""0.190"",""0.665"",""0.750""]","[0,1,1,1]",0,5,5,5,1,1,0,,,0,FALSE,,,,,,,,,,,,,,,,,,,,,,,,,,,,,,
,5ea8176676434f02a39db063,001,2022-04-28_20h14.30.299,classification_task,2021.2.3,Win32,59.93407252,5ea8176676434f02a39db063,626b377229c10585ec392f89,626b3ac19e6814ab52aa8bb4,,,,,,,,,,,,,,,,,,,,,,,l,1,3.9877,"[""0.051"",""0.716"",""0.665"",""0.750""]","[1,0,1,1]",0,6,6,6,1,1,0,,,0,FALSE,,,,,,,,,,,,,,,,,,,,,,,,,,,,,,
,5ea8176676434f02a39db063,001,2022-04-28_20h14.30.299,classification_task,2021.2.3,Win32,59.93407252,5ea8176676434f02a39db063,626b377229c10585ec392f89,626b3ac19e6814ab52aa8bb4,,,,,,,,,,,,,,,,,,,,,,,l,1,3.0935,"[""0.051"",""0.190"",""0.833"",""0.750""]","[1,1,0,1]",0,7,7,7,1,1,0,,,0,FALSE,,,,,,,,,,,,,,,,,,,,,,,,,,,,,,
,5ea8176676434f02a39db063,001,2022-04-28_20h14.30.299,classification_task,2021.2.3,Win32,59.93407252,5ea8176676434f02a39db063,626b377229c10585ec392f89,626b3ac19e6814ab52aa8bb4,,,,,,,,,,,,,,,,,,,,,,,l,0,6.5849,"[""0.298"",""0.375"",""0.132"",""0.968""]","[1,1,0,1]",0,8,8,8,1,0,1,,,0,FALSE,,,,,,,,,,,,,,,,,,,,,,,,,,,,,,
,5ea8176676434f02a39db063,001,2022-04-28_20h14.30.299,classification_task,2021.2.3,Win32,59.93407252,5ea8176676434f02a39db063,626b377229c10585ec392f89,626b3ac19e6814ab52aa8bb4,,,,,,,,,,,,,,,,,,,,,,,a,1,5.288,"[""0.298"",""0.153"",""0.613"",""0.968""]","[1,0,1,1]",0,9,9,9,1,0,1,,,0,FALSE,,,,,,,,,,,,,,,,,,,,,,,,,,,,,,
,5ea8176676434f02a39db063,001,2022-04-28_20h14.30.299,classification_task,2021.2.3,Win32,59.93407252,5ea8176676434f02a39db063,626b377229c10585ec392f89,626b3ac19e6814ab52aa8bb4,,,,,,,,,,,,,,,,,,,,,,,a,1,5.8572,"[""0.716"",""0.465"",""0.879"",""0.913""]","[0,1,1,1]",0,10,10,10,1,0,0,,,0,FALSE,,,,,,,,,,,,,,,,,,,,,,,,,,,,,,
,5ea8176676434f02a39db063,001,2022-04-28_20h14.30.299,classification_task,2021.2.3,Win32,59.93407252,5ea8176676434f02a39db063,626b377229c10585ec392f89,626b3ac19e6814ab52aa8bb4,,,,,,,,,,,,,,,,,,,,,,,l,1,5.6818,"[""0.700"",""0.339"",""0.531"",""0.799""]","[0,1,1,1]",0,11,11,11,1,1,1,,,0,FALSE,,,,,,,,,,,,,,,,,,,,,,,,,,,,,,
,5ea8176676434f02a39db063,001,2022-04-28_20h14.30.299,classification_task,2021.2.3,Win32,59.93407252,5ea8176676434f02a39db063,626b377229c10585ec392f89,626b3ac19e6814ab52aa8bb4,,,,,,,,,,,,,,,,,,,,,,,l,1,6.0739,"[""0.087"",""0.339"",""0.531"",""0.836""]","[1,1,1,0]",0,12,12,12,1,1,1,,,0,FALSE,,,,,,,,,,,,,,,,,,,,,,,,,,,,,,
,5ea8176676434f02a39db063,001,2022-04-28_20h14.30.299,classification_task,2021.2.3,Win32,59.93407252,5ea8176676434f02a39db063,626b377229c10585ec392f89,626b3ac19e6814ab52aa8bb4,,,,,,,,,,,,,,,,,,,,,,,l,0,7.0616,"[""0.252"",""0.465"",""0.879"",""0.132""]","[1,1,1,0]",0,13,13,13,1,0,0,,,0,FALSE,,,,,,,,,,,,,,,,,,,,,,,,,,,,,,
,5ea8176676434f02a39db063,001,2022-04-28_20h14.30.299,classification_task,2021.2.3,Win32,59.93407252,5ea8176676434f02a39db063,626b377229c10585ec392f89,626b3ac19e6814ab52aa8bb4,,,,,,,,,,,,,,,,,,,,,,,a,1,2.7654,"[""0.252"",""0.700"",""0.879"",""0.913""]","[1,0,1,1]",0,14,14,14,1,0,0,,,0,FALSE,,,,,,,,,,,,,,,,,,,,,,,,,,,,,,
,5ea8176676434f02a39db063,001,2022-04-28_20h14.30.299,classification_task,2021.2.3,Win32,59.93407252,5ea8176676434f02a39db063,626b377229c10585ec392f89,626b3ac19e6814ab52aa8bb4,,,,,,,,,,,,,,,,,,,,,,,l,1,3.8498,"[""0.087"",""0.132"",""0.531"",""0.799""]","[1,0,1,1]",0,15,15,15,1,1,1,,,0,FALSE,,,,,,,,,,,,,,,,,,,,,,,,,,,,,,
,5ea8176676434f02a39db063,001,2022-04-28_20h14.30.299,classification_task,2021.2.3,Win32,59.93407252,5ea8176676434f02a39db063,626b377229c10585ec392f89,626b3ac19e6814ab52aa8bb4,,,,,,,,,,,,,,,,,,,,,,,a,1,3.585,"[""0.252"",""0.465"",""0.431"",""0.913""]","[1,1,0,1]",0,16,16,16,1,0,0,,,0,FALSE,,,,,,,,,,,,,,,,,,,,,,,,,,,,,,
,5ea8176676434f02a39db063,001,2022-04-28_20h14.30.299,classification_task,2021.2.3,Win32,59.93407252,5ea8176676434f02a39db063,626b377229c10585ec392f89,626b3ac19e6814ab52aa8bb4,,,,,,,,,,,,,,,,,,,,,,,a,1,4.15,"[""0.703"",""0.465"",""0.879"",""0.913""]","[0,1,1,1]",0,17,17,17,1,0,0,,,0,FALSE,,,,,,,,,,,,,,,,,,,,,,,,,,,,,,
,5ea8176676434f02a39db063,001,2022-04-28_20h14.30.299,classification_task,2021.2.3,Win32,59.93407252,5ea8176676434f02a39db063,626b377229c10585ec392f89,626b3ac19e6814ab52aa8bb4,,,,,,,,,,,,,,,,,,,,,,,l,1,4.1864,"[""0.087"",""0.339"",""0.531"",""0.122""]","[1,1,1,0]",0,18,18,18,1,1,1,,,0,FALSE,,,,,,,,,,,,,,,,,,,,,,,,,,,,,,
,5ea8176676434f02a39db063,001,2022-04-28_20h14.30.299,classification_task,2021.2.3,Win32,59.93407252,5ea8176676434f02a39db063,626b377229c10585ec392f89,626b3ac19e6814ab52aa8bb4,,,,,,,,,,,,,,,,,,,,,,,l,1,4.3916,"[""0.842"",""0.339"",""0.531"",""0.799""]","[0,1,1,1]",0,19,19,19,1,1,1,,,0,FALSE,,,,,,,,,,,,,,,,,,,,,,,,,,,,,,
,5ea8176676434f02a39db063,001,2022-04-28_20h14.30.299,classification_task,2021.2.3,Win32,59.93407252,5ea8176676434f02a39db063,626b377229c10585ec392f89,626b3ac19e6814ab52aa8bb4,,,,,,,,,,,,,,,,,,,,,,,a,1,6.949,"[""0.252"",""0.465"",""0.879"",""0.153""]","[1,1,1,0]",0,20,20,20,1,0,0,,,0,FALSE,,,,,,,,,,,,,,,,,,,,,,,,,,,,,,
,5ea8176676434f02a39db063,001,2022-04-28_20h14.30.299,classification_task,2021.2.3,Win32,59.93407252,5ea8176676434f02a39db063,626b377229c10585ec392f89,626b3ac19e6814ab52aa8bb4,,,,,,,,,,,,,,,,,,,,,,,l,1,3.9891,"[""0.051"",""0.190"",""0.665"",""0.415""]","[1,1,1,0]",0,21,21,21,1,1,0,,,0,FALSE,,,,,,,,,,,,,,,,,,,,,,,,,,,,,,
,5ea8176676434f02a39db063,001,2022-04-28_20h14.30.299,classification_task,2021.2.3,Win32,59.93407252,5ea8176676434f02a39db063,626b377229c10585ec392f89,626b3ac19e6814ab52aa8bb4,,,,,,,,,,,,,,,,,,,,,,,a,1,3.8371,"[""0.298"",""0.832"",""0.613"",""0.968""]","[1,0,1,1]",0,22,22,22,1,0,1,,,0,FALSE,,,,,,,,,,,,,,,,,,,,,,,,,,,,,,
,5ea8176676434f02a39db063,001,2022-04-28_20h14.30.299,classification_task,2021.2.3,Win32,59.93407252,5ea8176676434f02a39db063,626b377229c10585ec392f89,626b3ac19e6814ab52aa8bb4,,,,,,,,,,,,,,,,,,,,,,,a,1,4.669,"[""0.252"",""0.832"",""0.879"",""0.913""]","[1,0,1,1]",0,23,23,23,1,0,0,,,0,FALSE,,,,,,,,,,,,,,,,,,,,,,,,,,,,,,
,5ea8176676434f02a39db063,001,2022-04-28_20h14.30.299,classification_task,2021.2.3,Win32,59.93407252,5ea8176676434f02a39db063,626b377229c10585ec392f89,626b3ac19e6814ab52aa8bb4,,,,,,,,,,,,,,,,,,,,,,,l,1,3.9188,"[""0.051"",""0.190"",""0.132"",""0.750""]","[1,1,0,1]",0,24,24,24,1,1,0,,,0,FALSE,,,,,,,,,,,,,,,,,,,,,,,,,,,,,,
,5ea8176676434f02a39db063,001,2022-04-28_20h14.30.299,classification_task,2021.2.3,Win32,59.93407252,5ea8176676434f02a39db063,626b377229c10585ec392f89,626b3ac19e6814ab52aa8bb4,,,,,,,,,,,,,,,,,,,,,,,a,1,5.1973,"[""0.415"",""0.375"",""0.613"",""0.968""]","[0,1,1,1]",0,25,25,25,1,0,1,,,0,FALSE,,,,,,,,,,,,,,,,,,,,,,,,,,,,,,
,5ea8176676434f02a39db063,001,2022-04-28_20h14.30.299,classification_task,2021.2.3,Win32,59.93407252,5ea8176676434f02a39db063,626b377229c10585ec392f89,626b3ac19e6814ab52aa8bb4,,,,,,,,,,,,,,,,,,,,,,,l,1,4.7016,"[""0.087"",""0.339"",""0.431"",""0.799""]","[1,1,0,1]",0,26,26,26,1,1,1,,,0,FALSE,,,,,,,,,,,,,,,,,,,,,,,,,,,,,,
,5ea8176676434f02a39db063,001,2022-04-28_20h14.30.299,classification_task,2021.2.3,Win32,59.93407252,5ea8176676434f02a39db063,626b377229c10585ec392f89,626b3ac19e6814ab52aa8bb4,,,,,,,,,,,,,,,,,,,,,,,l,1,5.8227,"[""0.087"",""0.120"",""0.531"",""0.799""]","[1,0,1,1]",0,27,27,27,1,1,1,,,0,FALSE,,,,,,,,,,,,,,,,,,,,,,,,,,,,,,
,5ea8176676434f02a39db063,001,2022-04-28_20h14.30.299,classification_task,2021.2.3,Win32,59.93407252,5ea8176676434f02a39db063,626b377229c10585ec392f89,626b3ac19e6814ab52aa8bb4,,,,,,,,,,,,,,,,,,,,,,,l,1,3.8611,"[""0.051"",""0.700"",""0.665"",""0.750""]","[1,0,1,1]",0,28,28,28,1,1,0,,,0,FALSE,,,,,,,,,,,,,,,,,,,,,,,,,,,,,,
,5ea8176676434f02a39db063,001,2022-04-28_20h14.30.299,classification_task,2021.2.3,Win32,59.93407252,5ea8176676434f02a39db063,626b377229c10585ec392f89,626b3ac19e6814ab52aa8bb4,,,,,,,,,,,,,,,,,,,,,,,l,1,5.1018,"[""0.123"",""0.190"",""0.665"",""0.750""]","[0,1,1,1]",0,29,29,29,1,1,0,,,0,FALSE,,,,,,,,,,,,,,,,,,,,,,,,,,,,,,
,5ea8176676434f02a39db063,001,2022-04-28_20h14.30.299,classification_task,2021.2.3,Win32,59.93407252,5ea8176676434f02a39db063,626b377229c10585ec392f89,626b3ac19e6814ab52aa8bb4,,,,,,,,,,,,,,,,,,,,,,,a,1,4.5361,"[""0.298"",""0.375"",""0.613"",""0.716""]","[1,1,1,0]",0,30,30,30,1,0,1,,,0,FALSE,,,,,,,,,,,,,,,,,,,,,,,,,,,,,,
,5ea8176676434f02a39db063,001,2022-04-28_20h14.30.299,classification_task,2021.2.3,Win32,59.93407252,5ea8176676434f02a39db063,626b377229c10585ec392f89,626b3ac19e6814ab52aa8bb4,,,,,,,,,,,,,,,,,,,,,,,a,1,3.8351,"[""0.298"",""0.375"",""0.123"",""0.968""]","[1,1,0,1]",0,31,31,31,1,0,1,,,0,FALSE,,,,,,,,,,,,,,,,,,,,,,,,,,,,,,
,5ea8176676434f02a39db063,001,2022-04-28_20h14.30.299,classification_task,2021.2.3,Win32,59.93407252,5ea8176676434f02a39db063,626b377229c10585ec392f89,626b3ac19e6814ab52aa8bb4,,,,,,,,,,,,,,,,,,,,,,,l,0,6.2118,"[""0.298"",""0.375"",""0.613"",""0.833""]","[1,1,1,0]",0,32,32,32,1,0,1,,,0,FALSE,,,,,,,,,,,,,,,,,,,,,,,,,,,,,,
,5ea8176676434f02a39db063,001,2022-04-28_20h14.30.299,classification_task,2021.2.3,Win32,59.93407252,5ea8176676434f02a39db063,626b377229c10585ec392f89,626b3ac19e6814ab52aa8bb4,,,,,,,,,,,,,,,,,,,,,,,a,1,4.9356,"[""0.252"",""0.465"",""0.132"",""0.913""]","[1,1,0,1]",0,33,33,33,1,0,0,,,0,FALSE,,,,,,,,,,,,,,,,,,,,,,,,,,,,,,
,5ea8176676434f02a39db063,001,2022-04-28_20h14.30.299,classification_task,2021.2.3,Win32,59.93407252,5ea8176676434f02a39db063,626b377229c10585ec392f89,626b3ac19e6814ab52aa8bb4,,,,,,,,,,,,,,,,,,,,,,,l,1,2.4416,"[""0.153"",""0.339"",""0.531"",""0.799""]","[0,1,1,1]",0,34,34,34,1,1,1,,,0,FALSE,,,,,,,,,,,,,,,,,,,,,,,,,,,,,,
,5ea8176676434f02a39db063,001,2022-04-28_20h14.30.299,classification_task,2021.2.3,Win32,59.93407252,5ea8176676434f02a39db063,626b377229c10585ec392f89,626b3ac19e6814ab52aa8bb4,,,,,,,,,,,,,,,,,,,,,,,l,1,1.5192,"[""0.087"",""0.339"",""0.531"",""0.120""]","[1,1,1,0]",0,35,35,35,1,1,1,,,0,FALSE,,,,,,,,,,,,,,,,,,,,,,,,,,,,,,
,5ea8176676434f02a39db063,001,2022-04-28_20h14.30.299,classification_task,2021.2.3,Win32,59.93407252,5ea8176676434f02a39db063,626b377229c10585ec392f89,626b3ac19e6814ab52aa8bb4,,,,,,,,,,,,,,,,,,,,,,,l,0,2.4493,"[""0.298"",""0.836"",""0.613"",""0.968""]","[1,0,1,1]",0,36,36,36,1,0,1,,,0,FALSE,,,,,,,,,,,,,,,,,,,,,,,,,,,,,,
,5ea8176676434f02a39db063,001,2022-04-28_20h14.30.299,classification_task,2021.2.3,Win32,59.93407252,5ea8176676434f02a39db063,626b377229c10585ec392f89,626b3ac19e6814ab52aa8bb4,,,,,,,,,,,,,,,,,,,,,,,a,1,4.0709,"[""0.122"",""0.375"",""0.613"",""0.968""]","[0,1,1,1]",0,37,37,37,1,0,1,,,0,FALSE,,,,,,,,,,,,,,,,,,,,,,,,,,,,,,
,5ea8176676434f02a39db063,001,2022-04-28_20h14.30.299,classification_task,2021.2.3,Win32,59.93407252,5ea8176676434f02a39db063,626b377229c10585ec392f89,626b3ac19e6814ab52aa8bb4,,,,,,,,,,,,,,,,,,,,,,,l,1,1.6609,"[""0.051"",""0.190"",""0.665"",""0.700""]","[1,1,1,0]",0,38,38,38,1,1,0,,,0,FALSE,,,,,,,,,,,,,,,,,,,,,,,,,,,,,,
,5ea8176676434f02a39db063,001,2022-04-28_20h14.30.299,classification_task,2021.2.3,Win32,59.93407252,5ea8176676434f02a39db063,626b377229c10585ec392f89,626b3ac19e6814ab52aa8bb4,,,,,,,,,,,,,,,,,,,,,,,l,0,2.4818,"[""0.252"",""0.465"",""0.879"",""0.836""]","[1,1,1,0]",0,39,39,39,1,0,0,,,0,FALSE,,,,,,,,,,,,,,,,,,,,,,,,,,,,,,
,5ea8176676434f02a39db063,001,2022-04-28_20h14.30.299,classification_task,2021.2.3,Win32,59.93407252,5ea8176676434f02a39db063,626b377229c10585ec392f89,626b3ac19e6814ab52aa8bb4,,,,,,,,,,,,,,,,,,,,,,,a,1,1.9297,"[""0.298"",""0.375"",""0.703"",""0.968""]","[1,1,0,1]",0,40,40,40,1,0,1,,,0,FALSE,,,,,,,,,,,,,,,,,,,,,,,,,,,,,,
,5ea8176676434f02a39db063,001,2022-04-28_20h14.30.299,classification_task,2021.2.3,Win32,59.93407252,5ea8176676434f02a39db063,626b377229c10585ec392f89,626b3ac19e6814ab52aa8bb4,,,,,,,,,,,,,,,,,,,,,,,a,0,1.6373,"[""0.087"",""0.123"",""0.531"",""0.799""]","[1,0,1,1]",0,41,41,41,1,1,1,,,0,FALSE,,,,,,,,,,,,,,,,,,,,,,,,,,,,,,
,5ea8176676434f02a39db063,001,2022-04-28_20h14.30.299,classification_task,2021.2.3,Win32,59.93407252,5ea8176676434f02a39db063,626b377229c10585ec392f89,626b3ac19e6814ab52aa8bb4,,,,,,,,,,,,,,,,,,,,,,,l,0,0.7033,"[""0.252"",""0.120"",""0.879"",""0.913""]","[1,0,1,1]",0,42,42,42,1,0,0,,,0,FALSE,,,,,,,,,,,,,,,,,,,,,,,,,,,,,,
,5ea8176676434f02a39db063,001,2022-04-28_20h14.30.299,classification_task,2021.2.3,Win32,59.93407252,5ea8176676434f02a39db063,626b377229c10585ec392f89,626b3ac19e6814ab52aa8bb4,,,,,,,,,,,,,,,,,,,,,,,l,1,1.771,"[""0.051"",""0.190"",""0.833"",""0.750""]","[1,1,0,1]",0,43,43,43,1,1,0,,,0,FALSE,,,,,,,,,,,,,,,,,,,,,,,,,,,,,,
,5ea8176676434f02a39db063,001,2022-04-28_20h14.30.299,classification_task,2021.2.3,Win32,59.93407252,5ea8176676434f02a39db063,626b377229c10585ec392f89,626b3ac19e6814ab52aa8bb4,,,,,,,,,,,,,,,,,,,,,,,a,0,3.116,"[""0.087"",""0.339"",""0.842"",""0.799""]","[1,1,0,1]",0,44,44,44,1,1,1,,,0,FALSE,,,,,,,,,,,,,,,,,,,,,,,,,,,,,,
,5ea8176676434f02a39db063,001,2022-04-28_20h14.30.299,classification_task,2021.2.3,Win32,59.93407252,5ea8176676434f02a39db063,626b377229c10585ec392f89,626b3ac19e6814ab52aa8bb4,,,,,,,,,,,,,,,,,,,,,,,l,1,2.7015,"[""0.836"",""0.190"",""0.665"",""0.750""]","[0,1,1,1]",0,45,45,45,1,1,0,,,0,FALSE,,,,,,,,,,,,,,,,,,,,,,,,,,,,,,
,5ea8176676434f02a39db063,001,2022-04-28_20h14.30.299,classification_task,2021.2.3,Win32,59.93407252,5ea8176676434f02a39db063,626b377229c10585ec392f89,626b3ac19e6814ab52aa8bb4,,,,,,,,,,,,,,,,,,,,,,,l,0,2.0037,"[""0.832"",""0.465"",""0.879"",""0.913""]","[0,1,1,1]",0,46,46,46,1,0,0,,,0,FALSE,,,,,,,,,,,,,,,,,,,,,,,,,,,,,,
,5ea8176676434f02a39db063,001,2022-04-28_20h14.30.299,classification_task,2021.2.3,Win32,59.93407252,5ea8176676434f02a39db063,626b377229c10585ec392f89,626b3ac19e6814ab52aa8bb4,,,,,,,,,,,,,,,,,,,,,,,a,0,1.2928,"[""0.051"",""0.431"",""0.665"",""0.750""]","[1,0,1,1]",0,47,47,47,1,1,0,,,0,FALSE,,,,,,,,,,,,,,,,,,,,,,,,,,,,,,
,5ea8176676434f02a39db063,001,2022-04-28_20h14.30.299,classification_task,2021.2.3,Win32,59.93407252,5ea8176676434f02a39db063,626b377229c10585ec392f89,626b3ac19e6814ab52aa8bb4,,,,,,,,,,,,,,,,,,,,,,,a,1,1.2462,"[""0.298"",""0.375"",""0.153"",""0.968""]","[1,1,0,1]",0,48,48,48,1,0,1,,,0,FALSE,,,,,,,,,,,,,,,,,,,,,,,,,,,,,,
,5ea8176676434f02a39db063,001,2022-04-28_20h14.30.299,classification_task,2021.2.3,Win32,59.93407252,5ea8176676434f02a39db063,626b377229c10585ec392f89,626b3ac19e6814ab52aa8bb4,,,,,,,,,,,,,,,,,,,,,,,l,0,1.2143,"[""0.252"",""0.415"",""0.879"",""0.913""]","[1,0,1,1]",0,49,49,49,1,0,0,,,0,FALSE,,,,,,,,,,,,,,,,,,,,,,,,,,,,,,
,5ea8176676434f02a39db063,001,2022-04-28_20h14.30.299,classification_task,2021.2.3,Win32,59.93407252,5ea8176676434f02a39db063,626b377229c10585ec392f89,626b3ac19e6814ab52aa8bb4,,,,,,,,,,,,,,,,,,,,,,,l,0,1.5225,"[""0.120"",""0.375"",""0.613"",""0.968""]","[0,1,1,1]",0,50,50,50,1,0,1,,,0,FALSE,,,,,,,,,,,,,,,,,,,,,,,,,,,,,,
,5ea8176676434f02a39db063,001,2022-04-28_20h14.30.299,classification_task,2021.2.3,Win32,59.93407252,5ea8176676434f02a39db063,626b377229c10585ec392f89,626b3ac19e6814ab52aa8bb4,,,,,,,,,,,,,,,,,,,,,,,a,0,1.2737,"[""0.051"",""0.190"",""0.665"",""0.573""]","[1,1,1,0]",0,51,51,51,1,1,0,,,0,FALSE,,,,,,,,,,,,,,,,,,,,,,,,,,,,,,
,5ea8176676434f02a39db063,001,2022-04-28_20h14.30.299,classification_task,2021.2.3,Win32,59.93407252,5ea8176676434f02a39db063,626b377229c10585ec392f89,626b3ac19e6814ab52aa8bb4,,,,,,,,,,,,,,,,,,,,,,,a,0,3.4723,"[""0.051"",""0.153"",""0.665"",""0.750""]","[1,0,1,1]",0,52,52,52,1,1,0,,,0,FALSE,,,,,,,,,,,,,,,,,,,,,,,,,,,,,,
,5ea8176676434f02a39db063,001,2022-04-28_20h14.30.299,classification_task,2021.2.3,Win32,59.93407252,5ea8176676434f02a39db063,626b377229c10585ec392f89,626b3ac19e6814ab52aa8bb4,,,,,,,,,,,,,,,,,,,,,,,l,0,2.3157,"[""0.708"",""0.465"",""0.879"",""0.913""]","[0,1,1,1]",0,53,53,53,1,0,0,,,0,FALSE,,,,,,,,,,,,,,,,,,,,,,,,,,,,,,
,5ea8176676434f02a39db063,001,2022-04-28_20h14.30.299,classification_task,2021.2.3,Win32,59.93407252,5ea8176676434f02a39db063,626b377229c10585ec392f89,626b3ac19e6814ab52aa8bb4,,,,,,,,,,,,,,,,,,,,,,,l,1,2.2422,"[""0.833"",""0.190"",""0.665"",""0.750""]","[0,1,1,1]",0,54,54,54,1,1,0,,,0,FALSE,,,,,,,,,,,,,,,,,,,,,,,,,,,,,,
,5ea8176676434f02a39db063,001,2022-04-28_20h14.30.299,classification_task,2021.2.3,Win32,59.93407252,5ea8176676434f02a39db063,626b377229c10585ec392f89,626b3ac19e6814ab52aa8bb4,,,,,,,,,,,,,,,,,,,,,,,a,0,1.4319,"[""0.087"",""0.153"",""0.531"",""0.799""]","[1,0,1,1]",0,55,55,55,1,1,1,,,0,FALSE,,,,,,,,,,,,,,,,,,,,,,,,,,,,,,
,5ea8176676434f02a39db063,001,2022-04-28_20h14.30.299,classification_task,2021.2.3,Win32,59.93407252,5ea8176676434f02a39db063,626b377229c10585ec392f89,626b3ac19e6814ab52aa8bb4,,,,,,,,,,,,,,,,,,,,,,,a,0,2.0819,"[""0.836"",""0.339"",""0.531"",""0.799""]","[0,1,1,1]",0,56,56,56,1,1,1,,,0,FALSE,,,,,,,,,,,,,,,,,,,,,,,,,,,,,,
,5ea8176676434f02a39db063,001,2022-04-28_20h14.30.299,classification_task,2021.2.3,Win32,59.93407252,5ea8176676434f02a39db063,626b377229c10585ec392f89,626b3ac19e6814ab52aa8bb4,,,,,,,,,,,,,,,,,,,,,,,l,0,1.9735,"[""0.252"",""0.465"",""0.879"",""0.842""]","[1,1,1,0]",0,57,57,57,1,0,0,,,0,FALSE,,,,,,,,,,,,,,,,,,,,,,,,,,,,,,
,5ea8176676434f02a39db063,001,2022-04-28_20h14.30.299,classification_task,2021.2.3,Win32,59.93407252,5ea8176676434f02a39db063,626b377229c10585ec392f89,626b3ac19e6814ab52aa8bb4,,,,,,,,,,,,,,,,,,,,,,,a,0,2.1126,"[""0.051"",""0.190"",""0.431"",""0.750""]","[1,1,0,1]",0,58,58,58,1,1,0,,,0,FALSE,,,,,,,,,,,,,,,,,,,,,,,,,,,,,,
,5ea8176676434f02a39db063,001,2022-04-28_20h14.30.299,classification_task,2021.2.3,Win32,59.93407252,5ea8176676434f02a39db063,626b377229c10585ec392f89,626b3ac19e6814ab52aa8bb4,,,,,,,,,,,,,,,,,,,,,,,a,0,2.1918,"[""0.087"",""0.339"",""0.531"",""0.833""]","[1,1,1,0]",0,59,59,59,1,1,1,,,0,FALSE,,,,,,,,,,,,,,,,,,,,,,,,,,,,,,
,5ea8176676434f02a39db063,001,2022-04-28_20h14.30.299,classification_task,2021.2.3,Win32,59.93407252,5ea8176676434f02a39db063,626b377229c10585ec392f89,626b3ac19e6814ab52aa8bb4,,,,,,,,,,,,,,,,,,,,,,,l,1,0.7409,"[""0.087"",""0.339"",""0.716"",""0.799""]","[1,1,0,1]",0,60,60,60,1,1,1,,,0,FALSE,,,,,,,,,,,,,,,,,,,,,,,,,,,,,,
,5ea8176676434f02a39db063,001,2022-04-28_20h14.30.299,classification_task,2021.2.3,Win32,59.93407252,5ea8176676434f02a39db063,626b377229c10585ec392f89,626b3ac19e6814ab52aa8bb4,,,,,,,,,,,,,,,,,,,,,,,a,1,1.7237,"[""0.252"",""0.465"",""0.573"",""0.913""]","[1,1,0,1]",0,61,61,61,1,0,0,,,0,FALSE,,,,,,,,,,,,,,,,,,,,,,,,,,,,,,
,5ea8176676434f02a39db063,001,2022-04-28_20h14.30.299,classification_task,2021.2.3,Win32,59.93407252,5ea8176676434f02a39db063,626b377229c10585ec392f89,626b3ac19e6814ab52aa8bb4,,,,,,,,,,,,,,,,,,,,,,,a,1,1.457,"[""0.298"",""0.842"",""0.613"",""0.968""]","[1,0,1,1]",0,62,62,62,1,0,1,,,0,FALSE,,,,,,,,,,,,,,,,,,,,,,,,,,,,,,
,5ea8176676434f02a39db063,001,2022-04-28_20h14.30.299,classification_task,2021.2.3,Win32,59.93407252,5ea8176676434f02a39db063,626b377229c10585ec392f89,626b3ac19e6814ab52aa8bb4,,,,,,,,,,,,,,,,,,,,,,,l,0,1.3979,"[""0.298"",""0.375"",""0.613"",""0.132""]","[1,1,1,0]",0,63,63,63,1,0,1,,,0,FALSE,,,,,,,,,,,,,,,,,,,,,,,,,,,,,,
,5ea8176676434f02a39db063,001,2022-04-28_20h14.30.299,classification_task,2021.2.3,Win32,59.93407252,5ea8176676434f02a39db063,626b377229c10585ec392f89,626b3ac19e6814ab52aa8bb4,,,,,,,,,,,,,,,,,,,,,,,,,,,,,,,,,,,,,,,0, ,,0,9.3533958,506.3533,0,0,0,0,1,2,1,,,,,,,,,,,,,,,,,
,5ea8176676434f02a39db063,001,2022-04-28_20h14.30.299,classification_task,2021.2.3,Win32,59.93407252,5ea8176676434f02a39db063,626b377229c10585ec392f89,626b3ac19e6814ab52aa8bb4,,,,,,,,,,,,,,,,,,,,,,,,,,,,,,,,,,,,,,,1,  ,,0,2.766496989,519.7709,0,0,0,0,1,2,1,,,,,,,,,,,,,,,,,
,5ea8176676434f02a39db063,001,2022-04-28_20h14.30.299,classification_task,2021.2.3,Win32,59.93407252,5ea8176676434f02a39db063,626b377229c10585ec392f89,626b3ac19e6814ab52aa8bb4,,,,,,,,,,,,,,,,,,,,,,,,,,,,,,,,,,,,,,,2,  ,,0,3.23174218,526.8469,0,0,0,0,1,2,1,,,,,,,,,,,,,,,,,
,5ea8176676434f02a39db063,001,2022-04-28_20h14.30.299,classification_task,2021.2.3,Win32,59.93407252,5ea8176676434f02a39db063,626b377229c10585ec392f89,626b3ac19e6814ab52aa8bb4,,,,,,,,,,,,,,,,,,,,,,,,,,,,,,,,,,,,,,,,,,,,,0,0,0,0,1,,1,,,,,,,,,,,,,,,,,
,5ea8176676434f02a39db063,001,2022-04-28_20h14.30.299,classification_task,2021.2.3,Win32,59.93407252,5ea8176676434f02a39db063,626b377229c10585ec392f89,626b3ac19e6814ab52aa8bb4,,,,,,,,,,,,,,,,,,,,,space,24.9202,a,1,4.8319,"[""0.252"",""0.465"",""0.120"",""0.913""]","[1,1,0,1]",0,0,0,0,1,0,0,,,0,FALSE,,,,,,,,,,,,,,,,,,,,,,,,,,,,,,
,5ea8176676434f02a39db063,001,2022-04-28_20h14.30.299,classification_task,2021.2.3,Win32,59.93407252,5ea8176676434f02a39db063,626b377229c10585ec392f89,626b3ac19e6814ab52aa8bb4,,,,,,,,,,,,,,,,,,,,,,,l,0,2.7283,"[""0.298"",""0.703"",""0.613"",""0.968""]","[1,0,1,1]",0,1,1,1,1,0,1,,,0,FALSE,,,,,,,,,,,,,,,,,,,,,,,,,,,,,,
,5ea8176676434f02a39db063,001,2022-04-28_20h14.30.299,classification_task,2021.2.3,Win32,59.93407252,5ea8176676434f02a39db063,626b377229c10585ec392f89,626b3ac19e6814ab52aa8bb4,,,,,,,,,,,,,,,,,,,,,,,a,1,2.298,"[""0.252"",""0.465"",""0.879"",""0.431""]","[1,1,1,0]",0,2,2,2,1,0,0,,,0,FALSE,,,,,,,,,,,,,,,,,,,,,,,,,,,,,,
,5ea8176676434f02a39db063,001,2022-04-28_20h14.30.299,classification_task,2021.2.3,Win32,59.93407252,5ea8176676434f02a39db063,626b377229c10585ec392f89,626b3ac19e6814ab52aa8bb4,,,,,,,,,,,,,,,,,,,,,,,l,1,1.6637,"[""0.051"",""0.190"",""0.665"",""0.832""]","[1,1,1,0]",0,3,3,3,1,1,0,,,0,FALSE,,,,,,,,,,,,,,,,,,,,,,,,,,,,,,
,5ea8176676434f02a39db063,001,2022-04-28_20h14.30.299,classification_task,2021.2.3,Win32,59.93407252,5ea8176676434f02a39db063,626b377229c10585ec392f89,626b3ac19e6814ab52aa8bb4,,,,,,,,,,,,,,,,,,,,,,,l,1,1.309,"[""0.051"",""0.190"",""0.122"",""0.750""]","[1,1,0,1]",0,4,4,4,1,1,0,,,0,FALSE,,,,,,,,,,,,,,,,,,,,,,,,,,,,,,
,5ea8176676434f02a39db063,001,2022-04-28_20h14.30.299,classification_task,2021.2.3,Win32,59.93407252,5ea8176676434f02a39db063,626b377229c10585ec392f89,626b3ac19e6814ab52aa8bb4,,,,,,,,,,,,,,,,,,,,,,,a,1,2.5889,"[""0.252"",""0.153"",""0.879"",""0.913""]","[1,0,1,1]",0,5,5,5,1,0,0,,,0,FALSE,,,,,,,,,,,,,,,,,,,,,,,,,,,,,,
,5ea8176676434f02a39db063,001,2022-04-28_20h14.30.299,classification_task,2021.2.3,Win32,59.93407252,5ea8176676434f02a39db063,626b377229c10585ec392f89,626b3ac19e6814ab52aa8bb4,,,,,,,,,,,,,,,,,,,,,,,a,1,3.4752,"[""0.833"",""0.465"",""0.879"",""0.913""]","[0,1,1,1]",0,6,6,6,1,0,0,,,0,FALSE,,,,,,,,,,,,,,,,,,,,,,,,,,,,,,
,5ea8176676434f02a39db063,001,2022-04-28_20h14.30.299,classification_task,2021.2.3,Win32,59.93407252,5ea8176676434f02a39db063,626b377229c10585ec392f89,626b3ac19e6814ab52aa8bb4,,,,,,,,,,,,,,,,,,,,,,,l,1,4.2294,"[""0.087"",""0.339"",""0.708"",""0.799""]","[1,1,0,1]",0,7,7,7,1,1,1,,,0,FALSE,,,,,,,,,,,,,,,,,,,,,,,,,,,,,,
,5ea8176676434f02a39db063,001,2022-04-28_20h14.30.299,classification_task,2021.2.3,Win32,59.93407252,5ea8176676434f02a39db063,626b377229c10585ec392f89,626b3ac19e6814ab52aa8bb4,,,,,,,,,,,,,,,,,,,,,,,l,1,1.7833,"[""0.051"",""0.703"",""0.665"",""0.750""]","[1,0,1,1]",0,8,8,8,1,1,0,,,0,FALSE,,,,,,,,,,,,,,,,,,,,,,,,,,,,,,
,5ea8176676434f02a39db063,001,2022-04-28_20h14.30.299,classification_task,2021.2.3,Win32,59.93407252,5ea8176676434f02a39db063,626b377229c10585ec392f89,626b3ac19e6814ab52aa8bb4,,,,,,,,,,,,,,,,,,,,,,,l,0,4.0727,"[""0.298"",""0.375"",""0.703"",""0.968""]","[1,1,0,1]",0,9,9,9,1,0,1,,,0,FALSE,,,,,,,,,,,,,,,,,,,,,,,,,,,,,,
,5ea8176676434f02a39db063,001,2022-04-28_20h14.30.299,classification_task,2021.2.3,Win32,59.93407252,5ea8176676434f02a39db063,626b377229c10585ec392f89,626b3ac19e6814ab52aa8bb4,,,,,,,,,,,,,,,,,,,,,,,l,0,3.0964,"[""0.298"",""0.375"",""0.613"",""0.833""]","[1,1,1,0]",0,10,10,10,1,0,1,,,0,FALSE,,,,,,,,,,,,,,,,,,,,,,,,,,,,,,
,5ea8176676434f02a39db063,001,2022-04-28_20h14.30.299,classification_task,2021.2.3,Win32,59.93407252,5ea8176676434f02a39db063,626b377229c10585ec392f89,626b3ac19e6814ab52aa8bb4,,,,,,,,,,,,,,,,,,,,,,,l,0,2.4456,"[""0.123"",""0.375"",""0.613"",""0.968""]","[0,1,1,1]",0,11,11,11,1,0,1,,,0,FALSE,,,,,,,,,,,,,,,,,,,,,,,,,,,,,,
,5ea8176676434f02a39db063,001,2022-04-28_20h14.30.299,classification_task,2021.2.3,Win32,59.93407252,5ea8176676434f02a39db063,626b377229c10585ec392f89,626b3ac19e6814ab52aa8bb4,,,,,,,,,,,,,,,,,,,,,,,l,1,1.3677,"[""0.153"",""0.190"",""0.665"",""0.750""]","[0,1,1,1]",0,12,12,12,1,1,0,,,0,FALSE,,,,,,,,,,,,,,,,,,,,,,,,,,,,,,
,5ea8176676434f02a39db063,001,2022-04-28_20h14.30.299,classification_task,2021.2.3,Win32,59.93407252,5ea8176676434f02a39db063,626b377229c10585ec392f89,626b3ac19e6814ab52aa8bb4,,,,,,,,,,,,,,,,,,,,,,,a,0,1.1524,"[""0.087"",""0.153"",""0.531"",""0.799""]","[1,0,1,1]",0,13,13,13,1,1,1,,,0,FALSE,,,,,,,,,,,,,,,,,,,,,,,,,,,,,,
,5ea8176676434f02a39db063,001,2022-04-28_20h14.30.299,classification_task,2021.2.3,Win32,59.93407252,5ea8176676434f02a39db063,626b377229c10585ec392f89,626b3ac19e6814ab52aa8bb4,,,,,,,,,,,,,,,,,,,,,,,l,1,0.8887,"[""0.087"",""0.339"",""0.531"",""0.716""]","[1,1,1,0]",0,14,14,14,1,1,1,,,0,FALSE,,,,,,,,,,,,,,,,,,,,,,,,,,,,,,
,5ea8176676434f02a39db063,001,2022-04-28_20h14.30.299,classification_task,2021.2.3,Win32,59.93407252,5ea8176676434f02a39db063,626b377229c10585ec392f89,626b3ac19e6814ab52aa8bb4,,,,,,,,,,,,,,,,,,,,,,,l,1,4.0494,"[""0.716"",""0.339"",""0.531"",""0.799""]","[0,1,1,1]",0,15,15,15,1,1,1,,,0,FALSE,,,,,,,,,,,,,,,,,,,,,,,,,,,,,,
,5ea8176676434f02a39db063,001,2022-04-28_20h14.30.299,classification_task,2021.2.3,Win32,59.93407252,5ea8176676434f02a39db063,626b377229c10585ec392f89,626b3ac19e6814ab52aa8bb4,,,,,,,,,,,,,,,,,,,,,,,l,1,2.7743,"[""0.087"",""0.339"",""0.123"",""0.799""]","[1,1,0,1]",0,16,16,16,1,1,1,,,0,FALSE,,,,,,,,,,,,,,,,,,,,,,,,,,,,,,
,5ea8176676434f02a39db063,001,2022-04-28_20h14.30.299,classification_task,2021.2.3,Win32,59.93407252,5ea8176676434f02a39db063,626b377229c10585ec392f89,626b3ac19e6814ab52aa8bb4,,,,,,,,,,,,,,,,,,,,,,,a,1,1.3517,"[""0.252"",""0.465"",""0.708"",""0.913""]","[1,1,0,1]",0,17,17,17,1,0,0,,,0,FALSE,,,,,,,,,,,,,,,,,,,,,,,,,,,,,,
,5ea8176676434f02a39db063,001,2022-04-28_20h14.30.299,classification_task,2021.2.3,Win32,59.93407252,5ea8176676434f02a39db063,626b377229c10585ec392f89,626b3ac19e6814ab52aa8bb4,,,,,,,,,,,,,,,,,,,,,,,l,1,2.0017,"[""0.051"",""0.832"",""0.665"",""0.750""]","[1,0,1,1]",0,18,18,18,1,1,0,,,0,FALSE,,,,,,,,,,,,,,,,,,,,,,,,,,,,,,
,5ea8176676434f02a39db063,001,2022-04-28_20h14.30.299,classification_task,2021.2.3,Win32,59.93407252,5ea8176676434f02a39db063,626b377229c10585ec392f89,626b3ac19e6814ab52aa8bb4,,,,,,,,,,,,,,,,,,,,,,,l,1,1.3072,"[""0.051"",""0.190"",""0.665"",""0.832""]","[1,1,1,0]",0,19,19,19,1,1,0,,,0,FALSE,,,,,,,,,,,,,,,,,,,,,,,,,,,,,,
,5ea8176676434f02a39db063,001,2022-04-28_20h14.30.299,classification_task,2021.2.3,Win32,59.93407252,5ea8176676434f02a39db063,626b377229c10585ec392f89,626b3ac19e6814ab52aa8bb4,,,,,,,,,,,,,,,,,,,,,,,a,1,2.2086,"[""0.132"",""0.375"",""0.613"",""0.968""]","[0,1,1,1]",0,20,20,20,1,0,1,,,0,FALSE,,,,,,,,,,,,,,,,,,,,,,,,,,,,,,
,5ea8176676434f02a39db063,001,2022-04-28_20h14.30.299,classification_task,2021.2.3,Win32,59.93407252,5ea8176676434f02a39db063,626b377229c10585ec392f89,626b3ac19e6814ab52aa8bb4,,,,,,,,,,,,,,,,,,,,,,,a,1,1.7791,"[""0.153"",""0.465"",""0.879"",""0.913""]","[0,1,1,1]",0,21,21,21,1,0,0,,,0,FALSE,,,,,,,,,,,,,,,,,,,,,,,,,,,,,,
,5ea8176676434f02a39db063,001,2022-04-28_20h14.30.299,classification_task,2021.2.3,Win32,59.93407252,5ea8176676434f02a39db063,626b377229c10585ec392f89,626b3ac19e6814ab52aa8bb4,,,,,,,,,,,,,,,,,,,,,,,a,1,2.7801,"[""0.298"",""0.375"",""0.613"",""0.842""]","[1,1,1,0]",0,22,22,22,1,0,1,,,0,FALSE,,,,,,,,,,,,,,,,,,,,,,,,,,,,,,
,5ea8176676434f02a39db063,001,2022-04-28_20h14.30.299,classification_task,2021.2.3,Win32,59.93407252,5ea8176676434f02a39db063,626b377229c10585ec392f89,626b3ac19e6814ab52aa8bb4,,,,,,,,,,,,,,,,,,,,,,,a,1,1.5013,"[""0.252"",""0.122"",""0.879"",""0.913""]","[1,0,1,1]",0,23,23,23,1,0,0,,,0,FALSE,,,,,,,,,,,,,,,,,,,,,,,,,,,,,,
,5ea8176676434f02a39db063,001,2022-04-28_20h14.30.299,classification_task,2021.2.3,Win32,59.93407252,5ea8176676434f02a39db063,626b377229c10585ec392f89,626b3ac19e6814ab52aa8bb4,,,,,,,,,,,,,,,,,,,,,,,a,1,1.6127,"[""0.252"",""0.465"",""0.879"",""0.833""]","[1,1,1,0]",0,24,24,24,1,0,0,,,0,FALSE,,,,,,,,,,,,,,,,,,,,,,,,,,,,,,
,5ea8176676434f02a39db063,001,2022-04-28_20h14.30.299,classification_task,2021.2.3,Win32,59.93407252,5ea8176676434f02a39db063,626b377229c10585ec392f89,626b3ac19e6814ab52aa8bb4,,,,,,,,,,,,,,,,,,,,,,,l,0,2.2511,"[""0.298"",""0.375"",""0.431"",""0.968""]","[1,1,0,1]",0,25,25,25,1,0,1,,,0,FALSE,,,,,,,,,,,,,,,,,,,,,,,,,,,,,,
,5ea8176676434f02a39db063,001,2022-04-28_20h14.30.299,classification_task,2021.2.3,Win32,59.93407252,5ea8176676434f02a39db063,626b377229c10585ec392f89,626b3ac19e6814ab52aa8bb4,,,,,,,,,,,,,,,,,,,,,,,l,1,1.6586,"[""0.431"",""0.190"",""0.665"",""0.750""]","[0,1,1,1]",0,26,26,26,1,1,0,,,0,FALSE,,,,,,,,,,,,,,,,,,,,,,,,,,,,,,
,5ea8176676434f02a39db063,001,2022-04-28_20h14.30.299,classification_task,2021.2.3,Win32,59.93407252,5ea8176676434f02a39db063,626b377229c10585ec392f89,626b3ac19e6814ab52aa8bb4,,,,,,,,,,,,,,,,,,,,,,,l,1,1.2792,"[""0.051"",""0.190"",""0.703"",""0.750""]","[1,1,0,1]",0,27,27,27,1,1,0,,,0,FALSE,,,,,,,,,,,,,,,,,,,,,,,,,,,,,,
,5ea8176676434f02a39db063,001,2022-04-28_20h14.30.299,classification_task,2021.2.3,Win32,59.93407252,5ea8176676434f02a39db063,626b377229c10585ec392f89,626b3ac19e6814ab52aa8bb4,,,,,,,,,,,,,,,,,,,,,,,l,1,2.2755,"[""0.842"",""0.339"",""0.531"",""0.799""]","[0,1,1,1]",0,28,28,28,1,1,1,,,0,FALSE,,,,,,,,,,,,,,,,,,,,,,,,,,,,,,
,5ea8176676434f02a39db063,001,2022-04-28_20h14.30.299,classification_task,2021.2.3,Win32,59.93407252,5ea8176676434f02a39db063,626b377229c10585ec392f89,626b3ac19e6814ab52aa8bb4,,,,,,,,,,,,,,,,,,,,,,,a,1,1.4567,"[""0.298"",""0.132"",""0.613"",""0.968""]","[1,0,1,1]",0,29,29,29,1,0,1,,,0,FALSE,,,,,,,,,,,,,,,,,,,,,,,,,,,,,,
,5ea8176676434f02a39db063,001,2022-04-28_20h14.30.299,classification_task,2021.2.3,Win32,59.93407252,5ea8176676434f02a39db063,626b377229c10585ec392f89,626b3ac19e6814ab52aa8bb4,,,,,,,,,,,,,,,,,,,,,,,a,0,1.5077,"[""0.087"",""0.122"",""0.531"",""0.799""]","[1,0,1,1]",0,30,30,30,1,1,1,,,0,FALSE,,,,,,,,,,,,,,,,,,,,,,,,,,,,,,
,5ea8176676434f02a39db063,001,2022-04-28_20h14.30.299,classification_task,2021.2.3,Win32,59.93407252,5ea8176676434f02a39db063,626b377229c10585ec392f89,626b3ac19e6814ab52aa8bb4,,,,,,,,,,,,,,,,,,,,,,,l,1,1.4559,"[""0.087"",""0.339"",""0.531"",""0.836""]","[1,1,1,0]",0,31,31,31,1,1,1,,,0,FALSE,,,,,,,,,,,,,,,,,,,,,,,,,,,,,,
,5ea8176676434f02a39db063,001,2022-04-28_20h14.30.299,classification_task,2021.2.3,Win32,59.93407252,5ea8176676434f02a39db063,626b377229c10585ec392f89,626b3ac19e6814ab52aa8bb4,,,,,,,,,,,,,,,,,,,,,,,l,0,1.2061,"[""0.716"",""0.375"",""0.613"",""0.968""]","[0,1,1,1]",0,32,32,32,1,0,1,,,0,FALSE,,,,,,,,,,,,,,,,,,,,,,,,,,,,,,
,5ea8176676434f02a39db063,001,2022-04-28_20h14.30.299,classification_task,2021.2.3,Win32,59.93407252,5ea8176676434f02a39db063,626b377229c10585ec392f89,626b3ac19e6814ab52aa8bb4,,,,,,,,,,,,,,,,,,,,,,,l,1,1.2063,"[""0.087"",""0.339"",""0.703"",""0.799""]","[1,1,0,1]",0,33,33,33,1,1,1,,,0,FALSE,,,,,,,,,,,,,,,,,,,,,,,,,,,,,,
,5ea8176676434f02a39db063,001,2022-04-28_20h14.30.299,classification_task,2021.2.3,Win32,59.93407252,5ea8176676434f02a39db063,626b377229c10585ec392f89,626b3ac19e6814ab52aa8bb4,,,,,,,,,,,,,,,,,,,,,,,a,1,1.3846,"[""0.252"",""0.708"",""0.879"",""0.913""]","[1,0,1,1]",0,34,34,34,1,0,0,,,0,FALSE,,,,,,,,,,,,,,,,,,,,,,,,,,,,,,
,5ea8176676434f02a39db063,001,2022-04-28_20h14.30.299,classification_task,2021.2.3,Win32,59.93407252,5ea8176676434f02a39db063,626b377229c10585ec392f89,626b3ac19e6814ab52aa8bb4,,,,,,,,,,,,,,,,,,,,,,,l,1,1.3067,"[""0.051"",""0.190"",""0.665"",""0.132""]","[1,1,1,0]",0,35,35,35,1,1,0,,,0,FALSE,,,,,,,,,,,,,,,,,,,,,,,,,,,,,,
,5ea8176676434f02a39db063,001,2022-04-28_20h14.30.299,classification_task,2021.2.3,Win32,59.93407252,5ea8176676434f02a39db063,626b377229c10585ec392f89,626b3ac19e6814ab52aa8bb4,,,,,,,,,,,,,,,,,,,,,,,l,1,1.1558,"[""0.051"",""0.573"",""0.665"",""0.750""]","[1,0,1,1]",0,36,36,36,1,1,0,,,0,FALSE,,,,,,,,,,,,,,,,,,,,,,,,,,,,,,
,5ea8176676434f02a39db063,001,2022-04-28_20h14.30.299,classification_task,2021.2.3,Win32,59.93407252,5ea8176676434f02a39db063,626b377229c10585ec392f89,626b3ac19e6814ab52aa8bb4,,,,,,,,,,,,,,,,,,,,,,,a,1,1.6066,"[""0.252"",""0.465"",""0.879"",""0.122""]","[1,1,1,0]",0,37,37,37,1,0,0,,,0,FALSE,,,,,,,,,,,,,,,,,,,,,,,,,,,,,,
,5ea8176676434f02a39db063,001,2022-04-28_20h14.30.299,classification_task,2021.2.3,Win32,59.93407252,5ea8176676434f02a39db063,626b377229c10585ec392f89,626b3ac19e6814ab52aa8bb4,,,,,,,,,,,,,,,,,,,,,,,a,1,2.1757,"[""0.298"",""0.375"",""0.613"",""0.836""]","[1,1,1,0]",0,38,38,38,1,0,1,,,0,FALSE,,,,,,,,,,,,,,,,,,,,,,,,,,,,,,
,5ea8176676434f02a39db063,001,2022-04-28_20h14.30.299,classification_task,2021.2.3,Win32,59.93407252,5ea8176676434f02a39db063,626b377229c10585ec392f89,626b3ac19e6814ab52aa8bb4,,,,,,,,,,,,,,,,,,,,,,,a,0,2.0823,"[""0.087"",""0.833"",""0.531"",""0.799""]","[1,0,1,1]",0,39,39,39,1,1,1,,,0,FALSE,,,,,,,,,,,,,,,,,,,,,,,,,,,,,,
,5ea8176676434f02a39db063,001,2022-04-28_20h14.30.299,classification_task,2021.2.3,Win32,59.93407252,5ea8176676434f02a39db063,626b377229c10585ec392f89,626b3ac19e6814ab52aa8bb4,,,,,,,,,,,,,,,,,,,,,,,a,1,1.7206,"[""0.708"",""0.465"",""0.879"",""0.913""]","[0,1,1,1]",0,40,40,40,1,0,0,,,0,FALSE,,,,,,,,,,,,,,,,,,,,,,,,,,,,,,
,5ea8176676434f02a39db063,001,2022-04-28_20h14.30.299,classification_task,2021.2.3,Win32,59.93407252,5ea8176676434f02a39db063,626b377229c10585ec392f89,626b3ac19e6814ab52aa8bb4,,,,,,,,,,,,,,,,,,,,,,,l,1,1.6029,"[""0.122"",""0.339"",""0.531"",""0.799""]","[0,1,1,1]",0,41,41,41,1,1,1,,,0,FALSE,,,,,,,,,,,,,,,,,,,,,,,,,,,,,,
,5ea8176676434f02a39db063,001,2022-04-28_20h14.30.299,classification_task,2021.2.3,Win32,59.93407252,5ea8176676434f02a39db063,626b377229c10585ec392f89,626b3ac19e6814ab52aa8bb4,,,,,,,,,,,,,,,,,,,,,,,a,0,1.3512,"[""0.051"",""0.190"",""0.836"",""0.750""]","[1,1,0,1]",0,42,42,42,1,1,0,,,0,FALSE,,,,,,,,,,,,,,,,,,,,,,,,,,,,,,
,5ea8176676434f02a39db063,001,2022-04-28_20h14.30.299,classification_task,2021.2.3,Win32,59.93407252,5ea8176676434f02a39db063,626b377229c10585ec392f89,626b3ac19e6814ab52aa8bb4,,,,,,,,,,,,,,,,,,,,,,,a,1,1.4698,"[""0.252"",""0.465"",""0.122"",""0.913""]","[1,1,0,1]",0,43,43,43,1,0,0,,,0,FALSE,,,,,,,,,,,,,,,,,,,,,,,,,,,,,,
,5ea8176676434f02a39db063,001,2022-04-28_20h14.30.299,classification_task,2021.2.3,Win32,59.93407252,5ea8176676434f02a39db063,626b377229c10585ec392f89,626b3ac19e6814ab52aa8bb4,,,,,,,,,,,,,,,,,,,,,,,l,0,2.0543,"[""0.298"",""0.375"",""0.833"",""0.968""]","[1,1,0,1]",0,44,44,44,1,0,1,,,0,FALSE,,,,,,,,,,,,,,,,,,,,,,,,,,,,,,
,5ea8176676434f02a39db063,001,2022-04-28_20h14.30.299,classification_task,2021.2.3,Win32,59.93407252,5ea8176676434f02a39db063,626b377229c10585ec392f89,626b3ac19e6814ab52aa8bb4,,,,,,,,,,,,,,,,,,,,,,,a,1,1.2799,"[""0.298"",""0.415"",""0.613"",""0.968""]","[1,0,1,1]",0,45,45,45,1,0,1,,,0,FALSE,,,,,,,,,,,,,,,,,,,,,,,,,,,,,,
,5ea8176676434f02a39db063,001,2022-04-28_20h14.30.299,classification_task,2021.2.3,Win32,59.93407252,5ea8176676434f02a39db063,626b377229c10585ec392f89,626b3ac19e6814ab52aa8bb4,,,,,,,,,,,,,,,,,,,,,,,l,1,1.7471,"[""0.700"",""0.190"",""0.665"",""0.750""]","[0,1,1,1]",0,46,46,46,1,1,0,,,0,FALSE,,,,,,,,,,,,,,,,,,,,,,,,,,,,,,
,5ea8176676434f02a39db063,001,2022-04-28_20h14.30.299,classification_task,2021.2.3,Win32,59.93407252,5ea8176676434f02a39db063,626b377229c10585ec392f89,626b3ac19e6814ab52aa8bb4,,,,,,,,,,,,,,,,,,,,,,,l,1,2.9169,"[""0.087"",""0.339"",""0.531"",""0.716""]","[1,1,1,0]",0,47,47,47,1,1,1,,,0,FALSE,,,,,,,,,,,,,,,,,,,,,,,,,,,,,,
,5ea8176676434f02a39db063,001,2022-04-28_20h14.30.299,classification_task,2021.2.3,Win32,59.93407252,5ea8176676434f02a39db063,626b377229c10585ec392f89,626b3ac19e6814ab52aa8bb4,,,,,,,,,,,,,,,,,,,,,,,a,1,1.7312,"[""0.298"",""0.122"",""0.613"",""0.968""]","[1,0,1,1]",0,48,48,48,1,0,1,,,0,FALSE,,,,,,,,,,,,,,,,,,,,,,,,,,,,,,
,5ea8176676434f02a39db063,001,2022-04-28_20h14.30.299,classification_task,2021.2.3,Win32,59.93407252,5ea8176676434f02a39db063,626b377229c10585ec392f89,626b3ac19e6814ab52aa8bb4,,,,,,,,,,,,,,,,,,,,,,,l,1,1.2749,"[""0.120"",""0.339"",""0.531"",""0.799""]","[0,1,1,1]",0,49,49,49,1,1,1,,,0,FALSE,,,,,,,,,,,,,,,,,,,,,,,,,,,,,,
,5ea8176676434f02a39db063,001,2022-04-28_20h14.30.299,classification_task,2021.2.3,Win32,59.93407252,5ea8176676434f02a39db063,626b377229c10585ec392f89,626b3ac19e6814ab52aa8bb4,,,,,,,,,,,,,,,,,,,,,,,l,1,1.3867,"[""0.087"",""0.339"",""0.842"",""0.799""]","[1,1,0,1]",0,50,50,50,1,1,1,,,0,FALSE,,,,,,,,,,,,,,,,,,,,,,,,,,,,,,
,5ea8176676434f02a39db063,001,2022-04-28_20h14.30.299,classification_task,2021.2.3,Win32,59.93407252,5ea8176676434f02a39db063,626b377229c10585ec392f89,626b3ac19e6814ab52aa8bb4,,,,,,,,,,,,,,,,,,,,,,,a,0,1.7971,"[""0.087"",""0.836"",""0.531"",""0.799""]","[1,0,1,1]",0,51,51,51,1,1,1,,,0,FALSE,,,,,,,,,,,,,,,,,,,,,,,,,,,,,,
,5ea8176676434f02a39db063,001,2022-04-28_20h14.30.299,classification_task,2021.2.3,Win32,59.93407252,5ea8176676434f02a39db063,626b377229c10585ec392f89,626b3ac19e6814ab52aa8bb4,,,,,,,,,,,,,,,,,,,,,,,a,1,2.8944,"[""0.298"",""0.375"",""0.613"",""0.573""]","[1,1,1,0]",0,52,52,52,1,0,1,,,0,FALSE,,,,,,,,,,,,,,,,,,,,,,,,,,,,,,
,5ea8176676434f02a39db063,001,2022-04-28_20h14.30.299,classification_task,2021.2.3,Win32,59.93407252,5ea8176676434f02a39db063,626b377229c10585ec392f89,626b3ac19e6814ab52aa8bb4,,,,,,,,,,,,,,,,,,,,,,,l,0,3.8203,"[""0.252"",""0.465"",""0.879"",""0.833""]","[1,1,1,0]",0,53,53,53,1,0,0,,,0,FALSE,,,,,,,,,,,,,,,,,,,,,,,,,,,,,,
,5ea8176676434f02a39db063,001,2022-04-28_20h14.30.299,classification_task,2021.2.3,Win32,59.93407252,5ea8176676434f02a39db063,626b377229c10585ec392f89,626b3ac19e6814ab52aa8bb4,,,,,,,,,,,,,,,,,,,,,,,l,1,1.5245,"[""0.087"",""0.339"",""0.531"",""0.716""]","[1,1,1,0]",0,54,54,54,1,1,1,,,0,FALSE,,,,,,,,,,,,,,,,,,,,,,,,,,,,,,
,5ea8176676434f02a39db063,001,2022-04-28_20h14.30.299,classification_task,2021.2.3,Win32,59.93407252,5ea8176676434f02a39db063,626b377229c10585ec392f89,626b3ac19e6814ab52aa8bb4,,,,,,,,,,,,,,,,,,,,,,,a,1,1.5556,"[""0.298"",""0.375"",""0.573"",""0.968""]","[1,1,0,1]",0,55,55,55,1,0,1,,,0,FALSE,,,,,,,,,,,,,,,,,,,,,,,,,,,,,,
,5ea8176676434f02a39db063,001,2022-04-28_20h14.30.299,classification_task,2021.2.3,Win32,59.93407252,5ea8176676434f02a39db063,626b377229c10585ec392f89,626b3ac19e6814ab52aa8bb4,,,,,,,,,,,,,,,,,,,,,,,a,0,3.0402,"[""0.051"",""0.190"",""0.665"",""0.132""]","[1,1,1,0]",0,56,56,56,1,1,0,,,0,FALSE,,,,,,,,,,,,,,,,,,,,,,,,,,,,,,
,5ea8176676434f02a39db063,001,2022-04-28_20h14.30.299,classification_task,2021.2.3,Win32,59.93407252,5ea8176676434f02a39db063,626b377229c10585ec392f89,626b3ac19e6814ab52aa8bb4,,,,,,,,,,,,,,,,,,,,,,,a,0,1.9571,"[""0.842"",""0.190"",""0.665"",""0.750""]","[0,1,1,1]",0,57,57,57,1,1,0,,,0,FALSE,,,,,,,,,,,,,,,,,,,,,,,,,,,,,,
,5ea8176676434f02a39db063,001,2022-04-28_20h14.30.299,classification_task,2021.2.3,Win32,59.93407252,5ea8176676434f02a39db063,626b377229c10585ec392f89,626b3ac19e6814ab52aa8bb4,,,,,,,,,,,,,,,,,,,,,,,l,0,1.1539,"[""0.252"",""0.465"",""0.122"",""0.913""]","[1,1,0,1]",0,58,58,58,1,0,0,,,0,FALSE,,,,,,,,,,,,,,,,,,,,,,,,,,,,,,
,5ea8176676434f02a39db063,001,2022-04-28_20h14.30.299,classification_task,2021.2.3,Win32,59.93407252,5ea8176676434f02a39db063,626b377229c10585ec392f89,626b3ac19e6814ab52aa8bb4,,,,,,,,,,,,,,,,,,,,,,,a,0,1.7094,"[""0.051"",""0.573"",""0.665"",""0.750""]","[1,0,1,1]",0,59,59,59,1,1,0,,,0,FALSE,,,,,,,,,,,,,,,,,,,,,,,,,,,,,,
,5ea8176676434f02a39db063,001,2022-04-28_20h14.30.299,classification_task,2021.2.3,Win32,59.93407252,5ea8176676434f02a39db063,626b377229c10585ec392f89,626b3ac19e6814ab52aa8bb4,,,,,,,,,,,,,,,,,,,,,,,l,0,1.5797,"[""0.122"",""0.465"",""0.879"",""0.913""]","[0,1,1,1]",0,60,60,60,1,0,0,,,0,FALSE,,,,,,,,,,,,,,,,,,,,,,,,,,,,,,
,5ea8176676434f02a39db063,001,2022-04-28_20h14.30.299,classification_task,2021.2.3,Win32,59.93407252,5ea8176676434f02a39db063,626b377229c10585ec392f89,626b3ac19e6814ab52aa8bb4,,,,,,,,,,,,,,,,,,,,,,,l,1,1.4278,"[""0.051"",""0.190"",""0.153"",""0.750""]","[1,1,0,1]",0,61,61,61,1,1,0,,,0,FALSE,,,,,,,,,,,,,,,,,,,,,,,,,,,,,,
,5ea8176676434f02a39db063,001,2022-04-28_20h14.30.299,classification_task,2021.2.3,Win32,59.93407252,5ea8176676434f02a39db063,626b377229c10585ec392f89,626b3ac19e6814ab52aa8bb4,,,,,,,,,,,,,,,,,,,,,,,a,1,1.3263,"[""0.252"",""0.431"",""0.879"",""0.913""]","[1,0,1,1]",0,62,62,62,1,0,0,,,0,FALSE,,,,,,,,,,,,,,,,,,,,,,,,,,,,,,
,5ea8176676434f02a39db063,001,2022-04-28_20h14.30.299,classification_task,2021.2.3,Win32,59.93407252,5ea8176676434f02a39db063,626b377229c10585ec392f89,626b3ac19e6814ab52aa8bb4,,,,,,,,,,,,,,,,,,,,,,,a,1,1.8348,"[""0.832"",""0.375"",""0.613"",""0.968""]","[0,1,1,1]",0,63,63,63,1,0,1,,,0,FALSE,,,,,,,,,,,,,,,,,,,,,,,,,,,,,,
,5ea8176676434f02a39db063,001,2022-04-28_20h14.30.299,classification_task,2021.2.3,Win32,59.93407252,5ea8176676434f02a39db063,626b377229c10585ec392f89,626b3ac19e6814ab52aa8bb4,,,,,,,,,,,,,,,,,,,,,,,,,,,,,,,,,,,,,,,0, ,,0,6.929220375,230.3984,0,1,1,1,1,2,2,,,,,,,,,,,,,,,,,
,5ea8176676434f02a39db063,001,2022-04-28_20h14.30.299,classification_task,2021.2.3,Win32,59.93407252,5ea8176676434f02a39db063,626b377229c10585ec392f89,626b3ac19e6814ab52aa8bb4,,,,,,,,,,,,,,,,,,,,,,,,,,,,,,,,,,,,,,,1,  ,,0,10,241.0519,0,1,1,1,1,2,2,,,,,,,,,,,,,,,,,
,5ea8176676434f02a39db063,001,2022-04-28_20h14.30.299,classification_task,2021.2.3,Win32,59.93407252,5ea8176676434f02a39db063,626b377229c10585ec392f89,626b3ac19e6814ab52aa8bb4,,,,,,,,,,,,,,,,,,,,,,,,,,,,,,,,,,,,,,,2,  ,,0,3.476607787,245.8112,0,1,1,1,1,2,2,,,,,,,,,,,,,,,,,
,5ea8176676434f02a39db063,001,2022-04-28_20h14.30.299,classification_task,2021.2.3,Win32,59.93407252,5ea8176676434f02a39db063,626b377229c10585ec392f89,626b3ac19e6814ab52aa8bb4,,,,,,,,,,,,,,,,,,,,,,,,,,,,,,,,,,,,,,,,,,,,,0,1,1,1,1,,2,,,,,,,,,,,,,,,,,
,5ea8176676434f02a39db063,001,2022-04-28_20h14.30.299,classification_task,2021.2.3,Win32,59.93407252,5ea8176676434f02a39db063,626b377229c10585ec392f89,626b3ac19e6814ab52aa8bb4,,,,,,,,,,,,,,,,,,,,,space,20.4188,l,1,3.4435,"[""0.051"",""0.122"",""0.665"",""0.750""]","[1,0,1,1]",0,0,0,0,1,1,0,,,0,FALSE,,,,,,,,,,,,,,,,,,,,,,,,,,,,,,
,5ea8176676434f02a39db063,001,2022-04-28_20h14.30.299,classification_task,2021.2.3,Win32,59.93407252,5ea8176676434f02a39db063,626b377229c10585ec392f89,626b3ac19e6814ab52aa8bb4,,,,,,,,,,,,,,,,,,,,,,,a,1,2.2028,"[""0.298"",""0.375"",""0.613"",""0.700""]","[1,1,1,0]",0,1,1,1,1,0,1,,,0,FALSE,,,,,,,,,,,,,,,,,,,,,,,,,,,,,,
,5ea8176676434f02a39db063,001,2022-04-28_20h14.30.299,classification_task,2021.2.3,Win32,59.93407252,5ea8176676434f02a39db063,626b377229c10585ec392f89,626b3ac19e6814ab52aa8bb4,,,,,,,,,,,,,,,,,,,,,,,a,1,1.2343,"[""0.298"",""0.375"",""0.132"",""0.968""]","[1,1,0,1]",0,2,2,2,1,0,1,,,0,FALSE,,,,,,,,,,,,,,,,,,,,,,,,,,,,,,
,5ea8176676434f02a39db063,001,2022-04-28_20h14.30.299,classification_task,2021.2.3,Win32,59.93407252,5ea8176676434f02a39db063,626b377229c10585ec392f89,626b3ac19e6814ab52aa8bb4,,,,,,,,,,,,,,,,,,,,,,,a,0,3.032,"[""0.087"",""0.716"",""0.531"",""0.799""]","[1,0,1,1]",0,3,3,3,1,1,1,,,0,FALSE,,,,,,,,,,,,,,,,,,,,,,,,,,,,,,
,5ea8176676434f02a39db063,001,2022-04-28_20h14.30.299,classification_task,2021.2.3,Win32,59.93407252,5ea8176676434f02a39db063,626b377229c10585ec392f89,626b3ac19e6814ab52aa8bb4,,,,,,,,,,,,,,,,,,,,,,,l,0,3.8417,"[""0.252"",""0.120"",""0.879"",""0.913""]","[1,0,1,1]",0,4,4,4,1,0,0,,,0,FALSE,,,,,,,,,,,,,,,,,,,,,,,,,,,,,,
,5ea8176676434f02a39db063,001,2022-04-28_20h14.30.299,classification_task,2021.2.3,Win32,59.93407252,5ea8176676434f02a39db063,626b377229c10585ec392f89,626b3ac19e6814ab52aa8bb4,,,,,,,,,,,,,,,,,,,,,,,a,0,2.0743,"[""0.122"",""0.190"",""0.665"",""0.750""]","[0,1,1,1]",0,5,5,5,1,1,0,,,0,FALSE,,,,,,,,,,,,,,,,,,,,,,,,,,,,,,
,5ea8176676434f02a39db063,001,2022-04-28_20h14.30.299,classification_task,2021.2.3,Win32,59.93407252,5ea8176676434f02a39db063,626b377229c10585ec392f89,626b3ac19e6814ab52aa8bb4,,,,,,,,,,,,,,,,,,,,,,,a,1,3.8006,"[""0.252"",""0.465"",""0.879"",""0.842""]","[1,1,1,0]",0,6,6,6,1,0,0,,,0,FALSE,,,,,,,,,,,,,,,,,,,,,,,,,,,,,,
,5ea8176676434f02a39db063,001,2022-04-28_20h14.30.299,classification_task,2021.2.3,Win32,59.93407252,5ea8176676434f02a39db063,626b377229c10585ec392f89,626b3ac19e6814ab52aa8bb4,,,,,,,,,,,,,,,,,,,,,,,l,1,1.4407,"[""0.087"",""0.339"",""0.531"",""0.573""]","[1,1,1,0]",0,7,7,7,1,1,1,,,0,FALSE,,,,,,,,,,,,,,,,,,,,,,,,,,,,,,
,5ea8176676434f02a39db063,001,2022-04-28_20h14.30.299,classification_task,2021.2.3,Win32,59.93407252,5ea8176676434f02a39db063,626b377229c10585ec392f89,626b3ac19e6814ab52aa8bb4,,,,,,,,,,,,,,,,,,,,,,,a,0,1.6012,"[""0.051"",""0.190"",""0.120"",""0.750""]","[1,1,0,1]",0,8,8,8,1,1,0,,,0,FALSE,,,,,,,,,,,,,,,,,,,,,,,,,,,,,,
,5ea8176676434f02a39db063,001,2022-04-28_20h14.30.299,classification_task,2021.2.3,Win32,59.93407252,5ea8176676434f02a39db063,626b377229c10585ec392f89,626b3ac19e6814ab52aa8bb4,,,,,,,,,,,,,,,,,,,,,,,a,1,1.3538,"[""0.298"",""0.132"",""0.613"",""0.968""]","[1,0,1,1]",0,9,9,9,1,0,1,,,0,FALSE,,,,,,,,,,,,,,,,,,,,,,,,,,,,,,
,5ea8176676434f02a39db063,001,2022-04-28_20h14.30.299,classification_task,2021.2.3,Win32,59.93407252,5ea8176676434f02a39db063,626b377229c10585ec392f89,626b3ac19e6814ab52aa8bb4,,,,,,,,,,,,,,,,,,,,,,,l,0,2.1973,"[""0.252"",""0.465"",""0.832"",""0.913""]","[1,1,0,1]",0,10,10,10,1,0,0,,,0,FALSE,,,,,,,,,,,,,,,,,,,,,,,,,,,,,,
,5ea8176676434f02a39db063,001,2022-04-28_20h14.30.299,classification_task,2021.2.3,Win32,59.93407252,5ea8176676434f02a39db063,626b377229c10585ec392f89,626b3ac19e6814ab52aa8bb4,,,,,,,,,,,,,,,,,,,,,,,l,0,1.9031,"[""0.703"",""0.465"",""0.879"",""0.913""]","[0,1,1,1]",0,11,11,11,1,0,0,,,0,FALSE,,,,,,,,,,,,,,,,,,,,,,,,,,,,,,
,5ea8176676434f02a39db063,001,2022-04-28_20h14.30.299,classification_task,2021.2.3,Win32,59.93407252,5ea8176676434f02a39db063,626b377229c10585ec392f89,626b3ac19e6814ab52aa8bb4,,,,,,,,,,,,,,,,,,,,,,,l,1,0.9884,"[""0.842"",""0.339"",""0.531"",""0.799""]","[0,1,1,1]",0,12,12,12,1,1,1,,,0,FALSE,,,,,,,,,,,,,,,,,,,,,,,,,,,,,,
,5ea8176676434f02a39db063,001,2022-04-28_20h14.30.299,classification_task,2021.2.3,Win32,59.93407252,5ea8176676434f02a39db063,626b377229c10585ec392f89,626b3ac19e6814ab52aa8bb4,,,,,,,,,,,,,,,,,,,,,,,a,1,0.9974,"[""0.123"",""0.375"",""0.613"",""0.968""]","[0,1,1,1]",0,13,13,13,1,0,1,,,0,FALSE,,,,,,,,,,,,,,,,,,,,,,,,,,,,,,
,5ea8176676434f02a39db063,001,2022-04-28_20h14.30.299,classification_task,2021.2.3,Win32,59.93407252,5ea8176676434f02a39db063,626b377229c10585ec392f89,626b3ac19e6814ab52aa8bb4,,,,,,,,,,,,,,,,,,,,,,,l,1,0.9087,"[""0.087"",""0.339"",""0.832"",""0.799""]","[1,1,0,1]",0,14,14,14,1,1,1,,,0,FALSE,,,,,,,,,,,,,,,,,,,,,,,,,,,,,,
,5ea8176676434f02a39db063,001,2022-04-28_20h14.30.299,classification_task,2021.2.3,Win32,59.93407252,5ea8176676434f02a39db063,626b377229c10585ec392f89,626b3ac19e6814ab52aa8bb4,,,,,,,,,,,,,,,,,,,,,,,a,0,1.4079,"[""0.051"",""0.190"",""0.665"",""0.573""]","[1,1,1,0]",0,15,15,15,1,1,0,,,0,FALSE,,,,,,,,,,,,,,,,,,,,,,,,,,,,,,
,5ea8176676434f02a39db063,001,2022-04-28_20h14.30.299,classification_task,2021.2.3,Win32,59.93407252,5ea8176676434f02a39db063,626b377229c10585ec392f89,626b3ac19e6814ab52aa8bb4,,,,,,,,,,,,,,,,,,,,,,,l,0,3.2309,"[""0.415"",""0.375"",""0.613"",""0.968""]","[0,1,1,1]",0,16,16,16,1,0,1,,,0,FALSE,,,,,,,,,,,,,,,,,,,,,,,,,,,,,,
,5ea8176676434f02a39db063,001,2022-04-28_20h14.30.299,classification_task,2021.2.3,Win32,59.93407252,5ea8176676434f02a39db063,626b377229c10585ec392f89,626b3ac19e6814ab52aa8bb4,,,,,,,,,,,,,,,,,,,,,,,a,0,2.1939,"[""0.051"",""0.708"",""0.665"",""0.750""]","[1,0,1,1]",0,17,17,17,1,1,0,,,0,FALSE,,,,,,,,,,,,,,,,,,,,,,,,,,,,,,
,5ea8176676434f02a39db063,001,2022-04-28_20h14.30.299,classification_task,2021.2.3,Win32,59.93407252,5ea8176676434f02a39db063,626b377229c10585ec392f89,626b3ac19e6814ab52aa8bb4,,,,,,,,,,,,,,,,,,,,,,,a,1,1.5503,"[""0.298"",""0.132"",""0.613"",""0.968""]","[1,0,1,1]",0,18,18,18,1,0,1,,,0,FALSE,,,,,,,,,,,,,,,,,,,,,,,,,,,,,,
,5ea8176676434f02a39db063,001,2022-04-28_20h14.30.299,classification_task,2021.2.3,Win32,59.93407252,5ea8176676434f02a39db063,626b377229c10585ec392f89,626b3ac19e6814ab52aa8bb4,,,,,,,,,,,,,,,,,,,,,,,a,1,1.8337,"[""0.298"",""0.375"",""0.613"",""0.832""]","[1,1,1,0]",0,19,19,19,1,0,1,,,0,FALSE,,,,,,,,,,,,,,,,,,,,,,,,,,,,,,
,5ea8176676434f02a39db063,001,2022-04-28_20h14.30.299,classification_task,2021.2.3,Win32,59.93407252,5ea8176676434f02a39db063,626b377229c10585ec392f89,626b3ac19e6814ab52aa8bb4,,,,,,,,,,,,,,,,,,,,,,,a,0,1.5017,"[""0.716"",""0.190"",""0.665"",""0.750""]","[0,1,1,1]",0,20,20,20,1,1,0,,,0,FALSE,,,,,,,,,,,,,,,,,,,,,,,,,,,,,,
,5ea8176676434f02a39db063,001,2022-04-28_20h14.30.299,classification_task,2021.2.3,Win32,59.93407252,5ea8176676434f02a39db063,626b377229c10585ec392f89,626b3ac19e6814ab52aa8bb4,,,,,,,,,,,,,,,,,,,,,,,l,1,1.0252,"[""0.122"",""0.339"",""0.531"",""0.799""]","[0,1,1,1]",0,21,21,21,1,1,1,,,0,FALSE,,,,,,,,,,,,,,,,,,,,,,,,,,,,,,
,5ea8176676434f02a39db063,001,2022-04-28_20h14.30.299,classification_task,2021.2.3,Win32,59.93407252,5ea8176676434f02a39db063,626b377229c10585ec392f89,626b3ac19e6814ab52aa8bb4,,,,,,,,,,,,,,,,,,,,,,,a,1,1.2841,"[""0.298"",""0.375"",""0.573"",""0.968""]","[1,1,0,1]",0,22,22,22,1,0,1,,,0,FALSE,,,,,,,,,,,,,,,,,,,,,,,,,,,,,,
,5ea8176676434f02a39db063,001,2022-04-28_20h14.30.299,classification_task,2021.2.3,Win32,59.93407252,5ea8176676434f02a39db063,626b377229c10585ec392f89,626b3ac19e6814ab52aa8bb4,,,,,,,,,,,,,,,,,,,,,,,l,0,1.2426,"[""0.573"",""0.465"",""0.879"",""0.913""]","[0,1,1,1]",0,23,23,23,1,0,0,,,0,FALSE,,,,,,,,,,,,,,,,,,,,,,,,,,,,,,
,5ea8176676434f02a39db063,001,2022-04-28_20h14.30.299,classification_task,2021.2.3,Win32,59.93407252,5ea8176676434f02a39db063,626b377229c10585ec392f89,626b3ac19e6814ab52aa8bb4,,,,,,,,,,,,,,,,,,,,,,,a,1,0.8657,"[""0.252"",""0.842"",""0.879"",""0.913""]","[1,0,1,1]",0,24,24,24,1,0,0,,,0,FALSE,,,,,,,,,,,,,,,,,,,,,,,,,,,,,,
,5ea8176676434f02a39db063,001,2022-04-28_20h14.30.299,classification_task,2021.2.3,Win32,59.93407252,5ea8176676434f02a39db063,626b377229c10585ec392f89,626b3ac19e6814ab52aa8bb4,,,,,,,,,,,,,,,,,,,,,,,l,1,1.8838,"[""0.051"",""0.190"",""0.122"",""0.750""]","[1,1,0,1]",0,25,25,25,1,1,0,,,0,FALSE,,,,,,,,,,,,,,,,,,,,,,,,,,,,,,
,5ea8176676434f02a39db063,001,2022-04-28_20h14.30.299,classification_task,2021.2.3,Win32,59.93407252,5ea8176676434f02a39db063,626b377229c10585ec392f89,626b3ac19e6814ab52aa8bb4,,,,,,,,,,,,,,,,,,,,,,,a,0,1.2715,"[""0.051"",""0.190"",""0.665"",""0.573""]","[1,1,1,0]",0,26,26,26,1,1,0,,,0,FALSE,,,,,,,,,,,,,,,,,,,,,,,,,,,,,,
,5ea8176676434f02a39db063,001,2022-04-28_20h14.30.299,classification_task,2021.2.3,Win32,59.93407252,5ea8176676434f02a39db063,626b377229c10585ec392f89,626b3ac19e6814ab52aa8bb4,,,,,,,,,,,,,,,,,,,,,,,l,1,1.2348,"[""0.087"",""0.339"",""0.123"",""0.799""]","[1,1,0,1]",0,27,27,27,1,1,1,,,0,FALSE,,,,,,,,,,,,,,,,,,,,,,,,,,,,,,
,5ea8176676434f02a39db063,001,2022-04-28_20h14.30.299,classification_task,2021.2.3,Win32,59.93407252,5ea8176676434f02a39db063,626b377229c10585ec392f89,626b3ac19e6814ab52aa8bb4,,,,,,,,,,,,,,,,,,,,,,,a,1,1.7384,"[""0.252"",""0.465"",""0.832"",""0.913""]","[1,1,0,1]",0,28,28,28,1,0,0,,,0,FALSE,,,,,,,,,,,,,,,,,,,,,,,,,,,,,,
,5ea8176676434f02a39db063,001,2022-04-28_20h14.30.299,classification_task,2021.2.3,Win32,59.93407252,5ea8176676434f02a39db063,626b377229c10585ec392f89,626b3ac19e6814ab52aa8bb4,,,,,,,,,,,,,,,,,,,,,,,l,1,1.034,"[""0.087"",""0.339"",""0.531"",""0.153""]","[1,1,1,0]",0,29,29,29,1,1,1,,,0,FALSE,,,,,,,,,,,,,,,,,,,,,,,,,,,,,,
,5ea8176676434f02a39db063,001,2022-04-28_20h14.30.299,classification_task,2021.2.3,Win32,59.93407252,5ea8176676434f02a39db063,626b377229c10585ec392f89,626b3ac19e6814ab52aa8bb4,,,,,,,,,,,,,,,,,,,,,,,a,1,2.4715,"[""0.252"",""0.465"",""0.879"",""0.708""]","[1,1,1,0]",0,30,30,30,1,0,0,,,0,FALSE,,,,,,,,,,,,,,,,,,,,,,,,,,,,,,
,5ea8176676434f02a39db063,001,2022-04-28_20h14.30.299,classification_task,2021.2.3,Win32,59.93407252,5ea8176676434f02a39db063,626b377229c10585ec392f89,626b3ac19e6814ab52aa8bb4,,,,,,,,,,,,,,,,,,,,,,,a,0,1.4565,"[""0.087"",""0.842"",""0.531"",""0.799""]","[1,0,1,1]",0,31,31,31,1,1,1,,,0,FALSE,,,,,,,,,,,,,,,,,,,,,,,,,,,,,,
,5ea8176676434f02a39db063,001,2022-04-28_20h14.30.299,classification_task,2021.2.3,Win32,59.93407252,5ea8176676434f02a39db063,626b377229c10585ec392f89,626b3ac19e6814ab52aa8bb4,,,,,,,,,,,,,,,,,,,,,,,l,1,1.8863,"[""0.087"",""0.833"",""0.531"",""0.799""]","[1,0,1,1]",0,32,32,32,1,1,1,,,0,FALSE,,,,,,,,,,,,,,,,,,,,,,,,,,,,,,
,5ea8176676434f02a39db063,001,2022-04-28_20h14.30.299,classification_task,2021.2.3,Win32,59.93407252,5ea8176676434f02a39db063,626b377229c10585ec392f89,626b3ac19e6814ab52aa8bb4,,,,,,,,,,,,,,,,,,,,,,,l,1,1.5179,"[""0.087"",""0.339"",""0.531"",""0.573""]","[1,1,1,0]",0,33,33,33,1,1,1,,,0,FALSE,,,,,,,,,,,,,,,,,,,,,,,,,,,,,,
,5ea8176676434f02a39db063,001,2022-04-28_20h14.30.299,classification_task,2021.2.3,Win32,59.93407252,5ea8176676434f02a39db063,626b377229c10585ec392f89,626b3ac19e6814ab52aa8bb4,,,,,,,,,,,,,,,,,,,,,,,a,0,1.2619,"[""0.051"",""0.190"",""0.836"",""0.750""]","[1,1,0,1]",0,34,34,34,1,1,0,,,0,FALSE,,,,,,,,,,,,,,,,,,,,,,,,,,,,,,
,5ea8176676434f02a39db063,001,2022-04-28_20h14.30.299,classification_task,2021.2.3,Win32,59.93407252,5ea8176676434f02a39db063,626b377229c10585ec392f89,626b3ac19e6814ab52aa8bb4,,,,,,,,,,,,,,,,,,,,,,,a,1,1.3158,"[""0.298"",""0.832"",""0.613"",""0.968""]","[1,0,1,1]",0,35,35,35,1,0,1,,,0,FALSE,,,,,,,,,,,,,,,,,,,,,,,,,,,,,,
,5ea8176676434f02a39db063,001,2022-04-28_20h14.30.299,classification_task,2021.2.3,Win32,59.93407252,5ea8176676434f02a39db063,626b377229c10585ec392f89,626b3ac19e6814ab52aa8bb4,,,,,,,,,,,,,,,,,,,,,,,a,1,1.801,"[""0.298"",""0.375"",""0.613"",""0.153""]","[1,1,1,0]",0,36,36,36,1,0,1,,,0,FALSE,,,,,,,,,,,,,,,,,,,,,,,,,,,,,,
,5ea8176676434f02a39db063,001,2022-04-28_20h14.30.299,classification_task,2021.2.3,Win32,59.93407252,5ea8176676434f02a39db063,626b377229c10585ec392f89,626b3ac19e6814ab52aa8bb4,,,,,,,,,,,,,,,,,,,,,,,l,1,2.1699,"[""0.051"",""0.833"",""0.665"",""0.750""]","[1,0,1,1]",0,37,37,37,1,1,0,,,0,FALSE,,,,,,,,,,,,,,,,,,,,,,,,,,,,,,
,5ea8176676434f02a39db063,001,2022-04-28_20h14.30.299,classification_task,2021.2.3,Win32,59.93407252,5ea8176676434f02a39db063,626b377229c10585ec392f89,626b3ac19e6814ab52aa8bb4,,,,,,,,,,,,,,,,,,,,,,,a,0,1.6574,"[""0.716"",""0.190"",""0.665"",""0.750""]","[0,1,1,1]",0,38,38,38,1,1,0,,,0,FALSE,,,,,,,,,,,,,,,,,,,,,,,,,,,,,,
,5ea8176676434f02a39db063,001,2022-04-28_20h14.30.299,classification_task,2021.2.3,Win32,59.93407252,5ea8176676434f02a39db063,626b377229c10585ec392f89,626b3ac19e6814ab52aa8bb4,,,,,,,,,,,,,,,,,,,,,,,l,0,1.4682,"[""0.252"",""0.465"",""0.879"",""0.716""]","[1,1,1,0]",0,39,39,39,1,0,0,,,0,FALSE,,,,,,,,,,,,,,,,,,,,,,,,,,,,,,
,5ea8176676434f02a39db063,001,2022-04-28_20h14.30.299,classification_task,2021.2.3,Win32,59.93407252,5ea8176676434f02a39db063,626b377229c10585ec392f89,626b3ac19e6814ab52aa8bb4,,,,,,,,,,,,,,,,,,,,,,,a,1,0.9635,"[""0.252"",""0.836"",""0.879"",""0.913""]","[1,0,1,1]",0,40,40,40,1,0,0,,,0,FALSE,,,,,,,,,,,,,,,,,,,,,,,,,,,,,,
,5ea8176676434f02a39db063,001,2022-04-28_20h14.30.299,classification_task,2021.2.3,Win32,59.93407252,5ea8176676434f02a39db063,626b377229c10585ec392f89,626b3ac19e6814ab52aa8bb4,,,,,,,,,,,,,,,,,,,,,,,a,0,0.8996,"[""0.051"",""0.190"",""0.665"",""0.700""]","[1,1,1,0]",0,41,41,41,1,1,0,,,0,FALSE,,,,,,,,,,,,,,,,,,,,,,,,,,,,,,
,5ea8176676434f02a39db063,001,2022-04-28_20h14.30.299,classification_task,2021.2.3,Win32,59.93407252,5ea8176676434f02a39db063,626b377229c10585ec392f89,626b3ac19e6814ab52aa8bb4,,,,,,,,,,,,,,,,,,,,,,,l,1,1.2494,"[""0.153"",""0.339"",""0.531"",""0.799""]","[0,1,1,1]",0,42,42,42,1,1,1,,,0,FALSE,,,,,,,,,,,,,,,,,,,,,,,,,,,,,,
,5ea8176676434f02a39db063,001,2022-04-28_20h14.30.299,classification_task,2021.2.3,Win32,59.93407252,5ea8176676434f02a39db063,626b377229c10585ec392f89,626b3ac19e6814ab52aa8bb4,,,,,,,,,,,,,,,,,,,,,,,a,1,1.2943,"[""0.431"",""0.375"",""0.613"",""0.968""]","[0,1,1,1]",0,43,43,43,1,0,1,,,0,FALSE,,,,,,,,,,,,,,,,,,,,,,,,,,,,,,
,5ea8176676434f02a39db063,001,2022-04-28_20h14.30.299,classification_task,2021.2.3,Win32,59.93407252,5ea8176676434f02a39db063,626b377229c10585ec392f89,626b3ac19e6814ab52aa8bb4,,,,,,,,,,,,,,,,,,,,,,,l,1,0.9758,"[""0.087"",""0.339"",""0.842"",""0.799""]","[1,1,0,1]",0,44,44,44,1,1,1,,,0,FALSE,,,,,,,,,,,,,,,,,,,,,,,,,,,,,,
,5ea8176676434f02a39db063,001,2022-04-28_20h14.30.299,classification_task,2021.2.3,Win32,59.93407252,5ea8176676434f02a39db063,626b377229c10585ec392f89,626b3ac19e6814ab52aa8bb4,,,,,,,,,,,,,,,,,,,,,,,l,0,1.8239,"[""0.252"",""0.465"",""0.708"",""0.913""]","[1,1,0,1]",0,45,45,45,1,0,0,,,0,FALSE,,,,,,,,,,,,,,,,,,,,,,,,,,,,,,
,5ea8176676434f02a39db063,001,2022-04-28_20h14.30.299,classification_task,2021.2.3,Win32,59.93407252,5ea8176676434f02a39db063,626b377229c10585ec392f89,626b3ac19e6814ab52aa8bb4,,,,,,,,,,,,,,,,,,,,,,,a,1,1.2901,"[""0.298"",""0.375"",""0.123"",""0.968""]","[1,1,0,1]",0,46,46,46,1,0,1,,,0,FALSE,,,,,,,,,,,,,,,,,,,,,,,,,,,,,,
,5ea8176676434f02a39db063,001,2022-04-28_20h14.30.299,classification_task,2021.2.3,Win32,59.93407252,5ea8176676434f02a39db063,626b377229c10585ec392f89,626b3ac19e6814ab52aa8bb4,,,,,,,,,,,,,,,,,,,,,,,l,0,1.3719,"[""0.832"",""0.465"",""0.879"",""0.913""]","[0,1,1,1]",0,47,47,47,1,0,0,,,0,FALSE,,,,,,,,,,,,,,,,,,,,,,,,,,,,,,
,5ea8176676434f02a39db063,001,2022-04-28_20h14.30.299,classification_task,2021.2.3,Win32,59.93407252,5ea8176676434f02a39db063,626b377229c10585ec392f89,626b3ac19e6814ab52aa8bb4,,,,,,,,,,,,,,,,,,,,,,,a,0,1.3402,"[""0.051"",""0.122"",""0.665"",""0.750""]","[1,0,1,1]",0,48,48,48,1,1,0,,,0,FALSE,,,,,,,,,,,,,,,,,,,,,,,,,,,,,,
,5ea8176676434f02a39db063,001,2022-04-28_20h14.30.299,classification_task,2021.2.3,Win32,59.93407252,5ea8176676434f02a39db063,626b377229c10585ec392f89,626b3ac19e6814ab52aa8bb4,,,,,,,,,,,,,,,,,,,,,,,l,0,1.3307,"[""0.252"",""0.123"",""0.879"",""0.913""]","[1,0,1,1]",0,49,49,49,1,0,0,,,0,FALSE,,,,,,,,,,,,,,,,,,,,,,,,,,,,,,
,5ea8176676434f02a39db063,001,2022-04-28_20h14.30.299,classification_task,2021.2.3,Win32,59.93407252,5ea8176676434f02a39db063,626b377229c10585ec392f89,626b3ac19e6814ab52aa8bb4,,,,,,,,,,,,,,,,,,,,,,,l,1,1.1331,"[""0.087"",""0.339"",""0.431"",""0.799""]","[1,1,0,1]",0,50,50,50,1,1,1,,,0,FALSE,,,,,,,,,,,,,,,,,,,,,,,,,,,,,,
,5ea8176676434f02a39db063,001,2022-04-28_20h14.30.299,classification_task,2021.2.3,Win32,59.93407252,5ea8176676434f02a39db063,626b377229c10585ec392f89,626b3ac19e6814ab52aa8bb4,,,,,,,,,,,,,,,,,,,,,,,a,0,1.0357,"[""0.716"",""0.190"",""0.665"",""0.750""]","[0,1,1,1]",0,51,51,51,1,1,0,,,0,FALSE,,,,,,,,,,,,,,,,,,,,,,,,,,,,,,
,5ea8176676434f02a39db063,001,2022-04-28_20h14.30.299,classification_task,2021.2.3,Win32,59.93407252,5ea8176676434f02a39db063,626b377229c10585ec392f89,626b3ac19e6814ab52aa8bb4,,,,,,,,,,,,,,,,,,,,,,,l,1,1.0201,"[""0.051"",""0.190"",""0.665"",""0.415""]","[1,1,1,0]",0,52,52,52,1,1,0,,,0,FALSE,,,,,,,,,,,,,,,,,,,,,,,,,,,,,,
,5ea8176676434f02a39db063,001,2022-04-28_20h14.30.299,classification_task,2021.2.3,Win32,59.93407252,5ea8176676434f02a39db063,626b377229c10585ec392f89,626b3ac19e6814ab52aa8bb4,,,,,,,,,,,,,,,,,,,,,,,a,1,1.3466,"[""0.298"",""0.375"",""0.613"",""0.703""]","[1,1,1,0]",0,53,53,53,1,0,1,,,0,FALSE,,,,,,,,,,,,,,,,,,,,,,,,,,,,,,
,5ea8176676434f02a39db063,001,2022-04-28_20h14.30.299,classification_task,2021.2.3,Win32,59.93407252,5ea8176676434f02a39db063,626b377229c10585ec392f89,626b3ac19e6814ab52aa8bb4,,,,,,,,,,,,,,,,,,,,,,,l,1,1.7404,"[""0.087"",""0.700"",""0.531"",""0.799""]","[1,0,1,1]",0,54,54,54,1,1,1,,,0,FALSE,,,,,,,,,,,,,,,,,,,,,,,,,,,,,,
,5ea8176676434f02a39db063,001,2022-04-28_20h14.30.299,classification_task,2021.2.3,Win32,59.93407252,5ea8176676434f02a39db063,626b377229c10585ec392f89,626b3ac19e6814ab52aa8bb4,,,,,,,,,,,,,,,,,,,,,,,a,0,1.3693,"[""0.051"",""0.190"",""0.123"",""0.750""]","[1,1,0,1]",0,55,55,55,1,1,0,,,0,FALSE,,,,,,,,,,,,,,,,,,,,,,,,,,,,,,
,5ea8176676434f02a39db063,001,2022-04-28_20h14.30.299,classification_task,2021.2.3,Win32,59.93407252,5ea8176676434f02a39db063,626b377229c10585ec392f89,626b3ac19e6814ab52aa8bb4,,,,,,,,,,,,,,,,,,,,,,,a,1,1.5005,"[""0.123"",""0.375"",""0.613"",""0.968""]","[0,1,1,1]",0,56,56,56,1,0,1,,,0,FALSE,,,,,,,,,,,,,,,,,,,,,,,,,,,,,,
,5ea8176676434f02a39db063,001,2022-04-28_20h14.30.299,classification_task,2021.2.3,Win32,59.93407252,5ea8176676434f02a39db063,626b377229c10585ec392f89,626b3ac19e6814ab52aa8bb4,,,,,,,,,,,,,,,,,,,,,,,l,1,0.6681,"[""0.087"",""0.339"",""0.531"",""0.836""]","[1,1,1,0]",0,57,57,57,1,1,1,,,0,FALSE,,,,,,,,,,,,,,,,,,,,,,,,,,,,,,
,5ea8176676434f02a39db063,001,2022-04-28_20h14.30.299,classification_task,2021.2.3,Win32,59.93407252,5ea8176676434f02a39db063,626b377229c10585ec392f89,626b3ac19e6814ab52aa8bb4,,,,,,,,,,,,,,,,,,,,,,,l,0,1.7579,"[""0.252"",""0.465"",""0.879"",""0.120""]","[1,1,1,0]",0,58,58,58,1,0,0,,,0,FALSE,,,,,,,,,,,,,,,,,,,,,,,,,,,,,,
,5ea8176676434f02a39db063,001,2022-04-28_20h14.30.299,classification_task,2021.2.3,Win32,59.93407252,5ea8176676434f02a39db063,626b377229c10585ec392f89,626b3ac19e6814ab52aa8bb4,,,,,,,,,,,,,,,,,,,,,,,a,1,1.0722,"[""0.298"",""0.122"",""0.613"",""0.968""]","[1,0,1,1]",0,59,59,59,1,0,1,,,0,FALSE,,,,,,,,,,,,,,,,,,,,,,,,,,,,,,
,5ea8176676434f02a39db063,001,2022-04-28_20h14.30.299,classification_task,2021.2.3,Win32,59.93407252,5ea8176676434f02a39db063,626b377229c10585ec392f89,626b3ac19e6814ab52aa8bb4,,,,,,,,,,,,,,,,,,,,,,,l,1,0.8095,"[""0.431"",""0.339"",""0.531"",""0.799""]","[0,1,1,1]",0,60,60,60,1,1,1,,,0,FALSE,,,,,,,,,,,,,,,,,,,,,,,,,,,,,,
,5ea8176676434f02a39db063,001,2022-04-28_20h14.30.299,classification_task,2021.2.3,Win32,59.93407252,5ea8176676434f02a39db063,626b377229c10585ec392f89,626b3ac19e6814ab52aa8bb4,,,,,,,,,,,,,,,,,,,,,,,l,0,1.9133,"[""0.415"",""0.465"",""0.879"",""0.913""]","[0,1,1,1]",0,61,61,61,1,0,0,,,0,FALSE,,,,,,,,,,,,,,,,,,,,,,,,,,,,,,
,5ea8176676434f02a39db063,001,2022-04-28_20h14.30.299,classification_task,2021.2.3,Win32,59.93407252,5ea8176676434f02a39db063,626b377229c10585ec392f89,626b3ac19e6814ab52aa8bb4,,,,,,,,,,,,,,,,,,,,,,,a,1,1.8821,"[""0.252"",""0.465"",""0.120"",""0.913""]","[1,1,0,1]",0,62,62,62,1,0,0,,,0,FALSE,,,,,,,,,,,,,,,,,,,,,,,,,,,,,,
,5ea8176676434f02a39db063,001,2022-04-28_20h14.30.299,classification_task,2021.2.3,Win32,59.93407252,5ea8176676434f02a39db063,626b377229c10585ec392f89,626b3ac19e6814ab52aa8bb4,,,,,,,,,,,,,,,,,,,,,,,a,1,1.308,"[""0.298"",""0.375"",""0.832"",""0.968""]","[1,1,0,1]",0,63,63,63,1,0,1,,,0,FALSE,,,,,,,,,,,,,,,,,,,,,,,,,,,,,,
,5ea8176676434f02a39db063,001,2022-04-28_20h14.30.299,classification_task,2021.2.3,Win32,59.93407252,5ea8176676434f02a39db063,626b377229c10585ec392f89,626b3ac19e6814ab52aa8bb4,,,,,,,,,,,,,,,,,,,,,,,,,,,,,,,,,,,,,,,0, ,,0,9.843129704,198.4395,0,2,2,2,1,2,3,,,,,,,,,,,,,,,,,
,5ea8176676434f02a39db063,001,2022-04-28_20h14.30.299,classification_task,2021.2.3,Win32,59.93407252,5ea8176676434f02a39db063,626b377229c10585ec392f89,626b3ac19e6814ab52aa8bb4,,,,,,,,,,,,,,,,,,,,,,,,,,,,,,,,,,,,,,,1,  ,,0,10,204.9752,0,2,2,2,1,2,3,,,,,,,,,,,,,,,,,
,5ea8176676434f02a39db063,001,2022-04-28_20h14.30.299,classification_task,2021.2.3,Win32,59.93407252,5ea8176676434f02a39db063,626b377229c10585ec392f89,626b3ac19e6814ab52aa8bb4,,,,,,,,,,,,,,,,,,,,,,,,,,,,,,,,,,,,,,,2,  ,,0,10,213.0865,0,2,2,2,1,2,3,,,,,,,,,,,,,,,,,
,5ea8176676434f02a39db063,001,2022-04-28_20h14.30.299,classification_task,2021.2.3,Win32,59.93407252,5ea8176676434f02a39db063,626b377229c10585ec392f89,626b3ac19e6814ab52aa8bb4,,,,,,,,,,,,,,,,,,,,,,,,,,,,,,,,,,,,,,,,,,,,,0,2,2,2,1,,3,,,,,,,,,,,,,,,,,
,5ea8176676434f02a39db063,001,2022-04-28_20h14.30.299,classification_task,2021.2.3,Win32,59.93407252,5ea8176676434f02a39db063,626b377229c10585ec392f89,626b3ac19e6814ab52aa8bb4,,,,,,,,,,,,,,,,,,,,,,,,,,,,,,,,,,,,,,,,,,,,,,,,,,,,,I believe the aid is a competent performer,,0.7,0,4,1015.7191,0,0,0,0,1,0,,,,
,5ea8176676434f02a39db063,001,2022-04-28_20h14.30.299,classification_task,2021.2.3,Win32,59.93407252,5ea8176676434f02a39db063,626b377229c10585ec392f89,626b3ac19e6814ab52aa8bb4,,,,,,,,,,,,,,,,,,,,,,,,,,,,,,,,,,,,,,,,,,,,,,,,,,,,,I trust the aid,,0.7,0,4,1019.0643,0,0,0,0,1,0,,,,
,5ea8176676434f02a39db063,001,2022-04-28_20h14.30.299,classification_task,2021.2.3,Win32,59.93407252,5ea8176676434f02a39db063,626b377229c10585ec392f89,626b3ac19e6814ab52aa8bb4,,,,,,,,,,,,,,,,,,,,,,,,,,,,,,,,,,,,,,,,,,,,,,,,,,,,,I have confidence in the advice given by the aid,,0.7,0,4,1021.9389,0,0,0,0,1,0,,,,
,5ea8176676434f02a39db063,001,2022-04-28_20h14.30.299,classification_task,2021.2.3,Win32,59.93407252,5ea8176676434f02a39db063,626b377229c10585ec392f89,626b3ac19e6814ab52aa8bb4,,,,,,,,,,,,,,,,,,,,,,,,,,,,,,,,,,,,,,,,,,,,,,,,,,,,,I can depend on the aid,,0.7,0,4,1024.9908,0,0,0,0,1,0,,,,
,5ea8176676434f02a39db063,001,2022-04-28_20h14.30.299,classification_task,2021.2.3,Win32,59.93407252,5ea8176676434f02a39db063,626b377229c10585ec392f89,626b3ac19e6814ab52aa8bb4,,,,,,,,,,,,,,,,,,,,,,,,,,,,,,,,,,,,,,,,,,,,,,,,,,,,,I can rely on the aid to behave in consistent ways,,0.7,0,5,1029.1152,0,0,0,0,1,0,,,,
,5ea8176676434f02a39db063,001,2022-04-28_20h14.30.299,classification_task,2021.2.3,Win32,59.93407252,5ea8176676434f02a39db063,626b377229c10585ec392f89,626b3ac19e6814ab52aa8bb4,,,,,,,,,,,,,,,,,,,,,,,,,,,,,,,,,,,,,,,,,,,,,,,,,,,,,I can rely on the aid to do its best every time I take its advice,,0.7,0,5,1035.7264,0,0,0,0,1,0,,,,
,5ea8176676434f02a39db063,001,2022-04-28_20h14.30.299,classification_task,2021.2.3,Win32,59.93407252,5ea8176676434f02a39db063,626b377229c10585ec392f89,626b3ac19e6814ab52aa8bb4,,,,,,,,,,,,,,,,,,,,,,,,,,,,,,,,,,,,,,,,,,,,,,,,,,,,,"On trials you completed with assistance from the aid, how frequently did you think the aid was correct?",,0.7,0,90%,,0,0,0,0,1,0,,,,
,5ea8176676434f02a39db063,001,2022-04-28_20h14.30.299,classification_task,2021.2.3,Win32,59.93407252,5ea8176676434f02a39db063,626b377229c10585ec392f89,626b3ac19e6814ab52aa8bb4,,,,,,,,,,,,,,,,,,,,,,,,,,,,,,,,,,,,,,,,,,,,,,,,,,,,,"On trials you completed without the aid, how frequently did you think you were correct?",,0.7,0,15%,,0,0,0,0,1,0,,,,
,5ea8176676434f02a39db063,001,2022-04-28_20h14.30.299,classification_task,2021.2.3,Win32,59.93407252,5ea8176676434f02a39db063,626b377229c10585ec392f89,626b3ac19e6814ab52aa8bb4,,,,,,,,,,,,,,,,,,,,,,,,,,,,,,,,,,,,,,,,,,,,,,,,,,,,,,,,,,,0,0,0,0,1,,,,,
,5ea8176676434f02a39db063,001,2022-04-28_20h14.30.299,classification_task,2021.2.3,Win32,59.93407252,5ea8176676434f02a39db063,626b377229c10585ec392f89,626b3ac19e6814ab52aa8bb4,,,,,,,,,,,,,,,,,,,,,,,,,,,,,,,,,,,,,,,,,,,,,,,,,,,,,,,,,,,,,,,,,space,18.2425,1089.4815,
,5ea8176676434f02a39db063,001,2022-04-28_20h14.30.299,classification_task,2021.2.3,Win32,59.93407252,5ea8176676434f02a39db063,626b377229c10585ec392f89,626b3ac19e6814ab52aa8bb4,,,,,,,,,,,,,,,,,,,,,,,,,,,,,,,,,,,,,,,,,,,,,,,,,,,,,,,,,,,,,,,,,,,,"Mozilla/5.0 (Windows NT 6.3; Win64; x64) AppleWebKit/537.36 (KHTML, like Gecko) Chrome/97.0.4692.71 Safari/537.36"
