usingWebGL,participant,session,date,expName,psychopyVersion,OS,frameRate,study_id,signatures_friend,signatures_foe,band_ranges_top,band_ranges_bottom,formitemText,formtype,formundefined,formitemWidth,formindex,formresponse,formrt,key_resp_2.keys,key_resp_2.rt,tute_resp.keys,tute_resp.rt,tutorial.thisRepN,tutorial.thisTrialN,tutorial.thisN,tutorial.thisIndex,tutorial.ran,key_resp_4.keys,key_resp_4.rt,key_resp.keys,key_resp.corr,key_resp.rt,lines_presented,is_signal_presented,trials.thisRepN,trials.thisTrialN,trials.thisN,trials.thisIndex,trials.ran,vessel,active_band,lines,is_signal,supported_pos,catch_trial,debrief_formindex,debrief_formitemText,debrief_formtype,debrief_formitemWidth,debrief_formresponse,debrief_formrt,phases.thisRepN,phases.thisTrialN,phases.thisN,phases.thisIndex,phases.ran,phases.order,phase,key_resp_3.keys,trustitemText,trusttype,trustitemWidth,trustindex,trustresponse,trustrt,support_status.thisRepN,support_status.thisTrialN,support_status.thisN,support_status.thisIndex,support_status.ran,support_status.order,key_resp_5.keys,key_resp_5.rt,globalClockTime,userAgent,manualCondition
TRUE,5eaf1c50f3540c614eb973a5,627c696e3c2665d40820cccc,2022-05-12_02h57.12.541,classification_task,2021.2.3,Win32,59.36479668,627c6715c52fd12f31907bcf,,,,,,,,,,,,,,,,,,,,,,,,,,,,,,,,,,,,,,,,,,,,,,,,,,,,,,,,,,,,,,,,,,,,,
,5eaf1c50f3540c614eb973a5,627c696e3c2665d40820cccc,2022-05-12_02h57.12.541,classification_task,2021.2.3,Win32,59.36479668,627c6715c52fd12f31907bcf,"[[""0.267"",""0.343"",""0.570"",""0.861""],[""0.302"",""0.436"",""0.903"",""0.959""]]","[[""0.035"",""0.398"",""0.620"",""0.810""],[""0.104"",""0.163"",""0.483"",""0.675""]]","[1,10]","[100,1000]",Video game experience,,,0.7,0,,,,,,,,,,,,,,,,,,,,,,,,,,,,,,,,,,,,,,,,,,,,,,,,,,,,,,,,,,,,
,5eaf1c50f3540c614eb973a5,627c696e3c2665d40820cccc,2022-05-12_02h57.12.541,classification_task,2021.2.3,Win32,59.36479668,627c6715c52fd12f31907bcf,,,,,Approximately how many hours did you spend playing video games in the last week?,,,0.7,0,15,,,,,,,,,,,,,,,,,,,,,,,,,,,,,,,,,,,,,,,,,,,,,,,,,,,,,,,,,,,
,5eaf1c50f3540c614eb973a5,627c696e3c2665d40820cccc,2022-05-12_02h57.12.541,classification_task,2021.2.3,Win32,59.36479668,627c6715c52fd12f31907bcf,,,,,"Which game did you play the most this year? (Enter ""None"" if you didn't play any)",,,0.7,0,elden ring,,,,,,,,,,,,,,,,,,,,,,,,,,,,,,,,,,,,,,,,,,,,,,,,,,,,,,,,,,,
,5eaf1c50f3540c614eb973a5,627c696e3c2665d40820cccc,2022-05-12_02h57.12.541,classification_task,2021.2.3,Win32,59.36479668,627c6715c52fd12f31907bcf,,,,,Visual perception,,,0.7,0,,,,,,,,,,,,,,,,,,,,,,,,,,,,,,,,,,,,,,,,,,,,,,,,,,,,,,,,,,,,
,5eaf1c50f3540c614eb973a5,627c696e3c2665d40820cccc,2022-05-12_02h57.12.541,classification_task,2021.2.3,Win32,59.36479668,627c6715c52fd12f31907bcf,,,,,Do you have any form of color blindness?,,,0.7,0,No,14.6711,,,,,,,,,,,,,,,,,,,,,,,,,,,,,,,,,,,,,,,,,,,,,,,,,,,,,,,,,,
,5eaf1c50f3540c614eb973a5,627c696e3c2665d40820cccc,2022-05-12_02h57.12.541,classification_task,2021.2.3,Win32,59.36479668,627c6715c52fd12f31907bcf,,,,,Do you use software to change the colour temperature of your screen (e.g. f.lux)?,,,0.7,0,No,16.7364,,,,,,,,,,,,,,,,,,,,,,,,,,,,,,,,,,,,,,,,,,,,,,,,,,,,,,,,,,
,5eaf1c50f3540c614eb973a5,627c696e3c2665d40820cccc,2022-05-12_02h57.12.541,classification_task,2021.2.3,Win32,59.36479668,627c6715c52fd12f31907bcf,,,,,,,,,,,,space,18.8852,space,8.0586,0,0,0,0,1,,,,,,,,,,,,,,,,,,,,,,,,,,,,,,,,,,,,,,,,,,,,,,,,,
,5eaf1c50f3540c614eb973a5,627c696e3c2665d40820cccc,2022-05-12_02h57.12.541,classification_task,2021.2.3,Win32,59.36479668,627c6715c52fd12f31907bcf,,,,,,,,,,,,,,space,6.4592,1,0,1,0,1,,,,,,,,,,,,,,,,,,,,,,,,,,,,,,,,,,,,,,,,,,,,,,,,,
,5eaf1c50f3540c614eb973a5,627c696e3c2665d40820cccc,2022-05-12_02h57.12.541,classification_task,2021.2.3,Win32,59.36479668,627c6715c52fd12f31907bcf,,,,,,,,,,,,,,space,21.8443,2,0,2,0,1,,,,,,,,,,,,,,,,,,,,,,,,,,,,,,,,,,,,,,,,,,,,,,,,,
,5eaf1c50f3540c614eb973a5,627c696e3c2665d40820cccc,2022-05-12_02h57.12.541,classification_task,2021.2.3,Win32,59.36479668,627c6715c52fd12f31907bcf,,,,,,,,,,,,,,space,4.9169,3,0,3,0,1,,,,,,,,,,,,,,,,,,,,,,,,,,,,,,,,,,,,,,,,,,,,,,,,,
,5eaf1c50f3540c614eb973a5,627c696e3c2665d40820cccc,2022-05-12_02h57.12.541,classification_task,2021.2.3,Win32,59.36479668,627c6715c52fd12f31907bcf,,,,,,,,,,,,,,space,8.8827,4,0,4,0,1,,,,,,,,,,,,,,,,,,,,,,,,,,,,,,,,,,,,,,,,,,,,,,,,,
,5eaf1c50f3540c614eb973a5,627c696e3c2665d40820cccc,2022-05-12_02h57.12.541,classification_task,2021.2.3,Win32,59.36479668,627c6715c52fd12f31907bcf,,,,,,,,,,,,,,,,,,,,,space,5.5687,a,1,4.4487,"[""0.267"",""0.343"",""0.570"",""0.736""]","[1,1,1,0]",0,0,0,0,1,0,0,,,0,FALSE,,,,,,,,,,,,,,,,,,,,,,,,,,,,,,,
,5eaf1c50f3540c614eb973a5,627c696e3c2665d40820cccc,2022-05-12_02h57.12.541,classification_task,2021.2.3,Win32,59.36479668,627c6715c52fd12f31907bcf,,,,,,,,,,,,,,,,,,,,,,,l,1,1.6862,"[""0.035"",""0.398"",""0.620"",""0.716""]","[1,1,1,0]",0,1,1,1,1,1,0,,,0,FALSE,,,,,,,,,,,,,,,,,,,,,,,,,,,,,,,
,5eaf1c50f3540c614eb973a5,627c696e3c2665d40820cccc,2022-05-12_02h57.12.541,classification_task,2021.2.3,Win32,59.36479668,627c6715c52fd12f31907bcf,,,,,,,,,,,,,,,,,,,,,,,l,0,6.6618,"[""0.302"",""0.436"",""0.903"",""0.200""]","[1,1,1,0]",0,2,2,2,1,0,1,,,0,FALSE,,,,,,,,,,,,,,,,,,,,,,,,,,,,,,,
,5eaf1c50f3540c614eb973a5,627c696e3c2665d40820cccc,2022-05-12_02h57.12.541,classification_task,2021.2.3,Win32,59.36479668,627c6715c52fd12f31907bcf,,,,,,,,,,,,,,,,,,,,,,,l,1,7.2177,"[""0.768"",""0.163"",""0.483"",""0.675""]","[0,1,1,1]",0,3,3,3,1,1,1,,,0,FALSE,,,,,,,,,,,,,,,,,,,,,,,,,,,,,,,
,5eaf1c50f3540c614eb973a5,627c696e3c2665d40820cccc,2022-05-12_02h57.12.541,classification_task,2021.2.3,Win32,59.36479668,627c6715c52fd12f31907bcf,,,,,,,,,,,,,,,,,,,,,,,l,1,2.3847,"[""0.104"",""0.723"",""0.483"",""0.675""]","[1,0,1,1]",0,4,4,4,1,1,1,,,0,FALSE,,,,,,,,,,,,,,,,,,,,,,,,,,,,,,,
,5eaf1c50f3540c614eb973a5,627c696e3c2665d40820cccc,2022-05-12_02h57.12.541,classification_task,2021.2.3,Win32,59.36479668,627c6715c52fd12f31907bcf,,,,,,,,,,,,,,,,,,,,,,,a,1,2.6628,"[""0.765"",""0.343"",""0.570"",""0.861""]","[0,1,1,1]",0,5,5,5,1,0,0,,,0,FALSE,,,,,,,,,,,,,,,,,,,,,,,,,,,,,,,
,5eaf1c50f3540c614eb973a5,627c696e3c2665d40820cccc,2022-05-12_02h57.12.541,classification_task,2021.2.3,Win32,59.36479668,627c6715c52fd12f31907bcf,,,,,,,,,,,,,,,,,,,,,,,a,1,2.405,"[""0.267"",""0.723"",""0.570"",""0.861""]","[1,0,1,1]",0,6,6,6,1,0,0,,,0,FALSE,,,,,,,,,,,,,,,,,,,,,,,,,,,,,,,
,5eaf1c50f3540c614eb973a5,627c696e3c2665d40820cccc,2022-05-12_02h57.12.541,classification_task,2021.2.3,Win32,59.36479668,627c6715c52fd12f31907bcf,,,,,,,,,,,,,,,,,,,,,,,l,1,3.3804,"[""0.035"",""0.398"",""0.730"",""0.810""]","[1,1,0,1]",0,7,7,7,1,1,0,,,0,FALSE,,,,,,,,,,,,,,,,,,,,,,,,,,,,,,,
,5eaf1c50f3540c614eb973a5,627c696e3c2665d40820cccc,2022-05-12_02h57.12.541,classification_task,2021.2.3,Win32,59.36479668,627c6715c52fd12f31907bcf,,,,,,,,,,,,,,,,,,,,,,,l,1,2.4851,"[""0.035"",""0.729"",""0.620"",""0.810""]","[1,0,1,1]",0,8,8,8,1,1,0,,,0,FALSE,,,,,,,,,,,,,,,,,,,,,,,,,,,,,,,
,5eaf1c50f3540c614eb973a5,627c696e3c2665d40820cccc,2022-05-12_02h57.12.541,classification_task,2021.2.3,Win32,59.36479668,627c6715c52fd12f31907bcf,,,,,,,,,,,,,,,,,,,,,,,a,1,2.0571,"[""0.267"",""0.343"",""0.768"",""0.861""]","[1,1,0,1]",0,9,9,9,1,0,0,,,0,FALSE,,,,,,,,,,,,,,,,,,,,,,,,,,,,,,,
,5eaf1c50f3540c614eb973a5,627c696e3c2665d40820cccc,2022-05-12_02h57.12.541,classification_task,2021.2.3,Win32,59.36479668,627c6715c52fd12f31907bcf,,,,,,,,,,,,,,,,,,,,,,,l,1,6.3795,"[""0.197"",""0.398"",""0.620"",""0.810""]","[0,1,1,1]",0,10,10,10,1,1,0,,,0,FALSE,,,,,,,,,,,,,,,,,,,,,,,,,,,,,,,
,5eaf1c50f3540c614eb973a5,627c696e3c2665d40820cccc,2022-05-12_02h57.12.541,classification_task,2021.2.3,Win32,59.36479668,627c6715c52fd12f31907bcf,,,,,,,,,,,,,,,,,,,,,,,a,1,2.1968,"[""0.302"",""0.436"",""0.768"",""0.959""]","[1,1,0,1]",0,11,11,11,1,0,1,,,0,FALSE,,,,,,,,,,,,,,,,,,,,,,,,,,,,,,,
,5eaf1c50f3540c614eb973a5,627c696e3c2665d40820cccc,2022-05-12_02h57.12.541,classification_task,2021.2.3,Win32,59.36479668,627c6715c52fd12f31907bcf,,,,,,,,,,,,,,,,,,,,,,,l,1,2.6751,"[""0.104"",""0.163"",""0.224"",""0.675""]","[1,1,0,1]",0,12,12,12,1,1,1,,,0,FALSE,,,,,,,,,,,,,,,,,,,,,,,,,,,,,,,
,5eaf1c50f3540c614eb973a5,627c696e3c2665d40820cccc,2022-05-12_02h57.12.541,classification_task,2021.2.3,Win32,59.36479668,627c6715c52fd12f31907bcf,,,,,,,,,,,,,,,,,,,,,,,a,1,2.4625,"[""0.736"",""0.436"",""0.903"",""0.959""]","[0,1,1,1]",0,13,13,13,1,0,1,,,0,FALSE,,,,,,,,,,,,,,,,,,,,,,,,,,,,,,,
,5eaf1c50f3540c614eb973a5,627c696e3c2665d40820cccc,2022-05-12_02h57.12.541,classification_task,2021.2.3,Win32,59.36479668,627c6715c52fd12f31907bcf,,,,,,,,,,,,,,,,,,,,,,,a,1,1.5784,"[""0.302"",""0.730"",""0.903"",""0.959""]","[1,0,1,1]",0,14,14,14,1,0,1,,,0,FALSE,,,,,,,,,,,,,,,,,,,,,,,,,,,,,,,
,5eaf1c50f3540c614eb973a5,627c696e3c2665d40820cccc,2022-05-12_02h57.12.541,classification_task,2021.2.3,Win32,59.36479668,627c6715c52fd12f31907bcf,,,,,,,,,,,,,,,,,,,,,,,l,1,4.4766,"[""0.104"",""0.163"",""0.483"",""0.197""]","[1,1,1,0]",0,15,15,15,1,1,1,,,0,FALSE,,,,,,,,,,,,,,,,,,,,,,,,,,,,,,,
,5eaf1c50f3540c614eb973a5,627c696e3c2665d40820cccc,2022-05-12_02h57.12.541,classification_task,2021.2.3,Win32,59.36479668,627c6715c52fd12f31907bcf,,,,,,,,,,,,,,,,,,,,,,,a,1,5.2685,"[""0.302"",""0.436"",""0.903"",""0.721""]","[1,1,1,0]",0,16,16,16,1,0,1,,,0,FALSE,,,,,,,,,,,,,,,,,,,,,,,,,,,,,,,
,5eaf1c50f3540c614eb973a5,627c696e3c2665d40820cccc,2022-05-12_02h57.12.541,classification_task,2021.2.3,Win32,59.36479668,627c6715c52fd12f31907bcf,,,,,,,,,,,,,,,,,,,,,,,a,1,6.4702,"[""0.267"",""0.768"",""0.570"",""0.861""]","[1,0,1,1]",0,17,17,17,1,0,0,,,0,FALSE,,,,,,,,,,,,,,,,,,,,,,,,,,,,,,,
,5eaf1c50f3540c614eb973a5,627c696e3c2665d40820cccc,2022-05-12_02h57.12.541,classification_task,2021.2.3,Win32,59.36479668,627c6715c52fd12f31907bcf,,,,,,,,,,,,,,,,,,,,,,,a,1,2.0856,"[""0.267"",""0.343"",""0.570"",""0.720""]","[1,1,1,0]",0,18,18,18,1,0,0,,,0,FALSE,,,,,,,,,,,,,,,,,,,,,,,,,,,,,,,
,5eaf1c50f3540c614eb973a5,627c696e3c2665d40820cccc,2022-05-12_02h57.12.541,classification_task,2021.2.3,Win32,59.36479668,627c6715c52fd12f31907bcf,,,,,,,,,,,,,,,,,,,,,,,l,1,2.0174,"[""0.035"",""0.215"",""0.620"",""0.810""]","[1,0,1,1]",0,19,19,19,1,1,0,,,0,FALSE,,,,,,,,,,,,,,,,,,,,,,,,,,,,,,,
,5eaf1c50f3540c614eb973a5,627c696e3c2665d40820cccc,2022-05-12_02h57.12.541,classification_task,2021.2.3,Win32,59.36479668,627c6715c52fd12f31907bcf,,,,,,,,,,,,,,,,,,,,,,,l,1,5.3952,"[""0.035"",""0.398"",""0.620"",""0.200""]","[1,1,1,0]",0,20,20,20,1,1,0,,,0,FALSE,,,,,,,,,,,,,,,,,,,,,,,,,,,,,,,
,5eaf1c50f3540c614eb973a5,627c696e3c2665d40820cccc,2022-05-12_02h57.12.541,classification_task,2021.2.3,Win32,59.36479668,627c6715c52fd12f31907bcf,,,,,,,,,,,,,,,,,,,,,,,a,1,2.0151,"[""0.215"",""0.343"",""0.570"",""0.861""]","[0,1,1,1]",0,21,21,21,1,0,0,,,0,FALSE,,,,,,,,,,,,,,,,,,,,,,,,,,,,,,,
,5eaf1c50f3540c614eb973a5,627c696e3c2665d40820cccc,2022-05-12_02h57.12.541,classification_task,2021.2.3,Win32,59.36479668,627c6715c52fd12f31907bcf,,,,,,,,,,,,,,,,,,,,,,,l,1,2.788,"[""0.104"",""0.163"",""0.483"",""0.729""]","[1,1,1,0]",0,22,22,22,1,1,1,,,0,FALSE,,,,,,,,,,,,,,,,,,,,,,,,,,,,,,,
,5eaf1c50f3540c614eb973a5,627c696e3c2665d40820cccc,2022-05-12_02h57.12.541,classification_task,2021.2.3,Win32,59.36479668,627c6715c52fd12f31907bcf,,,,,,,,,,,,,,,,,,,,,,,l,1,2.3566,"[""0.035"",""0.398"",""0.229"",""0.810""]","[1,1,0,1]",0,23,23,23,1,1,0,,,0,FALSE,,,,,,,,,,,,,,,,,,,,,,,,,,,,,,,
,5eaf1c50f3540c614eb973a5,627c696e3c2665d40820cccc,2022-05-12_02h57.12.541,classification_task,2021.2.3,Win32,59.36479668,627c6715c52fd12f31907bcf,,,,,,,,,,,,,,,,,,,,,,,l,1,2.1064,"[""0.104"",""0.224"",""0.483"",""0.675""]","[1,0,1,1]",0,24,24,24,1,1,1,,,0,FALSE,,,,,,,,,,,,,,,,,,,,,,,,,,,,,,,
,5eaf1c50f3540c614eb973a5,627c696e3c2665d40820cccc,2022-05-12_02h57.12.541,classification_task,2021.2.3,Win32,59.36479668,627c6715c52fd12f31907bcf,,,,,,,,,,,,,,,,,,,,,,,l,1,2.6744,"[""0.721"",""0.163"",""0.483"",""0.675""]","[0,1,1,1]",0,25,25,25,1,1,1,,,0,FALSE,,,,,,,,,,,,,,,,,,,,,,,,,,,,,,,
,5eaf1c50f3540c614eb973a5,627c696e3c2665d40820cccc,2022-05-12_02h57.12.541,classification_task,2021.2.3,Win32,59.36479668,627c6715c52fd12f31907bcf,,,,,,,,,,,,,,,,,,,,,,,a,1,1.8292,"[""0.267"",""0.343"",""0.229"",""0.861""]","[1,1,0,1]",0,26,26,26,1,0,0,,,0,FALSE,,,,,,,,,,,,,,,,,,,,,,,,,,,,,,,
,5eaf1c50f3540c614eb973a5,627c696e3c2665d40820cccc,2022-05-12_02h57.12.541,classification_task,2021.2.3,Win32,59.36479668,627c6715c52fd12f31907bcf,,,,,,,,,,,,,,,,,,,,,,,a,1,1.731,"[""0.302"",""0.436"",""0.224"",""0.959""]","[1,1,0,1]",0,27,27,27,1,0,1,,,0,FALSE,,,,,,,,,,,,,,,,,,,,,,,,,,,,,,,
,5eaf1c50f3540c614eb973a5,627c696e3c2665d40820cccc,2022-05-12_02h57.12.541,classification_task,2021.2.3,Win32,59.36479668,627c6715c52fd12f31907bcf,,,,,,,,,,,,,,,,,,,,,,,l,1,2.7249,"[""0.104"",""0.163"",""0.200"",""0.675""]","[1,1,0,1]",0,28,28,28,1,1,1,,,0,FALSE,,,,,,,,,,,,,,,,,,,,,,,,,,,,,,,
,5eaf1c50f3540c614eb973a5,627c696e3c2665d40820cccc,2022-05-12_02h57.12.541,classification_task,2021.2.3,Win32,59.36479668,627c6715c52fd12f31907bcf,,,,,,,,,,,,,,,,,,,,,,,l,1,2.688,"[""0.224"",""0.398"",""0.620"",""0.810""]","[0,1,1,1]",0,29,29,29,1,1,0,,,0,FALSE,,,,,,,,,,,,,,,,,,,,,,,,,,,,,,,
,5eaf1c50f3540c614eb973a5,627c696e3c2665d40820cccc,2022-05-12_02h57.12.541,classification_task,2021.2.3,Win32,59.36479668,627c6715c52fd12f31907bcf,,,,,,,,,,,,,,,,,,,,,,,a,1,2.6601,"[""0.302"",""0.229"",""0.903"",""0.959""]","[1,0,1,1]",0,30,30,30,1,0,1,,,0,FALSE,,,,,,,,,,,,,,,,,,,,,,,,,,,,,,,
,5eaf1c50f3540c614eb973a5,627c696e3c2665d40820cccc,2022-05-12_02h57.12.541,classification_task,2021.2.3,Win32,59.36479668,627c6715c52fd12f31907bcf,,,,,,,,,,,,,,,,,,,,,,,a,1,2.6337,"[""0.729"",""0.436"",""0.903"",""0.959""]","[0,1,1,1]",0,31,31,31,1,0,1,,,0,FALSE,,,,,,,,,,,,,,,,,,,,,,,,,,,,,,,
,5eaf1c50f3540c614eb973a5,627c696e3c2665d40820cccc,2022-05-12_02h57.12.541,classification_task,2021.2.3,Win32,59.36479668,627c6715c52fd12f31907bcf,,,,,,,,,,,,,,,,,,,,,,,l,0,4.1123,"[""0.768"",""0.343"",""0.570"",""0.861""]","[0,1,1,1]",0,32,32,32,1,0,0,,,0,FALSE,,,,,,,,,,,,,,,,,,,,,,,,,,,,,,,
,5eaf1c50f3540c614eb973a5,627c696e3c2665d40820cccc,2022-05-12_02h57.12.541,classification_task,2021.2.3,Win32,59.36479668,627c6715c52fd12f31907bcf,,,,,,,,,,,,,,,,,,,,,,,a,1,1.8004,"[""0.267"",""0.343"",""0.730"",""0.861""]","[1,1,0,1]",0,33,33,33,1,0,0,,,0,FALSE,,,,,,,,,,,,,,,,,,,,,,,,,,,,,,,
,5eaf1c50f3540c614eb973a5,627c696e3c2665d40820cccc,2022-05-12_02h57.12.541,classification_task,2021.2.3,Win32,59.36479668,627c6715c52fd12f31907bcf,,,,,,,,,,,,,,,,,,,,,,,l,1,2.5503,"[""0.104"",""0.768"",""0.483"",""0.675""]","[1,0,1,1]",0,34,34,34,1,1,1,,,0,FALSE,,,,,,,,,,,,,,,,,,,,,,,,,,,,,,,
,5eaf1c50f3540c614eb973a5,627c696e3c2665d40820cccc,2022-05-12_02h57.12.541,classification_task,2021.2.3,Win32,59.36479668,627c6715c52fd12f31907bcf,,,,,,,,,,,,,,,,,,,,,,,a,1,1.5837,"[""0.302"",""0.436"",""0.903"",""0.720""]","[1,1,1,0]",0,35,35,35,1,0,1,,,0,FALSE,,,,,,,,,,,,,,,,,,,,,,,,,,,,,,,
,5eaf1c50f3540c614eb973a5,627c696e3c2665d40820cccc,2022-05-12_02h57.12.541,classification_task,2021.2.3,Win32,59.36479668,627c6715c52fd12f31907bcf,,,,,,,,,,,,,,,,,,,,,,,l,1,0.8671,"[""0.730"",""0.163"",""0.483"",""0.675""]","[0,1,1,1]",0,36,36,36,1,1,1,,,0,FALSE,,,,,,,,,,,,,,,,,,,,,,,,,,,,,,,
,5eaf1c50f3540c614eb973a5,627c696e3c2665d40820cccc,2022-05-12_02h57.12.541,classification_task,2021.2.3,Win32,59.36479668,627c6715c52fd12f31907bcf,,,,,,,,,,,,,,,,,,,,,,,l,0,0.7337,"[""0.302"",""0.765"",""0.903"",""0.959""]","[1,0,1,1]",0,37,37,37,1,0,1,,,0,FALSE,,,,,,,,,,,,,,,,,,,,,,,,,,,,,,,
,5eaf1c50f3540c614eb973a5,627c696e3c2665d40820cccc,2022-05-12_02h57.12.541,classification_task,2021.2.3,Win32,59.36479668,627c6715c52fd12f31907bcf,,,,,,,,,,,,,,,,,,,,,,,a,1,1.967,"[""0.302"",""0.436"",""0.730"",""0.959""]","[1,1,0,1]",0,38,38,38,1,0,1,,,0,FALSE,,,,,,,,,,,,,,,,,,,,,,,,,,,,,,,
,5eaf1c50f3540c614eb973a5,627c696e3c2665d40820cccc,2022-05-12_02h57.12.541,classification_task,2021.2.3,Win32,59.36479668,627c6715c52fd12f31907bcf,,,,,,,,,,,,,,,,,,,,,,,a,0,2.7503,"[""0.104"",""0.163"",""0.483"",""0.765""]","[1,1,1,0]",0,39,39,39,1,1,1,,,0,FALSE,,,,,,,,,,,,,,,,,,,,,,,,,,,,,,,
,5eaf1c50f3540c614eb973a5,627c696e3c2665d40820cccc,2022-05-12_02h57.12.541,classification_task,2021.2.3,Win32,59.36479668,627c6715c52fd12f31907bcf,,,,,,,,,,,,,,,,,,,,,,,a,1,1.3336,"[""0.224"",""0.436"",""0.903"",""0.959""]","[0,1,1,1]",0,40,40,40,1,0,1,,,0,FALSE,,,,,,,,,,,,,,,,,,,,,,,,,,,,,,,
,5eaf1c50f3540c614eb973a5,627c696e3c2665d40820cccc,2022-05-12_02h57.12.541,classification_task,2021.2.3,Win32,59.36479668,627c6715c52fd12f31907bcf,,,,,,,,,,,,,,,,,,,,,,,l,0,1.4999,"[""0.267"",""0.343"",""0.570"",""0.215""]","[1,1,1,0]",0,41,41,41,1,0,0,,,0,FALSE,,,,,,,,,,,,,,,,,,,,,,,,,,,,,,,
,5eaf1c50f3540c614eb973a5,627c696e3c2665d40820cccc,2022-05-12_02h57.12.541,classification_task,2021.2.3,Win32,59.36479668,627c6715c52fd12f31907bcf,,,,,,,,,,,,,,,,,,,,,,,l,1,1.0505,"[""0.035"",""0.765"",""0.620"",""0.810""]","[1,0,1,1]",0,42,42,42,1,1,0,,,0,FALSE,,,,,,,,,,,,,,,,,,,,,,,,,,,,,,,
,5eaf1c50f3540c614eb973a5,627c696e3c2665d40820cccc,2022-05-12_02h57.12.541,classification_task,2021.2.3,Win32,59.36479668,627c6715c52fd12f31907bcf,,,,,,,,,,,,,,,,,,,,,,,l,1,0.717,"[""0.035"",""0.398"",""0.768"",""0.810""]","[1,1,0,1]",0,43,43,43,1,1,0,,,0,FALSE,,,,,,,,,,,,,,,,,,,,,,,,,,,,,,,
,5eaf1c50f3540c614eb973a5,627c696e3c2665d40820cccc,2022-05-12_02h57.12.541,classification_task,2021.2.3,Win32,59.36479668,627c6715c52fd12f31907bcf,,,,,,,,,,,,,,,,,,,,,,,a,0,0.967,"[""0.035"",""0.398"",""0.620"",""0.721""]","[1,1,1,0]",0,44,44,44,1,1,0,,,0,FALSE,,,,,,,,,,,,,,,,,,,,,,,,,,,,,,,
,5eaf1c50f3540c614eb973a5,627c696e3c2665d40820cccc,2022-05-12_02h57.12.541,classification_task,2021.2.3,Win32,59.36479668,627c6715c52fd12f31907bcf,,,,,,,,,,,,,,,,,,,,,,,a,1,1.317,"[""0.267"",""0.723"",""0.570"",""0.861""]","[1,0,1,1]",0,45,45,45,1,0,0,,,0,FALSE,,,,,,,,,,,,,,,,,,,,,,,,,,,,,,,
,5eaf1c50f3540c614eb973a5,627c696e3c2665d40820cccc,2022-05-12_02h57.12.541,classification_task,2021.2.3,Win32,59.36479668,627c6715c52fd12f31907bcf,,,,,,,,,,,,,,,,,,,,,,,a,0,1.2503,"[""0.229"",""0.398"",""0.620"",""0.810""]","[0,1,1,1]",0,46,46,46,1,1,0,,,0,FALSE,,,,,,,,,,,,,,,,,,,,,,,,,,,,,,,
,5eaf1c50f3540c614eb973a5,627c696e3c2665d40820cccc,2022-05-12_02h57.12.541,classification_task,2021.2.3,Win32,59.36479668,627c6715c52fd12f31907bcf,,,,,,,,,,,,,,,,,,,,,,,l,1,1.3337,"[""0.104"",""0.163"",""0.736"",""0.675""]","[1,1,0,1]",0,47,47,47,1,1,1,,,0,FALSE,,,,,,,,,,,,,,,,,,,,,,,,,,,,,,,
,5eaf1c50f3540c614eb973a5,627c696e3c2665d40820cccc,2022-05-12_02h57.12.541,classification_task,2021.2.3,Win32,59.36479668,627c6715c52fd12f31907bcf,,,,,,,,,,,,,,,,,,,,,,,l,0,1.1504,"[""0.215"",""0.436"",""0.903"",""0.959""]","[0,1,1,1]",0,48,48,48,1,0,1,,,0,FALSE,,,,,,,,,,,,,,,,,,,,,,,,,,,,,,,
,5eaf1c50f3540c614eb973a5,627c696e3c2665d40820cccc,2022-05-12_02h57.12.541,classification_task,2021.2.3,Win32,59.36479668,627c6715c52fd12f31907bcf,,,,,,,,,,,,,,,,,,,,,,,l,0,1.0338,"[""0.267"",""0.768"",""0.570"",""0.861""]","[1,0,1,1]",0,49,49,49,1,0,0,,,0,FALSE,,,,,,,,,,,,,,,,,,,,,,,,,,,,,,,
,5eaf1c50f3540c614eb973a5,627c696e3c2665d40820cccc,2022-05-12_02h57.12.541,classification_task,2021.2.3,Win32,59.36479668,627c6715c52fd12f31907bcf,,,,,,,,,,,,,,,,,,,,,,,a,0,0.9837,"[""0.104"",""0.163"",""0.730"",""0.675""]","[1,1,0,1]",0,50,50,50,1,1,1,,,0,FALSE,,,,,,,,,,,,,,,,,,,,,,,,,,,,,,,
,5eaf1c50f3540c614eb973a5,627c696e3c2665d40820cccc,2022-05-12_02h57.12.541,classification_task,2021.2.3,Win32,59.36479668,627c6715c52fd12f31907bcf,,,,,,,,,,,,,,,,,,,,,,,l,1,1.817,"[""0.035"",""0.720"",""0.620"",""0.810""]","[1,0,1,1]",0,51,51,51,1,1,0,,,0,FALSE,,,,,,,,,,,,,,,,,,,,,,,,,,,,,,,
,5eaf1c50f3540c614eb973a5,627c696e3c2665d40820cccc,2022-05-12_02h57.12.541,classification_task,2021.2.3,Win32,59.36479668,627c6715c52fd12f31907bcf,,,,,,,,,,,,,,,,,,,,,,,a,0,1.2166,"[""0.035"",""0.398"",""0.215"",""0.810""]","[1,1,0,1]",0,52,52,52,1,1,0,,,0,FALSE,,,,,,,,,,,,,,,,,,,,,,,,,,,,,,,
,5eaf1c50f3540c614eb973a5,627c696e3c2665d40820cccc,2022-05-12_02h57.12.541,classification_task,2021.2.3,Win32,59.36479668,627c6715c52fd12f31907bcf,,,,,,,,,,,,,,,,,,,,,,,a,1,1.2337,"[""0.723"",""0.343"",""0.570"",""0.861""]","[0,1,1,1]",0,53,53,53,1,0,0,,,0,FALSE,,,,,,,,,,,,,,,,,,,,,,,,,,,,,,,
,5eaf1c50f3540c614eb973a5,627c696e3c2665d40820cccc,2022-05-12_02h57.12.541,classification_task,2021.2.3,Win32,59.36479668,627c6715c52fd12f31907bcf,,,,,,,,,,,,,,,,,,,,,,,l,1,1.2336,"[""0.035"",""0.398"",""0.620"",""0.229""]","[1,1,1,0]",0,54,54,54,1,1,0,,,0,FALSE,,,,,,,,,,,,,,,,,,,,,,,,,,,,,,,
,5eaf1c50f3540c614eb973a5,627c696e3c2665d40820cccc,2022-05-12_02h57.12.541,classification_task,2021.2.3,Win32,59.36479668,627c6715c52fd12f31907bcf,,,,,,,,,,,,,,,,,,,,,,,l,0,1.3836,"[""0.302"",""0.436"",""0.903"",""0.721""]","[1,1,1,0]",0,55,55,55,1,0,1,,,0,FALSE,,,,,,,,,,,,,,,,,,,,,,,,,,,,,,,
,5eaf1c50f3540c614eb973a5,627c696e3c2665d40820cccc,2022-05-12_02h57.12.541,classification_task,2021.2.3,Win32,59.36479668,627c6715c52fd12f31907bcf,,,,,,,,,,,,,,,,,,,,,,,l,0,1.0003,"[""0.267"",""0.343"",""0.720"",""0.861""]","[1,1,0,1]",0,56,56,56,1,0,0,,,0,FALSE,,,,,,,,,,,,,,,,,,,,,,,,,,,,,,,
,5eaf1c50f3540c614eb973a5,627c696e3c2665d40820cccc,2022-05-12_02h57.12.541,classification_task,2021.2.3,Win32,59.36479668,627c6715c52fd12f31907bcf,,,,,,,,,,,,,,,,,,,,,,,a,1,0.8335,"[""0.302"",""0.768"",""0.903"",""0.959""]","[1,0,1,1]",0,57,57,57,1,0,1,,,0,FALSE,,,,,,,,,,,,,,,,,,,,,,,,,,,,,,,
,5eaf1c50f3540c614eb973a5,627c696e3c2665d40820cccc,2022-05-12_02h57.12.541,classification_task,2021.2.3,Win32,59.36479668,627c6715c52fd12f31907bcf,,,,,,,,,,,,,,,,,,,,,,,l,0,1.8171,"[""0.267"",""0.343"",""0.570"",""0.730""]","[1,1,1,0]",0,58,58,58,1,0,0,,,0,FALSE,,,,,,,,,,,,,,,,,,,,,,,,,,,,,,,
,5eaf1c50f3540c614eb973a5,627c696e3c2665d40820cccc,2022-05-12_02h57.12.541,classification_task,2021.2.3,Win32,59.36479668,627c6715c52fd12f31907bcf,,,,,,,,,,,,,,,,,,,,,,,l,1,1.6003,"[""0.104"",""0.163"",""0.483"",""0.765""]","[1,1,1,0]",0,59,59,59,1,1,1,,,0,FALSE,,,,,,,,,,,,,,,,,,,,,,,,,,,,,,,
,5eaf1c50f3540c614eb973a5,627c696e3c2665d40820cccc,2022-05-12_02h57.12.541,classification_task,2021.2.3,Win32,59.36479668,627c6715c52fd12f31907bcf,,,,,,,,,,,,,,,,,,,,,,,a,0,0.9672,"[""0.729"",""0.163"",""0.483"",""0.675""]","[0,1,1,1]",0,60,60,60,1,1,1,,,0,FALSE,,,,,,,,,,,,,,,,,,,,,,,,,,,,,,,
,5eaf1c50f3540c614eb973a5,627c696e3c2665d40820cccc,2022-05-12_02h57.12.541,classification_task,2021.2.3,Win32,59.36479668,627c6715c52fd12f31907bcf,,,,,,,,,,,,,,,,,,,,,,,l,1,1.0337,"[""0.104"",""0.200"",""0.483"",""0.675""]","[1,0,1,1]",0,61,61,61,1,1,1,,,0,FALSE,,,,,,,,,,,,,,,,,,,,,,,,,,,,,,,
,5eaf1c50f3540c614eb973a5,627c696e3c2665d40820cccc,2022-05-12_02h57.12.541,classification_task,2021.2.3,Win32,59.36479668,627c6715c52fd12f31907bcf,,,,,,,,,,,,,,,,,,,,,,,a,1,0.8667,"[""0.302"",""0.436"",""0.736"",""0.959""]","[1,1,0,1]",0,62,62,62,1,0,1,,,0,FALSE,,,,,,,,,,,,,,,,,,,,,,,,,,,,,,,
,5eaf1c50f3540c614eb973a5,627c696e3c2665d40820cccc,2022-05-12_02h57.12.541,classification_task,2021.2.3,Win32,59.36479668,627c6715c52fd12f31907bcf,,,,,,,,,,,,,,,,,,,,,,,a,0,1.3502,"[""0.215"",""0.398"",""0.620"",""0.810""]","[0,1,1,1]",0,63,63,63,1,1,0,,,0,FALSE,,,,,,,,,,,,,,,,,,,,,,,,,,,,,,,
,5eaf1c50f3540c614eb973a5,627c696e3c2665d40820cccc,2022-05-12_02h57.12.541,classification_task,2021.2.3,Win32,59.36479668,627c6715c52fd12f31907bcf,,,,,,,,,,,,,,,,,,,,,,,,,,,,,,,,,,,,,,,0, ,,0,2.33000196,319.384,0,0,0,0,1,2,1,,,,,,,,,,,,,,,,,,
,5eaf1c50f3540c614eb973a5,627c696e3c2665d40820cccc,2022-05-12_02h57.12.541,classification_task,2021.2.3,Win32,59.36479668,627c6715c52fd12f31907bcf,,,,,,,,,,,,,,,,,,,,,,,,,,,,,,,,,,,,,,,1,  ,,0,8.992749363,325.9243,0,0,0,0,1,2,1,,,,,,,,,,,,,,,,,,
,5eaf1c50f3540c614eb973a5,627c696e3c2665d40820cccc,2022-05-12_02h57.12.541,classification_task,2021.2.3,Win32,59.36479668,627c6715c52fd12f31907bcf,,,,,,,,,,,,,,,,,,,,,,,,,,,,,,,,,,,,,,,2,  ,,0,0.762296688,329.1992,0,0,0,0,1,2,1,,,,,,,,,,,,,,,,,,
,5eaf1c50f3540c614eb973a5,627c696e3c2665d40820cccc,2022-05-12_02h57.12.541,classification_task,2021.2.3,Win32,59.36479668,627c6715c52fd12f31907bcf,,,,,,,,,,,,,,,,,,,,,,,,,,,,,,,,,,,,,,,,,,,,,0,0,0,0,1,,1,,,,,,,,,,,,,,,,,,
,5eaf1c50f3540c614eb973a5,627c696e3c2665d40820cccc,2022-05-12_02h57.12.541,classification_task,2021.2.3,Win32,59.36479668,627c6715c52fd12f31907bcf,,,,,,,,,,,,,,,,,,,,,space,14.0379,l,0,4.2279,"[""0.302"",""0.197"",""0.903"",""0.959""]","[1,0,1,1]",0,0,0,0,1,0,1,,,0,FALSE,,,,,,,,,,,,,,,,,,,,,,,,,,,,,,,
,5eaf1c50f3540c614eb973a5,627c696e3c2665d40820cccc,2022-05-12_02h57.12.541,classification_task,2021.2.3,Win32,59.36479668,627c6715c52fd12f31907bcf,,,,,,,,,,,,,,,,,,,,,,,a,0,4.0349,"[""0.104"",""0.163"",""0.720"",""0.675""]","[1,1,0,1]",0,1,1,1,1,1,1,,,0,FALSE,,,,,,,,,,,,,,,,,,,,,,,,,,,,,,,
,5eaf1c50f3540c614eb973a5,627c696e3c2665d40820cccc,2022-05-12_02h57.12.541,classification_task,2021.2.3,Win32,59.36479668,627c6715c52fd12f31907bcf,,,,,,,,,,,,,,,,,,,,,,,a,1,2.142,"[""0.721"",""0.343"",""0.570"",""0.861""]","[0,1,1,1]",0,2,2,2,1,0,0,,,0,FALSE,,,,,,,,,,,,,,,,,,,,,,,,,,,,,,,
,5eaf1c50f3540c614eb973a5,627c696e3c2665d40820cccc,2022-05-12_02h57.12.541,classification_task,2021.2.3,Win32,59.36479668,627c6715c52fd12f31907bcf,,,,,,,,,,,,,,,,,,,,,,,l,1,3.0066,"[""0.035"",""0.398"",""0.620"",""0.730""]","[1,1,1,0]",0,3,3,3,1,1,0,,,0,FALSE,,,,,,,,,,,,,,,,,,,,,,,,,,,,,,,
,5eaf1c50f3540c614eb973a5,627c696e3c2665d40820cccc,2022-05-12_02h57.12.541,classification_task,2021.2.3,Win32,59.36479668,627c6715c52fd12f31907bcf,,,,,,,,,,,,,,,,,,,,,,,l,1,1.2434,"[""0.723"",""0.163"",""0.483"",""0.675""]","[0,1,1,1]",0,4,4,4,1,1,1,,,0,FALSE,,,,,,,,,,,,,,,,,,,,,,,,,,,,,,,
,5eaf1c50f3540c614eb973a5,627c696e3c2665d40820cccc,2022-05-12_02h57.12.541,classification_task,2021.2.3,Win32,59.36479668,627c6715c52fd12f31907bcf,,,,,,,,,,,,,,,,,,,,,,,l,1,1.1007,"[""0.104"",""0.730"",""0.483"",""0.675""]","[1,0,1,1]",0,5,5,5,1,1,1,,,0,FALSE,,,,,,,,,,,,,,,,,,,,,,,,,,,,,,,
,5eaf1c50f3540c614eb973a5,627c696e3c2665d40820cccc,2022-05-12_02h57.12.541,classification_task,2021.2.3,Win32,59.36479668,627c6715c52fd12f31907bcf,,,,,,,,,,,,,,,,,,,,,,,l,1,1.1019,"[""0.229"",""0.398"",""0.620"",""0.810""]","[0,1,1,1]",0,6,6,6,1,1,0,,,0,FALSE,,,,,,,,,,,,,,,,,,,,,,,,,,,,,,,
,5eaf1c50f3540c614eb973a5,627c696e3c2665d40820cccc,2022-05-12_02h57.12.541,classification_task,2021.2.3,Win32,59.36479668,627c6715c52fd12f31907bcf,,,,,,,,,,,,,,,,,,,,,,,a,1,1.034,"[""0.267"",""0.343"",""0.570"",""0.224""]","[1,1,1,0]",0,7,7,7,1,0,0,,,0,FALSE,,,,,,,,,,,,,,,,,,,,,,,,,,,,,,,
,5eaf1c50f3540c614eb973a5,627c696e3c2665d40820cccc,2022-05-12_02h57.12.541,classification_task,2021.2.3,Win32,59.36479668,627c6715c52fd12f31907bcf,,,,,,,,,,,,,,,,,,,,,,,a,1,0.8036,"[""0.267"",""0.765"",""0.570"",""0.861""]","[1,0,1,1]",0,8,8,8,1,0,0,,,0,FALSE,,,,,,,,,,,,,,,,,,,,,,,,,,,,,,,
,5eaf1c50f3540c614eb973a5,627c696e3c2665d40820cccc,2022-05-12_02h57.12.541,classification_task,2021.2.3,Win32,59.36479668,627c6715c52fd12f31907bcf,,,,,,,,,,,,,,,,,,,,,,,l,1,1.1999,"[""0.035"",""0.398"",""0.729"",""0.810""]","[1,1,0,1]",0,9,9,9,1,1,0,,,0,FALSE,,,,,,,,,,,,,,,,,,,,,,,,,,,,,,,
,5eaf1c50f3540c614eb973a5,627c696e3c2665d40820cccc,2022-05-12_02h57.12.541,classification_task,2021.2.3,Win32,59.36479668,627c6715c52fd12f31907bcf,,,,,,,,,,,,,,,,,,,,,,,l,0,0.9853,"[""0.302"",""0.436"",""0.736"",""0.959""]","[1,1,0,1]",0,10,10,10,1,0,1,,,0,FALSE,,,,,,,,,,,,,,,,,,,,,,,,,,,,,,,
,5eaf1c50f3540c614eb973a5,627c696e3c2665d40820cccc,2022-05-12_02h57.12.541,classification_task,2021.2.3,Win32,59.36479668,627c6715c52fd12f31907bcf,,,,,,,,,,,,,,,,,,,,,,,l,1,0.757,"[""0.035"",""0.729"",""0.620"",""0.810""]","[1,0,1,1]",0,11,11,11,1,1,0,,,0,FALSE,,,,,,,,,,,,,,,,,,,,,,,,,,,,,,,
,5eaf1c50f3540c614eb973a5,627c696e3c2665d40820cccc,2022-05-12_02h57.12.541,classification_task,2021.2.3,Win32,59.36479668,627c6715c52fd12f31907bcf,,,,,,,,,,,,,,,,,,,,,,,a,0,1.2232,"[""0.104"",""0.163"",""0.483"",""0.768""]","[1,1,1,0]",0,12,12,12,1,1,1,,,0,FALSE,,,,,,,,,,,,,,,,,,,,,,,,,,,,,,,
,5eaf1c50f3540c614eb973a5,627c696e3c2665d40820cccc,2022-05-12_02h57.12.541,classification_task,2021.2.3,Win32,59.36479668,627c6715c52fd12f31907bcf,,,,,,,,,,,,,,,,,,,,,,,a,1,0.8265,"[""0.267"",""0.343"",""0.730"",""0.861""]","[1,1,0,1]",0,13,13,13,1,0,0,,,0,FALSE,,,,,,,,,,,,,,,,,,,,,,,,,,,,,,,
,5eaf1c50f3540c614eb973a5,627c696e3c2665d40820cccc,2022-05-12_02h57.12.541,classification_task,2021.2.3,Win32,59.36479668,627c6715c52fd12f31907bcf,,,,,,,,,,,,,,,,,,,,,,,a,1,1.348,"[""0.302"",""0.436"",""0.903"",""0.730""]","[1,1,1,0]",0,14,14,14,1,0,1,,,0,FALSE,,,,,,,,,,,,,,,,,,,,,,,,,,,,,,,
,5eaf1c50f3540c614eb973a5,627c696e3c2665d40820cccc,2022-05-12_02h57.12.541,classification_task,2021.2.3,Win32,59.36479668,627c6715c52fd12f31907bcf,,,,,,,,,,,,,,,,,,,,,,,l,0,1.0331,"[""0.215"",""0.436"",""0.903"",""0.959""]","[0,1,1,1]",0,15,15,15,1,0,1,,,0,FALSE,,,,,,,,,,,,,,,,,,,,,,,,,,,,,,,
,5eaf1c50f3540c614eb973a5,627c696e3c2665d40820cccc,2022-05-12_02h57.12.541,classification_task,2021.2.3,Win32,59.36479668,627c6715c52fd12f31907bcf,,,,,,,,,,,,,,,,,,,,,,,l,1,0.7151,"[""0.768"",""0.398"",""0.620"",""0.810""]","[0,1,1,1]",0,16,16,16,1,1,0,,,0,FALSE,,,,,,,,,,,,,,,,,,,,,,,,,,,,,,,
,5eaf1c50f3540c614eb973a5,627c696e3c2665d40820cccc,2022-05-12_02h57.12.541,classification_task,2021.2.3,Win32,59.36479668,627c6715c52fd12f31907bcf,,,,,,,,,,,,,,,,,,,,,,,a,1,0.6233,"[""0.267"",""0.343"",""0.197"",""0.861""]","[1,1,0,1]",0,17,17,17,1,0,0,,,0,FALSE,,,,,,,,,,,,,,,,,,,,,,,,,,,,,,,
,5eaf1c50f3540c614eb973a5,627c696e3c2665d40820cccc,2022-05-12_02h57.12.541,classification_task,2021.2.3,Win32,59.36479668,627c6715c52fd12f31907bcf,,,,,,,,,,,,,,,,,,,,,,,a,1,0.4545,"[""0.716"",""0.343"",""0.570"",""0.861""]","[0,1,1,1]",0,18,18,18,1,0,0,,,0,FALSE,,,,,,,,,,,,,,,,,,,,,,,,,,,,,,,
,5eaf1c50f3540c614eb973a5,627c696e3c2665d40820cccc,2022-05-12_02h57.12.541,classification_task,2021.2.3,Win32,59.36479668,627c6715c52fd12f31907bcf,,,,,,,,,,,,,,,,,,,,,,,l,0,0.9936,"[""0.302"",""0.436"",""0.903"",""0.229""]","[1,1,1,0]",0,19,19,19,1,0,1,,,0,FALSE,,,,,,,,,,,,,,,,,,,,,,,,,,,,,,,
,5eaf1c50f3540c614eb973a5,627c696e3c2665d40820cccc,2022-05-12_02h57.12.541,classification_task,2021.2.3,Win32,59.36479668,627c6715c52fd12f31907bcf,,,,,,,,,,,,,,,,,,,,,,,l,1,1.0119,"[""0.104"",""0.163"",""0.483"",""0.215""]","[1,1,1,0]",0,20,20,20,1,1,1,,,0,FALSE,,,,,,,,,,,,,,,,,,,,,,,,,,,,,,,
,5eaf1c50f3540c614eb973a5,627c696e3c2665d40820cccc,2022-05-12_02h57.12.541,classification_task,2021.2.3,Win32,59.36479668,627c6715c52fd12f31907bcf,,,,,,,,,,,,,,,,,,,,,,,l,1,0.771,"[""0.104"",""0.163"",""0.229"",""0.675""]","[1,1,0,1]",0,21,21,21,1,1,1,,,0,FALSE,,,,,,,,,,,,,,,,,,,,,,,,,,,,,,,
,5eaf1c50f3540c614eb973a5,627c696e3c2665d40820cccc,2022-05-12_02h57.12.541,classification_task,2021.2.3,Win32,59.36479668,627c6715c52fd12f31907bcf,,,,,,,,,,,,,,,,,,,,,,,l,0,0.7389,"[""0.200"",""0.436"",""0.903"",""0.959""]","[0,1,1,1]",0,22,22,22,1,0,1,,,0,FALSE,,,,,,,,,,,,,,,,,,,,,,,,,,,,,,,
,5eaf1c50f3540c614eb973a5,627c696e3c2665d40820cccc,2022-05-12_02h57.12.541,classification_task,2021.2.3,Win32,59.36479668,627c6715c52fd12f31907bcf,,,,,,,,,,,,,,,,,,,,,,,l,1,0.821,"[""0.104"",""0.768"",""0.483"",""0.675""]","[1,0,1,1]",0,23,23,23,1,1,1,,,0,FALSE,,,,,,,,,,,,,,,,,,,,,,,,,,,,,,,
,5eaf1c50f3540c614eb973a5,627c696e3c2665d40820cccc,2022-05-12_02h57.12.541,classification_task,2021.2.3,Win32,59.36479668,627c6715c52fd12f31907bcf,,,,,,,,,,,,,,,,,,,,,,,l,1,0.6812,"[""0.035"",""0.215"",""0.620"",""0.810""]","[1,0,1,1]",0,24,24,24,1,1,0,,,0,FALSE,,,,,,,,,,,,,,,,,,,,,,,,,,,,,,,
,5eaf1c50f3540c614eb973a5,627c696e3c2665d40820cccc,2022-05-12_02h57.12.541,classification_task,2021.2.3,Win32,59.36479668,627c6715c52fd12f31907bcf,,,,,,,,,,,,,,,,,,,,,,,l,1,0.4666,"[""0.035"",""0.398"",""0.215"",""0.810""]","[1,1,0,1]",0,25,25,25,1,1,0,,,0,FALSE,,,,,,,,,,,,,,,,,,,,,,,,,,,,,,,
,5eaf1c50f3540c614eb973a5,627c696e3c2665d40820cccc,2022-05-12_02h57.12.541,classification_task,2021.2.3,Win32,59.36479668,627c6715c52fd12f31907bcf,,,,,,,,,,,,,,,,,,,,,,,l,0,0.8262,"[""0.302"",""0.729"",""0.903"",""0.959""]","[1,0,1,1]",0,26,26,26,1,0,1,,,0,FALSE,,,,,,,,,,,,,,,,,,,,,,,,,,,,,,,
,5eaf1c50f3540c614eb973a5,627c696e3c2665d40820cccc,2022-05-12_02h57.12.541,classification_task,2021.2.3,Win32,59.36479668,627c6715c52fd12f31907bcf,,,,,,,,,,,,,,,,,,,,,,,a,1,0.7125,"[""0.267"",""0.343"",""0.570"",""0.215""]","[1,1,1,0]",0,27,27,27,1,0,0,,,0,FALSE,,,,,,,,,,,,,,,,,,,,,,,,,,,,,,,
,5eaf1c50f3540c614eb973a5,627c696e3c2665d40820cccc,2022-05-12_02h57.12.541,classification_task,2021.2.3,Win32,59.36479668,627c6715c52fd12f31907bcf,,,,,,,,,,,,,,,,,,,,,,,l,1,0.6612,"[""0.035"",""0.398"",""0.620"",""0.736""]","[1,1,1,0]",0,28,28,28,1,1,0,,,0,FALSE,,,,,,,,,,,,,,,,,,,,,,,,,,,,,,,
,5eaf1c50f3540c614eb973a5,627c696e3c2665d40820cccc,2022-05-12_02h57.12.541,classification_task,2021.2.3,Win32,59.36479668,627c6715c52fd12f31907bcf,,,,,,,,,,,,,,,,,,,,,,,a,1,0.6348,"[""0.267"",""0.765"",""0.570"",""0.861""]","[1,0,1,1]",0,29,29,29,1,0,0,,,0,FALSE,,,,,,,,,,,,,,,,,,,,,,,,,,,,,,,
,5eaf1c50f3540c614eb973a5,627c696e3c2665d40820cccc,2022-05-12_02h57.12.541,classification_task,2021.2.3,Win32,59.36479668,627c6715c52fd12f31907bcf,,,,,,,,,,,,,,,,,,,,,,,a,1,0.9804,"[""0.302"",""0.436"",""0.729"",""0.959""]","[1,1,0,1]",0,30,30,30,1,0,1,,,0,FALSE,,,,,,,,,,,,,,,,,,,,,,,,,,,,,,,
,5eaf1c50f3540c614eb973a5,627c696e3c2665d40820cccc,2022-05-12_02h57.12.541,classification_task,2021.2.3,Win32,59.36479668,627c6715c52fd12f31907bcf,,,,,,,,,,,,,,,,,,,,,,,l,1,0.6825,"[""0.716"",""0.163"",""0.483"",""0.675""]","[0,1,1,1]",0,31,31,31,1,1,1,,,0,FALSE,,,,,,,,,,,,,,,,,,,,,,,,,,,,,,,
,5eaf1c50f3540c614eb973a5,627c696e3c2665d40820cccc,2022-05-12_02h57.12.541,classification_task,2021.2.3,Win32,59.36479668,627c6715c52fd12f31907bcf,,,,,,,,,,,,,,,,,,,,,,,a,1,0.8298,"[""0.302"",""0.436"",""0.768"",""0.959""]","[1,1,0,1]",0,32,32,32,1,0,1,,,0,FALSE,,,,,,,,,,,,,,,,,,,,,,,,,,,,,,,
,5eaf1c50f3540c614eb973a5,627c696e3c2665d40820cccc,2022-05-12_02h57.12.541,classification_task,2021.2.3,Win32,59.36479668,627c6715c52fd12f31907bcf,,,,,,,,,,,,,,,,,,,,,,,l,1,0.7061,"[""0.035"",""0.729"",""0.620"",""0.810""]","[1,0,1,1]",0,33,33,33,1,1,0,,,0,FALSE,,,,,,,,,,,,,,,,,,,,,,,,,,,,,,,
,5eaf1c50f3540c614eb973a5,627c696e3c2665d40820cccc,2022-05-12_02h57.12.541,classification_task,2021.2.3,Win32,59.36479668,627c6715c52fd12f31907bcf,,,,,,,,,,,,,,,,,,,,,,,l,1,0.5759,"[""0.229"",""0.398"",""0.620"",""0.810""]","[0,1,1,1]",0,34,34,34,1,1,0,,,0,FALSE,,,,,,,,,,,,,,,,,,,,,,,,,,,,,,,
,5eaf1c50f3540c614eb973a5,627c696e3c2665d40820cccc,2022-05-12_02h57.12.541,classification_task,2021.2.3,Win32,59.36479668,627c6715c52fd12f31907bcf,,,,,,,,,,,,,,,,,,,,,,,a,1,0.6499,"[""0.267"",""0.343"",""0.570"",""0.716""]","[1,1,1,0]",0,35,35,35,1,0,0,,,0,FALSE,,,,,,,,,,,,,,,,,,,,,,,,,,,,,,,
,5eaf1c50f3540c614eb973a5,627c696e3c2665d40820cccc,2022-05-12_02h57.12.541,classification_task,2021.2.3,Win32,59.36479668,627c6715c52fd12f31907bcf,,,,,,,,,,,,,,,,,,,,,,,a,0,1.2362,"[""0.104"",""0.163"",""0.736"",""0.675""]","[1,1,0,1]",0,36,36,36,1,1,1,,,0,FALSE,,,,,,,,,,,,,,,,,,,,,,,,,,,,,,,
,5eaf1c50f3540c614eb973a5,627c696e3c2665d40820cccc,2022-05-12_02h57.12.541,classification_task,2021.2.3,Win32,59.36479668,627c6715c52fd12f31907bcf,,,,,,,,,,,,,,,,,,,,,,,l,0,1.3076,"[""0.302"",""0.436"",""0.903"",""0.716""]","[1,1,1,0]",0,37,37,37,1,0,1,,,0,FALSE,,,,,,,,,,,,,,,,,,,,,,,,,,,,,,,
,5eaf1c50f3540c614eb973a5,627c696e3c2665d40820cccc,2022-05-12_02h57.12.541,classification_task,2021.2.3,Win32,59.36479668,627c6715c52fd12f31907bcf,,,,,,,,,,,,,,,,,,,,,,,l,0,0.5588,"[""0.229"",""0.436"",""0.903"",""0.959""]","[0,1,1,1]",0,38,38,38,1,0,1,,,0,FALSE,,,,,,,,,,,,,,,,,,,,,,,,,,,,,,,
,5eaf1c50f3540c614eb973a5,627c696e3c2665d40820cccc,2022-05-12_02h57.12.541,classification_task,2021.2.3,Win32,59.36479668,627c6715c52fd12f31907bcf,,,,,,,,,,,,,,,,,,,,,,,a,1,0.503,"[""0.729"",""0.343"",""0.570"",""0.861""]","[0,1,1,1]",0,39,39,39,1,0,0,,,0,FALSE,,,,,,,,,,,,,,,,,,,,,,,,,,,,,,,
,5eaf1c50f3540c614eb973a5,627c696e3c2665d40820cccc,2022-05-12_02h57.12.541,classification_task,2021.2.3,Win32,59.36479668,627c6715c52fd12f31907bcf,,,,,,,,,,,,,,,,,,,,,,,l,1,0.6186,"[""0.035"",""0.398"",""0.620"",""0.224""]","[1,1,1,0]",0,40,40,40,1,1,0,,,0,FALSE,,,,,,,,,,,,,,,,,,,,,,,,,,,,,,,
,5eaf1c50f3540c614eb973a5,627c696e3c2665d40820cccc,2022-05-12_02h57.12.541,classification_task,2021.2.3,Win32,59.36479668,627c6715c52fd12f31907bcf,,,,,,,,,,,,,,,,,,,,,,,a,1,0.6497,"[""0.267"",""0.343"",""0.723"",""0.861""]","[1,1,0,1]",0,41,41,41,1,0,0,,,0,FALSE,,,,,,,,,,,,,,,,,,,,,,,,,,,,,,,
,5eaf1c50f3540c614eb973a5,627c696e3c2665d40820cccc,2022-05-12_02h57.12.541,classification_task,2021.2.3,Win32,59.36479668,627c6715c52fd12f31907bcf,,,,,,,,,,,,,,,,,,,,,,,a,1,0.4951,"[""0.267"",""0.730"",""0.570"",""0.861""]","[1,0,1,1]",0,42,42,42,1,0,0,,,0,FALSE,,,,,,,,,,,,,,,,,,,,,,,,,,,,,,,
,5eaf1c50f3540c614eb973a5,627c696e3c2665d40820cccc,2022-05-12_02h57.12.541,classification_task,2021.2.3,Win32,59.36479668,627c6715c52fd12f31907bcf,,,,,,,,,,,,,,,,,,,,,,,a,0,0.9536,"[""0.768"",""0.163"",""0.483"",""0.675""]","[0,1,1,1]",0,43,43,43,1,1,1,,,0,FALSE,,,,,,,,,,,,,,,,,,,,,,,,,,,,,,,
,5eaf1c50f3540c614eb973a5,627c696e3c2665d40820cccc,2022-05-12_02h57.12.541,classification_task,2021.2.3,Win32,59.36479668,627c6715c52fd12f31907bcf,,,,,,,,,,,,,,,,,,,,,,,l,1,0.5984,"[""0.035"",""0.398"",""0.716"",""0.810""]","[1,1,0,1]",0,44,44,44,1,1,0,,,0,FALSE,,,,,,,,,,,,,,,,,,,,,,,,,,,,,,,
,5eaf1c50f3540c614eb973a5,627c696e3c2665d40820cccc,2022-05-12_02h57.12.541,classification_task,2021.2.3,Win32,59.36479668,627c6715c52fd12f31907bcf,,,,,,,,,,,,,,,,,,,,,,,l,1,1.1816,"[""0.104"",""0.720"",""0.483"",""0.675""]","[1,0,1,1]",0,45,45,45,1,1,1,,,0,FALSE,,,,,,,,,,,,,,,,,,,,,,,,,,,,,,,
,5eaf1c50f3540c614eb973a5,627c696e3c2665d40820cccc,2022-05-12_02h57.12.541,classification_task,2021.2.3,Win32,59.36479668,627c6715c52fd12f31907bcf,,,,,,,,,,,,,,,,,,,,,,,l,0,0.8925,"[""0.302"",""0.768"",""0.903"",""0.959""]","[1,0,1,1]",0,46,46,46,1,0,1,,,0,FALSE,,,,,,,,,,,,,,,,,,,,,,,,,,,,,,,
,5eaf1c50f3540c614eb973a5,627c696e3c2665d40820cccc,2022-05-12_02h57.12.541,classification_task,2021.2.3,Win32,59.36479668,627c6715c52fd12f31907bcf,,,,,,,,,,,,,,,,,,,,,,,l,1,0.8236,"[""0.104"",""0.163"",""0.483"",""0.729""]","[1,1,1,0]",0,47,47,47,1,1,1,,,0,FALSE,,,,,,,,,,,,,,,,,,,,,,,,,,,,,,,
,5eaf1c50f3540c614eb973a5,627c696e3c2665d40820cccc,2022-05-12_02h57.12.541,classification_task,2021.2.3,Win32,59.36479668,627c6715c52fd12f31907bcf,,,,,,,,,,,,,,,,,,,,,,,a,1,0.5249,"[""0.721"",""0.343"",""0.570"",""0.861""]","[0,1,1,1]",0,48,48,48,1,0,0,,,0,FALSE,,,,,,,,,,,,,,,,,,,,,,,,,,,,,,,
,5eaf1c50f3540c614eb973a5,627c696e3c2665d40820cccc,2022-05-12_02h57.12.541,classification_task,2021.2.3,Win32,59.36479668,627c6715c52fd12f31907bcf,,,,,,,,,,,,,,,,,,,,,,,l,1,0.9197,"[""0.104"",""0.163"",""0.721"",""0.675""]","[1,1,0,1]",0,49,49,49,1,1,1,,,0,FALSE,,,,,,,,,,,,,,,,,,,,,,,,,,,,,,,
,5eaf1c50f3540c614eb973a5,627c696e3c2665d40820cccc,2022-05-12_02h57.12.541,classification_task,2021.2.3,Win32,59.36479668,627c6715c52fd12f31907bcf,,,,,,,,,,,,,,,,,,,,,,,a,1,0.5875,"[""0.302"",""0.765"",""0.903"",""0.959""]","[1,0,1,1]",0,50,50,50,1,0,1,,,0,FALSE,,,,,,,,,,,,,,,,,,,,,,,,,,,,,,,
,5eaf1c50f3540c614eb973a5,627c696e3c2665d40820cccc,2022-05-12_02h57.12.541,classification_task,2021.2.3,Win32,59.36479668,627c6715c52fd12f31907bcf,,,,,,,,,,,,,,,,,,,,,,,l,1,0.5705,"[""0.035"",""0.398"",""0.620"",""0.200""]","[1,1,1,0]",0,51,51,51,1,1,0,,,0,FALSE,,,,,,,,,,,,,,,,,,,,,,,,,,,,,,,
,5eaf1c50f3540c614eb973a5,627c696e3c2665d40820cccc,2022-05-12_02h57.12.541,classification_task,2021.2.3,Win32,59.36479668,627c6715c52fd12f31907bcf,,,,,,,,,,,,,,,,,,,,,,,l,0,0.6673,"[""0.768"",""0.436"",""0.903"",""0.959""]","[0,1,1,1]",0,52,52,52,1,0,1,,,0,FALSE,,,,,,,,,,,,,,,,,,,,,,,,,,,,,,,
,5eaf1c50f3540c614eb973a5,627c696e3c2665d40820cccc,2022-05-12_02h57.12.541,classification_task,2021.2.3,Win32,59.36479668,627c6715c52fd12f31907bcf,,,,,,,,,,,,,,,,,,,,,,,a,1,0.5274,"[""0.267"",""0.224"",""0.570"",""0.861""]","[1,0,1,1]",0,53,53,53,1,0,0,,,0,FALSE,,,,,,,,,,,,,,,,,,,,,,,,,,,,,,,
,5eaf1c50f3540c614eb973a5,627c696e3c2665d40820cccc,2022-05-12_02h57.12.541,classification_task,2021.2.3,Win32,59.36479668,627c6715c52fd12f31907bcf,,,,,,,,,,,,,,,,,,,,,,,a,1,0.5508,"[""0.267"",""0.343"",""0.570"",""0.723""]","[1,1,1,0]",0,54,54,54,1,0,0,,,0,FALSE,,,,,,,,,,,,,,,,,,,,,,,,,,,,,,,
,5eaf1c50f3540c614eb973a5,627c696e3c2665d40820cccc,2022-05-12_02h57.12.541,classification_task,2021.2.3,Win32,59.36479668,627c6715c52fd12f31907bcf,,,,,,,,,,,,,,,,,,,,,,,a,1,0.6519,"[""0.302"",""0.436"",""0.765"",""0.959""]","[1,1,0,1]",0,55,55,55,1,0,1,,,0,FALSE,,,,,,,,,,,,,,,,,,,,,,,,,,,,,,,
,5eaf1c50f3540c614eb973a5,627c696e3c2665d40820cccc,2022-05-12_02h57.12.541,classification_task,2021.2.3,Win32,59.36479668,627c6715c52fd12f31907bcf,,,,,,,,,,,,,,,,,,,,,,,l,1,0.4885,"[""0.215"",""0.398"",""0.620"",""0.810""]","[0,1,1,1]",0,56,56,56,1,1,0,,,0,FALSE,,,,,,,,,,,,,,,,,,,,,,,,,,,,,,,
,5eaf1c50f3540c614eb973a5,627c696e3c2665d40820cccc,2022-05-12_02h57.12.541,classification_task,2021.2.3,Win32,59.36479668,627c6715c52fd12f31907bcf,,,,,,,,,,,,,,,,,,,,,,,l,0,0.5257,"[""0.267"",""0.343"",""0.729"",""0.861""]","[1,1,0,1]",0,57,57,57,1,0,0,,,0,FALSE,,,,,,,,,,,,,,,,,,,,,,,,,,,,,,,
,5eaf1c50f3540c614eb973a5,627c696e3c2665d40820cccc,2022-05-12_02h57.12.541,classification_task,2021.2.3,Win32,59.36479668,627c6715c52fd12f31907bcf,,,,,,,,,,,,,,,,,,,,,,,l,1,0.5694,"[""0.035"",""0.736"",""0.620"",""0.810""]","[1,0,1,1]",0,58,58,58,1,1,0,,,0,FALSE,,,,,,,,,,,,,,,,,,,,,,,,,,,,,,,
,5eaf1c50f3540c614eb973a5,627c696e3c2665d40820cccc,2022-05-12_02h57.12.541,classification_task,2021.2.3,Win32,59.36479668,627c6715c52fd12f31907bcf,,,,,,,,,,,,,,,,,,,,,,,a,1,1.2322,"[""0.302"",""0.436"",""0.903"",""0.723""]","[1,1,1,0]",0,59,59,59,1,0,1,,,0,FALSE,,,,,,,,,,,,,,,,,,,,,,,,,,,,,,,
,5eaf1c50f3540c614eb973a5,627c696e3c2665d40820cccc,2022-05-12_02h57.12.541,classification_task,2021.2.3,Win32,59.36479668,627c6715c52fd12f31907bcf,,,,,,,,,,,,,,,,,,,,,,,l,1,0.6659,"[""0.104"",""0.229"",""0.483"",""0.675""]","[1,0,1,1]",0,60,60,60,1,1,1,,,0,FALSE,,,,,,,,,,,,,,,,,,,,,,,,,,,,,,,
,5eaf1c50f3540c614eb973a5,627c696e3c2665d40820cccc,2022-05-12_02h57.12.541,classification_task,2021.2.3,Win32,59.36479668,627c6715c52fd12f31907bcf,,,,,,,,,,,,,,,,,,,,,,,l,1,0.7173,"[""0.104"",""0.163"",""0.483"",""0.224""]","[1,1,1,0]",0,61,61,61,1,1,1,,,0,FALSE,,,,,,,,,,,,,,,,,,,,,,,,,,,,,,,
,5eaf1c50f3540c614eb973a5,627c696e3c2665d40820cccc,2022-05-12_02h57.12.541,classification_task,2021.2.3,Win32,59.36479668,627c6715c52fd12f31907bcf,,,,,,,,,,,,,,,,,,,,,,,a,0,1.6387,"[""0.768"",""0.163"",""0.483"",""0.675""]","[0,1,1,1]",0,62,62,62,1,1,1,,,0,FALSE,,,,,,,,,,,,,,,,,,,,,,,,,,,,,,,
,5eaf1c50f3540c614eb973a5,627c696e3c2665d40820cccc,2022-05-12_02h57.12.541,classification_task,2021.2.3,Win32,59.36479668,627c6715c52fd12f31907bcf,,,,,,,,,,,,,,,,,,,,,,,l,1,0.5318,"[""0.035"",""0.398"",""0.768"",""0.810""]","[1,1,0,1]",0,63,63,63,1,1,0,,,0,FALSE,,,,,,,,,,,,,,,,,,,,,,,,,,,,,,,
,5eaf1c50f3540c614eb973a5,627c696e3c2665d40820cccc,2022-05-12_02h57.12.541,classification_task,2021.2.3,Win32,59.36479668,627c6715c52fd12f31907bcf,,,,,,,,,,,,,,,,,,,,,,,,,,,,,,,,,,,,,,,0, ,,0,2.158534196,143.214,0,1,1,1,1,2,2,,,,,,,,,,,,,,,,,,
,5eaf1c50f3540c614eb973a5,627c696e3c2665d40820cccc,2022-05-12_02h57.12.541,classification_task,2021.2.3,Win32,59.36479668,627c6715c52fd12f31907bcf,,,,,,,,,,,,,,,,,,,,,,,,,,,,,,,,,,,,,,,1,  ,,0,6.665686851,146.997,0,1,1,1,1,2,2,,,,,,,,,,,,,,,,,,
,5eaf1c50f3540c614eb973a5,627c696e3c2665d40820cccc,2022-05-12_02h57.12.541,classification_task,2021.2.3,Win32,59.36479668,627c6715c52fd12f31907bcf,,,,,,,,,,,,,,,,,,,,,,,,,,,,,,,,,,,,,,,2,  ,,0,2.28101117,149.247,0,1,1,1,1,2,2,,,,,,,,,,,,,,,,,,
,5eaf1c50f3540c614eb973a5,627c696e3c2665d40820cccc,2022-05-12_02h57.12.541,classification_task,2021.2.3,Win32,59.36479668,627c6715c52fd12f31907bcf,,,,,,,,,,,,,,,,,,,,,,,,,,,,,,,,,,,,,,,,,,,,,0,1,1,1,1,,2,,,,,,,,,,,,,,,,,,
,5eaf1c50f3540c614eb973a5,627c696e3c2665d40820cccc,2022-05-12_02h57.12.541,classification_task,2021.2.3,Win32,59.36479668,627c6715c52fd12f31907bcf,,,,,,,,,,,,,,,,,,,,,space,6.4469,l,1,1.5837,"[""0.035"",""0.716"",""0.620"",""0.810""]","[1,0,1,1]",0,0,0,0,1,1,0,,,0,FALSE,,,,,,,,,,,,,,,,,,,,,,,,,,,,,,,
,5eaf1c50f3540c614eb973a5,627c696e3c2665d40820cccc,2022-05-12_02h57.12.541,classification_task,2021.2.3,Win32,59.36479668,627c6715c52fd12f31907bcf,,,,,,,,,,,,,,,,,,,,,,,a,1,1.3336,"[""0.267"",""0.343"",""0.570"",""0.765""]","[1,1,1,0]",0,1,1,1,1,0,0,,,0,FALSE,,,,,,,,,,,,,,,,,,,,,,,,,,,,,,,
,5eaf1c50f3540c614eb973a5,627c696e3c2665d40820cccc,2022-05-12_02h57.12.541,classification_task,2021.2.3,Win32,59.36479668,627c6715c52fd12f31907bcf,,,,,,,,,,,,,,,,,,,,,,,l,1,2,"[""0.104"",""0.163"",""0.730"",""0.675""]","[1,1,0,1]",0,2,2,2,1,1,1,,,0,FALSE,,,,,,,,,,,,,,,,,,,,,,,,,,,,,,,
,5eaf1c50f3540c614eb973a5,627c696e3c2665d40820cccc,2022-05-12_02h57.12.541,classification_task,2021.2.3,Win32,59.36479668,627c6715c52fd12f31907bcf,,,,,,,,,,,,,,,,,,,,,,,a,0,1.0837,"[""0.104"",""0.163"",""0.483"",""0.723""]","[1,1,1,0]",0,3,3,3,1,1,1,,,0,FALSE,,,,,,,,,,,,,,,,,,,,,,,,,,,,,,,
,5eaf1c50f3540c614eb973a5,627c696e3c2665d40820cccc,2022-05-12_02h57.12.541,classification_task,2021.2.3,Win32,59.36479668,627c6715c52fd12f31907bcf,,,,,,,,,,,,,,,,,,,,,,,l,0,2.0003,"[""0.267"",""0.224"",""0.570"",""0.861""]","[1,0,1,1]",0,4,4,4,1,0,0,,,0,FALSE,,,,,,,,,,,,,,,,,,,,,,,,,,,,,,,
,5eaf1c50f3540c614eb973a5,627c696e3c2665d40820cccc,2022-05-12_02h57.12.541,classification_task,2021.2.3,Win32,59.36479668,627c6715c52fd12f31907bcf,,,,,,,,,,,,,,,,,,,,,,,a,0,0.9836,"[""0.736"",""0.398"",""0.620"",""0.810""]","[0,1,1,1]",0,5,5,5,1,1,0,,,0,FALSE,,,,,,,,,,,,,,,,,,,,,,,,,,,,,,,
,5eaf1c50f3540c614eb973a5,627c696e3c2665d40820cccc,2022-05-12_02h57.12.541,classification_task,2021.2.3,Win32,59.36479668,627c6715c52fd12f31907bcf,,,,,,,,,,,,,,,,,,,,,,,l,0,1.4004,"[""0.267"",""0.343"",""0.729"",""0.861""]","[1,1,0,1]",0,6,6,6,1,0,0,,,0,FALSE,,,,,,,,,,,,,,,,,,,,,,,,,,,,,,,
,5eaf1c50f3540c614eb973a5,627c696e3c2665d40820cccc,2022-05-12_02h57.12.541,classification_task,2021.2.3,Win32,59.36479668,627c6715c52fd12f31907bcf,,,,,,,,,,,,,,,,,,,,,,,l,1,1.6337,"[""0.104"",""0.730"",""0.483"",""0.675""]","[1,0,1,1]",0,7,7,7,1,1,1,,,0,FALSE,,,,,,,,,,,,,,,,,,,,,,,,,,,,,,,
,5eaf1c50f3540c614eb973a5,627c696e3c2665d40820cccc,2022-05-12_02h57.12.541,classification_task,2021.2.3,Win32,59.36479668,627c6715c52fd12f31907bcf,,,,,,,,,,,,,,,,,,,,,,,a,0,1.5836,"[""0.035"",""0.398"",""0.620"",""0.224""]","[1,1,1,0]",0,8,8,8,1,1,0,,,0,FALSE,,,,,,,,,,,,,,,,,,,,,,,,,,,,,,,
,5eaf1c50f3540c614eb973a5,627c696e3c2665d40820cccc,2022-05-12_02h57.12.541,classification_task,2021.2.3,Win32,59.36479668,627c6715c52fd12f31907bcf,,,,,,,,,,,,,,,,,,,,,,,l,1,0.9336,"[""0.035"",""0.398"",""0.729"",""0.810""]","[1,1,0,1]",0,9,9,9,1,1,0,,,0,FALSE,,,,,,,,,,,,,,,,,,,,,,,,,,,,,,,
,5eaf1c50f3540c614eb973a5,627c696e3c2665d40820cccc,2022-05-12_02h57.12.541,classification_task,2021.2.3,Win32,59.36479668,627c6715c52fd12f31907bcf,,,,,,,,,,,,,,,,,,,,,,,a,1,1.2338,"[""0.302"",""0.436"",""0.730"",""0.959""]","[1,1,0,1]",0,10,10,10,1,0,1,,,0,FALSE,,,,,,,,,,,,,,,,,,,,,,,,,,,,,,,
,5eaf1c50f3540c614eb973a5,627c696e3c2665d40820cccc,2022-05-12_02h57.12.541,classification_task,2021.2.3,Win32,59.36479668,627c6715c52fd12f31907bcf,,,,,,,,,,,,,,,,,,,,,,,l,1,0.8666,"[""0.197"",""0.163"",""0.483"",""0.675""]","[0,1,1,1]",0,11,11,11,1,1,1,,,0,FALSE,,,,,,,,,,,,,,,,,,,,,,,,,,,,,,,
,5eaf1c50f3540c614eb973a5,627c696e3c2665d40820cccc,2022-05-12_02h57.12.541,classification_task,2021.2.3,Win32,59.36479668,627c6715c52fd12f31907bcf,,,,,,,,,,,,,,,,,,,,,,,a,1,1.0169,"[""0.302"",""0.436"",""0.903"",""0.229""]","[1,1,1,0]",0,12,12,12,1,0,1,,,0,FALSE,,,,,,,,,,,,,,,,,,,,,,,,,,,,,,,
,5eaf1c50f3540c614eb973a5,627c696e3c2665d40820cccc,2022-05-12_02h57.12.541,classification_task,2021.2.3,Win32,59.36479668,627c6715c52fd12f31907bcf,,,,,,,,,,,,,,,,,,,,,,,a,1,0.6335,"[""0.197"",""0.436"",""0.903"",""0.959""]","[0,1,1,1]",0,13,13,13,1,0,1,,,0,FALSE,,,,,,,,,,,,,,,,,,,,,,,,,,,,,,,
,5eaf1c50f3540c614eb973a5,627c696e3c2665d40820cccc,2022-05-12_02h57.12.541,classification_task,2021.2.3,Win32,59.36479668,627c6715c52fd12f31907bcf,,,,,,,,,,,,,,,,,,,,,,,l,0,0.9669,"[""0.765"",""0.343"",""0.570"",""0.861""]","[0,1,1,1]",0,14,14,14,1,0,0,,,0,FALSE,,,,,,,,,,,,,,,,,,,,,,,,,,,,,,,
,5eaf1c50f3540c614eb973a5,627c696e3c2665d40820cccc,2022-05-12_02h57.12.541,classification_task,2021.2.3,Win32,59.36479668,627c6715c52fd12f31907bcf,,,,,,,,,,,,,,,,,,,,,,,l,0,0.7669,"[""0.302"",""0.730"",""0.903"",""0.959""]","[1,0,1,1]",0,15,15,15,1,0,1,,,0,FALSE,,,,,,,,,,,,,,,,,,,,,,,,,,,,,,,
,5eaf1c50f3540c614eb973a5,627c696e3c2665d40820cccc,2022-05-12_02h57.12.541,classification_task,2021.2.3,Win32,59.36479668,627c6715c52fd12f31907bcf,,,,,,,,,,,,,,,,,,,,,,,a,1,0.617,"[""0.215"",""0.436"",""0.903"",""0.959""]","[0,1,1,1]",0,16,16,16,1,0,1,,,0,FALSE,,,,,,,,,,,,,,,,,,,,,,,,,,,,,,,
,5eaf1c50f3540c614eb973a5,627c696e3c2665d40820cccc,2022-05-12_02h57.12.541,classification_task,2021.2.3,Win32,59.36479668,627c6715c52fd12f31907bcf,,,,,,,,,,,,,,,,,,,,,,,l,1,1.1671,"[""0.720"",""0.398"",""0.620"",""0.810""]","[0,1,1,1]",0,17,17,17,1,1,0,,,0,FALSE,,,,,,,,,,,,,,,,,,,,,,,,,,,,,,,
,5eaf1c50f3540c614eb973a5,627c696e3c2665d40820cccc,2022-05-12_02h57.12.541,classification_task,2021.2.3,Win32,59.36479668,627c6715c52fd12f31907bcf,,,,,,,,,,,,,,,,,,,,,,,l,1,1.3836,"[""0.104"",""0.229"",""0.483"",""0.675""]","[1,0,1,1]",0,18,18,18,1,1,1,,,0,FALSE,,,,,,,,,,,,,,,,,,,,,,,,,,,,,,,
,5eaf1c50f3540c614eb973a5,627c696e3c2665d40820cccc,2022-05-12_02h57.12.541,classification_task,2021.2.3,Win32,59.36479668,627c6715c52fd12f31907bcf,,,,,,,,,,,,,,,,,,,,,,,l,1,1.2672,"[""0.104"",""0.163"",""0.483"",""0.224""]","[1,1,1,0]",0,19,19,19,1,1,1,,,0,FALSE,,,,,,,,,,,,,,,,,,,,,,,,,,,,,,,
,5eaf1c50f3540c614eb973a5,627c696e3c2665d40820cccc,2022-05-12_02h57.12.541,classification_task,2021.2.3,Win32,59.36479668,627c6715c52fd12f31907bcf,,,,,,,,,,,,,,,,,,,,,,,a,0,1.2167,"[""0.035"",""0.398"",""0.215"",""0.810""]","[1,1,0,1]",0,20,20,20,1,1,0,,,0,FALSE,,,,,,,,,,,,,,,,,,,,,,,,,,,,,,,
,5eaf1c50f3540c614eb973a5,627c696e3c2665d40820cccc,2022-05-12_02h57.12.541,classification_task,2021.2.3,Win32,59.36479668,627c6715c52fd12f31907bcf,,,,,,,,,,,,,,,,,,,,,,,a,1,1.152,"[""0.302"",""0.729"",""0.903"",""0.959""]","[1,0,1,1]",0,21,21,21,1,0,1,,,0,FALSE,,,,,,,,,,,,,,,,,,,,,,,,,,,,,,,
,5eaf1c50f3540c614eb973a5,627c696e3c2665d40820cccc,2022-05-12_02h57.12.541,classification_task,2021.2.3,Win32,59.36479668,627c6715c52fd12f31907bcf,,,,,,,,,,,,,,,,,,,,,,,l,1,0.9837,"[""0.229"",""0.163"",""0.483"",""0.675""]","[0,1,1,1]",0,22,22,22,1,1,1,,,0,FALSE,,,,,,,,,,,,,,,,,,,,,,,,,,,,,,,
,5eaf1c50f3540c614eb973a5,627c696e3c2665d40820cccc,2022-05-12_02h57.12.541,classification_task,2021.2.3,Win32,59.36479668,627c6715c52fd12f31907bcf,,,,,,,,,,,,,,,,,,,,,,,a,1,1.4333,"[""0.267"",""0.765"",""0.570"",""0.861""]","[1,0,1,1]",0,23,23,23,1,0,0,,,0,FALSE,,,,,,,,,,,,,,,,,,,,,,,,,,,,,,,
,5eaf1c50f3540c614eb973a5,627c696e3c2665d40820cccc,2022-05-12_02h57.12.541,classification_task,2021.2.3,Win32,59.36479668,627c6715c52fd12f31907bcf,,,,,,,,,,,,,,,,,,,,,,,l,1,0.9336,"[""0.035"",""0.229"",""0.620"",""0.810""]","[1,0,1,1]",0,24,24,24,1,1,0,,,0,FALSE,,,,,,,,,,,,,,,,,,,,,,,,,,,,,,,
,5eaf1c50f3540c614eb973a5,627c696e3c2665d40820cccc,2022-05-12_02h57.12.541,classification_task,2021.2.3,Win32,59.36479668,627c6715c52fd12f31907bcf,,,,,,,,,,,,,,,,,,,,,,,a,1,1.3002,"[""0.302"",""0.436"",""0.729"",""0.959""]","[1,1,0,1]",0,25,25,25,1,0,1,,,0,FALSE,,,,,,,,,,,,,,,,,,,,,,,,,,,,,,,
,5eaf1c50f3540c614eb973a5,627c696e3c2665d40820cccc,2022-05-12_02h57.12.541,classification_task,2021.2.3,Win32,59.36479668,627c6715c52fd12f31907bcf,,,,,,,,,,,,,,,,,,,,,,,l,1,0.767,"[""0.035"",""0.398"",""0.620"",""0.720""]","[1,1,1,0]",0,26,26,26,1,1,0,,,0,FALSE,,,,,,,,,,,,,,,,,,,,,,,,,,,,,,,
,5eaf1c50f3540c614eb973a5,627c696e3c2665d40820cccc,2022-05-12_02h57.12.541,classification_task,2021.2.3,Win32,59.36479668,627c6715c52fd12f31907bcf,,,,,,,,,,,,,,,,,,,,,,,l,1,1.6837,"[""0.104"",""0.163"",""0.723"",""0.675""]","[1,1,0,1]",0,27,27,27,1,1,1,,,0,FALSE,,,,,,,,,,,,,,,,,,,,,,,,,,,,,,,
,5eaf1c50f3540c614eb973a5,627c696e3c2665d40820cccc,2022-05-12_02h57.12.541,classification_task,2021.2.3,Win32,59.36479668,627c6715c52fd12f31907bcf,,,,,,,,,,,,,,,,,,,,,,,a,1,0.8169,"[""0.267"",""0.343"",""0.570"",""0.729""]","[1,1,1,0]",0,28,28,28,1,0,0,,,0,FALSE,,,,,,,,,,,,,,,,,,,,,,,,,,,,,,,
,5eaf1c50f3540c614eb973a5,627c696e3c2665d40820cccc,2022-05-12_02h57.12.541,classification_task,2021.2.3,Win32,59.36479668,627c6715c52fd12f31907bcf,,,,,,,,,,,,,,,,,,,,,,,a,1,0.9836,"[""0.302"",""0.436"",""0.903"",""0.229""]","[1,1,1,0]",0,29,29,29,1,0,1,,,0,FALSE,,,,,,,,,,,,,,,,,,,,,,,,,,,,,,,
,5eaf1c50f3540c614eb973a5,627c696e3c2665d40820cccc,2022-05-12_02h57.12.541,classification_task,2021.2.3,Win32,59.36479668,627c6715c52fd12f31907bcf,,,,,,,,,,,,,,,,,,,,,,,l,0,0.8668,"[""0.267"",""0.343"",""0.730"",""0.861""]","[1,1,0,1]",0,30,30,30,1,0,0,,,0,FALSE,,,,,,,,,,,,,,,,,,,,,,,,,,,,,,,
,5eaf1c50f3540c614eb973a5,627c696e3c2665d40820cccc,2022-05-12_02h57.12.541,classification_task,2021.2.3,Win32,59.36479668,627c6715c52fd12f31907bcf,,,,,,,,,,,,,,,,,,,,,,,a,1,1.1003,"[""0.720"",""0.343"",""0.570"",""0.861""]","[0,1,1,1]",0,31,31,31,1,0,0,,,0,FALSE,,,,,,,,,,,,,,,,,,,,,,,,,,,,,,,
,5eaf1c50f3540c614eb973a5,627c696e3c2665d40820cccc,2022-05-12_02h57.12.541,classification_task,2021.2.3,Win32,59.36479668,627c6715c52fd12f31907bcf,,,,,,,,,,,,,,,,,,,,,,,l,0,2.767,"[""0.267"",""0.343"",""0.229"",""0.861""]","[1,1,0,1]",0,32,32,32,1,0,0,,,0,FALSE,,,,,,,,,,,,,,,,,,,,,,,,,,,,,,,
,5eaf1c50f3540c614eb973a5,627c696e3c2665d40820cccc,2022-05-12_02h57.12.541,classification_task,2021.2.3,Win32,59.36479668,627c6715c52fd12f31907bcf,,,,,,,,,,,,,,,,,,,,,,,a,1,2.1499,"[""0.200"",""0.343"",""0.570"",""0.861""]","[0,1,1,1]",0,33,33,33,1,0,0,,,0,FALSE,,,,,,,,,,,,,,,,,,,,,,,,,,,,,,,
,5eaf1c50f3540c614eb973a5,627c696e3c2665d40820cccc,2022-05-12_02h57.12.541,classification_task,2021.2.3,Win32,59.36479668,627c6715c52fd12f31907bcf,,,,,,,,,,,,,,,,,,,,,,,l,0,0.817,"[""0.267"",""0.768"",""0.570"",""0.861""]","[1,0,1,1]",0,34,34,34,1,0,0,,,0,FALSE,,,,,,,,,,,,,,,,,,,,,,,,,,,,,,,
,5eaf1c50f3540c614eb973a5,627c696e3c2665d40820cccc,2022-05-12_02h57.12.541,classification_task,2021.2.3,Win32,59.36479668,627c6715c52fd12f31907bcf,,,,,,,,,,,,,,,,,,,,,,,a,0,0.8502,"[""0.035"",""0.398"",""0.620"",""0.215""]","[1,1,1,0]",0,35,35,35,1,1,0,,,0,FALSE,,,,,,,,,,,,,,,,,,,,,,,,,,,,,,,
,5eaf1c50f3540c614eb973a5,627c696e3c2665d40820cccc,2022-05-12_02h57.12.541,classification_task,2021.2.3,Win32,59.36479668,627c6715c52fd12f31907bcf,,,,,,,,,,,,,,,,,,,,,,,a,1,1.0003,"[""0.302"",""0.716"",""0.903"",""0.959""]","[1,0,1,1]",0,36,36,36,1,0,1,,,0,FALSE,,,,,,,,,,,,,,,,,,,,,,,,,,,,,,,
,5eaf1c50f3540c614eb973a5,627c696e3c2665d40820cccc,2022-05-12_02h57.12.541,classification_task,2021.2.3,Win32,59.36479668,627c6715c52fd12f31907bcf,,,,,,,,,,,,,,,,,,,,,,,l,1,0.7505,"[""0.229"",""0.398"",""0.620"",""0.810""]","[0,1,1,1]",0,37,37,37,1,1,0,,,0,FALSE,,,,,,,,,,,,,,,,,,,,,,,,,,,,,,,
,5eaf1c50f3540c614eb973a5,627c696e3c2665d40820cccc,2022-05-12_02h57.12.541,classification_task,2021.2.3,Win32,59.36479668,627c6715c52fd12f31907bcf,,,,,,,,,,,,,,,,,,,,,,,l,1,1.9836,"[""0.104"",""0.163"",""0.730"",""0.675""]","[1,1,0,1]",0,38,38,38,1,1,1,,,0,FALSE,,,,,,,,,,,,,,,,,,,,,,,,,,,,,,,
,5eaf1c50f3540c614eb973a5,627c696e3c2665d40820cccc,2022-05-12_02h57.12.541,classification_task,2021.2.3,Win32,59.36479668,627c6715c52fd12f31907bcf,,,,,,,,,,,,,,,,,,,,,,,l,1,1.0336,"[""0.200"",""0.163"",""0.483"",""0.675""]","[0,1,1,1]",0,39,39,39,1,1,1,,,0,FALSE,,,,,,,,,,,,,,,,,,,,,,,,,,,,,,,
,5eaf1c50f3540c614eb973a5,627c696e3c2665d40820cccc,2022-05-12_02h57.12.541,classification_task,2021.2.3,Win32,59.36479668,627c6715c52fd12f31907bcf,,,,,,,,,,,,,,,,,,,,,,,a,1,0.6503,"[""0.302"",""0.436"",""0.224"",""0.959""]","[1,1,0,1]",0,40,40,40,1,0,1,,,0,FALSE,,,,,,,,,,,,,,,,,,,,,,,,,,,,,,,
,5eaf1c50f3540c614eb973a5,627c696e3c2665d40820cccc,2022-05-12_02h57.12.541,classification_task,2021.2.3,Win32,59.36479668,627c6715c52fd12f31907bcf,,,,,,,,,,,,,,,,,,,,,,,l,1,1.3837,"[""0.035"",""0.716"",""0.620"",""0.810""]","[1,0,1,1]",0,41,41,41,1,1,0,,,0,FALSE,,,,,,,,,,,,,,,,,,,,,,,,,,,,,,,
,5eaf1c50f3540c614eb973a5,627c696e3c2665d40820cccc,2022-05-12_02h57.12.541,classification_task,2021.2.3,Win32,59.36479668,627c6715c52fd12f31907bcf,,,,,,,,,,,,,,,,,,,,,,,a,1,1.2504,"[""0.716"",""0.436"",""0.903"",""0.959""]","[0,1,1,1]",0,42,42,42,1,0,1,,,0,FALSE,,,,,,,,,,,,,,,,,,,,,,,,,,,,,,,
,5eaf1c50f3540c614eb973a5,627c696e3c2665d40820cccc,2022-05-12_02h57.12.541,classification_task,2021.2.3,Win32,59.36479668,627c6715c52fd12f31907bcf,,,,,,,,,,,,,,,,,,,,,,,l,1,1.0502,"[""0.104"",""0.721"",""0.483"",""0.675""]","[1,0,1,1]",0,43,43,43,1,1,1,,,0,FALSE,,,,,,,,,,,,,,,,,,,,,,,,,,,,,,,
,5eaf1c50f3540c614eb973a5,627c696e3c2665d40820cccc,2022-05-12_02h57.12.541,classification_task,2021.2.3,Win32,59.36479668,627c6715c52fd12f31907bcf,,,,,,,,,,,,,,,,,,,,,,,a,1,1.7836,"[""0.267"",""0.343"",""0.570"",""0.721""]","[1,1,1,0]",0,44,44,44,1,0,0,,,0,FALSE,,,,,,,,,,,,,,,,,,,,,,,,,,,,,,,
,5eaf1c50f3540c614eb973a5,627c696e3c2665d40820cccc,2022-05-12_02h57.12.541,classification_task,2021.2.3,Win32,59.36479668,627c6715c52fd12f31907bcf,,,,,,,,,,,,,,,,,,,,,,,l,1,1.4336,"[""0.104"",""0.163"",""0.483"",""0.200""]","[1,1,1,0]",0,45,45,45,1,1,1,,,0,FALSE,,,,,,,,,,,,,,,,,,,,,,,,,,,,,,,
,5eaf1c50f3540c614eb973a5,627c696e3c2665d40820cccc,2022-05-12_02h57.12.541,classification_task,2021.2.3,Win32,59.36479668,627c6715c52fd12f31907bcf,,,,,,,,,,,,,,,,,,,,,,,a,1,1.7336,"[""0.302"",""0.436"",""0.903"",""0.197""]","[1,1,1,0]",0,46,46,46,1,0,1,,,0,FALSE,,,,,,,,,,,,,,,,,,,,,,,,,,,,,,,
,5eaf1c50f3540c614eb973a5,627c696e3c2665d40820cccc,2022-05-12_02h57.12.541,classification_task,2021.2.3,Win32,59.36479668,627c6715c52fd12f31907bcf,,,,,,,,,,,,,,,,,,,,,,,l,1,1.5337,"[""0.035"",""0.398"",""0.723"",""0.810""]","[1,1,0,1]",0,47,47,47,1,1,0,,,0,FALSE,,,,,,,,,,,,,,,,,,,,,,,,,,,,,,,
,5eaf1c50f3540c614eb973a5,627c696e3c2665d40820cccc,2022-05-12_02h57.12.541,classification_task,2021.2.3,Win32,59.36479668,627c6715c52fd12f31907bcf,,,,,,,,,,,,,,,,,,,,,,,a,1,1.1004,"[""0.267"",""0.343"",""0.570"",""0.200""]","[1,1,1,0]",0,48,48,48,1,0,0,,,0,FALSE,,,,,,,,,,,,,,,,,,,,,,,,,,,,,,,
,5eaf1c50f3540c614eb973a5,627c696e3c2665d40820cccc,2022-05-12_02h57.12.541,classification_task,2021.2.3,Win32,59.36479668,627c6715c52fd12f31907bcf,,,,,,,,,,,,,,,,,,,,,,,l,1,1.2502,"[""0.035"",""0.398"",""0.720"",""0.810""]","[1,1,0,1]",0,49,49,49,1,1,0,,,0,FALSE,,,,,,,,,,,,,,,,,,,,,,,,,,,,,,,
,5eaf1c50f3540c614eb973a5,627c696e3c2665d40820cccc,2022-05-12_02h57.12.541,classification_task,2021.2.3,Win32,59.36479668,627c6715c52fd12f31907bcf,,,,,,,,,,,,,,,,,,,,,,,l,1,1.3504,"[""0.104"",""0.163"",""0.483"",""0.716""]","[1,1,1,0]",0,50,50,50,1,1,1,,,0,FALSE,,,,,,,,,,,,,,,,,,,,,,,,,,,,,,,
,5eaf1c50f3540c614eb973a5,627c696e3c2665d40820cccc,2022-05-12_02h57.12.541,classification_task,2021.2.3,Win32,59.36479668,627c6715c52fd12f31907bcf,,,,,,,,,,,,,,,,,,,,,,,a,1,1.6004,"[""0.267"",""0.343"",""0.229"",""0.861""]","[1,1,0,1]",0,51,51,51,1,0,0,,,0,FALSE,,,,,,,,,,,,,,,,,,,,,,,,,,,,,,,
,5eaf1c50f3540c614eb973a5,627c696e3c2665d40820cccc,2022-05-12_02h57.12.541,classification_task,2021.2.3,Win32,59.36479668,627c6715c52fd12f31907bcf,,,,,,,,,,,,,,,,,,,,,,,l,0,1.6669,"[""0.729"",""0.343"",""0.570"",""0.861""]","[0,1,1,1]",0,52,52,52,1,0,0,,,0,FALSE,,,,,,,,,,,,,,,,,,,,,,,,,,,,,,,
,5eaf1c50f3540c614eb973a5,627c696e3c2665d40820cccc,2022-05-12_02h57.12.541,classification_task,2021.2.3,Win32,59.36479668,627c6715c52fd12f31907bcf,,,,,,,,,,,,,,,,,,,,,,,a,0,0.667,"[""0.035"",""0.398"",""0.620"",""0.730""]","[1,1,1,0]",0,53,53,53,1,1,0,,,0,FALSE,,,,,,,,,,,,,,,,,,,,,,,,,,,,,,,
,5eaf1c50f3540c614eb973a5,627c696e3c2665d40820cccc,2022-05-12_02h57.12.541,classification_task,2021.2.3,Win32,59.36479668,627c6715c52fd12f31907bcf,,,,,,,,,,,,,,,,,,,,,,,a,0,0.8502,"[""0.215"",""0.398"",""0.620"",""0.810""]","[0,1,1,1]",0,54,54,54,1,1,0,,,0,FALSE,,,,,,,,,,,,,,,,,,,,,,,,,,,,,,,
,5eaf1c50f3540c614eb973a5,627c696e3c2665d40820cccc,2022-05-12_02h57.12.541,classification_task,2021.2.3,Win32,59.36479668,627c6715c52fd12f31907bcf,,,,,,,,,,,,,,,,,,,,,,,l,1,1.0334,"[""0.035"",""0.730"",""0.620"",""0.810""]","[1,0,1,1]",0,55,55,55,1,1,0,,,0,FALSE,,,,,,,,,,,,,,,,,,,,,,,,,,,,,,,
,5eaf1c50f3540c614eb973a5,627c696e3c2665d40820cccc,2022-05-12_02h57.12.541,classification_task,2021.2.3,Win32,59.36479668,627c6715c52fd12f31907bcf,,,,,,,,,,,,,,,,,,,,,,,a,1,1.3502,"[""0.302"",""0.436"",""0.903"",""0.720""]","[1,1,1,0]",0,56,56,56,1,0,1,,,0,FALSE,,,,,,,,,,,,,,,,,,,,,,,,,,,,,,,
,5eaf1c50f3540c614eb973a5,627c696e3c2665d40820cccc,2022-05-12_02h57.12.541,classification_task,2021.2.3,Win32,59.36479668,627c6715c52fd12f31907bcf,,,,,,,,,,,,,,,,,,,,,,,l,0,1.8502,"[""0.267"",""0.215"",""0.570"",""0.861""]","[1,0,1,1]",0,57,57,57,1,0,0,,,0,FALSE,,,,,,,,,,,,,,,,,,,,,,,,,,,,,,,
,5eaf1c50f3540c614eb973a5,627c696e3c2665d40820cccc,2022-05-12_02h57.12.541,classification_task,2021.2.3,Win32,59.36479668,627c6715c52fd12f31907bcf,,,,,,,,,,,,,,,,,,,,,,,l,1,2.1502,"[""0.104"",""0.163"",""0.721"",""0.675""]","[1,1,0,1]",0,58,58,58,1,1,1,,,0,FALSE,,,,,,,,,,,,,,,,,,,,,,,,,,,,,,,
,5eaf1c50f3540c614eb973a5,627c696e3c2665d40820cccc,2022-05-12_02h57.12.541,classification_task,2021.2.3,Win32,59.36479668,627c6715c52fd12f31907bcf,,,,,,,,,,,,,,,,,,,,,,,l,1,0.8836,"[""0.730"",""0.163"",""0.483"",""0.675""]","[0,1,1,1]",0,59,59,59,1,1,1,,,0,FALSE,,,,,,,,,,,,,,,,,,,,,,,,,,,,,,,
,5eaf1c50f3540c614eb973a5,627c696e3c2665d40820cccc,2022-05-12_02h57.12.541,classification_task,2021.2.3,Win32,59.36479668,627c6715c52fd12f31907bcf,,,,,,,,,,,,,,,,,,,,,,,a,1,0.6337,"[""0.200"",""0.436"",""0.903"",""0.959""]","[0,1,1,1]",0,60,60,60,1,0,1,,,0,FALSE,,,,,,,,,,,,,,,,,,,,,,,,,,,,,,,
,5eaf1c50f3540c614eb973a5,627c696e3c2665d40820cccc,2022-05-12_02h57.12.541,classification_task,2021.2.3,Win32,59.36479668,627c6715c52fd12f31907bcf,,,,,,,,,,,,,,,,,,,,,,,a,1,0.6836,"[""0.302"",""0.730"",""0.903"",""0.959""]","[1,0,1,1]",0,61,61,61,1,0,1,,,0,FALSE,,,,,,,,,,,,,,,,,,,,,,,,,,,,,,,
,5eaf1c50f3540c614eb973a5,627c696e3c2665d40820cccc,2022-05-12_02h57.12.541,classification_task,2021.2.3,Win32,59.36479668,627c6715c52fd12f31907bcf,,,,,,,,,,,,,,,,,,,,,,,a,1,0.6504,"[""0.302"",""0.436"",""0.768"",""0.959""]","[1,1,0,1]",0,62,62,62,1,0,1,,,0,FALSE,,,,,,,,,,,,,,,,,,,,,,,,,,,,,,,
,5eaf1c50f3540c614eb973a5,627c696e3c2665d40820cccc,2022-05-12_02h57.12.541,classification_task,2021.2.3,Win32,59.36479668,627c6715c52fd12f31907bcf,,,,,,,,,,,,,,,,,,,,,,,l,1,0.867,"[""0.104"",""0.736"",""0.483"",""0.675""]","[1,0,1,1]",0,63,63,63,1,1,1,,,0,FALSE,,,,,,,,,,,,,,,,,,,,,,,,,,,,,,,
,5eaf1c50f3540c614eb973a5,627c696e3c2665d40820cccc,2022-05-12_02h57.12.541,classification_task,2021.2.3,Win32,59.36479668,627c6715c52fd12f31907bcf,,,,,,,,,,,,,,,,,,,,,,,,,,,,,,,,,,,,,,,0, ,,0,2.18302959,153.1376,0,2,2,2,1,2,3,,,,,,,,,,,,,,,,,,
,5eaf1c50f3540c614eb973a5,627c696e3c2665d40820cccc,2022-05-12_02h57.12.541,classification_task,2021.2.3,Win32,59.36479668,627c6715c52fd12f31907bcf,,,,,,,,,,,,,,,,,,,,,,,,,,,,,,,,,,,,,,,1,  ,,0,5.9553204,156.0161,0,2,2,2,1,2,3,,,,,,,,,,,,,,,,,,
,5eaf1c50f3540c614eb973a5,627c696e3c2665d40820cccc,2022-05-12_02h57.12.541,classification_task,2021.2.3,Win32,59.36479668,627c6715c52fd12f31907bcf,,,,,,,,,,,,,,,,,,,,,,,,,,,,,,,,,,,,,,,2,  ,,0,6.494219087,157.6551,0,2,2,2,1,2,3,,,,,,,,,,,,,,,,,,
,5eaf1c50f3540c614eb973a5,627c696e3c2665d40820cccc,2022-05-12_02h57.12.541,classification_task,2021.2.3,Win32,59.36479668,627c6715c52fd12f31907bcf,,,,,,,,,,,,,,,,,,,,,,,,,,,,,,,,,,,,,,,,,,,,,0,2,2,2,1,,3,,,,,,,,,,,,,,,,,,
,5eaf1c50f3540c614eb973a5,627c696e3c2665d40820cccc,2022-05-12_02h57.12.541,classification_task,2021.2.3,Win32,59.36479668,627c6715c52fd12f31907bcf,,,,,,,,,,,,,,,,,,,,,,,,,,,,,,,,,,,,,,,,,,,,,,,,,,,,,I believe the aid is a competent performer,,0.7,0,4,653.0726,0,0,0,0,1,0,,,,,
,5eaf1c50f3540c614eb973a5,627c696e3c2665d40820cccc,2022-05-12_02h57.12.541,classification_task,2021.2.3,Win32,59.36479668,627c6715c52fd12f31907bcf,,,,,,,,,,,,,,,,,,,,,,,,,,,,,,,,,,,,,,,,,,,,,,,,,,,,,I trust the aid,,0.7,0,5,654.8882,0,0,0,0,1,0,,,,,
,5eaf1c50f3540c614eb973a5,627c696e3c2665d40820cccc,2022-05-12_02h57.12.541,classification_task,2021.2.3,Win32,59.36479668,627c6715c52fd12f31907bcf,,,,,,,,,,,,,,,,,,,,,,,,,,,,,,,,,,,,,,,,,,,,,,,,,,,,,I have confidence in the advice given by the aid,,0.7,0,5,656.4038,0,0,0,0,1,0,,,,,
,5eaf1c50f3540c614eb973a5,627c696e3c2665d40820cccc,2022-05-12_02h57.12.541,classification_task,2021.2.3,Win32,59.36479668,627c6715c52fd12f31907bcf,,,,,,,,,,,,,,,,,,,,,,,,,,,,,,,,,,,,,,,,,,,,,,,,,,,,,I can depend on the aid,,0.7,0,5,657.3033,0,0,0,0,1,0,,,,,
,5eaf1c50f3540c614eb973a5,627c696e3c2665d40820cccc,2022-05-12_02h57.12.541,classification_task,2021.2.3,Win32,59.36479668,627c6715c52fd12f31907bcf,,,,,,,,,,,,,,,,,,,,,,,,,,,,,,,,,,,,,,,,,,,,,,,,,,,,,I can rely on the aid to behave in consistent ways,,0.7,0,5,660.2905,0,0,0,0,1,0,,,,,
,5eaf1c50f3540c614eb973a5,627c696e3c2665d40820cccc,2022-05-12_02h57.12.541,classification_task,2021.2.3,Win32,59.36479668,627c6715c52fd12f31907bcf,,,,,,,,,,,,,,,,,,,,,,,,,,,,,,,,,,,,,,,,,,,,,,,,,,,,,I can rely on the aid to do its best every time I take its advice,,0.7,0,5,661.2349,0,0,0,0,1,0,,,,,
,5eaf1c50f3540c614eb973a5,627c696e3c2665d40820cccc,2022-05-12_02h57.12.541,classification_task,2021.2.3,Win32,59.36479668,627c6715c52fd12f31907bcf,,,,,,,,,,,,,,,,,,,,,,,,,,,,,,,,,,,,,,,,,,,,,,,,,,,,,"On trials you completed with assistance from the aid, how frequently did you think the aid was correct?",,0.7,0,100,,0,0,0,0,1,0,,,,,
,5eaf1c50f3540c614eb973a5,627c696e3c2665d40820cccc,2022-05-12_02h57.12.541,classification_task,2021.2.3,Win32,59.36479668,627c6715c52fd12f31907bcf,,,,,,,,,,,,,,,,,,,,,,,,,,,,,,,,,,,,,,,,,,,,,,,,,,,,,"On trials you completed without the aid, how frequently did you think you were correct?",,0.7,0,30,,0,0,0,0,1,0,,,,,
,5eaf1c50f3540c614eb973a5,627c696e3c2665d40820cccc,2022-05-12_02h57.12.541,classification_task,2021.2.3,Win32,59.36479668,627c6715c52fd12f31907bcf,,,,,,,,,,,,,,,,,,,,,,,,,,,,,,,,,,,,,,,,,,,,,,,,,,,,,,,,,,,0,0,0,0,1,,,,,,
,5eaf1c50f3540c614eb973a5,627c696e3c2665d40820cccc,2022-05-12_02h57.12.541,classification_task,2021.2.3,Win32,59.36479668,627c6715c52fd12f31907bcf,,,,,,,,,,,,,,,,,,,,,,,,,,,,,,,,,,,,,,,,,,,,,,,,,,,,,,,,,,,,,,,,,space,9.2202,683.2792,,
,5eaf1c50f3540c614eb973a5,627c696e3c2665d40820cccc,2022-05-12_02h57.12.541,classification_task,2021.2.3,Win32,59.36479668,627c6715c52fd12f31907bcf,,,,,,,,,,,,,,,,,,,,,,,,,,,,,,,,,,,,,,,,,,,,,,,,,,,,,,,,,,,,,,,,,,,,"Mozilla/5.0 (Windows NT 10.0; Win64; x64) AppleWebKit/537.36 (KHTML, like Gecko) Chrome/101.0.4951.64 Safari/537.36",
,5eaf1c50f3540c614eb973a5,627c696e3c2665d40820cccc,2022-05-12_02h57.12.541,classification_task,2021.2.3,Win32,59.36479668,627c6715c52fd12f31907bcf,,,,,,,,,,,,,,,,,,,,,,,,,,,,,,,,,,,,,,,,,,,,,,,,,,,,,,,,,,,,,,,,,,,,,HIGHLIGHT
