usingWebGL,participant,session,date,expName,psychopyVersion,OS,frameRate,PROLIFIC_PID,STUDY_ID,SESSION_ID,signatures_friend,signatures_foe,band_ranges_top,band_ranges_bottom,formitemText,formtype,formundefined,formitemWidth,formindex,formresponse,formrt,key_resp_2.keys,key_resp_2.rt,tute_resp.keys,tute_resp.rt,tutorial.thisRepN,tutorial.thisTrialN,tutorial.thisN,tutorial.thisIndex,tutorial.ran,key_resp_4.keys,key_resp_4.rt,key_resp.keys,key_resp.corr,key_resp.rt,lines_presented,is_signal_presented,trials.thisRepN,trials.thisTrialN,trials.thisN,trials.thisIndex,trials.ran,vessel,active_band,lines,is_signal,supported_pos,catch_trial,debrief_formindex,debrief_formitemText,debrief_formtype,debrief_formitemWidth,debrief_formresponse,debrief_formrt,phases.thisRepN,phases.thisTrialN,phases.thisN,phases.thisIndex,phases.ran,phases.order,phase,key_resp_3.keys,trustitemText,trusttype,trustitemWidth,trustindex,trustresponse,trustrt,support_status.thisRepN,support_status.thisTrialN,support_status.thisN,support_status.thisIndex,support_status.ran,support_status.order,key_resp_5.keys,key_resp_5.rt,globalClockTime,userAgent
TRUE,5eb05172d8a54b0e3f068d0a,001,2022-04-28_22h50.28.578,classification_task,2021.2.3,MacIntel,29.72651605,5eb05172d8a54b0e3f068d0a,626b377229c10585ec392f8a,626b3b30ac297ada2e3bae30,,,,,,,,,,,,,,,,,,,,,,,,,,,,,,,,,,,,,,,,,,,,,,,,,,,,,,,,,,,,,,,,,,,,
,5eb05172d8a54b0e3f068d0a,001,2022-04-28_22h50.28.578,classification_task,2021.2.3,MacIntel,29.72651605,5eb05172d8a54b0e3f068d0a,626b377229c10585ec392f8a,626b3b30ac297ada2e3bae30,"[[""0.291"",""0.557"",""0.903"",""0.967""],[""0.218"",""0.328"",""0.796"",""0.851""]]","[[""0.145"",""0.183"",""0.640"",""0.702""],[""0.086"",""0.257"",""0.441"",""0.754""]]","[1,10]","[100,1000]",Video game experience,,,0.7,0,,,,,,,,,,,,,,,,,,,,,,,,,,,,,,,,,,,,,,,,,,,,,,,,,,,,,,,,,,,
,5eb05172d8a54b0e3f068d0a,001,2022-04-28_22h50.28.578,classification_task,2021.2.3,MacIntel,29.72651605,5eb05172d8a54b0e3f068d0a,626b377229c10585ec392f8a,626b3b30ac297ada2e3bae30,,,,,Approximately how many hours did you spend playing video games in the last week?,,,0.7,0,8,,,,,,,,,,,,,,,,,,,,,,,,,,,,,,,,,,,,,,,,,,,,,,,,,,,,,,,,,,
,5eb05172d8a54b0e3f068d0a,001,2022-04-28_22h50.28.578,classification_task,2021.2.3,MacIntel,29.72651605,5eb05172d8a54b0e3f068d0a,626b377229c10585ec392f8a,626b3b30ac297ada2e3bae30,,,,,"Which game did you play the most this year? (Enter ""None"" if you didn't play any)",,,0.7,0,genshin impact,,,,,,,,,,,,,,,,,,,,,,,,,,,,,,,,,,,,,,,,,,,,,,,,,,,,,,,,,,
,5eb05172d8a54b0e3f068d0a,001,2022-04-28_22h50.28.578,classification_task,2021.2.3,MacIntel,29.72651605,5eb05172d8a54b0e3f068d0a,626b377229c10585ec392f8a,626b3b30ac297ada2e3bae30,,,,,Visual perception,,,0.7,0,,,,,,,,,,,,,,,,,,,,,,,,,,,,,,,,,,,,,,,,,,,,,,,,,,,,,,,,,,,
,5eb05172d8a54b0e3f068d0a,001,2022-04-28_22h50.28.578,classification_task,2021.2.3,MacIntel,29.72651605,5eb05172d8a54b0e3f068d0a,626b377229c10585ec392f8a,626b3b30ac297ada2e3bae30,,,,,Do you have any form of color blindness?,,,0.7,0,No,13.813,,,,,,,,,,,,,,,,,,,,,,,,,,,,,,,,,,,,,,,,,,,,,,,,,,,,,,,,,
,5eb05172d8a54b0e3f068d0a,001,2022-04-28_22h50.28.578,classification_task,2021.2.3,MacIntel,29.72651605,5eb05172d8a54b0e3f068d0a,626b377229c10585ec392f8a,626b3b30ac297ada2e3bae30,,,,,Do you use software to change the colour temperature of your screen (e.g. f.lux)?,,,0.7,0,No,16.412,,,,,,,,,,,,,,,,,,,,,,,,,,,,,,,,,,,,,,,,,,,,,,,,,,,,,,,,,
,5eb05172d8a54b0e3f068d0a,001,2022-04-28_22h50.28.578,classification_task,2021.2.3,MacIntel,29.72651605,5eb05172d8a54b0e3f068d0a,626b377229c10585ec392f8a,626b3b30ac297ada2e3bae30,,,,,,,,,,,,space,24.276,space,5.32,0,0,0,0,1,,,,,,,,,,,,,,,,,,,,,,,,,,,,,,,,,,,,,,,,,,,,,,,,
,5eb05172d8a54b0e3f068d0a,001,2022-04-28_22h50.28.578,classification_task,2021.2.3,MacIntel,29.72651605,5eb05172d8a54b0e3f068d0a,626b377229c10585ec392f8a,626b3b30ac297ada2e3bae30,,,,,,,,,,,,,,space,3.928,1,0,1,0,1,,,,,,,,,,,,,,,,,,,,,,,,,,,,,,,,,,,,,,,,,,,,,,,,
,5eb05172d8a54b0e3f068d0a,001,2022-04-28_22h50.28.578,classification_task,2021.2.3,MacIntel,29.72651605,5eb05172d8a54b0e3f068d0a,626b377229c10585ec392f8a,626b3b30ac297ada2e3bae30,,,,,,,,,,,,,,space,18.335,2,0,2,0,1,,,,,,,,,,,,,,,,,,,,,,,,,,,,,,,,,,,,,,,,,,,,,,,,
,5eb05172d8a54b0e3f068d0a,001,2022-04-28_22h50.28.578,classification_task,2021.2.3,MacIntel,29.72651605,5eb05172d8a54b0e3f068d0a,626b377229c10585ec392f8a,626b3b30ac297ada2e3bae30,,,,,,,,,,,,,,space,4.813,3,0,3,0,1,,,,,,,,,,,,,,,,,,,,,,,,,,,,,,,,,,,,,,,,,,,,,,,,
,5eb05172d8a54b0e3f068d0a,001,2022-04-28_22h50.28.578,classification_task,2021.2.3,MacIntel,29.72651605,5eb05172d8a54b0e3f068d0a,626b377229c10585ec392f8a,626b3b30ac297ada2e3bae30,,,,,,,,,,,,,,space,3.207,4,0,4,0,1,,,,,,,,,,,,,,,,,,,,,,,,,,,,,,,,,,,,,,,,,,,,,,,,
,5eb05172d8a54b0e3f068d0a,001,2022-04-28_22h50.28.578,classification_task,2021.2.3,MacIntel,29.72651605,5eb05172d8a54b0e3f068d0a,626b377229c10585ec392f8a,626b3b30ac297ada2e3bae30,,,,,,,,,,,,,,,,,,,,,space,4.992,l,1,4.273,"[""0.086"",""0.257"",""0.441"",""0.395""]","[1,1,1,0]",0,0,0,0,1,1,1,,,0,FALSE,,,,,,,,,,,,,,,,,,,,,,,,,,,,,,
,5eb05172d8a54b0e3f068d0a,001,2022-04-28_22h50.28.578,classification_task,2021.2.3,MacIntel,29.72651605,5eb05172d8a54b0e3f068d0a,626b377229c10585ec392f8a,626b3b30ac297ada2e3bae30,,,,,,,,,,,,,,,,,,,,,,,a,1,2.994,"[""0.218"",""0.328"",""0.399"",""0.851""]","[1,1,0,1]",0,1,1,1,1,0,1,,,0,FALSE,,,,,,,,,,,,,,,,,,,,,,,,,,,,,,
,5eb05172d8a54b0e3f068d0a,001,2022-04-28_22h50.28.578,classification_task,2021.2.3,MacIntel,29.72651605,5eb05172d8a54b0e3f068d0a,626b377229c10585ec392f8a,626b3b30ac297ada2e3bae30,,,,,,,,,,,,,,,,,,,,,,,a,1,2.017,"[""0.218"",""0.328"",""0.796"",""0.395""]","[1,1,1,0]",0,2,2,2,1,0,1,,,0,FALSE,,,,,,,,,,,,,,,,,,,,,,,,,,,,,,
,5eb05172d8a54b0e3f068d0a,001,2022-04-28_22h50.28.578,classification_task,2021.2.3,MacIntel,29.72651605,5eb05172d8a54b0e3f068d0a,626b377229c10585ec392f8a,626b3b30ac297ada2e3bae30,,,,,,,,,,,,,,,,,,,,,,,a,1,0.799,"[""0.218"",""0.495"",""0.796"",""0.851""]","[1,0,1,1]",0,3,3,3,1,0,1,,,0,FALSE,,,,,,,,,,,,,,,,,,,,,,,,,,,,,,
,5eb05172d8a54b0e3f068d0a,001,2022-04-28_22h50.28.578,classification_task,2021.2.3,MacIntel,29.72651605,5eb05172d8a54b0e3f068d0a,626b377229c10585ec392f8a,626b3b30ac297ada2e3bae30,,,,,,,,,,,,,,,,,,,,,,,a,1,3.423,"[""0.403"",""0.328"",""0.796"",""0.851""]","[0,1,1,1]",0,4,4,4,1,0,1,,,0,FALSE,,,,,,,,,,,,,,,,,,,,,,,,,,,,,,
,5eb05172d8a54b0e3f068d0a,001,2022-04-28_22h50.28.578,classification_task,2021.2.3,MacIntel,29.72651605,5eb05172d8a54b0e3f068d0a,626b377229c10585ec392f8a,626b3b30ac297ada2e3bae30,,,,,,,,,,,,,,,,,,,,,,,l,1,4.548,"[""0.387"",""0.183"",""0.640"",""0.702""]","[0,1,1,1]",0,5,5,5,1,1,0,,,0,FALSE,,,,,,,,,,,,,,,,,,,,,,,,,,,,,,
,5eb05172d8a54b0e3f068d0a,001,2022-04-28_22h50.28.578,classification_task,2021.2.3,MacIntel,29.72651605,5eb05172d8a54b0e3f068d0a,626b377229c10585ec392f8a,626b3b30ac297ada2e3bae30,,,,,,,,,,,,,,,,,,,,,,,a,1,1.92,"[""0.291"",""0.557"",""0.490"",""0.967""]","[1,1,0,1]",0,6,6,6,1,0,0,,,0,FALSE,,,,,,,,,,,,,,,,,,,,,,,,,,,,,,
,5eb05172d8a54b0e3f068d0a,001,2022-04-28_22h50.28.578,classification_task,2021.2.3,MacIntel,29.72651605,5eb05172d8a54b0e3f068d0a,626b377229c10585ec392f8a,626b3b30ac297ada2e3bae30,,,,,,,,,,,,,,,,,,,,,,,l,1,2.442,"[""0.145"",""0.593"",""0.640"",""0.702""]","[1,0,1,1]",0,7,7,7,1,1,0,,,0,FALSE,,,,,,,,,,,,,,,,,,,,,,,,,,,,,,
,5eb05172d8a54b0e3f068d0a,001,2022-04-28_22h50.28.578,classification_task,2021.2.3,MacIntel,29.72651605,5eb05172d8a54b0e3f068d0a,626b377229c10585ec392f8a,626b3b30ac297ada2e3bae30,,,,,,,,,,,,,,,,,,,,,,,a,1,1.289,"[""0.291"",""0.477"",""0.903"",""0.967""]","[1,0,1,1]",0,8,8,8,1,0,0,,,0,FALSE,,,,,,,,,,,,,,,,,,,,,,,,,,,,,,
,5eb05172d8a54b0e3f068d0a,001,2022-04-28_22h50.28.578,classification_task,2021.2.3,MacIntel,29.72651605,5eb05172d8a54b0e3f068d0a,626b377229c10585ec392f8a,626b3b30ac297ada2e3bae30,,,,,,,,,,,,,,,,,,,,,,,l,1,2.714,"[""0.086"",""0.490"",""0.441"",""0.754""]","[1,0,1,1]",0,9,9,9,1,1,1,,,0,FALSE,,,,,,,,,,,,,,,,,,,,,,,,,,,,,,
,5eb05172d8a54b0e3f068d0a,001,2022-04-28_22h50.28.578,classification_task,2021.2.3,MacIntel,29.72651605,5eb05172d8a54b0e3f068d0a,626b377229c10585ec392f8a,626b3b30ac297ada2e3bae30,,,,,,,,,,,,,,,,,,,,,,,l,0,3.805,"[""0.395"",""0.557"",""0.903"",""0.967""]","[0,1,1,1]",0,10,10,10,1,0,0,,,0,FALSE,,,,,,,,,,,,,,,,,,,,,,,,,,,,,,
,5eb05172d8a54b0e3f068d0a,001,2022-04-28_22h50.28.578,classification_task,2021.2.3,MacIntel,29.72651605,5eb05172d8a54b0e3f068d0a,626b377229c10585ec392f8a,626b3b30ac297ada2e3bae30,,,,,,,,,,,,,,,,,,,,,,,l,1,3.372,"[""0.145"",""0.183"",""0.640"",""0.495""]","[1,1,1,0]",0,11,11,11,1,1,0,,,0,FALSE,,,,,,,,,,,,,,,,,,,,,,,,,,,,,,
,5eb05172d8a54b0e3f068d0a,001,2022-04-28_22h50.28.578,classification_task,2021.2.3,MacIntel,29.72651605,5eb05172d8a54b0e3f068d0a,626b377229c10585ec392f8a,626b3b30ac297ada2e3bae30,,,,,,,,,,,,,,,,,,,,,,,l,1,3.216,"[""0.145"",""0.183"",""0.403"",""0.702""]","[1,1,0,1]",0,12,12,12,1,1,0,,,0,FALSE,,,,,,,,,,,,,,,,,,,,,,,,,,,,,,
,5eb05172d8a54b0e3f068d0a,001,2022-04-28_22h50.28.578,classification_task,2021.2.3,MacIntel,29.72651605,5eb05172d8a54b0e3f068d0a,626b377229c10585ec392f8a,626b3b30ac297ada2e3bae30,,,,,,,,,,,,,,,,,,,,,,,a,1,1.424,"[""0.291"",""0.557"",""0.903"",""0.594""]","[1,1,1,0]",0,13,13,13,1,0,0,,,0,FALSE,,,,,,,,,,,,,,,,,,,,,,,,,,,,,,
,5eb05172d8a54b0e3f068d0a,001,2022-04-28_22h50.28.578,classification_task,2021.2.3,MacIntel,29.72651605,5eb05172d8a54b0e3f068d0a,626b377229c10585ec392f8a,626b3b30ac297ada2e3bae30,,,,,,,,,,,,,,,,,,,,,,,l,1,4.576,"[""0.477"",""0.257"",""0.441"",""0.754""]","[0,1,1,1]",0,14,14,14,1,1,1,,,0,FALSE,,,,,,,,,,,,,,,,,,,,,,,,,,,,,,
,5eb05172d8a54b0e3f068d0a,001,2022-04-28_22h50.28.578,classification_task,2021.2.3,MacIntel,29.72651605,5eb05172d8a54b0e3f068d0a,626b377229c10585ec392f8a,626b3b30ac297ada2e3bae30,,,,,,,,,,,,,,,,,,,,,,,a,0,1.364,"[""0.086"",""0.257"",""0.477"",""0.754""]","[1,1,0,1]",0,15,15,15,1,1,1,,,0,FALSE,,,,,,,,,,,,,,,,,,,,,,,,,,,,,,
,5eb05172d8a54b0e3f068d0a,001,2022-04-28_22h50.28.578,classification_task,2021.2.3,MacIntel,29.72651605,5eb05172d8a54b0e3f068d0a,626b377229c10585ec392f8a,626b3b30ac297ada2e3bae30,,,,,,,,,,,,,,,,,,,,,,,l,1,2.434,"[""0.086"",""0.403"",""0.441"",""0.754""]","[1,0,1,1]",0,16,16,16,1,1,1,,,0,FALSE,,,,,,,,,,,,,,,,,,,,,,,,,,,,,,
,5eb05172d8a54b0e3f068d0a,001,2022-04-28_22h50.28.578,classification_task,2021.2.3,MacIntel,29.72651605,5eb05172d8a54b0e3f068d0a,626b377229c10585ec392f8a,626b3b30ac297ada2e3bae30,,,,,,,,,,,,,,,,,,,,,,,a,1,1.929,"[""0.291"",""0.557"",""0.903"",""0.395""]","[1,1,1,0]",0,17,17,17,1,0,0,,,0,FALSE,,,,,,,,,,,,,,,,,,,,,,,,,,,,,,
,5eb05172d8a54b0e3f068d0a,001,2022-04-28_22h50.28.578,classification_task,2021.2.3,MacIntel,29.72651605,5eb05172d8a54b0e3f068d0a,626b377229c10585ec392f8a,626b3b30ac297ada2e3bae30,,,,,,,,,,,,,,,,,,,,,,,a,1,1.39,"[""0.218"",""0.594"",""0.796"",""0.851""]","[1,0,1,1]",0,18,18,18,1,0,1,,,0,FALSE,,,,,,,,,,,,,,,,,,,,,,,,,,,,,,
,5eb05172d8a54b0e3f068d0a,001,2022-04-28_22h50.28.578,classification_task,2021.2.3,MacIntel,29.72651605,5eb05172d8a54b0e3f068d0a,626b377229c10585ec392f8a,626b3b30ac297ada2e3bae30,,,,,,,,,,,,,,,,,,,,,,,l,1,1.676,"[""0.145"",""0.403"",""0.640"",""0.702""]","[1,0,1,1]",0,19,19,19,1,1,0,,,0,FALSE,,,,,,,,,,,,,,,,,,,,,,,,,,,,,,
,5eb05172d8a54b0e3f068d0a,001,2022-04-28_22h50.28.578,classification_task,2021.2.3,MacIntel,29.72651605,5eb05172d8a54b0e3f068d0a,626b377229c10585ec392f8a,626b3b30ac297ada2e3bae30,,,,,,,,,,,,,,,,,,,,,,,a,1,2.402,"[""0.291"",""0.379"",""0.903"",""0.967""]","[1,0,1,1]",0,20,20,20,1,0,0,,,0,FALSE,,,,,,,,,,,,,,,,,,,,,,,,,,,,,,
,5eb05172d8a54b0e3f068d0a,001,2022-04-28_22h50.28.578,classification_task,2021.2.3,MacIntel,29.72651605,5eb05172d8a54b0e3f068d0a,626b377229c10585ec392f8a,626b3b30ac297ada2e3bae30,,,,,,,,,,,,,,,,,,,,,,,l,1,1.66,"[""0.145"",""0.183"",""0.640"",""0.477""]","[1,1,1,0]",0,21,21,21,1,1,0,,,0,FALSE,,,,,,,,,,,,,,,,,,,,,,,,,,,,,,
,5eb05172d8a54b0e3f068d0a,001,2022-04-28_22h50.28.578,classification_task,2021.2.3,MacIntel,29.72651605,5eb05172d8a54b0e3f068d0a,626b377229c10585ec392f8a,626b3b30ac297ada2e3bae30,,,,,,,,,,,,,,,,,,,,,,,a,0,1.963,"[""0.145"",""0.183"",""0.594"",""0.702""]","[1,1,0,1]",0,22,22,22,1,1,0,,,0,FALSE,,,,,,,,,,,,,,,,,,,,,,,,,,,,,,
,5eb05172d8a54b0e3f068d0a,001,2022-04-28_22h50.28.578,classification_task,2021.2.3,MacIntel,29.72651605,5eb05172d8a54b0e3f068d0a,626b377229c10585ec392f8a,626b3b30ac297ada2e3bae30,,,,,,,,,,,,,,,,,,,,,,,a,1,2.482,"[""0.490"",""0.328"",""0.796"",""0.851""]","[0,1,1,1]",0,23,23,23,1,0,1,,,0,FALSE,,,,,,,,,,,,,,,,,,,,,,,,,,,,,,
,5eb05172d8a54b0e3f068d0a,001,2022-04-28_22h50.28.578,classification_task,2021.2.3,MacIntel,29.72651605,5eb05172d8a54b0e3f068d0a,626b377229c10585ec392f8a,626b3b30ac297ada2e3bae30,,,,,,,,,,,,,,,,,,,,,,,a,1,1.428,"[""0.291"",""0.557"",""0.594"",""0.967""]","[1,1,0,1]",0,24,24,24,1,0,0,,,0,FALSE,,,,,,,,,,,,,,,,,,,,,,,,,,,,,,
,5eb05172d8a54b0e3f068d0a,001,2022-04-28_22h50.28.578,classification_task,2021.2.3,MacIntel,29.72651605,5eb05172d8a54b0e3f068d0a,626b377229c10585ec392f8a,626b3b30ac297ada2e3bae30,,,,,,,,,,,,,,,,,,,,,,,l,1,1.263,"[""0.086"",""0.257"",""0.441"",""0.593""]","[1,1,1,0]",0,25,25,25,1,1,1,,,0,FALSE,,,,,,,,,,,,,,,,,,,,,,,,,,,,,,
,5eb05172d8a54b0e3f068d0a,001,2022-04-28_22h50.28.578,classification_task,2021.2.3,MacIntel,29.72651605,5eb05172d8a54b0e3f068d0a,626b377229c10585ec392f8a,626b3b30ac297ada2e3bae30,,,,,,,,,,,,,,,,,,,,,,,l,1,1.708,"[""0.086"",""0.257"",""0.375"",""0.754""]","[1,1,0,1]",0,26,26,26,1,1,1,,,0,FALSE,,,,,,,,,,,,,,,,,,,,,,,,,,,,,,
,5eb05172d8a54b0e3f068d0a,001,2022-04-28_22h50.28.578,classification_task,2021.2.3,MacIntel,29.72651605,5eb05172d8a54b0e3f068d0a,626b377229c10585ec392f8a,626b3b30ac297ada2e3bae30,,,,,,,,,,,,,,,,,,,,,,,a,1,0.998,"[""0.218"",""0.328"",""0.495"",""0.851""]","[1,1,0,1]",0,27,27,27,1,0,1,,,0,FALSE,,,,,,,,,,,,,,,,,,,,,,,,,,,,,,
,5eb05172d8a54b0e3f068d0a,001,2022-04-28_22h50.28.578,classification_task,2021.2.3,MacIntel,29.72651605,5eb05172d8a54b0e3f068d0a,626b377229c10585ec392f8a,626b3b30ac297ada2e3bae30,,,,,,,,,,,,,,,,,,,,,,,l,1,1.869,"[""0.487"",""0.183"",""0.640"",""0.702""]","[0,1,1,1]",0,28,28,28,1,1,0,,,0,FALSE,,,,,,,,,,,,,,,,,,,,,,,,,,,,,,
,5eb05172d8a54b0e3f068d0a,001,2022-04-28_22h50.28.578,classification_task,2021.2.3,MacIntel,29.72651605,5eb05172d8a54b0e3f068d0a,626b377229c10585ec392f8a,626b3b30ac297ada2e3bae30,,,,,,,,,,,,,,,,,,,,,,,a,1,1.261,"[""0.218"",""0.328"",""0.796"",""0.403""]","[1,1,1,0]",0,29,29,29,1,0,1,,,0,FALSE,,,,,,,,,,,,,,,,,,,,,,,,,,,,,,
,5eb05172d8a54b0e3f068d0a,001,2022-04-28_22h50.28.578,classification_task,2021.2.3,MacIntel,29.72651605,5eb05172d8a54b0e3f068d0a,626b377229c10585ec392f8a,626b3b30ac297ada2e3bae30,,,,,,,,,,,,,,,,,,,,,,,l,1,2.124,"[""0.593"",""0.257"",""0.441"",""0.754""]","[0,1,1,1]",0,30,30,30,1,1,1,,,0,FALSE,,,,,,,,,,,,,,,,,,,,,,,,,,,,,,
,5eb05172d8a54b0e3f068d0a,001,2022-04-28_22h50.28.578,classification_task,2021.2.3,MacIntel,29.72651605,5eb05172d8a54b0e3f068d0a,626b377229c10585ec392f8a,626b3b30ac297ada2e3bae30,,,,,,,,,,,,,,,,,,,,,,,a,1,1.785,"[""0.593"",""0.557"",""0.903"",""0.967""]","[0,1,1,1]",0,31,31,31,1,0,0,,,0,FALSE,,,,,,,,,,,,,,,,,,,,,,,,,,,,,,
,5eb05172d8a54b0e3f068d0a,001,2022-04-28_22h50.28.578,classification_task,2021.2.3,MacIntel,29.72651605,5eb05172d8a54b0e3f068d0a,626b377229c10585ec392f8a,626b3b30ac297ada2e3bae30,,,,,,,,,,,,,,,,,,,,,,,a,1,1.602,"[""0.218"",""0.593"",""0.796"",""0.851""]","[1,0,1,1]",0,32,32,32,1,0,1,,,0,FALSE,,,,,,,,,,,,,,,,,,,,,,,,,,,,,,
,5eb05172d8a54b0e3f068d0a,001,2022-04-28_22h50.28.578,classification_task,2021.2.3,MacIntel,29.72651605,5eb05172d8a54b0e3f068d0a,626b377229c10585ec392f8a,626b3b30ac297ada2e3bae30,,,,,,,,,,,,,,,,,,,,,,,l,0,1.986,"[""0.291"",""0.490"",""0.903"",""0.967""]","[1,0,1,1]",0,33,33,33,1,0,0,,,0,FALSE,,,,,,,,,,,,,,,,,,,,,,,,,,,,,,
,5eb05172d8a54b0e3f068d0a,001,2022-04-28_22h50.28.578,classification_task,2021.2.3,MacIntel,29.72651605,5eb05172d8a54b0e3f068d0a,626b377229c10585ec392f8a,626b3b30ac297ada2e3bae30,,,,,,,,,,,,,,,,,,,,,,,l,1,1.201,"[""0.593"",""0.257"",""0.441"",""0.754""]","[0,1,1,1]",0,34,34,34,1,1,1,,,0,FALSE,,,,,,,,,,,,,,,,,,,,,,,,,,,,,,
,5eb05172d8a54b0e3f068d0a,001,2022-04-28_22h50.28.578,classification_task,2021.2.3,MacIntel,29.72651605,5eb05172d8a54b0e3f068d0a,626b377229c10585ec392f8a,626b3b30ac297ada2e3bae30,,,,,,,,,,,,,,,,,,,,,,,a,1,1.025,"[""0.218"",""0.328"",""0.487"",""0.851""]","[1,1,0,1]",0,35,35,35,1,0,1,,,0,FALSE,,,,,,,,,,,,,,,,,,,,,,,,,,,,,,
,5eb05172d8a54b0e3f068d0a,001,2022-04-28_22h50.28.578,classification_task,2021.2.3,MacIntel,29.72651605,5eb05172d8a54b0e3f068d0a,626b377229c10585ec392f8a,626b3b30ac297ada2e3bae30,,,,,,,,,,,,,,,,,,,,,,,a,1,0.729,"[""0.291"",""0.557"",""0.903"",""0.403""]","[1,1,1,0]",0,36,36,36,1,0,0,,,0,FALSE,,,,,,,,,,,,,,,,,,,,,,,,,,,,,,
,5eb05172d8a54b0e3f068d0a,001,2022-04-28_22h50.28.578,classification_task,2021.2.3,MacIntel,29.72651605,5eb05172d8a54b0e3f068d0a,626b377229c10585ec392f8a,626b3b30ac297ada2e3bae30,,,,,,,,,,,,,,,,,,,,,,,l,1,1.265,"[""0.086"",""0.375"",""0.441"",""0.754""]","[1,0,1,1]",0,37,37,37,1,1,1,,,0,FALSE,,,,,,,,,,,,,,,,,,,,,,,,,,,,,,
,5eb05172d8a54b0e3f068d0a,001,2022-04-28_22h50.28.578,classification_task,2021.2.3,MacIntel,29.72651605,5eb05172d8a54b0e3f068d0a,626b377229c10585ec392f8a,626b3b30ac297ada2e3bae30,,,,,,,,,,,,,,,,,,,,,,,l,1,1.195,"[""0.145"",""0.594"",""0.640"",""0.702""]","[1,0,1,1]",0,38,38,38,1,1,0,,,0,FALSE,,,,,,,,,,,,,,,,,,,,,,,,,,,,,,
,5eb05172d8a54b0e3f068d0a,001,2022-04-28_22h50.28.578,classification_task,2021.2.3,MacIntel,29.72651605,5eb05172d8a54b0e3f068d0a,626b377229c10585ec392f8a,626b3b30ac297ada2e3bae30,,,,,,,,,,,,,,,,,,,,,,,a,0,1.228,"[""0.407"",""0.183"",""0.640"",""0.702""]","[0,1,1,1]",0,39,39,39,1,1,0,,,0,FALSE,,,,,,,,,,,,,,,,,,,,,,,,,,,,,,
,5eb05172d8a54b0e3f068d0a,001,2022-04-28_22h50.28.578,classification_task,2021.2.3,MacIntel,29.72651605,5eb05172d8a54b0e3f068d0a,626b377229c10585ec392f8a,626b3b30ac297ada2e3bae30,,,,,,,,,,,,,,,,,,,,,,,l,1,1.326,"[""0.086"",""0.257"",""0.379"",""0.754""]","[1,1,0,1]",0,40,40,40,1,1,1,,,0,FALSE,,,,,,,,,,,,,,,,,,,,,,,,,,,,,,
,5eb05172d8a54b0e3f068d0a,001,2022-04-28_22h50.28.578,classification_task,2021.2.3,MacIntel,29.72651605,5eb05172d8a54b0e3f068d0a,626b377229c10585ec392f8a,626b3b30ac297ada2e3bae30,,,,,,,,,,,,,,,,,,,,,,,a,1,1.947,"[""0.395"",""0.328"",""0.796"",""0.851""]","[0,1,1,1]",0,41,41,41,1,0,1,,,0,FALSE,,,,,,,,,,,,,,,,,,,,,,,,,,,,,,
,5eb05172d8a54b0e3f068d0a,001,2022-04-28_22h50.28.578,classification_task,2021.2.3,MacIntel,29.72651605,5eb05172d8a54b0e3f068d0a,626b377229c10585ec392f8a,626b3b30ac297ada2e3bae30,,,,,,,,,,,,,,,,,,,,,,,l,1,1.304,"[""0.086"",""0.257"",""0.441"",""0.399""]","[1,1,1,0]",0,42,42,42,1,1,1,,,0,FALSE,,,,,,,,,,,,,,,,,,,,,,,,,,,,,,
,5eb05172d8a54b0e3f068d0a,001,2022-04-28_22h50.28.578,classification_task,2021.2.3,MacIntel,29.72651605,5eb05172d8a54b0e3f068d0a,626b377229c10585ec392f8a,626b3b30ac297ada2e3bae30,,,,,,,,,,,,,,,,,,,,,,,l,1,1.028,"[""0.145"",""0.183"",""0.640"",""0.395""]","[1,1,1,0]",0,43,43,43,1,1,0,,,0,FALSE,,,,,,,,,,,,,,,,,,,,,,,,,,,,,,
,5eb05172d8a54b0e3f068d0a,001,2022-04-28_22h50.28.578,classification_task,2021.2.3,MacIntel,29.72651605,5eb05172d8a54b0e3f068d0a,626b377229c10585ec392f8a,626b3b30ac297ada2e3bae30,,,,,,,,,,,,,,,,,,,,,,,a,1,0.815,"[""0.218"",""0.328"",""0.796"",""0.487""]","[1,1,1,0]",0,44,44,44,1,0,1,,,0,FALSE,,,,,,,,,,,,,,,,,,,,,,,,,,,,,,
,5eb05172d8a54b0e3f068d0a,001,2022-04-28_22h50.28.578,classification_task,2021.2.3,MacIntel,29.72651605,5eb05172d8a54b0e3f068d0a,626b377229c10585ec392f8a,626b3b30ac297ada2e3bae30,,,,,,,,,,,,,,,,,,,,,,,l,1,1.355,"[""0.145"",""0.183"",""0.379"",""0.702""]","[1,1,0,1]",0,45,45,45,1,1,0,,,0,FALSE,,,,,,,,,,,,,,,,,,,,,,,,,,,,,,
,5eb05172d8a54b0e3f068d0a,001,2022-04-28_22h50.28.578,classification_task,2021.2.3,MacIntel,29.72651605,5eb05172d8a54b0e3f068d0a,626b377229c10585ec392f8a,626b3b30ac297ada2e3bae30,,,,,,,,,,,,,,,,,,,,,,,a,1,0.984,"[""0.477"",""0.557"",""0.903"",""0.967""]","[0,1,1,1]",0,46,46,46,1,0,0,,,0,FALSE,,,,,,,,,,,,,,,,,,,,,,,,,,,,,,
,5eb05172d8a54b0e3f068d0a,001,2022-04-28_22h50.28.578,classification_task,2021.2.3,MacIntel,29.72651605,5eb05172d8a54b0e3f068d0a,626b377229c10585ec392f8a,626b3b30ac297ada2e3bae30,,,,,,,,,,,,,,,,,,,,,,,l,0,0.951,"[""0.291"",""0.557"",""0.038"",""0.967""]","[1,1,0,1]",0,47,47,47,1,0,0,,,0,FALSE,,,,,,,,,,,,,,,,,,,,,,,,,,,,,,
,5eb05172d8a54b0e3f068d0a,001,2022-04-28_22h50.28.578,classification_task,2021.2.3,MacIntel,29.72651605,5eb05172d8a54b0e3f068d0a,626b377229c10585ec392f8a,626b3b30ac297ada2e3bae30,,,,,,,,,,,,,,,,,,,,,,,l,1,0.886,"[""0.145"",""0.038"",""0.640"",""0.702""]","[1,0,1,1]",0,48,48,48,1,1,0,,,0,FALSE,,,,,,,,,,,,,,,,,,,,,,,,,,,,,,
,5eb05172d8a54b0e3f068d0a,001,2022-04-28_22h50.28.578,classification_task,2021.2.3,MacIntel,29.72651605,5eb05172d8a54b0e3f068d0a,626b377229c10585ec392f8a,626b3b30ac297ada2e3bae30,,,,,,,,,,,,,,,,,,,,,,,a,0,0.742,"[""0.145"",""0.183"",""0.375"",""0.702""]","[1,1,0,1]",0,49,49,49,1,1,0,,,0,FALSE,,,,,,,,,,,,,,,,,,,,,,,,,,,,,,
,5eb05172d8a54b0e3f068d0a,001,2022-04-28_22h50.28.578,classification_task,2021.2.3,MacIntel,29.72651605,5eb05172d8a54b0e3f068d0a,626b377229c10585ec392f8a,626b3b30ac297ada2e3bae30,,,,,,,,,,,,,,,,,,,,,,,a,1,1.055,"[""0.291"",""0.557"",""0.903"",""0.379""]","[1,1,1,0]",0,50,50,50,1,0,0,,,0,FALSE,,,,,,,,,,,,,,,,,,,,,,,,,,,,,,
,5eb05172d8a54b0e3f068d0a,001,2022-04-28_22h50.28.578,classification_task,2021.2.3,MacIntel,29.72651605,5eb05172d8a54b0e3f068d0a,626b377229c10585ec392f8a,626b3b30ac297ada2e3bae30,,,,,,,,,,,,,,,,,,,,,,,a,1,0.887,"[""0.291"",""0.397"",""0.903"",""0.967""]","[1,0,1,1]",0,51,51,51,1,0,0,,,0,FALSE,,,,,,,,,,,,,,,,,,,,,,,,,,,,,,
,5eb05172d8a54b0e3f068d0a,001,2022-04-28_22h50.28.578,classification_task,2021.2.3,MacIntel,29.72651605,5eb05172d8a54b0e3f068d0a,626b377229c10585ec392f8a,626b3b30ac297ada2e3bae30,,,,,,,,,,,,,,,,,,,,,,,l,1,1.214,"[""0.086"",""0.495"",""0.441"",""0.754""]","[1,0,1,1]",0,52,52,52,1,1,1,,,0,FALSE,,,,,,,,,,,,,,,,,,,,,,,,,,,,,,
,5eb05172d8a54b0e3f068d0a,001,2022-04-28_22h50.28.578,classification_task,2021.2.3,MacIntel,29.72651605,5eb05172d8a54b0e3f068d0a,626b377229c10585ec392f8a,626b3b30ac297ada2e3bae30,,,,,,,,,,,,,,,,,,,,,,,a,0,0.744,"[""0.487"",""0.257"",""0.441"",""0.754""]","[0,1,1,1]",0,53,53,53,1,1,1,,,0,FALSE,,,,,,,,,,,,,,,,,,,,,,,,,,,,,,
,5eb05172d8a54b0e3f068d0a,001,2022-04-28_22h50.28.578,classification_task,2021.2.3,MacIntel,29.72651605,5eb05172d8a54b0e3f068d0a,626b377229c10585ec392f8a,626b3b30ac297ada2e3bae30,,,,,,,,,,,,,,,,,,,,,,,a,1,1.06,"[""0.218"",""0.328"",""0.495"",""0.851""]","[1,1,0,1]",0,54,54,54,1,0,1,,,0,FALSE,,,,,,,,,,,,,,,,,,,,,,,,,,,,,,
,5eb05172d8a54b0e3f068d0a,001,2022-04-28_22h50.28.578,classification_task,2021.2.3,MacIntel,29.72651605,5eb05172d8a54b0e3f068d0a,626b377229c10585ec392f8a,626b3b30ac297ada2e3bae30,,,,,,,,,,,,,,,,,,,,,,,l,1,0.812,"[""0.086"",""0.257"",""0.490"",""0.754""]","[1,1,0,1]",0,55,55,55,1,1,1,,,0,FALSE,,,,,,,,,,,,,,,,,,,,,,,,,,,,,,
,5eb05172d8a54b0e3f068d0a,001,2022-04-28_22h50.28.578,classification_task,2021.2.3,MacIntel,29.72651605,5eb05172d8a54b0e3f068d0a,626b377229c10585ec392f8a,626b3b30ac297ada2e3bae30,,,,,,,,,,,,,,,,,,,,,,,l,0,1.134,"[""0.594"",""0.328"",""0.796"",""0.851""]","[0,1,1,1]",0,56,56,56,1,0,1,,,0,FALSE,,,,,,,,,,,,,,,,,,,,,,,,,,,,,,
,5eb05172d8a54b0e3f068d0a,001,2022-04-28_22h50.28.578,classification_task,2021.2.3,MacIntel,29.72651605,5eb05172d8a54b0e3f068d0a,626b377229c10585ec392f8a,626b3b30ac297ada2e3bae30,,,,,,,,,,,,,,,,,,,,,,,l,1,0.857,"[""0.145"",""0.183"",""0.640"",""0.495""]","[1,1,1,0]",0,57,57,57,1,1,0,,,0,FALSE,,,,,,,,,,,,,,,,,,,,,,,,,,,,,,
,5eb05172d8a54b0e3f068d0a,001,2022-04-28_22h50.28.578,classification_task,2021.2.3,MacIntel,29.72651605,5eb05172d8a54b0e3f068d0a,626b377229c10585ec392f8a,626b3b30ac297ada2e3bae30,,,,,,,,,,,,,,,,,,,,,,,a,0,0.999,"[""0.375"",""0.183"",""0.640"",""0.702""]","[0,1,1,1]",0,58,58,58,1,1,0,,,0,FALSE,,,,,,,,,,,,,,,,,,,,,,,,,,,,,,
,5eb05172d8a54b0e3f068d0a,001,2022-04-28_22h50.28.578,classification_task,2021.2.3,MacIntel,29.72651605,5eb05172d8a54b0e3f068d0a,626b377229c10585ec392f8a,626b3b30ac297ada2e3bae30,,,,,,,,,,,,,,,,,,,,,,,l,1,1.339,"[""0.086"",""0.257"",""0.441"",""0.593""]","[1,1,1,0]",0,59,59,59,1,1,1,,,0,FALSE,,,,,,,,,,,,,,,,,,,,,,,,,,,,,,
,5eb05172d8a54b0e3f068d0a,001,2022-04-28_22h50.28.578,classification_task,2021.2.3,MacIntel,29.72651605,5eb05172d8a54b0e3f068d0a,626b377229c10585ec392f8a,626b3b30ac297ada2e3bae30,,,,,,,,,,,,,,,,,,,,,,,a,1,0.934,"[""0.218"",""0.397"",""0.796"",""0.851""]","[1,0,1,1]",0,60,60,60,1,0,1,,,0,FALSE,,,,,,,,,,,,,,,,,,,,,,,,,,,,,,
,5eb05172d8a54b0e3f068d0a,001,2022-04-28_22h50.28.578,classification_task,2021.2.3,MacIntel,29.72651605,5eb05172d8a54b0e3f068d0a,626b377229c10585ec392f8a,626b3b30ac297ada2e3bae30,,,,,,,,,,,,,,,,,,,,,,,a,1,0.768,"[""0.218"",""0.328"",""0.796"",""0.490""]","[1,1,1,0]",0,61,61,61,1,0,1,,,0,FALSE,,,,,,,,,,,,,,,,,,,,,,,,,,,,,,
,5eb05172d8a54b0e3f068d0a,001,2022-04-28_22h50.28.578,classification_task,2021.2.3,MacIntel,29.72651605,5eb05172d8a54b0e3f068d0a,626b377229c10585ec392f8a,626b3b30ac297ada2e3bae30,,,,,,,,,,,,,,,,,,,,,,,l,0,1.174,"[""0.291"",""0.557"",""0.495"",""0.967""]","[1,1,0,1]",0,62,62,62,1,0,0,,,0,FALSE,,,,,,,,,,,,,,,,,,,,,,,,,,,,,,
,5eb05172d8a54b0e3f068d0a,001,2022-04-28_22h50.28.578,classification_task,2021.2.3,MacIntel,29.72651605,5eb05172d8a54b0e3f068d0a,626b377229c10585ec392f8a,626b3b30ac297ada2e3bae30,,,,,,,,,,,,,,,,,,,,,,,l,0,1.453,"[""0.594"",""0.557"",""0.903"",""0.967""]","[0,1,1,1]",0,63,63,63,1,0,0,,,0,FALSE,,,,,,,,,,,,,,,,,,,,,,,,,,,,,,
,5eb05172d8a54b0e3f068d0a,001,2022-04-28_22h50.28.578,classification_task,2021.2.3,MacIntel,29.72651605,5eb05172d8a54b0e3f068d0a,626b377229c10585ec392f8a,626b3b30ac297ada2e3bae30,,,,,,,,,,,,,,,,,,,,,,,,,,,,,,,,,,,,,,,0, ,,0,8.409758965,282.11,0,0,0,0,1,2,1,,,,,,,,,,,,,,,,,
,5eb05172d8a54b0e3f068d0a,001,2022-04-28_22h50.28.578,classification_task,2021.2.3,MacIntel,29.72651605,5eb05172d8a54b0e3f068d0a,626b377229c10585ec392f8a,626b3b30ac297ada2e3bae30,,,,,,,,,,,,,,,,,,,,,,,,,,,,,,,,,,,,,,,1,  ,,0,1.208112875,272.748,0,0,0,0,1,2,1,,,,,,,,,,,,,,,,,
,5eb05172d8a54b0e3f068d0a,001,2022-04-28_22h50.28.578,classification_task,2021.2.3,MacIntel,29.72651605,5eb05172d8a54b0e3f068d0a,626b377229c10585ec392f8a,626b3b30ac297ada2e3bae30,,,,,,,,,,,,,,,,,,,,,,,,,,,,,,,,,,,,,,,2,  ,,0,5.264550265,286.393,0,0,0,0,1,2,1,,,,,,,,,,,,,,,,,
,5eb05172d8a54b0e3f068d0a,001,2022-04-28_22h50.28.578,classification_task,2021.2.3,MacIntel,29.72651605,5eb05172d8a54b0e3f068d0a,626b377229c10585ec392f8a,626b3b30ac297ada2e3bae30,,,,,,,,,,,,,,,,,,,,,,,,,,,,,,,,,,,,,,,,,,,,,0,0,0,0,1,,1,,,,,,,,,,,,,,,,,
,5eb05172d8a54b0e3f068d0a,001,2022-04-28_22h50.28.578,classification_task,2021.2.3,MacIntel,29.72651605,5eb05172d8a54b0e3f068d0a,626b377229c10585ec392f8a,626b3b30ac297ada2e3bae30,,,,,,,,,,,,,,,,,,,,,space,5.374,a,1,2.5,"[""0.218"",""0.328"",""0.796"",""0.490""]","[1,1,1,0]",0,0,0,0,1,0,1,,,0,FALSE,,,,,,,,,,,,,,,,,,,,,,,,,,,,,,
,5eb05172d8a54b0e3f068d0a,001,2022-04-28_22h50.28.578,classification_task,2021.2.3,MacIntel,29.72651605,5eb05172d8a54b0e3f068d0a,626b377229c10585ec392f8a,626b3b30ac297ada2e3bae30,,,,,,,,,,,,,,,,,,,,,,,l,1,2.667,"[""0.145"",""0.379"",""0.640"",""0.702""]","[1,0,1,1]",0,1,1,1,1,1,0,,,0,FALSE,,,,,,,,,,,,,,,,,,,,,,,,,,,,,,
,5eb05172d8a54b0e3f068d0a,001,2022-04-28_22h50.28.578,classification_task,2021.2.3,MacIntel,29.72651605,5eb05172d8a54b0e3f068d0a,626b377229c10585ec392f8a,626b3b30ac297ada2e3bae30,,,,,,,,,,,,,,,,,,,,,,,l,1,1.476,"[""0.086"",""0.257"",""0.594"",""0.754""]","[1,1,0,1]",0,2,2,2,1,1,1,,,0,FALSE,,,,,,,,,,,,,,,,,,,,,,,,,,,,,,
,5eb05172d8a54b0e3f068d0a,001,2022-04-28_22h50.28.578,classification_task,2021.2.3,MacIntel,29.72651605,5eb05172d8a54b0e3f068d0a,626b377229c10585ec392f8a,626b3b30ac297ada2e3bae30,,,,,,,,,,,,,,,,,,,,,,,a,1,0.943,"[""0.218"",""0.593"",""0.796"",""0.851""]","[1,0,1,1]",0,3,3,3,1,0,1,,,0,FALSE,,,,,,,,,,,,,,,,,,,,,,,,,,,,,,
,5eb05172d8a54b0e3f068d0a,001,2022-04-28_22h50.28.578,classification_task,2021.2.3,MacIntel,29.72651605,5eb05172d8a54b0e3f068d0a,626b377229c10585ec392f8a,626b3b30ac297ada2e3bae30,,,,,,,,,,,,,,,,,,,,,,,l,1,1.722,"[""0.145"",""0.183"",""0.640"",""0.477""]","[1,1,1,0]",0,4,4,4,1,1,0,,,0,FALSE,,,,,,,,,,,,,,,,,,,,,,,,,,,,,,
,5eb05172d8a54b0e3f068d0a,001,2022-04-28_22h50.28.578,classification_task,2021.2.3,MacIntel,29.72651605,5eb05172d8a54b0e3f068d0a,626b377229c10585ec392f8a,626b3b30ac297ada2e3bae30,,,,,,,,,,,,,,,,,,,,,,,l,1,1.079,"[""0.086"",""0.407"",""0.441"",""0.754""]","[1,0,1,1]",0,5,5,5,1,1,1,,,0,FALSE,,,,,,,,,,,,,,,,,,,,,,,,,,,,,,
,5eb05172d8a54b0e3f068d0a,001,2022-04-28_22h50.28.578,classification_task,2021.2.3,MacIntel,29.72651605,5eb05172d8a54b0e3f068d0a,626b377229c10585ec392f8a,626b3b30ac297ada2e3bae30,,,,,,,,,,,,,,,,,,,,,,,l,1,1.176,"[""0.594"",""0.257"",""0.441"",""0.754""]","[0,1,1,1]",0,6,6,6,1,1,1,,,0,FALSE,,,,,,,,,,,,,,,,,,,,,,,,,,,,,,
,5eb05172d8a54b0e3f068d0a,001,2022-04-28_22h50.28.578,classification_task,2021.2.3,MacIntel,29.72651605,5eb05172d8a54b0e3f068d0a,626b377229c10585ec392f8a,626b3b30ac297ada2e3bae30,,,,,,,,,,,,,,,,,,,,,,,a,1,0.806,"[""0.218"",""0.328"",""0.379"",""0.851""]","[1,1,0,1]",0,7,7,7,1,0,1,,,0,FALSE,,,,,,,,,,,,,,,,,,,,,,,,,,,,,,
,5eb05172d8a54b0e3f068d0a,001,2022-04-28_22h50.28.578,classification_task,2021.2.3,MacIntel,29.72651605,5eb05172d8a54b0e3f068d0a,626b377229c10585ec392f8a,626b3b30ac297ada2e3bae30,,,,,,,,,,,,,,,,,,,,,,,l,1,1.687,"[""0.145"",""0.183"",""0.407"",""0.702""]","[1,1,0,1]",0,8,8,8,1,1,0,,,0,FALSE,,,,,,,,,,,,,,,,,,,,,,,,,,,,,,
,5eb05172d8a54b0e3f068d0a,001,2022-04-28_22h50.28.578,classification_task,2021.2.3,MacIntel,29.72651605,5eb05172d8a54b0e3f068d0a,626b377229c10585ec392f8a,626b3b30ac297ada2e3bae30,,,,,,,,,,,,,,,,,,,,,,,l,1,1.134,"[""0.086"",""0.257"",""0.441"",""0.397""]","[1,1,1,0]",0,9,9,9,1,1,1,,,0,FALSE,,,,,,,,,,,,,,,,,,,,,,,,,,,,,,
,5eb05172d8a54b0e3f068d0a,001,2022-04-28_22h50.28.578,classification_task,2021.2.3,MacIntel,29.72651605,5eb05172d8a54b0e3f068d0a,626b377229c10585ec392f8a,626b3b30ac297ada2e3bae30,,,,,,,,,,,,,,,,,,,,,,,a,0,1.84,"[""0.038"",""0.183"",""0.640"",""0.702""]","[0,1,1,1]",0,10,10,10,1,1,0,,,0,FALSE,,,,,,,,,,,,,,,,,,,,,,,,,,,,,,
,5eb05172d8a54b0e3f068d0a,001,2022-04-28_22h50.28.578,classification_task,2021.2.3,MacIntel,29.72651605,5eb05172d8a54b0e3f068d0a,626b377229c10585ec392f8a,626b3b30ac297ada2e3bae30,,,,,,,,,,,,,,,,,,,,,,,l,0,1.164,"[""0.399"",""0.328"",""0.796"",""0.851""]","[0,1,1,1]",0,11,11,11,1,0,1,,,0,FALSE,,,,,,,,,,,,,,,,,,,,,,,,,,,,,,
,5eb05172d8a54b0e3f068d0a,001,2022-04-28_22h50.28.578,classification_task,2021.2.3,MacIntel,29.72651605,5eb05172d8a54b0e3f068d0a,626b377229c10585ec392f8a,626b3b30ac297ada2e3bae30,,,,,,,,,,,,,,,,,,,,,,,a,1,1.739,"[""0.291"",""0.557"",""0.903"",""0.387""]","[1,1,1,0]",0,12,12,12,1,0,0,,,0,FALSE,,,,,,,,,,,,,,,,,,,,,,,,,,,,,,
,5eb05172d8a54b0e3f068d0a,001,2022-04-28_22h50.28.578,classification_task,2021.2.3,MacIntel,29.72651605,5eb05172d8a54b0e3f068d0a,626b377229c10585ec392f8a,626b3b30ac297ada2e3bae30,,,,,,,,,,,,,,,,,,,,,,,l,0,1.756,"[""0.395"",""0.557"",""0.903"",""0.967""]","[0,1,1,1]",0,13,13,13,1,0,0,,,0,FALSE,,,,,,,,,,,,,,,,,,,,,,,,,,,,,,
,5eb05172d8a54b0e3f068d0a,001,2022-04-28_22h50.28.578,classification_task,2021.2.3,MacIntel,29.72651605,5eb05172d8a54b0e3f068d0a,626b377229c10585ec392f8a,626b3b30ac297ada2e3bae30,,,,,,,,,,,,,,,,,,,,,,,a,1,0.972,"[""0.291"",""0.557"",""0.038"",""0.967""]","[1,1,0,1]",0,14,14,14,1,0,0,,,0,FALSE,,,,,,,,,,,,,,,,,,,,,,,,,,,,,,
,5eb05172d8a54b0e3f068d0a,001,2022-04-28_22h50.28.578,classification_task,2021.2.3,MacIntel,29.72651605,5eb05172d8a54b0e3f068d0a,626b377229c10585ec392f8a,626b3b30ac297ada2e3bae30,,,,,,,,,,,,,,,,,,,,,,,a,1,1.32,"[""0.291"",""0.495"",""0.903"",""0.967""]","[1,0,1,1]",0,15,15,15,1,0,0,,,0,FALSE,,,,,,,,,,,,,,,,,,,,,,,,,,,,,,
,5eb05172d8a54b0e3f068d0a,001,2022-04-28_22h50.28.578,classification_task,2021.2.3,MacIntel,29.72651605,5eb05172d8a54b0e3f068d0a,626b377229c10585ec392f8a,626b3b30ac297ada2e3bae30,,,,,,,,,,,,,,,,,,,,,,,a,1,0.743,"[""0.291"",""0.364"",""0.903"",""0.967""]","[1,0,1,1]",0,16,16,16,1,0,0,,,0,FALSE,,,,,,,,,,,,,,,,,,,,,,,,,,,,,,
,5eb05172d8a54b0e3f068d0a,001,2022-04-28_22h50.28.578,classification_task,2021.2.3,MacIntel,29.72651605,5eb05172d8a54b0e3f068d0a,626b377229c10585ec392f8a,626b3b30ac297ada2e3bae30,,,,,,,,,,,,,,,,,,,,,,,a,1,0.907,"[""0.218"",""0.375"",""0.796"",""0.851""]","[1,0,1,1]",0,17,17,17,1,0,1,,,0,FALSE,,,,,,,,,,,,,,,,,,,,,,,,,,,,,,
,5eb05172d8a54b0e3f068d0a,001,2022-04-28_22h50.28.578,classification_task,2021.2.3,MacIntel,29.72651605,5eb05172d8a54b0e3f068d0a,626b377229c10585ec392f8a,626b3b30ac297ada2e3bae30,,,,,,,,,,,,,,,,,,,,,,,a,0,1.367,"[""0.086"",""0.397"",""0.441"",""0.754""]","[1,0,1,1]",0,18,18,18,1,1,1,,,0,FALSE,,,,,,,,,,,,,,,,,,,,,,,,,,,,,,
,5eb05172d8a54b0e3f068d0a,001,2022-04-28_22h50.28.578,classification_task,2021.2.3,MacIntel,29.72651605,5eb05172d8a54b0e3f068d0a,626b377229c10585ec392f8a,626b3b30ac297ada2e3bae30,,,,,,,,,,,,,,,,,,,,,,,a,1,1.022,"[""0.218"",""0.328"",""0.796"",""0.403""]","[1,1,1,0]",0,19,19,19,1,0,1,,,0,FALSE,,,,,,,,,,,,,,,,,,,,,,,,,,,,,,
,5eb05172d8a54b0e3f068d0a,001,2022-04-28_22h50.28.578,classification_task,2021.2.3,MacIntel,29.72651605,5eb05172d8a54b0e3f068d0a,626b377229c10585ec392f8a,626b3b30ac297ada2e3bae30,,,,,,,,,,,,,,,,,,,,,,,l,0,1.041,"[""0.038"",""0.328"",""0.796"",""0.851""]","[0,1,1,1]",0,20,20,20,1,0,1,,,0,FALSE,,,,,,,,,,,,,,,,,,,,,,,,,,,,,,
,5eb05172d8a54b0e3f068d0a,001,2022-04-28_22h50.28.578,classification_task,2021.2.3,MacIntel,29.72651605,5eb05172d8a54b0e3f068d0a,626b377229c10585ec392f8a,626b3b30ac297ada2e3bae30,,,,,,,,,,,,,,,,,,,,,,,l,1,1.37,"[""0.086"",""0.257"",""0.495"",""0.754""]","[1,1,0,1]",0,21,21,21,1,1,1,,,0,FALSE,,,,,,,,,,,,,,,,,,,,,,,,,,,,,,
,5eb05172d8a54b0e3f068d0a,001,2022-04-28_22h50.28.578,classification_task,2021.2.3,MacIntel,29.72651605,5eb05172d8a54b0e3f068d0a,626b377229c10585ec392f8a,626b3b30ac297ada2e3bae30,,,,,,,,,,,,,,,,,,,,,,,l,1,1.82,"[""0.086"",""0.257"",""0.441"",""0.495""]","[1,1,1,0]",0,22,22,22,1,1,1,,,0,FALSE,,,,,,,,,,,,,,,,,,,,,,,,,,,,,,
,5eb05172d8a54b0e3f068d0a,001,2022-04-28_22h50.28.578,classification_task,2021.2.3,MacIntel,29.72651605,5eb05172d8a54b0e3f068d0a,626b377229c10585ec392f8a,626b3b30ac297ada2e3bae30,,,,,,,,,,,,,,,,,,,,,,,a,0,1.757,"[""0.594"",""0.183"",""0.640"",""0.702""]","[0,1,1,1]",0,23,23,23,1,1,0,,,0,FALSE,,,,,,,,,,,,,,,,,,,,,,,,,,,,,,
,5eb05172d8a54b0e3f068d0a,001,2022-04-28_22h50.28.578,classification_task,2021.2.3,MacIntel,29.72651605,5eb05172d8a54b0e3f068d0a,626b377229c10585ec392f8a,626b3b30ac297ada2e3bae30,,,,,,,,,,,,,,,,,,,,,,,l,1,1.154,"[""0.145"",""0.183"",""0.407"",""0.702""]","[1,1,0,1]",0,24,24,24,1,1,0,,,0,FALSE,,,,,,,,,,,,,,,,,,,,,,,,,,,,,,
,5eb05172d8a54b0e3f068d0a,001,2022-04-28_22h50.28.578,classification_task,2021.2.3,MacIntel,29.72651605,5eb05172d8a54b0e3f068d0a,626b377229c10585ec392f8a,626b3b30ac297ada2e3bae30,,,,,,,,,,,,,,,,,,,,,,,l,1,1.642,"[""0.145"",""0.399"",""0.640"",""0.702""]","[1,0,1,1]",0,25,25,25,1,1,0,,,0,FALSE,,,,,,,,,,,,,,,,,,,,,,,,,,,,,,
,5eb05172d8a54b0e3f068d0a,001,2022-04-28_22h50.28.578,classification_task,2021.2.3,MacIntel,29.72651605,5eb05172d8a54b0e3f068d0a,626b377229c10585ec392f8a,626b3b30ac297ada2e3bae30,,,,,,,,,,,,,,,,,,,,,,,l,1,1.346,"[""0.397"",""0.257"",""0.441"",""0.754""]","[0,1,1,1]",0,26,26,26,1,1,1,,,0,FALSE,,,,,,,,,,,,,,,,,,,,,,,,,,,,,,
,5eb05172d8a54b0e3f068d0a,001,2022-04-28_22h50.28.578,classification_task,2021.2.3,MacIntel,29.72651605,5eb05172d8a54b0e3f068d0a,626b377229c10585ec392f8a,626b3b30ac297ada2e3bae30,,,,,,,,,,,,,,,,,,,,,,,a,1,1.016,"[""0.218"",""0.328"",""0.375"",""0.851""]","[1,1,0,1]",0,27,27,27,1,0,1,,,0,FALSE,,,,,,,,,,,,,,,,,,,,,,,,,,,,,,
,5eb05172d8a54b0e3f068d0a,001,2022-04-28_22h50.28.578,classification_task,2021.2.3,MacIntel,29.72651605,5eb05172d8a54b0e3f068d0a,626b377229c10585ec392f8a,626b3b30ac297ada2e3bae30,,,,,,,,,,,,,,,,,,,,,,,a,1,1.189,"[""0.291"",""0.557"",""0.903"",""0.364""]","[1,1,1,0]",0,28,28,28,1,0,0,,,0,FALSE,,,,,,,,,,,,,,,,,,,,,,,,,,,,,,
,5eb05172d8a54b0e3f068d0a,001,2022-04-28_22h50.28.578,classification_task,2021.2.3,MacIntel,29.72651605,5eb05172d8a54b0e3f068d0a,626b377229c10585ec392f8a,626b3b30ac297ada2e3bae30,,,,,,,,,,,,,,,,,,,,,,,l,1,1.091,"[""0.145"",""0.183"",""0.640"",""0.403""]","[1,1,1,0]",0,29,29,29,1,1,0,,,0,FALSE,,,,,,,,,,,,,,,,,,,,,,,,,,,,,,
,5eb05172d8a54b0e3f068d0a,001,2022-04-28_22h50.28.578,classification_task,2021.2.3,MacIntel,29.72651605,5eb05172d8a54b0e3f068d0a,626b377229c10585ec392f8a,626b3b30ac297ada2e3bae30,,,,,,,,,,,,,,,,,,,,,,,l,0,1.403,"[""0.487"",""0.557"",""0.903"",""0.967""]","[0,1,1,1]",0,30,30,30,1,0,0,,,0,FALSE,,,,,,,,,,,,,,,,,,,,,,,,,,,,,,
,5eb05172d8a54b0e3f068d0a,001,2022-04-28_22h50.28.578,classification_task,2021.2.3,MacIntel,29.72651605,5eb05172d8a54b0e3f068d0a,626b377229c10585ec392f8a,626b3b30ac297ada2e3bae30,,,,,,,,,,,,,,,,,,,,,,,a,1,0.93,"[""0.291"",""0.557"",""0.397"",""0.967""]","[1,1,0,1]",0,31,31,31,1,0,0,,,0,FALSE,,,,,,,,,,,,,,,,,,,,,,,,,,,,,,
,5eb05172d8a54b0e3f068d0a,001,2022-04-28_22h50.28.578,classification_task,2021.2.3,MacIntel,29.72651605,5eb05172d8a54b0e3f068d0a,626b377229c10585ec392f8a,626b3b30ac297ada2e3bae30,,,,,,,,,,,,,,,,,,,,,,,a,1,1.139,"[""0.218"",""0.593"",""0.796"",""0.851""]","[1,0,1,1]",0,32,32,32,1,0,1,,,0,FALSE,,,,,,,,,,,,,,,,,,,,,,,,,,,,,,
,5eb05172d8a54b0e3f068d0a,001,2022-04-28_22h50.28.578,classification_task,2021.2.3,MacIntel,29.72651605,5eb05172d8a54b0e3f068d0a,626b377229c10585ec392f8a,626b3b30ac297ada2e3bae30,,,,,,,,,,,,,,,,,,,,,,,l,1,0.829,"[""0.495"",""0.183"",""0.640"",""0.702""]","[0,1,1,1]",0,33,33,33,1,1,0,,,0,FALSE,,,,,,,,,,,,,,,,,,,,,,,,,,,,,,
,5eb05172d8a54b0e3f068d0a,001,2022-04-28_22h50.28.578,classification_task,2021.2.3,MacIntel,29.72651605,5eb05172d8a54b0e3f068d0a,626b377229c10585ec392f8a,626b3b30ac297ada2e3bae30,,,,,,,,,,,,,,,,,,,,,,,l,1,1.057,"[""0.375"",""0.257"",""0.441"",""0.754""]","[0,1,1,1]",0,34,34,34,1,1,1,,,0,FALSE,,,,,,,,,,,,,,,,,,,,,,,,,,,,,,
,5eb05172d8a54b0e3f068d0a,001,2022-04-28_22h50.28.578,classification_task,2021.2.3,MacIntel,29.72651605,5eb05172d8a54b0e3f068d0a,626b377229c10585ec392f8a,626b3b30ac297ada2e3bae30,,,,,,,,,,,,,,,,,,,,,,,l,0,1.116,"[""0.397"",""0.557"",""0.903"",""0.967""]","[0,1,1,1]",0,35,35,35,1,0,0,,,0,FALSE,,,,,,,,,,,,,,,,,,,,,,,,,,,,,,
,5eb05172d8a54b0e3f068d0a,001,2022-04-28_22h50.28.578,classification_task,2021.2.3,MacIntel,29.72651605,5eb05172d8a54b0e3f068d0a,626b377229c10585ec392f8a,626b3b30ac297ada2e3bae30,,,,,,,,,,,,,,,,,,,,,,,l,0,1.063,"[""0.291"",""0.364"",""0.903"",""0.967""]","[1,0,1,1]",0,36,36,36,1,0,0,,,0,FALSE,,,,,,,,,,,,,,,,,,,,,,,,,,,,,,
,5eb05172d8a54b0e3f068d0a,001,2022-04-28_22h50.28.578,classification_task,2021.2.3,MacIntel,29.72651605,5eb05172d8a54b0e3f068d0a,626b377229c10585ec392f8a,626b3b30ac297ada2e3bae30,,,,,,,,,,,,,,,,,,,,,,,a,1,1.744,"[""0.407"",""0.328"",""0.796"",""0.851""]","[0,1,1,1]",0,37,37,37,1,0,1,,,0,FALSE,,,,,,,,,,,,,,,,,,,,,,,,,,,,,,
,5eb05172d8a54b0e3f068d0a,001,2022-04-28_22h50.28.578,classification_task,2021.2.3,MacIntel,29.72651605,5eb05172d8a54b0e3f068d0a,626b377229c10585ec392f8a,626b3b30ac297ada2e3bae30,,,,,,,,,,,,,,,,,,,,,,,l,1,2.799,"[""0.145"",""0.183"",""0.640"",""0.038""]","[1,1,1,0]",0,38,38,38,1,1,0,,,0,FALSE,,,,,,,,,,,,,,,,,,,,,,,,,,,,,,
,5eb05172d8a54b0e3f068d0a,001,2022-04-28_22h50.28.578,classification_task,2021.2.3,MacIntel,29.72651605,5eb05172d8a54b0e3f068d0a,626b377229c10585ec392f8a,626b3b30ac297ada2e3bae30,,,,,,,,,,,,,,,,,,,,,,,a,1,1.434,"[""0.218"",""0.328"",""0.796"",""0.490""]","[1,1,1,0]",0,39,39,39,1,0,1,,,0,FALSE,,,,,,,,,,,,,,,,,,,,,,,,,,,,,,
,5eb05172d8a54b0e3f068d0a,001,2022-04-28_22h50.28.578,classification_task,2021.2.3,MacIntel,29.72651605,5eb05172d8a54b0e3f068d0a,626b377229c10585ec392f8a,626b3b30ac297ada2e3bae30,,,,,,,,,,,,,,,,,,,,,,,l,1,1.311,"[""0.086"",""0.490"",""0.441"",""0.754""]","[1,0,1,1]",0,40,40,40,1,1,1,,,0,FALSE,,,,,,,,,,,,,,,,,,,,,,,,,,,,,,
,5eb05172d8a54b0e3f068d0a,001,2022-04-28_22h50.28.578,classification_task,2021.2.3,MacIntel,29.72651605,5eb05172d8a54b0e3f068d0a,626b377229c10585ec392f8a,626b3b30ac297ada2e3bae30,,,,,,,,,,,,,,,,,,,,,,,l,1,1.194,"[""0.145"",""0.183"",""0.593"",""0.702""]","[1,1,0,1]",0,41,41,41,1,1,0,,,0,FALSE,,,,,,,,,,,,,,,,,,,,,,,,,,,,,,
,5eb05172d8a54b0e3f068d0a,001,2022-04-28_22h50.28.578,classification_task,2021.2.3,MacIntel,29.72651605,5eb05172d8a54b0e3f068d0a,626b377229c10585ec392f8a,626b3b30ac297ada2e3bae30,,,,,,,,,,,,,,,,,,,,,,,l,1,1.182,"[""0.145"",""0.379"",""0.640"",""0.702""]","[1,0,1,1]",0,42,42,42,1,1,0,,,0,FALSE,,,,,,,,,,,,,,,,,,,,,,,,,,,,,,
,5eb05172d8a54b0e3f068d0a,001,2022-04-28_22h50.28.578,classification_task,2021.2.3,MacIntel,29.72651605,5eb05172d8a54b0e3f068d0a,626b377229c10585ec392f8a,626b3b30ac297ada2e3bae30,,,,,,,,,,,,,,,,,,,,,,,a,1,1.027,"[""0.291"",""0.557"",""0.495"",""0.967""]","[1,1,0,1]",0,43,43,43,1,0,0,,,0,FALSE,,,,,,,,,,,,,,,,,,,,,,,,,,,,,,
,5eb05172d8a54b0e3f068d0a,001,2022-04-28_22h50.28.578,classification_task,2021.2.3,MacIntel,29.72651605,5eb05172d8a54b0e3f068d0a,626b377229c10585ec392f8a,626b3b30ac297ada2e3bae30,,,,,,,,,,,,,,,,,,,,,,,l,1,1.359,"[""0.086"",""0.257"",""0.441"",""0.407""]","[1,1,1,0]",0,44,44,44,1,1,1,,,0,FALSE,,,,,,,,,,,,,,,,,,,,,,,,,,,,,,
,5eb05172d8a54b0e3f068d0a,001,2022-04-28_22h50.28.578,classification_task,2021.2.3,MacIntel,29.72651605,5eb05172d8a54b0e3f068d0a,626b377229c10585ec392f8a,626b3b30ac297ada2e3bae30,,,,,,,,,,,,,,,,,,,,,,,l,1,1.265,"[""0.086"",""0.257"",""0.495"",""0.754""]","[1,1,0,1]",0,45,45,45,1,1,1,,,0,FALSE,,,,,,,,,,,,,,,,,,,,,,,,,,,,,,
,5eb05172d8a54b0e3f068d0a,001,2022-04-28_22h50.28.578,classification_task,2021.2.3,MacIntel,29.72651605,5eb05172d8a54b0e3f068d0a,626b377229c10585ec392f8a,626b3b30ac297ada2e3bae30,,,,,,,,,,,,,,,,,,,,,,,a,1,1.75,"[""0.291"",""0.557"",""0.903"",""0.397""]","[1,1,1,0]",0,46,46,46,1,0,0,,,0,FALSE,,,,,,,,,,,,,,,,,,,,,,,,,,,,,,
,5eb05172d8a54b0e3f068d0a,001,2022-04-28_22h50.28.578,classification_task,2021.2.3,MacIntel,29.72651605,5eb05172d8a54b0e3f068d0a,626b377229c10585ec392f8a,626b3b30ac297ada2e3bae30,,,,,,,,,,,,,,,,,,,,,,,a,1,0.904,"[""0.218"",""0.328"",""0.375"",""0.851""]","[1,1,0,1]",0,47,47,47,1,0,1,,,0,FALSE,,,,,,,,,,,,,,,,,,,,,,,,,,,,,,
,5eb05172d8a54b0e3f068d0a,001,2022-04-28_22h50.28.578,classification_task,2021.2.3,MacIntel,29.72651605,5eb05172d8a54b0e3f068d0a,626b377229c10585ec392f8a,626b3b30ac297ada2e3bae30,,,,,,,,,,,,,,,,,,,,,,,l,0,1.169,"[""0.387"",""0.557"",""0.903"",""0.967""]","[0,1,1,1]",0,48,48,48,1,0,0,,,0,FALSE,,,,,,,,,,,,,,,,,,,,,,,,,,,,,,
,5eb05172d8a54b0e3f068d0a,001,2022-04-28_22h50.28.578,classification_task,2021.2.3,MacIntel,29.72651605,5eb05172d8a54b0e3f068d0a,626b377229c10585ec392f8a,626b3b30ac297ada2e3bae30,,,,,,,,,,,,,,,,,,,,,,,a,1,0.793,"[""0.291"",""0.557"",""0.593"",""0.967""]","[1,1,0,1]",0,49,49,49,1,0,0,,,0,FALSE,,,,,,,,,,,,,,,,,,,,,,,,,,,,,,
,5eb05172d8a54b0e3f068d0a,001,2022-04-28_22h50.28.578,classification_task,2021.2.3,MacIntel,29.72651605,5eb05172d8a54b0e3f068d0a,626b377229c10585ec392f8a,626b3b30ac297ada2e3bae30,,,,,,,,,,,,,,,,,,,,,,,l,1,1.109,"[""0.086"",""0.387"",""0.441"",""0.754""]","[1,0,1,1]",0,50,50,50,1,1,1,,,0,FALSE,,,,,,,,,,,,,,,,,,,,,,,,,,,,,,
,5eb05172d8a54b0e3f068d0a,001,2022-04-28_22h50.28.578,classification_task,2021.2.3,MacIntel,29.72651605,5eb05172d8a54b0e3f068d0a,626b377229c10585ec392f8a,626b3b30ac297ada2e3bae30,,,,,,,,,,,,,,,,,,,,,,,l,1,1.068,"[""0.086"",""0.257"",""0.441"",""0.364""]","[1,1,1,0]",0,51,51,51,1,1,1,,,0,FALSE,,,,,,,,,,,,,,,,,,,,,,,,,,,,,,
,5eb05172d8a54b0e3f068d0a,001,2022-04-28_22h50.28.578,classification_task,2021.2.3,MacIntel,29.72651605,5eb05172d8a54b0e3f068d0a,626b377229c10585ec392f8a,626b3b30ac297ada2e3bae30,,,,,,,,,,,,,,,,,,,,,,,a,1,0.718,"[""0.218"",""0.328"",""0.796"",""0.379""]","[1,1,1,0]",0,52,52,52,1,0,1,,,0,FALSE,,,,,,,,,,,,,,,,,,,,,,,,,,,,,,
,5eb05172d8a54b0e3f068d0a,001,2022-04-28_22h50.28.578,classification_task,2021.2.3,MacIntel,29.72651605,5eb05172d8a54b0e3f068d0a,626b377229c10585ec392f8a,626b3b30ac297ada2e3bae30,,,,,,,,,,,,,,,,,,,,,,,l,0,1.063,"[""0.291"",""0.379"",""0.903"",""0.967""]","[1,0,1,1]",0,53,53,53,1,0,0,,,0,FALSE,,,,,,,,,,,,,,,,,,,,,,,,,,,,,,
,5eb05172d8a54b0e3f068d0a,001,2022-04-28_22h50.28.578,classification_task,2021.2.3,MacIntel,29.72651605,5eb05172d8a54b0e3f068d0a,626b377229c10585ec392f8a,626b3b30ac297ada2e3bae30,,,,,,,,,,,,,,,,,,,,,,,l,0,1.084,"[""0.487"",""0.328"",""0.796"",""0.851""]","[0,1,1,1]",0,54,54,54,1,0,1,,,0,FALSE,,,,,,,,,,,,,,,,,,,,,,,,,,,,,,
,5eb05172d8a54b0e3f068d0a,001,2022-04-28_22h50.28.578,classification_task,2021.2.3,MacIntel,29.72651605,5eb05172d8a54b0e3f068d0a,626b377229c10585ec392f8a,626b3b30ac297ada2e3bae30,,,,,,,,,,,,,,,,,,,,,,,a,1,1.026,"[""0.218"",""0.495"",""0.796"",""0.851""]","[1,0,1,1]",0,55,55,55,1,0,1,,,0,FALSE,,,,,,,,,,,,,,,,,,,,,,,,,,,,,,
,5eb05172d8a54b0e3f068d0a,001,2022-04-28_22h50.28.578,classification_task,2021.2.3,MacIntel,29.72651605,5eb05172d8a54b0e3f068d0a,626b377229c10585ec392f8a,626b3b30ac297ada2e3bae30,,,,,,,,,,,,,,,,,,,,,,,a,1,1.069,"[""0.291"",""0.557"",""0.903"",""0.397""]","[1,1,1,0]",0,56,56,56,1,0,0,,,0,FALSE,,,,,,,,,,,,,,,,,,,,,,,,,,,,,,
,5eb05172d8a54b0e3f068d0a,001,2022-04-28_22h50.28.578,classification_task,2021.2.3,MacIntel,29.72651605,5eb05172d8a54b0e3f068d0a,626b377229c10585ec392f8a,626b3b30ac297ada2e3bae30,,,,,,,,,,,,,,,,,,,,,,,l,1,0.882,"[""0.145"",""0.387"",""0.640"",""0.702""]","[1,0,1,1]",0,57,57,57,1,1,0,,,0,FALSE,,,,,,,,,,,,,,,,,,,,,,,,,,,,,,
,5eb05172d8a54b0e3f068d0a,001,2022-04-28_22h50.28.578,classification_task,2021.2.3,MacIntel,29.72651605,5eb05172d8a54b0e3f068d0a,626b377229c10585ec392f8a,626b3b30ac297ada2e3bae30,,,,,,,,,,,,,,,,,,,,,,,l,1,0.882,"[""0.145"",""0.183"",""0.640"",""0.375""]","[1,1,1,0]",0,58,58,58,1,1,0,,,0,FALSE,,,,,,,,,,,,,,,,,,,,,,,,,,,,,,
,5eb05172d8a54b0e3f068d0a,001,2022-04-28_22h50.28.578,classification_task,2021.2.3,MacIntel,29.72651605,5eb05172d8a54b0e3f068d0a,626b377229c10585ec392f8a,626b3b30ac297ada2e3bae30,,,,,,,,,,,,,,,,,,,,,,,l,1,0.819,"[""0.145"",""0.183"",""0.490"",""0.702""]","[1,1,0,1]",0,59,59,59,1,1,0,,,0,FALSE,,,,,,,,,,,,,,,,,,,,,,,,,,,,,,
,5eb05172d8a54b0e3f068d0a,001,2022-04-28_22h50.28.578,classification_task,2021.2.3,MacIntel,29.72651605,5eb05172d8a54b0e3f068d0a,626b377229c10585ec392f8a,626b3b30ac297ada2e3bae30,,,,,,,,,,,,,,,,,,,,,,,l,1,1.335,"[""0.477"",""0.257"",""0.441"",""0.754""]","[0,1,1,1]",0,60,60,60,1,1,1,,,0,FALSE,,,,,,,,,,,,,,,,,,,,,,,,,,,,,,
,5eb05172d8a54b0e3f068d0a,001,2022-04-28_22h50.28.578,classification_task,2021.2.3,MacIntel,29.72651605,5eb05172d8a54b0e3f068d0a,626b377229c10585ec392f8a,626b3b30ac297ada2e3bae30,,,,,,,,,,,,,,,,,,,,,,,l,1,1.947,"[""0.395"",""0.183"",""0.640"",""0.702""]","[0,1,1,1]",0,61,61,61,1,1,0,,,0,FALSE,,,,,,,,,,,,,,,,,,,,,,,,,,,,,,
,5eb05172d8a54b0e3f068d0a,001,2022-04-28_22h50.28.578,classification_task,2021.2.3,MacIntel,29.72651605,5eb05172d8a54b0e3f068d0a,626b377229c10585ec392f8a,626b3b30ac297ada2e3bae30,,,,,,,,,,,,,,,,,,,,,,,a,1,1.007,"[""0.218"",""0.328"",""0.495"",""0.851""]","[1,1,0,1]",0,62,62,62,1,0,1,,,0,FALSE,,,,,,,,,,,,,,,,,,,,,,,,,,,,,,
,5eb05172d8a54b0e3f068d0a,001,2022-04-28_22h50.28.578,classification_task,2021.2.3,MacIntel,29.72651605,5eb05172d8a54b0e3f068d0a,626b377229c10585ec392f8a,626b3b30ac297ada2e3bae30,,,,,,,,,,,,,,,,,,,,,,,l,1,1.459,"[""0.086"",""0.257"",""0.495"",""0.754""]","[1,1,0,1]",0,63,63,63,1,1,1,,,0,FALSE,,,,,,,,,,,,,,,,,,,,,,,,,,,,,,
,5eb05172d8a54b0e3f068d0a,001,2022-04-28_22h50.28.578,classification_task,2021.2.3,MacIntel,29.72651605,5eb05172d8a54b0e3f068d0a,626b377229c10585ec392f8a,626b3b30ac297ada2e3bae30,,,,,,,,,,,,,,,,,,,,,,,,,,,,,,,,,,,,,,,0, ,,0,1.266901822,163.276,0,1,1,1,1,2,2,,,,,,,,,,,,,,,,,
,5eb05172d8a54b0e3f068d0a,001,2022-04-28_22h50.28.578,classification_task,2021.2.3,MacIntel,29.72651605,5eb05172d8a54b0e3f068d0a,626b377229c10585ec392f8a,626b3b30ac297ada2e3bae30,,,,,,,,,,,,,,,,,,,,,,,,,,,,,,,,,,,,,,,1,  ,,0,1.355085244,164.9,0,1,1,1,1,2,2,,,,,,,,,,,,,,,,,
,5eb05172d8a54b0e3f068d0a,001,2022-04-28_22h50.28.578,classification_task,2021.2.3,MacIntel,29.72651605,5eb05172d8a54b0e3f068d0a,626b377229c10585ec392f8a,626b3b30ac297ada2e3bae30,,,,,,,,,,,,,,,,,,,,,,,,,,,,,,,,,,,,,,,2,  ,,0,5.088183422,167.189,0,1,1,1,1,2,2,,,,,,,,,,,,,,,,,
,5eb05172d8a54b0e3f068d0a,001,2022-04-28_22h50.28.578,classification_task,2021.2.3,MacIntel,29.72651605,5eb05172d8a54b0e3f068d0a,626b377229c10585ec392f8a,626b3b30ac297ada2e3bae30,,,,,,,,,,,,,,,,,,,,,,,,,,,,,,,,,,,,,,,,,,,,,0,1,1,1,1,,2,,,,,,,,,,,,,,,,,
,5eb05172d8a54b0e3f068d0a,001,2022-04-28_22h50.28.578,classification_task,2021.2.3,MacIntel,29.72651605,5eb05172d8a54b0e3f068d0a,626b377229c10585ec392f8a,626b3b30ac297ada2e3bae30,,,,,,,,,,,,,,,,,,,,,space,6.859,l,1,1.459,"[""0.490"",""0.183"",""0.640"",""0.702""]","[0,1,1,1]",0,0,0,0,1,1,0,,,0,FALSE,,,,,,,,,,,,,,,,,,,,,,,,,,,,,,
,5eb05172d8a54b0e3f068d0a,001,2022-04-28_22h50.28.578,classification_task,2021.2.3,MacIntel,29.72651605,5eb05172d8a54b0e3f068d0a,626b377229c10585ec392f8a,626b3b30ac297ada2e3bae30,,,,,,,,,,,,,,,,,,,,,,,l,0,1.401,"[""0.038"",""0.557"",""0.903"",""0.967""]","[0,1,1,1]",0,1,1,1,1,0,0,,,0,FALSE,,,,,,,,,,,,,,,,,,,,,,,,,,,,,,
,5eb05172d8a54b0e3f068d0a,001,2022-04-28_22h50.28.578,classification_task,2021.2.3,MacIntel,29.72651605,5eb05172d8a54b0e3f068d0a,626b377229c10585ec392f8a,626b3b30ac297ada2e3bae30,,,,,,,,,,,,,,,,,,,,,,,l,1,1.592,"[""0.086"",""0.387"",""0.441"",""0.754""]","[1,0,1,1]",0,2,2,2,1,1,1,,,0,FALSE,,,,,,,,,,,,,,,,,,,,,,,,,,,,,,
,5eb05172d8a54b0e3f068d0a,001,2022-04-28_22h50.28.578,classification_task,2021.2.3,MacIntel,29.72651605,5eb05172d8a54b0e3f068d0a,626b377229c10585ec392f8a,626b3b30ac297ada2e3bae30,,,,,,,,,,,,,,,,,,,,,,,a,0,0.587,"[""0.145"",""0.183"",""0.640"",""0.594""]","[1,1,1,0]",0,3,3,3,1,1,0,,,0,FALSE,,,,,,,,,,,,,,,,,,,,,,,,,,,,,,
,5eb05172d8a54b0e3f068d0a,001,2022-04-28_22h50.28.578,classification_task,2021.2.3,MacIntel,29.72651605,5eb05172d8a54b0e3f068d0a,626b377229c10585ec392f8a,626b3b30ac297ada2e3bae30,,,,,,,,,,,,,,,,,,,,,,,l,1,1.242,"[""0.086"",""0.257"",""0.477"",""0.754""]","[1,1,0,1]",0,4,4,4,1,1,1,,,0,FALSE,,,,,,,,,,,,,,,,,,,,,,,,,,,,,,
,5eb05172d8a54b0e3f068d0a,001,2022-04-28_22h50.28.578,classification_task,2021.2.3,MacIntel,29.72651605,5eb05172d8a54b0e3f068d0a,626b377229c10585ec392f8a,626b3b30ac297ada2e3bae30,,,,,,,,,,,,,,,,,,,,,,,a,1,0.996,"[""0.403"",""0.328"",""0.796"",""0.851""]","[0,1,1,1]",0,5,5,5,1,0,1,,,0,FALSE,,,,,,,,,,,,,,,,,,,,,,,,,,,,,,
,5eb05172d8a54b0e3f068d0a,001,2022-04-28_22h50.28.578,classification_task,2021.2.3,MacIntel,29.72651605,5eb05172d8a54b0e3f068d0a,626b377229c10585ec392f8a,626b3b30ac297ada2e3bae30,,,,,,,,,,,,,,,,,,,,,,,a,1,1.059,"[""0.218"",""0.328"",""0.395"",""0.851""]","[1,1,0,1]",0,6,6,6,1,0,1,,,0,FALSE,,,,,,,,,,,,,,,,,,,,,,,,,,,,,,
,5eb05172d8a54b0e3f068d0a,001,2022-04-28_22h50.28.578,classification_task,2021.2.3,MacIntel,29.72651605,5eb05172d8a54b0e3f068d0a,626b377229c10585ec392f8a,626b3b30ac297ada2e3bae30,,,,,,,,,,,,,,,,,,,,,,,l,1,1.171,"[""0.145"",""0.594"",""0.640"",""0.702""]","[1,0,1,1]",0,7,7,7,1,1,0,,,0,FALSE,,,,,,,,,,,,,,,,,,,,,,,,,,,,,,
,5eb05172d8a54b0e3f068d0a,001,2022-04-28_22h50.28.578,classification_task,2021.2.3,MacIntel,29.72651605,5eb05172d8a54b0e3f068d0a,626b377229c10585ec392f8a,626b3b30ac297ada2e3bae30,,,,,,,,,,,,,,,,,,,,,,,a,1,0.98,"[""0.218"",""0.387"",""0.796"",""0.851""]","[1,0,1,1]",0,8,8,8,1,0,1,,,0,FALSE,,,,,,,,,,,,,,,,,,,,,,,,,,,,,,
,5eb05172d8a54b0e3f068d0a,001,2022-04-28_22h50.28.578,classification_task,2021.2.3,MacIntel,29.72651605,5eb05172d8a54b0e3f068d0a,626b377229c10585ec392f8a,626b3b30ac297ada2e3bae30,,,,,,,,,,,,,,,,,,,,,,,l,0,0.949,"[""0.218"",""0.328"",""0.796"",""0.038""]","[1,1,1,0]",0,9,9,9,1,0,1,,,0,FALSE,,,,,,,,,,,,,,,,,,,,,,,,,,,,,,
,5eb05172d8a54b0e3f068d0a,001,2022-04-28_22h50.28.578,classification_task,2021.2.3,MacIntel,29.72651605,5eb05172d8a54b0e3f068d0a,626b377229c10585ec392f8a,626b3b30ac297ada2e3bae30,,,,,,,,,,,,,,,,,,,,,,,l,0,0.91,"[""0.291"",""0.557"",""0.593"",""0.967""]","[1,1,0,1]",0,10,10,10,1,0,0,,,0,FALSE,,,,,,,,,,,,,,,,,,,,,,,,,,,,,,
,5eb05172d8a54b0e3f068d0a,001,2022-04-28_22h50.28.578,classification_task,2021.2.3,MacIntel,29.72651605,5eb05172d8a54b0e3f068d0a,626b377229c10585ec392f8a,626b3b30ac297ada2e3bae30,,,,,,,,,,,,,,,,,,,,,,,l,1,1.987,"[""0.399"",""0.257"",""0.441"",""0.754""]","[0,1,1,1]",0,11,11,11,1,1,1,,,0,FALSE,,,,,,,,,,,,,,,,,,,,,,,,,,,,,,
,5eb05172d8a54b0e3f068d0a,001,2022-04-28_22h50.28.578,classification_task,2021.2.3,MacIntel,29.72651605,5eb05172d8a54b0e3f068d0a,626b377229c10585ec392f8a,626b3b30ac297ada2e3bae30,,,,,,,,,,,,,,,,,,,,,,,l,1,1.554,"[""0.086"",""0.257"",""0.441"",""0.487""]","[1,1,1,0]",0,12,12,12,1,1,1,,,0,FALSE,,,,,,,,,,,,,,,,,,,,,,,,,,,,,,
,5eb05172d8a54b0e3f068d0a,001,2022-04-28_22h50.28.578,classification_task,2021.2.3,MacIntel,29.72651605,5eb05172d8a54b0e3f068d0a,626b377229c10585ec392f8a,626b3b30ac297ada2e3bae30,,,,,,,,,,,,,,,,,,,,,,,a,1,1.053,"[""0.291"",""0.038"",""0.903"",""0.967""]","[1,0,1,1]",0,13,13,13,1,0,0,,,0,FALSE,,,,,,,,,,,,,,,,,,,,,,,,,,,,,,
,5eb05172d8a54b0e3f068d0a,001,2022-04-28_22h50.28.578,classification_task,2021.2.3,MacIntel,29.72651605,5eb05172d8a54b0e3f068d0a,626b377229c10585ec392f8a,626b3b30ac297ada2e3bae30,,,,,,,,,,,,,,,,,,,,,,,a,1,1.052,"[""0.291"",""0.557"",""0.903"",""0.407""]","[1,1,1,0]",0,14,14,14,1,0,0,,,0,FALSE,,,,,,,,,,,,,,,,,,,,,,,,,,,,,,
,5eb05172d8a54b0e3f068d0a,001,2022-04-28_22h50.28.578,classification_task,2021.2.3,MacIntel,29.72651605,5eb05172d8a54b0e3f068d0a,626b377229c10585ec392f8a,626b3b30ac297ada2e3bae30,,,,,,,,,,,,,,,,,,,,,,,l,1,1.107,"[""0.145"",""0.183"",""0.593"",""0.702""]","[1,1,0,1]",0,15,15,15,1,1,0,,,0,FALSE,,,,,,,,,,,,,,,,,,,,,,,,,,,,,,
,5eb05172d8a54b0e3f068d0a,001,2022-04-28_22h50.28.578,classification_task,2021.2.3,MacIntel,29.72651605,5eb05172d8a54b0e3f068d0a,626b377229c10585ec392f8a,626b3b30ac297ada2e3bae30,,,,,,,,,,,,,,,,,,,,,,,l,1,1.014,"[""0.145"",""0.183"",""0.640"",""0.364""]","[1,1,1,0]",0,16,16,16,1,1,0,,,0,FALSE,,,,,,,,,,,,,,,,,,,,,,,,,,,,,,
,5eb05172d8a54b0e3f068d0a,001,2022-04-28_22h50.28.578,classification_task,2021.2.3,MacIntel,29.72651605,5eb05172d8a54b0e3f068d0a,626b377229c10585ec392f8a,626b3b30ac297ada2e3bae30,,,,,,,,,,,,,,,,,,,,,,,l,1,2.229,"[""0.145"",""0.379"",""0.640"",""0.702""]","[1,0,1,1]",0,17,17,17,1,1,0,,,0,FALSE,,,,,,,,,,,,,,,,,,,,,,,,,,,,,,
,5eb05172d8a54b0e3f068d0a,001,2022-04-28_22h50.28.578,classification_task,2021.2.3,MacIntel,29.72651605,5eb05172d8a54b0e3f068d0a,626b377229c10585ec392f8a,626b3b30ac297ada2e3bae30,,,,,,,,,,,,,,,,,,,,,,,l,1,1.359,"[""0.364"",""0.257"",""0.441"",""0.754""]","[0,1,1,1]",0,18,18,18,1,1,1,,,0,FALSE,,,,,,,,,,,,,,,,,,,,,,,,,,,,,,
,5eb05172d8a54b0e3f068d0a,001,2022-04-28_22h50.28.578,classification_task,2021.2.3,MacIntel,29.72651605,5eb05172d8a54b0e3f068d0a,626b377229c10585ec392f8a,626b3b30ac297ada2e3bae30,,,,,,,,,,,,,,,,,,,,,,,a,1,1.085,"[""0.218"",""0.328"",""0.796"",""0.038""]","[1,1,1,0]",0,19,19,19,1,0,1,,,0,FALSE,,,,,,,,,,,,,,,,,,,,,,,,,,,,,,
,5eb05172d8a54b0e3f068d0a,001,2022-04-28_22h50.28.578,classification_task,2021.2.3,MacIntel,29.72651605,5eb05172d8a54b0e3f068d0a,626b377229c10585ec392f8a,626b3b30ac297ada2e3bae30,,,,,,,,,,,,,,,,,,,,,,,l,0,1.632,"[""0.364"",""0.328"",""0.796"",""0.851""]","[0,1,1,1]",0,20,20,20,1,0,1,,,0,FALSE,,,,,,,,,,,,,,,,,,,,,,,,,,,,,,
,5eb05172d8a54b0e3f068d0a,001,2022-04-28_22h50.28.578,classification_task,2021.2.3,MacIntel,29.72651605,5eb05172d8a54b0e3f068d0a,626b377229c10585ec392f8a,626b3b30ac297ada2e3bae30,,,,,,,,,,,,,,,,,,,,,,,l,1,0.795,"[""0.145"",""0.183"",""0.477"",""0.702""]","[1,1,0,1]",0,21,21,21,1,1,0,,,0,FALSE,,,,,,,,,,,,,,,,,,,,,,,,,,,,,,
,5eb05172d8a54b0e3f068d0a,001,2022-04-28_22h50.28.578,classification_task,2021.2.3,MacIntel,29.72651605,5eb05172d8a54b0e3f068d0a,626b377229c10585ec392f8a,626b3b30ac297ada2e3bae30,,,,,,,,,,,,,,,,,,,,,,,l,1,1.137,"[""0.086"",""0.257"",""0.441"",""0.387""]","[1,1,1,0]",0,22,22,22,1,1,1,,,0,FALSE,,,,,,,,,,,,,,,,,,,,,,,,,,,,,,
,5eb05172d8a54b0e3f068d0a,001,2022-04-28_22h50.28.578,classification_task,2021.2.3,MacIntel,29.72651605,5eb05172d8a54b0e3f068d0a,626b377229c10585ec392f8a,626b3b30ac297ada2e3bae30,,,,,,,,,,,,,,,,,,,,,,,a,1,1.499,"[""0.291"",""0.557"",""0.477"",""0.967""]","[1,1,0,1]",0,23,23,23,1,0,0,,,0,FALSE,,,,,,,,,,,,,,,,,,,,,,,,,,,,,,
,5eb05172d8a54b0e3f068d0a,001,2022-04-28_22h50.28.578,classification_task,2021.2.3,MacIntel,29.72651605,5eb05172d8a54b0e3f068d0a,626b377229c10585ec392f8a,626b3b30ac297ada2e3bae30,,,,,,,,,,,,,,,,,,,,,,,l,1,1.098,"[""0.399"",""0.183"",""0.640"",""0.702""]","[0,1,1,1]",0,24,24,24,1,1,0,,,0,FALSE,,,,,,,,,,,,,,,,,,,,,,,,,,,,,,
,5eb05172d8a54b0e3f068d0a,001,2022-04-28_22h50.28.578,classification_task,2021.2.3,MacIntel,29.72651605,5eb05172d8a54b0e3f068d0a,626b377229c10585ec392f8a,626b3b30ac297ada2e3bae30,,,,,,,,,,,,,,,,,,,,,,,a,1,1.052,"[""0.291"",""0.557"",""0.903"",""0.364""]","[1,1,1,0]",0,25,25,25,1,0,0,,,0,FALSE,,,,,,,,,,,,,,,,,,,,,,,,,,,,,,
,5eb05172d8a54b0e3f068d0a,001,2022-04-28_22h50.28.578,classification_task,2021.2.3,MacIntel,29.72651605,5eb05172d8a54b0e3f068d0a,626b377229c10585ec392f8a,626b3b30ac297ada2e3bae30,,,,,,,,,,,,,,,,,,,,,,,a,1,1.057,"[""0.218"",""0.395"",""0.796"",""0.851""]","[1,0,1,1]",0,26,26,26,1,0,1,,,0,FALSE,,,,,,,,,,,,,,,,,,,,,,,,,,,,,,
,5eb05172d8a54b0e3f068d0a,001,2022-04-28_22h50.28.578,classification_task,2021.2.3,MacIntel,29.72651605,5eb05172d8a54b0e3f068d0a,626b377229c10585ec392f8a,626b3b30ac297ada2e3bae30,,,,,,,,,,,,,,,,,,,,,,,a,1,0.902,"[""0.218"",""0.328"",""0.594"",""0.851""]","[1,1,0,1]",0,27,27,27,1,0,1,,,0,FALSE,,,,,,,,,,,,,,,,,,,,,,,,,,,,,,
,5eb05172d8a54b0e3f068d0a,001,2022-04-28_22h50.28.578,classification_task,2021.2.3,MacIntel,29.72651605,5eb05172d8a54b0e3f068d0a,626b377229c10585ec392f8a,626b3b30ac297ada2e3bae30,,,,,,,,,,,,,,,,,,,,,,,a,1,0.852,"[""0.291"",""0.477"",""0.903"",""0.967""]","[1,0,1,1]",0,28,28,28,1,0,0,,,0,FALSE,,,,,,,,,,,,,,,,,,,,,,,,,,,,,,
,5eb05172d8a54b0e3f068d0a,001,2022-04-28_22h50.28.578,classification_task,2021.2.3,MacIntel,29.72651605,5eb05172d8a54b0e3f068d0a,626b377229c10585ec392f8a,626b3b30ac297ada2e3bae30,,,,,,,,,,,,,,,,,,,,,,,l,1,1.811,"[""0.086"",""0.594"",""0.441"",""0.754""]","[1,0,1,1]",0,29,29,29,1,1,1,,,0,FALSE,,,,,,,,,,,,,,,,,,,,,,,,,,,,,,
,5eb05172d8a54b0e3f068d0a,001,2022-04-28_22h50.28.578,classification_task,2021.2.3,MacIntel,29.72651605,5eb05172d8a54b0e3f068d0a,626b377229c10585ec392f8a,626b3b30ac297ada2e3bae30,,,,,,,,,,,,,,,,,,,,,,,l,0,2.058,"[""0.477"",""0.557"",""0.903"",""0.967""]","[0,1,1,1]",0,30,30,30,1,0,0,,,0,FALSE,,,,,,,,,,,,,,,,,,,,,,,,,,,,,,
,5eb05172d8a54b0e3f068d0a,001,2022-04-28_22h50.28.578,classification_task,2021.2.3,MacIntel,29.72651605,5eb05172d8a54b0e3f068d0a,626b377229c10585ec392f8a,626b3b30ac297ada2e3bae30,,,,,,,,,,,,,,,,,,,,,,,l,1,1.098,"[""0.086"",""0.257"",""0.375"",""0.754""]","[1,1,0,1]",0,31,31,31,1,1,1,,,0,FALSE,,,,,,,,,,,,,,,,,,,,,,,,,,,,,,
,5eb05172d8a54b0e3f068d0a,001,2022-04-28_22h50.28.578,classification_task,2021.2.3,MacIntel,29.72651605,5eb05172d8a54b0e3f068d0a,626b377229c10585ec392f8a,626b3b30ac297ada2e3bae30,,,,,,,,,,,,,,,,,,,,,,,a,1,1.005,"[""0.291"",""0.557"",""0.594"",""0.967""]","[1,1,0,1]",0,32,32,32,1,0,0,,,0,FALSE,,,,,,,,,,,,,,,,,,,,,,,,,,,,,,
,5eb05172d8a54b0e3f068d0a,001,2022-04-28_22h50.28.578,classification_task,2021.2.3,MacIntel,29.72651605,5eb05172d8a54b0e3f068d0a,626b377229c10585ec392f8a,626b3b30ac297ada2e3bae30,,,,,,,,,,,,,,,,,,,,,,,l,1,1.407,"[""0.086"",""0.257"",""0.441"",""0.403""]","[1,1,1,0]",0,33,33,33,1,1,1,,,0,FALSE,,,,,,,,,,,,,,,,,,,,,,,,,,,,,,
,5eb05172d8a54b0e3f068d0a,001,2022-04-28_22h50.28.578,classification_task,2021.2.3,MacIntel,29.72651605,5eb05172d8a54b0e3f068d0a,626b377229c10585ec392f8a,626b3b30ac297ada2e3bae30,,,,,,,,,,,,,,,,,,,,,,,l,1,2.399,"[""0.477"",""0.183"",""0.640"",""0.702""]","[0,1,1,1]",0,34,34,34,1,1,0,,,0,FALSE,,,,,,,,,,,,,,,,,,,,,,,,,,,,,,
,5eb05172d8a54b0e3f068d0a,001,2022-04-28_22h50.28.578,classification_task,2021.2.3,MacIntel,29.72651605,5eb05172d8a54b0e3f068d0a,626b377229c10585ec392f8a,626b3b30ac297ada2e3bae30,,,,,,,,,,,,,,,,,,,,,,,l,1,1.057,"[""0.145"",""0.183"",""0.640"",""0.387""]","[1,1,1,0]",0,35,35,35,1,1,0,,,0,FALSE,,,,,,,,,,,,,,,,,,,,,,,,,,,,,,
,5eb05172d8a54b0e3f068d0a,001,2022-04-28_22h50.28.578,classification_task,2021.2.3,MacIntel,29.72651605,5eb05172d8a54b0e3f068d0a,626b377229c10585ec392f8a,626b3b30ac297ada2e3bae30,,,,,,,,,,,,,,,,,,,,,,,a,1,0.948,"[""0.218"",""0.594"",""0.796"",""0.851""]","[1,0,1,1]",0,36,36,36,1,0,1,,,0,FALSE,,,,,,,,,,,,,,,,,,,,,,,,,,,,,,
,5eb05172d8a54b0e3f068d0a,001,2022-04-28_22h50.28.578,classification_task,2021.2.3,MacIntel,29.72651605,5eb05172d8a54b0e3f068d0a,626b377229c10585ec392f8a,626b3b30ac297ada2e3bae30,,,,,,,,,,,,,,,,,,,,,,,l,1,1.179,"[""0.145"",""0.477"",""0.640"",""0.702""]","[1,0,1,1]",0,37,37,37,1,1,0,,,0,FALSE,,,,,,,,,,,,,,,,,,,,,,,,,,,,,,
,5eb05172d8a54b0e3f068d0a,001,2022-04-28_22h50.28.578,classification_task,2021.2.3,MacIntel,29.72651605,5eb05172d8a54b0e3f068d0a,626b377229c10585ec392f8a,626b3b30ac297ada2e3bae30,,,,,,,,,,,,,,,,,,,,,,,a,1,0.877,"[""0.218"",""0.328"",""0.399"",""0.851""]","[1,1,0,1]",0,38,38,38,1,0,1,,,0,FALSE,,,,,,,,,,,,,,,,,,,,,,,,,,,,,,
,5eb05172d8a54b0e3f068d0a,001,2022-04-28_22h50.28.578,classification_task,2021.2.3,MacIntel,29.72651605,5eb05172d8a54b0e3f068d0a,626b377229c10585ec392f8a,626b3b30ac297ada2e3bae30,,,,,,,,,,,,,,,,,,,,,,,a,1,1.107,"[""0.291"",""0.557"",""0.903"",""0.364""]","[1,1,1,0]",0,39,39,39,1,0,0,,,0,FALSE,,,,,,,,,,,,,,,,,,,,,,,,,,,,,,
,5eb05172d8a54b0e3f068d0a,001,2022-04-28_22h50.28.578,classification_task,2021.2.3,MacIntel,29.72651605,5eb05172d8a54b0e3f068d0a,626b377229c10585ec392f8a,626b3b30ac297ada2e3bae30,,,,,,,,,,,,,,,,,,,,,,,a,1,1.381,"[""0.218"",""0.328"",""0.796"",""0.403""]","[1,1,1,0]",0,40,40,40,1,0,1,,,0,FALSE,,,,,,,,,,,,,,,,,,,,,,,,,,,,,,
,5eb05172d8a54b0e3f068d0a,001,2022-04-28_22h50.28.578,classification_task,2021.2.3,MacIntel,29.72651605,5eb05172d8a54b0e3f068d0a,626b377229c10585ec392f8a,626b3b30ac297ada2e3bae30,,,,,,,,,,,,,,,,,,,,,,,l,1,1.556,"[""0.086"",""0.403"",""0.441"",""0.754""]","[1,0,1,1]",0,41,41,41,1,1,1,,,0,FALSE,,,,,,,,,,,,,,,,,,,,,,,,,,,,,,
,5eb05172d8a54b0e3f068d0a,001,2022-04-28_22h50.28.578,classification_task,2021.2.3,MacIntel,29.72651605,5eb05172d8a54b0e3f068d0a,626b377229c10585ec392f8a,626b3b30ac297ada2e3bae30,,,,,,,,,,,,,,,,,,,,,,,a,1,1.628,"[""0.379"",""0.328"",""0.796"",""0.851""]","[0,1,1,1]",0,42,42,42,1,0,1,,,0,FALSE,,,,,,,,,,,,,,,,,,,,,,,,,,,,,,
,5eb05172d8a54b0e3f068d0a,001,2022-04-28_22h50.28.578,classification_task,2021.2.3,MacIntel,29.72651605,5eb05172d8a54b0e3f068d0a,626b377229c10585ec392f8a,626b3b30ac297ada2e3bae30,,,,,,,,,,,,,,,,,,,,,,,l,1,1.199,"[""0.086"",""0.257"",""0.593"",""0.754""]","[1,1,0,1]",0,43,43,43,1,1,1,,,0,FALSE,,,,,,,,,,,,,,,,,,,,,,,,,,,,,,
,5eb05172d8a54b0e3f068d0a,001,2022-04-28_22h50.28.578,classification_task,2021.2.3,MacIntel,29.72651605,5eb05172d8a54b0e3f068d0a,626b377229c10585ec392f8a,626b3b30ac297ada2e3bae30,,,,,,,,,,,,,,,,,,,,,,,l,1,1.096,"[""0.145"",""0.183"",""0.487"",""0.702""]","[1,1,0,1]",0,44,44,44,1,1,0,,,0,FALSE,,,,,,,,,,,,,,,,,,,,,,,,,,,,,,
,5eb05172d8a54b0e3f068d0a,001,2022-04-28_22h50.28.578,classification_task,2021.2.3,MacIntel,29.72651605,5eb05172d8a54b0e3f068d0a,626b377229c10585ec392f8a,626b3b30ac297ada2e3bae30,,,,,,,,,,,,,,,,,,,,,,,l,1,1.409,"[""0.364"",""0.257"",""0.441"",""0.754""]","[0,1,1,1]",0,45,45,45,1,1,1,,,0,FALSE,,,,,,,,,,,,,,,,,,,,,,,,,,,,,,
,5eb05172d8a54b0e3f068d0a,001,2022-04-28_22h50.28.578,classification_task,2021.2.3,MacIntel,29.72651605,5eb05172d8a54b0e3f068d0a,626b377229c10585ec392f8a,626b3b30ac297ada2e3bae30,,,,,,,,,,,,,,,,,,,,,,,l,0,2.001,"[""0.403"",""0.557"",""0.903"",""0.967""]","[0,1,1,1]",0,46,46,46,1,0,0,,,0,FALSE,,,,,,,,,,,,,,,,,,,,,,,,,,,,,,
,5eb05172d8a54b0e3f068d0a,001,2022-04-28_22h50.28.578,classification_task,2021.2.3,MacIntel,29.72651605,5eb05172d8a54b0e3f068d0a,626b377229c10585ec392f8a,626b3b30ac297ada2e3bae30,,,,,,,,,,,,,,,,,,,,,,,a,1,0.969,"[""0.291"",""0.594"",""0.903"",""0.967""]","[1,0,1,1]",0,47,47,47,1,0,0,,,0,FALSE,,,,,,,,,,,,,,,,,,,,,,,,,,,,,,
,5eb05172d8a54b0e3f068d0a,001,2022-04-28_22h50.28.578,classification_task,2021.2.3,MacIntel,29.72651605,5eb05172d8a54b0e3f068d0a,626b377229c10585ec392f8a,626b3b30ac297ada2e3bae30,,,,,,,,,,,,,,,,,,,,,,,l,0,0.842,"[""0.364"",""0.557"",""0.903"",""0.967""]","[0,1,1,1]",0,48,48,48,1,0,0,,,0,FALSE,,,,,,,,,,,,,,,,,,,,,,,,,,,,,,
,5eb05172d8a54b0e3f068d0a,001,2022-04-28_22h50.28.578,classification_task,2021.2.3,MacIntel,29.72651605,5eb05172d8a54b0e3f068d0a,626b377229c10585ec392f8a,626b3b30ac297ada2e3bae30,,,,,,,,,,,,,,,,,,,,,,,a,1,0.842,"[""0.291"",""0.557"",""0.379"",""0.967""]","[1,1,0,1]",0,49,49,49,1,0,0,,,0,FALSE,,,,,,,,,,,,,,,,,,,,,,,,,,,,,,
,5eb05172d8a54b0e3f068d0a,001,2022-04-28_22h50.28.578,classification_task,2021.2.3,MacIntel,29.72651605,5eb05172d8a54b0e3f068d0a,626b377229c10585ec392f8a,626b3b30ac297ada2e3bae30,,,,,,,,,,,,,,,,,,,,,,,a,1,1.191,"[""0.218"",""0.407"",""0.796"",""0.851""]","[1,0,1,1]",0,50,50,50,1,0,1,,,0,FALSE,,,,,,,,,,,,,,,,,,,,,,,,,,,,,,
,5eb05172d8a54b0e3f068d0a,001,2022-04-28_22h50.28.578,classification_task,2021.2.3,MacIntel,29.72651605,5eb05172d8a54b0e3f068d0a,626b377229c10585ec392f8a,626b3b30ac297ada2e3bae30,,,,,,,,,,,,,,,,,,,,,,,l,1,1.89,"[""0.145"",""0.183"",""0.640"",""0.403""]","[1,1,1,0]",0,51,51,51,1,1,0,,,0,FALSE,,,,,,,,,,,,,,,,,,,,,,,,,,,,,,
,5eb05172d8a54b0e3f068d0a,001,2022-04-28_22h50.28.578,classification_task,2021.2.3,MacIntel,29.72651605,5eb05172d8a54b0e3f068d0a,626b377229c10585ec392f8a,626b3b30ac297ada2e3bae30,,,,,,,,,,,,,,,,,,,,,,,l,1,1.171,"[""0.086"",""0.257"",""0.397"",""0.754""]","[1,1,0,1]",0,52,52,52,1,1,1,,,0,FALSE,,,,,,,,,,,,,,,,,,,,,,,,,,,,,,
,5eb05172d8a54b0e3f068d0a,001,2022-04-28_22h50.28.578,classification_task,2021.2.3,MacIntel,29.72651605,5eb05172d8a54b0e3f068d0a,626b377229c10585ec392f8a,626b3b30ac297ada2e3bae30,,,,,,,,,,,,,,,,,,,,,,,a,1,1.084,"[""0.291"",""0.557"",""0.903"",""0.594""]","[1,1,1,0]",0,53,53,53,1,0,0,,,0,FALSE,,,,,,,,,,,,,,,,,,,,,,,,,,,,,,
,5eb05172d8a54b0e3f068d0a,001,2022-04-28_22h50.28.578,classification_task,2021.2.3,MacIntel,29.72651605,5eb05172d8a54b0e3f068d0a,626b377229c10585ec392f8a,626b3b30ac297ada2e3bae30,,,,,,,,,,,,,,,,,,,,,,,a,1,0.955,"[""0.218"",""0.328"",""0.796"",""0.364""]","[1,1,1,0]",0,54,54,54,1,0,1,,,0,FALSE,,,,,,,,,,,,,,,,,,,,,,,,,,,,,,
,5eb05172d8a54b0e3f068d0a,001,2022-04-28_22h50.28.578,classification_task,2021.2.3,MacIntel,29.72651605,5eb05172d8a54b0e3f068d0a,626b377229c10585ec392f8a,626b3b30ac297ada2e3bae30,,,,,,,,,,,,,,,,,,,,,,,l,1,4.088,"[""0.387"",""0.183"",""0.640"",""0.702""]","[0,1,1,1]",0,55,55,55,1,1,0,,,0,FALSE,,,,,,,,,,,,,,,,,,,,,,,,,,,,,,
,5eb05172d8a54b0e3f068d0a,001,2022-04-28_22h50.28.578,classification_task,2021.2.3,MacIntel,29.72651605,5eb05172d8a54b0e3f068d0a,626b377229c10585ec392f8a,626b3b30ac297ada2e3bae30,,,,,,,,,,,,,,,,,,,,,,,l,1,1.077,"[""0.086"",""0.257"",""0.441"",""0.364""]","[1,1,1,0]",0,56,56,56,1,1,1,,,0,FALSE,,,,,,,,,,,,,,,,,,,,,,,,,,,,,,
,5eb05172d8a54b0e3f068d0a,001,2022-04-28_22h50.28.578,classification_task,2021.2.3,MacIntel,29.72651605,5eb05172d8a54b0e3f068d0a,626b377229c10585ec392f8a,626b3b30ac297ada2e3bae30,,,,,,,,,,,,,,,,,,,,,,,a,1,1.148,"[""0.218"",""0.328"",""0.487"",""0.851""]","[1,1,0,1]",0,57,57,57,1,0,1,,,0,FALSE,,,,,,,,,,,,,,,,,,,,,,,,,,,,,,
,5eb05172d8a54b0e3f068d0a,001,2022-04-28_22h50.28.578,classification_task,2021.2.3,MacIntel,29.72651605,5eb05172d8a54b0e3f068d0a,626b377229c10585ec392f8a,626b3b30ac297ada2e3bae30,,,,,,,,,,,,,,,,,,,,,,,l,0,0.795,"[""0.291"",""0.387"",""0.903"",""0.967""]","[1,0,1,1]",0,58,58,58,1,0,0,,,0,FALSE,,,,,,,,,,,,,,,,,,,,,,,,,,,,,,
,5eb05172d8a54b0e3f068d0a,001,2022-04-28_22h50.28.578,classification_task,2021.2.3,MacIntel,29.72651605,5eb05172d8a54b0e3f068d0a,626b377229c10585ec392f8a,626b3b30ac297ada2e3bae30,,,,,,,,,,,,,,,,,,,,,,,l,1,1.541,"[""0.086"",""0.397"",""0.441"",""0.754""]","[1,0,1,1]",0,59,59,59,1,1,1,,,0,FALSE,,,,,,,,,,,,,,,,,,,,,,,,,,,,,,
,5eb05172d8a54b0e3f068d0a,001,2022-04-28_22h50.28.578,classification_task,2021.2.3,MacIntel,29.72651605,5eb05172d8a54b0e3f068d0a,626b377229c10585ec392f8a,626b3b30ac297ada2e3bae30,,,,,,,,,,,,,,,,,,,,,,,a,0,0.841,"[""0.364"",""0.257"",""0.441"",""0.754""]","[0,1,1,1]",0,60,60,60,1,1,1,,,0,FALSE,,,,,,,,,,,,,,,,,,,,,,,,,,,,,,
,5eb05172d8a54b0e3f068d0a,001,2022-04-28_22h50.28.578,classification_task,2021.2.3,MacIntel,29.72651605,5eb05172d8a54b0e3f068d0a,626b377229c10585ec392f8a,626b3b30ac297ada2e3bae30,,,,,,,,,,,,,,,,,,,,,,,l,1,1.513,"[""0.145"",""0.387"",""0.640"",""0.702""]","[1,0,1,1]",0,61,61,61,1,1,0,,,0,FALSE,,,,,,,,,,,,,,,,,,,,,,,,,,,,,,
,5eb05172d8a54b0e3f068d0a,001,2022-04-28_22h50.28.578,classification_task,2021.2.3,MacIntel,29.72651605,5eb05172d8a54b0e3f068d0a,626b377229c10585ec392f8a,626b3b30ac297ada2e3bae30,,,,,,,,,,,,,,,,,,,,,,,l,0,1.078,"[""0.594"",""0.328"",""0.796"",""0.851""]","[0,1,1,1]",0,62,62,62,1,0,1,,,0,FALSE,,,,,,,,,,,,,,,,,,,,,,,,,,,,,,
,5eb05172d8a54b0e3f068d0a,001,2022-04-28_22h50.28.578,classification_task,2021.2.3,MacIntel,29.72651605,5eb05172d8a54b0e3f068d0a,626b377229c10585ec392f8a,626b3b30ac297ada2e3bae30,,,,,,,,,,,,,,,,,,,,,,,l,1,0.843,"[""0.145"",""0.183"",""0.387"",""0.702""]","[1,1,0,1]",0,63,63,63,1,1,0,,,0,FALSE,,,,,,,,,,,,,,,,,,,,,,,,,,,,,,
,5eb05172d8a54b0e3f068d0a,001,2022-04-28_22h50.28.578,classification_task,2021.2.3,MacIntel,29.72651605,5eb05172d8a54b0e3f068d0a,626b377229c10585ec392f8a,626b3b30ac297ada2e3bae30,,,,,,,,,,,,,,,,,,,,,,,,,,,,,,,,,,,,,,,0, ,,0,0.94356261,159.078,0,2,2,2,1,2,3,,,,,,,,,,,,,,,,,
,5eb05172d8a54b0e3f068d0a,001,2022-04-28_22h50.28.578,classification_task,2021.2.3,MacIntel,29.72651605,5eb05172d8a54b0e3f068d0a,626b377229c10585ec392f8a,626b3b30ac297ada2e3bae30,,,,,,,,,,,,,,,,,,,,,,,,,,,,,,,,,,,,,,,1,  ,,0,2.08994709,162.785,0,2,2,2,1,2,3,,,,,,,,,,,,,,,,,
,5eb05172d8a54b0e3f068d0a,001,2022-04-28_22h50.28.578,classification_task,2021.2.3,MacIntel,29.72651605,5eb05172d8a54b0e3f068d0a,626b377229c10585ec392f8a,626b3b30ac297ada2e3bae30,,,,,,,,,,,,,,,,,,,,,,,,,,,,,,,,,,,,,,,2,  ,,0,4.470899471,164.84,0,2,2,2,1,2,3,,,,,,,,,,,,,,,,,
,5eb05172d8a54b0e3f068d0a,001,2022-04-28_22h50.28.578,classification_task,2021.2.3,MacIntel,29.72651605,5eb05172d8a54b0e3f068d0a,626b377229c10585ec392f8a,626b3b30ac297ada2e3bae30,,,,,,,,,,,,,,,,,,,,,,,,,,,,,,,,,,,,,,,,,,,,,0,2,2,2,1,,3,,,,,,,,,,,,,,,,,
,5eb05172d8a54b0e3f068d0a,001,2022-04-28_22h50.28.578,classification_task,2021.2.3,MacIntel,29.72651605,5eb05172d8a54b0e3f068d0a,626b377229c10585ec392f8a,626b3b30ac297ada2e3bae30,,,,,,,,,,,,,,,,,,,,,,,,,,,,,,,,,,,,,,,,,,,,,,,,,,,,,I believe the aid is a competent performer,,0.7,0,1,630.411,0,0,0,0,1,0,,,,
,5eb05172d8a54b0e3f068d0a,001,2022-04-28_22h50.28.578,classification_task,2021.2.3,MacIntel,29.72651605,5eb05172d8a54b0e3f068d0a,626b377229c10585ec392f8a,626b3b30ac297ada2e3bae30,,,,,,,,,,,,,,,,,,,,,,,,,,,,,,,,,,,,,,,,,,,,,,,,,,,,,I trust the aid,,0.7,0,1,631.424,0,0,0,0,1,0,,,,
,5eb05172d8a54b0e3f068d0a,001,2022-04-28_22h50.28.578,classification_task,2021.2.3,MacIntel,29.72651605,5eb05172d8a54b0e3f068d0a,626b377229c10585ec392f8a,626b3b30ac297ada2e3bae30,,,,,,,,,,,,,,,,,,,,,,,,,,,,,,,,,,,,,,,,,,,,,,,,,,,,,I have confidence in the advice given by the aid,,0.7,0,1,633.481,0,0,0,0,1,0,,,,
,5eb05172d8a54b0e3f068d0a,001,2022-04-28_22h50.28.578,classification_task,2021.2.3,MacIntel,29.72651605,5eb05172d8a54b0e3f068d0a,626b377229c10585ec392f8a,626b3b30ac297ada2e3bae30,,,,,,,,,,,,,,,,,,,,,,,,,,,,,,,,,,,,,,,,,,,,,,,,,,,,,I can depend on the aid,,0.7,0,1,634.439,0,0,0,0,1,0,,,,
,5eb05172d8a54b0e3f068d0a,001,2022-04-28_22h50.28.578,classification_task,2021.2.3,MacIntel,29.72651605,5eb05172d8a54b0e3f068d0a,626b377229c10585ec392f8a,626b3b30ac297ada2e3bae30,,,,,,,,,,,,,,,,,,,,,,,,,,,,,,,,,,,,,,,,,,,,,,,,,,,,,I can rely on the aid to behave in consistent ways,,0.7,0,1,635.784,0,0,0,0,1,0,,,,
,5eb05172d8a54b0e3f068d0a,001,2022-04-28_22h50.28.578,classification_task,2021.2.3,MacIntel,29.72651605,5eb05172d8a54b0e3f068d0a,626b377229c10585ec392f8a,626b3b30ac297ada2e3bae30,,,,,,,,,,,,,,,,,,,,,,,,,,,,,,,,,,,,,,,,,,,,,,,,,,,,,I can rely on the aid to do its best every time I take its advice,,0.7,0,1,636.98,0,0,0,0,1,0,,,,
,5eb05172d8a54b0e3f068d0a,001,2022-04-28_22h50.28.578,classification_task,2021.2.3,MacIntel,29.72651605,5eb05172d8a54b0e3f068d0a,626b377229c10585ec392f8a,626b3b30ac297ada2e3bae30,,,,,,,,,,,,,,,,,,,,,,,,,,,,,,,,,,,,,,,,,,,,,,,,,,,,,"On trials you completed with assistance from the aid, how frequently did you think the aid was correct?",,0.7,0,0%,,0,0,0,0,1,0,,,,
,5eb05172d8a54b0e3f068d0a,001,2022-04-28_22h50.28.578,classification_task,2021.2.3,MacIntel,29.72651605,5eb05172d8a54b0e3f068d0a,626b377229c10585ec392f8a,626b3b30ac297ada2e3bae30,,,,,,,,,,,,,,,,,,,,,,,,,,,,,,,,,,,,,,,,,,,,,,,,,,,,,"On trials you completed without the aid, how frequently did you think you were correct?",,0.7,0,80%,,0,0,0,0,1,0,,,,
,5eb05172d8a54b0e3f068d0a,001,2022-04-28_22h50.28.578,classification_task,2021.2.3,MacIntel,29.72651605,5eb05172d8a54b0e3f068d0a,626b377229c10585ec392f8a,626b3b30ac297ada2e3bae30,,,,,,,,,,,,,,,,,,,,,,,,,,,,,,,,,,,,,,,,,,,,,,,,,,,,,,,,,,,0,0,0,0,1,,,,,
,5eb05172d8a54b0e3f068d0a,001,2022-04-28_22h50.28.578,classification_task,2021.2.3,MacIntel,29.72651605,5eb05172d8a54b0e3f068d0a,626b377229c10585ec392f8a,626b3b30ac297ada2e3bae30,,,,,,,,,,,,,,,,,,,,,,,,,,,,,,,,,,,,,,,,,,,,,,,,,,,,,,,,,,,,,,,,,space,6.893,660.09,
,5eb05172d8a54b0e3f068d0a,001,2022-04-28_22h50.28.578,classification_task,2021.2.3,MacIntel,29.72651605,5eb05172d8a54b0e3f068d0a,626b377229c10585ec392f8a,626b3b30ac297ada2e3bae30,,,,,,,,,,,,,,,,,,,,,,,,,,,,,,,,,,,,,,,,,,,,,,,,,,,,,,,,,,,,,,,,,,,,Mozilla/5.0 (Macintosh; Intel Mac OS X 10.12; rv:99.0) Gecko/20100101 Firefox/99.0
