usingWebGL,participant,session,date,expName,psychopyVersion,OS,frameRate,study_id,signatures_friend,signatures_foe,band_ranges_top,band_ranges_bottom,formitemText,formtype,formundefined,formitemWidth,formindex,formresponse,formrt,key_resp_2.keys,key_resp_2.rt,tute_resp.keys,tute_resp.rt,tutorial.thisRepN,tutorial.thisTrialN,tutorial.thisN,tutorial.thisIndex,tutorial.ran,key_resp_4.keys,key_resp_4.rt,key_resp.keys,key_resp.corr,key_resp.rt,lines_presented,is_signal_presented,trials.thisRepN,trials.thisTrialN,trials.thisN,trials.thisIndex,trials.ran,vessel,active_band,lines,is_signal,supported_pos,catch_trial,debrief_formindex,debrief_formitemText,debrief_formtype,debrief_formitemWidth,debrief_formresponse,debrief_formrt,phases.thisRepN,phases.thisTrialN,phases.thisN,phases.thisIndex,phases.ran,phases.order,phase,key_resp_3.keys,trustitemText,trusttype,trustitemWidth,trustindex,trustresponse,trustrt,support_status.thisRepN,support_status.thisTrialN,support_status.thisN,support_status.thisIndex,support_status.ran,support_status.order,key_resp_5.keys,key_resp_5.rt,globalClockTime,userAgent,manualCondition
TRUE,5eb3a51f58efe718f5cffdb4,627c6faa26803dda7de0e8e8,2022-05-11_22h24.41.474,classification_task,2021.2.3,Linux x86_64,60.0240096,627c6715c52fd12f31907bcf,,,,,,,,,,,,,,,,,,,,,,,,,,,,,,,,,,,,,,,,,,,,,,,,,,,,,,,,,,,,,,,,,,,,,
,5eb3a51f58efe718f5cffdb4,627c6faa26803dda7de0e8e8,2022-05-11_22h24.41.474,classification_task,2021.2.3,Linux x86_64,60.0240096,627c6715c52fd12f31907bcf,"[[""0.223"",""0.506"",""0.900"",""0.965""],[""0.174"",""0.554"",""0.727"",""0.848""]]","[[""0.110"",""0.286"",""0.649"",""0.770""],[""0.032"",""0.072"",""0.468"",""0.810""]]","[1,10]","[100,1000]",Video game experience,,,0.7,0,,,,,,,,,,,,,,,,,,,,,,,,,,,,,,,,,,,,,,,,,,,,,,,,,,,,,,,,,,,,
,5eb3a51f58efe718f5cffdb4,627c6faa26803dda7de0e8e8,2022-05-11_22h24.41.474,classification_task,2021.2.3,Linux x86_64,60.0240096,627c6715c52fd12f31907bcf,,,,,Approximately how many hours did you spend playing video games in the last week?,,,0.7,0,8,,,,,,,,,,,,,,,,,,,,,,,,,,,,,,,,,,,,,,,,,,,,,,,,,,,,,,,,,,,
,5eb3a51f58efe718f5cffdb4,627c6faa26803dda7de0e8e8,2022-05-11_22h24.41.474,classification_task,2021.2.3,Linux x86_64,60.0240096,627c6715c52fd12f31907bcf,,,,,"Which game did you play the most this year? (Enter ""None"" if you didn't play any)",,,0.7,0,Pes 2021,,,,,,,,,,,,,,,,,,,,,,,,,,,,,,,,,,,,,,,,,,,,,,,,,,,,,,,,,,,
,5eb3a51f58efe718f5cffdb4,627c6faa26803dda7de0e8e8,2022-05-11_22h24.41.474,classification_task,2021.2.3,Linux x86_64,60.0240096,627c6715c52fd12f31907bcf,,,,,Visual perception,,,0.7,0,,,,,,,,,,,,,,,,,,,,,,,,,,,,,,,,,,,,,,,,,,,,,,,,,,,,,,,,,,,,
,5eb3a51f58efe718f5cffdb4,627c6faa26803dda7de0e8e8,2022-05-11_22h24.41.474,classification_task,2021.2.3,Linux x86_64,60.0240096,627c6715c52fd12f31907bcf,,,,,Do you have any form of color blindness?,,,0.7,0,No,58.2161,,,,,,,,,,,,,,,,,,,,,,,,,,,,,,,,,,,,,,,,,,,,,,,,,,,,,,,,,,
,5eb3a51f58efe718f5cffdb4,627c6faa26803dda7de0e8e8,2022-05-11_22h24.41.474,classification_task,2021.2.3,Linux x86_64,60.0240096,627c6715c52fd12f31907bcf,,,,,Do you use software to change the colour temperature of your screen (e.g. f.lux)?,,,0.7,0,No,63.0839,,,,,,,,,,,,,,,,,,,,,,,,,,,,,,,,,,,,,,,,,,,,,,,,,,,,,,,,,,
,5eb3a51f58efe718f5cffdb4,627c6faa26803dda7de0e8e8,2022-05-11_22h24.41.474,classification_task,2021.2.3,Linux x86_64,60.0240096,627c6715c52fd12f31907bcf,,,,,,,,,,,,space,26.0547,space,7.1902,0,0,0,0,1,,,,,,,,,,,,,,,,,,,,,,,,,,,,,,,,,,,,,,,,,,,,,,,,,
,5eb3a51f58efe718f5cffdb4,627c6faa26803dda7de0e8e8,2022-05-11_22h24.41.474,classification_task,2021.2.3,Linux x86_64,60.0240096,627c6715c52fd12f31907bcf,,,,,,,,,,,,,,space,7.6687,1,0,1,0,1,,,,,,,,,,,,,,,,,,,,,,,,,,,,,,,,,,,,,,,,,,,,,,,,,
,5eb3a51f58efe718f5cffdb4,627c6faa26803dda7de0e8e8,2022-05-11_22h24.41.474,classification_task,2021.2.3,Linux x86_64,60.0240096,627c6715c52fd12f31907bcf,,,,,,,,,,,,,,space,44.3595,2,0,2,0,1,,,,,,,,,,,,,,,,,,,,,,,,,,,,,,,,,,,,,,,,,,,,,,,,,
,5eb3a51f58efe718f5cffdb4,627c6faa26803dda7de0e8e8,2022-05-11_22h24.41.474,classification_task,2021.2.3,Linux x86_64,60.0240096,627c6715c52fd12f31907bcf,,,,,,,,,,,,,,space,7.4667,3,0,3,0,1,,,,,,,,,,,,,,,,,,,,,,,,,,,,,,,,,,,,,,,,,,,,,,,,,
,5eb3a51f58efe718f5cffdb4,627c6faa26803dda7de0e8e8,2022-05-11_22h24.41.474,classification_task,2021.2.3,Linux x86_64,60.0240096,627c6715c52fd12f31907bcf,,,,,,,,,,,,,,space,12.9693,4,0,4,0,1,,,,,,,,,,,,,,,,,,,,,,,,,,,,,,,,,,,,,,,,,,,,,,,,,
,5eb3a51f58efe718f5cffdb4,627c6faa26803dda7de0e8e8,2022-05-11_22h24.41.474,classification_task,2021.2.3,Linux x86_64,60.0240096,627c6715c52fd12f31907bcf,,,,,,,,,,,,,,,,,,,,,space,14.6153,l,1,3.8846,"[""0.110"",""0.286"",""0.649"",""0.396""]","[1,1,1,0]",0,0,0,0,1,1,0,,,1,FALSE,,,,,,,,,,,,,,,,,,,,,,,,,,,,,,,
,5eb3a51f58efe718f5cffdb4,627c6faa26803dda7de0e8e8,2022-05-11_22h24.41.474,classification_task,2021.2.3,Linux x86_64,60.0240096,627c6715c52fd12f31907bcf,,,,,,,,,,,,,,,,,,,,,,,a,1,2.4402,"[""0.223"",""0.506"",""0.900"",""0.425""]","[1,1,1,0]",0,1,1,1,1,0,0,,,1,FALSE,,,,,,,,,,,,,,,,,,,,,,,,,,,,,,,
,5eb3a51f58efe718f5cffdb4,627c6faa26803dda7de0e8e8,2022-05-11_22h24.41.474,classification_task,2021.2.3,Linux x86_64,60.0240096,627c6715c52fd12f31907bcf,,,,,,,,,,,,,,,,,,,,,,,a,1,5.1304,"[""0.174"",""0.554"",""0.727"",""0.691""]","[1,1,1,0]",0,2,2,2,1,0,1,,,1,FALSE,,,,,,,,,,,,,,,,,,,,,,,,,,,,,,,
,5eb3a51f58efe718f5cffdb4,627c6faa26803dda7de0e8e8,2022-05-11_22h24.41.474,classification_task,2021.2.3,Linux x86_64,60.0240096,627c6715c52fd12f31907bcf,,,,,,,,,,,,,,,,,,,,,,,l,1,4.9402,"[""0.110"",""0.340"",""0.649"",""0.770""]","[1,0,1,1]",0,3,3,3,1,1,0,,,1,FALSE,,,,,,,,,,,,,,,,,,,,,,,,,,,,,,,
,5eb3a51f58efe718f5cffdb4,627c6faa26803dda7de0e8e8,2022-05-11_22h24.41.474,classification_task,2021.2.3,Linux x86_64,60.0240096,627c6715c52fd12f31907bcf,,,,,,,,,,,,,,,,,,,,,,,a,1,6.6922,"[""0.174"",""0.340"",""0.727"",""0.848""]","[1,0,1,1]",0,4,4,4,1,0,1,,,1,FALSE,,,,,,,,,,,,,,,,,,,,,,,,,,,,,,,
,5eb3a51f58efe718f5cffdb4,627c6faa26803dda7de0e8e8,2022-05-11_22h24.41.474,classification_task,2021.2.3,Linux x86_64,60.0240096,627c6715c52fd12f31907bcf,,,,,,,,,,,,,,,,,,,,,,,a,1,7.8181,"[""0.174"",""0.554"",""0.334"",""0.848""]","[1,1,0,1]",0,5,5,5,1,0,1,,,1,FALSE,,,,,,,,,,,,,,,,,,,,,,,,,,,,,,,
,5eb3a51f58efe718f5cffdb4,627c6faa26803dda7de0e8e8,2022-05-11_22h24.41.474,classification_task,2021.2.3,Linux x86_64,60.0240096,627c6715c52fd12f31907bcf,,,,,,,,,,,,,,,,,,,,,,,a,1,5.6468,"[""0.223"",""0.506"",""0.345"",""0.965""]","[1,1,0,1]",0,6,6,6,1,0,0,,,1,FALSE,,,,,,,,,,,,,,,,,,,,,,,,,,,,,,,
,5eb3a51f58efe718f5cffdb4,627c6faa26803dda7de0e8e8,2022-05-11_22h24.41.474,classification_task,2021.2.3,Linux x86_64,60.0240096,627c6715c52fd12f31907bcf,,,,,,,,,,,,,,,,,,,,,,,l,1,6.2025,"[""0.326"",""0.072"",""0.468"",""0.810""]","[0,1,1,1]",0,7,7,7,1,1,1,,,1,FALSE,,,,,,,,,,,,,,,,,,,,,,,,,,,,,,,
,5eb3a51f58efe718f5cffdb4,627c6faa26803dda7de0e8e8,2022-05-11_22h24.41.474,classification_task,2021.2.3,Linux x86_64,60.0240096,627c6715c52fd12f31907bcf,,,,,,,,,,,,,,,,,,,,,,,a,1,3.6806,"[""0.223"",""0.374"",""0.900"",""0.965""]","[1,0,1,1]",0,8,8,8,1,0,0,,,1,FALSE,,,,,,,,,,,,,,,,,,,,,,,,,,,,,,,
,5eb3a51f58efe718f5cffdb4,627c6faa26803dda7de0e8e8,2022-05-11_22h24.41.474,classification_task,2021.2.3,Linux x86_64,60.0240096,627c6715c52fd12f31907bcf,,,,,,,,,,,,,,,,,,,,,,,l,1,5.1546,"[""0.032"",""0.592"",""0.468"",""0.810""]","[1,0,1,1]",0,9,9,9,1,1,1,,,1,FALSE,,,,,,,,,,,,,,,,,,,,,,,,,,,,,,,
,5eb3a51f58efe718f5cffdb4,627c6faa26803dda7de0e8e8,2022-05-11_22h24.41.474,classification_task,2021.2.3,Linux x86_64,60.0240096,627c6715c52fd12f31907bcf,,,,,,,,,,,,,,,,,,,,,,,l,1,4.5212,"[""0.032"",""0.072"",""0.691"",""0.810""]","[1,1,0,1]",0,10,10,10,1,1,1,,,1,FALSE,,,,,,,,,,,,,,,,,,,,,,,,,,,,,,,
,5eb3a51f58efe718f5cffdb4,627c6faa26803dda7de0e8e8,2022-05-11_22h24.41.474,classification_task,2021.2.3,Linux x86_64,60.0240096,627c6715c52fd12f31907bcf,,,,,,,,,,,,,,,,,,,,,,,a,1,5.6638,"[""0.326"",""0.554"",""0.727"",""0.848""]","[0,1,1,1]",0,11,11,11,1,0,1,,,1,FALSE,,,,,,,,,,,,,,,,,,,,,,,,,,,,,,,
,5eb3a51f58efe718f5cffdb4,627c6faa26803dda7de0e8e8,2022-05-11_22h24.41.474,classification_task,2021.2.3,Linux x86_64,60.0240096,627c6715c52fd12f31907bcf,,,,,,,,,,,,,,,,,,,,,,,l,1,2.0866,"[""0.032"",""0.072"",""0.468"",""0.408""]","[1,1,1,0]",0,12,12,12,1,1,1,,,1,FALSE,,,,,,,,,,,,,,,,,,,,,,,,,,,,,,,
,5eb3a51f58efe718f5cffdb4,627c6faa26803dda7de0e8e8,2022-05-11_22h24.41.474,classification_task,2021.2.3,Linux x86_64,60.0240096,627c6715c52fd12f31907bcf,,,,,,,,,,,,,,,,,,,,,,,l,1,7.2488,"[""0.598"",""0.286"",""0.649"",""0.770""]","[0,1,1,1]",0,13,13,13,1,1,0,,,1,FALSE,,,,,,,,,,,,,,,,,,,,,,,,,,,,,,,
,5eb3a51f58efe718f5cffdb4,627c6faa26803dda7de0e8e8,2022-05-11_22h24.41.474,classification_task,2021.2.3,Linux x86_64,60.0240096,627c6715c52fd12f31907bcf,,,,,,,,,,,,,,,,,,,,,,,l,1,4.0027,"[""0.110"",""0.286"",""0.367"",""0.770""]","[1,1,0,1]",0,14,14,14,1,1,0,,,1,FALSE,,,,,,,,,,,,,,,,,,,,,,,,,,,,,,,
,5eb3a51f58efe718f5cffdb4,627c6faa26803dda7de0e8e8,2022-05-11_22h24.41.474,classification_task,2021.2.3,Linux x86_64,60.0240096,627c6715c52fd12f31907bcf,,,,,,,,,,,,,,,,,,,,,,,a,1,3.9385,"[""0.334"",""0.506"",""0.900"",""0.965""]","[0,1,1,1]",0,15,15,15,1,0,0,,,1,FALSE,,,,,,,,,,,,,,,,,,,,,,,,,,,,,,,
,5eb3a51f58efe718f5cffdb4,627c6faa26803dda7de0e8e8,2022-05-11_22h24.41.474,classification_task,2021.2.3,Linux x86_64,60.0240096,627c6715c52fd12f31907bcf,,,,,,,,,,,,,,,,,,,,,,,l,1,5.2512,"[""0.614"",""0.286"",""0.649"",""0.770""]","[0,1,1,1]",0,16,16,16,1,1,0,,,1,FALSE,,,,,,,,,,,,,,,,,,,,,,,,,,,,,,,
,5eb3a51f58efe718f5cffdb4,627c6faa26803dda7de0e8e8,2022-05-11_22h24.41.474,classification_task,2021.2.3,Linux x86_64,60.0240096,627c6715c52fd12f31907bcf,,,,,,,,,,,,,,,,,,,,,,,a,1,8.0609,"[""0.422"",""0.554"",""0.727"",""0.848""]","[0,1,1,1]",0,17,17,17,1,0,1,,,1,FALSE,,,,,,,,,,,,,,,,,,,,,,,,,,,,,,,
,5eb3a51f58efe718f5cffdb4,627c6faa26803dda7de0e8e8,2022-05-11_22h24.41.474,classification_task,2021.2.3,Linux x86_64,60.0240096,627c6715c52fd12f31907bcf,,,,,,,,,,,,,,,,,,,,,,,a,1,3.3052,"[""0.174"",""0.554"",""0.727"",""0.425""]","[1,1,1,0]",0,18,18,18,1,0,1,,,1,FALSE,,,,,,,,,,,,,,,,,,,,,,,,,,,,,,,
,5eb3a51f58efe718f5cffdb4,627c6faa26803dda7de0e8e8,2022-05-11_22h24.41.474,classification_task,2021.2.3,Linux x86_64,60.0240096,627c6715c52fd12f31907bcf,,,,,,,,,,,,,,,,,,,,,,,a,1,4.616,"[""0.174"",""0.554"",""0.396"",""0.848""]","[1,1,0,1]",0,19,19,19,1,0,1,,,1,FALSE,,,,,,,,,,,,,,,,,,,,,,,,,,,,,,,
,5eb3a51f58efe718f5cffdb4,627c6faa26803dda7de0e8e8,2022-05-11_22h24.41.474,classification_task,2021.2.3,Linux x86_64,60.0240096,627c6715c52fd12f31907bcf,,,,,,,,,,,,,,,,,,,,,,,a,1,5.1597,"[""0.223"",""0.506"",""0.592"",""0.965""]","[1,1,0,1]",0,20,20,20,1,0,0,,,1,FALSE,,,,,,,,,,,,,,,,,,,,,,,,,,,,,,,
,5eb3a51f58efe718f5cffdb4,627c6faa26803dda7de0e8e8,2022-05-11_22h24.41.474,classification_task,2021.2.3,Linux x86_64,60.0240096,627c6715c52fd12f31907bcf,,,,,,,,,,,,,,,,,,,,,,,a,1,6.7733,"[""0.408"",""0.506"",""0.900"",""0.965""]","[0,1,1,1]",0,21,21,21,1,0,0,,,1,FALSE,,,,,,,,,,,,,,,,,,,,,,,,,,,,,,,
,5eb3a51f58efe718f5cffdb4,627c6faa26803dda7de0e8e8,2022-05-11_22h24.41.474,classification_task,2021.2.3,Linux x86_64,60.0240096,627c6715c52fd12f31907bcf,,,,,,,,,,,,,,,,,,,,,,,l,1,5.9227,"[""0.110"",""0.286"",""0.367"",""0.770""]","[1,1,0,1]",0,22,22,22,1,1,0,,,1,FALSE,,,,,,,,,,,,,,,,,,,,,,,,,,,,,,,
,5eb3a51f58efe718f5cffdb4,627c6faa26803dda7de0e8e8,2022-05-11_22h24.41.474,classification_task,2021.2.3,Linux x86_64,60.0240096,627c6715c52fd12f31907bcf,,,,,,,,,,,,,,,,,,,,,,,l,1,8.6776,"[""0.032"",""0.072"",""0.422"",""0.810""]","[1,1,0,1]",0,23,23,23,1,1,1,,,1,FALSE,,,,,,,,,,,,,,,,,,,,,,,,,,,,,,,
,5eb3a51f58efe718f5cffdb4,627c6faa26803dda7de0e8e8,2022-05-11_22h24.41.474,classification_task,2021.2.3,Linux x86_64,60.0240096,627c6715c52fd12f31907bcf,,,,,,,,,,,,,,,,,,,,,,,a,1,7.1532,"[""0.223"",""0.614"",""0.900"",""0.965""]","[1,0,1,1]",0,24,24,24,1,0,0,,,1,FALSE,,,,,,,,,,,,,,,,,,,,,,,,,,,,,,,
,5eb3a51f58efe718f5cffdb4,627c6faa26803dda7de0e8e8,2022-05-11_22h24.41.474,classification_task,2021.2.3,Linux x86_64,60.0240096,627c6715c52fd12f31907bcf,,,,,,,,,,,,,,,,,,,,,,,l,1,7.9518,"[""0.110"",""0.286"",""0.649"",""0.614""]","[1,1,1,0]",0,25,25,25,1,1,0,,,1,FALSE,,,,,,,,,,,,,,,,,,,,,,,,,,,,,,,
,5eb3a51f58efe718f5cffdb4,627c6faa26803dda7de0e8e8,2022-05-11_22h24.41.474,classification_task,2021.2.3,Linux x86_64,60.0240096,627c6715c52fd12f31907bcf,,,,,,,,,,,,,,,,,,,,,,,l,1,4.1645,"[""0.110"",""0.334"",""0.649"",""0.770""]","[1,0,1,1]",0,26,26,26,1,1,0,,,1,FALSE,,,,,,,,,,,,,,,,,,,,,,,,,,,,,,,
,5eb3a51f58efe718f5cffdb4,627c6faa26803dda7de0e8e8,2022-05-11_22h24.41.474,classification_task,2021.2.3,Linux x86_64,60.0240096,627c6715c52fd12f31907bcf,,,,,,,,,,,,,,,,,,,,,,,l,1,9.7346,"[""0.326"",""0.072"",""0.468"",""0.810""]","[0,1,1,1]",0,27,27,27,1,1,1,,,1,FALSE,,,,,,,,,,,,,,,,,,,,,,,,,,,,,,,
,5eb3a51f58efe718f5cffdb4,627c6faa26803dda7de0e8e8,2022-05-11_22h24.41.474,classification_task,2021.2.3,Linux x86_64,60.0240096,627c6715c52fd12f31907bcf,,,,,,,,,,,,,,,,,,,,,,,l,1,8.5118,"[""0.032"",""0.691"",""0.468"",""0.810""]","[1,0,1,1]",0,28,28,28,1,1,1,,,1,FALSE,,,,,,,,,,,,,,,,,,,,,,,,,,,,,,,
,5eb3a51f58efe718f5cffdb4,627c6faa26803dda7de0e8e8,2022-05-11_22h24.41.474,classification_task,2021.2.3,Linux x86_64,60.0240096,627c6715c52fd12f31907bcf,,,,,,,,,,,,,,,,,,,,,,,l,1,5.5306,"[""0.032"",""0.072"",""0.468"",""0.340""]","[1,1,1,0]",0,29,29,29,1,1,1,,,1,FALSE,,,,,,,,,,,,,,,,,,,,,,,,,,,,,,,
,5eb3a51f58efe718f5cffdb4,627c6faa26803dda7de0e8e8,2022-05-11_22h24.41.474,classification_task,2021.2.3,Linux x86_64,60.0240096,627c6715c52fd12f31907bcf,,,,,,,,,,,,,,,,,,,,,,,a,1,3.7084,"[""0.223"",""0.506"",""0.900"",""0.691""]","[1,1,1,0]",0,30,30,30,1,0,0,,,1,FALSE,,,,,,,,,,,,,,,,,,,,,,,,,,,,,,,
,5eb3a51f58efe718f5cffdb4,627c6faa26803dda7de0e8e8,2022-05-11_22h24.41.474,classification_task,2021.2.3,Linux x86_64,60.0240096,627c6715c52fd12f31907bcf,,,,,,,,,,,,,,,,,,,,,,,a,1,3.6354,"[""0.174"",""0.396"",""0.727"",""0.848""]","[1,0,1,1]",0,31,31,31,1,0,1,,,1,FALSE,,,,,,,,,,,,,,,,,,,,,,,,,,,,,,,
,5eb3a51f58efe718f5cffdb4,627c6faa26803dda7de0e8e8,2022-05-11_22h24.41.474,classification_task,2021.2.3,Linux x86_64,60.0240096,627c6715c52fd12f31907bcf,,,,,,,,,,,,,,,,,,,,,,,a,1,3.0282,"[""0.174"",""0.554"",""0.340"",""0.848""]","[1,1,0,1]",0,32,32,32,1,0,1,,,1,FALSE,,,,,,,,,,,,,,,,,,,,,,,,,,,,,,,
,5eb3a51f58efe718f5cffdb4,627c6faa26803dda7de0e8e8,2022-05-11_22h24.41.474,classification_task,2021.2.3,Linux x86_64,60.0240096,627c6715c52fd12f31907bcf,,,,,,,,,,,,,,,,,,,,,,,l,1,3.8847,"[""0.032"",""0.592"",""0.468"",""0.810""]","[1,0,1,1]",0,33,33,33,1,1,1,,,1,FALSE,,,,,,,,,,,,,,,,,,,,,,,,,,,,,,,
,5eb3a51f58efe718f5cffdb4,627c6faa26803dda7de0e8e8,2022-05-11_22h24.41.474,classification_task,2021.2.3,Linux x86_64,60.0240096,627c6715c52fd12f31907bcf,,,,,,,,,,,,,,,,,,,,,,,l,1,7.4404,"[""0.032"",""0.072"",""0.468"",""0.691""]","[1,1,1,0]",0,34,34,34,1,1,1,,,1,FALSE,,,,,,,,,,,,,,,,,,,,,,,,,,,,,,,
,5eb3a51f58efe718f5cffdb4,627c6faa26803dda7de0e8e8,2022-05-11_22h24.41.474,classification_task,2021.2.3,Linux x86_64,60.0240096,627c6715c52fd12f31907bcf,,,,,,,,,,,,,,,,,,,,,,,a,1,2.2282,"[""0.223"",""0.506"",""0.598"",""0.965""]","[1,1,0,1]",0,35,35,35,1,0,0,,,1,FALSE,,,,,,,,,,,,,,,,,,,,,,,,,,,,,,,
,5eb3a51f58efe718f5cffdb4,627c6faa26803dda7de0e8e8,2022-05-11_22h24.41.474,classification_task,2021.2.3,Linux x86_64,60.0240096,627c6715c52fd12f31907bcf,,,,,,,,,,,,,,,,,,,,,,,a,1,3.2755,"[""0.174"",""0.326"",""0.727"",""0.848""]","[1,0,1,1]",0,36,36,36,1,0,1,,,1,FALSE,,,,,,,,,,,,,,,,,,,,,,,,,,,,,,,
,5eb3a51f58efe718f5cffdb4,627c6faa26803dda7de0e8e8,2022-05-11_22h24.41.474,classification_task,2021.2.3,Linux x86_64,60.0240096,627c6715c52fd12f31907bcf,,,,,,,,,,,,,,,,,,,,,,,a,1,1.4419,"[""0.223"",""0.374"",""0.900"",""0.965""]","[1,0,1,1]",0,37,37,37,1,0,0,,,1,FALSE,,,,,,,,,,,,,,,,,,,,,,,,,,,,,,,
,5eb3a51f58efe718f5cffdb4,627c6faa26803dda7de0e8e8,2022-05-11_22h24.41.474,classification_task,2021.2.3,Linux x86_64,60.0240096,627c6715c52fd12f31907bcf,,,,,,,,,,,,,,,,,,,,,,,a,1,3.1224,"[""0.174"",""0.554"",""0.727"",""0.334""]","[1,1,1,0]",0,38,38,38,1,0,1,,,1,FALSE,,,,,,,,,,,,,,,,,,,,,,,,,,,,,,,
,5eb3a51f58efe718f5cffdb4,627c6faa26803dda7de0e8e8,2022-05-11_22h24.41.474,classification_task,2021.2.3,Linux x86_64,60.0240096,627c6715c52fd12f31907bcf,,,,,,,,,,,,,,,,,,,,,,,a,1,1.5261,"[""0.223"",""0.506"",""0.900"",""0.598""]","[1,1,1,0]",0,39,39,39,1,0,0,,,1,FALSE,,,,,,,,,,,,,,,,,,,,,,,,,,,,,,,
,5eb3a51f58efe718f5cffdb4,627c6faa26803dda7de0e8e8,2022-05-11_22h24.41.474,classification_task,2021.2.3,Linux x86_64,60.0240096,627c6715c52fd12f31907bcf,,,,,,,,,,,,,,,,,,,,,,,l,1,3.2263,"[""0.110"",""0.286"",""0.649"",""0.598""]","[1,1,1,0]",0,40,40,40,1,1,0,,,1,FALSE,,,,,,,,,,,,,,,,,,,,,,,,,,,,,,,
,5eb3a51f58efe718f5cffdb4,627c6faa26803dda7de0e8e8,2022-05-11_22h24.41.474,classification_task,2021.2.3,Linux x86_64,60.0240096,627c6715c52fd12f31907bcf,,,,,,,,,,,,,,,,,,,,,,,l,1,4.2907,"[""0.032"",""0.072"",""0.340"",""0.810""]","[1,1,0,1]",0,41,41,41,1,1,1,,,1,FALSE,,,,,,,,,,,,,,,,,,,,,,,,,,,,,,,
,5eb3a51f58efe718f5cffdb4,627c6faa26803dda7de0e8e8,2022-05-11_22h24.41.474,classification_task,2021.2.3,Linux x86_64,60.0240096,627c6715c52fd12f31907bcf,,,,,,,,,,,,,,,,,,,,,,,a,1,4.9426,"[""0.691"",""0.554"",""0.727"",""0.848""]","[0,1,1,1]",0,42,42,42,1,0,1,,,1,FALSE,,,,,,,,,,,,,,,,,,,,,,,,,,,,,,,
,5eb3a51f58efe718f5cffdb4,627c6faa26803dda7de0e8e8,2022-05-11_22h24.41.474,classification_task,2021.2.3,Linux x86_64,60.0240096,627c6715c52fd12f31907bcf,,,,,,,,,,,,,,,,,,,,,,,l,1,4.3387,"[""0.334"",""0.072"",""0.468"",""0.810""]","[0,1,1,1]",0,43,43,43,1,1,1,,,1,FALSE,,,,,,,,,,,,,,,,,,,,,,,,,,,,,,,
,5eb3a51f58efe718f5cffdb4,627c6faa26803dda7de0e8e8,2022-05-11_22h24.41.474,classification_task,2021.2.3,Linux x86_64,60.0240096,627c6715c52fd12f31907bcf,,,,,,,,,,,,,,,,,,,,,,,l,1,1.992,"[""0.110"",""0.598"",""0.649"",""0.770""]","[1,0,1,1]",0,44,44,44,1,1,0,,,1,FALSE,,,,,,,,,,,,,,,,,,,,,,,,,,,,,,,
,5eb3a51f58efe718f5cffdb4,627c6faa26803dda7de0e8e8,2022-05-11_22h24.41.474,classification_task,2021.2.3,Linux x86_64,60.0240096,627c6715c52fd12f31907bcf,,,,,,,,,,,,,,,,,,,,,,,l,1,3.004,"[""0.396"",""0.286"",""0.649"",""0.770""]","[0,1,1,1]",0,45,45,45,1,1,0,,,1,FALSE,,,,,,,,,,,,,,,,,,,,,,,,,,,,,,,
,5eb3a51f58efe718f5cffdb4,627c6faa26803dda7de0e8e8,2022-05-11_22h24.41.474,classification_task,2021.2.3,Linux x86_64,60.0240096,627c6715c52fd12f31907bcf,,,,,,,,,,,,,,,,,,,,,,,l,1,2.9621,"[""0.110"",""0.286"",""0.367"",""0.770""]","[1,1,0,1]",0,46,46,46,1,1,0,,,1,FALSE,,,,,,,,,,,,,,,,,,,,,,,,,,,,,,,
,5eb3a51f58efe718f5cffdb4,627c6faa26803dda7de0e8e8,2022-05-11_22h24.41.474,classification_task,2021.2.3,Linux x86_64,60.0240096,627c6715c52fd12f31907bcf,,,,,,,,,,,,,,,,,,,,,,,a,1,3.5213,"[""0.592"",""0.506"",""0.900"",""0.965""]","[0,1,1,1]",0,47,47,47,1,0,0,,,1,FALSE,,,,,,,,,,,,,,,,,,,,,,,,,,,,,,,
,5eb3a51f58efe718f5cffdb4,627c6faa26803dda7de0e8e8,2022-05-11_22h24.41.474,classification_task,2021.2.3,Linux x86_64,60.0240096,627c6715c52fd12f31907bcf,,,,,,,,,,,,,,,,,,,,,,,l,1,2.0565,"[""0.110"",""0.286"",""0.422"",""0.770""]","[1,1,0,1]",0,48,48,48,1,1,0,,,1,FALSE,,,,,,,,,,,,,,,,,,,,,,,,,,,,,,,
,5eb3a51f58efe718f5cffdb4,627c6faa26803dda7de0e8e8,2022-05-11_22h24.41.474,classification_task,2021.2.3,Linux x86_64,60.0240096,627c6715c52fd12f31907bcf,,,,,,,,,,,,,,,,,,,,,,,l,1,1.5772,"[""0.598"",""0.286"",""0.649"",""0.770""]","[0,1,1,1]",0,49,49,49,1,1,0,,,1,FALSE,,,,,,,,,,,,,,,,,,,,,,,,,,,,,,,
,5eb3a51f58efe718f5cffdb4,627c6faa26803dda7de0e8e8,2022-05-11_22h24.41.474,classification_task,2021.2.3,Linux x86_64,60.0240096,627c6715c52fd12f31907bcf,,,,,,,,,,,,,,,,,,,,,,,a,1,1.0554,"[""0.223"",""0.506"",""0.340"",""0.965""]","[1,1,0,1]",0,50,50,50,1,0,0,,,1,FALSE,,,,,,,,,,,,,,,,,,,,,,,,,,,,,,,
,5eb3a51f58efe718f5cffdb4,627c6faa26803dda7de0e8e8,2022-05-11_22h24.41.474,classification_task,2021.2.3,Linux x86_64,60.0240096,627c6715c52fd12f31907bcf,,,,,,,,,,,,,,,,,,,,,,,a,1,0.9098,"[""0.223"",""0.506"",""0.900"",""0.334""]","[1,1,1,0]",0,51,51,51,1,0,0,,,1,FALSE,,,,,,,,,,,,,,,,,,,,,,,,,,,,,,,
,5eb3a51f58efe718f5cffdb4,627c6faa26803dda7de0e8e8,2022-05-11_22h24.41.474,classification_task,2021.2.3,Linux x86_64,60.0240096,627c6715c52fd12f31907bcf,,,,,,,,,,,,,,,,,,,,,,,a,1,2.3989,"[""0.174"",""0.396"",""0.727"",""0.848""]","[1,0,1,1]",0,52,52,52,1,0,1,,,1,FALSE,,,,,,,,,,,,,,,,,,,,,,,,,,,,,,,
,5eb3a51f58efe718f5cffdb4,627c6faa26803dda7de0e8e8,2022-05-11_22h24.41.474,classification_task,2021.2.3,Linux x86_64,60.0240096,627c6715c52fd12f31907bcf,,,,,,,,,,,,,,,,,,,,,,,a,1,1.1935,"[""0.174"",""0.554"",""0.422"",""0.848""]","[1,1,0,1]",0,53,53,53,1,0,1,,,1,FALSE,,,,,,,,,,,,,,,,,,,,,,,,,,,,,,,
,5eb3a51f58efe718f5cffdb4,627c6faa26803dda7de0e8e8,2022-05-11_22h24.41.474,classification_task,2021.2.3,Linux x86_64,60.0240096,627c6715c52fd12f31907bcf,,,,,,,,,,,,,,,,,,,,,,,l,1,6.1433,"[""0.032"",""0.072"",""0.468"",""0.326""]","[1,1,1,0]",0,54,54,54,1,1,1,,,1,FALSE,,,,,,,,,,,,,,,,,,,,,,,,,,,,,,,
,5eb3a51f58efe718f5cffdb4,627c6faa26803dda7de0e8e8,2022-05-11_22h24.41.474,classification_task,2021.2.3,Linux x86_64,60.0240096,627c6715c52fd12f31907bcf,,,,,,,,,,,,,,,,,,,,,,,a,1,2.9065,"[""0.223"",""0.326"",""0.900"",""0.965""]","[1,0,1,1]",0,55,55,55,1,0,0,,,1,FALSE,,,,,,,,,,,,,,,,,,,,,,,,,,,,,,,
,5eb3a51f58efe718f5cffdb4,627c6faa26803dda7de0e8e8,2022-05-11_22h24.41.474,classification_task,2021.2.3,Linux x86_64,60.0240096,627c6715c52fd12f31907bcf,,,,,,,,,,,,,,,,,,,,,,,l,1,3.2525,"[""0.032"",""0.072"",""0.422"",""0.810""]","[1,1,0,1]",0,56,56,56,1,1,1,,,1,FALSE,,,,,,,,,,,,,,,,,,,,,,,,,,,,,,,
,5eb3a51f58efe718f5cffdb4,627c6faa26803dda7de0e8e8,2022-05-11_22h24.41.474,classification_task,2021.2.3,Linux x86_64,60.0240096,627c6715c52fd12f31907bcf,,,,,,,,,,,,,,,,,,,,,,,l,1,1.9172,"[""0.110"",""0.286"",""0.649"",""0.340""]","[1,1,1,0]",0,57,57,57,1,1,0,,,1,FALSE,,,,,,,,,,,,,,,,,,,,,,,,,,,,,,,
,5eb3a51f58efe718f5cffdb4,627c6faa26803dda7de0e8e8,2022-05-11_22h24.41.474,classification_task,2021.2.3,Linux x86_64,60.0240096,627c6715c52fd12f31907bcf,,,,,,,,,,,,,,,,,,,,,,,l,1,4.4472,"[""0.592"",""0.072"",""0.468"",""0.810""]","[0,1,1,1]",0,58,58,58,1,1,1,,,1,FALSE,,,,,,,,,,,,,,,,,,,,,,,,,,,,,,,
,5eb3a51f58efe718f5cffdb4,627c6faa26803dda7de0e8e8,2022-05-11_22h24.41.474,classification_task,2021.2.3,Linux x86_64,60.0240096,627c6715c52fd12f31907bcf,,,,,,,,,,,,,,,,,,,,,,,l,1,2.6445,"[""0.110"",""0.592"",""0.649"",""0.770""]","[1,0,1,1]",0,59,59,59,1,1,0,,,1,FALSE,,,,,,,,,,,,,,,,,,,,,,,,,,,,,,,
,5eb3a51f58efe718f5cffdb4,627c6faa26803dda7de0e8e8,2022-05-11_22h24.41.474,classification_task,2021.2.3,Linux x86_64,60.0240096,627c6715c52fd12f31907bcf,,,,,,,,,,,,,,,,,,,,,,,l,1,1.1731,"[""0.032"",""0.422"",""0.468"",""0.810""]","[1,0,1,1]",0,60,60,60,1,1,1,,,1,FALSE,,,,,,,,,,,,,,,,,,,,,,,,,,,,,,,
,5eb3a51f58efe718f5cffdb4,627c6faa26803dda7de0e8e8,2022-05-11_22h24.41.474,classification_task,2021.2.3,Linux x86_64,60.0240096,627c6715c52fd12f31907bcf,,,,,,,,,,,,,,,,,,,,,,,a,1,3.466,"[""0.326"",""0.554"",""0.727"",""0.848""]","[0,1,1,1]",0,61,61,61,1,0,1,,,1,FALSE,,,,,,,,,,,,,,,,,,,,,,,,,,,,,,,
,5eb3a51f58efe718f5cffdb4,627c6faa26803dda7de0e8e8,2022-05-11_22h24.41.474,classification_task,2021.2.3,Linux x86_64,60.0240096,627c6715c52fd12f31907bcf,,,,,,,,,,,,,,,,,,,,,,,a,1,2.1399,"[""0.174"",""0.554"",""0.727"",""0.374""]","[1,1,1,0]",0,62,62,62,1,0,1,,,1,FALSE,,,,,,,,,,,,,,,,,,,,,,,,,,,,,,,
,5eb3a51f58efe718f5cffdb4,627c6faa26803dda7de0e8e8,2022-05-11_22h24.41.474,classification_task,2021.2.3,Linux x86_64,60.0240096,627c6715c52fd12f31907bcf,,,,,,,,,,,,,,,,,,,,,,,a,1,4.0545,"[""0.408"",""0.506"",""0.900"",""0.965""]","[0,1,1,1]",0,63,63,63,1,0,0,,,1,FALSE,,,,,,,,,,,,,,,,,,,,,,,,,,,,,,,
,5eb3a51f58efe718f5cffdb4,627c6faa26803dda7de0e8e8,2022-05-11_22h24.41.474,classification_task,2021.2.3,Linux x86_64,60.0240096,627c6715c52fd12f31907bcf,,,,,,,,,,,,,,,,,,,,,,,,,,,,,,,,,,,,,,,0, ,,0,2.085048011,574.7359,0,0,0,0,1,2,1,,,,,,,,,,,,,,,,,,
,5eb3a51f58efe718f5cffdb4,627c6faa26803dda7de0e8e8,2022-05-11_22h24.41.474,classification_task,2021.2.3,Linux x86_64,60.0240096,627c6715c52fd12f31907bcf,,,,,,,,,,,,,,,,,,,,,,,,,,,,,,,,,,,,,,,1,  ,,0,8.257887517,566.0957,0,0,0,0,1,2,1,,,,,,,,,,,,,,,,,,
,5eb3a51f58efe718f5cffdb4,627c6faa26803dda7de0e8e8,2022-05-11_22h24.41.474,classification_task,2021.2.3,Linux x86_64,60.0240096,627c6715c52fd12f31907bcf,,,,,,,,,,,,,,,,,,,,,,,,,,,,,,,,,,,,,,,2,  ,,0,5.808348031,583.3129,0,0,0,0,1,2,1,,,,,,,,,,,,,,,,,,
,5eb3a51f58efe718f5cffdb4,627c6faa26803dda7de0e8e8,2022-05-11_22h24.41.474,classification_task,2021.2.3,Linux x86_64,60.0240096,627c6715c52fd12f31907bcf,,,,,,,,,,,,,,,,,,,,,,,,,,,,,,,,,,,,,,,,,,,,,0,0,0,0,1,,1,,,,,,,,,,,,,,,,,,
,5eb3a51f58efe718f5cffdb4,627c6faa26803dda7de0e8e8,2022-05-11_22h24.41.474,classification_task,2021.2.3,Linux x86_64,60.0240096,627c6715c52fd12f31907bcf,,,,,,,,,,,,,,,,,,,,,space,18.8447,l,1,2.2801,"[""0.110"",""0.326"",""0.649"",""0.770""]","[1,0,1,1]",0,0,0,0,1,1,0,,,1,FALSE,,,,,,,,,,,,,,,,,,,,,,,,,,,,,,,
,5eb3a51f58efe718f5cffdb4,627c6faa26803dda7de0e8e8,2022-05-11_22h24.41.474,classification_task,2021.2.3,Linux x86_64,60.0240096,627c6715c52fd12f31907bcf,,,,,,,,,,,,,,,,,,,,,,,a,1,4.9271,"[""0.326"",""0.554"",""0.727"",""0.848""]","[0,1,1,1]",0,1,1,1,1,0,1,,,1,FALSE,,,,,,,,,,,,,,,,,,,,,,,,,,,,,,,
,5eb3a51f58efe718f5cffdb4,627c6faa26803dda7de0e8e8,2022-05-11_22h24.41.474,classification_task,2021.2.3,Linux x86_64,60.0240096,627c6715c52fd12f31907bcf,,,,,,,,,,,,,,,,,,,,,,,a,1,2.5266,"[""0.223"",""0.506"",""0.900"",""0.374""]","[1,1,1,0]",0,2,2,2,1,0,0,,,1,FALSE,,,,,,,,,,,,,,,,,,,,,,,,,,,,,,,
,5eb3a51f58efe718f5cffdb4,627c6faa26803dda7de0e8e8,2022-05-11_22h24.41.474,classification_task,2021.2.3,Linux x86_64,60.0240096,627c6715c52fd12f31907bcf,,,,,,,,,,,,,,,,,,,,,,,a,1,0.7796,"[""0.223"",""0.592"",""0.900"",""0.965""]","[1,0,1,1]",0,3,3,3,1,0,0,,,1,FALSE,,,,,,,,,,,,,,,,,,,,,,,,,,,,,,,
,5eb3a51f58efe718f5cffdb4,627c6faa26803dda7de0e8e8,2022-05-11_22h24.41.474,classification_task,2021.2.3,Linux x86_64,60.0240096,627c6715c52fd12f31907bcf,,,,,,,,,,,,,,,,,,,,,,,a,1,1.0795,"[""0.223"",""0.506"",""0.340"",""0.965""]","[1,1,0,1]",0,4,4,4,1,0,0,,,1,FALSE,,,,,,,,,,,,,,,,,,,,,,,,,,,,,,,
,5eb3a51f58efe718f5cffdb4,627c6faa26803dda7de0e8e8,2022-05-11_22h24.41.474,classification_task,2021.2.3,Linux x86_64,60.0240096,627c6715c52fd12f31907bcf,,,,,,,,,,,,,,,,,,,,,,,l,1,2.9666,"[""0.425"",""0.072"",""0.468"",""0.810""]","[0,1,1,1]",0,5,5,5,1,1,1,,,1,FALSE,,,,,,,,,,,,,,,,,,,,,,,,,,,,,,,
,5eb3a51f58efe718f5cffdb4,627c6faa26803dda7de0e8e8,2022-05-11_22h24.41.474,classification_task,2021.2.3,Linux x86_64,60.0240096,627c6715c52fd12f31907bcf,,,,,,,,,,,,,,,,,,,,,,,a,1,2.16,"[""0.174"",""0.554"",""0.326"",""0.848""]","[1,1,0,1]",0,6,6,6,1,0,1,,,1,FALSE,,,,,,,,,,,,,,,,,,,,,,,,,,,,,,,
,5eb3a51f58efe718f5cffdb4,627c6faa26803dda7de0e8e8,2022-05-11_22h24.41.474,classification_task,2021.2.3,Linux x86_64,60.0240096,627c6715c52fd12f31907bcf,,,,,,,,,,,,,,,,,,,,,,,l,1,1.3952,"[""0.032"",""0.072"",""0.408"",""0.810""]","[1,1,0,1]",0,7,7,7,1,1,1,,,1,FALSE,,,,,,,,,,,,,,,,,,,,,,,,,,,,,,,
,5eb3a51f58efe718f5cffdb4,627c6faa26803dda7de0e8e8,2022-05-11_22h24.41.474,classification_task,2021.2.3,Linux x86_64,60.0240096,627c6715c52fd12f31907bcf,,,,,,,,,,,,,,,,,,,,,,,l,1,1.1729,"[""0.032"",""0.592"",""0.468"",""0.810""]","[1,0,1,1]",0,8,8,8,1,1,1,,,1,FALSE,,,,,,,,,,,,,,,,,,,,,,,,,,,,,,,
,5eb3a51f58efe718f5cffdb4,627c6faa26803dda7de0e8e8,2022-05-11_22h24.41.474,classification_task,2021.2.3,Linux x86_64,60.0240096,627c6715c52fd12f31907bcf,,,,,,,,,,,,,,,,,,,,,,,l,1,1.77,"[""0.110"",""0.286"",""0.649"",""0.425""]","[1,1,1,0]",0,9,9,9,1,1,0,,,1,FALSE,,,,,,,,,,,,,,,,,,,,,,,,,,,,,,,
,5eb3a51f58efe718f5cffdb4,627c6faa26803dda7de0e8e8,2022-05-11_22h24.41.474,classification_task,2021.2.3,Linux x86_64,60.0240096,627c6715c52fd12f31907bcf,,,,,,,,,,,,,,,,,,,,,,,a,1,1.5195,"[""0.174"",""0.598"",""0.727"",""0.848""]","[1,0,1,1]",0,10,10,10,1,0,1,,,1,FALSE,,,,,,,,,,,,,,,,,,,,,,,,,,,,,,,
,5eb3a51f58efe718f5cffdb4,627c6faa26803dda7de0e8e8,2022-05-11_22h24.41.474,classification_task,2021.2.3,Linux x86_64,60.0240096,627c6715c52fd12f31907bcf,,,,,,,,,,,,,,,,,,,,,,,l,1,1.2075,"[""0.032"",""0.072"",""0.468"",""0.691""]","[1,1,1,0]",0,11,11,11,1,1,1,,,1,FALSE,,,,,,,,,,,,,,,,,,,,,,,,,,,,,,,
,5eb3a51f58efe718f5cffdb4,627c6faa26803dda7de0e8e8,2022-05-11_22h24.41.474,classification_task,2021.2.3,Linux x86_64,60.0240096,627c6715c52fd12f31907bcf,,,,,,,,,,,,,,,,,,,,,,,a,0,2.1268,"[""0.396"",""0.286"",""0.649"",""0.770""]","[0,1,1,1]",0,12,12,12,1,1,0,,,1,FALSE,,,,,,,,,,,,,,,,,,,,,,,,,,,,,,,
,5eb3a51f58efe718f5cffdb4,627c6faa26803dda7de0e8e8,2022-05-11_22h24.41.474,classification_task,2021.2.3,Linux x86_64,60.0240096,627c6715c52fd12f31907bcf,,,,,,,,,,,,,,,,,,,,,,,l,1,2.3817,"[""0.110"",""0.286"",""0.396"",""0.770""]","[1,1,0,1]",0,13,13,13,1,1,0,,,1,FALSE,,,,,,,,,,,,,,,,,,,,,,,,,,,,,,,
,5eb3a51f58efe718f5cffdb4,627c6faa26803dda7de0e8e8,2022-05-11_22h24.41.474,classification_task,2021.2.3,Linux x86_64,60.0240096,627c6715c52fd12f31907bcf,,,,,,,,,,,,,,,,,,,,,,,l,0,4.2169,"[""0.408"",""0.506"",""0.900"",""0.965""]","[0,1,1,1]",0,14,14,14,1,0,0,,,1,FALSE,,,,,,,,,,,,,,,,,,,,,,,,,,,,,,,
,5eb3a51f58efe718f5cffdb4,627c6faa26803dda7de0e8e8,2022-05-11_22h24.41.474,classification_task,2021.2.3,Linux x86_64,60.0240096,627c6715c52fd12f31907bcf,,,,,,,,,,,,,,,,,,,,,,,l,0,2.4618,"[""0.174"",""0.554"",""0.727"",""0.396""]","[1,1,1,0]",0,15,15,15,1,0,1,,,1,FALSE,,,,,,,,,,,,,,,,,,,,,,,,,,,,,,,
,5eb3a51f58efe718f5cffdb4,627c6faa26803dda7de0e8e8,2022-05-11_22h24.41.474,classification_task,2021.2.3,Linux x86_64,60.0240096,627c6715c52fd12f31907bcf,,,,,,,,,,,,,,,,,,,,,,,a,1,1.5578,"[""0.174"",""0.345"",""0.727"",""0.848""]","[1,0,1,1]",0,16,16,16,1,0,1,,,1,FALSE,,,,,,,,,,,,,,,,,,,,,,,,,,,,,,,
,5eb3a51f58efe718f5cffdb4,627c6faa26803dda7de0e8e8,2022-05-11_22h24.41.474,classification_task,2021.2.3,Linux x86_64,60.0240096,627c6715c52fd12f31907bcf,,,,,,,,,,,,,,,,,,,,,,,a,1,2.3641,"[""0.223"",""0.374"",""0.900"",""0.965""]","[1,0,1,1]",0,17,17,17,1,0,0,,,1,FALSE,,,,,,,,,,,,,,,,,,,,,,,,,,,,,,,
,5eb3a51f58efe718f5cffdb4,627c6faa26803dda7de0e8e8,2022-05-11_22h24.41.474,classification_task,2021.2.3,Linux x86_64,60.0240096,627c6715c52fd12f31907bcf,,,,,,,,,,,,,,,,,,,,,,,a,1,2.7437,"[""0.345"",""0.554"",""0.727"",""0.848""]","[0,1,1,1]",0,18,18,18,1,0,1,,,1,FALSE,,,,,,,,,,,,,,,,,,,,,,,,,,,,,,,
,5eb3a51f58efe718f5cffdb4,627c6faa26803dda7de0e8e8,2022-05-11_22h24.41.474,classification_task,2021.2.3,Linux x86_64,60.0240096,627c6715c52fd12f31907bcf,,,,,,,,,,,,,,,,,,,,,,,l,1,1.1104,"[""0.032"",""0.592"",""0.468"",""0.810""]","[1,0,1,1]",0,19,19,19,1,1,1,,,1,FALSE,,,,,,,,,,,,,,,,,,,,,,,,,,,,,,,
,5eb3a51f58efe718f5cffdb4,627c6faa26803dda7de0e8e8,2022-05-11_22h24.41.474,classification_task,2021.2.3,Linux x86_64,60.0240096,627c6715c52fd12f31907bcf,,,,,,,,,,,,,,,,,,,,,,,a,1,1.8517,"[""0.174"",""0.554"",""0.340"",""0.848""]","[1,1,0,1]",0,20,20,20,1,0,1,,,1,FALSE,,,,,,,,,,,,,,,,,,,,,,,,,,,,,,,
,5eb3a51f58efe718f5cffdb4,627c6faa26803dda7de0e8e8,2022-05-11_22h24.41.474,classification_task,2021.2.3,Linux x86_64,60.0240096,627c6715c52fd12f31907bcf,,,,,,,,,,,,,,,,,,,,,,,a,1,2.2697,"[""0.326"",""0.506"",""0.900"",""0.965""]","[0,1,1,1]",0,21,21,21,1,0,0,,,1,FALSE,,,,,,,,,,,,,,,,,,,,,,,,,,,,,,,
,5eb3a51f58efe718f5cffdb4,627c6faa26803dda7de0e8e8,2022-05-11_22h24.41.474,classification_task,2021.2.3,Linux x86_64,60.0240096,627c6715c52fd12f31907bcf,,,,,,,,,,,,,,,,,,,,,,,l,1,1.1375,"[""0.032"",""0.072"",""0.468"",""0.422""]","[1,1,1,0]",0,22,22,22,1,1,1,,,1,FALSE,,,,,,,,,,,,,,,,,,,,,,,,,,,,,,,
,5eb3a51f58efe718f5cffdb4,627c6faa26803dda7de0e8e8,2022-05-11_22h24.41.474,classification_task,2021.2.3,Linux x86_64,60.0240096,627c6715c52fd12f31907bcf,,,,,,,,,,,,,,,,,,,,,,,l,1,1.8764,"[""0.110"",""0.286"",""0.345"",""0.770""]","[1,1,0,1]",0,23,23,23,1,1,0,,,1,FALSE,,,,,,,,,,,,,,,,,,,,,,,,,,,,,,,
,5eb3a51f58efe718f5cffdb4,627c6faa26803dda7de0e8e8,2022-05-11_22h24.41.474,classification_task,2021.2.3,Linux x86_64,60.0240096,627c6715c52fd12f31907bcf,,,,,,,,,,,,,,,,,,,,,,,l,1,1.5867,"[""0.110"",""0.691"",""0.649"",""0.770""]","[1,0,1,1]",0,24,24,24,1,1,0,,,1,FALSE,,,,,,,,,,,,,,,,,,,,,,,,,,,,,,,
,5eb3a51f58efe718f5cffdb4,627c6faa26803dda7de0e8e8,2022-05-11_22h24.41.474,classification_task,2021.2.3,Linux x86_64,60.0240096,627c6715c52fd12f31907bcf,,,,,,,,,,,,,,,,,,,,,,,a,1,1.0039,"[""0.223"",""0.506"",""0.425"",""0.965""]","[1,1,0,1]",0,25,25,25,1,0,0,,,1,FALSE,,,,,,,,,,,,,,,,,,,,,,,,,,,,,,,
,5eb3a51f58efe718f5cffdb4,627c6faa26803dda7de0e8e8,2022-05-11_22h24.41.474,classification_task,2021.2.3,Linux x86_64,60.0240096,627c6715c52fd12f31907bcf,,,,,,,,,,,,,,,,,,,,,,,l,1,2.8891,"[""0.340"",""0.286"",""0.649"",""0.770""]","[0,1,1,1]",0,26,26,26,1,1,0,,,1,FALSE,,,,,,,,,,,,,,,,,,,,,,,,,,,,,,,
,5eb3a51f58efe718f5cffdb4,627c6faa26803dda7de0e8e8,2022-05-11_22h24.41.474,classification_task,2021.2.3,Linux x86_64,60.0240096,627c6715c52fd12f31907bcf,,,,,,,,,,,,,,,,,,,,,,,l,1,1.1925,"[""0.032"",""0.072"",""0.340"",""0.810""]","[1,1,0,1]",0,27,27,27,1,1,1,,,1,FALSE,,,,,,,,,,,,,,,,,,,,,,,,,,,,,,,
,5eb3a51f58efe718f5cffdb4,627c6faa26803dda7de0e8e8,2022-05-11_22h24.41.474,classification_task,2021.2.3,Linux x86_64,60.0240096,627c6715c52fd12f31907bcf,,,,,,,,,,,,,,,,,,,,,,,a,1,2.6624,"[""0.223"",""0.506"",""0.900"",""0.345""]","[1,1,1,0]",0,28,28,28,1,0,0,,,1,FALSE,,,,,,,,,,,,,,,,,,,,,,,,,,,,,,,
,5eb3a51f58efe718f5cffdb4,627c6faa26803dda7de0e8e8,2022-05-11_22h24.41.474,classification_task,2021.2.3,Linux x86_64,60.0240096,627c6715c52fd12f31907bcf,,,,,,,,,,,,,,,,,,,,,,,a,1,1.6521,"[""0.174"",""0.554"",""0.727"",""0.340""]","[1,1,1,0]",0,29,29,29,1,0,1,,,1,FALSE,,,,,,,,,,,,,,,,,,,,,,,,,,,,,,,
,5eb3a51f58efe718f5cffdb4,627c6faa26803dda7de0e8e8,2022-05-11_22h24.41.474,classification_task,2021.2.3,Linux x86_64,60.0240096,627c6715c52fd12f31907bcf,,,,,,,,,,,,,,,,,,,,,,,l,1,1.0741,"[""0.598"",""0.072"",""0.468"",""0.810""]","[0,1,1,1]",0,30,30,30,1,1,1,,,1,FALSE,,,,,,,,,,,,,,,,,,,,,,,,,,,,,,,
,5eb3a51f58efe718f5cffdb4,627c6faa26803dda7de0e8e8,2022-05-11_22h24.41.474,classification_task,2021.2.3,Linux x86_64,60.0240096,627c6715c52fd12f31907bcf,,,,,,,,,,,,,,,,,,,,,,,l,1,1.7222,"[""0.110"",""0.286"",""0.649"",""0.340""]","[1,1,1,0]",0,31,31,31,1,1,0,,,1,FALSE,,,,,,,,,,,,,,,,,,,,,,,,,,,,,,,
,5eb3a51f58efe718f5cffdb4,627c6faa26803dda7de0e8e8,2022-05-11_22h24.41.474,classification_task,2021.2.3,Linux x86_64,60.0240096,627c6715c52fd12f31907bcf,,,,,,,,,,,,,,,,,,,,,,,l,1,0.9349,"[""0.032"",""0.614"",""0.468"",""0.810""]","[1,0,1,1]",0,32,32,32,1,1,1,,,1,FALSE,,,,,,,,,,,,,,,,,,,,,,,,,,,,,,,
,5eb3a51f58efe718f5cffdb4,627c6faa26803dda7de0e8e8,2022-05-11_22h24.41.474,classification_task,2021.2.3,Linux x86_64,60.0240096,627c6715c52fd12f31907bcf,,,,,,,,,,,,,,,,,,,,,,,a,1,0.6881,"[""0.223"",""0.691"",""0.900"",""0.965""]","[1,0,1,1]",0,33,33,33,1,0,0,,,1,FALSE,,,,,,,,,,,,,,,,,,,,,,,,,,,,,,,
,5eb3a51f58efe718f5cffdb4,627c6faa26803dda7de0e8e8,2022-05-11_22h24.41.474,classification_task,2021.2.3,Linux x86_64,60.0240096,627c6715c52fd12f31907bcf,,,,,,,,,,,,,,,,,,,,,,,a,1,0.5927,"[""0.374"",""0.506"",""0.900"",""0.965""]","[0,1,1,1]",0,34,34,34,1,0,0,,,1,FALSE,,,,,,,,,,,,,,,,,,,,,,,,,,,,,,,
,5eb3a51f58efe718f5cffdb4,627c6faa26803dda7de0e8e8,2022-05-11_22h24.41.474,classification_task,2021.2.3,Linux x86_64,60.0240096,627c6715c52fd12f31907bcf,,,,,,,,,,,,,,,,,,,,,,,a,1,1.3606,"[""0.174"",""0.374"",""0.727"",""0.848""]","[1,0,1,1]",0,35,35,35,1,0,1,,,1,FALSE,,,,,,,,,,,,,,,,,,,,,,,,,,,,,,,
,5eb3a51f58efe718f5cffdb4,627c6faa26803dda7de0e8e8,2022-05-11_22h24.41.474,classification_task,2021.2.3,Linux x86_64,60.0240096,627c6715c52fd12f31907bcf,,,,,,,,,,,,,,,,,,,,,,,l,1,1.098,"[""0.592"",""0.286"",""0.649"",""0.770""]","[0,1,1,1]",0,36,36,36,1,1,0,,,1,FALSE,,,,,,,,,,,,,,,,,,,,,,,,,,,,,,,
,5eb3a51f58efe718f5cffdb4,627c6faa26803dda7de0e8e8,2022-05-11_22h24.41.474,classification_task,2021.2.3,Linux x86_64,60.0240096,627c6715c52fd12f31907bcf,,,,,,,,,,,,,,,,,,,,,,,l,1,1.3951,"[""0.110"",""0.286"",""0.326"",""0.770""]","[1,1,0,1]",0,37,37,37,1,1,0,,,1,FALSE,,,,,,,,,,,,,,,,,,,,,,,,,,,,,,,
,5eb3a51f58efe718f5cffdb4,627c6faa26803dda7de0e8e8,2022-05-11_22h24.41.474,classification_task,2021.2.3,Linux x86_64,60.0240096,627c6715c52fd12f31907bcf,,,,,,,,,,,,,,,,,,,,,,,a,1,2.0246,"[""0.174"",""0.554"",""0.727"",""0.367""]","[1,1,1,0]",0,38,38,38,1,0,1,,,1,FALSE,,,,,,,,,,,,,,,,,,,,,,,,,,,,,,,
,5eb3a51f58efe718f5cffdb4,627c6faa26803dda7de0e8e8,2022-05-11_22h24.41.474,classification_task,2021.2.3,Linux x86_64,60.0240096,627c6715c52fd12f31907bcf,,,,,,,,,,,,,,,,,,,,,,,l,1,0.6192,"[""0.032"",""0.072"",""0.598"",""0.810""]","[1,1,0,1]",0,39,39,39,1,1,1,,,1,FALSE,,,,,,,,,,,,,,,,,,,,,,,,,,,,,,,
,5eb3a51f58efe718f5cffdb4,627c6faa26803dda7de0e8e8,2022-05-11_22h24.41.474,classification_task,2021.2.3,Linux x86_64,60.0240096,627c6715c52fd12f31907bcf,,,,,,,,,,,,,,,,,,,,,,,a,1,1.5892,"[""0.223"",""0.506"",""0.900"",""0.598""]","[1,1,1,0]",0,40,40,40,1,0,0,,,1,FALSE,,,,,,,,,,,,,,,,,,,,,,,,,,,,,,,
,5eb3a51f58efe718f5cffdb4,627c6faa26803dda7de0e8e8,2022-05-11_22h24.41.474,classification_task,2021.2.3,Linux x86_64,60.0240096,627c6715c52fd12f31907bcf,,,,,,,,,,,,,,,,,,,,,,,l,1,1.3512,"[""0.326"",""0.072"",""0.468"",""0.810""]","[0,1,1,1]",0,41,41,41,1,1,1,,,1,FALSE,,,,,,,,,,,,,,,,,,,,,,,,,,,,,,,
,5eb3a51f58efe718f5cffdb4,627c6faa26803dda7de0e8e8,2022-05-11_22h24.41.474,classification_task,2021.2.3,Linux x86_64,60.0240096,627c6715c52fd12f31907bcf,,,,,,,,,,,,,,,,,,,,,,,a,1,1.4763,"[""0.345"",""0.554"",""0.727"",""0.848""]","[0,1,1,1]",0,42,42,42,1,0,1,,,1,FALSE,,,,,,,,,,,,,,,,,,,,,,,,,,,,,,,
,5eb3a51f58efe718f5cffdb4,627c6faa26803dda7de0e8e8,2022-05-11_22h24.41.474,classification_task,2021.2.3,Linux x86_64,60.0240096,627c6715c52fd12f31907bcf,,,,,,,,,,,,,,,,,,,,,,,a,1,2.9169,"[""0.174"",""0.554"",""0.334"",""0.848""]","[1,1,0,1]",0,43,43,43,1,0,1,,,1,FALSE,,,,,,,,,,,,,,,,,,,,,,,,,,,,,,,
,5eb3a51f58efe718f5cffdb4,627c6faa26803dda7de0e8e8,2022-05-11_22h24.41.474,classification_task,2021.2.3,Linux x86_64,60.0240096,627c6715c52fd12f31907bcf,,,,,,,,,,,,,,,,,,,,,,,l,1,2.2074,"[""0.110"",""0.286"",""0.649"",""0.334""]","[1,1,1,0]",0,44,44,44,1,1,0,,,1,FALSE,,,,,,,,,,,,,,,,,,,,,,,,,,,,,,,
,5eb3a51f58efe718f5cffdb4,627c6faa26803dda7de0e8e8,2022-05-11_22h24.41.474,classification_task,2021.2.3,Linux x86_64,60.0240096,627c6715c52fd12f31907bcf,,,,,,,,,,,,,,,,,,,,,,,l,1,0.8813,"[""0.032"",""0.072"",""0.468"",""0.422""]","[1,1,1,0]",0,45,45,45,1,1,1,,,1,FALSE,,,,,,,,,,,,,,,,,,,,,,,,,,,,,,,
,5eb3a51f58efe718f5cffdb4,627c6faa26803dda7de0e8e8,2022-05-11_22h24.41.474,classification_task,2021.2.3,Linux x86_64,60.0240096,627c6715c52fd12f31907bcf,,,,,,,,,,,,,,,,,,,,,,,a,1,0.7846,"[""0.223"",""0.506"",""0.334"",""0.965""]","[1,1,0,1]",0,46,46,46,1,0,0,,,1,FALSE,,,,,,,,,,,,,,,,,,,,,,,,,,,,,,,
,5eb3a51f58efe718f5cffdb4,627c6faa26803dda7de0e8e8,2022-05-11_22h24.41.474,classification_task,2021.2.3,Linux x86_64,60.0240096,627c6715c52fd12f31907bcf,,,,,,,,,,,,,,,,,,,,,,,l,1,1.3599,"[""0.110"",""0.598"",""0.649"",""0.770""]","[1,0,1,1]",0,47,47,47,1,1,0,,,1,FALSE,,,,,,,,,,,,,,,,,,,,,,,,,,,,,,,
,5eb3a51f58efe718f5cffdb4,627c6faa26803dda7de0e8e8,2022-05-11_22h24.41.474,classification_task,2021.2.3,Linux x86_64,60.0240096,627c6715c52fd12f31907bcf,,,,,,,,,,,,,,,,,,,,,,,l,0,1.7263,"[""0.174"",""0.554"",""0.727"",""0.425""]","[1,1,1,0]",0,48,48,48,1,0,1,,,1,FALSE,,,,,,,,,,,,,,,,,,,,,,,,,,,,,,,
,5eb3a51f58efe718f5cffdb4,627c6faa26803dda7de0e8e8,2022-05-11_22h24.41.474,classification_task,2021.2.3,Linux x86_64,60.0240096,627c6715c52fd12f31907bcf,,,,,,,,,,,,,,,,,,,,,,,a,1,0.7862,"[""0.334"",""0.506"",""0.900"",""0.965""]","[0,1,1,1]",0,49,49,49,1,0,0,,,1,FALSE,,,,,,,,,,,,,,,,,,,,,,,,,,,,,,,
,5eb3a51f58efe718f5cffdb4,627c6faa26803dda7de0e8e8,2022-05-11_22h24.41.474,classification_task,2021.2.3,Linux x86_64,60.0240096,627c6715c52fd12f31907bcf,,,,,,,,,,,,,,,,,,,,,,,l,1,1.4421,"[""0.110"",""0.286"",""0.649"",""0.340""]","[1,1,1,0]",0,50,50,50,1,1,0,,,1,FALSE,,,,,,,,,,,,,,,,,,,,,,,,,,,,,,,
,5eb3a51f58efe718f5cffdb4,627c6faa26803dda7de0e8e8,2022-05-11_22h24.41.474,classification_task,2021.2.3,Linux x86_64,60.0240096,627c6715c52fd12f31907bcf,,,,,,,,,,,,,,,,,,,,,,,a,1,1.004,"[""0.223"",""0.506"",""0.900"",""0.326""]","[1,1,1,0]",0,51,51,51,1,0,0,,,1,FALSE,,,,,,,,,,,,,,,,,,,,,,,,,,,,,,,
,5eb3a51f58efe718f5cffdb4,627c6faa26803dda7de0e8e8,2022-05-11_22h24.41.474,classification_task,2021.2.3,Linux x86_64,60.0240096,627c6715c52fd12f31907bcf,,,,,,,,,,,,,,,,,,,,,,,l,1,0.8322,"[""0.032"",""0.072"",""0.422"",""0.810""]","[1,1,0,1]",0,52,52,52,1,1,1,,,1,FALSE,,,,,,,,,,,,,,,,,,,,,,,,,,,,,,,
,5eb3a51f58efe718f5cffdb4,627c6faa26803dda7de0e8e8,2022-05-11_22h24.41.474,classification_task,2021.2.3,Linux x86_64,60.0240096,627c6715c52fd12f31907bcf,,,,,,,,,,,,,,,,,,,,,,,l,1,1.1006,"[""0.110"",""0.592"",""0.649"",""0.770""]","[1,0,1,1]",0,53,53,53,1,1,0,,,1,FALSE,,,,,,,,,,,,,,,,,,,,,,,,,,,,,,,
,5eb3a51f58efe718f5cffdb4,627c6faa26803dda7de0e8e8,2022-05-11_22h24.41.474,classification_task,2021.2.3,Linux x86_64,60.0240096,627c6715c52fd12f31907bcf,,,,,,,,,,,,,,,,,,,,,,,a,0,1.6667,"[""0.396"",""0.286"",""0.649"",""0.770""]","[0,1,1,1]",0,54,54,54,1,1,0,,,1,FALSE,,,,,,,,,,,,,,,,,,,,,,,,,,,,,,,
,5eb3a51f58efe718f5cffdb4,627c6faa26803dda7de0e8e8,2022-05-11_22h24.41.474,classification_task,2021.2.3,Linux x86_64,60.0240096,627c6715c52fd12f31907bcf,,,,,,,,,,,,,,,,,,,,,,,a,1,0.721,"[""0.223"",""0.425"",""0.900"",""0.965""]","[1,0,1,1]",0,55,55,55,1,0,0,,,1,FALSE,,,,,,,,,,,,,,,,,,,,,,,,,,,,,,,
,5eb3a51f58efe718f5cffdb4,627c6faa26803dda7de0e8e8,2022-05-11_22h24.41.474,classification_task,2021.2.3,Linux x86_64,60.0240096,627c6715c52fd12f31907bcf,,,,,,,,,,,,,,,,,,,,,,,l,0,2.3016,"[""0.174"",""0.554"",""0.345"",""0.848""]","[1,1,0,1]",0,56,56,56,1,0,1,,,1,FALSE,,,,,,,,,,,,,,,,,,,,,,,,,,,,,,,
,5eb3a51f58efe718f5cffdb4,627c6faa26803dda7de0e8e8,2022-05-11_22h24.41.474,classification_task,2021.2.3,Linux x86_64,60.0240096,627c6715c52fd12f31907bcf,,,,,,,,,,,,,,,,,,,,,,,l,1,2.705,"[""0.110"",""0.286"",""0.367"",""0.770""]","[1,1,0,1]",0,57,57,57,1,1,0,,,1,FALSE,,,,,,,,,,,,,,,,,,,,,,,,,,,,,,,
,5eb3a51f58efe718f5cffdb4,627c6faa26803dda7de0e8e8,2022-05-11_22h24.41.474,classification_task,2021.2.3,Linux x86_64,60.0240096,627c6715c52fd12f31907bcf,,,,,,,,,,,,,,,,,,,,,,,a,1,2.237,"[""0.334"",""0.554"",""0.727"",""0.848""]","[0,1,1,1]",0,58,58,58,1,0,1,,,1,FALSE,,,,,,,,,,,,,,,,,,,,,,,,,,,,,,,
,5eb3a51f58efe718f5cffdb4,627c6faa26803dda7de0e8e8,2022-05-11_22h24.41.474,classification_task,2021.2.3,Linux x86_64,60.0240096,627c6715c52fd12f31907bcf,,,,,,,,,,,,,,,,,,,,,,,a,1,0.9148,"[""0.223"",""0.506"",""0.422"",""0.965""]","[1,1,0,1]",0,59,59,59,1,0,0,,,1,FALSE,,,,,,,,,,,,,,,,,,,,,,,,,,,,,,,
,5eb3a51f58efe718f5cffdb4,627c6faa26803dda7de0e8e8,2022-05-11_22h24.41.474,classification_task,2021.2.3,Linux x86_64,60.0240096,627c6715c52fd12f31907bcf,,,,,,,,,,,,,,,,,,,,,,,a,1,1.1159,"[""0.174"",""0.592"",""0.727"",""0.848""]","[1,0,1,1]",0,60,60,60,1,0,1,,,1,FALSE,,,,,,,,,,,,,,,,,,,,,,,,,,,,,,,
,5eb3a51f58efe718f5cffdb4,627c6faa26803dda7de0e8e8,2022-05-11_22h24.41.474,classification_task,2021.2.3,Linux x86_64,60.0240096,627c6715c52fd12f31907bcf,,,,,,,,,,,,,,,,,,,,,,,l,1,0.815,"[""0.032"",""0.072"",""0.468"",""0.340""]","[1,1,1,0]",0,61,61,61,1,1,1,,,1,FALSE,,,,,,,,,,,,,,,,,,,,,,,,,,,,,,,
,5eb3a51f58efe718f5cffdb4,627c6faa26803dda7de0e8e8,2022-05-11_22h24.41.474,classification_task,2021.2.3,Linux x86_64,60.0240096,627c6715c52fd12f31907bcf,,,,,,,,,,,,,,,,,,,,,,,l,1,0.8492,"[""0.598"",""0.072"",""0.468"",""0.810""]","[0,1,1,1]",0,62,62,62,1,1,1,,,1,FALSE,,,,,,,,,,,,,,,,,,,,,,,,,,,,,,,
,5eb3a51f58efe718f5cffdb4,627c6faa26803dda7de0e8e8,2022-05-11_22h24.41.474,classification_task,2021.2.3,Linux x86_64,60.0240096,627c6715c52fd12f31907bcf,,,,,,,,,,,,,,,,,,,,,,,l,1,0.6279,"[""0.032"",""0.425"",""0.468"",""0.810""]","[1,0,1,1]",0,63,63,63,1,1,1,,,1,FALSE,,,,,,,,,,,,,,,,,,,,,,,,,,,,,,,
,5eb3a51f58efe718f5cffdb4,627c6faa26803dda7de0e8e8,2022-05-11_22h24.41.474,classification_task,2021.2.3,Linux x86_64,60.0240096,627c6715c52fd12f31907bcf,,,,,,,,,,,,,,,,,,,,,,,,,,,,,,,,,,,,,,,0, ,,0,6.81265922,224.3287,0,1,1,1,1,2,2,,,,,,,,,,,,,,,,,,
,5eb3a51f58efe718f5cffdb4,627c6faa26803dda7de0e8e8,2022-05-11_22h24.41.474,classification_task,2021.2.3,Linux x86_64,60.0240096,627c6715c52fd12f31907bcf,,,,,,,,,,,,,,,,,,,,,,,,,,,,,,,,,,,,,,,1,  ,,0,8.012933568,213.7861,0,1,1,1,1,2,2,,,,,,,,,,,,,,,,,,
,5eb3a51f58efe718f5cffdb4,627c6faa26803dda7de0e8e8,2022-05-11_22h24.41.474,classification_task,2021.2.3,Linux x86_64,60.0240096,627c6715c52fd12f31907bcf,,,,,,,,,,,,,,,,,,,,,,,,,,,,,,,,,,,,,,,2,  ,,0,7.71898883,229.6679,0,1,1,1,1,2,2,,,,,,,,,,,,,,,,,,
,5eb3a51f58efe718f5cffdb4,627c6faa26803dda7de0e8e8,2022-05-11_22h24.41.474,classification_task,2021.2.3,Linux x86_64,60.0240096,627c6715c52fd12f31907bcf,,,,,,,,,,,,,,,,,,,,,,,,,,,,,,,,,,,,,,,,,,,,,0,1,1,1,1,,2,,,,,,,,,,,,,,,,,,
,5eb3a51f58efe718f5cffdb4,627c6faa26803dda7de0e8e8,2022-05-11_22h24.41.474,classification_task,2021.2.3,Linux x86_64,60.0240096,627c6715c52fd12f31907bcf,,,,,,,,,,,,,,,,,,,,,space,8.5485,l,1,1.3016,"[""0.334"",""0.072"",""0.468"",""0.810""]","[0,1,1,1]",0,0,0,0,1,1,1,,,1,FALSE,,,,,,,,,,,,,,,,,,,,,,,,,,,,,,,
,5eb3a51f58efe718f5cffdb4,627c6faa26803dda7de0e8e8,2022-05-11_22h24.41.474,classification_task,2021.2.3,Linux x86_64,60.0240096,627c6715c52fd12f31907bcf,,,,,,,,,,,,,,,,,,,,,,,a,1,5.2033,"[""0.174"",""0.367"",""0.727"",""0.848""]","[1,0,1,1]",0,1,1,1,1,0,1,,,1,FALSE,,,,,,,,,,,,,,,,,,,,,,,,,,,,,,,
,5eb3a51f58efe718f5cffdb4,627c6faa26803dda7de0e8e8,2022-05-11_22h24.41.474,classification_task,2021.2.3,Linux x86_64,60.0240096,627c6715c52fd12f31907bcf,,,,,,,,,,,,,,,,,,,,,,,l,1,2.2771,"[""0.032"",""0.367"",""0.468"",""0.810""]","[1,0,1,1]",0,2,2,2,1,1,1,,,1,FALSE,,,,,,,,,,,,,,,,,,,,,,,,,,,,,,,
,5eb3a51f58efe718f5cffdb4,627c6faa26803dda7de0e8e8,2022-05-11_22h24.41.474,classification_task,2021.2.3,Linux x86_64,60.0240096,627c6715c52fd12f31907bcf,,,,,,,,,,,,,,,,,,,,,,,a,1,3.7694,"[""0.174"",""0.554"",""0.340"",""0.848""]","[1,1,0,1]",0,3,3,3,1,0,1,,,1,FALSE,,,,,,,,,,,,,,,,,,,,,,,,,,,,,,,
,5eb3a51f58efe718f5cffdb4,627c6faa26803dda7de0e8e8,2022-05-11_22h24.41.474,classification_task,2021.2.3,Linux x86_64,60.0240096,627c6715c52fd12f31907bcf,,,,,,,,,,,,,,,,,,,,,,,a,1,3.5704,"[""0.691"",""0.554"",""0.727"",""0.848""]","[0,1,1,1]",0,4,4,4,1,0,1,,,1,FALSE,,,,,,,,,,,,,,,,,,,,,,,,,,,,,,,
,5eb3a51f58efe718f5cffdb4,627c6faa26803dda7de0e8e8,2022-05-11_22h24.41.474,classification_task,2021.2.3,Linux x86_64,60.0240096,627c6715c52fd12f31907bcf,,,,,,,,,,,,,,,,,,,,,,,l,1,1.5392,"[""0.110"",""0.286"",""0.649"",""0.408""]","[1,1,1,0]",0,5,5,5,1,1,0,,,1,FALSE,,,,,,,,,,,,,,,,,,,,,,,,,,,,,,,
,5eb3a51f58efe718f5cffdb4,627c6faa26803dda7de0e8e8,2022-05-11_22h24.41.474,classification_task,2021.2.3,Linux x86_64,60.0240096,627c6715c52fd12f31907bcf,,,,,,,,,,,,,,,,,,,,,,,a,1,1.1589,"[""0.223"",""0.326"",""0.900"",""0.965""]","[1,0,1,1]",0,6,6,6,1,0,0,,,1,FALSE,,,,,,,,,,,,,,,,,,,,,,,,,,,,,,,
,5eb3a51f58efe718f5cffdb4,627c6faa26803dda7de0e8e8,2022-05-11_22h24.41.474,classification_task,2021.2.3,Linux x86_64,60.0240096,627c6715c52fd12f31907bcf,,,,,,,,,,,,,,,,,,,,,,,a,1,1.7989,"[""0.223"",""0.506"",""0.900"",""0.334""]","[1,1,1,0]",0,7,7,7,1,0,0,,,1,FALSE,,,,,,,,,,,,,,,,,,,,,,,,,,,,,,,
,5eb3a51f58efe718f5cffdb4,627c6faa26803dda7de0e8e8,2022-05-11_22h24.41.474,classification_task,2021.2.3,Linux x86_64,60.0240096,627c6715c52fd12f31907bcf,,,,,,,,,,,,,,,,,,,,,,,a,1,4.2044,"[""0.223"",""0.506"",""0.598"",""0.965""]","[1,1,0,1]",0,8,8,8,1,0,0,,,1,FALSE,,,,,,,,,,,,,,,,,,,,,,,,,,,,,,,
,5eb3a51f58efe718f5cffdb4,627c6faa26803dda7de0e8e8,2022-05-11_22h24.41.474,classification_task,2021.2.3,Linux x86_64,60.0240096,627c6715c52fd12f31907bcf,,,,,,,,,,,,,,,,,,,,,,,l,1,3.0161,"[""0.598"",""0.286"",""0.649"",""0.770""]","[0,1,1,1]",0,9,9,9,1,1,0,,,1,FALSE,,,,,,,,,,,,,,,,,,,,,,,,,,,,,,,
,5eb3a51f58efe718f5cffdb4,627c6faa26803dda7de0e8e8,2022-05-11_22h24.41.474,classification_task,2021.2.3,Linux x86_64,60.0240096,627c6715c52fd12f31907bcf,,,,,,,,,,,,,,,,,,,,,,,l,1,2.0127,"[""0.110"",""0.422"",""0.649"",""0.770""]","[1,0,1,1]",0,10,10,10,1,1,0,,,1,FALSE,,,,,,,,,,,,,,,,,,,,,,,,,,,,,,,
,5eb3a51f58efe718f5cffdb4,627c6faa26803dda7de0e8e8,2022-05-11_22h24.41.474,classification_task,2021.2.3,Linux x86_64,60.0240096,627c6715c52fd12f31907bcf,,,,,,,,,,,,,,,,,,,,,,,l,1,1.0636,"[""0.032"",""0.072"",""0.598"",""0.810""]","[1,1,0,1]",0,11,11,11,1,1,1,,,1,FALSE,,,,,,,,,,,,,,,,,,,,,,,,,,,,,,,
,5eb3a51f58efe718f5cffdb4,627c6faa26803dda7de0e8e8,2022-05-11_22h24.41.474,classification_task,2021.2.3,Linux x86_64,60.0240096,627c6715c52fd12f31907bcf,,,,,,,,,,,,,,,,,,,,,,,l,1,1.1129,"[""0.110"",""0.286"",""0.422"",""0.770""]","[1,1,0,1]",0,12,12,12,1,1,0,,,1,FALSE,,,,,,,,,,,,,,,,,,,,,,,,,,,,,,,
,5eb3a51f58efe718f5cffdb4,627c6faa26803dda7de0e8e8,2022-05-11_22h24.41.474,classification_task,2021.2.3,Linux x86_64,60.0240096,627c6715c52fd12f31907bcf,,,,,,,,,,,,,,,,,,,,,,,a,1,0.8669,"[""0.396"",""0.506"",""0.900"",""0.965""]","[0,1,1,1]",0,13,13,13,1,0,0,,,1,FALSE,,,,,,,,,,,,,,,,,,,,,,,,,,,,,,,
,5eb3a51f58efe718f5cffdb4,627c6faa26803dda7de0e8e8,2022-05-11_22h24.41.474,classification_task,2021.2.3,Linux x86_64,60.0240096,627c6715c52fd12f31907bcf,,,,,,,,,,,,,,,,,,,,,,,l,1,0.9859,"[""0.032"",""0.072"",""0.468"",""0.425""]","[1,1,1,0]",0,14,14,14,1,1,1,,,1,FALSE,,,,,,,,,,,,,,,,,,,,,,,,,,,,,,,
,5eb3a51f58efe718f5cffdb4,627c6faa26803dda7de0e8e8,2022-05-11_22h24.41.474,classification_task,2021.2.3,Linux x86_64,60.0240096,627c6715c52fd12f31907bcf,,,,,,,,,,,,,,,,,,,,,,,a,1,1.4046,"[""0.174"",""0.554"",""0.727"",""0.396""]","[1,1,1,0]",0,15,15,15,1,0,1,,,1,FALSE,,,,,,,,,,,,,,,,,,,,,,,,,,,,,,,
,5eb3a51f58efe718f5cffdb4,627c6faa26803dda7de0e8e8,2022-05-11_22h24.41.474,classification_task,2021.2.3,Linux x86_64,60.0240096,627c6715c52fd12f31907bcf,,,,,,,,,,,,,,,,,,,,,,,l,1,1.1873,"[""0.110"",""0.334"",""0.649"",""0.770""]","[1,0,1,1]",0,16,16,16,1,1,0,,,1,FALSE,,,,,,,,,,,,,,,,,,,,,,,,,,,,,,,
,5eb3a51f58efe718f5cffdb4,627c6faa26803dda7de0e8e8,2022-05-11_22h24.41.474,classification_task,2021.2.3,Linux x86_64,60.0240096,627c6715c52fd12f31907bcf,,,,,,,,,,,,,,,,,,,,,,,a,1,4.1704,"[""0.340"",""0.554"",""0.727"",""0.848""]","[0,1,1,1]",0,17,17,17,1,0,1,,,1,FALSE,,,,,,,,,,,,,,,,,,,,,,,,,,,,,,,
,5eb3a51f58efe718f5cffdb4,627c6faa26803dda7de0e8e8,2022-05-11_22h24.41.474,classification_task,2021.2.3,Linux x86_64,60.0240096,627c6715c52fd12f31907bcf,,,,,,,,,,,,,,,,,,,,,,,a,1,1.1575,"[""0.174"",""0.554"",""0.326"",""0.848""]","[1,1,0,1]",0,18,18,18,1,0,1,,,1,FALSE,,,,,,,,,,,,,,,,,,,,,,,,,,,,,,,
,5eb3a51f58efe718f5cffdb4,627c6faa26803dda7de0e8e8,2022-05-11_22h24.41.474,classification_task,2021.2.3,Linux x86_64,60.0240096,627c6715c52fd12f31907bcf,,,,,,,,,,,,,,,,,,,,,,,a,1,0.9882,"[""0.223"",""0.506"",""0.367"",""0.965""]","[1,1,0,1]",0,19,19,19,1,0,0,,,1,FALSE,,,,,,,,,,,,,,,,,,,,,,,,,,,,,,,
,5eb3a51f58efe718f5cffdb4,627c6faa26803dda7de0e8e8,2022-05-11_22h24.41.474,classification_task,2021.2.3,Linux x86_64,60.0240096,627c6715c52fd12f31907bcf,,,,,,,,,,,,,,,,,,,,,,,l,1,0.9921,"[""0.032"",""0.072"",""0.468"",""0.340""]","[1,1,1,0]",0,20,20,20,1,1,1,,,1,FALSE,,,,,,,,,,,,,,,,,,,,,,,,,,,,,,,
,5eb3a51f58efe718f5cffdb4,627c6faa26803dda7de0e8e8,2022-05-11_22h24.41.474,classification_task,2021.2.3,Linux x86_64,60.0240096,627c6715c52fd12f31907bcf,,,,,,,,,,,,,,,,,,,,,,,a,1,1.5823,"[""0.174"",""0.425"",""0.727"",""0.848""]","[1,0,1,1]",0,21,21,21,1,0,1,,,1,FALSE,,,,,,,,,,,,,,,,,,,,,,,,,,,,,,,
,5eb3a51f58efe718f5cffdb4,627c6faa26803dda7de0e8e8,2022-05-11_22h24.41.474,classification_task,2021.2.3,Linux x86_64,60.0240096,627c6715c52fd12f31907bcf,,,,,,,,,,,,,,,,,,,,,,,l,1,1.0924,"[""0.032"",""0.592"",""0.468"",""0.810""]","[1,0,1,1]",0,22,22,22,1,1,1,,,1,FALSE,,,,,,,,,,,,,,,,,,,,,,,,,,,,,,,
,5eb3a51f58efe718f5cffdb4,627c6faa26803dda7de0e8e8,2022-05-11_22h24.41.474,classification_task,2021.2.3,Linux x86_64,60.0240096,627c6715c52fd12f31907bcf,,,,,,,,,,,,,,,,,,,,,,,l,1,0.9898,"[""0.032"",""0.072"",""0.408"",""0.810""]","[1,1,0,1]",0,23,23,23,1,1,1,,,1,FALSE,,,,,,,,,,,,,,,,,,,,,,,,,,,,,,,
,5eb3a51f58efe718f5cffdb4,627c6faa26803dda7de0e8e8,2022-05-11_22h24.41.474,classification_task,2021.2.3,Linux x86_64,60.0240096,627c6715c52fd12f31907bcf,,,,,,,,,,,,,,,,,,,,,,,l,1,1.7906,"[""0.110"",""0.286"",""0.649"",""0.592""]","[1,1,1,0]",0,24,24,24,1,1,0,,,1,FALSE,,,,,,,,,,,,,,,,,,,,,,,,,,,,,,,
,5eb3a51f58efe718f5cffdb4,627c6faa26803dda7de0e8e8,2022-05-11_22h24.41.474,classification_task,2021.2.3,Linux x86_64,60.0240096,627c6715c52fd12f31907bcf,,,,,,,,,,,,,,,,,,,,,,,l,1,0.9154,"[""0.110"",""0.286"",""0.374"",""0.770""]","[1,1,0,1]",0,25,25,25,1,1,0,,,1,FALSE,,,,,,,,,,,,,,,,,,,,,,,,,,,,,,,
,5eb3a51f58efe718f5cffdb4,627c6faa26803dda7de0e8e8,2022-05-11_22h24.41.474,classification_task,2021.2.3,Linux x86_64,60.0240096,627c6715c52fd12f31907bcf,,,,,,,,,,,,,,,,,,,,,,,a,1,1.6156,"[""0.174"",""0.554"",""0.727"",""0.614""]","[1,1,1,0]",0,26,26,26,1,0,1,,,1,FALSE,,,,,,,,,,,,,,,,,,,,,,,,,,,,,,,
,5eb3a51f58efe718f5cffdb4,627c6faa26803dda7de0e8e8,2022-05-11_22h24.41.474,classification_task,2021.2.3,Linux x86_64,60.0240096,627c6715c52fd12f31907bcf,,,,,,,,,,,,,,,,,,,,,,,a,1,1.0656,"[""0.223"",""0.506"",""0.900"",""0.367""]","[1,1,1,0]",0,27,27,27,1,0,0,,,1,FALSE,,,,,,,,,,,,,,,,,,,,,,,,,,,,,,,
,5eb3a51f58efe718f5cffdb4,627c6faa26803dda7de0e8e8,2022-05-11_22h24.41.474,classification_task,2021.2.3,Linux x86_64,60.0240096,627c6715c52fd12f31907bcf,,,,,,,,,,,,,,,,,,,,,,,a,1,0.6937,"[""0.223"",""0.396"",""0.900"",""0.965""]","[1,0,1,1]",0,28,28,28,1,0,0,,,1,FALSE,,,,,,,,,,,,,,,,,,,,,,,,,,,,,,,
,5eb3a51f58efe718f5cffdb4,627c6faa26803dda7de0e8e8,2022-05-11_22h24.41.474,classification_task,2021.2.3,Linux x86_64,60.0240096,627c6715c52fd12f31907bcf,,,,,,,,,,,,,,,,,,,,,,,l,1,4.8812,"[""0.408"",""0.072"",""0.468"",""0.810""]","[0,1,1,1]",0,29,29,29,1,1,1,,,1,FALSE,,,,,,,,,,,,,,,,,,,,,,,,,,,,,,,
,5eb3a51f58efe718f5cffdb4,627c6faa26803dda7de0e8e8,2022-05-11_22h24.41.474,classification_task,2021.2.3,Linux x86_64,60.0240096,627c6715c52fd12f31907bcf,,,,,,,,,,,,,,,,,,,,,,,a,0,2.4354,"[""0.334"",""0.286"",""0.649"",""0.770""]","[0,1,1,1]",0,30,30,30,1,1,0,,,1,FALSE,,,,,,,,,,,,,,,,,,,,,,,,,,,,,,,
,5eb3a51f58efe718f5cffdb4,627c6faa26803dda7de0e8e8,2022-05-11_22h24.41.474,classification_task,2021.2.3,Linux x86_64,60.0240096,627c6715c52fd12f31907bcf,,,,,,,,,,,,,,,,,,,,,,,a,1,2.0981,"[""0.334"",""0.506"",""0.900"",""0.965""]","[0,1,1,1]",0,31,31,31,1,0,0,,,1,FALSE,,,,,,,,,,,,,,,,,,,,,,,,,,,,,,,
,5eb3a51f58efe718f5cffdb4,627c6faa26803dda7de0e8e8,2022-05-11_22h24.41.474,classification_task,2021.2.3,Linux x86_64,60.0240096,627c6715c52fd12f31907bcf,,,,,,,,,,,,,,,,,,,,,,,l,1,1.1043,"[""0.110"",""0.340"",""0.649"",""0.770""]","[1,0,1,1]",0,32,32,32,1,1,0,,,1,FALSE,,,,,,,,,,,,,,,,,,,,,,,,,,,,,,,
,5eb3a51f58efe718f5cffdb4,627c6faa26803dda7de0e8e8,2022-05-11_22h24.41.474,classification_task,2021.2.3,Linux x86_64,60.0240096,627c6715c52fd12f31907bcf,,,,,,,,,,,,,,,,,,,,,,,a,1,0.7541,"[""0.223"",""0.408"",""0.900"",""0.965""]","[1,0,1,1]",0,33,33,33,1,0,0,,,1,FALSE,,,,,,,,,,,,,,,,,,,,,,,,,,,,,,,
,5eb3a51f58efe718f5cffdb4,627c6faa26803dda7de0e8e8,2022-05-11_22h24.41.474,classification_task,2021.2.3,Linux x86_64,60.0240096,627c6715c52fd12f31907bcf,,,,,,,,,,,,,,,,,,,,,,,a,1,1.5261,"[""0.174"",""0.554"",""0.727"",""0.598""]","[1,1,1,0]",0,34,34,34,1,0,1,,,1,FALSE,,,,,,,,,,,,,,,,,,,,,,,,,,,,,,,
,5eb3a51f58efe718f5cffdb4,627c6faa26803dda7de0e8e8,2022-05-11_22h24.41.474,classification_task,2021.2.3,Linux x86_64,60.0240096,627c6715c52fd12f31907bcf,,,,,,,,,,,,,,,,,,,,,,,a,1,0.8429,"[""0.223"",""0.506"",""0.374"",""0.965""]","[1,1,0,1]",0,35,35,35,1,0,0,,,1,FALSE,,,,,,,,,,,,,,,,,,,,,,,,,,,,,,,
,5eb3a51f58efe718f5cffdb4,627c6faa26803dda7de0e8e8,2022-05-11_22h24.41.474,classification_task,2021.2.3,Linux x86_64,60.0240096,627c6715c52fd12f31907bcf,,,,,,,,,,,,,,,,,,,,,,,l,1,0.7817,"[""0.032"",""0.072"",""0.468"",""0.326""]","[1,1,1,0]",0,36,36,36,1,1,1,,,1,FALSE,,,,,,,,,,,,,,,,,,,,,,,,,,,,,,,
,5eb3a51f58efe718f5cffdb4,627c6faa26803dda7de0e8e8,2022-05-11_22h24.41.474,classification_task,2021.2.3,Linux x86_64,60.0240096,627c6715c52fd12f31907bcf,,,,,,,,,,,,,,,,,,,,,,,l,1,1.6593,"[""0.110"",""0.286"",""0.396"",""0.770""]","[1,1,0,1]",0,37,37,37,1,1,0,,,1,FALSE,,,,,,,,,,,,,,,,,,,,,,,,,,,,,,,
,5eb3a51f58efe718f5cffdb4,627c6faa26803dda7de0e8e8,2022-05-11_22h24.41.474,classification_task,2021.2.3,Linux x86_64,60.0240096,627c6715c52fd12f31907bcf,,,,,,,,,,,,,,,,,,,,,,,l,1,1.2336,"[""0.032"",""0.408"",""0.468"",""0.810""]","[1,0,1,1]",0,38,38,38,1,1,1,,,1,FALSE,,,,,,,,,,,,,,,,,,,,,,,,,,,,,,,
,5eb3a51f58efe718f5cffdb4,627c6faa26803dda7de0e8e8,2022-05-11_22h24.41.474,classification_task,2021.2.3,Linux x86_64,60.0240096,627c6715c52fd12f31907bcf,,,,,,,,,,,,,,,,,,,,,,,l,1,1.3657,"[""0.614"",""0.286"",""0.649"",""0.770""]","[0,1,1,1]",0,39,39,39,1,1,0,,,1,FALSE,,,,,,,,,,,,,,,,,,,,,,,,,,,,,,,
,5eb3a51f58efe718f5cffdb4,627c6faa26803dda7de0e8e8,2022-05-11_22h24.41.474,classification_task,2021.2.3,Linux x86_64,60.0240096,627c6715c52fd12f31907bcf,,,,,,,,,,,,,,,,,,,,,,,a,1,1.3971,"[""0.174"",""0.554"",""0.422"",""0.848""]","[1,1,0,1]",0,40,40,40,1,0,1,,,1,FALSE,,,,,,,,,,,,,,,,,,,,,,,,,,,,,,,
,5eb3a51f58efe718f5cffdb4,627c6faa26803dda7de0e8e8,2022-05-11_22h24.41.474,classification_task,2021.2.3,Linux x86_64,60.0240096,627c6715c52fd12f31907bcf,,,,,,,,,,,,,,,,,,,,,,,l,1,0.9717,"[""0.032"",""0.072"",""0.345"",""0.810""]","[1,1,0,1]",0,41,41,41,1,1,1,,,1,FALSE,,,,,,,,,,,,,,,,,,,,,,,,,,,,,,,
,5eb3a51f58efe718f5cffdb4,627c6faa26803dda7de0e8e8,2022-05-11_22h24.41.474,classification_task,2021.2.3,Linux x86_64,60.0240096,627c6715c52fd12f31907bcf,,,,,,,,,,,,,,,,,,,,,,,a,1,1.1676,"[""0.340"",""0.506"",""0.900"",""0.965""]","[0,1,1,1]",0,42,42,42,1,0,0,,,1,FALSE,,,,,,,,,,,,,,,,,,,,,,,,,,,,,,,
,5eb3a51f58efe718f5cffdb4,627c6faa26803dda7de0e8e8,2022-05-11_22h24.41.474,classification_task,2021.2.3,Linux x86_64,60.0240096,627c6715c52fd12f31907bcf,,,,,,,,,,,,,,,,,,,,,,,a,1,2.5017,"[""0.691"",""0.554"",""0.727"",""0.848""]","[0,1,1,1]",0,43,43,43,1,0,1,,,1,FALSE,,,,,,,,,,,,,,,,,,,,,,,,,,,,,,,
,5eb3a51f58efe718f5cffdb4,627c6faa26803dda7de0e8e8,2022-05-11_22h24.41.474,classification_task,2021.2.3,Linux x86_64,60.0240096,627c6715c52fd12f31907bcf,,,,,,,,,,,,,,,,,,,,,,,a,1,2.138,"[""0.223"",""0.506"",""0.900"",""0.422""]","[1,1,1,0]",0,44,44,44,1,0,0,,,1,FALSE,,,,,,,,,,,,,,,,,,,,,,,,,,,,,,,
,5eb3a51f58efe718f5cffdb4,627c6faa26803dda7de0e8e8,2022-05-11_22h24.41.474,classification_task,2021.2.3,Linux x86_64,60.0240096,627c6715c52fd12f31907bcf,,,,,,,,,,,,,,,,,,,,,,,l,1,1.1602,"[""0.110"",""0.286"",""0.649"",""0.326""]","[1,1,1,0]",0,45,45,45,1,1,0,,,1,FALSE,,,,,,,,,,,,,,,,,,,,,,,,,,,,,,,
,5eb3a51f58efe718f5cffdb4,627c6faa26803dda7de0e8e8,2022-05-11_22h24.41.474,classification_task,2021.2.3,Linux x86_64,60.0240096,627c6715c52fd12f31907bcf,,,,,,,,,,,,,,,,,,,,,,,a,1,2.5825,"[""0.174"",""0.367"",""0.727"",""0.848""]","[1,0,1,1]",0,46,46,46,1,0,1,,,1,FALSE,,,,,,,,,,,,,,,,,,,,,,,,,,,,,,,
,5eb3a51f58efe718f5cffdb4,627c6faa26803dda7de0e8e8,2022-05-11_22h24.41.474,classification_task,2021.2.3,Linux x86_64,60.0240096,627c6715c52fd12f31907bcf,,,,,,,,,,,,,,,,,,,,,,,l,1,1.0283,"[""0.691"",""0.072"",""0.468"",""0.810""]","[0,1,1,1]",0,47,47,47,1,1,1,,,1,FALSE,,,,,,,,,,,,,,,,,,,,,,,,,,,,,,,
,5eb3a51f58efe718f5cffdb4,627c6faa26803dda7de0e8e8,2022-05-11_22h24.41.474,classification_task,2021.2.3,Linux x86_64,60.0240096,627c6715c52fd12f31907bcf,,,,,,,,,,,,,,,,,,,,,,,l,1,0.7416,"[""0.592"",""0.072"",""0.468"",""0.810""]","[0,1,1,1]",0,48,48,48,1,1,1,,,1,FALSE,,,,,,,,,,,,,,,,,,,,,,,,,,,,,,,
,5eb3a51f58efe718f5cffdb4,627c6faa26803dda7de0e8e8,2022-05-11_22h24.41.474,classification_task,2021.2.3,Linux x86_64,60.0240096,627c6715c52fd12f31907bcf,,,,,,,,,,,,,,,,,,,,,,,a,0,2.4829,"[""0.110"",""0.340"",""0.649"",""0.770""]","[1,0,1,1]",0,49,49,49,1,1,0,,,1,FALSE,,,,,,,,,,,,,,,,,,,,,,,,,,,,,,,
,5eb3a51f58efe718f5cffdb4,627c6faa26803dda7de0e8e8,2022-05-11_22h24.41.474,classification_task,2021.2.3,Linux x86_64,60.0240096,627c6715c52fd12f31907bcf,,,,,,,,,,,,,,,,,,,,,,,l,1,1.1978,"[""0.032"",""0.374"",""0.468"",""0.810""]","[1,0,1,1]",0,50,50,50,1,1,1,,,1,FALSE,,,,,,,,,,,,,,,,,,,,,,,,,,,,,,,
,5eb3a51f58efe718f5cffdb4,627c6faa26803dda7de0e8e8,2022-05-11_22h24.41.474,classification_task,2021.2.3,Linux x86_64,60.0240096,627c6715c52fd12f31907bcf,,,,,,,,,,,,,,,,,,,,,,,l,1,0.7137,"[""0.110"",""0.286"",""0.649"",""0.598""]","[1,1,1,0]",0,51,51,51,1,1,0,,,1,FALSE,,,,,,,,,,,,,,,,,,,,,,,,,,,,,,,
,5eb3a51f58efe718f5cffdb4,627c6faa26803dda7de0e8e8,2022-05-11_22h24.41.474,classification_task,2021.2.3,Linux x86_64,60.0240096,627c6715c52fd12f31907bcf,,,,,,,,,,,,,,,,,,,,,,,a,1,2.5955,"[""0.174"",""0.340"",""0.727"",""0.848""]","[1,0,1,1]",0,52,52,52,1,0,1,,,1,FALSE,,,,,,,,,,,,,,,,,,,,,,,,,,,,,,,
,5eb3a51f58efe718f5cffdb4,627c6faa26803dda7de0e8e8,2022-05-11_22h24.41.474,classification_task,2021.2.3,Linux x86_64,60.0240096,627c6715c52fd12f31907bcf,,,,,,,,,,,,,,,,,,,,,,,l,1,0.8286,"[""0.032"",""0.072"",""0.691"",""0.810""]","[1,1,0,1]",0,53,53,53,1,1,1,,,1,FALSE,,,,,,,,,,,,,,,,,,,,,,,,,,,,,,,
,5eb3a51f58efe718f5cffdb4,627c6faa26803dda7de0e8e8,2022-05-11_22h24.41.474,classification_task,2021.2.3,Linux x86_64,60.0240096,627c6715c52fd12f31907bcf,,,,,,,,,,,,,,,,,,,,,,,a,1,0.9801,"[""0.223"",""0.374"",""0.900"",""0.965""]","[1,0,1,1]",0,54,54,54,1,0,0,,,1,FALSE,,,,,,,,,,,,,,,,,,,,,,,,,,,,,,,
,5eb3a51f58efe718f5cffdb4,627c6faa26803dda7de0e8e8,2022-05-11_22h24.41.474,classification_task,2021.2.3,Linux x86_64,60.0240096,627c6715c52fd12f31907bcf,,,,,,,,,,,,,,,,,,,,,,,a,1,0.9472,"[""0.223"",""0.506"",""0.900"",""0.422""]","[1,1,1,0]",0,55,55,55,1,0,0,,,1,FALSE,,,,,,,,,,,,,,,,,,,,,,,,,,,,,,,
,5eb3a51f58efe718f5cffdb4,627c6faa26803dda7de0e8e8,2022-05-11_22h24.41.474,classification_task,2021.2.3,Linux x86_64,60.0240096,627c6715c52fd12f31907bcf,,,,,,,,,,,,,,,,,,,,,,,a,1,0.9963,"[""0.598"",""0.554"",""0.727"",""0.848""]","[0,1,1,1]",0,56,56,56,1,0,1,,,1,FALSE,,,,,,,,,,,,,,,,,,,,,,,,,,,,,,,
,5eb3a51f58efe718f5cffdb4,627c6faa26803dda7de0e8e8,2022-05-11_22h24.41.474,classification_task,2021.2.3,Linux x86_64,60.0240096,627c6715c52fd12f31907bcf,,,,,,,,,,,,,,,,,,,,,,,l,1,1.0084,"[""0.110"",""0.286"",""0.425"",""0.770""]","[1,1,0,1]",0,57,57,57,1,1,0,,,1,FALSE,,,,,,,,,,,,,,,,,,,,,,,,,,,,,,,
,5eb3a51f58efe718f5cffdb4,627c6faa26803dda7de0e8e8,2022-05-11_22h24.41.474,classification_task,2021.2.3,Linux x86_64,60.0240096,627c6715c52fd12f31907bcf,,,,,,,,,,,,,,,,,,,,,,,a,1,0.7728,"[""0.614"",""0.506"",""0.900"",""0.965""]","[0,1,1,1]",0,58,58,58,1,0,0,,,1,FALSE,,,,,,,,,,,,,,,,,,,,,,,,,,,,,,,
,5eb3a51f58efe718f5cffdb4,627c6faa26803dda7de0e8e8,2022-05-11_22h24.41.474,classification_task,2021.2.3,Linux x86_64,60.0240096,627c6715c52fd12f31907bcf,,,,,,,,,,,,,,,,,,,,,,,a,1,2.9813,"[""0.174"",""0.554"",""0.592"",""0.848""]","[1,1,0,1]",0,59,59,59,1,0,1,,,1,FALSE,,,,,,,,,,,,,,,,,,,,,,,,,,,,,,,
,5eb3a51f58efe718f5cffdb4,627c6faa26803dda7de0e8e8,2022-05-11_22h24.41.474,classification_task,2021.2.3,Linux x86_64,60.0240096,627c6715c52fd12f31907bcf,,,,,,,,,,,,,,,,,,,,,,,a,1,0.7988,"[""0.174"",""0.554"",""0.727"",""0.425""]","[1,1,1,0]",0,60,60,60,1,0,1,,,1,FALSE,,,,,,,,,,,,,,,,,,,,,,,,,,,,,,,
,5eb3a51f58efe718f5cffdb4,627c6faa26803dda7de0e8e8,2022-05-11_22h24.41.474,classification_task,2021.2.3,Linux x86_64,60.0240096,627c6715c52fd12f31907bcf,,,,,,,,,,,,,,,,,,,,,,,l,1,0.6709,"[""0.032"",""0.072"",""0.468"",""0.367""]","[1,1,1,0]",0,61,61,61,1,1,1,,,1,FALSE,,,,,,,,,,,,,,,,,,,,,,,,,,,,,,,
,5eb3a51f58efe718f5cffdb4,627c6faa26803dda7de0e8e8,2022-05-11_22h24.41.474,classification_task,2021.2.3,Linux x86_64,60.0240096,627c6715c52fd12f31907bcf,,,,,,,,,,,,,,,,,,,,,,,a,1,1.124,"[""0.223"",""0.506"",""0.598"",""0.965""]","[1,1,0,1]",0,62,62,62,1,0,0,,,1,FALSE,,,,,,,,,,,,,,,,,,,,,,,,,,,,,,,
,5eb3a51f58efe718f5cffdb4,627c6faa26803dda7de0e8e8,2022-05-11_22h24.41.474,classification_task,2021.2.3,Linux x86_64,60.0240096,627c6715c52fd12f31907bcf,,,,,,,,,,,,,,,,,,,,,,,l,1,0.8768,"[""0.367"",""0.286"",""0.649"",""0.770""]","[0,1,1,1]",0,63,63,63,1,1,0,,,1,FALSE,,,,,,,,,,,,,,,,,,,,,,,,,,,,,,,
,5eb3a51f58efe718f5cffdb4,627c6faa26803dda7de0e8e8,2022-05-11_22h24.41.474,classification_task,2021.2.3,Linux x86_64,60.0240096,627c6715c52fd12f31907bcf,,,,,,,,,,,,,,,,,,,,,,,,,,,,,,,,,,,,,,,0, ,,0,8.992749363,189.479,0,2,2,2,1,2,3,,,,,,,,,,,,,,,,,,
,5eb3a51f58efe718f5cffdb4,627c6faa26803dda7de0e8e8,2022-05-11_22h24.41.474,classification_task,2021.2.3,Linux x86_64,60.0240096,627c6715c52fd12f31907bcf,,,,,,,,,,,,,,,,,,,,,,,,,,,,,,,,,,,,,,,1,  ,,0,8.62531844,192.1531,0,2,2,2,1,2,3,,,,,,,,,,,,,,,,,,
,5eb3a51f58efe718f5cffdb4,627c6faa26803dda7de0e8e8,2022-05-11_22h24.41.474,classification_task,2021.2.3,Linux x86_64,60.0240096,627c6715c52fd12f31907bcf,,,,,,,,,,,,,,,,,,,,,,,,,,,,,,,,,,,,,,,2,  ,,0,7.890456594,194.3355,0,2,2,2,1,2,3,,,,,,,,,,,,,,,,,,
,5eb3a51f58efe718f5cffdb4,627c6faa26803dda7de0e8e8,2022-05-11_22h24.41.474,classification_task,2021.2.3,Linux x86_64,60.0240096,627c6715c52fd12f31907bcf,,,,,,,,,,,,,,,,,,,,,,,,,,,,,,,,,,,,,,,,,,,,,0,2,2,2,1,,3,,,,,,,,,,,,,,,,,,
,5eb3a51f58efe718f5cffdb4,627c6faa26803dda7de0e8e8,2022-05-11_22h24.41.474,classification_task,2021.2.3,Linux x86_64,60.0240096,627c6715c52fd12f31907bcf,,,,,,,,,,,,,,,,,,,,,,,,,,,,,,,,,,,,,,,,,,,,,,,,,,,,,I believe the aid is a competent performer,,0.7,0,3,1063.2977,0,0,0,0,1,0,,,,,
,5eb3a51f58efe718f5cffdb4,627c6faa26803dda7de0e8e8,2022-05-11_22h24.41.474,classification_task,2021.2.3,Linux x86_64,60.0240096,627c6715c52fd12f31907bcf,,,,,,,,,,,,,,,,,,,,,,,,,,,,,,,,,,,,,,,,,,,,,,,,,,,,,I trust the aid,,0.7,0,2,1057.7473,0,0,0,0,1,0,,,,,
,5eb3a51f58efe718f5cffdb4,627c6faa26803dda7de0e8e8,2022-05-11_22h24.41.474,classification_task,2021.2.3,Linux x86_64,60.0240096,627c6715c52fd12f31907bcf,,,,,,,,,,,,,,,,,,,,,,,,,,,,,,,,,,,,,,,,,,,,,,,,,,,,,I have confidence in the advice given by the aid,,0.7,0,2,1064.329,0,0,0,0,1,0,,,,,
,5eb3a51f58efe718f5cffdb4,627c6faa26803dda7de0e8e8,2022-05-11_22h24.41.474,classification_task,2021.2.3,Linux x86_64,60.0240096,627c6715c52fd12f31907bcf,,,,,,,,,,,,,,,,,,,,,,,,,,,,,,,,,,,,,,,,,,,,,,,,,,,,,I can depend on the aid,,0.7,0,2,1065.6922,0,0,0,0,1,0,,,,,
,5eb3a51f58efe718f5cffdb4,627c6faa26803dda7de0e8e8,2022-05-11_22h24.41.474,classification_task,2021.2.3,Linux x86_64,60.0240096,627c6715c52fd12f31907bcf,,,,,,,,,,,,,,,,,,,,,,,,,,,,,,,,,,,,,,,,,,,,,,,,,,,,,I can rely on the aid to behave in consistent ways,,0.7,0,1,1067.7947,0,0,0,0,1,0,,,,,
,5eb3a51f58efe718f5cffdb4,627c6faa26803dda7de0e8e8,2022-05-11_22h24.41.474,classification_task,2021.2.3,Linux x86_64,60.0240096,627c6715c52fd12f31907bcf,,,,,,,,,,,,,,,,,,,,,,,,,,,,,,,,,,,,,,,,,,,,,,,,,,,,,I can rely on the aid to do its best every time I take its advice,,0.7,0,2,1073.3134,0,0,0,0,1,0,,,,,
,5eb3a51f58efe718f5cffdb4,627c6faa26803dda7de0e8e8,2022-05-11_22h24.41.474,classification_task,2021.2.3,Linux x86_64,60.0240096,627c6715c52fd12f31907bcf,,,,,,,,,,,,,,,,,,,,,,,,,,,,,,,,,,,,,,,,,,,,,,,,,,,,,"On trials you completed with assistance from the aid, how frequently did you think the aid was correct?",,0.7,0,30,,0,0,0,0,1,0,,,,,
,5eb3a51f58efe718f5cffdb4,627c6faa26803dda7de0e8e8,2022-05-11_22h24.41.474,classification_task,2021.2.3,Linux x86_64,60.0240096,627c6715c52fd12f31907bcf,,,,,,,,,,,,,,,,,,,,,,,,,,,,,,,,,,,,,,,,,,,,,,,,,,,,,"On trials you completed without the aid, how frequently did you think you were correct?",,0.7,0,75,,0,0,0,0,1,0,,,,,
,5eb3a51f58efe718f5cffdb4,627c6faa26803dda7de0e8e8,2022-05-11_22h24.41.474,classification_task,2021.2.3,Linux x86_64,60.0240096,627c6715c52fd12f31907bcf,,,,,,,,,,,,,,,,,,,,,,,,,,,,,,,,,,,,,,,,,,,,,,,,,,,,,,,,,,,0,0,0,0,1,,,,,,
,5eb3a51f58efe718f5cffdb4,627c6faa26803dda7de0e8e8,2022-05-11_22h24.41.474,classification_task,2021.2.3,Linux x86_64,60.0240096,627c6715c52fd12f31907bcf,,,,,,,,,,,,,,,,,,,,,,,,,,,,,,,,,,,,,,,,,,,,,,,,,,,,,,,,,,,,,,,,,space,8.2227,1107.3946,,
,5eb3a51f58efe718f5cffdb4,627c6faa26803dda7de0e8e8,2022-05-11_22h24.41.474,classification_task,2021.2.3,Linux x86_64,60.0240096,627c6715c52fd12f31907bcf,,,,,,,,,,,,,,,,,,,,,,,,,,,,,,,,,,,,,,,,,,,,,,,,,,,,,,,,,,,,,,,,,,,,"Mozilla/5.0 (X11; Linux x86_64) AppleWebKit/537.36 (KHTML, like Gecko) Chrome/100.0.4896.127 Safari/537.36",
,5eb3a51f58efe718f5cffdb4,627c6faa26803dda7de0e8e8,2022-05-11_22h24.41.474,classification_task,2021.2.3,Linux x86_64,60.0240096,627c6715c52fd12f31907bcf,,,,,,,,,,,,,,,,,,,,,,,,,,,,,,,,,,,,,,,,,,,,,,,,,,,,,,,,,,,,,,,,,,,,,LOWLIGHT
