usingWebGL,participant,session,date,expName,psychopyVersion,OS,frameRate,study_id,signatures_friend,signatures_foe,band_ranges_top,band_ranges_bottom,formitemText,formtype,formundefined,formitemWidth,formindex,formresponse,formrt,key_resp_2.keys,key_resp_2.rt,tute_resp.keys,tute_resp.rt,tutorial.thisRepN,tutorial.thisTrialN,tutorial.thisN,tutorial.thisIndex,tutorial.ran,key_resp_4.keys,key_resp_4.rt,key_resp.keys,key_resp.corr,key_resp.rt,lines_presented,is_signal_presented,trials.thisRepN,trials.thisTrialN,trials.thisN,trials.thisIndex,trials.ran,vessel,active_band,lines,is_signal,supported_pos,catch_trial,debrief_formindex,debrief_formitemText,debrief_formtype,debrief_formitemWidth,debrief_formresponse,debrief_formrt,phases.thisRepN,phases.thisTrialN,phases.thisN,phases.thisIndex,phases.ran,phases.order,phase,key_resp_3.keys,trustitemText,trusttype,trustitemWidth,trustindex,trustresponse,trustrt,support_status.thisRepN,support_status.thisTrialN,support_status.thisN,support_status.thisIndex,support_status.ran,support_status.order,key_resp_5.keys,key_resp_5.rt,globalClockTime,userAgent,manualCondition
TRUE,5eb8db02ed810484c85ac7e2,627c706c10be7aadc9f67a0a,2022-05-11_21h27.10.178,classification_task,2021.2.3,Win32,32,627c6715c52fd12f31907bd0,,,,,,,,,,,,,,,,,,,,,,,,,,,,,,,,,,,,,,,,,,,,,,,,,,,,,,,,,,,,,,,,,,,,,
,5eb8db02ed810484c85ac7e2,627c706c10be7aadc9f67a0a,2022-05-11_21h27.10.178,classification_task,2021.2.3,Win32,32,627c6715c52fd12f31907bd0,"[[""0.253"",""0.542"",""0.925"",""0.972""],[""0.220"",""0.345"",""0.738"",""0.860""]]","[[""0.126"",""0.186"",""0.497"",""0.685""],[""0.040"",""0.311"",""0.441"",""0.824""]]","[1,10]","[100,1000]",Video game experience,,,0.7,0,,,,,,,,,,,,,,,,,,,,,,,,,,,,,,,,,,,,,,,,,,,,,,,,,,,,,,,,,,,,
,5eb8db02ed810484c85ac7e2,627c706c10be7aadc9f67a0a,2022-05-11_21h27.10.178,classification_task,2021.2.3,Win32,32,627c6715c52fd12f31907bd0,,,,,Approximately how many hours did you spend playing video games in the last week?,,,0.7,0,15,,,,,,,,,,,,,,,,,,,,,,,,,,,,,,,,,,,,,,,,,,,,,,,,,,,,,,,,,,,
,5eb8db02ed810484c85ac7e2,627c706c10be7aadc9f67a0a,2022-05-11_21h27.10.178,classification_task,2021.2.3,Win32,32,627c6715c52fd12f31907bd0,,,,,"Which game did you play the most this year? (Enter ""None"" if you didn't play any)",,,0.7,0,Stardew Valley,,,,,,,,,,,,,,,,,,,,,,,,,,,,,,,,,,,,,,,,,,,,,,,,,,,,,,,,,,,
,5eb8db02ed810484c85ac7e2,627c706c10be7aadc9f67a0a,2022-05-11_21h27.10.178,classification_task,2021.2.3,Win32,32,627c6715c52fd12f31907bd0,,,,,Visual perception,,,0.7,0,,,,,,,,,,,,,,,,,,,,,,,,,,,,,,,,,,,,,,,,,,,,,,,,,,,,,,,,,,,,
,5eb8db02ed810484c85ac7e2,627c706c10be7aadc9f67a0a,2022-05-11_21h27.10.178,classification_task,2021.2.3,Win32,32,627c6715c52fd12f31907bd0,,,,,Do you have any form of color blindness?,,,0.7,0,No,26.4029,,,,,,,,,,,,,,,,,,,,,,,,,,,,,,,,,,,,,,,,,,,,,,,,,,,,,,,,,,
,5eb8db02ed810484c85ac7e2,627c706c10be7aadc9f67a0a,2022-05-11_21h27.10.178,classification_task,2021.2.3,Win32,32,627c6715c52fd12f31907bd0,,,,,Do you use software to change the colour temperature of your screen (e.g. f.lux)?,,,0.7,0,No,29.1335,,,,,,,,,,,,,,,,,,,,,,,,,,,,,,,,,,,,,,,,,,,,,,,,,,,,,,,,,,
,5eb8db02ed810484c85ac7e2,627c706c10be7aadc9f67a0a,2022-05-11_21h27.10.178,classification_task,2021.2.3,Win32,32,627c6715c52fd12f31907bd0,,,,,,,,,,,,space,29.2703,space,17.5638,0,0,0,0,1,,,,,,,,,,,,,,,,,,,,,,,,,,,,,,,,,,,,,,,,,,,,,,,,,
,5eb8db02ed810484c85ac7e2,627c706c10be7aadc9f67a0a,2022-05-11_21h27.10.178,classification_task,2021.2.3,Win32,32,627c6715c52fd12f31907bd0,,,,,,,,,,,,,,space,7.4856,1,0,1,0,1,,,,,,,,,,,,,,,,,,,,,,,,,,,,,,,,,,,,,,,,,,,,,,,,,
,5eb8db02ed810484c85ac7e2,627c706c10be7aadc9f67a0a,2022-05-11_21h27.10.178,classification_task,2021.2.3,Win32,32,627c6715c52fd12f31907bd0,,,,,,,,,,,,,,space,35.3051,2,0,2,0,1,,,,,,,,,,,,,,,,,,,,,,,,,,,,,,,,,,,,,,,,,,,,,,,,,
,5eb8db02ed810484c85ac7e2,627c706c10be7aadc9f67a0a,2022-05-11_21h27.10.178,classification_task,2021.2.3,Win32,32,627c6715c52fd12f31907bd0,,,,,,,,,,,,,,space,10.0929,3,0,3,0,1,,,,,,,,,,,,,,,,,,,,,,,,,,,,,,,,,,,,,,,,,,,,,,,,,
,5eb8db02ed810484c85ac7e2,627c706c10be7aadc9f67a0a,2022-05-11_21h27.10.178,classification_task,2021.2.3,Win32,32,627c6715c52fd12f31907bd0,,,,,,,,,,,,,,space,17.3697,4,0,4,0,1,,,,,,,,,,,,,,,,,,,,,,,,,,,,,,,,,,,,,,,,,,,,,,,,,
,5eb8db02ed810484c85ac7e2,627c706c10be7aadc9f67a0a,2022-05-11_21h27.10.178,classification_task,2021.2.3,Win32,32,627c6715c52fd12f31907bd0,,,,,,,,,,,,,,,,,,,,,space,21.6751,l,1,5.0372,"[""0.126"",""0.645"",""0.497"",""0.685""]","[1,0,1,1]",0,0,0,0,1,1,0,,,0,FALSE,,,,,,,,,,,,,,,,,,,,,,,,,,,,,,,
,5eb8db02ed810484c85ac7e2,627c706c10be7aadc9f67a0a,2022-05-11_21h27.10.178,classification_task,2021.2.3,Win32,32,627c6715c52fd12f31907bd0,,,,,,,,,,,,,,,,,,,,,,,a,1,4.9221,"[""0.220"",""0.345"",""0.738"",""0.645""]","[1,1,1,0]",0,1,1,1,1,0,1,,,0,FALSE,,,,,,,,,,,,,,,,,,,,,,,,,,,,,,,
,5eb8db02ed810484c85ac7e2,627c706c10be7aadc9f67a0a,2022-05-11_21h27.10.178,classification_task,2021.2.3,Win32,32,627c6715c52fd12f31907bd0,,,,,,,,,,,,,,,,,,,,,,,l,1,4.477,"[""0.383"",""0.311"",""0.441"",""0.824""]","[0,1,1,1]",0,2,2,2,1,1,1,,,0,FALSE,,,,,,,,,,,,,,,,,,,,,,,,,,,,,,,
,5eb8db02ed810484c85ac7e2,627c706c10be7aadc9f67a0a,2022-05-11_21h27.10.178,classification_task,2021.2.3,Win32,32,627c6715c52fd12f31907bd0,,,,,,,,,,,,,,,,,,,,,,,l,0,4.7421,"[""0.085"",""0.345"",""0.738"",""0.860""]","[0,1,1,1]",0,3,3,3,1,0,1,,,0,FALSE,,,,,,,,,,,,,,,,,,,,,,,,,,,,,,,
,5eb8db02ed810484c85ac7e2,627c706c10be7aadc9f67a0a,2022-05-11_21h27.10.178,classification_task,2021.2.3,Win32,32,627c6715c52fd12f31907bd0,,,,,,,,,,,,,,,,,,,,,,,a,1,3.6808,"[""0.220"",""0.780"",""0.738"",""0.860""]","[1,0,1,1]",0,4,4,4,1,0,1,,,0,FALSE,,,,,,,,,,,,,,,,,,,,,,,,,,,,,,,
,5eb8db02ed810484c85ac7e2,627c706c10be7aadc9f67a0a,2022-05-11_21h27.10.178,classification_task,2021.2.3,Win32,32,627c6715c52fd12f31907bd0,,,,,,,,,,,,,,,,,,,,,,,l,1,3.999,"[""0.126"",""0.186"",""0.776"",""0.685""]","[1,1,0,1]",0,5,5,5,1,1,0,,,0,FALSE,,,,,,,,,,,,,,,,,,,,,,,,,,,,,,,
,5eb8db02ed810484c85ac7e2,627c706c10be7aadc9f67a0a,2022-05-11_21h27.10.178,classification_task,2021.2.3,Win32,32,627c6715c52fd12f31907bd0,,,,,,,,,,,,,,,,,,,,,,,a,1,5.9385,"[""0.623"",""0.542"",""0.925"",""0.972""]","[0,1,1,1]",0,6,6,6,1,0,0,,,0,FALSE,,,,,,,,,,,,,,,,,,,,,,,,,,,,,,,
,5eb8db02ed810484c85ac7e2,627c706c10be7aadc9f67a0a,2022-05-11_21h27.10.178,classification_task,2021.2.3,Win32,32,627c6715c52fd12f31907bd0,,,,,,,,,,,,,,,,,,,,,,,l,1,4.0148,"[""0.040"",""0.311"",""0.441"",""0.645""]","[1,1,1,0]",0,7,7,7,1,1,1,,,0,FALSE,,,,,,,,,,,,,,,,,,,,,,,,,,,,,,,
,5eb8db02ed810484c85ac7e2,627c706c10be7aadc9f67a0a,2022-05-11_21h27.10.178,classification_task,2021.2.3,Win32,32,627c6715c52fd12f31907bd0,,,,,,,,,,,,,,,,,,,,,,,a,1,4.4605,"[""0.253"",""0.542"",""0.925"",""0.645""]","[1,1,1,0]",0,8,8,8,1,0,0,,,0,FALSE,,,,,,,,,,,,,,,,,,,,,,,,,,,,,,,
,5eb8db02ed810484c85ac7e2,627c706c10be7aadc9f67a0a,2022-05-11_21h27.10.178,classification_task,2021.2.3,Win32,32,627c6715c52fd12f31907bd0,,,,,,,,,,,,,,,,,,,,,,,a,1,3.5932,"[""0.220"",""0.345"",""0.649"",""0.860""]","[1,1,0,1]",0,9,9,9,1,0,1,,,0,FALSE,,,,,,,,,,,,,,,,,,,,,,,,,,,,,,,
,5eb8db02ed810484c85ac7e2,627c706c10be7aadc9f67a0a,2022-05-11_21h27.10.178,classification_task,2021.2.3,Win32,32,627c6715c52fd12f31907bd0,,,,,,,,,,,,,,,,,,,,,,,l,1,3.2974,"[""0.040"",""0.649"",""0.441"",""0.824""]","[1,0,1,1]",0,10,10,10,1,1,1,,,0,FALSE,,,,,,,,,,,,,,,,,,,,,,,,,,,,,,,
,5eb8db02ed810484c85ac7e2,627c706c10be7aadc9f67a0a,2022-05-11_21h27.10.178,classification_task,2021.2.3,Win32,32,627c6715c52fd12f31907bd0,,,,,,,,,,,,,,,,,,,,,,,l,1,3.4572,"[""0.083"",""0.186"",""0.497"",""0.685""]","[0,1,1,1]",0,11,11,11,1,1,0,,,0,FALSE,,,,,,,,,,,,,,,,,,,,,,,,,,,,,,,
,5eb8db02ed810484c85ac7e2,627c706c10be7aadc9f67a0a,2022-05-11_21h27.10.178,classification_task,2021.2.3,Win32,32,627c6715c52fd12f31907bd0,,,,,,,,,,,,,,,,,,,,,,,l,1,4.8463,"[""0.126"",""0.186"",""0.497"",""0.082""]","[1,1,1,0]",0,12,12,12,1,1,0,,,0,FALSE,,,,,,,,,,,,,,,,,,,,,,,,,,,,,,,
,5eb8db02ed810484c85ac7e2,627c706c10be7aadc9f67a0a,2022-05-11_21h27.10.178,classification_task,2021.2.3,Win32,32,627c6715c52fd12f31907bd0,,,,,,,,,,,,,,,,,,,,,,,l,1,3.6386,"[""0.040"",""0.311"",""0.082"",""0.824""]","[1,1,0,1]",0,13,13,13,1,1,1,,,0,FALSE,,,,,,,,,,,,,,,,,,,,,,,,,,,,,,,
,5eb8db02ed810484c85ac7e2,627c706c10be7aadc9f67a0a,2022-05-11_21h27.10.178,classification_task,2021.2.3,Win32,32,627c6715c52fd12f31907bd0,,,,,,,,,,,,,,,,,,,,,,,a,1,3.9505,"[""0.253"",""0.542"",""0.649"",""0.972""]","[1,1,0,1]",0,14,14,14,1,0,0,,,0,FALSE,,,,,,,,,,,,,,,,,,,,,,,,,,,,,,,
,5eb8db02ed810484c85ac7e2,627c706c10be7aadc9f67a0a,2022-05-11_21h27.10.178,classification_task,2021.2.3,Win32,32,627c6715c52fd12f31907bd0,,,,,,,,,,,,,,,,,,,,,,,a,1,3.3704,"[""0.253"",""0.623"",""0.925"",""0.972""]","[1,0,1,1]",0,15,15,15,1,0,0,,,0,FALSE,,,,,,,,,,,,,,,,,,,,,,,,,,,,,,,
,5eb8db02ed810484c85ac7e2,627c706c10be7aadc9f67a0a,2022-05-11_21h27.10.178,classification_task,2021.2.3,Win32,32,627c6715c52fd12f31907bd0,,,,,,,,,,,,,,,,,,,,,,,l,1,2.2232,"[""0.040"",""0.083"",""0.441"",""0.824""]","[1,0,1,1]",0,16,16,16,1,1,1,,,0,FALSE,,,,,,,,,,,,,,,,,,,,,,,,,,,,,,,
,5eb8db02ed810484c85ac7e2,627c706c10be7aadc9f67a0a,2022-05-11_21h27.10.178,classification_task,2021.2.3,Win32,32,627c6715c52fd12f31907bd0,,,,,,,,,,,,,,,,,,,,,,,a,1,4.4214,"[""0.645"",""0.542"",""0.925"",""0.972""]","[0,1,1,1]",0,17,17,17,1,0,0,,,0,FALSE,,,,,,,,,,,,,,,,,,,,,,,,,,,,,,,
,5eb8db02ed810484c85ac7e2,627c706c10be7aadc9f67a0a,2022-05-11_21h27.10.178,classification_task,2021.2.3,Win32,32,627c6715c52fd12f31907bd0,,,,,,,,,,,,,,,,,,,,,,,a,1,3.7727,"[""0.253"",""0.542"",""0.925"",""0.776""]","[1,1,1,0]",0,18,18,18,1,0,0,,,0,FALSE,,,,,,,,,,,,,,,,,,,,,,,,,,,,,,,
,5eb8db02ed810484c85ac7e2,627c706c10be7aadc9f67a0a,2022-05-11_21h27.10.178,classification_task,2021.2.3,Win32,32,627c6715c52fd12f31907bd0,,,,,,,,,,,,,,,,,,,,,,,l,1,2.1425,"[""0.040"",""0.311"",""0.441"",""0.082""]","[1,1,1,0]",0,19,19,19,1,1,1,,,0,FALSE,,,,,,,,,,,,,,,,,,,,,,,,,,,,,,,
,5eb8db02ed810484c85ac7e2,627c706c10be7aadc9f67a0a,2022-05-11_21h27.10.178,classification_task,2021.2.3,Win32,32,627c6715c52fd12f31907bd0,,,,,,,,,,,,,,,,,,,,,,,l,1,2.7408,"[""0.126"",""0.186"",""0.645"",""0.685""]","[1,1,0,1]",0,20,20,20,1,1,0,,,0,FALSE,,,,,,,,,,,,,,,,,,,,,,,,,,,,,,,
,5eb8db02ed810484c85ac7e2,627c706c10be7aadc9f67a0a,2022-05-11_21h27.10.178,classification_task,2021.2.3,Win32,32,627c6715c52fd12f31907bd0,,,,,,,,,,,,,,,,,,,,,,,a,1,2.6895,"[""0.253"",""0.542"",""0.383"",""0.972""]","[1,1,0,1]",0,21,21,21,1,0,0,,,0,FALSE,,,,,,,,,,,,,,,,,,,,,,,,,,,,,,,
,5eb8db02ed810484c85ac7e2,627c706c10be7aadc9f67a0a,2022-05-11_21h27.10.178,classification_task,2021.2.3,Win32,32,627c6715c52fd12f31907bd0,,,,,,,,,,,,,,,,,,,,,,,a,1,2.5295,"[""0.220"",""0.776"",""0.738"",""0.860""]","[1,0,1,1]",0,22,22,22,1,0,1,,,0,FALSE,,,,,,,,,,,,,,,,,,,,,,,,,,,,,,,
,5eb8db02ed810484c85ac7e2,627c706c10be7aadc9f67a0a,2022-05-11_21h27.10.178,classification_task,2021.2.3,Win32,32,627c6715c52fd12f31907bd0,,,,,,,,,,,,,,,,,,,,,,,l,1,5.6105,"[""0.383"",""0.186"",""0.497"",""0.685""]","[0,1,1,1]",0,23,23,23,1,1,0,,,0,FALSE,,,,,,,,,,,,,,,,,,,,,,,,,,,,,,,
,5eb8db02ed810484c85ac7e2,627c706c10be7aadc9f67a0a,2022-05-11_21h27.10.178,classification_task,2021.2.3,Win32,32,627c6715c52fd12f31907bd0,,,,,,,,,,,,,,,,,,,,,,,a,1,3.448,"[""0.253"",""0.649"",""0.925"",""0.972""]","[1,0,1,1]",0,24,24,24,1,0,0,,,0,FALSE,,,,,,,,,,,,,,,,,,,,,,,,,,,,,,,
,5eb8db02ed810484c85ac7e2,627c706c10be7aadc9f67a0a,2022-05-11_21h27.10.178,classification_task,2021.2.3,Win32,32,627c6715c52fd12f31907bd0,,,,,,,,,,,,,,,,,,,,,,,l,1,2.6193,"[""0.126"",""0.186"",""0.497"",""0.091""]","[1,1,1,0]",0,25,25,25,1,1,0,,,0,FALSE,,,,,,,,,,,,,,,,,,,,,,,,,,,,,,,
,5eb8db02ed810484c85ac7e2,627c706c10be7aadc9f67a0a,2022-05-11_21h27.10.178,classification_task,2021.2.3,Win32,32,627c6715c52fd12f31907bd0,,,,,,,,,,,,,,,,,,,,,,,a,1,2.6122,"[""0.220"",""0.345"",""0.645"",""0.860""]","[1,1,0,1]",0,26,26,26,1,0,1,,,0,FALSE,,,,,,,,,,,,,,,,,,,,,,,,,,,,,,,
,5eb8db02ed810484c85ac7e2,627c706c10be7aadc9f67a0a,2022-05-11_21h27.10.178,classification_task,2021.2.3,Win32,32,627c6715c52fd12f31907bd0,,,,,,,,,,,,,,,,,,,,,,,l,1,2.0365,"[""0.040"",""0.311"",""0.388"",""0.824""]","[1,1,0,1]",0,27,27,27,1,1,1,,,0,FALSE,,,,,,,,,,,,,,,,,,,,,,,,,,,,,,,
,5eb8db02ed810484c85ac7e2,627c706c10be7aadc9f67a0a,2022-05-11_21h27.10.178,classification_task,2021.2.3,Win32,32,627c6715c52fd12f31907bd0,,,,,,,,,,,,,,,,,,,,,,,a,0,6.3929,"[""0.382"",""0.311"",""0.441"",""0.824""]","[0,1,1,1]",0,28,28,28,1,1,1,,,0,FALSE,,,,,,,,,,,,,,,,,,,,,,,,,,,,,,,
,5eb8db02ed810484c85ac7e2,627c706c10be7aadc9f67a0a,2022-05-11_21h27.10.178,classification_task,2021.2.3,Win32,32,627c6715c52fd12f31907bd0,,,,,,,,,,,,,,,,,,,,,,,l,0,2.6,"[""0.082"",""0.345"",""0.738"",""0.860""]","[0,1,1,1]",0,29,29,29,1,0,1,,,0,FALSE,,,,,,,,,,,,,,,,,,,,,,,,,,,,,,,
,5eb8db02ed810484c85ac7e2,627c706c10be7aadc9f67a0a,2022-05-11_21h27.10.178,classification_task,2021.2.3,Win32,32,627c6715c52fd12f31907bd0,,,,,,,,,,,,,,,,,,,,,,,l,1,3.0172,"[""0.126"",""0.780"",""0.497"",""0.685""]","[1,0,1,1]",0,30,30,30,1,1,0,,,0,FALSE,,,,,,,,,,,,,,,,,,,,,,,,,,,,,,,
,5eb8db02ed810484c85ac7e2,627c706c10be7aadc9f67a0a,2022-05-11_21h27.10.178,classification_task,2021.2.3,Win32,32,627c6715c52fd12f31907bd0,,,,,,,,,,,,,,,,,,,,,,,a,1,2.5674,"[""0.220"",""0.345"",""0.738"",""0.649""]","[1,1,1,0]",0,31,31,31,1,0,1,,,0,FALSE,,,,,,,,,,,,,,,,,,,,,,,,,,,,,,,
,5eb8db02ed810484c85ac7e2,627c706c10be7aadc9f67a0a,2022-05-11_21h27.10.178,classification_task,2021.2.3,Win32,32,627c6715c52fd12f31907bd0,,,,,,,,,,,,,,,,,,,,,,,a,1,4.2671,"[""0.081"",""0.542"",""0.925"",""0.972""]","[0,1,1,1]",0,32,32,32,1,0,0,,,0,FALSE,,,,,,,,,,,,,,,,,,,,,,,,,,,,,,,
,5eb8db02ed810484c85ac7e2,627c706c10be7aadc9f67a0a,2022-05-11_21h27.10.178,classification_task,2021.2.3,Win32,32,627c6715c52fd12f31907bd0,,,,,,,,,,,,,,,,,,,,,,,l,0,3.1107,"[""0.623"",""0.345"",""0.738"",""0.860""]","[0,1,1,1]",0,33,33,33,1,0,1,,,0,FALSE,,,,,,,,,,,,,,,,,,,,,,,,,,,,,,,
,5eb8db02ed810484c85ac7e2,627c706c10be7aadc9f67a0a,2022-05-11_21h27.10.178,classification_task,2021.2.3,Win32,32,627c6715c52fd12f31907bd0,,,,,,,,,,,,,,,,,,,,,,,a,0,4.349,"[""0.040"",""0.083"",""0.441"",""0.824""]","[1,0,1,1]",0,34,34,34,1,1,1,,,0,FALSE,,,,,,,,,,,,,,,,,,,,,,,,,,,,,,,
,5eb8db02ed810484c85ac7e2,627c706c10be7aadc9f67a0a,2022-05-11_21h27.10.178,classification_task,2021.2.3,Win32,32,627c6715c52fd12f31907bd0,,,,,,,,,,,,,,,,,,,,,,,a,1,3.7703,"[""0.253"",""0.383"",""0.925"",""0.972""]","[1,0,1,1]",0,35,35,35,1,0,0,,,0,FALSE,,,,,,,,,,,,,,,,,,,,,,,,,,,,,,,
,5eb8db02ed810484c85ac7e2,627c706c10be7aadc9f67a0a,2022-05-11_21h27.10.178,classification_task,2021.2.3,Win32,32,627c6715c52fd12f31907bd0,,,,,,,,,,,,,,,,,,,,,,,a,1,4.4507,"[""0.220"",""0.345"",""0.738"",""0.780""]","[1,1,1,0]",0,36,36,36,1,0,1,,,0,FALSE,,,,,,,,,,,,,,,,,,,,,,,,,,,,,,,
,5eb8db02ed810484c85ac7e2,627c706c10be7aadc9f67a0a,2022-05-11_21h27.10.178,classification_task,2021.2.3,Win32,32,627c6715c52fd12f31907bd0,,,,,,,,,,,,,,,,,,,,,,,l,1,3.3901,"[""0.126"",""0.186"",""0.085"",""0.685""]","[1,1,0,1]",0,37,37,37,1,1,0,,,0,FALSE,,,,,,,,,,,,,,,,,,,,,,,,,,,,,,,
,5eb8db02ed810484c85ac7e2,627c706c10be7aadc9f67a0a,2022-05-11_21h27.10.178,classification_task,2021.2.3,Win32,32,627c6715c52fd12f31907bd0,,,,,,,,,,,,,,,,,,,,,,,l,1,3.5677,"[""0.780"",""0.311"",""0.441"",""0.824""]","[0,1,1,1]",0,38,38,38,1,1,1,,,0,FALSE,,,,,,,,,,,,,,,,,,,,,,,,,,,,,,,
,5eb8db02ed810484c85ac7e2,627c706c10be7aadc9f67a0a,2022-05-11_21h27.10.178,classification_task,2021.2.3,Win32,32,627c6715c52fd12f31907bd0,,,,,,,,,,,,,,,,,,,,,,,l,1,3.7626,"[""0.040"",""0.311"",""0.441"",""0.081""]","[1,1,1,0]",0,39,39,39,1,1,1,,,0,FALSE,,,,,,,,,,,,,,,,,,,,,,,,,,,,,,,
,5eb8db02ed810484c85ac7e2,627c706c10be7aadc9f67a0a,2022-05-11_21h27.10.178,classification_task,2021.2.3,Win32,32,627c6715c52fd12f31907bd0,,,,,,,,,,,,,,,,,,,,,,,a,1,2.8095,"[""0.253"",""0.542"",""0.925"",""0.081""]","[1,1,1,0]",0,40,40,40,1,0,0,,,0,FALSE,,,,,,,,,,,,,,,,,,,,,,,,,,,,,,,
,5eb8db02ed810484c85ac7e2,627c706c10be7aadc9f67a0a,2022-05-11_21h27.10.178,classification_task,2021.2.3,Win32,32,627c6715c52fd12f31907bd0,,,,,,,,,,,,,,,,,,,,,,,a,1,2.5845,"[""0.220"",""0.345"",""0.085"",""0.860""]","[1,1,0,1]",0,41,41,41,1,0,1,,,0,FALSE,,,,,,,,,,,,,,,,,,,,,,,,,,,,,,,
,5eb8db02ed810484c85ac7e2,627c706c10be7aadc9f67a0a,2022-05-11_21h27.10.178,classification_task,2021.2.3,Win32,32,627c6715c52fd12f31907bd0,,,,,,,,,,,,,,,,,,,,,,,l,0,2.3116,"[""0.253"",""0.542"",""0.780"",""0.972""]","[1,1,0,1]",0,42,42,42,1,0,0,,,0,FALSE,,,,,,,,,,,,,,,,,,,,,,,,,,,,,,,
,5eb8db02ed810484c85ac7e2,627c706c10be7aadc9f67a0a,2022-05-11_21h27.10.178,classification_task,2021.2.3,Win32,32,627c6715c52fd12f31907bd0,,,,,,,,,,,,,,,,,,,,,,,a,0,3.6977,"[""0.126"",""0.186"",""0.497"",""0.645""]","[1,1,1,0]",0,43,43,43,1,1,0,,,0,FALSE,,,,,,,,,,,,,,,,,,,,,,,,,,,,,,,
,5eb8db02ed810484c85ac7e2,627c706c10be7aadc9f67a0a,2022-05-11_21h27.10.178,classification_task,2021.2.3,Win32,32,627c6715c52fd12f31907bd0,,,,,,,,,,,,,,,,,,,,,,,l,1,0.2677,"[""0.780"",""0.186"",""0.497"",""0.685""]","[0,1,1,1]",0,44,44,44,1,1,0,,,0,FALSE,,,,,,,,,,,,,,,,,,,,,,,,,,,,,,,
,5eb8db02ed810484c85ac7e2,627c706c10be7aadc9f67a0a,2022-05-11_21h27.10.178,classification_task,2021.2.3,Win32,32,627c6715c52fd12f31907bd0,,,,,,,,,,,,,,,,,,,,,,,l,1,2.7558,"[""0.126"",""0.091"",""0.497"",""0.685""]","[1,0,1,1]",0,45,45,45,1,1,0,,,0,FALSE,,,,,,,,,,,,,,,,,,,,,,,,,,,,,,,
,5eb8db02ed810484c85ac7e2,627c706c10be7aadc9f67a0a,2022-05-11_21h27.10.178,classification_task,2021.2.3,Win32,32,627c6715c52fd12f31907bd0,,,,,,,,,,,,,,,,,,,,,,,a,0,2.0731,"[""0.040"",""0.311"",""0.085"",""0.824""]","[1,1,0,1]",0,46,46,46,1,1,1,,,0,FALSE,,,,,,,,,,,,,,,,,,,,,,,,,,,,,,,
,5eb8db02ed810484c85ac7e2,627c706c10be7aadc9f67a0a,2022-05-11_21h27.10.178,classification_task,2021.2.3,Win32,32,627c6715c52fd12f31907bd0,,,,,,,,,,,,,,,,,,,,,,,l,0,2.8294,"[""0.220"",""0.081"",""0.738"",""0.860""]","[1,0,1,1]",0,47,47,47,1,0,1,,,0,FALSE,,,,,,,,,,,,,,,,,,,,,,,,,,,,,,,
,5eb8db02ed810484c85ac7e2,627c706c10be7aadc9f67a0a,2022-05-11_21h27.10.178,classification_task,2021.2.3,Win32,32,627c6715c52fd12f31907bd0,,,,,,,,,,,,,,,,,,,,,,,a,1,3.1885,"[""0.776"",""0.542"",""0.925"",""0.972""]","[0,1,1,1]",0,48,48,48,1,0,0,,,0,FALSE,,,,,,,,,,,,,,,,,,,,,,,,,,,,,,,
,5eb8db02ed810484c85ac7e2,627c706c10be7aadc9f67a0a,2022-05-11_21h27.10.178,classification_task,2021.2.3,Win32,32,627c6715c52fd12f31907bd0,,,,,,,,,,,,,,,,,,,,,,,l,0,3.8527,"[""0.253"",""0.542"",""0.925"",""0.383""]","[1,1,1,0]",0,49,49,49,1,0,0,,,0,FALSE,,,,,,,,,,,,,,,,,,,,,,,,,,,,,,,
,5eb8db02ed810484c85ac7e2,627c706c10be7aadc9f67a0a,2022-05-11_21h27.10.178,classification_task,2021.2.3,Win32,32,627c6715c52fd12f31907bd0,,,,,,,,,,,,,,,,,,,,,,,a,1,2.1096,"[""0.220"",""0.345"",""0.649"",""0.860""]","[1,1,0,1]",0,50,50,50,1,0,1,,,0,FALSE,,,,,,,,,,,,,,,,,,,,,,,,,,,,,,,
,5eb8db02ed810484c85ac7e2,627c706c10be7aadc9f67a0a,2022-05-11_21h27.10.178,classification_task,2021.2.3,Win32,32,627c6715c52fd12f31907bd0,,,,,,,,,,,,,,,,,,,,,,,a,1,2.1017,"[""0.081"",""0.345"",""0.738"",""0.860""]","[0,1,1,1]",0,51,51,51,1,0,1,,,0,FALSE,,,,,,,,,,,,,,,,,,,,,,,,,,,,,,,
,5eb8db02ed810484c85ac7e2,627c706c10be7aadc9f67a0a,2022-05-11_21h27.10.178,classification_task,2021.2.3,Win32,32,627c6715c52fd12f31907bd0,,,,,,,,,,,,,,,,,,,,,,,a,0,2.1435,"[""0.126"",""0.383"",""0.497"",""0.685""]","[1,0,1,1]",0,52,52,52,1,1,0,,,0,FALSE,,,,,,,,,,,,,,,,,,,,,,,,,,,,,,,
,5eb8db02ed810484c85ac7e2,627c706c10be7aadc9f67a0a,2022-05-11_21h27.10.178,classification_task,2021.2.3,Win32,32,627c6715c52fd12f31907bd0,,,,,,,,,,,,,,,,,,,,,,,l,1,2.6514,"[""0.040"",""0.383"",""0.441"",""0.824""]","[1,0,1,1]",0,53,53,53,1,1,1,,,0,FALSE,,,,,,,,,,,,,,,,,,,,,,,,,,,,,,,
,5eb8db02ed810484c85ac7e2,627c706c10be7aadc9f67a0a,2022-05-11_21h27.10.178,classification_task,2021.2.3,Win32,32,627c6715c52fd12f31907bd0,,,,,,,,,,,,,,,,,,,,,,,a,0,2.4666,"[""0.780"",""0.311"",""0.441"",""0.824""]","[0,1,1,1]",0,54,54,54,1,1,1,,,0,FALSE,,,,,,,,,,,,,,,,,,,,,,,,,,,,,,,
,5eb8db02ed810484c85ac7e2,627c706c10be7aadc9f67a0a,2022-05-11_21h27.10.178,classification_task,2021.2.3,Win32,32,627c6715c52fd12f31907bd0,,,,,,,,,,,,,,,,,,,,,,,a,1,2.1951,"[""0.253"",""0.542"",""0.081"",""0.972""]","[1,1,0,1]",0,55,55,55,1,0,0,,,0,FALSE,,,,,,,,,,,,,,,,,,,,,,,,,,,,,,,
,5eb8db02ed810484c85ac7e2,627c706c10be7aadc9f67a0a,2022-05-11_21h27.10.178,classification_task,2021.2.3,Win32,32,627c6715c52fd12f31907bd0,,,,,,,,,,,,,,,,,,,,,,,a,1,3.2123,"[""0.253"",""0.649"",""0.925"",""0.972""]","[1,0,1,1]",0,56,56,56,1,0,0,,,0,FALSE,,,,,,,,,,,,,,,,,,,,,,,,,,,,,,,
,5eb8db02ed810484c85ac7e2,627c706c10be7aadc9f67a0a,2022-05-11_21h27.10.178,classification_task,2021.2.3,Win32,32,627c6715c52fd12f31907bd0,,,,,,,,,,,,,,,,,,,,,,,l,1,3.7952,"[""0.040"",""0.311"",""0.776"",""0.824""]","[1,1,0,1]",0,57,57,57,1,1,1,,,0,FALSE,,,,,,,,,,,,,,,,,,,,,,,,,,,,,,,
,5eb8db02ed810484c85ac7e2,627c706c10be7aadc9f67a0a,2022-05-11_21h27.10.178,classification_task,2021.2.3,Win32,32,627c6715c52fd12f31907bd0,,,,,,,,,,,,,,,,,,,,,,,l,1,2.2061,"[""0.126"",""0.186"",""0.082"",""0.685""]","[1,1,0,1]",0,58,58,58,1,1,0,,,0,FALSE,,,,,,,,,,,,,,,,,,,,,,,,,,,,,,,
,5eb8db02ed810484c85ac7e2,627c706c10be7aadc9f67a0a,2022-05-11_21h27.10.178,classification_task,2021.2.3,Win32,32,627c6715c52fd12f31907bd0,,,,,,,,,,,,,,,,,,,,,,,l,1,2.8318,"[""0.040"",""0.311"",""0.441"",""0.383""]","[1,1,1,0]",0,59,59,59,1,1,1,,,0,FALSE,,,,,,,,,,,,,,,,,,,,,,,,,,,,,,,
,5eb8db02ed810484c85ac7e2,627c706c10be7aadc9f67a0a,2022-05-11_21h27.10.178,classification_task,2021.2.3,Win32,32,627c6715c52fd12f31907bd0,,,,,,,,,,,,,,,,,,,,,,,l,1,2.6643,"[""0.126"",""0.186"",""0.497"",""0.776""]","[1,1,1,0]",0,60,60,60,1,1,0,,,0,FALSE,,,,,,,,,,,,,,,,,,,,,,,,,,,,,,,
,5eb8db02ed810484c85ac7e2,627c706c10be7aadc9f67a0a,2022-05-11_21h27.10.178,classification_task,2021.2.3,Win32,32,627c6715c52fd12f31907bd0,,,,,,,,,,,,,,,,,,,,,,,a,0,3.3557,"[""0.645"",""0.186"",""0.497"",""0.685""]","[0,1,1,1]",0,61,61,61,1,1,0,,,0,FALSE,,,,,,,,,,,,,,,,,,,,,,,,,,,,,,,
,5eb8db02ed810484c85ac7e2,627c706c10be7aadc9f67a0a,2022-05-11_21h27.10.178,classification_task,2021.2.3,Win32,32,627c6715c52fd12f31907bd0,,,,,,,,,,,,,,,,,,,,,,,a,1,1.7911,"[""0.220"",""0.649"",""0.738"",""0.860""]","[1,0,1,1]",0,62,62,62,1,0,1,,,0,FALSE,,,,,,,,,,,,,,,,,,,,,,,,,,,,,,,
,5eb8db02ed810484c85ac7e2,627c706c10be7aadc9f67a0a,2022-05-11_21h27.10.178,classification_task,2021.2.3,Win32,32,627c6715c52fd12f31907bd0,,,,,,,,,,,,,,,,,,,,,,,a,1,1.301,"[""0.220"",""0.345"",""0.738"",""0.780""]","[1,1,1,0]",0,63,63,63,1,0,1,,,0,FALSE,,,,,,,,,,,,,,,,,,,,,,,,,,,,,,,
,5eb8db02ed810484c85ac7e2,627c706c10be7aadc9f67a0a,2022-05-11_21h27.10.178,classification_task,2021.2.3,Win32,32,627c6715c52fd12f31907bd0,,,,,,,,,,,,,,,,,,,,,,,,,,,,,,,,,,,,,,,0, ,,0,1.865354938,495.8869,0,0,0,0,1,2,1,,,,,,,,,,,,,,,,,,
,5eb8db02ed810484c85ac7e2,627c706c10be7aadc9f67a0a,2022-05-11_21h27.10.178,classification_task,2021.2.3,Win32,32,627c6715c52fd12f31907bd0,,,,,,,,,,,,,,,,,,,,,,,,,,,,,,,,,,,,,,,1,  ,,0,8.823578042,504.2104,0,0,0,0,1,2,1,,,,,,,,,,,,,,,,,,
,5eb8db02ed810484c85ac7e2,627c706c10be7aadc9f67a0a,2022-05-11_21h27.10.178,classification_task,2021.2.3,Win32,32,627c6715c52fd12f31907bd0,,,,,,,,,,,,,,,,,,,,,,,,,,,,,,,,,,,,,,,2,  ,,0,6.343419312,510.8238,0,0,0,0,1,2,1,,,,,,,,,,,,,,,,,,
,5eb8db02ed810484c85ac7e2,627c706c10be7aadc9f67a0a,2022-05-11_21h27.10.178,classification_task,2021.2.3,Win32,32,627c6715c52fd12f31907bd0,,,,,,,,,,,,,,,,,,,,,,,,,,,,,,,,,,,,,,,,,,,,,0,0,0,0,1,,1,,,,,,,,,,,,,,,,,,
,5eb8db02ed810484c85ac7e2,627c706c10be7aadc9f67a0a,2022-05-11_21h27.10.178,classification_task,2021.2.3,Win32,32,627c6715c52fd12f31907bd0,,,,,,,,,,,,,,,,,,,,,space,64.7897,a,1,5.4669,"[""0.081"",""0.345"",""0.738"",""0.860""]","[0,1,1,1]",0,0,0,0,1,0,1,,,0,FALSE,,,,,,,,,,,,,,,,,,,,,,,,,,,,,,,
,5eb8db02ed810484c85ac7e2,627c706c10be7aadc9f67a0a,2022-05-11_21h27.10.178,classification_task,2021.2.3,Win32,32,627c6715c52fd12f31907bd0,,,,,,,,,,,,,,,,,,,,,,,l,1,1.5618,"[""0.126"",""0.186"",""0.497"",""0.776""]","[1,1,1,0]",0,1,1,1,1,1,0,,,0,FALSE,,,,,,,,,,,,,,,,,,,,,,,,,,,,,,,
,5eb8db02ed810484c85ac7e2,627c706c10be7aadc9f67a0a,2022-05-11_21h27.10.178,classification_task,2021.2.3,Win32,32,627c6715c52fd12f31907bd0,,,,,,,,,,,,,,,,,,,,,,,l,1,0.9222,"[""0.388"",""0.186"",""0.497"",""0.685""]","[0,1,1,1]",0,2,2,2,1,1,0,,,0,FALSE,,,,,,,,,,,,,,,,,,,,,,,,,,,,,,,
,5eb8db02ed810484c85ac7e2,627c706c10be7aadc9f67a0a,2022-05-11_21h27.10.178,classification_task,2021.2.3,Win32,32,627c6715c52fd12f31907bd0,,,,,,,,,,,,,,,,,,,,,,,a,0,3.0518,"[""0.040"",""0.311"",""0.780"",""0.824""]","[1,1,0,1]",0,3,3,3,1,1,1,,,0,FALSE,,,,,,,,,,,,,,,,,,,,,,,,,,,,,,,
,5eb8db02ed810484c85ac7e2,627c706c10be7aadc9f67a0a,2022-05-11_21h27.10.178,classification_task,2021.2.3,Win32,32,627c6715c52fd12f31907bd0,,,,,,,,,,,,,,,,,,,,,,,l,1,1.785,"[""0.126"",""0.645"",""0.497"",""0.685""]","[1,0,1,1]",0,4,4,4,1,1,0,,,0,FALSE,,,,,,,,,,,,,,,,,,,,,,,,,,,,,,,
,5eb8db02ed810484c85ac7e2,627c706c10be7aadc9f67a0a,2022-05-11_21h27.10.178,classification_task,2021.2.3,Win32,32,627c6715c52fd12f31907bd0,,,,,,,,,,,,,,,,,,,,,,,l,1,1.8716,"[""0.040"",""0.311"",""0.441"",""0.780""]","[1,1,1,0]",0,5,5,5,1,1,1,,,0,FALSE,,,,,,,,,,,,,,,,,,,,,,,,,,,,,,,
,5eb8db02ed810484c85ac7e2,627c706c10be7aadc9f67a0a,2022-05-11_21h27.10.178,classification_task,2021.2.3,Win32,32,627c6715c52fd12f31907bd0,,,,,,,,,,,,,,,,,,,,,,,a,1,1.8858,"[""0.220"",""0.649"",""0.738"",""0.860""]","[1,0,1,1]",0,6,6,6,1,0,1,,,0,FALSE,,,,,,,,,,,,,,,,,,,,,,,,,,,,,,,
,5eb8db02ed810484c85ac7e2,627c706c10be7aadc9f67a0a,2022-05-11_21h27.10.178,classification_task,2021.2.3,Win32,32,627c6715c52fd12f31907bd0,,,,,,,,,,,,,,,,,,,,,,,a,1,1.4256,"[""0.253"",""0.082"",""0.925"",""0.972""]","[1,0,1,1]",0,7,7,7,1,0,0,,,0,FALSE,,,,,,,,,,,,,,,,,,,,,,,,,,,,,,,
,5eb8db02ed810484c85ac7e2,627c706c10be7aadc9f67a0a,2022-05-11_21h27.10.178,classification_task,2021.2.3,Win32,32,627c6715c52fd12f31907bd0,,,,,,,,,,,,,,,,,,,,,,,l,1,2.003,"[""0.040"",""0.085"",""0.441"",""0.824""]","[1,0,1,1]",0,8,8,8,1,1,1,,,0,FALSE,,,,,,,,,,,,,,,,,,,,,,,,,,,,,,,
,5eb8db02ed810484c85ac7e2,627c706c10be7aadc9f67a0a,2022-05-11_21h27.10.178,classification_task,2021.2.3,Win32,32,627c6715c52fd12f31907bd0,,,,,,,,,,,,,,,,,,,,,,,a,1,1.7172,"[""0.253"",""0.542"",""0.780"",""0.972""]","[1,1,0,1]",0,9,9,9,1,0,0,,,0,FALSE,,,,,,,,,,,,,,,,,,,,,,,,,,,,,,,
,5eb8db02ed810484c85ac7e2,627c706c10be7aadc9f67a0a,2022-05-11_21h27.10.178,classification_task,2021.2.3,Win32,32,627c6715c52fd12f31907bd0,,,,,,,,,,,,,,,,,,,,,,,a,1,1.7055,"[""0.220"",""0.345"",""0.382"",""0.860""]","[1,1,0,1]",0,10,10,10,1,0,1,,,0,FALSE,,,,,,,,,,,,,,,,,,,,,,,,,,,,,,,
,5eb8db02ed810484c85ac7e2,627c706c10be7aadc9f67a0a,2022-05-11_21h27.10.178,classification_task,2021.2.3,Win32,32,627c6715c52fd12f31907bd0,,,,,,,,,,,,,,,,,,,,,,,a,1,1.1915,"[""0.253"",""0.542"",""0.925"",""0.091""]","[1,1,1,0]",0,11,11,11,1,0,0,,,0,FALSE,,,,,,,,,,,,,,,,,,,,,,,,,,,,,,,
,5eb8db02ed810484c85ac7e2,627c706c10be7aadc9f67a0a,2022-05-11_21h27.10.178,classification_task,2021.2.3,Win32,32,627c6715c52fd12f31907bd0,,,,,,,,,,,,,,,,,,,,,,,a,1,1.3328,"[""0.780"",""0.542"",""0.925"",""0.972""]","[0,1,1,1]",0,12,12,12,1,0,0,,,0,FALSE,,,,,,,,,,,,,,,,,,,,,,,,,,,,,,,
,5eb8db02ed810484c85ac7e2,627c706c10be7aadc9f67a0a,2022-05-11_21h27.10.178,classification_task,2021.2.3,Win32,32,627c6715c52fd12f31907bd0,,,,,,,,,,,,,,,,,,,,,,,a,1,1.1279,"[""0.220"",""0.345"",""0.738"",""0.388""]","[1,1,1,0]",0,13,13,13,1,0,1,,,0,FALSE,,,,,,,,,,,,,,,,,,,,,,,,,,,,,,,
,5eb8db02ed810484c85ac7e2,627c706c10be7aadc9f67a0a,2022-05-11_21h27.10.178,classification_task,2021.2.3,Win32,32,627c6715c52fd12f31907bd0,,,,,,,,,,,,,,,,,,,,,,,l,1,1.278,"[""0.126"",""0.186"",""0.780"",""0.685""]","[1,1,0,1]",0,14,14,14,1,1,0,,,0,FALSE,,,,,,,,,,,,,,,,,,,,,,,,,,,,,,,
,5eb8db02ed810484c85ac7e2,627c706c10be7aadc9f67a0a,2022-05-11_21h27.10.178,classification_task,2021.2.3,Win32,32,627c6715c52fd12f31907bd0,,,,,,,,,,,,,,,,,,,,,,,a,0,3.5204,"[""0.645"",""0.311"",""0.441"",""0.824""]","[0,1,1,1]",0,15,15,15,1,1,1,,,0,FALSE,,,,,,,,,,,,,,,,,,,,,,,,,,,,,,,
,5eb8db02ed810484c85ac7e2,627c706c10be7aadc9f67a0a,2022-05-11_21h27.10.178,classification_task,2021.2.3,Win32,32,627c6715c52fd12f31907bd0,,,,,,,,,,,,,,,,,,,,,,,l,1,1.1815,"[""0.126"",""0.186"",""0.085"",""0.685""]","[1,1,0,1]",0,16,16,16,1,1,0,,,0,FALSE,,,,,,,,,,,,,,,,,,,,,,,,,,,,,,,
,5eb8db02ed810484c85ac7e2,627c706c10be7aadc9f67a0a,2022-05-11_21h27.10.178,classification_task,2021.2.3,Win32,32,627c6715c52fd12f31907bd0,,,,,,,,,,,,,,,,,,,,,,,l,1,1.851,"[""0.040"",""0.091"",""0.441"",""0.824""]","[1,0,1,1]",0,17,17,17,1,1,1,,,0,FALSE,,,,,,,,,,,,,,,,,,,,,,,,,,,,,,,
,5eb8db02ed810484c85ac7e2,627c706c10be7aadc9f67a0a,2022-05-11_21h27.10.178,classification_task,2021.2.3,Win32,32,627c6715c52fd12f31907bd0,,,,,,,,,,,,,,,,,,,,,,,a,1,1.0832,"[""0.253"",""0.542"",""0.925"",""0.780""]","[1,1,1,0]",0,18,18,18,1,0,0,,,0,FALSE,,,,,,,,,,,,,,,,,,,,,,,,,,,,,,,
,5eb8db02ed810484c85ac7e2,627c706c10be7aadc9f67a0a,2022-05-11_21h27.10.178,classification_task,2021.2.3,Win32,32,627c6715c52fd12f31907bd0,,,,,,,,,,,,,,,,,,,,,,,l,0,2.6034,"[""0.220"",""0.345"",""0.738"",""0.085""]","[1,1,1,0]",0,19,19,19,1,0,1,,,0,FALSE,,,,,,,,,,,,,,,,,,,,,,,,,,,,,,,
,5eb8db02ed810484c85ac7e2,627c706c10be7aadc9f67a0a,2022-05-11_21h27.10.178,classification_task,2021.2.3,Win32,32,627c6715c52fd12f31907bd0,,,,,,,,,,,,,,,,,,,,,,,a,1,0.9814,"[""0.780"",""0.542"",""0.925"",""0.972""]","[0,1,1,1]",0,20,20,20,1,0,0,,,0,FALSE,,,,,,,,,,,,,,,,,,,,,,,,,,,,,,,
,5eb8db02ed810484c85ac7e2,627c706c10be7aadc9f67a0a,2022-05-11_21h27.10.178,classification_task,2021.2.3,Win32,32,627c6715c52fd12f31907bd0,,,,,,,,,,,,,,,,,,,,,,,a,1,0.9823,"[""0.253"",""0.382"",""0.925"",""0.972""]","[1,0,1,1]",0,21,21,21,1,0,0,,,0,FALSE,,,,,,,,,,,,,,,,,,,,,,,,,,,,,,,
,5eb8db02ed810484c85ac7e2,627c706c10be7aadc9f67a0a,2022-05-11_21h27.10.178,classification_task,2021.2.3,Win32,32,627c6715c52fd12f31907bd0,,,,,,,,,,,,,,,,,,,,,,,a,1,1.9762,"[""0.645"",""0.345"",""0.738"",""0.860""]","[0,1,1,1]",0,22,22,22,1,0,1,,,0,FALSE,,,,,,,,,,,,,,,,,,,,,,,,,,,,,,,
,5eb8db02ed810484c85ac7e2,627c706c10be7aadc9f67a0a,2022-05-11_21h27.10.178,classification_task,2021.2.3,Win32,32,627c6715c52fd12f31907bd0,,,,,,,,,,,,,,,,,,,,,,,l,1,1.4418,"[""0.085"",""0.186"",""0.497"",""0.685""]","[0,1,1,1]",0,23,23,23,1,1,0,,,0,FALSE,,,,,,,,,,,,,,,,,,,,,,,,,,,,,,,
,5eb8db02ed810484c85ac7e2,627c706c10be7aadc9f67a0a,2022-05-11_21h27.10.178,classification_task,2021.2.3,Win32,32,627c6715c52fd12f31907bd0,,,,,,,,,,,,,,,,,,,,,,,a,1,1.5755,"[""0.220"",""0.345"",""0.780"",""0.860""]","[1,1,0,1]",0,24,24,24,1,0,1,,,0,FALSE,,,,,,,,,,,,,,,,,,,,,,,,,,,,,,,
,5eb8db02ed810484c85ac7e2,627c706c10be7aadc9f67a0a,2022-05-11_21h27.10.178,classification_task,2021.2.3,Win32,32,627c6715c52fd12f31907bd0,,,,,,,,,,,,,,,,,,,,,,,a,1,1.0691,"[""0.253"",""0.542"",""0.645"",""0.972""]","[1,1,0,1]",0,25,25,25,1,0,0,,,0,FALSE,,,,,,,,,,,,,,,,,,,,,,,,,,,,,,,
,5eb8db02ed810484c85ac7e2,627c706c10be7aadc9f67a0a,2022-05-11_21h27.10.178,classification_task,2021.2.3,Win32,32,627c6715c52fd12f31907bd0,,,,,,,,,,,,,,,,,,,,,,,a,0,1.6372,"[""0.776"",""0.311"",""0.441"",""0.824""]","[0,1,1,1]",0,26,26,26,1,1,1,,,0,FALSE,,,,,,,,,,,,,,,,,,,,,,,,,,,,,,,
,5eb8db02ed810484c85ac7e2,627c706c10be7aadc9f67a0a,2022-05-11_21h27.10.178,classification_task,2021.2.3,Win32,32,627c6715c52fd12f31907bd0,,,,,,,,,,,,,,,,,,,,,,,l,1,1.3998,"[""0.126"",""0.186"",""0.497"",""0.780""]","[1,1,1,0]",0,27,27,27,1,1,0,,,0,FALSE,,,,,,,,,,,,,,,,,,,,,,,,,,,,,,,
,5eb8db02ed810484c85ac7e2,627c706c10be7aadc9f67a0a,2022-05-11_21h27.10.178,classification_task,2021.2.3,Win32,32,627c6715c52fd12f31907bd0,,,,,,,,,,,,,,,,,,,,,,,a,1,1.638,"[""0.220"",""0.649"",""0.738"",""0.860""]","[1,0,1,1]",0,28,28,28,1,0,1,,,0,FALSE,,,,,,,,,,,,,,,,,,,,,,,,,,,,,,,
,5eb8db02ed810484c85ac7e2,627c706c10be7aadc9f67a0a,2022-05-11_21h27.10.178,classification_task,2021.2.3,Win32,32,627c6715c52fd12f31907bd0,,,,,,,,,,,,,,,,,,,,,,,l,1,2.1698,"[""0.040"",""0.311"",""0.441"",""0.776""]","[1,1,1,0]",0,29,29,29,1,1,1,,,0,FALSE,,,,,,,,,,,,,,,,,,,,,,,,,,,,,,,
,5eb8db02ed810484c85ac7e2,627c706c10be7aadc9f67a0a,2022-05-11_21h27.10.178,classification_task,2021.2.3,Win32,32,627c6715c52fd12f31907bd0,,,,,,,,,,,,,,,,,,,,,,,l,1,1.3579,"[""0.040"",""0.311"",""0.776"",""0.824""]","[1,1,0,1]",0,30,30,30,1,1,1,,,0,FALSE,,,,,,,,,,,,,,,,,,,,,,,,,,,,,,,
,5eb8db02ed810484c85ac7e2,627c706c10be7aadc9f67a0a,2022-05-11_21h27.10.178,classification_task,2021.2.3,Win32,32,627c6715c52fd12f31907bd0,,,,,,,,,,,,,,,,,,,,,,,l,1,1.0632,"[""0.126"",""0.091"",""0.497"",""0.685""]","[1,0,1,1]",0,31,31,31,1,1,0,,,0,FALSE,,,,,,,,,,,,,,,,,,,,,,,,,,,,,,,
,5eb8db02ed810484c85ac7e2,627c706c10be7aadc9f67a0a,2022-05-11_21h27.10.178,classification_task,2021.2.3,Win32,32,627c6715c52fd12f31907bd0,,,,,,,,,,,,,,,,,,,,,,,a,1,0.8081,"[""0.253"",""0.542"",""0.925"",""0.645""]","[1,1,1,0]",0,32,32,32,1,0,0,,,0,FALSE,,,,,,,,,,,,,,,,,,,,,,,,,,,,,,,
,5eb8db02ed810484c85ac7e2,627c706c10be7aadc9f67a0a,2022-05-11_21h27.10.178,classification_task,2021.2.3,Win32,32,627c6715c52fd12f31907bd0,,,,,,,,,,,,,,,,,,,,,,,l,1,1.3836,"[""0.040"",""0.311"",""0.649"",""0.824""]","[1,1,0,1]",0,33,33,33,1,1,1,,,0,FALSE,,,,,,,,,,,,,,,,,,,,,,,,,,,,,,,
,5eb8db02ed810484c85ac7e2,627c706c10be7aadc9f67a0a,2022-05-11_21h27.10.178,classification_task,2021.2.3,Win32,32,627c6715c52fd12f31907bd0,,,,,,,,,,,,,,,,,,,,,,,a,1,1.4981,"[""0.253"",""0.082"",""0.925"",""0.972""]","[1,0,1,1]",0,34,34,34,1,0,0,,,0,FALSE,,,,,,,,,,,,,,,,,,,,,,,,,,,,,,,
,5eb8db02ed810484c85ac7e2,627c706c10be7aadc9f67a0a,2022-05-11_21h27.10.178,classification_task,2021.2.3,Win32,32,627c6715c52fd12f31907bd0,,,,,,,,,,,,,,,,,,,,,,,l,1,1.9679,"[""0.040"",""0.311"",""0.441"",""0.091""]","[1,1,1,0]",0,35,35,35,1,1,1,,,0,FALSE,,,,,,,,,,,,,,,,,,,,,,,,,,,,,,,
,5eb8db02ed810484c85ac7e2,627c706c10be7aadc9f67a0a,2022-05-11_21h27.10.178,classification_task,2021.2.3,Win32,32,627c6715c52fd12f31907bd0,,,,,,,,,,,,,,,,,,,,,,,l,0,3.3846,"[""0.220"",""0.345"",""0.083"",""0.860""]","[1,1,0,1]",0,36,36,36,1,0,1,,,0,FALSE,,,,,,,,,,,,,,,,,,,,,,,,,,,,,,,
,5eb8db02ed810484c85ac7e2,627c706c10be7aadc9f67a0a,2022-05-11_21h27.10.178,classification_task,2021.2.3,Win32,32,627c6715c52fd12f31907bd0,,,,,,,,,,,,,,,,,,,,,,,l,1,1.0624,"[""0.126"",""0.186"",""0.780"",""0.685""]","[1,1,0,1]",0,37,37,37,1,1,0,,,0,FALSE,,,,,,,,,,,,,,,,,,,,,,,,,,,,,,,
,5eb8db02ed810484c85ac7e2,627c706c10be7aadc9f67a0a,2022-05-11_21h27.10.178,classification_task,2021.2.3,Win32,32,627c6715c52fd12f31907bd0,,,,,,,,,,,,,,,,,,,,,,,a,1,1.4351,"[""0.253"",""0.542"",""0.623"",""0.972""]","[1,1,0,1]",0,38,38,38,1,0,0,,,0,FALSE,,,,,,,,,,,,,,,,,,,,,,,,,,,,,,,
,5eb8db02ed810484c85ac7e2,627c706c10be7aadc9f67a0a,2022-05-11_21h27.10.178,classification_task,2021.2.3,Win32,32,627c6715c52fd12f31907bd0,,,,,,,,,,,,,,,,,,,,,,,l,0,2.0204,"[""0.220"",""0.345"",""0.738"",""0.081""]","[1,1,1,0]",0,39,39,39,1,0,1,,,0,FALSE,,,,,,,,,,,,,,,,,,,,,,,,,,,,,,,
,5eb8db02ed810484c85ac7e2,627c706c10be7aadc9f67a0a,2022-05-11_21h27.10.178,classification_task,2021.2.3,Win32,32,627c6715c52fd12f31907bd0,,,,,,,,,,,,,,,,,,,,,,,a,1,1.2431,"[""0.220"",""0.780"",""0.738"",""0.860""]","[1,0,1,1]",0,40,40,40,1,0,1,,,0,FALSE,,,,,,,,,,,,,,,,,,,,,,,,,,,,,,,
,5eb8db02ed810484c85ac7e2,627c706c10be7aadc9f67a0a,2022-05-11_21h27.10.178,classification_task,2021.2.3,Win32,32,627c6715c52fd12f31907bd0,,,,,,,,,,,,,,,,,,,,,,,l,1,2.5862,"[""0.040"",""0.776"",""0.441"",""0.824""]","[1,0,1,1]",0,41,41,41,1,1,1,,,0,FALSE,,,,,,,,,,,,,,,,,,,,,,,,,,,,,,,
,5eb8db02ed810484c85ac7e2,627c706c10be7aadc9f67a0a,2022-05-11_21h27.10.178,classification_task,2021.2.3,Win32,32,627c6715c52fd12f31907bd0,,,,,,,,,,,,,,,,,,,,,,,a,0,1.9137,"[""0.126"",""0.780"",""0.497"",""0.685""]","[1,0,1,1]",0,42,42,42,1,1,0,,,0,FALSE,,,,,,,,,,,,,,,,,,,,,,,,,,,,,,,
,5eb8db02ed810484c85ac7e2,627c706c10be7aadc9f67a0a,2022-05-11_21h27.10.178,classification_task,2021.2.3,Win32,32,627c6715c52fd12f31907bd0,,,,,,,,,,,,,,,,,,,,,,,l,0,2.3479,"[""0.083"",""0.345"",""0.738"",""0.860""]","[0,1,1,1]",0,43,43,43,1,0,1,,,0,FALSE,,,,,,,,,,,,,,,,,,,,,,,,,,,,,,,
,5eb8db02ed810484c85ac7e2,627c706c10be7aadc9f67a0a,2022-05-11_21h27.10.178,classification_task,2021.2.3,Win32,32,627c6715c52fd12f31907bd0,,,,,,,,,,,,,,,,,,,,,,,a,1,1.3242,"[""0.383"",""0.542"",""0.925"",""0.972""]","[0,1,1,1]",0,44,44,44,1,0,0,,,0,FALSE,,,,,,,,,,,,,,,,,,,,,,,,,,,,,,,
,5eb8db02ed810484c85ac7e2,627c706c10be7aadc9f67a0a,2022-05-11_21h27.10.178,classification_task,2021.2.3,Win32,32,627c6715c52fd12f31907bd0,,,,,,,,,,,,,,,,,,,,,,,a,0,1.4556,"[""0.649"",""0.311"",""0.441"",""0.824""]","[0,1,1,1]",0,45,45,45,1,1,1,,,0,FALSE,,,,,,,,,,,,,,,,,,,,,,,,,,,,,,,
,5eb8db02ed810484c85ac7e2,627c706c10be7aadc9f67a0a,2022-05-11_21h27.10.178,classification_task,2021.2.3,Win32,32,627c6715c52fd12f31907bd0,,,,,,,,,,,,,,,,,,,,,,,l,1,1.4113,"[""0.645"",""0.186"",""0.497"",""0.685""]","[0,1,1,1]",0,46,46,46,1,1,0,,,0,FALSE,,,,,,,,,,,,,,,,,,,,,,,,,,,,,,,
,5eb8db02ed810484c85ac7e2,627c706c10be7aadc9f67a0a,2022-05-11_21h27.10.178,classification_task,2021.2.3,Win32,32,627c6715c52fd12f31907bd0,,,,,,,,,,,,,,,,,,,,,,,l,1,1.1968,"[""0.126"",""0.186"",""0.497"",""0.383""]","[1,1,1,0]",0,47,47,47,1,1,0,,,0,FALSE,,,,,,,,,,,,,,,,,,,,,,,,,,,,,,,
,5eb8db02ed810484c85ac7e2,627c706c10be7aadc9f67a0a,2022-05-11_21h27.10.178,classification_task,2021.2.3,Win32,32,627c6715c52fd12f31907bd0,,,,,,,,,,,,,,,,,,,,,,,l,1,1.4557,"[""0.040"",""0.649"",""0.441"",""0.824""]","[1,0,1,1]",0,48,48,48,1,1,1,,,0,FALSE,,,,,,,,,,,,,,,,,,,,,,,,,,,,,,,
,5eb8db02ed810484c85ac7e2,627c706c10be7aadc9f67a0a,2022-05-11_21h27.10.178,classification_task,2021.2.3,Win32,32,627c6715c52fd12f31907bd0,,,,,,,,,,,,,,,,,,,,,,,a,1,1.4905,"[""0.220"",""0.345"",""0.780"",""0.860""]","[1,1,0,1]",0,49,49,49,1,0,1,,,0,FALSE,,,,,,,,,,,,,,,,,,,,,,,,,,,,,,,
,5eb8db02ed810484c85ac7e2,627c706c10be7aadc9f67a0a,2022-05-11_21h27.10.178,classification_task,2021.2.3,Win32,32,627c6715c52fd12f31907bd0,,,,,,,,,,,,,,,,,,,,,,,l,1,1.795,"[""0.040"",""0.311"",""0.441"",""0.382""]","[1,1,1,0]",0,50,50,50,1,1,1,,,0,FALSE,,,,,,,,,,,,,,,,,,,,,,,,,,,,,,,
,5eb8db02ed810484c85ac7e2,627c706c10be7aadc9f67a0a,2022-05-11_21h27.10.178,classification_task,2021.2.3,Win32,32,627c6715c52fd12f31907bd0,,,,,,,,,,,,,,,,,,,,,,,l,1,0.9244,"[""0.126"",""0.186"",""0.497"",""0.382""]","[1,1,1,0]",0,51,51,51,1,1,0,,,0,FALSE,,,,,,,,,,,,,,,,,,,,,,,,,,,,,,,
,5eb8db02ed810484c85ac7e2,627c706c10be7aadc9f67a0a,2022-05-11_21h27.10.178,classification_task,2021.2.3,Win32,32,627c6715c52fd12f31907bd0,,,,,,,,,,,,,,,,,,,,,,,l,1,0.8046,"[""0.645"",""0.186"",""0.497"",""0.685""]","[0,1,1,1]",0,52,52,52,1,1,0,,,0,FALSE,,,,,,,,,,,,,,,,,,,,,,,,,,,,,,,
,5eb8db02ed810484c85ac7e2,627c706c10be7aadc9f67a0a,2022-05-11_21h27.10.178,classification_task,2021.2.3,Win32,32,627c6715c52fd12f31907bd0,,,,,,,,,,,,,,,,,,,,,,,l,1,0.9316,"[""0.126"",""0.186"",""0.645"",""0.685""]","[1,1,0,1]",0,53,53,53,1,1,0,,,0,FALSE,,,,,,,,,,,,,,,,,,,,,,,,,,,,,,,
,5eb8db02ed810484c85ac7e2,627c706c10be7aadc9f67a0a,2022-05-11_21h27.10.178,classification_task,2021.2.3,Win32,32,627c6715c52fd12f31907bd0,,,,,,,,,,,,,,,,,,,,,,,l,1,0.6653,"[""0.126"",""0.645"",""0.497"",""0.685""]","[1,0,1,1]",0,54,54,54,1,1,0,,,0,FALSE,,,,,,,,,,,,,,,,,,,,,,,,,,,,,,,
,5eb8db02ed810484c85ac7e2,627c706c10be7aadc9f67a0a,2022-05-11_21h27.10.178,classification_task,2021.2.3,Win32,32,627c6715c52fd12f31907bd0,,,,,,,,,,,,,,,,,,,,,,,a,1,0.9514,"[""0.253"",""0.542"",""0.925"",""0.091""]","[1,1,1,0]",0,55,55,55,1,0,0,,,0,FALSE,,,,,,,,,,,,,,,,,,,,,,,,,,,,,,,
,5eb8db02ed810484c85ac7e2,627c706c10be7aadc9f67a0a,2022-05-11_21h27.10.178,classification_task,2021.2.3,Win32,32,627c6715c52fd12f31907bd0,,,,,,,,,,,,,,,,,,,,,,,l,0,1.6217,"[""0.082"",""0.345"",""0.738"",""0.860""]","[0,1,1,1]",0,56,56,56,1,0,1,,,0,FALSE,,,,,,,,,,,,,,,,,,,,,,,,,,,,,,,
,5eb8db02ed810484c85ac7e2,627c706c10be7aadc9f67a0a,2022-05-11_21h27.10.178,classification_task,2021.2.3,Win32,32,627c6715c52fd12f31907bd0,,,,,,,,,,,,,,,,,,,,,,,l,0,1.9041,"[""0.220"",""0.083"",""0.738"",""0.860""]","[1,0,1,1]",0,57,57,57,1,0,1,,,0,FALSE,,,,,,,,,,,,,,,,,,,,,,,,,,,,,,,
,5eb8db02ed810484c85ac7e2,627c706c10be7aadc9f67a0a,2022-05-11_21h27.10.178,classification_task,2021.2.3,Win32,32,627c6715c52fd12f31907bd0,,,,,,,,,,,,,,,,,,,,,,,a,1,1.3915,"[""0.388"",""0.542"",""0.925"",""0.972""]","[0,1,1,1]",0,58,58,58,1,0,0,,,0,FALSE,,,,,,,,,,,,,,,,,,,,,,,,,,,,,,,
,5eb8db02ed810484c85ac7e2,627c706c10be7aadc9f67a0a,2022-05-11_21h27.10.178,classification_task,2021.2.3,Win32,32,627c6715c52fd12f31907bd0,,,,,,,,,,,,,,,,,,,,,,,l,1,1.3582,"[""0.040"",""0.311"",""0.091"",""0.824""]","[1,1,0,1]",0,59,59,59,1,1,1,,,0,FALSE,,,,,,,,,,,,,,,,,,,,,,,,,,,,,,,
,5eb8db02ed810484c85ac7e2,627c706c10be7aadc9f67a0a,2022-05-11_21h27.10.178,classification_task,2021.2.3,Win32,32,627c6715c52fd12f31907bd0,,,,,,,,,,,,,,,,,,,,,,,l,1,1.6254,"[""0.780"",""0.311"",""0.441"",""0.824""]","[0,1,1,1]",0,60,60,60,1,1,1,,,0,FALSE,,,,,,,,,,,,,,,,,,,,,,,,,,,,,,,
,5eb8db02ed810484c85ac7e2,627c706c10be7aadc9f67a0a,2022-05-11_21h27.10.178,classification_task,2021.2.3,Win32,32,627c6715c52fd12f31907bd0,,,,,,,,,,,,,,,,,,,,,,,a,1,1.0557,"[""0.253"",""0.649"",""0.925"",""0.972""]","[1,0,1,1]",0,61,61,61,1,0,0,,,0,FALSE,,,,,,,,,,,,,,,,,,,,,,,,,,,,,,,
,5eb8db02ed810484c85ac7e2,627c706c10be7aadc9f67a0a,2022-05-11_21h27.10.178,classification_task,2021.2.3,Win32,32,627c6715c52fd12f31907bd0,,,,,,,,,,,,,,,,,,,,,,,a,1,1.3372,"[""0.220"",""0.345"",""0.738"",""0.780""]","[1,1,1,0]",0,62,62,62,1,0,1,,,0,FALSE,,,,,,,,,,,,,,,,,,,,,,,,,,,,,,,
,5eb8db02ed810484c85ac7e2,627c706c10be7aadc9f67a0a,2022-05-11_21h27.10.178,classification_task,2021.2.3,Win32,32,627c6715c52fd12f31907bd0,,,,,,,,,,,,,,,,,,,,,,,a,1,0.9185,"[""0.253"",""0.542"",""0.085"",""0.972""]","[1,1,0,1]",0,63,63,63,1,0,0,,,0,FALSE,,,,,,,,,,,,,,,,,,,,,,,,,,,,,,,
,5eb8db02ed810484c85ac7e2,627c706c10be7aadc9f67a0a,2022-05-11_21h27.10.178,classification_task,2021.2.3,Win32,32,627c6715c52fd12f31907bd0,,,,,,,,,,,,,,,,,,,,,,,,,,,,,,,,,,,,,,,0, ,,0,0,250.2782,0,1,1,1,1,2,2,,,,,,,,,,,,,,,,,,
,5eb8db02ed810484c85ac7e2,627c706c10be7aadc9f67a0a,2022-05-11_21h27.10.178,classification_task,2021.2.3,Win32,32,627c6715c52fd12f31907bd0,,,,,,,,,,,,,,,,,,,,,,,,,,,,,,,,,,,,,,,1,  ,,0,4.242173721,259.3342,0,1,1,1,1,2,2,,,,,,,,,,,,,,,,,,
,5eb8db02ed810484c85ac7e2,627c706c10be7aadc9f67a0a,2022-05-11_21h27.10.178,classification_task,2021.2.3,Win32,32,627c6715c52fd12f31907bd0,,,,,,,,,,,,,,,,,,,,,,,,,,,,,,,,,,,,,,,2,  ,,0,4.138833774,263.6363,0,1,1,1,1,2,2,,,,,,,,,,,,,,,,,,
,5eb8db02ed810484c85ac7e2,627c706c10be7aadc9f67a0a,2022-05-11_21h27.10.178,classification_task,2021.2.3,Win32,32,627c6715c52fd12f31907bd0,,,,,,,,,,,,,,,,,,,,,,,,,,,,,,,,,,,,,,,,,,,,,0,1,1,1,1,,2,,,,,,,,,,,,,,,,,,
,5eb8db02ed810484c85ac7e2,627c706c10be7aadc9f67a0a,2022-05-11_21h27.10.178,classification_task,2021.2.3,Win32,32,627c6715c52fd12f31907bd0,,,,,,,,,,,,,,,,,,,,,space,11.3922,l,1,2.3502,"[""0.126"",""0.186"",""0.497"",""0.645""]","[1,1,1,0]",0,0,0,0,1,1,0,,,0,FALSE,,,,,,,,,,,,,,,,,,,,,,,,,,,,,,,
,5eb8db02ed810484c85ac7e2,627c706c10be7aadc9f67a0a,2022-05-11_21h27.10.178,classification_task,2021.2.3,Win32,32,627c6715c52fd12f31907bd0,,,,,,,,,,,,,,,,,,,,,,,a,1,1.4298,"[""0.220"",""0.345"",""0.738"",""0.780""]","[1,1,1,0]",0,1,1,1,1,0,1,,,0,FALSE,,,,,,,,,,,,,,,,,,,,,,,,,,,,,,,
,5eb8db02ed810484c85ac7e2,627c706c10be7aadc9f67a0a,2022-05-11_21h27.10.178,classification_task,2021.2.3,Win32,32,627c6715c52fd12f31907bd0,,,,,,,,,,,,,,,,,,,,,,,a,1,1.6092,"[""0.253"",""0.542"",""0.645"",""0.972""]","[1,1,0,1]",0,2,2,2,1,0,0,,,0,FALSE,,,,,,,,,,,,,,,,,,,,,,,,,,,,,,,
,5eb8db02ed810484c85ac7e2,627c706c10be7aadc9f67a0a,2022-05-11_21h27.10.178,classification_task,2021.2.3,Win32,32,627c6715c52fd12f31907bd0,,,,,,,,,,,,,,,,,,,,,,,a,1,1.1594,"[""0.253"",""0.542"",""0.925"",""0.382""]","[1,1,1,0]",0,3,3,3,1,0,0,,,0,FALSE,,,,,,,,,,,,,,,,,,,,,,,,,,,,,,,
,5eb8db02ed810484c85ac7e2,627c706c10be7aadc9f67a0a,2022-05-11_21h27.10.178,classification_task,2021.2.3,Win32,32,627c6715c52fd12f31907bd0,,,,,,,,,,,,,,,,,,,,,,,l,1,2.4864,"[""0.126"",""0.083"",""0.497"",""0.685""]","[1,0,1,1]",0,4,4,4,1,1,0,,,0,FALSE,,,,,,,,,,,,,,,,,,,,,,,,,,,,,,,
,5eb8db02ed810484c85ac7e2,627c706c10be7aadc9f67a0a,2022-05-11_21h27.10.178,classification_task,2021.2.3,Win32,32,627c6715c52fd12f31907bd0,,,,,,,,,,,,,,,,,,,,,,,l,1,2.7349,"[""0.040"",""0.311"",""0.441"",""0.776""]","[1,1,1,0]",0,5,5,5,1,1,1,,,0,FALSE,,,,,,,,,,,,,,,,,,,,,,,,,,,,,,,
,5eb8db02ed810484c85ac7e2,627c706c10be7aadc9f67a0a,2022-05-11_21h27.10.178,classification_task,2021.2.3,Win32,32,627c6715c52fd12f31907bd0,,,,,,,,,,,,,,,,,,,,,,,l,1,4.2344,"[""0.126"",""0.186"",""0.776"",""0.685""]","[1,1,0,1]",0,6,6,6,1,1,0,,,0,FALSE,,,,,,,,,,,,,,,,,,,,,,,,,,,,,,,
,5eb8db02ed810484c85ac7e2,627c706c10be7aadc9f67a0a,2022-05-11_21h27.10.178,classification_task,2021.2.3,Win32,32,627c6715c52fd12f31907bd0,,,,,,,,,,,,,,,,,,,,,,,a,0,2.7454,"[""0.040"",""0.083"",""0.441"",""0.824""]","[1,0,1,1]",0,7,7,7,1,1,1,,,0,FALSE,,,,,,,,,,,,,,,,,,,,,,,,,,,,,,,
,5eb8db02ed810484c85ac7e2,627c706c10be7aadc9f67a0a,2022-05-11_21h27.10.178,classification_task,2021.2.3,Win32,32,627c6715c52fd12f31907bd0,,,,,,,,,,,,,,,,,,,,,,,a,1,1.2394,"[""0.220"",""0.345"",""0.780"",""0.860""]","[1,1,0,1]",0,8,8,8,1,0,1,,,0,FALSE,,,,,,,,,,,,,,,,,,,,,,,,,,,,,,,
,5eb8db02ed810484c85ac7e2,627c706c10be7aadc9f67a0a,2022-05-11_21h27.10.178,classification_task,2021.2.3,Win32,32,627c6715c52fd12f31907bd0,,,,,,,,,,,,,,,,,,,,,,,a,0,2.5005,"[""0.645"",""0.186"",""0.497"",""0.685""]","[0,1,1,1]",0,9,9,9,1,1,0,,,0,FALSE,,,,,,,,,,,,,,,,,,,,,,,,,,,,,,,
,5eb8db02ed810484c85ac7e2,627c706c10be7aadc9f67a0a,2022-05-11_21h27.10.178,classification_task,2021.2.3,Win32,32,627c6715c52fd12f31907bd0,,,,,,,,,,,,,,,,,,,,,,,l,0,2.0948,"[""0.220"",""0.091"",""0.738"",""0.860""]","[1,0,1,1]",0,10,10,10,1,0,1,,,0,FALSE,,,,,,,,,,,,,,,,,,,,,,,,,,,,,,,
,5eb8db02ed810484c85ac7e2,627c706c10be7aadc9f67a0a,2022-05-11_21h27.10.178,classification_task,2021.2.3,Win32,32,627c6715c52fd12f31907bd0,,,,,,,,,,,,,,,,,,,,,,,l,1,1.8541,"[""0.382"",""0.311"",""0.441"",""0.824""]","[0,1,1,1]",0,11,11,11,1,1,1,,,0,FALSE,,,,,,,,,,,,,,,,,,,,,,,,,,,,,,,
,5eb8db02ed810484c85ac7e2,627c706c10be7aadc9f67a0a,2022-05-11_21h27.10.178,classification_task,2021.2.3,Win32,32,627c6715c52fd12f31907bd0,,,,,,,,,,,,,,,,,,,,,,,l,0,4.8336,"[""0.645"",""0.542"",""0.925"",""0.972""]","[0,1,1,1]",0,12,12,12,1,0,0,,,0,FALSE,,,,,,,,,,,,,,,,,,,,,,,,,,,,,,,
,5eb8db02ed810484c85ac7e2,627c706c10be7aadc9f67a0a,2022-05-11_21h27.10.178,classification_task,2021.2.3,Win32,32,627c6715c52fd12f31907bd0,,,,,,,,,,,,,,,,,,,,,,,l,1,3.2059,"[""0.040"",""0.311"",""0.081"",""0.824""]","[1,1,0,1]",0,13,13,13,1,1,1,,,0,FALSE,,,,,,,,,,,,,,,,,,,,,,,,,,,,,,,
,5eb8db02ed810484c85ac7e2,627c706c10be7aadc9f67a0a,2022-05-11_21h27.10.178,classification_task,2021.2.3,Win32,32,627c6715c52fd12f31907bd0,,,,,,,,,,,,,,,,,,,,,,,a,1,1.688,"[""0.253"",""0.645"",""0.925"",""0.972""]","[1,0,1,1]",0,14,14,14,1,0,0,,,0,FALSE,,,,,,,,,,,,,,,,,,,,,,,,,,,,,,,
,5eb8db02ed810484c85ac7e2,627c706c10be7aadc9f67a0a,2022-05-11_21h27.10.178,classification_task,2021.2.3,Win32,32,627c6715c52fd12f31907bd0,,,,,,,,,,,,,,,,,,,,,,,l,0,3.4778,"[""0.085"",""0.345"",""0.738"",""0.860""]","[0,1,1,1]",0,15,15,15,1,0,1,,,0,FALSE,,,,,,,,,,,,,,,,,,,,,,,,,,,,,,,
,5eb8db02ed810484c85ac7e2,627c706c10be7aadc9f67a0a,2022-05-11_21h27.10.178,classification_task,2021.2.3,Win32,32,627c6715c52fd12f31907bd0,,,,,,,,,,,,,,,,,,,,,,,l,1,2.0654,"[""0.085"",""0.311"",""0.441"",""0.824""]","[0,1,1,1]",0,16,16,16,1,1,1,,,0,FALSE,,,,,,,,,,,,,,,,,,,,,,,,,,,,,,,
,5eb8db02ed810484c85ac7e2,627c706c10be7aadc9f67a0a,2022-05-11_21h27.10.178,classification_task,2021.2.3,Win32,32,627c6715c52fd12f31907bd0,,,,,,,,,,,,,,,,,,,,,,,a,1,1.29,"[""0.253"",""0.542"",""0.925"",""0.780""]","[1,1,1,0]",0,17,17,17,1,0,0,,,0,FALSE,,,,,,,,,,,,,,,,,,,,,,,,,,,,,,,
,5eb8db02ed810484c85ac7e2,627c706c10be7aadc9f67a0a,2022-05-11_21h27.10.178,classification_task,2021.2.3,Win32,32,627c6715c52fd12f31907bd0,,,,,,,,,,,,,,,,,,,,,,,l,1,1.291,"[""0.126"",""0.186"",""0.497"",""0.623""]","[1,1,1,0]",0,18,18,18,1,1,0,,,0,FALSE,,,,,,,,,,,,,,,,,,,,,,,,,,,,,,,
,5eb8db02ed810484c85ac7e2,627c706c10be7aadc9f67a0a,2022-05-11_21h27.10.178,classification_task,2021.2.3,Win32,32,627c6715c52fd12f31907bd0,,,,,,,,,,,,,,,,,,,,,,,a,1,1.3623,"[""0.220"",""0.345"",""0.738"",""0.623""]","[1,1,1,0]",0,19,19,19,1,0,1,,,0,FALSE,,,,,,,,,,,,,,,,,,,,,,,,,,,,,,,
,5eb8db02ed810484c85ac7e2,627c706c10be7aadc9f67a0a,2022-05-11_21h27.10.178,classification_task,2021.2.3,Win32,32,627c6715c52fd12f31907bd0,,,,,,,,,,,,,,,,,,,,,,,a,0,2.9061,"[""0.126"",""0.623"",""0.497"",""0.685""]","[1,0,1,1]",0,20,20,20,1,1,0,,,0,FALSE,,,,,,,,,,,,,,,,,,,,,,,,,,,,,,,
,5eb8db02ed810484c85ac7e2,627c706c10be7aadc9f67a0a,2022-05-11_21h27.10.178,classification_task,2021.2.3,Win32,32,627c6715c52fd12f31907bd0,,,,,,,,,,,,,,,,,,,,,,,l,1,1.5849,"[""0.040"",""0.311"",""0.082"",""0.824""]","[1,1,0,1]",0,21,21,21,1,1,1,,,0,FALSE,,,,,,,,,,,,,,,,,,,,,,,,,,,,,,,
,5eb8db02ed810484c85ac7e2,627c706c10be7aadc9f67a0a,2022-05-11_21h27.10.178,classification_task,2021.2.3,Win32,32,627c6715c52fd12f31907bd0,,,,,,,,,,,,,,,,,,,,,,,a,1,1.306,"[""0.220"",""0.345"",""0.776"",""0.860""]","[1,1,0,1]",0,22,22,22,1,0,1,,,0,FALSE,,,,,,,,,,,,,,,,,,,,,,,,,,,,,,,
,5eb8db02ed810484c85ac7e2,627c706c10be7aadc9f67a0a,2022-05-11_21h27.10.178,classification_task,2021.2.3,Win32,32,627c6715c52fd12f31907bd0,,,,,,,,,,,,,,,,,,,,,,,l,0,2.9559,"[""0.081"",""0.345"",""0.738"",""0.860""]","[0,1,1,1]",0,23,23,23,1,0,1,,,0,FALSE,,,,,,,,,,,,,,,,,,,,,,,,,,,,,,,
,5eb8db02ed810484c85ac7e2,627c706c10be7aadc9f67a0a,2022-05-11_21h27.10.178,classification_task,2021.2.3,Win32,32,627c6715c52fd12f31907bd0,,,,,,,,,,,,,,,,,,,,,,,l,1,2.109,"[""0.040"",""0.311"",""0.441"",""0.382""]","[1,1,1,0]",0,24,24,24,1,1,1,,,0,FALSE,,,,,,,,,,,,,,,,,,,,,,,,,,,,,,,
,5eb8db02ed810484c85ac7e2,627c706c10be7aadc9f67a0a,2022-05-11_21h27.10.178,classification_task,2021.2.3,Win32,32,627c6715c52fd12f31907bd0,,,,,,,,,,,,,,,,,,,,,,,l,1,1.9124,"[""0.040"",""0.081"",""0.441"",""0.824""]","[1,0,1,1]",0,25,25,25,1,1,1,,,0,FALSE,,,,,,,,,,,,,,,,,,,,,,,,,,,,,,,
,5eb8db02ed810484c85ac7e2,627c706c10be7aadc9f67a0a,2022-05-11_21h27.10.178,classification_task,2021.2.3,Win32,32,627c6715c52fd12f31907bd0,,,,,,,,,,,,,,,,,,,,,,,l,0,4.609,"[""0.253"",""0.542"",""0.081"",""0.972""]","[1,1,0,1]",0,26,26,26,1,0,0,,,0,FALSE,,,,,,,,,,,,,,,,,,,,,,,,,,,,,,,
,5eb8db02ed810484c85ac7e2,627c706c10be7aadc9f67a0a,2022-05-11_21h27.10.178,classification_task,2021.2.3,Win32,32,627c6715c52fd12f31907bd0,,,,,,,,,,,,,,,,,,,,,,,a,1,1.1886,"[""0.220"",""0.623"",""0.738"",""0.860""]","[1,0,1,1]",0,27,27,27,1,0,1,,,0,FALSE,,,,,,,,,,,,,,,,,,,,,,,,,,,,,,,
,5eb8db02ed810484c85ac7e2,627c706c10be7aadc9f67a0a,2022-05-11_21h27.10.178,classification_task,2021.2.3,Win32,32,627c6715c52fd12f31907bd0,,,,,,,,,,,,,,,,,,,,,,,a,1,3.675,"[""0.253"",""0.082"",""0.925"",""0.972""]","[1,0,1,1]",0,28,28,28,1,0,0,,,0,FALSE,,,,,,,,,,,,,,,,,,,,,,,,,,,,,,,
,5eb8db02ed810484c85ac7e2,627c706c10be7aadc9f67a0a,2022-05-11_21h27.10.178,classification_task,2021.2.3,Win32,32,627c6715c52fd12f31907bd0,,,,,,,,,,,,,,,,,,,,,,,l,1,2.4749,"[""0.085"",""0.186"",""0.497"",""0.685""]","[0,1,1,1]",0,29,29,29,1,1,0,,,0,FALSE,,,,,,,,,,,,,,,,,,,,,,,,,,,,,,,
,5eb8db02ed810484c85ac7e2,627c706c10be7aadc9f67a0a,2022-05-11_21h27.10.178,classification_task,2021.2.3,Win32,32,627c6715c52fd12f31907bd0,,,,,,,,,,,,,,,,,,,,,,,l,1,1.9793,"[""0.126"",""0.186"",""0.780"",""0.685""]","[1,1,0,1]",0,30,30,30,1,1,0,,,0,FALSE,,,,,,,,,,,,,,,,,,,,,,,,,,,,,,,
,5eb8db02ed810484c85ac7e2,627c706c10be7aadc9f67a0a,2022-05-11_21h27.10.178,classification_task,2021.2.3,Win32,32,627c6715c52fd12f31907bd0,,,,,,,,,,,,,,,,,,,,,,,a,1,1.4204,"[""0.623"",""0.542"",""0.925"",""0.972""]","[0,1,1,1]",0,31,31,31,1,0,0,,,0,FALSE,,,,,,,,,,,,,,,,,,,,,,,,,,,,,,,
,5eb8db02ed810484c85ac7e2,627c706c10be7aadc9f67a0a,2022-05-11_21h27.10.178,classification_task,2021.2.3,Win32,32,627c6715c52fd12f31907bd0,,,,,,,,,,,,,,,,,,,,,,,l,1,3.1347,"[""0.126"",""0.383"",""0.497"",""0.685""]","[1,0,1,1]",0,32,32,32,1,1,0,,,0,FALSE,,,,,,,,,,,,,,,,,,,,,,,,,,,,,,,
,5eb8db02ed810484c85ac7e2,627c706c10be7aadc9f67a0a,2022-05-11_21h27.10.178,classification_task,2021.2.3,Win32,32,627c6715c52fd12f31907bd0,,,,,,,,,,,,,,,,,,,,,,,l,1,1.7998,"[""0.091"",""0.311"",""0.441"",""0.824""]","[0,1,1,1]",0,33,33,33,1,1,1,,,0,FALSE,,,,,,,,,,,,,,,,,,,,,,,,,,,,,,,
,5eb8db02ed810484c85ac7e2,627c706c10be7aadc9f67a0a,2022-05-11_21h27.10.178,classification_task,2021.2.3,Win32,32,627c6715c52fd12f31907bd0,,,,,,,,,,,,,,,,,,,,,,,a,0,2.9512,"[""0.082"",""0.186"",""0.497"",""0.685""]","[0,1,1,1]",0,34,34,34,1,1,0,,,0,FALSE,,,,,,,,,,,,,,,,,,,,,,,,,,,,,,,
,5eb8db02ed810484c85ac7e2,627c706c10be7aadc9f67a0a,2022-05-11_21h27.10.178,classification_task,2021.2.3,Win32,32,627c6715c52fd12f31907bd0,,,,,,,,,,,,,,,,,,,,,,,l,1,1.8103,"[""0.040"",""0.388"",""0.441"",""0.824""]","[1,0,1,1]",0,35,35,35,1,1,1,,,0,FALSE,,,,,,,,,,,,,,,,,,,,,,,,,,,,,,,
,5eb8db02ed810484c85ac7e2,627c706c10be7aadc9f67a0a,2022-05-11_21h27.10.178,classification_task,2021.2.3,Win32,32,627c6715c52fd12f31907bd0,,,,,,,,,,,,,,,,,,,,,,,a,1,1.5678,"[""0.220"",""0.345"",""0.738"",""0.780""]","[1,1,1,0]",0,36,36,36,1,0,1,,,0,FALSE,,,,,,,,,,,,,,,,,,,,,,,,,,,,,,,
,5eb8db02ed810484c85ac7e2,627c706c10be7aadc9f67a0a,2022-05-11_21h27.10.178,classification_task,2021.2.3,Win32,32,627c6715c52fd12f31907bd0,,,,,,,,,,,,,,,,,,,,,,,a,1,2.4688,"[""0.382"",""0.542"",""0.925"",""0.972""]","[0,1,1,1]",0,37,37,37,1,0,0,,,0,FALSE,,,,,,,,,,,,,,,,,,,,,,,,,,,,,,,
,5eb8db02ed810484c85ac7e2,627c706c10be7aadc9f67a0a,2022-05-11_21h27.10.178,classification_task,2021.2.3,Win32,32,627c6715c52fd12f31907bd0,,,,,,,,,,,,,,,,,,,,,,,l,1,1.4712,"[""0.040"",""0.311"",""0.441"",""0.780""]","[1,1,1,0]",0,38,38,38,1,1,1,,,0,FALSE,,,,,,,,,,,,,,,,,,,,,,,,,,,,,,,
,5eb8db02ed810484c85ac7e2,627c706c10be7aadc9f67a0a,2022-05-11_21h27.10.178,classification_task,2021.2.3,Win32,32,627c6715c52fd12f31907bd0,,,,,,,,,,,,,,,,,,,,,,,l,1,2.1944,"[""0.126"",""0.186"",""0.082"",""0.685""]","[1,1,0,1]",0,39,39,39,1,1,0,,,0,FALSE,,,,,,,,,,,,,,,,,,,,,,,,,,,,,,,
,5eb8db02ed810484c85ac7e2,627c706c10be7aadc9f67a0a,2022-05-11_21h27.10.178,classification_task,2021.2.3,Win32,32,627c6715c52fd12f31907bd0,,,,,,,,,,,,,,,,,,,,,,,a,1,2.2196,"[""0.253"",""0.542"",""0.082"",""0.972""]","[1,1,0,1]",0,40,40,40,1,0,0,,,0,FALSE,,,,,,,,,,,,,,,,,,,,,,,,,,,,,,,
,5eb8db02ed810484c85ac7e2,627c706c10be7aadc9f67a0a,2022-05-11_21h27.10.178,classification_task,2021.2.3,Win32,32,627c6715c52fd12f31907bd0,,,,,,,,,,,,,,,,,,,,,,,a,1,2.1943,"[""0.253"",""0.085"",""0.925"",""0.972""]","[1,0,1,1]",0,41,41,41,1,0,0,,,0,FALSE,,,,,,,,,,,,,,,,,,,,,,,,,,,,,,,
,5eb8db02ed810484c85ac7e2,627c706c10be7aadc9f67a0a,2022-05-11_21h27.10.178,classification_task,2021.2.3,Win32,32,627c6715c52fd12f31907bd0,,,,,,,,,,,,,,,,,,,,,,,l,0,2.7704,"[""0.220"",""0.345"",""0.085"",""0.860""]","[1,1,0,1]",0,42,42,42,1,0,1,,,0,FALSE,,,,,,,,,,,,,,,,,,,,,,,,,,,,,,,
,5eb8db02ed810484c85ac7e2,627c706c10be7aadc9f67a0a,2022-05-11_21h27.10.178,classification_task,2021.2.3,Win32,32,627c6715c52fd12f31907bd0,,,,,,,,,,,,,,,,,,,,,,,l,1,1.2765,"[""0.126"",""0.186"",""0.497"",""0.780""]","[1,1,1,0]",0,43,43,43,1,1,0,,,0,FALSE,,,,,,,,,,,,,,,,,,,,,,,,,,,,,,,
,5eb8db02ed810484c85ac7e2,627c706c10be7aadc9f67a0a,2022-05-11_21h27.10.178,classification_task,2021.2.3,Win32,32,627c6715c52fd12f31907bd0,,,,,,,,,,,,,,,,,,,,,,,a,1,1.8576,"[""0.253"",""0.542"",""0.925"",""0.780""]","[1,1,1,0]",0,44,44,44,1,0,0,,,0,FALSE,,,,,,,,,,,,,,,,,,,,,,,,,,,,,,,
,5eb8db02ed810484c85ac7e2,627c706c10be7aadc9f67a0a,2022-05-11_21h27.10.178,classification_task,2021.2.3,Win32,32,627c6715c52fd12f31907bd0,,,,,,,,,,,,,,,,,,,,,,,l,0,2.0705,"[""0.220"",""0.083"",""0.738"",""0.860""]","[1,0,1,1]",0,45,45,45,1,0,1,,,0,FALSE,,,,,,,,,,,,,,,,,,,,,,,,,,,,,,,
,5eb8db02ed810484c85ac7e2,627c706c10be7aadc9f67a0a,2022-05-11_21h27.10.178,classification_task,2021.2.3,Win32,32,627c6715c52fd12f31907bd0,,,,,,,,,,,,,,,,,,,,,,,l,0,2.0718,"[""0.780"",""0.345"",""0.738"",""0.860""]","[0,1,1,1]",0,46,46,46,1,0,1,,,0,FALSE,,,,,,,,,,,,,,,,,,,,,,,,,,,,,,,
,5eb8db02ed810484c85ac7e2,627c706c10be7aadc9f67a0a,2022-05-11_21h27.10.178,classification_task,2021.2.3,Win32,32,627c6715c52fd12f31907bd0,,,,,,,,,,,,,,,,,,,,,,,l,1,1.1799,"[""0.040"",""0.311"",""0.082"",""0.824""]","[1,1,0,1]",0,47,47,47,1,1,1,,,0,FALSE,,,,,,,,,,,,,,,,,,,,,,,,,,,,,,,
,5eb8db02ed810484c85ac7e2,627c706c10be7aadc9f67a0a,2022-05-11_21h27.10.178,classification_task,2021.2.3,Win32,32,627c6715c52fd12f31907bd0,,,,,,,,,,,,,,,,,,,,,,,a,1,1.4714,"[""0.220"",""0.623"",""0.738"",""0.860""]","[1,0,1,1]",0,48,48,48,1,0,1,,,0,FALSE,,,,,,,,,,,,,,,,,,,,,,,,,,,,,,,
,5eb8db02ed810484c85ac7e2,627c706c10be7aadc9f67a0a,2022-05-11_21h27.10.178,classification_task,2021.2.3,Win32,32,627c6715c52fd12f31907bd0,,,,,,,,,,,,,,,,,,,,,,,l,1,1.5964,"[""0.388"",""0.311"",""0.441"",""0.824""]","[0,1,1,1]",0,49,49,49,1,1,1,,,0,FALSE,,,,,,,,,,,,,,,,,,,,,,,,,,,,,,,
,5eb8db02ed810484c85ac7e2,627c706c10be7aadc9f67a0a,2022-05-11_21h27.10.178,classification_task,2021.2.3,Win32,32,627c6715c52fd12f31907bd0,,,,,,,,,,,,,,,,,,,,,,,a,0,1.9648,"[""0.126"",""0.776"",""0.497"",""0.685""]","[1,0,1,1]",0,50,50,50,1,1,0,,,0,FALSE,,,,,,,,,,,,,,,,,,,,,,,,,,,,,,,
,5eb8db02ed810484c85ac7e2,627c706c10be7aadc9f67a0a,2022-05-11_21h27.10.178,classification_task,2021.2.3,Win32,32,627c6715c52fd12f31907bd0,,,,,,,,,,,,,,,,,,,,,,,l,1,3.3652,"[""0.040"",""0.311"",""0.441"",""0.645""]","[1,1,1,0]",0,51,51,51,1,1,1,,,0,FALSE,,,,,,,,,,,,,,,,,,,,,,,,,,,,,,,
,5eb8db02ed810484c85ac7e2,627c706c10be7aadc9f67a0a,2022-05-11_21h27.10.178,classification_task,2021.2.3,Win32,32,627c6715c52fd12f31907bd0,,,,,,,,,,,,,,,,,,,,,,,a,1,1.6571,"[""0.253"",""0.388"",""0.925"",""0.972""]","[1,0,1,1]",0,52,52,52,1,0,0,,,0,FALSE,,,,,,,,,,,,,,,,,,,,,,,,,,,,,,,
,5eb8db02ed810484c85ac7e2,627c706c10be7aadc9f67a0a,2022-05-11_21h27.10.178,classification_task,2021.2.3,Win32,32,627c6715c52fd12f31907bd0,,,,,,,,,,,,,,,,,,,,,,,a,1,1.472,"[""0.780"",""0.542"",""0.925"",""0.972""]","[0,1,1,1]",0,53,53,53,1,0,0,,,0,FALSE,,,,,,,,,,,,,,,,,,,,,,,,,,,,,,,
,5eb8db02ed810484c85ac7e2,627c706c10be7aadc9f67a0a,2022-05-11_21h27.10.178,classification_task,2021.2.3,Win32,32,627c6715c52fd12f31907bd0,,,,,,,,,,,,,,,,,,,,,,,a,1,1.8267,"[""0.253"",""0.542"",""0.645"",""0.972""]","[1,1,0,1]",0,54,54,54,1,0,0,,,0,FALSE,,,,,,,,,,,,,,,,,,,,,,,,,,,,,,,
,5eb8db02ed810484c85ac7e2,627c706c10be7aadc9f67a0a,2022-05-11_21h27.10.178,classification_task,2021.2.3,Win32,32,627c6715c52fd12f31907bd0,,,,,,,,,,,,,,,,,,,,,,,l,0,1.0478,"[""0.082"",""0.345"",""0.738"",""0.860""]","[0,1,1,1]",0,55,55,55,1,0,1,,,0,FALSE,,,,,,,,,,,,,,,,,,,,,,,,,,,,,,,
,5eb8db02ed810484c85ac7e2,627c706c10be7aadc9f67a0a,2022-05-11_21h27.10.178,classification_task,2021.2.3,Win32,32,627c6715c52fd12f31907bd0,,,,,,,,,,,,,,,,,,,,,,,l,1,2.9846,"[""0.126"",""0.186"",""0.085"",""0.685""]","[1,1,0,1]",0,56,56,56,1,1,0,,,0,FALSE,,,,,,,,,,,,,,,,,,,,,,,,,,,,,,,
,5eb8db02ed810484c85ac7e2,627c706c10be7aadc9f67a0a,2022-05-11_21h27.10.178,classification_task,2021.2.3,Win32,32,627c6715c52fd12f31907bd0,,,,,,,,,,,,,,,,,,,,,,,l,0,1.4392,"[""0.220"",""0.345"",""0.085"",""0.860""]","[1,1,0,1]",0,57,57,57,1,0,1,,,0,FALSE,,,,,,,,,,,,,,,,,,,,,,,,,,,,,,,
,5eb8db02ed810484c85ac7e2,627c706c10be7aadc9f67a0a,2022-05-11_21h27.10.178,classification_task,2021.2.3,Win32,32,627c6715c52fd12f31907bd0,,,,,,,,,,,,,,,,,,,,,,,a,1,1.2223,"[""0.220"",""0.345"",""0.738"",""0.382""]","[1,1,1,0]",0,58,58,58,1,0,1,,,0,FALSE,,,,,,,,,,,,,,,,,,,,,,,,,,,,,,,
,5eb8db02ed810484c85ac7e2,627c706c10be7aadc9f67a0a,2022-05-11_21h27.10.178,classification_task,2021.2.3,Win32,32,627c6715c52fd12f31907bd0,,,,,,,,,,,,,,,,,,,,,,,a,1,1.3015,"[""0.253"",""0.542"",""0.925"",""0.780""]","[1,1,1,0]",0,59,59,59,1,0,0,,,0,FALSE,,,,,,,,,,,,,,,,,,,,,,,,,,,,,,,
,5eb8db02ed810484c85ac7e2,627c706c10be7aadc9f67a0a,2022-05-11_21h27.10.178,classification_task,2021.2.3,Win32,32,627c6715c52fd12f31907bd0,,,,,,,,,,,,,,,,,,,,,,,a,0,2.8238,"[""0.780"",""0.186"",""0.497"",""0.685""]","[0,1,1,1]",0,60,60,60,1,1,0,,,0,FALSE,,,,,,,,,,,,,,,,,,,,,,,,,,,,,,,
,5eb8db02ed810484c85ac7e2,627c706c10be7aadc9f67a0a,2022-05-11_21h27.10.178,classification_task,2021.2.3,Win32,32,627c6715c52fd12f31907bd0,,,,,,,,,,,,,,,,,,,,,,,l,1,1.3231,"[""0.040"",""0.388"",""0.441"",""0.824""]","[1,0,1,1]",0,61,61,61,1,1,1,,,0,FALSE,,,,,,,,,,,,,,,,,,,,,,,,,,,,,,,
,5eb8db02ed810484c85ac7e2,627c706c10be7aadc9f67a0a,2022-05-11_21h27.10.178,classification_task,2021.2.3,Win32,32,627c6715c52fd12f31907bd0,,,,,,,,,,,,,,,,,,,,,,,l,1,1.0872,"[""0.040"",""0.311"",""0.780"",""0.824""]","[1,1,0,1]",0,62,62,62,1,1,1,,,0,FALSE,,,,,,,,,,,,,,,,,,,,,,,,,,,,,,,
,5eb8db02ed810484c85ac7e2,627c706c10be7aadc9f67a0a,2022-05-11_21h27.10.178,classification_task,2021.2.3,Win32,32,627c6715c52fd12f31907bd0,,,,,,,,,,,,,,,,,,,,,,,l,1,2.1461,"[""0.126"",""0.186"",""0.497"",""0.780""]","[1,1,1,0]",0,63,63,63,1,1,0,,,0,FALSE,,,,,,,,,,,,,,,,,,,,,,,,,,,,,,,
,5eb8db02ed810484c85ac7e2,627c706c10be7aadc9f67a0a,2022-05-11_21h27.10.178,classification_task,2021.2.3,Win32,32,627c6715c52fd12f31907bd0,,,,,,,,,,,,,,,,,,,,,,,,,,,,,,,,,,,,,,,0, ,,0,0.349702381,226.6044,0,2,2,2,1,2,3,,,,,,,,,,,,,,,,,,
,5eb8db02ed810484c85ac7e2,627c706c10be7aadc9f67a0a,2022-05-11_21h27.10.178,classification_task,2021.2.3,Win32,32,627c6715c52fd12f31907bd0,,,,,,,,,,,,,,,,,,,,,,,,,,,,,,,,,,,,,,,1,  ,,0,10,233.224,0,2,2,2,1,2,3,,,,,,,,,,,,,,,,,,
,5eb8db02ed810484c85ac7e2,627c706c10be7aadc9f67a0a,2022-05-11_21h27.10.178,classification_task,2021.2.3,Win32,32,627c6715c52fd12f31907bd0,,,,,,,,,,,,,,,,,,,,,,,,,,,,,,,,,,,,,,,2,  ,,0,9.719190917,240.0203,0,2,2,2,1,2,3,,,,,,,,,,,,,,,,,,
,5eb8db02ed810484c85ac7e2,627c706c10be7aadc9f67a0a,2022-05-11_21h27.10.178,classification_task,2021.2.3,Win32,32,627c6715c52fd12f31907bd0,,,,,,,,,,,,,,,,,,,,,,,,,,,,,,,,,,,,,,,,,,,,,0,2,2,2,1,,3,,,,,,,,,,,,,,,,,,
,5eb8db02ed810484c85ac7e2,627c706c10be7aadc9f67a0a,2022-05-11_21h27.10.178,classification_task,2021.2.3,Win32,32,627c6715c52fd12f31907bd0,,,,,,,,,,,,,,,,,,,,,,,,,,,,,,,,,,,,,,,,,,,,,,,,,,,,,I believe the aid is a competent performer,,0.7,0,5,1090.0284,0,0,0,0,1,0,,,,,
,5eb8db02ed810484c85ac7e2,627c706c10be7aadc9f67a0a,2022-05-11_21h27.10.178,classification_task,2021.2.3,Win32,32,627c6715c52fd12f31907bd0,,,,,,,,,,,,,,,,,,,,,,,,,,,,,,,,,,,,,,,,,,,,,,,,,,,,,I trust the aid,,0.7,0,5,1091.8234,0,0,0,0,1,0,,,,,
,5eb8db02ed810484c85ac7e2,627c706c10be7aadc9f67a0a,2022-05-11_21h27.10.178,classification_task,2021.2.3,Win32,32,627c6715c52fd12f31907bd0,,,,,,,,,,,,,,,,,,,,,,,,,,,,,,,,,,,,,,,,,,,,,,,,,,,,,I have confidence in the advice given by the aid,,0.7,0,5,1094.0522,0,0,0,0,1,0,,,,,
,5eb8db02ed810484c85ac7e2,627c706c10be7aadc9f67a0a,2022-05-11_21h27.10.178,classification_task,2021.2.3,Win32,32,627c6715c52fd12f31907bd0,,,,,,,,,,,,,,,,,,,,,,,,,,,,,,,,,,,,,,,,,,,,,,,,,,,,,I can depend on the aid,,0.7,0,5,1095.5552,0,0,0,0,1,0,,,,,
,5eb8db02ed810484c85ac7e2,627c706c10be7aadc9f67a0a,2022-05-11_21h27.10.178,classification_task,2021.2.3,Win32,32,627c6715c52fd12f31907bd0,,,,,,,,,,,,,,,,,,,,,,,,,,,,,,,,,,,,,,,,,,,,,,,,,,,,,I can rely on the aid to behave in consistent ways,,0.7,0,5,1098.6658,0,0,0,0,1,0,,,,,
,5eb8db02ed810484c85ac7e2,627c706c10be7aadc9f67a0a,2022-05-11_21h27.10.178,classification_task,2021.2.3,Win32,32,627c6715c52fd12f31907bd0,,,,,,,,,,,,,,,,,,,,,,,,,,,,,,,,,,,,,,,,,,,,,,,,,,,,,I can rely on the aid to do its best every time I take its advice,,0.7,0,5,1101.3993,0,0,0,0,1,0,,,,,
,5eb8db02ed810484c85ac7e2,627c706c10be7aadc9f67a0a,2022-05-11_21h27.10.178,classification_task,2021.2.3,Win32,32,627c6715c52fd12f31907bd0,,,,,,,,,,,,,,,,,,,,,,,,,,,,,,,,,,,,,,,,,,,,,,,,,,,,,"On trials you completed with assistance from the aid, how frequently did you think the aid was correct?",,0.7,0,100%,,0,0,0,0,1,0,,,,,
,5eb8db02ed810484c85ac7e2,627c706c10be7aadc9f67a0a,2022-05-11_21h27.10.178,classification_task,2021.2.3,Win32,32,627c6715c52fd12f31907bd0,,,,,,,,,,,,,,,,,,,,,,,,,,,,,,,,,,,,,,,,,,,,,,,,,,,,,"On trials you completed without the aid, how frequently did you think you were correct?",,0.7,0,40%,,0,0,0,0,1,0,,,,,
,5eb8db02ed810484c85ac7e2,627c706c10be7aadc9f67a0a,2022-05-11_21h27.10.178,classification_task,2021.2.3,Win32,32,627c6715c52fd12f31907bd0,,,,,,,,,,,,,,,,,,,,,,,,,,,,,,,,,,,,,,,,,,,,,,,,,,,,,,,,,,,0,0,0,0,1,,,,,,
,5eb8db02ed810484c85ac7e2,627c706c10be7aadc9f67a0a,2022-05-11_21h27.10.178,classification_task,2021.2.3,Win32,32,627c6715c52fd12f31907bd0,,,,,,,,,,,,,,,,,,,,,,,,,,,,,,,,,,,,,,,,,,,,,,,,,,,,,,,,,,,,,,,,,space,9.0804,1130.3824,,
,5eb8db02ed810484c85ac7e2,627c706c10be7aadc9f67a0a,2022-05-11_21h27.10.178,classification_task,2021.2.3,Win32,32,627c6715c52fd12f31907bd0,,,,,,,,,,,,,,,,,,,,,,,,,,,,,,,,,,,,,,,,,,,,,,,,,,,,,,,,,,,,,,,,,,,,"Mozilla/5.0 (Windows NT 10.0; Win64; x64) AppleWebKit/537.36 (KHTML, like Gecko) Chrome/101.0.4951.54 Safari/537.36 Edg/101.0.1210.39",
,5eb8db02ed810484c85ac7e2,627c706c10be7aadc9f67a0a,2022-05-11_21h27.10.178,classification_task,2021.2.3,Win32,32,627c6715c52fd12f31907bd0,,,,,,,,,,,,,,,,,,,,,,,,,,,,,,,,,,,,,,,,,,,,,,,,,,,,,,,,,,,,,,,,,,,,,HIGHLIGHT
