usingWebGL,participant,session,date,expName,psychopyVersion,OS,frameRate,PROLIFIC_PID,STUDY_ID,SESSION_ID,signatures_friend,signatures_foe,band_ranges_top,band_ranges_bottom,formitemText,formtype,formundefined,formitemWidth,formindex,formresponse,formrt,key_resp_2.keys,key_resp_2.rt,tute_resp.keys,tute_resp.rt,tutorial.thisRepN,tutorial.thisTrialN,tutorial.thisN,tutorial.thisIndex,tutorial.ran,key_resp_4.keys,key_resp_4.rt,key_resp.keys,key_resp.corr,lines_presented,is_signal_presented,trials.thisRepN,trials.thisTrialN,trials.thisN,trials.thisIndex,trials.ran,vessel,active_band,lines,is_signal,supported_pos,catch_trial,key_resp.rt,debrief_formindex,debrief_formitemText,debrief_formtype,debrief_formitemWidth,debrief_formresponse,debrief_formrt,phases.thisRepN,phases.thisTrialN,phases.thisN,phases.thisIndex,phases.ran,phases.order,phase,key_resp_3.keys,trustitemText,trusttype,trustitemWidth,trustindex,trustresponse,trustrt,support_status.thisRepN,support_status.thisTrialN,support_status.thisN,support_status.thisIndex,support_status.ran,support_status.order,key_resp_5.keys,key_resp_5.rt,globalClockTime,userAgent
TRUE,5ebea7893af71c2282a450ad,001,2022-04-29_03h05.44.897,classification_task,2021.2.3,Win32,143.8641922,5ebea7893af71c2282a450ad,626b377229c10585ec392f89,626b3a304e7d9da64f0db358,,,,,,,,,,,,,,,,,,,,,,,,,,,,,,,,,,,,,,,,,,,,,,,,,,,,,,,,,,,,,,,,,,,,
,5ebea7893af71c2282a450ad,001,2022-04-29_03h05.44.897,classification_task,2021.2.3,Win32,143.8641922,5ebea7893af71c2282a450ad,626b377229c10585ec392f89,626b3a304e7d9da64f0db358,"[[""0.269"",""0.363"",""0.836"",""0.879""],[""0.192"",""0.507"",""0.915"",""0.950""]]","[[""0.155"",""0.309"",""0.439"",""0.738""],[""0.028"",""0.229"",""0.630"",""0.684""]]","[1,10]","[100,1000]",Video game experience,,,0.7,0,,,,,,,,,,,,,,,,,,,,,,,,,,,,,,,,,,,,,,,,,,,,,,,,,,,,,,,,,,,
,5ebea7893af71c2282a450ad,001,2022-04-29_03h05.44.897,classification_task,2021.2.3,Win32,143.8641922,5ebea7893af71c2282a450ad,626b377229c10585ec392f89,626b3a304e7d9da64f0db358,,,,,Approximately how many hours did you spend playing video games in the last week?,,,0.7,0,15,,,,,,,,,,,,,,,,,,,,,,,,,,,,,,,,,,,,,,,,,,,,,,,,,,,,,,,,,,
,5ebea7893af71c2282a450ad,001,2022-04-29_03h05.44.897,classification_task,2021.2.3,Win32,143.8641922,5ebea7893af71c2282a450ad,626b377229c10585ec392f89,626b3a304e7d9da64f0db358,,,,,"Which game did you play the most this year? (Enter ""None"" if you didn't play any)",,,0.7,0,league of legends,,,,,,,,,,,,,,,,,,,,,,,,,,,,,,,,,,,,,,,,,,,,,,,,,,,,,,,,,,
,5ebea7893af71c2282a450ad,001,2022-04-29_03h05.44.897,classification_task,2021.2.3,Win32,143.8641922,5ebea7893af71c2282a450ad,626b377229c10585ec392f89,626b3a304e7d9da64f0db358,,,,,Visual perception,,,0.7,0,,,,,,,,,,,,,,,,,,,,,,,,,,,,,,,,,,,,,,,,,,,,,,,,,,,,,,,,,,,
,5ebea7893af71c2282a450ad,001,2022-04-29_03h05.44.897,classification_task,2021.2.3,Win32,143.8641922,5ebea7893af71c2282a450ad,626b377229c10585ec392f89,626b3a304e7d9da64f0db358,,,,,Do you have any form of color blindness?,,,0.7,0,No,14.9967,,,,,,,,,,,,,,,,,,,,,,,,,,,,,,,,,,,,,,,,,,,,,,,,,,,,,,,,,
,5ebea7893af71c2282a450ad,001,2022-04-29_03h05.44.897,classification_task,2021.2.3,Win32,143.8641922,5ebea7893af71c2282a450ad,626b377229c10585ec392f89,626b3a304e7d9da64f0db358,,,,,Do you use software to change the colour temperature of your screen (e.g. f.lux)?,,,0.7,0,Yes,16.8872,,,,,,,,,,,,,,,,,,,,,,,,,,,,,,,,,,,,,,,,,,,,,,,,,,,,,,,,,
,5ebea7893af71c2282a450ad,001,2022-04-29_03h05.44.897,classification_task,2021.2.3,Win32,143.8641922,5ebea7893af71c2282a450ad,626b377229c10585ec392f89,626b3a304e7d9da64f0db358,,,,,,,,,,,,space,24.5035,space,5.2964,0,0,0,0,1,,,,,,,,,,,,,,,,,,,,,,,,,,,,,,,,,,,,,,,,,,,,,,,,
,5ebea7893af71c2282a450ad,001,2022-04-29_03h05.44.897,classification_task,2021.2.3,Win32,143.8641922,5ebea7893af71c2282a450ad,626b377229c10585ec392f89,626b3a304e7d9da64f0db358,,,,,,,,,,,,,,space,8.2498,1,0,1,0,1,,,,,,,,,,,,,,,,,,,,,,,,,,,,,,,,,,,,,,,,,,,,,,,,
,5ebea7893af71c2282a450ad,001,2022-04-29_03h05.44.897,classification_task,2021.2.3,Win32,143.8641922,5ebea7893af71c2282a450ad,626b377229c10585ec392f89,626b3a304e7d9da64f0db358,,,,,,,,,,,,,,space,8.938,2,0,2,0,1,,,,,,,,,,,,,,,,,,,,,,,,,,,,,,,,,,,,,,,,,,,,,,,,
,5ebea7893af71c2282a450ad,001,2022-04-29_03h05.44.897,classification_task,2021.2.3,Win32,143.8641922,5ebea7893af71c2282a450ad,626b377229c10585ec392f89,626b3a304e7d9da64f0db358,,,,,,,,,,,,,,space,19.5147,3,0,3,0,1,,,,,,,,,,,,,,,,,,,,,,,,,,,,,,,,,,,,,,,,,,,,,,,,
,5ebea7893af71c2282a450ad,001,2022-04-29_03h05.44.897,classification_task,2021.2.3,Win32,143.8641922,5ebea7893af71c2282a450ad,626b377229c10585ec392f89,626b3a304e7d9da64f0db358,,,,,,,,,,,,,,space,9.9555,4,0,4,0,1,,,,,,,,,,,,,,,,,,,,,,,,,,,,,,,,,,,,,,,,,,,,,,,,
,5ebea7893af71c2282a450ad,001,2022-04-29_03h05.44.897,classification_task,2021.2.3,Win32,143.8641922,5ebea7893af71c2282a450ad,626b377229c10585ec392f89,626b3a304e7d9da64f0db358,,,,,,,,,,,,,,,,,,,,,space,6.8439,,0,"[""0.192"",""0.507"",""0.102"",""0.950""]","[1,1,0,1]",0,0,0,0,1,0,1,,,1,FALSE,,,,,,,,,,,,,,,,,,,,,,,,,,,,,,,
,5ebea7893af71c2282a450ad,001,2022-04-29_03h05.44.897,classification_task,2021.2.3,Win32,143.8641922,5ebea7893af71c2282a450ad,626b377229c10585ec392f89,626b3a304e7d9da64f0db358,,,,,,,,,,,,,,,,,,,,,,,a,1,"[""0.569"",""0.507"",""0.915"",""0.950""]","[0,1,1,1]",0,1,1,1,1,0,1,,,1,FALSE,5.7022,,,,,,,,,,,,,,,,,,,,,,,,,,,,,,
,5ebea7893af71c2282a450ad,001,2022-04-29_03h05.44.897,classification_task,2021.2.3,Win32,143.8641922,5ebea7893af71c2282a450ad,626b377229c10585ec392f89,626b3a304e7d9da64f0db358,,,,,,,,,,,,,,,,,,,,,,,a,1,"[""0.192"",""0.507"",""0.915"",""0.790""]","[1,1,1,0]",0,2,2,2,1,0,1,,,1,FALSE,7.3096,,,,,,,,,,,,,,,,,,,,,,,,,,,,,,
,5ebea7893af71c2282a450ad,001,2022-04-29_03h05.44.897,classification_task,2021.2.3,Win32,143.8641922,5ebea7893af71c2282a450ad,626b377229c10585ec392f89,626b3a304e7d9da64f0db358,,,,,,,,,,,,,,,,,,,,,,,l,1,"[""0.111"",""0.229"",""0.630"",""0.684""]","[0,1,1,1]",0,3,3,3,1,1,1,,,1,FALSE,5.478,,,,,,,,,,,,,,,,,,,,,,,,,,,,,,
,5ebea7893af71c2282a450ad,001,2022-04-29_03h05.44.897,classification_task,2021.2.3,Win32,143.8641922,5ebea7893af71c2282a450ad,626b377229c10585ec392f89,626b3a304e7d9da64f0db358,,,,,,,,,,,,,,,,,,,,,,,l,1,"[""0.155"",""0.309"",""0.439"",""0.579""]","[1,1,1,0]",0,4,4,4,1,1,0,,,1,FALSE,6.4124,,,,,,,,,,,,,,,,,,,,,,,,,,,,,,
,5ebea7893af71c2282a450ad,001,2022-04-29_03h05.44.897,classification_task,2021.2.3,Win32,143.8641922,5ebea7893af71c2282a450ad,626b377229c10585ec392f89,626b3a304e7d9da64f0db358,,,,,,,,,,,,,,,,,,,,,,,l,1,"[""0.028"",""0.120"",""0.630"",""0.684""]","[1,0,1,1]",0,5,5,5,1,1,1,,,1,FALSE,3.4654,,,,,,,,,,,,,,,,,,,,,,,,,,,,,,
,5ebea7893af71c2282a450ad,001,2022-04-29_03h05.44.897,classification_task,2021.2.3,Win32,143.8641922,5ebea7893af71c2282a450ad,626b377229c10585ec392f89,626b3a304e7d9da64f0db358,,,,,,,,,,,,,,,,,,,,,,,l,1,"[""0.028"",""0.229"",""0.102"",""0.684""]","[1,1,0,1]",0,6,6,6,1,1,1,,,1,FALSE,3.9611,,,,,,,,,,,,,,,,,,,,,,,,,,,,,,
,5ebea7893af71c2282a450ad,001,2022-04-29_03h05.44.897,classification_task,2021.2.3,Win32,143.8641922,5ebea7893af71c2282a450ad,626b377229c10585ec392f89,626b3a304e7d9da64f0db358,,,,,,,,,,,,,,,,,,,,,,,a,1,"[""0.269"",""0.363"",""0.836"",""0.120""]","[1,1,1,0]",0,7,7,7,1,0,0,,,1,FALSE,6.9564,,,,,,,,,,,,,,,,,,,,,,,,,,,,,,
,5ebea7893af71c2282a450ad,001,2022-04-29_03h05.44.897,classification_task,2021.2.3,Win32,143.8641922,5ebea7893af71c2282a450ad,626b377229c10585ec392f89,626b3a304e7d9da64f0db358,,,,,,,,,,,,,,,,,,,,,,,l,1,"[""0.155"",""0.309"",""0.798"",""0.738""]","[1,1,0,1]",0,8,8,8,1,1,0,,,1,FALSE,7.6313,,,,,,,,,,,,,,,,,,,,,,,,,,,,,,
,5ebea7893af71c2282a450ad,001,2022-04-29_03h05.44.897,classification_task,2021.2.3,Win32,143.8641922,5ebea7893af71c2282a450ad,626b377229c10585ec392f89,626b3a304e7d9da64f0db358,,,,,,,,,,,,,,,,,,,,,,,a,1,"[""0.192"",""0.798"",""0.915"",""0.950""]","[1,0,1,1]",0,9,9,9,1,0,1,,,1,FALSE,3.4962,,,,,,,,,,,,,,,,,,,,,,,,,,,,,,
,5ebea7893af71c2282a450ad,001,2022-04-29_03h05.44.897,classification_task,2021.2.3,Win32,143.8641922,5ebea7893af71c2282a450ad,626b377229c10585ec392f89,626b3a304e7d9da64f0db358,,,,,,,,,,,,,,,,,,,,,,,l,1,"[""0.155"",""0.120"",""0.439"",""0.738""]","[1,0,1,1]",0,10,10,10,1,1,0,,,1,FALSE,4.05,,,,,,,,,,,,,,,,,,,,,,,,,,,,,,
,5ebea7893af71c2282a450ad,001,2022-04-29_03h05.44.897,classification_task,2021.2.3,Win32,143.8641922,5ebea7893af71c2282a450ad,626b377229c10585ec392f89,626b3a304e7d9da64f0db358,,,,,,,,,,,,,,,,,,,,,,,l,1,"[""0.028"",""0.229"",""0.630"",""0.102""]","[1,1,1,0]",0,11,11,11,1,1,1,,,1,FALSE,5.7968,,,,,,,,,,,,,,,,,,,,,,,,,,,,,,
,5ebea7893af71c2282a450ad,001,2022-04-29_03h05.44.897,classification_task,2021.2.3,Win32,143.8641922,5ebea7893af71c2282a450ad,626b377229c10585ec392f89,626b3a304e7d9da64f0db358,,,,,,,,,,,,,,,,,,,,,,,a,0,"[""0.472"",""0.309"",""0.439"",""0.738""]","[0,1,1,1]",0,12,12,12,1,1,0,,,1,FALSE,9.3759,,,,,,,,,,,,,,,,,,,,,,,,,,,,,,
,5ebea7893af71c2282a450ad,001,2022-04-29_03h05.44.897,classification_task,2021.2.3,Win32,143.8641922,5ebea7893af71c2282a450ad,626b377229c10585ec392f89,626b3a304e7d9da64f0db358,,,,,,,,,,,,,,,,,,,,,,,a,1,"[""0.472"",""0.363"",""0.836"",""0.879""]","[0,1,1,1]",0,13,13,13,1,0,0,,,1,FALSE,3.1119,,,,,,,,,,,,,,,,,,,,,,,,,,,,,,
,5ebea7893af71c2282a450ad,001,2022-04-29_03h05.44.897,classification_task,2021.2.3,Win32,143.8641922,5ebea7893af71c2282a450ad,626b377229c10585ec392f89,626b3a304e7d9da64f0db358,,,,,,,,,,,,,,,,,,,,,,,a,1,"[""0.269"",""0.363"",""0.579"",""0.879""]","[1,1,0,1]",0,14,14,14,1,0,0,,,1,FALSE,2.7245,,,,,,,,,,,,,,,,,,,,,,,,,,,,,,
,5ebea7893af71c2282a450ad,001,2022-04-29_03h05.44.897,classification_task,2021.2.3,Win32,143.8641922,5ebea7893af71c2282a450ad,626b377229c10585ec392f89,626b3a304e7d9da64f0db358,,,,,,,,,,,,,,,,,,,,,,,a,1,"[""0.269"",""0.579"",""0.836"",""0.879""]","[1,0,1,1]",0,15,15,15,1,0,0,,,1,FALSE,1.0183,,,,,,,,,,,,,,,,,,,,,,,,,,,,,,
,5ebea7893af71c2282a450ad,001,2022-04-29_03h05.44.897,classification_task,2021.2.3,Win32,143.8641922,5ebea7893af71c2282a450ad,626b377229c10585ec392f89,626b3a304e7d9da64f0db358,,,,,,,,,,,,,,,,,,,,,,,a,1,"[""0.192"",""0.102"",""0.915"",""0.950""]","[1,0,1,1]",0,16,16,16,1,0,1,,,1,FALSE,7.8946,,,,,,,,,,,,,,,,,,,,,,,,,,,,,,
,5ebea7893af71c2282a450ad,001,2022-04-29_03h05.44.897,classification_task,2021.2.3,Win32,143.8641922,5ebea7893af71c2282a450ad,626b377229c10585ec392f89,626b3a304e7d9da64f0db358,,,,,,,,,,,,,,,,,,,,,,,a,1,"[""0.269"",""0.363"",""0.798"",""0.879""]","[1,1,0,1]",0,17,17,17,1,0,0,,,1,FALSE,1.7676,,,,,,,,,,,,,,,,,,,,,,,,,,,,,,
,5ebea7893af71c2282a450ad,001,2022-04-29_03h05.44.897,classification_task,2021.2.3,Win32,143.8641922,5ebea7893af71c2282a450ad,626b377229c10585ec392f89,626b3a304e7d9da64f0db358,,,,,,,,,,,,,,,,,,,,,,,l,1,"[""0.028"",""0.229"",""0.118"",""0.684""]","[1,1,0,1]",0,18,18,18,1,1,1,,,1,FALSE,2.2574,,,,,,,,,,,,,,,,,,,,,,,,,,,,,,
,5ebea7893af71c2282a450ad,001,2022-04-29_03h05.44.897,classification_task,2021.2.3,Win32,143.8641922,5ebea7893af71c2282a450ad,626b377229c10585ec392f89,626b3a304e7d9da64f0db358,,,,,,,,,,,,,,,,,,,,,,,a,1,"[""0.192"",""0.507"",""0.915"",""0.101""]","[1,1,1,0]",0,19,19,19,1,0,1,,,1,FALSE,5.7156,,,,,,,,,,,,,,,,,,,,,,,,,,,,,,
,5ebea7893af71c2282a450ad,001,2022-04-29_03h05.44.897,classification_task,2021.2.3,Win32,143.8641922,5ebea7893af71c2282a450ad,626b377229c10585ec392f89,626b3a304e7d9da64f0db358,,,,,,,,,,,,,,,,,,,,,,,l,0,"[""0.269"",""0.099"",""0.836"",""0.879""]","[1,0,1,1]",0,20,20,20,1,0,0,,,1,FALSE,1.9416,,,,,,,,,,,,,,,,,,,,,,,,,,,,,,
,5ebea7893af71c2282a450ad,001,2022-04-29_03h05.44.897,classification_task,2021.2.3,Win32,143.8641922,5ebea7893af71c2282a450ad,626b377229c10585ec392f89,626b3a304e7d9da64f0db358,,,,,,,,,,,,,,,,,,,,,,,l,1,"[""0.579"",""0.309"",""0.439"",""0.738""]","[0,1,1,1]",0,21,21,21,1,1,0,,,1,FALSE,7.2703,,,,,,,,,,,,,,,,,,,,,,,,,,,,,,
,5ebea7893af71c2282a450ad,001,2022-04-29_03h05.44.897,classification_task,2021.2.3,Win32,143.8641922,5ebea7893af71c2282a450ad,626b377229c10585ec392f89,626b3a304e7d9da64f0db358,,,,,,,,,,,,,,,,,,,,,,,a,1,"[""0.269"",""0.363"",""0.836"",""0.797""]","[1,1,1,0]",0,22,22,22,1,0,0,,,1,FALSE,1.9916,,,,,,,,,,,,,,,,,,,,,,,,,,,,,,
,5ebea7893af71c2282a450ad,001,2022-04-29_03h05.44.897,classification_task,2021.2.3,Win32,143.8641922,5ebea7893af71c2282a450ad,626b377229c10585ec392f89,626b3a304e7d9da64f0db358,,,,,,,,,,,,,,,,,,,,,,,l,1,"[""0.028"",""0.569"",""0.630"",""0.684""]","[1,0,1,1]",0,23,23,23,1,1,1,,,1,FALSE,1.5421,,,,,,,,,,,,,,,,,,,,,,,,,,,,,,
,5ebea7893af71c2282a450ad,001,2022-04-29_03h05.44.897,classification_task,2021.2.3,Win32,143.8641922,5ebea7893af71c2282a450ad,626b377229c10585ec392f89,626b3a304e7d9da64f0db358,,,,,,,,,,,,,,,,,,,,,,,l,1,"[""0.155"",""0.101"",""0.439"",""0.738""]","[1,0,1,1]",0,24,24,24,1,1,0,,,1,FALSE,5.6068,,,,,,,,,,,,,,,,,,,,,,,,,,,,,,
,5ebea7893af71c2282a450ad,001,2022-04-29_03h05.44.897,classification_task,2021.2.3,Win32,143.8641922,5ebea7893af71c2282a450ad,626b377229c10585ec392f89,626b3a304e7d9da64f0db358,,,,,,,,,,,,,,,,,,,,,,,l,1,"[""0.155"",""0.309"",""0.439"",""0.120""]","[1,1,1,0]",0,25,25,25,1,1,0,,,1,FALSE,4.7429,,,,,,,,,,,,,,,,,,,,,,,,,,,,,,
,5ebea7893af71c2282a450ad,001,2022-04-29_03h05.44.897,classification_task,2021.2.3,Win32,143.8641922,5ebea7893af71c2282a450ad,626b377229c10585ec392f89,626b3a304e7d9da64f0db358,,,,,,,,,,,,,,,,,,,,,,,l,1,"[""0.028"",""0.229"",""0.630"",""0.775""]","[1,1,1,0]",0,26,26,26,1,1,1,,,1,FALSE,4.206,,,,,,,,,,,,,,,,,,,,,,,,,,,,,,
,5ebea7893af71c2282a450ad,001,2022-04-29_03h05.44.897,classification_task,2021.2.3,Win32,143.8641922,5ebea7893af71c2282a450ad,626b377229c10585ec392f89,626b3a304e7d9da64f0db358,,,,,,,,,,,,,,,,,,,,,,,l,1,"[""0.155"",""0.309"",""0.083"",""0.738""]","[1,1,0,1]",0,27,27,27,1,1,0,,,1,FALSE,7.2942,,,,,,,,,,,,,,,,,,,,,,,,,,,,,,
,5ebea7893af71c2282a450ad,001,2022-04-29_03h05.44.897,classification_task,2021.2.3,Win32,143.8641922,5ebea7893af71c2282a450ad,626b377229c10585ec392f89,626b3a304e7d9da64f0db358,,,,,,,,,,,,,,,,,,,,,,,a,1,"[""0.192"",""0.507"",""0.569"",""0.950""]","[1,1,0,1]",0,28,28,28,1,0,1,,,1,FALSE,2.0319,,,,,,,,,,,,,,,,,,,,,,,,,,,,,,
,5ebea7893af71c2282a450ad,001,2022-04-29_03h05.44.897,classification_task,2021.2.3,Win32,143.8641922,5ebea7893af71c2282a450ad,626b377229c10585ec392f89,626b3a304e7d9da64f0db358,,,,,,,,,,,,,,,,,,,,,,,l,1,"[""0.797"",""0.229"",""0.630"",""0.684""]","[0,1,1,1]",0,29,29,29,1,1,1,,,1,FALSE,1.5793,,,,,,,,,,,,,,,,,,,,,,,,,,,,,,
,5ebea7893af71c2282a450ad,001,2022-04-29_03h05.44.897,classification_task,2021.2.3,Win32,143.8641922,5ebea7893af71c2282a450ad,626b377229c10585ec392f89,626b3a304e7d9da64f0db358,,,,,,,,,,,,,,,,,,,,,,,a,1,"[""0.797"",""0.507"",""0.915"",""0.950""]","[0,1,1,1]",0,30,30,30,1,0,1,,,1,FALSE,2.5752,,,,,,,,,,,,,,,,,,,,,,,,,,,,,,
,5ebea7893af71c2282a450ad,001,2022-04-29_03h05.44.897,classification_task,2021.2.3,Win32,143.8641922,5ebea7893af71c2282a450ad,626b377229c10585ec392f89,626b3a304e7d9da64f0db358,,,,,,,,,,,,,,,,,,,,,,,a,1,"[""0.472"",""0.363"",""0.836"",""0.879""]","[0,1,1,1]",0,31,31,31,1,0,0,,,1,FALSE,1.8644,,,,,,,,,,,,,,,,,,,,,,,,,,,,,,
,5ebea7893af71c2282a450ad,001,2022-04-29_03h05.44.897,classification_task,2021.2.3,Win32,143.8641922,5ebea7893af71c2282a450ad,626b377229c10585ec392f89,626b3a304e7d9da64f0db358,,,,,,,,,,,,,,,,,,,,,,,a,1,"[""0.269"",""0.790"",""0.836"",""0.879""]","[1,0,1,1]",0,32,32,32,1,0,0,,,1,FALSE,5.2948,,,,,,,,,,,,,,,,,,,,,,,,,,,,,,
,5ebea7893af71c2282a450ad,001,2022-04-29_03h05.44.897,classification_task,2021.2.3,Win32,143.8641922,5ebea7893af71c2282a450ad,626b377229c10585ec392f89,626b3a304e7d9da64f0db358,,,,,,,,,,,,,,,,,,,,,,,l,1,"[""0.155"",""0.596"",""0.439"",""0.738""]","[1,0,1,1]",0,33,33,33,1,1,0,,,1,FALSE,1.9171,,,,,,,,,,,,,,,,,,,,,,,,,,,,,,
,5ebea7893af71c2282a450ad,001,2022-04-29_03h05.44.897,classification_task,2021.2.3,Win32,143.8641922,5ebea7893af71c2282a450ad,626b377229c10585ec392f89,626b3a304e7d9da64f0db358,,,,,,,,,,,,,,,,,,,,,,,l,0,"[""0.101"",""0.507"",""0.915"",""0.950""]","[0,1,1,1]",0,34,34,34,1,0,1,,,1,FALSE,2.4083,,,,,,,,,,,,,,,,,,,,,,,,,,,,,,
,5ebea7893af71c2282a450ad,001,2022-04-29_03h05.44.897,classification_task,2021.2.3,Win32,143.8641922,5ebea7893af71c2282a450ad,626b377229c10585ec392f89,626b3a304e7d9da64f0db358,,,,,,,,,,,,,,,,,,,,,,,l,1,"[""0.101"",""0.309"",""0.439"",""0.738""]","[0,1,1,1]",0,35,35,35,1,1,0,,,1,FALSE,2.451,,,,,,,,,,,,,,,,,,,,,,,,,,,,,,
,5ebea7893af71c2282a450ad,001,2022-04-29_03h05.44.897,classification_task,2021.2.3,Win32,143.8641922,5ebea7893af71c2282a450ad,626b377229c10585ec392f89,626b3a304e7d9da64f0db358,,,,,,,,,,,,,,,,,,,,,,,a,1,"[""0.120"",""0.363"",""0.836"",""0.879""]","[0,1,1,1]",0,36,36,36,1,0,0,,,1,FALSE,2.9975,,,,,,,,,,,,,,,,,,,,,,,,,,,,,,
,5ebea7893af71c2282a450ad,001,2022-04-29_03h05.44.897,classification_task,2021.2.3,Win32,143.8641922,5ebea7893af71c2282a450ad,626b377229c10585ec392f89,626b3a304e7d9da64f0db358,,,,,,,,,,,,,,,,,,,,,,,l,1,"[""0.155"",""0.309"",""0.083"",""0.738""]","[1,1,0,1]",0,37,37,37,1,1,0,,,1,FALSE,1.3075,,,,,,,,,,,,,,,,,,,,,,,,,,,,,,
,5ebea7893af71c2282a450ad,001,2022-04-29_03h05.44.897,classification_task,2021.2.3,Win32,143.8641922,5ebea7893af71c2282a450ad,626b377229c10585ec392f89,626b3a304e7d9da64f0db358,,,,,,,,,,,,,,,,,,,,,,,a,1,"[""0.269"",""0.363"",""0.836"",""0.569""]","[1,1,1,0]",0,38,38,38,1,0,0,,,1,FALSE,1.1609,,,,,,,,,,,,,,,,,,,,,,,,,,,,,,
,5ebea7893af71c2282a450ad,001,2022-04-29_03h05.44.897,classification_task,2021.2.3,Win32,143.8641922,5ebea7893af71c2282a450ad,626b377229c10585ec392f89,626b3a304e7d9da64f0db358,,,,,,,,,,,,,,,,,,,,,,,l,1,"[""0.155"",""0.309"",""0.439"",""0.101""]","[1,1,1,0]",0,39,39,39,1,1,0,,,1,FALSE,1.5576,,,,,,,,,,,,,,,,,,,,,,,,,,,,,,
,5ebea7893af71c2282a450ad,001,2022-04-29_03h05.44.897,classification_task,2021.2.3,Win32,143.8641922,5ebea7893af71c2282a450ad,626b377229c10585ec392f89,626b3a304e7d9da64f0db358,,,,,,,,,,,,,,,,,,,,,,,a,1,"[""0.192"",""0.507"",""0.915"",""0.579""]","[1,1,1,0]",0,40,40,40,1,0,1,,,1,FALSE,2.4598,,,,,,,,,,,,,,,,,,,,,,,,,,,,,,
,5ebea7893af71c2282a450ad,001,2022-04-29_03h05.44.897,classification_task,2021.2.3,Win32,143.8641922,5ebea7893af71c2282a450ad,626b377229c10585ec392f89,626b3a304e7d9da64f0db358,,,,,,,,,,,,,,,,,,,,,,,l,1,"[""0.028"",""0.229"",""0.797"",""0.684""]","[1,1,0,1]",0,41,41,41,1,1,1,,,1,FALSE,1.2104,,,,,,,,,,,,,,,,,,,,,,,,,,,,,,
,5ebea7893af71c2282a450ad,001,2022-04-29_03h05.44.897,classification_task,2021.2.3,Win32,143.8641922,5ebea7893af71c2282a450ad,626b377229c10585ec392f89,626b3a304e7d9da64f0db358,,,,,,,,,,,,,,,,,,,,,,,a,1,"[""0.192"",""0.118"",""0.915"",""0.950""]","[1,0,1,1]",0,42,42,42,1,0,1,,,1,FALSE,1.3532,,,,,,,,,,,,,,,,,,,,,,,,,,,,,,
,5ebea7893af71c2282a450ad,001,2022-04-29_03h05.44.897,classification_task,2021.2.3,Win32,143.8641922,5ebea7893af71c2282a450ad,626b377229c10585ec392f89,626b3a304e7d9da64f0db358,,,,,,,,,,,,,,,,,,,,,,,l,1,"[""0.028"",""0.472"",""0.630"",""0.684""]","[1,0,1,1]",0,43,43,43,1,1,1,,,1,FALSE,1.7153,,,,,,,,,,,,,,,,,,,,,,,,,,,,,,
,5ebea7893af71c2282a450ad,001,2022-04-29_03h05.44.897,classification_task,2021.2.3,Win32,143.8641922,5ebea7893af71c2282a450ad,626b377229c10585ec392f89,626b3a304e7d9da64f0db358,,,,,,,,,,,,,,,,,,,,,,,a,0,"[""0.790"",""0.229"",""0.630"",""0.684""]","[0,1,1,1]",0,44,44,44,1,1,1,,,1,FALSE,1.5119,,,,,,,,,,,,,,,,,,,,,,,,,,,,,,
,5ebea7893af71c2282a450ad,001,2022-04-29_03h05.44.897,classification_task,2021.2.3,Win32,143.8641922,5ebea7893af71c2282a450ad,626b377229c10585ec392f89,626b3a304e7d9da64f0db358,,,,,,,,,,,,,,,,,,,,,,,l,0,"[""0.192"",""0.507"",""0.579"",""0.950""]","[1,1,0,1]",0,45,45,45,1,0,1,,,1,FALSE,1.6655,,,,,,,,,,,,,,,,,,,,,,,,,,,,,,
,5ebea7893af71c2282a450ad,001,2022-04-29_03h05.44.897,classification_task,2021.2.3,Win32,143.8641922,5ebea7893af71c2282a450ad,626b377229c10585ec392f89,626b3a304e7d9da64f0db358,,,,,,,,,,,,,,,,,,,,,,,l,0,"[""0.269"",""0.363"",""0.579"",""0.879""]","[1,1,0,1]",0,46,46,46,1,0,0,,,1,FALSE,2.0098,,,,,,,,,,,,,,,,,,,,,,,,,,,,,,
,5ebea7893af71c2282a450ad,001,2022-04-29_03h05.44.897,classification_task,2021.2.3,Win32,143.8641922,5ebea7893af71c2282a450ad,626b377229c10585ec392f89,626b3a304e7d9da64f0db358,,,,,,,,,,,,,,,,,,,,,,,l,1,"[""0.028"",""0.229"",""0.630"",""0.472""]","[1,1,1,0]",0,47,47,47,1,1,1,,,1,FALSE,2.0297,,,,,,,,,,,,,,,,,,,,,,,,,,,,,,
,5ebea7893af71c2282a450ad,001,2022-04-29_03h05.44.897,classification_task,2021.2.3,Win32,143.8641922,5ebea7893af71c2282a450ad,626b377229c10585ec392f89,626b3a304e7d9da64f0db358,,,,,,,,,,,,,,,,,,,,,,,a,0,"[""0.155"",""0.309"",""0.083"",""0.738""]","[1,1,0,1]",0,48,48,48,1,1,0,,,1,FALSE,1.6921,,,,,,,,,,,,,,,,,,,,,,,,,,,,,,
,5ebea7893af71c2282a450ad,001,2022-04-29_03h05.44.897,classification_task,2021.2.3,Win32,143.8641922,5ebea7893af71c2282a450ad,626b377229c10585ec392f89,626b3a304e7d9da64f0db358,,,,,,,,,,,,,,,,,,,,,,,l,1,"[""0.155"",""0.309"",""0.439"",""0.083""]","[1,1,1,0]",0,49,49,49,1,1,0,,,1,FALSE,0.9566,,,,,,,,,,,,,,,,,,,,,,,,,,,,,,
,5ebea7893af71c2282a450ad,001,2022-04-29_03h05.44.897,classification_task,2021.2.3,Win32,143.8641922,5ebea7893af71c2282a450ad,626b377229c10585ec392f89,626b3a304e7d9da64f0db358,,,,,,,,,,,,,,,,,,,,,,,a,1,"[""0.569"",""0.363"",""0.836"",""0.879""]","[0,1,1,1]",0,50,50,50,1,0,0,,,1,FALSE,1.6135,,,,,,,,,,,,,,,,,,,,,,,,,,,,,,
,5ebea7893af71c2282a450ad,001,2022-04-29_03h05.44.897,classification_task,2021.2.3,Win32,143.8641922,5ebea7893af71c2282a450ad,626b377229c10585ec392f89,626b3a304e7d9da64f0db358,,,,,,,,,,,,,,,,,,,,,,,l,0,"[""0.269"",""0.363"",""0.099"",""0.879""]","[1,1,0,1]",0,51,51,51,1,0,0,,,1,FALSE,1.6051,,,,,,,,,,,,,,,,,,,,,,,,,,,,,,
,5ebea7893af71c2282a450ad,001,2022-04-29_03h05.44.897,classification_task,2021.2.3,Win32,143.8641922,5ebea7893af71c2282a450ad,626b377229c10585ec392f89,626b3a304e7d9da64f0db358,,,,,,,,,,,,,,,,,,,,,,,l,0,"[""0.269"",""0.363"",""0.836"",""0.775""]","[1,1,1,0]",0,52,52,52,1,0,0,,,1,FALSE,2.4585,,,,,,,,,,,,,,,,,,,,,,,,,,,,,,
,5ebea7893af71c2282a450ad,001,2022-04-29_03h05.44.897,classification_task,2021.2.3,Win32,143.8641922,5ebea7893af71c2282a450ad,626b377229c10585ec392f89,626b3a304e7d9da64f0db358,,,,,,,,,,,,,,,,,,,,,,,l,1,"[""0.472"",""0.309"",""0.439"",""0.738""]","[0,1,1,1]",0,53,53,53,1,1,0,,,1,FALSE,0.8518,,,,,,,,,,,,,,,,,,,,,,,,,,,,,,
,5ebea7893af71c2282a450ad,001,2022-04-29_03h05.44.897,classification_task,2021.2.3,Win32,143.8641922,5ebea7893af71c2282a450ad,626b377229c10585ec392f89,626b3a304e7d9da64f0db358,,,,,,,,,,,,,,,,,,,,,,,l,0,"[""0.472"",""0.507"",""0.915"",""0.950""]","[0,1,1,1]",0,54,54,54,1,0,1,,,1,FALSE,3.1024,,,,,,,,,,,,,,,,,,,,,,,,,,,,,,
,5ebea7893af71c2282a450ad,001,2022-04-29_03h05.44.897,classification_task,2021.2.3,Win32,143.8641922,5ebea7893af71c2282a450ad,626b377229c10585ec392f89,626b3a304e7d9da64f0db358,,,,,,,,,,,,,,,,,,,,,,,a,1,"[""0.192"",""0.507"",""0.915"",""0.111""]","[1,1,1,0]",0,55,55,55,1,0,1,,,1,FALSE,1.1513,,,,,,,,,,,,,,,,,,,,,,,,,,,,,,
,5ebea7893af71c2282a450ad,001,2022-04-29_03h05.44.897,classification_task,2021.2.3,Win32,143.8641922,5ebea7893af71c2282a450ad,626b377229c10585ec392f89,626b3a304e7d9da64f0db358,,,,,,,,,,,,,,,,,,,,,,,l,1,"[""0.798"",""0.229"",""0.630"",""0.684""]","[0,1,1,1]",0,56,56,56,1,1,1,,,1,FALSE,1.7679,,,,,,,,,,,,,,,,,,,,,,,,,,,,,,
,5ebea7893af71c2282a450ad,001,2022-04-29_03h05.44.897,classification_task,2021.2.3,Win32,143.8641922,5ebea7893af71c2282a450ad,626b377229c10585ec392f89,626b3a304e7d9da64f0db358,,,,,,,,,,,,,,,,,,,,,,,a,0,"[""0.028"",""0.775"",""0.630"",""0.684""]","[1,0,1,1]",0,57,57,57,1,1,1,,,1,FALSE,1.6655,,,,,,,,,,,,,,,,,,,,,,,,,,,,,,
,5ebea7893af71c2282a450ad,001,2022-04-29_03h05.44.897,classification_task,2021.2.3,Win32,143.8641922,5ebea7893af71c2282a450ad,626b377229c10585ec392f89,626b3a304e7d9da64f0db358,,,,,,,,,,,,,,,,,,,,,,,a,1,"[""0.192"",""0.507"",""0.101"",""0.950""]","[1,1,0,1]",0,58,58,58,1,0,1,,,1,FALSE,1.0536,,,,,,,,,,,,,,,,,,,,,,,,,,,,,,
,5ebea7893af71c2282a450ad,001,2022-04-29_03h05.44.897,classification_task,2021.2.3,Win32,143.8641922,5ebea7893af71c2282a450ad,626b377229c10585ec392f89,626b3a304e7d9da64f0db358,,,,,,,,,,,,,,,,,,,,,,,l,1,"[""0.028"",""0.229"",""0.118"",""0.684""]","[1,1,0,1]",0,59,59,59,1,1,1,,,1,FALSE,0.4551,,,,,,,,,,,,,,,,,,,,,,,,,,,,,,
,5ebea7893af71c2282a450ad,001,2022-04-29_03h05.44.897,classification_task,2021.2.3,Win32,143.8641922,5ebea7893af71c2282a450ad,626b377229c10585ec392f89,626b3a304e7d9da64f0db358,,,,,,,,,,,,,,,,,,,,,,,a,1,"[""0.192"",""0.120"",""0.915"",""0.950""]","[1,0,1,1]",0,60,60,60,1,0,1,,,1,FALSE,1.2534,,,,,,,,,,,,,,,,,,,,,,,,,,,,,,
,5ebea7893af71c2282a450ad,001,2022-04-29_03h05.44.897,classification_task,2021.2.3,Win32,143.8641922,5ebea7893af71c2282a450ad,626b377229c10585ec392f89,626b3a304e7d9da64f0db358,,,,,,,,,,,,,,,,,,,,,,,l,1,"[""0.028"",""0.229"",""0.630"",""0.569""]","[1,1,1,0]",0,61,61,61,1,1,1,,,1,FALSE,0.3566,,,,,,,,,,,,,,,,,,,,,,,,,,,,,,
,5ebea7893af71c2282a450ad,001,2022-04-29_03h05.44.897,classification_task,2021.2.3,Win32,143.8641922,5ebea7893af71c2282a450ad,626b377229c10585ec392f89,626b3a304e7d9da64f0db358,,,,,,,,,,,,,,,,,,,,,,,a,1,"[""0.269"",""0.102"",""0.836"",""0.879""]","[1,0,1,1]",0,62,62,62,1,0,0,,,1,FALSE,0.3016,,,,,,,,,,,,,,,,,,,,,,,,,,,,,,
,5ebea7893af71c2282a450ad,001,2022-04-29_03h05.44.897,classification_task,2021.2.3,Win32,143.8641922,5ebea7893af71c2282a450ad,626b377229c10585ec392f89,626b3a304e7d9da64f0db358,,,,,,,,,,,,,,,,,,,,,,,l,1,"[""0.155"",""0.798"",""0.439"",""0.738""]","[1,0,1,1]",0,63,63,63,1,1,0,,,1,FALSE,0.3009,,,,,,,,,,,,,,,,,,,,,,,,,,,,,,
,5ebea7893af71c2282a450ad,001,2022-04-29_03h05.44.897,classification_task,2021.2.3,Win32,143.8641922,5ebea7893af71c2282a450ad,626b377229c10585ec392f89,626b3a304e7d9da64f0db358,,,,,,,,,,,,,,,,,,,,,,,,,,,,,,,,,,,,,,,0, ,,0,7.963942779,397.6157,0,0,0,0,1,2,1,,,,,,,,,,,,,,,,,
,5ebea7893af71c2282a450ad,001,2022-04-29_03h05.44.897,classification_task,2021.2.3,Win32,143.8641922,5ebea7893af71c2282a450ad,626b377229c10585ec392f89,626b3a304e7d9da64f0db358,,,,,,,,,,,,,,,,,,,,,,,,,,,,,,,,,,,,,,,1,  ,,0,5.367430923,393.7729,0,0,0,0,1,2,1,,,,,,,,,,,,,,,,,
,5ebea7893af71c2282a450ad,001,2022-04-29_03h05.44.897,classification_task,2021.2.3,Win32,143.8641922,5ebea7893af71c2282a450ad,626b377229c10585ec392f89,626b3a304e7d9da64f0db358,,,,,,,,,,,,,,,,,,,,,,,,,,,,,,,,,,,,,,,2,  ,,0,3.432294729,401.3442,0,0,0,0,1,2,1,,,,,,,,,,,,,,,,,
,5ebea7893af71c2282a450ad,001,2022-04-29_03h05.44.897,classification_task,2021.2.3,Win32,143.8641922,5ebea7893af71c2282a450ad,626b377229c10585ec392f89,626b3a304e7d9da64f0db358,,,,,,,,,,,,,,,,,,,,,,,,,,,,,,,,,,,,,,,,,,,,,0,0,0,0,1,,1,,,,,,,,,,,,,,,,,
,5ebea7893af71c2282a450ad,001,2022-04-29_03h05.44.897,classification_task,2021.2.3,Win32,143.8641922,5ebea7893af71c2282a450ad,626b377229c10585ec392f89,626b3a304e7d9da64f0db358,,,,,,,,,,,,,,,,,,,,,space,9.0615,l,1,"[""0.028"",""0.229"",""0.630"",""0.111""]","[1,1,1,0]",0,0,0,0,1,1,1,,,1,FALSE,3.8834,,,,,,,,,,,,,,,,,,,,,,,,,,,,,,
,5ebea7893af71c2282a450ad,001,2022-04-29_03h05.44.897,classification_task,2021.2.3,Win32,143.8641922,5ebea7893af71c2282a450ad,626b377229c10585ec392f89,626b3a304e7d9da64f0db358,,,,,,,,,,,,,,,,,,,,,,,l,0,"[""0.269"",""0.102"",""0.836"",""0.879""]","[1,0,1,1]",0,1,1,1,1,0,0,,,1,FALSE,5.1072,,,,,,,,,,,,,,,,,,,,,,,,,,,,,,
,5ebea7893af71c2282a450ad,001,2022-04-29_03h05.44.897,classification_task,2021.2.3,Win32,143.8641922,5ebea7893af71c2282a450ad,626b377229c10585ec392f89,626b3a304e7d9da64f0db358,,,,,,,,,,,,,,,,,,,,,,,l,1,"[""0.155"",""0.309"",""0.439"",""0.790""]","[1,1,1,0]",0,2,2,2,1,1,0,,,1,FALSE,1.5055,,,,,,,,,,,,,,,,,,,,,,,,,,,,,,
,5ebea7893af71c2282a450ad,001,2022-04-29_03h05.44.897,classification_task,2021.2.3,Win32,143.8641922,5ebea7893af71c2282a450ad,626b377229c10585ec392f89,626b3a304e7d9da64f0db358,,,,,,,,,,,,,,,,,,,,,,,a,1,"[""0.569"",""0.363"",""0.836"",""0.879""]","[0,1,1,1]",0,3,3,3,1,0,0,,,1,FALSE,1.3737,,,,,,,,,,,,,,,,,,,,,,,,,,,,,,
,5ebea7893af71c2282a450ad,001,2022-04-29_03h05.44.897,classification_task,2021.2.3,Win32,143.8641922,5ebea7893af71c2282a450ad,626b377229c10585ec392f89,626b3a304e7d9da64f0db358,,,,,,,,,,,,,,,,,,,,,,,l,1,"[""0.155"",""0.579"",""0.439"",""0.738""]","[1,0,1,1]",0,4,4,4,1,1,0,,,1,FALSE,0.4168,,,,,,,,,,,,,,,,,,,,,,,,,,,,,,
,5ebea7893af71c2282a450ad,001,2022-04-29_03h05.44.897,classification_task,2021.2.3,Win32,143.8641922,5ebea7893af71c2282a450ad,626b377229c10585ec392f89,626b3a304e7d9da64f0db358,,,,,,,,,,,,,,,,,,,,,,,a,0,"[""0.790"",""0.229"",""0.630"",""0.684""]","[0,1,1,1]",0,5,5,5,1,1,1,,,1,FALSE,0.3181,,,,,,,,,,,,,,,,,,,,,,,,,,,,,,
,5ebea7893af71c2282a450ad,001,2022-04-29_03h05.44.897,classification_task,2021.2.3,Win32,143.8641922,5ebea7893af71c2282a450ad,626b377229c10585ec392f89,626b3a304e7d9da64f0db358,,,,,,,,,,,,,,,,,,,,,,,l,1,"[""0.120"",""0.309"",""0.439"",""0.738""]","[0,1,1,1]",0,6,6,6,1,1,0,,,1,FALSE,0.99,,,,,,,,,,,,,,,,,,,,,,,,,,,,,,
,5ebea7893af71c2282a450ad,001,2022-04-29_03h05.44.897,classification_task,2021.2.3,Win32,143.8641922,5ebea7893af71c2282a450ad,626b377229c10585ec392f89,626b3a304e7d9da64f0db358,,,,,,,,,,,,,,,,,,,,,,,a,1,"[""0.269"",""0.363"",""0.101"",""0.879""]","[1,1,0,1]",0,7,7,7,1,0,0,,,1,FALSE,0.8682,,,,,,,,,,,,,,,,,,,,,,,,,,,,,,
,5ebea7893af71c2282a450ad,001,2022-04-29_03h05.44.897,classification_task,2021.2.3,Win32,143.8641922,5ebea7893af71c2282a450ad,626b377229c10585ec392f89,626b3a304e7d9da64f0db358,,,,,,,,,,,,,,,,,,,,,,,l,1,"[""0.155"",""0.309"",""0.120"",""0.738""]","[1,1,0,1]",0,8,8,8,1,1,0,,,1,FALSE,0.7144,,,,,,,,,,,,,,,,,,,,,,,,,,,,,,
,5ebea7893af71c2282a450ad,001,2022-04-29_03h05.44.897,classification_task,2021.2.3,Win32,143.8641922,5ebea7893af71c2282a450ad,626b377229c10585ec392f89,626b3a304e7d9da64f0db358,,,,,,,,,,,,,,,,,,,,,,,a,1,"[""0.269"",""0.363"",""0.836"",""0.102""]","[1,1,1,0]",0,9,9,9,1,0,0,,,1,FALSE,0.6719,,,,,,,,,,,,,,,,,,,,,,,,,,,,,,
,5ebea7893af71c2282a450ad,001,2022-04-29_03h05.44.897,classification_task,2021.2.3,Win32,143.8641922,5ebea7893af71c2282a450ad,626b377229c10585ec392f89,626b3a304e7d9da64f0db358,,,,,,,,,,,,,,,,,,,,,,,l,1,"[""0.028"",""0.229"",""0.102"",""0.684""]","[1,1,0,1]",0,10,10,10,1,1,1,,,1,FALSE,1.6272,,,,,,,,,,,,,,,,,,,,,,,,,,,,,,
,5ebea7893af71c2282a450ad,001,2022-04-29_03h05.44.897,classification_task,2021.2.3,Win32,143.8641922,5ebea7893af71c2282a450ad,626b377229c10585ec392f89,626b3a304e7d9da64f0db358,,,,,,,,,,,,,,,,,,,,,,,a,1,"[""0.102"",""0.507"",""0.915"",""0.950""]","[0,1,1,1]",0,11,11,11,1,0,1,,,1,FALSE,0.3592,,,,,,,,,,,,,,,,,,,,,,,,,,,,,,
,5ebea7893af71c2282a450ad,001,2022-04-29_03h05.44.897,classification_task,2021.2.3,Win32,143.8641922,5ebea7893af71c2282a450ad,626b377229c10585ec392f89,626b3a304e7d9da64f0db358,,,,,,,,,,,,,,,,,,,,,,,l,0,"[""0.192"",""0.507"",""0.915"",""0.579""]","[1,1,1,0]",0,12,12,12,1,0,1,,,1,FALSE,0.3179,,,,,,,,,,,,,,,,,,,,,,,,,,,,,,
,5ebea7893af71c2282a450ad,001,2022-04-29_03h05.44.897,classification_task,2021.2.3,Win32,143.8641922,5ebea7893af71c2282a450ad,626b377229c10585ec392f89,626b3a304e7d9da64f0db358,,,,,,,,,,,,,,,,,,,,,,,l,1,"[""0.028"",""0.775"",""0.630"",""0.684""]","[1,0,1,1]",0,13,13,13,1,1,1,,,1,FALSE,0.6295,,,,,,,,,,,,,,,,,,,,,,,,,,,,,,
,5ebea7893af71c2282a450ad,001,2022-04-29_03h05.44.897,classification_task,2021.2.3,Win32,143.8641922,5ebea7893af71c2282a450ad,626b377229c10585ec392f89,626b3a304e7d9da64f0db358,,,,,,,,,,,,,,,,,,,,,,,a,1,"[""0.192"",""0.797"",""0.915"",""0.950""]","[1,0,1,1]",0,14,14,14,1,0,1,,,1,FALSE,3.2847,,,,,,,,,,,,,,,,,,,,,,,,,,,,,,
,5ebea7893af71c2282a450ad,001,2022-04-29_03h05.44.897,classification_task,2021.2.3,Win32,143.8641922,5ebea7893af71c2282a450ad,626b377229c10585ec392f89,626b3a304e7d9da64f0db358,,,,,,,,,,,,,,,,,,,,,,,a,1,"[""0.192"",""0.507"",""0.798"",""0.950""]","[1,1,0,1]",0,15,15,15,1,0,1,,,1,FALSE,0.5226,,,,,,,,,,,,,,,,,,,,,,,,,,,,,,
,5ebea7893af71c2282a450ad,001,2022-04-29_03h05.44.897,classification_task,2021.2.3,Win32,143.8641922,5ebea7893af71c2282a450ad,626b377229c10585ec392f89,626b3a304e7d9da64f0db358,,,,,,,,,,,,,,,,,,,,,,,l,1,"[""0.028"",""0.229"",""0.111"",""0.684""]","[1,1,0,1]",0,16,16,16,1,1,1,,,1,FALSE,0.6277,,,,,,,,,,,,,,,,,,,,,,,,,,,,,,
,5ebea7893af71c2282a450ad,001,2022-04-29_03h05.44.897,classification_task,2021.2.3,Win32,143.8641922,5ebea7893af71c2282a450ad,626b377229c10585ec392f89,626b3a304e7d9da64f0db358,,,,,,,,,,,,,,,,,,,,,,,a,0,"[""0.155"",""0.790"",""0.439"",""0.738""]","[1,0,1,1]",0,17,17,17,1,1,0,,,1,FALSE,1.2489,,,,,,,,,,,,,,,,,,,,,,,,,,,,,,
,5ebea7893af71c2282a450ad,001,2022-04-29_03h05.44.897,classification_task,2021.2.3,Win32,143.8641922,5ebea7893af71c2282a450ad,626b377229c10585ec392f89,626b3a304e7d9da64f0db358,,,,,,,,,,,,,,,,,,,,,,,l,1,"[""0.569"",""0.309"",""0.439"",""0.738""]","[0,1,1,1]",0,18,18,18,1,1,0,,,1,FALSE,0.8304,,,,,,,,,,,,,,,,,,,,,,,,,,,,,,
,5ebea7893af71c2282a450ad,001,2022-04-29_03h05.44.897,classification_task,2021.2.3,Win32,143.8641922,5ebea7893af71c2282a450ad,626b377229c10585ec392f89,626b3a304e7d9da64f0db358,,,,,,,,,,,,,,,,,,,,,,,a,1,"[""0.192"",""0.507"",""0.118"",""0.950""]","[1,1,0,1]",0,19,19,19,1,0,1,,,1,FALSE,1.7251,,,,,,,,,,,,,,,,,,,,,,,,,,,,,,
,5ebea7893af71c2282a450ad,001,2022-04-29_03h05.44.897,classification_task,2021.2.3,Win32,143.8641922,5ebea7893af71c2282a450ad,626b377229c10585ec392f89,626b3a304e7d9da64f0db358,,,,,,,,,,,,,,,,,,,,,,,a,1,"[""0.269"",""0.363"",""0.101"",""0.879""]","[1,1,0,1]",0,20,20,20,1,0,0,,,1,FALSE,0.8884,,,,,,,,,,,,,,,,,,,,,,,,,,,,,,
,5ebea7893af71c2282a450ad,001,2022-04-29_03h05.44.897,classification_task,2021.2.3,Win32,143.8641922,5ebea7893af71c2282a450ad,626b377229c10585ec392f89,626b3a304e7d9da64f0db358,,,,,,,,,,,,,,,,,,,,,,,l,1,"[""0.028"",""0.229"",""0.630"",""0.798""]","[1,1,1,0]",0,21,21,21,1,1,1,,,1,FALSE,0.6347,,,,,,,,,,,,,,,,,,,,,,,,,,,,,,
,5ebea7893af71c2282a450ad,001,2022-04-29_03h05.44.897,classification_task,2021.2.3,Win32,143.8641922,5ebea7893af71c2282a450ad,626b377229c10585ec392f89,626b3a304e7d9da64f0db358,,,,,,,,,,,,,,,,,,,,,,,l,0,"[""0.192"",""0.099"",""0.915"",""0.950""]","[1,0,1,1]",0,22,22,22,1,0,1,,,1,FALSE,0.8298,,,,,,,,,,,,,,,,,,,,,,,,,,,,,,
,5ebea7893af71c2282a450ad,001,2022-04-29_03h05.44.897,classification_task,2021.2.3,Win32,143.8641922,5ebea7893af71c2282a450ad,626b377229c10585ec392f89,626b3a304e7d9da64f0db358,,,,,,,,,,,,,,,,,,,,,,,a,1,"[""0.269"",""0.363"",""0.836"",""0.102""]","[1,1,1,0]",0,23,23,23,1,0,0,,,1,FALSE,1.1011,,,,,,,,,,,,,,,,,,,,,,,,,,,,,,
,5ebea7893af71c2282a450ad,001,2022-04-29_03h05.44.897,classification_task,2021.2.3,Win32,143.8641922,5ebea7893af71c2282a450ad,626b377229c10585ec392f89,626b3a304e7d9da64f0db358,,,,,,,,,,,,,,,,,,,,,,,l,0,"[""0.269"",""0.118"",""0.836"",""0.879""]","[1,0,1,1]",0,24,24,24,1,0,0,,,1,FALSE,1.0952,,,,,,,,,,,,,,,,,,,,,,,,,,,,,,
,5ebea7893af71c2282a450ad,001,2022-04-29_03h05.44.897,classification_task,2021.2.3,Win32,143.8641922,5ebea7893af71c2282a450ad,626b377229c10585ec392f89,626b3a304e7d9da64f0db358,,,,,,,,,,,,,,,,,,,,,,,l,1,"[""0.155"",""0.309"",""0.797"",""0.738""]","[1,1,0,1]",0,25,25,25,1,1,0,,,1,FALSE,0.9811,,,,,,,,,,,,,,,,,,,,,,,,,,,,,,
,5ebea7893af71c2282a450ad,001,2022-04-29_03h05.44.897,classification_task,2021.2.3,Win32,143.8641922,5ebea7893af71c2282a450ad,626b377229c10585ec392f89,626b3a304e7d9da64f0db358,,,,,,,,,,,,,,,,,,,,,,,l,1,"[""0.118"",""0.229"",""0.630"",""0.684""]","[0,1,1,1]",0,26,26,26,1,1,1,,,1,FALSE,0.8361,,,,,,,,,,,,,,,,,,,,,,,,,,,,,,
,5ebea7893af71c2282a450ad,001,2022-04-29_03h05.44.897,classification_task,2021.2.3,Win32,143.8641922,5ebea7893af71c2282a450ad,626b377229c10585ec392f89,626b3a304e7d9da64f0db358,,,,,,,,,,,,,,,,,,,,,,,a,1,"[""0.798"",""0.507"",""0.915"",""0.950""]","[0,1,1,1]",0,27,27,27,1,0,1,,,1,FALSE,0.6246,,,,,,,,,,,,,,,,,,,,,,,,,,,,,,
,5ebea7893af71c2282a450ad,001,2022-04-29_03h05.44.897,classification_task,2021.2.3,Win32,143.8641922,5ebea7893af71c2282a450ad,626b377229c10585ec392f89,626b3a304e7d9da64f0db358,,,,,,,,,,,,,,,,,,,,,,,a,0,"[""0.155"",""0.309"",""0.439"",""0.120""]","[1,1,1,0]",0,28,28,28,1,1,0,,,1,FALSE,0.8311,,,,,,,,,,,,,,,,,,,,,,,,,,,,,,
,5ebea7893af71c2282a450ad,001,2022-04-29_03h05.44.897,classification_task,2021.2.3,Win32,143.8641922,5ebea7893af71c2282a450ad,626b377229c10585ec392f89,626b3a304e7d9da64f0db358,,,,,,,,,,,,,,,,,,,,,,,l,1,"[""0.028"",""0.118"",""0.630"",""0.684""]","[1,0,1,1]",0,29,29,29,1,1,1,,,1,FALSE,1.1545,,,,,,,,,,,,,,,,,,,,,,,,,,,,,,
,5ebea7893af71c2282a450ad,001,2022-04-29_03h05.44.897,classification_task,2021.2.3,Win32,143.8641922,5ebea7893af71c2282a450ad,626b377229c10585ec392f89,626b3a304e7d9da64f0db358,,,,,,,,,,,,,,,,,,,,,,,a,1,"[""0.775"",""0.363"",""0.836"",""0.879""]","[0,1,1,1]",0,30,30,30,1,0,0,,,1,FALSE,0.5739,,,,,,,,,,,,,,,,,,,,,,,,,,,,,,
,5ebea7893af71c2282a450ad,001,2022-04-29_03h05.44.897,classification_task,2021.2.3,Win32,143.8641922,5ebea7893af71c2282a450ad,626b377229c10585ec392f89,626b3a304e7d9da64f0db358,,,,,,,,,,,,,,,,,,,,,,,a,1,"[""0.192"",""0.507"",""0.915"",""0.569""]","[1,1,1,0]",0,31,31,31,1,0,1,,,1,FALSE,1.5607,,,,,,,,,,,,,,,,,,,,,,,,,,,,,,
,5ebea7893af71c2282a450ad,001,2022-04-29_03h05.44.897,classification_task,2021.2.3,Win32,143.8641922,5ebea7893af71c2282a450ad,626b377229c10585ec392f89,626b3a304e7d9da64f0db358,,,,,,,,,,,,,,,,,,,,,,,l,0,"[""0.192"",""0.507"",""0.798"",""0.950""]","[1,1,0,1]",0,32,32,32,1,0,1,,,1,FALSE,0.7341,,,,,,,,,,,,,,,,,,,,,,,,,,,,,,
,5ebea7893af71c2282a450ad,001,2022-04-29_03h05.44.897,classification_task,2021.2.3,Win32,143.8641922,5ebea7893af71c2282a450ad,626b377229c10585ec392f89,626b3a304e7d9da64f0db358,,,,,,,,,,,,,,,,,,,,,,,l,1,"[""0.775"",""0.229"",""0.630"",""0.684""]","[0,1,1,1]",0,33,33,33,1,1,1,,,1,FALSE,2.0844,,,,,,,,,,,,,,,,,,,,,,,,,,,,,,
,5ebea7893af71c2282a450ad,001,2022-04-29_03h05.44.897,classification_task,2021.2.3,Win32,143.8641922,5ebea7893af71c2282a450ad,626b377229c10585ec392f89,626b3a304e7d9da64f0db358,,,,,,,,,,,,,,,,,,,,,,,a,1,"[""0.269"",""0.775"",""0.836"",""0.879""]","[1,0,1,1]",0,34,34,34,1,0,0,,,1,FALSE,0.9754,,,,,,,,,,,,,,,,,,,,,,,,,,,,,,
,5ebea7893af71c2282a450ad,001,2022-04-29_03h05.44.897,classification_task,2021.2.3,Win32,143.8641922,5ebea7893af71c2282a450ad,626b377229c10585ec392f89,626b3a304e7d9da64f0db358,,,,,,,,,,,,,,,,,,,,,,,l,1,"[""0.028"",""0.569"",""0.630"",""0.684""]","[1,0,1,1]",0,35,35,35,1,1,1,,,1,FALSE,1.039,,,,,,,,,,,,,,,,,,,,,,,,,,,,,,
,5ebea7893af71c2282a450ad,001,2022-04-29_03h05.44.897,classification_task,2021.2.3,Win32,143.8641922,5ebea7893af71c2282a450ad,626b377229c10585ec392f89,626b3a304e7d9da64f0db358,,,,,,,,,,,,,,,,,,,,,,,l,0,"[""0.192"",""0.507"",""0.915"",""0.111""]","[1,1,1,0]",0,36,36,36,1,0,1,,,1,FALSE,0.6763,,,,,,,,,,,,,,,,,,,,,,,,,,,,,,
,5ebea7893af71c2282a450ad,001,2022-04-29_03h05.44.897,classification_task,2021.2.3,Win32,143.8641922,5ebea7893af71c2282a450ad,626b377229c10585ec392f89,626b3a304e7d9da64f0db358,,,,,,,,,,,,,,,,,,,,,,,a,0,"[""0.472"",""0.309"",""0.439"",""0.738""]","[0,1,1,1]",0,37,37,37,1,1,0,,,1,FALSE,1.6077,,,,,,,,,,,,,,,,,,,,,,,,,,,,,,
,5ebea7893af71c2282a450ad,001,2022-04-29_03h05.44.897,classification_task,2021.2.3,Win32,143.8641922,5ebea7893af71c2282a450ad,626b377229c10585ec392f89,626b3a304e7d9da64f0db358,,,,,,,,,,,,,,,,,,,,,,,a,0,"[""0.155"",""0.309"",""0.439"",""0.775""]","[1,1,1,0]",0,38,38,38,1,1,0,,,1,FALSE,0.6637,,,,,,,,,,,,,,,,,,,,,,,,,,,,,,
,5ebea7893af71c2282a450ad,001,2022-04-29_03h05.44.897,classification_task,2021.2.3,Win32,143.8641922,5ebea7893af71c2282a450ad,626b377229c10585ec392f89,626b3a304e7d9da64f0db358,,,,,,,,,,,,,,,,,,,,,,,l,1,"[""0.028"",""0.229"",""0.797"",""0.684""]","[1,1,0,1]",0,39,39,39,1,1,1,,,1,FALSE,0.8421,,,,,,,,,,,,,,,,,,,,,,,,,,,,,,
,5ebea7893af71c2282a450ad,001,2022-04-29_03h05.44.897,classification_task,2021.2.3,Win32,143.8641922,5ebea7893af71c2282a450ad,626b377229c10585ec392f89,626b3a304e7d9da64f0db358,,,,,,,,,,,,,,,,,,,,,,,a,0,"[""0.155"",""0.596"",""0.439"",""0.738""]","[1,0,1,1]",0,40,40,40,1,1,0,,,1,FALSE,0.9222,,,,,,,,,,,,,,,,,,,,,,,,,,,,,,
,5ebea7893af71c2282a450ad,001,2022-04-29_03h05.44.897,classification_task,2021.2.3,Win32,143.8641922,5ebea7893af71c2282a450ad,626b377229c10585ec392f89,626b3a304e7d9da64f0db358,,,,,,,,,,,,,,,,,,,,,,,a,1,"[""0.102"",""0.363"",""0.836"",""0.879""]","[0,1,1,1]",0,41,41,41,1,0,0,,,1,FALSE,0.579,,,,,,,,,,,,,,,,,,,,,,,,,,,,,,
,5ebea7893af71c2282a450ad,001,2022-04-29_03h05.44.897,classification_task,2021.2.3,Win32,143.8641922,5ebea7893af71c2282a450ad,626b377229c10585ec392f89,626b3a304e7d9da64f0db358,,,,,,,,,,,,,,,,,,,,,,,l,0,"[""0.269"",""0.363"",""0.836"",""0.790""]","[1,1,1,0]",0,42,42,42,1,0,0,,,1,FALSE,1.0335,,,,,,,,,,,,,,,,,,,,,,,,,,,,,,
,5ebea7893af71c2282a450ad,001,2022-04-29_03h05.44.897,classification_task,2021.2.3,Win32,143.8641922,5ebea7893af71c2282a450ad,626b377229c10585ec392f89,626b3a304e7d9da64f0db358,,,,,,,,,,,,,,,,,,,,,,,l,1,"[""0.155"",""0.309"",""0.111"",""0.738""]","[1,1,0,1]",0,43,43,43,1,1,0,,,1,FALSE,1.0871,,,,,,,,,,,,,,,,,,,,,,,,,,,,,,
,5ebea7893af71c2282a450ad,001,2022-04-29_03h05.44.897,classification_task,2021.2.3,Win32,143.8641922,5ebea7893af71c2282a450ad,626b377229c10585ec392f89,626b3a304e7d9da64f0db358,,,,,,,,,,,,,,,,,,,,,,,a,1,"[""0.269"",""0.363"",""0.101"",""0.879""]","[1,1,0,1]",0,44,44,44,1,0,0,,,1,FALSE,0.8822,,,,,,,,,,,,,,,,,,,,,,,,,,,,,,
,5ebea7893af71c2282a450ad,001,2022-04-29_03h05.44.897,classification_task,2021.2.3,Win32,143.8641922,5ebea7893af71c2282a450ad,626b377229c10585ec392f89,626b3a304e7d9da64f0db358,,,,,,,,,,,,,,,,,,,,,,,a,1,"[""0.099"",""0.507"",""0.915"",""0.950""]","[0,1,1,1]",0,45,45,45,1,0,1,,,1,FALSE,1.1946,,,,,,,,,,,,,,,,,,,,,,,,,,,,,,
,5ebea7893af71c2282a450ad,001,2022-04-29_03h05.44.897,classification_task,2021.2.3,Win32,143.8641922,5ebea7893af71c2282a450ad,626b377229c10585ec392f89,626b3a304e7d9da64f0db358,,,,,,,,,,,,,,,,,,,,,,,l,1,"[""0.028"",""0.229"",""0.630"",""0.775""]","[1,1,1,0]",0,46,46,46,1,1,1,,,1,FALSE,0.7325,,,,,,,,,,,,,,,,,,,,,,,,,,,,,,
,5ebea7893af71c2282a450ad,001,2022-04-29_03h05.44.897,classification_task,2021.2.3,Win32,143.8641922,5ebea7893af71c2282a450ad,626b377229c10585ec392f89,626b3a304e7d9da64f0db358,,,,,,,,,,,,,,,,,,,,,,,a,1,"[""0.192"",""0.111"",""0.915"",""0.950""]","[1,0,1,1]",0,47,47,47,1,0,1,,,1,FALSE,1.1203,,,,,,,,,,,,,,,,,,,,,,,,,,,,,,
,5ebea7893af71c2282a450ad,001,2022-04-29_03h05.44.897,classification_task,2021.2.3,Win32,143.8641922,5ebea7893af71c2282a450ad,626b377229c10585ec392f89,626b3a304e7d9da64f0db358,,,,,,,,,,,,,,,,,,,,,,,l,1,"[""0.155"",""0.309"",""0.439"",""0.472""]","[1,1,1,0]",0,48,48,48,1,1,0,,,1,FALSE,0.7625,,,,,,,,,,,,,,,,,,,,,,,,,,,,,,
,5ebea7893af71c2282a450ad,001,2022-04-29_03h05.44.897,classification_task,2021.2.3,Win32,143.8641922,5ebea7893af71c2282a450ad,626b377229c10585ec392f89,626b3a304e7d9da64f0db358,,,,,,,,,,,,,,,,,,,,,,,a,1,"[""0.269"",""0.363"",""0.083"",""0.879""]","[1,1,0,1]",0,49,49,49,1,0,0,,,1,FALSE,1.038,,,,,,,,,,,,,,,,,,,,,,,,,,,,,,
,5ebea7893af71c2282a450ad,001,2022-04-29_03h05.44.897,classification_task,2021.2.3,Win32,143.8641922,5ebea7893af71c2282a450ad,626b377229c10585ec392f89,626b3a304e7d9da64f0db358,,,,,,,,,,,,,,,,,,,,,,,l,1,"[""0.155"",""0.309"",""0.579"",""0.738""]","[1,1,0,1]",0,50,50,50,1,1,0,,,1,FALSE,0.5267,,,,,,,,,,,,,,,,,,,,,,,,,,,,,,
,5ebea7893af71c2282a450ad,001,2022-04-29_03h05.44.897,classification_task,2021.2.3,Win32,143.8641922,5ebea7893af71c2282a450ad,626b377229c10585ec392f89,626b3a304e7d9da64f0db358,,,,,,,,,,,,,,,,,,,,,,,a,0,"[""0.028"",""0.229"",""0.630"",""0.111""]","[1,1,1,0]",0,51,51,51,1,1,1,,,1,FALSE,0.8282,,,,,,,,,,,,,,,,,,,,,,,,,,,,,,
,5ebea7893af71c2282a450ad,001,2022-04-29_03h05.44.897,classification_task,2021.2.3,Win32,143.8641922,5ebea7893af71c2282a450ad,626b377229c10585ec392f89,626b3a304e7d9da64f0db358,,,,,,,,,,,,,,,,,,,,,,,a,1,"[""0.269"",""0.363"",""0.836"",""0.797""]","[1,1,1,0]",0,52,52,52,1,0,0,,,1,FALSE,1.1411,,,,,,,,,,,,,,,,,,,,,,,,,,,,,,
,5ebea7893af71c2282a450ad,001,2022-04-29_03h05.44.897,classification_task,2021.2.3,Win32,143.8641922,5ebea7893af71c2282a450ad,626b377229c10585ec392f89,626b3a304e7d9da64f0db358,,,,,,,,,,,,,,,,,,,,,,,l,0,"[""0.269"",""0.596"",""0.836"",""0.879""]","[1,0,1,1]",0,53,53,53,1,0,0,,,1,FALSE,0.7259,,,,,,,,,,,,,,,,,,,,,,,,,,,,,,
,5ebea7893af71c2282a450ad,001,2022-04-29_03h05.44.897,classification_task,2021.2.3,Win32,143.8641922,5ebea7893af71c2282a450ad,626b377229c10585ec392f89,626b3a304e7d9da64f0db358,,,,,,,,,,,,,,,,,,,,,,,l,0,"[""0.101"",""0.363"",""0.836"",""0.879""]","[0,1,1,1]",0,54,54,54,1,0,0,,,1,FALSE,0.5646,,,,,,,,,,,,,,,,,,,,,,,,,,,,,,
,5ebea7893af71c2282a450ad,001,2022-04-29_03h05.44.897,classification_task,2021.2.3,Win32,143.8641922,5ebea7893af71c2282a450ad,626b377229c10585ec392f89,626b3a304e7d9da64f0db358,,,,,,,,,,,,,,,,,,,,,,,a,0,"[""0.797"",""0.229"",""0.630"",""0.684""]","[0,1,1,1]",0,55,55,55,1,1,1,,,1,FALSE,0.7761,,,,,,,,,,,,,,,,,,,,,,,,,,,,,,
,5ebea7893af71c2282a450ad,001,2022-04-29_03h05.44.897,classification_task,2021.2.3,Win32,143.8641922,5ebea7893af71c2282a450ad,626b377229c10585ec392f89,626b3a304e7d9da64f0db358,,,,,,,,,,,,,,,,,,,,,,,a,1,"[""0.192"",""0.472"",""0.915"",""0.950""]","[1,0,1,1]",0,56,56,56,1,0,1,,,1,FALSE,1.0403,,,,,,,,,,,,,,,,,,,,,,,,,,,,,,
,5ebea7893af71c2282a450ad,001,2022-04-29_03h05.44.897,classification_task,2021.2.3,Win32,143.8641922,5ebea7893af71c2282a450ad,626b377229c10585ec392f89,626b3a304e7d9da64f0db358,,,,,,,,,,,,,,,,,,,,,,,l,1,"[""0.028"",""0.229"",""0.101"",""0.684""]","[1,1,0,1]",0,57,57,57,1,1,1,,,1,FALSE,1.4529,,,,,,,,,,,,,,,,,,,,,,,,,,,,,,
,5ebea7893af71c2282a450ad,001,2022-04-29_03h05.44.897,classification_task,2021.2.3,Win32,143.8641922,5ebea7893af71c2282a450ad,626b377229c10585ec392f89,626b3a304e7d9da64f0db358,,,,,,,,,,,,,,,,,,,,,,,l,1,"[""0.028"",""0.083"",""0.630"",""0.684""]","[1,0,1,1]",0,58,58,58,1,1,1,,,1,FALSE,1.0955,,,,,,,,,,,,,,,,,,,,,,,,,,,,,,
,5ebea7893af71c2282a450ad,001,2022-04-29_03h05.44.897,classification_task,2021.2.3,Win32,143.8641922,5ebea7893af71c2282a450ad,626b377229c10585ec392f89,626b3a304e7d9da64f0db358,,,,,,,,,,,,,,,,,,,,,,,a,1,"[""0.192"",""0.507"",""0.915"",""0.083""]","[1,1,1,0]",0,59,59,59,1,0,1,,,1,FALSE,1.8194,,,,,,,,,,,,,,,,,,,,,,,,,,,,,,
,5ebea7893af71c2282a450ad,001,2022-04-29_03h05.44.897,classification_task,2021.2.3,Win32,143.8641922,5ebea7893af71c2282a450ad,626b377229c10585ec392f89,626b3a304e7d9da64f0db358,,,,,,,,,,,,,,,,,,,,,,,a,0,"[""0.083"",""0.309"",""0.439"",""0.738""]","[0,1,1,1]",0,60,60,60,1,1,0,,,1,FALSE,1.1021,,,,,,,,,,,,,,,,,,,,,,,,,,,,,,
,5ebea7893af71c2282a450ad,001,2022-04-29_03h05.44.897,classification_task,2021.2.3,Win32,143.8641922,5ebea7893af71c2282a450ad,626b377229c10585ec392f89,626b3a304e7d9da64f0db358,,,,,,,,,,,,,,,,,,,,,,,a,1,"[""0.472"",""0.507"",""0.915"",""0.950""]","[0,1,1,1]",0,61,61,61,1,0,1,,,1,FALSE,3.1211,,,,,,,,,,,,,,,,,,,,,,,,,,,,,,
,5ebea7893af71c2282a450ad,001,2022-04-29_03h05.44.897,classification_task,2021.2.3,Win32,143.8641922,5ebea7893af71c2282a450ad,626b377229c10585ec392f89,626b3a304e7d9da64f0db358,,,,,,,,,,,,,,,,,,,,,,,a,1,"[""0.192"",""0.507"",""0.775"",""0.950""]","[1,1,0,1]",0,62,62,62,1,0,1,,,1,FALSE,1.4091,,,,,,,,,,,,,,,,,,,,,,,,,,,,,,
,5ebea7893af71c2282a450ad,001,2022-04-29_03h05.44.897,classification_task,2021.2.3,Win32,143.8641922,5ebea7893af71c2282a450ad,626b377229c10585ec392f89,626b3a304e7d9da64f0db358,,,,,,,,,,,,,,,,,,,,,,,l,1,"[""0.155"",""0.569"",""0.439"",""0.738""]","[1,0,1,1]",0,63,63,63,1,1,0,,,1,FALSE,3.0119,,,,,,,,,,,,,,,,,,,,,,,,,,,,,,
,5ebea7893af71c2282a450ad,001,2022-04-29_03h05.44.897,classification_task,2021.2.3,Win32,143.8641922,5ebea7893af71c2282a450ad,626b377229c10585ec392f89,626b3a304e7d9da64f0db358,,,,,,,,,,,,,,,,,,,,,,,,,,,,,,,,,,,,,,,0, ,,0,6.077797374,153.5051,0,1,1,1,1,2,2,,,,,,,,,,,,,,,,,
,5ebea7893af71c2282a450ad,001,2022-04-29_03h05.44.897,classification_task,2021.2.3,Win32,143.8641922,5ebea7893af71c2282a450ad,626b377229c10585ec392f89,626b3a304e7d9da64f0db358,,,,,,,,,,,,,,,,,,,,,,,,,,,,,,,,,,,,,,,1,  ,,0,7.743484225,154.4326,0,1,1,1,1,2,2,,,,,,,,,,,,,,,,,
,5ebea7893af71c2282a450ad,001,2022-04-29_03h05.44.897,classification_task,2021.2.3,Win32,143.8641922,5ebea7893af71c2282a450ad,626b377229c10585ec392f89,626b3a304e7d9da64f0db358,,,,,,,,,,,,,,,,,,,,,,,,,,,,,,,,,,,,,,,2,  ,,0,2.893396042,155.7459,0,1,1,1,1,2,2,,,,,,,,,,,,,,,,,
,5ebea7893af71c2282a450ad,001,2022-04-29_03h05.44.897,classification_task,2021.2.3,Win32,143.8641922,5ebea7893af71c2282a450ad,626b377229c10585ec392f89,626b3a304e7d9da64f0db358,,,,,,,,,,,,,,,,,,,,,,,,,,,,,,,,,,,,,,,,,,,,,0,1,1,1,1,,2,,,,,,,,,,,,,,,,,
,5ebea7893af71c2282a450ad,001,2022-04-29_03h05.44.897,classification_task,2021.2.3,Win32,143.8641922,5ebea7893af71c2282a450ad,626b377229c10585ec392f89,626b3a304e7d9da64f0db358,,,,,,,,,,,,,,,,,,,,,space,5.6041,a,1,"[""0.102"",""0.507"",""0.915"",""0.950""]","[0,1,1,1]",0,0,0,0,1,0,1,,,1,FALSE,2.7317,,,,,,,,,,,,,,,,,,,,,,,,,,,,,,
,5ebea7893af71c2282a450ad,001,2022-04-29_03h05.44.897,classification_task,2021.2.3,Win32,143.8641922,5ebea7893af71c2282a450ad,626b377229c10585ec392f89,626b3a304e7d9da64f0db358,,,,,,,,,,,,,,,,,,,,,,,a,1,"[""0.192"",""0.083"",""0.915"",""0.950""]","[1,0,1,1]",0,1,1,1,1,0,1,,,1,FALSE,7.8987,,,,,,,,,,,,,,,,,,,,,,,,,,,,,,
,5ebea7893af71c2282a450ad,001,2022-04-29_03h05.44.897,classification_task,2021.2.3,Win32,143.8641922,5ebea7893af71c2282a450ad,626b377229c10585ec392f89,626b3a304e7d9da64f0db358,,,,,,,,,,,,,,,,,,,,,,,a,1,"[""0.111"",""0.363"",""0.836"",""0.879""]","[0,1,1,1]",0,2,2,2,1,0,0,,,1,FALSE,1.9508,,,,,,,,,,,,,,,,,,,,,,,,,,,,,,
,5ebea7893af71c2282a450ad,001,2022-04-29_03h05.44.897,classification_task,2021.2.3,Win32,143.8641922,5ebea7893af71c2282a450ad,626b377229c10585ec392f89,626b3a304e7d9da64f0db358,,,,,,,,,,,,,,,,,,,,,,,l,0,"[""0.192"",""0.507"",""0.472"",""0.950""]","[1,1,0,1]",0,3,3,3,1,0,1,,,1,FALSE,2.1645,,,,,,,,,,,,,,,,,,,,,,,,,,,,,,
,5ebea7893af71c2282a450ad,001,2022-04-29_03h05.44.897,classification_task,2021.2.3,Win32,143.8641922,5ebea7893af71c2282a450ad,626b377229c10585ec392f89,626b3a304e7d9da64f0db358,,,,,,,,,,,,,,,,,,,,,,,a,0,"[""0.155"",""0.309"",""0.439"",""0.102""]","[1,1,1,0]",0,4,4,4,1,1,0,,,1,FALSE,1.1539,,,,,,,,,,,,,,,,,,,,,,,,,,,,,,
,5ebea7893af71c2282a450ad,001,2022-04-29_03h05.44.897,classification_task,2021.2.3,Win32,143.8641922,5ebea7893af71c2282a450ad,626b377229c10585ec392f89,626b3a304e7d9da64f0db358,,,,,,,,,,,,,,,,,,,,,,,l,1,"[""0.118"",""0.309"",""0.439"",""0.738""]","[0,1,1,1]",0,5,5,5,1,1,0,,,1,FALSE,2.8863,,,,,,,,,,,,,,,,,,,,,,,,,,,,,,
,5ebea7893af71c2282a450ad,001,2022-04-29_03h05.44.897,classification_task,2021.2.3,Win32,143.8641922,5ebea7893af71c2282a450ad,626b377229c10585ec392f89,626b3a304e7d9da64f0db358,,,,,,,,,,,,,,,,,,,,,,,a,0,"[""0.028"",""0.775"",""0.630"",""0.684""]","[1,0,1,1]",0,6,6,6,1,1,1,,,1,FALSE,1.9958,,,,,,,,,,,,,,,,,,,,,,,,,,,,,,
,5ebea7893af71c2282a450ad,001,2022-04-29_03h05.44.897,classification_task,2021.2.3,Win32,143.8641922,5ebea7893af71c2282a450ad,626b377229c10585ec392f89,626b3a304e7d9da64f0db358,,,,,,,,,,,,,,,,,,,,,,,a,0,"[""0.155"",""0.797"",""0.439"",""0.738""]","[1,0,1,1]",0,7,7,7,1,1,0,,,1,FALSE,2.4286,,,,,,,,,,,,,,,,,,,,,,,,,,,,,,
,5ebea7893af71c2282a450ad,001,2022-04-29_03h05.44.897,classification_task,2021.2.3,Win32,143.8641922,5ebea7893af71c2282a450ad,626b377229c10585ec392f89,626b3a304e7d9da64f0db358,,,,,,,,,,,,,,,,,,,,,,,l,0,"[""0.269"",""0.363"",""0.836"",""0.797""]","[1,1,1,0]",0,8,8,8,1,0,0,,,1,FALSE,2.053,,,,,,,,,,,,,,,,,,,,,,,,,,,,,,
,5ebea7893af71c2282a450ad,001,2022-04-29_03h05.44.897,classification_task,2021.2.3,Win32,143.8641922,5ebea7893af71c2282a450ad,626b377229c10585ec392f89,626b3a304e7d9da64f0db358,,,,,,,,,,,,,,,,,,,,,,,a,0,"[""0.028"",""0.229"",""0.472"",""0.684""]","[1,1,0,1]",0,9,9,9,1,1,1,,,1,FALSE,2.6367,,,,,,,,,,,,,,,,,,,,,,,,,,,,,,
,5ebea7893af71c2282a450ad,001,2022-04-29_03h05.44.897,classification_task,2021.2.3,Win32,143.8641922,5ebea7893af71c2282a450ad,626b377229c10585ec392f89,626b3a304e7d9da64f0db358,,,,,,,,,,,,,,,,,,,,,,,a,0,"[""0.028"",""0.229"",""0.630"",""0.083""]","[1,1,1,0]",0,10,10,10,1,1,1,,,1,FALSE,3.3889,,,,,,,,,,,,,,,,,,,,,,,,,,,,,,
,5ebea7893af71c2282a450ad,001,2022-04-29_03h05.44.897,classification_task,2021.2.3,Win32,143.8641922,5ebea7893af71c2282a450ad,626b377229c10585ec392f89,626b3a304e7d9da64f0db358,,,,,,,,,,,,,,,,,,,,,,,l,0,"[""0.269"",""0.596"",""0.836"",""0.879""]","[1,0,1,1]",0,11,11,11,1,0,0,,,1,FALSE,3.1974,,,,,,,,,,,,,,,,,,,,,,,,,,,,,,
,5ebea7893af71c2282a450ad,001,2022-04-29_03h05.44.897,classification_task,2021.2.3,Win32,143.8641922,5ebea7893af71c2282a450ad,626b377229c10585ec392f89,626b3a304e7d9da64f0db358,,,,,,,,,,,,,,,,,,,,,,,l,0,"[""0.192"",""0.507"",""0.915"",""0.797""]","[1,1,1,0]",0,12,12,12,1,0,1,,,1,FALSE,2.3844,,,,,,,,,,,,,,,,,,,,,,,,,,,,,,
,5ebea7893af71c2282a450ad,001,2022-04-29_03h05.44.897,classification_task,2021.2.3,Win32,143.8641922,5ebea7893af71c2282a450ad,626b377229c10585ec392f89,626b3a304e7d9da64f0db358,,,,,,,,,,,,,,,,,,,,,,,a,0,"[""0.120"",""0.229"",""0.630"",""0.684""]","[0,1,1,1]",0,13,13,13,1,1,1,,,1,FALSE,0.9194,,,,,,,,,,,,,,,,,,,,,,,,,,,,,,
,5ebea7893af71c2282a450ad,001,2022-04-29_03h05.44.897,classification_task,2021.2.3,Win32,143.8641922,5ebea7893af71c2282a450ad,626b377229c10585ec392f89,626b3a304e7d9da64f0db358,,,,,,,,,,,,,,,,,,,,,,,a,1,"[""0.269"",""0.363"",""0.775"",""0.879""]","[1,1,0,1]",0,14,14,14,1,0,0,,,1,FALSE,1.6606,,,,,,,,,,,,,,,,,,,,,,,,,,,,,,
,5ebea7893af71c2282a450ad,001,2022-04-29_03h05.44.897,classification_task,2021.2.3,Win32,143.8641922,5ebea7893af71c2282a450ad,626b377229c10585ec392f89,626b3a304e7d9da64f0db358,,,,,,,,,,,,,,,,,,,,,,,l,1,"[""0.155"",""0.309"",""0.111"",""0.738""]","[1,1,0,1]",0,15,15,15,1,1,0,,,1,FALSE,1.0999,,,,,,,,,,,,,,,,,,,,,,,,,,,,,,
,5ebea7893af71c2282a450ad,001,2022-04-29_03h05.44.897,classification_task,2021.2.3,Win32,143.8641922,5ebea7893af71c2282a450ad,626b377229c10585ec392f89,626b3a304e7d9da64f0db358,,,,,,,,,,,,,,,,,,,,,,,a,0,"[""0.028"",""0.229"",""0.797"",""0.684""]","[1,1,0,1]",0,16,16,16,1,1,1,,,1,FALSE,1.964,,,,,,,,,,,,,,,,,,,,,,,,,,,,,,
,5ebea7893af71c2282a450ad,001,2022-04-29_03h05.44.897,classification_task,2021.2.3,Win32,143.8641922,5ebea7893af71c2282a450ad,626b377229c10585ec392f89,626b3a304e7d9da64f0db358,,,,,,,,,,,,,,,,,,,,,,,a,1,"[""0.269"",""0.363"",""0.120"",""0.879""]","[1,1,0,1]",0,17,17,17,1,0,0,,,1,FALSE,1.308,,,,,,,,,,,,,,,,,,,,,,,,,,,,,,
,5ebea7893af71c2282a450ad,001,2022-04-29_03h05.44.897,classification_task,2021.2.3,Win32,143.8641922,5ebea7893af71c2282a450ad,626b377229c10585ec392f89,626b3a304e7d9da64f0db358,,,,,,,,,,,,,,,,,,,,,,,a,1,"[""0.797"",""0.507"",""0.915"",""0.950""]","[0,1,1,1]",0,18,18,18,1,0,1,,,1,FALSE,1.8573,,,,,,,,,,,,,,,,,,,,,,,,,,,,,,
,5ebea7893af71c2282a450ad,001,2022-04-29_03h05.44.897,classification_task,2021.2.3,Win32,143.8641922,5ebea7893af71c2282a450ad,626b377229c10585ec392f89,626b3a304e7d9da64f0db358,,,,,,,,,,,,,,,,,,,,,,,l,1,"[""0.155"",""0.309"",""0.102"",""0.738""]","[1,1,0,1]",0,19,19,19,1,1,0,,,1,FALSE,1.7613,,,,,,,,,,,,,,,,,,,,,,,,,,,,,,
,5ebea7893af71c2282a450ad,001,2022-04-29_03h05.44.897,classification_task,2021.2.3,Win32,143.8641922,5ebea7893af71c2282a450ad,626b377229c10585ec392f89,626b3a304e7d9da64f0db358,,,,,,,,,,,,,,,,,,,,,,,l,0,"[""0.192"",""0.099"",""0.915"",""0.950""]","[1,0,1,1]",0,20,20,20,1,0,1,,,1,FALSE,1.7678,,,,,,,,,,,,,,,,,,,,,,,,,,,,,,
,5ebea7893af71c2282a450ad,001,2022-04-29_03h05.44.897,classification_task,2021.2.3,Win32,143.8641922,5ebea7893af71c2282a450ad,626b377229c10585ec392f89,626b3a304e7d9da64f0db358,,,,,,,,,,,,,,,,,,,,,,,a,0,"[""0.155"",""0.118"",""0.439"",""0.738""]","[1,0,1,1]",0,21,21,21,1,1,0,,,1,FALSE,1.6056,,,,,,,,,,,,,,,,,,,,,,,,,,,,,,
,5ebea7893af71c2282a450ad,001,2022-04-29_03h05.44.897,classification_task,2021.2.3,Win32,143.8641922,5ebea7893af71c2282a450ad,626b377229c10585ec392f89,626b3a304e7d9da64f0db358,,,,,,,,,,,,,,,,,,,,,,,a,0,"[""0.775"",""0.229"",""0.630"",""0.684""]","[0,1,1,1]",0,22,22,22,1,1,1,,,1,FALSE,1.0588,,,,,,,,,,,,,,,,,,,,,,,,,,,,,,
,5ebea7893af71c2282a450ad,001,2022-04-29_03h05.44.897,classification_task,2021.2.3,Win32,143.8641922,5ebea7893af71c2282a450ad,626b377229c10585ec392f89,626b3a304e7d9da64f0db358,,,,,,,,,,,,,,,,,,,,,,,l,0,"[""0.101"",""0.363"",""0.836"",""0.879""]","[0,1,1,1]",0,23,23,23,1,0,0,,,1,FALSE,0.7049,,,,,,,,,,,,,,,,,,,,,,,,,,,,,,
,5ebea7893af71c2282a450ad,001,2022-04-29_03h05.44.897,classification_task,2021.2.3,Win32,143.8641922,5ebea7893af71c2282a450ad,626b377229c10585ec392f89,626b3a304e7d9da64f0db358,,,,,,,,,,,,,,,,,,,,,,,a,0,"[""0.118"",""0.309"",""0.439"",""0.738""]","[0,1,1,1]",0,24,24,24,1,1,0,,,1,FALSE,1.4145,,,,,,,,,,,,,,,,,,,,,,,,,,,,,,
,5ebea7893af71c2282a450ad,001,2022-04-29_03h05.44.897,classification_task,2021.2.3,Win32,143.8641922,5ebea7893af71c2282a450ad,626b377229c10585ec392f89,626b3a304e7d9da64f0db358,,,,,,,,,,,,,,,,,,,,,,,l,0,"[""0.269"",""0.790"",""0.836"",""0.879""]","[1,0,1,1]",0,25,25,25,1,0,0,,,1,FALSE,2.5077,,,,,,,,,,,,,,,,,,,,,,,,,,,,,,
,5ebea7893af71c2282a450ad,001,2022-04-29_03h05.44.897,classification_task,2021.2.3,Win32,143.8641922,5ebea7893af71c2282a450ad,626b377229c10585ec392f89,626b3a304e7d9da64f0db358,,,,,,,,,,,,,,,,,,,,,,,l,1,"[""0.155"",""0.309"",""0.439"",""0.798""]","[1,1,1,0]",0,26,26,26,1,1,0,,,1,FALSE,1.8613,,,,,,,,,,,,,,,,,,,,,,,,,,,,,,
,5ebea7893af71c2282a450ad,001,2022-04-29_03h05.44.897,classification_task,2021.2.3,Win32,143.8641922,5ebea7893af71c2282a450ad,626b377229c10585ec392f89,626b3a304e7d9da64f0db358,,,,,,,,,,,,,,,,,,,,,,,a,0,"[""0.028"",""0.229"",""0.630"",""0.083""]","[1,1,1,0]",0,27,27,27,1,1,1,,,1,FALSE,1.1678,,,,,,,,,,,,,,,,,,,,,,,,,,,,,,
,5ebea7893af71c2282a450ad,001,2022-04-29_03h05.44.897,classification_task,2021.2.3,Win32,143.8641922,5ebea7893af71c2282a450ad,626b377229c10585ec392f89,626b3a304e7d9da64f0db358,,,,,,,,,,,,,,,,,,,,,,,l,0,"[""0.192"",""0.507"",""0.790"",""0.950""]","[1,1,0,1]",0,28,28,28,1,0,1,,,1,FALSE,1.6705,,,,,,,,,,,,,,,,,,,,,,,,,,,,,,
,5ebea7893af71c2282a450ad,001,2022-04-29_03h05.44.897,classification_task,2021.2.3,Win32,143.8641922,5ebea7893af71c2282a450ad,626b377229c10585ec392f89,626b3a304e7d9da64f0db358,,,,,,,,,,,,,,,,,,,,,,,a,1,"[""0.269"",""0.363"",""0.836"",""0.579""]","[1,1,1,0]",0,29,29,29,1,0,0,,,1,FALSE,1.1565,,,,,,,,,,,,,,,,,,,,,,,,,,,,,,
,5ebea7893af71c2282a450ad,001,2022-04-29_03h05.44.897,classification_task,2021.2.3,Win32,143.8641922,5ebea7893af71c2282a450ad,626b377229c10585ec392f89,626b3a304e7d9da64f0db358,,,,,,,,,,,,,,,,,,,,,,,a,0,"[""0.028"",""0.111"",""0.630"",""0.684""]","[1,0,1,1]",0,30,30,30,1,1,1,,,1,FALSE,1.0537,,,,,,,,,,,,,,,,,,,,,,,,,,,,,,
,5ebea7893af71c2282a450ad,001,2022-04-29_03h05.44.897,classification_task,2021.2.3,Win32,143.8641922,5ebea7893af71c2282a450ad,626b377229c10585ec392f89,626b3a304e7d9da64f0db358,,,,,,,,,,,,,,,,,,,,,,,l,0,"[""0.192"",""0.507"",""0.915"",""0.102""]","[1,1,1,0]",0,31,31,31,1,0,1,,,1,FALSE,2.1219,,,,,,,,,,,,,,,,,,,,,,,,,,,,,,
,5ebea7893af71c2282a450ad,001,2022-04-29_03h05.44.897,classification_task,2021.2.3,Win32,143.8641922,5ebea7893af71c2282a450ad,626b377229c10585ec392f89,626b3a304e7d9da64f0db358,,,,,,,,,,,,,,,,,,,,,,,a,0,"[""0.155"",""0.309"",""0.439"",""0.120""]","[1,1,1,0]",0,32,32,32,1,1,0,,,1,FALSE,1.5556,,,,,,,,,,,,,,,,,,,,,,,,,,,,,,
,5ebea7893af71c2282a450ad,001,2022-04-29_03h05.44.897,classification_task,2021.2.3,Win32,143.8641922,5ebea7893af71c2282a450ad,626b377229c10585ec392f89,626b3a304e7d9da64f0db358,,,,,,,,,,,,,,,,,,,,,,,l,0,"[""0.192"",""0.507"",""0.915"",""0.101""]","[1,1,1,0]",0,33,33,33,1,0,1,,,1,FALSE,1.1593,,,,,,,,,,,,,,,,,,,,,,,,,,,,,,
,5ebea7893af71c2282a450ad,001,2022-04-29_03h05.44.897,classification_task,2021.2.3,Win32,143.8641922,5ebea7893af71c2282a450ad,626b377229c10585ec392f89,626b3a304e7d9da64f0db358,,,,,,,,,,,,,,,,,,,,,,,a,0,"[""0.028"",""0.229"",""0.630"",""0.120""]","[1,1,1,0]",0,34,34,34,1,1,1,,,1,FALSE,0.846,,,,,,,,,,,,,,,,,,,,,,,,,,,,,,
,5ebea7893af71c2282a450ad,001,2022-04-29_03h05.44.897,classification_task,2021.2.3,Win32,143.8641922,5ebea7893af71c2282a450ad,626b377229c10585ec392f89,626b3a304e7d9da64f0db358,,,,,,,,,,,,,,,,,,,,,,,l,0,"[""0.798"",""0.507"",""0.915"",""0.950""]","[0,1,1,1]",0,35,35,35,1,0,1,,,1,FALSE,1.4689,,,,,,,,,,,,,,,,,,,,,,,,,,,,,,
,5ebea7893af71c2282a450ad,001,2022-04-29_03h05.44.897,classification_task,2021.2.3,Win32,143.8641922,5ebea7893af71c2282a450ad,626b377229c10585ec392f89,626b3a304e7d9da64f0db358,,,,,,,,,,,,,,,,,,,,,,,l,0,"[""0.269"",""0.083"",""0.836"",""0.879""]","[1,0,1,1]",0,36,36,36,1,0,0,,,1,FALSE,1.2321,,,,,,,,,,,,,,,,,,,,,,,,,,,,,,
,5ebea7893af71c2282a450ad,001,2022-04-29_03h05.44.897,classification_task,2021.2.3,Win32,143.8641922,5ebea7893af71c2282a450ad,626b377229c10585ec392f89,626b3a304e7d9da64f0db358,,,,,,,,,,,,,,,,,,,,,,,a,0,"[""0.028"",""0.229"",""0.596"",""0.684""]","[1,1,0,1]",0,37,37,37,1,1,1,,,1,FALSE,0.9069,,,,,,,,,,,,,,,,,,,,,,,,,,,,,,
,5ebea7893af71c2282a450ad,001,2022-04-29_03h05.44.897,classification_task,2021.2.3,Win32,143.8641922,5ebea7893af71c2282a450ad,626b377229c10585ec392f89,626b3a304e7d9da64f0db358,,,,,,,,,,,,,,,,,,,,,,,l,1,"[""0.083"",""0.229"",""0.630"",""0.684""]","[0,1,1,1]",0,38,38,38,1,1,1,,,1,FALSE,1.2714,,,,,,,,,,,,,,,,,,,,,,,,,,,,,,
,5ebea7893af71c2282a450ad,001,2022-04-29_03h05.44.897,classification_task,2021.2.3,Win32,143.8641922,5ebea7893af71c2282a450ad,626b377229c10585ec392f89,626b3a304e7d9da64f0db358,,,,,,,,,,,,,,,,,,,,,,,l,1,"[""0.155"",""0.309"",""0.099"",""0.738""]","[1,1,0,1]",0,39,39,39,1,1,0,,,1,FALSE,4.2172,,,,,,,,,,,,,,,,,,,,,,,,,,,,,,
,5ebea7893af71c2282a450ad,001,2022-04-29_03h05.44.897,classification_task,2021.2.3,Win32,143.8641922,5ebea7893af71c2282a450ad,626b377229c10585ec392f89,626b3a304e7d9da64f0db358,,,,,,,,,,,,,,,,,,,,,,,a,0,"[""0.028"",""0.579"",""0.630"",""0.684""]","[1,0,1,1]",0,40,40,40,1,1,1,,,1,FALSE,1.0136,,,,,,,,,,,,,,,,,,,,,,,,,,,,,,
,5ebea7893af71c2282a450ad,001,2022-04-29_03h05.44.897,classification_task,2021.2.3,Win32,143.8641922,5ebea7893af71c2282a450ad,626b377229c10585ec392f89,626b3a304e7d9da64f0db358,,,,,,,,,,,,,,,,,,,,,,,l,1,"[""0.108"",""0.309"",""0.439"",""0.738""]","[0,1,1,1]",0,41,41,41,1,1,0,,,1,FALSE,1.0623,,,,,,,,,,,,,,,,,,,,,,,,,,,,,,
,5ebea7893af71c2282a450ad,001,2022-04-29_03h05.44.897,classification_task,2021.2.3,Win32,143.8641922,5ebea7893af71c2282a450ad,626b377229c10585ec392f89,626b3a304e7d9da64f0db358,,,,,,,,,,,,,,,,,,,,,,,l,0,"[""0.192"",""0.507"",""0.101"",""0.950""]","[1,1,0,1]",0,42,42,42,1,0,1,,,1,FALSE,0.7112,,,,,,,,,,,,,,,,,,,,,,,,,,,,,,
,5ebea7893af71c2282a450ad,001,2022-04-29_03h05.44.897,classification_task,2021.2.3,Win32,143.8641922,5ebea7893af71c2282a450ad,626b377229c10585ec392f89,626b3a304e7d9da64f0db358,,,,,,,,,,,,,,,,,,,,,,,a,0,"[""0.155"",""0.120"",""0.439"",""0.738""]","[1,0,1,1]",0,43,43,43,1,1,0,,,1,FALSE,0.9112,,,,,,,,,,,,,,,,,,,,,,,,,,,,,,
,5ebea7893af71c2282a450ad,001,2022-04-29_03h05.44.897,classification_task,2021.2.3,Win32,143.8641922,5ebea7893af71c2282a450ad,626b377229c10585ec392f89,626b3a304e7d9da64f0db358,,,,,,,,,,,,,,,,,,,,,,,l,0,"[""0.269"",""0.363"",""0.836"",""0.797""]","[1,1,1,0]",0,44,44,44,1,0,0,,,1,FALSE,1.4245,,,,,,,,,,,,,,,,,,,,,,,,,,,,,,
,5ebea7893af71c2282a450ad,001,2022-04-29_03h05.44.897,classification_task,2021.2.3,Win32,143.8641922,5ebea7893af71c2282a450ad,626b377229c10585ec392f89,626b3a304e7d9da64f0db358,,,,,,,,,,,,,,,,,,,,,,,l,0,"[""0.192"",""0.797"",""0.915"",""0.950""]","[1,0,1,1]",0,45,45,45,1,0,1,,,1,FALSE,1.8768,,,,,,,,,,,,,,,,,,,,,,,,,,,,,,
,5ebea7893af71c2282a450ad,001,2022-04-29_03h05.44.897,classification_task,2021.2.3,Win32,143.8641922,5ebea7893af71c2282a450ad,626b377229c10585ec392f89,626b3a304e7d9da64f0db358,,,,,,,,,,,,,,,,,,,,,,,a,1,"[""0.472"",""0.363"",""0.836"",""0.879""]","[0,1,1,1]",0,46,46,46,1,0,0,,,1,FALSE,2.7033,,,,,,,,,,,,,,,,,,,,,,,,,,,,,,
,5ebea7893af71c2282a450ad,001,2022-04-29_03h05.44.897,classification_task,2021.2.3,Win32,143.8641922,5ebea7893af71c2282a450ad,626b377229c10585ec392f89,626b3a304e7d9da64f0db358,,,,,,,,,,,,,,,,,,,,,,,l,0,"[""0.269"",""0.363"",""0.569"",""0.879""]","[1,1,0,1]",0,47,47,47,1,0,0,,,1,FALSE,1.6696,,,,,,,,,,,,,,,,,,,,,,,,,,,,,,
,5ebea7893af71c2282a450ad,001,2022-04-29_03h05.44.897,classification_task,2021.2.3,Win32,143.8641922,5ebea7893af71c2282a450ad,626b377229c10585ec392f89,626b3a304e7d9da64f0db358,,,,,,,,,,,,,,,,,,,,,,,l,0,"[""0.192"",""0.507"",""0.915"",""0.108""]","[1,1,1,0]",0,48,48,48,1,0,1,,,1,FALSE,1.2146,,,,,,,,,,,,,,,,,,,,,,,,,,,,,,
,5ebea7893af71c2282a450ad,001,2022-04-29_03h05.44.897,classification_task,2021.2.3,Win32,143.8641922,5ebea7893af71c2282a450ad,626b377229c10585ec392f89,626b3a304e7d9da64f0db358,,,,,,,,,,,,,,,,,,,,,,,l,0,"[""0.192"",""0.472"",""0.915"",""0.950""]","[1,0,1,1]",0,49,49,49,1,0,1,,,1,FALSE,2.3433,,,,,,,,,,,,,,,,,,,,,,,,,,,,,,
,5ebea7893af71c2282a450ad,001,2022-04-29_03h05.44.897,classification_task,2021.2.3,Win32,143.8641922,5ebea7893af71c2282a450ad,626b377229c10585ec392f89,626b3a304e7d9da64f0db358,,,,,,,,,,,,,,,,,,,,,,,l,0,"[""0.269"",""0.363"",""0.836"",""0.083""]","[1,1,1,0]",0,50,50,50,1,0,0,,,1,FALSE,2.2198,,,,,,,,,,,,,,,,,,,,,,,,,,,,,,
,5ebea7893af71c2282a450ad,001,2022-04-29_03h05.44.897,classification_task,2021.2.3,Win32,143.8641922,5ebea7893af71c2282a450ad,626b377229c10585ec392f89,626b3a304e7d9da64f0db358,,,,,,,,,,,,,,,,,,,,,,,a,1,"[""0.192"",""0.507"",""0.099"",""0.950""]","[1,1,0,1]",0,51,51,51,1,0,1,,,1,FALSE,1.0189,,,,,,,,,,,,,,,,,,,,,,,,,,,,,,
,5ebea7893af71c2282a450ad,001,2022-04-29_03h05.44.897,classification_task,2021.2.3,Win32,143.8641922,5ebea7893af71c2282a450ad,626b377229c10585ec392f89,626b3a304e7d9da64f0db358,,,,,,,,,,,,,,,,,,,,,,,a,1,"[""0.472"",""0.507"",""0.915"",""0.950""]","[0,1,1,1]",0,52,52,52,1,0,1,,,1,FALSE,1.2082,,,,,,,,,,,,,,,,,,,,,,,,,,,,,,
,5ebea7893af71c2282a450ad,001,2022-04-29_03h05.44.897,classification_task,2021.2.3,Win32,143.8641922,5ebea7893af71c2282a450ad,626b377229c10585ec392f89,626b3a304e7d9da64f0db358,,,,,,,,,,,,,,,,,,,,,,,l,0,"[""0.269"",""0.099"",""0.836"",""0.879""]","[1,0,1,1]",0,53,53,53,1,0,0,,,1,FALSE,1.1106,,,,,,,,,,,,,,,,,,,,,,,,,,,,,,
,5ebea7893af71c2282a450ad,001,2022-04-29_03h05.44.897,classification_task,2021.2.3,Win32,143.8641922,5ebea7893af71c2282a450ad,626b377229c10585ec392f89,626b3a304e7d9da64f0db358,,,,,,,,,,,,,,,,,,,,,,,l,0,"[""0.790"",""0.363"",""0.836"",""0.879""]","[0,1,1,1]",0,54,54,54,1,0,0,,,1,FALSE,1.3549,,,,,,,,,,,,,,,,,,,,,,,,,,,,,,
,5ebea7893af71c2282a450ad,001,2022-04-29_03h05.44.897,classification_task,2021.2.3,Win32,143.8641922,5ebea7893af71c2282a450ad,626b377229c10585ec392f89,626b3a304e7d9da64f0db358,,,,,,,,,,,,,,,,,,,,,,,l,1,"[""0.155"",""0.798"",""0.439"",""0.738""]","[1,0,1,1]",0,55,55,55,1,1,0,,,1,FALSE,2.1147,,,,,,,,,,,,,,,,,,,,,,,,,,,,,,
,5ebea7893af71c2282a450ad,001,2022-04-29_03h05.44.897,classification_task,2021.2.3,Win32,143.8641922,5ebea7893af71c2282a450ad,626b377229c10585ec392f89,626b3a304e7d9da64f0db358,,,,,,,,,,,,,,,,,,,,,,,l,1,"[""0.155"",""0.309"",""0.120"",""0.738""]","[1,1,0,1]",0,56,56,56,1,1,0,,,1,FALSE,0.9188,,,,,,,,,,,,,,,,,,,,,,,,,,,,,,
,5ebea7893af71c2282a450ad,001,2022-04-29_03h05.44.897,classification_task,2021.2.3,Win32,143.8641922,5ebea7893af71c2282a450ad,626b377229c10585ec392f89,626b3a304e7d9da64f0db358,,,,,,,,,,,,,,,,,,,,,,,l,1,"[""0.155"",""0.309"",""0.439"",""0.101""]","[1,1,1,0]",0,57,57,57,1,1,0,,,1,FALSE,1.0654,,,,,,,,,,,,,,,,,,,,,,,,,,,,,,
,5ebea7893af71c2282a450ad,001,2022-04-29_03h05.44.897,classification_task,2021.2.3,Win32,143.8641922,5ebea7893af71c2282a450ad,626b377229c10585ec392f89,626b3a304e7d9da64f0db358,,,,,,,,,,,,,,,,,,,,,,,a,0,"[""0.028"",""0.472"",""0.630"",""0.684""]","[1,0,1,1]",0,58,58,58,1,1,1,,,1,FALSE,1.0105,,,,,,,,,,,,,,,,,,,,,,,,,,,,,,
,5ebea7893af71c2282a450ad,001,2022-04-29_03h05.44.897,classification_task,2021.2.3,Win32,143.8641922,5ebea7893af71c2282a450ad,626b377229c10585ec392f89,626b3a304e7d9da64f0db358,,,,,,,,,,,,,,,,,,,,,,,a,1,"[""0.269"",""0.363"",""0.798"",""0.879""]","[1,1,0,1]",0,59,59,59,1,0,0,,,1,FALSE,1.3583,,,,,,,,,,,,,,,,,,,,,,,,,,,,,,
,5ebea7893af71c2282a450ad,001,2022-04-29_03h05.44.897,classification_task,2021.2.3,Win32,143.8641922,5ebea7893af71c2282a450ad,626b377229c10585ec392f89,626b3a304e7d9da64f0db358,,,,,,,,,,,,,,,,,,,,,,,a,0,"[""0.797"",""0.229"",""0.630"",""0.684""]","[0,1,1,1]",0,60,60,60,1,1,1,,,1,FALSE,1.173,,,,,,,,,,,,,,,,,,,,,,,,,,,,,,
,5ebea7893af71c2282a450ad,001,2022-04-29_03h05.44.897,classification_task,2021.2.3,Win32,143.8641922,5ebea7893af71c2282a450ad,626b377229c10585ec392f89,626b3a304e7d9da64f0db358,,,,,,,,,,,,,,,,,,,,,,,a,0,"[""0.028"",""0.229"",""0.775"",""0.684""]","[1,1,0,1]",0,61,61,61,1,1,1,,,1,FALSE,0.913,,,,,,,,,,,,,,,,,,,,,,,,,,,,,,
,5ebea7893af71c2282a450ad,001,2022-04-29_03h05.44.897,classification_task,2021.2.3,Win32,143.8641922,5ebea7893af71c2282a450ad,626b377229c10585ec392f89,626b3a304e7d9da64f0db358,,,,,,,,,,,,,,,,,,,,,,,a,0,"[""0.028"",""0.229"",""0.630"",""0.118""]","[1,1,1,0]",0,62,62,62,1,1,1,,,1,FALSE,1.2198,,,,,,,,,,,,,,,,,,,,,,,,,,,,,,
,5ebea7893af71c2282a450ad,001,2022-04-29_03h05.44.897,classification_task,2021.2.3,Win32,143.8641922,5ebea7893af71c2282a450ad,626b377229c10585ec392f89,626b3a304e7d9da64f0db358,,,,,,,,,,,,,,,,,,,,,,,l,1,"[""0.596"",""0.309"",""0.439"",""0.738""]","[0,1,1,1]",0,63,63,63,1,1,0,,,1,FALSE,1.1154,,,,,,,,,,,,,,,,,,,,,,,,,,,,,,
,5ebea7893af71c2282a450ad,001,2022-04-29_03h05.44.897,classification_task,2021.2.3,Win32,143.8641922,5ebea7893af71c2282a450ad,626b377229c10585ec392f89,626b3a304e7d9da64f0db358,,,,,,,,,,,,,,,,,,,,,,,,,,,,,,,,,,,,,,,0, ,,0,7.76797962,191.2216,0,2,2,2,1,2,3,,,,,,,,,,,,,,,,,
,5ebea7893af71c2282a450ad,001,2022-04-29_03h05.44.897,classification_task,2021.2.3,Win32,143.8641922,5ebea7893af71c2282a450ad,626b377229c10585ec392f89,626b3a304e7d9da64f0db358,,,,,,,,,,,,,,,,,,,,,,,,,,,,,,,,,,,,,,,1,  ,,0,7.792475015,191.8448,0,2,2,2,1,2,3,,,,,,,,,,,,,,,,,
,5ebea7893af71c2282a450ad,001,2022-04-29_03h05.44.897,classification_task,2021.2.3,Win32,143.8641922,5ebea7893af71c2282a450ad,626b377229c10585ec392f89,626b3a304e7d9da64f0db358,,,,,,,,,,,,,,,,,,,,,,,,,,,,,,,,,,,,,,,2,  ,,0,8.037428963,192.6076,0,2,2,2,1,2,3,,,,,,,,,,,,,,,,,
,5ebea7893af71c2282a450ad,001,2022-04-29_03h05.44.897,classification_task,2021.2.3,Win32,143.8641922,5ebea7893af71c2282a450ad,626b377229c10585ec392f89,626b3a304e7d9da64f0db358,,,,,,,,,,,,,,,,,,,,,,,,,,,,,,,,,,,,,,,,,,,,,0,2,2,2,1,,3,,,,,,,,,,,,,,,,,
,5ebea7893af71c2282a450ad,001,2022-04-29_03h05.44.897,classification_task,2021.2.3,Win32,143.8641922,5ebea7893af71c2282a450ad,626b377229c10585ec392f89,626b3a304e7d9da64f0db358,,,,,,,,,,,,,,,,,,,,,,,,,,,,,,,,,,,,,,,,,,,,,,,,,,,,,I believe the aid is a competent performer,,0.7,0,4,761.2149,0,0,0,0,1,0,,,,
,5ebea7893af71c2282a450ad,001,2022-04-29_03h05.44.897,classification_task,2021.2.3,Win32,143.8641922,5ebea7893af71c2282a450ad,626b377229c10585ec392f89,626b3a304e7d9da64f0db358,,,,,,,,,,,,,,,,,,,,,,,,,,,,,,,,,,,,,,,,,,,,,,,,,,,,,I trust the aid,,0.7,0,4,763.8154,0,0,0,0,1,0,,,,
,5ebea7893af71c2282a450ad,001,2022-04-29_03h05.44.897,classification_task,2021.2.3,Win32,143.8641922,5ebea7893af71c2282a450ad,626b377229c10585ec392f89,626b3a304e7d9da64f0db358,,,,,,,,,,,,,,,,,,,,,,,,,,,,,,,,,,,,,,,,,,,,,,,,,,,,,I have confidence in the advice given by the aid,,0.7,0,4,765.8496,0,0,0,0,1,0,,,,
,5ebea7893af71c2282a450ad,001,2022-04-29_03h05.44.897,classification_task,2021.2.3,Win32,143.8641922,5ebea7893af71c2282a450ad,626b377229c10585ec392f89,626b3a304e7d9da64f0db358,,,,,,,,,,,,,,,,,,,,,,,,,,,,,,,,,,,,,,,,,,,,,,,,,,,,,I can depend on the aid,,0.7,0,4,767.4931,0,0,0,0,1,0,,,,
,5ebea7893af71c2282a450ad,001,2022-04-29_03h05.44.897,classification_task,2021.2.3,Win32,143.8641922,5ebea7893af71c2282a450ad,626b377229c10585ec392f89,626b3a304e7d9da64f0db358,,,,,,,,,,,,,,,,,,,,,,,,,,,,,,,,,,,,,,,,,,,,,,,,,,,,,I can rely on the aid to behave in consistent ways,,0.7,0,3,769.229,0,0,0,0,1,0,,,,
,5ebea7893af71c2282a450ad,001,2022-04-29_03h05.44.897,classification_task,2021.2.3,Win32,143.8641922,5ebea7893af71c2282a450ad,626b377229c10585ec392f89,626b3a304e7d9da64f0db358,,,,,,,,,,,,,,,,,,,,,,,,,,,,,,,,,,,,,,,,,,,,,,,,,,,,,I can rely on the aid to do its best every time I take its advice,,0.7,0,4,770.9509,0,0,0,0,1,0,,,,
,5ebea7893af71c2282a450ad,001,2022-04-29_03h05.44.897,classification_task,2021.2.3,Win32,143.8641922,5ebea7893af71c2282a450ad,626b377229c10585ec392f89,626b3a304e7d9da64f0db358,,,,,,,,,,,,,,,,,,,,,,,,,,,,,,,,,,,,,,,,,,,,,,,,,,,,,"On trials you completed with assistance from the aid, how frequently did you think the aid was correct?",,0.7,0,90,,0,0,0,0,1,0,,,,
,5ebea7893af71c2282a450ad,001,2022-04-29_03h05.44.897,classification_task,2021.2.3,Win32,143.8641922,5ebea7893af71c2282a450ad,626b377229c10585ec392f89,626b3a304e7d9da64f0db358,,,,,,,,,,,,,,,,,,,,,,,,,,,,,,,,,,,,,,,,,,,,,,,,,,,,,"On trials you completed without the aid, how frequently did you think you were correct?",,0.7,0,30,,0,0,0,0,1,0,,,,
,5ebea7893af71c2282a450ad,001,2022-04-29_03h05.44.897,classification_task,2021.2.3,Win32,143.8641922,5ebea7893af71c2282a450ad,626b377229c10585ec392f89,626b3a304e7d9da64f0db358,,,,,,,,,,,,,,,,,,,,,,,,,,,,,,,,,,,,,,,,,,,,,,,,,,,,,,,,,,,0,0,0,0,1,,,,,
,5ebea7893af71c2282a450ad,001,2022-04-29_03h05.44.897,classification_task,2021.2.3,Win32,143.8641922,5ebea7893af71c2282a450ad,626b377229c10585ec392f89,626b3a304e7d9da64f0db358,,,,,,,,,,,,,,,,,,,,,,,,,,,,,,,,,,,,,,,,,,,,,,,,,,,,,,,,,,,,,,,,,space,6.8175,790.2116,
,5ebea7893af71c2282a450ad,001,2022-04-29_03h05.44.897,classification_task,2021.2.3,Win32,143.8641922,5ebea7893af71c2282a450ad,626b377229c10585ec392f89,626b3a304e7d9da64f0db358,,,,,,,,,,,,,,,,,,,,,,,,,,,,,,,,,,,,,,,,,,,,,,,,,,,,,,,,,,,,,,,,,,,,"Mozilla/5.0 (Windows NT 10.0; Win64; x64) AppleWebKit/537.36 (KHTML, like Gecko) Chrome/100.0.4896.127 Safari/537.36"
