usingWebGL,participant,session,date,expName,psychopyVersion,OS,frameRate,PROLIFIC_PID,STUDY_ID,SESSION_ID,signatures_friend,signatures_foe,band_ranges_top,band_ranges_bottom,formitemText,formtype,formundefined,formitemWidth,formindex,formresponse,formrt,key_resp_2.keys,key_resp_2.rt,tute_resp.keys,tute_resp.rt,tutorial.thisRepN,tutorial.thisTrialN,tutorial.thisN,tutorial.thisIndex,tutorial.ran,key_resp_4.keys,key_resp_4.rt,key_resp.keys,key_resp.corr,key_resp.rt,lines_presented,is_signal_presented,trials.thisRepN,trials.thisTrialN,trials.thisN,trials.thisIndex,trials.ran,vessel,active_band,lines,is_signal,supported_pos,catch_trial,debrief_formindex,debrief_formitemText,debrief_formtype,debrief_formitemWidth,debrief_formresponse,debrief_formrt,phases.thisRepN,phases.thisTrialN,phases.thisN,phases.thisIndex,phases.ran,phases.order,phase,key_resp_3.keys,trustitemText,trusttype,trustitemWidth,trustindex,trustresponse,trustrt,support_status.thisRepN,support_status.thisTrialN,support_status.thisN,support_status.thisIndex,support_status.ran,support_status.order,key_resp_5.keys,key_resp_5.rt,globalClockTime,userAgent
TRUE,5ec0cd1d56b9d94e97a3171d,001,2022-04-28_20h03.56.460,classification_task,2021.2.3,Win32,59.29791271,5ec0cd1d56b9d94e97a3171d,626b377229c10585ec392f89,626b394fbee6b103b61c8211,,,,,,,,,,,,,,,,,,,,,,,,,,,,,,,,,,,,,,,,,,,,,,,,,,,,,,,,,,,,,,,,,,,,
,5ec0cd1d56b9d94e97a3171d,001,2022-04-28_20h03.56.460,classification_task,2021.2.3,Win32,59.29791271,5ec0cd1d56b9d94e97a3171d,626b377229c10585ec392f89,626b394fbee6b103b61c8211,"[[""0.185"",""0.381"",""0.663"",""0.964""],[""0.246"",""0.449"",""0.874"",""0.924""]]","[[""0.104"",""0.289"",""0.526"",""0.714""],[""0.032"",""0.338"",""0.567"",""0.786""]]","[1,10]","[100,1000]",Video game experience,,,0.7,0,,,,,,,,,,,,,,,,,,,,,,,,,,,,,,,,,,,,,,,,,,,,,,,,,,,,,,,,,,,
,5ec0cd1d56b9d94e97a3171d,001,2022-04-28_20h03.56.460,classification_task,2021.2.3,Win32,59.29791271,5ec0cd1d56b9d94e97a3171d,626b377229c10585ec392f89,626b394fbee6b103b61c8211,,,,,Approximately how many hours did you spend playing video games in the last week?,,,0.7,0,10,,,,,,,,,,,,,,,,,,,,,,,,,,,,,,,,,,,,,,,,,,,,,,,,,,,,,,,,,,
,5ec0cd1d56b9d94e97a3171d,001,2022-04-28_20h03.56.460,classification_task,2021.2.3,Win32,59.29791271,5ec0cd1d56b9d94e97a3171d,626b377229c10585ec392f89,626b394fbee6b103b61c8211,,,,,"Which game did you play the most this year? (Enter ""None"" if you didn't play any)",,,0.7,0,Destiny 2,,,,,,,,,,,,,,,,,,,,,,,,,,,,,,,,,,,,,,,,,,,,,,,,,,,,,,,,,,
,5ec0cd1d56b9d94e97a3171d,001,2022-04-28_20h03.56.460,classification_task,2021.2.3,Win32,59.29791271,5ec0cd1d56b9d94e97a3171d,626b377229c10585ec392f89,626b394fbee6b103b61c8211,,,,,Visual perception,,,0.7,0,,,,,,,,,,,,,,,,,,,,,,,,,,,,,,,,,,,,,,,,,,,,,,,,,,,,,,,,,,,
,5ec0cd1d56b9d94e97a3171d,001,2022-04-28_20h03.56.460,classification_task,2021.2.3,Win32,59.29791271,5ec0cd1d56b9d94e97a3171d,626b377229c10585ec392f89,626b394fbee6b103b61c8211,,,,,Do you have any form of color blindness?,,,0.7,0,No,14.9086,,,,,,,,,,,,,,,,,,,,,,,,,,,,,,,,,,,,,,,,,,,,,,,,,,,,,,,,,
,5ec0cd1d56b9d94e97a3171d,001,2022-04-28_20h03.56.460,classification_task,2021.2.3,Win32,59.29791271,5ec0cd1d56b9d94e97a3171d,626b377229c10585ec392f89,626b394fbee6b103b61c8211,,,,,Do you use software to change the colour temperature of your screen (e.g. f.lux)?,,,0.7,0,No,17.187,,,,,,,,,,,,,,,,,,,,,,,,,,,,,,,,,,,,,,,,,,,,,,,,,,,,,,,,,
,5ec0cd1d56b9d94e97a3171d,001,2022-04-28_20h03.56.460,classification_task,2021.2.3,Win32,59.29791271,5ec0cd1d56b9d94e97a3171d,626b377229c10585ec392f89,626b394fbee6b103b61c8211,,,,,,,,,,,,space,78.5794,space,11.4476,0,0,0,0,1,,,,,,,,,,,,,,,,,,,,,,,,,,,,,,,,,,,,,,,,,,,,,,,,
,5ec0cd1d56b9d94e97a3171d,001,2022-04-28_20h03.56.460,classification_task,2021.2.3,Win32,59.29791271,5ec0cd1d56b9d94e97a3171d,626b377229c10585ec392f89,626b394fbee6b103b61c8211,,,,,,,,,,,,,,space,5.6651,1,0,1,0,1,,,,,,,,,,,,,,,,,,,,,,,,,,,,,,,,,,,,,,,,,,,,,,,,
,5ec0cd1d56b9d94e97a3171d,001,2022-04-28_20h03.56.460,classification_task,2021.2.3,Win32,59.29791271,5ec0cd1d56b9d94e97a3171d,626b377229c10585ec392f89,626b394fbee6b103b61c8211,,,,,,,,,,,,,,space,29.9225,2,0,2,0,1,,,,,,,,,,,,,,,,,,,,,,,,,,,,,,,,,,,,,,,,,,,,,,,,
,5ec0cd1d56b9d94e97a3171d,001,2022-04-28_20h03.56.460,classification_task,2021.2.3,Win32,59.29791271,5ec0cd1d56b9d94e97a3171d,626b377229c10585ec392f89,626b394fbee6b103b61c8211,,,,,,,,,,,,,,space,4.926,3,0,3,0,1,,,,,,,,,,,,,,,,,,,,,,,,,,,,,,,,,,,,,,,,,,,,,,,,
,5ec0cd1d56b9d94e97a3171d,001,2022-04-28_20h03.56.460,classification_task,2021.2.3,Win32,59.29791271,5ec0cd1d56b9d94e97a3171d,626b377229c10585ec392f89,626b394fbee6b103b61c8211,,,,,,,,,,,,,,space,18.7367,4,0,4,0,1,,,,,,,,,,,,,,,,,,,,,,,,,,,,,,,,,,,,,,,,,,,,,,,,
,5ec0cd1d56b9d94e97a3171d,001,2022-04-28_20h03.56.460,classification_task,2021.2.3,Win32,59.29791271,5ec0cd1d56b9d94e97a3171d,626b377229c10585ec392f89,626b394fbee6b103b61c8211,,,,,,,,,,,,,,,,,,,,,space,20.8214,l,1,5.3838,"[""0.104"",""0.825"",""0.526"",""0.714""]","[1,0,1,1]",0,0,0,0,1,1,0,,,0,FALSE,,,,,,,,,,,,,,,,,,,,,,,,,,,,,,
,5ec0cd1d56b9d94e97a3171d,001,2022-04-28_20h03.56.460,classification_task,2021.2.3,Win32,59.29791271,5ec0cd1d56b9d94e97a3171d,626b377229c10585ec392f89,626b394fbee6b103b61c8211,,,,,,,,,,,,,,,,,,,,,,,l,1,3.9321,"[""0.032"",""0.488"",""0.567"",""0.786""]","[1,0,1,1]",0,1,1,1,1,1,1,,,0,FALSE,,,,,,,,,,,,,,,,,,,,,,,,,,,,,,
,5ec0cd1d56b9d94e97a3171d,001,2022-04-28_20h03.56.460,classification_task,2021.2.3,Win32,59.29791271,5ec0cd1d56b9d94e97a3171d,626b377229c10585ec392f89,626b394fbee6b103b61c8211,,,,,,,,,,,,,,,,,,,,,,,a,1,4.8201,"[""0.246"",""0.607"",""0.874"",""0.924""]","[1,0,1,1]",0,2,2,2,1,0,1,,,0,FALSE,,,,,,,,,,,,,,,,,,,,,,,,,,,,,,
,5ec0cd1d56b9d94e97a3171d,001,2022-04-28_20h03.56.460,classification_task,2021.2.3,Win32,59.29791271,5ec0cd1d56b9d94e97a3171d,626b377229c10585ec392f89,626b394fbee6b103b61c8211,,,,,,,,,,,,,,,,,,,,,,,l,1,2.8039,"[""0.104"",""0.289"",""0.526"",""0.822""]","[1,1,1,0]",0,3,3,3,1,1,0,,,0,FALSE,,,,,,,,,,,,,,,,,,,,,,,,,,,,,,
,5ec0cd1d56b9d94e97a3171d,001,2022-04-28_20h03.56.460,classification_task,2021.2.3,Win32,59.29791271,5ec0cd1d56b9d94e97a3171d,626b377229c10585ec392f89,626b394fbee6b103b61c8211,,,,,,,,,,,,,,,,,,,,,,,a,1,3.0828,"[""0.748"",""0.449"",""0.874"",""0.924""]","[0,1,1,1]",0,4,4,4,1,0,1,,,0,FALSE,,,,,,,,,,,,,,,,,,,,,,,,,,,,,,
,5ec0cd1d56b9d94e97a3171d,001,2022-04-28_20h03.56.460,classification_task,2021.2.3,Win32,59.29791271,5ec0cd1d56b9d94e97a3171d,626b377229c10585ec392f89,626b394fbee6b103b61c8211,,,,,,,,,,,,,,,,,,,,,,,a,1,5.3103,"[""0.185"",""0.381"",""0.663"",""0.607""]","[1,1,1,0]",0,5,5,5,1,0,0,,,0,FALSE,,,,,,,,,,,,,,,,,,,,,,,,,,,,,,
,5ec0cd1d56b9d94e97a3171d,001,2022-04-28_20h03.56.460,classification_task,2021.2.3,Win32,59.29791271,5ec0cd1d56b9d94e97a3171d,626b377229c10585ec392f89,626b394fbee6b103b61c8211,,,,,,,,,,,,,,,,,,,,,,,l,1,7.2007,"[""0.145"",""0.289"",""0.526"",""0.714""]","[0,1,1,1]",0,6,6,6,1,1,0,,,0,FALSE,,,,,,,,,,,,,,,,,,,,,,,,,,,,,,
,5ec0cd1d56b9d94e97a3171d,001,2022-04-28_20h03.56.460,classification_task,2021.2.3,Win32,59.29791271,5ec0cd1d56b9d94e97a3171d,626b377229c10585ec392f89,626b394fbee6b103b61c8211,,,,,,,,,,,,,,,,,,,,,,,a,1,3.9613,"[""0.185"",""0.381"",""0.822"",""0.964""]","[1,1,0,1]",0,7,7,7,1,0,0,,,0,FALSE,,,,,,,,,,,,,,,,,,,,,,,,,,,,,,
,5ec0cd1d56b9d94e97a3171d,001,2022-04-28_20h03.56.460,classification_task,2021.2.3,Win32,59.29791271,5ec0cd1d56b9d94e97a3171d,626b377229c10585ec392f89,626b394fbee6b103b61c8211,,,,,,,,,,,,,,,,,,,,,,,l,0,3.1678,"[""0.185"",""0.142"",""0.663"",""0.964""]","[1,0,1,1]",0,8,8,8,1,0,0,,,0,FALSE,,,,,,,,,,,,,,,,,,,,,,,,,,,,,,
,5ec0cd1d56b9d94e97a3171d,001,2022-04-28_20h03.56.460,classification_task,2021.2.3,Win32,59.29791271,5ec0cd1d56b9d94e97a3171d,626b377229c10585ec392f89,626b394fbee6b103b61c8211,,,,,,,,,,,,,,,,,,,,,,,l,0,5.4086,"[""0.824"",""0.381"",""0.663"",""0.964""]","[0,1,1,1]",0,9,9,9,1,0,0,,,0,FALSE,,,,,,,,,,,,,,,,,,,,,,,,,,,,,,
,5ec0cd1d56b9d94e97a3171d,001,2022-04-28_20h03.56.460,classification_task,2021.2.3,Win32,59.29791271,5ec0cd1d56b9d94e97a3171d,626b377229c10585ec392f89,626b394fbee6b103b61c8211,,,,,,,,,,,,,,,,,,,,,,,l,1,5.3122,"[""0.032"",""0.338"",""0.614"",""0.786""]","[1,1,0,1]",0,10,10,10,1,1,1,,,0,FALSE,,,,,,,,,,,,,,,,,,,,,,,,,,,,,,
,5ec0cd1d56b9d94e97a3171d,001,2022-04-28_20h03.56.460,classification_task,2021.2.3,Win32,59.29791271,5ec0cd1d56b9d94e97a3171d,626b377229c10585ec392f89,626b394fbee6b103b61c8211,,,,,,,,,,,,,,,,,,,,,,,a,1,3.6153,"[""0.246"",""0.449"",""0.874"",""0.614""]","[1,1,1,0]",0,11,11,11,1,0,1,,,0,FALSE,,,,,,,,,,,,,,,,,,,,,,,,,,,,,,
,5ec0cd1d56b9d94e97a3171d,001,2022-04-28_20h03.56.460,classification_task,2021.2.3,Win32,59.29791271,5ec0cd1d56b9d94e97a3171d,626b377229c10585ec392f89,626b394fbee6b103b61c8211,,,,,,,,,,,,,,,,,,,,,,,l,1,3.456,"[""0.032"",""0.338"",""0.567"",""0.145""]","[1,1,1,0]",0,12,12,12,1,1,1,,,0,FALSE,,,,,,,,,,,,,,,,,,,,,,,,,,,,,,
,5ec0cd1d56b9d94e97a3171d,001,2022-04-28_20h03.56.460,classification_task,2021.2.3,Win32,59.29791271,5ec0cd1d56b9d94e97a3171d,626b377229c10585ec392f89,626b394fbee6b103b61c8211,,,,,,,,,,,,,,,,,,,,,,,l,1,3.2707,"[""0.066"",""0.338"",""0.567"",""0.786""]","[0,1,1,1]",0,13,13,13,1,1,1,,,0,FALSE,,,,,,,,,,,,,,,,,,,,,,,,,,,,,,
,5ec0cd1d56b9d94e97a3171d,001,2022-04-28_20h03.56.460,classification_task,2021.2.3,Win32,59.29791271,5ec0cd1d56b9d94e97a3171d,626b377229c10585ec392f89,626b394fbee6b103b61c8211,,,,,,,,,,,,,,,,,,,,,,,a,1,2.6154,"[""0.246"",""0.449"",""0.614"",""0.924""]","[1,1,0,1]",0,14,14,14,1,0,1,,,0,FALSE,,,,,,,,,,,,,,,,,,,,,,,,,,,,,,
,5ec0cd1d56b9d94e97a3171d,001,2022-04-28_20h03.56.460,classification_task,2021.2.3,Win32,59.29791271,5ec0cd1d56b9d94e97a3171d,626b377229c10585ec392f89,626b394fbee6b103b61c8211,,,,,,,,,,,,,,,,,,,,,,,l,1,2.5385,"[""0.104"",""0.289"",""0.607"",""0.714""]","[1,1,0,1]",0,15,15,15,1,1,0,,,0,FALSE,,,,,,,,,,,,,,,,,,,,,,,,,,,,,,
,5ec0cd1d56b9d94e97a3171d,001,2022-04-28_20h03.56.460,classification_task,2021.2.3,Win32,59.29791271,5ec0cd1d56b9d94e97a3171d,626b377229c10585ec392f89,626b394fbee6b103b61c8211,,,,,,,,,,,,,,,,,,,,,,,a,1,2.8996,"[""0.185"",""0.381"",""0.663"",""0.825""]","[1,1,1,0]",0,16,16,16,1,0,0,,,0,FALSE,,,,,,,,,,,,,,,,,,,,,,,,,,,,,,
,5ec0cd1d56b9d94e97a3171d,001,2022-04-28_20h03.56.460,classification_task,2021.2.3,Win32,59.29791271,5ec0cd1d56b9d94e97a3171d,626b377229c10585ec392f89,626b394fbee6b103b61c8211,,,,,,,,,,,,,,,,,,,,,,,l,1,2.2322,"[""0.607"",""0.338"",""0.567"",""0.786""]","[0,1,1,1]",0,17,17,17,1,1,1,,,0,FALSE,,,,,,,,,,,,,,,,,,,,,,,,,,,,,,
,5ec0cd1d56b9d94e97a3171d,001,2022-04-28_20h03.56.460,classification_task,2021.2.3,Win32,59.29791271,5ec0cd1d56b9d94e97a3171d,626b377229c10585ec392f89,626b394fbee6b103b61c8211,,,,,,,,,,,,,,,,,,,,,,,a,1,2.4425,"[""0.246"",""0.449"",""0.874"",""0.601""]","[1,1,1,0]",0,18,18,18,1,0,1,,,0,FALSE,,,,,,,,,,,,,,,,,,,,,,,,,,,,,,
,5ec0cd1d56b9d94e97a3171d,001,2022-04-28_20h03.56.460,classification_task,2021.2.3,Win32,59.29791271,5ec0cd1d56b9d94e97a3171d,626b377229c10585ec392f89,626b394fbee6b103b61c8211,,,,,,,,,,,,,,,,,,,,,,,l,1,2.653,"[""0.104"",""0.142"",""0.526"",""0.714""]","[1,0,1,1]",0,19,19,19,1,1,0,,,0,FALSE,,,,,,,,,,,,,,,,,,,,,,,,,,,,,,
,5ec0cd1d56b9d94e97a3171d,001,2022-04-28_20h03.56.460,classification_task,2021.2.3,Win32,59.29791271,5ec0cd1d56b9d94e97a3171d,626b377229c10585ec392f89,626b394fbee6b103b61c8211,,,,,,,,,,,,,,,,,,,,,,,a,1,3.8718,"[""0.246"",""0.449"",""0.825"",""0.924""]","[1,1,0,1]",0,20,20,20,1,0,1,,,0,FALSE,,,,,,,,,,,,,,,,,,,,,,,,,,,,,,
,5ec0cd1d56b9d94e97a3171d,001,2022-04-28_20h03.56.460,classification_task,2021.2.3,Win32,59.29791271,5ec0cd1d56b9d94e97a3171d,626b377229c10585ec392f89,626b394fbee6b103b61c8211,,,,,,,,,,,,,,,,,,,,,,,l,1,3.5052,"[""0.032"",""0.338"",""0.609"",""0.786""]","[1,1,0,1]",0,21,21,21,1,1,1,,,0,FALSE,,,,,,,,,,,,,,,,,,,,,,,,,,,,,,
,5ec0cd1d56b9d94e97a3171d,001,2022-04-28_20h03.56.460,classification_task,2021.2.3,Win32,59.29791271,5ec0cd1d56b9d94e97a3171d,626b377229c10585ec392f89,626b394fbee6b103b61c8211,,,,,,,,,,,,,,,,,,,,,,,l,1,2.2876,"[""0.032"",""0.069"",""0.567"",""0.786""]","[1,0,1,1]",0,22,22,22,1,1,1,,,0,FALSE,,,,,,,,,,,,,,,,,,,,,,,,,,,,,,
,5ec0cd1d56b9d94e97a3171d,001,2022-04-28_20h03.56.460,classification_task,2021.2.3,Win32,59.29791271,5ec0cd1d56b9d94e97a3171d,626b377229c10585ec392f89,626b394fbee6b103b61c8211,,,,,,,,,,,,,,,,,,,,,,,l,0,4.2507,"[""0.185"",""0.145"",""0.663"",""0.964""]","[1,0,1,1]",0,23,23,23,1,0,0,,,0,FALSE,,,,,,,,,,,,,,,,,,,,,,,,,,,,,,
,5ec0cd1d56b9d94e97a3171d,001,2022-04-28_20h03.56.460,classification_task,2021.2.3,Win32,59.29791271,5ec0cd1d56b9d94e97a3171d,626b377229c10585ec392f89,626b394fbee6b103b61c8211,,,,,,,,,,,,,,,,,,,,,,,l,1,3.2234,"[""0.032"",""0.338"",""0.567"",""0.066""]","[1,1,1,0]",0,24,24,24,1,1,1,,,0,FALSE,,,,,,,,,,,,,,,,,,,,,,,,,,,,,,
,5ec0cd1d56b9d94e97a3171d,001,2022-04-28_20h03.56.460,classification_task,2021.2.3,Win32,59.29791271,5ec0cd1d56b9d94e97a3171d,626b377229c10585ec392f89,626b394fbee6b103b61c8211,,,,,,,,,,,,,,,,,,,,,,,a,1,5.1389,"[""0.827"",""0.449"",""0.874"",""0.924""]","[0,1,1,1]",0,25,25,25,1,0,1,,,0,FALSE,,,,,,,,,,,,,,,,,,,,,,,,,,,,,,
,5ec0cd1d56b9d94e97a3171d,001,2022-04-28_20h03.56.460,classification_task,2021.2.3,Win32,59.29791271,5ec0cd1d56b9d94e97a3171d,626b377229c10585ec392f89,626b394fbee6b103b61c8211,,,,,,,,,,,,,,,,,,,,,,,a,1,4.4425,"[""0.601"",""0.381"",""0.663"",""0.964""]","[0,1,1,1]",0,26,26,26,1,0,0,,,0,FALSE,,,,,,,,,,,,,,,,,,,,,,,,,,,,,,
,5ec0cd1d56b9d94e97a3171d,001,2022-04-28_20h03.56.460,classification_task,2021.2.3,Win32,59.29791271,5ec0cd1d56b9d94e97a3171d,626b377229c10585ec392f89,626b394fbee6b103b61c8211,,,,,,,,,,,,,,,,,,,,,,,a,1,4.6632,"[""0.185"",""0.381"",""0.822"",""0.964""]","[1,1,0,1]",0,27,27,27,1,0,0,,,0,FALSE,,,,,,,,,,,,,,,,,,,,,,,,,,,,,,
,5ec0cd1d56b9d94e97a3171d,001,2022-04-28_20h03.56.460,classification_task,2021.2.3,Win32,59.29791271,5ec0cd1d56b9d94e97a3171d,626b377229c10585ec392f89,626b394fbee6b103b61c8211,,,,,,,,,,,,,,,,,,,,,,,l,1,4.1432,"[""0.104"",""0.289"",""0.526"",""0.827""]","[1,1,1,0]",0,28,28,28,1,1,0,,,0,FALSE,,,,,,,,,,,,,,,,,,,,,,,,,,,,,,
,5ec0cd1d56b9d94e97a3171d,001,2022-04-28_20h03.56.460,classification_task,2021.2.3,Win32,59.29791271,5ec0cd1d56b9d94e97a3171d,626b377229c10585ec392f89,626b394fbee6b103b61c8211,,,,,,,,,,,,,,,,,,,,,,,a,1,7.1906,"[""0.246"",""0.601"",""0.874"",""0.924""]","[1,0,1,1]",0,29,29,29,1,0,1,,,0,FALSE,,,,,,,,,,,,,,,,,,,,,,,,,,,,,,
,5ec0cd1d56b9d94e97a3171d,001,2022-04-28_20h03.56.460,classification_task,2021.2.3,Win32,59.29791271,5ec0cd1d56b9d94e97a3171d,626b377229c10585ec392f89,626b394fbee6b103b61c8211,,,,,,,,,,,,,,,,,,,,,,,l,1,4.0036,"[""0.601"",""0.289"",""0.526"",""0.714""]","[0,1,1,1]",0,30,30,30,1,1,0,,,0,FALSE,,,,,,,,,,,,,,,,,,,,,,,,,,,,,,
,5ec0cd1d56b9d94e97a3171d,001,2022-04-28_20h03.56.460,classification_task,2021.2.3,Win32,59.29791271,5ec0cd1d56b9d94e97a3171d,626b377229c10585ec392f89,626b394fbee6b103b61c8211,,,,,,,,,,,,,,,,,,,,,,,l,1,2.7217,"[""0.104"",""0.289"",""0.822"",""0.714""]","[1,1,0,1]",0,31,31,31,1,1,0,,,0,FALSE,,,,,,,,,,,,,,,,,,,,,,,,,,,,,,
,5ec0cd1d56b9d94e97a3171d,001,2022-04-28_20h03.56.460,classification_task,2021.2.3,Win32,59.29791271,5ec0cd1d56b9d94e97a3171d,626b377229c10585ec392f89,626b394fbee6b103b61c8211,,,,,,,,,,,,,,,,,,,,,,,l,1,3.8127,"[""0.609"",""0.289"",""0.526"",""0.714""]","[0,1,1,1]",0,32,32,32,1,1,0,,,0,FALSE,,,,,,,,,,,,,,,,,,,,,,,,,,,,,,
,5ec0cd1d56b9d94e97a3171d,001,2022-04-28_20h03.56.460,classification_task,2021.2.3,Win32,59.29791271,5ec0cd1d56b9d94e97a3171d,626b377229c10585ec392f89,626b394fbee6b103b61c8211,,,,,,,,,,,,,,,,,,,,,,,a,0,2.4431,"[""0.032"",""0.338"",""0.567"",""0.066""]","[1,1,1,0]",0,33,33,33,1,1,1,,,0,FALSE,,,,,,,,,,,,,,,,,,,,,,,,,,,,,,
,5ec0cd1d56b9d94e97a3171d,001,2022-04-28_20h03.56.460,classification_task,2021.2.3,Win32,59.29791271,5ec0cd1d56b9d94e97a3171d,626b377229c10585ec392f89,626b394fbee6b103b61c8211,,,,,,,,,,,,,,,,,,,,,,,l,1,3.2496,"[""0.104"",""0.289"",""0.526"",""0.824""]","[1,1,1,0]",0,34,34,34,1,1,0,,,0,FALSE,,,,,,,,,,,,,,,,,,,,,,,,,,,,,,
,5ec0cd1d56b9d94e97a3171d,001,2022-04-28_20h03.56.460,classification_task,2021.2.3,Win32,59.29791271,5ec0cd1d56b9d94e97a3171d,626b377229c10585ec392f89,626b394fbee6b103b61c8211,,,,,,,,,,,,,,,,,,,,,,,a,0,2.1591,"[""0.488"",""0.338"",""0.567"",""0.786""]","[0,1,1,1]",0,35,35,35,1,1,1,,,0,FALSE,,,,,,,,,,,,,,,,,,,,,,,,,,,,,,
,5ec0cd1d56b9d94e97a3171d,001,2022-04-28_20h03.56.460,classification_task,2021.2.3,Win32,59.29791271,5ec0cd1d56b9d94e97a3171d,626b377229c10585ec392f89,626b394fbee6b103b61c8211,,,,,,,,,,,,,,,,,,,,,,,a,1,3.6065,"[""0.185"",""0.066"",""0.663"",""0.964""]","[1,0,1,1]",0,36,36,36,1,0,0,,,0,FALSE,,,,,,,,,,,,,,,,,,,,,,,,,,,,,,
,5ec0cd1d56b9d94e97a3171d,001,2022-04-28_20h03.56.460,classification_task,2021.2.3,Win32,59.29791271,5ec0cd1d56b9d94e97a3171d,626b377229c10585ec392f89,626b394fbee6b103b61c8211,,,,,,,,,,,,,,,,,,,,,,,a,1,3.1529,"[""0.185"",""0.381"",""0.663"",""0.614""]","[1,1,1,0]",0,37,37,37,1,0,0,,,0,FALSE,,,,,,,,,,,,,,,,,,,,,,,,,,,,,,
,5ec0cd1d56b9d94e97a3171d,001,2022-04-28_20h03.56.460,classification_task,2021.2.3,Win32,59.29791271,5ec0cd1d56b9d94e97a3171d,626b377229c10585ec392f89,626b394fbee6b103b61c8211,,,,,,,,,,,,,,,,,,,,,,,a,1,1.8594,"[""0.246"",""0.449"",""0.069"",""0.924""]","[1,1,0,1]",0,38,38,38,1,0,1,,,0,FALSE,,,,,,,,,,,,,,,,,,,,,,,,,,,,,,
,5ec0cd1d56b9d94e97a3171d,001,2022-04-28_20h03.56.460,classification_task,2021.2.3,Win32,59.29791271,5ec0cd1d56b9d94e97a3171d,626b377229c10585ec392f89,626b394fbee6b103b61c8211,,,,,,,,,,,,,,,,,,,,,,,a,1,1.2673,"[""0.246"",""0.449"",""0.874"",""0.066""]","[1,1,1,0]",0,39,39,39,1,0,1,,,0,FALSE,,,,,,,,,,,,,,,,,,,,,,,,,,,,,,
,5ec0cd1d56b9d94e97a3171d,001,2022-04-28_20h03.56.460,classification_task,2021.2.3,Win32,59.29791271,5ec0cd1d56b9d94e97a3171d,626b377229c10585ec392f89,626b394fbee6b103b61c8211,,,,,,,,,,,,,,,,,,,,,,,a,0,1.949,"[""0.104"",""0.289"",""0.822"",""0.714""]","[1,1,0,1]",0,40,40,40,1,1,0,,,0,FALSE,,,,,,,,,,,,,,,,,,,,,,,,,,,,,,
,5ec0cd1d56b9d94e97a3171d,001,2022-04-28_20h03.56.460,classification_task,2021.2.3,Win32,59.29791271,5ec0cd1d56b9d94e97a3171d,626b377229c10585ec392f89,626b394fbee6b103b61c8211,,,,,,,,,,,,,,,,,,,,,,,l,1,1.8019,"[""0.032"",""0.338"",""0.825"",""0.786""]","[1,1,0,1]",0,41,41,41,1,1,1,,,0,FALSE,,,,,,,,,,,,,,,,,,,,,,,,,,,,,,
,5ec0cd1d56b9d94e97a3171d,001,2022-04-28_20h03.56.460,classification_task,2021.2.3,Win32,59.29791271,5ec0cd1d56b9d94e97a3171d,626b377229c10585ec392f89,626b394fbee6b103b61c8211,,,,,,,,,,,,,,,,,,,,,,,a,1,3.1405,"[""0.827"",""0.449"",""0.874"",""0.924""]","[0,1,1,1]",0,42,42,42,1,0,1,,,0,FALSE,,,,,,,,,,,,,,,,,,,,,,,,,,,,,,
,5ec0cd1d56b9d94e97a3171d,001,2022-04-28_20h03.56.460,classification_task,2021.2.3,Win32,59.29791271,5ec0cd1d56b9d94e97a3171d,626b377229c10585ec392f89,626b394fbee6b103b61c8211,,,,,,,,,,,,,,,,,,,,,,,a,0,1.6846,"[""0.032"",""0.607"",""0.567"",""0.786""]","[1,0,1,1]",0,43,43,43,1,1,1,,,0,FALSE,,,,,,,,,,,,,,,,,,,,,,,,,,,,,,
,5ec0cd1d56b9d94e97a3171d,001,2022-04-28_20h03.56.460,classification_task,2021.2.3,Win32,59.29791271,5ec0cd1d56b9d94e97a3171d,626b377229c10585ec392f89,626b394fbee6b103b61c8211,,,,,,,,,,,,,,,,,,,,,,,l,0,2.2588,"[""0.185"",""0.381"",""0.609"",""0.964""]","[1,1,0,1]",0,44,44,44,1,0,0,,,0,FALSE,,,,,,,,,,,,,,,,,,,,,,,,,,,,,,
,5ec0cd1d56b9d94e97a3171d,001,2022-04-28_20h03.56.460,classification_task,2021.2.3,Win32,59.29791271,5ec0cd1d56b9d94e97a3171d,626b377229c10585ec392f89,626b394fbee6b103b61c8211,,,,,,,,,,,,,,,,,,,,,,,l,1,2.4643,"[""0.104"",""0.607"",""0.526"",""0.714""]","[1,0,1,1]",0,45,45,45,1,1,0,,,0,FALSE,,,,,,,,,,,,,,,,,,,,,,,,,,,,,,
,5ec0cd1d56b9d94e97a3171d,001,2022-04-28_20h03.56.460,classification_task,2021.2.3,Win32,59.29791271,5ec0cd1d56b9d94e97a3171d,626b377229c10585ec392f89,626b394fbee6b103b61c8211,,,,,,,,,,,,,,,,,,,,,,,l,0,2.4875,"[""0.825"",""0.381"",""0.663"",""0.964""]","[0,1,1,1]",0,46,46,46,1,0,0,,,0,FALSE,,,,,,,,,,,,,,,,,,,,,,,,,,,,,,
,5ec0cd1d56b9d94e97a3171d,001,2022-04-28_20h03.56.460,classification_task,2021.2.3,Win32,59.29791271,5ec0cd1d56b9d94e97a3171d,626b377229c10585ec392f89,626b394fbee6b103b61c8211,,,,,,,,,,,,,,,,,,,,,,,l,0,2.824,"[""0.246"",""0.609"",""0.874"",""0.924""]","[1,0,1,1]",0,47,47,47,1,0,1,,,0,FALSE,,,,,,,,,,,,,,,,,,,,,,,,,,,,,,
,5ec0cd1d56b9d94e97a3171d,001,2022-04-28_20h03.56.460,classification_task,2021.2.3,Win32,59.29791271,5ec0cd1d56b9d94e97a3171d,626b377229c10585ec392f89,626b394fbee6b103b61c8211,,,,,,,,,,,,,,,,,,,,,,,a,0,5.2603,"[""0.607"",""0.338"",""0.567"",""0.786""]","[0,1,1,1]",0,48,48,48,1,1,1,,,0,FALSE,,,,,,,,,,,,,,,,,,,,,,,,,,,,,,
,5ec0cd1d56b9d94e97a3171d,001,2022-04-28_20h03.56.460,classification_task,2021.2.3,Win32,59.29791271,5ec0cd1d56b9d94e97a3171d,626b377229c10585ec392f89,626b394fbee6b103b61c8211,,,,,,,,,,,,,,,,,,,,,,,l,0,2.4242,"[""0.185"",""0.381"",""0.138"",""0.964""]","[1,1,0,1]",0,49,49,49,1,0,0,,,0,FALSE,,,,,,,,,,,,,,,,,,,,,,,,,,,,,,
,5ec0cd1d56b9d94e97a3171d,001,2022-04-28_20h03.56.460,classification_task,2021.2.3,Win32,59.29791271,5ec0cd1d56b9d94e97a3171d,626b377229c10585ec392f89,626b394fbee6b103b61c8211,,,,,,,,,,,,,,,,,,,,,,,l,0,2.5142,"[""0.185"",""0.825"",""0.663"",""0.964""]","[1,0,1,1]",0,50,50,50,1,0,0,,,0,FALSE,,,,,,,,,,,,,,,,,,,,,,,,,,,,,,
,5ec0cd1d56b9d94e97a3171d,001,2022-04-28_20h03.56.460,classification_task,2021.2.3,Win32,59.29791271,5ec0cd1d56b9d94e97a3171d,626b377229c10585ec392f89,626b394fbee6b103b61c8211,,,,,,,,,,,,,,,,,,,,,,,a,0,1.8747,"[""0.032"",""0.338"",""0.824"",""0.786""]","[1,1,0,1]",0,51,51,51,1,1,1,,,0,FALSE,,,,,,,,,,,,,,,,,,,,,,,,,,,,,,
,5ec0cd1d56b9d94e97a3171d,001,2022-04-28_20h03.56.460,classification_task,2021.2.3,Win32,59.29791271,5ec0cd1d56b9d94e97a3171d,626b377229c10585ec392f89,626b394fbee6b103b61c8211,,,,,,,,,,,,,,,,,,,,,,,,0,,"[""0.185"",""0.381"",""0.663"",""0.142""]","[1,1,1,0]",0,52,52,52,1,0,0,,,0,FALSE,,,,,,,,,,,,,,,,,,,,,,,,,,,,,,
,5ec0cd1d56b9d94e97a3171d,001,2022-04-28_20h03.56.460,classification_task,2021.2.3,Win32,59.29791271,5ec0cd1d56b9d94e97a3171d,626b377229c10585ec392f89,626b394fbee6b103b61c8211,,,,,,,,,,,,,,,,,,,,,,,a,1,1.7902,"[""0.246"",""0.449"",""0.874"",""0.607""]","[1,1,1,0]",0,53,53,53,1,0,1,,,0,FALSE,,,,,,,,,,,,,,,,,,,,,,,,,,,,,,
,5ec0cd1d56b9d94e97a3171d,001,2022-04-28_20h03.56.460,classification_task,2021.2.3,Win32,59.29791271,5ec0cd1d56b9d94e97a3171d,626b377229c10585ec392f89,626b394fbee6b103b61c8211,,,,,,,,,,,,,,,,,,,,,,,l,1,2.7305,"[""0.104"",""0.142"",""0.526"",""0.714""]","[1,0,1,1]",0,54,54,54,1,1,0,,,0,FALSE,,,,,,,,,,,,,,,,,,,,,,,,,,,,,,
,5ec0cd1d56b9d94e97a3171d,001,2022-04-28_20h03.56.460,classification_task,2021.2.3,Win32,59.29791271,5ec0cd1d56b9d94e97a3171d,626b377229c10585ec392f89,626b394fbee6b103b61c8211,,,,,,,,,,,,,,,,,,,,,,,l,1,4.1741,"[""0.825"",""0.289"",""0.526"",""0.714""]","[0,1,1,1]",0,55,55,55,1,1,0,,,0,FALSE,,,,,,,,,,,,,,,,,,,,,,,,,,,,,,
,5ec0cd1d56b9d94e97a3171d,001,2022-04-28_20h03.56.460,classification_task,2021.2.3,Win32,59.29791271,5ec0cd1d56b9d94e97a3171d,626b377229c10585ec392f89,626b394fbee6b103b61c8211,,,,,,,,,,,,,,,,,,,,,,,a,1,4.2435,"[""0.246"",""0.449"",""0.609"",""0.924""]","[1,1,0,1]",0,56,56,56,1,0,1,,,0,FALSE,,,,,,,,,,,,,,,,,,,,,,,,,,,,,,
,5ec0cd1d56b9d94e97a3171d,001,2022-04-28_20h03.56.460,classification_task,2021.2.3,Win32,59.29791271,5ec0cd1d56b9d94e97a3171d,626b377229c10585ec392f89,626b394fbee6b103b61c8211,,,,,,,,,,,,,,,,,,,,,,,l,0,9.3026,"[""0.142"",""0.449"",""0.874"",""0.924""]","[0,1,1,1]",0,57,57,57,1,0,1,,,0,FALSE,,,,,,,,,,,,,,,,,,,,,,,,,,,,,,
,5ec0cd1d56b9d94e97a3171d,001,2022-04-28_20h03.56.460,classification_task,2021.2.3,Win32,59.29791271,5ec0cd1d56b9d94e97a3171d,626b377229c10585ec392f89,626b394fbee6b103b61c8211,,,,,,,,,,,,,,,,,,,,,,,,0,,"[""0.246"",""0.609"",""0.874"",""0.924""]","[1,0,1,1]",0,58,58,58,1,0,1,,,0,FALSE,,,,,,,,,,,,,,,,,,,,,,,,,,,,,,
,5ec0cd1d56b9d94e97a3171d,001,2022-04-28_20h03.56.460,classification_task,2021.2.3,Win32,59.29791271,5ec0cd1d56b9d94e97a3171d,626b377229c10585ec392f89,626b394fbee6b103b61c8211,,,,,,,,,,,,,,,,,,,,,,,a,0,2.8848,"[""0.104"",""0.289"",""0.069"",""0.714""]","[1,1,0,1]",0,59,59,59,1,1,0,,,0,FALSE,,,,,,,,,,,,,,,,,,,,,,,,,,,,,,
,5ec0cd1d56b9d94e97a3171d,001,2022-04-28_20h03.56.460,classification_task,2021.2.3,Win32,59.29791271,5ec0cd1d56b9d94e97a3171d,626b377229c10585ec392f89,626b394fbee6b103b61c8211,,,,,,,,,,,,,,,,,,,,,,,a,0,1.7731,"[""0.104"",""0.289"",""0.526"",""0.607""]","[1,1,1,0]",0,60,60,60,1,1,0,,,0,FALSE,,,,,,,,,,,,,,,,,,,,,,,,,,,,,,
,5ec0cd1d56b9d94e97a3171d,001,2022-04-28_20h03.56.460,classification_task,2021.2.3,Win32,59.29791271,5ec0cd1d56b9d94e97a3171d,626b377229c10585ec392f89,626b394fbee6b103b61c8211,,,,,,,,,,,,,,,,,,,,,,,a,1,1.8007,"[""0.822"",""0.381"",""0.663"",""0.964""]","[0,1,1,1]",0,61,61,61,1,0,0,,,0,FALSE,,,,,,,,,,,,,,,,,,,,,,,,,,,,,,
,5ec0cd1d56b9d94e97a3171d,001,2022-04-28_20h03.56.460,classification_task,2021.2.3,Win32,59.29791271,5ec0cd1d56b9d94e97a3171d,626b377229c10585ec392f89,626b394fbee6b103b61c8211,,,,,,,,,,,,,,,,,,,,,,,a,0,2.2453,"[""0.032"",""0.069"",""0.567"",""0.786""]","[1,0,1,1]",0,62,62,62,1,1,1,,,0,FALSE,,,,,,,,,,,,,,,,,,,,,,,,,,,,,,
,5ec0cd1d56b9d94e97a3171d,001,2022-04-28_20h03.56.460,classification_task,2021.2.3,Win32,59.29791271,5ec0cd1d56b9d94e97a3171d,626b377229c10585ec392f89,626b394fbee6b103b61c8211,,,,,,,,,,,,,,,,,,,,,,,a,0,2.8991,"[""0.032"",""0.338"",""0.567"",""0.145""]","[1,1,1,0]",0,63,63,63,1,1,1,,,0,FALSE,,,,,,,,,,,,,,,,,,,,,,,,,,,,,,
,5ec0cd1d56b9d94e97a3171d,001,2022-04-28_20h03.56.460,classification_task,2021.2.3,Win32,59.29791271,5ec0cd1d56b9d94e97a3171d,626b377229c10585ec392f89,626b394fbee6b103b61c8211,,,,,,,,,,,,,,,,,,,,,,,,,,,,,,,,,,,,,,,0, ,,0,9.850088183,514.0357,0,0,0,0,1,2,1,,,,,,,,,,,,,,,,,
,5ec0cd1d56b9d94e97a3171d,001,2022-04-28_20h03.56.460,classification_task,2021.2.3,Win32,59.29791271,5ec0cd1d56b9d94e97a3171d,626b377229c10585ec392f89,626b394fbee6b103b61c8211,,,,,,,,,,,,,,,,,,,,,,,,,,,,,,,,,,,,,,,1,  ,,0,8.72330002,516.7633,0,0,0,0,1,2,1,,,,,,,,,,,,,,,,,
,5ec0cd1d56b9d94e97a3171d,001,2022-04-28_20h03.56.460,classification_task,2021.2.3,Win32,59.29791271,5ec0cd1d56b9d94e97a3171d,626b377229c10585ec392f89,626b394fbee6b103b61c8211,,,,,,,,,,,,,,,,,,,,,,,,,,,,,,,,,,,,,,,2,  ,,0,8.233392122,521.1019,0,0,0,0,1,2,1,,,,,,,,,,,,,,,,,
,5ec0cd1d56b9d94e97a3171d,001,2022-04-28_20h03.56.460,classification_task,2021.2.3,Win32,59.29791271,5ec0cd1d56b9d94e97a3171d,626b377229c10585ec392f89,626b394fbee6b103b61c8211,,,,,,,,,,,,,,,,,,,,,,,,,,,,,,,,,,,,,,,,,,,,,0,0,0,0,1,,1,,,,,,,,,,,,,,,,,
,5ec0cd1d56b9d94e97a3171d,001,2022-04-28_20h03.56.460,classification_task,2021.2.3,Win32,59.29791271,5ec0cd1d56b9d94e97a3171d,626b377229c10585ec392f89,626b394fbee6b103b61c8211,,,,,,,,,,,,,,,,,,,,,space,14.5958,a,0,2.7597,"[""0.032"",""0.069"",""0.567"",""0.786""]","[1,0,1,1]",0,0,0,0,1,1,1,,,0,FALSE,,,,,,,,,,,,,,,,,,,,,,,,,,,,,,
,5ec0cd1d56b9d94e97a3171d,001,2022-04-28_20h03.56.460,classification_task,2021.2.3,Win32,59.29791271,5ec0cd1d56b9d94e97a3171d,626b377229c10585ec392f89,626b394fbee6b103b61c8211,,,,,,,,,,,,,,,,,,,,,,,l,0,4.4905,"[""0.185"",""0.748"",""0.663"",""0.964""]","[1,0,1,1]",0,1,1,1,1,0,0,,,0,FALSE,,,,,,,,,,,,,,,,,,,,,,,,,,,,,,
,5ec0cd1d56b9d94e97a3171d,001,2022-04-28_20h03.56.460,classification_task,2021.2.3,Win32,59.29791271,5ec0cd1d56b9d94e97a3171d,626b377229c10585ec392f89,626b394fbee6b103b61c8211,,,,,,,,,,,,,,,,,,,,,,,l,1,3.2382,"[""0.601"",""0.289"",""0.526"",""0.714""]","[0,1,1,1]",0,2,2,2,1,1,0,,,0,FALSE,,,,,,,,,,,,,,,,,,,,,,,,,,,,,,
,5ec0cd1d56b9d94e97a3171d,001,2022-04-28_20h03.56.460,classification_task,2021.2.3,Win32,59.29791271,5ec0cd1d56b9d94e97a3171d,626b377229c10585ec392f89,626b394fbee6b103b61c8211,,,,,,,,,,,,,,,,,,,,,,,a,0,2.3894,"[""0.032"",""0.338"",""0.748"",""0.786""]","[1,1,0,1]",0,3,3,3,1,1,1,,,0,FALSE,,,,,,,,,,,,,,,,,,,,,,,,,,,,,,
,5ec0cd1d56b9d94e97a3171d,001,2022-04-28_20h03.56.460,classification_task,2021.2.3,Win32,59.29791271,5ec0cd1d56b9d94e97a3171d,626b377229c10585ec392f89,626b394fbee6b103b61c8211,,,,,,,,,,,,,,,,,,,,,,,a,1,1.2775,"[""0.614"",""0.449"",""0.874"",""0.924""]","[0,1,1,1]",0,4,4,4,1,0,1,,,0,FALSE,,,,,,,,,,,,,,,,,,,,,,,,,,,,,,
,5ec0cd1d56b9d94e97a3171d,001,2022-04-28_20h03.56.460,classification_task,2021.2.3,Win32,59.29791271,5ec0cd1d56b9d94e97a3171d,626b377229c10585ec392f89,626b394fbee6b103b61c8211,,,,,,,,,,,,,,,,,,,,,,,l,1,1.5029,"[""0.104"",""0.289"",""0.526"",""0.142""]","[1,1,1,0]",0,5,5,5,1,1,0,,,0,FALSE,,,,,,,,,,,,,,,,,,,,,,,,,,,,,,
,5ec0cd1d56b9d94e97a3171d,001,2022-04-28_20h03.56.460,classification_task,2021.2.3,Win32,59.29791271,5ec0cd1d56b9d94e97a3171d,626b377229c10585ec392f89,626b394fbee6b103b61c8211,,,,,,,,,,,,,,,,,,,,,,,a,0,1.0744,"[""0.145"",""0.338"",""0.567"",""0.786""]","[0,1,1,1]",0,6,6,6,1,1,1,,,0,FALSE,,,,,,,,,,,,,,,,,,,,,,,,,,,,,,
,5ec0cd1d56b9d94e97a3171d,001,2022-04-28_20h03.56.460,classification_task,2021.2.3,Win32,59.29791271,5ec0cd1d56b9d94e97a3171d,626b377229c10585ec392f89,626b394fbee6b103b61c8211,,,,,,,,,,,,,,,,,,,,,,,a,1,1.4479,"[""0.185"",""0.381"",""0.663"",""0.142""]","[1,1,1,0]",0,7,7,7,1,0,0,,,0,FALSE,,,,,,,,,,,,,,,,,,,,,,,,,,,,,,
,5ec0cd1d56b9d94e97a3171d,001,2022-04-28_20h03.56.460,classification_task,2021.2.3,Win32,59.29791271,5ec0cd1d56b9d94e97a3171d,626b377229c10585ec392f89,626b394fbee6b103b61c8211,,,,,,,,,,,,,,,,,,,,,,,a,0,0.9646,"[""0.032"",""0.338"",""0.567"",""0.614""]","[1,1,1,0]",0,8,8,8,1,1,1,,,0,FALSE,,,,,,,,,,,,,,,,,,,,,,,,,,,,,,
,5ec0cd1d56b9d94e97a3171d,001,2022-04-28_20h03.56.460,classification_task,2021.2.3,Win32,59.29791271,5ec0cd1d56b9d94e97a3171d,626b377229c10585ec392f89,626b394fbee6b103b61c8211,,,,,,,,,,,,,,,,,,,,,,,a,1,1.4438,"[""0.142"",""0.381"",""0.663"",""0.964""]","[0,1,1,1]",0,9,9,9,1,0,0,,,0,FALSE,,,,,,,,,,,,,,,,,,,,,,,,,,,,,,
,5ec0cd1d56b9d94e97a3171d,001,2022-04-28_20h03.56.460,classification_task,2021.2.3,Win32,59.29791271,5ec0cd1d56b9d94e97a3171d,626b377229c10585ec392f89,626b394fbee6b103b61c8211,,,,,,,,,,,,,,,,,,,,,,,a,1,1.3893,"[""0.246"",""0.449"",""0.874"",""0.827""]","[1,1,1,0]",0,10,10,10,1,0,1,,,0,FALSE,,,,,,,,,,,,,,,,,,,,,,,,,,,,,,
,5ec0cd1d56b9d94e97a3171d,001,2022-04-28_20h03.56.460,classification_task,2021.2.3,Win32,59.29791271,5ec0cd1d56b9d94e97a3171d,626b377229c10585ec392f89,626b394fbee6b103b61c8211,,,,,,,,,,,,,,,,,,,,,,,l,1,0.8264,"[""0.104"",""0.289"",""0.607"",""0.714""]","[1,1,0,1]",0,11,11,11,1,1,0,,,0,FALSE,,,,,,,,,,,,,,,,,,,,,,,,,,,,,,
,5ec0cd1d56b9d94e97a3171d,001,2022-04-28_20h03.56.460,classification_task,2021.2.3,Win32,59.29791271,5ec0cd1d56b9d94e97a3171d,626b377229c10585ec392f89,626b394fbee6b103b61c8211,,,,,,,,,,,,,,,,,,,,,,,l,0,1.032,"[""0.246"",""0.614"",""0.874"",""0.924""]","[1,0,1,1]",0,12,12,12,1,0,1,,,0,FALSE,,,,,,,,,,,,,,,,,,,,,,,,,,,,,,
,5ec0cd1d56b9d94e97a3171d,001,2022-04-28_20h03.56.460,classification_task,2021.2.3,Win32,59.29791271,5ec0cd1d56b9d94e97a3171d,626b377229c10585ec392f89,626b394fbee6b103b61c8211,,,,,,,,,,,,,,,,,,,,,,,l,1,0.6355,"[""0.104"",""0.614"",""0.526"",""0.714""]","[1,0,1,1]",0,13,13,13,1,1,0,,,0,FALSE,,,,,,,,,,,,,,,,,,,,,,,,,,,,,,
,5ec0cd1d56b9d94e97a3171d,001,2022-04-28_20h03.56.460,classification_task,2021.2.3,Win32,59.29791271,5ec0cd1d56b9d94e97a3171d,626b377229c10585ec392f89,626b394fbee6b103b61c8211,,,,,,,,,,,,,,,,,,,,,,,a,1,0.5798,"[""0.185"",""0.381"",""0.824"",""0.964""]","[1,1,0,1]",0,14,14,14,1,0,0,,,0,FALSE,,,,,,,,,,,,,,,,,,,,,,,,,,,,,,
,5ec0cd1d56b9d94e97a3171d,001,2022-04-28_20h03.56.460,classification_task,2021.2.3,Win32,59.29791271,5ec0cd1d56b9d94e97a3171d,626b377229c10585ec392f89,626b394fbee6b103b61c8211,,,,,,,,,,,,,,,,,,,,,,,a,1,0.867,"[""0.246"",""0.449"",""0.601"",""0.924""]","[1,1,0,1]",0,15,15,15,1,0,1,,,0,FALSE,,,,,,,,,,,,,,,,,,,,,,,,,,,,,,
,5ec0cd1d56b9d94e97a3171d,001,2022-04-28_20h03.56.460,classification_task,2021.2.3,Win32,59.29791271,5ec0cd1d56b9d94e97a3171d,626b377229c10585ec392f89,626b394fbee6b103b61c8211,,,,,,,,,,,,,,,,,,,,,,,a,1,0.9001,"[""0.246"",""0.449"",""0.874"",""0.607""]","[1,1,1,0]",0,16,16,16,1,0,1,,,0,FALSE,,,,,,,,,,,,,,,,,,,,,,,,,,,,,,
,5ec0cd1d56b9d94e97a3171d,001,2022-04-28_20h03.56.460,classification_task,2021.2.3,Win32,59.29791271,5ec0cd1d56b9d94e97a3171d,626b377229c10585ec392f89,626b394fbee6b103b61c8211,,,,,,,,,,,,,,,,,,,,,,,a,1,1.1675,"[""0.185"",""0.381"",""0.663"",""0.748""]","[1,1,1,0]",0,17,17,17,1,0,0,,,0,FALSE,,,,,,,,,,,,,,,,,,,,,,,,,,,,,,
,5ec0cd1d56b9d94e97a3171d,001,2022-04-28_20h03.56.460,classification_task,2021.2.3,Win32,59.29791271,5ec0cd1d56b9d94e97a3171d,626b377229c10585ec392f89,626b394fbee6b103b61c8211,,,,,,,,,,,,,,,,,,,,,,,l,0,0.9627,"[""0.614"",""0.449"",""0.874"",""0.924""]","[0,1,1,1]",0,18,18,18,1,0,1,,,0,FALSE,,,,,,,,,,,,,,,,,,,,,,,,,,,,,,
,5ec0cd1d56b9d94e97a3171d,001,2022-04-28_20h03.56.460,classification_task,2021.2.3,Win32,59.29791271,5ec0cd1d56b9d94e97a3171d,626b377229c10585ec392f89,626b394fbee6b103b61c8211,,,,,,,,,,,,,,,,,,,,,,,l,1,0.7304,"[""0.032"",""0.338"",""0.066"",""0.786""]","[1,1,0,1]",0,19,19,19,1,1,1,,,0,FALSE,,,,,,,,,,,,,,,,,,,,,,,,,,,,,,
,5ec0cd1d56b9d94e97a3171d,001,2022-04-28_20h03.56.460,classification_task,2021.2.3,Win32,59.29791271,5ec0cd1d56b9d94e97a3171d,626b377229c10585ec392f89,626b394fbee6b103b61c8211,,,,,,,,,,,,,,,,,,,,,,,l,1,0.9426,"[""0.066"",""0.338"",""0.567"",""0.786""]","[0,1,1,1]",0,20,20,20,1,1,1,,,0,FALSE,,,,,,,,,,,,,,,,,,,,,,,,,,,,,,
,5ec0cd1d56b9d94e97a3171d,001,2022-04-28_20h03.56.460,classification_task,2021.2.3,Win32,59.29791271,5ec0cd1d56b9d94e97a3171d,626b377229c10585ec392f89,626b394fbee6b103b61c8211,,,,,,,,,,,,,,,,,,,,,,,l,1,1.5867,"[""0.032"",""0.338"",""0.567"",""0.822""]","[1,1,1,0]",0,21,21,21,1,1,1,,,0,FALSE,,,,,,,,,,,,,,,,,,,,,,,,,,,,,,
,5ec0cd1d56b9d94e97a3171d,001,2022-04-28_20h03.56.460,classification_task,2021.2.3,Win32,59.29791271,5ec0cd1d56b9d94e97a3171d,626b377229c10585ec392f89,626b394fbee6b103b61c8211,,,,,,,,,,,,,,,,,,,,,,,l,0,1.1635,"[""0.246"",""0.614"",""0.874"",""0.924""]","[1,0,1,1]",0,22,22,22,1,0,1,,,0,FALSE,,,,,,,,,,,,,,,,,,,,,,,,,,,,,,
,5ec0cd1d56b9d94e97a3171d,001,2022-04-28_20h03.56.460,classification_task,2021.2.3,Win32,59.29791271,5ec0cd1d56b9d94e97a3171d,626b377229c10585ec392f89,626b394fbee6b103b61c8211,,,,,,,,,,,,,,,,,,,,,,,a,1,1.2117,"[""0.138"",""0.381"",""0.663"",""0.964""]","[0,1,1,1]",0,23,23,23,1,0,0,,,0,FALSE,,,,,,,,,,,,,,,,,,,,,,,,,,,,,,
,5ec0cd1d56b9d94e97a3171d,001,2022-04-28_20h03.56.460,classification_task,2021.2.3,Win32,59.29791271,5ec0cd1d56b9d94e97a3171d,626b377229c10585ec392f89,626b394fbee6b103b61c8211,,,,,,,,,,,,,,,,,,,,,,,l,1,1.2876,"[""0.104"",""0.614"",""0.526"",""0.714""]","[1,0,1,1]",0,24,24,24,1,1,0,,,0,FALSE,,,,,,,,,,,,,,,,,,,,,,,,,,,,,,
,5ec0cd1d56b9d94e97a3171d,001,2022-04-28_20h03.56.460,classification_task,2021.2.3,Win32,59.29791271,5ec0cd1d56b9d94e97a3171d,626b377229c10585ec392f89,626b394fbee6b103b61c8211,,,,,,,,,,,,,,,,,,,,,,,l,1,1.4071,"[""0.104"",""0.289"",""0.822"",""0.714""]","[1,1,0,1]",0,25,25,25,1,1,0,,,0,FALSE,,,,,,,,,,,,,,,,,,,,,,,,,,,,,,
,5ec0cd1d56b9d94e97a3171d,001,2022-04-28_20h03.56.460,classification_task,2021.2.3,Win32,59.29791271,5ec0cd1d56b9d94e97a3171d,626b377229c10585ec392f89,626b394fbee6b103b61c8211,,,,,,,,,,,,,,,,,,,,,,,l,0,2.183,"[""0.246"",""0.449"",""0.142"",""0.924""]","[1,1,0,1]",0,26,26,26,1,0,1,,,0,FALSE,,,,,,,,,,,,,,,,,,,,,,,,,,,,,,
,5ec0cd1d56b9d94e97a3171d,001,2022-04-28_20h03.56.460,classification_task,2021.2.3,Win32,59.29791271,5ec0cd1d56b9d94e97a3171d,626b377229c10585ec392f89,626b394fbee6b103b61c8211,,,,,,,,,,,,,,,,,,,,,,,l,1,1.0425,"[""0.032"",""0.142"",""0.567"",""0.786""]","[1,0,1,1]",0,27,27,27,1,1,1,,,0,FALSE,,,,,,,,,,,,,,,,,,,,,,,,,,,,,,
,5ec0cd1d56b9d94e97a3171d,001,2022-04-28_20h03.56.460,classification_task,2021.2.3,Win32,59.29791271,5ec0cd1d56b9d94e97a3171d,626b377229c10585ec392f89,626b394fbee6b103b61c8211,,,,,,,,,,,,,,,,,,,,,,,a,1,0.683,"[""0.185"",""0.381"",""0.824"",""0.964""]","[1,1,0,1]",0,28,28,28,1,0,0,,,0,FALSE,,,,,,,,,,,,,,,,,,,,,,,,,,,,,,
,5ec0cd1d56b9d94e97a3171d,001,2022-04-28_20h03.56.460,classification_task,2021.2.3,Win32,59.29791271,5ec0cd1d56b9d94e97a3171d,626b377229c10585ec392f89,626b394fbee6b103b61c8211,,,,,,,,,,,,,,,,,,,,,,,l,1,0.7485,"[""0.066"",""0.289"",""0.526"",""0.714""]","[0,1,1,1]",0,29,29,29,1,1,0,,,0,FALSE,,,,,,,,,,,,,,,,,,,,,,,,,,,,,,
,5ec0cd1d56b9d94e97a3171d,001,2022-04-28_20h03.56.460,classification_task,2021.2.3,Win32,59.29791271,5ec0cd1d56b9d94e97a3171d,626b377229c10585ec392f89,626b394fbee6b103b61c8211,,,,,,,,,,,,,,,,,,,,,,,a,1,0.5783,"[""0.185"",""0.748"",""0.663"",""0.964""]","[1,0,1,1]",0,30,30,30,1,0,0,,,0,FALSE,,,,,,,,,,,,,,,,,,,,,,,,,,,,,,
,5ec0cd1d56b9d94e97a3171d,001,2022-04-28_20h03.56.460,classification_task,2021.2.3,Win32,59.29791271,5ec0cd1d56b9d94e97a3171d,626b377229c10585ec392f89,626b394fbee6b103b61c8211,,,,,,,,,,,,,,,,,,,,,,,l,1,0.8293,"[""0.104"",""0.289"",""0.526"",""0.066""]","[1,1,1,0]",0,31,31,31,1,1,0,,,0,FALSE,,,,,,,,,,,,,,,,,,,,,,,,,,,,,,
,5ec0cd1d56b9d94e97a3171d,001,2022-04-28_20h03.56.460,classification_task,2021.2.3,Win32,59.29791271,5ec0cd1d56b9d94e97a3171d,626b377229c10585ec392f89,626b394fbee6b103b61c8211,,,,,,,,,,,,,,,,,,,,,,,l,1,0.6892,"[""0.104"",""0.289"",""0.526"",""0.825""]","[1,1,1,0]",0,32,32,32,1,1,0,,,0,FALSE,,,,,,,,,,,,,,,,,,,,,,,,,,,,,,
,5ec0cd1d56b9d94e97a3171d,001,2022-04-28_20h03.56.460,classification_task,2021.2.3,Win32,59.29791271,5ec0cd1d56b9d94e97a3171d,626b377229c10585ec392f89,626b394fbee6b103b61c8211,,,,,,,,,,,,,,,,,,,,,,,a,0,0.824,"[""0.032"",""0.822"",""0.567"",""0.786""]","[1,0,1,1]",0,33,33,33,1,1,1,,,0,FALSE,,,,,,,,,,,,,,,,,,,,,,,,,,,,,,
,5ec0cd1d56b9d94e97a3171d,001,2022-04-28_20h03.56.460,classification_task,2021.2.3,Win32,59.29791271,5ec0cd1d56b9d94e97a3171d,626b377229c10585ec392f89,626b394fbee6b103b61c8211,,,,,,,,,,,,,,,,,,,,,,,a,1,0.6729,"[""0.607"",""0.449"",""0.874"",""0.924""]","[0,1,1,1]",0,34,34,34,1,0,1,,,0,FALSE,,,,,,,,,,,,,,,,,,,,,,,,,,,,,,
,5ec0cd1d56b9d94e97a3171d,001,2022-04-28_20h03.56.460,classification_task,2021.2.3,Win32,59.29791271,5ec0cd1d56b9d94e97a3171d,626b377229c10585ec392f89,626b394fbee6b103b61c8211,,,,,,,,,,,,,,,,,,,,,,,a,1,0.5765,"[""0.246"",""0.449"",""0.874"",""0.066""]","[1,1,1,0]",0,35,35,35,1,0,1,,,0,FALSE,,,,,,,,,,,,,,,,,,,,,,,,,,,,,,
,5ec0cd1d56b9d94e97a3171d,001,2022-04-28_20h03.56.460,classification_task,2021.2.3,Win32,59.29791271,5ec0cd1d56b9d94e97a3171d,626b377229c10585ec392f89,626b394fbee6b103b61c8211,,,,,,,,,,,,,,,,,,,,,,,l,1,1.0105,"[""0.104"",""0.289"",""0.066"",""0.714""]","[1,1,0,1]",0,36,36,36,1,1,0,,,0,FALSE,,,,,,,,,,,,,,,,,,,,,,,,,,,,,,
,5ec0cd1d56b9d94e97a3171d,001,2022-04-28_20h03.56.460,classification_task,2021.2.3,Win32,59.29791271,5ec0cd1d56b9d94e97a3171d,626b377229c10585ec392f89,626b394fbee6b103b61c8211,,,,,,,,,,,,,,,,,,,,,,,l,0,1.0347,"[""0.246"",""0.066"",""0.874"",""0.924""]","[1,0,1,1]",0,37,37,37,1,0,1,,,0,FALSE,,,,,,,,,,,,,,,,,,,,,,,,,,,,,,
,5ec0cd1d56b9d94e97a3171d,001,2022-04-28_20h03.56.460,classification_task,2021.2.3,Win32,59.29791271,5ec0cd1d56b9d94e97a3171d,626b377229c10585ec392f89,626b394fbee6b103b61c8211,,,,,,,,,,,,,,,,,,,,,,,l,1,0.9942,"[""0.032"",""0.338"",""0.567"",""0.824""]","[1,1,1,0]",0,38,38,38,1,1,1,,,0,FALSE,,,,,,,,,,,,,,,,,,,,,,,,,,,,,,
,5ec0cd1d56b9d94e97a3171d,001,2022-04-28_20h03.56.460,classification_task,2021.2.3,Win32,59.29791271,5ec0cd1d56b9d94e97a3171d,626b377229c10585ec392f89,626b394fbee6b103b61c8211,,,,,,,,,,,,,,,,,,,,,,,a,1,0.794,"[""0.246"",""0.449"",""0.825"",""0.924""]","[1,1,0,1]",0,39,39,39,1,0,1,,,0,FALSE,,,,,,,,,,,,,,,,,,,,,,,,,,,,,,
,5ec0cd1d56b9d94e97a3171d,001,2022-04-28_20h03.56.460,classification_task,2021.2.3,Win32,59.29791271,5ec0cd1d56b9d94e97a3171d,626b377229c10585ec392f89,626b394fbee6b103b61c8211,,,,,,,,,,,,,,,,,,,,,,,a,0,0.6079,"[""0.609"",""0.338"",""0.567"",""0.786""]","[0,1,1,1]",0,40,40,40,1,1,1,,,0,FALSE,,,,,,,,,,,,,,,,,,,,,,,,,,,,,,
,5ec0cd1d56b9d94e97a3171d,001,2022-04-28_20h03.56.460,classification_task,2021.2.3,Win32,59.29791271,5ec0cd1d56b9d94e97a3171d,626b377229c10585ec392f89,626b394fbee6b103b61c8211,,,,,,,,,,,,,,,,,,,,,,,a,1,1.1672,"[""0.185"",""0.381"",""0.663"",""0.825""]","[1,1,1,0]",0,41,41,41,1,0,0,,,0,FALSE,,,,,,,,,,,,,,,,,,,,,,,,,,,,,,
,5ec0cd1d56b9d94e97a3171d,001,2022-04-28_20h03.56.460,classification_task,2021.2.3,Win32,59.29791271,5ec0cd1d56b9d94e97a3171d,626b377229c10585ec392f89,626b394fbee6b103b61c8211,,,,,,,,,,,,,,,,,,,,,,,a,1,0.5839,"[""0.185"",""0.381"",""0.138"",""0.964""]","[1,1,0,1]",0,42,42,42,1,0,0,,,0,FALSE,,,,,,,,,,,,,,,,,,,,,,,,,,,,,,
,5ec0cd1d56b9d94e97a3171d,001,2022-04-28_20h03.56.460,classification_task,2021.2.3,Win32,59.29791271,5ec0cd1d56b9d94e97a3171d,626b377229c10585ec392f89,626b394fbee6b103b61c8211,,,,,,,,,,,,,,,,,,,,,,,l,1,0.7995,"[""0.827"",""0.289"",""0.526"",""0.714""]","[0,1,1,1]",0,43,43,43,1,1,0,,,0,FALSE,,,,,,,,,,,,,,,,,,,,,,,,,,,,,,
,5ec0cd1d56b9d94e97a3171d,001,2022-04-28_20h03.56.460,classification_task,2021.2.3,Win32,59.29791271,5ec0cd1d56b9d94e97a3171d,626b377229c10585ec392f89,626b394fbee6b103b61c8211,,,,,,,,,,,,,,,,,,,,,,,a,1,0.6946,"[""0.607"",""0.381"",""0.663"",""0.964""]","[0,1,1,1]",0,44,44,44,1,0,0,,,0,FALSE,,,,,,,,,,,,,,,,,,,,,,,,,,,,,,
,5ec0cd1d56b9d94e97a3171d,001,2022-04-28_20h03.56.460,classification_task,2021.2.3,Win32,59.29791271,5ec0cd1d56b9d94e97a3171d,626b377229c10585ec392f89,626b394fbee6b103b61c8211,,,,,,,,,,,,,,,,,,,,,,,a,1,0.6092,"[""0.185"",""0.488"",""0.663"",""0.964""]","[1,0,1,1]",0,45,45,45,1,0,0,,,0,FALSE,,,,,,,,,,,,,,,,,,,,,,,,,,,,,,
,5ec0cd1d56b9d94e97a3171d,001,2022-04-28_20h03.56.460,classification_task,2021.2.3,Win32,59.29791271,5ec0cd1d56b9d94e97a3171d,626b377229c10585ec392f89,626b394fbee6b103b61c8211,,,,,,,,,,,,,,,,,,,,,,,l,1,0.7657,"[""0.104"",""0.825"",""0.526"",""0.714""]","[1,0,1,1]",0,46,46,46,1,1,0,,,0,FALSE,,,,,,,,,,,,,,,,,,,,,,,,,,,,,,
,5ec0cd1d56b9d94e97a3171d,001,2022-04-28_20h03.56.460,classification_task,2021.2.3,Win32,59.29791271,5ec0cd1d56b9d94e97a3171d,626b377229c10585ec392f89,626b394fbee6b103b61c8211,,,,,,,,,,,,,,,,,,,,,,,a,0,0.8295,"[""0.032"",""0.338"",""0.827"",""0.786""]","[1,1,0,1]",0,47,47,47,1,1,1,,,0,FALSE,,,,,,,,,,,,,,,,,,,,,,,,,,,,,,
,5ec0cd1d56b9d94e97a3171d,001,2022-04-28_20h03.56.460,classification_task,2021.2.3,Win32,59.29791271,5ec0cd1d56b9d94e97a3171d,626b377229c10585ec392f89,626b394fbee6b103b61c8211,,,,,,,,,,,,,,,,,,,,,,,a,1,1.1961,"[""0.185"",""0.824"",""0.663"",""0.964""]","[1,0,1,1]",0,48,48,48,1,0,0,,,0,FALSE,,,,,,,,,,,,,,,,,,,,,,,,,,,,,,
,5ec0cd1d56b9d94e97a3171d,001,2022-04-28_20h03.56.460,classification_task,2021.2.3,Win32,59.29791271,5ec0cd1d56b9d94e97a3171d,626b377229c10585ec392f89,626b394fbee6b103b61c8211,,,,,,,,,,,,,,,,,,,,,,,a,1,0.6776,"[""0.614"",""0.449"",""0.874"",""0.924""]","[0,1,1,1]",0,49,49,49,1,0,1,,,0,FALSE,,,,,,,,,,,,,,,,,,,,,,,,,,,,,,
,5ec0cd1d56b9d94e97a3171d,001,2022-04-28_20h03.56.460,classification_task,2021.2.3,Win32,59.29791271,5ec0cd1d56b9d94e97a3171d,626b377229c10585ec392f89,626b394fbee6b103b61c8211,,,,,,,,,,,,,,,,,,,,,,,a,1,0.655,"[""0.185"",""0.381"",""0.663"",""0.066""]","[1,1,1,0]",0,50,50,50,1,0,0,,,0,FALSE,,,,,,,,,,,,,,,,,,,,,,,,,,,,,,
,5ec0cd1d56b9d94e97a3171d,001,2022-04-28_20h03.56.460,classification_task,2021.2.3,Win32,59.29791271,5ec0cd1d56b9d94e97a3171d,626b377229c10585ec392f89,626b394fbee6b103b61c8211,,,,,,,,,,,,,,,,,,,,,,,a,1,0.7103,"[""0.246"",""0.142"",""0.874"",""0.924""]","[1,0,1,1]",0,51,51,51,1,0,1,,,0,FALSE,,,,,,,,,,,,,,,,,,,,,,,,,,,,,,
,5ec0cd1d56b9d94e97a3171d,001,2022-04-28_20h03.56.460,classification_task,2021.2.3,Win32,59.29791271,5ec0cd1d56b9d94e97a3171d,626b377229c10585ec392f89,626b394fbee6b103b61c8211,,,,,,,,,,,,,,,,,,,,,,,l,1,0.6271,"[""0.032"",""0.338"",""0.488"",""0.786""]","[1,1,0,1]",0,52,52,52,1,1,1,,,0,FALSE,,,,,,,,,,,,,,,,,,,,,,,,,,,,,,
,5ec0cd1d56b9d94e97a3171d,001,2022-04-28_20h03.56.460,classification_task,2021.2.3,Win32,59.29791271,5ec0cd1d56b9d94e97a3171d,626b377229c10585ec392f89,626b394fbee6b103b61c8211,,,,,,,,,,,,,,,,,,,,,,,l,1,0.7159,"[""0.748"",""0.338"",""0.567"",""0.786""]","[0,1,1,1]",0,53,53,53,1,1,1,,,0,FALSE,,,,,,,,,,,,,,,,,,,,,,,,,,,,,,
,5ec0cd1d56b9d94e97a3171d,001,2022-04-28_20h03.56.460,classification_task,2021.2.3,Win32,59.29791271,5ec0cd1d56b9d94e97a3171d,626b377229c10585ec392f89,626b394fbee6b103b61c8211,,,,,,,,,,,,,,,,,,,,,,,l,0,0.57,"[""0.246"",""0.449"",""0.145"",""0.924""]","[1,1,0,1]",0,54,54,54,1,0,1,,,0,FALSE,,,,,,,,,,,,,,,,,,,,,,,,,,,,,,
,5ec0cd1d56b9d94e97a3171d,001,2022-04-28_20h03.56.460,classification_task,2021.2.3,Win32,59.29791271,5ec0cd1d56b9d94e97a3171d,626b377229c10585ec392f89,626b394fbee6b103b61c8211,,,,,,,,,,,,,,,,,,,,,,,a,0,0.615,"[""0.032"",""0.748"",""0.567"",""0.786""]","[1,0,1,1]",0,55,55,55,1,1,1,,,0,FALSE,,,,,,,,,,,,,,,,,,,,,,,,,,,,,,
,5ec0cd1d56b9d94e97a3171d,001,2022-04-28_20h03.56.460,classification_task,2021.2.3,Win32,59.29791271,5ec0cd1d56b9d94e97a3171d,626b377229c10585ec392f89,626b394fbee6b103b61c8211,,,,,,,,,,,,,,,,,,,,,,,l,1,0.6611,"[""0.748"",""0.289"",""0.526"",""0.714""]","[0,1,1,1]",0,56,56,56,1,1,0,,,0,FALSE,,,,,,,,,,,,,,,,,,,,,,,,,,,,,,
,5ec0cd1d56b9d94e97a3171d,001,2022-04-28_20h03.56.460,classification_task,2021.2.3,Win32,59.29791271,5ec0cd1d56b9d94e97a3171d,626b377229c10585ec392f89,626b394fbee6b103b61c8211,,,,,,,,,,,,,,,,,,,,,,,l,0,0.6886,"[""0.246"",""0.449"",""0.874"",""0.824""]","[1,1,1,0]",0,57,57,57,1,0,1,,,0,FALSE,,,,,,,,,,,,,,,,,,,,,,,,,,,,,,
,5ec0cd1d56b9d94e97a3171d,001,2022-04-28_20h03.56.460,classification_task,2021.2.3,Win32,59.29791271,5ec0cd1d56b9d94e97a3171d,626b377229c10585ec392f89,626b394fbee6b103b61c8211,,,,,,,,,,,,,,,,,,,,,,,a,1,0.6499,"[""0.185"",""0.381"",""0.138"",""0.964""]","[1,1,0,1]",0,58,58,58,1,0,0,,,0,FALSE,,,,,,,,,,,,,,,,,,,,,,,,,,,,,,
,5ec0cd1d56b9d94e97a3171d,001,2022-04-28_20h03.56.460,classification_task,2021.2.3,Win32,59.29791271,5ec0cd1d56b9d94e97a3171d,626b377229c10585ec392f89,626b394fbee6b103b61c8211,,,,,,,,,,,,,,,,,,,,,,,l,1,0.6934,"[""0.104"",""0.289"",""0.069"",""0.714""]","[1,1,0,1]",0,59,59,59,1,1,0,,,0,FALSE,,,,,,,,,,,,,,,,,,,,,,,,,,,,,,
,5ec0cd1d56b9d94e97a3171d,001,2022-04-28_20h03.56.460,classification_task,2021.2.3,Win32,59.29791271,5ec0cd1d56b9d94e97a3171d,626b377229c10585ec392f89,626b394fbee6b103b61c8211,,,,,,,,,,,,,,,,,,,,,,,a,0,0.6659,"[""0.032"",""0.338"",""0.567"",""0.488""]","[1,1,1,0]",0,60,60,60,1,1,1,,,0,FALSE,,,,,,,,,,,,,,,,,,,,,,,,,,,,,,
,5ec0cd1d56b9d94e97a3171d,001,2022-04-28_20h03.56.460,classification_task,2021.2.3,Win32,59.29791271,5ec0cd1d56b9d94e97a3171d,626b377229c10585ec392f89,626b394fbee6b103b61c8211,,,,,,,,,,,,,,,,,,,,,,,l,1,0.927,"[""0.104"",""0.289"",""0.526"",""0.822""]","[1,1,1,0]",0,61,61,61,1,1,0,,,0,FALSE,,,,,,,,,,,,,,,,,,,,,,,,,,,,,,
,5ec0cd1d56b9d94e97a3171d,001,2022-04-28_20h03.56.460,classification_task,2021.2.3,Win32,59.29791271,5ec0cd1d56b9d94e97a3171d,626b377229c10585ec392f89,626b394fbee6b103b61c8211,,,,,,,,,,,,,,,,,,,,,,,a,1,0.692,"[""0.825"",""0.381"",""0.663"",""0.964""]","[0,1,1,1]",0,62,62,62,1,0,0,,,0,FALSE,,,,,,,,,,,,,,,,,,,,,,,,,,,,,,
,5ec0cd1d56b9d94e97a3171d,001,2022-04-28_20h03.56.460,classification_task,2021.2.3,Win32,59.29791271,5ec0cd1d56b9d94e97a3171d,626b377229c10585ec392f89,626b394fbee6b103b61c8211,,,,,,,,,,,,,,,,,,,,,,,l,1,0.6629,"[""0.104"",""0.822"",""0.526"",""0.714""]","[1,0,1,1]",0,63,63,63,1,1,0,,,0,FALSE,,,,,,,,,,,,,,,,,,,,,,,,,,,,,,
,5ec0cd1d56b9d94e97a3171d,001,2022-04-28_20h03.56.460,classification_task,2021.2.3,Win32,59.29791271,5ec0cd1d56b9d94e97a3171d,626b377229c10585ec392f89,626b394fbee6b103b61c8211,,,,,,,,,,,,,,,,,,,,,,,,,,,,,,,,,,,,,,,0, ,,0,9.458161866,152.4167,0,1,1,1,1,2,2,,,,,,,,,,,,,,,,,
,5ec0cd1d56b9d94e97a3171d,001,2022-04-28_20h03.56.460,classification_task,2021.2.3,Win32,59.29791271,5ec0cd1d56b9d94e97a3171d,626b377229c10585ec392f89,626b394fbee6b103b61c8211,,,,,,,,,,,,,,,,,,,,,,,,,,,,,,,,,,,,,,,1,  ,,0,9.752106604,154.5339,0,1,1,1,1,2,2,,,,,,,,,,,,,,,,,
,5ec0cd1d56b9d94e97a3171d,001,2022-04-28_20h03.56.460,classification_task,2021.2.3,Win32,59.29791271,5ec0cd1d56b9d94e97a3171d,626b377229c10585ec392f89,626b394fbee6b103b61c8211,,,,,,,,,,,,,,,,,,,,,,,,,,,,,,,,,,,,,,,2,  ,,0,7.278071723,156.7669,0,1,1,1,1,2,2,,,,,,,,,,,,,,,,,
,5ec0cd1d56b9d94e97a3171d,001,2022-04-28_20h03.56.460,classification_task,2021.2.3,Win32,59.29791271,5ec0cd1d56b9d94e97a3171d,626b377229c10585ec392f89,626b394fbee6b103b61c8211,,,,,,,,,,,,,,,,,,,,,,,,,,,,,,,,,,,,,,,,,,,,,0,1,1,1,1,,2,,,,,,,,,,,,,,,,,
,5ec0cd1d56b9d94e97a3171d,001,2022-04-28_20h03.56.460,classification_task,2021.2.3,Win32,59.29791271,5ec0cd1d56b9d94e97a3171d,626b377229c10585ec392f89,626b394fbee6b103b61c8211,,,,,,,,,,,,,,,,,,,,,space,6.1987,l,0,0.9603,"[""0.246"",""0.449"",""0.874"",""0.614""]","[1,1,1,0]",0,0,0,0,1,0,1,,,0,FALSE,,,,,,,,,,,,,,,,,,,,,,,,,,,,,,
,5ec0cd1d56b9d94e97a3171d,001,2022-04-28_20h03.56.460,classification_task,2021.2.3,Win32,59.29791271,5ec0cd1d56b9d94e97a3171d,626b377229c10585ec392f89,626b394fbee6b103b61c8211,,,,,,,,,,,,,,,,,,,,,,,a,0,1.0071,"[""0.142"",""0.289"",""0.526"",""0.714""]","[0,1,1,1]",0,1,1,1,1,1,0,,,0,FALSE,,,,,,,,,,,,,,,,,,,,,,,,,,,,,,
,5ec0cd1d56b9d94e97a3171d,001,2022-04-28_20h03.56.460,classification_task,2021.2.3,Win32,59.29791271,5ec0cd1d56b9d94e97a3171d,626b377229c10585ec392f89,626b394fbee6b103b61c8211,,,,,,,,,,,,,,,,,,,,,,,l,1,0.9144,"[""0.104"",""0.066"",""0.526"",""0.714""]","[1,0,1,1]",0,2,2,2,1,1,0,,,0,FALSE,,,,,,,,,,,,,,,,,,,,,,,,,,,,,,
,5ec0cd1d56b9d94e97a3171d,001,2022-04-28_20h03.56.460,classification_task,2021.2.3,Win32,59.29791271,5ec0cd1d56b9d94e97a3171d,626b377229c10585ec392f89,626b394fbee6b103b61c8211,,,,,,,,,,,,,,,,,,,,,,,l,0,1.6187,"[""0.185"",""0.381"",""0.663"",""0.066""]","[1,1,1,0]",0,3,3,3,1,0,0,,,0,FALSE,,,,,,,,,,,,,,,,,,,,,,,,,,,,,,
,5ec0cd1d56b9d94e97a3171d,001,2022-04-28_20h03.56.460,classification_task,2021.2.3,Win32,59.29791271,5ec0cd1d56b9d94e97a3171d,626b377229c10585ec392f89,626b394fbee6b103b61c8211,,,,,,,,,,,,,,,,,,,,,,,a,0,2.144,"[""0.104"",""0.289"",""0.526"",""0.824""]","[1,1,1,0]",0,4,4,4,1,1,0,,,0,FALSE,,,,,,,,,,,,,,,,,,,,,,,,,,,,,,
,5ec0cd1d56b9d94e97a3171d,001,2022-04-28_20h03.56.460,classification_task,2021.2.3,Win32,59.29791271,5ec0cd1d56b9d94e97a3171d,626b377229c10585ec392f89,626b394fbee6b103b61c8211,,,,,,,,,,,,,,,,,,,,,,,a,0,1.8792,"[""0.032"",""0.338"",""0.567"",""0.601""]","[1,1,1,0]",0,5,5,5,1,1,1,,,0,FALSE,,,,,,,,,,,,,,,,,,,,,,,,,,,,,,
,5ec0cd1d56b9d94e97a3171d,001,2022-04-28_20h03.56.460,classification_task,2021.2.3,Win32,59.29791271,5ec0cd1d56b9d94e97a3171d,626b377229c10585ec392f89,626b394fbee6b103b61c8211,,,,,,,,,,,,,,,,,,,,,,,l,1,1.5852,"[""0.104"",""0.289"",""0.142"",""0.714""]","[1,1,0,1]",0,6,6,6,1,1,0,,,0,FALSE,,,,,,,,,,,,,,,,,,,,,,,,,,,,,,
,5ec0cd1d56b9d94e97a3171d,001,2022-04-28_20h03.56.460,classification_task,2021.2.3,Win32,59.29791271,5ec0cd1d56b9d94e97a3171d,626b377229c10585ec392f89,626b394fbee6b103b61c8211,,,,,,,,,,,,,,,,,,,,,,,l,0,1.8594,"[""0.246"",""0.449"",""0.601"",""0.924""]","[1,1,0,1]",0,7,7,7,1,0,1,,,0,FALSE,,,,,,,,,,,,,,,,,,,,,,,,,,,,,,
,5ec0cd1d56b9d94e97a3171d,001,2022-04-28_20h03.56.460,classification_task,2021.2.3,Win32,59.29791271,5ec0cd1d56b9d94e97a3171d,626b377229c10585ec392f89,626b394fbee6b103b61c8211,,,,,,,,,,,,,,,,,,,,,,,l,1,1.8091,"[""0.601"",""0.338"",""0.567"",""0.786""]","[0,1,1,1]",0,8,8,8,1,1,1,,,0,FALSE,,,,,,,,,,,,,,,,,,,,,,,,,,,,,,
,5ec0cd1d56b9d94e97a3171d,001,2022-04-28_20h03.56.460,classification_task,2021.2.3,Win32,59.29791271,5ec0cd1d56b9d94e97a3171d,626b377229c10585ec392f89,626b394fbee6b103b61c8211,,,,,,,,,,,,,,,,,,,,,,,l,0,1.8364,"[""0.185"",""0.138"",""0.663"",""0.964""]","[1,0,1,1]",0,9,9,9,1,0,0,,,0,FALSE,,,,,,,,,,,,,,,,,,,,,,,,,,,,,,
,5ec0cd1d56b9d94e97a3171d,001,2022-04-28_20h03.56.460,classification_task,2021.2.3,Win32,59.29791271,5ec0cd1d56b9d94e97a3171d,626b377229c10585ec392f89,626b394fbee6b103b61c8211,,,,,,,,,,,,,,,,,,,,,,,l,0,1.9597,"[""0.145"",""0.449"",""0.874"",""0.924""]","[0,1,1,1]",0,10,10,10,1,0,1,,,0,FALSE,,,,,,,,,,,,,,,,,,,,,,,,,,,,,,
,5ec0cd1d56b9d94e97a3171d,001,2022-04-28_20h03.56.460,classification_task,2021.2.3,Win32,59.29791271,5ec0cd1d56b9d94e97a3171d,626b377229c10585ec392f89,626b394fbee6b103b61c8211,,,,,,,,,,,,,,,,,,,,,,,l,0,1.9764,"[""0.246"",""0.748"",""0.874"",""0.924""]","[1,0,1,1]",0,11,11,11,1,0,1,,,0,FALSE,,,,,,,,,,,,,,,,,,,,,,,,,,,,,,
,5ec0cd1d56b9d94e97a3171d,001,2022-04-28_20h03.56.460,classification_task,2021.2.3,Win32,59.29791271,5ec0cd1d56b9d94e97a3171d,626b377229c10585ec392f89,626b394fbee6b103b61c8211,,,,,,,,,,,,,,,,,,,,,,,a,0,2.3387,"[""0.032"",""0.824"",""0.567"",""0.786""]","[1,0,1,1]",0,12,12,12,1,1,1,,,0,FALSE,,,,,,,,,,,,,,,,,,,,,,,,,,,,,,
,5ec0cd1d56b9d94e97a3171d,001,2022-04-28_20h03.56.460,classification_task,2021.2.3,Win32,59.29791271,5ec0cd1d56b9d94e97a3171d,626b377229c10585ec392f89,626b394fbee6b103b61c8211,,,,,,,,,,,,,,,,,,,,,,,a,0,1.8207,"[""0.032"",""0.338"",""0.601"",""0.786""]","[1,1,0,1]",0,13,13,13,1,1,1,,,0,FALSE,,,,,,,,,,,,,,,,,,,,,,,,,,,,,,
,5ec0cd1d56b9d94e97a3171d,001,2022-04-28_20h03.56.460,classification_task,2021.2.3,Win32,59.29791271,5ec0cd1d56b9d94e97a3171d,626b377229c10585ec392f89,626b394fbee6b103b61c8211,,,,,,,,,,,,,,,,,,,,,,,l,0,1.593,"[""0.601"",""0.381"",""0.663"",""0.964""]","[0,1,1,1]",0,14,14,14,1,0,0,,,0,FALSE,,,,,,,,,,,,,,,,,,,,,,,,,,,,,,
,5ec0cd1d56b9d94e97a3171d,001,2022-04-28_20h03.56.460,classification_task,2021.2.3,Win32,59.29791271,5ec0cd1d56b9d94e97a3171d,626b377229c10585ec392f89,626b394fbee6b103b61c8211,,,,,,,,,,,,,,,,,,,,,,,l,0,1.6454,"[""0.185"",""0.381"",""0.601"",""0.964""]","[1,1,0,1]",0,15,15,15,1,0,0,,,0,FALSE,,,,,,,,,,,,,,,,,,,,,,,,,,,,,,
,5ec0cd1d56b9d94e97a3171d,001,2022-04-28_20h03.56.460,classification_task,2021.2.3,Win32,59.29791271,5ec0cd1d56b9d94e97a3171d,626b377229c10585ec392f89,626b394fbee6b103b61c8211,,,,,,,,,,,,,,,,,,,,,,,l,1,1.9185,"[""0.145"",""0.289"",""0.526"",""0.714""]","[0,1,1,1]",0,16,16,16,1,1,0,,,0,FALSE,,,,,,,,,,,,,,,,,,,,,,,,,,,,,,
,5ec0cd1d56b9d94e97a3171d,001,2022-04-28_20h03.56.460,classification_task,2021.2.3,Win32,59.29791271,5ec0cd1d56b9d94e97a3171d,626b377229c10585ec392f89,626b394fbee6b103b61c8211,,,,,,,,,,,,,,,,,,,,,,,a,0,1.4022,"[""0.032"",""0.338"",""0.601"",""0.786""]","[1,1,0,1]",0,17,17,17,1,1,1,,,0,FALSE,,,,,,,,,,,,,,,,,,,,,,,,,,,,,,
,5ec0cd1d56b9d94e97a3171d,001,2022-04-28_20h03.56.460,classification_task,2021.2.3,Win32,59.29791271,5ec0cd1d56b9d94e97a3171d,626b377229c10585ec392f89,626b394fbee6b103b61c8211,,,,,,,,,,,,,,,,,,,,,,,l,0,1.6207,"[""0.246"",""0.449"",""0.874"",""0.066""]","[1,1,1,0]",0,18,18,18,1,0,1,,,0,FALSE,,,,,,,,,,,,,,,,,,,,,,,,,,,,,,
,5ec0cd1d56b9d94e97a3171d,001,2022-04-28_20h03.56.460,classification_task,2021.2.3,Win32,59.29791271,5ec0cd1d56b9d94e97a3171d,626b377229c10585ec392f89,626b394fbee6b103b61c8211,,,,,,,,,,,,,,,,,,,,,,,a,0,1.4978,"[""0.032"",""0.338"",""0.567"",""0.827""]","[1,1,1,0]",0,19,19,19,1,1,1,,,0,FALSE,,,,,,,,,,,,,,,,,,,,,,,,,,,,,,
,5ec0cd1d56b9d94e97a3171d,001,2022-04-28_20h03.56.460,classification_task,2021.2.3,Win32,59.29791271,5ec0cd1d56b9d94e97a3171d,626b377229c10585ec392f89,626b394fbee6b103b61c8211,,,,,,,,,,,,,,,,,,,,,,,l,0,1.6005,"[""0.748"",""0.381"",""0.663"",""0.964""]","[0,1,1,1]",0,20,20,20,1,0,0,,,0,FALSE,,,,,,,,,,,,,,,,,,,,,,,,,,,,,,
,5ec0cd1d56b9d94e97a3171d,001,2022-04-28_20h03.56.460,classification_task,2021.2.3,Win32,59.29791271,5ec0cd1d56b9d94e97a3171d,626b377229c10585ec392f89,626b394fbee6b103b61c8211,,,,,,,,,,,,,,,,,,,,,,,l,0,1.3523,"[""0.185"",""0.066"",""0.663"",""0.964""]","[1,0,1,1]",0,21,21,21,1,0,0,,,0,FALSE,,,,,,,,,,,,,,,,,,,,,,,,,,,,,,
,5ec0cd1d56b9d94e97a3171d,001,2022-04-28_20h03.56.460,classification_task,2021.2.3,Win32,59.29791271,5ec0cd1d56b9d94e97a3171d,626b377229c10585ec392f89,626b394fbee6b103b61c8211,,,,,,,,,,,,,,,,,,,,,,,a,0,0.8583,"[""0.104"",""0.289"",""0.526"",""0.827""]","[1,1,1,0]",0,22,22,22,1,1,0,,,0,FALSE,,,,,,,,,,,,,,,,,,,,,,,,,,,,,,
,5ec0cd1d56b9d94e97a3171d,001,2022-04-28_20h03.56.460,classification_task,2021.2.3,Win32,59.29791271,5ec0cd1d56b9d94e97a3171d,626b377229c10585ec392f89,626b394fbee6b103b61c8211,,,,,,,,,,,,,,,,,,,,,,,a,1,1.3114,"[""0.246"",""0.449"",""0.825"",""0.924""]","[1,1,0,1]",0,23,23,23,1,0,1,,,0,FALSE,,,,,,,,,,,,,,,,,,,,,,,,,,,,,,
,5ec0cd1d56b9d94e97a3171d,001,2022-04-28_20h03.56.460,classification_task,2021.2.3,Win32,59.29791271,5ec0cd1d56b9d94e97a3171d,626b377229c10585ec392f89,626b394fbee6b103b61c8211,,,,,,,,,,,,,,,,,,,,,,,a,1,1.2801,"[""0.185"",""0.381"",""0.066"",""0.964""]","[1,1,0,1]",0,24,24,24,1,0,0,,,0,FALSE,,,,,,,,,,,,,,,,,,,,,,,,,,,,,,
,5ec0cd1d56b9d94e97a3171d,001,2022-04-28_20h03.56.460,classification_task,2021.2.3,Win32,59.29791271,5ec0cd1d56b9d94e97a3171d,626b377229c10585ec392f89,626b394fbee6b103b61c8211,,,,,,,,,,,,,,,,,,,,,,,l,0,0.7068,"[""0.185"",""0.381"",""0.663"",""0.601""]","[1,1,1,0]",0,25,25,25,1,0,0,,,0,FALSE,,,,,,,,,,,,,,,,,,,,,,,,,,,,,,
,5ec0cd1d56b9d94e97a3171d,001,2022-04-28_20h03.56.460,classification_task,2021.2.3,Win32,59.29791271,5ec0cd1d56b9d94e97a3171d,626b377229c10585ec392f89,626b394fbee6b103b61c8211,,,,,,,,,,,,,,,,,,,,,,,l,1,1.517,"[""0.104"",""0.138"",""0.526"",""0.714""]","[1,0,1,1]",0,26,26,26,1,1,0,,,0,FALSE,,,,,,,,,,,,,,,,,,,,,,,,,,,,,,
,5ec0cd1d56b9d94e97a3171d,001,2022-04-28_20h03.56.460,classification_task,2021.2.3,Win32,59.29791271,5ec0cd1d56b9d94e97a3171d,626b377229c10585ec392f89,626b394fbee6b103b61c8211,,,,,,,,,,,,,,,,,,,,,,,l,1,1.8407,"[""0.032"",""0.822"",""0.567"",""0.786""]","[1,0,1,1]",0,27,27,27,1,1,1,,,0,FALSE,,,,,,,,,,,,,,,,,,,,,,,,,,,,,,
,5ec0cd1d56b9d94e97a3171d,001,2022-04-28_20h03.56.460,classification_task,2021.2.3,Win32,59.29791271,5ec0cd1d56b9d94e97a3171d,626b377229c10585ec392f89,626b394fbee6b103b61c8211,,,,,,,,,,,,,,,,,,,,,,,a,0,1.9067,"[""0.104"",""0.289"",""0.601"",""0.714""]","[1,1,0,1]",0,28,28,28,1,1,0,,,0,FALSE,,,,,,,,,,,,,,,,,,,,,,,,,,,,,,
,5ec0cd1d56b9d94e97a3171d,001,2022-04-28_20h03.56.460,classification_task,2021.2.3,Win32,59.29791271,5ec0cd1d56b9d94e97a3171d,626b377229c10585ec392f89,626b394fbee6b103b61c8211,,,,,,,,,,,,,,,,,,,,,,,l,0,1.8698,"[""0.138"",""0.449"",""0.874"",""0.924""]","[0,1,1,1]",0,29,29,29,1,0,1,,,0,FALSE,,,,,,,,,,,,,,,,,,,,,,,,,,,,,,
,5ec0cd1d56b9d94e97a3171d,001,2022-04-28_20h03.56.460,classification_task,2021.2.3,Win32,59.29791271,5ec0cd1d56b9d94e97a3171d,626b377229c10585ec392f89,626b394fbee6b103b61c8211,,,,,,,,,,,,,,,,,,,,,,,a,0,1.7007,"[""0.822"",""0.338"",""0.567"",""0.786""]","[0,1,1,1]",0,30,30,30,1,1,1,,,0,FALSE,,,,,,,,,,,,,,,,,,,,,,,,,,,,,,
,5ec0cd1d56b9d94e97a3171d,001,2022-04-28_20h03.56.460,classification_task,2021.2.3,Win32,59.29791271,5ec0cd1d56b9d94e97a3171d,626b377229c10585ec392f89,626b394fbee6b103b61c8211,,,,,,,,,,,,,,,,,,,,,,,a,1,1.7209,"[""0.246"",""0.614"",""0.874"",""0.924""]","[1,0,1,1]",0,31,31,31,1,0,1,,,0,FALSE,,,,,,,,,,,,,,,,,,,,,,,,,,,,,,
,5ec0cd1d56b9d94e97a3171d,001,2022-04-28_20h03.56.460,classification_task,2021.2.3,Win32,59.29791271,5ec0cd1d56b9d94e97a3171d,626b377229c10585ec392f89,626b394fbee6b103b61c8211,,,,,,,,,,,,,,,,,,,,,,,l,0,2.0923,"[""0.246"",""0.449"",""0.825"",""0.924""]","[1,1,0,1]",0,32,32,32,1,0,1,,,0,FALSE,,,,,,,,,,,,,,,,,,,,,,,,,,,,,,
,5ec0cd1d56b9d94e97a3171d,001,2022-04-28_20h03.56.460,classification_task,2021.2.3,Win32,59.29791271,5ec0cd1d56b9d94e97a3171d,626b377229c10585ec392f89,626b394fbee6b103b61c8211,,,,,,,,,,,,,,,,,,,,,,,a,1,1.9492,"[""0.185"",""0.825"",""0.663"",""0.964""]","[1,0,1,1]",0,33,33,33,1,0,0,,,0,FALSE,,,,,,,,,,,,,,,,,,,,,,,,,,,,,,
,5ec0cd1d56b9d94e97a3171d,001,2022-04-28_20h03.56.460,classification_task,2021.2.3,Win32,59.29791271,5ec0cd1d56b9d94e97a3171d,626b377229c10585ec392f89,626b394fbee6b103b61c8211,,,,,,,,,,,,,,,,,,,,,,,l,1,2.4633,"[""0.822"",""0.289"",""0.526"",""0.714""]","[0,1,1,1]",0,34,34,34,1,1,0,,,0,FALSE,,,,,,,,,,,,,,,,,,,,,,,,,,,,,,
,5ec0cd1d56b9d94e97a3171d,001,2022-04-28_20h03.56.460,classification_task,2021.2.3,Win32,59.29791271,5ec0cd1d56b9d94e97a3171d,626b377229c10585ec392f89,626b394fbee6b103b61c8211,,,,,,,,,,,,,,,,,,,,,,,l,0,2.0878,"[""0.246"",""0.822"",""0.874"",""0.924""]","[1,0,1,1]",0,35,35,35,1,0,1,,,0,FALSE,,,,,,,,,,,,,,,,,,,,,,,,,,,,,,
,5ec0cd1d56b9d94e97a3171d,001,2022-04-28_20h03.56.460,classification_task,2021.2.3,Win32,59.29791271,5ec0cd1d56b9d94e97a3171d,626b377229c10585ec392f89,626b394fbee6b103b61c8211,,,,,,,,,,,,,,,,,,,,,,,l,0,2.0331,"[""0.601"",""0.449"",""0.874"",""0.924""]","[0,1,1,1]",0,36,36,36,1,0,1,,,0,FALSE,,,,,,,,,,,,,,,,,,,,,,,,,,,,,,
,5ec0cd1d56b9d94e97a3171d,001,2022-04-28_20h03.56.460,classification_task,2021.2.3,Win32,59.29791271,5ec0cd1d56b9d94e97a3171d,626b377229c10585ec392f89,626b394fbee6b103b61c8211,,,,,,,,,,,,,,,,,,,,,,,l,0,2.2018,"[""0.185"",""0.381"",""0.824"",""0.964""]","[1,1,0,1]",0,37,37,37,1,0,0,,,0,FALSE,,,,,,,,,,,,,,,,,,,,,,,,,,,,,,
,5ec0cd1d56b9d94e97a3171d,001,2022-04-28_20h03.56.460,classification_task,2021.2.3,Win32,59.29791271,5ec0cd1d56b9d94e97a3171d,626b377229c10585ec392f89,626b394fbee6b103b61c8211,,,,,,,,,,,,,,,,,,,,,,,l,0,2.4283,"[""0.246"",""0.449"",""0.874"",""0.601""]","[1,1,1,0]",0,38,38,38,1,0,1,,,0,FALSE,,,,,,,,,,,,,,,,,,,,,,,,,,,,,,
,5ec0cd1d56b9d94e97a3171d,001,2022-04-28_20h03.56.460,classification_task,2021.2.3,Win32,59.29791271,5ec0cd1d56b9d94e97a3171d,626b377229c10585ec392f89,626b394fbee6b103b61c8211,,,,,,,,,,,,,,,,,,,,,,,a,0,2.6819,"[""0.822"",""0.338"",""0.567"",""0.786""]","[0,1,1,1]",0,39,39,39,1,1,1,,,0,FALSE,,,,,,,,,,,,,,,,,,,,,,,,,,,,,,
,5ec0cd1d56b9d94e97a3171d,001,2022-04-28_20h03.56.460,classification_task,2021.2.3,Win32,59.29791271,5ec0cd1d56b9d94e97a3171d,626b377229c10585ec392f89,626b394fbee6b103b61c8211,,,,,,,,,,,,,,,,,,,,,,,a,0,2.3579,"[""0.032"",""0.748"",""0.567"",""0.786""]","[1,0,1,1]",0,40,40,40,1,1,1,,,0,FALSE,,,,,,,,,,,,,,,,,,,,,,,,,,,,,,
,5ec0cd1d56b9d94e97a3171d,001,2022-04-28_20h03.56.460,classification_task,2021.2.3,Win32,59.29791271,5ec0cd1d56b9d94e97a3171d,626b377229c10585ec392f89,626b394fbee6b103b61c8211,,,,,,,,,,,,,,,,,,,,,,,l,1,2.3385,"[""0.104"",""0.289"",""0.609"",""0.714""]","[1,1,0,1]",0,41,41,41,1,1,0,,,0,FALSE,,,,,,,,,,,,,,,,,,,,,,,,,,,,,,
,5ec0cd1d56b9d94e97a3171d,001,2022-04-28_20h03.56.460,classification_task,2021.2.3,Win32,59.29791271,5ec0cd1d56b9d94e97a3171d,626b377229c10585ec392f89,626b394fbee6b103b61c8211,,,,,,,,,,,,,,,,,,,,,,,l,1,2.3403,"[""0.104"",""0.607"",""0.526"",""0.714""]","[1,0,1,1]",0,42,42,42,1,1,0,,,0,FALSE,,,,,,,,,,,,,,,,,,,,,,,,,,,,,,
,5ec0cd1d56b9d94e97a3171d,001,2022-04-28_20h03.56.460,classification_task,2021.2.3,Win32,59.29791271,5ec0cd1d56b9d94e97a3171d,626b377229c10585ec392f89,626b394fbee6b103b61c8211,,,,,,,,,,,,,,,,,,,,,,,l,0,2.3535,"[""0.822"",""0.381"",""0.663"",""0.964""]","[0,1,1,1]",0,43,43,43,1,0,0,,,0,FALSE,,,,,,,,,,,,,,,,,,,,,,,,,,,,,,
,5ec0cd1d56b9d94e97a3171d,001,2022-04-28_20h03.56.460,classification_task,2021.2.3,Win32,59.29791271,5ec0cd1d56b9d94e97a3171d,626b377229c10585ec392f89,626b394fbee6b103b61c8211,,,,,,,,,,,,,,,,,,,,,,,a,1,2.0919,"[""0.185"",""0.381"",""0.663"",""0.601""]","[1,1,1,0]",0,44,44,44,1,0,0,,,0,FALSE,,,,,,,,,,,,,,,,,,,,,,,,,,,,,,
,5ec0cd1d56b9d94e97a3171d,001,2022-04-28_20h03.56.460,classification_task,2021.2.3,Win32,59.29791271,5ec0cd1d56b9d94e97a3171d,626b377229c10585ec392f89,626b394fbee6b103b61c8211,,,,,,,,,,,,,,,,,,,,,,,l,1,2.2239,"[""0.032"",""0.338"",""0.145"",""0.786""]","[1,1,0,1]",0,45,45,45,1,1,1,,,0,FALSE,,,,,,,,,,,,,,,,,,,,,,,,,,,,,,
,5ec0cd1d56b9d94e97a3171d,001,2022-04-28_20h03.56.460,classification_task,2021.2.3,Win32,59.29791271,5ec0cd1d56b9d94e97a3171d,626b377229c10585ec392f89,626b394fbee6b103b61c8211,,,,,,,,,,,,,,,,,,,,,,,a,0,1.576,"[""0.104"",""0.289"",""0.526"",""0.825""]","[1,1,1,0]",0,46,46,46,1,1,0,,,0,FALSE,,,,,,,,,,,,,,,,,,,,,,,,,,,,,,
,5ec0cd1d56b9d94e97a3171d,001,2022-04-28_20h03.56.460,classification_task,2021.2.3,Win32,59.29791271,5ec0cd1d56b9d94e97a3171d,626b377229c10585ec392f89,626b394fbee6b103b61c8211,,,,,,,,,,,,,,,,,,,,,,,l,1,1.8574,"[""0.032"",""0.338"",""0.567"",""0.138""]","[1,1,1,0]",0,47,47,47,1,1,1,,,0,FALSE,,,,,,,,,,,,,,,,,,,,,,,,,,,,,,
,5ec0cd1d56b9d94e97a3171d,001,2022-04-28_20h03.56.460,classification_task,2021.2.3,Win32,59.29791271,5ec0cd1d56b9d94e97a3171d,626b377229c10585ec392f89,626b394fbee6b103b61c8211,,,,,,,,,,,,,,,,,,,,,,,a,0,1.6165,"[""0.142"",""0.338"",""0.567"",""0.786""]","[0,1,1,1]",0,48,48,48,1,1,1,,,0,FALSE,,,,,,,,,,,,,,,,,,,,,,,,,,,,,,
,5ec0cd1d56b9d94e97a3171d,001,2022-04-28_20h03.56.460,classification_task,2021.2.3,Win32,59.29791271,5ec0cd1d56b9d94e97a3171d,626b377229c10585ec392f89,626b394fbee6b103b61c8211,,,,,,,,,,,,,,,,,,,,,,,a,1,2.1982,"[""0.822"",""0.381"",""0.663"",""0.964""]","[0,1,1,1]",0,49,49,49,1,0,0,,,0,FALSE,,,,,,,,,,,,,,,,,,,,,,,,,,,,,,
,5ec0cd1d56b9d94e97a3171d,001,2022-04-28_20h03.56.460,classification_task,2021.2.3,Win32,59.29791271,5ec0cd1d56b9d94e97a3171d,626b377229c10585ec392f89,626b394fbee6b103b61c8211,,,,,,,,,,,,,,,,,,,,,,,l,0,1.4136,"[""0.246"",""0.614"",""0.874"",""0.924""]","[1,0,1,1]",0,50,50,50,1,0,1,,,0,FALSE,,,,,,,,,,,,,,,,,,,,,,,,,,,,,,
,5ec0cd1d56b9d94e97a3171d,001,2022-04-28_20h03.56.460,classification_task,2021.2.3,Win32,59.29791271,5ec0cd1d56b9d94e97a3171d,626b377229c10585ec392f89,626b394fbee6b103b61c8211,,,,,,,,,,,,,,,,,,,,,,,l,1,1.3024,"[""0.104"",""0.289"",""0.607"",""0.714""]","[1,1,0,1]",0,51,51,51,1,1,0,,,0,FALSE,,,,,,,,,,,,,,,,,,,,,,,,,,,,,,
,5ec0cd1d56b9d94e97a3171d,001,2022-04-28_20h03.56.460,classification_task,2021.2.3,Win32,59.29791271,5ec0cd1d56b9d94e97a3171d,626b377229c10585ec392f89,626b394fbee6b103b61c8211,,,,,,,,,,,,,,,,,,,,,,,a,0,1.2989,"[""0.032"",""0.338"",""0.567"",""0.822""]","[1,1,1,0]",0,52,52,52,1,1,1,,,0,FALSE,,,,,,,,,,,,,,,,,,,,,,,,,,,,,,
,5ec0cd1d56b9d94e97a3171d,001,2022-04-28_20h03.56.460,classification_task,2021.2.3,Win32,59.29791271,5ec0cd1d56b9d94e97a3171d,626b377229c10585ec392f89,626b394fbee6b103b61c8211,,,,,,,,,,,,,,,,,,,,,,,a,1,1.2708,"[""0.246"",""0.449"",""0.874"",""0.827""]","[1,1,1,0]",0,53,53,53,1,0,1,,,0,FALSE,,,,,,,,,,,,,,,,,,,,,,,,,,,,,,
,5ec0cd1d56b9d94e97a3171d,001,2022-04-28_20h03.56.460,classification_task,2021.2.3,Win32,59.29791271,5ec0cd1d56b9d94e97a3171d,626b377229c10585ec392f89,626b394fbee6b103b61c8211,,,,,,,,,,,,,,,,,,,,,,,l,1,1.1306,"[""0.032"",""0.142"",""0.567"",""0.786""]","[1,0,1,1]",0,54,54,54,1,1,1,,,0,FALSE,,,,,,,,,,,,,,,,,,,,,,,,,,,,,,
,5ec0cd1d56b9d94e97a3171d,001,2022-04-28_20h03.56.460,classification_task,2021.2.3,Win32,59.29791271,5ec0cd1d56b9d94e97a3171d,626b377229c10585ec392f89,626b394fbee6b103b61c8211,,,,,,,,,,,,,,,,,,,,,,,a,1,0.6337,"[""0.185"",""0.381"",""0.609"",""0.964""]","[1,1,0,1]",0,55,55,55,1,0,0,,,0,FALSE,,,,,,,,,,,,,,,,,,,,,,,,,,,,,,
,5ec0cd1d56b9d94e97a3171d,001,2022-04-28_20h03.56.460,classification_task,2021.2.3,Win32,59.29791271,5ec0cd1d56b9d94e97a3171d,626b377229c10585ec392f89,626b394fbee6b103b61c8211,,,,,,,,,,,,,,,,,,,,,,,a,0,1.4842,"[""0.032"",""0.338"",""0.607"",""0.786""]","[1,1,0,1]",0,56,56,56,1,1,1,,,0,FALSE,,,,,,,,,,,,,,,,,,,,,,,,,,,,,,
,5ec0cd1d56b9d94e97a3171d,001,2022-04-28_20h03.56.460,classification_task,2021.2.3,Win32,59.29791271,5ec0cd1d56b9d94e97a3171d,626b377229c10585ec392f89,626b394fbee6b103b61c8211,,,,,,,,,,,,,,,,,,,,,,,l,1,1.2668,"[""0.609"",""0.289"",""0.526"",""0.714""]","[0,1,1,1]",0,57,57,57,1,1,0,,,0,FALSE,,,,,,,,,,,,,,,,,,,,,,,,,,,,,,
,5ec0cd1d56b9d94e97a3171d,001,2022-04-28_20h03.56.460,classification_task,2021.2.3,Win32,59.29791271,5ec0cd1d56b9d94e97a3171d,626b377229c10585ec392f89,626b394fbee6b103b61c8211,,,,,,,,,,,,,,,,,,,,,,,a,1,1.1347,"[""0.185"",""0.381"",""0.663"",""0.822""]","[1,1,1,0]",0,58,58,58,1,0,0,,,0,FALSE,,,,,,,,,,,,,,,,,,,,,,,,,,,,,,
,5ec0cd1d56b9d94e97a3171d,001,2022-04-28_20h03.56.460,classification_task,2021.2.3,Win32,59.29791271,5ec0cd1d56b9d94e97a3171d,626b377229c10585ec392f89,626b394fbee6b103b61c8211,,,,,,,,,,,,,,,,,,,,,,,a,0,1.4237,"[""0.104"",""0.142"",""0.526"",""0.714""]","[1,0,1,1]",0,59,59,59,1,1,0,,,0,FALSE,,,,,,,,,,,,,,,,,,,,,,,,,,,,,,
,5ec0cd1d56b9d94e97a3171d,001,2022-04-28_20h03.56.460,classification_task,2021.2.3,Win32,59.29791271,5ec0cd1d56b9d94e97a3171d,626b377229c10585ec392f89,626b394fbee6b103b61c8211,,,,,,,,,,,,,,,,,,,,,,,l,0,1.5385,"[""0.185"",""0.609"",""0.663"",""0.964""]","[1,0,1,1]",0,60,60,60,1,0,0,,,0,FALSE,,,,,,,,,,,,,,,,,,,,,,,,,,,,,,
,5ec0cd1d56b9d94e97a3171d,001,2022-04-28_20h03.56.460,classification_task,2021.2.3,Win32,59.29791271,5ec0cd1d56b9d94e97a3171d,626b377229c10585ec392f89,626b394fbee6b103b61c8211,,,,,,,,,,,,,,,,,,,,,,,l,1,2.618,"[""0.104"",""0.289"",""0.526"",""0.609""]","[1,1,1,0]",0,61,61,61,1,1,0,,,0,FALSE,,,,,,,,,,,,,,,,,,,,,,,,,,,,,,
,5ec0cd1d56b9d94e97a3171d,001,2022-04-28_20h03.56.460,classification_task,2021.2.3,Win32,59.29791271,5ec0cd1d56b9d94e97a3171d,626b377229c10585ec392f89,626b394fbee6b103b61c8211,,,,,,,,,,,,,,,,,,,,,,,l,0,1.7826,"[""0.824"",""0.449"",""0.874"",""0.924""]","[0,1,1,1]",0,62,62,62,1,0,1,,,0,FALSE,,,,,,,,,,,,,,,,,,,,,,,,,,,,,,
,5ec0cd1d56b9d94e97a3171d,001,2022-04-28_20h03.56.460,classification_task,2021.2.3,Win32,59.29791271,5ec0cd1d56b9d94e97a3171d,626b377229c10585ec392f89,626b394fbee6b103b61c8211,,,,,,,,,,,,,,,,,,,,,,,a,1,2.1822,"[""0.246"",""0.449"",""0.824"",""0.924""]","[1,1,0,1]",0,63,63,63,1,0,1,,,0,FALSE,,,,,,,,,,,,,,,,,,,,,,,,,,,,,,
,5ec0cd1d56b9d94e97a3171d,001,2022-04-28_20h03.56.460,classification_task,2021.2.3,Win32,59.29791271,5ec0cd1d56b9d94e97a3171d,626b377229c10585ec392f89,626b394fbee6b103b61c8211,,,,,,,,,,,,,,,,,,,,,,,,,,,,,,,,,,,,,,,0, ,,0,9.727611209,185.3927,0,2,2,2,1,2,3,,,,,,,,,,,,,,,,,
,5ec0cd1d56b9d94e97a3171d,001,2022-04-28_20h03.56.460,classification_task,2021.2.3,Win32,59.29791271,5ec0cd1d56b9d94e97a3171d,626b377229c10585ec392f89,626b394fbee6b103b61c8211,,,,,,,,,,,,,,,,,,,,,,,,,,,,,,,,,,,,,,,1,  ,,0,9.53164805,187.0592,0,2,2,2,1,2,3,,,,,,,,,,,,,,,,,
,5ec0cd1d56b9d94e97a3171d,001,2022-04-28_20h03.56.460,classification_task,2021.2.3,Win32,59.29791271,5ec0cd1d56b9d94e97a3171d,626b377229c10585ec392f89,626b394fbee6b103b61c8211,,,,,,,,,,,,,,,,,,,,,,,,,,,,,,,,,,,,,,,2,  ,,0,10,189.4942,0,2,2,2,1,2,3,,,,,,,,,,,,,,,,,
,5ec0cd1d56b9d94e97a3171d,001,2022-04-28_20h03.56.460,classification_task,2021.2.3,Win32,59.29791271,5ec0cd1d56b9d94e97a3171d,626b377229c10585ec392f89,626b394fbee6b103b61c8211,,,,,,,,,,,,,,,,,,,,,,,,,,,,,,,,,,,,,,,,,,,,,0,2,2,2,1,,3,,,,,,,,,,,,,,,,,
,5ec0cd1d56b9d94e97a3171d,001,2022-04-28_20h03.56.460,classification_task,2021.2.3,Win32,59.29791271,5ec0cd1d56b9d94e97a3171d,626b377229c10585ec392f89,626b394fbee6b103b61c8211,,,,,,,,,,,,,,,,,,,,,,,,,,,,,,,,,,,,,,,,,,,,,,,,,,,,,I believe the aid is a competent performer,,0.7,0,4,965.2626,0,0,0,0,1,0,,,,
,5ec0cd1d56b9d94e97a3171d,001,2022-04-28_20h03.56.460,classification_task,2021.2.3,Win32,59.29791271,5ec0cd1d56b9d94e97a3171d,626b377229c10585ec392f89,626b394fbee6b103b61c8211,,,,,,,,,,,,,,,,,,,,,,,,,,,,,,,,,,,,,,,,,,,,,,,,,,,,,I trust the aid,,0.7,0,5,966.0514,0,0,0,0,1,0,,,,
,5ec0cd1d56b9d94e97a3171d,001,2022-04-28_20h03.56.460,classification_task,2021.2.3,Win32,59.29791271,5ec0cd1d56b9d94e97a3171d,626b377229c10585ec392f89,626b394fbee6b103b61c8211,,,,,,,,,,,,,,,,,,,,,,,,,,,,,,,,,,,,,,,,,,,,,,,,,,,,,I have confidence in the advice given by the aid,,0.7,0,5,967.0925,0,0,0,0,1,0,,,,
,5ec0cd1d56b9d94e97a3171d,001,2022-04-28_20h03.56.460,classification_task,2021.2.3,Win32,59.29791271,5ec0cd1d56b9d94e97a3171d,626b377229c10585ec392f89,626b394fbee6b103b61c8211,,,,,,,,,,,,,,,,,,,,,,,,,,,,,,,,,,,,,,,,,,,,,,,,,,,,,I can depend on the aid,,0.7,0,5,967.9789,0,0,0,0,1,0,,,,
,5ec0cd1d56b9d94e97a3171d,001,2022-04-28_20h03.56.460,classification_task,2021.2.3,Win32,59.29791271,5ec0cd1d56b9d94e97a3171d,626b377229c10585ec392f89,626b394fbee6b103b61c8211,,,,,,,,,,,,,,,,,,,,,,,,,,,,,,,,,,,,,,,,,,,,,,,,,,,,,I can rely on the aid to behave in consistent ways,,0.7,0,5,969.0343,0,0,0,0,1,0,,,,
,5ec0cd1d56b9d94e97a3171d,001,2022-04-28_20h03.56.460,classification_task,2021.2.3,Win32,59.29791271,5ec0cd1d56b9d94e97a3171d,626b377229c10585ec392f89,626b394fbee6b103b61c8211,,,,,,,,,,,,,,,,,,,,,,,,,,,,,,,,,,,,,,,,,,,,,,,,,,,,,I can rely on the aid to do its best every time I take its advice,,0.7,0,5,972.472,0,0,0,0,1,0,,,,
,5ec0cd1d56b9d94e97a3171d,001,2022-04-28_20h03.56.460,classification_task,2021.2.3,Win32,59.29791271,5ec0cd1d56b9d94e97a3171d,626b377229c10585ec392f89,626b394fbee6b103b61c8211,,,,,,,,,,,,,,,,,,,,,,,,,,,,,,,,,,,,,,,,,,,,,,,,,,,,,"On trials you completed with assistance from the aid, how frequently did you think the aid was correct?",,0.7,0,100,,0,0,0,0,1,0,,,,
,5ec0cd1d56b9d94e97a3171d,001,2022-04-28_20h03.56.460,classification_task,2021.2.3,Win32,59.29791271,5ec0cd1d56b9d94e97a3171d,626b377229c10585ec392f89,626b394fbee6b103b61c8211,,,,,,,,,,,,,,,,,,,,,,,,,,,,,,,,,,,,,,,,,,,,,,,,,,,,,"On trials you completed without the aid, how frequently did you think you were correct?",,0.7,0,40,,0,0,0,0,1,0,,,,
,5ec0cd1d56b9d94e97a3171d,001,2022-04-28_20h03.56.460,classification_task,2021.2.3,Win32,59.29791271,5ec0cd1d56b9d94e97a3171d,626b377229c10585ec392f89,626b394fbee6b103b61c8211,,,,,,,,,,,,,,,,,,,,,,,,,,,,,,,,,,,,,,,,,,,,,,,,,,,,,,,,,,,0,0,0,0,1,,,,,
,5ec0cd1d56b9d94e97a3171d,001,2022-04-28_20h03.56.460,classification_task,2021.2.3,Win32,59.29791271,5ec0cd1d56b9d94e97a3171d,626b377229c10585ec392f89,626b394fbee6b103b61c8211,,,,,,,,,,,,,,,,,,,,,,,,,,,,,,,,,,,,,,,,,,,,,,,,,,,,,,,,,,,,,,,,,space,7.9424,988.3951,
,5ec0cd1d56b9d94e97a3171d,001,2022-04-28_20h03.56.460,classification_task,2021.2.3,Win32,59.29791271,5ec0cd1d56b9d94e97a3171d,626b377229c10585ec392f89,626b394fbee6b103b61c8211,,,,,,,,,,,,,,,,,,,,,,,,,,,,,,,,,,,,,,,,,,,,,,,,,,,,,,,,,,,,,,,,,,,,"Mozilla/5.0 (Windows NT 10.0; Win64; x64) AppleWebKit/537.36 (KHTML, like Gecko) Chrome/100.0.4896.127 Safari/537.36"
