usingWebGL,participant,session,date,expName,psychopyVersion,OS,frameRate,study_id,signatures_friend,signatures_foe,band_ranges_top,band_ranges_bottom,formitemText,formtype,formundefined,formitemWidth,formindex,formresponse,formrt,key_resp_2.keys,key_resp_2.rt,tute_resp.keys,tute_resp.rt,tutorial.thisRepN,tutorial.thisTrialN,tutorial.thisN,tutorial.thisIndex,tutorial.ran,key_resp_4.keys,key_resp_4.rt,key_resp.keys,key_resp.corr,key_resp.rt,lines_presented,is_signal_presented,trials.thisRepN,trials.thisTrialN,trials.thisN,trials.thisIndex,trials.ran,vessel,active_band,lines,is_signal,supported_pos,catch_trial,debrief_formindex,debrief_formitemText,debrief_formtype,debrief_formitemWidth,debrief_formresponse,debrief_formrt,phases.thisRepN,phases.thisTrialN,phases.thisN,phases.thisIndex,phases.ran,phases.order,phase,key_resp_3.keys,trustitemText,trusttype,trustitemWidth,trustindex,trustresponse,trustrt,support_status.thisRepN,support_status.thisTrialN,support_status.thisN,support_status.thisIndex,support_status.ran,support_status.order,key_resp_5.keys,key_resp_5.rt,globalClockTime,userAgent,manualCondition
TRUE,5ec177fd6de0f859df6b9541,627c6fc626803dda7de0e8e9,2022-05-11_22h24.23.335,classification_task,2021.2.3,Win32,60.0348202,627c6715c52fd12f31907bcf,,,,,,,,,,,,,,,,,,,,,,,,,,,,,,,,,,,,,,,,,,,,,,,,,,,,,,,,,,,,,,,,,,,,,
,5ec177fd6de0f859df6b9541,627c6fc626803dda7de0e8e9,2022-05-11_22h24.23.335,classification_task,2021.2.3,Win32,60.0348202,627c6715c52fd12f31907bcf,"[[""0.324"",""0.546"",""0.788"",""0.928""],[""0.234"",""0.448"",""0.673"",""0.862""]]","[[""0.107"",""0.274"",""0.626"",""0.724""],[""0.047"",""0.394"",""0.495"",""0.823""]]","[1,10]","[100,1000]",Video game experience,,,0.7,0,,,,,,,,,,,,,,,,,,,,,,,,,,,,,,,,,,,,,,,,,,,,,,,,,,,,,,,,,,,,
,5ec177fd6de0f859df6b9541,627c6fc626803dda7de0e8e9,2022-05-11_22h24.23.335,classification_task,2021.2.3,Win32,60.0348202,627c6715c52fd12f31907bcf,,,,,Approximately how many hours did you spend playing video games in the last week?,,,0.7,0,32,,,,,,,,,,,,,,,,,,,,,,,,,,,,,,,,,,,,,,,,,,,,,,,,,,,,,,,,,,,
,5ec177fd6de0f859df6b9541,627c6fc626803dda7de0e8e9,2022-05-11_22h24.23.335,classification_task,2021.2.3,Win32,60.0348202,627c6715c52fd12f31907bcf,,,,,"Which game did you play the most this year? (Enter ""None"" if you didn't play any)",,,0.7,0,League of legends,,,,,,,,,,,,,,,,,,,,,,,,,,,,,,,,,,,,,,,,,,,,,,,,,,,,,,,,,,,
,5ec177fd6de0f859df6b9541,627c6fc626803dda7de0e8e9,2022-05-11_22h24.23.335,classification_task,2021.2.3,Win32,60.0348202,627c6715c52fd12f31907bcf,,,,,Visual perception,,,0.7,0,,,,,,,,,,,,,,,,,,,,,,,,,,,,,,,,,,,,,,,,,,,,,,,,,,,,,,,,,,,,
,5ec177fd6de0f859df6b9541,627c6fc626803dda7de0e8e9,2022-05-11_22h24.23.335,classification_task,2021.2.3,Win32,60.0348202,627c6715c52fd12f31907bcf,,,,,Do you have any form of color blindness?,,,0.7,0,No,54.6104,,,,,,,,,,,,,,,,,,,,,,,,,,,,,,,,,,,,,,,,,,,,,,,,,,,,,,,,,,
,5ec177fd6de0f859df6b9541,627c6fc626803dda7de0e8e9,2022-05-11_22h24.23.335,classification_task,2021.2.3,Win32,60.0348202,627c6715c52fd12f31907bcf,,,,,Do you use software to change the colour temperature of your screen (e.g. f.lux)?,,,0.7,0,No,60.3984,,,,,,,,,,,,,,,,,,,,,,,,,,,,,,,,,,,,,,,,,,,,,,,,,,,,,,,,,,
,5ec177fd6de0f859df6b9541,627c6fc626803dda7de0e8e9,2022-05-11_22h24.23.335,classification_task,2021.2.3,Win32,60.0348202,627c6715c52fd12f31907bcf,,,,,,,,,,,,space,19.9891,space,16.6112,0,0,0,0,1,,,,,,,,,,,,,,,,,,,,,,,,,,,,,,,,,,,,,,,,,,,,,,,,,
,5ec177fd6de0f859df6b9541,627c6fc626803dda7de0e8e9,2022-05-11_22h24.23.335,classification_task,2021.2.3,Win32,60.0348202,627c6715c52fd12f31907bcf,,,,,,,,,,,,,,space,4.33,1,0,1,0,1,,,,,,,,,,,,,,,,,,,,,,,,,,,,,,,,,,,,,,,,,,,,,,,,,
,5ec177fd6de0f859df6b9541,627c6fc626803dda7de0e8e9,2022-05-11_22h24.23.335,classification_task,2021.2.3,Win32,60.0348202,627c6715c52fd12f31907bcf,,,,,,,,,,,,,,space,11.5157,2,0,2,0,1,,,,,,,,,,,,,,,,,,,,,,,,,,,,,,,,,,,,,,,,,,,,,,,,,
,5ec177fd6de0f859df6b9541,627c6fc626803dda7de0e8e9,2022-05-11_22h24.23.335,classification_task,2021.2.3,Win32,60.0348202,627c6715c52fd12f31907bcf,,,,,,,,,,,,,,space,28.0264,3,0,3,0,1,,,,,,,,,,,,,,,,,,,,,,,,,,,,,,,,,,,,,,,,,,,,,,,,,
,5ec177fd6de0f859df6b9541,627c6fc626803dda7de0e8e9,2022-05-11_22h24.23.335,classification_task,2021.2.3,Win32,60.0348202,627c6715c52fd12f31907bcf,,,,,,,,,,,,,,space,5.6504,4,0,4,0,1,,,,,,,,,,,,,,,,,,,,,,,,,,,,,,,,,,,,,,,,,,,,,,,,,
,5ec177fd6de0f859df6b9541,627c6fc626803dda7de0e8e9,2022-05-11_22h24.23.335,classification_task,2021.2.3,Win32,60.0348202,627c6715c52fd12f31907bcf,,,,,,,,,,,,,,,,,,,,,space,14.1431,l,0,4.1274,"[""0.146"",""0.448"",""0.673"",""0.862""]","[0,1,1,1]",0,0,0,0,1,0,1,,,1,FALSE,,,,,,,,,,,,,,,,,,,,,,,,,,,,,,,
,5ec177fd6de0f859df6b9541,627c6fc626803dda7de0e8e9,2022-05-11_22h24.23.335,classification_task,2021.2.3,Win32,60.0348202,627c6715c52fd12f31907bcf,,,,,,,,,,,,,,,,,,,,,,,l,0,4.3919,"[""0.158"",""0.546"",""0.788"",""0.928""]","[0,1,1,1]",0,1,1,1,1,0,0,,,1,FALSE,,,,,,,,,,,,,,,,,,,,,,,,,,,,,,,
,5ec177fd6de0f859df6b9541,627c6fc626803dda7de0e8e9,2022-05-11_22h24.23.335,classification_task,2021.2.3,Win32,60.0348202,627c6715c52fd12f31907bcf,,,,,,,,,,,,,,,,,,,,,,,l,1,7.0033,"[""0.047"",""0.196"",""0.495"",""0.823""]","[1,0,1,1]",0,2,2,2,1,1,1,,,1,FALSE,,,,,,,,,,,,,,,,,,,,,,,,,,,,,,,
,5ec177fd6de0f859df6b9541,627c6fc626803dda7de0e8e9,2022-05-11_22h24.23.335,classification_task,2021.2.3,Win32,60.0348202,627c6715c52fd12f31907bcf,,,,,,,,,,,,,,,,,,,,,,,a,1,2.6365,"[""0.234"",""0.448"",""0.182"",""0.862""]","[1,1,0,1]",0,3,3,3,1,0,1,,,1,FALSE,,,,,,,,,,,,,,,,,,,,,,,,,,,,,,,
,5ec177fd6de0f859df6b9541,627c6fc626803dda7de0e8e9,2022-05-11_22h24.23.335,classification_task,2021.2.3,Win32,60.0348202,627c6715c52fd12f31907bcf,,,,,,,,,,,,,,,,,,,,,,,l,1,3.6905,"[""0.047"",""0.394"",""0.587"",""0.823""]","[1,1,0,1]",0,4,4,4,1,1,1,,,1,FALSE,,,,,,,,,,,,,,,,,,,,,,,,,,,,,,,
,5ec177fd6de0f859df6b9541,627c6fc626803dda7de0e8e9,2022-05-11_22h24.23.335,classification_task,2021.2.3,Win32,60.0348202,627c6715c52fd12f31907bcf,,,,,,,,,,,,,,,,,,,,,,,l,1,2.8713,"[""0.107"",""0.274"",""0.626"",""0.188""]","[1,1,1,0]",0,5,5,5,1,1,0,,,1,FALSE,,,,,,,,,,,,,,,,,,,,,,,,,,,,,,,
,5ec177fd6de0f859df6b9541,627c6fc626803dda7de0e8e9,2022-05-11_22h24.23.335,classification_task,2021.2.3,Win32,60.0348202,627c6715c52fd12f31907bcf,,,,,,,,,,,,,,,,,,,,,,,a,1,2.9978,"[""0.234"",""0.158"",""0.673"",""0.862""]","[1,0,1,1]",0,6,6,6,1,0,1,,,1,FALSE,,,,,,,,,,,,,,,,,,,,,,,,,,,,,,,
,5ec177fd6de0f859df6b9541,627c6fc626803dda7de0e8e9,2022-05-11_22h24.23.335,classification_task,2021.2.3,Win32,60.0348202,627c6715c52fd12f31907bcf,,,,,,,,,,,,,,,,,,,,,,,l,1,4.191,"[""0.358"",""0.394"",""0.495"",""0.823""]","[0,1,1,1]",0,7,7,7,1,1,1,,,1,FALSE,,,,,,,,,,,,,,,,,,,,,,,,,,,,,,,
,5ec177fd6de0f859df6b9541,627c6fc626803dda7de0e8e9,2022-05-11_22h24.23.335,classification_task,2021.2.3,Win32,60.0348202,627c6715c52fd12f31907bcf,,,,,,,,,,,,,,,,,,,,,,,l,1,8.81,"[""0.161"",""0.274"",""0.626"",""0.724""]","[0,1,1,1]",0,8,8,8,1,1,0,,,1,FALSE,,,,,,,,,,,,,,,,,,,,,,,,,,,,,,,
,5ec177fd6de0f859df6b9541,627c6fc626803dda7de0e8e9,2022-05-11_22h24.23.335,classification_task,2021.2.3,Win32,60.0348202,627c6715c52fd12f31907bcf,,,,,,,,,,,,,,,,,,,,,,,a,1,5.2016,"[""0.234"",""0.448"",""0.673"",""0.188""]","[1,1,1,0]",0,9,9,9,1,0,1,,,1,FALSE,,,,,,,,,,,,,,,,,,,,,,,,,,,,,,,
,5ec177fd6de0f859df6b9541,627c6fc626803dda7de0e8e9,2022-05-11_22h24.23.335,classification_task,2021.2.3,Win32,60.0348202,627c6715c52fd12f31907bcf,,,,,,,,,,,,,,,,,,,,,,,l,1,5.4687,"[""0.107"",""0.274"",""0.182"",""0.724""]","[1,1,0,1]",0,10,10,10,1,1,0,,,1,FALSE,,,,,,,,,,,,,,,,,,,,,,,,,,,,,,,
,5ec177fd6de0f859df6b9541,627c6fc626803dda7de0e8e9,2022-05-11_22h24.23.335,classification_task,2021.2.3,Win32,60.0348202,627c6715c52fd12f31907bcf,,,,,,,,,,,,,,,,,,,,,,,a,1,4.8329,"[""0.324"",""0.546"",""0.196"",""0.928""]","[1,1,0,1]",0,11,11,11,1,0,0,,,1,FALSE,,,,,,,,,,,,,,,,,,,,,,,,,,,,,,,
,5ec177fd6de0f859df6b9541,627c6fc626803dda7de0e8e9,2022-05-11_22h24.23.335,classification_task,2021.2.3,Win32,60.0348202,627c6715c52fd12f31907bcf,,,,,,,,,,,,,,,,,,,,,,,l,1,3.7595,"[""0.107"",""0.146"",""0.626"",""0.724""]","[1,0,1,1]",0,12,12,12,1,1,0,,,1,FALSE,,,,,,,,,,,,,,,,,,,,,,,,,,,,,,,
,5ec177fd6de0f859df6b9541,627c6fc626803dda7de0e8e9,2022-05-11_22h24.23.335,classification_task,2021.2.3,Win32,60.0348202,627c6715c52fd12f31907bcf,,,,,,,,,,,,,,,,,,,,,,,a,1,6.07,"[""0.324"",""0.358"",""0.788"",""0.928""]","[1,0,1,1]",0,13,13,13,1,0,0,,,1,FALSE,,,,,,,,,,,,,,,,,,,,,,,,,,,,,,,
,5ec177fd6de0f859df6b9541,627c6fc626803dda7de0e8e9,2022-05-11_22h24.23.335,classification_task,2021.2.3,Win32,60.0348202,627c6715c52fd12f31907bcf,,,,,,,,,,,,,,,,,,,,,,,l,1,5.8133,"[""0.047"",""0.394"",""0.495"",""0.182""]","[1,1,1,0]",0,14,14,14,1,1,1,,,1,FALSE,,,,,,,,,,,,,,,,,,,,,,,,,,,,,,,
,5ec177fd6de0f859df6b9541,627c6fc626803dda7de0e8e9,2022-05-11_22h24.23.335,classification_task,2021.2.3,Win32,60.0348202,627c6715c52fd12f31907bcf,,,,,,,,,,,,,,,,,,,,,,,a,1,4.5532,"[""0.324"",""0.546"",""0.788"",""0.199""]","[1,1,1,0]",0,15,15,15,1,0,0,,,1,FALSE,,,,,,,,,,,,,,,,,,,,,,,,,,,,,,,
,5ec177fd6de0f859df6b9541,627c6fc626803dda7de0e8e9,2022-05-11_22h24.23.335,classification_task,2021.2.3,Win32,60.0348202,627c6715c52fd12f31907bcf,,,,,,,,,,,,,,,,,,,,,,,a,1,7.2722,"[""0.182"",""0.546"",""0.788"",""0.928""]","[0,1,1,1]",0,16,16,16,1,0,0,,,1,FALSE,,,,,,,,,,,,,,,,,,,,,,,,,,,,,,,
,5ec177fd6de0f859df6b9541,627c6fc626803dda7de0e8e9,2022-05-11_22h24.23.335,classification_task,2021.2.3,Win32,60.0348202,627c6715c52fd12f31907bcf,,,,,,,,,,,,,,,,,,,,,,,a,1,5.1107,"[""0.234"",""0.448"",""0.158"",""0.862""]","[1,1,0,1]",0,17,17,17,1,0,1,,,1,FALSE,,,,,,,,,,,,,,,,,,,,,,,,,,,,,,,
,5ec177fd6de0f859df6b9541,627c6fc626803dda7de0e8e9,2022-05-11_22h24.23.335,classification_task,2021.2.3,Win32,60.0348202,627c6715c52fd12f31907bcf,,,,,,,,,,,,,,,,,,,,,,,l,1,3.5202,"[""0.199"",""0.274"",""0.626"",""0.724""]","[0,1,1,1]",0,18,18,18,1,1,0,,,1,FALSE,,,,,,,,,,,,,,,,,,,,,,,,,,,,,,,
,5ec177fd6de0f859df6b9541,627c6fc626803dda7de0e8e9,2022-05-11_22h24.23.335,classification_task,2021.2.3,Win32,60.0348202,627c6715c52fd12f31907bcf,,,,,,,,,,,,,,,,,,,,,,,l,1,6.4402,"[""0.199"",""0.394"",""0.495"",""0.823""]","[0,1,1,1]",0,19,19,19,1,1,1,,,1,FALSE,,,,,,,,,,,,,,,,,,,,,,,,,,,,,,,
,5ec177fd6de0f859df6b9541,627c6fc626803dda7de0e8e9,2022-05-11_22h24.23.335,classification_task,2021.2.3,Win32,60.0348202,627c6715c52fd12f31907bcf,,,,,,,,,,,,,,,,,,,,,,,l,1,6.188,"[""0.047"",""0.199"",""0.495"",""0.823""]","[1,0,1,1]",0,20,20,20,1,1,1,,,1,FALSE,,,,,,,,,,,,,,,,,,,,,,,,,,,,,,,
,5ec177fd6de0f859df6b9541,627c6fc626803dda7de0e8e9,2022-05-11_22h24.23.335,classification_task,2021.2.3,Win32,60.0348202,627c6715c52fd12f31907bcf,,,,,,,,,,,,,,,,,,,,,,,a,1,3.3047,"[""0.234"",""0.448"",""0.673"",""0.196""]","[1,1,1,0]",0,21,21,21,1,0,1,,,1,FALSE,,,,,,,,,,,,,,,,,,,,,,,,,,,,,,,
,5ec177fd6de0f859df6b9541,627c6fc626803dda7de0e8e9,2022-05-11_22h24.23.335,classification_task,2021.2.3,Win32,60.0348202,627c6715c52fd12f31907bcf,,,,,,,,,,,,,,,,,,,,,,,a,1,5.4584,"[""0.968"",""0.448"",""0.673"",""0.862""]","[0,1,1,1]",0,22,22,22,1,0,1,,,1,FALSE,,,,,,,,,,,,,,,,,,,,,,,,,,,,,,,
,5ec177fd6de0f859df6b9541,627c6fc626803dda7de0e8e9,2022-05-11_22h24.23.335,classification_task,2021.2.3,Win32,60.0348202,627c6715c52fd12f31907bcf,,,,,,,,,,,,,,,,,,,,,,,l,1,6.5034,"[""0.047"",""0.394"",""0.199"",""0.823""]","[1,1,0,1]",0,23,23,23,1,1,1,,,1,FALSE,,,,,,,,,,,,,,,,,,,,,,,,,,,,,,,
,5ec177fd6de0f859df6b9541,627c6fc626803dda7de0e8e9,2022-05-11_22h24.23.335,classification_task,2021.2.3,Win32,60.0348202,627c6715c52fd12f31907bcf,,,,,,,,,,,,,,,,,,,,,,,l,1,3.8218,"[""0.047"",""0.394"",""0.495"",""0.183""]","[1,1,1,0]",0,24,24,24,1,1,1,,,1,FALSE,,,,,,,,,,,,,,,,,,,,,,,,,,,,,,,
,5ec177fd6de0f859df6b9541,627c6fc626803dda7de0e8e9,2022-05-11_22h24.23.335,classification_task,2021.2.3,Win32,60.0348202,627c6715c52fd12f31907bcf,,,,,,,,,,,,,,,,,,,,,,,a,1,2.307,"[""0.234"",""0.196"",""0.673"",""0.862""]","[1,0,1,1]",0,25,25,25,1,0,1,,,1,FALSE,,,,,,,,,,,,,,,,,,,,,,,,,,,,,,,
,5ec177fd6de0f859df6b9541,627c6fc626803dda7de0e8e9,2022-05-11_22h24.23.335,classification_task,2021.2.3,Win32,60.0348202,627c6715c52fd12f31907bcf,,,,,,,,,,,,,,,,,,,,,,,l,1,5.175,"[""0.107"",""0.162"",""0.626"",""0.724""]","[1,0,1,1]",0,26,26,26,1,1,0,,,1,FALSE,,,,,,,,,,,,,,,,,,,,,,,,,,,,,,,
,5ec177fd6de0f859df6b9541,627c6fc626803dda7de0e8e9,2022-05-11_22h24.23.335,classification_task,2021.2.3,Win32,60.0348202,627c6715c52fd12f31907bcf,,,,,,,,,,,,,,,,,,,,,,,a,1,5.8233,"[""0.324"",""0.546"",""0.788"",""0.199""]","[1,1,1,0]",0,27,27,27,1,0,0,,,1,FALSE,,,,,,,,,,,,,,,,,,,,,,,,,,,,,,,
,5ec177fd6de0f859df6b9541,627c6fc626803dda7de0e8e9,2022-05-11_22h24.23.335,classification_task,2021.2.3,Win32,60.0348202,627c6715c52fd12f31907bcf,,,,,,,,,,,,,,,,,,,,,,,a,1,3.1886,"[""0.324"",""0.546"",""0.587"",""0.928""]","[1,1,0,1]",0,28,28,28,1,0,0,,,1,FALSE,,,,,,,,,,,,,,,,,,,,,,,,,,,,,,,
,5ec177fd6de0f859df6b9541,627c6fc626803dda7de0e8e9,2022-05-11_22h24.23.335,classification_task,2021.2.3,Win32,60.0348202,627c6715c52fd12f31907bcf,,,,,,,,,,,,,,,,,,,,,,,l,1,2.7909,"[""0.107"",""0.274"",""0.580"",""0.724""]","[1,1,0,1]",0,29,29,29,1,1,0,,,1,FALSE,,,,,,,,,,,,,,,,,,,,,,,,,,,,,,,
,5ec177fd6de0f859df6b9541,627c6fc626803dda7de0e8e9,2022-05-11_22h24.23.335,classification_task,2021.2.3,Win32,60.0348202,627c6715c52fd12f31907bcf,,,,,,,,,,,,,,,,,,,,,,,a,1,2.8997,"[""0.324"",""0.580"",""0.788"",""0.928""]","[1,0,1,1]",0,30,30,30,1,0,0,,,1,FALSE,,,,,,,,,,,,,,,,,,,,,,,,,,,,,,,
,5ec177fd6de0f859df6b9541,627c6fc626803dda7de0e8e9,2022-05-11_22h24.23.335,classification_task,2021.2.3,Win32,60.0348202,627c6715c52fd12f31907bcf,,,,,,,,,,,,,,,,,,,,,,,l,1,3.1435,"[""0.107"",""0.274"",""0.626"",""0.177""]","[1,1,1,0]",0,31,31,31,1,1,0,,,1,FALSE,,,,,,,,,,,,,,,,,,,,,,,,,,,,,,,
,5ec177fd6de0f859df6b9541,627c6fc626803dda7de0e8e9,2022-05-11_22h24.23.335,classification_task,2021.2.3,Win32,60.0348202,627c6715c52fd12f31907bcf,,,,,,,,,,,,,,,,,,,,,,,a,1,3.8886,"[""0.324"",""0.546"",""0.788"",""0.587""]","[1,1,1,0]",0,32,32,32,1,0,0,,,1,FALSE,,,,,,,,,,,,,,,,,,,,,,,,,,,,,,,
,5ec177fd6de0f859df6b9541,627c6fc626803dda7de0e8e9,2022-05-11_22h24.23.335,classification_task,2021.2.3,Win32,60.0348202,627c6715c52fd12f31907bcf,,,,,,,,,,,,,,,,,,,,,,,l,0,4.8397,"[""0.182"",""0.546"",""0.788"",""0.928""]","[0,1,1,1]",0,33,33,33,1,0,0,,,1,FALSE,,,,,,,,,,,,,,,,,,,,,,,,,,,,,,,
,5ec177fd6de0f859df6b9541,627c6fc626803dda7de0e8e9,2022-05-11_22h24.23.335,classification_task,2021.2.3,Win32,60.0348202,627c6715c52fd12f31907bcf,,,,,,,,,,,,,,,,,,,,,,,l,1,1.2751,"[""0.968"",""0.274"",""0.626"",""0.724""]","[0,1,1,1]",0,34,34,34,1,1,0,,,1,FALSE,,,,,,,,,,,,,,,,,,,,,,,,,,,,,,,
,5ec177fd6de0f859df6b9541,627c6fc626803dda7de0e8e9,2022-05-11_22h24.23.335,classification_task,2021.2.3,Win32,60.0348202,627c6715c52fd12f31907bcf,,,,,,,,,,,,,,,,,,,,,,,a,1,5.8646,"[""0.199"",""0.448"",""0.673"",""0.862""]","[0,1,1,1]",0,35,35,35,1,0,1,,,1,FALSE,,,,,,,,,,,,,,,,,,,,,,,,,,,,,,,
,5ec177fd6de0f859df6b9541,627c6fc626803dda7de0e8e9,2022-05-11_22h24.23.335,classification_task,2021.2.3,Win32,60.0348202,627c6715c52fd12f31907bcf,,,,,,,,,,,,,,,,,,,,,,,l,1,2.5032,"[""0.047"",""0.394"",""0.182"",""0.823""]","[1,1,0,1]",0,36,36,36,1,1,1,,,1,FALSE,,,,,,,,,,,,,,,,,,,,,,,,,,,,,,,
,5ec177fd6de0f859df6b9541,627c6fc626803dda7de0e8e9,2022-05-11_22h24.23.335,classification_task,2021.2.3,Win32,60.0348202,627c6715c52fd12f31907bcf,,,,,,,,,,,,,,,,,,,,,,,l,0,3.2331,"[""0.234"",""0.448"",""0.673"",""0.587""]","[1,1,1,0]",0,37,37,37,1,0,1,,,1,FALSE,,,,,,,,,,,,,,,,,,,,,,,,,,,,,,,
,5ec177fd6de0f859df6b9541,627c6fc626803dda7de0e8e9,2022-05-11_22h24.23.335,classification_task,2021.2.3,Win32,60.0348202,627c6715c52fd12f31907bcf,,,,,,,,,,,,,,,,,,,,,,,a,1,4.0522,"[""0.324"",""0.546"",""0.358"",""0.928""]","[1,1,0,1]",0,38,38,38,1,0,0,,,1,FALSE,,,,,,,,,,,,,,,,,,,,,,,,,,,,,,,
,5ec177fd6de0f859df6b9541,627c6fc626803dda7de0e8e9,2022-05-11_22h24.23.335,classification_task,2021.2.3,Win32,60.0348202,627c6715c52fd12f31907bcf,,,,,,,,,,,,,,,,,,,,,,,l,0,1.5737,"[""0.324"",""0.580"",""0.788"",""0.928""]","[1,0,1,1]",0,39,39,39,1,0,0,,,1,FALSE,,,,,,,,,,,,,,,,,,,,,,,,,,,,,,,
,5ec177fd6de0f859df6b9541,627c6fc626803dda7de0e8e9,2022-05-11_22h24.23.335,classification_task,2021.2.3,Win32,60.0348202,627c6715c52fd12f31907bcf,,,,,,,,,,,,,,,,,,,,,,,l,1,2.9334,"[""0.188"",""0.394"",""0.495"",""0.823""]","[0,1,1,1]",0,40,40,40,1,1,1,,,1,FALSE,,,,,,,,,,,,,,,,,,,,,,,,,,,,,,,
,5ec177fd6de0f859df6b9541,627c6fc626803dda7de0e8e9,2022-05-11_22h24.23.335,classification_task,2021.2.3,Win32,60.0348202,627c6715c52fd12f31907bcf,,,,,,,,,,,,,,,,,,,,,,,a,1,1.5716,"[""0.234"",""0.183"",""0.673"",""0.862""]","[1,0,1,1]",0,41,41,41,1,0,1,,,1,FALSE,,,,,,,,,,,,,,,,,,,,,,,,,,,,,,,
,5ec177fd6de0f859df6b9541,627c6fc626803dda7de0e8e9,2022-05-11_22h24.23.335,classification_task,2021.2.3,Win32,60.0348202,627c6715c52fd12f31907bcf,,,,,,,,,,,,,,,,,,,,,,,l,1,3.9669,"[""0.107"",""0.274"",""0.626"",""0.182""]","[1,1,1,0]",0,42,42,42,1,1,0,,,1,FALSE,,,,,,,,,,,,,,,,,,,,,,,,,,,,,,,
,5ec177fd6de0f859df6b9541,627c6fc626803dda7de0e8e9,2022-05-11_22h24.23.335,classification_task,2021.2.3,Win32,60.0348202,627c6715c52fd12f31907bcf,,,,,,,,,,,,,,,,,,,,,,,l,1,1.4836,"[""0.107"",""0.274"",""0.358"",""0.724""]","[1,1,0,1]",0,43,43,43,1,1,0,,,1,FALSE,,,,,,,,,,,,,,,,,,,,,,,,,,,,,,,
,5ec177fd6de0f859df6b9541,627c6fc626803dda7de0e8e9,2022-05-11_22h24.23.335,classification_task,2021.2.3,Win32,60.0348202,627c6715c52fd12f31907bcf,,,,,,,,,,,,,,,,,,,,,,,l,1,3.9503,"[""0.107"",""0.580"",""0.626"",""0.724""]","[1,0,1,1]",0,44,44,44,1,1,0,,,1,FALSE,,,,,,,,,,,,,,,,,,,,,,,,,,,,,,,
,5ec177fd6de0f859df6b9541,627c6fc626803dda7de0e8e9,2022-05-11_22h24.23.335,classification_task,2021.2.3,Win32,60.0348202,627c6715c52fd12f31907bcf,,,,,,,,,,,,,,,,,,,,,,,a,1,1.7843,"[""0.234"",""0.448"",""0.161"",""0.862""]","[1,1,0,1]",0,45,45,45,1,0,1,,,1,FALSE,,,,,,,,,,,,,,,,,,,,,,,,,,,,,,,
,5ec177fd6de0f859df6b9541,627c6fc626803dda7de0e8e9,2022-05-11_22h24.23.335,classification_task,2021.2.3,Win32,60.0348202,627c6715c52fd12f31907bcf,,,,,,,,,,,,,,,,,,,,,,,a,0,4.2165,"[""0.047"",""0.358"",""0.495"",""0.823""]","[1,0,1,1]",0,46,46,46,1,1,1,,,1,FALSE,,,,,,,,,,,,,,,,,,,,,,,,,,,,,,,
,5ec177fd6de0f859df6b9541,627c6fc626803dda7de0e8e9,2022-05-11_22h24.23.335,classification_task,2021.2.3,Win32,60.0348202,627c6715c52fd12f31907bcf,,,,,,,,,,,,,,,,,,,,,,,l,1,3.2003,"[""0.047"",""0.394"",""0.495"",""0.580""]","[1,1,1,0]",0,47,47,47,1,1,1,,,1,FALSE,,,,,,,,,,,,,,,,,,,,,,,,,,,,,,,
,5ec177fd6de0f859df6b9541,627c6fc626803dda7de0e8e9,2022-05-11_22h24.23.335,classification_task,2021.2.3,Win32,60.0348202,627c6715c52fd12f31907bcf,,,,,,,,,,,,,,,,,,,,,,,a,1,1.8674,"[""0.324"",""0.147"",""0.788"",""0.928""]","[1,0,1,1]",0,48,48,48,1,0,0,,,1,FALSE,,,,,,,,,,,,,,,,,,,,,,,,,,,,,,,
,5ec177fd6de0f859df6b9541,627c6fc626803dda7de0e8e9,2022-05-11_22h24.23.335,classification_task,2021.2.3,Win32,60.0348202,627c6715c52fd12f31907bcf,,,,,,,,,,,,,,,,,,,,,,,a,1,1.6338,"[""0.234"",""0.448"",""0.162"",""0.862""]","[1,1,0,1]",0,49,49,49,1,0,1,,,1,FALSE,,,,,,,,,,,,,,,,,,,,,,,,,,,,,,,
,5ec177fd6de0f859df6b9541,627c6fc626803dda7de0e8e9,2022-05-11_22h24.23.335,classification_task,2021.2.3,Win32,60.0348202,627c6715c52fd12f31907bcf,,,,,,,,,,,,,,,,,,,,,,,a,1,3.0502,"[""0.324"",""0.546"",""0.162"",""0.928""]","[1,1,0,1]",0,50,50,50,1,0,0,,,1,FALSE,,,,,,,,,,,,,,,,,,,,,,,,,,,,,,,
,5ec177fd6de0f859df6b9541,627c6fc626803dda7de0e8e9,2022-05-11_22h24.23.335,classification_task,2021.2.3,Win32,60.0348202,627c6715c52fd12f31907bcf,,,,,,,,,,,,,,,,,,,,,,,a,1,2.1013,"[""0.324"",""0.546"",""0.788"",""0.199""]","[1,1,1,0]",0,51,51,51,1,0,0,,,1,FALSE,,,,,,,,,,,,,,,,,,,,,,,,,,,,,,,
,5ec177fd6de0f859df6b9541,627c6fc626803dda7de0e8e9,2022-05-11_22h24.23.335,classification_task,2021.2.3,Win32,60.0348202,627c6715c52fd12f31907bcf,,,,,,,,,,,,,,,,,,,,,,,l,0,3.4995,"[""0.182"",""0.448"",""0.673"",""0.862""]","[0,1,1,1]",0,52,52,52,1,0,1,,,1,FALSE,,,,,,,,,,,,,,,,,,,,,,,,,,,,,,,
,5ec177fd6de0f859df6b9541,627c6fc626803dda7de0e8e9,2022-05-11_22h24.23.335,classification_task,2021.2.3,Win32,60.0348202,627c6715c52fd12f31907bcf,,,,,,,,,,,,,,,,,,,,,,,a,1,4.2339,"[""0.234"",""0.580"",""0.673"",""0.862""]","[1,0,1,1]",0,53,53,53,1,0,1,,,1,FALSE,,,,,,,,,,,,,,,,,,,,,,,,,,,,,,,
,5ec177fd6de0f859df6b9541,627c6fc626803dda7de0e8e9,2022-05-11_22h24.23.335,classification_task,2021.2.3,Win32,60.0348202,627c6715c52fd12f31907bcf,,,,,,,,,,,,,,,,,,,,,,,l,1,5.6996,"[""0.188"",""0.274"",""0.626"",""0.724""]","[0,1,1,1]",0,54,54,54,1,1,0,,,1,FALSE,,,,,,,,,,,,,,,,,,,,,,,,,,,,,,,
,5ec177fd6de0f859df6b9541,627c6fc626803dda7de0e8e9,2022-05-11_22h24.23.335,classification_task,2021.2.3,Win32,60.0348202,627c6715c52fd12f31907bcf,,,,,,,,,,,,,,,,,,,,,,,l,1,3.1502,"[""0.047"",""0.394"",""0.495"",""0.968""]","[1,1,1,0]",0,55,55,55,1,1,1,,,1,FALSE,,,,,,,,,,,,,,,,,,,,,,,,,,,,,,,
,5ec177fd6de0f859df6b9541,627c6fc626803dda7de0e8e9,2022-05-11_22h24.23.335,classification_task,2021.2.3,Win32,60.0348202,627c6715c52fd12f31907bcf,,,,,,,,,,,,,,,,,,,,,,,l,1,5.6328,"[""0.107"",""0.274"",""0.177"",""0.724""]","[1,1,0,1]",0,56,56,56,1,1,0,,,1,FALSE,,,,,,,,,,,,,,,,,,,,,,,,,,,,,,,
,5ec177fd6de0f859df6b9541,627c6fc626803dda7de0e8e9,2022-05-11_22h24.23.335,classification_task,2021.2.3,Win32,60.0348202,627c6715c52fd12f31907bcf,,,,,,,,,,,,,,,,,,,,,,,l,0,6.1327,"[""0.188"",""0.546"",""0.788"",""0.928""]","[0,1,1,1]",0,57,57,57,1,0,0,,,1,FALSE,,,,,,,,,,,,,,,,,,,,,,,,,,,,,,,
,5ec177fd6de0f859df6b9541,627c6fc626803dda7de0e8e9,2022-05-11_22h24.23.335,classification_task,2021.2.3,Win32,60.0348202,627c6715c52fd12f31907bcf,,,,,,,,,,,,,,,,,,,,,,,l,1,1.8004,"[""0.107"",""0.580"",""0.626"",""0.724""]","[1,0,1,1]",0,58,58,58,1,1,0,,,1,FALSE,,,,,,,,,,,,,,,,,,,,,,,,,,,,,,,
,5ec177fd6de0f859df6b9541,627c6fc626803dda7de0e8e9,2022-05-11_22h24.23.335,classification_task,2021.2.3,Win32,60.0348202,627c6715c52fd12f31907bcf,,,,,,,,,,,,,,,,,,,,,,,a,1,1.9494,"[""0.234"",""0.448"",""0.673"",""0.146""]","[1,1,1,0]",0,59,59,59,1,0,1,,,1,FALSE,,,,,,,,,,,,,,,,,,,,,,,,,,,,,,,
,5ec177fd6de0f859df6b9541,627c6fc626803dda7de0e8e9,2022-05-11_22h24.23.335,classification_task,2021.2.3,Win32,60.0348202,627c6715c52fd12f31907bcf,,,,,,,,,,,,,,,,,,,,,,,l,1,1.5502,"[""0.183"",""0.394"",""0.495"",""0.823""]","[0,1,1,1]",0,60,60,60,1,1,1,,,1,FALSE,,,,,,,,,,,,,,,,,,,,,,,,,,,,,,,
,5ec177fd6de0f859df6b9541,627c6fc626803dda7de0e8e9,2022-05-11_22h24.23.335,classification_task,2021.2.3,Win32,60.0348202,627c6715c52fd12f31907bcf,,,,,,,,,,,,,,,,,,,,,,,l,1,2.3511,"[""0.047"",""0.587"",""0.495"",""0.823""]","[1,0,1,1]",0,61,61,61,1,1,1,,,1,FALSE,,,,,,,,,,,,,,,,,,,,,,,,,,,,,,,
,5ec177fd6de0f859df6b9541,627c6fc626803dda7de0e8e9,2022-05-11_22h24.23.335,classification_task,2021.2.3,Win32,60.0348202,627c6715c52fd12f31907bcf,,,,,,,,,,,,,,,,,,,,,,,a,0,2.8994,"[""0.107"",""0.274"",""0.626"",""0.188""]","[1,1,1,0]",0,62,62,62,1,1,0,,,1,FALSE,,,,,,,,,,,,,,,,,,,,,,,,,,,,,,,
,5ec177fd6de0f859df6b9541,627c6fc626803dda7de0e8e9,2022-05-11_22h24.23.335,classification_task,2021.2.3,Win32,60.0348202,627c6715c52fd12f31907bcf,,,,,,,,,,,,,,,,,,,,,,,l,1,1.7508,"[""0.047"",""0.394"",""0.196"",""0.823""]","[1,1,0,1]",0,63,63,63,1,1,1,,,1,FALSE,,,,,,,,,,,,,,,,,,,,,,,,,,,,,,,
,5ec177fd6de0f859df6b9541,627c6fc626803dda7de0e8e9,2022-05-11_22h24.23.335,classification_task,2021.2.3,Win32,60.0348202,627c6715c52fd12f31907bcf,,,,,,,,,,,,,,,,,,,,,,,,,,,,,,,,,,,,,,,0, ,,0,7.13569224,491.9795,0,0,0,0,1,2,1,,,,,,,,,,,,,,,,,,
,5ec177fd6de0f859df6b9541,627c6fc626803dda7de0e8e9,2022-05-11_22h24.23.335,classification_task,2021.2.3,Win32,60.0348202,627c6715c52fd12f31907bcf,,,,,,,,,,,,,,,,,,,,,,,,,,,,,,,,,,,,,,,1,  ,,0,6.033399471,499.4766,0,0,0,0,1,2,1,,,,,,,,,,,,,,,,,,
,5ec177fd6de0f859df6b9541,627c6fc626803dda7de0e8e9,2022-05-11_22h24.23.335,classification_task,2021.2.3,Win32,60.0348202,627c6715c52fd12f31907bcf,,,,,,,,,,,,,,,,,,,,,,,,,,,,,,,,,,,,,,,2,  ,,0,3.828813933,507.943,0,0,0,0,1,2,1,,,,,,,,,,,,,,,,,,
,5ec177fd6de0f859df6b9541,627c6fc626803dda7de0e8e9,2022-05-11_22h24.23.335,classification_task,2021.2.3,Win32,60.0348202,627c6715c52fd12f31907bcf,,,,,,,,,,,,,,,,,,,,,,,,,,,,,,,,,,,,,,,,,,,,,0,0,0,0,1,,1,,,,,,,,,,,,,,,,,,
,5ec177fd6de0f859df6b9541,627c6fc626803dda7de0e8e9,2022-05-11_22h24.23.335,classification_task,2021.2.3,Win32,60.0348202,627c6715c52fd12f31907bcf,,,,,,,,,,,,,,,,,,,,,space,14.1542,a,1,6.1864,"[""0.324"",""0.546"",""0.199"",""0.928""]","[1,1,0,1]",0,0,0,0,1,0,0,,,1,FALSE,,,,,,,,,,,,,,,,,,,,,,,,,,,,,,,
,5ec177fd6de0f859df6b9541,627c6fc626803dda7de0e8e9,2022-05-11_22h24.23.335,classification_task,2021.2.3,Win32,60.0348202,627c6715c52fd12f31907bcf,,,,,,,,,,,,,,,,,,,,,,,l,1,3.0532,"[""0.968"",""0.394"",""0.495"",""0.823""]","[0,1,1,1]",0,1,1,1,1,1,1,,,1,FALSE,,,,,,,,,,,,,,,,,,,,,,,,,,,,,,,
,5ec177fd6de0f859df6b9541,627c6fc626803dda7de0e8e9,2022-05-11_22h24.23.335,classification_task,2021.2.3,Win32,60.0348202,627c6715c52fd12f31907bcf,,,,,,,,,,,,,,,,,,,,,,,a,1,0.8573,"[""0.234"",""0.448"",""0.673"",""0.158""]","[1,1,1,0]",0,2,2,2,1,0,1,,,1,FALSE,,,,,,,,,,,,,,,,,,,,,,,,,,,,,,,
,5ec177fd6de0f859df6b9541,627c6fc626803dda7de0e8e9,2022-05-11_22h24.23.335,classification_task,2021.2.3,Win32,60.0348202,627c6715c52fd12f31907bcf,,,,,,,,,,,,,,,,,,,,,,,a,1,0.8328,"[""0.234"",""0.448"",""0.161"",""0.862""]","[1,1,0,1]",0,3,3,3,1,0,1,,,1,FALSE,,,,,,,,,,,,,,,,,,,,,,,,,,,,,,,
,5ec177fd6de0f859df6b9541,627c6fc626803dda7de0e8e9,2022-05-11_22h24.23.335,classification_task,2021.2.3,Win32,60.0348202,627c6715c52fd12f31907bcf,,,,,,,,,,,,,,,,,,,,,,,l,1,0.6156,"[""0.047"",""0.394"",""0.147"",""0.823""]","[1,1,0,1]",0,4,4,4,1,1,1,,,1,FALSE,,,,,,,,,,,,,,,,,,,,,,,,,,,,,,,
,5ec177fd6de0f859df6b9541,627c6fc626803dda7de0e8e9,2022-05-11_22h24.23.335,classification_task,2021.2.3,Win32,60.0348202,627c6715c52fd12f31907bcf,,,,,,,,,,,,,,,,,,,,,,,a,0,2.9908,"[""0.107"",""0.274"",""0.196"",""0.724""]","[1,1,0,1]",0,5,5,5,1,1,0,,,1,FALSE,,,,,,,,,,,,,,,,,,,,,,,,,,,,,,,
,5ec177fd6de0f859df6b9541,627c6fc626803dda7de0e8e9,2022-05-11_22h24.23.335,classification_task,2021.2.3,Win32,60.0348202,627c6715c52fd12f31907bcf,,,,,,,,,,,,,,,,,,,,,,,a,1,1.3665,"[""0.580"",""0.448"",""0.673"",""0.862""]","[0,1,1,1]",0,6,6,6,1,0,1,,,1,FALSE,,,,,,,,,,,,,,,,,,,,,,,,,,,,,,,
,5ec177fd6de0f859df6b9541,627c6fc626803dda7de0e8e9,2022-05-11_22h24.23.335,classification_task,2021.2.3,Win32,60.0348202,627c6715c52fd12f31907bcf,,,,,,,,,,,,,,,,,,,,,,,l,0,1.5303,"[""0.199"",""0.546"",""0.788"",""0.928""]","[0,1,1,1]",0,7,7,7,1,0,0,,,1,FALSE,,,,,,,,,,,,,,,,,,,,,,,,,,,,,,,
,5ec177fd6de0f859df6b9541,627c6fc626803dda7de0e8e9,2022-05-11_22h24.23.335,classification_task,2021.2.3,Win32,60.0348202,627c6715c52fd12f31907bcf,,,,,,,,,,,,,,,,,,,,,,,l,1,1.1462,"[""0.047"",""0.394"",""0.495"",""0.182""]","[1,1,1,0]",0,8,8,8,1,1,1,,,1,FALSE,,,,,,,,,,,,,,,,,,,,,,,,,,,,,,,
,5ec177fd6de0f859df6b9541,627c6fc626803dda7de0e8e9,2022-05-11_22h24.23.335,classification_task,2021.2.3,Win32,60.0348202,627c6715c52fd12f31907bcf,,,,,,,,,,,,,,,,,,,,,,,l,1,0.9,"[""0.047"",""0.162"",""0.495"",""0.823""]","[1,0,1,1]",0,9,9,9,1,1,1,,,1,FALSE,,,,,,,,,,,,,,,,,,,,,,,,,,,,,,,
,5ec177fd6de0f859df6b9541,627c6fc626803dda7de0e8e9,2022-05-11_22h24.23.335,classification_task,2021.2.3,Win32,60.0348202,627c6715c52fd12f31907bcf,,,,,,,,,,,,,,,,,,,,,,,a,1,1.5101,"[""0.324"",""0.546"",""0.788"",""0.182""]","[1,1,1,0]",0,10,10,10,1,0,0,,,1,FALSE,,,,,,,,,,,,,,,,,,,,,,,,,,,,,,,
,5ec177fd6de0f859df6b9541,627c6fc626803dda7de0e8e9,2022-05-11_22h24.23.335,classification_task,2021.2.3,Win32,60.0348202,627c6715c52fd12f31907bcf,,,,,,,,,,,,,,,,,,,,,,,a,1,0.8211,"[""0.234"",""0.158"",""0.673"",""0.862""]","[1,0,1,1]",0,11,11,11,1,0,1,,,1,FALSE,,,,,,,,,,,,,,,,,,,,,,,,,,,,,,,
,5ec177fd6de0f859df6b9541,627c6fc626803dda7de0e8e9,2022-05-11_22h24.23.335,classification_task,2021.2.3,Win32,60.0348202,627c6715c52fd12f31907bcf,,,,,,,,,,,,,,,,,,,,,,,l,1,1.1825,"[""0.107"",""0.161"",""0.626"",""0.724""]","[1,0,1,1]",0,12,12,12,1,1,0,,,1,FALSE,,,,,,,,,,,,,,,,,,,,,,,,,,,,,,,
,5ec177fd6de0f859df6b9541,627c6fc626803dda7de0e8e9,2022-05-11_22h24.23.335,classification_task,2021.2.3,Win32,60.0348202,627c6715c52fd12f31907bcf,,,,,,,,,,,,,,,,,,,,,,,l,1,0.8177,"[""0.196"",""0.274"",""0.626"",""0.724""]","[0,1,1,1]",0,13,13,13,1,1,0,,,1,FALSE,,,,,,,,,,,,,,,,,,,,,,,,,,,,,,,
,5ec177fd6de0f859df6b9541,627c6fc626803dda7de0e8e9,2022-05-11_22h24.23.335,classification_task,2021.2.3,Win32,60.0348202,627c6715c52fd12f31907bcf,,,,,,,,,,,,,,,,,,,,,,,a,0,1.4999,"[""0.107"",""0.274"",""0.626"",""0.580""]","[1,1,1,0]",0,14,14,14,1,1,0,,,1,FALSE,,,,,,,,,,,,,,,,,,,,,,,,,,,,,,,
,5ec177fd6de0f859df6b9541,627c6fc626803dda7de0e8e9,2022-05-11_22h24.23.335,classification_task,2021.2.3,Win32,60.0348202,627c6715c52fd12f31907bcf,,,,,,,,,,,,,,,,,,,,,,,a,1,1.648,"[""0.324"",""0.580"",""0.788"",""0.928""]","[1,0,1,1]",0,15,15,15,1,0,0,,,1,FALSE,,,,,,,,,,,,,,,,,,,,,,,,,,,,,,,
,5ec177fd6de0f859df6b9541,627c6fc626803dda7de0e8e9,2022-05-11_22h24.23.335,classification_task,2021.2.3,Win32,60.0348202,627c6715c52fd12f31907bcf,,,,,,,,,,,,,,,,,,,,,,,l,1,1.2871,"[""0.107"",""0.162"",""0.626"",""0.724""]","[1,0,1,1]",0,16,16,16,1,1,0,,,1,FALSE,,,,,,,,,,,,,,,,,,,,,,,,,,,,,,,
,5ec177fd6de0f859df6b9541,627c6fc626803dda7de0e8e9,2022-05-11_22h24.23.335,classification_task,2021.2.3,Win32,60.0348202,627c6715c52fd12f31907bcf,,,,,,,,,,,,,,,,,,,,,,,l,0,1.0691,"[""0.324"",""0.546"",""0.788"",""0.158""]","[1,1,1,0]",0,17,17,17,1,0,0,,,1,FALSE,,,,,,,,,,,,,,,,,,,,,,,,,,,,,,,
,5ec177fd6de0f859df6b9541,627c6fc626803dda7de0e8e9,2022-05-11_22h24.23.335,classification_task,2021.2.3,Win32,60.0348202,627c6715c52fd12f31907bcf,,,,,,,,,,,,,,,,,,,,,,,l,1,1.0312,"[""0.968"",""0.274"",""0.626"",""0.724""]","[0,1,1,1]",0,18,18,18,1,1,0,,,1,FALSE,,,,,,,,,,,,,,,,,,,,,,,,,,,,,,,
,5ec177fd6de0f859df6b9541,627c6fc626803dda7de0e8e9,2022-05-11_22h24.23.335,classification_task,2021.2.3,Win32,60.0348202,627c6715c52fd12f31907bcf,,,,,,,,,,,,,,,,,,,,,,,l,0,0.9382,"[""0.188"",""0.546"",""0.788"",""0.928""]","[0,1,1,1]",0,19,19,19,1,0,0,,,1,FALSE,,,,,,,,,,,,,,,,,,,,,,,,,,,,,,,
,5ec177fd6de0f859df6b9541,627c6fc626803dda7de0e8e9,2022-05-11_22h24.23.335,classification_task,2021.2.3,Win32,60.0348202,627c6715c52fd12f31907bcf,,,,,,,,,,,,,,,,,,,,,,,a,1,0.8599,"[""0.234"",""0.146"",""0.673"",""0.862""]","[1,0,1,1]",0,20,20,20,1,0,1,,,1,FALSE,,,,,,,,,,,,,,,,,,,,,,,,,,,,,,,
,5ec177fd6de0f859df6b9541,627c6fc626803dda7de0e8e9,2022-05-11_22h24.23.335,classification_task,2021.2.3,Win32,60.0348202,627c6715c52fd12f31907bcf,,,,,,,,,,,,,,,,,,,,,,,l,1,0.7157,"[""0.047"",""0.394"",""0.495"",""0.580""]","[1,1,1,0]",0,21,21,21,1,1,1,,,1,FALSE,,,,,,,,,,,,,,,,,,,,,,,,,,,,,,,
,5ec177fd6de0f859df6b9541,627c6fc626803dda7de0e8e9,2022-05-11_22h24.23.335,classification_task,2021.2.3,Win32,60.0348202,627c6715c52fd12f31907bcf,,,,,,,,,,,,,,,,,,,,,,,l,1,1.6169,"[""0.047"",""0.394"",""0.188"",""0.823""]","[1,1,0,1]",0,22,22,22,1,1,1,,,1,FALSE,,,,,,,,,,,,,,,,,,,,,,,,,,,,,,,
,5ec177fd6de0f859df6b9541,627c6fc626803dda7de0e8e9,2022-05-11_22h24.23.335,classification_task,2021.2.3,Win32,60.0348202,627c6715c52fd12f31907bcf,,,,,,,,,,,,,,,,,,,,,,,l,1,2.23,"[""0.107"",""0.274"",""0.626"",""0.587""]","[1,1,1,0]",0,23,23,23,1,1,0,,,1,FALSE,,,,,,,,,,,,,,,,,,,,,,,,,,,,,,,
,5ec177fd6de0f859df6b9541,627c6fc626803dda7de0e8e9,2022-05-11_22h24.23.335,classification_task,2021.2.3,Win32,60.0348202,627c6715c52fd12f31907bcf,,,,,,,,,,,,,,,,,,,,,,,l,1,0.8041,"[""0.183"",""0.394"",""0.495"",""0.823""]","[0,1,1,1]",0,24,24,24,1,1,1,,,1,FALSE,,,,,,,,,,,,,,,,,,,,,,,,,,,,,,,
,5ec177fd6de0f859df6b9541,627c6fc626803dda7de0e8e9,2022-05-11_22h24.23.335,classification_task,2021.2.3,Win32,60.0348202,627c6715c52fd12f31907bcf,,,,,,,,,,,,,,,,,,,,,,,a,1,0.6294,"[""0.234"",""0.448"",""0.182"",""0.862""]","[1,1,0,1]",0,25,25,25,1,0,1,,,1,FALSE,,,,,,,,,,,,,,,,,,,,,,,,,,,,,,,
,5ec177fd6de0f859df6b9541,627c6fc626803dda7de0e8e9,2022-05-11_22h24.23.335,classification_task,2021.2.3,Win32,60.0348202,627c6715c52fd12f31907bcf,,,,,,,,,,,,,,,,,,,,,,,a,1,0.6142,"[""0.162"",""0.448"",""0.673"",""0.862""]","[0,1,1,1]",0,26,26,26,1,0,1,,,1,FALSE,,,,,,,,,,,,,,,,,,,,,,,,,,,,,,,
,5ec177fd6de0f859df6b9541,627c6fc626803dda7de0e8e9,2022-05-11_22h24.23.335,classification_task,2021.2.3,Win32,60.0348202,627c6715c52fd12f31907bcf,,,,,,,,,,,,,,,,,,,,,,,l,0,1.3125,"[""0.324"",""0.546"",""0.146"",""0.928""]","[1,1,0,1]",0,27,27,27,1,0,0,,,1,FALSE,,,,,,,,,,,,,,,,,,,,,,,,,,,,,,,
,5ec177fd6de0f859df6b9541,627c6fc626803dda7de0e8e9,2022-05-11_22h24.23.335,classification_task,2021.2.3,Win32,60.0348202,627c6715c52fd12f31907bcf,,,,,,,,,,,,,,,,,,,,,,,l,1,0.6124,"[""0.047"",""0.358"",""0.495"",""0.823""]","[1,0,1,1]",0,28,28,28,1,1,1,,,1,FALSE,,,,,,,,,,,,,,,,,,,,,,,,,,,,,,,
,5ec177fd6de0f859df6b9541,627c6fc626803dda7de0e8e9,2022-05-11_22h24.23.335,classification_task,2021.2.3,Win32,60.0348202,627c6715c52fd12f31907bcf,,,,,,,,,,,,,,,,,,,,,,,a,1,0.6141,"[""0.234"",""0.448"",""0.673"",""0.580""]","[1,1,1,0]",0,29,29,29,1,0,1,,,1,FALSE,,,,,,,,,,,,,,,,,,,,,,,,,,,,,,,
,5ec177fd6de0f859df6b9541,627c6fc626803dda7de0e8e9,2022-05-11_22h24.23.335,classification_task,2021.2.3,Win32,60.0348202,627c6715c52fd12f31907bcf,,,,,,,,,,,,,,,,,,,,,,,a,1,1.6141,"[""0.324"",""0.188"",""0.788"",""0.928""]","[1,0,1,1]",0,30,30,30,1,0,0,,,1,FALSE,,,,,,,,,,,,,,,,,,,,,,,,,,,,,,,
,5ec177fd6de0f859df6b9541,627c6fc626803dda7de0e8e9,2022-05-11_22h24.23.335,classification_task,2021.2.3,Win32,60.0348202,627c6715c52fd12f31907bcf,,,,,,,,,,,,,,,,,,,,,,,a,0,0.9131,"[""0.107"",""0.274"",""0.161"",""0.724""]","[1,1,0,1]",0,31,31,31,1,1,0,,,1,FALSE,,,,,,,,,,,,,,,,,,,,,,,,,,,,,,,
,5ec177fd6de0f859df6b9541,627c6fc626803dda7de0e8e9,2022-05-11_22h24.23.335,classification_task,2021.2.3,Win32,60.0348202,627c6715c52fd12f31907bcf,,,,,,,,,,,,,,,,,,,,,,,a,1,0.9338,"[""0.146"",""0.546"",""0.788"",""0.928""]","[0,1,1,1]",0,32,32,32,1,0,0,,,1,FALSE,,,,,,,,,,,,,,,,,,,,,,,,,,,,,,,
,5ec177fd6de0f859df6b9541,627c6fc626803dda7de0e8e9,2022-05-11_22h24.23.335,classification_task,2021.2.3,Win32,60.0348202,627c6715c52fd12f31907bcf,,,,,,,,,,,,,,,,,,,,,,,a,1,0.6631,"[""0.234"",""0.448"",""0.673"",""0.199""]","[1,1,1,0]",0,33,33,33,1,0,1,,,1,FALSE,,,,,,,,,,,,,,,,,,,,,,,,,,,,,,,
,5ec177fd6de0f859df6b9541,627c6fc626803dda7de0e8e9,2022-05-11_22h24.23.335,classification_task,2021.2.3,Win32,60.0348202,627c6715c52fd12f31907bcf,,,,,,,,,,,,,,,,,,,,,,,a,1,0.7162,"[""0.199"",""0.448"",""0.673"",""0.862""]","[0,1,1,1]",0,34,34,34,1,0,1,,,1,FALSE,,,,,,,,,,,,,,,,,,,,,,,,,,,,,,,
,5ec177fd6de0f859df6b9541,627c6fc626803dda7de0e8e9,2022-05-11_22h24.23.335,classification_task,2021.2.3,Win32,60.0348202,627c6715c52fd12f31907bcf,,,,,,,,,,,,,,,,,,,,,,,l,0,2.1167,"[""0.324"",""0.587"",""0.788"",""0.928""]","[1,0,1,1]",0,35,35,35,1,0,0,,,1,FALSE,,,,,,,,,,,,,,,,,,,,,,,,,,,,,,,
,5ec177fd6de0f859df6b9541,627c6fc626803dda7de0e8e9,2022-05-11_22h24.23.335,classification_task,2021.2.3,Win32,60.0348202,627c6715c52fd12f31907bcf,,,,,,,,,,,,,,,,,,,,,,,l,1,0.6832,"[""0.047"",""0.394"",""0.358"",""0.823""]","[1,1,0,1]",0,36,36,36,1,1,1,,,1,FALSE,,,,,,,,,,,,,,,,,,,,,,,,,,,,,,,
,5ec177fd6de0f859df6b9541,627c6fc626803dda7de0e8e9,2022-05-11_22h24.23.335,classification_task,2021.2.3,Win32,60.0348202,627c6715c52fd12f31907bcf,,,,,,,,,,,,,,,,,,,,,,,a,1,1.7163,"[""0.324"",""0.546"",""0.968"",""0.928""]","[1,1,0,1]",0,37,37,37,1,0,0,,,1,FALSE,,,,,,,,,,,,,,,,,,,,,,,,,,,,,,,
,5ec177fd6de0f859df6b9541,627c6fc626803dda7de0e8e9,2022-05-11_22h24.23.335,classification_task,2021.2.3,Win32,60.0348202,627c6715c52fd12f31907bcf,,,,,,,,,,,,,,,,,,,,,,,l,1,0.7833,"[""0.107"",""0.274"",""0.587"",""0.724""]","[1,1,0,1]",0,38,38,38,1,1,0,,,1,FALSE,,,,,,,,,,,,,,,,,,,,,,,,,,,,,,,
,5ec177fd6de0f859df6b9541,627c6fc626803dda7de0e8e9,2022-05-11_22h24.23.335,classification_task,2021.2.3,Win32,60.0348202,627c6715c52fd12f31907bcf,,,,,,,,,,,,,,,,,,,,,,,l,1,0.6488,"[""0.182"",""0.394"",""0.495"",""0.823""]","[0,1,1,1]",0,39,39,39,1,1,1,,,1,FALSE,,,,,,,,,,,,,,,,,,,,,,,,,,,,,,,
,5ec177fd6de0f859df6b9541,627c6fc626803dda7de0e8e9,2022-05-11_22h24.23.335,classification_task,2021.2.3,Win32,60.0348202,627c6715c52fd12f31907bcf,,,,,,,,,,,,,,,,,,,,,,,a,1,0.8665,"[""0.234"",""0.358"",""0.673"",""0.862""]","[1,0,1,1]",0,40,40,40,1,0,1,,,1,FALSE,,,,,,,,,,,,,,,,,,,,,,,,,,,,,,,
,5ec177fd6de0f859df6b9541,627c6fc626803dda7de0e8e9,2022-05-11_22h24.23.335,classification_task,2021.2.3,Win32,60.0348202,627c6715c52fd12f31907bcf,,,,,,,,,,,,,,,,,,,,,,,a,0,1.9327,"[""0.107"",""0.274"",""0.626"",""0.196""]","[1,1,1,0]",0,41,41,41,1,1,0,,,1,FALSE,,,,,,,,,,,,,,,,,,,,,,,,,,,,,,,
,5ec177fd6de0f859df6b9541,627c6fc626803dda7de0e8e9,2022-05-11_22h24.23.335,classification_task,2021.2.3,Win32,60.0348202,627c6715c52fd12f31907bcf,,,,,,,,,,,,,,,,,,,,,,,l,1,0.65,"[""0.047"",""0.183"",""0.495"",""0.823""]","[1,0,1,1]",0,42,42,42,1,1,1,,,1,FALSE,,,,,,,,,,,,,,,,,,,,,,,,,,,,,,,
,5ec177fd6de0f859df6b9541,627c6fc626803dda7de0e8e9,2022-05-11_22h24.23.335,classification_task,2021.2.3,Win32,60.0348202,627c6715c52fd12f31907bcf,,,,,,,,,,,,,,,,,,,,,,,l,1,1.4161,"[""0.199"",""0.274"",""0.626"",""0.724""]","[0,1,1,1]",0,43,43,43,1,1,0,,,1,FALSE,,,,,,,,,,,,,,,,,,,,,,,,,,,,,,,
,5ec177fd6de0f859df6b9541,627c6fc626803dda7de0e8e9,2022-05-11_22h24.23.335,classification_task,2021.2.3,Win32,60.0348202,627c6715c52fd12f31907bcf,,,,,,,,,,,,,,,,,,,,,,,l,1,0.7641,"[""0.047"",""0.394"",""0.495"",""0.968""]","[1,1,1,0]",0,44,44,44,1,1,1,,,1,FALSE,,,,,,,,,,,,,,,,,,,,,,,,,,,,,,,
,5ec177fd6de0f859df6b9541,627c6fc626803dda7de0e8e9,2022-05-11_22h24.23.335,classification_task,2021.2.3,Win32,60.0348202,627c6715c52fd12f31907bcf,,,,,,,,,,,,,,,,,,,,,,,l,0,1.5666,"[""0.324"",""0.546"",""0.788"",""0.587""]","[1,1,1,0]",0,45,45,45,1,0,0,,,1,FALSE,,,,,,,,,,,,,,,,,,,,,,,,,,,,,,,
,5ec177fd6de0f859df6b9541,627c6fc626803dda7de0e8e9,2022-05-11_22h24.23.335,classification_task,2021.2.3,Win32,60.0348202,627c6715c52fd12f31907bcf,,,,,,,,,,,,,,,,,,,,,,,l,1,1.2669,"[""0.107"",""0.580"",""0.626"",""0.724""]","[1,0,1,1]",0,46,46,46,1,1,0,,,1,FALSE,,,,,,,,,,,,,,,,,,,,,,,,,,,,,,,
,5ec177fd6de0f859df6b9541,627c6fc626803dda7de0e8e9,2022-05-11_22h24.23.335,classification_task,2021.2.3,Win32,60.0348202,627c6715c52fd12f31907bcf,,,,,,,,,,,,,,,,,,,,,,,a,1,0.7647,"[""0.234"",""0.448"",""0.188"",""0.862""]","[1,1,0,1]",0,47,47,47,1,0,1,,,1,FALSE,,,,,,,,,,,,,,,,,,,,,,,,,,,,,,,
,5ec177fd6de0f859df6b9541,627c6fc626803dda7de0e8e9,2022-05-11_22h24.23.335,classification_task,2021.2.3,Win32,60.0348202,627c6715c52fd12f31907bcf,,,,,,,,,,,,,,,,,,,,,,,a,1,0.583,"[""0.234"",""0.177"",""0.673"",""0.862""]","[1,0,1,1]",0,48,48,48,1,0,1,,,1,FALSE,,,,,,,,,,,,,,,,,,,,,,,,,,,,,,,
,5ec177fd6de0f859df6b9541,627c6fc626803dda7de0e8e9,2022-05-11_22h24.23.335,classification_task,2021.2.3,Win32,60.0348202,627c6715c52fd12f31907bcf,,,,,,,,,,,,,,,,,,,,,,,a,1,1.8834,"[""0.324"",""0.177"",""0.788"",""0.928""]","[1,0,1,1]",0,49,49,49,1,0,0,,,1,FALSE,,,,,,,,,,,,,,,,,,,,,,,,,,,,,,,
,5ec177fd6de0f859df6b9541,627c6fc626803dda7de0e8e9,2022-05-11_22h24.23.335,classification_task,2021.2.3,Win32,60.0348202,627c6715c52fd12f31907bcf,,,,,,,,,,,,,,,,,,,,,,,l,1,0.7325,"[""0.968"",""0.394"",""0.495"",""0.823""]","[0,1,1,1]",0,50,50,50,1,1,1,,,1,FALSE,,,,,,,,,,,,,,,,,,,,,,,,,,,,,,,
,5ec177fd6de0f859df6b9541,627c6fc626803dda7de0e8e9,2022-05-11_22h24.23.335,classification_task,2021.2.3,Win32,60.0348202,627c6715c52fd12f31907bcf,,,,,,,,,,,,,,,,,,,,,,,a,1,0.6003,"[""0.234"",""0.448"",""0.162"",""0.862""]","[1,1,0,1]",0,51,51,51,1,0,1,,,1,FALSE,,,,,,,,,,,,,,,,,,,,,,,,,,,,,,,
,5ec177fd6de0f859df6b9541,627c6fc626803dda7de0e8e9,2022-05-11_22h24.23.335,classification_task,2021.2.3,Win32,60.0348202,627c6715c52fd12f31907bcf,,,,,,,,,,,,,,,,,,,,,,,a,1,0.6837,"[""0.234"",""0.448"",""0.673"",""0.587""]","[1,1,1,0]",0,52,52,52,1,0,1,,,1,FALSE,,,,,,,,,,,,,,,,,,,,,,,,,,,,,,,
,5ec177fd6de0f859df6b9541,627c6fc626803dda7de0e8e9,2022-05-11_22h24.23.335,classification_task,2021.2.3,Win32,60.0348202,627c6715c52fd12f31907bcf,,,,,,,,,,,,,,,,,,,,,,,l,1,1.1674,"[""0.047"",""0.394"",""0.495"",""0.158""]","[1,1,1,0]",0,53,53,53,1,1,1,,,1,FALSE,,,,,,,,,,,,,,,,,,,,,,,,,,,,,,,
,5ec177fd6de0f859df6b9541,627c6fc626803dda7de0e8e9,2022-05-11_22h24.23.335,classification_task,2021.2.3,Win32,60.0348202,627c6715c52fd12f31907bcf,,,,,,,,,,,,,,,,,,,,,,,l,1,2.3485,"[""0.107"",""0.274"",""0.626"",""0.358""]","[1,1,1,0]",0,54,54,54,1,1,0,,,1,FALSE,,,,,,,,,,,,,,,,,,,,,,,,,,,,,,,
,5ec177fd6de0f859df6b9541,627c6fc626803dda7de0e8e9,2022-05-11_22h24.23.335,classification_task,2021.2.3,Win32,60.0348202,627c6715c52fd12f31907bcf,,,,,,,,,,,,,,,,,,,,,,,a,0,2.0173,"[""0.107"",""0.274"",""0.158"",""0.724""]","[1,1,0,1]",0,55,55,55,1,1,0,,,1,FALSE,,,,,,,,,,,,,,,,,,,,,,,,,,,,,,,
,5ec177fd6de0f859df6b9541,627c6fc626803dda7de0e8e9,2022-05-11_22h24.23.335,classification_task,2021.2.3,Win32,60.0348202,627c6715c52fd12f31907bcf,,,,,,,,,,,,,,,,,,,,,,,a,1,1.0661,"[""0.162"",""0.448"",""0.673"",""0.862""]","[0,1,1,1]",0,56,56,56,1,0,1,,,1,FALSE,,,,,,,,,,,,,,,,,,,,,,,,,,,,,,,
,5ec177fd6de0f859df6b9541,627c6fc626803dda7de0e8e9,2022-05-11_22h24.23.335,classification_task,2021.2.3,Win32,60.0348202,627c6715c52fd12f31907bcf,,,,,,,,,,,,,,,,,,,,,,,l,1,0.4844,"[""0.047"",""0.394"",""0.188"",""0.823""]","[1,1,0,1]",0,57,57,57,1,1,1,,,1,FALSE,,,,,,,,,,,,,,,,,,,,,,,,,,,,,,,
,5ec177fd6de0f859df6b9541,627c6fc626803dda7de0e8e9,2022-05-11_22h24.23.335,classification_task,2021.2.3,Win32,60.0348202,627c6715c52fd12f31907bcf,,,,,,,,,,,,,,,,,,,,,,,a,1,1.9991,"[""0.324"",""0.546"",""0.788"",""0.199""]","[1,1,1,0]",0,58,58,58,1,0,0,,,1,FALSE,,,,,,,,,,,,,,,,,,,,,,,,,,,,,,,
,5ec177fd6de0f859df6b9541,627c6fc626803dda7de0e8e9,2022-05-11_22h24.23.335,classification_task,2021.2.3,Win32,60.0348202,627c6715c52fd12f31907bcf,,,,,,,,,,,,,,,,,,,,,,,a,1,2.1326,"[""0.188"",""0.546"",""0.788"",""0.928""]","[0,1,1,1]",0,59,59,59,1,0,0,,,1,FALSE,,,,,,,,,,,,,,,,,,,,,,,,,,,,,,,
,5ec177fd6de0f859df6b9541,627c6fc626803dda7de0e8e9,2022-05-11_22h24.23.335,classification_task,2021.2.3,Win32,60.0348202,627c6715c52fd12f31907bcf,,,,,,,,,,,,,,,,,,,,,,,l,1,1.0505,"[""0.188"",""0.274"",""0.626"",""0.724""]","[0,1,1,1]",0,60,60,60,1,1,0,,,1,FALSE,,,,,,,,,,,,,,,,,,,,,,,,,,,,,,,
,5ec177fd6de0f859df6b9541,627c6fc626803dda7de0e8e9,2022-05-11_22h24.23.335,classification_task,2021.2.3,Win32,60.0348202,627c6715c52fd12f31907bcf,,,,,,,,,,,,,,,,,,,,,,,l,0,1.5846,"[""0.324"",""0.546"",""0.147"",""0.928""]","[1,1,0,1]",0,61,61,61,1,0,0,,,1,FALSE,,,,,,,,,,,,,,,,,,,,,,,,,,,,,,,
,5ec177fd6de0f859df6b9541,627c6fc626803dda7de0e8e9,2022-05-11_22h24.23.335,classification_task,2021.2.3,Win32,60.0348202,627c6715c52fd12f31907bcf,,,,,,,,,,,,,,,,,,,,,,,l,1,1.0826,"[""0.107"",""0.188"",""0.626"",""0.724""]","[1,0,1,1]",0,62,62,62,1,1,0,,,1,FALSE,,,,,,,,,,,,,,,,,,,,,,,,,,,,,,,
,5ec177fd6de0f859df6b9541,627c6fc626803dda7de0e8e9,2022-05-11_22h24.23.335,classification_task,2021.2.3,Win32,60.0348202,627c6715c52fd12f31907bcf,,,,,,,,,,,,,,,,,,,,,,,l,1,0.6837,"[""0.047"",""0.161"",""0.495"",""0.823""]","[1,0,1,1]",0,63,63,63,1,1,1,,,1,FALSE,,,,,,,,,,,,,,,,,,,,,,,,,,,,,,,
,5ec177fd6de0f859df6b9541,627c6fc626803dda7de0e8e9,2022-05-11_22h24.23.335,classification_task,2021.2.3,Win32,60.0348202,627c6715c52fd12f31907bcf,,,,,,,,,,,,,,,,,,,,,,,,,,,,,,,,,,,,,,,0, ,,0,4.27662037,174.5389,0,1,1,1,1,2,2,,,,,,,,,,,,,,,,,,
,5ec177fd6de0f859df6b9541,627c6fc626803dda7de0e8e9,2022-05-11_22h24.23.335,classification_task,2021.2.3,Win32,60.0348202,627c6715c52fd12f31907bcf,,,,,,,,,,,,,,,,,,,,,,,,,,,,,,,,,,,,,,,1,  ,,0,7.790178571,177.8714,0,1,1,1,1,2,2,,,,,,,,,,,,,,,,,,
,5ec177fd6de0f859df6b9541,627c6fc626803dda7de0e8e9,2022-05-11_22h24.23.335,classification_task,2021.2.3,Win32,60.0348202,627c6715c52fd12f31907bcf,,,,,,,,,,,,,,,,,,,,,,,,,,,,,,,,,,,,,,,2,  ,,0,4.552193563,180.2714,0,1,1,1,1,2,2,,,,,,,,,,,,,,,,,,
,5ec177fd6de0f859df6b9541,627c6fc626803dda7de0e8e9,2022-05-11_22h24.23.335,classification_task,2021.2.3,Win32,60.0348202,627c6715c52fd12f31907bcf,,,,,,,,,,,,,,,,,,,,,,,,,,,,,,,,,,,,,,,,,,,,,0,1,1,1,1,,2,,,,,,,,,,,,,,,,,,
,5ec177fd6de0f859df6b9541,627c6fc626803dda7de0e8e9,2022-05-11_22h24.23.335,classification_task,2021.2.3,Win32,60.0348202,627c6715c52fd12f31907bcf,,,,,,,,,,,,,,,,,,,,,space,8.068,a,0,4.7632,"[""0.107"",""0.274"",""0.146"",""0.724""]","[1,1,0,1]",0,0,0,0,1,1,0,,,1,FALSE,,,,,,,,,,,,,,,,,,,,,,,,,,,,,,,
,5ec177fd6de0f859df6b9541,627c6fc626803dda7de0e8e9,2022-05-11_22h24.23.335,classification_task,2021.2.3,Win32,60.0348202,627c6715c52fd12f31907bcf,,,,,,,,,,,,,,,,,,,,,,,a,1,5.6493,"[""0.234"",""0.448"",""0.968"",""0.862""]","[1,1,0,1]",0,1,1,1,1,0,1,,,1,FALSE,,,,,,,,,,,,,,,,,,,,,,,,,,,,,,,
,5ec177fd6de0f859df6b9541,627c6fc626803dda7de0e8e9,2022-05-11_22h24.23.335,classification_task,2021.2.3,Win32,60.0348202,627c6715c52fd12f31907bcf,,,,,,,,,,,,,,,,,,,,,,,l,1,2.3504,"[""0.188"",""0.274"",""0.626"",""0.724""]","[0,1,1,1]",0,2,2,2,1,1,0,,,1,FALSE,,,,,,,,,,,,,,,,,,,,,,,,,,,,,,,
,5ec177fd6de0f859df6b9541,627c6fc626803dda7de0e8e9,2022-05-11_22h24.23.335,classification_task,2021.2.3,Win32,60.0348202,627c6715c52fd12f31907bcf,,,,,,,,,,,,,,,,,,,,,,,a,1,2.6832,"[""0.324"",""0.546"",""0.788"",""0.161""]","[1,1,1,0]",0,3,3,3,1,0,0,,,1,FALSE,,,,,,,,,,,,,,,,,,,,,,,,,,,,,,,
,5ec177fd6de0f859df6b9541,627c6fc626803dda7de0e8e9,2022-05-11_22h24.23.335,classification_task,2021.2.3,Win32,60.0348202,627c6715c52fd12f31907bcf,,,,,,,,,,,,,,,,,,,,,,,l,1,1.5437,"[""0.047"",""0.394"",""0.587"",""0.823""]","[1,1,0,1]",0,4,4,4,1,1,1,,,1,FALSE,,,,,,,,,,,,,,,,,,,,,,,,,,,,,,,
,5ec177fd6de0f859df6b9541,627c6fc626803dda7de0e8e9,2022-05-11_22h24.23.335,classification_task,2021.2.3,Win32,60.0348202,627c6715c52fd12f31907bcf,,,,,,,,,,,,,,,,,,,,,,,l,0,6.4657,"[""0.324"",""0.546"",""0.199"",""0.928""]","[1,1,0,1]",0,5,5,5,1,0,0,,,1,FALSE,,,,,,,,,,,,,,,,,,,,,,,,,,,,,,,
,5ec177fd6de0f859df6b9541,627c6fc626803dda7de0e8e9,2022-05-11_22h24.23.335,classification_task,2021.2.3,Win32,60.0348202,627c6715c52fd12f31907bcf,,,,,,,,,,,,,,,,,,,,,,,a,1,1.2404,"[""0.234"",""0.161"",""0.673"",""0.862""]","[1,0,1,1]",0,6,6,6,1,0,1,,,1,FALSE,,,,,,,,,,,,,,,,,,,,,,,,,,,,,,,
,5ec177fd6de0f859df6b9541,627c6fc626803dda7de0e8e9,2022-05-11_22h24.23.335,classification_task,2021.2.3,Win32,60.0348202,627c6715c52fd12f31907bcf,,,,,,,,,,,,,,,,,,,,,,,l,1,1.3137,"[""0.047"",""0.394"",""0.495"",""0.968""]","[1,1,1,0]",0,7,7,7,1,1,1,,,1,FALSE,,,,,,,,,,,,,,,,,,,,,,,,,,,,,,,
,5ec177fd6de0f859df6b9541,627c6fc626803dda7de0e8e9,2022-05-11_22h24.23.335,classification_task,2021.2.3,Win32,60.0348202,627c6715c52fd12f31907bcf,,,,,,,,,,,,,,,,,,,,,,,a,1,2.3177,"[""0.324"",""0.177"",""0.788"",""0.928""]","[1,0,1,1]",0,8,8,8,1,0,0,,,1,FALSE,,,,,,,,,,,,,,,,,,,,,,,,,,,,,,,
,5ec177fd6de0f859df6b9541,627c6fc626803dda7de0e8e9,2022-05-11_22h24.23.335,classification_task,2021.2.3,Win32,60.0348202,627c6715c52fd12f31907bcf,,,,,,,,,,,,,,,,,,,,,,,l,1,3.1737,"[""0.107"",""0.274"",""0.626"",""0.161""]","[1,1,1,0]",0,9,9,9,1,1,0,,,1,FALSE,,,,,,,,,,,,,,,,,,,,,,,,,,,,,,,
,5ec177fd6de0f859df6b9541,627c6fc626803dda7de0e8e9,2022-05-11_22h24.23.335,classification_task,2021.2.3,Win32,60.0348202,627c6715c52fd12f31907bcf,,,,,,,,,,,,,,,,,,,,,,,l,1,3.7545,"[""0.107"",""0.358"",""0.626"",""0.724""]","[1,0,1,1]",0,10,10,10,1,1,0,,,1,FALSE,,,,,,,,,,,,,,,,,,,,,,,,,,,,,,,
,5ec177fd6de0f859df6b9541,627c6fc626803dda7de0e8e9,2022-05-11_22h24.23.335,classification_task,2021.2.3,Win32,60.0348202,627c6715c52fd12f31907bcf,,,,,,,,,,,,,,,,,,,,,,,l,0,2.3904,"[""0.358"",""0.546"",""0.788"",""0.928""]","[0,1,1,1]",0,11,11,11,1,0,0,,,1,FALSE,,,,,,,,,,,,,,,,,,,,,,,,,,,,,,,
,5ec177fd6de0f859df6b9541,627c6fc626803dda7de0e8e9,2022-05-11_22h24.23.335,classification_task,2021.2.3,Win32,60.0348202,627c6715c52fd12f31907bcf,,,,,,,,,,,,,,,,,,,,,,,a,1,2.3898,"[""0.580"",""0.448"",""0.673"",""0.862""]","[0,1,1,1]",0,12,12,12,1,0,1,,,1,FALSE,,,,,,,,,,,,,,,,,,,,,,,,,,,,,,,
,5ec177fd6de0f859df6b9541,627c6fc626803dda7de0e8e9,2022-05-11_22h24.23.335,classification_task,2021.2.3,Win32,60.0348202,627c6715c52fd12f31907bcf,,,,,,,,,,,,,,,,,,,,,,,l,1,2.532,"[""0.580"",""0.394"",""0.495"",""0.823""]","[0,1,1,1]",0,13,13,13,1,1,1,,,1,FALSE,,,,,,,,,,,,,,,,,,,,,,,,,,,,,,,
,5ec177fd6de0f859df6b9541,627c6fc626803dda7de0e8e9,2022-05-11_22h24.23.335,classification_task,2021.2.3,Win32,60.0348202,627c6715c52fd12f31907bcf,,,,,,,,,,,,,,,,,,,,,,,l,1,1.4547,"[""0.047"",""0.146"",""0.495"",""0.823""]","[1,0,1,1]",0,14,14,14,1,1,1,,,1,FALSE,,,,,,,,,,,,,,,,,,,,,,,,,,,,,,,
,5ec177fd6de0f859df6b9541,627c6fc626803dda7de0e8e9,2022-05-11_22h24.23.335,classification_task,2021.2.3,Win32,60.0348202,627c6715c52fd12f31907bcf,,,,,,,,,,,,,,,,,,,,,,,a,1,0.8836,"[""0.234"",""0.448"",""0.673"",""0.968""]","[1,1,1,0]",0,15,15,15,1,0,1,,,1,FALSE,,,,,,,,,,,,,,,,,,,,,,,,,,,,,,,
,5ec177fd6de0f859df6b9541,627c6fc626803dda7de0e8e9,2022-05-11_22h24.23.335,classification_task,2021.2.3,Win32,60.0348202,627c6715c52fd12f31907bcf,,,,,,,,,,,,,,,,,,,,,,,a,1,1.0517,"[""0.234"",""0.448"",""0.673"",""0.162""]","[1,1,1,0]",0,16,16,16,1,0,1,,,1,FALSE,,,,,,,,,,,,,,,,,,,,,,,,,,,,,,,
,5ec177fd6de0f859df6b9541,627c6fc626803dda7de0e8e9,2022-05-11_22h24.23.335,classification_task,2021.2.3,Win32,60.0348202,627c6715c52fd12f31907bcf,,,,,,,,,,,,,,,,,,,,,,,l,0,5.3483,"[""0.161"",""0.546"",""0.788"",""0.928""]","[0,1,1,1]",0,17,17,17,1,0,0,,,1,FALSE,,,,,,,,,,,,,,,,,,,,,,,,,,,,,,,
,5ec177fd6de0f859df6b9541,627c6fc626803dda7de0e8e9,2022-05-11_22h24.23.335,classification_task,2021.2.3,Win32,60.0348202,627c6715c52fd12f31907bcf,,,,,,,,,,,,,,,,,,,,,,,a,1,1.0601,"[""0.234"",""0.147"",""0.673"",""0.862""]","[1,0,1,1]",0,18,18,18,1,0,1,,,1,FALSE,,,,,,,,,,,,,,,,,,,,,,,,,,,,,,,
,5ec177fd6de0f859df6b9541,627c6fc626803dda7de0e8e9,2022-05-11_22h24.23.335,classification_task,2021.2.3,Win32,60.0348202,627c6715c52fd12f31907bcf,,,,,,,,,,,,,,,,,,,,,,,a,1,1.7988,"[""0.587"",""0.448"",""0.673"",""0.862""]","[0,1,1,1]",0,19,19,19,1,0,1,,,1,FALSE,,,,,,,,,,,,,,,,,,,,,,,,,,,,,,,
,5ec177fd6de0f859df6b9541,627c6fc626803dda7de0e8e9,2022-05-11_22h24.23.335,classification_task,2021.2.3,Win32,60.0348202,627c6715c52fd12f31907bcf,,,,,,,,,,,,,,,,,,,,,,,l,1,1.0854,"[""0.047"",""0.394"",""0.495"",""0.968""]","[1,1,1,0]",0,20,20,20,1,1,1,,,1,FALSE,,,,,,,,,,,,,,,,,,,,,,,,,,,,,,,
,5ec177fd6de0f859df6b9541,627c6fc626803dda7de0e8e9,2022-05-11_22h24.23.335,classification_task,2021.2.3,Win32,60.0348202,627c6715c52fd12f31907bcf,,,,,,,,,,,,,,,,,,,,,,,a,1,1.8013,"[""0.324"",""0.546"",""0.183"",""0.928""]","[1,1,0,1]",0,21,21,21,1,0,0,,,1,FALSE,,,,,,,,,,,,,,,,,,,,,,,,,,,,,,,
,5ec177fd6de0f859df6b9541,627c6fc626803dda7de0e8e9,2022-05-11_22h24.23.335,classification_task,2021.2.3,Win32,60.0348202,627c6715c52fd12f31907bcf,,,,,,,,,,,,,,,,,,,,,,,l,1,4.8072,"[""0.107"",""0.162"",""0.626"",""0.724""]","[1,0,1,1]",0,22,22,22,1,1,0,,,1,FALSE,,,,,,,,,,,,,,,,,,,,,,,,,,,,,,,
,5ec177fd6de0f859df6b9541,627c6fc626803dda7de0e8e9,2022-05-11_22h24.23.335,classification_task,2021.2.3,Win32,60.0348202,627c6715c52fd12f31907bcf,,,,,,,,,,,,,,,,,,,,,,,l,1,2.1895,"[""0.146"",""0.394"",""0.495"",""0.823""]","[0,1,1,1]",0,23,23,23,1,1,1,,,1,FALSE,,,,,,,,,,,,,,,,,,,,,,,,,,,,,,,
,5ec177fd6de0f859df6b9541,627c6fc626803dda7de0e8e9,2022-05-11_22h24.23.335,classification_task,2021.2.3,Win32,60.0348202,627c6715c52fd12f31907bcf,,,,,,,,,,,,,,,,,,,,,,,l,1,2.0043,"[""0.107"",""0.274"",""0.177"",""0.724""]","[1,1,0,1]",0,24,24,24,1,1,0,,,1,FALSE,,,,,,,,,,,,,,,,,,,,,,,,,,,,,,,
,5ec177fd6de0f859df6b9541,627c6fc626803dda7de0e8e9,2022-05-11_22h24.23.335,classification_task,2021.2.3,Win32,60.0348202,627c6715c52fd12f31907bcf,,,,,,,,,,,,,,,,,,,,,,,l,1,1.808,"[""0.107"",""0.274"",""0.626"",""0.147""]","[1,1,1,0]",0,25,25,25,1,1,0,,,1,FALSE,,,,,,,,,,,,,,,,,,,,,,,,,,,,,,,
,5ec177fd6de0f859df6b9541,627c6fc626803dda7de0e8e9,2022-05-11_22h24.23.335,classification_task,2021.2.3,Win32,60.0348202,627c6715c52fd12f31907bcf,,,,,,,,,,,,,,,,,,,,,,,a,1,1.8202,"[""0.324"",""0.147"",""0.788"",""0.928""]","[1,0,1,1]",0,26,26,26,1,0,0,,,1,FALSE,,,,,,,,,,,,,,,,,,,,,,,,,,,,,,,
,5ec177fd6de0f859df6b9541,627c6fc626803dda7de0e8e9,2022-05-11_22h24.23.335,classification_task,2021.2.3,Win32,60.0348202,627c6715c52fd12f31907bcf,,,,,,,,,,,,,,,,,,,,,,,a,1,1.4818,"[""0.324"",""0.546"",""0.788"",""0.182""]","[1,1,1,0]",0,27,27,27,1,0,0,,,1,FALSE,,,,,,,,,,,,,,,,,,,,,,,,,,,,,,,
,5ec177fd6de0f859df6b9541,627c6fc626803dda7de0e8e9,2022-05-11_22h24.23.335,classification_task,2021.2.3,Win32,60.0348202,627c6715c52fd12f31907bcf,,,,,,,,,,,,,,,,,,,,,,,a,1,1.3223,"[""0.234"",""0.448"",""0.177"",""0.862""]","[1,1,0,1]",0,28,28,28,1,0,1,,,1,FALSE,,,,,,,,,,,,,,,,,,,,,,,,,,,,,,,
,5ec177fd6de0f859df6b9541,627c6fc626803dda7de0e8e9,2022-05-11_22h24.23.335,classification_task,2021.2.3,Win32,60.0348202,627c6715c52fd12f31907bcf,,,,,,,,,,,,,,,,,,,,,,,l,1,1.5138,"[""0.358"",""0.274"",""0.626"",""0.724""]","[0,1,1,1]",0,29,29,29,1,1,0,,,1,FALSE,,,,,,,,,,,,,,,,,,,,,,,,,,,,,,,
,5ec177fd6de0f859df6b9541,627c6fc626803dda7de0e8e9,2022-05-11_22h24.23.335,classification_task,2021.2.3,Win32,60.0348202,627c6715c52fd12f31907bcf,,,,,,,,,,,,,,,,,,,,,,,l,1,1.699,"[""0.047"",""0.188"",""0.495"",""0.823""]","[1,0,1,1]",0,30,30,30,1,1,1,,,1,FALSE,,,,,,,,,,,,,,,,,,,,,,,,,,,,,,,
,5ec177fd6de0f859df6b9541,627c6fc626803dda7de0e8e9,2022-05-11_22h24.23.335,classification_task,2021.2.3,Win32,60.0348202,627c6715c52fd12f31907bcf,,,,,,,,,,,,,,,,,,,,,,,l,1,0.8707,"[""0.047"",""0.394"",""0.188"",""0.823""]","[1,1,0,1]",0,31,31,31,1,1,1,,,1,FALSE,,,,,,,,,,,,,,,,,,,,,,,,,,,,,,,
,5ec177fd6de0f859df6b9541,627c6fc626803dda7de0e8e9,2022-05-11_22h24.23.335,classification_task,2021.2.3,Win32,60.0348202,627c6715c52fd12f31907bcf,,,,,,,,,,,,,,,,,,,,,,,l,1,2.9988,"[""0.107"",""0.358"",""0.626"",""0.724""]","[1,0,1,1]",0,32,32,32,1,1,0,,,1,FALSE,,,,,,,,,,,,,,,,,,,,,,,,,,,,,,,
,5ec177fd6de0f859df6b9541,627c6fc626803dda7de0e8e9,2022-05-11_22h24.23.335,classification_task,2021.2.3,Win32,60.0348202,627c6715c52fd12f31907bcf,,,,,,,,,,,,,,,,,,,,,,,l,1,1.9907,"[""0.047"",""0.394"",""0.495"",""0.147""]","[1,1,1,0]",0,33,33,33,1,1,1,,,1,FALSE,,,,,,,,,,,,,,,,,,,,,,,,,,,,,,,
,5ec177fd6de0f859df6b9541,627c6fc626803dda7de0e8e9,2022-05-11_22h24.23.335,classification_task,2021.2.3,Win32,60.0348202,627c6715c52fd12f31907bcf,,,,,,,,,,,,,,,,,,,,,,,l,1,2.0066,"[""0.047"",""0.358"",""0.495"",""0.823""]","[1,0,1,1]",0,34,34,34,1,1,1,,,1,FALSE,,,,,,,,,,,,,,,,,,,,,,,,,,,,,,,
,5ec177fd6de0f859df6b9541,627c6fc626803dda7de0e8e9,2022-05-11_22h24.23.335,classification_task,2021.2.3,Win32,60.0348202,627c6715c52fd12f31907bcf,,,,,,,,,,,,,,,,,,,,,,,a,1,1.0647,"[""0.234"",""0.448"",""0.161"",""0.862""]","[1,1,0,1]",0,35,35,35,1,0,1,,,1,FALSE,,,,,,,,,,,,,,,,,,,,,,,,,,,,,,,
,5ec177fd6de0f859df6b9541,627c6fc626803dda7de0e8e9,2022-05-11_22h24.23.335,classification_task,2021.2.3,Win32,60.0348202,627c6715c52fd12f31907bcf,,,,,,,,,,,,,,,,,,,,,,,a,1,0.7649,"[""0.234"",""0.147"",""0.673"",""0.862""]","[1,0,1,1]",0,36,36,36,1,0,1,,,1,FALSE,,,,,,,,,,,,,,,,,,,,,,,,,,,,,,,
,5ec177fd6de0f859df6b9541,627c6fc626803dda7de0e8e9,2022-05-11_22h24.23.335,classification_task,2021.2.3,Win32,60.0348202,627c6715c52fd12f31907bcf,,,,,,,,,,,,,,,,,,,,,,,a,1,1.6669,"[""0.324"",""0.183"",""0.788"",""0.928""]","[1,0,1,1]",0,37,37,37,1,0,0,,,1,FALSE,,,,,,,,,,,,,,,,,,,,,,,,,,,,,,,
,5ec177fd6de0f859df6b9541,627c6fc626803dda7de0e8e9,2022-05-11_22h24.23.335,classification_task,2021.2.3,Win32,60.0348202,627c6715c52fd12f31907bcf,,,,,,,,,,,,,,,,,,,,,,,a,1,1.2431,"[""0.234"",""0.448"",""0.673"",""0.147""]","[1,1,1,0]",0,38,38,38,1,0,1,,,1,FALSE,,,,,,,,,,,,,,,,,,,,,,,,,,,,,,,
,5ec177fd6de0f859df6b9541,627c6fc626803dda7de0e8e9,2022-05-11_22h24.23.335,classification_task,2021.2.3,Win32,60.0348202,627c6715c52fd12f31907bcf,,,,,,,,,,,,,,,,,,,,,,,l,1,6.1645,"[""0.107"",""0.274"",""0.626"",""0.162""]","[1,1,1,0]",0,39,39,39,1,1,0,,,1,FALSE,,,,,,,,,,,,,,,,,,,,,,,,,,,,,,,
,5ec177fd6de0f859df6b9541,627c6fc626803dda7de0e8e9,2022-05-11_22h24.23.335,classification_task,2021.2.3,Win32,60.0348202,627c6715c52fd12f31907bcf,,,,,,,,,,,,,,,,,,,,,,,l,1,1.0886,"[""0.107"",""0.274"",""0.146"",""0.724""]","[1,1,0,1]",0,40,40,40,1,1,0,,,1,FALSE,,,,,,,,,,,,,,,,,,,,,,,,,,,,,,,
,5ec177fd6de0f859df6b9541,627c6fc626803dda7de0e8e9,2022-05-11_22h24.23.335,classification_task,2021.2.3,Win32,60.0348202,627c6715c52fd12f31907bcf,,,,,,,,,,,,,,,,,,,,,,,l,1,2.096,"[""0.047"",""0.394"",""0.183"",""0.823""]","[1,1,0,1]",0,41,41,41,1,1,1,,,1,FALSE,,,,,,,,,,,,,,,,,,,,,,,,,,,,,,,
,5ec177fd6de0f859df6b9541,627c6fc626803dda7de0e8e9,2022-05-11_22h24.23.335,classification_task,2021.2.3,Win32,60.0348202,627c6715c52fd12f31907bcf,,,,,,,,,,,,,,,,,,,,,,,l,1,1.1255,"[""0.587"",""0.274"",""0.626"",""0.724""]","[0,1,1,1]",0,42,42,42,1,1,0,,,1,FALSE,,,,,,,,,,,,,,,,,,,,,,,,,,,,,,,
,5ec177fd6de0f859df6b9541,627c6fc626803dda7de0e8e9,2022-05-11_22h24.23.335,classification_task,2021.2.3,Win32,60.0348202,627c6715c52fd12f31907bcf,,,,,,,,,,,,,,,,,,,,,,,a,1,0.8324,"[""0.324"",""0.546"",""0.188"",""0.928""]","[1,1,0,1]",0,43,43,43,1,0,0,,,1,FALSE,,,,,,,,,,,,,,,,,,,,,,,,,,,,,,,
,5ec177fd6de0f859df6b9541,627c6fc626803dda7de0e8e9,2022-05-11_22h24.23.335,classification_task,2021.2.3,Win32,60.0348202,627c6715c52fd12f31907bcf,,,,,,,,,,,,,,,,,,,,,,,a,1,0.6656,"[""0.324"",""0.546"",""0.788"",""0.158""]","[1,1,1,0]",0,44,44,44,1,0,0,,,1,FALSE,,,,,,,,,,,,,,,,,,,,,,,,,,,,,,,
,5ec177fd6de0f859df6b9541,627c6fc626803dda7de0e8e9,2022-05-11_22h24.23.335,classification_task,2021.2.3,Win32,60.0348202,627c6715c52fd12f31907bcf,,,,,,,,,,,,,,,,,,,,,,,a,1,1.9656,"[""0.580"",""0.448"",""0.673"",""0.862""]","[0,1,1,1]",0,45,45,45,1,0,1,,,1,FALSE,,,,,,,,,,,,,,,,,,,,,,,,,,,,,,,
,5ec177fd6de0f859df6b9541,627c6fc626803dda7de0e8e9,2022-05-11_22h24.23.335,classification_task,2021.2.3,Win32,60.0348202,627c6715c52fd12f31907bcf,,,,,,,,,,,,,,,,,,,,,,,l,1,2.4312,"[""0.358"",""0.394"",""0.495"",""0.823""]","[0,1,1,1]",0,46,46,46,1,1,1,,,1,FALSE,,,,,,,,,,,,,,,,,,,,,,,,,,,,,,,
,5ec177fd6de0f859df6b9541,627c6fc626803dda7de0e8e9,2022-05-11_22h24.23.335,classification_task,2021.2.3,Win32,60.0348202,627c6715c52fd12f31907bcf,,,,,,,,,,,,,,,,,,,,,,,l,0,5.4572,"[""0.177"",""0.546"",""0.788"",""0.928""]","[0,1,1,1]",0,47,47,47,1,0,0,,,1,FALSE,,,,,,,,,,,,,,,,,,,,,,,,,,,,,,,
,5ec177fd6de0f859df6b9541,627c6fc626803dda7de0e8e9,2022-05-11_22h24.23.335,classification_task,2021.2.3,Win32,60.0348202,627c6715c52fd12f31907bcf,,,,,,,,,,,,,,,,,,,,,,,a,0,4.4714,"[""0.107"",""0.580"",""0.626"",""0.724""]","[1,0,1,1]",0,48,48,48,1,1,0,,,1,FALSE,,,,,,,,,,,,,,,,,,,,,,,,,,,,,,,
,5ec177fd6de0f859df6b9541,627c6fc626803dda7de0e8e9,2022-05-11_22h24.23.335,classification_task,2021.2.3,Win32,60.0348202,627c6715c52fd12f31907bcf,,,,,,,,,,,,,,,,,,,,,,,l,1,2.2291,"[""0.047"",""0.394"",""0.161"",""0.823""]","[1,1,0,1]",0,49,49,49,1,1,1,,,1,FALSE,,,,,,,,,,,,,,,,,,,,,,,,,,,,,,,
,5ec177fd6de0f859df6b9541,627c6fc626803dda7de0e8e9,2022-05-11_22h24.23.335,classification_task,2021.2.3,Win32,60.0348202,627c6715c52fd12f31907bcf,,,,,,,,,,,,,,,,,,,,,,,a,1,1.6189,"[""0.324"",""0.546"",""0.788"",""0.199""]","[1,1,1,0]",0,50,50,50,1,0,0,,,1,FALSE,,,,,,,,,,,,,,,,,,,,,,,,,,,,,,,
,5ec177fd6de0f859df6b9541,627c6fc626803dda7de0e8e9,2022-05-11_22h24.23.335,classification_task,2021.2.3,Win32,60.0348202,627c6715c52fd12f31907bcf,,,,,,,,,,,,,,,,,,,,,,,l,1,2.0045,"[""0.199"",""0.274"",""0.626"",""0.724""]","[0,1,1,1]",0,51,51,51,1,1,0,,,1,FALSE,,,,,,,,,,,,,,,,,,,,,,,,,,,,,,,
,5ec177fd6de0f859df6b9541,627c6fc626803dda7de0e8e9,2022-05-11_22h24.23.335,classification_task,2021.2.3,Win32,60.0348202,627c6715c52fd12f31907bcf,,,,,,,,,,,,,,,,,,,,,,,l,1,1.6318,"[""0.047"",""0.147"",""0.495"",""0.823""]","[1,0,1,1]",0,52,52,52,1,1,1,,,1,FALSE,,,,,,,,,,,,,,,,,,,,,,,,,,,,,,,
,5ec177fd6de0f859df6b9541,627c6fc626803dda7de0e8e9,2022-05-11_22h24.23.335,classification_task,2021.2.3,Win32,60.0348202,627c6715c52fd12f31907bcf,,,,,,,,,,,,,,,,,,,,,,,l,1,3.1082,"[""0.107"",""0.274"",""0.199"",""0.724""]","[1,1,0,1]",0,53,53,53,1,1,0,,,1,FALSE,,,,,,,,,,,,,,,,,,,,,,,,,,,,,,,
,5ec177fd6de0f859df6b9541,627c6fc626803dda7de0e8e9,2022-05-11_22h24.23.335,classification_task,2021.2.3,Win32,60.0348202,627c6715c52fd12f31907bcf,,,,,,,,,,,,,,,,,,,,,,,l,1,3.3036,"[""0.047"",""0.394"",""0.495"",""0.968""]","[1,1,1,0]",0,54,54,54,1,1,1,,,1,FALSE,,,,,,,,,,,,,,,,,,,,,,,,,,,,,,,
,5ec177fd6de0f859df6b9541,627c6fc626803dda7de0e8e9,2022-05-11_22h24.23.335,classification_task,2021.2.3,Win32,60.0348202,627c6715c52fd12f31907bcf,,,,,,,,,,,,,,,,,,,,,,,a,1,2.2868,"[""0.580"",""0.546"",""0.788"",""0.928""]","[0,1,1,1]",0,55,55,55,1,0,0,,,1,FALSE,,,,,,,,,,,,,,,,,,,,,,,,,,,,,,,
,5ec177fd6de0f859df6b9541,627c6fc626803dda7de0e8e9,2022-05-11_22h24.23.335,classification_task,2021.2.3,Win32,60.0348202,627c6715c52fd12f31907bcf,,,,,,,,,,,,,,,,,,,,,,,a,1,1.4235,"[""0.324"",""0.546"",""0.147"",""0.928""]","[1,1,0,1]",0,56,56,56,1,0,0,,,1,FALSE,,,,,,,,,,,,,,,,,,,,,,,,,,,,,,,
,5ec177fd6de0f859df6b9541,627c6fc626803dda7de0e8e9,2022-05-11_22h24.23.335,classification_task,2021.2.3,Win32,60.0348202,627c6715c52fd12f31907bcf,,,,,,,,,,,,,,,,,,,,,,,a,1,1.3168,"[""0.324"",""0.146"",""0.788"",""0.928""]","[1,0,1,1]",0,57,57,57,1,0,0,,,1,FALSE,,,,,,,,,,,,,,,,,,,,,,,,,,,,,,,
,5ec177fd6de0f859df6b9541,627c6fc626803dda7de0e8e9,2022-05-11_22h24.23.335,classification_task,2021.2.3,Win32,60.0348202,627c6715c52fd12f31907bcf,,,,,,,,,,,,,,,,,,,,,,,a,1,3.4052,"[""0.182"",""0.448"",""0.673"",""0.862""]","[0,1,1,1]",0,58,58,58,1,0,1,,,1,FALSE,,,,,,,,,,,,,,,,,,,,,,,,,,,,,,,
,5ec177fd6de0f859df6b9541,627c6fc626803dda7de0e8e9,2022-05-11_22h24.23.335,classification_task,2021.2.3,Win32,60.0348202,627c6715c52fd12f31907bcf,,,,,,,,,,,,,,,,,,,,,,,l,0,2.1072,"[""0.234"",""0.147"",""0.673"",""0.862""]","[1,0,1,1]",0,59,59,59,1,0,1,,,1,FALSE,,,,,,,,,,,,,,,,,,,,,,,,,,,,,,,
,5ec177fd6de0f859df6b9541,627c6fc626803dda7de0e8e9,2022-05-11_22h24.23.335,classification_task,2021.2.3,Win32,60.0348202,627c6715c52fd12f31907bcf,,,,,,,,,,,,,,,,,,,,,,,l,1,3.004,"[""0.107"",""0.274"",""0.626"",""0.968""]","[1,1,1,0]",0,60,60,60,1,1,0,,,1,FALSE,,,,,,,,,,,,,,,,,,,,,,,,,,,,,,,
,5ec177fd6de0f859df6b9541,627c6fc626803dda7de0e8e9,2022-05-11_22h24.23.335,classification_task,2021.2.3,Win32,60.0348202,627c6715c52fd12f31907bcf,,,,,,,,,,,,,,,,,,,,,,,a,1,1.3396,"[""0.234"",""0.448"",""0.673"",""0.196""]","[1,1,1,0]",0,61,61,61,1,0,1,,,1,FALSE,,,,,,,,,,,,,,,,,,,,,,,,,,,,,,,
,5ec177fd6de0f859df6b9541,627c6fc626803dda7de0e8e9,2022-05-11_22h24.23.335,classification_task,2021.2.3,Win32,60.0348202,627c6715c52fd12f31907bcf,,,,,,,,,,,,,,,,,,,,,,,a,1,0.8164,"[""0.234"",""0.448"",""0.358"",""0.862""]","[1,1,0,1]",0,62,62,62,1,0,1,,,1,FALSE,,,,,,,,,,,,,,,,,,,,,,,,,,,,,,,
,5ec177fd6de0f859df6b9541,627c6fc626803dda7de0e8e9,2022-05-11_22h24.23.335,classification_task,2021.2.3,Win32,60.0348202,627c6715c52fd12f31907bcf,,,,,,,,,,,,,,,,,,,,,,,l,1,2.2168,"[""0.188"",""0.394"",""0.495"",""0.823""]","[0,1,1,1]",0,63,63,63,1,1,1,,,1,FALSE,,,,,,,,,,,,,,,,,,,,,,,,,,,,,,,
,5ec177fd6de0f859df6b9541,627c6fc626803dda7de0e8e9,2022-05-11_22h24.23.335,classification_task,2021.2.3,Win32,60.0348202,627c6715c52fd12f31907bcf,,,,,,,,,,,,,,,,,,,,,,,,,,,,,,,,,,,,,,,0, ,,0,3.070987654,228.9284,0,2,2,2,1,2,3,,,,,,,,,,,,,,,,,,
,5ec177fd6de0f859df6b9541,627c6fc626803dda7de0e8e9,2022-05-11_22h24.23.335,classification_task,2021.2.3,Win32,60.0348202,627c6715c52fd12f31907bcf,,,,,,,,,,,,,,,,,,,,,,,,,,,,,,,,,,,,,,,1,  ,,0,8.134645062,232.527,0,2,2,2,1,2,3,,,,,,,,,,,,,,,,,,
,5ec177fd6de0f859df6b9541,627c6fc626803dda7de0e8e9,2022-05-11_22h24.23.335,classification_task,2021.2.3,Win32,60.0348202,627c6715c52fd12f31907bcf,,,,,,,,,,,,,,,,,,,,,,,,,,,,,,,,,,,,,,,2,  ,,0,5.172233245,242.893,0,2,2,2,1,2,3,,,,,,,,,,,,,,,,,,
,5ec177fd6de0f859df6b9541,627c6fc626803dda7de0e8e9,2022-05-11_22h24.23.335,classification_task,2021.2.3,Win32,60.0348202,627c6715c52fd12f31907bcf,,,,,,,,,,,,,,,,,,,,,,,,,,,,,,,,,,,,,,,,,,,,,0,2,2,2,1,,3,,,,,,,,,,,,,,,,,,
,5ec177fd6de0f859df6b9541,627c6fc626803dda7de0e8e9,2022-05-11_22h24.23.335,classification_task,2021.2.3,Win32,60.0348202,627c6715c52fd12f31907bcf,,,,,,,,,,,,,,,,,,,,,,,,,,,,,,,,,,,,,,,,,,,,,,,,,,,,,I believe the aid is a competent performer,,0.7,0,4,947.5297,0,0,0,0,1,0,,,,,
,5ec177fd6de0f859df6b9541,627c6fc626803dda7de0e8e9,2022-05-11_22h24.23.335,classification_task,2021.2.3,Win32,60.0348202,627c6715c52fd12f31907bcf,,,,,,,,,,,,,,,,,,,,,,,,,,,,,,,,,,,,,,,,,,,,,,,,,,,,,I trust the aid,,0.7,0,5,949.6343,0,0,0,0,1,0,,,,,
,5ec177fd6de0f859df6b9541,627c6fc626803dda7de0e8e9,2022-05-11_22h24.23.335,classification_task,2021.2.3,Win32,60.0348202,627c6715c52fd12f31907bcf,,,,,,,,,,,,,,,,,,,,,,,,,,,,,,,,,,,,,,,,,,,,,,,,,,,,,I have confidence in the advice given by the aid,,0.7,0,4,954.5977,0,0,0,0,1,0,,,,,
,5ec177fd6de0f859df6b9541,627c6fc626803dda7de0e8e9,2022-05-11_22h24.23.335,classification_task,2021.2.3,Win32,60.0348202,627c6715c52fd12f31907bcf,,,,,,,,,,,,,,,,,,,,,,,,,,,,,,,,,,,,,,,,,,,,,,,,,,,,,I can depend on the aid,,0.7,0,3,957.1455,0,0,0,0,1,0,,,,,
,5ec177fd6de0f859df6b9541,627c6fc626803dda7de0e8e9,2022-05-11_22h24.23.335,classification_task,2021.2.3,Win32,60.0348202,627c6715c52fd12f31907bcf,,,,,,,,,,,,,,,,,,,,,,,,,,,,,,,,,,,,,,,,,,,,,,,,,,,,,I can rely on the aid to behave in consistent ways,,0.7,0,4,964.3252,0,0,0,0,1,0,,,,,
,5ec177fd6de0f859df6b9541,627c6fc626803dda7de0e8e9,2022-05-11_22h24.23.335,classification_task,2021.2.3,Win32,60.0348202,627c6715c52fd12f31907bcf,,,,,,,,,,,,,,,,,,,,,,,,,,,,,,,,,,,,,,,,,,,,,,,,,,,,,I can rely on the aid to do its best every time I take its advice,,0.7,0,4,967.1845,0,0,0,0,1,0,,,,,
,5ec177fd6de0f859df6b9541,627c6fc626803dda7de0e8e9,2022-05-11_22h24.23.335,classification_task,2021.2.3,Win32,60.0348202,627c6715c52fd12f31907bcf,,,,,,,,,,,,,,,,,,,,,,,,,,,,,,,,,,,,,,,,,,,,,,,,,,,,,"On trials you completed with assistance from the aid, how frequently did you think the aid was correct?",,0.7,0,90%,,0,0,0,0,1,0,,,,,
,5ec177fd6de0f859df6b9541,627c6fc626803dda7de0e8e9,2022-05-11_22h24.23.335,classification_task,2021.2.3,Win32,60.0348202,627c6715c52fd12f31907bcf,,,,,,,,,,,,,,,,,,,,,,,,,,,,,,,,,,,,,,,,,,,,,,,,,,,,,"On trials you completed without the aid, how frequently did you think you were correct?",,0.7,0,75%,,0,0,0,0,1,0,,,,,
,5ec177fd6de0f859df6b9541,627c6fc626803dda7de0e8e9,2022-05-11_22h24.23.335,classification_task,2021.2.3,Win32,60.0348202,627c6715c52fd12f31907bcf,,,,,,,,,,,,,,,,,,,,,,,,,,,,,,,,,,,,,,,,,,,,,,,,,,,,,,,,,,,0,0,0,0,1,,,,,,
,5ec177fd6de0f859df6b9541,627c6fc626803dda7de0e8e9,2022-05-11_22h24.23.335,classification_task,2021.2.3,Win32,60.0348202,627c6715c52fd12f31907bcf,,,,,,,,,,,,,,,,,,,,,,,,,,,,,,,,,,,,,,,,,,,,,,,,,,,,,,,,,,,,,,,,,space,9.5217,1008.6809,,
,5ec177fd6de0f859df6b9541,627c6fc626803dda7de0e8e9,2022-05-11_22h24.23.335,classification_task,2021.2.3,Win32,60.0348202,627c6715c52fd12f31907bcf,,,,,,,,,,,,,,,,,,,,,,,,,,,,,,,,,,,,,,,,,,,,,,,,,,,,,,,,,,,,,,,,,,,,"Mozilla/5.0 (Windows NT 10.0; Win64; x64) AppleWebKit/537.36 (KHTML, like Gecko) Chrome/101.0.4951.54 Safari/537.36",
,5ec177fd6de0f859df6b9541,627c6fc626803dda7de0e8e9,2022-05-11_22h24.23.335,classification_task,2021.2.3,Win32,60.0348202,627c6715c52fd12f31907bcf,,,,,,,,,,,,,,,,,,,,,,,,,,,,,,,,,,,,,,,,,,,,,,,,,,,,,,,,,,,,,,,,,,,,,HIGHLIGHT
