usingWebGL,participant,session,date,expName,psychopyVersion,OS,frameRate,study_id,signatures_friend,signatures_foe,band_ranges_top,band_ranges_bottom,formitemText,formtype,formundefined,formitemWidth,formindex,formresponse,formrt,key_resp_2.keys,key_resp_2.rt,tute_resp.keys,tute_resp.rt,tutorial.thisRepN,tutorial.thisTrialN,tutorial.thisN,tutorial.thisIndex,tutorial.ran,key_resp_4.keys,key_resp_4.rt,key_resp.keys,key_resp.corr,key_resp.rt,lines_presented,is_signal_presented,trials.thisRepN,trials.thisTrialN,trials.thisN,trials.thisIndex,trials.ran,vessel,active_band,lines,is_signal,supported_pos,catch_trial,debrief_formindex,debrief_formitemText,debrief_formtype,debrief_formitemWidth,debrief_formresponse,debrief_formrt,phases.thisRepN,phases.thisTrialN,phases.thisN,phases.thisIndex,phases.ran,phases.order,phase,key_resp_3.keys,trustitemText,trusttype,trustitemWidth,trustindex,trustresponse,trustrt,support_status.thisRepN,support_status.thisTrialN,support_status.thisN,support_status.thisIndex,support_status.ran,support_status.order,key_resp_5.keys,key_resp_5.rt,globalClockTime,userAgent,manualCondition
TRUE,5ec96e9d4907d947b526e08d,627c679d1bf092acd0d5d6b7,2022-05-11_20h49.43.841,classification_task,2021.2.3,Win32,60.0240096,627c6715c52fd12f31907bcf,,,,,,,,,,,,,,,,,,,,,,,,,,,,,,,,,,,,,,,,,,,,,,,,,,,,,,,,,,,,,,,,,,,,,
,5ec96e9d4907d947b526e08d,627c679d1bf092acd0d5d6b7,2022-05-11_20h49.43.841,classification_task,2021.2.3,Win32,60.0240096,627c6715c52fd12f31907bcf,"[[""0.185"",""0.367"",""0.708"",""0.881""],[""0.320"",""0.453"",""0.919"",""0.955""]]","[[""0.093"",""0.285"",""0.631"",""0.762""],[""0.138"",""0.417"",""0.560"",""0.836""]]","[1,10]","[100,1000]",Video game experience,,,0.7,0,,,,,,,,,,,,,,,,,,,,,,,,,,,,,,,,,,,,,,,,,,,,,,,,,,,,,,,,,,,,
,5ec96e9d4907d947b526e08d,627c679d1bf092acd0d5d6b7,2022-05-11_20h49.43.841,classification_task,2021.2.3,Win32,60.0240096,627c6715c52fd12f31907bcf,,,,,Approximately how many hours did you spend playing video games in the last week?,,,0.7,0,0,,,,,,,,,,,,,,,,,,,,,,,,,,,,,,,,,,,,,,,,,,,,,,,,,,,,,,,,,,,
,5ec96e9d4907d947b526e08d,627c679d1bf092acd0d5d6b7,2022-05-11_20h49.43.841,classification_task,2021.2.3,Win32,60.0240096,627c6715c52fd12f31907bcf,,,,,"Which game did you play the most this year? (Enter ""None"" if you didn't play any)",,,0.7,0,COD Warzone,,,,,,,,,,,,,,,,,,,,,,,,,,,,,,,,,,,,,,,,,,,,,,,,,,,,,,,,,,,
,5ec96e9d4907d947b526e08d,627c679d1bf092acd0d5d6b7,2022-05-11_20h49.43.841,classification_task,2021.2.3,Win32,60.0240096,627c6715c52fd12f31907bcf,,,,,Visual perception,,,0.7,0,,,,,,,,,,,,,,,,,,,,,,,,,,,,,,,,,,,,,,,,,,,,,,,,,,,,,,,,,,,,
,5ec96e9d4907d947b526e08d,627c679d1bf092acd0d5d6b7,2022-05-11_20h49.43.841,classification_task,2021.2.3,Win32,60.0240096,627c6715c52fd12f31907bcf,,,,,Do you have any form of color blindness?,,,0.7,0,No,31.361,,,,,,,,,,,,,,,,,,,,,,,,,,,,,,,,,,,,,,,,,,,,,,,,,,,,,,,,,,
,5ec96e9d4907d947b526e08d,627c679d1bf092acd0d5d6b7,2022-05-11_20h49.43.841,classification_task,2021.2.3,Win32,60.0240096,627c6715c52fd12f31907bcf,,,,,Do you use software to change the colour temperature of your screen (e.g. f.lux)?,,,0.7,0,No,33.647,,,,,,,,,,,,,,,,,,,,,,,,,,,,,,,,,,,,,,,,,,,,,,,,,,,,,,,,,,
,5ec96e9d4907d947b526e08d,627c679d1bf092acd0d5d6b7,2022-05-11_20h49.43.841,classification_task,2021.2.3,Win32,60.0240096,627c6715c52fd12f31907bcf,,,,,,,,,,,,space,56.591,space,10.07,0,0,0,0,1,,,,,,,,,,,,,,,,,,,,,,,,,,,,,,,,,,,,,,,,,,,,,,,,,
,5ec96e9d4907d947b526e08d,627c679d1bf092acd0d5d6b7,2022-05-11_20h49.43.841,classification_task,2021.2.3,Win32,60.0240096,627c6715c52fd12f31907bcf,,,,,,,,,,,,,,space,6.924,1,0,1,0,1,,,,,,,,,,,,,,,,,,,,,,,,,,,,,,,,,,,,,,,,,,,,,,,,,
,5ec96e9d4907d947b526e08d,627c679d1bf092acd0d5d6b7,2022-05-11_20h49.43.841,classification_task,2021.2.3,Win32,60.0240096,627c6715c52fd12f31907bcf,,,,,,,,,,,,,,space,22.944,2,0,2,0,1,,,,,,,,,,,,,,,,,,,,,,,,,,,,,,,,,,,,,,,,,,,,,,,,,
,5ec96e9d4907d947b526e08d,627c679d1bf092acd0d5d6b7,2022-05-11_20h49.43.841,classification_task,2021.2.3,Win32,60.0240096,627c6715c52fd12f31907bcf,,,,,,,,,,,,,,space,5.906,3,0,3,0,1,,,,,,,,,,,,,,,,,,,,,,,,,,,,,,,,,,,,,,,,,,,,,,,,,
,5ec96e9d4907d947b526e08d,627c679d1bf092acd0d5d6b7,2022-05-11_20h49.43.841,classification_task,2021.2.3,Win32,60.0240096,627c6715c52fd12f31907bcf,,,,,,,,,,,,,,space,10.449,4,0,4,0,1,,,,,,,,,,,,,,,,,,,,,,,,,,,,,,,,,,,,,,,,,,,,,,,,,
,5ec96e9d4907d947b526e08d,627c679d1bf092acd0d5d6b7,2022-05-11_20h49.43.841,classification_task,2021.2.3,Win32,60.0240096,627c6715c52fd12f31907bcf,,,,,,,,,,,,,,,,,,,,,space,15.184,l,1,3.187,"[""0.138"",""0.417"",""0.560"",""0.797""]","[1,1,1,0]",0,0,0,0,1,1,1,,,1,FALSE,,,,,,,,,,,,,,,,,,,,,,,,,,,,,,,
,5ec96e9d4907d947b526e08d,627c679d1bf092acd0d5d6b7,2022-05-11_20h49.43.841,classification_task,2021.2.3,Win32,60.0240096,627c6715c52fd12f31907bcf,,,,,,,,,,,,,,,,,,,,,,,l,1,3.572,"[""0.093"",""0.285"",""0.054"",""0.762""]","[1,1,0,1]",0,1,1,1,1,1,0,,,1,FALSE,,,,,,,,,,,,,,,,,,,,,,,,,,,,,,,
,5ec96e9d4907d947b526e08d,627c679d1bf092acd0d5d6b7,2022-05-11_20h49.43.841,classification_task,2021.2.3,Win32,60.0240096,627c6715c52fd12f31907bcf,,,,,,,,,,,,,,,,,,,,,,,l,0,2.845,"[""0.185"",""0.367"",""0.708"",""0.046""]","[1,1,1,0]",0,2,2,2,1,0,0,,,1,FALSE,,,,,,,,,,,,,,,,,,,,,,,,,,,,,,,
,5ec96e9d4907d947b526e08d,627c679d1bf092acd0d5d6b7,2022-05-11_20h49.43.841,classification_task,2021.2.3,Win32,60.0240096,627c6715c52fd12f31907bcf,,,,,,,,,,,,,,,,,,,,,,,a,1,4.588,"[""0.798"",""0.453"",""0.919"",""0.955""]","[0,1,1,1]",0,3,3,3,1,0,1,,,1,FALSE,,,,,,,,,,,,,,,,,,,,,,,,,,,,,,,
,5ec96e9d4907d947b526e08d,627c679d1bf092acd0d5d6b7,2022-05-11_20h49.43.841,classification_task,2021.2.3,Win32,60.0240096,627c6715c52fd12f31907bcf,,,,,,,,,,,,,,,,,,,,,,,l,1,2.807,"[""0.052"",""0.417"",""0.560"",""0.836""]","[0,1,1,1]",0,4,4,4,1,1,1,,,1,FALSE,,,,,,,,,,,,,,,,,,,,,,,,,,,,,,,
,5ec96e9d4907d947b526e08d,627c679d1bf092acd0d5d6b7,2022-05-11_20h49.43.841,classification_task,2021.2.3,Win32,60.0240096,627c6715c52fd12f31907bcf,,,,,,,,,,,,,,,,,,,,,,,a,1,2.236,"[""0.185"",""0.367"",""0.798"",""0.881""]","[1,1,0,1]",0,5,5,5,1,0,0,,,1,FALSE,,,,,,,,,,,,,,,,,,,,,,,,,,,,,,,
,5ec96e9d4907d947b526e08d,627c679d1bf092acd0d5d6b7,2022-05-11_20h49.43.841,classification_task,2021.2.3,Win32,60.0240096,627c6715c52fd12f31907bcf,,,,,,,,,,,,,,,,,,,,,,,l,1,2.635,"[""0.093"",""0.236"",""0.631"",""0.762""]","[1,0,1,1]",0,6,6,6,1,1,0,,,1,FALSE,,,,,,,,,,,,,,,,,,,,,,,,,,,,,,,
,5ec96e9d4907d947b526e08d,627c679d1bf092acd0d5d6b7,2022-05-11_20h49.43.841,classification_task,2021.2.3,Win32,60.0240096,627c6715c52fd12f31907bcf,,,,,,,,,,,,,,,,,,,,,,,l,1,2.338,"[""0.138"",""0.417"",""0.494"",""0.836""]","[1,1,0,1]",0,7,7,7,1,1,1,,,1,FALSE,,,,,,,,,,,,,,,,,,,,,,,,,,,,,,,
,5ec96e9d4907d947b526e08d,627c679d1bf092acd0d5d6b7,2022-05-11_20h49.43.841,classification_task,2021.2.3,Win32,60.0240096,627c6715c52fd12f31907bcf,,,,,,,,,,,,,,,,,,,,,,,l,1,2.49,"[""0.138"",""0.049"",""0.560"",""0.836""]","[1,0,1,1]",0,8,8,8,1,1,1,,,1,FALSE,,,,,,,,,,,,,,,,,,,,,,,,,,,,,,,
,5ec96e9d4907d947b526e08d,627c679d1bf092acd0d5d6b7,2022-05-11_20h49.43.841,classification_task,2021.2.3,Win32,60.0240096,627c6715c52fd12f31907bcf,,,,,,,,,,,,,,,,,,,,,,,a,1,2.467,"[""0.320"",""0.671"",""0.919"",""0.955""]","[1,0,1,1]",0,9,9,9,1,0,1,,,1,FALSE,,,,,,,,,,,,,,,,,,,,,,,,,,,,,,,
,5ec96e9d4907d947b526e08d,627c679d1bf092acd0d5d6b7,2022-05-11_20h49.43.841,classification_task,2021.2.3,Win32,60.0240096,627c6715c52fd12f31907bcf,,,,,,,,,,,,,,,,,,,,,,,l,1,2.187,"[""0.093"",""0.285"",""0.631"",""0.055""]","[1,1,1,0]",0,10,10,10,1,1,0,,,1,FALSE,,,,,,,,,,,,,,,,,,,,,,,,,,,,,,,
,5ec96e9d4907d947b526e08d,627c679d1bf092acd0d5d6b7,2022-05-11_20h49.43.841,classification_task,2021.2.3,Win32,60.0240096,627c6715c52fd12f31907bcf,,,,,,,,,,,,,,,,,,,,,,,l,1,2.336,"[""0.054"",""0.285"",""0.631"",""0.762""]","[0,1,1,1]",0,11,11,11,1,1,0,,,1,FALSE,,,,,,,,,,,,,,,,,,,,,,,,,,,,,,,
,5ec96e9d4907d947b526e08d,627c679d1bf092acd0d5d6b7,2022-05-11_20h49.43.841,classification_task,2021.2.3,Win32,60.0240096,627c6715c52fd12f31907bcf,,,,,,,,,,,,,,,,,,,,,,,a,1,1.989,"[""0.320"",""0.453"",""0.798"",""0.955""]","[1,1,0,1]",0,12,12,12,1,0,1,,,1,FALSE,,,,,,,,,,,,,,,,,,,,,,,,,,,,,,,
,5ec96e9d4907d947b526e08d,627c679d1bf092acd0d5d6b7,2022-05-11_20h49.43.841,classification_task,2021.2.3,Win32,60.0240096,627c6715c52fd12f31907bcf,,,,,,,,,,,,,,,,,,,,,,,l,0,3.094,"[""0.185"",""0.055"",""0.708"",""0.881""]","[1,0,1,1]",0,13,13,13,1,0,0,,,1,FALSE,,,,,,,,,,,,,,,,,,,,,,,,,,,,,,,
,5ec96e9d4907d947b526e08d,627c679d1bf092acd0d5d6b7,2022-05-11_20h49.43.841,classification_task,2021.2.3,Win32,60.0240096,627c6715c52fd12f31907bcf,,,,,,,,,,,,,,,,,,,,,,,l,0,1.421,"[""0.320"",""0.453"",""0.919"",""0.052""]","[1,1,1,0]",0,14,14,14,1,0,1,,,1,FALSE,,,,,,,,,,,,,,,,,,,,,,,,,,,,,,,
,5ec96e9d4907d947b526e08d,627c679d1bf092acd0d5d6b7,2022-05-11_20h49.43.841,classification_task,2021.2.3,Win32,60.0240096,627c6715c52fd12f31907bcf,,,,,,,,,,,,,,,,,,,,,,,l,0,4.905,"[""0.671"",""0.367"",""0.708"",""0.881""]","[0,1,1,1]",0,15,15,15,1,0,0,,,1,FALSE,,,,,,,,,,,,,,,,,,,,,,,,,,,,,,,
,5ec96e9d4907d947b526e08d,627c679d1bf092acd0d5d6b7,2022-05-11_20h49.43.841,classification_task,2021.2.3,Win32,60.0240096,627c6715c52fd12f31907bcf,,,,,,,,,,,,,,,,,,,,,,,a,1,3.459,"[""0.520"",""0.453"",""0.919"",""0.955""]","[0,1,1,1]",0,16,16,16,1,0,1,,,1,FALSE,,,,,,,,,,,,,,,,,,,,,,,,,,,,,,,
,5ec96e9d4907d947b526e08d,627c679d1bf092acd0d5d6b7,2022-05-11_20h49.43.841,classification_task,2021.2.3,Win32,60.0240096,627c6715c52fd12f31907bcf,,,,,,,,,,,,,,,,,,,,,,,a,1,1.853,"[""0.185"",""0.367"",""0.494"",""0.881""]","[1,1,0,1]",0,17,17,17,1,0,0,,,1,FALSE,,,,,,,,,,,,,,,,,,,,,,,,,,,,,,,
,5ec96e9d4907d947b526e08d,627c679d1bf092acd0d5d6b7,2022-05-11_20h49.43.841,classification_task,2021.2.3,Win32,60.0240096,627c6715c52fd12f31907bcf,,,,,,,,,,,,,,,,,,,,,,,a,1,2.964,"[""0.320"",""0.453"",""0.919"",""0.494""]","[1,1,1,0]",0,18,18,18,1,0,1,,,1,FALSE,,,,,,,,,,,,,,,,,,,,,,,,,,,,,,,
,5ec96e9d4907d947b526e08d,627c679d1bf092acd0d5d6b7,2022-05-11_20h49.43.841,classification_task,2021.2.3,Win32,60.0240096,627c6715c52fd12f31907bcf,,,,,,,,,,,,,,,,,,,,,,,l,1,2.874,"[""0.138"",""0.052"",""0.560"",""0.836""]","[1,0,1,1]",0,19,19,19,1,1,1,,,1,FALSE,,,,,,,,,,,,,,,,,,,,,,,,,,,,,,,
,5ec96e9d4907d947b526e08d,627c679d1bf092acd0d5d6b7,2022-05-11_20h49.43.841,classification_task,2021.2.3,Win32,60.0240096,627c6715c52fd12f31907bcf,,,,,,,,,,,,,,,,,,,,,,,l,1,2.942,"[""0.093"",""0.285"",""0.666"",""0.762""]","[1,1,0,1]",0,20,20,20,1,1,0,,,1,FALSE,,,,,,,,,,,,,,,,,,,,,,,,,,,,,,,
,5ec96e9d4907d947b526e08d,627c679d1bf092acd0d5d6b7,2022-05-11_20h49.43.841,classification_task,2021.2.3,Win32,60.0240096,627c6715c52fd12f31907bcf,,,,,,,,,,,,,,,,,,,,,,,l,1,2.342,"[""0.138"",""0.417"",""0.560"",""0.596""]","[1,1,1,0]",0,21,21,21,1,1,1,,,1,FALSE,,,,,,,,,,,,,,,,,,,,,,,,,,,,,,,
,5ec96e9d4907d947b526e08d,627c679d1bf092acd0d5d6b7,2022-05-11_20h49.43.841,classification_task,2021.2.3,Win32,60.0240096,627c6715c52fd12f31907bcf,,,,,,,,,,,,,,,,,,,,,,,l,1,3.849,"[""0.490"",""0.417"",""0.560"",""0.836""]","[0,1,1,1]",0,22,22,22,1,1,1,,,1,FALSE,,,,,,,,,,,,,,,,,,,,,,,,,,,,,,,
,5ec96e9d4907d947b526e08d,627c679d1bf092acd0d5d6b7,2022-05-11_20h49.43.841,classification_task,2021.2.3,Win32,60.0240096,627c6715c52fd12f31907bcf,,,,,,,,,,,,,,,,,,,,,,,l,1,2.391,"[""0.093"",""0.285"",""0.631"",""0.055""]","[1,1,1,0]",0,23,23,23,1,1,0,,,1,FALSE,,,,,,,,,,,,,,,,,,,,,,,,,,,,,,,
,5ec96e9d4907d947b526e08d,627c679d1bf092acd0d5d6b7,2022-05-11_20h49.43.841,classification_task,2021.2.3,Win32,60.0240096,627c6715c52fd12f31907bcf,,,,,,,,,,,,,,,,,,,,,,,a,1,3.757,"[""0.185"",""0.054"",""0.708"",""0.881""]","[1,0,1,1]",0,24,24,24,1,0,0,,,1,FALSE,,,,,,,,,,,,,,,,,,,,,,,,,,,,,,,
,5ec96e9d4907d947b526e08d,627c679d1bf092acd0d5d6b7,2022-05-11_20h49.43.841,classification_task,2021.2.3,Win32,60.0240096,627c6715c52fd12f31907bcf,,,,,,,,,,,,,,,,,,,,,,,l,1,4.719,"[""0.495"",""0.285"",""0.631"",""0.762""]","[0,1,1,1]",0,25,25,25,1,1,0,,,1,FALSE,,,,,,,,,,,,,,,,,,,,,,,,,,,,,,,
,5ec96e9d4907d947b526e08d,627c679d1bf092acd0d5d6b7,2022-05-11_20h49.43.841,classification_task,2021.2.3,Win32,60.0240096,627c6715c52fd12f31907bcf,,,,,,,,,,,,,,,,,,,,,,,a,1,3.295,"[""0.320"",""0.497"",""0.919"",""0.955""]","[1,0,1,1]",0,26,26,26,1,0,1,,,1,FALSE,,,,,,,,,,,,,,,,,,,,,,,,,,,,,,,
,5ec96e9d4907d947b526e08d,627c679d1bf092acd0d5d6b7,2022-05-11_20h49.43.841,classification_task,2021.2.3,Win32,60.0240096,627c6715c52fd12f31907bcf,,,,,,,,,,,,,,,,,,,,,,,a,1,4.022,"[""0.495"",""0.367"",""0.708"",""0.881""]","[0,1,1,1]",0,27,27,27,1,0,0,,,1,FALSE,,,,,,,,,,,,,,,,,,,,,,,,,,,,,,,
,5ec96e9d4907d947b526e08d,627c679d1bf092acd0d5d6b7,2022-05-11_20h49.43.841,classification_task,2021.2.3,Win32,60.0240096,627c6715c52fd12f31907bcf,,,,,,,,,,,,,,,,,,,,,,,l,1,3.423,"[""0.138"",""0.417"",""0.797"",""0.836""]","[1,1,0,1]",0,28,28,28,1,1,1,,,1,FALSE,,,,,,,,,,,,,,,,,,,,,,,,,,,,,,,
,5ec96e9d4907d947b526e08d,627c679d1bf092acd0d5d6b7,2022-05-11_20h49.43.841,classification_task,2021.2.3,Win32,60.0240096,627c6715c52fd12f31907bcf,,,,,,,,,,,,,,,,,,,,,,,a,1,2.598,"[""0.185"",""0.367"",""0.708"",""0.798""]","[1,1,1,0]",0,29,29,29,1,0,0,,,1,FALSE,,,,,,,,,,,,,,,,,,,,,,,,,,,,,,,
,5ec96e9d4907d947b526e08d,627c679d1bf092acd0d5d6b7,2022-05-11_20h49.43.841,classification_task,2021.2.3,Win32,60.0240096,627c6715c52fd12f31907bcf,,,,,,,,,,,,,,,,,,,,,,,a,1,4.472,"[""0.320"",""0.453"",""0.054"",""0.955""]","[1,1,0,1]",0,30,30,30,1,0,1,,,1,FALSE,,,,,,,,,,,,,,,,,,,,,,,,,,,,,,,
,5ec96e9d4907d947b526e08d,627c679d1bf092acd0d5d6b7,2022-05-11_20h49.43.841,classification_task,2021.2.3,Win32,60.0240096,627c6715c52fd12f31907bcf,,,,,,,,,,,,,,,,,,,,,,,l,1,3.996,"[""0.093"",""0.671"",""0.631"",""0.762""]","[1,0,1,1]",0,31,31,31,1,1,0,,,1,FALSE,,,,,,,,,,,,,,,,,,,,,,,,,,,,,,,
,5ec96e9d4907d947b526e08d,627c679d1bf092acd0d5d6b7,2022-05-11_20h49.43.841,classification_task,2021.2.3,Win32,60.0240096,627c6715c52fd12f31907bcf,,,,,,,,,,,,,,,,,,,,,,,a,1,4.001,"[""0.320"",""0.453"",""0.919"",""0.596""]","[1,1,1,0]",0,32,32,32,1,0,1,,,1,FALSE,,,,,,,,,,,,,,,,,,,,,,,,,,,,,,,
,5ec96e9d4907d947b526e08d,627c679d1bf092acd0d5d6b7,2022-05-11_20h49.43.841,classification_task,2021.2.3,Win32,60.0240096,627c6715c52fd12f31907bcf,,,,,,,,,,,,,,,,,,,,,,,l,0,1.298,"[""0.054"",""0.367"",""0.708"",""0.881""]","[0,1,1,1]",0,33,33,33,1,0,0,,,1,FALSE,,,,,,,,,,,,,,,,,,,,,,,,,,,,,,,
,5ec96e9d4907d947b526e08d,627c679d1bf092acd0d5d6b7,2022-05-11_20h49.43.841,classification_task,2021.2.3,Win32,60.0240096,627c6715c52fd12f31907bcf,,,,,,,,,,,,,,,,,,,,,,,a,0,1.604,"[""0.138"",""0.417"",""0.560"",""0.497""]","[1,1,1,0]",0,34,34,34,1,1,1,,,1,FALSE,,,,,,,,,,,,,,,,,,,,,,,,,,,,,,,
,5ec96e9d4907d947b526e08d,627c679d1bf092acd0d5d6b7,2022-05-11_20h49.43.841,classification_task,2021.2.3,Win32,60.0240096,627c6715c52fd12f31907bcf,,,,,,,,,,,,,,,,,,,,,,,a,1,2.172,"[""0.797"",""0.453"",""0.919"",""0.955""]","[0,1,1,1]",0,35,35,35,1,0,1,,,1,FALSE,,,,,,,,,,,,,,,,,,,,,,,,,,,,,,,
,5ec96e9d4907d947b526e08d,627c679d1bf092acd0d5d6b7,2022-05-11_20h49.43.841,classification_task,2021.2.3,Win32,60.0240096,627c6715c52fd12f31907bcf,,,,,,,,,,,,,,,,,,,,,,,a,1,2.778,"[""0.185"",""0.495"",""0.708"",""0.881""]","[1,0,1,1]",0,36,36,36,1,0,0,,,1,FALSE,,,,,,,,,,,,,,,,,,,,,,,,,,,,,,,
,5ec96e9d4907d947b526e08d,627c679d1bf092acd0d5d6b7,2022-05-11_20h49.43.841,classification_task,2021.2.3,Win32,60.0240096,627c6715c52fd12f31907bcf,,,,,,,,,,,,,,,,,,,,,,,l,1,3.413,"[""0.138"",""0.054"",""0.560"",""0.836""]","[1,0,1,1]",0,37,37,37,1,1,1,,,1,FALSE,,,,,,,,,,,,,,,,,,,,,,,,,,,,,,,
,5ec96e9d4907d947b526e08d,627c679d1bf092acd0d5d6b7,2022-05-11_20h49.43.841,classification_task,2021.2.3,Win32,60.0240096,627c6715c52fd12f31907bcf,,,,,,,,,,,,,,,,,,,,,,,a,0,2.485,"[""0.671"",""0.417"",""0.560"",""0.836""]","[0,1,1,1]",0,38,38,38,1,1,1,,,1,FALSE,,,,,,,,,,,,,,,,,,,,,,,,,,,,,,,
,5ec96e9d4907d947b526e08d,627c679d1bf092acd0d5d6b7,2022-05-11_20h49.43.841,classification_task,2021.2.3,Win32,60.0240096,627c6715c52fd12f31907bcf,,,,,,,,,,,,,,,,,,,,,,,a,1,4.392,"[""0.185"",""0.367"",""0.671"",""0.881""]","[1,1,0,1]",0,39,39,39,1,0,0,,,1,FALSE,,,,,,,,,,,,,,,,,,,,,,,,,,,,,,,
,5ec96e9d4907d947b526e08d,627c679d1bf092acd0d5d6b7,2022-05-11_20h49.43.841,classification_task,2021.2.3,Win32,60.0240096,627c6715c52fd12f31907bcf,,,,,,,,,,,,,,,,,,,,,,,a,1,2.652,"[""0.320"",""0.453"",""0.798"",""0.955""]","[1,1,0,1]",0,40,40,40,1,0,1,,,1,FALSE,,,,,,,,,,,,,,,,,,,,,,,,,,,,,,,
,5ec96e9d4907d947b526e08d,627c679d1bf092acd0d5d6b7,2022-05-11_20h49.43.841,classification_task,2021.2.3,Win32,60.0240096,627c6715c52fd12f31907bcf,,,,,,,,,,,,,,,,,,,,,,,l,0,3.429,"[""0.185"",""0.367"",""0.708"",""0.054""]","[1,1,1,0]",0,41,41,41,1,0,0,,,1,FALSE,,,,,,,,,,,,,,,,,,,,,,,,,,,,,,,
,5ec96e9d4907d947b526e08d,627c679d1bf092acd0d5d6b7,2022-05-11_20h49.43.841,classification_task,2021.2.3,Win32,60.0240096,627c6715c52fd12f31907bcf,,,,,,,,,,,,,,,,,,,,,,,a,1,3.212,"[""0.320"",""0.797"",""0.919"",""0.955""]","[1,0,1,1]",0,42,42,42,1,0,1,,,1,FALSE,,,,,,,,,,,,,,,,,,,,,,,,,,,,,,,
,5ec96e9d4907d947b526e08d,627c679d1bf092acd0d5d6b7,2022-05-11_20h49.43.841,classification_task,2021.2.3,Win32,60.0240096,627c6715c52fd12f31907bcf,,,,,,,,,,,,,,,,,,,,,,,l,1,4.579,"[""0.093"",""0.285"",""0.631"",""0.494""]","[1,1,1,0]",0,43,43,43,1,1,0,,,1,FALSE,,,,,,,,,,,,,,,,,,,,,,,,,,,,,,,
,5ec96e9d4907d947b526e08d,627c679d1bf092acd0d5d6b7,2022-05-11_20h49.43.841,classification_task,2021.2.3,Win32,60.0240096,627c6715c52fd12f31907bcf,,,,,,,,,,,,,,,,,,,,,,,a,0,1.607,"[""0.138"",""0.417"",""0.236"",""0.836""]","[1,1,0,1]",0,44,44,44,1,1,1,,,1,FALSE,,,,,,,,,,,,,,,,,,,,,,,,,,,,,,,
,5ec96e9d4907d947b526e08d,627c679d1bf092acd0d5d6b7,2022-05-11_20h49.43.841,classification_task,2021.2.3,Win32,60.0240096,627c6715c52fd12f31907bcf,,,,,,,,,,,,,,,,,,,,,,,a,0,3.201,"[""0.093"",""0.055"",""0.631"",""0.762""]","[1,0,1,1]",0,45,45,45,1,1,0,,,1,FALSE,,,,,,,,,,,,,,,,,,,,,,,,,,,,,,,
,5ec96e9d4907d947b526e08d,627c679d1bf092acd0d5d6b7,2022-05-11_20h49.43.841,classification_task,2021.2.3,Win32,60.0240096,627c6715c52fd12f31907bcf,,,,,,,,,,,,,,,,,,,,,,,a,0,3.352,"[""0.490"",""0.285"",""0.631"",""0.762""]","[0,1,1,1]",0,46,46,46,1,1,0,,,1,FALSE,,,,,,,,,,,,,,,,,,,,,,,,,,,,,,,
,5ec96e9d4907d947b526e08d,627c679d1bf092acd0d5d6b7,2022-05-11_20h49.43.841,classification_task,2021.2.3,Win32,60.0240096,627c6715c52fd12f31907bcf,,,,,,,,,,,,,,,,,,,,,,,l,1,3.472,"[""0.093"",""0.285"",""0.052"",""0.762""]","[1,1,0,1]",0,47,47,47,1,1,0,,,1,FALSE,,,,,,,,,,,,,,,,,,,,,,,,,,,,,,,
,5ec96e9d4907d947b526e08d,627c679d1bf092acd0d5d6b7,2022-05-11_20h49.43.841,classification_task,2021.2.3,Win32,60.0240096,627c6715c52fd12f31907bcf,,,,,,,,,,,,,,,,,,,,,,,a,0,3.889,"[""0.046"",""0.285"",""0.631"",""0.762""]","[0,1,1,1]",0,48,48,48,1,1,0,,,1,FALSE,,,,,,,,,,,,,,,,,,,,,,,,,,,,,,,
,5ec96e9d4907d947b526e08d,627c679d1bf092acd0d5d6b7,2022-05-11_20h49.43.841,classification_task,2021.2.3,Win32,60.0240096,627c6715c52fd12f31907bcf,,,,,,,,,,,,,,,,,,,,,,,l,1,2.899,"[""0.093"",""0.285"",""0.631"",""0.049""]","[1,1,1,0]",0,49,49,49,1,1,0,,,1,FALSE,,,,,,,,,,,,,,,,,,,,,,,,,,,,,,,
,5ec96e9d4907d947b526e08d,627c679d1bf092acd0d5d6b7,2022-05-11_20h49.43.841,classification_task,2021.2.3,Win32,60.0240096,627c6715c52fd12f31907bcf,,,,,,,,,,,,,,,,,,,,,,,a,0,4.688,"[""0.138"",""0.417"",""0.560"",""0.052""]","[1,1,1,0]",0,50,50,50,1,1,1,,,1,FALSE,,,,,,,,,,,,,,,,,,,,,,,,,,,,,,,
,5ec96e9d4907d947b526e08d,627c679d1bf092acd0d5d6b7,2022-05-11_20h49.43.841,classification_task,2021.2.3,Win32,60.0240096,627c6715c52fd12f31907bcf,,,,,,,,,,,,,,,,,,,,,,,l,1,3.854,"[""0.798"",""0.417"",""0.560"",""0.836""]","[0,1,1,1]",0,51,51,51,1,1,1,,,1,FALSE,,,,,,,,,,,,,,,,,,,,,,,,,,,,,,,
,5ec96e9d4907d947b526e08d,627c679d1bf092acd0d5d6b7,2022-05-11_20h49.43.841,classification_task,2021.2.3,Win32,60.0240096,627c6715c52fd12f31907bcf,,,,,,,,,,,,,,,,,,,,,,,l,1,2.555,"[""0.138"",""0.055"",""0.560"",""0.836""]","[1,0,1,1]",0,52,52,52,1,1,1,,,1,FALSE,,,,,,,,,,,,,,,,,,,,,,,,,,,,,,,
,5ec96e9d4907d947b526e08d,627c679d1bf092acd0d5d6b7,2022-05-11_20h49.43.841,classification_task,2021.2.3,Win32,60.0240096,627c6715c52fd12f31907bcf,,,,,,,,,,,,,,,,,,,,,,,a,1,1.57,"[""0.052"",""0.453"",""0.919"",""0.955""]","[0,1,1,1]",0,53,53,53,1,0,1,,,1,FALSE,,,,,,,,,,,,,,,,,,,,,,,,,,,,,,,
,5ec96e9d4907d947b526e08d,627c679d1bf092acd0d5d6b7,2022-05-11_20h49.43.841,classification_task,2021.2.3,Win32,60.0240096,627c6715c52fd12f31907bcf,,,,,,,,,,,,,,,,,,,,,,,a,0,4.624,"[""0.093"",""0.285"",""0.236"",""0.762""]","[1,1,0,1]",0,54,54,54,1,1,0,,,1,FALSE,,,,,,,,,,,,,,,,,,,,,,,,,,,,,,,
,5ec96e9d4907d947b526e08d,627c679d1bf092acd0d5d6b7,2022-05-11_20h49.43.841,classification_task,2021.2.3,Win32,60.0240096,627c6715c52fd12f31907bcf,,,,,,,,,,,,,,,,,,,,,,,a,1,2.061,"[""0.320"",""0.453"",""0.919"",""0.495""]","[1,1,1,0]",0,55,55,55,1,0,1,,,1,FALSE,,,,,,,,,,,,,,,,,,,,,,,,,,,,,,,
,5ec96e9d4907d947b526e08d,627c679d1bf092acd0d5d6b7,2022-05-11_20h49.43.841,classification_task,2021.2.3,Win32,60.0240096,627c6715c52fd12f31907bcf,,,,,,,,,,,,,,,,,,,,,,,a,1,1.504,"[""0.185"",""0.367"",""0.666"",""0.881""]","[1,1,0,1]",0,56,56,56,1,0,0,,,1,FALSE,,,,,,,,,,,,,,,,,,,,,,,,,,,,,,,
,5ec96e9d4907d947b526e08d,627c679d1bf092acd0d5d6b7,2022-05-11_20h49.43.841,classification_task,2021.2.3,Win32,60.0240096,627c6715c52fd12f31907bcf,,,,,,,,,,,,,,,,,,,,,,,l,0,1.929,"[""0.320"",""0.798"",""0.919"",""0.955""]","[1,0,1,1]",0,57,57,57,1,0,1,,,1,FALSE,,,,,,,,,,,,,,,,,,,,,,,,,,,,,,,
,5ec96e9d4907d947b526e08d,627c679d1bf092acd0d5d6b7,2022-05-11_20h49.43.841,classification_task,2021.2.3,Win32,60.0240096,627c6715c52fd12f31907bcf,,,,,,,,,,,,,,,,,,,,,,,a,1,1.678,"[""0.320"",""0.453"",""0.236"",""0.955""]","[1,1,0,1]",0,58,58,58,1,0,1,,,1,FALSE,,,,,,,,,,,,,,,,,,,,,,,,,,,,,,,
,5ec96e9d4907d947b526e08d,627c679d1bf092acd0d5d6b7,2022-05-11_20h49.43.841,classification_task,2021.2.3,Win32,60.0240096,627c6715c52fd12f31907bcf,,,,,,,,,,,,,,,,,,,,,,,l,1,3.253,"[""0.138"",""0.417"",""0.520"",""0.836""]","[1,1,0,1]",0,59,59,59,1,1,1,,,1,FALSE,,,,,,,,,,,,,,,,,,,,,,,,,,,,,,,
,5ec96e9d4907d947b526e08d,627c679d1bf092acd0d5d6b7,2022-05-11_20h49.43.841,classification_task,2021.2.3,Win32,60.0240096,627c6715c52fd12f31907bcf,,,,,,,,,,,,,,,,,,,,,,,l,0,1.983,"[""0.185"",""0.367"",""0.708"",""0.497""]","[1,1,1,0]",0,60,60,60,1,0,0,,,1,FALSE,,,,,,,,,,,,,,,,,,,,,,,,,,,,,,,
,5ec96e9d4907d947b526e08d,627c679d1bf092acd0d5d6b7,2022-05-11_20h49.43.841,classification_task,2021.2.3,Win32,60.0240096,627c6715c52fd12f31907bcf,,,,,,,,,,,,,,,,,,,,,,,l,0,3.542,"[""0.185"",""0.055"",""0.708"",""0.881""]","[1,0,1,1]",0,61,61,61,1,0,0,,,1,FALSE,,,,,,,,,,,,,,,,,,,,,,,,,,,,,,,
,5ec96e9d4907d947b526e08d,627c679d1bf092acd0d5d6b7,2022-05-11_20h49.43.841,classification_task,2021.2.3,Win32,60.0240096,627c6715c52fd12f31907bcf,,,,,,,,,,,,,,,,,,,,,,,a,1,2.479,"[""0.494"",""0.367"",""0.708"",""0.881""]","[0,1,1,1]",0,62,62,62,1,0,0,,,1,FALSE,,,,,,,,,,,,,,,,,,,,,,,,,,,,,,,
,5ec96e9d4907d947b526e08d,627c679d1bf092acd0d5d6b7,2022-05-11_20h49.43.841,classification_task,2021.2.3,Win32,60.0240096,627c6715c52fd12f31907bcf,,,,,,,,,,,,,,,,,,,,,,,l,1,1.304,"[""0.093"",""0.049"",""0.631"",""0.762""]","[1,0,1,1]",0,63,63,63,1,1,0,,,1,FALSE,,,,,,,,,,,,,,,,,,,,,,,,,,,,,,,
,5ec96e9d4907d947b526e08d,627c679d1bf092acd0d5d6b7,2022-05-11_20h49.43.841,classification_task,2021.2.3,Win32,60.0240096,627c6715c52fd12f31907bcf,,,,,,,,,,,,,,,,,,,,,,,,,,,,,,,,,,,,,,,0, ,,0,4.785665295,479.873,0,0,0,0,1,2,1,,,,,,,,,,,,,,,,,,
,5ec96e9d4907d947b526e08d,627c679d1bf092acd0d5d6b7,2022-05-11_20h49.43.841,classification_task,2021.2.3,Win32,60.0240096,627c6715c52fd12f31907bcf,,,,,,,,,,,,,,,,,,,,,,,,,,,,,,,,,,,,,,,1,  ,,0,6.714677641,486.93,0,0,0,0,1,2,1,,,,,,,,,,,,,,,,,,
,5ec96e9d4907d947b526e08d,627c679d1bf092acd0d5d6b7,2022-05-11_20h49.43.841,classification_task,2021.2.3,Win32,60.0240096,627c6715c52fd12f31907bcf,,,,,,,,,,,,,,,,,,,,,,,,,,,,,,,,,,,,,,,2,  ,,0,3.499657064,492.773,0,0,0,0,1,2,1,,,,,,,,,,,,,,,,,,
,5ec96e9d4907d947b526e08d,627c679d1bf092acd0d5d6b7,2022-05-11_20h49.43.841,classification_task,2021.2.3,Win32,60.0240096,627c6715c52fd12f31907bcf,,,,,,,,,,,,,,,,,,,,,,,,,,,,,,,,,,,,,,,,,,,,,0,0,0,0,1,,1,,,,,,,,,,,,,,,,,,
,5ec96e9d4907d947b526e08d,627c679d1bf092acd0d5d6b7,2022-05-11_20h49.43.841,classification_task,2021.2.3,Win32,60.0240096,627c6715c52fd12f31907bcf,,,,,,,,,,,,,,,,,,,,,space,22.542,l,1,1.698,"[""0.138"",""0.797"",""0.560"",""0.836""]","[1,0,1,1]",0,0,0,0,1,1,1,,,1,FALSE,,,,,,,,,,,,,,,,,,,,,,,,,,,,,,,
,5ec96e9d4907d947b526e08d,627c679d1bf092acd0d5d6b7,2022-05-11_20h49.43.841,classification_task,2021.2.3,Win32,60.0240096,627c6715c52fd12f31907bcf,,,,,,,,,,,,,,,,,,,,,,,a,1,3.89,"[""0.052"",""0.367"",""0.708"",""0.881""]","[0,1,1,1]",0,1,1,1,1,0,0,,,1,FALSE,,,,,,,,,,,,,,,,,,,,,,,,,,,,,,,
,5ec96e9d4907d947b526e08d,627c679d1bf092acd0d5d6b7,2022-05-11_20h49.43.841,classification_task,2021.2.3,Win32,60.0240096,627c6715c52fd12f31907bcf,,,,,,,,,,,,,,,,,,,,,,,a,1,1.879,"[""0.320"",""0.596"",""0.919"",""0.955""]","[1,0,1,1]",0,2,2,2,1,0,1,,,1,FALSE,,,,,,,,,,,,,,,,,,,,,,,,,,,,,,,
,5ec96e9d4907d947b526e08d,627c679d1bf092acd0d5d6b7,2022-05-11_20h49.43.841,classification_task,2021.2.3,Win32,60.0240096,627c6715c52fd12f31907bcf,,,,,,,,,,,,,,,,,,,,,,,l,1,1.576,"[""0.093"",""0.285"",""0.497"",""0.762""]","[1,1,0,1]",0,3,3,3,1,1,0,,,1,FALSE,,,,,,,,,,,,,,,,,,,,,,,,,,,,,,,
,5ec96e9d4907d947b526e08d,627c679d1bf092acd0d5d6b7,2022-05-11_20h49.43.841,classification_task,2021.2.3,Win32,60.0240096,627c6715c52fd12f31907bcf,,,,,,,,,,,,,,,,,,,,,,,l,1,2.058,"[""0.494"",""0.417"",""0.560"",""0.836""]","[0,1,1,1]",0,4,4,4,1,1,1,,,1,FALSE,,,,,,,,,,,,,,,,,,,,,,,,,,,,,,,
,5ec96e9d4907d947b526e08d,627c679d1bf092acd0d5d6b7,2022-05-11_20h49.43.841,classification_task,2021.2.3,Win32,60.0240096,627c6715c52fd12f31907bcf,,,,,,,,,,,,,,,,,,,,,,,a,1,1.985,"[""0.185"",""0.797"",""0.708"",""0.881""]","[1,0,1,1]",0,5,5,5,1,0,0,,,1,FALSE,,,,,,,,,,,,,,,,,,,,,,,,,,,,,,,
,5ec96e9d4907d947b526e08d,627c679d1bf092acd0d5d6b7,2022-05-11_20h49.43.841,classification_task,2021.2.3,Win32,60.0240096,627c6715c52fd12f31907bcf,,,,,,,,,,,,,,,,,,,,,,,l,1,1.145,"[""0.138"",""0.417"",""0.798"",""0.836""]","[1,1,0,1]",0,6,6,6,1,1,1,,,1,FALSE,,,,,,,,,,,,,,,,,,,,,,,,,,,,,,,
,5ec96e9d4907d947b526e08d,627c679d1bf092acd0d5d6b7,2022-05-11_20h49.43.841,classification_task,2021.2.3,Win32,60.0240096,627c6715c52fd12f31907bcf,,,,,,,,,,,,,,,,,,,,,,,a,0,1.304,"[""0.093"",""0.666"",""0.631"",""0.762""]","[1,0,1,1]",0,7,7,7,1,1,0,,,1,FALSE,,,,,,,,,,,,,,,,,,,,,,,,,,,,,,,
,5ec96e9d4907d947b526e08d,627c679d1bf092acd0d5d6b7,2022-05-11_20h49.43.841,classification_task,2021.2.3,Win32,60.0240096,627c6715c52fd12f31907bcf,,,,,,,,,,,,,,,,,,,,,,,a,1,2.008,"[""0.185"",""0.367"",""0.708"",""0.497""]","[1,1,1,0]",0,8,8,8,1,0,0,,,1,FALSE,,,,,,,,,,,,,,,,,,,,,,,,,,,,,,,
,5ec96e9d4907d947b526e08d,627c679d1bf092acd0d5d6b7,2022-05-11_20h49.43.841,classification_task,2021.2.3,Win32,60.0240096,627c6715c52fd12f31907bcf,,,,,,,,,,,,,,,,,,,,,,,l,1,1.814,"[""0.093"",""0.285"",""0.631"",""0.798""]","[1,1,1,0]",0,9,9,9,1,1,0,,,1,FALSE,,,,,,,,,,,,,,,,,,,,,,,,,,,,,,,
,5ec96e9d4907d947b526e08d,627c679d1bf092acd0d5d6b7,2022-05-11_20h49.43.841,classification_task,2021.2.3,Win32,60.0240096,627c6715c52fd12f31907bcf,,,,,,,,,,,,,,,,,,,,,,,a,1,2.471,"[""0.185"",""0.367"",""0.596"",""0.881""]","[1,1,0,1]",0,10,10,10,1,0,0,,,1,FALSE,,,,,,,,,,,,,,,,,,,,,,,,,,,,,,,
,5ec96e9d4907d947b526e08d,627c679d1bf092acd0d5d6b7,2022-05-11_20h49.43.841,classification_task,2021.2.3,Win32,60.0240096,627c6715c52fd12f31907bcf,,,,,,,,,,,,,,,,,,,,,,,a,1,1.972,"[""0.320"",""0.453"",""0.919"",""0.055""]","[1,1,1,0]",0,11,11,11,1,0,1,,,1,FALSE,,,,,,,,,,,,,,,,,,,,,,,,,,,,,,,
,5ec96e9d4907d947b526e08d,627c679d1bf092acd0d5d6b7,2022-05-11_20h49.43.841,classification_task,2021.2.3,Win32,60.0240096,627c6715c52fd12f31907bcf,,,,,,,,,,,,,,,,,,,,,,,l,1,0.905,"[""0.671"",""0.285"",""0.631"",""0.762""]","[0,1,1,1]",0,12,12,12,1,1,0,,,1,FALSE,,,,,,,,,,,,,,,,,,,,,,,,,,,,,,,
,5ec96e9d4907d947b526e08d,627c679d1bf092acd0d5d6b7,2022-05-11_20h49.43.841,classification_task,2021.2.3,Win32,60.0240096,627c6715c52fd12f31907bcf,,,,,,,,,,,,,,,,,,,,,,,a,0,1.111,"[""0.138"",""0.417"",""0.560"",""0.520""]","[1,1,1,0]",0,13,13,13,1,1,1,,,1,FALSE,,,,,,,,,,,,,,,,,,,,,,,,,,,,,,,
,5ec96e9d4907d947b526e08d,627c679d1bf092acd0d5d6b7,2022-05-11_20h49.43.841,classification_task,2021.2.3,Win32,60.0240096,627c6715c52fd12f31907bcf,,,,,,,,,,,,,,,,,,,,,,,a,1,1.524,"[""0.490"",""0.453"",""0.919"",""0.955""]","[0,1,1,1]",0,14,14,14,1,0,1,,,1,FALSE,,,,,,,,,,,,,,,,,,,,,,,,,,,,,,,
,5ec96e9d4907d947b526e08d,627c679d1bf092acd0d5d6b7,2022-05-11_20h49.43.841,classification_task,2021.2.3,Win32,60.0240096,627c6715c52fd12f31907bcf,,,,,,,,,,,,,,,,,,,,,,,a,1,1.177,"[""0.320"",""0.453"",""0.494"",""0.955""]","[1,1,0,1]",0,15,15,15,1,0,1,,,1,FALSE,,,,,,,,,,,,,,,,,,,,,,,,,,,,,,,
,5ec96e9d4907d947b526e08d,627c679d1bf092acd0d5d6b7,2022-05-11_20h49.43.841,classification_task,2021.2.3,Win32,60.0240096,627c6715c52fd12f31907bcf,,,,,,,,,,,,,,,,,,,,,,,l,1,1.242,"[""0.138"",""0.417"",""0.666"",""0.836""]","[1,1,0,1]",0,16,16,16,1,1,1,,,1,FALSE,,,,,,,,,,,,,,,,,,,,,,,,,,,,,,,
,5ec96e9d4907d947b526e08d,627c679d1bf092acd0d5d6b7,2022-05-11_20h49.43.841,classification_task,2021.2.3,Win32,60.0240096,627c6715c52fd12f31907bcf,,,,,,,,,,,,,,,,,,,,,,,l,0,1.287,"[""0.185"",""0.367"",""0.708"",""0.797""]","[1,1,1,0]",0,17,17,17,1,0,0,,,1,FALSE,,,,,,,,,,,,,,,,,,,,,,,,,,,,,,,
,5ec96e9d4907d947b526e08d,627c679d1bf092acd0d5d6b7,2022-05-11_20h49.43.841,classification_task,2021.2.3,Win32,60.0240096,627c6715c52fd12f31907bcf,,,,,,,,,,,,,,,,,,,,,,,l,1,1.438,"[""0.093"",""0.285"",""0.631"",""0.671""]","[1,1,1,0]",0,18,18,18,1,1,0,,,1,FALSE,,,,,,,,,,,,,,,,,,,,,,,,,,,,,,,
,5ec96e9d4907d947b526e08d,627c679d1bf092acd0d5d6b7,2022-05-11_20h49.43.841,classification_task,2021.2.3,Win32,60.0240096,627c6715c52fd12f31907bcf,,,,,,,,,,,,,,,,,,,,,,,a,0,0.953,"[""0.054"",""0.285"",""0.631"",""0.762""]","[0,1,1,1]",0,19,19,19,1,1,0,,,1,FALSE,,,,,,,,,,,,,,,,,,,,,,,,,,,,,,,
,5ec96e9d4907d947b526e08d,627c679d1bf092acd0d5d6b7,2022-05-11_20h49.43.841,classification_task,2021.2.3,Win32,60.0240096,627c6715c52fd12f31907bcf,,,,,,,,,,,,,,,,,,,,,,,a,1,1.282,"[""0.320"",""0.490"",""0.919"",""0.955""]","[1,0,1,1]",0,20,20,20,1,0,1,,,1,FALSE,,,,,,,,,,,,,,,,,,,,,,,,,,,,,,,
,5ec96e9d4907d947b526e08d,627c679d1bf092acd0d5d6b7,2022-05-11_20h49.43.841,classification_task,2021.2.3,Win32,60.0240096,627c6715c52fd12f31907bcf,,,,,,,,,,,,,,,,,,,,,,,a,1,1.286,"[""0.320"",""0.453"",""0.919"",""0.054""]","[1,1,1,0]",0,21,21,21,1,0,1,,,1,FALSE,,,,,,,,,,,,,,,,,,,,,,,,,,,,,,,
,5ec96e9d4907d947b526e08d,627c679d1bf092acd0d5d6b7,2022-05-11_20h49.43.841,classification_task,2021.2.3,Win32,60.0240096,627c6715c52fd12f31907bcf,,,,,,,,,,,,,,,,,,,,,,,l,0,2.177,"[""0.185"",""0.367"",""0.596"",""0.881""]","[1,1,0,1]",0,22,22,22,1,0,0,,,1,FALSE,,,,,,,,,,,,,,,,,,,,,,,,,,,,,,,
,5ec96e9d4907d947b526e08d,627c679d1bf092acd0d5d6b7,2022-05-11_20h49.43.841,classification_task,2021.2.3,Win32,60.0240096,627c6715c52fd12f31907bcf,,,,,,,,,,,,,,,,,,,,,,,l,1,1.19,"[""0.093"",""0.285"",""0.497"",""0.762""]","[1,1,0,1]",0,23,23,23,1,1,0,,,1,FALSE,,,,,,,,,,,,,,,,,,,,,,,,,,,,,,,
,5ec96e9d4907d947b526e08d,627c679d1bf092acd0d5d6b7,2022-05-11_20h49.43.841,classification_task,2021.2.3,Win32,60.0240096,627c6715c52fd12f31907bcf,,,,,,,,,,,,,,,,,,,,,,,a,1,1.702,"[""0.798"",""0.367"",""0.708"",""0.881""]","[0,1,1,1]",0,24,24,24,1,0,0,,,1,FALSE,,,,,,,,,,,,,,,,,,,,,,,,,,,,,,,
,5ec96e9d4907d947b526e08d,627c679d1bf092acd0d5d6b7,2022-05-11_20h49.43.841,classification_task,2021.2.3,Win32,60.0240096,627c6715c52fd12f31907bcf,,,,,,,,,,,,,,,,,,,,,,,a,1,1.494,"[""0.666"",""0.453"",""0.919"",""0.955""]","[0,1,1,1]",0,25,25,25,1,0,1,,,1,FALSE,,,,,,,,,,,,,,,,,,,,,,,,,,,,,,,
,5ec96e9d4907d947b526e08d,627c679d1bf092acd0d5d6b7,2022-05-11_20h49.43.841,classification_task,2021.2.3,Win32,60.0240096,627c6715c52fd12f31907bcf,,,,,,,,,,,,,,,,,,,,,,,l,1,1.65,"[""0.093"",""0.596"",""0.631"",""0.762""]","[1,0,1,1]",0,26,26,26,1,1,0,,,1,FALSE,,,,,,,,,,,,,,,,,,,,,,,,,,,,,,,
,5ec96e9d4907d947b526e08d,627c679d1bf092acd0d5d6b7,2022-05-11_20h49.43.841,classification_task,2021.2.3,Win32,60.0240096,627c6715c52fd12f31907bcf,,,,,,,,,,,,,,,,,,,,,,,l,1,1.446,"[""0.138"",""0.417"",""0.560"",""0.054""]","[1,1,1,0]",0,27,27,27,1,1,1,,,1,FALSE,,,,,,,,,,,,,,,,,,,,,,,,,,,,,,,
,5ec96e9d4907d947b526e08d,627c679d1bf092acd0d5d6b7,2022-05-11_20h49.43.841,classification_task,2021.2.3,Win32,60.0240096,627c6715c52fd12f31907bcf,,,,,,,,,,,,,,,,,,,,,,,l,1,1.214,"[""0.138"",""0.490"",""0.560"",""0.836""]","[1,0,1,1]",0,28,28,28,1,1,1,,,1,FALSE,,,,,,,,,,,,,,,,,,,,,,,,,,,,,,,
,5ec96e9d4907d947b526e08d,627c679d1bf092acd0d5d6b7,2022-05-11_20h49.43.841,classification_task,2021.2.3,Win32,60.0240096,627c6715c52fd12f31907bcf,,,,,,,,,,,,,,,,,,,,,,,a,1,1.326,"[""0.320"",""0.453"",""0.671"",""0.955""]","[1,1,0,1]",0,29,29,29,1,0,1,,,1,FALSE,,,,,,,,,,,,,,,,,,,,,,,,,,,,,,,
,5ec96e9d4907d947b526e08d,627c679d1bf092acd0d5d6b7,2022-05-11_20h49.43.841,classification_task,2021.2.3,Win32,60.0240096,627c6715c52fd12f31907bcf,,,,,,,,,,,,,,,,,,,,,,,l,1,1.439,"[""0.052"",""0.417"",""0.560"",""0.836""]","[0,1,1,1]",0,30,30,30,1,1,1,,,1,FALSE,,,,,,,,,,,,,,,,,,,,,,,,,,,,,,,
,5ec96e9d4907d947b526e08d,627c679d1bf092acd0d5d6b7,2022-05-11_20h49.43.841,classification_task,2021.2.3,Win32,60.0240096,627c6715c52fd12f31907bcf,,,,,,,,,,,,,,,,,,,,,,,l,0,2.34,"[""0.185"",""0.049"",""0.708"",""0.881""]","[1,0,1,1]",0,31,31,31,1,0,0,,,1,FALSE,,,,,,,,,,,,,,,,,,,,,,,,,,,,,,,
,5ec96e9d4907d947b526e08d,627c679d1bf092acd0d5d6b7,2022-05-11_20h49.43.841,classification_task,2021.2.3,Win32,60.0240096,627c6715c52fd12f31907bcf,,,,,,,,,,,,,,,,,,,,,,,a,1,1.278,"[""0.320"",""0.596"",""0.919"",""0.955""]","[1,0,1,1]",0,32,32,32,1,0,1,,,1,FALSE,,,,,,,,,,,,,,,,,,,,,,,,,,,,,,,
,5ec96e9d4907d947b526e08d,627c679d1bf092acd0d5d6b7,2022-05-11_20h49.43.841,classification_task,2021.2.3,Win32,60.0240096,627c6715c52fd12f31907bcf,,,,,,,,,,,,,,,,,,,,,,,a,1,0.816,"[""0.320"",""0.453"",""0.919"",""0.666""]","[1,1,1,0]",0,33,33,33,1,0,1,,,1,FALSE,,,,,,,,,,,,,,,,,,,,,,,,,,,,,,,
,5ec96e9d4907d947b526e08d,627c679d1bf092acd0d5d6b7,2022-05-11_20h49.43.841,classification_task,2021.2.3,Win32,60.0240096,627c6715c52fd12f31907bcf,,,,,,,,,,,,,,,,,,,,,,,l,1,0.806,"[""0.520"",""0.417"",""0.560"",""0.836""]","[0,1,1,1]",0,34,34,34,1,1,1,,,1,FALSE,,,,,,,,,,,,,,,,,,,,,,,,,,,,,,,
,5ec96e9d4907d947b526e08d,627c679d1bf092acd0d5d6b7,2022-05-11_20h49.43.841,classification_task,2021.2.3,Win32,60.0240096,627c6715c52fd12f31907bcf,,,,,,,,,,,,,,,,,,,,,,,l,1,1.276,"[""0.138"",""0.417"",""0.666"",""0.836""]","[1,1,0,1]",0,35,35,35,1,1,1,,,1,FALSE,,,,,,,,,,,,,,,,,,,,,,,,,,,,,,,
,5ec96e9d4907d947b526e08d,627c679d1bf092acd0d5d6b7,2022-05-11_20h49.43.841,classification_task,2021.2.3,Win32,60.0240096,627c6715c52fd12f31907bcf,,,,,,,,,,,,,,,,,,,,,,,a,1,0.882,"[""0.320"",""0.453"",""0.596"",""0.955""]","[1,1,0,1]",0,36,36,36,1,0,1,,,1,FALSE,,,,,,,,,,,,,,,,,,,,,,,,,,,,,,,
,5ec96e9d4907d947b526e08d,627c679d1bf092acd0d5d6b7,2022-05-11_20h49.43.841,classification_task,2021.2.3,Win32,60.0240096,627c6715c52fd12f31907bcf,,,,,,,,,,,,,,,,,,,,,,,a,0,1.136,"[""0.054"",""0.285"",""0.631"",""0.762""]","[0,1,1,1]",0,37,37,37,1,1,0,,,1,FALSE,,,,,,,,,,,,,,,,,,,,,,,,,,,,,,,
,5ec96e9d4907d947b526e08d,627c679d1bf092acd0d5d6b7,2022-05-11_20h49.43.841,classification_task,2021.2.3,Win32,60.0240096,627c6715c52fd12f31907bcf,,,,,,,,,,,,,,,,,,,,,,,a,1,2.555,"[""0.054"",""0.367"",""0.708"",""0.881""]","[0,1,1,1]",0,38,38,38,1,0,0,,,1,FALSE,,,,,,,,,,,,,,,,,,,,,,,,,,,,,,,
,5ec96e9d4907d947b526e08d,627c679d1bf092acd0d5d6b7,2022-05-11_20h49.43.841,classification_task,2021.2.3,Win32,60.0240096,627c6715c52fd12f31907bcf,,,,,,,,,,,,,,,,,,,,,,,l,1,1.693,"[""0.138"",""0.596"",""0.560"",""0.836""]","[1,0,1,1]",0,39,39,39,1,1,1,,,1,FALSE,,,,,,,,,,,,,,,,,,,,,,,,,,,,,,,
,5ec96e9d4907d947b526e08d,627c679d1bf092acd0d5d6b7,2022-05-11_20h49.43.841,classification_task,2021.2.3,Win32,60.0240096,627c6715c52fd12f31907bcf,,,,,,,,,,,,,,,,,,,,,,,a,0,2.286,"[""0.093"",""0.285"",""0.631"",""0.671""]","[1,1,1,0]",0,40,40,40,1,1,0,,,1,FALSE,,,,,,,,,,,,,,,,,,,,,,,,,,,,,,,
,5ec96e9d4907d947b526e08d,627c679d1bf092acd0d5d6b7,2022-05-11_20h49.43.841,classification_task,2021.2.3,Win32,60.0240096,627c6715c52fd12f31907bcf,,,,,,,,,,,,,,,,,,,,,,,a,1,1.122,"[""0.666"",""0.453"",""0.919"",""0.955""]","[0,1,1,1]",0,41,41,41,1,0,1,,,1,FALSE,,,,,,,,,,,,,,,,,,,,,,,,,,,,,,,
,5ec96e9d4907d947b526e08d,627c679d1bf092acd0d5d6b7,2022-05-11_20h49.43.841,classification_task,2021.2.3,Win32,60.0240096,627c6715c52fd12f31907bcf,,,,,,,,,,,,,,,,,,,,,,,a,0,1.124,"[""0.093"",""0.285"",""0.055"",""0.762""]","[1,1,0,1]",0,42,42,42,1,1,0,,,1,FALSE,,,,,,,,,,,,,,,,,,,,,,,,,,,,,,,
,5ec96e9d4907d947b526e08d,627c679d1bf092acd0d5d6b7,2022-05-11_20h49.43.841,classification_task,2021.2.3,Win32,60.0240096,627c6715c52fd12f31907bcf,,,,,,,,,,,,,,,,,,,,,,,l,0,2.042,"[""0.185"",""0.367"",""0.708"",""0.049""]","[1,1,1,0]",0,43,43,43,1,0,0,,,1,FALSE,,,,,,,,,,,,,,,,,,,,,,,,,,,,,,,
,5ec96e9d4907d947b526e08d,627c679d1bf092acd0d5d6b7,2022-05-11_20h49.43.841,classification_task,2021.2.3,Win32,60.0240096,627c6715c52fd12f31907bcf,,,,,,,,,,,,,,,,,,,,,,,l,0,1.486,"[""0.185"",""0.367"",""0.497"",""0.881""]","[1,1,0,1]",0,44,44,44,1,0,0,,,1,FALSE,,,,,,,,,,,,,,,,,,,,,,,,,,,,,,,
,5ec96e9d4907d947b526e08d,627c679d1bf092acd0d5d6b7,2022-05-11_20h49.43.841,classification_task,2021.2.3,Win32,60.0240096,627c6715c52fd12f31907bcf,,,,,,,,,,,,,,,,,,,,,,,l,1,2.523,"[""0.138"",""0.417"",""0.560"",""0.236""]","[1,1,1,0]",0,45,45,45,1,1,1,,,1,FALSE,,,,,,,,,,,,,,,,,,,,,,,,,,,,,,,
,5ec96e9d4907d947b526e08d,627c679d1bf092acd0d5d6b7,2022-05-11_20h49.43.841,classification_task,2021.2.3,Win32,60.0240096,627c6715c52fd12f31907bcf,,,,,,,,,,,,,,,,,,,,,,,l,0,1.925,"[""0.185"",""0.671"",""0.708"",""0.881""]","[1,0,1,1]",0,46,46,46,1,0,0,,,1,FALSE,,,,,,,,,,,,,,,,,,,,,,,,,,,,,,,
,5ec96e9d4907d947b526e08d,627c679d1bf092acd0d5d6b7,2022-05-11_20h49.43.841,classification_task,2021.2.3,Win32,60.0240096,627c6715c52fd12f31907bcf,,,,,,,,,,,,,,,,,,,,,,,a,0,1.044,"[""0.093"",""0.596"",""0.631"",""0.762""]","[1,0,1,1]",0,47,47,47,1,1,0,,,1,FALSE,,,,,,,,,,,,,,,,,,,,,,,,,,,,,,,
,5ec96e9d4907d947b526e08d,627c679d1bf092acd0d5d6b7,2022-05-11_20h49.43.841,classification_task,2021.2.3,Win32,60.0240096,627c6715c52fd12f31907bcf,,,,,,,,,,,,,,,,,,,,,,,l,0,1.665,"[""0.490"",""0.367"",""0.708"",""0.881""]","[0,1,1,1]",0,48,48,48,1,0,0,,,1,FALSE,,,,,,,,,,,,,,,,,,,,,,,,,,,,,,,
,5ec96e9d4907d947b526e08d,627c679d1bf092acd0d5d6b7,2022-05-11_20h49.43.841,classification_task,2021.2.3,Win32,60.0240096,627c6715c52fd12f31907bcf,,,,,,,,,,,,,,,,,,,,,,,a,1,3.243,"[""0.185"",""0.367"",""0.490"",""0.881""]","[1,1,0,1]",0,49,49,49,1,0,0,,,1,FALSE,,,,,,,,,,,,,,,,,,,,,,,,,,,,,,,
,5ec96e9d4907d947b526e08d,627c679d1bf092acd0d5d6b7,2022-05-11_20h49.43.841,classification_task,2021.2.3,Win32,60.0240096,627c6715c52fd12f31907bcf,,,,,,,,,,,,,,,,,,,,,,,l,0,1.376,"[""0.185"",""0.495"",""0.708"",""0.881""]","[1,0,1,1]",0,50,50,50,1,0,0,,,1,FALSE,,,,,,,,,,,,,,,,,,,,,,,,,,,,,,,
,5ec96e9d4907d947b526e08d,627c679d1bf092acd0d5d6b7,2022-05-11_20h49.43.841,classification_task,2021.2.3,Win32,60.0240096,627c6715c52fd12f31907bcf,,,,,,,,,,,,,,,,,,,,,,,l,1,1.786,"[""0.138"",""0.490"",""0.560"",""0.836""]","[1,0,1,1]",0,51,51,51,1,1,1,,,1,FALSE,,,,,,,,,,,,,,,,,,,,,,,,,,,,,,,
,5ec96e9d4907d947b526e08d,627c679d1bf092acd0d5d6b7,2022-05-11_20h49.43.841,classification_task,2021.2.3,Win32,60.0240096,627c6715c52fd12f31907bcf,,,,,,,,,,,,,,,,,,,,,,,l,0,1.602,"[""0.185"",""0.367"",""0.708"",""0.236""]","[1,1,1,0]",0,52,52,52,1,0,0,,,1,FALSE,,,,,,,,,,,,,,,,,,,,,,,,,,,,,,,
,5ec96e9d4907d947b526e08d,627c679d1bf092acd0d5d6b7,2022-05-11_20h49.43.841,classification_task,2021.2.3,Win32,60.0240096,627c6715c52fd12f31907bcf,,,,,,,,,,,,,,,,,,,,,,,l,1,1.06,"[""0.052"",""0.417"",""0.560"",""0.836""]","[0,1,1,1]",0,53,53,53,1,1,1,,,1,FALSE,,,,,,,,,,,,,,,,,,,,,,,,,,,,,,,
,5ec96e9d4907d947b526e08d,627c679d1bf092acd0d5d6b7,2022-05-11_20h49.43.841,classification_task,2021.2.3,Win32,60.0240096,627c6715c52fd12f31907bcf,,,,,,,,,,,,,,,,,,,,,,,a,1,0.831,"[""0.320"",""0.453"",""0.520"",""0.955""]","[1,1,0,1]",0,54,54,54,1,0,1,,,1,FALSE,,,,,,,,,,,,,,,,,,,,,,,,,,,,,,,
,5ec96e9d4907d947b526e08d,627c679d1bf092acd0d5d6b7,2022-05-11_20h49.43.841,classification_task,2021.2.3,Win32,60.0240096,627c6715c52fd12f31907bcf,,,,,,,,,,,,,,,,,,,,,,,l,1,2.739,"[""0.093"",""0.596"",""0.631"",""0.762""]","[1,0,1,1]",0,55,55,55,1,1,0,,,1,FALSE,,,,,,,,,,,,,,,,,,,,,,,,,,,,,,,
,5ec96e9d4907d947b526e08d,627c679d1bf092acd0d5d6b7,2022-05-11_20h49.43.841,classification_task,2021.2.3,Win32,60.0240096,627c6715c52fd12f31907bcf,,,,,,,,,,,,,,,,,,,,,,,l,1,2.511,"[""0.138"",""0.417"",""0.049"",""0.836""]","[1,1,0,1]",0,56,56,56,1,1,1,,,1,FALSE,,,,,,,,,,,,,,,,,,,,,,,,,,,,,,,
,5ec96e9d4907d947b526e08d,627c679d1bf092acd0d5d6b7,2022-05-11_20h49.43.841,classification_task,2021.2.3,Win32,60.0240096,627c6715c52fd12f31907bcf,,,,,,,,,,,,,,,,,,,,,,,a,1,1.095,"[""0.320"",""0.798"",""0.919"",""0.955""]","[1,0,1,1]",0,57,57,57,1,0,1,,,1,FALSE,,,,,,,,,,,,,,,,,,,,,,,,,,,,,,,
,5ec96e9d4907d947b526e08d,627c679d1bf092acd0d5d6b7,2022-05-11_20h49.43.841,classification_task,2021.2.3,Win32,60.0240096,627c6715c52fd12f31907bcf,,,,,,,,,,,,,,,,,,,,,,,a,0,1.579,"[""0.093"",""0.285"",""0.631"",""0.054""]","[1,1,1,0]",0,58,58,58,1,1,0,,,1,FALSE,,,,,,,,,,,,,,,,,,,,,,,,,,,,,,,
,5ec96e9d4907d947b526e08d,627c679d1bf092acd0d5d6b7,2022-05-11_20h49.43.841,classification_task,2021.2.3,Win32,60.0240096,627c6715c52fd12f31907bcf,,,,,,,,,,,,,,,,,,,,,,,a,0,2.116,"[""0.055"",""0.285"",""0.631"",""0.762""]","[0,1,1,1]",0,59,59,59,1,1,0,,,1,FALSE,,,,,,,,,,,,,,,,,,,,,,,,,,,,,,,
,5ec96e9d4907d947b526e08d,627c679d1bf092acd0d5d6b7,2022-05-11_20h49.43.841,classification_task,2021.2.3,Win32,60.0240096,627c6715c52fd12f31907bcf,,,,,,,,,,,,,,,,,,,,,,,a,1,1.333,"[""0.320"",""0.453"",""0.919"",""0.054""]","[1,1,1,0]",0,60,60,60,1,0,1,,,1,FALSE,,,,,,,,,,,,,,,,,,,,,,,,,,,,,,,
,5ec96e9d4907d947b526e08d,627c679d1bf092acd0d5d6b7,2022-05-11_20h49.43.841,classification_task,2021.2.3,Win32,60.0240096,627c6715c52fd12f31907bcf,,,,,,,,,,,,,,,,,,,,,,,l,1,1.067,"[""0.093"",""0.285"",""0.236"",""0.762""]","[1,1,0,1]",0,61,61,61,1,1,0,,,1,FALSE,,,,,,,,,,,,,,,,,,,,,,,,,,,,,,,
,5ec96e9d4907d947b526e08d,627c679d1bf092acd0d5d6b7,2022-05-11_20h49.43.841,classification_task,2021.2.3,Win32,60.0240096,627c6715c52fd12f31907bcf,,,,,,,,,,,,,,,,,,,,,,,a,1,0.95,"[""0.054"",""0.453"",""0.919"",""0.955""]","[0,1,1,1]",0,62,62,62,1,0,1,,,1,FALSE,,,,,,,,,,,,,,,,,,,,,,,,,,,,,,,
,5ec96e9d4907d947b526e08d,627c679d1bf092acd0d5d6b7,2022-05-11_20h49.43.841,classification_task,2021.2.3,Win32,60.0240096,627c6715c52fd12f31907bcf,,,,,,,,,,,,,,,,,,,,,,,l,1,1.522,"[""0.138"",""0.417"",""0.560"",""0.497""]","[1,1,1,0]",0,63,63,63,1,1,1,,,1,FALSE,,,,,,,,,,,,,,,,,,,,,,,,,,,,,,,
,5ec96e9d4907d947b526e08d,627c679d1bf092acd0d5d6b7,2022-05-11_20h49.43.841,classification_task,2021.2.3,Win32,60.0240096,627c6715c52fd12f31907bcf,,,,,,,,,,,,,,,,,,,,,,,,,,,,,,,,,,,,,,,0, ,,0,3.652753282,222.773,0,1,1,1,1,2,2,,,,,,,,,,,,,,,,,,
,5ec96e9d4907d947b526e08d,627c679d1bf092acd0d5d6b7,2022-05-11_20h49.43.841,classification_task,2021.2.3,Win32,60.0240096,627c6715c52fd12f31907bcf,,,,,,,,,,,,,,,,,,,,,,,,,,,,,,,,,,,,,,,1,  ,,0,6.62281991,228.718,0,1,1,1,1,2,2,,,,,,,,,,,,,,,,,,
,5ec96e9d4907d947b526e08d,627c679d1bf092acd0d5d6b7,2022-05-11_20h49.43.841,classification_task,2021.2.3,Win32,60.0240096,627c6715c52fd12f31907bcf,,,,,,,,,,,,,,,,,,,,,,,,,,,,,,,,,,,,,,,2,  ,,0,5.153096218,233.45,0,1,1,1,1,2,2,,,,,,,,,,,,,,,,,,
,5ec96e9d4907d947b526e08d,627c679d1bf092acd0d5d6b7,2022-05-11_20h49.43.841,classification_task,2021.2.3,Win32,60.0240096,627c6715c52fd12f31907bcf,,,,,,,,,,,,,,,,,,,,,,,,,,,,,,,,,,,,,,,,,,,,,0,1,1,1,1,,2,,,,,,,,,,,,,,,,,,
,5ec96e9d4907d947b526e08d,627c679d1bf092acd0d5d6b7,2022-05-11_20h49.43.841,classification_task,2021.2.3,Win32,60.0240096,627c6715c52fd12f31907bcf,,,,,,,,,,,,,,,,,,,,,space,6.795,l,0,1.894,"[""0.185"",""0.367"",""0.708"",""0.236""]","[1,1,1,0]",0,0,0,0,1,0,0,,,1,FALSE,,,,,,,,,,,,,,,,,,,,,,,,,,,,,,,
,5ec96e9d4907d947b526e08d,627c679d1bf092acd0d5d6b7,2022-05-11_20h49.43.841,classification_task,2021.2.3,Win32,60.0240096,627c6715c52fd12f31907bcf,,,,,,,,,,,,,,,,,,,,,,,a,1,3.113,"[""0.320"",""0.497"",""0.919"",""0.955""]","[1,0,1,1]",0,1,1,1,1,0,1,,,1,FALSE,,,,,,,,,,,,,,,,,,,,,,,,,,,,,,,
,5ec96e9d4907d947b526e08d,627c679d1bf092acd0d5d6b7,2022-05-11_20h49.43.841,classification_task,2021.2.3,Win32,60.0240096,627c6715c52fd12f31907bcf,,,,,,,,,,,,,,,,,,,,,,,l,1,3.316,"[""0.138"",""0.417"",""0.497"",""0.836""]","[1,1,0,1]",0,2,2,2,1,1,1,,,1,FALSE,,,,,,,,,,,,,,,,,,,,,,,,,,,,,,,
,5ec96e9d4907d947b526e08d,627c679d1bf092acd0d5d6b7,2022-05-11_20h49.43.841,classification_task,2021.2.3,Win32,60.0240096,627c6715c52fd12f31907bcf,,,,,,,,,,,,,,,,,,,,,,,l,1,1.936,"[""0.093"",""0.285"",""0.054"",""0.762""]","[1,1,0,1]",0,3,3,3,1,1,0,,,1,FALSE,,,,,,,,,,,,,,,,,,,,,,,,,,,,,,,
,5ec96e9d4907d947b526e08d,627c679d1bf092acd0d5d6b7,2022-05-11_20h49.43.841,classification_task,2021.2.3,Win32,60.0240096,627c6715c52fd12f31907bcf,,,,,,,,,,,,,,,,,,,,,,,a,0,3.754,"[""0.138"",""0.417"",""0.560"",""0.046""]","[1,1,1,0]",0,4,4,4,1,1,1,,,1,FALSE,,,,,,,,,,,,,,,,,,,,,,,,,,,,,,,
,5ec96e9d4907d947b526e08d,627c679d1bf092acd0d5d6b7,2022-05-11_20h49.43.841,classification_task,2021.2.3,Win32,60.0240096,627c6715c52fd12f31907bcf,,,,,,,,,,,,,,,,,,,,,,,a,1,2.183,"[""0.320"",""0.453"",""0.671"",""0.955""]","[1,1,0,1]",0,5,5,5,1,0,1,,,1,FALSE,,,,,,,,,,,,,,,,,,,,,,,,,,,,,,,
,5ec96e9d4907d947b526e08d,627c679d1bf092acd0d5d6b7,2022-05-11_20h49.43.841,classification_task,2021.2.3,Win32,60.0240096,627c6715c52fd12f31907bcf,,,,,,,,,,,,,,,,,,,,,,,a,1,2.568,"[""0.497"",""0.453"",""0.919"",""0.955""]","[0,1,1,1]",0,6,6,6,1,0,1,,,1,FALSE,,,,,,,,,,,,,,,,,,,,,,,,,,,,,,,
,5ec96e9d4907d947b526e08d,627c679d1bf092acd0d5d6b7,2022-05-11_20h49.43.841,classification_task,2021.2.3,Win32,60.0240096,627c6715c52fd12f31907bcf,,,,,,,,,,,,,,,,,,,,,,,l,1,1.797,"[""0.046"",""0.285"",""0.631"",""0.762""]","[0,1,1,1]",0,7,7,7,1,1,0,,,1,FALSE,,,,,,,,,,,,,,,,,,,,,,,,,,,,,,,
,5ec96e9d4907d947b526e08d,627c679d1bf092acd0d5d6b7,2022-05-11_20h49.43.841,classification_task,2021.2.3,Win32,60.0240096,627c6715c52fd12f31907bcf,,,,,,,,,,,,,,,,,,,,,,,l,0,2.269,"[""0.798"",""0.367"",""0.708"",""0.881""]","[0,1,1,1]",0,8,8,8,1,0,0,,,1,FALSE,,,,,,,,,,,,,,,,,,,,,,,,,,,,,,,
,5ec96e9d4907d947b526e08d,627c679d1bf092acd0d5d6b7,2022-05-11_20h49.43.841,classification_task,2021.2.3,Win32,60.0240096,627c6715c52fd12f31907bcf,,,,,,,,,,,,,,,,,,,,,,,l,1,2.964,"[""0.236"",""0.417"",""0.560"",""0.836""]","[0,1,1,1]",0,9,9,9,1,1,1,,,1,FALSE,,,,,,,,,,,,,,,,,,,,,,,,,,,,,,,
,5ec96e9d4907d947b526e08d,627c679d1bf092acd0d5d6b7,2022-05-11_20h49.43.841,classification_task,2021.2.3,Win32,60.0240096,627c6715c52fd12f31907bcf,,,,,,,,,,,,,,,,,,,,,,,l,1,1.95,"[""0.093"",""0.054"",""0.631"",""0.762""]","[1,0,1,1]",0,10,10,10,1,1,0,,,1,FALSE,,,,,,,,,,,,,,,,,,,,,,,,,,,,,,,
,5ec96e9d4907d947b526e08d,627c679d1bf092acd0d5d6b7,2022-05-11_20h49.43.841,classification_task,2021.2.3,Win32,60.0240096,627c6715c52fd12f31907bcf,,,,,,,,,,,,,,,,,,,,,,,a,1,1.887,"[""0.320"",""0.453"",""0.919"",""0.797""]","[1,1,1,0]",0,11,11,11,1,0,1,,,1,FALSE,,,,,,,,,,,,,,,,,,,,,,,,,,,,,,,
,5ec96e9d4907d947b526e08d,627c679d1bf092acd0d5d6b7,2022-05-11_20h49.43.841,classification_task,2021.2.3,Win32,60.0240096,627c6715c52fd12f31907bcf,,,,,,,,,,,,,,,,,,,,,,,l,0,3.511,"[""0.185"",""0.490"",""0.708"",""0.881""]","[1,0,1,1]",0,12,12,12,1,0,0,,,1,FALSE,,,,,,,,,,,,,,,,,,,,,,,,,,,,,,,
,5ec96e9d4907d947b526e08d,627c679d1bf092acd0d5d6b7,2022-05-11_20h49.43.841,classification_task,2021.2.3,Win32,60.0240096,627c6715c52fd12f31907bcf,,,,,,,,,,,,,,,,,,,,,,,a,0,2.616,"[""0.138"",""0.797"",""0.560"",""0.836""]","[1,0,1,1]",0,13,13,13,1,1,1,,,1,FALSE,,,,,,,,,,,,,,,,,,,,,,,,,,,,,,,
,5ec96e9d4907d947b526e08d,627c679d1bf092acd0d5d6b7,2022-05-11_20h49.43.841,classification_task,2021.2.3,Win32,60.0240096,627c6715c52fd12f31907bcf,,,,,,,,,,,,,,,,,,,,,,,l,1,2.425,"[""0.093"",""0.285"",""0.631"",""0.666""]","[1,1,1,0]",0,14,14,14,1,1,0,,,1,FALSE,,,,,,,,,,,,,,,,,,,,,,,,,,,,,,,
,5ec96e9d4907d947b526e08d,627c679d1bf092acd0d5d6b7,2022-05-11_20h49.43.841,classification_task,2021.2.3,Win32,60.0240096,627c6715c52fd12f31907bcf,,,,,,,,,,,,,,,,,,,,,,,l,0,3.481,"[""0.185"",""0.367"",""0.666"",""0.881""]","[1,1,0,1]",0,15,15,15,1,0,0,,,1,FALSE,,,,,,,,,,,,,,,,,,,,,,,,,,,,,,,
,5ec96e9d4907d947b526e08d,627c679d1bf092acd0d5d6b7,2022-05-11_20h49.43.841,classification_task,2021.2.3,Win32,60.0240096,627c6715c52fd12f31907bcf,,,,,,,,,,,,,,,,,,,,,,,l,1,3.814,"[""0.093"",""0.285"",""0.494"",""0.762""]","[1,1,0,1]",0,16,16,16,1,1,0,,,1,FALSE,,,,,,,,,,,,,,,,,,,,,,,,,,,,,,,
,5ec96e9d4907d947b526e08d,627c679d1bf092acd0d5d6b7,2022-05-11_20h49.43.841,classification_task,2021.2.3,Win32,60.0240096,627c6715c52fd12f31907bcf,,,,,,,,,,,,,,,,,,,,,,,l,1,3.94,"[""0.520"",""0.417"",""0.560"",""0.836""]","[0,1,1,1]",0,17,17,17,1,1,1,,,1,FALSE,,,,,,,,,,,,,,,,,,,,,,,,,,,,,,,
,5ec96e9d4907d947b526e08d,627c679d1bf092acd0d5d6b7,2022-05-11_20h49.43.841,classification_task,2021.2.3,Win32,60.0240096,627c6715c52fd12f31907bcf,,,,,,,,,,,,,,,,,,,,,,,a,1,3.752,"[""0.497"",""0.367"",""0.708"",""0.881""]","[0,1,1,1]",0,18,18,18,1,0,0,,,1,FALSE,,,,,,,,,,,,,,,,,,,,,,,,,,,,,,,
,5ec96e9d4907d947b526e08d,627c679d1bf092acd0d5d6b7,2022-05-11_20h49.43.841,classification_task,2021.2.3,Win32,60.0240096,627c6715c52fd12f31907bcf,,,,,,,,,,,,,,,,,,,,,,,a,1,1.376,"[""0.236"",""0.453"",""0.919"",""0.955""]","[0,1,1,1]",0,19,19,19,1,0,1,,,1,FALSE,,,,,,,,,,,,,,,,,,,,,,,,,,,,,,,
,5ec96e9d4907d947b526e08d,627c679d1bf092acd0d5d6b7,2022-05-11_20h49.43.841,classification_task,2021.2.3,Win32,60.0240096,627c6715c52fd12f31907bcf,,,,,,,,,,,,,,,,,,,,,,,l,1,1.859,"[""0.138"",""0.417"",""0.497"",""0.836""]","[1,1,0,1]",0,20,20,20,1,1,1,,,1,FALSE,,,,,,,,,,,,,,,,,,,,,,,,,,,,,,,
,5ec96e9d4907d947b526e08d,627c679d1bf092acd0d5d6b7,2022-05-11_20h49.43.841,classification_task,2021.2.3,Win32,60.0240096,627c6715c52fd12f31907bcf,,,,,,,,,,,,,,,,,,,,,,,a,0,1.515,"[""0.138"",""0.417"",""0.560"",""0.797""]","[1,1,1,0]",0,21,21,21,1,1,1,,,1,FALSE,,,,,,,,,,,,,,,,,,,,,,,,,,,,,,,
,5ec96e9d4907d947b526e08d,627c679d1bf092acd0d5d6b7,2022-05-11_20h49.43.841,classification_task,2021.2.3,Win32,60.0240096,627c6715c52fd12f31907bcf,,,,,,,,,,,,,,,,,,,,,,,a,1,3.699,"[""0.320"",""0.495"",""0.919"",""0.955""]","[1,0,1,1]",0,22,22,22,1,0,1,,,1,FALSE,,,,,,,,,,,,,,,,,,,,,,,,,,,,,,,
,5ec96e9d4907d947b526e08d,627c679d1bf092acd0d5d6b7,2022-05-11_20h49.43.841,classification_task,2021.2.3,Win32,60.0240096,627c6715c52fd12f31907bcf,,,,,,,,,,,,,,,,,,,,,,,a,1,1.521,"[""0.320"",""0.453"",""0.236"",""0.955""]","[1,1,0,1]",0,23,23,23,1,0,1,,,1,FALSE,,,,,,,,,,,,,,,,,,,,,,,,,,,,,,,
,5ec96e9d4907d947b526e08d,627c679d1bf092acd0d5d6b7,2022-05-11_20h49.43.841,classification_task,2021.2.3,Win32,60.0240096,627c6715c52fd12f31907bcf,,,,,,,,,,,,,,,,,,,,,,,l,0,3.054,"[""0.185"",""0.367"",""0.708"",""0.798""]","[1,1,1,0]",0,24,24,24,1,0,0,,,1,FALSE,,,,,,,,,,,,,,,,,,,,,,,,,,,,,,,
,5ec96e9d4907d947b526e08d,627c679d1bf092acd0d5d6b7,2022-05-11_20h49.43.841,classification_task,2021.2.3,Win32,60.0240096,627c6715c52fd12f31907bcf,,,,,,,,,,,,,,,,,,,,,,,a,1,4.541,"[""0.185"",""0.367"",""0.046"",""0.881""]","[1,1,0,1]",0,25,25,25,1,0,0,,,1,FALSE,,,,,,,,,,,,,,,,,,,,,,,,,,,,,,,
,5ec96e9d4907d947b526e08d,627c679d1bf092acd0d5d6b7,2022-05-11_20h49.43.841,classification_task,2021.2.3,Win32,60.0240096,627c6715c52fd12f31907bcf,,,,,,,,,,,,,,,,,,,,,,,a,1,3.586,"[""0.185"",""0.497"",""0.708"",""0.881""]","[1,0,1,1]",0,26,26,26,1,0,0,,,1,FALSE,,,,,,,,,,,,,,,,,,,,,,,,,,,,,,,
,5ec96e9d4907d947b526e08d,627c679d1bf092acd0d5d6b7,2022-05-11_20h49.43.841,classification_task,2021.2.3,Win32,60.0240096,627c6715c52fd12f31907bcf,,,,,,,,,,,,,,,,,,,,,,,a,0,3.22,"[""0.138"",""0.046"",""0.560"",""0.836""]","[1,0,1,1]",0,27,27,27,1,1,1,,,1,FALSE,,,,,,,,,,,,,,,,,,,,,,,,,,,,,,,
,5ec96e9d4907d947b526e08d,627c679d1bf092acd0d5d6b7,2022-05-11_20h49.43.841,classification_task,2021.2.3,Win32,60.0240096,627c6715c52fd12f31907bcf,,,,,,,,,,,,,,,,,,,,,,,l,1,2.646,"[""0.495"",""0.285"",""0.631"",""0.762""]","[0,1,1,1]",0,28,28,28,1,1,0,,,1,FALSE,,,,,,,,,,,,,,,,,,,,,,,,,,,,,,,
,5ec96e9d4907d947b526e08d,627c679d1bf092acd0d5d6b7,2022-05-11_20h49.43.841,classification_task,2021.2.3,Win32,60.0240096,627c6715c52fd12f31907bcf,,,,,,,,,,,,,,,,,,,,,,,l,1,3.149,"[""0.093"",""0.049"",""0.631"",""0.762""]","[1,0,1,1]",0,29,29,29,1,1,0,,,1,FALSE,,,,,,,,,,,,,,,,,,,,,,,,,,,,,,,
,5ec96e9d4907d947b526e08d,627c679d1bf092acd0d5d6b7,2022-05-11_20h49.43.841,classification_task,2021.2.3,Win32,60.0240096,627c6715c52fd12f31907bcf,,,,,,,,,,,,,,,,,,,,,,,l,1,3.571,"[""0.093"",""0.285"",""0.631"",""0.797""]","[1,1,1,0]",0,30,30,30,1,1,0,,,1,FALSE,,,,,,,,,,,,,,,,,,,,,,,,,,,,,,,
,5ec96e9d4907d947b526e08d,627c679d1bf092acd0d5d6b7,2022-05-11_20h49.43.841,classification_task,2021.2.3,Win32,60.0240096,627c6715c52fd12f31907bcf,,,,,,,,,,,,,,,,,,,,,,,a,1,1.112,"[""0.320"",""0.453"",""0.919"",""0.797""]","[1,1,1,0]",0,31,31,31,1,0,1,,,1,FALSE,,,,,,,,,,,,,,,,,,,,,,,,,,,,,,,
,5ec96e9d4907d947b526e08d,627c679d1bf092acd0d5d6b7,2022-05-11_20h49.43.841,classification_task,2021.2.3,Win32,60.0240096,627c6715c52fd12f31907bcf,,,,,,,,,,,,,,,,,,,,,,,l,1,2.565,"[""0.497"",""0.417"",""0.560"",""0.836""]","[0,1,1,1]",0,32,32,32,1,1,1,,,1,FALSE,,,,,,,,,,,,,,,,,,,,,,,,,,,,,,,
,5ec96e9d4907d947b526e08d,627c679d1bf092acd0d5d6b7,2022-05-11_20h49.43.841,classification_task,2021.2.3,Win32,60.0240096,627c6715c52fd12f31907bcf,,,,,,,,,,,,,,,,,,,,,,,l,1,1.293,"[""0.093"",""0.285"",""0.631"",""0.054""]","[1,1,1,0]",0,33,33,33,1,1,0,,,1,FALSE,,,,,,,,,,,,,,,,,,,,,,,,,,,,,,,
,5ec96e9d4907d947b526e08d,627c679d1bf092acd0d5d6b7,2022-05-11_20h49.43.841,classification_task,2021.2.3,Win32,60.0240096,627c6715c52fd12f31907bcf,,,,,,,,,,,,,,,,,,,,,,,a,1,3.004,"[""0.185"",""0.497"",""0.708"",""0.881""]","[1,0,1,1]",0,34,34,34,1,0,0,,,1,FALSE,,,,,,,,,,,,,,,,,,,,,,,,,,,,,,,
,5ec96e9d4907d947b526e08d,627c679d1bf092acd0d5d6b7,2022-05-11_20h49.43.841,classification_task,2021.2.3,Win32,60.0240096,627c6715c52fd12f31907bcf,,,,,,,,,,,,,,,,,,,,,,,l,1,2.008,"[""0.236"",""0.285"",""0.631"",""0.762""]","[0,1,1,1]",0,35,35,35,1,1,0,,,1,FALSE,,,,,,,,,,,,,,,,,,,,,,,,,,,,,,,
,5ec96e9d4907d947b526e08d,627c679d1bf092acd0d5d6b7,2022-05-11_20h49.43.841,classification_task,2021.2.3,Win32,60.0240096,627c6715c52fd12f31907bcf,,,,,,,,,,,,,,,,,,,,,,,a,1,1.761,"[""0.320"",""0.453"",""0.919"",""0.054""]","[1,1,1,0]",0,36,36,36,1,0,1,,,1,FALSE,,,,,,,,,,,,,,,,,,,,,,,,,,,,,,,
,5ec96e9d4907d947b526e08d,627c679d1bf092acd0d5d6b7,2022-05-11_20h49.43.841,classification_task,2021.2.3,Win32,60.0240096,627c6715c52fd12f31907bcf,,,,,,,,,,,,,,,,,,,,,,,a,1,1.568,"[""0.797"",""0.453"",""0.919"",""0.955""]","[0,1,1,1]",0,37,37,37,1,0,1,,,1,FALSE,,,,,,,,,,,,,,,,,,,,,,,,,,,,,,,
,5ec96e9d4907d947b526e08d,627c679d1bf092acd0d5d6b7,2022-05-11_20h49.43.841,classification_task,2021.2.3,Win32,60.0240096,627c6715c52fd12f31907bcf,,,,,,,,,,,,,,,,,,,,,,,a,1,0.934,"[""0.320"",""0.453"",""0.596"",""0.955""]","[1,1,0,1]",0,38,38,38,1,0,1,,,1,FALSE,,,,,,,,,,,,,,,,,,,,,,,,,,,,,,,
,5ec96e9d4907d947b526e08d,627c679d1bf092acd0d5d6b7,2022-05-11_20h49.43.841,classification_task,2021.2.3,Win32,60.0240096,627c6715c52fd12f31907bcf,,,,,,,,,,,,,,,,,,,,,,,l,1,2.077,"[""0.093"",""0.495"",""0.631"",""0.762""]","[1,0,1,1]",0,39,39,39,1,1,0,,,1,FALSE,,,,,,,,,,,,,,,,,,,,,,,,,,,,,,,
,5ec96e9d4907d947b526e08d,627c679d1bf092acd0d5d6b7,2022-05-11_20h49.43.841,classification_task,2021.2.3,Win32,60.0240096,627c6715c52fd12f31907bcf,,,,,,,,,,,,,,,,,,,,,,,l,0,1.57,"[""0.185"",""0.367"",""0.708"",""0.494""]","[1,1,1,0]",0,40,40,40,1,0,0,,,1,FALSE,,,,,,,,,,,,,,,,,,,,,,,,,,,,,,,
,5ec96e9d4907d947b526e08d,627c679d1bf092acd0d5d6b7,2022-05-11_20h49.43.841,classification_task,2021.2.3,Win32,60.0240096,627c6715c52fd12f31907bcf,,,,,,,,,,,,,,,,,,,,,,,l,0,2.291,"[""0.798"",""0.367"",""0.708"",""0.881""]","[0,1,1,1]",0,41,41,41,1,0,0,,,1,FALSE,,,,,,,,,,,,,,,,,,,,,,,,,,,,,,,
,5ec96e9d4907d947b526e08d,627c679d1bf092acd0d5d6b7,2022-05-11_20h49.43.841,classification_task,2021.2.3,Win32,60.0240096,627c6715c52fd12f31907bcf,,,,,,,,,,,,,,,,,,,,,,,l,1,1.754,"[""0.138"",""0.054"",""0.560"",""0.836""]","[1,0,1,1]",0,42,42,42,1,1,1,,,1,FALSE,,,,,,,,,,,,,,,,,,,,,,,,,,,,,,,
,5ec96e9d4907d947b526e08d,627c679d1bf092acd0d5d6b7,2022-05-11_20h49.43.841,classification_task,2021.2.3,Win32,60.0240096,627c6715c52fd12f31907bcf,,,,,,,,,,,,,,,,,,,,,,,a,1,2.339,"[""0.320"",""0.055"",""0.919"",""0.955""]","[1,0,1,1]",0,43,43,43,1,0,1,,,1,FALSE,,,,,,,,,,,,,,,,,,,,,,,,,,,,,,,
,5ec96e9d4907d947b526e08d,627c679d1bf092acd0d5d6b7,2022-05-11_20h49.43.841,classification_task,2021.2.3,Win32,60.0240096,627c6715c52fd12f31907bcf,,,,,,,,,,,,,,,,,,,,,,,l,1,3.148,"[""0.093"",""0.285"",""0.798"",""0.762""]","[1,1,0,1]",0,44,44,44,1,1,0,,,1,FALSE,,,,,,,,,,,,,,,,,,,,,,,,,,,,,,,
,5ec96e9d4907d947b526e08d,627c679d1bf092acd0d5d6b7,2022-05-11_20h49.43.841,classification_task,2021.2.3,Win32,60.0240096,627c6715c52fd12f31907bcf,,,,,,,,,,,,,,,,,,,,,,,a,0,1.634,"[""0.138"",""0.417"",""0.560"",""0.666""]","[1,1,1,0]",0,45,45,45,1,1,1,,,1,FALSE,,,,,,,,,,,,,,,,,,,,,,,,,,,,,,,
,5ec96e9d4907d947b526e08d,627c679d1bf092acd0d5d6b7,2022-05-11_20h49.43.841,classification_task,2021.2.3,Win32,60.0240096,627c6715c52fd12f31907bcf,,,,,,,,,,,,,,,,,,,,,,,l,1,1.667,"[""0.138"",""0.417"",""0.798"",""0.836""]","[1,1,0,1]",0,46,46,46,1,1,1,,,1,FALSE,,,,,,,,,,,,,,,,,,,,,,,,,,,,,,,
,5ec96e9d4907d947b526e08d,627c679d1bf092acd0d5d6b7,2022-05-11_20h49.43.841,classification_task,2021.2.3,Win32,60.0240096,627c6715c52fd12f31907bcf,,,,,,,,,,,,,,,,,,,,,,,l,0,3.43,"[""0.185"",""0.367"",""0.495"",""0.881""]","[1,1,0,1]",0,47,47,47,1,0,0,,,1,FALSE,,,,,,,,,,,,,,,,,,,,,,,,,,,,,,,
,5ec96e9d4907d947b526e08d,627c679d1bf092acd0d5d6b7,2022-05-11_20h49.43.841,classification_task,2021.2.3,Win32,60.0240096,627c6715c52fd12f31907bcf,,,,,,,,,,,,,,,,,,,,,,,l,1,2.106,"[""0.138"",""0.417"",""0.560"",""0.490""]","[1,1,1,0]",0,48,48,48,1,1,1,,,1,FALSE,,,,,,,,,,,,,,,,,,,,,,,,,,,,,,,
,5ec96e9d4907d947b526e08d,627c679d1bf092acd0d5d6b7,2022-05-11_20h49.43.841,classification_task,2021.2.3,Win32,60.0240096,627c6715c52fd12f31907bcf,,,,,,,,,,,,,,,,,,,,,,,a,1,1.729,"[""0.320"",""0.520"",""0.919"",""0.955""]","[1,0,1,1]",0,49,49,49,1,0,1,,,1,FALSE,,,,,,,,,,,,,,,,,,,,,,,,,,,,,,,
,5ec96e9d4907d947b526e08d,627c679d1bf092acd0d5d6b7,2022-05-11_20h49.43.841,classification_task,2021.2.3,Win32,60.0240096,627c6715c52fd12f31907bcf,,,,,,,,,,,,,,,,,,,,,,,a,1,1.546,"[""0.320"",""0.453"",""0.798"",""0.955""]","[1,1,0,1]",0,50,50,50,1,0,1,,,1,FALSE,,,,,,,,,,,,,,,,,,,,,,,,,,,,,,,
,5ec96e9d4907d947b526e08d,627c679d1bf092acd0d5d6b7,2022-05-11_20h49.43.841,classification_task,2021.2.3,Win32,60.0240096,627c6715c52fd12f31907bcf,,,,,,,,,,,,,,,,,,,,,,,a,1,4.13,"[""0.185"",""0.367"",""0.708"",""0.797""]","[1,1,1,0]",0,51,51,51,1,0,0,,,1,FALSE,,,,,,,,,,,,,,,,,,,,,,,,,,,,,,,
,5ec96e9d4907d947b526e08d,627c679d1bf092acd0d5d6b7,2022-05-11_20h49.43.841,classification_task,2021.2.3,Win32,60.0240096,627c6715c52fd12f31907bcf,,,,,,,,,,,,,,,,,,,,,,,l,1,1.734,"[""0.138"",""0.490"",""0.560"",""0.836""]","[1,0,1,1]",0,52,52,52,1,1,1,,,1,FALSE,,,,,,,,,,,,,,,,,,,,,,,,,,,,,,,
,5ec96e9d4907d947b526e08d,627c679d1bf092acd0d5d6b7,2022-05-11_20h49.43.841,classification_task,2021.2.3,Win32,60.0240096,627c6715c52fd12f31907bcf,,,,,,,,,,,,,,,,,,,,,,,a,1,2.593,"[""0.185"",""0.367"",""0.046"",""0.881""]","[1,1,0,1]",0,53,53,53,1,0,0,,,1,FALSE,,,,,,,,,,,,,,,,,,,,,,,,,,,,,,,
,5ec96e9d4907d947b526e08d,627c679d1bf092acd0d5d6b7,2022-05-11_20h49.43.841,classification_task,2021.2.3,Win32,60.0240096,627c6715c52fd12f31907bcf,,,,,,,,,,,,,,,,,,,,,,,l,0,1.041,"[""0.320"",""0.453"",""0.919"",""0.055""]","[1,1,1,0]",0,54,54,54,1,0,1,,,1,FALSE,,,,,,,,,,,,,,,,,,,,,,,,,,,,,,,
,5ec96e9d4907d947b526e08d,627c679d1bf092acd0d5d6b7,2022-05-11_20h49.43.841,classification_task,2021.2.3,Win32,60.0240096,627c6715c52fd12f31907bcf,,,,,,,,,,,,,,,,,,,,,,,l,0,3.813,"[""0.185"",""0.666"",""0.708"",""0.881""]","[1,0,1,1]",0,55,55,55,1,0,0,,,1,FALSE,,,,,,,,,,,,,,,,,,,,,,,,,,,,,,,
,5ec96e9d4907d947b526e08d,627c679d1bf092acd0d5d6b7,2022-05-11_20h49.43.841,classification_task,2021.2.3,Win32,60.0240096,627c6715c52fd12f31907bcf,,,,,,,,,,,,,,,,,,,,,,,l,0,2.99,"[""0.054"",""0.367"",""0.708"",""0.881""]","[0,1,1,1]",0,56,56,56,1,0,0,,,1,FALSE,,,,,,,,,,,,,,,,,,,,,,,,,,,,,,,
,5ec96e9d4907d947b526e08d,627c679d1bf092acd0d5d6b7,2022-05-11_20h49.43.841,classification_task,2021.2.3,Win32,60.0240096,627c6715c52fd12f31907bcf,,,,,,,,,,,,,,,,,,,,,,,a,0,2.691,"[""0.093"",""0.285"",""0.497"",""0.762""]","[1,1,0,1]",0,57,57,57,1,1,0,,,1,FALSE,,,,,,,,,,,,,,,,,,,,,,,,,,,,,,,
,5ec96e9d4907d947b526e08d,627c679d1bf092acd0d5d6b7,2022-05-11_20h49.43.841,classification_task,2021.2.3,Win32,60.0240096,627c6715c52fd12f31907bcf,,,,,,,,,,,,,,,,,,,,,,,l,1,1.507,"[""0.138"",""0.417"",""0.052"",""0.836""]","[1,1,0,1]",0,58,58,58,1,1,1,,,1,FALSE,,,,,,,,,,,,,,,,,,,,,,,,,,,,,,,
,5ec96e9d4907d947b526e08d,627c679d1bf092acd0d5d6b7,2022-05-11_20h49.43.841,classification_task,2021.2.3,Win32,60.0240096,627c6715c52fd12f31907bcf,,,,,,,,,,,,,,,,,,,,,,,l,1,1.724,"[""0.052"",""0.417"",""0.560"",""0.836""]","[0,1,1,1]",0,59,59,59,1,1,1,,,1,FALSE,,,,,,,,,,,,,,,,,,,,,,,,,,,,,,,
,5ec96e9d4907d947b526e08d,627c679d1bf092acd0d5d6b7,2022-05-11_20h49.43.841,classification_task,2021.2.3,Win32,60.0240096,627c6715c52fd12f31907bcf,,,,,,,,,,,,,,,,,,,,,,,a,0,3.037,"[""0.093"",""0.490"",""0.631"",""0.762""]","[1,0,1,1]",0,60,60,60,1,1,0,,,1,FALSE,,,,,,,,,,,,,,,,,,,,,,,,,,,,,,,
,5ec96e9d4907d947b526e08d,627c679d1bf092acd0d5d6b7,2022-05-11_20h49.43.841,classification_task,2021.2.3,Win32,60.0240096,627c6715c52fd12f31907bcf,,,,,,,,,,,,,,,,,,,,,,,a,1,1.36,"[""0.049"",""0.453"",""0.919"",""0.955""]","[0,1,1,1]",0,61,61,61,1,0,1,,,1,FALSE,,,,,,,,,,,,,,,,,,,,,,,,,,,,,,,
,5ec96e9d4907d947b526e08d,627c679d1bf092acd0d5d6b7,2022-05-11_20h49.43.841,classification_task,2021.2.3,Win32,60.0240096,627c6715c52fd12f31907bcf,,,,,,,,,,,,,,,,,,,,,,,l,1,2.967,"[""0.093"",""0.285"",""0.631"",""0.236""]","[1,1,1,0]",0,62,62,62,1,1,0,,,1,FALSE,,,,,,,,,,,,,,,,,,,,,,,,,,,,,,,
,5ec96e9d4907d947b526e08d,627c679d1bf092acd0d5d6b7,2022-05-11_20h49.43.841,classification_task,2021.2.3,Win32,60.0240096,627c6715c52fd12f31907bcf,,,,,,,,,,,,,,,,,,,,,,,l,1,2.929,"[""0.494"",""0.285"",""0.631"",""0.762""]","[0,1,1,1]",0,63,63,63,1,1,0,,,1,FALSE,,,,,,,,,,,,,,,,,,,,,,,,,,,,,,,
,5ec96e9d4907d947b526e08d,627c679d1bf092acd0d5d6b7,2022-05-11_20h49.43.841,classification_task,2021.2.3,Win32,60.0240096,627c6715c52fd12f31907bcf,,,,,,,,,,,,,,,,,,,,,,,,,,,,,,,,,,,,,,,0, ,,0,5.061238487,236.08,0,2,2,2,1,2,3,,,,,,,,,,,,,,,,,,
,5ec96e9d4907d947b526e08d,627c679d1bf092acd0d5d6b7,2022-05-11_20h49.43.841,classification_task,2021.2.3,Win32,60.0240096,627c6715c52fd12f31907bcf,,,,,,,,,,,,,,,,,,,,,,,,,,,,,,,,,,,,,,,1,  ,,0,7.90882814,238.247,0,2,2,2,1,2,3,,,,,,,,,,,,,,,,,,
,5ec96e9d4907d947b526e08d,627c679d1bf092acd0d5d6b7,2022-05-11_20h49.43.841,classification_task,2021.2.3,Win32,60.0240096,627c6715c52fd12f31907bcf,,,,,,,,,,,,,,,,,,,,,,,,,,,,,,,,,,,,,,,2,  ,,0,7.786351166,240.426,0,2,2,2,1,2,3,,,,,,,,,,,,,,,,,,
,5ec96e9d4907d947b526e08d,627c679d1bf092acd0d5d6b7,2022-05-11_20h49.43.841,classification_task,2021.2.3,Win32,60.0240096,627c6715c52fd12f31907bcf,,,,,,,,,,,,,,,,,,,,,,,,,,,,,,,,,,,,,,,,,,,,,0,2,2,2,1,,3,,,,,,,,,,,,,,,,,,
,5ec96e9d4907d947b526e08d,627c679d1bf092acd0d5d6b7,2022-05-11_20h49.43.841,classification_task,2021.2.3,Win32,60.0240096,627c6715c52fd12f31907bcf,,,,,,,,,,,,,,,,,,,,,,,,,,,,,,,,,,,,,,,,,,,,,,,,,,,,,I believe the aid is a competent performer,,0.7,0,3,998.399,0,0,0,0,1,0,,,,,
,5ec96e9d4907d947b526e08d,627c679d1bf092acd0d5d6b7,2022-05-11_20h49.43.841,classification_task,2021.2.3,Win32,60.0240096,627c6715c52fd12f31907bcf,,,,,,,,,,,,,,,,,,,,,,,,,,,,,,,,,,,,,,,,,,,,,,,,,,,,,I trust the aid,,0.7,0,4,1001.706,0,0,0,0,1,0,,,,,
,5ec96e9d4907d947b526e08d,627c679d1bf092acd0d5d6b7,2022-05-11_20h49.43.841,classification_task,2021.2.3,Win32,60.0240096,627c6715c52fd12f31907bcf,,,,,,,,,,,,,,,,,,,,,,,,,,,,,,,,,,,,,,,,,,,,,,,,,,,,,I have confidence in the advice given by the aid,,0.7,0,4,1003.515,0,0,0,0,1,0,,,,,
,5ec96e9d4907d947b526e08d,627c679d1bf092acd0d5d6b7,2022-05-11_20h49.43.841,classification_task,2021.2.3,Win32,60.0240096,627c6715c52fd12f31907bcf,,,,,,,,,,,,,,,,,,,,,,,,,,,,,,,,,,,,,,,,,,,,,,,,,,,,,I can depend on the aid,,0.7,0,3,1006.529,0,0,0,0,1,0,,,,,
,5ec96e9d4907d947b526e08d,627c679d1bf092acd0d5d6b7,2022-05-11_20h49.43.841,classification_task,2021.2.3,Win32,60.0240096,627c6715c52fd12f31907bcf,,,,,,,,,,,,,,,,,,,,,,,,,,,,,,,,,,,,,,,,,,,,,,,,,,,,,I can rely on the aid to behave in consistent ways,,0.7,0,4,1010.315,0,0,0,0,1,0,,,,,
,5ec96e9d4907d947b526e08d,627c679d1bf092acd0d5d6b7,2022-05-11_20h49.43.841,classification_task,2021.2.3,Win32,60.0240096,627c6715c52fd12f31907bcf,,,,,,,,,,,,,,,,,,,,,,,,,,,,,,,,,,,,,,,,,,,,,,,,,,,,,I can rely on the aid to do its best every time I take its advice,,0.7,0,4,1013.178,0,0,0,0,1,0,,,,,
,5ec96e9d4907d947b526e08d,627c679d1bf092acd0d5d6b7,2022-05-11_20h49.43.841,classification_task,2021.2.3,Win32,60.0240096,627c6715c52fd12f31907bcf,,,,,,,,,,,,,,,,,,,,,,,,,,,,,,,,,,,,,,,,,,,,,,,,,,,,,"On trials you completed with assistance from the aid, how frequently did you think the aid was correct?",,0.7,0,Every time,,0,0,0,0,1,0,,,,,
,5ec96e9d4907d947b526e08d,627c679d1bf092acd0d5d6b7,2022-05-11_20h49.43.841,classification_task,2021.2.3,Win32,60.0240096,627c6715c52fd12f31907bcf,,,,,,,,,,,,,,,,,,,,,,,,,,,,,,,,,,,,,,,,,,,,,,,,,,,,,"On trials you completed without the aid, how frequently did you think you were correct?",,0.7,0,Almost none of the time,,0,0,0,0,1,0,,,,,
,5ec96e9d4907d947b526e08d,627c679d1bf092acd0d5d6b7,2022-05-11_20h49.43.841,classification_task,2021.2.3,Win32,60.0240096,627c6715c52fd12f31907bcf,,,,,,,,,,,,,,,,,,,,,,,,,,,,,,,,,,,,,,,,,,,,,,,,,,,,,,,,,,,0,0,0,0,1,,,,,,
,5ec96e9d4907d947b526e08d,627c679d1bf092acd0d5d6b7,2022-05-11_20h49.43.841,classification_task,2021.2.3,Win32,60.0240096,627c6715c52fd12f31907bcf,,,,,,,,,,,,,,,,,,,,,,,,,,,,,,,,,,,,,,,,,,,,,,,,,,,,,,,,,,,,,,,,,space,11.699,1051.689,,
,5ec96e9d4907d947b526e08d,627c679d1bf092acd0d5d6b7,2022-05-11_20h49.43.841,classification_task,2021.2.3,Win32,60.0240096,627c6715c52fd12f31907bcf,,,,,,,,,,,,,,,,,,,,,,,,,,,,,,,,,,,,,,,,,,,,,,,,,,,,,,,,,,,,,,,,,,,,Mozilla/5.0 (Windows NT 10.0; Win64; x64; rv:100.0) Gecko/20100101 Firefox/100.0,
,5ec96e9d4907d947b526e08d,627c679d1bf092acd0d5d6b7,2022-05-11_20h49.43.841,classification_task,2021.2.3,Win32,60.0240096,627c6715c52fd12f31907bcf,,,,,,,,,,,,,,,,,,,,,,,,,,,,,,,,,,,,,,,,,,,,,,,,,,,,,,,,,,,,,,,,,,,,,HIGHLIGHT
