usingWebGL,participant,session,date,expName,psychopyVersion,OS,frameRate,study_id,signatures_friend,signatures_foe,band_ranges_top,band_ranges_bottom,formitemText,formtype,formundefined,formitemWidth,formindex,formresponse,formrt,key_resp_2.keys,key_resp_2.rt,tute_resp.keys,tute_resp.rt,tutorial.thisRepN,tutorial.thisTrialN,tutorial.thisN,tutorial.thisIndex,tutorial.ran,key_resp_4.keys,key_resp_4.rt,key_resp.keys,key_resp.corr,key_resp.rt,lines_presented,is_signal_presented,trials.thisRepN,trials.thisTrialN,trials.thisN,trials.thisIndex,trials.ran,vessel,active_band,lines,is_signal,supported_pos,catch_trial,debrief_formindex,debrief_formitemText,debrief_formtype,debrief_formitemWidth,debrief_formresponse,debrief_formrt,phases.thisRepN,phases.thisTrialN,phases.thisN,phases.thisIndex,phases.ran,phases.order,phase,key_resp_3.keys,trustitemText,trusttype,trustitemWidth,trustindex,trustresponse,trustrt,support_status.thisRepN,support_status.thisTrialN,support_status.thisN,support_status.thisIndex,support_status.ran,support_status.order,key_resp_5.keys,key_resp_5.rt,globalClockTime,userAgent,manualCondition
TRUE,5ed6ad6d923c090fbbe04b2a,627c6f95cec96ee9df710e2e,2022-05-11_22h23.30.489,classification_task,2021.2.3,MacIntel,55.55555556,627c6715c52fd12f31907bcf,,,,,,,,,,,,,,,,,,,,,,,,,,,,,,,,,,,,,,,,,,,,,,,,,,,,,,,,,,,,,,,,,,,,,
,5ed6ad6d923c090fbbe04b2a,627c6f95cec96ee9df710e2e,2022-05-11_22h23.30.489,classification_task,2021.2.3,MacIntel,55.55555556,627c6715c52fd12f31907bcf,"[[""0.254"",""0.536"",""0.856"",""0.936""],[""0.168"",""0.379"",""0.638"",""0.972""]]","[[""0.115"",""0.323"",""0.496"",""0.712""],[""0.051"",""0.425"",""0.459"",""0.748""]]","[1,10]","[100,1000]",Video game experience,,,0.7,0,,,,,,,,,,,,,,,,,,,,,,,,,,,,,,,,,,,,,,,,,,,,,,,,,,,,,,,,,,,,
,5ed6ad6d923c090fbbe04b2a,627c6f95cec96ee9df710e2e,2022-05-11_22h23.30.489,classification_task,2021.2.3,MacIntel,55.55555556,627c6715c52fd12f31907bcf,,,,,Approximately how many hours did you spend playing video games in the last week?,,,0.7,0,7,,,,,,,,,,,,,,,,,,,,,,,,,,,,,,,,,,,,,,,,,,,,,,,,,,,,,,,,,,,
,5ed6ad6d923c090fbbe04b2a,627c6f95cec96ee9df710e2e,2022-05-11_22h23.30.489,classification_task,2021.2.3,MacIntel,55.55555556,627c6715c52fd12f31907bcf,,,,,"Which game did you play the most this year? (Enter ""None"" if you didn't play any)",,,0.7,0,Kitchen Scramble ,,,,,,,,,,,,,,,,,,,,,,,,,,,,,,,,,,,,,,,,,,,,,,,,,,,,,,,,,,,
,5ed6ad6d923c090fbbe04b2a,627c6f95cec96ee9df710e2e,2022-05-11_22h23.30.489,classification_task,2021.2.3,MacIntel,55.55555556,627c6715c52fd12f31907bcf,,,,,Visual perception,,,0.7,0,,,,,,,,,,,,,,,,,,,,,,,,,,,,,,,,,,,,,,,,,,,,,,,,,,,,,,,,,,,,
,5ed6ad6d923c090fbbe04b2a,627c6f95cec96ee9df710e2e,2022-05-11_22h23.30.489,classification_task,2021.2.3,MacIntel,55.55555556,627c6715c52fd12f31907bcf,,,,,Do you have any form of color blindness?,,,0.7,0,No,20.018,,,,,,,,,,,,,,,,,,,,,,,,,,,,,,,,,,,,,,,,,,,,,,,,,,,,,,,,,,
,5ed6ad6d923c090fbbe04b2a,627c6f95cec96ee9df710e2e,2022-05-11_22h23.30.489,classification_task,2021.2.3,MacIntel,55.55555556,627c6715c52fd12f31907bcf,,,,,Do you use software to change the colour temperature of your screen (e.g. f.lux)?,,,0.7,0,No,22.194,,,,,,,,,,,,,,,,,,,,,,,,,,,,,,,,,,,,,,,,,,,,,,,,,,,,,,,,,,
,5ed6ad6d923c090fbbe04b2a,627c6f95cec96ee9df710e2e,2022-05-11_22h23.30.489,classification_task,2021.2.3,MacIntel,55.55555556,627c6715c52fd12f31907bcf,,,,,,,,,,,,space,15.725,space,4.413,0,0,0,0,1,,,,,,,,,,,,,,,,,,,,,,,,,,,,,,,,,,,,,,,,,,,,,,,,,
,5ed6ad6d923c090fbbe04b2a,627c6f95cec96ee9df710e2e,2022-05-11_22h23.30.489,classification_task,2021.2.3,MacIntel,55.55555556,627c6715c52fd12f31907bcf,,,,,,,,,,,,,,space,5.394,1,0,1,0,1,,,,,,,,,,,,,,,,,,,,,,,,,,,,,,,,,,,,,,,,,,,,,,,,,
,5ed6ad6d923c090fbbe04b2a,627c6f95cec96ee9df710e2e,2022-05-11_22h23.30.489,classification_task,2021.2.3,MacIntel,55.55555556,627c6715c52fd12f31907bcf,,,,,,,,,,,,,,space,15.043,2,0,2,0,1,,,,,,,,,,,,,,,,,,,,,,,,,,,,,,,,,,,,,,,,,,,,,,,,,
,5ed6ad6d923c090fbbe04b2a,627c6f95cec96ee9df710e2e,2022-05-11_22h23.30.489,classification_task,2021.2.3,MacIntel,55.55555556,627c6715c52fd12f31907bcf,,,,,,,,,,,,,,space,13.706,3,0,3,0,1,,,,,,,,,,,,,,,,,,,,,,,,,,,,,,,,,,,,,,,,,,,,,,,,,
,5ed6ad6d923c090fbbe04b2a,627c6f95cec96ee9df710e2e,2022-05-11_22h23.30.489,classification_task,2021.2.3,MacIntel,55.55555556,627c6715c52fd12f31907bcf,,,,,,,,,,,,,,space,4.251,4,0,4,0,1,,,,,,,,,,,,,,,,,,,,,,,,,,,,,,,,,,,,,,,,,,,,,,,,,
,5ed6ad6d923c090fbbe04b2a,627c6f95cec96ee9df710e2e,2022-05-11_22h23.30.489,classification_task,2021.2.3,MacIntel,55.55555556,627c6715c52fd12f31907bcf,,,,,,,,,,,,,,,,,,,,,space,3.306,a,1,4.805,"[""0.254"",""0.536"",""0.856"",""0.578""]","[1,1,1,0]",0,0,0,0,1,0,0,,,0,FALSE,,,,,,,,,,,,,,,,,,,,,,,,,,,,,,,
,5ed6ad6d923c090fbbe04b2a,627c6f95cec96ee9df710e2e,2022-05-11_22h23.30.489,classification_task,2021.2.3,MacIntel,55.55555556,627c6715c52fd12f31907bcf,,,,,,,,,,,,,,,,,,,,,,,l,0,2.489,"[""0.204"",""0.536"",""0.856"",""0.936""]","[0,1,1,1]",0,1,1,1,1,0,0,,,0,FALSE,,,,,,,,,,,,,,,,,,,,,,,,,,,,,,,
,5ed6ad6d923c090fbbe04b2a,627c6f95cec96ee9df710e2e,2022-05-11_22h23.30.489,classification_task,2021.2.3,MacIntel,55.55555556,627c6715c52fd12f31907bcf,,,,,,,,,,,,,,,,,,,,,,,,0,,"[""0.792"",""0.323"",""0.496"",""0.712""]","[0,1,1,1]",0,2,2,2,1,1,0,,,0,FALSE,,,,,,,,,,,,,,,,,,,,,,,,,,,,,,,
,5ed6ad6d923c090fbbe04b2a,627c6f95cec96ee9df710e2e,2022-05-11_22h23.30.489,classification_task,2021.2.3,MacIntel,55.55555556,627c6715c52fd12f31907bcf,,,,,,,,,,,,,,,,,,,,,,,l,1,2.36,"[""0.115"",""0.323"",""0.496"",""0.593""]","[1,1,1,0]",0,3,3,3,1,1,0,,,0,FALSE,,,,,,,,,,,,,,,,,,,,,,,,,,,,,,,
,5ed6ad6d923c090fbbe04b2a,627c6f95cec96ee9df710e2e,2022-05-11_22h23.30.489,classification_task,2021.2.3,MacIntel,55.55555556,627c6715c52fd12f31907bcf,,,,,,,,,,,,,,,,,,,,,,,l,1,1.626,"[""0.115"",""0.323"",""0.792"",""0.712""]","[1,1,0,1]",0,4,4,4,1,1,0,,,0,FALSE,,,,,,,,,,,,,,,,,,,,,,,,,,,,,,,
,5ed6ad6d923c090fbbe04b2a,627c6f95cec96ee9df710e2e,2022-05-11_22h23.30.489,classification_task,2021.2.3,MacIntel,55.55555556,627c6715c52fd12f31907bcf,,,,,,,,,,,,,,,,,,,,,,,a,1,5.794,"[""0.168"",""0.379"",""0.638"",""0.204""]","[1,1,1,0]",0,5,5,5,1,0,1,,,0,FALSE,,,,,,,,,,,,,,,,,,,,,,,,,,,,,,,
,5ed6ad6d923c090fbbe04b2a,627c6f95cec96ee9df710e2e,2022-05-11_22h23.30.489,classification_task,2021.2.3,MacIntel,55.55555556,627c6715c52fd12f31907bcf,,,,,,,,,,,,,,,,,,,,,,,a,1,7.78,"[""0.254"",""0.578"",""0.856"",""0.936""]","[1,0,1,1]",0,6,6,6,1,0,0,,,0,FALSE,,,,,,,,,,,,,,,,,,,,,,,,,,,,,,,
,5ed6ad6d923c090fbbe04b2a,627c6f95cec96ee9df710e2e,2022-05-11_22h23.30.489,classification_task,2021.2.3,MacIntel,55.55555556,627c6715c52fd12f31907bcf,,,,,,,,,,,,,,,,,,,,,,,l,1,3.921,"[""0.115"",""0.806"",""0.496"",""0.712""]","[1,0,1,1]",0,7,7,7,1,1,0,,,0,FALSE,,,,,,,,,,,,,,,,,,,,,,,,,,,,,,,
,5ed6ad6d923c090fbbe04b2a,627c6f95cec96ee9df710e2e,2022-05-11_22h23.30.489,classification_task,2021.2.3,MacIntel,55.55555556,627c6715c52fd12f31907bcf,,,,,,,,,,,,,,,,,,,,,,,l,1,5.357,"[""0.051"",""0.812"",""0.459"",""0.748""]","[1,0,1,1]",0,8,8,8,1,1,1,,,0,FALSE,,,,,,,,,,,,,,,,,,,,,,,,,,,,,,,
,5ed6ad6d923c090fbbe04b2a,627c6f95cec96ee9df710e2e,2022-05-11_22h23.30.489,classification_task,2021.2.3,MacIntel,55.55555556,627c6715c52fd12f31907bcf,,,,,,,,,,,,,,,,,,,,,,,a,1,3.236,"[""0.578"",""0.379"",""0.638"",""0.972""]","[0,1,1,1]",0,9,9,9,1,0,1,,,0,FALSE,,,,,,,,,,,,,,,,,,,,,,,,,,,,,,,
,5ed6ad6d923c090fbbe04b2a,627c6f95cec96ee9df710e2e,2022-05-11_22h23.30.489,classification_task,2021.2.3,MacIntel,55.55555556,627c6715c52fd12f31907bcf,,,,,,,,,,,,,,,,,,,,,,,l,1,3.291,"[""0.051"",""0.425"",""0.578"",""0.748""]","[1,1,0,1]",0,10,10,10,1,1,1,,,0,FALSE,,,,,,,,,,,,,,,,,,,,,,,,,,,,,,,
,5ed6ad6d923c090fbbe04b2a,627c6f95cec96ee9df710e2e,2022-05-11_22h23.30.489,classification_task,2021.2.3,MacIntel,55.55555556,627c6715c52fd12f31907bcf,,,,,,,,,,,,,,,,,,,,,,,a,1,3.319,"[""0.168"",""0.677"",""0.638"",""0.972""]","[1,0,1,1]",0,11,11,11,1,0,1,,,0,FALSE,,,,,,,,,,,,,,,,,,,,,,,,,,,,,,,
,5ed6ad6d923c090fbbe04b2a,627c6f95cec96ee9df710e2e,2022-05-11_22h23.30.489,classification_task,2021.2.3,MacIntel,55.55555556,627c6715c52fd12f31907bcf,,,,,,,,,,,,,,,,,,,,,,,a,1,3.304,"[""0.254"",""0.536"",""0.593"",""0.936""]","[1,1,0,1]",0,12,12,12,1,0,0,,,0,FALSE,,,,,,,,,,,,,,,,,,,,,,,,,,,,,,,
,5ed6ad6d923c090fbbe04b2a,627c6f95cec96ee9df710e2e,2022-05-11_22h23.30.489,classification_task,2021.2.3,MacIntel,55.55555556,627c6715c52fd12f31907bcf,,,,,,,,,,,,,,,,,,,,,,,a,1,2.958,"[""0.168"",""0.379"",""0.806"",""0.972""]","[1,1,0,1]",0,13,13,13,1,0,1,,,0,FALSE,,,,,,,,,,,,,,,,,,,,,,,,,,,,,,,
,5ed6ad6d923c090fbbe04b2a,627c6f95cec96ee9df710e2e,2022-05-11_22h23.30.489,classification_task,2021.2.3,MacIntel,55.55555556,627c6715c52fd12f31907bcf,,,,,,,,,,,,,,,,,,,,,,,l,1,4.144,"[""0.596"",""0.425"",""0.459"",""0.748""]","[0,1,1,1]",0,14,14,14,1,1,1,,,0,FALSE,,,,,,,,,,,,,,,,,,,,,,,,,,,,,,,
,5ed6ad6d923c090fbbe04b2a,627c6f95cec96ee9df710e2e,2022-05-11_22h23.30.489,classification_task,2021.2.3,MacIntel,55.55555556,627c6715c52fd12f31907bcf,,,,,,,,,,,,,,,,,,,,,,,l,1,2.87,"[""0.051"",""0.425"",""0.459"",""0.574""]","[1,1,1,0]",0,15,15,15,1,1,1,,,0,FALSE,,,,,,,,,,,,,,,,,,,,,,,,,,,,,,,
,5ed6ad6d923c090fbbe04b2a,627c6f95cec96ee9df710e2e,2022-05-11_22h23.30.489,classification_task,2021.2.3,MacIntel,55.55555556,627c6715c52fd12f31907bcf,,,,,,,,,,,,,,,,,,,,,,,l,1,4.126,"[""0.115"",""0.897"",""0.496"",""0.712""]","[1,0,1,1]",0,16,16,16,1,1,0,,,0,FALSE,,,,,,,,,,,,,,,,,,,,,,,,,,,,,,,
,5ed6ad6d923c090fbbe04b2a,627c6f95cec96ee9df710e2e,2022-05-11_22h23.30.489,classification_task,2021.2.3,MacIntel,55.55555556,627c6715c52fd12f31907bcf,,,,,,,,,,,,,,,,,,,,,,,l,1,4.885,"[""0.115"",""0.323"",""0.593"",""0.712""]","[1,1,0,1]",0,17,17,17,1,1,0,,,0,FALSE,,,,,,,,,,,,,,,,,,,,,,,,,,,,,,,
,5ed6ad6d923c090fbbe04b2a,627c6f95cec96ee9df710e2e,2022-05-11_22h23.30.489,classification_task,2021.2.3,MacIntel,55.55555556,627c6715c52fd12f31907bcf,,,,,,,,,,,,,,,,,,,,,,,a,1,6.205,"[""0.168"",""0.792"",""0.638"",""0.972""]","[1,0,1,1]",0,18,18,18,1,0,1,,,0,FALSE,,,,,,,,,,,,,,,,,,,,,,,,,,,,,,,
,5ed6ad6d923c090fbbe04b2a,627c6f95cec96ee9df710e2e,2022-05-11_22h23.30.489,classification_task,2021.2.3,MacIntel,55.55555556,627c6715c52fd12f31907bcf,,,,,,,,,,,,,,,,,,,,,,,l,0,3.59,"[""0.204"",""0.536"",""0.856"",""0.936""]","[0,1,1,1]",0,19,19,19,1,0,0,,,0,FALSE,,,,,,,,,,,,,,,,,,,,,,,,,,,,,,,
,5ed6ad6d923c090fbbe04b2a,627c6f95cec96ee9df710e2e,2022-05-11_22h23.30.489,classification_task,2021.2.3,MacIntel,55.55555556,627c6715c52fd12f31907bcf,,,,,,,,,,,,,,,,,,,,,,,a,1,5.609,"[""0.585"",""0.379"",""0.638"",""0.972""]","[0,1,1,1]",0,20,20,20,1,0,1,,,0,FALSE,,,,,,,,,,,,,,,,,,,,,,,,,,,,,,,
,5ed6ad6d923c090fbbe04b2a,627c6f95cec96ee9df710e2e,2022-05-11_22h23.30.489,classification_task,2021.2.3,MacIntel,55.55555556,627c6715c52fd12f31907bcf,,,,,,,,,,,,,,,,,,,,,,,a,1,5.21,"[""0.254"",""0.536"",""0.204"",""0.936""]","[1,1,0,1]",0,21,21,21,1,0,0,,,0,FALSE,,,,,,,,,,,,,,,,,,,,,,,,,,,,,,,
,5ed6ad6d923c090fbbe04b2a,627c6f95cec96ee9df710e2e,2022-05-11_22h23.30.489,classification_task,2021.2.3,MacIntel,55.55555556,627c6715c52fd12f31907bcf,,,,,,,,,,,,,,,,,,,,,,,a,1,5.412,"[""0.254"",""0.588"",""0.856"",""0.936""]","[1,0,1,1]",0,22,22,22,1,0,0,,,0,FALSE,,,,,,,,,,,,,,,,,,,,,,,,,,,,,,,
,5ed6ad6d923c090fbbe04b2a,627c6f95cec96ee9df710e2e,2022-05-11_22h23.30.489,classification_task,2021.2.3,MacIntel,55.55555556,627c6715c52fd12f31907bcf,,,,,,,,,,,,,,,,,,,,,,,l,1,5.241,"[""0.051"",""0.574"",""0.459"",""0.748""]","[1,0,1,1]",0,23,23,23,1,1,1,,,0,FALSE,,,,,,,,,,,,,,,,,,,,,,,,,,,,,,,
,5ed6ad6d923c090fbbe04b2a,627c6f95cec96ee9df710e2e,2022-05-11_22h23.30.489,classification_task,2021.2.3,MacIntel,55.55555556,627c6715c52fd12f31907bcf,,,,,,,,,,,,,,,,,,,,,,,l,1,6.224,"[""0.051"",""0.425"",""0.459"",""0.204""]","[1,1,1,0]",0,24,24,24,1,1,1,,,0,FALSE,,,,,,,,,,,,,,,,,,,,,,,,,,,,,,,
,5ed6ad6d923c090fbbe04b2a,627c6f95cec96ee9df710e2e,2022-05-11_22h23.30.489,classification_task,2021.2.3,MacIntel,55.55555556,627c6715c52fd12f31907bcf,,,,,,,,,,,,,,,,,,,,,,,l,1,5.754,"[""0.051"",""0.425"",""0.897"",""0.748""]","[1,1,0,1]",0,25,25,25,1,1,1,,,0,FALSE,,,,,,,,,,,,,,,,,,,,,,,,,,,,,,,
,5ed6ad6d923c090fbbe04b2a,627c6f95cec96ee9df710e2e,2022-05-11_22h23.30.489,classification_task,2021.2.3,MacIntel,55.55555556,627c6715c52fd12f31907bcf,,,,,,,,,,,,,,,,,,,,,,,a,1,3.633,"[""0.254"",""0.536"",""0.856"",""0.220""]","[1,1,1,0]",0,26,26,26,1,0,0,,,0,FALSE,,,,,,,,,,,,,,,,,,,,,,,,,,,,,,,
,5ed6ad6d923c090fbbe04b2a,627c6f95cec96ee9df710e2e,2022-05-11_22h23.30.489,classification_task,2021.2.3,MacIntel,55.55555556,627c6715c52fd12f31907bcf,,,,,,,,,,,,,,,,,,,,,,,a,1,5.862,"[""0.168"",""0.379"",""0.677"",""0.972""]","[1,1,0,1]",0,27,27,27,1,0,1,,,0,FALSE,,,,,,,,,,,,,,,,,,,,,,,,,,,,,,,
,5ed6ad6d923c090fbbe04b2a,627c6f95cec96ee9df710e2e,2022-05-11_22h23.30.489,classification_task,2021.2.3,MacIntel,55.55555556,627c6715c52fd12f31907bcf,,,,,,,,,,,,,,,,,,,,,,,l,1,4.552,"[""0.574"",""0.323"",""0.496"",""0.712""]","[0,1,1,1]",0,28,28,28,1,1,0,,,0,FALSE,,,,,,,,,,,,,,,,,,,,,,,,,,,,,,,
,5ed6ad6d923c090fbbe04b2a,627c6f95cec96ee9df710e2e,2022-05-11_22h23.30.489,classification_task,2021.2.3,MacIntel,55.55555556,627c6715c52fd12f31907bcf,,,,,,,,,,,,,,,,,,,,,,,a,1,3.742,"[""0.168"",""0.379"",""0.638"",""0.588""]","[1,1,1,0]",0,29,29,29,1,0,1,,,0,FALSE,,,,,,,,,,,,,,,,,,,,,,,,,,,,,,,
,5ed6ad6d923c090fbbe04b2a,627c6f95cec96ee9df710e2e,2022-05-11_22h23.30.489,classification_task,2021.2.3,MacIntel,55.55555556,627c6715c52fd12f31907bcf,,,,,,,,,,,,,,,,,,,,,,,l,1,3.758,"[""0.204"",""0.425"",""0.459"",""0.748""]","[0,1,1,1]",0,30,30,30,1,1,1,,,0,FALSE,,,,,,,,,,,,,,,,,,,,,,,,,,,,,,,
,5ed6ad6d923c090fbbe04b2a,627c6f95cec96ee9df710e2e,2022-05-11_22h23.30.489,classification_task,2021.2.3,MacIntel,55.55555556,627c6715c52fd12f31907bcf,,,,,,,,,,,,,,,,,,,,,,,l,1,2.245,"[""0.115"",""0.323"",""0.496"",""0.677""]","[1,1,1,0]",0,31,31,31,1,1,0,,,0,FALSE,,,,,,,,,,,,,,,,,,,,,,,,,,,,,,,
,5ed6ad6d923c090fbbe04b2a,627c6f95cec96ee9df710e2e,2022-05-11_22h23.30.489,classification_task,2021.2.3,MacIntel,55.55555556,627c6715c52fd12f31907bcf,,,,,,,,,,,,,,,,,,,,,,,a,1,2.961,"[""0.254"",""0.536"",""0.574"",""0.936""]","[1,1,0,1]",0,32,32,32,1,0,0,,,0,FALSE,,,,,,,,,,,,,,,,,,,,,,,,,,,,,,,
,5ed6ad6d923c090fbbe04b2a,627c6f95cec96ee9df710e2e,2022-05-11_22h23.30.489,classification_task,2021.2.3,MacIntel,55.55555556,627c6715c52fd12f31907bcf,,,,,,,,,,,,,,,,,,,,,,,a,0,2.035,"[""0.115"",""0.574"",""0.496"",""0.712""]","[1,0,1,1]",0,33,33,33,1,1,0,,,0,FALSE,,,,,,,,,,,,,,,,,,,,,,,,,,,,,,,
,5ed6ad6d923c090fbbe04b2a,627c6f95cec96ee9df710e2e,2022-05-11_22h23.30.489,classification_task,2021.2.3,MacIntel,55.55555556,627c6715c52fd12f31907bcf,,,,,,,,,,,,,,,,,,,,,,,a,1,1.886,"[""0.168"",""0.379"",""0.638"",""0.596""]","[1,1,1,0]",0,34,34,34,1,0,1,,,0,FALSE,,,,,,,,,,,,,,,,,,,,,,,,,,,,,,,
,5ed6ad6d923c090fbbe04b2a,627c6f95cec96ee9df710e2e,2022-05-11_22h23.30.489,classification_task,2021.2.3,MacIntel,55.55555556,627c6715c52fd12f31907bcf,,,,,,,,,,,,,,,,,,,,,,,l,0,1.215,"[""0.254"",""0.536"",""0.856"",""0.593""]","[1,1,1,0]",0,35,35,35,1,0,0,,,0,FALSE,,,,,,,,,,,,,,,,,,,,,,,,,,,,,,,
,5ed6ad6d923c090fbbe04b2a,627c6f95cec96ee9df710e2e,2022-05-11_22h23.30.489,classification_task,2021.2.3,MacIntel,55.55555556,627c6715c52fd12f31907bcf,,,,,,,,,,,,,,,,,,,,,,,l,0,1.372,"[""0.168"",""0.379"",""0.792"",""0.972""]","[1,1,0,1]",0,36,36,36,1,0,1,,,0,FALSE,,,,,,,,,,,,,,,,,,,,,,,,,,,,,,,
,5ed6ad6d923c090fbbe04b2a,627c6f95cec96ee9df710e2e,2022-05-11_22h23.30.489,classification_task,2021.2.3,MacIntel,55.55555556,627c6715c52fd12f31907bcf,,,,,,,,,,,,,,,,,,,,,,,a,1,1.236,"[""0.254"",""0.593"",""0.856"",""0.936""]","[1,0,1,1]",0,37,37,37,1,0,0,,,0,FALSE,,,,,,,,,,,,,,,,,,,,,,,,,,,,,,,
,5ed6ad6d923c090fbbe04b2a,627c6f95cec96ee9df710e2e,2022-05-11_22h23.30.489,classification_task,2021.2.3,MacIntel,55.55555556,627c6715c52fd12f31907bcf,,,,,,,,,,,,,,,,,,,,,,,a,0,1.068,"[""0.051"",""0.425"",""0.459"",""0.812""]","[1,1,1,0]",0,38,38,38,1,1,1,,,0,FALSE,,,,,,,,,,,,,,,,,,,,,,,,,,,,,,,
,5ed6ad6d923c090fbbe04b2a,627c6f95cec96ee9df710e2e,2022-05-11_22h23.30.489,classification_task,2021.2.3,MacIntel,55.55555556,627c6715c52fd12f31907bcf,,,,,,,,,,,,,,,,,,,,,,,l,1,0.815,"[""0.051"",""0.425"",""0.806"",""0.748""]","[1,1,0,1]",0,39,39,39,1,1,1,,,0,FALSE,,,,,,,,,,,,,,,,,,,,,,,,,,,,,,,
,5ed6ad6d923c090fbbe04b2a,627c6f95cec96ee9df710e2e,2022-05-11_22h23.30.489,classification_task,2021.2.3,MacIntel,55.55555556,627c6715c52fd12f31907bcf,,,,,,,,,,,,,,,,,,,,,,,l,1,0.633,"[""0.051"",""0.574"",""0.459"",""0.748""]","[1,0,1,1]",0,40,40,40,1,1,1,,,0,FALSE,,,,,,,,,,,,,,,,,,,,,,,,,,,,,,,
,5ed6ad6d923c090fbbe04b2a,627c6f95cec96ee9df710e2e,2022-05-11_22h23.30.489,classification_task,2021.2.3,MacIntel,55.55555556,627c6715c52fd12f31907bcf,,,,,,,,,,,,,,,,,,,,,,,a,1,0.955,"[""0.812"",""0.536"",""0.856"",""0.936""]","[0,1,1,1]",0,41,41,41,1,0,0,,,0,FALSE,,,,,,,,,,,,,,,,,,,,,,,,,,,,,,,
,5ed6ad6d923c090fbbe04b2a,627c6f95cec96ee9df710e2e,2022-05-11_22h23.30.489,classification_task,2021.2.3,MacIntel,55.55555556,627c6715c52fd12f31907bcf,,,,,,,,,,,,,,,,,,,,,,,a,0,1.287,"[""0.578"",""0.425"",""0.459"",""0.748""]","[0,1,1,1]",0,42,42,42,1,1,1,,,0,FALSE,,,,,,,,,,,,,,,,,,,,,,,,,,,,,,,
,5ed6ad6d923c090fbbe04b2a,627c6f95cec96ee9df710e2e,2022-05-11_22h23.30.489,classification_task,2021.2.3,MacIntel,55.55555556,627c6715c52fd12f31907bcf,,,,,,,,,,,,,,,,,,,,,,,l,1,1.466,"[""0.115"",""0.323"",""0.496"",""0.574""]","[1,1,1,0]",0,43,43,43,1,1,0,,,0,FALSE,,,,,,,,,,,,,,,,,,,,,,,,,,,,,,,
,5ed6ad6d923c090fbbe04b2a,627c6f95cec96ee9df710e2e,2022-05-11_22h23.30.489,classification_task,2021.2.3,MacIntel,55.55555556,627c6715c52fd12f31907bcf,,,,,,,,,,,,,,,,,,,,,,,a,0,1.167,"[""0.596"",""0.323"",""0.496"",""0.712""]","[0,1,1,1]",0,44,44,44,1,1,0,,,0,FALSE,,,,,,,,,,,,,,,,,,,,,,,,,,,,,,,
,5ed6ad6d923c090fbbe04b2a,627c6f95cec96ee9df710e2e,2022-05-11_22h23.30.489,classification_task,2021.2.3,MacIntel,55.55555556,627c6715c52fd12f31907bcf,,,,,,,,,,,,,,,,,,,,,,,l,0,1.569,"[""0.168"",""0.677"",""0.638"",""0.972""]","[1,0,1,1]",0,45,45,45,1,0,1,,,0,FALSE,,,,,,,,,,,,,,,,,,,,,,,,,,,,,,,
,5ed6ad6d923c090fbbe04b2a,627c6f95cec96ee9df710e2e,2022-05-11_22h23.30.489,classification_task,2021.2.3,MacIntel,55.55555556,627c6715c52fd12f31907bcf,,,,,,,,,,,,,,,,,,,,,,,a,1,1.435,"[""0.588"",""0.379"",""0.638"",""0.972""]","[0,1,1,1]",0,46,46,46,1,0,1,,,0,FALSE,,,,,,,,,,,,,,,,,,,,,,,,,,,,,,,
,5ed6ad6d923c090fbbe04b2a,627c6f95cec96ee9df710e2e,2022-05-11_22h23.30.489,classification_task,2021.2.3,MacIntel,55.55555556,627c6715c52fd12f31907bcf,,,,,,,,,,,,,,,,,,,,,,,l,1,1.329,"[""0.115"",""0.323"",""0.593"",""0.712""]","[1,1,0,1]",0,47,47,47,1,1,0,,,0,FALSE,,,,,,,,,,,,,,,,,,,,,,,,,,,,,,,
,5ed6ad6d923c090fbbe04b2a,627c6f95cec96ee9df710e2e,2022-05-11_22h23.30.489,classification_task,2021.2.3,MacIntel,55.55555556,627c6715c52fd12f31907bcf,,,,,,,,,,,,,,,,,,,,,,,a,1,1.092,"[""0.168"",""0.890"",""0.638"",""0.972""]","[1,0,1,1]",0,48,48,48,1,0,1,,,0,FALSE,,,,,,,,,,,,,,,,,,,,,,,,,,,,,,,
,5ed6ad6d923c090fbbe04b2a,627c6f95cec96ee9df710e2e,2022-05-11_22h23.30.489,classification_task,2021.2.3,MacIntel,55.55555556,627c6715c52fd12f31907bcf,,,,,,,,,,,,,,,,,,,,,,,a,0,1.291,"[""0.051"",""0.677"",""0.459"",""0.748""]","[1,0,1,1]",0,49,49,49,1,1,1,,,0,FALSE,,,,,,,,,,,,,,,,,,,,,,,,,,,,,,,
,5ed6ad6d923c090fbbe04b2a,627c6f95cec96ee9df710e2e,2022-05-11_22h23.30.489,classification_task,2021.2.3,MacIntel,55.55555556,627c6715c52fd12f31907bcf,,,,,,,,,,,,,,,,,,,,,,,a,1,1.186,"[""0.254"",""0.536"",""0.856"",""0.578""]","[1,1,1,0]",0,50,50,50,1,0,0,,,0,FALSE,,,,,,,,,,,,,,,,,,,,,,,,,,,,,,,
,5ed6ad6d923c090fbbe04b2a,627c6f95cec96ee9df710e2e,2022-05-11_22h23.30.489,classification_task,2021.2.3,MacIntel,55.55555556,627c6715c52fd12f31907bcf,,,,,,,,,,,,,,,,,,,,,,,a,0,2.009,"[""0.897"",""0.323"",""0.496"",""0.712""]","[0,1,1,1]",0,51,51,51,1,1,0,,,0,FALSE,,,,,,,,,,,,,,,,,,,,,,,,,,,,,,,
,5ed6ad6d923c090fbbe04b2a,627c6f95cec96ee9df710e2e,2022-05-11_22h23.30.489,classification_task,2021.2.3,MacIntel,55.55555556,627c6715c52fd12f31907bcf,,,,,,,,,,,,,,,,,,,,,,,l,0,2.069,"[""0.220"",""0.379"",""0.638"",""0.972""]","[0,1,1,1]",0,52,52,52,1,0,1,,,0,FALSE,,,,,,,,,,,,,,,,,,,,,,,,,,,,,,,
,5ed6ad6d923c090fbbe04b2a,627c6f95cec96ee9df710e2e,2022-05-11_22h23.30.489,classification_task,2021.2.3,MacIntel,55.55555556,627c6715c52fd12f31907bcf,,,,,,,,,,,,,,,,,,,,,,,a,0,1.782,"[""0.051"",""0.425"",""0.459"",""0.596""]","[1,1,1,0]",0,53,53,53,1,1,1,,,0,FALSE,,,,,,,,,,,,,,,,,,,,,,,,,,,,,,,
,5ed6ad6d923c090fbbe04b2a,627c6f95cec96ee9df710e2e,2022-05-11_22h23.30.489,classification_task,2021.2.3,MacIntel,55.55555556,627c6715c52fd12f31907bcf,,,,,,,,,,,,,,,,,,,,,,,l,1,0.971,"[""0.115"",""0.806"",""0.496"",""0.712""]","[1,0,1,1]",0,54,54,54,1,1,0,,,0,FALSE,,,,,,,,,,,,,,,,,,,,,,,,,,,,,,,
,5ed6ad6d923c090fbbe04b2a,627c6f95cec96ee9df710e2e,2022-05-11_22h23.30.489,classification_task,2021.2.3,MacIntel,55.55555556,627c6715c52fd12f31907bcf,,,,,,,,,,,,,,,,,,,,,,,a,0,1.102,"[""0.792"",""0.425"",""0.459"",""0.748""]","[0,1,1,1]",0,55,55,55,1,1,1,,,0,FALSE,,,,,,,,,,,,,,,,,,,,,,,,,,,,,,,
,5ed6ad6d923c090fbbe04b2a,627c6f95cec96ee9df710e2e,2022-05-11_22h23.30.489,classification_task,2021.2.3,MacIntel,55.55555556,627c6715c52fd12f31907bcf,,,,,,,,,,,,,,,,,,,,,,,l,1,1.216,"[""0.115"",""0.323"",""0.496"",""0.585""]","[1,1,1,0]",0,56,56,56,1,1,0,,,0,FALSE,,,,,,,,,,,,,,,,,,,,,,,,,,,,,,,
,5ed6ad6d923c090fbbe04b2a,627c6f95cec96ee9df710e2e,2022-05-11_22h23.30.489,classification_task,2021.2.3,MacIntel,55.55555556,627c6715c52fd12f31907bcf,,,,,,,,,,,,,,,,,,,,,,,a,1,0.965,"[""0.254"",""0.593"",""0.856"",""0.936""]","[1,0,1,1]",0,57,57,57,1,0,0,,,0,FALSE,,,,,,,,,,,,,,,,,,,,,,,,,,,,,,,
,5ed6ad6d923c090fbbe04b2a,627c6f95cec96ee9df710e2e,2022-05-11_22h23.30.489,classification_task,2021.2.3,MacIntel,55.55555556,627c6715c52fd12f31907bcf,,,,,,,,,,,,,,,,,,,,,,,a,1,2.319,"[""0.254"",""0.536"",""0.204"",""0.936""]","[1,1,0,1]",0,58,58,58,1,0,0,,,0,FALSE,,,,,,,,,,,,,,,,,,,,,,,,,,,,,,,
,5ed6ad6d923c090fbbe04b2a,627c6f95cec96ee9df710e2e,2022-05-11_22h23.30.489,classification_task,2021.2.3,MacIntel,55.55555556,627c6715c52fd12f31907bcf,,,,,,,,,,,,,,,,,,,,,,,l,1,0.669,"[""0.115"",""0.323"",""0.890"",""0.712""]","[1,1,0,1]",0,59,59,59,1,1,0,,,0,FALSE,,,,,,,,,,,,,,,,,,,,,,,,,,,,,,,
,5ed6ad6d923c090fbbe04b2a,627c6f95cec96ee9df710e2e,2022-05-11_22h23.30.489,classification_task,2021.2.3,MacIntel,55.55555556,627c6715c52fd12f31907bcf,,,,,,,,,,,,,,,,,,,,,,,a,0,1.902,"[""0.051"",""0.425"",""0.677"",""0.748""]","[1,1,0,1]",0,60,60,60,1,1,1,,,0,FALSE,,,,,,,,,,,,,,,,,,,,,,,,,,,,,,,
,5ed6ad6d923c090fbbe04b2a,627c6f95cec96ee9df710e2e,2022-05-11_22h23.30.489,classification_task,2021.2.3,MacIntel,55.55555556,627c6715c52fd12f31907bcf,,,,,,,,,,,,,,,,,,,,,,,a,1,1.81,"[""0.897"",""0.536"",""0.856"",""0.936""]","[0,1,1,1]",0,61,61,61,1,0,0,,,0,FALSE,,,,,,,,,,,,,,,,,,,,,,,,,,,,,,,
,5ed6ad6d923c090fbbe04b2a,627c6f95cec96ee9df710e2e,2022-05-11_22h23.30.489,classification_task,2021.2.3,MacIntel,55.55555556,627c6715c52fd12f31907bcf,,,,,,,,,,,,,,,,,,,,,,,a,1,2.22,"[""0.168"",""0.379"",""0.897"",""0.972""]","[1,1,0,1]",0,62,62,62,1,0,1,,,0,FALSE,,,,,,,,,,,,,,,,,,,,,,,,,,,,,,,
,5ed6ad6d923c090fbbe04b2a,627c6f95cec96ee9df710e2e,2022-05-11_22h23.30.489,classification_task,2021.2.3,MacIntel,55.55555556,627c6715c52fd12f31907bcf,,,,,,,,,,,,,,,,,,,,,,,a,1,0.866,"[""0.168"",""0.379"",""0.638"",""0.806""]","[1,1,1,0]",0,63,63,63,1,0,1,,,0,FALSE,,,,,,,,,,,,,,,,,,,,,,,,,,,,,,,
,5ed6ad6d923c090fbbe04b2a,627c6f95cec96ee9df710e2e,2022-05-11_22h23.30.489,classification_task,2021.2.3,MacIntel,55.55555556,627c6715c52fd12f31907bcf,,,,,,,,,,,,,,,,,,,,,,,,,,,,,,,,,,,,,,,0, ,,0,7.579365079,357.606,0,0,0,0,1,2,1,,,,,,,,,,,,,,,,,,
,5ed6ad6d923c090fbbe04b2a,627c6f95cec96ee9df710e2e,2022-05-11_22h23.30.489,classification_task,2021.2.3,MacIntel,55.55555556,627c6715c52fd12f31907bcf,,,,,,,,,,,,,,,,,,,,,,,,,,,,,,,,,,,,,,,1,  ,,0,9.265873016,364.859,0,0,0,0,1,2,1,,,,,,,,,,,,,,,,,,
,5ed6ad6d923c090fbbe04b2a,627c6f95cec96ee9df710e2e,2022-05-11_22h23.30.489,classification_task,2021.2.3,MacIntel,55.55555556,627c6715c52fd12f31907bcf,,,,,,,,,,,,,,,,,,,,,,,,,,,,,,,,,,,,,,,2,  ,,0,0,369.729,0,0,0,0,1,2,1,,,,,,,,,,,,,,,,,,
,5ed6ad6d923c090fbbe04b2a,627c6f95cec96ee9df710e2e,2022-05-11_22h23.30.489,classification_task,2021.2.3,MacIntel,55.55555556,627c6715c52fd12f31907bcf,,,,,,,,,,,,,,,,,,,,,,,,,,,,,,,,,,,,,,,,,,,,,0,0,0,0,1,,1,,,,,,,,,,,,,,,,,,
,5ed6ad6d923c090fbbe04b2a,627c6f95cec96ee9df710e2e,2022-05-11_22h23.30.489,classification_task,2021.2.3,MacIntel,55.55555556,627c6715c52fd12f31907bcf,,,,,,,,,,,,,,,,,,,,,space,4.014,a,1,2.731,"[""0.254"",""0.536"",""0.897"",""0.936""]","[1,1,0,1]",0,0,0,0,1,0,0,,,0,FALSE,,,,,,,,,,,,,,,,,,,,,,,,,,,,,,,
,5ed6ad6d923c090fbbe04b2a,627c6f95cec96ee9df710e2e,2022-05-11_22h23.30.489,classification_task,2021.2.3,MacIntel,55.55555556,627c6715c52fd12f31907bcf,,,,,,,,,,,,,,,,,,,,,,,a,1,0.785,"[""0.254"",""0.536"",""0.856"",""0.890""]","[1,1,1,0]",0,1,1,1,1,0,0,,,0,FALSE,,,,,,,,,,,,,,,,,,,,,,,,,,,,,,,
,5ed6ad6d923c090fbbe04b2a,627c6f95cec96ee9df710e2e,2022-05-11_22h23.30.489,classification_task,2021.2.3,MacIntel,55.55555556,627c6715c52fd12f31907bcf,,,,,,,,,,,,,,,,,,,,,,,a,1,1.883,"[""0.596"",""0.379"",""0.638"",""0.972""]","[0,1,1,1]",0,2,2,2,1,0,1,,,0,FALSE,,,,,,,,,,,,,,,,,,,,,,,,,,,,,,,
,5ed6ad6d923c090fbbe04b2a,627c6f95cec96ee9df710e2e,2022-05-11_22h23.30.489,classification_task,2021.2.3,MacIntel,55.55555556,627c6715c52fd12f31907bcf,,,,,,,,,,,,,,,,,,,,,,,l,1,0.977,"[""0.115"",""0.323"",""0.204"",""0.712""]","[1,1,0,1]",0,3,3,3,1,1,0,,,0,FALSE,,,,,,,,,,,,,,,,,,,,,,,,,,,,,,,
,5ed6ad6d923c090fbbe04b2a,627c6f95cec96ee9df710e2e,2022-05-11_22h23.30.489,classification_task,2021.2.3,MacIntel,55.55555556,627c6715c52fd12f31907bcf,,,,,,,,,,,,,,,,,,,,,,,a,0,1.118,"[""0.051"",""0.425"",""0.459"",""0.677""]","[1,1,1,0]",0,4,4,4,1,1,1,,,0,FALSE,,,,,,,,,,,,,,,,,,,,,,,,,,,,,,,
,5ed6ad6d923c090fbbe04b2a,627c6f95cec96ee9df710e2e,2022-05-11_22h23.30.489,classification_task,2021.2.3,MacIntel,55.55555556,627c6715c52fd12f31907bcf,,,,,,,,,,,,,,,,,,,,,,,a,1,1.221,"[""0.254"",""0.204"",""0.856"",""0.936""]","[1,0,1,1]",0,5,5,5,1,0,0,,,0,FALSE,,,,,,,,,,,,,,,,,,,,,,,,,,,,,,,
,5ed6ad6d923c090fbbe04b2a,627c6f95cec96ee9df710e2e,2022-05-11_22h23.30.489,classification_task,2021.2.3,MacIntel,55.55555556,627c6715c52fd12f31907bcf,,,,,,,,,,,,,,,,,,,,,,,a,0,1.278,"[""0.588"",""0.323"",""0.496"",""0.712""]","[0,1,1,1]",0,6,6,6,1,1,0,,,0,FALSE,,,,,,,,,,,,,,,,,,,,,,,,,,,,,,,
,5ed6ad6d923c090fbbe04b2a,627c6f95cec96ee9df710e2e,2022-05-11_22h23.30.489,classification_task,2021.2.3,MacIntel,55.55555556,627c6715c52fd12f31907bcf,,,,,,,,,,,,,,,,,,,,,,,l,1,1.012,"[""0.115"",""0.323"",""0.496"",""0.578""]","[1,1,1,0]",0,7,7,7,1,1,0,,,0,FALSE,,,,,,,,,,,,,,,,,,,,,,,,,,,,,,,
,5ed6ad6d923c090fbbe04b2a,627c6f95cec96ee9df710e2e,2022-05-11_22h23.30.489,classification_task,2021.2.3,MacIntel,55.55555556,627c6715c52fd12f31907bcf,,,,,,,,,,,,,,,,,,,,,,,l,1,0.693,"[""0.115"",""0.890"",""0.496"",""0.712""]","[1,0,1,1]",0,8,8,8,1,1,0,,,0,FALSE,,,,,,,,,,,,,,,,,,,,,,,,,,,,,,,
,5ed6ad6d923c090fbbe04b2a,627c6f95cec96ee9df710e2e,2022-05-11_22h23.30.489,classification_task,2021.2.3,MacIntel,55.55555556,627c6715c52fd12f31907bcf,,,,,,,,,,,,,,,,,,,,,,,a,0,1.18,"[""0.585"",""0.425"",""0.459"",""0.748""]","[0,1,1,1]",0,9,9,9,1,1,1,,,0,FALSE,,,,,,,,,,,,,,,,,,,,,,,,,,,,,,,
,5ed6ad6d923c090fbbe04b2a,627c6f95cec96ee9df710e2e,2022-05-11_22h23.30.489,classification_task,2021.2.3,MacIntel,55.55555556,627c6715c52fd12f31907bcf,,,,,,,,,,,,,,,,,,,,,,,a,1,1.243,"[""0.593"",""0.536"",""0.856"",""0.936""]","[0,1,1,1]",0,10,10,10,1,0,0,,,0,FALSE,,,,,,,,,,,,,,,,,,,,,,,,,,,,,,,
,5ed6ad6d923c090fbbe04b2a,627c6f95cec96ee9df710e2e,2022-05-11_22h23.30.489,classification_task,2021.2.3,MacIntel,55.55555556,627c6715c52fd12f31907bcf,,,,,,,,,,,,,,,,,,,,,,,a,0,1.236,"[""0.051"",""0.578"",""0.459"",""0.748""]","[1,0,1,1]",0,11,11,11,1,1,1,,,0,FALSE,,,,,,,,,,,,,,,,,,,,,,,,,,,,,,,
,5ed6ad6d923c090fbbe04b2a,627c6f95cec96ee9df710e2e,2022-05-11_22h23.30.489,classification_task,2021.2.3,MacIntel,55.55555556,627c6715c52fd12f31907bcf,,,,,,,,,,,,,,,,,,,,,,,a,1,1.201,"[""0.168"",""0.890"",""0.638"",""0.972""]","[1,0,1,1]",0,12,12,12,1,0,1,,,0,FALSE,,,,,,,,,,,,,,,,,,,,,,,,,,,,,,,
,5ed6ad6d923c090fbbe04b2a,627c6f95cec96ee9df710e2e,2022-05-11_22h23.30.489,classification_task,2021.2.3,MacIntel,55.55555556,627c6715c52fd12f31907bcf,,,,,,,,,,,,,,,,,,,,,,,l,1,1.035,"[""0.051"",""0.425"",""0.593"",""0.748""]","[1,1,0,1]",0,13,13,13,1,1,1,,,0,FALSE,,,,,,,,,,,,,,,,,,,,,,,,,,,,,,,
,5ed6ad6d923c090fbbe04b2a,627c6f95cec96ee9df710e2e,2022-05-11_22h23.30.489,classification_task,2021.2.3,MacIntel,55.55555556,627c6715c52fd12f31907bcf,,,,,,,,,,,,,,,,,,,,,,,a,1,1.106,"[""0.168"",""0.379"",""0.593"",""0.972""]","[1,1,0,1]",0,14,14,14,1,0,1,,,0,FALSE,,,,,,,,,,,,,,,,,,,,,,,,,,,,,,,
,5ed6ad6d923c090fbbe04b2a,627c6f95cec96ee9df710e2e,2022-05-11_22h23.30.489,classification_task,2021.2.3,MacIntel,55.55555556,627c6715c52fd12f31907bcf,,,,,,,,,,,,,,,,,,,,,,,a,1,1.137,"[""0.168"",""0.379"",""0.638"",""0.593""]","[1,1,1,0]",0,15,15,15,1,0,1,,,0,FALSE,,,,,,,,,,,,,,,,,,,,,,,,,,,,,,,
,5ed6ad6d923c090fbbe04b2a,627c6f95cec96ee9df710e2e,2022-05-11_22h23.30.489,classification_task,2021.2.3,MacIntel,55.55555556,627c6715c52fd12f31907bcf,,,,,,,,,,,,,,,,,,,,,,,a,1,1.098,"[""0.812"",""0.379"",""0.638"",""0.972""]","[0,1,1,1]",0,16,16,16,1,0,1,,,0,FALSE,,,,,,,,,,,,,,,,,,,,,,,,,,,,,,,
,5ed6ad6d923c090fbbe04b2a,627c6f95cec96ee9df710e2e,2022-05-11_22h23.30.489,classification_task,2021.2.3,MacIntel,55.55555556,627c6715c52fd12f31907bcf,,,,,,,,,,,,,,,,,,,,,,,a,0,1.24,"[""0.051"",""0.425"",""0.459"",""0.204""]","[1,1,1,0]",0,17,17,17,1,1,1,,,0,FALSE,,,,,,,,,,,,,,,,,,,,,,,,,,,,,,,
,5ed6ad6d923c090fbbe04b2a,627c6f95cec96ee9df710e2e,2022-05-11_22h23.30.489,classification_task,2021.2.3,MacIntel,55.55555556,627c6715c52fd12f31907bcf,,,,,,,,,,,,,,,,,,,,,,,a,1,1.45,"[""0.168"",""0.578"",""0.638"",""0.972""]","[1,0,1,1]",0,18,18,18,1,0,1,,,0,FALSE,,,,,,,,,,,,,,,,,,,,,,,,,,,,,,,
,5ed6ad6d923c090fbbe04b2a,627c6f95cec96ee9df710e2e,2022-05-11_22h23.30.489,classification_task,2021.2.3,MacIntel,55.55555556,627c6715c52fd12f31907bcf,,,,,,,,,,,,,,,,,,,,,,,a,1,0.725,"[""0.168"",""0.379"",""0.677"",""0.972""]","[1,1,0,1]",0,19,19,19,1,0,1,,,0,FALSE,,,,,,,,,,,,,,,,,,,,,,,,,,,,,,,
,5ed6ad6d923c090fbbe04b2a,627c6f95cec96ee9df710e2e,2022-05-11_22h23.30.489,classification_task,2021.2.3,MacIntel,55.55555556,627c6715c52fd12f31907bcf,,,,,,,,,,,,,,,,,,,,,,,l,1,1.82,"[""0.115"",""0.323"",""0.806"",""0.712""]","[1,1,0,1]",0,20,20,20,1,1,0,,,0,FALSE,,,,,,,,,,,,,,,,,,,,,,,,,,,,,,,
,5ed6ad6d923c090fbbe04b2a,627c6f95cec96ee9df710e2e,2022-05-11_22h23.30.489,classification_task,2021.2.3,MacIntel,55.55555556,627c6715c52fd12f31907bcf,,,,,,,,,,,,,,,,,,,,,,,a,1,2.061,"[""0.585"",""0.536"",""0.856"",""0.936""]","[0,1,1,1]",0,21,21,21,1,0,0,,,0,FALSE,,,,,,,,,,,,,,,,,,,,,,,,,,,,,,,
,5ed6ad6d923c090fbbe04b2a,627c6f95cec96ee9df710e2e,2022-05-11_22h23.30.489,classification_task,2021.2.3,MacIntel,55.55555556,627c6715c52fd12f31907bcf,,,,,,,,,,,,,,,,,,,,,,,a,0,1,"[""0.593"",""0.323"",""0.496"",""0.712""]","[0,1,1,1]",0,22,22,22,1,1,0,,,0,FALSE,,,,,,,,,,,,,,,,,,,,,,,,,,,,,,,
,5ed6ad6d923c090fbbe04b2a,627c6f95cec96ee9df710e2e,2022-05-11_22h23.30.489,classification_task,2021.2.3,MacIntel,55.55555556,627c6715c52fd12f31907bcf,,,,,,,,,,,,,,,,,,,,,,,l,1,1.142,"[""0.115"",""0.323"",""0.496"",""0.578""]","[1,1,1,0]",0,23,23,23,1,1,0,,,0,FALSE,,,,,,,,,,,,,,,,,,,,,,,,,,,,,,,
,5ed6ad6d923c090fbbe04b2a,627c6f95cec96ee9df710e2e,2022-05-11_22h23.30.489,classification_task,2021.2.3,MacIntel,55.55555556,627c6715c52fd12f31907bcf,,,,,,,,,,,,,,,,,,,,,,,a,0,1.035,"[""0.051"",""0.425"",""0.897"",""0.748""]","[1,1,0,1]",0,24,24,24,1,1,1,,,0,FALSE,,,,,,,,,,,,,,,,,,,,,,,,,,,,,,,
,5ed6ad6d923c090fbbe04b2a,627c6f95cec96ee9df710e2e,2022-05-11_22h23.30.489,classification_task,2021.2.3,MacIntel,55.55555556,627c6715c52fd12f31907bcf,,,,,,,,,,,,,,,,,,,,,,,a,1,1.355,"[""0.168"",""0.379"",""0.638"",""0.593""]","[1,1,1,0]",0,25,25,25,1,0,1,,,0,FALSE,,,,,,,,,,,,,,,,,,,,,,,,,,,,,,,
,5ed6ad6d923c090fbbe04b2a,627c6f95cec96ee9df710e2e,2022-05-11_22h23.30.489,classification_task,2021.2.3,MacIntel,55.55555556,627c6715c52fd12f31907bcf,,,,,,,,,,,,,,,,,,,,,,,a,0,1.48,"[""0.806"",""0.425"",""0.459"",""0.748""]","[0,1,1,1]",0,26,26,26,1,1,1,,,0,FALSE,,,,,,,,,,,,,,,,,,,,,,,,,,,,,,,
,5ed6ad6d923c090fbbe04b2a,627c6f95cec96ee9df710e2e,2022-05-11_22h23.30.489,classification_task,2021.2.3,MacIntel,55.55555556,627c6715c52fd12f31907bcf,,,,,,,,,,,,,,,,,,,,,,,a,1,1.069,"[""0.254"",""0.536"",""0.856"",""0.588""]","[1,1,1,0]",0,27,27,27,1,0,0,,,0,FALSE,,,,,,,,,,,,,,,,,,,,,,,,,,,,,,,
,5ed6ad6d923c090fbbe04b2a,627c6f95cec96ee9df710e2e,2022-05-11_22h23.30.489,classification_task,2021.2.3,MacIntel,55.55555556,627c6715c52fd12f31907bcf,,,,,,,,,,,,,,,,,,,,,,,a,1,0.687,"[""0.254"",""0.536"",""0.574"",""0.936""]","[1,1,0,1]",0,28,28,28,1,0,0,,,0,FALSE,,,,,,,,,,,,,,,,,,,,,,,,,,,,,,,
,5ed6ad6d923c090fbbe04b2a,627c6f95cec96ee9df710e2e,2022-05-11_22h23.30.489,classification_task,2021.2.3,MacIntel,55.55555556,627c6715c52fd12f31907bcf,,,,,,,,,,,,,,,,,,,,,,,a,0,1.207,"[""0.051"",""0.806"",""0.459"",""0.748""]","[1,0,1,1]",0,29,29,29,1,1,1,,,0,FALSE,,,,,,,,,,,,,,,,,,,,,,,,,,,,,,,
,5ed6ad6d923c090fbbe04b2a,627c6f95cec96ee9df710e2e,2022-05-11_22h23.30.489,classification_task,2021.2.3,MacIntel,55.55555556,627c6715c52fd12f31907bcf,,,,,,,,,,,,,,,,,,,,,,,a,1,0.897,"[""0.254"",""0.574"",""0.856"",""0.936""]","[1,0,1,1]",0,30,30,30,1,0,0,,,0,FALSE,,,,,,,,,,,,,,,,,,,,,,,,,,,,,,,
,5ed6ad6d923c090fbbe04b2a,627c6f95cec96ee9df710e2e,2022-05-11_22h23.30.489,classification_task,2021.2.3,MacIntel,55.55555556,627c6715c52fd12f31907bcf,,,,,,,,,,,,,,,,,,,,,,,l,1,0.647,"[""0.115"",""0.204"",""0.496"",""0.712""]","[1,0,1,1]",0,31,31,31,1,1,0,,,0,FALSE,,,,,,,,,,,,,,,,,,,,,,,,,,,,,,,
,5ed6ad6d923c090fbbe04b2a,627c6f95cec96ee9df710e2e,2022-05-11_22h23.30.489,classification_task,2021.2.3,MacIntel,55.55555556,627c6715c52fd12f31907bcf,,,,,,,,,,,,,,,,,,,,,,,a,1,1.225,"[""0.677"",""0.379"",""0.638"",""0.972""]","[0,1,1,1]",0,32,32,32,1,0,1,,,0,FALSE,,,,,,,,,,,,,,,,,,,,,,,,,,,,,,,
,5ed6ad6d923c090fbbe04b2a,627c6f95cec96ee9df710e2e,2022-05-11_22h23.30.489,classification_task,2021.2.3,MacIntel,55.55555556,627c6715c52fd12f31907bcf,,,,,,,,,,,,,,,,,,,,,,,l,1,0.829,"[""0.051"",""0.593"",""0.459"",""0.748""]","[1,0,1,1]",0,33,33,33,1,1,1,,,0,FALSE,,,,,,,,,,,,,,,,,,,,,,,,,,,,,,,
,5ed6ad6d923c090fbbe04b2a,627c6f95cec96ee9df710e2e,2022-05-11_22h23.30.489,classification_task,2021.2.3,MacIntel,55.55555556,627c6715c52fd12f31907bcf,,,,,,,,,,,,,,,,,,,,,,,a,0,1.004,"[""0.220"",""0.323"",""0.496"",""0.712""]","[0,1,1,1]",0,34,34,34,1,1,0,,,0,FALSE,,,,,,,,,,,,,,,,,,,,,,,,,,,,,,,
,5ed6ad6d923c090fbbe04b2a,627c6f95cec96ee9df710e2e,2022-05-11_22h23.30.489,classification_task,2021.2.3,MacIntel,55.55555556,627c6715c52fd12f31907bcf,,,,,,,,,,,,,,,,,,,,,,,a,0,1.158,"[""0.051"",""0.425"",""0.677"",""0.748""]","[1,1,0,1]",0,35,35,35,1,1,1,,,0,FALSE,,,,,,,,,,,,,,,,,,,,,,,,,,,,,,,
,5ed6ad6d923c090fbbe04b2a,627c6f95cec96ee9df710e2e,2022-05-11_22h23.30.489,classification_task,2021.2.3,MacIntel,55.55555556,627c6715c52fd12f31907bcf,,,,,,,,,,,,,,,,,,,,,,,l,1,0.733,"[""0.115"",""0.323"",""0.890"",""0.712""]","[1,1,0,1]",0,36,36,36,1,1,0,,,0,FALSE,,,,,,,,,,,,,,,,,,,,,,,,,,,,,,,
,5ed6ad6d923c090fbbe04b2a,627c6f95cec96ee9df710e2e,2022-05-11_22h23.30.489,classification_task,2021.2.3,MacIntel,55.55555556,627c6715c52fd12f31907bcf,,,,,,,,,,,,,,,,,,,,,,,l,1,1.092,"[""0.115"",""0.323"",""0.496"",""0.585""]","[1,1,1,0]",0,37,37,37,1,1,0,,,0,FALSE,,,,,,,,,,,,,,,,,,,,,,,,,,,,,,,
,5ed6ad6d923c090fbbe04b2a,627c6f95cec96ee9df710e2e,2022-05-11_22h23.30.489,classification_task,2021.2.3,MacIntel,55.55555556,627c6715c52fd12f31907bcf,,,,,,,,,,,,,,,,,,,,,,,a,1,1.205,"[""0.254"",""0.677"",""0.856"",""0.936""]","[1,0,1,1]",0,38,38,38,1,0,0,,,0,FALSE,,,,,,,,,,,,,,,,,,,,,,,,,,,,,,,
,5ed6ad6d923c090fbbe04b2a,627c6f95cec96ee9df710e2e,2022-05-11_22h23.30.489,classification_task,2021.2.3,MacIntel,55.55555556,627c6715c52fd12f31907bcf,,,,,,,,,,,,,,,,,,,,,,,a,1,1.259,"[""0.168"",""0.379"",""0.638"",""0.593""]","[1,1,1,0]",0,39,39,39,1,0,1,,,0,FALSE,,,,,,,,,,,,,,,,,,,,,,,,,,,,,,,
,5ed6ad6d923c090fbbe04b2a,627c6f95cec96ee9df710e2e,2022-05-11_22h23.30.489,classification_task,2021.2.3,MacIntel,55.55555556,627c6715c52fd12f31907bcf,,,,,,,,,,,,,,,,,,,,,,,l,1,1.36,"[""0.051"",""0.425"",""0.459"",""0.792""]","[1,1,1,0]",0,40,40,40,1,1,1,,,0,FALSE,,,,,,,,,,,,,,,,,,,,,,,,,,,,,,,
,5ed6ad6d923c090fbbe04b2a,627c6f95cec96ee9df710e2e,2022-05-11_22h23.30.489,classification_task,2021.2.3,MacIntel,55.55555556,627c6715c52fd12f31907bcf,,,,,,,,,,,,,,,,,,,,,,,a,1,0.911,"[""0.254"",""0.536"",""0.856"",""0.677""]","[1,1,1,0]",0,41,41,41,1,0,0,,,0,FALSE,,,,,,,,,,,,,,,,,,,,,,,,,,,,,,,
,5ed6ad6d923c090fbbe04b2a,627c6f95cec96ee9df710e2e,2022-05-11_22h23.30.489,classification_task,2021.2.3,MacIntel,55.55555556,627c6715c52fd12f31907bcf,,,,,,,,,,,,,,,,,,,,,,,l,1,0.839,"[""0.115"",""0.677"",""0.496"",""0.712""]","[1,0,1,1]",0,42,42,42,1,1,0,,,0,FALSE,,,,,,,,,,,,,,,,,,,,,,,,,,,,,,,
,5ed6ad6d923c090fbbe04b2a,627c6f95cec96ee9df710e2e,2022-05-11_22h23.30.489,classification_task,2021.2.3,MacIntel,55.55555556,627c6715c52fd12f31907bcf,,,,,,,,,,,,,,,,,,,,,,,a,1,1.023,"[""0.168"",""0.379"",""0.578"",""0.972""]","[1,1,0,1]",0,43,43,43,1,0,1,,,0,FALSE,,,,,,,,,,,,,,,,,,,,,,,,,,,,,,,
,5ed6ad6d923c090fbbe04b2a,627c6f95cec96ee9df710e2e,2022-05-11_22h23.30.489,classification_task,2021.2.3,MacIntel,55.55555556,627c6715c52fd12f31907bcf,,,,,,,,,,,,,,,,,,,,,,,l,1,1.399,"[""0.596"",""0.425"",""0.459"",""0.748""]","[0,1,1,1]",0,44,44,44,1,1,1,,,0,FALSE,,,,,,,,,,,,,,,,,,,,,,,,,,,,,,,
,5ed6ad6d923c090fbbe04b2a,627c6f95cec96ee9df710e2e,2022-05-11_22h23.30.489,classification_task,2021.2.3,MacIntel,55.55555556,627c6715c52fd12f31907bcf,,,,,,,,,,,,,,,,,,,,,,,a,1,1.191,"[""0.677"",""0.536"",""0.856"",""0.936""]","[0,1,1,1]",0,45,45,45,1,0,0,,,0,FALSE,,,,,,,,,,,,,,,,,,,,,,,,,,,,,,,
,5ed6ad6d923c090fbbe04b2a,627c6f95cec96ee9df710e2e,2022-05-11_22h23.30.489,classification_task,2021.2.3,MacIntel,55.55555556,627c6715c52fd12f31907bcf,,,,,,,,,,,,,,,,,,,,,,,a,1,2.106,"[""0.254"",""0.536"",""0.677"",""0.936""]","[1,1,0,1]",0,46,46,46,1,0,0,,,0,FALSE,,,,,,,,,,,,,,,,,,,,,,,,,,,,,,,
,5ed6ad6d923c090fbbe04b2a,627c6f95cec96ee9df710e2e,2022-05-11_22h23.30.489,classification_task,2021.2.3,MacIntel,55.55555556,627c6715c52fd12f31907bcf,,,,,,,,,,,,,,,,,,,,,,,a,1,0.908,"[""0.168"",""0.792"",""0.638"",""0.972""]","[1,0,1,1]",0,47,47,47,1,0,1,,,0,FALSE,,,,,,,,,,,,,,,,,,,,,,,,,,,,,,,
,5ed6ad6d923c090fbbe04b2a,627c6f95cec96ee9df710e2e,2022-05-11_22h23.30.489,classification_task,2021.2.3,MacIntel,55.55555556,627c6715c52fd12f31907bcf,,,,,,,,,,,,,,,,,,,,,,,a,1,0.883,"[""0.254"",""0.536"",""0.856"",""0.806""]","[1,1,1,0]",0,48,48,48,1,0,0,,,0,FALSE,,,,,,,,,,,,,,,,,,,,,,,,,,,,,,,
,5ed6ad6d923c090fbbe04b2a,627c6f95cec96ee9df710e2e,2022-05-11_22h23.30.489,classification_task,2021.2.3,MacIntel,55.55555556,627c6715c52fd12f31907bcf,,,,,,,,,,,,,,,,,,,,,,,l,0,1.665,"[""0.585"",""0.536"",""0.856"",""0.936""]","[0,1,1,1]",0,49,49,49,1,0,0,,,0,FALSE,,,,,,,,,,,,,,,,,,,,,,,,,,,,,,,
,5ed6ad6d923c090fbbe04b2a,627c6f95cec96ee9df710e2e,2022-05-11_22h23.30.489,classification_task,2021.2.3,MacIntel,55.55555556,627c6715c52fd12f31907bcf,,,,,,,,,,,,,,,,,,,,,,,a,0,1.682,"[""0.220"",""0.323"",""0.496"",""0.712""]","[0,1,1,1]",0,50,50,50,1,1,0,,,0,FALSE,,,,,,,,,,,,,,,,,,,,,,,,,,,,,,,
,5ed6ad6d923c090fbbe04b2a,627c6f95cec96ee9df710e2e,2022-05-11_22h23.30.489,classification_task,2021.2.3,MacIntel,55.55555556,627c6715c52fd12f31907bcf,,,,,,,,,,,,,,,,,,,,,,,a,1,1.063,"[""0.168"",""0.578"",""0.638"",""0.972""]","[1,0,1,1]",0,51,51,51,1,0,1,,,0,FALSE,,,,,,,,,,,,,,,,,,,,,,,,,,,,,,,
,5ed6ad6d923c090fbbe04b2a,627c6f95cec96ee9df710e2e,2022-05-11_22h23.30.489,classification_task,2021.2.3,MacIntel,55.55555556,627c6715c52fd12f31907bcf,,,,,,,,,,,,,,,,,,,,,,,a,1,1.226,"[""0.168"",""0.379"",""0.638"",""0.593""]","[1,1,1,0]",0,52,52,52,1,0,1,,,0,FALSE,,,,,,,,,,,,,,,,,,,,,,,,,,,,,,,
,5ed6ad6d923c090fbbe04b2a,627c6f95cec96ee9df710e2e,2022-05-11_22h23.30.489,classification_task,2021.2.3,MacIntel,55.55555556,627c6715c52fd12f31907bcf,,,,,,,,,,,,,,,,,,,,,,,a,1,1.096,"[""0.585"",""0.379"",""0.638"",""0.972""]","[0,1,1,1]",0,53,53,53,1,0,1,,,0,FALSE,,,,,,,,,,,,,,,,,,,,,,,,,,,,,,,
,5ed6ad6d923c090fbbe04b2a,627c6f95cec96ee9df710e2e,2022-05-11_22h23.30.489,classification_task,2021.2.3,MacIntel,55.55555556,627c6715c52fd12f31907bcf,,,,,,,,,,,,,,,,,,,,,,,l,1,0.843,"[""0.115"",""0.323"",""0.806"",""0.712""]","[1,1,0,1]",0,54,54,54,1,1,0,,,0,FALSE,,,,,,,,,,,,,,,,,,,,,,,,,,,,,,,
,5ed6ad6d923c090fbbe04b2a,627c6f95cec96ee9df710e2e,2022-05-11_22h23.30.489,classification_task,2021.2.3,MacIntel,55.55555556,627c6715c52fd12f31907bcf,,,,,,,,,,,,,,,,,,,,,,,l,1,1.094,"[""0.792"",""0.425"",""0.459"",""0.748""]","[0,1,1,1]",0,55,55,55,1,1,1,,,0,FALSE,,,,,,,,,,,,,,,,,,,,,,,,,,,,,,,
,5ed6ad6d923c090fbbe04b2a,627c6f95cec96ee9df710e2e,2022-05-11_22h23.30.489,classification_task,2021.2.3,MacIntel,55.55555556,627c6715c52fd12f31907bcf,,,,,,,,,,,,,,,,,,,,,,,a,1,0.923,"[""0.254"",""0.792"",""0.856"",""0.936""]","[1,0,1,1]",0,56,56,56,1,0,0,,,0,FALSE,,,,,,,,,,,,,,,,,,,,,,,,,,,,,,,
,5ed6ad6d923c090fbbe04b2a,627c6f95cec96ee9df710e2e,2022-05-11_22h23.30.489,classification_task,2021.2.3,MacIntel,55.55555556,627c6715c52fd12f31907bcf,,,,,,,,,,,,,,,,,,,,,,,l,1,1.675,"[""0.051"",""0.220"",""0.459"",""0.748""]","[1,0,1,1]",0,57,57,57,1,1,1,,,0,FALSE,,,,,,,,,,,,,,,,,,,,,,,,,,,,,,,
,5ed6ad6d923c090fbbe04b2a,627c6f95cec96ee9df710e2e,2022-05-11_22h23.30.489,classification_task,2021.2.3,MacIntel,55.55555556,627c6715c52fd12f31907bcf,,,,,,,,,,,,,,,,,,,,,,,l,1,1.233,"[""0.051"",""0.425"",""0.459"",""0.806""]","[1,1,1,0]",0,58,58,58,1,1,1,,,0,FALSE,,,,,,,,,,,,,,,,,,,,,,,,,,,,,,,
,5ed6ad6d923c090fbbe04b2a,627c6f95cec96ee9df710e2e,2022-05-11_22h23.30.489,classification_task,2021.2.3,MacIntel,55.55555556,627c6715c52fd12f31907bcf,,,,,,,,,,,,,,,,,,,,,,,l,1,1.513,"[""0.051"",""0.425"",""0.897"",""0.748""]","[1,1,0,1]",0,59,59,59,1,1,1,,,0,FALSE,,,,,,,,,,,,,,,,,,,,,,,,,,,,,,,
,5ed6ad6d923c090fbbe04b2a,627c6f95cec96ee9df710e2e,2022-05-11_22h23.30.489,classification_task,2021.2.3,MacIntel,55.55555556,627c6715c52fd12f31907bcf,,,,,,,,,,,,,,,,,,,,,,,l,1,0.712,"[""0.115"",""0.323"",""0.496"",""0.204""]","[1,1,1,0]",0,60,60,60,1,1,0,,,0,FALSE,,,,,,,,,,,,,,,,,,,,,,,,,,,,,,,
,5ed6ad6d923c090fbbe04b2a,627c6f95cec96ee9df710e2e,2022-05-11_22h23.30.489,classification_task,2021.2.3,MacIntel,55.55555556,627c6715c52fd12f31907bcf,,,,,,,,,,,,,,,,,,,,,,,a,1,0.85,"[""0.254"",""0.536"",""0.578"",""0.936""]","[1,1,0,1]",0,61,61,61,1,0,0,,,0,FALSE,,,,,,,,,,,,,,,,,,,,,,,,,,,,,,,
,5ed6ad6d923c090fbbe04b2a,627c6f95cec96ee9df710e2e,2022-05-11_22h23.30.489,classification_task,2021.2.3,MacIntel,55.55555556,627c6715c52fd12f31907bcf,,,,,,,,,,,,,,,,,,,,,,,l,1,0.771,"[""0.115"",""0.677"",""0.496"",""0.712""]","[1,0,1,1]",0,62,62,62,1,1,0,,,0,FALSE,,,,,,,,,,,,,,,,,,,,,,,,,,,,,,,
,5ed6ad6d923c090fbbe04b2a,627c6f95cec96ee9df710e2e,2022-05-11_22h23.30.489,classification_task,2021.2.3,MacIntel,55.55555556,627c6715c52fd12f31907bcf,,,,,,,,,,,,,,,,,,,,,,,a,1,1.581,"[""0.168"",""0.379"",""0.806"",""0.972""]","[1,1,0,1]",0,63,63,63,1,0,1,,,0,FALSE,,,,,,,,,,,,,,,,,,,,,,,,,,,,,,,
,5ed6ad6d923c090fbbe04b2a,627c6f95cec96ee9df710e2e,2022-05-11_22h23.30.489,classification_task,2021.2.3,MacIntel,55.55555556,627c6715c52fd12f31907bcf,,,,,,,,,,,,,,,,,,,,,,,,,,,,,,,,,,,,,,,0, ,,0,1.825396825,151.466,0,1,1,1,1,2,2,,,,,,,,,,,,,,,,,,
,5ed6ad6d923c090fbbe04b2a,627c6f95cec96ee9df710e2e,2022-05-11_22h23.30.489,classification_task,2021.2.3,MacIntel,55.55555556,627c6715c52fd12f31907bcf,,,,,,,,,,,,,,,,,,,,,,,,,,,,,,,,,,,,,,,1,  ,,0,8.538359788,154.37,0,1,1,1,1,2,2,,,,,,,,,,,,,,,,,,
,5ed6ad6d923c090fbbe04b2a,627c6f95cec96ee9df710e2e,2022-05-11_22h23.30.489,classification_task,2021.2.3,MacIntel,55.55555556,627c6715c52fd12f31907bcf,,,,,,,,,,,,,,,,,,,,,,,,,,,,,,,,,,,,,,,2,  ,,0,0,158.484,0,1,1,1,1,2,2,,,,,,,,,,,,,,,,,,
,5ed6ad6d923c090fbbe04b2a,627c6f95cec96ee9df710e2e,2022-05-11_22h23.30.489,classification_task,2021.2.3,MacIntel,55.55555556,627c6715c52fd12f31907bcf,,,,,,,,,,,,,,,,,,,,,,,,,,,,,,,,,,,,,,,,,,,,,0,1,1,1,1,,2,,,,,,,,,,,,,,,,,,
,5ed6ad6d923c090fbbe04b2a,627c6f95cec96ee9df710e2e,2022-05-11_22h23.30.489,classification_task,2021.2.3,MacIntel,55.55555556,627c6715c52fd12f31907bcf,,,,,,,,,,,,,,,,,,,,,space,2.817,l,1,1.819,"[""0.115"",""0.578"",""0.496"",""0.712""]","[1,0,1,1]",0,0,0,0,1,1,0,,,0,FALSE,,,,,,,,,,,,,,,,,,,,,,,,,,,,,,,
,5ed6ad6d923c090fbbe04b2a,627c6f95cec96ee9df710e2e,2022-05-11_22h23.30.489,classification_task,2021.2.3,MacIntel,55.55555556,627c6715c52fd12f31907bcf,,,,,,,,,,,,,,,,,,,,,,,a,1,2.052,"[""0.168"",""0.379"",""0.204"",""0.972""]","[1,1,0,1]",0,1,1,1,1,0,1,,,0,FALSE,,,,,,,,,,,,,,,,,,,,,,,,,,,,,,,
,5ed6ad6d923c090fbbe04b2a,627c6f95cec96ee9df710e2e,2022-05-11_22h23.30.489,classification_task,2021.2.3,MacIntel,55.55555556,627c6715c52fd12f31907bcf,,,,,,,,,,,,,,,,,,,,,,,a,1,1.05,"[""0.168"",""0.677"",""0.638"",""0.972""]","[1,0,1,1]",0,2,2,2,1,0,1,,,0,FALSE,,,,,,,,,,,,,,,,,,,,,,,,,,,,,,,
,5ed6ad6d923c090fbbe04b2a,627c6f95cec96ee9df710e2e,2022-05-11_22h23.30.489,classification_task,2021.2.3,MacIntel,55.55555556,627c6715c52fd12f31907bcf,,,,,,,,,,,,,,,,,,,,,,,l,1,2.216,"[""0.115"",""0.323"",""0.496"",""0.574""]","[1,1,1,0]",0,3,3,3,1,1,0,,,0,FALSE,,,,,,,,,,,,,,,,,,,,,,,,,,,,,,,
,5ed6ad6d923c090fbbe04b2a,627c6f95cec96ee9df710e2e,2022-05-11_22h23.30.489,classification_task,2021.2.3,MacIntel,55.55555556,627c6715c52fd12f31907bcf,,,,,,,,,,,,,,,,,,,,,,,a,1,0.812,"[""0.254"",""0.536"",""0.220"",""0.936""]","[1,1,0,1]",0,4,4,4,1,0,0,,,0,FALSE,,,,,,,,,,,,,,,,,,,,,,,,,,,,,,,
,5ed6ad6d923c090fbbe04b2a,627c6f95cec96ee9df710e2e,2022-05-11_22h23.30.489,classification_task,2021.2.3,MacIntel,55.55555556,627c6715c52fd12f31907bcf,,,,,,,,,,,,,,,,,,,,,,,l,0,1.756,"[""0.677"",""0.536"",""0.856"",""0.936""]","[0,1,1,1]",0,5,5,5,1,0,0,,,0,FALSE,,,,,,,,,,,,,,,,,,,,,,,,,,,,,,,
,5ed6ad6d923c090fbbe04b2a,627c6f95cec96ee9df710e2e,2022-05-11_22h23.30.489,classification_task,2021.2.3,MacIntel,55.55555556,627c6715c52fd12f31907bcf,,,,,,,,,,,,,,,,,,,,,,,a,1,1.122,"[""0.168"",""0.379"",""0.638"",""0.593""]","[1,1,1,0]",0,6,6,6,1,0,1,,,0,FALSE,,,,,,,,,,,,,,,,,,,,,,,,,,,,,,,
,5ed6ad6d923c090fbbe04b2a,627c6f95cec96ee9df710e2e,2022-05-11_22h23.30.489,classification_task,2021.2.3,MacIntel,55.55555556,627c6715c52fd12f31907bcf,,,,,,,,,,,,,,,,,,,,,,,a,1,1.333,"[""0.897"",""0.379"",""0.638"",""0.972""]","[0,1,1,1]",0,7,7,7,1,0,1,,,0,FALSE,,,,,,,,,,,,,,,,,,,,,,,,,,,,,,,
,5ed6ad6d923c090fbbe04b2a,627c6f95cec96ee9df710e2e,2022-05-11_22h23.30.489,classification_task,2021.2.3,MacIntel,55.55555556,627c6715c52fd12f31907bcf,,,,,,,,,,,,,,,,,,,,,,,l,1,0.787,"[""0.115"",""0.323"",""0.596"",""0.712""]","[1,1,0,1]",0,8,8,8,1,1,0,,,0,FALSE,,,,,,,,,,,,,,,,,,,,,,,,,,,,,,,
,5ed6ad6d923c090fbbe04b2a,627c6f95cec96ee9df710e2e,2022-05-11_22h23.30.489,classification_task,2021.2.3,MacIntel,55.55555556,627c6715c52fd12f31907bcf,,,,,,,,,,,,,,,,,,,,,,,a,0,1.304,"[""0.792"",""0.323"",""0.496"",""0.712""]","[0,1,1,1]",0,9,9,9,1,1,0,,,0,FALSE,,,,,,,,,,,,,,,,,,,,,,,,,,,,,,,
,5ed6ad6d923c090fbbe04b2a,627c6f95cec96ee9df710e2e,2022-05-11_22h23.30.489,classification_task,2021.2.3,MacIntel,55.55555556,627c6715c52fd12f31907bcf,,,,,,,,,,,,,,,,,,,,,,,a,1,0.992,"[""0.254"",""0.536"",""0.856"",""0.897""]","[1,1,1,0]",0,10,10,10,1,0,0,,,0,FALSE,,,,,,,,,,,,,,,,,,,,,,,,,,,,,,,
,5ed6ad6d923c090fbbe04b2a,627c6f95cec96ee9df710e2e,2022-05-11_22h23.30.489,classification_task,2021.2.3,MacIntel,55.55555556,627c6715c52fd12f31907bcf,,,,,,,,,,,,,,,,,,,,,,,l,1,1.316,"[""0.051"",""0.593"",""0.459"",""0.748""]","[1,0,1,1]",0,11,11,11,1,1,1,,,0,FALSE,,,,,,,,,,,,,,,,,,,,,,,,,,,,,,,
,5ed6ad6d923c090fbbe04b2a,627c6f95cec96ee9df710e2e,2022-05-11_22h23.30.489,classification_task,2021.2.3,MacIntel,55.55555556,627c6715c52fd12f31907bcf,,,,,,,,,,,,,,,,,,,,,,,l,1,0.882,"[""0.051"",""0.425"",""0.459"",""0.890""]","[1,1,1,0]",0,12,12,12,1,1,1,,,0,FALSE,,,,,,,,,,,,,,,,,,,,,,,,,,,,,,,
,5ed6ad6d923c090fbbe04b2a,627c6f95cec96ee9df710e2e,2022-05-11_22h23.30.489,classification_task,2021.2.3,MacIntel,55.55555556,627c6715c52fd12f31907bcf,,,,,,,,,,,,,,,,,,,,,,,a,0,1.134,"[""0.220"",""0.425"",""0.459"",""0.748""]","[0,1,1,1]",0,13,13,13,1,1,1,,,0,FALSE,,,,,,,,,,,,,,,,,,,,,,,,,,,,,,,
,5ed6ad6d923c090fbbe04b2a,627c6f95cec96ee9df710e2e,2022-05-11_22h23.30.489,classification_task,2021.2.3,MacIntel,55.55555556,627c6715c52fd12f31907bcf,,,,,,,,,,,,,,,,,,,,,,,l,1,1.179,"[""0.051"",""0.425"",""0.897"",""0.748""]","[1,1,0,1]",0,14,14,14,1,1,1,,,0,FALSE,,,,,,,,,,,,,,,,,,,,,,,,,,,,,,,
,5ed6ad6d923c090fbbe04b2a,627c6f95cec96ee9df710e2e,2022-05-11_22h23.30.489,classification_task,2021.2.3,MacIntel,55.55555556,627c6715c52fd12f31907bcf,,,,,,,,,,,,,,,,,,,,,,,a,1,0.952,"[""0.254"",""0.677"",""0.856"",""0.936""]","[1,0,1,1]",0,15,15,15,1,0,0,,,0,FALSE,,,,,,,,,,,,,,,,,,,,,,,,,,,,,,,
,5ed6ad6d923c090fbbe04b2a,627c6f95cec96ee9df710e2e,2022-05-11_22h23.30.489,classification_task,2021.2.3,MacIntel,55.55555556,627c6715c52fd12f31907bcf,,,,,,,,,,,,,,,,,,,,,,,a,0,0.932,"[""0.593"",""0.323"",""0.496"",""0.712""]","[0,1,1,1]",0,16,16,16,1,1,0,,,0,FALSE,,,,,,,,,,,,,,,,,,,,,,,,,,,,,,,
,5ed6ad6d923c090fbbe04b2a,627c6f95cec96ee9df710e2e,2022-05-11_22h23.30.489,classification_task,2021.2.3,MacIntel,55.55555556,627c6715c52fd12f31907bcf,,,,,,,,,,,,,,,,,,,,,,,a,1,0.916,"[""0.254"",""0.536"",""0.588"",""0.936""]","[1,1,0,1]",0,17,17,17,1,0,0,,,0,FALSE,,,,,,,,,,,,,,,,,,,,,,,,,,,,,,,
,5ed6ad6d923c090fbbe04b2a,627c6f95cec96ee9df710e2e,2022-05-11_22h23.30.489,classification_task,2021.2.3,MacIntel,55.55555556,627c6715c52fd12f31907bcf,,,,,,,,,,,,,,,,,,,,,,,a,1,1.805,"[""0.812"",""0.536"",""0.856"",""0.936""]","[0,1,1,1]",0,18,18,18,1,0,0,,,0,FALSE,,,,,,,,,,,,,,,,,,,,,,,,,,,,,,,
,5ed6ad6d923c090fbbe04b2a,627c6f95cec96ee9df710e2e,2022-05-11_22h23.30.489,classification_task,2021.2.3,MacIntel,55.55555556,627c6715c52fd12f31907bcf,,,,,,,,,,,,,,,,,,,,,,,l,0,1.616,"[""0.792"",""0.379"",""0.638"",""0.972""]","[0,1,1,1]",0,19,19,19,1,0,1,,,0,FALSE,,,,,,,,,,,,,,,,,,,,,,,,,,,,,,,
,5ed6ad6d923c090fbbe04b2a,627c6f95cec96ee9df710e2e,2022-05-11_22h23.30.489,classification_task,2021.2.3,MacIntel,55.55555556,627c6715c52fd12f31907bcf,,,,,,,,,,,,,,,,,,,,,,,l,1,1.269,"[""0.051"",""0.425"",""0.459"",""0.792""]","[1,1,1,0]",0,20,20,20,1,1,1,,,0,FALSE,,,,,,,,,,,,,,,,,,,,,,,,,,,,,,,
,5ed6ad6d923c090fbbe04b2a,627c6f95cec96ee9df710e2e,2022-05-11_22h23.30.489,classification_task,2021.2.3,MacIntel,55.55555556,627c6715c52fd12f31907bcf,,,,,,,,,,,,,,,,,,,,,,,l,1,1.184,"[""0.115"",""0.323"",""0.578"",""0.712""]","[1,1,0,1]",0,21,21,21,1,1,0,,,0,FALSE,,,,,,,,,,,,,,,,,,,,,,,,,,,,,,,
,5ed6ad6d923c090fbbe04b2a,627c6f95cec96ee9df710e2e,2022-05-11_22h23.30.489,classification_task,2021.2.3,MacIntel,55.55555556,627c6715c52fd12f31907bcf,,,,,,,,,,,,,,,,,,,,,,,a,1,1.418,"[""0.254"",""0.536"",""0.856"",""0.792""]","[1,1,1,0]",0,22,22,22,1,0,0,,,0,FALSE,,,,,,,,,,,,,,,,,,,,,,,,,,,,,,,
,5ed6ad6d923c090fbbe04b2a,627c6f95cec96ee9df710e2e,2022-05-11_22h23.30.489,classification_task,2021.2.3,MacIntel,55.55555556,627c6715c52fd12f31907bcf,,,,,,,,,,,,,,,,,,,,,,,a,1,1.068,"[""0.168"",""0.379"",""0.638"",""0.596""]","[1,1,1,0]",0,23,23,23,1,0,1,,,0,FALSE,,,,,,,,,,,,,,,,,,,,,,,,,,,,,,,
,5ed6ad6d923c090fbbe04b2a,627c6f95cec96ee9df710e2e,2022-05-11_22h23.30.489,classification_task,2021.2.3,MacIntel,55.55555556,627c6715c52fd12f31907bcf,,,,,,,,,,,,,,,,,,,,,,,l,1,0.718,"[""0.051"",""0.425"",""0.812"",""0.748""]","[1,1,0,1]",0,24,24,24,1,1,1,,,0,FALSE,,,,,,,,,,,,,,,,,,,,,,,,,,,,,,,
,5ed6ad6d923c090fbbe04b2a,627c6f95cec96ee9df710e2e,2022-05-11_22h23.30.489,classification_task,2021.2.3,MacIntel,55.55555556,627c6715c52fd12f31907bcf,,,,,,,,,,,,,,,,,,,,,,,a,1,0.918,"[""0.254"",""0.574"",""0.856"",""0.936""]","[1,0,1,1]",0,25,25,25,1,0,0,,,0,FALSE,,,,,,,,,,,,,,,,,,,,,,,,,,,,,,,
,5ed6ad6d923c090fbbe04b2a,627c6f95cec96ee9df710e2e,2022-05-11_22h23.30.489,classification_task,2021.2.3,MacIntel,55.55555556,627c6715c52fd12f31907bcf,,,,,,,,,,,,,,,,,,,,,,,a,1,1.833,"[""0.168"",""0.379"",""0.677"",""0.972""]","[1,1,0,1]",0,26,26,26,1,0,1,,,0,FALSE,,,,,,,,,,,,,,,,,,,,,,,,,,,,,,,
,5ed6ad6d923c090fbbe04b2a,627c6f95cec96ee9df710e2e,2022-05-11_22h23.30.489,classification_task,2021.2.3,MacIntel,55.55555556,627c6715c52fd12f31907bcf,,,,,,,,,,,,,,,,,,,,,,,l,1,0.903,"[""0.051"",""0.574"",""0.459"",""0.748""]","[1,0,1,1]",0,27,27,27,1,1,1,,,0,FALSE,,,,,,,,,,,,,,,,,,,,,,,,,,,,,,,
,5ed6ad6d923c090fbbe04b2a,627c6f95cec96ee9df710e2e,2022-05-11_22h23.30.489,classification_task,2021.2.3,MacIntel,55.55555556,627c6715c52fd12f31907bcf,,,,,,,,,,,,,,,,,,,,,,,l,1,0.782,"[""0.115"",""0.792"",""0.496"",""0.712""]","[1,0,1,1]",0,28,28,28,1,1,0,,,0,FALSE,,,,,,,,,,,,,,,,,,,,,,,,,,,,,,,
,5ed6ad6d923c090fbbe04b2a,627c6f95cec96ee9df710e2e,2022-05-11_22h23.30.489,classification_task,2021.2.3,MacIntel,55.55555556,627c6715c52fd12f31907bcf,,,,,,,,,,,,,,,,,,,,,,,l,1,1.125,"[""0.115"",""0.323"",""0.496"",""0.204""]","[1,1,1,0]",0,29,29,29,1,1,0,,,0,FALSE,,,,,,,,,,,,,,,,,,,,,,,,,,,,,,,
,5ed6ad6d923c090fbbe04b2a,627c6f95cec96ee9df710e2e,2022-05-11_22h23.30.489,classification_task,2021.2.3,MacIntel,55.55555556,627c6715c52fd12f31907bcf,,,,,,,,,,,,,,,,,,,,,,,a,0,1.417,"[""0.792"",""0.425"",""0.459"",""0.748""]","[0,1,1,1]",0,30,30,30,1,1,1,,,0,FALSE,,,,,,,,,,,,,,,,,,,,,,,,,,,,,,,
,5ed6ad6d923c090fbbe04b2a,627c6f95cec96ee9df710e2e,2022-05-11_22h23.30.489,classification_task,2021.2.3,MacIntel,55.55555556,627c6715c52fd12f31907bcf,,,,,,,,,,,,,,,,,,,,,,,l,0,2.383,"[""0.168"",""0.578"",""0.638"",""0.972""]","[1,0,1,1]",0,31,31,31,1,0,1,,,0,FALSE,,,,,,,,,,,,,,,,,,,,,,,,,,,,,,,
,5ed6ad6d923c090fbbe04b2a,627c6f95cec96ee9df710e2e,2022-05-11_22h23.30.489,classification_task,2021.2.3,MacIntel,55.55555556,627c6715c52fd12f31907bcf,,,,,,,,,,,,,,,,,,,,,,,a,1,0.989,"[""0.574"",""0.379"",""0.638"",""0.972""]","[0,1,1,1]",0,32,32,32,1,0,1,,,0,FALSE,,,,,,,,,,,,,,,,,,,,,,,,,,,,,,,
,5ed6ad6d923c090fbbe04b2a,627c6f95cec96ee9df710e2e,2022-05-11_22h23.30.489,classification_task,2021.2.3,MacIntel,55.55555556,627c6715c52fd12f31907bcf,,,,,,,,,,,,,,,,,,,,,,,l,1,0.95,"[""0.115"",""0.806"",""0.496"",""0.712""]","[1,0,1,1]",0,33,33,33,1,1,0,,,0,FALSE,,,,,,,,,,,,,,,,,,,,,,,,,,,,,,,
,5ed6ad6d923c090fbbe04b2a,627c6f95cec96ee9df710e2e,2022-05-11_22h23.30.489,classification_task,2021.2.3,MacIntel,55.55555556,627c6715c52fd12f31907bcf,,,,,,,,,,,,,,,,,,,,,,,a,1,0.898,"[""0.588"",""0.536"",""0.856"",""0.936""]","[0,1,1,1]",0,34,34,34,1,0,0,,,0,FALSE,,,,,,,,,,,,,,,,,,,,,,,,,,,,,,,
,5ed6ad6d923c090fbbe04b2a,627c6f95cec96ee9df710e2e,2022-05-11_22h23.30.489,classification_task,2021.2.3,MacIntel,55.55555556,627c6715c52fd12f31907bcf,,,,,,,,,,,,,,,,,,,,,,,l,1,1.169,"[""0.051"",""0.425"",""0.588"",""0.748""]","[1,1,0,1]",0,35,35,35,1,1,1,,,0,FALSE,,,,,,,,,,,,,,,,,,,,,,,,,,,,,,,
,5ed6ad6d923c090fbbe04b2a,627c6f95cec96ee9df710e2e,2022-05-11_22h23.30.489,classification_task,2021.2.3,MacIntel,55.55555556,627c6715c52fd12f31907bcf,,,,,,,,,,,,,,,,,,,,,,,a,1,0.932,"[""0.168"",""0.379"",""0.638"",""0.593""]","[1,1,1,0]",0,36,36,36,1,0,1,,,0,FALSE,,,,,,,,,,,,,,,,,,,,,,,,,,,,,,,
,5ed6ad6d923c090fbbe04b2a,627c6f95cec96ee9df710e2e,2022-05-11_22h23.30.489,classification_task,2021.2.3,MacIntel,55.55555556,627c6715c52fd12f31907bcf,,,,,,,,,,,,,,,,,,,,,,,a,0,1.076,"[""0.585"",""0.323"",""0.496"",""0.712""]","[0,1,1,1]",0,37,37,37,1,1,0,,,0,FALSE,,,,,,,,,,,,,,,,,,,,,,,,,,,,,,,
,5ed6ad6d923c090fbbe04b2a,627c6f95cec96ee9df710e2e,2022-05-11_22h23.30.489,classification_task,2021.2.3,MacIntel,55.55555556,627c6715c52fd12f31907bcf,,,,,,,,,,,,,,,,,,,,,,,a,1,1.284,"[""0.254"",""0.585"",""0.856"",""0.936""]","[1,0,1,1]",0,38,38,38,1,0,0,,,0,FALSE,,,,,,,,,,,,,,,,,,,,,,,,,,,,,,,
,5ed6ad6d923c090fbbe04b2a,627c6f95cec96ee9df710e2e,2022-05-11_22h23.30.489,classification_task,2021.2.3,MacIntel,55.55555556,627c6715c52fd12f31907bcf,,,,,,,,,,,,,,,,,,,,,,,a,1,1.517,"[""0.168"",""0.588"",""0.638"",""0.972""]","[1,0,1,1]",0,39,39,39,1,0,1,,,0,FALSE,,,,,,,,,,,,,,,,,,,,,,,,,,,,,,,
,5ed6ad6d923c090fbbe04b2a,627c6f95cec96ee9df710e2e,2022-05-11_22h23.30.489,classification_task,2021.2.3,MacIntel,55.55555556,627c6715c52fd12f31907bcf,,,,,,,,,,,,,,,,,,,,,,,a,1,0.885,"[""0.254"",""0.536"",""0.812"",""0.936""]","[1,1,0,1]",0,40,40,40,1,0,0,,,0,FALSE,,,,,,,,,,,,,,,,,,,,,,,,,,,,,,,
,5ed6ad6d923c090fbbe04b2a,627c6f95cec96ee9df710e2e,2022-05-11_22h23.30.489,classification_task,2021.2.3,MacIntel,55.55555556,627c6715c52fd12f31907bcf,,,,,,,,,,,,,,,,,,,,,,,l,1,0.686,"[""0.115"",""0.323"",""0.496"",""0.578""]","[1,1,1,0]",0,41,41,41,1,1,0,,,0,FALSE,,,,,,,,,,,,,,,,,,,,,,,,,,,,,,,
,5ed6ad6d923c090fbbe04b2a,627c6f95cec96ee9df710e2e,2022-05-11_22h23.30.489,classification_task,2021.2.3,MacIntel,55.55555556,627c6715c52fd12f31907bcf,,,,,,,,,,,,,,,,,,,,,,,l,1,0.817,"[""0.051"",""0.425"",""0.459"",""0.578""]","[1,1,1,0]",0,42,42,42,1,1,1,,,0,FALSE,,,,,,,,,,,,,,,,,,,,,,,,,,,,,,,
,5ed6ad6d923c090fbbe04b2a,627c6f95cec96ee9df710e2e,2022-05-11_22h23.30.489,classification_task,2021.2.3,MacIntel,55.55555556,627c6715c52fd12f31907bcf,,,,,,,,,,,,,,,,,,,,,,,a,1,1.033,"[""0.254"",""0.536"",""0.856"",""0.812""]","[1,1,1,0]",0,43,43,43,1,0,0,,,0,FALSE,,,,,,,,,,,,,,,,,,,,,,,,,,,,,,,
,5ed6ad6d923c090fbbe04b2a,627c6f95cec96ee9df710e2e,2022-05-11_22h23.30.489,classification_task,2021.2.3,MacIntel,55.55555556,627c6715c52fd12f31907bcf,,,,,,,,,,,,,,,,,,,,,,,l,1,1.202,"[""0.596"",""0.425"",""0.459"",""0.748""]","[0,1,1,1]",0,44,44,44,1,1,1,,,0,FALSE,,,,,,,,,,,,,,,,,,,,,,,,,,,,,,,
,5ed6ad6d923c090fbbe04b2a,627c6f95cec96ee9df710e2e,2022-05-11_22h23.30.489,classification_task,2021.2.3,MacIntel,55.55555556,627c6715c52fd12f31907bcf,,,,,,,,,,,,,,,,,,,,,,,l,1,1.019,"[""0.051"",""0.588"",""0.459"",""0.748""]","[1,0,1,1]",0,45,45,45,1,1,1,,,0,FALSE,,,,,,,,,,,,,,,,,,,,,,,,,,,,,,,
,5ed6ad6d923c090fbbe04b2a,627c6f95cec96ee9df710e2e,2022-05-11_22h23.30.489,classification_task,2021.2.3,MacIntel,55.55555556,627c6715c52fd12f31907bcf,,,,,,,,,,,,,,,,,,,,,,,a,1,1.475,"[""0.168"",""0.379"",""0.204"",""0.972""]","[1,1,0,1]",0,46,46,46,1,0,1,,,0,FALSE,,,,,,,,,,,,,,,,,,,,,,,,,,,,,,,
,5ed6ad6d923c090fbbe04b2a,627c6f95cec96ee9df710e2e,2022-05-11_22h23.30.489,classification_task,2021.2.3,MacIntel,55.55555556,627c6715c52fd12f31907bcf,,,,,,,,,,,,,,,,,,,,,,,l,1,0.731,"[""0.115"",""0.323"",""0.578"",""0.712""]","[1,1,0,1]",0,47,47,47,1,1,0,,,0,FALSE,,,,,,,,,,,,,,,,,,,,,,,,,,,,,,,
,5ed6ad6d923c090fbbe04b2a,627c6f95cec96ee9df710e2e,2022-05-11_22h23.30.489,classification_task,2021.2.3,MacIntel,55.55555556,627c6715c52fd12f31907bcf,,,,,,,,,,,,,,,,,,,,,,,l,1,0.535,"[""0.115"",""0.574"",""0.496"",""0.712""]","[1,0,1,1]",0,48,48,48,1,1,0,,,0,FALSE,,,,,,,,,,,,,,,,,,,,,,,,,,,,,,,
,5ed6ad6d923c090fbbe04b2a,627c6f95cec96ee9df710e2e,2022-05-11_22h23.30.489,classification_task,2021.2.3,MacIntel,55.55555556,627c6715c52fd12f31907bcf,,,,,,,,,,,,,,,,,,,,,,,a,0,0.636,"[""0.051"",""0.596"",""0.459"",""0.748""]","[1,0,1,1]",0,49,49,49,1,1,1,,,0,FALSE,,,,,,,,,,,,,,,,,,,,,,,,,,,,,,,
,5ed6ad6d923c090fbbe04b2a,627c6f95cec96ee9df710e2e,2022-05-11_22h23.30.489,classification_task,2021.2.3,MacIntel,55.55555556,627c6715c52fd12f31907bcf,,,,,,,,,,,,,,,,,,,,,,,l,1,0.651,"[""0.051"",""0.425"",""0.459"",""0.578""]","[1,1,1,0]",0,50,50,50,1,1,1,,,0,FALSE,,,,,,,,,,,,,,,,,,,,,,,,,,,,,,,
,5ed6ad6d923c090fbbe04b2a,627c6f95cec96ee9df710e2e,2022-05-11_22h23.30.489,classification_task,2021.2.3,MacIntel,55.55555556,627c6715c52fd12f31907bcf,,,,,,,,,,,,,,,,,,,,,,,l,1,1.079,"[""0.596"",""0.425"",""0.459"",""0.748""]","[0,1,1,1]",0,51,51,51,1,1,1,,,0,FALSE,,,,,,,,,,,,,,,,,,,,,,,,,,,,,,,
,5ed6ad6d923c090fbbe04b2a,627c6f95cec96ee9df710e2e,2022-05-11_22h23.30.489,classification_task,2021.2.3,MacIntel,55.55555556,627c6715c52fd12f31907bcf,,,,,,,,,,,,,,,,,,,,,,,a,1,0.852,"[""0.578"",""0.379"",""0.638"",""0.972""]","[0,1,1,1]",0,52,52,52,1,0,1,,,0,FALSE,,,,,,,,,,,,,,,,,,,,,,,,,,,,,,,
,5ed6ad6d923c090fbbe04b2a,627c6f95cec96ee9df710e2e,2022-05-11_22h23.30.489,classification_task,2021.2.3,MacIntel,55.55555556,627c6715c52fd12f31907bcf,,,,,,,,,,,,,,,,,,,,,,,l,1,0.844,"[""0.115"",""0.323"",""0.496"",""0.890""]","[1,1,1,0]",0,53,53,53,1,1,0,,,0,FALSE,,,,,,,,,,,,,,,,,,,,,,,,,,,,,,,
,5ed6ad6d923c090fbbe04b2a,627c6f95cec96ee9df710e2e,2022-05-11_22h23.30.489,classification_task,2021.2.3,MacIntel,55.55555556,627c6715c52fd12f31907bcf,,,,,,,,,,,,,,,,,,,,,,,a,1,1.081,"[""0.596"",""0.536"",""0.856"",""0.936""]","[0,1,1,1]",0,54,54,54,1,0,0,,,0,FALSE,,,,,,,,,,,,,,,,,,,,,,,,,,,,,,,
,5ed6ad6d923c090fbbe04b2a,627c6f95cec96ee9df710e2e,2022-05-11_22h23.30.489,classification_task,2021.2.3,MacIntel,55.55555556,627c6715c52fd12f31907bcf,,,,,,,,,,,,,,,,,,,,,,,l,1,0.67,"[""0.115"",""0.323"",""0.578"",""0.712""]","[1,1,0,1]",0,55,55,55,1,1,0,,,0,FALSE,,,,,,,,,,,,,,,,,,,,,,,,,,,,,,,
,5ed6ad6d923c090fbbe04b2a,627c6f95cec96ee9df710e2e,2022-05-11_22h23.30.489,classification_task,2021.2.3,MacIntel,55.55555556,627c6715c52fd12f31907bcf,,,,,,,,,,,,,,,,,,,,,,,a,1,0.802,"[""0.254"",""0.536"",""0.856"",""0.890""]","[1,1,1,0]",0,56,56,56,1,0,0,,,0,FALSE,,,,,,,,,,,,,,,,,,,,,,,,,,,,,,,
,5ed6ad6d923c090fbbe04b2a,627c6f95cec96ee9df710e2e,2022-05-11_22h23.30.489,classification_task,2021.2.3,MacIntel,55.55555556,627c6715c52fd12f31907bcf,,,,,,,,,,,,,,,,,,,,,,,a,1,1.254,"[""0.168"",""0.379"",""0.578"",""0.972""]","[1,1,0,1]",0,57,57,57,1,0,1,,,0,FALSE,,,,,,,,,,,,,,,,,,,,,,,,,,,,,,,
,5ed6ad6d923c090fbbe04b2a,627c6f95cec96ee9df710e2e,2022-05-11_22h23.30.489,classification_task,2021.2.3,MacIntel,55.55555556,627c6715c52fd12f31907bcf,,,,,,,,,,,,,,,,,,,,,,,a,1,1.006,"[""0.168"",""0.792"",""0.638"",""0.972""]","[1,0,1,1]",0,58,58,58,1,0,1,,,0,FALSE,,,,,,,,,,,,,,,,,,,,,,,,,,,,,,,
,5ed6ad6d923c090fbbe04b2a,627c6f95cec96ee9df710e2e,2022-05-11_22h23.30.489,classification_task,2021.2.3,MacIntel,55.55555556,627c6715c52fd12f31907bcf,,,,,,,,,,,,,,,,,,,,,,,a,0,0.875,"[""0.574"",""0.323"",""0.496"",""0.712""]","[0,1,1,1]",0,59,59,59,1,1,0,,,0,FALSE,,,,,,,,,,,,,,,,,,,,,,,,,,,,,,,
,5ed6ad6d923c090fbbe04b2a,627c6f95cec96ee9df710e2e,2022-05-11_22h23.30.489,classification_task,2021.2.3,MacIntel,55.55555556,627c6715c52fd12f31907bcf,,,,,,,,,,,,,,,,,,,,,,,a,1,0.926,"[""0.254"",""0.812"",""0.856"",""0.936""]","[1,0,1,1]",0,60,60,60,1,0,0,,,0,FALSE,,,,,,,,,,,,,,,,,,,,,,,,,,,,,,,
,5ed6ad6d923c090fbbe04b2a,627c6f95cec96ee9df710e2e,2022-05-11_22h23.30.489,classification_task,2021.2.3,MacIntel,55.55555556,627c6715c52fd12f31907bcf,,,,,,,,,,,,,,,,,,,,,,,l,1,0.934,"[""0.051"",""0.425"",""0.593"",""0.748""]","[1,1,0,1]",0,61,61,61,1,1,1,,,0,FALSE,,,,,,,,,,,,,,,,,,,,,,,,,,,,,,,
,5ed6ad6d923c090fbbe04b2a,627c6f95cec96ee9df710e2e,2022-05-11_22h23.30.489,classification_task,2021.2.3,MacIntel,55.55555556,627c6715c52fd12f31907bcf,,,,,,,,,,,,,,,,,,,,,,,a,1,0.866,"[""0.254"",""0.536"",""0.806"",""0.936""]","[1,1,0,1]",0,62,62,62,1,0,0,,,0,FALSE,,,,,,,,,,,,,,,,,,,,,,,,,,,,,,,
,5ed6ad6d923c090fbbe04b2a,627c6f95cec96ee9df710e2e,2022-05-11_22h23.30.489,classification_task,2021.2.3,MacIntel,55.55555556,627c6715c52fd12f31907bcf,,,,,,,,,,,,,,,,,,,,,,,a,1,0.922,"[""0.168"",""0.379"",""0.638"",""0.596""]","[1,1,1,0]",0,63,63,63,1,0,1,,,0,FALSE,,,,,,,,,,,,,,,,,,,,,,,,,,,,,,,
,5ed6ad6d923c090fbbe04b2a,627c6f95cec96ee9df710e2e,2022-05-11_22h23.30.489,classification_task,2021.2.3,MacIntel,55.55555556,627c6715c52fd12f31907bcf,,,,,,,,,,,,,,,,,,,,,,,,,,,,,,,,,,,,,,,0, ,,0,9.497354497,142.734,0,2,2,2,1,2,3,,,,,,,,,,,,,,,,,,
,5ed6ad6d923c090fbbe04b2a,627c6f95cec96ee9df710e2e,2022-05-11_22h23.30.489,classification_task,2021.2.3,MacIntel,55.55555556,627c6715c52fd12f31907bcf,,,,,,,,,,,,,,,,,,,,,,,,,,,,,,,,,,,,,,,1,  ,,0,9.861111111,149.404,0,2,2,2,1,2,3,,,,,,,,,,,,,,,,,,
,5ed6ad6d923c090fbbe04b2a,627c6f95cec96ee9df710e2e,2022-05-11_22h23.30.489,classification_task,2021.2.3,MacIntel,55.55555556,627c6715c52fd12f31907bcf,,,,,,,,,,,,,,,,,,,,,,,,,,,,,,,,,,,,,,,2,  ,,0,0,152.071,0,2,2,2,1,2,3,,,,,,,,,,,,,,,,,,
,5ed6ad6d923c090fbbe04b2a,627c6f95cec96ee9df710e2e,2022-05-11_22h23.30.489,classification_task,2021.2.3,MacIntel,55.55555556,627c6715c52fd12f31907bcf,,,,,,,,,,,,,,,,,,,,,,,,,,,,,,,,,,,,,,,,,,,,,0,2,2,2,1,,3,,,,,,,,,,,,,,,,,,
,5ed6ad6d923c090fbbe04b2a,627c6f95cec96ee9df710e2e,2022-05-11_22h23.30.489,classification_task,2021.2.3,MacIntel,55.55555556,627c6715c52fd12f31907bcf,,,,,,,,,,,,,,,,,,,,,,,,,,,,,,,,,,,,,,,,,,,,,,,,,,,,,I believe the aid is a competent performer,,0.7,0,5,708.239,0,0,0,0,1,0,,,,,
,5ed6ad6d923c090fbbe04b2a,627c6f95cec96ee9df710e2e,2022-05-11_22h23.30.489,classification_task,2021.2.3,MacIntel,55.55555556,627c6715c52fd12f31907bcf,,,,,,,,,,,,,,,,,,,,,,,,,,,,,,,,,,,,,,,,,,,,,,,,,,,,,I trust the aid,,0.7,0,5,707.055,0,0,0,0,1,0,,,,,
,5ed6ad6d923c090fbbe04b2a,627c6f95cec96ee9df710e2e,2022-05-11_22h23.30.489,classification_task,2021.2.3,MacIntel,55.55555556,627c6715c52fd12f31907bcf,,,,,,,,,,,,,,,,,,,,,,,,,,,,,,,,,,,,,,,,,,,,,,,,,,,,,I have confidence in the advice given by the aid,,0.7,0,5,709.503,0,0,0,0,1,0,,,,,
,5ed6ad6d923c090fbbe04b2a,627c6f95cec96ee9df710e2e,2022-05-11_22h23.30.489,classification_task,2021.2.3,MacIntel,55.55555556,627c6715c52fd12f31907bcf,,,,,,,,,,,,,,,,,,,,,,,,,,,,,,,,,,,,,,,,,,,,,,,,,,,,,I can depend on the aid,,0.7,0,5,710.668,0,0,0,0,1,0,,,,,
,5ed6ad6d923c090fbbe04b2a,627c6f95cec96ee9df710e2e,2022-05-11_22h23.30.489,classification_task,2021.2.3,MacIntel,55.55555556,627c6715c52fd12f31907bcf,,,,,,,,,,,,,,,,,,,,,,,,,,,,,,,,,,,,,,,,,,,,,,,,,,,,,I can rely on the aid to behave in consistent ways,,0.7,0,5,700.979,0,0,0,0,1,0,,,,,
,5ed6ad6d923c090fbbe04b2a,627c6f95cec96ee9df710e2e,2022-05-11_22h23.30.489,classification_task,2021.2.3,MacIntel,55.55555556,627c6715c52fd12f31907bcf,,,,,,,,,,,,,,,,,,,,,,,,,,,,,,,,,,,,,,,,,,,,,,,,,,,,,I can rely on the aid to do its best every time I take its advice,,0.7,0,5,712.777,0,0,0,0,1,0,,,,,
,5ed6ad6d923c090fbbe04b2a,627c6f95cec96ee9df710e2e,2022-05-11_22h23.30.489,classification_task,2021.2.3,MacIntel,55.55555556,627c6715c52fd12f31907bcf,,,,,,,,,,,,,,,,,,,,,,,,,,,,,,,,,,,,,,,,,,,,,,,,,,,,,"On trials you completed with assistance from the aid, how frequently did you think the aid was correct?",,0.7,0, 100% of the time ,,0,0,0,0,1,0,,,,,
,5ed6ad6d923c090fbbe04b2a,627c6f95cec96ee9df710e2e,2022-05-11_22h23.30.489,classification_task,2021.2.3,MacIntel,55.55555556,627c6715c52fd12f31907bcf,,,,,,,,,,,,,,,,,,,,,,,,,,,,,,,,,,,,,,,,,,,,,,,,,,,,,"On trials you completed without the aid, how frequently did you think you were correct?",,0.7,0,85%,,0,0,0,0,1,0,,,,,
,5ed6ad6d923c090fbbe04b2a,627c6f95cec96ee9df710e2e,2022-05-11_22h23.30.489,classification_task,2021.2.3,MacIntel,55.55555556,627c6715c52fd12f31907bcf,,,,,,,,,,,,,,,,,,,,,,,,,,,,,,,,,,,,,,,,,,,,,,,,,,,,,,,,,,,0,0,0,0,1,,,,,,
,5ed6ad6d923c090fbbe04b2a,627c6f95cec96ee9df710e2e,2022-05-11_22h23.30.489,classification_task,2021.2.3,MacIntel,55.55555556,627c6715c52fd12f31907bcf,,,,,,,,,,,,,,,,,,,,,,,,,,,,,,,,,,,,,,,,,,,,,,,,,,,,,,,,,,,,,,,,,space,5.505,734.257,,
,5ed6ad6d923c090fbbe04b2a,627c6f95cec96ee9df710e2e,2022-05-11_22h23.30.489,classification_task,2021.2.3,MacIntel,55.55555556,627c6715c52fd12f31907bcf,,,,,,,,,,,,,,,,,,,,,,,,,,,,,,,,,,,,,,,,,,,,,,,,,,,,,,,,,,,,,,,,,,,,"Mozilla/5.0 (Macintosh; Intel Mac OS X 10_15_7) AppleWebKit/605.1.15 (KHTML, like Gecko) Version/14.1.1 Safari/605.1.15",
,5ed6ad6d923c090fbbe04b2a,627c6f95cec96ee9df710e2e,2022-05-11_22h23.30.489,classification_task,2021.2.3,MacIntel,55.55555556,627c6715c52fd12f31907bcf,,,,,,,,,,,,,,,,,,,,,,,,,,,,,,,,,,,,,,,,,,,,,,,,,,,,,,,,,,,,,,,,,,,,,HIGHLIGHT
