usingWebGL,participant,session,date,expName,psychopyVersion,OS,frameRate,study_id,signatures_friend,signatures_foe,band_ranges_top,band_ranges_bottom,formitemText,formtype,formundefined,formitemWidth,formindex,formresponse,formrt,key_resp_2.keys,key_resp_2.rt,tute_resp.keys,tute_resp.rt,tutorial.thisRepN,tutorial.thisTrialN,tutorial.thisN,tutorial.thisIndex,tutorial.ran,key_resp_4.keys,key_resp_4.rt,key_resp.keys,key_resp.corr,key_resp.rt,lines_presented,is_signal_presented,trials.thisRepN,trials.thisTrialN,trials.thisN,trials.thisIndex,trials.ran,vessel,active_band,lines,is_signal,supported_pos,catch_trial,debrief_formindex,debrief_formitemText,debrief_formtype,debrief_formitemWidth,debrief_formresponse,debrief_formrt,phases.thisRepN,phases.thisTrialN,phases.thisN,phases.thisIndex,phases.ran,phases.order,phase,key_resp_3.keys,trustitemText,trusttype,trustitemWidth,trustindex,trustresponse,trustrt,support_status.thisRepN,support_status.thisTrialN,support_status.thisN,support_status.thisIndex,support_status.ran,support_status.order,key_resp_5.keys,key_resp_5.rt,globalClockTime,userAgent,manualCondition
TRUE,5edb46d311c02e7bc763c4d2,627c6f6bca0d625b1aa4ec9c,2022-05-12_14h36.46.260,classification_task,2021.2.3,MacIntel,59.99880002,627c6715c52fd12f31907bd0,,,,,,,,,,,,,,,,,,,,,,,,,,,,,,,,,,,,,,,,,,,,,,,,,,,,,,,,,,,,,,,,,,,,,
,5edb46d311c02e7bc763c4d2,627c6f6bca0d625b1aa4ec9c,2022-05-12_14h36.46.260,classification_task,2021.2.3,MacIntel,59.99880002,627c6715c52fd12f31907bd0,"[[""0.272"",""0.351"",""0.636"",""0.964""],[""0.235"",""0.387"",""0.857"",""0.915""]]","[[""0.027"",""0.173"",""0.603"",""0.767""],[""0.063"",""0.308"",""0.476"",""0.802""]]","[1,10]","[100,1000]",Video game experience,,,0.7,0,,,,,,,,,,,,,,,,,,,,,,,,,,,,,,,,,,,,,,,,,,,,,,,,,,,,,,,,,,,,
,5edb46d311c02e7bc763c4d2,627c6f6bca0d625b1aa4ec9c,2022-05-12_14h36.46.260,classification_task,2021.2.3,MacIntel,59.99880002,627c6715c52fd12f31907bd0,,,,,Approximately how many hours did you spend playing video games in the last week?,,,0.7,0,5,,,,,,,,,,,,,,,,,,,,,,,,,,,,,,,,,,,,,,,,,,,,,,,,,,,,,,,,,,,
,5edb46d311c02e7bc763c4d2,627c6f6bca0d625b1aa4ec9c,2022-05-12_14h36.46.260,classification_task,2021.2.3,MacIntel,59.99880002,627c6715c52fd12f31907bd0,,,,,"Which game did you play the most this year? (Enter ""None"" if you didn't play any)",,,0.7,0,Sims4,,,,,,,,,,,,,,,,,,,,,,,,,,,,,,,,,,,,,,,,,,,,,,,,,,,,,,,,,,,
,5edb46d311c02e7bc763c4d2,627c6f6bca0d625b1aa4ec9c,2022-05-12_14h36.46.260,classification_task,2021.2.3,MacIntel,59.99880002,627c6715c52fd12f31907bd0,,,,,Visual perception,,,0.7,0,,,,,,,,,,,,,,,,,,,,,,,,,,,,,,,,,,,,,,,,,,,,,,,,,,,,,,,,,,,,
,5edb46d311c02e7bc763c4d2,627c6f6bca0d625b1aa4ec9c,2022-05-12_14h36.46.260,classification_task,2021.2.3,MacIntel,59.99880002,627c6715c52fd12f31907bd0,,,,,Do you have any form of color blindness?,,,0.7,0,No,7.5135,,,,,,,,,,,,,,,,,,,,,,,,,,,,,,,,,,,,,,,,,,,,,,,,,,,,,,,,,,
,5edb46d311c02e7bc763c4d2,627c6f6bca0d625b1aa4ec9c,2022-05-12_14h36.46.260,classification_task,2021.2.3,MacIntel,59.99880002,627c6715c52fd12f31907bd0,,,,,Do you use software to change the colour temperature of your screen (e.g. f.lux)?,,,0.7,0,No,9.436099998,,,,,,,,,,,,,,,,,,,,,,,,,,,,,,,,,,,,,,,,,,,,,,,,,,,,,,,,,,
,5edb46d311c02e7bc763c4d2,627c6f6bca0d625b1aa4ec9c,2022-05-12_14h36.46.260,classification_task,2021.2.3,MacIntel,59.99880002,627c6715c52fd12f31907bd0,,,,,,,,,,,,space,1.1696,space,1.047699999,0,0,0,0,1,,,,,,,,,,,,,,,,,,,,,,,,,,,,,,,,,,,,,,,,,,,,,,,,,
,5edb46d311c02e7bc763c4d2,627c6f6bca0d625b1aa4ec9c,2022-05-12_14h36.46.260,classification_task,2021.2.3,MacIntel,59.99880002,627c6715c52fd12f31907bd0,,,,,,,,,,,,,,space,1.0626,1,0,1,0,1,,,,,,,,,,,,,,,,,,,,,,,,,,,,,,,,,,,,,,,,,,,,,,,,,
,5edb46d311c02e7bc763c4d2,627c6f6bca0d625b1aa4ec9c,2022-05-12_14h36.46.260,classification_task,2021.2.3,MacIntel,59.99880002,627c6715c52fd12f31907bd0,,,,,,,,,,,,,,space,2.482200001,2,0,2,0,1,,,,,,,,,,,,,,,,,,,,,,,,,,,,,,,,,,,,,,,,,,,,,,,,,
,5edb46d311c02e7bc763c4d2,627c6f6bca0d625b1aa4ec9c,2022-05-12_14h36.46.260,classification_task,2021.2.3,MacIntel,59.99880002,627c6715c52fd12f31907bd0,,,,,,,,,,,,,,space,0.965,3,0,3,0,1,,,,,,,,,,,,,,,,,,,,,,,,,,,,,,,,,,,,,,,,,,,,,,,,,
,5edb46d311c02e7bc763c4d2,627c6f6bca0d625b1aa4ec9c,2022-05-12_14h36.46.260,classification_task,2021.2.3,MacIntel,59.99880002,627c6715c52fd12f31907bd0,,,,,,,,,,,,,,space,0.730200001,4,0,4,0,1,,,,,,,,,,,,,,,,,,,,,,,,,,,,,,,,,,,,,,,,,,,,,,,,,
,5edb46d311c02e7bc763c4d2,627c6f6bca0d625b1aa4ec9c,2022-05-12_14h36.46.260,classification_task,2021.2.3,MacIntel,59.99880002,627c6715c52fd12f31907bd0,,,,,,,,,,,,,,,,,,,,,space,1.7149,l,1,1.0885,"[""0.027"",""0.173"",""0.603"",""0.132""]","[1,1,1,0]",0,0,0,0,1,1,0,,,1,FALSE,,,,,,,,,,,,,,,,,,,,,,,,,,,,,,,
,5edb46d311c02e7bc763c4d2,627c6f6bca0d625b1aa4ec9c,2022-05-12_14h36.46.260,classification_task,2021.2.3,MacIntel,59.99880002,627c6715c52fd12f31907bd0,,,,,,,,,,,,,,,,,,,,,,,l,0,2.179,"[""0.139"",""0.387"",""0.857"",""0.915""]","[0,1,1,1]",0,1,1,1,1,0,1,,,1,FALSE,,,,,,,,,,,,,,,,,,,,,,,,,,,,,,,
,5edb46d311c02e7bc763c4d2,627c6f6bca0d625b1aa4ec9c,2022-05-12_14h36.46.260,classification_task,2021.2.3,MacIntel,59.99880002,627c6715c52fd12f31907bd0,,,,,,,,,,,,,,,,,,,,,,,a,1,1.949699999,"[""0.235"",""0.387"",""0.119"",""0.915""]","[1,1,0,1]",0,2,2,2,1,0,1,,,1,FALSE,,,,,,,,,,,,,,,,,,,,,,,,,,,,,,,
,5edb46d311c02e7bc763c4d2,627c6f6bca0d625b1aa4ec9c,2022-05-12_14h36.46.260,classification_task,2021.2.3,MacIntel,59.99880002,627c6715c52fd12f31907bd0,,,,,,,,,,,,,,,,,,,,,,,a,1,0.980199999,"[""0.272"",""0.536"",""0.636"",""0.964""]","[1,0,1,1]",0,3,3,3,1,0,0,,,1,FALSE,,,,,,,,,,,,,,,,,,,,,,,,,,,,,,,
,5edb46d311c02e7bc763c4d2,627c6f6bca0d625b1aa4ec9c,2022-05-12_14h36.46.260,classification_task,2021.2.3,MacIntel,59.99880002,627c6715c52fd12f31907bd0,,,,,,,,,,,,,,,,,,,,,,,a,1,1.2689,"[""0.134"",""0.351"",""0.636"",""0.964""]","[0,1,1,1]",0,4,4,4,1,0,0,,,1,FALSE,,,,,,,,,,,,,,,,,,,,,,,,,,,,,,,
,5edb46d311c02e7bc763c4d2,627c6f6bca0d625b1aa4ec9c,2022-05-12_14h36.46.260,classification_task,2021.2.3,MacIntel,59.99880002,627c6715c52fd12f31907bd0,,,,,,,,,,,,,,,,,,,,,,,a,1,0.704299999,"[""0.272"",""0.351"",""0.636"",""0.548""]","[1,1,1,0]",0,5,5,5,1,0,0,,,1,FALSE,,,,,,,,,,,,,,,,,,,,,,,,,,,,,,,
,5edb46d311c02e7bc763c4d2,627c6f6bca0d625b1aa4ec9c,2022-05-12_14h36.46.260,classification_task,2021.2.3,MacIntel,59.99880002,627c6715c52fd12f31907bd0,,,,,,,,,,,,,,,,,,,,,,,l,1,0.9591,"[""0.063"",""0.308"",""0.685"",""0.802""]","[1,1,0,1]",0,6,6,6,1,1,1,,,1,FALSE,,,,,,,,,,,,,,,,,,,,,,,,,,,,,,,
,5edb46d311c02e7bc763c4d2,627c6f6bca0d625b1aa4ec9c,2022-05-12_14h36.46.260,classification_task,2021.2.3,MacIntel,59.99880002,627c6715c52fd12f31907bd0,,,,,,,,,,,,,,,,,,,,,,,l,1,0.9709,"[""0.063"",""0.308"",""0.476"",""0.134""]","[1,1,1,0]",0,7,7,7,1,1,1,,,1,FALSE,,,,,,,,,,,,,,,,,,,,,,,,,,,,,,,
,5edb46d311c02e7bc763c4d2,627c6f6bca0d625b1aa4ec9c,2022-05-12_14h36.46.260,classification_task,2021.2.3,MacIntel,59.99880002,627c6715c52fd12f31907bd0,,,,,,,,,,,,,,,,,,,,,,,a,0,1.4114,"[""0.102"",""0.173"",""0.603"",""0.767""]","[0,1,1,1]",0,8,8,8,1,1,0,,,1,FALSE,,,,,,,,,,,,,,,,,,,,,,,,,,,,,,,
,5edb46d311c02e7bc763c4d2,627c6f6bca0d625b1aa4ec9c,2022-05-12_14h36.46.260,classification_task,2021.2.3,MacIntel,59.99880002,627c6715c52fd12f31907bd0,,,,,,,,,,,,,,,,,,,,,,,l,1,1.1236,"[""0.027"",""0.725"",""0.603"",""0.767""]","[1,0,1,1]",0,9,9,9,1,1,0,,,1,FALSE,,,,,,,,,,,,,,,,,,,,,,,,,,,,,,,
,5edb46d311c02e7bc763c4d2,627c6f6bca0d625b1aa4ec9c,2022-05-12_14h36.46.260,classification_task,2021.2.3,MacIntel,59.99880002,627c6715c52fd12f31907bd0,,,,,,,,,,,,,,,,,,,,,,,l,1,2.7159,"[""0.440"",""0.308"",""0.476"",""0.802""]","[0,1,1,1]",0,10,10,10,1,1,1,,,1,FALSE,,,,,,,,,,,,,,,,,,,,,,,,,,,,,,,
,5edb46d311c02e7bc763c4d2,627c6f6bca0d625b1aa4ec9c,2022-05-12_14h36.46.260,classification_task,2021.2.3,MacIntel,59.99880002,627c6715c52fd12f31907bd0,,,,,,,,,,,,,,,,,,,,,,,a,1,2.895099998,"[""0.272"",""0.351"",""0.440"",""0.964""]","[1,1,0,1]",0,11,11,11,1,0,0,,,1,FALSE,,,,,,,,,,,,,,,,,,,,,,,,,,,,,,,
,5edb46d311c02e7bc763c4d2,627c6f6bca0d625b1aa4ec9c,2022-05-12_14h36.46.260,classification_task,2021.2.3,MacIntel,59.99880002,627c6715c52fd12f31907bd0,,,,,,,,,,,,,,,,,,,,,,,a,1,0.975599998,"[""0.235"",""0.566"",""0.857"",""0.915""]","[1,0,1,1]",0,12,12,12,1,0,1,,,1,FALSE,,,,,,,,,,,,,,,,,,,,,,,,,,,,,,,
,5edb46d311c02e7bc763c4d2,627c6f6bca0d625b1aa4ec9c,2022-05-12_14h36.46.260,classification_task,2021.2.3,MacIntel,59.99880002,627c6715c52fd12f31907bd0,,,,,,,,,,,,,,,,,,,,,,,l,1,2.705200001,"[""0.063"",""0.110"",""0.476"",""0.802""]","[1,0,1,1]",0,13,13,13,1,1,1,,,1,FALSE,,,,,,,,,,,,,,,,,,,,,,,,,,,,,,,
,5edb46d311c02e7bc763c4d2,627c6f6bca0d625b1aa4ec9c,2022-05-12_14h36.46.260,classification_task,2021.2.3,MacIntel,59.99880002,627c6715c52fd12f31907bd0,,,,,,,,,,,,,,,,,,,,,,,a,1,1.2055,"[""0.235"",""0.387"",""0.857"",""0.536""]","[1,1,1,0]",0,14,14,14,1,0,1,,,1,FALSE,,,,,,,,,,,,,,,,,,,,,,,,,,,,,,,
,5edb46d311c02e7bc763c4d2,627c6f6bca0d625b1aa4ec9c,2022-05-12_14h36.46.260,classification_task,2021.2.3,MacIntel,59.99880002,627c6715c52fd12f31907bd0,,,,,,,,,,,,,,,,,,,,,,,l,1,1.1435,"[""0.027"",""0.173"",""0.725"",""0.767""]","[1,1,0,1]",0,15,15,15,1,1,0,,,1,FALSE,,,,,,,,,,,,,,,,,,,,,,,,,,,,,,,
,5edb46d311c02e7bc763c4d2,627c6f6bca0d625b1aa4ec9c,2022-05-12_14h36.46.260,classification_task,2021.2.3,MacIntel,59.99880002,627c6715c52fd12f31907bd0,,,,,,,,,,,,,,,,,,,,,,,a,1,0.822699999,"[""0.272"",""0.548"",""0.636"",""0.964""]","[1,0,1,1]",0,16,16,16,1,0,0,,,1,FALSE,,,,,,,,,,,,,,,,,,,,,,,,,,,,,,,
,5edb46d311c02e7bc763c4d2,627c6f6bca0d625b1aa4ec9c,2022-05-12_14h36.46.260,classification_task,2021.2.3,MacIntel,59.99880002,627c6715c52fd12f31907bd0,,,,,,,,,,,,,,,,,,,,,,,a,1,0.6919,"[""0.272"",""0.351"",""0.636"",""0.428""]","[1,1,1,0]",0,17,17,17,1,0,0,,,1,FALSE,,,,,,,,,,,,,,,,,,,,,,,,,,,,,,,
,5edb46d311c02e7bc763c4d2,627c6f6bca0d625b1aa4ec9c,2022-05-12_14h36.46.260,classification_task,2021.2.3,MacIntel,59.99880002,627c6715c52fd12f31907bd0,,,,,,,,,,,,,,,,,,,,,,,a,0,1.446099998,"[""0.134"",""0.308"",""0.476"",""0.802""]","[0,1,1,1]",0,18,18,18,1,1,1,,,1,FALSE,,,,,,,,,,,,,,,,,,,,,,,,,,,,,,,
,5edb46d311c02e7bc763c4d2,627c6f6bca0d625b1aa4ec9c,2022-05-12_14h36.46.260,classification_task,2021.2.3,MacIntel,59.99880002,627c6715c52fd12f31907bd0,,,,,,,,,,,,,,,,,,,,,,,l,0,0.8025,"[""0.235"",""0.139"",""0.857"",""0.915""]","[1,0,1,1]",0,19,19,19,1,0,1,,,1,FALSE,,,,,,,,,,,,,,,,,,,,,,,,,,,,,,,
,5edb46d311c02e7bc763c4d2,627c6f6bca0d625b1aa4ec9c,2022-05-12_14h36.46.260,classification_task,2021.2.3,MacIntel,59.99880002,627c6715c52fd12f31907bd0,,,,,,,,,,,,,,,,,,,,,,,l,1,2.268199999,"[""0.063"",""0.536"",""0.476"",""0.802""]","[1,0,1,1]",0,20,20,20,1,1,1,,,1,FALSE,,,,,,,,,,,,,,,,,,,,,,,,,,,,,,,
,5edb46d311c02e7bc763c4d2,627c6f6bca0d625b1aa4ec9c,2022-05-12_14h36.46.260,classification_task,2021.2.3,MacIntel,59.99880002,627c6715c52fd12f31907bd0,,,,,,,,,,,,,,,,,,,,,,,a,1,1.4534,"[""0.235"",""0.387"",""0.725"",""0.915""]","[1,1,0,1]",0,21,21,21,1,0,1,,,1,FALSE,,,,,,,,,,,,,,,,,,,,,,,,,,,,,,,
,5edb46d311c02e7bc763c4d2,627c6f6bca0d625b1aa4ec9c,2022-05-12_14h36.46.260,classification_task,2021.2.3,MacIntel,59.99880002,627c6715c52fd12f31907bd0,,,,,,,,,,,,,,,,,,,,,,,a,1,6.5095,"[""0.272"",""0.351"",""0.134"",""0.964""]","[1,1,0,1]",0,22,22,22,1,0,0,,,1,FALSE,,,,,,,,,,,,,,,,,,,,,,,,,,,,,,,
,5edb46d311c02e7bc763c4d2,627c6f6bca0d625b1aa4ec9c,2022-05-12_14h36.46.260,classification_task,2021.2.3,MacIntel,59.99880002,627c6715c52fd12f31907bd0,,,,,,,,,,,,,,,,,,,,,,,l,1,1.916300001,"[""0.063"",""0.308"",""0.139"",""0.802""]","[1,1,0,1]",0,23,23,23,1,1,1,,,1,FALSE,,,,,,,,,,,,,,,,,,,,,,,,,,,,,,,
,5edb46d311c02e7bc763c4d2,627c6f6bca0d625b1aa4ec9c,2022-05-12_14h36.46.260,classification_task,2021.2.3,MacIntel,59.99880002,627c6715c52fd12f31907bd0,,,,,,,,,,,,,,,,,,,,,,,l,1,1.900900002,"[""0.027"",""0.173"",""0.718"",""0.767""]","[1,1,0,1]",0,24,24,24,1,1,0,,,1,FALSE,,,,,,,,,,,,,,,,,,,,,,,,,,,,,,,
,5edb46d311c02e7bc763c4d2,627c6f6bca0d625b1aa4ec9c,2022-05-12_14h36.46.260,classification_task,2021.2.3,MacIntel,59.99880002,627c6715c52fd12f31907bd0,,,,,,,,,,,,,,,,,,,,,,,a,1,1.9009,"[""0.536"",""0.351"",""0.636"",""0.964""]","[0,1,1,1]",0,25,25,25,1,0,0,,,1,FALSE,,,,,,,,,,,,,,,,,,,,,,,,,,,,,,,
,5edb46d311c02e7bc763c4d2,627c6f6bca0d625b1aa4ec9c,2022-05-12_14h36.46.260,classification_task,2021.2.3,MacIntel,59.99880002,627c6715c52fd12f31907bd0,,,,,,,,,,,,,,,,,,,,,,,l,1,2.670700001,"[""0.536"",""0.173"",""0.603"",""0.767""]","[0,1,1,1]",0,26,26,26,1,1,0,,,1,FALSE,,,,,,,,,,,,,,,,,,,,,,,,,,,,,,,
,5edb46d311c02e7bc763c4d2,627c6f6bca0d625b1aa4ec9c,2022-05-12_14h36.46.260,classification_task,2021.2.3,MacIntel,59.99880002,627c6715c52fd12f31907bd0,,,,,,,,,,,,,,,,,,,,,,,a,1,3.150699999,"[""0.440"",""0.387"",""0.857"",""0.915""]","[0,1,1,1]",0,27,27,27,1,0,1,,,1,FALSE,,,,,,,,,,,,,,,,,,,,,,,,,,,,,,,
,5edb46d311c02e7bc763c4d2,627c6f6bca0d625b1aa4ec9c,2022-05-12_14h36.46.260,classification_task,2021.2.3,MacIntel,59.99880002,627c6715c52fd12f31907bd0,,,,,,,,,,,,,,,,,,,,,,,l,1,1.4014,"[""0.027"",""0.536"",""0.603"",""0.767""]","[1,0,1,1]",0,28,28,28,1,1,0,,,1,FALSE,,,,,,,,,,,,,,,,,,,,,,,,,,,,,,,
,5edb46d311c02e7bc763c4d2,627c6f6bca0d625b1aa4ec9c,2022-05-12_14h36.46.260,classification_task,2021.2.3,MacIntel,59.99880002,627c6715c52fd12f31907bd0,,,,,,,,,,,,,,,,,,,,,,,l,0,2.4715,"[""0.235"",""0.387"",""0.857"",""0.139""]","[1,1,1,0]",0,29,29,29,1,0,1,,,1,FALSE,,,,,,,,,,,,,,,,,,,,,,,,,,,,,,,
,5edb46d311c02e7bc763c4d2,627c6f6bca0d625b1aa4ec9c,2022-05-12_14h36.46.260,classification_task,2021.2.3,MacIntel,59.99880002,627c6715c52fd12f31907bd0,,,,,,,,,,,,,,,,,,,,,,,l,1,1.594699999,"[""0.027"",""0.173"",""0.603"",""0.718""]","[1,1,1,0]",0,30,30,30,1,1,0,,,1,FALSE,,,,,,,,,,,,,,,,,,,,,,,,,,,,,,,
,5edb46d311c02e7bc763c4d2,627c6f6bca0d625b1aa4ec9c,2022-05-12_14h36.46.260,classification_task,2021.2.3,MacIntel,59.99880002,627c6715c52fd12f31907bd0,,,,,,,,,,,,,,,,,,,,,,,l,1,0.9514,"[""0.063"",""0.308"",""0.476"",""0.516""]","[1,1,1,0]",0,31,31,31,1,1,1,,,1,FALSE,,,,,,,,,,,,,,,,,,,,,,,,,,,,,,,
,5edb46d311c02e7bc763c4d2,627c6f6bca0d625b1aa4ec9c,2022-05-12_14h36.46.260,classification_task,2021.2.3,MacIntel,59.99880002,627c6715c52fd12f31907bd0,,,,,,,,,,,,,,,,,,,,,,,l,1,0.845199999,"[""0.027"",""0.173"",""0.516"",""0.767""]","[1,1,0,1]",0,32,32,32,1,1,0,,,1,FALSE,,,,,,,,,,,,,,,,,,,,,,,,,,,,,,,
,5edb46d311c02e7bc763c4d2,627c6f6bca0d625b1aa4ec9c,2022-05-12_14h36.46.260,classification_task,2021.2.3,MacIntel,59.99880002,627c6715c52fd12f31907bd0,,,,,,,,,,,,,,,,,,,,,,,l,1,2.1245,"[""0.027"",""0.173"",""0.603"",""0.440""]","[1,1,1,0]",0,33,33,33,1,1,0,,,1,FALSE,,,,,,,,,,,,,,,,,,,,,,,,,,,,,,,
,5edb46d311c02e7bc763c4d2,627c6f6bca0d625b1aa4ec9c,2022-05-12_14h36.46.260,classification_task,2021.2.3,MacIntel,59.99880002,627c6715c52fd12f31907bd0,,,,,,,,,,,,,,,,,,,,,,,a,0,1.6835,"[""0.440"",""0.308"",""0.476"",""0.802""]","[0,1,1,1]",0,34,34,34,1,1,1,,,1,FALSE,,,,,,,,,,,,,,,,,,,,,,,,,,,,,,,
,5edb46d311c02e7bc763c4d2,627c6f6bca0d625b1aa4ec9c,2022-05-12_14h36.46.260,classification_task,2021.2.3,MacIntel,59.99880002,627c6715c52fd12f31907bd0,,,,,,,,,,,,,,,,,,,,,,,a,1,0.935,"[""0.235"",""0.387"",""0.857"",""0.536""]","[1,1,1,0]",0,35,35,35,1,0,1,,,1,FALSE,,,,,,,,,,,,,,,,,,,,,,,,,,,,,,,
,5edb46d311c02e7bc763c4d2,627c6f6bca0d625b1aa4ec9c,2022-05-12_14h36.46.260,classification_task,2021.2.3,MacIntel,59.99880002,627c6715c52fd12f31907bd0,,,,,,,,,,,,,,,,,,,,,,,l,1,1.067,"[""0.516"",""0.173"",""0.603"",""0.767""]","[0,1,1,1]",0,36,36,36,1,1,0,,,1,FALSE,,,,,,,,,,,,,,,,,,,,,,,,,,,,,,,
,5edb46d311c02e7bc763c4d2,627c6f6bca0d625b1aa4ec9c,2022-05-12_14h36.46.260,classification_task,2021.2.3,MacIntel,59.99880002,627c6715c52fd12f31907bd0,,,,,,,,,,,,,,,,,,,,,,,l,0,0.8535,"[""0.139"",""0.351"",""0.636"",""0.964""]","[0,1,1,1]",0,37,37,37,1,0,0,,,1,FALSE,,,,,,,,,,,,,,,,,,,,,,,,,,,,,,,
,5edb46d311c02e7bc763c4d2,627c6f6bca0d625b1aa4ec9c,2022-05-12_14h36.46.260,classification_task,2021.2.3,MacIntel,59.99880002,627c6715c52fd12f31907bd0,,,,,,,,,,,,,,,,,,,,,,,a,1,1.234799999,"[""0.235"",""0.387"",""0.139"",""0.915""]","[1,1,0,1]",0,38,38,38,1,0,1,,,1,FALSE,,,,,,,,,,,,,,,,,,,,,,,,,,,,,,,
,5edb46d311c02e7bc763c4d2,627c6f6bca0d625b1aa4ec9c,2022-05-12_14h36.46.260,classification_task,2021.2.3,MacIntel,59.99880002,627c6715c52fd12f31907bd0,,,,,,,,,,,,,,,,,,,,,,,l,1,0.734599998,"[""0.027"",""0.428"",""0.603"",""0.767""]","[1,0,1,1]",0,39,39,39,1,1,0,,,1,FALSE,,,,,,,,,,,,,,,,,,,,,,,,,,,,,,,
,5edb46d311c02e7bc763c4d2,627c6f6bca0d625b1aa4ec9c,2022-05-12_14h36.46.260,classification_task,2021.2.3,MacIntel,59.99880002,627c6715c52fd12f31907bd0,,,,,,,,,,,,,,,,,,,,,,,l,1,0.916299999,"[""0.063"",""0.308"",""0.725"",""0.802""]","[1,1,0,1]",0,40,40,40,1,1,1,,,1,FALSE,,,,,,,,,,,,,,,,,,,,,,,,,,,,,,,
,5edb46d311c02e7bc763c4d2,627c6f6bca0d625b1aa4ec9c,2022-05-12_14h36.46.260,classification_task,2021.2.3,MacIntel,59.99880002,627c6715c52fd12f31907bd0,,,,,,,,,,,,,,,,,,,,,,,l,1,0.903299999,"[""0.063"",""0.308"",""0.476"",""0.516""]","[1,1,1,0]",0,41,41,41,1,1,1,,,1,FALSE,,,,,,,,,,,,,,,,,,,,,,,,,,,,,,,
,5edb46d311c02e7bc763c4d2,627c6f6bca0d625b1aa4ec9c,2022-05-12_14h36.46.260,classification_task,2021.2.3,MacIntel,59.99880002,627c6715c52fd12f31907bd0,,,,,,,,,,,,,,,,,,,,,,,a,1,1.3826,"[""0.685"",""0.387"",""0.857"",""0.915""]","[0,1,1,1]",0,42,42,42,1,0,1,,,1,FALSE,,,,,,,,,,,,,,,,,,,,,,,,,,,,,,,
,5edb46d311c02e7bc763c4d2,627c6f6bca0d625b1aa4ec9c,2022-05-12_14h36.46.260,classification_task,2021.2.3,MacIntel,59.99880002,627c6715c52fd12f31907bd0,,,,,,,,,,,,,,,,,,,,,,,a,1,0.885799999,"[""0.272"",""0.351"",""0.516"",""0.964""]","[1,1,0,1]",0,43,43,43,1,0,0,,,1,FALSE,,,,,,,,,,,,,,,,,,,,,,,,,,,,,,,
,5edb46d311c02e7bc763c4d2,627c6f6bca0d625b1aa4ec9c,2022-05-12_14h36.46.260,classification_task,2021.2.3,MacIntel,59.99880002,627c6715c52fd12f31907bd0,,,,,,,,,,,,,,,,,,,,,,,l,1,0.8504,"[""0.063"",""0.119"",""0.476"",""0.802""]","[1,0,1,1]",0,44,44,44,1,1,1,,,1,FALSE,,,,,,,,,,,,,,,,,,,,,,,,,,,,,,,
,5edb46d311c02e7bc763c4d2,627c6f6bca0d625b1aa4ec9c,2022-05-12_14h36.46.260,classification_task,2021.2.3,MacIntel,59.99880002,627c6715c52fd12f31907bd0,,,,,,,,,,,,,,,,,,,,,,,a,1,1.4346,"[""0.272"",""0.110"",""0.636"",""0.964""]","[1,0,1,1]",0,45,45,45,1,0,0,,,1,FALSE,,,,,,,,,,,,,,,,,,,,,,,,,,,,,,,
,5edb46d311c02e7bc763c4d2,627c6f6bca0d625b1aa4ec9c,2022-05-12_14h36.46.260,classification_task,2021.2.3,MacIntel,59.99880002,627c6715c52fd12f31907bd0,,,,,,,,,,,,,,,,,,,,,,,a,1,0.968,"[""0.235"",""0.516"",""0.857"",""0.915""]","[1,0,1,1]",0,46,46,46,1,0,1,,,1,FALSE,,,,,,,,,,,,,,,,,,,,,,,,,,,,,,,
,5edb46d311c02e7bc763c4d2,627c6f6bca0d625b1aa4ec9c,2022-05-12_14h36.46.260,classification_task,2021.2.3,MacIntel,59.99880002,627c6715c52fd12f31907bd0,,,,,,,,,,,,,,,,,,,,,,,a,1,0.8531,"[""0.272"",""0.351"",""0.636"",""0.725""]","[1,1,1,0]",0,47,47,47,1,0,0,,,1,FALSE,,,,,,,,,,,,,,,,,,,,,,,,,,,,,,,
,5edb46d311c02e7bc763c4d2,627c6f6bca0d625b1aa4ec9c,2022-05-12_14h36.46.260,classification_task,2021.2.3,MacIntel,59.99880002,627c6715c52fd12f31907bd0,,,,,,,,,,,,,,,,,,,,,,,l,1,1.750700001,"[""0.063"",""0.308"",""0.476"",""0.139""]","[1,1,1,0]",0,48,48,48,1,1,1,,,1,FALSE,,,,,,,,,,,,,,,,,,,,,,,,,,,,,,,
,5edb46d311c02e7bc763c4d2,627c6f6bca0d625b1aa4ec9c,2022-05-12_14h36.46.260,classification_task,2021.2.3,MacIntel,59.99880002,627c6715c52fd12f31907bd0,,,,,,,,,,,,,,,,,,,,,,,l,1,0.8325,"[""0.027"",""0.173"",""0.603"",""0.685""]","[1,1,1,0]",0,49,49,49,1,1,0,,,1,FALSE,,,,,,,,,,,,,,,,,,,,,,,,,,,,,,,
,5edb46d311c02e7bc763c4d2,627c6f6bca0d625b1aa4ec9c,2022-05-12_14h36.46.260,classification_task,2021.2.3,MacIntel,59.99880002,627c6715c52fd12f31907bd0,,,,,,,,,,,,,,,,,,,,,,,a,1,0.7191,"[""0.272"",""0.432"",""0.636"",""0.964""]","[1,0,1,1]",0,50,50,50,1,0,0,,,1,FALSE,,,,,,,,,,,,,,,,,,,,,,,,,,,,,,,
,5edb46d311c02e7bc763c4d2,627c6f6bca0d625b1aa4ec9c,2022-05-12_14h36.46.260,classification_task,2021.2.3,MacIntel,59.99880002,627c6715c52fd12f31907bd0,,,,,,,,,,,,,,,,,,,,,,,l,0,0.9235,"[""0.134"",""0.387"",""0.857"",""0.915""]","[0,1,1,1]",0,51,51,51,1,0,1,,,1,FALSE,,,,,,,,,,,,,,,,,,,,,,,,,,,,,,,
,5edb46d311c02e7bc763c4d2,627c6f6bca0d625b1aa4ec9c,2022-05-12_14h36.46.260,classification_task,2021.2.3,MacIntel,59.99880002,627c6715c52fd12f31907bd0,,,,,,,,,,,,,,,,,,,,,,,a,1,0.7345,"[""0.272"",""0.351"",""0.139"",""0.964""]","[1,1,0,1]",0,52,52,52,1,0,0,,,1,FALSE,,,,,,,,,,,,,,,,,,,,,,,,,,,,,,,
,5edb46d311c02e7bc763c4d2,627c6f6bca0d625b1aa4ec9c,2022-05-12_14h36.46.260,classification_task,2021.2.3,MacIntel,59.99880002,627c6715c52fd12f31907bd0,,,,,,,,,,,,,,,,,,,,,,,l,1,1.0656,"[""0.027"",""0.173"",""0.428"",""0.767""]","[1,1,0,1]",0,53,53,53,1,1,0,,,1,FALSE,,,,,,,,,,,,,,,,,,,,,,,,,,,,,,,
,5edb46d311c02e7bc763c4d2,627c6f6bca0d625b1aa4ec9c,2022-05-12_14h36.46.260,classification_task,2021.2.3,MacIntel,59.99880002,627c6715c52fd12f31907bd0,,,,,,,,,,,,,,,,,,,,,,,a,0,0.949099998,"[""0.536"",""0.308"",""0.476"",""0.802""]","[0,1,1,1]",0,54,54,54,1,1,1,,,1,FALSE,,,,,,,,,,,,,,,,,,,,,,,,,,,,,,,
,5edb46d311c02e7bc763c4d2,627c6f6bca0d625b1aa4ec9c,2022-05-12_14h36.46.260,classification_task,2021.2.3,MacIntel,59.99880002,627c6715c52fd12f31907bd0,,,,,,,,,,,,,,,,,,,,,,,a,0,2.087199999,"[""0.440"",""0.173"",""0.603"",""0.767""]","[0,1,1,1]",0,55,55,55,1,1,0,,,1,FALSE,,,,,,,,,,,,,,,,,,,,,,,,,,,,,,,
,5edb46d311c02e7bc763c4d2,627c6f6bca0d625b1aa4ec9c,2022-05-12_14h36.46.260,classification_task,2021.2.3,MacIntel,59.99880002,627c6715c52fd12f31907bd0,,,,,,,,,,,,,,,,,,,,,,,a,1,1.216,"[""0.272"",""0.351"",""0.636"",""0.718""]","[1,1,1,0]",0,56,56,56,1,0,0,,,1,FALSE,,,,,,,,,,,,,,,,,,,,,,,,,,,,,,,
,5edb46d311c02e7bc763c4d2,627c6f6bca0d625b1aa4ec9c,2022-05-12_14h36.46.260,classification_task,2021.2.3,MacIntel,59.99880002,627c6715c52fd12f31907bd0,,,,,,,,,,,,,,,,,,,,,,,l,1,1.269700001,"[""0.063"",""0.308"",""0.132"",""0.802""]","[1,1,0,1]",0,57,57,57,1,1,1,,,1,FALSE,,,,,,,,,,,,,,,,,,,,,,,,,,,,,,,
,5edb46d311c02e7bc763c4d2,627c6f6bca0d625b1aa4ec9c,2022-05-12_14h36.46.260,classification_task,2021.2.3,MacIntel,59.99880002,627c6715c52fd12f31907bd0,,,,,,,,,,,,,,,,,,,,,,,l,1,0.666799999,"[""0.063"",""0.685"",""0.476"",""0.802""]","[1,0,1,1]",0,58,58,58,1,1,1,,,1,FALSE,,,,,,,,,,,,,,,,,,,,,,,,,,,,,,,
,5edb46d311c02e7bc763c4d2,627c6f6bca0d625b1aa4ec9c,2022-05-12_14h36.46.260,classification_task,2021.2.3,MacIntel,59.99880002,627c6715c52fd12f31907bd0,,,,,,,,,,,,,,,,,,,,,,,l,1,0.673200001,"[""0.027"",""0.440"",""0.603"",""0.767""]","[1,0,1,1]",0,59,59,59,1,1,0,,,1,FALSE,,,,,,,,,,,,,,,,,,,,,,,,,,,,,,,
,5edb46d311c02e7bc763c4d2,627c6f6bca0d625b1aa4ec9c,2022-05-12_14h36.46.260,classification_task,2021.2.3,MacIntel,59.99880002,627c6715c52fd12f31907bd0,,,,,,,,,,,,,,,,,,,,,,,a,1,0.967,"[""0.235"",""0.387"",""0.440"",""0.915""]","[1,1,0,1]",0,60,60,60,1,0,1,,,1,FALSE,,,,,,,,,,,,,,,,,,,,,,,,,,,,,,,
,5edb46d311c02e7bc763c4d2,627c6f6bca0d625b1aa4ec9c,2022-05-12_14h36.46.260,classification_task,2021.2.3,MacIntel,59.99880002,627c6715c52fd12f31907bd0,,,,,,,,,,,,,,,,,,,,,,,a,1,0.571799999,"[""0.235"",""0.387"",""0.857"",""0.428""]","[1,1,1,0]",0,61,61,61,1,0,1,,,1,FALSE,,,,,,,,,,,,,,,,,,,,,,,,,,,,,,,
,5edb46d311c02e7bc763c4d2,627c6f6bca0d625b1aa4ec9c,2022-05-12_14h36.46.260,classification_task,2021.2.3,MacIntel,59.99880002,627c6715c52fd12f31907bd0,,,,,,,,,,,,,,,,,,,,,,,a,1,0.6529,"[""0.235"",""0.432"",""0.857"",""0.915""]","[1,0,1,1]",0,62,62,62,1,0,1,,,1,FALSE,,,,,,,,,,,,,,,,,,,,,,,,,,,,,,,
,5edb46d311c02e7bc763c4d2,627c6f6bca0d625b1aa4ec9c,2022-05-12_14h36.46.260,classification_task,2021.2.3,MacIntel,59.99880002,627c6715c52fd12f31907bd0,,,,,,,,,,,,,,,,,,,,,,,a,1,1.051,"[""0.516"",""0.351"",""0.636"",""0.964""]","[0,1,1,1]",0,63,63,63,1,0,0,,,1,FALSE,,,,,,,,,,,,,,,,,,,,,,,,,,,,,,,
,5edb46d311c02e7bc763c4d2,627c6f6bca0d625b1aa4ec9c,2022-05-12_14h36.46.260,classification_task,2021.2.3,MacIntel,59.99880002,627c6715c52fd12f31907bd0,,,,,,,,,,,,,,,,,,,,,,,,,,,,,,,,,,,,,,,0, ,,0,1.583466527,182.0053,0,0,0,0,1,2,1,,,,,,,,,,,,,,,,,,
,5edb46d311c02e7bc763c4d2,627c6f6bca0d625b1aa4ec9c,2022-05-12_14h36.46.260,classification_task,2021.2.3,MacIntel,59.99880002,627c6715c52fd12f31907bd0,,,,,,,,,,,,,,,,,,,,,,,,,,,,,,,,,,,,,,,1,  ,,0,3.346446024,184.6578,0,0,0,0,1,2,1,,,,,,,,,,,,,,,,,,
,5edb46d311c02e7bc763c4d2,627c6f6bca0d625b1aa4ec9c,2022-05-12_14h36.46.260,classification_task,2021.2.3,MacIntel,59.99880002,627c6715c52fd12f31907bd0,,,,,,,,,,,,,,,,,,,,,,,,,,,,,,,,,,,,,,,2,  ,,0,3.464368386,186.8263,0,0,0,0,1,2,1,,,,,,,,,,,,,,,,,,
,5edb46d311c02e7bc763c4d2,627c6f6bca0d625b1aa4ec9c,2022-05-12_14h36.46.260,classification_task,2021.2.3,MacIntel,59.99880002,627c6715c52fd12f31907bd0,,,,,,,,,,,,,,,,,,,,,,,,,,,,,,,,,,,,,,,,,,,,,0,0,0,0,1,,1,,,,,,,,,,,,,,,,,,
,5edb46d311c02e7bc763c4d2,627c6f6bca0d625b1aa4ec9c,2022-05-12_14h36.46.260,classification_task,2021.2.3,MacIntel,59.99880002,627c6715c52fd12f31907bd0,,,,,,,,,,,,,,,,,,,,,space,0.826199999,a,1,0.974099998,"[""0.272"",""0.351"",""0.548"",""0.964""]","[1,1,0,1]",0,0,0,0,1,0,0,,,1,FALSE,,,,,,,,,,,,,,,,,,,,,,,,,,,,,,,
,5edb46d311c02e7bc763c4d2,627c6f6bca0d625b1aa4ec9c,2022-05-12_14h36.46.260,classification_task,2021.2.3,MacIntel,59.99880002,627c6715c52fd12f31907bd0,,,,,,,,,,,,,,,,,,,,,,,l,1,0.715799999,"[""0.027"",""0.173"",""0.603"",""0.566""]","[1,1,1,0]",0,1,1,1,1,1,0,,,1,FALSE,,,,,,,,,,,,,,,,,,,,,,,,,,,,,,,
,5edb46d311c02e7bc763c4d2,627c6f6bca0d625b1aa4ec9c,2022-05-12_14h36.46.260,classification_task,2021.2.3,MacIntel,59.99880002,627c6715c52fd12f31907bd0,,,,,,,,,,,,,,,,,,,,,,,l,1,4.7429,"[""0.063"",""0.308"",""0.476"",""0.516""]","[1,1,1,0]",0,2,2,2,1,1,1,,,1,FALSE,,,,,,,,,,,,,,,,,,,,,,,,,,,,,,,
,5edb46d311c02e7bc763c4d2,627c6f6bca0d625b1aa4ec9c,2022-05-12_14h36.46.260,classification_task,2021.2.3,MacIntel,59.99880002,627c6715c52fd12f31907bd0,,,,,,,,,,,,,,,,,,,,,,,a,1,2.0209,"[""0.235"",""0.387"",""0.428"",""0.915""]","[1,1,0,1]",0,3,3,3,1,0,1,,,1,FALSE,,,,,,,,,,,,,,,,,,,,,,,,,,,,,,,
,5edb46d311c02e7bc763c4d2,627c6f6bca0d625b1aa4ec9c,2022-05-12_14h36.46.260,classification_task,2021.2.3,MacIntel,59.99880002,627c6715c52fd12f31907bd0,,,,,,,,,,,,,,,,,,,,,,,a,1,1.019300001,"[""0.548"",""0.387"",""0.857"",""0.915""]","[0,1,1,1]",0,4,4,4,1,0,1,,,1,FALSE,,,,,,,,,,,,,,,,,,,,,,,,,,,,,,,
,5edb46d311c02e7bc763c4d2,627c6f6bca0d625b1aa4ec9c,2022-05-12_14h36.46.260,classification_task,2021.2.3,MacIntel,59.99880002,627c6715c52fd12f31907bd0,,,,,,,,,,,,,,,,,,,,,,,a,1,0.599599998,"[""0.235"",""0.432"",""0.857"",""0.915""]","[1,0,1,1]",0,5,5,5,1,0,1,,,1,FALSE,,,,,,,,,,,,,,,,,,,,,,,,,,,,,,,
,5edb46d311c02e7bc763c4d2,627c6f6bca0d625b1aa4ec9c,2022-05-12_14h36.46.260,classification_task,2021.2.3,MacIntel,59.99880002,627c6715c52fd12f31907bd0,,,,,,,,,,,,,,,,,,,,,,,l,1,0.479,"[""0.428"",""0.308"",""0.476"",""0.802""]","[0,1,1,1]",0,6,6,6,1,1,1,,,1,FALSE,,,,,,,,,,,,,,,,,,,,,,,,,,,,,,,
,5edb46d311c02e7bc763c4d2,627c6f6bca0d625b1aa4ec9c,2022-05-12_14h36.46.260,classification_task,2021.2.3,MacIntel,59.99880002,627c6715c52fd12f31907bd0,,,,,,,,,,,,,,,,,,,,,,,l,1,1.090400002,"[""0.063"",""0.308"",""0.119"",""0.802""]","[1,1,0,1]",0,7,7,7,1,1,1,,,1,FALSE,,,,,,,,,,,,,,,,,,,,,,,,,,,,,,,
,5edb46d311c02e7bc763c4d2,627c6f6bca0d625b1aa4ec9c,2022-05-12_14h36.46.260,classification_task,2021.2.3,MacIntel,59.99880002,627c6715c52fd12f31907bd0,,,,,,,,,,,,,,,,,,,,,,,a,1,1.416,"[""0.272"",""0.725"",""0.636"",""0.964""]","[1,0,1,1]",0,8,8,8,1,0,0,,,1,FALSE,,,,,,,,,,,,,,,,,,,,,,,,,,,,,,,
,5edb46d311c02e7bc763c4d2,627c6f6bca0d625b1aa4ec9c,2022-05-12_14h36.46.260,classification_task,2021.2.3,MacIntel,59.99880002,627c6715c52fd12f31907bd0,,,,,,,,,,,,,,,,,,,,,,,l,1,0.7675,"[""0.027"",""0.685"",""0.603"",""0.767""]","[1,0,1,1]",0,9,9,9,1,1,0,,,1,FALSE,,,,,,,,,,,,,,,,,,,,,,,,,,,,,,,
,5edb46d311c02e7bc763c4d2,627c6f6bca0d625b1aa4ec9c,2022-05-12_14h36.46.260,classification_task,2021.2.3,MacIntel,59.99880002,627c6715c52fd12f31907bd0,,,,,,,,,,,,,,,,,,,,,,,l,1,1.8661,"[""0.063"",""0.536"",""0.476"",""0.802""]","[1,0,1,1]",0,10,10,10,1,1,1,,,1,FALSE,,,,,,,,,,,,,,,,,,,,,,,,,,,,,,,
,5edb46d311c02e7bc763c4d2,627c6f6bca0d625b1aa4ec9c,2022-05-12_14h36.46.260,classification_task,2021.2.3,MacIntel,59.99880002,627c6715c52fd12f31907bd0,,,,,,,,,,,,,,,,,,,,,,,a,1,0.8786,"[""0.272"",""0.351"",""0.636"",""0.536""]","[1,1,1,0]",0,11,11,11,1,0,0,,,1,FALSE,,,,,,,,,,,,,,,,,,,,,,,,,,,,,,,
,5edb46d311c02e7bc763c4d2,627c6f6bca0d625b1aa4ec9c,2022-05-12_14h36.46.260,classification_task,2021.2.3,MacIntel,59.99880002,627c6715c52fd12f31907bd0,,,,,,,,,,,,,,,,,,,,,,,a,1,0.5821,"[""0.516"",""0.351"",""0.636"",""0.964""]","[0,1,1,1]",0,12,12,12,1,0,0,,,1,FALSE,,,,,,,,,,,,,,,,,,,,,,,,,,,,,,,
,5edb46d311c02e7bc763c4d2,627c6f6bca0d625b1aa4ec9c,2022-05-12_14h36.46.260,classification_task,2021.2.3,MacIntel,59.99880002,627c6715c52fd12f31907bd0,,,,,,,,,,,,,,,,,,,,,,,l,1,0.898299999,"[""0.440"",""0.173"",""0.603"",""0.767""]","[0,1,1,1]",0,13,13,13,1,1,0,,,1,FALSE,,,,,,,,,,,,,,,,,,,,,,,,,,,,,,,
,5edb46d311c02e7bc763c4d2,627c6f6bca0d625b1aa4ec9c,2022-05-12_14h36.46.260,classification_task,2021.2.3,MacIntel,59.99880002,627c6715c52fd12f31907bd0,,,,,,,,,,,,,,,,,,,,,,,l,1,0.7066,"[""0.027"",""0.173"",""0.110"",""0.767""]","[1,1,0,1]",0,14,14,14,1,1,0,,,1,FALSE,,,,,,,,,,,,,,,,,,,,,,,,,,,,,,,
,5edb46d311c02e7bc763c4d2,627c6f6bca0d625b1aa4ec9c,2022-05-12_14h36.46.260,classification_task,2021.2.3,MacIntel,59.99880002,627c6715c52fd12f31907bd0,,,,,,,,,,,,,,,,,,,,,,,a,1,1.351200001,"[""0.235"",""0.387"",""0.857"",""0.110""]","[1,1,1,0]",0,15,15,15,1,0,1,,,1,FALSE,,,,,,,,,,,,,,,,,,,,,,,,,,,,,,,
,5edb46d311c02e7bc763c4d2,627c6f6bca0d625b1aa4ec9c,2022-05-12_14h36.46.260,classification_task,2021.2.3,MacIntel,59.99880002,627c6715c52fd12f31907bd0,,,,,,,,,,,,,,,,,,,,,,,a,1,0.5499,"[""0.235"",""0.387"",""0.718"",""0.915""]","[1,1,0,1]",0,16,16,16,1,0,1,,,1,FALSE,,,,,,,,,,,,,,,,,,,,,,,,,,,,,,,
,5edb46d311c02e7bc763c4d2,627c6f6bca0d625b1aa4ec9c,2022-05-12_14h36.46.260,classification_task,2021.2.3,MacIntel,59.99880002,627c6715c52fd12f31907bd0,,,,,,,,,,,,,,,,,,,,,,,a,1,0.649,"[""0.718"",""0.387"",""0.857"",""0.915""]","[0,1,1,1]",0,17,17,17,1,0,1,,,1,FALSE,,,,,,,,,,,,,,,,,,,,,,,,,,,,,,,
,5edb46d311c02e7bc763c4d2,627c6f6bca0d625b1aa4ec9c,2022-05-12_14h36.46.260,classification_task,2021.2.3,MacIntel,59.99880002,627c6715c52fd12f31907bd0,,,,,,,,,,,,,,,,,,,,,,,a,0,1.4435,"[""0.139"",""0.173"",""0.603"",""0.767""]","[0,1,1,1]",0,18,18,18,1,1,0,,,1,FALSE,,,,,,,,,,,,,,,,,,,,,,,,,,,,,,,
,5edb46d311c02e7bc763c4d2,627c6f6bca0d625b1aa4ec9c,2022-05-12_14h36.46.260,classification_task,2021.2.3,MacIntel,59.99880002,627c6715c52fd12f31907bd0,,,,,,,,,,,,,,,,,,,,,,,l,1,1.232300001,"[""0.063"",""0.308"",""0.428"",""0.802""]","[1,1,0,1]",0,19,19,19,1,1,1,,,1,FALSE,,,,,,,,,,,,,,,,,,,,,,,,,,,,,,,
,5edb46d311c02e7bc763c4d2,627c6f6bca0d625b1aa4ec9c,2022-05-12_14h36.46.260,classification_task,2021.2.3,MacIntel,59.99880002,627c6715c52fd12f31907bd0,,,,,,,,,,,,,,,,,,,,,,,a,0,0.6276,"[""0.027"",""0.173"",""0.440"",""0.767""]","[1,1,0,1]",0,20,20,20,1,1,0,,,1,FALSE,,,,,,,,,,,,,,,,,,,,,,,,,,,,,,,
,5edb46d311c02e7bc763c4d2,627c6f6bca0d625b1aa4ec9c,2022-05-12_14h36.46.260,classification_task,2021.2.3,MacIntel,59.99880002,627c6715c52fd12f31907bd0,,,,,,,,,,,,,,,,,,,,,,,a,1,1.505599998,"[""0.428"",""0.351"",""0.636"",""0.964""]","[0,1,1,1]",0,21,21,21,1,0,0,,,1,FALSE,,,,,,,,,,,,,,,,,,,,,,,,,,,,,,,
,5edb46d311c02e7bc763c4d2,627c6f6bca0d625b1aa4ec9c,2022-05-12_14h36.46.260,classification_task,2021.2.3,MacIntel,59.99880002,627c6715c52fd12f31907bd0,,,,,,,,,,,,,,,,,,,,,,,l,1,0.659799999,"[""0.063"",""0.308"",""0.476"",""0.548""]","[1,1,1,0]",0,22,22,22,1,1,1,,,1,FALSE,,,,,,,,,,,,,,,,,,,,,,,,,,,,,,,
,5edb46d311c02e7bc763c4d2,627c6f6bca0d625b1aa4ec9c,2022-05-12_14h36.46.260,classification_task,2021.2.3,MacIntel,59.99880002,627c6715c52fd12f31907bd0,,,,,,,,,,,,,,,,,,,,,,,a,1,1.071200001,"[""0.235"",""0.132"",""0.857"",""0.915""]","[1,0,1,1]",0,23,23,23,1,0,1,,,1,FALSE,,,,,,,,,,,,,,,,,,,,,,,,,,,,,,,
,5edb46d311c02e7bc763c4d2,627c6f6bca0d625b1aa4ec9c,2022-05-12_14h36.46.260,classification_task,2021.2.3,MacIntel,59.99880002,627c6715c52fd12f31907bd0,,,,,,,,,,,,,,,,,,,,,,,a,1,0.9266,"[""0.272"",""0.351"",""0.636"",""0.440""]","[1,1,1,0]",0,24,24,24,1,0,0,,,1,FALSE,,,,,,,,,,,,,,,,,,,,,,,,,,,,,,,
,5edb46d311c02e7bc763c4d2,627c6f6bca0d625b1aa4ec9c,2022-05-12_14h36.46.260,classification_task,2021.2.3,MacIntel,59.99880002,627c6715c52fd12f31907bd0,,,,,,,,,,,,,,,,,,,,,,,l,1,1.099199999,"[""0.063"",""0.566"",""0.476"",""0.802""]","[1,0,1,1]",0,25,25,25,1,1,1,,,1,FALSE,,,,,,,,,,,,,,,,,,,,,,,,,,,,,,,
,5edb46d311c02e7bc763c4d2,627c6f6bca0d625b1aa4ec9c,2022-05-12_14h36.46.260,classification_task,2021.2.3,MacIntel,59.99880002,627c6715c52fd12f31907bd0,,,,,,,,,,,,,,,,,,,,,,,a,1,0.967,"[""0.235"",""0.387"",""0.857"",""0.432""]","[1,1,1,0]",0,26,26,26,1,0,1,,,1,FALSE,,,,,,,,,,,,,,,,,,,,,,,,,,,,,,,
,5edb46d311c02e7bc763c4d2,627c6f6bca0d625b1aa4ec9c,2022-05-12_14h36.46.260,classification_task,2021.2.3,MacIntel,59.99880002,627c6715c52fd12f31907bd0,,,,,,,,,,,,,,,,,,,,,,,l,1,0.8979,"[""0.027"",""0.173"",""0.603"",""0.536""]","[1,1,1,0]",0,27,27,27,1,1,0,,,1,FALSE,,,,,,,,,,,,,,,,,,,,,,,,,,,,,,,
,5edb46d311c02e7bc763c4d2,627c6f6bca0d625b1aa4ec9c,2022-05-12_14h36.46.260,classification_task,2021.2.3,MacIntel,59.99880002,627c6715c52fd12f31907bd0,,,,,,,,,,,,,,,,,,,,,,,a,1,0.782300001,"[""0.272"",""0.548"",""0.636"",""0.964""]","[1,0,1,1]",0,28,28,28,1,0,0,,,1,FALSE,,,,,,,,,,,,,,,,,,,,,,,,,,,,,,,
,5edb46d311c02e7bc763c4d2,627c6f6bca0d625b1aa4ec9c,2022-05-12_14h36.46.260,classification_task,2021.2.3,MacIntel,59.99880002,627c6715c52fd12f31907bd0,,,,,,,,,,,,,,,,,,,,,,,l,1,0.711299999,"[""0.119"",""0.308"",""0.476"",""0.802""]","[0,1,1,1]",0,29,29,29,1,1,1,,,1,FALSE,,,,,,,,,,,,,,,,,,,,,,,,,,,,,,,
,5edb46d311c02e7bc763c4d2,627c6f6bca0d625b1aa4ec9c,2022-05-12_14h36.46.260,classification_task,2021.2.3,MacIntel,59.99880002,627c6715c52fd12f31907bd0,,,,,,,,,,,,,,,,,,,,,,,a,1,0.7091,"[""0.272"",""0.351"",""0.516"",""0.964""]","[1,1,0,1]",0,30,30,30,1,0,0,,,1,FALSE,,,,,,,,,,,,,,,,,,,,,,,,,,,,,,,
,5edb46d311c02e7bc763c4d2,627c6f6bca0d625b1aa4ec9c,2022-05-12_14h36.46.260,classification_task,2021.2.3,MacIntel,59.99880002,627c6715c52fd12f31907bd0,,,,,,,,,,,,,,,,,,,,,,,l,1,0.8356,"[""0.027"",""0.132"",""0.603"",""0.767""]","[1,0,1,1]",0,31,31,31,1,1,0,,,1,FALSE,,,,,,,,,,,,,,,,,,,,,,,,,,,,,,,
,5edb46d311c02e7bc763c4d2,627c6f6bca0d625b1aa4ec9c,2022-05-12_14h36.46.260,classification_task,2021.2.3,MacIntel,59.99880002,627c6715c52fd12f31907bd0,,,,,,,,,,,,,,,,,,,,,,,a,1,0.6869,"[""0.272"",""0.351"",""0.428"",""0.964""]","[1,1,0,1]",0,32,32,32,1,0,0,,,1,FALSE,,,,,,,,,,,,,,,,,,,,,,,,,,,,,,,
,5edb46d311c02e7bc763c4d2,627c6f6bca0d625b1aa4ec9c,2022-05-12_14h36.46.260,classification_task,2021.2.3,MacIntel,59.99880002,627c6715c52fd12f31907bd0,,,,,,,,,,,,,,,,,,,,,,,l,1,0.7014,"[""0.027"",""0.548"",""0.603"",""0.767""]","[1,0,1,1]",0,33,33,33,1,1,0,,,1,FALSE,,,,,,,,,,,,,,,,,,,,,,,,,,,,,,,
,5edb46d311c02e7bc763c4d2,627c6f6bca0d625b1aa4ec9c,2022-05-12_14h36.46.260,classification_task,2021.2.3,MacIntel,59.99880002,627c6715c52fd12f31907bd0,,,,,,,,,,,,,,,,,,,,,,,l,1,1.143599998,"[""0.063"",""0.725"",""0.476"",""0.802""]","[1,0,1,1]",0,34,34,34,1,1,1,,,1,FALSE,,,,,,,,,,,,,,,,,,,,,,,,,,,,,,,
,5edb46d311c02e7bc763c4d2,627c6f6bca0d625b1aa4ec9c,2022-05-12_14h36.46.260,classification_task,2021.2.3,MacIntel,59.99880002,627c6715c52fd12f31907bd0,,,,,,,,,,,,,,,,,,,,,,,l,1,0.5995,"[""0.063"",""0.308"",""0.476"",""0.110""]","[1,1,1,0]",0,35,35,35,1,1,1,,,1,FALSE,,,,,,,,,,,,,,,,,,,,,,,,,,,,,,,
,5edb46d311c02e7bc763c4d2,627c6f6bca0d625b1aa4ec9c,2022-05-12_14h36.46.260,classification_task,2021.2.3,MacIntel,59.99880002,627c6715c52fd12f31907bd0,,,,,,,,,,,,,,,,,,,,,,,l,1,0.878900002,"[""0.027"",""0.173"",""0.566"",""0.767""]","[1,1,0,1]",0,36,36,36,1,1,0,,,1,FALSE,,,,,,,,,,,,,,,,,,,,,,,,,,,,,,,
,5edb46d311c02e7bc763c4d2,627c6f6bca0d625b1aa4ec9c,2022-05-12_14h36.46.260,classification_task,2021.2.3,MacIntel,59.99880002,627c6715c52fd12f31907bd0,,,,,,,,,,,,,,,,,,,,,,,l,1,0.6764,"[""0.063"",""0.308"",""0.566"",""0.802""]","[1,1,0,1]",0,37,37,37,1,1,1,,,1,FALSE,,,,,,,,,,,,,,,,,,,,,,,,,,,,,,,
,5edb46d311c02e7bc763c4d2,627c6f6bca0d625b1aa4ec9c,2022-05-12_14h36.46.260,classification_task,2021.2.3,MacIntel,59.99880002,627c6715c52fd12f31907bd0,,,,,,,,,,,,,,,,,,,,,,,l,1,0.7826,"[""0.102"",""0.308"",""0.476"",""0.802""]","[0,1,1,1]",0,38,38,38,1,1,1,,,1,FALSE,,,,,,,,,,,,,,,,,,,,,,,,,,,,,,,
,5edb46d311c02e7bc763c4d2,627c6f6bca0d625b1aa4ec9c,2022-05-12_14h36.46.260,classification_task,2021.2.3,MacIntel,59.99880002,627c6715c52fd12f31907bd0,,,,,,,,,,,,,,,,,,,,,,,a,1,0.665800001,"[""0.235"",""0.387"",""0.857"",""0.132""]","[1,1,1,0]",0,39,39,39,1,0,1,,,1,FALSE,,,,,,,,,,,,,,,,,,,,,,,,,,,,,,,
,5edb46d311c02e7bc763c4d2,627c6f6bca0d625b1aa4ec9c,2022-05-12_14h36.46.260,classification_task,2021.2.3,MacIntel,59.99880002,627c6715c52fd12f31907bd0,,,,,,,,,,,,,,,,,,,,,,,a,1,0.5984,"[""0.235"",""0.516"",""0.857"",""0.915""]","[1,0,1,1]",0,40,40,40,1,0,1,,,1,FALSE,,,,,,,,,,,,,,,,,,,,,,,,,,,,,,,
,5edb46d311c02e7bc763c4d2,627c6f6bca0d625b1aa4ec9c,2022-05-12_14h36.46.260,classification_task,2021.2.3,MacIntel,59.99880002,627c6715c52fd12f31907bd0,,,,,,,,,,,,,,,,,,,,,,,l,0,0.544099998,"[""0.428"",""0.351"",""0.636"",""0.964""]","[0,1,1,1]",0,41,41,41,1,0,0,,,1,FALSE,,,,,,,,,,,,,,,,,,,,,,,,,,,,,,,
,5edb46d311c02e7bc763c4d2,627c6f6bca0d625b1aa4ec9c,2022-05-12_14h36.46.260,classification_task,2021.2.3,MacIntel,59.99880002,627c6715c52fd12f31907bd0,,,,,,,,,,,,,,,,,,,,,,,l,0,0.816,"[""0.235"",""0.387"",""0.139"",""0.915""]","[1,1,0,1]",0,42,42,42,1,0,1,,,1,FALSE,,,,,,,,,,,,,,,,,,,,,,,,,,,,,,,
,5edb46d311c02e7bc763c4d2,627c6f6bca0d625b1aa4ec9c,2022-05-12_14h36.46.260,classification_task,2021.2.3,MacIntel,59.99880002,627c6715c52fd12f31907bd0,,,,,,,,,,,,,,,,,,,,,,,l,1,2.717200001,"[""0.027"",""0.173"",""0.603"",""0.685""]","[1,1,1,0]",0,43,43,43,1,1,0,,,1,FALSE,,,,,,,,,,,,,,,,,,,,,,,,,,,,,,,
,5edb46d311c02e7bc763c4d2,627c6f6bca0d625b1aa4ec9c,2022-05-12_14h36.46.260,classification_task,2021.2.3,MacIntel,59.99880002,627c6715c52fd12f31907bd0,,,,,,,,,,,,,,,,,,,,,,,a,1,0.6169,"[""0.566"",""0.387"",""0.857"",""0.915""]","[0,1,1,1]",0,44,44,44,1,0,1,,,1,FALSE,,,,,,,,,,,,,,,,,,,,,,,,,,,,,,,
,5edb46d311c02e7bc763c4d2,627c6f6bca0d625b1aa4ec9c,2022-05-12_14h36.46.260,classification_task,2021.2.3,MacIntel,59.99880002,627c6715c52fd12f31907bd0,,,,,,,,,,,,,,,,,,,,,,,a,0,1.076200001,"[""0.516"",""0.173"",""0.603"",""0.767""]","[0,1,1,1]",0,45,45,45,1,1,0,,,1,FALSE,,,,,,,,,,,,,,,,,,,,,,,,,,,,,,,
,5edb46d311c02e7bc763c4d2,627c6f6bca0d625b1aa4ec9c,2022-05-12_14h36.46.260,classification_task,2021.2.3,MacIntel,59.99880002,627c6715c52fd12f31907bd0,,,,,,,,,,,,,,,,,,,,,,,a,1,0.600799999,"[""0.272"",""0.351"",""0.636"",""0.516""]","[1,1,1,0]",0,46,46,46,1,0,0,,,1,FALSE,,,,,,,,,,,,,,,,,,,,,,,,,,,,,,,
,5edb46d311c02e7bc763c4d2,627c6f6bca0d625b1aa4ec9c,2022-05-12_14h36.46.260,classification_task,2021.2.3,MacIntel,59.99880002,627c6715c52fd12f31907bd0,,,,,,,,,,,,,,,,,,,,,,,l,0,0.888299999,"[""0.272"",""0.134"",""0.636"",""0.964""]","[1,0,1,1]",0,47,47,47,1,0,0,,,1,FALSE,,,,,,,,,,,,,,,,,,,,,,,,,,,,,,,
,5edb46d311c02e7bc763c4d2,627c6f6bca0d625b1aa4ec9c,2022-05-12_14h36.46.260,classification_task,2021.2.3,MacIntel,59.99880002,627c6715c52fd12f31907bd0,,,,,,,,,,,,,,,,,,,,,,,l,1,0.9154,"[""0.027"",""0.173"",""0.536"",""0.767""]","[1,1,0,1]",0,48,48,48,1,1,0,,,1,FALSE,,,,,,,,,,,,,,,,,,,,,,,,,,,,,,,
,5edb46d311c02e7bc763c4d2,627c6f6bca0d625b1aa4ec9c,2022-05-12_14h36.46.260,classification_task,2021.2.3,MacIntel,59.99880002,627c6715c52fd12f31907bd0,,,,,,,,,,,,,,,,,,,,,,,a,1,1.5635,"[""0.235"",""0.387"",""0.857"",""0.139""]","[1,1,1,0]",0,49,49,49,1,0,1,,,1,FALSE,,,,,,,,,,,,,,,,,,,,,,,,,,,,,,,
,5edb46d311c02e7bc763c4d2,627c6f6bca0d625b1aa4ec9c,2022-05-12_14h36.46.260,classification_task,2021.2.3,MacIntel,59.99880002,627c6715c52fd12f31907bd0,,,,,,,,,,,,,,,,,,,,,,,l,1,1.000300001,"[""0.027"",""0.173"",""0.603"",""0.134""]","[1,1,1,0]",0,50,50,50,1,1,0,,,1,FALSE,,,,,,,,,,,,,,,,,,,,,,,,,,,,,,,
,5edb46d311c02e7bc763c4d2,627c6f6bca0d625b1aa4ec9c,2022-05-12_14h36.46.260,classification_task,2021.2.3,MacIntel,59.99880002,627c6715c52fd12f31907bd0,,,,,,,,,,,,,,,,,,,,,,,l,1,1.0756,"[""0.063"",""0.134"",""0.476"",""0.802""]","[1,0,1,1]",0,51,51,51,1,1,1,,,1,FALSE,,,,,,,,,,,,,,,,,,,,,,,,,,,,,,,
,5edb46d311c02e7bc763c4d2,627c6f6bca0d625b1aa4ec9c,2022-05-12_14h36.46.260,classification_task,2021.2.3,MacIntel,59.99880002,627c6715c52fd12f31907bd0,,,,,,,,,,,,,,,,,,,,,,,l,1,0.933700001,"[""0.063"",""0.308"",""0.476"",""0.566""]","[1,1,1,0]",0,52,52,52,1,1,1,,,1,FALSE,,,,,,,,,,,,,,,,,,,,,,,,,,,,,,,
,5edb46d311c02e7bc763c4d2,627c6f6bca0d625b1aa4ec9c,2022-05-12_14h36.46.260,classification_task,2021.2.3,MacIntel,59.99880002,627c6715c52fd12f31907bd0,,,,,,,,,,,,,,,,,,,,,,,l,1,1.3831,"[""0.027"",""0.718"",""0.603"",""0.767""]","[1,0,1,1]",0,53,53,53,1,1,0,,,1,FALSE,,,,,,,,,,,,,,,,,,,,,,,,,,,,,,,
,5edb46d311c02e7bc763c4d2,627c6f6bca0d625b1aa4ec9c,2022-05-12_14h36.46.260,classification_task,2021.2.3,MacIntel,59.99880002,627c6715c52fd12f31907bd0,,,,,,,,,,,,,,,,,,,,,,,a,1,1.059700001,"[""0.110"",""0.387"",""0.857"",""0.915""]","[0,1,1,1]",0,54,54,54,1,0,1,,,1,FALSE,,,,,,,,,,,,,,,,,,,,,,,,,,,,,,,
,5edb46d311c02e7bc763c4d2,627c6f6bca0d625b1aa4ec9c,2022-05-12_14h36.46.260,classification_task,2021.2.3,MacIntel,59.99880002,627c6715c52fd12f31907bd0,,,,,,,,,,,,,,,,,,,,,,,a,1,1.2859,"[""0.272"",""0.351"",""0.636"",""0.432""]","[1,1,1,0]",0,55,55,55,1,0,0,,,1,FALSE,,,,,,,,,,,,,,,,,,,,,,,,,,,,,,,
,5edb46d311c02e7bc763c4d2,627c6f6bca0d625b1aa4ec9c,2022-05-12_14h36.46.260,classification_task,2021.2.3,MacIntel,59.99880002,627c6715c52fd12f31907bd0,,,,,,,,,,,,,,,,,,,,,,,l,1,0.8921,"[""0.536"",""0.308"",""0.476"",""0.802""]","[0,1,1,1]",0,56,56,56,1,1,1,,,1,FALSE,,,,,,,,,,,,,,,,,,,,,,,,,,,,,,,
,5edb46d311c02e7bc763c4d2,627c6f6bca0d625b1aa4ec9c,2022-05-12_14h36.46.260,classification_task,2021.2.3,MacIntel,59.99880002,627c6715c52fd12f31907bd0,,,,,,,,,,,,,,,,,,,,,,,l,1,1.003800001,"[""0.063"",""0.308"",""0.440"",""0.802""]","[1,1,0,1]",0,57,57,57,1,1,1,,,1,FALSE,,,,,,,,,,,,,,,,,,,,,,,,,,,,,,,
,5edb46d311c02e7bc763c4d2,627c6f6bca0d625b1aa4ec9c,2022-05-12_14h36.46.260,classification_task,2021.2.3,MacIntel,59.99880002,627c6715c52fd12f31907bd0,,,,,,,,,,,,,,,,,,,,,,,a,1,1.178200001,"[""0.272"",""0.351"",""0.440"",""0.964""]","[1,1,0,1]",0,58,58,58,1,0,0,,,1,FALSE,,,,,,,,,,,,,,,,,,,,,,,,,,,,,,,
,5edb46d311c02e7bc763c4d2,627c6f6bca0d625b1aa4ec9c,2022-05-12_14h36.46.260,classification_task,2021.2.3,MacIntel,59.99880002,627c6715c52fd12f31907bd0,,,,,,,,,,,,,,,,,,,,,,,a,1,0.983,"[""0.725"",""0.351"",""0.636"",""0.964""]","[0,1,1,1]",0,59,59,59,1,0,0,,,1,FALSE,,,,,,,,,,,,,,,,,,,,,,,,,,,,,,,
,5edb46d311c02e7bc763c4d2,627c6f6bca0d625b1aa4ec9c,2022-05-12_14h36.46.260,classification_task,2021.2.3,MacIntel,59.99880002,627c6715c52fd12f31907bd0,,,,,,,,,,,,,,,,,,,,,,,l,1,1.0835,"[""0.725"",""0.173"",""0.603"",""0.767""]","[0,1,1,1]",0,60,60,60,1,1,0,,,1,FALSE,,,,,,,,,,,,,,,,,,,,,,,,,,,,,,,
,5edb46d311c02e7bc763c4d2,627c6f6bca0d625b1aa4ec9c,2022-05-12_14h36.46.260,classification_task,2021.2.3,MacIntel,59.99880002,627c6715c52fd12f31907bd0,,,,,,,,,,,,,,,,,,,,,,,a,1,0.912700001,"[""0.235"",""0.387"",""0.718"",""0.915""]","[1,1,0,1]",0,61,61,61,1,0,1,,,1,FALSE,,,,,,,,,,,,,,,,,,,,,,,,,,,,,,,
,5edb46d311c02e7bc763c4d2,627c6f6bca0d625b1aa4ec9c,2022-05-12_14h36.46.260,classification_task,2021.2.3,MacIntel,59.99880002,627c6715c52fd12f31907bd0,,,,,,,,,,,,,,,,,,,,,,,a,1,1.5441,"[""0.272"",""0.432"",""0.636"",""0.964""]","[1,0,1,1]",0,62,62,62,1,0,0,,,1,FALSE,,,,,,,,,,,,,,,,,,,,,,,,,,,,,,,
,5edb46d311c02e7bc763c4d2,627c6f6bca0d625b1aa4ec9c,2022-05-12_14h36.46.260,classification_task,2021.2.3,MacIntel,59.99880002,627c6715c52fd12f31907bd0,,,,,,,,,,,,,,,,,,,,,,,a,1,2.4594,"[""0.235"",""0.110"",""0.857"",""0.915""]","[1,0,1,1]",0,63,63,63,1,0,1,,,1,FALSE,,,,,,,,,,,,,,,,,,,,,,,,,,,,,,,
,5edb46d311c02e7bc763c4d2,627c6f6bca0d625b1aa4ec9c,2022-05-12_14h36.46.260,classification_task,2021.2.3,MacIntel,59.99880002,627c6715c52fd12f31907bd0,,,,,,,,,,,,,,,,,,,,,,,,,,,,,,,,,,,,,,,0, ,,0,1.076067387,136.5139,0,1,1,1,1,2,2,,,,,,,,,,,,,,,,,,
,5edb46d311c02e7bc763c4d2,627c6f6bca0d625b1aa4ec9c,2022-05-12_14h36.46.260,classification_task,2021.2.3,MacIntel,59.99880002,627c6715c52fd12f31907bd0,,,,,,,,,,,,,,,,,,,,,,,,,,,,,,,,,,,,,,,1,  ,,0,1.213853983,138.6303,0,1,1,1,1,2,2,,,,,,,,,,,,,,,,,,
,5edb46d311c02e7bc763c4d2,627c6f6bca0d625b1aa4ec9c,2022-05-12_14h36.46.260,classification_task,2021.2.3,MacIntel,59.99880002,627c6715c52fd12f31907bd0,,,,,,,,,,,,,,,,,,,,,,,,,,,,,,,,,,,,,,,2,  ,,0,0.922894621,140.0709,0,1,1,1,1,2,2,,,,,,,,,,,,,,,,,,
,5edb46d311c02e7bc763c4d2,627c6f6bca0d625b1aa4ec9c,2022-05-12_14h36.46.260,classification_task,2021.2.3,MacIntel,59.99880002,627c6715c52fd12f31907bd0,,,,,,,,,,,,,,,,,,,,,,,,,,,,,,,,,,,,,,,,,,,,,0,1,1,1,1,,2,,,,,,,,,,,,,,,,,,
,5edb46d311c02e7bc763c4d2,627c6f6bca0d625b1aa4ec9c,2022-05-12_14h36.46.260,classification_task,2021.2.3,MacIntel,59.99880002,627c6715c52fd12f31907bd0,,,,,,,,,,,,,,,,,,,,,space,1.6849,l,1,1.430800001,"[""0.063"",""0.308"",""0.516"",""0.802""]","[1,1,0,1]",0,0,0,0,1,1,1,,,1,FALSE,,,,,,,,,,,,,,,,,,,,,,,,,,,,,,,
,5edb46d311c02e7bc763c4d2,627c6f6bca0d625b1aa4ec9c,2022-05-12_14h36.46.260,classification_task,2021.2.3,MacIntel,59.99880002,627c6715c52fd12f31907bd0,,,,,,,,,,,,,,,,,,,,,,,l,0,1.805200001,"[""0.272"",""0.351"",""0.134"",""0.964""]","[1,1,0,1]",0,1,1,1,1,0,0,,,1,FALSE,,,,,,,,,,,,,,,,,,,,,,,,,,,,,,,
,5edb46d311c02e7bc763c4d2,627c6f6bca0d625b1aa4ec9c,2022-05-12_14h36.46.260,classification_task,2021.2.3,MacIntel,59.99880002,627c6715c52fd12f31907bd0,,,,,,,,,,,,,,,,,,,,,,,l,1,1.655699999,"[""0.119"",""0.173"",""0.603"",""0.767""]","[0,1,1,1]",0,2,2,2,1,1,0,,,1,FALSE,,,,,,,,,,,,,,,,,,,,,,,,,,,,,,,
,5edb46d311c02e7bc763c4d2,627c6f6bca0d625b1aa4ec9c,2022-05-12_14h36.46.260,classification_task,2021.2.3,MacIntel,59.99880002,627c6715c52fd12f31907bd0,,,,,,,,,,,,,,,,,,,,,,,a,1,1.0581,"[""0.272"",""0.351"",""0.636"",""0.432""]","[1,1,1,0]",0,3,3,3,1,0,0,,,1,FALSE,,,,,,,,,,,,,,,,,,,,,,,,,,,,,,,
,5edb46d311c02e7bc763c4d2,627c6f6bca0d625b1aa4ec9c,2022-05-12_14h36.46.260,classification_task,2021.2.3,MacIntel,59.99880002,627c6715c52fd12f31907bd0,,,,,,,,,,,,,,,,,,,,,,,a,1,1.1565,"[""0.235"",""0.387"",""0.566"",""0.915""]","[1,1,0,1]",0,4,4,4,1,0,1,,,1,FALSE,,,,,,,,,,,,,,,,,,,,,,,,,,,,,,,
,5edb46d311c02e7bc763c4d2,627c6f6bca0d625b1aa4ec9c,2022-05-12_14h36.46.260,classification_task,2021.2.3,MacIntel,59.99880002,627c6715c52fd12f31907bd0,,,,,,,,,,,,,,,,,,,,,,,a,0,1.268200001,"[""0.536"",""0.308"",""0.476"",""0.802""]","[0,1,1,1]",0,5,5,5,1,1,1,,,1,FALSE,,,,,,,,,,,,,,,,,,,,,,,,,,,,,,,
,5edb46d311c02e7bc763c4d2,627c6f6bca0d625b1aa4ec9c,2022-05-12_14h36.46.260,classification_task,2021.2.3,MacIntel,59.99880002,627c6715c52fd12f31907bd0,,,,,,,,,,,,,,,,,,,,,,,a,1,0.7415,"[""0.235"",""0.432"",""0.857"",""0.915""]","[1,0,1,1]",0,6,6,6,1,0,1,,,1,FALSE,,,,,,,,,,,,,,,,,,,,,,,,,,,,,,,
,5edb46d311c02e7bc763c4d2,627c6f6bca0d625b1aa4ec9c,2022-05-12_14h36.46.260,classification_task,2021.2.3,MacIntel,59.99880002,627c6715c52fd12f31907bd0,,,,,,,,,,,,,,,,,,,,,,,l,1,0.766799999,"[""0.063"",""0.308"",""0.476"",""0.110""]","[1,1,1,0]",0,7,7,7,1,1,1,,,1,FALSE,,,,,,,,,,,,,,,,,,,,,,,,,,,,,,,
,5edb46d311c02e7bc763c4d2,627c6f6bca0d625b1aa4ec9c,2022-05-12_14h36.46.260,classification_task,2021.2.3,MacIntel,59.99880002,627c6715c52fd12f31907bd0,,,,,,,,,,,,,,,,,,,,,,,a,1,0.873199999,"[""0.725"",""0.351"",""0.636"",""0.964""]","[0,1,1,1]",0,8,8,8,1,0,0,,,1,FALSE,,,,,,,,,,,,,,,,,,,,,,,,,,,,,,,
,5edb46d311c02e7bc763c4d2,627c6f6bca0d625b1aa4ec9c,2022-05-12_14h36.46.260,classification_task,2021.2.3,MacIntel,59.99880002,627c6715c52fd12f31907bd0,,,,,,,,,,,,,,,,,,,,,,,l,0,1.534799999,"[""0.272"",""0.102"",""0.636"",""0.964""]","[1,0,1,1]",0,9,9,9,1,0,0,,,1,FALSE,,,,,,,,,,,,,,,,,,,,,,,,,,,,,,,
,5edb46d311c02e7bc763c4d2,627c6f6bca0d625b1aa4ec9c,2022-05-12_14h36.46.260,classification_task,2021.2.3,MacIntel,59.99880002,627c6715c52fd12f31907bd0,,,,,,,,,,,,,,,,,,,,,,,l,1,0.7695,"[""0.027"",""0.173"",""0.566"",""0.767""]","[1,1,0,1]",0,10,10,10,1,1,0,,,1,FALSE,,,,,,,,,,,,,,,,,,,,,,,,,,,,,,,
,5edb46d311c02e7bc763c4d2,627c6f6bca0d625b1aa4ec9c,2022-05-12_14h36.46.260,classification_task,2021.2.3,MacIntel,59.99880002,627c6715c52fd12f31907bd0,,,,,,,,,,,,,,,,,,,,,,,l,1,0.8831,"[""0.063"",""0.119"",""0.476"",""0.802""]","[1,0,1,1]",0,11,11,11,1,1,1,,,1,FALSE,,,,,,,,,,,,,,,,,,,,,,,,,,,,,,,
,5edb46d311c02e7bc763c4d2,627c6f6bca0d625b1aa4ec9c,2022-05-12_14h36.46.260,classification_task,2021.2.3,MacIntel,59.99880002,627c6715c52fd12f31907bd0,,,,,,,,,,,,,,,,,,,,,,,l,0,0.834,"[""0.102"",""0.387"",""0.857"",""0.915""]","[0,1,1,1]",0,12,12,12,1,0,1,,,1,FALSE,,,,,,,,,,,,,,,,,,,,,,,,,,,,,,,
,5edb46d311c02e7bc763c4d2,627c6f6bca0d625b1aa4ec9c,2022-05-12_14h36.46.260,classification_task,2021.2.3,MacIntel,59.99880002,627c6715c52fd12f31907bd0,,,,,,,,,,,,,,,,,,,,,,,l,0,0.805199999,"[""0.235"",""0.387"",""0.857"",""0.102""]","[1,1,1,0]",0,13,13,13,1,0,1,,,1,FALSE,,,,,,,,,,,,,,,,,,,,,,,,,,,,,,,
,5edb46d311c02e7bc763c4d2,627c6f6bca0d625b1aa4ec9c,2022-05-12_14h36.46.260,classification_task,2021.2.3,MacIntel,59.99880002,627c6715c52fd12f31907bd0,,,,,,,,,,,,,,,,,,,,,,,l,1,0.800299999,"[""0.027"",""0.173"",""0.603"",""0.119""]","[1,1,1,0]",0,14,14,14,1,1,0,,,1,FALSE,,,,,,,,,,,,,,,,,,,,,,,,,,,,,,,
,5edb46d311c02e7bc763c4d2,627c6f6bca0d625b1aa4ec9c,2022-05-12_14h36.46.260,classification_task,2021.2.3,MacIntel,59.99880002,627c6715c52fd12f31907bd0,,,,,,,,,,,,,,,,,,,,,,,l,1,0.5825,"[""0.027"",""0.134"",""0.603"",""0.767""]","[1,0,1,1]",0,15,15,15,1,1,0,,,1,FALSE,,,,,,,,,,,,,,,,,,,,,,,,,,,,,,,
,5edb46d311c02e7bc763c4d2,627c6f6bca0d625b1aa4ec9c,2022-05-12_14h36.46.260,classification_task,2021.2.3,MacIntel,59.99880002,627c6715c52fd12f31907bd0,,,,,,,,,,,,,,,,,,,,,,,l,0,0.850900002,"[""0.235"",""0.387"",""0.102"",""0.915""]","[1,1,0,1]",0,16,16,16,1,0,1,,,1,FALSE,,,,,,,,,,,,,,,,,,,,,,,,,,,,,,,
,5edb46d311c02e7bc763c4d2,627c6f6bca0d625b1aa4ec9c,2022-05-12_14h36.46.260,classification_task,2021.2.3,MacIntel,59.99880002,627c6715c52fd12f31907bd0,,,,,,,,,,,,,,,,,,,,,,,a,1,1.051799999,"[""0.685"",""0.387"",""0.857"",""0.915""]","[0,1,1,1]",0,17,17,17,1,0,1,,,1,FALSE,,,,,,,,,,,,,,,,,,,,,,,,,,,,,,,
,5edb46d311c02e7bc763c4d2,627c6f6bca0d625b1aa4ec9c,2022-05-12_14h36.46.260,classification_task,2021.2.3,MacIntel,59.99880002,627c6715c52fd12f31907bd0,,,,,,,,,,,,,,,,,,,,,,,l,1,0.7344,"[""0.027"",""0.173"",""0.119"",""0.767""]","[1,1,0,1]",0,18,18,18,1,1,0,,,1,FALSE,,,,,,,,,,,,,,,,,,,,,,,,,,,,,,,
,5edb46d311c02e7bc763c4d2,627c6f6bca0d625b1aa4ec9c,2022-05-12_14h36.46.260,classification_task,2021.2.3,MacIntel,59.99880002,627c6715c52fd12f31907bd0,,,,,,,,,,,,,,,,,,,,,,,a,0,1.3501,"[""0.440"",""0.173"",""0.603"",""0.767""]","[0,1,1,1]",0,19,19,19,1,1,0,,,1,FALSE,,,,,,,,,,,,,,,,,,,,,,,,,,,,,,,
,5edb46d311c02e7bc763c4d2,627c6f6bca0d625b1aa4ec9c,2022-05-12_14h36.46.260,classification_task,2021.2.3,MacIntel,59.99880002,627c6715c52fd12f31907bd0,,,,,,,,,,,,,,,,,,,,,,,a,0,1.000700001,"[""0.440"",""0.308"",""0.476"",""0.802""]","[0,1,1,1]",0,20,20,20,1,1,1,,,1,FALSE,,,,,,,,,,,,,,,,,,,,,,,,,,,,,,,
,5edb46d311c02e7bc763c4d2,627c6f6bca0d625b1aa4ec9c,2022-05-12_14h36.46.260,classification_task,2021.2.3,MacIntel,59.99880002,627c6715c52fd12f31907bd0,,,,,,,,,,,,,,,,,,,,,,,a,1,1.003,"[""0.235"",""0.119"",""0.857"",""0.915""]","[1,0,1,1]",0,21,21,21,1,0,1,,,1,FALSE,,,,,,,,,,,,,,,,,,,,,,,,,,,,,,,
,5edb46d311c02e7bc763c4d2,627c6f6bca0d625b1aa4ec9c,2022-05-12_14h36.46.260,classification_task,2021.2.3,MacIntel,59.99880002,627c6715c52fd12f31907bd0,,,,,,,,,,,,,,,,,,,,,,,a,1,0.8019,"[""0.718"",""0.351"",""0.636"",""0.964""]","[0,1,1,1]",0,22,22,22,1,0,0,,,1,FALSE,,,,,,,,,,,,,,,,,,,,,,,,,,,,,,,
,5edb46d311c02e7bc763c4d2,627c6f6bca0d625b1aa4ec9c,2022-05-12_14h36.46.260,classification_task,2021.2.3,MacIntel,59.99880002,627c6715c52fd12f31907bd0,,,,,,,,,,,,,,,,,,,,,,,l,1,0.999299999,"[""0.063"",""0.308"",""0.110"",""0.802""]","[1,1,0,1]",0,23,23,23,1,1,1,,,1,FALSE,,,,,,,,,,,,,,,,,,,,,,,,,,,,,,,
,5edb46d311c02e7bc763c4d2,627c6f6bca0d625b1aa4ec9c,2022-05-12_14h36.46.260,classification_task,2021.2.3,MacIntel,59.99880002,627c6715c52fd12f31907bd0,,,,,,,,,,,,,,,,,,,,,,,a,1,0.686,"[""0.272"",""0.351"",""0.636"",""0.548""]","[1,1,1,0]",0,24,24,24,1,0,0,,,1,FALSE,,,,,,,,,,,,,,,,,,,,,,,,,,,,,,,
,5edb46d311c02e7bc763c4d2,627c6f6bca0d625b1aa4ec9c,2022-05-12_14h36.46.260,classification_task,2021.2.3,MacIntel,59.99880002,627c6715c52fd12f31907bd0,,,,,,,,,,,,,,,,,,,,,,,l,1,0.716799999,"[""0.063"",""0.308"",""0.476"",""0.685""]","[1,1,1,0]",0,25,25,25,1,1,1,,,1,FALSE,,,,,,,,,,,,,,,,,,,,,,,,,,,,,,,
,5edb46d311c02e7bc763c4d2,627c6f6bca0d625b1aa4ec9c,2022-05-12_14h36.46.260,classification_task,2021.2.3,MacIntel,59.99880002,627c6715c52fd12f31907bd0,,,,,,,,,,,,,,,,,,,,,,,l,0,0.9345,"[""0.272"",""0.351"",""0.102"",""0.964""]","[1,1,0,1]",0,26,26,26,1,0,0,,,1,FALSE,,,,,,,,,,,,,,,,,,,,,,,,,,,,,,,
,5edb46d311c02e7bc763c4d2,627c6f6bca0d625b1aa4ec9c,2022-05-12_14h36.46.260,classification_task,2021.2.3,MacIntel,59.99880002,627c6715c52fd12f31907bd0,,,,,,,,,,,,,,,,,,,,,,,l,1,0.5836,"[""0.027"",""0.516"",""0.603"",""0.767""]","[1,0,1,1]",0,27,27,27,1,1,0,,,1,FALSE,,,,,,,,,,,,,,,,,,,,,,,,,,,,,,,
,5edb46d311c02e7bc763c4d2,627c6f6bca0d625b1aa4ec9c,2022-05-12_14h36.46.260,classification_task,2021.2.3,MacIntel,59.99880002,627c6715c52fd12f31907bd0,,,,,,,,,,,,,,,,,,,,,,,l,1,1.084,"[""0.063"",""0.536"",""0.476"",""0.802""]","[1,0,1,1]",0,28,28,28,1,1,1,,,1,FALSE,,,,,,,,,,,,,,,,,,,,,,,,,,,,,,,
,5edb46d311c02e7bc763c4d2,627c6f6bca0d625b1aa4ec9c,2022-05-12_14h36.46.260,classification_task,2021.2.3,MacIntel,59.99880002,627c6715c52fd12f31907bd0,,,,,,,,,,,,,,,,,,,,,,,a,1,0.653,"[""0.272"",""0.548"",""0.636"",""0.964""]","[1,0,1,1]",0,29,29,29,1,0,0,,,1,FALSE,,,,,,,,,,,,,,,,,,,,,,,,,,,,,,,
,5edb46d311c02e7bc763c4d2,627c6f6bca0d625b1aa4ec9c,2022-05-12_14h36.46.260,classification_task,2021.2.3,MacIntel,59.99880002,627c6715c52fd12f31907bd0,,,,,,,,,,,,,,,,,,,,,,,l,1,0.75,"[""0.027"",""0.173"",""0.603"",""0.428""]","[1,1,1,0]",0,30,30,30,1,1,0,,,1,FALSE,,,,,,,,,,,,,,,,,,,,,,,,,,,,,,,
,5edb46d311c02e7bc763c4d2,627c6f6bca0d625b1aa4ec9c,2022-05-12_14h36.46.260,classification_task,2021.2.3,MacIntel,59.99880002,627c6715c52fd12f31907bd0,,,,,,,,,,,,,,,,,,,,,,,l,0,1.506,"[""0.235"",""0.387"",""0.857"",""0.119""]","[1,1,1,0]",0,31,31,31,1,0,1,,,1,FALSE,,,,,,,,,,,,,,,,,,,,,,,,,,,,,,,
,5edb46d311c02e7bc763c4d2,627c6f6bca0d625b1aa4ec9c,2022-05-12_14h36.46.260,classification_task,2021.2.3,MacIntel,59.99880002,627c6715c52fd12f31907bd0,,,,,,,,,,,,,,,,,,,,,,,a,1,0.769700001,"[""0.235"",""0.387"",""0.857"",""0.566""]","[1,1,1,0]",0,32,32,32,1,0,1,,,1,FALSE,,,,,,,,,,,,,,,,,,,,,,,,,,,,,,,
,5edb46d311c02e7bc763c4d2,627c6f6bca0d625b1aa4ec9c,2022-05-12_14h36.46.260,classification_task,2021.2.3,MacIntel,59.99880002,627c6715c52fd12f31907bd0,,,,,,,,,,,,,,,,,,,,,,,l,1,0.767700001,"[""0.063"",""0.685"",""0.476"",""0.802""]","[1,0,1,1]",0,33,33,33,1,1,1,,,1,FALSE,,,,,,,,,,,,,,,,,,,,,,,,,,,,,,,
,5edb46d311c02e7bc763c4d2,627c6f6bca0d625b1aa4ec9c,2022-05-12_14h36.46.260,classification_task,2021.2.3,MacIntel,59.99880002,627c6715c52fd12f31907bd0,,,,,,,,,,,,,,,,,,,,,,,l,1,0.7369,"[""0.027"",""0.173"",""0.603"",""0.440""]","[1,1,1,0]",0,34,34,34,1,1,0,,,1,FALSE,,,,,,,,,,,,,,,,,,,,,,,,,,,,,,,
,5edb46d311c02e7bc763c4d2,627c6f6bca0d625b1aa4ec9c,2022-05-12_14h36.46.260,classification_task,2021.2.3,MacIntel,59.99880002,627c6715c52fd12f31907bd0,,,,,,,,,,,,,,,,,,,,,,,a,0,1.033300001,"[""0.536"",""0.173"",""0.603"",""0.767""]","[0,1,1,1]",0,35,35,35,1,1,0,,,1,FALSE,,,,,,,,,,,,,,,,,,,,,,,,,,,,,,,
,5edb46d311c02e7bc763c4d2,627c6f6bca0d625b1aa4ec9c,2022-05-12_14h36.46.260,classification_task,2021.2.3,MacIntel,59.99880002,627c6715c52fd12f31907bd0,,,,,,,,,,,,,,,,,,,,,,,a,0,1.024300001,"[""0.548"",""0.308"",""0.476"",""0.802""]","[0,1,1,1]",0,36,36,36,1,1,1,,,1,FALSE,,,,,,,,,,,,,,,,,,,,,,,,,,,,,,,
,5edb46d311c02e7bc763c4d2,627c6f6bca0d625b1aa4ec9c,2022-05-12_14h36.46.260,classification_task,2021.2.3,MacIntel,59.99880002,627c6715c52fd12f31907bd0,,,,,,,,,,,,,,,,,,,,,,,a,1,0.750599998,"[""0.272"",""0.351"",""0.428"",""0.964""]","[1,1,0,1]",0,37,37,37,1,0,0,,,1,FALSE,,,,,,,,,,,,,,,,,,,,,,,,,,,,,,,
,5edb46d311c02e7bc763c4d2,627c6f6bca0d625b1aa4ec9c,2022-05-12_14h36.46.260,classification_task,2021.2.3,MacIntel,59.99880002,627c6715c52fd12f31907bd0,,,,,,,,,,,,,,,,,,,,,,,a,1,0.637,"[""0.235"",""0.516"",""0.857"",""0.915""]","[1,0,1,1]",0,38,38,38,1,0,1,,,1,FALSE,,,,,,,,,,,,,,,,,,,,,,,,,,,,,,,
,5edb46d311c02e7bc763c4d2,627c6f6bca0d625b1aa4ec9c,2022-05-12_14h36.46.260,classification_task,2021.2.3,MacIntel,59.99880002,627c6715c52fd12f31907bd0,,,,,,,,,,,,,,,,,,,,,,,a,1,0.5834,"[""0.272"",""0.351"",""0.636"",""0.432""]","[1,1,1,0]",0,39,39,39,1,0,0,,,1,FALSE,,,,,,,,,,,,,,,,,,,,,,,,,,,,,,,
,5edb46d311c02e7bc763c4d2,627c6f6bca0d625b1aa4ec9c,2022-05-12_14h36.46.260,classification_task,2021.2.3,MacIntel,59.99880002,627c6715c52fd12f31907bd0,,,,,,,,,,,,,,,,,,,,,,,l,1,0.7664,"[""0.027"",""0.173"",""0.139"",""0.767""]","[1,1,0,1]",0,40,40,40,1,1,0,,,1,FALSE,,,,,,,,,,,,,,,,,,,,,,,,,,,,,,,
,5edb46d311c02e7bc763c4d2,627c6f6bca0d625b1aa4ec9c,2022-05-12_14h36.46.260,classification_task,2021.2.3,MacIntel,59.99880002,627c6715c52fd12f31907bd0,,,,,,,,,,,,,,,,,,,,,,,l,1,0.666200001,"[""0.027"",""0.139"",""0.603"",""0.767""]","[1,0,1,1]",0,41,41,41,1,1,0,,,1,FALSE,,,,,,,,,,,,,,,,,,,,,,,,,,,,,,,
,5edb46d311c02e7bc763c4d2,627c6f6bca0d625b1aa4ec9c,2022-05-12_14h36.46.260,classification_task,2021.2.3,MacIntel,59.99880002,627c6715c52fd12f31907bd0,,,,,,,,,,,,,,,,,,,,,,,a,1,0.801200001,"[""0.548"",""0.351"",""0.636"",""0.964""]","[0,1,1,1]",0,42,42,42,1,0,0,,,1,FALSE,,,,,,,,,,,,,,,,,,,,,,,,,,,,,,,
,5edb46d311c02e7bc763c4d2,627c6f6bca0d625b1aa4ec9c,2022-05-12_14h36.46.260,classification_task,2021.2.3,MacIntel,59.99880002,627c6715c52fd12f31907bd0,,,,,,,,,,,,,,,,,,,,,,,a,1,0.7899,"[""0.235"",""0.387"",""0.685"",""0.915""]","[1,1,0,1]",0,43,43,43,1,0,1,,,1,FALSE,,,,,,,,,,,,,,,,,,,,,,,,,,,,,,,
,5edb46d311c02e7bc763c4d2,627c6f6bca0d625b1aa4ec9c,2022-05-12_14h36.46.260,classification_task,2021.2.3,MacIntel,59.99880002,627c6715c52fd12f31907bd0,,,,,,,,,,,,,,,,,,,,,,,l,1,0.771299999,"[""0.063"",""0.308"",""0.134"",""0.802""]","[1,1,0,1]",0,44,44,44,1,1,1,,,1,FALSE,,,,,,,,,,,,,,,,,,,,,,,,,,,,,,,
,5edb46d311c02e7bc763c4d2,627c6f6bca0d625b1aa4ec9c,2022-05-12_14h36.46.260,classification_task,2021.2.3,MacIntel,59.99880002,627c6715c52fd12f31907bd0,,,,,,,,,,,,,,,,,,,,,,,a,1,0.6504,"[""0.272"",""0.685"",""0.636"",""0.964""]","[1,0,1,1]",0,45,45,45,1,0,0,,,1,FALSE,,,,,,,,,,,,,,,,,,,,,,,,,,,,,,,
,5edb46d311c02e7bc763c4d2,627c6f6bca0d625b1aa4ec9c,2022-05-12_14h36.46.260,classification_task,2021.2.3,MacIntel,59.99880002,627c6715c52fd12f31907bd0,,,,,,,,,,,,,,,,,,,,,,,a,1,0.700900002,"[""0.440"",""0.387"",""0.857"",""0.915""]","[0,1,1,1]",0,46,46,46,1,0,1,,,1,FALSE,,,,,,,,,,,,,,,,,,,,,,,,,,,,,,,
,5edb46d311c02e7bc763c4d2,627c6f6bca0d625b1aa4ec9c,2022-05-12_14h36.46.260,classification_task,2021.2.3,MacIntel,59.99880002,627c6715c52fd12f31907bd0,,,,,,,,,,,,,,,,,,,,,,,l,1,0.850799999,"[""0.063"",""0.308"",""0.476"",""0.440""]","[1,1,1,0]",0,47,47,47,1,1,1,,,1,FALSE,,,,,,,,,,,,,,,,,,,,,,,,,,,,,,,
,5edb46d311c02e7bc763c4d2,627c6f6bca0d625b1aa4ec9c,2022-05-12_14h36.46.260,classification_task,2021.2.3,MacIntel,59.99880002,627c6715c52fd12f31907bd0,,,,,,,,,,,,,,,,,,,,,,,l,0,1.4164,"[""0.272"",""0.351"",""0.102"",""0.964""]","[1,1,0,1]",0,48,48,48,1,0,0,,,1,FALSE,,,,,,,,,,,,,,,,,,,,,,,,,,,,,,,
,5edb46d311c02e7bc763c4d2,627c6f6bca0d625b1aa4ec9c,2022-05-12_14h36.46.260,classification_task,2021.2.3,MacIntel,59.99880002,627c6715c52fd12f31907bd0,,,,,,,,,,,,,,,,,,,,,,,a,0,0.849799999,"[""0.718"",""0.308"",""0.476"",""0.802""]","[0,1,1,1]",0,49,49,49,1,1,1,,,1,FALSE,,,,,,,,,,,,,,,,,,,,,,,,,,,,,,,
,5edb46d311c02e7bc763c4d2,627c6f6bca0d625b1aa4ec9c,2022-05-12_14h36.46.260,classification_task,2021.2.3,MacIntel,59.99880002,627c6715c52fd12f31907bd0,,,,,,,,,,,,,,,,,,,,,,,l,1,0.681699999,"[""0.027"",""0.173"",""0.603"",""0.110""]","[1,1,1,0]",0,50,50,50,1,1,0,,,1,FALSE,,,,,,,,,,,,,,,,,,,,,,,,,,,,,,,
,5edb46d311c02e7bc763c4d2,627c6f6bca0d625b1aa4ec9c,2022-05-12_14h36.46.260,classification_task,2021.2.3,MacIntel,59.99880002,627c6715c52fd12f31907bd0,,,,,,,,,,,,,,,,,,,,,,,l,1,0.8705,"[""0.063"",""0.134"",""0.476"",""0.802""]","[1,0,1,1]",0,51,51,51,1,1,1,,,1,FALSE,,,,,,,,,,,,,,,,,,,,,,,,,,,,,,,
,5edb46d311c02e7bc763c4d2,627c6f6bca0d625b1aa4ec9c,2022-05-12_14h36.46.260,classification_task,2021.2.3,MacIntel,59.99880002,627c6715c52fd12f31907bd0,,,,,,,,,,,,,,,,,,,,,,,l,1,2.572699999,"[""0.685"",""0.173"",""0.603"",""0.767""]","[0,1,1,1]",0,52,52,52,1,1,0,,,1,FALSE,,,,,,,,,,,,,,,,,,,,,,,,,,,,,,,
,5edb46d311c02e7bc763c4d2,627c6f6bca0d625b1aa4ec9c,2022-05-12_14h36.46.260,classification_task,2021.2.3,MacIntel,59.99880002,627c6715c52fd12f31907bd0,,,,,,,,,,,,,,,,,,,,,,,a,1,0.721400002,"[""0.272"",""0.685"",""0.636"",""0.964""]","[1,0,1,1]",0,53,53,53,1,0,0,,,1,FALSE,,,,,,,,,,,,,,,,,,,,,,,,,,,,,,,
,5edb46d311c02e7bc763c4d2,627c6f6bca0d625b1aa4ec9c,2022-05-12_14h36.46.260,classification_task,2021.2.3,MacIntel,59.99880002,627c6715c52fd12f31907bd0,,,,,,,,,,,,,,,,,,,,,,,a,1,0.7834,"[""0.235"",""0.387"",""0.685"",""0.915""]","[1,1,0,1]",0,54,54,54,1,0,1,,,1,FALSE,,,,,,,,,,,,,,,,,,,,,,,,,,,,,,,
,5edb46d311c02e7bc763c4d2,627c6f6bca0d625b1aa4ec9c,2022-05-12_14h36.46.260,classification_task,2021.2.3,MacIntel,59.99880002,627c6715c52fd12f31907bd0,,,,,,,,,,,,,,,,,,,,,,,a,1,1.0014,"[""0.432"",""0.387"",""0.857"",""0.915""]","[0,1,1,1]",0,55,55,55,1,0,1,,,1,FALSE,,,,,,,,,,,,,,,,,,,,,,,,,,,,,,,
,5edb46d311c02e7bc763c4d2,627c6f6bca0d625b1aa4ec9c,2022-05-12_14h36.46.260,classification_task,2021.2.3,MacIntel,59.99880002,627c6715c52fd12f31907bd0,,,,,,,,,,,,,,,,,,,,,,,l,0,2.0511,"[""0.235"",""0.110"",""0.857"",""0.915""]","[1,0,1,1]",0,56,56,56,1,0,1,,,1,FALSE,,,,,,,,,,,,,,,,,,,,,,,,,,,,,,,
,5edb46d311c02e7bc763c4d2,627c6f6bca0d625b1aa4ec9c,2022-05-12_14h36.46.260,classification_task,2021.2.3,MacIntel,59.99880002,627c6715c52fd12f31907bd0,,,,,,,,,,,,,,,,,,,,,,,a,1,0.9429,"[""0.272"",""0.351"",""0.636"",""0.134""]","[1,1,1,0]",0,57,57,57,1,0,0,,,1,FALSE,,,,,,,,,,,,,,,,,,,,,,,,,,,,,,,
,5edb46d311c02e7bc763c4d2,627c6f6bca0d625b1aa4ec9c,2022-05-12_14h36.46.260,classification_task,2021.2.3,MacIntel,59.99880002,627c6715c52fd12f31907bd0,,,,,,,,,,,,,,,,,,,,,,,a,1,0.905799999,"[""0.432"",""0.351"",""0.636"",""0.964""]","[0,1,1,1]",0,58,58,58,1,0,0,,,1,FALSE,,,,,,,,,,,,,,,,,,,,,,,,,,,,,,,
,5edb46d311c02e7bc763c4d2,627c6f6bca0d625b1aa4ec9c,2022-05-12_14h36.46.260,classification_task,2021.2.3,MacIntel,59.99880002,627c6715c52fd12f31907bd0,,,,,,,,,,,,,,,,,,,,,,,a,1,0.7676,"[""0.235"",""0.387"",""0.857"",""0.685""]","[1,1,1,0]",0,59,59,59,1,0,1,,,1,FALSE,,,,,,,,,,,,,,,,,,,,,,,,,,,,,,,
,5edb46d311c02e7bc763c4d2,627c6f6bca0d625b1aa4ec9c,2022-05-12_14h36.46.260,classification_task,2021.2.3,MacIntel,59.99880002,627c6715c52fd12f31907bd0,,,,,,,,,,,,,,,,,,,,,,,l,1,0.666700001,"[""0.063"",""0.308"",""0.476"",""0.516""]","[1,1,1,0]",0,60,60,60,1,1,1,,,1,FALSE,,,,,,,,,,,,,,,,,,,,,,,,,,,,,,,
,5edb46d311c02e7bc763c4d2,627c6f6bca0d625b1aa4ec9c,2022-05-12_14h36.46.260,classification_task,2021.2.3,MacIntel,59.99880002,627c6715c52fd12f31907bd0,,,,,,,,,,,,,,,,,,,,,,,l,1,0.682800001,"[""0.027"",""0.516"",""0.603"",""0.767""]","[1,0,1,1]",0,61,61,61,1,1,0,,,1,FALSE,,,,,,,,,,,,,,,,,,,,,,,,,,,,,,,
,5edb46d311c02e7bc763c4d2,627c6f6bca0d625b1aa4ec9c,2022-05-12_14h36.46.260,classification_task,2021.2.3,MacIntel,59.99880002,627c6715c52fd12f31907bd0,,,,,,,,,,,,,,,,,,,,,,,l,1,0.651700001,"[""0.027"",""0.173"",""0.428"",""0.767""]","[1,1,0,1]",0,62,62,62,1,1,0,,,1,FALSE,,,,,,,,,,,,,,,,,,,,,,,,,,,,,,,
,5edb46d311c02e7bc763c4d2,627c6f6bca0d625b1aa4ec9c,2022-05-12_14h36.46.260,classification_task,2021.2.3,MacIntel,59.99880002,627c6715c52fd12f31907bd0,,,,,,,,,,,,,,,,,,,,,,,l,1,1.016699999,"[""0.063"",""0.308"",""0.132"",""0.802""]","[1,1,0,1]",0,63,63,63,1,1,1,,,1,FALSE,,,,,,,,,,,,,,,,,,,,,,,,,,,,,,,
,5edb46d311c02e7bc763c4d2,627c6f6bca0d625b1aa4ec9c,2022-05-12_14h36.46.260,classification_task,2021.2.3,MacIntel,59.99880002,627c6715c52fd12f31907bd0,,,,,,,,,,,,,,,,,,,,,,,,,,,,,,,,,,,,,,,0, ,,0,2.651771936,129.7215,0,2,2,2,1,2,3,,,,,,,,,,,,,,,,,,
,5edb46d311c02e7bc763c4d2,627c6f6bca0d625b1aa4ec9c,2022-05-12_14h36.46.260,classification_task,2021.2.3,MacIntel,59.99880002,627c6715c52fd12f31907bd0,,,,,,,,,,,,,,,,,,,,,,,,,,,,,,,,,,,,,,,1,  ,,0,4.096234752,132.3322,0,2,2,2,1,2,3,,,,,,,,,,,,,,,,,,
,5edb46d311c02e7bc763c4d2,627c6f6bca0d625b1aa4ec9c,2022-05-12_14h36.46.260,classification_task,2021.2.3,MacIntel,59.99880002,627c6715c52fd12f31907bd0,,,,,,,,,,,,,,,,,,,,,,,,,,,,,,,,,,,,,,,2,  ,,0,3.000946135,134.1653,0,2,2,2,1,2,3,,,,,,,,,,,,,,,,,,
,5edb46d311c02e7bc763c4d2,627c6f6bca0d625b1aa4ec9c,2022-05-12_14h36.46.260,classification_task,2021.2.3,MacIntel,59.99880002,627c6715c52fd12f31907bd0,,,,,,,,,,,,,,,,,,,,,,,,,,,,,,,,,,,,,,,,,,,,,0,2,2,2,1,,3,,,,,,,,,,,,,,,,,,
,5edb46d311c02e7bc763c4d2,627c6f6bca0d625b1aa4ec9c,2022-05-12_14h36.46.260,classification_task,2021.2.3,MacIntel,59.99880002,627c6715c52fd12f31907bd0,,,,,,,,,,,,,,,,,,,,,,,,,,,,,,,,,,,,,,,,,,,,,,,,,,,,,I believe the aid is a competent performer,,0.7,0,5,471.23,0,0,0,0,1,0,,,,,
,5edb46d311c02e7bc763c4d2,627c6f6bca0d625b1aa4ec9c,2022-05-12_14h36.46.260,classification_task,2021.2.3,MacIntel,59.99880002,627c6715c52fd12f31907bd0,,,,,,,,,,,,,,,,,,,,,,,,,,,,,,,,,,,,,,,,,,,,,,,,,,,,,I trust the aid,,0.7,0,5,472.1015,0,0,0,0,1,0,,,,,
,5edb46d311c02e7bc763c4d2,627c6f6bca0d625b1aa4ec9c,2022-05-12_14h36.46.260,classification_task,2021.2.3,MacIntel,59.99880002,627c6715c52fd12f31907bd0,,,,,,,,,,,,,,,,,,,,,,,,,,,,,,,,,,,,,,,,,,,,,,,,,,,,,I have confidence in the advice given by the aid,,0.7,0,5,472.7979,0,0,0,0,1,0,,,,,
,5edb46d311c02e7bc763c4d2,627c6f6bca0d625b1aa4ec9c,2022-05-12_14h36.46.260,classification_task,2021.2.3,MacIntel,59.99880002,627c6715c52fd12f31907bd0,,,,,,,,,,,,,,,,,,,,,,,,,,,,,,,,,,,,,,,,,,,,,,,,,,,,,I can depend on the aid,,0.7,0,5,474.0958,0,0,0,0,1,0,,,,,
,5edb46d311c02e7bc763c4d2,627c6f6bca0d625b1aa4ec9c,2022-05-12_14h36.46.260,classification_task,2021.2.3,MacIntel,59.99880002,627c6715c52fd12f31907bd0,,,,,,,,,,,,,,,,,,,,,,,,,,,,,,,,,,,,,,,,,,,,,,,,,,,,,I can rely on the aid to behave in consistent ways,,0.7,0,5,474.9536,0,0,0,0,1,0,,,,,
,5edb46d311c02e7bc763c4d2,627c6f6bca0d625b1aa4ec9c,2022-05-12_14h36.46.260,classification_task,2021.2.3,MacIntel,59.99880002,627c6715c52fd12f31907bd0,,,,,,,,,,,,,,,,,,,,,,,,,,,,,,,,,,,,,,,,,,,,,,,,,,,,,I can rely on the aid to do its best every time I take its advice,,0.7,0,5,475.8929,0,0,0,0,1,0,,,,,
,5edb46d311c02e7bc763c4d2,627c6f6bca0d625b1aa4ec9c,2022-05-12_14h36.46.260,classification_task,2021.2.3,MacIntel,59.99880002,627c6715c52fd12f31907bd0,,,,,,,,,,,,,,,,,,,,,,,,,,,,,,,,,,,,,,,,,,,,,,,,,,,,,"On trials you completed with assistance from the aid, how frequently did you think the aid was correct?",,0.7,0,100%,,0,0,0,0,1,0,,,,,
,5edb46d311c02e7bc763c4d2,627c6f6bca0d625b1aa4ec9c,2022-05-12_14h36.46.260,classification_task,2021.2.3,MacIntel,59.99880002,627c6715c52fd12f31907bd0,,,,,,,,,,,,,,,,,,,,,,,,,,,,,,,,,,,,,,,,,,,,,,,,,,,,,"On trials you completed without the aid, how frequently did you think you were correct?",,0.7,0,90%,,0,0,0,0,1,0,,,,,
,5edb46d311c02e7bc763c4d2,627c6f6bca0d625b1aa4ec9c,2022-05-12_14h36.46.260,classification_task,2021.2.3,MacIntel,59.99880002,627c6715c52fd12f31907bd0,,,,,,,,,,,,,,,,,,,,,,,,,,,,,,,,,,,,,,,,,,,,,,,,,,,,,,,,,,,0,0,0,0,1,,,,,,
,5edb46d311c02e7bc763c4d2,627c6f6bca0d625b1aa4ec9c,2022-05-12_14h36.46.260,classification_task,2021.2.3,MacIntel,59.99880002,627c6715c52fd12f31907bd0,,,,,,,,,,,,,,,,,,,,,,,,,,,,,,,,,,,,,,,,,,,,,,,,,,,,,,,,,,,,,,,,,space,4.833300001,486.7853,,
,5edb46d311c02e7bc763c4d2,627c6f6bca0d625b1aa4ec9c,2022-05-12_14h36.46.260,classification_task,2021.2.3,MacIntel,59.99880002,627c6715c52fd12f31907bd0,,,,,,,,,,,,,,,,,,,,,,,,,,,,,,,,,,,,,,,,,,,,,,,,,,,,,,,,,,,,,,,,,,,,"Mozilla/5.0 (Macintosh; Intel Mac OS X 10_12_6) AppleWebKit/537.36 (KHTML, like Gecko) Chrome/96.0.4664.55 Safari/537.36",
,5edb46d311c02e7bc763c4d2,627c6f6bca0d625b1aa4ec9c,2022-05-12_14h36.46.260,classification_task,2021.2.3,MacIntel,59.99880002,627c6715c52fd12f31907bd0,,,,,,,,,,,,,,,,,,,,,,,,,,,,,,,,,,,,,,,,,,,,,,,,,,,,,,,,,,,,,,,,,,,,,FADING
