usingWebGL,participant,session,date,expName,psychopyVersion,OS,frameRate,PROLIFIC_PID,STUDY_ID,SESSION_ID,signatures_friend,signatures_foe,band_ranges_top,band_ranges_bottom,formitemText,formtype,formundefined,formitemWidth,formindex,formresponse,formrt,key_resp_2.keys,key_resp_2.rt,tute_resp.keys,tute_resp.rt,tutorial.thisRepN,tutorial.thisTrialN,tutorial.thisN,tutorial.thisIndex,tutorial.ran,key_resp_4.keys,key_resp_4.rt,key_resp.keys,key_resp.corr,key_resp.rt,lines_presented,is_signal_presented,trials.thisRepN,trials.thisTrialN,trials.thisN,trials.thisIndex,trials.ran,vessel,active_band,lines,is_signal,supported_pos,catch_trial,debrief_formindex,debrief_formitemText,debrief_formtype,debrief_formitemWidth,debrief_formresponse,debrief_formrt,phases.thisRepN,phases.thisTrialN,phases.thisN,phases.thisIndex,phases.ran,phases.order,phase,key_resp_3.keys,trustitemText,trusttype,trustitemWidth,trustindex,trustresponse,trustrt,support_status.thisRepN,support_status.thisTrialN,support_status.thisN,support_status.thisIndex,support_status.ran,support_status.order,key_resp_5.keys,key_resp_5.rt,globalClockTime,userAgent
TRUE,5edc753bcee6c1953c31dacd,001,2022-04-29_03h45.50.871,classification_task,2021.2.3,Win32,59.95203837,5edc753bcee6c1953c31dacd,626b377229c10585ec392f8a,626b3b8040087ce01978a33d,,,,,,,,,,,,,,,,,,,,,,,,,,,,,,,,,,,,,,,,,,,,,,,,,,,,,,,,,,,,,,,,,,,,
,5edc753bcee6c1953c31dacd,001,2022-04-29_03h45.50.871,classification_task,2021.2.3,Win32,59.95203837,5edc753bcee6c1953c31dacd,626b377229c10585ec392f8a,626b3b8040087ce01978a33d,"[[""0.261"",""0.364"",""0.912"",""0.955""],[""0.319"",""0.518"",""0.655"",""0.862""]]","[[""0.058"",""0.153"",""0.461"",""0.828""],[""0.112"",""0.423"",""0.598"",""0.751""]]","[1,10]","[100,1000]",Video game experience,,,0.7,0,,,,,,,,,,,,,,,,,,,,,,,,,,,,,,,,,,,,,,,,,,,,,,,,,,,,,,,,,,,
,5edc753bcee6c1953c31dacd,001,2022-04-29_03h45.50.871,classification_task,2021.2.3,Win32,59.95203837,5edc753bcee6c1953c31dacd,626b377229c10585ec392f8a,626b3b8040087ce01978a33d,,,,,Approximately how many hours did you spend playing video games in the last week?,,,0.7,0,1,,,,,,,,,,,,,,,,,,,,,,,,,,,,,,,,,,,,,,,,,,,,,,,,,,,,,,,,,,
,5edc753bcee6c1953c31dacd,001,2022-04-29_03h45.50.871,classification_task,2021.2.3,Win32,59.95203837,5edc753bcee6c1953c31dacd,626b377229c10585ec392f8a,626b3b8040087ce01978a33d,,,,,"Which game did you play the most this year? (Enter ""None"" if you didn't play any)",,,0.7,0,Final Fantasy XIV,,,,,,,,,,,,,,,,,,,,,,,,,,,,,,,,,,,,,,,,,,,,,,,,,,,,,,,,,,
,5edc753bcee6c1953c31dacd,001,2022-04-29_03h45.50.871,classification_task,2021.2.3,Win32,59.95203837,5edc753bcee6c1953c31dacd,626b377229c10585ec392f8a,626b3b8040087ce01978a33d,,,,,Visual perception,,,0.7,0,,,,,,,,,,,,,,,,,,,,,,,,,,,,,,,,,,,,,,,,,,,,,,,,,,,,,,,,,,,
,5edc753bcee6c1953c31dacd,001,2022-04-29_03h45.50.871,classification_task,2021.2.3,Win32,59.95203837,5edc753bcee6c1953c31dacd,626b377229c10585ec392f8a,626b3b8040087ce01978a33d,,,,,Do you have any form of color blindness?,,,0.7,0,No,12.8991,,,,,,,,,,,,,,,,,,,,,,,,,,,,,,,,,,,,,,,,,,,,,,,,,,,,,,,,,
,5edc753bcee6c1953c31dacd,001,2022-04-29_03h45.50.871,classification_task,2021.2.3,Win32,59.95203837,5edc753bcee6c1953c31dacd,626b377229c10585ec392f8a,626b3b8040087ce01978a33d,,,,,Do you use software to change the colour temperature of your screen (e.g. f.lux)?,,,0.7,0,No,14.9336,,,,,,,,,,,,,,,,,,,,,,,,,,,,,,,,,,,,,,,,,,,,,,,,,,,,,,,,,
,5edc753bcee6c1953c31dacd,001,2022-04-29_03h45.50.871,classification_task,2021.2.3,Win32,59.95203837,5edc753bcee6c1953c31dacd,626b377229c10585ec392f8a,626b3b8040087ce01978a33d,,,,,,,,,,,,space,49.4167,space,7.3707,0,0,0,0,1,,,,,,,,,,,,,,,,,,,,,,,,,,,,,,,,,,,,,,,,,,,,,,,,
,5edc753bcee6c1953c31dacd,001,2022-04-29_03h45.50.871,classification_task,2021.2.3,Win32,59.95203837,5edc753bcee6c1953c31dacd,626b377229c10585ec392f8a,626b3b8040087ce01978a33d,,,,,,,,,,,,,,space,10.2956,1,0,1,0,1,,,,,,,,,,,,,,,,,,,,,,,,,,,,,,,,,,,,,,,,,,,,,,,,
,5edc753bcee6c1953c31dacd,001,2022-04-29_03h45.50.871,classification_task,2021.2.3,Win32,59.95203837,5edc753bcee6c1953c31dacd,626b377229c10585ec392f8a,626b3b8040087ce01978a33d,,,,,,,,,,,,,,space,56.7907,2,0,2,0,1,,,,,,,,,,,,,,,,,,,,,,,,,,,,,,,,,,,,,,,,,,,,,,,,
,5edc753bcee6c1953c31dacd,001,2022-04-29_03h45.50.871,classification_task,2021.2.3,Win32,59.95203837,5edc753bcee6c1953c31dacd,626b377229c10585ec392f8a,626b3b8040087ce01978a33d,,,,,,,,,,,,,,space,5.814,3,0,3,0,1,,,,,,,,,,,,,,,,,,,,,,,,,,,,,,,,,,,,,,,,,,,,,,,,
,5edc753bcee6c1953c31dacd,001,2022-04-29_03h45.50.871,classification_task,2021.2.3,Win32,59.95203837,5edc753bcee6c1953c31dacd,626b377229c10585ec392f8a,626b3b8040087ce01978a33d,,,,,,,,,,,,,,space,21.7006,4,0,4,0,1,,,,,,,,,,,,,,,,,,,,,,,,,,,,,,,,,,,,,,,,,,,,,,,,
,5edc753bcee6c1953c31dacd,001,2022-04-29_03h45.50.871,classification_task,2021.2.3,Win32,59.95203837,5edc753bcee6c1953c31dacd,626b377229c10585ec392f8a,626b3b8040087ce01978a33d,,,,,,,,,,,,,,,,,,,,,space,24.2385,a,1,6.0986,"[""0.319"",""0.518"",""0.655"",""0.563""]","[1,1,1,0]",0,0,0,0,1,0,1,,,0,FALSE,,,,,,,,,,,,,,,,,,,,,,,,,,,,,,
,5edc753bcee6c1953c31dacd,001,2022-04-29_03h45.50.871,classification_task,2021.2.3,Win32,59.95203837,5edc753bcee6c1953c31dacd,626b377229c10585ec392f8a,626b3b8040087ce01978a33d,,,,,,,,,,,,,,,,,,,,,,,l,1,8.3739,"[""0.223"",""0.423"",""0.598"",""0.751""]","[0,1,1,1]",0,1,1,1,1,1,1,,,0,FALSE,,,,,,,,,,,,,,,,,,,,,,,,,,,,,,
,5edc753bcee6c1953c31dacd,001,2022-04-29_03h45.50.871,classification_task,2021.2.3,Win32,59.95203837,5edc753bcee6c1953c31dacd,626b377229c10585ec392f8a,626b3b8040087ce01978a33d,,,,,,,,,,,,,,,,,,,,,,,l,1,8.725,"[""0.058"",""0.153"",""0.206"",""0.828""]","[1,1,0,1]",0,2,2,2,1,1,0,,,0,FALSE,,,,,,,,,,,,,,,,,,,,,,,,,,,,,,
,5edc753bcee6c1953c31dacd,001,2022-04-29_03h45.50.871,classification_task,2021.2.3,Win32,59.95203837,5edc753bcee6c1953c31dacd,626b377229c10585ec392f8a,626b3b8040087ce01978a33d,,,,,,,,,,,,,,,,,,,,,,,a,1,7.7738,"[""0.226"",""0.518"",""0.655"",""0.862""]","[0,1,1,1]",0,3,3,3,1,0,1,,,0,FALSE,,,,,,,,,,,,,,,,,,,,,,,,,,,,,,
,5edc753bcee6c1953c31dacd,001,2022-04-29_03h45.50.871,classification_task,2021.2.3,Win32,59.95203837,5edc753bcee6c1953c31dacd,626b377229c10585ec392f8a,626b3b8040087ce01978a33d,,,,,,,,,,,,,,,,,,,,,,,l,1,6.9544,"[""0.112"",""0.551"",""0.598"",""0.751""]","[1,0,1,1]",0,4,4,4,1,1,1,,,0,FALSE,,,,,,,,,,,,,,,,,,,,,,,,,,,,,,
,5edc753bcee6c1953c31dacd,001,2022-04-29_03h45.50.871,classification_task,2021.2.3,Win32,59.95203837,5edc753bcee6c1953c31dacd,626b377229c10585ec392f8a,626b3b8040087ce01978a33d,,,,,,,,,,,,,,,,,,,,,,,l,1,4.0464,"[""0.058"",""0.153"",""0.461"",""0.563""]","[1,1,1,0]",0,5,5,5,1,1,0,,,0,FALSE,,,,,,,,,,,,,,,,,,,,,,,,,,,,,,
,5edc753bcee6c1953c31dacd,001,2022-04-29_03h45.50.871,classification_task,2021.2.3,Win32,59.95203837,5edc753bcee6c1953c31dacd,626b377229c10585ec392f8a,626b3b8040087ce01978a33d,,,,,,,,,,,,,,,,,,,,,,,a,1,4.0717,"[""0.319"",""0.792"",""0.655"",""0.862""]","[1,0,1,1]",0,6,6,6,1,0,1,,,0,FALSE,,,,,,,,,,,,,,,,,,,,,,,,,,,,,,
,5edc753bcee6c1953c31dacd,001,2022-04-29_03h45.50.871,classification_task,2021.2.3,Win32,59.95203837,5edc753bcee6c1953c31dacd,626b377229c10585ec392f8a,626b3b8040087ce01978a33d,,,,,,,,,,,,,,,,,,,,,,,a,1,7.7131,"[""0.261"",""0.364"",""0.188"",""0.955""]","[1,1,0,1]",0,7,7,7,1,0,0,,,0,FALSE,,,,,,,,,,,,,,,,,,,,,,,,,,,,,,
,5edc753bcee6c1953c31dacd,001,2022-04-29_03h45.50.871,classification_task,2021.2.3,Win32,59.95203837,5edc753bcee6c1953c31dacd,626b377229c10585ec392f8a,626b3b8040087ce01978a33d,,,,,,,,,,,,,,,,,,,,,,,a,1,7.0069,"[""0.319"",""0.518"",""0.188"",""0.862""]","[1,1,0,1]",0,8,8,8,1,0,1,,,0,FALSE,,,,,,,,,,,,,,,,,,,,,,,,,,,,,,
,5edc753bcee6c1953c31dacd,001,2022-04-29_03h45.50.871,classification_task,2021.2.3,Win32,59.95203837,5edc753bcee6c1953c31dacd,626b377229c10585ec392f8a,626b3b8040087ce01978a33d,,,,,,,,,,,,,,,,,,,,,,,a,1,6.1163,"[""0.261"",""0.206"",""0.912"",""0.955""]","[1,0,1,1]",0,9,9,9,1,0,0,,,0,FALSE,,,,,,,,,,,,,,,,,,,,,,,,,,,,,,
,5edc753bcee6c1953c31dacd,001,2022-04-29_03h45.50.871,classification_task,2021.2.3,Win32,59.95203837,5edc753bcee6c1953c31dacd,626b377229c10585ec392f8a,626b3b8040087ce01978a33d,,,,,,,,,,,,,,,,,,,,,,,l,1,7.3519,"[""0.112"",""0.423"",""0.188"",""0.751""]","[1,1,0,1]",0,10,10,10,1,1,1,,,0,FALSE,,,,,,,,,,,,,,,,,,,,,,,,,,,,,,
,5edc753bcee6c1953c31dacd,001,2022-04-29_03h45.50.871,classification_task,2021.2.3,Win32,59.95203837,5edc753bcee6c1953c31dacd,626b377229c10585ec392f8a,626b3b8040087ce01978a33d,,,,,,,,,,,,,,,,,,,,,,,a,1,4.0242,"[""0.261"",""0.364"",""0.912"",""0.792""]","[1,1,1,0]",0,11,11,11,1,0,0,,,0,FALSE,,,,,,,,,,,,,,,,,,,,,,,,,,,,,,
,5edc753bcee6c1953c31dacd,001,2022-04-29_03h45.50.871,classification_task,2021.2.3,Win32,59.95203837,5edc753bcee6c1953c31dacd,626b377229c10585ec392f8a,626b3b8040087ce01978a33d,,,,,,,,,,,,,,,,,,,,,,,l,1,6.4578,"[""0.058"",""0.188"",""0.461"",""0.828""]","[1,0,1,1]",0,12,12,12,1,1,0,,,0,FALSE,,,,,,,,,,,,,,,,,,,,,,,,,,,,,,
,5edc753bcee6c1953c31dacd,001,2022-04-29_03h45.50.871,classification_task,2021.2.3,Win32,59.95203837,5edc753bcee6c1953c31dacd,626b377229c10585ec392f8a,626b3b8040087ce01978a33d,,,,,,,,,,,,,,,,,,,,,,,a,1,4.0815,"[""0.555"",""0.364"",""0.912"",""0.955""]","[0,1,1,1]",0,13,13,13,1,0,0,,,0,FALSE,,,,,,,,,,,,,,,,,,,,,,,,,,,,,,
,5edc753bcee6c1953c31dacd,001,2022-04-29_03h45.50.871,classification_task,2021.2.3,Win32,59.95203837,5edc753bcee6c1953c31dacd,626b377229c10585ec392f8a,626b3b8040087ce01978a33d,,,,,,,,,,,,,,,,,,,,,,,l,1,4.8705,"[""0.112"",""0.423"",""0.598"",""0.559""]","[1,1,1,0]",0,14,14,14,1,1,1,,,0,FALSE,,,,,,,,,,,,,,,,,,,,,,,,,,,,,,
,5edc753bcee6c1953c31dacd,001,2022-04-29_03h45.50.871,classification_task,2021.2.3,Win32,59.95203837,5edc753bcee6c1953c31dacd,626b377229c10585ec392f8a,626b3b8040087ce01978a33d,,,,,,,,,,,,,,,,,,,,,,,l,1,3.7314,"[""0.191"",""0.153"",""0.461"",""0.828""]","[0,1,1,1]",0,15,15,15,1,1,0,,,0,FALSE,,,,,,,,,,,,,,,,,,,,,,,,,,,,,,
,5edc753bcee6c1953c31dacd,001,2022-04-29_03h45.50.871,classification_task,2021.2.3,Win32,59.95203837,5edc753bcee6c1953c31dacd,626b377229c10585ec392f8a,626b3b8040087ce01978a33d,,,,,,,,,,,,,,,,,,,,,,,l,1,3.8458,"[""0.223"",""0.153"",""0.461"",""0.828""]","[0,1,1,1]",0,16,16,16,1,1,0,,,0,FALSE,,,,,,,,,,,,,,,,,,,,,,,,,,,,,,
,5edc753bcee6c1953c31dacd,001,2022-04-29_03h45.50.871,classification_task,2021.2.3,Win32,59.95203837,5edc753bcee6c1953c31dacd,626b377229c10585ec392f8a,626b3b8040087ce01978a33d,,,,,,,,,,,,,,,,,,,,,,,a,1,8.7432,"[""0.319"",""0.518"",""0.655"",""0.188""]","[1,1,1,0]",0,17,17,17,1,0,1,,,0,FALSE,,,,,,,,,,,,,,,,,,,,,,,,,,,,,,
,5edc753bcee6c1953c31dacd,001,2022-04-29_03h45.50.871,classification_task,2021.2.3,Win32,59.95203837,5edc753bcee6c1953c31dacd,626b377229c10585ec392f8a,626b3b8040087ce01978a33d,,,,,,,,,,,,,,,,,,,,,,,a,1,2.6772,"[""0.261"",""0.364"",""0.792"",""0.955""]","[1,1,0,1]",0,18,18,18,1,0,0,,,0,FALSE,,,,,,,,,,,,,,,,,,,,,,,,,,,,,,
,5edc753bcee6c1953c31dacd,001,2022-04-29_03h45.50.871,classification_task,2021.2.3,Win32,59.95203837,5edc753bcee6c1953c31dacd,626b377229c10585ec392f8a,626b3b8040087ce01978a33d,,,,,,,,,,,,,,,,,,,,,,,l,1,2.0961,"[""0.112"",""0.423"",""0.598"",""0.206""]","[1,1,1,0]",0,19,19,19,1,1,1,,,0,FALSE,,,,,,,,,,,,,,,,,,,,,,,,,,,,,,
,5edc753bcee6c1953c31dacd,001,2022-04-29_03h45.50.871,classification_task,2021.2.3,Win32,59.95203837,5edc753bcee6c1953c31dacd,626b377229c10585ec392f8a,626b3b8040087ce01978a33d,,,,,,,,,,,,,,,,,,,,,,,a,1,2.2874,"[""0.319"",""0.518"",""0.195"",""0.862""]","[1,1,0,1]",0,20,20,20,1,0,1,,,0,FALSE,,,,,,,,,,,,,,,,,,,,,,,,,,,,,,
,5edc753bcee6c1953c31dacd,001,2022-04-29_03h45.50.871,classification_task,2021.2.3,Win32,59.95203837,5edc753bcee6c1953c31dacd,626b377229c10585ec392f8a,626b3b8040087ce01978a33d,,,,,,,,,,,,,,,,,,,,,,,a,1,1.4036,"[""0.261"",""0.364"",""0.912"",""0.563""]","[1,1,1,0]",0,21,21,21,1,0,0,,,0,FALSE,,,,,,,,,,,,,,,,,,,,,,,,,,,,,,
,5edc753bcee6c1953c31dacd,001,2022-04-29_03h45.50.871,classification_task,2021.2.3,Win32,59.95203837,5edc753bcee6c1953c31dacd,626b377229c10585ec392f8a,626b3b8040087ce01978a33d,,,,,,,,,,,,,,,,,,,,,,,a,1,4.1218,"[""0.564"",""0.518"",""0.655"",""0.862""]","[0,1,1,1]",0,22,22,22,1,0,1,,,0,FALSE,,,,,,,,,,,,,,,,,,,,,,,,,,,,,,
,5edc753bcee6c1953c31dacd,001,2022-04-29_03h45.50.871,classification_task,2021.2.3,Win32,59.95203837,5edc753bcee6c1953c31dacd,626b377229c10585ec392f8a,626b3b8040087ce01978a33d,,,,,,,,,,,,,,,,,,,,,,,l,1,1.7573,"[""0.112"",""0.223"",""0.598"",""0.751""]","[1,0,1,1]",0,23,23,23,1,1,1,,,0,FALSE,,,,,,,,,,,,,,,,,,,,,,,,,,,,,,
,5edc753bcee6c1953c31dacd,001,2022-04-29_03h45.50.871,classification_task,2021.2.3,Win32,59.95203837,5edc753bcee6c1953c31dacd,626b377229c10585ec392f8a,626b3b8040087ce01978a33d,,,,,,,,,,,,,,,,,,,,,,,l,1,1.8163,"[""0.112"",""0.423"",""0.206"",""0.751""]","[1,1,0,1]",0,24,24,24,1,1,1,,,0,FALSE,,,,,,,,,,,,,,,,,,,,,,,,,,,,,,
,5edc753bcee6c1953c31dacd,001,2022-04-29_03h45.50.871,classification_task,2021.2.3,Win32,59.95203837,5edc753bcee6c1953c31dacd,626b377229c10585ec392f8a,626b3b8040087ce01978a33d,,,,,,,,,,,,,,,,,,,,,,,l,1,2.2204,"[""0.058"",""0.551"",""0.461"",""0.828""]","[1,0,1,1]",0,25,25,25,1,1,0,,,0,FALSE,,,,,,,,,,,,,,,,,,,,,,,,,,,,,,
,5edc753bcee6c1953c31dacd,001,2022-04-29_03h45.50.871,classification_task,2021.2.3,Win32,59.95203837,5edc753bcee6c1953c31dacd,626b377229c10585ec392f8a,626b3b8040087ce01978a33d,,,,,,,,,,,,,,,,,,,,,,,l,1,2.1964,"[""0.058"",""0.153"",""0.461"",""0.206""]","[1,1,1,0]",0,26,26,26,1,1,0,,,0,FALSE,,,,,,,,,,,,,,,,,,,,,,,,,,,,,,
,5edc753bcee6c1953c31dacd,001,2022-04-29_03h45.50.871,classification_task,2021.2.3,Win32,59.95203837,5edc753bcee6c1953c31dacd,626b377229c10585ec392f8a,626b3b8040087ce01978a33d,,,,,,,,,,,,,,,,,,,,,,,a,1,6.2011,"[""0.319"",""0.188"",""0.655"",""0.862""]","[1,0,1,1]",0,27,27,27,1,0,1,,,0,FALSE,,,,,,,,,,,,,,,,,,,,,,,,,,,,,,
,5edc753bcee6c1953c31dacd,001,2022-04-29_03h45.50.871,classification_task,2021.2.3,Win32,59.95203837,5edc753bcee6c1953c31dacd,626b377229c10585ec392f8a,626b3b8040087ce01978a33d,,,,,,,,,,,,,,,,,,,,,,,l,1,5.1677,"[""0.223"",""0.423"",""0.598"",""0.751""]","[0,1,1,1]",0,28,28,28,1,1,1,,,0,FALSE,,,,,,,,,,,,,,,,,,,,,,,,,,,,,,
,5edc753bcee6c1953c31dacd,001,2022-04-29_03h45.50.871,classification_task,2021.2.3,Win32,59.95203837,5edc753bcee6c1953c31dacd,626b377229c10585ec392f8a,626b3b8040087ce01978a33d,,,,,,,,,,,,,,,,,,,,,,,a,1,2.562,"[""0.261"",""0.206"",""0.912"",""0.955""]","[1,0,1,1]",0,29,29,29,1,0,0,,,0,FALSE,,,,,,,,,,,,,,,,,,,,,,,,,,,,,,
,5edc753bcee6c1953c31dacd,001,2022-04-29_03h45.50.871,classification_task,2021.2.3,Win32,59.95203837,5edc753bcee6c1953c31dacd,626b377229c10585ec392f8a,626b3b8040087ce01978a33d,,,,,,,,,,,,,,,,,,,,,,,a,1,3.7504,"[""0.551"",""0.364"",""0.912"",""0.955""]","[0,1,1,1]",0,30,30,30,1,0,0,,,0,FALSE,,,,,,,,,,,,,,,,,,,,,,,,,,,,,,
,5edc753bcee6c1953c31dacd,001,2022-04-29_03h45.50.871,classification_task,2021.2.3,Win32,59.95203837,5edc753bcee6c1953c31dacd,626b377229c10585ec392f8a,626b3b8040087ce01978a33d,,,,,,,,,,,,,,,,,,,,,,,l,1,1.0737,"[""0.058"",""0.153"",""0.188"",""0.828""]","[1,1,0,1]",0,31,31,31,1,1,0,,,0,FALSE,,,,,,,,,,,,,,,,,,,,,,,,,,,,,,
,5edc753bcee6c1953c31dacd,001,2022-04-29_03h45.50.871,classification_task,2021.2.3,Win32,59.95203837,5edc753bcee6c1953c31dacd,626b377229c10585ec392f8a,626b3b8040087ce01978a33d,,,,,,,,,,,,,,,,,,,,,,,a,0,6.6702,"[""0.223"",""0.423"",""0.598"",""0.751""]","[0,1,1,1]",0,32,32,32,1,1,1,,,0,FALSE,,,,,,,,,,,,,,,,,,,,,,,,,,,,,,
,5edc753bcee6c1953c31dacd,001,2022-04-29_03h45.50.871,classification_task,2021.2.3,Win32,59.95203837,5edc753bcee6c1953c31dacd,626b377229c10585ec392f8a,626b3b8040087ce01978a33d,,,,,,,,,,,,,,,,,,,,,,,l,1,1.4009,"[""0.058"",""0.153"",""0.461"",""0.223""]","[1,1,1,0]",0,33,33,33,1,1,0,,,0,FALSE,,,,,,,,,,,,,,,,,,,,,,,,,,,,,,
,5edc753bcee6c1953c31dacd,001,2022-04-29_03h45.50.871,classification_task,2021.2.3,Win32,59.95203837,5edc753bcee6c1953c31dacd,626b377229c10585ec392f8a,626b3b8040087ce01978a33d,,,,,,,,,,,,,,,,,,,,,,,a,1,3.3609,"[""0.319"",""0.188"",""0.655"",""0.862""]","[1,0,1,1]",0,34,34,34,1,0,1,,,0,FALSE,,,,,,,,,,,,,,,,,,,,,,,,,,,,,,
,5edc753bcee6c1953c31dacd,001,2022-04-29_03h45.50.871,classification_task,2021.2.3,Win32,59.95203837,5edc753bcee6c1953c31dacd,626b377229c10585ec392f8a,626b3b8040087ce01978a33d,,,,,,,,,,,,,,,,,,,,,,,l,1,2.1925,"[""0.700"",""0.153"",""0.461"",""0.828""]","[0,1,1,1]",0,35,35,35,1,1,0,,,0,FALSE,,,,,,,,,,,,,,,,,,,,,,,,,,,,,,
,5edc753bcee6c1953c31dacd,001,2022-04-29_03h45.50.871,classification_task,2021.2.3,Win32,59.95203837,5edc753bcee6c1953c31dacd,626b377229c10585ec392f8a,626b3b8040087ce01978a33d,,,,,,,,,,,,,,,,,,,,,,,l,0,0.8976,"[""0.261"",""0.364"",""0.699"",""0.955""]","[1,1,0,1]",0,36,36,36,1,0,0,,,0,FALSE,,,,,,,,,,,,,,,,,,,,,,,,,,,,,,
,5edc753bcee6c1953c31dacd,001,2022-04-29_03h45.50.871,classification_task,2021.2.3,Win32,59.95203837,5edc753bcee6c1953c31dacd,626b377229c10585ec392f8a,626b3b8040087ce01978a33d,,,,,,,,,,,,,,,,,,,,,,,a,1,2.1293,"[""0.261"",""0.364"",""0.912"",""0.188""]","[1,1,1,0]",0,37,37,37,1,0,0,,,0,FALSE,,,,,,,,,,,,,,,,,,,,,,,,,,,,,,
,5edc753bcee6c1953c31dacd,001,2022-04-29_03h45.50.871,classification_task,2021.2.3,Win32,59.95203837,5edc753bcee6c1953c31dacd,626b377229c10585ec392f8a,626b3b8040087ce01978a33d,,,,,,,,,,,,,,,,,,,,,,,a,1,0.6891,"[""0.564"",""0.364"",""0.912"",""0.955""]","[0,1,1,1]",0,38,38,38,1,0,0,,,0,FALSE,,,,,,,,,,,,,,,,,,,,,,,,,,,,,,
,5edc753bcee6c1953c31dacd,001,2022-04-29_03h45.50.871,classification_task,2021.2.3,Win32,59.95203837,5edc753bcee6c1953c31dacd,626b377229c10585ec392f8a,626b3b8040087ce01978a33d,,,,,,,,,,,,,,,,,,,,,,,l,1,2.2584,"[""0.112"",""0.700"",""0.598"",""0.751""]","[1,0,1,1]",0,39,39,39,1,1,1,,,0,FALSE,,,,,,,,,,,,,,,,,,,,,,,,,,,,,,
,5edc753bcee6c1953c31dacd,001,2022-04-29_03h45.50.871,classification_task,2021.2.3,Win32,59.95203837,5edc753bcee6c1953c31dacd,626b377229c10585ec392f8a,626b3b8040087ce01978a33d,,,,,,,,,,,,,,,,,,,,,,,a,1,1.9578,"[""0.559"",""0.518"",""0.655"",""0.862""]","[0,1,1,1]",0,40,40,40,1,0,1,,,0,FALSE,,,,,,,,,,,,,,,,,,,,,,,,,,,,,,
,5edc753bcee6c1953c31dacd,001,2022-04-29_03h45.50.871,classification_task,2021.2.3,Win32,59.95203837,5edc753bcee6c1953c31dacd,626b377229c10585ec392f8a,626b3b8040087ce01978a33d,,,,,,,,,,,,,,,,,,,,,,,l,0,3.5129,"[""0.319"",""0.518"",""0.655"",""0.195""]","[1,1,1,0]",0,41,41,41,1,0,1,,,0,FALSE,,,,,,,,,,,,,,,,,,,,,,,,,,,,,,
,5edc753bcee6c1953c31dacd,001,2022-04-29_03h45.50.871,classification_task,2021.2.3,Win32,59.95203837,5edc753bcee6c1953c31dacd,626b377229c10585ec392f8a,626b3b8040087ce01978a33d,,,,,,,,,,,,,,,,,,,,,,,a,0,1.0559,"[""0.058"",""0.226"",""0.461"",""0.828""]","[1,0,1,1]",0,42,42,42,1,1,0,,,0,FALSE,,,,,,,,,,,,,,,,,,,,,,,,,,,,,,
,5edc753bcee6c1953c31dacd,001,2022-04-29_03h45.50.871,classification_task,2021.2.3,Win32,59.95203837,5edc753bcee6c1953c31dacd,626b377229c10585ec392f8a,626b3b8040087ce01978a33d,,,,,,,,,,,,,,,,,,,,,,,l,1,3.446,"[""0.112"",""0.423"",""0.188"",""0.751""]","[1,1,0,1]",0,43,43,43,1,1,1,,,0,FALSE,,,,,,,,,,,,,,,,,,,,,,,,,,,,,,
,5edc753bcee6c1953c31dacd,001,2022-04-29_03h45.50.871,classification_task,2021.2.3,Win32,59.95203837,5edc753bcee6c1953c31dacd,626b377229c10585ec392f8a,626b3b8040087ce01978a33d,,,,,,,,,,,,,,,,,,,,,,,a,1,5.1778,"[""0.319"",""0.518"",""0.559"",""0.862""]","[1,1,0,1]",0,44,44,44,1,0,1,,,0,FALSE,,,,,,,,,,,,,,,,,,,,,,,,,,,,,,
,5edc753bcee6c1953c31dacd,001,2022-04-29_03h45.50.871,classification_task,2021.2.3,Win32,59.95203837,5edc753bcee6c1953c31dacd,626b377229c10585ec392f8a,626b3b8040087ce01978a33d,,,,,,,,,,,,,,,,,,,,,,,a,0,1.4723,"[""0.112"",""0.423"",""0.598"",""0.700""]","[1,1,1,0]",0,45,45,45,1,1,1,,,0,FALSE,,,,,,,,,,,,,,,,,,,,,,,,,,,,,,
,5edc753bcee6c1953c31dacd,001,2022-04-29_03h45.50.871,classification_task,2021.2.3,Win32,59.95203837,5edc753bcee6c1953c31dacd,626b377229c10585ec392f8a,626b3b8040087ce01978a33d,,,,,,,,,,,,,,,,,,,,,,,a,1,0.8791,"[""0.261"",""0.700"",""0.912"",""0.955""]","[1,0,1,1]",0,46,46,46,1,0,0,,,0,FALSE,,,,,,,,,,,,,,,,,,,,,,,,,,,,,,
,5edc753bcee6c1953c31dacd,001,2022-04-29_03h45.50.871,classification_task,2021.2.3,Win32,59.95203837,5edc753bcee6c1953c31dacd,626b377229c10585ec392f8a,626b3b8040087ce01978a33d,,,,,,,,,,,,,,,,,,,,,,,l,1,0.7129,"[""0.058"",""0.153"",""0.188"",""0.828""]","[1,1,0,1]",0,47,47,47,1,1,0,,,0,FALSE,,,,,,,,,,,,,,,,,,,,,,,,,,,,,,
,5edc753bcee6c1953c31dacd,001,2022-04-29_03h45.50.871,classification_task,2021.2.3,Win32,59.95203837,5edc753bcee6c1953c31dacd,626b377229c10585ec392f8a,626b3b8040087ce01978a33d,,,,,,,,,,,,,,,,,,,,,,,a,1,0.7032,"[""0.261"",""0.223"",""0.912"",""0.955""]","[1,0,1,1]",0,48,48,48,1,0,0,,,0,FALSE,,,,,,,,,,,,,,,,,,,,,,,,,,,,,,
,5edc753bcee6c1953c31dacd,001,2022-04-29_03h45.50.871,classification_task,2021.2.3,Win32,59.95203837,5edc753bcee6c1953c31dacd,626b377229c10585ec392f8a,626b3b8040087ce01978a33d,,,,,,,,,,,,,,,,,,,,,,,a,0,1.7843,"[""0.112"",""0.195"",""0.598"",""0.751""]","[1,0,1,1]",0,49,49,49,1,1,1,,,0,FALSE,,,,,,,,,,,,,,,,,,,,,,,,,,,,,,
,5edc753bcee6c1953c31dacd,001,2022-04-29_03h45.50.871,classification_task,2021.2.3,Win32,59.95203837,5edc753bcee6c1953c31dacd,626b377229c10585ec392f8a,626b3b8040087ce01978a33d,,,,,,,,,,,,,,,,,,,,,,,l,1,0.6955,"[""0.112"",""0.423"",""0.699"",""0.751""]","[1,1,0,1]",0,50,50,50,1,1,1,,,0,FALSE,,,,,,,,,,,,,,,,,,,,,,,,,,,,,,
,5edc753bcee6c1953c31dacd,001,2022-04-29_03h45.50.871,classification_task,2021.2.3,Win32,59.95203837,5edc753bcee6c1953c31dacd,626b377229c10585ec392f8a,626b3b8040087ce01978a33d,,,,,,,,,,,,,,,,,,,,,,,l,1,1.2991,"[""0.058"",""0.153"",""0.564"",""0.828""]","[1,1,0,1]",0,51,51,51,1,1,0,,,0,FALSE,,,,,,,,,,,,,,,,,,,,,,,,,,,,,,
,5edc753bcee6c1953c31dacd,001,2022-04-29_03h45.50.871,classification_task,2021.2.3,Win32,59.95203837,5edc753bcee6c1953c31dacd,626b377229c10585ec392f8a,626b3b8040087ce01978a33d,,,,,,,,,,,,,,,,,,,,,,,a,1,0.7584,"[""0.261"",""0.364"",""0.912"",""0.188""]","[1,1,1,0]",0,52,52,52,1,0,0,,,0,FALSE,,,,,,,,,,,,,,,,,,,,,,,,,,,,,,
,5edc753bcee6c1953c31dacd,001,2022-04-29_03h45.50.871,classification_task,2021.2.3,Win32,59.95203837,5edc753bcee6c1953c31dacd,626b377229c10585ec392f8a,626b3b8040087ce01978a33d,,,,,,,,,,,,,,,,,,,,,,,l,1,1.1994,"[""0.699"",""0.153"",""0.461"",""0.828""]","[0,1,1,1]",0,53,53,53,1,1,0,,,0,FALSE,,,,,,,,,,,,,,,,,,,,,,,,,,,,,,
,5edc753bcee6c1953c31dacd,001,2022-04-29_03h45.50.871,classification_task,2021.2.3,Win32,59.95203837,5edc753bcee6c1953c31dacd,626b377229c10585ec392f8a,626b3b8040087ce01978a33d,,,,,,,,,,,,,,,,,,,,,,,a,1,0.7684,"[""0.195"",""0.364"",""0.912"",""0.955""]","[0,1,1,1]",0,54,54,54,1,0,0,,,0,FALSE,,,,,,,,,,,,,,,,,,,,,,,,,,,,,,
,5edc753bcee6c1953c31dacd,001,2022-04-29_03h45.50.871,classification_task,2021.2.3,Win32,59.95203837,5edc753bcee6c1953c31dacd,626b377229c10585ec392f8a,626b3b8040087ce01978a33d,,,,,,,,,,,,,,,,,,,,,,,l,1,1.4809,"[""0.112"",""0.423"",""0.598"",""0.559""]","[1,1,1,0]",0,55,55,55,1,1,1,,,0,FALSE,,,,,,,,,,,,,,,,,,,,,,,,,,,,,,
,5edc753bcee6c1953c31dacd,001,2022-04-29_03h45.50.871,classification_task,2021.2.3,Win32,59.95203837,5edc753bcee6c1953c31dacd,626b377229c10585ec392f8a,626b3b8040087ce01978a33d,,,,,,,,,,,,,,,,,,,,,,,l,1,1.3633,"[""0.058"",""0.188"",""0.461"",""0.828""]","[1,0,1,1]",0,56,56,56,1,1,0,,,0,FALSE,,,,,,,,,,,,,,,,,,,,,,,,,,,,,,
,5edc753bcee6c1953c31dacd,001,2022-04-29_03h45.50.871,classification_task,2021.2.3,Win32,59.95203837,5edc753bcee6c1953c31dacd,626b377229c10585ec392f8a,626b3b8040087ce01978a33d,,,,,,,,,,,,,,,,,,,,,,,l,1,0.8843,"[""0.058"",""0.153"",""0.461"",""0.559""]","[1,1,1,0]",0,57,57,57,1,1,0,,,0,FALSE,,,,,,,,,,,,,,,,,,,,,,,,,,,,,,
,5edc753bcee6c1953c31dacd,001,2022-04-29_03h45.50.871,classification_task,2021.2.3,Win32,59.95203837,5edc753bcee6c1953c31dacd,626b377229c10585ec392f8a,626b3b8040087ce01978a33d,,,,,,,,,,,,,,,,,,,,,,,a,1,1.3984,"[""0.319"",""0.518"",""0.559"",""0.862""]","[1,1,0,1]",0,58,58,58,1,0,1,,,0,FALSE,,,,,,,,,,,,,,,,,,,,,,,,,,,,,,
,5edc753bcee6c1953c31dacd,001,2022-04-29_03h45.50.871,classification_task,2021.2.3,Win32,59.95203837,5edc753bcee6c1953c31dacd,626b377229c10585ec392f8a,626b3b8040087ce01978a33d,,,,,,,,,,,,,,,,,,,,,,,a,1,1.7937,"[""0.319"",""0.518"",""0.655"",""0.188""]","[1,1,1,0]",0,59,59,59,1,0,1,,,0,FALSE,,,,,,,,,,,,,,,,,,,,,,,,,,,,,,
,5edc753bcee6c1953c31dacd,001,2022-04-29_03h45.50.871,classification_task,2021.2.3,Win32,59.95203837,5edc753bcee6c1953c31dacd,626b377229c10585ec392f8a,626b3b8040087ce01978a33d,,,,,,,,,,,,,,,,,,,,,,,l,1,1.3123,"[""0.792"",""0.423"",""0.598"",""0.751""]","[0,1,1,1]",0,60,60,60,1,1,1,,,0,FALSE,,,,,,,,,,,,,,,,,,,,,,,,,,,,,,
,5edc753bcee6c1953c31dacd,001,2022-04-29_03h45.50.871,classification_task,2021.2.3,Win32,59.95203837,5edc753bcee6c1953c31dacd,626b377229c10585ec392f8a,626b3b8040087ce01978a33d,,,,,,,,,,,,,,,,,,,,,,,a,1,0.9293,"[""0.261"",""0.364"",""0.551"",""0.955""]","[1,1,0,1]",0,61,61,61,1,0,0,,,0,FALSE,,,,,,,,,,,,,,,,,,,,,,,,,,,,,,
,5edc753bcee6c1953c31dacd,001,2022-04-29_03h45.50.871,classification_task,2021.2.3,Win32,59.95203837,5edc753bcee6c1953c31dacd,626b377229c10585ec392f8a,626b3b8040087ce01978a33d,,,,,,,,,,,,,,,,,,,,,,,l,0,3.2651,"[""0.319"",""0.188"",""0.655"",""0.862""]","[1,0,1,1]",0,62,62,62,1,0,1,,,0,FALSE,,,,,,,,,,,,,,,,,,,,,,,,,,,,,,
,5edc753bcee6c1953c31dacd,001,2022-04-29_03h45.50.871,classification_task,2021.2.3,Win32,59.95203837,5edc753bcee6c1953c31dacd,626b377229c10585ec392f8a,626b3b8040087ce01978a33d,,,,,,,,,,,,,,,,,,,,,,,l,0,1.5447,"[""0.699"",""0.518"",""0.655"",""0.862""]","[0,1,1,1]",0,63,63,63,1,0,1,,,0,FALSE,,,,,,,,,,,,,,,,,,,,,,,,,,,,,,
,5edc753bcee6c1953c31dacd,001,2022-04-29_03h45.50.871,classification_task,2021.2.3,Win32,59.95203837,5edc753bcee6c1953c31dacd,626b377229c10585ec392f8a,626b3b8040087ce01978a33d,,,,,,,,,,,,,,,,,,,,,,,,,,,,,,,,,,,,,,,0, ,,0,8.478228622,640.1901,0,0,0,0,1,2,1,,,,,,,,,,,,,,,,,
,5edc753bcee6c1953c31dacd,001,2022-04-29_03h45.50.871,classification_task,2021.2.3,Win32,59.95203837,5edc753bcee6c1953c31dacd,626b377229c10585ec392f8a,626b3b8040087ce01978a33d,,,,,,,,,,,,,,,,,,,,,,,,,,,,,,,,,,,,,,,1,  ,,0,8.503850533,630.7513,0,0,0,0,1,2,1,,,,,,,,,,,,,,,,,
,5edc753bcee6c1953c31dacd,001,2022-04-29_03h45.50.871,classification_task,2021.2.3,Win32,59.95203837,5edc753bcee6c1953c31dacd,626b377229c10585ec392f8a,626b3b8040087ce01978a33d,,,,,,,,,,,,,,,,,,,,,,,,,,,,,,,,,,,,,,,2,  ,,0,6.659043641,633.9176,0,0,0,0,1,2,1,,,,,,,,,,,,,,,,,
,5edc753bcee6c1953c31dacd,001,2022-04-29_03h45.50.871,classification_task,2021.2.3,Win32,59.95203837,5edc753bcee6c1953c31dacd,626b377229c10585ec392f8a,626b3b8040087ce01978a33d,,,,,,,,,,,,,,,,,,,,,,,,,,,,,,,,,,,,,,,,,,,,,0,0,0,0,1,,1,,,,,,,,,,,,,,,,,
,5edc753bcee6c1953c31dacd,001,2022-04-29_03h45.50.871,classification_task,2021.2.3,Win32,59.95203837,5edc753bcee6c1953c31dacd,626b377229c10585ec392f8a,626b3b8040087ce01978a33d,,,,,,,,,,,,,,,,,,,,,space,6.8335,l,0,3.0266,"[""0.319"",""0.518"",""0.655"",""0.564""]","[1,1,1,0]",0,0,0,0,1,0,1,,,0,FALSE,,,,,,,,,,,,,,,,,,,,,,,,,,,,,,
,5edc753bcee6c1953c31dacd,001,2022-04-29_03h45.50.871,classification_task,2021.2.3,Win32,59.95203837,5edc753bcee6c1953c31dacd,626b377229c10585ec392f8a,626b3b8040087ce01978a33d,,,,,,,,,,,,,,,,,,,,,,,l,1,1.3434,"[""0.112"",""0.423"",""0.188"",""0.751""]","[1,1,0,1]",0,1,1,1,1,1,1,,,0,FALSE,,,,,,,,,,,,,,,,,,,,,,,,,,,,,,
,5edc753bcee6c1953c31dacd,001,2022-04-29_03h45.50.871,classification_task,2021.2.3,Win32,59.95203837,5edc753bcee6c1953c31dacd,626b377229c10585ec392f8a,626b3b8040087ce01978a33d,,,,,,,,,,,,,,,,,,,,,,,l,1,2.7566,"[""0.058"",""0.206"",""0.461"",""0.828""]","[1,0,1,1]",0,2,2,2,1,1,0,,,0,FALSE,,,,,,,,,,,,,,,,,,,,,,,,,,,,,,
,5edc753bcee6c1953c31dacd,001,2022-04-29_03h45.50.871,classification_task,2021.2.3,Win32,59.95203837,5edc753bcee6c1953c31dacd,626b377229c10585ec392f8a,626b3b8040087ce01978a33d,,,,,,,,,,,,,,,,,,,,,,,a,1,2.2229,"[""0.319"",""0.551"",""0.655"",""0.862""]","[1,0,1,1]",0,3,3,3,1,0,1,,,0,FALSE,,,,,,,,,,,,,,,,,,,,,,,,,,,,,,
,5edc753bcee6c1953c31dacd,001,2022-04-29_03h45.50.871,classification_task,2021.2.3,Win32,59.95203837,5edc753bcee6c1953c31dacd,626b377229c10585ec392f8a,626b3b8040087ce01978a33d,,,,,,,,,,,,,,,,,,,,,,,l,1,0.6867,"[""0.112"",""0.423"",""0.598"",""0.555""]","[1,1,1,0]",0,4,4,4,1,1,1,,,0,FALSE,,,,,,,,,,,,,,,,,,,,,,,,,,,,,,
,5edc753bcee6c1953c31dacd,001,2022-04-29_03h45.50.871,classification_task,2021.2.3,Win32,59.95203837,5edc753bcee6c1953c31dacd,626b377229c10585ec392f8a,626b3b8040087ce01978a33d,,,,,,,,,,,,,,,,,,,,,,,a,0,1.2694,"[""0.191"",""0.423"",""0.598"",""0.751""]","[0,1,1,1]",0,5,5,5,1,1,1,,,0,FALSE,,,,,,,,,,,,,,,,,,,,,,,,,,,,,,
,5edc753bcee6c1953c31dacd,001,2022-04-29_03h45.50.871,classification_task,2021.2.3,Win32,59.95203837,5edc753bcee6c1953c31dacd,626b377229c10585ec392f8a,626b3b8040087ce01978a33d,,,,,,,,,,,,,,,,,,,,,,,l,1,1.2322,"[""0.058"",""0.153"",""0.223"",""0.828""]","[1,1,0,1]",0,6,6,6,1,1,0,,,0,FALSE,,,,,,,,,,,,,,,,,,,,,,,,,,,,,,
,5edc753bcee6c1953c31dacd,001,2022-04-29_03h45.50.871,classification_task,2021.2.3,Win32,59.95203837,5edc753bcee6c1953c31dacd,626b377229c10585ec392f8a,626b3b8040087ce01978a33d,,,,,,,,,,,,,,,,,,,,,,,a,1,0.8119,"[""0.261"",""0.188"",""0.912"",""0.955""]","[1,0,1,1]",0,7,7,7,1,0,0,,,0,FALSE,,,,,,,,,,,,,,,,,,,,,,,,,,,,,,
,5edc753bcee6c1953c31dacd,001,2022-04-29_03h45.50.871,classification_task,2021.2.3,Win32,59.95203837,5edc753bcee6c1953c31dacd,626b377229c10585ec392f8a,626b3b8040087ce01978a33d,,,,,,,,,,,,,,,,,,,,,,,l,1,0.6904,"[""0.058"",""0.153"",""0.461"",""0.564""]","[1,1,1,0]",0,8,8,8,1,1,0,,,0,FALSE,,,,,,,,,,,,,,,,,,,,,,,,,,,,,,
,5edc753bcee6c1953c31dacd,001,2022-04-29_03h45.50.871,classification_task,2021.2.3,Win32,59.95203837,5edc753bcee6c1953c31dacd,626b377229c10585ec392f8a,626b3b8040087ce01978a33d,,,,,,,,,,,,,,,,,,,,,,,a,1,0.7631,"[""0.261"",""0.364"",""0.564"",""0.955""]","[1,1,0,1]",0,9,9,9,1,0,0,,,0,FALSE,,,,,,,,,,,,,,,,,,,,,,,,,,,,,,
,5edc753bcee6c1953c31dacd,001,2022-04-29_03h45.50.871,classification_task,2021.2.3,Win32,59.95203837,5edc753bcee6c1953c31dacd,626b377229c10585ec392f8a,626b3b8040087ce01978a33d,,,,,,,,,,,,,,,,,,,,,,,a,1,2.1886,"[""0.319"",""0.518"",""0.188"",""0.862""]","[1,1,0,1]",0,10,10,10,1,0,1,,,0,FALSE,,,,,,,,,,,,,,,,,,,,,,,,,,,,,,
,5edc753bcee6c1953c31dacd,001,2022-04-29_03h45.50.871,classification_task,2021.2.3,Win32,59.95203837,5edc753bcee6c1953c31dacd,626b377229c10585ec392f8a,626b3b8040087ce01978a33d,,,,,,,,,,,,,,,,,,,,,,,l,1,0.9864,"[""0.226"",""0.153"",""0.461"",""0.828""]","[0,1,1,1]",0,11,11,11,1,1,0,,,0,FALSE,,,,,,,,,,,,,,,,,,,,,,,,,,,,,,
,5edc753bcee6c1953c31dacd,001,2022-04-29_03h45.50.871,classification_task,2021.2.3,Win32,59.95203837,5edc753bcee6c1953c31dacd,626b377229c10585ec392f8a,626b3b8040087ce01978a33d,,,,,,,,,,,,,,,,,,,,,,,l,1,1.4711,"[""0.112"",""0.699"",""0.598"",""0.751""]","[1,0,1,1]",0,12,12,12,1,1,1,,,0,FALSE,,,,,,,,,,,,,,,,,,,,,,,,,,,,,,
,5edc753bcee6c1953c31dacd,001,2022-04-29_03h45.50.871,classification_task,2021.2.3,Win32,59.95203837,5edc753bcee6c1953c31dacd,626b377229c10585ec392f8a,626b3b8040087ce01978a33d,,,,,,,,,,,,,,,,,,,,,,,a,1,0.982,"[""0.559"",""0.518"",""0.655"",""0.862""]","[0,1,1,1]",0,13,13,13,1,0,1,,,0,FALSE,,,,,,,,,,,,,,,,,,,,,,,,,,,,,,
,5edc753bcee6c1953c31dacd,001,2022-04-29_03h45.50.871,classification_task,2021.2.3,Win32,59.95203837,5edc753bcee6c1953c31dacd,626b377229c10585ec392f8a,626b3b8040087ce01978a33d,,,,,,,,,,,,,,,,,,,,,,,a,1,1.0907,"[""0.261"",""0.364"",""0.912"",""0.700""]","[1,1,1,0]",0,14,14,14,1,0,0,,,0,FALSE,,,,,,,,,,,,,,,,,,,,,,,,,,,,,,
,5edc753bcee6c1953c31dacd,001,2022-04-29_03h45.50.871,classification_task,2021.2.3,Win32,59.95203837,5edc753bcee6c1953c31dacd,626b377229c10585ec392f8a,626b3b8040087ce01978a33d,,,,,,,,,,,,,,,,,,,,,,,a,1,0.6129,"[""0.191"",""0.364"",""0.912"",""0.955""]","[0,1,1,1]",0,15,15,15,1,0,0,,,0,FALSE,,,,,,,,,,,,,,,,,,,,,,,,,,,,,,
,5edc753bcee6c1953c31dacd,001,2022-04-29_03h45.50.871,classification_task,2021.2.3,Win32,59.95203837,5edc753bcee6c1953c31dacd,626b377229c10585ec392f8a,626b3b8040087ce01978a33d,,,,,,,,,,,,,,,,,,,,,,,l,1,1.2127,"[""0.112"",""0.423"",""0.551"",""0.751""]","[1,1,0,1]",0,16,16,16,1,1,1,,,0,FALSE,,,,,,,,,,,,,,,,,,,,,,,,,,,,,,
,5edc753bcee6c1953c31dacd,001,2022-04-29_03h45.50.871,classification_task,2021.2.3,Win32,59.95203837,5edc753bcee6c1953c31dacd,626b377229c10585ec392f8a,626b3b8040087ce01978a33d,,,,,,,,,,,,,,,,,,,,,,,l,1,0.8906,"[""0.058"",""0.700"",""0.461"",""0.828""]","[1,0,1,1]",0,17,17,17,1,1,0,,,0,FALSE,,,,,,,,,,,,,,,,,,,,,,,,,,,,,,
,5edc753bcee6c1953c31dacd,001,2022-04-29_03h45.50.871,classification_task,2021.2.3,Win32,59.95203837,5edc753bcee6c1953c31dacd,626b377229c10585ec392f8a,626b3b8040087ce01978a33d,,,,,,,,,,,,,,,,,,,,,,,l,1,0.4677,"[""0.206"",""0.153"",""0.461"",""0.828""]","[0,1,1,1]",0,18,18,18,1,1,0,,,0,FALSE,,,,,,,,,,,,,,,,,,,,,,,,,,,,,,
,5edc753bcee6c1953c31dacd,001,2022-04-29_03h45.50.871,classification_task,2021.2.3,Win32,59.95203837,5edc753bcee6c1953c31dacd,626b377229c10585ec392f8a,626b3b8040087ce01978a33d,,,,,,,,,,,,,,,,,,,,,,,l,0,1.1385,"[""0.206"",""0.518"",""0.655"",""0.862""]","[0,1,1,1]",0,19,19,19,1,0,1,,,0,FALSE,,,,,,,,,,,,,,,,,,,,,,,,,,,,,,
,5edc753bcee6c1953c31dacd,001,2022-04-29_03h45.50.871,classification_task,2021.2.3,Win32,59.95203837,5edc753bcee6c1953c31dacd,626b377229c10585ec392f8a,626b3b8040087ce01978a33d,,,,,,,,,,,,,,,,,,,,,,,a,1,1.0648,"[""0.319"",""0.518"",""0.223"",""0.862""]","[1,1,0,1]",0,20,20,20,1,0,1,,,0,FALSE,,,,,,,,,,,,,,,,,,,,,,,,,,,,,,
,5edc753bcee6c1953c31dacd,001,2022-04-29_03h45.50.871,classification_task,2021.2.3,Win32,59.95203837,5edc753bcee6c1953c31dacd,626b377229c10585ec392f8a,626b3b8040087ce01978a33d,,,,,,,,,,,,,,,,,,,,,,,a,1,1.4123,"[""0.319"",""0.191"",""0.655"",""0.862""]","[1,0,1,1]",0,21,21,21,1,0,1,,,0,FALSE,,,,,,,,,,,,,,,,,,,,,,,,,,,,,,
,5edc753bcee6c1953c31dacd,001,2022-04-29_03h45.50.871,classification_task,2021.2.3,Win32,59.95203837,5edc753bcee6c1953c31dacd,626b377229c10585ec392f8a,626b3b8040087ce01978a33d,,,,,,,,,,,,,,,,,,,,,,,l,1,0.8482,"[""0.058"",""0.153"",""0.461"",""0.563""]","[1,1,1,0]",0,22,22,22,1,1,0,,,0,FALSE,,,,,,,,,,,,,,,,,,,,,,,,,,,,,,
,5edc753bcee6c1953c31dacd,001,2022-04-29_03h45.50.871,classification_task,2021.2.3,Win32,59.95203837,5edc753bcee6c1953c31dacd,626b377229c10585ec392f8a,626b3b8040087ce01978a33d,,,,,,,,,,,,,,,,,,,,,,,a,1,0.5167,"[""0.261"",""0.364"",""0.563"",""0.955""]","[1,1,0,1]",0,23,23,23,1,0,0,,,0,FALSE,,,,,,,,,,,,,,,,,,,,,,,,,,,,,,
,5edc753bcee6c1953c31dacd,001,2022-04-29_03h45.50.871,classification_task,2021.2.3,Win32,59.95203837,5edc753bcee6c1953c31dacd,626b377229c10585ec392f8a,626b3b8040087ce01978a33d,,,,,,,,,,,,,,,,,,,,,,,a,1,0.651,"[""0.261"",""0.700"",""0.912"",""0.955""]","[1,0,1,1]",0,24,24,24,1,0,0,,,0,FALSE,,,,,,,,,,,,,,,,,,,,,,,,,,,,,,
,5edc753bcee6c1953c31dacd,001,2022-04-29_03h45.50.871,classification_task,2021.2.3,Win32,59.95203837,5edc753bcee6c1953c31dacd,626b377229c10585ec392f8a,626b3b8040087ce01978a33d,,,,,,,,,,,,,,,,,,,,,,,l,1,1.1769,"[""0.112"",""0.423"",""0.598"",""0.191""]","[1,1,1,0]",0,25,25,25,1,1,1,,,0,FALSE,,,,,,,,,,,,,,,,,,,,,,,,,,,,,,
,5edc753bcee6c1953c31dacd,001,2022-04-29_03h45.50.871,classification_task,2021.2.3,Win32,59.95203837,5edc753bcee6c1953c31dacd,626b377229c10585ec392f8a,626b3b8040087ce01978a33d,,,,,,,,,,,,,,,,,,,,,,,a,0,0.6984,"[""0.058"",""0.153"",""0.195"",""0.828""]","[1,1,0,1]",0,26,26,26,1,1,0,,,0,FALSE,,,,,,,,,,,,,,,,,,,,,,,,,,,,,,
,5edc753bcee6c1953c31dacd,001,2022-04-29_03h45.50.871,classification_task,2021.2.3,Win32,59.95203837,5edc753bcee6c1953c31dacd,626b377229c10585ec392f8a,626b3b8040087ce01978a33d,,,,,,,,,,,,,,,,,,,,,,,a,1,0.6612,"[""0.223"",""0.364"",""0.912"",""0.955""]","[0,1,1,1]",0,27,27,27,1,0,0,,,0,FALSE,,,,,,,,,,,,,,,,,,,,,,,,,,,,,,
,5edc753bcee6c1953c31dacd,001,2022-04-29_03h45.50.871,classification_task,2021.2.3,Win32,59.95203837,5edc753bcee6c1953c31dacd,626b377229c10585ec392f8a,626b3b8040087ce01978a33d,,,,,,,,,,,,,,,,,,,,,,,l,1,1.111,"[""0.112"",""0.195"",""0.598"",""0.751""]","[1,0,1,1]",0,28,28,28,1,1,1,,,0,FALSE,,,,,,,,,,,,,,,,,,,,,,,,,,,,,,
,5edc753bcee6c1953c31dacd,001,2022-04-29_03h45.50.871,classification_task,2021.2.3,Win32,59.95203837,5edc753bcee6c1953c31dacd,626b377229c10585ec392f8a,626b3b8040087ce01978a33d,,,,,,,,,,,,,,,,,,,,,,,a,1,1.1295,"[""0.319"",""0.518"",""0.655"",""0.564""]","[1,1,1,0]",0,29,29,29,1,0,1,,,0,FALSE,,,,,,,,,,,,,,,,,,,,,,,,,,,,,,
,5edc753bcee6c1953c31dacd,001,2022-04-29_03h45.50.871,classification_task,2021.2.3,Win32,59.95203837,5edc753bcee6c1953c31dacd,626b377229c10585ec392f8a,626b3b8040087ce01978a33d,,,,,,,,,,,,,,,,,,,,,,,a,1,0.8354,"[""0.261"",""0.364"",""0.912"",""0.563""]","[1,1,1,0]",0,30,30,30,1,0,0,,,0,FALSE,,,,,,,,,,,,,,,,,,,,,,,,,,,,,,
,5edc753bcee6c1953c31dacd,001,2022-04-29_03h45.50.871,classification_task,2021.2.3,Win32,59.95203837,5edc753bcee6c1953c31dacd,626b377229c10585ec392f8a,626b3b8040087ce01978a33d,,,,,,,,,,,,,,,,,,,,,,,l,1,1.0409,"[""0.792"",""0.423"",""0.598"",""0.751""]","[0,1,1,1]",0,31,31,31,1,1,1,,,0,FALSE,,,,,,,,,,,,,,,,,,,,,,,,,,,,,,
,5edc753bcee6c1953c31dacd,001,2022-04-29_03h45.50.871,classification_task,2021.2.3,Win32,59.95203837,5edc753bcee6c1953c31dacd,626b377229c10585ec392f8a,626b3b8040087ce01978a33d,,,,,,,,,,,,,,,,,,,,,,,l,1,0.5816,"[""0.551"",""0.423"",""0.598"",""0.751""]","[0,1,1,1]",0,32,32,32,1,1,1,,,0,FALSE,,,,,,,,,,,,,,,,,,,,,,,,,,,,,,
,5edc753bcee6c1953c31dacd,001,2022-04-29_03h45.50.871,classification_task,2021.2.3,Win32,59.95203837,5edc753bcee6c1953c31dacd,626b377229c10585ec392f8a,626b3b8040087ce01978a33d,,,,,,,,,,,,,,,,,,,,,,,l,1,0.8653,"[""0.058"",""0.226"",""0.461"",""0.828""]","[1,0,1,1]",0,33,33,33,1,1,0,,,0,FALSE,,,,,,,,,,,,,,,,,,,,,,,,,,,,,,
,5edc753bcee6c1953c31dacd,001,2022-04-29_03h45.50.871,classification_task,2021.2.3,Win32,59.95203837,5edc753bcee6c1953c31dacd,626b377229c10585ec392f8a,626b3b8040087ce01978a33d,,,,,,,,,,,,,,,,,,,,,,,l,1,0.5726,"[""0.058"",""0.153"",""0.461"",""0.226""]","[1,1,1,0]",0,34,34,34,1,1,0,,,0,FALSE,,,,,,,,,,,,,,,,,,,,,,,,,,,,,,
,5edc753bcee6c1953c31dacd,001,2022-04-29_03h45.50.871,classification_task,2021.2.3,Win32,59.95203837,5edc753bcee6c1953c31dacd,626b377229c10585ec392f8a,626b3b8040087ce01978a33d,,,,,,,,,,,,,,,,,,,,,,,a,1,0.5173,"[""0.261"",""0.564"",""0.912"",""0.955""]","[1,0,1,1]",0,35,35,35,1,0,0,,,0,FALSE,,,,,,,,,,,,,,,,,,,,,,,,,,,,,,
,5edc753bcee6c1953c31dacd,001,2022-04-29_03h45.50.871,classification_task,2021.2.3,Win32,59.95203837,5edc753bcee6c1953c31dacd,626b377229c10585ec392f8a,626b3b8040087ce01978a33d,,,,,,,,,,,,,,,,,,,,,,,l,1,1.0838,"[""0.112"",""0.423"",""0.188"",""0.751""]","[1,1,0,1]",0,36,36,36,1,1,1,,,0,FALSE,,,,,,,,,,,,,,,,,,,,,,,,,,,,,,
,5edc753bcee6c1953c31dacd,001,2022-04-29_03h45.50.871,classification_task,2021.2.3,Win32,59.95203837,5edc753bcee6c1953c31dacd,626b377229c10585ec392f8a,626b3b8040087ce01978a33d,,,,,,,,,,,,,,,,,,,,,,,l,1,0.5125,"[""0.112"",""0.191"",""0.598"",""0.751""]","[1,0,1,1]",0,37,37,37,1,1,1,,,0,FALSE,,,,,,,,,,,,,,,,,,,,,,,,,,,,,,
,5edc753bcee6c1953c31dacd,001,2022-04-29_03h45.50.871,classification_task,2021.2.3,Win32,59.95203837,5edc753bcee6c1953c31dacd,626b377229c10585ec392f8a,626b3b8040087ce01978a33d,,,,,,,,,,,,,,,,,,,,,,,l,0,0.6624,"[""0.188"",""0.364"",""0.912"",""0.955""]","[0,1,1,1]",0,38,38,38,1,0,0,,,0,FALSE,,,,,,,,,,,,,,,,,,,,,,,,,,,,,,
,5edc753bcee6c1953c31dacd,001,2022-04-29_03h45.50.871,classification_task,2021.2.3,Win32,59.95203837,5edc753bcee6c1953c31dacd,626b377229c10585ec392f8a,626b3b8040087ce01978a33d,,,,,,,,,,,,,,,,,,,,,,,a,1,1.4465,"[""0.319"",""0.518"",""0.700"",""0.862""]","[1,1,0,1]",0,39,39,39,1,0,1,,,0,FALSE,,,,,,,,,,,,,,,,,,,,,,,,,,,,,,
,5edc753bcee6c1953c31dacd,001,2022-04-29_03h45.50.871,classification_task,2021.2.3,Win32,59.95203837,5edc753bcee6c1953c31dacd,626b377229c10585ec392f8a,626b3b8040087ce01978a33d,,,,,,,,,,,,,,,,,,,,,,,l,1,0.8084,"[""0.112"",""0.423"",""0.598"",""0.564""]","[1,1,1,0]",0,40,40,40,1,1,1,,,0,FALSE,,,,,,,,,,,,,,,,,,,,,,,,,,,,,,
,5edc753bcee6c1953c31dacd,001,2022-04-29_03h45.50.871,classification_task,2021.2.3,Win32,59.95203837,5edc753bcee6c1953c31dacd,626b377229c10585ec392f8a,626b3b8040087ce01978a33d,,,,,,,,,,,,,,,,,,,,,,,a,1,1.1479,"[""0.261"",""0.364"",""0.188"",""0.955""]","[1,1,0,1]",0,41,41,41,1,0,0,,,0,FALSE,,,,,,,,,,,,,,,,,,,,,,,,,,,,,,
,5edc753bcee6c1953c31dacd,001,2022-04-29_03h45.50.871,classification_task,2021.2.3,Win32,59.95203837,5edc753bcee6c1953c31dacd,626b377229c10585ec392f8a,626b3b8040087ce01978a33d,,,,,,,,,,,,,,,,,,,,,,,l,1,0.847,"[""0.559"",""0.153"",""0.461"",""0.828""]","[0,1,1,1]",0,42,42,42,1,1,0,,,0,FALSE,,,,,,,,,,,,,,,,,,,,,,,,,,,,,,
,5edc753bcee6c1953c31dacd,001,2022-04-29_03h45.50.871,classification_task,2021.2.3,Win32,59.95203837,5edc753bcee6c1953c31dacd,626b377229c10585ec392f8a,626b3b8040087ce01978a33d,,,,,,,,,,,,,,,,,,,,,,,a,1,1.1748,"[""0.319"",""0.518"",""0.655"",""0.700""]","[1,1,1,0]",0,43,43,43,1,0,1,,,0,FALSE,,,,,,,,,,,,,,,,,,,,,,,,,,,,,,
,5edc753bcee6c1953c31dacd,001,2022-04-29_03h45.50.871,classification_task,2021.2.3,Win32,59.95203837,5edc753bcee6c1953c31dacd,626b377229c10585ec392f8a,626b3b8040087ce01978a33d,,,,,,,,,,,,,,,,,,,,,,,l,1,0.949,"[""0.058"",""0.153"",""0.563"",""0.828""]","[1,1,0,1]",0,44,44,44,1,1,0,,,0,FALSE,,,,,,,,,,,,,,,,,,,,,,,,,,,,,,
,5edc753bcee6c1953c31dacd,001,2022-04-29_03h45.50.871,classification_task,2021.2.3,Win32,59.95203837,5edc753bcee6c1953c31dacd,626b377229c10585ec392f8a,626b3b8040087ce01978a33d,,,,,,,,,,,,,,,,,,,,,,,l,0,1.0622,"[""0.195"",""0.518"",""0.655"",""0.862""]","[0,1,1,1]",0,45,45,45,1,0,1,,,0,FALSE,,,,,,,,,,,,,,,,,,,,,,,,,,,,,,
,5edc753bcee6c1953c31dacd,001,2022-04-29_03h45.50.871,classification_task,2021.2.3,Win32,59.95203837,5edc753bcee6c1953c31dacd,626b377229c10585ec392f8a,626b3b8040087ce01978a33d,,,,,,,,,,,,,,,,,,,,,,,a,1,0.8536,"[""0.319"",""0.551"",""0.655"",""0.862""]","[1,0,1,1]",0,46,46,46,1,0,1,,,0,FALSE,,,,,,,,,,,,,,,,,,,,,,,,,,,,,,
,5edc753bcee6c1953c31dacd,001,2022-04-29_03h45.50.871,classification_task,2021.2.3,Win32,59.95203837,5edc753bcee6c1953c31dacd,626b377229c10585ec392f8a,626b3b8040087ce01978a33d,,,,,,,,,,,,,,,,,,,,,,,a,1,0.8242,"[""0.261"",""0.364"",""0.912"",""0.188""]","[1,1,1,0]",0,47,47,47,1,0,0,,,0,FALSE,,,,,,,,,,,,,,,,,,,,,,,,,,,,,,
,5edc753bcee6c1953c31dacd,001,2022-04-29_03h45.50.871,classification_task,2021.2.3,Win32,59.95203837,5edc753bcee6c1953c31dacd,626b377229c10585ec392f8a,626b3b8040087ce01978a33d,,,,,,,,,,,,,,,,,,,,,,,l,0,0.8729,"[""0.319"",""0.188"",""0.655"",""0.862""]","[1,0,1,1]",0,48,48,48,1,0,1,,,0,FALSE,,,,,,,,,,,,,,,,,,,,,,,,,,,,,,
,5edc753bcee6c1953c31dacd,001,2022-04-29_03h45.50.871,classification_task,2021.2.3,Win32,59.95203837,5edc753bcee6c1953c31dacd,626b377229c10585ec392f8a,626b3b8040087ce01978a33d,,,,,,,,,,,,,,,,,,,,,,,a,1,1.0557,"[""0.261"",""0.563"",""0.912"",""0.955""]","[1,0,1,1]",0,49,49,49,1,0,0,,,0,FALSE,,,,,,,,,,,,,,,,,,,,,,,,,,,,,,
,5edc753bcee6c1953c31dacd,001,2022-04-29_03h45.50.871,classification_task,2021.2.3,Win32,59.95203837,5edc753bcee6c1953c31dacd,626b377229c10585ec392f8a,626b3b8040087ce01978a33d,,,,,,,,,,,,,,,,,,,,,,,a,1,3.1976,"[""0.261"",""0.364"",""0.223"",""0.955""]","[1,1,0,1]",0,50,50,50,1,0,0,,,0,FALSE,,,,,,,,,,,,,,,,,,,,,,,,,,,,,,
,5edc753bcee6c1953c31dacd,001,2022-04-29_03h45.50.871,classification_task,2021.2.3,Win32,59.95203837,5edc753bcee6c1953c31dacd,626b377229c10585ec392f8a,626b3b8040087ce01978a33d,,,,,,,,,,,,,,,,,,,,,,,a,1,0.001,"[""0.188"",""0.364"",""0.912"",""0.955""]","[0,1,1,1]",0,51,51,51,1,0,0,,,0,FALSE,,,,,,,,,,,,,,,,,,,,,,,,,,,,,,
,5edc753bcee6c1953c31dacd,001,2022-04-29_03h45.50.871,classification_task,2021.2.3,Win32,59.95203837,5edc753bcee6c1953c31dacd,626b377229c10585ec392f8a,626b3b8040087ce01978a33d,,,,,,,,,,,,,,,,,,,,,,,a,0,0.2625,"[""0.058"",""0.153"",""0.551"",""0.828""]","[1,1,0,1]",0,52,52,52,1,1,0,,,0,FALSE,,,,,,,,,,,,,,,,,,,,,,,,,,,,,,
,5edc753bcee6c1953c31dacd,001,2022-04-29_03h45.50.871,classification_task,2021.2.3,Win32,59.95203837,5edc753bcee6c1953c31dacd,626b377229c10585ec392f8a,626b3b8040087ce01978a33d,,,,,,,,,,,,,,,,,,,,,,,l,0,2.6075,"[""0.319"",""0.518"",""0.700"",""0.862""]","[1,1,0,1]",0,53,53,53,1,0,1,,,0,FALSE,,,,,,,,,,,,,,,,,,,,,,,,,,,,,,
,5edc753bcee6c1953c31dacd,001,2022-04-29_03h45.50.871,classification_task,2021.2.3,Win32,59.95203837,5edc753bcee6c1953c31dacd,626b377229c10585ec392f8a,626b3b8040087ce01978a33d,,,,,,,,,,,,,,,,,,,,,,,a,0,1.0315,"[""0.695"",""0.153"",""0.461"",""0.828""]","[0,1,1,1]",0,54,54,54,1,1,0,,,0,FALSE,,,,,,,,,,,,,,,,,,,,,,,,,,,,,,
,5edc753bcee6c1953c31dacd,001,2022-04-29_03h45.50.871,classification_task,2021.2.3,Win32,59.95203837,5edc753bcee6c1953c31dacd,626b377229c10585ec392f8a,626b3b8040087ce01978a33d,,,,,,,,,,,,,,,,,,,,,,,l,1,1.1821,"[""0.058"",""0.700"",""0.461"",""0.828""]","[1,0,1,1]",0,55,55,55,1,1,0,,,0,FALSE,,,,,,,,,,,,,,,,,,,,,,,,,,,,,,
,5edc753bcee6c1953c31dacd,001,2022-04-29_03h45.50.871,classification_task,2021.2.3,Win32,59.95203837,5edc753bcee6c1953c31dacd,626b377229c10585ec392f8a,626b3b8040087ce01978a33d,,,,,,,,,,,,,,,,,,,,,,,a,1,1.4652,"[""0.555"",""0.518"",""0.655"",""0.862""]","[0,1,1,1]",0,56,56,56,1,0,1,,,0,FALSE,,,,,,,,,,,,,,,,,,,,,,,,,,,,,,
,5edc753bcee6c1953c31dacd,001,2022-04-29_03h45.50.871,classification_task,2021.2.3,Win32,59.95203837,5edc753bcee6c1953c31dacd,626b377229c10585ec392f8a,626b3b8040087ce01978a33d,,,,,,,,,,,,,,,,,,,,,,,l,1,1.3293,"[""0.112"",""0.700"",""0.598"",""0.751""]","[1,0,1,1]",0,57,57,57,1,1,1,,,0,FALSE,,,,,,,,,,,,,,,,,,,,,,,,,,,,,,
,5edc753bcee6c1953c31dacd,001,2022-04-29_03h45.50.871,classification_task,2021.2.3,Win32,59.95203837,5edc753bcee6c1953c31dacd,626b377229c10585ec392f8a,626b3b8040087ce01978a33d,,,,,,,,,,,,,,,,,,,,,,,l,1,1.1495,"[""0.112"",""0.423"",""0.226"",""0.751""]","[1,1,0,1]",0,58,58,58,1,1,1,,,0,FALSE,,,,,,,,,,,,,,,,,,,,,,,,,,,,,,
,5edc753bcee6c1953c31dacd,001,2022-04-29_03h45.50.871,classification_task,2021.2.3,Win32,59.95203837,5edc753bcee6c1953c31dacd,626b377229c10585ec392f8a,626b3b8040087ce01978a33d,,,,,,,,,,,,,,,,,,,,,,,l,1,0.8545,"[""0.058"",""0.153"",""0.461"",""0.226""]","[1,1,1,0]",0,59,59,59,1,1,0,,,0,FALSE,,,,,,,,,,,,,,,,,,,,,,,,,,,,,,
,5edc753bcee6c1953c31dacd,001,2022-04-29_03h45.50.871,classification_task,2021.2.3,Win32,59.95203837,5edc753bcee6c1953c31dacd,626b377229c10585ec392f8a,626b3b8040087ce01978a33d,,,,,,,,,,,,,,,,,,,,,,,l,1,0.8729,"[""0.112"",""0.423"",""0.598"",""0.206""]","[1,1,1,0]",0,60,60,60,1,1,1,,,0,FALSE,,,,,,,,,,,,,,,,,,,,,,,,,,,,,,
,5edc753bcee6c1953c31dacd,001,2022-04-29_03h45.50.871,classification_task,2021.2.3,Win32,59.95203837,5edc753bcee6c1953c31dacd,626b377229c10585ec392f8a,626b3b8040087ce01978a33d,,,,,,,,,,,,,,,,,,,,,,,a,1,0.9737,"[""0.261"",""0.364"",""0.912"",""0.226""]","[1,1,1,0]",0,61,61,61,1,0,0,,,0,FALSE,,,,,,,,,,,,,,,,,,,,,,,,,,,,,,
,5edc753bcee6c1953c31dacd,001,2022-04-29_03h45.50.871,classification_task,2021.2.3,Win32,59.95203837,5edc753bcee6c1953c31dacd,626b377229c10585ec392f8a,626b3b8040087ce01978a33d,,,,,,,,,,,,,,,,,,,,,,,a,1,1.2574,"[""0.319"",""0.518"",""0.655"",""0.700""]","[1,1,1,0]",0,62,62,62,1,0,1,,,0,FALSE,,,,,,,,,,,,,,,,,,,,,,,,,,,,,,
,5edc753bcee6c1953c31dacd,001,2022-04-29_03h45.50.871,classification_task,2021.2.3,Win32,59.95203837,5edc753bcee6c1953c31dacd,626b377229c10585ec392f8a,626b3b8040087ce01978a33d,,,,,,,,,,,,,,,,,,,,,,,a,0,1.1074,"[""0.792"",""0.423"",""0.598"",""0.751""]","[0,1,1,1]",0,63,63,63,1,1,1,,,0,FALSE,,,,,,,,,,,,,,,,,,,,,,,,,,,,,,
,5edc753bcee6c1953c31dacd,001,2022-04-29_03h45.50.871,classification_task,2021.2.3,Win32,59.95203837,5edc753bcee6c1953c31dacd,626b377229c10585ec392f8a,626b3b8040087ce01978a33d,,,,,,,,,,,,,,,,,,,,,,,,,,,,,,,,,,,,,,,0, ,,0,7.683935707,151.5687,0,1,1,1,1,2,2,,,,,,,,,,,,,,,,,
,5edc753bcee6c1953c31dacd,001,2022-04-29_03h45.50.871,classification_task,2021.2.3,Win32,59.95203837,5edc753bcee6c1953c31dacd,626b377229c10585ec392f8a,626b3b8040087ce01978a33d,,,,,,,,,,,,,,,,,,,,,,,,,,,,,,,,,,,,,,,1,  ,,0,6.377198714,155.5015,0,1,1,1,1,2,2,,,,,,,,,,,,,,,,,
,5edc753bcee6c1953c31dacd,001,2022-04-29_03h45.50.871,classification_task,2021.2.3,Win32,59.95203837,5edc753bcee6c1953c31dacd,626b377229c10585ec392f8a,626b3b8040087ce01978a33d,,,,,,,,,,,,,,,,,,,,,,,,,,,,,,,,,,,,,,,2,  ,,0,6.197843384,157.0815,0,1,1,1,1,2,2,,,,,,,,,,,,,,,,,
,5edc753bcee6c1953c31dacd,001,2022-04-29_03h45.50.871,classification_task,2021.2.3,Win32,59.95203837,5edc753bcee6c1953c31dacd,626b377229c10585ec392f8a,626b3b8040087ce01978a33d,,,,,,,,,,,,,,,,,,,,,,,,,,,,,,,,,,,,,,,,,,,,,0,1,1,1,1,,2,,,,,,,,,,,,,,,,,
,5edc753bcee6c1953c31dacd,001,2022-04-29_03h45.50.871,classification_task,2021.2.3,Win32,59.95203837,5edc753bcee6c1953c31dacd,626b377229c10585ec392f8a,626b3b8040087ce01978a33d,,,,,,,,,,,,,,,,,,,,,space,7.3567,a,1,1.735,"[""0.261"",""0.364"",""0.912"",""0.223""]","[1,1,1,0]",0,0,0,0,1,0,0,,,0,FALSE,,,,,,,,,,,,,,,,,,,,,,,,,,,,,,
,5edc753bcee6c1953c31dacd,001,2022-04-29_03h45.50.871,classification_task,2021.2.3,Win32,59.95203837,5edc753bcee6c1953c31dacd,626b377229c10585ec392f8a,626b3b8040087ce01978a33d,,,,,,,,,,,,,,,,,,,,,,,,0,,"[""0.188"",""0.153"",""0.461"",""0.828""]","[0,1,1,1]",0,1,1,1,1,1,0,,,0,FALSE,,,,,,,,,,,,,,,,,,,,,,,,,,,,,,
,5edc753bcee6c1953c31dacd,001,2022-04-29_03h45.50.871,classification_task,2021.2.3,Win32,59.95203837,5edc753bcee6c1953c31dacd,626b377229c10585ec392f8a,626b3b8040087ce01978a33d,,,,,,,,,,,,,,,,,,,,,,,l,1,1.475,"[""0.058"",""0.153"",""0.461"",""0.555""]","[1,1,1,0]",0,2,2,2,1,1,0,,,0,FALSE,,,,,,,,,,,,,,,,,,,,,,,,,,,,,,
,5edc753bcee6c1953c31dacd,001,2022-04-29_03h45.50.871,classification_task,2021.2.3,Win32,59.95203837,5edc753bcee6c1953c31dacd,626b377229c10585ec392f8a,626b3b8040087ce01978a33d,,,,,,,,,,,,,,,,,,,,,,,a,1,2.5863,"[""0.319"",""0.518"",""0.699"",""0.862""]","[1,1,0,1]",0,3,3,3,1,0,1,,,0,FALSE,,,,,,,,,,,,,,,,,,,,,,,,,,,,,,
,5edc753bcee6c1953c31dacd,001,2022-04-29_03h45.50.871,classification_task,2021.2.3,Win32,59.95203837,5edc753bcee6c1953c31dacd,626b377229c10585ec392f8a,626b3b8040087ce01978a33d,,,,,,,,,,,,,,,,,,,,,,,l,1,1.0478,"[""0.058"",""0.153"",""0.551"",""0.828""]","[1,1,0,1]",0,4,4,4,1,1,0,,,0,FALSE,,,,,,,,,,,,,,,,,,,,,,,,,,,,,,
,5edc753bcee6c1953c31dacd,001,2022-04-29_03h45.50.871,classification_task,2021.2.3,Win32,59.95203837,5edc753bcee6c1953c31dacd,626b377229c10585ec392f8a,626b3b8040087ce01978a33d,,,,,,,,,,,,,,,,,,,,,,,a,1,4.2108,"[""0.319"",""0.555"",""0.655"",""0.862""]","[1,0,1,1]",0,5,5,5,1,0,1,,,0,FALSE,,,,,,,,,,,,,,,,,,,,,,,,,,,,,,
,5edc753bcee6c1953c31dacd,001,2022-04-29_03h45.50.871,classification_task,2021.2.3,Win32,59.95203837,5edc753bcee6c1953c31dacd,626b377229c10585ec392f8a,626b3b8040087ce01978a33d,,,,,,,,,,,,,,,,,,,,,,,a,1,0.804,"[""0.792"",""0.364"",""0.912"",""0.955""]","[0,1,1,1]",0,6,6,6,1,0,0,,,0,FALSE,,,,,,,,,,,,,,,,,,,,,,,,,,,,,,
,5edc753bcee6c1953c31dacd,001,2022-04-29_03h45.50.871,classification_task,2021.2.3,Win32,59.95203837,5edc753bcee6c1953c31dacd,626b377229c10585ec392f8a,626b3b8040087ce01978a33d,,,,,,,,,,,,,,,,,,,,,,,l,1,0.9967,"[""0.112"",""0.423"",""0.223"",""0.751""]","[1,1,0,1]",0,7,7,7,1,1,1,,,0,FALSE,,,,,,,,,,,,,,,,,,,,,,,,,,,,,,
,5edc753bcee6c1953c31dacd,001,2022-04-29_03h45.50.871,classification_task,2021.2.3,Win32,59.95203837,5edc753bcee6c1953c31dacd,626b377229c10585ec392f8a,626b3b8040087ce01978a33d,,,,,,,,,,,,,,,,,,,,,,,l,0,4.1129,"[""0.188"",""0.518"",""0.655"",""0.862""]","[0,1,1,1]",0,8,8,8,1,0,1,,,0,FALSE,,,,,,,,,,,,,,,,,,,,,,,,,,,,,,
,5edc753bcee6c1953c31dacd,001,2022-04-29_03h45.50.871,classification_task,2021.2.3,Win32,59.95203837,5edc753bcee6c1953c31dacd,626b377229c10585ec392f8a,626b3b8040087ce01978a33d,,,,,,,,,,,,,,,,,,,,,,,l,1,0.9103,"[""0.112"",""0.206"",""0.598"",""0.751""]","[1,0,1,1]",0,9,9,9,1,1,1,,,0,FALSE,,,,,,,,,,,,,,,,,,,,,,,,,,,,,,
,5edc753bcee6c1953c31dacd,001,2022-04-29_03h45.50.871,classification_task,2021.2.3,Win32,59.95203837,5edc753bcee6c1953c31dacd,626b377229c10585ec392f8a,626b3b8040087ce01978a33d,,,,,,,,,,,,,,,,,,,,,,,a,1,1.1066,"[""0.261"",""0.364"",""0.188"",""0.955""]","[1,1,0,1]",0,10,10,10,1,0,0,,,0,FALSE,,,,,,,,,,,,,,,,,,,,,,,,,,,,,,
,5edc753bcee6c1953c31dacd,001,2022-04-29_03h45.50.871,classification_task,2021.2.3,Win32,59.95203837,5edc753bcee6c1953c31dacd,626b377229c10585ec392f8a,626b3b8040087ce01978a33d,,,,,,,,,,,,,,,,,,,,,,,l,1,0.862,"[""0.112"",""0.423"",""0.598"",""0.564""]","[1,1,1,0]",0,11,11,11,1,1,1,,,0,FALSE,,,,,,,,,,,,,,,,,,,,,,,,,,,,,,
,5edc753bcee6c1953c31dacd,001,2022-04-29_03h45.50.871,classification_task,2021.2.3,Win32,59.95203837,5edc753bcee6c1953c31dacd,626b377229c10585ec392f8a,626b3b8040087ce01978a33d,,,,,,,,,,,,,,,,,,,,,,,a,1,1.1979,"[""0.319"",""0.518"",""0.655"",""0.206""]","[1,1,1,0]",0,12,12,12,1,0,1,,,0,FALSE,,,,,,,,,,,,,,,,,,,,,,,,,,,,,,
,5edc753bcee6c1953c31dacd,001,2022-04-29_03h45.50.871,classification_task,2021.2.3,Win32,59.95203837,5edc753bcee6c1953c31dacd,626b377229c10585ec392f8a,626b3b8040087ce01978a33d,,,,,,,,,,,,,,,,,,,,,,,a,0,0.7166,"[""0.563"",""0.423"",""0.598"",""0.751""]","[0,1,1,1]",0,13,13,13,1,1,1,,,0,FALSE,,,,,,,,,,,,,,,,,,,,,,,,,,,,,,
,5edc753bcee6c1953c31dacd,001,2022-04-29_03h45.50.871,classification_task,2021.2.3,Win32,59.95203837,5edc753bcee6c1953c31dacd,626b377229c10585ec392f8a,626b3b8040087ce01978a33d,,,,,,,,,,,,,,,,,,,,,,,a,1,1.11,"[""0.261"",""0.699"",""0.912"",""0.955""]","[1,0,1,1]",0,14,14,14,1,0,0,,,0,FALSE,,,,,,,,,,,,,,,,,,,,,,,,,,,,,,
,5edc753bcee6c1953c31dacd,001,2022-04-29_03h45.50.871,classification_task,2021.2.3,Win32,59.95203837,5edc753bcee6c1953c31dacd,626b377229c10585ec392f8a,626b3b8040087ce01978a33d,,,,,,,,,,,,,,,,,,,,,,,l,1,0.6162,"[""0.058"",""0.564"",""0.461"",""0.828""]","[1,0,1,1]",0,15,15,15,1,1,0,,,0,FALSE,,,,,,,,,,,,,,,,,,,,,,,,,,,,,,
,5edc753bcee6c1953c31dacd,001,2022-04-29_03h45.50.871,classification_task,2021.2.3,Win32,59.95203837,5edc753bcee6c1953c31dacd,626b377229c10585ec392f8a,626b3b8040087ce01978a33d,,,,,,,,,,,,,,,,,,,,,,,a,1,0.7316,"[""0.191"",""0.364"",""0.912"",""0.955""]","[0,1,1,1]",0,16,16,16,1,0,0,,,0,FALSE,,,,,,,,,,,,,,,,,,,,,,,,,,,,,,
,5edc753bcee6c1953c31dacd,001,2022-04-29_03h45.50.871,classification_task,2021.2.3,Win32,59.95203837,5edc753bcee6c1953c31dacd,626b377229c10585ec392f8a,626b3b8040087ce01978a33d,,,,,,,,,,,,,,,,,,,,,,,a,1,1.5288,"[""0.206"",""0.518"",""0.655"",""0.862""]","[0,1,1,1]",0,17,17,17,1,0,1,,,0,FALSE,,,,,,,,,,,,,,,,,,,,,,,,,,,,,,
,5edc753bcee6c1953c31dacd,001,2022-04-29_03h45.50.871,classification_task,2021.2.3,Win32,59.95203837,5edc753bcee6c1953c31dacd,626b377229c10585ec392f8a,626b3b8040087ce01978a33d,,,,,,,,,,,,,,,,,,,,,,,l,1,0.5438,"[""0.112"",""0.423"",""0.700"",""0.751""]","[1,1,0,1]",0,18,18,18,1,1,1,,,0,FALSE,,,,,,,,,,,,,,,,,,,,,,,,,,,,,,
,5edc753bcee6c1953c31dacd,001,2022-04-29_03h45.50.871,classification_task,2021.2.3,Win32,59.95203837,5edc753bcee6c1953c31dacd,626b377229c10585ec392f8a,626b3b8040087ce01978a33d,,,,,,,,,,,,,,,,,,,,,,,a,1,1.0011,"[""0.319"",""0.226"",""0.655"",""0.862""]","[1,0,1,1]",0,19,19,19,1,0,1,,,0,FALSE,,,,,,,,,,,,,,,,,,,,,,,,,,,,,,
,5edc753bcee6c1953c31dacd,001,2022-04-29_03h45.50.871,classification_task,2021.2.3,Win32,59.95203837,5edc753bcee6c1953c31dacd,626b377229c10585ec392f8a,626b3b8040087ce01978a33d,,,,,,,,,,,,,,,,,,,,,,,a,1,1.0151,"[""0.261"",""0.364"",""0.912"",""0.188""]","[1,1,1,0]",0,20,20,20,1,0,0,,,0,FALSE,,,,,,,,,,,,,,,,,,,,,,,,,,,,,,
,5edc753bcee6c1953c31dacd,001,2022-04-29_03h45.50.871,classification_task,2021.2.3,Win32,59.95203837,5edc753bcee6c1953c31dacd,626b377229c10585ec392f8a,626b3b8040087ce01978a33d,,,,,,,,,,,,,,,,,,,,,,,l,1,3.0052,"[""0.188"",""0.153"",""0.461"",""0.828""]","[0,1,1,1]",0,21,21,21,1,1,0,,,0,FALSE,,,,,,,,,,,,,,,,,,,,,,,,,,,,,,
,5edc753bcee6c1953c31dacd,001,2022-04-29_03h45.50.871,classification_task,2021.2.3,Win32,59.95203837,5edc753bcee6c1953c31dacd,626b377229c10585ec392f8a,626b3b8040087ce01978a33d,,,,,,,,,,,,,,,,,,,,,,,a,1,0.8587,"[""0.261"",""0.364"",""0.188"",""0.955""]","[1,1,0,1]",0,22,22,22,1,0,0,,,0,FALSE,,,,,,,,,,,,,,,,,,,,,,,,,,,,,,
,5edc753bcee6c1953c31dacd,001,2022-04-29_03h45.50.871,classification_task,2021.2.3,Win32,59.95203837,5edc753bcee6c1953c31dacd,626b377229c10585ec392f8a,626b3b8040087ce01978a33d,,,,,,,,,,,,,,,,,,,,,,,a,1,1.1483,"[""0.319"",""0.518"",""0.655"",""0.226""]","[1,1,1,0]",0,23,23,23,1,0,1,,,0,FALSE,,,,,,,,,,,,,,,,,,,,,,,,,,,,,,
,5edc753bcee6c1953c31dacd,001,2022-04-29_03h45.50.871,classification_task,2021.2.3,Win32,59.95203837,5edc753bcee6c1953c31dacd,626b377229c10585ec392f8a,626b3b8040087ce01978a33d,,,,,,,,,,,,,,,,,,,,,,,l,1,0.838,"[""0.058"",""0.188"",""0.461"",""0.828""]","[1,0,1,1]",0,24,24,24,1,1,0,,,0,FALSE,,,,,,,,,,,,,,,,,,,,,,,,,,,,,,
,5edc753bcee6c1953c31dacd,001,2022-04-29_03h45.50.871,classification_task,2021.2.3,Win32,59.95203837,5edc753bcee6c1953c31dacd,626b377229c10585ec392f8a,626b3b8040087ce01978a33d,,,,,,,,,,,,,,,,,,,,,,,l,1,0.7494,"[""0.058"",""0.153"",""0.461"",""0.564""]","[1,1,1,0]",0,25,25,25,1,1,0,,,0,FALSE,,,,,,,,,,,,,,,,,,,,,,,,,,,,,,
,5edc753bcee6c1953c31dacd,001,2022-04-29_03h45.50.871,classification_task,2021.2.3,Win32,59.95203837,5edc753bcee6c1953c31dacd,626b377229c10585ec392f8a,626b3b8040087ce01978a33d,,,,,,,,,,,,,,,,,,,,,,,l,1,1.1468,"[""0.058"",""0.153"",""0.188"",""0.828""]","[1,1,0,1]",0,26,26,26,1,1,0,,,0,FALSE,,,,,,,,,,,,,,,,,,,,,,,,,,,,,,
,5edc753bcee6c1953c31dacd,001,2022-04-29_03h45.50.871,classification_task,2021.2.3,Win32,59.95203837,5edc753bcee6c1953c31dacd,626b377229c10585ec392f8a,626b3b8040087ce01978a33d,,,,,,,,,,,,,,,,,,,,,,,a,1,1.0942,"[""0.319"",""0.518"",""0.695"",""0.862""]","[1,1,0,1]",0,27,27,27,1,0,1,,,0,FALSE,,,,,,,,,,,,,,,,,,,,,,,,,,,,,,
,5edc753bcee6c1953c31dacd,001,2022-04-29_03h45.50.871,classification_task,2021.2.3,Win32,59.95203837,5edc753bcee6c1953c31dacd,626b377229c10585ec392f8a,626b3b8040087ce01978a33d,,,,,,,,,,,,,,,,,,,,,,,l,1,0.5515,"[""0.112"",""0.423"",""0.598"",""0.188""]","[1,1,1,0]",0,28,28,28,1,1,1,,,0,FALSE,,,,,,,,,,,,,,,,,,,,,,,,,,,,,,
,5edc753bcee6c1953c31dacd,001,2022-04-29_03h45.50.871,classification_task,2021.2.3,Win32,59.95203837,5edc753bcee6c1953c31dacd,626b377229c10585ec392f8a,626b3b8040087ce01978a33d,,,,,,,,,,,,,,,,,,,,,,,a,0,1.1801,"[""0.563"",""0.423"",""0.598"",""0.751""]","[0,1,1,1]",0,29,29,29,1,1,1,,,0,FALSE,,,,,,,,,,,,,,,,,,,,,,,,,,,,,,
,5edc753bcee6c1953c31dacd,001,2022-04-29_03h45.50.871,classification_task,2021.2.3,Win32,59.95203837,5edc753bcee6c1953c31dacd,626b377229c10585ec392f8a,626b3b8040087ce01978a33d,,,,,,,,,,,,,,,,,,,,,,,l,1,2.2299,"[""0.112"",""0.792"",""0.598"",""0.751""]","[1,0,1,1]",0,30,30,30,1,1,1,,,0,FALSE,,,,,,,,,,,,,,,,,,,,,,,,,,,,,,
,5edc753bcee6c1953c31dacd,001,2022-04-29_03h45.50.871,classification_task,2021.2.3,Win32,59.95203837,5edc753bcee6c1953c31dacd,626b377229c10585ec392f8a,626b3b8040087ce01978a33d,,,,,,,,,,,,,,,,,,,,,,,a,1,0.8444,"[""0.261"",""0.206"",""0.912"",""0.955""]","[1,0,1,1]",0,31,31,31,1,0,0,,,0,FALSE,,,,,,,,,,,,,,,,,,,,,,,,,,,,,,
,5edc753bcee6c1953c31dacd,001,2022-04-29_03h45.50.871,classification_task,2021.2.3,Win32,59.95203837,5edc753bcee6c1953c31dacd,626b377229c10585ec392f8a,626b3b8040087ce01978a33d,,,,,,,,,,,,,,,,,,,,,,,a,1,1.3978,"[""0.319"",""0.518"",""0.655"",""0.226""]","[1,1,1,0]",0,32,32,32,1,0,1,,,0,FALSE,,,,,,,,,,,,,,,,,,,,,,,,,,,,,,
,5edc753bcee6c1953c31dacd,001,2022-04-29_03h45.50.871,classification_task,2021.2.3,Win32,59.95203837,5edc753bcee6c1953c31dacd,626b377229c10585ec392f8a,626b3b8040087ce01978a33d,,,,,,,,,,,,,,,,,,,,,,,l,1,0.7324,"[""0.058"",""0.153"",""0.191"",""0.828""]","[1,1,0,1]",0,33,33,33,1,1,0,,,0,FALSE,,,,,,,,,,,,,,,,,,,,,,,,,,,,,,
,5edc753bcee6c1953c31dacd,001,2022-04-29_03h45.50.871,classification_task,2021.2.3,Win32,59.95203837,5edc753bcee6c1953c31dacd,626b377229c10585ec392f8a,626b3b8040087ce01978a33d,,,,,,,,,,,,,,,,,,,,,,,a,1,0.9431,"[""0.261"",""0.364"",""0.912"",""0.551""]","[1,1,1,0]",0,34,34,34,1,0,0,,,0,FALSE,,,,,,,,,,,,,,,,,,,,,,,,,,,,,,
,5edc753bcee6c1953c31dacd,001,2022-04-29_03h45.50.871,classification_task,2021.2.3,Win32,59.95203837,5edc753bcee6c1953c31dacd,626b377229c10585ec392f8a,626b3b8040087ce01978a33d,,,,,,,,,,,,,,,,,,,,,,,l,1,1.0132,"[""0.112"",""0.423"",""0.551"",""0.751""]","[1,1,0,1]",0,35,35,35,1,1,1,,,0,FALSE,,,,,,,,,,,,,,,,,,,,,,,,,,,,,,
,5edc753bcee6c1953c31dacd,001,2022-04-29_03h45.50.871,classification_task,2021.2.3,Win32,59.95203837,5edc753bcee6c1953c31dacd,626b377229c10585ec392f8a,626b3b8040087ce01978a33d,,,,,,,,,,,,,,,,,,,,,,,l,1,0.8423,"[""0.058"",""0.206"",""0.461"",""0.828""]","[1,0,1,1]",0,36,36,36,1,1,0,,,0,FALSE,,,,,,,,,,,,,,,,,,,,,,,,,,,,,,
,5edc753bcee6c1953c31dacd,001,2022-04-29_03h45.50.871,classification_task,2021.2.3,Win32,59.95203837,5edc753bcee6c1953c31dacd,626b377229c10585ec392f8a,626b3b8040087ce01978a33d,,,,,,,,,,,,,,,,,,,,,,,a,1,1.1309,"[""0.188"",""0.518"",""0.655"",""0.862""]","[0,1,1,1]",0,37,37,37,1,0,1,,,0,FALSE,,,,,,,,,,,,,,,,,,,,,,,,,,,,,,
,5edc753bcee6c1953c31dacd,001,2022-04-29_03h45.50.871,classification_task,2021.2.3,Win32,59.95203837,5edc753bcee6c1953c31dacd,626b377229c10585ec392f8a,626b3b8040087ce01978a33d,,,,,,,,,,,,,,,,,,,,,,,a,0,1.3589,"[""0.188"",""0.423"",""0.598"",""0.751""]","[0,1,1,1]",0,38,38,38,1,1,1,,,0,FALSE,,,,,,,,,,,,,,,,,,,,,,,,,,,,,,
,5edc753bcee6c1953c31dacd,001,2022-04-29_03h45.50.871,classification_task,2021.2.3,Win32,59.95203837,5edc753bcee6c1953c31dacd,626b377229c10585ec392f8a,626b3b8040087ce01978a33d,,,,,,,,,,,,,,,,,,,,,,,l,1,0.813,"[""0.058"",""0.153"",""0.461"",""0.563""]","[1,1,1,0]",0,39,39,39,1,1,0,,,0,FALSE,,,,,,,,,,,,,,,,,,,,,,,,,,,,,,
,5edc753bcee6c1953c31dacd,001,2022-04-29_03h45.50.871,classification_task,2021.2.3,Win32,59.95203837,5edc753bcee6c1953c31dacd,626b377229c10585ec392f8a,626b3b8040087ce01978a33d,,,,,,,,,,,,,,,,,,,,,,,a,1,1.1685,"[""0.319"",""0.700"",""0.655"",""0.862""]","[1,0,1,1]",0,40,40,40,1,0,1,,,0,FALSE,,,,,,,,,,,,,,,,,,,,,,,,,,,,,,
,5edc753bcee6c1953c31dacd,001,2022-04-29_03h45.50.871,classification_task,2021.2.3,Win32,59.95203837,5edc753bcee6c1953c31dacd,626b377229c10585ec392f8a,626b3b8040087ce01978a33d,,,,,,,,,,,,,,,,,,,,,,,l,1,0.8015,"[""0.112"",""0.423"",""0.598"",""0.188""]","[1,1,1,0]",0,41,41,41,1,1,1,,,0,FALSE,,,,,,,,,,,,,,,,,,,,,,,,,,,,,,
,5edc753bcee6c1953c31dacd,001,2022-04-29_03h45.50.871,classification_task,2021.2.3,Win32,59.95203837,5edc753bcee6c1953c31dacd,626b377229c10585ec392f8a,626b3b8040087ce01978a33d,,,,,,,,,,,,,,,,,,,,,,,a,1,0.8298,"[""0.695"",""0.364"",""0.912"",""0.955""]","[0,1,1,1]",0,42,42,42,1,0,0,,,0,FALSE,,,,,,,,,,,,,,,,,,,,,,,,,,,,,,
,5edc753bcee6c1953c31dacd,001,2022-04-29_03h45.50.871,classification_task,2021.2.3,Win32,59.95203837,5edc753bcee6c1953c31dacd,626b377229c10585ec392f8a,626b3b8040087ce01978a33d,,,,,,,,,,,,,,,,,,,,,,,l,1,0.8639,"[""0.112"",""0.563"",""0.598"",""0.751""]","[1,0,1,1]",0,43,43,43,1,1,1,,,0,FALSE,,,,,,,,,,,,,,,,,,,,,,,,,,,,,,
,5edc753bcee6c1953c31dacd,001,2022-04-29_03h45.50.871,classification_task,2021.2.3,Win32,59.95203837,5edc753bcee6c1953c31dacd,626b377229c10585ec392f8a,626b3b8040087ce01978a33d,,,,,,,,,,,,,,,,,,,,,,,l,1,2.5766,"[""0.206"",""0.153"",""0.461"",""0.828""]","[0,1,1,1]",0,44,44,44,1,1,0,,,0,FALSE,,,,,,,,,,,,,,,,,,,,,,,,,,,,,,
,5edc753bcee6c1953c31dacd,001,2022-04-29_03h45.50.871,classification_task,2021.2.3,Win32,59.95203837,5edc753bcee6c1953c31dacd,626b377229c10585ec392f8a,626b3b8040087ce01978a33d,,,,,,,,,,,,,,,,,,,,,,,a,1,0.7059,"[""0.261"",""0.195"",""0.912"",""0.955""]","[1,0,1,1]",0,45,45,45,1,0,0,,,0,FALSE,,,,,,,,,,,,,,,,,,,,,,,,,,,,,,
,5edc753bcee6c1953c31dacd,001,2022-04-29_03h45.50.871,classification_task,2021.2.3,Win32,59.95203837,5edc753bcee6c1953c31dacd,626b377229c10585ec392f8a,626b3b8040087ce01978a33d,,,,,,,,,,,,,,,,,,,,,,,a,1,2.1441,"[""0.319"",""0.518"",""0.700"",""0.862""]","[1,1,0,1]",0,46,46,46,1,0,1,,,0,FALSE,,,,,,,,,,,,,,,,,,,,,,,,,,,,,,
,5edc753bcee6c1953c31dacd,001,2022-04-29_03h45.50.871,classification_task,2021.2.3,Win32,59.95203837,5edc753bcee6c1953c31dacd,626b377229c10585ec392f8a,626b3b8040087ce01978a33d,,,,,,,,,,,,,,,,,,,,,,,a,1,0.9323,"[""0.261"",""0.364"",""0.699"",""0.955""]","[1,1,0,1]",0,47,47,47,1,0,0,,,0,FALSE,,,,,,,,,,,,,,,,,,,,,,,,,,,,,,
,5edc753bcee6c1953c31dacd,001,2022-04-29_03h45.50.871,classification_task,2021.2.3,Win32,59.95203837,5edc753bcee6c1953c31dacd,626b377229c10585ec392f8a,626b3b8040087ce01978a33d,,,,,,,,,,,,,,,,,,,,,,,l,1,0.6369,"[""0.223"",""0.423"",""0.598"",""0.751""]","[0,1,1,1]",0,48,48,48,1,1,1,,,0,FALSE,,,,,,,,,,,,,,,,,,,,,,,,,,,,,,
,5edc753bcee6c1953c31dacd,001,2022-04-29_03h45.50.871,classification_task,2021.2.3,Win32,59.95203837,5edc753bcee6c1953c31dacd,626b377229c10585ec392f8a,626b3b8040087ce01978a33d,,,,,,,,,,,,,,,,,,,,,,,l,1,0.641,"[""0.112"",""0.423"",""0.598"",""0.559""]","[1,1,1,0]",0,49,49,49,1,1,1,,,0,FALSE,,,,,,,,,,,,,,,,,,,,,,,,,,,,,,
,5edc753bcee6c1953c31dacd,001,2022-04-29_03h45.50.871,classification_task,2021.2.3,Win32,59.95203837,5edc753bcee6c1953c31dacd,626b377229c10585ec392f8a,626b3b8040087ce01978a33d,,,,,,,,,,,,,,,,,,,,,,,a,1,0.7822,"[""0.261"",""0.364"",""0.699"",""0.955""]","[1,1,0,1]",0,50,50,50,1,0,0,,,0,FALSE,,,,,,,,,,,,,,,,,,,,,,,,,,,,,,
,5edc753bcee6c1953c31dacd,001,2022-04-29_03h45.50.871,classification_task,2021.2.3,Win32,59.95203837,5edc753bcee6c1953c31dacd,626b377229c10585ec392f8a,626b3b8040087ce01978a33d,,,,,,,,,,,,,,,,,,,,,,,a,1,2.1834,"[""0.261"",""0.364"",""0.912"",""0.188""]","[1,1,1,0]",0,51,51,51,1,0,0,,,0,FALSE,,,,,,,,,,,,,,,,,,,,,,,,,,,,,,
,5edc753bcee6c1953c31dacd,001,2022-04-29_03h45.50.871,classification_task,2021.2.3,Win32,59.95203837,5edc753bcee6c1953c31dacd,626b377229c10585ec392f8a,626b3b8040087ce01978a33d,,,,,,,,,,,,,,,,,,,,,,,l,1,0.7228,"[""0.112"",""0.423"",""0.699"",""0.751""]","[1,1,0,1]",0,52,52,52,1,1,1,,,0,FALSE,,,,,,,,,,,,,,,,,,,,,,,,,,,,,,
,5edc753bcee6c1953c31dacd,001,2022-04-29_03h45.50.871,classification_task,2021.2.3,Win32,59.95203837,5edc753bcee6c1953c31dacd,626b377229c10585ec392f8a,626b3b8040087ce01978a33d,,,,,,,,,,,,,,,,,,,,,,,a,1,0.7631,"[""0.564"",""0.518"",""0.655"",""0.862""]","[0,1,1,1]",0,53,53,53,1,0,1,,,0,FALSE,,,,,,,,,,,,,,,,,,,,,,,,,,,,,,
,5edc753bcee6c1953c31dacd,001,2022-04-29_03h45.50.871,classification_task,2021.2.3,Win32,59.95203837,5edc753bcee6c1953c31dacd,626b377229c10585ec392f8a,626b3b8040087ce01978a33d,,,,,,,,,,,,,,,,,,,,,,,l,1,0.7171,"[""0.058"",""0.153"",""0.461"",""0.695""]","[1,1,1,0]",0,54,54,54,1,1,0,,,0,FALSE,,,,,,,,,,,,,,,,,,,,,,,,,,,,,,
,5edc753bcee6c1953c31dacd,001,2022-04-29_03h45.50.871,classification_task,2021.2.3,Win32,59.95203837,5edc753bcee6c1953c31dacd,626b377229c10585ec392f8a,626b3b8040087ce01978a33d,,,,,,,,,,,,,,,,,,,,,,,a,1,0.9289,"[""0.319"",""0.518"",""0.188"",""0.862""]","[1,1,0,1]",0,55,55,55,1,0,1,,,0,FALSE,,,,,,,,,,,,,,,,,,,,,,,,,,,,,,
,5edc753bcee6c1953c31dacd,001,2022-04-29_03h45.50.871,classification_task,2021.2.3,Win32,59.95203837,5edc753bcee6c1953c31dacd,626b377229c10585ec392f8a,626b3b8040087ce01978a33d,,,,,,,,,,,,,,,,,,,,,,,l,1,2.3313,"[""0.188"",""0.153"",""0.461"",""0.828""]","[0,1,1,1]",0,56,56,56,1,1,0,,,0,FALSE,,,,,,,,,,,,,,,,,,,,,,,,,,,,,,
,5edc753bcee6c1953c31dacd,001,2022-04-29_03h45.50.871,classification_task,2021.2.3,Win32,59.95203837,5edc753bcee6c1953c31dacd,626b377229c10585ec392f8a,626b3b8040087ce01978a33d,,,,,,,,,,,,,,,,,,,,,,,a,1,1.1442,"[""0.319"",""0.206"",""0.655"",""0.862""]","[1,0,1,1]",0,57,57,57,1,0,1,,,0,FALSE,,,,,,,,,,,,,,,,,,,,,,,,,,,,,,
,5edc753bcee6c1953c31dacd,001,2022-04-29_03h45.50.871,classification_task,2021.2.3,Win32,59.95203837,5edc753bcee6c1953c31dacd,626b377229c10585ec392f8a,626b3b8040087ce01978a33d,,,,,,,,,,,,,,,,,,,,,,,a,1,1.0183,"[""0.319"",""0.518"",""0.655"",""0.555""]","[1,1,1,0]",0,58,58,58,1,0,1,,,0,FALSE,,,,,,,,,,,,,,,,,,,,,,,,,,,,,,
,5edc753bcee6c1953c31dacd,001,2022-04-29_03h45.50.871,classification_task,2021.2.3,Win32,59.95203837,5edc753bcee6c1953c31dacd,626b377229c10585ec392f8a,626b3b8040087ce01978a33d,,,,,,,,,,,,,,,,,,,,,,,a,1,0.7779,"[""0.188"",""0.364"",""0.912"",""0.955""]","[0,1,1,1]",0,59,59,59,1,0,0,,,0,FALSE,,,,,,,,,,,,,,,,,,,,,,,,,,,,,,
,5edc753bcee6c1953c31dacd,001,2022-04-29_03h45.50.871,classification_task,2021.2.3,Win32,59.95203837,5edc753bcee6c1953c31dacd,626b377229c10585ec392f8a,626b3b8040087ce01978a33d,,,,,,,,,,,,,,,,,,,,,,,l,1,0.7004,"[""0.112"",""0.226"",""0.598"",""0.751""]","[1,0,1,1]",0,60,60,60,1,1,1,,,0,FALSE,,,,,,,,,,,,,,,,,,,,,,,,,,,,,,
,5edc753bcee6c1953c31dacd,001,2022-04-29_03h45.50.871,classification_task,2021.2.3,Win32,59.95203837,5edc753bcee6c1953c31dacd,626b377229c10585ec392f8a,626b3b8040087ce01978a33d,,,,,,,,,,,,,,,,,,,,,,,l,1,0.7984,"[""0.058"",""0.153"",""0.699"",""0.828""]","[1,1,0,1]",0,61,61,61,1,1,0,,,0,FALSE,,,,,,,,,,,,,,,,,,,,,,,,,,,,,,
,5edc753bcee6c1953c31dacd,001,2022-04-29_03h45.50.871,classification_task,2021.2.3,Win32,59.95203837,5edc753bcee6c1953c31dacd,626b377229c10585ec392f8a,626b3b8040087ce01978a33d,,,,,,,,,,,,,,,,,,,,,,,l,1,0.9611,"[""0.058"",""0.551"",""0.461"",""0.828""]","[1,0,1,1]",0,62,62,62,1,1,0,,,0,FALSE,,,,,,,,,,,,,,,,,,,,,,,,,,,,,,
,5edc753bcee6c1953c31dacd,001,2022-04-29_03h45.50.871,classification_task,2021.2.3,Win32,59.95203837,5edc753bcee6c1953c31dacd,626b377229c10585ec392f8a,626b3b8040087ce01978a33d,,,,,,,,,,,,,,,,,,,,,,,a,1,0.629,"[""0.261"",""0.226"",""0.912"",""0.955""]","[1,0,1,1]",0,63,63,63,1,0,0,,,0,FALSE,,,,,,,,,,,,,,,,,,,,,,,,,,,,,,
,5edc753bcee6c1953c31dacd,001,2022-04-29_03h45.50.871,classification_task,2021.2.3,Win32,59.95203837,5edc753bcee6c1953c31dacd,626b377229c10585ec392f8a,626b3b8040087ce01978a33d,,,,,,,,,,,,,,,,,,,,,,,,,,,,,,,,,,,,,,,0, ,,0,6.63342173,164.7416,0,2,2,2,1,2,3,,,,,,,,,,,,,,,,,
,5edc753bcee6c1953c31dacd,001,2022-04-29_03h45.50.871,classification_task,2021.2.3,Win32,59.95203837,5edc753bcee6c1953c31dacd,626b377229c10585ec392f8a,626b3b8040087ce01978a33d,,,,,,,,,,,,,,,,,,,,,,,,,,,,,,,,,,,,,,,1,  ,,0,10,168.3475,0,2,2,2,1,2,3,,,,,,,,,,,,,,,,,
,5edc753bcee6c1953c31dacd,001,2022-04-29_03h45.50.871,classification_task,2021.2.3,Win32,59.95203837,5edc753bcee6c1953c31dacd,626b377229c10585ec392f8a,626b3b8040087ce01978a33d,,,,,,,,,,,,,,,,,,,,,,,,,,,,,,,,,,,,,,,2,  ,,0,10,169.5448,0,2,2,2,1,2,3,,,,,,,,,,,,,,,,,
,5edc753bcee6c1953c31dacd,001,2022-04-29_03h45.50.871,classification_task,2021.2.3,Win32,59.95203837,5edc753bcee6c1953c31dacd,626b377229c10585ec392f8a,626b3b8040087ce01978a33d,,,,,,,,,,,,,,,,,,,,,,,,,,,,,,,,,,,,,,,,,,,,,0,2,2,2,1,,3,,,,,,,,,,,,,,,,,
,5edc753bcee6c1953c31dacd,001,2022-04-29_03h45.50.871,classification_task,2021.2.3,Win32,59.95203837,5edc753bcee6c1953c31dacd,626b377229c10585ec392f8a,626b3b8040087ce01978a33d,,,,,,,,,,,,,,,,,,,,,,,,,,,,,,,,,,,,,,,,,,,,,,,,,,,,,I believe the aid is a competent performer,,0.7,0,4,999.2315,0,0,0,0,1,0,,,,
,5edc753bcee6c1953c31dacd,001,2022-04-29_03h45.50.871,classification_task,2021.2.3,Win32,59.95203837,5edc753bcee6c1953c31dacd,626b377229c10585ec392f8a,626b3b8040087ce01978a33d,,,,,,,,,,,,,,,,,,,,,,,,,,,,,,,,,,,,,,,,,,,,,,,,,,,,,I trust the aid,,0.7,0,5,986.5473,0,0,0,0,1,0,,,,
,5edc753bcee6c1953c31dacd,001,2022-04-29_03h45.50.871,classification_task,2021.2.3,Win32,59.95203837,5edc753bcee6c1953c31dacd,626b377229c10585ec392f8a,626b3b8040087ce01978a33d,,,,,,,,,,,,,,,,,,,,,,,,,,,,,,,,,,,,,,,,,,,,,,,,,,,,,I have confidence in the advice given by the aid,,0.7,0,5,993.7908,0,0,0,0,1,0,,,,
,5edc753bcee6c1953c31dacd,001,2022-04-29_03h45.50.871,classification_task,2021.2.3,Win32,59.95203837,5edc753bcee6c1953c31dacd,626b377229c10585ec392f8a,626b3b8040087ce01978a33d,,,,,,,,,,,,,,,,,,,,,,,,,,,,,,,,,,,,,,,,,,,,,,,,,,,,,I can depend on the aid,,0.7,0,5,998.0309,0,0,0,0,1,0,,,,
,5edc753bcee6c1953c31dacd,001,2022-04-29_03h45.50.871,classification_task,2021.2.3,Win32,59.95203837,5edc753bcee6c1953c31dacd,626b377229c10585ec392f8a,626b3b8040087ce01978a33d,,,,,,,,,,,,,,,,,,,,,,,,,,,,,,,,,,,,,,,,,,,,,,,,,,,,,I can rely on the aid to behave in consistent ways,,0.7,0,4,1008.0703,0,0,0,0,1,0,,,,
,5edc753bcee6c1953c31dacd,001,2022-04-29_03h45.50.871,classification_task,2021.2.3,Win32,59.95203837,5edc753bcee6c1953c31dacd,626b377229c10585ec392f8a,626b3b8040087ce01978a33d,,,,,,,,,,,,,,,,,,,,,,,,,,,,,,,,,,,,,,,,,,,,,,,,,,,,,I can rely on the aid to do its best every time I take its advice,,0.7,0,5,1004.5256,0,0,0,0,1,0,,,,
,5edc753bcee6c1953c31dacd,001,2022-04-29_03h45.50.871,classification_task,2021.2.3,Win32,59.95203837,5edc753bcee6c1953c31dacd,626b377229c10585ec392f8a,626b3b8040087ce01978a33d,,,,,,,,,,,,,,,,,,,,,,,,,,,,,,,,,,,,,,,,,,,,,,,,,,,,,"On trials you completed with assistance from the aid, how frequently did you think the aid was correct?",,0.7,0,100%,,0,0,0,0,1,0,,,,
,5edc753bcee6c1953c31dacd,001,2022-04-29_03h45.50.871,classification_task,2021.2.3,Win32,59.95203837,5edc753bcee6c1953c31dacd,626b377229c10585ec392f8a,626b3b8040087ce01978a33d,,,,,,,,,,,,,,,,,,,,,,,,,,,,,,,,,,,,,,,,,,,,,,,,,,,,,"On trials you completed without the aid, how frequently did you think you were correct?",,0.7,0,70%,,0,0,0,0,1,0,,,,
,5edc753bcee6c1953c31dacd,001,2022-04-29_03h45.50.871,classification_task,2021.2.3,Win32,59.95203837,5edc753bcee6c1953c31dacd,626b377229c10585ec392f8a,626b3b8040087ce01978a33d,,,,,,,,,,,,,,,,,,,,,,,,,,,,,,,,,,,,,,,,,,,,,,,,,,,,,,,,,,,0,0,0,0,1,,,,,
,5edc753bcee6c1953c31dacd,001,2022-04-29_03h45.50.871,classification_task,2021.2.3,Win32,59.95203837,5edc753bcee6c1953c31dacd,626b377229c10585ec392f8a,626b3b8040087ce01978a33d,,,,,,,,,,,,,,,,,,,,,,,,,,,,,,,,,,,,,,,,,,,,,,,,,,,,,,,,,,,,,,,,,space,19.3927,1053.1967,
,5edc753bcee6c1953c31dacd,001,2022-04-29_03h45.50.871,classification_task,2021.2.3,Win32,59.95203837,5edc753bcee6c1953c31dacd,626b377229c10585ec392f8a,626b3b8040087ce01978a33d,,,,,,,,,,,,,,,,,,,,,,,,,,,,,,,,,,,,,,,,,,,,,,,,,,,,,,,,,,,,,,,,,,,,"Mozilla/5.0 (Windows NT 10.0; Win64; x64) AppleWebKit/537.36 (KHTML, like Gecko) Chrome/99.0.4844.84 Safari/537.36 OPR/85.0.4341.53"
