usingWebGL,participant,session,date,expName,psychopyVersion,OS,frameRate,PROLIFIC_PID,STUDY_ID,SESSION_ID,signatures_friend,signatures_foe,band_ranges_top,band_ranges_bottom,formitemText,formtype,formundefined,formitemWidth,formindex,formresponse,formrt,key_resp_2.keys,key_resp_2.rt,tute_resp.keys,tute_resp.rt,tutorial.thisRepN,tutorial.thisTrialN,tutorial.thisN,tutorial.thisIndex,tutorial.ran,key_resp_4.keys,key_resp_4.rt,key_resp.keys,key_resp.corr,key_resp.rt,lines_presented,is_signal_presented,trials.thisRepN,trials.thisTrialN,trials.thisN,trials.thisIndex,trials.ran,vessel,active_band,lines,is_signal,supported_pos,catch_trial,debrief_formindex,debrief_formitemText,debrief_formtype,debrief_formitemWidth,debrief_formresponse,debrief_formrt,phases.thisRepN,phases.thisTrialN,phases.thisN,phases.thisIndex,phases.ran,phases.order,phase,key_resp_3.keys,trustitemText,trusttype,trustitemWidth,trustindex,trustresponse,trustrt,support_status.thisRepN,support_status.thisTrialN,support_status.thisN,support_status.thisIndex,support_status.ran,support_status.order,key_resp_5.keys,key_resp_5.rt,globalClockTime,userAgent
TRUE,5edd2e458f29cfa351de300d,001,2022-04-28_20h05.52.131,classification_task,2021.2.3,Win32,59.51318217,5edd2e458f29cfa351de300d,626b377229c10585ec392f89,626b39c30e91b9e2ff69dfde,,,,,,,,,,,,,,,,,,,,,,,,,,,,,,,,,,,,,,,,,,,,,,,,,,,,,,,,,,,,,,,,,,,,
,5edd2e458f29cfa351de300d,001,2022-04-28_20h05.52.131,classification_task,2021.2.3,Win32,59.51318217,5edd2e458f29cfa351de300d,626b377229c10585ec392f89,626b39c30e91b9e2ff69dfde,"[[""0.246"",""0.532"",""0.862"",""0.910""],[""0.308"",""0.392"",""0.604"",""0.944""]]","[[""0.097"",""0.356"",""0.659"",""0.777""],[""0.026"",""0.432"",""0.468"",""0.711""]]","[1,10]","[100,1000]",Video game experience,,,0.7,0,,,,,,,,,,,,,,,,,,,,,,,,,,,,,,,,,,,,,,,,,,,,,,,,,,,,,,,,,,,
,5edd2e458f29cfa351de300d,001,2022-04-28_20h05.52.131,classification_task,2021.2.3,Win32,59.51318217,5edd2e458f29cfa351de300d,626b377229c10585ec392f89,626b39c30e91b9e2ff69dfde,,,,,Approximately how many hours did you spend playing video games in the last week?,,,0.7,0,14,,,,,,,,,,,,,,,,,,,,,,,,,,,,,,,,,,,,,,,,,,,,,,,,,,,,,,,,,,
,5edd2e458f29cfa351de300d,001,2022-04-28_20h05.52.131,classification_task,2021.2.3,Win32,59.51318217,5edd2e458f29cfa351de300d,626b377229c10585ec392f89,626b39c30e91b9e2ff69dfde,,,,,"Which game did you play the most this year? (Enter ""None"" if you didn't play any)",,,0.7,0,league of legends,,,,,,,,,,,,,,,,,,,,,,,,,,,,,,,,,,,,,,,,,,,,,,,,,,,,,,,,,,
,5edd2e458f29cfa351de300d,001,2022-04-28_20h05.52.131,classification_task,2021.2.3,Win32,59.51318217,5edd2e458f29cfa351de300d,626b377229c10585ec392f89,626b39c30e91b9e2ff69dfde,,,,,Visual perception,,,0.7,0,,,,,,,,,,,,,,,,,,,,,,,,,,,,,,,,,,,,,,,,,,,,,,,,,,,,,,,,,,,
,5edd2e458f29cfa351de300d,001,2022-04-28_20h05.52.131,classification_task,2021.2.3,Win32,59.51318217,5edd2e458f29cfa351de300d,626b377229c10585ec392f89,626b39c30e91b9e2ff69dfde,,,,,Do you have any form of color blindness?,,,0.7,0,No,25.6901,,,,,,,,,,,,,,,,,,,,,,,,,,,,,,,,,,,,,,,,,,,,,,,,,,,,,,,,,
,5edd2e458f29cfa351de300d,001,2022-04-28_20h05.52.131,classification_task,2021.2.3,Win32,59.51318217,5edd2e458f29cfa351de300d,626b377229c10585ec392f89,626b39c30e91b9e2ff69dfde,,,,,Do you use software to change the colour temperature of your screen (e.g. f.lux)?,,,0.7,0,No,29.3285,,,,,,,,,,,,,,,,,,,,,,,,,,,,,,,,,,,,,,,,,,,,,,,,,,,,,,,,,
,5edd2e458f29cfa351de300d,001,2022-04-28_20h05.52.131,classification_task,2021.2.3,Win32,59.51318217,5edd2e458f29cfa351de300d,626b377229c10585ec392f89,626b39c30e91b9e2ff69dfde,,,,,,,,,,,,space,60.3567,space,7.4042,0,0,0,0,1,,,,,,,,,,,,,,,,,,,,,,,,,,,,,,,,,,,,,,,,,,,,,,,,
,5edd2e458f29cfa351de300d,001,2022-04-28_20h05.52.131,classification_task,2021.2.3,Win32,59.51318217,5edd2e458f29cfa351de300d,626b377229c10585ec392f89,626b39c30e91b9e2ff69dfde,,,,,,,,,,,,,,space,10.1791,1,0,1,0,1,,,,,,,,,,,,,,,,,,,,,,,,,,,,,,,,,,,,,,,,,,,,,,,,
,5edd2e458f29cfa351de300d,001,2022-04-28_20h05.52.131,classification_task,2021.2.3,Win32,59.51318217,5edd2e458f29cfa351de300d,626b377229c10585ec392f89,626b39c30e91b9e2ff69dfde,,,,,,,,,,,,,,space,26.1379,2,0,2,0,1,,,,,,,,,,,,,,,,,,,,,,,,,,,,,,,,,,,,,,,,,,,,,,,,
,5edd2e458f29cfa351de300d,001,2022-04-28_20h05.52.131,classification_task,2021.2.3,Win32,59.51318217,5edd2e458f29cfa351de300d,626b377229c10585ec392f89,626b39c30e91b9e2ff69dfde,,,,,,,,,,,,,,space,8.6622,3,0,3,0,1,,,,,,,,,,,,,,,,,,,,,,,,,,,,,,,,,,,,,,,,,,,,,,,,
,5edd2e458f29cfa351de300d,001,2022-04-28_20h05.52.131,classification_task,2021.2.3,Win32,59.51318217,5edd2e458f29cfa351de300d,626b377229c10585ec392f89,626b39c30e91b9e2ff69dfde,,,,,,,,,,,,,,space,14.7229,4,0,4,0,1,,,,,,,,,,,,,,,,,,,,,,,,,,,,,,,,,,,,,,,,,,,,,,,,
,5edd2e458f29cfa351de300d,001,2022-04-28_20h05.52.131,classification_task,2021.2.3,Win32,59.51318217,5edd2e458f29cfa351de300d,626b377229c10585ec392f89,626b39c30e91b9e2ff69dfde,,,,,,,,,,,,,,,,,,,,,space,38.3357,l,1,3.9435,"[""0.026"",""0.432"",""0.468"",""0.211""]","[1,1,1,0]",0,0,0,0,1,1,1,,,0,FALSE,,,,,,,,,,,,,,,,,,,,,,,,,,,,,,
,5edd2e458f29cfa351de300d,001,2022-04-28_20h05.52.131,classification_task,2021.2.3,Win32,59.51318217,5edd2e458f29cfa351de300d,626b377229c10585ec392f89,626b39c30e91b9e2ff69dfde,,,,,,,,,,,,,,,,,,,,,,,a,1,6.2233,"[""0.246"",""0.532"",""0.862"",""0.161""]","[1,1,1,0]",0,1,1,1,1,0,0,,,0,FALSE,,,,,,,,,,,,,,,,,,,,,,,,,,,,,,
,5edd2e458f29cfa351de300d,001,2022-04-28_20h05.52.131,classification_task,2021.2.3,Win32,59.51318217,5edd2e458f29cfa351de300d,626b377229c10585ec392f89,626b39c30e91b9e2ff69dfde,,,,,,,,,,,,,,,,,,,,,,,l,1,6.7252,"[""0.174"",""0.432"",""0.468"",""0.711""]","[0,1,1,1]",0,2,2,2,1,1,1,,,0,FALSE,,,,,,,,,,,,,,,,,,,,,,,,,,,,,,
,5edd2e458f29cfa351de300d,001,2022-04-28_20h05.52.131,classification_task,2021.2.3,Win32,59.51318217,5edd2e458f29cfa351de300d,626b377229c10585ec392f89,626b39c30e91b9e2ff69dfde,,,,,,,,,,,,,,,,,,,,,,,a,1,5.7143,"[""0.246"",""0.171"",""0.862"",""0.910""]","[1,0,1,1]",0,3,3,3,1,0,0,,,0,FALSE,,,,,,,,,,,,,,,,,,,,,,,,,,,,,,
,5edd2e458f29cfa351de300d,001,2022-04-28_20h05.52.131,classification_task,2021.2.3,Win32,59.51318217,5edd2e458f29cfa351de300d,626b377229c10585ec392f89,626b39c30e91b9e2ff69dfde,,,,,,,,,,,,,,,,,,,,,,,a,1,2.5914,"[""0.196"",""0.392"",""0.604"",""0.944""]","[0,1,1,1]",0,4,4,4,1,0,1,,,0,FALSE,,,,,,,,,,,,,,,,,,,,,,,,,,,,,,
,5edd2e458f29cfa351de300d,001,2022-04-28_20h05.52.131,classification_task,2021.2.3,Win32,59.51318217,5edd2e458f29cfa351de300d,626b377229c10585ec392f89,626b39c30e91b9e2ff69dfde,,,,,,,,,,,,,,,,,,,,,,,a,1,4.5204,"[""0.308"",""0.171"",""0.604"",""0.944""]","[1,0,1,1]",0,5,5,5,1,0,1,,,0,FALSE,,,,,,,,,,,,,,,,,,,,,,,,,,,,,,
,5edd2e458f29cfa351de300d,001,2022-04-28_20h05.52.131,classification_task,2021.2.3,Win32,59.51318217,5edd2e458f29cfa351de300d,626b377229c10585ec392f89,626b39c30e91b9e2ff69dfde,,,,,,,,,,,,,,,,,,,,,,,l,1,3.6063,"[""0.097"",""0.196"",""0.659"",""0.777""]","[1,0,1,1]",0,6,6,6,1,1,0,,,0,FALSE,,,,,,,,,,,,,,,,,,,,,,,,,,,,,,
,5edd2e458f29cfa351de300d,001,2022-04-28_20h05.52.131,classification_task,2021.2.3,Win32,59.51318217,5edd2e458f29cfa351de300d,626b377229c10585ec392f89,626b39c30e91b9e2ff69dfde,,,,,,,,,,,,,,,,,,,,,,,a,1,3.071,"[""0.154"",""0.532"",""0.862"",""0.910""]","[0,1,1,1]",0,7,7,7,1,0,0,,,0,FALSE,,,,,,,,,,,,,,,,,,,,,,,,,,,,,,
,5edd2e458f29cfa351de300d,001,2022-04-28_20h05.52.131,classification_task,2021.2.3,Win32,59.51318217,5edd2e458f29cfa351de300d,626b377229c10585ec392f89,626b39c30e91b9e2ff69dfde,,,,,,,,,,,,,,,,,,,,,,,l,1,2.2209,"[""0.026"",""0.171"",""0.468"",""0.711""]","[1,0,1,1]",0,8,8,8,1,1,1,,,0,FALSE,,,,,,,,,,,,,,,,,,,,,,,,,,,,,,
,5edd2e458f29cfa351de300d,001,2022-04-28_20h05.52.131,classification_task,2021.2.3,Win32,59.51318217,5edd2e458f29cfa351de300d,626b377229c10585ec392f89,626b39c30e91b9e2ff69dfde,,,,,,,,,,,,,,,,,,,,,,,l,0,2.1114,"[""0.308"",""0.392"",""0.604"",""0.196""]","[1,1,1,0]",0,9,9,9,1,0,1,,,0,FALSE,,,,,,,,,,,,,,,,,,,,,,,,,,,,,,
,5edd2e458f29cfa351de300d,001,2022-04-28_20h05.52.131,classification_task,2021.2.3,Win32,59.51318217,5edd2e458f29cfa351de300d,626b377229c10585ec392f89,626b39c30e91b9e2ff69dfde,,,,,,,,,,,,,,,,,,,,,,,l,1,6.5695,"[""0.026"",""0.432"",""0.211"",""0.711""]","[1,1,0,1]",0,10,10,10,1,1,1,,,0,FALSE,,,,,,,,,,,,,,,,,,,,,,,,,,,,,,
,5edd2e458f29cfa351de300d,001,2022-04-28_20h05.52.131,classification_task,2021.2.3,Win32,59.51318217,5edd2e458f29cfa351de300d,626b377229c10585ec392f89,626b39c30e91b9e2ff69dfde,,,,,,,,,,,,,,,,,,,,,,,l,1,4.2882,"[""0.097"",""0.356"",""0.659"",""0.188""]","[1,1,1,0]",0,11,11,11,1,1,0,,,0,FALSE,,,,,,,,,,,,,,,,,,,,,,,,,,,,,,
,5edd2e458f29cfa351de300d,001,2022-04-28_20h05.52.131,classification_task,2021.2.3,Win32,59.51318217,5edd2e458f29cfa351de300d,626b377229c10585ec392f89,626b39c30e91b9e2ff69dfde,,,,,,,,,,,,,,,,,,,,,,,l,1,4.2895,"[""0.188"",""0.356"",""0.659"",""0.777""]","[0,1,1,1]",0,12,12,12,1,1,0,,,0,FALSE,,,,,,,,,,,,,,,,,,,,,,,,,,,,,,
,5edd2e458f29cfa351de300d,001,2022-04-28_20h05.52.131,classification_task,2021.2.3,Win32,59.51318217,5edd2e458f29cfa351de300d,626b377229c10585ec392f89,626b39c30e91b9e2ff69dfde,,,,,,,,,,,,,,,,,,,,,,,a,1,2.4864,"[""0.308"",""0.392"",""0.196"",""0.944""]","[1,1,0,1]",0,13,13,13,1,0,1,,,0,FALSE,,,,,,,,,,,,,,,,,,,,,,,,,,,,,,
,5edd2e458f29cfa351de300d,001,2022-04-28_20h05.52.131,classification_task,2021.2.3,Win32,59.51318217,5edd2e458f29cfa351de300d,626b377229c10585ec392f89,626b39c30e91b9e2ff69dfde,,,,,,,,,,,,,,,,,,,,,,,a,1,1.8176,"[""0.246"",""0.532"",""0.061"",""0.910""]","[1,1,0,1]",0,14,14,14,1,0,0,,,0,FALSE,,,,,,,,,,,,,,,,,,,,,,,,,,,,,,
,5edd2e458f29cfa351de300d,001,2022-04-28_20h05.52.131,classification_task,2021.2.3,Win32,59.51318217,5edd2e458f29cfa351de300d,626b377229c10585ec392f89,626b39c30e91b9e2ff69dfde,,,,,,,,,,,,,,,,,,,,,,,l,1,2.1408,"[""0.097"",""0.356"",""0.211"",""0.777""]","[1,1,0,1]",0,15,15,15,1,1,0,,,0,FALSE,,,,,,,,,,,,,,,,,,,,,,,,,,,,,,
,5edd2e458f29cfa351de300d,001,2022-04-28_20h05.52.131,classification_task,2021.2.3,Win32,59.51318217,5edd2e458f29cfa351de300d,626b377229c10585ec392f89,626b39c30e91b9e2ff69dfde,,,,,,,,,,,,,,,,,,,,,,,l,1,7.1499,"[""0.161"",""0.432"",""0.468"",""0.711""]","[0,1,1,1]",0,16,16,16,1,1,1,,,0,FALSE,,,,,,,,,,,,,,,,,,,,,,,,,,,,,,
,5edd2e458f29cfa351de300d,001,2022-04-28_20h05.52.131,classification_task,2021.2.3,Win32,59.51318217,5edd2e458f29cfa351de300d,626b377229c10585ec392f89,626b39c30e91b9e2ff69dfde,,,,,,,,,,,,,,,,,,,,,,,a,1,1.7417,"[""0.308"",""0.392"",""0.211"",""0.944""]","[1,1,0,1]",0,17,17,17,1,0,1,,,0,FALSE,,,,,,,,,,,,,,,,,,,,,,,,,,,,,,
,5edd2e458f29cfa351de300d,001,2022-04-28_20h05.52.131,classification_task,2021.2.3,Win32,59.51318217,5edd2e458f29cfa351de300d,626b377229c10585ec392f89,626b39c30e91b9e2ff69dfde,,,,,,,,,,,,,,,,,,,,,,,a,1,4.7361,"[""0.161"",""0.532"",""0.862"",""0.910""]","[0,1,1,1]",0,18,18,18,1,0,0,,,0,FALSE,,,,,,,,,,,,,,,,,,,,,,,,,,,,,,
,5edd2e458f29cfa351de300d,001,2022-04-28_20h05.52.131,classification_task,2021.2.3,Win32,59.51318217,5edd2e458f29cfa351de300d,626b377229c10585ec392f89,626b39c30e91b9e2ff69dfde,,,,,,,,,,,,,,,,,,,,,,,l,1,2.6916,"[""0.097"",""0.356"",""0.154"",""0.777""]","[1,1,0,1]",0,19,19,19,1,1,0,,,0,FALSE,,,,,,,,,,,,,,,,,,,,,,,,,,,,,,
,5edd2e458f29cfa351de300d,001,2022-04-28_20h05.52.131,classification_task,2021.2.3,Win32,59.51318217,5edd2e458f29cfa351de300d,626b377229c10585ec392f89,626b39c30e91b9e2ff69dfde,,,,,,,,,,,,,,,,,,,,,,,a,1,7.1018,"[""0.246"",""0.532"",""0.862"",""0.061""]","[1,1,1,0]",0,20,20,20,1,0,0,,,0,FALSE,,,,,,,,,,,,,,,,,,,,,,,,,,,,,,
,5edd2e458f29cfa351de300d,001,2022-04-28_20h05.52.131,classification_task,2021.2.3,Win32,59.51318217,5edd2e458f29cfa351de300d,626b377229c10585ec392f89,626b39c30e91b9e2ff69dfde,,,,,,,,,,,,,,,,,,,,,,,a,1,2.5014,"[""0.308"",""0.211"",""0.604"",""0.944""]","[1,0,1,1]",0,21,21,21,1,0,1,,,0,FALSE,,,,,,,,,,,,,,,,,,,,,,,,,,,,,,
,5edd2e458f29cfa351de300d,001,2022-04-28_20h05.52.131,classification_task,2021.2.3,Win32,59.51318217,5edd2e458f29cfa351de300d,626b377229c10585ec392f89,626b39c30e91b9e2ff69dfde,,,,,,,,,,,,,,,,,,,,,,,l,1,4.4974,"[""0.196"",""0.356"",""0.659"",""0.777""]","[0,1,1,1]",0,22,22,22,1,1,0,,,0,FALSE,,,,,,,,,,,,,,,,,,,,,,,,,,,,,,
,5edd2e458f29cfa351de300d,001,2022-04-28_20h05.52.131,classification_task,2021.2.3,Win32,59.51318217,5edd2e458f29cfa351de300d,626b377229c10585ec392f89,626b39c30e91b9e2ff69dfde,,,,,,,,,,,,,,,,,,,,,,,l,1,4.317,"[""0.026"",""0.432"",""0.826"",""0.711""]","[1,1,0,1]",0,23,23,23,1,1,1,,,0,FALSE,,,,,,,,,,,,,,,,,,,,,,,,,,,,,,
,5edd2e458f29cfa351de300d,001,2022-04-28_20h05.52.131,classification_task,2021.2.3,Win32,59.51318217,5edd2e458f29cfa351de300d,626b377229c10585ec392f89,626b39c30e91b9e2ff69dfde,,,,,,,,,,,,,,,,,,,,,,,a,1,2.8932,"[""0.246"",""0.532"",""0.566"",""0.910""]","[1,1,0,1]",0,24,24,24,1,0,0,,,0,FALSE,,,,,,,,,,,,,,,,,,,,,,,,,,,,,,
,5edd2e458f29cfa351de300d,001,2022-04-28_20h05.52.131,classification_task,2021.2.3,Win32,59.51318217,5edd2e458f29cfa351de300d,626b377229c10585ec392f89,626b39c30e91b9e2ff69dfde,,,,,,,,,,,,,,,,,,,,,,,l,1,2.1525,"[""0.097"",""0.356"",""0.659"",""0.161""]","[1,1,1,0]",0,25,25,25,1,1,0,,,0,FALSE,,,,,,,,,,,,,,,,,,,,,,,,,,,,,,
,5edd2e458f29cfa351de300d,001,2022-04-28_20h05.52.131,classification_task,2021.2.3,Win32,59.51318217,5edd2e458f29cfa351de300d,626b377229c10585ec392f89,626b39c30e91b9e2ff69dfde,,,,,,,,,,,,,,,,,,,,,,,a,1,3.022,"[""0.246"",""0.154"",""0.862"",""0.910""]","[1,0,1,1]",0,26,26,26,1,0,0,,,0,FALSE,,,,,,,,,,,,,,,,,,,,,,,,,,,,,,
,5edd2e458f29cfa351de300d,001,2022-04-28_20h05.52.131,classification_task,2021.2.3,Win32,59.51318217,5edd2e458f29cfa351de300d,626b377229c10585ec392f89,626b39c30e91b9e2ff69dfde,,,,,,,,,,,,,,,,,,,,,,,l,1,2.2513,"[""0.026"",""0.432"",""0.468"",""0.211""]","[1,1,1,0]",0,27,27,27,1,1,1,,,0,FALSE,,,,,,,,,,,,,,,,,,,,,,,,,,,,,,
,5edd2e458f29cfa351de300d,001,2022-04-28_20h05.52.131,classification_task,2021.2.3,Win32,59.51318217,5edd2e458f29cfa351de300d,626b377229c10585ec392f89,626b39c30e91b9e2ff69dfde,,,,,,,,,,,,,,,,,,,,,,,l,1,1.9788,"[""0.097"",""0.171"",""0.659"",""0.777""]","[1,0,1,1]",0,28,28,28,1,1,0,,,0,FALSE,,,,,,,,,,,,,,,,,,,,,,,,,,,,,,
,5edd2e458f29cfa351de300d,001,2022-04-28_20h05.52.131,classification_task,2021.2.3,Win32,59.51318217,5edd2e458f29cfa351de300d,626b377229c10585ec392f89,626b39c30e91b9e2ff69dfde,,,,,,,,,,,,,,,,,,,,,,,a,1,5.8607,"[""0.308"",""0.392"",""0.604"",""0.826""]","[1,1,1,0]",0,29,29,29,1,0,1,,,0,FALSE,,,,,,,,,,,,,,,,,,,,,,,,,,,,,,
,5edd2e458f29cfa351de300d,001,2022-04-28_20h05.52.131,classification_task,2021.2.3,Win32,59.51318217,5edd2e458f29cfa351de300d,626b377229c10585ec392f89,626b39c30e91b9e2ff69dfde,,,,,,,,,,,,,,,,,,,,,,,l,1,1.9697,"[""0.026"",""0.174"",""0.468"",""0.711""]","[1,0,1,1]",0,30,30,30,1,1,1,,,0,FALSE,,,,,,,,,,,,,,,,,,,,,,,,,,,,,,
,5edd2e458f29cfa351de300d,001,2022-04-28_20h05.52.131,classification_task,2021.2.3,Win32,59.51318217,5edd2e458f29cfa351de300d,626b377229c10585ec392f89,626b39c30e91b9e2ff69dfde,,,,,,,,,,,,,,,,,,,,,,,a,1,1.9297,"[""0.163"",""0.392"",""0.604"",""0.944""]","[0,1,1,1]",0,31,31,31,1,0,1,,,0,FALSE,,,,,,,,,,,,,,,,,,,,,,,,,,,,,,
,5edd2e458f29cfa351de300d,001,2022-04-28_20h05.52.131,classification_task,2021.2.3,Win32,59.51318217,5edd2e458f29cfa351de300d,626b377229c10585ec392f89,626b39c30e91b9e2ff69dfde,,,,,,,,,,,,,,,,,,,,,,,a,1,3.2378,"[""0.308"",""0.392"",""0.211"",""0.944""]","[1,1,0,1]",0,32,32,32,1,0,1,,,0,FALSE,,,,,,,,,,,,,,,,,,,,,,,,,,,,,,
,5edd2e458f29cfa351de300d,001,2022-04-28_20h05.52.131,classification_task,2021.2.3,Win32,59.51318217,5edd2e458f29cfa351de300d,626b377229c10585ec392f89,626b39c30e91b9e2ff69dfde,,,,,,,,,,,,,,,,,,,,,,,l,0,3.1388,"[""0.308"",""0.392"",""0.604"",""0.188""]","[1,1,1,0]",0,33,33,33,1,0,1,,,0,FALSE,,,,,,,,,,,,,,,,,,,,,,,,,,,,,,
,5edd2e458f29cfa351de300d,001,2022-04-28_20h05.52.131,classification_task,2021.2.3,Win32,59.51318217,5edd2e458f29cfa351de300d,626b377229c10585ec392f89,626b39c30e91b9e2ff69dfde,,,,,,,,,,,,,,,,,,,,,,,a,1,1.4237,"[""0.308"",""0.163"",""0.604"",""0.944""]","[1,0,1,1]",0,34,34,34,1,0,1,,,0,FALSE,,,,,,,,,,,,,,,,,,,,,,,,,,,,,,
,5edd2e458f29cfa351de300d,001,2022-04-28_20h05.52.131,classification_task,2021.2.3,Win32,59.51318217,5edd2e458f29cfa351de300d,626b377229c10585ec392f89,626b39c30e91b9e2ff69dfde,,,,,,,,,,,,,,,,,,,,,,,l,1,3.1273,"[""0.161"",""0.432"",""0.468"",""0.711""]","[0,1,1,1]",0,35,35,35,1,1,1,,,0,FALSE,,,,,,,,,,,,,,,,,,,,,,,,,,,,,,
,5edd2e458f29cfa351de300d,001,2022-04-28_20h05.52.131,classification_task,2021.2.3,Win32,59.51318217,5edd2e458f29cfa351de300d,626b377229c10585ec392f89,626b39c30e91b9e2ff69dfde,,,,,,,,,,,,,,,,,,,,,,,l,1,2.2042,"[""0.026"",""0.432"",""0.468"",""0.813""]","[1,1,1,0]",0,36,36,36,1,1,1,,,0,FALSE,,,,,,,,,,,,,,,,,,,,,,,,,,,,,,
,5edd2e458f29cfa351de300d,001,2022-04-28_20h05.52.131,classification_task,2021.2.3,Win32,59.51318217,5edd2e458f29cfa351de300d,626b377229c10585ec392f89,626b39c30e91b9e2ff69dfde,,,,,,,,,,,,,,,,,,,,,,,l,1,1.7627,"[""0.026"",""0.146"",""0.468"",""0.711""]","[1,0,1,1]",0,37,37,37,1,1,1,,,0,FALSE,,,,,,,,,,,,,,,,,,,,,,,,,,,,,,
,5edd2e458f29cfa351de300d,001,2022-04-28_20h05.52.131,classification_task,2021.2.3,Win32,59.51318217,5edd2e458f29cfa351de300d,626b377229c10585ec392f89,626b39c30e91b9e2ff69dfde,,,,,,,,,,,,,,,,,,,,,,,l,1,3.1464,"[""0.188"",""0.356"",""0.659"",""0.777""]","[0,1,1,1]",0,38,38,38,1,1,0,,,0,FALSE,,,,,,,,,,,,,,,,,,,,,,,,,,,,,,
,5edd2e458f29cfa351de300d,001,2022-04-28_20h05.52.131,classification_task,2021.2.3,Win32,59.51318217,5edd2e458f29cfa351de300d,626b377229c10585ec392f89,626b39c30e91b9e2ff69dfde,,,,,,,,,,,,,,,,,,,,,,,a,1,1.3929,"[""0.196"",""0.392"",""0.604"",""0.944""]","[0,1,1,1]",0,39,39,39,1,0,1,,,0,FALSE,,,,,,,,,,,,,,,,,,,,,,,,,,,,,,
,5edd2e458f29cfa351de300d,001,2022-04-28_20h05.52.131,classification_task,2021.2.3,Win32,59.51318217,5edd2e458f29cfa351de300d,626b377229c10585ec392f89,626b39c30e91b9e2ff69dfde,,,,,,,,,,,,,,,,,,,,,,,a,0,3.6796,"[""0.097"",""0.154"",""0.659"",""0.777""]","[1,0,1,1]",0,40,40,40,1,1,0,,,0,FALSE,,,,,,,,,,,,,,,,,,,,,,,,,,,,,,
,5edd2e458f29cfa351de300d,001,2022-04-28_20h05.52.131,classification_task,2021.2.3,Win32,59.51318217,5edd2e458f29cfa351de300d,626b377229c10585ec392f89,626b39c30e91b9e2ff69dfde,,,,,,,,,,,,,,,,,,,,,,,l,1,2.2678,"[""0.026"",""0.432"",""0.161"",""0.711""]","[1,1,0,1]",0,41,41,41,1,1,1,,,0,FALSE,,,,,,,,,,,,,,,,,,,,,,,,,,,,,,
,5edd2e458f29cfa351de300d,001,2022-04-28_20h05.52.131,classification_task,2021.2.3,Win32,59.51318217,5edd2e458f29cfa351de300d,626b377229c10585ec392f89,626b39c30e91b9e2ff69dfde,,,,,,,,,,,,,,,,,,,,,,,a,1,2.5956,"[""0.246"",""0.823"",""0.862"",""0.910""]","[1,0,1,1]",0,42,42,42,1,0,0,,,0,FALSE,,,,,,,,,,,,,,,,,,,,,,,,,,,,,,
,5edd2e458f29cfa351de300d,001,2022-04-28_20h05.52.131,classification_task,2021.2.3,Win32,59.51318217,5edd2e458f29cfa351de300d,626b377229c10585ec392f89,626b39c30e91b9e2ff69dfde,,,,,,,,,,,,,,,,,,,,,,,a,0,2.2352,"[""0.097"",""0.356"",""0.813"",""0.777""]","[1,1,0,1]",0,43,43,43,1,1,0,,,0,FALSE,,,,,,,,,,,,,,,,,,,,,,,,,,,,,,
,5edd2e458f29cfa351de300d,001,2022-04-28_20h05.52.131,classification_task,2021.2.3,Win32,59.51318217,5edd2e458f29cfa351de300d,626b377229c10585ec392f89,626b39c30e91b9e2ff69dfde,,,,,,,,,,,,,,,,,,,,,,,l,1,3.1365,"[""0.097"",""0.356"",""0.659"",""0.211""]","[1,1,1,0]",0,44,44,44,1,1,0,,,0,FALSE,,,,,,,,,,,,,,,,,,,,,,,,,,,,,,
,5edd2e458f29cfa351de300d,001,2022-04-28_20h05.52.131,classification_task,2021.2.3,Win32,59.51318217,5edd2e458f29cfa351de300d,626b377229c10585ec392f89,626b39c30e91b9e2ff69dfde,,,,,,,,,,,,,,,,,,,,,,,a,1,1.8282,"[""0.246"",""0.532"",""0.163"",""0.910""]","[1,1,0,1]",0,45,45,45,1,0,0,,,0,FALSE,,,,,,,,,,,,,,,,,,,,,,,,,,,,,,
,5edd2e458f29cfa351de300d,001,2022-04-28_20h05.52.131,classification_task,2021.2.3,Win32,59.51318217,5edd2e458f29cfa351de300d,626b377229c10585ec392f89,626b39c30e91b9e2ff69dfde,,,,,,,,,,,,,,,,,,,,,,,a,1,4.2424,"[""0.246"",""0.532"",""0.862"",""0.188""]","[1,1,1,0]",0,46,46,46,1,0,0,,,0,FALSE,,,,,,,,,,,,,,,,,,,,,,,,,,,,,,
,5edd2e458f29cfa351de300d,001,2022-04-28_20h05.52.131,classification_task,2021.2.3,Win32,59.51318217,5edd2e458f29cfa351de300d,626b377229c10585ec392f89,626b39c30e91b9e2ff69dfde,,,,,,,,,,,,,,,,,,,,,,,l,0,3.0558,"[""0.813"",""0.532"",""0.862"",""0.910""]","[0,1,1,1]",0,47,47,47,1,0,0,,,0,FALSE,,,,,,,,,,,,,,,,,,,,,,,,,,,,,,
,5edd2e458f29cfa351de300d,001,2022-04-28_20h05.52.131,classification_task,2021.2.3,Win32,59.51318217,5edd2e458f29cfa351de300d,626b377229c10585ec392f89,626b39c30e91b9e2ff69dfde,,,,,,,,,,,,,,,,,,,,,,,a,0,5.3202,"[""0.097"",""0.356"",""0.659"",""0.813""]","[1,1,1,0]",0,48,48,48,1,1,0,,,0,FALSE,,,,,,,,,,,,,,,,,,,,,,,,,,,,,,
,5edd2e458f29cfa351de300d,001,2022-04-28_20h05.52.131,classification_task,2021.2.3,Win32,59.51318217,5edd2e458f29cfa351de300d,626b377229c10585ec392f89,626b39c30e91b9e2ff69dfde,,,,,,,,,,,,,,,,,,,,,,,l,1,2.7235,"[""0.026"",""0.171"",""0.468"",""0.711""]","[1,0,1,1]",0,49,49,49,1,1,1,,,0,FALSE,,,,,,,,,,,,,,,,,,,,,,,,,,,,,,
,5edd2e458f29cfa351de300d,001,2022-04-28_20h05.52.131,classification_task,2021.2.3,Win32,59.51318217,5edd2e458f29cfa351de300d,626b377229c10585ec392f89,626b39c30e91b9e2ff69dfde,,,,,,,,,,,,,,,,,,,,,,,a,1,1.7383,"[""0.154"",""0.532"",""0.862"",""0.910""]","[0,1,1,1]",0,50,50,50,1,0,0,,,0,FALSE,,,,,,,,,,,,,,,,,,,,,,,,,,,,,,
,5edd2e458f29cfa351de300d,001,2022-04-28_20h05.52.131,classification_task,2021.2.3,Win32,59.51318217,5edd2e458f29cfa351de300d,626b377229c10585ec392f89,626b39c30e91b9e2ff69dfde,,,,,,,,,,,,,,,,,,,,,,,l,1,2.179,"[""0.161"",""0.356"",""0.659"",""0.777""]","[0,1,1,1]",0,51,51,51,1,1,0,,,0,FALSE,,,,,,,,,,,,,,,,,,,,,,,,,,,,,,
,5edd2e458f29cfa351de300d,001,2022-04-28_20h05.52.131,classification_task,2021.2.3,Win32,59.51318217,5edd2e458f29cfa351de300d,626b377229c10585ec392f89,626b39c30e91b9e2ff69dfde,,,,,,,,,,,,,,,,,,,,,,,l,1,2.2051,"[""0.061"",""0.432"",""0.468"",""0.711""]","[0,1,1,1]",0,52,52,52,1,1,1,,,0,FALSE,,,,,,,,,,,,,,,,,,,,,,,,,,,,,,
,5edd2e458f29cfa351de300d,001,2022-04-28_20h05.52.131,classification_task,2021.2.3,Win32,59.51318217,5edd2e458f29cfa351de300d,626b377229c10585ec392f89,626b39c30e91b9e2ff69dfde,,,,,,,,,,,,,,,,,,,,,,,a,1,1.9633,"[""0.308"",""0.161"",""0.604"",""0.944""]","[1,0,1,1]",0,53,53,53,1,0,1,,,0,FALSE,,,,,,,,,,,,,,,,,,,,,,,,,,,,,,
,5edd2e458f29cfa351de300d,001,2022-04-28_20h05.52.131,classification_task,2021.2.3,Win32,59.51318217,5edd2e458f29cfa351de300d,626b377229c10585ec392f89,626b39c30e91b9e2ff69dfde,,,,,,,,,,,,,,,,,,,,,,,l,1,1.7077,"[""0.026"",""0.432"",""0.163"",""0.711""]","[1,1,0,1]",0,54,54,54,1,1,1,,,0,FALSE,,,,,,,,,,,,,,,,,,,,,,,,,,,,,,
,5edd2e458f29cfa351de300d,001,2022-04-28_20h05.52.131,classification_task,2021.2.3,Win32,59.51318217,5edd2e458f29cfa351de300d,626b377229c10585ec392f89,626b39c30e91b9e2ff69dfde,,,,,,,,,,,,,,,,,,,,,,,a,1,1.8611,"[""0.246"",""0.211"",""0.862"",""0.910""]","[1,0,1,1]",0,55,55,55,1,0,0,,,0,FALSE,,,,,,,,,,,,,,,,,,,,,,,,,,,,,,
,5edd2e458f29cfa351de300d,001,2022-04-28_20h05.52.131,classification_task,2021.2.3,Win32,59.51318217,5edd2e458f29cfa351de300d,626b377229c10585ec392f89,626b39c30e91b9e2ff69dfde,,,,,,,,,,,,,,,,,,,,,,,l,1,4.3882,"[""0.026"",""0.432"",""0.468"",""0.196""]","[1,1,1,0]",0,56,56,56,1,1,1,,,0,FALSE,,,,,,,,,,,,,,,,,,,,,,,,,,,,,,
,5edd2e458f29cfa351de300d,001,2022-04-28_20h05.52.131,classification_task,2021.2.3,Win32,59.51318217,5edd2e458f29cfa351de300d,626b377229c10585ec392f89,626b39c30e91b9e2ff69dfde,,,,,,,,,,,,,,,,,,,,,,,a,1,2.7534,"[""0.308"",""0.392"",""0.604"",""0.566""]","[1,1,1,0]",0,57,57,57,1,0,1,,,0,FALSE,,,,,,,,,,,,,,,,,,,,,,,,,,,,,,
,5edd2e458f29cfa351de300d,001,2022-04-28_20h05.52.131,classification_task,2021.2.3,Win32,59.51318217,5edd2e458f29cfa351de300d,626b377229c10585ec392f89,626b39c30e91b9e2ff69dfde,,,,,,,,,,,,,,,,,,,,,,,a,1,1.5324,"[""0.308"",""0.392"",""0.211"",""0.944""]","[1,1,0,1]",0,58,58,58,1,0,1,,,0,FALSE,,,,,,,,,,,,,,,,,,,,,,,,,,,,,,
,5edd2e458f29cfa351de300d,001,2022-04-28_20h05.52.131,classification_task,2021.2.3,Win32,59.51318217,5edd2e458f29cfa351de300d,626b377229c10585ec392f89,626b39c30e91b9e2ff69dfde,,,,,,,,,,,,,,,,,,,,,,,l,1,2.8213,"[""0.097"",""0.813"",""0.659"",""0.777""]","[1,0,1,1]",0,59,59,59,1,1,0,,,0,FALSE,,,,,,,,,,,,,,,,,,,,,,,,,,,,,,
,5edd2e458f29cfa351de300d,001,2022-04-28_20h05.52.131,classification_task,2021.2.3,Win32,59.51318217,5edd2e458f29cfa351de300d,626b377229c10585ec392f89,626b39c30e91b9e2ff69dfde,,,,,,,,,,,,,,,,,,,,,,,l,0,2.3938,"[""0.246"",""0.532"",""0.862"",""0.188""]","[1,1,1,0]",0,60,60,60,1,0,0,,,0,FALSE,,,,,,,,,,,,,,,,,,,,,,,,,,,,,,
,5edd2e458f29cfa351de300d,001,2022-04-28_20h05.52.131,classification_task,2021.2.3,Win32,59.51318217,5edd2e458f29cfa351de300d,626b377229c10585ec392f89,626b39c30e91b9e2ff69dfde,,,,,,,,,,,,,,,,,,,,,,,l,1,1.0832,"[""0.097"",""0.356"",""0.146"",""0.777""]","[1,1,0,1]",0,61,61,61,1,1,0,,,0,FALSE,,,,,,,,,,,,,,,,,,,,,,,,,,,,,,
,5edd2e458f29cfa351de300d,001,2022-04-28_20h05.52.131,classification_task,2021.2.3,Win32,59.51318217,5edd2e458f29cfa351de300d,626b377229c10585ec392f89,626b39c30e91b9e2ff69dfde,,,,,,,,,,,,,,,,,,,,,,,a,1,1.2769,"[""0.246"",""0.532"",""0.154"",""0.910""]","[1,1,0,1]",0,62,62,62,1,0,0,,,0,FALSE,,,,,,,,,,,,,,,,,,,,,,,,,,,,,,
,5edd2e458f29cfa351de300d,001,2022-04-28_20h05.52.131,classification_task,2021.2.3,Win32,59.51318217,5edd2e458f29cfa351de300d,626b377229c10585ec392f89,626b39c30e91b9e2ff69dfde,,,,,,,,,,,,,,,,,,,,,,,a,1,1.6411,"[""0.171"",""0.392"",""0.604"",""0.944""]","[0,1,1,1]",0,63,63,63,1,0,1,,,0,FALSE,,,,,,,,,,,,,,,,,,,,,,,,,,,,,,
,5edd2e458f29cfa351de300d,001,2022-04-28_20h05.52.131,classification_task,2021.2.3,Win32,59.51318217,5edd2e458f29cfa351de300d,626b377229c10585ec392f89,626b39c30e91b9e2ff69dfde,,,,,,,,,,,,,,,,,,,,,,,,,,,,,,,,,,,,,,,0, ,,0,0,483.551,0,0,0,0,1,2,1,,,,,,,,,,,,,,,,,
,5edd2e458f29cfa351de300d,001,2022-04-28_20h05.52.131,classification_task,2021.2.3,Win32,59.51318217,5edd2e458f29cfa351de300d,626b377229c10585ec392f89,626b39c30e91b9e2ff69dfde,,,,,,,,,,,,,,,,,,,,,,,,,,,,,,,,,,,,,,,1,  ,,0,5.104106176,488.9527,0,0,0,0,1,2,1,,,,,,,,,,,,,,,,,
,5edd2e458f29cfa351de300d,001,2022-04-28_20h05.52.131,classification_task,2021.2.3,Win32,59.51318217,5edd2e458f29cfa351de300d,626b377229c10585ec392f89,626b39c30e91b9e2ff69dfde,,,,,,,,,,,,,,,,,,,,,,,,,,,,,,,,,,,,,,,2,  ,,0,0,495.4464,0,0,0,0,1,2,1,,,,,,,,,,,,,,,,,
,5edd2e458f29cfa351de300d,001,2022-04-28_20h05.52.131,classification_task,2021.2.3,Win32,59.51318217,5edd2e458f29cfa351de300d,626b377229c10585ec392f89,626b39c30e91b9e2ff69dfde,,,,,,,,,,,,,,,,,,,,,,,,,,,,,,,,,,,,,,,,,,,,,0,0,0,0,1,,1,,,,,,,,,,,,,,,,,
,5edd2e458f29cfa351de300d,001,2022-04-28_20h05.52.131,classification_task,2021.2.3,Win32,59.51318217,5edd2e458f29cfa351de300d,626b377229c10585ec392f89,626b39c30e91b9e2ff69dfde,,,,,,,,,,,,,,,,,,,,,space,8.3617,l,1,4.2713,"[""0.061"",""0.356"",""0.659"",""0.777""]","[0,1,1,1]",0,0,0,0,1,1,0,,,0,FALSE,,,,,,,,,,,,,,,,,,,,,,,,,,,,,,
,5edd2e458f29cfa351de300d,001,2022-04-28_20h05.52.131,classification_task,2021.2.3,Win32,59.51318217,5edd2e458f29cfa351de300d,626b377229c10585ec392f89,626b39c30e91b9e2ff69dfde,,,,,,,,,,,,,,,,,,,,,,,a,1,2.9923,"[""0.826"",""0.392"",""0.604"",""0.944""]","[0,1,1,1]",0,1,1,1,1,0,1,,,0,FALSE,,,,,,,,,,,,,,,,,,,,,,,,,,,,,,
,5edd2e458f29cfa351de300d,001,2022-04-28_20h05.52.131,classification_task,2021.2.3,Win32,59.51318217,5edd2e458f29cfa351de300d,626b377229c10585ec392f89,626b39c30e91b9e2ff69dfde,,,,,,,,,,,,,,,,,,,,,,,a,1,1.7528,"[""0.308"",""0.392"",""0.823"",""0.944""]","[1,1,0,1]",0,2,2,2,1,0,1,,,0,FALSE,,,,,,,,,,,,,,,,,,,,,,,,,,,,,,
,5edd2e458f29cfa351de300d,001,2022-04-28_20h05.52.131,classification_task,2021.2.3,Win32,59.51318217,5edd2e458f29cfa351de300d,626b377229c10585ec392f89,626b39c30e91b9e2ff69dfde,,,,,,,,,,,,,,,,,,,,,,,a,1,3.6244,"[""0.246"",""0.532"",""0.196"",""0.910""]","[1,1,0,1]",0,3,3,3,1,0,0,,,0,FALSE,,,,,,,,,,,,,,,,,,,,,,,,,,,,,,
,5edd2e458f29cfa351de300d,001,2022-04-28_20h05.52.131,classification_task,2021.2.3,Win32,59.51318217,5edd2e458f29cfa351de300d,626b377229c10585ec392f89,626b39c30e91b9e2ff69dfde,,,,,,,,,,,,,,,,,,,,,,,l,1,3.1938,"[""0.026"",""0.432"",""0.468"",""0.174""]","[1,1,1,0]",0,4,4,4,1,1,1,,,0,FALSE,,,,,,,,,,,,,,,,,,,,,,,,,,,,,,
,5edd2e458f29cfa351de300d,001,2022-04-28_20h05.52.131,classification_task,2021.2.3,Win32,59.51318217,5edd2e458f29cfa351de300d,626b377229c10585ec392f89,626b39c30e91b9e2ff69dfde,,,,,,,,,,,,,,,,,,,,,,,l,1,1.5784,"[""0.097"",""0.196"",""0.659"",""0.777""]","[1,0,1,1]",0,5,5,5,1,1,0,,,0,FALSE,,,,,,,,,,,,,,,,,,,,,,,,,,,,,,
,5edd2e458f29cfa351de300d,001,2022-04-28_20h05.52.131,classification_task,2021.2.3,Win32,59.51318217,5edd2e458f29cfa351de300d,626b377229c10585ec392f89,626b39c30e91b9e2ff69dfde,,,,,,,,,,,,,,,,,,,,,,,l,1,2.0827,"[""0.026"",""0.432"",""0.188"",""0.711""]","[1,1,0,1]",0,6,6,6,1,1,1,,,0,FALSE,,,,,,,,,,,,,,,,,,,,,,,,,,,,,,
,5edd2e458f29cfa351de300d,001,2022-04-28_20h05.52.131,classification_task,2021.2.3,Win32,59.51318217,5edd2e458f29cfa351de300d,626b377229c10585ec392f89,626b39c30e91b9e2ff69dfde,,,,,,,,,,,,,,,,,,,,,,,l,1,1.4011,"[""0.097"",""0.356"",""0.826"",""0.777""]","[1,1,0,1]",0,7,7,7,1,1,0,,,0,FALSE,,,,,,,,,,,,,,,,,,,,,,,,,,,,,,
,5edd2e458f29cfa351de300d,001,2022-04-28_20h05.52.131,classification_task,2021.2.3,Win32,59.51318217,5edd2e458f29cfa351de300d,626b377229c10585ec392f89,626b39c30e91b9e2ff69dfde,,,,,,,,,,,,,,,,,,,,,,,a,1,1.0466,"[""0.823"",""0.532"",""0.862"",""0.910""]","[0,1,1,1]",0,8,8,8,1,0,0,,,0,FALSE,,,,,,,,,,,,,,,,,,,,,,,,,,,,,,
,5edd2e458f29cfa351de300d,001,2022-04-28_20h05.52.131,classification_task,2021.2.3,Win32,59.51318217,5edd2e458f29cfa351de300d,626b377229c10585ec392f89,626b39c30e91b9e2ff69dfde,,,,,,,,,,,,,,,,,,,,,,,l,1,1.9187,"[""0.566"",""0.432"",""0.468"",""0.711""]","[0,1,1,1]",0,9,9,9,1,1,1,,,0,FALSE,,,,,,,,,,,,,,,,,,,,,,,,,,,,,,
,5edd2e458f29cfa351de300d,001,2022-04-28_20h05.52.131,classification_task,2021.2.3,Win32,59.51318217,5edd2e458f29cfa351de300d,626b377229c10585ec392f89,626b39c30e91b9e2ff69dfde,,,,,,,,,,,,,,,,,,,,,,,a,1,1.0529,"[""0.308"",""0.174"",""0.604"",""0.944""]","[1,0,1,1]",0,10,10,10,1,0,1,,,0,FALSE,,,,,,,,,,,,,,,,,,,,,,,,,,,,,,
,5edd2e458f29cfa351de300d,001,2022-04-28_20h05.52.131,classification_task,2021.2.3,Win32,59.51318217,5edd2e458f29cfa351de300d,626b377229c10585ec392f89,626b39c30e91b9e2ff69dfde,,,,,,,,,,,,,,,,,,,,,,,a,1,5.5351,"[""0.246"",""0.532"",""0.862"",""0.061""]","[1,1,1,0]",0,11,11,11,1,0,0,,,0,FALSE,,,,,,,,,,,,,,,,,,,,,,,,,,,,,,
,5edd2e458f29cfa351de300d,001,2022-04-28_20h05.52.131,classification_task,2021.2.3,Win32,59.51318217,5edd2e458f29cfa351de300d,626b377229c10585ec392f89,626b39c30e91b9e2ff69dfde,,,,,,,,,,,,,,,,,,,,,,,a,1,3.1007,"[""0.246"",""0.823"",""0.862"",""0.910""]","[1,0,1,1]",0,12,12,12,1,0,0,,,0,FALSE,,,,,,,,,,,,,,,,,,,,,,,,,,,,,,
,5edd2e458f29cfa351de300d,001,2022-04-28_20h05.52.131,classification_task,2021.2.3,Win32,59.51318217,5edd2e458f29cfa351de300d,626b377229c10585ec392f89,626b39c30e91b9e2ff69dfde,,,,,,,,,,,,,,,,,,,,,,,l,1,3.7095,"[""0.026"",""0.813"",""0.468"",""0.711""]","[1,0,1,1]",0,13,13,13,1,1,1,,,0,FALSE,,,,,,,,,,,,,,,,,,,,,,,,,,,,,,
,5edd2e458f29cfa351de300d,001,2022-04-28_20h05.52.131,classification_task,2021.2.3,Win32,59.51318217,5edd2e458f29cfa351de300d,626b377229c10585ec392f89,626b39c30e91b9e2ff69dfde,,,,,,,,,,,,,,,,,,,,,,,l,1,3.8406,"[""0.097"",""0.356"",""0.659"",""0.188""]","[1,1,1,0]",0,14,14,14,1,1,0,,,0,FALSE,,,,,,,,,,,,,,,,,,,,,,,,,,,,,,
,5edd2e458f29cfa351de300d,001,2022-04-28_20h05.52.131,classification_task,2021.2.3,Win32,59.51318217,5edd2e458f29cfa351de300d,626b377229c10585ec392f89,626b39c30e91b9e2ff69dfde,,,,,,,,,,,,,,,,,,,,,,,a,1,3.7468,"[""0.308"",""0.392"",""0.604"",""0.061""]","[1,1,1,0]",0,15,15,15,1,0,1,,,0,FALSE,,,,,,,,,,,,,,,,,,,,,,,,,,,,,,
,5edd2e458f29cfa351de300d,001,2022-04-28_20h05.52.131,classification_task,2021.2.3,Win32,59.51318217,5edd2e458f29cfa351de300d,626b377229c10585ec392f89,626b39c30e91b9e2ff69dfde,,,,,,,,,,,,,,,,,,,,,,,a,1,1.8195,"[""0.246"",""0.532"",""0.823"",""0.910""]","[1,1,0,1]",0,16,16,16,1,0,0,,,0,FALSE,,,,,,,,,,,,,,,,,,,,,,,,,,,,,,
,5edd2e458f29cfa351de300d,001,2022-04-28_20h05.52.131,classification_task,2021.2.3,Win32,59.51318217,5edd2e458f29cfa351de300d,626b377229c10585ec392f89,626b39c30e91b9e2ff69dfde,,,,,,,,,,,,,,,,,,,,,,,l,1,1.3799,"[""0.026"",""0.566"",""0.468"",""0.711""]","[1,0,1,1]",0,17,17,17,1,1,1,,,0,FALSE,,,,,,,,,,,,,,,,,,,,,,,,,,,,,,
,5edd2e458f29cfa351de300d,001,2022-04-28_20h05.52.131,classification_task,2021.2.3,Win32,59.51318217,5edd2e458f29cfa351de300d,626b377229c10585ec392f89,626b39c30e91b9e2ff69dfde,,,,,,,,,,,,,,,,,,,,,,,a,1,0.9987,"[""0.308"",""0.392"",""0.196"",""0.944""]","[1,1,0,1]",0,18,18,18,1,0,1,,,0,FALSE,,,,,,,,,,,,,,,,,,,,,,,,,,,,,,
,5edd2e458f29cfa351de300d,001,2022-04-28_20h05.52.131,classification_task,2021.2.3,Win32,59.51318217,5edd2e458f29cfa351de300d,626b377229c10585ec392f89,626b39c30e91b9e2ff69dfde,,,,,,,,,,,,,,,,,,,,,,,l,0,1.3323,"[""0.308"",""0.392"",""0.604"",""0.061""]","[1,1,1,0]",0,19,19,19,1,0,1,,,0,FALSE,,,,,,,,,,,,,,,,,,,,,,,,,,,,,,
,5edd2e458f29cfa351de300d,001,2022-04-28_20h05.52.131,classification_task,2021.2.3,Win32,59.51318217,5edd2e458f29cfa351de300d,626b377229c10585ec392f89,626b39c30e91b9e2ff69dfde,,,,,,,,,,,,,,,,,,,,,,,a,1,1.6453,"[""0.246"",""0.532"",""0.862"",""0.163""]","[1,1,1,0]",0,20,20,20,1,0,0,,,0,FALSE,,,,,,,,,,,,,,,,,,,,,,,,,,,,,,
,5edd2e458f29cfa351de300d,001,2022-04-28_20h05.52.131,classification_task,2021.2.3,Win32,59.51318217,5edd2e458f29cfa351de300d,626b377229c10585ec392f89,626b39c30e91b9e2ff69dfde,,,,,,,,,,,,,,,,,,,,,,,l,1,1.2392,"[""0.097"",""0.146"",""0.659"",""0.777""]","[1,0,1,1]",0,21,21,21,1,1,0,,,0,FALSE,,,,,,,,,,,,,,,,,,,,,,,,,,,,,,
,5edd2e458f29cfa351de300d,001,2022-04-28_20h05.52.131,classification_task,2021.2.3,Win32,59.51318217,5edd2e458f29cfa351de300d,626b377229c10585ec392f89,626b39c30e91b9e2ff69dfde,,,,,,,,,,,,,,,,,,,,,,,a,1,1.5686,"[""0.246"",""0.146"",""0.862"",""0.910""]","[1,0,1,1]",0,22,22,22,1,0,0,,,0,FALSE,,,,,,,,,,,,,,,,,,,,,,,,,,,,,,
,5edd2e458f29cfa351de300d,001,2022-04-28_20h05.52.131,classification_task,2021.2.3,Win32,59.51318217,5edd2e458f29cfa351de300d,626b377229c10585ec392f89,626b39c30e91b9e2ff69dfde,,,,,,,,,,,,,,,,,,,,,,,l,1,3.2864,"[""0.026"",""0.432"",""0.468"",""0.146""]","[1,1,1,0]",0,23,23,23,1,1,1,,,0,FALSE,,,,,,,,,,,,,,,,,,,,,,,,,,,,,,
,5edd2e458f29cfa351de300d,001,2022-04-28_20h05.52.131,classification_task,2021.2.3,Win32,59.51318217,5edd2e458f29cfa351de300d,626b377229c10585ec392f89,626b39c30e91b9e2ff69dfde,,,,,,,,,,,,,,,,,,,,,,,a,1,1.1756,"[""0.211"",""0.392"",""0.604"",""0.944""]","[0,1,1,1]",0,24,24,24,1,0,1,,,0,FALSE,,,,,,,,,,,,,,,,,,,,,,,,,,,,,,
,5edd2e458f29cfa351de300d,001,2022-04-28_20h05.52.131,classification_task,2021.2.3,Win32,59.51318217,5edd2e458f29cfa351de300d,626b377229c10585ec392f89,626b39c30e91b9e2ff69dfde,,,,,,,,,,,,,,,,,,,,,,,l,1,2.9516,"[""0.813"",""0.432"",""0.468"",""0.711""]","[0,1,1,1]",0,25,25,25,1,1,1,,,0,FALSE,,,,,,,,,,,,,,,,,,,,,,,,,,,,,,
,5edd2e458f29cfa351de300d,001,2022-04-28_20h05.52.131,classification_task,2021.2.3,Win32,59.51318217,5edd2e458f29cfa351de300d,626b377229c10585ec392f89,626b39c30e91b9e2ff69dfde,,,,,,,,,,,,,,,,,,,,,,,l,1,2.1954,"[""0.163"",""0.356"",""0.659"",""0.777""]","[0,1,1,1]",0,26,26,26,1,1,0,,,0,FALSE,,,,,,,,,,,,,,,,,,,,,,,,,,,,,,
,5edd2e458f29cfa351de300d,001,2022-04-28_20h05.52.131,classification_task,2021.2.3,Win32,59.51318217,5edd2e458f29cfa351de300d,626b377229c10585ec392f89,626b39c30e91b9e2ff69dfde,,,,,,,,,,,,,,,,,,,,,,,l,1,3.0722,"[""0.097"",""0.356"",""0.659"",""0.826""]","[1,1,1,0]",0,27,27,27,1,1,0,,,0,FALSE,,,,,,,,,,,,,,,,,,,,,,,,,,,,,,
,5edd2e458f29cfa351de300d,001,2022-04-28_20h05.52.131,classification_task,2021.2.3,Win32,59.51318217,5edd2e458f29cfa351de300d,626b377229c10585ec392f89,626b39c30e91b9e2ff69dfde,,,,,,,,,,,,,,,,,,,,,,,l,1,1.605,"[""0.026"",""0.432"",""0.188"",""0.711""]","[1,1,0,1]",0,28,28,28,1,1,1,,,0,FALSE,,,,,,,,,,,,,,,,,,,,,,,,,,,,,,
,5edd2e458f29cfa351de300d,001,2022-04-28_20h05.52.131,classification_task,2021.2.3,Win32,59.51318217,5edd2e458f29cfa351de300d,626b377229c10585ec392f89,626b39c30e91b9e2ff69dfde,,,,,,,,,,,,,,,,,,,,,,,l,1,0.9494,"[""0.097"",""0.356"",""0.161"",""0.777""]","[1,1,0,1]",0,29,29,29,1,1,0,,,0,FALSE,,,,,,,,,,,,,,,,,,,,,,,,,,,,,,
,5edd2e458f29cfa351de300d,001,2022-04-28_20h05.52.131,classification_task,2021.2.3,Win32,59.51318217,5edd2e458f29cfa351de300d,626b377229c10585ec392f89,626b39c30e91b9e2ff69dfde,,,,,,,,,,,,,,,,,,,,,,,a,1,1.2268,"[""0.813"",""0.532"",""0.862"",""0.910""]","[0,1,1,1]",0,30,30,30,1,0,0,,,0,FALSE,,,,,,,,,,,,,,,,,,,,,,,,,,,,,,
,5edd2e458f29cfa351de300d,001,2022-04-28_20h05.52.131,classification_task,2021.2.3,Win32,59.51318217,5edd2e458f29cfa351de300d,626b377229c10585ec392f89,626b39c30e91b9e2ff69dfde,,,,,,,,,,,,,,,,,,,,,,,a,1,2.8531,"[""0.308"",""0.188"",""0.604"",""0.944""]","[1,0,1,1]",0,31,31,31,1,0,1,,,0,FALSE,,,,,,,,,,,,,,,,,,,,,,,,,,,,,,
,5edd2e458f29cfa351de300d,001,2022-04-28_20h05.52.131,classification_task,2021.2.3,Win32,59.51318217,5edd2e458f29cfa351de300d,626b377229c10585ec392f89,626b39c30e91b9e2ff69dfde,,,,,,,,,,,,,,,,,,,,,,,l,1,1.1338,"[""0.097"",""0.356"",""0.659"",""0.566""]","[1,1,1,0]",0,32,32,32,1,1,0,,,0,FALSE,,,,,,,,,,,,,,,,,,,,,,,,,,,,,,
,5edd2e458f29cfa351de300d,001,2022-04-28_20h05.52.131,classification_task,2021.2.3,Win32,59.51318217,5edd2e458f29cfa351de300d,626b377229c10585ec392f89,626b39c30e91b9e2ff69dfde,,,,,,,,,,,,,,,,,,,,,,,a,0,3.1718,"[""0.026"",""0.432"",""0.468"",""0.813""]","[1,1,1,0]",0,33,33,33,1,1,1,,,0,FALSE,,,,,,,,,,,,,,,,,,,,,,,,,,,,,,
,5edd2e458f29cfa351de300d,001,2022-04-28_20h05.52.131,classification_task,2021.2.3,Win32,59.51318217,5edd2e458f29cfa351de300d,626b377229c10585ec392f89,626b39c30e91b9e2ff69dfde,,,,,,,,,,,,,,,,,,,,,,,a,1,1.3389,"[""0.154"",""0.392"",""0.604"",""0.944""]","[0,1,1,1]",0,34,34,34,1,0,1,,,0,FALSE,,,,,,,,,,,,,,,,,,,,,,,,,,,,,,
,5edd2e458f29cfa351de300d,001,2022-04-28_20h05.52.131,classification_task,2021.2.3,Win32,59.51318217,5edd2e458f29cfa351de300d,626b377229c10585ec392f89,626b39c30e91b9e2ff69dfde,,,,,,,,,,,,,,,,,,,,,,,a,1,1.186,"[""0.308"",""0.392"",""0.196"",""0.944""]","[1,1,0,1]",0,35,35,35,1,0,1,,,0,FALSE,,,,,,,,,,,,,,,,,,,,,,,,,,,,,,
,5edd2e458f29cfa351de300d,001,2022-04-28_20h05.52.131,classification_task,2021.2.3,Win32,59.51318217,5edd2e458f29cfa351de300d,626b377229c10585ec392f89,626b39c30e91b9e2ff69dfde,,,,,,,,,,,,,,,,,,,,,,,a,1,1.0031,"[""0.146"",""0.532"",""0.862"",""0.910""]","[0,1,1,1]",0,36,36,36,1,0,0,,,0,FALSE,,,,,,,,,,,,,,,,,,,,,,,,,,,,,,
,5edd2e458f29cfa351de300d,001,2022-04-28_20h05.52.131,classification_task,2021.2.3,Win32,59.51318217,5edd2e458f29cfa351de300d,626b377229c10585ec392f89,626b39c30e91b9e2ff69dfde,,,,,,,,,,,,,,,,,,,,,,,l,1,0.6341,"[""0.061"",""0.356"",""0.659"",""0.777""]","[0,1,1,1]",0,37,37,37,1,1,0,,,0,FALSE,,,,,,,,,,,,,,,,,,,,,,,,,,,,,,
,5edd2e458f29cfa351de300d,001,2022-04-28_20h05.52.131,classification_task,2021.2.3,Win32,59.51318217,5edd2e458f29cfa351de300d,626b377229c10585ec392f89,626b39c30e91b9e2ff69dfde,,,,,,,,,,,,,,,,,,,,,,,a,1,0.6473,"[""0.246"",""0.532"",""0.862"",""0.196""]","[1,1,1,0]",0,38,38,38,1,0,0,,,0,FALSE,,,,,,,,,,,,,,,,,,,,,,,,,,,,,,
,5edd2e458f29cfa351de300d,001,2022-04-28_20h05.52.131,classification_task,2021.2.3,Win32,59.51318217,5edd2e458f29cfa351de300d,626b377229c10585ec392f89,626b39c30e91b9e2ff69dfde,,,,,,,,,,,,,,,,,,,,,,,a,1,4.1911,"[""0.308"",""0.392"",""0.604"",""0.163""]","[1,1,1,0]",0,39,39,39,1,0,1,,,0,FALSE,,,,,,,,,,,,,,,,,,,,,,,,,,,,,,
,5edd2e458f29cfa351de300d,001,2022-04-28_20h05.52.131,classification_task,2021.2.3,Win32,59.51318217,5edd2e458f29cfa351de300d,626b377229c10585ec392f89,626b39c30e91b9e2ff69dfde,,,,,,,,,,,,,,,,,,,,,,,l,1,1.8919,"[""0.026"",""0.826"",""0.468"",""0.711""]","[1,0,1,1]",0,40,40,40,1,1,1,,,0,FALSE,,,,,,,,,,,,,,,,,,,,,,,,,,,,,,
,5edd2e458f29cfa351de300d,001,2022-04-28_20h05.52.131,classification_task,2021.2.3,Win32,59.51318217,5edd2e458f29cfa351de300d,626b377229c10585ec392f89,626b39c30e91b9e2ff69dfde,,,,,,,,,,,,,,,,,,,,,,,a,1,1.4256,"[""0.308"",""0.813"",""0.604"",""0.944""]","[1,0,1,1]",0,41,41,41,1,0,1,,,0,FALSE,,,,,,,,,,,,,,,,,,,,,,,,,,,,,,
,5edd2e458f29cfa351de300d,001,2022-04-28_20h05.52.131,classification_task,2021.2.3,Win32,59.51318217,5edd2e458f29cfa351de300d,626b377229c10585ec392f89,626b39c30e91b9e2ff69dfde,,,,,,,,,,,,,,,,,,,,,,,l,1,2.167,"[""0.026"",""0.432"",""0.813"",""0.711""]","[1,1,0,1]",0,42,42,42,1,1,1,,,0,FALSE,,,,,,,,,,,,,,,,,,,,,,,,,,,,,,
,5edd2e458f29cfa351de300d,001,2022-04-28_20h05.52.131,classification_task,2021.2.3,Win32,59.51318217,5edd2e458f29cfa351de300d,626b377229c10585ec392f89,626b39c30e91b9e2ff69dfde,,,,,,,,,,,,,,,,,,,,,,,a,1,2.3147,"[""0.246"",""0.532"",""0.196"",""0.910""]","[1,1,0,1]",0,43,43,43,1,0,0,,,0,FALSE,,,,,,,,,,,,,,,,,,,,,,,,,,,,,,
,5edd2e458f29cfa351de300d,001,2022-04-28_20h05.52.131,classification_task,2021.2.3,Win32,59.51318217,5edd2e458f29cfa351de300d,626b377229c10585ec392f89,626b39c30e91b9e2ff69dfde,,,,,,,,,,,,,,,,,,,,,,,a,1,1.2356,"[""0.246"",""0.154"",""0.862"",""0.910""]","[1,0,1,1]",0,44,44,44,1,0,0,,,0,FALSE,,,,,,,,,,,,,,,,,,,,,,,,,,,,,,
,5edd2e458f29cfa351de300d,001,2022-04-28_20h05.52.131,classification_task,2021.2.3,Win32,59.51318217,5edd2e458f29cfa351de300d,626b377229c10585ec392f89,626b39c30e91b9e2ff69dfde,,,,,,,,,,,,,,,,,,,,,,,l,1,0.6629,"[""0.097"",""0.356"",""0.196"",""0.777""]","[1,1,0,1]",0,45,45,45,1,1,0,,,0,FALSE,,,,,,,,,,,,,,,,,,,,,,,,,,,,,,
,5edd2e458f29cfa351de300d,001,2022-04-28_20h05.52.131,classification_task,2021.2.3,Win32,59.51318217,5edd2e458f29cfa351de300d,626b377229c10585ec392f89,626b39c30e91b9e2ff69dfde,,,,,,,,,,,,,,,,,,,,,,,a,0,2.3301,"[""0.813"",""0.432"",""0.468"",""0.711""]","[0,1,1,1]",0,46,46,46,1,1,1,,,0,FALSE,,,,,,,,,,,,,,,,,,,,,,,,,,,,,,
,5edd2e458f29cfa351de300d,001,2022-04-28_20h05.52.131,classification_task,2021.2.3,Win32,59.51318217,5edd2e458f29cfa351de300d,626b377229c10585ec392f89,626b39c30e91b9e2ff69dfde,,,,,,,,,,,,,,,,,,,,,,,l,1,1.8122,"[""0.097"",""0.813"",""0.659"",""0.777""]","[1,0,1,1]",0,47,47,47,1,1,0,,,0,FALSE,,,,,,,,,,,,,,,,,,,,,,,,,,,,,,
,5edd2e458f29cfa351de300d,001,2022-04-28_20h05.52.131,classification_task,2021.2.3,Win32,59.51318217,5edd2e458f29cfa351de300d,626b377229c10585ec392f89,626b39c30e91b9e2ff69dfde,,,,,,,,,,,,,,,,,,,,,,,a,1,1.1611,"[""0.246"",""0.532"",""0.823"",""0.910""]","[1,1,0,1]",0,48,48,48,1,0,0,,,0,FALSE,,,,,,,,,,,,,,,,,,,,,,,,,,,,,,
,5edd2e458f29cfa351de300d,001,2022-04-28_20h05.52.131,classification_task,2021.2.3,Win32,59.51318217,5edd2e458f29cfa351de300d,626b377229c10585ec392f89,626b39c30e91b9e2ff69dfde,,,,,,,,,,,,,,,,,,,,,,,l,1,0.8265,"[""0.097"",""0.566"",""0.659"",""0.777""]","[1,0,1,1]",0,49,49,49,1,1,0,,,0,FALSE,,,,,,,,,,,,,,,,,,,,,,,,,,,,,,
,5edd2e458f29cfa351de300d,001,2022-04-28_20h05.52.131,classification_task,2021.2.3,Win32,59.51318217,5edd2e458f29cfa351de300d,626b377229c10585ec392f89,626b39c30e91b9e2ff69dfde,,,,,,,,,,,,,,,,,,,,,,,a,1,1.4126,"[""0.163"",""0.392"",""0.604"",""0.944""]","[0,1,1,1]",0,50,50,50,1,0,1,,,0,FALSE,,,,,,,,,,,,,,,,,,,,,,,,,,,,,,
,5edd2e458f29cfa351de300d,001,2022-04-28_20h05.52.131,classification_task,2021.2.3,Win32,59.51318217,5edd2e458f29cfa351de300d,626b377229c10585ec392f89,626b39c30e91b9e2ff69dfde,,,,,,,,,,,,,,,,,,,,,,,a,1,5.7355,"[""0.246"",""0.061"",""0.862"",""0.910""]","[1,0,1,1]",0,51,51,51,1,0,0,,,0,FALSE,,,,,,,,,,,,,,,,,,,,,,,,,,,,,,
,5edd2e458f29cfa351de300d,001,2022-04-28_20h05.52.131,classification_task,2021.2.3,Win32,59.51318217,5edd2e458f29cfa351de300d,626b377229c10585ec392f89,626b39c30e91b9e2ff69dfde,,,,,,,,,,,,,,,,,,,,,,,a,1,0.4532,"[""0.246"",""0.532"",""0.862"",""0.171""]","[1,1,1,0]",0,52,52,52,1,0,0,,,0,FALSE,,,,,,,,,,,,,,,,,,,,,,,,,,,,,,
,5edd2e458f29cfa351de300d,001,2022-04-28_20h05.52.131,classification_task,2021.2.3,Win32,59.51318217,5edd2e458f29cfa351de300d,626b377229c10585ec392f89,626b39c30e91b9e2ff69dfde,,,,,,,,,,,,,,,,,,,,,,,a,1,1.4035,"[""0.308"",""0.392"",""0.171"",""0.944""]","[1,1,0,1]",0,53,53,53,1,0,1,,,0,FALSE,,,,,,,,,,,,,,,,,,,,,,,,,,,,,,
,5edd2e458f29cfa351de300d,001,2022-04-28_20h05.52.131,classification_task,2021.2.3,Win32,59.51318217,5edd2e458f29cfa351de300d,626b377229c10585ec392f89,626b39c30e91b9e2ff69dfde,,,,,,,,,,,,,,,,,,,,,,,l,1,0.695,"[""0.097"",""0.356"",""0.659"",""0.188""]","[1,1,1,0]",0,54,54,54,1,1,0,,,0,FALSE,,,,,,,,,,,,,,,,,,,,,,,,,,,,,,
,5edd2e458f29cfa351de300d,001,2022-04-28_20h05.52.131,classification_task,2021.2.3,Win32,59.51318217,5edd2e458f29cfa351de300d,626b377229c10585ec392f89,626b39c30e91b9e2ff69dfde,,,,,,,,,,,,,,,,,,,,,,,l,1,0.7248,"[""0.823"",""0.356"",""0.659"",""0.777""]","[0,1,1,1]",0,55,55,55,1,1,0,,,0,FALSE,,,,,,,,,,,,,,,,,,,,,,,,,,,,,,
,5edd2e458f29cfa351de300d,001,2022-04-28_20h05.52.131,classification_task,2021.2.3,Win32,59.51318217,5edd2e458f29cfa351de300d,626b377229c10585ec392f89,626b39c30e91b9e2ff69dfde,,,,,,,,,,,,,,,,,,,,,,,l,1,2.8711,"[""0.026"",""0.432"",""0.468"",""0.061""]","[1,1,1,0]",0,56,56,56,1,1,1,,,0,FALSE,,,,,,,,,,,,,,,,,,,,,,,,,,,,,,
,5edd2e458f29cfa351de300d,001,2022-04-28_20h05.52.131,classification_task,2021.2.3,Win32,59.51318217,5edd2e458f29cfa351de300d,626b377229c10585ec392f89,626b39c30e91b9e2ff69dfde,,,,,,,,,,,,,,,,,,,,,,,l,1,1.3092,"[""0.171"",""0.432"",""0.468"",""0.711""]","[0,1,1,1]",0,57,57,57,1,1,1,,,0,FALSE,,,,,,,,,,,,,,,,,,,,,,,,,,,,,,
,5edd2e458f29cfa351de300d,001,2022-04-28_20h05.52.131,classification_task,2021.2.3,Win32,59.51318217,5edd2e458f29cfa351de300d,626b377229c10585ec392f89,626b39c30e91b9e2ff69dfde,,,,,,,,,,,,,,,,,,,,,,,l,1,1.5471,"[""0.026"",""0.823"",""0.468"",""0.711""]","[1,0,1,1]",0,58,58,58,1,1,1,,,0,FALSE,,,,,,,,,,,,,,,,,,,,,,,,,,,,,,
,5edd2e458f29cfa351de300d,001,2022-04-28_20h05.52.131,classification_task,2021.2.3,Win32,59.51318217,5edd2e458f29cfa351de300d,626b377229c10585ec392f89,626b39c30e91b9e2ff69dfde,,,,,,,,,,,,,,,,,,,,,,,l,1,1.0922,"[""0.026"",""0.432"",""0.211"",""0.711""]","[1,1,0,1]",0,59,59,59,1,1,1,,,0,FALSE,,,,,,,,,,,,,,,,,,,,,,,,,,,,,,
,5edd2e458f29cfa351de300d,001,2022-04-28_20h05.52.131,classification_task,2021.2.3,Win32,59.51318217,5edd2e458f29cfa351de300d,626b377229c10585ec392f89,626b39c30e91b9e2ff69dfde,,,,,,,,,,,,,,,,,,,,,,,a,1,0.9784,"[""0.196"",""0.532"",""0.862"",""0.910""]","[0,1,1,1]",0,60,60,60,1,0,0,,,0,FALSE,,,,,,,,,,,,,,,,,,,,,,,,,,,,,,
,5edd2e458f29cfa351de300d,001,2022-04-28_20h05.52.131,classification_task,2021.2.3,Win32,59.51318217,5edd2e458f29cfa351de300d,626b377229c10585ec392f89,626b39c30e91b9e2ff69dfde,,,,,,,,,,,,,,,,,,,,,,,a,1,2.0774,"[""0.308"",""0.392"",""0.604"",""0.061""]","[1,1,1,0]",0,61,61,61,1,0,1,,,0,FALSE,,,,,,,,,,,,,,,,,,,,,,,,,,,,,,
,5edd2e458f29cfa351de300d,001,2022-04-28_20h05.52.131,classification_task,2021.2.3,Win32,59.51318217,5edd2e458f29cfa351de300d,626b377229c10585ec392f89,626b39c30e91b9e2ff69dfde,,,,,,,,,,,,,,,,,,,,,,,a,1,1.6618,"[""0.308"",""0.061"",""0.604"",""0.944""]","[1,0,1,1]",0,62,62,62,1,0,1,,,0,FALSE,,,,,,,,,,,,,,,,,,,,,,,,,,,,,,
,5edd2e458f29cfa351de300d,001,2022-04-28_20h05.52.131,classification_task,2021.2.3,Win32,59.51318217,5edd2e458f29cfa351de300d,626b377229c10585ec392f89,626b39c30e91b9e2ff69dfde,,,,,,,,,,,,,,,,,,,,,,,l,1,0.634,"[""0.097"",""0.356"",""0.813"",""0.777""]","[1,1,0,1]",0,63,63,63,1,1,0,,,0,FALSE,,,,,,,,,,,,,,,,,,,,,,,,,,,,,,
,5edd2e458f29cfa351de300d,001,2022-04-28_20h05.52.131,classification_task,2021.2.3,Win32,59.51318217,5edd2e458f29cfa351de300d,626b377229c10585ec392f89,626b39c30e91b9e2ff69dfde,,,,,,,,,,,,,,,,,,,,,,,,,,,,,,,,,,,,,,,0, ,,0,0,203.2716,0,1,1,1,1,2,2,,,,,,,,,,,,,,,,,
,5edd2e458f29cfa351de300d,001,2022-04-28_20h05.52.131,classification_task,2021.2.3,Win32,59.51318217,5edd2e458f29cfa351de300d,626b377229c10585ec392f89,626b39c30e91b9e2ff69dfde,,,,,,,,,,,,,,,,,,,,,,,,,,,,,,,,,,,,,,,1,  ,,0,2.556584736,209.7299,0,1,1,1,1,2,2,,,,,,,,,,,,,,,,,
,5edd2e458f29cfa351de300d,001,2022-04-28_20h05.52.131,classification_task,2021.2.3,Win32,59.51318217,5edd2e458f29cfa351de300d,626b377229c10585ec392f89,626b39c30e91b9e2ff69dfde,,,,,,,,,,,,,,,,,,,,,,,,,,,,,,,,,,,,,,,2,  ,,0,0,211.2713,0,1,1,1,1,2,2,,,,,,,,,,,,,,,,,
,5edd2e458f29cfa351de300d,001,2022-04-28_20h05.52.131,classification_task,2021.2.3,Win32,59.51318217,5edd2e458f29cfa351de300d,626b377229c10585ec392f89,626b39c30e91b9e2ff69dfde,,,,,,,,,,,,,,,,,,,,,,,,,,,,,,,,,,,,,,,,,,,,,0,1,1,1,1,,2,,,,,,,,,,,,,,,,,
,5edd2e458f29cfa351de300d,001,2022-04-28_20h05.52.131,classification_task,2021.2.3,Win32,59.51318217,5edd2e458f29cfa351de300d,626b377229c10585ec392f89,626b39c30e91b9e2ff69dfde,,,,,,,,,,,,,,,,,,,,,space,1.5273,l,1,2.1305,"[""0.061"",""0.432"",""0.468"",""0.711""]","[0,1,1,1]",0,0,0,0,1,1,1,,,0,FALSE,,,,,,,,,,,,,,,,,,,,,,,,,,,,,,
,5edd2e458f29cfa351de300d,001,2022-04-28_20h05.52.131,classification_task,2021.2.3,Win32,59.51318217,5edd2e458f29cfa351de300d,626b377229c10585ec392f89,626b39c30e91b9e2ff69dfde,,,,,,,,,,,,,,,,,,,,,,,a,1,2.1975,"[""0.308"",""0.392"",""0.813"",""0.944""]","[1,1,0,1]",0,1,1,1,1,0,1,,,0,FALSE,,,,,,,,,,,,,,,,,,,,,,,,,,,,,,
,5edd2e458f29cfa351de300d,001,2022-04-28_20h05.52.131,classification_task,2021.2.3,Win32,59.51318217,5edd2e458f29cfa351de300d,626b377229c10585ec392f89,626b39c30e91b9e2ff69dfde,,,,,,,,,,,,,,,,,,,,,,,l,1,1.6168,"[""0.026"",""0.813"",""0.468"",""0.711""]","[1,0,1,1]",0,2,2,2,1,1,1,,,0,FALSE,,,,,,,,,,,,,,,,,,,,,,,,,,,,,,
,5edd2e458f29cfa351de300d,001,2022-04-28_20h05.52.131,classification_task,2021.2.3,Win32,59.51318217,5edd2e458f29cfa351de300d,626b377229c10585ec392f89,626b39c30e91b9e2ff69dfde,,,,,,,,,,,,,,,,,,,,,,,a,1,1.8032,"[""0.171"",""0.392"",""0.604"",""0.944""]","[0,1,1,1]",0,3,3,3,1,0,1,,,0,FALSE,,,,,,,,,,,,,,,,,,,,,,,,,,,,,,
,5edd2e458f29cfa351de300d,001,2022-04-28_20h05.52.131,classification_task,2021.2.3,Win32,59.51318217,5edd2e458f29cfa351de300d,626b377229c10585ec392f89,626b39c30e91b9e2ff69dfde,,,,,,,,,,,,,,,,,,,,,,,a,1,3.0164,"[""0.308"",""0.392"",""0.604"",""0.826""]","[1,1,1,0]",0,4,4,4,1,0,1,,,0,FALSE,,,,,,,,,,,,,,,,,,,,,,,,,,,,,,
,5edd2e458f29cfa351de300d,001,2022-04-28_20h05.52.131,classification_task,2021.2.3,Win32,59.51318217,5edd2e458f29cfa351de300d,626b377229c10585ec392f89,626b39c30e91b9e2ff69dfde,,,,,,,,,,,,,,,,,,,,,,,a,1,5.8584,"[""0.246"",""0.532"",""0.862"",""0.813""]","[1,1,1,0]",0,5,5,5,1,0,0,,,0,FALSE,,,,,,,,,,,,,,,,,,,,,,,,,,,,,,
,5edd2e458f29cfa351de300d,001,2022-04-28_20h05.52.131,classification_task,2021.2.3,Win32,59.51318217,5edd2e458f29cfa351de300d,626b377229c10585ec392f89,626b39c30e91b9e2ff69dfde,,,,,,,,,,,,,,,,,,,,,,,a,1,1.6526,"[""0.246"",""0.532"",""0.826"",""0.910""]","[1,1,0,1]",0,6,6,6,1,0,0,,,0,FALSE,,,,,,,,,,,,,,,,,,,,,,,,,,,,,,
,5edd2e458f29cfa351de300d,001,2022-04-28_20h05.52.131,classification_task,2021.2.3,Win32,59.51318217,5edd2e458f29cfa351de300d,626b377229c10585ec392f89,626b39c30e91b9e2ff69dfde,,,,,,,,,,,,,,,,,,,,,,,a,1,1.618,"[""0.246"",""0.174"",""0.862"",""0.910""]","[1,0,1,1]",0,7,7,7,1,0,0,,,0,FALSE,,,,,,,,,,,,,,,,,,,,,,,,,,,,,,
,5edd2e458f29cfa351de300d,001,2022-04-28_20h05.52.131,classification_task,2021.2.3,Win32,59.51318217,5edd2e458f29cfa351de300d,626b377229c10585ec392f89,626b39c30e91b9e2ff69dfde,,,,,,,,,,,,,,,,,,,,,,,l,1,1.5942,"[""0.026"",""0.432"",""0.188"",""0.711""]","[1,1,0,1]",0,8,8,8,1,1,1,,,0,FALSE,,,,,,,,,,,,,,,,,,,,,,,,,,,,,,
,5edd2e458f29cfa351de300d,001,2022-04-28_20h05.52.131,classification_task,2021.2.3,Win32,59.51318217,5edd2e458f29cfa351de300d,626b377229c10585ec392f89,626b39c30e91b9e2ff69dfde,,,,,,,,,,,,,,,,,,,,,,,a,1,1.5332,"[""0.308"",""0.823"",""0.604"",""0.944""]","[1,0,1,1]",0,9,9,9,1,0,1,,,0,FALSE,,,,,,,,,,,,,,,,,,,,,,,,,,,,,,
,5edd2e458f29cfa351de300d,001,2022-04-28_20h05.52.131,classification_task,2021.2.3,Win32,59.51318217,5edd2e458f29cfa351de300d,626b377229c10585ec392f89,626b39c30e91b9e2ff69dfde,,,,,,,,,,,,,,,,,,,,,,,a,1,1.5753,"[""0.211"",""0.532"",""0.862"",""0.910""]","[0,1,1,1]",0,10,10,10,1,0,0,,,0,FALSE,,,,,,,,,,,,,,,,,,,,,,,,,,,,,,
,5edd2e458f29cfa351de300d,001,2022-04-28_20h05.52.131,classification_task,2021.2.3,Win32,59.51318217,5edd2e458f29cfa351de300d,626b377229c10585ec392f89,626b39c30e91b9e2ff69dfde,,,,,,,,,,,,,,,,,,,,,,,l,1,2.7744,"[""0.026"",""0.432"",""0.468"",""0.823""]","[1,1,1,0]",0,11,11,11,1,1,1,,,0,FALSE,,,,,,,,,,,,,,,,,,,,,,,,,,,,,,
,5edd2e458f29cfa351de300d,001,2022-04-28_20h05.52.131,classification_task,2021.2.3,Win32,59.51318217,5edd2e458f29cfa351de300d,626b377229c10585ec392f89,626b39c30e91b9e2ff69dfde,,,,,,,,,,,,,,,,,,,,,,,l,1,4.0643,"[""0.097"",""0.356"",""0.659"",""0.154""]","[1,1,1,0]",0,12,12,12,1,1,0,,,0,FALSE,,,,,,,,,,,,,,,,,,,,,,,,,,,,,,
,5edd2e458f29cfa351de300d,001,2022-04-28_20h05.52.131,classification_task,2021.2.3,Win32,59.51318217,5edd2e458f29cfa351de300d,626b377229c10585ec392f89,626b39c30e91b9e2ff69dfde,,,,,,,,,,,,,,,,,,,,,,,l,1,1.1336,"[""0.146"",""0.356"",""0.659"",""0.777""]","[0,1,1,1]",0,13,13,13,1,1,0,,,0,FALSE,,,,,,,,,,,,,,,,,,,,,,,,,,,,,,
,5edd2e458f29cfa351de300d,001,2022-04-28_20h05.52.131,classification_task,2021.2.3,Win32,59.51318217,5edd2e458f29cfa351de300d,626b377229c10585ec392f89,626b39c30e91b9e2ff69dfde,,,,,,,,,,,,,,,,,,,,,,,l,1,0.862,"[""0.097"",""0.356"",""0.826"",""0.777""]","[1,1,0,1]",0,14,14,14,1,1,0,,,0,FALSE,,,,,,,,,,,,,,,,,,,,,,,,,,,,,,
,5edd2e458f29cfa351de300d,001,2022-04-28_20h05.52.131,classification_task,2021.2.3,Win32,59.51318217,5edd2e458f29cfa351de300d,626b377229c10585ec392f89,626b39c30e91b9e2ff69dfde,,,,,,,,,,,,,,,,,,,,,,,l,1,0.6679,"[""0.097"",""0.188"",""0.659"",""0.777""]","[1,0,1,1]",0,15,15,15,1,1,0,,,0,FALSE,,,,,,,,,,,,,,,,,,,,,,,,,,,,,,
,5edd2e458f29cfa351de300d,001,2022-04-28_20h05.52.131,classification_task,2021.2.3,Win32,59.51318217,5edd2e458f29cfa351de300d,626b377229c10585ec392f89,626b39c30e91b9e2ff69dfde,,,,,,,,,,,,,,,,,,,,,,,a,1,1.3288,"[""0.246"",""0.532"",""0.161"",""0.910""]","[1,1,0,1]",0,16,16,16,1,0,0,,,0,FALSE,,,,,,,,,,,,,,,,,,,,,,,,,,,,,,
,5edd2e458f29cfa351de300d,001,2022-04-28_20h05.52.131,classification_task,2021.2.3,Win32,59.51318217,5edd2e458f29cfa351de300d,626b377229c10585ec392f89,626b39c30e91b9e2ff69dfde,,,,,,,,,,,,,,,,,,,,,,,l,1,1.749,"[""0.026"",""0.432"",""0.468"",""0.171""]","[1,1,1,0]",0,17,17,17,1,1,1,,,0,FALSE,,,,,,,,,,,,,,,,,,,,,,,,,,,,,,
,5edd2e458f29cfa351de300d,001,2022-04-28_20h05.52.131,classification_task,2021.2.3,Win32,59.51318217,5edd2e458f29cfa351de300d,626b377229c10585ec392f89,626b39c30e91b9e2ff69dfde,,,,,,,,,,,,,,,,,,,,,,,a,1,1.493,"[""0.246"",""0.163"",""0.862"",""0.910""]","[1,0,1,1]",0,18,18,18,1,0,0,,,0,FALSE,,,,,,,,,,,,,,,,,,,,,,,,,,,,,,
,5edd2e458f29cfa351de300d,001,2022-04-28_20h05.52.131,classification_task,2021.2.3,Win32,59.51318217,5edd2e458f29cfa351de300d,626b377229c10585ec392f89,626b39c30e91b9e2ff69dfde,,,,,,,,,,,,,,,,,,,,,,,l,1,1.8543,"[""0.097"",""0.061"",""0.659"",""0.777""]","[1,0,1,1]",0,19,19,19,1,1,0,,,0,FALSE,,,,,,,,,,,,,,,,,,,,,,,,,,,,,,
,5edd2e458f29cfa351de300d,001,2022-04-28_20h05.52.131,classification_task,2021.2.3,Win32,59.51318217,5edd2e458f29cfa351de300d,626b377229c10585ec392f89,626b39c30e91b9e2ff69dfde,,,,,,,,,,,,,,,,,,,,,,,a,1,1.2594,"[""0.146"",""0.532"",""0.862"",""0.910""]","[0,1,1,1]",0,20,20,20,1,0,0,,,0,FALSE,,,,,,,,,,,,,,,,,,,,,,,,,,,,,,
,5edd2e458f29cfa351de300d,001,2022-04-28_20h05.52.131,classification_task,2021.2.3,Win32,59.51318217,5edd2e458f29cfa351de300d,626b377229c10585ec392f89,626b39c30e91b9e2ff69dfde,,,,,,,,,,,,,,,,,,,,,,,l,1,0.7325,"[""0.154"",""0.356"",""0.659"",""0.777""]","[0,1,1,1]",0,21,21,21,1,1,0,,,0,FALSE,,,,,,,,,,,,,,,,,,,,,,,,,,,,,,
,5edd2e458f29cfa351de300d,001,2022-04-28_20h05.52.131,classification_task,2021.2.3,Win32,59.51318217,5edd2e458f29cfa351de300d,626b377229c10585ec392f89,626b39c30e91b9e2ff69dfde,,,,,,,,,,,,,,,,,,,,,,,l,1,0.6452,"[""0.097"",""0.356"",""0.171"",""0.777""]","[1,1,0,1]",0,22,22,22,1,1,0,,,0,FALSE,,,,,,,,,,,,,,,,,,,,,,,,,,,,,,
,5edd2e458f29cfa351de300d,001,2022-04-28_20h05.52.131,classification_task,2021.2.3,Win32,59.51318217,5edd2e458f29cfa351de300d,626b377229c10585ec392f89,626b39c30e91b9e2ff69dfde,,,,,,,,,,,,,,,,,,,,,,,a,1,1.2779,"[""0.308"",""0.211"",""0.604"",""0.944""]","[1,0,1,1]",0,23,23,23,1,0,1,,,0,FALSE,,,,,,,,,,,,,,,,,,,,,,,,,,,,,,
,5edd2e458f29cfa351de300d,001,2022-04-28_20h05.52.131,classification_task,2021.2.3,Win32,59.51318217,5edd2e458f29cfa351de300d,626b377229c10585ec392f89,626b39c30e91b9e2ff69dfde,,,,,,,,,,,,,,,,,,,,,,,l,1,1.092,"[""0.026"",""0.432"",""0.174"",""0.711""]","[1,1,0,1]",0,24,24,24,1,1,1,,,0,FALSE,,,,,,,,,,,,,,,,,,,,,,,,,,,,,,
,5edd2e458f29cfa351de300d,001,2022-04-28_20h05.52.131,classification_task,2021.2.3,Win32,59.51318217,5edd2e458f29cfa351de300d,626b377229c10585ec392f89,626b39c30e91b9e2ff69dfde,,,,,,,,,,,,,,,,,,,,,,,a,1,1.0845,"[""0.308"",""0.392"",""0.171"",""0.944""]","[1,1,0,1]",0,25,25,25,1,0,1,,,0,FALSE,,,,,,,,,,,,,,,,,,,,,,,,,,,,,,
,5edd2e458f29cfa351de300d,001,2022-04-28_20h05.52.131,classification_task,2021.2.3,Win32,59.51318217,5edd2e458f29cfa351de300d,626b377229c10585ec392f89,626b39c30e91b9e2ff69dfde,,,,,,,,,,,,,,,,,,,,,,,a,1,4.7036,"[""0.308"",""0.392"",""0.604"",""0.196""]","[1,1,1,0]",0,26,26,26,1,0,1,,,0,FALSE,,,,,,,,,,,,,,,,,,,,,,,,,,,,,,
,5edd2e458f29cfa351de300d,001,2022-04-28_20h05.52.131,classification_task,2021.2.3,Win32,59.51318217,5edd2e458f29cfa351de300d,626b377229c10585ec392f89,626b39c30e91b9e2ff69dfde,,,,,,,,,,,,,,,,,,,,,,,l,1,1.0207,"[""0.026"",""0.171"",""0.468"",""0.711""]","[1,0,1,1]",0,27,27,27,1,1,1,,,0,FALSE,,,,,,,,,,,,,,,,,,,,,,,,,,,,,,
,5edd2e458f29cfa351de300d,001,2022-04-28_20h05.52.131,classification_task,2021.2.3,Win32,59.51318217,5edd2e458f29cfa351de300d,626b377229c10585ec392f89,626b39c30e91b9e2ff69dfde,,,,,,,,,,,,,,,,,,,,,,,l,0,7.0302,"[""0.246"",""0.532"",""0.862"",""0.146""]","[1,1,1,0]",0,28,28,28,1,0,0,,,0,FALSE,,,,,,,,,,,,,,,,,,,,,,,,,,,,,,
,5edd2e458f29cfa351de300d,001,2022-04-28_20h05.52.131,classification_task,2021.2.3,Win32,59.51318217,5edd2e458f29cfa351de300d,626b377229c10585ec392f89,626b39c30e91b9e2ff69dfde,,,,,,,,,,,,,,,,,,,,,,,l,1,2.5736,"[""0.097"",""0.356"",""0.659"",""0.196""]","[1,1,1,0]",0,29,29,29,1,1,0,,,0,FALSE,,,,,,,,,,,,,,,,,,,,,,,,,,,,,,
,5edd2e458f29cfa351de300d,001,2022-04-28_20h05.52.131,classification_task,2021.2.3,Win32,59.51318217,5edd2e458f29cfa351de300d,626b377229c10585ec392f89,626b39c30e91b9e2ff69dfde,,,,,,,,,,,,,,,,,,,,,,,l,1,2.9301,"[""0.813"",""0.432"",""0.468"",""0.711""]","[0,1,1,1]",0,30,30,30,1,1,1,,,0,FALSE,,,,,,,,,,,,,,,,,,,,,,,,,,,,,,
,5edd2e458f29cfa351de300d,001,2022-04-28_20h05.52.131,classification_task,2021.2.3,Win32,59.51318217,5edd2e458f29cfa351de300d,626b377229c10585ec392f89,626b39c30e91b9e2ff69dfde,,,,,,,,,,,,,,,,,,,,,,,a,1,1.2037,"[""0.161"",""0.392"",""0.604"",""0.944""]","[0,1,1,1]",0,31,31,31,1,0,1,,,0,FALSE,,,,,,,,,,,,,,,,,,,,,,,,,,,,,,
,5edd2e458f29cfa351de300d,001,2022-04-28_20h05.52.131,classification_task,2021.2.3,Win32,59.51318217,5edd2e458f29cfa351de300d,626b377229c10585ec392f89,626b39c30e91b9e2ff69dfde,,,,,,,,,,,,,,,,,,,,,,,a,1,3.5616,"[""0.246"",""0.532"",""0.862"",""0.163""]","[1,1,1,0]",0,32,32,32,1,0,0,,,0,FALSE,,,,,,,,,,,,,,,,,,,,,,,,,,,,,,
,5edd2e458f29cfa351de300d,001,2022-04-28_20h05.52.131,classification_task,2021.2.3,Win32,59.51318217,5edd2e458f29cfa351de300d,626b377229c10585ec392f89,626b39c30e91b9e2ff69dfde,,,,,,,,,,,,,,,,,,,,,,,l,1,0.9465,"[""0.097"",""0.356"",""0.161"",""0.777""]","[1,1,0,1]",0,33,33,33,1,1,0,,,0,FALSE,,,,,,,,,,,,,,,,,,,,,,,,,,,,,,
,5edd2e458f29cfa351de300d,001,2022-04-28_20h05.52.131,classification_task,2021.2.3,Win32,59.51318217,5edd2e458f29cfa351de300d,626b377229c10585ec392f89,626b39c30e91b9e2ff69dfde,,,,,,,,,,,,,,,,,,,,,,,a,1,5.1792,"[""0.161"",""0.532"",""0.862"",""0.910""]","[0,1,1,1]",0,34,34,34,1,0,0,,,0,FALSE,,,,,,,,,,,,,,,,,,,,,,,,,,,,,,
,5edd2e458f29cfa351de300d,001,2022-04-28_20h05.52.131,classification_task,2021.2.3,Win32,59.51318217,5edd2e458f29cfa351de300d,626b377229c10585ec392f89,626b39c30e91b9e2ff69dfde,,,,,,,,,,,,,,,,,,,,,,,l,1,4.5382,"[""0.097"",""0.061"",""0.659"",""0.777""]","[1,0,1,1]",0,35,35,35,1,1,0,,,0,FALSE,,,,,,,,,,,,,,,,,,,,,,,,,,,,,,
,5edd2e458f29cfa351de300d,001,2022-04-28_20h05.52.131,classification_task,2021.2.3,Win32,59.51318217,5edd2e458f29cfa351de300d,626b377229c10585ec392f89,626b39c30e91b9e2ff69dfde,,,,,,,,,,,,,,,,,,,,,,,l,1,5.6937,"[""0.026"",""0.171"",""0.468"",""0.711""]","[1,0,1,1]",0,36,36,36,1,1,1,,,0,FALSE,,,,,,,,,,,,,,,,,,,,,,,,,,,,,,
,5edd2e458f29cfa351de300d,001,2022-04-28_20h05.52.131,classification_task,2021.2.3,Win32,59.51318217,5edd2e458f29cfa351de300d,626b377229c10585ec392f89,626b39c30e91b9e2ff69dfde,,,,,,,,,,,,,,,,,,,,,,,a,0,1.7378,"[""0.188"",""0.356"",""0.659"",""0.777""]","[0,1,1,1]",0,37,37,37,1,1,0,,,0,FALSE,,,,,,,,,,,,,,,,,,,,,,,,,,,,,,
,5edd2e458f29cfa351de300d,001,2022-04-28_20h05.52.131,classification_task,2021.2.3,Win32,59.51318217,5edd2e458f29cfa351de300d,626b377229c10585ec392f89,626b39c30e91b9e2ff69dfde,,,,,,,,,,,,,,,,,,,,,,,l,1,1.8195,"[""0.026"",""0.432"",""0.468"",""0.196""]","[1,1,1,0]",0,38,38,38,1,1,1,,,0,FALSE,,,,,,,,,,,,,,,,,,,,,,,,,,,,,,
,5edd2e458f29cfa351de300d,001,2022-04-28_20h05.52.131,classification_task,2021.2.3,Win32,59.51318217,5edd2e458f29cfa351de300d,626b377229c10585ec392f89,626b39c30e91b9e2ff69dfde,,,,,,,,,,,,,,,,,,,,,,,a,1,4.5583,"[""0.308"",""0.392"",""0.604"",""0.188""]","[1,1,1,0]",0,39,39,39,1,0,1,,,0,FALSE,,,,,,,,,,,,,,,,,,,,,,,,,,,,,,
,5edd2e458f29cfa351de300d,001,2022-04-28_20h05.52.131,classification_task,2021.2.3,Win32,59.51318217,5edd2e458f29cfa351de300d,626b377229c10585ec392f89,626b39c30e91b9e2ff69dfde,,,,,,,,,,,,,,,,,,,,,,,a,1,5.0511,"[""0.308"",""0.392"",""0.823"",""0.944""]","[1,1,0,1]",0,40,40,40,1,0,1,,,0,FALSE,,,,,,,,,,,,,,,,,,,,,,,,,,,,,,
,5edd2e458f29cfa351de300d,001,2022-04-28_20h05.52.131,classification_task,2021.2.3,Win32,59.51318217,5edd2e458f29cfa351de300d,626b377229c10585ec392f89,626b39c30e91b9e2ff69dfde,,,,,,,,,,,,,,,,,,,,,,,a,1,1.8446,"[""0.246"",""0.532"",""0.566"",""0.910""]","[1,1,0,1]",0,41,41,41,1,0,0,,,0,FALSE,,,,,,,,,,,,,,,,,,,,,,,,,,,,,,
,5edd2e458f29cfa351de300d,001,2022-04-28_20h05.52.131,classification_task,2021.2.3,Win32,59.51318217,5edd2e458f29cfa351de300d,626b377229c10585ec392f89,626b39c30e91b9e2ff69dfde,,,,,,,,,,,,,,,,,,,,,,,a,1,4.7952,"[""0.308"",""0.823"",""0.604"",""0.944""]","[1,0,1,1]",0,42,42,42,1,0,1,,,0,FALSE,,,,,,,,,,,,,,,,,,,,,,,,,,,,,,
,5edd2e458f29cfa351de300d,001,2022-04-28_20h05.52.131,classification_task,2021.2.3,Win32,59.51318217,5edd2e458f29cfa351de300d,626b377229c10585ec392f89,626b39c30e91b9e2ff69dfde,,,,,,,,,,,,,,,,,,,,,,,a,1,2.4854,"[""0.246"",""0.061"",""0.862"",""0.910""]","[1,0,1,1]",0,43,43,43,1,0,0,,,0,FALSE,,,,,,,,,,,,,,,,,,,,,,,,,,,,,,
,5edd2e458f29cfa351de300d,001,2022-04-28_20h05.52.131,classification_task,2021.2.3,Win32,59.51318217,5edd2e458f29cfa351de300d,626b377229c10585ec392f89,626b39c30e91b9e2ff69dfde,,,,,,,,,,,,,,,,,,,,,,,l,1,4.6627,"[""0.813"",""0.432"",""0.468"",""0.711""]","[0,1,1,1]",0,44,44,44,1,1,1,,,0,FALSE,,,,,,,,,,,,,,,,,,,,,,,,,,,,,,
,5edd2e458f29cfa351de300d,001,2022-04-28_20h05.52.131,classification_task,2021.2.3,Win32,59.51318217,5edd2e458f29cfa351de300d,626b377229c10585ec392f89,626b39c30e91b9e2ff69dfde,,,,,,,,,,,,,,,,,,,,,,,a,1,2.1748,"[""0.061"",""0.392"",""0.604"",""0.944""]","[0,1,1,1]",0,45,45,45,1,0,1,,,0,FALSE,,,,,,,,,,,,,,,,,,,,,,,,,,,,,,
,5edd2e458f29cfa351de300d,001,2022-04-28_20h05.52.131,classification_task,2021.2.3,Win32,59.51318217,5edd2e458f29cfa351de300d,626b377229c10585ec392f89,626b39c30e91b9e2ff69dfde,,,,,,,,,,,,,,,,,,,,,,,l,1,6.1881,"[""0.097"",""0.356"",""0.659"",""0.154""]","[1,1,1,0]",0,46,46,46,1,1,0,,,0,FALSE,,,,,,,,,,,,,,,,,,,,,,,,,,,,,,
,5edd2e458f29cfa351de300d,001,2022-04-28_20h05.52.131,classification_task,2021.2.3,Win32,59.51318217,5edd2e458f29cfa351de300d,626b377229c10585ec392f89,626b39c30e91b9e2ff69dfde,,,,,,,,,,,,,,,,,,,,,,,l,1,1.7887,"[""0.026"",""0.432"",""0.813"",""0.711""]","[1,1,0,1]",0,47,47,47,1,1,1,,,0,FALSE,,,,,,,,,,,,,,,,,,,,,,,,,,,,,,
,5edd2e458f29cfa351de300d,001,2022-04-28_20h05.52.131,classification_task,2021.2.3,Win32,59.51318217,5edd2e458f29cfa351de300d,626b377229c10585ec392f89,626b39c30e91b9e2ff69dfde,,,,,,,,,,,,,,,,,,,,,,,a,1,2.4435,"[""0.308"",""0.392"",""0.604"",""0.171""]","[1,1,1,0]",0,48,48,48,1,0,1,,,0,FALSE,,,,,,,,,,,,,,,,,,,,,,,,,,,,,,
,5edd2e458f29cfa351de300d,001,2022-04-28_20h05.52.131,classification_task,2021.2.3,Win32,59.51318217,5edd2e458f29cfa351de300d,626b377229c10585ec392f89,626b39c30e91b9e2ff69dfde,,,,,,,,,,,,,,,,,,,,,,,a,1,1.3696,"[""0.823"",""0.392"",""0.604"",""0.944""]","[0,1,1,1]",0,49,49,49,1,0,1,,,0,FALSE,,,,,,,,,,,,,,,,,,,,,,,,,,,,,,
,5edd2e458f29cfa351de300d,001,2022-04-28_20h05.52.131,classification_task,2021.2.3,Win32,59.51318217,5edd2e458f29cfa351de300d,626b377229c10585ec392f89,626b39c30e91b9e2ff69dfde,,,,,,,,,,,,,,,,,,,,,,,l,1,1.8592,"[""0.026"",""0.432"",""0.468"",""0.171""]","[1,1,1,0]",0,50,50,50,1,1,1,,,0,FALSE,,,,,,,,,,,,,,,,,,,,,,,,,,,,,,
,5edd2e458f29cfa351de300d,001,2022-04-28_20h05.52.131,classification_task,2021.2.3,Win32,59.51318217,5edd2e458f29cfa351de300d,626b377229c10585ec392f89,626b39c30e91b9e2ff69dfde,,,,,,,,,,,,,,,,,,,,,,,a,1,1.5129,"[""0.813"",""0.532"",""0.862"",""0.910""]","[0,1,1,1]",0,51,51,51,1,0,0,,,0,FALSE,,,,,,,,,,,,,,,,,,,,,,,,,,,,,,
,5edd2e458f29cfa351de300d,001,2022-04-28_20h05.52.131,classification_task,2021.2.3,Win32,59.51318217,5edd2e458f29cfa351de300d,626b377229c10585ec392f89,626b39c30e91b9e2ff69dfde,,,,,,,,,,,,,,,,,,,,,,,a,1,2.0388,"[""0.246"",""0.532"",""0.211"",""0.910""]","[1,1,0,1]",0,52,52,52,1,0,0,,,0,FALSE,,,,,,,,,,,,,,,,,,,,,,,,,,,,,,
,5edd2e458f29cfa351de300d,001,2022-04-28_20h05.52.131,classification_task,2021.2.3,Win32,59.51318217,5edd2e458f29cfa351de300d,626b377229c10585ec392f89,626b39c30e91b9e2ff69dfde,,,,,,,,,,,,,,,,,,,,,,,a,1,1.5104,"[""0.308"",""0.392"",""0.826"",""0.944""]","[1,1,0,1]",0,53,53,53,1,0,1,,,0,FALSE,,,,,,,,,,,,,,,,,,,,,,,,,,,,,,
,5edd2e458f29cfa351de300d,001,2022-04-28_20h05.52.131,classification_task,2021.2.3,Win32,59.51318217,5edd2e458f29cfa351de300d,626b377229c10585ec392f89,626b39c30e91b9e2ff69dfde,,,,,,,,,,,,,,,,,,,,,,,l,1,1.331,"[""0.026"",""0.813"",""0.468"",""0.711""]","[1,0,1,1]",0,54,54,54,1,1,1,,,0,FALSE,,,,,,,,,,,,,,,,,,,,,,,,,,,,,,
,5edd2e458f29cfa351de300d,001,2022-04-28_20h05.52.131,classification_task,2021.2.3,Win32,59.51318217,5edd2e458f29cfa351de300d,626b377229c10585ec392f89,626b39c30e91b9e2ff69dfde,,,,,,,,,,,,,,,,,,,,,,,l,1,1.0161,"[""0.097"",""0.196"",""0.659"",""0.777""]","[1,0,1,1]",0,55,55,55,1,1,0,,,0,FALSE,,,,,,,,,,,,,,,,,,,,,,,,,,,,,,
,5edd2e458f29cfa351de300d,001,2022-04-28_20h05.52.131,classification_task,2021.2.3,Win32,59.51318217,5edd2e458f29cfa351de300d,626b377229c10585ec392f89,626b39c30e91b9e2ff69dfde,,,,,,,,,,,,,,,,,,,,,,,l,1,2.996,"[""0.097"",""0.356"",""0.659"",""0.211""]","[1,1,1,0]",0,56,56,56,1,1,0,,,0,FALSE,,,,,,,,,,,,,,,,,,,,,,,,,,,,,,
,5edd2e458f29cfa351de300d,001,2022-04-28_20h05.52.131,classification_task,2021.2.3,Win32,59.51318217,5edd2e458f29cfa351de300d,626b377229c10585ec392f89,626b39c30e91b9e2ff69dfde,,,,,,,,,,,,,,,,,,,,,,,l,1,0.9227,"[""0.097"",""0.356"",""0.061"",""0.777""]","[1,1,0,1]",0,57,57,57,1,1,0,,,0,FALSE,,,,,,,,,,,,,,,,,,,,,,,,,,,,,,
,5edd2e458f29cfa351de300d,001,2022-04-28_20h05.52.131,classification_task,2021.2.3,Win32,59.51318217,5edd2e458f29cfa351de300d,626b377229c10585ec392f89,626b39c30e91b9e2ff69dfde,,,,,,,,,,,,,,,,,,,,,,,a,1,2.0899,"[""0.308"",""0.061"",""0.604"",""0.944""]","[1,0,1,1]",0,58,58,58,1,0,1,,,0,FALSE,,,,,,,,,,,,,,,,,,,,,,,,,,,,,,
,5edd2e458f29cfa351de300d,001,2022-04-28_20h05.52.131,classification_task,2021.2.3,Win32,59.51318217,5edd2e458f29cfa351de300d,626b377229c10585ec392f89,626b39c30e91b9e2ff69dfde,,,,,,,,,,,,,,,,,,,,,,,a,1,3.2417,"[""0.246"",""0.532"",""0.862"",""0.823""]","[1,1,1,0]",0,59,59,59,1,0,0,,,0,FALSE,,,,,,,,,,,,,,,,,,,,,,,,,,,,,,
,5edd2e458f29cfa351de300d,001,2022-04-28_20h05.52.131,classification_task,2021.2.3,Win32,59.51318217,5edd2e458f29cfa351de300d,626b377229c10585ec392f89,626b39c30e91b9e2ff69dfde,,,,,,,,,,,,,,,,,,,,,,,a,1,1.1149,"[""0.246"",""0.196"",""0.862"",""0.910""]","[1,0,1,1]",0,60,60,60,1,0,0,,,0,FALSE,,,,,,,,,,,,,,,,,,,,,,,,,,,,,,
,5edd2e458f29cfa351de300d,001,2022-04-28_20h05.52.131,classification_task,2021.2.3,Win32,59.51318217,5edd2e458f29cfa351de300d,626b377229c10585ec392f89,626b39c30e91b9e2ff69dfde,,,,,,,,,,,,,,,,,,,,,,,l,1,0.846,"[""0.196"",""0.356"",""0.659"",""0.777""]","[0,1,1,1]",0,61,61,61,1,1,0,,,0,FALSE,,,,,,,,,,,,,,,,,,,,,,,,,,,,,,
,5edd2e458f29cfa351de300d,001,2022-04-28_20h05.52.131,classification_task,2021.2.3,Win32,59.51318217,5edd2e458f29cfa351de300d,626b377229c10585ec392f89,626b39c30e91b9e2ff69dfde,,,,,,,,,,,,,,,,,,,,,,,l,1,0.9121,"[""0.174"",""0.432"",""0.468"",""0.711""]","[0,1,1,1]",0,62,62,62,1,1,1,,,0,FALSE,,,,,,,,,,,,,,,,,,,,,,,,,,,,,,
,5edd2e458f29cfa351de300d,001,2022-04-28_20h05.52.131,classification_task,2021.2.3,Win32,59.51318217,5edd2e458f29cfa351de300d,626b377229c10585ec392f89,626b39c30e91b9e2ff69dfde,,,,,,,,,,,,,,,,,,,,,,,l,1,1.4124,"[""0.026"",""0.432"",""0.146"",""0.711""]","[1,1,0,1]",0,63,63,63,1,1,1,,,0,FALSE,,,,,,,,,,,,,,,,,,,,,,,,,,,,,,
,5edd2e458f29cfa351de300d,001,2022-04-28_20h05.52.131,classification_task,2021.2.3,Win32,59.51318217,5edd2e458f29cfa351de300d,626b377229c10585ec392f89,626b39c30e91b9e2ff69dfde,,,,,,,,,,,,,,,,,,,,,,,,,,,,,,,,,,,,,,,0, ,,0,0,221.9637,0,2,2,2,1,2,3,,,,,,,,,,,,,,,,,
,5edd2e458f29cfa351de300d,001,2022-04-28_20h05.52.131,classification_task,2021.2.3,Win32,59.51318217,5edd2e458f29cfa351de300d,626b377229c10585ec392f89,626b39c30e91b9e2ff69dfde,,,,,,,,,,,,,,,,,,,,,,,,,,,,,,,,,,,,,,,1,  ,,0,5.985940017,224.1216,0,2,2,2,1,2,3,,,,,,,,,,,,,,,,,
,5edd2e458f29cfa351de300d,001,2022-04-28_20h05.52.131,classification_task,2021.2.3,Win32,59.51318217,5edd2e458f29cfa351de300d,626b377229c10585ec392f89,626b39c30e91b9e2ff69dfde,,,,,,,,,,,,,,,,,,,,,,,,,,,,,,,,,,,,,,,2,  ,,0,0,227.2202,0,2,2,2,1,2,3,,,,,,,,,,,,,,,,,
,5edd2e458f29cfa351de300d,001,2022-04-28_20h05.52.131,classification_task,2021.2.3,Win32,59.51318217,5edd2e458f29cfa351de300d,626b377229c10585ec392f89,626b39c30e91b9e2ff69dfde,,,,,,,,,,,,,,,,,,,,,,,,,,,,,,,,,,,,,,,,,,,,,0,2,2,2,1,,3,,,,,,,,,,,,,,,,,
,5edd2e458f29cfa351de300d,001,2022-04-28_20h05.52.131,classification_task,2021.2.3,Win32,59.51318217,5edd2e458f29cfa351de300d,626b377229c10585ec392f89,626b39c30e91b9e2ff69dfde,,,,,,,,,,,,,,,,,,,,,,,,,,,,,,,,,,,,,,,,,,,,,,,,,,,,,I believe the aid is a competent performer,,0.7,0,5,1084.2798,0,0,0,0,1,0,,,,
,5edd2e458f29cfa351de300d,001,2022-04-28_20h05.52.131,classification_task,2021.2.3,Win32,59.51318217,5edd2e458f29cfa351de300d,626b377229c10585ec392f89,626b39c30e91b9e2ff69dfde,,,,,,,,,,,,,,,,,,,,,,,,,,,,,,,,,,,,,,,,,,,,,,,,,,,,,I trust the aid,,0.7,0,5,1085.7318,0,0,0,0,1,0,,,,
,5edd2e458f29cfa351de300d,001,2022-04-28_20h05.52.131,classification_task,2021.2.3,Win32,59.51318217,5edd2e458f29cfa351de300d,626b377229c10585ec392f89,626b39c30e91b9e2ff69dfde,,,,,,,,,,,,,,,,,,,,,,,,,,,,,,,,,,,,,,,,,,,,,,,,,,,,,I have confidence in the advice given by the aid,,0.7,0,5,1087.672,0,0,0,0,1,0,,,,
,5edd2e458f29cfa351de300d,001,2022-04-28_20h05.52.131,classification_task,2021.2.3,Win32,59.51318217,5edd2e458f29cfa351de300d,626b377229c10585ec392f89,626b39c30e91b9e2ff69dfde,,,,,,,,,,,,,,,,,,,,,,,,,,,,,,,,,,,,,,,,,,,,,,,,,,,,,I can depend on the aid,,0.7,0,5,1089.428,0,0,0,0,1,0,,,,
,5edd2e458f29cfa351de300d,001,2022-04-28_20h05.52.131,classification_task,2021.2.3,Win32,59.51318217,5edd2e458f29cfa351de300d,626b377229c10585ec392f89,626b39c30e91b9e2ff69dfde,,,,,,,,,,,,,,,,,,,,,,,,,,,,,,,,,,,,,,,,,,,,,,,,,,,,,I can rely on the aid to behave in consistent ways,,0.7,0,5,1091.8774,0,0,0,0,1,0,,,,
,5edd2e458f29cfa351de300d,001,2022-04-28_20h05.52.131,classification_task,2021.2.3,Win32,59.51318217,5edd2e458f29cfa351de300d,626b377229c10585ec392f89,626b39c30e91b9e2ff69dfde,,,,,,,,,,,,,,,,,,,,,,,,,,,,,,,,,,,,,,,,,,,,,,,,,,,,,I can rely on the aid to do its best every time I take its advice,,0.7,0,5,1094.6079,0,0,0,0,1,0,,,,
,5edd2e458f29cfa351de300d,001,2022-04-28_20h05.52.131,classification_task,2021.2.3,Win32,59.51318217,5edd2e458f29cfa351de300d,626b377229c10585ec392f89,626b39c30e91b9e2ff69dfde,,,,,,,,,,,,,,,,,,,,,,,,,,,,,,,,,,,,,,,,,,,,,,,,,,,,,"On trials you completed with assistance from the aid, how frequently did you think the aid was correct?",,0.7,0,100%,,0,0,0,0,1,0,,,,
,5edd2e458f29cfa351de300d,001,2022-04-28_20h05.52.131,classification_task,2021.2.3,Win32,59.51318217,5edd2e458f29cfa351de300d,626b377229c10585ec392f89,626b39c30e91b9e2ff69dfde,,,,,,,,,,,,,,,,,,,,,,,,,,,,,,,,,,,,,,,,,,,,,,,,,,,,,"On trials you completed without the aid, how frequently did you think you were correct?",,0.7,0,100%,,0,0,0,0,1,0,,,,
,5edd2e458f29cfa351de300d,001,2022-04-28_20h05.52.131,classification_task,2021.2.3,Win32,59.51318217,5edd2e458f29cfa351de300d,626b377229c10585ec392f89,626b39c30e91b9e2ff69dfde,,,,,,,,,,,,,,,,,,,,,,,,,,,,,,,,,,,,,,,,,,,,,,,,,,,,,,,,,,,0,0,0,0,1,,,,,
,5edd2e458f29cfa351de300d,001,2022-04-28_20h05.52.131,classification_task,2021.2.3,Win32,59.51318217,5edd2e458f29cfa351de300d,626b377229c10585ec392f89,626b39c30e91b9e2ff69dfde,,,,,,,,,,,,,,,,,,,,,,,,,,,,,,,,,,,,,,,,,,,,,,,,,,,,,,,,,,,,,,,,,space,11.3848,1119.5345,
,5edd2e458f29cfa351de300d,001,2022-04-28_20h05.52.131,classification_task,2021.2.3,Win32,59.51318217,5edd2e458f29cfa351de300d,626b377229c10585ec392f89,626b39c30e91b9e2ff69dfde,,,,,,,,,,,,,,,,,,,,,,,,,,,,,,,,,,,,,,,,,,,,,,,,,,,,,,,,,,,,,,,,,,,,"Mozilla/5.0 (Windows NT 10.0; Win64; x64) AppleWebKit/537.36 (KHTML, like Gecko) Chrome/99.0.4844.84 Safari/537.36 OPR/85.0.4341.72"
