usingWebGL,participant,session,date,expName,psychopyVersion,OS,frameRate,study_id,signatures_friend,signatures_foe,band_ranges_top,band_ranges_bottom,formitemText,formtype,formundefined,formitemWidth,formindex,formresponse,formrt,key_resp_2.keys,key_resp_2.rt,tute_resp.keys,tute_resp.rt,tutorial.thisRepN,tutorial.thisTrialN,tutorial.thisN,tutorial.thisIndex,tutorial.ran,key_resp_4.keys,key_resp_4.rt,key_resp.keys,key_resp.corr,key_resp.rt,lines_presented,is_signal_presented,trials.thisRepN,trials.thisTrialN,trials.thisN,trials.thisIndex,trials.ran,vessel,active_band,lines,is_signal,supported_pos,catch_trial,debrief_formindex,debrief_formitemText,debrief_formtype,debrief_formitemWidth,debrief_formresponse,debrief_formrt,phases.thisRepN,phases.thisTrialN,phases.thisN,phases.thisIndex,phases.ran,phases.order,phase,key_resp_3.keys,trustitemText,trusttype,trustitemWidth,trustindex,trustresponse,trustrt,support_status.thisRepN,support_status.thisTrialN,support_status.thisN,support_status.thisIndex,support_status.ran,support_status.order,key_resp_5.keys,key_resp_5.rt,globalClockTime,userAgent,manualCondition
TRUE,5ee164fd75cba8192e80c528,627c678cd07deb2b328f6c83,2022-05-11_20h55.21.240,classification_task,2021.2.3,Win32,75.030012,627c6715c52fd12f31907bcf,,,,,,,,,,,,,,,,,,,,,,,,,,,,,,,,,,,,,,,,,,,,,,,,,,,,,,,,,,,,,,,,,,,,,
,5ee164fd75cba8192e80c528,627c678cd07deb2b328f6c83,2022-05-11_20h55.21.240,classification_task,2021.2.3,Win32,75.030012,627c6715c52fd12f31907bcf,"[[""0.238"",""0.459"",""0.855"",""0.934""],[""0.188"",""0.500"",""0.893"",""0.970""]]","[[""0.057"",""0.327"",""0.612"",""0.812""],[""0.139"",""0.416"",""0.534"",""0.704""]]","[1,10]","[100,1000]",Video game experience,,,0.7,0,,,,,,,,,,,,,,,,,,,,,,,,,,,,,,,,,,,,,,,,,,,,,,,,,,,,,,,,,,,,
,5ee164fd75cba8192e80c528,627c678cd07deb2b328f6c83,2022-05-11_20h55.21.240,classification_task,2021.2.3,Win32,75.030012,627c6715c52fd12f31907bcf,,,,,Approximately how many hours did you spend playing video games in the last week?,,,0.7,0,24,,,,,,,,,,,,,,,,,,,,,,,,,,,,,,,,,,,,,,,,,,,,,,,,,,,,,,,,,,,
,5ee164fd75cba8192e80c528,627c678cd07deb2b328f6c83,2022-05-11_20h55.21.240,classification_task,2021.2.3,Win32,75.030012,627c6715c52fd12f31907bcf,,,,,"Which game did you play the most this year? (Enter ""None"" if you didn't play any)",,,0.7,0,League of Legends,,,,,,,,,,,,,,,,,,,,,,,,,,,,,,,,,,,,,,,,,,,,,,,,,,,,,,,,,,,
,5ee164fd75cba8192e80c528,627c678cd07deb2b328f6c83,2022-05-11_20h55.21.240,classification_task,2021.2.3,Win32,75.030012,627c6715c52fd12f31907bcf,,,,,Visual perception,,,0.7,0,,,,,,,,,,,,,,,,,,,,,,,,,,,,,,,,,,,,,,,,,,,,,,,,,,,,,,,,,,,,
,5ee164fd75cba8192e80c528,627c678cd07deb2b328f6c83,2022-05-11_20h55.21.240,classification_task,2021.2.3,Win32,75.030012,627c6715c52fd12f31907bcf,,,,,Do you have any form of color blindness?,,,0.7,0,No,25.911,,,,,,,,,,,,,,,,,,,,,,,,,,,,,,,,,,,,,,,,,,,,,,,,,,,,,,,,,,
,5ee164fd75cba8192e80c528,627c678cd07deb2b328f6c83,2022-05-11_20h55.21.240,classification_task,2021.2.3,Win32,75.030012,627c6715c52fd12f31907bcf,,,,,Do you use software to change the colour temperature of your screen (e.g. f.lux)?,,,0.7,0,No,28.722,,,,,,,,,,,,,,,,,,,,,,,,,,,,,,,,,,,,,,,,,,,,,,,,,,,,,,,,,,
,5ee164fd75cba8192e80c528,627c678cd07deb2b328f6c83,2022-05-11_20h55.21.240,classification_task,2021.2.3,Win32,75.030012,627c6715c52fd12f31907bcf,,,,,,,,,,,,space,36.35,space,11.1414,0,0,0,0,1,,,,,,,,,,,,,,,,,,,,,,,,,,,,,,,,,,,,,,,,,,,,,,,,,
,5ee164fd75cba8192e80c528,627c678cd07deb2b328f6c83,2022-05-11_20h55.21.240,classification_task,2021.2.3,Win32,75.030012,627c6715c52fd12f31907bcf,,,,,,,,,,,,,,space,10.109,1,0,1,0,1,,,,,,,,,,,,,,,,,,,,,,,,,,,,,,,,,,,,,,,,,,,,,,,,,
,5ee164fd75cba8192e80c528,627c678cd07deb2b328f6c83,2022-05-11_20h55.21.240,classification_task,2021.2.3,Win32,75.030012,627c6715c52fd12f31907bcf,,,,,,,,,,,,,,space,60.0087,2,0,2,0,1,,,,,,,,,,,,,,,,,,,,,,,,,,,,,,,,,,,,,,,,,,,,,,,,,
,5ee164fd75cba8192e80c528,627c678cd07deb2b328f6c83,2022-05-11_20h55.21.240,classification_task,2021.2.3,Win32,75.030012,627c6715c52fd12f31907bcf,,,,,,,,,,,,,,space,13.2824,3,0,3,0,1,,,,,,,,,,,,,,,,,,,,,,,,,,,,,,,,,,,,,,,,,,,,,,,,,
,5ee164fd75cba8192e80c528,627c678cd07deb2b328f6c83,2022-05-11_20h55.21.240,classification_task,2021.2.3,Win32,75.030012,627c6715c52fd12f31907bcf,,,,,,,,,,,,,,space,13.9493,4,0,4,0,1,,,,,,,,,,,,,,,,,,,,,,,,,,,,,,,,,,,,,,,,,,,,,,,,,
,5ee164fd75cba8192e80c528,627c678cd07deb2b328f6c83,2022-05-11_20h55.21.240,classification_task,2021.2.3,Win32,75.030012,627c6715c52fd12f31907bcf,,,,,,,,,,,,,,,,,,,,,space,500.3455,a,0,6.4044,"[""0.743"",""0.327"",""0.612"",""0.812""]","[0,1,1,1]",0,0,0,0,1,1,0,,,1,FALSE,,,,,,,,,,,,,,,,,,,,,,,,,,,,,,,
,5ee164fd75cba8192e80c528,627c678cd07deb2b328f6c83,2022-05-11_20h55.21.240,classification_task,2021.2.3,Win32,75.030012,627c6715c52fd12f31907bcf,,,,,,,,,,,,,,,,,,,,,,,,0,,"[""0.057"",""0.327"",""0.750"",""0.812""]","[1,1,0,1]",0,1,1,1,1,1,0,,,1,FALSE,,,,,,,,,,,,,,,,,,,,,,,,,,,,,,,
,5ee164fd75cba8192e80c528,627c678cd07deb2b328f6c83,2022-05-11_20h55.21.240,classification_task,2021.2.3,Win32,75.030012,627c6715c52fd12f31907bcf,,,,,,,,,,,,,,,,,,,,,,,a,0,7.2749,"[""0.139"",""0.105"",""0.534"",""0.704""]","[1,0,1,1]",0,2,2,2,1,1,1,,,1,FALSE,,,,,,,,,,,,,,,,,,,,,,,,,,,,,,,
,5ee164fd75cba8192e80c528,627c678cd07deb2b328f6c83,2022-05-11_20h55.21.240,classification_task,2021.2.3,Win32,75.030012,627c6715c52fd12f31907bcf,,,,,,,,,,,,,,,,,,,,,,,l,1,4.9101,"[""0.057"",""0.327"",""0.612"",""0.371""]","[1,1,1,0]",0,3,3,3,1,1,0,,,1,FALSE,,,,,,,,,,,,,,,,,,,,,,,,,,,,,,,
,5ee164fd75cba8192e80c528,627c678cd07deb2b328f6c83,2022-05-11_20h55.21.240,classification_task,2021.2.3,Win32,75.030012,627c6715c52fd12f31907bcf,,,,,,,,,,,,,,,,,,,,,,,a,1,6.4829,"[""0.238"",""0.459"",""0.098"",""0.934""]","[1,1,0,1]",0,4,4,4,1,0,0,,,1,FALSE,,,,,,,,,,,,,,,,,,,,,,,,,,,,,,,
,5ee164fd75cba8192e80c528,627c678cd07deb2b328f6c83,2022-05-11_20h55.21.240,classification_task,2021.2.3,Win32,75.030012,627c6715c52fd12f31907bcf,,,,,,,,,,,,,,,,,,,,,,,l,1,6.0475,"[""0.773"",""0.416"",""0.534"",""0.704""]","[0,1,1,1]",0,5,5,5,1,1,1,,,1,FALSE,,,,,,,,,,,,,,,,,,,,,,,,,,,,,,,
,5ee164fd75cba8192e80c528,627c678cd07deb2b328f6c83,2022-05-11_20h55.21.240,classification_task,2021.2.3,Win32,75.030012,627c6715c52fd12f31907bcf,,,,,,,,,,,,,,,,,,,,,,,l,0,5.3373,"[""0.238"",""0.459"",""0.855"",""0.743""]","[1,1,1,0]",0,6,6,6,1,0,0,,,1,FALSE,,,,,,,,,,,,,,,,,,,,,,,,,,,,,,,
,5ee164fd75cba8192e80c528,627c678cd07deb2b328f6c83,2022-05-11_20h55.21.240,classification_task,2021.2.3,Win32,75.030012,627c6715c52fd12f31907bcf,,,,,,,,,,,,,,,,,,,,,,,a,0,8.2462,"[""0.139"",""0.416"",""0.367"",""0.704""]","[1,1,0,1]",0,7,7,7,1,1,1,,,1,FALSE,,,,,,,,,,,,,,,,,,,,,,,,,,,,,,,
,5ee164fd75cba8192e80c528,627c678cd07deb2b328f6c83,2022-05-11_20h55.21.240,classification_task,2021.2.3,Win32,75.030012,627c6715c52fd12f31907bcf,,,,,,,,,,,,,,,,,,,,,,,l,0,4.9787,"[""0.188"",""0.500"",""0.893"",""0.759""]","[1,1,1,0]",0,8,8,8,1,0,1,,,1,FALSE,,,,,,,,,,,,,,,,,,,,,,,,,,,,,,,
,5ee164fd75cba8192e80c528,627c678cd07deb2b328f6c83,2022-05-11_20h55.21.240,classification_task,2021.2.3,Win32,75.030012,627c6715c52fd12f31907bcf,,,,,,,,,,,,,,,,,,,,,,,a,0,6.9984,"[""0.057"",""0.367"",""0.612"",""0.812""]","[1,0,1,1]",0,9,9,9,1,1,0,,,1,FALSE,,,,,,,,,,,,,,,,,,,,,,,,,,,,,,,
,5ee164fd75cba8192e80c528,627c678cd07deb2b328f6c83,2022-05-11_20h55.21.240,classification_task,2021.2.3,Win32,75.030012,627c6715c52fd12f31907bcf,,,,,,,,,,,,,,,,,,,,,,,l,0,8.9655,"[""0.188"",""0.743"",""0.893"",""0.970""]","[1,0,1,1]",0,10,10,10,1,0,1,,,1,FALSE,,,,,,,,,,,,,,,,,,,,,,,,,,,,,,,
,5ee164fd75cba8192e80c528,627c678cd07deb2b328f6c83,2022-05-11_20h55.21.240,classification_task,2021.2.3,Win32,75.030012,627c6715c52fd12f31907bcf,,,,,,,,,,,,,,,,,,,,,,,l,0,8.4021,"[""0.238"",""0.773"",""0.855"",""0.934""]","[1,0,1,1]",0,11,11,11,1,0,0,,,1,FALSE,,,,,,,,,,,,,,,,,,,,,,,,,,,,,,,
,5ee164fd75cba8192e80c528,627c678cd07deb2b328f6c83,2022-05-11_20h55.21.240,classification_task,2021.2.3,Win32,75.030012,627c6715c52fd12f31907bcf,,,,,,,,,,,,,,,,,,,,,,,a,0,5.255,"[""0.139"",""0.416"",""0.534"",""0.743""]","[1,1,1,0]",0,12,12,12,1,1,1,,,1,FALSE,,,,,,,,,,,,,,,,,,,,,,,,,,,,,,,
,5ee164fd75cba8192e80c528,627c678cd07deb2b328f6c83,2022-05-11_20h55.21.240,classification_task,2021.2.3,Win32,75.030012,627c6715c52fd12f31907bcf,,,,,,,,,,,,,,,,,,,,,,,a,1,5.1768,"[""0.577"",""0.459"",""0.855"",""0.934""]","[0,1,1,1]",0,13,13,13,1,0,0,,,1,FALSE,,,,,,,,,,,,,,,,,,,,,,,,,,,,,,,
,5ee164fd75cba8192e80c528,627c678cd07deb2b328f6c83,2022-05-11_20h55.21.240,classification_task,2021.2.3,Win32,75.030012,627c6715c52fd12f31907bcf,,,,,,,,,,,,,,,,,,,,,,,a,1,7.0738,"[""0.188"",""0.500"",""0.277"",""0.970""]","[1,1,0,1]",0,14,14,14,1,0,1,,,1,FALSE,,,,,,,,,,,,,,,,,,,,,,,,,,,,,,,
,5ee164fd75cba8192e80c528,627c678cd07deb2b328f6c83,2022-05-11_20h55.21.240,classification_task,2021.2.3,Win32,75.030012,627c6715c52fd12f31907bcf,,,,,,,,,,,,,,,,,,,,,,,a,1,2.7517,"[""0.750"",""0.500"",""0.893"",""0.970""]","[0,1,1,1]",0,15,15,15,1,0,1,,,1,FALSE,,,,,,,,,,,,,,,,,,,,,,,,,,,,,,,
,5ee164fd75cba8192e80c528,627c678cd07deb2b328f6c83,2022-05-11_20h55.21.240,classification_task,2021.2.3,Win32,75.030012,627c6715c52fd12f31907bcf,,,,,,,,,,,,,,,,,,,,,,,a,0,2.5098,"[""0.057"",""0.577"",""0.612"",""0.812""]","[1,0,1,1]",0,16,16,16,1,1,0,,,1,FALSE,,,,,,,,,,,,,,,,,,,,,,,,,,,,,,,
,5ee164fd75cba8192e80c528,627c678cd07deb2b328f6c83,2022-05-11_20h55.21.240,classification_task,2021.2.3,Win32,75.030012,627c6715c52fd12f31907bcf,,,,,,,,,,,,,,,,,,,,,,,l,1,7.3772,"[""0.057"",""0.327"",""0.773"",""0.812""]","[1,1,0,1]",0,17,17,17,1,1,0,,,1,FALSE,,,,,,,,,,,,,,,,,,,,,,,,,,,,,,,
,5ee164fd75cba8192e80c528,627c678cd07deb2b328f6c83,2022-05-11_20h55.21.240,classification_task,2021.2.3,Win32,75.030012,627c6715c52fd12f31907bcf,,,,,,,,,,,,,,,,,,,,,,,a,1,6.6077,"[""0.577"",""0.500"",""0.893"",""0.970""]","[0,1,1,1]",0,18,18,18,1,0,1,,,1,FALSE,,,,,,,,,,,,,,,,,,,,,,,,,,,,,,,
,5ee164fd75cba8192e80c528,627c678cd07deb2b328f6c83,2022-05-11_20h55.21.240,classification_task,2021.2.3,Win32,75.030012,627c6715c52fd12f31907bcf,,,,,,,,,,,,,,,,,,,,,,,l,0,7.2908,"[""0.188"",""0.750"",""0.893"",""0.970""]","[1,0,1,1]",0,19,19,19,1,0,1,,,1,FALSE,,,,,,,,,,,,,,,,,,,,,,,,,,,,,,,
,5ee164fd75cba8192e80c528,627c678cd07deb2b328f6c83,2022-05-11_20h55.21.240,classification_task,2021.2.3,Win32,75.030012,627c6715c52fd12f31907bcf,,,,,,,,,,,,,,,,,,,,,,,l,1,6.4057,"[""0.139"",""0.416"",""0.743"",""0.704""]","[1,1,0,1]",0,20,20,20,1,1,1,,,1,FALSE,,,,,,,,,,,,,,,,,,,,,,,,,,,,,,,
,5ee164fd75cba8192e80c528,627c678cd07deb2b328f6c83,2022-05-11_20h55.21.240,classification_task,2021.2.3,Win32,75.030012,627c6715c52fd12f31907bcf,,,,,,,,,,,,,,,,,,,,,,,a,1,6.6728,"[""0.238"",""0.371"",""0.855"",""0.934""]","[1,0,1,1]",0,21,21,21,1,0,0,,,1,FALSE,,,,,,,,,,,,,,,,,,,,,,,,,,,,,,,
,5ee164fd75cba8192e80c528,627c678cd07deb2b328f6c83,2022-05-11_20h55.21.240,classification_task,2021.2.3,Win32,75.030012,627c6715c52fd12f31907bcf,,,,,,,,,,,,,,,,,,,,,,,a,1,6.8185,"[""0.188"",""0.500"",""0.893"",""0.277""]","[1,1,1,0]",0,22,22,22,1,0,1,,,1,FALSE,,,,,,,,,,,,,,,,,,,,,,,,,,,,,,,
,5ee164fd75cba8192e80c528,627c678cd07deb2b328f6c83,2022-05-11_20h55.21.240,classification_task,2021.2.3,Win32,75.030012,627c6715c52fd12f31907bcf,,,,,,,,,,,,,,,,,,,,,,,a,1,3.7107,"[""0.238"",""0.459"",""0.855"",""0.577""]","[1,1,1,0]",0,23,23,23,1,0,0,,,1,FALSE,,,,,,,,,,,,,,,,,,,,,,,,,,,,,,,
,5ee164fd75cba8192e80c528,627c678cd07deb2b328f6c83,2022-05-11_20h55.21.240,classification_task,2021.2.3,Win32,75.030012,627c6715c52fd12f31907bcf,,,,,,,,,,,,,,,,,,,,,,,l,1,6.431,"[""0.139"",""0.416"",""0.534"",""0.379""]","[1,1,1,0]",0,24,24,24,1,1,1,,,1,FALSE,,,,,,,,,,,,,,,,,,,,,,,,,,,,,,,
,5ee164fd75cba8192e80c528,627c678cd07deb2b328f6c83,2022-05-11_20h55.21.240,classification_task,2021.2.3,Win32,75.030012,627c6715c52fd12f31907bcf,,,,,,,,,,,,,,,,,,,,,,,a,1,6.8375,"[""0.098"",""0.459"",""0.855"",""0.934""]","[0,1,1,1]",0,25,25,25,1,0,0,,,1,FALSE,,,,,,,,,,,,,,,,,,,,,,,,,,,,,,,
,5ee164fd75cba8192e80c528,627c678cd07deb2b328f6c83,2022-05-11_20h55.21.240,classification_task,2021.2.3,Win32,75.030012,627c6715c52fd12f31907bcf,,,,,,,,,,,,,,,,,,,,,,,l,1,4.9391,"[""0.098"",""0.327"",""0.612"",""0.812""]","[0,1,1,1]",0,26,26,26,1,1,0,,,1,FALSE,,,,,,,,,,,,,,,,,,,,,,,,,,,,,,,
,5ee164fd75cba8192e80c528,627c678cd07deb2b328f6c83,2022-05-11_20h55.21.240,classification_task,2021.2.3,Win32,75.030012,627c6715c52fd12f31907bcf,,,,,,,,,,,,,,,,,,,,,,,a,1,7.7313,"[""0.238"",""0.459"",""0.105"",""0.934""]","[1,1,0,1]",0,27,27,27,1,0,0,,,1,FALSE,,,,,,,,,,,,,,,,,,,,,,,,,,,,,,,
,5ee164fd75cba8192e80c528,627c678cd07deb2b328f6c83,2022-05-11_20h55.21.240,classification_task,2021.2.3,Win32,75.030012,627c6715c52fd12f31907bcf,,,,,,,,,,,,,,,,,,,,,,,l,1,8.0837,"[""0.649"",""0.416"",""0.534"",""0.704""]","[0,1,1,1]",0,28,28,28,1,1,1,,,1,FALSE,,,,,,,,,,,,,,,,,,,,,,,,,,,,,,,
,5ee164fd75cba8192e80c528,627c678cd07deb2b328f6c83,2022-05-11_20h55.21.240,classification_task,2021.2.3,Win32,75.030012,627c6715c52fd12f31907bcf,,,,,,,,,,,,,,,,,,,,,,,l,1,7.937,"[""0.057"",""0.327"",""0.612"",""0.649""]","[1,1,1,0]",0,29,29,29,1,1,0,,,1,FALSE,,,,,,,,,,,,,,,,,,,,,,,,,,,,,,,
,5ee164fd75cba8192e80c528,627c678cd07deb2b328f6c83,2022-05-11_20h55.21.240,classification_task,2021.2.3,Win32,75.030012,627c6715c52fd12f31907bcf,,,,,,,,,,,,,,,,,,,,,,,,0,,"[""0.188"",""0.500"",""0.657"",""0.970""]","[1,1,0,1]",0,30,30,30,1,0,1,,,1,FALSE,,,,,,,,,,,,,,,,,,,,,,,,,,,,,,,
,5ee164fd75cba8192e80c528,627c678cd07deb2b328f6c83,2022-05-11_20h55.21.240,classification_task,2021.2.3,Win32,75.030012,627c6715c52fd12f31907bcf,,,,,,,,,,,,,,,,,,,,,,,l,1,2.3386,"[""0.139"",""0.371"",""0.534"",""0.704""]","[1,0,1,1]",0,31,31,31,1,1,1,,,1,FALSE,,,,,,,,,,,,,,,,,,,,,,,,,,,,,,,
,5ee164fd75cba8192e80c528,627c678cd07deb2b328f6c83,2022-05-11_20h55.21.240,classification_task,2021.2.3,Win32,75.030012,627c6715c52fd12f31907bcf,,,,,,,,,,,,,,,,,,,,,,,l,1,6.3559,"[""0.139"",""0.773"",""0.534"",""0.704""]","[1,0,1,1]",0,32,32,32,1,1,1,,,1,FALSE,,,,,,,,,,,,,,,,,,,,,,,,,,,,,,,
,5ee164fd75cba8192e80c528,627c678cd07deb2b328f6c83,2022-05-11_20h55.21.240,classification_task,2021.2.3,Win32,75.030012,627c6715c52fd12f31907bcf,,,,,,,,,,,,,,,,,,,,,,,a,0,4.0156,"[""0.371"",""0.416"",""0.534"",""0.704""]","[0,1,1,1]",0,33,33,33,1,1,1,,,1,FALSE,,,,,,,,,,,,,,,,,,,,,,,,,,,,,,,
,5ee164fd75cba8192e80c528,627c678cd07deb2b328f6c83,2022-05-11_20h55.21.240,classification_task,2021.2.3,Win32,75.030012,627c6715c52fd12f31907bcf,,,,,,,,,,,,,,,,,,,,,,,a,0,5.4198,"[""0.057"",""0.379"",""0.612"",""0.812""]","[1,0,1,1]",0,34,34,34,1,1,0,,,1,FALSE,,,,,,,,,,,,,,,,,,,,,,,,,,,,,,,
,5ee164fd75cba8192e80c528,627c678cd07deb2b328f6c83,2022-05-11_20h55.21.240,classification_task,2021.2.3,Win32,75.030012,627c6715c52fd12f31907bcf,,,,,,,,,,,,,,,,,,,,,,,l,1,1.1111,"[""0.057"",""0.327"",""0.612"",""0.762""]","[1,1,1,0]",0,35,35,35,1,1,0,,,1,FALSE,,,,,,,,,,,,,,,,,,,,,,,,,,,,,,,
,5ee164fd75cba8192e80c528,627c678cd07deb2b328f6c83,2022-05-11_20h55.21.240,classification_task,2021.2.3,Win32,75.030012,627c6715c52fd12f31907bcf,,,,,,,,,,,,,,,,,,,,,,,a,0,2.7079,"[""0.759"",""0.327"",""0.612"",""0.812""]","[0,1,1,1]",0,36,36,36,1,1,0,,,1,FALSE,,,,,,,,,,,,,,,,,,,,,,,,,,,,,,,
,5ee164fd75cba8192e80c528,627c678cd07deb2b328f6c83,2022-05-11_20h55.21.240,classification_task,2021.2.3,Win32,75.030012,627c6715c52fd12f31907bcf,,,,,,,,,,,,,,,,,,,,,,,a,1,2.4449,"[""0.657"",""0.459"",""0.855"",""0.934""]","[0,1,1,1]",0,37,37,37,1,0,0,,,1,FALSE,,,,,,,,,,,,,,,,,,,,,,,,,,,,,,,
,5ee164fd75cba8192e80c528,627c678cd07deb2b328f6c83,2022-05-11_20h55.21.240,classification_task,2021.2.3,Win32,75.030012,627c6715c52fd12f31907bcf,,,,,,,,,,,,,,,,,,,,,,,a,1,7.0434,"[""0.188"",""0.500"",""0.893"",""0.105""]","[1,1,1,0]",0,38,38,38,1,0,1,,,1,FALSE,,,,,,,,,,,,,,,,,,,,,,,,,,,,,,,
,5ee164fd75cba8192e80c528,627c678cd07deb2b328f6c83,2022-05-11_20h55.21.240,classification_task,2021.2.3,Win32,75.030012,627c6715c52fd12f31907bcf,,,,,,,,,,,,,,,,,,,,,,,a,0,5.8197,"[""0.139"",""0.416"",""0.577"",""0.704""]","[1,1,0,1]",0,39,39,39,1,1,1,,,1,FALSE,,,,,,,,,,,,,,,,,,,,,,,,,,,,,,,
,5ee164fd75cba8192e80c528,627c678cd07deb2b328f6c83,2022-05-11_20h55.21.240,classification_task,2021.2.3,Win32,75.030012,627c6715c52fd12f31907bcf,,,,,,,,,,,,,,,,,,,,,,,l,1,2.6316,"[""0.057"",""0.327"",""0.379"",""0.812""]","[1,1,0,1]",0,40,40,40,1,1,0,,,1,FALSE,,,,,,,,,,,,,,,,,,,,,,,,,,,,,,,
,5ee164fd75cba8192e80c528,627c678cd07deb2b328f6c83,2022-05-11_20h55.21.240,classification_task,2021.2.3,Win32,75.030012,627c6715c52fd12f31907bcf,,,,,,,,,,,,,,,,,,,,,,,a,1,5.1393,"[""0.743"",""0.500"",""0.893"",""0.970""]","[0,1,1,1]",0,41,41,41,1,0,1,,,1,FALSE,,,,,,,,,,,,,,,,,,,,,,,,,,,,,,,
,5ee164fd75cba8192e80c528,627c678cd07deb2b328f6c83,2022-05-11_20h55.21.240,classification_task,2021.2.3,Win32,75.030012,627c6715c52fd12f31907bcf,,,,,,,,,,,,,,,,,,,,,,,a,1,4.5,"[""0.238"",""0.459"",""0.855"",""0.098""]","[1,1,1,0]",0,42,42,42,1,0,0,,,1,FALSE,,,,,,,,,,,,,,,,,,,,,,,,,,,,,,,
,5ee164fd75cba8192e80c528,627c678cd07deb2b328f6c83,2022-05-11_20h55.21.240,classification_task,2021.2.3,Win32,75.030012,627c6715c52fd12f31907bcf,,,,,,,,,,,,,,,,,,,,,,,l,0,2.7134,"[""0.238"",""0.577"",""0.855"",""0.934""]","[1,0,1,1]",0,43,43,43,1,0,0,,,1,FALSE,,,,,,,,,,,,,,,,,,,,,,,,,,,,,,,
,5ee164fd75cba8192e80c528,627c678cd07deb2b328f6c83,2022-05-11_20h55.21.240,classification_task,2021.2.3,Win32,75.030012,627c6715c52fd12f31907bcf,,,,,,,,,,,,,,,,,,,,,,,l,0,4.3526,"[""0.188"",""0.743"",""0.893"",""0.970""]","[1,0,1,1]",0,44,44,44,1,0,1,,,1,FALSE,,,,,,,,,,,,,,,,,,,,,,,,,,,,,,,
,5ee164fd75cba8192e80c528,627c678cd07deb2b328f6c83,2022-05-11_20h55.21.240,classification_task,2021.2.3,Win32,75.030012,627c6715c52fd12f31907bcf,,,,,,,,,,,,,,,,,,,,,,,a,1,1.3124,"[""0.188"",""0.500"",""0.367"",""0.970""]","[1,1,0,1]",0,45,45,45,1,0,1,,,1,FALSE,,,,,,,,,,,,,,,,,,,,,,,,,,,,,,,
,5ee164fd75cba8192e80c528,627c678cd07deb2b328f6c83,2022-05-11_20h55.21.240,classification_task,2021.2.3,Win32,75.030012,627c6715c52fd12f31907bcf,,,,,,,,,,,,,,,,,,,,,,,a,0,3.3746,"[""0.139"",""0.416"",""0.534"",""0.773""]","[1,1,1,0]",0,46,46,46,1,1,1,,,1,FALSE,,,,,,,,,,,,,,,,,,,,,,,,,,,,,,,
,5ee164fd75cba8192e80c528,627c678cd07deb2b328f6c83,2022-05-11_20h55.21.240,classification_task,2021.2.3,Win32,75.030012,627c6715c52fd12f31907bcf,,,,,,,,,,,,,,,,,,,,,,,l,0,5.4194,"[""0.238"",""0.459"",""0.759"",""0.934""]","[1,1,0,1]",0,47,47,47,1,0,0,,,1,FALSE,,,,,,,,,,,,,,,,,,,,,,,,,,,,,,,
,5ee164fd75cba8192e80c528,627c678cd07deb2b328f6c83,2022-05-11_20h55.21.240,classification_task,2021.2.3,Win32,75.030012,627c6715c52fd12f31907bcf,,,,,,,,,,,,,,,,,,,,,,,a,0,2.2055,"[""0.367"",""0.327"",""0.612"",""0.812""]","[0,1,1,1]",0,48,48,48,1,1,0,,,1,FALSE,,,,,,,,,,,,,,,,,,,,,,,,,,,,,,,
,5ee164fd75cba8192e80c528,627c678cd07deb2b328f6c83,2022-05-11_20h55.21.240,classification_task,2021.2.3,Win32,75.030012,627c6715c52fd12f31907bcf,,,,,,,,,,,,,,,,,,,,,,,a,0,1.0985,"[""0.057"",""0.577"",""0.612"",""0.812""]","[1,0,1,1]",0,49,49,49,1,1,0,,,1,FALSE,,,,,,,,,,,,,,,,,,,,,,,,,,,,,,,
,5ee164fd75cba8192e80c528,627c678cd07deb2b328f6c83,2022-05-11_20h55.21.240,classification_task,2021.2.3,Win32,75.030012,627c6715c52fd12f31907bcf,,,,,,,,,,,,,,,,,,,,,,,l,1,1.5875,"[""0.057"",""0.327"",""0.612"",""0.379""]","[1,1,1,0]",0,50,50,50,1,1,0,,,1,FALSE,,,,,,,,,,,,,,,,,,,,,,,,,,,,,,,
,5ee164fd75cba8192e80c528,627c678cd07deb2b328f6c83,2022-05-11_20h55.21.240,classification_task,2021.2.3,Win32,75.030012,627c6715c52fd12f31907bcf,,,,,,,,,,,,,,,,,,,,,,,l,1,3.4015,"[""0.773"",""0.416"",""0.534"",""0.704""]","[0,1,1,1]",0,51,51,51,1,1,1,,,1,FALSE,,,,,,,,,,,,,,,,,,,,,,,,,,,,,,,
,5ee164fd75cba8192e80c528,627c678cd07deb2b328f6c83,2022-05-11_20h55.21.240,classification_task,2021.2.3,Win32,75.030012,627c6715c52fd12f31907bcf,,,,,,,,,,,,,,,,,,,,,,,a,1,1.2493,"[""0.188"",""0.500"",""0.743"",""0.970""]","[1,1,0,1]",0,52,52,52,1,0,1,,,1,FALSE,,,,,,,,,,,,,,,,,,,,,,,,,,,,,,,
,5ee164fd75cba8192e80c528,627c678cd07deb2b328f6c83,2022-05-11_20h55.21.240,classification_task,2021.2.3,Win32,75.030012,627c6715c52fd12f31907bcf,,,,,,,,,,,,,,,,,,,,,,,a,1,5.3097,"[""0.238"",""0.459"",""0.277"",""0.934""]","[1,1,0,1]",0,53,53,53,1,0,0,,,1,FALSE,,,,,,,,,,,,,,,,,,,,,,,,,,,,,,,
,5ee164fd75cba8192e80c528,627c678cd07deb2b328f6c83,2022-05-11_20h55.21.240,classification_task,2021.2.3,Win32,75.030012,627c6715c52fd12f31907bcf,,,,,,,,,,,,,,,,,,,,,,,a,1,2.7154,"[""0.188"",""0.500"",""0.893"",""0.743""]","[1,1,1,0]",0,54,54,54,1,0,1,,,1,FALSE,,,,,,,,,,,,,,,,,,,,,,,,,,,,,,,
,5ee164fd75cba8192e80c528,627c678cd07deb2b328f6c83,2022-05-11_20h55.21.240,classification_task,2021.2.3,Win32,75.030012,627c6715c52fd12f31907bcf,,,,,,,,,,,,,,,,,,,,,,,l,0,1.3388,"[""0.238"",""0.649"",""0.855"",""0.934""]","[1,0,1,1]",0,55,55,55,1,0,0,,,1,FALSE,,,,,,,,,,,,,,,,,,,,,,,,,,,,,,,
,5ee164fd75cba8192e80c528,627c678cd07deb2b328f6c83,2022-05-11_20h55.21.240,classification_task,2021.2.3,Win32,75.030012,627c6715c52fd12f31907bcf,,,,,,,,,,,,,,,,,,,,,,,l,0,0.9245,"[""0.371"",""0.459"",""0.855"",""0.934""]","[0,1,1,1]",0,56,56,56,1,0,0,,,1,FALSE,,,,,,,,,,,,,,,,,,,,,,,,,,,,,,,
,5ee164fd75cba8192e80c528,627c678cd07deb2b328f6c83,2022-05-11_20h55.21.240,classification_task,2021.2.3,Win32,75.030012,627c6715c52fd12f31907bcf,,,,,,,,,,,,,,,,,,,,,,,a,1,1.0141,"[""0.188"",""0.750"",""0.893"",""0.970""]","[1,0,1,1]",0,57,57,57,1,0,1,,,1,FALSE,,,,,,,,,,,,,,,,,,,,,,,,,,,,,,,
,5ee164fd75cba8192e80c528,627c678cd07deb2b328f6c83,2022-05-11_20h55.21.240,classification_task,2021.2.3,Win32,75.030012,627c6715c52fd12f31907bcf,,,,,,,,,,,,,,,,,,,,,,,a,0,0.7207,"[""0.057"",""0.327"",""0.759"",""0.812""]","[1,1,0,1]",0,58,58,58,1,1,0,,,1,FALSE,,,,,,,,,,,,,,,,,,,,,,,,,,,,,,,
,5ee164fd75cba8192e80c528,627c678cd07deb2b328f6c83,2022-05-11_20h55.21.240,classification_task,2021.2.3,Win32,75.030012,627c6715c52fd12f31907bcf,,,,,,,,,,,,,,,,,,,,,,,l,1,0.8408,"[""0.139"",""0.416"",""0.371"",""0.704""]","[1,1,0,1]",0,59,59,59,1,1,1,,,1,FALSE,,,,,,,,,,,,,,,,,,,,,,,,,,,,,,,
,5ee164fd75cba8192e80c528,627c678cd07deb2b328f6c83,2022-05-11_20h55.21.240,classification_task,2021.2.3,Win32,75.030012,627c6715c52fd12f31907bcf,,,,,,,,,,,,,,,,,,,,,,,l,0,0.7747,"[""0.577"",""0.500"",""0.893"",""0.970""]","[0,1,1,1]",0,60,60,60,1,0,1,,,1,FALSE,,,,,,,,,,,,,,,,,,,,,,,,,,,,,,,
,5ee164fd75cba8192e80c528,627c678cd07deb2b328f6c83,2022-05-11_20h55.21.240,classification_task,2021.2.3,Win32,75.030012,627c6715c52fd12f31907bcf,,,,,,,,,,,,,,,,,,,,,,,l,1,2.0278,"[""0.139"",""0.416"",""0.534"",""0.649""]","[1,1,1,0]",0,61,61,61,1,1,1,,,1,FALSE,,,,,,,,,,,,,,,,,,,,,,,,,,,,,,,
,5ee164fd75cba8192e80c528,627c678cd07deb2b328f6c83,2022-05-11_20h55.21.240,classification_task,2021.2.3,Win32,75.030012,627c6715c52fd12f31907bcf,,,,,,,,,,,,,,,,,,,,,,,a,0,1.2417,"[""0.139"",""0.098"",""0.534"",""0.704""]","[1,0,1,1]",0,62,62,62,1,1,1,,,1,FALSE,,,,,,,,,,,,,,,,,,,,,,,,,,,,,,,
,5ee164fd75cba8192e80c528,627c678cd07deb2b328f6c83,2022-05-11_20h55.21.240,classification_task,2021.2.3,Win32,75.030012,627c6715c52fd12f31907bcf,,,,,,,,,,,,,,,,,,,,,,,l,0,2.4411,"[""0.238"",""0.459"",""0.855"",""0.657""]","[1,1,1,0]",0,63,63,63,1,0,0,,,1,FALSE,,,,,,,,,,,,,,,,,,,,,,,,,,,,,,,
,5ee164fd75cba8192e80c528,627c678cd07deb2b328f6c83,2022-05-11_20h55.21.240,classification_task,2021.2.3,Win32,75.030012,627c6715c52fd12f31907bcf,,,,,,,,,,,,,,,,,,,,,,,,,,,,,,,,,,,,,,,0, ,,0,4.808890418,1072.4946,0,0,0,0,1,2,1,,,,,,,,,,,,,,,,,,
,5ee164fd75cba8192e80c528,627c678cd07deb2b328f6c83,2022-05-11_20h55.21.240,classification_task,2021.2.3,Win32,75.030012,627c6715c52fd12f31907bcf,,,,,,,,,,,,,,,,,,,,,,,,,,,,,,,,,,,,,,,1,  ,,0,7.839342365,1067.3559,0,0,0,0,1,2,1,,,,,,,,,,,,,,,,,,
,5ee164fd75cba8192e80c528,627c678cd07deb2b328f6c83,2022-05-11_20h55.21.240,classification_task,2021.2.3,Win32,75.030012,627c6715c52fd12f31907bcf,,,,,,,,,,,,,,,,,,,,,,,,,,,,,,,,,,,,,,,2,  ,,0,2.29716448,1079.8877,0,0,0,0,1,2,1,,,,,,,,,,,,,,,,,,
,5ee164fd75cba8192e80c528,627c678cd07deb2b328f6c83,2022-05-11_20h55.21.240,classification_task,2021.2.3,Win32,75.030012,627c6715c52fd12f31907bcf,,,,,,,,,,,,,,,,,,,,,,,,,,,,,,,,,,,,,,,,,,,,,0,0,0,0,1,,1,,,,,,,,,,,,,,,,,,
,5ee164fd75cba8192e80c528,627c678cd07deb2b328f6c83,2022-05-11_20h55.21.240,classification_task,2021.2.3,Win32,75.030012,627c6715c52fd12f31907bcf,,,,,,,,,,,,,,,,,,,,,space,21.463,a,0,4.6287,"[""0.057"",""0.327"",""0.371"",""0.812""]","[1,1,0,1]",0,0,0,0,1,1,0,,,1,FALSE,,,,,,,,,,,,,,,,,,,,,,,,,,,,,,,
,5ee164fd75cba8192e80c528,627c678cd07deb2b328f6c83,2022-05-11_20h55.21.240,classification_task,2021.2.3,Win32,75.030012,627c6715c52fd12f31907bcf,,,,,,,,,,,,,,,,,,,,,,,l,1,2.9467,"[""0.098"",""0.416"",""0.534"",""0.704""]","[0,1,1,1]",0,1,1,1,1,1,1,,,1,FALSE,,,,,,,,,,,,,,,,,,,,,,,,,,,,,,,
,5ee164fd75cba8192e80c528,627c678cd07deb2b328f6c83,2022-05-11_20h55.21.240,classification_task,2021.2.3,Win32,75.030012,627c6715c52fd12f31907bcf,,,,,,,,,,,,,,,,,,,,,,,l,1,1.4714,"[""0.139"",""0.416"",""0.534"",""0.367""]","[1,1,1,0]",0,2,2,2,1,1,1,,,1,FALSE,,,,,,,,,,,,,,,,,,,,,,,,,,,,,,,
,5ee164fd75cba8192e80c528,627c678cd07deb2b328f6c83,2022-05-11_20h55.21.240,classification_task,2021.2.3,Win32,75.030012,627c6715c52fd12f31907bcf,,,,,,,,,,,,,,,,,,,,,,,a,1,1.0312,"[""0.773"",""0.500"",""0.893"",""0.970""]","[0,1,1,1]",0,3,3,3,1,0,1,,,1,FALSE,,,,,,,,,,,,,,,,,,,,,,,,,,,,,,,
,5ee164fd75cba8192e80c528,627c678cd07deb2b328f6c83,2022-05-11_20h55.21.240,classification_task,2021.2.3,Win32,75.030012,627c6715c52fd12f31907bcf,,,,,,,,,,,,,,,,,,,,,,,a,0,5.5535,"[""0.057"",""0.327"",""0.612"",""0.649""]","[1,1,1,0]",0,4,4,4,1,1,0,,,1,FALSE,,,,,,,,,,,,,,,,,,,,,,,,,,,,,,,
,5ee164fd75cba8192e80c528,627c678cd07deb2b328f6c83,2022-05-11_20h55.21.240,classification_task,2021.2.3,Win32,75.030012,627c6715c52fd12f31907bcf,,,,,,,,,,,,,,,,,,,,,,,a,1,1.6964,"[""0.188"",""0.500"",""0.657"",""0.970""]","[1,1,0,1]",0,5,5,5,1,0,1,,,1,FALSE,,,,,,,,,,,,,,,,,,,,,,,,,,,,,,,
,5ee164fd75cba8192e80c528,627c678cd07deb2b328f6c83,2022-05-11_20h55.21.240,classification_task,2021.2.3,Win32,75.030012,627c6715c52fd12f31907bcf,,,,,,,,,,,,,,,,,,,,,,,l,0,5.3768,"[""0.238"",""0.750"",""0.855"",""0.934""]","[1,0,1,1]",0,6,6,6,1,0,0,,,1,FALSE,,,,,,,,,,,,,,,,,,,,,,,,,,,,,,,
,5ee164fd75cba8192e80c528,627c678cd07deb2b328f6c83,2022-05-11_20h55.21.240,classification_task,2021.2.3,Win32,75.030012,627c6715c52fd12f31907bcf,,,,,,,,,,,,,,,,,,,,,,,a,1,4.2679,"[""0.188"",""0.657"",""0.893"",""0.970""]","[1,0,1,1]",0,7,7,7,1,0,1,,,1,FALSE,,,,,,,,,,,,,,,,,,,,,,,,,,,,,,,
,5ee164fd75cba8192e80c528,627c678cd07deb2b328f6c83,2022-05-11_20h55.21.240,classification_task,2021.2.3,Win32,75.030012,627c6715c52fd12f31907bcf,,,,,,,,,,,,,,,,,,,,,,,a,1,1.5891,"[""0.371"",""0.459"",""0.855"",""0.934""]","[0,1,1,1]",0,8,8,8,1,0,0,,,1,FALSE,,,,,,,,,,,,,,,,,,,,,,,,,,,,,,,
,5ee164fd75cba8192e80c528,627c678cd07deb2b328f6c83,2022-05-11_20h55.21.240,classification_task,2021.2.3,Win32,75.030012,627c6715c52fd12f31907bcf,,,,,,,,,,,,,,,,,,,,,,,a,1,1.1236,"[""0.188"",""0.500"",""0.893"",""0.657""]","[1,1,1,0]",0,9,9,9,1,0,1,,,1,FALSE,,,,,,,,,,,,,,,,,,,,,,,,,,,,,,,
,5ee164fd75cba8192e80c528,627c678cd07deb2b328f6c83,2022-05-11_20h55.21.240,classification_task,2021.2.3,Win32,75.030012,627c6715c52fd12f31907bcf,,,,,,,,,,,,,,,,,,,,,,,l,0,4.7632,"[""0.238"",""0.459"",""0.855"",""0.750""]","[1,1,1,0]",0,10,10,10,1,0,0,,,1,FALSE,,,,,,,,,,,,,,,,,,,,,,,,,,,,,,,
,5ee164fd75cba8192e80c528,627c678cd07deb2b328f6c83,2022-05-11_20h55.21.240,classification_task,2021.2.3,Win32,75.030012,627c6715c52fd12f31907bcf,,,,,,,,,,,,,,,,,,,,,,,l,1,1.2483,"[""0.577"",""0.327"",""0.612"",""0.812""]","[0,1,1,1]",0,11,11,11,1,1,0,,,1,FALSE,,,,,,,,,,,,,,,,,,,,,,,,,,,,,,,
,5ee164fd75cba8192e80c528,627c678cd07deb2b328f6c83,2022-05-11_20h55.21.240,classification_task,2021.2.3,Win32,75.030012,627c6715c52fd12f31907bcf,,,,,,,,,,,,,,,,,,,,,,,a,1,1.4942,"[""0.238"",""0.459"",""0.759"",""0.934""]","[1,1,0,1]",0,12,12,12,1,0,0,,,1,FALSE,,,,,,,,,,,,,,,,,,,,,,,,,,,,,,,
,5ee164fd75cba8192e80c528,627c678cd07deb2b328f6c83,2022-05-11_20h55.21.240,classification_task,2021.2.3,Win32,75.030012,627c6715c52fd12f31907bcf,,,,,,,,,,,,,,,,,,,,,,,l,1,1.7749,"[""0.139"",""0.098"",""0.534"",""0.704""]","[1,0,1,1]",0,13,13,13,1,1,1,,,1,FALSE,,,,,,,,,,,,,,,,,,,,,,,,,,,,,,,
,5ee164fd75cba8192e80c528,627c678cd07deb2b328f6c83,2022-05-11_20h55.21.240,classification_task,2021.2.3,Win32,75.030012,627c6715c52fd12f31907bcf,,,,,,,,,,,,,,,,,,,,,,,l,1,4.6922,"[""0.057"",""0.277"",""0.612"",""0.812""]","[1,0,1,1]",0,14,14,14,1,1,0,,,1,FALSE,,,,,,,,,,,,,,,,,,,,,,,,,,,,,,,
,5ee164fd75cba8192e80c528,627c678cd07deb2b328f6c83,2022-05-11_20h55.21.240,classification_task,2021.2.3,Win32,75.030012,627c6715c52fd12f31907bcf,,,,,,,,,,,,,,,,,,,,,,,l,1,1.3903,"[""0.139"",""0.416"",""0.762"",""0.704""]","[1,1,0,1]",0,15,15,15,1,1,1,,,1,FALSE,,,,,,,,,,,,,,,,,,,,,,,,,,,,,,,
,5ee164fd75cba8192e80c528,627c678cd07deb2b328f6c83,2022-05-11_20h55.21.240,classification_task,2021.2.3,Win32,75.030012,627c6715c52fd12f31907bcf,,,,,,,,,,,,,,,,,,,,,,,a,1,0.9085,"[""0.657"",""0.500"",""0.893"",""0.970""]","[0,1,1,1]",0,16,16,16,1,0,1,,,1,FALSE,,,,,,,,,,,,,,,,,,,,,,,,,,,,,,,
,5ee164fd75cba8192e80c528,627c678cd07deb2b328f6c83,2022-05-11_20h55.21.240,classification_task,2021.2.3,Win32,75.030012,627c6715c52fd12f31907bcf,,,,,,,,,,,,,,,,,,,,,,,l,1,1.1743,"[""0.139"",""0.416"",""0.534"",""0.577""]","[1,1,1,0]",0,17,17,17,1,1,1,,,1,FALSE,,,,,,,,,,,,,,,,,,,,,,,,,,,,,,,
,5ee164fd75cba8192e80c528,627c678cd07deb2b328f6c83,2022-05-11_20h55.21.240,classification_task,2021.2.3,Win32,75.030012,627c6715c52fd12f31907bcf,,,,,,,,,,,,,,,,,,,,,,,l,1,0.548,"[""0.139"",""0.759"",""0.534"",""0.704""]","[1,0,1,1]",0,18,18,18,1,1,1,,,1,FALSE,,,,,,,,,,,,,,,,,,,,,,,,,,,,,,,
,5ee164fd75cba8192e80c528,627c678cd07deb2b328f6c83,2022-05-11_20h55.21.240,classification_task,2021.2.3,Win32,75.030012,627c6715c52fd12f31907bcf,,,,,,,,,,,,,,,,,,,,,,,l,1,0.4679,"[""0.657"",""0.416"",""0.534"",""0.704""]","[0,1,1,1]",0,19,19,19,1,1,1,,,1,FALSE,,,,,,,,,,,,,,,,,,,,,,,,,,,,,,,
,5ee164fd75cba8192e80c528,627c678cd07deb2b328f6c83,2022-05-11_20h55.21.240,classification_task,2021.2.3,Win32,75.030012,627c6715c52fd12f31907bcf,,,,,,,,,,,,,,,,,,,,,,,a,0,4.7227,"[""0.057"",""0.379"",""0.612"",""0.812""]","[1,0,1,1]",0,20,20,20,1,1,0,,,1,FALSE,,,,,,,,,,,,,,,,,,,,,,,,,,,,,,,
,5ee164fd75cba8192e80c528,627c678cd07deb2b328f6c83,2022-05-11_20h55.21.240,classification_task,2021.2.3,Win32,75.030012,627c6715c52fd12f31907bcf,,,,,,,,,,,,,,,,,,,,,,,l,1,3.2587,"[""0.057"",""0.327"",""0.612"",""0.743""]","[1,1,1,0]",0,21,21,21,1,1,0,,,1,FALSE,,,,,,,,,,,,,,,,,,,,,,,,,,,,,,,
,5ee164fd75cba8192e80c528,627c678cd07deb2b328f6c83,2022-05-11_20h55.21.240,classification_task,2021.2.3,Win32,75.030012,627c6715c52fd12f31907bcf,,,,,,,,,,,,,,,,,,,,,,,a,1,2.7636,"[""0.188"",""0.500"",""0.773"",""0.970""]","[1,1,0,1]",0,22,22,22,1,0,1,,,1,FALSE,,,,,,,,,,,,,,,,,,,,,,,,,,,,,,,
,5ee164fd75cba8192e80c528,627c678cd07deb2b328f6c83,2022-05-11_20h55.21.240,classification_task,2021.2.3,Win32,75.030012,627c6715c52fd12f31907bcf,,,,,,,,,,,,,,,,,,,,,,,a,1,3.1854,"[""0.238"",""0.459"",""0.371"",""0.934""]","[1,1,0,1]",0,23,23,23,1,0,0,,,1,FALSE,,,,,,,,,,,,,,,,,,,,,,,,,,,,,,,
,5ee164fd75cba8192e80c528,627c678cd07deb2b328f6c83,2022-05-11_20h55.21.240,classification_task,2021.2.3,Win32,75.030012,627c6715c52fd12f31907bcf,,,,,,,,,,,,,,,,,,,,,,,l,1,1.2584,"[""0.057"",""0.327"",""0.379"",""0.812""]","[1,1,0,1]",0,24,24,24,1,1,0,,,1,FALSE,,,,,,,,,,,,,,,,,,,,,,,,,,,,,,,
,5ee164fd75cba8192e80c528,627c678cd07deb2b328f6c83,2022-05-11_20h55.21.240,classification_task,2021.2.3,Win32,75.030012,627c6715c52fd12f31907bcf,,,,,,,,,,,,,,,,,,,,,,,a,1,1.6617,"[""0.188"",""0.500"",""0.893"",""0.367""]","[1,1,1,0]",0,25,25,25,1,0,1,,,1,FALSE,,,,,,,,,,,,,,,,,,,,,,,,,,,,,,,
,5ee164fd75cba8192e80c528,627c678cd07deb2b328f6c83,2022-05-11_20h55.21.240,classification_task,2021.2.3,Win32,75.030012,627c6715c52fd12f31907bcf,,,,,,,,,,,,,,,,,,,,,,,a,1,3.9596,"[""0.238"",""0.649"",""0.855"",""0.934""]","[1,0,1,1]",0,26,26,26,1,0,0,,,1,FALSE,,,,,,,,,,,,,,,,,,,,,,,,,,,,,,,
,5ee164fd75cba8192e80c528,627c678cd07deb2b328f6c83,2022-05-11_20h55.21.240,classification_task,2021.2.3,Win32,75.030012,627c6715c52fd12f31907bcf,,,,,,,,,,,,,,,,,,,,,,,a,1,2.3638,"[""0.188"",""0.577"",""0.893"",""0.970""]","[1,0,1,1]",0,27,27,27,1,0,1,,,1,FALSE,,,,,,,,,,,,,,,,,,,,,,,,,,,,,,,
,5ee164fd75cba8192e80c528,627c678cd07deb2b328f6c83,2022-05-11_20h55.21.240,classification_task,2021.2.3,Win32,75.030012,627c6715c52fd12f31907bcf,,,,,,,,,,,,,,,,,,,,,,,a,1,1.8399,"[""0.238"",""0.459"",""0.855"",""0.773""]","[1,1,1,0]",0,28,28,28,1,0,0,,,1,FALSE,,,,,,,,,,,,,,,,,,,,,,,,,,,,,,,
,5ee164fd75cba8192e80c528,627c678cd07deb2b328f6c83,2022-05-11_20h55.21.240,classification_task,2021.2.3,Win32,75.030012,627c6715c52fd12f31907bcf,,,,,,,,,,,,,,,,,,,,,,,l,1,0.8967,"[""0.139"",""0.416"",""0.762"",""0.704""]","[1,1,0,1]",0,29,29,29,1,1,1,,,1,FALSE,,,,,,,,,,,,,,,,,,,,,,,,,,,,,,,
,5ee164fd75cba8192e80c528,627c678cd07deb2b328f6c83,2022-05-11_20h55.21.240,classification_task,2021.2.3,Win32,75.030012,627c6715c52fd12f31907bcf,,,,,,,,,,,,,,,,,,,,,,,l,0,3.4423,"[""0.773"",""0.459"",""0.855"",""0.934""]","[0,1,1,1]",0,30,30,30,1,0,0,,,1,FALSE,,,,,,,,,,,,,,,,,,,,,,,,,,,,,,,
,5ee164fd75cba8192e80c528,627c678cd07deb2b328f6c83,2022-05-11_20h55.21.240,classification_task,2021.2.3,Win32,75.030012,627c6715c52fd12f31907bcf,,,,,,,,,,,,,,,,,,,,,,,l,1,3.4324,"[""0.649"",""0.327"",""0.612"",""0.812""]","[0,1,1,1]",0,31,31,31,1,1,0,,,1,FALSE,,,,,,,,,,,,,,,,,,,,,,,,,,,,,,,
,5ee164fd75cba8192e80c528,627c678cd07deb2b328f6c83,2022-05-11_20h55.21.240,classification_task,2021.2.3,Win32,75.030012,627c6715c52fd12f31907bcf,,,,,,,,,,,,,,,,,,,,,,,a,1,1.859,"[""0.759"",""0.500"",""0.893"",""0.970""]","[0,1,1,1]",0,32,32,32,1,0,1,,,1,FALSE,,,,,,,,,,,,,,,,,,,,,,,,,,,,,,,
,5ee164fd75cba8192e80c528,627c678cd07deb2b328f6c83,2022-05-11_20h55.21.240,classification_task,2021.2.3,Win32,75.030012,627c6715c52fd12f31907bcf,,,,,,,,,,,,,,,,,,,,,,,a,1,0.6043,"[""0.188"",""0.577"",""0.893"",""0.970""]","[1,0,1,1]",0,33,33,33,1,0,1,,,1,FALSE,,,,,,,,,,,,,,,,,,,,,,,,,,,,,,,
,5ee164fd75cba8192e80c528,627c678cd07deb2b328f6c83,2022-05-11_20h55.21.240,classification_task,2021.2.3,Win32,75.030012,627c6715c52fd12f31907bcf,,,,,,,,,,,,,,,,,,,,,,,l,1,1.3477,"[""0.139"",""0.416"",""0.534"",""0.371""]","[1,1,1,0]",0,34,34,34,1,1,1,,,1,FALSE,,,,,,,,,,,,,,,,,,,,,,,,,,,,,,,
,5ee164fd75cba8192e80c528,627c678cd07deb2b328f6c83,2022-05-11_20h55.21.240,classification_task,2021.2.3,Win32,75.030012,627c6715c52fd12f31907bcf,,,,,,,,,,,,,,,,,,,,,,,a,0,5.5817,"[""0.371"",""0.327"",""0.612"",""0.812""]","[0,1,1,1]",0,35,35,35,1,1,0,,,1,FALSE,,,,,,,,,,,,,,,,,,,,,,,,,,,,,,,
,5ee164fd75cba8192e80c528,627c678cd07deb2b328f6c83,2022-05-11_20h55.21.240,classification_task,2021.2.3,Win32,75.030012,627c6715c52fd12f31907bcf,,,,,,,,,,,,,,,,,,,,,,,a,1,2.7649,"[""0.238"",""0.367"",""0.855"",""0.934""]","[1,0,1,1]",0,36,36,36,1,0,0,,,1,FALSE,,,,,,,,,,,,,,,,,,,,,,,,,,,,,,,
,5ee164fd75cba8192e80c528,627c678cd07deb2b328f6c83,2022-05-11_20h55.21.240,classification_task,2021.2.3,Win32,75.030012,627c6715c52fd12f31907bcf,,,,,,,,,,,,,,,,,,,,,,,l,1,1.8953,"[""0.371"",""0.416"",""0.534"",""0.704""]","[0,1,1,1]",0,37,37,37,1,1,1,,,1,FALSE,,,,,,,,,,,,,,,,,,,,,,,,,,,,,,,
,5ee164fd75cba8192e80c528,627c678cd07deb2b328f6c83,2022-05-11_20h55.21.240,classification_task,2021.2.3,Win32,75.030012,627c6715c52fd12f31907bcf,,,,,,,,,,,,,,,,,,,,,,,l,1,0.5874,"[""0.139"",""0.773"",""0.534"",""0.704""]","[1,0,1,1]",0,38,38,38,1,1,1,,,1,FALSE,,,,,,,,,,,,,,,,,,,,,,,,,,,,,,,
,5ee164fd75cba8192e80c528,627c678cd07deb2b328f6c83,2022-05-11_20h55.21.240,classification_task,2021.2.3,Win32,75.030012,627c6715c52fd12f31907bcf,,,,,,,,,,,,,,,,,,,,,,,l,1,1.9947,"[""0.057"",""0.327"",""0.371"",""0.812""]","[1,1,0,1]",0,39,39,39,1,1,0,,,1,FALSE,,,,,,,,,,,,,,,,,,,,,,,,,,,,,,,
,5ee164fd75cba8192e80c528,627c678cd07deb2b328f6c83,2022-05-11_20h55.21.240,classification_task,2021.2.3,Win32,75.030012,627c6715c52fd12f31907bcf,,,,,,,,,,,,,,,,,,,,,,,l,1,0.911,"[""0.057"",""0.649"",""0.612"",""0.812""]","[1,0,1,1]",0,40,40,40,1,1,0,,,1,FALSE,,,,,,,,,,,,,,,,,,,,,,,,,,,,,,,
,5ee164fd75cba8192e80c528,627c678cd07deb2b328f6c83,2022-05-11_20h55.21.240,classification_task,2021.2.3,Win32,75.030012,627c6715c52fd12f31907bcf,,,,,,,,,,,,,,,,,,,,,,,l,1,1.5211,"[""0.139"",""0.416"",""0.379"",""0.704""]","[1,1,0,1]",0,41,41,41,1,1,1,,,1,FALSE,,,,,,,,,,,,,,,,,,,,,,,,,,,,,,,
,5ee164fd75cba8192e80c528,627c678cd07deb2b328f6c83,2022-05-11_20h55.21.240,classification_task,2021.2.3,Win32,75.030012,627c6715c52fd12f31907bcf,,,,,,,,,,,,,,,,,,,,,,,a,1,0.9218,"[""0.188"",""0.500"",""0.371"",""0.970""]","[1,1,0,1]",0,42,42,42,1,0,1,,,1,FALSE,,,,,,,,,,,,,,,,,,,,,,,,,,,,,,,
,5ee164fd75cba8192e80c528,627c678cd07deb2b328f6c83,2022-05-11_20h55.21.240,classification_task,2021.2.3,Win32,75.030012,627c6715c52fd12f31907bcf,,,,,,,,,,,,,,,,,,,,,,,l,0,2.8696,"[""0.750"",""0.459"",""0.855"",""0.934""]","[0,1,1,1]",0,43,43,43,1,0,0,,,1,FALSE,,,,,,,,,,,,,,,,,,,,,,,,,,,,,,,
,5ee164fd75cba8192e80c528,627c678cd07deb2b328f6c83,2022-05-11_20h55.21.240,classification_task,2021.2.3,Win32,75.030012,627c6715c52fd12f31907bcf,,,,,,,,,,,,,,,,,,,,,,,a,1,1.5503,"[""0.188"",""0.500"",""0.893"",""0.105""]","[1,1,1,0]",0,44,44,44,1,0,1,,,1,FALSE,,,,,,,,,,,,,,,,,,,,,,,,,,,,,,,
,5ee164fd75cba8192e80c528,627c678cd07deb2b328f6c83,2022-05-11_20h55.21.240,classification_task,2021.2.3,Win32,75.030012,627c6715c52fd12f31907bcf,,,,,,,,,,,,,,,,,,,,,,,l,1,1.6819,"[""0.057"",""0.327"",""0.612"",""0.577""]","[1,1,1,0]",0,45,45,45,1,1,0,,,1,FALSE,,,,,,,,,,,,,,,,,,,,,,,,,,,,,,,
,5ee164fd75cba8192e80c528,627c678cd07deb2b328f6c83,2022-05-11_20h55.21.240,classification_task,2021.2.3,Win32,75.030012,627c6715c52fd12f31907bcf,,,,,,,,,,,,,,,,,,,,,,,a,1,2.7345,"[""0.238"",""0.459"",""0.855"",""0.773""]","[1,1,1,0]",0,46,46,46,1,0,0,,,1,FALSE,,,,,,,,,,,,,,,,,,,,,,,,,,,,,,,
,5ee164fd75cba8192e80c528,627c678cd07deb2b328f6c83,2022-05-11_20h55.21.240,classification_task,2021.2.3,Win32,75.030012,627c6715c52fd12f31907bcf,,,,,,,,,,,,,,,,,,,,,,,a,1,0.4977,"[""0.238"",""0.459"",""0.750"",""0.934""]","[1,1,0,1]",0,47,47,47,1,0,0,,,1,FALSE,,,,,,,,,,,,,,,,,,,,,,,,,,,,,,,
,5ee164fd75cba8192e80c528,627c678cd07deb2b328f6c83,2022-05-11_20h55.21.240,classification_task,2021.2.3,Win32,75.030012,627c6715c52fd12f31907bcf,,,,,,,,,,,,,,,,,,,,,,,l,1,1.2502,"[""0.105"",""0.416"",""0.534"",""0.704""]","[0,1,1,1]",0,48,48,48,1,1,1,,,1,FALSE,,,,,,,,,,,,,,,,,,,,,,,,,,,,,,,
,5ee164fd75cba8192e80c528,627c678cd07deb2b328f6c83,2022-05-11_20h55.21.240,classification_task,2021.2.3,Win32,75.030012,627c6715c52fd12f31907bcf,,,,,,,,,,,,,,,,,,,,,,,a,1,0.71,"[""0.379"",""0.500"",""0.893"",""0.970""]","[0,1,1,1]",0,49,49,49,1,0,1,,,1,FALSE,,,,,,,,,,,,,,,,,,,,,,,,,,,,,,,
,5ee164fd75cba8192e80c528,627c678cd07deb2b328f6c83,2022-05-11_20h55.21.240,classification_task,2021.2.3,Win32,75.030012,627c6715c52fd12f31907bcf,,,,,,,,,,,,,,,,,,,,,,,a,1,1.5421,"[""0.238"",""0.743"",""0.855"",""0.934""]","[1,0,1,1]",0,50,50,50,1,0,0,,,1,FALSE,,,,,,,,,,,,,,,,,,,,,,,,,,,,,,,
,5ee164fd75cba8192e80c528,627c678cd07deb2b328f6c83,2022-05-11_20h55.21.240,classification_task,2021.2.3,Win32,75.030012,627c6715c52fd12f31907bcf,,,,,,,,,,,,,,,,,,,,,,,l,1,1.8443,"[""0.367"",""0.327"",""0.612"",""0.812""]","[0,1,1,1]",0,51,51,51,1,1,0,,,1,FALSE,,,,,,,,,,,,,,,,,,,,,,,,,,,,,,,
,5ee164fd75cba8192e80c528,627c678cd07deb2b328f6c83,2022-05-11_20h55.21.240,classification_task,2021.2.3,Win32,75.030012,627c6715c52fd12f31907bcf,,,,,,,,,,,,,,,,,,,,,,,l,1,1.5356,"[""0.139"",""0.750"",""0.534"",""0.704""]","[1,0,1,1]",0,52,52,52,1,1,1,,,1,FALSE,,,,,,,,,,,,,,,,,,,,,,,,,,,,,,,
,5ee164fd75cba8192e80c528,627c678cd07deb2b328f6c83,2022-05-11_20h55.21.240,classification_task,2021.2.3,Win32,75.030012,627c6715c52fd12f31907bcf,,,,,,,,,,,,,,,,,,,,,,,a,1,1.2556,"[""0.238"",""0.459"",""0.855"",""0.657""]","[1,1,1,0]",0,53,53,53,1,0,0,,,1,FALSE,,,,,,,,,,,,,,,,,,,,,,,,,,,,,,,
,5ee164fd75cba8192e80c528,627c678cd07deb2b328f6c83,2022-05-11_20h55.21.240,classification_task,2021.2.3,Win32,75.030012,627c6715c52fd12f31907bcf,,,,,,,,,,,,,,,,,,,,,,,a,1,1.2419,"[""0.188"",""0.500"",""0.893"",""0.577""]","[1,1,1,0]",0,54,54,54,1,0,1,,,1,FALSE,,,,,,,,,,,,,,,,,,,,,,,,,,,,,,,
,5ee164fd75cba8192e80c528,627c678cd07deb2b328f6c83,2022-05-11_20h55.21.240,classification_task,2021.2.3,Win32,75.030012,627c6715c52fd12f31907bcf,,,,,,,,,,,,,,,,,,,,,,,l,1,1.5045,"[""0.057"",""0.759"",""0.612"",""0.812""]","[1,0,1,1]",0,55,55,55,1,1,0,,,1,FALSE,,,,,,,,,,,,,,,,,,,,,,,,,,,,,,,
,5ee164fd75cba8192e80c528,627c678cd07deb2b328f6c83,2022-05-11_20h55.21.240,classification_task,2021.2.3,Win32,75.030012,627c6715c52fd12f31907bcf,,,,,,,,,,,,,,,,,,,,,,,a,1,1.2328,"[""0.188"",""0.649"",""0.893"",""0.970""]","[1,0,1,1]",0,56,56,56,1,0,1,,,1,FALSE,,,,,,,,,,,,,,,,,,,,,,,,,,,,,,,
,5ee164fd75cba8192e80c528,627c678cd07deb2b328f6c83,2022-05-11_20h55.21.240,classification_task,2021.2.3,Win32,75.030012,627c6715c52fd12f31907bcf,,,,,,,,,,,,,,,,,,,,,,,l,1,1.702,"[""0.057"",""0.327"",""0.762"",""0.812""]","[1,1,0,1]",0,57,57,57,1,1,0,,,1,FALSE,,,,,,,,,,,,,,,,,,,,,,,,,,,,,,,
,5ee164fd75cba8192e80c528,627c678cd07deb2b328f6c83,2022-05-11_20h55.21.240,classification_task,2021.2.3,Win32,75.030012,627c6715c52fd12f31907bcf,,,,,,,,,,,,,,,,,,,,,,,l,0,2.9612,"[""0.649"",""0.459"",""0.855"",""0.934""]","[0,1,1,1]",0,58,58,58,1,0,0,,,1,FALSE,,,,,,,,,,,,,,,,,,,,,,,,,,,,,,,
,5ee164fd75cba8192e80c528,627c678cd07deb2b328f6c83,2022-05-11_20h55.21.240,classification_task,2021.2.3,Win32,75.030012,627c6715c52fd12f31907bcf,,,,,,,,,,,,,,,,,,,,,,,l,1,1.5463,"[""0.139"",""0.416"",""0.759"",""0.704""]","[1,1,0,1]",0,59,59,59,1,1,1,,,1,FALSE,,,,,,,,,,,,,,,,,,,,,,,,,,,,,,,
,5ee164fd75cba8192e80c528,627c678cd07deb2b328f6c83,2022-05-11_20h55.21.240,classification_task,2021.2.3,Win32,75.030012,627c6715c52fd12f31907bcf,,,,,,,,,,,,,,,,,,,,,,,l,1,1.0409,"[""0.139"",""0.416"",""0.534"",""0.105""]","[1,1,1,0]",0,60,60,60,1,1,1,,,1,FALSE,,,,,,,,,,,,,,,,,,,,,,,,,,,,,,,
,5ee164fd75cba8192e80c528,627c678cd07deb2b328f6c83,2022-05-11_20h55.21.240,classification_task,2021.2.3,Win32,75.030012,627c6715c52fd12f31907bcf,,,,,,,,,,,,,,,,,,,,,,,a,1,0.5348,"[""0.188"",""0.500"",""0.577"",""0.970""]","[1,1,0,1]",0,61,61,61,1,0,1,,,1,FALSE,,,,,,,,,,,,,,,,,,,,,,,,,,,,,,,
,5ee164fd75cba8192e80c528,627c678cd07deb2b328f6c83,2022-05-11_20h55.21.240,classification_task,2021.2.3,Win32,75.030012,627c6715c52fd12f31907bcf,,,,,,,,,,,,,,,,,,,,,,,l,1,1.559,"[""0.057"",""0.327"",""0.612"",""0.577""]","[1,1,1,0]",0,62,62,62,1,1,0,,,1,FALSE,,,,,,,,,,,,,,,,,,,,,,,,,,,,,,,
,5ee164fd75cba8192e80c528,627c678cd07deb2b328f6c83,2022-05-11_20h55.21.240,classification_task,2021.2.3,Win32,75.030012,627c6715c52fd12f31907bcf,,,,,,,,,,,,,,,,,,,,,,,a,1,1.4706,"[""0.238"",""0.459"",""0.577"",""0.934""]","[1,1,0,1]",0,63,63,63,1,0,0,,,1,FALSE,,,,,,,,,,,,,,,,,,,,,,,,,,,,,,,
,5ee164fd75cba8192e80c528,627c678cd07deb2b328f6c83,2022-05-11_20h55.21.240,classification_task,2021.2.3,Win32,75.030012,627c6715c52fd12f31907bcf,,,,,,,,,,,,,,,,,,,,,,,,,,,,,,,,,,,,,,,0, ,,0,5.846342436,227.6894,0,1,1,1,1,2,2,,,,,,,,,,,,,,,,,,
,5ee164fd75cba8192e80c528,627c678cd07deb2b328f6c83,2022-05-11_20h55.21.240,classification_task,2021.2.3,Win32,75.030012,627c6715c52fd12f31907bcf,,,,,,,,,,,,,,,,,,,,,,,,,,,,,,,,,,,,,,,1,  ,,0,3.498424711,233.887,0,1,1,1,1,2,2,,,,,,,,,,,,,,,,,,
,5ee164fd75cba8192e80c528,627c678cd07deb2b328f6c83,2022-05-11_20h55.21.240,classification_task,2021.2.3,Win32,75.030012,627c6715c52fd12f31907bcf,,,,,,,,,,,,,,,,,,,,,,,,,,,,,,,,,,,,,,,2,  ,,0,1.669232995,241.2,0,1,1,1,1,2,2,,,,,,,,,,,,,,,,,,
,5ee164fd75cba8192e80c528,627c678cd07deb2b328f6c83,2022-05-11_20h55.21.240,classification_task,2021.2.3,Win32,75.030012,627c6715c52fd12f31907bcf,,,,,,,,,,,,,,,,,,,,,,,,,,,,,,,,,,,,,,,,,,,,,0,1,1,1,1,,2,,,,,,,,,,,,,,,,,,
,5ee164fd75cba8192e80c528,627c678cd07deb2b328f6c83,2022-05-11_20h55.21.240,classification_task,2021.2.3,Win32,75.030012,627c6715c52fd12f31907bcf,,,,,,,,,,,,,,,,,,,,,space,15.1672,a,0,4.1796,"[""0.367"",""0.327"",""0.612"",""0.812""]","[0,1,1,1]",0,0,0,0,1,1,0,,,1,FALSE,,,,,,,,,,,,,,,,,,,,,,,,,,,,,,,
,5ee164fd75cba8192e80c528,627c678cd07deb2b328f6c83,2022-05-11_20h55.21.240,classification_task,2021.2.3,Win32,75.030012,627c6715c52fd12f31907bcf,,,,,,,,,,,,,,,,,,,,,,,a,0,5.3261,"[""0.139"",""0.098"",""0.534"",""0.704""]","[1,0,1,1]",0,1,1,1,1,1,1,,,1,FALSE,,,,,,,,,,,,,,,,,,,,,,,,,,,,,,,
,5ee164fd75cba8192e80c528,627c678cd07deb2b328f6c83,2022-05-11_20h55.21.240,classification_task,2021.2.3,Win32,75.030012,627c6715c52fd12f31907bcf,,,,,,,,,,,,,,,,,,,,,,,l,1,2.975,"[""0.057"",""0.327"",""0.098"",""0.812""]","[1,1,0,1]",0,2,2,2,1,1,0,,,1,FALSE,,,,,,,,,,,,,,,,,,,,,,,,,,,,,,,
,5ee164fd75cba8192e80c528,627c678cd07deb2b328f6c83,2022-05-11_20h55.21.240,classification_task,2021.2.3,Win32,75.030012,627c6715c52fd12f31907bcf,,,,,,,,,,,,,,,,,,,,,,,a,1,3.1784,"[""0.238"",""0.459"",""0.577"",""0.934""]","[1,1,0,1]",0,3,3,3,1,0,0,,,1,FALSE,,,,,,,,,,,,,,,,,,,,,,,,,,,,,,,
,5ee164fd75cba8192e80c528,627c678cd07deb2b328f6c83,2022-05-11_20h55.21.240,classification_task,2021.2.3,Win32,75.030012,627c6715c52fd12f31907bcf,,,,,,,,,,,,,,,,,,,,,,,l,1,1.0186,"[""0.057"",""0.327"",""0.612"",""0.649""]","[1,1,1,0]",0,4,4,4,1,1,0,,,1,FALSE,,,,,,,,,,,,,,,,,,,,,,,,,,,,,,,
,5ee164fd75cba8192e80c528,627c678cd07deb2b328f6c83,2022-05-11_20h55.21.240,classification_task,2021.2.3,Win32,75.030012,627c6715c52fd12f31907bcf,,,,,,,,,,,,,,,,,,,,,,,a,1,4.2552,"[""0.105"",""0.459"",""0.855"",""0.934""]","[0,1,1,1]",0,5,5,5,1,0,0,,,1,FALSE,,,,,,,,,,,,,,,,,,,,,,,,,,,,,,,
,5ee164fd75cba8192e80c528,627c678cd07deb2b328f6c83,2022-05-11_20h55.21.240,classification_task,2021.2.3,Win32,75.030012,627c6715c52fd12f31907bcf,,,,,,,,,,,,,,,,,,,,,,,a,0,6.1671,"[""0.367"",""0.416"",""0.534"",""0.704""]","[0,1,1,1]",0,6,6,6,1,1,1,,,1,FALSE,,,,,,,,,,,,,,,,,,,,,,,,,,,,,,,
,5ee164fd75cba8192e80c528,627c678cd07deb2b328f6c83,2022-05-11_20h55.21.240,classification_task,2021.2.3,Win32,75.030012,627c6715c52fd12f31907bcf,,,,,,,,,,,,,,,,,,,,,,,l,0,2.5383,"[""0.649"",""0.500"",""0.893"",""0.970""]","[0,1,1,1]",0,7,7,7,1,0,1,,,1,FALSE,,,,,,,,,,,,,,,,,,,,,,,,,,,,,,,
,5ee164fd75cba8192e80c528,627c678cd07deb2b328f6c83,2022-05-11_20h55.21.240,classification_task,2021.2.3,Win32,75.030012,627c6715c52fd12f31907bcf,,,,,,,,,,,,,,,,,,,,,,,a,0,1.9224,"[""0.139"",""0.416"",""0.649"",""0.704""]","[1,1,0,1]",0,8,8,8,1,1,1,,,1,FALSE,,,,,,,,,,,,,,,,,,,,,,,,,,,,,,,
,5ee164fd75cba8192e80c528,627c678cd07deb2b328f6c83,2022-05-11_20h55.21.240,classification_task,2021.2.3,Win32,75.030012,627c6715c52fd12f31907bcf,,,,,,,,,,,,,,,,,,,,,,,a,1,2.8993,"[""0.238"",""0.459"",""0.855"",""0.105""]","[1,1,1,0]",0,9,9,9,1,0,0,,,1,FALSE,,,,,,,,,,,,,,,,,,,,,,,,,,,,,,,
,5ee164fd75cba8192e80c528,627c678cd07deb2b328f6c83,2022-05-11_20h55.21.240,classification_task,2021.2.3,Win32,75.030012,627c6715c52fd12f31907bcf,,,,,,,,,,,,,,,,,,,,,,,l,1,1.0748,"[""0.057"",""0.759"",""0.612"",""0.812""]","[1,0,1,1]",0,10,10,10,1,1,0,,,1,FALSE,,,,,,,,,,,,,,,,,,,,,,,,,,,,,,,
,5ee164fd75cba8192e80c528,627c678cd07deb2b328f6c83,2022-05-11_20h55.21.240,classification_task,2021.2.3,Win32,75.030012,627c6715c52fd12f31907bcf,,,,,,,,,,,,,,,,,,,,,,,l,1,7.3632,"[""0.139"",""0.416"",""0.534"",""0.750""]","[1,1,1,0]",0,11,11,11,1,1,1,,,1,FALSE,,,,,,,,,,,,,,,,,,,,,,,,,,,,,,,
,5ee164fd75cba8192e80c528,627c678cd07deb2b328f6c83,2022-05-11_20h55.21.240,classification_task,2021.2.3,Win32,75.030012,627c6715c52fd12f31907bcf,,,,,,,,,,,,,,,,,,,,,,,l,0,4.0456,"[""0.188"",""0.500"",""0.379"",""0.970""]","[1,1,0,1]",0,12,12,12,1,0,1,,,1,FALSE,,,,,,,,,,,,,,,,,,,,,,,,,,,,,,,
,5ee164fd75cba8192e80c528,627c678cd07deb2b328f6c83,2022-05-11_20h55.21.240,classification_task,2021.2.3,Win32,75.030012,627c6715c52fd12f31907bcf,,,,,,,,,,,,,,,,,,,,,,,l,0,2.4071,"[""0.188"",""0.500"",""0.893"",""0.379""]","[1,1,1,0]",0,13,13,13,1,0,1,,,1,FALSE,,,,,,,,,,,,,,,,,,,,,,,,,,,,,,,
,5ee164fd75cba8192e80c528,627c678cd07deb2b328f6c83,2022-05-11_20h55.21.240,classification_task,2021.2.3,Win32,75.030012,627c6715c52fd12f31907bcf,,,,,,,,,,,,,,,,,,,,,,,l,0,0.6701,"[""0.188"",""0.098"",""0.893"",""0.970""]","[1,0,1,1]",0,14,14,14,1,0,1,,,1,FALSE,,,,,,,,,,,,,,,,,,,,,,,,,,,,,,,
,5ee164fd75cba8192e80c528,627c678cd07deb2b328f6c83,2022-05-11_20h55.21.240,classification_task,2021.2.3,Win32,75.030012,627c6715c52fd12f31907bcf,,,,,,,,,,,,,,,,,,,,,,,a,1,1.2939,"[""0.238"",""0.371"",""0.855"",""0.934""]","[1,0,1,1]",0,15,15,15,1,0,0,,,1,FALSE,,,,,,,,,,,,,,,,,,,,,,,,,,,,,,,
,5ee164fd75cba8192e80c528,627c678cd07deb2b328f6c83,2022-05-11_20h55.21.240,classification_task,2021.2.3,Win32,75.030012,627c6715c52fd12f31907bcf,,,,,,,,,,,,,,,,,,,,,,,a,1,2.0944,"[""0.371"",""0.459"",""0.855"",""0.934""]","[0,1,1,1]",0,16,16,16,1,0,0,,,1,FALSE,,,,,,,,,,,,,,,,,,,,,,,,,,,,,,,
,5ee164fd75cba8192e80c528,627c678cd07deb2b328f6c83,2022-05-11_20h55.21.240,classification_task,2021.2.3,Win32,75.030012,627c6715c52fd12f31907bcf,,,,,,,,,,,,,,,,,,,,,,,l,1,1.2548,"[""0.057"",""0.577"",""0.612"",""0.812""]","[1,0,1,1]",0,17,17,17,1,1,0,,,1,FALSE,,,,,,,,,,,,,,,,,,,,,,,,,,,,,,,
,5ee164fd75cba8192e80c528,627c678cd07deb2b328f6c83,2022-05-11_20h55.21.240,classification_task,2021.2.3,Win32,75.030012,627c6715c52fd12f31907bcf,,,,,,,,,,,,,,,,,,,,,,,l,1,1.1387,"[""0.367"",""0.416"",""0.534"",""0.704""]","[0,1,1,1]",0,18,18,18,1,1,1,,,1,FALSE,,,,,,,,,,,,,,,,,,,,,,,,,,,,,,,
,5ee164fd75cba8192e80c528,627c678cd07deb2b328f6c83,2022-05-11_20h55.21.240,classification_task,2021.2.3,Win32,75.030012,627c6715c52fd12f31907bcf,,,,,,,,,,,,,,,,,,,,,,,l,1,0.814,"[""0.057"",""0.327"",""0.657"",""0.812""]","[1,1,0,1]",0,19,19,19,1,1,0,,,1,FALSE,,,,,,,,,,,,,,,,,,,,,,,,,,,,,,,
,5ee164fd75cba8192e80c528,627c678cd07deb2b328f6c83,2022-05-11_20h55.21.240,classification_task,2021.2.3,Win32,75.030012,627c6715c52fd12f31907bcf,,,,,,,,,,,,,,,,,,,,,,,a,1,0.6274,"[""0.238"",""0.459"",""0.773"",""0.934""]","[1,1,0,1]",0,20,20,20,1,0,0,,,1,FALSE,,,,,,,,,,,,,,,,,,,,,,,,,,,,,,,
,5ee164fd75cba8192e80c528,627c678cd07deb2b328f6c83,2022-05-11_20h55.21.240,classification_task,2021.2.3,Win32,75.030012,627c6715c52fd12f31907bcf,,,,,,,,,,,,,,,,,,,,,,,a,1,0.761,"[""0.188"",""0.500"",""0.577"",""0.970""]","[1,1,0,1]",0,21,21,21,1,0,1,,,1,FALSE,,,,,,,,,,,,,,,,,,,,,,,,,,,,,,,
,5ee164fd75cba8192e80c528,627c678cd07deb2b328f6c83,2022-05-11_20h55.21.240,classification_task,2021.2.3,Win32,75.030012,627c6715c52fd12f31907bcf,,,,,,,,,,,,,,,,,,,,,,,a,1,0.5339,"[""0.188"",""0.500"",""0.893"",""0.743""]","[1,1,1,0]",0,22,22,22,1,0,1,,,1,FALSE,,,,,,,,,,,,,,,,,,,,,,,,,,,,,,,
,5ee164fd75cba8192e80c528,627c678cd07deb2b328f6c83,2022-05-11_20h55.21.240,classification_task,2021.2.3,Win32,75.030012,627c6715c52fd12f31907bcf,,,,,,,,,,,,,,,,,,,,,,,l,1,0.6989,"[""0.057"",""0.327"",""0.612"",""0.762""]","[1,1,1,0]",0,23,23,23,1,1,0,,,1,FALSE,,,,,,,,,,,,,,,,,,,,,,,,,,,,,,,
,5ee164fd75cba8192e80c528,627c678cd07deb2b328f6c83,2022-05-11_20h55.21.240,classification_task,2021.2.3,Win32,75.030012,627c6715c52fd12f31907bcf,,,,,,,,,,,,,,,,,,,,,,,a,1,0.6937,"[""0.238"",""0.750"",""0.855"",""0.934""]","[1,0,1,1]",0,24,24,24,1,0,0,,,1,FALSE,,,,,,,,,,,,,,,,,,,,,,,,,,,,,,,
,5ee164fd75cba8192e80c528,627c678cd07deb2b328f6c83,2022-05-11_20h55.21.240,classification_task,2021.2.3,Win32,75.030012,627c6715c52fd12f31907bcf,,,,,,,,,,,,,,,,,,,,,,,a,0,2.045,"[""0.139"",""0.416"",""0.534"",""0.657""]","[1,1,1,0]",0,25,25,25,1,1,1,,,1,FALSE,,,,,,,,,,,,,,,,,,,,,,,,,,,,,,,
,5ee164fd75cba8192e80c528,627c678cd07deb2b328f6c83,2022-05-11_20h55.21.240,classification_task,2021.2.3,Win32,75.030012,627c6715c52fd12f31907bcf,,,,,,,,,,,,,,,,,,,,,,,a,1,0.4606,"[""0.657"",""0.500"",""0.893"",""0.970""]","[0,1,1,1]",0,26,26,26,1,0,1,,,1,FALSE,,,,,,,,,,,,,,,,,,,,,,,,,,,,,,,
,5ee164fd75cba8192e80c528,627c678cd07deb2b328f6c83,2022-05-11_20h55.21.240,classification_task,2021.2.3,Win32,75.030012,627c6715c52fd12f31907bcf,,,,,,,,,,,,,,,,,,,,,,,l,1,3.5089,"[""0.762"",""0.327"",""0.612"",""0.812""]","[0,1,1,1]",0,27,27,27,1,1,0,,,1,FALSE,,,,,,,,,,,,,,,,,,,,,,,,,,,,,,,
,5ee164fd75cba8192e80c528,627c678cd07deb2b328f6c83,2022-05-11_20h55.21.240,classification_task,2021.2.3,Win32,75.030012,627c6715c52fd12f31907bcf,,,,,,,,,,,,,,,,,,,,,,,l,1,1.3886,"[""0.139"",""0.416"",""0.759"",""0.704""]","[1,1,0,1]",0,28,28,28,1,1,1,,,1,FALSE,,,,,,,,,,,,,,,,,,,,,,,,,,,,,,,
,5ee164fd75cba8192e80c528,627c678cd07deb2b328f6c83,2022-05-11_20h55.21.240,classification_task,2021.2.3,Win32,75.030012,627c6715c52fd12f31907bcf,,,,,,,,,,,,,,,,,,,,,,,l,0,0.5206,"[""0.188"",""0.577"",""0.893"",""0.970""]","[1,0,1,1]",0,29,29,29,1,0,1,,,1,FALSE,,,,,,,,,,,,,,,,,,,,,,,,,,,,,,,
,5ee164fd75cba8192e80c528,627c678cd07deb2b328f6c83,2022-05-11_20h55.21.240,classification_task,2021.2.3,Win32,75.030012,627c6715c52fd12f31907bcf,,,,,,,,,,,,,,,,,,,,,,,l,1,1.1781,"[""0.139"",""0.105"",""0.534"",""0.704""]","[1,0,1,1]",0,30,30,30,1,1,1,,,1,FALSE,,,,,,,,,,,,,,,,,,,,,,,,,,,,,,,
,5ee164fd75cba8192e80c528,627c678cd07deb2b328f6c83,2022-05-11_20h55.21.240,classification_task,2021.2.3,Win32,75.030012,627c6715c52fd12f31907bcf,,,,,,,,,,,,,,,,,,,,,,,a,1,1.1344,"[""0.238"",""0.459"",""0.855"",""0.277""]","[1,1,1,0]",0,31,31,31,1,0,0,,,1,FALSE,,,,,,,,,,,,,,,,,,,,,,,,,,,,,,,
,5ee164fd75cba8192e80c528,627c678cd07deb2b328f6c83,2022-05-11_20h55.21.240,classification_task,2021.2.3,Win32,75.030012,627c6715c52fd12f31907bcf,,,,,,,,,,,,,,,,,,,,,,,a,1,0.5512,"[""0.238"",""0.743"",""0.855"",""0.934""]","[1,0,1,1]",0,32,32,32,1,0,0,,,1,FALSE,,,,,,,,,,,,,,,,,,,,,,,,,,,,,,,
,5ee164fd75cba8192e80c528,627c678cd07deb2b328f6c83,2022-05-11_20h55.21.240,classification_task,2021.2.3,Win32,75.030012,627c6715c52fd12f31907bcf,,,,,,,,,,,,,,,,,,,,,,,a,0,0.3872,"[""0.139"",""0.416"",""0.743"",""0.704""]","[1,1,0,1]",0,33,33,33,1,1,1,,,1,FALSE,,,,,,,,,,,,,,,,,,,,,,,,,,,,,,,
,5ee164fd75cba8192e80c528,627c678cd07deb2b328f6c83,2022-05-11_20h55.21.240,classification_task,2021.2.3,Win32,75.030012,627c6715c52fd12f31907bcf,,,,,,,,,,,,,,,,,,,,,,,a,0,0.4139,"[""0.649"",""0.416"",""0.534"",""0.704""]","[0,1,1,1]",0,34,34,34,1,1,1,,,1,FALSE,,,,,,,,,,,,,,,,,,,,,,,,,,,,,,,
,5ee164fd75cba8192e80c528,627c678cd07deb2b328f6c83,2022-05-11_20h55.21.240,classification_task,2021.2.3,Win32,75.030012,627c6715c52fd12f31907bcf,,,,,,,,,,,,,,,,,,,,,,,a,1,0.3344,"[""0.188"",""0.500"",""0.371"",""0.970""]","[1,1,0,1]",0,35,35,35,1,0,1,,,1,FALSE,,,,,,,,,,,,,,,,,,,,,,,,,,,,,,,
,5ee164fd75cba8192e80c528,627c678cd07deb2b328f6c83,2022-05-11_20h55.21.240,classification_task,2021.2.3,Win32,75.030012,627c6715c52fd12f31907bcf,,,,,,,,,,,,,,,,,,,,,,,a,0,0.3738,"[""0.139"",""0.416"",""0.534"",""0.371""]","[1,1,1,0]",0,36,36,36,1,1,1,,,1,FALSE,,,,,,,,,,,,,,,,,,,,,,,,,,,,,,,
,5ee164fd75cba8192e80c528,627c678cd07deb2b328f6c83,2022-05-11_20h55.21.240,classification_task,2021.2.3,Win32,75.030012,627c6715c52fd12f31907bcf,,,,,,,,,,,,,,,,,,,,,,,a,1,0.4939,"[""0.773"",""0.500"",""0.893"",""0.970""]","[0,1,1,1]",0,37,37,37,1,0,1,,,1,FALSE,,,,,,,,,,,,,,,,,,,,,,,,,,,,,,,
,5ee164fd75cba8192e80c528,627c678cd07deb2b328f6c83,2022-05-11_20h55.21.240,classification_task,2021.2.3,Win32,75.030012,627c6715c52fd12f31907bcf,,,,,,,,,,,,,,,,,,,,,,,a,1,1.0285,"[""0.238"",""0.459"",""0.855"",""0.277""]","[1,1,1,0]",0,38,38,38,1,0,0,,,1,FALSE,,,,,,,,,,,,,,,,,,,,,,,,,,,,,,,
,5ee164fd75cba8192e80c528,627c678cd07deb2b328f6c83,2022-05-11_20h55.21.240,classification_task,2021.2.3,Win32,75.030012,627c6715c52fd12f31907bcf,,,,,,,,,,,,,,,,,,,,,,,a,0,0.7862,"[""0.139"",""0.105"",""0.534"",""0.704""]","[1,0,1,1]",0,39,39,39,1,1,1,,,1,FALSE,,,,,,,,,,,,,,,,,,,,,,,,,,,,,,,
,5ee164fd75cba8192e80c528,627c678cd07deb2b328f6c83,2022-05-11_20h55.21.240,classification_task,2021.2.3,Win32,75.030012,627c6715c52fd12f31907bcf,,,,,,,,,,,,,,,,,,,,,,,l,1,3.0423,"[""0.057"",""0.327"",""0.612"",""0.277""]","[1,1,1,0]",0,40,40,40,1,1,0,,,1,FALSE,,,,,,,,,,,,,,,,,,,,,,,,,,,,,,,
,5ee164fd75cba8192e80c528,627c678cd07deb2b328f6c83,2022-05-11_20h55.21.240,classification_task,2021.2.3,Win32,75.030012,627c6715c52fd12f31907bcf,,,,,,,,,,,,,,,,,,,,,,,l,1,0.5795,"[""0.057"",""0.098"",""0.612"",""0.812""]","[1,0,1,1]",0,41,41,41,1,1,0,,,1,FALSE,,,,,,,,,,,,,,,,,,,,,,,,,,,,,,,
,5ee164fd75cba8192e80c528,627c678cd07deb2b328f6c83,2022-05-11_20h55.21.240,classification_task,2021.2.3,Win32,75.030012,627c6715c52fd12f31907bcf,,,,,,,,,,,,,,,,,,,,,,,l,1,0.4005,"[""0.057"",""0.327"",""0.759"",""0.812""]","[1,1,0,1]",0,42,42,42,1,1,0,,,1,FALSE,,,,,,,,,,,,,,,,,,,,,,,,,,,,,,,
,5ee164fd75cba8192e80c528,627c678cd07deb2b328f6c83,2022-05-11_20h55.21.240,classification_task,2021.2.3,Win32,75.030012,627c6715c52fd12f31907bcf,,,,,,,,,,,,,,,,,,,,,,,l,0,0.8808,"[""0.188"",""0.759"",""0.893"",""0.970""]","[1,0,1,1]",0,43,43,43,1,0,1,,,1,FALSE,,,,,,,,,,,,,,,,,,,,,,,,,,,,,,,
,5ee164fd75cba8192e80c528,627c678cd07deb2b328f6c83,2022-05-11_20h55.21.240,classification_task,2021.2.3,Win32,75.030012,627c6715c52fd12f31907bcf,,,,,,,,,,,,,,,,,,,,,,,l,0,0.3739,"[""0.188"",""0.500"",""0.893"",""0.277""]","[1,1,1,0]",0,44,44,44,1,0,1,,,1,FALSE,,,,,,,,,,,,,,,,,,,,,,,,,,,,,,,
,5ee164fd75cba8192e80c528,627c678cd07deb2b328f6c83,2022-05-11_20h55.21.240,classification_task,2021.2.3,Win32,75.030012,627c6715c52fd12f31907bcf,,,,,,,,,,,,,,,,,,,,,,,l,1,3.6287,"[""0.379"",""0.327"",""0.612"",""0.812""]","[0,1,1,1]",0,45,45,45,1,1,0,,,1,FALSE,,,,,,,,,,,,,,,,,,,,,,,,,,,,,,,
,5ee164fd75cba8192e80c528,627c678cd07deb2b328f6c83,2022-05-11_20h55.21.240,classification_task,2021.2.3,Win32,75.030012,627c6715c52fd12f31907bcf,,,,,,,,,,,,,,,,,,,,,,,a,1,0.7515,"[""0.238"",""0.459"",""0.649"",""0.934""]","[1,1,0,1]",0,46,46,46,1,0,0,,,1,FALSE,,,,,,,,,,,,,,,,,,,,,,,,,,,,,,,
,5ee164fd75cba8192e80c528,627c678cd07deb2b328f6c83,2022-05-11_20h55.21.240,classification_task,2021.2.3,Win32,75.030012,627c6715c52fd12f31907bcf,,,,,,,,,,,,,,,,,,,,,,,l,0,0.6806,"[""0.367"",""0.459"",""0.855"",""0.934""]","[0,1,1,1]",0,47,47,47,1,0,0,,,1,FALSE,,,,,,,,,,,,,,,,,,,,,,,,,,,,,,,
,5ee164fd75cba8192e80c528,627c678cd07deb2b328f6c83,2022-05-11_20h55.21.240,classification_task,2021.2.3,Win32,75.030012,627c6715c52fd12f31907bcf,,,,,,,,,,,,,,,,,,,,,,,a,1,0.5178,"[""0.238"",""0.459"",""0.371"",""0.934""]","[1,1,0,1]",0,48,48,48,1,0,0,,,1,FALSE,,,,,,,,,,,,,,,,,,,,,,,,,,,,,,,
,5ee164fd75cba8192e80c528,627c678cd07deb2b328f6c83,2022-05-11_20h55.21.240,classification_task,2021.2.3,Win32,75.030012,627c6715c52fd12f31907bcf,,,,,,,,,,,,,,,,,,,,,,,a,0,0.7111,"[""0.139"",""0.577"",""0.534"",""0.704""]","[1,0,1,1]",0,49,49,49,1,1,1,,,1,FALSE,,,,,,,,,,,,,,,,,,,,,,,,,,,,,,,
,5ee164fd75cba8192e80c528,627c678cd07deb2b328f6c83,2022-05-11_20h55.21.240,classification_task,2021.2.3,Win32,75.030012,627c6715c52fd12f31907bcf,,,,,,,,,,,,,,,,,,,,,,,l,1,0.7502,"[""0.057"",""0.327"",""0.367"",""0.812""]","[1,1,0,1]",0,50,50,50,1,1,0,,,1,FALSE,,,,,,,,,,,,,,,,,,,,,,,,,,,,,,,
,5ee164fd75cba8192e80c528,627c678cd07deb2b328f6c83,2022-05-11_20h55.21.240,classification_task,2021.2.3,Win32,75.030012,627c6715c52fd12f31907bcf,,,,,,,,,,,,,,,,,,,,,,,l,1,1.1737,"[""0.577"",""0.327"",""0.612"",""0.812""]","[0,1,1,1]",0,51,51,51,1,1,0,,,1,FALSE,,,,,,,,,,,,,,,,,,,,,,,,,,,,,,,
,5ee164fd75cba8192e80c528,627c678cd07deb2b328f6c83,2022-05-11_20h55.21.240,classification_task,2021.2.3,Win32,75.030012,627c6715c52fd12f31907bcf,,,,,,,,,,,,,,,,,,,,,,,a,1,0.8556,"[""0.238"",""0.657"",""0.855"",""0.934""]","[1,0,1,1]",0,52,52,52,1,0,0,,,1,FALSE,,,,,,,,,,,,,,,,,,,,,,,,,,,,,,,
,5ee164fd75cba8192e80c528,627c678cd07deb2b328f6c83,2022-05-11_20h55.21.240,classification_task,2021.2.3,Win32,75.030012,627c6715c52fd12f31907bcf,,,,,,,,,,,,,,,,,,,,,,,l,1,1.4908,"[""0.057"",""0.327"",""0.612"",""0.759""]","[1,1,1,0]",0,53,53,53,1,1,0,,,1,FALSE,,,,,,,,,,,,,,,,,,,,,,,,,,,,,,,
,5ee164fd75cba8192e80c528,627c678cd07deb2b328f6c83,2022-05-11_20h55.21.240,classification_task,2021.2.3,Win32,75.030012,627c6715c52fd12f31907bcf,,,,,,,,,,,,,,,,,,,,,,,l,1,0.8675,"[""0.139"",""0.416"",""0.534"",""0.277""]","[1,1,1,0]",0,54,54,54,1,1,1,,,1,FALSE,,,,,,,,,,,,,,,,,,,,,,,,,,,,,,,
,5ee164fd75cba8192e80c528,627c678cd07deb2b328f6c83,2022-05-11_20h55.21.240,classification_task,2021.2.3,Win32,75.030012,627c6715c52fd12f31907bcf,,,,,,,,,,,,,,,,,,,,,,,l,1,0.4415,"[""0.371"",""0.416"",""0.534"",""0.704""]","[0,1,1,1]",0,55,55,55,1,1,1,,,1,FALSE,,,,,,,,,,,,,,,,,,,,,,,,,,,,,,,
,5ee164fd75cba8192e80c528,627c678cd07deb2b328f6c83,2022-05-11_20h55.21.240,classification_task,2021.2.3,Win32,75.030012,627c6715c52fd12f31907bcf,,,,,,,,,,,,,,,,,,,,,,,a,1,0.8004,"[""0.238"",""0.459"",""0.855"",""0.649""]","[1,1,1,0]",0,56,56,56,1,0,0,,,1,FALSE,,,,,,,,,,,,,,,,,,,,,,,,,,,,,,,
,5ee164fd75cba8192e80c528,627c678cd07deb2b328f6c83,2022-05-11_20h55.21.240,classification_task,2021.2.3,Win32,75.030012,627c6715c52fd12f31907bcf,,,,,,,,,,,,,,,,,,,,,,,a,1,0.7344,"[""0.743"",""0.500"",""0.893"",""0.970""]","[0,1,1,1]",0,57,57,57,1,0,1,,,1,FALSE,,,,,,,,,,,,,,,,,,,,,,,,,,,,,,,
,5ee164fd75cba8192e80c528,627c678cd07deb2b328f6c83,2022-05-11_20h55.21.240,classification_task,2021.2.3,Win32,75.030012,627c6715c52fd12f31907bcf,,,,,,,,,,,,,,,,,,,,,,,l,0,1.2337,"[""0.657"",""0.459"",""0.855"",""0.934""]","[0,1,1,1]",0,58,58,58,1,0,0,,,1,FALSE,,,,,,,,,,,,,,,,,,,,,,,,,,,,,,,
,5ee164fd75cba8192e80c528,627c678cd07deb2b328f6c83,2022-05-11_20h55.21.240,classification_task,2021.2.3,Win32,75.030012,627c6715c52fd12f31907bcf,,,,,,,,,,,,,,,,,,,,,,,a,1,0.7502,"[""0.188"",""0.500"",""0.277"",""0.970""]","[1,1,0,1]",0,59,59,59,1,0,1,,,1,FALSE,,,,,,,,,,,,,,,,,,,,,,,,,,,,,,,
,5ee164fd75cba8192e80c528,627c678cd07deb2b328f6c83,2022-05-11_20h55.21.240,classification_task,2021.2.3,Win32,75.030012,627c6715c52fd12f31907bcf,,,,,,,,,,,,,,,,,,,,,,,a,0,0.4146,"[""0.139"",""0.416"",""0.371"",""0.704""]","[1,1,0,1]",0,60,60,60,1,1,1,,,1,FALSE,,,,,,,,,,,,,,,,,,,,,,,,,,,,,,,
,5ee164fd75cba8192e80c528,627c678cd07deb2b328f6c83,2022-05-11_20h55.21.240,classification_task,2021.2.3,Win32,75.030012,627c6715c52fd12f31907bcf,,,,,,,,,,,,,,,,,,,,,,,a,1,0.281,"[""0.188"",""0.500"",""0.893"",""0.743""]","[1,1,1,0]",0,61,61,61,1,0,1,,,1,FALSE,,,,,,,,,,,,,,,,,,,,,,,,,,,,,,,
,5ee164fd75cba8192e80c528,627c678cd07deb2b328f6c83,2022-05-11_20h55.21.240,classification_task,2021.2.3,Win32,75.030012,627c6715c52fd12f31907bcf,,,,,,,,,,,,,,,,,,,,,,,l,1,1.0284,"[""0.057"",""0.371"",""0.612"",""0.812""]","[1,0,1,1]",0,62,62,62,1,1,0,,,1,FALSE,,,,,,,,,,,,,,,,,,,,,,,,,,,,,,,
,5ee164fd75cba8192e80c528,627c678cd07deb2b328f6c83,2022-05-11_20h55.21.240,classification_task,2021.2.3,Win32,75.030012,627c6715c52fd12f31907bcf,,,,,,,,,,,,,,,,,,,,,,,l,0,0.5339,"[""0.188"",""0.577"",""0.893"",""0.970""]","[1,0,1,1]",0,63,63,63,1,0,1,,,1,FALSE,,,,,,,,,,,,,,,,,,,,,,,,,,,,,,,
,5ee164fd75cba8192e80c528,627c678cd07deb2b328f6c83,2022-05-11_20h55.21.240,classification_task,2021.2.3,Win32,75.030012,627c6715c52fd12f31907bcf,,,,,,,,,,,,,,,,,,,,,,,,,,,,,,,,,,,,,,,0, ,,0,9.122506702,180.8999,0,2,2,2,1,2,3,,,,,,,,,,,,,,,,,,
,5ee164fd75cba8192e80c528,627c678cd07deb2b328f6c83,2022-05-11_20h55.21.240,classification_task,2021.2.3,Win32,75.030012,627c6715c52fd12f31907bcf,,,,,,,,,,,,,,,,,,,,,,,,,,,,,,,,,,,,,,,1,  ,,0,4.945397262,194.646,0,2,2,2,1,2,3,,,,,,,,,,,,,,,,,,
,5ee164fd75cba8192e80c528,627c678cd07deb2b328f6c83,2022-05-11_20h55.21.240,classification_task,2021.2.3,Win32,75.030012,627c6715c52fd12f31907bcf,,,,,,,,,,,,,,,,,,,,,,,,,,,,,,,,,,,,,,,2,  ,,0,5.600630116,189.4308,0,2,2,2,1,2,3,,,,,,,,,,,,,,,,,,
,5ee164fd75cba8192e80c528,627c678cd07deb2b328f6c83,2022-05-11_20h55.21.240,classification_task,2021.2.3,Win32,75.030012,627c6715c52fd12f31907bcf,,,,,,,,,,,,,,,,,,,,,,,,,,,,,,,,,,,,,,,,,,,,,0,2,2,2,1,,3,,,,,,,,,,,,,,,,,,
,5ee164fd75cba8192e80c528,627c678cd07deb2b328f6c83,2022-05-11_20h55.21.240,classification_task,2021.2.3,Win32,75.030012,627c6715c52fd12f31907bcf,,,,,,,,,,,,,,,,,,,,,,,,,,,,,,,,,,,,,,,,,,,,,,,,,,,,,I believe the aid is a competent performer,,0.7,0,5,1697.9117,0,0,0,0,1,0,,,,,
,5ee164fd75cba8192e80c528,627c678cd07deb2b328f6c83,2022-05-11_20h55.21.240,classification_task,2021.2.3,Win32,75.030012,627c6715c52fd12f31907bcf,,,,,,,,,,,,,,,,,,,,,,,,,,,,,,,,,,,,,,,,,,,,,,,,,,,,,I trust the aid,,0.7,0,5,1699.0057,0,0,0,0,1,0,,,,,
,5ee164fd75cba8192e80c528,627c678cd07deb2b328f6c83,2022-05-11_20h55.21.240,classification_task,2021.2.3,Win32,75.030012,627c6715c52fd12f31907bcf,,,,,,,,,,,,,,,,,,,,,,,,,,,,,,,,,,,,,,,,,,,,,,,,,,,,,I have confidence in the advice given by the aid,,0.7,0,5,1702.286,0,0,0,0,1,0,,,,,
,5ee164fd75cba8192e80c528,627c678cd07deb2b328f6c83,2022-05-11_20h55.21.240,classification_task,2021.2.3,Win32,75.030012,627c6715c52fd12f31907bcf,,,,,,,,,,,,,,,,,,,,,,,,,,,,,,,,,,,,,,,,,,,,,,,,,,,,,I can depend on the aid,,0.7,0,4,1706.1734,0,0,0,0,1,0,,,,,
,5ee164fd75cba8192e80c528,627c678cd07deb2b328f6c83,2022-05-11_20h55.21.240,classification_task,2021.2.3,Win32,75.030012,627c6715c52fd12f31907bcf,,,,,,,,,,,,,,,,,,,,,,,,,,,,,,,,,,,,,,,,,,,,,,,,,,,,,I can rely on the aid to behave in consistent ways,,0.7,0,4,1706.7076,0,0,0,0,1,0,,,,,
,5ee164fd75cba8192e80c528,627c678cd07deb2b328f6c83,2022-05-11_20h55.21.240,classification_task,2021.2.3,Win32,75.030012,627c6715c52fd12f31907bcf,,,,,,,,,,,,,,,,,,,,,,,,,,,,,,,,,,,,,,,,,,,,,,,,,,,,,I can rely on the aid to do its best every time I take its advice,,0.7,0,5,1710.9705,0,0,0,0,1,0,,,,,
,5ee164fd75cba8192e80c528,627c678cd07deb2b328f6c83,2022-05-11_20h55.21.240,classification_task,2021.2.3,Win32,75.030012,627c6715c52fd12f31907bcf,,,,,,,,,,,,,,,,,,,,,,,,,,,,,,,,,,,,,,,,,,,,,,,,,,,,,"On trials you completed with assistance from the aid, how frequently did you think the aid was correct?",,0.7,0,100%,,0,0,0,0,1,0,,,,,
,5ee164fd75cba8192e80c528,627c678cd07deb2b328f6c83,2022-05-11_20h55.21.240,classification_task,2021.2.3,Win32,75.030012,627c6715c52fd12f31907bcf,,,,,,,,,,,,,,,,,,,,,,,,,,,,,,,,,,,,,,,,,,,,,,,,,,,,,"On trials you completed without the aid, how frequently did you think you were correct?",,0.7,0,50%,,0,0,0,0,1,0,,,,,
,5ee164fd75cba8192e80c528,627c678cd07deb2b328f6c83,2022-05-11_20h55.21.240,classification_task,2021.2.3,Win32,75.030012,627c6715c52fd12f31907bcf,,,,,,,,,,,,,,,,,,,,,,,,,,,,,,,,,,,,,,,,,,,,,,,,,,,,,,,,,,,0,0,0,0,1,,,,,,
,5ee164fd75cba8192e80c528,627c678cd07deb2b328f6c83,2022-05-11_20h55.21.240,classification_task,2021.2.3,Win32,75.030012,627c6715c52fd12f31907bcf,,,,,,,,,,,,,,,,,,,,,,,,,,,,,,,,,,,,,,,,,,,,,,,,,,,,,,,,,,,,,,,,,space,7.2039,1739.9214,,
,5ee164fd75cba8192e80c528,627c678cd07deb2b328f6c83,2022-05-11_20h55.21.240,classification_task,2021.2.3,Win32,75.030012,627c6715c52fd12f31907bcf,,,,,,,,,,,,,,,,,,,,,,,,,,,,,,,,,,,,,,,,,,,,,,,,,,,,,,,,,,,,,,,,,,,,"Mozilla/5.0 (Windows NT 10.0; Win64; x64) AppleWebKit/537.36 (KHTML, like Gecko) Chrome/101.0.4951.54 Safari/537.36",
,5ee164fd75cba8192e80c528,627c678cd07deb2b328f6c83,2022-05-11_20h55.21.240,classification_task,2021.2.3,Win32,75.030012,627c6715c52fd12f31907bcf,,,,,,,,,,,,,,,,,,,,,,,,,,,,,,,,,,,,,,,,,,,,,,,,,,,,,,,,,,,,,,,,,,,,,HIGHLIGHT
