usingWebGL,participant,session,date,expName,psychopyVersion,OS,frameRate,PROLIFIC_PID,STUDY_ID,SESSION_ID,signatures_friend,signatures_foe,band_ranges_top,band_ranges_bottom,formitemText,formtype,formundefined,formitemWidth,formindex,formresponse,formrt,key_resp_2.keys,key_resp_2.rt,tute_resp.keys,tute_resp.rt,tutorial.thisRepN,tutorial.thisTrialN,tutorial.thisN,tutorial.thisIndex,tutorial.ran,key_resp_4.keys,key_resp_4.rt,key_resp.keys,key_resp.corr,key_resp.rt,lines_presented,is_signal_presented,trials.thisRepN,trials.thisTrialN,trials.thisN,trials.thisIndex,trials.ran,vessel,active_band,lines,is_signal,supported_pos,catch_trial,debrief_formindex,debrief_formitemText,debrief_formtype,debrief_formitemWidth,debrief_formresponse,debrief_formrt,phases.thisRepN,phases.thisTrialN,phases.thisN,phases.thisIndex,phases.ran,phases.order,phase,key_resp_3.keys,trustitemText,trusttype,trustitemWidth,trustindex,trustresponse,trustrt,support_status.thisRepN,support_status.thisTrialN,support_status.thisN,support_status.thisIndex,support_status.ran,support_status.order,key_resp_5.keys,key_resp_5.rt,globalClockTime,userAgent
TRUE,5ee2a44d4c9d7542817268e7,001,2022-04-28_20h10.34.416,classification_task,2021.2.3,Win32,59.57345407,5ee2a44d4c9d7542817268e7,626b377229c10585ec392f89,626b3980dfd671630cbd245a,,,,,,,,,,,,,,,,,,,,,,,,,,,,,,,,,,,,,,,,,,,,,,,,,,,,,,,,,,,,,,,,,,,,
,5ee2a44d4c9d7542817268e7,001,2022-04-28_20h10.34.416,classification_task,2021.2.3,Win32,59.57345407,5ee2a44d4c9d7542817268e7,626b377229c10585ec392f89,626b3980dfd671630cbd245a,"[[""0.248"",""0.508"",""0.770"",""0.918""],[""0.292"",""0.382"",""0.659"",""0.962""]]","[[""0.036"",""0.342"",""0.467"",""0.705""],[""0.105"",""0.170"",""0.572"",""0.840""]]","[1,10]","[100,1000]",Video game experience,,,0.7,0,,,,,,,,,,,,,,,,,,,,,,,,,,,,,,,,,,,,,,,,,,,,,,,,,,,,,,,,,,,
,5ee2a44d4c9d7542817268e7,001,2022-04-28_20h10.34.416,classification_task,2021.2.3,Win32,59.57345407,5ee2a44d4c9d7542817268e7,626b377229c10585ec392f89,626b3980dfd671630cbd245a,,,,,Approximately how many hours did you spend playing video games in the last week?,,,0.7,0,11 hours,,,,,,,,,,,,,,,,,,,,,,,,,,,,,,,,,,,,,,,,,,,,,,,,,,,,,,,,,,
,5ee2a44d4c9d7542817268e7,001,2022-04-28_20h10.34.416,classification_task,2021.2.3,Win32,59.57345407,5ee2a44d4c9d7542817268e7,626b377229c10585ec392f89,626b3980dfd671630cbd245a,,,,,"Which game did you play the most this year? (Enter ""None"" if you didn't play any)",,,0.7,0,Project Makeover,,,,,,,,,,,,,,,,,,,,,,,,,,,,,,,,,,,,,,,,,,,,,,,,,,,,,,,,,,
,5ee2a44d4c9d7542817268e7,001,2022-04-28_20h10.34.416,classification_task,2021.2.3,Win32,59.57345407,5ee2a44d4c9d7542817268e7,626b377229c10585ec392f89,626b3980dfd671630cbd245a,,,,,Visual perception,,,0.7,0,,,,,,,,,,,,,,,,,,,,,,,,,,,,,,,,,,,,,,,,,,,,,,,,,,,,,,,,,,,
,5ee2a44d4c9d7542817268e7,001,2022-04-28_20h10.34.416,classification_task,2021.2.3,Win32,59.57345407,5ee2a44d4c9d7542817268e7,626b377229c10585ec392f89,626b3980dfd671630cbd245a,,,,,Do you have any form of color blindness?,,,0.7,0,No,79.2944,,,,,,,,,,,,,,,,,,,,,,,,,,,,,,,,,,,,,,,,,,,,,,,,,,,,,,,,,
,5ee2a44d4c9d7542817268e7,001,2022-04-28_20h10.34.416,classification_task,2021.2.3,Win32,59.57345407,5ee2a44d4c9d7542817268e7,626b377229c10585ec392f89,626b3980dfd671630cbd245a,,,,,Do you use software to change the colour temperature of your screen (e.g. f.lux)?,,,0.7,0,No,86.0936,,,,,,,,,,,,,,,,,,,,,,,,,,,,,,,,,,,,,,,,,,,,,,,,,,,,,,,,,
,5ee2a44d4c9d7542817268e7,001,2022-04-28_20h10.34.416,classification_task,2021.2.3,Win32,59.57345407,5ee2a44d4c9d7542817268e7,626b377229c10585ec392f89,626b3980dfd671630cbd245a,,,,,,,,,,,,space,57.3901,space,17.1441,0,0,0,0,1,,,,,,,,,,,,,,,,,,,,,,,,,,,,,,,,,,,,,,,,,,,,,,,,
,5ee2a44d4c9d7542817268e7,001,2022-04-28_20h10.34.416,classification_task,2021.2.3,Win32,59.57345407,5ee2a44d4c9d7542817268e7,626b377229c10585ec392f89,626b3980dfd671630cbd245a,,,,,,,,,,,,,,space,19.2835,1,0,1,0,1,,,,,,,,,,,,,,,,,,,,,,,,,,,,,,,,,,,,,,,,,,,,,,,,
,5ee2a44d4c9d7542817268e7,001,2022-04-28_20h10.34.416,classification_task,2021.2.3,Win32,59.57345407,5ee2a44d4c9d7542817268e7,626b377229c10585ec392f89,626b3980dfd671630cbd245a,,,,,,,,,,,,,,space,34.7212,2,0,2,0,1,,,,,,,,,,,,,,,,,,,,,,,,,,,,,,,,,,,,,,,,,,,,,,,,
,5ee2a44d4c9d7542817268e7,001,2022-04-28_20h10.34.416,classification_task,2021.2.3,Win32,59.57345407,5ee2a44d4c9d7542817268e7,626b377229c10585ec392f89,626b3980dfd671630cbd245a,,,,,,,,,,,,,,space,15.2179,3,0,3,0,1,,,,,,,,,,,,,,,,,,,,,,,,,,,,,,,,,,,,,,,,,,,,,,,,
,5ee2a44d4c9d7542817268e7,001,2022-04-28_20h10.34.416,classification_task,2021.2.3,Win32,59.57345407,5ee2a44d4c9d7542817268e7,626b377229c10585ec392f89,626b3980dfd671630cbd245a,,,,,,,,,,,,,,space,16.7642,4,0,4,0,1,,,,,,,,,,,,,,,,,,,,,,,,,,,,,,,,,,,,,,,,,,,,,,,,
,5ee2a44d4c9d7542817268e7,001,2022-04-28_20h10.34.416,classification_task,2021.2.3,Win32,59.57345407,5ee2a44d4c9d7542817268e7,626b377229c10585ec392f89,626b3980dfd671630cbd245a,,,,,,,,,,,,,,,,,,,,,space,37.2046,l,0,9.0377,"[""0.248"",""0.508"",""0.770"",""0.625""]","[1,1,1,0]",0,0,0,0,1,0,0,,,1,FALSE,,,,,,,,,,,,,,,,,,,,,,,,,,,,,,
,5ee2a44d4c9d7542817268e7,001,2022-04-28_20h10.34.416,classification_task,2021.2.3,Win32,59.57345407,5ee2a44d4c9d7542817268e7,626b377229c10585ec392f89,626b3980dfd671630cbd245a,,,,,,,,,,,,,,,,,,,,,,,,0,,"[""0.625"",""0.170"",""0.572"",""0.840""]","[0,1,1,1]",0,1,1,1,1,1,1,,,1,FALSE,,,,,,,,,,,,,,,,,,,,,,,,,,,,,,
,5ee2a44d4c9d7542817268e7,001,2022-04-28_20h10.34.416,classification_task,2021.2.3,Win32,59.57345407,5ee2a44d4c9d7542817268e7,626b377229c10585ec392f89,626b3980dfd671630cbd245a,,,,,,,,,,,,,,,,,,,,,,,l,1,5.6041,"[""0.036"",""0.342"",""0.467"",""0.431""]","[1,1,1,0]",0,2,2,2,1,1,0,,,1,FALSE,,,,,,,,,,,,,,,,,,,,,,,,,,,,,,
,5ee2a44d4c9d7542817268e7,001,2022-04-28_20h10.34.416,classification_task,2021.2.3,Win32,59.57345407,5ee2a44d4c9d7542817268e7,626b377229c10585ec392f89,626b3980dfd671630cbd245a,,,,,,,,,,,,,,,,,,,,,,,l,1,4.3151,"[""0.105"",""0.170"",""0.572"",""0.625""]","[1,1,1,0]",0,3,3,3,1,1,1,,,1,FALSE,,,,,,,,,,,,,,,,,,,,,,,,,,,,,,
,5ee2a44d4c9d7542817268e7,001,2022-04-28_20h10.34.416,classification_task,2021.2.3,Win32,59.57345407,5ee2a44d4c9d7542817268e7,626b377229c10585ec392f89,626b3980dfd671630cbd245a,,,,,,,,,,,,,,,,,,,,,,,a,1,3.2808,"[""0.292"",""0.625"",""0.659"",""0.962""]","[1,0,1,1]",0,4,4,4,1,0,1,,,1,FALSE,,,,,,,,,,,,,,,,,,,,,,,,,,,,,,
,5ee2a44d4c9d7542817268e7,001,2022-04-28_20h10.34.416,classification_task,2021.2.3,Win32,59.57345407,5ee2a44d4c9d7542817268e7,626b377229c10585ec392f89,626b3980dfd671630cbd245a,,,,,,,,,,,,,,,,,,,,,,,l,1,3.1009,"[""0.036"",""0.342"",""0.431"",""0.705""]","[1,1,0,1]",0,5,5,5,1,1,0,,,1,FALSE,,,,,,,,,,,,,,,,,,,,,,,,,,,,,,
,5ee2a44d4c9d7542817268e7,001,2022-04-28_20h10.34.416,classification_task,2021.2.3,Win32,59.57345407,5ee2a44d4c9d7542817268e7,626b377229c10585ec392f89,626b3980dfd671630cbd245a,,,,,,,,,,,,,,,,,,,,,,,l,1,3.5126,"[""0.105"",""0.209"",""0.572"",""0.840""]","[1,0,1,1]",0,6,6,6,1,1,1,,,1,FALSE,,,,,,,,,,,,,,,,,,,,,,,,,,,,,,
,5ee2a44d4c9d7542817268e7,001,2022-04-28_20h10.34.416,classification_task,2021.2.3,Win32,59.57345407,5ee2a44d4c9d7542817268e7,626b377229c10585ec392f89,626b3980dfd671630cbd245a,,,,,,,,,,,,,,,,,,,,,,,l,1,2.8808,"[""0.036"",""0.419"",""0.467"",""0.705""]","[1,0,1,1]",0,7,7,7,1,1,0,,,1,FALSE,,,,,,,,,,,,,,,,,,,,,,,,,,,,,,
,5ee2a44d4c9d7542817268e7,001,2022-04-28_20h10.34.416,classification_task,2021.2.3,Win32,59.57345407,5ee2a44d4c9d7542817268e7,626b377229c10585ec392f89,626b3980dfd671630cbd245a,,,,,,,,,,,,,,,,,,,,,,,l,0,6.7018,"[""0.292"",""0.382"",""0.208"",""0.962""]","[1,1,0,1]",0,8,8,8,1,0,1,,,1,FALSE,,,,,,,,,,,,,,,,,,,,,,,,,,,,,,
,5ee2a44d4c9d7542817268e7,001,2022-04-28_20h10.34.416,classification_task,2021.2.3,Win32,59.57345407,5ee2a44d4c9d7542817268e7,626b377229c10585ec392f89,626b3980dfd671630cbd245a,,,,,,,,,,,,,,,,,,,,,,,a,1,6.1333,"[""0.612"",""0.382"",""0.659"",""0.962""]","[0,1,1,1]",0,9,9,9,1,0,1,,,1,FALSE,,,,,,,,,,,,,,,,,,,,,,,,,,,,,,
,5ee2a44d4c9d7542817268e7,001,2022-04-28_20h10.34.416,classification_task,2021.2.3,Win32,59.57345407,5ee2a44d4c9d7542817268e7,626b377229c10585ec392f89,626b3980dfd671630cbd245a,,,,,,,,,,,,,,,,,,,,,,,a,1,5.9649,"[""0.431"",""0.508"",""0.770"",""0.918""]","[0,1,1,1]",0,10,10,10,1,0,0,,,1,FALSE,,,,,,,,,,,,,,,,,,,,,,,,,,,,,,
,5ee2a44d4c9d7542817268e7,001,2022-04-28_20h10.34.416,classification_task,2021.2.3,Win32,59.57345407,5ee2a44d4c9d7542817268e7,626b377229c10585ec392f89,626b3980dfd671630cbd245a,,,,,,,,,,,,,,,,,,,,,,,a,1,3.5614,"[""0.292"",""0.382"",""0.659"",""0.430""]","[1,1,1,0]",0,11,11,11,1,0,1,,,1,FALSE,,,,,,,,,,,,,,,,,,,,,,,,,,,,,,
,5ee2a44d4c9d7542817268e7,001,2022-04-28_20h10.34.416,classification_task,2021.2.3,Win32,59.57345407,5ee2a44d4c9d7542817268e7,626b377229c10585ec392f89,626b3980dfd671630cbd245a,,,,,,,,,,,,,,,,,,,,,,,l,1,4.4162,"[""0.105"",""0.170"",""0.071"",""0.840""]","[1,1,0,1]",0,12,12,12,1,1,1,,,1,FALSE,,,,,,,,,,,,,,,,,,,,,,,,,,,,,,
,5ee2a44d4c9d7542817268e7,001,2022-04-28_20h10.34.416,classification_task,2021.2.3,Win32,59.57345407,5ee2a44d4c9d7542817268e7,626b377229c10585ec392f89,626b3980dfd671630cbd245a,,,,,,,,,,,,,,,,,,,,,,,a,1,3.1474,"[""0.248"",""0.508"",""0.431"",""0.918""]","[1,1,0,1]",0,13,13,13,1,0,0,,,1,FALSE,,,,,,,,,,,,,,,,,,,,,,,,,,,,,,
,5ee2a44d4c9d7542817268e7,001,2022-04-28_20h10.34.416,classification_task,2021.2.3,Win32,59.57345407,5ee2a44d4c9d7542817268e7,626b377229c10585ec392f89,626b3980dfd671630cbd245a,,,,,,,,,,,,,,,,,,,,,,,a,1,2.4496,"[""0.248"",""0.428"",""0.770"",""0.918""]","[1,0,1,1]",0,14,14,14,1,0,0,,,1,FALSE,,,,,,,,,,,,,,,,,,,,,,,,,,,,,,
,5ee2a44d4c9d7542817268e7,001,2022-04-28_20h10.34.416,classification_task,2021.2.3,Win32,59.57345407,5ee2a44d4c9d7542817268e7,626b377229c10585ec392f89,626b3980dfd671630cbd245a,,,,,,,,,,,,,,,,,,,,,,,l,1,3.7325,"[""0.417"",""0.342"",""0.467"",""0.705""]","[0,1,1,1]",0,15,15,15,1,1,0,,,1,FALSE,,,,,,,,,,,,,,,,,,,,,,,,,,,,,,
,5ee2a44d4c9d7542817268e7,001,2022-04-28_20h10.34.416,classification_task,2021.2.3,Win32,59.57345407,5ee2a44d4c9d7542817268e7,626b377229c10585ec392f89,626b3980dfd671630cbd245a,,,,,,,,,,,,,,,,,,,,,,,l,1,2.8333,"[""0.430"",""0.342"",""0.467"",""0.705""]","[0,1,1,1]",0,16,16,16,1,1,0,,,1,FALSE,,,,,,,,,,,,,,,,,,,,,,,,,,,,,,
,5ee2a44d4c9d7542817268e7,001,2022-04-28_20h10.34.416,classification_task,2021.2.3,Win32,59.57345407,5ee2a44d4c9d7542817268e7,626b377229c10585ec392f89,626b3980dfd671630cbd245a,,,,,,,,,,,,,,,,,,,,,,,l,1,2.6792,"[""0.105"",""0.170"",""0.618"",""0.840""]","[1,1,0,1]",0,17,17,17,1,1,1,,,1,FALSE,,,,,,,,,,,,,,,,,,,,,,,,,,,,,,
,5ee2a44d4c9d7542817268e7,001,2022-04-28_20h10.34.416,classification_task,2021.2.3,Win32,59.57345407,5ee2a44d4c9d7542817268e7,626b377229c10585ec392f89,626b3980dfd671630cbd245a,,,,,,,,,,,,,,,,,,,,,,,a,1,3.166,"[""0.292"",""0.382"",""0.431"",""0.962""]","[1,1,0,1]",0,18,18,18,1,0,1,,,1,FALSE,,,,,,,,,,,,,,,,,,,,,,,,,,,,,,
,5ee2a44d4c9d7542817268e7,001,2022-04-28_20h10.34.416,classification_task,2021.2.3,Win32,59.57345407,5ee2a44d4c9d7542817268e7,626b377229c10585ec392f89,626b3980dfd671630cbd245a,,,,,,,,,,,,,,,,,,,,,,,a,1,3.1981,"[""0.248"",""0.508"",""0.770"",""0.417""]","[1,1,1,0]",0,19,19,19,1,0,0,,,1,FALSE,,,,,,,,,,,,,,,,,,,,,,,,,,,,,,
,5ee2a44d4c9d7542817268e7,001,2022-04-28_20h10.34.416,classification_task,2021.2.3,Win32,59.57345407,5ee2a44d4c9d7542817268e7,626b377229c10585ec392f89,626b3980dfd671630cbd245a,,,,,,,,,,,,,,,,,,,,,,,l,0,6.928,"[""0.292"",""0.209"",""0.659"",""0.962""]","[1,0,1,1]",0,20,20,20,1,0,1,,,1,FALSE,,,,,,,,,,,,,,,,,,,,,,,,,,,,,,
,5ee2a44d4c9d7542817268e7,001,2022-04-28_20h10.34.416,classification_task,2021.2.3,Win32,59.57345407,5ee2a44d4c9d7542817268e7,626b377229c10585ec392f89,626b3980dfd671630cbd245a,,,,,,,,,,,,,,,,,,,,,,,l,1,2.795,"[""0.036"",""0.342"",""0.625"",""0.705""]","[1,1,0,1]",0,21,21,21,1,1,0,,,1,FALSE,,,,,,,,,,,,,,,,,,,,,,,,,,,,,,
,5ee2a44d4c9d7542817268e7,001,2022-04-28_20h10.34.416,classification_task,2021.2.3,Win32,59.57345407,5ee2a44d4c9d7542817268e7,626b377229c10585ec392f89,626b3980dfd671630cbd245a,,,,,,,,,,,,,,,,,,,,,,,l,1,3.4159,"[""0.036"",""0.342"",""0.467"",""0.071""]","[1,1,1,0]",0,22,22,22,1,1,0,,,1,FALSE,,,,,,,,,,,,,,,,,,,,,,,,,,,,,,
,5ee2a44d4c9d7542817268e7,001,2022-04-28_20h10.34.416,classification_task,2021.2.3,Win32,59.57345407,5ee2a44d4c9d7542817268e7,626b377229c10585ec392f89,626b3980dfd671630cbd245a,,,,,,,,,,,,,,,,,,,,,,,l,1,4.8641,"[""0.105"",""0.624"",""0.572"",""0.840""]","[1,0,1,1]",0,23,23,23,1,1,1,,,1,FALSE,,,,,,,,,,,,,,,,,,,,,,,,,,,,,,
,5ee2a44d4c9d7542817268e7,001,2022-04-28_20h10.34.416,classification_task,2021.2.3,Win32,59.57345407,5ee2a44d4c9d7542817268e7,626b377229c10585ec392f89,626b3980dfd671630cbd245a,,,,,,,,,,,,,,,,,,,,,,,a,1,2.6353,"[""0.292"",""0.382"",""0.659"",""0.431""]","[1,1,1,0]",0,24,24,24,1,0,1,,,1,FALSE,,,,,,,,,,,,,,,,,,,,,,,,,,,,,,
,5ee2a44d4c9d7542817268e7,001,2022-04-28_20h10.34.416,classification_task,2021.2.3,Win32,59.57345407,5ee2a44d4c9d7542817268e7,626b377229c10585ec392f89,626b3980dfd671630cbd245a,,,,,,,,,,,,,,,,,,,,,,,l,1,2.8326,"[""0.806"",""0.170"",""0.572"",""0.840""]","[0,1,1,1]",0,25,25,25,1,1,1,,,1,FALSE,,,,,,,,,,,,,,,,,,,,,,,,,,,,,,
,5ee2a44d4c9d7542817268e7,001,2022-04-28_20h10.34.416,classification_task,2021.2.3,Win32,59.57345407,5ee2a44d4c9d7542817268e7,626b377229c10585ec392f89,626b3980dfd671630cbd245a,,,,,,,,,,,,,,,,,,,,,,,a,1,2.4944,"[""0.248"",""0.428"",""0.770"",""0.918""]","[1,0,1,1]",0,26,26,26,1,0,0,,,1,FALSE,,,,,,,,,,,,,,,,,,,,,,,,,,,,,,
,5ee2a44d4c9d7542817268e7,001,2022-04-28_20h10.34.416,classification_task,2021.2.3,Win32,59.57345407,5ee2a44d4c9d7542817268e7,626b377229c10585ec392f89,626b3980dfd671630cbd245a,,,,,,,,,,,,,,,,,,,,,,,l,0,5.2649,"[""0.431"",""0.508"",""0.770"",""0.918""]","[0,1,1,1]",0,27,27,27,1,0,0,,,1,FALSE,,,,,,,,,,,,,,,,,,,,,,,,,,,,,,
,5ee2a44d4c9d7542817268e7,001,2022-04-28_20h10.34.416,classification_task,2021.2.3,Win32,59.57345407,5ee2a44d4c9d7542817268e7,626b377229c10585ec392f89,626b3980dfd671630cbd245a,,,,,,,,,,,,,,,,,,,,,,,a,1,4.5978,"[""0.431"",""0.382"",""0.659"",""0.962""]","[0,1,1,1]",0,28,28,28,1,0,1,,,1,FALSE,,,,,,,,,,,,,,,,,,,,,,,,,,,,,,
,5ee2a44d4c9d7542817268e7,001,2022-04-28_20h10.34.416,classification_task,2021.2.3,Win32,59.57345407,5ee2a44d4c9d7542817268e7,626b377229c10585ec392f89,626b3980dfd671630cbd245a,,,,,,,,,,,,,,,,,,,,,,,l,1,3.4025,"[""0.105"",""0.170"",""0.572"",""0.209""]","[1,1,1,0]",0,29,29,29,1,1,1,,,1,FALSE,,,,,,,,,,,,,,,,,,,,,,,,,,,,,,
,5ee2a44d4c9d7542817268e7,001,2022-04-28_20h10.34.416,classification_task,2021.2.3,Win32,59.57345407,5ee2a44d4c9d7542817268e7,626b377229c10585ec392f89,626b3980dfd671630cbd245a,,,,,,,,,,,,,,,,,,,,,,,a,1,2.369,"[""0.248"",""0.508"",""0.417"",""0.918""]","[1,1,0,1]",0,30,30,30,1,0,0,,,1,FALSE,,,,,,,,,,,,,,,,,,,,,,,,,,,,,,
,5ee2a44d4c9d7542817268e7,001,2022-04-28_20h10.34.416,classification_task,2021.2.3,Win32,59.57345407,5ee2a44d4c9d7542817268e7,626b377229c10585ec392f89,626b3980dfd671630cbd245a,,,,,,,,,,,,,,,,,,,,,,,l,1,2.2644,"[""0.036"",""0.624"",""0.467"",""0.705""]","[1,0,1,1]",0,31,31,31,1,1,0,,,1,FALSE,,,,,,,,,,,,,,,,,,,,,,,,,,,,,,
,5ee2a44d4c9d7542817268e7,001,2022-04-28_20h10.34.416,classification_task,2021.2.3,Win32,59.57345407,5ee2a44d4c9d7542817268e7,626b377229c10585ec392f89,626b3980dfd671630cbd245a,,,,,,,,,,,,,,,,,,,,,,,l,1,4.0465,"[""0.036"",""0.342"",""0.467"",""0.428""]","[1,1,1,0]",0,32,32,32,1,1,0,,,1,FALSE,,,,,,,,,,,,,,,,,,,,,,,,,,,,,,
,5ee2a44d4c9d7542817268e7,001,2022-04-28_20h10.34.416,classification_task,2021.2.3,Win32,59.57345407,5ee2a44d4c9d7542817268e7,626b377229c10585ec392f89,626b3980dfd671630cbd245a,,,,,,,,,,,,,,,,,,,,,,,l,0,5.4039,"[""0.248"",""0.508"",""0.770"",""0.071""]","[1,1,1,0]",0,33,33,33,1,0,0,,,1,FALSE,,,,,,,,,,,,,,,,,,,,,,,,,,,,,,
,5ee2a44d4c9d7542817268e7,001,2022-04-28_20h10.34.416,classification_task,2021.2.3,Win32,59.57345407,5ee2a44d4c9d7542817268e7,626b377229c10585ec392f89,626b3980dfd671630cbd245a,,,,,,,,,,,,,,,,,,,,,,,a,1,2.4529,"[""0.292"",""0.382"",""0.659"",""0.209""]","[1,1,1,0]",0,34,34,34,1,0,1,,,1,FALSE,,,,,,,,,,,,,,,,,,,,,,,,,,,,,,
,5ee2a44d4c9d7542817268e7,001,2022-04-28_20h10.34.416,classification_task,2021.2.3,Win32,59.57345407,5ee2a44d4c9d7542817268e7,626b377229c10585ec392f89,626b3980dfd671630cbd245a,,,,,,,,,,,,,,,,,,,,,,,l,1,1.7019,"[""0.036"",""0.624"",""0.467"",""0.705""]","[1,0,1,1]",0,35,35,35,1,1,0,,,1,FALSE,,,,,,,,,,,,,,,,,,,,,,,,,,,,,,
,5ee2a44d4c9d7542817268e7,001,2022-04-28_20h10.34.416,classification_task,2021.2.3,Win32,59.57345407,5ee2a44d4c9d7542817268e7,626b377229c10585ec392f89,626b3980dfd671630cbd245a,,,,,,,,,,,,,,,,,,,,,,,a,0,3.6,"[""0.428"",""0.342"",""0.467"",""0.705""]","[0,1,1,1]",0,36,36,36,1,1,0,,,1,FALSE,,,,,,,,,,,,,,,,,,,,,,,,,,,,,,
,5ee2a44d4c9d7542817268e7,001,2022-04-28_20h10.34.416,classification_task,2021.2.3,Win32,59.57345407,5ee2a44d4c9d7542817268e7,626b377229c10585ec392f89,626b3980dfd671630cbd245a,,,,,,,,,,,,,,,,,,,,,,,l,1,3.2209,"[""0.105"",""0.170"",""0.430"",""0.840""]","[1,1,0,1]",0,37,37,37,1,1,1,,,1,FALSE,,,,,,,,,,,,,,,,,,,,,,,,,,,,,,
,5ee2a44d4c9d7542817268e7,001,2022-04-28_20h10.34.416,classification_task,2021.2.3,Win32,59.57345407,5ee2a44d4c9d7542817268e7,626b377229c10585ec392f89,626b3980dfd671630cbd245a,,,,,,,,,,,,,,,,,,,,,,,a,1,3.7021,"[""0.248"",""0.431"",""0.770"",""0.918""]","[1,0,1,1]",0,38,38,38,1,0,0,,,1,FALSE,,,,,,,,,,,,,,,,,,,,,,,,,,,,,,
,5ee2a44d4c9d7542817268e7,001,2022-04-28_20h10.34.416,classification_task,2021.2.3,Win32,59.57345407,5ee2a44d4c9d7542817268e7,626b377229c10585ec392f89,626b3980dfd671630cbd245a,,,,,,,,,,,,,,,,,,,,,,,a,1,1.3505,"[""0.431"",""0.382"",""0.659"",""0.962""]","[0,1,1,1]",0,39,39,39,1,0,1,,,1,FALSE,,,,,,,,,,,,,,,,,,,,,,,,,,,,,,
,5ee2a44d4c9d7542817268e7,001,2022-04-28_20h10.34.416,classification_task,2021.2.3,Win32,59.57345407,5ee2a44d4c9d7542817268e7,626b377229c10585ec392f89,626b3980dfd671630cbd245a,,,,,,,,,,,,,,,,,,,,,,,l,0,3.3973,"[""0.612"",""0.508"",""0.770"",""0.918""]","[0,1,1,1]",0,40,40,40,1,0,0,,,1,FALSE,,,,,,,,,,,,,,,,,,,,,,,,,,,,,,
,5ee2a44d4c9d7542817268e7,001,2022-04-28_20h10.34.416,classification_task,2021.2.3,Win32,59.57345407,5ee2a44d4c9d7542817268e7,626b377229c10585ec392f89,626b3980dfd671630cbd245a,,,,,,,,,,,,,,,,,,,,,,,l,1,1.3455,"[""0.105"",""0.071"",""0.572"",""0.840""]","[1,0,1,1]",0,41,41,41,1,1,1,,,1,FALSE,,,,,,,,,,,,,,,,,,,,,,,,,,,,,,
,5ee2a44d4c9d7542817268e7,001,2022-04-28_20h10.34.416,classification_task,2021.2.3,Win32,59.57345407,5ee2a44d4c9d7542817268e7,626b377229c10585ec392f89,626b3980dfd671630cbd245a,,,,,,,,,,,,,,,,,,,,,,,a,1,2.9162,"[""0.248"",""0.508"",""0.417"",""0.918""]","[1,1,0,1]",0,42,42,42,1,0,0,,,1,FALSE,,,,,,,,,,,,,,,,,,,,,,,,,,,,,,
,5ee2a44d4c9d7542817268e7,001,2022-04-28_20h10.34.416,classification_task,2021.2.3,Win32,59.57345407,5ee2a44d4c9d7542817268e7,626b377229c10585ec392f89,626b3980dfd671630cbd245a,,,,,,,,,,,,,,,,,,,,,,,a,0,2.9843,"[""0.624"",""0.170"",""0.572"",""0.840""]","[0,1,1,1]",0,43,43,43,1,1,1,,,1,FALSE,,,,,,,,,,,,,,,,,,,,,,,,,,,,,,
,5ee2a44d4c9d7542817268e7,001,2022-04-28_20h10.34.416,classification_task,2021.2.3,Win32,59.57345407,5ee2a44d4c9d7542817268e7,626b377229c10585ec392f89,626b3980dfd671630cbd245a,,,,,,,,,,,,,,,,,,,,,,,l,1,1.717,"[""0.105"",""0.170"",""0.572"",""0.428""]","[1,1,1,0]",0,44,44,44,1,1,1,,,1,FALSE,,,,,,,,,,,,,,,,,,,,,,,,,,,,,,
,5ee2a44d4c9d7542817268e7,001,2022-04-28_20h10.34.416,classification_task,2021.2.3,Win32,59.57345407,5ee2a44d4c9d7542817268e7,626b377229c10585ec392f89,626b3980dfd671630cbd245a,,,,,,,,,,,,,,,,,,,,,,,l,0,3.931,"[""0.292"",""0.382"",""0.419"",""0.962""]","[1,1,0,1]",0,45,45,45,1,0,1,,,1,FALSE,,,,,,,,,,,,,,,,,,,,,,,,,,,,,,
,5ee2a44d4c9d7542817268e7,001,2022-04-28_20h10.34.416,classification_task,2021.2.3,Win32,59.57345407,5ee2a44d4c9d7542817268e7,626b377229c10585ec392f89,626b3980dfd671630cbd245a,,,,,,,,,,,,,,,,,,,,,,,l,1,1.5703,"[""0.036"",""0.342"",""0.428"",""0.705""]","[1,1,0,1]",0,46,46,46,1,1,0,,,1,FALSE,,,,,,,,,,,,,,,,,,,,,,,,,,,,,,
,5ee2a44d4c9d7542817268e7,001,2022-04-28_20h10.34.416,classification_task,2021.2.3,Win32,59.57345407,5ee2a44d4c9d7542817268e7,626b377229c10585ec392f89,626b3980dfd671630cbd245a,,,,,,,,,,,,,,,,,,,,,,,a,1,2.4965,"[""0.292"",""0.208"",""0.659"",""0.962""]","[1,0,1,1]",0,47,47,47,1,0,1,,,1,FALSE,,,,,,,,,,,,,,,,,,,,,,,,,,,,,,
,5ee2a44d4c9d7542817268e7,001,2022-04-28_20h10.34.416,classification_task,2021.2.3,Win32,59.57345407,5ee2a44d4c9d7542817268e7,626b377229c10585ec392f89,626b3980dfd671630cbd245a,,,,,,,,,,,,,,,,,,,,,,,l,1,1.2855,"[""0.105"",""0.170"",""0.417"",""0.840""]","[1,1,0,1]",0,48,48,48,1,1,1,,,1,FALSE,,,,,,,,,,,,,,,,,,,,,,,,,,,,,,
,5ee2a44d4c9d7542817268e7,001,2022-04-28_20h10.34.416,classification_task,2021.2.3,Win32,59.57345407,5ee2a44d4c9d7542817268e7,626b377229c10585ec392f89,626b3980dfd671630cbd245a,,,,,,,,,,,,,,,,,,,,,,,l,1,1.4684,"[""0.036"",""0.342"",""0.467"",""0.071""]","[1,1,1,0]",0,49,49,49,1,1,0,,,1,FALSE,,,,,,,,,,,,,,,,,,,,,,,,,,,,,,
,5ee2a44d4c9d7542817268e7,001,2022-04-28_20h10.34.416,classification_task,2021.2.3,Win32,59.57345407,5ee2a44d4c9d7542817268e7,626b377229c10585ec392f89,626b3980dfd671630cbd245a,,,,,,,,,,,,,,,,,,,,,,,a,1,1.2981,"[""0.417"",""0.382"",""0.659"",""0.962""]","[0,1,1,1]",0,50,50,50,1,0,1,,,1,FALSE,,,,,,,,,,,,,,,,,,,,,,,,,,,,,,
,5ee2a44d4c9d7542817268e7,001,2022-04-28_20h10.34.416,classification_task,2021.2.3,Win32,59.57345407,5ee2a44d4c9d7542817268e7,626b377229c10585ec392f89,626b3980dfd671630cbd245a,,,,,,,,,,,,,,,,,,,,,,,a,1,2.215,"[""0.248"",""0.625"",""0.770"",""0.918""]","[1,0,1,1]",0,51,51,51,1,0,0,,,1,FALSE,,,,,,,,,,,,,,,,,,,,,,,,,,,,,,
,5ee2a44d4c9d7542817268e7,001,2022-04-28_20h10.34.416,classification_task,2021.2.3,Win32,59.57345407,5ee2a44d4c9d7542817268e7,626b377229c10585ec392f89,626b3980dfd671630cbd245a,,,,,,,,,,,,,,,,,,,,,,,l,1,1.0667,"[""0.036"",""0.428"",""0.467"",""0.705""]","[1,0,1,1]",0,52,52,52,1,1,0,,,1,FALSE,,,,,,,,,,,,,,,,,,,,,,,,,,,,,,
,5ee2a44d4c9d7542817268e7,001,2022-04-28_20h10.34.416,classification_task,2021.2.3,Win32,59.57345407,5ee2a44d4c9d7542817268e7,626b377229c10585ec392f89,626b3980dfd671630cbd245a,,,,,,,,,,,,,,,,,,,,,,,l,1,3.0992,"[""0.806"",""0.342"",""0.467"",""0.705""]","[0,1,1,1]",0,53,53,53,1,1,0,,,1,FALSE,,,,,,,,,,,,,,,,,,,,,,,,,,,,,,
,5ee2a44d4c9d7542817268e7,001,2022-04-28_20h10.34.416,classification_task,2021.2.3,Win32,59.57345407,5ee2a44d4c9d7542817268e7,626b377229c10585ec392f89,626b3980dfd671630cbd245a,,,,,,,,,,,,,,,,,,,,,,,a,1,2.2684,"[""0.248"",""0.508"",""0.209"",""0.918""]","[1,1,0,1]",0,54,54,54,1,0,0,,,1,FALSE,,,,,,,,,,,,,,,,,,,,,,,,,,,,,,
,5ee2a44d4c9d7542817268e7,001,2022-04-28_20h10.34.416,classification_task,2021.2.3,Win32,59.57345407,5ee2a44d4c9d7542817268e7,626b377229c10585ec392f89,626b3980dfd671630cbd245a,,,,,,,,,,,,,,,,,,,,,,,a,1,1.6352,"[""0.292"",""0.382"",""0.659"",""0.431""]","[1,1,1,0]",0,55,55,55,1,0,1,,,1,FALSE,,,,,,,,,,,,,,,,,,,,,,,,,,,,,,
,5ee2a44d4c9d7542817268e7,001,2022-04-28_20h10.34.416,classification_task,2021.2.3,Win32,59.57345407,5ee2a44d4c9d7542817268e7,626b377229c10585ec392f89,626b3980dfd671630cbd245a,,,,,,,,,,,,,,,,,,,,,,,l,1,1.3825,"[""0.105"",""0.170"",""0.572"",""0.625""]","[1,1,1,0]",0,56,56,56,1,1,1,,,1,FALSE,,,,,,,,,,,,,,,,,,,,,,,,,,,,,,
,5ee2a44d4c9d7542817268e7,001,2022-04-28_20h10.34.416,classification_task,2021.2.3,Win32,59.57345407,5ee2a44d4c9d7542817268e7,626b377229c10585ec392f89,626b3980dfd671630cbd245a,,,,,,,,,,,,,,,,,,,,,,,a,1,3.5314,"[""0.248"",""0.508"",""0.770"",""0.612""]","[1,1,1,0]",0,57,57,57,1,0,0,,,1,FALSE,,,,,,,,,,,,,,,,,,,,,,,,,,,,,,
,5ee2a44d4c9d7542817268e7,001,2022-04-28_20h10.34.416,classification_task,2021.2.3,Win32,59.57345407,5ee2a44d4c9d7542817268e7,626b377229c10585ec392f89,626b3980dfd671630cbd245a,,,,,,,,,,,,,,,,,,,,,,,a,1,2.573,"[""0.292"",""0.625"",""0.659"",""0.962""]","[1,0,1,1]",0,58,58,58,1,0,1,,,1,FALSE,,,,,,,,,,,,,,,,,,,,,,,,,,,,,,
,5ee2a44d4c9d7542817268e7,001,2022-04-28_20h10.34.416,classification_task,2021.2.3,Win32,59.57345407,5ee2a44d4c9d7542817268e7,626b377229c10585ec392f89,626b3980dfd671630cbd245a,,,,,,,,,,,,,,,,,,,,,,,l,1,1.0187,"[""0.036"",""0.342"",""0.430"",""0.705""]","[1,1,0,1]",0,59,59,59,1,1,0,,,1,FALSE,,,,,,,,,,,,,,,,,,,,,,,,,,,,,,
,5ee2a44d4c9d7542817268e7,001,2022-04-28_20h10.34.416,classification_task,2021.2.3,Win32,59.57345407,5ee2a44d4c9d7542817268e7,626b377229c10585ec392f89,626b3980dfd671630cbd245a,,,,,,,,,,,,,,,,,,,,,,,a,1,2.215,"[""0.292"",""0.382"",""0.417"",""0.962""]","[1,1,0,1]",0,60,60,60,1,0,1,,,1,FALSE,,,,,,,,,,,,,,,,,,,,,,,,,,,,,,
,5ee2a44d4c9d7542817268e7,001,2022-04-28_20h10.34.416,classification_task,2021.2.3,Win32,59.57345407,5ee2a44d4c9d7542817268e7,626b377229c10585ec392f89,626b3980dfd671630cbd245a,,,,,,,,,,,,,,,,,,,,,,,l,0,1.6843,"[""0.071"",""0.508"",""0.770"",""0.918""]","[0,1,1,1]",0,61,61,61,1,0,0,,,1,FALSE,,,,,,,,,,,,,,,,,,,,,,,,,,,,,,
,5ee2a44d4c9d7542817268e7,001,2022-04-28_20h10.34.416,classification_task,2021.2.3,Win32,59.57345407,5ee2a44d4c9d7542817268e7,626b377229c10585ec392f89,626b3980dfd671630cbd245a,,,,,,,,,,,,,,,,,,,,,,,a,0,3.6842,"[""0.618"",""0.170"",""0.572"",""0.840""]","[0,1,1,1]",0,62,62,62,1,1,1,,,1,FALSE,,,,,,,,,,,,,,,,,,,,,,,,,,,,,,
,5ee2a44d4c9d7542817268e7,001,2022-04-28_20h10.34.416,classification_task,2021.2.3,Win32,59.57345407,5ee2a44d4c9d7542817268e7,626b377229c10585ec392f89,626b3980dfd671630cbd245a,,,,,,,,,,,,,,,,,,,,,,,l,1,0.9843,"[""0.105"",""0.625"",""0.572"",""0.840""]","[1,0,1,1]",0,63,63,63,1,1,1,,,1,FALSE,,,,,,,,,,,,,,,,,,,,,,,,,,,,,,
,5ee2a44d4c9d7542817268e7,001,2022-04-28_20h10.34.416,classification_task,2021.2.3,Win32,59.57345407,5ee2a44d4c9d7542817268e7,626b377229c10585ec392f89,626b3980dfd671630cbd245a,,,,,,,,,,,,,,,,,,,,,,,,,,,,,,,,,,,,,,,0, ,,0,7.602635704,601.0097,0,0,0,0,1,2,1,,,,,,,,,,,,,,,,,
,5ee2a44d4c9d7542817268e7,001,2022-04-28_20h10.34.416,classification_task,2021.2.3,Win32,59.57345407,5ee2a44d4c9d7542817268e7,626b377229c10585ec392f89,626b3980dfd671630cbd245a,,,,,,,,,,,,,,,,,,,,,,,,,,,,,,,,,,,,,,,1,  ,,0,10,611.79,0,0,0,0,1,2,1,,,,,,,,,,,,,,,,,
,5ee2a44d4c9d7542817268e7,001,2022-04-28_20h10.34.416,classification_task,2021.2.3,Win32,59.57345407,5ee2a44d4c9d7542817268e7,626b377229c10585ec392f89,626b3980dfd671630cbd245a,,,,,,,,,,,,,,,,,,,,,,,,,,,,,,,,,,,,,,,2,  ,,0,7.014745854,621.5551,0,0,0,0,1,2,1,,,,,,,,,,,,,,,,,
,5ee2a44d4c9d7542817268e7,001,2022-04-28_20h10.34.416,classification_task,2021.2.3,Win32,59.57345407,5ee2a44d4c9d7542817268e7,626b377229c10585ec392f89,626b3980dfd671630cbd245a,,,,,,,,,,,,,,,,,,,,,,,,,,,,,,,,,,,,,,,,,,,,,0,0,0,0,1,,1,,,,,,,,,,,,,,,,,
,5ee2a44d4c9d7542817268e7,001,2022-04-28_20h10.34.416,classification_task,2021.2.3,Win32,59.57345407,5ee2a44d4c9d7542817268e7,626b377229c10585ec392f89,626b3980dfd671630cbd245a,,,,,,,,,,,,,,,,,,,,,space,21.2781,a,0,4.3235,"[""0.624"",""0.170"",""0.572"",""0.840""]","[0,1,1,1]",0,0,0,0,1,1,1,,,1,FALSE,,,,,,,,,,,,,,,,,,,,,,,,,,,,,,
,5ee2a44d4c9d7542817268e7,001,2022-04-28_20h10.34.416,classification_task,2021.2.3,Win32,59.57345407,5ee2a44d4c9d7542817268e7,626b377229c10585ec392f89,626b3980dfd671630cbd245a,,,,,,,,,,,,,,,,,,,,,,,a,1,3.014,"[""0.292"",""0.382"",""0.659"",""0.430""]","[1,1,1,0]",0,1,1,1,1,0,1,,,1,FALSE,,,,,,,,,,,,,,,,,,,,,,,,,,,,,,
,5ee2a44d4c9d7542817268e7,001,2022-04-28_20h10.34.416,classification_task,2021.2.3,Win32,59.57345407,5ee2a44d4c9d7542817268e7,626b377229c10585ec392f89,626b3980dfd671630cbd245a,,,,,,,,,,,,,,,,,,,,,,,l,1,2.0137,"[""0.105"",""0.170"",""0.806"",""0.840""]","[1,1,0,1]",0,2,2,2,1,1,1,,,1,FALSE,,,,,,,,,,,,,,,,,,,,,,,,,,,,,,
,5ee2a44d4c9d7542817268e7,001,2022-04-28_20h10.34.416,classification_task,2021.2.3,Win32,59.57345407,5ee2a44d4c9d7542817268e7,626b377229c10585ec392f89,626b3980dfd671630cbd245a,,,,,,,,,,,,,,,,,,,,,,,l,1,1.5504,"[""0.036"",""0.342"",""0.467"",""0.430""]","[1,1,1,0]",0,3,3,3,1,1,0,,,1,FALSE,,,,,,,,,,,,,,,,,,,,,,,,,,,,,,
,5ee2a44d4c9d7542817268e7,001,2022-04-28_20h10.34.416,classification_task,2021.2.3,Win32,59.57345407,5ee2a44d4c9d7542817268e7,626b377229c10585ec392f89,626b3980dfd671630cbd245a,,,,,,,,,,,,,,,,,,,,,,,l,1,0.8651,"[""0.036"",""0.806"",""0.467"",""0.705""]","[1,0,1,1]",0,4,4,4,1,1,0,,,1,FALSE,,,,,,,,,,,,,,,,,,,,,,,,,,,,,,
,5ee2a44d4c9d7542817268e7,001,2022-04-28_20h10.34.416,classification_task,2021.2.3,Win32,59.57345407,5ee2a44d4c9d7542817268e7,626b377229c10585ec392f89,626b3980dfd671630cbd245a,,,,,,,,,,,,,,,,,,,,,,,a,0,2.6827,"[""0.618"",""0.342"",""0.467"",""0.705""]","[0,1,1,1]",0,5,5,5,1,1,0,,,1,FALSE,,,,,,,,,,,,,,,,,,,,,,,,,,,,,,
,5ee2a44d4c9d7542817268e7,001,2022-04-28_20h10.34.416,classification_task,2021.2.3,Win32,59.57345407,5ee2a44d4c9d7542817268e7,626b377229c10585ec392f89,626b3980dfd671630cbd245a,,,,,,,,,,,,,,,,,,,,,,,l,1,1.328,"[""0.105"",""0.170"",""0.572"",""0.625""]","[1,1,1,0]",0,6,6,6,1,1,1,,,1,FALSE,,,,,,,,,,,,,,,,,,,,,,,,,,,,,,
,5ee2a44d4c9d7542817268e7,001,2022-04-28_20h10.34.416,classification_task,2021.2.3,Win32,59.57345407,5ee2a44d4c9d7542817268e7,626b377229c10585ec392f89,626b3980dfd671630cbd245a,,,,,,,,,,,,,,,,,,,,,,,l,1,1.2312,"[""0.105"",""0.806"",""0.572"",""0.840""]","[1,0,1,1]",0,7,7,7,1,1,1,,,1,FALSE,,,,,,,,,,,,,,,,,,,,,,,,,,,,,,
,5ee2a44d4c9d7542817268e7,001,2022-04-28_20h10.34.416,classification_task,2021.2.3,Win32,59.57345407,5ee2a44d4c9d7542817268e7,626b377229c10585ec392f89,626b3980dfd671630cbd245a,,,,,,,,,,,,,,,,,,,,,,,l,1,1.1269,"[""0.036"",""0.342"",""0.625"",""0.705""]","[1,1,0,1]",0,8,8,8,1,1,0,,,1,FALSE,,,,,,,,,,,,,,,,,,,,,,,,,,,,,,
,5ee2a44d4c9d7542817268e7,001,2022-04-28_20h10.34.416,classification_task,2021.2.3,Win32,59.57345407,5ee2a44d4c9d7542817268e7,626b377229c10585ec392f89,626b3980dfd671630cbd245a,,,,,,,,,,,,,,,,,,,,,,,a,1,2.2385,"[""0.248"",""0.508"",""0.770"",""0.430""]","[1,1,1,0]",0,9,9,9,1,0,0,,,1,FALSE,,,,,,,,,,,,,,,,,,,,,,,,,,,,,,
,5ee2a44d4c9d7542817268e7,001,2022-04-28_20h10.34.416,classification_task,2021.2.3,Win32,59.57345407,5ee2a44d4c9d7542817268e7,626b377229c10585ec392f89,626b3980dfd671630cbd245a,,,,,,,,,,,,,,,,,,,,,,,a,1,2.5294,"[""0.292"",""0.419"",""0.659"",""0.962""]","[1,0,1,1]",0,10,10,10,1,0,1,,,1,FALSE,,,,,,,,,,,,,,,,,,,,,,,,,,,,,,
,5ee2a44d4c9d7542817268e7,001,2022-04-28_20h10.34.416,classification_task,2021.2.3,Win32,59.57345407,5ee2a44d4c9d7542817268e7,626b377229c10585ec392f89,626b3980dfd671630cbd245a,,,,,,,,,,,,,,,,,,,,,,,a,1,2.5797,"[""0.248"",""0.208"",""0.770"",""0.918""]","[1,0,1,1]",0,11,11,11,1,0,0,,,1,FALSE,,,,,,,,,,,,,,,,,,,,,,,,,,,,,,
,5ee2a44d4c9d7542817268e7,001,2022-04-28_20h10.34.416,classification_task,2021.2.3,Win32,59.57345407,5ee2a44d4c9d7542817268e7,626b377229c10585ec392f89,626b3980dfd671630cbd245a,,,,,,,,,,,,,,,,,,,,,,,a,1,2.9302,"[""0.417"",""0.508"",""0.770"",""0.918""]","[0,1,1,1]",0,12,12,12,1,0,0,,,1,FALSE,,,,,,,,,,,,,,,,,,,,,,,,,,,,,,
,5ee2a44d4c9d7542817268e7,001,2022-04-28_20h10.34.416,classification_task,2021.2.3,Win32,59.57345407,5ee2a44d4c9d7542817268e7,626b377229c10585ec392f89,626b3980dfd671630cbd245a,,,,,,,,,,,,,,,,,,,,,,,a,1,1.8138,"[""0.248"",""0.508"",""0.624"",""0.918""]","[1,1,0,1]",0,13,13,13,1,0,0,,,1,FALSE,,,,,,,,,,,,,,,,,,,,,,,,,,,,,,
,5ee2a44d4c9d7542817268e7,001,2022-04-28_20h10.34.416,classification_task,2021.2.3,Win32,59.57345407,5ee2a44d4c9d7542817268e7,626b377229c10585ec392f89,626b3980dfd671630cbd245a,,,,,,,,,,,,,,,,,,,,,,,l,0,1.2613,"[""0.292"",""0.382"",""0.071"",""0.962""]","[1,1,0,1]",0,14,14,14,1,0,1,,,1,FALSE,,,,,,,,,,,,,,,,,,,,,,,,,,,,,,
,5ee2a44d4c9d7542817268e7,001,2022-04-28_20h10.34.416,classification_task,2021.2.3,Win32,59.57345407,5ee2a44d4c9d7542817268e7,626b377229c10585ec392f89,626b3980dfd671630cbd245a,,,,,,,,,,,,,,,,,,,,,,,a,1,1.9824,"[""0.208"",""0.382"",""0.659"",""0.962""]","[0,1,1,1]",0,15,15,15,1,0,1,,,1,FALSE,,,,,,,,,,,,,,,,,,,,,,,,,,,,,,
,5ee2a44d4c9d7542817268e7,001,2022-04-28_20h10.34.416,classification_task,2021.2.3,Win32,59.57345407,5ee2a44d4c9d7542817268e7,626b377229c10585ec392f89,626b3980dfd671630cbd245a,,,,,,,,,,,,,,,,,,,,,,,l,1,0.9976,"[""0.036"",""0.342"",""0.467"",""0.431""]","[1,1,1,0]",0,16,16,16,1,1,0,,,1,FALSE,,,,,,,,,,,,,,,,,,,,,,,,,,,,,,
,5ee2a44d4c9d7542817268e7,001,2022-04-28_20h10.34.416,classification_task,2021.2.3,Win32,59.57345407,5ee2a44d4c9d7542817268e7,626b377229c10585ec392f89,626b3980dfd671630cbd245a,,,,,,,,,,,,,,,,,,,,,,,l,1,1.2265,"[""0.105"",""0.612"",""0.572"",""0.840""]","[1,0,1,1]",0,17,17,17,1,1,1,,,1,FALSE,,,,,,,,,,,,,,,,,,,,,,,,,,,,,,
,5ee2a44d4c9d7542817268e7,001,2022-04-28_20h10.34.416,classification_task,2021.2.3,Win32,59.57345407,5ee2a44d4c9d7542817268e7,626b377229c10585ec392f89,626b3980dfd671630cbd245a,,,,,,,,,,,,,,,,,,,,,,,a,1,1.566,"[""0.625"",""0.382"",""0.659"",""0.962""]","[0,1,1,1]",0,18,18,18,1,0,1,,,1,FALSE,,,,,,,,,,,,,,,,,,,,,,,,,,,,,,
,5ee2a44d4c9d7542817268e7,001,2022-04-28_20h10.34.416,classification_task,2021.2.3,Win32,59.57345407,5ee2a44d4c9d7542817268e7,626b377229c10585ec392f89,626b3980dfd671630cbd245a,,,,,,,,,,,,,,,,,,,,,,,a,1,1.952,"[""0.292"",""0.625"",""0.659"",""0.962""]","[1,0,1,1]",0,19,19,19,1,0,1,,,1,FALSE,,,,,,,,,,,,,,,,,,,,,,,,,,,,,,
,5ee2a44d4c9d7542817268e7,001,2022-04-28_20h10.34.416,classification_task,2021.2.3,Win32,59.57345407,5ee2a44d4c9d7542817268e7,626b377229c10585ec392f89,626b3980dfd671630cbd245a,,,,,,,,,,,,,,,,,,,,,,,a,1,2.1082,"[""0.248"",""0.618"",""0.770"",""0.918""]","[1,0,1,1]",0,20,20,20,1,0,0,,,1,FALSE,,,,,,,,,,,,,,,,,,,,,,,,,,,,,,
,5ee2a44d4c9d7542817268e7,001,2022-04-28_20h10.34.416,classification_task,2021.2.3,Win32,59.57345407,5ee2a44d4c9d7542817268e7,626b377229c10585ec392f89,626b3980dfd671630cbd245a,,,,,,,,,,,,,,,,,,,,,,,a,1,0.7998,"[""0.248"",""0.508"",""0.806"",""0.918""]","[1,1,0,1]",0,21,21,21,1,0,0,,,1,FALSE,,,,,,,,,,,,,,,,,,,,,,,,,,,,,,
,5ee2a44d4c9d7542817268e7,001,2022-04-28_20h10.34.416,classification_task,2021.2.3,Win32,59.57345407,5ee2a44d4c9d7542817268e7,626b377229c10585ec392f89,626b3980dfd671630cbd245a,,,,,,,,,,,,,,,,,,,,,,,a,1,0.7142,"[""0.248"",""0.508"",""0.770"",""0.624""]","[1,1,1,0]",0,22,22,22,1,0,0,,,1,FALSE,,,,,,,,,,,,,,,,,,,,,,,,,,,,,,
,5ee2a44d4c9d7542817268e7,001,2022-04-28_20h10.34.416,classification_task,2021.2.3,Win32,59.57345407,5ee2a44d4c9d7542817268e7,626b377229c10585ec392f89,626b3980dfd671630cbd245a,,,,,,,,,,,,,,,,,,,,,,,l,1,1.1303,"[""0.105"",""0.170"",""0.572"",""0.430""]","[1,1,1,0]",0,23,23,23,1,1,1,,,1,FALSE,,,,,,,,,,,,,,,,,,,,,,,,,,,,,,
,5ee2a44d4c9d7542817268e7,001,2022-04-28_20h10.34.416,classification_task,2021.2.3,Win32,59.57345407,5ee2a44d4c9d7542817268e7,626b377229c10585ec392f89,626b3980dfd671630cbd245a,,,,,,,,,,,,,,,,,,,,,,,l,1,1.13,"[""0.036"",""0.208"",""0.467"",""0.705""]","[1,0,1,1]",0,24,24,24,1,1,0,,,1,FALSE,,,,,,,,,,,,,,,,,,,,,,,,,,,,,,
,5ee2a44d4c9d7542817268e7,001,2022-04-28_20h10.34.416,classification_task,2021.2.3,Win32,59.57345407,5ee2a44d4c9d7542817268e7,626b377229c10585ec392f89,626b3980dfd671630cbd245a,,,,,,,,,,,,,,,,,,,,,,,l,1,2.9837,"[""0.036"",""0.342"",""0.071"",""0.705""]","[1,1,0,1]",0,25,25,25,1,1,0,,,1,FALSE,,,,,,,,,,,,,,,,,,,,,,,,,,,,,,
,5ee2a44d4c9d7542817268e7,001,2022-04-28_20h10.34.416,classification_task,2021.2.3,Win32,59.57345407,5ee2a44d4c9d7542817268e7,626b377229c10585ec392f89,626b3980dfd671630cbd245a,,,,,,,,,,,,,,,,,,,,,,,l,1,1.0978,"[""0.105"",""0.170"",""0.625"",""0.840""]","[1,1,0,1]",0,26,26,26,1,1,1,,,1,FALSE,,,,,,,,,,,,,,,,,,,,,,,,,,,,,,
,5ee2a44d4c9d7542817268e7,001,2022-04-28_20h10.34.416,classification_task,2021.2.3,Win32,59.57345407,5ee2a44d4c9d7542817268e7,626b377229c10585ec392f89,626b3980dfd671630cbd245a,,,,,,,,,,,,,,,,,,,,,,,a,1,1.8445,"[""0.625"",""0.508"",""0.770"",""0.918""]","[0,1,1,1]",0,27,27,27,1,0,0,,,1,FALSE,,,,,,,,,,,,,,,,,,,,,,,,,,,,,,
,5ee2a44d4c9d7542817268e7,001,2022-04-28_20h10.34.416,classification_task,2021.2.3,Win32,59.57345407,5ee2a44d4c9d7542817268e7,626b377229c10585ec392f89,626b3980dfd671630cbd245a,,,,,,,,,,,,,,,,,,,,,,,a,1,1.3305,"[""0.292"",""0.382"",""0.659"",""0.625""]","[1,1,1,0]",0,28,28,28,1,0,1,,,1,FALSE,,,,,,,,,,,,,,,,,,,,,,,,,,,,,,
,5ee2a44d4c9d7542817268e7,001,2022-04-28_20h10.34.416,classification_task,2021.2.3,Win32,59.57345407,5ee2a44d4c9d7542817268e7,626b377229c10585ec392f89,626b3980dfd671630cbd245a,,,,,,,,,,,,,,,,,,,,,,,a,0,1.2012,"[""0.806"",""0.170"",""0.572"",""0.840""]","[0,1,1,1]",0,29,29,29,1,1,1,,,1,FALSE,,,,,,,,,,,,,,,,,,,,,,,,,,,,,,
,5ee2a44d4c9d7542817268e7,001,2022-04-28_20h10.34.416,classification_task,2021.2.3,Win32,59.57345407,5ee2a44d4c9d7542817268e7,626b377229c10585ec392f89,626b3980dfd671630cbd245a,,,,,,,,,,,,,,,,,,,,,,,a,0,1.2579,"[""0.625"",""0.342"",""0.467"",""0.705""]","[0,1,1,1]",0,30,30,30,1,1,0,,,1,FALSE,,,,,,,,,,,,,,,,,,,,,,,,,,,,,,
,5ee2a44d4c9d7542817268e7,001,2022-04-28_20h10.34.416,classification_task,2021.2.3,Win32,59.57345407,5ee2a44d4c9d7542817268e7,626b377229c10585ec392f89,626b3980dfd671630cbd245a,,,,,,,,,,,,,,,,,,,,,,,a,1,1.1429,"[""0.292"",""0.382"",""0.417"",""0.962""]","[1,1,0,1]",0,31,31,31,1,0,1,,,1,FALSE,,,,,,,,,,,,,,,,,,,,,,,,,,,,,,
,5ee2a44d4c9d7542817268e7,001,2022-04-28_20h10.34.416,classification_task,2021.2.3,Win32,59.57345407,5ee2a44d4c9d7542817268e7,626b377229c10585ec392f89,626b3980dfd671630cbd245a,,,,,,,,,,,,,,,,,,,,,,,a,1,1.2932,"[""0.248"",""0.419"",""0.770"",""0.918""]","[1,0,1,1]",0,32,32,32,1,0,0,,,1,FALSE,,,,,,,,,,,,,,,,,,,,,,,,,,,,,,
,5ee2a44d4c9d7542817268e7,001,2022-04-28_20h10.34.416,classification_task,2021.2.3,Win32,59.57345407,5ee2a44d4c9d7542817268e7,626b377229c10585ec392f89,626b3980dfd671630cbd245a,,,,,,,,,,,,,,,,,,,,,,,a,1,1.5318,"[""0.612"",""0.508"",""0.770"",""0.918""]","[0,1,1,1]",0,33,33,33,1,0,0,,,1,FALSE,,,,,,,,,,,,,,,,,,,,,,,,,,,,,,
,5ee2a44d4c9d7542817268e7,001,2022-04-28_20h10.34.416,classification_task,2021.2.3,Win32,59.57345407,5ee2a44d4c9d7542817268e7,626b377229c10585ec392f89,626b3980dfd671630cbd245a,,,,,,,,,,,,,,,,,,,,,,,a,1,1.6274,"[""0.292"",""0.382"",""0.659"",""0.431""]","[1,1,1,0]",0,34,34,34,1,0,1,,,1,FALSE,,,,,,,,,,,,,,,,,,,,,,,,,,,,,,
,5ee2a44d4c9d7542817268e7,001,2022-04-28_20h10.34.416,classification_task,2021.2.3,Win32,59.57345407,5ee2a44d4c9d7542817268e7,626b377229c10585ec392f89,626b3980dfd671630cbd245a,,,,,,,,,,,,,,,,,,,,,,,l,1,1.1707,"[""0.105"",""0.625"",""0.572"",""0.840""]","[1,0,1,1]",0,35,35,35,1,1,1,,,1,FALSE,,,,,,,,,,,,,,,,,,,,,,,,,,,,,,
,5ee2a44d4c9d7542817268e7,001,2022-04-28_20h10.34.416,classification_task,2021.2.3,Win32,59.57345407,5ee2a44d4c9d7542817268e7,626b377229c10585ec392f89,626b3980dfd671630cbd245a,,,,,,,,,,,,,,,,,,,,,,,l,1,0.9698,"[""0.105"",""0.170"",""0.572"",""0.417""]","[1,1,1,0]",0,36,36,36,1,1,1,,,1,FALSE,,,,,,,,,,,,,,,,,,,,,,,,,,,,,,
,5ee2a44d4c9d7542817268e7,001,2022-04-28_20h10.34.416,classification_task,2021.2.3,Win32,59.57345407,5ee2a44d4c9d7542817268e7,626b377229c10585ec392f89,626b3980dfd671630cbd245a,,,,,,,,,,,,,,,,,,,,,,,a,1,1.4942,"[""0.248"",""0.508"",""0.430"",""0.918""]","[1,1,0,1]",0,37,37,37,1,0,0,,,1,FALSE,,,,,,,,,,,,,,,,,,,,,,,,,,,,,,
,5ee2a44d4c9d7542817268e7,001,2022-04-28_20h10.34.416,classification_task,2021.2.3,Win32,59.57345407,5ee2a44d4c9d7542817268e7,626b377229c10585ec392f89,626b3980dfd671630cbd245a,,,,,,,,,,,,,,,,,,,,,,,a,0,1.7822,"[""0.612"",""0.342"",""0.467"",""0.705""]","[0,1,1,1]",0,38,38,38,1,1,0,,,1,FALSE,,,,,,,,,,,,,,,,,,,,,,,,,,,,,,
,5ee2a44d4c9d7542817268e7,001,2022-04-28_20h10.34.416,classification_task,2021.2.3,Win32,59.57345407,5ee2a44d4c9d7542817268e7,626b377229c10585ec392f89,626b3980dfd671630cbd245a,,,,,,,,,,,,,,,,,,,,,,,a,1,1.031,"[""0.248"",""0.508"",""0.770"",""0.417""]","[1,1,1,0]",0,39,39,39,1,0,0,,,1,FALSE,,,,,,,,,,,,,,,,,,,,,,,,,,,,,,
,5ee2a44d4c9d7542817268e7,001,2022-04-28_20h10.34.416,classification_task,2021.2.3,Win32,59.57345407,5ee2a44d4c9d7542817268e7,626b377229c10585ec392f89,626b3980dfd671630cbd245a,,,,,,,,,,,,,,,,,,,,,,,a,0,3.5778,"[""0.417"",""0.170"",""0.572"",""0.840""]","[0,1,1,1]",0,40,40,40,1,1,1,,,1,FALSE,,,,,,,,,,,,,,,,,,,,,,,,,,,,,,
,5ee2a44d4c9d7542817268e7,001,2022-04-28_20h10.34.416,classification_task,2021.2.3,Win32,59.57345407,5ee2a44d4c9d7542817268e7,626b377229c10585ec392f89,626b3980dfd671630cbd245a,,,,,,,,,,,,,,,,,,,,,,,a,1,1.1003,"[""0.419"",""0.382"",""0.659"",""0.962""]","[0,1,1,1]",0,41,41,41,1,0,1,,,1,FALSE,,,,,,,,,,,,,,,,,,,,,,,,,,,,,,
,5ee2a44d4c9d7542817268e7,001,2022-04-28_20h10.34.416,classification_task,2021.2.3,Win32,59.57345407,5ee2a44d4c9d7542817268e7,626b377229c10585ec392f89,626b3980dfd671630cbd245a,,,,,,,,,,,,,,,,,,,,,,,a,1,1.1976,"[""0.292"",""0.382"",""0.625"",""0.962""]","[1,1,0,1]",0,42,42,42,1,0,1,,,1,FALSE,,,,,,,,,,,,,,,,,,,,,,,,,,,,,,
,5ee2a44d4c9d7542817268e7,001,2022-04-28_20h10.34.416,classification_task,2021.2.3,Win32,59.57345407,5ee2a44d4c9d7542817268e7,626b377229c10585ec392f89,626b3980dfd671630cbd245a,,,,,,,,,,,,,,,,,,,,,,,l,1,0.8804,"[""0.036"",""0.618"",""0.467"",""0.705""]","[1,0,1,1]",0,43,43,43,1,1,0,,,1,FALSE,,,,,,,,,,,,,,,,,,,,,,,,,,,,,,
,5ee2a44d4c9d7542817268e7,001,2022-04-28_20h10.34.416,classification_task,2021.2.3,Win32,59.57345407,5ee2a44d4c9d7542817268e7,626b377229c10585ec392f89,626b3980dfd671630cbd245a,,,,,,,,,,,,,,,,,,,,,,,l,1,0.8316,"[""0.036"",""0.342"",""0.467"",""0.806""]","[1,1,1,0]",0,44,44,44,1,1,0,,,1,FALSE,,,,,,,,,,,,,,,,,,,,,,,,,,,,,,
,5ee2a44d4c9d7542817268e7,001,2022-04-28_20h10.34.416,classification_task,2021.2.3,Win32,59.57345407,5ee2a44d4c9d7542817268e7,626b377229c10585ec392f89,626b3980dfd671630cbd245a,,,,,,,,,,,,,,,,,,,,,,,l,1,1.0467,"[""0.105"",""0.170"",""0.417"",""0.840""]","[1,1,0,1]",0,45,45,45,1,1,1,,,1,FALSE,,,,,,,,,,,,,,,,,,,,,,,,,,,,,,
,5ee2a44d4c9d7542817268e7,001,2022-04-28_20h10.34.416,classification_task,2021.2.3,Win32,59.57345407,5ee2a44d4c9d7542817268e7,626b377229c10585ec392f89,626b3980dfd671630cbd245a,,,,,,,,,,,,,,,,,,,,,,,a,1,1.8811,"[""0.292"",""0.430"",""0.659"",""0.962""]","[1,0,1,1]",0,46,46,46,1,0,1,,,1,FALSE,,,,,,,,,,,,,,,,,,,,,,,,,,,,,,
,5ee2a44d4c9d7542817268e7,001,2022-04-28_20h10.34.416,classification_task,2021.2.3,Win32,59.57345407,5ee2a44d4c9d7542817268e7,626b377229c10585ec392f89,626b3980dfd671630cbd245a,,,,,,,,,,,,,,,,,,,,,,,l,1,1.0464,"[""0.036"",""0.342"",""0.428"",""0.705""]","[1,1,0,1]",0,47,47,47,1,1,0,,,1,FALSE,,,,,,,,,,,,,,,,,,,,,,,,,,,,,,
,5ee2a44d4c9d7542817268e7,001,2022-04-28_20h10.34.416,classification_task,2021.2.3,Win32,59.57345407,5ee2a44d4c9d7542817268e7,626b377229c10585ec392f89,626b3980dfd671630cbd245a,,,,,,,,,,,,,,,,,,,,,,,a,1,2.1166,"[""0.208"",""0.508"",""0.770"",""0.918""]","[0,1,1,1]",0,48,48,48,1,0,0,,,1,FALSE,,,,,,,,,,,,,,,,,,,,,,,,,,,,,,
,5ee2a44d4c9d7542817268e7,001,2022-04-28_20h10.34.416,classification_task,2021.2.3,Win32,59.57345407,5ee2a44d4c9d7542817268e7,626b377229c10585ec392f89,626b3980dfd671630cbd245a,,,,,,,,,,,,,,,,,,,,,,,a,1,1.8648,"[""0.248"",""0.508"",""0.770"",""0.612""]","[1,1,1,0]",0,49,49,49,1,0,0,,,1,FALSE,,,,,,,,,,,,,,,,,,,,,,,,,,,,,,
,5ee2a44d4c9d7542817268e7,001,2022-04-28_20h10.34.416,classification_task,2021.2.3,Win32,59.57345407,5ee2a44d4c9d7542817268e7,626b377229c10585ec392f89,626b3980dfd671630cbd245a,,,,,,,,,,,,,,,,,,,,,,,l,1,2.1307,"[""0.105"",""0.170"",""0.572"",""0.428""]","[1,1,1,0]",0,50,50,50,1,1,1,,,1,FALSE,,,,,,,,,,,,,,,,,,,,,,,,,,,,,,
,5ee2a44d4c9d7542817268e7,001,2022-04-28_20h10.34.416,classification_task,2021.2.3,Win32,59.57345407,5ee2a44d4c9d7542817268e7,626b377229c10585ec392f89,626b3980dfd671630cbd245a,,,,,,,,,,,,,,,,,,,,,,,a,1,3.3459,"[""0.292"",""0.428"",""0.659"",""0.962""]","[1,0,1,1]",0,51,51,51,1,0,1,,,1,FALSE,,,,,,,,,,,,,,,,,,,,,,,,,,,,,,
,5ee2a44d4c9d7542817268e7,001,2022-04-28_20h10.34.416,classification_task,2021.2.3,Win32,59.57345407,5ee2a44d4c9d7542817268e7,626b377229c10585ec392f89,626b3980dfd671630cbd245a,,,,,,,,,,,,,,,,,,,,,,,a,1,2.2645,"[""0.625"",""0.382"",""0.659"",""0.962""]","[0,1,1,1]",0,52,52,52,1,0,1,,,1,FALSE,,,,,,,,,,,,,,,,,,,,,,,,,,,,,,
,5ee2a44d4c9d7542817268e7,001,2022-04-28_20h10.34.416,classification_task,2021.2.3,Win32,59.57345407,5ee2a44d4c9d7542817268e7,626b377229c10585ec392f89,626b3980dfd671630cbd245a,,,,,,,,,,,,,,,,,,,,,,,a,1,2.0953,"[""0.248"",""0.508"",""0.428"",""0.918""]","[1,1,0,1]",0,53,53,53,1,0,0,,,1,FALSE,,,,,,,,,,,,,,,,,,,,,,,,,,,,,,
,5ee2a44d4c9d7542817268e7,001,2022-04-28_20h10.34.416,classification_task,2021.2.3,Win32,59.57345407,5ee2a44d4c9d7542817268e7,626b377229c10585ec392f89,626b3980dfd671630cbd245a,,,,,,,,,,,,,,,,,,,,,,,l,1,1.2676,"[""0.036"",""0.430"",""0.467"",""0.705""]","[1,0,1,1]",0,54,54,54,1,1,0,,,1,FALSE,,,,,,,,,,,,,,,,,,,,,,,,,,,,,,
,5ee2a44d4c9d7542817268e7,001,2022-04-28_20h10.34.416,classification_task,2021.2.3,Win32,59.57345407,5ee2a44d4c9d7542817268e7,626b377229c10585ec392f89,626b3980dfd671630cbd245a,,,,,,,,,,,,,,,,,,,,,,,a,1,1.131,"[""0.248"",""0.428"",""0.770"",""0.918""]","[1,0,1,1]",0,55,55,55,1,0,0,,,1,FALSE,,,,,,,,,,,,,,,,,,,,,,,,,,,,,,
,5ee2a44d4c9d7542817268e7,001,2022-04-28_20h10.34.416,classification_task,2021.2.3,Win32,59.57345407,5ee2a44d4c9d7542817268e7,626b377229c10585ec392f89,626b3980dfd671630cbd245a,,,,,,,,,,,,,,,,,,,,,,,a,1,2.5798,"[""0.292"",""0.382"",""0.806"",""0.962""]","[1,1,0,1]",0,56,56,56,1,0,1,,,1,FALSE,,,,,,,,,,,,,,,,,,,,,,,,,,,,,,
,5ee2a44d4c9d7542817268e7,001,2022-04-28_20h10.34.416,classification_task,2021.2.3,Win32,59.57345407,5ee2a44d4c9d7542817268e7,626b377229c10585ec392f89,626b3980dfd671630cbd245a,,,,,,,,,,,,,,,,,,,,,,,l,0,1.8315,"[""0.292"",""0.382"",""0.659"",""0.208""]","[1,1,1,0]",0,57,57,57,1,0,1,,,1,FALSE,,,,,,,,,,,,,,,,,,,,,,,,,,,,,,
,5ee2a44d4c9d7542817268e7,001,2022-04-28_20h10.34.416,classification_task,2021.2.3,Win32,59.57345407,5ee2a44d4c9d7542817268e7,626b377229c10585ec392f89,626b3980dfd671630cbd245a,,,,,,,,,,,,,,,,,,,,,,,l,1,1.3332,"[""0.209"",""0.170"",""0.572"",""0.840""]","[0,1,1,1]",0,58,58,58,1,1,1,,,1,FALSE,,,,,,,,,,,,,,,,,,,,,,,,,,,,,,
,5ee2a44d4c9d7542817268e7,001,2022-04-28_20h10.34.416,classification_task,2021.2.3,Win32,59.57345407,5ee2a44d4c9d7542817268e7,626b377229c10585ec392f89,626b3980dfd671630cbd245a,,,,,,,,,,,,,,,,,,,,,,,l,1,2.7809,"[""0.036"",""0.342"",""0.467"",""0.612""]","[1,1,1,0]",0,59,59,59,1,1,0,,,1,FALSE,,,,,,,,,,,,,,,,,,,,,,,,,,,,,,
,5ee2a44d4c9d7542817268e7,001,2022-04-28_20h10.34.416,classification_task,2021.2.3,Win32,59.57345407,5ee2a44d4c9d7542817268e7,626b377229c10585ec392f89,626b3980dfd671630cbd245a,,,,,,,,,,,,,,,,,,,,,,,l,1,1.1806,"[""0.105"",""0.431"",""0.572"",""0.840""]","[1,0,1,1]",0,60,60,60,1,1,1,,,1,FALSE,,,,,,,,,,,,,,,,,,,,,,,,,,,,,,
,5ee2a44d4c9d7542817268e7,001,2022-04-28_20h10.34.416,classification_task,2021.2.3,Win32,59.57345407,5ee2a44d4c9d7542817268e7,626b377229c10585ec392f89,626b3980dfd671630cbd245a,,,,,,,,,,,,,,,,,,,,,,,l,1,2.1452,"[""0.428"",""0.342"",""0.467"",""0.705""]","[0,1,1,1]",0,61,61,61,1,1,0,,,1,FALSE,,,,,,,,,,,,,,,,,,,,,,,,,,,,,,
,5ee2a44d4c9d7542817268e7,001,2022-04-28_20h10.34.416,classification_task,2021.2.3,Win32,59.57345407,5ee2a44d4c9d7542817268e7,626b377229c10585ec392f89,626b3980dfd671630cbd245a,,,,,,,,,,,,,,,,,,,,,,,l,1,1.3116,"[""0.105"",""0.170"",""0.209"",""0.840""]","[1,1,0,1]",0,62,62,62,1,1,1,,,1,FALSE,,,,,,,,,,,,,,,,,,,,,,,,,,,,,,
,5ee2a44d4c9d7542817268e7,001,2022-04-28_20h10.34.416,classification_task,2021.2.3,Win32,59.57345407,5ee2a44d4c9d7542817268e7,626b377229c10585ec392f89,626b3980dfd671630cbd245a,,,,,,,,,,,,,,,,,,,,,,,l,1,1.1671,"[""0.036"",""0.342"",""0.624"",""0.705""]","[1,1,0,1]",0,63,63,63,1,1,0,,,1,FALSE,,,,,,,,,,,,,,,,,,,,,,,,,,,,,,
,5ee2a44d4c9d7542817268e7,001,2022-04-28_20h10.34.416,classification_task,2021.2.3,Win32,59.57345407,5ee2a44d4c9d7542817268e7,626b377229c10585ec392f89,626b3980dfd671630cbd245a,,,,,,,,,,,,,,,,,,,,,,,,,,,,,,,,,,,,,,,0, ,,0,3.977318386,225.3526,0,1,1,1,1,2,2,,,,,,,,,,,,,,,,,
,5ee2a44d4c9d7542817268e7,001,2022-04-28_20h10.34.416,classification_task,2021.2.3,Win32,59.57345407,5ee2a44d4c9d7542817268e7,626b377229c10585ec392f89,626b3980dfd671630cbd245a,,,,,,,,,,,,,,,,,,,,,,,,,,,,,,,,,,,,,,,1,  ,,0,10,230.453,0,1,1,1,1,2,2,,,,,,,,,,,,,,,,,
,5ee2a44d4c9d7542817268e7,001,2022-04-28_20h10.34.416,classification_task,2021.2.3,Win32,59.57345407,5ee2a44d4c9d7542817268e7,626b377229c10585ec392f89,626b3980dfd671630cbd245a,,,,,,,,,,,,,,,,,,,,,,,,,,,,,,,,,,,,,,,2,  ,,0,4.883647248,233.5706,0,1,1,1,1,2,2,,,,,,,,,,,,,,,,,
,5ee2a44d4c9d7542817268e7,001,2022-04-28_20h10.34.416,classification_task,2021.2.3,Win32,59.57345407,5ee2a44d4c9d7542817268e7,626b377229c10585ec392f89,626b3980dfd671630cbd245a,,,,,,,,,,,,,,,,,,,,,,,,,,,,,,,,,,,,,,,,,,,,,0,1,1,1,1,,2,,,,,,,,,,,,,,,,,
,5ee2a44d4c9d7542817268e7,001,2022-04-28_20h10.34.416,classification_task,2021.2.3,Win32,59.57345407,5ee2a44d4c9d7542817268e7,626b377229c10585ec392f89,626b3980dfd671630cbd245a,,,,,,,,,,,,,,,,,,,,,space,7.4268,a,1,2.6157,"[""0.248"",""0.508"",""0.770"",""0.625""]","[1,1,1,0]",0,0,0,0,1,0,0,,,1,FALSE,,,,,,,,,,,,,,,,,,,,,,,,,,,,,,
,5ee2a44d4c9d7542817268e7,001,2022-04-28_20h10.34.416,classification_task,2021.2.3,Win32,59.57345407,5ee2a44d4c9d7542817268e7,626b377229c10585ec392f89,626b3980dfd671630cbd245a,,,,,,,,,,,,,,,,,,,,,,,a,1,3.5816,"[""0.292"",""0.625"",""0.659"",""0.962""]","[1,0,1,1]",0,1,1,1,1,0,1,,,1,FALSE,,,,,,,,,,,,,,,,,,,,,,,,,,,,,,
,5ee2a44d4c9d7542817268e7,001,2022-04-28_20h10.34.416,classification_task,2021.2.3,Win32,59.57345407,5ee2a44d4c9d7542817268e7,626b377229c10585ec392f89,626b3980dfd671630cbd245a,,,,,,,,,,,,,,,,,,,,,,,l,1,1.2829,"[""0.105"",""0.170"",""0.428"",""0.840""]","[1,1,0,1]",0,2,2,2,1,1,1,,,1,FALSE,,,,,,,,,,,,,,,,,,,,,,,,,,,,,,
,5ee2a44d4c9d7542817268e7,001,2022-04-28_20h10.34.416,classification_task,2021.2.3,Win32,59.57345407,5ee2a44d4c9d7542817268e7,626b377229c10585ec392f89,626b3980dfd671630cbd245a,,,,,,,,,,,,,,,,,,,,,,,a,1,4.6141,"[""0.292"",""0.382"",""0.659"",""0.618""]","[1,1,1,0]",0,3,3,3,1,0,1,,,1,FALSE,,,,,,,,,,,,,,,,,,,,,,,,,,,,,,
,5ee2a44d4c9d7542817268e7,001,2022-04-28_20h10.34.416,classification_task,2021.2.3,Win32,59.57345407,5ee2a44d4c9d7542817268e7,626b377229c10585ec392f89,626b3980dfd671630cbd245a,,,,,,,,,,,,,,,,,,,,,,,l,1,1.0195,"[""0.036"",""0.342"",""0.428"",""0.705""]","[1,1,0,1]",0,4,4,4,1,1,0,,,1,FALSE,,,,,,,,,,,,,,,,,,,,,,,,,,,,,,
,5ee2a44d4c9d7542817268e7,001,2022-04-28_20h10.34.416,classification_task,2021.2.3,Win32,59.57345407,5ee2a44d4c9d7542817268e7,626b377229c10585ec392f89,626b3980dfd671630cbd245a,,,,,,,,,,,,,,,,,,,,,,,a,1,1.2491,"[""0.248"",""0.618"",""0.770"",""0.918""]","[1,0,1,1]",0,5,5,5,1,0,0,,,1,FALSE,,,,,,,,,,,,,,,,,,,,,,,,,,,,,,
,5ee2a44d4c9d7542817268e7,001,2022-04-28_20h10.34.416,classification_task,2021.2.3,Win32,59.57345407,5ee2a44d4c9d7542817268e7,626b377229c10585ec392f89,626b3980dfd671630cbd245a,,,,,,,,,,,,,,,,,,,,,,,a,1,0.6833,"[""0.248"",""0.508"",""0.431"",""0.918""]","[1,1,0,1]",0,6,6,6,1,0,0,,,1,FALSE,,,,,,,,,,,,,,,,,,,,,,,,,,,,,,
,5ee2a44d4c9d7542817268e7,001,2022-04-28_20h10.34.416,classification_task,2021.2.3,Win32,59.57345407,5ee2a44d4c9d7542817268e7,626b377229c10585ec392f89,626b3980dfd671630cbd245a,,,,,,,,,,,,,,,,,,,,,,,l,1,1.199,"[""0.105"",""0.618"",""0.572"",""0.840""]","[1,0,1,1]",0,7,7,7,1,1,1,,,1,FALSE,,,,,,,,,,,,,,,,,,,,,,,,,,,,,,
,5ee2a44d4c9d7542817268e7,001,2022-04-28_20h10.34.416,classification_task,2021.2.3,Win32,59.57345407,5ee2a44d4c9d7542817268e7,626b377229c10585ec392f89,626b3980dfd671630cbd245a,,,,,,,,,,,,,,,,,,,,,,,l,1,0.9825,"[""0.105"",""0.170"",""0.572"",""0.417""]","[1,1,1,0]",0,8,8,8,1,1,1,,,1,FALSE,,,,,,,,,,,,,,,,,,,,,,,,,,,,,,
,5ee2a44d4c9d7542817268e7,001,2022-04-28_20h10.34.416,classification_task,2021.2.3,Win32,59.57345407,5ee2a44d4c9d7542817268e7,626b377229c10585ec392f89,626b3980dfd671630cbd245a,,,,,,,,,,,,,,,,,,,,,,,l,1,5.5153,"[""0.209"",""0.170"",""0.572"",""0.840""]","[0,1,1,1]",0,9,9,9,1,1,1,,,1,FALSE,,,,,,,,,,,,,,,,,,,,,,,,,,,,,,
,5ee2a44d4c9d7542817268e7,001,2022-04-28_20h10.34.416,classification_task,2021.2.3,Win32,59.57345407,5ee2a44d4c9d7542817268e7,626b377229c10585ec392f89,626b3980dfd671630cbd245a,,,,,,,,,,,,,,,,,,,,,,,l,0,2.3655,"[""0.292"",""0.382"",""0.071"",""0.962""]","[1,1,0,1]",0,10,10,10,1,0,1,,,1,FALSE,,,,,,,,,,,,,,,,,,,,,,,,,,,,,,
,5ee2a44d4c9d7542817268e7,001,2022-04-28_20h10.34.416,classification_task,2021.2.3,Win32,59.57345407,5ee2a44d4c9d7542817268e7,626b377229c10585ec392f89,626b3980dfd671630cbd245a,,,,,,,,,,,,,,,,,,,,,,,l,1,1.2012,"[""0.036"",""0.342"",""0.467"",""0.209""]","[1,1,1,0]",0,11,11,11,1,1,0,,,1,FALSE,,,,,,,,,,,,,,,,,,,,,,,,,,,,,,
,5ee2a44d4c9d7542817268e7,001,2022-04-28_20h10.34.416,classification_task,2021.2.3,Win32,59.57345407,5ee2a44d4c9d7542817268e7,626b377229c10585ec392f89,626b3980dfd671630cbd245a,,,,,,,,,,,,,,,,,,,,,,,a,1,1.7496,"[""0.624"",""0.382"",""0.659"",""0.962""]","[0,1,1,1]",0,12,12,12,1,0,1,,,1,FALSE,,,,,,,,,,,,,,,,,,,,,,,,,,,,,,
,5ee2a44d4c9d7542817268e7,001,2022-04-28_20h10.34.416,classification_task,2021.2.3,Win32,59.57345407,5ee2a44d4c9d7542817268e7,626b377229c10585ec392f89,626b3980dfd671630cbd245a,,,,,,,,,,,,,,,,,,,,,,,a,0,1.6989,"[""0.419"",""0.342"",""0.467"",""0.705""]","[0,1,1,1]",0,13,13,13,1,1,0,,,1,FALSE,,,,,,,,,,,,,,,,,,,,,,,,,,,,,,
,5ee2a44d4c9d7542817268e7,001,2022-04-28_20h10.34.416,classification_task,2021.2.3,Win32,59.57345407,5ee2a44d4c9d7542817268e7,626b377229c10585ec392f89,626b3980dfd671630cbd245a,,,,,,,,,,,,,,,,,,,,,,,a,1,3.7487,"[""0.419"",""0.508"",""0.770"",""0.918""]","[0,1,1,1]",0,14,14,14,1,0,0,,,1,FALSE,,,,,,,,,,,,,,,,,,,,,,,,,,,,,,
,5ee2a44d4c9d7542817268e7,001,2022-04-28_20h10.34.416,classification_task,2021.2.3,Win32,59.57345407,5ee2a44d4c9d7542817268e7,626b377229c10585ec392f89,626b3980dfd671630cbd245a,,,,,,,,,,,,,,,,,,,,,,,l,1,0.801,"[""0.036"",""0.071"",""0.467"",""0.705""]","[1,0,1,1]",0,15,15,15,1,1,0,,,1,FALSE,,,,,,,,,,,,,,,,,,,,,,,,,,,,,,
,5ee2a44d4c9d7542817268e7,001,2022-04-28_20h10.34.416,classification_task,2021.2.3,Win32,59.57345407,5ee2a44d4c9d7542817268e7,626b377229c10585ec392f89,626b3980dfd671630cbd245a,,,,,,,,,,,,,,,,,,,,,,,a,1,1.2983,"[""0.248"",""0.612"",""0.770"",""0.918""]","[1,0,1,1]",0,16,16,16,1,0,0,,,1,FALSE,,,,,,,,,,,,,,,,,,,,,,,,,,,,,,
,5ee2a44d4c9d7542817268e7,001,2022-04-28_20h10.34.416,classification_task,2021.2.3,Win32,59.57345407,5ee2a44d4c9d7542817268e7,626b377229c10585ec392f89,626b3980dfd671630cbd245a,,,,,,,,,,,,,,,,,,,,,,,l,0,3.016,"[""0.292"",""0.612"",""0.659"",""0.962""]","[1,0,1,1]",0,17,17,17,1,0,1,,,1,FALSE,,,,,,,,,,,,,,,,,,,,,,,,,,,,,,
,5ee2a44d4c9d7542817268e7,001,2022-04-28_20h10.34.416,classification_task,2021.2.3,Win32,59.57345407,5ee2a44d4c9d7542817268e7,626b377229c10585ec392f89,626b3980dfd671630cbd245a,,,,,,,,,,,,,,,,,,,,,,,l,1,1.1007,"[""0.036"",""0.342"",""0.467"",""0.625""]","[1,1,1,0]",0,18,18,18,1,1,0,,,1,FALSE,,,,,,,,,,,,,,,,,,,,,,,,,,,,,,
,5ee2a44d4c9d7542817268e7,001,2022-04-28_20h10.34.416,classification_task,2021.2.3,Win32,59.57345407,5ee2a44d4c9d7542817268e7,626b377229c10585ec392f89,626b3980dfd671630cbd245a,,,,,,,,,,,,,,,,,,,,,,,l,1,1.0328,"[""0.105"",""0.170"",""0.572"",""0.612""]","[1,1,1,0]",0,19,19,19,1,1,1,,,1,FALSE,,,,,,,,,,,,,,,,,,,,,,,,,,,,,,
,5ee2a44d4c9d7542817268e7,001,2022-04-28_20h10.34.416,classification_task,2021.2.3,Win32,59.57345407,5ee2a44d4c9d7542817268e7,626b377229c10585ec392f89,626b3980dfd671630cbd245a,,,,,,,,,,,,,,,,,,,,,,,l,1,0.949,"[""0.071"",""0.342"",""0.467"",""0.705""]","[0,1,1,1]",0,20,20,20,1,1,0,,,1,FALSE,,,,,,,,,,,,,,,,,,,,,,,,,,,,,,
,5ee2a44d4c9d7542817268e7,001,2022-04-28_20h10.34.416,classification_task,2021.2.3,Win32,59.57345407,5ee2a44d4c9d7542817268e7,626b377229c10585ec392f89,626b3980dfd671630cbd245a,,,,,,,,,,,,,,,,,,,,,,,l,1,1.1991,"[""0.036"",""0.342"",""0.071"",""0.705""]","[1,1,0,1]",0,21,21,21,1,1,0,,,1,FALSE,,,,,,,,,,,,,,,,,,,,,,,,,,,,,,
,5ee2a44d4c9d7542817268e7,001,2022-04-28_20h10.34.416,classification_task,2021.2.3,Win32,59.57345407,5ee2a44d4c9d7542817268e7,626b377229c10585ec392f89,626b3980dfd671630cbd245a,,,,,,,,,,,,,,,,,,,,,,,a,1,0.9816,"[""0.248"",""0.508"",""0.624"",""0.918""]","[1,1,0,1]",0,22,22,22,1,0,0,,,1,FALSE,,,,,,,,,,,,,,,,,,,,,,,,,,,,,,
,5ee2a44d4c9d7542817268e7,001,2022-04-28_20h10.34.416,classification_task,2021.2.3,Win32,59.57345407,5ee2a44d4c9d7542817268e7,626b377229c10585ec392f89,626b3980dfd671630cbd245a,,,,,,,,,,,,,,,,,,,,,,,a,1,1.7827,"[""0.292"",""0.382"",""0.659"",""0.431""]","[1,1,1,0]",0,23,23,23,1,0,1,,,1,FALSE,,,,,,,,,,,,,,,,,,,,,,,,,,,,,,
,5ee2a44d4c9d7542817268e7,001,2022-04-28_20h10.34.416,classification_task,2021.2.3,Win32,59.57345407,5ee2a44d4c9d7542817268e7,626b377229c10585ec392f89,626b3980dfd671630cbd245a,,,,,,,,,,,,,,,,,,,,,,,a,1,1.8987,"[""0.430"",""0.508"",""0.770"",""0.918""]","[0,1,1,1]",0,24,24,24,1,0,0,,,1,FALSE,,,,,,,,,,,,,,,,,,,,,,,,,,,,,,
,5ee2a44d4c9d7542817268e7,001,2022-04-28_20h10.34.416,classification_task,2021.2.3,Win32,59.57345407,5ee2a44d4c9d7542817268e7,626b377229c10585ec392f89,626b3980dfd671630cbd245a,,,,,,,,,,,,,,,,,,,,,,,l,1,1.099,"[""0.105"",""0.170"",""0.071"",""0.840""]","[1,1,0,1]",0,25,25,25,1,1,1,,,1,FALSE,,,,,,,,,,,,,,,,,,,,,,,,,,,,,,
,5ee2a44d4c9d7542817268e7,001,2022-04-28_20h10.34.416,classification_task,2021.2.3,Win32,59.57345407,5ee2a44d4c9d7542817268e7,626b377229c10585ec392f89,626b3980dfd671630cbd245a,,,,,,,,,,,,,,,,,,,,,,,l,1,1.2307,"[""0.105"",""0.624"",""0.572"",""0.840""]","[1,0,1,1]",0,26,26,26,1,1,1,,,1,FALSE,,,,,,,,,,,,,,,,,,,,,,,,,,,,,,
,5ee2a44d4c9d7542817268e7,001,2022-04-28_20h10.34.416,classification_task,2021.2.3,Win32,59.57345407,5ee2a44d4c9d7542817268e7,626b377229c10585ec392f89,626b3980dfd671630cbd245a,,,,,,,,,,,,,,,,,,,,,,,l,1,0.8987,"[""0.036"",""0.209"",""0.467"",""0.705""]","[1,0,1,1]",0,27,27,27,1,1,0,,,1,FALSE,,,,,,,,,,,,,,,,,,,,,,,,,,,,,,
,5ee2a44d4c9d7542817268e7,001,2022-04-28_20h10.34.416,classification_task,2021.2.3,Win32,59.57345407,5ee2a44d4c9d7542817268e7,626b377229c10585ec392f89,626b3980dfd671630cbd245a,,,,,,,,,,,,,,,,,,,,,,,l,0,1.4326,"[""0.248"",""0.508"",""0.770"",""0.618""]","[1,1,1,0]",0,28,28,28,1,0,0,,,1,FALSE,,,,,,,,,,,,,,,,,,,,,,,,,,,,,,
,5ee2a44d4c9d7542817268e7,001,2022-04-28_20h10.34.416,classification_task,2021.2.3,Win32,59.57345407,5ee2a44d4c9d7542817268e7,626b377229c10585ec392f89,626b3980dfd671630cbd245a,,,,,,,,,,,,,,,,,,,,,,,a,1,1.7337,"[""0.625"",""0.382"",""0.659"",""0.962""]","[0,1,1,1]",0,29,29,29,1,0,1,,,1,FALSE,,,,,,,,,,,,,,,,,,,,,,,,,,,,,,
,5ee2a44d4c9d7542817268e7,001,2022-04-28_20h10.34.416,classification_task,2021.2.3,Win32,59.57345407,5ee2a44d4c9d7542817268e7,626b377229c10585ec392f89,626b3980dfd671630cbd245a,,,,,,,,,,,,,,,,,,,,,,,l,0,1.6835,"[""0.292"",""0.382"",""0.071"",""0.962""]","[1,1,0,1]",0,30,30,30,1,0,1,,,1,FALSE,,,,,,,,,,,,,,,,,,,,,,,,,,,,,,
,5ee2a44d4c9d7542817268e7,001,2022-04-28_20h10.34.416,classification_task,2021.2.3,Win32,59.57345407,5ee2a44d4c9d7542817268e7,626b377229c10585ec392f89,626b3980dfd671630cbd245a,,,,,,,,,,,,,,,,,,,,,,,a,0,3.2312,"[""0.625"",""0.170"",""0.572"",""0.840""]","[0,1,1,1]",0,31,31,31,1,1,1,,,1,FALSE,,,,,,,,,,,,,,,,,,,,,,,,,,,,,,
,5ee2a44d4c9d7542817268e7,001,2022-04-28_20h10.34.416,classification_task,2021.2.3,Win32,59.57345407,5ee2a44d4c9d7542817268e7,626b377229c10585ec392f89,626b3980dfd671630cbd245a,,,,,,,,,,,,,,,,,,,,,,,l,1,1.1,"[""0.105"",""0.170"",""0.208"",""0.840""]","[1,1,0,1]",0,32,32,32,1,1,1,,,1,FALSE,,,,,,,,,,,,,,,,,,,,,,,,,,,,,,
,5ee2a44d4c9d7542817268e7,001,2022-04-28_20h10.34.416,classification_task,2021.2.3,Win32,59.57345407,5ee2a44d4c9d7542817268e7,626b377229c10585ec392f89,626b3980dfd671630cbd245a,,,,,,,,,,,,,,,,,,,,,,,l,1,4.8139,"[""0.036"",""0.342"",""0.071"",""0.705""]","[1,1,0,1]",0,33,33,33,1,1,0,,,1,FALSE,,,,,,,,,,,,,,,,,,,,,,,,,,,,,,
,5ee2a44d4c9d7542817268e7,001,2022-04-28_20h10.34.416,classification_task,2021.2.3,Win32,59.57345407,5ee2a44d4c9d7542817268e7,626b377229c10585ec392f89,626b3980dfd671630cbd245a,,,,,,,,,,,,,,,,,,,,,,,l,1,0.9345,"[""0.036"",""0.428"",""0.467"",""0.705""]","[1,0,1,1]",0,34,34,34,1,1,0,,,1,FALSE,,,,,,,,,,,,,,,,,,,,,,,,,,,,,,
,5ee2a44d4c9d7542817268e7,001,2022-04-28_20h10.34.416,classification_task,2021.2.3,Win32,59.57345407,5ee2a44d4c9d7542817268e7,626b377229c10585ec392f89,626b3980dfd671630cbd245a,,,,,,,,,,,,,,,,,,,,,,,a,1,3.2661,"[""0.292"",""0.382"",""0.659"",""0.209""]","[1,1,1,0]",0,35,35,35,1,0,1,,,1,FALSE,,,,,,,,,,,,,,,,,,,,,,,,,,,,,,
,5ee2a44d4c9d7542817268e7,001,2022-04-28_20h10.34.416,classification_task,2021.2.3,Win32,59.57345407,5ee2a44d4c9d7542817268e7,626b377229c10585ec392f89,626b3980dfd671630cbd245a,,,,,,,,,,,,,,,,,,,,,,,a,1,2.7625,"[""0.292"",""0.382"",""0.208"",""0.962""]","[1,1,0,1]",0,36,36,36,1,0,1,,,1,FALSE,,,,,,,,,,,,,,,,,,,,,,,,,,,,,,
,5ee2a44d4c9d7542817268e7,001,2022-04-28_20h10.34.416,classification_task,2021.2.3,Win32,59.57345407,5ee2a44d4c9d7542817268e7,626b377229c10585ec392f89,626b3980dfd671630cbd245a,,,,,,,,,,,,,,,,,,,,,,,a,1,5.3532,"[""0.248"",""0.508"",""0.419"",""0.918""]","[1,1,0,1]",0,37,37,37,1,0,0,,,1,FALSE,,,,,,,,,,,,,,,,,,,,,,,,,,,,,,
,5ee2a44d4c9d7542817268e7,001,2022-04-28_20h10.34.416,classification_task,2021.2.3,Win32,59.57345407,5ee2a44d4c9d7542817268e7,626b377229c10585ec392f89,626b3980dfd671630cbd245a,,,,,,,,,,,,,,,,,,,,,,,l,1,1.4834,"[""0.105"",""0.170"",""0.572"",""0.417""]","[1,1,1,0]",0,38,38,38,1,1,1,,,1,FALSE,,,,,,,,,,,,,,,,,,,,,,,,,,,,,,
,5ee2a44d4c9d7542817268e7,001,2022-04-28_20h10.34.416,classification_task,2021.2.3,Win32,59.57345407,5ee2a44d4c9d7542817268e7,626b377229c10585ec392f89,626b3980dfd671630cbd245a,,,,,,,,,,,,,,,,,,,,,,,a,1,2.8664,"[""0.248"",""0.430"",""0.770"",""0.918""]","[1,0,1,1]",0,39,39,39,1,0,0,,,1,FALSE,,,,,,,,,,,,,,,,,,,,,,,,,,,,,,
,5ee2a44d4c9d7542817268e7,001,2022-04-28_20h10.34.416,classification_task,2021.2.3,Win32,59.57345407,5ee2a44d4c9d7542817268e7,626b377229c10585ec392f89,626b3980dfd671630cbd245a,,,,,,,,,,,,,,,,,,,,,,,a,1,1.7673,"[""0.431"",""0.508"",""0.770"",""0.918""]","[0,1,1,1]",0,40,40,40,1,0,0,,,1,FALSE,,,,,,,,,,,,,,,,,,,,,,,,,,,,,,
,5ee2a44d4c9d7542817268e7,001,2022-04-28_20h10.34.416,classification_task,2021.2.3,Win32,59.57345407,5ee2a44d4c9d7542817268e7,626b377229c10585ec392f89,626b3980dfd671630cbd245a,,,,,,,,,,,,,,,,,,,,,,,l,1,1.8985,"[""0.105"",""0.431"",""0.572"",""0.840""]","[1,0,1,1]",0,41,41,41,1,1,1,,,1,FALSE,,,,,,,,,,,,,,,,,,,,,,,,,,,,,,
,5ee2a44d4c9d7542817268e7,001,2022-04-28_20h10.34.416,classification_task,2021.2.3,Win32,59.57345407,5ee2a44d4c9d7542817268e7,626b377229c10585ec392f89,626b3980dfd671630cbd245a,,,,,,,,,,,,,,,,,,,,,,,a,0,3.4986,"[""0.625"",""0.170"",""0.572"",""0.840""]","[0,1,1,1]",0,42,42,42,1,1,1,,,1,FALSE,,,,,,,,,,,,,,,,,,,,,,,,,,,,,,
,5ee2a44d4c9d7542817268e7,001,2022-04-28_20h10.34.416,classification_task,2021.2.3,Win32,59.57345407,5ee2a44d4c9d7542817268e7,626b377229c10585ec392f89,626b3980dfd671630cbd245a,,,,,,,,,,,,,,,,,,,,,,,a,1,1.1324,"[""0.625"",""0.382"",""0.659"",""0.962""]","[0,1,1,1]",0,43,43,43,1,0,1,,,1,FALSE,,,,,,,,,,,,,,,,,,,,,,,,,,,,,,
,5ee2a44d4c9d7542817268e7,001,2022-04-28_20h10.34.416,classification_task,2021.2.3,Win32,59.57345407,5ee2a44d4c9d7542817268e7,626b377229c10585ec392f89,626b3980dfd671630cbd245a,,,,,,,,,,,,,,,,,,,,,,,a,0,1.3655,"[""0.431"",""0.342"",""0.467"",""0.705""]","[0,1,1,1]",0,44,44,44,1,1,0,,,1,FALSE,,,,,,,,,,,,,,,,,,,,,,,,,,,,,,
,5ee2a44d4c9d7542817268e7,001,2022-04-28_20h10.34.416,classification_task,2021.2.3,Win32,59.57345407,5ee2a44d4c9d7542817268e7,626b377229c10585ec392f89,626b3980dfd671630cbd245a,,,,,,,,,,,,,,,,,,,,,,,a,1,1.1,"[""0.248"",""0.508"",""0.770"",""0.431""]","[1,1,1,0]",0,45,45,45,1,0,0,,,1,FALSE,,,,,,,,,,,,,,,,,,,,,,,,,,,,,,
,5ee2a44d4c9d7542817268e7,001,2022-04-28_20h10.34.416,classification_task,2021.2.3,Win32,59.57345407,5ee2a44d4c9d7542817268e7,626b377229c10585ec392f89,626b3980dfd671630cbd245a,,,,,,,,,,,,,,,,,,,,,,,a,1,2.5996,"[""0.292"",""0.618"",""0.659"",""0.962""]","[1,0,1,1]",0,46,46,46,1,0,1,,,1,FALSE,,,,,,,,,,,,,,,,,,,,,,,,,,,,,,
,5ee2a44d4c9d7542817268e7,001,2022-04-28_20h10.34.416,classification_task,2021.2.3,Win32,59.57345407,5ee2a44d4c9d7542817268e7,626b377229c10585ec392f89,626b3980dfd671630cbd245a,,,,,,,,,,,,,,,,,,,,,,,l,1,0.9494,"[""0.036"",""0.342"",""0.467"",""0.430""]","[1,1,1,0]",0,47,47,47,1,1,0,,,1,FALSE,,,,,,,,,,,,,,,,,,,,,,,,,,,,,,
,5ee2a44d4c9d7542817268e7,001,2022-04-28_20h10.34.416,classification_task,2021.2.3,Win32,59.57345407,5ee2a44d4c9d7542817268e7,626b377229c10585ec392f89,626b3980dfd671630cbd245a,,,,,,,,,,,,,,,,,,,,,,,a,1,3.3318,"[""0.292"",""0.382"",""0.659"",""0.209""]","[1,1,1,0]",0,48,48,48,1,0,1,,,1,FALSE,,,,,,,,,,,,,,,,,,,,,,,,,,,,,,
,5ee2a44d4c9d7542817268e7,001,2022-04-28_20h10.34.416,classification_task,2021.2.3,Win32,59.57345407,5ee2a44d4c9d7542817268e7,626b377229c10585ec392f89,626b3980dfd671630cbd245a,,,,,,,,,,,,,,,,,,,,,,,a,1,2.9824,"[""0.292"",""0.428"",""0.659"",""0.962""]","[1,0,1,1]",0,49,49,49,1,0,1,,,1,FALSE,,,,,,,,,,,,,,,,,,,,,,,,,,,,,,
,5ee2a44d4c9d7542817268e7,001,2022-04-28_20h10.34.416,classification_task,2021.2.3,Win32,59.57345407,5ee2a44d4c9d7542817268e7,626b377229c10585ec392f89,626b3980dfd671630cbd245a,,,,,,,,,,,,,,,,,,,,,,,l,1,1.0651,"[""0.105"",""0.170"",""0.431"",""0.840""]","[1,1,0,1]",0,50,50,50,1,1,1,,,1,FALSE,,,,,,,,,,,,,,,,,,,,,,,,,,,,,,
,5ee2a44d4c9d7542817268e7,001,2022-04-28_20h10.34.416,classification_task,2021.2.3,Win32,59.57345407,5ee2a44d4c9d7542817268e7,626b377229c10585ec392f89,626b3980dfd671630cbd245a,,,,,,,,,,,,,,,,,,,,,,,l,1,0.699,"[""0.105"",""0.624"",""0.572"",""0.840""]","[1,0,1,1]",0,51,51,51,1,1,1,,,1,FALSE,,,,,,,,,,,,,,,,,,,,,,,,,,,,,,
,5ee2a44d4c9d7542817268e7,001,2022-04-28_20h10.34.416,classification_task,2021.2.3,Win32,59.57345407,5ee2a44d4c9d7542817268e7,626b377229c10585ec392f89,626b3980dfd671630cbd245a,,,,,,,,,,,,,,,,,,,,,,,a,1,1.5819,"[""0.248"",""0.618"",""0.770"",""0.918""]","[1,0,1,1]",0,52,52,52,1,0,0,,,1,FALSE,,,,,,,,,,,,,,,,,,,,,,,,,,,,,,
,5ee2a44d4c9d7542817268e7,001,2022-04-28_20h10.34.416,classification_task,2021.2.3,Win32,59.57345407,5ee2a44d4c9d7542817268e7,626b377229c10585ec392f89,626b3980dfd671630cbd245a,,,,,,,,,,,,,,,,,,,,,,,l,1,1.1497,"[""0.036"",""0.342"",""0.431"",""0.705""]","[1,1,0,1]",0,53,53,53,1,1,0,,,1,FALSE,,,,,,,,,,,,,,,,,,,,,,,,,,,,,,
,5ee2a44d4c9d7542817268e7,001,2022-04-28_20h10.34.416,classification_task,2021.2.3,Win32,59.57345407,5ee2a44d4c9d7542817268e7,626b377229c10585ec392f89,626b3980dfd671630cbd245a,,,,,,,,,,,,,,,,,,,,,,,l,1,0.7026,"[""0.036"",""0.417"",""0.467"",""0.705""]","[1,0,1,1]",0,54,54,54,1,1,0,,,1,FALSE,,,,,,,,,,,,,,,,,,,,,,,,,,,,,,
,5ee2a44d4c9d7542817268e7,001,2022-04-28_20h10.34.416,classification_task,2021.2.3,Win32,59.57345407,5ee2a44d4c9d7542817268e7,626b377229c10585ec392f89,626b3980dfd671630cbd245a,,,,,,,,,,,,,,,,,,,,,,,a,1,2.6833,"[""0.292"",""0.382"",""0.612"",""0.962""]","[1,1,0,1]",0,55,55,55,1,0,1,,,1,FALSE,,,,,,,,,,,,,,,,,,,,,,,,,,,,,,
,5ee2a44d4c9d7542817268e7,001,2022-04-28_20h10.34.416,classification_task,2021.2.3,Win32,59.57345407,5ee2a44d4c9d7542817268e7,626b377229c10585ec392f89,626b3980dfd671630cbd245a,,,,,,,,,,,,,,,,,,,,,,,l,1,0.9497,"[""0.036"",""0.342"",""0.467"",""0.430""]","[1,1,1,0]",0,56,56,56,1,1,0,,,1,FALSE,,,,,,,,,,,,,,,,,,,,,,,,,,,,,,
,5ee2a44d4c9d7542817268e7,001,2022-04-28_20h10.34.416,classification_task,2021.2.3,Win32,59.57345407,5ee2a44d4c9d7542817268e7,626b377229c10585ec392f89,626b3980dfd671630cbd245a,,,,,,,,,,,,,,,,,,,,,,,l,0,5.3146,"[""0.248"",""0.508"",""0.209"",""0.918""]","[1,1,0,1]",0,57,57,57,1,0,0,,,1,FALSE,,,,,,,,,,,,,,,,,,,,,,,,,,,,,,
,5ee2a44d4c9d7542817268e7,001,2022-04-28_20h10.34.416,classification_task,2021.2.3,Win32,59.57345407,5ee2a44d4c9d7542817268e7,626b377229c10585ec392f89,626b3980dfd671630cbd245a,,,,,,,,,,,,,,,,,,,,,,,l,0,1.0157,"[""0.248"",""0.508"",""0.770"",""0.208""]","[1,1,1,0]",0,58,58,58,1,0,0,,,1,FALSE,,,,,,,,,,,,,,,,,,,,,,,,,,,,,,
,5ee2a44d4c9d7542817268e7,001,2022-04-28_20h10.34.416,classification_task,2021.2.3,Win32,59.57345407,5ee2a44d4c9d7542817268e7,626b377229c10585ec392f89,626b3980dfd671630cbd245a,,,,,,,,,,,,,,,,,,,,,,,a,1,2.3822,"[""0.417"",""0.508"",""0.770"",""0.918""]","[0,1,1,1]",0,59,59,59,1,0,0,,,1,FALSE,,,,,,,,,,,,,,,,,,,,,,,,,,,,,,
,5ee2a44d4c9d7542817268e7,001,2022-04-28_20h10.34.416,classification_task,2021.2.3,Win32,59.57345407,5ee2a44d4c9d7542817268e7,626b377229c10585ec392f89,626b3980dfd671630cbd245a,,,,,,,,,,,,,,,,,,,,,,,a,1,0.9123,"[""0.612"",""0.382"",""0.659"",""0.962""]","[0,1,1,1]",0,60,60,60,1,0,1,,,1,FALSE,,,,,,,,,,,,,,,,,,,,,,,,,,,,,,
,5ee2a44d4c9d7542817268e7,001,2022-04-28_20h10.34.416,classification_task,2021.2.3,Win32,59.57345407,5ee2a44d4c9d7542817268e7,626b377229c10585ec392f89,626b3980dfd671630cbd245a,,,,,,,,,,,,,,,,,,,,,,,l,1,2.6659,"[""0.625"",""0.342"",""0.467"",""0.705""]","[0,1,1,1]",0,61,61,61,1,1,0,,,1,FALSE,,,,,,,,,,,,,,,,,,,,,,,,,,,,,,
,5ee2a44d4c9d7542817268e7,001,2022-04-28_20h10.34.416,classification_task,2021.2.3,Win32,59.57345407,5ee2a44d4c9d7542817268e7,626b377229c10585ec392f89,626b3980dfd671630cbd245a,,,,,,,,,,,,,,,,,,,,,,,l,1,1.3144,"[""0.105"",""0.170"",""0.572"",""0.431""]","[1,1,1,0]",0,62,62,62,1,1,1,,,1,FALSE,,,,,,,,,,,,,,,,,,,,,,,,,,,,,,
,5ee2a44d4c9d7542817268e7,001,2022-04-28_20h10.34.416,classification_task,2021.2.3,Win32,59.57345407,5ee2a44d4c9d7542817268e7,626b377229c10585ec392f89,626b3980dfd671630cbd245a,,,,,,,,,,,,,,,,,,,,,,,a,0,3.6842,"[""0.625"",""0.170"",""0.572"",""0.840""]","[0,1,1,1]",0,63,63,63,1,1,1,,,1,FALSE,,,,,,,,,,,,,,,,,,,,,,,,,,,,,,
,5ee2a44d4c9d7542817268e7,001,2022-04-28_20h10.34.416,classification_task,2021.2.3,Win32,59.57345407,5ee2a44d4c9d7542817268e7,626b377229c10585ec392f89,626b3980dfd671630cbd245a,,,,,,,,,,,,,,,,,,,,,,,,,,,,,,,,,,,,,,,0, ,,0,7.235204782,210.1786,0,2,2,2,1,2,3,,,,,,,,,,,,,,,,,
,5ee2a44d4c9d7542817268e7,001,2022-04-28_20h10.34.416,classification_task,2021.2.3,Win32,59.57345407,5ee2a44d4c9d7542817268e7,626b377229c10585ec392f89,626b3980dfd671630cbd245a,,,,,,,,,,,,,,,,,,,,,,,,,,,,,,,,,,,,,,,1,  ,,0,10,207.039,0,2,2,2,1,2,3,,,,,,,,,,,,,,,,,
,5ee2a44d4c9d7542817268e7,001,2022-04-28_20h10.34.416,classification_task,2021.2.3,Win32,59.57345407,5ee2a44d4c9d7542817268e7,626b377229c10585ec392f89,626b3980dfd671630cbd245a,,,,,,,,,,,,,,,,,,,,,,,,,,,,,,,,,,,,,,,2,  ,,0,10,205.8285,0,2,2,2,1,2,3,,,,,,,,,,,,,,,,,
,5ee2a44d4c9d7542817268e7,001,2022-04-28_20h10.34.416,classification_task,2021.2.3,Win32,59.57345407,5ee2a44d4c9d7542817268e7,626b377229c10585ec392f89,626b3980dfd671630cbd245a,,,,,,,,,,,,,,,,,,,,,,,,,,,,,,,,,,,,,,,,,,,,,0,2,2,2,1,,3,,,,,,,,,,,,,,,,,
,5ee2a44d4c9d7542817268e7,001,2022-04-28_20h10.34.416,classification_task,2021.2.3,Win32,59.57345407,5ee2a44d4c9d7542817268e7,626b377229c10585ec392f89,626b3980dfd671630cbd245a,,,,,,,,,,,,,,,,,,,,,,,,,,,,,,,,,,,,,,,,,,,,,,,,,,,,,I believe the aid is a competent performer,,0.7,0,5,1100.9387,0,0,0,0,1,0,,,,
,5ee2a44d4c9d7542817268e7,001,2022-04-28_20h10.34.416,classification_task,2021.2.3,Win32,59.57345407,5ee2a44d4c9d7542817268e7,626b377229c10585ec392f89,626b3980dfd671630cbd245a,,,,,,,,,,,,,,,,,,,,,,,,,,,,,,,,,,,,,,,,,,,,,,,,,,,,,I trust the aid,,0.7,0,5,1102.7521,0,0,0,0,1,0,,,,
,5ee2a44d4c9d7542817268e7,001,2022-04-28_20h10.34.416,classification_task,2021.2.3,Win32,59.57345407,5ee2a44d4c9d7542817268e7,626b377229c10585ec392f89,626b3980dfd671630cbd245a,,,,,,,,,,,,,,,,,,,,,,,,,,,,,,,,,,,,,,,,,,,,,,,,,,,,,I have confidence in the advice given by the aid,,0.7,0,5,1105.0174,0,0,0,0,1,0,,,,
,5ee2a44d4c9d7542817268e7,001,2022-04-28_20h10.34.416,classification_task,2021.2.3,Win32,59.57345407,5ee2a44d4c9d7542817268e7,626b377229c10585ec392f89,626b3980dfd671630cbd245a,,,,,,,,,,,,,,,,,,,,,,,,,,,,,,,,,,,,,,,,,,,,,,,,,,,,,I can depend on the aid,,0.7,0,4,1109.5827,0,0,0,0,1,0,,,,
,5ee2a44d4c9d7542817268e7,001,2022-04-28_20h10.34.416,classification_task,2021.2.3,Win32,59.57345407,5ee2a44d4c9d7542817268e7,626b377229c10585ec392f89,626b3980dfd671630cbd245a,,,,,,,,,,,,,,,,,,,,,,,,,,,,,,,,,,,,,,,,,,,,,,,,,,,,,I can rely on the aid to behave in consistent ways,,0.7,0,5,1146.7193,0,0,0,0,1,0,,,,
,5ee2a44d4c9d7542817268e7,001,2022-04-28_20h10.34.416,classification_task,2021.2.3,Win32,59.57345407,5ee2a44d4c9d7542817268e7,626b377229c10585ec392f89,626b3980dfd671630cbd245a,,,,,,,,,,,,,,,,,,,,,,,,,,,,,,,,,,,,,,,,,,,,,,,,,,,,,I can rely on the aid to do its best every time I take its advice,,0.7,0,5,1112.2968,0,0,0,0,1,0,,,,
,5ee2a44d4c9d7542817268e7,001,2022-04-28_20h10.34.416,classification_task,2021.2.3,Win32,59.57345407,5ee2a44d4c9d7542817268e7,626b377229c10585ec392f89,626b3980dfd671630cbd245a,,,,,,,,,,,,,,,,,,,,,,,,,,,,,,,,,,,,,,,,,,,,,,,,,,,,,"On trials you completed with assistance from the aid, how frequently did you think the aid was correct?",,0.7,0,100%,,0,0,0,0,1,0,,,,
,5ee2a44d4c9d7542817268e7,001,2022-04-28_20h10.34.416,classification_task,2021.2.3,Win32,59.57345407,5ee2a44d4c9d7542817268e7,626b377229c10585ec392f89,626b3980dfd671630cbd245a,,,,,,,,,,,,,,,,,,,,,,,,,,,,,,,,,,,,,,,,,,,,,,,,,,,,,"On trials you completed without the aid, how frequently did you think you were correct?",,0.7,0,80%,,0,0,0,0,1,0,,,,
,5ee2a44d4c9d7542817268e7,001,2022-04-28_20h10.34.416,classification_task,2021.2.3,Win32,59.57345407,5ee2a44d4c9d7542817268e7,626b377229c10585ec392f89,626b3980dfd671630cbd245a,,,,,,,,,,,,,,,,,,,,,,,,,,,,,,,,,,,,,,,,,,,,,,,,,,,,,,,,,,,0,0,0,0,1,,,,,
,5ee2a44d4c9d7542817268e7,001,2022-04-28_20h10.34.416,classification_task,2021.2.3,Win32,59.57345407,5ee2a44d4c9d7542817268e7,626b377229c10585ec392f89,626b3980dfd671630cbd245a,,,,,,,,,,,,,,,,,,,,,,,,,,,,,,,,,,,,,,,,,,,,,,,,,,,,,,,,,,,,,,,,,space,22.4983,1177.1876,
,5ee2a44d4c9d7542817268e7,001,2022-04-28_20h10.34.416,classification_task,2021.2.3,Win32,59.57345407,5ee2a44d4c9d7542817268e7,626b377229c10585ec392f89,626b3980dfd671630cbd245a,,,,,,,,,,,,,,,,,,,,,,,,,,,,,,,,,,,,,,,,,,,,,,,,,,,,,,,,,,,,,,,,,,,,"Mozilla/5.0 (Windows NT 10.0; Win64; x64) AppleWebKit/537.36 (KHTML, like Gecko) Chrome/100.0.4896.127 Safari/537.36"
