usingWebGL,participant,session,date,expName,psychopyVersion,OS,frameRate,study_id,signatures_friend,signatures_foe,band_ranges_top,band_ranges_bottom,formitemText,formtype,formundefined,formitemWidth,formindex,formresponse,formrt,key_resp_2.keys,key_resp_2.rt,tute_resp.keys,tute_resp.rt,tutorial.thisRepN,tutorial.thisTrialN,tutorial.thisN,tutorial.thisIndex,tutorial.ran,key_resp_4.keys,key_resp_4.rt,key_resp.keys,key_resp.corr,key_resp.rt,lines_presented,is_signal_presented,trials.thisRepN,trials.thisTrialN,trials.thisN,trials.thisIndex,trials.ran,vessel,active_band,lines,is_signal,supported_pos,catch_trial,debrief_formindex,debrief_formitemText,debrief_formtype,debrief_formitemWidth,debrief_formresponse,debrief_formrt,phases.thisRepN,phases.thisTrialN,phases.thisN,phases.thisIndex,phases.ran,phases.order,phase,key_resp_3.keys,trustitemText,trusttype,trustitemWidth,trustindex,trustresponse,trustrt,support_status.thisRepN,support_status.thisTrialN,support_status.thisN,support_status.thisIndex,support_status.ran,support_status.order,key_resp_5.keys,key_resp_5.rt,globalClockTime,userAgent,manualCondition
TRUE,5ee623674afa60375e30eec3,627c76c22ca7f3627b95734a,2022-05-12_03h54.42.160,classification_task,2021.2.3,Win32,60.10337781,627c6715c52fd12f31907bd0,,,,,,,,,,,,,,,,,,,,,,,,,,,,,,,,,,,,,,,,,,,,,,,,,,,,,,,,,,,,,,,,,,,,,
,5ee623674afa60375e30eec3,627c76c22ca7f3627b95734a,2022-05-12_03h54.42.160,classification_task,2021.2.3,Win32,60.10337781,627c6715c52fd12f31907bd0,"[[""0.224"",""0.437"",""0.740"",""0.888""],[""0.191"",""0.386"",""0.620"",""0.950""]]","[[""0.032"",""0.258"",""0.474"",""0.779""],[""0.135"",""0.330"",""0.537"",""0.678""]]","[1,10]","[100,1000]",Video game experience,,,0.7,0,,,,,,,,,,,,,,,,,,,,,,,,,,,,,,,,,,,,,,,,,,,,,,,,,,,,,,,,,,,,
,5ee623674afa60375e30eec3,627c76c22ca7f3627b95734a,2022-05-12_03h54.42.160,classification_task,2021.2.3,Win32,60.10337781,627c6715c52fd12f31907bd0,,,,,Approximately how many hours did you spend playing video games in the last week?,,,0.7,0,10,,,,,,,,,,,,,,,,,,,,,,,,,,,,,,,,,,,,,,,,,,,,,,,,,,,,,,,,,,,
,5ee623674afa60375e30eec3,627c76c22ca7f3627b95734a,2022-05-12_03h54.42.160,classification_task,2021.2.3,Win32,60.10337781,627c6715c52fd12f31907bd0,,,,,"Which game did you play the most this year? (Enter ""None"" if you didn't play any)",,,0.7,0,Valorant,,,,,,,,,,,,,,,,,,,,,,,,,,,,,,,,,,,,,,,,,,,,,,,,,,,,,,,,,,,
,5ee623674afa60375e30eec3,627c76c22ca7f3627b95734a,2022-05-12_03h54.42.160,classification_task,2021.2.3,Win32,60.10337781,627c6715c52fd12f31907bd0,,,,,Visual perception,,,0.7,0,,,,,,,,,,,,,,,,,,,,,,,,,,,,,,,,,,,,,,,,,,,,,,,,,,,,,,,,,,,,
,5ee623674afa60375e30eec3,627c76c22ca7f3627b95734a,2022-05-12_03h54.42.160,classification_task,2021.2.3,Win32,60.10337781,627c6715c52fd12f31907bd0,,,,,Do you have any form of color blindness?,,,0.7,0,No,53.8047,,,,,,,,,,,,,,,,,,,,,,,,,,,,,,,,,,,,,,,,,,,,,,,,,,,,,,,,,,
,5ee623674afa60375e30eec3,627c76c22ca7f3627b95734a,2022-05-12_03h54.42.160,classification_task,2021.2.3,Win32,60.10337781,627c6715c52fd12f31907bd0,,,,,Do you use software to change the colour temperature of your screen (e.g. f.lux)?,,,0.7,0,No,56.0166,,,,,,,,,,,,,,,,,,,,,,,,,,,,,,,,,,,,,,,,,,,,,,,,,,,,,,,,,,
,5ee623674afa60375e30eec3,627c76c22ca7f3627b95734a,2022-05-12_03h54.42.160,classification_task,2021.2.3,Win32,60.10337781,627c6715c52fd12f31907bd0,,,,,,,,,,,,space,26.0584,space,7.4113,0,0,0,0,1,,,,,,,,,,,,,,,,,,,,,,,,,,,,,,,,,,,,,,,,,,,,,,,,,
,5ee623674afa60375e30eec3,627c76c22ca7f3627b95734a,2022-05-12_03h54.42.160,classification_task,2021.2.3,Win32,60.10337781,627c6715c52fd12f31907bd0,,,,,,,,,,,,,,space,8.0279,1,0,1,0,1,,,,,,,,,,,,,,,,,,,,,,,,,,,,,,,,,,,,,,,,,,,,,,,,,
,5ee623674afa60375e30eec3,627c76c22ca7f3627b95734a,2022-05-12_03h54.42.160,classification_task,2021.2.3,Win32,60.10337781,627c6715c52fd12f31907bd0,,,,,,,,,,,,,,space,20.8652,2,0,2,0,1,,,,,,,,,,,,,,,,,,,,,,,,,,,,,,,,,,,,,,,,,,,,,,,,,
,5ee623674afa60375e30eec3,627c76c22ca7f3627b95734a,2022-05-12_03h54.42.160,classification_task,2021.2.3,Win32,60.10337781,627c6715c52fd12f31907bd0,,,,,,,,,,,,,,space,10.9237,3,0,3,0,1,,,,,,,,,,,,,,,,,,,,,,,,,,,,,,,,,,,,,,,,,,,,,,,,,
,5ee623674afa60375e30eec3,627c76c22ca7f3627b95734a,2022-05-12_03h54.42.160,classification_task,2021.2.3,Win32,60.10337781,627c6715c52fd12f31907bd0,,,,,,,,,,,,,,space,18.8656,4,0,4,0,1,,,,,,,,,,,,,,,,,,,,,,,,,,,,,,,,,,,,,,,,,,,,,,,,,
,5ee623674afa60375e30eec3,627c76c22ca7f3627b95734a,2022-05-12_03h54.42.160,classification_task,2021.2.3,Win32,60.10337781,627c6715c52fd12f31907bd0,,,,,,,,,,,,,,,,,,,,,space,13.0369,a,0,3.8314,"[""0.135"",""0.851"",""0.537"",""0.678""]","[1,0,1,1]",0,0,0,0,1,1,1,,,0,FALSE,,,,,,,,,,,,,,,,,,,,,,,,,,,,,,,
,5ee623674afa60375e30eec3,627c76c22ca7f3627b95734a,2022-05-12_03h54.42.160,classification_task,2021.2.3,Win32,60.10337781,627c6715c52fd12f31907bd0,,,,,,,,,,,,,,,,,,,,,,,l,0,1.6051,"[""0.073"",""0.386"",""0.620"",""0.950""]","[0,1,1,1]",0,1,1,1,1,0,1,,,0,FALSE,,,,,,,,,,,,,,,,,,,,,,,,,,,,,,,
,5ee623674afa60375e30eec3,627c76c22ca7f3627b95734a,2022-05-12_03h54.42.160,classification_task,2021.2.3,Win32,60.10337781,627c6715c52fd12f31907bd0,,,,,,,,,,,,,,,,,,,,,,,a,1,1.2424,"[""0.224"",""0.437"",""0.824"",""0.888""]","[1,1,0,1]",0,2,2,2,1,0,0,,,0,FALSE,,,,,,,,,,,,,,,,,,,,,,,,,,,,,,,
,5ee623674afa60375e30eec3,627c76c22ca7f3627b95734a,2022-05-12_03h54.42.160,classification_task,2021.2.3,Win32,60.10337781,627c6715c52fd12f31907bd0,,,,,,,,,,,,,,,,,,,,,,,a,0,1.4708,"[""0.032"",""0.098"",""0.474"",""0.779""]","[1,0,1,1]",0,3,3,3,1,1,0,,,0,FALSE,,,,,,,,,,,,,,,,,,,,,,,,,,,,,,,
,5ee623674afa60375e30eec3,627c76c22ca7f3627b95734a,2022-05-12_03h54.42.160,classification_task,2021.2.3,Win32,60.10337781,627c6715c52fd12f31907bd0,,,,,,,,,,,,,,,,,,,,,,,a,0,1.5633,"[""0.032"",""0.258"",""0.585"",""0.779""]","[1,1,0,1]",0,4,4,4,1,1,0,,,0,FALSE,,,,,,,,,,,,,,,,,,,,,,,,,,,,,,,
,5ee623674afa60375e30eec3,627c76c22ca7f3627b95734a,2022-05-12_03h54.42.160,classification_task,2021.2.3,Win32,60.10337781,627c6715c52fd12f31907bd0,,,,,,,,,,,,,,,,,,,,,,,a,1,1.49,"[""0.066"",""0.437"",""0.740"",""0.888""]","[0,1,1,1]",0,5,5,5,1,0,0,,,0,FALSE,,,,,,,,,,,,,,,,,,,,,,,,,,,,,,,
,5ee623674afa60375e30eec3,627c76c22ca7f3627b95734a,2022-05-12_03h54.42.160,classification_task,2021.2.3,Win32,60.10337781,627c6715c52fd12f31907bd0,,,,,,,,,,,,,,,,,,,,,,,a,0,0.9912,"[""0.135"",""0.330"",""0.585"",""0.678""]","[1,1,0,1]",0,6,6,6,1,1,1,,,0,FALSE,,,,,,,,,,,,,,,,,,,,,,,,,,,,,,,
,5ee623674afa60375e30eec3,627c76c22ca7f3627b95734a,2022-05-12_03h54.42.160,classification_task,2021.2.3,Win32,60.10337781,627c6715c52fd12f31907bd0,,,,,,,,,,,,,,,,,,,,,,,a,0,0.7118,"[""0.066"",""0.258"",""0.474"",""0.779""]","[0,1,1,1]",0,7,7,7,1,1,0,,,0,FALSE,,,,,,,,,,,,,,,,,,,,,,,,,,,,,,,
,5ee623674afa60375e30eec3,627c76c22ca7f3627b95734a,2022-05-12_03h54.42.160,classification_task,2021.2.3,Win32,60.10337781,627c6715c52fd12f31907bd0,,,,,,,,,,,,,,,,,,,,,,,l,0,1.2721,"[""0.224"",""0.092"",""0.740"",""0.888""]","[1,0,1,1]",0,8,8,8,1,0,0,,,0,FALSE,,,,,,,,,,,,,,,,,,,,,,,,,,,,,,,
,5ee623674afa60375e30eec3,627c76c22ca7f3627b95734a,2022-05-12_03h54.42.160,classification_task,2021.2.3,Win32,60.10337781,627c6715c52fd12f31907bd0,,,,,,,,,,,,,,,,,,,,,,,l,1,1.0022,"[""0.072"",""0.330"",""0.537"",""0.678""]","[0,1,1,1]",0,9,9,9,1,1,1,,,0,FALSE,,,,,,,,,,,,,,,,,,,,,,,,,,,,,,,
,5ee623674afa60375e30eec3,627c76c22ca7f3627b95734a,2022-05-12_03h54.42.160,classification_task,2021.2.3,Win32,60.10337781,627c6715c52fd12f31907bd0,,,,,,,,,,,,,,,,,,,,,,,l,0,0.7409,"[""0.224"",""0.437"",""0.740"",""0.834""]","[1,1,1,0]",0,10,10,10,1,0,0,,,0,FALSE,,,,,,,,,,,,,,,,,,,,,,,,,,,,,,,
,5ee623674afa60375e30eec3,627c76c22ca7f3627b95734a,2022-05-12_03h54.42.160,classification_task,2021.2.3,Win32,60.10337781,627c6715c52fd12f31907bd0,,,,,,,,,,,,,,,,,,,,,,,l,1,0.9463,"[""0.135"",""0.330"",""0.537"",""0.834""]","[1,1,1,0]",0,11,11,11,1,1,1,,,0,FALSE,,,,,,,,,,,,,,,,,,,,,,,,,,,,,,,
,5ee623674afa60375e30eec3,627c76c22ca7f3627b95734a,2022-05-12_03h54.42.160,classification_task,2021.2.3,Win32,60.10337781,627c6715c52fd12f31907bd0,,,,,,,,,,,,,,,,,,,,,,,a,0,0.7614,"[""0.032"",""0.258"",""0.474"",""0.817""]","[1,1,1,0]",0,12,12,12,1,1,0,,,0,FALSE,,,,,,,,,,,,,,,,,,,,,,,,,,,,,,,
,5ee623674afa60375e30eec3,627c76c22ca7f3627b95734a,2022-05-12_03h54.42.160,classification_task,2021.2.3,Win32,60.10337781,627c6715c52fd12f31907bd0,,,,,,,,,,,,,,,,,,,,,,,l,0,1.0416,"[""0.191"",""0.386"",""0.620"",""0.852""]","[1,1,1,0]",0,13,13,13,1,0,1,,,0,FALSE,,,,,,,,,,,,,,,,,,,,,,,,,,,,,,,
,5ee623674afa60375e30eec3,627c76c22ca7f3627b95734a,2022-05-12_03h54.42.160,classification_task,2021.2.3,Win32,60.10337781,627c6715c52fd12f31907bd0,,,,,,,,,,,,,,,,,,,,,,,l,0,1.1918,"[""0.191"",""0.575"",""0.620"",""0.950""]","[1,0,1,1]",0,14,14,14,1,0,1,,,0,FALSE,,,,,,,,,,,,,,,,,,,,,,,,,,,,,,,
,5ee623674afa60375e30eec3,627c76c22ca7f3627b95734a,2022-05-12_03h54.42.160,classification_task,2021.2.3,Win32,60.10337781,627c6715c52fd12f31907bd0,,,,,,,,,,,,,,,,,,,,,,,a,1,0.8596,"[""0.191"",""0.386"",""0.820"",""0.950""]","[1,1,0,1]",0,15,15,15,1,0,1,,,0,FALSE,,,,,,,,,,,,,,,,,,,,,,,,,,,,,,,
,5ee623674afa60375e30eec3,627c76c22ca7f3627b95734a,2022-05-12_03h54.42.160,classification_task,2021.2.3,Win32,60.10337781,627c6715c52fd12f31907bd0,,,,,,,,,,,,,,,,,,,,,,,l,1,1.0037,"[""0.032"",""0.852"",""0.474"",""0.779""]","[1,0,1,1]",0,16,16,16,1,1,0,,,0,FALSE,,,,,,,,,,,,,,,,,,,,,,,,,,,,,,,
,5ee623674afa60375e30eec3,627c76c22ca7f3627b95734a,2022-05-12_03h54.42.160,classification_task,2021.2.3,Win32,60.10337781,627c6715c52fd12f31907bd0,,,,,,,,,,,,,,,,,,,,,,,a,1,0.6381,"[""0.224"",""0.092"",""0.740"",""0.888""]","[1,0,1,1]",0,17,17,17,1,0,0,,,0,FALSE,,,,,,,,,,,,,,,,,,,,,,,,,,,,,,,
,5ee623674afa60375e30eec3,627c76c22ca7f3627b95734a,2022-05-12_03h54.42.160,classification_task,2021.2.3,Win32,60.10337781,627c6715c52fd12f31907bd0,,,,,,,,,,,,,,,,,,,,,,,l,1,0.9605,"[""0.135"",""0.851"",""0.537"",""0.678""]","[1,0,1,1]",0,18,18,18,1,1,1,,,0,FALSE,,,,,,,,,,,,,,,,,,,,,,,,,,,,,,,
,5ee623674afa60375e30eec3,627c76c22ca7f3627b95734a,2022-05-12_03h54.42.160,classification_task,2021.2.3,Win32,60.10337781,627c6715c52fd12f31907bd0,,,,,,,,,,,,,,,,,,,,,,,l,1,1.8972,"[""0.032"",""0.258"",""0.834"",""0.779""]","[1,1,0,1]",0,19,19,19,1,1,0,,,0,FALSE,,,,,,,,,,,,,,,,,,,,,,,,,,,,,,,
,5ee623674afa60375e30eec3,627c76c22ca7f3627b95734a,2022-05-12_03h54.42.160,classification_task,2021.2.3,Win32,60.10337781,627c6715c52fd12f31907bd0,,,,,,,,,,,,,,,,,,,,,,,l,0,0.7549,"[""0.224"",""0.437"",""0.852"",""0.888""]","[1,1,0,1]",0,20,20,20,1,0,0,,,0,FALSE,,,,,,,,,,,,,,,,,,,,,,,,,,,,,,,
,5ee623674afa60375e30eec3,627c76c22ca7f3627b95734a,2022-05-12_03h54.42.160,classification_task,2021.2.3,Win32,60.10337781,627c6715c52fd12f31907bd0,,,,,,,,,,,,,,,,,,,,,,,a,0,1.2942,"[""0.032"",""0.258"",""0.474"",""0.852""]","[1,1,1,0]",0,21,21,21,1,1,0,,,0,FALSE,,,,,,,,,,,,,,,,,,,,,,,,,,,,,,,
,5ee623674afa60375e30eec3,627c76c22ca7f3627b95734a,2022-05-12_03h54.42.160,classification_task,2021.2.3,Win32,60.10337781,627c6715c52fd12f31907bd0,,,,,,,,,,,,,,,,,,,,,,,a,0,0.7762,"[""0.073"",""0.258"",""0.474"",""0.779""]","[0,1,1,1]",0,22,22,22,1,1,0,,,0,FALSE,,,,,,,,,,,,,,,,,,,,,,,,,,,,,,,
,5ee623674afa60375e30eec3,627c76c22ca7f3627b95734a,2022-05-12_03h54.42.160,classification_task,2021.2.3,Win32,60.10337781,627c6715c52fd12f31907bd0,,,,,,,,,,,,,,,,,,,,,,,a,0,0.7311,"[""0.135"",""0.330"",""0.537"",""0.852""]","[1,1,1,0]",0,23,23,23,1,1,1,,,0,FALSE,,,,,,,,,,,,,,,,,,,,,,,,,,,,,,,
,5ee623674afa60375e30eec3,627c76c22ca7f3627b95734a,2022-05-12_03h54.42.160,classification_task,2021.2.3,Win32,60.10337781,627c6715c52fd12f31907bd0,,,,,,,,,,,,,,,,,,,,,,,a,1,0.8103,"[""0.191"",""0.386"",""0.620"",""0.080""]","[1,1,1,0]",0,24,24,24,1,0,1,,,0,FALSE,,,,,,,,,,,,,,,,,,,,,,,,,,,,,,,
,5ee623674afa60375e30eec3,627c76c22ca7f3627b95734a,2022-05-12_03h54.42.160,classification_task,2021.2.3,Win32,60.10337781,627c6715c52fd12f31907bd0,,,,,,,,,,,,,,,,,,,,,,,l,1,0.6557,"[""0.820"",""0.330"",""0.537"",""0.678""]","[0,1,1,1]",0,25,25,25,1,1,1,,,0,FALSE,,,,,,,,,,,,,,,,,,,,,,,,,,,,,,,
,5ee623674afa60375e30eec3,627c76c22ca7f3627b95734a,2022-05-12_03h54.42.160,classification_task,2021.2.3,Win32,60.10337781,627c6715c52fd12f31907bd0,,,,,,,,,,,,,,,,,,,,,,,l,0,0.6625,"[""0.191"",""0.386"",""0.851"",""0.950""]","[1,1,0,1]",0,26,26,26,1,0,1,,,0,FALSE,,,,,,,,,,,,,,,,,,,,,,,,,,,,,,,
,5ee623674afa60375e30eec3,627c76c22ca7f3627b95734a,2022-05-12_03h54.42.160,classification_task,2021.2.3,Win32,60.10337781,627c6715c52fd12f31907bd0,,,,,,,,,,,,,,,,,,,,,,,a,1,0.7085,"[""0.092"",""0.386"",""0.620"",""0.950""]","[0,1,1,1]",0,27,27,27,1,0,1,,,0,FALSE,,,,,,,,,,,,,,,,,,,,,,,,,,,,,,,
,5ee623674afa60375e30eec3,627c76c22ca7f3627b95734a,2022-05-12_03h54.42.160,classification_task,2021.2.3,Win32,60.10337781,627c6715c52fd12f31907bd0,,,,,,,,,,,,,,,,,,,,,,,l,0,1.4548,"[""0.191"",""0.098"",""0.620"",""0.950""]","[1,0,1,1]",0,28,28,28,1,0,1,,,0,FALSE,,,,,,,,,,,,,,,,,,,,,,,,,,,,,,,
,5ee623674afa60375e30eec3,627c76c22ca7f3627b95734a,2022-05-12_03h54.42.160,classification_task,2021.2.3,Win32,60.10337781,627c6715c52fd12f31907bd0,,,,,,,,,,,,,,,,,,,,,,,l,0,0.9821,"[""0.817"",""0.437"",""0.740"",""0.888""]","[0,1,1,1]",0,29,29,29,1,0,0,,,0,FALSE,,,,,,,,,,,,,,,,,,,,,,,,,,,,,,,
,5ee623674afa60375e30eec3,627c76c22ca7f3627b95734a,2022-05-12_03h54.42.160,classification_task,2021.2.3,Win32,60.10337781,627c6715c52fd12f31907bd0,,,,,,,,,,,,,,,,,,,,,,,a,1,0.9415,"[""0.224"",""0.437"",""0.740"",""0.072""]","[1,1,1,0]",0,30,30,30,1,0,0,,,0,FALSE,,,,,,,,,,,,,,,,,,,,,,,,,,,,,,,
,5ee623674afa60375e30eec3,627c76c22ca7f3627b95734a,2022-05-12_03h54.42.160,classification_task,2021.2.3,Win32,60.10337781,627c6715c52fd12f31907bd0,,,,,,,,,,,,,,,,,,,,,,,a,0,0.6758,"[""0.135"",""0.330"",""0.073"",""0.678""]","[1,1,0,1]",0,31,31,31,1,1,1,,,0,FALSE,,,,,,,,,,,,,,,,,,,,,,,,,,,,,,,
,5ee623674afa60375e30eec3,627c76c22ca7f3627b95734a,2022-05-12_03h54.42.160,classification_task,2021.2.3,Win32,60.10337781,627c6715c52fd12f31907bd0,,,,,,,,,,,,,,,,,,,,,,,a,0,0.4401,"[""0.032"",""0.258"",""0.098"",""0.779""]","[1,1,0,1]",0,32,32,32,1,1,0,,,0,FALSE,,,,,,,,,,,,,,,,,,,,,,,,,,,,,,,
,5ee623674afa60375e30eec3,627c76c22ca7f3627b95734a,2022-05-12_03h54.42.160,classification_task,2021.2.3,Win32,60.10337781,627c6715c52fd12f31907bd0,,,,,,,,,,,,,,,,,,,,,,,a,1,0.7408,"[""0.072"",""0.437"",""0.740"",""0.888""]","[0,1,1,1]",0,33,33,33,1,0,0,,,0,FALSE,,,,,,,,,,,,,,,,,,,,,,,,,,,,,,,
,5ee623674afa60375e30eec3,627c76c22ca7f3627b95734a,2022-05-12_03h54.42.160,classification_task,2021.2.3,Win32,60.10337781,627c6715c52fd12f31907bd0,,,,,,,,,,,,,,,,,,,,,,,a,1,0.6891,"[""0.092"",""0.386"",""0.620"",""0.950""]","[0,1,1,1]",0,34,34,34,1,0,1,,,0,FALSE,,,,,,,,,,,,,,,,,,,,,,,,,,,,,,,
,5ee623674afa60375e30eec3,627c76c22ca7f3627b95734a,2022-05-12_03h54.42.160,classification_task,2021.2.3,Win32,60.10337781,627c6715c52fd12f31907bd0,,,,,,,,,,,,,,,,,,,,,,,a,1,0.4913,"[""0.191"",""0.386"",""0.585"",""0.950""]","[1,1,0,1]",0,35,35,35,1,0,1,,,0,FALSE,,,,,,,,,,,,,,,,,,,,,,,,,,,,,,,
,5ee623674afa60375e30eec3,627c76c22ca7f3627b95734a,2022-05-12_03h54.42.160,classification_task,2021.2.3,Win32,60.10337781,627c6715c52fd12f31907bd0,,,,,,,,,,,,,,,,,,,,,,,l,1,0.8905,"[""0.135"",""0.330"",""0.537"",""0.066""]","[1,1,1,0]",0,36,36,36,1,1,1,,,0,FALSE,,,,,,,,,,,,,,,,,,,,,,,,,,,,,,,
,5ee623674afa60375e30eec3,627c76c22ca7f3627b95734a,2022-05-12_03h54.42.160,classification_task,2021.2.3,Win32,60.10337781,627c6715c52fd12f31907bd0,,,,,,,,,,,,,,,,,,,,,,,l,0,0.7761,"[""0.224"",""0.437"",""0.740"",""0.080""]","[1,1,1,0]",0,37,37,37,1,0,0,,,0,FALSE,,,,,,,,,,,,,,,,,,,,,,,,,,,,,,,
,5ee623674afa60375e30eec3,627c76c22ca7f3627b95734a,2022-05-12_03h54.42.160,classification_task,2021.2.3,Win32,60.10337781,627c6715c52fd12f31907bd0,,,,,,,,,,,,,,,,,,,,,,,l,1,0.883,"[""0.032"",""0.073"",""0.474"",""0.779""]","[1,0,1,1]",0,38,38,38,1,1,0,,,0,FALSE,,,,,,,,,,,,,,,,,,,,,,,,,,,,,,,
,5ee623674afa60375e30eec3,627c76c22ca7f3627b95734a,2022-05-12_03h54.42.160,classification_task,2021.2.3,Win32,60.10337781,627c6715c52fd12f31907bd0,,,,,,,,,,,,,,,,,,,,,,,l,1,1.0872,"[""0.066"",""0.330"",""0.537"",""0.678""]","[0,1,1,1]",0,39,39,39,1,1,1,,,0,FALSE,,,,,,,,,,,,,,,,,,,,,,,,,,,,,,,
,5ee623674afa60375e30eec3,627c76c22ca7f3627b95734a,2022-05-12_03h54.42.160,classification_task,2021.2.3,Win32,60.10337781,627c6715c52fd12f31907bd0,,,,,,,,,,,,,,,,,,,,,,,l,0,1.228,"[""0.224"",""0.852"",""0.740"",""0.888""]","[1,0,1,1]",0,40,40,40,1,0,0,,,0,FALSE,,,,,,,,,,,,,,,,,,,,,,,,,,,,,,,
,5ee623674afa60375e30eec3,627c76c22ca7f3627b95734a,2022-05-12_03h54.42.160,classification_task,2021.2.3,Win32,60.10337781,627c6715c52fd12f31907bd0,,,,,,,,,,,,,,,,,,,,,,,a,0,0.7031,"[""0.080"",""0.258"",""0.474"",""0.779""]","[0,1,1,1]",0,41,41,41,1,1,0,,,0,FALSE,,,,,,,,,,,,,,,,,,,,,,,,,,,,,,,
,5ee623674afa60375e30eec3,627c76c22ca7f3627b95734a,2022-05-12_03h54.42.160,classification_task,2021.2.3,Win32,60.10337781,627c6715c52fd12f31907bd0,,,,,,,,,,,,,,,,,,,,,,,a,0,0.6548,"[""0.135"",""0.851"",""0.537"",""0.678""]","[1,0,1,1]",0,42,42,42,1,1,1,,,0,FALSE,,,,,,,,,,,,,,,,,,,,,,,,,,,,,,,
,5ee623674afa60375e30eec3,627c76c22ca7f3627b95734a,2022-05-12_03h54.42.160,classification_task,2021.2.3,Win32,60.10337781,627c6715c52fd12f31907bd0,,,,,,,,,,,,,,,,,,,,,,,a,0,0.6895,"[""0.032"",""0.258"",""0.474"",""0.585""]","[1,1,1,0]",0,43,43,43,1,1,0,,,0,FALSE,,,,,,,,,,,,,,,,,,,,,,,,,,,,,,,
,5ee623674afa60375e30eec3,627c76c22ca7f3627b95734a,2022-05-12_03h54.42.160,classification_task,2021.2.3,Win32,60.10337781,627c6715c52fd12f31907bd0,,,,,,,,,,,,,,,,,,,,,,,l,0,0.4546,"[""0.224"",""0.437"",""0.834"",""0.888""]","[1,1,0,1]",0,44,44,44,1,0,0,,,0,FALSE,,,,,,,,,,,,,,,,,,,,,,,,,,,,,,,
,5ee623674afa60375e30eec3,627c76c22ca7f3627b95734a,2022-05-12_03h54.42.160,classification_task,2021.2.3,Win32,60.10337781,627c6715c52fd12f31907bd0,,,,,,,,,,,,,,,,,,,,,,,a,0,0.6761,"[""0.135"",""0.330"",""0.820"",""0.678""]","[1,1,0,1]",0,45,45,45,1,1,1,,,0,FALSE,,,,,,,,,,,,,,,,,,,,,,,,,,,,,,,
,5ee623674afa60375e30eec3,627c76c22ca7f3627b95734a,2022-05-12_03h54.42.160,classification_task,2021.2.3,Win32,60.10337781,627c6715c52fd12f31907bd0,,,,,,,,,,,,,,,,,,,,,,,a,1,0.7287,"[""0.191"",""0.824"",""0.620"",""0.950""]","[1,0,1,1]",0,46,46,46,1,0,1,,,0,FALSE,,,,,,,,,,,,,,,,,,,,,,,,,,,,,,,
,5ee623674afa60375e30eec3,627c76c22ca7f3627b95734a,2022-05-12_03h54.42.160,classification_task,2021.2.3,Win32,60.10337781,627c6715c52fd12f31907bd0,,,,,,,,,,,,,,,,,,,,,,,l,0,0.9557,"[""0.191"",""0.386"",""0.620"",""0.072""]","[1,1,1,0]",0,47,47,47,1,0,1,,,0,FALSE,,,,,,,,,,,,,,,,,,,,,,,,,,,,,,,
,5ee623674afa60375e30eec3,627c76c22ca7f3627b95734a,2022-05-12_03h54.42.160,classification_task,2021.2.3,Win32,60.10337781,627c6715c52fd12f31907bd0,,,,,,,,,,,,,,,,,,,,,,,a,0,0.6693,"[""0.092"",""0.258"",""0.474"",""0.779""]","[0,1,1,1]",0,48,48,48,1,1,0,,,0,FALSE,,,,,,,,,,,,,,,,,,,,,,,,,,,,,,,
,5ee623674afa60375e30eec3,627c76c22ca7f3627b95734a,2022-05-12_03h54.42.160,classification_task,2021.2.3,Win32,60.10337781,627c6715c52fd12f31907bd0,,,,,,,,,,,,,,,,,,,,,,,a,1,0.3805,"[""0.098"",""0.437"",""0.740"",""0.888""]","[0,1,1,1]",0,49,49,49,1,0,0,,,0,FALSE,,,,,,,,,,,,,,,,,,,,,,,,,,,,,,,
,5ee623674afa60375e30eec3,627c76c22ca7f3627b95734a,2022-05-12_03h54.42.160,classification_task,2021.2.3,Win32,60.10337781,627c6715c52fd12f31907bd0,,,,,,,,,,,,,,,,,,,,,,,a,0,0.5733,"[""0.852"",""0.330"",""0.537"",""0.678""]","[0,1,1,1]",0,50,50,50,1,1,1,,,0,FALSE,,,,,,,,,,,,,,,,,,,,,,,,,,,,,,,
,5ee623674afa60375e30eec3,627c76c22ca7f3627b95734a,2022-05-12_03h54.42.160,classification_task,2021.2.3,Win32,60.10337781,627c6715c52fd12f31907bd0,,,,,,,,,,,,,,,,,,,,,,,l,0,0.6708,"[""0.191"",""0.386"",""0.620"",""0.824""]","[1,1,1,0]",0,51,51,51,1,0,1,,,0,FALSE,,,,,,,,,,,,,,,,,,,,,,,,,,,,,,,
,5ee623674afa60375e30eec3,627c76c22ca7f3627b95734a,2022-05-12_03h54.42.160,classification_task,2021.2.3,Win32,60.10337781,627c6715c52fd12f31907bd0,,,,,,,,,,,,,,,,,,,,,,,a,0,0.3565,"[""0.135"",""0.330"",""0.537"",""0.072""]","[1,1,1,0]",0,52,52,52,1,1,1,,,0,FALSE,,,,,,,,,,,,,,,,,,,,,,,,,,,,,,,
,5ee623674afa60375e30eec3,627c76c22ca7f3627b95734a,2022-05-12_03h54.42.160,classification_task,2021.2.3,Win32,60.10337781,627c6715c52fd12f31907bd0,,,,,,,,,,,,,,,,,,,,,,,l,0,0.7559,"[""0.191"",""0.072"",""0.620"",""0.950""]","[1,0,1,1]",0,53,53,53,1,0,1,,,0,FALSE,,,,,,,,,,,,,,,,,,,,,,,,,,,,,,,
,5ee623674afa60375e30eec3,627c76c22ca7f3627b95734a,2022-05-12_03h54.42.160,classification_task,2021.2.3,Win32,60.10337781,627c6715c52fd12f31907bd0,,,,,,,,,,,,,,,,,,,,,,,a,1,0.8384,"[""0.224"",""0.437"",""0.820"",""0.888""]","[1,1,0,1]",0,54,54,54,1,0,0,,,0,FALSE,,,,,,,,,,,,,,,,,,,,,,,,,,,,,,,
,5ee623674afa60375e30eec3,627c76c22ca7f3627b95734a,2022-05-12_03h54.42.160,classification_task,2021.2.3,Win32,60.10337781,627c6715c52fd12f31907bd0,,,,,,,,,,,,,,,,,,,,,,,a,0,0.9355,"[""0.032"",""0.844"",""0.474"",""0.779""]","[1,0,1,1]",0,55,55,55,1,1,0,,,0,FALSE,,,,,,,,,,,,,,,,,,,,,,,,,,,,,,,
,5ee623674afa60375e30eec3,627c76c22ca7f3627b95734a,2022-05-12_03h54.42.160,classification_task,2021.2.3,Win32,60.10337781,627c6715c52fd12f31907bd0,,,,,,,,,,,,,,,,,,,,,,,l,0,0.8291,"[""0.191"",""0.386"",""0.851"",""0.950""]","[1,1,0,1]",0,56,56,56,1,0,1,,,0,FALSE,,,,,,,,,,,,,,,,,,,,,,,,,,,,,,,
,5ee623674afa60375e30eec3,627c76c22ca7f3627b95734a,2022-05-12_03h54.42.160,classification_task,2021.2.3,Win32,60.10337781,627c6715c52fd12f31907bd0,,,,,,,,,,,,,,,,,,,,,,,a,0,0.1048,"[""0.135"",""0.330"",""0.585"",""0.678""]","[1,1,0,1]",0,57,57,57,1,1,1,,,0,FALSE,,,,,,,,,,,,,,,,,,,,,,,,,,,,,,,
,5ee623674afa60375e30eec3,627c76c22ca7f3627b95734a,2022-05-12_03h54.42.160,classification_task,2021.2.3,Win32,60.10337781,627c6715c52fd12f31907bd0,,,,,,,,,,,,,,,,,,,,,,,a,1,0.5474,"[""0.844"",""0.386"",""0.620"",""0.950""]","[0,1,1,1]",0,58,58,58,1,0,1,,,0,FALSE,,,,,,,,,,,,,,,,,,,,,,,,,,,,,,,
,5ee623674afa60375e30eec3,627c76c22ca7f3627b95734a,2022-05-12_03h54.42.160,classification_task,2021.2.3,Win32,60.10337781,627c6715c52fd12f31907bd0,,,,,,,,,,,,,,,,,,,,,,,l,0,0.3233,"[""0.224"",""0.852"",""0.740"",""0.888""]","[1,0,1,1]",0,59,59,59,1,0,0,,,0,FALSE,,,,,,,,,,,,,,,,,,,,,,,,,,,,,,,
,5ee623674afa60375e30eec3,627c76c22ca7f3627b95734a,2022-05-12_03h54.42.160,classification_task,2021.2.3,Win32,60.10337781,627c6715c52fd12f31907bd0,,,,,,,,,,,,,,,,,,,,,,,l,1,0.0624,"[""0.032"",""0.258"",""0.474"",""0.820""]","[1,1,1,0]",0,60,60,60,1,1,0,,,0,FALSE,,,,,,,,,,,,,,,,,,,,,,,,,,,,,,,
,5ee623674afa60375e30eec3,627c76c22ca7f3627b95734a,2022-05-12_03h54.42.160,classification_task,2021.2.3,Win32,60.10337781,627c6715c52fd12f31907bd0,,,,,,,,,,,,,,,,,,,,,,,a,0,0.8384,"[""0.032"",""0.258"",""0.824"",""0.779""]","[1,1,0,1]",0,61,61,61,1,1,0,,,0,FALSE,,,,,,,,,,,,,,,,,,,,,,,,,,,,,,,
,5ee623674afa60375e30eec3,627c76c22ca7f3627b95734a,2022-05-12_03h54.42.160,classification_task,2021.2.3,Win32,60.10337781,627c6715c52fd12f31907bd0,,,,,,,,,,,,,,,,,,,,,,,l,1,0.9271,"[""0.135"",""0.834"",""0.537"",""0.678""]","[1,0,1,1]",0,62,62,62,1,1,1,,,0,FALSE,,,,,,,,,,,,,,,,,,,,,,,,,,,,,,,
,5ee623674afa60375e30eec3,627c76c22ca7f3627b95734a,2022-05-12_03h54.42.160,classification_task,2021.2.3,Win32,60.10337781,627c6715c52fd12f31907bd0,,,,,,,,,,,,,,,,,,,,,,,a,1,0.8947,"[""0.224"",""0.437"",""0.740"",""0.098""]","[1,1,1,0]",0,63,63,63,1,0,0,,,0,FALSE,,,,,,,,,,,,,,,,,,,,,,,,,,,,,,,
,5ee623674afa60375e30eec3,627c76c22ca7f3627b95734a,2022-05-12_03h54.42.160,classification_task,2021.2.3,Win32,60.10337781,627c6715c52fd12f31907bd0,,,,,,,,,,,,,,,,,,,,,,,,,,,,,,,,,,,,,,,0, ,,0,7.235204782,315.3828,0,0,0,0,1,2,1,,,,,,,,,,,,,,,,,,
,5ee623674afa60375e30eec3,627c76c22ca7f3627b95734a,2022-05-12_03h54.42.160,classification_task,2021.2.3,Win32,60.10337781,627c6715c52fd12f31907bd0,,,,,,,,,,,,,,,,,,,,,,,,,,,,,,,,,,,,,,,1,  ,,0,7.578140683,322.9951,0,0,0,0,1,2,1,,,,,,,,,,,,,,,,,,
,5ee623674afa60375e30eec3,627c76c22ca7f3627b95734a,2022-05-12_03h54.42.160,classification_task,2021.2.3,Win32,60.10337781,627c6715c52fd12f31907bd0,,,,,,,,,,,,,,,,,,,,,,,,,,,,,,,,,,,,,,,2,  ,,0,2.287135766,329.1016,0,0,0,0,1,2,1,,,,,,,,,,,,,,,,,,
,5ee623674afa60375e30eec3,627c76c22ca7f3627b95734a,2022-05-12_03h54.42.160,classification_task,2021.2.3,Win32,60.10337781,627c6715c52fd12f31907bd0,,,,,,,,,,,,,,,,,,,,,,,,,,,,,,,,,,,,,,,,,,,,,0,0,0,0,1,,1,,,,,,,,,,,,,,,,,,
,5ee623674afa60375e30eec3,627c76c22ca7f3627b95734a,2022-05-12_03h54.42.160,classification_task,2021.2.3,Win32,60.10337781,627c6715c52fd12f31907bd0,,,,,,,,,,,,,,,,,,,,,space,8.7832,l,1,2.7545,"[""0.844"",""0.258"",""0.474"",""0.779""]","[0,1,1,1]",0,0,0,0,1,1,0,,,0,FALSE,,,,,,,,,,,,,,,,,,,,,,,,,,,,,,,
,5ee623674afa60375e30eec3,627c76c22ca7f3627b95734a,2022-05-12_03h54.42.160,classification_task,2021.2.3,Win32,60.10337781,627c6715c52fd12f31907bd0,,,,,,,,,,,,,,,,,,,,,,,l,1,0.8643,"[""0.032"",""0.098"",""0.474"",""0.779""]","[1,0,1,1]",0,1,1,1,1,1,0,,,0,FALSE,,,,,,,,,,,,,,,,,,,,,,,,,,,,,,,
,5ee623674afa60375e30eec3,627c76c22ca7f3627b95734a,2022-05-12_03h54.42.160,classification_task,2021.2.3,Win32,60.10337781,627c6715c52fd12f31907bd0,,,,,,,,,,,,,,,,,,,,,,,a,0,0.9714,"[""0.135"",""0.330"",""0.537"",""0.834""]","[1,1,1,0]",0,2,2,2,1,1,1,,,0,FALSE,,,,,,,,,,,,,,,,,,,,,,,,,,,,,,,
,5ee623674afa60375e30eec3,627c76c22ca7f3627b95734a,2022-05-12_03h54.42.160,classification_task,2021.2.3,Win32,60.10337781,627c6715c52fd12f31907bd0,,,,,,,,,,,,,,,,,,,,,,,l,0,0.9868,"[""0.191"",""0.386"",""0.585"",""0.950""]","[1,1,0,1]",0,3,3,3,1,0,1,,,0,FALSE,,,,,,,,,,,,,,,,,,,,,,,,,,,,,,,
,5ee623674afa60375e30eec3,627c76c22ca7f3627b95734a,2022-05-12_03h54.42.160,classification_task,2021.2.3,Win32,60.10337781,627c6715c52fd12f31907bd0,,,,,,,,,,,,,,,,,,,,,,,l,0,1.0808,"[""0.224"",""0.437"",""0.740"",""0.817""]","[1,1,1,0]",0,4,4,4,1,0,0,,,0,FALSE,,,,,,,,,,,,,,,,,,,,,,,,,,,,,,,
,5ee623674afa60375e30eec3,627c76c22ca7f3627b95734a,2022-05-12_03h54.42.160,classification_task,2021.2.3,Win32,60.10337781,627c6715c52fd12f31907bd0,,,,,,,,,,,,,,,,,,,,,,,l,0,1.1116,"[""0.080"",""0.437"",""0.740"",""0.888""]","[0,1,1,1]",0,5,5,5,1,0,0,,,0,FALSE,,,,,,,,,,,,,,,,,,,,,,,,,,,,,,,
,5ee623674afa60375e30eec3,627c76c22ca7f3627b95734a,2022-05-12_03h54.42.160,classification_task,2021.2.3,Win32,60.10337781,627c6715c52fd12f31907bd0,,,,,,,,,,,,,,,,,,,,,,,a,0,0.6373,"[""0.072"",""0.330"",""0.537"",""0.678""]","[0,1,1,1]",0,6,6,6,1,1,1,,,0,FALSE,,,,,,,,,,,,,,,,,,,,,,,,,,,,,,,
,5ee623674afa60375e30eec3,627c76c22ca7f3627b95734a,2022-05-12_03h54.42.160,classification_task,2021.2.3,Win32,60.10337781,627c6715c52fd12f31907bd0,,,,,,,,,,,,,,,,,,,,,,,l,0,0.3902,"[""0.224"",""0.437"",""0.824"",""0.888""]","[1,1,0,1]",0,7,7,7,1,0,0,,,0,FALSE,,,,,,,,,,,,,,,,,,,,,,,,,,,,,,,
,5ee623674afa60375e30eec3,627c76c22ca7f3627b95734a,2022-05-12_03h54.42.160,classification_task,2021.2.3,Win32,60.10337781,627c6715c52fd12f31907bd0,,,,,,,,,,,,,,,,,,,,,,,a,1,0.3099,"[""0.191"",""0.852"",""0.620"",""0.950""]","[1,0,1,1]",0,8,8,8,1,0,1,,,0,FALSE,,,,,,,,,,,,,,,,,,,,,,,,,,,,,,,
,5ee623674afa60375e30eec3,627c76c22ca7f3627b95734a,2022-05-12_03h54.42.160,classification_task,2021.2.3,Win32,60.10337781,627c6715c52fd12f31907bd0,,,,,,,,,,,,,,,,,,,,,,,a,0,0.4757,"[""0.135"",""0.852"",""0.537"",""0.678""]","[1,0,1,1]",0,9,9,9,1,1,1,,,0,FALSE,,,,,,,,,,,,,,,,,,,,,,,,,,,,,,,
,5ee623674afa60375e30eec3,627c76c22ca7f3627b95734a,2022-05-12_03h54.42.160,classification_task,2021.2.3,Win32,60.10337781,627c6715c52fd12f31907bd0,,,,,,,,,,,,,,,,,,,,,,,a,0,0.4693,"[""0.135"",""0.330"",""0.844"",""0.678""]","[1,1,0,1]",0,10,10,10,1,1,1,,,0,FALSE,,,,,,,,,,,,,,,,,,,,,,,,,,,,,,,
,5ee623674afa60375e30eec3,627c76c22ca7f3627b95734a,2022-05-12_03h54.42.160,classification_task,2021.2.3,Win32,60.10337781,627c6715c52fd12f31907bd0,,,,,,,,,,,,,,,,,,,,,,,l,0,0.8342,"[""0.224"",""0.852"",""0.740"",""0.888""]","[1,0,1,1]",0,11,11,11,1,0,0,,,0,FALSE,,,,,,,,,,,,,,,,,,,,,,,,,,,,,,,
,5ee623674afa60375e30eec3,627c76c22ca7f3627b95734a,2022-05-12_03h54.42.160,classification_task,2021.2.3,Win32,60.10337781,627c6715c52fd12f31907bd0,,,,,,,,,,,,,,,,,,,,,,,a,1,0.5458,"[""0.191"",""0.386"",""0.620"",""0.844""]","[1,1,1,0]",0,12,12,12,1,0,1,,,0,FALSE,,,,,,,,,,,,,,,,,,,,,,,,,,,,,,,
,5ee623674afa60375e30eec3,627c76c22ca7f3627b95734a,2022-05-12_03h54.42.160,classification_task,2021.2.3,Win32,60.10337781,627c6715c52fd12f31907bd0,,,,,,,,,,,,,,,,,,,,,,,a,1,0.7058,"[""0.817"",""0.386"",""0.620"",""0.950""]","[0,1,1,1]",0,13,13,13,1,0,1,,,0,FALSE,,,,,,,,,,,,,,,,,,,,,,,,,,,,,,,
,5ee623674afa60375e30eec3,627c76c22ca7f3627b95734a,2022-05-12_03h54.42.160,classification_task,2021.2.3,Win32,60.10337781,627c6715c52fd12f31907bd0,,,,,,,,,,,,,,,,,,,,,,,a,0,1.8434,"[""0.032"",""0.258"",""0.851"",""0.779""]","[1,1,0,1]",0,14,14,14,1,1,0,,,0,FALSE,,,,,,,,,,,,,,,,,,,,,,,,,,,,,,,
,5ee623674afa60375e30eec3,627c76c22ca7f3627b95734a,2022-05-12_03h54.42.160,classification_task,2021.2.3,Win32,60.10337781,627c6715c52fd12f31907bd0,,,,,,,,,,,,,,,,,,,,,,,l,1,0.5342,"[""0.032"",""0.258"",""0.474"",""0.834""]","[1,1,1,0]",0,15,15,15,1,1,0,,,0,FALSE,,,,,,,,,,,,,,,,,,,,,,,,,,,,,,,
,5ee623674afa60375e30eec3,627c76c22ca7f3627b95734a,2022-05-12_03h54.42.160,classification_task,2021.2.3,Win32,60.10337781,627c6715c52fd12f31907bd0,,,,,,,,,,,,,,,,,,,,,,,l,1,0.4644,"[""0.032"",""0.258"",""0.474"",""0.575""]","[1,1,1,0]",0,16,16,16,1,1,0,,,0,FALSE,,,,,,,,,,,,,,,,,,,,,,,,,,,,,,,
,5ee623674afa60375e30eec3,627c76c22ca7f3627b95734a,2022-05-12_03h54.42.160,classification_task,2021.2.3,Win32,60.10337781,627c6715c52fd12f31907bd0,,,,,,,,,,,,,,,,,,,,,,,l,1,0.3538,"[""0.032"",""0.258"",""0.844"",""0.779""]","[1,1,0,1]",0,17,17,17,1,1,0,,,0,FALSE,,,,,,,,,,,,,,,,,,,,,,,,,,,,,,,
,5ee623674afa60375e30eec3,627c76c22ca7f3627b95734a,2022-05-12_03h54.42.160,classification_task,2021.2.3,Win32,60.10337781,627c6715c52fd12f31907bd0,,,,,,,,,,,,,,,,,,,,,,,l,0,1.2077,"[""0.191"",""0.386"",""0.852"",""0.950""]","[1,1,0,1]",0,18,18,18,1,0,1,,,0,FALSE,,,,,,,,,,,,,,,,,,,,,,,,,,,,,,,
,5ee623674afa60375e30eec3,627c76c22ca7f3627b95734a,2022-05-12_03h54.42.160,classification_task,2021.2.3,Win32,60.10337781,627c6715c52fd12f31907bd0,,,,,,,,,,,,,,,,,,,,,,,a,0,0.4688,"[""0.135"",""0.575"",""0.537"",""0.678""]","[1,0,1,1]",0,19,19,19,1,1,1,,,0,FALSE,,,,,,,,,,,,,,,,,,,,,,,,,,,,,,,
,5ee623674afa60375e30eec3,627c76c22ca7f3627b95734a,2022-05-12_03h54.42.160,classification_task,2021.2.3,Win32,60.10337781,627c6715c52fd12f31907bd0,,,,,,,,,,,,,,,,,,,,,,,l,1,0.6061,"[""0.032"",""0.072"",""0.474"",""0.779""]","[1,0,1,1]",0,20,20,20,1,1,0,,,0,FALSE,,,,,,,,,,,,,,,,,,,,,,,,,,,,,,,
,5ee623674afa60375e30eec3,627c76c22ca7f3627b95734a,2022-05-12_03h54.42.160,classification_task,2021.2.3,Win32,60.10337781,627c6715c52fd12f31907bd0,,,,,,,,,,,,,,,,,,,,,,,l,1,1.2936,"[""0.135"",""0.330"",""0.080"",""0.678""]","[1,1,0,1]",0,21,21,21,1,1,1,,,0,FALSE,,,,,,,,,,,,,,,,,,,,,,,,,,,,,,,
,5ee623674afa60375e30eec3,627c76c22ca7f3627b95734a,2022-05-12_03h54.42.160,classification_task,2021.2.3,Win32,60.10337781,627c6715c52fd12f31907bd0,,,,,,,,,,,,,,,,,,,,,,,l,0,0.6855,"[""0.191"",""0.080"",""0.620"",""0.950""]","[1,0,1,1]",0,22,22,22,1,0,1,,,0,FALSE,,,,,,,,,,,,,,,,,,,,,,,,,,,,,,,
,5ee623674afa60375e30eec3,627c76c22ca7f3627b95734a,2022-05-12_03h54.42.160,classification_task,2021.2.3,Win32,60.10337781,627c6715c52fd12f31907bd0,,,,,,,,,,,,,,,,,,,,,,,l,1,0.5316,"[""0.851"",""0.258"",""0.474"",""0.779""]","[0,1,1,1]",0,23,23,23,1,1,0,,,0,FALSE,,,,,,,,,,,,,,,,,,,,,,,,,,,,,,,
,5ee623674afa60375e30eec3,627c76c22ca7f3627b95734a,2022-05-12_03h54.42.160,classification_task,2021.2.3,Win32,60.10337781,627c6715c52fd12f31907bd0,,,,,,,,,,,,,,,,,,,,,,,l,0,0.4701,"[""0.834"",""0.437"",""0.740"",""0.888""]","[0,1,1,1]",0,24,24,24,1,0,0,,,0,FALSE,,,,,,,,,,,,,,,,,,,,,,,,,,,,,,,
,5ee623674afa60375e30eec3,627c76c22ca7f3627b95734a,2022-05-12_03h54.42.160,classification_task,2021.2.3,Win32,60.10337781,627c6715c52fd12f31907bd0,,,,,,,,,,,,,,,,,,,,,,,a,1,0.8082,"[""0.191"",""0.386"",""0.620"",""0.820""]","[1,1,1,0]",0,25,25,25,1,0,1,,,0,FALSE,,,,,,,,,,,,,,,,,,,,,,,,,,,,,,,
,5ee623674afa60375e30eec3,627c76c22ca7f3627b95734a,2022-05-12_03h54.42.160,classification_task,2021.2.3,Win32,60.10337781,627c6715c52fd12f31907bd0,,,,,,,,,,,,,,,,,,,,,,,l,0,0.7335,"[""0.224"",""0.437"",""0.740"",""0.852""]","[1,1,1,0]",0,26,26,26,1,0,0,,,0,FALSE,,,,,,,,,,,,,,,,,,,,,,,,,,,,,,,
,5ee623674afa60375e30eec3,627c76c22ca7f3627b95734a,2022-05-12_03h54.42.160,classification_task,2021.2.3,Win32,60.10337781,627c6715c52fd12f31907bd0,,,,,,,,,,,,,,,,,,,,,,,l,0,0.9412,"[""0.224"",""0.437"",""0.834"",""0.888""]","[1,1,0,1]",0,27,27,27,1,0,0,,,0,FALSE,,,,,,,,,,,,,,,,,,,,,,,,,,,,,,,
,5ee623674afa60375e30eec3,627c76c22ca7f3627b95734a,2022-05-12_03h54.42.160,classification_task,2021.2.3,Win32,60.10337781,627c6715c52fd12f31907bd0,,,,,,,,,,,,,,,,,,,,,,,a,1,1.1046,"[""0.852"",""0.386"",""0.620"",""0.950""]","[0,1,1,1]",0,28,28,28,1,0,1,,,0,FALSE,,,,,,,,,,,,,,,,,,,,,,,,,,,,,,,
,5ee623674afa60375e30eec3,627c76c22ca7f3627b95734a,2022-05-12_03h54.42.160,classification_task,2021.2.3,Win32,60.10337781,627c6715c52fd12f31907bd0,,,,,,,,,,,,,,,,,,,,,,,a,1,0.383,"[""0.224"",""0.851"",""0.740"",""0.888""]","[1,0,1,1]",0,29,29,29,1,0,0,,,0,FALSE,,,,,,,,,,,,,,,,,,,,,,,,,,,,,,,
,5ee623674afa60375e30eec3,627c76c22ca7f3627b95734a,2022-05-12_03h54.42.160,classification_task,2021.2.3,Win32,60.10337781,627c6715c52fd12f31907bd0,,,,,,,,,,,,,,,,,,,,,,,l,1,0.6765,"[""0.080"",""0.330"",""0.537"",""0.678""]","[0,1,1,1]",0,30,30,30,1,1,1,,,0,FALSE,,,,,,,,,,,,,,,,,,,,,,,,,,,,,,,
,5ee623674afa60375e30eec3,627c76c22ca7f3627b95734a,2022-05-12_03h54.42.160,classification_task,2021.2.3,Win32,60.10337781,627c6715c52fd12f31907bd0,,,,,,,,,,,,,,,,,,,,,,,l,1,0.537,"[""0.135"",""0.330"",""0.537"",""0.844""]","[1,1,1,0]",0,31,31,31,1,1,1,,,0,FALSE,,,,,,,,,,,,,,,,,,,,,,,,,,,,,,,
,5ee623674afa60375e30eec3,627c76c22ca7f3627b95734a,2022-05-12_03h54.42.160,classification_task,2021.2.3,Win32,60.10337781,627c6715c52fd12f31907bd0,,,,,,,,,,,,,,,,,,,,,,,l,0,0.4864,"[""0.191"",""0.066"",""0.620"",""0.950""]","[1,0,1,1]",0,32,32,32,1,0,1,,,0,FALSE,,,,,,,,,,,,,,,,,,,,,,,,,,,,,,,
,5ee623674afa60375e30eec3,627c76c22ca7f3627b95734a,2022-05-12_03h54.42.160,classification_task,2021.2.3,Win32,60.10337781,627c6715c52fd12f31907bd0,,,,,,,,,,,,,,,,,,,,,,,l,0,1.0783,"[""0.191"",""0.386"",""0.851"",""0.950""]","[1,1,0,1]",0,33,33,33,1,0,1,,,0,FALSE,,,,,,,,,,,,,,,,,,,,,,,,,,,,,,,
,5ee623674afa60375e30eec3,627c76c22ca7f3627b95734a,2022-05-12_03h54.42.160,classification_task,2021.2.3,Win32,60.10337781,627c6715c52fd12f31907bd0,,,,,,,,,,,,,,,,,,,,,,,a,0,0.846,"[""0.032"",""0.258"",""0.066"",""0.779""]","[1,1,0,1]",0,34,34,34,1,1,0,,,0,FALSE,,,,,,,,,,,,,,,,,,,,,,,,,,,,,,,
,5ee623674afa60375e30eec3,627c76c22ca7f3627b95734a,2022-05-12_03h54.42.160,classification_task,2021.2.3,Win32,60.10337781,627c6715c52fd12f31907bd0,,,,,,,,,,,,,,,,,,,,,,,a,1,0.7184,"[""0.224"",""0.437"",""0.740"",""0.098""]","[1,1,1,0]",0,35,35,35,1,0,0,,,0,FALSE,,,,,,,,,,,,,,,,,,,,,,,,,,,,,,,
,5ee623674afa60375e30eec3,627c76c22ca7f3627b95734a,2022-05-12_03h54.42.160,classification_task,2021.2.3,Win32,60.10337781,627c6715c52fd12f31907bd0,,,,,,,,,,,,,,,,,,,,,,,a,0,0.7924,"[""0.092"",""0.330"",""0.537"",""0.678""]","[0,1,1,1]",0,36,36,36,1,1,1,,,0,FALSE,,,,,,,,,,,,,,,,,,,,,,,,,,,,,,,
,5ee623674afa60375e30eec3,627c76c22ca7f3627b95734a,2022-05-12_03h54.42.160,classification_task,2021.2.3,Win32,60.10337781,627c6715c52fd12f31907bd0,,,,,,,,,,,,,,,,,,,,,,,l,1,0.6595,"[""0.135"",""0.330"",""0.537"",""0.824""]","[1,1,1,0]",0,37,37,37,1,1,1,,,0,FALSE,,,,,,,,,,,,,,,,,,,,,,,,,,,,,,,
,5ee623674afa60375e30eec3,627c76c22ca7f3627b95734a,2022-05-12_03h54.42.160,classification_task,2021.2.3,Win32,60.10337781,627c6715c52fd12f31907bd0,,,,,,,,,,,,,,,,,,,,,,,l,0,0.6026,"[""0.066"",""0.386"",""0.620"",""0.950""]","[0,1,1,1]",0,38,38,38,1,0,1,,,0,FALSE,,,,,,,,,,,,,,,,,,,,,,,,,,,,,,,
,5ee623674afa60375e30eec3,627c76c22ca7f3627b95734a,2022-05-12_03h54.42.160,classification_task,2021.2.3,Win32,60.10337781,627c6715c52fd12f31907bd0,,,,,,,,,,,,,,,,,,,,,,,l,1,0.7506,"[""0.135"",""0.330"",""0.080"",""0.678""]","[1,1,0,1]",0,39,39,39,1,1,1,,,0,FALSE,,,,,,,,,,,,,,,,,,,,,,,,,,,,,,,
,5ee623674afa60375e30eec3,627c76c22ca7f3627b95734a,2022-05-12_03h54.42.160,classification_task,2021.2.3,Win32,60.10337781,627c6715c52fd12f31907bd0,,,,,,,,,,,,,,,,,,,,,,,l,0,0.8252,"[""0.851"",""0.437"",""0.740"",""0.888""]","[0,1,1,1]",0,40,40,40,1,0,0,,,0,FALSE,,,,,,,,,,,,,,,,,,,,,,,,,,,,,,,
,5ee623674afa60375e30eec3,627c76c22ca7f3627b95734a,2022-05-12_03h54.42.160,classification_task,2021.2.3,Win32,60.10337781,627c6715c52fd12f31907bd0,,,,,,,,,,,,,,,,,,,,,,,l,1,1.0088,"[""0.032"",""0.852"",""0.474"",""0.779""]","[1,0,1,1]",0,41,41,41,1,1,0,,,0,FALSE,,,,,,,,,,,,,,,,,,,,,,,,,,,,,,,
,5ee623674afa60375e30eec3,627c76c22ca7f3627b95734a,2022-05-12_03h54.42.160,classification_task,2021.2.3,Win32,60.10337781,627c6715c52fd12f31907bd0,,,,,,,,,,,,,,,,,,,,,,,a,1,1.1099,"[""0.224"",""0.066"",""0.740"",""0.888""]","[1,0,1,1]",0,42,42,42,1,0,0,,,0,FALSE,,,,,,,,,,,,,,,,,,,,,,,,,,,,,,,
,5ee623674afa60375e30eec3,627c76c22ca7f3627b95734a,2022-05-12_03h54.42.160,classification_task,2021.2.3,Win32,60.10337781,627c6715c52fd12f31907bd0,,,,,,,,,,,,,,,,,,,,,,,a,1,1.0725,"[""0.191"",""0.386"",""0.620"",""0.098""]","[1,1,1,0]",0,43,43,43,1,0,1,,,0,FALSE,,,,,,,,,,,,,,,,,,,,,,,,,,,,,,,
,5ee623674afa60375e30eec3,627c76c22ca7f3627b95734a,2022-05-12_03h54.42.160,classification_task,2021.2.3,Win32,60.10337781,627c6715c52fd12f31907bd0,,,,,,,,,,,,,,,,,,,,,,,a,1,0.6127,"[""0.224"",""0.437"",""0.852"",""0.888""]","[1,1,0,1]",0,44,44,44,1,0,0,,,0,FALSE,,,,,,,,,,,,,,,,,,,,,,,,,,,,,,,
,5ee623674afa60375e30eec3,627c76c22ca7f3627b95734a,2022-05-12_03h54.42.160,classification_task,2021.2.3,Win32,60.10337781,627c6715c52fd12f31907bd0,,,,,,,,,,,,,,,,,,,,,,,a,0,0.8447,"[""0.135"",""0.072"",""0.537"",""0.678""]","[1,0,1,1]",0,45,45,45,1,1,1,,,0,FALSE,,,,,,,,,,,,,,,,,,,,,,,,,,,,,,,
,5ee623674afa60375e30eec3,627c76c22ca7f3627b95734a,2022-05-12_03h54.42.160,classification_task,2021.2.3,Win32,60.10337781,627c6715c52fd12f31907bd0,,,,,,,,,,,,,,,,,,,,,,,a,0,1.1924,"[""0.032"",""0.258"",""0.474"",""0.844""]","[1,1,1,0]",0,46,46,46,1,1,0,,,0,FALSE,,,,,,,,,,,,,,,,,,,,,,,,,,,,,,,
,5ee623674afa60375e30eec3,627c76c22ca7f3627b95734a,2022-05-12_03h54.42.160,classification_task,2021.2.3,Win32,60.10337781,627c6715c52fd12f31907bd0,,,,,,,,,,,,,,,,,,,,,,,l,1,0.5714,"[""0.098"",""0.258"",""0.474"",""0.779""]","[0,1,1,1]",0,47,47,47,1,1,0,,,0,FALSE,,,,,,,,,,,,,,,,,,,,,,,,,,,,,,,
,5ee623674afa60375e30eec3,627c76c22ca7f3627b95734a,2022-05-12_03h54.42.160,classification_task,2021.2.3,Win32,60.10337781,627c6715c52fd12f31907bd0,,,,,,,,,,,,,,,,,,,,,,,l,0,0.757,"[""0.191"",""0.852"",""0.620"",""0.950""]","[1,0,1,1]",0,48,48,48,1,0,1,,,0,FALSE,,,,,,,,,,,,,,,,,,,,,,,,,,,,,,,
,5ee623674afa60375e30eec3,627c76c22ca7f3627b95734a,2022-05-12_03h54.42.160,classification_task,2021.2.3,Win32,60.10337781,627c6715c52fd12f31907bd0,,,,,,,,,,,,,,,,,,,,,,,a,0,0.3042,"[""0.032"",""0.258"",""0.474"",""0.585""]","[1,1,1,0]",0,49,49,49,1,1,0,,,0,FALSE,,,,,,,,,,,,,,,,,,,,,,,,,,,,,,,
,5ee623674afa60375e30eec3,627c76c22ca7f3627b95734a,2022-05-12_03h54.42.160,classification_task,2021.2.3,Win32,60.10337781,627c6715c52fd12f31907bd0,,,,,,,,,,,,,,,,,,,,,,,l,0,0.5074,"[""0.191"",""0.386"",""0.834"",""0.950""]","[1,1,0,1]",0,50,50,50,1,0,1,,,0,FALSE,,,,,,,,,,,,,,,,,,,,,,,,,,,,,,,
,5ee623674afa60375e30eec3,627c76c22ca7f3627b95734a,2022-05-12_03h54.42.160,classification_task,2021.2.3,Win32,60.10337781,627c6715c52fd12f31907bd0,,,,,,,,,,,,,,,,,,,,,,,l,0,0.6448,"[""0.817"",""0.386"",""0.620"",""0.950""]","[0,1,1,1]",0,51,51,51,1,0,1,,,0,FALSE,,,,,,,,,,,,,,,,,,,,,,,,,,,,,,,
,5ee623674afa60375e30eec3,627c76c22ca7f3627b95734a,2022-05-12_03h54.42.160,classification_task,2021.2.3,Win32,60.10337781,627c6715c52fd12f31907bd0,,,,,,,,,,,,,,,,,,,,,,,l,1,0.5337,"[""0.135"",""0.817"",""0.537"",""0.678""]","[1,0,1,1]",0,52,52,52,1,1,1,,,0,FALSE,,,,,,,,,,,,,,,,,,,,,,,,,,,,,,,
,5ee623674afa60375e30eec3,627c76c22ca7f3627b95734a,2022-05-12_03h54.42.160,classification_task,2021.2.3,Win32,60.10337781,627c6715c52fd12f31907bd0,,,,,,,,,,,,,,,,,,,,,,,l,0,0.9083,"[""0.852"",""0.437"",""0.740"",""0.888""]","[0,1,1,1]",0,53,53,53,1,0,0,,,0,FALSE,,,,,,,,,,,,,,,,,,,,,,,,,,,,,,,
,5ee623674afa60375e30eec3,627c76c22ca7f3627b95734a,2022-05-12_03h54.42.160,classification_task,2021.2.3,Win32,60.10337781,627c6715c52fd12f31907bd0,,,,,,,,,,,,,,,,,,,,,,,a,0,0.6535,"[""0.032"",""0.258"",""0.072"",""0.779""]","[1,1,0,1]",0,54,54,54,1,1,0,,,0,FALSE,,,,,,,,,,,,,,,,,,,,,,,,,,,,,,,
,5ee623674afa60375e30eec3,627c76c22ca7f3627b95734a,2022-05-12_03h54.42.160,classification_task,2021.2.3,Win32,60.10337781,627c6715c52fd12f31907bd0,,,,,,,,,,,,,,,,,,,,,,,a,0,0.5845,"[""0.032"",""0.820"",""0.474"",""0.779""]","[1,0,1,1]",0,55,55,55,1,1,0,,,0,FALSE,,,,,,,,,,,,,,,,,,,,,,,,,,,,,,,
,5ee623674afa60375e30eec3,627c76c22ca7f3627b95734a,2022-05-12_03h54.42.160,classification_task,2021.2.3,Win32,60.10337781,627c6715c52fd12f31907bd0,,,,,,,,,,,,,,,,,,,,,,,l,1,0.4705,"[""0.851"",""0.330"",""0.537"",""0.678""]","[0,1,1,1]",0,56,56,56,1,1,1,,,0,FALSE,,,,,,,,,,,,,,,,,,,,,,,,,,,,,,,
,5ee623674afa60375e30eec3,627c76c22ca7f3627b95734a,2022-05-12_03h54.42.160,classification_task,2021.2.3,Win32,60.10337781,627c6715c52fd12f31907bd0,,,,,,,,,,,,,,,,,,,,,,,l,1,0.2328,"[""0.080"",""0.258"",""0.474"",""0.779""]","[0,1,1,1]",0,57,57,57,1,1,0,,,0,FALSE,,,,,,,,,,,,,,,,,,,,,,,,,,,,,,,
,5ee623674afa60375e30eec3,627c76c22ca7f3627b95734a,2022-05-12_03h54.42.160,classification_task,2021.2.3,Win32,60.10337781,627c6715c52fd12f31907bd0,,,,,,,,,,,,,,,,,,,,,,,l,0,0.7806,"[""0.191"",""0.386"",""0.620"",""0.098""]","[1,1,1,0]",0,58,58,58,1,0,1,,,0,FALSE,,,,,,,,,,,,,,,,,,,,,,,,,,,,,,,
,5ee623674afa60375e30eec3,627c76c22ca7f3627b95734a,2022-05-12_03h54.42.160,classification_task,2021.2.3,Win32,60.10337781,627c6715c52fd12f31907bd0,,,,,,,,,,,,,,,,,,,,,,,l,1,0.3143,"[""0.135"",""0.330"",""0.537"",""0.080""]","[1,1,1,0]",0,59,59,59,1,1,1,,,0,FALSE,,,,,,,,,,,,,,,,,,,,,,,,,,,,,,,
,5ee623674afa60375e30eec3,627c76c22ca7f3627b95734a,2022-05-12_03h54.42.160,classification_task,2021.2.3,Win32,60.10337781,627c6715c52fd12f31907bd0,,,,,,,,,,,,,,,,,,,,,,,l,1,0.3885,"[""0.135"",""0.330"",""0.817"",""0.678""]","[1,1,0,1]",0,60,60,60,1,1,1,,,0,FALSE,,,,,,,,,,,,,,,,,,,,,,,,,,,,,,,
,5ee623674afa60375e30eec3,627c76c22ca7f3627b95734a,2022-05-12_03h54.42.160,classification_task,2021.2.3,Win32,60.10337781,627c6715c52fd12f31907bd0,,,,,,,,,,,,,,,,,,,,,,,l,0,0.5223,"[""0.224"",""0.817"",""0.740"",""0.888""]","[1,0,1,1]",0,61,61,61,1,0,0,,,0,FALSE,,,,,,,,,,,,,,,,,,,,,,,,,,,,,,,
,5ee623674afa60375e30eec3,627c76c22ca7f3627b95734a,2022-05-12_03h54.42.160,classification_task,2021.2.3,Win32,60.10337781,627c6715c52fd12f31907bd0,,,,,,,,,,,,,,,,,,,,,,,a,1,0.5591,"[""0.224"",""0.437"",""0.844"",""0.888""]","[1,1,0,1]",0,62,62,62,1,0,0,,,0,FALSE,,,,,,,,,,,,,,,,,,,,,,,,,,,,,,,
,5ee623674afa60375e30eec3,627c76c22ca7f3627b95734a,2022-05-12_03h54.42.160,classification_task,2021.2.3,Win32,60.10337781,627c6715c52fd12f31907bd0,,,,,,,,,,,,,,,,,,,,,,,a,1,0.4519,"[""0.224"",""0.437"",""0.740"",""0.852""]","[1,1,1,0]",0,63,63,63,1,0,0,,,0,FALSE,,,,,,,,,,,,,,,,,,,,,,,,,,,,,,,
,5ee623674afa60375e30eec3,627c76c22ca7f3627b95734a,2022-05-12_03h54.42.160,classification_task,2021.2.3,Win32,60.10337781,627c6715c52fd12f31907bd0,,,,,,,,,,,,,,,,,,,,,,,,,,,,,,,,,,,,,,,0, ,,0,7.014745854,128.7646,0,1,1,1,1,2,2,,,,,,,,,,,,,,,,,,
,5ee623674afa60375e30eec3,627c76c22ca7f3627b95734a,2022-05-12_03h54.42.160,classification_task,2021.2.3,Win32,60.10337781,627c6715c52fd12f31907bd0,,,,,,,,,,,,,,,,,,,,,,,,,,,,,,,,,,,,,,,1,  ,,0,8.361992572,130.4784,0,1,1,1,1,2,2,,,,,,,,,,,,,,,,,,
,5ee623674afa60375e30eec3,627c76c22ca7f3627b95734a,2022-05-12_03h54.42.160,classification_task,2021.2.3,Win32,60.10337781,627c6715c52fd12f31907bd0,,,,,,,,,,,,,,,,,,,,,,,,,,,,,,,,,,,,,,,2,  ,,0,4.6386933,132.5147,0,1,1,1,1,2,2,,,,,,,,,,,,,,,,,,
,5ee623674afa60375e30eec3,627c76c22ca7f3627b95734a,2022-05-12_03h54.42.160,classification_task,2021.2.3,Win32,60.10337781,627c6715c52fd12f31907bd0,,,,,,,,,,,,,,,,,,,,,,,,,,,,,,,,,,,,,,,,,,,,,0,1,1,1,1,,2,,,,,,,,,,,,,,,,,,
,5ee623674afa60375e30eec3,627c76c22ca7f3627b95734a,2022-05-12_03h54.42.160,classification_task,2021.2.3,Win32,60.10337781,627c6715c52fd12f31907bd0,,,,,,,,,,,,,,,,,,,,,space,3.0972,a,0,1.0456,"[""0.032"",""0.258"",""0.474"",""0.824""]","[1,1,1,0]",0,0,0,0,1,1,0,,,0,FALSE,,,,,,,,,,,,,,,,,,,,,,,,,,,,,,,
,5ee623674afa60375e30eec3,627c76c22ca7f3627b95734a,2022-05-12_03h54.42.160,classification_task,2021.2.3,Win32,60.10337781,627c6715c52fd12f31907bd0,,,,,,,,,,,,,,,,,,,,,,,a,0,1.0401,"[""0.851"",""0.258"",""0.474"",""0.779""]","[0,1,1,1]",0,1,1,1,1,1,0,,,0,FALSE,,,,,,,,,,,,,,,,,,,,,,,,,,,,,,,
,5ee623674afa60375e30eec3,627c76c22ca7f3627b95734a,2022-05-12_03h54.42.160,classification_task,2021.2.3,Win32,60.10337781,627c6715c52fd12f31907bd0,,,,,,,,,,,,,,,,,,,,,,,l,0,0.6385,"[""0.080"",""0.437"",""0.740"",""0.888""]","[0,1,1,1]",0,2,2,2,1,0,0,,,0,FALSE,,,,,,,,,,,,,,,,,,,,,,,,,,,,,,,
,5ee623674afa60375e30eec3,627c76c22ca7f3627b95734a,2022-05-12_03h54.42.160,classification_task,2021.2.3,Win32,60.10337781,627c6715c52fd12f31907bd0,,,,,,,,,,,,,,,,,,,,,,,a,0,1.1939,"[""0.135"",""0.585"",""0.537"",""0.678""]","[1,0,1,1]",0,3,3,3,1,1,1,,,0,FALSE,,,,,,,,,,,,,,,,,,,,,,,,,,,,,,,
,5ee623674afa60375e30eec3,627c76c22ca7f3627b95734a,2022-05-12_03h54.42.160,classification_task,2021.2.3,Win32,60.10337781,627c6715c52fd12f31907bd0,,,,,,,,,,,,,,,,,,,,,,,l,1,1.1554,"[""0.824"",""0.330"",""0.537"",""0.678""]","[0,1,1,1]",0,4,4,4,1,1,1,,,0,FALSE,,,,,,,,,,,,,,,,,,,,,,,,,,,,,,,
,5ee623674afa60375e30eec3,627c76c22ca7f3627b95734a,2022-05-12_03h54.42.160,classification_task,2021.2.3,Win32,60.10337781,627c6715c52fd12f31907bd0,,,,,,,,,,,,,,,,,,,,,,,l,1,1.0717,"[""0.135"",""0.330"",""0.092"",""0.678""]","[1,1,0,1]",0,5,5,5,1,1,1,,,0,FALSE,,,,,,,,,,,,,,,,,,,,,,,,,,,,,,,
,5ee623674afa60375e30eec3,627c76c22ca7f3627b95734a,2022-05-12_03h54.42.160,classification_task,2021.2.3,Win32,60.10337781,627c6715c52fd12f31907bd0,,,,,,,,,,,,,,,,,,,,,,,a,1,1.0266,"[""0.824"",""0.386"",""0.620"",""0.950""]","[0,1,1,1]",0,6,6,6,1,0,1,,,0,FALSE,,,,,,,,,,,,,,,,,,,,,,,,,,,,,,,
,5ee623674afa60375e30eec3,627c76c22ca7f3627b95734a,2022-05-12_03h54.42.160,classification_task,2021.2.3,Win32,60.10337781,627c6715c52fd12f31907bd0,,,,,,,,,,,,,,,,,,,,,,,a,1,0.3404,"[""0.191"",""0.386"",""0.585"",""0.950""]","[1,1,0,1]",0,7,7,7,1,0,1,,,0,FALSE,,,,,,,,,,,,,,,,,,,,,,,,,,,,,,,
,5ee623674afa60375e30eec3,627c76c22ca7f3627b95734a,2022-05-12_03h54.42.160,classification_task,2021.2.3,Win32,60.10337781,627c6715c52fd12f31907bd0,,,,,,,,,,,,,,,,,,,,,,,a,1,0.5398,"[""0.224"",""0.437"",""0.585"",""0.888""]","[1,1,0,1]",0,8,8,8,1,0,0,,,0,FALSE,,,,,,,,,,,,,,,,,,,,,,,,,,,,,,,
,5ee623674afa60375e30eec3,627c76c22ca7f3627b95734a,2022-05-12_03h54.42.160,classification_task,2021.2.3,Win32,60.10337781,627c6715c52fd12f31907bd0,,,,,,,,,,,,,,,,,,,,,,,a,1,0.7067,"[""0.191"",""0.386"",""0.620"",""0.852""]","[1,1,1,0]",0,9,9,9,1,0,1,,,0,FALSE,,,,,,,,,,,,,,,,,,,,,,,,,,,,,,,
,5ee623674afa60375e30eec3,627c76c22ca7f3627b95734a,2022-05-12_03h54.42.160,classification_task,2021.2.3,Win32,60.10337781,627c6715c52fd12f31907bd0,,,,,,,,,,,,,,,,,,,,,,,l,1,0.256,"[""0.032"",""0.575"",""0.474"",""0.779""]","[1,0,1,1]",0,10,10,10,1,1,0,,,0,FALSE,,,,,,,,,,,,,,,,,,,,,,,,,,,,,,,
,5ee623674afa60375e30eec3,627c76c22ca7f3627b95734a,2022-05-12_03h54.42.160,classification_task,2021.2.3,Win32,60.10337781,627c6715c52fd12f31907bd0,,,,,,,,,,,,,,,,,,,,,,,l,0,0.3454,"[""0.224"",""0.072"",""0.740"",""0.888""]","[1,0,1,1]",0,11,11,11,1,0,0,,,0,FALSE,,,,,,,,,,,,,,,,,,,,,,,,,,,,,,,
,5ee623674afa60375e30eec3,627c76c22ca7f3627b95734a,2022-05-12_03h54.42.160,classification_task,2021.2.3,Win32,60.10337781,627c6715c52fd12f31907bd0,,,,,,,,,,,,,,,,,,,,,,,a,1,0.3667,"[""0.191"",""0.575"",""0.620"",""0.950""]","[1,0,1,1]",0,12,12,12,1,0,1,,,0,FALSE,,,,,,,,,,,,,,,,,,,,,,,,,,,,,,,
,5ee623674afa60375e30eec3,627c76c22ca7f3627b95734a,2022-05-12_03h54.42.160,classification_task,2021.2.3,Win32,60.10337781,627c6715c52fd12f31907bd0,,,,,,,,,,,,,,,,,,,,,,,a,0,0.3118,"[""0.135"",""0.330"",""0.537"",""0.575""]","[1,1,1,0]",0,13,13,13,1,1,1,,,0,FALSE,,,,,,,,,,,,,,,,,,,,,,,,,,,,,,,
,5ee623674afa60375e30eec3,627c76c22ca7f3627b95734a,2022-05-12_03h54.42.160,classification_task,2021.2.3,Win32,60.10337781,627c6715c52fd12f31907bd0,,,,,,,,,,,,,,,,,,,,,,,a,1,0.6772,"[""0.224"",""0.437"",""0.740"",""0.072""]","[1,1,1,0]",0,14,14,14,1,0,0,,,0,FALSE,,,,,,,,,,,,,,,,,,,,,,,,,,,,,,,
,5ee623674afa60375e30eec3,627c76c22ca7f3627b95734a,2022-05-12_03h54.42.160,classification_task,2021.2.3,Win32,60.10337781,627c6715c52fd12f31907bd0,,,,,,,,,,,,,,,,,,,,,,,a,0,0.5376,"[""0.032"",""0.258"",""0.080"",""0.779""]","[1,1,0,1]",0,15,15,15,1,1,0,,,0,FALSE,,,,,,,,,,,,,,,,,,,,,,,,,,,,,,,
,5ee623674afa60375e30eec3,627c76c22ca7f3627b95734a,2022-05-12_03h54.42.160,classification_task,2021.2.3,Win32,60.10337781,627c6715c52fd12f31907bd0,,,,,,,,,,,,,,,,,,,,,,,l,1,0.4447,"[""0.032"",""0.585"",""0.474"",""0.779""]","[1,0,1,1]",0,16,16,16,1,1,0,,,0,FALSE,,,,,,,,,,,,,,,,,,,,,,,,,,,,,,,
,5ee623674afa60375e30eec3,627c76c22ca7f3627b95734a,2022-05-12_03h54.42.160,classification_task,2021.2.3,Win32,60.10337781,627c6715c52fd12f31907bd0,,,,,,,,,,,,,,,,,,,,,,,a,0,0.6394,"[""0.032"",""0.258"",""0.072"",""0.779""]","[1,1,0,1]",0,17,17,17,1,1,0,,,0,FALSE,,,,,,,,,,,,,,,,,,,,,,,,,,,,,,,
,5ee623674afa60375e30eec3,627c76c22ca7f3627b95734a,2022-05-12_03h54.42.160,classification_task,2021.2.3,Win32,60.10337781,627c6715c52fd12f31907bd0,,,,,,,,,,,,,,,,,,,,,,,l,1,0.3757,"[""0.032"",""0.258"",""0.474"",""0.820""]","[1,1,1,0]",0,18,18,18,1,1,0,,,0,FALSE,,,,,,,,,,,,,,,,,,,,,,,,,,,,,,,
,5ee623674afa60375e30eec3,627c76c22ca7f3627b95734a,2022-05-12_03h54.42.160,classification_task,2021.2.3,Win32,60.10337781,627c6715c52fd12f31907bd0,,,,,,,,,,,,,,,,,,,,,,,a,0,0.1712,"[""0.135"",""0.330"",""0.844"",""0.678""]","[1,1,0,1]",0,19,19,19,1,1,1,,,0,FALSE,,,,,,,,,,,,,,,,,,,,,,,,,,,,,,,
,5ee623674afa60375e30eec3,627c76c22ca7f3627b95734a,2022-05-12_03h54.42.160,classification_task,2021.2.3,Win32,60.10337781,627c6715c52fd12f31907bd0,,,,,,,,,,,,,,,,,,,,,,,a,1,0.1883,"[""0.191"",""0.386"",""0.073"",""0.950""]","[1,1,0,1]",0,20,20,20,1,0,1,,,0,FALSE,,,,,,,,,,,,,,,,,,,,,,,,,,,,,,,
,5ee623674afa60375e30eec3,627c76c22ca7f3627b95734a,2022-05-12_03h54.42.160,classification_task,2021.2.3,Win32,60.10337781,627c6715c52fd12f31907bd0,,,,,,,,,,,,,,,,,,,,,,,l,0,0.4714,"[""0.224"",""0.072"",""0.740"",""0.888""]","[1,0,1,1]",0,21,21,21,1,0,0,,,0,FALSE,,,,,,,,,,,,,,,,,,,,,,,,,,,,,,,
,5ee623674afa60375e30eec3,627c76c22ca7f3627b95734a,2022-05-12_03h54.42.160,classification_task,2021.2.3,Win32,60.10337781,627c6715c52fd12f31907bd0,,,,,,,,,,,,,,,,,,,,,,,a,1,0.1765,"[""0.073"",""0.437"",""0.740"",""0.888""]","[0,1,1,1]",0,22,22,22,1,0,0,,,0,FALSE,,,,,,,,,,,,,,,,,,,,,,,,,,,,,,,
,5ee623674afa60375e30eec3,627c76c22ca7f3627b95734a,2022-05-12_03h54.42.160,classification_task,2021.2.3,Win32,60.10337781,627c6715c52fd12f31907bd0,,,,,,,,,,,,,,,,,,,,,,,a,0,0.3429,"[""0.135"",""0.330"",""0.537"",""0.824""]","[1,1,1,0]",0,23,23,23,1,1,1,,,0,FALSE,,,,,,,,,,,,,,,,,,,,,,,,,,,,,,,
,5ee623674afa60375e30eec3,627c76c22ca7f3627b95734a,2022-05-12_03h54.42.160,classification_task,2021.2.3,Win32,60.10337781,627c6715c52fd12f31907bd0,,,,,,,,,,,,,,,,,,,,,,,a,1,0.5905,"[""0.844"",""0.386"",""0.620"",""0.950""]","[0,1,1,1]",0,24,24,24,1,0,1,,,0,FALSE,,,,,,,,,,,,,,,,,,,,,,,,,,,,,,,
,5ee623674afa60375e30eec3,627c76c22ca7f3627b95734a,2022-05-12_03h54.42.160,classification_task,2021.2.3,Win32,60.10337781,627c6715c52fd12f31907bd0,,,,,,,,,,,,,,,,,,,,,,,l,0,0.3722,"[""0.191"",""0.834"",""0.620"",""0.950""]","[1,0,1,1]",0,25,25,25,1,0,1,,,0,FALSE,,,,,,,,,,,,,,,,,,,,,,,,,,,,,,,
,5ee623674afa60375e30eec3,627c76c22ca7f3627b95734a,2022-05-12_03h54.42.160,classification_task,2021.2.3,Win32,60.10337781,627c6715c52fd12f31907bd0,,,,,,,,,,,,,,,,,,,,,,,l,1,0.3904,"[""0.135"",""0.575"",""0.537"",""0.678""]","[1,0,1,1]",0,26,26,26,1,1,1,,,0,FALSE,,,,,,,,,,,,,,,,,,,,,,,,,,,,,,,
,5ee623674afa60375e30eec3,627c76c22ca7f3627b95734a,2022-05-12_03h54.42.160,classification_task,2021.2.3,Win32,60.10337781,627c6715c52fd12f31907bd0,,,,,,,,,,,,,,,,,,,,,,,l,1,0.4046,"[""0.585"",""0.330"",""0.537"",""0.678""]","[0,1,1,1]",0,27,27,27,1,1,1,,,0,FALSE,,,,,,,,,,,,,,,,,,,,,,,,,,,,,,,
,5ee623674afa60375e30eec3,627c76c22ca7f3627b95734a,2022-05-12_03h54.42.160,classification_task,2021.2.3,Win32,60.10337781,627c6715c52fd12f31907bd0,,,,,,,,,,,,,,,,,,,,,,,a,1,0.6082,"[""0.191"",""0.386"",""0.620"",""0.852""]","[1,1,1,0]",0,28,28,28,1,0,1,,,0,FALSE,,,,,,,,,,,,,,,,,,,,,,,,,,,,,,,
,5ee623674afa60375e30eec3,627c76c22ca7f3627b95734a,2022-05-12_03h54.42.160,classification_task,2021.2.3,Win32,60.10337781,627c6715c52fd12f31907bd0,,,,,,,,,,,,,,,,,,,,,,,a,0,0.5079,"[""0.073"",""0.258"",""0.474"",""0.779""]","[0,1,1,1]",0,29,29,29,1,1,0,,,0,FALSE,,,,,,,,,,,,,,,,,,,,,,,,,,,,,,,
,5ee623674afa60375e30eec3,627c76c22ca7f3627b95734a,2022-05-12_03h54.42.160,classification_task,2021.2.3,Win32,60.10337781,627c6715c52fd12f31907bd0,,,,,,,,,,,,,,,,,,,,,,,a,1,0.2751,"[""0.224"",""0.437"",""0.740"",""0.824""]","[1,1,1,0]",0,30,30,30,1,0,0,,,0,FALSE,,,,,,,,,,,,,,,,,,,,,,,,,,,,,,,
,5ee623674afa60375e30eec3,627c76c22ca7f3627b95734a,2022-05-12_03h54.42.160,classification_task,2021.2.3,Win32,60.10337781,627c6715c52fd12f31907bd0,,,,,,,,,,,,,,,,,,,,,,,a,1,0.6074,"[""0.224"",""0.437"",""0.575"",""0.888""]","[1,1,0,1]",0,31,31,31,1,0,0,,,0,FALSE,,,,,,,,,,,,,,,,,,,,,,,,,,,,,,,
,5ee623674afa60375e30eec3,627c76c22ca7f3627b95734a,2022-05-12_03h54.42.160,classification_task,2021.2.3,Win32,60.10337781,627c6715c52fd12f31907bd0,,,,,,,,,,,,,,,,,,,,,,,l,0,0.4119,"[""0.191"",""0.066"",""0.620"",""0.950""]","[1,0,1,1]",0,32,32,32,1,0,1,,,0,FALSE,,,,,,,,,,,,,,,,,,,,,,,,,,,,,,,
,5ee623674afa60375e30eec3,627c76c22ca7f3627b95734a,2022-05-12_03h54.42.160,classification_task,2021.2.3,Win32,60.10337781,627c6715c52fd12f31907bd0,,,,,,,,,,,,,,,,,,,,,,,a,0,0.3396,"[""0.585"",""0.258"",""0.474"",""0.779""]","[0,1,1,1]",0,33,33,33,1,1,0,,,0,FALSE,,,,,,,,,,,,,,,,,,,,,,,,,,,,,,,
,5ee623674afa60375e30eec3,627c76c22ca7f3627b95734a,2022-05-12_03h54.42.160,classification_task,2021.2.3,Win32,60.10337781,627c6715c52fd12f31907bd0,,,,,,,,,,,,,,,,,,,,,,,a,0,0.6213,"[""0.032"",""0.820"",""0.474"",""0.779""]","[1,0,1,1]",0,34,34,34,1,1,0,,,0,FALSE,,,,,,,,,,,,,,,,,,,,,,,,,,,,,,,
,5ee623674afa60375e30eec3,627c76c22ca7f3627b95734a,2022-05-12_03h54.42.160,classification_task,2021.2.3,Win32,60.10337781,627c6715c52fd12f31907bd0,,,,,,,,,,,,,,,,,,,,,,,l,1,0.3735,"[""0.852"",""0.330"",""0.537"",""0.678""]","[0,1,1,1]",0,35,35,35,1,1,1,,,0,FALSE,,,,,,,,,,,,,,,,,,,,,,,,,,,,,,,
,5ee623674afa60375e30eec3,627c76c22ca7f3627b95734a,2022-05-12_03h54.42.160,classification_task,2021.2.3,Win32,60.10337781,627c6715c52fd12f31907bd0,,,,,,,,,,,,,,,,,,,,,,,a,0,0.4411,"[""0.032"",""0.258"",""0.474"",""0.092""]","[1,1,1,0]",0,36,36,36,1,1,0,,,0,FALSE,,,,,,,,,,,,,,,,,,,,,,,,,,,,,,,
,5ee623674afa60375e30eec3,627c76c22ca7f3627b95734a,2022-05-12_03h54.42.160,classification_task,2021.2.3,Win32,60.10337781,627c6715c52fd12f31907bd0,,,,,,,,,,,,,,,,,,,,,,,l,1,0.3899,"[""0.135"",""0.575"",""0.537"",""0.678""]","[1,0,1,1]",0,37,37,37,1,1,1,,,0,FALSE,,,,,,,,,,,,,,,,,,,,,,,,,,,,,,,
,5ee623674afa60375e30eec3,627c76c22ca7f3627b95734a,2022-05-12_03h54.42.160,classification_task,2021.2.3,Win32,60.10337781,627c6715c52fd12f31907bd0,,,,,,,,,,,,,,,,,,,,,,,a,0,0.4952,"[""0.135"",""0.330"",""0.537"",""0.844""]","[1,1,1,0]",0,38,38,38,1,1,1,,,0,FALSE,,,,,,,,,,,,,,,,,,,,,,,,,,,,,,,
,5ee623674afa60375e30eec3,627c76c22ca7f3627b95734a,2022-05-12_03h54.42.160,classification_task,2021.2.3,Win32,60.10337781,627c6715c52fd12f31907bd0,,,,,,,,,,,,,,,,,,,,,,,a,0,0.3128,"[""0.135"",""0.330"",""0.817"",""0.678""]","[1,1,0,1]",0,39,39,39,1,1,1,,,0,FALSE,,,,,,,,,,,,,,,,,,,,,,,,,,,,,,,
,5ee623674afa60375e30eec3,627c76c22ca7f3627b95734a,2022-05-12_03h54.42.160,classification_task,2021.2.3,Win32,60.10337781,627c6715c52fd12f31907bd0,,,,,,,,,,,,,,,,,,,,,,,a,1,0.3543,"[""0.066"",""0.386"",""0.620"",""0.950""]","[0,1,1,1]",0,40,40,40,1,0,1,,,0,FALSE,,,,,,,,,,,,,,,,,,,,,,,,,,,,,,,
,5ee623674afa60375e30eec3,627c76c22ca7f3627b95734a,2022-05-12_03h54.42.160,classification_task,2021.2.3,Win32,60.10337781,627c6715c52fd12f31907bd0,,,,,,,,,,,,,,,,,,,,,,,l,0,0.8786,"[""0.191"",""0.386"",""0.620"",""0.066""]","[1,1,1,0]",0,41,41,41,1,0,1,,,0,FALSE,,,,,,,,,,,,,,,,,,,,,,,,,,,,,,,
,5ee623674afa60375e30eec3,627c76c22ca7f3627b95734a,2022-05-12_03h54.42.160,classification_task,2021.2.3,Win32,60.10337781,627c6715c52fd12f31907bd0,,,,,,,,,,,,,,,,,,,,,,,a,1,0.1935,"[""0.834"",""0.437"",""0.740"",""0.888""]","[0,1,1,1]",0,42,42,42,1,0,0,,,0,FALSE,,,,,,,,,,,,,,,,,,,,,,,,,,,,,,,
,5ee623674afa60375e30eec3,627c76c22ca7f3627b95734a,2022-05-12_03h54.42.160,classification_task,2021.2.3,Win32,60.10337781,627c6715c52fd12f31907bd0,,,,,,,,,,,,,,,,,,,,,,,l,0,0.5795,"[""0.224"",""0.437"",""0.851"",""0.888""]","[1,1,0,1]",0,43,43,43,1,0,0,,,0,FALSE,,,,,,,,,,,,,,,,,,,,,,,,,,,,,,,
,5ee623674afa60375e30eec3,627c76c22ca7f3627b95734a,2022-05-12_03h54.42.160,classification_task,2021.2.3,Win32,60.10337781,627c6715c52fd12f31907bd0,,,,,,,,,,,,,,,,,,,,,,,a,1,0.5819,"[""0.191"",""0.386"",""0.824"",""0.950""]","[1,1,0,1]",0,44,44,44,1,0,1,,,0,FALSE,,,,,,,,,,,,,,,,,,,,,,,,,,,,,,,
,5ee623674afa60375e30eec3,627c76c22ca7f3627b95734a,2022-05-12_03h54.42.160,classification_task,2021.2.3,Win32,60.10337781,627c6715c52fd12f31907bd0,,,,,,,,,,,,,,,,,,,,,,,a,0,0.3073,"[""0.032"",""0.258"",""0.575"",""0.779""]","[1,1,0,1]",0,45,45,45,1,1,0,,,0,FALSE,,,,,,,,,,,,,,,,,,,,,,,,,,,,,,,
,5ee623674afa60375e30eec3,627c76c22ca7f3627b95734a,2022-05-12_03h54.42.160,classification_task,2021.2.3,Win32,60.10337781,627c6715c52fd12f31907bd0,,,,,,,,,,,,,,,,,,,,,,,l,0,0.32,"[""0.224"",""0.072"",""0.740"",""0.888""]","[1,0,1,1]",0,46,46,46,1,0,0,,,0,FALSE,,,,,,,,,,,,,,,,,,,,,,,,,,,,,,,
,5ee623674afa60375e30eec3,627c76c22ca7f3627b95734a,2022-05-12_03h54.42.160,classification_task,2021.2.3,Win32,60.10337781,627c6715c52fd12f31907bd0,,,,,,,,,,,,,,,,,,,,,,,a,1,0.174,"[""0.224"",""0.437"",""0.740"",""0.851""]","[1,1,1,0]",0,47,47,47,1,0,0,,,0,FALSE,,,,,,,,,,,,,,,,,,,,,,,,,,,,,,,
,5ee623674afa60375e30eec3,627c76c22ca7f3627b95734a,2022-05-12_03h54.42.160,classification_task,2021.2.3,Win32,60.10337781,627c6715c52fd12f31907bd0,,,,,,,,,,,,,,,,,,,,,,,a,1,0.1231,"[""0.191"",""0.386"",""0.620"",""0.072""]","[1,1,1,0]",0,48,48,48,1,0,1,,,0,FALSE,,,,,,,,,,,,,,,,,,,,,,,,,,,,,,,
,5ee623674afa60375e30eec3,627c76c22ca7f3627b95734a,2022-05-12_03h54.42.160,classification_task,2021.2.3,Win32,60.10337781,627c6715c52fd12f31907bd0,,,,,,,,,,,,,,,,,,,,,,,l,0,0.3081,"[""0.224"",""0.437"",""0.824"",""0.888""]","[1,1,0,1]",0,49,49,49,1,0,0,,,0,FALSE,,,,,,,,,,,,,,,,,,,,,,,,,,,,,,,
,5ee623674afa60375e30eec3,627c76c22ca7f3627b95734a,2022-05-12_03h54.42.160,classification_task,2021.2.3,Win32,60.10337781,627c6715c52fd12f31907bd0,,,,,,,,,,,,,,,,,,,,,,,l,0,0.3094,"[""0.852"",""0.437"",""0.740"",""0.888""]","[0,1,1,1]",0,50,50,50,1,0,0,,,0,FALSE,,,,,,,,,,,,,,,,,,,,,,,,,,,,,,,
,5ee623674afa60375e30eec3,627c76c22ca7f3627b95734a,2022-05-12_03h54.42.160,classification_task,2021.2.3,Win32,60.10337781,627c6715c52fd12f31907bd0,,,,,,,,,,,,,,,,,,,,,,,a,0,0.2735,"[""0.032"",""0.851"",""0.474"",""0.779""]","[1,0,1,1]",0,51,51,51,1,1,0,,,0,FALSE,,,,,,,,,,,,,,,,,,,,,,,,,,,,,,,
,5ee623674afa60375e30eec3,627c76c22ca7f3627b95734a,2022-05-12_03h54.42.160,classification_task,2021.2.3,Win32,60.10337781,627c6715c52fd12f31907bd0,,,,,,,,,,,,,,,,,,,,,,,l,1,0.345,"[""0.135"",""0.330"",""0.834"",""0.678""]","[1,1,0,1]",0,52,52,52,1,1,1,,,0,FALSE,,,,,,,,,,,,,,,,,,,,,,,,,,,,,,,
,5ee623674afa60375e30eec3,627c76c22ca7f3627b95734a,2022-05-12_03h54.42.160,classification_task,2021.2.3,Win32,60.10337781,627c6715c52fd12f31907bd0,,,,,,,,,,,,,,,,,,,,,,,a,0,1.3894,"[""0.135"",""0.330"",""0.537"",""0.851""]","[1,1,1,0]",0,53,53,53,1,1,1,,,0,FALSE,,,,,,,,,,,,,,,,,,,,,,,,,,,,,,,
,5ee623674afa60375e30eec3,627c76c22ca7f3627b95734a,2022-05-12_03h54.42.160,classification_task,2021.2.3,Win32,60.10337781,627c6715c52fd12f31907bd0,,,,,,,,,,,,,,,,,,,,,,,a,0,0.3133,"[""0.135"",""0.066"",""0.537"",""0.678""]","[1,0,1,1]",0,54,54,54,1,1,1,,,0,FALSE,,,,,,,,,,,,,,,,,,,,,,,,,,,,,,,
,5ee623674afa60375e30eec3,627c76c22ca7f3627b95734a,2022-05-12_03h54.42.160,classification_task,2021.2.3,Win32,60.10337781,627c6715c52fd12f31907bd0,,,,,,,,,,,,,,,,,,,,,,,l,0,0.3986,"[""0.191"",""0.386"",""0.820"",""0.950""]","[1,1,0,1]",0,55,55,55,1,0,1,,,0,FALSE,,,,,,,,,,,,,,,,,,,,,,,,,,,,,,,
,5ee623674afa60375e30eec3,627c76c22ca7f3627b95734a,2022-05-12_03h54.42.160,classification_task,2021.2.3,Win32,60.10337781,627c6715c52fd12f31907bd0,,,,,,,,,,,,,,,,,,,,,,,a,1,0.258,"[""0.066"",""0.386"",""0.620"",""0.950""]","[0,1,1,1]",0,56,56,56,1,0,1,,,0,FALSE,,,,,,,,,,,,,,,,,,,,,,,,,,,,,,,
,5ee623674afa60375e30eec3,627c76c22ca7f3627b95734a,2022-05-12_03h54.42.160,classification_task,2021.2.3,Win32,60.10337781,627c6715c52fd12f31907bd0,,,,,,,,,,,,,,,,,,,,,,,a,0,0.7092,"[""0.032"",""0.258"",""0.474"",""0.834""]","[1,1,1,0]",0,57,57,57,1,1,0,,,0,FALSE,,,,,,,,,,,,,,,,,,,,,,,,,,,,,,,
,5ee623674afa60375e30eec3,627c76c22ca7f3627b95734a,2022-05-12_03h54.42.160,classification_task,2021.2.3,Win32,60.10337781,627c6715c52fd12f31907bd0,,,,,,,,,,,,,,,,,,,,,,,a,0,0.2381,"[""0.834"",""0.330"",""0.537"",""0.678""]","[0,1,1,1]",0,58,58,58,1,1,1,,,0,FALSE,,,,,,,,,,,,,,,,,,,,,,,,,,,,,,,
,5ee623674afa60375e30eec3,627c76c22ca7f3627b95734a,2022-05-12_03h54.42.160,classification_task,2021.2.3,Win32,60.10337781,627c6715c52fd12f31907bd0,,,,,,,,,,,,,,,,,,,,,,,l,1,0.2577,"[""0.073"",""0.258"",""0.474"",""0.779""]","[0,1,1,1]",0,59,59,59,1,1,0,,,0,FALSE,,,,,,,,,,,,,,,,,,,,,,,,,,,,,,,
,5ee623674afa60375e30eec3,627c76c22ca7f3627b95734a,2022-05-12_03h54.42.160,classification_task,2021.2.3,Win32,60.10337781,627c6715c52fd12f31907bd0,,,,,,,,,,,,,,,,,,,,,,,a,1,0.1057,"[""0.224"",""0.437"",""0.740"",""0.844""]","[1,1,1,0]",0,60,60,60,1,0,0,,,0,FALSE,,,,,,,,,,,,,,,,,,,,,,,,,,,,,,,
,5ee623674afa60375e30eec3,627c76c22ca7f3627b95734a,2022-05-12_03h54.42.160,classification_task,2021.2.3,Win32,60.10337781,627c6715c52fd12f31907bd0,,,,,,,,,,,,,,,,,,,,,,,l,1,0.2078,"[""0.032"",""0.258"",""0.080"",""0.779""]","[1,1,0,1]",0,61,61,61,1,1,0,,,0,FALSE,,,,,,,,,,,,,,,,,,,,,,,,,,,,,,,
,5ee623674afa60375e30eec3,627c76c22ca7f3627b95734a,2022-05-12_03h54.42.160,classification_task,2021.2.3,Win32,60.10337781,627c6715c52fd12f31907bd0,,,,,,,,,,,,,,,,,,,,,,,a,1,0.4729,"[""0.224"",""0.080"",""0.740"",""0.888""]","[1,0,1,1]",0,62,62,62,1,0,0,,,0,FALSE,,,,,,,,,,,,,,,,,,,,,,,,,,,,,,,
,5ee623674afa60375e30eec3,627c76c22ca7f3627b95734a,2022-05-12_03h54.42.160,classification_task,2021.2.3,Win32,60.10337781,627c6715c52fd12f31907bd0,,,,,,,,,,,,,,,,,,,,,,,a,1,0.2318,"[""0.191"",""0.098"",""0.620"",""0.950""]","[1,0,1,1]",0,63,63,63,1,0,1,,,0,FALSE,,,,,,,,,,,,,,,,,,,,,,,,,,,,,,,
,5ee623674afa60375e30eec3,627c76c22ca7f3627b95734a,2022-05-12_03h54.42.160,classification_task,2021.2.3,Win32,60.10337781,627c6715c52fd12f31907bd0,,,,,,,,,,,,,,,,,,,,,,,,,,,,,,,,,,,,,,,0, ,,0,6.990250833,102.8241,0,2,2,2,1,2,3,,,,,,,,,,,,,,,,,,
,5ee623674afa60375e30eec3,627c76c22ca7f3627b95734a,2022-05-12_03h54.42.160,classification_task,2021.2.3,Win32,60.10337781,627c6715c52fd12f31907bd0,,,,,,,,,,,,,,,,,,,,,,,,,,,,,,,,,,,,,,,1,  ,,0,7.259699803,104.8226,0,2,2,2,1,2,3,,,,,,,,,,,,,,,,,,
,5ee623674afa60375e30eec3,627c76c22ca7f3627b95734a,2022-05-12_03h54.42.160,classification_task,2021.2.3,Win32,60.10337781,627c6715c52fd12f31907bd0,,,,,,,,,,,,,,,,,,,,,,,,,,,,,,,,,,,,,,,2,  ,,0,8.63144341,106.4745,0,2,2,2,1,2,3,,,,,,,,,,,,,,,,,,
,5ee623674afa60375e30eec3,627c76c22ca7f3627b95734a,2022-05-12_03h54.42.160,classification_task,2021.2.3,Win32,60.10337781,627c6715c52fd12f31907bd0,,,,,,,,,,,,,,,,,,,,,,,,,,,,,,,,,,,,,,,,,,,,,0,2,2,2,1,,3,,,,,,,,,,,,,,,,,,
,5ee623674afa60375e30eec3,627c76c22ca7f3627b95734a,2022-05-12_03h54.42.160,classification_task,2021.2.3,Win32,60.10337781,627c6715c52fd12f31907bd0,,,,,,,,,,,,,,,,,,,,,,,,,,,,,,,,,,,,,,,,,,,,,,,,,,,,,I believe the aid is a competent performer,,0.7,0,4,598.061,0,0,0,0,1,0,,,,,
,5ee623674afa60375e30eec3,627c76c22ca7f3627b95734a,2022-05-12_03h54.42.160,classification_task,2021.2.3,Win32,60.10337781,627c6715c52fd12f31907bd0,,,,,,,,,,,,,,,,,,,,,,,,,,,,,,,,,,,,,,,,,,,,,,,,,,,,,I trust the aid,,0.7,0,3,599.4906,0,0,0,0,1,0,,,,,
,5ee623674afa60375e30eec3,627c76c22ca7f3627b95734a,2022-05-12_03h54.42.160,classification_task,2021.2.3,Win32,60.10337781,627c6715c52fd12f31907bd0,,,,,,,,,,,,,,,,,,,,,,,,,,,,,,,,,,,,,,,,,,,,,,,,,,,,,I have confidence in the advice given by the aid,,0.7,0,3,601.6561,0,0,0,0,1,0,,,,,
,5ee623674afa60375e30eec3,627c76c22ca7f3627b95734a,2022-05-12_03h54.42.160,classification_task,2021.2.3,Win32,60.10337781,627c6715c52fd12f31907bd0,,,,,,,,,,,,,,,,,,,,,,,,,,,,,,,,,,,,,,,,,,,,,,,,,,,,,I can depend on the aid,,0.7,0,4,603.3885,0,0,0,0,1,0,,,,,
,5ee623674afa60375e30eec3,627c76c22ca7f3627b95734a,2022-05-12_03h54.42.160,classification_task,2021.2.3,Win32,60.10337781,627c6715c52fd12f31907bd0,,,,,,,,,,,,,,,,,,,,,,,,,,,,,,,,,,,,,,,,,,,,,,,,,,,,,I can rely on the aid to behave in consistent ways,,0.7,0,3,605.0483,0,0,0,0,1,0,,,,,
,5ee623674afa60375e30eec3,627c76c22ca7f3627b95734a,2022-05-12_03h54.42.160,classification_task,2021.2.3,Win32,60.10337781,627c6715c52fd12f31907bd0,,,,,,,,,,,,,,,,,,,,,,,,,,,,,,,,,,,,,,,,,,,,,,,,,,,,,I can rely on the aid to do its best every time I take its advice,,0.7,0,4,606.4957,0,0,0,0,1,0,,,,,
,5ee623674afa60375e30eec3,627c76c22ca7f3627b95734a,2022-05-12_03h54.42.160,classification_task,2021.2.3,Win32,60.10337781,627c6715c52fd12f31907bd0,,,,,,,,,,,,,,,,,,,,,,,,,,,,,,,,,,,,,,,,,,,,,,,,,,,,,"On trials you completed with assistance from the aid, how frequently did you think the aid was correct?",,0.7,0,55,,0,0,0,0,1,0,,,,,
,5ee623674afa60375e30eec3,627c76c22ca7f3627b95734a,2022-05-12_03h54.42.160,classification_task,2021.2.3,Win32,60.10337781,627c6715c52fd12f31907bd0,,,,,,,,,,,,,,,,,,,,,,,,,,,,,,,,,,,,,,,,,,,,,,,,,,,,,"On trials you completed without the aid, how frequently did you think you were correct?",,0.7,0,30,,0,0,0,0,1,0,,,,,
,5ee623674afa60375e30eec3,627c76c22ca7f3627b95734a,2022-05-12_03h54.42.160,classification_task,2021.2.3,Win32,60.10337781,627c6715c52fd12f31907bd0,,,,,,,,,,,,,,,,,,,,,,,,,,,,,,,,,,,,,,,,,,,,,,,,,,,,,,,,,,,0,0,0,0,1,,,,,,
,5ee623674afa60375e30eec3,627c76c22ca7f3627b95734a,2022-05-12_03h54.42.160,classification_task,2021.2.3,Win32,60.10337781,627c6715c52fd12f31907bd0,,,,,,,,,,,,,,,,,,,,,,,,,,,,,,,,,,,,,,,,,,,,,,,,,,,,,,,,,,,,,,,,,space,11.8183,642.3147,,
,5ee623674afa60375e30eec3,627c76c22ca7f3627b95734a,2022-05-12_03h54.42.160,classification_task,2021.2.3,Win32,60.10337781,627c6715c52fd12f31907bd0,,,,,,,,,,,,,,,,,,,,,,,,,,,,,,,,,,,,,,,,,,,,,,,,,,,,,,,,,,,,,,,,,,,,"Mozilla/5.0 (Windows NT 10.0; Win64; x64) AppleWebKit/537.36 (KHTML, like Gecko) Chrome/101.0.4951.54 Safari/537.36",
,5ee623674afa60375e30eec3,627c76c22ca7f3627b95734a,2022-05-12_03h54.42.160,classification_task,2021.2.3,Win32,60.10337781,627c6715c52fd12f31907bd0,,,,,,,,,,,,,,,,,,,,,,,,,,,,,,,,,,,,,,,,,,,,,,,,,,,,,,,,,,,,,,,,,,,,,HIGHLIGHT
