usingWebGL,participant,session,date,expName,psychopyVersion,OS,frameRate,study_id,signatures_friend,signatures_foe,band_ranges_top,band_ranges_bottom,formitemText,formtype,formundefined,formitemWidth,formindex,formresponse,formrt,key_resp_2.keys,key_resp_2.rt,tute_resp.keys,tute_resp.rt,tutorial.thisRepN,tutorial.thisTrialN,tutorial.thisN,tutorial.thisIndex,tutorial.ran,key_resp_4.keys,key_resp_4.rt,key_resp.keys,key_resp.corr,key_resp.rt,lines_presented,is_signal_presented,trials.thisRepN,trials.thisTrialN,trials.thisN,trials.thisIndex,trials.ran,vessel,active_band,lines,is_signal,supported_pos,catch_trial,debrief_formindex,debrief_formitemText,debrief_formtype,debrief_formitemWidth,debrief_formresponse,debrief_formrt,phases.thisRepN,phases.thisTrialN,phases.thisN,phases.thisIndex,phases.ran,phases.order,phase,key_resp_3.keys,trustitemText,trusttype,trustitemWidth,trustindex,trustresponse,trustrt,support_status.thisRepN,support_status.thisTrialN,support_status.thisN,support_status.thisIndex,support_status.ran,support_status.order,key_resp_5.keys,key_resp_5.rt,globalClockTime,userAgent,manualCondition
TRUE,5ee9e12423e2ad000ba4fe15,627c6f2c3e017b614d3526c7,2022-05-11_22h33.59.259,classification_task,2021.2.3,Win32,143.9677512,627c6715c52fd12f31907bcf,,,,,,,,,,,,,,,,,,,,,,,,,,,,,,,,,,,,,,,,,,,,,,,,,,,,,,,,,,,,,,,,,,,,,
,5ee9e12423e2ad000ba4fe15,627c6f2c3e017b614d3526c7,2022-05-11_22h33.59.259,classification_task,2021.2.3,Win32,143.9677512,627c6715c52fd12f31907bcf,"[[""0.268"",""0.411"",""0.839"",""0.970""],[""0.324"",""0.511"",""0.897"",""0.934""]]","[[""0.156"",""0.224"",""0.625"",""0.779""],[""0.121"",""0.190"",""0.545"",""0.734""]]","[1,10]","[100,1000]",Video game experience,,,0.7,0,,,,,,,,,,,,,,,,,,,,,,,,,,,,,,,,,,,,,,,,,,,,,,,,,,,,,,,,,,,,
,5ee9e12423e2ad000ba4fe15,627c6f2c3e017b614d3526c7,2022-05-11_22h33.59.259,classification_task,2021.2.3,Win32,143.9677512,627c6715c52fd12f31907bcf,,,,,Approximately how many hours did you spend playing video games in the last week?,,,0.7,0,22,,,,,,,,,,,,,,,,,,,,,,,,,,,,,,,,,,,,,,,,,,,,,,,,,,,,,,,,,,,
,5ee9e12423e2ad000ba4fe15,627c6f2c3e017b614d3526c7,2022-05-11_22h33.59.259,classification_task,2021.2.3,Win32,143.9677512,627c6715c52fd12f31907bcf,,,,,"Which game did you play the most this year? (Enter ""None"" if you didn't play any)",,,0.7,0,Apex Legends,,,,,,,,,,,,,,,,,,,,,,,,,,,,,,,,,,,,,,,,,,,,,,,,,,,,,,,,,,,
,5ee9e12423e2ad000ba4fe15,627c6f2c3e017b614d3526c7,2022-05-11_22h33.59.259,classification_task,2021.2.3,Win32,143.9677512,627c6715c52fd12f31907bcf,,,,,Visual perception,,,0.7,0,,,,,,,,,,,,,,,,,,,,,,,,,,,,,,,,,,,,,,,,,,,,,,,,,,,,,,,,,,,,
,5ee9e12423e2ad000ba4fe15,627c6f2c3e017b614d3526c7,2022-05-11_22h33.59.259,classification_task,2021.2.3,Win32,143.9677512,627c6715c52fd12f31907bcf,,,,,Do you have any form of color blindness?,,,0.7,0,No,35.2257,,,,,,,,,,,,,,,,,,,,,,,,,,,,,,,,,,,,,,,,,,,,,,,,,,,,,,,,,,
,5ee9e12423e2ad000ba4fe15,627c6f2c3e017b614d3526c7,2022-05-11_22h33.59.259,classification_task,2021.2.3,Win32,143.9677512,627c6715c52fd12f31907bcf,,,,,Do you use software to change the colour temperature of your screen (e.g. f.lux)?,,,0.7,0,No,37.5673,,,,,,,,,,,,,,,,,,,,,,,,,,,,,,,,,,,,,,,,,,,,,,,,,,,,,,,,,,
,5ee9e12423e2ad000ba4fe15,627c6f2c3e017b614d3526c7,2022-05-11_22h33.59.259,classification_task,2021.2.3,Win32,143.9677512,627c6715c52fd12f31907bcf,,,,,,,,,,,,space,28.604,space,9.3126,0,0,0,0,1,,,,,,,,,,,,,,,,,,,,,,,,,,,,,,,,,,,,,,,,,,,,,,,,,
,5ee9e12423e2ad000ba4fe15,627c6f2c3e017b614d3526c7,2022-05-11_22h33.59.259,classification_task,2021.2.3,Win32,143.9677512,627c6715c52fd12f31907bcf,,,,,,,,,,,,,,space,7.5476,1,0,1,0,1,,,,,,,,,,,,,,,,,,,,,,,,,,,,,,,,,,,,,,,,,,,,,,,,,
,5ee9e12423e2ad000ba4fe15,627c6f2c3e017b614d3526c7,2022-05-11_22h33.59.259,classification_task,2021.2.3,Win32,143.9677512,627c6715c52fd12f31907bcf,,,,,,,,,,,,,,space,36.058,2,0,2,0,1,,,,,,,,,,,,,,,,,,,,,,,,,,,,,,,,,,,,,,,,,,,,,,,,,
,5ee9e12423e2ad000ba4fe15,627c6f2c3e017b614d3526c7,2022-05-11_22h33.59.259,classification_task,2021.2.3,Win32,143.9677512,627c6715c52fd12f31907bcf,,,,,,,,,,,,,,space,4.9192,3,0,3,0,1,,,,,,,,,,,,,,,,,,,,,,,,,,,,,,,,,,,,,,,,,,,,,,,,,
,5ee9e12423e2ad000ba4fe15,627c6f2c3e017b614d3526c7,2022-05-11_22h33.59.259,classification_task,2021.2.3,Win32,143.9677512,627c6715c52fd12f31907bcf,,,,,,,,,,,,,,space,8.8455,4,0,4,0,1,,,,,,,,,,,,,,,,,,,,,,,,,,,,,,,,,,,,,,,,,,,,,,,,,
,5ee9e12423e2ad000ba4fe15,627c6f2c3e017b614d3526c7,2022-05-11_22h33.59.259,classification_task,2021.2.3,Win32,143.9677512,627c6715c52fd12f31907bcf,,,,,,,,,,,,,,,,,,,,,space,18.2572,l,0,4.1004,"[""0.043"",""0.411"",""0.839"",""0.970""]","[0,1,1,1]",0,0,0,0,1,0,0,,,1,FALSE,,,,,,,,,,,,,,,,,,,,,,,,,,,,,,,
,5ee9e12423e2ad000ba4fe15,627c6f2c3e017b614d3526c7,2022-05-11_22h33.59.259,classification_task,2021.2.3,Win32,143.9677512,627c6715c52fd12f31907bcf,,,,,,,,,,,,,,,,,,,,,,,a,1,6.3827,"[""0.268"",""0.411"",""0.839"",""0.680""]","[1,1,1,0]",0,1,1,1,1,0,0,,,1,FALSE,,,,,,,,,,,,,,,,,,,,,,,,,,,,,,,
,5ee9e12423e2ad000ba4fe15,627c6f2c3e017b614d3526c7,2022-05-11_22h33.59.259,classification_task,2021.2.3,Win32,143.9677512,627c6715c52fd12f31907bcf,,,,,,,,,,,,,,,,,,,,,,,l,1,8.3312,"[""0.156"",""0.224"",""0.625"",""0.579""]","[1,1,1,0]",0,2,2,2,1,1,0,,,1,FALSE,,,,,,,,,,,,,,,,,,,,,,,,,,,,,,,
,5ee9e12423e2ad000ba4fe15,627c6f2c3e017b614d3526c7,2022-05-11_22h33.59.259,classification_task,2021.2.3,Win32,143.9677512,627c6715c52fd12f31907bcf,,,,,,,,,,,,,,,,,,,,,,,l,1,5.2009,"[""0.121"",""0.190"",""0.579"",""0.734""]","[1,1,0,1]",0,3,3,3,1,1,1,,,1,FALSE,,,,,,,,,,,,,,,,,,,,,,,,,,,,,,,
,5ee9e12423e2ad000ba4fe15,627c6f2c3e017b614d3526c7,2022-05-11_22h33.59.259,classification_task,2021.2.3,Win32,143.9677512,627c6715c52fd12f31907bcf,,,,,,,,,,,,,,,,,,,,,,,a,1,6.1627,"[""0.324"",""0.511"",""0.897"",""0.700""]","[1,1,1,0]",0,4,4,4,1,0,1,,,1,FALSE,,,,,,,,,,,,,,,,,,,,,,,,,,,,,,,
,5ee9e12423e2ad000ba4fe15,627c6f2c3e017b614d3526c7,2022-05-11_22h33.59.259,classification_task,2021.2.3,Win32,143.9677512,627c6715c52fd12f31907bcf,,,,,,,,,,,,,,,,,,,,,,,l,1,6.9792,"[""0.156"",""0.224"",""0.579"",""0.779""]","[1,1,0,1]",0,5,5,5,1,1,0,,,1,FALSE,,,,,,,,,,,,,,,,,,,,,,,,,,,,,,,
,5ee9e12423e2ad000ba4fe15,627c6f2c3e017b614d3526c7,2022-05-11_22h33.59.259,classification_task,2021.2.3,Win32,143.9677512,627c6715c52fd12f31907bcf,,,,,,,,,,,,,,,,,,,,,,,a,1,6.6205,"[""0.039"",""0.511"",""0.897"",""0.934""]","[0,1,1,1]",0,6,6,6,1,0,1,,,1,FALSE,,,,,,,,,,,,,,,,,,,,,,,,,,,,,,,
,5ee9e12423e2ad000ba4fe15,627c6f2c3e017b614d3526c7,2022-05-11_22h33.59.259,classification_task,2021.2.3,Win32,143.9677512,627c6715c52fd12f31907bcf,,,,,,,,,,,,,,,,,,,,,,,a,1,6.7518,"[""0.268"",""0.411"",""0.063"",""0.970""]","[1,1,0,1]",0,7,7,7,1,0,0,,,1,FALSE,,,,,,,,,,,,,,,,,,,,,,,,,,,,,,,
,5ee9e12423e2ad000ba4fe15,627c6f2c3e017b614d3526c7,2022-05-11_22h33.59.259,classification_task,2021.2.3,Win32,143.9677512,627c6715c52fd12f31907bcf,,,,,,,,,,,,,,,,,,,,,,,l,1,2.7381,"[""0.156"",""0.579"",""0.625"",""0.779""]","[1,0,1,1]",0,8,8,8,1,1,0,,,1,FALSE,,,,,,,,,,,,,,,,,,,,,,,,,,,,,,,
,5ee9e12423e2ad000ba4fe15,627c6f2c3e017b614d3526c7,2022-05-11_22h33.59.259,classification_task,2021.2.3,Win32,143.9677512,627c6715c52fd12f31907bcf,,,,,,,,,,,,,,,,,,,,,,,a,1,2.6698,"[""0.324"",""0.511"",""0.680"",""0.934""]","[1,1,0,1]",0,9,9,9,1,0,1,,,1,FALSE,,,,,,,,,,,,,,,,,,,,,,,,,,,,,,,
,5ee9e12423e2ad000ba4fe15,627c6f2c3e017b614d3526c7,2022-05-11_22h33.59.259,classification_task,2021.2.3,Win32,143.9677512,627c6715c52fd12f31907bcf,,,,,,,,,,,,,,,,,,,,,,,a,1,5.5618,"[""0.268"",""0.039"",""0.839"",""0.970""]","[1,0,1,1]",0,10,10,10,1,0,0,,,1,FALSE,,,,,,,,,,,,,,,,,,,,,,,,,,,,,,,
,5ee9e12423e2ad000ba4fe15,627c6f2c3e017b614d3526c7,2022-05-11_22h33.59.259,classification_task,2021.2.3,Win32,143.9677512,627c6715c52fd12f31907bcf,,,,,,,,,,,,,,,,,,,,,,,l,1,3.1256,"[""0.357"",""0.190"",""0.545"",""0.734""]","[0,1,1,1]",0,11,11,11,1,1,1,,,1,FALSE,,,,,,,,,,,,,,,,,,,,,,,,,,,,,,,
,5ee9e12423e2ad000ba4fe15,627c6f2c3e017b614d3526c7,2022-05-11_22h33.59.259,classification_task,2021.2.3,Win32,143.9677512,627c6715c52fd12f31907bcf,,,,,,,,,,,,,,,,,,,,,,,l,1,5.1675,"[""0.043"",""0.224"",""0.625"",""0.779""]","[0,1,1,1]",0,12,12,12,1,1,0,,,1,FALSE,,,,,,,,,,,,,,,,,,,,,,,,,,,,,,,
,5ee9e12423e2ad000ba4fe15,627c6f2c3e017b614d3526c7,2022-05-11_22h33.59.259,classification_task,2021.2.3,Win32,143.9677512,627c6715c52fd12f31907bcf,,,,,,,,,,,,,,,,,,,,,,,l,1,5.2161,"[""0.121"",""0.357"",""0.545"",""0.734""]","[1,0,1,1]",0,13,13,13,1,1,1,,,1,FALSE,,,,,,,,,,,,,,,,,,,,,,,,,,,,,,,
,5ee9e12423e2ad000ba4fe15,627c6f2c3e017b614d3526c7,2022-05-11_22h33.59.259,classification_task,2021.2.3,Win32,143.9677512,627c6715c52fd12f31907bcf,,,,,,,,,,,,,,,,,,,,,,,l,1,4.7244,"[""0.121"",""0.190"",""0.545"",""0.039""]","[1,1,1,0]",0,14,14,14,1,1,1,,,1,FALSE,,,,,,,,,,,,,,,,,,,,,,,,,,,,,,,
,5ee9e12423e2ad000ba4fe15,627c6f2c3e017b614d3526c7,2022-05-11_22h33.59.259,classification_task,2021.2.3,Win32,143.9677512,627c6715c52fd12f31907bcf,,,,,,,,,,,,,,,,,,,,,,,a,1,2.0922,"[""0.324"",""0.036"",""0.897"",""0.934""]","[1,0,1,1]",0,15,15,15,1,0,1,,,1,FALSE,,,,,,,,,,,,,,,,,,,,,,,,,,,,,,,
,5ee9e12423e2ad000ba4fe15,627c6f2c3e017b614d3526c7,2022-05-11_22h33.59.259,classification_task,2021.2.3,Win32,143.9677512,627c6715c52fd12f31907bcf,,,,,,,,,,,,,,,,,,,,,,,l,1,2.1725,"[""0.156"",""0.224"",""0.463"",""0.779""]","[1,1,0,1]",0,16,16,16,1,1,0,,,1,FALSE,,,,,,,,,,,,,,,,,,,,,,,,,,,,,,,
,5ee9e12423e2ad000ba4fe15,627c6f2c3e017b614d3526c7,2022-05-11_22h33.59.259,classification_task,2021.2.3,Win32,143.9677512,627c6715c52fd12f31907bcf,,,,,,,,,,,,,,,,,,,,,,,l,1,1.8564,"[""0.357"",""0.224"",""0.625"",""0.779""]","[0,1,1,1]",0,17,17,17,1,1,0,,,1,FALSE,,,,,,,,,,,,,,,,,,,,,,,,,,,,,,,
,5ee9e12423e2ad000ba4fe15,627c6f2c3e017b614d3526c7,2022-05-11_22h33.59.259,classification_task,2021.2.3,Win32,143.9677512,627c6715c52fd12f31907bcf,,,,,,,,,,,,,,,,,,,,,,,a,1,1.6863,"[""0.324"",""0.511"",""0.463"",""0.934""]","[1,1,0,1]",0,18,18,18,1,0,1,,,1,FALSE,,,,,,,,,,,,,,,,,,,,,,,,,,,,,,,
,5ee9e12423e2ad000ba4fe15,627c6f2c3e017b614d3526c7,2022-05-11_22h33.59.259,classification_task,2021.2.3,Win32,143.9677512,627c6715c52fd12f31907bcf,,,,,,,,,,,,,,,,,,,,,,,l,1,1.8545,"[""0.156"",""0.224"",""0.625"",""0.584""]","[1,1,1,0]",0,19,19,19,1,1,0,,,1,FALSE,,,,,,,,,,,,,,,,,,,,,,,,,,,,,,,
,5ee9e12423e2ad000ba4fe15,627c6f2c3e017b614d3526c7,2022-05-11_22h33.59.259,classification_task,2021.2.3,Win32,143.9677512,627c6715c52fd12f31907bcf,,,,,,,,,,,,,,,,,,,,,,,l,1,3.5992,"[""0.156"",""0.357"",""0.625"",""0.779""]","[1,0,1,1]",0,20,20,20,1,1,0,,,1,FALSE,,,,,,,,,,,,,,,,,,,,,,,,,,,,,,,
,5ee9e12423e2ad000ba4fe15,627c6f2c3e017b614d3526c7,2022-05-11_22h33.59.259,classification_task,2021.2.3,Win32,143.9677512,627c6715c52fd12f31907bcf,,,,,,,,,,,,,,,,,,,,,,,l,0,2.1666,"[""0.677"",""0.511"",""0.897"",""0.934""]","[0,1,1,1]",0,21,21,21,1,0,1,,,1,FALSE,,,,,,,,,,,,,,,,,,,,,,,,,,,,,,,
,5ee9e12423e2ad000ba4fe15,627c6f2c3e017b614d3526c7,2022-05-11_22h33.59.259,classification_task,2021.2.3,Win32,143.9677512,627c6715c52fd12f31907bcf,,,,,,,,,,,,,,,,,,,,,,,l,0,2.064,"[""0.268"",""0.411"",""0.039"",""0.970""]","[1,1,0,1]",0,22,22,22,1,0,0,,,1,FALSE,,,,,,,,,,,,,,,,,,,,,,,,,,,,,,,
,5ee9e12423e2ad000ba4fe15,627c6f2c3e017b614d3526c7,2022-05-11_22h33.59.259,classification_task,2021.2.3,Win32,143.9677512,627c6715c52fd12f31907bcf,,,,,,,,,,,,,,,,,,,,,,,a,1,5.9383,"[""0.324"",""0.579"",""0.897"",""0.934""]","[1,0,1,1]",0,23,23,23,1,0,1,,,1,FALSE,,,,,,,,,,,,,,,,,,,,,,,,,,,,,,,
,5ee9e12423e2ad000ba4fe15,627c6f2c3e017b614d3526c7,2022-05-11_22h33.59.259,classification_task,2021.2.3,Win32,143.9677512,627c6715c52fd12f31907bcf,,,,,,,,,,,,,,,,,,,,,,,l,1,5.3995,"[""0.121"",""0.190"",""0.075"",""0.734""]","[1,1,0,1]",0,24,24,24,1,1,1,,,1,FALSE,,,,,,,,,,,,,,,,,,,,,,,,,,,,,,,
,5ee9e12423e2ad000ba4fe15,627c6f2c3e017b614d3526c7,2022-05-11_22h33.59.259,classification_task,2021.2.3,Win32,143.9677512,627c6715c52fd12f31907bcf,,,,,,,,,,,,,,,,,,,,,,,a,1,4.0628,"[""0.677"",""0.411"",""0.839"",""0.970""]","[0,1,1,1]",0,25,25,25,1,0,0,,,1,FALSE,,,,,,,,,,,,,,,,,,,,,,,,,,,,,,,
,5ee9e12423e2ad000ba4fe15,627c6f2c3e017b614d3526c7,2022-05-11_22h33.59.259,classification_task,2021.2.3,Win32,143.9677512,627c6715c52fd12f31907bcf,,,,,,,,,,,,,,,,,,,,,,,l,1,5.2649,"[""0.121"",""0.075"",""0.545"",""0.734""]","[1,0,1,1]",0,26,26,26,1,1,1,,,1,FALSE,,,,,,,,,,,,,,,,,,,,,,,,,,,,,,,
,5ee9e12423e2ad000ba4fe15,627c6f2c3e017b614d3526c7,2022-05-11_22h33.59.259,classification_task,2021.2.3,Win32,143.9677512,627c6715c52fd12f31907bcf,,,,,,,,,,,,,,,,,,,,,,,a,1,3.6983,"[""0.268"",""0.411"",""0.839"",""0.063""]","[1,1,1,0]",0,27,27,27,1,0,0,,,1,FALSE,,,,,,,,,,,,,,,,,,,,,,,,,,,,,,,
,5ee9e12423e2ad000ba4fe15,627c6f2c3e017b614d3526c7,2022-05-11_22h33.59.259,classification_task,2021.2.3,Win32,143.9677512,627c6715c52fd12f31907bcf,,,,,,,,,,,,,,,,,,,,,,,l,1,5.4671,"[""0.700"",""0.190"",""0.545"",""0.734""]","[0,1,1,1]",0,28,28,28,1,1,1,,,1,FALSE,,,,,,,,,,,,,,,,,,,,,,,,,,,,,,,
,5ee9e12423e2ad000ba4fe15,627c6f2c3e017b614d3526c7,2022-05-11_22h33.59.259,classification_task,2021.2.3,Win32,143.9677512,627c6715c52fd12f31907bcf,,,,,,,,,,,,,,,,,,,,,,,a,1,3.0307,"[""0.268"",""0.039"",""0.839"",""0.970""]","[1,0,1,1]",0,29,29,29,1,0,0,,,1,FALSE,,,,,,,,,,,,,,,,,,,,,,,,,,,,,,,
,5ee9e12423e2ad000ba4fe15,627c6f2c3e017b614d3526c7,2022-05-11_22h33.59.259,classification_task,2021.2.3,Win32,143.9677512,627c6715c52fd12f31907bcf,,,,,,,,,,,,,,,,,,,,,,,a,1,2.3966,"[""0.324"",""0.511"",""0.897"",""0.671""]","[1,1,1,0]",0,30,30,30,1,0,1,,,1,FALSE,,,,,,,,,,,,,,,,,,,,,,,,,,,,,,,
,5ee9e12423e2ad000ba4fe15,627c6f2c3e017b614d3526c7,2022-05-11_22h33.59.259,classification_task,2021.2.3,Win32,143.9677512,627c6715c52fd12f31907bcf,,,,,,,,,,,,,,,,,,,,,,,l,1,2.9245,"[""0.121"",""0.190"",""0.545"",""0.452""]","[1,1,1,0]",0,31,31,31,1,1,1,,,1,FALSE,,,,,,,,,,,,,,,,,,,,,,,,,,,,,,,
,5ee9e12423e2ad000ba4fe15,627c6f2c3e017b614d3526c7,2022-05-11_22h33.59.259,classification_task,2021.2.3,Win32,143.9677512,627c6715c52fd12f31907bcf,,,,,,,,,,,,,,,,,,,,,,,l,1,3.4376,"[""0.156"",""0.043"",""0.625"",""0.779""]","[1,0,1,1]",0,32,32,32,1,1,0,,,1,FALSE,,,,,,,,,,,,,,,,,,,,,,,,,,,,,,,
,5ee9e12423e2ad000ba4fe15,627c6f2c3e017b614d3526c7,2022-05-11_22h33.59.259,classification_task,2021.2.3,Win32,143.9677512,627c6715c52fd12f31907bcf,,,,,,,,,,,,,,,,,,,,,,,l,1,3.7072,"[""0.121"",""0.190"",""0.357"",""0.734""]","[1,1,0,1]",0,33,33,33,1,1,1,,,1,FALSE,,,,,,,,,,,,,,,,,,,,,,,,,,,,,,,
,5ee9e12423e2ad000ba4fe15,627c6f2c3e017b614d3526c7,2022-05-11_22h33.59.259,classification_task,2021.2.3,Win32,143.9677512,627c6715c52fd12f31907bcf,,,,,,,,,,,,,,,,,,,,,,,l,0,2.3405,"[""0.324"",""0.511"",""0.579"",""0.934""]","[1,1,0,1]",0,34,34,34,1,0,1,,,1,FALSE,,,,,,,,,,,,,,,,,,,,,,,,,,,,,,,
,5ee9e12423e2ad000ba4fe15,627c6f2c3e017b614d3526c7,2022-05-11_22h33.59.259,classification_task,2021.2.3,Win32,143.9677512,627c6715c52fd12f31907bcf,,,,,,,,,,,,,,,,,,,,,,,a,1,3.4849,"[""0.268"",""0.411"",""0.063"",""0.970""]","[1,1,0,1]",0,35,35,35,1,0,0,,,1,FALSE,,,,,,,,,,,,,,,,,,,,,,,,,,,,,,,
,5ee9e12423e2ad000ba4fe15,627c6f2c3e017b614d3526c7,2022-05-11_22h33.59.259,classification_task,2021.2.3,Win32,143.9677512,627c6715c52fd12f31907bcf,,,,,,,,,,,,,,,,,,,,,,,l,1,1.2794,"[""0.156"",""0.224"",""0.625"",""0.036""]","[1,1,1,0]",0,36,36,36,1,1,0,,,1,FALSE,,,,,,,,,,,,,,,,,,,,,,,,,,,,,,,
,5ee9e12423e2ad000ba4fe15,627c6f2c3e017b614d3526c7,2022-05-11_22h33.59.259,classification_task,2021.2.3,Win32,143.9677512,627c6715c52fd12f31907bcf,,,,,,,,,,,,,,,,,,,,,,,a,1,0.8809,"[""0.268"",""0.411"",""0.839"",""0.680""]","[1,1,1,0]",0,37,37,37,1,0,0,,,1,FALSE,,,,,,,,,,,,,,,,,,,,,,,,,,,,,,,
,5ee9e12423e2ad000ba4fe15,627c6f2c3e017b614d3526c7,2022-05-11_22h33.59.259,classification_task,2021.2.3,Win32,143.9677512,627c6715c52fd12f31907bcf,,,,,,,,,,,,,,,,,,,,,,,l,1,0.6545,"[""0.584"",""0.190"",""0.545"",""0.734""]","[0,1,1,1]",0,38,38,38,1,1,1,,,1,FALSE,,,,,,,,,,,,,,,,,,,,,,,,,,,,,,,
,5ee9e12423e2ad000ba4fe15,627c6f2c3e017b614d3526c7,2022-05-11_22h33.59.259,classification_task,2021.2.3,Win32,143.9677512,627c6715c52fd12f31907bcf,,,,,,,,,,,,,,,,,,,,,,,a,1,0.8046,"[""0.324"",""0.036"",""0.897"",""0.934""]","[1,0,1,1]",0,39,39,39,1,0,1,,,1,FALSE,,,,,,,,,,,,,,,,,,,,,,,,,,,,,,,
,5ee9e12423e2ad000ba4fe15,627c6f2c3e017b614d3526c7,2022-05-11_22h33.59.259,classification_task,2021.2.3,Win32,143.9677512,627c6715c52fd12f31907bcf,,,,,,,,,,,,,,,,,,,,,,,a,1,0.599,"[""0.043"",""0.411"",""0.839"",""0.970""]","[0,1,1,1]",0,40,40,40,1,0,0,,,1,FALSE,,,,,,,,,,,,,,,,,,,,,,,,,,,,,,,
,5ee9e12423e2ad000ba4fe15,627c6f2c3e017b614d3526c7,2022-05-11_22h33.59.259,classification_task,2021.2.3,Win32,143.9677512,627c6715c52fd12f31907bcf,,,,,,,,,,,,,,,,,,,,,,,l,0,1.2281,"[""0.268"",""0.671"",""0.839"",""0.970""]","[1,0,1,1]",0,41,41,41,1,0,0,,,1,FALSE,,,,,,,,,,,,,,,,,,,,,,,,,,,,,,,
,5ee9e12423e2ad000ba4fe15,627c6f2c3e017b614d3526c7,2022-05-11_22h33.59.259,classification_task,2021.2.3,Win32,143.9677512,627c6715c52fd12f31907bcf,,,,,,,,,,,,,,,,,,,,,,,l,1,0.6475,"[""0.156"",""0.224"",""0.039"",""0.779""]","[1,1,0,1]",0,42,42,42,1,1,0,,,1,FALSE,,,,,,,,,,,,,,,,,,,,,,,,,,,,,,,
,5ee9e12423e2ad000ba4fe15,627c6f2c3e017b614d3526c7,2022-05-11_22h33.59.259,classification_task,2021.2.3,Win32,143.9677512,627c6715c52fd12f31907bcf,,,,,,,,,,,,,,,,,,,,,,,l,0,0.7558,"[""0.671"",""0.511"",""0.897"",""0.934""]","[0,1,1,1]",0,43,43,43,1,0,1,,,1,FALSE,,,,,,,,,,,,,,,,,,,,,,,,,,,,,,,
,5ee9e12423e2ad000ba4fe15,627c6f2c3e017b614d3526c7,2022-05-11_22h33.59.259,classification_task,2021.2.3,Win32,143.9677512,627c6715c52fd12f31907bcf,,,,,,,,,,,,,,,,,,,,,,,l,1,0.6962,"[""0.680"",""0.224"",""0.625"",""0.779""]","[0,1,1,1]",0,44,44,44,1,1,0,,,1,FALSE,,,,,,,,,,,,,,,,,,,,,,,,,,,,,,,
,5ee9e12423e2ad000ba4fe15,627c6f2c3e017b614d3526c7,2022-05-11_22h33.59.259,classification_task,2021.2.3,Win32,143.9677512,627c6715c52fd12f31907bcf,,,,,,,,,,,,,,,,,,,,,,,a,0,0.8323,"[""0.121"",""0.453"",""0.545"",""0.734""]","[1,0,1,1]",0,45,45,45,1,1,1,,,1,FALSE,,,,,,,,,,,,,,,,,,,,,,,,,,,,,,,
,5ee9e12423e2ad000ba4fe15,627c6f2c3e017b614d3526c7,2022-05-11_22h33.59.259,classification_task,2021.2.3,Win32,143.9677512,627c6715c52fd12f31907bcf,,,,,,,,,,,,,,,,,,,,,,,l,1,0.7448,"[""0.121"",""0.190"",""0.545"",""0.043""]","[1,1,1,0]",0,46,46,46,1,1,1,,,1,FALSE,,,,,,,,,,,,,,,,,,,,,,,,,,,,,,,
,5ee9e12423e2ad000ba4fe15,627c6f2c3e017b614d3526c7,2022-05-11_22h33.59.259,classification_task,2021.2.3,Win32,143.9677512,627c6715c52fd12f31907bcf,,,,,,,,,,,,,,,,,,,,,,,l,0,1.2907,"[""0.324"",""0.511"",""0.897"",""0.584""]","[1,1,1,0]",0,47,47,47,1,0,1,,,1,FALSE,,,,,,,,,,,,,,,,,,,,,,,,,,,,,,,
,5ee9e12423e2ad000ba4fe15,627c6f2c3e017b614d3526c7,2022-05-11_22h33.59.259,classification_task,2021.2.3,Win32,143.9677512,627c6715c52fd12f31907bcf,,,,,,,,,,,,,,,,,,,,,,,l,1,0.7169,"[""0.700"",""0.190"",""0.545"",""0.734""]","[0,1,1,1]",0,48,48,48,1,1,1,,,1,FALSE,,,,,,,,,,,,,,,,,,,,,,,,,,,,,,,
,5ee9e12423e2ad000ba4fe15,627c6f2c3e017b614d3526c7,2022-05-11_22h33.59.259,classification_task,2021.2.3,Win32,143.9677512,627c6715c52fd12f31907bcf,,,,,,,,,,,,,,,,,,,,,,,l,1,1.6032,"[""0.156"",""0.224"",""0.625"",""0.452""]","[1,1,1,0]",0,49,49,49,1,1,0,,,1,FALSE,,,,,,,,,,,,,,,,,,,,,,,,,,,,,,,
,5ee9e12423e2ad000ba4fe15,627c6f2c3e017b614d3526c7,2022-05-11_22h33.59.259,classification_task,2021.2.3,Win32,143.9677512,627c6715c52fd12f31907bcf,,,,,,,,,,,,,,,,,,,,,,,l,0,1.1099,"[""0.324"",""0.043"",""0.897"",""0.934""]","[1,0,1,1]",0,50,50,50,1,0,1,,,1,FALSE,,,,,,,,,,,,,,,,,,,,,,,,,,,,,,,
,5ee9e12423e2ad000ba4fe15,627c6f2c3e017b614d3526c7,2022-05-11_22h33.59.259,classification_task,2021.2.3,Win32,143.9677512,627c6715c52fd12f31907bcf,,,,,,,,,,,,,,,,,,,,,,,a,0,0.5902,"[""0.156"",""0.224"",""0.036"",""0.779""]","[1,1,0,1]",0,51,51,51,1,1,0,,,1,FALSE,,,,,,,,,,,,,,,,,,,,,,,,,,,,,,,
,5ee9e12423e2ad000ba4fe15,627c6f2c3e017b614d3526c7,2022-05-11_22h33.59.259,classification_task,2021.2.3,Win32,143.9677512,627c6715c52fd12f31907bcf,,,,,,,,,,,,,,,,,,,,,,,l,1,0.6809,"[""0.677"",""0.224"",""0.625"",""0.779""]","[0,1,1,1]",0,52,52,52,1,1,0,,,1,FALSE,,,,,,,,,,,,,,,,,,,,,,,,,,,,,,,
,5ee9e12423e2ad000ba4fe15,627c6f2c3e017b614d3526c7,2022-05-11_22h33.59.259,classification_task,2021.2.3,Win32,143.9677512,627c6715c52fd12f31907bcf,,,,,,,,,,,,,,,,,,,,,,,a,0,1.0893,"[""0.121"",""0.190"",""0.357"",""0.734""]","[1,1,0,1]",0,53,53,53,1,1,1,,,1,FALSE,,,,,,,,,,,,,,,,,,,,,,,,,,,,,,,
,5ee9e12423e2ad000ba4fe15,627c6f2c3e017b614d3526c7,2022-05-11_22h33.59.259,classification_task,2021.2.3,Win32,143.9677512,627c6715c52fd12f31907bcf,,,,,,,,,,,,,,,,,,,,,,,a,1,1.5837,"[""0.268"",""0.411"",""0.680"",""0.970""]","[1,1,0,1]",0,54,54,54,1,0,0,,,1,FALSE,,,,,,,,,,,,,,,,,,,,,,,,,,,,,,,
,5ee9e12423e2ad000ba4fe15,627c6f2c3e017b614d3526c7,2022-05-11_22h33.59.259,classification_task,2021.2.3,Win32,143.9677512,627c6715c52fd12f31907bcf,,,,,,,,,,,,,,,,,,,,,,,a,1,0.5643,"[""0.324"",""0.511"",""0.671"",""0.934""]","[1,1,0,1]",0,55,55,55,1,0,1,,,1,FALSE,,,,,,,,,,,,,,,,,,,,,,,,,,,,,,,
,5ee9e12423e2ad000ba4fe15,627c6f2c3e017b614d3526c7,2022-05-11_22h33.59.259,classification_task,2021.2.3,Win32,143.9677512,627c6715c52fd12f31907bcf,,,,,,,,,,,,,,,,,,,,,,,a,1,0.6185,"[""0.324"",""0.511"",""0.897"",""0.036""]","[1,1,1,0]",0,56,56,56,1,0,1,,,1,FALSE,,,,,,,,,,,,,,,,,,,,,,,,,,,,,,,
,5ee9e12423e2ad000ba4fe15,627c6f2c3e017b614d3526c7,2022-05-11_22h33.59.259,classification_task,2021.2.3,Win32,143.9677512,627c6715c52fd12f31907bcf,,,,,,,,,,,,,,,,,,,,,,,l,0,0.6379,"[""0.268"",""0.411"",""0.839"",""0.453""]","[1,1,1,0]",0,57,57,57,1,0,0,,,1,FALSE,,,,,,,,,,,,,,,,,,,,,,,,,,,,,,,
,5ee9e12423e2ad000ba4fe15,627c6f2c3e017b614d3526c7,2022-05-11_22h33.59.259,classification_task,2021.2.3,Win32,143.9677512,627c6715c52fd12f31907bcf,,,,,,,,,,,,,,,,,,,,,,,l,0,0.6406,"[""0.671"",""0.511"",""0.897"",""0.934""]","[0,1,1,1]",0,58,58,58,1,0,1,,,1,FALSE,,,,,,,,,,,,,,,,,,,,,,,,,,,,,,,
,5ee9e12423e2ad000ba4fe15,627c6f2c3e017b614d3526c7,2022-05-11_22h33.59.259,classification_task,2021.2.3,Win32,143.9677512,627c6715c52fd12f31907bcf,,,,,,,,,,,,,,,,,,,,,,,l,1,0.6518,"[""0.121"",""0.677"",""0.545"",""0.734""]","[1,0,1,1]",0,59,59,59,1,1,1,,,1,FALSE,,,,,,,,,,,,,,,,,,,,,,,,,,,,,,,
,5ee9e12423e2ad000ba4fe15,627c6f2c3e017b614d3526c7,2022-05-11_22h33.59.259,classification_task,2021.2.3,Win32,143.9677512,627c6715c52fd12f31907bcf,,,,,,,,,,,,,,,,,,,,,,,l,1,0.7448,"[""0.121"",""0.190"",""0.545"",""0.579""]","[1,1,1,0]",0,60,60,60,1,1,1,,,1,FALSE,,,,,,,,,,,,,,,,,,,,,,,,,,,,,,,
,5ee9e12423e2ad000ba4fe15,627c6f2c3e017b614d3526c7,2022-05-11_22h33.59.259,classification_task,2021.2.3,Win32,143.9677512,627c6715c52fd12f31907bcf,,,,,,,,,,,,,,,,,,,,,,,a,1,0.5903,"[""0.268"",""0.039"",""0.839"",""0.970""]","[1,0,1,1]",0,61,61,61,1,0,0,,,1,FALSE,,,,,,,,,,,,,,,,,,,,,,,,,,,,,,,
,5ee9e12423e2ad000ba4fe15,627c6f2c3e017b614d3526c7,2022-05-11_22h33.59.259,classification_task,2021.2.3,Win32,143.9677512,627c6715c52fd12f31907bcf,,,,,,,,,,,,,,,,,,,,,,,l,0,0.7282,"[""0.453"",""0.411"",""0.839"",""0.970""]","[0,1,1,1]",0,62,62,62,1,0,0,,,1,FALSE,,,,,,,,,,,,,,,,,,,,,,,,,,,,,,,
,5ee9e12423e2ad000ba4fe15,627c6f2c3e017b614d3526c7,2022-05-11_22h33.59.259,classification_task,2021.2.3,Win32,143.9677512,627c6715c52fd12f31907bcf,,,,,,,,,,,,,,,,,,,,,,,l,1,0.5558,"[""0.156"",""0.579"",""0.625"",""0.779""]","[1,0,1,1]",0,63,63,63,1,1,0,,,1,FALSE,,,,,,,,,,,,,,,,,,,,,,,,,,,,,,,
,5ee9e12423e2ad000ba4fe15,627c6f2c3e017b614d3526c7,2022-05-11_22h33.59.259,classification_task,2021.2.3,Win32,143.9677512,627c6715c52fd12f31907bcf,,,,,,,,,,,,,,,,,,,,,,,,,,,,,,,,,,,,,,,0, ,,0,8.257887517,409.5341,0,0,0,0,1,2,1,,,,,,,,,,,,,,,,,,
,5ee9e12423e2ad000ba4fe15,627c6f2c3e017b614d3526c7,2022-05-11_22h33.59.259,classification_task,2021.2.3,Win32,143.9677512,627c6715c52fd12f31907bcf,,,,,,,,,,,,,,,,,,,,,,,,,,,,,,,,,,,,,,,1,  ,,0,6.714677641,414.707,0,0,0,0,1,2,1,,,,,,,,,,,,,,,,,,
,5ee9e12423e2ad000ba4fe15,627c6f2c3e017b614d3526c7,2022-05-11_22h33.59.259,classification_task,2021.2.3,Win32,143.9677512,627c6715c52fd12f31907bcf,,,,,,,,,,,,,,,,,,,,,,,,,,,,,,,,,,,,,,,2,  ,,0,6.886145405,421.2176,0,0,0,0,1,2,1,,,,,,,,,,,,,,,,,,
,5ee9e12423e2ad000ba4fe15,627c6f2c3e017b614d3526c7,2022-05-11_22h33.59.259,classification_task,2021.2.3,Win32,143.9677512,627c6715c52fd12f31907bcf,,,,,,,,,,,,,,,,,,,,,,,,,,,,,,,,,,,,,,,,,,,,,0,0,0,0,1,,1,,,,,,,,,,,,,,,,,,
,5ee9e12423e2ad000ba4fe15,627c6f2c3e017b614d3526c7,2022-05-11_22h33.59.259,classification_task,2021.2.3,Win32,143.9677512,627c6715c52fd12f31907bcf,,,,,,,,,,,,,,,,,,,,,space,22.0806,a,1,0.9358,"[""0.324"",""0.579"",""0.897"",""0.934""]","[1,0,1,1]",0,0,0,0,1,0,1,,,1,FALSE,,,,,,,,,,,,,,,,,,,,,,,,,,,,,,,
,5ee9e12423e2ad000ba4fe15,627c6f2c3e017b614d3526c7,2022-05-11_22h33.59.259,classification_task,2021.2.3,Win32,143.9677512,627c6715c52fd12f31907bcf,,,,,,,,,,,,,,,,,,,,,,,l,1,0.4297,"[""0.121"",""0.190"",""0.545"",""0.043""]","[1,1,1,0]",0,1,1,1,1,1,1,,,1,FALSE,,,,,,,,,,,,,,,,,,,,,,,,,,,,,,,
,5ee9e12423e2ad000ba4fe15,627c6f2c3e017b614d3526c7,2022-05-11_22h33.59.259,classification_task,2021.2.3,Win32,143.9677512,627c6715c52fd12f31907bcf,,,,,,,,,,,,,,,,,,,,,,,a,0,3.0642,"[""0.156"",""0.453"",""0.625"",""0.779""]","[1,0,1,1]",0,2,2,2,1,1,0,,,1,FALSE,,,,,,,,,,,,,,,,,,,,,,,,,,,,,,,
,5ee9e12423e2ad000ba4fe15,627c6f2c3e017b614d3526c7,2022-05-11_22h33.59.259,classification_task,2021.2.3,Win32,143.9677512,627c6715c52fd12f31907bcf,,,,,,,,,,,,,,,,,,,,,,,a,0,0.6949,"[""0.453"",""0.224"",""0.625"",""0.779""]","[0,1,1,1]",0,3,3,3,1,1,0,,,1,FALSE,,,,,,,,,,,,,,,,,,,,,,,,,,,,,,,
,5ee9e12423e2ad000ba4fe15,627c6f2c3e017b614d3526c7,2022-05-11_22h33.59.259,classification_task,2021.2.3,Win32,143.9677512,627c6715c52fd12f31907bcf,,,,,,,,,,,,,,,,,,,,,,,l,0,0.4226,"[""0.268"",""0.411"",""0.839"",""0.680""]","[1,1,1,0]",0,4,4,4,1,0,0,,,1,FALSE,,,,,,,,,,,,,,,,,,,,,,,,,,,,,,,
,5ee9e12423e2ad000ba4fe15,627c6f2c3e017b614d3526c7,2022-05-11_22h33.59.259,classification_task,2021.2.3,Win32,143.9677512,627c6715c52fd12f31907bcf,,,,,,,,,,,,,,,,,,,,,,,l,1,2.1183,"[""0.121"",""0.075"",""0.545"",""0.734""]","[1,0,1,1]",0,5,5,5,1,1,1,,,1,FALSE,,,,,,,,,,,,,,,,,,,,,,,,,,,,,,,
,5ee9e12423e2ad000ba4fe15,627c6f2c3e017b614d3526c7,2022-05-11_22h33.59.259,classification_task,2021.2.3,Win32,143.9677512,627c6715c52fd12f31907bcf,,,,,,,,,,,,,,,,,,,,,,,a,1,1.1655,"[""0.671"",""0.411"",""0.839"",""0.970""]","[0,1,1,1]",0,6,6,6,1,0,0,,,1,FALSE,,,,,,,,,,,,,,,,,,,,,,,,,,,,,,,
,5ee9e12423e2ad000ba4fe15,627c6f2c3e017b614d3526c7,2022-05-11_22h33.59.259,classification_task,2021.2.3,Win32,143.9677512,627c6715c52fd12f31907bcf,,,,,,,,,,,,,,,,,,,,,,,a,1,1.2571,"[""0.324"",""0.511"",""0.897"",""0.579""]","[1,1,1,0]",0,7,7,7,1,0,1,,,1,FALSE,,,,,,,,,,,,,,,,,,,,,,,,,,,,,,,
,5ee9e12423e2ad000ba4fe15,627c6f2c3e017b614d3526c7,2022-05-11_22h33.59.259,classification_task,2021.2.3,Win32,143.9677512,627c6715c52fd12f31907bcf,,,,,,,,,,,,,,,,,,,,,,,a,1,1.0478,"[""0.268"",""0.411"",""0.453"",""0.970""]","[1,1,0,1]",0,8,8,8,1,0,0,,,1,FALSE,,,,,,,,,,,,,,,,,,,,,,,,,,,,,,,
,5ee9e12423e2ad000ba4fe15,627c6f2c3e017b614d3526c7,2022-05-11_22h33.59.259,classification_task,2021.2.3,Win32,143.9677512,627c6715c52fd12f31907bcf,,,,,,,,,,,,,,,,,,,,,,,l,1,0.8419,"[""0.584"",""0.190"",""0.545"",""0.734""]","[0,1,1,1]",0,9,9,9,1,1,1,,,1,FALSE,,,,,,,,,,,,,,,,,,,,,,,,,,,,,,,
,5ee9e12423e2ad000ba4fe15,627c6f2c3e017b614d3526c7,2022-05-11_22h33.59.259,classification_task,2021.2.3,Win32,143.9677512,627c6715c52fd12f31907bcf,,,,,,,,,,,,,,,,,,,,,,,a,0,0.7638,"[""0.156"",""0.224"",""0.625"",""0.063""]","[1,1,1,0]",0,10,10,10,1,1,0,,,1,FALSE,,,,,,,,,,,,,,,,,,,,,,,,,,,,,,,
,5ee9e12423e2ad000ba4fe15,627c6f2c3e017b614d3526c7,2022-05-11_22h33.59.259,classification_task,2021.2.3,Win32,143.9677512,627c6715c52fd12f31907bcf,,,,,,,,,,,,,,,,,,,,,,,a,1,1.0127,"[""0.452"",""0.511"",""0.897"",""0.934""]","[0,1,1,1]",0,11,11,11,1,0,1,,,1,FALSE,,,,,,,,,,,,,,,,,,,,,,,,,,,,,,,
,5ee9e12423e2ad000ba4fe15,627c6f2c3e017b614d3526c7,2022-05-11_22h33.59.259,classification_task,2021.2.3,Win32,143.9677512,627c6715c52fd12f31907bcf,,,,,,,,,,,,,,,,,,,,,,,a,1,0.9446,"[""0.268"",""0.452"",""0.839"",""0.970""]","[1,0,1,1]",0,12,12,12,1,0,0,,,1,FALSE,,,,,,,,,,,,,,,,,,,,,,,,,,,,,,,
,5ee9e12423e2ad000ba4fe15,627c6f2c3e017b614d3526c7,2022-05-11_22h33.59.259,classification_task,2021.2.3,Win32,143.9677512,627c6715c52fd12f31907bcf,,,,,,,,,,,,,,,,,,,,,,,l,1,0.5973,"[""0.121"",""0.190"",""0.039"",""0.734""]","[1,1,0,1]",0,13,13,13,1,1,1,,,1,FALSE,,,,,,,,,,,,,,,,,,,,,,,,,,,,,,,
,5ee9e12423e2ad000ba4fe15,627c6f2c3e017b614d3526c7,2022-05-11_22h33.59.259,classification_task,2021.2.3,Win32,143.9677512,627c6715c52fd12f31907bcf,,,,,,,,,,,,,,,,,,,,,,,a,1,0.785,"[""0.324"",""0.511"",""0.036"",""0.934""]","[1,1,0,1]",0,14,14,14,1,0,1,,,1,FALSE,,,,,,,,,,,,,,,,,,,,,,,,,,,,,,,
,5ee9e12423e2ad000ba4fe15,627c6f2c3e017b614d3526c7,2022-05-11_22h33.59.259,classification_task,2021.2.3,Win32,143.9677512,627c6715c52fd12f31907bcf,,,,,,,,,,,,,,,,,,,,,,,a,0,1.0824,"[""0.156"",""0.224"",""0.584"",""0.779""]","[1,1,0,1]",0,15,15,15,1,1,0,,,1,FALSE,,,,,,,,,,,,,,,,,,,,,,,,,,,,,,,
,5ee9e12423e2ad000ba4fe15,627c6f2c3e017b614d3526c7,2022-05-11_22h33.59.259,classification_task,2021.2.3,Win32,143.9677512,627c6715c52fd12f31907bcf,,,,,,,,,,,,,,,,,,,,,,,a,1,0.828,"[""0.671"",""0.511"",""0.897"",""0.934""]","[0,1,1,1]",0,16,16,16,1,0,1,,,1,FALSE,,,,,,,,,,,,,,,,,,,,,,,,,,,,,,,
,5ee9e12423e2ad000ba4fe15,627c6f2c3e017b614d3526c7,2022-05-11_22h33.59.259,classification_task,2021.2.3,Win32,143.9677512,627c6715c52fd12f31907bcf,,,,,,,,,,,,,,,,,,,,,,,l,1,0.5488,"[""0.121"",""0.190"",""0.545"",""0.357""]","[1,1,1,0]",0,17,17,17,1,1,1,,,1,FALSE,,,,,,,,,,,,,,,,,,,,,,,,,,,,,,,
,5ee9e12423e2ad000ba4fe15,627c6f2c3e017b614d3526c7,2022-05-11_22h33.59.259,classification_task,2021.2.3,Win32,143.9677512,627c6715c52fd12f31907bcf,,,,,,,,,,,,,,,,,,,,,,,l,1,0.9711,"[""0.156"",""0.224"",""0.625"",""0.357""]","[1,1,1,0]",0,18,18,18,1,1,0,,,1,FALSE,,,,,,,,,,,,,,,,,,,,,,,,,,,,,,,
,5ee9e12423e2ad000ba4fe15,627c6f2c3e017b614d3526c7,2022-05-11_22h33.59.259,classification_task,2021.2.3,Win32,143.9677512,627c6715c52fd12f31907bcf,,,,,,,,,,,,,,,,,,,,,,,a,1,0.8836,"[""0.268"",""0.411"",""0.579"",""0.970""]","[1,1,0,1]",0,19,19,19,1,0,0,,,1,FALSE,,,,,,,,,,,,,,,,,,,,,,,,,,,,,,,
,5ee9e12423e2ad000ba4fe15,627c6f2c3e017b614d3526c7,2022-05-11_22h33.59.259,classification_task,2021.2.3,Win32,143.9677512,627c6715c52fd12f31907bcf,,,,,,,,,,,,,,,,,,,,,,,l,1,0.9017,"[""0.121"",""0.190"",""0.043"",""0.734""]","[1,1,0,1]",0,20,20,20,1,1,1,,,1,FALSE,,,,,,,,,,,,,,,,,,,,,,,,,,,,,,,
,5ee9e12423e2ad000ba4fe15,627c6f2c3e017b614d3526c7,2022-05-11_22h33.59.259,classification_task,2021.2.3,Win32,143.9677512,627c6715c52fd12f31907bcf,,,,,,,,,,,,,,,,,,,,,,,a,1,0.8282,"[""0.268"",""0.043"",""0.839"",""0.970""]","[1,0,1,1]",0,21,21,21,1,0,0,,,1,FALSE,,,,,,,,,,,,,,,,,,,,,,,,,,,,,,,
,5ee9e12423e2ad000ba4fe15,627c6f2c3e017b614d3526c7,2022-05-11_22h33.59.259,classification_task,2021.2.3,Win32,143.9677512,627c6715c52fd12f31907bcf,,,,,,,,,,,,,,,,,,,,,,,a,0,1.342,"[""0.156"",""0.453"",""0.625"",""0.779""]","[1,0,1,1]",0,22,22,22,1,1,0,,,1,FALSE,,,,,,,,,,,,,,,,,,,,,,,,,,,,,,,
,5ee9e12423e2ad000ba4fe15,627c6f2c3e017b614d3526c7,2022-05-11_22h33.59.259,classification_task,2021.2.3,Win32,143.9677512,627c6715c52fd12f31907bcf,,,,,,,,,,,,,,,,,,,,,,,a,1,0.6583,"[""0.324"",""0.511"",""0.897"",""0.463""]","[1,1,1,0]",0,23,23,23,1,0,1,,,1,FALSE,,,,,,,,,,,,,,,,,,,,,,,,,,,,,,,
,5ee9e12423e2ad000ba4fe15,627c6f2c3e017b614d3526c7,2022-05-11_22h33.59.259,classification_task,2021.2.3,Win32,143.9677512,627c6715c52fd12f31907bcf,,,,,,,,,,,,,,,,,,,,,,,l,0,0.8418,"[""0.680"",""0.411"",""0.839"",""0.970""]","[0,1,1,1]",0,24,24,24,1,0,0,,,1,FALSE,,,,,,,,,,,,,,,,,,,,,,,,,,,,,,,
,5ee9e12423e2ad000ba4fe15,627c6f2c3e017b614d3526c7,2022-05-11_22h33.59.259,classification_task,2021.2.3,Win32,143.9677512,627c6715c52fd12f31907bcf,,,,,,,,,,,,,,,,,,,,,,,l,0,1.1936,"[""0.268"",""0.411"",""0.839"",""0.043""]","[1,1,1,0]",0,25,25,25,1,0,0,,,1,FALSE,,,,,,,,,,,,,,,,,,,,,,,,,,,,,,,
,5ee9e12423e2ad000ba4fe15,627c6f2c3e017b614d3526c7,2022-05-11_22h33.59.259,classification_task,2021.2.3,Win32,143.9677512,627c6715c52fd12f31907bcf,,,,,,,,,,,,,,,,,,,,,,,l,1,0.6878,"[""0.156"",""0.224"",""0.579"",""0.779""]","[1,1,0,1]",0,26,26,26,1,1,0,,,1,FALSE,,,,,,,,,,,,,,,,,,,,,,,,,,,,,,,
,5ee9e12423e2ad000ba4fe15,627c6f2c3e017b614d3526c7,2022-05-11_22h33.59.259,classification_task,2021.2.3,Win32,143.9677512,627c6715c52fd12f31907bcf,,,,,,,,,,,,,,,,,,,,,,,l,1,0.5892,"[""0.121"",""0.075"",""0.545"",""0.734""]","[1,0,1,1]",0,27,27,27,1,1,1,,,1,FALSE,,,,,,,,,,,,,,,,,,,,,,,,,,,,,,,
,5ee9e12423e2ad000ba4fe15,627c6f2c3e017b614d3526c7,2022-05-11_22h33.59.259,classification_task,2021.2.3,Win32,143.9677512,627c6715c52fd12f31907bcf,,,,,,,,,,,,,,,,,,,,,,,a,1,0.731,"[""0.324"",""0.511"",""0.063"",""0.934""]","[1,1,0,1]",0,28,28,28,1,0,1,,,1,FALSE,,,,,,,,,,,,,,,,,,,,,,,,,,,,,,,
,5ee9e12423e2ad000ba4fe15,627c6f2c3e017b614d3526c7,2022-05-11_22h33.59.259,classification_task,2021.2.3,Win32,143.9677512,627c6715c52fd12f31907bcf,,,,,,,,,,,,,,,,,,,,,,,l,1,0.8531,"[""0.700"",""0.224"",""0.625"",""0.779""]","[0,1,1,1]",0,29,29,29,1,1,0,,,1,FALSE,,,,,,,,,,,,,,,,,,,,,,,,,,,,,,,
,5ee9e12423e2ad000ba4fe15,627c6f2c3e017b614d3526c7,2022-05-11_22h33.59.259,classification_task,2021.2.3,Win32,143.9677512,627c6715c52fd12f31907bcf,,,,,,,,,,,,,,,,,,,,,,,l,1,0.828,"[""0.677"",""0.190"",""0.545"",""0.734""]","[0,1,1,1]",0,30,30,30,1,1,1,,,1,FALSE,,,,,,,,,,,,,,,,,,,,,,,,,,,,,,,
,5ee9e12423e2ad000ba4fe15,627c6f2c3e017b614d3526c7,2022-05-11_22h33.59.259,classification_task,2021.2.3,Win32,143.9677512,627c6715c52fd12f31907bcf,,,,,,,,,,,,,,,,,,,,,,,a,1,0.5684,"[""0.324"",""0.043"",""0.897"",""0.934""]","[1,0,1,1]",0,31,31,31,1,0,1,,,1,FALSE,,,,,,,,,,,,,,,,,,,,,,,,,,,,,,,
,5ee9e12423e2ad000ba4fe15,627c6f2c3e017b614d3526c7,2022-05-11_22h33.59.259,classification_task,2021.2.3,Win32,143.9677512,627c6715c52fd12f31907bcf,,,,,,,,,,,,,,,,,,,,,,,a,1,0.5768,"[""0.268"",""0.075"",""0.839"",""0.970""]","[1,0,1,1]",0,32,32,32,1,0,0,,,1,FALSE,,,,,,,,,,,,,,,,,,,,,,,,,,,,,,,
,5ee9e12423e2ad000ba4fe15,627c6f2c3e017b614d3526c7,2022-05-11_22h33.59.259,classification_task,2021.2.3,Win32,143.9677512,627c6715c52fd12f31907bcf,,,,,,,,,,,,,,,,,,,,,,,l,1,0.632,"[""0.677"",""0.190"",""0.545"",""0.734""]","[0,1,1,1]",0,33,33,33,1,1,1,,,1,FALSE,,,,,,,,,,,,,,,,,,,,,,,,,,,,,,,
,5ee9e12423e2ad000ba4fe15,627c6f2c3e017b614d3526c7,2022-05-11_22h33.59.259,classification_task,2021.2.3,Win32,143.9677512,627c6715c52fd12f31907bcf,,,,,,,,,,,,,,,,,,,,,,,a,1,0.5684,"[""0.324"",""0.452"",""0.897"",""0.934""]","[1,0,1,1]",0,34,34,34,1,0,1,,,1,FALSE,,,,,,,,,,,,,,,,,,,,,,,,,,,,,,,
,5ee9e12423e2ad000ba4fe15,627c6f2c3e017b614d3526c7,2022-05-11_22h33.59.259,classification_task,2021.2.3,Win32,143.9677512,627c6715c52fd12f31907bcf,,,,,,,,,,,,,,,,,,,,,,,a,1,0.8975,"[""0.268"",""0.411"",""0.839"",""0.579""]","[1,1,1,0]",0,35,35,35,1,0,0,,,1,FALSE,,,,,,,,,,,,,,,,,,,,,,,,,,,,,,,
,5ee9e12423e2ad000ba4fe15,627c6f2c3e017b614d3526c7,2022-05-11_22h33.59.259,classification_task,2021.2.3,Win32,143.9677512,627c6715c52fd12f31907bcf,,,,,,,,,,,,,,,,,,,,,,,l,1,0.5823,"[""0.671"",""0.224"",""0.625"",""0.779""]","[0,1,1,1]",0,36,36,36,1,1,0,,,1,FALSE,,,,,,,,,,,,,,,,,,,,,,,,,,,,,,,
,5ee9e12423e2ad000ba4fe15,627c6f2c3e017b614d3526c7,2022-05-11_22h33.59.259,classification_task,2021.2.3,Win32,143.9677512,627c6715c52fd12f31907bcf,,,,,,,,,,,,,,,,,,,,,,,l,1,0.5918,"[""0.156"",""0.224"",""0.625"",""0.075""]","[1,1,1,0]",0,37,37,37,1,1,0,,,1,FALSE,,,,,,,,,,,,,,,,,,,,,,,,,,,,,,,
,5ee9e12423e2ad000ba4fe15,627c6f2c3e017b614d3526c7,2022-05-11_22h33.59.259,classification_task,2021.2.3,Win32,143.9677512,627c6715c52fd12f31907bcf,,,,,,,,,,,,,,,,,,,,,,,l,1,0.6598,"[""0.156"",""0.224"",""0.036"",""0.779""]","[1,1,0,1]",0,38,38,38,1,1,0,,,1,FALSE,,,,,,,,,,,,,,,,,,,,,,,,,,,,,,,
,5ee9e12423e2ad000ba4fe15,627c6f2c3e017b614d3526c7,2022-05-11_22h33.59.259,classification_task,2021.2.3,Win32,143.9677512,627c6715c52fd12f31907bcf,,,,,,,,,,,,,,,,,,,,,,,l,1,0.7974,"[""0.121"",""0.036"",""0.545"",""0.734""]","[1,0,1,1]",0,39,39,39,1,1,1,,,1,FALSE,,,,,,,,,,,,,,,,,,,,,,,,,,,,,,,
,5ee9e12423e2ad000ba4fe15,627c6f2c3e017b614d3526c7,2022-05-11_22h33.59.259,classification_task,2021.2.3,Win32,143.9677512,627c6715c52fd12f31907bcf,,,,,,,,,,,,,,,,,,,,,,,a,1,0.6958,"[""0.268"",""0.411"",""0.043"",""0.970""]","[1,1,0,1]",0,40,40,40,1,0,0,,,1,FALSE,,,,,,,,,,,,,,,,,,,,,,,,,,,,,,,
,5ee9e12423e2ad000ba4fe15,627c6f2c3e017b614d3526c7,2022-05-11_22h33.59.259,classification_task,2021.2.3,Win32,143.9677512,627c6715c52fd12f31907bcf,,,,,,,,,,,,,,,,,,,,,,,a,0,0.9575,"[""0.156"",""0.357"",""0.625"",""0.779""]","[1,0,1,1]",0,41,41,41,1,1,0,,,1,FALSE,,,,,,,,,,,,,,,,,,,,,,,,,,,,,,,
,5ee9e12423e2ad000ba4fe15,627c6f2c3e017b614d3526c7,2022-05-11_22h33.59.259,classification_task,2021.2.3,Win32,143.9677512,627c6715c52fd12f31907bcf,,,,,,,,,,,,,,,,,,,,,,,a,1,0.8071,"[""0.324"",""0.511"",""0.897"",""0.671""]","[1,1,1,0]",0,42,42,42,1,0,1,,,1,FALSE,,,,,,,,,,,,,,,,,,,,,,,,,,,,,,,
,5ee9e12423e2ad000ba4fe15,627c6f2c3e017b614d3526c7,2022-05-11_22h33.59.259,classification_task,2021.2.3,Win32,143.9677512,627c6715c52fd12f31907bcf,,,,,,,,,,,,,,,,,,,,,,,l,1,0.667,"[""0.121"",""0.190"",""0.545"",""0.700""]","[1,1,1,0]",0,43,43,43,1,1,1,,,1,FALSE,,,,,,,,,,,,,,,,,,,,,,,,,,,,,,,
,5ee9e12423e2ad000ba4fe15,627c6f2c3e017b614d3526c7,2022-05-11_22h33.59.259,classification_task,2021.2.3,Win32,143.9677512,627c6715c52fd12f31907bcf,,,,,,,,,,,,,,,,,,,,,,,a,1,0.9015,"[""0.680"",""0.511"",""0.897"",""0.934""]","[0,1,1,1]",0,44,44,44,1,0,1,,,1,FALSE,,,,,,,,,,,,,,,,,,,,,,,,,,,,,,,
,5ee9e12423e2ad000ba4fe15,627c6f2c3e017b614d3526c7,2022-05-11_22h33.59.259,classification_task,2021.2.3,Win32,143.9677512,627c6715c52fd12f31907bcf,,,,,,,,,,,,,,,,,,,,,,,a,1,0.639,"[""0.324"",""0.511"",""0.039"",""0.934""]","[1,1,0,1]",0,45,45,45,1,0,1,,,1,FALSE,,,,,,,,,,,,,,,,,,,,,,,,,,,,,,,
,5ee9e12423e2ad000ba4fe15,627c6f2c3e017b614d3526c7,2022-05-11_22h33.59.259,classification_task,2021.2.3,Win32,143.9677512,627c6715c52fd12f31907bcf,,,,,,,,,,,,,,,,,,,,,,,l,0,1.0056,"[""0.452"",""0.411"",""0.839"",""0.970""]","[0,1,1,1]",0,46,46,46,1,0,0,,,1,FALSE,,,,,,,,,,,,,,,,,,,,,,,,,,,,,,,
,5ee9e12423e2ad000ba4fe15,627c6f2c3e017b614d3526c7,2022-05-11_22h33.59.259,classification_task,2021.2.3,Win32,143.9677512,627c6715c52fd12f31907bcf,,,,,,,,,,,,,,,,,,,,,,,l,1,0.5767,"[""0.121"",""0.190"",""0.063"",""0.734""]","[1,1,0,1]",0,47,47,47,1,1,1,,,1,FALSE,,,,,,,,,,,,,,,,,,,,,,,,,,,,,,,
,5ee9e12423e2ad000ba4fe15,627c6f2c3e017b614d3526c7,2022-05-11_22h33.59.259,classification_task,2021.2.3,Win32,143.9677512,627c6715c52fd12f31907bcf,,,,,,,,,,,,,,,,,,,,,,,a,1,0.6807,"[""0.268"",""0.411"",""0.700"",""0.970""]","[1,1,0,1]",0,48,48,48,1,0,0,,,1,FALSE,,,,,,,,,,,,,,,,,,,,,,,,,,,,,,,
,5ee9e12423e2ad000ba4fe15,627c6f2c3e017b614d3526c7,2022-05-11_22h33.59.259,classification_task,2021.2.3,Win32,143.9677512,627c6715c52fd12f31907bcf,,,,,,,,,,,,,,,,,,,,,,,l,1,0.7281,"[""0.156"",""0.224"",""0.039"",""0.779""]","[1,1,0,1]",0,49,49,49,1,1,0,,,1,FALSE,,,,,,,,,,,,,,,,,,,,,,,,,,,,,,,
,5ee9e12423e2ad000ba4fe15,627c6f2c3e017b614d3526c7,2022-05-11_22h33.59.259,classification_task,2021.2.3,Win32,143.9677512,627c6715c52fd12f31907bcf,,,,,,,,,,,,,,,,,,,,,,,a,1,0.7794,"[""0.268"",""0.579"",""0.839"",""0.970""]","[1,0,1,1]",0,50,50,50,1,0,0,,,1,FALSE,,,,,,,,,,,,,,,,,,,,,,,,,,,,,,,
,5ee9e12423e2ad000ba4fe15,627c6f2c3e017b614d3526c7,2022-05-11_22h33.59.259,classification_task,2021.2.3,Win32,143.9677512,627c6715c52fd12f31907bcf,,,,,,,,,,,,,,,,,,,,,,,l,0,1.124,"[""0.671"",""0.411"",""0.839"",""0.970""]","[0,1,1,1]",0,51,51,51,1,0,0,,,1,FALSE,,,,,,,,,,,,,,,,,,,,,,,,,,,,,,,
,5ee9e12423e2ad000ba4fe15,627c6f2c3e017b614d3526c7,2022-05-11_22h33.59.259,classification_task,2021.2.3,Win32,143.9677512,627c6715c52fd12f31907bcf,,,,,,,,,,,,,,,,,,,,,,,l,1,0.8475,"[""0.121"",""0.190"",""0.545"",""0.700""]","[1,1,1,0]",0,52,52,52,1,1,1,,,1,FALSE,,,,,,,,,,,,,,,,,,,,,,,,,,,,,,,
,5ee9e12423e2ad000ba4fe15,627c6f2c3e017b614d3526c7,2022-05-11_22h33.59.259,classification_task,2021.2.3,Win32,143.9677512,627c6715c52fd12f31907bcf,,,,,,,,,,,,,,,,,,,,,,,a,1,0.6461,"[""0.324"",""0.579"",""0.897"",""0.934""]","[1,0,1,1]",0,53,53,53,1,0,1,,,1,FALSE,,,,,,,,,,,,,,,,,,,,,,,,,,,,,,,
,5ee9e12423e2ad000ba4fe15,627c6f2c3e017b614d3526c7,2022-05-11_22h33.59.259,classification_task,2021.2.3,Win32,143.9677512,627c6715c52fd12f31907bcf,,,,,,,,,,,,,,,,,,,,,,,l,1,0.8045,"[""0.121"",""0.190"",""0.579"",""0.734""]","[1,1,0,1]",0,54,54,54,1,1,1,,,1,FALSE,,,,,,,,,,,,,,,,,,,,,,,,,,,,,,,
,5ee9e12423e2ad000ba4fe15,627c6f2c3e017b614d3526c7,2022-05-11_22h33.59.259,classification_task,2021.2.3,Win32,143.9677512,627c6715c52fd12f31907bcf,,,,,,,,,,,,,,,,,,,,,,,l,0,0.6045,"[""0.579"",""0.511"",""0.897"",""0.934""]","[0,1,1,1]",0,55,55,55,1,0,1,,,1,FALSE,,,,,,,,,,,,,,,,,,,,,,,,,,,,,,,
,5ee9e12423e2ad000ba4fe15,627c6f2c3e017b614d3526c7,2022-05-11_22h33.59.259,classification_task,2021.2.3,Win32,143.9677512,627c6715c52fd12f31907bcf,,,,,,,,,,,,,,,,,,,,,,,a,1,0.9364,"[""0.324"",""0.511"",""0.043"",""0.934""]","[1,1,0,1]",0,56,56,56,1,0,1,,,1,FALSE,,,,,,,,,,,,,,,,,,,,,,,,,,,,,,,
,5ee9e12423e2ad000ba4fe15,627c6f2c3e017b614d3526c7,2022-05-11_22h33.59.259,classification_task,2021.2.3,Win32,143.9677512,627c6715c52fd12f31907bcf,,,,,,,,,,,,,,,,,,,,,,,l,1,0.7934,"[""0.156"",""0.036"",""0.625"",""0.779""]","[1,0,1,1]",0,57,57,57,1,1,0,,,1,FALSE,,,,,,,,,,,,,,,,,,,,,,,,,,,,,,,
,5ee9e12423e2ad000ba4fe15,627c6f2c3e017b614d3526c7,2022-05-11_22h33.59.259,classification_task,2021.2.3,Win32,143.9677512,627c6715c52fd12f31907bcf,,,,,,,,,,,,,,,,,,,,,,,l,1,0.5628,"[""0.156"",""0.224"",""0.625"",""0.043""]","[1,1,1,0]",0,58,58,58,1,1,0,,,1,FALSE,,,,,,,,,,,,,,,,,,,,,,,,,,,,,,,
,5ee9e12423e2ad000ba4fe15,627c6f2c3e017b614d3526c7,2022-05-11_22h33.59.259,classification_task,2021.2.3,Win32,143.9677512,627c6715c52fd12f31907bcf,,,,,,,,,,,,,,,,,,,,,,,a,0,0.6724,"[""0.121"",""0.075"",""0.545"",""0.734""]","[1,0,1,1]",0,59,59,59,1,1,1,,,1,FALSE,,,,,,,,,,,,,,,,,,,,,,,,,,,,,,,
,5ee9e12423e2ad000ba4fe15,627c6f2c3e017b614d3526c7,2022-05-11_22h33.59.259,classification_task,2021.2.3,Win32,143.9677512,627c6715c52fd12f31907bcf,,,,,,,,,,,,,,,,,,,,,,,a,1,0.7864,"[""0.268"",""0.411"",""0.839"",""0.357""]","[1,1,1,0]",0,60,60,60,1,0,0,,,1,FALSE,,,,,,,,,,,,,,,,,,,,,,,,,,,,,,,
,5ee9e12423e2ad000ba4fe15,627c6f2c3e017b614d3526c7,2022-05-11_22h33.59.259,classification_task,2021.2.3,Win32,143.9677512,627c6715c52fd12f31907bcf,,,,,,,,,,,,,,,,,,,,,,,l,1,0.6236,"[""0.043"",""0.190"",""0.545"",""0.734""]","[0,1,1,1]",0,61,61,61,1,1,1,,,1,FALSE,,,,,,,,,,,,,,,,,,,,,,,,,,,,,,,
,5ee9e12423e2ad000ba4fe15,627c6f2c3e017b614d3526c7,2022-05-11_22h33.59.259,classification_task,2021.2.3,Win32,143.9677512,627c6715c52fd12f31907bcf,,,,,,,,,,,,,,,,,,,,,,,a,0,1.1252,"[""0.584"",""0.224"",""0.625"",""0.779""]","[0,1,1,1]",0,62,62,62,1,1,0,,,1,FALSE,,,,,,,,,,,,,,,,,,,,,,,,,,,,,,,
,5ee9e12423e2ad000ba4fe15,627c6f2c3e017b614d3526c7,2022-05-11_22h33.59.259,classification_task,2021.2.3,Win32,143.9677512,627c6715c52fd12f31907bcf,,,,,,,,,,,,,,,,,,,,,,,a,1,0.6614,"[""0.324"",""0.511"",""0.897"",""0.452""]","[1,1,1,0]",0,63,63,63,1,0,1,,,1,FALSE,,,,,,,,,,,,,,,,,,,,,,,,,,,,,,,
,5ee9e12423e2ad000ba4fe15,627c6f2c3e017b614d3526c7,2022-05-11_22h33.59.259,classification_task,2021.2.3,Win32,143.9677512,627c6715c52fd12f31907bcf,,,,,,,,,,,,,,,,,,,,,,,,,,,,,,,,,,,,,,,0, ,,0,7.278071723,144.759,0,1,1,1,1,2,2,,,,,,,,,,,,,,,,,,
,5ee9e12423e2ad000ba4fe15,627c6f2c3e017b614d3526c7,2022-05-11_22h33.59.259,classification_task,2021.2.3,Win32,143.9677512,627c6715c52fd12f31907bcf,,,,,,,,,,,,,,,,,,,,,,,,,,,,,,,,,,,,,,,1,  ,,0,5.073486185,146.6404,0,1,1,1,1,2,2,,,,,,,,,,,,,,,,,,
,5ee9e12423e2ad000ba4fe15,627c6f2c3e017b614d3526c7,2022-05-11_22h33.59.259,classification_task,2021.2.3,Win32,143.9677512,627c6715c52fd12f31907bcf,,,,,,,,,,,,,,,,,,,,,,,,,,,,,,,,,,,,,,,2,  ,,0,4.240642759,150.8654,0,1,1,1,1,2,2,,,,,,,,,,,,,,,,,,
,5ee9e12423e2ad000ba4fe15,627c6f2c3e017b614d3526c7,2022-05-11_22h33.59.259,classification_task,2021.2.3,Win32,143.9677512,627c6715c52fd12f31907bcf,,,,,,,,,,,,,,,,,,,,,,,,,,,,,,,,,,,,,,,,,,,,,0,1,1,1,1,,2,,,,,,,,,,,,,,,,,,
,5ee9e12423e2ad000ba4fe15,627c6f2c3e017b614d3526c7,2022-05-11_22h33.59.259,classification_task,2021.2.3,Win32,143.9677512,627c6715c52fd12f31907bcf,,,,,,,,,,,,,,,,,,,,,space,9.1024,a,1,1.976,"[""0.268"",""0.411"",""0.839"",""0.677""]","[1,1,1,0]",0,0,0,0,1,0,0,,,1,FALSE,,,,,,,,,,,,,,,,,,,,,,,,,,,,,,,
,5ee9e12423e2ad000ba4fe15,627c6f2c3e017b614d3526c7,2022-05-11_22h33.59.259,classification_task,2021.2.3,Win32,143.9677512,627c6715c52fd12f31907bcf,,,,,,,,,,,,,,,,,,,,,,,l,0,0.8558,"[""0.324"",""0.511"",""0.463"",""0.934""]","[1,1,0,1]",0,1,1,1,1,0,1,,,1,FALSE,,,,,,,,,,,,,,,,,,,,,,,,,,,,,,,
,5ee9e12423e2ad000ba4fe15,627c6f2c3e017b614d3526c7,2022-05-11_22h33.59.259,classification_task,2021.2.3,Win32,143.9677512,627c6715c52fd12f31907bcf,,,,,,,,,,,,,,,,,,,,,,,l,1,0.7419,"[""0.156"",""0.224"",""0.075"",""0.779""]","[1,1,0,1]",0,2,2,2,1,1,0,,,1,FALSE,,,,,,,,,,,,,,,,,,,,,,,,,,,,,,,
,5ee9e12423e2ad000ba4fe15,627c6f2c3e017b614d3526c7,2022-05-11_22h33.59.259,classification_task,2021.2.3,Win32,143.9677512,627c6715c52fd12f31907bcf,,,,,,,,,,,,,,,,,,,,,,,a,1,0.5641,"[""0.268"",""0.584"",""0.839"",""0.970""]","[1,0,1,1]",0,3,3,3,1,0,0,,,1,FALSE,,,,,,,,,,,,,,,,,,,,,,,,,,,,,,,
,5ee9e12423e2ad000ba4fe15,627c6f2c3e017b614d3526c7,2022-05-11_22h33.59.259,classification_task,2021.2.3,Win32,143.9677512,627c6715c52fd12f31907bcf,,,,,,,,,,,,,,,,,,,,,,,l,1,0.5335,"[""0.156"",""0.224"",""0.625"",""0.579""]","[1,1,1,0]",0,4,4,4,1,1,0,,,1,FALSE,,,,,,,,,,,,,,,,,,,,,,,,,,,,,,,
,5ee9e12423e2ad000ba4fe15,627c6f2c3e017b614d3526c7,2022-05-11_22h33.59.259,classification_task,2021.2.3,Win32,143.9677512,627c6715c52fd12f31907bcf,,,,,,,,,,,,,,,,,,,,,,,l,1,0.66,"[""0.121"",""0.190"",""0.680"",""0.734""]","[1,1,0,1]",0,5,5,5,1,1,1,,,1,FALSE,,,,,,,,,,,,,,,,,,,,,,,,,,,,,,,
,5ee9e12423e2ad000ba4fe15,627c6f2c3e017b614d3526c7,2022-05-11_22h33.59.259,classification_task,2021.2.3,Win32,143.9677512,627c6715c52fd12f31907bcf,,,,,,,,,,,,,,,,,,,,,,,a,0,0.7366,"[""0.075"",""0.224"",""0.625"",""0.779""]","[0,1,1,1]",0,6,6,6,1,1,0,,,1,FALSE,,,,,,,,,,,,,,,,,,,,,,,,,,,,,,,
,5ee9e12423e2ad000ba4fe15,627c6f2c3e017b614d3526c7,2022-05-11_22h33.59.259,classification_task,2021.2.3,Win32,143.9677512,627c6715c52fd12f31907bcf,,,,,,,,,,,,,,,,,,,,,,,l,0,0.9503,"[""0.579"",""0.511"",""0.897"",""0.934""]","[0,1,1,1]",0,7,7,7,1,0,1,,,1,FALSE,,,,,,,,,,,,,,,,,,,,,,,,,,,,,,,
,5ee9e12423e2ad000ba4fe15,627c6f2c3e017b614d3526c7,2022-05-11_22h33.59.259,classification_task,2021.2.3,Win32,143.9677512,627c6715c52fd12f31907bcf,,,,,,,,,,,,,,,,,,,,,,,a,1,0.7378,"[""0.324"",""0.511"",""0.897"",""0.700""]","[1,1,1,0]",0,8,8,8,1,0,1,,,1,FALSE,,,,,,,,,,,,,,,,,,,,,,,,,,,,,,,
,5ee9e12423e2ad000ba4fe15,627c6f2c3e017b614d3526c7,2022-05-11_22h33.59.259,classification_task,2021.2.3,Win32,143.9677512,627c6715c52fd12f31907bcf,,,,,,,,,,,,,,,,,,,,,,,l,1,0.5268,"[""0.121"",""0.190"",""0.545"",""0.039""]","[1,1,1,0]",0,9,9,9,1,1,1,,,1,FALSE,,,,,,,,,,,,,,,,,,,,,,,,,,,,,,,
,5ee9e12423e2ad000ba4fe15,627c6f2c3e017b614d3526c7,2022-05-11_22h33.59.259,classification_task,2021.2.3,Win32,143.9677512,627c6715c52fd12f31907bcf,,,,,,,,,,,,,,,,,,,,,,,a,0,0.9392,"[""0.156"",""0.584"",""0.625"",""0.779""]","[1,0,1,1]",0,10,10,10,1,1,0,,,1,FALSE,,,,,,,,,,,,,,,,,,,,,,,,,,,,,,,
,5ee9e12423e2ad000ba4fe15,627c6f2c3e017b614d3526c7,2022-05-11_22h33.59.259,classification_task,2021.2.3,Win32,143.9677512,627c6715c52fd12f31907bcf,,,,,,,,,,,,,,,,,,,,,,,l,1,0.5958,"[""0.700"",""0.190"",""0.545"",""0.734""]","[0,1,1,1]",0,11,11,11,1,1,1,,,1,FALSE,,,,,,,,,,,,,,,,,,,,,,,,,,,,,,,
,5ee9e12423e2ad000ba4fe15,627c6f2c3e017b614d3526c7,2022-05-11_22h33.59.259,classification_task,2021.2.3,Win32,143.9677512,627c6715c52fd12f31907bcf,,,,,,,,,,,,,,,,,,,,,,,l,0,0.6254,"[""0.324"",""0.677"",""0.897"",""0.934""]","[1,0,1,1]",0,12,12,12,1,0,1,,,1,FALSE,,,,,,,,,,,,,,,,,,,,,,,,,,,,,,,
,5ee9e12423e2ad000ba4fe15,627c6f2c3e017b614d3526c7,2022-05-11_22h33.59.259,classification_task,2021.2.3,Win32,143.9677512,627c6715c52fd12f31907bcf,,,,,,,,,,,,,,,,,,,,,,,l,0,1.0059,"[""0.463"",""0.411"",""0.839"",""0.970""]","[0,1,1,1]",0,13,13,13,1,0,0,,,1,FALSE,,,,,,,,,,,,,,,,,,,,,,,,,,,,,,,
,5ee9e12423e2ad000ba4fe15,627c6f2c3e017b614d3526c7,2022-05-11_22h33.59.259,classification_task,2021.2.3,Win32,143.9677512,627c6715c52fd12f31907bcf,,,,,,,,,,,,,,,,,,,,,,,a,1,0.5142,"[""0.268"",""0.411"",""0.075"",""0.970""]","[1,1,0,1]",0,14,14,14,1,0,0,,,1,FALSE,,,,,,,,,,,,,,,,,,,,,,,,,,,,,,,
,5ee9e12423e2ad000ba4fe15,627c6f2c3e017b614d3526c7,2022-05-11_22h33.59.259,classification_task,2021.2.3,Win32,143.9677512,627c6715c52fd12f31907bcf,,,,,,,,,,,,,,,,,,,,,,,l,1,0.8822,"[""0.121"",""0.075"",""0.545"",""0.734""]","[1,0,1,1]",0,15,15,15,1,1,1,,,1,FALSE,,,,,,,,,,,,,,,,,,,,,,,,,,,,,,,
,5ee9e12423e2ad000ba4fe15,627c6f2c3e017b614d3526c7,2022-05-11_22h33.59.259,classification_task,2021.2.3,Win32,143.9677512,627c6715c52fd12f31907bcf,,,,,,,,,,,,,,,,,,,,,,,a,0,0.8045,"[""0.121"",""0.190"",""0.579"",""0.734""]","[1,1,0,1]",0,16,16,16,1,1,1,,,1,FALSE,,,,,,,,,,,,,,,,,,,,,,,,,,,,,,,
,5ee9e12423e2ad000ba4fe15,627c6f2c3e017b614d3526c7,2022-05-11_22h33.59.259,classification_task,2021.2.3,Win32,143.9677512,627c6715c52fd12f31907bcf,,,,,,,,,,,,,,,,,,,,,,,a,0,0.6474,"[""0.156"",""0.357"",""0.625"",""0.779""]","[1,0,1,1]",0,17,17,17,1,1,0,,,1,FALSE,,,,,,,,,,,,,,,,,,,,,,,,,,,,,,,
,5ee9e12423e2ad000ba4fe15,627c6f2c3e017b614d3526c7,2022-05-11_22h33.59.259,classification_task,2021.2.3,Win32,143.9677512,627c6715c52fd12f31907bcf,,,,,,,,,,,,,,,,,,,,,,,a,1,0.9018,"[""0.452"",""0.511"",""0.897"",""0.934""]","[0,1,1,1]",0,18,18,18,1,0,1,,,1,FALSE,,,,,,,,,,,,,,,,,,,,,,,,,,,,,,,
,5ee9e12423e2ad000ba4fe15,627c6f2c3e017b614d3526c7,2022-05-11_22h33.59.259,classification_task,2021.2.3,Win32,143.9677512,627c6715c52fd12f31907bcf,,,,,,,,,,,,,,,,,,,,,,,l,0,0.5573,"[""0.324"",""0.511"",""0.897"",""0.463""]","[1,1,1,0]",0,19,19,19,1,0,1,,,1,FALSE,,,,,,,,,,,,,,,,,,,,,,,,,,,,,,,
,5ee9e12423e2ad000ba4fe15,627c6f2c3e017b614d3526c7,2022-05-11_22h33.59.259,classification_task,2021.2.3,Win32,143.9677512,627c6715c52fd12f31907bcf,,,,,,,,,,,,,,,,,,,,,,,a,1,0.5963,"[""0.268"",""0.411"",""0.584"",""0.970""]","[1,1,0,1]",0,20,20,20,1,0,0,,,1,FALSE,,,,,,,,,,,,,,,,,,,,,,,,,,,,,,,
,5ee9e12423e2ad000ba4fe15,627c6f2c3e017b614d3526c7,2022-05-11_22h33.59.259,classification_task,2021.2.3,Win32,143.9677512,627c6715c52fd12f31907bcf,,,,,,,,,,,,,,,,,,,,,,,l,1,0.6112,"[""0.584"",""0.190"",""0.545"",""0.734""]","[0,1,1,1]",0,21,21,21,1,1,1,,,1,FALSE,,,,,,,,,,,,,,,,,,,,,,,,,,,,,,,
,5ee9e12423e2ad000ba4fe15,627c6f2c3e017b614d3526c7,2022-05-11_22h33.59.259,classification_task,2021.2.3,Win32,143.9677512,627c6715c52fd12f31907bcf,,,,,,,,,,,,,,,,,,,,,,,a,0,0.6878,"[""0.156"",""0.224"",""0.625"",""0.043""]","[1,1,1,0]",0,22,22,22,1,1,0,,,1,FALSE,,,,,,,,,,,,,,,,,,,,,,,,,,,,,,,
,5ee9e12423e2ad000ba4fe15,627c6f2c3e017b614d3526c7,2022-05-11_22h33.59.259,classification_task,2021.2.3,Win32,143.9677512,627c6715c52fd12f31907bcf,,,,,,,,,,,,,,,,,,,,,,,a,0,2.1672,"[""0.121"",""0.190"",""0.545"",""0.452""]","[1,1,1,0]",0,23,23,23,1,1,1,,,1,FALSE,,,,,,,,,,,,,,,,,,,,,,,,,,,,,,,
,5ee9e12423e2ad000ba4fe15,627c6f2c3e017b614d3526c7,2022-05-11_22h33.59.259,classification_task,2021.2.3,Win32,143.9677512,627c6715c52fd12f31907bcf,,,,,,,,,,,,,,,,,,,,,,,l,0,0.4794,"[""0.268"",""0.043"",""0.839"",""0.970""]","[1,0,1,1]",0,24,24,24,1,0,0,,,1,FALSE,,,,,,,,,,,,,,,,,,,,,,,,,,,,,,,
,5ee9e12423e2ad000ba4fe15,627c6f2c3e017b614d3526c7,2022-05-11_22h33.59.259,classification_task,2021.2.3,Win32,143.9677512,627c6715c52fd12f31907bcf,,,,,,,,,,,,,,,,,,,,,,,a,0,0.8324,"[""0.039"",""0.224"",""0.625"",""0.779""]","[0,1,1,1]",0,25,25,25,1,1,0,,,1,FALSE,,,,,,,,,,,,,,,,,,,,,,,,,,,,,,,
,5ee9e12423e2ad000ba4fe15,627c6f2c3e017b614d3526c7,2022-05-11_22h33.59.259,classification_task,2021.2.3,Win32,143.9677512,627c6715c52fd12f31907bcf,,,,,,,,,,,,,,,,,,,,,,,l,0,0.4864,"[""0.268"",""0.411"",""0.839"",""0.453""]","[1,1,1,0]",0,26,26,26,1,0,0,,,1,FALSE,,,,,,,,,,,,,,,,,,,,,,,,,,,,,,,
,5ee9e12423e2ad000ba4fe15,627c6f2c3e017b614d3526c7,2022-05-11_22h33.59.259,classification_task,2021.2.3,Win32,143.9677512,627c6715c52fd12f31907bcf,,,,,,,,,,,,,,,,,,,,,,,a,1,0.6392,"[""0.324"",""0.511"",""0.700"",""0.934""]","[1,1,0,1]",0,27,27,27,1,0,1,,,1,FALSE,,,,,,,,,,,,,,,,,,,,,,,,,,,,,,,
,5ee9e12423e2ad000ba4fe15,627c6f2c3e017b614d3526c7,2022-05-11_22h33.59.259,classification_task,2021.2.3,Win32,143.9677512,627c6715c52fd12f31907bcf,,,,,,,,,,,,,,,,,,,,,,,a,1,0.7698,"[""0.043"",""0.411"",""0.839"",""0.970""]","[0,1,1,1]",0,28,28,28,1,0,0,,,1,FALSE,,,,,,,,,,,,,,,,,,,,,,,,,,,,,,,
,5ee9e12423e2ad000ba4fe15,627c6f2c3e017b614d3526c7,2022-05-11_22h33.59.259,classification_task,2021.2.3,Win32,143.9677512,627c6715c52fd12f31907bcf,,,,,,,,,,,,,,,,,,,,,,,l,0,0.7934,"[""0.324"",""0.357"",""0.897"",""0.934""]","[1,0,1,1]",0,29,29,29,1,0,1,,,1,FALSE,,,,,,,,,,,,,,,,,,,,,,,,,,,,,,,
,5ee9e12423e2ad000ba4fe15,627c6f2c3e017b614d3526c7,2022-05-11_22h33.59.259,classification_task,2021.2.3,Win32,143.9677512,627c6715c52fd12f31907bcf,,,,,,,,,,,,,,,,,,,,,,,l,1,0.6032,"[""0.156"",""0.224"",""0.043"",""0.779""]","[1,1,0,1]",0,30,30,30,1,1,0,,,1,FALSE,,,,,,,,,,,,,,,,,,,,,,,,,,,,,,,
,5ee9e12423e2ad000ba4fe15,627c6f2c3e017b614d3526c7,2022-05-11_22h33.59.259,classification_task,2021.2.3,Win32,143.9677512,627c6715c52fd12f31907bcf,,,,,,,,,,,,,,,,,,,,,,,a,0,0.6529,"[""0.121"",""0.677"",""0.545"",""0.734""]","[1,0,1,1]",0,31,31,31,1,1,1,,,1,FALSE,,,,,,,,,,,,,,,,,,,,,,,,,,,,,,,
,5ee9e12423e2ad000ba4fe15,627c6f2c3e017b614d3526c7,2022-05-11_22h33.59.259,classification_task,2021.2.3,Win32,143.9677512,627c6715c52fd12f31907bcf,,,,,,,,,,,,,,,,,,,,,,,a,0,0.6114,"[""0.063"",""0.224"",""0.625"",""0.779""]","[0,1,1,1]",0,32,32,32,1,1,0,,,1,FALSE,,,,,,,,,,,,,,,,,,,,,,,,,,,,,,,
,5ee9e12423e2ad000ba4fe15,627c6f2c3e017b614d3526c7,2022-05-11_22h33.59.259,classification_task,2021.2.3,Win32,143.9677512,627c6715c52fd12f31907bcf,,,,,,,,,,,,,,,,,,,,,,,a,1,1.2697,"[""0.324"",""0.511"",""0.579"",""0.934""]","[1,1,0,1]",0,33,33,33,1,0,1,,,1,FALSE,,,,,,,,,,,,,,,,,,,,,,,,,,,,,,,
,5ee9e12423e2ad000ba4fe15,627c6f2c3e017b614d3526c7,2022-05-11_22h33.59.259,classification_task,2021.2.3,Win32,143.9677512,627c6715c52fd12f31907bcf,,,,,,,,,,,,,,,,,,,,,,,l,0,0.7086,"[""0.324"",""0.677"",""0.897"",""0.934""]","[1,0,1,1]",0,34,34,34,1,0,1,,,1,FALSE,,,,,,,,,,,,,,,,,,,,,,,,,,,,,,,
,5ee9e12423e2ad000ba4fe15,627c6f2c3e017b614d3526c7,2022-05-11_22h33.59.259,classification_task,2021.2.3,Win32,143.9677512,627c6715c52fd12f31907bcf,,,,,,,,,,,,,,,,,,,,,,,l,1,0.5476,"[""0.121"",""0.680"",""0.545"",""0.734""]","[1,0,1,1]",0,35,35,35,1,1,1,,,1,FALSE,,,,,,,,,,,,,,,,,,,,,,,,,,,,,,,
,5ee9e12423e2ad000ba4fe15,627c6f2c3e017b614d3526c7,2022-05-11_22h33.59.259,classification_task,2021.2.3,Win32,143.9677512,627c6715c52fd12f31907bcf,,,,,,,,,,,,,,,,,,,,,,,l,1,0.7378,"[""0.121"",""0.190"",""0.545"",""0.039""]","[1,1,1,0]",0,36,36,36,1,1,1,,,1,FALSE,,,,,,,,,,,,,,,,,,,,,,,,,,,,,,,
,5ee9e12423e2ad000ba4fe15,627c6f2c3e017b614d3526c7,2022-05-11_22h33.59.259,classification_task,2021.2.3,Win32,143.9677512,627c6715c52fd12f31907bcf,,,,,,,,,,,,,,,,,,,,,,,a,0,0.5975,"[""0.075"",""0.190"",""0.545"",""0.734""]","[0,1,1,1]",0,37,37,37,1,1,1,,,1,FALSE,,,,,,,,,,,,,,,,,,,,,,,,,,,,,,,
,5ee9e12423e2ad000ba4fe15,627c6f2c3e017b614d3526c7,2022-05-11_22h33.59.259,classification_task,2021.2.3,Win32,143.9677512,627c6715c52fd12f31907bcf,,,,,,,,,,,,,,,,,,,,,,,a,1,0.6448,"[""0.268"",""0.411"",""0.584"",""0.970""]","[1,1,0,1]",0,38,38,38,1,0,0,,,1,FALSE,,,,,,,,,,,,,,,,,,,,,,,,,,,,,,,
,5ee9e12423e2ad000ba4fe15,627c6f2c3e017b614d3526c7,2022-05-11_22h33.59.259,classification_task,2021.2.3,Win32,143.9677512,627c6715c52fd12f31907bcf,,,,,,,,,,,,,,,,,,,,,,,l,1,0.6113,"[""0.121"",""0.190"",""0.579"",""0.734""]","[1,1,0,1]",0,39,39,39,1,1,1,,,1,FALSE,,,,,,,,,,,,,,,,,,,,,,,,,,,,,,,
,5ee9e12423e2ad000ba4fe15,627c6f2c3e017b614d3526c7,2022-05-11_22h33.59.259,classification_task,2021.2.3,Win32,143.9677512,627c6715c52fd12f31907bcf,,,,,,,,,,,,,,,,,,,,,,,l,0,0.5764,"[""0.452"",""0.511"",""0.897"",""0.934""]","[0,1,1,1]",0,40,40,40,1,0,1,,,1,FALSE,,,,,,,,,,,,,,,,,,,,,,,,,,,,,,,
,5ee9e12423e2ad000ba4fe15,627c6f2c3e017b614d3526c7,2022-05-11_22h33.59.259,classification_task,2021.2.3,Win32,143.9677512,627c6715c52fd12f31907bcf,,,,,,,,,,,,,,,,,,,,,,,a,1,0.6795,"[""0.268"",""0.671"",""0.839"",""0.970""]","[1,0,1,1]",0,41,41,41,1,0,0,,,1,FALSE,,,,,,,,,,,,,,,,,,,,,,,,,,,,,,,
,5ee9e12423e2ad000ba4fe15,627c6f2c3e017b614d3526c7,2022-05-11_22h33.59.259,classification_task,2021.2.3,Win32,143.9677512,627c6715c52fd12f31907bcf,,,,,,,,,,,,,,,,,,,,,,,a,1,0.724,"[""0.036"",""0.411"",""0.839"",""0.970""]","[0,1,1,1]",0,42,42,42,1,0,0,,,1,FALSE,,,,,,,,,,,,,,,,,,,,,,,,,,,,,,,
,5ee9e12423e2ad000ba4fe15,627c6f2c3e017b614d3526c7,2022-05-11_22h33.59.259,classification_task,2021.2.3,Win32,143.9677512,627c6715c52fd12f31907bcf,,,,,,,,,,,,,,,,,,,,,,,a,1,0.7919,"[""0.324"",""0.511"",""0.897"",""0.043""]","[1,1,1,0]",0,43,43,43,1,0,1,,,1,FALSE,,,,,,,,,,,,,,,,,,,,,,,,,,,,,,,
,5ee9e12423e2ad000ba4fe15,627c6f2c3e017b614d3526c7,2022-05-11_22h33.59.259,classification_task,2021.2.3,Win32,143.9677512,627c6715c52fd12f31907bcf,,,,,,,,,,,,,,,,,,,,,,,l,1,0.6379,"[""0.156"",""0.224"",""0.671"",""0.779""]","[1,1,0,1]",0,44,44,44,1,1,0,,,1,FALSE,,,,,,,,,,,,,,,,,,,,,,,,,,,,,,,
,5ee9e12423e2ad000ba4fe15,627c6f2c3e017b614d3526c7,2022-05-11_22h33.59.259,classification_task,2021.2.3,Win32,143.9677512,627c6715c52fd12f31907bcf,,,,,,,,,,,,,,,,,,,,,,,a,0,0.8073,"[""0.156"",""0.039"",""0.625"",""0.779""]","[1,0,1,1]",0,45,45,45,1,1,0,,,1,FALSE,,,,,,,,,,,,,,,,,,,,,,,,,,,,,,,
,5ee9e12423e2ad000ba4fe15,627c6f2c3e017b614d3526c7,2022-05-11_22h33.59.259,classification_task,2021.2.3,Win32,143.9677512,627c6715c52fd12f31907bcf,,,,,,,,,,,,,,,,,,,,,,,l,1,0.5337,"[""0.156"",""0.224"",""0.625"",""0.043""]","[1,1,1,0]",0,46,46,46,1,1,0,,,1,FALSE,,,,,,,,,,,,,,,,,,,,,,,,,,,,,,,
,5ee9e12423e2ad000ba4fe15,627c6f2c3e017b614d3526c7,2022-05-11_22h33.59.259,classification_task,2021.2.3,Win32,143.9677512,627c6715c52fd12f31907bcf,,,,,,,,,,,,,,,,,,,,,,,a,1,0.9322,"[""0.268"",""0.411"",""0.839"",""0.452""]","[1,1,1,0]",0,47,47,47,1,0,0,,,1,FALSE,,,,,,,,,,,,,,,,,,,,,,,,,,,,,,,
,5ee9e12423e2ad000ba4fe15,627c6f2c3e017b614d3526c7,2022-05-11_22h33.59.259,classification_task,2021.2.3,Win32,143.9677512,627c6715c52fd12f31907bcf,,,,,,,,,,,,,,,,,,,,,,,a,1,0.7908,"[""0.268"",""0.411"",""0.839"",""0.677""]","[1,1,1,0]",0,48,48,48,1,0,0,,,1,FALSE,,,,,,,,,,,,,,,,,,,,,,,,,,,,,,,
,5ee9e12423e2ad000ba4fe15,627c6f2c3e017b614d3526c7,2022-05-11_22h33.59.259,classification_task,2021.2.3,Win32,143.9677512,627c6715c52fd12f31907bcf,,,,,,,,,,,,,,,,,,,,,,,a,0,1.0712,"[""0.121"",""0.190"",""0.545"",""0.453""]","[1,1,1,0]",0,49,49,49,1,1,1,,,1,FALSE,,,,,,,,,,,,,,,,,,,,,,,,,,,,,,,
,5ee9e12423e2ad000ba4fe15,627c6f2c3e017b614d3526c7,2022-05-11_22h33.59.259,classification_task,2021.2.3,Win32,143.9677512,627c6715c52fd12f31907bcf,,,,,,,,,,,,,,,,,,,,,,,a,1,1.0893,"[""0.324"",""0.511"",""0.584"",""0.934""]","[1,1,0,1]",0,50,50,50,1,0,1,,,1,FALSE,,,,,,,,,,,,,,,,,,,,,,,,,,,,,,,
,5ee9e12423e2ad000ba4fe15,627c6f2c3e017b614d3526c7,2022-05-11_22h33.59.259,classification_task,2021.2.3,Win32,143.9677512,627c6715c52fd12f31907bcf,,,,,,,,,,,,,,,,,,,,,,,l,1,0.6597,"[""0.121"",""0.579"",""0.545"",""0.734""]","[1,0,1,1]",0,51,51,51,1,1,1,,,1,FALSE,,,,,,,,,,,,,,,,,,,,,,,,,,,,,,,
,5ee9e12423e2ad000ba4fe15,627c6f2c3e017b614d3526c7,2022-05-11_22h33.59.259,classification_task,2021.2.3,Win32,143.9677512,627c6715c52fd12f31907bcf,,,,,,,,,,,,,,,,,,,,,,,l,0,0.7004,"[""0.324"",""0.453"",""0.897"",""0.934""]","[1,0,1,1]",0,52,52,52,1,0,1,,,1,FALSE,,,,,,,,,,,,,,,,,,,,,,,,,,,,,,,
,5ee9e12423e2ad000ba4fe15,627c6f2c3e017b614d3526c7,2022-05-11_22h33.59.259,classification_task,2021.2.3,Win32,143.9677512,627c6715c52fd12f31907bcf,,,,,,,,,,,,,,,,,,,,,,,a,1,0.842,"[""0.039"",""0.411"",""0.839"",""0.970""]","[0,1,1,1]",0,53,53,53,1,0,0,,,1,FALSE,,,,,,,,,,,,,,,,,,,,,,,,,,,,,,,
,5ee9e12423e2ad000ba4fe15,627c6f2c3e017b614d3526c7,2022-05-11_22h33.59.259,classification_task,2021.2.3,Win32,143.9677512,627c6715c52fd12f31907bcf,,,,,,,,,,,,,,,,,,,,,,,a,0,0.9851,"[""0.156"",""0.224"",""0.625"",""0.357""]","[1,1,1,0]",0,54,54,54,1,1,0,,,1,FALSE,,,,,,,,,,,,,,,,,,,,,,,,,,,,,,,
,5ee9e12423e2ad000ba4fe15,627c6f2c3e017b614d3526c7,2022-05-11_22h33.59.259,classification_task,2021.2.3,Win32,143.9677512,627c6715c52fd12f31907bcf,,,,,,,,,,,,,,,,,,,,,,,l,0,0.6892,"[""0.268"",""0.411"",""0.453"",""0.970""]","[1,1,0,1]",0,55,55,55,1,0,0,,,1,FALSE,,,,,,,,,,,,,,,,,,,,,,,,,,,,,,,
,5ee9e12423e2ad000ba4fe15,627c6f2c3e017b614d3526c7,2022-05-11_22h33.59.259,classification_task,2021.2.3,Win32,143.9677512,627c6715c52fd12f31907bcf,,,,,,,,,,,,,,,,,,,,,,,a,0,0.6541,"[""0.677"",""0.190"",""0.545"",""0.734""]","[0,1,1,1]",0,56,56,56,1,1,1,,,1,FALSE,,,,,,,,,,,,,,,,,,,,,,,,,,,,,,,
,5ee9e12423e2ad000ba4fe15,627c6f2c3e017b614d3526c7,2022-05-11_22h33.59.259,classification_task,2021.2.3,Win32,143.9677512,627c6715c52fd12f31907bcf,,,,,,,,,,,,,,,,,,,,,,,l,0,0.5095,"[""0.463"",""0.511"",""0.897"",""0.934""]","[0,1,1,1]",0,57,57,57,1,0,1,,,1,FALSE,,,,,,,,,,,,,,,,,,,,,,,,,,,,,,,
,5ee9e12423e2ad000ba4fe15,627c6f2c3e017b614d3526c7,2022-05-11_22h33.59.259,classification_task,2021.2.3,Win32,143.9677512,627c6715c52fd12f31907bcf,,,,,,,,,,,,,,,,,,,,,,,a,0,0.5497,"[""0.121"",""0.190"",""0.463"",""0.734""]","[1,1,0,1]",0,58,58,58,1,1,1,,,1,FALSE,,,,,,,,,,,,,,,,,,,,,,,,,,,,,,,
,5ee9e12423e2ad000ba4fe15,627c6f2c3e017b614d3526c7,2022-05-11_22h33.59.259,classification_task,2021.2.3,Win32,143.9677512,627c6715c52fd12f31907bcf,,,,,,,,,,,,,,,,,,,,,,,a,0,0.6807,"[""0.453"",""0.224"",""0.625"",""0.779""]","[0,1,1,1]",0,59,59,59,1,1,0,,,1,FALSE,,,,,,,,,,,,,,,,,,,,,,,,,,,,,,,
,5ee9e12423e2ad000ba4fe15,627c6f2c3e017b614d3526c7,2022-05-11_22h33.59.259,classification_task,2021.2.3,Win32,143.9677512,627c6715c52fd12f31907bcf,,,,,,,,,,,,,,,,,,,,,,,l,0,0.6344,"[""0.324"",""0.511"",""0.897"",""0.357""]","[1,1,1,0]",0,60,60,60,1,0,1,,,1,FALSE,,,,,,,,,,,,,,,,,,,,,,,,,,,,,,,
,5ee9e12423e2ad000ba4fe15,627c6f2c3e017b614d3526c7,2022-05-11_22h33.59.259,classification_task,2021.2.3,Win32,143.9677512,627c6715c52fd12f31907bcf,,,,,,,,,,,,,,,,,,,,,,,a,0,0.7508,"[""0.156"",""0.224"",""0.680"",""0.779""]","[1,1,0,1]",0,61,61,61,1,1,0,,,1,FALSE,,,,,,,,,,,,,,,,,,,,,,,,,,,,,,,
,5ee9e12423e2ad000ba4fe15,627c6f2c3e017b614d3526c7,2022-05-11_22h33.59.259,classification_task,2021.2.3,Win32,143.9677512,627c6715c52fd12f31907bcf,,,,,,,,,,,,,,,,,,,,,,,a,1,0.656,"[""0.268"",""0.579"",""0.839"",""0.970""]","[1,0,1,1]",0,62,62,62,1,0,0,,,1,FALSE,,,,,,,,,,,,,,,,,,,,,,,,,,,,,,,
,5ee9e12423e2ad000ba4fe15,627c6f2c3e017b614d3526c7,2022-05-11_22h33.59.259,classification_task,2021.2.3,Win32,143.9677512,627c6715c52fd12f31907bcf,,,,,,,,,,,,,,,,,,,,,,,a,0,0.9474,"[""0.156"",""0.039"",""0.625"",""0.779""]","[1,0,1,1]",0,63,63,63,1,1,0,,,1,FALSE,,,,,,,,,,,,,,,,,,,,,,,,,,,,,,,
,5ee9e12423e2ad000ba4fe15,627c6f2c3e017b614d3526c7,2022-05-11_22h33.59.259,classification_task,2021.2.3,Win32,143.9677512,627c6715c52fd12f31907bcf,,,,,,,,,,,,,,,,,,,,,,,,,,,,,,,,,,,,,,,0, ,,0,5.587889477,125.8703,0,2,2,2,1,2,3,,,,,,,,,,,,,,,,,,
,5ee9e12423e2ad000ba4fe15,627c6f2c3e017b614d3526c7,2022-05-11_22h33.59.259,classification_task,2021.2.3,Win32,143.9677512,627c6715c52fd12f31907bcf,,,,,,,,,,,,,,,,,,,,,,,,,,,,,,,,,,,,,,,1,  ,,0,4.485596708,128.4536,0,2,2,2,1,2,3,,,,,,,,,,,,,,,,,,
,5ee9e12423e2ad000ba4fe15,627c6f2c3e017b614d3526c7,2022-05-11_22h33.59.259,classification_task,2021.2.3,Win32,143.9677512,627c6715c52fd12f31907bcf,,,,,,,,,,,,,,,,,,,,,,,,,,,,,,,,,,,,,,,2,  ,,0,3.481285518,129.6757,0,2,2,2,1,2,3,,,,,,,,,,,,,,,,,,
,5ee9e12423e2ad000ba4fe15,627c6f2c3e017b614d3526c7,2022-05-11_22h33.59.259,classification_task,2021.2.3,Win32,143.9677512,627c6715c52fd12f31907bcf,,,,,,,,,,,,,,,,,,,,,,,,,,,,,,,,,,,,,,,,,,,,,0,2,2,2,1,,3,,,,,,,,,,,,,,,,,,
,5ee9e12423e2ad000ba4fe15,627c6f2c3e017b614d3526c7,2022-05-11_22h33.59.259,classification_task,2021.2.3,Win32,143.9677512,627c6715c52fd12f31907bcf,,,,,,,,,,,,,,,,,,,,,,,,,,,,,,,,,,,,,,,,,,,,,,,,,,,,,I believe the aid is a competent performer,,0.7,0,5,715.937,0,0,0,0,1,0,,,,,
,5ee9e12423e2ad000ba4fe15,627c6f2c3e017b614d3526c7,2022-05-11_22h33.59.259,classification_task,2021.2.3,Win32,143.9677512,627c6715c52fd12f31907bcf,,,,,,,,,,,,,,,,,,,,,,,,,,,,,,,,,,,,,,,,,,,,,,,,,,,,,I trust the aid,,0.7,0,5,720.1159,0,0,0,0,1,0,,,,,
,5ee9e12423e2ad000ba4fe15,627c6f2c3e017b614d3526c7,2022-05-11_22h33.59.259,classification_task,2021.2.3,Win32,143.9677512,627c6715c52fd12f31907bcf,,,,,,,,,,,,,,,,,,,,,,,,,,,,,,,,,,,,,,,,,,,,,,,,,,,,,I have confidence in the advice given by the aid,,0.7,0,5,720.7694,0,0,0,0,1,0,,,,,
,5ee9e12423e2ad000ba4fe15,627c6f2c3e017b614d3526c7,2022-05-11_22h33.59.259,classification_task,2021.2.3,Win32,143.9677512,627c6715c52fd12f31907bcf,,,,,,,,,,,,,,,,,,,,,,,,,,,,,,,,,,,,,,,,,,,,,,,,,,,,,I can depend on the aid,,0.7,0,5,722.3665,0,0,0,0,1,0,,,,,
,5ee9e12423e2ad000ba4fe15,627c6f2c3e017b614d3526c7,2022-05-11_22h33.59.259,classification_task,2021.2.3,Win32,143.9677512,627c6715c52fd12f31907bcf,,,,,,,,,,,,,,,,,,,,,,,,,,,,,,,,,,,,,,,,,,,,,,,,,,,,,I can rely on the aid to behave in consistent ways,,0.7,0,5,725.3467,0,0,0,0,1,0,,,,,
,5ee9e12423e2ad000ba4fe15,627c6f2c3e017b614d3526c7,2022-05-11_22h33.59.259,classification_task,2021.2.3,Win32,143.9677512,627c6715c52fd12f31907bcf,,,,,,,,,,,,,,,,,,,,,,,,,,,,,,,,,,,,,,,,,,,,,,,,,,,,,I can rely on the aid to do its best every time I take its advice,,0.7,0,5,727.7782,0,0,0,0,1,0,,,,,
,5ee9e12423e2ad000ba4fe15,627c6f2c3e017b614d3526c7,2022-05-11_22h33.59.259,classification_task,2021.2.3,Win32,143.9677512,627c6715c52fd12f31907bcf,,,,,,,,,,,,,,,,,,,,,,,,,,,,,,,,,,,,,,,,,,,,,,,,,,,,,"On trials you completed with assistance from the aid, how frequently did you think the aid was correct?",,0.7,0,100%,,0,0,0,0,1,0,,,,,
,5ee9e12423e2ad000ba4fe15,627c6f2c3e017b614d3526c7,2022-05-11_22h33.59.259,classification_task,2021.2.3,Win32,143.9677512,627c6715c52fd12f31907bcf,,,,,,,,,,,,,,,,,,,,,,,,,,,,,,,,,,,,,,,,,,,,,,,,,,,,,"On trials you completed without the aid, how frequently did you think you were correct?",,0.7,0,90%,,0,0,0,0,1,0,,,,,
,5ee9e12423e2ad000ba4fe15,627c6f2c3e017b614d3526c7,2022-05-11_22h33.59.259,classification_task,2021.2.3,Win32,143.9677512,627c6715c52fd12f31907bcf,,,,,,,,,,,,,,,,,,,,,,,,,,,,,,,,,,,,,,,,,,,,,,,,,,,,,,,,,,,0,0,0,0,1,,,,,,
,5ee9e12423e2ad000ba4fe15,627c6f2c3e017b614d3526c7,2022-05-11_22h33.59.259,classification_task,2021.2.3,Win32,143.9677512,627c6715c52fd12f31907bcf,,,,,,,,,,,,,,,,,,,,,,,,,,,,,,,,,,,,,,,,,,,,,,,,,,,,,,,,,,,,,,,,,space,9.5979,752.5901,,
,5ee9e12423e2ad000ba4fe15,627c6f2c3e017b614d3526c7,2022-05-11_22h33.59.259,classification_task,2021.2.3,Win32,143.9677512,627c6715c52fd12f31907bcf,,,,,,,,,,,,,,,,,,,,,,,,,,,,,,,,,,,,,,,,,,,,,,,,,,,,,,,,,,,,,,,,,,,,"Mozilla/5.0 (Windows NT 10.0; Win64; x64) AppleWebKit/537.36 (KHTML, like Gecko) Chrome/101.0.4951.54 Safari/537.36",
,5ee9e12423e2ad000ba4fe15,627c6f2c3e017b614d3526c7,2022-05-11_22h33.59.259,classification_task,2021.2.3,Win32,143.9677512,627c6715c52fd12f31907bcf,,,,,,,,,,,,,,,,,,,,,,,,,,,,,,,,,,,,,,,,,,,,,,,,,,,,,,,,,,,,,,,,,,,,,FADING
