usingWebGL,participant,session,date,expName,psychopyVersion,OS,frameRate,PROLIFIC_PID,STUDY_ID,SESSION_ID,signatures_friend,signatures_foe,band_ranges_top,band_ranges_bottom,formitemText,formtype,formundefined,formitemWidth,formindex,formresponse,formrt,key_resp_2.keys,key_resp_2.rt,tute_resp.keys,tute_resp.rt,tutorial.thisRepN,tutorial.thisTrialN,tutorial.thisN,tutorial.thisIndex,tutorial.ran,key_resp_4.keys,key_resp_4.rt,key_resp.keys,key_resp.corr,key_resp.rt,lines_presented,is_signal_presented,trials.thisRepN,trials.thisTrialN,trials.thisN,trials.thisIndex,trials.ran,vessel,active_band,lines,is_signal,supported_pos,catch_trial,debrief_formindex,debrief_formitemText,debrief_formtype,debrief_formitemWidth,debrief_formresponse,debrief_formrt,phases.thisRepN,phases.thisTrialN,phases.thisN,phases.thisIndex,phases.ran,phases.order,phase,key_resp_3.keys,trustitemText,trusttype,trustitemWidth,trustindex,trustresponse,trustrt,support_status.thisRepN,support_status.thisTrialN,support_status.thisN,support_status.thisIndex,support_status.ran,support_status.order,key_resp_5.keys,key_resp_5.rt,globalClockTime,userAgent
TRUE,5ef0eb65b242da18098cff78,001,2022-04-28_20h07.13.669,classification_task,2021.2.3,Win32,59.80145916,5ef0eb65b242da18098cff78,626b377229c10585ec392f89,626b39ffb0c628ea2af49a8f,,,,,,,,,,,,,,,,,,,,,,,,,,,,,,,,,,,,,,,,,,,,,,,,,,,,,,,,,,,,,,,,,,,,
,5ef0eb65b242da18098cff78,001,2022-04-28_20h07.13.669,classification_task,2021.2.3,Win32,59.80145916,5ef0eb65b242da18098cff78,626b377229c10585ec392f89,626b39ffb0c628ea2af49a8f,"[[""0.192"",""0.396"",""0.886"",""0.971""],[""0.230"",""0.355"",""0.726"",""0.937""]]","[[""0.102"",""0.299"",""0.480"",""0.763""],[""0.056"",""0.138"",""0.600"",""0.803""]]","[1,10]","[100,1000]",Video game experience,,,0.7,0,,,,,,,,,,,,,,,,,,,,,,,,,,,,,,,,,,,,,,,,,,,,,,,,,,,,,,,,,,,
,5ef0eb65b242da18098cff78,001,2022-04-28_20h07.13.669,classification_task,2021.2.3,Win32,59.80145916,5ef0eb65b242da18098cff78,626b377229c10585ec392f89,626b39ffb0c628ea2af49a8f,,,,,Approximately how many hours did you spend playing video games in the last week?,,,0.7,0,7,,,,,,,,,,,,,,,,,,,,,,,,,,,,,,,,,,,,,,,,,,,,,,,,,,,,,,,,,,
,5ef0eb65b242da18098cff78,001,2022-04-28_20h07.13.669,classification_task,2021.2.3,Win32,59.80145916,5ef0eb65b242da18098cff78,626b377229c10585ec392f89,626b39ffb0c628ea2af49a8f,,,,,"Which game did you play the most this year? (Enter ""None"" if you didn't play any)",,,0.7,0,Halo,,,,,,,,,,,,,,,,,,,,,,,,,,,,,,,,,,,,,,,,,,,,,,,,,,,,,,,,,,
,5ef0eb65b242da18098cff78,001,2022-04-28_20h07.13.669,classification_task,2021.2.3,Win32,59.80145916,5ef0eb65b242da18098cff78,626b377229c10585ec392f89,626b39ffb0c628ea2af49a8f,,,,,Visual perception,,,0.7,0,,,,,,,,,,,,,,,,,,,,,,,,,,,,,,,,,,,,,,,,,,,,,,,,,,,,,,,,,,,
,5ef0eb65b242da18098cff78,001,2022-04-28_20h07.13.669,classification_task,2021.2.3,Win32,59.80145916,5ef0eb65b242da18098cff78,626b377229c10585ec392f89,626b39ffb0c628ea2af49a8f,,,,,Do you have any form of color blindness?,,,0.7,0,No,20.1766,,,,,,,,,,,,,,,,,,,,,,,,,,,,,,,,,,,,,,,,,,,,,,,,,,,,,,,,,
,5ef0eb65b242da18098cff78,001,2022-04-28_20h07.13.669,classification_task,2021.2.3,Win32,59.80145916,5ef0eb65b242da18098cff78,626b377229c10585ec392f89,626b39ffb0c628ea2af49a8f,,,,,Do you use software to change the colour temperature of your screen (e.g. f.lux)?,,,0.7,0,No,34.6815,,,,,,,,,,,,,,,,,,,,,,,,,,,,,,,,,,,,,,,,,,,,,,,,,,,,,,,,,
,5ef0eb65b242da18098cff78,001,2022-04-28_20h07.13.669,classification_task,2021.2.3,Win32,59.80145916,5ef0eb65b242da18098cff78,626b377229c10585ec392f89,626b39ffb0c628ea2af49a8f,,,,,,,,,,,,space,93.0873,space,8.9587,0,0,0,0,1,,,,,,,,,,,,,,,,,,,,,,,,,,,,,,,,,,,,,,,,,,,,,,,,
,5ef0eb65b242da18098cff78,001,2022-04-28_20h07.13.669,classification_task,2021.2.3,Win32,59.80145916,5ef0eb65b242da18098cff78,626b377229c10585ec392f89,626b39ffb0c628ea2af49a8f,,,,,,,,,,,,,,space,13.8962,1,0,1,0,1,,,,,,,,,,,,,,,,,,,,,,,,,,,,,,,,,,,,,,,,,,,,,,,,
,5ef0eb65b242da18098cff78,001,2022-04-28_20h07.13.669,classification_task,2021.2.3,Win32,59.80145916,5ef0eb65b242da18098cff78,626b377229c10585ec392f89,626b39ffb0c628ea2af49a8f,,,,,,,,,,,,,,space,44.4332,2,0,2,0,1,,,,,,,,,,,,,,,,,,,,,,,,,,,,,,,,,,,,,,,,,,,,,,,,
,5ef0eb65b242da18098cff78,001,2022-04-28_20h07.13.669,classification_task,2021.2.3,Win32,59.80145916,5ef0eb65b242da18098cff78,626b377229c10585ec392f89,626b39ffb0c628ea2af49a8f,,,,,,,,,,,,,,space,11.3862,3,0,3,0,1,,,,,,,,,,,,,,,,,,,,,,,,,,,,,,,,,,,,,,,,,,,,,,,,
,5ef0eb65b242da18098cff78,001,2022-04-28_20h07.13.669,classification_task,2021.2.3,Win32,59.80145916,5ef0eb65b242da18098cff78,626b377229c10585ec392f89,626b39ffb0c628ea2af49a8f,,,,,,,,,,,,,,space,26.6514,4,0,4,0,1,,,,,,,,,,,,,,,,,,,,,,,,,,,,,,,,,,,,,,,,,,,,,,,,
,5ef0eb65b242da18098cff78,001,2022-04-28_20h07.13.669,classification_task,2021.2.3,Win32,59.80145916,5ef0eb65b242da18098cff78,626b377229c10585ec392f89,626b39ffb0c628ea2af49a8f,,,,,,,,,,,,,,,,,,,,,space,9.7165,l,1,4.5234,"[""0.102"",""0.532"",""0.480"",""0.763""]","[1,0,1,1]",0,0,0,0,1,1,0,,,0,FALSE,,,,,,,,,,,,,,,,,,,,,,,,,,,,,,
,5ef0eb65b242da18098cff78,001,2022-04-28_20h07.13.669,classification_task,2021.2.3,Win32,59.80145916,5ef0eb65b242da18098cff78,626b377229c10585ec392f89,626b39ffb0c628ea2af49a8f,,,,,,,,,,,,,,,,,,,,,,,l,1,3.8722,"[""0.056"",""0.534"",""0.600"",""0.803""]","[1,0,1,1]",0,1,1,1,1,1,1,,,0,FALSE,,,,,,,,,,,,,,,,,,,,,,,,,,,,,,
,5ef0eb65b242da18098cff78,001,2022-04-28_20h07.13.669,classification_task,2021.2.3,Win32,59.80145916,5ef0eb65b242da18098cff78,626b377229c10585ec392f89,626b39ffb0c628ea2af49a8f,,,,,,,,,,,,,,,,,,,,,,,l,1,2.5134,"[""0.056"",""0.138"",""0.600"",""0.532""]","[1,1,1,0]",0,2,2,2,1,1,1,,,0,FALSE,,,,,,,,,,,,,,,,,,,,,,,,,,,,,,
,5ef0eb65b242da18098cff78,001,2022-04-28_20h07.13.669,classification_task,2021.2.3,Win32,59.80145916,5ef0eb65b242da18098cff78,626b377229c10585ec392f89,626b39ffb0c628ea2af49a8f,,,,,,,,,,,,,,,,,,,,,,,a,1,2.3641,"[""0.192"",""0.396"",""0.886"",""0.849""]","[1,1,1,0]",0,3,3,3,1,0,0,,,0,FALSE,,,,,,,,,,,,,,,,,,,,,,,,,,,,,,
,5ef0eb65b242da18098cff78,001,2022-04-28_20h07.13.669,classification_task,2021.2.3,Win32,59.80145916,5ef0eb65b242da18098cff78,626b377229c10585ec392f89,626b39ffb0c628ea2af49a8f,,,,,,,,,,,,,,,,,,,,,,,a,1,2.0782,"[""0.192"",""0.396"",""0.661"",""0.971""]","[1,1,0,1]",0,4,4,4,1,0,0,,,0,FALSE,,,,,,,,,,,,,,,,,,,,,,,,,,,,,,
,5ef0eb65b242da18098cff78,001,2022-04-28_20h07.13.669,classification_task,2021.2.3,Win32,59.80145916,5ef0eb65b242da18098cff78,626b377229c10585ec392f89,626b39ffb0c628ea2af49a8f,,,,,,,,,,,,,,,,,,,,,,,a,1,2.2985,"[""0.230"",""0.265"",""0.726"",""0.937""]","[1,0,1,1]",0,5,5,5,1,0,1,,,0,FALSE,,,,,,,,,,,,,,,,,,,,,,,,,,,,,,
,5ef0eb65b242da18098cff78,001,2022-04-28_20h07.13.669,classification_task,2021.2.3,Win32,59.80145916,5ef0eb65b242da18098cff78,626b377229c10585ec392f89,626b39ffb0c628ea2af49a8f,,,,,,,,,,,,,,,,,,,,,,,a,1,1.9636,"[""0.230"",""0.355"",""0.726"",""0.550""]","[1,1,1,0]",0,6,6,6,1,0,1,,,0,FALSE,,,,,,,,,,,,,,,,,,,,,,,,,,,,,,
,5ef0eb65b242da18098cff78,001,2022-04-28_20h07.13.669,classification_task,2021.2.3,Win32,59.80145916,5ef0eb65b242da18098cff78,626b377229c10585ec392f89,626b39ffb0c628ea2af49a8f,,,,,,,,,,,,,,,,,,,,,,,l,1,9.0341,"[""0.556"",""0.299"",""0.480"",""0.763""]","[0,1,1,1]",0,7,7,7,1,1,0,,,0,FALSE,,,,,,,,,,,,,,,,,,,,,,,,,,,,,,
,5ef0eb65b242da18098cff78,001,2022-04-28_20h07.13.669,classification_task,2021.2.3,Win32,59.80145916,5ef0eb65b242da18098cff78,626b377229c10585ec392f89,626b39ffb0c628ea2af49a8f,,,,,,,,,,,,,,,,,,,,,,,l,1,2.2607,"[""0.102"",""0.299"",""0.539"",""0.763""]","[1,1,0,1]",0,8,8,8,1,1,0,,,0,FALSE,,,,,,,,,,,,,,,,,,,,,,,,,,,,,,
,5ef0eb65b242da18098cff78,001,2022-04-28_20h07.13.669,classification_task,2021.2.3,Win32,59.80145916,5ef0eb65b242da18098cff78,626b377229c10585ec392f89,626b39ffb0c628ea2af49a8f,,,,,,,,,,,,,,,,,,,,,,,l,1,8.2415,"[""0.661"",""0.138"",""0.600"",""0.803""]","[0,1,1,1]",0,9,9,9,1,1,1,,,0,FALSE,,,,,,,,,,,,,,,,,,,,,,,,,,,,,,
,5ef0eb65b242da18098cff78,001,2022-04-28_20h07.13.669,classification_task,2021.2.3,Win32,59.80145916,5ef0eb65b242da18098cff78,626b377229c10585ec392f89,626b39ffb0c628ea2af49a8f,,,,,,,,,,,,,,,,,,,,,,,l,1,3.6445,"[""0.056"",""0.138"",""0.678"",""0.803""]","[1,1,0,1]",0,10,10,10,1,1,1,,,0,FALSE,,,,,,,,,,,,,,,,,,,,,,,,,,,,,,
,5ef0eb65b242da18098cff78,001,2022-04-28_20h07.13.669,classification_task,2021.2.3,Win32,59.80145916,5ef0eb65b242da18098cff78,626b377229c10585ec392f89,626b39ffb0c628ea2af49a8f,,,,,,,,,,,,,,,,,,,,,,,a,1,2.6483,"[""0.230"",""0.355"",""0.661"",""0.937""]","[1,1,0,1]",0,11,11,11,1,0,1,,,0,FALSE,,,,,,,,,,,,,,,,,,,,,,,,,,,,,,
,5ef0eb65b242da18098cff78,001,2022-04-28_20h07.13.669,classification_task,2021.2.3,Win32,59.80145916,5ef0eb65b242da18098cff78,626b377229c10585ec392f89,626b39ffb0c628ea2af49a8f,,,,,,,,,,,,,,,,,,,,,,,l,1,4.0263,"[""0.102"",""0.299"",""0.480"",""0.652""]","[1,1,1,0]",0,12,12,12,1,1,0,,,0,FALSE,,,,,,,,,,,,,,,,,,,,,,,,,,,,,,
,5ef0eb65b242da18098cff78,001,2022-04-28_20h07.13.669,classification_task,2021.2.3,Win32,59.80145916,5ef0eb65b242da18098cff78,626b377229c10585ec392f89,626b39ffb0c628ea2af49a8f,,,,,,,,,,,,,,,,,,,,,,,a,1,2.1972,"[""0.192"",""0.265"",""0.886"",""0.971""]","[1,0,1,1]",0,13,13,13,1,0,0,,,0,FALSE,,,,,,,,,,,,,,,,,,,,,,,,,,,,,,
,5ef0eb65b242da18098cff78,001,2022-04-28_20h07.13.669,classification_task,2021.2.3,Win32,59.80145916,5ef0eb65b242da18098cff78,626b377229c10585ec392f89,626b39ffb0c628ea2af49a8f,,,,,,,,,,,,,,,,,,,,,,,a,1,4.7094,"[""0.556"",""0.396"",""0.886"",""0.971""]","[0,1,1,1]",0,14,14,14,1,0,0,,,0,FALSE,,,,,,,,,,,,,,,,,,,,,,,,,,,,,,
,5ef0eb65b242da18098cff78,001,2022-04-28_20h07.13.669,classification_task,2021.2.3,Win32,59.80145916,5ef0eb65b242da18098cff78,626b377229c10585ec392f89,626b39ffb0c628ea2af49a8f,,,,,,,,,,,,,,,,,,,,,,,a,1,4.0921,"[""0.534"",""0.355"",""0.726"",""0.937""]","[0,1,1,1]",0,15,15,15,1,0,1,,,0,FALSE,,,,,,,,,,,,,,,,,,,,,,,,,,,,,,
,5ef0eb65b242da18098cff78,001,2022-04-28_20h07.13.669,classification_task,2021.2.3,Win32,59.80145916,5ef0eb65b242da18098cff78,626b377229c10585ec392f89,626b39ffb0c628ea2af49a8f,,,,,,,,,,,,,,,,,,,,,,,a,1,3.5954,"[""0.661"",""0.355"",""0.726"",""0.937""]","[0,1,1,1]",0,16,16,16,1,0,1,,,0,FALSE,,,,,,,,,,,,,,,,,,,,,,,,,,,,,,
,5ef0eb65b242da18098cff78,001,2022-04-28_20h07.13.669,classification_task,2021.2.3,Win32,59.80145916,5ef0eb65b242da18098cff78,626b377229c10585ec392f89,626b39ffb0c628ea2af49a8f,,,,,,,,,,,,,,,,,,,,,,,a,1,2.0788,"[""0.230"",""0.521"",""0.726"",""0.937""]","[1,0,1,1]",0,17,17,17,1,0,1,,,0,FALSE,,,,,,,,,,,,,,,,,,,,,,,,,,,,,,
,5ef0eb65b242da18098cff78,001,2022-04-28_20h07.13.669,classification_task,2021.2.3,Win32,59.80145916,5ef0eb65b242da18098cff78,626b377229c10585ec392f89,626b39ffb0c628ea2af49a8f,,,,,,,,,,,,,,,,,,,,,,,a,1,1.5992,"[""0.230"",""0.355"",""0.652"",""0.937""]","[1,1,0,1]",0,18,18,18,1,0,1,,,0,FALSE,,,,,,,,,,,,,,,,,,,,,,,,,,,,,,
,5ef0eb65b242da18098cff78,001,2022-04-28_20h07.13.669,classification_task,2021.2.3,Win32,59.80145916,5ef0eb65b242da18098cff78,626b377229c10585ec392f89,626b39ffb0c628ea2af49a8f,,,,,,,,,,,,,,,,,,,,,,,l,1,3.5861,"[""0.102"",""0.562"",""0.480"",""0.763""]","[1,0,1,1]",0,19,19,19,1,1,0,,,0,FALSE,,,,,,,,,,,,,,,,,,,,,,,,,,,,,,
,5ef0eb65b242da18098cff78,001,2022-04-28_20h07.13.669,classification_task,2021.2.3,Win32,59.80145916,5ef0eb65b242da18098cff78,626b377229c10585ec392f89,626b39ffb0c628ea2af49a8f,,,,,,,,,,,,,,,,,,,,,,,l,1,3.1213,"[""0.056"",""0.138"",""0.669"",""0.803""]","[1,1,0,1]",0,20,20,20,1,1,1,,,0,FALSE,,,,,,,,,,,,,,,,,,,,,,,,,,,,,,
,5ef0eb65b242da18098cff78,001,2022-04-28_20h07.13.669,classification_task,2021.2.3,Win32,59.80145916,5ef0eb65b242da18098cff78,626b377229c10585ec392f89,626b39ffb0c628ea2af49a8f,,,,,,,,,,,,,,,,,,,,,,,a,1,2.4294,"[""0.230"",""0.355"",""0.726"",""0.562""]","[1,1,1,0]",0,21,21,21,1,0,1,,,0,FALSE,,,,,,,,,,,,,,,,,,,,,,,,,,,,,,
,5ef0eb65b242da18098cff78,001,2022-04-28_20h07.13.669,classification_task,2021.2.3,Win32,59.80145916,5ef0eb65b242da18098cff78,626b377229c10585ec392f89,626b39ffb0c628ea2af49a8f,,,,,,,,,,,,,,,,,,,,,,,a,1,2.3126,"[""0.192"",""0.396"",""0.562"",""0.971""]","[1,1,0,1]",0,22,22,22,1,0,0,,,0,FALSE,,,,,,,,,,,,,,,,,,,,,,,,,,,,,,
,5ef0eb65b242da18098cff78,001,2022-04-28_20h07.13.669,classification_task,2021.2.3,Win32,59.80145916,5ef0eb65b242da18098cff78,626b377229c10585ec392f89,626b39ffb0c628ea2af49a8f,,,,,,,,,,,,,,,,,,,,,,,l,1,2.343,"[""0.056"",""0.669"",""0.600"",""0.803""]","[1,0,1,1]",0,23,23,23,1,1,1,,,0,FALSE,,,,,,,,,,,,,,,,,,,,,,,,,,,,,,
,5ef0eb65b242da18098cff78,001,2022-04-28_20h07.13.669,classification_task,2021.2.3,Win32,59.80145916,5ef0eb65b242da18098cff78,626b377229c10585ec392f89,626b39ffb0c628ea2af49a8f,,,,,,,,,,,,,,,,,,,,,,,l,1,3.6902,"[""0.661"",""0.299"",""0.480"",""0.763""]","[0,1,1,1]",0,24,24,24,1,1,0,,,0,FALSE,,,,,,,,,,,,,,,,,,,,,,,,,,,,,,
,5ef0eb65b242da18098cff78,001,2022-04-28_20h07.13.669,classification_task,2021.2.3,Win32,59.80145916,5ef0eb65b242da18098cff78,626b377229c10585ec392f89,626b39ffb0c628ea2af49a8f,,,,,,,,,,,,,,,,,,,,,,,l,1,2.2953,"[""0.102"",""0.299"",""0.521"",""0.763""]","[1,1,0,1]",0,25,25,25,1,1,0,,,0,FALSE,,,,,,,,,,,,,,,,,,,,,,,,,,,,,,
,5ef0eb65b242da18098cff78,001,2022-04-28_20h07.13.669,classification_task,2021.2.3,Win32,59.80145916,5ef0eb65b242da18098cff78,626b377229c10585ec392f89,626b39ffb0c628ea2af49a8f,,,,,,,,,,,,,,,,,,,,,,,a,1,2.2092,"[""0.192"",""0.396"",""0.886"",""0.562""]","[1,1,1,0]",0,26,26,26,1,0,0,,,0,FALSE,,,,,,,,,,,,,,,,,,,,,,,,,,,,,,
,5ef0eb65b242da18098cff78,001,2022-04-28_20h07.13.669,classification_task,2021.2.3,Win32,59.80145916,5ef0eb65b242da18098cff78,626b377229c10585ec392f89,626b39ffb0c628ea2af49a8f,,,,,,,,,,,,,,,,,,,,,,,a,1,1.8546,"[""0.192"",""0.840"",""0.886"",""0.971""]","[1,0,1,1]",0,27,27,27,1,0,0,,,0,FALSE,,,,,,,,,,,,,,,,,,,,,,,,,,,,,,
,5ef0eb65b242da18098cff78,001,2022-04-28_20h07.13.669,classification_task,2021.2.3,Win32,59.80145916,5ef0eb65b242da18098cff78,626b377229c10585ec392f89,626b39ffb0c628ea2af49a8f,,,,,,,,,,,,,,,,,,,,,,,a,1,4.4937,"[""0.849"",""0.396"",""0.886"",""0.971""]","[0,1,1,1]",0,28,28,28,1,0,0,,,0,FALSE,,,,,,,,,,,,,,,,,,,,,,,,,,,,,,
,5ef0eb65b242da18098cff78,001,2022-04-28_20h07.13.669,classification_task,2021.2.3,Win32,59.80145916,5ef0eb65b242da18098cff78,626b377229c10585ec392f89,626b39ffb0c628ea2af49a8f,,,,,,,,,,,,,,,,,,,,,,,l,1,2.3318,"[""0.102"",""0.299"",""0.480"",""0.652""]","[1,1,1,0]",0,29,29,29,1,1,0,,,0,FALSE,,,,,,,,,,,,,,,,,,,,,,,,,,,,,,
,5ef0eb65b242da18098cff78,001,2022-04-28_20h07.13.669,classification_task,2021.2.3,Win32,59.80145916,5ef0eb65b242da18098cff78,626b377229c10585ec392f89,626b39ffb0c628ea2af49a8f,,,,,,,,,,,,,,,,,,,,,,,l,1,3.7057,"[""0.056"",""0.138"",""0.600"",""0.840""]","[1,1,1,0]",0,30,30,30,1,1,1,,,0,FALSE,,,,,,,,,,,,,,,,,,,,,,,,,,,,,,
,5ef0eb65b242da18098cff78,001,2022-04-28_20h07.13.669,classification_task,2021.2.3,Win32,59.80145916,5ef0eb65b242da18098cff78,626b377229c10585ec392f89,626b39ffb0c628ea2af49a8f,,,,,,,,,,,,,,,,,,,,,,,l,1,3.015,"[""0.556"",""0.138"",""0.600"",""0.803""]","[0,1,1,1]",0,31,31,31,1,1,1,,,0,FALSE,,,,,,,,,,,,,,,,,,,,,,,,,,,,,,
,5ef0eb65b242da18098cff78,001,2022-04-28_20h07.13.669,classification_task,2021.2.3,Win32,59.80145916,5ef0eb65b242da18098cff78,626b377229c10585ec392f89,626b39ffb0c628ea2af49a8f,,,,,,,,,,,,,,,,,,,,,,,a,1,5.754,"[""0.192"",""0.396"",""0.678"",""0.971""]","[1,1,0,1]",0,32,32,32,1,0,0,,,0,FALSE,,,,,,,,,,,,,,,,,,,,,,,,,,,,,,
,5ef0eb65b242da18098cff78,001,2022-04-28_20h07.13.669,classification_task,2021.2.3,Win32,59.80145916,5ef0eb65b242da18098cff78,626b377229c10585ec392f89,626b39ffb0c628ea2af49a8f,,,,,,,,,,,,,,,,,,,,,,,l,0,2.5633,"[""0.230"",""0.355"",""0.265"",""0.937""]","[1,1,0,1]",0,33,33,33,1,0,1,,,0,FALSE,,,,,,,,,,,,,,,,,,,,,,,,,,,,,,
,5ef0eb65b242da18098cff78,001,2022-04-28_20h07.13.669,classification_task,2021.2.3,Win32,59.80145916,5ef0eb65b242da18098cff78,626b377229c10585ec392f89,626b39ffb0c628ea2af49a8f,,,,,,,,,,,,,,,,,,,,,,,a,0,1.6656,"[""0.102"",""0.299"",""0.480"",""0.664""]","[1,1,1,0]",0,34,34,34,1,1,0,,,0,FALSE,,,,,,,,,,,,,,,,,,,,,,,,,,,,,,
,5ef0eb65b242da18098cff78,001,2022-04-28_20h07.13.669,classification_task,2021.2.3,Win32,59.80145916,5ef0eb65b242da18098cff78,626b377229c10585ec392f89,626b39ffb0c628ea2af49a8f,,,,,,,,,,,,,,,,,,,,,,,a,1,1.2841,"[""0.192"",""0.396"",""0.886"",""0.652""]","[1,1,1,0]",0,35,35,35,1,0,0,,,0,FALSE,,,,,,,,,,,,,,,,,,,,,,,,,,,,,,
,5ef0eb65b242da18098cff78,001,2022-04-28_20h07.13.669,classification_task,2021.2.3,Win32,59.80145916,5ef0eb65b242da18098cff78,626b377229c10585ec392f89,626b39ffb0c628ea2af49a8f,,,,,,,,,,,,,,,,,,,,,,,l,0,1.1344,"[""0.230"",""0.355"",""0.726"",""0.534""]","[1,1,1,0]",0,36,36,36,1,0,1,,,0,FALSE,,,,,,,,,,,,,,,,,,,,,,,,,,,,,,
,5ef0eb65b242da18098cff78,001,2022-04-28_20h07.13.669,classification_task,2021.2.3,Win32,59.80145916,5ef0eb65b242da18098cff78,626b377229c10585ec392f89,626b39ffb0c628ea2af49a8f,,,,,,,,,,,,,,,,,,,,,,,l,1,2.9975,"[""0.534"",""0.138"",""0.600"",""0.803""]","[0,1,1,1]",0,37,37,37,1,1,1,,,0,FALSE,,,,,,,,,,,,,,,,,,,,,,,,,,,,,,
,5ef0eb65b242da18098cff78,001,2022-04-28_20h07.13.669,classification_task,2021.2.3,Win32,59.80145916,5ef0eb65b242da18098cff78,626b377229c10585ec392f89,626b39ffb0c628ea2af49a8f,,,,,,,,,,,,,,,,,,,,,,,a,1,1.5263,"[""0.661"",""0.396"",""0.886"",""0.971""]","[0,1,1,1]",0,38,38,38,1,0,0,,,0,FALSE,,,,,,,,,,,,,,,,,,,,,,,,,,,,,,
,5ef0eb65b242da18098cff78,001,2022-04-28_20h07.13.669,classification_task,2021.2.3,Win32,59.80145916,5ef0eb65b242da18098cff78,626b377229c10585ec392f89,626b39ffb0c628ea2af49a8f,,,,,,,,,,,,,,,,,,,,,,,a,0,1.2774,"[""0.056"",""0.138"",""0.600"",""0.678""]","[1,1,1,0]",0,39,39,39,1,1,1,,,0,FALSE,,,,,,,,,,,,,,,,,,,,,,,,,,,,,,
,5ef0eb65b242da18098cff78,001,2022-04-28_20h07.13.669,classification_task,2021.2.3,Win32,59.80145916,5ef0eb65b242da18098cff78,626b377229c10585ec392f89,626b39ffb0c628ea2af49a8f,,,,,,,,,,,,,,,,,,,,,,,l,1,2.4478,"[""0.056"",""0.661"",""0.600"",""0.803""]","[1,0,1,1]",0,40,40,40,1,1,1,,,0,FALSE,,,,,,,,,,,,,,,,,,,,,,,,,,,,,,
,5ef0eb65b242da18098cff78,001,2022-04-28_20h07.13.669,classification_task,2021.2.3,Win32,59.80145916,5ef0eb65b242da18098cff78,626b377229c10585ec392f89,626b39ffb0c628ea2af49a8f,,,,,,,,,,,,,,,,,,,,,,,l,1,2.0129,"[""0.678"",""0.299"",""0.480"",""0.763""]","[0,1,1,1]",0,41,41,41,1,1,0,,,0,FALSE,,,,,,,,,,,,,,,,,,,,,,,,,,,,,,
,5ef0eb65b242da18098cff78,001,2022-04-28_20h07.13.669,classification_task,2021.2.3,Win32,59.80145916,5ef0eb65b242da18098cff78,626b377229c10585ec392f89,626b39ffb0c628ea2af49a8f,,,,,,,,,,,,,,,,,,,,,,,l,1,2.6152,"[""0.102"",""0.299"",""0.676"",""0.763""]","[1,1,0,1]",0,42,42,42,1,1,0,,,0,FALSE,,,,,,,,,,,,,,,,,,,,,,,,,,,,,,
,5ef0eb65b242da18098cff78,001,2022-04-28_20h07.13.669,classification_task,2021.2.3,Win32,59.80145916,5ef0eb65b242da18098cff78,626b377229c10585ec392f89,626b39ffb0c628ea2af49a8f,,,,,,,,,,,,,,,,,,,,,,,l,0,2.5832,"[""0.532"",""0.355"",""0.726"",""0.937""]","[0,1,1,1]",0,43,43,43,1,0,1,,,0,FALSE,,,,,,,,,,,,,,,,,,,,,,,,,,,,,,
,5ef0eb65b242da18098cff78,001,2022-04-28_20h07.13.669,classification_task,2021.2.3,Win32,59.80145916,5ef0eb65b242da18098cff78,626b377229c10585ec392f89,626b39ffb0c628ea2af49a8f,,,,,,,,,,,,,,,,,,,,,,,l,0,3.0593,"[""0.230"",""0.676"",""0.726"",""0.937""]","[1,0,1,1]",0,44,44,44,1,0,1,,,0,FALSE,,,,,,,,,,,,,,,,,,,,,,,,,,,,,,
,5ef0eb65b242da18098cff78,001,2022-04-28_20h07.13.669,classification_task,2021.2.3,Win32,59.80145916,5ef0eb65b242da18098cff78,626b377229c10585ec392f89,626b39ffb0c628ea2af49a8f,,,,,,,,,,,,,,,,,,,,,,,l,1,1.8603,"[""0.102"",""0.840"",""0.480"",""0.763""]","[1,0,1,1]",0,45,45,45,1,1,0,,,0,FALSE,,,,,,,,,,,,,,,,,,,,,,,,,,,,,,
,5ef0eb65b242da18098cff78,001,2022-04-28_20h07.13.669,classification_task,2021.2.3,Win32,59.80145916,5ef0eb65b242da18098cff78,626b377229c10585ec392f89,626b39ffb0c628ea2af49a8f,,,,,,,,,,,,,,,,,,,,,,,l,1,2.9061,"[""0.056"",""0.138"",""0.550"",""0.803""]","[1,1,0,1]",0,46,46,46,1,1,1,,,0,FALSE,,,,,,,,,,,,,,,,,,,,,,,,,,,,,,
,5ef0eb65b242da18098cff78,001,2022-04-28_20h07.13.669,classification_task,2021.2.3,Win32,59.80145916,5ef0eb65b242da18098cff78,626b377229c10585ec392f89,626b39ffb0c628ea2af49a8f,,,,,,,,,,,,,,,,,,,,,,,l,0,2.3777,"[""0.192"",""0.562"",""0.886"",""0.971""]","[1,0,1,1]",0,47,47,47,1,0,0,,,0,FALSE,,,,,,,,,,,,,,,,,,,,,,,,,,,,,,
,5ef0eb65b242da18098cff78,001,2022-04-28_20h07.13.669,classification_task,2021.2.3,Win32,59.80145916,5ef0eb65b242da18098cff78,626b377229c10585ec392f89,626b39ffb0c628ea2af49a8f,,,,,,,,,,,,,,,,,,,,,,,a,1,1.749,"[""0.230"",""0.355"",""0.726"",""0.532""]","[1,1,1,0]",0,48,48,48,1,0,1,,,0,FALSE,,,,,,,,,,,,,,,,,,,,,,,,,,,,,,
,5ef0eb65b242da18098cff78,001,2022-04-28_20h07.13.669,classification_task,2021.2.3,Win32,59.80145916,5ef0eb65b242da18098cff78,626b377229c10585ec392f89,626b39ffb0c628ea2af49a8f,,,,,,,,,,,,,,,,,,,,,,,l,1,2.5841,"[""0.056"",""0.138"",""0.532"",""0.803""]","[1,1,0,1]",0,49,49,49,1,1,1,,,0,FALSE,,,,,,,,,,,,,,,,,,,,,,,,,,,,,,
,5ef0eb65b242da18098cff78,001,2022-04-28_20h07.13.669,classification_task,2021.2.3,Win32,59.80145916,5ef0eb65b242da18098cff78,626b377229c10585ec392f89,626b39ffb0c628ea2af49a8f,,,,,,,,,,,,,,,,,,,,,,,l,1,1.1812,"[""0.102"",""0.299"",""0.840"",""0.763""]","[1,1,0,1]",0,50,50,50,1,1,0,,,0,FALSE,,,,,,,,,,,,,,,,,,,,,,,,,,,,,,
,5ef0eb65b242da18098cff78,001,2022-04-28_20h07.13.669,classification_task,2021.2.3,Win32,59.80145916,5ef0eb65b242da18098cff78,626b377229c10585ec392f89,626b39ffb0c628ea2af49a8f,,,,,,,,,,,,,,,,,,,,,,,l,1,2.0497,"[""0.056"",""0.539"",""0.600"",""0.803""]","[1,0,1,1]",0,51,51,51,1,1,1,,,0,FALSE,,,,,,,,,,,,,,,,,,,,,,,,,,,,,,
,5ef0eb65b242da18098cff78,001,2022-04-28_20h07.13.669,classification_task,2021.2.3,Win32,59.80145916,5ef0eb65b242da18098cff78,626b377229c10585ec392f89,626b39ffb0c628ea2af49a8f,,,,,,,,,,,,,,,,,,,,,,,l,0,0.7463,"[""0.192"",""0.562"",""0.886"",""0.971""]","[1,0,1,1]",0,52,52,52,1,0,0,,,0,FALSE,,,,,,,,,,,,,,,,,,,,,,,,,,,,,,
,5ef0eb65b242da18098cff78,001,2022-04-28_20h07.13.669,classification_task,2021.2.3,Win32,59.80145916,5ef0eb65b242da18098cff78,626b377229c10585ec392f89,626b39ffb0c628ea2af49a8f,,,,,,,,,,,,,,,,,,,,,,,a,1,2.5794,"[""0.230"",""0.532"",""0.726"",""0.937""]","[1,0,1,1]",0,53,53,53,1,0,1,,,0,FALSE,,,,,,,,,,,,,,,,,,,,,,,,,,,,,,
,5ef0eb65b242da18098cff78,001,2022-04-28_20h07.13.669,classification_task,2021.2.3,Win32,59.80145916,5ef0eb65b242da18098cff78,626b377229c10585ec392f89,626b39ffb0c628ea2af49a8f,,,,,,,,,,,,,,,,,,,,,,,l,0,2.6242,"[""0.678"",""0.396"",""0.886"",""0.971""]","[0,1,1,1]",0,54,54,54,1,0,0,,,0,FALSE,,,,,,,,,,,,,,,,,,,,,,,,,,,,,,
,5ef0eb65b242da18098cff78,001,2022-04-28_20h07.13.669,classification_task,2021.2.3,Win32,59.80145916,5ef0eb65b242da18098cff78,626b377229c10585ec392f89,626b39ffb0c628ea2af49a8f,,,,,,,,,,,,,,,,,,,,,,,l,0,1.2947,"[""0.669"",""0.355"",""0.726"",""0.937""]","[0,1,1,1]",0,55,55,55,1,0,1,,,0,FALSE,,,,,,,,,,,,,,,,,,,,,,,,,,,,,,
,5ef0eb65b242da18098cff78,001,2022-04-28_20h07.13.669,classification_task,2021.2.3,Win32,59.80145916,5ef0eb65b242da18098cff78,626b377229c10585ec392f89,626b39ffb0c628ea2af49a8f,,,,,,,,,,,,,,,,,,,,,,,l,0,2.1305,"[""0.192"",""0.396"",""0.886"",""0.534""]","[1,1,1,0]",0,56,56,56,1,0,0,,,0,FALSE,,,,,,,,,,,,,,,,,,,,,,,,,,,,,,
,5ef0eb65b242da18098cff78,001,2022-04-28_20h07.13.669,classification_task,2021.2.3,Win32,59.80145916,5ef0eb65b242da18098cff78,626b377229c10585ec392f89,626b39ffb0c628ea2af49a8f,,,,,,,,,,,,,,,,,,,,,,,a,1,1.7317,"[""0.230"",""0.355"",""0.676"",""0.937""]","[1,1,0,1]",0,57,57,57,1,0,1,,,0,FALSE,,,,,,,,,,,,,,,,,,,,,,,,,,,,,,
,5ef0eb65b242da18098cff78,001,2022-04-28_20h07.13.669,classification_task,2021.2.3,Win32,59.80145916,5ef0eb65b242da18098cff78,626b377229c10585ec392f89,626b39ffb0c628ea2af49a8f,,,,,,,,,,,,,,,,,,,,,,,a,0,1.3309,"[""0.102"",""0.299"",""0.480"",""0.840""]","[1,1,1,0]",0,58,58,58,1,1,0,,,0,FALSE,,,,,,,,,,,,,,,,,,,,,,,,,,,,,,
,5ef0eb65b242da18098cff78,001,2022-04-28_20h07.13.669,classification_task,2021.2.3,Win32,59.80145916,5ef0eb65b242da18098cff78,626b377229c10585ec392f89,626b39ffb0c628ea2af49a8f,,,,,,,,,,,,,,,,,,,,,,,a,0,1.3381,"[""0.539"",""0.299"",""0.480"",""0.763""]","[0,1,1,1]",0,59,59,59,1,1,0,,,0,FALSE,,,,,,,,,,,,,,,,,,,,,,,,,,,,,,
,5ef0eb65b242da18098cff78,001,2022-04-28_20h07.13.669,classification_task,2021.2.3,Win32,59.80145916,5ef0eb65b242da18098cff78,626b377229c10585ec392f89,626b39ffb0c628ea2af49a8f,,,,,,,,,,,,,,,,,,,,,,,a,1,1.2492,"[""0.192"",""0.396"",""0.652"",""0.971""]","[1,1,0,1]",0,60,60,60,1,0,0,,,0,FALSE,,,,,,,,,,,,,,,,,,,,,,,,,,,,,,
,5ef0eb65b242da18098cff78,001,2022-04-28_20h07.13.669,classification_task,2021.2.3,Win32,59.80145916,5ef0eb65b242da18098cff78,626b377229c10585ec392f89,626b39ffb0c628ea2af49a8f,,,,,,,,,,,,,,,,,,,,,,,l,1,1.6853,"[""0.102"",""0.849"",""0.480"",""0.763""]","[1,0,1,1]",0,61,61,61,1,1,0,,,0,FALSE,,,,,,,,,,,,,,,,,,,,,,,,,,,,,,
,5ef0eb65b242da18098cff78,001,2022-04-28_20h07.13.669,classification_task,2021.2.3,Win32,59.80145916,5ef0eb65b242da18098cff78,626b377229c10585ec392f89,626b39ffb0c628ea2af49a8f,,,,,,,,,,,,,,,,,,,,,,,l,1,1.2346,"[""0.056"",""0.138"",""0.600"",""0.678""]","[1,1,1,0]",0,62,62,62,1,1,1,,,0,FALSE,,,,,,,,,,,,,,,,,,,,,,,,,,,,,,
,5ef0eb65b242da18098cff78,001,2022-04-28_20h07.13.669,classification_task,2021.2.3,Win32,59.80145916,5ef0eb65b242da18098cff78,626b377229c10585ec392f89,626b39ffb0c628ea2af49a8f,,,,,,,,,,,,,,,,,,,,,,,l,1,1.0838,"[""0.652"",""0.138"",""0.600"",""0.803""]","[0,1,1,1]",0,63,63,63,1,1,1,,,0,FALSE,,,,,,,,,,,,,,,,,,,,,,,,,,,,,,
,5ef0eb65b242da18098cff78,001,2022-04-28_20h07.13.669,classification_task,2021.2.3,Win32,59.80145916,5ef0eb65b242da18098cff78,626b377229c10585ec392f89,626b39ffb0c628ea2af49a8f,,,,,,,,,,,,,,,,,,,,,,,,,,,,,,,,,,,,,,,0, ,,0,3.95959135,503.538,0,0,0,0,1,2,1,,,,,,,,,,,,,,,,,
,5ef0eb65b242da18098cff78,001,2022-04-28_20h07.13.669,classification_task,2021.2.3,Win32,59.80145916,5ef0eb65b242da18098cff78,626b377229c10585ec392f89,626b39ffb0c628ea2af49a8f,,,,,,,,,,,,,,,,,,,,,,,,,,,,,,,,,,,,,,,1,  ,,0,6.369452714,513.6412,0,0,0,0,1,2,1,,,,,,,,,,,,,,,,,
,5ef0eb65b242da18098cff78,001,2022-04-28_20h07.13.669,classification_task,2021.2.3,Win32,59.80145916,5ef0eb65b242da18098cff78,626b377229c10585ec392f89,626b39ffb0c628ea2af49a8f,,,,,,,,,,,,,,,,,,,,,,,,,,,,,,,,,,,,,,,2,  ,,0,5.474361134,521.1692,0,0,0,0,1,2,1,,,,,,,,,,,,,,,,,
,5ef0eb65b242da18098cff78,001,2022-04-28_20h07.13.669,classification_task,2021.2.3,Win32,59.80145916,5ef0eb65b242da18098cff78,626b377229c10585ec392f89,626b39ffb0c628ea2af49a8f,,,,,,,,,,,,,,,,,,,,,,,,,,,,,,,,,,,,,,,,,,,,,0,0,0,0,1,,1,,,,,,,,,,,,,,,,,
,5ef0eb65b242da18098cff78,001,2022-04-28_20h07.13.669,classification_task,2021.2.3,Win32,59.80145916,5ef0eb65b242da18098cff78,626b377229c10585ec392f89,626b39ffb0c628ea2af49a8f,,,,,,,,,,,,,,,,,,,,,space,9.5131,l,1,4.861,"[""0.102"",""0.299"",""0.840"",""0.763""]","[1,1,0,1]",0,0,0,0,1,1,0,,,0,FALSE,,,,,,,,,,,,,,,,,,,,,,,,,,,,,,
,5ef0eb65b242da18098cff78,001,2022-04-28_20h07.13.669,classification_task,2021.2.3,Win32,59.80145916,5ef0eb65b242da18098cff78,626b377229c10585ec392f89,626b39ffb0c628ea2af49a8f,,,,,,,,,,,,,,,,,,,,,,,l,1,2.3476,"[""0.102"",""0.556"",""0.480"",""0.763""]","[1,0,1,1]",0,1,1,1,1,1,0,,,0,FALSE,,,,,,,,,,,,,,,,,,,,,,,,,,,,,,
,5ef0eb65b242da18098cff78,001,2022-04-28_20h07.13.669,classification_task,2021.2.3,Win32,59.80145916,5ef0eb65b242da18098cff78,626b377229c10585ec392f89,626b39ffb0c628ea2af49a8f,,,,,,,,,,,,,,,,,,,,,,,a,1,0.5859,"[""0.192"",""0.532"",""0.886"",""0.971""]","[1,0,1,1]",0,2,2,2,1,0,0,,,0,FALSE,,,,,,,,,,,,,,,,,,,,,,,,,,,,,,
,5ef0eb65b242da18098cff78,001,2022-04-28_20h07.13.669,classification_task,2021.2.3,Win32,59.80145916,5ef0eb65b242da18098cff78,626b377229c10585ec392f89,626b39ffb0c628ea2af49a8f,,,,,,,,,,,,,,,,,,,,,,,l,1,4.9912,"[""0.669"",""0.138"",""0.600"",""0.803""]","[0,1,1,1]",0,3,3,3,1,1,1,,,0,FALSE,,,,,,,,,,,,,,,,,,,,,,,,,,,,,,
,5ef0eb65b242da18098cff78,001,2022-04-28_20h07.13.669,classification_task,2021.2.3,Win32,59.80145916,5ef0eb65b242da18098cff78,626b377229c10585ec392f89,626b39ffb0c628ea2af49a8f,,,,,,,,,,,,,,,,,,,,,,,a,1,1.1722,"[""0.192"",""0.396"",""0.886"",""0.562""]","[1,1,1,0]",0,4,4,4,1,0,0,,,0,FALSE,,,,,,,,,,,,,,,,,,,,,,,,,,,,,,
,5ef0eb65b242da18098cff78,001,2022-04-28_20h07.13.669,classification_task,2021.2.3,Win32,59.80145916,5ef0eb65b242da18098cff78,626b377229c10585ec392f89,626b39ffb0c628ea2af49a8f,,,,,,,,,,,,,,,,,,,,,,,l,0,2.0569,"[""0.230"",""0.355"",""0.726"",""0.664""]","[1,1,1,0]",0,5,5,5,1,0,1,,,0,FALSE,,,,,,,,,,,,,,,,,,,,,,,,,,,,,,
,5ef0eb65b242da18098cff78,001,2022-04-28_20h07.13.669,classification_task,2021.2.3,Win32,59.80145916,5ef0eb65b242da18098cff78,626b377229c10585ec392f89,626b39ffb0c628ea2af49a8f,,,,,,,,,,,,,,,,,,,,,,,a,0,1.5289,"[""0.056"",""0.138"",""0.539"",""0.803""]","[1,1,0,1]",0,6,6,6,1,1,1,,,0,FALSE,,,,,,,,,,,,,,,,,,,,,,,,,,,,,,
,5ef0eb65b242da18098cff78,001,2022-04-28_20h07.13.669,classification_task,2021.2.3,Win32,59.80145916,5ef0eb65b242da18098cff78,626b377229c10585ec392f89,626b39ffb0c628ea2af49a8f,,,,,,,,,,,,,,,,,,,,,,,l,1,0.8174,"[""0.056"",""0.138"",""0.600"",""0.652""]","[1,1,1,0]",0,7,7,7,1,1,1,,,0,FALSE,,,,,,,,,,,,,,,,,,,,,,,,,,,,,,
,5ef0eb65b242da18098cff78,001,2022-04-28_20h07.13.669,classification_task,2021.2.3,Win32,59.80145916,5ef0eb65b242da18098cff78,626b377229c10585ec392f89,626b39ffb0c628ea2af49a8f,,,,,,,,,,,,,,,,,,,,,,,l,0,1.0211,"[""0.230"",""0.355"",""0.678"",""0.937""]","[1,1,0,1]",0,8,8,8,1,0,1,,,0,FALSE,,,,,,,,,,,,,,,,,,,,,,,,,,,,,,
,5ef0eb65b242da18098cff78,001,2022-04-28_20h07.13.669,classification_task,2021.2.3,Win32,59.80145916,5ef0eb65b242da18098cff78,626b377229c10585ec392f89,626b39ffb0c628ea2af49a8f,,,,,,,,,,,,,,,,,,,,,,,l,1,1.6665,"[""0.056"",""0.676"",""0.600"",""0.803""]","[1,0,1,1]",0,9,9,9,1,1,1,,,0,FALSE,,,,,,,,,,,,,,,,,,,,,,,,,,,,,,
,5ef0eb65b242da18098cff78,001,2022-04-28_20h07.13.669,classification_task,2021.2.3,Win32,59.80145916,5ef0eb65b242da18098cff78,626b377229c10585ec392f89,626b39ffb0c628ea2af49a8f,,,,,,,,,,,,,,,,,,,,,,,a,1,1.7163,"[""0.669"",""0.355"",""0.726"",""0.937""]","[0,1,1,1]",0,10,10,10,1,0,1,,,0,FALSE,,,,,,,,,,,,,,,,,,,,,,,,,,,,,,
,5ef0eb65b242da18098cff78,001,2022-04-28_20h07.13.669,classification_task,2021.2.3,Win32,59.80145916,5ef0eb65b242da18098cff78,626b377229c10585ec392f89,626b39ffb0c628ea2af49a8f,,,,,,,,,,,,,,,,,,,,,,,l,1,1.2213,"[""0.265"",""0.299"",""0.480"",""0.763""]","[0,1,1,1]",0,11,11,11,1,1,0,,,0,FALSE,,,,,,,,,,,,,,,,,,,,,,,,,,,,,,
,5ef0eb65b242da18098cff78,001,2022-04-28_20h07.13.669,classification_task,2021.2.3,Win32,59.80145916,5ef0eb65b242da18098cff78,626b377229c10585ec392f89,626b39ffb0c628ea2af49a8f,,,,,,,,,,,,,,,,,,,,,,,a,1,0.6794,"[""0.192"",""0.396"",""0.532"",""0.971""]","[1,1,0,1]",0,12,12,12,1,0,0,,,0,FALSE,,,,,,,,,,,,,,,,,,,,,,,,,,,,,,
,5ef0eb65b242da18098cff78,001,2022-04-28_20h07.13.669,classification_task,2021.2.3,Win32,59.80145916,5ef0eb65b242da18098cff78,626b377229c10585ec392f89,626b39ffb0c628ea2af49a8f,,,,,,,,,,,,,,,,,,,,,,,l,0,1.5326,"[""0.230"",""0.652"",""0.726"",""0.937""]","[1,0,1,1]",0,13,13,13,1,0,1,,,0,FALSE,,,,,,,,,,,,,,,,,,,,,,,,,,,,,,
,5ef0eb65b242da18098cff78,001,2022-04-28_20h07.13.669,classification_task,2021.2.3,Win32,59.80145916,5ef0eb65b242da18098cff78,626b377229c10585ec392f89,626b39ffb0c628ea2af49a8f,,,,,,,,,,,,,,,,,,,,,,,a,1,1.524,"[""0.539"",""0.396"",""0.886"",""0.971""]","[0,1,1,1]",0,14,14,14,1,0,0,,,0,FALSE,,,,,,,,,,,,,,,,,,,,,,,,,,,,,,
,5ef0eb65b242da18098cff78,001,2022-04-28_20h07.13.669,classification_task,2021.2.3,Win32,59.80145916,5ef0eb65b242da18098cff78,626b377229c10585ec392f89,626b39ffb0c628ea2af49a8f,,,,,,,,,,,,,,,,,,,,,,,l,1,0.4976,"[""0.102"",""0.299"",""0.480"",""0.664""]","[1,1,1,0]",0,15,15,15,1,1,0,,,0,FALSE,,,,,,,,,,,,,,,,,,,,,,,,,,,,,,
,5ef0eb65b242da18098cff78,001,2022-04-28_20h07.13.669,classification_task,2021.2.3,Win32,59.80145916,5ef0eb65b242da18098cff78,626b377229c10585ec392f89,626b39ffb0c628ea2af49a8f,,,,,,,,,,,,,,,,,,,,,,,a,1,0.5412,"[""0.192"",""0.396"",""0.661"",""0.971""]","[1,1,0,1]",0,16,16,16,1,0,0,,,0,FALSE,,,,,,,,,,,,,,,,,,,,,,,,,,,,,,
,5ef0eb65b242da18098cff78,001,2022-04-28_20h07.13.669,classification_task,2021.2.3,Win32,59.80145916,5ef0eb65b242da18098cff78,626b377229c10585ec392f89,626b39ffb0c628ea2af49a8f,,,,,,,,,,,,,,,,,,,,,,,l,0,1.3239,"[""0.230"",""0.355"",""0.669"",""0.937""]","[1,1,0,1]",0,17,17,17,1,0,1,,,0,FALSE,,,,,,,,,,,,,,,,,,,,,,,,,,,,,,
,5ef0eb65b242da18098cff78,001,2022-04-28_20h07.13.669,classification_task,2021.2.3,Win32,59.80145916,5ef0eb65b242da18098cff78,626b377229c10585ec392f89,626b39ffb0c628ea2af49a8f,,,,,,,,,,,,,,,,,,,,,,,l,1,0.8818,"[""0.056"",""0.138"",""0.661"",""0.803""]","[1,1,0,1]",0,18,18,18,1,1,1,,,0,FALSE,,,,,,,,,,,,,,,,,,,,,,,,,,,,,,
,5ef0eb65b242da18098cff78,001,2022-04-28_20h07.13.669,classification_task,2021.2.3,Win32,59.80145916,5ef0eb65b242da18098cff78,626b377229c10585ec392f89,626b39ffb0c628ea2af49a8f,,,,,,,,,,,,,,,,,,,,,,,l,1,1.5468,"[""0.102"",""0.664"",""0.480"",""0.763""]","[1,0,1,1]",0,19,19,19,1,1,0,,,0,FALSE,,,,,,,,,,,,,,,,,,,,,,,,,,,,,,
,5ef0eb65b242da18098cff78,001,2022-04-28_20h07.13.669,classification_task,2021.2.3,Win32,59.80145916,5ef0eb65b242da18098cff78,626b377229c10585ec392f89,626b39ffb0c628ea2af49a8f,,,,,,,,,,,,,,,,,,,,,,,l,1,0.6331,"[""0.532"",""0.299"",""0.480"",""0.763""]","[0,1,1,1]",0,20,20,20,1,1,0,,,0,FALSE,,,,,,,,,,,,,,,,,,,,,,,,,,,,,,
,5ef0eb65b242da18098cff78,001,2022-04-28_20h07.13.669,classification_task,2021.2.3,Win32,59.80145916,5ef0eb65b242da18098cff78,626b377229c10585ec392f89,626b39ffb0c628ea2af49a8f,,,,,,,,,,,,,,,,,,,,,,,a,0,1.4247,"[""0.056"",""0.138"",""0.600"",""0.849""]","[1,1,1,0]",0,21,21,21,1,1,1,,,0,FALSE,,,,,,,,,,,,,,,,,,,,,,,,,,,,,,
,5ef0eb65b242da18098cff78,001,2022-04-28_20h07.13.669,classification_task,2021.2.3,Win32,59.80145916,5ef0eb65b242da18098cff78,626b377229c10585ec392f89,626b39ffb0c628ea2af49a8f,,,,,,,,,,,,,,,,,,,,,,,a,1,0.8232,"[""0.550"",""0.396"",""0.886"",""0.971""]","[0,1,1,1]",0,22,22,22,1,0,0,,,0,FALSE,,,,,,,,,,,,,,,,,,,,,,,,,,,,,,
,5ef0eb65b242da18098cff78,001,2022-04-28_20h07.13.669,classification_task,2021.2.3,Win32,59.80145916,5ef0eb65b242da18098cff78,626b377229c10585ec392f89,626b39ffb0c628ea2af49a8f,,,,,,,,,,,,,,,,,,,,,,,a,1,0.5339,"[""0.192"",""0.676"",""0.886"",""0.971""]","[1,0,1,1]",0,23,23,23,1,0,0,,,0,FALSE,,,,,,,,,,,,,,,,,,,,,,,,,,,,,,
,5ef0eb65b242da18098cff78,001,2022-04-28_20h07.13.669,classification_task,2021.2.3,Win32,59.80145916,5ef0eb65b242da18098cff78,626b377229c10585ec392f89,626b39ffb0c628ea2af49a8f,,,,,,,,,,,,,,,,,,,,,,,a,1,0.5163,"[""0.192"",""0.396"",""0.886"",""0.521""]","[1,1,1,0]",0,24,24,24,1,0,0,,,0,FALSE,,,,,,,,,,,,,,,,,,,,,,,,,,,,,,
,5ef0eb65b242da18098cff78,001,2022-04-28_20h07.13.669,classification_task,2021.2.3,Win32,59.80145916,5ef0eb65b242da18098cff78,626b377229c10585ec392f89,626b39ffb0c628ea2af49a8f,,,,,,,,,,,,,,,,,,,,,,,a,1,1.855,"[""0.230"",""0.355"",""0.726"",""0.534""]","[1,1,1,0]",0,25,25,25,1,0,1,,,0,FALSE,,,,,,,,,,,,,,,,,,,,,,,,,,,,,,
,5ef0eb65b242da18098cff78,001,2022-04-28_20h07.13.669,classification_task,2021.2.3,Win32,59.80145916,5ef0eb65b242da18098cff78,626b377229c10585ec392f89,626b39ffb0c628ea2af49a8f,,,,,,,,,,,,,,,,,,,,,,,l,1,0.9779,"[""0.102"",""0.299"",""0.480"",""0.676""]","[1,1,1,0]",0,26,26,26,1,1,0,,,0,FALSE,,,,,,,,,,,,,,,,,,,,,,,,,,,,,,
,5ef0eb65b242da18098cff78,001,2022-04-28_20h07.13.669,classification_task,2021.2.3,Win32,59.80145916,5ef0eb65b242da18098cff78,626b377229c10585ec392f89,626b39ffb0c628ea2af49a8f,,,,,,,,,,,,,,,,,,,,,,,l,1,1.0256,"[""0.521"",""0.138"",""0.600"",""0.803""]","[0,1,1,1]",0,27,27,27,1,1,1,,,0,FALSE,,,,,,,,,,,,,,,,,,,,,,,,,,,,,,
,5ef0eb65b242da18098cff78,001,2022-04-28_20h07.13.669,classification_task,2021.2.3,Win32,59.80145916,5ef0eb65b242da18098cff78,626b377229c10585ec392f89,626b39ffb0c628ea2af49a8f,,,,,,,,,,,,,,,,,,,,,,,l,0,1.0323,"[""0.230"",""0.556"",""0.726"",""0.937""]","[1,0,1,1]",0,28,28,28,1,0,1,,,0,FALSE,,,,,,,,,,,,,,,,,,,,,,,,,,,,,,
,5ef0eb65b242da18098cff78,001,2022-04-28_20h07.13.669,classification_task,2021.2.3,Win32,59.80145916,5ef0eb65b242da18098cff78,626b377229c10585ec392f89,626b39ffb0c628ea2af49a8f,,,,,,,,,,,,,,,,,,,,,,,l,1,1.1992,"[""0.056"",""0.661"",""0.600"",""0.803""]","[1,0,1,1]",0,29,29,29,1,1,1,,,0,FALSE,,,,,,,,,,,,,,,,,,,,,,,,,,,,,,
,5ef0eb65b242da18098cff78,001,2022-04-28_20h07.13.669,classification_task,2021.2.3,Win32,59.80145916,5ef0eb65b242da18098cff78,626b377229c10585ec392f89,626b39ffb0c628ea2af49a8f,,,,,,,,,,,,,,,,,,,,,,,a,1,1.1841,"[""0.265"",""0.355"",""0.726"",""0.937""]","[0,1,1,1]",0,30,30,30,1,0,1,,,0,FALSE,,,,,,,,,,,,,,,,,,,,,,,,,,,,,,
,5ef0eb65b242da18098cff78,001,2022-04-28_20h07.13.669,classification_task,2021.2.3,Win32,59.80145916,5ef0eb65b242da18098cff78,626b377229c10585ec392f89,626b39ffb0c628ea2af49a8f,,,,,,,,,,,,,,,,,,,,,,,l,1,1.3404,"[""0.102"",""0.299"",""0.534"",""0.763""]","[1,1,0,1]",0,31,31,31,1,1,0,,,0,FALSE,,,,,,,,,,,,,,,,,,,,,,,,,,,,,,
,5ef0eb65b242da18098cff78,001,2022-04-28_20h07.13.669,classification_task,2021.2.3,Win32,59.80145916,5ef0eb65b242da18098cff78,626b377229c10585ec392f89,626b39ffb0c628ea2af49a8f,,,,,,,,,,,,,,,,,,,,,,,l,1,1.5975,"[""0.102"",""0.299"",""0.676"",""0.763""]","[1,1,0,1]",0,32,32,32,1,1,0,,,0,FALSE,,,,,,,,,,,,,,,,,,,,,,,,,,,,,,
,5ef0eb65b242da18098cff78,001,2022-04-28_20h07.13.669,classification_task,2021.2.3,Win32,59.80145916,5ef0eb65b242da18098cff78,626b377229c10585ec392f89,626b39ffb0c628ea2af49a8f,,,,,,,,,,,,,,,,,,,,,,,a,1,0.6126,"[""0.192"",""0.396"",""0.678"",""0.971""]","[1,1,0,1]",0,33,33,33,1,0,0,,,0,FALSE,,,,,,,,,,,,,,,,,,,,,,,,,,,,,,
,5ef0eb65b242da18098cff78,001,2022-04-28_20h07.13.669,classification_task,2021.2.3,Win32,59.80145916,5ef0eb65b242da18098cff78,626b377229c10585ec392f89,626b39ffb0c628ea2af49a8f,,,,,,,,,,,,,,,,,,,,,,,a,1,1.2802,"[""0.230"",""0.669"",""0.726"",""0.937""]","[1,0,1,1]",0,34,34,34,1,0,1,,,0,FALSE,,,,,,,,,,,,,,,,,,,,,,,,,,,,,,
,5ef0eb65b242da18098cff78,001,2022-04-28_20h07.13.669,classification_task,2021.2.3,Win32,59.80145916,5ef0eb65b242da18098cff78,626b377229c10585ec392f89,626b39ffb0c628ea2af49a8f,,,,,,,,,,,,,,,,,,,,,,,l,1,1.1742,"[""0.102"",""0.550"",""0.480"",""0.763""]","[1,0,1,1]",0,35,35,35,1,1,0,,,0,FALSE,,,,,,,,,,,,,,,,,,,,,,,,,,,,,,
,5ef0eb65b242da18098cff78,001,2022-04-28_20h07.13.669,classification_task,2021.2.3,Win32,59.80145916,5ef0eb65b242da18098cff78,626b377229c10585ec392f89,626b39ffb0c628ea2af49a8f,,,,,,,,,,,,,,,,,,,,,,,l,1,0.6654,"[""0.669"",""0.299"",""0.480"",""0.763""]","[0,1,1,1]",0,36,36,36,1,1,0,,,0,FALSE,,,,,,,,,,,,,,,,,,,,,,,,,,,,,,
,5ef0eb65b242da18098cff78,001,2022-04-28_20h07.13.669,classification_task,2021.2.3,Win32,59.80145916,5ef0eb65b242da18098cff78,626b377229c10585ec392f89,626b39ffb0c628ea2af49a8f,,,,,,,,,,,,,,,,,,,,,,,l,1,0.6711,"[""0.102"",""0.299"",""0.480"",""0.849""]","[1,1,1,0]",0,37,37,37,1,1,0,,,0,FALSE,,,,,,,,,,,,,,,,,,,,,,,,,,,,,,
,5ef0eb65b242da18098cff78,001,2022-04-28_20h07.13.669,classification_task,2021.2.3,Win32,59.80145916,5ef0eb65b242da18098cff78,626b377229c10585ec392f89,626b39ffb0c628ea2af49a8f,,,,,,,,,,,,,,,,,,,,,,,a,1,2.389,"[""0.562"",""0.355"",""0.726"",""0.937""]","[0,1,1,1]",0,38,38,38,1,0,1,,,0,FALSE,,,,,,,,,,,,,,,,,,,,,,,,,,,,,,
,5ef0eb65b242da18098cff78,001,2022-04-28_20h07.13.669,classification_task,2021.2.3,Win32,59.80145916,5ef0eb65b242da18098cff78,626b377229c10585ec392f89,626b39ffb0c628ea2af49a8f,,,,,,,,,,,,,,,,,,,,,,,l,0,0.9456,"[""0.230"",""0.355"",""0.849"",""0.937""]","[1,1,0,1]",0,39,39,39,1,0,1,,,0,FALSE,,,,,,,,,,,,,,,,,,,,,,,,,,,,,,
,5ef0eb65b242da18098cff78,001,2022-04-28_20h07.13.669,classification_task,2021.2.3,Win32,59.80145916,5ef0eb65b242da18098cff78,626b377229c10585ec392f89,626b39ffb0c628ea2af49a8f,,,,,,,,,,,,,,,,,,,,,,,a,1,2.014,"[""0.562"",""0.396"",""0.886"",""0.971""]","[0,1,1,1]",0,40,40,40,1,0,0,,,0,FALSE,,,,,,,,,,,,,,,,,,,,,,,,,,,,,,
,5ef0eb65b242da18098cff78,001,2022-04-28_20h07.13.669,classification_task,2021.2.3,Win32,59.80145916,5ef0eb65b242da18098cff78,626b377229c10585ec392f89,626b39ffb0c628ea2af49a8f,,,,,,,,,,,,,,,,,,,,,,,a,1,0.5964,"[""0.192"",""0.676"",""0.886"",""0.971""]","[1,0,1,1]",0,41,41,41,1,0,0,,,0,FALSE,,,,,,,,,,,,,,,,,,,,,,,,,,,,,,
,5ef0eb65b242da18098cff78,001,2022-04-28_20h07.13.669,classification_task,2021.2.3,Win32,59.80145916,5ef0eb65b242da18098cff78,626b377229c10585ec392f89,626b39ffb0c628ea2af49a8f,,,,,,,,,,,,,,,,,,,,,,,a,1,0.5816,"[""0.192"",""0.396"",""0.886"",""0.840""]","[1,1,1,0]",0,42,42,42,1,0,0,,,0,FALSE,,,,,,,,,,,,,,,,,,,,,,,,,,,,,,
,5ef0eb65b242da18098cff78,001,2022-04-28_20h07.13.669,classification_task,2021.2.3,Win32,59.80145916,5ef0eb65b242da18098cff78,626b377229c10585ec392f89,626b39ffb0c628ea2af49a8f,,,,,,,,,,,,,,,,,,,,,,,l,1,2.5559,"[""0.265"",""0.138"",""0.600"",""0.803""]","[0,1,1,1]",0,43,43,43,1,1,1,,,0,FALSE,,,,,,,,,,,,,,,,,,,,,,,,,,,,,,
,5ef0eb65b242da18098cff78,001,2022-04-28_20h07.13.669,classification_task,2021.2.3,Win32,59.80145916,5ef0eb65b242da18098cff78,626b377229c10585ec392f89,626b39ffb0c628ea2af49a8f,,,,,,,,,,,,,,,,,,,,,,,l,0,1.3956,"[""0.230"",""0.355"",""0.726"",""0.539""]","[1,1,1,0]",0,44,44,44,1,0,1,,,0,FALSE,,,,,,,,,,,,,,,,,,,,,,,,,,,,,,
,5ef0eb65b242da18098cff78,001,2022-04-28_20h07.13.669,classification_task,2021.2.3,Win32,59.80145916,5ef0eb65b242da18098cff78,626b377229c10585ec392f89,626b39ffb0c628ea2af49a8f,,,,,,,,,,,,,,,,,,,,,,,l,1,1.5963,"[""0.056"",""0.562"",""0.600"",""0.803""]","[1,0,1,1]",0,45,45,45,1,1,1,,,0,FALSE,,,,,,,,,,,,,,,,,,,,,,,,,,,,,,
,5ef0eb65b242da18098cff78,001,2022-04-28_20h07.13.669,classification_task,2021.2.3,Win32,59.80145916,5ef0eb65b242da18098cff78,626b377229c10585ec392f89,626b39ffb0c628ea2af49a8f,,,,,,,,,,,,,,,,,,,,,,,l,1,0.9655,"[""0.056"",""0.138"",""0.539"",""0.803""]","[1,1,0,1]",0,46,46,46,1,1,1,,,0,FALSE,,,,,,,,,,,,,,,,,,,,,,,,,,,,,,
,5ef0eb65b242da18098cff78,001,2022-04-28_20h07.13.669,classification_task,2021.2.3,Win32,59.80145916,5ef0eb65b242da18098cff78,626b377229c10585ec392f89,626b39ffb0c628ea2af49a8f,,,,,,,,,,,,,,,,,,,,,,,l,1,0.7135,"[""0.056"",""0.138"",""0.600"",""0.521""]","[1,1,1,0]",0,47,47,47,1,1,1,,,0,FALSE,,,,,,,,,,,,,,,,,,,,,,,,,,,,,,
,5ef0eb65b242da18098cff78,001,2022-04-28_20h07.13.669,classification_task,2021.2.3,Win32,59.80145916,5ef0eb65b242da18098cff78,626b377229c10585ec392f89,626b39ffb0c628ea2af49a8f,,,,,,,,,,,,,,,,,,,,,,,a,1,3.7397,"[""0.192"",""0.396"",""0.678"",""0.971""]","[1,1,0,1]",0,48,48,48,1,0,0,,,0,FALSE,,,,,,,,,,,,,,,,,,,,,,,,,,,,,,
,5ef0eb65b242da18098cff78,001,2022-04-28_20h07.13.669,classification_task,2021.2.3,Win32,59.80145916,5ef0eb65b242da18098cff78,626b377229c10585ec392f89,626b39ffb0c628ea2af49a8f,,,,,,,,,,,,,,,,,,,,,,,l,1,1.4228,"[""0.056"",""0.138"",""0.600"",""0.532""]","[1,1,1,0]",0,49,49,49,1,1,1,,,0,FALSE,,,,,,,,,,,,,,,,,,,,,,,,,,,,,,
,5ef0eb65b242da18098cff78,001,2022-04-28_20h07.13.669,classification_task,2021.2.3,Win32,59.80145916,5ef0eb65b242da18098cff78,626b377229c10585ec392f89,626b39ffb0c628ea2af49a8f,,,,,,,,,,,,,,,,,,,,,,,l,1,1.9626,"[""0.056"",""0.664"",""0.600"",""0.803""]","[1,0,1,1]",0,50,50,50,1,1,1,,,0,FALSE,,,,,,,,,,,,,,,,,,,,,,,,,,,,,,
,5ef0eb65b242da18098cff78,001,2022-04-28_20h07.13.669,classification_task,2021.2.3,Win32,59.80145916,5ef0eb65b242da18098cff78,626b377229c10585ec392f89,626b39ffb0c628ea2af49a8f,,,,,,,,,,,,,,,,,,,,,,,l,0,1.1661,"[""0.230"",""0.265"",""0.726"",""0.937""]","[1,0,1,1]",0,51,51,51,1,0,1,,,0,FALSE,,,,,,,,,,,,,,,,,,,,,,,,,,,,,,
,5ef0eb65b242da18098cff78,001,2022-04-28_20h07.13.669,classification_task,2021.2.3,Win32,59.80145916,5ef0eb65b242da18098cff78,626b377229c10585ec392f89,626b39ffb0c628ea2af49a8f,,,,,,,,,,,,,,,,,,,,,,,l,0,1.3132,"[""0.230"",""0.355"",""0.726"",""0.550""]","[1,1,1,0]",0,52,52,52,1,0,1,,,0,FALSE,,,,,,,,,,,,,,,,,,,,,,,,,,,,,,
,5ef0eb65b242da18098cff78,001,2022-04-28_20h07.13.669,classification_task,2021.2.3,Win32,59.80145916,5ef0eb65b242da18098cff78,626b377229c10585ec392f89,626b39ffb0c628ea2af49a8f,,,,,,,,,,,,,,,,,,,,,,,a,1,1.9065,"[""0.192"",""0.556"",""0.886"",""0.971""]","[1,0,1,1]",0,53,53,53,1,0,0,,,0,FALSE,,,,,,,,,,,,,,,,,,,,,,,,,,,,,,
,5ef0eb65b242da18098cff78,001,2022-04-28_20h07.13.669,classification_task,2021.2.3,Win32,59.80145916,5ef0eb65b242da18098cff78,626b377229c10585ec392f89,626b39ffb0c628ea2af49a8f,,,,,,,,,,,,,,,,,,,,,,,a,1,2.5806,"[""0.192"",""0.396"",""0.886"",""0.534""]","[1,1,1,0]",0,54,54,54,1,0,0,,,0,FALSE,,,,,,,,,,,,,,,,,,,,,,,,,,,,,,
,5ef0eb65b242da18098cff78,001,2022-04-28_20h07.13.669,classification_task,2021.2.3,Win32,59.80145916,5ef0eb65b242da18098cff78,626b377229c10585ec392f89,626b39ffb0c628ea2af49a8f,,,,,,,,,,,,,,,,,,,,,,,a,1,0.996,"[""0.661"",""0.396"",""0.886"",""0.971""]","[0,1,1,1]",0,55,55,55,1,0,0,,,0,FALSE,,,,,,,,,,,,,,,,,,,,,,,,,,,,,,
,5ef0eb65b242da18098cff78,001,2022-04-28_20h07.13.669,classification_task,2021.2.3,Win32,59.80145916,5ef0eb65b242da18098cff78,626b377229c10585ec392f89,626b39ffb0c628ea2af49a8f,,,,,,,,,,,,,,,,,,,,,,,l,1,2.0657,"[""0.102"",""0.299"",""0.480"",""0.669""]","[1,1,1,0]",0,56,56,56,1,1,0,,,0,FALSE,,,,,,,,,,,,,,,,,,,,,,,,,,,,,,
,5ef0eb65b242da18098cff78,001,2022-04-28_20h07.13.669,classification_task,2021.2.3,Win32,59.80145916,5ef0eb65b242da18098cff78,626b377229c10585ec392f89,626b39ffb0c628ea2af49a8f,,,,,,,,,,,,,,,,,,,,,,,a,0,1.1985,"[""0.521"",""0.299"",""0.480"",""0.763""]","[0,1,1,1]",0,57,57,57,1,1,0,,,0,FALSE,,,,,,,,,,,,,,,,,,,,,,,,,,,,,,
,5ef0eb65b242da18098cff78,001,2022-04-28_20h07.13.669,classification_task,2021.2.3,Win32,59.80145916,5ef0eb65b242da18098cff78,626b377229c10585ec392f89,626b39ffb0c628ea2af49a8f,,,,,,,,,,,,,,,,,,,,,,,l,0,1.8113,"[""0.661"",""0.355"",""0.726"",""0.937""]","[0,1,1,1]",0,58,58,58,1,0,1,,,0,FALSE,,,,,,,,,,,,,,,,,,,,,,,,,,,,,,
,5ef0eb65b242da18098cff78,001,2022-04-28_20h07.13.669,classification_task,2021.2.3,Win32,59.80145916,5ef0eb65b242da18098cff78,626b377229c10585ec392f89,626b39ffb0c628ea2af49a8f,,,,,,,,,,,,,,,,,,,,,,,a,0,2.2427,"[""0.102"",""0.299"",""0.532"",""0.763""]","[1,1,0,1]",0,59,59,59,1,1,0,,,0,FALSE,,,,,,,,,,,,,,,,,,,,,,,,,,,,,,
,5ef0eb65b242da18098cff78,001,2022-04-28_20h07.13.669,classification_task,2021.2.3,Win32,59.80145916,5ef0eb65b242da18098cff78,626b377229c10585ec392f89,626b39ffb0c628ea2af49a8f,,,,,,,,,,,,,,,,,,,,,,,l,1,1.7923,"[""0.056"",""0.138"",""0.840"",""0.803""]","[1,1,0,1]",0,60,60,60,1,1,1,,,0,FALSE,,,,,,,,,,,,,,,,,,,,,,,,,,,,,,
,5ef0eb65b242da18098cff78,001,2022-04-28_20h07.13.669,classification_task,2021.2.3,Win32,59.80145916,5ef0eb65b242da18098cff78,626b377229c10585ec392f89,626b39ffb0c628ea2af49a8f,,,,,,,,,,,,,,,,,,,,,,,l,0,0.6957,"[""0.230"",""0.355"",""0.661"",""0.937""]","[1,1,0,1]",0,61,61,61,1,0,1,,,0,FALSE,,,,,,,,,,,,,,,,,,,,,,,,,,,,,,
,5ef0eb65b242da18098cff78,001,2022-04-28_20h07.13.669,classification_task,2021.2.3,Win32,59.80145916,5ef0eb65b242da18098cff78,626b377229c10585ec392f89,626b39ffb0c628ea2af49a8f,,,,,,,,,,,,,,,,,,,,,,,l,1,2.1804,"[""0.669"",""0.138"",""0.600"",""0.803""]","[0,1,1,1]",0,62,62,62,1,1,1,,,0,FALSE,,,,,,,,,,,,,,,,,,,,,,,,,,,,,,
,5ef0eb65b242da18098cff78,001,2022-04-28_20h07.13.669,classification_task,2021.2.3,Win32,59.80145916,5ef0eb65b242da18098cff78,626b377229c10585ec392f89,626b39ffb0c628ea2af49a8f,,,,,,,,,,,,,,,,,,,,,,,l,1,1.7889,"[""0.102"",""0.652"",""0.480"",""0.763""]","[1,0,1,1]",0,63,63,63,1,1,0,,,0,FALSE,,,,,,,,,,,,,,,,,,,,,,,,,,,,,,
,5ef0eb65b242da18098cff78,001,2022-04-28_20h07.13.669,classification_task,2021.2.3,Win32,59.80145916,5ef0eb65b242da18098cff78,626b377229c10585ec392f89,626b39ffb0c628ea2af49a8f,,,,,,,,,,,,,,,,,,,,,,,,,,,,,,,,,,,,,,,0, ,,0,3.271061692,174.7739,0,1,1,1,1,2,2,,,,,,,,,,,,,,,,,
,5ef0eb65b242da18098cff78,001,2022-04-28_20h07.13.669,classification_task,2021.2.3,Win32,59.80145916,5ef0eb65b242da18098cff78,626b377229c10585ec392f89,626b39ffb0c628ea2af49a8f,,,,,,,,,,,,,,,,,,,,,,,,,,,,,,,,,,,,,,,1,  ,,0,5.198947758,178.5093,0,1,1,1,1,2,2,,,,,,,,,,,,,,,,,
,5ef0eb65b242da18098cff78,001,2022-04-28_20h07.13.669,classification_task,2021.2.3,Win32,59.80145916,5ef0eb65b242da18098cff78,626b377229c10585ec392f89,626b39ffb0c628ea2af49a8f,,,,,,,,,,,,,,,,,,,,,,,,,,,,,,,,,,,,,,,2,  ,,0,5.474361134,181.3515,0,1,1,1,1,2,2,,,,,,,,,,,,,,,,,
,5ef0eb65b242da18098cff78,001,2022-04-28_20h07.13.669,classification_task,2021.2.3,Win32,59.80145916,5ef0eb65b242da18098cff78,626b377229c10585ec392f89,626b39ffb0c628ea2af49a8f,,,,,,,,,,,,,,,,,,,,,,,,,,,,,,,,,,,,,,,,,,,,,0,1,1,1,1,,2,,,,,,,,,,,,,,,,,
,5ef0eb65b242da18098cff78,001,2022-04-28_20h07.13.669,classification_task,2021.2.3,Win32,59.80145916,5ef0eb65b242da18098cff78,626b377229c10585ec392f89,626b39ffb0c628ea2af49a8f,,,,,,,,,,,,,,,,,,,,,space,9.0736,a,1,1.779,"[""0.192"",""0.669"",""0.886"",""0.971""]","[1,0,1,1]",0,0,0,0,1,0,0,,,0,FALSE,,,,,,,,,,,,,,,,,,,,,,,,,,,,,,
,5ef0eb65b242da18098cff78,001,2022-04-28_20h07.13.669,classification_task,2021.2.3,Win32,59.80145916,5ef0eb65b242da18098cff78,626b377229c10585ec392f89,626b39ffb0c628ea2af49a8f,,,,,,,,,,,,,,,,,,,,,,,a,0,2.5984,"[""0.056"",""0.138"",""0.562"",""0.803""]","[1,1,0,1]",0,1,1,1,1,1,1,,,0,FALSE,,,,,,,,,,,,,,,,,,,,,,,,,,,,,,
,5ef0eb65b242da18098cff78,001,2022-04-28_20h07.13.669,classification_task,2021.2.3,Win32,59.80145916,5ef0eb65b242da18098cff78,626b377229c10585ec392f89,626b39ffb0c628ea2af49a8f,,,,,,,,,,,,,,,,,,,,,,,l,0,0.9327,"[""0.192"",""0.396"",""0.886"",""0.678""]","[1,1,1,0]",0,2,2,2,1,0,0,,,0,FALSE,,,,,,,,,,,,,,,,,,,,,,,,,,,,,,
,5ef0eb65b242da18098cff78,001,2022-04-28_20h07.13.669,classification_task,2021.2.3,Win32,59.80145916,5ef0eb65b242da18098cff78,626b377229c10585ec392f89,626b39ffb0c628ea2af49a8f,,,,,,,,,,,,,,,,,,,,,,,l,0,0.9476,"[""0.230"",""0.355"",""0.556"",""0.937""]","[1,1,0,1]",0,3,3,3,1,0,1,,,0,FALSE,,,,,,,,,,,,,,,,,,,,,,,,,,,,,,
,5ef0eb65b242da18098cff78,001,2022-04-28_20h07.13.669,classification_task,2021.2.3,Win32,59.80145916,5ef0eb65b242da18098cff78,626b377229c10585ec392f89,626b39ffb0c628ea2af49a8f,,,,,,,,,,,,,,,,,,,,,,,l,1,3.0333,"[""0.056"",""0.138"",""0.600"",""0.550""]","[1,1,1,0]",0,4,4,4,1,1,1,,,0,FALSE,,,,,,,,,,,,,,,,,,,,,,,,,,,,,,
,5ef0eb65b242da18098cff78,001,2022-04-28_20h07.13.669,classification_task,2021.2.3,Win32,59.80145916,5ef0eb65b242da18098cff78,626b377229c10585ec392f89,626b39ffb0c628ea2af49a8f,,,,,,,,,,,,,,,,,,,,,,,l,1,1.6458,"[""0.102"",""0.299"",""0.678"",""0.763""]","[1,1,0,1]",0,5,5,5,1,1,0,,,0,FALSE,,,,,,,,,,,,,,,,,,,,,,,,,,,,,,
,5ef0eb65b242da18098cff78,001,2022-04-28_20h07.13.669,classification_task,2021.2.3,Win32,59.80145916,5ef0eb65b242da18098cff78,626b377229c10585ec392f89,626b39ffb0c628ea2af49a8f,,,,,,,,,,,,,,,,,,,,,,,a,0,1.4821,"[""0.102"",""0.532"",""0.480"",""0.763""]","[1,0,1,1]",0,6,6,6,1,1,0,,,0,FALSE,,,,,,,,,,,,,,,,,,,,,,,,,,,,,,
,5ef0eb65b242da18098cff78,001,2022-04-28_20h07.13.669,classification_task,2021.2.3,Win32,59.80145916,5ef0eb65b242da18098cff78,626b377229c10585ec392f89,626b39ffb0c628ea2af49a8f,,,,,,,,,,,,,,,,,,,,,,,a,0,0.9176,"[""0.539"",""0.138"",""0.600"",""0.803""]","[0,1,1,1]",0,7,7,7,1,1,1,,,0,FALSE,,,,,,,,,,,,,,,,,,,,,,,,,,,,,,
,5ef0eb65b242da18098cff78,001,2022-04-28_20h07.13.669,classification_task,2021.2.3,Win32,59.80145916,5ef0eb65b242da18098cff78,626b377229c10585ec392f89,626b39ffb0c628ea2af49a8f,,,,,,,,,,,,,,,,,,,,,,,l,0,1.6222,"[""0.840"",""0.355"",""0.726"",""0.937""]","[0,1,1,1]",0,8,8,8,1,0,1,,,0,FALSE,,,,,,,,,,,,,,,,,,,,,,,,,,,,,,
,5ef0eb65b242da18098cff78,001,2022-04-28_20h07.13.669,classification_task,2021.2.3,Win32,59.80145916,5ef0eb65b242da18098cff78,626b377229c10585ec392f89,626b39ffb0c628ea2af49a8f,,,,,,,,,,,,,,,,,,,,,,,l,0,0.7959,"[""0.664"",""0.396"",""0.886"",""0.971""]","[0,1,1,1]",0,9,9,9,1,0,0,,,0,FALSE,,,,,,,,,,,,,,,,,,,,,,,,,,,,,,
,5ef0eb65b242da18098cff78,001,2022-04-28_20h07.13.669,classification_task,2021.2.3,Win32,59.80145916,5ef0eb65b242da18098cff78,626b377229c10585ec392f89,626b39ffb0c628ea2af49a8f,,,,,,,,,,,,,,,,,,,,,,,a,1,0.8307,"[""0.230"",""0.355"",""0.726"",""0.265""]","[1,1,1,0]",0,10,10,10,1,0,1,,,0,FALSE,,,,,,,,,,,,,,,,,,,,,,,,,,,,,,
,5ef0eb65b242da18098cff78,001,2022-04-28_20h07.13.669,classification_task,2021.2.3,Win32,59.80145916,5ef0eb65b242da18098cff78,626b377229c10585ec392f89,626b39ffb0c628ea2af49a8f,,,,,,,,,,,,,,,,,,,,,,,a,0,0.8215,"[""0.265"",""0.299"",""0.480"",""0.763""]","[0,1,1,1]",0,11,11,11,1,1,0,,,0,FALSE,,,,,,,,,,,,,,,,,,,,,,,,,,,,,,
,5ef0eb65b242da18098cff78,001,2022-04-28_20h07.13.669,classification_task,2021.2.3,Win32,59.80145916,5ef0eb65b242da18098cff78,626b377229c10585ec392f89,626b39ffb0c628ea2af49a8f,,,,,,,,,,,,,,,,,,,,,,,l,0,2.2306,"[""0.230"",""0.849"",""0.726"",""0.937""]","[1,0,1,1]",0,12,12,12,1,0,1,,,0,FALSE,,,,,,,,,,,,,,,,,,,,,,,,,,,,,,
,5ef0eb65b242da18098cff78,001,2022-04-28_20h07.13.669,classification_task,2021.2.3,Win32,59.80145916,5ef0eb65b242da18098cff78,626b377229c10585ec392f89,626b39ffb0c628ea2af49a8f,,,,,,,,,,,,,,,,,,,,,,,a,1,1.4964,"[""0.192"",""0.396"",""0.265"",""0.971""]","[1,1,0,1]",0,13,13,13,1,0,0,,,0,FALSE,,,,,,,,,,,,,,,,,,,,,,,,,,,,,,
,5ef0eb65b242da18098cff78,001,2022-04-28_20h07.13.669,classification_task,2021.2.3,Win32,59.80145916,5ef0eb65b242da18098cff78,626b377229c10585ec392f89,626b39ffb0c628ea2af49a8f,,,,,,,,,,,,,,,,,,,,,,,a,0,0.7316,"[""0.056"",""0.521"",""0.600"",""0.803""]","[1,0,1,1]",0,14,14,14,1,1,1,,,0,FALSE,,,,,,,,,,,,,,,,,,,,,,,,,,,,,,
,5ef0eb65b242da18098cff78,001,2022-04-28_20h07.13.669,classification_task,2021.2.3,Win32,59.80145916,5ef0eb65b242da18098cff78,626b377229c10585ec392f89,626b39ffb0c628ea2af49a8f,,,,,,,,,,,,,,,,,,,,,,,a,0,0.867,"[""0.102"",""0.299"",""0.480"",""0.532""]","[1,1,1,0]",0,15,15,15,1,1,0,,,0,FALSE,,,,,,,,,,,,,,,,,,,,,,,,,,,,,,
,5ef0eb65b242da18098cff78,001,2022-04-28_20h07.13.669,classification_task,2021.2.3,Win32,59.80145916,5ef0eb65b242da18098cff78,626b377229c10585ec392f89,626b39ffb0c628ea2af49a8f,,,,,,,,,,,,,,,,,,,,,,,a,0,2.9793,"[""0.102"",""0.299"",""0.556"",""0.763""]","[1,1,0,1]",0,16,16,16,1,1,0,,,0,FALSE,,,,,,,,,,,,,,,,,,,,,,,,,,,,,,
,5ef0eb65b242da18098cff78,001,2022-04-28_20h07.13.669,classification_task,2021.2.3,Win32,59.80145916,5ef0eb65b242da18098cff78,626b377229c10585ec392f89,626b39ffb0c628ea2af49a8f,,,,,,,,,,,,,,,,,,,,,,,a,0,2.2659,"[""0.056"",""0.138"",""0.669"",""0.803""]","[1,1,0,1]",0,17,17,17,1,1,1,,,0,FALSE,,,,,,,,,,,,,,,,,,,,,,,,,,,,,,
,5ef0eb65b242da18098cff78,001,2022-04-28_20h07.13.669,classification_task,2021.2.3,Win32,59.80145916,5ef0eb65b242da18098cff78,626b377229c10585ec392f89,626b39ffb0c628ea2af49a8f,,,,,,,,,,,,,,,,,,,,,,,l,0,1.6974,"[""0.192"",""0.840"",""0.886"",""0.971""]","[1,0,1,1]",0,18,18,18,1,0,0,,,0,FALSE,,,,,,,,,,,,,,,,,,,,,,,,,,,,,,
,5ef0eb65b242da18098cff78,001,2022-04-28_20h07.13.669,classification_task,2021.2.3,Win32,59.80145916,5ef0eb65b242da18098cff78,626b377229c10585ec392f89,626b39ffb0c628ea2af49a8f,,,,,,,,,,,,,,,,,,,,,,,l,0,2.1142,"[""0.192"",""0.396"",""0.265"",""0.971""]","[1,1,0,1]",0,19,19,19,1,0,0,,,0,FALSE,,,,,,,,,,,,,,,,,,,,,,,,,,,,,,
,5ef0eb65b242da18098cff78,001,2022-04-28_20h07.13.669,classification_task,2021.2.3,Win32,59.80145916,5ef0eb65b242da18098cff78,626b377229c10585ec392f89,626b39ffb0c628ea2af49a8f,,,,,,,,,,,,,,,,,,,,,,,l,0,2.1806,"[""0.230"",""0.676"",""0.726"",""0.937""]","[1,0,1,1]",0,20,20,20,1,0,1,,,0,FALSE,,,,,,,,,,,,,,,,,,,,,,,,,,,,,,
,5ef0eb65b242da18098cff78,001,2022-04-28_20h07.13.669,classification_task,2021.2.3,Win32,59.80145916,5ef0eb65b242da18098cff78,626b377229c10585ec392f89,626b39ffb0c628ea2af49a8f,,,,,,,,,,,,,,,,,,,,,,,l,0,1.5989,"[""0.669"",""0.396"",""0.886"",""0.971""]","[0,1,1,1]",0,21,21,21,1,0,0,,,0,FALSE,,,,,,,,,,,,,,,,,,,,,,,,,,,,,,
,5ef0eb65b242da18098cff78,001,2022-04-28_20h07.13.669,classification_task,2021.2.3,Win32,59.80145916,5ef0eb65b242da18098cff78,626b377229c10585ec392f89,626b39ffb0c628ea2af49a8f,,,,,,,,,,,,,,,,,,,,,,,a,0,1.0216,"[""0.102"",""0.556"",""0.480"",""0.763""]","[1,0,1,1]",0,22,22,22,1,1,0,,,0,FALSE,,,,,,,,,,,,,,,,,,,,,,,,,,,,,,
,5ef0eb65b242da18098cff78,001,2022-04-28_20h07.13.669,classification_task,2021.2.3,Win32,59.80145916,5ef0eb65b242da18098cff78,626b377229c10585ec392f89,626b39ffb0c628ea2af49a8f,,,,,,,,,,,,,,,,,,,,,,,a,0,0.8825,"[""0.056"",""0.138"",""0.600"",""0.534""]","[1,1,1,0]",0,23,23,23,1,1,1,,,0,FALSE,,,,,,,,,,,,,,,,,,,,,,,,,,,,,,
,5ef0eb65b242da18098cff78,001,2022-04-28_20h07.13.669,classification_task,2021.2.3,Win32,59.80145916,5ef0eb65b242da18098cff78,626b377229c10585ec392f89,626b39ffb0c628ea2af49a8f,,,,,,,,,,,,,,,,,,,,,,,l,1,1.2496,"[""0.056"",""0.678"",""0.600"",""0.803""]","[1,0,1,1]",0,24,24,24,1,1,1,,,0,FALSE,,,,,,,,,,,,,,,,,,,,,,,,,,,,,,
,5ef0eb65b242da18098cff78,001,2022-04-28_20h07.13.669,classification_task,2021.2.3,Win32,59.80145916,5ef0eb65b242da18098cff78,626b377229c10585ec392f89,626b39ffb0c628ea2af49a8f,,,,,,,,,,,,,,,,,,,,,,,l,1,1.3629,"[""0.532"",""0.299"",""0.480"",""0.763""]","[0,1,1,1]",0,25,25,25,1,1,0,,,0,FALSE,,,,,,,,,,,,,,,,,,,,,,,,,,,,,,
,5ef0eb65b242da18098cff78,001,2022-04-28_20h07.13.669,classification_task,2021.2.3,Win32,59.80145916,5ef0eb65b242da18098cff78,626b377229c10585ec392f89,626b39ffb0c628ea2af49a8f,,,,,,,,,,,,,,,,,,,,,,,a,1,1.548,"[""0.230"",""0.355"",""0.532"",""0.937""]","[1,1,0,1]",0,26,26,26,1,0,1,,,0,FALSE,,,,,,,,,,,,,,,,,,,,,,,,,,,,,,
,5ef0eb65b242da18098cff78,001,2022-04-28_20h07.13.669,classification_task,2021.2.3,Win32,59.80145916,5ef0eb65b242da18098cff78,626b377229c10585ec392f89,626b39ffb0c628ea2af49a8f,,,,,,,,,,,,,,,,,,,,,,,a,1,0.8,"[""0.192"",""0.396"",""0.886"",""0.661""]","[1,1,1,0]",0,27,27,27,1,0,0,,,0,FALSE,,,,,,,,,,,,,,,,,,,,,,,,,,,,,,
,5ef0eb65b242da18098cff78,001,2022-04-28_20h07.13.669,classification_task,2021.2.3,Win32,59.80145916,5ef0eb65b242da18098cff78,626b377229c10585ec392f89,626b39ffb0c628ea2af49a8f,,,,,,,,,,,,,,,,,,,,,,,a,1,0.8966,"[""0.521"",""0.355"",""0.726"",""0.937""]","[0,1,1,1]",0,28,28,28,1,0,1,,,0,FALSE,,,,,,,,,,,,,,,,,,,,,,,,,,,,,,
,5ef0eb65b242da18098cff78,001,2022-04-28_20h07.13.669,classification_task,2021.2.3,Win32,59.80145916,5ef0eb65b242da18098cff78,626b377229c10585ec392f89,626b39ffb0c628ea2af49a8f,,,,,,,,,,,,,,,,,,,,,,,a,0,0.6033,"[""0.102"",""0.299"",""0.480"",""0.840""]","[1,1,1,0]",0,29,29,29,1,1,0,,,0,FALSE,,,,,,,,,,,,,,,,,,,,,,,,,,,,,,
,5ef0eb65b242da18098cff78,001,2022-04-28_20h07.13.669,classification_task,2021.2.3,Win32,59.80145916,5ef0eb65b242da18098cff78,626b377229c10585ec392f89,626b39ffb0c628ea2af49a8f,,,,,,,,,,,,,,,,,,,,,,,l,1,1.6709,"[""0.840"",""0.138"",""0.600"",""0.803""]","[0,1,1,1]",0,30,30,30,1,1,1,,,0,FALSE,,,,,,,,,,,,,,,,,,,,,,,,,,,,,,
,5ef0eb65b242da18098cff78,001,2022-04-28_20h07.13.669,classification_task,2021.2.3,Win32,59.80145916,5ef0eb65b242da18098cff78,626b377229c10585ec392f89,626b39ffb0c628ea2af49a8f,,,,,,,,,,,,,,,,,,,,,,,a,1,0.9669,"[""0.230"",""0.355"",""0.726"",""0.556""]","[1,1,1,0]",0,31,31,31,1,0,1,,,0,FALSE,,,,,,,,,,,,,,,,,,,,,,,,,,,,,,
,5ef0eb65b242da18098cff78,001,2022-04-28_20h07.13.669,classification_task,2021.2.3,Win32,59.80145916,5ef0eb65b242da18098cff78,626b377229c10585ec392f89,626b39ffb0c628ea2af49a8f,,,,,,,,,,,,,,,,,,,,,,,l,1,2.2252,"[""0.102"",""0.840"",""0.480"",""0.763""]","[1,0,1,1]",0,32,32,32,1,1,0,,,0,FALSE,,,,,,,,,,,,,,,,,,,,,,,,,,,,,,
,5ef0eb65b242da18098cff78,001,2022-04-28_20h07.13.669,classification_task,2021.2.3,Win32,59.80145916,5ef0eb65b242da18098cff78,626b377229c10585ec392f89,626b39ffb0c628ea2af49a8f,,,,,,,,,,,,,,,,,,,,,,,l,1,0.6976,"[""0.676"",""0.138"",""0.600"",""0.803""]","[0,1,1,1]",0,33,33,33,1,1,1,,,0,FALSE,,,,,,,,,,,,,,,,,,,,,,,,,,,,,,
,5ef0eb65b242da18098cff78,001,2022-04-28_20h07.13.669,classification_task,2021.2.3,Win32,59.80145916,5ef0eb65b242da18098cff78,626b377229c10585ec392f89,626b39ffb0c628ea2af49a8f,,,,,,,,,,,,,,,,,,,,,,,l,0,1.2692,"[""0.192"",""0.669"",""0.886"",""0.971""]","[1,0,1,1]",0,34,34,34,1,0,0,,,0,FALSE,,,,,,,,,,,,,,,,,,,,,,,,,,,,,,
,5ef0eb65b242da18098cff78,001,2022-04-28_20h07.13.669,classification_task,2021.2.3,Win32,59.80145916,5ef0eb65b242da18098cff78,626b377229c10585ec392f89,626b39ffb0c628ea2af49a8f,,,,,,,,,,,,,,,,,,,,,,,l,0,1.8821,"[""0.534"",""0.396"",""0.886"",""0.971""]","[0,1,1,1]",0,35,35,35,1,0,0,,,0,FALSE,,,,,,,,,,,,,,,,,,,,,,,,,,,,,,
,5ef0eb65b242da18098cff78,001,2022-04-28_20h07.13.669,classification_task,2021.2.3,Win32,59.80145916,5ef0eb65b242da18098cff78,626b377229c10585ec392f89,626b39ffb0c628ea2af49a8f,,,,,,,,,,,,,,,,,,,,,,,l,0,1.349,"[""0.840"",""0.355"",""0.726"",""0.937""]","[0,1,1,1]",0,36,36,36,1,0,1,,,0,FALSE,,,,,,,,,,,,,,,,,,,,,,,,,,,,,,
,5ef0eb65b242da18098cff78,001,2022-04-28_20h07.13.669,classification_task,2021.2.3,Win32,59.80145916,5ef0eb65b242da18098cff78,626b377229c10585ec392f89,626b39ffb0c628ea2af49a8f,,,,,,,,,,,,,,,,,,,,,,,a,0,1.3661,"[""0.534"",""0.299"",""0.480"",""0.763""]","[0,1,1,1]",0,37,37,37,1,1,0,,,0,FALSE,,,,,,,,,,,,,,,,,,,,,,,,,,,,,,
,5ef0eb65b242da18098cff78,001,2022-04-28_20h07.13.669,classification_task,2021.2.3,Win32,59.80145916,5ef0eb65b242da18098cff78,626b377229c10585ec392f89,626b39ffb0c628ea2af49a8f,,,,,,,,,,,,,,,,,,,,,,,a,0,2.8798,"[""0.056"",""0.661"",""0.600"",""0.803""]","[1,0,1,1]",0,38,38,38,1,1,1,,,0,FALSE,,,,,,,,,,,,,,,,,,,,,,,,,,,,,,
,5ef0eb65b242da18098cff78,001,2022-04-28_20h07.13.669,classification_task,2021.2.3,Win32,59.80145916,5ef0eb65b242da18098cff78,626b377229c10585ec392f89,626b39ffb0c628ea2af49a8f,,,,,,,,,,,,,,,,,,,,,,,a,1,0.8145,"[""0.192"",""0.396"",""0.886"",""0.849""]","[1,1,1,0]",0,39,39,39,1,0,0,,,0,FALSE,,,,,,,,,,,,,,,,,,,,,,,,,,,,,,
,5ef0eb65b242da18098cff78,001,2022-04-28_20h07.13.669,classification_task,2021.2.3,Win32,59.80145916,5ef0eb65b242da18098cff78,626b377229c10585ec392f89,626b39ffb0c628ea2af49a8f,,,,,,,,,,,,,,,,,,,,,,,a,0,2.1636,"[""0.102"",""0.299"",""0.669"",""0.763""]","[1,1,0,1]",0,40,40,40,1,1,0,,,0,FALSE,,,,,,,,,,,,,,,,,,,,,,,,,,,,,,
,5ef0eb65b242da18098cff78,001,2022-04-28_20h07.13.669,classification_task,2021.2.3,Win32,59.80145916,5ef0eb65b242da18098cff78,626b377229c10585ec392f89,626b39ffb0c628ea2af49a8f,,,,,,,,,,,,,,,,,,,,,,,l,0,1.3647,"[""0.230"",""0.355"",""0.652"",""0.937""]","[1,1,0,1]",0,41,41,41,1,0,1,,,0,FALSE,,,,,,,,,,,,,,,,,,,,,,,,,,,,,,
,5ef0eb65b242da18098cff78,001,2022-04-28_20h07.13.669,classification_task,2021.2.3,Win32,59.80145916,5ef0eb65b242da18098cff78,626b377229c10585ec392f89,626b39ffb0c628ea2af49a8f,,,,,,,,,,,,,,,,,,,,,,,l,0,0.9638,"[""0.192"",""0.396"",""0.539"",""0.971""]","[1,1,0,1]",0,42,42,42,1,0,0,,,0,FALSE,,,,,,,,,,,,,,,,,,,,,,,,,,,,,,
,5ef0eb65b242da18098cff78,001,2022-04-28_20h07.13.669,classification_task,2021.2.3,Win32,59.80145916,5ef0eb65b242da18098cff78,626b377229c10585ec392f89,626b39ffb0c628ea2af49a8f,,,,,,,,,,,,,,,,,,,,,,,a,0,1.8651,"[""0.056"",""0.138"",""0.521"",""0.803""]","[1,1,0,1]",0,43,43,43,1,1,1,,,0,FALSE,,,,,,,,,,,,,,,,,,,,,,,,,,,,,,
,5ef0eb65b242da18098cff78,001,2022-04-28_20h07.13.669,classification_task,2021.2.3,Win32,59.80145916,5ef0eb65b242da18098cff78,626b377229c10585ec392f89,626b39ffb0c628ea2af49a8f,,,,,,,,,,,,,,,,,,,,,,,l,0,1.0301,"[""0.230"",""0.652"",""0.726"",""0.937""]","[1,0,1,1]",0,44,44,44,1,0,1,,,0,FALSE,,,,,,,,,,,,,,,,,,,,,,,,,,,,,,
,5ef0eb65b242da18098cff78,001,2022-04-28_20h07.13.669,classification_task,2021.2.3,Win32,59.80145916,5ef0eb65b242da18098cff78,626b377229c10585ec392f89,626b39ffb0c628ea2af49a8f,,,,,,,,,,,,,,,,,,,,,,,a,0,0.9833,"[""0.102"",""0.299"",""0.480"",""0.556""]","[1,1,1,0]",0,45,45,45,1,1,0,,,0,FALSE,,,,,,,,,,,,,,,,,,,,,,,,,,,,,,
,5ef0eb65b242da18098cff78,001,2022-04-28_20h07.13.669,classification_task,2021.2.3,Win32,59.80145916,5ef0eb65b242da18098cff78,626b377229c10585ec392f89,626b39ffb0c628ea2af49a8f,,,,,,,,,,,,,,,,,,,,,,,a,1,1.5037,"[""0.230"",""0.355"",""0.726"",""0.664""]","[1,1,1,0]",0,46,46,46,1,0,1,,,0,FALSE,,,,,,,,,,,,,,,,,,,,,,,,,,,,,,
,5ef0eb65b242da18098cff78,001,2022-04-28_20h07.13.669,classification_task,2021.2.3,Win32,59.80145916,5ef0eb65b242da18098cff78,626b377229c10585ec392f89,626b39ffb0c628ea2af49a8f,,,,,,,,,,,,,,,,,,,,,,,a,0,0.8051,"[""0.056"",""0.138"",""0.600"",""0.676""]","[1,1,1,0]",0,47,47,47,1,1,1,,,0,FALSE,,,,,,,,,,,,,,,,,,,,,,,,,,,,,,
,5ef0eb65b242da18098cff78,001,2022-04-28_20h07.13.669,classification_task,2021.2.3,Win32,59.80145916,5ef0eb65b242da18098cff78,626b377229c10585ec392f89,626b39ffb0c628ea2af49a8f,,,,,,,,,,,,,,,,,,,,,,,l,0,0.8316,"[""0.192"",""0.534"",""0.886"",""0.971""]","[1,0,1,1]",0,48,48,48,1,0,0,,,0,FALSE,,,,,,,,,,,,,,,,,,,,,,,,,,,,,,
,5ef0eb65b242da18098cff78,001,2022-04-28_20h07.13.669,classification_task,2021.2.3,Win32,59.80145916,5ef0eb65b242da18098cff78,626b377229c10585ec392f89,626b39ffb0c628ea2af49a8f,,,,,,,,,,,,,,,,,,,,,,,a,1,1.6657,"[""0.192"",""0.396"",""0.886"",""0.265""]","[1,1,1,0]",0,49,49,49,1,0,0,,,0,FALSE,,,,,,,,,,,,,,,,,,,,,,,,,,,,,,
,5ef0eb65b242da18098cff78,001,2022-04-28_20h07.13.669,classification_task,2021.2.3,Win32,59.80145916,5ef0eb65b242da18098cff78,626b377229c10585ec392f89,626b39ffb0c628ea2af49a8f,,,,,,,,,,,,,,,,,,,,,,,l,0,1.1149,"[""0.230"",""0.534"",""0.726"",""0.937""]","[1,0,1,1]",0,50,50,50,1,0,1,,,0,FALSE,,,,,,,,,,,,,,,,,,,,,,,,,,,,,,
,5ef0eb65b242da18098cff78,001,2022-04-28_20h07.13.669,classification_task,2021.2.3,Win32,59.80145916,5ef0eb65b242da18098cff78,626b377229c10585ec392f89,626b39ffb0c628ea2af49a8f,,,,,,,,,,,,,,,,,,,,,,,l,0,0.555,"[""0.521"",""0.355"",""0.726"",""0.937""]","[0,1,1,1]",0,51,51,51,1,0,1,,,0,FALSE,,,,,,,,,,,,,,,,,,,,,,,,,,,,,,
,5ef0eb65b242da18098cff78,001,2022-04-28_20h07.13.669,classification_task,2021.2.3,Win32,59.80145916,5ef0eb65b242da18098cff78,626b377229c10585ec392f89,626b39ffb0c628ea2af49a8f,,,,,,,,,,,,,,,,,,,,,,,l,0,0.9473,"[""0.669"",""0.396"",""0.886"",""0.971""]","[0,1,1,1]",0,52,52,52,1,0,0,,,0,FALSE,,,,,,,,,,,,,,,,,,,,,,,,,,,,,,
,5ef0eb65b242da18098cff78,001,2022-04-28_20h07.13.669,classification_task,2021.2.3,Win32,59.80145916,5ef0eb65b242da18098cff78,626b377229c10585ec392f89,626b39ffb0c628ea2af49a8f,,,,,,,,,,,,,,,,,,,,,,,a,0,0.9453,"[""0.056"",""0.138"",""0.550"",""0.803""]","[1,1,0,1]",0,53,53,53,1,1,1,,,0,FALSE,,,,,,,,,,,,,,,,,,,,,,,,,,,,,,
,5ef0eb65b242da18098cff78,001,2022-04-28_20h07.13.669,classification_task,2021.2.3,Win32,59.80145916,5ef0eb65b242da18098cff78,626b377229c10585ec392f89,626b39ffb0c628ea2af49a8f,,,,,,,,,,,,,,,,,,,,,,,a,0,0.8465,"[""0.521"",""0.299"",""0.480"",""0.763""]","[0,1,1,1]",0,54,54,54,1,1,0,,,0,FALSE,,,,,,,,,,,,,,,,,,,,,,,,,,,,,,
,5ef0eb65b242da18098cff78,001,2022-04-28_20h07.13.669,classification_task,2021.2.3,Win32,59.80145916,5ef0eb65b242da18098cff78,626b377229c10585ec392f89,626b39ffb0c628ea2af49a8f,,,,,,,,,,,,,,,,,,,,,,,l,0,1.664,"[""0.230"",""0.355"",""0.849"",""0.937""]","[1,1,0,1]",0,55,55,55,1,0,1,,,0,FALSE,,,,,,,,,,,,,,,,,,,,,,,,,,,,,,
,5ef0eb65b242da18098cff78,001,2022-04-28_20h07.13.669,classification_task,2021.2.3,Win32,59.80145916,5ef0eb65b242da18098cff78,626b377229c10585ec392f89,626b39ffb0c628ea2af49a8f,,,,,,,,,,,,,,,,,,,,,,,l,1,1.4993,"[""0.056"",""0.664"",""0.600"",""0.803""]","[1,0,1,1]",0,56,56,56,1,1,1,,,0,FALSE,,,,,,,,,,,,,,,,,,,,,,,,,,,,,,
,5ef0eb65b242da18098cff78,001,2022-04-28_20h07.13.669,classification_task,2021.2.3,Win32,59.80145916,5ef0eb65b242da18098cff78,626b377229c10585ec392f89,626b39ffb0c628ea2af49a8f,,,,,,,,,,,,,,,,,,,,,,,a,1,1.2313,"[""0.230"",""0.355"",""0.726"",""0.550""]","[1,1,1,0]",0,57,57,57,1,0,1,,,0,FALSE,,,,,,,,,,,,,,,,,,,,,,,,,,,,,,
,5ef0eb65b242da18098cff78,001,2022-04-28_20h07.13.669,classification_task,2021.2.3,Win32,59.80145916,5ef0eb65b242da18098cff78,626b377229c10585ec392f89,626b39ffb0c628ea2af49a8f,,,,,,,,,,,,,,,,,,,,,,,l,0,1.465,"[""0.192"",""0.396"",""0.849"",""0.971""]","[1,1,0,1]",0,58,58,58,1,0,0,,,0,FALSE,,,,,,,,,,,,,,,,,,,,,,,,,,,,,,
,5ef0eb65b242da18098cff78,001,2022-04-28_20h07.13.669,classification_task,2021.2.3,Win32,59.80145916,5ef0eb65b242da18098cff78,626b377229c10585ec392f89,626b39ffb0c628ea2af49a8f,,,,,,,,,,,,,,,,,,,,,,,a,0,2.0297,"[""0.664"",""0.138"",""0.600"",""0.803""]","[0,1,1,1]",0,59,59,59,1,1,1,,,0,FALSE,,,,,,,,,,,,,,,,,,,,,,,,,,,,,,
,5ef0eb65b242da18098cff78,001,2022-04-28_20h07.13.669,classification_task,2021.2.3,Win32,59.80145916,5ef0eb65b242da18098cff78,626b377229c10585ec392f89,626b39ffb0c628ea2af49a8f,,,,,,,,,,,,,,,,,,,,,,,a,0,0.915,"[""0.102"",""0.299"",""0.480"",""0.676""]","[1,1,1,0]",0,60,60,60,1,1,0,,,0,FALSE,,,,,,,,,,,,,,,,,,,,,,,,,,,,,,
,5ef0eb65b242da18098cff78,001,2022-04-28_20h07.13.669,classification_task,2021.2.3,Win32,59.80145916,5ef0eb65b242da18098cff78,626b377229c10585ec392f89,626b39ffb0c628ea2af49a8f,,,,,,,,,,,,,,,,,,,,,,,a,0,0.8224,"[""0.056"",""0.138"",""0.600"",""0.265""]","[1,1,1,0]",0,61,61,61,1,1,1,,,0,FALSE,,,,,,,,,,,,,,,,,,,,,,,,,,,,,,
,5ef0eb65b242da18098cff78,001,2022-04-28_20h07.13.669,classification_task,2021.2.3,Win32,59.80145916,5ef0eb65b242da18098cff78,626b377229c10585ec392f89,626b39ffb0c628ea2af49a8f,,,,,,,,,,,,,,,,,,,,,,,a,0,0.8821,"[""0.102"",""0.299"",""0.532"",""0.763""]","[1,1,0,1]",0,62,62,62,1,1,0,,,0,FALSE,,,,,,,,,,,,,,,,,,,,,,,,,,,,,,
,5ef0eb65b242da18098cff78,001,2022-04-28_20h07.13.669,classification_task,2021.2.3,Win32,59.80145916,5ef0eb65b242da18098cff78,626b377229c10585ec392f89,626b39ffb0c628ea2af49a8f,,,,,,,,,,,,,,,,,,,,,,,l,1,1.1987,"[""0.102"",""0.849"",""0.480"",""0.763""]","[1,0,1,1]",0,63,63,63,1,1,0,,,0,FALSE,,,,,,,,,,,,,,,,,,,,,,,,,,,,,,
,5ef0eb65b242da18098cff78,001,2022-04-28_20h07.13.669,classification_task,2021.2.3,Win32,59.80145916,5ef0eb65b242da18098cff78,626b377229c10585ec392f89,626b39ffb0c628ea2af49a8f,,,,,,,,,,,,,,,,,,,,,,,,,,,,,,,,,,,,,,,0, ,,0,3.305487419,168.0519,0,2,2,2,1,2,3,,,,,,,,,,,,,,,,,
,5ef0eb65b242da18098cff78,001,2022-04-28_20h07.13.669,classification_task,2021.2.3,Win32,59.80145916,5ef0eb65b242da18098cff78,626b377229c10585ec392f89,626b39ffb0c628ea2af49a8f,,,,,,,,,,,,,,,,,,,,,,,,,,,,,,,,,,,,,,,1,  ,,0,5.026816605,169.7174,0,2,2,2,1,2,3,,,,,,,,,,,,,,,,,
,5ef0eb65b242da18098cff78,001,2022-04-28_20h07.13.669,classification_task,2021.2.3,Win32,59.80145916,5ef0eb65b242da18098cff78,626b377229c10585ec392f89,626b39ffb0c628ea2af49a8f,,,,,,,,,,,,,,,,,,,,,,,,,,,,,,,,,,,,,,,2,  ,,0,5.40550716,171.4302,0,2,2,2,1,2,3,,,,,,,,,,,,,,,,,
,5ef0eb65b242da18098cff78,001,2022-04-28_20h07.13.669,classification_task,2021.2.3,Win32,59.80145916,5ef0eb65b242da18098cff78,626b377229c10585ec392f89,626b39ffb0c628ea2af49a8f,,,,,,,,,,,,,,,,,,,,,,,,,,,,,,,,,,,,,,,,,,,,,0,2,2,2,1,,3,,,,,,,,,,,,,,,,,
,5ef0eb65b242da18098cff78,001,2022-04-28_20h07.13.669,classification_task,2021.2.3,Win32,59.80145916,5ef0eb65b242da18098cff78,626b377229c10585ec392f89,626b39ffb0c628ea2af49a8f,,,,,,,,,,,,,,,,,,,,,,,,,,,,,,,,,,,,,,,,,,,,,,,,,,,,,I believe the aid is a competent performer,,0.7,0,3,902.3653,0,0,0,0,1,0,,,,
,5ef0eb65b242da18098cff78,001,2022-04-28_20h07.13.669,classification_task,2021.2.3,Win32,59.80145916,5ef0eb65b242da18098cff78,626b377229c10585ec392f89,626b39ffb0c628ea2af49a8f,,,,,,,,,,,,,,,,,,,,,,,,,,,,,,,,,,,,,,,,,,,,,,,,,,,,,I trust the aid,,0.7,0,4,905.6961,0,0,0,0,1,0,,,,
,5ef0eb65b242da18098cff78,001,2022-04-28_20h07.13.669,classification_task,2021.2.3,Win32,59.80145916,5ef0eb65b242da18098cff78,626b377229c10585ec392f89,626b39ffb0c628ea2af49a8f,,,,,,,,,,,,,,,,,,,,,,,,,,,,,,,,,,,,,,,,,,,,,,,,,,,,,I have confidence in the advice given by the aid,,0.7,0,4,907.8694,0,0,0,0,1,0,,,,
,5ef0eb65b242da18098cff78,001,2022-04-28_20h07.13.669,classification_task,2021.2.3,Win32,59.80145916,5ef0eb65b242da18098cff78,626b377229c10585ec392f89,626b39ffb0c628ea2af49a8f,,,,,,,,,,,,,,,,,,,,,,,,,,,,,,,,,,,,,,,,,,,,,,,,,,,,,I can depend on the aid,,0.7,0,3,910.8677,0,0,0,0,1,0,,,,
,5ef0eb65b242da18098cff78,001,2022-04-28_20h07.13.669,classification_task,2021.2.3,Win32,59.80145916,5ef0eb65b242da18098cff78,626b377229c10585ec392f89,626b39ffb0c628ea2af49a8f,,,,,,,,,,,,,,,,,,,,,,,,,,,,,,,,,,,,,,,,,,,,,,,,,,,,,I can rely on the aid to behave in consistent ways,,0.7,0,2,914.4859,0,0,0,0,1,0,,,,
,5ef0eb65b242da18098cff78,001,2022-04-28_20h07.13.669,classification_task,2021.2.3,Win32,59.80145916,5ef0eb65b242da18098cff78,626b377229c10585ec392f89,626b39ffb0c628ea2af49a8f,,,,,,,,,,,,,,,,,,,,,,,,,,,,,,,,,,,,,,,,,,,,,,,,,,,,,I can rely on the aid to do its best every time I take its advice,,0.7,0,2,917.769,0,0,0,0,1,0,,,,
,5ef0eb65b242da18098cff78,001,2022-04-28_20h07.13.669,classification_task,2021.2.3,Win32,59.80145916,5ef0eb65b242da18098cff78,626b377229c10585ec392f89,626b39ffb0c628ea2af49a8f,,,,,,,,,,,,,,,,,,,,,,,,,,,,,,,,,,,,,,,,,,,,,,,,,,,,,"On trials you completed with assistance from the aid, how frequently did you think the aid was correct?",,0.7,0,50%,,0,0,0,0,1,0,,,,
,5ef0eb65b242da18098cff78,001,2022-04-28_20h07.13.669,classification_task,2021.2.3,Win32,59.80145916,5ef0eb65b242da18098cff78,626b377229c10585ec392f89,626b39ffb0c628ea2af49a8f,,,,,,,,,,,,,,,,,,,,,,,,,,,,,,,,,,,,,,,,,,,,,,,,,,,,,"On trials you completed without the aid, how frequently did you think you were correct?",,0.7,0,25%,,0,0,0,0,1,0,,,,
,5ef0eb65b242da18098cff78,001,2022-04-28_20h07.13.669,classification_task,2021.2.3,Win32,59.80145916,5ef0eb65b242da18098cff78,626b377229c10585ec392f89,626b39ffb0c628ea2af49a8f,,,,,,,,,,,,,,,,,,,,,,,,,,,,,,,,,,,,,,,,,,,,,,,,,,,,,,,,,,,0,0,0,0,1,,,,,
,5ef0eb65b242da18098cff78,001,2022-04-28_20h07.13.669,classification_task,2021.2.3,Win32,59.80145916,5ef0eb65b242da18098cff78,626b377229c10585ec392f89,626b39ffb0c628ea2af49a8f,,,,,,,,,,,,,,,,,,,,,,,,,,,,,,,,,,,,,,,,,,,,,,,,,,,,,,,,,,,,,,,,,space,10.2216,952.3774,
,5ef0eb65b242da18098cff78,001,2022-04-28_20h07.13.669,classification_task,2021.2.3,Win32,59.80145916,5ef0eb65b242da18098cff78,626b377229c10585ec392f89,626b39ffb0c628ea2af49a8f,,,,,,,,,,,,,,,,,,,,,,,,,,,,,,,,,,,,,,,,,,,,,,,,,,,,,,,,,,,,,,,,,,,,"Mozilla/5.0 (Windows NT 10.0; Win64; x64) AppleWebKit/537.36 (KHTML, like Gecko) Chrome/101.0.4951.41 Safari/537.36"
