usingWebGL,participant,session,date,expName,psychopyVersion,OS,frameRate,PROLIFIC_PID,STUDY_ID,SESSION_ID,signatures_friend,signatures_foe,band_ranges_top,band_ranges_bottom,formitemText,formtype,formundefined,formitemWidth,formindex,formresponse,formrt,key_resp_2.keys,key_resp_2.rt,tute_resp.keys,tute_resp.rt,tutorial.thisRepN,tutorial.thisTrialN,tutorial.thisN,tutorial.thisIndex,tutorial.ran,key_resp_4.keys,key_resp_4.rt,key_resp.keys,key_resp.corr,key_resp.rt,lines_presented,is_signal_presented,trials.thisRepN,trials.thisTrialN,trials.thisN,trials.thisIndex,trials.ran,vessel,active_band,lines,is_signal,supported_pos,catch_trial,debrief_formindex,debrief_formitemText,debrief_formtype,debrief_formitemWidth,debrief_formresponse,debrief_formrt,phases.thisRepN,phases.thisTrialN,phases.thisN,phases.thisIndex,phases.ran,phases.order,phase,key_resp_3.keys,trustitemText,trusttype,trustitemWidth,trustindex,trustresponse,trustrt,support_status.thisRepN,support_status.thisTrialN,support_status.thisN,support_status.thisIndex,support_status.ran,support_status.order,key_resp_5.keys,key_resp_5.rt,globalClockTime,userAgent
TRUE,5efd440689469118b2540378,001,2022-04-28_18h03.19.398,classification_task,2021.2.3,Win32,60.35367252,5efd440689469118b2540378,626b377229c10585ec392f8a,626b38e0674052d874d36953,,,,,,,,,,,,,,,,,,,,,,,,,,,,,,,,,,,,,,,,,,,,,,,,,,,,,,,,,,,,,,,,,,,,
,5efd440689469118b2540378,001,2022-04-28_18h03.19.398,classification_task,2021.2.3,Win32,60.35367252,5efd440689469118b2540378,626b377229c10585ec392f8a,626b38e0674052d874d36953,"[[""0.226"",""0.539"",""0.808"",""0.972""],[""0.303"",""0.473"",""0.871"",""0.931""]]","[[""0.109"",""0.156"",""0.574"",""0.765""],[""0.043"",""0.400"",""0.619"",""0.721""]]","[1,10]","[100,1000]",Video game experience,,,0.7,0,,,,,,,,,,,,,,,,,,,,,,,,,,,,,,,,,,,,,,,,,,,,,,,,,,,,,,,,,,,
,5efd440689469118b2540378,001,2022-04-28_18h03.19.398,classification_task,2021.2.3,Win32,60.35367252,5efd440689469118b2540378,626b377229c10585ec392f8a,626b38e0674052d874d36953,,,,,Approximately how many hours did you spend playing video games in the last week?,,,0.7,0,5,,,,,,,,,,,,,,,,,,,,,,,,,,,,,,,,,,,,,,,,,,,,,,,,,,,,,,,,,,
,5efd440689469118b2540378,001,2022-04-28_18h03.19.398,classification_task,2021.2.3,Win32,60.35367252,5efd440689469118b2540378,626b377229c10585ec392f8a,626b38e0674052d874d36953,,,,,"Which game did you play the most this year? (Enter ""None"" if you didn't play any)",,,0.7,0,Parchis,,,,,,,,,,,,,,,,,,,,,,,,,,,,,,,,,,,,,,,,,,,,,,,,,,,,,,,,,,
,5efd440689469118b2540378,001,2022-04-28_18h03.19.398,classification_task,2021.2.3,Win32,60.35367252,5efd440689469118b2540378,626b377229c10585ec392f8a,626b38e0674052d874d36953,,,,,Visual perception,,,0.7,0,,,,,,,,,,,,,,,,,,,,,,,,,,,,,,,,,,,,,,,,,,,,,,,,,,,,,,,,,,,
,5efd440689469118b2540378,001,2022-04-28_18h03.19.398,classification_task,2021.2.3,Win32,60.35367252,5efd440689469118b2540378,626b377229c10585ec392f8a,626b38e0674052d874d36953,,,,,Do you have any form of color blindness?,,,0.7,0,No,19.9221,,,,,,,,,,,,,,,,,,,,,,,,,,,,,,,,,,,,,,,,,,,,,,,,,,,,,,,,,
,5efd440689469118b2540378,001,2022-04-28_18h03.19.398,classification_task,2021.2.3,Win32,60.35367252,5efd440689469118b2540378,626b377229c10585ec392f8a,626b38e0674052d874d36953,,,,,Do you use software to change the colour temperature of your screen (e.g. f.lux)?,,,0.7,0,No,23.7762,,,,,,,,,,,,,,,,,,,,,,,,,,,,,,,,,,,,,,,,,,,,,,,,,,,,,,,,,
,5efd440689469118b2540378,001,2022-04-28_18h03.19.398,classification_task,2021.2.3,Win32,60.35367252,5efd440689469118b2540378,626b377229c10585ec392f8a,626b38e0674052d874d36953,,,,,,,,,,,,space,38.3335,space,7.6798,0,0,0,0,1,,,,,,,,,,,,,,,,,,,,,,,,,,,,,,,,,,,,,,,,,,,,,,,,
,5efd440689469118b2540378,001,2022-04-28_18h03.19.398,classification_task,2021.2.3,Win32,60.35367252,5efd440689469118b2540378,626b377229c10585ec392f8a,626b38e0674052d874d36953,,,,,,,,,,,,,,space,8.7965,1,0,1,0,1,,,,,,,,,,,,,,,,,,,,,,,,,,,,,,,,,,,,,,,,,,,,,,,,
,5efd440689469118b2540378,001,2022-04-28_18h03.19.398,classification_task,2021.2.3,Win32,60.35367252,5efd440689469118b2540378,626b377229c10585ec392f8a,626b38e0674052d874d36953,,,,,,,,,,,,,,space,36.0084,2,0,2,0,1,,,,,,,,,,,,,,,,,,,,,,,,,,,,,,,,,,,,,,,,,,,,,,,,
,5efd440689469118b2540378,001,2022-04-28_18h03.19.398,classification_task,2021.2.3,Win32,60.35367252,5efd440689469118b2540378,626b377229c10585ec392f8a,626b38e0674052d874d36953,,,,,,,,,,,,,,space,9.3411,3,0,3,0,1,,,,,,,,,,,,,,,,,,,,,,,,,,,,,,,,,,,,,,,,,,,,,,,,
,5efd440689469118b2540378,001,2022-04-28_18h03.19.398,classification_task,2021.2.3,Win32,60.35367252,5efd440689469118b2540378,626b377229c10585ec392f8a,626b38e0674052d874d36953,,,,,,,,,,,,,,space,18.7631,4,0,4,0,1,,,,,,,,,,,,,,,,,,,,,,,,,,,,,,,,,,,,,,,,,,,,,,,,
,5efd440689469118b2540378,001,2022-04-28_18h03.19.398,classification_task,2021.2.3,Win32,60.35367252,5efd440689469118b2540378,626b377229c10585ec392f8a,626b38e0674052d874d36953,,,,,,,,,,,,,,,,,,,,,space,13.8207,l,0,6.1443,"[""0.226"",""0.539"",""0.350"",""0.972""]","[1,1,0,1]",0,0,0,0,1,0,0,,,0,FALSE,,,,,,,,,,,,,,,,,,,,,,,,,,,,,,
,5efd440689469118b2540378,001,2022-04-28_18h03.19.398,classification_task,2021.2.3,Win32,60.35367252,5efd440689469118b2540378,626b377229c10585ec392f8a,626b38e0674052d874d36953,,,,,,,,,,,,,,,,,,,,,,,l,1,3.2501,"[""0.109"",""0.156"",""0.574"",""0.341""]","[1,1,1,0]",0,1,1,1,1,1,0,,,0,FALSE,,,,,,,,,,,,,,,,,,,,,,,,,,,,,,
,5efd440689469118b2540378,001,2022-04-28_18h03.19.398,classification_task,2021.2.3,Win32,60.35367252,5efd440689469118b2540378,626b377229c10585ec392f8a,626b38e0674052d874d36953,,,,,,,,,,,,,,,,,,,,,,,l,1,3.9185,"[""0.043"",""0.400"",""0.619"",""0.348""]","[1,1,1,0]",0,2,2,2,1,1,1,,,0,FALSE,,,,,,,,,,,,,,,,,,,,,,,,,,,,,,
,5efd440689469118b2540378,001,2022-04-28_18h03.19.398,classification_task,2021.2.3,Win32,60.35367252,5efd440689469118b2540378,626b377229c10585ec392f8a,626b38e0674052d874d36953,,,,,,,,,,,,,,,,,,,,,,,a,1,4.1168,"[""0.344"",""0.473"",""0.871"",""0.931""]","[0,1,1,1]",0,3,3,3,1,0,1,,,0,FALSE,,,,,,,,,,,,,,,,,,,,,,,,,,,,,,
,5efd440689469118b2540378,001,2022-04-28_18h03.19.398,classification_task,2021.2.3,Win32,60.35367252,5efd440689469118b2540378,626b377229c10585ec392f8a,626b38e0674052d874d36953,,,,,,,,,,,,,,,,,,,,,,,a,1,4.3461,"[""0.303"",""0.473"",""0.661"",""0.931""]","[1,1,0,1]",0,4,4,4,1,0,1,,,0,FALSE,,,,,,,,,,,,,,,,,,,,,,,,,,,,,,
,5efd440689469118b2540378,001,2022-04-28_18h03.19.398,classification_task,2021.2.3,Win32,60.35367252,5efd440689469118b2540378,626b377229c10585ec392f8a,626b38e0674052d874d36953,,,,,,,,,,,,,,,,,,,,,,,l,1,4.8201,"[""0.109"",""0.156"",""0.343"",""0.765""]","[1,1,0,1]",0,5,5,5,1,1,0,,,0,FALSE,,,,,,,,,,,,,,,,,,,,,,,,,,,,,,
,5efd440689469118b2540378,001,2022-04-28_18h03.19.398,classification_task,2021.2.3,Win32,60.35367252,5efd440689469118b2540378,626b377229c10585ec392f8a,626b38e0674052d874d36953,,,,,,,,,,,,,,,,,,,,,,,l,0,2.6672,"[""0.303"",""0.473"",""0.871"",""0.343""]","[1,1,1,0]",0,6,6,6,1,0,1,,,0,FALSE,,,,,,,,,,,,,,,,,,,,,,,,,,,,,,
,5efd440689469118b2540378,001,2022-04-28_18h03.19.398,classification_task,2021.2.3,Win32,60.35367252,5efd440689469118b2540378,626b377229c10585ec392f8a,626b38e0674052d874d36953,,,,,,,,,,,,,,,,,,,,,,,l,0,5.5545,"[""0.226"",""0.539"",""0.808"",""0.661""]","[1,1,1,0]",0,7,7,7,1,0,0,,,0,FALSE,,,,,,,,,,,,,,,,,,,,,,,,,,,,,,
,5efd440689469118b2540378,001,2022-04-28_18h03.19.398,classification_task,2021.2.3,Win32,60.35367252,5efd440689469118b2540378,626b377229c10585ec392f8a,626b38e0674052d874d36953,,,,,,,,,,,,,,,,,,,,,,,a,1,4.4988,"[""0.661"",""0.539"",""0.808"",""0.972""]","[0,1,1,1]",0,8,8,8,1,0,0,,,0,FALSE,,,,,,,,,,,,,,,,,,,,,,,,,,,,,,
,5efd440689469118b2540378,001,2022-04-28_18h03.19.398,classification_task,2021.2.3,Win32,60.35367252,5efd440689469118b2540378,626b377229c10585ec392f8a,626b38e0674052d874d36953,,,,,,,,,,,,,,,,,,,,,,,l,1,3.2644,"[""0.043"",""0.400"",""0.438"",""0.721""]","[1,1,0,1]",0,9,9,9,1,1,1,,,0,FALSE,,,,,,,,,,,,,,,,,,,,,,,,,,,,,,
,5efd440689469118b2540378,001,2022-04-28_18h03.19.398,classification_task,2021.2.3,Win32,60.35367252,5efd440689469118b2540378,626b377229c10585ec392f8a,626b38e0674052d874d36953,,,,,,,,,,,,,,,,,,,,,,,l,0,2.3998,"[""0.303"",""0.678"",""0.871"",""0.931""]","[1,0,1,1]",0,10,10,10,1,0,1,,,0,FALSE,,,,,,,,,,,,,,,,,,,,,,,,,,,,,,
,5efd440689469118b2540378,001,2022-04-28_18h03.19.398,classification_task,2021.2.3,Win32,60.35367252,5efd440689469118b2540378,626b377229c10585ec392f8a,626b38e0674052d874d36953,,,,,,,,,,,,,,,,,,,,,,,l,1,3.7733,"[""0.043"",""0.358"",""0.619"",""0.721""]","[1,0,1,1]",0,11,11,11,1,1,1,,,0,FALSE,,,,,,,,,,,,,,,,,,,,,,,,,,,,,,
,5efd440689469118b2540378,001,2022-04-28_18h03.19.398,classification_task,2021.2.3,Win32,60.35367252,5efd440689469118b2540378,626b377229c10585ec392f8a,626b38e0674052d874d36953,,,,,,,,,,,,,,,,,,,,,,,,0,,"[""0.226"",""0.341"",""0.808"",""0.972""]","[1,0,1,1]",0,12,12,12,1,0,0,,,0,FALSE,,,,,,,,,,,,,,,,,,,,,,,,,,,,,,
,5efd440689469118b2540378,001,2022-04-28_18h03.19.398,classification_task,2021.2.3,Win32,60.35367252,5efd440689469118b2540378,626b377229c10585ec392f8a,626b38e0674052d874d36953,,,,,,,,,,,,,,,,,,,,,,,l,1,2.7578,"[""0.678"",""0.400"",""0.619"",""0.721""]","[0,1,1,1]",0,13,13,13,1,1,1,,,0,FALSE,,,,,,,,,,,,,,,,,,,,,,,,,,,,,,
,5efd440689469118b2540378,001,2022-04-28_18h03.19.398,classification_task,2021.2.3,Win32,60.35367252,5efd440689469118b2540378,626b377229c10585ec392f8a,626b38e0674052d874d36953,,,,,,,,,,,,,,,,,,,,,,,a,0,3.3405,"[""0.109"",""0.343"",""0.574"",""0.765""]","[1,0,1,1]",0,14,14,14,1,1,0,,,0,FALSE,,,,,,,,,,,,,,,,,,,,,,,,,,,,,,
,5efd440689469118b2540378,001,2022-04-28_18h03.19.398,classification_task,2021.2.3,Win32,60.35367252,5efd440689469118b2540378,626b377229c10585ec392f8a,626b38e0674052d874d36953,,,,,,,,,,,,,,,,,,,,,,,l,1,1.6496,"[""0.344"",""0.156"",""0.574"",""0.765""]","[0,1,1,1]",0,15,15,15,1,1,0,,,0,FALSE,,,,,,,,,,,,,,,,,,,,,,,,,,,,,,
,5efd440689469118b2540378,001,2022-04-28_18h03.19.398,classification_task,2021.2.3,Win32,60.35367252,5efd440689469118b2540378,626b377229c10585ec392f8a,626b38e0674052d874d36953,,,,,,,,,,,,,,,,,,,,,,,l,0,1.4293,"[""0.303"",""0.473"",""0.871"",""0.344""]","[1,1,1,0]",0,16,16,16,1,0,1,,,0,FALSE,,,,,,,,,,,,,,,,,,,,,,,,,,,,,,
,5efd440689469118b2540378,001,2022-04-28_18h03.19.398,classification_task,2021.2.3,Win32,60.35367252,5efd440689469118b2540378,626b377229c10585ec392f8a,626b38e0674052d874d36953,,,,,,,,,,,,,,,,,,,,,,,l,0,2.1589,"[""0.303"",""0.473"",""0.337"",""0.931""]","[1,1,0,1]",0,17,17,17,1,0,1,,,0,FALSE,,,,,,,,,,,,,,,,,,,,,,,,,,,,,,
,5efd440689469118b2540378,001,2022-04-28_18h03.19.398,classification_task,2021.2.3,Win32,60.35367252,5efd440689469118b2540378,626b377229c10585ec392f8a,626b38e0674052d874d36953,,,,,,,,,,,,,,,,,,,,,,,a,0,1.888,"[""0.043"",""0.658"",""0.619"",""0.721""]","[1,0,1,1]",0,18,18,18,1,1,1,,,0,FALSE,,,,,,,,,,,,,,,,,,,,,,,,,,,,,,
,5efd440689469118b2540378,001,2022-04-28_18h03.19.398,classification_task,2021.2.3,Win32,60.35367252,5efd440689469118b2540378,626b377229c10585ec392f8a,626b38e0674052d874d36953,,,,,,,,,,,,,,,,,,,,,,,l,1,2.7714,"[""0.109"",""0.156"",""0.355"",""0.765""]","[1,1,0,1]",0,19,19,19,1,1,0,,,0,FALSE,,,,,,,,,,,,,,,,,,,,,,,,,,,,,,
,5efd440689469118b2540378,001,2022-04-28_18h03.19.398,classification_task,2021.2.3,Win32,60.35367252,5efd440689469118b2540378,626b377229c10585ec392f8a,626b38e0674052d874d36953,,,,,,,,,,,,,,,,,,,,,,,a,1,2.4945,"[""0.226"",""0.539"",""0.808"",""0.675""]","[1,1,1,0]",0,20,20,20,1,0,0,,,0,FALSE,,,,,,,,,,,,,,,,,,,,,,,,,,,,,,
,5efd440689469118b2540378,001,2022-04-28_18h03.19.398,classification_task,2021.2.3,Win32,60.35367252,5efd440689469118b2540378,626b377229c10585ec392f8a,626b38e0674052d874d36953,,,,,,,,,,,,,,,,,,,,,,,l,0,2.3158,"[""0.303"",""0.658"",""0.871"",""0.931""]","[1,0,1,1]",0,21,21,21,1,0,1,,,0,FALSE,,,,,,,,,,,,,,,,,,,,,,,,,,,,,,
,5efd440689469118b2540378,001,2022-04-28_18h03.19.398,classification_task,2021.2.3,Win32,60.35367252,5efd440689469118b2540378,626b377229c10585ec392f8a,626b38e0674052d874d36953,,,,,,,,,,,,,,,,,,,,,,,a,1,1.9621,"[""0.226"",""0.658"",""0.808"",""0.972""]","[1,0,1,1]",0,22,22,22,1,0,0,,,0,FALSE,,,,,,,,,,,,,,,,,,,,,,,,,,,,,,
,5efd440689469118b2540378,001,2022-04-28_18h03.19.398,classification_task,2021.2.3,Win32,60.35367252,5efd440689469118b2540378,626b377229c10585ec392f8a,626b38e0674052d874d36953,,,,,,,,,,,,,,,,,,,,,,,l,1,3.3839,"[""0.043"",""0.400"",""0.355"",""0.721""]","[1,1,0,1]",0,23,23,23,1,1,1,,,0,FALSE,,,,,,,,,,,,,,,,,,,,,,,,,,,,,,
,5efd440689469118b2540378,001,2022-04-28_18h03.19.398,classification_task,2021.2.3,Win32,60.35367252,5efd440689469118b2540378,626b377229c10585ec392f8a,626b38e0674052d874d36953,,,,,,,,,,,,,,,,,,,,,,,l,0,3.7696,"[""0.348"",""0.473"",""0.871"",""0.931""]","[0,1,1,1]",0,24,24,24,1,0,1,,,0,FALSE,,,,,,,,,,,,,,,,,,,,,,,,,,,,,,
,5efd440689469118b2540378,001,2022-04-28_18h03.19.398,classification_task,2021.2.3,Win32,60.35367252,5efd440689469118b2540378,626b377229c10585ec392f8a,626b38e0674052d874d36953,,,,,,,,,,,,,,,,,,,,,,,a,1,2.5484,"[""0.226"",""0.539"",""0.678"",""0.972""]","[1,1,0,1]",0,25,25,25,1,0,0,,,0,FALSE,,,,,,,,,,,,,,,,,,,,,,,,,,,,,,
,5efd440689469118b2540378,001,2022-04-28_18h03.19.398,classification_task,2021.2.3,Win32,60.35367252,5efd440689469118b2540378,626b377229c10585ec392f8a,626b38e0674052d874d36953,,,,,,,,,,,,,,,,,,,,,,,l,1,4.5988,"[""0.109"",""0.156"",""0.574"",""0.661""]","[1,1,1,0]",0,26,26,26,1,1,0,,,0,FALSE,,,,,,,,,,,,,,,,,,,,,,,,,,,,,,
,5efd440689469118b2540378,001,2022-04-28_18h03.19.398,classification_task,2021.2.3,Win32,60.35367252,5efd440689469118b2540378,626b377229c10585ec392f8a,626b38e0674052d874d36953,,,,,,,,,,,,,,,,,,,,,,,l,1,2.0547,"[""0.344"",""0.400"",""0.619"",""0.721""]","[0,1,1,1]",0,27,27,27,1,1,1,,,0,FALSE,,,,,,,,,,,,,,,,,,,,,,,,,,,,,,
,5efd440689469118b2540378,001,2022-04-28_18h03.19.398,classification_task,2021.2.3,Win32,60.35367252,5efd440689469118b2540378,626b377229c10585ec392f8a,626b38e0674052d874d36953,,,,,,,,,,,,,,,,,,,,,,,a,1,2.8715,"[""0.266"",""0.539"",""0.808"",""0.972""]","[0,1,1,1]",0,28,28,28,1,0,0,,,0,FALSE,,,,,,,,,,,,,,,,,,,,,,,,,,,,,,
,5efd440689469118b2540378,001,2022-04-28_18h03.19.398,classification_task,2021.2.3,Win32,60.35367252,5efd440689469118b2540378,626b377229c10585ec392f8a,626b38e0674052d874d36953,,,,,,,,,,,,,,,,,,,,,,,l,1,1.9535,"[""0.337"",""0.156"",""0.574"",""0.765""]","[0,1,1,1]",0,29,29,29,1,1,0,,,0,FALSE,,,,,,,,,,,,,,,,,,,,,,,,,,,,,,
,5efd440689469118b2540378,001,2022-04-28_18h03.19.398,classification_task,2021.2.3,Win32,60.35367252,5efd440689469118b2540378,626b377229c10585ec392f8a,626b38e0674052d874d36953,,,,,,,,,,,,,,,,,,,,,,,l,1,4.8735,"[""0.043"",""0.400"",""0.619"",""0.661""]","[1,1,1,0]",0,30,30,30,1,1,1,,,0,FALSE,,,,,,,,,,,,,,,,,,,,,,,,,,,,,,
,5efd440689469118b2540378,001,2022-04-28_18h03.19.398,classification_task,2021.2.3,Win32,60.35367252,5efd440689469118b2540378,626b377229c10585ec392f8a,626b38e0674052d874d36953,,,,,,,,,,,,,,,,,,,,,,,l,1,3.3606,"[""0.109"",""0.337"",""0.574"",""0.765""]","[1,0,1,1]",0,31,31,31,1,1,0,,,0,FALSE,,,,,,,,,,,,,,,,,,,,,,,,,,,,,,
,5efd440689469118b2540378,001,2022-04-28_18h03.19.398,classification_task,2021.2.3,Win32,60.35367252,5efd440689469118b2540378,626b377229c10585ec392f8a,626b38e0674052d874d36953,,,,,,,,,,,,,,,,,,,,,,,l,0,8.3156,"[""0.226"",""0.539"",""0.808"",""0.350""]","[1,1,1,0]",0,32,32,32,1,0,0,,,0,FALSE,,,,,,,,,,,,,,,,,,,,,,,,,,,,,,
,5efd440689469118b2540378,001,2022-04-28_18h03.19.398,classification_task,2021.2.3,Win32,60.35367252,5efd440689469118b2540378,626b377229c10585ec392f8a,626b38e0674052d874d36953,,,,,,,,,,,,,,,,,,,,,,,a,1,1.661,"[""0.226"",""0.438"",""0.808"",""0.972""]","[1,0,1,1]",0,33,33,33,1,0,0,,,0,FALSE,,,,,,,,,,,,,,,,,,,,,,,,,,,,,,
,5efd440689469118b2540378,001,2022-04-28_18h03.19.398,classification_task,2021.2.3,Win32,60.35367252,5efd440689469118b2540378,626b377229c10585ec392f8a,626b38e0674052d874d36953,,,,,,,,,,,,,,,,,,,,,,,a,0,3.1599,"[""0.109"",""0.156"",""0.574"",""0.341""]","[1,1,1,0]",0,34,34,34,1,1,0,,,0,FALSE,,,,,,,,,,,,,,,,,,,,,,,,,,,,,,
,5efd440689469118b2540378,001,2022-04-28_18h03.19.398,classification_task,2021.2.3,Win32,60.35367252,5efd440689469118b2540378,626b377229c10585ec392f8a,626b38e0674052d874d36953,,,,,,,,,,,,,,,,,,,,,,,l,0,1.7646,"[""0.661"",""0.539"",""0.808"",""0.972""]","[0,1,1,1]",0,35,35,35,1,0,0,,,0,FALSE,,,,,,,,,,,,,,,,,,,,,,,,,,,,,,
,5efd440689469118b2540378,001,2022-04-28_18h03.19.398,classification_task,2021.2.3,Win32,60.35367252,5efd440689469118b2540378,626b377229c10585ec392f8a,626b38e0674052d874d36953,,,,,,,,,,,,,,,,,,,,,,,l,1,1.2266,"[""0.109"",""0.671"",""0.574"",""0.765""]","[1,0,1,1]",0,36,36,36,1,1,0,,,0,FALSE,,,,,,,,,,,,,,,,,,,,,,,,,,,,,,
,5efd440689469118b2540378,001,2022-04-28_18h03.19.398,classification_task,2021.2.3,Win32,60.35367252,5efd440689469118b2540378,626b377229c10585ec392f8a,626b38e0674052d874d36953,,,,,,,,,,,,,,,,,,,,,,,a,1,1.2941,"[""0.303"",""0.678"",""0.871"",""0.931""]","[1,0,1,1]",0,37,37,37,1,0,1,,,0,FALSE,,,,,,,,,,,,,,,,,,,,,,,,,,,,,,
,5efd440689469118b2540378,001,2022-04-28_18h03.19.398,classification_task,2021.2.3,Win32,60.35367252,5efd440689469118b2540378,626b377229c10585ec392f8a,626b38e0674052d874d36953,,,,,,,,,,,,,,,,,,,,,,,l,1,1.6888,"[""0.109"",""0.156"",""0.678"",""0.765""]","[1,1,0,1]",0,38,38,38,1,1,0,,,0,FALSE,,,,,,,,,,,,,,,,,,,,,,,,,,,,,,
,5efd440689469118b2540378,001,2022-04-28_18h03.19.398,classification_task,2021.2.3,Win32,60.35367252,5efd440689469118b2540378,626b377229c10585ec392f8a,626b38e0674052d874d36953,,,,,,,,,,,,,,,,,,,,,,,l,1,1.0011,"[""0.344"",""0.156"",""0.574"",""0.765""]","[0,1,1,1]",0,39,39,39,1,1,0,,,0,FALSE,,,,,,,,,,,,,,,,,,,,,,,,,,,,,,
,5efd440689469118b2540378,001,2022-04-28_18h03.19.398,classification_task,2021.2.3,Win32,60.35367252,5efd440689469118b2540378,626b377229c10585ec392f8a,626b38e0674052d874d36953,,,,,,,,,,,,,,,,,,,,,,,a,0,0.8928,"[""0.043"",""0.400"",""0.619"",""0.671""]","[1,1,1,0]",0,40,40,40,1,1,1,,,0,FALSE,,,,,,,,,,,,,,,,,,,,,,,,,,,,,,
,5efd440689469118b2540378,001,2022-04-28_18h03.19.398,classification_task,2021.2.3,Win32,60.35367252,5efd440689469118b2540378,626b377229c10585ec392f8a,626b38e0674052d874d36953,,,,,,,,,,,,,,,,,,,,,,,a,1,0.8666,"[""0.303"",""0.473"",""0.871"",""0.656""]","[1,1,1,0]",0,41,41,41,1,0,1,,,0,FALSE,,,,,,,,,,,,,,,,,,,,,,,,,,,,,,
,5efd440689469118b2540378,001,2022-04-28_18h03.19.398,classification_task,2021.2.3,Win32,60.35367252,5efd440689469118b2540378,626b377229c10585ec392f8a,626b38e0674052d874d36953,,,,,,,,,,,,,,,,,,,,,,,l,0,2.2187,"[""0.303"",""0.473"",""0.656"",""0.931""]","[1,1,0,1]",0,42,42,42,1,0,1,,,0,FALSE,,,,,,,,,,,,,,,,,,,,,,,,,,,,,,
,5efd440689469118b2540378,001,2022-04-28_18h03.19.398,classification_task,2021.2.3,Win32,60.35367252,5efd440689469118b2540378,626b377229c10585ec392f8a,626b38e0674052d874d36953,,,,,,,,,,,,,,,,,,,,,,,l,0,1.6032,"[""0.226"",""0.539"",""0.266"",""0.972""]","[1,1,0,1]",0,43,43,43,1,0,0,,,0,FALSE,,,,,,,,,,,,,,,,,,,,,,,,,,,,,,
,5efd440689469118b2540378,001,2022-04-28_18h03.19.398,classification_task,2021.2.3,Win32,60.35367252,5efd440689469118b2540378,626b377229c10585ec392f8a,626b38e0674052d874d36953,,,,,,,,,,,,,,,,,,,,,,,l,1,2.1491,"[""0.043"",""0.438"",""0.619"",""0.721""]","[1,0,1,1]",0,44,44,44,1,1,1,,,0,FALSE,,,,,,,,,,,,,,,,,,,,,,,,,,,,,,
,5efd440689469118b2540378,001,2022-04-28_18h03.19.398,classification_task,2021.2.3,Win32,60.35367252,5efd440689469118b2540378,626b377229c10585ec392f8a,626b38e0674052d874d36953,,,,,,,,,,,,,,,,,,,,,,,l,1,1.897,"[""0.661"",""0.400"",""0.619"",""0.721""]","[0,1,1,1]",0,45,45,45,1,1,1,,,0,FALSE,,,,,,,,,,,,,,,,,,,,,,,,,,,,,,
,5efd440689469118b2540378,001,2022-04-28_18h03.19.398,classification_task,2021.2.3,Win32,60.35367252,5efd440689469118b2540378,626b377229c10585ec392f8a,626b38e0674052d874d36953,,,,,,,,,,,,,,,,,,,,,,,l,1,2.2827,"[""0.043"",""0.400"",""0.658"",""0.721""]","[1,1,0,1]",0,46,46,46,1,1,1,,,0,FALSE,,,,,,,,,,,,,,,,,,,,,,,,,,,,,,
,5efd440689469118b2540378,001,2022-04-28_18h03.19.398,classification_task,2021.2.3,Win32,60.35367252,5efd440689469118b2540378,626b377229c10585ec392f8a,626b38e0674052d874d36953,,,,,,,,,,,,,,,,,,,,,,,l,0,1.5914,"[""0.678"",""0.473"",""0.871"",""0.931""]","[0,1,1,1]",0,47,47,47,1,0,1,,,0,FALSE,,,,,,,,,,,,,,,,,,,,,,,,,,,,,,
,5efd440689469118b2540378,001,2022-04-28_18h03.19.398,classification_task,2021.2.3,Win32,60.35367252,5efd440689469118b2540378,626b377229c10585ec392f8a,626b38e0674052d874d36953,,,,,,,,,,,,,,,,,,,,,,,a,0,2.5919,"[""0.043"",""0.400"",""0.619"",""0.661""]","[1,1,1,0]",0,48,48,48,1,1,1,,,0,FALSE,,,,,,,,,,,,,,,,,,,,,,,,,,,,,,
,5efd440689469118b2540378,001,2022-04-28_18h03.19.398,classification_task,2021.2.3,Win32,60.35367252,5efd440689469118b2540378,626b377229c10585ec392f8a,626b38e0674052d874d36953,,,,,,,,,,,,,,,,,,,,,,,l,1,1.2146,"[""0.109"",""0.156"",""0.358"",""0.765""]","[1,1,0,1]",0,49,49,49,1,1,0,,,0,FALSE,,,,,,,,,,,,,,,,,,,,,,,,,,,,,,
,5efd440689469118b2540378,001,2022-04-28_18h03.19.398,classification_task,2021.2.3,Win32,60.35367252,5efd440689469118b2540378,626b377229c10585ec392f8a,626b38e0674052d874d36953,,,,,,,,,,,,,,,,,,,,,,,l,0,2.0866,"[""0.226"",""0.539"",""0.337"",""0.972""]","[1,1,0,1]",0,50,50,50,1,0,0,,,0,FALSE,,,,,,,,,,,,,,,,,,,,,,,,,,,,,,
,5efd440689469118b2540378,001,2022-04-28_18h03.19.398,classification_task,2021.2.3,Win32,60.35367252,5efd440689469118b2540378,626b377229c10585ec392f8a,626b38e0674052d874d36953,,,,,,,,,,,,,,,,,,,,,,,a,0,1.8117,"[""0.043"",""0.400"",""0.355"",""0.721""]","[1,1,0,1]",0,51,51,51,1,1,1,,,0,FALSE,,,,,,,,,,,,,,,,,,,,,,,,,,,,,,
,5efd440689469118b2540378,001,2022-04-28_18h03.19.398,classification_task,2021.2.3,Win32,60.35367252,5efd440689469118b2540378,626b377229c10585ec392f8a,626b38e0674052d874d36953,,,,,,,,,,,,,,,,,,,,,,,l,1,1.0272,"[""0.043"",""0.675"",""0.619"",""0.721""]","[1,0,1,1]",0,52,52,52,1,1,1,,,0,FALSE,,,,,,,,,,,,,,,,,,,,,,,,,,,,,,
,5efd440689469118b2540378,001,2022-04-28_18h03.19.398,classification_task,2021.2.3,Win32,60.35367252,5efd440689469118b2540378,626b377229c10585ec392f8a,626b38e0674052d874d36953,,,,,,,,,,,,,,,,,,,,,,,l,1,7.2187,"[""0.109"",""0.156"",""0.574"",""0.658""]","[1,1,1,0]",0,53,53,53,1,1,0,,,0,FALSE,,,,,,,,,,,,,,,,,,,,,,,,,,,,,,
,5efd440689469118b2540378,001,2022-04-28_18h03.19.398,classification_task,2021.2.3,Win32,60.35367252,5efd440689469118b2540378,626b377229c10585ec392f8a,626b38e0674052d874d36953,,,,,,,,,,,,,,,,,,,,,,,l,0,1.9359,"[""0.226"",""0.337"",""0.808"",""0.972""]","[1,0,1,1]",0,54,54,54,1,0,0,,,0,FALSE,,,,,,,,,,,,,,,,,,,,,,,,,,,,,,
,5efd440689469118b2540378,001,2022-04-28_18h03.19.398,classification_task,2021.2.3,Win32,60.35367252,5efd440689469118b2540378,626b377229c10585ec392f8a,626b38e0674052d874d36953,,,,,,,,,,,,,,,,,,,,,,,a,1,3.1935,"[""0.303"",""0.473"",""0.358"",""0.931""]","[1,1,0,1]",0,55,55,55,1,0,1,,,0,FALSE,,,,,,,,,,,,,,,,,,,,,,,,,,,,,,
,5efd440689469118b2540378,001,2022-04-28_18h03.19.398,classification_task,2021.2.3,Win32,60.35367252,5efd440689469118b2540378,626b377229c10585ec392f8a,626b38e0674052d874d36953,,,,,,,,,,,,,,,,,,,,,,,l,0,0.9668,"[""0.303"",""0.473"",""0.871"",""0.350""]","[1,1,1,0]",0,56,56,56,1,0,1,,,0,FALSE,,,,,,,,,,,,,,,,,,,,,,,,,,,,,,
,5efd440689469118b2540378,001,2022-04-28_18h03.19.398,classification_task,2021.2.3,Win32,60.35367252,5efd440689469118b2540378,626b377229c10585ec392f8a,626b38e0674052d874d36953,,,,,,,,,,,,,,,,,,,,,,,a,1,0.921,"[""0.303"",""0.266"",""0.871"",""0.931""]","[1,0,1,1]",0,57,57,57,1,0,1,,,0,FALSE,,,,,,,,,,,,,,,,,,,,,,,,,,,,,,
,5efd440689469118b2540378,001,2022-04-28_18h03.19.398,classification_task,2021.2.3,Win32,60.35367252,5efd440689469118b2540378,626b377229c10585ec392f8a,626b38e0674052d874d36953,,,,,,,,,,,,,,,,,,,,,,,a,0,0.7177,"[""0.350"",""0.400"",""0.619"",""0.721""]","[0,1,1,1]",0,58,58,58,1,1,1,,,0,FALSE,,,,,,,,,,,,,,,,,,,,,,,,,,,,,,
,5efd440689469118b2540378,001,2022-04-28_18h03.19.398,classification_task,2021.2.3,Win32,60.35367252,5efd440689469118b2540378,626b377229c10585ec392f8a,626b38e0674052d874d36953,,,,,,,,,,,,,,,,,,,,,,,l,0,0.7618,"[""0.226"",""0.539"",""0.808"",""0.675""]","[1,1,1,0]",0,59,59,59,1,0,0,,,0,FALSE,,,,,,,,,,,,,,,,,,,,,,,,,,,,,,
,5efd440689469118b2540378,001,2022-04-28_18h03.19.398,classification_task,2021.2.3,Win32,60.35367252,5efd440689469118b2540378,626b377229c10585ec392f8a,626b38e0674052d874d36953,,,,,,,,,,,,,,,,,,,,,,,l,1,1.5356,"[""0.109"",""0.341"",""0.574"",""0.765""]","[1,0,1,1]",0,60,60,60,1,1,0,,,0,FALSE,,,,,,,,,,,,,,,,,,,,,,,,,,,,,,
,5efd440689469118b2540378,001,2022-04-28_18h03.19.398,classification_task,2021.2.3,Win32,60.35367252,5efd440689469118b2540378,626b377229c10585ec392f8a,626b38e0674052d874d36953,,,,,,,,,,,,,,,,,,,,,,,l,1,1.2029,"[""0.337"",""0.156"",""0.574"",""0.765""]","[0,1,1,1]",0,61,61,61,1,1,0,,,0,FALSE,,,,,,,,,,,,,,,,,,,,,,,,,,,,,,
,5efd440689469118b2540378,001,2022-04-28_18h03.19.398,classification_task,2021.2.3,Win32,60.35367252,5efd440689469118b2540378,626b377229c10585ec392f8a,626b38e0674052d874d36953,,,,,,,,,,,,,,,,,,,,,,,l,0,1.1647,"[""0.343"",""0.473"",""0.871"",""0.931""]","[0,1,1,1]",0,62,62,62,1,0,1,,,0,FALSE,,,,,,,,,,,,,,,,,,,,,,,,,,,,,,
,5efd440689469118b2540378,001,2022-04-28_18h03.19.398,classification_task,2021.2.3,Win32,60.35367252,5efd440689469118b2540378,626b377229c10585ec392f8a,626b38e0674052d874d36953,,,,,,,,,,,,,,,,,,,,,,,l,0,0.726,"[""0.266"",""0.539"",""0.808"",""0.972""]","[0,1,1,1]",0,63,63,63,1,0,0,,,0,FALSE,,,,,,,,,,,,,,,,,,,,,,,,,,,,,,
,5efd440689469118b2540378,001,2022-04-28_18h03.19.398,classification_task,2021.2.3,Win32,60.35367252,5efd440689469118b2540378,626b377229c10585ec392f8a,626b38e0674052d874d36953,,,,,,,,,,,,,,,,,,,,,,,,,,,,,,,,,,,,,,,0, ,,0,2.760967813,426.3877,0,0,0,0,1,2,1,,,,,,,,,,,,,,,,,
,5efd440689469118b2540378,001,2022-04-28_18h03.19.398,classification_task,2021.2.3,Win32,60.35367252,5efd440689469118b2540378,626b377229c10585ec392f8a,626b38e0674052d874d36953,,,,,,,,,,,,,,,,,,,,,,,,,,,,,,,,,,,,,,,1,  ,,0,5.447806437,421.2269,0,0,0,0,1,2,1,,,,,,,,,,,,,,,,,
,5efd440689469118b2540378,001,2022-04-28_18h03.19.398,classification_task,2021.2.3,Win32,60.35367252,5efd440689469118b2540378,626b377229c10585ec392f8a,626b38e0674052d874d36953,,,,,,,,,,,,,,,,,,,,,,,,,,,,,,,,,,,,,,,2,  ,,0,0.969742063,430.0517,0,0,0,0,1,2,1,,,,,,,,,,,,,,,,,
,5efd440689469118b2540378,001,2022-04-28_18h03.19.398,classification_task,2021.2.3,Win32,60.35367252,5efd440689469118b2540378,626b377229c10585ec392f8a,626b38e0674052d874d36953,,,,,,,,,,,,,,,,,,,,,,,,,,,,,,,,,,,,,,,,,,,,,0,0,0,0,1,,1,,,,,,,,,,,,,,,,,
,5efd440689469118b2540378,001,2022-04-28_18h03.19.398,classification_task,2021.2.3,Win32,60.35367252,5efd440689469118b2540378,626b377229c10585ec392f8a,626b38e0674052d874d36953,,,,,,,,,,,,,,,,,,,,,space,15.227,a,1,3.5331,"[""0.303"",""0.473"",""0.871"",""0.266""]","[1,1,1,0]",0,0,0,0,1,0,1,,,0,FALSE,,,,,,,,,,,,,,,,,,,,,,,,,,,,,,
,5efd440689469118b2540378,001,2022-04-28_18h03.19.398,classification_task,2021.2.3,Win32,60.35367252,5efd440689469118b2540378,626b377229c10585ec392f8a,626b38e0674052d874d36953,,,,,,,,,,,,,,,,,,,,,,,a,1,1.3946,"[""0.226"",""0.539"",""0.266"",""0.972""]","[1,1,0,1]",0,1,1,1,1,0,0,,,0,FALSE,,,,,,,,,,,,,,,,,,,,,,,,,,,,,,
,5efd440689469118b2540378,001,2022-04-28_18h03.19.398,classification_task,2021.2.3,Win32,60.35367252,5efd440689469118b2540378,626b377229c10585ec392f8a,626b38e0674052d874d36953,,,,,,,,,,,,,,,,,,,,,,,l,0,1.4107,"[""0.303"",""0.473"",""0.671"",""0.931""]","[1,1,0,1]",0,2,2,2,1,0,1,,,0,FALSE,,,,,,,,,,,,,,,,,,,,,,,,,,,,,,
,5efd440689469118b2540378,001,2022-04-28_18h03.19.398,classification_task,2021.2.3,Win32,60.35367252,5efd440689469118b2540378,626b377229c10585ec392f8a,626b38e0674052d874d36953,,,,,,,,,,,,,,,,,,,,,,,a,0,0.9325,"[""0.109"",""0.156"",""0.337"",""0.765""]","[1,1,0,1]",0,3,3,3,1,1,0,,,0,FALSE,,,,,,,,,,,,,,,,,,,,,,,,,,,,,,
,5efd440689469118b2540378,001,2022-04-28_18h03.19.398,classification_task,2021.2.3,Win32,60.35367252,5efd440689469118b2540378,626b377229c10585ec392f8a,626b38e0674052d874d36953,,,,,,,,,,,,,,,,,,,,,,,a,0,1.3295,"[""0.266"",""0.400"",""0.619"",""0.721""]","[0,1,1,1]",0,4,4,4,1,1,1,,,0,FALSE,,,,,,,,,,,,,,,,,,,,,,,,,,,,,,
,5efd440689469118b2540378,001,2022-04-28_18h03.19.398,classification_task,2021.2.3,Win32,60.35367252,5efd440689469118b2540378,626b377229c10585ec392f8a,626b38e0674052d874d36953,,,,,,,,,,,,,,,,,,,,,,,l,0,0.6452,"[""0.226"",""0.539"",""0.808"",""0.350""]","[1,1,1,0]",0,5,5,5,1,0,0,,,0,FALSE,,,,,,,,,,,,,,,,,,,,,,,,,,,,,,
,5efd440689469118b2540378,001,2022-04-28_18h03.19.398,classification_task,2021.2.3,Win32,60.35367252,5efd440689469118b2540378,626b377229c10585ec392f8a,626b38e0674052d874d36953,,,,,,,,,,,,,,,,,,,,,,,l,1,0.5944,"[""0.043"",""0.400"",""0.343"",""0.721""]","[1,1,0,1]",0,6,6,6,1,1,1,,,0,FALSE,,,,,,,,,,,,,,,,,,,,,,,,,,,,,,
,5efd440689469118b2540378,001,2022-04-28_18h03.19.398,classification_task,2021.2.3,Win32,60.35367252,5efd440689469118b2540378,626b377229c10585ec392f8a,626b38e0674052d874d36953,,,,,,,,,,,,,,,,,,,,,,,l,1,1.7031,"[""0.043"",""0.343"",""0.619"",""0.721""]","[1,0,1,1]",0,7,7,7,1,1,1,,,0,FALSE,,,,,,,,,,,,,,,,,,,,,,,,,,,,,,
,5efd440689469118b2540378,001,2022-04-28_18h03.19.398,classification_task,2021.2.3,Win32,60.35367252,5efd440689469118b2540378,626b377229c10585ec392f8a,626b38e0674052d874d36953,,,,,,,,,,,,,,,,,,,,,,,l,0,1.2884,"[""0.226"",""0.675"",""0.808"",""0.972""]","[1,0,1,1]",0,8,8,8,1,0,0,,,0,FALSE,,,,,,,,,,,,,,,,,,,,,,,,,,,,,,
,5efd440689469118b2540378,001,2022-04-28_18h03.19.398,classification_task,2021.2.3,Win32,60.35367252,5efd440689469118b2540378,626b377229c10585ec392f8a,626b38e0674052d874d36953,,,,,,,,,,,,,,,,,,,,,,,a,0,0.8258,"[""0.358"",""0.156"",""0.574"",""0.765""]","[0,1,1,1]",0,9,9,9,1,1,0,,,0,FALSE,,,,,,,,,,,,,,,,,,,,,,,,,,,,,,
,5efd440689469118b2540378,001,2022-04-28_18h03.19.398,classification_task,2021.2.3,Win32,60.35367252,5efd440689469118b2540378,626b377229c10585ec392f8a,626b38e0674052d874d36953,,,,,,,,,,,,,,,,,,,,,,,a,0,0.7917,"[""0.109"",""0.675"",""0.574"",""0.765""]","[1,0,1,1]",0,10,10,10,1,1,0,,,0,FALSE,,,,,,,,,,,,,,,,,,,,,,,,,,,,,,
,5efd440689469118b2540378,001,2022-04-28_18h03.19.398,classification_task,2021.2.3,Win32,60.35367252,5efd440689469118b2540378,626b377229c10585ec392f8a,626b38e0674052d874d36953,,,,,,,,,,,,,,,,,,,,,,,a,1,1.1657,"[""0.303"",""0.675"",""0.871"",""0.931""]","[1,0,1,1]",0,11,11,11,1,0,1,,,0,FALSE,,,,,,,,,,,,,,,,,,,,,,,,,,,,,,
,5efd440689469118b2540378,001,2022-04-28_18h03.19.398,classification_task,2021.2.3,Win32,60.35367252,5efd440689469118b2540378,626b377229c10585ec392f8a,626b38e0674052d874d36953,,,,,,,,,,,,,,,,,,,,,,,l,1,2.1505,"[""0.109"",""0.156"",""0.574"",""0.355""]","[1,1,1,0]",0,12,12,12,1,1,0,,,0,FALSE,,,,,,,,,,,,,,,,,,,,,,,,,,,,,,
,5efd440689469118b2540378,001,2022-04-28_18h03.19.398,classification_task,2021.2.3,Win32,60.35367252,5efd440689469118b2540378,626b377229c10585ec392f8a,626b38e0674052d874d36953,,,,,,,,,,,,,,,,,,,,,,,l,0,1.6577,"[""0.661"",""0.473"",""0.871"",""0.931""]","[0,1,1,1]",0,13,13,13,1,0,1,,,0,FALSE,,,,,,,,,,,,,,,,,,,,,,,,,,,,,,
,5efd440689469118b2540378,001,2022-04-28_18h03.19.398,classification_task,2021.2.3,Win32,60.35367252,5efd440689469118b2540378,626b377229c10585ec392f8a,626b38e0674052d874d36953,,,,,,,,,,,,,,,,,,,,,,,l,1,1.1377,"[""0.043"",""0.400"",""0.619"",""0.358""]","[1,1,1,0]",0,14,14,14,1,1,1,,,0,FALSE,,,,,,,,,,,,,,,,,,,,,,,,,,,,,,
,5efd440689469118b2540378,001,2022-04-28_18h03.19.398,classification_task,2021.2.3,Win32,60.35367252,5efd440689469118b2540378,626b377229c10585ec392f8a,626b38e0674052d874d36953,,,,,,,,,,,,,,,,,,,,,,,l,0,1.0881,"[""0.358"",""0.539"",""0.808"",""0.972""]","[0,1,1,1]",0,15,15,15,1,0,0,,,0,FALSE,,,,,,,,,,,,,,,,,,,,,,,,,,,,,,
,5efd440689469118b2540378,001,2022-04-28_18h03.19.398,classification_task,2021.2.3,Win32,60.35367252,5efd440689469118b2540378,626b377229c10585ec392f8a,626b38e0674052d874d36953,,,,,,,,,,,,,,,,,,,,,,,l,0,0.898,"[""0.303"",""0.678"",""0.871"",""0.931""]","[1,0,1,1]",0,16,16,16,1,0,1,,,0,FALSE,,,,,,,,,,,,,,,,,,,,,,,,,,,,,,
,5efd440689469118b2540378,001,2022-04-28_18h03.19.398,classification_task,2021.2.3,Win32,60.35367252,5efd440689469118b2540378,626b377229c10585ec392f8a,626b38e0674052d874d36953,,,,,,,,,,,,,,,,,,,,,,,l,1,1.0232,"[""0.656"",""0.156"",""0.574"",""0.765""]","[0,1,1,1]",0,17,17,17,1,1,0,,,0,FALSE,,,,,,,,,,,,,,,,,,,,,,,,,,,,,,
,5efd440689469118b2540378,001,2022-04-28_18h03.19.398,classification_task,2021.2.3,Win32,60.35367252,5efd440689469118b2540378,626b377229c10585ec392f8a,626b38e0674052d874d36953,,,,,,,,,,,,,,,,,,,,,,,l,0,1.3653,"[""0.350"",""0.539"",""0.808"",""0.972""]","[0,1,1,1]",0,18,18,18,1,0,0,,,0,FALSE,,,,,,,,,,,,,,,,,,,,,,,,,,,,,,
,5efd440689469118b2540378,001,2022-04-28_18h03.19.398,classification_task,2021.2.3,Win32,60.35367252,5efd440689469118b2540378,626b377229c10585ec392f8a,626b38e0674052d874d36953,,,,,,,,,,,,,,,,,,,,,,,a,1,0.8652,"[""0.226"",""0.355"",""0.808"",""0.972""]","[1,0,1,1]",0,19,19,19,1,0,0,,,0,FALSE,,,,,,,,,,,,,,,,,,,,,,,,,,,,,,
,5efd440689469118b2540378,001,2022-04-28_18h03.19.398,classification_task,2021.2.3,Win32,60.35367252,5efd440689469118b2540378,626b377229c10585ec392f8a,626b38e0674052d874d36953,,,,,,,,,,,,,,,,,,,,,,,a,0,1.066,"[""0.109"",""0.438"",""0.574"",""0.765""]","[1,0,1,1]",0,20,20,20,1,1,0,,,0,FALSE,,,,,,,,,,,,,,,,,,,,,,,,,,,,,,
,5efd440689469118b2540378,001,2022-04-28_18h03.19.398,classification_task,2021.2.3,Win32,60.35367252,5efd440689469118b2540378,626b377229c10585ec392f8a,626b38e0674052d874d36953,,,,,,,,,,,,,,,,,,,,,,,a,1,0.5949,"[""0.658"",""0.473"",""0.871"",""0.931""]","[0,1,1,1]",0,21,21,21,1,0,1,,,0,FALSE,,,,,,,,,,,,,,,,,,,,,,,,,,,,,,
,5efd440689469118b2540378,001,2022-04-28_18h03.19.398,classification_task,2021.2.3,Win32,60.35367252,5efd440689469118b2540378,626b377229c10585ec392f8a,626b38e0674052d874d36953,,,,,,,,,,,,,,,,,,,,,,,l,0,1.5127,"[""0.303"",""0.473"",""0.871"",""0.343""]","[1,1,1,0]",0,22,22,22,1,0,1,,,0,FALSE,,,,,,,,,,,,,,,,,,,,,,,,,,,,,,
,5efd440689469118b2540378,001,2022-04-28_18h03.19.398,classification_task,2021.2.3,Win32,60.35367252,5efd440689469118b2540378,626b377229c10585ec392f8a,626b38e0674052d874d36953,,,,,,,,,,,,,,,,,,,,,,,l,1,0.5366,"[""0.043"",""0.341"",""0.619"",""0.721""]","[1,0,1,1]",0,23,23,23,1,1,1,,,0,FALSE,,,,,,,,,,,,,,,,,,,,,,,,,,,,,,
,5efd440689469118b2540378,001,2022-04-28_18h03.19.398,classification_task,2021.2.3,Win32,60.35367252,5efd440689469118b2540378,626b377229c10585ec392f8a,626b38e0674052d874d36953,,,,,,,,,,,,,,,,,,,,,,,a,0,0.8943,"[""0.109"",""0.156"",""0.350"",""0.765""]","[1,1,0,1]",0,24,24,24,1,1,0,,,0,FALSE,,,,,,,,,,,,,,,,,,,,,,,,,,,,,,
,5efd440689469118b2540378,001,2022-04-28_18h03.19.398,classification_task,2021.2.3,Win32,60.35367252,5efd440689469118b2540378,626b377229c10585ec392f8a,626b38e0674052d874d36953,,,,,,,,,,,,,,,,,,,,,,,l,0,0.6243,"[""0.303"",""0.473"",""0.355"",""0.931""]","[1,1,0,1]",0,25,25,25,1,0,1,,,0,FALSE,,,,,,,,,,,,,,,,,,,,,,,,,,,,,,
,5efd440689469118b2540378,001,2022-04-28_18h03.19.398,classification_task,2021.2.3,Win32,60.35367252,5efd440689469118b2540378,626b377229c10585ec392f8a,626b38e0674052d874d36953,,,,,,,,,,,,,,,,,,,,,,,a,0,1.2904,"[""0.678"",""0.400"",""0.619"",""0.721""]","[0,1,1,1]",0,26,26,26,1,1,1,,,0,FALSE,,,,,,,,,,,,,,,,,,,,,,,,,,,,,,
,5efd440689469118b2540378,001,2022-04-28_18h03.19.398,classification_task,2021.2.3,Win32,60.35367252,5efd440689469118b2540378,626b377229c10585ec392f8a,626b38e0674052d874d36953,,,,,,,,,,,,,,,,,,,,,,,l,1,1.1658,"[""0.109"",""0.156"",""0.574"",""0.678""]","[1,1,1,0]",0,27,27,27,1,1,0,,,0,FALSE,,,,,,,,,,,,,,,,,,,,,,,,,,,,,,
,5efd440689469118b2540378,001,2022-04-28_18h03.19.398,classification_task,2021.2.3,Win32,60.35367252,5efd440689469118b2540378,626b377229c10585ec392f8a,626b38e0674052d874d36953,,,,,,,,,,,,,,,,,,,,,,,l,0,0.9442,"[""0.226"",""0.539"",""0.808"",""0.661""]","[1,1,1,0]",0,28,28,28,1,0,0,,,0,FALSE,,,,,,,,,,,,,,,,,,,,,,,,,,,,,,
,5efd440689469118b2540378,001,2022-04-28_18h03.19.398,classification_task,2021.2.3,Win32,60.35367252,5efd440689469118b2540378,626b377229c10585ec392f8a,626b38e0674052d874d36953,,,,,,,,,,,,,,,,,,,,,,,a,0,0.98,"[""0.043"",""0.400"",""0.341"",""0.721""]","[1,1,0,1]",0,29,29,29,1,1,1,,,0,FALSE,,,,,,,,,,,,,,,,,,,,,,,,,,,,,,
,5efd440689469118b2540378,001,2022-04-28_18h03.19.398,classification_task,2021.2.3,Win32,60.35367252,5efd440689469118b2540378,626b377229c10585ec392f8a,626b38e0674052d874d36953,,,,,,,,,,,,,,,,,,,,,,,a,0,0.909,"[""0.043"",""0.400"",""0.619"",""0.350""]","[1,1,1,0]",0,30,30,30,1,1,1,,,0,FALSE,,,,,,,,,,,,,,,,,,,,,,,,,,,,,,
,5efd440689469118b2540378,001,2022-04-28_18h03.19.398,classification_task,2021.2.3,Win32,60.35367252,5efd440689469118b2540378,626b377229c10585ec392f8a,626b38e0674052d874d36953,,,,,,,,,,,,,,,,,,,,,,,a,1,1.0405,"[""0.226"",""0.539"",""0.350"",""0.972""]","[1,1,0,1]",0,31,31,31,1,0,0,,,0,FALSE,,,,,,,,,,,,,,,,,,,,,,,,,,,,,,
,5efd440689469118b2540378,001,2022-04-28_18h03.19.398,classification_task,2021.2.3,Win32,60.35367252,5efd440689469118b2540378,626b377229c10585ec392f8a,626b38e0674052d874d36953,,,,,,,,,,,,,,,,,,,,,,,l,0,1.418,"[""0.226"",""0.539"",""0.341"",""0.972""]","[1,1,0,1]",0,32,32,32,1,0,0,,,0,FALSE,,,,,,,,,,,,,,,,,,,,,,,,,,,,,,
,5efd440689469118b2540378,001,2022-04-28_18h03.19.398,classification_task,2021.2.3,Win32,60.35367252,5efd440689469118b2540378,626b377229c10585ec392f8a,626b38e0674052d874d36953,,,,,,,,,,,,,,,,,,,,,,,a,1,0.9721,"[""0.303"",""0.473"",""0.344"",""0.931""]","[1,1,0,1]",0,33,33,33,1,0,1,,,0,FALSE,,,,,,,,,,,,,,,,,,,,,,,,,,,,,,
,5efd440689469118b2540378,001,2022-04-28_18h03.19.398,classification_task,2021.2.3,Win32,60.35367252,5efd440689469118b2540378,626b377229c10585ec392f8a,626b38e0674052d874d36953,,,,,,,,,,,,,,,,,,,,,,,a,1,1.2264,"[""0.303"",""0.658"",""0.871"",""0.931""]","[1,0,1,1]",0,34,34,34,1,0,1,,,0,FALSE,,,,,,,,,,,,,,,,,,,,,,,,,,,,,,
,5efd440689469118b2540378,001,2022-04-28_18h03.19.398,classification_task,2021.2.3,Win32,60.35367252,5efd440689469118b2540378,626b377229c10585ec392f8a,626b38e0674052d874d36953,,,,,,,,,,,,,,,,,,,,,,,a,1,1.5205,"[""0.303"",""0.473"",""0.871"",""0.656""]","[1,1,1,0]",0,35,35,35,1,0,1,,,0,FALSE,,,,,,,,,,,,,,,,,,,,,,,,,,,,,,
,5efd440689469118b2540378,001,2022-04-28_18h03.19.398,classification_task,2021.2.3,Win32,60.35367252,5efd440689469118b2540378,626b377229c10585ec392f8a,626b38e0674052d874d36953,,,,,,,,,,,,,,,,,,,,,,,a,1,0.868,"[""0.348"",""0.473"",""0.871"",""0.931""]","[0,1,1,1]",0,36,36,36,1,0,1,,,0,FALSE,,,,,,,,,,,,,,,,,,,,,,,,,,,,,,
,5efd440689469118b2540378,001,2022-04-28_18h03.19.398,classification_task,2021.2.3,Win32,60.35367252,5efd440689469118b2540378,626b377229c10585ec392f8a,626b38e0674052d874d36953,,,,,,,,,,,,,,,,,,,,,,,a,0,0.931,"[""0.043"",""0.400"",""0.661"",""0.721""]","[1,1,0,1]",0,37,37,37,1,1,1,,,0,FALSE,,,,,,,,,,,,,,,,,,,,,,,,,,,,,,
,5efd440689469118b2540378,001,2022-04-28_18h03.19.398,classification_task,2021.2.3,Win32,60.35367252,5efd440689469118b2540378,626b377229c10585ec392f8a,626b38e0674052d874d36953,,,,,,,,,,,,,,,,,,,,,,,l,1,0.6052,"[""0.678"",""0.156"",""0.574"",""0.765""]","[0,1,1,1]",0,38,38,38,1,1,0,,,0,FALSE,,,,,,,,,,,,,,,,,,,,,,,,,,,,,,
,5efd440689469118b2540378,001,2022-04-28_18h03.19.398,classification_task,2021.2.3,Win32,60.35367252,5efd440689469118b2540378,626b377229c10585ec392f8a,626b38e0674052d874d36953,,,,,,,,,,,,,,,,,,,,,,,l,1,0.7835,"[""0.109"",""0.156"",""0.574"",""0.678""]","[1,1,1,0]",0,39,39,39,1,1,0,,,0,FALSE,,,,,,,,,,,,,,,,,,,,,,,,,,,,,,
,5efd440689469118b2540378,001,2022-04-28_18h03.19.398,classification_task,2021.2.3,Win32,60.35367252,5efd440689469118b2540378,626b377229c10585ec392f8a,626b38e0674052d874d36953,,,,,,,,,,,,,,,,,,,,,,,l,0,0.9243,"[""0.350"",""0.539"",""0.808"",""0.972""]","[0,1,1,1]",0,40,40,40,1,0,0,,,0,FALSE,,,,,,,,,,,,,,,,,,,,,,,,,,,,,,
,5efd440689469118b2540378,001,2022-04-28_18h03.19.398,classification_task,2021.2.3,Win32,60.35367252,5efd440689469118b2540378,626b377229c10585ec392f8a,626b38e0674052d874d36953,,,,,,,,,,,,,,,,,,,,,,,l,1,1.2158,"[""0.337"",""0.400"",""0.619"",""0.721""]","[0,1,1,1]",0,41,41,41,1,1,1,,,0,FALSE,,,,,,,,,,,,,,,,,,,,,,,,,,,,,,
,5efd440689469118b2540378,001,2022-04-28_18h03.19.398,classification_task,2021.2.3,Win32,60.35367252,5efd440689469118b2540378,626b377229c10585ec392f8a,626b38e0674052d874d36953,,,,,,,,,,,,,,,,,,,,,,,l,1,1.4277,"[""0.109"",""0.678"",""0.574"",""0.765""]","[1,0,1,1]",0,42,42,42,1,1,0,,,0,FALSE,,,,,,,,,,,,,,,,,,,,,,,,,,,,,,
,5efd440689469118b2540378,001,2022-04-28_18h03.19.398,classification_task,2021.2.3,Win32,60.35367252,5efd440689469118b2540378,626b377229c10585ec392f8a,626b38e0674052d874d36953,,,,,,,,,,,,,,,,,,,,,,,l,0,0.8998,"[""0.226"",""0.661"",""0.808"",""0.972""]","[1,0,1,1]",0,43,43,43,1,0,0,,,0,FALSE,,,,,,,,,,,,,,,,,,,,,,,,,,,,,,
,5efd440689469118b2540378,001,2022-04-28_18h03.19.398,classification_task,2021.2.3,Win32,60.35367252,5efd440689469118b2540378,626b377229c10585ec392f8a,626b38e0674052d874d36953,,,,,,,,,,,,,,,,,,,,,,,l,1,0.7965,"[""0.043"",""0.658"",""0.619"",""0.721""]","[1,0,1,1]",0,44,44,44,1,1,1,,,0,FALSE,,,,,,,,,,,,,,,,,,,,,,,,,,,,,,
,5efd440689469118b2540378,001,2022-04-28_18h03.19.398,classification_task,2021.2.3,Win32,60.35367252,5efd440689469118b2540378,626b377229c10585ec392f8a,626b38e0674052d874d36953,,,,,,,,,,,,,,,,,,,,,,,l,0,0.9486,"[""0.226"",""0.539"",""0.808"",""0.350""]","[1,1,1,0]",0,45,45,45,1,0,0,,,0,FALSE,,,,,,,,,,,,,,,,,,,,,,,,,,,,,,
,5efd440689469118b2540378,001,2022-04-28_18h03.19.398,classification_task,2021.2.3,Win32,60.35367252,5efd440689469118b2540378,626b377229c10585ec392f8a,626b38e0674052d874d36953,,,,,,,,,,,,,,,,,,,,,,,l,1,0.7796,"[""0.109"",""0.156"",""0.337"",""0.765""]","[1,1,0,1]",0,46,46,46,1,1,0,,,0,FALSE,,,,,,,,,,,,,,,,,,,,,,,,,,,,,,
,5efd440689469118b2540378,001,2022-04-28_18h03.19.398,classification_task,2021.2.3,Win32,60.35367252,5efd440689469118b2540378,626b377229c10585ec392f8a,626b38e0674052d874d36953,,,,,,,,,,,,,,,,,,,,,,,l,1,0.8609,"[""0.043"",""0.400"",""0.619"",""0.358""]","[1,1,1,0]",0,47,47,47,1,1,1,,,0,FALSE,,,,,,,,,,,,,,,,,,,,,,,,,,,,,,
,5efd440689469118b2540378,001,2022-04-28_18h03.19.398,classification_task,2021.2.3,Win32,60.35367252,5efd440689469118b2540378,626b377229c10585ec392f8a,626b38e0674052d874d36953,,,,,,,,,,,,,,,,,,,,,,,l,0,0.4617,"[""0.226"",""0.539"",""0.350"",""0.972""]","[1,1,0,1]",0,48,48,48,1,0,0,,,0,FALSE,,,,,,,,,,,,,,,,,,,,,,,,,,,,,,
,5efd440689469118b2540378,001,2022-04-28_18h03.19.398,classification_task,2021.2.3,Win32,60.35367252,5efd440689469118b2540378,626b377229c10585ec392f8a,626b38e0674052d874d36953,,,,,,,,,,,,,,,,,,,,,,,l,0,0.6558,"[""0.303"",""0.343"",""0.871"",""0.931""]","[1,0,1,1]",0,49,49,49,1,0,1,,,0,FALSE,,,,,,,,,,,,,,,,,,,,,,,,,,,,,,
,5efd440689469118b2540378,001,2022-04-28_18h03.19.398,classification_task,2021.2.3,Win32,60.35367252,5efd440689469118b2540378,626b377229c10585ec392f8a,626b38e0674052d874d36953,,,,,,,,,,,,,,,,,,,,,,,l,1,1.1636,"[""0.109"",""0.341"",""0.574"",""0.765""]","[1,0,1,1]",0,50,50,50,1,1,0,,,0,FALSE,,,,,,,,,,,,,,,,,,,,,,,,,,,,,,
,5efd440689469118b2540378,001,2022-04-28_18h03.19.398,classification_task,2021.2.3,Win32,60.35367252,5efd440689469118b2540378,626b377229c10585ec392f8a,626b38e0674052d874d36953,,,,,,,,,,,,,,,,,,,,,,,l,0,1.115,"[""0.226"",""0.266"",""0.808"",""0.972""]","[1,0,1,1]",0,51,51,51,1,0,0,,,0,FALSE,,,,,,,,,,,,,,,,,,,,,,,,,,,,,,
,5efd440689469118b2540378,001,2022-04-28_18h03.19.398,classification_task,2021.2.3,Win32,60.35367252,5efd440689469118b2540378,626b377229c10585ec392f8a,626b38e0674052d874d36953,,,,,,,,,,,,,,,,,,,,,,,l,0,0.7537,"[""0.343"",""0.539"",""0.808"",""0.972""]","[0,1,1,1]",0,52,52,52,1,0,0,,,0,FALSE,,,,,,,,,,,,,,,,,,,,,,,,,,,,,,
,5efd440689469118b2540378,001,2022-04-28_18h03.19.398,classification_task,2021.2.3,Win32,60.35367252,5efd440689469118b2540378,626b377229c10585ec392f8a,626b38e0674052d874d36953,,,,,,,,,,,,,,,,,,,,,,,l,0,0.6693,"[""0.226"",""0.539"",""0.808"",""0.344""]","[1,1,1,0]",0,53,53,53,1,0,0,,,0,FALSE,,,,,,,,,,,,,,,,,,,,,,,,,,,,,,
,5efd440689469118b2540378,001,2022-04-28_18h03.19.398,classification_task,2021.2.3,Win32,60.35367252,5efd440689469118b2540378,626b377229c10585ec392f8a,626b38e0674052d874d36953,,,,,,,,,,,,,,,,,,,,,,,a,1,0.8143,"[""0.348"",""0.473"",""0.871"",""0.931""]","[0,1,1,1]",0,54,54,54,1,0,1,,,0,FALSE,,,,,,,,,,,,,,,,,,,,,,,,,,,,,,
,5efd440689469118b2540378,001,2022-04-28_18h03.19.398,classification_task,2021.2.3,Win32,60.35367252,5efd440689469118b2540378,626b377229c10585ec392f8a,626b38e0674052d874d36953,,,,,,,,,,,,,,,,,,,,,,,a,1,0.5142,"[""0.303"",""0.473"",""0.355"",""0.931""]","[1,1,0,1]",0,55,55,55,1,0,1,,,0,FALSE,,,,,,,,,,,,,,,,,,,,,,,,,,,,,,
,5efd440689469118b2540378,001,2022-04-28_18h03.19.398,classification_task,2021.2.3,Win32,60.35367252,5efd440689469118b2540378,626b377229c10585ec392f8a,626b38e0674052d874d36953,,,,,,,,,,,,,,,,,,,,,,,a,0,0.7042,"[""0.043"",""0.355"",""0.619"",""0.721""]","[1,0,1,1]",0,56,56,56,1,1,1,,,0,FALSE,,,,,,,,,,,,,,,,,,,,,,,,,,,,,,
,5efd440689469118b2540378,001,2022-04-28_18h03.19.398,classification_task,2021.2.3,Win32,60.35367252,5efd440689469118b2540378,626b377229c10585ec392f8a,626b38e0674052d874d36953,,,,,,,,,,,,,,,,,,,,,,,l,1,0.8164,"[""0.266"",""0.400"",""0.619"",""0.721""]","[0,1,1,1]",0,57,57,57,1,1,1,,,0,FALSE,,,,,,,,,,,,,,,,,,,,,,,,,,,,,,
,5efd440689469118b2540378,001,2022-04-28_18h03.19.398,classification_task,2021.2.3,Win32,60.35367252,5efd440689469118b2540378,626b377229c10585ec392f8a,626b38e0674052d874d36953,,,,,,,,,,,,,,,,,,,,,,,l,0,0.6638,"[""0.303"",""0.473"",""0.871"",""0.358""]","[1,1,1,0]",0,58,58,58,1,0,1,,,0,FALSE,,,,,,,,,,,,,,,,,,,,,,,,,,,,,,
,5efd440689469118b2540378,001,2022-04-28_18h03.19.398,classification_task,2021.2.3,Win32,60.35367252,5efd440689469118b2540378,626b377229c10585ec392f8a,626b38e0674052d874d36953,,,,,,,,,,,,,,,,,,,,,,,a,0,0.4891,"[""0.043"",""0.400"",""0.266"",""0.721""]","[1,1,0,1]",0,59,59,59,1,1,1,,,0,FALSE,,,,,,,,,,,,,,,,,,,,,,,,,,,,,,
,5efd440689469118b2540378,001,2022-04-28_18h03.19.398,classification_task,2021.2.3,Win32,60.35367252,5efd440689469118b2540378,626b377229c10585ec392f8a,626b38e0674052d874d36953,,,,,,,,,,,,,,,,,,,,,,,a,0,0.9216,"[""0.656"",""0.156"",""0.574"",""0.765""]","[0,1,1,1]",0,60,60,60,1,1,0,,,0,FALSE,,,,,,,,,,,,,,,,,,,,,,,,,,,,,,
,5efd440689469118b2540378,001,2022-04-28_18h03.19.398,classification_task,2021.2.3,Win32,60.35367252,5efd440689469118b2540378,626b377229c10585ec392f8a,626b38e0674052d874d36953,,,,,,,,,,,,,,,,,,,,,,,l,1,0.5409,"[""0.109"",""0.156"",""0.661"",""0.765""]","[1,1,0,1]",0,61,61,61,1,1,0,,,0,FALSE,,,,,,,,,,,,,,,,,,,,,,,,,,,,,,
,5efd440689469118b2540378,001,2022-04-28_18h03.19.398,classification_task,2021.2.3,Win32,60.35367252,5efd440689469118b2540378,626b377229c10585ec392f8a,626b38e0674052d874d36953,,,,,,,,,,,,,,,,,,,,,,,l,1,0.9825,"[""0.109"",""0.156"",""0.574"",""0.678""]","[1,1,1,0]",0,62,62,62,1,1,0,,,0,FALSE,,,,,,,,,,,,,,,,,,,,,,,,,,,,,,
,5efd440689469118b2540378,001,2022-04-28_18h03.19.398,classification_task,2021.2.3,Win32,60.35367252,5efd440689469118b2540378,626b377229c10585ec392f8a,626b38e0674052d874d36953,,,,,,,,,,,,,,,,,,,,,,,l,1,0.6302,"[""0.043"",""0.400"",""0.619"",""0.438""]","[1,1,1,0]",0,63,63,63,1,1,1,,,0,FALSE,,,,,,,,,,,,,,,,,,,,,,,,,,,,,,
,5efd440689469118b2540378,001,2022-04-28_18h03.19.398,classification_task,2021.2.3,Win32,60.35367252,5efd440689469118b2540378,626b377229c10585ec392f8a,626b38e0674052d874d36953,,,,,,,,,,,,,,,,,,,,,,,,,,,,,,,,,,,,,,,0, ,,0,6.308972663,153.3015,0,1,1,1,1,2,2,,,,,,,,,,,,,,,,,
,5efd440689469118b2540378,001,2022-04-28_18h03.19.398,classification_task,2021.2.3,Win32,60.35367252,5efd440689469118b2540378,626b377229c10585ec392f8a,626b38e0674052d874d36953,,,,,,,,,,,,,,,,,,,,,,,,,,,,,,,,,,,,,,,1,  ,,0,3.070987654,157.4435,0,1,1,1,1,2,2,,,,,,,,,,,,,,,,,
,5efd440689469118b2540378,001,2022-04-28_18h03.19.398,classification_task,2021.2.3,Win32,60.35367252,5efd440689469118b2540378,626b377229c10585ec392f8a,626b38e0674052d874d36953,,,,,,,,,,,,,,,,,,,,,,,,,,,,,,,,,,,,,,,2,  ,,0,2.17537478,160.0317,0,1,1,1,1,2,2,,,,,,,,,,,,,,,,,
,5efd440689469118b2540378,001,2022-04-28_18h03.19.398,classification_task,2021.2.3,Win32,60.35367252,5efd440689469118b2540378,626b377229c10585ec392f8a,626b38e0674052d874d36953,,,,,,,,,,,,,,,,,,,,,,,,,,,,,,,,,,,,,,,,,,,,,0,1,1,1,1,,2,,,,,,,,,,,,,,,,,
,5efd440689469118b2540378,001,2022-04-28_18h03.19.398,classification_task,2021.2.3,Win32,60.35367252,5efd440689469118b2540378,626b377229c10585ec392f8a,626b38e0674052d874d36953,,,,,,,,,,,,,,,,,,,,,space,9.8411,l,0,1.7811,"[""0.226"",""0.539"",""0.661"",""0.972""]","[1,1,0,1]",0,0,0,0,1,0,0,,,0,FALSE,,,,,,,,,,,,,,,,,,,,,,,,,,,,,,
,5efd440689469118b2540378,001,2022-04-28_18h03.19.398,classification_task,2021.2.3,Win32,60.35367252,5efd440689469118b2540378,626b377229c10585ec392f8a,626b38e0674052d874d36953,,,,,,,,,,,,,,,,,,,,,,,l,0,1.1493,"[""0.350"",""0.539"",""0.808"",""0.972""]","[0,1,1,1]",0,1,1,1,1,0,0,,,0,FALSE,,,,,,,,,,,,,,,,,,,,,,,,,,,,,,
,5efd440689469118b2540378,001,2022-04-28_18h03.19.398,classification_task,2021.2.3,Win32,60.35367252,5efd440689469118b2540378,626b377229c10585ec392f8a,626b38e0674052d874d36953,,,,,,,,,,,,,,,,,,,,,,,a,1,0.5422,"[""0.226"",""0.539"",""0.808"",""0.678""]","[1,1,1,0]",0,2,2,2,1,0,0,,,0,FALSE,,,,,,,,,,,,,,,,,,,,,,,,,,,,,,
,5efd440689469118b2540378,001,2022-04-28_18h03.19.398,classification_task,2021.2.3,Win32,60.35367252,5efd440689469118b2540378,626b377229c10585ec392f8a,626b38e0674052d874d36953,,,,,,,,,,,,,,,,,,,,,,,a,0,0.8386,"[""0.109"",""0.156"",""0.343"",""0.765""]","[1,1,0,1]",0,3,3,3,1,1,0,,,0,FALSE,,,,,,,,,,,,,,,,,,,,,,,,,,,,,,
,5efd440689469118b2540378,001,2022-04-28_18h03.19.398,classification_task,2021.2.3,Win32,60.35367252,5efd440689469118b2540378,626b377229c10585ec392f8a,626b38e0674052d874d36953,,,,,,,,,,,,,,,,,,,,,,,l,0,0.7292,"[""0.671"",""0.473"",""0.871"",""0.931""]","[0,1,1,1]",0,4,4,4,1,0,1,,,0,FALSE,,,,,,,,,,,,,,,,,,,,,,,,,,,,,,
,5efd440689469118b2540378,001,2022-04-28_18h03.19.398,classification_task,2021.2.3,Win32,60.35367252,5efd440689469118b2540378,626b377229c10585ec392f8a,626b38e0674052d874d36953,,,,,,,,,,,,,,,,,,,,,,,l,1,0.8401,"[""0.348"",""0.400"",""0.619"",""0.721""]","[0,1,1,1]",0,5,5,5,1,1,1,,,0,FALSE,,,,,,,,,,,,,,,,,,,,,,,,,,,,,,
,5efd440689469118b2540378,001,2022-04-28_18h03.19.398,classification_task,2021.2.3,Win32,60.35367252,5efd440689469118b2540378,626b377229c10585ec392f8a,626b38e0674052d874d36953,,,,,,,,,,,,,,,,,,,,,,,a,0,1.1544,"[""0.043"",""0.400"",""0.671"",""0.721""]","[1,1,0,1]",0,6,6,6,1,1,1,,,0,FALSE,,,,,,,,,,,,,,,,,,,,,,,,,,,,,,
,5efd440689469118b2540378,001,2022-04-28_18h03.19.398,classification_task,2021.2.3,Win32,60.35367252,5efd440689469118b2540378,626b377229c10585ec392f8a,626b38e0674052d874d36953,,,,,,,,,,,,,,,,,,,,,,,a,0,0.8645,"[""0.109"",""0.156"",""0.574"",""0.358""]","[1,1,1,0]",0,7,7,7,1,1,0,,,0,FALSE,,,,,,,,,,,,,,,,,,,,,,,,,,,,,,
,5efd440689469118b2540378,001,2022-04-28_18h03.19.398,classification_task,2021.2.3,Win32,60.35367252,5efd440689469118b2540378,626b377229c10585ec392f8a,626b38e0674052d874d36953,,,,,,,,,,,,,,,,,,,,,,,l,1,1.0776,"[""0.043"",""0.266"",""0.619"",""0.721""]","[1,0,1,1]",0,8,8,8,1,1,1,,,0,FALSE,,,,,,,,,,,,,,,,,,,,,,,,,,,,,,
,5efd440689469118b2540378,001,2022-04-28_18h03.19.398,classification_task,2021.2.3,Win32,60.35367252,5efd440689469118b2540378,626b377229c10585ec392f8a,626b38e0674052d874d36953,,,,,,,,,,,,,,,,,,,,,,,l,0,0.8108,"[""0.303"",""0.344"",""0.871"",""0.931""]","[1,0,1,1]",0,9,9,9,1,0,1,,,0,FALSE,,,,,,,,,,,,,,,,,,,,,,,,,,,,,,
,5efd440689469118b2540378,001,2022-04-28_18h03.19.398,classification_task,2021.2.3,Win32,60.35367252,5efd440689469118b2540378,626b377229c10585ec392f8a,626b38e0674052d874d36953,,,,,,,,,,,,,,,,,,,,,,,l,1,1.0328,"[""0.343"",""0.156"",""0.574"",""0.765""]","[0,1,1,1]",0,10,10,10,1,1,0,,,0,FALSE,,,,,,,,,,,,,,,,,,,,,,,,,,,,,,
,5efd440689469118b2540378,001,2022-04-28_18h03.19.398,classification_task,2021.2.3,Win32,60.35367252,5efd440689469118b2540378,626b377229c10585ec392f8a,626b38e0674052d874d36953,,,,,,,,,,,,,,,,,,,,,,,a,0,1.174,"[""0.043"",""0.400"",""0.619"",""0.344""]","[1,1,1,0]",0,11,11,11,1,1,1,,,0,FALSE,,,,,,,,,,,,,,,,,,,,,,,,,,,,,,
,5efd440689469118b2540378,001,2022-04-28_18h03.19.398,classification_task,2021.2.3,Win32,60.35367252,5efd440689469118b2540378,626b377229c10585ec392f8a,626b38e0674052d874d36953,,,,,,,,,,,,,,,,,,,,,,,a,1,0.682,"[""0.226"",""0.658"",""0.808"",""0.972""]","[1,0,1,1]",0,12,12,12,1,0,0,,,0,FALSE,,,,,,,,,,,,,,,,,,,,,,,,,,,,,,
,5efd440689469118b2540378,001,2022-04-28_18h03.19.398,classification_task,2021.2.3,Win32,60.35367252,5efd440689469118b2540378,626b377229c10585ec392f8a,626b38e0674052d874d36953,,,,,,,,,,,,,,,,,,,,,,,l,0,0.8672,"[""0.303"",""0.473"",""0.871"",""0.348""]","[1,1,1,0]",0,13,13,13,1,0,1,,,0,FALSE,,,,,,,,,,,,,,,,,,,,,,,,,,,,,,
,5efd440689469118b2540378,001,2022-04-28_18h03.19.398,classification_task,2021.2.3,Win32,60.35367252,5efd440689469118b2540378,626b377229c10585ec392f8a,626b38e0674052d874d36953,,,,,,,,,,,,,,,,,,,,,,,l,0,0.5256,"[""0.303"",""0.473"",""0.344"",""0.931""]","[1,1,0,1]",0,14,14,14,1,0,1,,,0,FALSE,,,,,,,,,,,,,,,,,,,,,,,,,,,,,,
,5efd440689469118b2540378,001,2022-04-28_18h03.19.398,classification_task,2021.2.3,Win32,60.35367252,5efd440689469118b2540378,626b377229c10585ec392f8a,626b38e0674052d874d36953,,,,,,,,,,,,,,,,,,,,,,,a,0,0.982,"[""0.109"",""0.656"",""0.574"",""0.765""]","[1,0,1,1]",0,15,15,15,1,1,0,,,0,FALSE,,,,,,,,,,,,,,,,,,,,,,,,,,,,,,
,5efd440689469118b2540378,001,2022-04-28_18h03.19.398,classification_task,2021.2.3,Win32,60.35367252,5efd440689469118b2540378,626b377229c10585ec392f8a,626b38e0674052d874d36953,,,,,,,,,,,,,,,,,,,,,,,a,1,0.4668,"[""0.226"",""0.539"",""0.808"",""0.656""]","[1,1,1,0]",0,16,16,16,1,0,0,,,0,FALSE,,,,,,,,,,,,,,,,,,,,,,,,,,,,,,
,5efd440689469118b2540378,001,2022-04-28_18h03.19.398,classification_task,2021.2.3,Win32,60.35367252,5efd440689469118b2540378,626b377229c10585ec392f8a,626b38e0674052d874d36953,,,,,,,,,,,,,,,,,,,,,,,l,0,0.7376,"[""0.671"",""0.539"",""0.808"",""0.972""]","[0,1,1,1]",0,17,17,17,1,0,0,,,0,FALSE,,,,,,,,,,,,,,,,,,,,,,,,,,,,,,
,5efd440689469118b2540378,001,2022-04-28_18h03.19.398,classification_task,2021.2.3,Win32,60.35367252,5efd440689469118b2540378,626b377229c10585ec392f8a,626b38e0674052d874d36953,,,,,,,,,,,,,,,,,,,,,,,a,1,1.7824,"[""0.303"",""0.473"",""0.871"",""0.661""]","[1,1,1,0]",0,18,18,18,1,0,1,,,0,FALSE,,,,,,,,,,,,,,,,,,,,,,,,,,,,,,
,5efd440689469118b2540378,001,2022-04-28_18h03.19.398,classification_task,2021.2.3,Win32,60.35367252,5efd440689469118b2540378,626b377229c10585ec392f8a,626b38e0674052d874d36953,,,,,,,,,,,,,,,,,,,,,,,l,1,1.1644,"[""0.109"",""0.156"",""0.656"",""0.765""]","[1,1,0,1]",0,19,19,19,1,1,0,,,0,FALSE,,,,,,,,,,,,,,,,,,,,,,,,,,,,,,
,5efd440689469118b2540378,001,2022-04-28_18h03.19.398,classification_task,2021.2.3,Win32,60.35367252,5efd440689469118b2540378,626b377229c10585ec392f8a,626b38e0674052d874d36953,,,,,,,,,,,,,,,,,,,,,,,l,1,1.03,"[""0.043"",""0.400"",""0.358"",""0.721""]","[1,1,0,1]",0,20,20,20,1,1,1,,,0,FALSE,,,,,,,,,,,,,,,,,,,,,,,,,,,,,,
,5efd440689469118b2540378,001,2022-04-28_18h03.19.398,classification_task,2021.2.3,Win32,60.35367252,5efd440689469118b2540378,626b377229c10585ec392f8a,626b38e0674052d874d36953,,,,,,,,,,,,,,,,,,,,,,,l,0,1.3059,"[""0.303"",""0.266"",""0.871"",""0.931""]","[1,0,1,1]",0,21,21,21,1,0,1,,,0,FALSE,,,,,,,,,,,,,,,,,,,,,,,,,,,,,,
,5efd440689469118b2540378,001,2022-04-28_18h03.19.398,classification_task,2021.2.3,Win32,60.35367252,5efd440689469118b2540378,626b377229c10585ec392f8a,626b38e0674052d874d36953,,,,,,,,,,,,,,,,,,,,,,,a,0,1.0347,"[""0.343"",""0.400"",""0.619"",""0.721""]","[0,1,1,1]",0,22,22,22,1,1,1,,,0,FALSE,,,,,,,,,,,,,,,,,,,,,,,,,,,,,,
,5efd440689469118b2540378,001,2022-04-28_18h03.19.398,classification_task,2021.2.3,Win32,60.35367252,5efd440689469118b2540378,626b377229c10585ec392f8a,626b38e0674052d874d36953,,,,,,,,,,,,,,,,,,,,,,,l,0,1.5201,"[""0.226"",""0.539"",""0.337"",""0.972""]","[1,1,0,1]",0,23,23,23,1,0,0,,,0,FALSE,,,,,,,,,,,,,,,,,,,,,,,,,,,,,,
,5efd440689469118b2540378,001,2022-04-28_18h03.19.398,classification_task,2021.2.3,Win32,60.35367252,5efd440689469118b2540378,626b377229c10585ec392f8a,626b38e0674052d874d36953,,,,,,,,,,,,,,,,,,,,,,,l,1,1.8734,"[""0.109"",""0.438"",""0.574"",""0.765""]","[1,0,1,1]",0,24,24,24,1,1,0,,,0,FALSE,,,,,,,,,,,,,,,,,,,,,,,,,,,,,,
,5efd440689469118b2540378,001,2022-04-28_18h03.19.398,classification_task,2021.2.3,Win32,60.35367252,5efd440689469118b2540378,626b377229c10585ec392f8a,626b38e0674052d874d36953,,,,,,,,,,,,,,,,,,,,,,,l,1,1.761,"[""0.043"",""0.678"",""0.619"",""0.721""]","[1,0,1,1]",0,25,25,25,1,1,1,,,0,FALSE,,,,,,,,,,,,,,,,,,,,,,,,,,,,,,
,5efd440689469118b2540378,001,2022-04-28_18h03.19.398,classification_task,2021.2.3,Win32,60.35367252,5efd440689469118b2540378,626b377229c10585ec392f8a,626b38e0674052d874d36953,,,,,,,,,,,,,,,,,,,,,,,a,1,0.7571,"[""0.344"",""0.473"",""0.871"",""0.931""]","[0,1,1,1]",0,26,26,26,1,0,1,,,0,FALSE,,,,,,,,,,,,,,,,,,,,,,,,,,,,,,
,5efd440689469118b2540378,001,2022-04-28_18h03.19.398,classification_task,2021.2.3,Win32,60.35367252,5efd440689469118b2540378,626b377229c10585ec392f8a,626b38e0674052d874d36953,,,,,,,,,,,,,,,,,,,,,,,a,0,0.9805,"[""0.109"",""0.156"",""0.574"",""0.344""]","[1,1,1,0]",0,27,27,27,1,1,0,,,0,FALSE,,,,,,,,,,,,,,,,,,,,,,,,,,,,,,
,5efd440689469118b2540378,001,2022-04-28_18h03.19.398,classification_task,2021.2.3,Win32,60.35367252,5efd440689469118b2540378,626b377229c10585ec392f8a,626b38e0674052d874d36953,,,,,,,,,,,,,,,,,,,,,,,l,1,0.7118,"[""0.656"",""0.156"",""0.574"",""0.765""]","[0,1,1,1]",0,28,28,28,1,1,0,,,0,FALSE,,,,,,,,,,,,,,,,,,,,,,,,,,,,,,
,5efd440689469118b2540378,001,2022-04-28_18h03.19.398,classification_task,2021.2.3,Win32,60.35367252,5efd440689469118b2540378,626b377229c10585ec392f8a,626b38e0674052d874d36953,,,,,,,,,,,,,,,,,,,,,,,l,0,1.1649,"[""0.303"",""0.473"",""0.266"",""0.931""]","[1,1,0,1]",0,29,29,29,1,0,1,,,0,FALSE,,,,,,,,,,,,,,,,,,,,,,,,,,,,,,
,5efd440689469118b2540378,001,2022-04-28_18h03.19.398,classification_task,2021.2.3,Win32,60.35367252,5efd440689469118b2540378,626b377229c10585ec392f8a,626b38e0674052d874d36953,,,,,,,,,,,,,,,,,,,,,,,l,0,0.9067,"[""0.226"",""0.656"",""0.808"",""0.972""]","[1,0,1,1]",0,30,30,30,1,0,0,,,0,FALSE,,,,,,,,,,,,,,,,,,,,,,,,,,,,,,
,5efd440689469118b2540378,001,2022-04-28_18h03.19.398,classification_task,2021.2.3,Win32,60.35367252,5efd440689469118b2540378,626b377229c10585ec392f8a,626b38e0674052d874d36953,,,,,,,,,,,,,,,,,,,,,,,l,1,1.2552,"[""0.043"",""0.400"",""0.619"",""0.675""]","[1,1,1,0]",0,31,31,31,1,1,1,,,0,FALSE,,,,,,,,,,,,,,,,,,,,,,,,,,,,,,
,5efd440689469118b2540378,001,2022-04-28_18h03.19.398,classification_task,2021.2.3,Win32,60.35367252,5efd440689469118b2540378,626b377229c10585ec392f8a,626b38e0674052d874d36953,,,,,,,,,,,,,,,,,,,,,,,a,0,0.8498,"[""0.675"",""0.400"",""0.619"",""0.721""]","[0,1,1,1]",0,32,32,32,1,1,1,,,0,FALSE,,,,,,,,,,,,,,,,,,,,,,,,,,,,,,
,5efd440689469118b2540378,001,2022-04-28_18h03.19.398,classification_task,2021.2.3,Win32,60.35367252,5efd440689469118b2540378,626b377229c10585ec392f8a,626b38e0674052d874d36953,,,,,,,,,,,,,,,,,,,,,,,l,1,0.5705,"[""0.109"",""0.156"",""0.661"",""0.765""]","[1,1,0,1]",0,33,33,33,1,1,0,,,0,FALSE,,,,,,,,,,,,,,,,,,,,,,,,,,,,,,
,5efd440689469118b2540378,001,2022-04-28_18h03.19.398,classification_task,2021.2.3,Win32,60.35367252,5efd440689469118b2540378,626b377229c10585ec392f8a,626b38e0674052d874d36953,,,,,,,,,,,,,,,,,,,,,,,a,1,1.3108,"[""0.226"",""0.539"",""0.808"",""0.341""]","[1,1,1,0]",0,34,34,34,1,0,0,,,0,FALSE,,,,,,,,,,,,,,,,,,,,,,,,,,,,,,
,5efd440689469118b2540378,001,2022-04-28_18h03.19.398,classification_task,2021.2.3,Win32,60.35367252,5efd440689469118b2540378,626b377229c10585ec392f8a,626b38e0674052d874d36953,,,,,,,,,,,,,,,,,,,,,,,l,0,1.0314,"[""0.303"",""0.473"",""0.343"",""0.931""]","[1,1,0,1]",0,35,35,35,1,0,1,,,0,FALSE,,,,,,,,,,,,,,,,,,,,,,,,,,,,,,
,5efd440689469118b2540378,001,2022-04-28_18h03.19.398,classification_task,2021.2.3,Win32,60.35367252,5efd440689469118b2540378,626b377229c10585ec392f8a,626b38e0674052d874d36953,,,,,,,,,,,,,,,,,,,,,,,a,0,1.1218,"[""0.043"",""0.337"",""0.619"",""0.721""]","[1,0,1,1]",0,36,36,36,1,1,1,,,0,FALSE,,,,,,,,,,,,,,,,,,,,,,,,,,,,,,
,5efd440689469118b2540378,001,2022-04-28_18h03.19.398,classification_task,2021.2.3,Win32,60.35367252,5efd440689469118b2540378,626b377229c10585ec392f8a,626b38e0674052d874d36953,,,,,,,,,,,,,,,,,,,,,,,a,0,1.1373,"[""0.043"",""0.400"",""0.619"",""0.343""]","[1,1,1,0]",0,37,37,37,1,1,1,,,0,FALSE,,,,,,,,,,,,,,,,,,,,,,,,,,,,,,
,5efd440689469118b2540378,001,2022-04-28_18h03.19.398,classification_task,2021.2.3,Win32,60.35367252,5efd440689469118b2540378,626b377229c10585ec392f8a,626b38e0674052d874d36953,,,,,,,,,,,,,,,,,,,,,,,l,0,0.9367,"[""0.348"",""0.539"",""0.808"",""0.972""]","[0,1,1,1]",0,38,38,38,1,0,0,,,0,FALSE,,,,,,,,,,,,,,,,,,,,,,,,,,,,,,
,5efd440689469118b2540378,001,2022-04-28_18h03.19.398,classification_task,2021.2.3,Win32,60.35367252,5efd440689469118b2540378,626b377229c10585ec392f8a,626b38e0674052d874d36953,,,,,,,,,,,,,,,,,,,,,,,l,1,0.9759,"[""0.266"",""0.156"",""0.574"",""0.765""]","[0,1,1,1]",0,39,39,39,1,1,0,,,0,FALSE,,,,,,,,,,,,,,,,,,,,,,,,,,,,,,
,5efd440689469118b2540378,001,2022-04-28_18h03.19.398,classification_task,2021.2.3,Win32,60.35367252,5efd440689469118b2540378,626b377229c10585ec392f8a,626b38e0674052d874d36953,,,,,,,,,,,,,,,,,,,,,,,l,0,0.8896,"[""0.226"",""0.355"",""0.808"",""0.972""]","[1,0,1,1]",0,40,40,40,1,0,0,,,0,FALSE,,,,,,,,,,,,,,,,,,,,,,,,,,,,,,
,5efd440689469118b2540378,001,2022-04-28_18h03.19.398,classification_task,2021.2.3,Win32,60.35367252,5efd440689469118b2540378,626b377229c10585ec392f8a,626b38e0674052d874d36953,,,,,,,,,,,,,,,,,,,,,,,l,0,0.8665,"[""0.303"",""0.337"",""0.871"",""0.931""]","[1,0,1,1]",0,41,41,41,1,0,1,,,0,FALSE,,,,,,,,,,,,,,,,,,,,,,,,,,,,,,
,5efd440689469118b2540378,001,2022-04-28_18h03.19.398,classification_task,2021.2.3,Win32,60.35367252,5efd440689469118b2540378,626b377229c10585ec392f8a,626b38e0674052d874d36953,,,,,,,,,,,,,,,,,,,,,,,l,1,1.0266,"[""0.043"",""0.400"",""0.661"",""0.721""]","[1,1,0,1]",0,42,42,42,1,1,1,,,0,FALSE,,,,,,,,,,,,,,,,,,,,,,,,,,,,,,
,5efd440689469118b2540378,001,2022-04-28_18h03.19.398,classification_task,2021.2.3,Win32,60.35367252,5efd440689469118b2540378,626b377229c10585ec392f8a,626b38e0674052d874d36953,,,,,,,,,,,,,,,,,,,,,,,l,0,1.4996,"[""0.226"",""0.539"",""0.678"",""0.972""]","[1,1,0,1]",0,43,43,43,1,0,0,,,0,FALSE,,,,,,,,,,,,,,,,,,,,,,,,,,,,,,
,5efd440689469118b2540378,001,2022-04-28_18h03.19.398,classification_task,2021.2.3,Win32,60.35367252,5efd440689469118b2540378,626b377229c10585ec392f8a,626b38e0674052d874d36953,,,,,,,,,,,,,,,,,,,,,,,l,0,0.6275,"[""0.671"",""0.473"",""0.871"",""0.931""]","[0,1,1,1]",0,44,44,44,1,0,1,,,0,FALSE,,,,,,,,,,,,,,,,,,,,,,,,,,,,,,
,5efd440689469118b2540378,001,2022-04-28_18h03.19.398,classification_task,2021.2.3,Win32,60.35367252,5efd440689469118b2540378,626b377229c10585ec392f8a,626b38e0674052d874d36953,,,,,,,,,,,,,,,,,,,,,,,a,1,0.3933,"[""0.303"",""0.473"",""0.871"",""0.341""]","[1,1,1,0]",0,45,45,45,1,0,1,,,0,FALSE,,,,,,,,,,,,,,,,,,,,,,,,,,,,,,
,5efd440689469118b2540378,001,2022-04-28_18h03.19.398,classification_task,2021.2.3,Win32,60.35367252,5efd440689469118b2540378,626b377229c10585ec392f8a,626b38e0674052d874d36953,,,,,,,,,,,,,,,,,,,,,,,a,0,0.639,"[""0.109"",""0.156"",""0.574"",""0.337""]","[1,1,1,0]",0,46,46,46,1,1,0,,,0,FALSE,,,,,,,,,,,,,,,,,,,,,,,,,,,,,,
,5efd440689469118b2540378,001,2022-04-28_18h03.19.398,classification_task,2021.2.3,Win32,60.35367252,5efd440689469118b2540378,626b377229c10585ec392f8a,626b38e0674052d874d36953,,,,,,,,,,,,,,,,,,,,,,,a,0,0.4895,"[""0.109"",""0.341"",""0.574"",""0.765""]","[1,0,1,1]",0,47,47,47,1,1,0,,,0,FALSE,,,,,,,,,,,,,,,,,,,,,,,,,,,,,,
,5efd440689469118b2540378,001,2022-04-28_18h03.19.398,classification_task,2021.2.3,Win32,60.35367252,5efd440689469118b2540378,626b377229c10585ec392f8a,626b38e0674052d874d36953,,,,,,,,,,,,,,,,,,,,,,,l,1,0.495,"[""0.109"",""0.156"",""0.574"",""0.656""]","[1,1,1,0]",0,48,48,48,1,1,0,,,0,FALSE,,,,,,,,,,,,,,,,,,,,,,,,,,,,,,
,5efd440689469118b2540378,001,2022-04-28_18h03.19.398,classification_task,2021.2.3,Win32,60.35367252,5efd440689469118b2540378,626b377229c10585ec392f8a,626b38e0674052d874d36953,,,,,,,,,,,,,,,,,,,,,,,l,0,0.7385,"[""0.226"",""0.539"",""0.344"",""0.972""]","[1,1,0,1]",0,49,49,49,1,0,0,,,0,FALSE,,,,,,,,,,,,,,,,,,,,,,,,,,,,,,
,5efd440689469118b2540378,001,2022-04-28_18h03.19.398,classification_task,2021.2.3,Win32,60.35367252,5efd440689469118b2540378,626b377229c10585ec392f8a,626b38e0674052d874d36953,,,,,,,,,,,,,,,,,,,,,,,a,0,1.2781,"[""0.043"",""0.348"",""0.619"",""0.721""]","[1,0,1,1]",0,50,50,50,1,1,1,,,0,FALSE,,,,,,,,,,,,,,,,,,,,,,,,,,,,,,
,5efd440689469118b2540378,001,2022-04-28_18h03.19.398,classification_task,2021.2.3,Win32,60.35367252,5efd440689469118b2540378,626b377229c10585ec392f8a,626b38e0674052d874d36953,,,,,,,,,,,,,,,,,,,,,,,l,1,0.4623,"[""0.109"",""0.156"",""0.350"",""0.765""]","[1,1,0,1]",0,51,51,51,1,1,0,,,0,FALSE,,,,,,,,,,,,,,,,,,,,,,,,,,,,,,
,5efd440689469118b2540378,001,2022-04-28_18h03.19.398,classification_task,2021.2.3,Win32,60.35367252,5efd440689469118b2540378,626b377229c10585ec392f8a,626b38e0674052d874d36953,,,,,,,,,,,,,,,,,,,,,,,a,0,1.0253,"[""0.043"",""0.400"",""0.438"",""0.721""]","[1,1,0,1]",0,52,52,52,1,1,1,,,0,FALSE,,,,,,,,,,,,,,,,,,,,,,,,,,,,,,
,5efd440689469118b2540378,001,2022-04-28_18h03.19.398,classification_task,2021.2.3,Win32,60.35367252,5efd440689469118b2540378,626b377229c10585ec392f8a,626b38e0674052d874d36953,,,,,,,,,,,,,,,,,,,,,,,l,1,0.9798,"[""0.343"",""0.156"",""0.574"",""0.765""]","[0,1,1,1]",0,53,53,53,1,1,0,,,0,FALSE,,,,,,,,,,,,,,,,,,,,,,,,,,,,,,
,5efd440689469118b2540378,001,2022-04-28_18h03.19.398,classification_task,2021.2.3,Win32,60.35367252,5efd440689469118b2540378,626b377229c10585ec392f8a,626b38e0674052d874d36953,,,,,,,,,,,,,,,,,,,,,,,a,0,1.145,"[""0.675"",""0.400"",""0.619"",""0.721""]","[0,1,1,1]",0,54,54,54,1,1,1,,,0,FALSE,,,,,,,,,,,,,,,,,,,,,,,,,,,,,,
,5efd440689469118b2540378,001,2022-04-28_18h03.19.398,classification_task,2021.2.3,Win32,60.35367252,5efd440689469118b2540378,626b377229c10585ec392f8a,626b38e0674052d874d36953,,,,,,,,,,,,,,,,,,,,,,,l,0,1.1922,"[""0.226"",""0.539"",""0.808"",""0.675""]","[1,1,1,0]",0,55,55,55,1,0,0,,,0,FALSE,,,,,,,,,,,,,,,,,,,,,,,,,,,,,,
,5efd440689469118b2540378,001,2022-04-28_18h03.19.398,classification_task,2021.2.3,Win32,60.35367252,5efd440689469118b2540378,626b377229c10585ec392f8a,626b38e0674052d874d36953,,,,,,,,,,,,,,,,,,,,,,,l,0,1.1619,"[""0.226"",""0.348"",""0.808"",""0.972""]","[1,0,1,1]",0,56,56,56,1,0,0,,,0,FALSE,,,,,,,,,,,,,,,,,,,,,,,,,,,,,,
,5efd440689469118b2540378,001,2022-04-28_18h03.19.398,classification_task,2021.2.3,Win32,60.35367252,5efd440689469118b2540378,626b377229c10585ec392f8a,626b38e0674052d874d36953,,,,,,,,,,,,,,,,,,,,,,,a,1,0.9215,"[""0.303"",""0.473"",""0.871"",""0.355""]","[1,1,1,0]",0,57,57,57,1,0,1,,,0,FALSE,,,,,,,,,,,,,,,,,,,,,,,,,,,,,,
,5efd440689469118b2540378,001,2022-04-28_18h03.19.398,classification_task,2021.2.3,Win32,60.35367252,5efd440689469118b2540378,626b377229c10585ec392f8a,626b38e0674052d874d36953,,,,,,,,,,,,,,,,,,,,,,,l,0,0.868,"[""0.303"",""0.473"",""0.344"",""0.931""]","[1,1,0,1]",0,58,58,58,1,0,1,,,0,FALSE,,,,,,,,,,,,,,,,,,,,,,,,,,,,,,
,5efd440689469118b2540378,001,2022-04-28_18h03.19.398,classification_task,2021.2.3,Win32,60.35367252,5efd440689469118b2540378,626b377229c10585ec392f8a,626b38e0674052d874d36953,,,,,,,,,,,,,,,,,,,,,,,l,1,0.5419,"[""0.109"",""0.344"",""0.574"",""0.765""]","[1,0,1,1]",0,59,59,59,1,1,0,,,0,FALSE,,,,,,,,,,,,,,,,,,,,,,,,,,,,,,
,5efd440689469118b2540378,001,2022-04-28_18h03.19.398,classification_task,2021.2.3,Win32,60.35367252,5efd440689469118b2540378,626b377229c10585ec392f8a,626b38e0674052d874d36953,,,,,,,,,,,,,,,,,,,,,,,l,0,0.8132,"[""0.266"",""0.539"",""0.808"",""0.972""]","[0,1,1,1]",0,60,60,60,1,0,0,,,0,FALSE,,,,,,,,,,,,,,,,,,,,,,,,,,,,,,
,5efd440689469118b2540378,001,2022-04-28_18h03.19.398,classification_task,2021.2.3,Win32,60.35367252,5efd440689469118b2540378,626b377229c10585ec392f8a,626b38e0674052d874d36953,,,,,,,,,,,,,,,,,,,,,,,l,0,1.0385,"[""0.341"",""0.473"",""0.871"",""0.931""]","[0,1,1,1]",0,61,61,61,1,0,1,,,0,FALSE,,,,,,,,,,,,,,,,,,,,,,,,,,,,,,
,5efd440689469118b2540378,001,2022-04-28_18h03.19.398,classification_task,2021.2.3,Win32,60.35367252,5efd440689469118b2540378,626b377229c10585ec392f8a,626b38e0674052d874d36953,,,,,,,,,,,,,,,,,,,,,,,a,1,0.5113,"[""0.303"",""0.661"",""0.871"",""0.931""]","[1,0,1,1]",0,62,62,62,1,0,1,,,0,FALSE,,,,,,,,,,,,,,,,,,,,,,,,,,,,,,
,5efd440689469118b2540378,001,2022-04-28_18h03.19.398,classification_task,2021.2.3,Win32,60.35367252,5efd440689469118b2540378,626b377229c10585ec392f8a,626b38e0674052d874d36953,,,,,,,,,,,,,,,,,,,,,,,l,1,0.5218,"[""0.043"",""0.400"",""0.619"",""0.658""]","[1,1,1,0]",0,63,63,63,1,1,1,,,0,FALSE,,,,,,,,,,,,,,,,,,,,,,,,,,,,,,
,5efd440689469118b2540378,001,2022-04-28_18h03.19.398,classification_task,2021.2.3,Win32,60.35367252,5efd440689469118b2540378,626b377229c10585ec392f8a,626b38e0674052d874d36953,,,,,,,,,,,,,,,,,,,,,,,,,,,,,,,,,,,,,,,0, ,,0,3.622134039,141.3825,0,2,2,2,1,2,3,,,,,,,,,,,,,,,,,
,5efd440689469118b2540378,001,2022-04-28_18h03.19.398,classification_task,2021.2.3,Win32,60.35367252,5efd440689469118b2540378,626b377229c10585ec392f8a,626b38e0674052d874d36953,,,,,,,,,,,,,,,,,,,,,,,,,,,,,,,,,,,,,,,1,  ,,0,3.139880952,142.555,0,2,2,2,1,2,3,,,,,,,,,,,,,,,,,
,5efd440689469118b2540378,001,2022-04-28_18h03.19.398,classification_task,2021.2.3,Win32,60.35367252,5efd440689469118b2540378,626b377229c10585ec392f8a,626b38e0674052d874d36953,,,,,,,,,,,,,,,,,,,,,,,,,,,,,,,,,,,,,,,2,  ,,0,2.485394621,143.5709,0,2,2,2,1,2,3,,,,,,,,,,,,,,,,,
,5efd440689469118b2540378,001,2022-04-28_18h03.19.398,classification_task,2021.2.3,Win32,60.35367252,5efd440689469118b2540378,626b377229c10585ec392f8a,626b38e0674052d874d36953,,,,,,,,,,,,,,,,,,,,,,,,,,,,,,,,,,,,,,,,,,,,,0,2,2,2,1,,3,,,,,,,,,,,,,,,,,
,5efd440689469118b2540378,001,2022-04-28_18h03.19.398,classification_task,2021.2.3,Win32,60.35367252,5efd440689469118b2540378,626b377229c10585ec392f8a,626b38e0674052d874d36953,,,,,,,,,,,,,,,,,,,,,,,,,,,,,,,,,,,,,,,,,,,,,,,,,,,,,I believe the aid is a competent performer,,0.7,0,3,760.2515,0,0,0,0,1,0,,,,
,5efd440689469118b2540378,001,2022-04-28_18h03.19.398,classification_task,2021.2.3,Win32,60.35367252,5efd440689469118b2540378,626b377229c10585ec392f8a,626b38e0674052d874d36953,,,,,,,,,,,,,,,,,,,,,,,,,,,,,,,,,,,,,,,,,,,,,,,,,,,,,I trust the aid,,0.7,0,3,761.2606,0,0,0,0,1,0,,,,
,5efd440689469118b2540378,001,2022-04-28_18h03.19.398,classification_task,2021.2.3,Win32,60.35367252,5efd440689469118b2540378,626b377229c10585ec392f8a,626b38e0674052d874d36953,,,,,,,,,,,,,,,,,,,,,,,,,,,,,,,,,,,,,,,,,,,,,,,,,,,,,I have confidence in the advice given by the aid,,0.7,0,4,763.5566,0,0,0,0,1,0,,,,
,5efd440689469118b2540378,001,2022-04-28_18h03.19.398,classification_task,2021.2.3,Win32,60.35367252,5efd440689469118b2540378,626b377229c10585ec392f8a,626b38e0674052d874d36953,,,,,,,,,,,,,,,,,,,,,,,,,,,,,,,,,,,,,,,,,,,,,,,,,,,,,I can depend on the aid,,0.7,0,4,765.3693,0,0,0,0,1,0,,,,
,5efd440689469118b2540378,001,2022-04-28_18h03.19.398,classification_task,2021.2.3,Win32,60.35367252,5efd440689469118b2540378,626b377229c10585ec392f8a,626b38e0674052d874d36953,,,,,,,,,,,,,,,,,,,,,,,,,,,,,,,,,,,,,,,,,,,,,,,,,,,,,I can rely on the aid to behave in consistent ways,,0.7,0,4,767.4953,0,0,0,0,1,0,,,,
,5efd440689469118b2540378,001,2022-04-28_18h03.19.398,classification_task,2021.2.3,Win32,60.35367252,5efd440689469118b2540378,626b377229c10585ec392f8a,626b38e0674052d874d36953,,,,,,,,,,,,,,,,,,,,,,,,,,,,,,,,,,,,,,,,,,,,,,,,,,,,,I can rely on the aid to do its best every time I take its advice,,0.7,0,4,770.9045,0,0,0,0,1,0,,,,
,5efd440689469118b2540378,001,2022-04-28_18h03.19.398,classification_task,2021.2.3,Win32,60.35367252,5efd440689469118b2540378,626b377229c10585ec392f8a,626b38e0674052d874d36953,,,,,,,,,,,,,,,,,,,,,,,,,,,,,,,,,,,,,,,,,,,,,,,,,,,,,"On trials you completed with assistance from the aid, how frequently did you think the aid was correct?",,0.7,0,100%,,0,0,0,0,1,0,,,,
,5efd440689469118b2540378,001,2022-04-28_18h03.19.398,classification_task,2021.2.3,Win32,60.35367252,5efd440689469118b2540378,626b377229c10585ec392f8a,626b38e0674052d874d36953,,,,,,,,,,,,,,,,,,,,,,,,,,,,,,,,,,,,,,,,,,,,,,,,,,,,,"On trials you completed without the aid, how frequently did you think you were correct?",,0.7,0,5%,,0,0,0,0,1,0,,,,
,5efd440689469118b2540378,001,2022-04-28_18h03.19.398,classification_task,2021.2.3,Win32,60.35367252,5efd440689469118b2540378,626b377229c10585ec392f8a,626b38e0674052d874d36953,,,,,,,,,,,,,,,,,,,,,,,,,,,,,,,,,,,,,,,,,,,,,,,,,,,,,,,,,,,0,0,0,0,1,,,,,
,5efd440689469118b2540378,001,2022-04-28_18h03.19.398,classification_task,2021.2.3,Win32,60.35367252,5efd440689469118b2540378,626b377229c10585ec392f8a,626b38e0674052d874d36953,,,,,,,,,,,,,,,,,,,,,,,,,,,,,,,,,,,,,,,,,,,,,,,,,,,,,,,,,,,,,,,,,space,9.926,797.3049,
,5efd440689469118b2540378,001,2022-04-28_18h03.19.398,classification_task,2021.2.3,Win32,60.35367252,5efd440689469118b2540378,626b377229c10585ec392f8a,626b38e0674052d874d36953,,,,,,,,,,,,,,,,,,,,,,,,,,,,,,,,,,,,,,,,,,,,,,,,,,,,,,,,,,,,,,,,,,,,"Mozilla/5.0 (Windows NT 10.0; Win64; x64) AppleWebKit/537.36 (KHTML, like Gecko) Chrome/100.0.4896.127 Safari/537.36"
