usingWebGL,participant,session,date,expName,psychopyVersion,OS,frameRate,PROLIFIC_PID,STUDY_ID,SESSION_ID,signatures_friend,signatures_foe,band_ranges_top,band_ranges_bottom,formitemText,formtype,formundefined,formitemWidth,formindex,formresponse,formrt,key_resp_2.keys,key_resp_2.rt,tute_resp.keys,tute_resp.rt,tutorial.thisRepN,tutorial.thisTrialN,tutorial.thisN,tutorial.thisIndex,tutorial.ran,key_resp_4.keys,key_resp_4.rt,key_resp.keys,key_resp.corr,key_resp.rt,lines_presented,is_signal_presented,trials.thisRepN,trials.thisTrialN,trials.thisN,trials.thisIndex,trials.ran,vessel,active_band,lines,is_signal,supported_pos,catch_trial,debrief_formindex,debrief_formitemText,debrief_formtype,debrief_formitemWidth,debrief_formresponse,debrief_formrt,phases.thisRepN,phases.thisTrialN,phases.thisN,phases.thisIndex,phases.ran,phases.order,phase,key_resp_3.keys,trustitemText,trusttype,trustitemWidth,trustindex,trustresponse,trustrt,support_status.thisRepN,support_status.thisTrialN,support_status.thisN,support_status.thisIndex,support_status.ran,support_status.order,key_resp_5.keys,key_resp_5.rt,globalClockTime,userAgent
TRUE,5f03f4271eb1e561e89abd87,001,2022-04-28_18h27.52.799,classification_task,2021.2.3,Win32,49.85044865,5f03f4271eb1e561e89abd87,626b377229c10585ec392f8a,626b3c237b0808b54565652e,,,,,,,,,,,,,,,,,,,,,,,,,,,,,,,,,,,,,,,,,,,,,,,,,,,,,,,,,,,,,,,,,,,,
,5f03f4271eb1e561e89abd87,001,2022-04-28_18h27.52.799,classification_task,2021.2.3,Win32,49.85044865,5f03f4271eb1e561e89abd87,626b377229c10585ec392f8a,626b3c237b0808b54565652e,"[[""0.171"",""0.522"",""0.574"",""0.876""],[""0.210"",""0.440"",""0.918"",""0.965""]]","[[""0.052"",""0.253"",""0.626"",""0.799""],[""0.118"",""0.375"",""0.477"",""0.841""]]","[1,10]","[100,1000]",Video game experience,,,0.7,0,,,,,,,,,,,,,,,,,,,,,,,,,,,,,,,,,,,,,,,,,,,,,,,,,,,,,,,,,,,
,5f03f4271eb1e561e89abd87,001,2022-04-28_18h27.52.799,classification_task,2021.2.3,Win32,49.85044865,5f03f4271eb1e561e89abd87,626b377229c10585ec392f8a,626b3c237b0808b54565652e,,,,,Approximately how many hours did you spend playing video games in the last week?,,,0.7,0,2,,,,,,,,,,,,,,,,,,,,,,,,,,,,,,,,,,,,,,,,,,,,,,,,,,,,,,,,,,
,5f03f4271eb1e561e89abd87,001,2022-04-28_18h27.52.799,classification_task,2021.2.3,Win32,49.85044865,5f03f4271eb1e561e89abd87,626b377229c10585ec392f8a,626b3c237b0808b54565652e,,,,,"Which game did you play the most this year? (Enter ""None"" if you didn't play any)",,,0.7,0,hollow knight,,,,,,,,,,,,,,,,,,,,,,,,,,,,,,,,,,,,,,,,,,,,,,,,,,,,,,,,,,
,5f03f4271eb1e561e89abd87,001,2022-04-28_18h27.52.799,classification_task,2021.2.3,Win32,49.85044865,5f03f4271eb1e561e89abd87,626b377229c10585ec392f8a,626b3c237b0808b54565652e,,,,,Visual perception,,,0.7,0,,,,,,,,,,,,,,,,,,,,,,,,,,,,,,,,,,,,,,,,,,,,,,,,,,,,,,,,,,,
,5f03f4271eb1e561e89abd87,001,2022-04-28_18h27.52.799,classification_task,2021.2.3,Win32,49.85044865,5f03f4271eb1e561e89abd87,626b377229c10585ec392f8a,626b3c237b0808b54565652e,,,,,Do you have any form of color blindness?,,,0.7,0,No,20.529,,,,,,,,,,,,,,,,,,,,,,,,,,,,,,,,,,,,,,,,,,,,,,,,,,,,,,,,,
,5f03f4271eb1e561e89abd87,001,2022-04-28_18h27.52.799,classification_task,2021.2.3,Win32,49.85044865,5f03f4271eb1e561e89abd87,626b377229c10585ec392f8a,626b3c237b0808b54565652e,,,,,Do you use software to change the colour temperature of your screen (e.g. f.lux)?,,,0.7,0,Yes,25.742,,,,,,,,,,,,,,,,,,,,,,,,,,,,,,,,,,,,,,,,,,,,,,,,,,,,,,,,,
,5f03f4271eb1e561e89abd87,001,2022-04-28_18h27.52.799,classification_task,2021.2.3,Win32,49.85044865,5f03f4271eb1e561e89abd87,626b377229c10585ec392f8a,626b3c237b0808b54565652e,,,,,,,,,,,,space,1318.094,space,6.919,0,0,0,0,1,,,,,,,,,,,,,,,,,,,,,,,,,,,,,,,,,,,,,,,,,,,,,,,,
,5f03f4271eb1e561e89abd87,001,2022-04-28_18h27.52.799,classification_task,2021.2.3,Win32,49.85044865,5f03f4271eb1e561e89abd87,626b377229c10585ec392f8a,626b3c237b0808b54565652e,,,,,,,,,,,,,,space,14.527,1,0,1,0,1,,,,,,,,,,,,,,,,,,,,,,,,,,,,,,,,,,,,,,,,,,,,,,,,
,5f03f4271eb1e561e89abd87,001,2022-04-28_18h27.52.799,classification_task,2021.2.3,Win32,49.85044865,5f03f4271eb1e561e89abd87,626b377229c10585ec392f8a,626b3c237b0808b54565652e,,,,,,,,,,,,,,space,21.967,2,0,2,0,1,,,,,,,,,,,,,,,,,,,,,,,,,,,,,,,,,,,,,,,,,,,,,,,,
,5f03f4271eb1e561e89abd87,001,2022-04-28_18h27.52.799,classification_task,2021.2.3,Win32,49.85044865,5f03f4271eb1e561e89abd87,626b377229c10585ec392f8a,626b3c237b0808b54565652e,,,,,,,,,,,,,,space,12.325,3,0,3,0,1,,,,,,,,,,,,,,,,,,,,,,,,,,,,,,,,,,,,,,,,,,,,,,,,
,5f03f4271eb1e561e89abd87,001,2022-04-28_18h27.52.799,classification_task,2021.2.3,Win32,49.85044865,5f03f4271eb1e561e89abd87,626b377229c10585ec392f8a,626b3c237b0808b54565652e,,,,,,,,,,,,,,space,100.238,4,0,4,0,1,,,,,,,,,,,,,,,,,,,,,,,,,,,,,,,,,,,,,,,,,,,,,,,,
,5f03f4271eb1e561e89abd87,001,2022-04-28_18h27.52.799,classification_task,2021.2.3,Win32,49.85044865,5f03f4271eb1e561e89abd87,626b377229c10585ec392f8a,626b3c237b0808b54565652e,,,,,,,,,,,,,,,,,,,,,space,18.388,l,1,4.605,"[""0.052"",""0.253"",""0.665"",""0.799""]","[1,1,0,1]",0,0,0,0,1,1,0,,,0,FALSE,,,,,,,,,,,,,,,,,,,,,,,,,,,,,,
,5f03f4271eb1e561e89abd87,001,2022-04-28_18h27.52.799,classification_task,2021.2.3,Win32,49.85044865,5f03f4271eb1e561e89abd87,626b377229c10585ec392f8a,626b3c237b0808b54565652e,,,,,,,,,,,,,,,,,,,,,,,a,1,6.668,"[""0.210"",""0.440"",""0.727"",""0.965""]","[1,1,0,1]",0,1,1,1,1,0,1,,,0,FALSE,,,,,,,,,,,,,,,,,,,,,,,,,,,,,,
,5f03f4271eb1e561e89abd87,001,2022-04-28_18h27.52.799,classification_task,2021.2.3,Win32,49.85044865,5f03f4271eb1e561e89abd87,626b377229c10585ec392f8a,626b3c237b0808b54565652e,,,,,,,,,,,,,,,,,,,,,,,,0,,"[""0.687"",""0.375"",""0.477"",""0.841""]","[0,1,1,1]",0,2,2,2,1,1,1,,,0,FALSE,,,,,,,,,,,,,,,,,,,,,,,,,,,,,,
,5f03f4271eb1e561e89abd87,001,2022-04-28_18h27.52.799,classification_task,2021.2.3,Win32,49.85044865,5f03f4271eb1e561e89abd87,626b377229c10585ec392f8a,626b3c237b0808b54565652e,,,,,,,,,,,,,,,,,,,,,,,a,1,3.366,"[""0.210"",""0.440"",""0.918"",""0.341""]","[1,1,1,0]",0,3,3,3,1,0,1,,,0,FALSE,,,,,,,,,,,,,,,,,,,,,,,,,,,,,,
,5f03f4271eb1e561e89abd87,001,2022-04-28_18h27.52.799,classification_task,2021.2.3,Win32,49.85044865,5f03f4271eb1e561e89abd87,626b377229c10585ec392f8a,626b3c237b0808b54565652e,,,,,,,,,,,,,,,,,,,,,,,a,1,6.599,"[""0.341"",""0.440"",""0.918"",""0.965""]","[0,1,1,1]",0,4,4,4,1,0,1,,,0,FALSE,,,,,,,,,,,,,,,,,,,,,,,,,,,,,,
,5f03f4271eb1e561e89abd87,001,2022-04-28_18h27.52.799,classification_task,2021.2.3,Win32,49.85044865,5f03f4271eb1e561e89abd87,626b377229c10585ec392f8a,626b3c237b0808b54565652e,,,,,,,,,,,,,,,,,,,,,,,l,1,3.64,"[""0.118"",""0.375"",""0.737"",""0.841""]","[1,1,0,1]",0,5,5,5,1,1,1,,,0,FALSE,,,,,,,,,,,,,,,,,,,,,,,,,,,,,,
,5f03f4271eb1e561e89abd87,001,2022-04-28_18h27.52.799,classification_task,2021.2.3,Win32,49.85044865,5f03f4271eb1e561e89abd87,626b377229c10585ec392f8a,626b3c237b0808b54565652e,,,,,,,,,,,,,,,,,,,,,,,l,1,5.784,"[""0.738"",""0.253"",""0.626"",""0.799""]","[0,1,1,1]",0,6,6,6,1,1,0,,,0,FALSE,,,,,,,,,,,,,,,,,,,,,,,,,,,,,,
,5f03f4271eb1e561e89abd87,001,2022-04-28_18h27.52.799,classification_task,2021.2.3,Win32,49.85044865,5f03f4271eb1e561e89abd87,626b377229c10585ec392f8a,626b3c237b0808b54565652e,,,,,,,,,,,,,,,,,,,,,,,a,1,7.496,"[""0.210"",""0.679"",""0.918"",""0.965""]","[1,0,1,1]",0,7,7,7,1,0,1,,,0,FALSE,,,,,,,,,,,,,,,,,,,,,,,,,,,,,,
,5f03f4271eb1e561e89abd87,001,2022-04-28_18h27.52.799,classification_task,2021.2.3,Win32,49.85044865,5f03f4271eb1e561e89abd87,626b377229c10585ec392f8a,626b3c237b0808b54565652e,,,,,,,,,,,,,,,,,,,,,,,l,1,2.839,"[""0.118"",""0.665"",""0.477"",""0.841""]","[1,0,1,1]",0,8,8,8,1,1,1,,,0,FALSE,,,,,,,,,,,,,,,,,,,,,,,,,,,,,,
,5f03f4271eb1e561e89abd87,001,2022-04-28_18h27.52.799,classification_task,2021.2.3,Win32,49.85044865,5f03f4271eb1e561e89abd87,626b377229c10585ec392f8a,626b3c237b0808b54565652e,,,,,,,,,,,,,,,,,,,,,,,l,1,2.173,"[""0.118"",""0.375"",""0.477"",""0.292""]","[1,1,1,0]",0,9,9,9,1,1,1,,,0,FALSE,,,,,,,,,,,,,,,,,,,,,,,,,,,,,,
,5f03f4271eb1e561e89abd87,001,2022-04-28_18h27.52.799,classification_task,2021.2.3,Win32,49.85044865,5f03f4271eb1e561e89abd87,626b377229c10585ec392f8a,626b3c237b0808b54565652e,,,,,,,,,,,,,,,,,,,,,,,l,1,3.128,"[""0.052"",""0.292"",""0.626"",""0.799""]","[1,0,1,1]",0,10,10,10,1,1,0,,,0,FALSE,,,,,,,,,,,,,,,,,,,,,,,,,,,,,,
,5f03f4271eb1e561e89abd87,001,2022-04-28_18h27.52.799,classification_task,2021.2.3,Win32,49.85044865,5f03f4271eb1e561e89abd87,626b377229c10585ec392f8a,626b3c237b0808b54565652e,,,,,,,,,,,,,,,,,,,,,,,l,1,6.893,"[""0.052"",""0.253"",""0.626"",""0.320""]","[1,1,1,0]",0,11,11,11,1,1,0,,,0,FALSE,,,,,,,,,,,,,,,,,,,,,,,,,,,,,,
,5f03f4271eb1e561e89abd87,001,2022-04-28_18h27.52.799,classification_task,2021.2.3,Win32,49.85044865,5f03f4271eb1e561e89abd87,626b377229c10585ec392f8a,626b3c237b0808b54565652e,,,,,,,,,,,,,,,,,,,,,,,a,1,3.745,"[""0.171"",""0.522"",""0.574"",""0.292""]","[1,1,1,0]",0,12,12,12,1,0,0,,,0,FALSE,,,,,,,,,,,,,,,,,,,,,,,,,,,,,,
,5f03f4271eb1e561e89abd87,001,2022-04-28_18h27.52.799,classification_task,2021.2.3,Win32,49.85044865,5f03f4271eb1e561e89abd87,626b377229c10585ec392f8a,626b3c237b0808b54565652e,,,,,,,,,,,,,,,,,,,,,,,a,1,3.37,"[""0.171"",""0.682"",""0.574"",""0.876""]","[1,0,1,1]",0,13,13,13,1,0,0,,,0,FALSE,,,,,,,,,,,,,,,,,,,,,,,,,,,,,,
,5f03f4271eb1e561e89abd87,001,2022-04-28_18h27.52.799,classification_task,2021.2.3,Win32,49.85044865,5f03f4271eb1e561e89abd87,626b377229c10585ec392f8a,626b3c237b0808b54565652e,,,,,,,,,,,,,,,,,,,,,,,a,1,2.195,"[""0.171"",""0.522"",""0.742"",""0.876""]","[1,1,0,1]",0,14,14,14,1,0,0,,,0,FALSE,,,,,,,,,,,,,,,,,,,,,,,,,,,,,,
,5f03f4271eb1e561e89abd87,001,2022-04-28_18h27.52.799,classification_task,2021.2.3,Win32,49.85044865,5f03f4271eb1e561e89abd87,626b377229c10585ec392f8a,626b3c237b0808b54565652e,,,,,,,,,,,,,,,,,,,,,,,a,1,5.004,"[""0.742"",""0.522"",""0.574"",""0.876""]","[0,1,1,1]",0,15,15,15,1,0,0,,,0,FALSE,,,,,,,,,,,,,,,,,,,,,,,,,,,,,,
,5f03f4271eb1e561e89abd87,001,2022-04-28_18h27.52.799,classification_task,2021.2.3,Win32,49.85044865,5f03f4271eb1e561e89abd87,626b377229c10585ec392f8a,626b3c237b0808b54565652e,,,,,,,,,,,,,,,,,,,,,,,l,1,2.99,"[""0.052"",""0.316"",""0.626"",""0.799""]","[1,0,1,1]",0,16,16,16,1,1,0,,,0,FALSE,,,,,,,,,,,,,,,,,,,,,,,,,,,,,,
,5f03f4271eb1e561e89abd87,001,2022-04-28_18h27.52.799,classification_task,2021.2.3,Win32,49.85044865,5f03f4271eb1e561e89abd87,626b377229c10585ec392f8a,626b3c237b0808b54565652e,,,,,,,,,,,,,,,,,,,,,,,a,1,4.245,"[""0.737"",""0.522"",""0.574"",""0.876""]","[0,1,1,1]",0,17,17,17,1,0,0,,,0,FALSE,,,,,,,,,,,,,,,,,,,,,,,,,,,,,,
,5f03f4271eb1e561e89abd87,001,2022-04-28_18h27.52.799,classification_task,2021.2.3,Win32,49.85044865,5f03f4271eb1e561e89abd87,626b377229c10585ec392f8a,626b3c237b0808b54565652e,,,,,,,,,,,,,,,,,,,,,,,l,1,2.839,"[""0.316"",""0.253"",""0.626"",""0.799""]","[0,1,1,1]",0,18,18,18,1,1,0,,,0,FALSE,,,,,,,,,,,,,,,,,,,,,,,,,,,,,,
,5f03f4271eb1e561e89abd87,001,2022-04-28_18h27.52.799,classification_task,2021.2.3,Win32,49.85044865,5f03f4271eb1e561e89abd87,626b377229c10585ec392f8a,626b3c237b0808b54565652e,,,,,,,,,,,,,,,,,,,,,,,a,1,2.536,"[""0.171"",""0.522"",""0.574"",""0.680""]","[1,1,1,0]",0,19,19,19,1,0,0,,,0,FALSE,,,,,,,,,,,,,,,,,,,,,,,,,,,,,,
,5f03f4271eb1e561e89abd87,001,2022-04-28_18h27.52.799,classification_task,2021.2.3,Win32,49.85044865,5f03f4271eb1e561e89abd87,626b377229c10585ec392f8a,626b3c237b0808b54565652e,,,,,,,,,,,,,,,,,,,,,,,l,1,8.035,"[""0.118"",""0.375"",""0.477"",""0.320""]","[1,1,1,0]",0,20,20,20,1,1,1,,,0,FALSE,,,,,,,,,,,,,,,,,,,,,,,,,,,,,,
,5f03f4271eb1e561e89abd87,001,2022-04-28_18h27.52.799,classification_task,2021.2.3,Win32,49.85044865,5f03f4271eb1e561e89abd87,626b377229c10585ec392f8a,626b3c237b0808b54565652e,,,,,,,,,,,,,,,,,,,,,,,l,1,3.622,"[""0.118"",""0.682"",""0.477"",""0.841""]","[1,0,1,1]",0,21,21,21,1,1,1,,,0,FALSE,,,,,,,,,,,,,,,,,,,,,,,,,,,,,,
,5f03f4271eb1e561e89abd87,001,2022-04-28_18h27.52.799,classification_task,2021.2.3,Win32,49.85044865,5f03f4271eb1e561e89abd87,626b377229c10585ec392f8a,626b3c237b0808b54565652e,,,,,,,,,,,,,,,,,,,,,,,l,1,5.574,"[""0.680"",""0.375"",""0.477"",""0.841""]","[0,1,1,1]",0,22,22,22,1,1,1,,,0,FALSE,,,,,,,,,,,,,,,,,,,,,,,,,,,,,,
,5f03f4271eb1e561e89abd87,001,2022-04-28_18h27.52.799,classification_task,2021.2.3,Win32,49.85044865,5f03f4271eb1e561e89abd87,626b377229c10585ec392f8a,626b3c237b0808b54565652e,,,,,,,,,,,,,,,,,,,,,,,l,1,3.76,"[""0.118"",""0.375"",""0.320"",""0.841""]","[1,1,0,1]",0,23,23,23,1,1,1,,,0,FALSE,,,,,,,,,,,,,,,,,,,,,,,,,,,,,,
,5f03f4271eb1e561e89abd87,001,2022-04-28_18h27.52.799,classification_task,2021.2.3,Win32,49.85044865,5f03f4271eb1e561e89abd87,626b377229c10585ec392f8a,626b3c237b0808b54565652e,,,,,,,,,,,,,,,,,,,,,,,a,1,4.449,"[""0.210"",""0.687"",""0.918"",""0.965""]","[1,0,1,1]",0,24,24,24,1,0,1,,,0,FALSE,,,,,,,,,,,,,,,,,,,,,,,,,,,,,,
,5f03f4271eb1e561e89abd87,001,2022-04-28_18h27.52.799,classification_task,2021.2.3,Win32,49.85044865,5f03f4271eb1e561e89abd87,626b377229c10585ec392f8a,626b3c237b0808b54565652e,,,,,,,,,,,,,,,,,,,,,,,a,0,7.664,"[""0.052"",""0.253"",""0.626"",""0.685""]","[1,1,1,0]",0,25,25,25,1,1,0,,,0,FALSE,,,,,,,,,,,,,,,,,,,,,,,,,,,,,,
,5f03f4271eb1e561e89abd87,001,2022-04-28_18h27.52.799,classification_task,2021.2.3,Win32,49.85044865,5f03f4271eb1e561e89abd87,626b377229c10585ec392f8a,626b3c237b0808b54565652e,,,,,,,,,,,,,,,,,,,,,,,a,1,4.223,"[""0.171"",""0.665"",""0.574"",""0.876""]","[1,0,1,1]",0,26,26,26,1,0,0,,,0,FALSE,,,,,,,,,,,,,,,,,,,,,,,,,,,,,,
,5f03f4271eb1e561e89abd87,001,2022-04-28_18h27.52.799,classification_task,2021.2.3,Win32,49.85044865,5f03f4271eb1e561e89abd87,626b377229c10585ec392f8a,626b3c237b0808b54565652e,,,,,,,,,,,,,,,,,,,,,,,a,1,7.472,"[""0.210"",""0.440"",""0.738"",""0.965""]","[1,1,0,1]",0,27,27,27,1,0,1,,,0,FALSE,,,,,,,,,,,,,,,,,,,,,,,,,,,,,,
,5f03f4271eb1e561e89abd87,001,2022-04-28_18h27.52.799,classification_task,2021.2.3,Win32,49.85044865,5f03f4271eb1e561e89abd87,626b377229c10585ec392f8a,626b3c237b0808b54565652e,,,,,,,,,,,,,,,,,,,,,,,a,1,4.227,"[""0.687"",""0.440"",""0.918"",""0.965""]","[0,1,1,1]",0,28,28,28,1,0,1,,,0,FALSE,,,,,,,,,,,,,,,,,,,,,,,,,,,,,,
,5f03f4271eb1e561e89abd87,001,2022-04-28_18h27.52.799,classification_task,2021.2.3,Win32,49.85044865,5f03f4271eb1e561e89abd87,626b377229c10585ec392f8a,626b3c237b0808b54565652e,,,,,,,,,,,,,,,,,,,,,,,a,1,3.728,"[""0.171"",""0.522"",""0.292"",""0.876""]","[1,1,0,1]",0,29,29,29,1,0,0,,,0,FALSE,,,,,,,,,,,,,,,,,,,,,,,,,,,,,,
,5f03f4271eb1e561e89abd87,001,2022-04-28_18h27.52.799,classification_task,2021.2.3,Win32,49.85044865,5f03f4271eb1e561e89abd87,626b377229c10585ec392f8a,626b3c237b0808b54565652e,,,,,,,,,,,,,,,,,,,,,,,l,1,3.882,"[""0.052"",""0.253"",""0.316"",""0.799""]","[1,1,0,1]",0,30,30,30,1,1,0,,,0,FALSE,,,,,,,,,,,,,,,,,,,,,,,,,,,,,,
,5f03f4271eb1e561e89abd87,001,2022-04-28_18h27.52.799,classification_task,2021.2.3,Win32,49.85044865,5f03f4271eb1e561e89abd87,626b377229c10585ec392f8a,626b3c237b0808b54565652e,,,,,,,,,,,,,,,,,,,,,,,a,1,7.376,"[""0.210"",""0.440"",""0.918"",""0.742""]","[1,1,1,0]",0,31,31,31,1,0,1,,,0,FALSE,,,,,,,,,,,,,,,,,,,,,,,,,,,,,,
,5f03f4271eb1e561e89abd87,001,2022-04-28_18h27.52.799,classification_task,2021.2.3,Win32,49.85044865,5f03f4271eb1e561e89abd87,626b377229c10585ec392f8a,626b3c237b0808b54565652e,,,,,,,,,,,,,,,,,,,,,,,a,1,6.061,"[""0.171"",""0.522"",""0.574"",""0.682""]","[1,1,1,0]",0,32,32,32,1,0,0,,,0,FALSE,,,,,,,,,,,,,,,,,,,,,,,,,,,,,,
,5f03f4271eb1e561e89abd87,001,2022-04-28_18h27.52.799,classification_task,2021.2.3,Win32,49.85044865,5f03f4271eb1e561e89abd87,626b377229c10585ec392f8a,626b3c237b0808b54565652e,,,,,,,,,,,,,,,,,,,,,,,l,0,3.803,"[""0.210"",""0.440"",""0.292"",""0.965""]","[1,1,0,1]",0,33,33,33,1,0,1,,,0,FALSE,,,,,,,,,,,,,,,,,,,,,,,,,,,,,,
,5f03f4271eb1e561e89abd87,001,2022-04-28_18h27.52.799,classification_task,2021.2.3,Win32,49.85044865,5f03f4271eb1e561e89abd87,626b377229c10585ec392f8a,626b3c237b0808b54565652e,,,,,,,,,,,,,,,,,,,,,,,a,0,2.295,"[""0.052"",""0.288"",""0.626"",""0.799""]","[1,0,1,1]",0,34,34,34,1,1,0,,,0,FALSE,,,,,,,,,,,,,,,,,,,,,,,,,,,,,,
,5f03f4271eb1e561e89abd87,001,2022-04-28_18h27.52.799,classification_task,2021.2.3,Win32,49.85044865,5f03f4271eb1e561e89abd87,626b377229c10585ec392f8a,626b3c237b0808b54565652e,,,,,,,,,,,,,,,,,,,,,,,a,1,4.307,"[""0.171"",""0.522"",""0.727"",""0.876""]","[1,1,0,1]",0,35,35,35,1,0,0,,,0,FALSE,,,,,,,,,,,,,,,,,,,,,,,,,,,,,,
,5f03f4271eb1e561e89abd87,001,2022-04-28_18h27.52.799,classification_task,2021.2.3,Win32,49.85044865,5f03f4271eb1e561e89abd87,626b377229c10585ec392f8a,626b3c237b0808b54565652e,,,,,,,,,,,,,,,,,,,,,,,l,1,5.573,"[""0.052"",""0.253"",""0.626"",""0.742""]","[1,1,1,0]",0,36,36,36,1,1,0,,,0,FALSE,,,,,,,,,,,,,,,,,,,,,,,,,,,,,,
,5f03f4271eb1e561e89abd87,001,2022-04-28_18h27.52.799,classification_task,2021.2.3,Win32,49.85044865,5f03f4271eb1e561e89abd87,626b377229c10585ec392f8a,626b3c237b0808b54565652e,,,,,,,,,,,,,,,,,,,,,,,a,1,4.947,"[""0.210"",""0.440"",""0.918"",""0.320""]","[1,1,1,0]",0,37,37,37,1,0,1,,,0,FALSE,,,,,,,,,,,,,,,,,,,,,,,,,,,,,,
,5f03f4271eb1e561e89abd87,001,2022-04-28_18h27.52.799,classification_task,2021.2.3,Win32,49.85044865,5f03f4271eb1e561e89abd87,626b377229c10585ec392f8a,626b3c237b0808b54565652e,,,,,,,,,,,,,,,,,,,,,,,a,0,4.016,"[""0.118"",""0.375"",""0.477"",""0.679""]","[1,1,1,0]",0,38,38,38,1,1,1,,,0,FALSE,,,,,,,,,,,,,,,,,,,,,,,,,,,,,,
,5f03f4271eb1e561e89abd87,001,2022-04-28_18h27.52.799,classification_task,2021.2.3,Win32,49.85044865,5f03f4271eb1e561e89abd87,626b377229c10585ec392f8a,626b3c237b0808b54565652e,,,,,,,,,,,,,,,,,,,,,,,l,0,3.412,"[""0.680"",""0.522"",""0.574"",""0.876""]","[0,1,1,1]",0,39,39,39,1,0,0,,,0,FALSE,,,,,,,,,,,,,,,,,,,,,,,,,,,,,,
,5f03f4271eb1e561e89abd87,001,2022-04-28_18h27.52.799,classification_task,2021.2.3,Win32,49.85044865,5f03f4271eb1e561e89abd87,626b377229c10585ec392f8a,626b3c237b0808b54565652e,,,,,,,,,,,,,,,,,,,,,,,l,1,1.79,"[""0.118"",""0.375"",""0.677"",""0.841""]","[1,1,0,1]",0,40,40,40,1,1,1,,,0,FALSE,,,,,,,,,,,,,,,,,,,,,,,,,,,,,,
,5f03f4271eb1e561e89abd87,001,2022-04-28_18h27.52.799,classification_task,2021.2.3,Win32,49.85044865,5f03f4271eb1e561e89abd87,626b377229c10585ec392f8a,626b3c237b0808b54565652e,,,,,,,,,,,,,,,,,,,,,,,a,0,3.059,"[""0.052"",""0.253"",""0.737"",""0.799""]","[1,1,0,1]",0,41,41,41,1,1,0,,,0,FALSE,,,,,,,,,,,,,,,,,,,,,,,,,,,,,,
,5f03f4271eb1e561e89abd87,001,2022-04-28_18h27.52.799,classification_task,2021.2.3,Win32,49.85044865,5f03f4271eb1e561e89abd87,626b377229c10585ec392f8a,626b3c237b0808b54565652e,,,,,,,,,,,,,,,,,,,,,,,l,0,2.719,"[""0.687"",""0.440"",""0.918"",""0.965""]","[0,1,1,1]",0,42,42,42,1,0,1,,,0,FALSE,,,,,,,,,,,,,,,,,,,,,,,,,,,,,,
,5f03f4271eb1e561e89abd87,001,2022-04-28_18h27.52.799,classification_task,2021.2.3,Win32,49.85044865,5f03f4271eb1e561e89abd87,626b377229c10585ec392f8a,626b3c237b0808b54565652e,,,,,,,,,,,,,,,,,,,,,,,a,1,4.049,"[""0.171"",""0.320"",""0.574"",""0.876""]","[1,0,1,1]",0,43,43,43,1,0,0,,,0,FALSE,,,,,,,,,,,,,,,,,,,,,,,,,,,,,,
,5f03f4271eb1e561e89abd87,001,2022-04-28_18h27.52.799,classification_task,2021.2.3,Win32,49.85044865,5f03f4271eb1e561e89abd87,626b377229c10585ec392f8a,626b3c237b0808b54565652e,,,,,,,,,,,,,,,,,,,,,,,l,1,1.91,"[""0.320"",""0.253"",""0.626"",""0.799""]","[0,1,1,1]",0,44,44,44,1,1,0,,,0,FALSE,,,,,,,,,,,,,,,,,,,,,,,,,,,,,,
,5f03f4271eb1e561e89abd87,001,2022-04-28_18h27.52.799,classification_task,2021.2.3,Win32,49.85044865,5f03f4271eb1e561e89abd87,626b377229c10585ec392f8a,626b3c237b0808b54565652e,,,,,,,,,,,,,,,,,,,,,,,a,0,2.837,"[""0.118"",""0.341"",""0.477"",""0.841""]","[1,0,1,1]",0,45,45,45,1,1,1,,,0,FALSE,,,,,,,,,,,,,,,,,,,,,,,,,,,,,,
,5f03f4271eb1e561e89abd87,001,2022-04-28_18h27.52.799,classification_task,2021.2.3,Win32,49.85044865,5f03f4271eb1e561e89abd87,626b377229c10585ec392f8a,626b3c237b0808b54565652e,,,,,,,,,,,,,,,,,,,,,,,a,1,2.437,"[""0.210"",""0.341"",""0.918"",""0.965""]","[1,0,1,1]",0,46,46,46,1,0,1,,,0,FALSE,,,,,,,,,,,,,,,,,,,,,,,,,,,,,,
,5f03f4271eb1e561e89abd87,001,2022-04-28_18h27.52.799,classification_task,2021.2.3,Win32,49.85044865,5f03f4271eb1e561e89abd87,626b377229c10585ec392f8a,626b3c237b0808b54565652e,,,,,,,,,,,,,,,,,,,,,,,a,0,2.475,"[""0.682"",""0.375"",""0.477"",""0.841""]","[0,1,1,1]",0,47,47,47,1,1,1,,,0,FALSE,,,,,,,,,,,,,,,,,,,,,,,,,,,,,,
,5f03f4271eb1e561e89abd87,001,2022-04-28_18h27.52.799,classification_task,2021.2.3,Win32,49.85044865,5f03f4271eb1e561e89abd87,626b377229c10585ec392f8a,626b3c237b0808b54565652e,,,,,,,,,,,,,,,,,,,,,,,a,0,1.322,"[""0.118"",""0.375"",""0.737"",""0.841""]","[1,1,0,1]",0,48,48,48,1,1,1,,,0,FALSE,,,,,,,,,,,,,,,,,,,,,,,,,,,,,,
,5f03f4271eb1e561e89abd87,001,2022-04-28_18h27.52.799,classification_task,2021.2.3,Win32,49.85044865,5f03f4271eb1e561e89abd87,626b377229c10585ec392f8a,626b3c237b0808b54565652e,,,,,,,,,,,,,,,,,,,,,,,l,1,3.097,"[""0.052"",""0.253"",""0.316"",""0.799""]","[1,1,0,1]",0,49,49,49,1,1,0,,,0,FALSE,,,,,,,,,,,,,,,,,,,,,,,,,,,,,,
,5f03f4271eb1e561e89abd87,001,2022-04-28_18h27.52.799,classification_task,2021.2.3,Win32,49.85044865,5f03f4271eb1e561e89abd87,626b377229c10585ec392f8a,626b3c237b0808b54565652e,,,,,,,,,,,,,,,,,,,,,,,a,0,1.873,"[""0.118"",""0.679"",""0.477"",""0.841""]","[1,0,1,1]",0,50,50,50,1,1,1,,,0,FALSE,,,,,,,,,,,,,,,,,,,,,,,,,,,,,,
,5f03f4271eb1e561e89abd87,001,2022-04-28_18h27.52.799,classification_task,2021.2.3,Win32,49.85044865,5f03f4271eb1e561e89abd87,626b377229c10585ec392f8a,626b3c237b0808b54565652e,,,,,,,,,,,,,,,,,,,,,,,l,1,1.205,"[""0.118"",""0.375"",""0.477"",""0.665""]","[1,1,1,0]",0,51,51,51,1,1,1,,,0,FALSE,,,,,,,,,,,,,,,,,,,,,,,,,,,,,,
,5f03f4271eb1e561e89abd87,001,2022-04-28_18h27.52.799,classification_task,2021.2.3,Win32,49.85044865,5f03f4271eb1e561e89abd87,626b377229c10585ec392f8a,626b3c237b0808b54565652e,,,,,,,,,,,,,,,,,,,,,,,l,1,3.261,"[""0.341"",""0.375"",""0.477"",""0.841""]","[0,1,1,1]",0,52,52,52,1,1,1,,,0,FALSE,,,,,,,,,,,,,,,,,,,,,,,,,,,,,,
,5f03f4271eb1e561e89abd87,001,2022-04-28_18h27.52.799,classification_task,2021.2.3,Win32,49.85044865,5f03f4271eb1e561e89abd87,626b377229c10585ec392f8a,626b3c237b0808b54565652e,,,,,,,,,,,,,,,,,,,,,,,l,0,0.828,"[""0.210"",""0.320"",""0.918"",""0.965""]","[1,0,1,1]",0,53,53,53,1,0,1,,,0,FALSE,,,,,,,,,,,,,,,,,,,,,,,,,,,,,,
,5f03f4271eb1e561e89abd87,001,2022-04-28_18h27.52.799,classification_task,2021.2.3,Win32,49.85044865,5f03f4271eb1e561e89abd87,626b377229c10585ec392f8a,626b3c237b0808b54565652e,,,,,,,,,,,,,,,,,,,,,,,a,1,1.7,"[""0.171"",""0.522"",""0.687"",""0.876""]","[1,1,0,1]",0,54,54,54,1,0,0,,,0,FALSE,,,,,,,,,,,,,,,,,,,,,,,,,,,,,,
,5f03f4271eb1e561e89abd87,001,2022-04-28_18h27.52.799,classification_task,2021.2.3,Win32,49.85044865,5f03f4271eb1e561e89abd87,626b377229c10585ec392f8a,626b3c237b0808b54565652e,,,,,,,,,,,,,,,,,,,,,,,l,1,3.059,"[""0.052"",""0.253"",""0.626"",""0.685""]","[1,1,1,0]",0,55,55,55,1,1,0,,,0,FALSE,,,,,,,,,,,,,,,,,,,,,,,,,,,,,,
,5f03f4271eb1e561e89abd87,001,2022-04-28_18h27.52.799,classification_task,2021.2.3,Win32,49.85044865,5f03f4271eb1e561e89abd87,626b377229c10585ec392f8a,626b3c237b0808b54565652e,,,,,,,,,,,,,,,,,,,,,,,l,0,3.179,"[""0.665"",""0.440"",""0.918"",""0.965""]","[0,1,1,1]",0,56,56,56,1,0,1,,,0,FALSE,,,,,,,,,,,,,,,,,,,,,,,,,,,,,,
,5f03f4271eb1e561e89abd87,001,2022-04-28_18h27.52.799,classification_task,2021.2.3,Win32,49.85044865,5f03f4271eb1e561e89abd87,626b377229c10585ec392f8a,626b3c237b0808b54565652e,,,,,,,,,,,,,,,,,,,,,,,a,1,7.085,"[""0.685"",""0.522"",""0.574"",""0.876""]","[0,1,1,1]",0,57,57,57,1,0,0,,,0,FALSE,,,,,,,,,,,,,,,,,,,,,,,,,,,,,,
,5f03f4271eb1e561e89abd87,001,2022-04-28_18h27.52.799,classification_task,2021.2.3,Win32,49.85044865,5f03f4271eb1e561e89abd87,626b377229c10585ec392f8a,626b3c237b0808b54565652e,,,,,,,,,,,,,,,,,,,,,,,l,0,4.168,"[""0.210"",""0.440"",""0.680"",""0.965""]","[1,1,0,1]",0,58,58,58,1,0,1,,,0,FALSE,,,,,,,,,,,,,,,,,,,,,,,,,,,,,,
,5f03f4271eb1e561e89abd87,001,2022-04-28_18h27.52.799,classification_task,2021.2.3,Win32,49.85044865,5f03f4271eb1e561e89abd87,626b377229c10585ec392f8a,626b3c237b0808b54565652e,,,,,,,,,,,,,,,,,,,,,,,a,0,3.442,"[""0.052"",""0.288"",""0.626"",""0.799""]","[1,0,1,1]",0,59,59,59,1,1,0,,,0,FALSE,,,,,,,,,,,,,,,,,,,,,,,,,,,,,,
,5f03f4271eb1e561e89abd87,001,2022-04-28_18h27.52.799,classification_task,2021.2.3,Win32,49.85044865,5f03f4271eb1e561e89abd87,626b377229c10585ec392f8a,626b3c237b0808b54565652e,,,,,,,,,,,,,,,,,,,,,,,l,0,3.861,"[""0.210"",""0.440"",""0.918"",""0.679""]","[1,1,1,0]",0,60,60,60,1,0,1,,,0,FALSE,,,,,,,,,,,,,,,,,,,,,,,,,,,,,,
,5f03f4271eb1e561e89abd87,001,2022-04-28_18h27.52.799,classification_task,2021.2.3,Win32,49.85044865,5f03f4271eb1e561e89abd87,626b377229c10585ec392f8a,626b3c237b0808b54565652e,,,,,,,,,,,,,,,,,,,,,,,l,0,4.99,"[""0.171"",""0.682"",""0.574"",""0.876""]","[1,0,1,1]",0,61,61,61,1,0,0,,,0,FALSE,,,,,,,,,,,,,,,,,,,,,,,,,,,,,,
,5f03f4271eb1e561e89abd87,001,2022-04-28_18h27.52.799,classification_task,2021.2.3,Win32,49.85044865,5f03f4271eb1e561e89abd87,626b377229c10585ec392f8a,626b3c237b0808b54565652e,,,,,,,,,,,,,,,,,,,,,,,l,1,1.341,"[""0.738"",""0.253"",""0.626"",""0.799""]","[0,1,1,1]",0,62,62,62,1,1,0,,,0,FALSE,,,,,,,,,,,,,,,,,,,,,,,,,,,,,,
,5f03f4271eb1e561e89abd87,001,2022-04-28_18h27.52.799,classification_task,2021.2.3,Win32,49.85044865,5f03f4271eb1e561e89abd87,626b377229c10585ec392f8a,626b3c237b0808b54565652e,,,,,,,,,,,,,,,,,,,,,,,l,0,1.41,"[""0.171"",""0.522"",""0.574"",""0.677""]","[1,1,1,0]",0,63,63,63,1,0,0,,,0,FALSE,,,,,,,,,,,,,,,,,,,,,,,,,,,,,,
,5f03f4271eb1e561e89abd87,001,2022-04-28_18h27.52.799,classification_task,2021.2.3,Win32,49.85044865,5f03f4271eb1e561e89abd87,626b377229c10585ec392f8a,626b3c237b0808b54565652e,,,,,,,,,,,,,,,,,,,,,,,,,,,,,,,,,,,,,,,0, ,,0,9.592886537,1885.349,0,0,0,0,1,2,1,,,,,,,,,,,,,,,,,
,5f03f4271eb1e561e89abd87,001,2022-04-28_18h27.52.799,classification_task,2021.2.3,Win32,49.85044865,5f03f4271eb1e561e89abd87,626b377229c10585ec392f8a,626b3c237b0808b54565652e,,,,,,,,,,,,,,,,,,,,,,,,,,,,,,,,,,,,,,,1,  ,,0,10,1896.214,0,0,0,0,1,2,1,,,,,,,,,,,,,,,,,
,5f03f4271eb1e561e89abd87,001,2022-04-28_18h27.52.799,classification_task,2021.2.3,Win32,49.85044865,5f03f4271eb1e561e89abd87,626b377229c10585ec392f8a,626b3c237b0808b54565652e,,,,,,,,,,,,,,,,,,,,,,,,,,,,,,,,,,,,,,,2,  ,,0,6.775916128,1897.096,0,0,0,0,1,2,1,,,,,,,,,,,,,,,,,
,5f03f4271eb1e561e89abd87,001,2022-04-28_18h27.52.799,classification_task,2021.2.3,Win32,49.85044865,5f03f4271eb1e561e89abd87,626b377229c10585ec392f8a,626b3c237b0808b54565652e,,,,,,,,,,,,,,,,,,,,,,,,,,,,,,,,,,,,,,,,,,,,,0,0,0,0,1,,1,,,,,,,,,,,,,,,,,
,5f03f4271eb1e561e89abd87,001,2022-04-28_18h27.52.799,classification_task,2021.2.3,Win32,49.85044865,5f03f4271eb1e561e89abd87,626b377229c10585ec392f8a,626b3c237b0808b54565652e,,,,,,,,,,,,,,,,,,,,,space,72.825,a,0,8.052,"[""0.118"",""0.375"",""0.477"",""0.685""]","[1,1,1,0]",0,0,0,0,1,1,1,,,0,FALSE,,,,,,,,,,,,,,,,,,,,,,,,,,,,,,
,5f03f4271eb1e561e89abd87,001,2022-04-28_18h27.52.799,classification_task,2021.2.3,Win32,49.85044865,5f03f4271eb1e561e89abd87,626b377229c10585ec392f8a,626b3c237b0808b54565652e,,,,,,,,,,,,,,,,,,,,,,,a,1,5.472,"[""0.171"",""0.522"",""0.574"",""0.680""]","[1,1,1,0]",0,1,1,1,1,0,0,,,0,FALSE,,,,,,,,,,,,,,,,,,,,,,,,,,,,,,
,5f03f4271eb1e561e89abd87,001,2022-04-28_18h27.52.799,classification_task,2021.2.3,Win32,49.85044865,5f03f4271eb1e561e89abd87,626b377229c10585ec392f8a,626b3c237b0808b54565652e,,,,,,,,,,,,,,,,,,,,,,,l,1,2.676,"[""0.052"",""0.680"",""0.626"",""0.799""]","[1,0,1,1]",0,2,2,2,1,1,0,,,0,FALSE,,,,,,,,,,,,,,,,,,,,,,,,,,,,,,
,5f03f4271eb1e561e89abd87,001,2022-04-28_18h27.52.799,classification_task,2021.2.3,Win32,49.85044865,5f03f4271eb1e561e89abd87,626b377229c10585ec392f8a,626b3c237b0808b54565652e,,,,,,,,,,,,,,,,,,,,,,,l,0,1.936,"[""0.737"",""0.440"",""0.918"",""0.965""]","[0,1,1,1]",0,3,3,3,1,0,1,,,0,FALSE,,,,,,,,,,,,,,,,,,,,,,,,,,,,,,
,5f03f4271eb1e561e89abd87,001,2022-04-28_18h27.52.799,classification_task,2021.2.3,Win32,49.85044865,5f03f4271eb1e561e89abd87,626b377229c10585ec392f8a,626b3c237b0808b54565652e,,,,,,,,,,,,,,,,,,,,,,,l,1,0.799,"[""0.052"",""0.253"",""0.682"",""0.799""]","[1,1,0,1]",0,4,4,4,1,1,0,,,0,FALSE,,,,,,,,,,,,,,,,,,,,,,,,,,,,,,
,5f03f4271eb1e561e89abd87,001,2022-04-28_18h27.52.799,classification_task,2021.2.3,Win32,49.85044865,5f03f4271eb1e561e89abd87,626b377229c10585ec392f8a,626b3c237b0808b54565652e,,,,,,,,,,,,,,,,,,,,,,,l,1,0.644,"[""0.677"",""0.253"",""0.626"",""0.799""]","[0,1,1,1]",0,5,5,5,1,1,0,,,0,FALSE,,,,,,,,,,,,,,,,,,,,,,,,,,,,,,
,5f03f4271eb1e561e89abd87,001,2022-04-28_18h27.52.799,classification_task,2021.2.3,Win32,49.85044865,5f03f4271eb1e561e89abd87,626b377229c10585ec392f8a,626b3c237b0808b54565652e,,,,,,,,,,,,,,,,,,,,,,,a,1,1.639,"[""0.210"",""0.440"",""0.918"",""0.320""]","[1,1,1,0]",0,6,6,6,1,0,1,,,0,FALSE,,,,,,,,,,,,,,,,,,,,,,,,,,,,,,
,5f03f4271eb1e561e89abd87,001,2022-04-28_18h27.52.799,classification_task,2021.2.3,Win32,49.85044865,5f03f4271eb1e561e89abd87,626b377229c10585ec392f8a,626b3c237b0808b54565652e,,,,,,,,,,,,,,,,,,,,,,,l,1,1.921,"[""0.052"",""0.253"",""0.626"",""0.288""]","[1,1,1,0]",0,7,7,7,1,1,0,,,0,FALSE,,,,,,,,,,,,,,,,,,,,,,,,,,,,,,
,5f03f4271eb1e561e89abd87,001,2022-04-28_18h27.52.799,classification_task,2021.2.3,Win32,49.85044865,5f03f4271eb1e561e89abd87,626b377229c10585ec392f8a,626b3c237b0808b54565652e,,,,,,,,,,,,,,,,,,,,,,,a,0,1.962,"[""0.118"",""0.737"",""0.477"",""0.841""]","[1,0,1,1]",0,8,8,8,1,1,1,,,0,FALSE,,,,,,,,,,,,,,,,,,,,,,,,,,,,,,
,5f03f4271eb1e561e89abd87,001,2022-04-28_18h27.52.799,classification_task,2021.2.3,Win32,49.85044865,5f03f4271eb1e561e89abd87,626b377229c10585ec392f8a,626b3c237b0808b54565652e,,,,,,,,,,,,,,,,,,,,,,,a,1,0.858,"[""0.288"",""0.522"",""0.574"",""0.876""]","[0,1,1,1]",0,9,9,9,1,0,0,,,0,FALSE,,,,,,,,,,,,,,,,,,,,,,,,,,,,,,
,5f03f4271eb1e561e89abd87,001,2022-04-28_18h27.52.799,classification_task,2021.2.3,Win32,49.85044865,5f03f4271eb1e561e89abd87,626b377229c10585ec392f8a,626b3c237b0808b54565652e,,,,,,,,,,,,,,,,,,,,,,,l,0,1.358,"[""0.210"",""0.665"",""0.918"",""0.965""]","[1,0,1,1]",0,10,10,10,1,0,1,,,0,FALSE,,,,,,,,,,,,,,,,,,,,,,,,,,,,,,
,5f03f4271eb1e561e89abd87,001,2022-04-28_18h27.52.799,classification_task,2021.2.3,Win32,49.85044865,5f03f4271eb1e561e89abd87,626b377229c10585ec392f8a,626b3c237b0808b54565652e,,,,,,,,,,,,,,,,,,,,,,,a,1,0.838,"[""0.171"",""0.680"",""0.574"",""0.876""]","[1,0,1,1]",0,11,11,11,1,0,0,,,0,FALSE,,,,,,,,,,,,,,,,,,,,,,,,,,,,,,
,5f03f4271eb1e561e89abd87,001,2022-04-28_18h27.52.799,classification_task,2021.2.3,Win32,49.85044865,5f03f4271eb1e561e89abd87,626b377229c10585ec392f8a,626b3c237b0808b54565652e,,,,,,,,,,,,,,,,,,,,,,,a,1,1.232,"[""0.210"",""0.440"",""0.292"",""0.965""]","[1,1,0,1]",0,12,12,12,1,0,1,,,0,FALSE,,,,,,,,,,,,,,,,,,,,,,,,,,,,,,
,5f03f4271eb1e561e89abd87,001,2022-04-28_18h27.52.799,classification_task,2021.2.3,Win32,49.85044865,5f03f4271eb1e561e89abd87,626b377229c10585ec392f8a,626b3c237b0808b54565652e,,,,,,,,,,,,,,,,,,,,,,,a,0,0.754,"[""0.320"",""0.375"",""0.477"",""0.841""]","[0,1,1,1]",0,13,13,13,1,1,1,,,0,FALSE,,,,,,,,,,,,,,,,,,,,,,,,,,,,,,
,5f03f4271eb1e561e89abd87,001,2022-04-28_18h27.52.799,classification_task,2021.2.3,Win32,49.85044865,5f03f4271eb1e561e89abd87,626b377229c10585ec392f8a,626b3c237b0808b54565652e,,,,,,,,,,,,,,,,,,,,,,,a,1,2.308,"[""0.171"",""0.522"",""0.680"",""0.876""]","[1,1,0,1]",0,14,14,14,1,0,0,,,0,FALSE,,,,,,,,,,,,,,,,,,,,,,,,,,,,,,
,5f03f4271eb1e561e89abd87,001,2022-04-28_18h27.52.799,classification_task,2021.2.3,Win32,49.85044865,5f03f4271eb1e561e89abd87,626b377229c10585ec392f8a,626b3c237b0808b54565652e,,,,,,,,,,,,,,,,,,,,,,,a,0,1.701,"[""0.118"",""0.375"",""0.316"",""0.841""]","[1,1,0,1]",0,15,15,15,1,1,1,,,0,FALSE,,,,,,,,,,,,,,,,,,,,,,,,,,,,,,
,5f03f4271eb1e561e89abd87,001,2022-04-28_18h27.52.799,classification_task,2021.2.3,Win32,49.85044865,5f03f4271eb1e561e89abd87,626b377229c10585ec392f8a,626b3c237b0808b54565652e,,,,,,,,,,,,,,,,,,,,,,,a,1,0.892,"[""0.171"",""0.320"",""0.574"",""0.876""]","[1,0,1,1]",0,16,16,16,1,0,0,,,0,FALSE,,,,,,,,,,,,,,,,,,,,,,,,,,,,,,
,5f03f4271eb1e561e89abd87,001,2022-04-28_18h27.52.799,classification_task,2021.2.3,Win32,49.85044865,5f03f4271eb1e561e89abd87,626b377229c10585ec392f8a,626b3c237b0808b54565652e,,,,,,,,,,,,,,,,,,,,,,,a,0,1.603,"[""0.118"",""0.375"",""0.316"",""0.841""]","[1,1,0,1]",0,17,17,17,1,1,1,,,0,FALSE,,,,,,,,,,,,,,,,,,,,,,,,,,,,,,
,5f03f4271eb1e561e89abd87,001,2022-04-28_18h27.52.799,classification_task,2021.2.3,Win32,49.85044865,5f03f4271eb1e561e89abd87,626b377229c10585ec392f8a,626b3c237b0808b54565652e,,,,,,,,,,,,,,,,,,,,,,,l,1,0.679,"[""0.052"",""0.253"",""0.626"",""0.737""]","[1,1,1,0]",0,18,18,18,1,1,0,,,0,FALSE,,,,,,,,,,,,,,,,,,,,,,,,,,,,,,
,5f03f4271eb1e561e89abd87,001,2022-04-28_18h27.52.799,classification_task,2021.2.3,Win32,49.85044865,5f03f4271eb1e561e89abd87,626b377229c10585ec392f8a,626b3c237b0808b54565652e,,,,,,,,,,,,,,,,,,,,,,,l,1,0.583,"[""0.052"",""0.680"",""0.626"",""0.799""]","[1,0,1,1]",0,19,19,19,1,1,0,,,0,FALSE,,,,,,,,,,,,,,,,,,,,,,,,,,,,,,
,5f03f4271eb1e561e89abd87,001,2022-04-28_18h27.52.799,classification_task,2021.2.3,Win32,49.85044865,5f03f4271eb1e561e89abd87,626b377229c10585ec392f8a,626b3c237b0808b54565652e,,,,,,,,,,,,,,,,,,,,,,,l,0,1.619,"[""0.292"",""0.440"",""0.918"",""0.965""]","[0,1,1,1]",0,20,20,20,1,0,1,,,0,FALSE,,,,,,,,,,,,,,,,,,,,,,,,,,,,,,
,5f03f4271eb1e561e89abd87,001,2022-04-28_18h27.52.799,classification_task,2021.2.3,Win32,49.85044865,5f03f4271eb1e561e89abd87,626b377229c10585ec392f8a,626b3c237b0808b54565652e,,,,,,,,,,,,,,,,,,,,,,,a,0,1.41,"[""0.118"",""0.316"",""0.477"",""0.841""]","[1,0,1,1]",0,21,21,21,1,1,1,,,0,FALSE,,,,,,,,,,,,,,,,,,,,,,,,,,,,,,
,5f03f4271eb1e561e89abd87,001,2022-04-28_18h27.52.799,classification_task,2021.2.3,Win32,49.85044865,5f03f4271eb1e561e89abd87,626b377229c10585ec392f8a,626b3c237b0808b54565652e,,,,,,,,,,,,,,,,,,,,,,,l,1,0.716,"[""0.052"",""0.253"",""0.727"",""0.799""]","[1,1,0,1]",0,22,22,22,1,1,0,,,0,FALSE,,,,,,,,,,,,,,,,,,,,,,,,,,,,,,
,5f03f4271eb1e561e89abd87,001,2022-04-28_18h27.52.799,classification_task,2021.2.3,Win32,49.85044865,5f03f4271eb1e561e89abd87,626b377229c10585ec392f8a,626b3c237b0808b54565652e,,,,,,,,,,,,,,,,,,,,,,,l,1,1.503,"[""0.118"",""0.375"",""0.477"",""0.341""]","[1,1,1,0]",0,23,23,23,1,1,1,,,0,FALSE,,,,,,,,,,,,,,,,,,,,,,,,,,,,,,
,5f03f4271eb1e561e89abd87,001,2022-04-28_18h27.52.799,classification_task,2021.2.3,Win32,49.85044865,5f03f4271eb1e561e89abd87,626b377229c10585ec392f8a,626b3c237b0808b54565652e,,,,,,,,,,,,,,,,,,,,,,,l,1,1.502,"[""0.665"",""0.253"",""0.626"",""0.799""]","[0,1,1,1]",0,24,24,24,1,1,0,,,0,FALSE,,,,,,,,,,,,,,,,,,,,,,,,,,,,,,
,5f03f4271eb1e561e89abd87,001,2022-04-28_18h27.52.799,classification_task,2021.2.3,Win32,49.85044865,5f03f4271eb1e561e89abd87,626b377229c10585ec392f8a,626b3c237b0808b54565652e,,,,,,,,,,,,,,,,,,,,,,,a,0,1.903,"[""0.727"",""0.375"",""0.477"",""0.841""]","[0,1,1,1]",0,25,25,25,1,1,1,,,0,FALSE,,,,,,,,,,,,,,,,,,,,,,,,,,,,,,
,5f03f4271eb1e561e89abd87,001,2022-04-28_18h27.52.799,classification_task,2021.2.3,Win32,49.85044865,5f03f4271eb1e561e89abd87,626b377229c10585ec392f8a,626b3c237b0808b54565652e,,,,,,,,,,,,,,,,,,,,,,,a,1,0.747,"[""0.171"",""0.522"",""0.574"",""0.679""]","[1,1,1,0]",0,26,26,26,1,0,0,,,0,FALSE,,,,,,,,,,,,,,,,,,,,,,,,,,,,,,
,5f03f4271eb1e561e89abd87,001,2022-04-28_18h27.52.799,classification_task,2021.2.3,Win32,49.85044865,5f03f4271eb1e561e89abd87,626b377229c10585ec392f8a,626b3c237b0808b54565652e,,,,,,,,,,,,,,,,,,,,,,,a,1,1.677,"[""0.210"",""0.665"",""0.918"",""0.965""]","[1,0,1,1]",0,27,27,27,1,0,1,,,0,FALSE,,,,,,,,,,,,,,,,,,,,,,,,,,,,,,
,5f03f4271eb1e561e89abd87,001,2022-04-28_18h27.52.799,classification_task,2021.2.3,Win32,49.85044865,5f03f4271eb1e561e89abd87,626b377229c10585ec392f8a,626b3c237b0808b54565652e,,,,,,,,,,,,,,,,,,,,,,,a,1,2.965,"[""0.171"",""0.522"",""0.682"",""0.876""]","[1,1,0,1]",0,28,28,28,1,0,0,,,0,FALSE,,,,,,,,,,,,,,,,,,,,,,,,,,,,,,
,5f03f4271eb1e561e89abd87,001,2022-04-28_18h27.52.799,classification_task,2021.2.3,Win32,49.85044865,5f03f4271eb1e561e89abd87,626b377229c10585ec392f8a,626b3c237b0808b54565652e,,,,,,,,,,,,,,,,,,,,,,,a,1,0.692,"[""0.680"",""0.522"",""0.574"",""0.876""]","[0,1,1,1]",0,29,29,29,1,0,0,,,0,FALSE,,,,,,,,,,,,,,,,,,,,,,,,,,,,,,
,5f03f4271eb1e561e89abd87,001,2022-04-28_18h27.52.799,classification_task,2021.2.3,Win32,49.85044865,5f03f4271eb1e561e89abd87,626b377229c10585ec392f8a,626b3c237b0808b54565652e,,,,,,,,,,,,,,,,,,,,,,,a,1,2.085,"[""0.210"",""0.440"",""0.918"",""0.677""]","[1,1,1,0]",0,30,30,30,1,0,1,,,0,FALSE,,,,,,,,,,,,,,,,,,,,,,,,,,,,,,
,5f03f4271eb1e561e89abd87,001,2022-04-28_18h27.52.799,classification_task,2021.2.3,Win32,49.85044865,5f03f4271eb1e561e89abd87,626b377229c10585ec392f8a,626b3c237b0808b54565652e,,,,,,,,,,,,,,,,,,,,,,,a,1,1.228,"[""0.210"",""0.440"",""0.341"",""0.965""]","[1,1,0,1]",0,31,31,31,1,0,1,,,0,FALSE,,,,,,,,,,,,,,,,,,,,,,,,,,,,,,
,5f03f4271eb1e561e89abd87,001,2022-04-28_18h27.52.799,classification_task,2021.2.3,Win32,49.85044865,5f03f4271eb1e561e89abd87,626b377229c10585ec392f8a,626b3c237b0808b54565652e,,,,,,,,,,,,,,,,,,,,,,,a,1,1.406,"[""0.210"",""0.288"",""0.918"",""0.965""]","[1,0,1,1]",0,32,32,32,1,0,1,,,0,FALSE,,,,,,,,,,,,,,,,,,,,,,,,,,,,,,
,5f03f4271eb1e561e89abd87,001,2022-04-28_18h27.52.799,classification_task,2021.2.3,Win32,49.85044865,5f03f4271eb1e561e89abd87,626b377229c10585ec392f8a,626b3c237b0808b54565652e,,,,,,,,,,,,,,,,,,,,,,,l,1,1.517,"[""0.052"",""0.253"",""0.679"",""0.799""]","[1,1,0,1]",0,33,33,33,1,1,0,,,0,FALSE,,,,,,,,,,,,,,,,,,,,,,,,,,,,,,
,5f03f4271eb1e561e89abd87,001,2022-04-28_18h27.52.799,classification_task,2021.2.3,Win32,49.85044865,5f03f4271eb1e561e89abd87,626b377229c10585ec392f8a,626b3c237b0808b54565652e,,,,,,,,,,,,,,,,,,,,,,,a,1,1.239,"[""0.727"",""0.440"",""0.918"",""0.965""]","[0,1,1,1]",0,34,34,34,1,0,1,,,0,FALSE,,,,,,,,,,,,,,,,,,,,,,,,,,,,,,
,5f03f4271eb1e561e89abd87,001,2022-04-28_18h27.52.799,classification_task,2021.2.3,Win32,49.85044865,5f03f4271eb1e561e89abd87,626b377229c10585ec392f8a,626b3c237b0808b54565652e,,,,,,,,,,,,,,,,,,,,,,,a,0,1.285,"[""0.118"",""0.375"",""0.316"",""0.841""]","[1,1,0,1]",0,35,35,35,1,1,1,,,0,FALSE,,,,,,,,,,,,,,,,,,,,,,,,,,,,,,
,5f03f4271eb1e561e89abd87,001,2022-04-28_18h27.52.799,classification_task,2021.2.3,Win32,49.85044865,5f03f4271eb1e561e89abd87,626b377229c10585ec392f8a,626b3c237b0808b54565652e,,,,,,,,,,,,,,,,,,,,,,,a,1,0.999,"[""0.171"",""0.522"",""0.738"",""0.876""]","[1,1,0,1]",0,36,36,36,1,0,0,,,0,FALSE,,,,,,,,,,,,,,,,,,,,,,,,,,,,,,
,5f03f4271eb1e561e89abd87,001,2022-04-28_18h27.52.799,classification_task,2021.2.3,Win32,49.85044865,5f03f4271eb1e561e89abd87,626b377229c10585ec392f8a,626b3c237b0808b54565652e,,,,,,,,,,,,,,,,,,,,,,,l,1,0.867,"[""0.052"",""0.253"",""0.626"",""0.288""]","[1,1,1,0]",0,37,37,37,1,1,0,,,0,FALSE,,,,,,,,,,,,,,,,,,,,,,,,,,,,,,
,5f03f4271eb1e561e89abd87,001,2022-04-28_18h27.52.799,classification_task,2021.2.3,Win32,49.85044865,5f03f4271eb1e561e89abd87,626b377229c10585ec392f8a,626b3c237b0808b54565652e,,,,,,,,,,,,,,,,,,,,,,,a,1,0.723,"[""0.171"",""0.738"",""0.574"",""0.876""]","[1,0,1,1]",0,38,38,38,1,0,0,,,0,FALSE,,,,,,,,,,,,,,,,,,,,,,,,,,,,,,
,5f03f4271eb1e561e89abd87,001,2022-04-28_18h27.52.799,classification_task,2021.2.3,Win32,49.85044865,5f03f4271eb1e561e89abd87,626b377229c10585ec392f8a,626b3c237b0808b54565652e,,,,,,,,,,,,,,,,,,,,,,,a,1,0.891,"[""0.288"",""0.522"",""0.574"",""0.876""]","[0,1,1,1]",0,39,39,39,1,0,0,,,0,FALSE,,,,,,,,,,,,,,,,,,,,,,,,,,,,,,
,5f03f4271eb1e561e89abd87,001,2022-04-28_18h27.52.799,classification_task,2021.2.3,Win32,49.85044865,5f03f4271eb1e561e89abd87,626b377229c10585ec392f8a,626b3c237b0808b54565652e,,,,,,,,,,,,,,,,,,,,,,,l,0,1.855,"[""0.210"",""0.440"",""0.738"",""0.965""]","[1,1,0,1]",0,40,40,40,1,0,1,,,0,FALSE,,,,,,,,,,,,,,,,,,,,,,,,,,,,,,
,5f03f4271eb1e561e89abd87,001,2022-04-28_18h27.52.799,classification_task,2021.2.3,Win32,49.85044865,5f03f4271eb1e561e89abd87,626b377229c10585ec392f8a,626b3c237b0808b54565652e,,,,,,,,,,,,,,,,,,,,,,,l,1,0.95,"[""0.052"",""0.677"",""0.626"",""0.799""]","[1,0,1,1]",0,41,41,41,1,1,0,,,0,FALSE,,,,,,,,,,,,,,,,,,,,,,,,,,,,,,
,5f03f4271eb1e561e89abd87,001,2022-04-28_18h27.52.799,classification_task,2021.2.3,Win32,49.85044865,5f03f4271eb1e561e89abd87,626b377229c10585ec392f8a,626b3c237b0808b54565652e,,,,,,,,,,,,,,,,,,,,,,,l,1,0.558,"[""0.727"",""0.253"",""0.626"",""0.799""]","[0,1,1,1]",0,42,42,42,1,1,0,,,0,FALSE,,,,,,,,,,,,,,,,,,,,,,,,,,,,,,
,5f03f4271eb1e561e89abd87,001,2022-04-28_18h27.52.799,classification_task,2021.2.3,Win32,49.85044865,5f03f4271eb1e561e89abd87,626b377229c10585ec392f8a,626b3c237b0808b54565652e,,,,,,,,,,,,,,,,,,,,,,,a,1,0.668,"[""0.171"",""0.522"",""0.574"",""0.665""]","[1,1,1,0]",0,43,43,43,1,0,0,,,0,FALSE,,,,,,,,,,,,,,,,,,,,,,,,,,,,,,
,5f03f4271eb1e561e89abd87,001,2022-04-28_18h27.52.799,classification_task,2021.2.3,Win32,49.85044865,5f03f4271eb1e561e89abd87,626b377229c10585ec392f8a,626b3c237b0808b54565652e,,,,,,,,,,,,,,,,,,,,,,,a,0,1.802,"[""0.737"",""0.375"",""0.477"",""0.841""]","[0,1,1,1]",0,44,44,44,1,1,1,,,0,FALSE,,,,,,,,,,,,,,,,,,,,,,,,,,,,,,
,5f03f4271eb1e561e89abd87,001,2022-04-28_18h27.52.799,classification_task,2021.2.3,Win32,49.85044865,5f03f4271eb1e561e89abd87,626b377229c10585ec392f8a,626b3c237b0808b54565652e,,,,,,,,,,,,,,,,,,,,,,,a,0,1.158,"[""0.118"",""0.320"",""0.477"",""0.841""]","[1,0,1,1]",0,45,45,45,1,1,1,,,0,FALSE,,,,,,,,,,,,,,,,,,,,,,,,,,,,,,
,5f03f4271eb1e561e89abd87,001,2022-04-28_18h27.52.799,classification_task,2021.2.3,Win32,49.85044865,5f03f4271eb1e561e89abd87,626b377229c10585ec392f8a,626b3c237b0808b54565652e,,,,,,,,,,,,,,,,,,,,,,,l,1,1.087,"[""0.118"",""0.375"",""0.477"",""0.316""]","[1,1,1,0]",0,46,46,46,1,1,1,,,0,FALSE,,,,,,,,,,,,,,,,,,,,,,,,,,,,,,
,5f03f4271eb1e561e89abd87,001,2022-04-28_18h27.52.799,classification_task,2021.2.3,Win32,49.85044865,5f03f4271eb1e561e89abd87,626b377229c10585ec392f8a,626b3c237b0808b54565652e,,,,,,,,,,,,,,,,,,,,,,,l,0,2.03,"[""0.210"",""0.440"",""0.918"",""0.737""]","[1,1,1,0]",0,47,47,47,1,0,1,,,0,FALSE,,,,,,,,,,,,,,,,,,,,,,,,,,,,,,
,5f03f4271eb1e561e89abd87,001,2022-04-28_18h27.52.799,classification_task,2021.2.3,Win32,49.85044865,5f03f4271eb1e561e89abd87,626b377229c10585ec392f8a,626b3c237b0808b54565652e,,,,,,,,,,,,,,,,,,,,,,,a,0,0.969,"[""0.118"",""0.375"",""0.477"",""0.742""]","[1,1,1,0]",0,48,48,48,1,1,1,,,0,FALSE,,,,,,,,,,,,,,,,,,,,,,,,,,,,,,
,5f03f4271eb1e561e89abd87,001,2022-04-28_18h27.52.799,classification_task,2021.2.3,Win32,49.85044865,5f03f4271eb1e561e89abd87,626b377229c10585ec392f8a,626b3c237b0808b54565652e,,,,,,,,,,,,,,,,,,,,,,,a,0,1.701,"[""0.052"",""0.253"",""0.626"",""0.292""]","[1,1,1,0]",0,49,49,49,1,1,0,,,0,FALSE,,,,,,,,,,,,,,,,,,,,,,,,,,,,,,
,5f03f4271eb1e561e89abd87,001,2022-04-28_18h27.52.799,classification_task,2021.2.3,Win32,49.85044865,5f03f4271eb1e561e89abd87,626b377229c10585ec392f8a,626b3c237b0808b54565652e,,,,,,,,,,,,,,,,,,,,,,,l,0,2.045,"[""0.210"",""0.440"",""0.737"",""0.965""]","[1,1,0,1]",0,50,50,50,1,0,1,,,0,FALSE,,,,,,,,,,,,,,,,,,,,,,,,,,,,,,
,5f03f4271eb1e561e89abd87,001,2022-04-28_18h27.52.799,classification_task,2021.2.3,Win32,49.85044865,5f03f4271eb1e561e89abd87,626b377229c10585ec392f8a,626b3c237b0808b54565652e,,,,,,,,,,,,,,,,,,,,,,,a,0,1.129,"[""0.677"",""0.375"",""0.477"",""0.841""]","[0,1,1,1]",0,51,51,51,1,1,1,,,0,FALSE,,,,,,,,,,,,,,,,,,,,,,,,,,,,,,
,5f03f4271eb1e561e89abd87,001,2022-04-28_18h27.52.799,classification_task,2021.2.3,Win32,49.85044865,5f03f4271eb1e561e89abd87,626b377229c10585ec392f8a,626b3c237b0808b54565652e,,,,,,,,,,,,,,,,,,,,,,,l,1,1.159,"[""0.052"",""0.341"",""0.626"",""0.799""]","[1,0,1,1]",0,52,52,52,1,1,0,,,0,FALSE,,,,,,,,,,,,,,,,,,,,,,,,,,,,,,
,5f03f4271eb1e561e89abd87,001,2022-04-28_18h27.52.799,classification_task,2021.2.3,Win32,49.85044865,5f03f4271eb1e561e89abd87,626b377229c10585ec392f8a,626b3c237b0808b54565652e,,,,,,,,,,,,,,,,,,,,,,,a,1,1.042,"[""0.679"",""0.440"",""0.918"",""0.965""]","[0,1,1,1]",0,53,53,53,1,0,1,,,0,FALSE,,,,,,,,,,,,,,,,,,,,,,,,,,,,,,
,5f03f4271eb1e561e89abd87,001,2022-04-28_18h27.52.799,classification_task,2021.2.3,Win32,49.85044865,5f03f4271eb1e561e89abd87,626b377229c10585ec392f8a,626b3c237b0808b54565652e,,,,,,,,,,,,,,,,,,,,,,,l,1,1.42,"[""0.118"",""0.742"",""0.477"",""0.841""]","[1,0,1,1]",0,54,54,54,1,1,1,,,0,FALSE,,,,,,,,,,,,,,,,,,,,,,,,,,,,,,
,5f03f4271eb1e561e89abd87,001,2022-04-28_18h27.52.799,classification_task,2021.2.3,Win32,49.85044865,5f03f4271eb1e561e89abd87,626b377229c10585ec392f8a,626b3c237b0808b54565652e,,,,,,,,,,,,,,,,,,,,,,,l,0,1.222,"[""0.210"",""0.440"",""0.918"",""0.738""]","[1,1,1,0]",0,55,55,55,1,0,1,,,0,FALSE,,,,,,,,,,,,,,,,,,,,,,,,,,,,,,
,5f03f4271eb1e561e89abd87,001,2022-04-28_18h27.52.799,classification_task,2021.2.3,Win32,49.85044865,5f03f4271eb1e561e89abd87,626b377229c10585ec392f8a,626b3c237b0808b54565652e,,,,,,,,,,,,,,,,,,,,,,,a,1,2.254,"[""0.171"",""0.687"",""0.574"",""0.876""]","[1,0,1,1]",0,56,56,56,1,0,0,,,0,FALSE,,,,,,,,,,,,,,,,,,,,,,,,,,,,,,
,5f03f4271eb1e561e89abd87,001,2022-04-28_18h27.52.799,classification_task,2021.2.3,Win32,49.85044865,5f03f4271eb1e561e89abd87,626b377229c10585ec392f8a,626b3c237b0808b54565652e,,,,,,,,,,,,,,,,,,,,,,,a,1,1.995,"[""0.171"",""0.522"",""0.574"",""0.316""]","[1,1,1,0]",0,57,57,57,1,0,0,,,0,FALSE,,,,,,,,,,,,,,,,,,,,,,,,,,,,,,
,5f03f4271eb1e561e89abd87,001,2022-04-28_18h27.52.799,classification_task,2021.2.3,Win32,49.85044865,5f03f4271eb1e561e89abd87,626b377229c10585ec392f8a,626b3c237b0808b54565652e,,,,,,,,,,,,,,,,,,,,,,,l,0,2.452,"[""0.341"",""0.522"",""0.574"",""0.876""]","[0,1,1,1]",0,58,58,58,1,0,0,,,0,FALSE,,,,,,,,,,,,,,,,,,,,,,,,,,,,,,
,5f03f4271eb1e561e89abd87,001,2022-04-28_18h27.52.799,classification_task,2021.2.3,Win32,49.85044865,5f03f4271eb1e561e89abd87,626b377229c10585ec392f8a,626b3c237b0808b54565652e,,,,,,,,,,,,,,,,,,,,,,,l,0,2.149,"[""0.171"",""0.522"",""0.680"",""0.876""]","[1,1,0,1]",0,59,59,59,1,0,0,,,0,FALSE,,,,,,,,,,,,,,,,,,,,,,,,,,,,,,
,5f03f4271eb1e561e89abd87,001,2022-04-28_18h27.52.799,classification_task,2021.2.3,Win32,49.85044865,5f03f4271eb1e561e89abd87,626b377229c10585ec392f8a,626b3c237b0808b54565652e,,,,,,,,,,,,,,,,,,,,,,,a,1,1.316,"[""0.210"",""0.677"",""0.918"",""0.965""]","[1,0,1,1]",0,60,60,60,1,0,1,,,0,FALSE,,,,,,,,,,,,,,,,,,,,,,,,,,,,,,
,5f03f4271eb1e561e89abd87,001,2022-04-28_18h27.52.799,classification_task,2021.2.3,Win32,49.85044865,5f03f4271eb1e561e89abd87,626b377229c10585ec392f8a,626b3c237b0808b54565652e,,,,,,,,,,,,,,,,,,,,,,,a,0,2.347,"[""0.737"",""0.253"",""0.626"",""0.799""]","[0,1,1,1]",0,61,61,61,1,1,0,,,0,FALSE,,,,,,,,,,,,,,,,,,,,,,,,,,,,,,
,5f03f4271eb1e561e89abd87,001,2022-04-28_18h27.52.799,classification_task,2021.2.3,Win32,49.85044865,5f03f4271eb1e561e89abd87,626b377229c10585ec392f8a,626b3c237b0808b54565652e,,,,,,,,,,,,,,,,,,,,,,,l,1,1.589,"[""0.118"",""0.375"",""0.687"",""0.841""]","[1,1,0,1]",0,62,62,62,1,1,1,,,0,FALSE,,,,,,,,,,,,,,,,,,,,,,,,,,,,,,
,5f03f4271eb1e561e89abd87,001,2022-04-28_18h27.52.799,classification_task,2021.2.3,Win32,49.85044865,5f03f4271eb1e561e89abd87,626b377229c10585ec392f8a,626b3c237b0808b54565652e,,,,,,,,,,,,,,,,,,,,,,,l,1,4.116,"[""0.052"",""0.253"",""0.320"",""0.799""]","[1,1,0,1]",0,63,63,63,1,1,0,,,0,FALSE,,,,,,,,,,,,,,,,,,,,,,,,,,,,,,
,5f03f4271eb1e561e89abd87,001,2022-04-28_18h27.52.799,classification_task,2021.2.3,Win32,49.85044865,5f03f4271eb1e561e89abd87,626b377229c10585ec392f8a,626b3c237b0808b54565652e,,,,,,,,,,,,,,,,,,,,,,,,,,,,,,,,,,,,,,,0, ,,0,9.562267294,253.686,0,1,1,1,1,2,2,,,,,,,,,,,,,,,,,
,5f03f4271eb1e561e89abd87,001,2022-04-28_18h27.52.799,classification_task,2021.2.3,Win32,49.85044865,5f03f4271eb1e561e89abd87,626b377229c10585ec392f8a,626b3c237b0808b54565652e,,,,,,,,,,,,,,,,,,,,,,,,,,,,,,,,,,,,,,,1,  ,,0,8.490593768,300.724,0,1,1,1,1,2,2,,,,,,,,,,,,,,,,,
,5f03f4271eb1e561e89abd87,001,2022-04-28_18h27.52.799,classification_task,2021.2.3,Win32,49.85044865,5f03f4271eb1e561e89abd87,626b377229c10585ec392f8a,626b3c237b0808b54565652e,,,,,,,,,,,,,,,,,,,,,,,,,,,,,,,,,,,,,,,2,  ,,0,10,302.756,0,1,1,1,1,2,2,,,,,,,,,,,,,,,,,
,5f03f4271eb1e561e89abd87,001,2022-04-28_18h27.52.799,classification_task,2021.2.3,Win32,49.85044865,5f03f4271eb1e561e89abd87,626b377229c10585ec392f8a,626b3c237b0808b54565652e,,,,,,,,,,,,,,,,,,,,,,,,,,,,,,,,,,,,,,,,,,,,,0,1,1,1,1,,2,,,,,,,,,,,,,,,,,
,5f03f4271eb1e561e89abd87,001,2022-04-28_18h27.52.799,classification_task,2021.2.3,Win32,49.85044865,5f03f4271eb1e561e89abd87,626b377229c10585ec392f8a,626b3c237b0808b54565652e,,,,,,,,,,,,,,,,,,,,,space,95.116,a,1,2.392,"[""0.210"",""0.440"",""0.665"",""0.965""]","[1,1,0,1]",0,0,0,0,1,0,1,,,0,FALSE,,,,,,,,,,,,,,,,,,,,,,,,,,,,,,
,5f03f4271eb1e561e89abd87,001,2022-04-28_18h27.52.799,classification_task,2021.2.3,Win32,49.85044865,5f03f4271eb1e561e89abd87,626b377229c10585ec392f8a,626b3c237b0808b54565652e,,,,,,,,,,,,,,,,,,,,,,,a,1,1.866,"[""0.171"",""0.665"",""0.574"",""0.876""]","[1,0,1,1]",0,1,1,1,1,0,0,,,0,FALSE,,,,,,,,,,,,,,,,,,,,,,,,,,,,,,
,5f03f4271eb1e561e89abd87,001,2022-04-28_18h27.52.799,classification_task,2021.2.3,Win32,49.85044865,5f03f4271eb1e561e89abd87,626b377229c10585ec392f8a,626b3c237b0808b54565652e,,,,,,,,,,,,,,,,,,,,,,,a,0,1.672,"[""0.118"",""0.375"",""0.737"",""0.841""]","[1,1,0,1]",0,2,2,2,1,1,1,,,0,FALSE,,,,,,,,,,,,,,,,,,,,,,,,,,,,,,
,5f03f4271eb1e561e89abd87,001,2022-04-28_18h27.52.799,classification_task,2021.2.3,Win32,49.85044865,5f03f4271eb1e561e89abd87,626b377229c10585ec392f8a,626b3c237b0808b54565652e,,,,,,,,,,,,,,,,,,,,,,,l,0,1.218,"[""0.171"",""0.522"",""0.574"",""0.687""]","[1,1,1,0]",0,3,3,3,1,0,0,,,0,FALSE,,,,,,,,,,,,,,,,,,,,,,,,,,,,,,
,5f03f4271eb1e561e89abd87,001,2022-04-28_18h27.52.799,classification_task,2021.2.3,Win32,49.85044865,5f03f4271eb1e561e89abd87,626b377229c10585ec392f8a,626b3c237b0808b54565652e,,,,,,,,,,,,,,,,,,,,,,,l,1,1.185,"[""0.687"",""0.253"",""0.626"",""0.799""]","[0,1,1,1]",0,4,4,4,1,1,0,,,0,FALSE,,,,,,,,,,,,,,,,,,,,,,,,,,,,,,
,5f03f4271eb1e561e89abd87,001,2022-04-28_18h27.52.799,classification_task,2021.2.3,Win32,49.85044865,5f03f4271eb1e561e89abd87,626b377229c10585ec392f8a,626b3c237b0808b54565652e,,,,,,,,,,,,,,,,,,,,,,,a,0,1.448,"[""0.118"",""0.375"",""0.477"",""0.316""]","[1,1,1,0]",0,5,5,5,1,1,1,,,0,FALSE,,,,,,,,,,,,,,,,,,,,,,,,,,,,,,
,5f03f4271eb1e561e89abd87,001,2022-04-28_18h27.52.799,classification_task,2021.2.3,Win32,49.85044865,5f03f4271eb1e561e89abd87,626b377229c10585ec392f8a,626b3c237b0808b54565652e,,,,,,,,,,,,,,,,,,,,,,,l,1,2.596,"[""0.052"",""0.727"",""0.626"",""0.799""]","[1,0,1,1]",0,6,6,6,1,1,0,,,0,FALSE,,,,,,,,,,,,,,,,,,,,,,,,,,,,,,
,5f03f4271eb1e561e89abd87,001,2022-04-28_18h27.52.799,classification_task,2021.2.3,Win32,49.85044865,5f03f4271eb1e561e89abd87,626b377229c10585ec392f8a,626b3c237b0808b54565652e,,,,,,,,,,,,,,,,,,,,,,,a,1,1.087,"[""0.738"",""0.440"",""0.918"",""0.965""]","[0,1,1,1]",0,7,7,7,1,0,1,,,0,FALSE,,,,,,,,,,,,,,,,,,,,,,,,,,,,,,
,5f03f4271eb1e561e89abd87,001,2022-04-28_18h27.52.799,classification_task,2021.2.3,Win32,49.85044865,5f03f4271eb1e561e89abd87,626b377229c10585ec392f8a,626b3c237b0808b54565652e,,,,,,,,,,,,,,,,,,,,,,,l,0,2.598,"[""0.738"",""0.522"",""0.574"",""0.876""]","[0,1,1,1]",0,8,8,8,1,0,0,,,0,FALSE,,,,,,,,,,,,,,,,,,,,,,,,,,,,,,
,5f03f4271eb1e561e89abd87,001,2022-04-28_18h27.52.799,classification_task,2021.2.3,Win32,49.85044865,5f03f4271eb1e561e89abd87,626b377229c10585ec392f8a,626b3c237b0808b54565652e,,,,,,,,,,,,,,,,,,,,,,,a,0,1.673,"[""0.118"",""0.320"",""0.477"",""0.841""]","[1,0,1,1]",0,9,9,9,1,1,1,,,0,FALSE,,,,,,,,,,,,,,,,,,,,,,,,,,,,,,
,5f03f4271eb1e561e89abd87,001,2022-04-28_18h27.52.799,classification_task,2021.2.3,Win32,49.85044865,5f03f4271eb1e561e89abd87,626b377229c10585ec392f8a,626b3c237b0808b54565652e,,,,,,,,,,,,,,,,,,,,,,,l,1,5.511,"[""0.665"",""0.375"",""0.477"",""0.841""]","[0,1,1,1]",0,10,10,10,1,1,1,,,0,FALSE,,,,,,,,,,,,,,,,,,,,,,,,,,,,,,
,5f03f4271eb1e561e89abd87,001,2022-04-28_18h27.52.799,classification_task,2021.2.3,Win32,49.85044865,5f03f4271eb1e561e89abd87,626b377229c10585ec392f8a,626b3c237b0808b54565652e,,,,,,,,,,,,,,,,,,,,,,,a,0,1.568,"[""0.052"",""0.253"",""0.626"",""0.680""]","[1,1,1,0]",0,11,11,11,1,1,0,,,0,FALSE,,,,,,,,,,,,,,,,,,,,,,,,,,,,,,
,5f03f4271eb1e561e89abd87,001,2022-04-28_18h27.52.799,classification_task,2021.2.3,Win32,49.85044865,5f03f4271eb1e561e89abd87,626b377229c10585ec392f8a,626b3c237b0808b54565652e,,,,,,,,,,,,,,,,,,,,,,,a,1,2.216,"[""0.210"",""0.440"",""0.918"",""0.292""]","[1,1,1,0]",0,12,12,12,1,0,1,,,0,FALSE,,,,,,,,,,,,,,,,,,,,,,,,,,,,,,
,5f03f4271eb1e561e89abd87,001,2022-04-28_18h27.52.799,classification_task,2021.2.3,Win32,49.85044865,5f03f4271eb1e561e89abd87,626b377229c10585ec392f8a,626b3c237b0808b54565652e,,,,,,,,,,,,,,,,,,,,,,,l,0,1.467,"[""0.171"",""0.522"",""0.737"",""0.876""]","[1,1,0,1]",0,13,13,13,1,0,0,,,0,FALSE,,,,,,,,,,,,,,,,,,,,,,,,,,,,,,
,5f03f4271eb1e561e89abd87,001,2022-04-28_18h27.52.799,classification_task,2021.2.3,Win32,49.85044865,5f03f4271eb1e561e89abd87,626b377229c10585ec392f8a,626b3c237b0808b54565652e,,,,,,,,,,,,,,,,,,,,,,,a,1,1.146,"[""0.210"",""0.341"",""0.918"",""0.965""]","[1,0,1,1]",0,14,14,14,1,0,1,,,0,FALSE,,,,,,,,,,,,,,,,,,,,,,,,,,,,,,
,5f03f4271eb1e561e89abd87,001,2022-04-28_18h27.52.799,classification_task,2021.2.3,Win32,49.85044865,5f03f4271eb1e561e89abd87,626b377229c10585ec392f8a,626b3c237b0808b54565652e,,,,,,,,,,,,,,,,,,,,,,,a,0,4.788,"[""0.052"",""0.253"",""0.685"",""0.799""]","[1,1,0,1]",0,15,15,15,1,1,0,,,0,FALSE,,,,,,,,,,,,,,,,,,,,,,,,,,,,,,
,5f03f4271eb1e561e89abd87,001,2022-04-28_18h27.52.799,classification_task,2021.2.3,Win32,49.85044865,5f03f4271eb1e561e89abd87,626b377229c10585ec392f8a,626b3c237b0808b54565652e,,,,,,,,,,,,,,,,,,,,,,,l,0,3.845,"[""0.210"",""0.440"",""0.316"",""0.965""]","[1,1,0,1]",0,16,16,16,1,0,1,,,0,FALSE,,,,,,,,,,,,,,,,,,,,,,,,,,,,,,
,5f03f4271eb1e561e89abd87,001,2022-04-28_18h27.52.799,classification_task,2021.2.3,Win32,49.85044865,5f03f4271eb1e561e89abd87,626b377229c10585ec392f8a,626b3c237b0808b54565652e,,,,,,,,,,,,,,,,,,,,,,,a,0,1.27,"[""0.679"",""0.375"",""0.477"",""0.841""]","[0,1,1,1]",0,17,17,17,1,1,1,,,0,FALSE,,,,,,,,,,,,,,,,,,,,,,,,,,,,,,
,5f03f4271eb1e561e89abd87,001,2022-04-28_18h27.52.799,classification_task,2021.2.3,Win32,49.85044865,5f03f4271eb1e561e89abd87,626b377229c10585ec392f8a,626b3c237b0808b54565652e,,,,,,,,,,,,,,,,,,,,,,,a,0,1.593,"[""0.682"",""0.253"",""0.626"",""0.799""]","[0,1,1,1]",0,18,18,18,1,1,0,,,0,FALSE,,,,,,,,,,,,,,,,,,,,,,,,,,,,,,
,5f03f4271eb1e561e89abd87,001,2022-04-28_18h27.52.799,classification_task,2021.2.3,Win32,49.85044865,5f03f4271eb1e561e89abd87,626b377229c10585ec392f8a,626b3c237b0808b54565652e,,,,,,,,,,,,,,,,,,,,,,,a,0,2.751,"[""0.052"",""0.742"",""0.626"",""0.799""]","[1,0,1,1]",0,19,19,19,1,1,0,,,0,FALSE,,,,,,,,,,,,,,,,,,,,,,,,,,,,,,
,5f03f4271eb1e561e89abd87,001,2022-04-28_18h27.52.799,classification_task,2021.2.3,Win32,49.85044865,5f03f4271eb1e561e89abd87,626b377229c10585ec392f8a,626b3c237b0808b54565652e,,,,,,,,,,,,,,,,,,,,,,,l,1,3.241,"[""0.052"",""0.253"",""0.738"",""0.799""]","[1,1,0,1]",0,20,20,20,1,1,0,,,0,FALSE,,,,,,,,,,,,,,,,,,,,,,,,,,,,,,
,5f03f4271eb1e561e89abd87,001,2022-04-28_18h27.52.799,classification_task,2021.2.3,Win32,49.85044865,5f03f4271eb1e561e89abd87,626b377229c10585ec392f8a,626b3c237b0808b54565652e,,,,,,,,,,,,,,,,,,,,,,,a,0,2.097,"[""0.118"",""0.680"",""0.477"",""0.841""]","[1,0,1,1]",0,21,21,21,1,1,1,,,0,FALSE,,,,,,,,,,,,,,,,,,,,,,,,,,,,,,
,5f03f4271eb1e561e89abd87,001,2022-04-28_18h27.52.799,classification_task,2021.2.3,Win32,49.85044865,5f03f4271eb1e561e89abd87,626b377229c10585ec392f8a,626b3c237b0808b54565652e,,,,,,,,,,,,,,,,,,,,,,,l,0,1.408,"[""0.171"",""0.522"",""0.677"",""0.876""]","[1,1,0,1]",0,22,22,22,1,0,0,,,0,FALSE,,,,,,,,,,,,,,,,,,,,,,,,,,,,,,
,5f03f4271eb1e561e89abd87,001,2022-04-28_18h27.52.799,classification_task,2021.2.3,Win32,49.85044865,5f03f4271eb1e561e89abd87,626b377229c10585ec392f8a,626b3c237b0808b54565652e,,,,,,,,,,,,,,,,,,,,,,,l,1,1.519,"[""0.052"",""0.253"",""0.626"",""0.677""]","[1,1,1,0]",0,23,23,23,1,1,0,,,0,FALSE,,,,,,,,,,,,,,,,,,,,,,,,,,,,,,
,5f03f4271eb1e561e89abd87,001,2022-04-28_18h27.52.799,classification_task,2021.2.3,Win32,49.85044865,5f03f4271eb1e561e89abd87,626b377229c10585ec392f8a,626b3c237b0808b54565652e,,,,,,,,,,,,,,,,,,,,,,,l,0,1.185,"[""0.682"",""0.522"",""0.574"",""0.876""]","[0,1,1,1]",0,24,24,24,1,0,0,,,0,FALSE,,,,,,,,,,,,,,,,,,,,,,,,,,,,,,
,5f03f4271eb1e561e89abd87,001,2022-04-28_18h27.52.799,classification_task,2021.2.3,Win32,49.85044865,5f03f4271eb1e561e89abd87,626b377229c10585ec392f8a,626b3c237b0808b54565652e,,,,,,,,,,,,,,,,,,,,,,,a,0,5.229,"[""0.118"",""0.375"",""0.341"",""0.841""]","[1,1,0,1]",0,25,25,25,1,1,1,,,0,FALSE,,,,,,,,,,,,,,,,,,,,,,,,,,,,,,
,5f03f4271eb1e561e89abd87,001,2022-04-28_18h27.52.799,classification_task,2021.2.3,Win32,49.85044865,5f03f4271eb1e561e89abd87,626b377229c10585ec392f8a,626b3c237b0808b54565652e,,,,,,,,,,,,,,,,,,,,,,,l,0,2.578,"[""0.210"",""0.738"",""0.918"",""0.965""]","[1,0,1,1]",0,26,26,26,1,0,1,,,0,FALSE,,,,,,,,,,,,,,,,,,,,,,,,,,,,,,
,5f03f4271eb1e561e89abd87,001,2022-04-28_18h27.52.799,classification_task,2021.2.3,Win32,49.85044865,5f03f4271eb1e561e89abd87,626b377229c10585ec392f8a,626b3c237b0808b54565652e,,,,,,,,,,,,,,,,,,,,,,,a,1,3.829,"[""0.210"",""0.440"",""0.918"",""0.320""]","[1,1,1,0]",0,27,27,27,1,0,1,,,0,FALSE,,,,,,,,,,,,,,,,,,,,,,,,,,,,,,
,5f03f4271eb1e561e89abd87,001,2022-04-28_18h27.52.799,classification_task,2021.2.3,Win32,49.85044865,5f03f4271eb1e561e89abd87,626b377229c10585ec392f8a,626b3c237b0808b54565652e,,,,,,,,,,,,,,,,,,,,,,,l,1,1.549,"[""0.118"",""0.375"",""0.477"",""0.737""]","[1,1,1,0]",0,28,28,28,1,1,1,,,0,FALSE,,,,,,,,,,,,,,,,,,,,,,,,,,,,,,
,5f03f4271eb1e561e89abd87,001,2022-04-28_18h27.52.799,classification_task,2021.2.3,Win32,49.85044865,5f03f4271eb1e561e89abd87,626b377229c10585ec392f8a,626b3c237b0808b54565652e,,,,,,,,,,,,,,,,,,,,,,,l,0,1.649,"[""0.171"",""0.522"",""0.574"",""0.687""]","[1,1,1,0]",0,29,29,29,1,0,0,,,0,FALSE,,,,,,,,,,,,,,,,,,,,,,,,,,,,,,
,5f03f4271eb1e561e89abd87,001,2022-04-28_18h27.52.799,classification_task,2021.2.3,Win32,49.85044865,5f03f4271eb1e561e89abd87,626b377229c10585ec392f8a,626b3c237b0808b54565652e,,,,,,,,,,,,,,,,,,,,,,,a,1,1.75,"[""0.682"",""0.440"",""0.918"",""0.965""]","[0,1,1,1]",0,30,30,30,1,0,1,,,0,FALSE,,,,,,,,,,,,,,,,,,,,,,,,,,,,,,
,5f03f4271eb1e561e89abd87,001,2022-04-28_18h27.52.799,classification_task,2021.2.3,Win32,49.85044865,5f03f4271eb1e561e89abd87,626b377229c10585ec392f8a,626b3c237b0808b54565652e,,,,,,,,,,,,,,,,,,,,,,,l,0,5.597,"[""0.171"",""0.292"",""0.574"",""0.876""]","[1,0,1,1]",0,31,31,31,1,0,0,,,0,FALSE,,,,,,,,,,,,,,,,,,,,,,,,,,,,,,
,5f03f4271eb1e561e89abd87,001,2022-04-28_18h27.52.799,classification_task,2021.2.3,Win32,49.85044865,5f03f4271eb1e561e89abd87,626b377229c10585ec392f8a,626b3c237b0808b54565652e,,,,,,,,,,,,,,,,,,,,,,,l,1,1.269,"[""0.118"",""0.375"",""0.727"",""0.841""]","[1,1,0,1]",0,32,32,32,1,1,1,,,0,FALSE,,,,,,,,,,,,,,,,,,,,,,,,,,,,,,
,5f03f4271eb1e561e89abd87,001,2022-04-28_18h27.52.799,classification_task,2021.2.3,Win32,49.85044865,5f03f4271eb1e561e89abd87,626b377229c10585ec392f8a,626b3c237b0808b54565652e,,,,,,,,,,,,,,,,,,,,,,,l,1,3.098,"[""0.118"",""0.341"",""0.477"",""0.841""]","[1,0,1,1]",0,33,33,33,1,1,1,,,0,FALSE,,,,,,,,,,,,,,,,,,,,,,,,,,,,,,
,5f03f4271eb1e561e89abd87,001,2022-04-28_18h27.52.799,classification_task,2021.2.3,Win32,49.85044865,5f03f4271eb1e561e89abd87,626b377229c10585ec392f8a,626b3c237b0808b54565652e,,,,,,,,,,,,,,,,,,,,,,,l,1,3.937,"[""0.052"",""0.253"",""0.626"",""0.679""]","[1,1,1,0]",0,34,34,34,1,1,0,,,0,FALSE,,,,,,,,,,,,,,,,,,,,,,,,,,,,,,
,5f03f4271eb1e561e89abd87,001,2022-04-28_18h27.52.799,classification_task,2021.2.3,Win32,49.85044865,5f03f4271eb1e561e89abd87,626b377229c10585ec392f8a,626b3c237b0808b54565652e,,,,,,,,,,,,,,,,,,,,,,,a,1,0.989,"[""0.680"",""0.522"",""0.574"",""0.876""]","[0,1,1,1]",0,35,35,35,1,0,0,,,0,FALSE,,,,,,,,,,,,,,,,,,,,,,,,,,,,,,
,5f03f4271eb1e561e89abd87,001,2022-04-28_18h27.52.799,classification_task,2021.2.3,Win32,49.85044865,5f03f4271eb1e561e89abd87,626b377229c10585ec392f8a,626b3c237b0808b54565652e,,,,,,,,,,,,,,,,,,,,,,,a,0,1.909,"[""0.052"",""0.253"",""0.316"",""0.799""]","[1,1,0,1]",0,36,36,36,1,1,0,,,0,FALSE,,,,,,,,,,,,,,,,,,,,,,,,,,,,,,
,5f03f4271eb1e561e89abd87,001,2022-04-28_18h27.52.799,classification_task,2021.2.3,Win32,49.85044865,5f03f4271eb1e561e89abd87,626b377229c10585ec392f8a,626b3c237b0808b54565652e,,,,,,,,,,,,,,,,,,,,,,,a,0,1.608,"[""0.118"",""0.375"",""0.477"",""0.742""]","[1,1,1,0]",0,37,37,37,1,1,1,,,0,FALSE,,,,,,,,,,,,,,,,,,,,,,,,,,,,,,
,5f03f4271eb1e561e89abd87,001,2022-04-28_18h27.52.799,classification_task,2021.2.3,Win32,49.85044865,5f03f4271eb1e561e89abd87,626b377229c10585ec392f8a,626b3c237b0808b54565652e,,,,,,,,,,,,,,,,,,,,,,,a,1,1.572,"[""0.210"",""0.440"",""0.918"",""0.341""]","[1,1,1,0]",0,38,38,38,1,0,1,,,0,FALSE,,,,,,,,,,,,,,,,,,,,,,,,,,,,,,
,5f03f4271eb1e561e89abd87,001,2022-04-28_18h27.52.799,classification_task,2021.2.3,Win32,49.85044865,5f03f4271eb1e561e89abd87,626b377229c10585ec392f8a,626b3c237b0808b54565652e,,,,,,,,,,,,,,,,,,,,,,,a,1,3.081,"[""0.171"",""0.522"",""0.574"",""0.680""]","[1,1,1,0]",0,39,39,39,1,0,0,,,0,FALSE,,,,,,,,,,,,,,,,,,,,,,,,,,,,,,
,5f03f4271eb1e561e89abd87,001,2022-04-28_18h27.52.799,classification_task,2021.2.3,Win32,49.85044865,5f03f4271eb1e561e89abd87,626b377229c10585ec392f8a,626b3c237b0808b54565652e,,,,,,,,,,,,,,,,,,,,,,,a,1,5.272,"[""0.210"",""0.440"",""0.665"",""0.965""]","[1,1,0,1]",0,40,40,40,1,0,1,,,0,FALSE,,,,,,,,,,,,,,,,,,,,,,,,,,,,,,
,5f03f4271eb1e561e89abd87,001,2022-04-28_18h27.52.799,classification_task,2021.2.3,Win32,49.85044865,5f03f4271eb1e561e89abd87,626b377229c10585ec392f8a,626b3c237b0808b54565652e,,,,,,,,,,,,,,,,,,,,,,,l,1,1.891,"[""0.687"",""0.375"",""0.477"",""0.841""]","[0,1,1,1]",0,41,41,41,1,1,1,,,0,FALSE,,,,,,,,,,,,,,,,,,,,,,,,,,,,,,
,5f03f4271eb1e561e89abd87,001,2022-04-28_18h27.52.799,classification_task,2021.2.3,Win32,49.85044865,5f03f4271eb1e561e89abd87,626b377229c10585ec392f8a,626b3c237b0808b54565652e,,,,,,,,,,,,,,,,,,,,,,,l,1,1.69,"[""0.052"",""0.292"",""0.626"",""0.799""]","[1,0,1,1]",0,42,42,42,1,1,0,,,0,FALSE,,,,,,,,,,,,,,,,,,,,,,,,,,,,,,
,5f03f4271eb1e561e89abd87,001,2022-04-28_18h27.52.799,classification_task,2021.2.3,Win32,49.85044865,5f03f4271eb1e561e89abd87,626b377229c10585ec392f8a,626b3c237b0808b54565652e,,,,,,,,,,,,,,,,,,,,,,,a,0,1.953,"[""0.685"",""0.253"",""0.626"",""0.799""]","[0,1,1,1]",0,43,43,43,1,1,0,,,0,FALSE,,,,,,,,,,,,,,,,,,,,,,,,,,,,,,
,5f03f4271eb1e561e89abd87,001,2022-04-28_18h27.52.799,classification_task,2021.2.3,Win32,49.85044865,5f03f4271eb1e561e89abd87,626b377229c10585ec392f8a,626b3c237b0808b54565652e,,,,,,,,,,,,,,,,,,,,,,,a,1,1.91,"[""0.210"",""0.679"",""0.918"",""0.965""]","[1,0,1,1]",0,44,44,44,1,0,1,,,0,FALSE,,,,,,,,,,,,,,,,,,,,,,,,,,,,,,
,5f03f4271eb1e561e89abd87,001,2022-04-28_18h27.52.799,classification_task,2021.2.3,Win32,49.85044865,5f03f4271eb1e561e89abd87,626b377229c10585ec392f8a,626b3c237b0808b54565652e,,,,,,,,,,,,,,,,,,,,,,,a,1,0.868,"[""0.288"",""0.440"",""0.918"",""0.965""]","[0,1,1,1]",0,45,45,45,1,0,1,,,0,FALSE,,,,,,,,,,,,,,,,,,,,,,,,,,,,,,
,5f03f4271eb1e561e89abd87,001,2022-04-28_18h27.52.799,classification_task,2021.2.3,Win32,49.85044865,5f03f4271eb1e561e89abd87,626b377229c10585ec392f8a,626b3c237b0808b54565652e,,,,,,,,,,,,,,,,,,,,,,,l,0,2.273,"[""0.171"",""0.665"",""0.574"",""0.876""]","[1,0,1,1]",0,46,46,46,1,0,0,,,0,FALSE,,,,,,,,,,,,,,,,,,,,,,,,,,,,,,
,5f03f4271eb1e561e89abd87,001,2022-04-28_18h27.52.799,classification_task,2021.2.3,Win32,49.85044865,5f03f4271eb1e561e89abd87,626b377229c10585ec392f8a,626b3c237b0808b54565652e,,,,,,,,,,,,,,,,,,,,,,,a,1,2.011,"[""0.171"",""0.522"",""0.288"",""0.876""]","[1,1,0,1]",0,47,47,47,1,0,0,,,0,FALSE,,,,,,,,,,,,,,,,,,,,,,,,,,,,,,
,5f03f4271eb1e561e89abd87,001,2022-04-28_18h27.52.799,classification_task,2021.2.3,Win32,49.85044865,5f03f4271eb1e561e89abd87,626b377229c10585ec392f8a,626b3c237b0808b54565652e,,,,,,,,,,,,,,,,,,,,,,,l,1,3.098,"[""0.682"",""0.375"",""0.477"",""0.841""]","[0,1,1,1]",0,48,48,48,1,1,1,,,0,FALSE,,,,,,,,,,,,,,,,,,,,,,,,,,,,,,
,5f03f4271eb1e561e89abd87,001,2022-04-28_18h27.52.799,classification_task,2021.2.3,Win32,49.85044865,5f03f4271eb1e561e89abd87,626b377229c10585ec392f8a,626b3c237b0808b54565652e,,,,,,,,,,,,,,,,,,,,,,,a,1,1.652,"[""0.210"",""0.440"",""0.679"",""0.965""]","[1,1,0,1]",0,49,49,49,1,0,1,,,0,FALSE,,,,,,,,,,,,,,,,,,,,,,,,,,,,,,
,5f03f4271eb1e561e89abd87,001,2022-04-28_18h27.52.799,classification_task,2021.2.3,Win32,49.85044865,5f03f4271eb1e561e89abd87,626b377229c10585ec392f8a,626b3c237b0808b54565652e,,,,,,,,,,,,,,,,,,,,,,,a,1,2.759,"[""0.171"",""0.522"",""0.292"",""0.876""]","[1,1,0,1]",0,50,50,50,1,0,0,,,0,FALSE,,,,,,,,,,,,,,,,,,,,,,,,,,,,,,
,5f03f4271eb1e561e89abd87,001,2022-04-28_18h27.52.799,classification_task,2021.2.3,Win32,49.85044865,5f03f4271eb1e561e89abd87,626b377229c10585ec392f8a,626b3c237b0808b54565652e,,,,,,,,,,,,,,,,,,,,,,,a,1,4.213,"[""0.210"",""0.440"",""0.918"",""0.316""]","[1,1,1,0]",0,51,51,51,1,0,1,,,0,FALSE,,,,,,,,,,,,,,,,,,,,,,,,,,,,,,
,5f03f4271eb1e561e89abd87,001,2022-04-28_18h27.52.799,classification_task,2021.2.3,Win32,49.85044865,5f03f4271eb1e561e89abd87,626b377229c10585ec392f8a,626b3c237b0808b54565652e,,,,,,,,,,,,,,,,,,,,,,,a,1,1.246,"[""0.288"",""0.440"",""0.918"",""0.965""]","[0,1,1,1]",0,52,52,52,1,0,1,,,0,FALSE,,,,,,,,,,,,,,,,,,,,,,,,,,,,,,
,5f03f4271eb1e561e89abd87,001,2022-04-28_18h27.52.799,classification_task,2021.2.3,Win32,49.85044865,5f03f4271eb1e561e89abd87,626b377229c10585ec392f8a,626b3c237b0808b54565652e,,,,,,,,,,,,,,,,,,,,,,,a,1,4.851,"[""0.171"",""0.682"",""0.574"",""0.876""]","[1,0,1,1]",0,53,53,53,1,0,0,,,0,FALSE,,,,,,,,,,,,,,,,,,,,,,,,,,,,,,
,5f03f4271eb1e561e89abd87,001,2022-04-28_18h27.52.799,classification_task,2021.2.3,Win32,49.85044865,5f03f4271eb1e561e89abd87,626b377229c10585ec392f8a,626b3c237b0808b54565652e,,,,,,,,,,,,,,,,,,,,,,,l,1,1.007,"[""0.052"",""0.253"",""0.320"",""0.799""]","[1,1,0,1]",0,54,54,54,1,1,0,,,0,FALSE,,,,,,,,,,,,,,,,,,,,,,,,,,,,,,
,5f03f4271eb1e561e89abd87,001,2022-04-28_18h27.52.799,classification_task,2021.2.3,Win32,49.85044865,5f03f4271eb1e561e89abd87,626b377229c10585ec392f8a,626b3c237b0808b54565652e,,,,,,,,,,,,,,,,,,,,,,,l,1,1.351,"[""0.052"",""0.253"",""0.626"",""0.682""]","[1,1,1,0]",0,55,55,55,1,1,0,,,0,FALSE,,,,,,,,,,,,,,,,,,,,,,,,,,,,,,
,5f03f4271eb1e561e89abd87,001,2022-04-28_18h27.52.799,classification_task,2021.2.3,Win32,49.85044865,5f03f4271eb1e561e89abd87,626b377229c10585ec392f8a,626b3c237b0808b54565652e,,,,,,,,,,,,,,,,,,,,,,,l,0,2.416,"[""0.171"",""0.522"",""0.574"",""0.316""]","[1,1,1,0]",0,56,56,56,1,0,0,,,0,FALSE,,,,,,,,,,,,,,,,,,,,,,,,,,,,,,
,5f03f4271eb1e561e89abd87,001,2022-04-28_18h27.52.799,classification_task,2021.2.3,Win32,49.85044865,5f03f4271eb1e561e89abd87,626b377229c10585ec392f8a,626b3c237b0808b54565652e,,,,,,,,,,,,,,,,,,,,,,,a,0,1.53,"[""0.727"",""0.253"",""0.626"",""0.799""]","[0,1,1,1]",0,57,57,57,1,1,0,,,0,FALSE,,,,,,,,,,,,,,,,,,,,,,,,,,,,,,
,5f03f4271eb1e561e89abd87,001,2022-04-28_18h27.52.799,classification_task,2021.2.3,Win32,49.85044865,5f03f4271eb1e561e89abd87,626b377229c10585ec392f8a,626b3c237b0808b54565652e,,,,,,,,,,,,,,,,,,,,,,,a,1,3.866,"[""0.210"",""0.679"",""0.918"",""0.965""]","[1,0,1,1]",0,58,58,58,1,0,1,,,0,FALSE,,,,,,,,,,,,,,,,,,,,,,,,,,,,,,
,5f03f4271eb1e561e89abd87,001,2022-04-28_18h27.52.799,classification_task,2021.2.3,Win32,49.85044865,5f03f4271eb1e561e89abd87,626b377229c10585ec392f8a,626b3c237b0808b54565652e,,,,,,,,,,,,,,,,,,,,,,,l,1,3.02,"[""0.052"",""0.685"",""0.626"",""0.799""]","[1,0,1,1]",0,59,59,59,1,1,0,,,0,FALSE,,,,,,,,,,,,,,,,,,,,,,,,,,,,,,
,5f03f4271eb1e561e89abd87,001,2022-04-28_18h27.52.799,classification_task,2021.2.3,Win32,49.85044865,5f03f4271eb1e561e89abd87,626b377229c10585ec392f8a,626b3c237b0808b54565652e,,,,,,,,,,,,,,,,,,,,,,,l,0,1.569,"[""0.288"",""0.522"",""0.574"",""0.876""]","[0,1,1,1]",0,60,60,60,1,0,0,,,0,FALSE,,,,,,,,,,,,,,,,,,,,,,,,,,,,,,
,5f03f4271eb1e561e89abd87,001,2022-04-28_18h27.52.799,classification_task,2021.2.3,Win32,49.85044865,5f03f4271eb1e561e89abd87,626b377229c10585ec392f8a,626b3c237b0808b54565652e,,,,,,,,,,,,,,,,,,,,,,,a,0,1.245,"[""0.118"",""0.375"",""0.677"",""0.841""]","[1,1,0,1]",0,61,61,61,1,1,1,,,0,FALSE,,,,,,,,,,,,,,,,,,,,,,,,,,,,,,
,5f03f4271eb1e561e89abd87,001,2022-04-28_18h27.52.799,classification_task,2021.2.3,Win32,49.85044865,5f03f4271eb1e561e89abd87,626b377229c10585ec392f8a,626b3c237b0808b54565652e,,,,,,,,,,,,,,,,,,,,,,,l,1,0.924,"[""0.118"",""0.375"",""0.477"",""0.687""]","[1,1,1,0]",0,62,62,62,1,1,1,,,0,FALSE,,,,,,,,,,,,,,,,,,,,,,,,,,,,,,
,5f03f4271eb1e561e89abd87,001,2022-04-28_18h27.52.799,classification_task,2021.2.3,Win32,49.85044865,5f03f4271eb1e561e89abd87,626b377229c10585ec392f8a,626b3c237b0808b54565652e,,,,,,,,,,,,,,,,,,,,,,,a,0,2.376,"[""0.118"",""0.742"",""0.477"",""0.841""]","[1,0,1,1]",0,63,63,63,1,1,1,,,0,FALSE,,,,,,,,,,,,,,,,,,,,,,,,,,,,,,
,5f03f4271eb1e561e89abd87,001,2022-04-28_18h27.52.799,classification_task,2021.2.3,Win32,49.85044865,5f03f4271eb1e561e89abd87,626b377229c10585ec392f8a,626b3c237b0808b54565652e,,,,,,,,,,,,,,,,,,,,,,,,,,,,,,,,,,,,,,,0, ,,0,10,313.5,0,2,2,2,1,2,3,,,,,,,,,,,,,,,,,
,5f03f4271eb1e561e89abd87,001,2022-04-28_18h27.52.799,classification_task,2021.2.3,Win32,49.85044865,5f03f4271eb1e561e89abd87,626b377229c10585ec392f8a,626b3c237b0808b54565652e,,,,,,,,,,,,,,,,,,,,,,,,,,,,,,,,,,,,,,,1,  ,,0,10,318.53,0,2,2,2,1,2,3,,,,,,,,,,,,,,,,,
,5f03f4271eb1e561e89abd87,001,2022-04-28_18h27.52.799,classification_task,2021.2.3,Win32,49.85044865,5f03f4271eb1e561e89abd87,626b377229c10585ec392f8a,626b3c237b0808b54565652e,,,,,,,,,,,,,,,,,,,,,,,,,,,,,,,,,,,,,,,2,  ,,0,10,320.037,0,2,2,2,1,2,3,,,,,,,,,,,,,,,,,
,5f03f4271eb1e561e89abd87,001,2022-04-28_18h27.52.799,classification_task,2021.2.3,Win32,49.85044865,5f03f4271eb1e561e89abd87,626b377229c10585ec392f8a,626b3c237b0808b54565652e,,,,,,,,,,,,,,,,,,,,,,,,,,,,,,,,,,,,,,,,,,,,,0,2,2,2,1,,3,,,,,,,,,,,,,,,,,
,5f03f4271eb1e561e89abd87,001,2022-04-28_18h27.52.799,classification_task,2021.2.3,Win32,49.85044865,5f03f4271eb1e561e89abd87,626b377229c10585ec392f8a,626b3c237b0808b54565652e,,,,,,,,,,,,,,,,,,,,,,,,,,,,,,,,,,,,,,,,,,,,,,,,,,,,,I believe the aid is a competent performer,,0.7,0,5,2578.117,0,0,0,0,1,0,,,,
,5f03f4271eb1e561e89abd87,001,2022-04-28_18h27.52.799,classification_task,2021.2.3,Win32,49.85044865,5f03f4271eb1e561e89abd87,626b377229c10585ec392f8a,626b3c237b0808b54565652e,,,,,,,,,,,,,,,,,,,,,,,,,,,,,,,,,,,,,,,,,,,,,,,,,,,,,I trust the aid,,0.7,0,5,2579.805,0,0,0,0,1,0,,,,
,5f03f4271eb1e561e89abd87,001,2022-04-28_18h27.52.799,classification_task,2021.2.3,Win32,49.85044865,5f03f4271eb1e561e89abd87,626b377229c10585ec392f8a,626b3c237b0808b54565652e,,,,,,,,,,,,,,,,,,,,,,,,,,,,,,,,,,,,,,,,,,,,,,,,,,,,,I have confidence in the advice given by the aid,,0.7,0,5,2582.279,0,0,0,0,1,0,,,,
,5f03f4271eb1e561e89abd87,001,2022-04-28_18h27.52.799,classification_task,2021.2.3,Win32,49.85044865,5f03f4271eb1e561e89abd87,626b377229c10585ec392f8a,626b3c237b0808b54565652e,,,,,,,,,,,,,,,,,,,,,,,,,,,,,,,,,,,,,,,,,,,,,,,,,,,,,I can depend on the aid,,0.7,0,5,2583.262,0,0,0,0,1,0,,,,
,5f03f4271eb1e561e89abd87,001,2022-04-28_18h27.52.799,classification_task,2021.2.3,Win32,49.85044865,5f03f4271eb1e561e89abd87,626b377229c10585ec392f8a,626b3c237b0808b54565652e,,,,,,,,,,,,,,,,,,,,,,,,,,,,,,,,,,,,,,,,,,,,,,,,,,,,,I can rely on the aid to behave in consistent ways,,0.7,0,5,2588.954,0,0,0,0,1,0,,,,
,5f03f4271eb1e561e89abd87,001,2022-04-28_18h27.52.799,classification_task,2021.2.3,Win32,49.85044865,5f03f4271eb1e561e89abd87,626b377229c10585ec392f8a,626b3c237b0808b54565652e,,,,,,,,,,,,,,,,,,,,,,,,,,,,,,,,,,,,,,,,,,,,,,,,,,,,,I can rely on the aid to do its best every time I take its advice,,0.7,0,5,2588.514,0,0,0,0,1,0,,,,
,5f03f4271eb1e561e89abd87,001,2022-04-28_18h27.52.799,classification_task,2021.2.3,Win32,49.85044865,5f03f4271eb1e561e89abd87,626b377229c10585ec392f8a,626b3c237b0808b54565652e,,,,,,,,,,,,,,,,,,,,,,,,,,,,,,,,,,,,,,,,,,,,,,,,,,,,,"On trials you completed with assistance from the aid, how frequently did you think the aid was correct?",,0.7,0,100% of the time,,0,0,0,0,1,0,,,,
,5f03f4271eb1e561e89abd87,001,2022-04-28_18h27.52.799,classification_task,2021.2.3,Win32,49.85044865,5f03f4271eb1e561e89abd87,626b377229c10585ec392f8a,626b3c237b0808b54565652e,,,,,,,,,,,,,,,,,,,,,,,,,,,,,,,,,,,,,,,,,,,,,,,,,,,,,"On trials you completed without the aid, how frequently did you think you were correct?",,0.7,0,5% of the time,,0,0,0,0,1,0,,,,
,5f03f4271eb1e561e89abd87,001,2022-04-28_18h27.52.799,classification_task,2021.2.3,Win32,49.85044865,5f03f4271eb1e561e89abd87,626b377229c10585ec392f8a,626b3c237b0808b54565652e,,,,,,,,,,,,,,,,,,,,,,,,,,,,,,,,,,,,,,,,,,,,,,,,,,,,,,,,,,,0,0,0,0,1,,,,,
,5f03f4271eb1e561e89abd87,001,2022-04-28_18h27.52.799,classification_task,2021.2.3,Win32,49.85044865,5f03f4271eb1e561e89abd87,626b377229c10585ec392f8a,626b3c237b0808b54565652e,,,,,,,,,,,,,,,,,,,,,,,,,,,,,,,,,,,,,,,,,,,,,,,,,,,,,,,,,,,,,,,,,space,21.734,2658.407,
,5f03f4271eb1e561e89abd87,001,2022-04-28_18h27.52.799,classification_task,2021.2.3,Win32,49.85044865,5f03f4271eb1e561e89abd87,626b377229c10585ec392f8a,626b3c237b0808b54565652e,,,,,,,,,,,,,,,,,,,,,,,,,,,,,,,,,,,,,,,,,,,,,,,,,,,,,,,,,,,,,,,,,,,,Mozilla/5.0 (Windows NT 10.0; Win64; x64; rv:99.0) Gecko/20100101 Firefox/99.0
