usingWebGL,participant,session,date,expName,psychopyVersion,OS,frameRate,study_id,signatures_friend,signatures_foe,band_ranges_top,band_ranges_bottom,formitemText,formtype,formundefined,formitemWidth,formindex,formresponse,formrt,key_resp_2.keys,key_resp_2.rt,tute_resp.keys,tute_resp.rt,tutorial.thisRepN,tutorial.thisTrialN,tutorial.thisN,tutorial.thisIndex,tutorial.ran,key_resp_4.keys,key_resp_4.rt,key_resp.keys,key_resp.corr,lines_presented,is_signal_presented,trials.thisRepN,trials.thisTrialN,trials.thisN,trials.thisIndex,trials.ran,vessel,active_band,lines,is_signal,supported_pos,catch_trial,key_resp.rt,debrief_formindex,debrief_formitemText,debrief_formtype,debrief_formitemWidth,debrief_formresponse,debrief_formrt,phases.thisRepN,phases.thisTrialN,phases.thisN,phases.thisIndex,phases.ran,phases.order,phase,key_resp_3.keys,trustitemText,trusttype,trustitemWidth,trustindex,trustresponse,trustrt,support_status.thisRepN,support_status.thisTrialN,support_status.thisN,support_status.thisIndex,support_status.ran,support_status.order,key_resp_5.keys,key_resp_5.rt,globalClockTime,userAgent,manualCondition
TRUE,5f08c7216770cf12736d00b2,627c762ad6d227817672cf5a,2022-05-12_04h54.20.529,classification_task,2021.2.3,Win32,30.16045361,627c6715c52fd12f31907bd0,,,,,,,,,,,,,,,,,,,,,,,,,,,,,,,,,,,,,,,,,,,,,,,,,,,,,,,,,,,,,,,,,,,,,
,5f08c7216770cf12736d00b2,627c762ad6d227817672cf5a,2022-05-12_04h54.20.529,classification_task,2021.2.3,Win32,30.16045361,627c6715c52fd12f31907bd0,"[[""0.250"",""0.380"",""0.883"",""0.948""],[""0.168"",""0.415"",""0.814"",""0.848""]]","[[""0.038"",""0.307"",""0.611"",""0.728""],[""0.118"",""0.207"",""0.529"",""0.683""]]","[1,10]","[100,1000]",Video game experience,,,0.7,0,,,,,,,,,,,,,,,,,,,,,,,,,,,,,,,,,,,,,,,,,,,,,,,,,,,,,,,,,,,,
,5f08c7216770cf12736d00b2,627c762ad6d227817672cf5a,2022-05-12_04h54.20.529,classification_task,2021.2.3,Win32,30.16045361,627c6715c52fd12f31907bd0,,,,,Approximately how many hours did you spend playing video games in the last week?,,,0.7,0,8,,,,,,,,,,,,,,,,,,,,,,,,,,,,,,,,,,,,,,,,,,,,,,,,,,,,,,,,,,,
,5f08c7216770cf12736d00b2,627c762ad6d227817672cf5a,2022-05-12_04h54.20.529,classification_task,2021.2.3,Win32,30.16045361,627c6715c52fd12f31907bd0,,,,,"Which game did you play the most this year? (Enter ""None"" if you didn't play any)",,,0.7,0,The sims,,,,,,,,,,,,,,,,,,,,,,,,,,,,,,,,,,,,,,,,,,,,,,,,,,,,,,,,,,,
,5f08c7216770cf12736d00b2,627c762ad6d227817672cf5a,2022-05-12_04h54.20.529,classification_task,2021.2.3,Win32,30.16045361,627c6715c52fd12f31907bd0,,,,,Visual perception,,,0.7,0,,,,,,,,,,,,,,,,,,,,,,,,,,,,,,,,,,,,,,,,,,,,,,,,,,,,,,,,,,,,
,5f08c7216770cf12736d00b2,627c762ad6d227817672cf5a,2022-05-12_04h54.20.529,classification_task,2021.2.3,Win32,30.16045361,627c6715c52fd12f31907bd0,,,,,Do you have any form of color blindness?,,,0.7,0,No,95.7635,,,,,,,,,,,,,,,,,,,,,,,,,,,,,,,,,,,,,,,,,,,,,,,,,,,,,,,,,,
,5f08c7216770cf12736d00b2,627c762ad6d227817672cf5a,2022-05-12_04h54.20.529,classification_task,2021.2.3,Win32,30.16045361,627c6715c52fd12f31907bd0,,,,,Do you use software to change the colour temperature of your screen (e.g. f.lux)?,,,0.7,0,No,98.9149,,,,,,,,,,,,,,,,,,,,,,,,,,,,,,,,,,,,,,,,,,,,,,,,,,,,,,,,,,
,5f08c7216770cf12736d00b2,627c762ad6d227817672cf5a,2022-05-12_04h54.20.529,classification_task,2021.2.3,Win32,30.16045361,627c6715c52fd12f31907bd0,,,,,,,,,,,,space,92.5807,space,14.3603,0,0,0,0,1,,,,,,,,,,,,,,,,,,,,,,,,,,,,,,,,,,,,,,,,,,,,,,,,,
,5f08c7216770cf12736d00b2,627c762ad6d227817672cf5a,2022-05-12_04h54.20.529,classification_task,2021.2.3,Win32,30.16045361,627c6715c52fd12f31907bd0,,,,,,,,,,,,,,space,19.1686,1,0,1,0,1,,,,,,,,,,,,,,,,,,,,,,,,,,,,,,,,,,,,,,,,,,,,,,,,,
,5f08c7216770cf12736d00b2,627c762ad6d227817672cf5a,2022-05-12_04h54.20.529,classification_task,2021.2.3,Win32,30.16045361,627c6715c52fd12f31907bd0,,,,,,,,,,,,,,space,92.8471,2,0,2,0,1,,,,,,,,,,,,,,,,,,,,,,,,,,,,,,,,,,,,,,,,,,,,,,,,,
,5f08c7216770cf12736d00b2,627c762ad6d227817672cf5a,2022-05-12_04h54.20.529,classification_task,2021.2.3,Win32,30.16045361,627c6715c52fd12f31907bd0,,,,,,,,,,,,,,space,52.8883,3,0,3,0,1,,,,,,,,,,,,,,,,,,,,,,,,,,,,,,,,,,,,,,,,,,,,,,,,,
,5f08c7216770cf12736d00b2,627c762ad6d227817672cf5a,2022-05-12_04h54.20.529,classification_task,2021.2.3,Win32,30.16045361,627c6715c52fd12f31907bd0,,,,,,,,,,,,,,space,34.2204,4,0,4,0,1,,,,,,,,,,,,,,,,,,,,,,,,,,,,,,,,,,,,,,,,,,,,,,,,,
,5f08c7216770cf12736d00b2,627c762ad6d227817672cf5a,2022-05-12_04h54.20.529,classification_task,2021.2.3,Win32,30.16045361,627c6715c52fd12f31907bd0,,,,,,,,,,,,,,,,,,,,,space,27.6722,,0,"[""0.076"",""0.307"",""0.611"",""0.728""]","[0,1,1,1]",0,0,0,0,1,1,0,,,0,FALSE,,,,,,,,,,,,,,,,,,,,,,,,,,,,,,,,
,5f08c7216770cf12736d00b2,627c762ad6d227817672cf5a,2022-05-12_04h54.20.529,classification_task,2021.2.3,Win32,30.16045361,627c6715c52fd12f31907bd0,,,,,,,,,,,,,,,,,,,,,,,a,1,"[""0.168"",""0.415"",""0.079"",""0.848""]","[1,1,0,1]",0,1,1,1,1,0,1,,,0,FALSE,5.0648,,,,,,,,,,,,,,,,,,,,,,,,,,,,,,,
,5f08c7216770cf12736d00b2,627c762ad6d227817672cf5a,2022-05-12_04h54.20.529,classification_task,2021.2.3,Win32,30.16045361,627c6715c52fd12f31907bd0,,,,,,,,,,,,,,,,,,,,,,,l,1,"[""0.038"",""0.307"",""0.611"",""0.578""]","[1,1,1,0]",0,2,2,2,1,1,0,,,0,FALSE,4.8691,,,,,,,,,,,,,,,,,,,,,,,,,,,,,,,
,5f08c7216770cf12736d00b2,627c762ad6d227817672cf5a,2022-05-12_04h54.20.529,classification_task,2021.2.3,Win32,30.16045361,627c6715c52fd12f31907bd0,,,,,,,,,,,,,,,,,,,,,,,a,1,"[""0.489"",""0.380"",""0.883"",""0.948""]","[0,1,1,1]",0,3,3,3,1,0,0,,,0,FALSE,3.4015,,,,,,,,,,,,,,,,,,,,,,,,,,,,,,,
,5f08c7216770cf12736d00b2,627c762ad6d227817672cf5a,2022-05-12_04h54.20.529,classification_task,2021.2.3,Win32,30.16045361,627c6715c52fd12f31907bd0,,,,,,,,,,,,,,,,,,,,,,,l,1,"[""0.038"",""0.307"",""0.649"",""0.728""]","[1,1,0,1]",0,4,4,4,1,1,0,,,0,FALSE,2.0883,,,,,,,,,,,,,,,,,,,,,,,,,,,,,,,
,5f08c7216770cf12736d00b2,627c762ad6d227817672cf5a,2022-05-12_04h54.20.529,classification_task,2021.2.3,Win32,30.16045361,627c6715c52fd12f31907bd0,,,,,,,,,,,,,,,,,,,,,,,a,0,"[""0.118"",""0.076"",""0.529"",""0.683""]","[1,0,1,1]",0,5,5,5,1,1,1,,,0,FALSE,3.6595,,,,,,,,,,,,,,,,,,,,,,,,,,,,,,,
,5f08c7216770cf12736d00b2,627c762ad6d227817672cf5a,2022-05-12_04h54.20.529,classification_task,2021.2.3,Win32,30.16045361,627c6715c52fd12f31907bd0,,,,,,,,,,,,,,,,,,,,,,,a,0,"[""0.079"",""0.207"",""0.529"",""0.683""]","[0,1,1,1]",0,6,6,6,1,1,1,,,0,FALSE,4.0501,,,,,,,,,,,,,,,,,,,,,,,,,,,,,,,
,5f08c7216770cf12736d00b2,627c762ad6d227817672cf5a,2022-05-12_04h54.20.529,classification_task,2021.2.3,Win32,30.16045361,627c6715c52fd12f31907bd0,,,,,,,,,,,,,,,,,,,,,,,l,1,"[""0.038"",""0.573"",""0.611"",""0.728""]","[1,0,1,1]",0,7,7,7,1,1,0,,,0,FALSE,1.401,,,,,,,,,,,,,,,,,,,,,,,,,,,,,,,
,5f08c7216770cf12736d00b2,627c762ad6d227817672cf5a,2022-05-12_04h54.20.529,classification_task,2021.2.3,Win32,30.16045361,627c6715c52fd12f31907bd0,,,,,,,,,,,,,,,,,,,,,,,l,0,"[""0.573"",""0.415"",""0.814"",""0.848""]","[0,1,1,1]",0,8,8,8,1,0,1,,,0,FALSE,2.9102,,,,,,,,,,,,,,,,,,,,,,,,,,,,,,,
,5f08c7216770cf12736d00b2,627c762ad6d227817672cf5a,2022-05-12_04h54.20.529,classification_task,2021.2.3,Win32,30.16045361,627c6715c52fd12f31907bd0,,,,,,,,,,,,,,,,,,,,,,,a,0,"[""0.118"",""0.207"",""0.084"",""0.683""]","[1,1,0,1]",0,9,9,9,1,1,1,,,0,FALSE,5.2913,,,,,,,,,,,,,,,,,,,,,,,,,,,,,,,
,5f08c7216770cf12736d00b2,627c762ad6d227817672cf5a,2022-05-12_04h54.20.529,classification_task,2021.2.3,Win32,30.16045361,627c6715c52fd12f31907bd0,,,,,,,,,,,,,,,,,,,,,,,a,1,"[""0.168"",""0.483"",""0.814"",""0.848""]","[1,0,1,1]",0,10,10,10,1,0,1,,,0,FALSE,3.0822,,,,,,,,,,,,,,,,,,,,,,,,,,,,,,,
,5f08c7216770cf12736d00b2,627c762ad6d227817672cf5a,2022-05-12_04h54.20.529,classification_task,2021.2.3,Win32,30.16045361,627c6715c52fd12f31907bd0,,,,,,,,,,,,,,,,,,,,,,,l,0,"[""0.250"",""0.380"",""0.883"",""0.578""]","[1,1,1,0]",0,11,11,11,1,0,0,,,0,FALSE,6.7797,,,,,,,,,,,,,,,,,,,,,,,,,,,,,,,
,5f08c7216770cf12736d00b2,627c762ad6d227817672cf5a,2022-05-12_04h54.20.529,classification_task,2021.2.3,Win32,30.16045361,627c6715c52fd12f31907bd0,,,,,,,,,,,,,,,,,,,,,,,l,1,"[""0.118"",""0.207"",""0.529"",""0.574""]","[1,1,1,0]",0,12,12,12,1,1,1,,,0,FALSE,2.8984,,,,,,,,,,,,,,,,,,,,,,,,,,,,,,,
,5f08c7216770cf12736d00b2,627c762ad6d227817672cf5a,2022-05-12_04h54.20.529,classification_task,2021.2.3,Win32,30.16045361,627c6715c52fd12f31907bd0,,,,,,,,,,,,,,,,,,,,,,,a,1,"[""0.250"",""0.459"",""0.883"",""0.948""]","[1,0,1,1]",0,13,13,13,1,0,0,,,0,FALSE,4.5882,,,,,,,,,,,,,,,,,,,,,,,,,,,,,,,
,5f08c7216770cf12736d00b2,627c762ad6d227817672cf5a,2022-05-12_04h54.20.529,classification_task,2021.2.3,Win32,30.16045361,627c6715c52fd12f31907bd0,,,,,,,,,,,,,,,,,,,,,,,a,1,"[""0.168"",""0.415"",""0.814"",""0.649""]","[1,1,1,0]",0,14,14,14,1,0,1,,,0,FALSE,3.0942,,,,,,,,,,,,,,,,,,,,,,,,,,,,,,,
,5f08c7216770cf12736d00b2,627c762ad6d227817672cf5a,2022-05-12_04h54.20.529,classification_task,2021.2.3,Win32,30.16045361,627c6715c52fd12f31907bd0,,,,,,,,,,,,,,,,,,,,,,,a,1,"[""0.250"",""0.380"",""0.459"",""0.948""]","[1,1,0,1]",0,15,15,15,1,0,0,,,0,FALSE,1.7712,,,,,,,,,,,,,,,,,,,,,,,,,,,,,,,
,5f08c7216770cf12736d00b2,627c762ad6d227817672cf5a,2022-05-12_04h54.20.529,classification_task,2021.2.3,Win32,30.16045361,627c6715c52fd12f31907bd0,,,,,,,,,,,,,,,,,,,,,,,l,1,"[""0.573"",""0.307"",""0.611"",""0.728""]","[0,1,1,1]",0,16,16,16,1,1,0,,,0,FALSE,5.5173,,,,,,,,,,,,,,,,,,,,,,,,,,,,,,,
,5f08c7216770cf12736d00b2,627c762ad6d227817672cf5a,2022-05-12_04h54.20.529,classification_task,2021.2.3,Win32,30.16045361,627c6715c52fd12f31907bd0,,,,,,,,,,,,,,,,,,,,,,,a,1,"[""0.168"",""0.415"",""0.649"",""0.848""]","[1,1,0,1]",0,17,17,17,1,0,1,,,0,FALSE,2.2083,,,,,,,,,,,,,,,,,,,,,,,,,,,,,,,
,5f08c7216770cf12736d00b2,627c762ad6d227817672cf5a,2022-05-12_04h54.20.529,classification_task,2021.2.3,Win32,30.16045361,627c6715c52fd12f31907bd0,,,,,,,,,,,,,,,,,,,,,,,a,1,"[""0.250"",""0.380"",""0.883"",""0.459""]","[1,1,1,0]",0,18,18,18,1,0,0,,,0,FALSE,2.677,,,,,,,,,,,,,,,,,,,,,,,,,,,,,,,
,5f08c7216770cf12736d00b2,627c762ad6d227817672cf5a,2022-05-12_04h54.20.529,classification_task,2021.2.3,Win32,30.16045361,627c6715c52fd12f31907bd0,,,,,,,,,,,,,,,,,,,,,,,l,0,"[""0.168"",""0.449"",""0.814"",""0.848""]","[1,0,1,1]",0,19,19,19,1,0,1,,,0,FALSE,5.4731,,,,,,,,,,,,,,,,,,,,,,,,,,,,,,,
,5f08c7216770cf12736d00b2,627c762ad6d227817672cf5a,2022-05-12_04h54.20.529,classification_task,2021.2.3,Win32,30.16045361,627c6715c52fd12f31907bd0,,,,,,,,,,,,,,,,,,,,,,,l,0,"[""0.472"",""0.415"",""0.814"",""0.848""]","[0,1,1,1]",0,20,20,20,1,0,1,,,0,FALSE,4.2564,,,,,,,,,,,,,,,,,,,,,,,,,,,,,,,
,5f08c7216770cf12736d00b2,627c762ad6d227817672cf5a,2022-05-12_04h54.20.529,classification_task,2021.2.3,Win32,30.16045361,627c6715c52fd12f31907bd0,,,,,,,,,,,,,,,,,,,,,,,l,1,"[""0.038"",""0.649"",""0.611"",""0.728""]","[1,0,1,1]",0,21,21,21,1,1,0,,,0,FALSE,1.8988,,,,,,,,,,,,,,,,,,,,,,,,,,,,,,,
,5f08c7216770cf12736d00b2,627c762ad6d227817672cf5a,2022-05-12_04h54.20.529,classification_task,2021.2.3,Win32,30.16045361,627c6715c52fd12f31907bd0,,,,,,,,,,,,,,,,,,,,,,,l,0,"[""0.250"",""0.084"",""0.883"",""0.948""]","[1,0,1,1]",0,22,22,22,1,0,0,,,0,FALSE,1.592,,,,,,,,,,,,,,,,,,,,,,,,,,,,,,,
,5f08c7216770cf12736d00b2,627c762ad6d227817672cf5a,2022-05-12_04h54.20.529,classification_task,2021.2.3,Win32,30.16045361,627c6715c52fd12f31907bd0,,,,,,,,,,,,,,,,,,,,,,,a,1,"[""0.168"",""0.415"",""0.814"",""0.575""]","[1,1,1,0]",0,23,23,23,1,0,1,,,0,FALSE,1.8568,,,,,,,,,,,,,,,,,,,,,,,,,,,,,,,
,5f08c7216770cf12736d00b2,627c762ad6d227817672cf5a,2022-05-12_04h54.20.529,classification_task,2021.2.3,Win32,30.16045361,627c6715c52fd12f31907bd0,,,,,,,,,,,,,,,,,,,,,,,l,0,"[""0.084"",""0.380"",""0.883"",""0.948""]","[0,1,1,1]",0,24,24,24,1,0,0,,,0,FALSE,1.5626,,,,,,,,,,,,,,,,,,,,,,,,,,,,,,,
,5f08c7216770cf12736d00b2,627c762ad6d227817672cf5a,2022-05-12_04h54.20.529,classification_task,2021.2.3,Win32,30.16045361,627c6715c52fd12f31907bd0,,,,,,,,,,,,,,,,,,,,,,,l,1,"[""0.118"",""0.207"",""0.529"",""0.649""]","[1,1,1,0]",0,25,25,25,1,1,1,,,0,FALSE,4.6885,,,,,,,,,,,,,,,,,,,,,,,,,,,,,,,
,5f08c7216770cf12736d00b2,627c762ad6d227817672cf5a,2022-05-12_04h54.20.529,classification_task,2021.2.3,Win32,30.16045361,627c6715c52fd12f31907bd0,,,,,,,,,,,,,,,,,,,,,,,l,1,"[""0.038"",""0.307"",""0.578"",""0.728""]","[1,1,0,1]",0,26,26,26,1,1,0,,,0,FALSE,1.7414,,,,,,,,,,,,,,,,,,,,,,,,,,,,,,,
,5f08c7216770cf12736d00b2,627c762ad6d227817672cf5a,2022-05-12_04h54.20.529,classification_task,2021.2.3,Win32,30.16045361,627c6715c52fd12f31907bd0,,,,,,,,,,,,,,,,,,,,,,,l,1,"[""0.118"",""0.207"",""0.575"",""0.683""]","[1,1,0,1]",0,27,27,27,1,1,1,,,0,FALSE,2.7185,,,,,,,,,,,,,,,,,,,,,,,,,,,,,,,
,5f08c7216770cf12736d00b2,627c762ad6d227817672cf5a,2022-05-12_04h54.20.529,classification_task,2021.2.3,Win32,30.16045361,627c6715c52fd12f31907bd0,,,,,,,,,,,,,,,,,,,,,,,l,1,"[""0.038"",""0.307"",""0.611"",""0.084""]","[1,1,1,0]",0,28,28,28,1,1,0,,,0,FALSE,2.0212,,,,,,,,,,,,,,,,,,,,,,,,,,,,,,,
,5f08c7216770cf12736d00b2,627c762ad6d227817672cf5a,2022-05-12_04h54.20.529,classification_task,2021.2.3,Win32,30.16045361,627c6715c52fd12f31907bd0,,,,,,,,,,,,,,,,,,,,,,,a,0,"[""0.459"",""0.207"",""0.529"",""0.683""]","[0,1,1,1]",0,29,29,29,1,1,1,,,0,FALSE,5.5444,,,,,,,,,,,,,,,,,,,,,,,,,,,,,,,
,5f08c7216770cf12736d00b2,627c762ad6d227817672cf5a,2022-05-12_04h54.20.529,classification_task,2021.2.3,Win32,30.16045361,627c6715c52fd12f31907bd0,,,,,,,,,,,,,,,,,,,,,,,a,1,"[""0.250"",""0.380"",""0.578"",""0.948""]","[1,1,0,1]",0,30,30,30,1,0,0,,,0,FALSE,3.7103,,,,,,,,,,,,,,,,,,,,,,,,,,,,,,,
,5f08c7216770cf12736d00b2,627c762ad6d227817672cf5a,2022-05-12_04h54.20.529,classification_task,2021.2.3,Win32,30.16045361,627c6715c52fd12f31907bd0,,,,,,,,,,,,,,,,,,,,,,,l,1,"[""0.118"",""0.578"",""0.529"",""0.683""]","[1,0,1,1]",0,31,31,31,1,1,1,,,0,FALSE,2.603,,,,,,,,,,,,,,,,,,,,,,,,,,,,,,,
,5f08c7216770cf12736d00b2,627c762ad6d227817672cf5a,2022-05-12_04h54.20.529,classification_task,2021.2.3,Win32,30.16045361,627c6715c52fd12f31907bd0,,,,,,,,,,,,,,,,,,,,,,,l,1,"[""0.118"",""0.207"",""0.575"",""0.683""]","[1,1,0,1]",0,32,32,32,1,1,1,,,0,FALSE,1.069,,,,,,,,,,,,,,,,,,,,,,,,,,,,,,,
,5f08c7216770cf12736d00b2,627c762ad6d227817672cf5a,2022-05-12_04h54.20.529,classification_task,2021.2.3,Win32,30.16045361,627c6715c52fd12f31907bd0,,,,,,,,,,,,,,,,,,,,,,,a,1,"[""0.168"",""0.449"",""0.814"",""0.848""]","[1,0,1,1]",0,33,33,33,1,0,1,,,0,FALSE,2.06,,,,,,,,,,,,,,,,,,,,,,,,,,,,,,,
,5f08c7216770cf12736d00b2,627c762ad6d227817672cf5a,2022-05-12_04h54.20.529,classification_task,2021.2.3,Win32,30.16045361,627c6715c52fd12f31907bd0,,,,,,,,,,,,,,,,,,,,,,,l,0,"[""0.472"",""0.415"",""0.814"",""0.848""]","[0,1,1,1]",0,34,34,34,1,0,1,,,0,FALSE,2.2519,,,,,,,,,,,,,,,,,,,,,,,,,,,,,,,
,5f08c7216770cf12736d00b2,627c762ad6d227817672cf5a,2022-05-12_04h54.20.529,classification_task,2021.2.3,Win32,30.16045361,627c6715c52fd12f31907bd0,,,,,,,,,,,,,,,,,,,,,,,a,0,"[""0.118"",""0.207"",""0.529"",""0.470""]","[1,1,1,0]",0,35,35,35,1,1,1,,,0,FALSE,1.35,,,,,,,,,,,,,,,,,,,,,,,,,,,,,,,
,5f08c7216770cf12736d00b2,627c762ad6d227817672cf5a,2022-05-12_04h54.20.529,classification_task,2021.2.3,Win32,30.16045361,627c6715c52fd12f31907bd0,,,,,,,,,,,,,,,,,,,,,,,a,1,"[""0.250"",""0.564"",""0.883"",""0.948""]","[1,0,1,1]",0,36,36,36,1,0,0,,,0,FALSE,1.6081,,,,,,,,,,,,,,,,,,,,,,,,,,,,,,,
,5f08c7216770cf12736d00b2,627c762ad6d227817672cf5a,2022-05-12_04h54.20.529,classification_task,2021.2.3,Win32,30.16045361,627c6715c52fd12f31907bd0,,,,,,,,,,,,,,,,,,,,,,,a,0,"[""0.076"",""0.207"",""0.529"",""0.683""]","[0,1,1,1]",0,37,37,37,1,1,1,,,0,FALSE,1.6885,,,,,,,,,,,,,,,,,,,,,,,,,,,,,,,
,5f08c7216770cf12736d00b2,627c762ad6d227817672cf5a,2022-05-12_04h54.20.529,classification_task,2021.2.3,Win32,30.16045361,627c6715c52fd12f31907bd0,,,,,,,,,,,,,,,,,,,,,,,l,1,"[""0.038"",""0.573"",""0.611"",""0.728""]","[1,0,1,1]",0,38,38,38,1,1,0,,,0,FALSE,0.5564,,,,,,,,,,,,,,,,,,,,,,,,,,,,,,,
,5f08c7216770cf12736d00b2,627c762ad6d227817672cf5a,2022-05-12_04h54.20.529,classification_task,2021.2.3,Win32,30.16045361,627c6715c52fd12f31907bd0,,,,,,,,,,,,,,,,,,,,,,,l,1,"[""0.118"",""0.483"",""0.529"",""0.683""]","[1,0,1,1]",0,39,39,39,1,1,1,,,0,FALSE,0.7672,,,,,,,,,,,,,,,,,,,,,,,,,,,,,,,
,5f08c7216770cf12736d00b2,627c762ad6d227817672cf5a,2022-05-12_04h54.20.529,classification_task,2021.2.3,Win32,30.16045361,627c6715c52fd12f31907bd0,,,,,,,,,,,,,,,,,,,,,,,a,0,"[""0.449"",""0.307"",""0.611"",""0.728""]","[0,1,1,1]",0,40,40,40,1,1,0,,,0,FALSE,1.0143,,,,,,,,,,,,,,,,,,,,,,,,,,,,,,,
,5f08c7216770cf12736d00b2,627c762ad6d227817672cf5a,2022-05-12_04h54.20.529,classification_task,2021.2.3,Win32,30.16045361,627c6715c52fd12f31907bd0,,,,,,,,,,,,,,,,,,,,,,,l,0,"[""0.250"",""0.380"",""0.649"",""0.948""]","[1,1,0,1]",0,41,41,41,1,0,0,,,0,FALSE,0.7124,,,,,,,,,,,,,,,,,,,,,,,,,,,,,,,
,5f08c7216770cf12736d00b2,627c762ad6d227817672cf5a,2022-05-12_04h54.20.529,classification_task,2021.2.3,Win32,30.16045361,627c6715c52fd12f31907bd0,,,,,,,,,,,,,,,,,,,,,,,l,1,"[""0.038"",""0.307"",""0.611"",""0.575""]","[1,1,1,0]",0,42,42,42,1,1,0,,,0,FALSE,0.713,,,,,,,,,,,,,,,,,,,,,,,,,,,,,,,
,5f08c7216770cf12736d00b2,627c762ad6d227817672cf5a,2022-05-12_04h54.20.529,classification_task,2021.2.3,Win32,30.16045361,627c6715c52fd12f31907bd0,,,,,,,,,,,,,,,,,,,,,,,l,0,"[""0.168"",""0.415"",""0.814"",""0.079""]","[1,1,1,0]",0,43,43,43,1,0,1,,,0,FALSE,0.9918,,,,,,,,,,,,,,,,,,,,,,,,,,,,,,,
,5f08c7216770cf12736d00b2,627c762ad6d227817672cf5a,2022-05-12_04h54.20.529,classification_task,2021.2.3,Win32,30.16045361,627c6715c52fd12f31907bd0,,,,,,,,,,,,,,,,,,,,,,,a,1,"[""0.472"",""0.380"",""0.883"",""0.948""]","[0,1,1,1]",0,44,44,44,1,0,0,,,0,FALSE,0.7346,,,,,,,,,,,,,,,,,,,,,,,,,,,,,,,
,5f08c7216770cf12736d00b2,627c762ad6d227817672cf5a,2022-05-12_04h54.20.529,classification_task,2021.2.3,Win32,30.16045361,627c6715c52fd12f31907bd0,,,,,,,,,,,,,,,,,,,,,,,a,1,"[""0.250"",""0.380"",""0.883"",""0.449""]","[1,1,1,0]",0,45,45,45,1,0,0,,,0,FALSE,1.1202,,,,,,,,,,,,,,,,,,,,,,,,,,,,,,,
,5f08c7216770cf12736d00b2,627c762ad6d227817672cf5a,2022-05-12_04h54.20.529,classification_task,2021.2.3,Win32,30.16045361,627c6715c52fd12f31907bd0,,,,,,,,,,,,,,,,,,,,,,,l,1,"[""0.038"",""0.307"",""0.084"",""0.728""]","[1,1,0,1]",0,46,46,46,1,1,0,,,0,FALSE,0.7323,,,,,,,,,,,,,,,,,,,,,,,,,,,,,,,
,5f08c7216770cf12736d00b2,627c762ad6d227817672cf5a,2022-05-12_04h54.20.529,classification_task,2021.2.3,Win32,30.16045361,627c6715c52fd12f31907bd0,,,,,,,,,,,,,,,,,,,,,,,a,1,"[""0.168"",""0.415"",""0.649"",""0.848""]","[1,1,0,1]",0,47,47,47,1,0,1,,,0,FALSE,0.9042,,,,,,,,,,,,,,,,,,,,,,,,,,,,,,,
,5f08c7216770cf12736d00b2,627c762ad6d227817672cf5a,2022-05-12_04h54.20.529,classification_task,2021.2.3,Win32,30.16045361,627c6715c52fd12f31907bd0,,,,,,,,,,,,,,,,,,,,,,,a,0,"[""0.649"",""0.307"",""0.611"",""0.728""]","[0,1,1,1]",0,48,48,48,1,1,0,,,0,FALSE,0.8424,,,,,,,,,,,,,,,,,,,,,,,,,,,,,,,
,5f08c7216770cf12736d00b2,627c762ad6d227817672cf5a,2022-05-12_04h54.20.529,classification_task,2021.2.3,Win32,30.16045361,627c6715c52fd12f31907bd0,,,,,,,,,,,,,,,,,,,,,,,a,1,"[""0.578"",""0.415"",""0.814"",""0.848""]","[0,1,1,1]",0,49,49,49,1,0,1,,,0,FALSE,1.1109,,,,,,,,,,,,,,,,,,,,,,,,,,,,,,,
,5f08c7216770cf12736d00b2,627c762ad6d227817672cf5a,2022-05-12_04h54.20.529,classification_task,2021.2.3,Win32,30.16045361,627c6715c52fd12f31907bd0,,,,,,,,,,,,,,,,,,,,,,,a,1,"[""0.250"",""0.380"",""0.883"",""0.470""]","[1,1,1,0]",0,50,50,50,1,0,0,,,0,FALSE,0.5905,,,,,,,,,,,,,,,,,,,,,,,,,,,,,,,
,5f08c7216770cf12736d00b2,627c762ad6d227817672cf5a,2022-05-12_04h54.20.529,classification_task,2021.2.3,Win32,30.16045361,627c6715c52fd12f31907bd0,,,,,,,,,,,,,,,,,,,,,,,l,1,"[""0.118"",""0.207"",""0.573"",""0.683""]","[1,1,0,1]",0,51,51,51,1,1,1,,,0,FALSE,1.1546,,,,,,,,,,,,,,,,,,,,,,,,,,,,,,,
,5f08c7216770cf12736d00b2,627c762ad6d227817672cf5a,2022-05-12_04h54.20.529,classification_task,2021.2.3,Win32,30.16045361,627c6715c52fd12f31907bd0,,,,,,,,,,,,,,,,,,,,,,,l,0,"[""0.168"",""0.084"",""0.814"",""0.848""]","[1,0,1,1]",0,52,52,52,1,0,1,,,0,FALSE,1.1622,,,,,,,,,,,,,,,,,,,,,,,,,,,,,,,
,5f08c7216770cf12736d00b2,627c762ad6d227817672cf5a,2022-05-12_04h54.20.529,classification_task,2021.2.3,Win32,30.16045361,627c6715c52fd12f31907bd0,,,,,,,,,,,,,,,,,,,,,,,a,1,"[""0.649"",""0.380"",""0.883"",""0.948""]","[0,1,1,1]",0,53,53,53,1,0,0,,,0,FALSE,0.6748,,,,,,,,,,,,,,,,,,,,,,,,,,,,,,,
,5f08c7216770cf12736d00b2,627c762ad6d227817672cf5a,2022-05-12_04h54.20.529,classification_task,2021.2.3,Win32,30.16045361,627c6715c52fd12f31907bd0,,,,,,,,,,,,,,,,,,,,,,,l,1,"[""0.038"",""0.307"",""0.470"",""0.728""]","[1,1,0,1]",0,54,54,54,1,1,0,,,0,FALSE,0.5052,,,,,,,,,,,,,,,,,,,,,,,,,,,,,,,
,5f08c7216770cf12736d00b2,627c762ad6d227817672cf5a,2022-05-12_04h54.20.529,classification_task,2021.2.3,Win32,30.16045361,627c6715c52fd12f31907bd0,,,,,,,,,,,,,,,,,,,,,,,a,1,"[""0.250"",""0.380"",""0.578"",""0.948""]","[1,1,0,1]",0,55,55,55,1,0,0,,,0,FALSE,0.5845,,,,,,,,,,,,,,,,,,,,,,,,,,,,,,,
,5f08c7216770cf12736d00b2,627c762ad6d227817672cf5a,2022-05-12_04h54.20.529,classification_task,2021.2.3,Win32,30.16045361,627c6715c52fd12f31907bd0,,,,,,,,,,,,,,,,,,,,,,,a,1,"[""0.168"",""0.415"",""0.814"",""0.483""]","[1,1,1,0]",0,56,56,56,1,0,1,,,0,FALSE,0.6907,,,,,,,,,,,,,,,,,,,,,,,,,,,,,,,
,5f08c7216770cf12736d00b2,627c762ad6d227817672cf5a,2022-05-12_04h54.20.529,classification_task,2021.2.3,Win32,30.16045361,627c6715c52fd12f31907bd0,,,,,,,,,,,,,,,,,,,,,,,l,1,"[""0.118"",""0.574"",""0.529"",""0.683""]","[1,0,1,1]",0,57,57,57,1,1,1,,,0,FALSE,0.5972,,,,,,,,,,,,,,,,,,,,,,,,,,,,,,,
,5f08c7216770cf12736d00b2,627c762ad6d227817672cf5a,2022-05-12_04h54.20.529,classification_task,2021.2.3,Win32,30.16045361,627c6715c52fd12f31907bd0,,,,,,,,,,,,,,,,,,,,,,,a,0,"[""0.038"",""0.307"",""0.611"",""0.564""]","[1,1,1,0]",0,58,58,58,1,1,0,,,0,FALSE,0.4832,,,,,,,,,,,,,,,,,,,,,,,,,,,,,,,
,5f08c7216770cf12736d00b2,627c762ad6d227817672cf5a,2022-05-12_04h54.20.529,classification_task,2021.2.3,Win32,30.16045361,627c6715c52fd12f31907bd0,,,,,,,,,,,,,,,,,,,,,,,l,1,"[""0.038"",""0.459"",""0.611"",""0.728""]","[1,0,1,1]",0,59,59,59,1,1,0,,,0,FALSE,0.587,,,,,,,,,,,,,,,,,,,,,,,,,,,,,,,
,5f08c7216770cf12736d00b2,627c762ad6d227817672cf5a,2022-05-12_04h54.20.529,classification_task,2021.2.3,Win32,30.16045361,627c6715c52fd12f31907bd0,,,,,,,,,,,,,,,,,,,,,,,a,1,"[""0.168"",""0.415"",""0.649"",""0.848""]","[1,1,0,1]",0,60,60,60,1,0,1,,,0,FALSE,0.6885,,,,,,,,,,,,,,,,,,,,,,,,,,,,,,,
,5f08c7216770cf12736d00b2,627c762ad6d227817672cf5a,2022-05-12_04h54.20.529,classification_task,2021.2.3,Win32,30.16045361,627c6715c52fd12f31907bd0,,,,,,,,,,,,,,,,,,,,,,,a,0,"[""0.118"",""0.207"",""0.529"",""0.574""]","[1,1,1,0]",0,61,61,61,1,1,1,,,0,FALSE,0.8422,,,,,,,,,,,,,,,,,,,,,,,,,,,,,,,
,5f08c7216770cf12736d00b2,627c762ad6d227817672cf5a,2022-05-12_04h54.20.529,classification_task,2021.2.3,Win32,30.16045361,627c6715c52fd12f31907bd0,,,,,,,,,,,,,,,,,,,,,,,a,1,"[""0.250"",""0.470"",""0.883"",""0.948""]","[1,0,1,1]",0,62,62,62,1,0,0,,,0,FALSE,0.5818,,,,,,,,,,,,,,,,,,,,,,,,,,,,,,,
,5f08c7216770cf12736d00b2,627c762ad6d227817672cf5a,2022-05-12_04h54.20.529,classification_task,2021.2.3,Win32,30.16045361,627c6715c52fd12f31907bd0,,,,,,,,,,,,,,,,,,,,,,,a,0,"[""0.573"",""0.207"",""0.529"",""0.683""]","[0,1,1,1]",0,63,63,63,1,1,1,,,0,FALSE,0.6026,,,,,,,,,,,,,,,,,,,,,,,,,,,,,,,
,5f08c7216770cf12736d00b2,627c762ad6d227817672cf5a,2022-05-12_04h54.20.529,classification_task,2021.2.3,Win32,30.16045361,627c6715c52fd12f31907bd0,,,,,,,,,,,,,,,,,,,,,,,,,,,,,,,,,,,,,,,0, ,,0,1.279761905,746.6931,0,0,0,0,1,2,1,,,,,,,,,,,,,,,,,,
,5f08c7216770cf12736d00b2,627c762ad6d227817672cf5a,2022-05-12_04h54.20.529,classification_task,2021.2.3,Win32,30.16045361,627c6715c52fd12f31907bd0,,,,,,,,,,,,,,,,,,,,,,,,,,,,,,,,,,,,,,,1,  ,,0,4.517746914,765.4027,0,0,0,0,1,2,1,,,,,,,,,,,,,,,,,,
,5f08c7216770cf12736d00b2,627c762ad6d227817672cf5a,2022-05-12_04h54.20.529,classification_task,2021.2.3,Win32,30.16045361,627c6715c52fd12f31907bd0,,,,,,,,,,,,,,,,,,,,,,,,,,,,,,,,,,,,,,,2,  ,,0,,,0,0,0,0,1,2,1,,,,,,,,,,,,,,,,,,
,5f08c7216770cf12736d00b2,627c762ad6d227817672cf5a,2022-05-12_04h54.20.529,classification_task,2021.2.3,Win32,30.16045361,627c6715c52fd12f31907bd0,,,,,,,,,,,,,,,,,,,,,,,,,,,,,,,,,,,,,,,,,,,,,0,0,0,0,1,,1,,,,,,,,,,,,,,,,,,
,5f08c7216770cf12736d00b2,627c762ad6d227817672cf5a,2022-05-12_04h54.20.529,classification_task,2021.2.3,Win32,30.16045361,627c6715c52fd12f31907bd0,,,,,,,,,,,,,,,,,,,,,space,52.474,l,1,"[""0.038"",""0.489"",""0.611"",""0.728""]","[1,0,1,1]",0,0,0,0,1,1,0,,,0,FALSE,1.6173,,,,,,,,,,,,,,,,,,,,,,,,,,,,,,,
,5f08c7216770cf12736d00b2,627c762ad6d227817672cf5a,2022-05-12_04h54.20.529,classification_task,2021.2.3,Win32,30.16045361,627c6715c52fd12f31907bd0,,,,,,,,,,,,,,,,,,,,,,,a,1,"[""0.250"",""0.084"",""0.883"",""0.948""]","[1,0,1,1]",0,1,1,1,1,0,0,,,0,FALSE,0.7173,,,,,,,,,,,,,,,,,,,,,,,,,,,,,,,
,5f08c7216770cf12736d00b2,627c762ad6d227817672cf5a,2022-05-12_04h54.20.529,classification_task,2021.2.3,Win32,30.16045361,627c6715c52fd12f31907bd0,,,,,,,,,,,,,,,,,,,,,,,a,0,"[""0.118"",""0.084"",""0.529"",""0.683""]","[1,0,1,1]",0,2,2,2,1,1,1,,,0,FALSE,1.8685,,,,,,,,,,,,,,,,,,,,,,,,,,,,,,,
,5f08c7216770cf12736d00b2,627c762ad6d227817672cf5a,2022-05-12_04h54.20.529,classification_task,2021.2.3,Win32,30.16045361,627c6715c52fd12f31907bd0,,,,,,,,,,,,,,,,,,,,,,,a,0,"[""0.118"",""0.207"",""0.574"",""0.683""]","[1,1,0,1]",0,3,3,3,1,1,1,,,0,FALSE,1.0949,,,,,,,,,,,,,,,,,,,,,,,,,,,,,,,
,5f08c7216770cf12736d00b2,627c762ad6d227817672cf5a,2022-05-12_04h54.20.529,classification_task,2021.2.3,Win32,30.16045361,627c6715c52fd12f31907bd0,,,,,,,,,,,,,,,,,,,,,,,a,1,"[""0.574"",""0.380"",""0.883"",""0.948""]","[0,1,1,1]",0,4,4,4,1,0,0,,,0,FALSE,2.4626,,,,,,,,,,,,,,,,,,,,,,,,,,,,,,,
,5f08c7216770cf12736d00b2,627c762ad6d227817672cf5a,2022-05-12_04h54.20.529,classification_task,2021.2.3,Win32,30.16045361,627c6715c52fd12f31907bd0,,,,,,,,,,,,,,,,,,,,,,,l,0,"[""0.168"",""0.415"",""0.814"",""0.489""]","[1,1,1,0]",0,5,5,5,1,0,1,,,0,FALSE,0.973,,,,,,,,,,,,,,,,,,,,,,,,,,,,,,,
,5f08c7216770cf12736d00b2,627c762ad6d227817672cf5a,2022-05-12_04h54.20.529,classification_task,2021.2.3,Win32,30.16045361,627c6715c52fd12f31907bd0,,,,,,,,,,,,,,,,,,,,,,,a,0,"[""0.038"",""0.307"",""0.449"",""0.728""]","[1,1,0,1]",0,6,6,6,1,1,0,,,0,FALSE,2.1291,,,,,,,,,,,,,,,,,,,,,,,,,,,,,,,
,5f08c7216770cf12736d00b2,627c762ad6d227817672cf5a,2022-05-12_04h54.20.529,classification_task,2021.2.3,Win32,30.16045361,627c6715c52fd12f31907bd0,,,,,,,,,,,,,,,,,,,,,,,a,1,"[""0.250"",""0.380"",""0.449"",""0.948""]","[1,1,0,1]",0,7,7,7,1,0,0,,,0,FALSE,1.0947,,,,,,,,,,,,,,,,,,,,,,,,,,,,,,,
,5f08c7216770cf12736d00b2,627c762ad6d227817672cf5a,2022-05-12_04h54.20.529,classification_task,2021.2.3,Win32,30.16045361,627c6715c52fd12f31907bd0,,,,,,,,,,,,,,,,,,,,,,,l,1,"[""0.038"",""0.307"",""0.611"",""0.449""]","[1,1,1,0]",0,8,8,8,1,1,0,,,0,FALSE,0.6782,,,,,,,,,,,,,,,,,,,,,,,,,,,,,,,
,5f08c7216770cf12736d00b2,627c762ad6d227817672cf5a,2022-05-12_04h54.20.529,classification_task,2021.2.3,Win32,30.16045361,627c6715c52fd12f31907bd0,,,,,,,,,,,,,,,,,,,,,,,a,1,"[""0.250"",""0.380"",""0.883"",""0.574""]","[1,1,1,0]",0,9,9,9,1,0,0,,,0,FALSE,0.715,,,,,,,,,,,,,,,,,,,,,,,,,,,,,,,
,5f08c7216770cf12736d00b2,627c762ad6d227817672cf5a,2022-05-12_04h54.20.529,classification_task,2021.2.3,Win32,30.16045361,627c6715c52fd12f31907bd0,,,,,,,,,,,,,,,,,,,,,,,l,1,"[""0.483"",""0.307"",""0.611"",""0.728""]","[0,1,1,1]",0,10,10,10,1,1,0,,,0,FALSE,0.8252,,,,,,,,,,,,,,,,,,,,,,,,,,,,,,,
,5f08c7216770cf12736d00b2,627c762ad6d227817672cf5a,2022-05-12_04h54.20.529,classification_task,2021.2.3,Win32,30.16045361,627c6715c52fd12f31907bd0,,,,,,,,,,,,,,,,,,,,,,,a,1,"[""0.168"",""0.084"",""0.814"",""0.848""]","[1,0,1,1]",0,11,11,11,1,0,1,,,0,FALSE,1.3606,,,,,,,,,,,,,,,,,,,,,,,,,,,,,,,
,5f08c7216770cf12736d00b2,627c762ad6d227817672cf5a,2022-05-12_04h54.20.529,classification_task,2021.2.3,Win32,30.16045361,627c6715c52fd12f31907bd0,,,,,,,,,,,,,,,,,,,,,,,a,1,"[""0.168"",""0.415"",""0.459"",""0.848""]","[1,1,0,1]",0,12,12,12,1,0,1,,,0,FALSE,1.0917,,,,,,,,,,,,,,,,,,,,,,,,,,,,,,,
,5f08c7216770cf12736d00b2,627c762ad6d227817672cf5a,2022-05-12_04h54.20.529,classification_task,2021.2.3,Win32,30.16045361,627c6715c52fd12f31907bd0,,,,,,,,,,,,,,,,,,,,,,,a,0,"[""0.118"",""0.207"",""0.529"",""0.076""]","[1,1,1,0]",0,13,13,13,1,1,1,,,0,FALSE,0.8461,,,,,,,,,,,,,,,,,,,,,,,,,,,,,,,
,5f08c7216770cf12736d00b2,627c762ad6d227817672cf5a,2022-05-12_04h54.20.529,classification_task,2021.2.3,Win32,30.16045361,627c6715c52fd12f31907bd0,,,,,,,,,,,,,,,,,,,,,,,l,0,"[""0.472"",""0.415"",""0.814"",""0.848""]","[0,1,1,1]",0,14,14,14,1,0,1,,,0,FALSE,0.9528,,,,,,,,,,,,,,,,,,,,,,,,,,,,,,,
,5f08c7216770cf12736d00b2,627c762ad6d227817672cf5a,2022-05-12_04h54.20.529,classification_task,2021.2.3,Win32,30.16045361,627c6715c52fd12f31907bd0,,,,,,,,,,,,,,,,,,,,,,,a,0,"[""0.459"",""0.207"",""0.529"",""0.683""]","[0,1,1,1]",0,15,15,15,1,1,1,,,0,FALSE,0.5804,,,,,,,,,,,,,,,,,,,,,,,,,,,,,,,
,5f08c7216770cf12736d00b2,627c762ad6d227817672cf5a,2022-05-12_04h54.20.529,classification_task,2021.2.3,Win32,30.16045361,627c6715c52fd12f31907bd0,,,,,,,,,,,,,,,,,,,,,,,a,1,"[""0.168"",""0.415"",""0.814"",""0.079""]","[1,1,1,0]",0,16,16,16,1,0,1,,,0,FALSE,0.6249,,,,,,,,,,,,,,,,,,,,,,,,,,,,,,,
,5f08c7216770cf12736d00b2,627c762ad6d227817672cf5a,2022-05-12_04h54.20.529,classification_task,2021.2.3,Win32,30.16045361,627c6715c52fd12f31907bd0,,,,,,,,,,,,,,,,,,,,,,,a,1,"[""0.168"",""0.483"",""0.814"",""0.848""]","[1,0,1,1]",0,17,17,17,1,0,1,,,0,FALSE,0.8419,,,,,,,,,,,,,,,,,,,,,,,,,,,,,,,
,5f08c7216770cf12736d00b2,627c762ad6d227817672cf5a,2022-05-12_04h54.20.529,classification_task,2021.2.3,Win32,30.16045361,627c6715c52fd12f31907bd0,,,,,,,,,,,,,,,,,,,,,,,a,1,"[""0.250"",""0.380"",""0.883"",""0.483""]","[1,1,1,0]",0,18,18,18,1,0,0,,,0,FALSE,1.2074,,,,,,,,,,,,,,,,,,,,,,,,,,,,,,,
,5f08c7216770cf12736d00b2,627c762ad6d227817672cf5a,2022-05-12_04h54.20.529,classification_task,2021.2.3,Win32,30.16045361,627c6715c52fd12f31907bd0,,,,,,,,,,,,,,,,,,,,,,,a,1,"[""0.168"",""0.415"",""0.578"",""0.848""]","[1,1,0,1]",0,19,19,19,1,0,1,,,0,FALSE,0.8705,,,,,,,,,,,,,,,,,,,,,,,,,,,,,,,
,5f08c7216770cf12736d00b2,627c762ad6d227817672cf5a,2022-05-12_04h54.20.529,classification_task,2021.2.3,Win32,30.16045361,627c6715c52fd12f31907bd0,,,,,,,,,,,,,,,,,,,,,,,a,1,"[""0.250"",""0.380"",""0.578"",""0.948""]","[1,1,0,1]",0,20,20,20,1,0,0,,,0,FALSE,0.7372,,,,,,,,,,,,,,,,,,,,,,,,,,,,,,,
,5f08c7216770cf12736d00b2,627c762ad6d227817672cf5a,2022-05-12_04h54.20.529,classification_task,2021.2.3,Win32,30.16045361,627c6715c52fd12f31907bd0,,,,,,,,,,,,,,,,,,,,,,,a,0,"[""0.118"",""0.207"",""0.529"",""0.578""]","[1,1,1,0]",0,21,21,21,1,1,1,,,0,FALSE,0.6489,,,,,,,,,,,,,,,,,,,,,,,,,,,,,,,
,5f08c7216770cf12736d00b2,627c762ad6d227817672cf5a,2022-05-12_04h54.20.529,classification_task,2021.2.3,Win32,30.16045361,627c6715c52fd12f31907bd0,,,,,,,,,,,,,,,,,,,,,,,a,0,"[""0.575"",""0.207"",""0.529"",""0.683""]","[0,1,1,1]",0,22,22,22,1,1,1,,,0,FALSE,0.7732,,,,,,,,,,,,,,,,,,,,,,,,,,,,,,,
,5f08c7216770cf12736d00b2,627c762ad6d227817672cf5a,2022-05-12_04h54.20.529,classification_task,2021.2.3,Win32,30.16045361,627c6715c52fd12f31907bd0,,,,,,,,,,,,,,,,,,,,,,,l,1,"[""0.084"",""0.307"",""0.611"",""0.728""]","[0,1,1,1]",0,23,23,23,1,1,0,,,0,FALSE,1.0451,,,,,,,,,,,,,,,,,,,,,,,,,,,,,,,
,5f08c7216770cf12736d00b2,627c762ad6d227817672cf5a,2022-05-12_04h54.20.529,classification_task,2021.2.3,Win32,30.16045361,627c6715c52fd12f31907bd0,,,,,,,,,,,,,,,,,,,,,,,a,1,"[""0.250"",""0.649"",""0.883"",""0.948""]","[1,0,1,1]",0,24,24,24,1,0,0,,,0,FALSE,0.7178,,,,,,,,,,,,,,,,,,,,,,,,,,,,,,,
,5f08c7216770cf12736d00b2,627c762ad6d227817672cf5a,2022-05-12_04h54.20.529,classification_task,2021.2.3,Win32,30.16045361,627c6715c52fd12f31907bd0,,,,,,,,,,,,,,,,,,,,,,,l,1,"[""0.038"",""0.307"",""0.611"",""0.578""]","[1,1,1,0]",0,25,25,25,1,1,0,,,0,FALSE,1.5844,,,,,,,,,,,,,,,,,,,,,,,,,,,,,,,
,5f08c7216770cf12736d00b2,627c762ad6d227817672cf5a,2022-05-12_04h54.20.529,classification_task,2021.2.3,Win32,30.16045361,627c6715c52fd12f31907bd0,,,,,,,,,,,,,,,,,,,,,,,l,1,"[""0.038"",""0.307"",""0.574"",""0.728""]","[1,1,0,1]",0,26,26,26,1,1,0,,,0,FALSE,0.7905,,,,,,,,,,,,,,,,,,,,,,,,,,,,,,,
,5f08c7216770cf12736d00b2,627c762ad6d227817672cf5a,2022-05-12_04h54.20.529,classification_task,2021.2.3,Win32,30.16045361,627c6715c52fd12f31907bd0,,,,,,,,,,,,,,,,,,,,,,,a,1,"[""0.076"",""0.380"",""0.883"",""0.948""]","[0,1,1,1]",0,27,27,27,1,0,0,,,0,FALSE,0.955,,,,,,,,,,,,,,,,,,,,,,,,,,,,,,,
,5f08c7216770cf12736d00b2,627c762ad6d227817672cf5a,2022-05-12_04h54.20.529,classification_task,2021.2.3,Win32,30.16045361,627c6715c52fd12f31907bd0,,,,,,,,,,,,,,,,,,,,,,,a,0,"[""0.118"",""0.573"",""0.529"",""0.683""]","[1,0,1,1]",0,28,28,28,1,1,1,,,0,FALSE,0.958,,,,,,,,,,,,,,,,,,,,,,,,,,,,,,,
,5f08c7216770cf12736d00b2,627c762ad6d227817672cf5a,2022-05-12_04h54.20.529,classification_task,2021.2.3,Win32,30.16045361,627c6715c52fd12f31907bd0,,,,,,,,,,,,,,,,,,,,,,,l,1,"[""0.118"",""0.207"",""0.573"",""0.683""]","[1,1,0,1]",0,29,29,29,1,1,1,,,0,FALSE,1.2768,,,,,,,,,,,,,,,,,,,,,,,,,,,,,,,
,5f08c7216770cf12736d00b2,627c762ad6d227817672cf5a,2022-05-12_04h54.20.529,classification_task,2021.2.3,Win32,30.16045361,627c6715c52fd12f31907bd0,,,,,,,,,,,,,,,,,,,,,,,l,1,"[""0.038"",""0.079"",""0.611"",""0.728""]","[1,0,1,1]",0,30,30,30,1,1,0,,,0,FALSE,1.9995,,,,,,,,,,,,,,,,,,,,,,,,,,,,,,,
,5f08c7216770cf12736d00b2,627c762ad6d227817672cf5a,2022-05-12_04h54.20.529,classification_task,2021.2.3,Win32,30.16045361,627c6715c52fd12f31907bd0,,,,,,,,,,,,,,,,,,,,,,,a,1,"[""0.449"",""0.415"",""0.814"",""0.848""]","[0,1,1,1]",0,31,31,31,1,0,1,,,0,FALSE,1.2821,,,,,,,,,,,,,,,,,,,,,,,,,,,,,,,
,5f08c7216770cf12736d00b2,627c762ad6d227817672cf5a,2022-05-12_04h54.20.529,classification_task,2021.2.3,Win32,30.16045361,627c6715c52fd12f31907bd0,,,,,,,,,,,,,,,,,,,,,,,l,1,"[""0.038"",""0.307"",""0.611"",""0.649""]","[1,1,1,0]",0,32,32,32,1,1,0,,,0,FALSE,1.7883,,,,,,,,,,,,,,,,,,,,,,,,,,,,,,,
,5f08c7216770cf12736d00b2,627c762ad6d227817672cf5a,2022-05-12_04h54.20.529,classification_task,2021.2.3,Win32,30.16045361,627c6715c52fd12f31907bd0,,,,,,,,,,,,,,,,,,,,,,,l,1,"[""0.489"",""0.307"",""0.611"",""0.728""]","[0,1,1,1]",0,33,33,33,1,1,0,,,0,FALSE,0.5972,,,,,,,,,,,,,,,,,,,,,,,,,,,,,,,
,5f08c7216770cf12736d00b2,627c762ad6d227817672cf5a,2022-05-12_04h54.20.529,classification_task,2021.2.3,Win32,30.16045361,627c6715c52fd12f31907bd0,,,,,,,,,,,,,,,,,,,,,,,a,1,"[""0.250"",""0.380"",""0.483"",""0.948""]","[1,1,0,1]",0,34,34,34,1,0,0,,,0,FALSE,0.6477,,,,,,,,,,,,,,,,,,,,,,,,,,,,,,,
,5f08c7216770cf12736d00b2,627c762ad6d227817672cf5a,2022-05-12_04h54.20.529,classification_task,2021.2.3,Win32,30.16045361,627c6715c52fd12f31907bd0,,,,,,,,,,,,,,,,,,,,,,,l,1,"[""0.038"",""0.307"",""0.459"",""0.728""]","[1,1,0,1]",0,35,35,35,1,1,0,,,0,FALSE,0.7122,,,,,,,,,,,,,,,,,,,,,,,,,,,,,,,
,5f08c7216770cf12736d00b2,627c762ad6d227817672cf5a,2022-05-12_04h54.20.529,classification_task,2021.2.3,Win32,30.16045361,627c6715c52fd12f31907bd0,,,,,,,,,,,,,,,,,,,,,,,a,1,"[""0.250"",""0.574"",""0.883"",""0.948""]","[1,0,1,1]",0,36,36,36,1,0,0,,,0,FALSE,0.6279,,,,,,,,,,,,,,,,,,,,,,,,,,,,,,,
,5f08c7216770cf12736d00b2,627c762ad6d227817672cf5a,2022-05-12_04h54.20.529,classification_task,2021.2.3,Win32,30.16045361,627c6715c52fd12f31907bd0,,,,,,,,,,,,,,,,,,,,,,,l,0,"[""0.483"",""0.380"",""0.883"",""0.948""]","[0,1,1,1]",0,37,37,37,1,0,0,,,0,FALSE,0.7352,,,,,,,,,,,,,,,,,,,,,,,,,,,,,,,
,5f08c7216770cf12736d00b2,627c762ad6d227817672cf5a,2022-05-12_04h54.20.529,classification_task,2021.2.3,Win32,30.16045361,627c6715c52fd12f31907bd0,,,,,,,,,,,,,,,,,,,,,,,a,0,"[""0.118"",""0.207"",""0.529"",""0.076""]","[1,1,1,0]",0,38,38,38,1,1,1,,,0,FALSE,0.9394,,,,,,,,,,,,,,,,,,,,,,,,,,,,,,,
,5f08c7216770cf12736d00b2,627c762ad6d227817672cf5a,2022-05-12_04h54.20.529,classification_task,2021.2.3,Win32,30.16045361,627c6715c52fd12f31907bd0,,,,,,,,,,,,,,,,,,,,,,,l,1,"[""0.118"",""0.574"",""0.529"",""0.683""]","[1,0,1,1]",0,39,39,39,1,1,1,,,0,FALSE,0.7428,,,,,,,,,,,,,,,,,,,,,,,,,,,,,,,
,5f08c7216770cf12736d00b2,627c762ad6d227817672cf5a,2022-05-12_04h54.20.529,classification_task,2021.2.3,Win32,30.16045361,627c6715c52fd12f31907bd0,,,,,,,,,,,,,,,,,,,,,,,l,1,"[""0.038"",""0.079"",""0.611"",""0.728""]","[1,0,1,1]",0,40,40,40,1,1,0,,,0,FALSE,0.9171,,,,,,,,,,,,,,,,,,,,,,,,,,,,,,,
,5f08c7216770cf12736d00b2,627c762ad6d227817672cf5a,2022-05-12_04h54.20.529,classification_task,2021.2.3,Win32,30.16045361,627c6715c52fd12f31907bd0,,,,,,,,,,,,,,,,,,,,,,,a,1,"[""0.250"",""0.380"",""0.883"",""0.489""]","[1,1,1,0]",0,41,41,41,1,0,0,,,0,FALSE,0.6085,,,,,,,,,,,,,,,,,,,,,,,,,,,,,,,
,5f08c7216770cf12736d00b2,627c762ad6d227817672cf5a,2022-05-12_04h54.20.529,classification_task,2021.2.3,Win32,30.16045361,627c6715c52fd12f31907bd0,,,,,,,,,,,,,,,,,,,,,,,l,1,"[""0.118"",""0.207"",""0.564"",""0.683""]","[1,1,0,1]",0,42,42,42,1,1,1,,,0,FALSE,0.7498,,,,,,,,,,,,,,,,,,,,,,,,,,,,,,,
,5f08c7216770cf12736d00b2,627c762ad6d227817672cf5a,2022-05-12_04h54.20.529,classification_task,2021.2.3,Win32,30.16045361,627c6715c52fd12f31907bd0,,,,,,,,,,,,,,,,,,,,,,,l,0,"[""0.168"",""0.079"",""0.814"",""0.848""]","[1,0,1,1]",0,43,43,43,1,0,1,,,0,FALSE,0.7774,,,,,,,,,,,,,,,,,,,,,,,,,,,,,,,
,5f08c7216770cf12736d00b2,627c762ad6d227817672cf5a,2022-05-12_04h54.20.529,classification_task,2021.2.3,Win32,30.16045361,627c6715c52fd12f31907bd0,,,,,,,,,,,,,,,,,,,,,,,a,1,"[""0.168"",""0.415"",""0.564"",""0.848""]","[1,1,0,1]",0,44,44,44,1,0,1,,,0,FALSE,0.5874,,,,,,,,,,,,,,,,,,,,,,,,,,,,,,,
,5f08c7216770cf12736d00b2,627c762ad6d227817672cf5a,2022-05-12_04h54.20.529,classification_task,2021.2.3,Win32,30.16045361,627c6715c52fd12f31907bd0,,,,,,,,,,,,,,,,,,,,,,,l,1,"[""0.084"",""0.207"",""0.529"",""0.683""]","[0,1,1,1]",0,45,45,45,1,1,1,,,0,FALSE,0.832,,,,,,,,,,,,,,,,,,,,,,,,,,,,,,,
,5f08c7216770cf12736d00b2,627c762ad6d227817672cf5a,2022-05-12_04h54.20.529,classification_task,2021.2.3,Win32,30.16045361,627c6715c52fd12f31907bd0,,,,,,,,,,,,,,,,,,,,,,,l,0,"[""0.084"",""0.415"",""0.814"",""0.848""]","[0,1,1,1]",0,46,46,46,1,0,1,,,0,FALSE,0.6635,,,,,,,,,,,,,,,,,,,,,,,,,,,,,,,
,5f08c7216770cf12736d00b2,627c762ad6d227817672cf5a,2022-05-12_04h54.20.529,classification_task,2021.2.3,Win32,30.16045361,627c6715c52fd12f31907bd0,,,,,,,,,,,,,,,,,,,,,,,a,1,"[""0.168"",""0.415"",""0.814"",""0.483""]","[1,1,1,0]",0,47,47,47,1,0,1,,,0,FALSE,0.5979,,,,,,,,,,,,,,,,,,,,,,,,,,,,,,,
,5f08c7216770cf12736d00b2,627c762ad6d227817672cf5a,2022-05-12_04h54.20.529,classification_task,2021.2.3,Win32,30.16045361,627c6715c52fd12f31907bd0,,,,,,,,,,,,,,,,,,,,,,,a,1,"[""0.250"",""0.084"",""0.883"",""0.948""]","[1,0,1,1]",0,48,48,48,1,0,0,,,0,FALSE,0.7565,,,,,,,,,,,,,,,,,,,,,,,,,,,,,,,
,5f08c7216770cf12736d00b2,627c762ad6d227817672cf5a,2022-05-12_04h54.20.529,classification_task,2021.2.3,Win32,30.16045361,627c6715c52fd12f31907bd0,,,,,,,,,,,,,,,,,,,,,,,l,0,"[""0.575"",""0.415"",""0.814"",""0.848""]","[0,1,1,1]",0,49,49,49,1,0,1,,,0,FALSE,1.0291,,,,,,,,,,,,,,,,,,,,,,,,,,,,,,,
,5f08c7216770cf12736d00b2,627c762ad6d227817672cf5a,2022-05-12_04h54.20.529,classification_task,2021.2.3,Win32,30.16045361,627c6715c52fd12f31907bd0,,,,,,,,,,,,,,,,,,,,,,,a,1,"[""0.250"",""0.380"",""0.578"",""0.948""]","[1,1,0,1]",0,50,50,50,1,0,0,,,0,FALSE,0.6085,,,,,,,,,,,,,,,,,,,,,,,,,,,,,,,
,5f08c7216770cf12736d00b2,627c762ad6d227817672cf5a,2022-05-12_04h54.20.529,classification_task,2021.2.3,Win32,30.16045361,627c6715c52fd12f31907bd0,,,,,,,,,,,,,,,,,,,,,,,l,1,"[""0.449"",""0.307"",""0.611"",""0.728""]","[0,1,1,1]",0,51,51,51,1,1,0,,,0,FALSE,1.623,,,,,,,,,,,,,,,,,,,,,,,,,,,,,,,
,5f08c7216770cf12736d00b2,627c762ad6d227817672cf5a,2022-05-12_04h54.20.529,classification_task,2021.2.3,Win32,30.16045361,627c6715c52fd12f31907bd0,,,,,,,,,,,,,,,,,,,,,,,l,1,"[""0.038"",""0.307"",""0.649"",""0.728""]","[1,1,0,1]",0,52,52,52,1,1,0,,,0,FALSE,1.0646,,,,,,,,,,,,,,,,,,,,,,,,,,,,,,,
,5f08c7216770cf12736d00b2,627c762ad6d227817672cf5a,2022-05-12_04h54.20.529,classification_task,2021.2.3,Win32,30.16045361,627c6715c52fd12f31907bd0,,,,,,,,,,,,,,,,,,,,,,,a,0,"[""0.118"",""0.207"",""0.483"",""0.683""]","[1,1,0,1]",0,53,53,53,1,1,1,,,0,FALSE,1.3095,,,,,,,,,,,,,,,,,,,,,,,,,,,,,,,
,5f08c7216770cf12736d00b2,627c762ad6d227817672cf5a,2022-05-12_04h54.20.529,classification_task,2021.2.3,Win32,30.16045361,627c6715c52fd12f31907bd0,,,,,,,,,,,,,,,,,,,,,,,l,1,"[""0.038"",""0.574"",""0.611"",""0.728""]","[1,0,1,1]",0,54,54,54,1,1,0,,,0,FALSE,1.5701,,,,,,,,,,,,,,,,,,,,,,,,,,,,,,,
,5f08c7216770cf12736d00b2,627c762ad6d227817672cf5a,2022-05-12_04h54.20.529,classification_task,2021.2.3,Win32,30.16045361,627c6715c52fd12f31907bd0,,,,,,,,,,,,,,,,,,,,,,,a,1,"[""0.168"",""0.649"",""0.814"",""0.848""]","[1,0,1,1]",0,55,55,55,1,0,1,,,0,FALSE,1.2276,,,,,,,,,,,,,,,,,,,,,,,,,,,,,,,
,5f08c7216770cf12736d00b2,627c762ad6d227817672cf5a,2022-05-12_04h54.20.529,classification_task,2021.2.3,Win32,30.16045361,627c6715c52fd12f31907bd0,,,,,,,,,,,,,,,,,,,,,,,a,1,"[""0.168"",""0.415"",""0.814"",""0.084""]","[1,1,1,0]",0,56,56,56,1,0,1,,,0,FALSE,0.8041,,,,,,,,,,,,,,,,,,,,,,,,,,,,,,,
,5f08c7216770cf12736d00b2,627c762ad6d227817672cf5a,2022-05-12_04h54.20.529,classification_task,2021.2.3,Win32,30.16045361,627c6715c52fd12f31907bd0,,,,,,,,,,,,,,,,,,,,,,,a,0,"[""0.118"",""0.207"",""0.529"",""0.472""]","[1,1,1,0]",0,57,57,57,1,1,1,,,0,FALSE,0.9526,,,,,,,,,,,,,,,,,,,,,,,,,,,,,,,
,5f08c7216770cf12736d00b2,627c762ad6d227817672cf5a,2022-05-12_04h54.20.529,classification_task,2021.2.3,Win32,30.16045361,627c6715c52fd12f31907bd0,,,,,,,,,,,,,,,,,,,,,,,l,0,"[""0.168"",""0.415"",""0.459"",""0.848""]","[1,1,0,1]",0,58,58,58,1,0,1,,,0,FALSE,0.7555,,,,,,,,,,,,,,,,,,,,,,,,,,,,,,,
,5f08c7216770cf12736d00b2,627c762ad6d227817672cf5a,2022-05-12_04h54.20.529,classification_task,2021.2.3,Win32,30.16045361,627c6715c52fd12f31907bd0,,,,,,,,,,,,,,,,,,,,,,,a,0,"[""0.118"",""0.459"",""0.529"",""0.683""]","[1,0,1,1]",0,59,59,59,1,1,1,,,0,FALSE,0.5553,,,,,,,,,,,,,,,,,,,,,,,,,,,,,,,
,5f08c7216770cf12736d00b2,627c762ad6d227817672cf5a,2022-05-12_04h54.20.529,classification_task,2021.2.3,Win32,30.16045361,627c6715c52fd12f31907bd0,,,,,,,,,,,,,,,,,,,,,,,a,0,"[""0.084"",""0.207"",""0.529"",""0.683""]","[0,1,1,1]",0,60,60,60,1,1,1,,,0,FALSE,0.5387,,,,,,,,,,,,,,,,,,,,,,,,,,,,,,,
,5f08c7216770cf12736d00b2,627c762ad6d227817672cf5a,2022-05-12_04h54.20.529,classification_task,2021.2.3,Win32,30.16045361,627c6715c52fd12f31907bd0,,,,,,,,,,,,,,,,,,,,,,,a,1,"[""0.250"",""0.380"",""0.883"",""0.472""]","[1,1,1,0]",0,61,61,61,1,0,0,,,0,FALSE,0.5608,,,,,,,,,,,,,,,,,,,,,,,,,,,,,,,
,5f08c7216770cf12736d00b2,627c762ad6d227817672cf5a,2022-05-12_04h54.20.529,classification_task,2021.2.3,Win32,30.16045361,627c6715c52fd12f31907bd0,,,,,,,,,,,,,,,,,,,,,,,l,1,"[""0.038"",""0.307"",""0.611"",""0.076""]","[1,1,1,0]",0,62,62,62,1,1,0,,,0,FALSE,0.9335,,,,,,,,,,,,,,,,,,,,,,,,,,,,,,,
,5f08c7216770cf12736d00b2,627c762ad6d227817672cf5a,2022-05-12_04h54.20.529,classification_task,2021.2.3,Win32,30.16045361,627c6715c52fd12f31907bd0,,,,,,,,,,,,,,,,,,,,,,,a,1,"[""0.489"",""0.380"",""0.883"",""0.948""]","[0,1,1,1]",0,63,63,63,1,0,0,,,0,FALSE,1.9716,,,,,,,,,,,,,,,,,,,,,,,,,,,,,,,
,5f08c7216770cf12736d00b2,627c762ad6d227817672cf5a,2022-05-12_04h54.20.529,classification_task,2021.2.3,Win32,30.16045361,627c6715c52fd12f31907bd0,,,,,,,,,,,,,,,,,,,,,,,,,,,,,,,,,,,,,,,0, ,,0,1.865354938,206.8657,0,1,1,1,1,2,2,,,,,,,,,,,,,,,,,,
,5f08c7216770cf12736d00b2,627c762ad6d227817672cf5a,2022-05-12_04h54.20.529,classification_task,2021.2.3,Win32,30.16045361,627c6715c52fd12f31907bd0,,,,,,,,,,,,,,,,,,,,,,,,,,,,,,,,,,,,,,,1,  ,,0,5.034446649,201.2292,0,1,1,1,1,2,2,,,,,,,,,,,,,,,,,,
,5f08c7216770cf12736d00b2,627c762ad6d227817672cf5a,2022-05-12_04h54.20.529,classification_task,2021.2.3,Win32,30.16045361,627c6715c52fd12f31907bd0,,,,,,,,,,,,,,,,,,,,,,,,,,,,,,,,,,,,,,,2,  ,,0,2.003141534,220.1906,0,1,1,1,1,2,2,,,,,,,,,,,,,,,,,,
,5f08c7216770cf12736d00b2,627c762ad6d227817672cf5a,2022-05-12_04h54.20.529,classification_task,2021.2.3,Win32,30.16045361,627c6715c52fd12f31907bd0,,,,,,,,,,,,,,,,,,,,,,,,,,,,,,,,,,,,,,,,,,,,,0,1,1,1,1,,2,,,,,,,,,,,,,,,,,,
,5f08c7216770cf12736d00b2,627c762ad6d227817672cf5a,2022-05-12_04h54.20.529,classification_task,2021.2.3,Win32,30.16045361,627c6715c52fd12f31907bd0,,,,,,,,,,,,,,,,,,,,,space,9.2696,a,1,"[""0.168"",""0.415"",""0.575"",""0.848""]","[1,1,0,1]",0,0,0,0,1,0,1,,,0,FALSE,2.1609,,,,,,,,,,,,,,,,,,,,,,,,,,,,,,,
,5f08c7216770cf12736d00b2,627c762ad6d227817672cf5a,2022-05-12_04h54.20.529,classification_task,2021.2.3,Win32,30.16045361,627c6715c52fd12f31907bd0,,,,,,,,,,,,,,,,,,,,,,,a,0,"[""0.118"",""0.207"",""0.574"",""0.683""]","[1,1,0,1]",0,1,1,1,1,1,1,,,0,FALSE,2.2511,,,,,,,,,,,,,,,,,,,,,,,,,,,,,,,
,5f08c7216770cf12736d00b2,627c762ad6d227817672cf5a,2022-05-12_04h54.20.529,classification_task,2021.2.3,Win32,30.16045361,627c6715c52fd12f31907bd0,,,,,,,,,,,,,,,,,,,,,,,l,0,"[""0.575"",""0.415"",""0.814"",""0.848""]","[0,1,1,1]",0,2,2,2,1,0,1,,,0,FALSE,0.8912,,,,,,,,,,,,,,,,,,,,,,,,,,,,,,,
,5f08c7216770cf12736d00b2,627c762ad6d227817672cf5a,2022-05-12_04h54.20.529,classification_task,2021.2.3,Win32,30.16045361,627c6715c52fd12f31907bd0,,,,,,,,,,,,,,,,,,,,,,,l,1,"[""0.038"",""0.472"",""0.611"",""0.728""]","[1,0,1,1]",0,3,3,3,1,1,0,,,0,FALSE,2.1307,,,,,,,,,,,,,,,,,,,,,,,,,,,,,,,
,5f08c7216770cf12736d00b2,627c762ad6d227817672cf5a,2022-05-12_04h54.20.529,classification_task,2021.2.3,Win32,30.16045361,627c6715c52fd12f31907bd0,,,,,,,,,,,,,,,,,,,,,,,a,0,"[""0.038"",""0.307"",""0.611"",""0.470""]","[1,1,1,0]",0,4,4,4,1,1,0,,,0,FALSE,3.4821,,,,,,,,,,,,,,,,,,,,,,,,,,,,,,,
,5f08c7216770cf12736d00b2,627c762ad6d227817672cf5a,2022-05-12_04h54.20.529,classification_task,2021.2.3,Win32,30.16045361,627c6715c52fd12f31907bd0,,,,,,,,,,,,,,,,,,,,,,,a,0,"[""0.578"",""0.307"",""0.611"",""0.728""]","[0,1,1,1]",0,5,5,5,1,1,0,,,0,FALSE,2.0969,,,,,,,,,,,,,,,,,,,,,,,,,,,,,,,
,5f08c7216770cf12736d00b2,627c762ad6d227817672cf5a,2022-05-12_04h54.20.529,classification_task,2021.2.3,Win32,30.16045361,627c6715c52fd12f31907bd0,,,,,,,,,,,,,,,,,,,,,,,a,1,"[""0.250"",""0.472"",""0.883"",""0.948""]","[1,0,1,1]",0,6,6,6,1,0,0,,,0,FALSE,4.5381,,,,,,,,,,,,,,,,,,,,,,,,,,,,,,,
,5f08c7216770cf12736d00b2,627c762ad6d227817672cf5a,2022-05-12_04h54.20.529,classification_task,2021.2.3,Win32,30.16045361,627c6715c52fd12f31907bd0,,,,,,,,,,,,,,,,,,,,,,,l,1,"[""0.118"",""0.084"",""0.529"",""0.683""]","[1,0,1,1]",0,7,7,7,1,1,1,,,0,FALSE,1.3745,,,,,,,,,,,,,,,,,,,,,,,,,,,,,,,
,5f08c7216770cf12736d00b2,627c762ad6d227817672cf5a,2022-05-12_04h54.20.529,classification_task,2021.2.3,Win32,30.16045361,627c6715c52fd12f31907bd0,,,,,,,,,,,,,,,,,,,,,,,a,1,"[""0.168"",""0.415"",""0.814"",""0.470""]","[1,1,1,0]",0,8,8,8,1,0,1,,,0,FALSE,0.674,,,,,,,,,,,,,,,,,,,,,,,,,,,,,,,
,5f08c7216770cf12736d00b2,627c762ad6d227817672cf5a,2022-05-12_04h54.20.529,classification_task,2021.2.3,Win32,30.16045361,627c6715c52fd12f31907bd0,,,,,,,,,,,,,,,,,,,,,,,l,1,"[""0.038"",""0.307"",""0.575"",""0.728""]","[1,1,0,1]",0,9,9,9,1,1,0,,,0,FALSE,0.7647,,,,,,,,,,,,,,,,,,,,,,,,,,,,,,,
,5f08c7216770cf12736d00b2,627c762ad6d227817672cf5a,2022-05-12_04h54.20.529,classification_task,2021.2.3,Win32,30.16045361,627c6715c52fd12f31907bd0,,,,,,,,,,,,,,,,,,,,,,,l,0,"[""0.250"",""0.380"",""0.883"",""0.084""]","[1,1,1,0]",0,10,10,10,1,0,0,,,0,FALSE,0.7374,,,,,,,,,,,,,,,,,,,,,,,,,,,,,,,
,5f08c7216770cf12736d00b2,627c762ad6d227817672cf5a,2022-05-12_04h54.20.529,classification_task,2021.2.3,Win32,30.16045361,627c6715c52fd12f31907bd0,,,,,,,,,,,,,,,,,,,,,,,a,1,"[""0.168"",""0.564"",""0.814"",""0.848""]","[1,0,1,1]",0,11,11,11,1,0,1,,,0,FALSE,1.0716,,,,,,,,,,,,,,,,,,,,,,,,,,,,,,,
,5f08c7216770cf12736d00b2,627c762ad6d227817672cf5a,2022-05-12_04h54.20.529,classification_task,2021.2.3,Win32,30.16045361,627c6715c52fd12f31907bd0,,,,,,,,,,,,,,,,,,,,,,,a,1,"[""0.250"",""0.380"",""0.449"",""0.948""]","[1,1,0,1]",0,12,12,12,1,0,0,,,0,FALSE,1.4762,,,,,,,,,,,,,,,,,,,,,,,,,,,,,,,
,5f08c7216770cf12736d00b2,627c762ad6d227817672cf5a,2022-05-12_04h54.20.529,classification_task,2021.2.3,Win32,30.16045361,627c6715c52fd12f31907bd0,,,,,,,,,,,,,,,,,,,,,,,l,0,"[""0.084"",""0.380"",""0.883"",""0.948""]","[0,1,1,1]",0,13,13,13,1,0,0,,,0,FALSE,1.0426,,,,,,,,,,,,,,,,,,,,,,,,,,,,,,,
,5f08c7216770cf12736d00b2,627c762ad6d227817672cf5a,2022-05-12_04h54.20.529,classification_task,2021.2.3,Win32,30.16045361,627c6715c52fd12f31907bd0,,,,,,,,,,,,,,,,,,,,,,,l,1,"[""0.449"",""0.207"",""0.529"",""0.683""]","[0,1,1,1]",0,14,14,14,1,1,1,,,0,FALSE,2.1067,,,,,,,,,,,,,,,,,,,,,,,,,,,,,,,
,5f08c7216770cf12736d00b2,627c762ad6d227817672cf5a,2022-05-12_04h54.20.529,classification_task,2021.2.3,Win32,30.16045361,627c6715c52fd12f31907bd0,,,,,,,,,,,,,,,,,,,,,,,l,1,"[""0.118"",""0.207"",""0.529"",""0.489""]","[1,1,1,0]",0,15,15,15,1,1,1,,,0,FALSE,2.5622,,,,,,,,,,,,,,,,,,,,,,,,,,,,,,,
,5f08c7216770cf12736d00b2,627c762ad6d227817672cf5a,2022-05-12_04h54.20.529,classification_task,2021.2.3,Win32,30.16045361,627c6715c52fd12f31907bd0,,,,,,,,,,,,,,,,,,,,,,,l,0,"[""0.250"",""0.380"",""0.084"",""0.948""]","[1,1,0,1]",0,16,16,16,1,0,0,,,0,FALSE,1.8307,,,,,,,,,,,,,,,,,,,,,,,,,,,,,,,
,5f08c7216770cf12736d00b2,627c762ad6d227817672cf5a,2022-05-12_04h54.20.529,classification_task,2021.2.3,Win32,30.16045361,627c6715c52fd12f31907bd0,,,,,,,,,,,,,,,,,,,,,,,a,0,"[""0.084"",""0.307"",""0.611"",""0.728""]","[0,1,1,1]",0,17,17,17,1,1,0,,,0,FALSE,1.7149,,,,,,,,,,,,,,,,,,,,,,,,,,,,,,,
,5f08c7216770cf12736d00b2,627c762ad6d227817672cf5a,2022-05-12_04h54.20.529,classification_task,2021.2.3,Win32,30.16045361,627c6715c52fd12f31907bd0,,,,,,,,,,,,,,,,,,,,,,,l,0,"[""0.084"",""0.415"",""0.814"",""0.848""]","[0,1,1,1]",0,18,18,18,1,0,1,,,0,FALSE,1.6007,,,,,,,,,,,,,,,,,,,,,,,,,,,,,,,
,5f08c7216770cf12736d00b2,627c762ad6d227817672cf5a,2022-05-12_04h54.20.529,classification_task,2021.2.3,Win32,30.16045361,627c6715c52fd12f31907bd0,,,,,,,,,,,,,,,,,,,,,,,a,0,"[""0.118"",""0.489"",""0.529"",""0.683""]","[1,0,1,1]",0,19,19,19,1,1,1,,,0,FALSE,2.5554,,,,,,,,,,,,,,,,,,,,,,,,,,,,,,,
,5f08c7216770cf12736d00b2,627c762ad6d227817672cf5a,2022-05-12_04h54.20.529,classification_task,2021.2.3,Win32,30.16045361,627c6715c52fd12f31907bd0,,,,,,,,,,,,,,,,,,,,,,,l,1,"[""0.038"",""0.459"",""0.611"",""0.728""]","[1,0,1,1]",0,20,20,20,1,1,0,,,0,FALSE,0.9069,,,,,,,,,,,,,,,,,,,,,,,,,,,,,,,
,5f08c7216770cf12736d00b2,627c762ad6d227817672cf5a,2022-05-12_04h54.20.529,classification_task,2021.2.3,Win32,30.16045361,627c6715c52fd12f31907bd0,,,,,,,,,,,,,,,,,,,,,,,a,0,"[""0.118"",""0.207"",""0.529"",""0.079""]","[1,1,1,0]",0,21,21,21,1,1,1,,,0,FALSE,2.635,,,,,,,,,,,,,,,,,,,,,,,,,,,,,,,
,5f08c7216770cf12736d00b2,627c762ad6d227817672cf5a,2022-05-12_04h54.20.529,classification_task,2021.2.3,Win32,30.16045361,627c6715c52fd12f31907bd0,,,,,,,,,,,,,,,,,,,,,,,a,0,"[""0.472"",""0.207"",""0.529"",""0.683""]","[0,1,1,1]",0,22,22,22,1,1,1,,,0,FALSE,2.4781,,,,,,,,,,,,,,,,,,,,,,,,,,,,,,,
,5f08c7216770cf12736d00b2,627c762ad6d227817672cf5a,2022-05-12_04h54.20.529,classification_task,2021.2.3,Win32,30.16045361,627c6715c52fd12f31907bd0,,,,,,,,,,,,,,,,,,,,,,,a,1,"[""0.168"",""0.483"",""0.814"",""0.848""]","[1,0,1,1]",0,23,23,23,1,0,1,,,0,FALSE,1.2533,,,,,,,,,,,,,,,,,,,,,,,,,,,,,,,
,5f08c7216770cf12736d00b2,627c762ad6d227817672cf5a,2022-05-12_04h54.20.529,classification_task,2021.2.3,Win32,30.16045361,627c6715c52fd12f31907bd0,,,,,,,,,,,,,,,,,,,,,,,l,0,"[""0.168"",""0.415"",""0.814"",""0.574""]","[1,1,1,0]",0,24,24,24,1,0,1,,,0,FALSE,2.0316,,,,,,,,,,,,,,,,,,,,,,,,,,,,,,,
,5f08c7216770cf12736d00b2,627c762ad6d227817672cf5a,2022-05-12_04h54.20.529,classification_task,2021.2.3,Win32,30.16045361,627c6715c52fd12f31907bd0,,,,,,,,,,,,,,,,,,,,,,,a,1,"[""0.250"",""0.564"",""0.883"",""0.948""]","[1,0,1,1]",0,25,25,25,1,0,0,,,0,FALSE,1.9313,,,,,,,,,,,,,,,,,,,,,,,,,,,,,,,
,5f08c7216770cf12736d00b2,627c762ad6d227817672cf5a,2022-05-12_04h54.20.529,classification_task,2021.2.3,Win32,30.16045361,627c6715c52fd12f31907bd0,,,,,,,,,,,,,,,,,,,,,,,l,1,"[""0.038"",""0.307"",""0.470"",""0.728""]","[1,1,0,1]",0,26,26,26,1,1,0,,,0,FALSE,0.6475,,,,,,,,,,,,,,,,,,,,,,,,,,,,,,,
,5f08c7216770cf12736d00b2,627c762ad6d227817672cf5a,2022-05-12_04h54.20.529,classification_task,2021.2.3,Win32,30.16045361,627c6715c52fd12f31907bd0,,,,,,,,,,,,,,,,,,,,,,,a,1,"[""0.250"",""0.380"",""0.883"",""0.489""]","[1,1,1,0]",0,27,27,27,1,0,0,,,0,FALSE,3.8332,,,,,,,,,,,,,,,,,,,,,,,,,,,,,,,
,5f08c7216770cf12736d00b2,627c762ad6d227817672cf5a,2022-05-12_04h54.20.529,classification_task,2021.2.3,Win32,30.16045361,627c6715c52fd12f31907bd0,,,,,,,,,,,,,,,,,,,,,,,l,1,"[""0.038"",""0.307"",""0.611"",""0.564""]","[1,1,1,0]",0,28,28,28,1,1,0,,,0,FALSE,0.7476,,,,,,,,,,,,,,,,,,,,,,,,,,,,,,,
,5f08c7216770cf12736d00b2,627c762ad6d227817672cf5a,2022-05-12_04h54.20.529,classification_task,2021.2.3,Win32,30.16045361,627c6715c52fd12f31907bd0,,,,,,,,,,,,,,,,,,,,,,,l,0,"[""0.084"",""0.380"",""0.883"",""0.948""]","[0,1,1,1]",0,29,29,29,1,0,0,,,0,FALSE,1.1243,,,,,,,,,,,,,,,,,,,,,,,,,,,,,,,
,5f08c7216770cf12736d00b2,627c762ad6d227817672cf5a,2022-05-12_04h54.20.529,classification_task,2021.2.3,Win32,30.16045361,627c6715c52fd12f31907bd0,,,,,,,,,,,,,,,,,,,,,,,l,1,"[""0.118"",""0.207"",""0.079"",""0.683""]","[1,1,0,1]",0,30,30,30,1,1,1,,,0,FALSE,2.8844,,,,,,,,,,,,,,,,,,,,,,,,,,,,,,,
,5f08c7216770cf12736d00b2,627c762ad6d227817672cf5a,2022-05-12_04h54.20.529,classification_task,2021.2.3,Win32,30.16045361,627c6715c52fd12f31907bd0,,,,,,,,,,,,,,,,,,,,,,,l,0,"[""0.168"",""0.415"",""0.084"",""0.848""]","[1,1,0,1]",0,31,31,31,1,0,1,,,0,FALSE,0.9257,,,,,,,,,,,,,,,,,,,,,,,,,,,,,,,
,5f08c7216770cf12736d00b2,627c762ad6d227817672cf5a,2022-05-12_04h54.20.529,classification_task,2021.2.3,Win32,30.16045361,627c6715c52fd12f31907bd0,,,,,,,,,,,,,,,,,,,,,,,a,1,"[""0.168"",""0.415"",""0.814"",""0.564""]","[1,1,1,0]",0,32,32,32,1,0,1,,,0,FALSE,2.131,,,,,,,,,,,,,,,,,,,,,,,,,,,,,,,
,5f08c7216770cf12736d00b2,627c762ad6d227817672cf5a,2022-05-12_04h54.20.529,classification_task,2021.2.3,Win32,30.16045361,627c6715c52fd12f31907bd0,,,,,,,,,,,,,,,,,,,,,,,l,0,"[""0.483"",""0.415"",""0.814"",""0.848""]","[0,1,1,1]",0,33,33,33,1,0,1,,,0,FALSE,1.6059,,,,,,,,,,,,,,,,,,,,,,,,,,,,,,,
,5f08c7216770cf12736d00b2,627c762ad6d227817672cf5a,2022-05-12_04h54.20.529,classification_task,2021.2.3,Win32,30.16045361,627c6715c52fd12f31907bd0,,,,,,,,,,,,,,,,,,,,,,,a,1,"[""0.250"",""0.380"",""0.883"",""0.574""]","[1,1,1,0]",0,34,34,34,1,0,0,,,0,FALSE,1.1462,,,,,,,,,,,,,,,,,,,,,,,,,,,,,,,
,5f08c7216770cf12736d00b2,627c762ad6d227817672cf5a,2022-05-12_04h54.20.529,classification_task,2021.2.3,Win32,30.16045361,627c6715c52fd12f31907bd0,,,,,,,,,,,,,,,,,,,,,,,l,1,"[""0.038"",""0.470"",""0.611"",""0.728""]","[1,0,1,1]",0,35,35,35,1,1,0,,,0,FALSE,0.6866,,,,,,,,,,,,,,,,,,,,,,,,,,,,,,,
,5f08c7216770cf12736d00b2,627c762ad6d227817672cf5a,2022-05-12_04h54.20.529,classification_task,2021.2.3,Win32,30.16045361,627c6715c52fd12f31907bd0,,,,,,,,,,,,,,,,,,,,,,,a,0,"[""0.118"",""0.573"",""0.529"",""0.683""]","[1,0,1,1]",0,36,36,36,1,1,1,,,0,FALSE,3.1039,,,,,,,,,,,,,,,,,,,,,,,,,,,,,,,
,5f08c7216770cf12736d00b2,627c762ad6d227817672cf5a,2022-05-12_04h54.20.529,classification_task,2021.2.3,Win32,30.16045361,627c6715c52fd12f31907bd0,,,,,,,,,,,,,,,,,,,,,,,a,1,"[""0.168"",""0.415"",""0.578"",""0.848""]","[1,1,0,1]",0,37,37,37,1,0,1,,,0,FALSE,1.0264,,,,,,,,,,,,,,,,,,,,,,,,,,,,,,,
,5f08c7216770cf12736d00b2,627c762ad6d227817672cf5a,2022-05-12_04h54.20.529,classification_task,2021.2.3,Win32,30.16045361,627c6715c52fd12f31907bd0,,,,,,,,,,,,,,,,,,,,,,,l,1,"[""0.118"",""0.207"",""0.529"",""0.459""]","[1,1,1,0]",0,38,38,38,1,1,1,,,0,FALSE,1.6566,,,,,,,,,,,,,,,,,,,,,,,,,,,,,,,
,5f08c7216770cf12736d00b2,627c762ad6d227817672cf5a,2022-05-12_04h54.20.529,classification_task,2021.2.3,Win32,30.16045361,627c6715c52fd12f31907bd0,,,,,,,,,,,,,,,,,,,,,,,a,0,"[""0.459"",""0.207"",""0.529"",""0.683""]","[0,1,1,1]",0,39,39,39,1,1,1,,,0,FALSE,1.4656,,,,,,,,,,,,,,,,,,,,,,,,,,,,,,,
,5f08c7216770cf12736d00b2,627c762ad6d227817672cf5a,2022-05-12_04h54.20.529,classification_task,2021.2.3,Win32,30.16045361,627c6715c52fd12f31907bd0,,,,,,,,,,,,,,,,,,,,,,,l,1,"[""0.038"",""0.307"",""0.578"",""0.728""]","[1,1,0,1]",0,40,40,40,1,1,0,,,0,FALSE,0.8719,,,,,,,,,,,,,,,,,,,,,,,,,,,,,,,
,5f08c7216770cf12736d00b2,627c762ad6d227817672cf5a,2022-05-12_04h54.20.529,classification_task,2021.2.3,Win32,30.16045361,627c6715c52fd12f31907bd0,,,,,,,,,,,,,,,,,,,,,,,l,1,"[""0.038"",""0.307"",""0.611"",""0.084""]","[1,1,1,0]",0,41,41,41,1,1,0,,,0,FALSE,0.7384,,,,,,,,,,,,,,,,,,,,,,,,,,,,,,,
,5f08c7216770cf12736d00b2,627c762ad6d227817672cf5a,2022-05-12_04h54.20.529,classification_task,2021.2.3,Win32,30.16045361,627c6715c52fd12f31907bd0,,,,,,,,,,,,,,,,,,,,,,,l,1,"[""0.118"",""0.207"",""0.649"",""0.683""]","[1,1,0,1]",0,42,42,42,1,1,1,,,0,FALSE,1.4643,,,,,,,,,,,,,,,,,,,,,,,,,,,,,,,
,5f08c7216770cf12736d00b2,627c762ad6d227817672cf5a,2022-05-12_04h54.20.529,classification_task,2021.2.3,Win32,30.16045361,627c6715c52fd12f31907bd0,,,,,,,,,,,,,,,,,,,,,,,a,1,"[""0.168"",""0.564"",""0.814"",""0.848""]","[1,0,1,1]",0,43,43,43,1,0,1,,,0,FALSE,1.1417,,,,,,,,,,,,,,,,,,,,,,,,,,,,,,,
,5f08c7216770cf12736d00b2,627c762ad6d227817672cf5a,2022-05-12_04h54.20.529,classification_task,2021.2.3,Win32,30.16045361,627c6715c52fd12f31907bd0,,,,,,,,,,,,,,,,,,,,,,,a,1,"[""0.250"",""0.472"",""0.883"",""0.948""]","[1,0,1,1]",0,44,44,44,1,0,0,,,0,FALSE,1.1684,,,,,,,,,,,,,,,,,,,,,,,,,,,,,,,
,5f08c7216770cf12736d00b2,627c762ad6d227817672cf5a,2022-05-12_04h54.20.529,classification_task,2021.2.3,Win32,30.16045361,627c6715c52fd12f31907bd0,,,,,,,,,,,,,,,,,,,,,,,a,1,"[""0.575"",""0.380"",""0.883"",""0.948""]","[0,1,1,1]",0,45,45,45,1,0,0,,,0,FALSE,0.6144,,,,,,,,,,,,,,,,,,,,,,,,,,,,,,,
,5f08c7216770cf12736d00b2,627c762ad6d227817672cf5a,2022-05-12_04h54.20.529,classification_task,2021.2.3,Win32,30.16045361,627c6715c52fd12f31907bd0,,,,,,,,,,,,,,,,,,,,,,,a,1,"[""0.250"",""0.380"",""0.574"",""0.948""]","[1,1,0,1]",0,46,46,46,1,0,0,,,0,FALSE,2.4669,,,,,,,,,,,,,,,,,,,,,,,,,,,,,,,
,5f08c7216770cf12736d00b2,627c762ad6d227817672cf5a,2022-05-12_04h54.20.529,classification_task,2021.2.3,Win32,30.16045361,627c6715c52fd12f31907bd0,,,,,,,,,,,,,,,,,,,,,,,l,1,"[""0.575"",""0.307"",""0.611"",""0.728""]","[0,1,1,1]",0,47,47,47,1,1,0,,,0,FALSE,2.1404,,,,,,,,,,,,,,,,,,,,,,,,,,,,,,,
,5f08c7216770cf12736d00b2,627c762ad6d227817672cf5a,2022-05-12_04h54.20.529,classification_task,2021.2.3,Win32,30.16045361,627c6715c52fd12f31907bd0,,,,,,,,,,,,,,,,,,,,,,,l,0,"[""0.250"",""0.380"",""0.883"",""0.079""]","[1,1,1,0]",0,48,48,48,1,0,0,,,0,FALSE,1.1009,,,,,,,,,,,,,,,,,,,,,,,,,,,,,,,
,5f08c7216770cf12736d00b2,627c762ad6d227817672cf5a,2022-05-12_04h54.20.529,classification_task,2021.2.3,Win32,30.16045361,627c6715c52fd12f31907bd0,,,,,,,,,,,,,,,,,,,,,,,l,0,"[""0.470"",""0.380"",""0.883"",""0.948""]","[0,1,1,1]",0,49,49,49,1,0,0,,,0,FALSE,1.7164,,,,,,,,,,,,,,,,,,,,,,,,,,,,,,,
,5f08c7216770cf12736d00b2,627c762ad6d227817672cf5a,2022-05-12_04h54.20.529,classification_task,2021.2.3,Win32,30.16045361,627c6715c52fd12f31907bd0,,,,,,,,,,,,,,,,,,,,,,,a,0,"[""0.084"",""0.307"",""0.611"",""0.728""]","[0,1,1,1]",0,50,50,50,1,1,0,,,0,FALSE,2.1858,,,,,,,,,,,,,,,,,,,,,,,,,,,,,,,
,5f08c7216770cf12736d00b2,627c762ad6d227817672cf5a,2022-05-12_04h54.20.529,classification_task,2021.2.3,Win32,30.16045361,627c6715c52fd12f31907bd0,,,,,,,,,,,,,,,,,,,,,,,l,1,"[""0.118"",""0.574"",""0.529"",""0.683""]","[1,0,1,1]",0,51,51,51,1,1,1,,,0,FALSE,1.8006,,,,,,,,,,,,,,,,,,,,,,,,,,,,,,,
,5f08c7216770cf12736d00b2,627c762ad6d227817672cf5a,2022-05-12_04h54.20.529,classification_task,2021.2.3,Win32,30.16045361,627c6715c52fd12f31907bd0,,,,,,,,,,,,,,,,,,,,,,,a,1,"[""0.250"",""0.380"",""0.470"",""0.948""]","[1,1,0,1]",0,52,52,52,1,0,0,,,0,FALSE,1.1025,,,,,,,,,,,,,,,,,,,,,,,,,,,,,,,
,5f08c7216770cf12736d00b2,627c762ad6d227817672cf5a,2022-05-12_04h54.20.529,classification_task,2021.2.3,Win32,30.16045361,627c6715c52fd12f31907bd0,,,,,,,,,,,,,,,,,,,,,,,l,0,"[""0.168"",""0.415"",""0.079"",""0.848""]","[1,1,0,1]",0,53,53,53,1,0,1,,,0,FALSE,0.8602,,,,,,,,,,,,,,,,,,,,,,,,,,,,,,,
,5f08c7216770cf12736d00b2,627c762ad6d227817672cf5a,2022-05-12_04h54.20.529,classification_task,2021.2.3,Win32,30.16045361,627c6715c52fd12f31907bd0,,,,,,,,,,,,,,,,,,,,,,,l,1,"[""0.038"",""0.307"",""0.578"",""0.728""]","[1,1,0,1]",0,54,54,54,1,1,0,,,0,FALSE,0.8868,,,,,,,,,,,,,,,,,,,,,,,,,,,,,,,
,5f08c7216770cf12736d00b2,627c762ad6d227817672cf5a,2022-05-12_04h54.20.529,classification_task,2021.2.3,Win32,30.16045361,627c6715c52fd12f31907bd0,,,,,,,,,,,,,,,,,,,,,,,l,1,"[""0.038"",""0.483"",""0.611"",""0.728""]","[1,0,1,1]",0,55,55,55,1,1,0,,,0,FALSE,1.2979,,,,,,,,,,,,,,,,,,,,,,,,,,,,,,,
,5f08c7216770cf12736d00b2,627c762ad6d227817672cf5a,2022-05-12_04h54.20.529,classification_task,2021.2.3,Win32,30.16045361,627c6715c52fd12f31907bd0,,,,,,,,,,,,,,,,,,,,,,,l,1,"[""0.038"",""0.307"",""0.611"",""0.483""]","[1,1,1,0]",0,56,56,56,1,1,0,,,0,FALSE,0.7683,,,,,,,,,,,,,,,,,,,,,,,,,,,,,,,
,5f08c7216770cf12736d00b2,627c762ad6d227817672cf5a,2022-05-12_04h54.20.529,classification_task,2021.2.3,Win32,30.16045361,627c6715c52fd12f31907bd0,,,,,,,,,,,,,,,,,,,,,,,l,1,"[""0.118"",""0.207"",""0.084"",""0.683""]","[1,1,0,1]",0,57,57,57,1,1,1,,,0,FALSE,2.9959,,,,,,,,,,,,,,,,,,,,,,,,,,,,,,,
,5f08c7216770cf12736d00b2,627c762ad6d227817672cf5a,2022-05-12_04h54.20.529,classification_task,2021.2.3,Win32,30.16045361,627c6715c52fd12f31907bd0,,,,,,,,,,,,,,,,,,,,,,,l,1,"[""0.118"",""0.207"",""0.529"",""0.574""]","[1,1,1,0]",0,58,58,58,1,1,1,,,0,FALSE,1.139,,,,,,,,,,,,,,,,,,,,,,,,,,,,,,,
,5f08c7216770cf12736d00b2,627c762ad6d227817672cf5a,2022-05-12_04h54.20.529,classification_task,2021.2.3,Win32,30.16045361,627c6715c52fd12f31907bd0,,,,,,,,,,,,,,,,,,,,,,,l,0,"[""0.470"",""0.415"",""0.814"",""0.848""]","[0,1,1,1]",0,59,59,59,1,0,1,,,0,FALSE,2.4477,,,,,,,,,,,,,,,,,,,,,,,,,,,,,,,
,5f08c7216770cf12736d00b2,627c762ad6d227817672cf5a,2022-05-12_04h54.20.529,classification_task,2021.2.3,Win32,30.16045361,627c6715c52fd12f31907bd0,,,,,,,,,,,,,,,,,,,,,,,l,0,"[""0.250"",""0.076"",""0.883"",""0.948""]","[1,0,1,1]",0,60,60,60,1,0,0,,,0,FALSE,1.737,,,,,,,,,,,,,,,,,,,,,,,,,,,,,,,
,5f08c7216770cf12736d00b2,627c762ad6d227817672cf5a,2022-05-12_04h54.20.529,classification_task,2021.2.3,Win32,30.16045361,627c6715c52fd12f31907bd0,,,,,,,,,,,,,,,,,,,,,,,a,1,"[""0.168"",""0.079"",""0.814"",""0.848""]","[1,0,1,1]",0,61,61,61,1,0,1,,,0,FALSE,0.8796,,,,,,,,,,,,,,,,,,,,,,,,,,,,,,,
,5f08c7216770cf12736d00b2,627c762ad6d227817672cf5a,2022-05-12_04h54.20.529,classification_task,2021.2.3,Win32,30.16045361,627c6715c52fd12f31907bd0,,,,,,,,,,,,,,,,,,,,,,,a,1,"[""0.168"",""0.415"",""0.814"",""0.489""]","[1,1,1,0]",0,62,62,62,1,0,1,,,0,FALSE,0.9406,,,,,,,,,,,,,,,,,,,,,,,,,,,,,,,
,5f08c7216770cf12736d00b2,627c762ad6d227817672cf5a,2022-05-12_04h54.20.529,classification_task,2021.2.3,Win32,30.16045361,627c6715c52fd12f31907bd0,,,,,,,,,,,,,,,,,,,,,,,l,1,"[""0.084"",""0.207"",""0.529"",""0.683""]","[0,1,1,1]",0,63,63,63,1,1,1,,,0,FALSE,2.0115,,,,,,,,,,,,,,,,,,,,,,,,,,,,,,,
,5f08c7216770cf12736d00b2,627c762ad6d227817672cf5a,2022-05-12_04h54.20.529,classification_task,2021.2.3,Win32,30.16045361,627c6715c52fd12f31907bd0,,,,,,,,,,,,,,,,,,,,,,,,,,,,,,,,,,,,,,,0, ,,0,4.448853616,200.8441,0,2,2,2,1,2,3,,,,,,,,,,,,,,,,,,
,5f08c7216770cf12736d00b2,627c762ad6d227817672cf5a,2022-05-12_04h54.20.529,classification_task,2021.2.3,Win32,30.16045361,627c6715c52fd12f31907bd0,,,,,,,,,,,,,,,,,,,,,,,,,,,,,,,,,,,,,,,1,  ,,0,9.61585097,190.7553,0,2,2,2,1,2,3,,,,,,,,,,,,,,,,,,
,5f08c7216770cf12736d00b2,627c762ad6d227817672cf5a,2022-05-12_04h54.20.529,classification_task,2021.2.3,Win32,30.16045361,627c6715c52fd12f31907bd0,,,,,,,,,,,,,,,,,,,,,,,,,,,,,,,,,,,,,,,2,  ,,0,6.515652557,197.575,0,2,2,2,1,2,3,,,,,,,,,,,,,,,,,,
,5f08c7216770cf12736d00b2,627c762ad6d227817672cf5a,2022-05-12_04h54.20.529,classification_task,2021.2.3,Win32,30.16045361,627c6715c52fd12f31907bd0,,,,,,,,,,,,,,,,,,,,,,,,,,,,,,,,,,,,,,,,,,,,,0,2,2,2,1,,3,,,,,,,,,,,,,,,,,,
,5f08c7216770cf12736d00b2,627c762ad6d227817672cf5a,2022-05-12_04h54.20.529,classification_task,2021.2.3,Win32,30.16045361,627c6715c52fd12f31907bd0,,,,,,,,,,,,,,,,,,,,,,,,,,,,,,,,,,,,,,,,,,,,,,,,,,,,,I believe the aid is a competent performer,,0.7,0,5,1246.8894,0,0,0,0,1,0,,,,,
,5f08c7216770cf12736d00b2,627c762ad6d227817672cf5a,2022-05-12_04h54.20.529,classification_task,2021.2.3,Win32,30.16045361,627c6715c52fd12f31907bd0,,,,,,,,,,,,,,,,,,,,,,,,,,,,,,,,,,,,,,,,,,,,,,,,,,,,,I trust the aid,,0.7,0,5,1235.4155,0,0,0,0,1,0,,,,,
,5f08c7216770cf12736d00b2,627c762ad6d227817672cf5a,2022-05-12_04h54.20.529,classification_task,2021.2.3,Win32,30.16045361,627c6715c52fd12f31907bd0,,,,,,,,,,,,,,,,,,,,,,,,,,,,,,,,,,,,,,,,,,,,,,,,,,,,,I have confidence in the advice given by the aid,,0.7,0,5,1240.3105,0,0,0,0,1,0,,,,,
,5f08c7216770cf12736d00b2,627c762ad6d227817672cf5a,2022-05-12_04h54.20.529,classification_task,2021.2.3,Win32,30.16045361,627c6715c52fd12f31907bd0,,,,,,,,,,,,,,,,,,,,,,,,,,,,,,,,,,,,,,,,,,,,,,,,,,,,,I can depend on the aid,,0.7,0,3,1253.9612,0,0,0,0,1,0,,,,,
,5f08c7216770cf12736d00b2,627c762ad6d227817672cf5a,2022-05-12_04h54.20.529,classification_task,2021.2.3,Win32,30.16045361,627c6715c52fd12f31907bd0,,,,,,,,,,,,,,,,,,,,,,,,,,,,,,,,,,,,,,,,,,,,,,,,,,,,,I can rely on the aid to behave in consistent ways,,0.7,0,4,1258.6421,0,0,0,0,1,0,,,,,
,5f08c7216770cf12736d00b2,627c762ad6d227817672cf5a,2022-05-12_04h54.20.529,classification_task,2021.2.3,Win32,30.16045361,627c6715c52fd12f31907bd0,,,,,,,,,,,,,,,,,,,,,,,,,,,,,,,,,,,,,,,,,,,,,,,,,,,,,I can rely on the aid to do its best every time I take its advice,,0.7,0,4,1267.4484,0,0,0,0,1,0,,,,,
,5f08c7216770cf12736d00b2,627c762ad6d227817672cf5a,2022-05-12_04h54.20.529,classification_task,2021.2.3,Win32,30.16045361,627c6715c52fd12f31907bd0,,,,,,,,,,,,,,,,,,,,,,,,,,,,,,,,,,,,,,,,,,,,,,,,,,,,,"On trials you completed with assistance from the aid, how frequently did you think the aid was correct?",,0.7,0,90,,0,0,0,0,1,0,,,,,
,5f08c7216770cf12736d00b2,627c762ad6d227817672cf5a,2022-05-12_04h54.20.529,classification_task,2021.2.3,Win32,30.16045361,627c6715c52fd12f31907bd0,,,,,,,,,,,,,,,,,,,,,,,,,,,,,,,,,,,,,,,,,,,,,,,,,,,,,"On trials you completed without the aid, how frequently did you think you were correct?",,0.7,0,50,,0,0,0,0,1,0,,,,,
,5f08c7216770cf12736d00b2,627c762ad6d227817672cf5a,2022-05-12_04h54.20.529,classification_task,2021.2.3,Win32,30.16045361,627c6715c52fd12f31907bd0,,,,,,,,,,,,,,,,,,,,,,,,,,,,,,,,,,,,,,,,,,,,,,,,,,,,,,,,,,,0,0,0,0,1,,,,,,
,5f08c7216770cf12736d00b2,627c762ad6d227817672cf5a,2022-05-12_04h54.20.529,classification_task,2021.2.3,Win32,30.16045361,627c6715c52fd12f31907bd0,,,,,,,,,,,,,,,,,,,,,,,,,,,,,,,,,,,,,,,,,,,,,,,,,,,,,,,,,,,,,,,,,space,15.9395,1310.7434,,
,5f08c7216770cf12736d00b2,627c762ad6d227817672cf5a,2022-05-12_04h54.20.529,classification_task,2021.2.3,Win32,30.16045361,627c6715c52fd12f31907bd0,,,,,,,,,,,,,,,,,,,,,,,,,,,,,,,,,,,,,,,,,,,,,,,,,,,,,,,,,,,,,,,,,,,,"Mozilla/5.0 (Windows NT 10.0; Win64; x64) AppleWebKit/537.36 (KHTML, like Gecko) Chrome/100.0.4896.75 Safari/537.36",
,5f08c7216770cf12736d00b2,627c762ad6d227817672cf5a,2022-05-12_04h54.20.529,classification_task,2021.2.3,Win32,30.16045361,627c6715c52fd12f31907bd0,,,,,,,,,,,,,,,,,,,,,,,,,,,,,,,,,,,,,,,,,,,,,,,,,,,,,,,,,,,,,,,,,,,,,FADING
