usingWebGL,participant,session,date,expName,psychopyVersion,OS,frameRate,study_id,signatures_friend,signatures_foe,band_ranges_top,band_ranges_bottom,formitemText,formtype,formundefined,formitemWidth,formindex,formresponse,formrt,key_resp_2.keys,key_resp_2.rt,tute_resp.keys,tute_resp.rt,tutorial.thisRepN,tutorial.thisTrialN,tutorial.thisN,tutorial.thisIndex,tutorial.ran,key_resp_4.keys,key_resp_4.rt,key_resp.keys,key_resp.corr,key_resp.rt,lines_presented,is_signal_presented,trials.thisRepN,trials.thisTrialN,trials.thisN,trials.thisIndex,trials.ran,vessel,active_band,lines,is_signal,supported_pos,catch_trial,debrief_formindex,debrief_formitemText,debrief_formtype,debrief_formitemWidth,debrief_formresponse,debrief_formrt,phases.thisRepN,phases.thisTrialN,phases.thisN,phases.thisIndex,phases.ran,phases.order,phase,key_resp_3.keys,trustitemText,trusttype,trustitemWidth,trustindex,trustresponse,trustrt,support_status.thisRepN,support_status.thisTrialN,support_status.thisN,support_status.thisIndex,support_status.ran,support_status.order,key_resp_5.keys,key_resp_5.rt,globalClockTime,userAgent,manualCondition
TRUE,5f0a9094da2883360c73fd9f,627c6fd40eb3f1ceba2920d4,2022-05-11_22h24.41.154,classification_task,2021.2.3,Win32,144.1337561,627c6715c52fd12f31907bcf,,,,,,,,,,,,,,,,,,,,,,,,,,,,,,,,,,,,,,,,,,,,,,,,,,,,,,,,,,,,,,,,,,,,,
,5f0a9094da2883360c73fd9f,627c6fd40eb3f1ceba2920d4,2022-05-11_22h24.41.154,classification_task,2021.2.3,Win32,144.1337561,627c6715c52fd12f31907bcf,"[[""0.229"",""0.389"",""0.870"",""0.906""],[""0.274"",""0.505"",""0.940"",""0.975""]]","[[""0.098"",""0.150"",""0.582"",""0.762""],[""0.053"",""0.343"",""0.621"",""0.703""]]","[1,10]","[100,1000]",Video game experience,,,0.7,0,,,,,,,,,,,,,,,,,,,,,,,,,,,,,,,,,,,,,,,,,,,,,,,,,,,,,,,,,,,,
,5f0a9094da2883360c73fd9f,627c6fd40eb3f1ceba2920d4,2022-05-11_22h24.41.154,classification_task,2021.2.3,Win32,144.1337561,627c6715c52fd12f31907bcf,,,,,Approximately how many hours did you spend playing video games in the last week?,,,0.7,0,20,,,,,,,,,,,,,,,,,,,,,,,,,,,,,,,,,,,,,,,,,,,,,,,,,,,,,,,,,,,
,5f0a9094da2883360c73fd9f,627c6fd40eb3f1ceba2920d4,2022-05-11_22h24.41.154,classification_task,2021.2.3,Win32,144.1337561,627c6715c52fd12f31907bcf,,,,,"Which game did you play the most this year? (Enter ""None"" if you didn't play any)",,,0.7,0,Hearthstone,,,,,,,,,,,,,,,,,,,,,,,,,,,,,,,,,,,,,,,,,,,,,,,,,,,,,,,,,,,
,5f0a9094da2883360c73fd9f,627c6fd40eb3f1ceba2920d4,2022-05-11_22h24.41.154,classification_task,2021.2.3,Win32,144.1337561,627c6715c52fd12f31907bcf,,,,,Visual perception,,,0.7,0,,,,,,,,,,,,,,,,,,,,,,,,,,,,,,,,,,,,,,,,,,,,,,,,,,,,,,,,,,,,
,5f0a9094da2883360c73fd9f,627c6fd40eb3f1ceba2920d4,2022-05-11_22h24.41.154,classification_task,2021.2.3,Win32,144.1337561,627c6715c52fd12f31907bcf,,,,,Do you have any form of color blindness?,,,0.7,0,No,51.2391,,,,,,,,,,,,,,,,,,,,,,,,,,,,,,,,,,,,,,,,,,,,,,,,,,,,,,,,,,
,5f0a9094da2883360c73fd9f,627c6fd40eb3f1ceba2920d4,2022-05-11_22h24.41.154,classification_task,2021.2.3,Win32,144.1337561,627c6715c52fd12f31907bcf,,,,,Do you use software to change the colour temperature of your screen (e.g. f.lux)?,,,0.7,0,No,56.4659,,,,,,,,,,,,,,,,,,,,,,,,,,,,,,,,,,,,,,,,,,,,,,,,,,,,,,,,,,
,5f0a9094da2883360c73fd9f,627c6fd40eb3f1ceba2920d4,2022-05-11_22h24.41.154,classification_task,2021.2.3,Win32,144.1337561,627c6715c52fd12f31907bcf,,,,,,,,,,,,space,74.3193,space,29.6704,0,0,0,0,1,,,,,,,,,,,,,,,,,,,,,,,,,,,,,,,,,,,,,,,,,,,,,,,,,
,5f0a9094da2883360c73fd9f,627c6fd40eb3f1ceba2920d4,2022-05-11_22h24.41.154,classification_task,2021.2.3,Win32,144.1337561,627c6715c52fd12f31907bcf,,,,,,,,,,,,,,space,11.4802,1,0,1,0,1,,,,,,,,,,,,,,,,,,,,,,,,,,,,,,,,,,,,,,,,,,,,,,,,,
,5f0a9094da2883360c73fd9f,627c6fd40eb3f1ceba2920d4,2022-05-11_22h24.41.154,classification_task,2021.2.3,Win32,144.1337561,627c6715c52fd12f31907bcf,,,,,,,,,,,,,,space,25.1968,2,0,2,0,1,,,,,,,,,,,,,,,,,,,,,,,,,,,,,,,,,,,,,,,,,,,,,,,,,
,5f0a9094da2883360c73fd9f,627c6fd40eb3f1ceba2920d4,2022-05-11_22h24.41.154,classification_task,2021.2.3,Win32,144.1337561,627c6715c52fd12f31907bcf,,,,,,,,,,,,,,space,7.2099,3,0,3,0,1,,,,,,,,,,,,,,,,,,,,,,,,,,,,,,,,,,,,,,,,,,,,,,,,,
,5f0a9094da2883360c73fd9f,627c6fd40eb3f1ceba2920d4,2022-05-11_22h24.41.154,classification_task,2021.2.3,Win32,144.1337561,627c6715c52fd12f31907bcf,,,,,,,,,,,,,,space,13.5266,4,0,4,0,1,,,,,,,,,,,,,,,,,,,,,,,,,,,,,,,,,,,,,,,,,,,,,,,,,
,5f0a9094da2883360c73fd9f,627c6fd40eb3f1ceba2920d4,2022-05-11_22h24.41.154,classification_task,2021.2.3,Win32,144.1337561,627c6715c52fd12f31907bcf,,,,,,,,,,,,,,,,,,,,,space,18.6539,l,1,3.9174,"[""0.053"",""0.343"",""0.621"",""0.460""]","[1,1,1,0]",0,0,0,0,1,1,1,,,1,FALSE,,,,,,,,,,,,,,,,,,,,,,,,,,,,,,,
,5f0a9094da2883360c73fd9f,627c6fd40eb3f1ceba2920d4,2022-05-11_22h24.41.154,classification_task,2021.2.3,Win32,144.1337561,627c6715c52fd12f31907bcf,,,,,,,,,,,,,,,,,,,,,,,l,1,4.8465,"[""0.836"",""0.343"",""0.621"",""0.703""]","[0,1,1,1]",0,1,1,1,1,1,1,,,1,FALSE,,,,,,,,,,,,,,,,,,,,,,,,,,,,,,,
,5f0a9094da2883360c73fd9f,627c6fd40eb3f1ceba2920d4,2022-05-11_22h24.41.154,classification_task,2021.2.3,Win32,144.1337561,627c6715c52fd12f31907bcf,,,,,,,,,,,,,,,,,,,,,,,a,1,5.3623,"[""0.274"",""0.505"",""0.192"",""0.975""]","[1,1,0,1]",0,2,2,2,1,0,1,,,1,FALSE,,,,,,,,,,,,,,,,,,,,,,,,,,,,,,,
,5f0a9094da2883360c73fd9f,627c6fd40eb3f1ceba2920d4,2022-05-11_22h24.41.154,classification_task,2021.2.3,Win32,144.1337561,627c6715c52fd12f31907bcf,,,,,,,,,,,,,,,,,,,,,,,,0,,"[""0.053"",""0.343"",""0.542"",""0.703""]","[1,1,0,1]",0,3,3,3,1,1,1,,,1,FALSE,,,,,,,,,,,,,,,,,,,,,,,,,,,,,,,
,5f0a9094da2883360c73fd9f,627c6fd40eb3f1ceba2920d4,2022-05-11_22h24.41.154,classification_task,2021.2.3,Win32,144.1337561,627c6715c52fd12f31907bcf,,,,,,,,,,,,,,,,,,,,,,,a,1,3.7693,"[""0.229"",""0.389"",""0.815"",""0.906""]","[1,1,0,1]",0,4,4,4,1,0,0,,,1,FALSE,,,,,,,,,,,,,,,,,,,,,,,,,,,,,,,
,5f0a9094da2883360c73fd9f,627c6fd40eb3f1ceba2920d4,2022-05-11_22h24.41.154,classification_task,2021.2.3,Win32,144.1337561,627c6715c52fd12f31907bcf,,,,,,,,,,,,,,,,,,,,,,,l,1,6.5045,"[""0.098"",""0.836"",""0.582"",""0.762""]","[1,0,1,1]",0,5,5,5,1,1,0,,,1,FALSE,,,,,,,,,,,,,,,,,,,,,,,,,,,,,,,
,5f0a9094da2883360c73fd9f,627c6fd40eb3f1ceba2920d4,2022-05-11_22h24.41.154,classification_task,2021.2.3,Win32,144.1337561,627c6715c52fd12f31907bcf,,,,,,,,,,,,,,,,,,,,,,,l,1,6.7602,"[""0.053"",""0.192"",""0.621"",""0.703""]","[1,0,1,1]",0,6,6,6,1,1,1,,,1,FALSE,,,,,,,,,,,,,,,,,,,,,,,,,,,,,,,
,5f0a9094da2883360c73fd9f,627c6fd40eb3f1ceba2920d4,2022-05-11_22h24.41.154,classification_task,2021.2.3,Win32,144.1337561,627c6715c52fd12f31907bcf,,,,,,,,,,,,,,,,,,,,,,,a,1,7.0504,"[""0.274"",""0.460"",""0.940"",""0.975""]","[1,0,1,1]",0,7,7,7,1,0,1,,,1,FALSE,,,,,,,,,,,,,,,,,,,,,,,,,,,,,,,
,5f0a9094da2883360c73fd9f,627c6fd40eb3f1ceba2920d4,2022-05-11_22h24.41.154,classification_task,2021.2.3,Win32,144.1337561,627c6715c52fd12f31907bcf,,,,,,,,,,,,,,,,,,,,,,,l,1,5.3519,"[""0.098"",""0.150"",""0.582"",""0.804""]","[1,1,1,0]",0,8,8,8,1,1,0,,,1,FALSE,,,,,,,,,,,,,,,,,,,,,,,,,,,,,,,
,5f0a9094da2883360c73fd9f,627c6fd40eb3f1ceba2920d4,2022-05-11_22h24.41.154,classification_task,2021.2.3,Win32,144.1337561,627c6715c52fd12f31907bcf,,,,,,,,,,,,,,,,,,,,,,,a,1,5.1351,"[""0.229"",""0.815"",""0.870"",""0.906""]","[1,0,1,1]",0,9,9,9,1,0,0,,,1,FALSE,,,,,,,,,,,,,,,,,,,,,,,,,,,,,,,
,5f0a9094da2883360c73fd9f,627c6fd40eb3f1ceba2920d4,2022-05-11_22h24.41.154,classification_task,2021.2.3,Win32,144.1337561,627c6715c52fd12f31907bcf,,,,,,,,,,,,,,,,,,,,,,,a,1,6.9061,"[""0.436"",""0.389"",""0.870"",""0.906""]","[0,1,1,1]",0,10,10,10,1,0,0,,,1,FALSE,,,,,,,,,,,,,,,,,,,,,,,,,,,,,,,
,5f0a9094da2883360c73fd9f,627c6fd40eb3f1ceba2920d4,2022-05-11_22h24.41.154,classification_task,2021.2.3,Win32,144.1337561,627c6715c52fd12f31907bcf,,,,,,,,,,,,,,,,,,,,,,,a,1,7.026,"[""0.274"",""0.505"",""0.940"",""0.457""]","[1,1,1,0]",0,11,11,11,1,0,1,,,1,FALSE,,,,,,,,,,,,,,,,,,,,,,,,,,,,,,,
,5f0a9094da2883360c73fd9f,627c6fd40eb3f1ceba2920d4,2022-05-11_22h24.41.154,classification_task,2021.2.3,Win32,144.1337561,627c6715c52fd12f31907bcf,,,,,,,,,,,,,,,,,,,,,,,l,1,7.8519,"[""0.098"",""0.150"",""0.460"",""0.762""]","[1,1,0,1]",0,12,12,12,1,1,0,,,1,FALSE,,,,,,,,,,,,,,,,,,,,,,,,,,,,,,,
,5f0a9094da2883360c73fd9f,627c6fd40eb3f1ceba2920d4,2022-05-11_22h24.41.154,classification_task,2021.2.3,Win32,144.1337561,627c6715c52fd12f31907bcf,,,,,,,,,,,,,,,,,,,,,,,a,1,7.0158,"[""0.432"",""0.505"",""0.940"",""0.975""]","[0,1,1,1]",0,13,13,13,1,0,1,,,1,FALSE,,,,,,,,,,,,,,,,,,,,,,,,,,,,,,,
,5f0a9094da2883360c73fd9f,627c6fd40eb3f1ceba2920d4,2022-05-11_22h24.41.154,classification_task,2021.2.3,Win32,144.1337561,627c6715c52fd12f31907bcf,,,,,,,,,,,,,,,,,,,,,,,l,1,7.6958,"[""0.819"",""0.150"",""0.582"",""0.762""]","[0,1,1,1]",0,14,14,14,1,1,0,,,1,FALSE,,,,,,,,,,,,,,,,,,,,,,,,,,,,,,,
,5f0a9094da2883360c73fd9f,627c6fd40eb3f1ceba2920d4,2022-05-11_22h24.41.154,classification_task,2021.2.3,Win32,144.1337561,627c6715c52fd12f31907bcf,,,,,,,,,,,,,,,,,,,,,,,a,1,6.4231,"[""0.229"",""0.389"",""0.870"",""0.542""]","[1,1,1,0]",0,15,15,15,1,0,0,,,1,FALSE,,,,,,,,,,,,,,,,,,,,,,,,,,,,,,,
,5f0a9094da2883360c73fd9f,627c6fd40eb3f1ceba2920d4,2022-05-11_22h24.41.154,classification_task,2021.2.3,Win32,144.1337561,627c6715c52fd12f31907bcf,,,,,,,,,,,,,,,,,,,,,,,l,1,5.6604,"[""0.053"",""0.343"",""0.621"",""0.542""]","[1,1,1,0]",0,16,16,16,1,1,1,,,1,FALSE,,,,,,,,,,,,,,,,,,,,,,,,,,,,,,,
,5f0a9094da2883360c73fd9f,627c6fd40eb3f1ceba2920d4,2022-05-11_22h24.41.154,classification_task,2021.2.3,Win32,144.1337561,627c6715c52fd12f31907bcf,,,,,,,,,,,,,,,,,,,,,,,a,1,6.6097,"[""0.229"",""0.389"",""0.870"",""0.192""]","[1,1,1,0]",0,17,17,17,1,0,0,,,1,FALSE,,,,,,,,,,,,,,,,,,,,,,,,,,,,,,,
,5f0a9094da2883360c73fd9f,627c6fd40eb3f1ceba2920d4,2022-05-11_22h24.41.154,classification_task,2021.2.3,Win32,144.1337561,627c6715c52fd12f31907bcf,,,,,,,,,,,,,,,,,,,,,,,a,1,5.1543,"[""0.229"",""0.834"",""0.870"",""0.906""]","[1,0,1,1]",0,18,18,18,1,0,0,,,1,FALSE,,,,,,,,,,,,,,,,,,,,,,,,,,,,,,,
,5f0a9094da2883360c73fd9f,627c6fd40eb3f1ceba2920d4,2022-05-11_22h24.41.154,classification_task,2021.2.3,Win32,144.1337561,627c6715c52fd12f31907bcf,,,,,,,,,,,,,,,,,,,,,,,a,1,6.7783,"[""0.274"",""0.505"",""0.940"",""0.815""]","[1,1,1,0]",0,19,19,19,1,0,1,,,1,FALSE,,,,,,,,,,,,,,,,,,,,,,,,,,,,,,,
,5f0a9094da2883360c73fd9f,627c6fd40eb3f1ceba2920d4,2022-05-11_22h24.41.154,classification_task,2021.2.3,Win32,144.1337561,627c6715c52fd12f31907bcf,,,,,,,,,,,,,,,,,,,,,,,a,1,5.2141,"[""0.461"",""0.389"",""0.870"",""0.906""]","[0,1,1,1]",0,20,20,20,1,0,0,,,1,FALSE,,,,,,,,,,,,,,,,,,,,,,,,,,,,,,,
,5f0a9094da2883360c73fd9f,627c6fd40eb3f1ceba2920d4,2022-05-11_22h24.41.154,classification_task,2021.2.3,Win32,144.1337561,627c6715c52fd12f31907bcf,,,,,,,,,,,,,,,,,,,,,,,l,1,7.5663,"[""0.460"",""0.150"",""0.582"",""0.762""]","[0,1,1,1]",0,21,21,21,1,1,0,,,1,FALSE,,,,,,,,,,,,,,,,,,,,,,,,,,,,,,,
,5f0a9094da2883360c73fd9f,627c6fd40eb3f1ceba2920d4,2022-05-11_22h24.41.154,classification_task,2021.2.3,Win32,144.1337561,627c6715c52fd12f31907bcf,,,,,,,,,,,,,,,,,,,,,,,a,1,6.1344,"[""0.274"",""0.462"",""0.940"",""0.975""]","[1,0,1,1]",0,22,22,22,1,0,1,,,1,FALSE,,,,,,,,,,,,,,,,,,,,,,,,,,,,,,,
,5f0a9094da2883360c73fd9f,627c6fd40eb3f1ceba2920d4,2022-05-11_22h24.41.154,classification_task,2021.2.3,Win32,144.1337561,627c6715c52fd12f31907bcf,,,,,,,,,,,,,,,,,,,,,,,l,1,8.3433,"[""0.053"",""0.343"",""0.834"",""0.703""]","[1,1,0,1]",0,23,23,23,1,1,1,,,1,FALSE,,,,,,,,,,,,,,,,,,,,,,,,,,,,,,,
,5f0a9094da2883360c73fd9f,627c6fd40eb3f1ceba2920d4,2022-05-11_22h24.41.154,classification_task,2021.2.3,Win32,144.1337561,627c6715c52fd12f31907bcf,,,,,,,,,,,,,,,,,,,,,,,a,1,6.2422,"[""0.192"",""0.505"",""0.940"",""0.975""]","[0,1,1,1]",0,24,24,24,1,0,1,,,1,FALSE,,,,,,,,,,,,,,,,,,,,,,,,,,,,,,,
,5f0a9094da2883360c73fd9f,627c6fd40eb3f1ceba2920d4,2022-05-11_22h24.41.154,classification_task,2021.2.3,Win32,144.1337561,627c6715c52fd12f31907bcf,,,,,,,,,,,,,,,,,,,,,,,l,1,6.2916,"[""0.098"",""0.150"",""0.582"",""0.457""]","[1,1,1,0]",0,25,25,25,1,1,0,,,1,FALSE,,,,,,,,,,,,,,,,,,,,,,,,,,,,,,,
,5f0a9094da2883360c73fd9f,627c6fd40eb3f1ceba2920d4,2022-05-11_22h24.41.154,classification_task,2021.2.3,Win32,144.1337561,627c6715c52fd12f31907bcf,,,,,,,,,,,,,,,,,,,,,,,a,1,5.9165,"[""0.274"",""0.505"",""0.462"",""0.975""]","[1,1,0,1]",0,26,26,26,1,0,1,,,1,FALSE,,,,,,,,,,,,,,,,,,,,,,,,,,,,,,,
,5f0a9094da2883360c73fd9f,627c6fd40eb3f1ceba2920d4,2022-05-11_22h24.41.154,classification_task,2021.2.3,Win32,144.1337561,627c6715c52fd12f31907bcf,,,,,,,,,,,,,,,,,,,,,,,l,1,7.1463,"[""0.098"",""0.150"",""0.436"",""0.762""]","[1,1,0,1]",0,27,27,27,1,1,0,,,1,FALSE,,,,,,,,,,,,,,,,,,,,,,,,,,,,,,,
,5f0a9094da2883360c73fd9f,627c6fd40eb3f1ceba2920d4,2022-05-11_22h24.41.154,classification_task,2021.2.3,Win32,144.1337561,627c6715c52fd12f31907bcf,,,,,,,,,,,,,,,,,,,,,,,a,1,6.0036,"[""0.229"",""0.389"",""0.457"",""0.906""]","[1,1,0,1]",0,28,28,28,1,0,0,,,1,FALSE,,,,,,,,,,,,,,,,,,,,,,,,,,,,,,,
,5f0a9094da2883360c73fd9f,627c6fd40eb3f1ceba2920d4,2022-05-11_22h24.41.154,classification_task,2021.2.3,Win32,144.1337561,627c6715c52fd12f31907bcf,,,,,,,,,,,,,,,,,,,,,,,l,1,7.2318,"[""0.542"",""0.343"",""0.621"",""0.703""]","[0,1,1,1]",0,29,29,29,1,1,1,,,1,FALSE,,,,,,,,,,,,,,,,,,,,,,,,,,,,,,,
,5f0a9094da2883360c73fd9f,627c6fd40eb3f1ceba2920d4,2022-05-11_22h24.41.154,classification_task,2021.2.3,Win32,144.1337561,627c6715c52fd12f31907bcf,,,,,,,,,,,,,,,,,,,,,,,l,1,8.4155,"[""0.053"",""0.462"",""0.621"",""0.703""]","[1,0,1,1]",0,30,30,30,1,1,1,,,1,FALSE,,,,,,,,,,,,,,,,,,,,,,,,,,,,,,,
,5f0a9094da2883360c73fd9f,627c6fd40eb3f1ceba2920d4,2022-05-11_22h24.41.154,classification_task,2021.2.3,Win32,144.1337561,627c6715c52fd12f31907bcf,,,,,,,,,,,,,,,,,,,,,,,l,1,8.1823,"[""0.098"",""0.460"",""0.582"",""0.762""]","[1,0,1,1]",0,31,31,31,1,1,0,,,1,FALSE,,,,,,,,,,,,,,,,,,,,,,,,,,,,,,,
,5f0a9094da2883360c73fd9f,627c6fd40eb3f1ceba2920d4,2022-05-11_22h24.41.154,classification_task,2021.2.3,Win32,144.1337561,627c6715c52fd12f31907bcf,,,,,,,,,,,,,,,,,,,,,,,l,0,4.8382,"[""0.229"",""0.815"",""0.870"",""0.906""]","[1,0,1,1]",0,32,32,32,1,0,0,,,1,FALSE,,,,,,,,,,,,,,,,,,,,,,,,,,,,,,,
,5f0a9094da2883360c73fd9f,627c6fd40eb3f1ceba2920d4,2022-05-11_22h24.41.154,classification_task,2021.2.3,Win32,144.1337561,627c6715c52fd12f31907bcf,,,,,,,,,,,,,,,,,,,,,,,a,0,5.8572,"[""0.053"",""0.343"",""0.542"",""0.703""]","[1,1,0,1]",0,33,33,33,1,1,1,,,1,FALSE,,,,,,,,,,,,,,,,,,,,,,,,,,,,,,,
,5f0a9094da2883360c73fd9f,627c6fd40eb3f1ceba2920d4,2022-05-11_22h24.41.154,classification_task,2021.2.3,Win32,144.1337561,627c6715c52fd12f31907bcf,,,,,,,,,,,,,,,,,,,,,,,l,1,6.0243,"[""0.098"",""0.150"",""0.542"",""0.762""]","[1,1,0,1]",0,34,34,34,1,1,0,,,1,FALSE,,,,,,,,,,,,,,,,,,,,,,,,,,,,,,,
,5f0a9094da2883360c73fd9f,627c6fd40eb3f1ceba2920d4,2022-05-11_22h24.41.154,classification_task,2021.2.3,Win32,144.1337561,627c6715c52fd12f31907bcf,,,,,,,,,,,,,,,,,,,,,,,l,1,2.4397,"[""0.098"",""0.150"",""0.582"",""0.462""]","[1,1,1,0]",0,35,35,35,1,1,0,,,1,FALSE,,,,,,,,,,,,,,,,,,,,,,,,,,,,,,,
,5f0a9094da2883360c73fd9f,627c6fd40eb3f1ceba2920d4,2022-05-11_22h24.41.154,classification_task,2021.2.3,Win32,144.1337561,627c6715c52fd12f31907bcf,,,,,,,,,,,,,,,,,,,,,,,l,1,2.7747,"[""0.432"",""0.150"",""0.582"",""0.762""]","[0,1,1,1]",0,36,36,36,1,1,0,,,1,FALSE,,,,,,,,,,,,,,,,,,,,,,,,,,,,,,,
,5f0a9094da2883360c73fd9f,627c6fd40eb3f1ceba2920d4,2022-05-11_22h24.41.154,classification_task,2021.2.3,Win32,144.1337561,627c6715c52fd12f31907bcf,,,,,,,,,,,,,,,,,,,,,,,a,1,4.2526,"[""0.462"",""0.505"",""0.940"",""0.975""]","[0,1,1,1]",0,37,37,37,1,0,1,,,1,FALSE,,,,,,,,,,,,,,,,,,,,,,,,,,,,,,,
,5f0a9094da2883360c73fd9f,627c6fd40eb3f1ceba2920d4,2022-05-11_22h24.41.154,classification_task,2021.2.3,Win32,144.1337561,627c6715c52fd12f31907bcf,,,,,,,,,,,,,,,,,,,,,,,l,1,4.0611,"[""0.098"",""0.819"",""0.582"",""0.762""]","[1,0,1,1]",0,38,38,38,1,1,0,,,1,FALSE,,,,,,,,,,,,,,,,,,,,,,,,,,,,,,,
,5f0a9094da2883360c73fd9f,627c6fd40eb3f1ceba2920d4,2022-05-11_22h24.41.154,classification_task,2021.2.3,Win32,144.1337561,627c6715c52fd12f31907bcf,,,,,,,,,,,,,,,,,,,,,,,a,1,1.6887,"[""0.274"",""0.836"",""0.940"",""0.975""]","[1,0,1,1]",0,39,39,39,1,0,1,,,1,FALSE,,,,,,,,,,,,,,,,,,,,,,,,,,,,,,,
,5f0a9094da2883360c73fd9f,627c6fd40eb3f1ceba2920d4,2022-05-11_22h24.41.154,classification_task,2021.2.3,Win32,144.1337561,627c6715c52fd12f31907bcf,,,,,,,,,,,,,,,,,,,,,,,l,0,3.4958,"[""0.274"",""0.505"",""0.940"",""0.836""]","[1,1,1,0]",0,40,40,40,1,0,1,,,1,FALSE,,,,,,,,,,,,,,,,,,,,,,,,,,,,,,,
,5f0a9094da2883360c73fd9f,627c6fd40eb3f1ceba2920d4,2022-05-11_22h24.41.154,classification_task,2021.2.3,Win32,144.1337561,627c6715c52fd12f31907bcf,,,,,,,,,,,,,,,,,,,,,,,l,0,1.394,"[""0.542"",""0.389"",""0.870"",""0.906""]","[0,1,1,1]",0,41,41,41,1,0,0,,,1,FALSE,,,,,,,,,,,,,,,,,,,,,,,,,,,,,,,
,5f0a9094da2883360c73fd9f,627c6fd40eb3f1ceba2920d4,2022-05-11_22h24.41.154,classification_task,2021.2.3,Win32,144.1337561,627c6715c52fd12f31907bcf,,,,,,,,,,,,,,,,,,,,,,,a,0,3.224,"[""0.053"",""0.460"",""0.621"",""0.703""]","[1,0,1,1]",0,42,42,42,1,1,1,,,1,FALSE,,,,,,,,,,,,,,,,,,,,,,,,,,,,,,,
,5f0a9094da2883360c73fd9f,627c6fd40eb3f1ceba2920d4,2022-05-11_22h24.41.154,classification_task,2021.2.3,Win32,144.1337561,627c6715c52fd12f31907bcf,,,,,,,,,,,,,,,,,,,,,,,a,0,3.1536,"[""0.804"",""0.343"",""0.621"",""0.703""]","[0,1,1,1]",0,43,43,43,1,1,1,,,1,FALSE,,,,,,,,,,,,,,,,,,,,,,,,,,,,,,,
,5f0a9094da2883360c73fd9f,627c6fd40eb3f1ceba2920d4,2022-05-11_22h24.41.154,classification_task,2021.2.3,Win32,144.1337561,627c6715c52fd12f31907bcf,,,,,,,,,,,,,,,,,,,,,,,l,0,4.8354,"[""0.229"",""0.389"",""0.462"",""0.906""]","[1,1,0,1]",0,44,44,44,1,0,0,,,1,FALSE,,,,,,,,,,,,,,,,,,,,,,,,,,,,,,,
,5f0a9094da2883360c73fd9f,627c6fd40eb3f1ceba2920d4,2022-05-11_22h24.41.154,classification_task,2021.2.3,Win32,144.1337561,627c6715c52fd12f31907bcf,,,,,,,,,,,,,,,,,,,,,,,l,1,3.2082,"[""0.053"",""0.343"",""0.621"",""0.834""]","[1,1,1,0]",0,45,45,45,1,1,1,,,1,FALSE,,,,,,,,,,,,,,,,,,,,,,,,,,,,,,,
,5f0a9094da2883360c73fd9f,627c6fd40eb3f1ceba2920d4,2022-05-11_22h24.41.154,classification_task,2021.2.3,Win32,144.1337561,627c6715c52fd12f31907bcf,,,,,,,,,,,,,,,,,,,,,,,a,1,3.5935,"[""0.229"",""0.389"",""0.870"",""0.658""]","[1,1,1,0]",0,46,46,46,1,0,0,,,1,FALSE,,,,,,,,,,,,,,,,,,,,,,,,,,,,,,,
,5f0a9094da2883360c73fd9f,627c6fd40eb3f1ceba2920d4,2022-05-11_22h24.41.154,classification_task,2021.2.3,Win32,144.1337561,627c6715c52fd12f31907bcf,,,,,,,,,,,,,,,,,,,,,,,l,0,3.9336,"[""0.274"",""0.505"",""0.192"",""0.975""]","[1,1,0,1]",0,47,47,47,1,0,1,,,1,FALSE,,,,,,,,,,,,,,,,,,,,,,,,,,,,,,,
,5f0a9094da2883360c73fd9f,627c6fd40eb3f1ceba2920d4,2022-05-11_22h24.41.154,classification_task,2021.2.3,Win32,144.1337561,627c6715c52fd12f31907bcf,,,,,,,,,,,,,,,,,,,,,,,l,1,2.3826,"[""0.053"",""0.343"",""0.436"",""0.703""]","[1,1,0,1]",0,48,48,48,1,1,1,,,1,FALSE,,,,,,,,,,,,,,,,,,,,,,,,,,,,,,,
,5f0a9094da2883360c73fd9f,627c6fd40eb3f1ceba2920d4,2022-05-11_22h24.41.154,classification_task,2021.2.3,Win32,144.1337561,627c6715c52fd12f31907bcf,,,,,,,,,,,,,,,,,,,,,,,a,1,3.5228,"[""0.229"",""0.389"",""0.870"",""0.462""]","[1,1,1,0]",0,49,49,49,1,0,0,,,1,FALSE,,,,,,,,,,,,,,,,,,,,,,,,,,,,,,,
,5f0a9094da2883360c73fd9f,627c6fd40eb3f1ceba2920d4,2022-05-11_22h24.41.154,classification_task,2021.2.3,Win32,144.1337561,627c6715c52fd12f31907bcf,,,,,,,,,,,,,,,,,,,,,,,l,1,3.4978,"[""0.098"",""0.195"",""0.582"",""0.762""]","[1,0,1,1]",0,50,50,50,1,1,0,,,1,FALSE,,,,,,,,,,,,,,,,,,,,,,,,,,,,,,,
,5f0a9094da2883360c73fd9f,627c6fd40eb3f1ceba2920d4,2022-05-11_22h24.41.154,classification_task,2021.2.3,Win32,144.1337561,627c6715c52fd12f31907bcf,,,,,,,,,,,,,,,,,,,,,,,l,0,1.5371,"[""0.836"",""0.505"",""0.940"",""0.975""]","[0,1,1,1]",0,51,51,51,1,0,1,,,1,FALSE,,,,,,,,,,,,,,,,,,,,,,,,,,,,,,,
,5f0a9094da2883360c73fd9f,627c6fd40eb3f1ceba2920d4,2022-05-11_22h24.41.154,classification_task,2021.2.3,Win32,144.1337561,627c6715c52fd12f31907bcf,,,,,,,,,,,,,,,,,,,,,,,a,1,1.17,"[""0.274"",""0.192"",""0.940"",""0.975""]","[1,0,1,1]",0,52,52,52,1,0,1,,,1,FALSE,,,,,,,,,,,,,,,,,,,,,,,,,,,,,,,
,5f0a9094da2883360c73fd9f,627c6fd40eb3f1ceba2920d4,2022-05-11_22h24.41.154,classification_task,2021.2.3,Win32,144.1337561,627c6715c52fd12f31907bcf,,,,,,,,,,,,,,,,,,,,,,,l,1,2.0745,"[""0.053"",""0.343"",""0.621"",""0.815""]","[1,1,1,0]",0,53,53,53,1,1,1,,,1,FALSE,,,,,,,,,,,,,,,,,,,,,,,,,,,,,,,
,5f0a9094da2883360c73fd9f,627c6fd40eb3f1ceba2920d4,2022-05-11_22h24.41.154,classification_task,2021.2.3,Win32,144.1337561,627c6715c52fd12f31907bcf,,,,,,,,,,,,,,,,,,,,,,,l,0,2.2507,"[""0.274"",""0.505"",""0.940"",""0.542""]","[1,1,1,0]",0,54,54,54,1,0,1,,,1,FALSE,,,,,,,,,,,,,,,,,,,,,,,,,,,,,,,
,5f0a9094da2883360c73fd9f,627c6fd40eb3f1ceba2920d4,2022-05-11_22h24.41.154,classification_task,2021.2.3,Win32,144.1337561,627c6715c52fd12f31907bcf,,,,,,,,,,,,,,,,,,,,,,,a,1,0.8045,"[""0.274"",""0.505"",""0.460"",""0.975""]","[1,1,0,1]",0,55,55,55,1,0,1,,,1,FALSE,,,,,,,,,,,,,,,,,,,,,,,,,,,,,,,
,5f0a9094da2883360c73fd9f,627c6fd40eb3f1ceba2920d4,2022-05-11_22h24.41.154,classification_task,2021.2.3,Win32,144.1337561,627c6715c52fd12f31907bcf,,,,,,,,,,,,,,,,,,,,,,,a,0,1.6322,"[""0.053"",""0.462"",""0.621"",""0.703""]","[1,0,1,1]",0,56,56,56,1,1,1,,,1,FALSE,,,,,,,,,,,,,,,,,,,,,,,,,,,,,,,
,5f0a9094da2883360c73fd9f,627c6fd40eb3f1ceba2920d4,2022-05-11_22h24.41.154,classification_task,2021.2.3,Win32,144.1337561,627c6715c52fd12f31907bcf,,,,,,,,,,,,,,,,,,,,,,,l,0,2.1554,"[""0.229"",""0.457"",""0.870"",""0.906""]","[1,0,1,1]",0,57,57,57,1,0,0,,,1,FALSE,,,,,,,,,,,,,,,,,,,,,,,,,,,,,,,
,5f0a9094da2883360c73fd9f,627c6fd40eb3f1ceba2920d4,2022-05-11_22h24.41.154,classification_task,2021.2.3,Win32,144.1337561,627c6715c52fd12f31907bcf,,,,,,,,,,,,,,,,,,,,,,,l,1,1.0204,"[""0.098"",""0.150"",""0.192"",""0.762""]","[1,1,0,1]",0,58,58,58,1,1,0,,,1,FALSE,,,,,,,,,,,,,,,,,,,,,,,,,,,,,,,
,5f0a9094da2883360c73fd9f,627c6fd40eb3f1ceba2920d4,2022-05-11_22h24.41.154,classification_task,2021.2.3,Win32,144.1337561,627c6715c52fd12f31907bcf,,,,,,,,,,,,,,,,,,,,,,,a,0,3.6712,"[""0.542"",""0.343"",""0.621"",""0.703""]","[0,1,1,1]",0,59,59,59,1,1,1,,,1,FALSE,,,,,,,,,,,,,,,,,,,,,,,,,,,,,,,
,5f0a9094da2883360c73fd9f,627c6fd40eb3f1ceba2920d4,2022-05-11_22h24.41.154,classification_task,2021.2.3,Win32,144.1337561,627c6715c52fd12f31907bcf,,,,,,,,,,,,,,,,,,,,,,,l,0,3.4623,"[""0.229"",""0.389"",""0.804"",""0.906""]","[1,1,0,1]",0,60,60,60,1,0,0,,,1,FALSE,,,,,,,,,,,,,,,,,,,,,,,,,,,,,,,
,5f0a9094da2883360c73fd9f,627c6fd40eb3f1ceba2920d4,2022-05-11_22h24.41.154,classification_task,2021.2.3,Win32,144.1337561,627c6715c52fd12f31907bcf,,,,,,,,,,,,,,,,,,,,,,,l,1,1.0203,"[""0.098"",""0.150"",""0.582"",""0.192""]","[1,1,1,0]",0,61,61,61,1,1,0,,,1,FALSE,,,,,,,,,,,,,,,,,,,,,,,,,,,,,,,
,5f0a9094da2883360c73fd9f,627c6fd40eb3f1ceba2920d4,2022-05-11_22h24.41.154,classification_task,2021.2.3,Win32,144.1337561,627c6715c52fd12f31907bcf,,,,,,,,,,,,,,,,,,,,,,,a,0,1.9169,"[""0.658"",""0.150"",""0.582"",""0.762""]","[0,1,1,1]",0,62,62,62,1,1,0,,,1,FALSE,,,,,,,,,,,,,,,,,,,,,,,,,,,,,,,
,5f0a9094da2883360c73fd9f,627c6fd40eb3f1ceba2920d4,2022-05-11_22h24.41.154,classification_task,2021.2.3,Win32,144.1337561,627c6715c52fd12f31907bcf,,,,,,,,,,,,,,,,,,,,,,,a,1,1.0742,"[""0.195"",""0.389"",""0.870"",""0.906""]","[0,1,1,1]",0,63,63,63,1,0,0,,,1,FALSE,,,,,,,,,,,,,,,,,,,,,,,,,,,,,,,
,5f0a9094da2883360c73fd9f,627c6fd40eb3f1ceba2920d4,2022-05-11_22h24.41.154,classification_task,2021.2.3,Win32,144.1337561,627c6715c52fd12f31907bcf,,,,,,,,,,,,,,,,,,,,,,,,,,,,,,,,,,,,,,,0, ,,0,9.268323303,651.5167,0,0,0,0,1,2,1,,,,,,,,,,,,,,,,,,
,5f0a9094da2883360c73fd9f,627c6fd40eb3f1ceba2920d4,2022-05-11_22h24.41.154,classification_task,2021.2.3,Win32,144.1337561,627c6715c52fd12f31907bcf,,,,,,,,,,,,,,,,,,,,,,,,,,,,,,,,,,,,,,,1,  ,,0,8.166030534,657.8402,0,0,0,0,1,2,1,,,,,,,,,,,,,,,,,,
,5f0a9094da2883360c73fd9f,627c6fd40eb3f1ceba2920d4,2022-05-11_22h24.41.154,classification_task,2021.2.3,Win32,144.1337561,627c6715c52fd12f31907bcf,,,,,,,,,,,,,,,,,,,,,,,,,,,,,,,,,,,,,,,2,  ,,0,6.794288795,669.0177,0,0,0,0,1,2,1,,,,,,,,,,,,,,,,,,
,5f0a9094da2883360c73fd9f,627c6fd40eb3f1ceba2920d4,2022-05-11_22h24.41.154,classification_task,2021.2.3,Win32,144.1337561,627c6715c52fd12f31907bcf,,,,,,,,,,,,,,,,,,,,,,,,,,,,,,,,,,,,,,,,,,,,,0,0,0,0,1,,1,,,,,,,,,,,,,,,,,,
,5f0a9094da2883360c73fd9f,627c6fd40eb3f1ceba2920d4,2022-05-11_22h24.41.154,classification_task,2021.2.3,Win32,144.1337561,627c6715c52fd12f31907bcf,,,,,,,,,,,,,,,,,,,,,space,18.0023,l,1,4.7248,"[""0.098"",""0.150"",""0.192"",""0.762""]","[1,1,0,1]",0,0,0,0,1,1,0,,,1,FALSE,,,,,,,,,,,,,,,,,,,,,,,,,,,,,,,
,5f0a9094da2883360c73fd9f,627c6fd40eb3f1ceba2920d4,2022-05-11_22h24.41.154,classification_task,2021.2.3,Win32,144.1337561,627c6715c52fd12f31907bcf,,,,,,,,,,,,,,,,,,,,,,,l,1,2.9932,"[""0.053"",""0.343"",""0.621"",""0.804""]","[1,1,1,0]",0,1,1,1,1,1,1,,,1,FALSE,,,,,,,,,,,,,,,,,,,,,,,,,,,,,,,
,5f0a9094da2883360c73fd9f,627c6fd40eb3f1ceba2920d4,2022-05-11_22h24.41.154,classification_task,2021.2.3,Win32,144.1337561,627c6715c52fd12f31907bcf,,,,,,,,,,,,,,,,,,,,,,,l,1,1.3633,"[""0.053"",""0.343"",""0.658"",""0.703""]","[1,1,0,1]",0,2,2,2,1,1,1,,,1,FALSE,,,,,,,,,,,,,,,,,,,,,,,,,,,,,,,
,5f0a9094da2883360c73fd9f,627c6fd40eb3f1ceba2920d4,2022-05-11_22h24.41.154,classification_task,2021.2.3,Win32,144.1337561,627c6715c52fd12f31907bcf,,,,,,,,,,,,,,,,,,,,,,,l,1,1.482,"[""0.053"",""0.804"",""0.621"",""0.703""]","[1,0,1,1]",0,3,3,3,1,1,1,,,1,FALSE,,,,,,,,,,,,,,,,,,,,,,,,,,,,,,,
,5f0a9094da2883360c73fd9f,627c6fd40eb3f1ceba2920d4,2022-05-11_22h24.41.154,classification_task,2021.2.3,Win32,144.1337561,627c6715c52fd12f31907bcf,,,,,,,,,,,,,,,,,,,,,,,a,1,3.5504,"[""0.229"",""0.192"",""0.870"",""0.906""]","[1,0,1,1]",0,4,4,4,1,0,0,,,1,FALSE,,,,,,,,,,,,,,,,,,,,,,,,,,,,,,,
,5f0a9094da2883360c73fd9f,627c6fd40eb3f1ceba2920d4,2022-05-11_22h24.41.154,classification_task,2021.2.3,Win32,144.1337561,627c6715c52fd12f31907bcf,,,,,,,,,,,,,,,,,,,,,,,a,1,2.4213,"[""0.274"",""0.505"",""0.940"",""0.457""]","[1,1,1,0]",0,5,5,5,1,0,1,,,1,FALSE,,,,,,,,,,,,,,,,,,,,,,,,,,,,,,,
,5f0a9094da2883360c73fd9f,627c6fd40eb3f1ceba2920d4,2022-05-11_22h24.41.154,classification_task,2021.2.3,Win32,144.1337561,627c6715c52fd12f31907bcf,,,,,,,,,,,,,,,,,,,,,,,l,1,1.8712,"[""0.192"",""0.343"",""0.621"",""0.703""]","[0,1,1,1]",0,6,6,6,1,1,1,,,1,FALSE,,,,,,,,,,,,,,,,,,,,,,,,,,,,,,,
,5f0a9094da2883360c73fd9f,627c6fd40eb3f1ceba2920d4,2022-05-11_22h24.41.154,classification_task,2021.2.3,Win32,144.1337561,627c6715c52fd12f31907bcf,,,,,,,,,,,,,,,,,,,,,,,a,1,1.8112,"[""0.436"",""0.389"",""0.870"",""0.906""]","[0,1,1,1]",0,7,7,7,1,0,0,,,1,FALSE,,,,,,,,,,,,,,,,,,,,,,,,,,,,,,,
,5f0a9094da2883360c73fd9f,627c6fd40eb3f1ceba2920d4,2022-05-11_22h24.41.154,classification_task,2021.2.3,Win32,144.1337561,627c6715c52fd12f31907bcf,,,,,,,,,,,,,,,,,,,,,,,a,1,1.888,"[""0.229"",""0.389"",""0.815"",""0.906""]","[1,1,0,1]",0,8,8,8,1,0,0,,,1,FALSE,,,,,,,,,,,,,,,,,,,,,,,,,,,,,,,
,5f0a9094da2883360c73fd9f,627c6fd40eb3f1ceba2920d4,2022-05-11_22h24.41.154,classification_task,2021.2.3,Win32,144.1337561,627c6715c52fd12f31907bcf,,,,,,,,,,,,,,,,,,,,,,,l,1,1.4321,"[""0.436"",""0.150"",""0.582"",""0.762""]","[0,1,1,1]",0,9,9,9,1,1,0,,,1,FALSE,,,,,,,,,,,,,,,,,,,,,,,,,,,,,,,
,5f0a9094da2883360c73fd9f,627c6fd40eb3f1ceba2920d4,2022-05-11_22h24.41.154,classification_task,2021.2.3,Win32,144.1337561,627c6715c52fd12f31907bcf,,,,,,,,,,,,,,,,,,,,,,,l,0,1.8081,"[""0.229"",""0.389"",""0.870"",""0.461""]","[1,1,1,0]",0,10,10,10,1,0,0,,,1,FALSE,,,,,,,,,,,,,,,,,,,,,,,,,,,,,,,
,5f0a9094da2883360c73fd9f,627c6fd40eb3f1ceba2920d4,2022-05-11_22h24.41.154,classification_task,2021.2.3,Win32,144.1337561,627c6715c52fd12f31907bcf,,,,,,,,,,,,,,,,,,,,,,,a,1,1.6054,"[""0.274"",""0.505"",""0.432"",""0.975""]","[1,1,0,1]",0,11,11,11,1,0,1,,,1,FALSE,,,,,,,,,,,,,,,,,,,,,,,,,,,,,,,
,5f0a9094da2883360c73fd9f,627c6fd40eb3f1ceba2920d4,2022-05-11_22h24.41.154,classification_task,2021.2.3,Win32,144.1337561,627c6715c52fd12f31907bcf,,,,,,,,,,,,,,,,,,,,,,,a,0,1.8094,"[""0.098"",""0.150"",""0.582"",""0.436""]","[1,1,1,0]",0,12,12,12,1,1,0,,,1,FALSE,,,,,,,,,,,,,,,,,,,,,,,,,,,,,,,
,5f0a9094da2883360c73fd9f,627c6fd40eb3f1ceba2920d4,2022-05-11_22h24.41.154,classification_task,2021.2.3,Win32,144.1337561,627c6715c52fd12f31907bcf,,,,,,,,,,,,,,,,,,,,,,,a,1,1.4948,"[""0.834"",""0.505"",""0.940"",""0.975""]","[0,1,1,1]",0,13,13,13,1,0,1,,,1,FALSE,,,,,,,,,,,,,,,,,,,,,,,,,,,,,,,
,5f0a9094da2883360c73fd9f,627c6fd40eb3f1ceba2920d4,2022-05-11_22h24.41.154,classification_task,2021.2.3,Win32,144.1337561,627c6715c52fd12f31907bcf,,,,,,,,,,,,,,,,,,,,,,,l,1,1.0068,"[""0.098"",""0.195"",""0.582"",""0.762""]","[1,0,1,1]",0,14,14,14,1,1,0,,,1,FALSE,,,,,,,,,,,,,,,,,,,,,,,,,,,,,,,
,5f0a9094da2883360c73fd9f,627c6fd40eb3f1ceba2920d4,2022-05-11_22h24.41.154,classification_task,2021.2.3,Win32,144.1337561,627c6715c52fd12f31907bcf,,,,,,,,,,,,,,,,,,,,,,,a,1,1.425,"[""0.274"",""0.819"",""0.940"",""0.975""]","[1,0,1,1]",0,15,15,15,1,0,1,,,1,FALSE,,,,,,,,,,,,,,,,,,,,,,,,,,,,,,,
,5f0a9094da2883360c73fd9f,627c6fd40eb3f1ceba2920d4,2022-05-11_22h24.41.154,classification_task,2021.2.3,Win32,144.1337561,627c6715c52fd12f31907bcf,,,,,,,,,,,,,,,,,,,,,,,a,1,1.6931,"[""0.274"",""0.505"",""0.462"",""0.975""]","[1,1,0,1]",0,16,16,16,1,0,1,,,1,FALSE,,,,,,,,,,,,,,,,,,,,,,,,,,,,,,,
,5f0a9094da2883360c73fd9f,627c6fd40eb3f1ceba2920d4,2022-05-11_22h24.41.154,classification_task,2021.2.3,Win32,144.1337561,627c6715c52fd12f31907bcf,,,,,,,,,,,,,,,,,,,,,,,a,1,4.5592,"[""0.658"",""0.389"",""0.870"",""0.906""]","[0,1,1,1]",0,17,17,17,1,0,0,,,1,FALSE,,,,,,,,,,,,,,,,,,,,,,,,,,,,,,,
,5f0a9094da2883360c73fd9f,627c6fd40eb3f1ceba2920d4,2022-05-11_22h24.41.154,classification_task,2021.2.3,Win32,144.1337561,627c6715c52fd12f31907bcf,,,,,,,,,,,,,,,,,,,,,,,l,1,2.88,"[""0.053"",""0.343"",""0.457"",""0.703""]","[1,1,0,1]",0,18,18,18,1,1,1,,,1,FALSE,,,,,,,,,,,,,,,,,,,,,,,,,,,,,,,
,5f0a9094da2883360c73fd9f,627c6fd40eb3f1ceba2920d4,2022-05-11_22h24.41.154,classification_task,2021.2.3,Win32,144.1337561,627c6715c52fd12f31907bcf,,,,,,,,,,,,,,,,,,,,,,,a,1,2.0286,"[""0.274"",""0.505"",""0.940"",""0.804""]","[1,1,1,0]",0,19,19,19,1,0,1,,,1,FALSE,,,,,,,,,,,,,,,,,,,,,,,,,,,,,,,
,5f0a9094da2883360c73fd9f,627c6fd40eb3f1ceba2920d4,2022-05-11_22h24.41.154,classification_task,2021.2.3,Win32,144.1337561,627c6715c52fd12f31907bcf,,,,,,,,,,,,,,,,,,,,,,,l,1,3.222,"[""0.098"",""0.150"",""0.582"",""0.658""]","[1,1,1,0]",0,20,20,20,1,1,0,,,1,FALSE,,,,,,,,,,,,,,,,,,,,,,,,,,,,,,,
,5f0a9094da2883360c73fd9f,627c6fd40eb3f1ceba2920d4,2022-05-11_22h24.41.154,classification_task,2021.2.3,Win32,144.1337561,627c6715c52fd12f31907bcf,,,,,,,,,,,,,,,,,,,,,,,l,0,3.7694,"[""0.229"",""0.389"",""0.870"",""0.460""]","[1,1,1,0]",0,21,21,21,1,0,0,,,1,FALSE,,,,,,,,,,,,,,,,,,,,,,,,,,,,,,,
,5f0a9094da2883360c73fd9f,627c6fd40eb3f1ceba2920d4,2022-05-11_22h24.41.154,classification_task,2021.2.3,Win32,144.1337561,627c6715c52fd12f31907bcf,,,,,,,,,,,,,,,,,,,,,,,a,0,1.1034,"[""0.819"",""0.150"",""0.582"",""0.762""]","[0,1,1,1]",0,22,22,22,1,1,0,,,1,FALSE,,,,,,,,,,,,,,,,,,,,,,,,,,,,,,,
,5f0a9094da2883360c73fd9f,627c6fd40eb3f1ceba2920d4,2022-05-11_22h24.41.154,classification_task,2021.2.3,Win32,144.1337561,627c6715c52fd12f31907bcf,,,,,,,,,,,,,,,,,,,,,,,l,1,1.3043,"[""0.098"",""0.460"",""0.582"",""0.762""]","[1,0,1,1]",0,23,23,23,1,1,0,,,1,FALSE,,,,,,,,,,,,,,,,,,,,,,,,,,,,,,,
,5f0a9094da2883360c73fd9f,627c6fd40eb3f1ceba2920d4,2022-05-11_22h24.41.154,classification_task,2021.2.3,Win32,144.1337561,627c6715c52fd12f31907bcf,,,,,,,,,,,,,,,,,,,,,,,a,1,0.8983,"[""0.229"",""0.804"",""0.870"",""0.906""]","[1,0,1,1]",0,24,24,24,1,0,0,,,1,FALSE,,,,,,,,,,,,,,,,,,,,,,,,,,,,,,,
,5f0a9094da2883360c73fd9f,627c6fd40eb3f1ceba2920d4,2022-05-11_22h24.41.154,classification_task,2021.2.3,Win32,144.1337561,627c6715c52fd12f31907bcf,,,,,,,,,,,,,,,,,,,,,,,a,1,1.4719,"[""0.274"",""0.834"",""0.940"",""0.975""]","[1,0,1,1]",0,25,25,25,1,0,1,,,1,FALSE,,,,,,,,,,,,,,,,,,,,,,,,,,,,,,,
,5f0a9094da2883360c73fd9f,627c6fd40eb3f1ceba2920d4,2022-05-11_22h24.41.154,classification_task,2021.2.3,Win32,144.1337561,627c6715c52fd12f31907bcf,,,,,,,,,,,,,,,,,,,,,,,a,1,2.8049,"[""0.229"",""0.389"",""0.836"",""0.906""]","[1,1,0,1]",0,26,26,26,1,0,0,,,1,FALSE,,,,,,,,,,,,,,,,,,,,,,,,,,,,,,,
,5f0a9094da2883360c73fd9f,627c6fd40eb3f1ceba2920d4,2022-05-11_22h24.41.154,classification_task,2021.2.3,Win32,144.1337561,627c6715c52fd12f31907bcf,,,,,,,,,,,,,,,,,,,,,,,l,1,1.3736,"[""0.098"",""0.150"",""0.658"",""0.762""]","[1,1,0,1]",0,27,27,27,1,1,0,,,1,FALSE,,,,,,,,,,,,,,,,,,,,,,,,,,,,,,,
,5f0a9094da2883360c73fd9f,627c6fd40eb3f1ceba2920d4,2022-05-11_22h24.41.154,classification_task,2021.2.3,Win32,144.1337561,627c6715c52fd12f31907bcf,,,,,,,,,,,,,,,,,,,,,,,l,1,1.0508,"[""0.432"",""0.343"",""0.621"",""0.703""]","[0,1,1,1]",0,28,28,28,1,1,1,,,1,FALSE,,,,,,,,,,,,,,,,,,,,,,,,,,,,,,,
,5f0a9094da2883360c73fd9f,627c6fd40eb3f1ceba2920d4,2022-05-11_22h24.41.154,classification_task,2021.2.3,Win32,144.1337561,627c6715c52fd12f31907bcf,,,,,,,,,,,,,,,,,,,,,,,a,1,0.6842,"[""0.542"",""0.505"",""0.940"",""0.975""]","[0,1,1,1]",0,29,29,29,1,0,1,,,1,FALSE,,,,,,,,,,,,,,,,,,,,,,,,,,,,,,,
,5f0a9094da2883360c73fd9f,627c6fd40eb3f1ceba2920d4,2022-05-11_22h24.41.154,classification_task,2021.2.3,Win32,144.1337561,627c6715c52fd12f31907bcf,,,,,,,,,,,,,,,,,,,,,,,l,1,1.2742,"[""0.053"",""0.436"",""0.621"",""0.703""]","[1,0,1,1]",0,30,30,30,1,1,1,,,1,FALSE,,,,,,,,,,,,,,,,,,,,,,,,,,,,,,,
,5f0a9094da2883360c73fd9f,627c6fd40eb3f1ceba2920d4,2022-05-11_22h24.41.154,classification_task,2021.2.3,Win32,144.1337561,627c6715c52fd12f31907bcf,,,,,,,,,,,,,,,,,,,,,,,l,1,0.7513,"[""0.053"",""0.343"",""0.621"",""0.432""]","[1,1,1,0]",0,31,31,31,1,1,1,,,1,FALSE,,,,,,,,,,,,,,,,,,,,,,,,,,,,,,,
,5f0a9094da2883360c73fd9f,627c6fd40eb3f1ceba2920d4,2022-05-11_22h24.41.154,classification_task,2021.2.3,Win32,144.1337561,627c6715c52fd12f31907bcf,,,,,,,,,,,,,,,,,,,,,,,a,1,1.0925,"[""0.229"",""0.436"",""0.870"",""0.906""]","[1,0,1,1]",0,32,32,32,1,0,0,,,1,FALSE,,,,,,,,,,,,,,,,,,,,,,,,,,,,,,,
,5f0a9094da2883360c73fd9f,627c6fd40eb3f1ceba2920d4,2022-05-11_22h24.41.154,classification_task,2021.2.3,Win32,144.1337561,627c6715c52fd12f31907bcf,,,,,,,,,,,,,,,,,,,,,,,l,1,1.0645,"[""0.432"",""0.343"",""0.621"",""0.703""]","[0,1,1,1]",0,33,33,33,1,1,1,,,1,FALSE,,,,,,,,,,,,,,,,,,,,,,,,,,,,,,,
,5f0a9094da2883360c73fd9f,627c6fd40eb3f1ceba2920d4,2022-05-11_22h24.41.154,classification_task,2021.2.3,Win32,144.1337561,627c6715c52fd12f31907bcf,,,,,,,,,,,,,,,,,,,,,,,a,1,0.6705,"[""0.274"",""0.505"",""0.432"",""0.975""]","[1,1,0,1]",0,34,34,34,1,0,1,,,1,FALSE,,,,,,,,,,,,,,,,,,,,,,,,,,,,,,,
,5f0a9094da2883360c73fd9f,627c6fd40eb3f1ceba2920d4,2022-05-11_22h24.41.154,classification_task,2021.2.3,Win32,144.1337561,627c6715c52fd12f31907bcf,,,,,,,,,,,,,,,,,,,,,,,a,1,3.4716,"[""0.229"",""0.389"",""0.870"",""0.819""]","[1,1,1,0]",0,35,35,35,1,0,0,,,1,FALSE,,,,,,,,,,,,,,,,,,,,,,,,,,,,,,,
,5f0a9094da2883360c73fd9f,627c6fd40eb3f1ceba2920d4,2022-05-11_22h24.41.154,classification_task,2021.2.3,Win32,144.1337561,627c6715c52fd12f31907bcf,,,,,,,,,,,,,,,,,,,,,,,l,1,0.8003,"[""0.098"",""0.150"",""0.460"",""0.762""]","[1,1,0,1]",0,36,36,36,1,1,0,,,1,FALSE,,,,,,,,,,,,,,,,,,,,,,,,,,,,,,,
,5f0a9094da2883360c73fd9f,627c6fd40eb3f1ceba2920d4,2022-05-11_22h24.41.154,classification_task,2021.2.3,Win32,144.1337561,627c6715c52fd12f31907bcf,,,,,,,,,,,,,,,,,,,,,,,a,1,0.9273,"[""0.457"",""0.505"",""0.940"",""0.975""]","[0,1,1,1]",0,37,37,37,1,0,1,,,1,FALSE,,,,,,,,,,,,,,,,,,,,,,,,,,,,,,,
,5f0a9094da2883360c73fd9f,627c6fd40eb3f1ceba2920d4,2022-05-11_22h24.41.154,classification_task,2021.2.3,Win32,144.1337561,627c6715c52fd12f31907bcf,,,,,,,,,,,,,,,,,,,,,,,l,1,0.7036,"[""0.053"",""0.343"",""0.834"",""0.703""]","[1,1,0,1]",0,38,38,38,1,1,1,,,1,FALSE,,,,,,,,,,,,,,,,,,,,,,,,,,,,,,,
,5f0a9094da2883360c73fd9f,627c6fd40eb3f1ceba2920d4,2022-05-11_22h24.41.154,classification_task,2021.2.3,Win32,144.1337561,627c6715c52fd12f31907bcf,,,,,,,,,,,,,,,,,,,,,,,a,1,0.7272,"[""0.274"",""0.505"",""0.940"",""0.432""]","[1,1,1,0]",0,39,39,39,1,0,1,,,1,FALSE,,,,,,,,,,,,,,,,,,,,,,,,,,,,,,,
,5f0a9094da2883360c73fd9f,627c6fd40eb3f1ceba2920d4,2022-05-11_22h24.41.154,classification_task,2021.2.3,Win32,144.1337561,627c6715c52fd12f31907bcf,,,,,,,,,,,,,,,,,,,,,,,a,1,1.2733,"[""0.229"",""0.389"",""0.836"",""0.906""]","[1,1,0,1]",0,40,40,40,1,0,0,,,1,FALSE,,,,,,,,,,,,,,,,,,,,,,,,,,,,,,,
,5f0a9094da2883360c73fd9f,627c6fd40eb3f1ceba2920d4,2022-05-11_22h24.41.154,classification_task,2021.2.3,Win32,144.1337561,627c6715c52fd12f31907bcf,,,,,,,,,,,,,,,,,,,,,,,a,1,0.7536,"[""0.836"",""0.389"",""0.870"",""0.906""]","[0,1,1,1]",0,41,41,41,1,0,0,,,1,FALSE,,,,,,,,,,,,,,,,,,,,,,,,,,,,,,,
,5f0a9094da2883360c73fd9f,627c6fd40eb3f1ceba2920d4,2022-05-11_22h24.41.154,classification_task,2021.2.3,Win32,144.1337561,627c6715c52fd12f31907bcf,,,,,,,,,,,,,,,,,,,,,,,l,1,0.5945,"[""0.053"",""0.343"",""0.621"",""0.432""]","[1,1,1,0]",0,42,42,42,1,1,1,,,1,FALSE,,,,,,,,,,,,,,,,,,,,,,,,,,,,,,,
,5f0a9094da2883360c73fd9f,627c6fd40eb3f1ceba2920d4,2022-05-11_22h24.41.154,classification_task,2021.2.3,Win32,144.1337561,627c6715c52fd12f31907bcf,,,,,,,,,,,,,,,,,,,,,,,a,1,0.5945,"[""0.274"",""0.462"",""0.940"",""0.975""]","[1,0,1,1]",0,43,43,43,1,0,1,,,1,FALSE,,,,,,,,,,,,,,,,,,,,,,,,,,,,,,,
,5f0a9094da2883360c73fd9f,627c6fd40eb3f1ceba2920d4,2022-05-11_22h24.41.154,classification_task,2021.2.3,Win32,144.1337561,627c6715c52fd12f31907bcf,,,,,,,,,,,,,,,,,,,,,,,l,1,0.701,"[""0.053"",""0.834"",""0.621"",""0.703""]","[1,0,1,1]",0,44,44,44,1,1,1,,,1,FALSE,,,,,,,,,,,,,,,,,,,,,,,,,,,,,,,
,5f0a9094da2883360c73fd9f,627c6fd40eb3f1ceba2920d4,2022-05-11_22h24.41.154,classification_task,2021.2.3,Win32,144.1337561,627c6715c52fd12f31907bcf,,,,,,,,,,,,,,,,,,,,,,,l,1,0.9717,"[""0.098"",""0.436"",""0.582"",""0.762""]","[1,0,1,1]",0,45,45,45,1,1,0,,,1,FALSE,,,,,,,,,,,,,,,,,,,,,,,,,,,,,,,
,5f0a9094da2883360c73fd9f,627c6fd40eb3f1ceba2920d4,2022-05-11_22h24.41.154,classification_task,2021.2.3,Win32,144.1337561,627c6715c52fd12f31907bcf,,,,,,,,,,,,,,,,,,,,,,,l,1,1.018,"[""0.098"",""0.150"",""0.582"",""0.819""]","[1,1,1,0]",0,46,46,46,1,1,0,,,1,FALSE,,,,,,,,,,,,,,,,,,,,,,,,,,,,,,,
,5f0a9094da2883360c73fd9f,627c6fd40eb3f1ceba2920d4,2022-05-11_22h24.41.154,classification_task,2021.2.3,Win32,144.1337561,627c6715c52fd12f31907bcf,,,,,,,,,,,,,,,,,,,,,,,a,0,1.2646,"[""0.804"",""0.150"",""0.582"",""0.762""]","[0,1,1,1]",0,47,47,47,1,1,0,,,1,FALSE,,,,,,,,,,,,,,,,,,,,,,,,,,,,,,,
,5f0a9094da2883360c73fd9f,627c6fd40eb3f1ceba2920d4,2022-05-11_22h24.41.154,classification_task,2021.2.3,Win32,144.1337561,627c6715c52fd12f31907bcf,,,,,,,,,,,,,,,,,,,,,,,l,1,1.2777,"[""0.053"",""0.457"",""0.621"",""0.703""]","[1,0,1,1]",0,48,48,48,1,1,1,,,1,FALSE,,,,,,,,,,,,,,,,,,,,,,,,,,,,,,,
,5f0a9094da2883360c73fd9f,627c6fd40eb3f1ceba2920d4,2022-05-11_22h24.41.154,classification_task,2021.2.3,Win32,144.1337561,627c6715c52fd12f31907bcf,,,,,,,,,,,,,,,,,,,,,,,l,1,0.8207,"[""0.053"",""0.343"",""0.457"",""0.703""]","[1,1,0,1]",0,49,49,49,1,1,1,,,1,FALSE,,,,,,,,,,,,,,,,,,,,,,,,,,,,,,,
,5f0a9094da2883360c73fd9f,627c6fd40eb3f1ceba2920d4,2022-05-11_22h24.41.154,classification_task,2021.2.3,Win32,144.1337561,627c6715c52fd12f31907bcf,,,,,,,,,,,,,,,,,,,,,,,l,1,2.0194,"[""0.098"",""0.150"",""0.836"",""0.762""]","[1,1,0,1]",0,50,50,50,1,1,0,,,1,FALSE,,,,,,,,,,,,,,,,,,,,,,,,,,,,,,,
,5f0a9094da2883360c73fd9f,627c6fd40eb3f1ceba2920d4,2022-05-11_22h24.41.154,classification_task,2021.2.3,Win32,144.1337561,627c6715c52fd12f31907bcf,,,,,,,,,,,,,,,,,,,,,,,l,0,1.4022,"[""0.229"",""0.389"",""0.870"",""0.192""]","[1,1,1,0]",0,51,51,51,1,0,0,,,1,FALSE,,,,,,,,,,,,,,,,,,,,,,,,,,,,,,,
,5f0a9094da2883360c73fd9f,627c6fd40eb3f1ceba2920d4,2022-05-11_22h24.41.154,classification_task,2021.2.3,Win32,144.1337561,627c6715c52fd12f31907bcf,,,,,,,,,,,,,,,,,,,,,,,a,1,0.88,"[""0.192"",""0.505"",""0.940"",""0.975""]","[0,1,1,1]",0,52,52,52,1,0,1,,,1,FALSE,,,,,,,,,,,,,,,,,,,,,,,,,,,,,,,
,5f0a9094da2883360c73fd9f,627c6fd40eb3f1ceba2920d4,2022-05-11_22h24.41.154,classification_task,2021.2.3,Win32,144.1337561,627c6715c52fd12f31907bcf,,,,,,,,,,,,,,,,,,,,,,,l,1,1.1505,"[""0.195"",""0.343"",""0.621"",""0.703""]","[0,1,1,1]",0,53,53,53,1,1,1,,,1,FALSE,,,,,,,,,,,,,,,,,,,,,,,,,,,,,,,
,5f0a9094da2883360c73fd9f,627c6fd40eb3f1ceba2920d4,2022-05-11_22h24.41.154,classification_task,2021.2.3,Win32,144.1337561,627c6715c52fd12f31907bcf,,,,,,,,,,,,,,,,,,,,,,,a,1,3.4574,"[""0.229"",""0.192"",""0.870"",""0.906""]","[1,0,1,1]",0,54,54,54,1,0,0,,,1,FALSE,,,,,,,,,,,,,,,,,,,,,,,,,,,,,,,
,5f0a9094da2883360c73fd9f,627c6fd40eb3f1ceba2920d4,2022-05-11_22h24.41.154,classification_task,2021.2.3,Win32,144.1337561,627c6715c52fd12f31907bcf,,,,,,,,,,,,,,,,,,,,,,,l,1,1.1422,"[""0.053"",""0.343"",""0.621"",""0.460""]","[1,1,1,0]",0,55,55,55,1,1,1,,,1,FALSE,,,,,,,,,,,,,,,,,,,,,,,,,,,,,,,
,5f0a9094da2883360c73fd9f,627c6fd40eb3f1ceba2920d4,2022-05-11_22h24.41.154,classification_task,2021.2.3,Win32,144.1337561,627c6715c52fd12f31907bcf,,,,,,,,,,,,,,,,,,,,,,,a,1,1.0912,"[""0.274"",""0.457"",""0.940"",""0.975""]","[1,0,1,1]",0,56,56,56,1,0,1,,,1,FALSE,,,,,,,,,,,,,,,,,,,,,,,,,,,,,,,
,5f0a9094da2883360c73fd9f,627c6fd40eb3f1ceba2920d4,2022-05-11_22h24.41.154,classification_task,2021.2.3,Win32,144.1337561,627c6715c52fd12f31907bcf,,,,,,,,,,,,,,,,,,,,,,,a,1,3.3685,"[""0.229"",""0.389"",""0.819"",""0.906""]","[1,1,0,1]",0,57,57,57,1,0,0,,,1,FALSE,,,,,,,,,,,,,,,,,,,,,,,,,,,,,,,
,5f0a9094da2883360c73fd9f,627c6fd40eb3f1ceba2920d4,2022-05-11_22h24.41.154,classification_task,2021.2.3,Win32,144.1337561,627c6715c52fd12f31907bcf,,,,,,,,,,,,,,,,,,,,,,,l,1,1.3084,"[""0.098"",""0.457"",""0.582"",""0.762""]","[1,0,1,1]",0,58,58,58,1,1,0,,,1,FALSE,,,,,,,,,,,,,,,,,,,,,,,,,,,,,,,
,5f0a9094da2883360c73fd9f,627c6fd40eb3f1ceba2920d4,2022-05-11_22h24.41.154,classification_task,2021.2.3,Win32,144.1337561,627c6715c52fd12f31907bcf,,,,,,,,,,,,,,,,,,,,,,,l,1,1.7316,"[""0.098"",""0.150"",""0.582"",""0.658""]","[1,1,1,0]",0,59,59,59,1,1,0,,,1,FALSE,,,,,,,,,,,,,,,,,,,,,,,,,,,,,,,
,5f0a9094da2883360c73fd9f,627c6fd40eb3f1ceba2920d4,2022-05-11_22h24.41.154,classification_task,2021.2.3,Win32,144.1337561,627c6715c52fd12f31907bcf,,,,,,,,,,,,,,,,,,,,,,,a,1,1.5155,"[""0.460"",""0.389"",""0.870"",""0.906""]","[0,1,1,1]",0,60,60,60,1,0,0,,,1,FALSE,,,,,,,,,,,,,,,,,,,,,,,,,,,,,,,
,5f0a9094da2883360c73fd9f,627c6fd40eb3f1ceba2920d4,2022-05-11_22h24.41.154,classification_task,2021.2.3,Win32,144.1337561,627c6715c52fd12f31907bcf,,,,,,,,,,,,,,,,,,,,,,,a,1,1.7895,"[""0.274"",""0.505"",""0.457"",""0.975""]","[1,1,0,1]",0,61,61,61,1,0,1,,,1,FALSE,,,,,,,,,,,,,,,,,,,,,,,,,,,,,,,
,5f0a9094da2883360c73fd9f,627c6fd40eb3f1ceba2920d4,2022-05-11_22h24.41.154,classification_task,2021.2.3,Win32,144.1337561,627c6715c52fd12f31907bcf,,,,,,,,,,,,,,,,,,,,,,,l,1,4.1528,"[""0.460"",""0.150"",""0.582"",""0.762""]","[0,1,1,1]",0,62,62,62,1,1,0,,,1,FALSE,,,,,,,,,,,,,,,,,,,,,,,,,,,,,,,
,5f0a9094da2883360c73fd9f,627c6fd40eb3f1ceba2920d4,2022-05-11_22h24.41.154,classification_task,2021.2.3,Win32,144.1337561,627c6715c52fd12f31907bcf,,,,,,,,,,,,,,,,,,,,,,,a,1,2.0125,"[""0.274"",""0.505"",""0.940"",""0.834""]","[1,1,1,0]",0,63,63,63,1,0,1,,,1,FALSE,,,,,,,,,,,,,,,,,,,,,,,,,,,,,,,
,5f0a9094da2883360c73fd9f,627c6fd40eb3f1ceba2920d4,2022-05-11_22h24.41.154,classification_task,2021.2.3,Win32,144.1337561,627c6715c52fd12f31907bcf,,,,,,,,,,,,,,,,,,,,,,,,,,,,,,,,,,,,,,,0, ,,0,7.994561649,203.0446,0,1,1,1,1,2,2,,,,,,,,,,,,,,,,,,
,5f0a9094da2883360c73fd9f,627c6fd40eb3f1ceba2920d4,2022-05-11_22h24.41.154,classification_task,2021.2.3,Win32,144.1337561,627c6715c52fd12f31907bcf,,,,,,,,,,,,,,,,,,,,,,,,,,,,,,,,,,,,,,,1,  ,,0,2.115666881,208.5973,0,1,1,1,1,2,2,,,,,,,,,,,,,,,,,,
,5f0a9094da2883360c73fd9f,627c6fd40eb3f1ceba2920d4,2022-05-11_22h24.41.154,classification_task,2021.2.3,Win32,144.1337561,627c6715c52fd12f31907bcf,,,,,,,,,,,,,,,,,,,,,,,,,,,,,,,,,,,,,,,2,  ,,0,0.915394027,212.8034,0,1,1,1,1,2,2,,,,,,,,,,,,,,,,,,
,5f0a9094da2883360c73fd9f,627c6fd40eb3f1ceba2920d4,2022-05-11_22h24.41.154,classification_task,2021.2.3,Win32,144.1337561,627c6715c52fd12f31907bcf,,,,,,,,,,,,,,,,,,,,,,,,,,,,,,,,,,,,,,,,,,,,,0,1,1,1,1,,2,,,,,,,,,,,,,,,,,,
,5f0a9094da2883360c73fd9f,627c6fd40eb3f1ceba2920d4,2022-05-11_22h24.41.154,classification_task,2021.2.3,Win32,144.1337561,627c6715c52fd12f31907bcf,,,,,,,,,,,,,,,,,,,,,space,14.6634,a,0,2.9132,"[""0.804"",""0.343"",""0.621"",""0.703""]","[0,1,1,1]",0,0,0,0,1,1,1,,,1,FALSE,,,,,,,,,,,,,,,,,,,,,,,,,,,,,,,
,5f0a9094da2883360c73fd9f,627c6fd40eb3f1ceba2920d4,2022-05-11_22h24.41.154,classification_task,2021.2.3,Win32,144.1337561,627c6715c52fd12f31907bcf,,,,,,,,,,,,,,,,,,,,,,,a,0,3.0843,"[""0.098"",""0.815"",""0.582"",""0.762""]","[1,0,1,1]",0,1,1,1,1,1,0,,,1,FALSE,,,,,,,,,,,,,,,,,,,,,,,,,,,,,,,
,5f0a9094da2883360c73fd9f,627c6fd40eb3f1ceba2920d4,2022-05-11_22h24.41.154,classification_task,2021.2.3,Win32,144.1337561,627c6715c52fd12f31907bcf,,,,,,,,,,,,,,,,,,,,,,,l,1,1.9392,"[""0.053"",""0.343"",""0.621"",""0.819""]","[1,1,1,0]",0,2,2,2,1,1,1,,,1,FALSE,,,,,,,,,,,,,,,,,,,,,,,,,,,,,,,
,5f0a9094da2883360c73fd9f,627c6fd40eb3f1ceba2920d4,2022-05-11_22h24.41.154,classification_task,2021.2.3,Win32,144.1337561,627c6715c52fd12f31907bcf,,,,,,,,,,,,,,,,,,,,,,,l,1,1.9091,"[""0.098"",""0.150"",""0.582"",""0.460""]","[1,1,1,0]",0,3,3,3,1,1,0,,,1,FALSE,,,,,,,,,,,,,,,,,,,,,,,,,,,,,,,
,5f0a9094da2883360c73fd9f,627c6fd40eb3f1ceba2920d4,2022-05-11_22h24.41.154,classification_task,2021.2.3,Win32,144.1337561,627c6715c52fd12f31907bcf,,,,,,,,,,,,,,,,,,,,,,,a,1,1.0341,"[""0.274"",""0.815"",""0.940"",""0.975""]","[1,0,1,1]",0,4,4,4,1,0,1,,,1,FALSE,,,,,,,,,,,,,,,,,,,,,,,,,,,,,,,
,5f0a9094da2883360c73fd9f,627c6fd40eb3f1ceba2920d4,2022-05-11_22h24.41.154,classification_task,2021.2.3,Win32,144.1337561,627c6715c52fd12f31907bcf,,,,,,,,,,,,,,,,,,,,,,,a,1,3.8933,"[""0.274"",""0.505"",""0.460"",""0.975""]","[1,1,0,1]",0,5,5,5,1,0,1,,,1,FALSE,,,,,,,,,,,,,,,,,,,,,,,,,,,,,,,
,5f0a9094da2883360c73fd9f,627c6fd40eb3f1ceba2920d4,2022-05-11_22h24.41.154,classification_task,2021.2.3,Win32,144.1337561,627c6715c52fd12f31907bcf,,,,,,,,,,,,,,,,,,,,,,,l,0,1.2384,"[""0.229"",""0.389"",""0.870"",""0.195""]","[1,1,1,0]",0,6,6,6,1,0,0,,,1,FALSE,,,,,,,,,,,,,,,,,,,,,,,,,,,,,,,
,5f0a9094da2883360c73fd9f,627c6fd40eb3f1ceba2920d4,2022-05-11_22h24.41.154,classification_task,2021.2.3,Win32,144.1337561,627c6715c52fd12f31907bcf,,,,,,,,,,,,,,,,,,,,,,,l,1,1.2514,"[""0.192"",""0.150"",""0.582"",""0.762""]","[0,1,1,1]",0,7,7,7,1,1,0,,,1,FALSE,,,,,,,,,,,,,,,,,,,,,,,,,,,,,,,
,5f0a9094da2883360c73fd9f,627c6fd40eb3f1ceba2920d4,2022-05-11_22h24.41.154,classification_task,2021.2.3,Win32,144.1337561,627c6715c52fd12f31907bcf,,,,,,,,,,,,,,,,,,,,,,,a,1,0.8508,"[""0.195"",""0.389"",""0.870"",""0.906""]","[0,1,1,1]",0,8,8,8,1,0,0,,,1,FALSE,,,,,,,,,,,,,,,,,,,,,,,,,,,,,,,
,5f0a9094da2883360c73fd9f,627c6fd40eb3f1ceba2920d4,2022-05-11_22h24.41.154,classification_task,2021.2.3,Win32,144.1337561,627c6715c52fd12f31907bcf,,,,,,,,,,,,,,,,,,,,,,,a,1,1.9219,"[""0.274"",""0.505"",""0.940"",""0.836""]","[1,1,1,0]",0,9,9,9,1,0,1,,,1,FALSE,,,,,,,,,,,,,,,,,,,,,,,,,,,,,,,
,5f0a9094da2883360c73fd9f,627c6fd40eb3f1ceba2920d4,2022-05-11_22h24.41.154,classification_task,2021.2.3,Win32,144.1337561,627c6715c52fd12f31907bcf,,,,,,,,,,,,,,,,,,,,,,,a,1,1.5238,"[""0.229"",""0.462"",""0.870"",""0.906""]","[1,0,1,1]",0,10,10,10,1,0,0,,,1,FALSE,,,,,,,,,,,,,,,,,,,,,,,,,,,,,,,
,5f0a9094da2883360c73fd9f,627c6fd40eb3f1ceba2920d4,2022-05-11_22h24.41.154,classification_task,2021.2.3,Win32,144.1337561,627c6715c52fd12f31907bcf,,,,,,,,,,,,,,,,,,,,,,,l,1,1.3989,"[""0.053"",""0.343"",""0.804"",""0.703""]","[1,1,0,1]",0,11,11,11,1,1,1,,,1,FALSE,,,,,,,,,,,,,,,,,,,,,,,,,,,,,,,
,5f0a9094da2883360c73fd9f,627c6fd40eb3f1ceba2920d4,2022-05-11_22h24.41.154,classification_task,2021.2.3,Win32,144.1337561,627c6715c52fd12f31907bcf,,,,,,,,,,,,,,,,,,,,,,,a,1,0.7822,"[""0.195"",""0.505"",""0.940"",""0.975""]","[0,1,1,1]",0,12,12,12,1,0,1,,,1,FALSE,,,,,,,,,,,,,,,,,,,,,,,,,,,,,,,
,5f0a9094da2883360c73fd9f,627c6fd40eb3f1ceba2920d4,2022-05-11_22h24.41.154,classification_task,2021.2.3,Win32,144.1337561,627c6715c52fd12f31907bcf,,,,,,,,,,,,,,,,,,,,,,,l,1,2.0922,"[""0.098"",""0.150"",""0.658"",""0.762""]","[1,1,0,1]",0,13,13,13,1,1,0,,,1,FALSE,,,,,,,,,,,,,,,,,,,,,,,,,,,,,,,
,5f0a9094da2883360c73fd9f,627c6fd40eb3f1ceba2920d4,2022-05-11_22h24.41.154,classification_task,2021.2.3,Win32,144.1337561,627c6715c52fd12f31907bcf,,,,,,,,,,,,,,,,,,,,,,,a,1,4.5013,"[""0.229"",""0.389"",""0.542"",""0.906""]","[1,1,0,1]",0,14,14,14,1,0,0,,,1,FALSE,,,,,,,,,,,,,,,,,,,,,,,,,,,,,,,
,5f0a9094da2883360c73fd9f,627c6fd40eb3f1ceba2920d4,2022-05-11_22h24.41.154,classification_task,2021.2.3,Win32,144.1337561,627c6715c52fd12f31907bcf,,,,,,,,,,,,,,,,,,,,,,,a,0,2.232,"[""0.053"",""0.658"",""0.621"",""0.703""]","[1,0,1,1]",0,15,15,15,1,1,1,,,1,FALSE,,,,,,,,,,,,,,,,,,,,,,,,,,,,,,,
,5f0a9094da2883360c73fd9f,627c6fd40eb3f1ceba2920d4,2022-05-11_22h24.41.154,classification_task,2021.2.3,Win32,144.1337561,627c6715c52fd12f31907bcf,,,,,,,,,,,,,,,,,,,,,,,a,1,3.6848,"[""0.274"",""0.505"",""0.940"",""0.836""]","[1,1,1,0]",0,16,16,16,1,0,1,,,1,FALSE,,,,,,,,,,,,,,,,,,,,,,,,,,,,,,,
,5f0a9094da2883360c73fd9f,627c6fd40eb3f1ceba2920d4,2022-05-11_22h24.41.154,classification_task,2021.2.3,Win32,144.1337561,627c6715c52fd12f31907bcf,,,,,,,,,,,,,,,,,,,,,,,l,1,1.6069,"[""0.098"",""0.436"",""0.582"",""0.762""]","[1,0,1,1]",0,17,17,17,1,1,0,,,1,FALSE,,,,,,,,,,,,,,,,,,,,,,,,,,,,,,,
,5f0a9094da2883360c73fd9f,627c6fd40eb3f1ceba2920d4,2022-05-11_22h24.41.154,classification_task,2021.2.3,Win32,144.1337561,627c6715c52fd12f31907bcf,,,,,,,,,,,,,,,,,,,,,,,a,1,5.3394,"[""0.274"",""0.505"",""0.462"",""0.975""]","[1,1,0,1]",0,18,18,18,1,0,1,,,1,FALSE,,,,,,,,,,,,,,,,,,,,,,,,,,,,,,,
,5f0a9094da2883360c73fd9f,627c6fd40eb3f1ceba2920d4,2022-05-11_22h24.41.154,classification_task,2021.2.3,Win32,144.1337561,627c6715c52fd12f31907bcf,,,,,,,,,,,,,,,,,,,,,,,a,1,0.7554,"[""0.274"",""0.815"",""0.940"",""0.975""]","[1,0,1,1]",0,19,19,19,1,0,1,,,1,FALSE,,,,,,,,,,,,,,,,,,,,,,,,,,,,,,,
,5f0a9094da2883360c73fd9f,627c6fd40eb3f1ceba2920d4,2022-05-11_22h24.41.154,classification_task,2021.2.3,Win32,144.1337561,627c6715c52fd12f31907bcf,,,,,,,,,,,,,,,,,,,,,,,l,1,1.6995,"[""0.053"",""0.658"",""0.621"",""0.703""]","[1,0,1,1]",0,20,20,20,1,1,1,,,1,FALSE,,,,,,,,,,,,,,,,,,,,,,,,,,,,,,,
,5f0a9094da2883360c73fd9f,627c6fd40eb3f1ceba2920d4,2022-05-11_22h24.41.154,classification_task,2021.2.3,Win32,144.1337561,627c6715c52fd12f31907bcf,,,,,,,,,,,,,,,,,,,,,,,a,1,0.9433,"[""0.229"",""0.819"",""0.870"",""0.906""]","[1,0,1,1]",0,21,21,21,1,0,0,,,1,FALSE,,,,,,,,,,,,,,,,,,,,,,,,,,,,,,,
,5f0a9094da2883360c73fd9f,627c6fd40eb3f1ceba2920d4,2022-05-11_22h24.41.154,classification_task,2021.2.3,Win32,144.1337561,627c6715c52fd12f31907bcf,,,,,,,,,,,,,,,,,,,,,,,a,1,1.8362,"[""0.436"",""0.505"",""0.940"",""0.975""]","[0,1,1,1]",0,22,22,22,1,0,1,,,1,FALSE,,,,,,,,,,,,,,,,,,,,,,,,,,,,,,,
,5f0a9094da2883360c73fd9f,627c6fd40eb3f1ceba2920d4,2022-05-11_22h24.41.154,classification_task,2021.2.3,Win32,144.1337561,627c6715c52fd12f31907bcf,,,,,,,,,,,,,,,,,,,,,,,a,0,2.5783,"[""0.834"",""0.343"",""0.621"",""0.703""]","[0,1,1,1]",0,23,23,23,1,1,1,,,1,FALSE,,,,,,,,,,,,,,,,,,,,,,,,,,,,,,,
,5f0a9094da2883360c73fd9f,627c6fd40eb3f1ceba2920d4,2022-05-11_22h24.41.154,classification_task,2021.2.3,Win32,144.1337561,627c6715c52fd12f31907bcf,,,,,,,,,,,,,,,,,,,,,,,l,1,1.2532,"[""0.053"",""0.343"",""0.836"",""0.703""]","[1,1,0,1]",0,24,24,24,1,1,1,,,1,FALSE,,,,,,,,,,,,,,,,,,,,,,,,,,,,,,,
,5f0a9094da2883360c73fd9f,627c6fd40eb3f1ceba2920d4,2022-05-11_22h24.41.154,classification_task,2021.2.3,Win32,144.1337561,627c6715c52fd12f31907bcf,,,,,,,,,,,,,,,,,,,,,,,l,1,0.8332,"[""0.098"",""0.150"",""0.582"",""0.836""]","[1,1,1,0]",0,25,25,25,1,1,0,,,1,FALSE,,,,,,,,,,,,,,,,,,,,,,,,,,,,,,,
,5f0a9094da2883360c73fd9f,627c6fd40eb3f1ceba2920d4,2022-05-11_22h24.41.154,classification_task,2021.2.3,Win32,144.1337561,627c6715c52fd12f31907bcf,,,,,,,,,,,,,,,,,,,,,,,l,1,1.6035,"[""0.053"",""0.343"",""0.621"",""0.195""]","[1,1,1,0]",0,26,26,26,1,1,1,,,1,FALSE,,,,,,,,,,,,,,,,,,,,,,,,,,,,,,,
,5f0a9094da2883360c73fd9f,627c6fd40eb3f1ceba2920d4,2022-05-11_22h24.41.154,classification_task,2021.2.3,Win32,144.1337561,627c6715c52fd12f31907bcf,,,,,,,,,,,,,,,,,,,,,,,a,1,1.0723,"[""0.461"",""0.389"",""0.870"",""0.906""]","[0,1,1,1]",0,27,27,27,1,0,0,,,1,FALSE,,,,,,,,,,,,,,,,,,,,,,,,,,,,,,,
,5f0a9094da2883360c73fd9f,627c6fd40eb3f1ceba2920d4,2022-05-11_22h24.41.154,classification_task,2021.2.3,Win32,144.1337561,627c6715c52fd12f31907bcf,,,,,,,,,,,,,,,,,,,,,,,l,1,1.33,"[""0.460"",""0.150"",""0.582"",""0.762""]","[0,1,1,1]",0,28,28,28,1,1,0,,,1,FALSE,,,,,,,,,,,,,,,,,,,,,,,,,,,,,,,
,5f0a9094da2883360c73fd9f,627c6fd40eb3f1ceba2920d4,2022-05-11_22h24.41.154,classification_task,2021.2.3,Win32,144.1337561,627c6715c52fd12f31907bcf,,,,,,,,,,,,,,,,,,,,,,,l,1,0.962,"[""0.098"",""0.150"",""0.462"",""0.762""]","[1,1,0,1]",0,29,29,29,1,1,0,,,1,FALSE,,,,,,,,,,,,,,,,,,,,,,,,,,,,,,,
,5f0a9094da2883360c73fd9f,627c6fd40eb3f1ceba2920d4,2022-05-11_22h24.41.154,classification_task,2021.2.3,Win32,144.1337561,627c6715c52fd12f31907bcf,,,,,,,,,,,,,,,,,,,,,,,l,0,2.1511,"[""0.229"",""0.389"",""0.870"",""0.195""]","[1,1,1,0]",0,30,30,30,1,0,0,,,1,FALSE,,,,,,,,,,,,,,,,,,,,,,,,,,,,,,,
,5f0a9094da2883360c73fd9f,627c6fd40eb3f1ceba2920d4,2022-05-11_22h24.41.154,classification_task,2021.2.3,Win32,144.1337561,627c6715c52fd12f31907bcf,,,,,,,,,,,,,,,,,,,,,,,a,1,2.8363,"[""0.229"",""0.389"",""0.432"",""0.906""]","[1,1,0,1]",0,31,31,31,1,0,0,,,1,FALSE,,,,,,,,,,,,,,,,,,,,,,,,,,,,,,,
,5f0a9094da2883360c73fd9f,627c6fd40eb3f1ceba2920d4,2022-05-11_22h24.41.154,classification_task,2021.2.3,Win32,144.1337561,627c6715c52fd12f31907bcf,,,,,,,,,,,,,,,,,,,,,,,a,1,1.6623,"[""0.834"",""0.389"",""0.870"",""0.906""]","[0,1,1,1]",0,32,32,32,1,0,0,,,1,FALSE,,,,,,,,,,,,,,,,,,,,,,,,,,,,,,,
,5f0a9094da2883360c73fd9f,627c6fd40eb3f1ceba2920d4,2022-05-11_22h24.41.154,classification_task,2021.2.3,Win32,144.1337561,627c6715c52fd12f31907bcf,,,,,,,,,,,,,,,,,,,,,,,a,1,1.0881,"[""0.274"",""0.836"",""0.940"",""0.975""]","[1,0,1,1]",0,33,33,33,1,0,1,,,1,FALSE,,,,,,,,,,,,,,,,,,,,,,,,,,,,,,,
,5f0a9094da2883360c73fd9f,627c6fd40eb3f1ceba2920d4,2022-05-11_22h24.41.154,classification_task,2021.2.3,Win32,144.1337561,627c6715c52fd12f31907bcf,,,,,,,,,,,,,,,,,,,,,,,a,0,3.9202,"[""0.834"",""0.150"",""0.582"",""0.762""]","[0,1,1,1]",0,34,34,34,1,1,0,,,1,FALSE,,,,,,,,,,,,,,,,,,,,,,,,,,,,,,,
,5f0a9094da2883360c73fd9f,627c6fd40eb3f1ceba2920d4,2022-05-11_22h24.41.154,classification_task,2021.2.3,Win32,144.1337561,627c6715c52fd12f31907bcf,,,,,,,,,,,,,,,,,,,,,,,l,0,1.359,"[""0.274"",""0.505"",""0.462"",""0.975""]","[1,1,0,1]",0,35,35,35,1,0,1,,,1,FALSE,,,,,,,,,,,,,,,,,,,,,,,,,,,,,,,
,5f0a9094da2883360c73fd9f,627c6fd40eb3f1ceba2920d4,2022-05-11_22h24.41.154,classification_task,2021.2.3,Win32,144.1337561,627c6715c52fd12f31907bcf,,,,,,,,,,,,,,,,,,,,,,,l,1,1.1902,"[""0.053"",""0.343"",""0.804"",""0.703""]","[1,1,0,1]",0,36,36,36,1,1,1,,,1,FALSE,,,,,,,,,,,,,,,,,,,,,,,,,,,,,,,
,5f0a9094da2883360c73fd9f,627c6fd40eb3f1ceba2920d4,2022-05-11_22h24.41.154,classification_task,2021.2.3,Win32,144.1337561,627c6715c52fd12f31907bcf,,,,,,,,,,,,,,,,,,,,,,,a,1,0.7782,"[""0.461"",""0.505"",""0.940"",""0.975""]","[0,1,1,1]",0,37,37,37,1,0,1,,,1,FALSE,,,,,,,,,,,,,,,,,,,,,,,,,,,,,,,
,5f0a9094da2883360c73fd9f,627c6fd40eb3f1ceba2920d4,2022-05-11_22h24.41.154,classification_task,2021.2.3,Win32,144.1337561,627c6715c52fd12f31907bcf,,,,,,,,,,,,,,,,,,,,,,,l,0,0.9685,"[""0.229"",""0.389"",""0.462"",""0.906""]","[1,1,0,1]",0,38,38,38,1,0,0,,,1,FALSE,,,,,,,,,,,,,,,,,,,,,,,,,,,,,,,
,5f0a9094da2883360c73fd9f,627c6fd40eb3f1ceba2920d4,2022-05-11_22h24.41.154,classification_task,2021.2.3,Win32,144.1337561,627c6715c52fd12f31907bcf,,,,,,,,,,,,,,,,,,,,,,,l,1,4.4235,"[""0.098"",""0.150"",""0.804"",""0.762""]","[1,1,0,1]",0,39,39,39,1,1,0,,,1,FALSE,,,,,,,,,,,,,,,,,,,,,,,,,,,,,,,
,5f0a9094da2883360c73fd9f,627c6fd40eb3f1ceba2920d4,2022-05-11_22h24.41.154,classification_task,2021.2.3,Win32,144.1337561,627c6715c52fd12f31907bcf,,,,,,,,,,,,,,,,,,,,,,,l,1,4.0099,"[""0.053"",""0.460"",""0.621"",""0.703""]","[1,0,1,1]",0,40,40,40,1,1,1,,,1,FALSE,,,,,,,,,,,,,,,,,,,,,,,,,,,,,,,
,5f0a9094da2883360c73fd9f,627c6fd40eb3f1ceba2920d4,2022-05-11_22h24.41.154,classification_task,2021.2.3,Win32,144.1337561,627c6715c52fd12f31907bcf,,,,,,,,,,,,,,,,,,,,,,,l,1,2.9837,"[""0.053"",""0.343"",""0.621"",""0.836""]","[1,1,1,0]",0,41,41,41,1,1,1,,,1,FALSE,,,,,,,,,,,,,,,,,,,,,,,,,,,,,,,
,5f0a9094da2883360c73fd9f,627c6fd40eb3f1ceba2920d4,2022-05-11_22h24.41.154,classification_task,2021.2.3,Win32,144.1337561,627c6715c52fd12f31907bcf,,,,,,,,,,,,,,,,,,,,,,,l,1,1.9074,"[""0.098"",""0.150"",""0.582"",""0.834""]","[1,1,1,0]",0,42,42,42,1,1,0,,,1,FALSE,,,,,,,,,,,,,,,,,,,,,,,,,,,,,,,
,5f0a9094da2883360c73fd9f,627c6fd40eb3f1ceba2920d4,2022-05-11_22h24.41.154,classification_task,2021.2.3,Win32,144.1337561,627c6715c52fd12f31907bcf,,,,,,,,,,,,,,,,,,,,,,,a,1,2.3992,"[""0.274"",""0.505"",""0.940"",""0.462""]","[1,1,1,0]",0,43,43,43,1,0,1,,,1,FALSE,,,,,,,,,,,,,,,,,,,,,,,,,,,,,,,
,5f0a9094da2883360c73fd9f,627c6fd40eb3f1ceba2920d4,2022-05-11_22h24.41.154,classification_task,2021.2.3,Win32,144.1337561,627c6715c52fd12f31907bcf,,,,,,,,,,,,,,,,,,,,,,,a,0,2.6399,"[""0.457"",""0.343"",""0.621"",""0.703""]","[0,1,1,1]",0,44,44,44,1,1,1,,,1,FALSE,,,,,,,,,,,,,,,,,,,,,,,,,,,,,,,
,5f0a9094da2883360c73fd9f,627c6fd40eb3f1ceba2920d4,2022-05-11_22h24.41.154,classification_task,2021.2.3,Win32,144.1337561,627c6715c52fd12f31907bcf,,,,,,,,,,,,,,,,,,,,,,,l,0,1.4368,"[""0.229"",""0.389"",""0.870"",""0.192""]","[1,1,1,0]",0,45,45,45,1,0,0,,,1,FALSE,,,,,,,,,,,,,,,,,,,,,,,,,,,,,,,
,5f0a9094da2883360c73fd9f,627c6fd40eb3f1ceba2920d4,2022-05-11_22h24.41.154,classification_task,2021.2.3,Win32,144.1337561,627c6715c52fd12f31907bcf,,,,,,,,,,,,,,,,,,,,,,,l,1,1.5603,"[""0.098"",""0.462"",""0.582"",""0.762""]","[1,0,1,1]",0,46,46,46,1,1,0,,,1,FALSE,,,,,,,,,,,,,,,,,,,,,,,,,,,,,,,
,5f0a9094da2883360c73fd9f,627c6fd40eb3f1ceba2920d4,2022-05-11_22h24.41.154,classification_task,2021.2.3,Win32,144.1337561,627c6715c52fd12f31907bcf,,,,,,,,,,,,,,,,,,,,,,,a,1,0.5766,"[""0.229"",""0.462"",""0.870"",""0.906""]","[1,0,1,1]",0,47,47,47,1,0,0,,,1,FALSE,,,,,,,,,,,,,,,,,,,,,,,,,,,,,,,
,5f0a9094da2883360c73fd9f,627c6fd40eb3f1ceba2920d4,2022-05-11_22h24.41.154,classification_task,2021.2.3,Win32,144.1337561,627c6715c52fd12f31907bcf,,,,,,,,,,,,,,,,,,,,,,,a,1,0.6988,"[""0.274"",""0.192"",""0.940"",""0.975""]","[1,0,1,1]",0,48,48,48,1,0,1,,,1,FALSE,,,,,,,,,,,,,,,,,,,,,,,,,,,,,,,
,5f0a9094da2883360c73fd9f,627c6fd40eb3f1ceba2920d4,2022-05-11_22h24.41.154,classification_task,2021.2.3,Win32,144.1337561,627c6715c52fd12f31907bcf,,,,,,,,,,,,,,,,,,,,,,,l,1,1.0293,"[""0.053"",""0.343"",""0.621"",""0.542""]","[1,1,1,0]",0,49,49,49,1,1,1,,,1,FALSE,,,,,,,,,,,,,,,,,,,,,,,,,,,,,,,
,5f0a9094da2883360c73fd9f,627c6fd40eb3f1ceba2920d4,2022-05-11_22h24.41.154,classification_task,2021.2.3,Win32,144.1337561,627c6715c52fd12f31907bcf,,,,,,,,,,,,,,,,,,,,,,,a,1,0.5455,"[""0.229"",""0.436"",""0.870"",""0.906""]","[1,0,1,1]",0,50,50,50,1,0,0,,,1,FALSE,,,,,,,,,,,,,,,,,,,,,,,,,,,,,,,
,5f0a9094da2883360c73fd9f,627c6fd40eb3f1ceba2920d4,2022-05-11_22h24.41.154,classification_task,2021.2.3,Win32,144.1337561,627c6715c52fd12f31907bcf,,,,,,,,,,,,,,,,,,,,,,,l,0,2.9692,"[""0.229"",""0.389"",""0.870"",""0.432""]","[1,1,1,0]",0,51,51,51,1,0,0,,,1,FALSE,,,,,,,,,,,,,,,,,,,,,,,,,,,,,,,
,5f0a9094da2883360c73fd9f,627c6fd40eb3f1ceba2920d4,2022-05-11_22h24.41.154,classification_task,2021.2.3,Win32,144.1337561,627c6715c52fd12f31907bcf,,,,,,,,,,,,,,,,,,,,,,,l,1,1.2387,"[""0.432"",""0.150"",""0.582"",""0.762""]","[0,1,1,1]",0,52,52,52,1,1,0,,,1,FALSE,,,,,,,,,,,,,,,,,,,,,,,,,,,,,,,
,5f0a9094da2883360c73fd9f,627c6fd40eb3f1ceba2920d4,2022-05-11_22h24.41.154,classification_task,2021.2.3,Win32,144.1337561,627c6715c52fd12f31907bcf,,,,,,,,,,,,,,,,,,,,,,,a,0,1.2816,"[""0.542"",""0.343"",""0.621"",""0.703""]","[0,1,1,1]",0,53,53,53,1,1,1,,,1,FALSE,,,,,,,,,,,,,,,,,,,,,,,,,,,,,,,
,5f0a9094da2883360c73fd9f,627c6fd40eb3f1ceba2920d4,2022-05-11_22h24.41.154,classification_task,2021.2.3,Win32,144.1337561,627c6715c52fd12f31907bcf,,,,,,,,,,,,,,,,,,,,,,,a,1,0.6282,"[""0.432"",""0.505"",""0.940"",""0.975""]","[0,1,1,1]",0,54,54,54,1,0,1,,,1,FALSE,,,,,,,,,,,,,,,,,,,,,,,,,,,,,,,
,5f0a9094da2883360c73fd9f,627c6fd40eb3f1ceba2920d4,2022-05-11_22h24.41.154,classification_task,2021.2.3,Win32,144.1337561,627c6715c52fd12f31907bcf,,,,,,,,,,,,,,,,,,,,,,,l,1,0.7772,"[""0.053"",""0.195"",""0.621"",""0.703""]","[1,0,1,1]",0,55,55,55,1,1,1,,,1,FALSE,,,,,,,,,,,,,,,,,,,,,,,,,,,,,,,
,5f0a9094da2883360c73fd9f,627c6fd40eb3f1ceba2920d4,2022-05-11_22h24.41.154,classification_task,2021.2.3,Win32,144.1337561,627c6715c52fd12f31907bcf,,,,,,,,,,,,,,,,,,,,,,,l,1,0.6922,"[""0.098"",""0.195"",""0.582"",""0.762""]","[1,0,1,1]",0,56,56,56,1,1,0,,,1,FALSE,,,,,,,,,,,,,,,,,,,,,,,,,,,,,,,
,5f0a9094da2883360c73fd9f,627c6fd40eb3f1ceba2920d4,2022-05-11_22h24.41.154,classification_task,2021.2.3,Win32,144.1337561,627c6715c52fd12f31907bcf,,,,,,,,,,,,,,,,,,,,,,,l,1,1.1182,"[""0.053"",""0.343"",""0.658"",""0.703""]","[1,1,0,1]",0,57,57,57,1,1,1,,,1,FALSE,,,,,,,,,,,,,,,,,,,,,,,,,,,,,,,
,5f0a9094da2883360c73fd9f,627c6fd40eb3f1ceba2920d4,2022-05-11_22h24.41.154,classification_task,2021.2.3,Win32,144.1337561,627c6715c52fd12f31907bcf,,,,,,,,,,,,,,,,,,,,,,,a,1,0.9597,"[""0.274"",""0.505"",""0.940"",""0.542""]","[1,1,1,0]",0,58,58,58,1,0,1,,,1,FALSE,,,,,,,,,,,,,,,,,,,,,,,,,,,,,,,
,5f0a9094da2883360c73fd9f,627c6fd40eb3f1ceba2920d4,2022-05-11_22h24.41.154,classification_task,2021.2.3,Win32,144.1337561,627c6715c52fd12f31907bcf,,,,,,,,,,,,,,,,,,,,,,,a,1,0.6689,"[""0.658"",""0.389"",""0.870"",""0.906""]","[0,1,1,1]",0,59,59,59,1,0,0,,,1,FALSE,,,,,,,,,,,,,,,,,,,,,,,,,,,,,,,
,5f0a9094da2883360c73fd9f,627c6fd40eb3f1ceba2920d4,2022-05-11_22h24.41.154,classification_task,2021.2.3,Win32,144.1337561,627c6715c52fd12f31907bcf,,,,,,,,,,,,,,,,,,,,,,,a,1,1.5192,"[""0.229"",""0.389"",""0.804"",""0.906""]","[1,1,0,1]",0,60,60,60,1,0,0,,,1,FALSE,,,,,,,,,,,,,,,,,,,,,,,,,,,,,,,
,5f0a9094da2883360c73fd9f,627c6fd40eb3f1ceba2920d4,2022-05-11_22h24.41.154,classification_task,2021.2.3,Win32,144.1337561,627c6715c52fd12f31907bcf,,,,,,,,,,,,,,,,,,,,,,,l,1,1.0751,"[""0.098"",""0.150"",""0.819"",""0.762""]","[1,1,0,1]",0,61,61,61,1,1,0,,,1,FALSE,,,,,,,,,,,,,,,,,,,,,,,,,,,,,,,
,5f0a9094da2883360c73fd9f,627c6fd40eb3f1ceba2920d4,2022-05-11_22h24.41.154,classification_task,2021.2.3,Win32,144.1337561,627c6715c52fd12f31907bcf,,,,,,,,,,,,,,,,,,,,,,,l,1,0.8326,"[""0.098"",""0.150"",""0.582"",""0.658""]","[1,1,1,0]",0,62,62,62,1,1,0,,,1,FALSE,,,,,,,,,,,,,,,,,,,,,,,,,,,,,,,
,5f0a9094da2883360c73fd9f,627c6fd40eb3f1ceba2920d4,2022-05-11_22h24.41.154,classification_task,2021.2.3,Win32,144.1337561,627c6715c52fd12f31907bcf,,,,,,,,,,,,,,,,,,,,,,,a,1,0.9415,"[""0.274"",""0.505"",""0.658"",""0.975""]","[1,1,0,1]",0,63,63,63,1,0,1,,,1,FALSE,,,,,,,,,,,,,,,,,,,,,,,,,,,,,,,
,5f0a9094da2883360c73fd9f,627c6fd40eb3f1ceba2920d4,2022-05-11_22h24.41.154,classification_task,2021.2.3,Win32,144.1337561,627c6715c52fd12f31907bcf,,,,,,,,,,,,,,,,,,,,,,,,,,,,,,,,,,,,,,,0, ,,0,10,201.6363,0,2,2,2,1,2,3,,,,,,,,,,,,,,,,,,
,5f0a9094da2883360c73fd9f,627c6fd40eb3f1ceba2920d4,2022-05-11_22h24.41.154,classification_task,2021.2.3,Win32,144.1337561,627c6715c52fd12f31907bcf,,,,,,,,,,,,,,,,,,,,,,,,,,,,,,,,,,,,,,,1,  ,,0,5.49603212,209.0328,0,2,2,2,1,2,3,,,,,,,,,,,,,,,,,,
,5f0a9094da2883360c73fd9f,627c6fd40eb3f1ceba2920d4,2022-05-11_22h24.41.154,classification_task,2021.2.3,Win32,144.1337561,627c6715c52fd12f31907bcf,,,,,,,,,,,,,,,,,,,,,,,,,,,,,,,,,,,,,,,2,  ,,0,8.533461457,213.6396,0,2,2,2,1,2,3,,,,,,,,,,,,,,,,,,
,5f0a9094da2883360c73fd9f,627c6fd40eb3f1ceba2920d4,2022-05-11_22h24.41.154,classification_task,2021.2.3,Win32,144.1337561,627c6715c52fd12f31907bcf,,,,,,,,,,,,,,,,,,,,,,,,,,,,,,,,,,,,,,,,,,,,,0,2,2,2,1,,3,,,,,,,,,,,,,,,,,,
,5f0a9094da2883360c73fd9f,627c6fd40eb3f1ceba2920d4,2022-05-11_22h24.41.154,classification_task,2021.2.3,Win32,144.1337561,627c6715c52fd12f31907bcf,,,,,,,,,,,,,,,,,,,,,,,,,,,,,,,,,,,,,,,,,,,,,,,,,,,,,I believe the aid is a competent performer,,0.7,0,4,1113.5311,0,0,0,0,1,0,,,,,
,5f0a9094da2883360c73fd9f,627c6fd40eb3f1ceba2920d4,2022-05-11_22h24.41.154,classification_task,2021.2.3,Win32,144.1337561,627c6715c52fd12f31907bcf,,,,,,,,,,,,,,,,,,,,,,,,,,,,,,,,,,,,,,,,,,,,,,,,,,,,,I trust the aid,,0.7,0,5,1114.2004,0,0,0,0,1,0,,,,,
,5f0a9094da2883360c73fd9f,627c6fd40eb3f1ceba2920d4,2022-05-11_22h24.41.154,classification_task,2021.2.3,Win32,144.1337561,627c6715c52fd12f31907bcf,,,,,,,,,,,,,,,,,,,,,,,,,,,,,,,,,,,,,,,,,,,,,,,,,,,,,I have confidence in the advice given by the aid,,0.7,0,5,1117.3068,0,0,0,0,1,0,,,,,
,5f0a9094da2883360c73fd9f,627c6fd40eb3f1ceba2920d4,2022-05-11_22h24.41.154,classification_task,2021.2.3,Win32,144.1337561,627c6715c52fd12f31907bcf,,,,,,,,,,,,,,,,,,,,,,,,,,,,,,,,,,,,,,,,,,,,,,,,,,,,,I can depend on the aid,,0.7,0,5,1119.1855,0,0,0,0,1,0,,,,,
,5f0a9094da2883360c73fd9f,627c6fd40eb3f1ceba2920d4,2022-05-11_22h24.41.154,classification_task,2021.2.3,Win32,144.1337561,627c6715c52fd12f31907bcf,,,,,,,,,,,,,,,,,,,,,,,,,,,,,,,,,,,,,,,,,,,,,,,,,,,,,I can rely on the aid to behave in consistent ways,,0.7,0,4,1169.1208,0,0,0,0,1,0,,,,,
,5f0a9094da2883360c73fd9f,627c6fd40eb3f1ceba2920d4,2022-05-11_22h24.41.154,classification_task,2021.2.3,Win32,144.1337561,627c6715c52fd12f31907bcf,,,,,,,,,,,,,,,,,,,,,,,,,,,,,,,,,,,,,,,,,,,,,,,,,,,,,I can rely on the aid to do its best every time I take its advice,,0.7,0,5,1129.5271,0,0,0,0,1,0,,,,,
,5f0a9094da2883360c73fd9f,627c6fd40eb3f1ceba2920d4,2022-05-11_22h24.41.154,classification_task,2021.2.3,Win32,144.1337561,627c6715c52fd12f31907bcf,,,,,,,,,,,,,,,,,,,,,,,,,,,,,,,,,,,,,,,,,,,,,,,,,,,,,"On trials you completed with assistance from the aid, how frequently did you think the aid was correct?",,0.7,0,85%,,0,0,0,0,1,0,,,,,
,5f0a9094da2883360c73fd9f,627c6fd40eb3f1ceba2920d4,2022-05-11_22h24.41.154,classification_task,2021.2.3,Win32,144.1337561,627c6715c52fd12f31907bcf,,,,,,,,,,,,,,,,,,,,,,,,,,,,,,,,,,,,,,,,,,,,,,,,,,,,,"On trials you completed without the aid, how frequently did you think you were correct?",,0.7,0,70%,,0,0,0,0,1,0,,,,,
,5f0a9094da2883360c73fd9f,627c6fd40eb3f1ceba2920d4,2022-05-11_22h24.41.154,classification_task,2021.2.3,Win32,144.1337561,627c6715c52fd12f31907bcf,,,,,,,,,,,,,,,,,,,,,,,,,,,,,,,,,,,,,,,,,,,,,,,,,,,,,,,,,,,0,0,0,0,1,,,,,,
,5f0a9094da2883360c73fd9f,627c6fd40eb3f1ceba2920d4,2022-05-11_22h24.41.154,classification_task,2021.2.3,Win32,144.1337561,627c6715c52fd12f31907bcf,,,,,,,,,,,,,,,,,,,,,,,,,,,,,,,,,,,,,,,,,,,,,,,,,,,,,,,,,,,,,,,,,space,8.1367,1178.0334,,
,5f0a9094da2883360c73fd9f,627c6fd40eb3f1ceba2920d4,2022-05-11_22h24.41.154,classification_task,2021.2.3,Win32,144.1337561,627c6715c52fd12f31907bcf,,,,,,,,,,,,,,,,,,,,,,,,,,,,,,,,,,,,,,,,,,,,,,,,,,,,,,,,,,,,,,,,,,,,"Mozilla/5.0 (Windows NT 10.0; Win64; x64) AppleWebKit/537.36 (KHTML, like Gecko) Chrome/99.0.4844.84 Safari/537.36 OPR/85.0.4341.72",
,5f0a9094da2883360c73fd9f,627c6fd40eb3f1ceba2920d4,2022-05-11_22h24.41.154,classification_task,2021.2.3,Win32,144.1337561,627c6715c52fd12f31907bcf,,,,,,,,,,,,,,,,,,,,,,,,,,,,,,,,,,,,,,,,,,,,,,,,,,,,,,,,,,,,,,,,,,,,,FADING
