usingWebGL,participant,session,date,expName,psychopyVersion,OS,frameRate,study_id,signatures_friend,signatures_foe,band_ranges_top,band_ranges_bottom,formitemText,formtype,formundefined,formitemWidth,formindex,formresponse,formrt,key_resp_2.keys,key_resp_2.rt,tute_resp.keys,tute_resp.rt,tutorial.thisRepN,tutorial.thisTrialN,tutorial.thisN,tutorial.thisIndex,tutorial.ran,key_resp_4.keys,key_resp_4.rt,key_resp.keys,key_resp.corr,lines_presented,is_signal_presented,trials.thisRepN,trials.thisTrialN,trials.thisN,trials.thisIndex,trials.ran,vessel,active_band,lines,is_signal,supported_pos,catch_trial,key_resp.rt,debrief_formindex,debrief_formitemText,debrief_formtype,debrief_formitemWidth,debrief_formresponse,debrief_formrt,phases.thisRepN,phases.thisTrialN,phases.thisN,phases.thisIndex,phases.ran,phases.order,phase,key_resp_3.keys,trustitemText,trusttype,trustitemWidth,trustindex,trustresponse,trustrt,support_status.thisRepN,support_status.thisTrialN,support_status.thisN,support_status.thisIndex,support_status.ran,support_status.order,key_resp_5.keys,key_resp_5.rt,globalClockTime,userAgent,manualCondition
TRUE,5f0c002c47848351fd023d3d,627c6f5db771074e47e240c4,2022-05-11_22h23.25.692,classification_task,2021.2.3,Win32,59.75500448,627c6715c52fd12f31907bcf,,,,,,,,,,,,,,,,,,,,,,,,,,,,,,,,,,,,,,,,,,,,,,,,,,,,,,,,,,,,,,,,,,,,,
,5f0c002c47848351fd023d3d,627c6f5db771074e47e240c4,2022-05-11_22h23.25.692,classification_task,2021.2.3,Win32,59.75500448,627c6715c52fd12f31907bcf,"[[""0.189"",""0.530"",""0.846"",""0.897""],[""0.319"",""0.464"",""0.939"",""0.973""]]","[[""0.093"",""0.263"",""0.612"",""0.768""],[""0.153"",""0.407"",""0.663"",""0.706""]]","[1,10]","[100,1000]",Video game experience,,,0.7,0,,,,,,,,,,,,,,,,,,,,,,,,,,,,,,,,,,,,,,,,,,,,,,,,,,,,,,,,,,,,
,5f0c002c47848351fd023d3d,627c6f5db771074e47e240c4,2022-05-11_22h23.25.692,classification_task,2021.2.3,Win32,59.75500448,627c6715c52fd12f31907bcf,,,,,Approximately how many hours did you spend playing video games in the last week?,,,0.7,0,9,,,,,,,,,,,,,,,,,,,,,,,,,,,,,,,,,,,,,,,,,,,,,,,,,,,,,,,,,,,
,5f0c002c47848351fd023d3d,627c6f5db771074e47e240c4,2022-05-11_22h23.25.692,classification_task,2021.2.3,Win32,59.75500448,627c6715c52fd12f31907bcf,,,,,"Which game did you play the most this year? (Enter ""None"" if you didn't play any)",,,0.7,0,minecraft,,,,,,,,,,,,,,,,,,,,,,,,,,,,,,,,,,,,,,,,,,,,,,,,,,,,,,,,,,,
,5f0c002c47848351fd023d3d,627c6f5db771074e47e240c4,2022-05-11_22h23.25.692,classification_task,2021.2.3,Win32,59.75500448,627c6715c52fd12f31907bcf,,,,,Visual perception,,,0.7,0,,,,,,,,,,,,,,,,,,,,,,,,,,,,,,,,,,,,,,,,,,,,,,,,,,,,,,,,,,,,
,5f0c002c47848351fd023d3d,627c6f5db771074e47e240c4,2022-05-11_22h23.25.692,classification_task,2021.2.3,Win32,59.75500448,627c6715c52fd12f31907bcf,,,,,Do you have any form of color blindness?,,,0.7,0,No,53.347,,,,,,,,,,,,,,,,,,,,,,,,,,,,,,,,,,,,,,,,,,,,,,,,,,,,,,,,,,
,5f0c002c47848351fd023d3d,627c6f5db771074e47e240c4,2022-05-11_22h23.25.692,classification_task,2021.2.3,Win32,59.75500448,627c6715c52fd12f31907bcf,,,,,Do you use software to change the colour temperature of your screen (e.g. f.lux)?,,,0.7,0,No,66.7952,,,,,,,,,,,,,,,,,,,,,,,,,,,,,,,,,,,,,,,,,,,,,,,,,,,,,,,,,,
,5f0c002c47848351fd023d3d,627c6f5db771074e47e240c4,2022-05-11_22h23.25.692,classification_task,2021.2.3,Win32,59.75500448,627c6715c52fd12f31907bcf,,,,,,,,,,,,space,94.5851,space,11.6292,0,0,0,0,1,,,,,,,,,,,,,,,,,,,,,,,,,,,,,,,,,,,,,,,,,,,,,,,,,
,5f0c002c47848351fd023d3d,627c6f5db771074e47e240c4,2022-05-11_22h23.25.692,classification_task,2021.2.3,Win32,59.75500448,627c6715c52fd12f31907bcf,,,,,,,,,,,,,,space,26.5185,1,0,1,0,1,,,,,,,,,,,,,,,,,,,,,,,,,,,,,,,,,,,,,,,,,,,,,,,,,
,5f0c002c47848351fd023d3d,627c6f5db771074e47e240c4,2022-05-11_22h23.25.692,classification_task,2021.2.3,Win32,59.75500448,627c6715c52fd12f31907bcf,,,,,,,,,,,,,,space,37.0625,2,0,2,0,1,,,,,,,,,,,,,,,,,,,,,,,,,,,,,,,,,,,,,,,,,,,,,,,,,
,5f0c002c47848351fd023d3d,627c6f5db771074e47e240c4,2022-05-11_22h23.25.692,classification_task,2021.2.3,Win32,59.75500448,627c6715c52fd12f31907bcf,,,,,,,,,,,,,,space,26.7272,3,0,3,0,1,,,,,,,,,,,,,,,,,,,,,,,,,,,,,,,,,,,,,,,,,,,,,,,,,
,5f0c002c47848351fd023d3d,627c6f5db771074e47e240c4,2022-05-11_22h23.25.692,classification_task,2021.2.3,Win32,59.75500448,627c6715c52fd12f31907bcf,,,,,,,,,,,,,,space,48.1541,4,0,4,0,1,,,,,,,,,,,,,,,,,,,,,,,,,,,,,,,,,,,,,,,,,,,,,,,,,
,5f0c002c47848351fd023d3d,627c6f5db771074e47e240c4,2022-05-11_22h23.25.692,classification_task,2021.2.3,Win32,59.75500448,627c6715c52fd12f31907bcf,,,,,,,,,,,,,,,,,,,,,space,26.3284,,0,"[""0.189"",""0.530"",""0.028"",""0.897""]","[1,1,0,1]",0,0,0,0,1,0,0,,,0,FALSE,,,,,,,,,,,,,,,,,,,,,,,,,,,,,,,,
,5f0c002c47848351fd023d3d,627c6f5db771074e47e240c4,2022-05-11_22h23.25.692,classification_task,2021.2.3,Win32,59.75500448,627c6715c52fd12f31907bcf,,,,,,,,,,,,,,,,,,,,,,,a,1,"[""0.319"",""0.464"",""0.811"",""0.973""]","[1,1,0,1]",0,1,1,1,1,0,1,,,0,FALSE,3.8035,,,,,,,,,,,,,,,,,,,,,,,,,,,,,,,
,5f0c002c47848351fd023d3d,627c6f5db771074e47e240c4,2022-05-11_22h23.25.692,classification_task,2021.2.3,Win32,59.75500448,627c6715c52fd12f31907bcf,,,,,,,,,,,,,,,,,,,,,,,l,1,"[""0.153"",""0.407"",""0.808"",""0.706""]","[1,1,0,1]",0,2,2,2,1,1,1,,,0,FALSE,3.5587,,,,,,,,,,,,,,,,,,,,,,,,,,,,,,,
,5f0c002c47848351fd023d3d,627c6f5db771074e47e240c4,2022-05-11_22h23.25.692,classification_task,2021.2.3,Win32,59.75500448,627c6715c52fd12f31907bcf,,,,,,,,,,,,,,,,,,,,,,,l,1,"[""0.153"",""0.808"",""0.663"",""0.706""]","[1,0,1,1]",0,3,3,3,1,1,1,,,0,FALSE,3.4971,,,,,,,,,,,,,,,,,,,,,,,,,,,,,,,
,5f0c002c47848351fd023d3d,627c6f5db771074e47e240c4,2022-05-11_22h23.25.692,classification_task,2021.2.3,Win32,59.75500448,627c6715c52fd12f31907bcf,,,,,,,,,,,,,,,,,,,,,,,l,0,"[""0.572"",""0.530"",""0.846"",""0.897""]","[0,1,1,1]",0,4,4,4,1,0,0,,,0,FALSE,3.206,,,,,,,,,,,,,,,,,,,,,,,,,,,,,,,
,5f0c002c47848351fd023d3d,627c6f5db771074e47e240c4,2022-05-11_22h23.25.692,classification_task,2021.2.3,Win32,59.75500448,627c6715c52fd12f31907bcf,,,,,,,,,,,,,,,,,,,,,,,a,1,"[""0.189"",""0.808"",""0.846"",""0.897""]","[1,0,1,1]",0,5,5,5,1,0,0,,,0,FALSE,5.4723,,,,,,,,,,,,,,,,,,,,,,,,,,,,,,,
,5f0c002c47848351fd023d3d,627c6f5db771074e47e240c4,2022-05-11_22h23.25.692,classification_task,2021.2.3,Win32,59.75500448,627c6715c52fd12f31907bcf,,,,,,,,,,,,,,,,,,,,,,,l,1,"[""0.093"",""0.263"",""0.612"",""0.354""]","[1,1,1,0]",0,6,6,6,1,1,0,,,0,FALSE,3.11,,,,,,,,,,,,,,,,,,,,,,,,,,,,,,,
,5f0c002c47848351fd023d3d,627c6f5db771074e47e240c4,2022-05-11_22h23.25.692,classification_task,2021.2.3,Win32,59.75500448,627c6715c52fd12f31907bcf,,,,,,,,,,,,,,,,,,,,,,,a,1,"[""0.319"",""0.464"",""0.939"",""0.569""]","[1,1,1,0]",0,7,7,7,1,0,1,,,0,FALSE,3.2572,,,,,,,,,,,,,,,,,,,,,,,,,,,,,,,
,5f0c002c47848351fd023d3d,627c6f5db771074e47e240c4,2022-05-11_22h23.25.692,classification_task,2021.2.3,Win32,59.75500448,627c6715c52fd12f31907bcf,,,,,,,,,,,,,,,,,,,,,,,a,1,"[""0.372"",""0.464"",""0.939"",""0.973""]","[0,1,1,1]",0,8,8,8,1,0,1,,,0,FALSE,2.4328,,,,,,,,,,,,,,,,,,,,,,,,,,,,,,,
,5f0c002c47848351fd023d3d,627c6f5db771074e47e240c4,2022-05-11_22h23.25.692,classification_task,2021.2.3,Win32,59.75500448,627c6715c52fd12f31907bcf,,,,,,,,,,,,,,,,,,,,,,,l,1,"[""0.053"",""0.407"",""0.663"",""0.706""]","[0,1,1,1]",0,9,9,9,1,1,1,,,0,FALSE,4.1178,,,,,,,,,,,,,,,,,,,,,,,,,,,,,,,
,5f0c002c47848351fd023d3d,627c6f5db771074e47e240c4,2022-05-11_22h23.25.692,classification_task,2021.2.3,Win32,59.75500448,627c6715c52fd12f31907bcf,,,,,,,,,,,,,,,,,,,,,,,a,1,"[""0.189"",""0.530"",""0.846"",""0.028""]","[1,1,1,0]",0,10,10,10,1,0,0,,,0,FALSE,4.3986,,,,,,,,,,,,,,,,,,,,,,,,,,,,,,,
,5f0c002c47848351fd023d3d,627c6f5db771074e47e240c4,2022-05-11_22h23.25.692,classification_task,2021.2.3,Win32,59.75500448,627c6715c52fd12f31907bcf,,,,,,,,,,,,,,,,,,,,,,,l,0,"[""0.319"",""0.570"",""0.939"",""0.973""]","[1,0,1,1]",0,11,11,11,1,0,1,,,0,FALSE,3.5993,,,,,,,,,,,,,,,,,,,,,,,,,,,,,,,
,5f0c002c47848351fd023d3d,627c6f5db771074e47e240c4,2022-05-11_22h23.25.692,classification_task,2021.2.3,Win32,59.75500448,627c6715c52fd12f31907bcf,,,,,,,,,,,,,,,,,,,,,,,a,0,"[""0.093"",""0.566"",""0.612"",""0.768""]","[1,0,1,1]",0,12,12,12,1,1,0,,,0,FALSE,3.7481,,,,,,,,,,,,,,,,,,,,,,,,,,,,,,,
,5f0c002c47848351fd023d3d,627c6f5db771074e47e240c4,2022-05-11_22h23.25.692,classification_task,2021.2.3,Win32,59.75500448,627c6715c52fd12f31907bcf,,,,,,,,,,,,,,,,,,,,,,,a,0,"[""0.566"",""0.263"",""0.612"",""0.768""]","[0,1,1,1]",0,13,13,13,1,1,0,,,0,FALSE,4.9494,,,,,,,,,,,,,,,,,,,,,,,,,,,,,,,
,5f0c002c47848351fd023d3d,627c6f5db771074e47e240c4,2022-05-11_22h23.25.692,classification_task,2021.2.3,Win32,59.75500448,627c6715c52fd12f31907bcf,,,,,,,,,,,,,,,,,,,,,,,a,0,"[""0.093"",""0.263"",""0.372"",""0.768""]","[1,1,0,1]",0,14,14,14,1,1,0,,,0,FALSE,6.0807,,,,,,,,,,,,,,,,,,,,,,,,,,,,,,,
,5f0c002c47848351fd023d3d,627c6f5db771074e47e240c4,2022-05-11_22h23.25.692,classification_task,2021.2.3,Win32,59.75500448,627c6715c52fd12f31907bcf,,,,,,,,,,,,,,,,,,,,,,,a,0,"[""0.153"",""0.407"",""0.663"",""0.353""]","[1,1,1,0]",0,15,15,15,1,1,1,,,0,FALSE,7.4508,,,,,,,,,,,,,,,,,,,,,,,,,,,,,,,
,5f0c002c47848351fd023d3d,627c6f5db771074e47e240c4,2022-05-11_22h23.25.692,classification_task,2021.2.3,Win32,59.75500448,627c6715c52fd12f31907bcf,,,,,,,,,,,,,,,,,,,,,,,l,0,"[""0.189"",""0.530"",""0.846"",""0.564""]","[1,1,1,0]",0,16,16,16,1,0,0,,,0,FALSE,5.3725,,,,,,,,,,,,,,,,,,,,,,,,,,,,,,,
,5f0c002c47848351fd023d3d,627c6f5db771074e47e240c4,2022-05-11_22h23.25.692,classification_task,2021.2.3,Win32,59.75500448,627c6715c52fd12f31907bcf,,,,,,,,,,,,,,,,,,,,,,,l,1,"[""0.569"",""0.263"",""0.612"",""0.768""]","[0,1,1,1]",0,17,17,17,1,1,0,,,0,FALSE,6.4584,,,,,,,,,,,,,,,,,,,,,,,,,,,,,,,
,5f0c002c47848351fd023d3d,627c6f5db771074e47e240c4,2022-05-11_22h23.25.692,classification_task,2021.2.3,Win32,59.75500448,627c6715c52fd12f31907bcf,,,,,,,,,,,,,,,,,,,,,,,l,0,"[""0.189"",""0.530"",""0.372"",""0.897""]","[1,1,0,1]",0,18,18,18,1,0,0,,,0,FALSE,8.3907,,,,,,,,,,,,,,,,,,,,,,,,,,,,,,,
,5f0c002c47848351fd023d3d,627c6f5db771074e47e240c4,2022-05-11_22h23.25.692,classification_task,2021.2.3,Win32,59.75500448,627c6715c52fd12f31907bcf,,,,,,,,,,,,,,,,,,,,,,,a,1,"[""0.319"",""0.464"",""0.939"",""0.811""]","[1,1,1,0]",0,19,19,19,1,0,1,,,0,FALSE,4.0964,,,,,,,,,,,,,,,,,,,,,,,,,,,,,,,
,5f0c002c47848351fd023d3d,627c6f5db771074e47e240c4,2022-05-11_22h23.25.692,classification_task,2021.2.3,Win32,59.75500448,627c6715c52fd12f31907bcf,,,,,,,,,,,,,,,,,,,,,,,l,1,"[""0.153"",""0.038"",""0.663"",""0.706""]","[1,0,1,1]",0,20,20,20,1,1,1,,,0,FALSE,6.0906,,,,,,,,,,,,,,,,,,,,,,,,,,,,,,,
,5f0c002c47848351fd023d3d,627c6f5db771074e47e240c4,2022-05-11_22h23.25.692,classification_task,2021.2.3,Win32,59.75500448,627c6715c52fd12f31907bcf,,,,,,,,,,,,,,,,,,,,,,,l,1,"[""0.093"",""0.263"",""0.572"",""0.768""]","[1,1,0,1]",0,21,21,21,1,1,0,,,0,FALSE,5.1143,,,,,,,,,,,,,,,,,,,,,,,,,,,,,,,
,5f0c002c47848351fd023d3d,627c6f5db771074e47e240c4,2022-05-11_22h23.25.692,classification_task,2021.2.3,Win32,59.75500448,627c6715c52fd12f31907bcf,,,,,,,,,,,,,,,,,,,,,,,l,0,"[""0.189"",""0.569"",""0.846"",""0.897""]","[1,0,1,1]",0,22,22,22,1,0,0,,,0,FALSE,6.2595,,,,,,,,,,,,,,,,,,,,,,,,,,,,,,,
,5f0c002c47848351fd023d3d,627c6f5db771074e47e240c4,2022-05-11_22h23.25.692,classification_task,2021.2.3,Win32,59.75500448,627c6715c52fd12f31907bcf,,,,,,,,,,,,,,,,,,,,,,,l,1,"[""0.354"",""0.407"",""0.663"",""0.706""]","[0,1,1,1]",0,23,23,23,1,1,1,,,0,FALSE,6.3259,,,,,,,,,,,,,,,,,,,,,,,,,,,,,,,
,5f0c002c47848351fd023d3d,627c6f5db771074e47e240c4,2022-05-11_22h23.25.692,classification_task,2021.2.3,Win32,59.75500448,627c6715c52fd12f31907bcf,,,,,,,,,,,,,,,,,,,,,,,l,0,"[""0.811"",""0.530"",""0.846"",""0.897""]","[0,1,1,1]",0,24,24,24,1,0,0,,,0,FALSE,5.5722,,,,,,,,,,,,,,,,,,,,,,,,,,,,,,,
,5f0c002c47848351fd023d3d,627c6f5db771074e47e240c4,2022-05-11_22h23.25.692,classification_task,2021.2.3,Win32,59.75500448,627c6715c52fd12f31907bcf,,,,,,,,,,,,,,,,,,,,,,,l,1,"[""0.153"",""0.407"",""0.353"",""0.706""]","[1,1,0,1]",0,25,25,25,1,1,1,,,0,FALSE,6.2307,,,,,,,,,,,,,,,,,,,,,,,,,,,,,,,
,5f0c002c47848351fd023d3d,627c6f5db771074e47e240c4,2022-05-11_22h23.25.692,classification_task,2021.2.3,Win32,59.75500448,627c6715c52fd12f31907bcf,,,,,,,,,,,,,,,,,,,,,,,a,1,"[""0.319"",""0.572"",""0.939"",""0.973""]","[1,0,1,1]",0,26,26,26,1,0,1,,,0,FALSE,4.8417,,,,,,,,,,,,,,,,,,,,,,,,,,,,,,,
,5f0c002c47848351fd023d3d,627c6f5db771074e47e240c4,2022-05-11_22h23.25.692,classification_task,2021.2.3,Win32,59.75500448,627c6715c52fd12f31907bcf,,,,,,,,,,,,,,,,,,,,,,,a,0,"[""0.093"",""0.263"",""0.612"",""0.566""]","[1,1,1,0]",0,27,27,27,1,1,0,,,0,FALSE,6.5596,,,,,,,,,,,,,,,,,,,,,,,,,,,,,,,
,5f0c002c47848351fd023d3d,627c6f5db771074e47e240c4,2022-05-11_22h23.25.692,classification_task,2021.2.3,Win32,59.75500448,627c6715c52fd12f31907bcf,,,,,,,,,,,,,,,,,,,,,,,a,1,"[""0.371"",""0.464"",""0.939"",""0.973""]","[0,1,1,1]",0,28,28,28,1,0,1,,,0,FALSE,6.239,,,,,,,,,,,,,,,,,,,,,,,,,,,,,,,
,5f0c002c47848351fd023d3d,627c6f5db771074e47e240c4,2022-05-11_22h23.25.692,classification_task,2021.2.3,Win32,59.75500448,627c6715c52fd12f31907bcf,,,,,,,,,,,,,,,,,,,,,,,l,1,"[""0.153"",""0.407"",""0.663"",""0.372""]","[1,1,1,0]",0,29,29,29,1,1,1,,,0,FALSE,3.2761,,,,,,,,,,,,,,,,,,,,,,,,,,,,,,,
,5f0c002c47848351fd023d3d,627c6f5db771074e47e240c4,2022-05-11_22h23.25.692,classification_task,2021.2.3,Win32,59.75500448,627c6715c52fd12f31907bcf,,,,,,,,,,,,,,,,,,,,,,,l,1,"[""0.093"",""0.564"",""0.612"",""0.768""]","[1,0,1,1]",0,30,30,30,1,1,0,,,0,FALSE,6.7234,,,,,,,,,,,,,,,,,,,,,,,,,,,,,,,
,5f0c002c47848351fd023d3d,627c6f5db771074e47e240c4,2022-05-11_22h23.25.692,classification_task,2021.2.3,Win32,59.75500448,627c6715c52fd12f31907bcf,,,,,,,,,,,,,,,,,,,,,,,a,1,"[""0.319"",""0.464"",""0.353"",""0.973""]","[1,1,0,1]",0,31,31,31,1,0,1,,,0,FALSE,5.7052,,,,,,,,,,,,,,,,,,,,,,,,,,,,,,,
,5f0c002c47848351fd023d3d,627c6f5db771074e47e240c4,2022-05-11_22h23.25.692,classification_task,2021.2.3,Win32,59.75500448,627c6715c52fd12f31907bcf,,,,,,,,,,,,,,,,,,,,,,,a,1,"[""0.189"",""0.572"",""0.846"",""0.897""]","[1,0,1,1]",0,32,32,32,1,0,0,,,0,FALSE,4.3143,,,,,,,,,,,,,,,,,,,,,,,,,,,,,,,
,5f0c002c47848351fd023d3d,627c6f5db771074e47e240c4,2022-05-11_22h23.25.692,classification_task,2021.2.3,Win32,59.75500448,627c6715c52fd12f31907bcf,,,,,,,,,,,,,,,,,,,,,,,l,1,"[""0.153"",""0.407"",""0.663"",""0.572""]","[1,1,1,0]",0,33,33,33,1,1,1,,,0,FALSE,3.1422,,,,,,,,,,,,,,,,,,,,,,,,,,,,,,,
,5f0c002c47848351fd023d3d,627c6f5db771074e47e240c4,2022-05-11_22h23.25.692,classification_task,2021.2.3,Win32,59.75500448,627c6715c52fd12f31907bcf,,,,,,,,,,,,,,,,,,,,,,,l,1,"[""0.093"",""0.263"",""0.038"",""0.768""]","[1,1,0,1]",0,34,34,34,1,1,0,,,0,FALSE,2.5268,,,,,,,,,,,,,,,,,,,,,,,,,,,,,,,
,5f0c002c47848351fd023d3d,627c6f5db771074e47e240c4,2022-05-11_22h23.25.692,classification_task,2021.2.3,Win32,59.75500448,627c6715c52fd12f31907bcf,,,,,,,,,,,,,,,,,,,,,,,a,0,"[""0.093"",""0.263"",""0.612"",""0.808""]","[1,1,1,0]",0,35,35,35,1,1,0,,,0,FALSE,1.6609,,,,,,,,,,,,,,,,,,,,,,,,,,,,,,,
,5f0c002c47848351fd023d3d,627c6f5db771074e47e240c4,2022-05-11_22h23.25.692,classification_task,2021.2.3,Win32,59.75500448,627c6715c52fd12f31907bcf,,,,,,,,,,,,,,,,,,,,,,,l,1,"[""0.093"",""0.564"",""0.612"",""0.768""]","[1,0,1,1]",0,36,36,36,1,1,0,,,0,FALSE,2.4,,,,,,,,,,,,,,,,,,,,,,,,,,,,,,,
,5f0c002c47848351fd023d3d,627c6f5db771074e47e240c4,2022-05-11_22h23.25.692,classification_task,2021.2.3,Win32,59.75500448,627c6715c52fd12f31907bcf,,,,,,,,,,,,,,,,,,,,,,,l,1,"[""0.372"",""0.263"",""0.612"",""0.768""]","[0,1,1,1]",0,37,37,37,1,1,0,,,0,FALSE,1.4996,,,,,,,,,,,,,,,,,,,,,,,,,,,,,,,
,5f0c002c47848351fd023d3d,627c6f5db771074e47e240c4,2022-05-11_22h23.25.692,classification_task,2021.2.3,Win32,59.75500448,627c6715c52fd12f31907bcf,,,,,,,,,,,,,,,,,,,,,,,l,0,"[""0.319"",""0.464"",""0.811"",""0.973""]","[1,1,0,1]",0,38,38,38,1,0,1,,,0,FALSE,1.8875,,,,,,,,,,,,,,,,,,,,,,,,,,,,,,,
,5f0c002c47848351fd023d3d,627c6f5db771074e47e240c4,2022-05-11_22h23.25.692,classification_task,2021.2.3,Win32,59.75500448,627c6715c52fd12f31907bcf,,,,,,,,,,,,,,,,,,,,,,,a,1,"[""0.189"",""0.530"",""0.038"",""0.897""]","[1,1,0,1]",0,39,39,39,1,0,0,,,0,FALSE,2.4807,,,,,,,,,,,,,,,,,,,,,,,,,,,,,,,
,5f0c002c47848351fd023d3d,627c6f5db771074e47e240c4,2022-05-11_22h23.25.692,classification_task,2021.2.3,Win32,59.75500448,627c6715c52fd12f31907bcf,,,,,,,,,,,,,,,,,,,,,,,a,1,"[""0.319"",""0.373"",""0.939"",""0.973""]","[1,0,1,1]",0,40,40,40,1,0,1,,,0,FALSE,1.631,,,,,,,,,,,,,,,,,,,,,,,,,,,,,,,
,5f0c002c47848351fd023d3d,627c6f5db771074e47e240c4,2022-05-11_22h23.25.692,classification_task,2021.2.3,Win32,59.75500448,627c6715c52fd12f31907bcf,,,,,,,,,,,,,,,,,,,,,,,l,1,"[""0.153"",""0.407"",""0.811"",""0.706""]","[1,1,0,1]",0,41,41,41,1,1,1,,,0,FALSE,2.4493,,,,,,,,,,,,,,,,,,,,,,,,,,,,,,,
,5f0c002c47848351fd023d3d,627c6f5db771074e47e240c4,2022-05-11_22h23.25.692,classification_task,2021.2.3,Win32,59.75500448,627c6715c52fd12f31907bcf,,,,,,,,,,,,,,,,,,,,,,,l,0,"[""0.189"",""0.530"",""0.846"",""0.053""]","[1,1,1,0]",0,42,42,42,1,0,0,,,0,FALSE,1.9628,,,,,,,,,,,,,,,,,,,,,,,,,,,,,,,
,5f0c002c47848351fd023d3d,627c6f5db771074e47e240c4,2022-05-11_22h23.25.692,classification_task,2021.2.3,Win32,59.75500448,627c6715c52fd12f31907bcf,,,,,,,,,,,,,,,,,,,,,,,a,0,"[""0.373"",""0.407"",""0.663"",""0.706""]","[0,1,1,1]",0,43,43,43,1,1,1,,,0,FALSE,1.273,,,,,,,,,,,,,,,,,,,,,,,,,,,,,,,
,5f0c002c47848351fd023d3d,627c6f5db771074e47e240c4,2022-05-11_22h23.25.692,classification_task,2021.2.3,Win32,59.75500448,627c6715c52fd12f31907bcf,,,,,,,,,,,,,,,,,,,,,,,l,0,"[""0.319"",""0.464"",""0.939"",""0.372""]","[1,1,1,0]",0,44,44,44,1,0,1,,,0,FALSE,1.6374,,,,,,,,,,,,,,,,,,,,,,,,,,,,,,,
,5f0c002c47848351fd023d3d,627c6f5db771074e47e240c4,2022-05-11_22h23.25.692,classification_task,2021.2.3,Win32,59.75500448,627c6715c52fd12f31907bcf,,,,,,,,,,,,,,,,,,,,,,,a,0,"[""0.153"",""0.353"",""0.663"",""0.706""]","[1,0,1,1]",0,45,45,45,1,1,1,,,0,FALSE,2.6273,,,,,,,,,,,,,,,,,,,,,,,,,,,,,,,
,5f0c002c47848351fd023d3d,627c6f5db771074e47e240c4,2022-05-11_22h23.25.692,classification_task,2021.2.3,Win32,59.75500448,627c6715c52fd12f31907bcf,,,,,,,,,,,,,,,,,,,,,,,a,1,"[""0.055"",""0.530"",""0.846"",""0.897""]","[0,1,1,1]",0,46,46,46,1,0,0,,,0,FALSE,1.0713,,,,,,,,,,,,,,,,,,,,,,,,,,,,,,,
,5f0c002c47848351fd023d3d,627c6f5db771074e47e240c4,2022-05-11_22h23.25.692,classification_task,2021.2.3,Win32,59.75500448,627c6715c52fd12f31907bcf,,,,,,,,,,,,,,,,,,,,,,,l,0,"[""0.569"",""0.464"",""0.939"",""0.973""]","[0,1,1,1]",0,47,47,47,1,0,1,,,0,FALSE,2.6817,,,,,,,,,,,,,,,,,,,,,,,,,,,,,,,
,5f0c002c47848351fd023d3d,627c6f5db771074e47e240c4,2022-05-11_22h23.25.692,classification_task,2021.2.3,Win32,59.75500448,627c6715c52fd12f31907bcf,,,,,,,,,,,,,,,,,,,,,,,a,1,"[""0.189"",""0.053"",""0.846"",""0.897""]","[1,0,1,1]",0,48,48,48,1,0,0,,,0,FALSE,1.0118,,,,,,,,,,,,,,,,,,,,,,,,,,,,,,,
,5f0c002c47848351fd023d3d,627c6f5db771074e47e240c4,2022-05-11_22h23.25.692,classification_task,2021.2.3,Win32,59.75500448,627c6715c52fd12f31907bcf,,,,,,,,,,,,,,,,,,,,,,,a,1,"[""0.319"",""0.464"",""0.811"",""0.973""]","[1,1,0,1]",0,49,49,49,1,0,1,,,0,FALSE,1.1672,,,,,,,,,,,,,,,,,,,,,,,,,,,,,,,
,5f0c002c47848351fd023d3d,627c6f5db771074e47e240c4,2022-05-11_22h23.25.692,classification_task,2021.2.3,Win32,59.75500448,627c6715c52fd12f31907bcf,,,,,,,,,,,,,,,,,,,,,,,l,0,"[""0.189"",""0.530"",""0.846"",""0.038""]","[1,1,1,0]",0,50,50,50,1,0,0,,,0,FALSE,1.3498,,,,,,,,,,,,,,,,,,,,,,,,,,,,,,,
,5f0c002c47848351fd023d3d,627c6f5db771074e47e240c4,2022-05-11_22h23.25.692,classification_task,2021.2.3,Win32,59.75500448,627c6715c52fd12f31907bcf,,,,,,,,,,,,,,,,,,,,,,,l,1,"[""0.566"",""0.407"",""0.663"",""0.706""]","[0,1,1,1]",0,51,51,51,1,1,1,,,0,FALSE,0.9312,,,,,,,,,,,,,,,,,,,,,,,,,,,,,,,
,5f0c002c47848351fd023d3d,627c6f5db771074e47e240c4,2022-05-11_22h23.25.692,classification_task,2021.2.3,Win32,59.75500448,627c6715c52fd12f31907bcf,,,,,,,,,,,,,,,,,,,,,,,a,0,"[""0.093"",""0.263"",""0.373"",""0.768""]","[1,1,0,1]",0,52,52,52,1,1,0,,,0,FALSE,1.2348,,,,,,,,,,,,,,,,,,,,,,,,,,,,,,,
,5f0c002c47848351fd023d3d,627c6f5db771074e47e240c4,2022-05-11_22h23.25.692,classification_task,2021.2.3,Win32,59.75500448,627c6715c52fd12f31907bcf,,,,,,,,,,,,,,,,,,,,,,,a,1,"[""0.319"",""0.464"",""0.939"",""0.564""]","[1,1,1,0]",0,53,53,53,1,0,1,,,0,FALSE,1.0825,,,,,,,,,,,,,,,,,,,,,,,,,,,,,,,
,5f0c002c47848351fd023d3d,627c6f5db771074e47e240c4,2022-05-11_22h23.25.692,classification_task,2021.2.3,Win32,59.75500448,627c6715c52fd12f31907bcf,,,,,,,,,,,,,,,,,,,,,,,a,1,"[""0.319"",""0.570"",""0.939"",""0.973""]","[1,0,1,1]",0,54,54,54,1,0,1,,,0,FALSE,1.0861,,,,,,,,,,,,,,,,,,,,,,,,,,,,,,,
,5f0c002c47848351fd023d3d,627c6f5db771074e47e240c4,2022-05-11_22h23.25.692,classification_task,2021.2.3,Win32,59.75500448,627c6715c52fd12f31907bcf,,,,,,,,,,,,,,,,,,,,,,,l,1,"[""0.153"",""0.407"",""0.569"",""0.706""]","[1,1,0,1]",0,55,55,55,1,1,1,,,0,FALSE,1.1335,,,,,,,,,,,,,,,,,,,,,,,,,,,,,,,
,5f0c002c47848351fd023d3d,627c6f5db771074e47e240c4,2022-05-11_22h23.25.692,classification_task,2021.2.3,Win32,59.75500448,627c6715c52fd12f31907bcf,,,,,,,,,,,,,,,,,,,,,,,a,1,"[""0.570"",""0.464"",""0.939"",""0.973""]","[0,1,1,1]",0,56,56,56,1,0,1,,,0,FALSE,0.9238,,,,,,,,,,,,,,,,,,,,,,,,,,,,,,,
,5f0c002c47848351fd023d3d,627c6f5db771074e47e240c4,2022-05-11_22h23.25.692,classification_task,2021.2.3,Win32,59.75500448,627c6715c52fd12f31907bcf,,,,,,,,,,,,,,,,,,,,,,,a,0,"[""0.093"",""0.263"",""0.612"",""0.028""]","[1,1,1,0]",0,57,57,57,1,1,0,,,0,FALSE,0.8505,,,,,,,,,,,,,,,,,,,,,,,,,,,,,,,
,5f0c002c47848351fd023d3d,627c6f5db771074e47e240c4,2022-05-11_22h23.25.692,classification_task,2021.2.3,Win32,59.75500448,627c6715c52fd12f31907bcf,,,,,,,,,,,,,,,,,,,,,,,l,1,"[""0.153"",""0.407"",""0.663"",""0.354""]","[1,1,1,0]",0,58,58,58,1,1,1,,,0,FALSE,1.1186,,,,,,,,,,,,,,,,,,,,,,,,,,,,,,,
,5f0c002c47848351fd023d3d,627c6f5db771074e47e240c4,2022-05-11_22h23.25.692,classification_task,2021.2.3,Win32,59.75500448,627c6715c52fd12f31907bcf,,,,,,,,,,,,,,,,,,,,,,,l,0,"[""0.564"",""0.530"",""0.846"",""0.897""]","[0,1,1,1]",0,59,59,59,1,0,0,,,0,FALSE,2.3159,,,,,,,,,,,,,,,,,,,,,,,,,,,,,,,
,5f0c002c47848351fd023d3d,627c6f5db771074e47e240c4,2022-05-11_22h23.25.692,classification_task,2021.2.3,Win32,59.75500448,627c6715c52fd12f31907bcf,,,,,,,,,,,,,,,,,,,,,,,a,1,"[""0.189"",""0.530"",""0.028"",""0.897""]","[1,1,0,1]",0,60,60,60,1,0,0,,,0,FALSE,1.5172,,,,,,,,,,,,,,,,,,,,,,,,,,,,,,,
,5f0c002c47848351fd023d3d,627c6f5db771074e47e240c4,2022-05-11_22h23.25.692,classification_task,2021.2.3,Win32,59.75500448,627c6715c52fd12f31907bcf,,,,,,,,,,,,,,,,,,,,,,,a,0,"[""0.093"",""0.372"",""0.612"",""0.768""]","[1,0,1,1]",0,61,61,61,1,1,0,,,0,FALSE,1.147,,,,,,,,,,,,,,,,,,,,,,,,,,,,,,,
,5f0c002c47848351fd023d3d,627c6f5db771074e47e240c4,2022-05-11_22h23.25.692,classification_task,2021.2.3,Win32,59.75500448,627c6715c52fd12f31907bcf,,,,,,,,,,,,,,,,,,,,,,,l,1,"[""0.153"",""0.372"",""0.663"",""0.706""]","[1,0,1,1]",0,62,62,62,1,1,1,,,0,FALSE,1.4346,,,,,,,,,,,,,,,,,,,,,,,,,,,,,,,
,5f0c002c47848351fd023d3d,627c6f5db771074e47e240c4,2022-05-11_22h23.25.692,classification_task,2021.2.3,Win32,59.75500448,627c6715c52fd12f31907bcf,,,,,,,,,,,,,,,,,,,,,,,l,1,"[""0.354"",""0.263"",""0.612"",""0.768""]","[0,1,1,1]",0,63,63,63,1,1,0,,,0,FALSE,2.7496,,,,,,,,,,,,,,,,,,,,,,,,,,,,,,,
,5f0c002c47848351fd023d3d,627c6f5db771074e47e240c4,2022-05-11_22h23.25.692,classification_task,2021.2.3,Win32,59.75500448,627c6715c52fd12f31907bcf,,,,,,,,,,,,,,,,,,,,,,,,,,,,,,,,,,,,,,,0, ,,0,8.998874333,649.7052,0,0,0,0,1,2,1,,,,,,,,,,,,,,,,,,
,5f0c002c47848351fd023d3d,627c6f5db771074e47e240c4,2022-05-11_22h23.25.692,classification_task,2021.2.3,Win32,59.75500448,627c6715c52fd12f31907bcf,,,,,,,,,,,,,,,,,,,,,,,,,,,,,,,,,,,,,,,1,  ,,0,7.77410459,653.7584,0,0,0,0,1,2,1,,,,,,,,,,,,,,,,,,
,5f0c002c47848351fd023d3d,627c6f5db771074e47e240c4,2022-05-11_22h23.25.692,classification_task,2021.2.3,Win32,59.75500448,627c6715c52fd12f31907bcf,,,,,,,,,,,,,,,,,,,,,,,,,,,,,,,,,,,,,,,2,  ,,0,8.802910427,659.775,0,0,0,0,1,2,1,,,,,,,,,,,,,,,,,,
,5f0c002c47848351fd023d3d,627c6f5db771074e47e240c4,2022-05-11_22h23.25.692,classification_task,2021.2.3,Win32,59.75500448,627c6715c52fd12f31907bcf,,,,,,,,,,,,,,,,,,,,,,,,,,,,,,,,,,,,,,,,,,,,,0,0,0,0,1,,1,,,,,,,,,,,,,,,,,,
,5f0c002c47848351fd023d3d,627c6f5db771074e47e240c4,2022-05-11_22h23.25.692,classification_task,2021.2.3,Win32,59.75500448,627c6715c52fd12f31907bcf,,,,,,,,,,,,,,,,,,,,,space,17.8781,a,1,"[""0.189"",""0.564"",""0.846"",""0.897""]","[1,0,1,1]",0,0,0,0,1,0,0,,,0,FALSE,2.8353,,,,,,,,,,,,,,,,,,,,,,,,,,,,,,,
,5f0c002c47848351fd023d3d,627c6f5db771074e47e240c4,2022-05-11_22h23.25.692,classification_task,2021.2.3,Win32,59.75500448,627c6715c52fd12f31907bcf,,,,,,,,,,,,,,,,,,,,,,,l,1,"[""0.564"",""0.263"",""0.612"",""0.768""]","[0,1,1,1]",0,1,1,1,1,1,0,,,0,FALSE,1.0821,,,,,,,,,,,,,,,,,,,,,,,,,,,,,,,
,5f0c002c47848351fd023d3d,627c6f5db771074e47e240c4,2022-05-11_22h23.25.692,classification_task,2021.2.3,Win32,59.75500448,627c6715c52fd12f31907bcf,,,,,,,,,,,,,,,,,,,,,,,a,1,"[""0.319"",""0.464"",""0.569"",""0.973""]","[1,1,0,1]",0,2,2,2,1,0,1,,,0,FALSE,2.2456,,,,,,,,,,,,,,,,,,,,,,,,,,,,,,,
,5f0c002c47848351fd023d3d,627c6f5db771074e47e240c4,2022-05-11_22h23.25.692,classification_task,2021.2.3,Win32,59.75500448,627c6715c52fd12f31907bcf,,,,,,,,,,,,,,,,,,,,,,,l,1,"[""0.093"",""0.263"",""0.612"",""0.569""]","[1,1,1,0]",0,3,3,3,1,1,0,,,0,FALSE,1.3307,,,,,,,,,,,,,,,,,,,,,,,,,,,,,,,
,5f0c002c47848351fd023d3d,627c6f5db771074e47e240c4,2022-05-11_22h23.25.692,classification_task,2021.2.3,Win32,59.75500448,627c6715c52fd12f31907bcf,,,,,,,,,,,,,,,,,,,,,,,l,1,"[""0.093"",""0.564"",""0.612"",""0.768""]","[1,0,1,1]",0,4,4,4,1,1,0,,,0,FALSE,0.8998,,,,,,,,,,,,,,,,,,,,,,,,,,,,,,,
,5f0c002c47848351fd023d3d,627c6f5db771074e47e240c4,2022-05-11_22h23.25.692,classification_task,2021.2.3,Win32,59.75500448,627c6715c52fd12f31907bcf,,,,,,,,,,,,,,,,,,,,,,,l,0,"[""0.319"",""0.464"",""0.939"",""0.811""]","[1,1,1,0]",0,5,5,5,1,0,1,,,0,FALSE,1.2015,,,,,,,,,,,,,,,,,,,,,,,,,,,,,,,
,5f0c002c47848351fd023d3d,627c6f5db771074e47e240c4,2022-05-11_22h23.25.692,classification_task,2021.2.3,Win32,59.75500448,627c6715c52fd12f31907bcf,,,,,,,,,,,,,,,,,,,,,,,l,1,"[""0.093"",""0.263"",""0.569"",""0.768""]","[1,1,0,1]",0,6,6,6,1,1,0,,,0,FALSE,0.831,,,,,,,,,,,,,,,,,,,,,,,,,,,,,,,
,5f0c002c47848351fd023d3d,627c6f5db771074e47e240c4,2022-05-11_22h23.25.692,classification_task,2021.2.3,Win32,59.75500448,627c6715c52fd12f31907bcf,,,,,,,,,,,,,,,,,,,,,,,a,1,"[""0.189"",""0.530"",""0.569"",""0.897""]","[1,1,0,1]",0,7,7,7,1,0,0,,,0,FALSE,0.8155,,,,,,,,,,,,,,,,,,,,,,,,,,,,,,,
,5f0c002c47848351fd023d3d,627c6f5db771074e47e240c4,2022-05-11_22h23.25.692,classification_task,2021.2.3,Win32,59.75500448,627c6715c52fd12f31907bcf,,,,,,,,,,,,,,,,,,,,,,,l,0,"[""0.570"",""0.464"",""0.939"",""0.973""]","[0,1,1,1]",0,8,8,8,1,0,1,,,0,FALSE,2.7154,,,,,,,,,,,,,,,,,,,,,,,,,,,,,,,
,5f0c002c47848351fd023d3d,627c6f5db771074e47e240c4,2022-05-11_22h23.25.692,classification_task,2021.2.3,Win32,59.75500448,627c6715c52fd12f31907bcf,,,,,,,,,,,,,,,,,,,,,,,a,1,"[""0.189"",""0.530"",""0.846"",""0.038""]","[1,1,1,0]",0,9,9,9,1,0,0,,,0,FALSE,1.4737,,,,,,,,,,,,,,,,,,,,,,,,,,,,,,,
,5f0c002c47848351fd023d3d,627c6f5db771074e47e240c4,2022-05-11_22h23.25.692,classification_task,2021.2.3,Win32,59.75500448,627c6715c52fd12f31907bcf,,,,,,,,,,,,,,,,,,,,,,,l,1,"[""0.153"",""0.407"",""0.564"",""0.706""]","[1,1,0,1]",0,10,10,10,1,1,1,,,0,FALSE,1.5466,,,,,,,,,,,,,,,,,,,,,,,,,,,,,,,
,5f0c002c47848351fd023d3d,627c6f5db771074e47e240c4,2022-05-11_22h23.25.692,classification_task,2021.2.3,Win32,59.75500448,627c6715c52fd12f31907bcf,,,,,,,,,,,,,,,,,,,,,,,l,1,"[""0.153"",""0.407"",""0.663"",""0.569""]","[1,1,1,0]",0,11,11,11,1,1,1,,,0,FALSE,1.0114,,,,,,,,,,,,,,,,,,,,,,,,,,,,,,,
,5f0c002c47848351fd023d3d,627c6f5db771074e47e240c4,2022-05-11_22h23.25.692,classification_task,2021.2.3,Win32,59.75500448,627c6715c52fd12f31907bcf,,,,,,,,,,,,,,,,,,,,,,,a,1,"[""0.319"",""0.053"",""0.939"",""0.973""]","[1,0,1,1]",0,12,12,12,1,0,1,,,0,FALSE,0.8492,,,,,,,,,,,,,,,,,,,,,,,,,,,,,,,
,5f0c002c47848351fd023d3d,627c6f5db771074e47e240c4,2022-05-11_22h23.25.692,classification_task,2021.2.3,Win32,59.75500448,627c6715c52fd12f31907bcf,,,,,,,,,,,,,,,,,,,,,,,a,1,"[""0.028"",""0.530"",""0.846"",""0.897""]","[0,1,1,1]",0,13,13,13,1,0,0,,,0,FALSE,1.047,,,,,,,,,,,,,,,,,,,,,,,,,,,,,,,
,5f0c002c47848351fd023d3d,627c6f5db771074e47e240c4,2022-05-11_22h23.25.692,classification_task,2021.2.3,Win32,59.75500448,627c6715c52fd12f31907bcf,,,,,,,,,,,,,,,,,,,,,,,a,0,"[""0.153"",""0.569"",""0.663"",""0.706""]","[1,0,1,1]",0,14,14,14,1,1,1,,,0,FALSE,1.6509,,,,,,,,,,,,,,,,,,,,,,,,,,,,,,,
,5f0c002c47848351fd023d3d,627c6f5db771074e47e240c4,2022-05-11_22h23.25.692,classification_task,2021.2.3,Win32,59.75500448,627c6715c52fd12f31907bcf,,,,,,,,,,,,,,,,,,,,,,,l,1,"[""0.372"",""0.407"",""0.663"",""0.706""]","[0,1,1,1]",0,15,15,15,1,1,1,,,0,FALSE,0.9016,,,,,,,,,,,,,,,,,,,,,,,,,,,,,,,
,5f0c002c47848351fd023d3d,627c6f5db771074e47e240c4,2022-05-11_22h23.25.692,classification_task,2021.2.3,Win32,59.75500448,627c6715c52fd12f31907bcf,,,,,,,,,,,,,,,,,,,,,,,a,1,"[""0.189"",""0.530"",""0.846"",""0.372""]","[1,1,1,0]",0,16,16,16,1,0,0,,,0,FALSE,0.7129,,,,,,,,,,,,,,,,,,,,,,,,,,,,,,,
,5f0c002c47848351fd023d3d,627c6f5db771074e47e240c4,2022-05-11_22h23.25.692,classification_task,2021.2.3,Win32,59.75500448,627c6715c52fd12f31907bcf,,,,,,,,,,,,,,,,,,,,,,,l,1,"[""0.566"",""0.263"",""0.612"",""0.768""]","[0,1,1,1]",0,17,17,17,1,1,0,,,0,FALSE,0.5516,,,,,,,,,,,,,,,,,,,,,,,,,,,,,,,
,5f0c002c47848351fd023d3d,627c6f5db771074e47e240c4,2022-05-11_22h23.25.692,classification_task,2021.2.3,Win32,59.75500448,627c6715c52fd12f31907bcf,,,,,,,,,,,,,,,,,,,,,,,l,1,"[""0.153"",""0.407"",""0.663"",""0.808""]","[1,1,1,0]",0,18,18,18,1,1,1,,,0,FALSE,1.1334,,,,,,,,,,,,,,,,,,,,,,,,,,,,,,,
,5f0c002c47848351fd023d3d,627c6f5db771074e47e240c4,2022-05-11_22h23.25.692,classification_task,2021.2.3,Win32,59.75500448,627c6715c52fd12f31907bcf,,,,,,,,,,,,,,,,,,,,,,,a,0,"[""0.153"",""0.566"",""0.663"",""0.706""]","[1,0,1,1]",0,19,19,19,1,1,1,,,0,FALSE,0.7154,,,,,,,,,,,,,,,,,,,,,,,,,,,,,,,
,5f0c002c47848351fd023d3d,627c6f5db771074e47e240c4,2022-05-11_22h23.25.692,classification_task,2021.2.3,Win32,59.75500448,627c6715c52fd12f31907bcf,,,,,,,,,,,,,,,,,,,,,,,l,1,"[""0.093"",""0.373"",""0.612"",""0.768""]","[1,0,1,1]",0,20,20,20,1,1,0,,,0,FALSE,0.9629,,,,,,,,,,,,,,,,,,,,,,,,,,,,,,,
,5f0c002c47848351fd023d3d,627c6f5db771074e47e240c4,2022-05-11_22h23.25.692,classification_task,2021.2.3,Win32,59.75500448,627c6715c52fd12f31907bcf,,,,,,,,,,,,,,,,,,,,,,,a,1,"[""0.055"",""0.530"",""0.846"",""0.897""]","[0,1,1,1]",0,21,21,21,1,0,0,,,0,FALSE,0.7342,,,,,,,,,,,,,,,,,,,,,,,,,,,,,,,
,5f0c002c47848351fd023d3d,627c6f5db771074e47e240c4,2022-05-11_22h23.25.692,classification_task,2021.2.3,Win32,59.75500448,627c6715c52fd12f31907bcf,,,,,,,,,,,,,,,,,,,,,,,a,1,"[""0.572"",""0.464"",""0.939"",""0.973""]","[0,1,1,1]",0,22,22,22,1,0,1,,,0,FALSE,1.4135,,,,,,,,,,,,,,,,,,,,,,,,,,,,,,,
,5f0c002c47848351fd023d3d,627c6f5db771074e47e240c4,2022-05-11_22h23.25.692,classification_task,2021.2.3,Win32,59.75500448,627c6715c52fd12f31907bcf,,,,,,,,,,,,,,,,,,,,,,,l,1,"[""0.093"",""0.263"",""0.038"",""0.768""]","[1,1,0,1]",0,23,23,23,1,1,0,,,0,FALSE,0.7742,,,,,,,,,,,,,,,,,,,,,,,,,,,,,,,
,5f0c002c47848351fd023d3d,627c6f5db771074e47e240c4,2022-05-11_22h23.25.692,classification_task,2021.2.3,Win32,59.75500448,627c6715c52fd12f31907bcf,,,,,,,,,,,,,,,,,,,,,,,l,1,"[""0.570"",""0.407"",""0.663"",""0.706""]","[0,1,1,1]",0,24,24,24,1,1,1,,,0,FALSE,1.2784,,,,,,,,,,,,,,,,,,,,,,,,,,,,,,,
,5f0c002c47848351fd023d3d,627c6f5db771074e47e240c4,2022-05-11_22h23.25.692,classification_task,2021.2.3,Win32,59.75500448,627c6715c52fd12f31907bcf,,,,,,,,,,,,,,,,,,,,,,,a,1,"[""0.189"",""0.566"",""0.846"",""0.897""]","[1,0,1,1]",0,25,25,25,1,0,0,,,0,FALSE,0.5073,,,,,,,,,,,,,,,,,,,,,,,,,,,,,,,
,5f0c002c47848351fd023d3d,627c6f5db771074e47e240c4,2022-05-11_22h23.25.692,classification_task,2021.2.3,Win32,59.75500448,627c6715c52fd12f31907bcf,,,,,,,,,,,,,,,,,,,,,,,a,1,"[""0.189"",""0.530"",""0.373"",""0.897""]","[1,1,0,1]",0,26,26,26,1,0,0,,,0,FALSE,0.6154,,,,,,,,,,,,,,,,,,,,,,,,,,,,,,,
,5f0c002c47848351fd023d3d,627c6f5db771074e47e240c4,2022-05-11_22h23.25.692,classification_task,2021.2.3,Win32,59.75500448,627c6715c52fd12f31907bcf,,,,,,,,,,,,,,,,,,,,,,,l,0,"[""0.319"",""0.464"",""0.939"",""0.569""]","[1,1,1,0]",0,27,27,27,1,0,1,,,0,FALSE,1.079,,,,,,,,,,,,,,,,,,,,,,,,,,,,,,,
,5f0c002c47848351fd023d3d,627c6f5db771074e47e240c4,2022-05-11_22h23.25.692,classification_task,2021.2.3,Win32,59.75500448,627c6715c52fd12f31907bcf,,,,,,,,,,,,,,,,,,,,,,,a,1,"[""0.319"",""0.564"",""0.939"",""0.973""]","[1,0,1,1]",0,28,28,28,1,0,1,,,0,FALSE,0.6158,,,,,,,,,,,,,,,,,,,,,,,,,,,,,,,
,5f0c002c47848351fd023d3d,627c6f5db771074e47e240c4,2022-05-11_22h23.25.692,classification_task,2021.2.3,Win32,59.75500448,627c6715c52fd12f31907bcf,,,,,,,,,,,,,,,,,,,,,,,l,1,"[""0.093"",""0.263"",""0.612"",""0.572""]","[1,1,1,0]",0,29,29,29,1,1,0,,,0,FALSE,0.88,,,,,,,,,,,,,,,,,,,,,,,,,,,,,,,
,5f0c002c47848351fd023d3d,627c6f5db771074e47e240c4,2022-05-11_22h23.25.692,classification_task,2021.2.3,Win32,59.75500448,627c6715c52fd12f31907bcf,,,,,,,,,,,,,,,,,,,,,,,l,1,"[""0.153"",""0.407"",""0.372"",""0.706""]","[1,1,0,1]",0,30,30,30,1,1,1,,,0,FALSE,2.0463,,,,,,,,,,,,,,,,,,,,,,,,,,,,,,,
,5f0c002c47848351fd023d3d,627c6f5db771074e47e240c4,2022-05-11_22h23.25.692,classification_task,2021.2.3,Win32,59.75500448,627c6715c52fd12f31907bcf,,,,,,,,,,,,,,,,,,,,,,,l,0,"[""0.319"",""0.464"",""0.371"",""0.973""]","[1,1,0,1]",0,31,31,31,1,0,1,,,0,FALSE,0.9841,,,,,,,,,,,,,,,,,,,,,,,,,,,,,,,
,5f0c002c47848351fd023d3d,627c6f5db771074e47e240c4,2022-05-11_22h23.25.692,classification_task,2021.2.3,Win32,59.75500448,627c6715c52fd12f31907bcf,,,,,,,,,,,,,,,,,,,,,,,a,1,"[""0.189"",""0.530"",""0.053"",""0.897""]","[1,1,0,1]",0,32,32,32,1,0,0,,,0,FALSE,0.7208,,,,,,,,,,,,,,,,,,,,,,,,,,,,,,,
,5f0c002c47848351fd023d3d,627c6f5db771074e47e240c4,2022-05-11_22h23.25.692,classification_task,2021.2.3,Win32,59.75500448,627c6715c52fd12f31907bcf,,,,,,,,,,,,,,,,,,,,,,,a,1,"[""0.189"",""0.371"",""0.846"",""0.897""]","[1,0,1,1]",0,33,33,33,1,0,0,,,0,FALSE,0.6171,,,,,,,,,,,,,,,,,,,,,,,,,,,,,,,
,5f0c002c47848351fd023d3d,627c6f5db771074e47e240c4,2022-05-11_22h23.25.692,classification_task,2021.2.3,Win32,59.75500448,627c6715c52fd12f31907bcf,,,,,,,,,,,,,,,,,,,,,,,l,0,"[""0.319"",""0.464"",""0.939"",""0.572""]","[1,1,1,0]",0,34,34,34,1,0,1,,,0,FALSE,0.6329,,,,,,,,,,,,,,,,,,,,,,,,,,,,,,,
,5f0c002c47848351fd023d3d,627c6f5db771074e47e240c4,2022-05-11_22h23.25.692,classification_task,2021.2.3,Win32,59.75500448,627c6715c52fd12f31907bcf,,,,,,,,,,,,,,,,,,,,,,,a,0,"[""0.153"",""0.572"",""0.663"",""0.706""]","[1,0,1,1]",0,35,35,35,1,1,1,,,0,FALSE,0.9515,,,,,,,,,,,,,,,,,,,,,,,,,,,,,,,
,5f0c002c47848351fd023d3d,627c6f5db771074e47e240c4,2022-05-11_22h23.25.692,classification_task,2021.2.3,Win32,59.75500448,627c6715c52fd12f31907bcf,,,,,,,,,,,,,,,,,,,,,,,l,1,"[""0.093"",""0.038"",""0.612"",""0.768""]","[1,0,1,1]",0,36,36,36,1,1,0,,,0,FALSE,0.9327,,,,,,,,,,,,,,,,,,,,,,,,,,,,,,,
,5f0c002c47848351fd023d3d,627c6f5db771074e47e240c4,2022-05-11_22h23.25.692,classification_task,2021.2.3,Win32,59.75500448,627c6715c52fd12f31907bcf,,,,,,,,,,,,,,,,,,,,,,,l,1,"[""0.153"",""0.407"",""0.053"",""0.706""]","[1,1,0,1]",0,37,37,37,1,1,1,,,0,FALSE,1.3335,,,,,,,,,,,,,,,,,,,,,,,,,,,,,,,
,5f0c002c47848351fd023d3d,627c6f5db771074e47e240c4,2022-05-11_22h23.25.692,classification_task,2021.2.3,Win32,59.75500448,627c6715c52fd12f31907bcf,,,,,,,,,,,,,,,,,,,,,,,a,1,"[""0.319"",""0.566"",""0.939"",""0.973""]","[1,0,1,1]",0,38,38,38,1,0,1,,,0,FALSE,0.8667,,,,,,,,,,,,,,,,,,,,,,,,,,,,,,,
,5f0c002c47848351fd023d3d,627c6f5db771074e47e240c4,2022-05-11_22h23.25.692,classification_task,2021.2.3,Win32,59.75500448,627c6715c52fd12f31907bcf,,,,,,,,,,,,,,,,,,,,,,,l,1,"[""0.028"",""0.263"",""0.612"",""0.768""]","[0,1,1,1]",0,39,39,39,1,1,0,,,0,FALSE,0.6344,,,,,,,,,,,,,,,,,,,,,,,,,,,,,,,
,5f0c002c47848351fd023d3d,627c6f5db771074e47e240c4,2022-05-11_22h23.25.692,classification_task,2021.2.3,Win32,59.75500448,627c6715c52fd12f31907bcf,,,,,,,,,,,,,,,,,,,,,,,l,1,"[""0.093"",""0.263"",""0.354"",""0.768""]","[1,1,0,1]",0,40,40,40,1,1,0,,,0,FALSE,0.5694,,,,,,,,,,,,,,,,,,,,,,,,,,,,,,,
,5f0c002c47848351fd023d3d,627c6f5db771074e47e240c4,2022-05-11_22h23.25.692,classification_task,2021.2.3,Win32,59.75500448,627c6715c52fd12f31907bcf,,,,,,,,,,,,,,,,,,,,,,,a,1,"[""0.564"",""0.464"",""0.939"",""0.973""]","[0,1,1,1]",0,41,41,41,1,0,1,,,0,FALSE,0.8794,,,,,,,,,,,,,,,,,,,,,,,,,,,,,,,
,5f0c002c47848351fd023d3d,627c6f5db771074e47e240c4,2022-05-11_22h23.25.692,classification_task,2021.2.3,Win32,59.75500448,627c6715c52fd12f31907bcf,,,,,,,,,,,,,,,,,,,,,,,l,0,"[""0.189"",""0.530"",""0.846"",""0.372""]","[1,1,1,0]",0,42,42,42,1,0,0,,,0,FALSE,0.8523,,,,,,,,,,,,,,,,,,,,,,,,,,,,,,,
,5f0c002c47848351fd023d3d,627c6f5db771074e47e240c4,2022-05-11_22h23.25.692,classification_task,2021.2.3,Win32,59.75500448,627c6715c52fd12f31907bcf,,,,,,,,,,,,,,,,,,,,,,,a,1,"[""0.372"",""0.530"",""0.846"",""0.897""]","[0,1,1,1]",0,43,43,43,1,0,0,,,0,FALSE,0.6018,,,,,,,,,,,,,,,,,,,,,,,,,,,,,,,
,5f0c002c47848351fd023d3d,627c6f5db771074e47e240c4,2022-05-11_22h23.25.692,classification_task,2021.2.3,Win32,59.75500448,627c6715c52fd12f31907bcf,,,,,,,,,,,,,,,,,,,,,,,a,1,"[""0.319"",""0.464"",""0.353"",""0.973""]","[1,1,0,1]",0,44,44,44,1,0,1,,,0,FALSE,1.0342,,,,,,,,,,,,,,,,,,,,,,,,,,,,,,,
,5f0c002c47848351fd023d3d,627c6f5db771074e47e240c4,2022-05-11_22h23.25.692,classification_task,2021.2.3,Win32,59.75500448,627c6715c52fd12f31907bcf,,,,,,,,,,,,,,,,,,,,,,,l,1,"[""0.153"",""0.407"",""0.663"",""0.028""]","[1,1,1,0]",0,45,45,45,1,1,1,,,0,FALSE,0.798,,,,,,,,,,,,,,,,,,,,,,,,,,,,,,,
,5f0c002c47848351fd023d3d,627c6f5db771074e47e240c4,2022-05-11_22h23.25.692,classification_task,2021.2.3,Win32,59.75500448,627c6715c52fd12f31907bcf,,,,,,,,,,,,,,,,,,,,,,,l,1,"[""0.093"",""0.263"",""0.612"",""0.055""]","[1,1,1,0]",0,46,46,46,1,1,0,,,0,FALSE,0.6824,,,,,,,,,,,,,,,,,,,,,,,,,,,,,,,
,5f0c002c47848351fd023d3d,627c6f5db771074e47e240c4,2022-05-11_22h23.25.692,classification_task,2021.2.3,Win32,59.75500448,627c6715c52fd12f31907bcf,,,,,,,,,,,,,,,,,,,,,,,l,1,"[""0.566"",""0.407"",""0.663"",""0.706""]","[0,1,1,1]",0,47,47,47,1,1,1,,,0,FALSE,1.0981,,,,,,,,,,,,,,,,,,,,,,,,,,,,,,,
,5f0c002c47848351fd023d3d,627c6f5db771074e47e240c4,2022-05-11_22h23.25.692,classification_task,2021.2.3,Win32,59.75500448,627c6715c52fd12f31907bcf,,,,,,,,,,,,,,,,,,,,,,,l,1,"[""0.566"",""0.263"",""0.612"",""0.768""]","[0,1,1,1]",0,48,48,48,1,1,0,,,0,FALSE,1.3816,,,,,,,,,,,,,,,,,,,,,,,,,,,,,,,
,5f0c002c47848351fd023d3d,627c6f5db771074e47e240c4,2022-05-11_22h23.25.692,classification_task,2021.2.3,Win32,59.75500448,627c6715c52fd12f31907bcf,,,,,,,,,,,,,,,,,,,,,,,a,0,"[""0.153"",""0.055"",""0.663"",""0.706""]","[1,0,1,1]",0,49,49,49,1,1,1,,,0,FALSE,1.5127,,,,,,,,,,,,,,,,,,,,,,,,,,,,,,,
,5f0c002c47848351fd023d3d,627c6f5db771074e47e240c4,2022-05-11_22h23.25.692,classification_task,2021.2.3,Win32,59.75500448,627c6715c52fd12f31907bcf,,,,,,,,,,,,,,,,,,,,,,,l,1,"[""0.093"",""0.263"",""0.612"",""0.811""]","[1,1,1,0]",0,50,50,50,1,1,0,,,0,FALSE,0.8723,,,,,,,,,,,,,,,,,,,,,,,,,,,,,,,
,5f0c002c47848351fd023d3d,627c6f5db771074e47e240c4,2022-05-11_22h23.25.692,classification_task,2021.2.3,Win32,59.75500448,627c6715c52fd12f31907bcf,,,,,,,,,,,,,,,,,,,,,,,l,0,"[""0.319"",""0.055"",""0.939"",""0.973""]","[1,0,1,1]",0,51,51,51,1,0,1,,,0,FALSE,1.2637,,,,,,,,,,,,,,,,,,,,,,,,,,,,,,,
,5f0c002c47848351fd023d3d,627c6f5db771074e47e240c4,2022-05-11_22h23.25.692,classification_task,2021.2.3,Win32,59.75500448,627c6715c52fd12f31907bcf,,,,,,,,,,,,,,,,,,,,,,,a,1,"[""0.189"",""0.372"",""0.846"",""0.897""]","[1,0,1,1]",0,52,52,52,1,0,0,,,0,FALSE,0.9648,,,,,,,,,,,,,,,,,,,,,,,,,,,,,,,
,5f0c002c47848351fd023d3d,627c6f5db771074e47e240c4,2022-05-11_22h23.25.692,classification_task,2021.2.3,Win32,59.75500448,627c6715c52fd12f31907bcf,,,,,,,,,,,,,,,,,,,,,,,l,1,"[""0.153"",""0.407"",""0.663"",""0.811""]","[1,1,1,0]",0,53,53,53,1,1,1,,,0,FALSE,1.3291,,,,,,,,,,,,,,,,,,,,,,,,,,,,,,,
,5f0c002c47848351fd023d3d,627c6f5db771074e47e240c4,2022-05-11_22h23.25.692,classification_task,2021.2.3,Win32,59.75500448,627c6715c52fd12f31907bcf,,,,,,,,,,,,,,,,,,,,,,,a,1,"[""0.319"",""0.464"",""0.939"",""0.566""]","[1,1,1,0]",0,54,54,54,1,0,1,,,0,FALSE,1.0644,,,,,,,,,,,,,,,,,,,,,,,,,,,,,,,
,5f0c002c47848351fd023d3d,627c6f5db771074e47e240c4,2022-05-11_22h23.25.692,classification_task,2021.2.3,Win32,59.75500448,627c6715c52fd12f31907bcf,,,,,,,,,,,,,,,,,,,,,,,a,1,"[""0.319"",""0.464"",""0.570"",""0.973""]","[1,1,0,1]",0,55,55,55,1,0,1,,,0,FALSE,0.8874,,,,,,,,,,,,,,,,,,,,,,,,,,,,,,,
,5f0c002c47848351fd023d3d,627c6f5db771074e47e240c4,2022-05-11_22h23.25.692,classification_task,2021.2.3,Win32,59.75500448,627c6715c52fd12f31907bcf,,,,,,,,,,,,,,,,,,,,,,,l,1,"[""0.153"",""0.407"",""0.569"",""0.706""]","[1,1,0,1]",0,56,56,56,1,1,1,,,0,FALSE,0.623,,,,,,,,,,,,,,,,,,,,,,,,,,,,,,,
,5f0c002c47848351fd023d3d,627c6f5db771074e47e240c4,2022-05-11_22h23.25.692,classification_task,2021.2.3,Win32,59.75500448,627c6715c52fd12f31907bcf,,,,,,,,,,,,,,,,,,,,,,,a,1,"[""0.189"",""0.530"",""0.569"",""0.897""]","[1,1,0,1]",0,57,57,57,1,0,0,,,0,FALSE,0.8316,,,,,,,,,,,,,,,,,,,,,,,,,,,,,,,
,5f0c002c47848351fd023d3d,627c6f5db771074e47e240c4,2022-05-11_22h23.25.692,classification_task,2021.2.3,Win32,59.75500448,627c6715c52fd12f31907bcf,,,,,,,,,,,,,,,,,,,,,,,a,0,"[""0.028"",""0.407"",""0.663"",""0.706""]","[0,1,1,1]",0,58,58,58,1,1,1,,,0,FALSE,1.3637,,,,,,,,,,,,,,,,,,,,,,,,,,,,,,,
,5f0c002c47848351fd023d3d,627c6f5db771074e47e240c4,2022-05-11_22h23.25.692,classification_task,2021.2.3,Win32,59.75500448,627c6715c52fd12f31907bcf,,,,,,,,,,,,,,,,,,,,,,,a,1,"[""0.028"",""0.464"",""0.939"",""0.973""]","[0,1,1,1]",0,59,59,59,1,0,1,,,0,FALSE,0.9358,,,,,,,,,,,,,,,,,,,,,,,,,,,,,,,
,5f0c002c47848351fd023d3d,627c6f5db771074e47e240c4,2022-05-11_22h23.25.692,classification_task,2021.2.3,Win32,59.75500448,627c6715c52fd12f31907bcf,,,,,,,,,,,,,,,,,,,,,,,a,1,"[""0.189"",""0.530"",""0.846"",""0.569""]","[1,1,1,0]",0,60,60,60,1,0,0,,,0,FALSE,0.8644,,,,,,,,,,,,,,,,,,,,,,,,,,,,,,,
,5f0c002c47848351fd023d3d,627c6f5db771074e47e240c4,2022-05-11_22h23.25.692,classification_task,2021.2.3,Win32,59.75500448,627c6715c52fd12f31907bcf,,,,,,,,,,,,,,,,,,,,,,,a,1,"[""0.373"",""0.530"",""0.846"",""0.897""]","[0,1,1,1]",0,61,61,61,1,0,0,,,0,FALSE,0.9683,,,,,,,,,,,,,,,,,,,,,,,,,,,,,,,
,5f0c002c47848351fd023d3d,627c6f5db771074e47e240c4,2022-05-11_22h23.25.692,classification_task,2021.2.3,Win32,59.75500448,627c6715c52fd12f31907bcf,,,,,,,,,,,,,,,,,,,,,,,l,1,"[""0.093"",""0.263"",""0.808"",""0.768""]","[1,1,0,1]",0,62,62,62,1,1,0,,,0,FALSE,0.866,,,,,,,,,,,,,,,,,,,,,,,,,,,,,,,
,5f0c002c47848351fd023d3d,627c6f5db771074e47e240c4,2022-05-11_22h23.25.692,classification_task,2021.2.3,Win32,59.75500448,627c6715c52fd12f31907bcf,,,,,,,,,,,,,,,,,,,,,,,l,1,"[""0.093"",""0.569"",""0.612"",""0.768""]","[1,0,1,1]",0,63,63,63,1,1,0,,,0,FALSE,0.7857,,,,,,,,,,,,,,,,,,,,,,,,,,,,,,,
,5f0c002c47848351fd023d3d,627c6f5db771074e47e240c4,2022-05-11_22h23.25.692,classification_task,2021.2.3,Win32,59.75500448,627c6715c52fd12f31907bcf,,,,,,,,,,,,,,,,,,,,,,,,,,,,,,,,,,,,,,,0, ,,0,1.405301925,158.1934,0,1,1,1,1,2,2,,,,,,,,,,,,,,,,,,
,5f0c002c47848351fd023d3d,627c6f5db771074e47e240c4,2022-05-11_22h23.25.692,classification_task,2021.2.3,Win32,59.75500448,627c6715c52fd12f31907bcf,,,,,,,,,,,,,,,,,,,,,,,,,,,,,,,,,,,,,,,1,  ,,0,1.135851086,160.2601,0,1,1,1,1,2,2,,,,,,,,,,,,,,,,,,
,5f0c002c47848351fd023d3d,627c6f5db771074e47e240c4,2022-05-11_22h23.25.692,classification_task,2021.2.3,Win32,59.75500448,627c6715c52fd12f31907bcf,,,,,,,,,,,,,,,,,,,,,,,,,,,,,,,,,,,,,,,2,  ,,0,2.40961274,162.5079,0,1,1,1,1,2,2,,,,,,,,,,,,,,,,,,
,5f0c002c47848351fd023d3d,627c6f5db771074e47e240c4,2022-05-11_22h23.25.692,classification_task,2021.2.3,Win32,59.75500448,627c6715c52fd12f31907bcf,,,,,,,,,,,,,,,,,,,,,,,,,,,,,,,,,,,,,,,,,,,,,0,1,1,1,1,,2,,,,,,,,,,,,,,,,,,
,5f0c002c47848351fd023d3d,627c6f5db771074e47e240c4,2022-05-11_22h23.25.692,classification_task,2021.2.3,Win32,59.75500448,627c6715c52fd12f31907bcf,,,,,,,,,,,,,,,,,,,,,space,31.7556,l,1,"[""0.372"",""0.407"",""0.663"",""0.706""]","[0,1,1,1]",0,0,0,0,1,1,1,,,0,FALSE,2.6712,,,,,,,,,,,,,,,,,,,,,,,,,,,,,,,
,5f0c002c47848351fd023d3d,627c6f5db771074e47e240c4,2022-05-11_22h23.25.692,classification_task,2021.2.3,Win32,59.75500448,627c6715c52fd12f31907bcf,,,,,,,,,,,,,,,,,,,,,,,a,0,"[""0.093"",""0.263"",""0.612"",""0.566""]","[1,1,1,0]",0,1,1,1,1,1,0,,,0,FALSE,1.7503,,,,,,,,,,,,,,,,,,,,,,,,,,,,,,,
,5f0c002c47848351fd023d3d,627c6f5db771074e47e240c4,2022-05-11_22h23.25.692,classification_task,2021.2.3,Win32,59.75500448,627c6715c52fd12f31907bcf,,,,,,,,,,,,,,,,,,,,,,,a,1,"[""0.319"",""0.464"",""0.939"",""0.564""]","[1,1,1,0]",0,2,2,2,1,0,1,,,0,FALSE,1.0155,,,,,,,,,,,,,,,,,,,,,,,,,,,,,,,
,5f0c002c47848351fd023d3d,627c6f5db771074e47e240c4,2022-05-11_22h23.25.692,classification_task,2021.2.3,Win32,59.75500448,627c6715c52fd12f31907bcf,,,,,,,,,,,,,,,,,,,,,,,l,0,"[""0.570"",""0.530"",""0.846"",""0.897""]","[0,1,1,1]",0,3,3,3,1,0,0,,,0,FALSE,1.8178,,,,,,,,,,,,,,,,,,,,,,,,,,,,,,,
,5f0c002c47848351fd023d3d,627c6f5db771074e47e240c4,2022-05-11_22h23.25.692,classification_task,2021.2.3,Win32,59.75500448,627c6715c52fd12f31907bcf,,,,,,,,,,,,,,,,,,,,,,,a,0,"[""0.093"",""0.570"",""0.612"",""0.768""]","[1,0,1,1]",0,4,4,4,1,1,0,,,0,FALSE,0.6497,,,,,,,,,,,,,,,,,,,,,,,,,,,,,,,
,5f0c002c47848351fd023d3d,627c6f5db771074e47e240c4,2022-05-11_22h23.25.692,classification_task,2021.2.3,Win32,59.75500448,627c6715c52fd12f31907bcf,,,,,,,,,,,,,,,,,,,,,,,l,0,"[""0.189"",""0.530"",""0.846"",""0.354""]","[1,1,1,0]",0,5,5,5,1,0,0,,,0,FALSE,1.2503,,,,,,,,,,,,,,,,,,,,,,,,,,,,,,,
,5f0c002c47848351fd023d3d,627c6f5db771074e47e240c4,2022-05-11_22h23.25.692,classification_task,2021.2.3,Win32,59.75500448,627c6715c52fd12f31907bcf,,,,,,,,,,,,,,,,,,,,,,,a,0,"[""0.093"",""0.263"",""0.572"",""0.768""]","[1,1,0,1]",0,6,6,6,1,1,0,,,0,FALSE,0.6998,,,,,,,,,,,,,,,,,,,,,,,,,,,,,,,
,5f0c002c47848351fd023d3d,627c6f5db771074e47e240c4,2022-05-11_22h23.25.692,classification_task,2021.2.3,Win32,59.75500448,627c6715c52fd12f31907bcf,,,,,,,,,,,,,,,,,,,,,,,a,1,"[""0.353"",""0.464"",""0.939"",""0.973""]","[0,1,1,1]",0,7,7,7,1,0,1,,,0,FALSE,0.8158,,,,,,,,,,,,,,,,,,,,,,,,,,,,,,,
,5f0c002c47848351fd023d3d,627c6f5db771074e47e240c4,2022-05-11_22h23.25.692,classification_task,2021.2.3,Win32,59.75500448,627c6715c52fd12f31907bcf,,,,,,,,,,,,,,,,,,,,,,,a,1,"[""0.189"",""0.530"",""0.038"",""0.897""]","[1,1,0,1]",0,8,8,8,1,0,0,,,0,FALSE,0.7835,,,,,,,,,,,,,,,,,,,,,,,,,,,,,,,
,5f0c002c47848351fd023d3d,627c6f5db771074e47e240c4,2022-05-11_22h23.25.692,classification_task,2021.2.3,Win32,59.75500448,627c6715c52fd12f31907bcf,,,,,,,,,,,,,,,,,,,,,,,a,1,"[""0.319"",""0.055"",""0.939"",""0.973""]","[1,0,1,1]",0,9,9,9,1,0,1,,,0,FALSE,0.8349,,,,,,,,,,,,,,,,,,,,,,,,,,,,,,,
,5f0c002c47848351fd023d3d,627c6f5db771074e47e240c4,2022-05-11_22h23.25.692,classification_task,2021.2.3,Win32,59.75500448,627c6715c52fd12f31907bcf,,,,,,,,,,,,,,,,,,,,,,,a,1,"[""0.319"",""0.464"",""0.564"",""0.973""]","[1,1,0,1]",0,10,10,10,1,0,1,,,0,FALSE,2.023,,,,,,,,,,,,,,,,,,,,,,,,,,,,,,,
,5f0c002c47848351fd023d3d,627c6f5db771074e47e240c4,2022-05-11_22h23.25.692,classification_task,2021.2.3,Win32,59.75500448,627c6715c52fd12f31907bcf,,,,,,,,,,,,,,,,,,,,,,,l,1,"[""0.153"",""0.407"",""0.663"",""0.569""]","[1,1,1,0]",0,11,11,11,1,1,1,,,0,FALSE,0.7163,,,,,,,,,,,,,,,,,,,,,,,,,,,,,,,
,5f0c002c47848351fd023d3d,627c6f5db771074e47e240c4,2022-05-11_22h23.25.692,classification_task,2021.2.3,Win32,59.75500448,627c6715c52fd12f31907bcf,,,,,,,,,,,,,,,,,,,,,,,l,0,"[""0.189"",""0.572"",""0.846"",""0.897""]","[1,0,1,1]",0,12,12,12,1,0,0,,,0,FALSE,1.1019,,,,,,,,,,,,,,,,,,,,,,,,,,,,,,,
,5f0c002c47848351fd023d3d,627c6f5db771074e47e240c4,2022-05-11_22h23.25.692,classification_task,2021.2.3,Win32,59.75500448,627c6715c52fd12f31907bcf,,,,,,,,,,,,,,,,,,,,,,,l,1,"[""0.153"",""0.407"",""0.564"",""0.706""]","[1,1,0,1]",0,13,13,13,1,1,1,,,0,FALSE,0.7985,,,,,,,,,,,,,,,,,,,,,,,,,,,,,,,
,5f0c002c47848351fd023d3d,627c6f5db771074e47e240c4,2022-05-11_22h23.25.692,classification_task,2021.2.3,Win32,59.75500448,627c6715c52fd12f31907bcf,,,,,,,,,,,,,,,,,,,,,,,l,1,"[""0.153"",""0.353"",""0.663"",""0.706""]","[1,0,1,1]",0,14,14,14,1,1,1,,,0,FALSE,1.3479,,,,,,,,,,,,,,,,,,,,,,,,,,,,,,,
,5f0c002c47848351fd023d3d,627c6f5db771074e47e240c4,2022-05-11_22h23.25.692,classification_task,2021.2.3,Win32,59.75500448,627c6715c52fd12f31907bcf,,,,,,,,,,,,,,,,,,,,,,,l,1,"[""0.371"",""0.263"",""0.612"",""0.768""]","[0,1,1,1]",0,15,15,15,1,1,0,,,0,FALSE,1.2526,,,,,,,,,,,,,,,,,,,,,,,,,,,,,,,
,5f0c002c47848351fd023d3d,627c6f5db771074e47e240c4,2022-05-11_22h23.25.692,classification_task,2021.2.3,Win32,59.75500448,627c6715c52fd12f31907bcf,,,,,,,,,,,,,,,,,,,,,,,a,1,"[""0.319"",""0.464"",""0.053"",""0.973""]","[1,1,0,1]",0,16,16,16,1,0,1,,,0,FALSE,0.6339,,,,,,,,,,,,,,,,,,,,,,,,,,,,,,,
,5f0c002c47848351fd023d3d,627c6f5db771074e47e240c4,2022-05-11_22h23.25.692,classification_task,2021.2.3,Win32,59.75500448,627c6715c52fd12f31907bcf,,,,,,,,,,,,,,,,,,,,,,,a,0,"[""0.053"",""0.407"",""0.663"",""0.706""]","[0,1,1,1]",0,17,17,17,1,1,1,,,0,FALSE,1.6999,,,,,,,,,,,,,,,,,,,,,,,,,,,,,,,
,5f0c002c47848351fd023d3d,627c6f5db771074e47e240c4,2022-05-11_22h23.25.692,classification_task,2021.2.3,Win32,59.75500448,627c6715c52fd12f31907bcf,,,,,,,,,,,,,,,,,,,,,,,a,0,"[""0.153"",""0.407"",""0.055"",""0.706""]","[1,1,0,1]",0,18,18,18,1,1,1,,,0,FALSE,1.3097,,,,,,,,,,,,,,,,,,,,,,,,,,,,,,,
,5f0c002c47848351fd023d3d,627c6f5db771074e47e240c4,2022-05-11_22h23.25.692,classification_task,2021.2.3,Win32,59.75500448,627c6715c52fd12f31907bcf,,,,,,,,,,,,,,,,,,,,,,,a,1,"[""0.811"",""0.464"",""0.939"",""0.973""]","[0,1,1,1]",0,19,19,19,1,0,1,,,0,FALSE,0.9826,,,,,,,,,,,,,,,,,,,,,,,,,,,,,,,
,5f0c002c47848351fd023d3d,627c6f5db771074e47e240c4,2022-05-11_22h23.25.692,classification_task,2021.2.3,Win32,59.75500448,627c6715c52fd12f31907bcf,,,,,,,,,,,,,,,,,,,,,,,l,1,"[""0.093"",""0.263"",""0.612"",""0.572""]","[1,1,1,0]",0,20,20,20,1,1,0,,,0,FALSE,1.7838,,,,,,,,,,,,,,,,,,,,,,,,,,,,,,,
,5f0c002c47848351fd023d3d,627c6f5db771074e47e240c4,2022-05-11_22h23.25.692,classification_task,2021.2.3,Win32,59.75500448,627c6715c52fd12f31907bcf,,,,,,,,,,,,,,,,,,,,,,,l,1,"[""0.093"",""0.354"",""0.612"",""0.768""]","[1,0,1,1]",0,21,21,21,1,1,0,,,0,FALSE,0.9237,,,,,,,,,,,,,,,,,,,,,,,,,,,,,,,
,5f0c002c47848351fd023d3d,627c6f5db771074e47e240c4,2022-05-11_22h23.25.692,classification_task,2021.2.3,Win32,59.75500448,627c6715c52fd12f31907bcf,,,,,,,,,,,,,,,,,,,,,,,l,0,"[""0.189"",""0.530"",""0.354"",""0.897""]","[1,1,0,1]",0,22,22,22,1,0,0,,,0,FALSE,0.9834,,,,,,,,,,,,,,,,,,,,,,,,,,,,,,,
,5f0c002c47848351fd023d3d,627c6f5db771074e47e240c4,2022-05-11_22h23.25.692,classification_task,2021.2.3,Win32,59.75500448,627c6715c52fd12f31907bcf,,,,,,,,,,,,,,,,,,,,,,,a,1,"[""0.372"",""0.530"",""0.846"",""0.897""]","[0,1,1,1]",0,23,23,23,1,0,0,,,0,FALSE,2.003,,,,,,,,,,,,,,,,,,,,,,,,,,,,,,,
,5f0c002c47848351fd023d3d,627c6f5db771074e47e240c4,2022-05-11_22h23.25.692,classification_task,2021.2.3,Win32,59.75500448,627c6715c52fd12f31907bcf,,,,,,,,,,,,,,,,,,,,,,,l,0,"[""0.189"",""0.530"",""0.846"",""0.353""]","[1,1,1,0]",0,24,24,24,1,0,0,,,0,FALSE,1.3182,,,,,,,,,,,,,,,,,,,,,,,,,,,,,,,
,5f0c002c47848351fd023d3d,627c6f5db771074e47e240c4,2022-05-11_22h23.25.692,classification_task,2021.2.3,Win32,59.75500448,627c6715c52fd12f31907bcf,,,,,,,,,,,,,,,,,,,,,,,a,1,"[""0.319"",""0.572"",""0.939"",""0.973""]","[1,0,1,1]",0,25,25,25,1,0,1,,,0,FALSE,0.8168,,,,,,,,,,,,,,,,,,,,,,,,,,,,,,,
,5f0c002c47848351fd023d3d,627c6f5db771074e47e240c4,2022-05-11_22h23.25.692,classification_task,2021.2.3,Win32,59.75500448,627c6715c52fd12f31907bcf,,,,,,,,,,,,,,,,,,,,,,,a,0,"[""0.093"",""0.263"",""0.028"",""0.768""]","[1,1,0,1]",0,26,26,26,1,1,0,,,0,FALSE,0.7719,,,,,,,,,,,,,,,,,,,,,,,,,,,,,,,
,5f0c002c47848351fd023d3d,627c6f5db771074e47e240c4,2022-05-11_22h23.25.692,classification_task,2021.2.3,Win32,59.75500448,627c6715c52fd12f31907bcf,,,,,,,,,,,,,,,,,,,,,,,l,0,"[""0.189"",""0.566"",""0.846"",""0.897""]","[1,0,1,1]",0,27,27,27,1,0,0,,,0,FALSE,1.7563,,,,,,,,,,,,,,,,,,,,,,,,,,,,,,,
,5f0c002c47848351fd023d3d,627c6f5db771074e47e240c4,2022-05-11_22h23.25.692,classification_task,2021.2.3,Win32,59.75500448,627c6715c52fd12f31907bcf,,,,,,,,,,,,,,,,,,,,,,,l,0,"[""0.319"",""0.464"",""0.939"",""0.371""]","[1,1,1,0]",0,28,28,28,1,0,1,,,0,FALSE,1.0486,,,,,,,,,,,,,,,,,,,,,,,,,,,,,,,
,5f0c002c47848351fd023d3d,627c6f5db771074e47e240c4,2022-05-11_22h23.25.692,classification_task,2021.2.3,Win32,59.75500448,627c6715c52fd12f31907bcf,,,,,,,,,,,,,,,,,,,,,,,l,1,"[""0.153"",""0.564"",""0.663"",""0.706""]","[1,0,1,1]",0,29,29,29,1,1,1,,,0,FALSE,1.0005,,,,,,,,,,,,,,,,,,,,,,,,,,,,,,,
,5f0c002c47848351fd023d3d,627c6f5db771074e47e240c4,2022-05-11_22h23.25.692,classification_task,2021.2.3,Win32,59.75500448,627c6715c52fd12f31907bcf,,,,,,,,,,,,,,,,,,,,,,,l,1,"[""0.053"",""0.263"",""0.612"",""0.768""]","[0,1,1,1]",0,30,30,30,1,1,0,,,0,FALSE,0.883,,,,,,,,,,,,,,,,,,,,,,,,,,,,,,,
,5f0c002c47848351fd023d3d,627c6f5db771074e47e240c4,2022-05-11_22h23.25.692,classification_task,2021.2.3,Win32,59.75500448,627c6715c52fd12f31907bcf,,,,,,,,,,,,,,,,,,,,,,,l,1,"[""0.153"",""0.407"",""0.663"",""0.372""]","[1,1,1,0]",0,31,31,31,1,1,1,,,0,FALSE,0.9892,,,,,,,,,,,,,,,,,,,,,,,,,,,,,,,
,5f0c002c47848351fd023d3d,627c6f5db771074e47e240c4,2022-05-11_22h23.25.692,classification_task,2021.2.3,Win32,59.75500448,627c6715c52fd12f31907bcf,,,,,,,,,,,,,,,,,,,,,,,l,0,"[""0.189"",""0.530"",""0.846"",""0.353""]","[1,1,1,0]",0,32,32,32,1,0,0,,,0,FALSE,1.1314,,,,,,,,,,,,,,,,,,,,,,,,,,,,,,,
,5f0c002c47848351fd023d3d,627c6f5db771074e47e240c4,2022-05-11_22h23.25.692,classification_task,2021.2.3,Win32,59.75500448,627c6715c52fd12f31907bcf,,,,,,,,,,,,,,,,,,,,,,,a,1,"[""0.189"",""0.572"",""0.846"",""0.897""]","[1,0,1,1]",0,33,33,33,1,0,0,,,0,FALSE,0.5818,,,,,,,,,,,,,,,,,,,,,,,,,,,,,,,
,5f0c002c47848351fd023d3d,627c6f5db771074e47e240c4,2022-05-11_22h23.25.692,classification_task,2021.2.3,Win32,59.75500448,627c6715c52fd12f31907bcf,,,,,,,,,,,,,,,,,,,,,,,l,0,"[""0.189"",""0.530"",""0.372"",""0.897""]","[1,1,0,1]",0,34,34,34,1,0,0,,,0,FALSE,1.7874,,,,,,,,,,,,,,,,,,,,,,,,,,,,,,,
,5f0c002c47848351fd023d3d,627c6f5db771074e47e240c4,2022-05-11_22h23.25.692,classification_task,2021.2.3,Win32,59.75500448,627c6715c52fd12f31907bcf,,,,,,,,,,,,,,,,,,,,,,,a,0,"[""0.055"",""0.263"",""0.612"",""0.768""]","[0,1,1,1]",0,35,35,35,1,1,0,,,0,FALSE,0.7833,,,,,,,,,,,,,,,,,,,,,,,,,,,,,,,
,5f0c002c47848351fd023d3d,627c6f5db771074e47e240c4,2022-05-11_22h23.25.692,classification_task,2021.2.3,Win32,59.75500448,627c6715c52fd12f31907bcf,,,,,,,,,,,,,,,,,,,,,,,a,1,"[""0.319"",""0.566"",""0.939"",""0.973""]","[1,0,1,1]",0,36,36,36,1,0,1,,,0,FALSE,0.5529,,,,,,,,,,,,,,,,,,,,,,,,,,,,,,,
,5f0c002c47848351fd023d3d,627c6f5db771074e47e240c4,2022-05-11_22h23.25.692,classification_task,2021.2.3,Win32,59.75500448,627c6715c52fd12f31907bcf,,,,,,,,,,,,,,,,,,,,,,,l,1,"[""0.371"",""0.407"",""0.663"",""0.706""]","[0,1,1,1]",0,37,37,37,1,1,1,,,0,FALSE,0.7842,,,,,,,,,,,,,,,,,,,,,,,,,,,,,,,
,5f0c002c47848351fd023d3d,627c6f5db771074e47e240c4,2022-05-11_22h23.25.692,classification_task,2021.2.3,Win32,59.75500448,627c6715c52fd12f31907bcf,,,,,,,,,,,,,,,,,,,,,,,a,0,"[""0.093"",""0.263"",""0.612"",""0.353""]","[1,1,1,0]",0,38,38,38,1,1,0,,,0,FALSE,2.0724,,,,,,,,,,,,,,,,,,,,,,,,,,,,,,,
,5f0c002c47848351fd023d3d,627c6f5db771074e47e240c4,2022-05-11_22h23.25.692,classification_task,2021.2.3,Win32,59.75500448,627c6715c52fd12f31907bcf,,,,,,,,,,,,,,,,,,,,,,,a,0,"[""0.153"",""0.407"",""0.663"",""0.354""]","[1,1,1,0]",0,39,39,39,1,1,1,,,0,FALSE,1.2374,,,,,,,,,,,,,,,,,,,,,,,,,,,,,,,
,5f0c002c47848351fd023d3d,627c6f5db771074e47e240c4,2022-05-11_22h23.25.692,classification_task,2021.2.3,Win32,59.75500448,627c6715c52fd12f31907bcf,,,,,,,,,,,,,,,,,,,,,,,a,0,"[""0.093"",""0.028"",""0.612"",""0.768""]","[1,0,1,1]",0,40,40,40,1,1,0,,,0,FALSE,0.8405,,,,,,,,,,,,,,,,,,,,,,,,,,,,,,,
,5f0c002c47848351fd023d3d,627c6f5db771074e47e240c4,2022-05-11_22h23.25.692,classification_task,2021.2.3,Win32,59.75500448,627c6715c52fd12f31907bcf,,,,,,,,,,,,,,,,,,,,,,,a,1,"[""0.353"",""0.464"",""0.939"",""0.973""]","[0,1,1,1]",0,41,41,41,1,0,1,,,0,FALSE,0.5854,,,,,,,,,,,,,,,,,,,,,,,,,,,,,,,
,5f0c002c47848351fd023d3d,627c6f5db771074e47e240c4,2022-05-11_22h23.25.692,classification_task,2021.2.3,Win32,59.75500448,627c6715c52fd12f31907bcf,,,,,,,,,,,,,,,,,,,,,,,l,1,"[""0.093"",""0.263"",""0.354"",""0.768""]","[1,1,0,1]",0,42,42,42,1,1,0,,,0,FALSE,0.6256,,,,,,,,,,,,,,,,,,,,,,,,,,,,,,,
,5f0c002c47848351fd023d3d,627c6f5db771074e47e240c4,2022-05-11_22h23.25.692,classification_task,2021.2.3,Win32,59.75500448,627c6715c52fd12f31907bcf,,,,,,,,,,,,,,,,,,,,,,,a,1,"[""0.319"",""0.464"",""0.572"",""0.973""]","[1,1,0,1]",0,43,43,43,1,0,1,,,0,FALSE,1.0045,,,,,,,,,,,,,,,,,,,,,,,,,,,,,,,
,5f0c002c47848351fd023d3d,627c6f5db771074e47e240c4,2022-05-11_22h23.25.692,classification_task,2021.2.3,Win32,59.75500448,627c6715c52fd12f31907bcf,,,,,,,,,,,,,,,,,,,,,,,a,1,"[""0.319"",""0.464"",""0.939"",""0.569""]","[1,1,1,0]",0,44,44,44,1,0,1,,,0,FALSE,0.6855,,,,,,,,,,,,,,,,,,,,,,,,,,,,,,,
,5f0c002c47848351fd023d3d,627c6f5db771074e47e240c4,2022-05-11_22h23.25.692,classification_task,2021.2.3,Win32,59.75500448,627c6715c52fd12f31907bcf,,,,,,,,,,,,,,,,,,,,,,,a,0,"[""0.153"",""0.407"",""0.053"",""0.706""]","[1,1,0,1]",0,45,45,45,1,1,1,,,0,FALSE,1.5145,,,,,,,,,,,,,,,,,,,,,,,,,,,,,,,
,5f0c002c47848351fd023d3d,627c6f5db771074e47e240c4,2022-05-11_22h23.25.692,classification_task,2021.2.3,Win32,59.75500448,627c6715c52fd12f31907bcf,,,,,,,,,,,,,,,,,,,,,,,a,1,"[""0.053"",""0.530"",""0.846"",""0.897""]","[0,1,1,1]",0,46,46,46,1,0,0,,,0,FALSE,3.5738,,,,,,,,,,,,,,,,,,,,,,,,,,,,,,,
,5f0c002c47848351fd023d3d,627c6f5db771074e47e240c4,2022-05-11_22h23.25.692,classification_task,2021.2.3,Win32,59.75500448,627c6715c52fd12f31907bcf,,,,,,,,,,,,,,,,,,,,,,,l,1,"[""0.153"",""0.808"",""0.663"",""0.706""]","[1,0,1,1]",0,47,47,47,1,1,1,,,0,FALSE,0.7252,,,,,,,,,,,,,,,,,,,,,,,,,,,,,,,
,5f0c002c47848351fd023d3d,627c6f5db771074e47e240c4,2022-05-11_22h23.25.692,classification_task,2021.2.3,Win32,59.75500448,627c6715c52fd12f31907bcf,,,,,,,,,,,,,,,,,,,,,,,l,0,"[""0.319"",""0.464"",""0.939"",""0.053""]","[1,1,1,0]",0,48,48,48,1,0,1,,,0,FALSE,1.1007,,,,,,,,,,,,,,,,,,,,,,,,,,,,,,,
,5f0c002c47848351fd023d3d,627c6f5db771074e47e240c4,2022-05-11_22h23.25.692,classification_task,2021.2.3,Win32,59.75500448,627c6715c52fd12f31907bcf,,,,,,,,,,,,,,,,,,,,,,,l,1,"[""0.153"",""0.407"",""0.811"",""0.706""]","[1,1,0,1]",0,49,49,49,1,1,1,,,0,FALSE,1.0828,,,,,,,,,,,,,,,,,,,,,,,,,,,,,,,
,5f0c002c47848351fd023d3d,627c6f5db771074e47e240c4,2022-05-11_22h23.25.692,classification_task,2021.2.3,Win32,59.75500448,627c6715c52fd12f31907bcf,,,,,,,,,,,,,,,,,,,,,,,a,1,"[""0.189"",""0.570"",""0.846"",""0.897""]","[1,0,1,1]",0,50,50,50,1,0,0,,,0,FALSE,1.1855,,,,,,,,,,,,,,,,,,,,,,,,,,,,,,,
,5f0c002c47848351fd023d3d,627c6f5db771074e47e240c4,2022-05-11_22h23.25.692,classification_task,2021.2.3,Win32,59.75500448,627c6715c52fd12f31907bcf,,,,,,,,,,,,,,,,,,,,,,,l,1,"[""0.093"",""0.263"",""0.372"",""0.768""]","[1,1,0,1]",0,51,51,51,1,1,0,,,0,FALSE,2.9403,,,,,,,,,,,,,,,,,,,,,,,,,,,,,,,
,5f0c002c47848351fd023d3d,627c6f5db771074e47e240c4,2022-05-11_22h23.25.692,classification_task,2021.2.3,Win32,59.75500448,627c6715c52fd12f31907bcf,,,,,,,,,,,,,,,,,,,,,,,a,1,"[""0.038"",""0.464"",""0.939"",""0.973""]","[0,1,1,1]",0,52,52,52,1,0,1,,,0,FALSE,0.9661,,,,,,,,,,,,,,,,,,,,,,,,,,,,,,,
,5f0c002c47848351fd023d3d,627c6f5db771074e47e240c4,2022-05-11_22h23.25.692,classification_task,2021.2.3,Win32,59.75500448,627c6715c52fd12f31907bcf,,,,,,,,,,,,,,,,,,,,,,,l,0,"[""0.189"",""0.530"",""0.846"",""0.566""]","[1,1,1,0]",0,53,53,53,1,0,0,,,0,FALSE,1.0328,,,,,,,,,,,,,,,,,,,,,,,,,,,,,,,
,5f0c002c47848351fd023d3d,627c6f5db771074e47e240c4,2022-05-11_22h23.25.692,classification_task,2021.2.3,Win32,59.75500448,627c6715c52fd12f31907bcf,,,,,,,,,,,,,,,,,,,,,,,a,0,"[""0.028"",""0.263"",""0.612"",""0.768""]","[0,1,1,1]",0,54,54,54,1,1,0,,,0,FALSE,1.337,,,,,,,,,,,,,,,,,,,,,,,,,,,,,,,
,5f0c002c47848351fd023d3d,627c6f5db771074e47e240c4,2022-05-11_22h23.25.692,classification_task,2021.2.3,Win32,59.75500448,627c6715c52fd12f31907bcf,,,,,,,,,,,,,,,,,,,,,,,l,1,"[""0.093"",""0.373"",""0.612"",""0.768""]","[1,0,1,1]",0,55,55,55,1,1,0,,,0,FALSE,1.3929,,,,,,,,,,,,,,,,,,,,,,,,,,,,,,,
,5f0c002c47848351fd023d3d,627c6f5db771074e47e240c4,2022-05-11_22h23.25.692,classification_task,2021.2.3,Win32,59.75500448,627c6715c52fd12f31907bcf,,,,,,,,,,,,,,,,,,,,,,,l,0,"[""0.189"",""0.530"",""0.566"",""0.897""]","[1,1,0,1]",0,56,56,56,1,0,0,,,0,FALSE,1.9005,,,,,,,,,,,,,,,,,,,,,,,,,,,,,,,
,5f0c002c47848351fd023d3d,627c6f5db771074e47e240c4,2022-05-11_22h23.25.692,classification_task,2021.2.3,Win32,59.75500448,627c6715c52fd12f31907bcf,,,,,,,,,,,,,,,,,,,,,,,l,1,"[""0.153"",""0.808"",""0.663"",""0.706""]","[1,0,1,1]",0,57,57,57,1,1,1,,,0,FALSE,1.3558,,,,,,,,,,,,,,,,,,,,,,,,,,,,,,,
,5f0c002c47848351fd023d3d,627c6f5db771074e47e240c4,2022-05-11_22h23.25.692,classification_task,2021.2.3,Win32,59.75500448,627c6715c52fd12f31907bcf,,,,,,,,,,,,,,,,,,,,,,,l,0,"[""0.371"",""0.530"",""0.846"",""0.897""]","[0,1,1,1]",0,58,58,58,1,0,0,,,0,FALSE,2.3172,,,,,,,,,,,,,,,,,,,,,,,,,,,,,,,
,5f0c002c47848351fd023d3d,627c6f5db771074e47e240c4,2022-05-11_22h23.25.692,classification_task,2021.2.3,Win32,59.75500448,627c6715c52fd12f31907bcf,,,,,,,,,,,,,,,,,,,,,,,l,1,"[""0.153"",""0.407"",""0.663"",""0.811""]","[1,1,1,0]",0,59,59,59,1,1,1,,,0,FALSE,1.2999,,,,,,,,,,,,,,,,,,,,,,,,,,,,,,,
,5f0c002c47848351fd023d3d,627c6f5db771074e47e240c4,2022-05-11_22h23.25.692,classification_task,2021.2.3,Win32,59.75500448,627c6715c52fd12f31907bcf,,,,,,,,,,,,,,,,,,,,,,,l,1,"[""0.353"",""0.407"",""0.663"",""0.706""]","[0,1,1,1]",0,60,60,60,1,1,1,,,0,FALSE,1.1332,,,,,,,,,,,,,,,,,,,,,,,,,,,,,,,
,5f0c002c47848351fd023d3d,627c6f5db771074e47e240c4,2022-05-11_22h23.25.692,classification_task,2021.2.3,Win32,59.75500448,627c6715c52fd12f31907bcf,,,,,,,,,,,,,,,,,,,,,,,a,1,"[""0.319"",""0.038"",""0.939"",""0.973""]","[1,0,1,1]",0,61,61,61,1,0,1,,,0,FALSE,1.6213,,,,,,,,,,,,,,,,,,,,,,,,,,,,,,,
,5f0c002c47848351fd023d3d,627c6f5db771074e47e240c4,2022-05-11_22h23.25.692,classification_task,2021.2.3,Win32,59.75500448,627c6715c52fd12f31907bcf,,,,,,,,,,,,,,,,,,,,,,,l,0,"[""0.319"",""0.464"",""0.053"",""0.973""]","[1,1,0,1]",0,62,62,62,1,0,1,,,0,FALSE,1.0993,,,,,,,,,,,,,,,,,,,,,,,,,,,,,,,
,5f0c002c47848351fd023d3d,627c6f5db771074e47e240c4,2022-05-11_22h23.25.692,classification_task,2021.2.3,Win32,59.75500448,627c6715c52fd12f31907bcf,,,,,,,,,,,,,,,,,,,,,,,a,0,"[""0.093"",""0.263"",""0.612"",""0.055""]","[1,1,1,0]",0,63,63,63,1,1,0,,,0,FALSE,1.0166,,,,,,,,,,,,,,,,,,,,,,,,,,,,,,,
,5f0c002c47848351fd023d3d,627c6f5db771074e47e240c4,2022-05-11_22h23.25.692,classification_task,2021.2.3,Win32,59.75500448,627c6715c52fd12f31907bcf,,,,,,,,,,,,,,,,,,,,,,,,,,,,,,,,,,,,,,,0, ,,0,0.939889049,183.166,0,2,2,2,1,2,3,,,,,,,,,,,,,,,,,,
,5f0c002c47848351fd023d3d,627c6f5db771074e47e240c4,2022-05-11_22h23.25.692,classification_task,2021.2.3,Win32,59.75500448,627c6715c52fd12f31907bcf,,,,,,,,,,,,,,,,,,,,,,,,,,,,,,,,,,,,,,,1,  ,,0,7.063737765,190.998,0,2,2,2,1,2,3,,,,,,,,,,,,,,,,,,
,5f0c002c47848351fd023d3d,627c6f5db771074e47e240c4,2022-05-11_22h23.25.692,classification_task,2021.2.3,Win32,59.75500448,627c6715c52fd12f31907bcf,,,,,,,,,,,,,,,,,,,,,,,,,,,,,,,,,,,,,,,2,  ,,0,9.17034135,196.5465,0,2,2,2,1,2,3,,,,,,,,,,,,,,,,,,
,5f0c002c47848351fd023d3d,627c6f5db771074e47e240c4,2022-05-11_22h23.25.692,classification_task,2021.2.3,Win32,59.75500448,627c6715c52fd12f31907bcf,,,,,,,,,,,,,,,,,,,,,,,,,,,,,,,,,,,,,,,,,,,,,0,2,2,2,1,,3,,,,,,,,,,,,,,,,,,
,5f0c002c47848351fd023d3d,627c6f5db771074e47e240c4,2022-05-11_22h23.25.692,classification_task,2021.2.3,Win32,59.75500448,627c6715c52fd12f31907bcf,,,,,,,,,,,,,,,,,,,,,,,,,,,,,,,,,,,,,,,,,,,,,,,,,,,,,I believe the aid is a competent performer,,0.7,0,5,1035.2178,0,0,0,0,1,0,,,,,
,5f0c002c47848351fd023d3d,627c6f5db771074e47e240c4,2022-05-11_22h23.25.692,classification_task,2021.2.3,Win32,59.75500448,627c6715c52fd12f31907bcf,,,,,,,,,,,,,,,,,,,,,,,,,,,,,,,,,,,,,,,,,,,,,,,,,,,,,I trust the aid,,0.7,0,5,1035.9819,0,0,0,0,1,0,,,,,
,5f0c002c47848351fd023d3d,627c6f5db771074e47e240c4,2022-05-11_22h23.25.692,classification_task,2021.2.3,Win32,59.75500448,627c6715c52fd12f31907bcf,,,,,,,,,,,,,,,,,,,,,,,,,,,,,,,,,,,,,,,,,,,,,,,,,,,,,I have confidence in the advice given by the aid,,0.7,0,5,1037.4076,0,0,0,0,1,0,,,,,
,5f0c002c47848351fd023d3d,627c6f5db771074e47e240c4,2022-05-11_22h23.25.692,classification_task,2021.2.3,Win32,59.75500448,627c6715c52fd12f31907bcf,,,,,,,,,,,,,,,,,,,,,,,,,,,,,,,,,,,,,,,,,,,,,,,,,,,,,I can depend on the aid,,0.7,0,5,1038.8197,0,0,0,0,1,0,,,,,
,5f0c002c47848351fd023d3d,627c6f5db771074e47e240c4,2022-05-11_22h23.25.692,classification_task,2021.2.3,Win32,59.75500448,627c6715c52fd12f31907bcf,,,,,,,,,,,,,,,,,,,,,,,,,,,,,,,,,,,,,,,,,,,,,,,,,,,,,I can rely on the aid to behave in consistent ways,,0.7,0,5,1040.4647,0,0,0,0,1,0,,,,,
,5f0c002c47848351fd023d3d,627c6f5db771074e47e240c4,2022-05-11_22h23.25.692,classification_task,2021.2.3,Win32,59.75500448,627c6715c52fd12f31907bcf,,,,,,,,,,,,,,,,,,,,,,,,,,,,,,,,,,,,,,,,,,,,,,,,,,,,,I can rely on the aid to do its best every time I take its advice,,0.7,0,5,1047.4986,0,0,0,0,1,0,,,,,
,5f0c002c47848351fd023d3d,627c6f5db771074e47e240c4,2022-05-11_22h23.25.692,classification_task,2021.2.3,Win32,59.75500448,627c6715c52fd12f31907bcf,,,,,,,,,,,,,,,,,,,,,,,,,,,,,,,,,,,,,,,,,,,,,,,,,,,,,"On trials you completed with assistance from the aid, how frequently did you think the aid was correct?",,0.7,0,100%,,0,0,0,0,1,0,,,,,
,5f0c002c47848351fd023d3d,627c6f5db771074e47e240c4,2022-05-11_22h23.25.692,classification_task,2021.2.3,Win32,59.75500448,627c6715c52fd12f31907bcf,,,,,,,,,,,,,,,,,,,,,,,,,,,,,,,,,,,,,,,,,,,,,,,,,,,,,"On trials you completed without the aid, how frequently did you think you were correct?",,0.7,0,40%,,0,0,0,0,1,0,,,,,
,5f0c002c47848351fd023d3d,627c6f5db771074e47e240c4,2022-05-11_22h23.25.692,classification_task,2021.2.3,Win32,59.75500448,627c6715c52fd12f31907bcf,,,,,,,,,,,,,,,,,,,,,,,,,,,,,,,,,,,,,,,,,,,,,,,,,,,,,,,,,,,0,0,0,0,1,,,,,,
,5f0c002c47848351fd023d3d,627c6f5db771074e47e240c4,2022-05-11_22h23.25.692,classification_task,2021.2.3,Win32,59.75500448,627c6715c52fd12f31907bcf,,,,,,,,,,,,,,,,,,,,,,,,,,,,,,,,,,,,,,,,,,,,,,,,,,,,,,,,,,,,,,,,,space,22.7235,1099.7366,,
,5f0c002c47848351fd023d3d,627c6f5db771074e47e240c4,2022-05-11_22h23.25.692,classification_task,2021.2.3,Win32,59.75500448,627c6715c52fd12f31907bcf,,,,,,,,,,,,,,,,,,,,,,,,,,,,,,,,,,,,,,,,,,,,,,,,,,,,,,,,,,,,,,,,,,,,"Mozilla/5.0 (Windows NT 10.0; Win64; x64) AppleWebKit/537.36 (KHTML, like Gecko) Chrome/101.0.4951.64 Safari/537.36",
,5f0c002c47848351fd023d3d,627c6f5db771074e47e240c4,2022-05-11_22h23.25.692,classification_task,2021.2.3,Win32,59.75500448,627c6715c52fd12f31907bcf,,,,,,,,,,,,,,,,,,,,,,,,,,,,,,,,,,,,,,,,,,,,,,,,,,,,,,,,,,,,,,,,,,,,,FADING
