usingWebGL,participant,session,date,expName,psychopyVersion,OS,frameRate,study_id,fbclid,signatures_friend,signatures_foe,band_ranges_top,band_ranges_bottom,formitemText,formtype,formundefined,formitemWidth,formindex,formresponse,formrt,key_resp_2.keys,key_resp_2.rt,tute_resp.keys,tute_resp.rt,tutorial.thisRepN,tutorial.thisTrialN,tutorial.thisN,tutorial.thisIndex,tutorial.ran,key_resp_4.keys,key_resp_4.rt,key_resp.keys,key_resp.corr,key_resp.rt,lines_presented,is_signal_presented,trials.thisRepN,trials.thisTrialN,trials.thisN,trials.thisIndex,trials.ran,vessel,active_band,lines,is_signal,supported_pos,catch_trial,debrief_formindex,debrief_formitemText,debrief_formtype,debrief_formitemWidth,debrief_formresponse,debrief_formrt,phases.thisRepN,phases.thisTrialN,phases.thisN,phases.thisIndex,phases.ran,phases.order,phase,key_resp_3.keys,trustitemText,trusttype,trustitemWidth,trustindex,trustresponse,trustrt,support_status.thisRepN,support_status.thisTrialN,support_status.thisN,support_status.thisIndex,support_status.ran,support_status.order,key_resp_5.keys,key_resp_5.rt,globalClockTime,userAgent,manualCondition
TRUE,5f1b26dbd5dc042c9aedb7a4,627c6f73986a5daaea217e24,2022-05-12_04h24.30.882,classification_task,2021.2.3,Linux x86_64,60.0240096,627c6715c52fd12f31907bcf,IwAR2HEi3r7XBa59ZzBcJLB7ilHWTCbLLOEnevQh77NKOYGdbTYyjltkCW8P8,,,,,,,,,,,,,,,,,,,,,,,,,,,,,,,,,,,,,,,,,,,,,,,,,,,,,,,,,,,,,,,,,,,,,
,5f1b26dbd5dc042c9aedb7a4,627c6f73986a5daaea217e24,2022-05-12_04h24.30.882,classification_task,2021.2.3,Linux x86_64,60.0240096,627c6715c52fd12f31907bcf,IwAR2HEi3r7XBa59ZzBcJLB7ilHWTCbLLOEnevQh77NKOYGdbTYyjltkCW8P8,"[[""0.174"",""0.519"",""0.780"",""0.878""],[""0.272"",""0.346"",""0.921"",""0.963""]]","[[""0.111"",""0.307"",""0.457"",""0.734""],[""0.069"",""0.411"",""0.574"",""0.689""]]","[1,10]","[100,1000]",Video game experience,,,0.7,0,,,,,,,,,,,,,,,,,,,,,,,,,,,,,,,,,,,,,,,,,,,,,,,,,,,,,,,,,,,,
,5f1b26dbd5dc042c9aedb7a4,627c6f73986a5daaea217e24,2022-05-12_04h24.30.882,classification_task,2021.2.3,Linux x86_64,60.0240096,627c6715c52fd12f31907bcf,IwAR2HEi3r7XBa59ZzBcJLB7ilHWTCbLLOEnevQh77NKOYGdbTYyjltkCW8P8,,,,,Approximately how many hours did you spend playing video games in the last week?,,,0.7,0,2,,,,,,,,,,,,,,,,,,,,,,,,,,,,,,,,,,,,,,,,,,,,,,,,,,,,,,,,,,,
,5f1b26dbd5dc042c9aedb7a4,627c6f73986a5daaea217e24,2022-05-12_04h24.30.882,classification_task,2021.2.3,Linux x86_64,60.0240096,627c6715c52fd12f31907bcf,IwAR2HEi3r7XBa59ZzBcJLB7ilHWTCbLLOEnevQh77NKOYGdbTYyjltkCW8P8,,,,,"Which game did you play the most this year? (Enter ""None"" if you didn't play any)",,,0.7,0,Sekiro,,,,,,,,,,,,,,,,,,,,,,,,,,,,,,,,,,,,,,,,,,,,,,,,,,,,,,,,,,,
,5f1b26dbd5dc042c9aedb7a4,627c6f73986a5daaea217e24,2022-05-12_04h24.30.882,classification_task,2021.2.3,Linux x86_64,60.0240096,627c6715c52fd12f31907bcf,IwAR2HEi3r7XBa59ZzBcJLB7ilHWTCbLLOEnevQh77NKOYGdbTYyjltkCW8P8,,,,,Visual perception,,,0.7,0,,,,,,,,,,,,,,,,,,,,,,,,,,,,,,,,,,,,,,,,,,,,,,,,,,,,,,,,,,,,
,5f1b26dbd5dc042c9aedb7a4,627c6f73986a5daaea217e24,2022-05-12_04h24.30.882,classification_task,2021.2.3,Linux x86_64,60.0240096,627c6715c52fd12f31907bcf,IwAR2HEi3r7XBa59ZzBcJLB7ilHWTCbLLOEnevQh77NKOYGdbTYyjltkCW8P8,,,,,Do you have any form of color blindness?,,,0.7,0,No,24.462,,,,,,,,,,,,,,,,,,,,,,,,,,,,,,,,,,,,,,,,,,,,,,,,,,,,,,,,,,
,5f1b26dbd5dc042c9aedb7a4,627c6f73986a5daaea217e24,2022-05-12_04h24.30.882,classification_task,2021.2.3,Linux x86_64,60.0240096,627c6715c52fd12f31907bcf,IwAR2HEi3r7XBa59ZzBcJLB7ilHWTCbLLOEnevQh77NKOYGdbTYyjltkCW8P8,,,,,Do you use software to change the colour temperature of your screen (e.g. f.lux)?,,,0.7,0,Yes,28.49,,,,,,,,,,,,,,,,,,,,,,,,,,,,,,,,,,,,,,,,,,,,,,,,,,,,,,,,,,
,5f1b26dbd5dc042c9aedb7a4,627c6f73986a5daaea217e24,2022-05-12_04h24.30.882,classification_task,2021.2.3,Linux x86_64,60.0240096,627c6715c52fd12f31907bcf,IwAR2HEi3r7XBa59ZzBcJLB7ilHWTCbLLOEnevQh77NKOYGdbTYyjltkCW8P8,,,,,,,,,,,,space,30.173,space,6.793,0,0,0,0,1,,,,,,,,,,,,,,,,,,,,,,,,,,,,,,,,,,,,,,,,,,,,,,,,,
,5f1b26dbd5dc042c9aedb7a4,627c6f73986a5daaea217e24,2022-05-12_04h24.30.882,classification_task,2021.2.3,Linux x86_64,60.0240096,627c6715c52fd12f31907bcf,IwAR2HEi3r7XBa59ZzBcJLB7ilHWTCbLLOEnevQh77NKOYGdbTYyjltkCW8P8,,,,,,,,,,,,,,space,6.536,1,0,1,0,1,,,,,,,,,,,,,,,,,,,,,,,,,,,,,,,,,,,,,,,,,,,,,,,,,
,5f1b26dbd5dc042c9aedb7a4,627c6f73986a5daaea217e24,2022-05-12_04h24.30.882,classification_task,2021.2.3,Linux x86_64,60.0240096,627c6715c52fd12f31907bcf,IwAR2HEi3r7XBa59ZzBcJLB7ilHWTCbLLOEnevQh77NKOYGdbTYyjltkCW8P8,,,,,,,,,,,,,,space,29.891,2,0,2,0,1,,,,,,,,,,,,,,,,,,,,,,,,,,,,,,,,,,,,,,,,,,,,,,,,,
,5f1b26dbd5dc042c9aedb7a4,627c6f73986a5daaea217e24,2022-05-12_04h24.30.882,classification_task,2021.2.3,Linux x86_64,60.0240096,627c6715c52fd12f31907bcf,IwAR2HEi3r7XBa59ZzBcJLB7ilHWTCbLLOEnevQh77NKOYGdbTYyjltkCW8P8,,,,,,,,,,,,,,space,5.289,3,0,3,0,1,,,,,,,,,,,,,,,,,,,,,,,,,,,,,,,,,,,,,,,,,,,,,,,,,
,5f1b26dbd5dc042c9aedb7a4,627c6f73986a5daaea217e24,2022-05-12_04h24.30.882,classification_task,2021.2.3,Linux x86_64,60.0240096,627c6715c52fd12f31907bcf,IwAR2HEi3r7XBa59ZzBcJLB7ilHWTCbLLOEnevQh77NKOYGdbTYyjltkCW8P8,,,,,,,,,,,,,,space,6.035,4,0,4,0,1,,,,,,,,,,,,,,,,,,,,,,,,,,,,,,,,,,,,,,,,,,,,,,,,,
,5f1b26dbd5dc042c9aedb7a4,627c6f73986a5daaea217e24,2022-05-12_04h24.30.882,classification_task,2021.2.3,Linux x86_64,60.0240096,627c6715c52fd12f31907bcf,IwAR2HEi3r7XBa59ZzBcJLB7ilHWTCbLLOEnevQh77NKOYGdbTYyjltkCW8P8,,,,,,,,,,,,,,,,,,,,,space,1.882,a,1,4.717,"[""0.174"",""0.519"",""0.610"",""0.878""]","[1,1,0,1]",0,0,0,0,1,0,0,,,0,FALSE,,,,,,,,,,,,,,,,,,,,,,,,,,,,,,,
,5f1b26dbd5dc042c9aedb7a4,627c6f73986a5daaea217e24,2022-05-12_04h24.30.882,classification_task,2021.2.3,Linux x86_64,60.0240096,627c6715c52fd12f31907bcf,IwAR2HEi3r7XBa59ZzBcJLB7ilHWTCbLLOEnevQh77NKOYGdbTYyjltkCW8P8,,,,,,,,,,,,,,,,,,,,,,,l,1,4.334,"[""0.840"",""0.411"",""0.574"",""0.689""]","[0,1,1,1]",0,1,1,1,1,1,1,,,0,FALSE,,,,,,,,,,,,,,,,,,,,,,,,,,,,,,,
,5f1b26dbd5dc042c9aedb7a4,627c6f73986a5daaea217e24,2022-05-12_04h24.30.882,classification_task,2021.2.3,Linux x86_64,60.0240096,627c6715c52fd12f31907bcf,IwAR2HEi3r7XBa59ZzBcJLB7ilHWTCbLLOEnevQh77NKOYGdbTYyjltkCW8P8,,,,,,,,,,,,,,,,,,,,,,,a,1,3.965,"[""0.272"",""0.840"",""0.921"",""0.963""]","[1,0,1,1]",0,2,2,2,1,0,1,,,0,FALSE,,,,,,,,,,,,,,,,,,,,,,,,,,,,,,,
,5f1b26dbd5dc042c9aedb7a4,627c6f73986a5daaea217e24,2022-05-12_04h24.30.882,classification_task,2021.2.3,Linux x86_64,60.0240096,627c6715c52fd12f31907bcf,IwAR2HEi3r7XBa59ZzBcJLB7ilHWTCbLLOEnevQh77NKOYGdbTYyjltkCW8P8,,,,,,,,,,,,,,,,,,,,,,,l,1,2.626,"[""0.111"",""0.610"",""0.457"",""0.734""]","[1,0,1,1]",0,3,3,3,1,1,0,,,0,FALSE,,,,,,,,,,,,,,,,,,,,,,,,,,,,,,,
,5f1b26dbd5dc042c9aedb7a4,627c6f73986a5daaea217e24,2022-05-12_04h24.30.882,classification_task,2021.2.3,Linux x86_64,60.0240096,627c6715c52fd12f31907bcf,IwAR2HEi3r7XBa59ZzBcJLB7ilHWTCbLLOEnevQh77NKOYGdbTYyjltkCW8P8,,,,,,,,,,,,,,,,,,,,,,,l,1,1.919,"[""0.069"",""0.411"",""0.574"",""0.609""]","[1,1,1,0]",0,4,4,4,1,1,1,,,0,FALSE,,,,,,,,,,,,,,,,,,,,,,,,,,,,,,,
,5f1b26dbd5dc042c9aedb7a4,627c6f73986a5daaea217e24,2022-05-12_04h24.30.882,classification_task,2021.2.3,Linux x86_64,60.0240096,627c6715c52fd12f31907bcf,IwAR2HEi3r7XBa59ZzBcJLB7ilHWTCbLLOEnevQh77NKOYGdbTYyjltkCW8P8,,,,,,,,,,,,,,,,,,,,,,,l,1,2.266,"[""0.111"",""0.307"",""0.457"",""0.233""]","[1,1,1,0]",0,5,5,5,1,1,0,,,0,FALSE,,,,,,,,,,,,,,,,,,,,,,,,,,,,,,,
,5f1b26dbd5dc042c9aedb7a4,627c6f73986a5daaea217e24,2022-05-12_04h24.30.882,classification_task,2021.2.3,Linux x86_64,60.0240096,627c6715c52fd12f31907bcf,IwAR2HEi3r7XBa59ZzBcJLB7ilHWTCbLLOEnevQh77NKOYGdbTYyjltkCW8P8,,,,,,,,,,,,,,,,,,,,,,,a,1,4.176,"[""0.272"",""0.346"",""0.921"",""0.610""]","[1,1,1,0]",0,6,6,6,1,0,1,,,0,FALSE,,,,,,,,,,,,,,,,,,,,,,,,,,,,,,,
,5f1b26dbd5dc042c9aedb7a4,627c6f73986a5daaea217e24,2022-05-12_04h24.30.882,classification_task,2021.2.3,Linux x86_64,60.0240096,627c6715c52fd12f31907bcf,IwAR2HEi3r7XBa59ZzBcJLB7ilHWTCbLLOEnevQh77NKOYGdbTYyjltkCW8P8,,,,,,,,,,,,,,,,,,,,,,,l,1,1.828,"[""0.069"",""0.411"",""0.235"",""0.689""]","[1,1,0,1]",0,7,7,7,1,1,1,,,0,FALSE,,,,,,,,,,,,,,,,,,,,,,,,,,,,,,,
,5f1b26dbd5dc042c9aedb7a4,627c6f73986a5daaea217e24,2022-05-12_04h24.30.882,classification_task,2021.2.3,Linux x86_64,60.0240096,627c6715c52fd12f31907bcf,IwAR2HEi3r7XBa59ZzBcJLB7ilHWTCbLLOEnevQh77NKOYGdbTYyjltkCW8P8,,,,,,,,,,,,,,,,,,,,,,,l,1,1.654,"[""0.652"",""0.307"",""0.457"",""0.734""]","[0,1,1,1]",0,8,8,8,1,1,0,,,0,FALSE,,,,,,,,,,,,,,,,,,,,,,,,,,,,,,,
,5f1b26dbd5dc042c9aedb7a4,627c6f73986a5daaea217e24,2022-05-12_04h24.30.882,classification_task,2021.2.3,Linux x86_64,60.0240096,627c6715c52fd12f31907bcf,IwAR2HEi3r7XBa59ZzBcJLB7ilHWTCbLLOEnevQh77NKOYGdbTYyjltkCW8P8,,,,,,,,,,,,,,,,,,,,,,,l,1,3.046,"[""0.069"",""0.644"",""0.574"",""0.689""]","[1,0,1,1]",0,9,9,9,1,1,1,,,0,FALSE,,,,,,,,,,,,,,,,,,,,,,,,,,,,,,,
,5f1b26dbd5dc042c9aedb7a4,627c6f73986a5daaea217e24,2022-05-12_04h24.30.882,classification_task,2021.2.3,Linux x86_64,60.0240096,627c6715c52fd12f31907bcf,IwAR2HEi3r7XBa59ZzBcJLB7ilHWTCbLLOEnevQh77NKOYGdbTYyjltkCW8P8,,,,,,,,,,,,,,,,,,,,,,,l,1,2.569,"[""0.111"",""0.307"",""0.652"",""0.734""]","[1,1,0,1]",0,10,10,10,1,1,0,,,0,FALSE,,,,,,,,,,,,,,,,,,,,,,,,,,,,,,,
,5f1b26dbd5dc042c9aedb7a4,627c6f73986a5daaea217e24,2022-05-12_04h24.30.882,classification_task,2021.2.3,Linux x86_64,60.0240096,627c6715c52fd12f31907bcf,IwAR2HEi3r7XBa59ZzBcJLB7ilHWTCbLLOEnevQh77NKOYGdbTYyjltkCW8P8,,,,,,,,,,,,,,,,,,,,,,,a,1,2.853,"[""0.174"",""0.519"",""0.780"",""0.632""]","[1,1,1,0]",0,11,11,11,1,0,0,,,0,FALSE,,,,,,,,,,,,,,,,,,,,,,,,,,,,,,,
,5f1b26dbd5dc042c9aedb7a4,627c6f73986a5daaea217e24,2022-05-12_04h24.30.882,classification_task,2021.2.3,Linux x86_64,60.0240096,627c6715c52fd12f31907bcf,IwAR2HEi3r7XBa59ZzBcJLB7ilHWTCbLLOEnevQh77NKOYGdbTYyjltkCW8P8,,,,,,,,,,,,,,,,,,,,,,,a,1,6.041,"[""0.840"",""0.519"",""0.780"",""0.878""]","[0,1,1,1]",0,12,12,12,1,0,0,,,0,FALSE,,,,,,,,,,,,,,,,,,,,,,,,,,,,,,,
,5f1b26dbd5dc042c9aedb7a4,627c6f73986a5daaea217e24,2022-05-12_04h24.30.882,classification_task,2021.2.3,Linux x86_64,60.0240096,627c6715c52fd12f31907bcf,IwAR2HEi3r7XBa59ZzBcJLB7ilHWTCbLLOEnevQh77NKOYGdbTYyjltkCW8P8,,,,,,,,,,,,,,,,,,,,,,,a,1,5.32,"[""0.229"",""0.346"",""0.921"",""0.963""]","[0,1,1,1]",0,13,13,13,1,0,1,,,0,FALSE,,,,,,,,,,,,,,,,,,,,,,,,,,,,,,,
,5f1b26dbd5dc042c9aedb7a4,627c6f73986a5daaea217e24,2022-05-12_04h24.30.882,classification_task,2021.2.3,Linux x86_64,60.0240096,627c6715c52fd12f31907bcf,IwAR2HEi3r7XBa59ZzBcJLB7ilHWTCbLLOEnevQh77NKOYGdbTYyjltkCW8P8,,,,,,,,,,,,,,,,,,,,,,,a,1,4.153,"[""0.174"",""0.638"",""0.780"",""0.878""]","[1,0,1,1]",0,14,14,14,1,0,0,,,0,FALSE,,,,,,,,,,,,,,,,,,,,,,,,,,,,,,,
,5f1b26dbd5dc042c9aedb7a4,627c6f73986a5daaea217e24,2022-05-12_04h24.30.882,classification_task,2021.2.3,Linux x86_64,60.0240096,627c6715c52fd12f31907bcf,IwAR2HEi3r7XBa59ZzBcJLB7ilHWTCbLLOEnevQh77NKOYGdbTYyjltkCW8P8,,,,,,,,,,,,,,,,,,,,,,,a,1,5.897,"[""0.272"",""0.346"",""0.229"",""0.963""]","[1,1,0,1]",0,15,15,15,1,0,1,,,0,FALSE,,,,,,,,,,,,,,,,,,,,,,,,,,,,,,,
,5f1b26dbd5dc042c9aedb7a4,627c6f73986a5daaea217e24,2022-05-12_04h24.30.882,classification_task,2021.2.3,Linux x86_64,60.0240096,627c6715c52fd12f31907bcf,IwAR2HEi3r7XBa59ZzBcJLB7ilHWTCbLLOEnevQh77NKOYGdbTYyjltkCW8P8,,,,,,,,,,,,,,,,,,,,,,,a,1,6.535,"[""0.174"",""0.519"",""0.780"",""0.843""]","[1,1,1,0]",0,16,16,16,1,0,0,,,0,FALSE,,,,,,,,,,,,,,,,,,,,,,,,,,,,,,,
,5f1b26dbd5dc042c9aedb7a4,627c6f73986a5daaea217e24,2022-05-12_04h24.30.882,classification_task,2021.2.3,Linux x86_64,60.0240096,627c6715c52fd12f31907bcf,IwAR2HEi3r7XBa59ZzBcJLB7ilHWTCbLLOEnevQh77NKOYGdbTYyjltkCW8P8,,,,,,,,,,,,,,,,,,,,,,,a,1,2.716,"[""0.272"",""0.840"",""0.921"",""0.963""]","[1,0,1,1]",0,17,17,17,1,0,1,,,0,FALSE,,,,,,,,,,,,,,,,,,,,,,,,,,,,,,,
,5f1b26dbd5dc042c9aedb7a4,627c6f73986a5daaea217e24,2022-05-12_04h24.30.882,classification_task,2021.2.3,Linux x86_64,60.0240096,627c6715c52fd12f31907bcf,IwAR2HEi3r7XBa59ZzBcJLB7ilHWTCbLLOEnevQh77NKOYGdbTYyjltkCW8P8,,,,,,,,,,,,,,,,,,,,,,,l,1,1.817,"[""0.069"",""0.411"",""0.627"",""0.689""]","[1,1,0,1]",0,18,18,18,1,1,1,,,0,FALSE,,,,,,,,,,,,,,,,,,,,,,,,,,,,,,,
,5f1b26dbd5dc042c9aedb7a4,627c6f73986a5daaea217e24,2022-05-12_04h24.30.882,classification_task,2021.2.3,Linux x86_64,60.0240096,627c6715c52fd12f31907bcf,IwAR2HEi3r7XBa59ZzBcJLB7ilHWTCbLLOEnevQh77NKOYGdbTYyjltkCW8P8,,,,,,,,,,,,,,,,,,,,,,,a,1,4.198,"[""0.843"",""0.346"",""0.921"",""0.963""]","[0,1,1,1]",0,19,19,19,1,0,1,,,0,FALSE,,,,,,,,,,,,,,,,,,,,,,,,,,,,,,,
,5f1b26dbd5dc042c9aedb7a4,627c6f73986a5daaea217e24,2022-05-12_04h24.30.882,classification_task,2021.2.3,Linux x86_64,60.0240096,627c6715c52fd12f31907bcf,IwAR2HEi3r7XBa59ZzBcJLB7ilHWTCbLLOEnevQh77NKOYGdbTYyjltkCW8P8,,,,,,,,,,,,,,,,,,,,,,,l,1,2.82,"[""0.111"",""0.307"",""0.632"",""0.734""]","[1,1,0,1]",0,20,20,20,1,1,0,,,0,FALSE,,,,,,,,,,,,,,,,,,,,,,,,,,,,,,,
,5f1b26dbd5dc042c9aedb7a4,627c6f73986a5daaea217e24,2022-05-12_04h24.30.882,classification_task,2021.2.3,Linux x86_64,60.0240096,627c6715c52fd12f31907bcf,IwAR2HEi3r7XBa59ZzBcJLB7ilHWTCbLLOEnevQh77NKOYGdbTYyjltkCW8P8,,,,,,,,,,,,,,,,,,,,,,,a,0,2.541,"[""0.069"",""0.233"",""0.574"",""0.689""]","[1,0,1,1]",0,21,21,21,1,1,1,,,0,FALSE,,,,,,,,,,,,,,,,,,,,,,,,,,,,,,,
,5f1b26dbd5dc042c9aedb7a4,627c6f73986a5daaea217e24,2022-05-12_04h24.30.882,classification_task,2021.2.3,Linux x86_64,60.0240096,627c6715c52fd12f31907bcf,IwAR2HEi3r7XBa59ZzBcJLB7ilHWTCbLLOEnevQh77NKOYGdbTYyjltkCW8P8,,,,,,,,,,,,,,,,,,,,,,,a,1,5.637,"[""0.843"",""0.519"",""0.780"",""0.878""]","[0,1,1,1]",0,22,22,22,1,0,0,,,0,FALSE,,,,,,,,,,,,,,,,,,,,,,,,,,,,,,,
,5f1b26dbd5dc042c9aedb7a4,627c6f73986a5daaea217e24,2022-05-12_04h24.30.882,classification_task,2021.2.3,Linux x86_64,60.0240096,627c6715c52fd12f31907bcf,IwAR2HEi3r7XBa59ZzBcJLB7ilHWTCbLLOEnevQh77NKOYGdbTYyjltkCW8P8,,,,,,,,,,,,,,,,,,,,,,,a,1,2.26,"[""0.174"",""0.632"",""0.780"",""0.878""]","[1,0,1,1]",0,23,23,23,1,0,0,,,0,FALSE,,,,,,,,,,,,,,,,,,,,,,,,,,,,,,,
,5f1b26dbd5dc042c9aedb7a4,627c6f73986a5daaea217e24,2022-05-12_04h24.30.882,classification_task,2021.2.3,Linux x86_64,60.0240096,627c6715c52fd12f31907bcf,IwAR2HEi3r7XBa59ZzBcJLB7ilHWTCbLLOEnevQh77NKOYGdbTYyjltkCW8P8,,,,,,,,,,,,,,,,,,,,,,,l,1,2.119,"[""0.069"",""0.411"",""0.574"",""0.238""]","[1,1,1,0]",0,24,24,24,1,1,1,,,0,FALSE,,,,,,,,,,,,,,,,,,,,,,,,,,,,,,,
,5f1b26dbd5dc042c9aedb7a4,627c6f73986a5daaea217e24,2022-05-12_04h24.30.882,classification_task,2021.2.3,Linux x86_64,60.0240096,627c6715c52fd12f31907bcf,IwAR2HEi3r7XBa59ZzBcJLB7ilHWTCbLLOEnevQh77NKOYGdbTYyjltkCW8P8,,,,,,,,,,,,,,,,,,,,,,,a,1,4.532,"[""0.272"",""0.346"",""0.921"",""0.238""]","[1,1,1,0]",0,25,25,25,1,0,1,,,0,FALSE,,,,,,,,,,,,,,,,,,,,,,,,,,,,,,,
,5f1b26dbd5dc042c9aedb7a4,627c6f73986a5daaea217e24,2022-05-12_04h24.30.882,classification_task,2021.2.3,Linux x86_64,60.0240096,627c6715c52fd12f31907bcf,IwAR2HEi3r7XBa59ZzBcJLB7ilHWTCbLLOEnevQh77NKOYGdbTYyjltkCW8P8,,,,,,,,,,,,,,,,,,,,,,,l,1,8.296,"[""0.233"",""0.411"",""0.574"",""0.689""]","[0,1,1,1]",0,26,26,26,1,1,1,,,0,FALSE,,,,,,,,,,,,,,,,,,,,,,,,,,,,,,,
,5f1b26dbd5dc042c9aedb7a4,627c6f73986a5daaea217e24,2022-05-12_04h24.30.882,classification_task,2021.2.3,Linux x86_64,60.0240096,627c6715c52fd12f31907bcf,IwAR2HEi3r7XBa59ZzBcJLB7ilHWTCbLLOEnevQh77NKOYGdbTYyjltkCW8P8,,,,,,,,,,,,,,,,,,,,,,,a,1,3.301,"[""0.174"",""0.519"",""0.652"",""0.878""]","[1,1,0,1]",0,27,27,27,1,0,0,,,0,FALSE,,,,,,,,,,,,,,,,,,,,,,,,,,,,,,,
,5f1b26dbd5dc042c9aedb7a4,627c6f73986a5daaea217e24,2022-05-12_04h24.30.882,classification_task,2021.2.3,Linux x86_64,60.0240096,627c6715c52fd12f31907bcf,IwAR2HEi3r7XBa59ZzBcJLB7ilHWTCbLLOEnevQh77NKOYGdbTYyjltkCW8P8,,,,,,,,,,,,,,,,,,,,,,,a,1,3.436,"[""0.272"",""0.346"",""0.844"",""0.963""]","[1,1,0,1]",0,28,28,28,1,0,1,,,0,FALSE,,,,,,,,,,,,,,,,,,,,,,,,,,,,,,,
,5f1b26dbd5dc042c9aedb7a4,627c6f73986a5daaea217e24,2022-05-12_04h24.30.882,classification_task,2021.2.3,Linux x86_64,60.0240096,627c6715c52fd12f31907bcf,IwAR2HEi3r7XBa59ZzBcJLB7ilHWTCbLLOEnevQh77NKOYGdbTYyjltkCW8P8,,,,,,,,,,,,,,,,,,,,,,,l,1,1.517,"[""0.111"",""0.610"",""0.457"",""0.734""]","[1,0,1,1]",0,29,29,29,1,1,0,,,0,FALSE,,,,,,,,,,,,,,,,,,,,,,,,,,,,,,,
,5f1b26dbd5dc042c9aedb7a4,627c6f73986a5daaea217e24,2022-05-12_04h24.30.882,classification_task,2021.2.3,Linux x86_64,60.0240096,627c6715c52fd12f31907bcf,IwAR2HEi3r7XBa59ZzBcJLB7ilHWTCbLLOEnevQh77NKOYGdbTYyjltkCW8P8,,,,,,,,,,,,,,,,,,,,,,,l,1,1.414,"[""0.111"",""0.307"",""0.457"",""0.623""]","[1,1,1,0]",0,30,30,30,1,1,0,,,0,FALSE,,,,,,,,,,,,,,,,,,,,,,,,,,,,,,,
,5f1b26dbd5dc042c9aedb7a4,627c6f73986a5daaea217e24,2022-05-12_04h24.30.882,classification_task,2021.2.3,Linux x86_64,60.0240096,627c6715c52fd12f31907bcf,IwAR2HEi3r7XBa59ZzBcJLB7ilHWTCbLLOEnevQh77NKOYGdbTYyjltkCW8P8,,,,,,,,,,,,,,,,,,,,,,,l,1,6.827,"[""0.229"",""0.307"",""0.457"",""0.734""]","[0,1,1,1]",0,31,31,31,1,1,0,,,0,FALSE,,,,,,,,,,,,,,,,,,,,,,,,,,,,,,,
,5f1b26dbd5dc042c9aedb7a4,627c6f73986a5daaea217e24,2022-05-12_04h24.30.882,classification_task,2021.2.3,Linux x86_64,60.0240096,627c6715c52fd12f31907bcf,IwAR2HEi3r7XBa59ZzBcJLB7ilHWTCbLLOEnevQh77NKOYGdbTYyjltkCW8P8,,,,,,,,,,,,,,,,,,,,,,,l,1,5.844,"[""0.069"",""0.411"",""0.574"",""0.233""]","[1,1,1,0]",0,32,32,32,1,1,1,,,0,FALSE,,,,,,,,,,,,,,,,,,,,,,,,,,,,,,,
,5f1b26dbd5dc042c9aedb7a4,627c6f73986a5daaea217e24,2022-05-12_04h24.30.882,classification_task,2021.2.3,Linux x86_64,60.0240096,627c6715c52fd12f31907bcf,IwAR2HEi3r7XBa59ZzBcJLB7ilHWTCbLLOEnevQh77NKOYGdbTYyjltkCW8P8,,,,,,,,,,,,,,,,,,,,,,,l,1,2.014,"[""0.111"",""0.307"",""0.027"",""0.734""]","[1,1,0,1]",0,33,33,33,1,1,0,,,0,FALSE,,,,,,,,,,,,,,,,,,,,,,,,,,,,,,,
,5f1b26dbd5dc042c9aedb7a4,627c6f73986a5daaea217e24,2022-05-12_04h24.30.882,classification_task,2021.2.3,Linux x86_64,60.0240096,627c6715c52fd12f31907bcf,IwAR2HEi3r7XBa59ZzBcJLB7ilHWTCbLLOEnevQh77NKOYGdbTYyjltkCW8P8,,,,,,,,,,,,,,,,,,,,,,,a,1,1.237,"[""0.235"",""0.346"",""0.921"",""0.963""]","[0,1,1,1]",0,34,34,34,1,0,1,,,0,FALSE,,,,,,,,,,,,,,,,,,,,,,,,,,,,,,,
,5f1b26dbd5dc042c9aedb7a4,627c6f73986a5daaea217e24,2022-05-12_04h24.30.882,classification_task,2021.2.3,Linux x86_64,60.0240096,627c6715c52fd12f31907bcf,IwAR2HEi3r7XBa59ZzBcJLB7ilHWTCbLLOEnevQh77NKOYGdbTYyjltkCW8P8,,,,,,,,,,,,,,,,,,,,,,,l,0,2.47,"[""0.174"",""0.519"",""0.780"",""0.843""]","[1,1,1,0]",0,35,35,35,1,0,0,,,0,FALSE,,,,,,,,,,,,,,,,,,,,,,,,,,,,,,,
,5f1b26dbd5dc042c9aedb7a4,627c6f73986a5daaea217e24,2022-05-12_04h24.30.882,classification_task,2021.2.3,Linux x86_64,60.0240096,627c6715c52fd12f31907bcf,IwAR2HEi3r7XBa59ZzBcJLB7ilHWTCbLLOEnevQh77NKOYGdbTYyjltkCW8P8,,,,,,,,,,,,,,,,,,,,,,,l,1,1.185,"[""0.111"",""0.307"",""0.457"",""0.840""]","[1,1,1,0]",0,36,36,36,1,1,0,,,0,FALSE,,,,,,,,,,,,,,,,,,,,,,,,,,,,,,,
,5f1b26dbd5dc042c9aedb7a4,627c6f73986a5daaea217e24,2022-05-12_04h24.30.882,classification_task,2021.2.3,Linux x86_64,60.0240096,627c6715c52fd12f31907bcf,IwAR2HEi3r7XBa59ZzBcJLB7ilHWTCbLLOEnevQh77NKOYGdbTYyjltkCW8P8,,,,,,,,,,,,,,,,,,,,,,,l,1,0.849,"[""0.027"",""0.411"",""0.574"",""0.689""]","[0,1,1,1]",0,37,37,37,1,1,1,,,0,FALSE,,,,,,,,,,,,,,,,,,,,,,,,,,,,,,,
,5f1b26dbd5dc042c9aedb7a4,627c6f73986a5daaea217e24,2022-05-12_04h24.30.882,classification_task,2021.2.3,Linux x86_64,60.0240096,627c6715c52fd12f31907bcf,IwAR2HEi3r7XBa59ZzBcJLB7ilHWTCbLLOEnevQh77NKOYGdbTYyjltkCW8P8,,,,,,,,,,,,,,,,,,,,,,,l,0,0.885,"[""0.174"",""0.027"",""0.780"",""0.878""]","[1,0,1,1]",0,38,38,38,1,0,0,,,0,FALSE,,,,,,,,,,,,,,,,,,,,,,,,,,,,,,,
,5f1b26dbd5dc042c9aedb7a4,627c6f73986a5daaea217e24,2022-05-12_04h24.30.882,classification_task,2021.2.3,Linux x86_64,60.0240096,627c6715c52fd12f31907bcf,IwAR2HEi3r7XBa59ZzBcJLB7ilHWTCbLLOEnevQh77NKOYGdbTYyjltkCW8P8,,,,,,,,,,,,,,,,,,,,,,,a,1,0.962,"[""0.609"",""0.519"",""0.780"",""0.878""]","[0,1,1,1]",0,39,39,39,1,0,0,,,0,FALSE,,,,,,,,,,,,,,,,,,,,,,,,,,,,,,,
,5f1b26dbd5dc042c9aedb7a4,627c6f73986a5daaea217e24,2022-05-12_04h24.30.882,classification_task,2021.2.3,Linux x86_64,60.0240096,627c6715c52fd12f31907bcf,IwAR2HEi3r7XBa59ZzBcJLB7ilHWTCbLLOEnevQh77NKOYGdbTYyjltkCW8P8,,,,,,,,,,,,,,,,,,,,,,,a,1,1.047,"[""0.272"",""0.346"",""0.843"",""0.963""]","[1,1,0,1]",0,40,40,40,1,0,1,,,0,FALSE,,,,,,,,,,,,,,,,,,,,,,,,,,,,,,,
,5f1b26dbd5dc042c9aedb7a4,627c6f73986a5daaea217e24,2022-05-12_04h24.30.882,classification_task,2021.2.3,Linux x86_64,60.0240096,627c6715c52fd12f31907bcf,IwAR2HEi3r7XBa59ZzBcJLB7ilHWTCbLLOEnevQh77NKOYGdbTYyjltkCW8P8,,,,,,,,,,,,,,,,,,,,,,,a,1,0.696,"[""0.174"",""0.519"",""0.233"",""0.878""]","[1,1,0,1]",0,41,41,41,1,0,0,,,0,FALSE,,,,,,,,,,,,,,,,,,,,,,,,,,,,,,,
,5f1b26dbd5dc042c9aedb7a4,627c6f73986a5daaea217e24,2022-05-12_04h24.30.882,classification_task,2021.2.3,Linux x86_64,60.0240096,627c6715c52fd12f31907bcf,IwAR2HEi3r7XBa59ZzBcJLB7ilHWTCbLLOEnevQh77NKOYGdbTYyjltkCW8P8,,,,,,,,,,,,,,,,,,,,,,,l,1,1.008,"[""0.111"",""0.623"",""0.457"",""0.734""]","[1,0,1,1]",0,42,42,42,1,1,0,,,0,FALSE,,,,,,,,,,,,,,,,,,,,,,,,,,,,,,,
,5f1b26dbd5dc042c9aedb7a4,627c6f73986a5daaea217e24,2022-05-12_04h24.30.882,classification_task,2021.2.3,Linux x86_64,60.0240096,627c6715c52fd12f31907bcf,IwAR2HEi3r7XBa59ZzBcJLB7ilHWTCbLLOEnevQh77NKOYGdbTYyjltkCW8P8,,,,,,,,,,,,,,,,,,,,,,,l,1,0.797,"[""0.069"",""0.411"",""0.609"",""0.689""]","[1,1,0,1]",0,43,43,43,1,1,1,,,0,FALSE,,,,,,,,,,,,,,,,,,,,,,,,,,,,,,,
,5f1b26dbd5dc042c9aedb7a4,627c6f73986a5daaea217e24,2022-05-12_04h24.30.882,classification_task,2021.2.3,Linux x86_64,60.0240096,627c6715c52fd12f31907bcf,IwAR2HEi3r7XBa59ZzBcJLB7ilHWTCbLLOEnevQh77NKOYGdbTYyjltkCW8P8,,,,,,,,,,,,,,,,,,,,,,,a,0,1.114,"[""0.627"",""0.307"",""0.457"",""0.734""]","[0,1,1,1]",0,44,44,44,1,1,0,,,0,FALSE,,,,,,,,,,,,,,,,,,,,,,,,,,,,,,,
,5f1b26dbd5dc042c9aedb7a4,627c6f73986a5daaea217e24,2022-05-12_04h24.30.882,classification_task,2021.2.3,Linux x86_64,60.0240096,627c6715c52fd12f31907bcf,IwAR2HEi3r7XBa59ZzBcJLB7ilHWTCbLLOEnevQh77NKOYGdbTYyjltkCW8P8,,,,,,,,,,,,,,,,,,,,,,,a,1,1.11,"[""0.272"",""0.652"",""0.921"",""0.963""]","[1,0,1,1]",0,45,45,45,1,0,1,,,0,FALSE,,,,,,,,,,,,,,,,,,,,,,,,,,,,,,,
,5f1b26dbd5dc042c9aedb7a4,627c6f73986a5daaea217e24,2022-05-12_04h24.30.882,classification_task,2021.2.3,Linux x86_64,60.0240096,627c6715c52fd12f31907bcf,IwAR2HEi3r7XBa59ZzBcJLB7ilHWTCbLLOEnevQh77NKOYGdbTYyjltkCW8P8,,,,,,,,,,,,,,,,,,,,,,,l,1,1.056,"[""0.069"",""0.609"",""0.574"",""0.689""]","[1,0,1,1]",0,46,46,46,1,1,1,,,0,FALSE,,,,,,,,,,,,,,,,,,,,,,,,,,,,,,,
,5f1b26dbd5dc042c9aedb7a4,627c6f73986a5daaea217e24,2022-05-12_04h24.30.882,classification_task,2021.2.3,Linux x86_64,60.0240096,627c6715c52fd12f31907bcf,IwAR2HEi3r7XBa59ZzBcJLB7ilHWTCbLLOEnevQh77NKOYGdbTYyjltkCW8P8,,,,,,,,,,,,,,,,,,,,,,,l,0,0.803,"[""0.272"",""0.346"",""0.921"",""0.235""]","[1,1,1,0]",0,47,47,47,1,0,1,,,0,FALSE,,,,,,,,,,,,,,,,,,,,,,,,,,,,,,,
,5f1b26dbd5dc042c9aedb7a4,627c6f73986a5daaea217e24,2022-05-12_04h24.30.882,classification_task,2021.2.3,Linux x86_64,60.0240096,627c6715c52fd12f31907bcf,IwAR2HEi3r7XBa59ZzBcJLB7ilHWTCbLLOEnevQh77NKOYGdbTYyjltkCW8P8,,,,,,,,,,,,,,,,,,,,,,,l,0,0.55,"[""0.844"",""0.346"",""0.921"",""0.963""]","[0,1,1,1]",0,48,48,48,1,0,1,,,0,FALSE,,,,,,,,,,,,,,,,,,,,,,,,,,,,,,,
,5f1b26dbd5dc042c9aedb7a4,627c6f73986a5daaea217e24,2022-05-12_04h24.30.882,classification_task,2021.2.3,Linux x86_64,60.0240096,627c6715c52fd12f31907bcf,IwAR2HEi3r7XBa59ZzBcJLB7ilHWTCbLLOEnevQh77NKOYGdbTYyjltkCW8P8,,,,,,,,,,,,,,,,,,,,,,,a,1,0.258,"[""0.272"",""0.346"",""0.229"",""0.963""]","[1,1,0,1]",0,49,49,49,1,0,1,,,0,FALSE,,,,,,,,,,,,,,,,,,,,,,,,,,,,,,,
,5f1b26dbd5dc042c9aedb7a4,627c6f73986a5daaea217e24,2022-05-12_04h24.30.882,classification_task,2021.2.3,Linux x86_64,60.0240096,627c6715c52fd12f31907bcf,IwAR2HEi3r7XBa59ZzBcJLB7ilHWTCbLLOEnevQh77NKOYGdbTYyjltkCW8P8,,,,,,,,,,,,,,,,,,,,,,,l,1,1.134,"[""0.111"",""0.307"",""0.457"",""0.238""]","[1,1,1,0]",0,50,50,50,1,1,0,,,0,FALSE,,,,,,,,,,,,,,,,,,,,,,,,,,,,,,,
,5f1b26dbd5dc042c9aedb7a4,627c6f73986a5daaea217e24,2022-05-12_04h24.30.882,classification_task,2021.2.3,Linux x86_64,60.0240096,627c6715c52fd12f31907bcf,IwAR2HEi3r7XBa59ZzBcJLB7ilHWTCbLLOEnevQh77NKOYGdbTYyjltkCW8P8,,,,,,,,,,,,,,,,,,,,,,,l,1,1.434,"[""0.111"",""0.840"",""0.457"",""0.734""]","[1,0,1,1]",0,51,51,51,1,1,0,,,0,FALSE,,,,,,,,,,,,,,,,,,,,,,,,,,,,,,,
,5f1b26dbd5dc042c9aedb7a4,627c6f73986a5daaea217e24,2022-05-12_04h24.30.882,classification_task,2021.2.3,Linux x86_64,60.0240096,627c6715c52fd12f31907bcf,IwAR2HEi3r7XBa59ZzBcJLB7ilHWTCbLLOEnevQh77NKOYGdbTYyjltkCW8P8,,,,,,,,,,,,,,,,,,,,,,,l,0,1.018,"[""0.272"",""0.027"",""0.921"",""0.963""]","[1,0,1,1]",0,52,52,52,1,0,1,,,0,FALSE,,,,,,,,,,,,,,,,,,,,,,,,,,,,,,,
,5f1b26dbd5dc042c9aedb7a4,627c6f73986a5daaea217e24,2022-05-12_04h24.30.882,classification_task,2021.2.3,Linux x86_64,60.0240096,627c6715c52fd12f31907bcf,IwAR2HEi3r7XBa59ZzBcJLB7ilHWTCbLLOEnevQh77NKOYGdbTYyjltkCW8P8,,,,,,,,,,,,,,,,,,,,,,,l,1,0.9,"[""0.610"",""0.307"",""0.457"",""0.734""]","[0,1,1,1]",0,53,53,53,1,1,0,,,0,FALSE,,,,,,,,,,,,,,,,,,,,,,,,,,,,,,,
,5f1b26dbd5dc042c9aedb7a4,627c6f73986a5daaea217e24,2022-05-12_04h24.30.882,classification_task,2021.2.3,Linux x86_64,60.0240096,627c6715c52fd12f31907bcf,IwAR2HEi3r7XBa59ZzBcJLB7ilHWTCbLLOEnevQh77NKOYGdbTYyjltkCW8P8,,,,,,,,,,,,,,,,,,,,,,,a,0,0.639,"[""0.069"",""0.411"",""0.574"",""0.638""]","[1,1,1,0]",0,54,54,54,1,1,1,,,0,FALSE,,,,,,,,,,,,,,,,,,,,,,,,,,,,,,,
,5f1b26dbd5dc042c9aedb7a4,627c6f73986a5daaea217e24,2022-05-12_04h24.30.882,classification_task,2021.2.3,Linux x86_64,60.0240096,627c6715c52fd12f31907bcf,IwAR2HEi3r7XBa59ZzBcJLB7ilHWTCbLLOEnevQh77NKOYGdbTYyjltkCW8P8,,,,,,,,,,,,,,,,,,,,,,,l,1,0.733,"[""0.069"",""0.610"",""0.574"",""0.689""]","[1,0,1,1]",0,55,55,55,1,1,1,,,0,FALSE,,,,,,,,,,,,,,,,,,,,,,,,,,,,,,,
,5f1b26dbd5dc042c9aedb7a4,627c6f73986a5daaea217e24,2022-05-12_04h24.30.882,classification_task,2021.2.3,Linux x86_64,60.0240096,627c6715c52fd12f31907bcf,IwAR2HEi3r7XBa59ZzBcJLB7ilHWTCbLLOEnevQh77NKOYGdbTYyjltkCW8P8,,,,,,,,,,,,,,,,,,,,,,,l,0,1.084,"[""0.174"",""0.027"",""0.780"",""0.878""]","[1,0,1,1]",0,56,56,56,1,0,0,,,0,FALSE,,,,,,,,,,,,,,,,,,,,,,,,,,,,,,,
,5f1b26dbd5dc042c9aedb7a4,627c6f73986a5daaea217e24,2022-05-12_04h24.30.882,classification_task,2021.2.3,Linux x86_64,60.0240096,627c6715c52fd12f31907bcf,IwAR2HEi3r7XBa59ZzBcJLB7ilHWTCbLLOEnevQh77NKOYGdbTYyjltkCW8P8,,,,,,,,,,,,,,,,,,,,,,,a,1,1.616,"[""0.272"",""0.346"",""0.921"",""0.238""]","[1,1,1,0]",0,57,57,57,1,0,1,,,0,FALSE,,,,,,,,,,,,,,,,,,,,,,,,,,,,,,,
,5f1b26dbd5dc042c9aedb7a4,627c6f73986a5daaea217e24,2022-05-12_04h24.30.882,classification_task,2021.2.3,Linux x86_64,60.0240096,627c6715c52fd12f31907bcf,IwAR2HEi3r7XBa59ZzBcJLB7ilHWTCbLLOEnevQh77NKOYGdbTYyjltkCW8P8,,,,,,,,,,,,,,,,,,,,,,,l,0,1.168,"[""0.174"",""0.519"",""0.780"",""0.609""]","[1,1,1,0]",0,58,58,58,1,0,0,,,0,FALSE,,,,,,,,,,,,,,,,,,,,,,,,,,,,,,,
,5f1b26dbd5dc042c9aedb7a4,627c6f73986a5daaea217e24,2022-05-12_04h24.30.882,classification_task,2021.2.3,Linux x86_64,60.0240096,627c6715c52fd12f31907bcf,IwAR2HEi3r7XBa59ZzBcJLB7ilHWTCbLLOEnevQh77NKOYGdbTYyjltkCW8P8,,,,,,,,,,,,,,,,,,,,,,,l,1,0.895,"[""0.069"",""0.411"",""0.610"",""0.689""]","[1,1,0,1]",0,59,59,59,1,1,1,,,0,FALSE,,,,,,,,,,,,,,,,,,,,,,,,,,,,,,,
,5f1b26dbd5dc042c9aedb7a4,627c6f73986a5daaea217e24,2022-05-12_04h24.30.882,classification_task,2021.2.3,Linux x86_64,60.0240096,627c6715c52fd12f31907bcf,IwAR2HEi3r7XBa59ZzBcJLB7ilHWTCbLLOEnevQh77NKOYGdbTYyjltkCW8P8,,,,,,,,,,,,,,,,,,,,,,,l,1,0.85,"[""0.840"",""0.411"",""0.574"",""0.689""]","[0,1,1,1]",0,60,60,60,1,1,1,,,0,FALSE,,,,,,,,,,,,,,,,,,,,,,,,,,,,,,,
,5f1b26dbd5dc042c9aedb7a4,627c6f73986a5daaea217e24,2022-05-12_04h24.30.882,classification_task,2021.2.3,Linux x86_64,60.0240096,627c6715c52fd12f31907bcf,IwAR2HEi3r7XBa59ZzBcJLB7ilHWTCbLLOEnevQh77NKOYGdbTYyjltkCW8P8,,,,,,,,,,,,,,,,,,,,,,,a,0,0.72,"[""0.111"",""0.307"",""0.027"",""0.734""]","[1,1,0,1]",0,61,61,61,1,1,0,,,0,FALSE,,,,,,,,,,,,,,,,,,,,,,,,,,,,,,,
,5f1b26dbd5dc042c9aedb7a4,627c6f73986a5daaea217e24,2022-05-12_04h24.30.882,classification_task,2021.2.3,Linux x86_64,60.0240096,627c6715c52fd12f31907bcf,IwAR2HEi3r7XBa59ZzBcJLB7ilHWTCbLLOEnevQh77NKOYGdbTYyjltkCW8P8,,,,,,,,,,,,,,,,,,,,,,,l,0,0.704,"[""0.174"",""0.519"",""0.609"",""0.878""]","[1,1,0,1]",0,62,62,62,1,0,0,,,0,FALSE,,,,,,,,,,,,,,,,,,,,,,,,,,,,,,,
,5f1b26dbd5dc042c9aedb7a4,627c6f73986a5daaea217e24,2022-05-12_04h24.30.882,classification_task,2021.2.3,Linux x86_64,60.0240096,627c6715c52fd12f31907bcf,IwAR2HEi3r7XBa59ZzBcJLB7ilHWTCbLLOEnevQh77NKOYGdbTYyjltkCW8P8,,,,,,,,,,,,,,,,,,,,,,,l,0,1.254,"[""0.644"",""0.519"",""0.780"",""0.878""]","[0,1,1,1]",0,63,63,63,1,0,0,,,0,FALSE,,,,,,,,,,,,,,,,,,,,,,,,,,,,,,,
,5f1b26dbd5dc042c9aedb7a4,627c6f73986a5daaea217e24,2022-05-12_04h24.30.882,classification_task,2021.2.3,Linux x86_64,60.0240096,627c6715c52fd12f31907bcf,IwAR2HEi3r7XBa59ZzBcJLB7ilHWTCbLLOEnevQh77NKOYGdbTYyjltkCW8P8,,,,,,,,,,,,,,,,,,,,,,,,,,,,,,,,,,,,,,,0, ,,0,6.714677641,380.477,0,0,0,0,1,2,1,,,,,,,,,,,,,,,,,,
,5f1b26dbd5dc042c9aedb7a4,627c6f73986a5daaea217e24,2022-05-12_04h24.30.882,classification_task,2021.2.3,Linux x86_64,60.0240096,627c6715c52fd12f31907bcf,IwAR2HEi3r7XBa59ZzBcJLB7ilHWTCbLLOEnevQh77NKOYGdbTYyjltkCW8P8,,,,,,,,,,,,,,,,,,,,,,,,,,,,,,,,,,,,,,,1,  ,,0,4.191651969,375.172,0,0,0,0,1,2,1,,,,,,,,,,,,,,,,,,
,5f1b26dbd5dc042c9aedb7a4,627c6f73986a5daaea217e24,2022-05-12_04h24.30.882,classification_task,2021.2.3,Linux x86_64,60.0240096,627c6715c52fd12f31907bcf,IwAR2HEi3r7XBa59ZzBcJLB7ilHWTCbLLOEnevQh77NKOYGdbTYyjltkCW8P8,,,,,,,,,,,,,,,,,,,,,,,,,,,,,,,,,,,,,,,2,  ,,0,0.664315109,372.808,0,0,0,0,1,2,1,,,,,,,,,,,,,,,,,,
,5f1b26dbd5dc042c9aedb7a4,627c6f73986a5daaea217e24,2022-05-12_04h24.30.882,classification_task,2021.2.3,Linux x86_64,60.0240096,627c6715c52fd12f31907bcf,IwAR2HEi3r7XBa59ZzBcJLB7ilHWTCbLLOEnevQh77NKOYGdbTYyjltkCW8P8,,,,,,,,,,,,,,,,,,,,,,,,,,,,,,,,,,,,,,,,,,,,,0,0,0,0,1,,1,,,,,,,,,,,,,,,,,,
,5f1b26dbd5dc042c9aedb7a4,627c6f73986a5daaea217e24,2022-05-12_04h24.30.882,classification_task,2021.2.3,Linux x86_64,60.0240096,627c6715c52fd12f31907bcf,IwAR2HEi3r7XBa59ZzBcJLB7ilHWTCbLLOEnevQh77NKOYGdbTYyjltkCW8P8,,,,,,,,,,,,,,,,,,,,,space,5.083,a,0,1.22,"[""0.069"",""0.411"",""0.574"",""0.238""]","[1,1,1,0]",0,0,0,0,1,1,1,,,0,FALSE,,,,,,,,,,,,,,,,,,,,,,,,,,,,,,,
,5f1b26dbd5dc042c9aedb7a4,627c6f73986a5daaea217e24,2022-05-12_04h24.30.882,classification_task,2021.2.3,Linux x86_64,60.0240096,627c6715c52fd12f31907bcf,IwAR2HEi3r7XBa59ZzBcJLB7ilHWTCbLLOEnevQh77NKOYGdbTYyjltkCW8P8,,,,,,,,,,,,,,,,,,,,,,,a,1,0.849,"[""0.627"",""0.346"",""0.921"",""0.963""]","[0,1,1,1]",0,1,1,1,1,0,1,,,0,FALSE,,,,,,,,,,,,,,,,,,,,,,,,,,,,,,,
,5f1b26dbd5dc042c9aedb7a4,627c6f73986a5daaea217e24,2022-05-12_04h24.30.882,classification_task,2021.2.3,Linux x86_64,60.0240096,627c6715c52fd12f31907bcf,IwAR2HEi3r7XBa59ZzBcJLB7ilHWTCbLLOEnevQh77NKOYGdbTYyjltkCW8P8,,,,,,,,,,,,,,,,,,,,,,,l,1,1.015,"[""0.111"",""0.307"",""0.457"",""0.632""]","[1,1,1,0]",0,2,2,2,1,1,0,,,0,FALSE,,,,,,,,,,,,,,,,,,,,,,,,,,,,,,,
,5f1b26dbd5dc042c9aedb7a4,627c6f73986a5daaea217e24,2022-05-12_04h24.30.882,classification_task,2021.2.3,Linux x86_64,60.0240096,627c6715c52fd12f31907bcf,IwAR2HEi3r7XBa59ZzBcJLB7ilHWTCbLLOEnevQh77NKOYGdbTYyjltkCW8P8,,,,,,,,,,,,,,,,,,,,,,,l,1,1.345,"[""0.111"",""0.307"",""0.238"",""0.734""]","[1,1,0,1]",0,3,3,3,1,1,0,,,0,FALSE,,,,,,,,,,,,,,,,,,,,,,,,,,,,,,,
,5f1b26dbd5dc042c9aedb7a4,627c6f73986a5daaea217e24,2022-05-12_04h24.30.882,classification_task,2021.2.3,Linux x86_64,60.0240096,627c6715c52fd12f31907bcf,IwAR2HEi3r7XBa59ZzBcJLB7ilHWTCbLLOEnevQh77NKOYGdbTYyjltkCW8P8,,,,,,,,,,,,,,,,,,,,,,,l,1,2.254,"[""0.069"",""0.644"",""0.574"",""0.689""]","[1,0,1,1]",0,4,4,4,1,1,1,,,0,FALSE,,,,,,,,,,,,,,,,,,,,,,,,,,,,,,,
,5f1b26dbd5dc042c9aedb7a4,627c6f73986a5daaea217e24,2022-05-12_04h24.30.882,classification_task,2021.2.3,Linux x86_64,60.0240096,627c6715c52fd12f31907bcf,IwAR2HEi3r7XBa59ZzBcJLB7ilHWTCbLLOEnevQh77NKOYGdbTYyjltkCW8P8,,,,,,,,,,,,,,,,,,,,,,,a,1,1.254,"[""0.272"",""0.238"",""0.921"",""0.963""]","[1,0,1,1]",0,5,5,5,1,0,1,,,0,FALSE,,,,,,,,,,,,,,,,,,,,,,,,,,,,,,,
,5f1b26dbd5dc042c9aedb7a4,627c6f73986a5daaea217e24,2022-05-12_04h24.30.882,classification_task,2021.2.3,Linux x86_64,60.0240096,627c6715c52fd12f31907bcf,IwAR2HEi3r7XBa59ZzBcJLB7ilHWTCbLLOEnevQh77NKOYGdbTYyjltkCW8P8,,,,,,,,,,,,,,,,,,,,,,,a,1,0.782,"[""0.272"",""0.346"",""0.652"",""0.963""]","[1,1,0,1]",0,6,6,6,1,0,1,,,0,FALSE,,,,,,,,,,,,,,,,,,,,,,,,,,,,,,,
,5f1b26dbd5dc042c9aedb7a4,627c6f73986a5daaea217e24,2022-05-12_04h24.30.882,classification_task,2021.2.3,Linux x86_64,60.0240096,627c6715c52fd12f31907bcf,IwAR2HEi3r7XBa59ZzBcJLB7ilHWTCbLLOEnevQh77NKOYGdbTYyjltkCW8P8,,,,,,,,,,,,,,,,,,,,,,,a,1,1.23,"[""0.174"",""0.519"",""0.609"",""0.878""]","[1,1,0,1]",0,7,7,7,1,0,0,,,0,FALSE,,,,,,,,,,,,,,,,,,,,,,,,,,,,,,,
,5f1b26dbd5dc042c9aedb7a4,627c6f73986a5daaea217e24,2022-05-12_04h24.30.882,classification_task,2021.2.3,Linux x86_64,60.0240096,627c6715c52fd12f31907bcf,IwAR2HEi3r7XBa59ZzBcJLB7ilHWTCbLLOEnevQh77NKOYGdbTYyjltkCW8P8,,,,,,,,,,,,,,,,,,,,,,,a,1,0.467,"[""0.174"",""0.519"",""0.780"",""0.632""]","[1,1,1,0]",0,8,8,8,1,0,0,,,0,FALSE,,,,,,,,,,,,,,,,,,,,,,,,,,,,,,,
,5f1b26dbd5dc042c9aedb7a4,627c6f73986a5daaea217e24,2022-05-12_04h24.30.882,classification_task,2021.2.3,Linux x86_64,60.0240096,627c6715c52fd12f31907bcf,IwAR2HEi3r7XBa59ZzBcJLB7ilHWTCbLLOEnevQh77NKOYGdbTYyjltkCW8P8,,,,,,,,,,,,,,,,,,,,,,,a,0,1.531,"[""0.844"",""0.411"",""0.574"",""0.689""]","[0,1,1,1]",0,9,9,9,1,1,1,,,0,FALSE,,,,,,,,,,,,,,,,,,,,,,,,,,,,,,,
,5f1b26dbd5dc042c9aedb7a4,627c6f73986a5daaea217e24,2022-05-12_04h24.30.882,classification_task,2021.2.3,Linux x86_64,60.0240096,627c6715c52fd12f31907bcf,IwAR2HEi3r7XBa59ZzBcJLB7ilHWTCbLLOEnevQh77NKOYGdbTYyjltkCW8P8,,,,,,,,,,,,,,,,,,,,,,,a,1,0.736,"[""0.610"",""0.519"",""0.780"",""0.878""]","[0,1,1,1]",0,10,10,10,1,0,0,,,0,FALSE,,,,,,,,,,,,,,,,,,,,,,,,,,,,,,,
,5f1b26dbd5dc042c9aedb7a4,627c6f73986a5daaea217e24,2022-05-12_04h24.30.882,classification_task,2021.2.3,Linux x86_64,60.0240096,627c6715c52fd12f31907bcf,IwAR2HEi3r7XBa59ZzBcJLB7ilHWTCbLLOEnevQh77NKOYGdbTYyjltkCW8P8,,,,,,,,,,,,,,,,,,,,,,,l,0,1.456,"[""0.272"",""0.346"",""0.921"",""0.609""]","[1,1,1,0]",0,11,11,11,1,0,1,,,0,FALSE,,,,,,,,,,,,,,,,,,,,,,,,,,,,,,,
,5f1b26dbd5dc042c9aedb7a4,627c6f73986a5daaea217e24,2022-05-12_04h24.30.882,classification_task,2021.2.3,Linux x86_64,60.0240096,627c6715c52fd12f31907bcf,IwAR2HEi3r7XBa59ZzBcJLB7ilHWTCbLLOEnevQh77NKOYGdbTYyjltkCW8P8,,,,,,,,,,,,,,,,,,,,,,,l,1,1.013,"[""0.632"",""0.307"",""0.457"",""0.734""]","[0,1,1,1]",0,12,12,12,1,1,0,,,0,FALSE,,,,,,,,,,,,,,,,,,,,,,,,,,,,,,,
,5f1b26dbd5dc042c9aedb7a4,627c6f73986a5daaea217e24,2022-05-12_04h24.30.882,classification_task,2021.2.3,Linux x86_64,60.0240096,627c6715c52fd12f31907bcf,IwAR2HEi3r7XBa59ZzBcJLB7ilHWTCbLLOEnevQh77NKOYGdbTYyjltkCW8P8,,,,,,,,,,,,,,,,,,,,,,,a,0,1.44,"[""0.069"",""0.411"",""0.027"",""0.689""]","[1,1,0,1]",0,13,13,13,1,1,1,,,0,FALSE,,,,,,,,,,,,,,,,,,,,,,,,,,,,,,,
,5f1b26dbd5dc042c9aedb7a4,627c6f73986a5daaea217e24,2022-05-12_04h24.30.882,classification_task,2021.2.3,Linux x86_64,60.0240096,627c6715c52fd12f31907bcf,IwAR2HEi3r7XBa59ZzBcJLB7ilHWTCbLLOEnevQh77NKOYGdbTYyjltkCW8P8,,,,,,,,,,,,,,,,,,,,,,,a,1,1.64,"[""0.174"",""0.632"",""0.780"",""0.878""]","[1,0,1,1]",0,14,14,14,1,0,0,,,0,FALSE,,,,,,,,,,,,,,,,,,,,,,,,,,,,,,,
,5f1b26dbd5dc042c9aedb7a4,627c6f73986a5daaea217e24,2022-05-12_04h24.30.882,classification_task,2021.2.3,Linux x86_64,60.0240096,627c6715c52fd12f31907bcf,IwAR2HEi3r7XBa59ZzBcJLB7ilHWTCbLLOEnevQh77NKOYGdbTYyjltkCW8P8,,,,,,,,,,,,,,,,,,,,,,,l,1,1.835,"[""0.111"",""0.623"",""0.457"",""0.734""]","[1,0,1,1]",0,15,15,15,1,1,0,,,0,FALSE,,,,,,,,,,,,,,,,,,,,,,,,,,,,,,,
,5f1b26dbd5dc042c9aedb7a4,627c6f73986a5daaea217e24,2022-05-12_04h24.30.882,classification_task,2021.2.3,Linux x86_64,60.0240096,627c6715c52fd12f31907bcf,IwAR2HEi3r7XBa59ZzBcJLB7ilHWTCbLLOEnevQh77NKOYGdbTYyjltkCW8P8,,,,,,,,,,,,,,,,,,,,,,,l,1,1.468,"[""0.111"",""0.307"",""0.843"",""0.734""]","[1,1,0,1]",0,16,16,16,1,1,0,,,0,FALSE,,,,,,,,,,,,,,,,,,,,,,,,,,,,,,,
,5f1b26dbd5dc042c9aedb7a4,627c6f73986a5daaea217e24,2022-05-12_04h24.30.882,classification_task,2021.2.3,Linux x86_64,60.0240096,627c6715c52fd12f31907bcf,IwAR2HEi3r7XBa59ZzBcJLB7ilHWTCbLLOEnevQh77NKOYGdbTYyjltkCW8P8,,,,,,,,,,,,,,,,,,,,,,,a,1,1.122,"[""0.272"",""0.346"",""0.627"",""0.963""]","[1,1,0,1]",0,17,17,17,1,0,1,,,0,FALSE,,,,,,,,,,,,,,,,,,,,,,,,,,,,,,,
,5f1b26dbd5dc042c9aedb7a4,627c6f73986a5daaea217e24,2022-05-12_04h24.30.882,classification_task,2021.2.3,Linux x86_64,60.0240096,627c6715c52fd12f31907bcf,IwAR2HEi3r7XBa59ZzBcJLB7ilHWTCbLLOEnevQh77NKOYGdbTYyjltkCW8P8,,,,,,,,,,,,,,,,,,,,,,,l,0,0.864,"[""0.174"",""0.519"",""0.780"",""0.840""]","[1,1,1,0]",0,18,18,18,1,0,0,,,0,FALSE,,,,,,,,,,,,,,,,,,,,,,,,,,,,,,,
,5f1b26dbd5dc042c9aedb7a4,627c6f73986a5daaea217e24,2022-05-12_04h24.30.882,classification_task,2021.2.3,Linux x86_64,60.0240096,627c6715c52fd12f31907bcf,IwAR2HEi3r7XBa59ZzBcJLB7ilHWTCbLLOEnevQh77NKOYGdbTYyjltkCW8P8,,,,,,,,,,,,,,,,,,,,,,,l,1,1.602,"[""0.638"",""0.307"",""0.457"",""0.734""]","[0,1,1,1]",0,19,19,19,1,1,0,,,0,FALSE,,,,,,,,,,,,,,,,,,,,,,,,,,,,,,,
,5f1b26dbd5dc042c9aedb7a4,627c6f73986a5daaea217e24,2022-05-12_04h24.30.882,classification_task,2021.2.3,Linux x86_64,60.0240096,627c6715c52fd12f31907bcf,IwAR2HEi3r7XBa59ZzBcJLB7ilHWTCbLLOEnevQh77NKOYGdbTYyjltkCW8P8,,,,,,,,,,,,,,,,,,,,,,,l,1,2.201,"[""0.069"",""0.233"",""0.574"",""0.689""]","[1,0,1,1]",0,20,20,20,1,1,1,,,0,FALSE,,,,,,,,,,,,,,,,,,,,,,,,,,,,,,,
,5f1b26dbd5dc042c9aedb7a4,627c6f73986a5daaea217e24,2022-05-12_04h24.30.882,classification_task,2021.2.3,Linux x86_64,60.0240096,627c6715c52fd12f31907bcf,IwAR2HEi3r7XBa59ZzBcJLB7ilHWTCbLLOEnevQh77NKOYGdbTYyjltkCW8P8,,,,,,,,,,,,,,,,,,,,,,,a,1,1.3,"[""0.272"",""0.346"",""0.921"",""0.235""]","[1,1,1,0]",0,21,21,21,1,0,1,,,0,FALSE,,,,,,,,,,,,,,,,,,,,,,,,,,,,,,,
,5f1b26dbd5dc042c9aedb7a4,627c6f73986a5daaea217e24,2022-05-12_04h24.30.882,classification_task,2021.2.3,Linux x86_64,60.0240096,627c6715c52fd12f31907bcf,IwAR2HEi3r7XBa59ZzBcJLB7ilHWTCbLLOEnevQh77NKOYGdbTYyjltkCW8P8,,,,,,,,,,,,,,,,,,,,,,,l,1,0.999,"[""0.111"",""0.307"",""0.457"",""0.843""]","[1,1,1,0]",0,22,22,22,1,1,0,,,0,FALSE,,,,,,,,,,,,,,,,,,,,,,,,,,,,,,,
,5f1b26dbd5dc042c9aedb7a4,627c6f73986a5daaea217e24,2022-05-12_04h24.30.882,classification_task,2021.2.3,Linux x86_64,60.0240096,627c6715c52fd12f31907bcf,IwAR2HEi3r7XBa59ZzBcJLB7ilHWTCbLLOEnevQh77NKOYGdbTYyjltkCW8P8,,,,,,,,,,,,,,,,,,,,,,,l,1,0.569,"[""0.111"",""0.238"",""0.457"",""0.734""]","[1,0,1,1]",0,23,23,23,1,1,0,,,0,FALSE,,,,,,,,,,,,,,,,,,,,,,,,,,,,,,,
,5f1b26dbd5dc042c9aedb7a4,627c6f73986a5daaea217e24,2022-05-12_04h24.30.882,classification_task,2021.2.3,Linux x86_64,60.0240096,627c6715c52fd12f31907bcf,IwAR2HEi3r7XBa59ZzBcJLB7ilHWTCbLLOEnevQh77NKOYGdbTYyjltkCW8P8,,,,,,,,,,,,,,,,,,,,,,,a,1,0.55,"[""0.644"",""0.519"",""0.780"",""0.878""]","[0,1,1,1]",0,24,24,24,1,0,0,,,0,FALSE,,,,,,,,,,,,,,,,,,,,,,,,,,,,,,,
,5f1b26dbd5dc042c9aedb7a4,627c6f73986a5daaea217e24,2022-05-12_04h24.30.882,classification_task,2021.2.3,Linux x86_64,60.0240096,627c6715c52fd12f31907bcf,IwAR2HEi3r7XBa59ZzBcJLB7ilHWTCbLLOEnevQh77NKOYGdbTYyjltkCW8P8,,,,,,,,,,,,,,,,,,,,,,,a,1,0.487,"[""0.174"",""0.623"",""0.780"",""0.878""]","[1,0,1,1]",0,25,25,25,1,0,0,,,0,FALSE,,,,,,,,,,,,,,,,,,,,,,,,,,,,,,,
,5f1b26dbd5dc042c9aedb7a4,627c6f73986a5daaea217e24,2022-05-12_04h24.30.882,classification_task,2021.2.3,Linux x86_64,60.0240096,627c6715c52fd12f31907bcf,IwAR2HEi3r7XBa59ZzBcJLB7ilHWTCbLLOEnevQh77NKOYGdbTYyjltkCW8P8,,,,,,,,,,,,,,,,,,,,,,,a,1,1.463,"[""0.272"",""0.843"",""0.921"",""0.963""]","[1,0,1,1]",0,26,26,26,1,0,1,,,0,FALSE,,,,,,,,,,,,,,,,,,,,,,,,,,,,,,,
,5f1b26dbd5dc042c9aedb7a4,627c6f73986a5daaea217e24,2022-05-12_04h24.30.882,classification_task,2021.2.3,Linux x86_64,60.0240096,627c6715c52fd12f31907bcf,IwAR2HEi3r7XBa59ZzBcJLB7ilHWTCbLLOEnevQh77NKOYGdbTYyjltkCW8P8,,,,,,,,,,,,,,,,,,,,,,,l,1,1.167,"[""0.069"",""0.411"",""0.574"",""0.652""]","[1,1,1,0]",0,27,27,27,1,1,1,,,0,FALSE,,,,,,,,,,,,,,,,,,,,,,,,,,,,,,,
,5f1b26dbd5dc042c9aedb7a4,627c6f73986a5daaea217e24,2022-05-12_04h24.30.882,classification_task,2021.2.3,Linux x86_64,60.0240096,627c6715c52fd12f31907bcf,IwAR2HEi3r7XBa59ZzBcJLB7ilHWTCbLLOEnevQh77NKOYGdbTYyjltkCW8P8,,,,,,,,,,,,,,,,,,,,,,,l,1,0.856,"[""0.069"",""0.411"",""0.610"",""0.689""]","[1,1,0,1]",0,28,28,28,1,1,1,,,0,FALSE,,,,,,,,,,,,,,,,,,,,,,,,,,,,,,,
,5f1b26dbd5dc042c9aedb7a4,627c6f73986a5daaea217e24,2022-05-12_04h24.30.882,classification_task,2021.2.3,Linux x86_64,60.0240096,627c6715c52fd12f31907bcf,IwAR2HEi3r7XBa59ZzBcJLB7ilHWTCbLLOEnevQh77NKOYGdbTYyjltkCW8P8,,,,,,,,,,,,,,,,,,,,,,,a,1,1.297,"[""0.652"",""0.346"",""0.921"",""0.963""]","[0,1,1,1]",0,29,29,29,1,0,1,,,0,FALSE,,,,,,,,,,,,,,,,,,,,,,,,,,,,,,,
,5f1b26dbd5dc042c9aedb7a4,627c6f73986a5daaea217e24,2022-05-12_04h24.30.882,classification_task,2021.2.3,Linux x86_64,60.0240096,627c6715c52fd12f31907bcf,IwAR2HEi3r7XBa59ZzBcJLB7ilHWTCbLLOEnevQh77NKOYGdbTYyjltkCW8P8,,,,,,,,,,,,,,,,,,,,,,,a,1,1.09,"[""0.174"",""0.519"",""0.627"",""0.878""]","[1,1,0,1]",0,30,30,30,1,0,0,,,0,FALSE,,,,,,,,,,,,,,,,,,,,,,,,,,,,,,,
,5f1b26dbd5dc042c9aedb7a4,627c6f73986a5daaea217e24,2022-05-12_04h24.30.882,classification_task,2021.2.3,Linux x86_64,60.0240096,627c6715c52fd12f31907bcf,IwAR2HEi3r7XBa59ZzBcJLB7ilHWTCbLLOEnevQh77NKOYGdbTYyjltkCW8P8,,,,,,,,,,,,,,,,,,,,,,,a,0,1.809,"[""0.652"",""0.411"",""0.574"",""0.689""]","[0,1,1,1]",0,31,31,31,1,1,1,,,0,FALSE,,,,,,,,,,,,,,,,,,,,,,,,,,,,,,,
,5f1b26dbd5dc042c9aedb7a4,627c6f73986a5daaea217e24,2022-05-12_04h24.30.882,classification_task,2021.2.3,Linux x86_64,60.0240096,627c6715c52fd12f31907bcf,IwAR2HEi3r7XBa59ZzBcJLB7ilHWTCbLLOEnevQh77NKOYGdbTYyjltkCW8P8,,,,,,,,,,,,,,,,,,,,,,,a,1,1.207,"[""0.174"",""0.519"",""0.238"",""0.878""]","[1,1,0,1]",0,32,32,32,1,0,0,,,0,FALSE,,,,,,,,,,,,,,,,,,,,,,,,,,,,,,,
,5f1b26dbd5dc042c9aedb7a4,627c6f73986a5daaea217e24,2022-05-12_04h24.30.882,classification_task,2021.2.3,Linux x86_64,60.0240096,627c6715c52fd12f31907bcf,IwAR2HEi3r7XBa59ZzBcJLB7ilHWTCbLLOEnevQh77NKOYGdbTYyjltkCW8P8,,,,,,,,,,,,,,,,,,,,,,,l,0,1.328,"[""0.272"",""0.238"",""0.921"",""0.963""]","[1,0,1,1]",0,33,33,33,1,0,1,,,0,FALSE,,,,,,,,,,,,,,,,,,,,,,,,,,,,,,,
,5f1b26dbd5dc042c9aedb7a4,627c6f73986a5daaea217e24,2022-05-12_04h24.30.882,classification_task,2021.2.3,Linux x86_64,60.0240096,627c6715c52fd12f31907bcf,IwAR2HEi3r7XBa59ZzBcJLB7ilHWTCbLLOEnevQh77NKOYGdbTYyjltkCW8P8,,,,,,,,,,,,,,,,,,,,,,,l,1,0.828,"[""0.843"",""0.307"",""0.457"",""0.734""]","[0,1,1,1]",0,34,34,34,1,1,0,,,0,FALSE,,,,,,,,,,,,,,,,,,,,,,,,,,,,,,,
,5f1b26dbd5dc042c9aedb7a4,627c6f73986a5daaea217e24,2022-05-12_04h24.30.882,classification_task,2021.2.3,Linux x86_64,60.0240096,627c6715c52fd12f31907bcf,IwAR2HEi3r7XBa59ZzBcJLB7ilHWTCbLLOEnevQh77NKOYGdbTYyjltkCW8P8,,,,,,,,,,,,,,,,,,,,,,,l,1,2.808,"[""0.069"",""0.411"",""0.574"",""0.652""]","[1,1,1,0]",0,35,35,35,1,1,1,,,0,FALSE,,,,,,,,,,,,,,,,,,,,,,,,,,,,,,,
,5f1b26dbd5dc042c9aedb7a4,627c6f73986a5daaea217e24,2022-05-12_04h24.30.882,classification_task,2021.2.3,Linux x86_64,60.0240096,627c6715c52fd12f31907bcf,IwAR2HEi3r7XBa59ZzBcJLB7ilHWTCbLLOEnevQh77NKOYGdbTYyjltkCW8P8,,,,,,,,,,,,,,,,,,,,,,,l,1,0.763,"[""0.069"",""0.411"",""0.609"",""0.689""]","[1,1,0,1]",0,36,36,36,1,1,1,,,0,FALSE,,,,,,,,,,,,,,,,,,,,,,,,,,,,,,,
,5f1b26dbd5dc042c9aedb7a4,627c6f73986a5daaea217e24,2022-05-12_04h24.30.882,classification_task,2021.2.3,Linux x86_64,60.0240096,627c6715c52fd12f31907bcf,IwAR2HEi3r7XBa59ZzBcJLB7ilHWTCbLLOEnevQh77NKOYGdbTYyjltkCW8P8,,,,,,,,,,,,,,,,,,,,,,,a,1,0.904,"[""0.174"",""0.233"",""0.780"",""0.878""]","[1,0,1,1]",0,37,37,37,1,0,0,,,0,FALSE,,,,,,,,,,,,,,,,,,,,,,,,,,,,,,,
,5f1b26dbd5dc042c9aedb7a4,627c6f73986a5daaea217e24,2022-05-12_04h24.30.882,classification_task,2021.2.3,Linux x86_64,60.0240096,627c6715c52fd12f31907bcf,IwAR2HEi3r7XBa59ZzBcJLB7ilHWTCbLLOEnevQh77NKOYGdbTYyjltkCW8P8,,,,,,,,,,,,,,,,,,,,,,,l,1,0.915,"[""0.111"",""0.632"",""0.457"",""0.734""]","[1,0,1,1]",0,38,38,38,1,1,0,,,0,FALSE,,,,,,,,,,,,,,,,,,,,,,,,,,,,,,,
,5f1b26dbd5dc042c9aedb7a4,627c6f73986a5daaea217e24,2022-05-12_04h24.30.882,classification_task,2021.2.3,Linux x86_64,60.0240096,627c6715c52fd12f31907bcf,IwAR2HEi3r7XBa59ZzBcJLB7ilHWTCbLLOEnevQh77NKOYGdbTYyjltkCW8P8,,,,,,,,,,,,,,,,,,,,,,,a,1,1.332,"[""0.272"",""0.346"",""0.844"",""0.963""]","[1,1,0,1]",0,39,39,39,1,0,1,,,0,FALSE,,,,,,,,,,,,,,,,,,,,,,,,,,,,,,,
,5f1b26dbd5dc042c9aedb7a4,627c6f73986a5daaea217e24,2022-05-12_04h24.30.882,classification_task,2021.2.3,Linux x86_64,60.0240096,627c6715c52fd12f31907bcf,IwAR2HEi3r7XBa59ZzBcJLB7ilHWTCbLLOEnevQh77NKOYGdbTYyjltkCW8P8,,,,,,,,,,,,,,,,,,,,,,,a,1,1.506,"[""0.174"",""0.519"",""0.780"",""0.609""]","[1,1,1,0]",0,40,40,40,1,0,0,,,0,FALSE,,,,,,,,,,,,,,,,,,,,,,,,,,,,,,,
,5f1b26dbd5dc042c9aedb7a4,627c6f73986a5daaea217e24,2022-05-12_04h24.30.882,classification_task,2021.2.3,Linux x86_64,60.0240096,627c6715c52fd12f31907bcf,IwAR2HEi3r7XBa59ZzBcJLB7ilHWTCbLLOEnevQh77NKOYGdbTYyjltkCW8P8,,,,,,,,,,,,,,,,,,,,,,,a,1,2.362,"[""0.623"",""0.346"",""0.921"",""0.963""]","[0,1,1,1]",0,41,41,41,1,0,1,,,0,FALSE,,,,,,,,,,,,,,,,,,,,,,,,,,,,,,,
,5f1b26dbd5dc042c9aedb7a4,627c6f73986a5daaea217e24,2022-05-12_04h24.30.882,classification_task,2021.2.3,Linux x86_64,60.0240096,627c6715c52fd12f31907bcf,IwAR2HEi3r7XBa59ZzBcJLB7ilHWTCbLLOEnevQh77NKOYGdbTYyjltkCW8P8,,,,,,,,,,,,,,,,,,,,,,,l,1,1.014,"[""0.111"",""0.307"",""0.457"",""0.233""]","[1,1,1,0]",0,42,42,42,1,1,0,,,0,FALSE,,,,,,,,,,,,,,,,,,,,,,,,,,,,,,,
,5f1b26dbd5dc042c9aedb7a4,627c6f73986a5daaea217e24,2022-05-12_04h24.30.882,classification_task,2021.2.3,Linux x86_64,60.0240096,627c6715c52fd12f31907bcf,IwAR2HEi3r7XBa59ZzBcJLB7ilHWTCbLLOEnevQh77NKOYGdbTYyjltkCW8P8,,,,,,,,,,,,,,,,,,,,,,,a,1,2.362,"[""0.272"",""0.346"",""0.921"",""0.610""]","[1,1,1,0]",0,43,43,43,1,0,1,,,0,FALSE,,,,,,,,,,,,,,,,,,,,,,,,,,,,,,,
,5f1b26dbd5dc042c9aedb7a4,627c6f73986a5daaea217e24,2022-05-12_04h24.30.882,classification_task,2021.2.3,Linux x86_64,60.0240096,627c6715c52fd12f31907bcf,IwAR2HEi3r7XBa59ZzBcJLB7ilHWTCbLLOEnevQh77NKOYGdbTYyjltkCW8P8,,,,,,,,,,,,,,,,,,,,,,,a,1,1.551,"[""0.632"",""0.519"",""0.780"",""0.878""]","[0,1,1,1]",0,44,44,44,1,0,0,,,0,FALSE,,,,,,,,,,,,,,,,,,,,,,,,,,,,,,,
,5f1b26dbd5dc042c9aedb7a4,627c6f73986a5daaea217e24,2022-05-12_04h24.30.882,classification_task,2021.2.3,Linux x86_64,60.0240096,627c6715c52fd12f31907bcf,IwAR2HEi3r7XBa59ZzBcJLB7ilHWTCbLLOEnevQh77NKOYGdbTYyjltkCW8P8,,,,,,,,,,,,,,,,,,,,,,,l,1,4.176,"[""0.623"",""0.411"",""0.574"",""0.689""]","[0,1,1,1]",0,45,45,45,1,1,1,,,0,FALSE,,,,,,,,,,,,,,,,,,,,,,,,,,,,,,,
,5f1b26dbd5dc042c9aedb7a4,627c6f73986a5daaea217e24,2022-05-12_04h24.30.882,classification_task,2021.2.3,Linux x86_64,60.0240096,627c6715c52fd12f31907bcf,IwAR2HEi3r7XBa59ZzBcJLB7ilHWTCbLLOEnevQh77NKOYGdbTYyjltkCW8P8,,,,,,,,,,,,,,,,,,,,,,,l,1,0.69,"[""0.111"",""0.307"",""0.840"",""0.734""]","[1,1,0,1]",0,46,46,46,1,1,0,,,0,FALSE,,,,,,,,,,,,,,,,,,,,,,,,,,,,,,,
,5f1b26dbd5dc042c9aedb7a4,627c6f73986a5daaea217e24,2022-05-12_04h24.30.882,classification_task,2021.2.3,Linux x86_64,60.0240096,627c6715c52fd12f31907bcf,IwAR2HEi3r7XBa59ZzBcJLB7ilHWTCbLLOEnevQh77NKOYGdbTYyjltkCW8P8,,,,,,,,,,,,,,,,,,,,,,,l,1,1.594,"[""0.069"",""0.027"",""0.574"",""0.689""]","[1,0,1,1]",0,47,47,47,1,1,1,,,0,FALSE,,,,,,,,,,,,,,,,,,,,,,,,,,,,,,,
,5f1b26dbd5dc042c9aedb7a4,627c6f73986a5daaea217e24,2022-05-12_04h24.30.882,classification_task,2021.2.3,Linux x86_64,60.0240096,627c6715c52fd12f31907bcf,IwAR2HEi3r7XBa59ZzBcJLB7ilHWTCbLLOEnevQh77NKOYGdbTYyjltkCW8P8,,,,,,,,,,,,,,,,,,,,,,,a,1,1.068,"[""0.272"",""0.632"",""0.921"",""0.963""]","[1,0,1,1]",0,48,48,48,1,0,1,,,0,FALSE,,,,,,,,,,,,,,,,,,,,,,,,,,,,,,,
,5f1b26dbd5dc042c9aedb7a4,627c6f73986a5daaea217e24,2022-05-12_04h24.30.882,classification_task,2021.2.3,Linux x86_64,60.0240096,627c6715c52fd12f31907bcf,IwAR2HEi3r7XBa59ZzBcJLB7ilHWTCbLLOEnevQh77NKOYGdbTYyjltkCW8P8,,,,,,,,,,,,,,,,,,,,,,,l,1,1.336,"[""0.069"",""0.610"",""0.574"",""0.689""]","[1,0,1,1]",0,49,49,49,1,1,1,,,0,FALSE,,,,,,,,,,,,,,,,,,,,,,,,,,,,,,,
,5f1b26dbd5dc042c9aedb7a4,627c6f73986a5daaea217e24,2022-05-12_04h24.30.882,classification_task,2021.2.3,Linux x86_64,60.0240096,627c6715c52fd12f31907bcf,IwAR2HEi3r7XBa59ZzBcJLB7ilHWTCbLLOEnevQh77NKOYGdbTYyjltkCW8P8,,,,,,,,,,,,,,,,,,,,,,,l,1,1.733,"[""0.069"",""0.411"",""0.574"",""0.235""]","[1,1,1,0]",0,50,50,50,1,1,1,,,0,FALSE,,,,,,,,,,,,,,,,,,,,,,,,,,,,,,,
,5f1b26dbd5dc042c9aedb7a4,627c6f73986a5daaea217e24,2022-05-12_04h24.30.882,classification_task,2021.2.3,Linux x86_64,60.0240096,627c6715c52fd12f31907bcf,IwAR2HEi3r7XBa59ZzBcJLB7ilHWTCbLLOEnevQh77NKOYGdbTYyjltkCW8P8,,,,,,,,,,,,,,,,,,,,,,,l,0,1,"[""0.272"",""0.346"",""0.840"",""0.963""]","[1,1,0,1]",0,51,51,51,1,0,1,,,0,FALSE,,,,,,,,,,,,,,,,,,,,,,,,,,,,,,,
,5f1b26dbd5dc042c9aedb7a4,627c6f73986a5daaea217e24,2022-05-12_04h24.30.882,classification_task,2021.2.3,Linux x86_64,60.0240096,627c6715c52fd12f31907bcf,IwAR2HEi3r7XBa59ZzBcJLB7ilHWTCbLLOEnevQh77NKOYGdbTYyjltkCW8P8,,,,,,,,,,,,,,,,,,,,,,,l,1,1.566,"[""0.111"",""0.609"",""0.457"",""0.734""]","[1,0,1,1]",0,52,52,52,1,1,0,,,0,FALSE,,,,,,,,,,,,,,,,,,,,,,,,,,,,,,,
,5f1b26dbd5dc042c9aedb7a4,627c6f73986a5daaea217e24,2022-05-12_04h24.30.882,classification_task,2021.2.3,Linux x86_64,60.0240096,627c6715c52fd12f31907bcf,IwAR2HEi3r7XBa59ZzBcJLB7ilHWTCbLLOEnevQh77NKOYGdbTYyjltkCW8P8,,,,,,,,,,,,,,,,,,,,,,,a,1,1.69,"[""0.272"",""0.346"",""0.921"",""0.238""]","[1,1,1,0]",0,53,53,53,1,0,1,,,0,FALSE,,,,,,,,,,,,,,,,,,,,,,,,,,,,,,,
,5f1b26dbd5dc042c9aedb7a4,627c6f73986a5daaea217e24,2022-05-12_04h24.30.882,classification_task,2021.2.3,Linux x86_64,60.0240096,627c6715c52fd12f31907bcf,IwAR2HEi3r7XBa59ZzBcJLB7ilHWTCbLLOEnevQh77NKOYGdbTYyjltkCW8P8,,,,,,,,,,,,,,,,,,,,,,,a,1,0.995,"[""0.610"",""0.346"",""0.921"",""0.963""]","[0,1,1,1]",0,54,54,54,1,0,1,,,0,FALSE,,,,,,,,,,,,,,,,,,,,,,,,,,,,,,,
,5f1b26dbd5dc042c9aedb7a4,627c6f73986a5daaea217e24,2022-05-12_04h24.30.882,classification_task,2021.2.3,Linux x86_64,60.0240096,627c6715c52fd12f31907bcf,IwAR2HEi3r7XBa59ZzBcJLB7ilHWTCbLLOEnevQh77NKOYGdbTYyjltkCW8P8,,,,,,,,,,,,,,,,,,,,,,,a,1,4.671,"[""0.174"",""0.519"",""0.780"",""0.840""]","[1,1,1,0]",0,55,55,55,1,0,0,,,0,FALSE,,,,,,,,,,,,,,,,,,,,,,,,,,,,,,,
,5f1b26dbd5dc042c9aedb7a4,627c6f73986a5daaea217e24,2022-05-12_04h24.30.882,classification_task,2021.2.3,Linux x86_64,60.0240096,627c6715c52fd12f31907bcf,IwAR2HEi3r7XBa59ZzBcJLB7ilHWTCbLLOEnevQh77NKOYGdbTYyjltkCW8P8,,,,,,,,,,,,,,,,,,,,,,,l,1,3.498,"[""0.111"",""0.307"",""0.457"",""0.027""]","[1,1,1,0]",0,56,56,56,1,1,0,,,0,FALSE,,,,,,,,,,,,,,,,,,,,,,,,,,,,,,,
,5f1b26dbd5dc042c9aedb7a4,627c6f73986a5daaea217e24,2022-05-12_04h24.30.882,classification_task,2021.2.3,Linux x86_64,60.0240096,627c6715c52fd12f31907bcf,IwAR2HEi3r7XBa59ZzBcJLB7ilHWTCbLLOEnevQh77NKOYGdbTYyjltkCW8P8,,,,,,,,,,,,,,,,,,,,,,,a,1,3.56,"[""0.174"",""0.519"",""0.632"",""0.878""]","[1,1,0,1]",0,57,57,57,1,0,0,,,0,FALSE,,,,,,,,,,,,,,,,,,,,,,,,,,,,,,,
,5f1b26dbd5dc042c9aedb7a4,627c6f73986a5daaea217e24,2022-05-12_04h24.30.882,classification_task,2021.2.3,Linux x86_64,60.0240096,627c6715c52fd12f31907bcf,IwAR2HEi3r7XBa59ZzBcJLB7ilHWTCbLLOEnevQh77NKOYGdbTYyjltkCW8P8,,,,,,,,,,,,,,,,,,,,,,,a,0,2.692,"[""0.627"",""0.411"",""0.574"",""0.689""]","[0,1,1,1]",0,58,58,58,1,1,1,,,0,FALSE,,,,,,,,,,,,,,,,,,,,,,,,,,,,,,,
,5f1b26dbd5dc042c9aedb7a4,627c6f73986a5daaea217e24,2022-05-12_04h24.30.882,classification_task,2021.2.3,Linux x86_64,60.0240096,627c6715c52fd12f31907bcf,IwAR2HEi3r7XBa59ZzBcJLB7ilHWTCbLLOEnevQh77NKOYGdbTYyjltkCW8P8,,,,,,,,,,,,,,,,,,,,,,,l,1,1.232,"[""0.069"",""0.411"",""0.609"",""0.689""]","[1,1,0,1]",0,59,59,59,1,1,1,,,0,FALSE,,,,,,,,,,,,,,,,,,,,,,,,,,,,,,,
,5f1b26dbd5dc042c9aedb7a4,627c6f73986a5daaea217e24,2022-05-12_04h24.30.882,classification_task,2021.2.3,Linux x86_64,60.0240096,627c6715c52fd12f31907bcf,IwAR2HEi3r7XBa59ZzBcJLB7ilHWTCbLLOEnevQh77NKOYGdbTYyjltkCW8P8,,,,,,,,,,,,,,,,,,,,,,,a,1,1.674,"[""0.174"",""0.652"",""0.780"",""0.878""]","[1,0,1,1]",0,60,60,60,1,0,0,,,0,FALSE,,,,,,,,,,,,,,,,,,,,,,,,,,,,,,,
,5f1b26dbd5dc042c9aedb7a4,627c6f73986a5daaea217e24,2022-05-12_04h24.30.882,classification_task,2021.2.3,Linux x86_64,60.0240096,627c6715c52fd12f31907bcf,IwAR2HEi3r7XBa59ZzBcJLB7ilHWTCbLLOEnevQh77NKOYGdbTYyjltkCW8P8,,,,,,,,,,,,,,,,,,,,,,,l,1,1.304,"[""0.843"",""0.307"",""0.457"",""0.734""]","[0,1,1,1]",0,61,61,61,1,1,0,,,0,FALSE,,,,,,,,,,,,,,,,,,,,,,,,,,,,,,,
,5f1b26dbd5dc042c9aedb7a4,627c6f73986a5daaea217e24,2022-05-12_04h24.30.882,classification_task,2021.2.3,Linux x86_64,60.0240096,627c6715c52fd12f31907bcf,IwAR2HEi3r7XBa59ZzBcJLB7ilHWTCbLLOEnevQh77NKOYGdbTYyjltkCW8P8,,,,,,,,,,,,,,,,,,,,,,,a,1,2.109,"[""0.233"",""0.519"",""0.780"",""0.878""]","[0,1,1,1]",0,62,62,62,1,0,0,,,0,FALSE,,,,,,,,,,,,,,,,,,,,,,,,,,,,,,,
,5f1b26dbd5dc042c9aedb7a4,627c6f73986a5daaea217e24,2022-05-12_04h24.30.882,classification_task,2021.2.3,Linux x86_64,60.0240096,627c6715c52fd12f31907bcf,IwAR2HEi3r7XBa59ZzBcJLB7ilHWTCbLLOEnevQh77NKOYGdbTYyjltkCW8P8,,,,,,,,,,,,,,,,,,,,,,,a,0,1.851,"[""0.111"",""0.307"",""0.644"",""0.734""]","[1,1,0,1]",0,63,63,63,1,1,0,,,0,FALSE,,,,,,,,,,,,,,,,,,,,,,,,,,,,,,,
,5f1b26dbd5dc042c9aedb7a4,627c6f73986a5daaea217e24,2022-05-12_04h24.30.882,classification_task,2021.2.3,Linux x86_64,60.0240096,627c6715c52fd12f31907bcf,IwAR2HEi3r7XBa59ZzBcJLB7ilHWTCbLLOEnevQh77NKOYGdbTYyjltkCW8P8,,,,,,,,,,,,,,,,,,,,,,,,,,,,,,,,,,,,,,,0, ,,0,7.008622379,174.927,0,1,1,1,1,2,2,,,,,,,,,,,,,,,,,,
,5f1b26dbd5dc042c9aedb7a4,627c6f73986a5daaea217e24,2022-05-12_04h24.30.882,classification_task,2021.2.3,Linux x86_64,60.0240096,627c6715c52fd12f31907bcf,IwAR2HEi3r7XBa59ZzBcJLB7ilHWTCbLLOEnevQh77NKOYGdbTYyjltkCW8P8,,,,,,,,,,,,,,,,,,,,,,,,,,,,,,,,,,,,,,,1,  ,,0,1.27669998,179.997,0,1,1,1,1,2,2,,,,,,,,,,,,,,,,,,
,5f1b26dbd5dc042c9aedb7a4,627c6f73986a5daaea217e24,2022-05-12_04h24.30.882,classification_task,2021.2.3,Linux x86_64,60.0240096,627c6715c52fd12f31907bcf,IwAR2HEi3r7XBa59ZzBcJLB7ilHWTCbLLOEnevQh77NKOYGdbTYyjltkCW8P8,,,,,,,,,,,,,,,,,,,,,,,,,,,,,,,,,,,,,,,2,  ,,0,0,181.866,0,1,1,1,1,2,2,,,,,,,,,,,,,,,,,,
,5f1b26dbd5dc042c9aedb7a4,627c6f73986a5daaea217e24,2022-05-12_04h24.30.882,classification_task,2021.2.3,Linux x86_64,60.0240096,627c6715c52fd12f31907bcf,IwAR2HEi3r7XBa59ZzBcJLB7ilHWTCbLLOEnevQh77NKOYGdbTYyjltkCW8P8,,,,,,,,,,,,,,,,,,,,,,,,,,,,,,,,,,,,,,,,,,,,,0,1,1,1,1,,2,,,,,,,,,,,,,,,,,,
,5f1b26dbd5dc042c9aedb7a4,627c6f73986a5daaea217e24,2022-05-12_04h24.30.882,classification_task,2021.2.3,Linux x86_64,60.0240096,627c6715c52fd12f31907bcf,IwAR2HEi3r7XBa59ZzBcJLB7ilHWTCbLLOEnevQh77NKOYGdbTYyjltkCW8P8,,,,,,,,,,,,,,,,,,,,,space,8.78,a,1,2.909,"[""0.174"",""0.519"",""0.627"",""0.878""]","[1,1,0,1]",0,0,0,0,1,0,0,,,0,FALSE,,,,,,,,,,,,,,,,,,,,,,,,,,,,,,,
,5f1b26dbd5dc042c9aedb7a4,627c6f73986a5daaea217e24,2022-05-12_04h24.30.882,classification_task,2021.2.3,Linux x86_64,60.0240096,627c6715c52fd12f31907bcf,IwAR2HEi3r7XBa59ZzBcJLB7ilHWTCbLLOEnevQh77NKOYGdbTYyjltkCW8P8,,,,,,,,,,,,,,,,,,,,,,,l,1,1.168,"[""0.069"",""0.844"",""0.574"",""0.689""]","[1,0,1,1]",0,1,1,1,1,1,1,,,0,FALSE,,,,,,,,,,,,,,,,,,,,,,,,,,,,,,,
,5f1b26dbd5dc042c9aedb7a4,627c6f73986a5daaea217e24,2022-05-12_04h24.30.882,classification_task,2021.2.3,Linux x86_64,60.0240096,627c6715c52fd12f31907bcf,IwAR2HEi3r7XBa59ZzBcJLB7ilHWTCbLLOEnevQh77NKOYGdbTYyjltkCW8P8,,,,,,,,,,,,,,,,,,,,,,,a,0,2.484,"[""0.111"",""0.307"",""0.627"",""0.734""]","[1,1,0,1]",0,2,2,2,1,1,0,,,0,FALSE,,,,,,,,,,,,,,,,,,,,,,,,,,,,,,,
,5f1b26dbd5dc042c9aedb7a4,627c6f73986a5daaea217e24,2022-05-12_04h24.30.882,classification_task,2021.2.3,Linux x86_64,60.0240096,627c6715c52fd12f31907bcf,IwAR2HEi3r7XBa59ZzBcJLB7ilHWTCbLLOEnevQh77NKOYGdbTYyjltkCW8P8,,,,,,,,,,,,,,,,,,,,,,,a,0,1.578,"[""0.111"",""0.843"",""0.457"",""0.734""]","[1,0,1,1]",0,3,3,3,1,1,0,,,0,FALSE,,,,,,,,,,,,,,,,,,,,,,,,,,,,,,,
,5f1b26dbd5dc042c9aedb7a4,627c6f73986a5daaea217e24,2022-05-12_04h24.30.882,classification_task,2021.2.3,Linux x86_64,60.0240096,627c6715c52fd12f31907bcf,IwAR2HEi3r7XBa59ZzBcJLB7ilHWTCbLLOEnevQh77NKOYGdbTYyjltkCW8P8,,,,,,,,,,,,,,,,,,,,,,,a,1,2.294,"[""0.272"",""0.346"",""0.921"",""0.652""]","[1,1,1,0]",0,4,4,4,1,0,1,,,0,FALSE,,,,,,,,,,,,,,,,,,,,,,,,,,,,,,,
,5f1b26dbd5dc042c9aedb7a4,627c6f73986a5daaea217e24,2022-05-12_04h24.30.882,classification_task,2021.2.3,Linux x86_64,60.0240096,627c6715c52fd12f31907bcf,IwAR2HEi3r7XBa59ZzBcJLB7ilHWTCbLLOEnevQh77NKOYGdbTYyjltkCW8P8,,,,,,,,,,,,,,,,,,,,,,,l,1,1.023,"[""0.638"",""0.307"",""0.457"",""0.734""]","[0,1,1,1]",0,5,5,5,1,1,0,,,0,FALSE,,,,,,,,,,,,,,,,,,,,,,,,,,,,,,,
,5f1b26dbd5dc042c9aedb7a4,627c6f73986a5daaea217e24,2022-05-12_04h24.30.882,classification_task,2021.2.3,Linux x86_64,60.0240096,627c6715c52fd12f31907bcf,IwAR2HEi3r7XBa59ZzBcJLB7ilHWTCbLLOEnevQh77NKOYGdbTYyjltkCW8P8,,,,,,,,,,,,,,,,,,,,,,,l,1,1.04,"[""0.069"",""0.411"",""0.233"",""0.689""]","[1,1,0,1]",0,6,6,6,1,1,1,,,0,FALSE,,,,,,,,,,,,,,,,,,,,,,,,,,,,,,,
,5f1b26dbd5dc042c9aedb7a4,627c6f73986a5daaea217e24,2022-05-12_04h24.30.882,classification_task,2021.2.3,Linux x86_64,60.0240096,627c6715c52fd12f31907bcf,IwAR2HEi3r7XBa59ZzBcJLB7ilHWTCbLLOEnevQh77NKOYGdbTYyjltkCW8P8,,,,,,,,,,,,,,,,,,,,,,,l,0,1.53,"[""0.174"",""0.519"",""0.780"",""0.644""]","[1,1,1,0]",0,7,7,7,1,0,0,,,0,FALSE,,,,,,,,,,,,,,,,,,,,,,,,,,,,,,,
,5f1b26dbd5dc042c9aedb7a4,627c6f73986a5daaea217e24,2022-05-12_04h24.30.882,classification_task,2021.2.3,Linux x86_64,60.0240096,627c6715c52fd12f31907bcf,IwAR2HEi3r7XBa59ZzBcJLB7ilHWTCbLLOEnevQh77NKOYGdbTYyjltkCW8P8,,,,,,,,,,,,,,,,,,,,,,,l,0,1.538,"[""0.233"",""0.519"",""0.780"",""0.878""]","[0,1,1,1]",0,8,8,8,1,0,0,,,0,FALSE,,,,,,,,,,,,,,,,,,,,,,,,,,,,,,,
,5f1b26dbd5dc042c9aedb7a4,627c6f73986a5daaea217e24,2022-05-12_04h24.30.882,classification_task,2021.2.3,Linux x86_64,60.0240096,627c6715c52fd12f31907bcf,IwAR2HEi3r7XBa59ZzBcJLB7ilHWTCbLLOEnevQh77NKOYGdbTYyjltkCW8P8,,,,,,,,,,,,,,,,,,,,,,,l,1,1.232,"[""0.069"",""0.411"",""0.574"",""0.229""]","[1,1,1,0]",0,9,9,9,1,1,1,,,0,FALSE,,,,,,,,,,,,,,,,,,,,,,,,,,,,,,,
,5f1b26dbd5dc042c9aedb7a4,627c6f73986a5daaea217e24,2022-05-12_04h24.30.882,classification_task,2021.2.3,Linux x86_64,60.0240096,627c6715c52fd12f31907bcf,IwAR2HEi3r7XBa59ZzBcJLB7ilHWTCbLLOEnevQh77NKOYGdbTYyjltkCW8P8,,,,,,,,,,,,,,,,,,,,,,,a,1,1.002,"[""0.272"",""0.644"",""0.921"",""0.963""]","[1,0,1,1]",0,10,10,10,1,0,1,,,0,FALSE,,,,,,,,,,,,,,,,,,,,,,,,,,,,,,,
,5f1b26dbd5dc042c9aedb7a4,627c6f73986a5daaea217e24,2022-05-12_04h24.30.882,classification_task,2021.2.3,Linux x86_64,60.0240096,627c6715c52fd12f31907bcf,IwAR2HEi3r7XBa59ZzBcJLB7ilHWTCbLLOEnevQh77NKOYGdbTYyjltkCW8P8,,,,,,,,,,,,,,,,,,,,,,,a,1,1.434,"[""0.174"",""0.644"",""0.780"",""0.878""]","[1,0,1,1]",0,11,11,11,1,0,0,,,0,FALSE,,,,,,,,,,,,,,,,,,,,,,,,,,,,,,,
,5f1b26dbd5dc042c9aedb7a4,627c6f73986a5daaea217e24,2022-05-12_04h24.30.882,classification_task,2021.2.3,Linux x86_64,60.0240096,627c6715c52fd12f31907bcf,IwAR2HEi3r7XBa59ZzBcJLB7ilHWTCbLLOEnevQh77NKOYGdbTYyjltkCW8P8,,,,,,,,,,,,,,,,,,,,,,,l,1,2.474,"[""0.632"",""0.411"",""0.574"",""0.689""]","[0,1,1,1]",0,12,12,12,1,1,1,,,0,FALSE,,,,,,,,,,,,,,,,,,,,,,,,,,,,,,,
,5f1b26dbd5dc042c9aedb7a4,627c6f73986a5daaea217e24,2022-05-12_04h24.30.882,classification_task,2021.2.3,Linux x86_64,60.0240096,627c6715c52fd12f31907bcf,IwAR2HEi3r7XBa59ZzBcJLB7ilHWTCbLLOEnevQh77NKOYGdbTYyjltkCW8P8,,,,,,,,,,,,,,,,,,,,,,,a,1,1.491,"[""0.272"",""0.346"",""0.652"",""0.963""]","[1,1,0,1]",0,13,13,13,1,0,1,,,0,FALSE,,,,,,,,,,,,,,,,,,,,,,,,,,,,,,,
,5f1b26dbd5dc042c9aedb7a4,627c6f73986a5daaea217e24,2022-05-12_04h24.30.882,classification_task,2021.2.3,Linux x86_64,60.0240096,627c6715c52fd12f31907bcf,IwAR2HEi3r7XBa59ZzBcJLB7ilHWTCbLLOEnevQh77NKOYGdbTYyjltkCW8P8,,,,,,,,,,,,,,,,,,,,,,,a,0,1.57,"[""0.111"",""0.307"",""0.457"",""0.238""]","[1,1,1,0]",0,14,14,14,1,1,0,,,0,FALSE,,,,,,,,,,,,,,,,,,,,,,,,,,,,,,,
,5f1b26dbd5dc042c9aedb7a4,627c6f73986a5daaea217e24,2022-05-12_04h24.30.882,classification_task,2021.2.3,Linux x86_64,60.0240096,627c6715c52fd12f31907bcf,IwAR2HEi3r7XBa59ZzBcJLB7ilHWTCbLLOEnevQh77NKOYGdbTYyjltkCW8P8,,,,,,,,,,,,,,,,,,,,,,,l,0,1.496,"[""0.843"",""0.346"",""0.921"",""0.963""]","[0,1,1,1]",0,15,15,15,1,0,1,,,0,FALSE,,,,,,,,,,,,,,,,,,,,,,,,,,,,,,,
,5f1b26dbd5dc042c9aedb7a4,627c6f73986a5daaea217e24,2022-05-12_04h24.30.882,classification_task,2021.2.3,Linux x86_64,60.0240096,627c6715c52fd12f31907bcf,IwAR2HEi3r7XBa59ZzBcJLB7ilHWTCbLLOEnevQh77NKOYGdbTYyjltkCW8P8,,,,,,,,,,,,,,,,,,,,,,,a,0,1.503,"[""0.069"",""0.411"",""0.610"",""0.689""]","[1,1,0,1]",0,16,16,16,1,1,1,,,0,FALSE,,,,,,,,,,,,,,,,,,,,,,,,,,,,,,,
,5f1b26dbd5dc042c9aedb7a4,627c6f73986a5daaea217e24,2022-05-12_04h24.30.882,classification_task,2021.2.3,Linux x86_64,60.0240096,627c6715c52fd12f31907bcf,IwAR2HEi3r7XBa59ZzBcJLB7ilHWTCbLLOEnevQh77NKOYGdbTYyjltkCW8P8,,,,,,,,,,,,,,,,,,,,,,,l,1,0.882,"[""0.610"",""0.411"",""0.574"",""0.689""]","[0,1,1,1]",0,17,17,17,1,1,1,,,0,FALSE,,,,,,,,,,,,,,,,,,,,,,,,,,,,,,,
,5f1b26dbd5dc042c9aedb7a4,627c6f73986a5daaea217e24,2022-05-12_04h24.30.882,classification_task,2021.2.3,Linux x86_64,60.0240096,627c6715c52fd12f31907bcf,IwAR2HEi3r7XBa59ZzBcJLB7ilHWTCbLLOEnevQh77NKOYGdbTYyjltkCW8P8,,,,,,,,,,,,,,,,,,,,,,,a,0,2.348,"[""0.069"",""0.638"",""0.574"",""0.689""]","[1,0,1,1]",0,18,18,18,1,1,1,,,0,FALSE,,,,,,,,,,,,,,,,,,,,,,,,,,,,,,,
,5f1b26dbd5dc042c9aedb7a4,627c6f73986a5daaea217e24,2022-05-12_04h24.30.882,classification_task,2021.2.3,Linux x86_64,60.0240096,627c6715c52fd12f31907bcf,IwAR2HEi3r7XBa59ZzBcJLB7ilHWTCbLLOEnevQh77NKOYGdbTYyjltkCW8P8,,,,,,,,,,,,,,,,,,,,,,,l,0,2.219,"[""0.652"",""0.519"",""0.780"",""0.878""]","[0,1,1,1]",0,19,19,19,1,0,0,,,0,FALSE,,,,,,,,,,,,,,,,,,,,,,,,,,,,,,,
,5f1b26dbd5dc042c9aedb7a4,627c6f73986a5daaea217e24,2022-05-12_04h24.30.882,classification_task,2021.2.3,Linux x86_64,60.0240096,627c6715c52fd12f31907bcf,IwAR2HEi3r7XBa59ZzBcJLB7ilHWTCbLLOEnevQh77NKOYGdbTYyjltkCW8P8,,,,,,,,,,,,,,,,,,,,,,,a,0,1.67,"[""0.069"",""0.411"",""0.574"",""0.609""]","[1,1,1,0]",0,20,20,20,1,1,1,,,0,FALSE,,,,,,,,,,,,,,,,,,,,,,,,,,,,,,,
,5f1b26dbd5dc042c9aedb7a4,627c6f73986a5daaea217e24,2022-05-12_04h24.30.882,classification_task,2021.2.3,Linux x86_64,60.0240096,627c6715c52fd12f31907bcf,IwAR2HEi3r7XBa59ZzBcJLB7ilHWTCbLLOEnevQh77NKOYGdbTYyjltkCW8P8,,,,,,,,,,,,,,,,,,,,,,,l,0,1.374,"[""0.272"",""0.346"",""0.027"",""0.963""]","[1,1,0,1]",0,21,21,21,1,0,1,,,0,FALSE,,,,,,,,,,,,,,,,,,,,,,,,,,,,,,,
,5f1b26dbd5dc042c9aedb7a4,627c6f73986a5daaea217e24,2022-05-12_04h24.30.882,classification_task,2021.2.3,Linux x86_64,60.0240096,627c6715c52fd12f31907bcf,IwAR2HEi3r7XBa59ZzBcJLB7ilHWTCbLLOEnevQh77NKOYGdbTYyjltkCW8P8,,,,,,,,,,,,,,,,,,,,,,,l,0,1.547,"[""0.174"",""0.233"",""0.780"",""0.878""]","[1,0,1,1]",0,22,22,22,1,0,0,,,0,FALSE,,,,,,,,,,,,,,,,,,,,,,,,,,,,,,,
,5f1b26dbd5dc042c9aedb7a4,627c6f73986a5daaea217e24,2022-05-12_04h24.30.882,classification_task,2021.2.3,Linux x86_64,60.0240096,627c6715c52fd12f31907bcf,IwAR2HEi3r7XBa59ZzBcJLB7ilHWTCbLLOEnevQh77NKOYGdbTYyjltkCW8P8,,,,,,,,,,,,,,,,,,,,,,,l,1,1.97,"[""0.229"",""0.307"",""0.457"",""0.734""]","[0,1,1,1]",0,23,23,23,1,1,0,,,0,FALSE,,,,,,,,,,,,,,,,,,,,,,,,,,,,,,,
,5f1b26dbd5dc042c9aedb7a4,627c6f73986a5daaea217e24,2022-05-12_04h24.30.882,classification_task,2021.2.3,Linux x86_64,60.0240096,627c6715c52fd12f31907bcf,IwAR2HEi3r7XBa59ZzBcJLB7ilHWTCbLLOEnevQh77NKOYGdbTYyjltkCW8P8,,,,,,,,,,,,,,,,,,,,,,,a,0,1.067,"[""0.111"",""0.307"",""0.457"",""0.843""]","[1,1,1,0]",0,24,24,24,1,1,0,,,0,FALSE,,,,,,,,,,,,,,,,,,,,,,,,,,,,,,,
,5f1b26dbd5dc042c9aedb7a4,627c6f73986a5daaea217e24,2022-05-12_04h24.30.882,classification_task,2021.2.3,Linux x86_64,60.0240096,627c6715c52fd12f31907bcf,IwAR2HEi3r7XBa59ZzBcJLB7ilHWTCbLLOEnevQh77NKOYGdbTYyjltkCW8P8,,,,,,,,,,,,,,,,,,,,,,,a,1,1.273,"[""0.272"",""0.840"",""0.921"",""0.963""]","[1,0,1,1]",0,25,25,25,1,0,1,,,0,FALSE,,,,,,,,,,,,,,,,,,,,,,,,,,,,,,,
,5f1b26dbd5dc042c9aedb7a4,627c6f73986a5daaea217e24,2022-05-12_04h24.30.882,classification_task,2021.2.3,Linux x86_64,60.0240096,627c6715c52fd12f31907bcf,IwAR2HEi3r7XBa59ZzBcJLB7ilHWTCbLLOEnevQh77NKOYGdbTYyjltkCW8P8,,,,,,,,,,,,,,,,,,,,,,,a,1,1.405,"[""0.272"",""0.346"",""0.921"",""0.638""]","[1,1,1,0]",0,26,26,26,1,0,1,,,0,FALSE,,,,,,,,,,,,,,,,,,,,,,,,,,,,,,,
,5f1b26dbd5dc042c9aedb7a4,627c6f73986a5daaea217e24,2022-05-12_04h24.30.882,classification_task,2021.2.3,Linux x86_64,60.0240096,627c6715c52fd12f31907bcf,IwAR2HEi3r7XBa59ZzBcJLB7ilHWTCbLLOEnevQh77NKOYGdbTYyjltkCW8P8,,,,,,,,,,,,,,,,,,,,,,,a,1,1.464,"[""0.174"",""0.519"",""0.623"",""0.878""]","[1,1,0,1]",0,27,27,27,1,0,0,,,0,FALSE,,,,,,,,,,,,,,,,,,,,,,,,,,,,,,,
,5f1b26dbd5dc042c9aedb7a4,627c6f73986a5daaea217e24,2022-05-12_04h24.30.882,classification_task,2021.2.3,Linux x86_64,60.0240096,627c6715c52fd12f31907bcf,IwAR2HEi3r7XBa59ZzBcJLB7ilHWTCbLLOEnevQh77NKOYGdbTYyjltkCW8P8,,,,,,,,,,,,,,,,,,,,,,,l,0,2.563,"[""0.027"",""0.346"",""0.921"",""0.963""]","[0,1,1,1]",0,28,28,28,1,0,1,,,0,FALSE,,,,,,,,,,,,,,,,,,,,,,,,,,,,,,,
,5f1b26dbd5dc042c9aedb7a4,627c6f73986a5daaea217e24,2022-05-12_04h24.30.882,classification_task,2021.2.3,Linux x86_64,60.0240096,627c6715c52fd12f31907bcf,IwAR2HEi3r7XBa59ZzBcJLB7ilHWTCbLLOEnevQh77NKOYGdbTYyjltkCW8P8,,,,,,,,,,,,,,,,,,,,,,,l,1,1.915,"[""0.111"",""0.307"",""0.627"",""0.734""]","[1,1,0,1]",0,29,29,29,1,1,0,,,0,FALSE,,,,,,,,,,,,,,,,,,,,,,,,,,,,,,,
,5f1b26dbd5dc042c9aedb7a4,627c6f73986a5daaea217e24,2022-05-12_04h24.30.882,classification_task,2021.2.3,Linux x86_64,60.0240096,627c6715c52fd12f31907bcf,IwAR2HEi3r7XBa59ZzBcJLB7ilHWTCbLLOEnevQh77NKOYGdbTYyjltkCW8P8,,,,,,,,,,,,,,,,,,,,,,,a,1,1.92,"[""0.174"",""0.519"",""0.780"",""0.610""]","[1,1,1,0]",0,30,30,30,1,0,0,,,0,FALSE,,,,,,,,,,,,,,,,,,,,,,,,,,,,,,,
,5f1b26dbd5dc042c9aedb7a4,627c6f73986a5daaea217e24,2022-05-12_04h24.30.882,classification_task,2021.2.3,Linux x86_64,60.0240096,627c6715c52fd12f31907bcf,IwAR2HEi3r7XBa59ZzBcJLB7ilHWTCbLLOEnevQh77NKOYGdbTYyjltkCW8P8,,,,,,,,,,,,,,,,,,,,,,,l,1,2.8,"[""0.111"",""0.238"",""0.457"",""0.734""]","[1,0,1,1]",0,31,31,31,1,1,0,,,0,FALSE,,,,,,,,,,,,,,,,,,,,,,,,,,,,,,,
,5f1b26dbd5dc042c9aedb7a4,627c6f73986a5daaea217e24,2022-05-12_04h24.30.882,classification_task,2021.2.3,Linux x86_64,60.0240096,627c6715c52fd12f31907bcf,IwAR2HEi3r7XBa59ZzBcJLB7ilHWTCbLLOEnevQh77NKOYGdbTYyjltkCW8P8,,,,,,,,,,,,,,,,,,,,,,,l,1,2.57,"[""0.111"",""0.307"",""0.027"",""0.734""]","[1,1,0,1]",0,32,32,32,1,1,0,,,0,FALSE,,,,,,,,,,,,,,,,,,,,,,,,,,,,,,,
,5f1b26dbd5dc042c9aedb7a4,627c6f73986a5daaea217e24,2022-05-12_04h24.30.882,classification_task,2021.2.3,Linux x86_64,60.0240096,627c6715c52fd12f31907bcf,IwAR2HEi3r7XBa59ZzBcJLB7ilHWTCbLLOEnevQh77NKOYGdbTYyjltkCW8P8,,,,,,,,,,,,,,,,,,,,,,,a,0,1.088,"[""0.235"",""0.411"",""0.574"",""0.689""]","[0,1,1,1]",0,33,33,33,1,1,1,,,0,FALSE,,,,,,,,,,,,,,,,,,,,,,,,,,,,,,,
,5f1b26dbd5dc042c9aedb7a4,627c6f73986a5daaea217e24,2022-05-12_04h24.30.882,classification_task,2021.2.3,Linux x86_64,60.0240096,627c6715c52fd12f31907bcf,IwAR2HEi3r7XBa59ZzBcJLB7ilHWTCbLLOEnevQh77NKOYGdbTYyjltkCW8P8,,,,,,,,,,,,,,,,,,,,,,,l,1,1.165,"[""0.069"",""0.411"",""0.632"",""0.689""]","[1,1,0,1]",0,34,34,34,1,1,1,,,0,FALSE,,,,,,,,,,,,,,,,,,,,,,,,,,,,,,,
,5f1b26dbd5dc042c9aedb7a4,627c6f73986a5daaea217e24,2022-05-12_04h24.30.882,classification_task,2021.2.3,Linux x86_64,60.0240096,627c6715c52fd12f31907bcf,IwAR2HEi3r7XBa59ZzBcJLB7ilHWTCbLLOEnevQh77NKOYGdbTYyjltkCW8P8,,,,,,,,,,,,,,,,,,,,,,,a,1,2.518,"[""0.272"",""0.346"",""0.921"",""0.235""]","[1,1,1,0]",0,35,35,35,1,0,1,,,0,FALSE,,,,,,,,,,,,,,,,,,,,,,,,,,,,,,,
,5f1b26dbd5dc042c9aedb7a4,627c6f73986a5daaea217e24,2022-05-12_04h24.30.882,classification_task,2021.2.3,Linux x86_64,60.0240096,627c6715c52fd12f31907bcf,IwAR2HEi3r7XBa59ZzBcJLB7ilHWTCbLLOEnevQh77NKOYGdbTYyjltkCW8P8,,,,,,,,,,,,,,,,,,,,,,,l,1,1.52,"[""0.111"",""0.627"",""0.457"",""0.734""]","[1,0,1,1]",0,36,36,36,1,1,0,,,0,FALSE,,,,,,,,,,,,,,,,,,,,,,,,,,,,,,,
,5f1b26dbd5dc042c9aedb7a4,627c6f73986a5daaea217e24,2022-05-12_04h24.30.882,classification_task,2021.2.3,Linux x86_64,60.0240096,627c6715c52fd12f31907bcf,IwAR2HEi3r7XBa59ZzBcJLB7ilHWTCbLLOEnevQh77NKOYGdbTYyjltkCW8P8,,,,,,,,,,,,,,,,,,,,,,,a,0,1.203,"[""0.632"",""0.307"",""0.457"",""0.734""]","[0,1,1,1]",0,37,37,37,1,1,0,,,0,FALSE,,,,,,,,,,,,,,,,,,,,,,,,,,,,,,,
,5f1b26dbd5dc042c9aedb7a4,627c6f73986a5daaea217e24,2022-05-12_04h24.30.882,classification_task,2021.2.3,Linux x86_64,60.0240096,627c6715c52fd12f31907bcf,IwAR2HEi3r7XBa59ZzBcJLB7ilHWTCbLLOEnevQh77NKOYGdbTYyjltkCW8P8,,,,,,,,,,,,,,,,,,,,,,,a,1,1.138,"[""0.272"",""0.346"",""0.233"",""0.963""]","[1,1,0,1]",0,38,38,38,1,0,1,,,0,FALSE,,,,,,,,,,,,,,,,,,,,,,,,,,,,,,,
,5f1b26dbd5dc042c9aedb7a4,627c6f73986a5daaea217e24,2022-05-12_04h24.30.882,classification_task,2021.2.3,Linux x86_64,60.0240096,627c6715c52fd12f31907bcf,IwAR2HEi3r7XBa59ZzBcJLB7ilHWTCbLLOEnevQh77NKOYGdbTYyjltkCW8P8,,,,,,,,,,,,,,,,,,,,,,,l,0,1.313,"[""0.174"",""0.519"",""0.609"",""0.878""]","[1,1,0,1]",0,39,39,39,1,0,0,,,0,FALSE,,,,,,,,,,,,,,,,,,,,,,,,,,,,,,,
,5f1b26dbd5dc042c9aedb7a4,627c6f73986a5daaea217e24,2022-05-12_04h24.30.882,classification_task,2021.2.3,Linux x86_64,60.0240096,627c6715c52fd12f31907bcf,IwAR2HEi3r7XBa59ZzBcJLB7ilHWTCbLLOEnevQh77NKOYGdbTYyjltkCW8P8,,,,,,,,,,,,,,,,,,,,,,,l,0,0.71,"[""0.174"",""0.644"",""0.780"",""0.878""]","[1,0,1,1]",0,40,40,40,1,0,0,,,0,FALSE,,,,,,,,,,,,,,,,,,,,,,,,,,,,,,,
,5f1b26dbd5dc042c9aedb7a4,627c6f73986a5daaea217e24,2022-05-12_04h24.30.882,classification_task,2021.2.3,Linux x86_64,60.0240096,627c6715c52fd12f31907bcf,IwAR2HEi3r7XBa59ZzBcJLB7ilHWTCbLLOEnevQh77NKOYGdbTYyjltkCW8P8,,,,,,,,,,,,,,,,,,,,,,,a,0,0.628,"[""0.069"",""0.411"",""0.574"",""0.844""]","[1,1,1,0]",0,41,41,41,1,1,1,,,0,FALSE,,,,,,,,,,,,,,,,,,,,,,,,,,,,,,,
,5f1b26dbd5dc042c9aedb7a4,627c6f73986a5daaea217e24,2022-05-12_04h24.30.882,classification_task,2021.2.3,Linux x86_64,60.0240096,627c6715c52fd12f31907bcf,IwAR2HEi3r7XBa59ZzBcJLB7ilHWTCbLLOEnevQh77NKOYGdbTYyjltkCW8P8,,,,,,,,,,,,,,,,,,,,,,,l,0,1.653,"[""0.843"",""0.519"",""0.780"",""0.878""]","[0,1,1,1]",0,42,42,42,1,0,0,,,0,FALSE,,,,,,,,,,,,,,,,,,,,,,,,,,,,,,,
,5f1b26dbd5dc042c9aedb7a4,627c6f73986a5daaea217e24,2022-05-12_04h24.30.882,classification_task,2021.2.3,Linux x86_64,60.0240096,627c6715c52fd12f31907bcf,IwAR2HEi3r7XBa59ZzBcJLB7ilHWTCbLLOEnevQh77NKOYGdbTYyjltkCW8P8,,,,,,,,,,,,,,,,,,,,,,,l,0,0.762,"[""0.027"",""0.346"",""0.921"",""0.963""]","[0,1,1,1]",0,43,43,43,1,0,1,,,0,FALSE,,,,,,,,,,,,,,,,,,,,,,,,,,,,,,,
,5f1b26dbd5dc042c9aedb7a4,627c6f73986a5daaea217e24,2022-05-12_04h24.30.882,classification_task,2021.2.3,Linux x86_64,60.0240096,627c6715c52fd12f31907bcf,IwAR2HEi3r7XBa59ZzBcJLB7ilHWTCbLLOEnevQh77NKOYGdbTYyjltkCW8P8,,,,,,,,,,,,,,,,,,,,,,,l,0,1.367,"[""0.272"",""0.238"",""0.921"",""0.963""]","[1,0,1,1]",0,44,44,44,1,0,1,,,0,FALSE,,,,,,,,,,,,,,,,,,,,,,,,,,,,,,,
,5f1b26dbd5dc042c9aedb7a4,627c6f73986a5daaea217e24,2022-05-12_04h24.30.882,classification_task,2021.2.3,Linux x86_64,60.0240096,627c6715c52fd12f31907bcf,IwAR2HEi3r7XBa59ZzBcJLB7ilHWTCbLLOEnevQh77NKOYGdbTYyjltkCW8P8,,,,,,,,,,,,,,,,,,,,,,,l,1,2.859,"[""0.111"",""0.307"",""0.457"",""0.609""]","[1,1,1,0]",0,45,45,45,1,1,0,,,0,FALSE,,,,,,,,,,,,,,,,,,,,,,,,,,,,,,,
,5f1b26dbd5dc042c9aedb7a4,627c6f73986a5daaea217e24,2022-05-12_04h24.30.882,classification_task,2021.2.3,Linux x86_64,60.0240096,627c6715c52fd12f31907bcf,IwAR2HEi3r7XBa59ZzBcJLB7ilHWTCbLLOEnevQh77NKOYGdbTYyjltkCW8P8,,,,,,,,,,,,,,,,,,,,,,,l,0,1.147,"[""0.174"",""0.519"",""0.780"",""0.627""]","[1,1,1,0]",0,46,46,46,1,0,0,,,0,FALSE,,,,,,,,,,,,,,,,,,,,,,,,,,,,,,,
,5f1b26dbd5dc042c9aedb7a4,627c6f73986a5daaea217e24,2022-05-12_04h24.30.882,classification_task,2021.2.3,Linux x86_64,60.0240096,627c6715c52fd12f31907bcf,IwAR2HEi3r7XBa59ZzBcJLB7ilHWTCbLLOEnevQh77NKOYGdbTYyjltkCW8P8,,,,,,,,,,,,,,,,,,,,,,,l,1,2.903,"[""0.069"",""0.840"",""0.574"",""0.689""]","[1,0,1,1]",0,47,47,47,1,1,1,,,0,FALSE,,,,,,,,,,,,,,,,,,,,,,,,,,,,,,,
,5f1b26dbd5dc042c9aedb7a4,627c6f73986a5daaea217e24,2022-05-12_04h24.30.882,classification_task,2021.2.3,Linux x86_64,60.0240096,627c6715c52fd12f31907bcf,IwAR2HEi3r7XBa59ZzBcJLB7ilHWTCbLLOEnevQh77NKOYGdbTYyjltkCW8P8,,,,,,,,,,,,,,,,,,,,,,,a,1,1.426,"[""0.235"",""0.519"",""0.780"",""0.878""]","[0,1,1,1]",0,48,48,48,1,0,0,,,0,FALSE,,,,,,,,,,,,,,,,,,,,,,,,,,,,,,,
,5f1b26dbd5dc042c9aedb7a4,627c6f73986a5daaea217e24,2022-05-12_04h24.30.882,classification_task,2021.2.3,Linux x86_64,60.0240096,627c6715c52fd12f31907bcf,IwAR2HEi3r7XBa59ZzBcJLB7ilHWTCbLLOEnevQh77NKOYGdbTYyjltkCW8P8,,,,,,,,,,,,,,,,,,,,,,,a,1,1.214,"[""0.272"",""0.346"",""0.229"",""0.963""]","[1,1,0,1]",0,49,49,49,1,0,1,,,0,FALSE,,,,,,,,,,,,,,,,,,,,,,,,,,,,,,,
,5f1b26dbd5dc042c9aedb7a4,627c6f73986a5daaea217e24,2022-05-12_04h24.30.882,classification_task,2021.2.3,Linux x86_64,60.0240096,627c6715c52fd12f31907bcf,IwAR2HEi3r7XBa59ZzBcJLB7ilHWTCbLLOEnevQh77NKOYGdbTYyjltkCW8P8,,,,,,,,,,,,,,,,,,,,,,,l,0,1.498,"[""0.272"",""0.346"",""0.921"",""0.027""]","[1,1,1,0]",0,50,50,50,1,0,1,,,0,FALSE,,,,,,,,,,,,,,,,,,,,,,,,,,,,,,,
,5f1b26dbd5dc042c9aedb7a4,627c6f73986a5daaea217e24,2022-05-12_04h24.30.882,classification_task,2021.2.3,Linux x86_64,60.0240096,627c6715c52fd12f31907bcf,IwAR2HEi3r7XBa59ZzBcJLB7ilHWTCbLLOEnevQh77NKOYGdbTYyjltkCW8P8,,,,,,,,,,,,,,,,,,,,,,,l,1,0.954,"[""0.069"",""0.411"",""0.574"",""0.652""]","[1,1,1,0]",0,51,51,51,1,1,1,,,0,FALSE,,,,,,,,,,,,,,,,,,,,,,,,,,,,,,,
,5f1b26dbd5dc042c9aedb7a4,627c6f73986a5daaea217e24,2022-05-12_04h24.30.882,classification_task,2021.2.3,Linux x86_64,60.0240096,627c6715c52fd12f31907bcf,IwAR2HEi3r7XBa59ZzBcJLB7ilHWTCbLLOEnevQh77NKOYGdbTYyjltkCW8P8,,,,,,,,,,,,,,,,,,,,,,,l,1,0.766,"[""0.069"",""0.411"",""0.610"",""0.689""]","[1,1,0,1]",0,52,52,52,1,1,1,,,0,FALSE,,,,,,,,,,,,,,,,,,,,,,,,,,,,,,,
,5f1b26dbd5dc042c9aedb7a4,627c6f73986a5daaea217e24,2022-05-12_04h24.30.882,classification_task,2021.2.3,Linux x86_64,60.0240096,627c6715c52fd12f31907bcf,IwAR2HEi3r7XBa59ZzBcJLB7ilHWTCbLLOEnevQh77NKOYGdbTYyjltkCW8P8,,,,,,,,,,,,,,,,,,,,,,,a,1,1.644,"[""0.174"",""0.519"",""0.780"",""0.652""]","[1,1,1,0]",0,53,53,53,1,0,0,,,0,FALSE,,,,,,,,,,,,,,,,,,,,,,,,,,,,,,,
,5f1b26dbd5dc042c9aedb7a4,627c6f73986a5daaea217e24,2022-05-12_04h24.30.882,classification_task,2021.2.3,Linux x86_64,60.0240096,627c6715c52fd12f31907bcf,IwAR2HEi3r7XBa59ZzBcJLB7ilHWTCbLLOEnevQh77NKOYGdbTYyjltkCW8P8,,,,,,,,,,,,,,,,,,,,,,,l,1,4.29,"[""0.843"",""0.411"",""0.574"",""0.689""]","[0,1,1,1]",0,54,54,54,1,1,1,,,0,FALSE,,,,,,,,,,,,,,,,,,,,,,,,,,,,,,,
,5f1b26dbd5dc042c9aedb7a4,627c6f73986a5daaea217e24,2022-05-12_04h24.30.882,classification_task,2021.2.3,Linux x86_64,60.0240096,627c6715c52fd12f31907bcf,IwAR2HEi3r7XBa59ZzBcJLB7ilHWTCbLLOEnevQh77NKOYGdbTYyjltkCW8P8,,,,,,,,,,,,,,,,,,,,,,,a,0,1.304,"[""0.069"",""0.238"",""0.574"",""0.689""]","[1,0,1,1]",0,55,55,55,1,1,1,,,0,FALSE,,,,,,,,,,,,,,,,,,,,,,,,,,,,,,,
,5f1b26dbd5dc042c9aedb7a4,627c6f73986a5daaea217e24,2022-05-12_04h24.30.882,classification_task,2021.2.3,Linux x86_64,60.0240096,627c6715c52fd12f31907bcf,IwAR2HEi3r7XBa59ZzBcJLB7ilHWTCbLLOEnevQh77NKOYGdbTYyjltkCW8P8,,,,,,,,,,,,,,,,,,,,,,,l,1,2.179,"[""0.111"",""0.307"",""0.457"",""0.229""]","[1,1,1,0]",0,56,56,56,1,1,0,,,0,FALSE,,,,,,,,,,,,,,,,,,,,,,,,,,,,,,,
,5f1b26dbd5dc042c9aedb7a4,627c6f73986a5daaea217e24,2022-05-12_04h24.30.882,classification_task,2021.2.3,Linux x86_64,60.0240096,627c6715c52fd12f31907bcf,IwAR2HEi3r7XBa59ZzBcJLB7ilHWTCbLLOEnevQh77NKOYGdbTYyjltkCW8P8,,,,,,,,,,,,,,,,,,,,,,,l,1,2.068,"[""0.844"",""0.307"",""0.457"",""0.734""]","[0,1,1,1]",0,57,57,57,1,1,0,,,0,FALSE,,,,,,,,,,,,,,,,,,,,,,,,,,,,,,,
,5f1b26dbd5dc042c9aedb7a4,627c6f73986a5daaea217e24,2022-05-12_04h24.30.882,classification_task,2021.2.3,Linux x86_64,60.0240096,627c6715c52fd12f31907bcf,IwAR2HEi3r7XBa59ZzBcJLB7ilHWTCbLLOEnevQh77NKOYGdbTYyjltkCW8P8,,,,,,,,,,,,,,,,,,,,,,,a,1,1.369,"[""0.174"",""0.519"",""0.652"",""0.878""]","[1,1,0,1]",0,58,58,58,1,0,0,,,0,FALSE,,,,,,,,,,,,,,,,,,,,,,,,,,,,,,,
,5f1b26dbd5dc042c9aedb7a4,627c6f73986a5daaea217e24,2022-05-12_04h24.30.882,classification_task,2021.2.3,Linux x86_64,60.0240096,627c6715c52fd12f31907bcf,IwAR2HEi3r7XBa59ZzBcJLB7ilHWTCbLLOEnevQh77NKOYGdbTYyjltkCW8P8,,,,,,,,,,,,,,,,,,,,,,,a,0,1.454,"[""0.111"",""0.638"",""0.457"",""0.734""]","[1,0,1,1]",0,59,59,59,1,1,0,,,0,FALSE,,,,,,,,,,,,,,,,,,,,,,,,,,,,,,,
,5f1b26dbd5dc042c9aedb7a4,627c6f73986a5daaea217e24,2022-05-12_04h24.30.882,classification_task,2021.2.3,Linux x86_64,60.0240096,627c6715c52fd12f31907bcf,IwAR2HEi3r7XBa59ZzBcJLB7ilHWTCbLLOEnevQh77NKOYGdbTYyjltkCW8P8,,,,,,,,,,,,,,,,,,,,,,,a,1,1.967,"[""0.272"",""0.844"",""0.921"",""0.963""]","[1,0,1,1]",0,60,60,60,1,0,1,,,0,FALSE,,,,,,,,,,,,,,,,,,,,,,,,,,,,,,,
,5f1b26dbd5dc042c9aedb7a4,627c6f73986a5daaea217e24,2022-05-12_04h24.30.882,classification_task,2021.2.3,Linux x86_64,60.0240096,627c6715c52fd12f31907bcf,IwAR2HEi3r7XBa59ZzBcJLB7ilHWTCbLLOEnevQh77NKOYGdbTYyjltkCW8P8,,,,,,,,,,,,,,,,,,,,,,,a,1,1.453,"[""0.632"",""0.346"",""0.921"",""0.963""]","[0,1,1,1]",0,61,61,61,1,0,1,,,0,FALSE,,,,,,,,,,,,,,,,,,,,,,,,,,,,,,,
,5f1b26dbd5dc042c9aedb7a4,627c6f73986a5daaea217e24,2022-05-12_04h24.30.882,classification_task,2021.2.3,Linux x86_64,60.0240096,627c6715c52fd12f31907bcf,IwAR2HEi3r7XBa59ZzBcJLB7ilHWTCbLLOEnevQh77NKOYGdbTYyjltkCW8P8,,,,,,,,,,,,,,,,,,,,,,,a,1,1.214,"[""0.174"",""0.610"",""0.780"",""0.878""]","[1,0,1,1]",0,62,62,62,1,0,0,,,0,FALSE,,,,,,,,,,,,,,,,,,,,,,,,,,,,,,,
,5f1b26dbd5dc042c9aedb7a4,627c6f73986a5daaea217e24,2022-05-12_04h24.30.882,classification_task,2021.2.3,Linux x86_64,60.0240096,627c6715c52fd12f31907bcf,IwAR2HEi3r7XBa59ZzBcJLB7ilHWTCbLLOEnevQh77NKOYGdbTYyjltkCW8P8,,,,,,,,,,,,,,,,,,,,,,,l,1,1.358,"[""0.111"",""0.307"",""0.027"",""0.734""]","[1,1,0,1]",0,63,63,63,1,1,0,,,0,FALSE,,,,,,,,,,,,,,,,,,,,,,,,,,,,,,,
,5f1b26dbd5dc042c9aedb7a4,627c6f73986a5daaea217e24,2022-05-12_04h24.30.882,classification_task,2021.2.3,Linux x86_64,60.0240096,627c6715c52fd12f31907bcf,IwAR2HEi3r7XBa59ZzBcJLB7ilHWTCbLLOEnevQh77NKOYGdbTYyjltkCW8P8,,,,,,,,,,,,,,,,,,,,,,,,,,,,,,,,,,,,,,,0, ,,0,7.71898883,184.552,0,2,2,2,1,2,3,,,,,,,,,,,,,,,,,,
,5f1b26dbd5dc042c9aedb7a4,627c6f73986a5daaea217e24,2022-05-12_04h24.30.882,classification_task,2021.2.3,Linux x86_64,60.0240096,627c6715c52fd12f31907bcf,IwAR2HEi3r7XBa59ZzBcJLB7ilHWTCbLLOEnevQh77NKOYGdbTYyjltkCW8P8,,,,,,,,,,,,,,,,,,,,,,,,,,,,,,,,,,,,,,,1,  ,,0,5.073486185,190.286,0,2,2,2,1,2,3,,,,,,,,,,,,,,,,,,
,5f1b26dbd5dc042c9aedb7a4,627c6f73986a5daaea217e24,2022-05-12_04h24.30.882,classification_task,2021.2.3,Linux x86_64,60.0240096,627c6715c52fd12f31907bcf,IwAR2HEi3r7XBa59ZzBcJLB7ilHWTCbLLOEnevQh77NKOYGdbTYyjltkCW8P8,,,,,,,,,,,,,,,,,,,,,,,,,,,,,,,,,,,,,,,2,  ,,0,2.33000196,188.986,0,2,2,2,1,2,3,,,,,,,,,,,,,,,,,,
,5f1b26dbd5dc042c9aedb7a4,627c6f73986a5daaea217e24,2022-05-12_04h24.30.882,classification_task,2021.2.3,Linux x86_64,60.0240096,627c6715c52fd12f31907bcf,IwAR2HEi3r7XBa59ZzBcJLB7ilHWTCbLLOEnevQh77NKOYGdbTYyjltkCW8P8,,,,,,,,,,,,,,,,,,,,,,,,,,,,,,,,,,,,,,,,,,,,,0,2,2,2,1,,3,,,,,,,,,,,,,,,,,,
,5f1b26dbd5dc042c9aedb7a4,627c6f73986a5daaea217e24,2022-05-12_04h24.30.882,classification_task,2021.2.3,Linux x86_64,60.0240096,627c6715c52fd12f31907bcf,IwAR2HEi3r7XBa59ZzBcJLB7ilHWTCbLLOEnevQh77NKOYGdbTYyjltkCW8P8,,,,,,,,,,,,,,,,,,,,,,,,,,,,,,,,,,,,,,,,,,,,,,,,,,,,,I believe the aid is a competent performer,,0.7,0,5,766.671,0,0,0,0,1,0,,,,,
,5f1b26dbd5dc042c9aedb7a4,627c6f73986a5daaea217e24,2022-05-12_04h24.30.882,classification_task,2021.2.3,Linux x86_64,60.0240096,627c6715c52fd12f31907bcf,IwAR2HEi3r7XBa59ZzBcJLB7ilHWTCbLLOEnevQh77NKOYGdbTYyjltkCW8P8,,,,,,,,,,,,,,,,,,,,,,,,,,,,,,,,,,,,,,,,,,,,,,,,,,,,,I trust the aid,,0.7,0,5,767.681,0,0,0,0,1,0,,,,,
,5f1b26dbd5dc042c9aedb7a4,627c6f73986a5daaea217e24,2022-05-12_04h24.30.882,classification_task,2021.2.3,Linux x86_64,60.0240096,627c6715c52fd12f31907bcf,IwAR2HEi3r7XBa59ZzBcJLB7ilHWTCbLLOEnevQh77NKOYGdbTYyjltkCW8P8,,,,,,,,,,,,,,,,,,,,,,,,,,,,,,,,,,,,,,,,,,,,,,,,,,,,,I have confidence in the advice given by the aid,,0.7,0,5,768.349,0,0,0,0,1,0,,,,,
,5f1b26dbd5dc042c9aedb7a4,627c6f73986a5daaea217e24,2022-05-12_04h24.30.882,classification_task,2021.2.3,Linux x86_64,60.0240096,627c6715c52fd12f31907bcf,IwAR2HEi3r7XBa59ZzBcJLB7ilHWTCbLLOEnevQh77NKOYGdbTYyjltkCW8P8,,,,,,,,,,,,,,,,,,,,,,,,,,,,,,,,,,,,,,,,,,,,,,,,,,,,,I can depend on the aid,,0.7,0,5,770.728,0,0,0,0,1,0,,,,,
,5f1b26dbd5dc042c9aedb7a4,627c6f73986a5daaea217e24,2022-05-12_04h24.30.882,classification_task,2021.2.3,Linux x86_64,60.0240096,627c6715c52fd12f31907bcf,IwAR2HEi3r7XBa59ZzBcJLB7ilHWTCbLLOEnevQh77NKOYGdbTYyjltkCW8P8,,,,,,,,,,,,,,,,,,,,,,,,,,,,,,,,,,,,,,,,,,,,,,,,,,,,,I can rely on the aid to behave in consistent ways,,0.7,0,5,772.947,0,0,0,0,1,0,,,,,
,5f1b26dbd5dc042c9aedb7a4,627c6f73986a5daaea217e24,2022-05-12_04h24.30.882,classification_task,2021.2.3,Linux x86_64,60.0240096,627c6715c52fd12f31907bcf,IwAR2HEi3r7XBa59ZzBcJLB7ilHWTCbLLOEnevQh77NKOYGdbTYyjltkCW8P8,,,,,,,,,,,,,,,,,,,,,,,,,,,,,,,,,,,,,,,,,,,,,,,,,,,,,I can rely on the aid to do its best every time I take its advice,,0.7,0,5,775.822,0,0,0,0,1,0,,,,,
,5f1b26dbd5dc042c9aedb7a4,627c6f73986a5daaea217e24,2022-05-12_04h24.30.882,classification_task,2021.2.3,Linux x86_64,60.0240096,627c6715c52fd12f31907bcf,IwAR2HEi3r7XBa59ZzBcJLB7ilHWTCbLLOEnevQh77NKOYGdbTYyjltkCW8P8,,,,,,,,,,,,,,,,,,,,,,,,,,,,,,,,,,,,,,,,,,,,,,,,,,,,,"On trials you completed with assistance from the aid, how frequently did you think the aid was correct?",,0.7,0,95%,,0,0,0,0,1,0,,,,,
,5f1b26dbd5dc042c9aedb7a4,627c6f73986a5daaea217e24,2022-05-12_04h24.30.882,classification_task,2021.2.3,Linux x86_64,60.0240096,627c6715c52fd12f31907bcf,IwAR2HEi3r7XBa59ZzBcJLB7ilHWTCbLLOEnevQh77NKOYGdbTYyjltkCW8P8,,,,,,,,,,,,,,,,,,,,,,,,,,,,,,,,,,,,,,,,,,,,,,,,,,,,,"On trials you completed without the aid, how frequently did you think you were correct?",,0.7,0,60%,,0,0,0,0,1,0,,,,,
,5f1b26dbd5dc042c9aedb7a4,627c6f73986a5daaea217e24,2022-05-12_04h24.30.882,classification_task,2021.2.3,Linux x86_64,60.0240096,627c6715c52fd12f31907bcf,IwAR2HEi3r7XBa59ZzBcJLB7ilHWTCbLLOEnevQh77NKOYGdbTYyjltkCW8P8,,,,,,,,,,,,,,,,,,,,,,,,,,,,,,,,,,,,,,,,,,,,,,,,,,,,,,,,,,,0,0,0,0,1,,,,,,
,5f1b26dbd5dc042c9aedb7a4,627c6f73986a5daaea217e24,2022-05-12_04h24.30.882,classification_task,2021.2.3,Linux x86_64,60.0240096,627c6715c52fd12f31907bcf,IwAR2HEi3r7XBa59ZzBcJLB7ilHWTCbLLOEnevQh77NKOYGdbTYyjltkCW8P8,,,,,,,,,,,,,,,,,,,,,,,,,,,,,,,,,,,,,,,,,,,,,,,,,,,,,,,,,,,,,,,,,space,1.309,817.414,,
,5f1b26dbd5dc042c9aedb7a4,627c6f73986a5daaea217e24,2022-05-12_04h24.30.882,classification_task,2021.2.3,Linux x86_64,60.0240096,627c6715c52fd12f31907bcf,IwAR2HEi3r7XBa59ZzBcJLB7ilHWTCbLLOEnevQh77NKOYGdbTYyjltkCW8P8,,,,,,,,,,,,,,,,,,,,,,,,,,,,,,,,,,,,,,,,,,,,,,,,,,,,,,,,,,,,,,,,,,,,Mozilla/5.0 (X11; Ubuntu; Linux x86_64; rv:99.0) Gecko/20100101 Firefox/99.0,
,5f1b26dbd5dc042c9aedb7a4,627c6f73986a5daaea217e24,2022-05-12_04h24.30.882,classification_task,2021.2.3,Linux x86_64,60.0240096,627c6715c52fd12f31907bcf,IwAR2HEi3r7XBa59ZzBcJLB7ilHWTCbLLOEnevQh77NKOYGdbTYyjltkCW8P8,,,,,,,,,,,,,,,,,,,,,,,,,,,,,,,,,,,,,,,,,,,,,,,,,,,,,,,,,,,,,,,,,,,,,FADING
