usingWebGL,participant,session,date,expName,psychopyVersion,OS,frameRate,PROLIFIC_PID,STUDY_ID,SESSION_ID,signatures_friend,signatures_foe,band_ranges_top,band_ranges_bottom,formitemText,formtype,formundefined,formitemWidth,formindex,formresponse,formrt,key_resp_2.keys,key_resp_2.rt,tute_resp.keys,tute_resp.rt,tutorial.thisRepN,tutorial.thisTrialN,tutorial.thisN,tutorial.thisIndex,tutorial.ran,key_resp_4.keys,key_resp_4.rt,key_resp.keys,key_resp.corr,key_resp.rt,lines_presented,is_signal_presented,trials.thisRepN,trials.thisTrialN,trials.thisN,trials.thisIndex,trials.ran,vessel,active_band,lines,is_signal,supported_pos,catch_trial,debrief_formindex,debrief_formitemText,debrief_formtype,debrief_formitemWidth,debrief_formresponse,debrief_formrt,phases.thisRepN,phases.thisTrialN,phases.thisN,phases.thisIndex,phases.ran,phases.order,phase,key_resp_3.keys,trustitemText,trusttype,trustitemWidth,trustindex,trustresponse,trustrt,support_status.thisRepN,support_status.thisTrialN,support_status.thisN,support_status.thisIndex,support_status.ran,support_status.order,key_resp_5.keys,key_resp_5.rt,globalClockTime,userAgent
TRUE,5f23cc088105d31b5aa68d2c,001,2022-04-28_20h15.10.142,classification_task,2021.2.3,Win32,60.29908345,5f23cc088105d31b5aa68d2c,626b377229c10585ec392f8a,626b3bc7fe20fa0b71931667,,,,,,,,,,,,,,,,,,,,,,,,,,,,,,,,,,,,,,,,,,,,,,,,,,,,,,,,,,,,,,,,,,,,
,5f23cc088105d31b5aa68d2c,001,2022-04-28_20h15.10.142,classification_task,2021.2.3,Win32,60.29908345,5f23cc088105d31b5aa68d2c,626b377229c10585ec392f8a,626b3bc7fe20fa0b71931667,"[[""0.292"",""0.405"",""0.898"",""0.970""],[""0.222"",""0.336"",""0.685"",""0.860""]]","[[""0.127"",""0.174"",""0.525"",""0.720""],[""0.032"",""0.087"",""0.608"",""0.816""]]","[1,10]","[100,1000]",Video game experience,,,0.7,0,,,,,,,,,,,,,,,,,,,,,,,,,,,,,,,,,,,,,,,,,,,,,,,,,,,,,,,,,,,
,5f23cc088105d31b5aa68d2c,001,2022-04-28_20h15.10.142,classification_task,2021.2.3,Win32,60.29908345,5f23cc088105d31b5aa68d2c,626b377229c10585ec392f8a,626b3bc7fe20fa0b71931667,,,,,Approximately how many hours did you spend playing video games in the last week?,,,0.7,0,2,,,,,,,,,,,,,,,,,,,,,,,,,,,,,,,,,,,,,,,,,,,,,,,,,,,,,,,,,,
,5f23cc088105d31b5aa68d2c,001,2022-04-28_20h15.10.142,classification_task,2021.2.3,Win32,60.29908345,5f23cc088105d31b5aa68d2c,626b377229c10585ec392f8a,626b3bc7fe20fa0b71931667,,,,,"Which game did you play the most this year? (Enter ""None"" if you didn't play any)",,,0.7,0,Mario Kart,,,,,,,,,,,,,,,,,,,,,,,,,,,,,,,,,,,,,,,,,,,,,,,,,,,,,,,,,,
,5f23cc088105d31b5aa68d2c,001,2022-04-28_20h15.10.142,classification_task,2021.2.3,Win32,60.29908345,5f23cc088105d31b5aa68d2c,626b377229c10585ec392f8a,626b3bc7fe20fa0b71931667,,,,,Visual perception,,,0.7,0,,,,,,,,,,,,,,,,,,,,,,,,,,,,,,,,,,,,,,,,,,,,,,,,,,,,,,,,,,,
,5f23cc088105d31b5aa68d2c,001,2022-04-28_20h15.10.142,classification_task,2021.2.3,Win32,60.29908345,5f23cc088105d31b5aa68d2c,626b377229c10585ec392f8a,626b3bc7fe20fa0b71931667,,,,,Do you have any form of color blindness?,,,0.7,0,No,31.2601,,,,,,,,,,,,,,,,,,,,,,,,,,,,,,,,,,,,,,,,,,,,,,,,,,,,,,,,,
,5f23cc088105d31b5aa68d2c,001,2022-04-28_20h15.10.142,classification_task,2021.2.3,Win32,60.29908345,5f23cc088105d31b5aa68d2c,626b377229c10585ec392f8a,626b3bc7fe20fa0b71931667,,,,,Do you use software to change the colour temperature of your screen (e.g. f.lux)?,,,0.7,0,No,34.5139,,,,,,,,,,,,,,,,,,,,,,,,,,,,,,,,,,,,,,,,,,,,,,,,,,,,,,,,,
,5f23cc088105d31b5aa68d2c,001,2022-04-28_20h15.10.142,classification_task,2021.2.3,Win32,60.29908345,5f23cc088105d31b5aa68d2c,626b377229c10585ec392f8a,626b3bc7fe20fa0b71931667,,,,,,,,,,,,space,33.5541,space,20.2946,0,0,0,0,1,,,,,,,,,,,,,,,,,,,,,,,,,,,,,,,,,,,,,,,,,,,,,,,,
,5f23cc088105d31b5aa68d2c,001,2022-04-28_20h15.10.142,classification_task,2021.2.3,Win32,60.29908345,5f23cc088105d31b5aa68d2c,626b377229c10585ec392f8a,626b3bc7fe20fa0b71931667,,,,,,,,,,,,,,space,8.1664,1,0,1,0,1,,,,,,,,,,,,,,,,,,,,,,,,,,,,,,,,,,,,,,,,,,,,,,,,
,5f23cc088105d31b5aa68d2c,001,2022-04-28_20h15.10.142,classification_task,2021.2.3,Win32,60.29908345,5f23cc088105d31b5aa68d2c,626b377229c10585ec392f8a,626b3bc7fe20fa0b71931667,,,,,,,,,,,,,,space,28.6151,2,0,2,0,1,,,,,,,,,,,,,,,,,,,,,,,,,,,,,,,,,,,,,,,,,,,,,,,,
,5f23cc088105d31b5aa68d2c,001,2022-04-28_20h15.10.142,classification_task,2021.2.3,Win32,60.29908345,5f23cc088105d31b5aa68d2c,626b377229c10585ec392f8a,626b3bc7fe20fa0b71931667,,,,,,,,,,,,,,space,15.7791,3,0,3,0,1,,,,,,,,,,,,,,,,,,,,,,,,,,,,,,,,,,,,,,,,,,,,,,,,
,5f23cc088105d31b5aa68d2c,001,2022-04-28_20h15.10.142,classification_task,2021.2.3,Win32,60.29908345,5f23cc088105d31b5aa68d2c,626b377229c10585ec392f8a,626b3bc7fe20fa0b71931667,,,,,,,,,,,,,,space,19.2449,4,0,4,0,1,,,,,,,,,,,,,,,,,,,,,,,,,,,,,,,,,,,,,,,,,,,,,,,,
,5f23cc088105d31b5aa68d2c,001,2022-04-28_20h15.10.142,classification_task,2021.2.3,Win32,60.29908345,5f23cc088105d31b5aa68d2c,626b377229c10585ec392f8a,626b3bc7fe20fa0b71931667,,,,,,,,,,,,,,,,,,,,,space,71.1424,l,1,6.2946,"[""0.127"",""0.174"",""0.525"",""0.483""]","[1,1,1,0]",0,0,0,0,1,1,0,,,0,FALSE,,,,,,,,,,,,,,,,,,,,,,,,,,,,,,
,5f23cc088105d31b5aa68d2c,001,2022-04-28_20h15.10.142,classification_task,2021.2.3,Win32,60.29908345,5f23cc088105d31b5aa68d2c,626b377229c10585ec392f8a,626b3bc7fe20fa0b71931667,,,,,,,,,,,,,,,,,,,,,,,l,1,3.7023,"[""0.032"",""0.444"",""0.608"",""0.816""]","[1,0,1,1]",0,1,1,1,1,1,1,,,0,FALSE,,,,,,,,,,,,,,,,,,,,,,,,,,,,,,
,5f23cc088105d31b5aa68d2c,001,2022-04-28_20h15.10.142,classification_task,2021.2.3,Win32,60.29908345,5f23cc088105d31b5aa68d2c,626b377229c10585ec392f8a,626b3bc7fe20fa0b71931667,,,,,,,,,,,,,,,,,,,,,,,l,1,2.9858,"[""0.127"",""0.444"",""0.525"",""0.720""]","[1,0,1,1]",0,2,2,2,1,1,0,,,0,FALSE,,,,,,,,,,,,,,,,,,,,,,,,,,,,,,
,5f23cc088105d31b5aa68d2c,001,2022-04-28_20h15.10.142,classification_task,2021.2.3,Win32,60.29908345,5f23cc088105d31b5aa68d2c,626b377229c10585ec392f8a,626b3bc7fe20fa0b71931667,,,,,,,,,,,,,,,,,,,,,,,a,1,5.2159,"[""0.642"",""0.405"",""0.898"",""0.970""]","[0,1,1,1]",0,3,3,3,1,0,0,,,0,FALSE,,,,,,,,,,,,,,,,,,,,,,,,,,,,,,
,5f23cc088105d31b5aa68d2c,001,2022-04-28_20h15.10.142,classification_task,2021.2.3,Win32,60.29908345,5f23cc088105d31b5aa68d2c,626b377229c10585ec392f8a,626b3bc7fe20fa0b71931667,,,,,,,,,,,,,,,,,,,,,,,a,1,4.9315,"[""0.292"",""0.405"",""0.935"",""0.970""]","[1,1,0,1]",0,4,4,4,1,0,0,,,0,FALSE,,,,,,,,,,,,,,,,,,,,,,,,,,,,,,
,5f23cc088105d31b5aa68d2c,001,2022-04-28_20h15.10.142,classification_task,2021.2.3,Win32,60.29908345,5f23cc088105d31b5aa68d2c,626b377229c10585ec392f8a,626b3bc7fe20fa0b71931667,,,,,,,,,,,,,,,,,,,,,,,a,1,3.9944,"[""0.222"",""0.336"",""0.642"",""0.860""]","[1,1,0,1]",0,5,5,5,1,0,1,,,0,FALSE,,,,,,,,,,,,,,,,,,,,,,,,,,,,,,
,5f23cc088105d31b5aa68d2c,001,2022-04-28_20h15.10.142,classification_task,2021.2.3,Win32,60.29908345,5f23cc088105d31b5aa68d2c,626b377229c10585ec392f8a,626b3bc7fe20fa0b71931667,,,,,,,,,,,,,,,,,,,,,,,a,1,4.1508,"[""0.292"",""0.761"",""0.898"",""0.970""]","[1,0,1,1]",0,6,6,6,1,0,0,,,0,FALSE,,,,,,,,,,,,,,,,,,,,,,,,,,,,,,
,5f23cc088105d31b5aa68d2c,001,2022-04-28_20h15.10.142,classification_task,2021.2.3,Win32,60.29908345,5f23cc088105d31b5aa68d2c,626b377229c10585ec392f8a,626b3bc7fe20fa0b71931667,,,,,,,,,,,,,,,,,,,,,,,a,1,2.0338,"[""0.222"",""0.452"",""0.685"",""0.860""]","[1,0,1,1]",0,7,7,7,1,0,1,,,0,FALSE,,,,,,,,,,,,,,,,,,,,,,,,,,,,,,
,5f23cc088105d31b5aa68d2c,001,2022-04-28_20h15.10.142,classification_task,2021.2.3,Win32,60.29908345,5f23cc088105d31b5aa68d2c,626b377229c10585ec392f8a,626b3bc7fe20fa0b71931667,,,,,,,,,,,,,,,,,,,,,,,l,1,4.665,"[""0.452"",""0.174"",""0.525"",""0.720""]","[0,1,1,1]",0,8,8,8,1,1,0,,,0,FALSE,,,,,,,,,,,,,,,,,,,,,,,,,,,,,,
,5f23cc088105d31b5aa68d2c,001,2022-04-28_20h15.10.142,classification_task,2021.2.3,Win32,60.29908345,5f23cc088105d31b5aa68d2c,626b377229c10585ec392f8a,626b3bc7fe20fa0b71931667,,,,,,,,,,,,,,,,,,,,,,,l,1,3.4012,"[""0.032"",""0.087"",""0.774"",""0.816""]","[1,1,0,1]",0,9,9,9,1,1,1,,,0,FALSE,,,,,,,,,,,,,,,,,,,,,,,,,,,,,,
,5f23cc088105d31b5aa68d2c,001,2022-04-28_20h15.10.142,classification_task,2021.2.3,Win32,60.29908345,5f23cc088105d31b5aa68d2c,626b377229c10585ec392f8a,626b3bc7fe20fa0b71931667,,,,,,,,,,,,,,,,,,,,,,,l,1,3.5035,"[""0.452"",""0.087"",""0.608"",""0.816""]","[0,1,1,1]",0,10,10,10,1,1,1,,,0,FALSE,,,,,,,,,,,,,,,,,,,,,,,,,,,,,,
,5f23cc088105d31b5aa68d2c,001,2022-04-28_20h15.10.142,classification_task,2021.2.3,Win32,60.29908345,5f23cc088105d31b5aa68d2c,626b377229c10585ec392f8a,626b3bc7fe20fa0b71931667,,,,,,,,,,,,,,,,,,,,,,,a,1,1.6068,"[""0.222"",""0.336"",""0.685"",""0.782""]","[1,1,1,0]",0,11,11,11,1,0,1,,,0,FALSE,,,,,,,,,,,,,,,,,,,,,,,,,,,,,,
,5f23cc088105d31b5aa68d2c,001,2022-04-28_20h15.10.142,classification_task,2021.2.3,Win32,60.29908345,5f23cc088105d31b5aa68d2c,626b377229c10585ec392f8a,626b3bc7fe20fa0b71931667,,,,,,,,,,,,,,,,,,,,,,,a,1,3.4267,"[""0.292"",""0.405"",""0.898"",""0.935""]","[1,1,1,0]",0,12,12,12,1,0,0,,,0,FALSE,,,,,,,,,,,,,,,,,,,,,,,,,,,,,,
,5f23cc088105d31b5aa68d2c,001,2022-04-28_20h15.10.142,classification_task,2021.2.3,Win32,60.29908345,5f23cc088105d31b5aa68d2c,626b377229c10585ec392f8a,626b3bc7fe20fa0b71931667,,,,,,,,,,,,,,,,,,,,,,,l,1,2.3419,"[""0.032"",""0.087"",""0.608"",""0.771""]","[1,1,1,0]",0,13,13,13,1,1,1,,,0,FALSE,,,,,,,,,,,,,,,,,,,,,,,,,,,,,,
,5f23cc088105d31b5aa68d2c,001,2022-04-28_20h15.10.142,classification_task,2021.2.3,Win32,60.29908345,5f23cc088105d31b5aa68d2c,626b377229c10585ec392f8a,626b3bc7fe20fa0b71931667,,,,,,,,,,,,,,,,,,,,,,,l,1,3.6497,"[""0.127"",""0.174"",""0.642"",""0.720""]","[1,1,0,1]",0,14,14,14,1,1,0,,,0,FALSE,,,,,,,,,,,,,,,,,,,,,,,,,,,,,,
,5f23cc088105d31b5aa68d2c,001,2022-04-28_20h15.10.142,classification_task,2021.2.3,Win32,60.29908345,5f23cc088105d31b5aa68d2c,626b377229c10585ec392f8a,626b3bc7fe20fa0b71931667,,,,,,,,,,,,,,,,,,,,,,,a,1,2.9384,"[""0.483"",""0.336"",""0.685"",""0.860""]","[0,1,1,1]",0,15,15,15,1,0,1,,,0,FALSE,,,,,,,,,,,,,,,,,,,,,,,,,,,,,,
,5f23cc088105d31b5aa68d2c,001,2022-04-28_20h15.10.142,classification_task,2021.2.3,Win32,60.29908345,5f23cc088105d31b5aa68d2c,626b377229c10585ec392f8a,626b3bc7fe20fa0b71931667,,,,,,,,,,,,,,,,,,,,,,,l,1,1.9024,"[""0.032"",""0.087"",""0.608"",""0.774""]","[1,1,1,0]",0,16,16,16,1,1,1,,,0,FALSE,,,,,,,,,,,,,,,,,,,,,,,,,,,,,,
,5f23cc088105d31b5aa68d2c,001,2022-04-28_20h15.10.142,classification_task,2021.2.3,Win32,60.29908345,5f23cc088105d31b5aa68d2c,626b377229c10585ec392f8a,626b3bc7fe20fa0b71931667,,,,,,,,,,,,,,,,,,,,,,,a,1,3.4566,"[""0.771"",""0.336"",""0.685"",""0.860""]","[0,1,1,1]",0,17,17,17,1,0,1,,,0,FALSE,,,,,,,,,,,,,,,,,,,,,,,,,,,,,,
,5f23cc088105d31b5aa68d2c,001,2022-04-28_20h15.10.142,classification_task,2021.2.3,Win32,60.29908345,5f23cc088105d31b5aa68d2c,626b377229c10585ec392f8a,626b3bc7fe20fa0b71931667,,,,,,,,,,,,,,,,,,,,,,,l,1,2.607,"[""0.451"",""0.087"",""0.608"",""0.816""]","[0,1,1,1]",0,18,18,18,1,1,1,,,0,FALSE,,,,,,,,,,,,,,,,,,,,,,,,,,,,,,
,5f23cc088105d31b5aa68d2c,001,2022-04-28_20h15.10.142,classification_task,2021.2.3,Win32,60.29908345,5f23cc088105d31b5aa68d2c,626b377229c10585ec392f8a,626b3bc7fe20fa0b71931667,,,,,,,,,,,,,,,,,,,,,,,l,1,4.0088,"[""0.127"",""0.174"",""0.525"",""0.761""]","[1,1,1,0]",0,19,19,19,1,1,0,,,0,FALSE,,,,,,,,,,,,,,,,,,,,,,,,,,,,,,
,5f23cc088105d31b5aa68d2c,001,2022-04-28_20h15.10.142,classification_task,2021.2.3,Win32,60.29908345,5f23cc088105d31b5aa68d2c,626b377229c10585ec392f8a,626b3bc7fe20fa0b71931667,,,,,,,,,,,,,,,,,,,,,,,a,1,1.6211,"[""0.292"",""0.405"",""0.769"",""0.970""]","[1,1,0,1]",0,20,20,20,1,0,0,,,0,FALSE,,,,,,,,,,,,,,,,,,,,,,,,,,,,,,
,5f23cc088105d31b5aa68d2c,001,2022-04-28_20h15.10.142,classification_task,2021.2.3,Win32,60.29908345,5f23cc088105d31b5aa68d2c,626b377229c10585ec392f8a,626b3bc7fe20fa0b71931667,,,,,,,,,,,,,,,,,,,,,,,l,1,3.7687,"[""0.127"",""0.935"",""0.525"",""0.720""]","[1,0,1,1]",0,21,21,21,1,1,0,,,0,FALSE,,,,,,,,,,,,,,,,,,,,,,,,,,,,,,
,5f23cc088105d31b5aa68d2c,001,2022-04-28_20h15.10.142,classification_task,2021.2.3,Win32,60.29908345,5f23cc088105d31b5aa68d2c,626b377229c10585ec392f8a,626b3bc7fe20fa0b71931667,,,,,,,,,,,,,,,,,,,,,,,a,1,1.2422,"[""0.222"",""0.336"",""0.769"",""0.860""]","[1,1,0,1]",0,22,22,22,1,0,1,,,0,FALSE,,,,,,,,,,,,,,,,,,,,,,,,,,,,,,
,5f23cc088105d31b5aa68d2c,001,2022-04-28_20h15.10.142,classification_task,2021.2.3,Win32,60.29908345,5f23cc088105d31b5aa68d2c,626b377229c10585ec392f8a,626b3bc7fe20fa0b71931667,,,,,,,,,,,,,,,,,,,,,,,l,1,1.2495,"[""0.032"",""0.935"",""0.608"",""0.816""]","[1,0,1,1]",0,23,23,23,1,1,1,,,0,FALSE,,,,,,,,,,,,,,,,,,,,,,,,,,,,,,
,5f23cc088105d31b5aa68d2c,001,2022-04-28_20h15.10.142,classification_task,2021.2.3,Win32,60.29908345,5f23cc088105d31b5aa68d2c,626b377229c10585ec392f8a,626b3bc7fe20fa0b71931667,,,,,,,,,,,,,,,,,,,,,,,a,1,1.3822,"[""0.222"",""0.774"",""0.685"",""0.860""]","[1,0,1,1]",0,24,24,24,1,0,1,,,0,FALSE,,,,,,,,,,,,,,,,,,,,,,,,,,,,,,
,5f23cc088105d31b5aa68d2c,001,2022-04-28_20h15.10.142,classification_task,2021.2.3,Win32,60.29908345,5f23cc088105d31b5aa68d2c,626b377229c10585ec392f8a,626b3bc7fe20fa0b71931667,,,,,,,,,,,,,,,,,,,,,,,l,0,2.6261,"[""0.754"",""0.405"",""0.898"",""0.970""]","[0,1,1,1]",0,25,25,25,1,0,0,,,0,FALSE,,,,,,,,,,,,,,,,,,,,,,,,,,,,,,
,5f23cc088105d31b5aa68d2c,001,2022-04-28_20h15.10.142,classification_task,2021.2.3,Win32,60.29908345,5f23cc088105d31b5aa68d2c,626b377229c10585ec392f8a,626b3bc7fe20fa0b71931667,,,,,,,,,,,,,,,,,,,,,,,a,1,3.6653,"[""0.292"",""0.483"",""0.898"",""0.970""]","[1,0,1,1]",0,26,26,26,1,0,0,,,0,FALSE,,,,,,,,,,,,,,,,,,,,,,,,,,,,,,
,5f23cc088105d31b5aa68d2c,001,2022-04-28_20h15.10.142,classification_task,2021.2.3,Win32,60.29908345,5f23cc088105d31b5aa68d2c,626b377229c10585ec392f8a,626b3bc7fe20fa0b71931667,,,,,,,,,,,,,,,,,,,,,,,l,1,2.0129,"[""0.127"",""0.174"",""0.451"",""0.720""]","[1,1,0,1]",0,27,27,27,1,1,0,,,0,FALSE,,,,,,,,,,,,,,,,,,,,,,,,,,,,,,
,5f23cc088105d31b5aa68d2c,001,2022-04-28_20h15.10.142,classification_task,2021.2.3,Win32,60.29908345,5f23cc088105d31b5aa68d2c,626b377229c10585ec392f8a,626b3bc7fe20fa0b71931667,,,,,,,,,,,,,,,,,,,,,,,a,1,2.5482,"[""0.292"",""0.405"",""0.898"",""0.761""]","[1,1,1,0]",0,28,28,28,1,0,0,,,0,FALSE,,,,,,,,,,,,,,,,,,,,,,,,,,,,,,
,5f23cc088105d31b5aa68d2c,001,2022-04-28_20h15.10.142,classification_task,2021.2.3,Win32,60.29908345,5f23cc088105d31b5aa68d2c,626b377229c10585ec392f8a,626b3bc7fe20fa0b71931667,,,,,,,,,,,,,,,,,,,,,,,l,1,3.6745,"[""0.439"",""0.174"",""0.525"",""0.720""]","[0,1,1,1]",0,29,29,29,1,1,0,,,0,FALSE,,,,,,,,,,,,,,,,,,,,,,,,,,,,,,
,5f23cc088105d31b5aa68d2c,001,2022-04-28_20h15.10.142,classification_task,2021.2.3,Win32,60.29908345,5f23cc088105d31b5aa68d2c,626b377229c10585ec392f8a,626b3bc7fe20fa0b71931667,,,,,,,,,,,,,,,,,,,,,,,l,1,1.5073,"[""0.032"",""0.087"",""0.774"",""0.816""]","[1,1,0,1]",0,30,30,30,1,1,1,,,0,FALSE,,,,,,,,,,,,,,,,,,,,,,,,,,,,,,
,5f23cc088105d31b5aa68d2c,001,2022-04-28_20h15.10.142,classification_task,2021.2.3,Win32,60.29908345,5f23cc088105d31b5aa68d2c,626b377229c10585ec392f8a,626b3bc7fe20fa0b71931667,,,,,,,,,,,,,,,,,,,,,,,a,1,1.6681,"[""0.222"",""0.336"",""0.685"",""0.651""]","[1,1,1,0]",0,31,31,31,1,0,1,,,0,FALSE,,,,,,,,,,,,,,,,,,,,,,,,,,,,,,
,5f23cc088105d31b5aa68d2c,001,2022-04-28_20h15.10.142,classification_task,2021.2.3,Win32,60.29908345,5f23cc088105d31b5aa68d2c,626b377229c10585ec392f8a,626b3bc7fe20fa0b71931667,,,,,,,,,,,,,,,,,,,,,,,a,1,2.617,"[""0.222"",""0.336"",""0.651"",""0.860""]","[1,1,0,1]",0,32,32,32,1,0,1,,,0,FALSE,,,,,,,,,,,,,,,,,,,,,,,,,,,,,,
,5f23cc088105d31b5aa68d2c,001,2022-04-28_20h15.10.142,classification_task,2021.2.3,Win32,60.29908345,5f23cc088105d31b5aa68d2c,626b377229c10585ec392f8a,626b3bc7fe20fa0b71931667,,,,,,,,,,,,,,,,,,,,,,,l,0,2.052,"[""0.292"",""0.761"",""0.898"",""0.970""]","[1,0,1,1]",0,33,33,33,1,0,0,,,0,FALSE,,,,,,,,,,,,,,,,,,,,,,,,,,,,,,
,5f23cc088105d31b5aa68d2c,001,2022-04-28_20h15.10.142,classification_task,2021.2.3,Win32,60.29908345,5f23cc088105d31b5aa68d2c,626b377229c10585ec392f8a,626b3bc7fe20fa0b71931667,,,,,,,,,,,,,,,,,,,,,,,a,1,1.1112,"[""0.782"",""0.405"",""0.898"",""0.970""]","[0,1,1,1]",0,34,34,34,1,0,0,,,0,FALSE,,,,,,,,,,,,,,,,,,,,,,,,,,,,,,
,5f23cc088105d31b5aa68d2c,001,2022-04-28_20h15.10.142,classification_task,2021.2.3,Win32,60.29908345,5f23cc088105d31b5aa68d2c,626b377229c10585ec392f8a,626b3bc7fe20fa0b71931667,,,,,,,,,,,,,,,,,,,,,,,l,1,1.8485,"[""0.127"",""0.174"",""0.642"",""0.720""]","[1,1,0,1]",0,35,35,35,1,1,0,,,0,FALSE,,,,,,,,,,,,,,,,,,,,,,,,,,,,,,
,5f23cc088105d31b5aa68d2c,001,2022-04-28_20h15.10.142,classification_task,2021.2.3,Win32,60.29908345,5f23cc088105d31b5aa68d2c,626b377229c10585ec392f8a,626b3bc7fe20fa0b71931667,,,,,,,,,,,,,,,,,,,,,,,l,1,2.447,"[""0.032"",""0.087"",""0.769"",""0.816""]","[1,1,0,1]",0,36,36,36,1,1,1,,,0,FALSE,,,,,,,,,,,,,,,,,,,,,,,,,,,,,,
,5f23cc088105d31b5aa68d2c,001,2022-04-28_20h15.10.142,classification_task,2021.2.3,Win32,60.29908345,5f23cc088105d31b5aa68d2c,626b377229c10585ec392f8a,626b3bc7fe20fa0b71931667,,,,,,,,,,,,,,,,,,,,,,,a,1,1.1693,"[""0.222"",""0.336"",""0.685"",""0.483""]","[1,1,1,0]",0,37,37,37,1,0,1,,,0,FALSE,,,,,,,,,,,,,,,,,,,,,,,,,,,,,,
,5f23cc088105d31b5aa68d2c,001,2022-04-28_20h15.10.142,classification_task,2021.2.3,Win32,60.29908345,5f23cc088105d31b5aa68d2c,626b377229c10585ec392f8a,626b3bc7fe20fa0b71931667,,,,,,,,,,,,,,,,,,,,,,,l,1,2.0603,"[""0.771"",""0.174"",""0.525"",""0.720""]","[0,1,1,1]",0,38,38,38,1,1,0,,,0,FALSE,,,,,,,,,,,,,,,,,,,,,,,,,,,,,,
,5f23cc088105d31b5aa68d2c,001,2022-04-28_20h15.10.142,classification_task,2021.2.3,Win32,60.29908345,5f23cc088105d31b5aa68d2c,626b377229c10585ec392f8a,626b3bc7fe20fa0b71931667,,,,,,,,,,,,,,,,,,,,,,,l,1,1.6252,"[""0.651"",""0.087"",""0.608"",""0.816""]","[0,1,1,1]",0,39,39,39,1,1,1,,,0,FALSE,,,,,,,,,,,,,,,,,,,,,,,,,,,,,,
,5f23cc088105d31b5aa68d2c,001,2022-04-28_20h15.10.142,classification_task,2021.2.3,Win32,60.29908345,5f23cc088105d31b5aa68d2c,626b377229c10585ec392f8a,626b3bc7fe20fa0b71931667,,,,,,,,,,,,,,,,,,,,,,,a,1,1.7508,"[""0.292"",""0.405"",""0.898"",""0.782""]","[1,1,1,0]",0,40,40,40,1,0,0,,,0,FALSE,,,,,,,,,,,,,,,,,,,,,,,,,,,,,,
,5f23cc088105d31b5aa68d2c,001,2022-04-28_20h15.10.142,classification_task,2021.2.3,Win32,60.29908345,5f23cc088105d31b5aa68d2c,626b377229c10585ec392f8a,626b3bc7fe20fa0b71931667,,,,,,,,,,,,,,,,,,,,,,,a,1,2.5135,"[""0.292"",""0.405"",""0.439"",""0.970""]","[1,1,0,1]",0,41,41,41,1,0,0,,,0,FALSE,,,,,,,,,,,,,,,,,,,,,,,,,,,,,,
,5f23cc088105d31b5aa68d2c,001,2022-04-28_20h15.10.142,classification_task,2021.2.3,Win32,60.29908345,5f23cc088105d31b5aa68d2c,626b377229c10585ec392f8a,626b3bc7fe20fa0b71931667,,,,,,,,,,,,,,,,,,,,,,,l,1,0.9574,"[""0.127"",""0.782"",""0.525"",""0.720""]","[1,0,1,1]",0,42,42,42,1,1,0,,,0,FALSE,,,,,,,,,,,,,,,,,,,,,,,,,,,,,,
,5f23cc088105d31b5aa68d2c,001,2022-04-28_20h15.10.142,classification_task,2021.2.3,Win32,60.29908345,5f23cc088105d31b5aa68d2c,626b377229c10585ec392f8a,626b3bc7fe20fa0b71931667,,,,,,,,,,,,,,,,,,,,,,,l,1,2.4659,"[""0.127"",""0.174"",""0.525"",""0.769""]","[1,1,1,0]",0,43,43,43,1,1,0,,,0,FALSE,,,,,,,,,,,,,,,,,,,,,,,,,,,,,,
,5f23cc088105d31b5aa68d2c,001,2022-04-28_20h15.10.142,classification_task,2021.2.3,Win32,60.29908345,5f23cc088105d31b5aa68d2c,626b377229c10585ec392f8a,626b3bc7fe20fa0b71931667,,,,,,,,,,,,,,,,,,,,,,,a,1,0.9934,"[""0.483"",""0.336"",""0.685"",""0.860""]","[0,1,1,1]",0,44,44,44,1,0,1,,,0,FALSE,,,,,,,,,,,,,,,,,,,,,,,,,,,,,,
,5f23cc088105d31b5aa68d2c,001,2022-04-28_20h15.10.142,classification_task,2021.2.3,Win32,60.29908345,5f23cc088105d31b5aa68d2c,626b377229c10585ec392f8a,626b3bc7fe20fa0b71931667,,,,,,,,,,,,,,,,,,,,,,,a,1,1.1444,"[""0.222"",""0.769"",""0.685"",""0.860""]","[1,0,1,1]",0,45,45,45,1,0,1,,,0,FALSE,,,,,,,,,,,,,,,,,,,,,,,,,,,,,,
,5f23cc088105d31b5aa68d2c,001,2022-04-28_20h15.10.142,classification_task,2021.2.3,Win32,60.29908345,5f23cc088105d31b5aa68d2c,626b377229c10585ec392f8a,626b3bc7fe20fa0b71931667,,,,,,,,,,,,,,,,,,,,,,,l,1,0.8614,"[""0.032"",""0.754"",""0.608"",""0.816""]","[1,0,1,1]",0,46,46,46,1,1,1,,,0,FALSE,,,,,,,,,,,,,,,,,,,,,,,,,,,,,,
,5f23cc088105d31b5aa68d2c,001,2022-04-28_20h15.10.142,classification_task,2021.2.3,Win32,60.29908345,5f23cc088105d31b5aa68d2c,626b377229c10585ec392f8a,626b3bc7fe20fa0b71931667,,,,,,,,,,,,,,,,,,,,,,,l,1,1.0619,"[""0.032"",""0.087"",""0.608"",""0.769""]","[1,1,1,0]",0,47,47,47,1,1,1,,,0,FALSE,,,,,,,,,,,,,,,,,,,,,,,,,,,,,,
,5f23cc088105d31b5aa68d2c,001,2022-04-28_20h15.10.142,classification_task,2021.2.3,Win32,60.29908345,5f23cc088105d31b5aa68d2c,626b377229c10585ec392f8a,626b3bc7fe20fa0b71931667,,,,,,,,,,,,,,,,,,,,,,,a,0,1.1812,"[""0.451"",""0.174"",""0.525"",""0.720""]","[0,1,1,1]",0,48,48,48,1,1,0,,,0,FALSE,,,,,,,,,,,,,,,,,,,,,,,,,,,,,,
,5f23cc088105d31b5aa68d2c,001,2022-04-28_20h15.10.142,classification_task,2021.2.3,Win32,60.29908345,5f23cc088105d31b5aa68d2c,626b377229c10585ec392f8a,626b3bc7fe20fa0b71931667,,,,,,,,,,,,,,,,,,,,,,,a,1,3.8196,"[""0.769"",""0.405"",""0.898"",""0.970""]","[0,1,1,1]",0,49,49,49,1,0,0,,,0,FALSE,,,,,,,,,,,,,,,,,,,,,,,,,,,,,,
,5f23cc088105d31b5aa68d2c,001,2022-04-28_20h15.10.142,classification_task,2021.2.3,Win32,60.29908345,5f23cc088105d31b5aa68d2c,626b377229c10585ec392f8a,626b3bc7fe20fa0b71931667,,,,,,,,,,,,,,,,,,,,,,,l,1,1.3333,"[""0.642"",""0.087"",""0.608"",""0.816""]","[0,1,1,1]",0,50,50,50,1,1,1,,,0,FALSE,,,,,,,,,,,,,,,,,,,,,,,,,,,,,,
,5f23cc088105d31b5aa68d2c,001,2022-04-28_20h15.10.142,classification_task,2021.2.3,Win32,60.29908345,5f23cc088105d31b5aa68d2c,626b377229c10585ec392f8a,626b3bc7fe20fa0b71931667,,,,,,,,,,,,,,,,,,,,,,,a,1,1.396,"[""0.222"",""0.336"",""0.685"",""0.651""]","[1,1,1,0]",0,51,51,51,1,0,1,,,0,FALSE,,,,,,,,,,,,,,,,,,,,,,,,,,,,,,
,5f23cc088105d31b5aa68d2c,001,2022-04-28_20h15.10.142,classification_task,2021.2.3,Win32,60.29908345,5f23cc088105d31b5aa68d2c,626b377229c10585ec392f8a,626b3bc7fe20fa0b71931667,,,,,,,,,,,,,,,,,,,,,,,l,1,1.1789,"[""0.032"",""0.448"",""0.608"",""0.816""]","[1,0,1,1]",0,52,52,52,1,1,1,,,0,FALSE,,,,,,,,,,,,,,,,,,,,,,,,,,,,,,
,5f23cc088105d31b5aa68d2c,001,2022-04-28_20h15.10.142,classification_task,2021.2.3,Win32,60.29908345,5f23cc088105d31b5aa68d2c,626b377229c10585ec392f8a,626b3bc7fe20fa0b71931667,,,,,,,,,,,,,,,,,,,,,,,l,1,3.8646,"[""0.127"",""0.174"",""0.452"",""0.720""]","[1,1,0,1]",0,53,53,53,1,1,0,,,0,FALSE,,,,,,,,,,,,,,,,,,,,,,,,,,,,,,
,5f23cc088105d31b5aa68d2c,001,2022-04-28_20h15.10.142,classification_task,2021.2.3,Win32,60.29908345,5f23cc088105d31b5aa68d2c,626b377229c10585ec392f8a,626b3bc7fe20fa0b71931667,,,,,,,,,,,,,,,,,,,,,,,l,1,0.9717,"[""0.032"",""0.087"",""0.608"",""0.439""]","[1,1,1,0]",0,54,54,54,1,1,1,,,0,FALSE,,,,,,,,,,,,,,,,,,,,,,,,,,,,,,
,5f23cc088105d31b5aa68d2c,001,2022-04-28_20h15.10.142,classification_task,2021.2.3,Win32,60.29908345,5f23cc088105d31b5aa68d2c,626b377229c10585ec392f8a,626b3bc7fe20fa0b71931667,,,,,,,,,,,,,,,,,,,,,,,l,1,1.5828,"[""0.127"",""0.483"",""0.525"",""0.720""]","[1,0,1,1]",0,55,55,55,1,1,0,,,0,FALSE,,,,,,,,,,,,,,,,,,,,,,,,,,,,,,
,5f23cc088105d31b5aa68d2c,001,2022-04-28_20h15.10.142,classification_task,2021.2.3,Win32,60.29908345,5f23cc088105d31b5aa68d2c,626b377229c10585ec392f8a,626b3bc7fe20fa0b71931667,,,,,,,,,,,,,,,,,,,,,,,a,1,0.863,"[""0.642"",""0.336"",""0.685"",""0.860""]","[0,1,1,1]",0,56,56,56,1,0,1,,,0,FALSE,,,,,,,,,,,,,,,,,,,,,,,,,,,,,,
,5f23cc088105d31b5aa68d2c,001,2022-04-28_20h15.10.142,classification_task,2021.2.3,Win32,60.29908345,5f23cc088105d31b5aa68d2c,626b377229c10585ec392f8a,626b3bc7fe20fa0b71931667,,,,,,,,,,,,,,,,,,,,,,,a,1,1.626,"[""0.292"",""0.405"",""0.898"",""0.771""]","[1,1,1,0]",0,57,57,57,1,0,0,,,0,FALSE,,,,,,,,,,,,,,,,,,,,,,,,,,,,,,
,5f23cc088105d31b5aa68d2c,001,2022-04-28_20h15.10.142,classification_task,2021.2.3,Win32,60.29908345,5f23cc088105d31b5aa68d2c,626b377229c10585ec392f8a,626b3bc7fe20fa0b71931667,,,,,,,,,,,,,,,,,,,,,,,l,1,1.4592,"[""0.127"",""0.174"",""0.525"",""0.642""]","[1,1,1,0]",0,58,58,58,1,1,0,,,0,FALSE,,,,,,,,,,,,,,,,,,,,,,,,,,,,,,
,5f23cc088105d31b5aa68d2c,001,2022-04-28_20h15.10.142,classification_task,2021.2.3,Win32,60.29908345,5f23cc088105d31b5aa68d2c,626b377229c10585ec392f8a,626b3bc7fe20fa0b71931667,,,,,,,,,,,,,,,,,,,,,,,a,1,0.9267,"[""0.292"",""0.405"",""0.774"",""0.970""]","[1,1,0,1]",0,59,59,59,1,0,0,,,0,FALSE,,,,,,,,,,,,,,,,,,,,,,,,,,,,,,
,5f23cc088105d31b5aa68d2c,001,2022-04-28_20h15.10.142,classification_task,2021.2.3,Win32,60.29908345,5f23cc088105d31b5aa68d2c,626b377229c10585ec392f8a,626b3bc7fe20fa0b71931667,,,,,,,,,,,,,,,,,,,,,,,l,1,1.9418,"[""0.032"",""0.087"",""0.754"",""0.816""]","[1,1,0,1]",0,60,60,60,1,1,1,,,0,FALSE,,,,,,,,,,,,,,,,,,,,,,,,,,,,,,
,5f23cc088105d31b5aa68d2c,001,2022-04-28_20h15.10.142,classification_task,2021.2.3,Win32,60.29908345,5f23cc088105d31b5aa68d2c,626b377229c10585ec392f8a,626b3bc7fe20fa0b71931667,,,,,,,,,,,,,,,,,,,,,,,a,1,1.6457,"[""0.292"",""0.782"",""0.898"",""0.970""]","[1,0,1,1]",0,61,61,61,1,0,0,,,0,FALSE,,,,,,,,,,,,,,,,,,,,,,,,,,,,,,
,5f23cc088105d31b5aa68d2c,001,2022-04-28_20h15.10.142,classification_task,2021.2.3,Win32,60.29908345,5f23cc088105d31b5aa68d2c,626b377229c10585ec392f8a,626b3bc7fe20fa0b71931667,,,,,,,,,,,,,,,,,,,,,,,a,1,1.0546,"[""0.222"",""0.336"",""0.754"",""0.860""]","[1,1,0,1]",0,62,62,62,1,0,1,,,0,FALSE,,,,,,,,,,,,,,,,,,,,,,,,,,,,,,
,5f23cc088105d31b5aa68d2c,001,2022-04-28_20h15.10.142,classification_task,2021.2.3,Win32,60.29908345,5f23cc088105d31b5aa68d2c,626b377229c10585ec392f8a,626b3bc7fe20fa0b71931667,,,,,,,,,,,,,,,,,,,,,,,a,1,2.0956,"[""0.222"",""0.642"",""0.685"",""0.860""]","[1,0,1,1]",0,63,63,63,1,0,1,,,0,FALSE,,,,,,,,,,,,,,,,,,,,,,,,,,,,,,
,5f23cc088105d31b5aa68d2c,001,2022-04-28_20h15.10.142,classification_task,2021.2.3,Win32,60.29908345,5f23cc088105d31b5aa68d2c,626b377229c10585ec392f8a,626b3bc7fe20fa0b71931667,,,,,,,,,,,,,,,,,,,,,,,,,,,,,,,,,,,,,,,0, ,,0,5.068893298,485.5301,0,0,0,0,1,2,1,,,,,,,,,,,,,,,,,
,5f23cc088105d31b5aa68d2c,001,2022-04-28_20h15.10.142,classification_task,2021.2.3,Win32,60.29908345,5f23cc088105d31b5aa68d2c,626b377229c10585ec392f8a,626b3bc7fe20fa0b71931667,,,,,,,,,,,,,,,,,,,,,,,,,,,,,,,,,,,,,,,1,  ,,0,7.755731922,489.2032,0,0,0,0,1,2,1,,,,,,,,,,,,,,,,,
,5f23cc088105d31b5aa68d2c,001,2022-04-28_20h15.10.142,classification_task,2021.2.3,Win32,60.29908345,5f23cc088105d31b5aa68d2c,626b377229c10585ec392f8a,626b3bc7fe20fa0b71931667,,,,,,,,,,,,,,,,,,,,,,,,,,,,,,,,,,,,,,,2,  ,,0,1.45199515,496.62,0,0,0,0,1,2,1,,,,,,,,,,,,,,,,,
,5f23cc088105d31b5aa68d2c,001,2022-04-28_20h15.10.142,classification_task,2021.2.3,Win32,60.29908345,5f23cc088105d31b5aa68d2c,626b377229c10585ec392f8a,626b3bc7fe20fa0b71931667,,,,,,,,,,,,,,,,,,,,,,,,,,,,,,,,,,,,,,,,,,,,,0,0,0,0,1,,1,,,,,,,,,,,,,,,,,
,5f23cc088105d31b5aa68d2c,001,2022-04-28_20h15.10.142,classification_task,2021.2.3,Win32,60.29908345,5f23cc088105d31b5aa68d2c,626b377229c10585ec392f8a,626b3bc7fe20fa0b71931667,,,,,,,,,,,,,,,,,,,,,space,11.8719,l,1,2.5705,"[""0.032"",""0.087"",""0.771"",""0.816""]","[1,1,0,1]",0,0,0,0,1,1,1,,,0,FALSE,,,,,,,,,,,,,,,,,,,,,,,,,,,,,,
,5f23cc088105d31b5aa68d2c,001,2022-04-28_20h15.10.142,classification_task,2021.2.3,Win32,60.29908345,5f23cc088105d31b5aa68d2c,626b377229c10585ec392f8a,626b3bc7fe20fa0b71931667,,,,,,,,,,,,,,,,,,,,,,,a,1,4.0084,"[""0.769"",""0.405"",""0.898"",""0.970""]","[0,1,1,1]",0,1,1,1,1,0,0,,,0,FALSE,,,,,,,,,,,,,,,,,,,,,,,,,,,,,,
,5f23cc088105d31b5aa68d2c,001,2022-04-28_20h15.10.142,classification_task,2021.2.3,Win32,60.29908345,5f23cc088105d31b5aa68d2c,626b377229c10585ec392f8a,626b3bc7fe20fa0b71931667,,,,,,,,,,,,,,,,,,,,,,,a,1,2.1858,"[""0.292"",""0.405"",""0.451"",""0.970""]","[1,1,0,1]",0,2,2,2,1,0,0,,,0,FALSE,,,,,,,,,,,,,,,,,,,,,,,,,,,,,,
,5f23cc088105d31b5aa68d2c,001,2022-04-28_20h15.10.142,classification_task,2021.2.3,Win32,60.29908345,5f23cc088105d31b5aa68d2c,626b377229c10585ec392f8a,626b3bc7fe20fa0b71931667,,,,,,,,,,,,,,,,,,,,,,,a,1,0.8313,"[""0.292"",""0.405"",""0.898"",""0.642""]","[1,1,1,0]",0,3,3,3,1,0,0,,,0,FALSE,,,,,,,,,,,,,,,,,,,,,,,,,,,,,,
,5f23cc088105d31b5aa68d2c,001,2022-04-28_20h15.10.142,classification_task,2021.2.3,Win32,60.29908345,5f23cc088105d31b5aa68d2c,626b377229c10585ec392f8a,626b3bc7fe20fa0b71931667,,,,,,,,,,,,,,,,,,,,,,,a,1,1.875,"[""0.222"",""0.336"",""0.685"",""0.651""]","[1,1,1,0]",0,4,4,4,1,0,1,,,0,FALSE,,,,,,,,,,,,,,,,,,,,,,,,,,,,,,
,5f23cc088105d31b5aa68d2c,001,2022-04-28_20h15.10.142,classification_task,2021.2.3,Win32,60.29908345,5f23cc088105d31b5aa68d2c,626b377229c10585ec392f8a,626b3bc7fe20fa0b71931667,,,,,,,,,,,,,,,,,,,,,,,l,1,0.71,"[""0.127"",""0.174"",""0.525"",""0.774""]","[1,1,1,0]",0,5,5,5,1,1,0,,,0,FALSE,,,,,,,,,,,,,,,,,,,,,,,,,,,,,,
,5f23cc088105d31b5aa68d2c,001,2022-04-28_20h15.10.142,classification_task,2021.2.3,Win32,60.29908345,5f23cc088105d31b5aa68d2c,626b377229c10585ec392f8a,626b3bc7fe20fa0b71931667,,,,,,,,,,,,,,,,,,,,,,,a,1,1.1306,"[""0.292"",""0.935"",""0.898"",""0.970""]","[1,0,1,1]",0,6,6,6,1,0,0,,,0,FALSE,,,,,,,,,,,,,,,,,,,,,,,,,,,,,,
,5f23cc088105d31b5aa68d2c,001,2022-04-28_20h15.10.142,classification_task,2021.2.3,Win32,60.29908345,5f23cc088105d31b5aa68d2c,626b377229c10585ec392f8a,626b3bc7fe20fa0b71931667,,,,,,,,,,,,,,,,,,,,,,,l,1,1.4279,"[""0.032"",""0.642"",""0.608"",""0.816""]","[1,0,1,1]",0,7,7,7,1,1,1,,,0,FALSE,,,,,,,,,,,,,,,,,,,,,,,,,,,,,,
,5f23cc088105d31b5aa68d2c,001,2022-04-28_20h15.10.142,classification_task,2021.2.3,Win32,60.29908345,5f23cc088105d31b5aa68d2c,626b377229c10585ec392f8a,626b3bc7fe20fa0b71931667,,,,,,,,,,,,,,,,,,,,,,,a,1,0.9976,"[""0.222"",""0.439"",""0.685"",""0.860""]","[1,0,1,1]",0,8,8,8,1,0,1,,,0,FALSE,,,,,,,,,,,,,,,,,,,,,,,,,,,,,,
,5f23cc088105d31b5aa68d2c,001,2022-04-28_20h15.10.142,classification_task,2021.2.3,Win32,60.29908345,5f23cc088105d31b5aa68d2c,626b377229c10585ec392f8a,626b3bc7fe20fa0b71931667,,,,,,,,,,,,,,,,,,,,,,,l,1,0.6099,"[""0.127"",""0.452"",""0.525"",""0.720""]","[1,0,1,1]",0,9,9,9,1,1,0,,,0,FALSE,,,,,,,,,,,,,,,,,,,,,,,,,,,,,,
,5f23cc088105d31b5aa68d2c,001,2022-04-28_20h15.10.142,classification_task,2021.2.3,Win32,60.29908345,5f23cc088105d31b5aa68d2c,626b377229c10585ec392f8a,626b3bc7fe20fa0b71931667,,,,,,,,,,,,,,,,,,,,,,,l,1,1.8268,"[""0.032"",""0.087"",""0.608"",""0.483""]","[1,1,1,0]",0,10,10,10,1,1,1,,,0,FALSE,,,,,,,,,,,,,,,,,,,,,,,,,,,,,,
,5f23cc088105d31b5aa68d2c,001,2022-04-28_20h15.10.142,classification_task,2021.2.3,Win32,60.29908345,5f23cc088105d31b5aa68d2c,626b377229c10585ec392f8a,626b3bc7fe20fa0b71931667,,,,,,,,,,,,,,,,,,,,,,,l,1,0.5944,"[""0.771"",""0.174"",""0.525"",""0.720""]","[0,1,1,1]",0,11,11,11,1,1,0,,,0,FALSE,,,,,,,,,,,,,,,,,,,,,,,,,,,,,,
,5f23cc088105d31b5aa68d2c,001,2022-04-28_20h15.10.142,classification_task,2021.2.3,Win32,60.29908345,5f23cc088105d31b5aa68d2c,626b377229c10585ec392f8a,626b3bc7fe20fa0b71931667,,,,,,,,,,,,,,,,,,,,,,,a,1,0.9281,"[""0.222"",""0.336"",""0.483"",""0.860""]","[1,1,0,1]",0,12,12,12,1,0,1,,,0,FALSE,,,,,,,,,,,,,,,,,,,,,,,,,,,,,,
,5f23cc088105d31b5aa68d2c,001,2022-04-28_20h15.10.142,classification_task,2021.2.3,Win32,60.29908345,5f23cc088105d31b5aa68d2c,626b377229c10585ec392f8a,626b3bc7fe20fa0b71931667,,,,,,,,,,,,,,,,,,,,,,,l,1,1.4448,"[""0.771"",""0.087"",""0.608"",""0.816""]","[0,1,1,1]",0,13,13,13,1,1,1,,,0,FALSE,,,,,,,,,,,,,,,,,,,,,,,,,,,,,,
,5f23cc088105d31b5aa68d2c,001,2022-04-28_20h15.10.142,classification_task,2021.2.3,Win32,60.29908345,5f23cc088105d31b5aa68d2c,626b377229c10585ec392f8a,626b3bc7fe20fa0b71931667,,,,,,,,,,,,,,,,,,,,,,,l,1,1.5114,"[""0.127"",""0.174"",""0.451"",""0.720""]","[1,1,0,1]",0,14,14,14,1,1,0,,,0,FALSE,,,,,,,,,,,,,,,,,,,,,,,,,,,,,,
,5f23cc088105d31b5aa68d2c,001,2022-04-28_20h15.10.142,classification_task,2021.2.3,Win32,60.29908345,5f23cc088105d31b5aa68d2c,626b377229c10585ec392f8a,626b3bc7fe20fa0b71931667,,,,,,,,,,,,,,,,,,,,,,,a,1,1.8281,"[""0.774"",""0.336"",""0.685"",""0.860""]","[0,1,1,1]",0,15,15,15,1,0,1,,,0,FALSE,,,,,,,,,,,,,,,,,,,,,,,,,,,,,,
,5f23cc088105d31b5aa68d2c,001,2022-04-28_20h15.10.142,classification_task,2021.2.3,Win32,60.29908345,5f23cc088105d31b5aa68d2c,626b377229c10585ec392f8a,626b3bc7fe20fa0b71931667,,,,,,,,,,,,,,,,,,,,,,,a,1,1.1443,"[""0.222"",""0.336"",""0.444"",""0.860""]","[1,1,0,1]",0,16,16,16,1,0,1,,,0,FALSE,,,,,,,,,,,,,,,,,,,,,,,,,,,,,,
,5f23cc088105d31b5aa68d2c,001,2022-04-28_20h15.10.142,classification_task,2021.2.3,Win32,60.29908345,5f23cc088105d31b5aa68d2c,626b377229c10585ec392f8a,626b3bc7fe20fa0b71931667,,,,,,,,,,,,,,,,,,,,,,,l,1,0.6345,"[""0.127"",""0.771"",""0.525"",""0.720""]","[1,0,1,1]",0,17,17,17,1,1,0,,,0,FALSE,,,,,,,,,,,,,,,,,,,,,,,,,,,,,,
,5f23cc088105d31b5aa68d2c,001,2022-04-28_20h15.10.142,classification_task,2021.2.3,Win32,60.29908345,5f23cc088105d31b5aa68d2c,626b377229c10585ec392f8a,626b3bc7fe20fa0b71931667,,,,,,,,,,,,,,,,,,,,,,,a,1,2.7081,"[""0.222"",""0.336"",""0.685"",""0.754""]","[1,1,1,0]",0,18,18,18,1,0,1,,,0,FALSE,,,,,,,,,,,,,,,,,,,,,,,,,,,,,,
,5f23cc088105d31b5aa68d2c,001,2022-04-28_20h15.10.142,classification_task,2021.2.3,Win32,60.29908345,5f23cc088105d31b5aa68d2c,626b377229c10585ec392f8a,626b3bc7fe20fa0b71931667,,,,,,,,,,,,,,,,,,,,,,,l,0,0.6556,"[""0.292"",""0.405"",""0.898"",""0.761""]","[1,1,1,0]",0,19,19,19,1,0,0,,,0,FALSE,,,,,,,,,,,,,,,,,,,,,,,,,,,,,,
,5f23cc088105d31b5aa68d2c,001,2022-04-28_20h15.10.142,classification_task,2021.2.3,Win32,60.29908345,5f23cc088105d31b5aa68d2c,626b377229c10585ec392f8a,626b3bc7fe20fa0b71931667,,,,,,,,,,,,,,,,,,,,,,,a,1,1.8063,"[""0.292"",""0.774"",""0.898"",""0.970""]","[1,0,1,1]",0,20,20,20,1,0,0,,,0,FALSE,,,,,,,,,,,,,,,,,,,,,,,,,,,,,,
,5f23cc088105d31b5aa68d2c,001,2022-04-28_20h15.10.142,classification_task,2021.2.3,Win32,60.29908345,5f23cc088105d31b5aa68d2c,626b377229c10585ec392f8a,626b3bc7fe20fa0b71931667,,,,,,,,,,,,,,,,,,,,,,,a,1,1.855,"[""0.651"",""0.336"",""0.685"",""0.860""]","[0,1,1,1]",0,21,21,21,1,0,1,,,0,FALSE,,,,,,,,,,,,,,,,,,,,,,,,,,,,,,
,5f23cc088105d31b5aa68d2c,001,2022-04-28_20h15.10.142,classification_task,2021.2.3,Win32,60.29908345,5f23cc088105d31b5aa68d2c,626b377229c10585ec392f8a,626b3bc7fe20fa0b71931667,,,,,,,,,,,,,,,,,,,,,,,a,1,0.9712,"[""0.439"",""0.405"",""0.898"",""0.970""]","[0,1,1,1]",0,22,22,22,1,0,0,,,0,FALSE,,,,,,,,,,,,,,,,,,,,,,,,,,,,,,
,5f23cc088105d31b5aa68d2c,001,2022-04-28_20h15.10.142,classification_task,2021.2.3,Win32,60.29908345,5f23cc088105d31b5aa68d2c,626b377229c10585ec392f8a,626b3bc7fe20fa0b71931667,,,,,,,,,,,,,,,,,,,,,,,l,1,1.4076,"[""0.032"",""0.087"",""0.452"",""0.816""]","[1,1,0,1]",0,23,23,23,1,1,1,,,0,FALSE,,,,,,,,,,,,,,,,,,,,,,,,,,,,,,
,5f23cc088105d31b5aa68d2c,001,2022-04-28_20h15.10.142,classification_task,2021.2.3,Win32,60.29908345,5f23cc088105d31b5aa68d2c,626b377229c10585ec392f8a,626b3bc7fe20fa0b71931667,,,,,,,,,,,,,,,,,,,,,,,a,1,1.1732,"[""0.292"",""0.405"",""0.782"",""0.970""]","[1,1,0,1]",0,24,24,24,1,0,0,,,0,FALSE,,,,,,,,,,,,,,,,,,,,,,,,,,,,,,
,5f23cc088105d31b5aa68d2c,001,2022-04-28_20h15.10.142,classification_task,2021.2.3,Win32,60.29908345,5f23cc088105d31b5aa68d2c,626b377229c10585ec392f8a,626b3bc7fe20fa0b71931667,,,,,,,,,,,,,,,,,,,,,,,l,1,0.6906,"[""0.127"",""0.174"",""0.525"",""0.451""]","[1,1,1,0]",0,25,25,25,1,1,0,,,0,FALSE,,,,,,,,,,,,,,,,,,,,,,,,,,,,,,
,5f23cc088105d31b5aa68d2c,001,2022-04-28_20h15.10.142,classification_task,2021.2.3,Win32,60.29908345,5f23cc088105d31b5aa68d2c,626b377229c10585ec392f8a,626b3bc7fe20fa0b71931667,,,,,,,,,,,,,,,,,,,,,,,l,1,1.0738,"[""0.774"",""0.174"",""0.525"",""0.720""]","[0,1,1,1]",0,26,26,26,1,1,0,,,0,FALSE,,,,,,,,,,,,,,,,,,,,,,,,,,,,,,
,5f23cc088105d31b5aa68d2c,001,2022-04-28_20h15.10.142,classification_task,2021.2.3,Win32,60.29908345,5f23cc088105d31b5aa68d2c,626b377229c10585ec392f8a,626b3bc7fe20fa0b71931667,,,,,,,,,,,,,,,,,,,,,,,a,1,1.3993,"[""0.222"",""0.782"",""0.685"",""0.860""]","[1,0,1,1]",0,27,27,27,1,0,1,,,0,FALSE,,,,,,,,,,,,,,,,,,,,,,,,,,,,,,
,5f23cc088105d31b5aa68d2c,001,2022-04-28_20h15.10.142,classification_task,2021.2.3,Win32,60.29908345,5f23cc088105d31b5aa68d2c,626b377229c10585ec392f8a,626b3bc7fe20fa0b71931667,,,,,,,,,,,,,,,,,,,,,,,l,1,1.5306,"[""0.032"",""0.087"",""0.608"",""0.761""]","[1,1,1,0]",0,28,28,28,1,1,1,,,0,FALSE,,,,,,,,,,,,,,,,,,,,,,,,,,,,,,
,5f23cc088105d31b5aa68d2c,001,2022-04-28_20h15.10.142,classification_task,2021.2.3,Win32,60.29908345,5f23cc088105d31b5aa68d2c,626b377229c10585ec392f8a,626b3bc7fe20fa0b71931667,,,,,,,,,,,,,,,,,,,,,,,l,1,1.6762,"[""0.439"",""0.087"",""0.608"",""0.816""]","[0,1,1,1]",0,29,29,29,1,1,1,,,0,FALSE,,,,,,,,,,,,,,,,,,,,,,,,,,,,,,
,5f23cc088105d31b5aa68d2c,001,2022-04-28_20h15.10.142,classification_task,2021.2.3,Win32,60.29908345,5f23cc088105d31b5aa68d2c,626b377229c10585ec392f8a,626b3bc7fe20fa0b71931667,,,,,,,,,,,,,,,,,,,,,,,l,1,1.4,"[""0.127"",""0.174"",""0.451"",""0.720""]","[1,1,0,1]",0,30,30,30,1,1,0,,,0,FALSE,,,,,,,,,,,,,,,,,,,,,,,,,,,,,,
,5f23cc088105d31b5aa68d2c,001,2022-04-28_20h15.10.142,classification_task,2021.2.3,Win32,60.29908345,5f23cc088105d31b5aa68d2c,626b377229c10585ec392f8a,626b3bc7fe20fa0b71931667,,,,,,,,,,,,,,,,,,,,,,,l,1,2.9111,"[""0.032"",""0.642"",""0.608"",""0.816""]","[1,0,1,1]",0,31,31,31,1,1,1,,,0,FALSE,,,,,,,,,,,,,,,,,,,,,,,,,,,,,,
,5f23cc088105d31b5aa68d2c,001,2022-04-28_20h15.10.142,classification_task,2021.2.3,Win32,60.29908345,5f23cc088105d31b5aa68d2c,626b377229c10585ec392f8a,626b3bc7fe20fa0b71931667,,,,,,,,,,,,,,,,,,,,,,,l,1,1.2753,"[""0.754"",""0.174"",""0.525"",""0.720""]","[0,1,1,1]",0,32,32,32,1,1,0,,,0,FALSE,,,,,,,,,,,,,,,,,,,,,,,,,,,,,,
,5f23cc088105d31b5aa68d2c,001,2022-04-28_20h15.10.142,classification_task,2021.2.3,Win32,60.29908345,5f23cc088105d31b5aa68d2c,626b377229c10585ec392f8a,626b3bc7fe20fa0b71931667,,,,,,,,,,,,,,,,,,,,,,,a,1,2.72,"[""0.444"",""0.336"",""0.685"",""0.860""]","[0,1,1,1]",0,33,33,33,1,0,1,,,0,FALSE,,,,,,,,,,,,,,,,,,,,,,,,,,,,,,
,5f23cc088105d31b5aa68d2c,001,2022-04-28_20h15.10.142,classification_task,2021.2.3,Win32,60.29908345,5f23cc088105d31b5aa68d2c,626b377229c10585ec392f8a,626b3bc7fe20fa0b71931667,,,,,,,,,,,,,,,,,,,,,,,a,1,1.1129,"[""0.222"",""0.336"",""0.771"",""0.860""]","[1,1,0,1]",0,34,34,34,1,0,1,,,0,FALSE,,,,,,,,,,,,,,,,,,,,,,,,,,,,,,
,5f23cc088105d31b5aa68d2c,001,2022-04-28_20h15.10.142,classification_task,2021.2.3,Win32,60.29908345,5f23cc088105d31b5aa68d2c,626b377229c10585ec392f8a,626b3bc7fe20fa0b71931667,,,,,,,,,,,,,,,,,,,,,,,l,1,0.8782,"[""0.127"",""0.771"",""0.525"",""0.720""]","[1,0,1,1]",0,35,35,35,1,1,0,,,0,FALSE,,,,,,,,,,,,,,,,,,,,,,,,,,,,,,
,5f23cc088105d31b5aa68d2c,001,2022-04-28_20h15.10.142,classification_task,2021.2.3,Win32,60.29908345,5f23cc088105d31b5aa68d2c,626b377229c10585ec392f8a,626b3bc7fe20fa0b71931667,,,,,,,,,,,,,,,,,,,,,,,a,1,1.1146,"[""0.292"",""0.651"",""0.898"",""0.970""]","[1,0,1,1]",0,36,36,36,1,0,0,,,0,FALSE,,,,,,,,,,,,,,,,,,,,,,,,,,,,,,
,5f23cc088105d31b5aa68d2c,001,2022-04-28_20h15.10.142,classification_task,2021.2.3,Win32,60.29908345,5f23cc088105d31b5aa68d2c,626b377229c10585ec392f8a,626b3bc7fe20fa0b71931667,,,,,,,,,,,,,,,,,,,,,,,a,1,1.1611,"[""0.222"",""0.774"",""0.685"",""0.860""]","[1,0,1,1]",0,37,37,37,1,0,1,,,0,FALSE,,,,,,,,,,,,,,,,,,,,,,,,,,,,,,
,5f23cc088105d31b5aa68d2c,001,2022-04-28_20h15.10.142,classification_task,2021.2.3,Win32,60.29908345,5f23cc088105d31b5aa68d2c,626b377229c10585ec392f8a,626b3bc7fe20fa0b71931667,,,,,,,,,,,,,,,,,,,,,,,l,1,0.7303,"[""0.127"",""0.174"",""0.525"",""0.935""]","[1,1,1,0]",0,38,38,38,1,1,0,,,0,FALSE,,,,,,,,,,,,,,,,,,,,,,,,,,,,,,
,5f23cc088105d31b5aa68d2c,001,2022-04-28_20h15.10.142,classification_task,2021.2.3,Win32,60.29908345,5f23cc088105d31b5aa68d2c,626b377229c10585ec392f8a,626b3bc7fe20fa0b71931667,,,,,,,,,,,,,,,,,,,,,,,l,1,1.3953,"[""0.032"",""0.087"",""0.771"",""0.816""]","[1,1,0,1]",0,39,39,39,1,1,1,,,0,FALSE,,,,,,,,,,,,,,,,,,,,,,,,,,,,,,
,5f23cc088105d31b5aa68d2c,001,2022-04-28_20h15.10.142,classification_task,2021.2.3,Win32,60.29908345,5f23cc088105d31b5aa68d2c,626b377229c10585ec392f8a,626b3bc7fe20fa0b71931667,,,,,,,,,,,,,,,,,,,,,,,l,1,1.2799,"[""0.032"",""0.782"",""0.608"",""0.816""]","[1,0,1,1]",0,40,40,40,1,1,1,,,0,FALSE,,,,,,,,,,,,,,,,,,,,,,,,,,,,,,
,5f23cc088105d31b5aa68d2c,001,2022-04-28_20h15.10.142,classification_task,2021.2.3,Win32,60.29908345,5f23cc088105d31b5aa68d2c,626b377229c10585ec392f8a,626b3bc7fe20fa0b71931667,,,,,,,,,,,,,,,,,,,,,,,l,1,1.3117,"[""0.127"",""0.174"",""0.439"",""0.720""]","[1,1,0,1]",0,41,41,41,1,1,0,,,0,FALSE,,,,,,,,,,,,,,,,,,,,,,,,,,,,,,
,5f23cc088105d31b5aa68d2c,001,2022-04-28_20h15.10.142,classification_task,2021.2.3,Win32,60.29908345,5f23cc088105d31b5aa68d2c,626b377229c10585ec392f8a,626b3bc7fe20fa0b71931667,,,,,,,,,,,,,,,,,,,,,,,l,1,1.1792,"[""0.032"",""0.087"",""0.608"",""0.651""]","[1,1,1,0]",0,42,42,42,1,1,1,,,0,FALSE,,,,,,,,,,,,,,,,,,,,,,,,,,,,,,
,5f23cc088105d31b5aa68d2c,001,2022-04-28_20h15.10.142,classification_task,2021.2.3,Win32,60.29908345,5f23cc088105d31b5aa68d2c,626b377229c10585ec392f8a,626b3bc7fe20fa0b71931667,,,,,,,,,,,,,,,,,,,,,,,a,1,0.7097,"[""0.292"",""0.405"",""0.444"",""0.970""]","[1,1,0,1]",0,43,43,43,1,0,0,,,0,FALSE,,,,,,,,,,,,,,,,,,,,,,,,,,,,,,
,5f23cc088105d31b5aa68d2c,001,2022-04-28_20h15.10.142,classification_task,2021.2.3,Win32,60.29908345,5f23cc088105d31b5aa68d2c,626b377229c10585ec392f8a,626b3bc7fe20fa0b71931667,,,,,,,,,,,,,,,,,,,,,,,a,1,0.5005,"[""0.292"",""0.405"",""0.898"",""0.444""]","[1,1,1,0]",0,44,44,44,1,0,0,,,0,FALSE,,,,,,,,,,,,,,,,,,,,,,,,,,,,,,
,5f23cc088105d31b5aa68d2c,001,2022-04-28_20h15.10.142,classification_task,2021.2.3,Win32,60.29908345,5f23cc088105d31b5aa68d2c,626b377229c10585ec392f8a,626b3bc7fe20fa0b71931667,,,,,,,,,,,,,,,,,,,,,,,l,1,2.313,"[""0.483"",""0.087"",""0.608"",""0.816""]","[0,1,1,1]",0,45,45,45,1,1,1,,,0,FALSE,,,,,,,,,,,,,,,,,,,,,,,,,,,,,,
,5f23cc088105d31b5aa68d2c,001,2022-04-28_20h15.10.142,classification_task,2021.2.3,Win32,60.29908345,5f23cc088105d31b5aa68d2c,626b377229c10585ec392f8a,626b3bc7fe20fa0b71931667,,,,,,,,,,,,,,,,,,,,,,,a,1,1.088,"[""0.439"",""0.405"",""0.898"",""0.970""]","[0,1,1,1]",0,46,46,46,1,0,0,,,0,FALSE,,,,,,,,,,,,,,,,,,,,,,,,,,,,,,
,5f23cc088105d31b5aa68d2c,001,2022-04-28_20h15.10.142,classification_task,2021.2.3,Win32,60.29908345,5f23cc088105d31b5aa68d2c,626b377229c10585ec392f8a,626b3bc7fe20fa0b71931667,,,,,,,,,,,,,,,,,,,,,,,a,1,1.1502,"[""0.222"",""0.336"",""0.685"",""0.444""]","[1,1,1,0]",0,47,47,47,1,0,1,,,0,FALSE,,,,,,,,,,,,,,,,,,,,,,,,,,,,,,
,5f23cc088105d31b5aa68d2c,001,2022-04-28_20h15.10.142,classification_task,2021.2.3,Win32,60.29908345,5f23cc088105d31b5aa68d2c,626b377229c10585ec392f8a,626b3bc7fe20fa0b71931667,,,,,,,,,,,,,,,,,,,,,,,a,1,1.924,"[""0.769"",""0.336"",""0.685"",""0.860""]","[0,1,1,1]",0,48,48,48,1,0,1,,,0,FALSE,,,,,,,,,,,,,,,,,,,,,,,,,,,,,,
,5f23cc088105d31b5aa68d2c,001,2022-04-28_20h15.10.142,classification_task,2021.2.3,Win32,60.29908345,5f23cc088105d31b5aa68d2c,626b377229c10585ec392f8a,626b3bc7fe20fa0b71931667,,,,,,,,,,,,,,,,,,,,,,,l,1,2.2517,"[""0.439"",""0.174"",""0.525"",""0.720""]","[0,1,1,1]",0,49,49,49,1,1,0,,,0,FALSE,,,,,,,,,,,,,,,,,,,,,,,,,,,,,,
,5f23cc088105d31b5aa68d2c,001,2022-04-28_20h15.10.142,classification_task,2021.2.3,Win32,60.29908345,5f23cc088105d31b5aa68d2c,626b377229c10585ec392f8a,626b3bc7fe20fa0b71931667,,,,,,,,,,,,,,,,,,,,,,,l,1,1.9816,"[""0.032"",""0.087"",""0.608"",""0.452""]","[1,1,1,0]",0,50,50,50,1,1,1,,,0,FALSE,,,,,,,,,,,,,,,,,,,,,,,,,,,,,,
,5f23cc088105d31b5aa68d2c,001,2022-04-28_20h15.10.142,classification_task,2021.2.3,Win32,60.29908345,5f23cc088105d31b5aa68d2c,626b377229c10585ec392f8a,626b3bc7fe20fa0b71931667,,,,,,,,,,,,,,,,,,,,,,,l,0,3.4515,"[""0.292"",""0.405"",""0.448"",""0.970""]","[1,1,0,1]",0,51,51,51,1,0,0,,,0,FALSE,,,,,,,,,,,,,,,,,,,,,,,,,,,,,,
,5f23cc088105d31b5aa68d2c,001,2022-04-28_20h15.10.142,classification_task,2021.2.3,Win32,60.29908345,5f23cc088105d31b5aa68d2c,626b377229c10585ec392f8a,626b3bc7fe20fa0b71931667,,,,,,,,,,,,,,,,,,,,,,,l,1,1.6596,"[""0.127"",""0.771"",""0.525"",""0.720""]","[1,0,1,1]",0,52,52,52,1,1,0,,,0,FALSE,,,,,,,,,,,,,,,,,,,,,,,,,,,,,,
,5f23cc088105d31b5aa68d2c,001,2022-04-28_20h15.10.142,classification_task,2021.2.3,Win32,60.29908345,5f23cc088105d31b5aa68d2c,626b377229c10585ec392f8a,626b3bc7fe20fa0b71931667,,,,,,,,,,,,,,,,,,,,,,,a,0,1.0712,"[""0.032"",""0.782"",""0.608"",""0.816""]","[1,0,1,1]",0,53,53,53,1,1,1,,,0,FALSE,,,,,,,,,,,,,,,,,,,,,,,,,,,,,,
,5f23cc088105d31b5aa68d2c,001,2022-04-28_20h15.10.142,classification_task,2021.2.3,Win32,60.29908345,5f23cc088105d31b5aa68d2c,626b377229c10585ec392f8a,626b3bc7fe20fa0b71931667,,,,,,,,,,,,,,,,,,,,,,,a,1,1.4444,"[""0.222"",""0.448"",""0.685"",""0.860""]","[1,0,1,1]",0,54,54,54,1,0,1,,,0,FALSE,,,,,,,,,,,,,,,,,,,,,,,,,,,,,,
,5f23cc088105d31b5aa68d2c,001,2022-04-28_20h15.10.142,classification_task,2021.2.3,Win32,60.29908345,5f23cc088105d31b5aa68d2c,626b377229c10585ec392f8a,626b3bc7fe20fa0b71931667,,,,,,,,,,,,,,,,,,,,,,,a,1,2.2356,"[""0.754"",""0.405"",""0.898"",""0.970""]","[0,1,1,1]",0,55,55,55,1,0,0,,,0,FALSE,,,,,,,,,,,,,,,,,,,,,,,,,,,,,,
,5f23cc088105d31b5aa68d2c,001,2022-04-28_20h15.10.142,classification_task,2021.2.3,Win32,60.29908345,5f23cc088105d31b5aa68d2c,626b377229c10585ec392f8a,626b3bc7fe20fa0b71931667,,,,,,,,,,,,,,,,,,,,,,,l,0,2.8858,"[""0.292"",""0.405"",""0.898"",""0.452""]","[1,1,1,0]",0,56,56,56,1,0,0,,,0,FALSE,,,,,,,,,,,,,,,,,,,,,,,,,,,,,,
,5f23cc088105d31b5aa68d2c,001,2022-04-28_20h15.10.142,classification_task,2021.2.3,Win32,60.29908345,5f23cc088105d31b5aa68d2c,626b377229c10585ec392f8a,626b3bc7fe20fa0b71931667,,,,,,,,,,,,,,,,,,,,,,,l,1,1.0932,"[""0.032"",""0.087"",""0.774"",""0.816""]","[1,1,0,1]",0,57,57,57,1,1,1,,,0,FALSE,,,,,,,,,,,,,,,,,,,,,,,,,,,,,,
,5f23cc088105d31b5aa68d2c,001,2022-04-28_20h15.10.142,classification_task,2021.2.3,Win32,60.29908345,5f23cc088105d31b5aa68d2c,626b377229c10585ec392f8a,626b3bc7fe20fa0b71931667,,,,,,,,,,,,,,,,,,,,,,,l,1,1.7312,"[""0.774"",""0.087"",""0.608"",""0.816""]","[0,1,1,1]",0,58,58,58,1,1,1,,,0,FALSE,,,,,,,,,,,,,,,,,,,,,,,,,,,,,,
,5f23cc088105d31b5aa68d2c,001,2022-04-28_20h15.10.142,classification_task,2021.2.3,Win32,60.29908345,5f23cc088105d31b5aa68d2c,626b377229c10585ec392f8a,626b3bc7fe20fa0b71931667,,,,,,,,,,,,,,,,,,,,,,,a,1,0.7643,"[""0.222"",""0.336"",""0.685"",""0.761""]","[1,1,1,0]",0,59,59,59,1,0,1,,,0,FALSE,,,,,,,,,,,,,,,,,,,,,,,,,,,,,,
,5f23cc088105d31b5aa68d2c,001,2022-04-28_20h15.10.142,classification_task,2021.2.3,Win32,60.29908345,5f23cc088105d31b5aa68d2c,626b377229c10585ec392f8a,626b3bc7fe20fa0b71931667,,,,,,,,,,,,,,,,,,,,,,,a,1,3.0112,"[""0.292"",""0.782"",""0.898"",""0.970""]","[1,0,1,1]",0,60,60,60,1,0,0,,,0,FALSE,,,,,,,,,,,,,,,,,,,,,,,,,,,,,,
,5f23cc088105d31b5aa68d2c,001,2022-04-28_20h15.10.142,classification_task,2021.2.3,Win32,60.29908345,5f23cc088105d31b5aa68d2c,626b377229c10585ec392f8a,626b3bc7fe20fa0b71931667,,,,,,,,,,,,,,,,,,,,,,,a,1,0.9961,"[""0.222"",""0.336"",""0.651"",""0.860""]","[1,1,0,1]",0,61,61,61,1,0,1,,,0,FALSE,,,,,,,,,,,,,,,,,,,,,,,,,,,,,,
,5f23cc088105d31b5aa68d2c,001,2022-04-28_20h15.10.142,classification_task,2021.2.3,Win32,60.29908345,5f23cc088105d31b5aa68d2c,626b377229c10585ec392f8a,626b3bc7fe20fa0b71931667,,,,,,,,,,,,,,,,,,,,,,,l,1,1.223,"[""0.127"",""0.174"",""0.774"",""0.720""]","[1,1,0,1]",0,62,62,62,1,1,0,,,0,FALSE,,,,,,,,,,,,,,,,,,,,,,,,,,,,,,
,5f23cc088105d31b5aa68d2c,001,2022-04-28_20h15.10.142,classification_task,2021.2.3,Win32,60.29908345,5f23cc088105d31b5aa68d2c,626b377229c10585ec392f8a,626b3bc7fe20fa0b71931667,,,,,,,,,,,,,,,,,,,,,,,l,1,1.0794,"[""0.127"",""0.174"",""0.525"",""0.782""]","[1,1,1,0]",0,63,63,63,1,1,0,,,0,FALSE,,,,,,,,,,,,,,,,,,,,,,,,,,,,,,
,5f23cc088105d31b5aa68d2c,001,2022-04-28_20h15.10.142,classification_task,2021.2.3,Win32,60.29908345,5f23cc088105d31b5aa68d2c,626b377229c10585ec392f8a,626b3bc7fe20fa0b71931667,,,,,,,,,,,,,,,,,,,,,,,,,,,,,,,,,,,,,,,0, ,,0,4.965553351,188.5148,0,1,1,1,1,2,2,,,,,,,,,,,,,,,,,
,5f23cc088105d31b5aa68d2c,001,2022-04-28_20h15.10.142,classification_task,2021.2.3,Win32,60.29908345,5f23cc088105d31b5aa68d2c,626b377229c10585ec392f8a,626b3bc7fe20fa0b71931667,,,,,,,,,,,,,,,,,,,,,,,,,,,,,,,,,,,,,,,1,  ,,0,9.994764109,190.373,0,1,1,1,1,2,2,,,,,,,,,,,,,,,,,
,5f23cc088105d31b5aa68d2c,001,2022-04-28_20h15.10.142,classification_task,2021.2.3,Win32,60.29908345,5f23cc088105d31b5aa68d2c,626b377229c10585ec392f8a,626b3bc7fe20fa0b71931667,,,,,,,,,,,,,,,,,,,,,,,,,,,,,,,,,,,,,,,2,  ,,0,0.831955467,194.5267,0,1,1,1,1,2,2,,,,,,,,,,,,,,,,,
,5f23cc088105d31b5aa68d2c,001,2022-04-28_20h15.10.142,classification_task,2021.2.3,Win32,60.29908345,5f23cc088105d31b5aa68d2c,626b377229c10585ec392f8a,626b3bc7fe20fa0b71931667,,,,,,,,,,,,,,,,,,,,,,,,,,,,,,,,,,,,,,,,,,,,,0,1,1,1,1,,2,,,,,,,,,,,,,,,,,
,5f23cc088105d31b5aa68d2c,001,2022-04-28_20h15.10.142,classification_task,2021.2.3,Win32,60.29908345,5f23cc088105d31b5aa68d2c,626b377229c10585ec392f8a,626b3bc7fe20fa0b71931667,,,,,,,,,,,,,,,,,,,,,space,8.4491,l,1,1.4613,"[""0.032"",""0.087"",""0.444"",""0.816""]","[1,1,0,1]",0,0,0,0,1,1,1,,,0,FALSE,,,,,,,,,,,,,,,,,,,,,,,,,,,,,,
,5f23cc088105d31b5aa68d2c,001,2022-04-28_20h15.10.142,classification_task,2021.2.3,Win32,60.29908345,5f23cc088105d31b5aa68d2c,626b377229c10585ec392f8a,626b3bc7fe20fa0b71931667,,,,,,,,,,,,,,,,,,,,,,,l,1,1.6556,"[""0.127"",""0.174"",""0.483"",""0.720""]","[1,1,0,1]",0,1,1,1,1,1,0,,,0,FALSE,,,,,,,,,,,,,,,,,,,,,,,,,,,,,,
,5f23cc088105d31b5aa68d2c,001,2022-04-28_20h15.10.142,classification_task,2021.2.3,Win32,60.29908345,5f23cc088105d31b5aa68d2c,626b377229c10585ec392f8a,626b3bc7fe20fa0b71931667,,,,,,,,,,,,,,,,,,,,,,,l,1,1.8433,"[""0.032"",""0.087"",""0.608"",""0.769""]","[1,1,1,0]",0,2,2,2,1,1,1,,,0,FALSE,,,,,,,,,,,,,,,,,,,,,,,,,,,,,,
,5f23cc088105d31b5aa68d2c,001,2022-04-28_20h15.10.142,classification_task,2021.2.3,Win32,60.29908345,5f23cc088105d31b5aa68d2c,626b377229c10585ec392f8a,626b3bc7fe20fa0b71931667,,,,,,,,,,,,,,,,,,,,,,,a,1,0.9705,"[""0.292"",""0.452"",""0.898"",""0.970""]","[1,0,1,1]",0,3,3,3,1,0,0,,,0,FALSE,,,,,,,,,,,,,,,,,,,,,,,,,,,,,,
,5f23cc088105d31b5aa68d2c,001,2022-04-28_20h15.10.142,classification_task,2021.2.3,Win32,60.29908345,5f23cc088105d31b5aa68d2c,626b377229c10585ec392f8a,626b3bc7fe20fa0b71931667,,,,,,,,,,,,,,,,,,,,,,,a,1,3.1824,"[""0.483"",""0.405"",""0.898"",""0.970""]","[0,1,1,1]",0,4,4,4,1,0,0,,,0,FALSE,,,,,,,,,,,,,,,,,,,,,,,,,,,,,,
,5f23cc088105d31b5aa68d2c,001,2022-04-28_20h15.10.142,classification_task,2021.2.3,Win32,60.29908345,5f23cc088105d31b5aa68d2c,626b377229c10585ec392f8a,626b3bc7fe20fa0b71931667,,,,,,,,,,,,,,,,,,,,,,,a,1,0.7671,"[""0.222"",""0.448"",""0.685"",""0.860""]","[1,0,1,1]",0,5,5,5,1,0,1,,,0,FALSE,,,,,,,,,,,,,,,,,,,,,,,,,,,,,,
,5f23cc088105d31b5aa68d2c,001,2022-04-28_20h15.10.142,classification_task,2021.2.3,Win32,60.29908345,5f23cc088105d31b5aa68d2c,626b377229c10585ec392f8a,626b3bc7fe20fa0b71931667,,,,,,,,,,,,,,,,,,,,,,,l,1,1.6896,"[""0.127"",""0.174"",""0.525"",""0.642""]","[1,1,1,0]",0,6,6,6,1,1,0,,,0,FALSE,,,,,,,,,,,,,,,,,,,,,,,,,,,,,,
,5f23cc088105d31b5aa68d2c,001,2022-04-28_20h15.10.142,classification_task,2021.2.3,Win32,60.29908345,5f23cc088105d31b5aa68d2c,626b377229c10585ec392f8a,626b3bc7fe20fa0b71931667,,,,,,,,,,,,,,,,,,,,,,,a,1,0.971,"[""0.292"",""0.405"",""0.451"",""0.970""]","[1,1,0,1]",0,7,7,7,1,0,0,,,0,FALSE,,,,,,,,,,,,,,,,,,,,,,,,,,,,,,
,5f23cc088105d31b5aa68d2c,001,2022-04-28_20h15.10.142,classification_task,2021.2.3,Win32,60.29908345,5f23cc088105d31b5aa68d2c,626b377229c10585ec392f8a,626b3bc7fe20fa0b71931667,,,,,,,,,,,,,,,,,,,,,,,a,1,1.116,"[""0.769"",""0.336"",""0.685"",""0.860""]","[0,1,1,1]",0,8,8,8,1,0,1,,,0,FALSE,,,,,,,,,,,,,,,,,,,,,,,,,,,,,,
,5f23cc088105d31b5aa68d2c,001,2022-04-28_20h15.10.142,classification_task,2021.2.3,Win32,60.29908345,5f23cc088105d31b5aa68d2c,626b377229c10585ec392f8a,626b3bc7fe20fa0b71931667,,,,,,,,,,,,,,,,,,,,,,,l,1,1.2628,"[""0.032"",""0.651"",""0.608"",""0.816""]","[1,0,1,1]",0,9,9,9,1,1,1,,,0,FALSE,,,,,,,,,,,,,,,,,,,,,,,,,,,,,,
,5f23cc088105d31b5aa68d2c,001,2022-04-28_20h15.10.142,classification_task,2021.2.3,Win32,60.29908345,5f23cc088105d31b5aa68d2c,626b377229c10585ec392f8a,626b3bc7fe20fa0b71931667,,,,,,,,,,,,,,,,,,,,,,,l,1,1.5972,"[""0.444"",""0.087"",""0.608"",""0.816""]","[0,1,1,1]",0,10,10,10,1,1,1,,,0,FALSE,,,,,,,,,,,,,,,,,,,,,,,,,,,,,,
,5f23cc088105d31b5aa68d2c,001,2022-04-28_20h15.10.142,classification_task,2021.2.3,Win32,60.29908345,5f23cc088105d31b5aa68d2c,626b377229c10585ec392f8a,626b3bc7fe20fa0b71931667,,,,,,,,,,,,,,,,,,,,,,,a,1,0.9276,"[""0.222"",""0.336"",""0.935"",""0.860""]","[1,1,0,1]",0,11,11,11,1,0,1,,,0,FALSE,,,,,,,,,,,,,,,,,,,,,,,,,,,,,,
,5f23cc088105d31b5aa68d2c,001,2022-04-28_20h15.10.142,classification_task,2021.2.3,Win32,60.29908345,5f23cc088105d31b5aa68d2c,626b377229c10585ec392f8a,626b3bc7fe20fa0b71931667,,,,,,,,,,,,,,,,,,,,,,,l,1,1.3778,"[""0.451"",""0.174"",""0.525"",""0.720""]","[0,1,1,1]",0,12,12,12,1,1,0,,,0,FALSE,,,,,,,,,,,,,,,,,,,,,,,,,,,,,,
,5f23cc088105d31b5aa68d2c,001,2022-04-28_20h15.10.142,classification_task,2021.2.3,Win32,60.29908345,5f23cc088105d31b5aa68d2c,626b377229c10585ec392f8a,626b3bc7fe20fa0b71931667,,,,,,,,,,,,,,,,,,,,,,,a,1,0.7489,"[""0.222"",""0.336"",""0.685"",""0.774""]","[1,1,1,0]",0,13,13,13,1,0,1,,,0,FALSE,,,,,,,,,,,,,,,,,,,,,,,,,,,,,,
,5f23cc088105d31b5aa68d2c,001,2022-04-28_20h15.10.142,classification_task,2021.2.3,Win32,60.29908345,5f23cc088105d31b5aa68d2c,626b377229c10585ec392f8a,626b3bc7fe20fa0b71931667,,,,,,,,,,,,,,,,,,,,,,,l,1,1.1321,"[""0.127"",""0.754"",""0.525"",""0.720""]","[1,0,1,1]",0,14,14,14,1,1,0,,,0,FALSE,,,,,,,,,,,,,,,,,,,,,,,,,,,,,,
,5f23cc088105d31b5aa68d2c,001,2022-04-28_20h15.10.142,classification_task,2021.2.3,Win32,60.29908345,5f23cc088105d31b5aa68d2c,626b377229c10585ec392f8a,626b3bc7fe20fa0b71931667,,,,,,,,,,,,,,,,,,,,,,,a,1,0.8265,"[""0.292"",""0.405"",""0.898"",""0.935""]","[1,1,1,0]",0,15,15,15,1,0,0,,,0,FALSE,,,,,,,,,,,,,,,,,,,,,,,,,,,,,,
,5f23cc088105d31b5aa68d2c,001,2022-04-28_20h15.10.142,classification_task,2021.2.3,Win32,60.29908345,5f23cc088105d31b5aa68d2c,626b377229c10585ec392f8a,626b3bc7fe20fa0b71931667,,,,,,,,,,,,,,,,,,,,,,,a,1,1.6645,"[""0.292"",""0.642"",""0.898"",""0.970""]","[1,0,1,1]",0,16,16,16,1,0,0,,,0,FALSE,,,,,,,,,,,,,,,,,,,,,,,,,,,,,,
,5f23cc088105d31b5aa68d2c,001,2022-04-28_20h15.10.142,classification_task,2021.2.3,Win32,60.29908345,5f23cc088105d31b5aa68d2c,626b377229c10585ec392f8a,626b3bc7fe20fa0b71931667,,,,,,,,,,,,,,,,,,,,,,,l,1,1.7259,"[""0.032"",""0.451"",""0.608"",""0.816""]","[1,0,1,1]",0,17,17,17,1,1,1,,,0,FALSE,,,,,,,,,,,,,,,,,,,,,,,,,,,,,,
,5f23cc088105d31b5aa68d2c,001,2022-04-28_20h15.10.142,classification_task,2021.2.3,Win32,60.29908345,5f23cc088105d31b5aa68d2c,626b377229c10585ec392f8a,626b3bc7fe20fa0b71931667,,,,,,,,,,,,,,,,,,,,,,,l,1,1.5831,"[""0.032"",""0.087"",""0.451"",""0.816""]","[1,1,0,1]",0,18,18,18,1,1,1,,,0,FALSE,,,,,,,,,,,,,,,,,,,,,,,,,,,,,,
,5f23cc088105d31b5aa68d2c,001,2022-04-28_20h15.10.142,classification_task,2021.2.3,Win32,60.29908345,5f23cc088105d31b5aa68d2c,626b377229c10585ec392f8a,626b3bc7fe20fa0b71931667,,,,,,,,,,,,,,,,,,,,,,,l,1,2.0678,"[""0.127"",""0.174"",""0.935"",""0.720""]","[1,1,0,1]",0,19,19,19,1,1,0,,,0,FALSE,,,,,,,,,,,,,,,,,,,,,,,,,,,,,,
,5f23cc088105d31b5aa68d2c,001,2022-04-28_20h15.10.142,classification_task,2021.2.3,Win32,60.29908345,5f23cc088105d31b5aa68d2c,626b377229c10585ec392f8a,626b3bc7fe20fa0b71931667,,,,,,,,,,,,,,,,,,,,,,,a,1,0.8832,"[""0.222"",""0.336"",""0.439"",""0.860""]","[1,1,0,1]",0,20,20,20,1,0,1,,,0,FALSE,,,,,,,,,,,,,,,,,,,,,,,,,,,,,,
,5f23cc088105d31b5aa68d2c,001,2022-04-28_20h15.10.142,classification_task,2021.2.3,Win32,60.29908345,5f23cc088105d31b5aa68d2c,626b377229c10585ec392f8a,626b3bc7fe20fa0b71931667,,,,,,,,,,,,,,,,,,,,,,,l,0,2.2766,"[""0.292"",""0.405"",""0.483"",""0.970""]","[1,1,0,1]",0,21,21,21,1,0,0,,,0,FALSE,,,,,,,,,,,,,,,,,,,,,,,,,,,,,,
,5f23cc088105d31b5aa68d2c,001,2022-04-28_20h15.10.142,classification_task,2021.2.3,Win32,60.29908345,5f23cc088105d31b5aa68d2c,626b377229c10585ec392f8a,626b3bc7fe20fa0b71931667,,,,,,,,,,,,,,,,,,,,,,,l,1,4.2304,"[""0.127"",""0.174"",""0.525"",""0.451""]","[1,1,1,0]",0,22,22,22,1,1,0,,,0,FALSE,,,,,,,,,,,,,,,,,,,,,,,,,,,,,,
,5f23cc088105d31b5aa68d2c,001,2022-04-28_20h15.10.142,classification_task,2021.2.3,Win32,60.29908345,5f23cc088105d31b5aa68d2c,626b377229c10585ec392f8a,626b3bc7fe20fa0b71931667,,,,,,,,,,,,,,,,,,,,,,,a,0,0.6702,"[""0.444"",""0.174"",""0.525"",""0.720""]","[0,1,1,1]",0,23,23,23,1,1,0,,,0,FALSE,,,,,,,,,,,,,,,,,,,,,,,,,,,,,,
,5f23cc088105d31b5aa68d2c,001,2022-04-28_20h15.10.142,classification_task,2021.2.3,Win32,60.29908345,5f23cc088105d31b5aa68d2c,626b377229c10585ec392f8a,626b3bc7fe20fa0b71931667,,,,,,,,,,,,,,,,,,,,,,,l,1,1.1254,"[""0.127"",""0.769"",""0.525"",""0.720""]","[1,0,1,1]",0,24,24,24,1,1,0,,,0,FALSE,,,,,,,,,,,,,,,,,,,,,,,,,,,,,,
,5f23cc088105d31b5aa68d2c,001,2022-04-28_20h15.10.142,classification_task,2021.2.3,Win32,60.29908345,5f23cc088105d31b5aa68d2c,626b377229c10585ec392f8a,626b3bc7fe20fa0b71931667,,,,,,,,,,,,,,,,,,,,,,,a,1,1.0501,"[""0.222"",""0.769"",""0.685"",""0.860""]","[1,0,1,1]",0,25,25,25,1,0,1,,,0,FALSE,,,,,,,,,,,,,,,,,,,,,,,,,,,,,,
,5f23cc088105d31b5aa68d2c,001,2022-04-28_20h15.10.142,classification_task,2021.2.3,Win32,60.29908345,5f23cc088105d31b5aa68d2c,626b377229c10585ec392f8a,626b3bc7fe20fa0b71931667,,,,,,,,,,,,,,,,,,,,,,,l,1,0.903,"[""0.032"",""0.087"",""0.608"",""0.935""]","[1,1,1,0]",0,26,26,26,1,1,1,,,0,FALSE,,,,,,,,,,,,,,,,,,,,,,,,,,,,,,
,5f23cc088105d31b5aa68d2c,001,2022-04-28_20h15.10.142,classification_task,2021.2.3,Win32,60.29908345,5f23cc088105d31b5aa68d2c,626b377229c10585ec392f8a,626b3bc7fe20fa0b71931667,,,,,,,,,,,,,,,,,,,,,,,a,1,1.3166,"[""0.222"",""0.336"",""0.685"",""0.761""]","[1,1,1,0]",0,27,27,27,1,0,1,,,0,FALSE,,,,,,,,,,,,,,,,,,,,,,,,,,,,,,
,5f23cc088105d31b5aa68d2c,001,2022-04-28_20h15.10.142,classification_task,2021.2.3,Win32,60.29908345,5f23cc088105d31b5aa68d2c,626b377229c10585ec392f8a,626b3bc7fe20fa0b71931667,,,,,,,,,,,,,,,,,,,,,,,l,1,1.0616,"[""0.774"",""0.087"",""0.608"",""0.816""]","[0,1,1,1]",0,28,28,28,1,1,1,,,0,FALSE,,,,,,,,,,,,,,,,,,,,,,,,,,,,,,
,5f23cc088105d31b5aa68d2c,001,2022-04-28_20h15.10.142,classification_task,2021.2.3,Win32,60.29908345,5f23cc088105d31b5aa68d2c,626b377229c10585ec392f8a,626b3bc7fe20fa0b71931667,,,,,,,,,,,,,,,,,,,,,,,a,1,0.8671,"[""0.292"",""0.405"",""0.898"",""0.651""]","[1,1,1,0]",0,29,29,29,1,0,0,,,0,FALSE,,,,,,,,,,,,,,,,,,,,,,,,,,,,,,
,5f23cc088105d31b5aa68d2c,001,2022-04-28_20h15.10.142,classification_task,2021.2.3,Win32,60.29908345,5f23cc088105d31b5aa68d2c,626b377229c10585ec392f8a,626b3bc7fe20fa0b71931667,,,,,,,,,,,,,,,,,,,,,,,a,1,0.8242,"[""0.444"",""0.336"",""0.685"",""0.860""]","[0,1,1,1]",0,30,30,30,1,0,1,,,0,FALSE,,,,,,,,,,,,,,,,,,,,,,,,,,,,,,
,5f23cc088105d31b5aa68d2c,001,2022-04-28_20h15.10.142,classification_task,2021.2.3,Win32,60.29908345,5f23cc088105d31b5aa68d2c,626b377229c10585ec392f8a,626b3bc7fe20fa0b71931667,,,,,,,,,,,,,,,,,,,,,,,a,1,0.8611,"[""0.774"",""0.405"",""0.898"",""0.970""]","[0,1,1,1]",0,31,31,31,1,0,0,,,0,FALSE,,,,,,,,,,,,,,,,,,,,,,,,,,,,,,
,5f23cc088105d31b5aa68d2c,001,2022-04-28_20h15.10.142,classification_task,2021.2.3,Win32,60.29908345,5f23cc088105d31b5aa68d2c,626b377229c10585ec392f8a,626b3bc7fe20fa0b71931667,,,,,,,,,,,,,,,,,,,,,,,l,1,0.9786,"[""0.127"",""0.452"",""0.525"",""0.720""]","[1,0,1,1]",0,32,32,32,1,1,0,,,0,FALSE,,,,,,,,,,,,,,,,,,,,,,,,,,,,,,
,5f23cc088105d31b5aa68d2c,001,2022-04-28_20h15.10.142,classification_task,2021.2.3,Win32,60.29908345,5f23cc088105d31b5aa68d2c,626b377229c10585ec392f8a,626b3bc7fe20fa0b71931667,,,,,,,,,,,,,,,,,,,,,,,l,1,3.1995,"[""0.642"",""0.174"",""0.525"",""0.720""]","[0,1,1,1]",0,33,33,33,1,1,0,,,0,FALSE,,,,,,,,,,,,,,,,,,,,,,,,,,,,,,
,5f23cc088105d31b5aa68d2c,001,2022-04-28_20h15.10.142,classification_task,2021.2.3,Win32,60.29908345,5f23cc088105d31b5aa68d2c,626b377229c10585ec392f8a,626b3bc7fe20fa0b71931667,,,,,,,,,,,,,,,,,,,,,,,a,1,0.7021,"[""0.292"",""0.405"",""0.754"",""0.970""]","[1,1,0,1]",0,34,34,34,1,0,0,,,0,FALSE,,,,,,,,,,,,,,,,,,,,,,,,,,,,,,
,5f23cc088105d31b5aa68d2c,001,2022-04-28_20h15.10.142,classification_task,2021.2.3,Win32,60.29908345,5f23cc088105d31b5aa68d2c,626b377229c10585ec392f8a,626b3bc7fe20fa0b71931667,,,,,,,,,,,,,,,,,,,,,,,l,1,1.0939,"[""0.032"",""0.087"",""0.444"",""0.816""]","[1,1,0,1]",0,35,35,35,1,1,1,,,0,FALSE,,,,,,,,,,,,,,,,,,,,,,,,,,,,,,
,5f23cc088105d31b5aa68d2c,001,2022-04-28_20h15.10.142,classification_task,2021.2.3,Win32,60.29908345,5f23cc088105d31b5aa68d2c,626b377229c10585ec392f8a,626b3bc7fe20fa0b71931667,,,,,,,,,,,,,,,,,,,,,,,l,1,1.0846,"[""0.127"",""0.174"",""0.451"",""0.720""]","[1,1,0,1]",0,36,36,36,1,1,0,,,0,FALSE,,,,,,,,,,,,,,,,,,,,,,,,,,,,,,
,5f23cc088105d31b5aa68d2c,001,2022-04-28_20h15.10.142,classification_task,2021.2.3,Win32,60.29908345,5f23cc088105d31b5aa68d2c,626b377229c10585ec392f8a,626b3bc7fe20fa0b71931667,,,,,,,,,,,,,,,,,,,,,,,a,1,0.7288,"[""0.769"",""0.336"",""0.685"",""0.860""]","[0,1,1,1]",0,37,37,37,1,0,1,,,0,FALSE,,,,,,,,,,,,,,,,,,,,,,,,,,,,,,
,5f23cc088105d31b5aa68d2c,001,2022-04-28_20h15.10.142,classification_task,2021.2.3,Win32,60.29908345,5f23cc088105d31b5aa68d2c,626b377229c10585ec392f8a,626b3bc7fe20fa0b71931667,,,,,,,,,,,,,,,,,,,,,,,a,1,2.9598,"[""0.782"",""0.405"",""0.898"",""0.970""]","[0,1,1,1]",0,38,38,38,1,0,0,,,0,FALSE,,,,,,,,,,,,,,,,,,,,,,,,,,,,,,
,5f23cc088105d31b5aa68d2c,001,2022-04-28_20h15.10.142,classification_task,2021.2.3,Win32,60.29908345,5f23cc088105d31b5aa68d2c,626b377229c10585ec392f8a,626b3bc7fe20fa0b71931667,,,,,,,,,,,,,,,,,,,,,,,a,1,1.4415,"[""0.292"",""0.405"",""0.898"",""0.782""]","[1,1,1,0]",0,39,39,39,1,0,0,,,0,FALSE,,,,,,,,,,,,,,,,,,,,,,,,,,,,,,
,5f23cc088105d31b5aa68d2c,001,2022-04-28_20h15.10.142,classification_task,2021.2.3,Win32,60.29908345,5f23cc088105d31b5aa68d2c,626b377229c10585ec392f8a,626b3bc7fe20fa0b71931667,,,,,,,,,,,,,,,,,,,,,,,a,1,0.9455,"[""0.222"",""0.336"",""0.685"",""0.769""]","[1,1,1,0]",0,40,40,40,1,0,1,,,0,FALSE,,,,,,,,,,,,,,,,,,,,,,,,,,,,,,
,5f23cc088105d31b5aa68d2c,001,2022-04-28_20h15.10.142,classification_task,2021.2.3,Win32,60.29908345,5f23cc088105d31b5aa68d2c,626b377229c10585ec392f8a,626b3bc7fe20fa0b71931667,,,,,,,,,,,,,,,,,,,,,,,l,1,1.0089,"[""0.651"",""0.087"",""0.608"",""0.816""]","[0,1,1,1]",0,41,41,41,1,1,1,,,0,FALSE,,,,,,,,,,,,,,,,,,,,,,,,,,,,,,
,5f23cc088105d31b5aa68d2c,001,2022-04-28_20h15.10.142,classification_task,2021.2.3,Win32,60.29908345,5f23cc088105d31b5aa68d2c,626b377229c10585ec392f8a,626b3bc7fe20fa0b71931667,,,,,,,,,,,,,,,,,,,,,,,a,1,3.3624,"[""0.292"",""0.771"",""0.898"",""0.970""]","[1,0,1,1]",0,42,42,42,1,0,0,,,0,FALSE,,,,,,,,,,,,,,,,,,,,,,,,,,,,,,
,5f23cc088105d31b5aa68d2c,001,2022-04-28_20h15.10.142,classification_task,2021.2.3,Win32,60.29908345,5f23cc088105d31b5aa68d2c,626b377229c10585ec392f8a,626b3bc7fe20fa0b71931667,,,,,,,,,,,,,,,,,,,,,,,l,1,2.4972,"[""0.032"",""0.087"",""0.608"",""0.452""]","[1,1,1,0]",0,43,43,43,1,1,1,,,0,FALSE,,,,,,,,,,,,,,,,,,,,,,,,,,,,,,
,5f23cc088105d31b5aa68d2c,001,2022-04-28_20h15.10.142,classification_task,2021.2.3,Win32,60.29908345,5f23cc088105d31b5aa68d2c,626b377229c10585ec392f8a,626b3bc7fe20fa0b71931667,,,,,,,,,,,,,,,,,,,,,,,a,1,1.0653,"[""0.222"",""0.336"",""0.771"",""0.860""]","[1,1,0,1]",0,44,44,44,1,0,1,,,0,FALSE,,,,,,,,,,,,,,,,,,,,,,,,,,,,,,
,5f23cc088105d31b5aa68d2c,001,2022-04-28_20h15.10.142,classification_task,2021.2.3,Win32,60.29908345,5f23cc088105d31b5aa68d2c,626b377229c10585ec392f8a,626b3bc7fe20fa0b71931667,,,,,,,,,,,,,,,,,,,,,,,l,1,1.7493,"[""0.127"",""0.174"",""0.525"",""0.771""]","[1,1,1,0]",0,45,45,45,1,1,0,,,0,FALSE,,,,,,,,,,,,,,,,,,,,,,,,,,,,,,
,5f23cc088105d31b5aa68d2c,001,2022-04-28_20h15.10.142,classification_task,2021.2.3,Win32,60.29908345,5f23cc088105d31b5aa68d2c,626b377229c10585ec392f8a,626b3bc7fe20fa0b71931667,,,,,,,,,,,,,,,,,,,,,,,l,1,1.0973,"[""0.032"",""0.774"",""0.608"",""0.816""]","[1,0,1,1]",0,46,46,46,1,1,1,,,0,FALSE,,,,,,,,,,,,,,,,,,,,,,,,,,,,,,
,5f23cc088105d31b5aa68d2c,001,2022-04-28_20h15.10.142,classification_task,2021.2.3,Win32,60.29908345,5f23cc088105d31b5aa68d2c,626b377229c10585ec392f8a,626b3bc7fe20fa0b71931667,,,,,,,,,,,,,,,,,,,,,,,a,1,0.9646,"[""0.222"",""0.769"",""0.685"",""0.860""]","[1,0,1,1]",0,47,47,47,1,0,1,,,0,FALSE,,,,,,,,,,,,,,,,,,,,,,,,,,,,,,
,5f23cc088105d31b5aa68d2c,001,2022-04-28_20h15.10.142,classification_task,2021.2.3,Win32,60.29908345,5f23cc088105d31b5aa68d2c,626b377229c10585ec392f8a,626b3bc7fe20fa0b71931667,,,,,,,,,,,,,,,,,,,,,,,a,1,0.943,"[""0.292"",""0.754"",""0.898"",""0.970""]","[1,0,1,1]",0,48,48,48,1,0,0,,,0,FALSE,,,,,,,,,,,,,,,,,,,,,,,,,,,,,,
,5f23cc088105d31b5aa68d2c,001,2022-04-28_20h15.10.142,classification_task,2021.2.3,Win32,60.29908345,5f23cc088105d31b5aa68d2c,626b377229c10585ec392f8a,626b3bc7fe20fa0b71931667,,,,,,,,,,,,,,,,,,,,,,,l,1,1.3465,"[""0.032"",""0.444"",""0.608"",""0.816""]","[1,0,1,1]",0,49,49,49,1,1,1,,,0,FALSE,,,,,,,,,,,,,,,,,,,,,,,,,,,,,,
,5f23cc088105d31b5aa68d2c,001,2022-04-28_20h15.10.142,classification_task,2021.2.3,Win32,60.29908345,5f23cc088105d31b5aa68d2c,626b377229c10585ec392f8a,626b3bc7fe20fa0b71931667,,,,,,,,,,,,,,,,,,,,,,,l,1,1.1946,"[""0.032"",""0.087"",""0.608"",""0.448""]","[1,1,1,0]",0,50,50,50,1,1,1,,,0,FALSE,,,,,,,,,,,,,,,,,,,,,,,,,,,,,,
,5f23cc088105d31b5aa68d2c,001,2022-04-28_20h15.10.142,classification_task,2021.2.3,Win32,60.29908345,5f23cc088105d31b5aa68d2c,626b377229c10585ec392f8a,626b3bc7fe20fa0b71931667,,,,,,,,,,,,,,,,,,,,,,,l,1,2.4932,"[""0.127"",""0.174"",""0.761"",""0.720""]","[1,1,0,1]",0,51,51,51,1,1,0,,,0,FALSE,,,,,,,,,,,,,,,,,,,,,,,,,,,,,,
,5f23cc088105d31b5aa68d2c,001,2022-04-28_20h15.10.142,classification_task,2021.2.3,Win32,60.29908345,5f23cc088105d31b5aa68d2c,626b377229c10585ec392f8a,626b3bc7fe20fa0b71931667,,,,,,,,,,,,,,,,,,,,,,,l,1,1.3622,"[""0.651"",""0.174"",""0.525"",""0.720""]","[0,1,1,1]",0,52,52,52,1,1,0,,,0,FALSE,,,,,,,,,,,,,,,,,,,,,,,,,,,,,,
,5f23cc088105d31b5aa68d2c,001,2022-04-28_20h15.10.142,classification_task,2021.2.3,Win32,60.29908345,5f23cc088105d31b5aa68d2c,626b377229c10585ec392f8a,626b3bc7fe20fa0b71931667,,,,,,,,,,,,,,,,,,,,,,,a,1,1.7808,"[""0.292"",""0.405"",""0.898"",""0.444""]","[1,1,1,0]",0,53,53,53,1,0,0,,,0,FALSE,,,,,,,,,,,,,,,,,,,,,,,,,,,,,,
,5f23cc088105d31b5aa68d2c,001,2022-04-28_20h15.10.142,classification_task,2021.2.3,Win32,60.29908345,5f23cc088105d31b5aa68d2c,626b377229c10585ec392f8a,626b3bc7fe20fa0b71931667,,,,,,,,,,,,,,,,,,,,,,,a,1,1.3295,"[""0.292"",""0.405"",""0.769"",""0.970""]","[1,1,0,1]",0,54,54,54,1,0,0,,,0,FALSE,,,,,,,,,,,,,,,,,,,,,,,,,,,,,,
,5f23cc088105d31b5aa68d2c,001,2022-04-28_20h15.10.142,classification_task,2021.2.3,Win32,60.29908345,5f23cc088105d31b5aa68d2c,626b377229c10585ec392f8a,626b3bc7fe20fa0b71931667,,,,,,,,,,,,,,,,,,,,,,,l,1,1.616,"[""0.127"",""0.769"",""0.525"",""0.720""]","[1,0,1,1]",0,55,55,55,1,1,0,,,0,FALSE,,,,,,,,,,,,,,,,,,,,,,,,,,,,,,
,5f23cc088105d31b5aa68d2c,001,2022-04-28_20h15.10.142,classification_task,2021.2.3,Win32,60.29908345,5f23cc088105d31b5aa68d2c,626b377229c10585ec392f8a,626b3bc7fe20fa0b71931667,,,,,,,,,,,,,,,,,,,,,,,a,1,0.7609,"[""0.222"",""0.336"",""0.782"",""0.860""]","[1,1,0,1]",0,56,56,56,1,0,1,,,0,FALSE,,,,,,,,,,,,,,,,,,,,,,,,,,,,,,
,5f23cc088105d31b5aa68d2c,001,2022-04-28_20h15.10.142,classification_task,2021.2.3,Win32,60.29908345,5f23cc088105d31b5aa68d2c,626b377229c10585ec392f8a,626b3bc7fe20fa0b71931667,,,,,,,,,,,,,,,,,,,,,,,a,1,0.6503,"[""0.222"",""0.336"",""0.685"",""0.782""]","[1,1,1,0]",0,57,57,57,1,0,1,,,0,FALSE,,,,,,,,,,,,,,,,,,,,,,,,,,,,,,
,5f23cc088105d31b5aa68d2c,001,2022-04-28_20h15.10.142,classification_task,2021.2.3,Win32,60.29908345,5f23cc088105d31b5aa68d2c,626b377229c10585ec392f8a,626b3bc7fe20fa0b71931667,,,,,,,,,,,,,,,,,,,,,,,l,1,0.9147,"[""0.761"",""0.087"",""0.608"",""0.816""]","[0,1,1,1]",0,58,58,58,1,1,1,,,0,FALSE,,,,,,,,,,,,,,,,,,,,,,,,,,,,,,
,5f23cc088105d31b5aa68d2c,001,2022-04-28_20h15.10.142,classification_task,2021.2.3,Win32,60.29908345,5f23cc088105d31b5aa68d2c,626b377229c10585ec392f8a,626b3bc7fe20fa0b71931667,,,,,,,,,,,,,,,,,,,,,,,a,1,1.5801,"[""0.782"",""0.336"",""0.685"",""0.860""]","[0,1,1,1]",0,59,59,59,1,0,1,,,0,FALSE,,,,,,,,,,,,,,,,,,,,,,,,,,,,,,
,5f23cc088105d31b5aa68d2c,001,2022-04-28_20h15.10.142,classification_task,2021.2.3,Win32,60.29908345,5f23cc088105d31b5aa68d2c,626b377229c10585ec392f8a,626b3bc7fe20fa0b71931667,,,,,,,,,,,,,,,,,,,,,,,l,1,1.3287,"[""0.127"",""0.174"",""0.525"",""0.774""]","[1,1,1,0]",0,60,60,60,1,1,0,,,0,FALSE,,,,,,,,,,,,,,,,,,,,,,,,,,,,,,
,5f23cc088105d31b5aa68d2c,001,2022-04-28_20h15.10.142,classification_task,2021.2.3,Win32,60.29908345,5f23cc088105d31b5aa68d2c,626b377229c10585ec392f8a,626b3bc7fe20fa0b71931667,,,,,,,,,,,,,,,,,,,,,,,a,1,2.3946,"[""0.769"",""0.405"",""0.898"",""0.970""]","[0,1,1,1]",0,61,61,61,1,0,0,,,0,FALSE,,,,,,,,,,,,,,,,,,,,,,,,,,,,,,
,5f23cc088105d31b5aa68d2c,001,2022-04-28_20h15.10.142,classification_task,2021.2.3,Win32,60.29908345,5f23cc088105d31b5aa68d2c,626b377229c10585ec392f8a,626b3bc7fe20fa0b71931667,,,,,,,,,,,,,,,,,,,,,,,l,1,2.0215,"[""0.032"",""0.087"",""0.769"",""0.816""]","[1,1,0,1]",0,62,62,62,1,1,1,,,0,FALSE,,,,,,,,,,,,,,,,,,,,,,,,,,,,,,
,5f23cc088105d31b5aa68d2c,001,2022-04-28_20h15.10.142,classification_task,2021.2.3,Win32,60.29908345,5f23cc088105d31b5aa68d2c,626b377229c10585ec392f8a,626b3bc7fe20fa0b71931667,,,,,,,,,,,,,,,,,,,,,,,a,1,1.177,"[""0.222"",""0.754"",""0.685"",""0.860""]","[1,0,1,1]",0,63,63,63,1,0,1,,,0,FALSE,,,,,,,,,,,,,,,,,,,,,,,,,,,,,,
,5f23cc088105d31b5aa68d2c,001,2022-04-28_20h15.10.142,classification_task,2021.2.3,Win32,60.29908345,5f23cc088105d31b5aa68d2c,626b377229c10585ec392f8a,626b3bc7fe20fa0b71931667,,,,,,,,,,,,,,,,,,,,,,,,,,,,,,,,,,,,,,,0, ,,0,4.552193563,169.8246,0,2,2,2,1,2,3,,,,,,,,,,,,,,,,,
,5f23cc088105d31b5aa68d2c,001,2022-04-28_20h15.10.142,classification_task,2021.2.3,Win32,60.29908345,5f23cc088105d31b5aa68d2c,626b377229c10585ec392f8a,626b3bc7fe20fa0b71931667,,,,,,,,,,,,,,,,,,,,,,,,,,,,,,,,,,,,,,,1,  ,,0,7.996858466,176.8272,0,2,2,2,1,2,3,,,,,,,,,,,,,,,,,
,5f23cc088105d31b5aa68d2c,001,2022-04-28_20h15.10.142,classification_task,2021.2.3,Win32,60.29908345,5f23cc088105d31b5aa68d2c,626b377229c10585ec392f8a,626b3bc7fe20fa0b71931667,,,,,,,,,,,,,,,,,,,,,,,,,,,,,,,,,,,,,,,2,  ,,0,3.449900794,182.3402,0,2,2,2,1,2,3,,,,,,,,,,,,,,,,,
,5f23cc088105d31b5aa68d2c,001,2022-04-28_20h15.10.142,classification_task,2021.2.3,Win32,60.29908345,5f23cc088105d31b5aa68d2c,626b377229c10585ec392f8a,626b3bc7fe20fa0b71931667,,,,,,,,,,,,,,,,,,,,,,,,,,,,,,,,,,,,,,,,,,,,,0,2,2,2,1,,3,,,,,,,,,,,,,,,,,
,5f23cc088105d31b5aa68d2c,001,2022-04-28_20h15.10.142,classification_task,2021.2.3,Win32,60.29908345,5f23cc088105d31b5aa68d2c,626b377229c10585ec392f8a,626b3bc7fe20fa0b71931667,,,,,,,,,,,,,,,,,,,,,,,,,,,,,,,,,,,,,,,,,,,,,,,,,,,,,I believe the aid is a competent performer,,0.7,0,3,1066.99,0,0,0,0,1,0,,,,
,5f23cc088105d31b5aa68d2c,001,2022-04-28_20h15.10.142,classification_task,2021.2.3,Win32,60.29908345,5f23cc088105d31b5aa68d2c,626b377229c10585ec392f8a,626b3bc7fe20fa0b71931667,,,,,,,,,,,,,,,,,,,,,,,,,,,,,,,,,,,,,,,,,,,,,,,,,,,,,I trust the aid,,0.7,0,4,1076.6361,0,0,0,0,1,0,,,,
,5f23cc088105d31b5aa68d2c,001,2022-04-28_20h15.10.142,classification_task,2021.2.3,Win32,60.29908345,5f23cc088105d31b5aa68d2c,626b377229c10585ec392f8a,626b3bc7fe20fa0b71931667,,,,,,,,,,,,,,,,,,,,,,,,,,,,,,,,,,,,,,,,,,,,,,,,,,,,,I have confidence in the advice given by the aid,,0.7,0,5,1081.0988,0,0,0,0,1,0,,,,
,5f23cc088105d31b5aa68d2c,001,2022-04-28_20h15.10.142,classification_task,2021.2.3,Win32,60.29908345,5f23cc088105d31b5aa68d2c,626b377229c10585ec392f8a,626b3bc7fe20fa0b71931667,,,,,,,,,,,,,,,,,,,,,,,,,,,,,,,,,,,,,,,,,,,,,,,,,,,,,I can depend on the aid,,0.7,0,4,1082.653,0,0,0,0,1,0,,,,
,5f23cc088105d31b5aa68d2c,001,2022-04-28_20h15.10.142,classification_task,2021.2.3,Win32,60.29908345,5f23cc088105d31b5aa68d2c,626b377229c10585ec392f8a,626b3bc7fe20fa0b71931667,,,,,,,,,,,,,,,,,,,,,,,,,,,,,,,,,,,,,,,,,,,,,,,,,,,,,I can rely on the aid to behave in consistent ways,,0.7,0,4,1086.0765,0,0,0,0,1,0,,,,
,5f23cc088105d31b5aa68d2c,001,2022-04-28_20h15.10.142,classification_task,2021.2.3,Win32,60.29908345,5f23cc088105d31b5aa68d2c,626b377229c10585ec392f8a,626b3bc7fe20fa0b71931667,,,,,,,,,,,,,,,,,,,,,,,,,,,,,,,,,,,,,,,,,,,,,,,,,,,,,I can rely on the aid to do its best every time I take its advice,,0.7,0,4,1094.0475,0,0,0,0,1,0,,,,
,5f23cc088105d31b5aa68d2c,001,2022-04-28_20h15.10.142,classification_task,2021.2.3,Win32,60.29908345,5f23cc088105d31b5aa68d2c,626b377229c10585ec392f8a,626b3bc7fe20fa0b71931667,,,,,,,,,,,,,,,,,,,,,,,,,,,,,,,,,,,,,,,,,,,,,,,,,,,,,"On trials you completed with assistance from the aid, how frequently did you think the aid was correct?",,0.7,0,100%,,0,0,0,0,1,0,,,,
,5f23cc088105d31b5aa68d2c,001,2022-04-28_20h15.10.142,classification_task,2021.2.3,Win32,60.29908345,5f23cc088105d31b5aa68d2c,626b377229c10585ec392f8a,626b3bc7fe20fa0b71931667,,,,,,,,,,,,,,,,,,,,,,,,,,,,,,,,,,,,,,,,,,,,,,,,,,,,,"On trials you completed without the aid, how frequently did you think you were correct?",,0.7,0,75%,,0,0,0,0,1,0,,,,
,5f23cc088105d31b5aa68d2c,001,2022-04-28_20h15.10.142,classification_task,2021.2.3,Win32,60.29908345,5f23cc088105d31b5aa68d2c,626b377229c10585ec392f8a,626b3bc7fe20fa0b71931667,,,,,,,,,,,,,,,,,,,,,,,,,,,,,,,,,,,,,,,,,,,,,,,,,,,,,,,,,,,0,0,0,0,1,,,,,
,5f23cc088105d31b5aa68d2c,001,2022-04-28_20h15.10.142,classification_task,2021.2.3,Win32,60.29908345,5f23cc088105d31b5aa68d2c,626b377229c10585ec392f8a,626b3bc7fe20fa0b71931667,,,,,,,,,,,,,,,,,,,,,,,,,,,,,,,,,,,,,,,,,,,,,,,,,,,,,,,,,,,,,,,,,space,16.18,1132.3214,
,5f23cc088105d31b5aa68d2c,001,2022-04-28_20h15.10.142,classification_task,2021.2.3,Win32,60.29908345,5f23cc088105d31b5aa68d2c,626b377229c10585ec392f8a,626b3bc7fe20fa0b71931667,,,,,,,,,,,,,,,,,,,,,,,,,,,,,,,,,,,,,,,,,,,,,,,,,,,,,,,,,,,,,,,,,,,,"Mozilla/5.0 (Windows NT 10.0; Win64; x64) AppleWebKit/537.36 (KHTML, like Gecko) Chrome/100.0.4896.127 Safari/537.36"
