usingWebGL,participant,session,date,expName,psychopyVersion,OS,frameRate,PROLIFIC_PID,STUDY_ID,SESSION_ID,signatures_friend,signatures_foe,band_ranges_top,band_ranges_bottom,formitemText,formtype,formundefined,formitemWidth,formindex,formresponse,formrt,key_resp_2.keys,key_resp_2.rt,tute_resp.keys,tute_resp.rt,tutorial.thisRepN,tutorial.thisTrialN,tutorial.thisN,tutorial.thisIndex,tutorial.ran,key_resp_4.keys,key_resp_4.rt,key_resp.keys,key_resp.corr,key_resp.rt,lines_presented,is_signal_presented,trials.thisRepN,trials.thisTrialN,trials.thisN,trials.thisIndex,trials.ran,vessel,active_band,lines,is_signal,supported_pos,catch_trial,debrief_formindex,debrief_formitemText,debrief_formtype,debrief_formitemWidth,debrief_formresponse,debrief_formrt,phases.thisRepN,phases.thisTrialN,phases.thisN,phases.thisIndex,phases.ran,phases.order,phase,key_resp_3.keys,trustitemText,trusttype,trustitemWidth,trustindex,trustresponse,trustrt,support_status.thisRepN,support_status.thisTrialN,support_status.thisN,support_status.thisIndex,support_status.ran,support_status.order,key_resp_5.keys,key_resp_5.rt,globalClockTime,userAgent
TRUE,5f24db32bb18c511736499f8,001,2022-04-28_19h59.34.609,classification_task,2021.2.3,Win32,60.07449237,5f24db32bb18c511736499f8,626b377229c10585ec392f89,626b37e70fe71dd1d7a41551,,,,,,,,,,,,,,,,,,,,,,,,,,,,,,,,,,,,,,,,,,,,,,,,,,,,,,,,,,,,,,,,,,,,
,5f24db32bb18c511736499f8,001,2022-04-28_19h59.34.609,classification_task,2021.2.3,Win32,60.07449237,5f24db32bb18c511736499f8,626b377229c10585ec392f89,626b37e70fe71dd1d7a41551,"[[""0.196"",""0.513"",""0.840"",""0.874""],[""0.285"",""0.394"",""0.739"",""0.940""]]","[[""0.054"",""0.247"",""0.578"",""0.800""],[""0.108"",""0.323"",""0.466"",""0.700""]]","[1,10]","[100,1000]",Video game experience,,,0.7,0,,,,,,,,,,,,,,,,,,,,,,,,,,,,,,,,,,,,,,,,,,,,,,,,,,,,,,,,,,,
,5f24db32bb18c511736499f8,001,2022-04-28_19h59.34.609,classification_task,2021.2.3,Win32,60.07449237,5f24db32bb18c511736499f8,626b377229c10585ec392f89,626b37e70fe71dd1d7a41551,,,,,Approximately how many hours did you spend playing video games in the last week?,,,0.7,0,10,,,,,,,,,,,,,,,,,,,,,,,,,,,,,,,,,,,,,,,,,,,,,,,,,,,,,,,,,,
,5f24db32bb18c511736499f8,001,2022-04-28_19h59.34.609,classification_task,2021.2.3,Win32,60.07449237,5f24db32bb18c511736499f8,626b377229c10585ec392f89,626b37e70fe71dd1d7a41551,,,,,"Which game did you play the most this year? (Enter ""None"" if you didn't play any)",,,0.7,0,Elden Ring,,,,,,,,,,,,,,,,,,,,,,,,,,,,,,,,,,,,,,,,,,,,,,,,,,,,,,,,,,
,5f24db32bb18c511736499f8,001,2022-04-28_19h59.34.609,classification_task,2021.2.3,Win32,60.07449237,5f24db32bb18c511736499f8,626b377229c10585ec392f89,626b37e70fe71dd1d7a41551,,,,,Visual perception,,,0.7,0,,,,,,,,,,,,,,,,,,,,,,,,,,,,,,,,,,,,,,,,,,,,,,,,,,,,,,,,,,,
,5f24db32bb18c511736499f8,001,2022-04-28_19h59.34.609,classification_task,2021.2.3,Win32,60.07449237,5f24db32bb18c511736499f8,626b377229c10585ec392f89,626b37e70fe71dd1d7a41551,,,,,Do you have any form of color blindness?,,,0.7,0,No,34.8625,,,,,,,,,,,,,,,,,,,,,,,,,,,,,,,,,,,,,,,,,,,,,,,,,,,,,,,,,
,5f24db32bb18c511736499f8,001,2022-04-28_19h59.34.609,classification_task,2021.2.3,Win32,60.07449237,5f24db32bb18c511736499f8,626b377229c10585ec392f89,626b37e70fe71dd1d7a41551,,,,,Do you use software to change the colour temperature of your screen (e.g. f.lux)?,,,0.7,0,No,37.1607,,,,,,,,,,,,,,,,,,,,,,,,,,,,,,,,,,,,,,,,,,,,,,,,,,,,,,,,,
,5f24db32bb18c511736499f8,001,2022-04-28_19h59.34.609,classification_task,2021.2.3,Win32,60.07449237,5f24db32bb18c511736499f8,626b377229c10585ec392f89,626b37e70fe71dd1d7a41551,,,,,,,,,,,,space,35.5076,space,14.4106,0,0,0,0,1,,,,,,,,,,,,,,,,,,,,,,,,,,,,,,,,,,,,,,,,,,,,,,,,
,5f24db32bb18c511736499f8,001,2022-04-28_19h59.34.609,classification_task,2021.2.3,Win32,60.07449237,5f24db32bb18c511736499f8,626b377229c10585ec392f89,626b37e70fe71dd1d7a41551,,,,,,,,,,,,,,space,12.265,1,0,1,0,1,,,,,,,,,,,,,,,,,,,,,,,,,,,,,,,,,,,,,,,,,,,,,,,,
,5f24db32bb18c511736499f8,001,2022-04-28_19h59.34.609,classification_task,2021.2.3,Win32,60.07449237,5f24db32bb18c511736499f8,626b377229c10585ec392f89,626b37e70fe71dd1d7a41551,,,,,,,,,,,,,,space,24.9819,2,0,2,0,1,,,,,,,,,,,,,,,,,,,,,,,,,,,,,,,,,,,,,,,,,,,,,,,,
,5f24db32bb18c511736499f8,001,2022-04-28_19h59.34.609,classification_task,2021.2.3,Win32,60.07449237,5f24db32bb18c511736499f8,626b377229c10585ec392f89,626b37e70fe71dd1d7a41551,,,,,,,,,,,,,,space,13.3541,3,0,3,0,1,,,,,,,,,,,,,,,,,,,,,,,,,,,,,,,,,,,,,,,,,,,,,,,,
,5f24db32bb18c511736499f8,001,2022-04-28_19h59.34.609,classification_task,2021.2.3,Win32,60.07449237,5f24db32bb18c511736499f8,626b377229c10585ec392f89,626b37e70fe71dd1d7a41551,,,,,,,,,,,,,,space,11.7019,4,0,4,0,1,,,,,,,,,,,,,,,,,,,,,,,,,,,,,,,,,,,,,,,,,,,,,,,,
,5f24db32bb18c511736499f8,001,2022-04-28_19h59.34.609,classification_task,2021.2.3,Win32,60.07449237,5f24db32bb18c511736499f8,626b377229c10585ec392f89,626b37e70fe71dd1d7a41551,,,,,,,,,,,,,,,,,,,,,space,20.8468,l,1,5.6435,"[""0.108"",""0.154"",""0.466"",""0.700""]","[1,0,1,1]",0,0,0,0,1,1,1,,,0,FALSE,,,,,,,,,,,,,,,,,,,,,,,,,,,,,,
,5f24db32bb18c511736499f8,001,2022-04-28_19h59.34.609,classification_task,2021.2.3,Win32,60.07449237,5f24db32bb18c511736499f8,626b377229c10585ec392f89,626b37e70fe71dd1d7a41551,,,,,,,,,,,,,,,,,,,,,,,l,1,3.3977,"[""0.054"",""0.247"",""0.578"",""0.644""]","[1,1,1,0]",0,1,1,1,1,1,0,,,0,FALSE,,,,,,,,,,,,,,,,,,,,,,,,,,,,,,
,5f24db32bb18c511736499f8,001,2022-04-28_19h59.34.609,classification_task,2021.2.3,Win32,60.07449237,5f24db32bb18c511736499f8,626b377229c10585ec392f89,626b37e70fe71dd1d7a41551,,,,,,,,,,,,,,,,,,,,,,,,0,,"[""0.646"",""0.323"",""0.466"",""0.700""]","[0,1,1,1]",0,2,2,2,1,1,1,,,0,FALSE,,,,,,,,,,,,,,,,,,,,,,,,,,,,,,
,5f24db32bb18c511736499f8,001,2022-04-28_19h59.34.609,classification_task,2021.2.3,Win32,60.07449237,5f24db32bb18c511736499f8,626b377229c10585ec392f89,626b37e70fe71dd1d7a41551,,,,,,,,,,,,,,,,,,,,,,,a,0,5.1665,"[""0.636"",""0.247"",""0.578"",""0.800""]","[0,1,1,1]",0,3,3,3,1,1,0,,,0,FALSE,,,,,,,,,,,,,,,,,,,,,,,,,,,,,,
,5f24db32bb18c511736499f8,001,2022-04-28_19h59.34.609,classification_task,2021.2.3,Win32,60.07449237,5f24db32bb18c511736499f8,626b377229c10585ec392f89,626b37e70fe71dd1d7a41551,,,,,,,,,,,,,,,,,,,,,,,a,1,6.5437,"[""0.151"",""0.394"",""0.739"",""0.940""]","[0,1,1,1]",0,4,4,4,1,0,1,,,0,FALSE,,,,,,,,,,,,,,,,,,,,,,,,,,,,,,
,5f24db32bb18c511736499f8,001,2022-04-28_19h59.34.609,classification_task,2021.2.3,Win32,60.07449237,5f24db32bb18c511736499f8,626b377229c10585ec392f89,626b37e70fe71dd1d7a41551,,,,,,,,,,,,,,,,,,,,,,,a,1,2.3057,"[""0.285"",""0.394"",""0.739"",""0.621""]","[1,1,1,0]",0,5,5,5,1,0,1,,,0,FALSE,,,,,,,,,,,,,,,,,,,,,,,,,,,,,,
,5f24db32bb18c511736499f8,001,2022-04-28_19h59.34.609,classification_task,2021.2.3,Win32,60.07449237,5f24db32bb18c511736499f8,626b377229c10585ec392f89,626b37e70fe71dd1d7a41551,,,,,,,,,,,,,,,,,,,,,,,a,1,2.3516,"[""0.196"",""0.513"",""0.840"",""0.629""]","[1,1,1,0]",0,6,6,6,1,0,0,,,0,FALSE,,,,,,,,,,,,,,,,,,,,,,,,,,,,,,
,5f24db32bb18c511736499f8,001,2022-04-28_19h59.34.609,classification_task,2021.2.3,Win32,60.07449237,5f24db32bb18c511736499f8,626b377229c10585ec392f89,626b37e70fe71dd1d7a41551,,,,,,,,,,,,,,,,,,,,,,,l,1,2.5452,"[""0.108"",""0.323"",""0.156"",""0.700""]","[1,1,0,1]",0,7,7,7,1,1,1,,,0,FALSE,,,,,,,,,,,,,,,,,,,,,,,,,,,,,,
,5f24db32bb18c511736499f8,001,2022-04-28_19h59.34.609,classification_task,2021.2.3,Win32,60.07449237,5f24db32bb18c511736499f8,626b377229c10585ec392f89,626b37e70fe71dd1d7a41551,,,,,,,,,,,,,,,,,,,,,,,a,1,4.6271,"[""0.285"",""0.154"",""0.739"",""0.940""]","[1,0,1,1]",0,8,8,8,1,0,1,,,0,FALSE,,,,,,,,,,,,,,,,,,,,,,,,,,,,,,
,5f24db32bb18c511736499f8,001,2022-04-28_19h59.34.609,classification_task,2021.2.3,Win32,60.07449237,5f24db32bb18c511736499f8,626b377229c10585ec392f89,626b37e70fe71dd1d7a41551,,,,,,,,,,,,,,,,,,,,,,,a,1,3.5426,"[""0.196"",""0.513"",""0.629"",""0.874""]","[1,1,0,1]",0,9,9,9,1,0,0,,,0,FALSE,,,,,,,,,,,,,,,,,,,,,,,,,,,,,,
,5f24db32bb18c511736499f8,001,2022-04-28_19h59.34.609,classification_task,2021.2.3,Win32,60.07449237,5f24db32bb18c511736499f8,626b377229c10585ec392f89,626b37e70fe71dd1d7a41551,,,,,,,,,,,,,,,,,,,,,,,a,1,2.6552,"[""0.196"",""0.614"",""0.840"",""0.874""]","[1,0,1,1]",0,10,10,10,1,0,0,,,0,FALSE,,,,,,,,,,,,,,,,,,,,,,,,,,,,,,
,5f24db32bb18c511736499f8,001,2022-04-28_19h59.34.609,classification_task,2021.2.3,Win32,60.07449237,5f24db32bb18c511736499f8,626b377229c10585ec392f89,626b37e70fe71dd1d7a41551,,,,,,,,,,,,,,,,,,,,,,,l,0,2.0125,"[""0.146"",""0.513"",""0.840"",""0.874""]","[0,1,1,1]",0,11,11,11,1,0,0,,,0,FALSE,,,,,,,,,,,,,,,,,,,,,,,,,,,,,,
,5f24db32bb18c511736499f8,001,2022-04-28_19h59.34.609,classification_task,2021.2.3,Win32,60.07449237,5f24db32bb18c511736499f8,626b377229c10585ec392f89,626b37e70fe71dd1d7a41551,,,,,,,,,,,,,,,,,,,,,,,a,1,3.5681,"[""0.285"",""0.394"",""0.146"",""0.940""]","[1,1,0,1]",0,12,12,12,1,0,1,,,0,FALSE,,,,,,,,,,,,,,,,,,,,,,,,,,,,,,
,5f24db32bb18c511736499f8,001,2022-04-28_19h59.34.609,classification_task,2021.2.3,Win32,60.07449237,5f24db32bb18c511736499f8,626b377229c10585ec392f89,626b37e70fe71dd1d7a41551,,,,,,,,,,,,,,,,,,,,,,,l,1,4.1001,"[""0.108"",""0.323"",""0.466"",""0.634""]","[1,1,1,0]",0,13,13,13,1,1,1,,,0,FALSE,,,,,,,,,,,,,,,,,,,,,,,,,,,,,,
,5f24db32bb18c511736499f8,001,2022-04-28_19h59.34.609,classification_task,2021.2.3,Win32,60.07449237,5f24db32bb18c511736499f8,626b377229c10585ec392f89,626b37e70fe71dd1d7a41551,,,,,,,,,,,,,,,,,,,,,,,l,1,4.2662,"[""0.054"",""0.247"",""0.614"",""0.800""]","[1,1,0,1]",0,14,14,14,1,1,0,,,0,FALSE,,,,,,,,,,,,,,,,,,,,,,,,,,,,,,
,5f24db32bb18c511736499f8,001,2022-04-28_19h59.34.609,classification_task,2021.2.3,Win32,60.07449237,5f24db32bb18c511736499f8,626b377229c10585ec392f89,626b37e70fe71dd1d7a41551,,,,,,,,,,,,,,,,,,,,,,,l,1,2.1619,"[""0.054"",""0.664"",""0.578"",""0.800""]","[1,0,1,1]",0,15,15,15,1,1,0,,,0,FALSE,,,,,,,,,,,,,,,,,,,,,,,,,,,,,,
,5f24db32bb18c511736499f8,001,2022-04-28_19h59.34.609,classification_task,2021.2.3,Win32,60.07449237,5f24db32bb18c511736499f8,626b377229c10585ec392f89,626b37e70fe71dd1d7a41551,,,,,,,,,,,,,,,,,,,,,,,l,1,2.692,"[""0.108"",""0.323"",""0.636"",""0.700""]","[1,1,0,1]",0,16,16,16,1,1,1,,,0,FALSE,,,,,,,,,,,,,,,,,,,,,,,,,,,,,,
,5f24db32bb18c511736499f8,001,2022-04-28_19h59.34.609,classification_task,2021.2.3,Win32,60.07449237,5f24db32bb18c511736499f8,626b377229c10585ec392f89,626b37e70fe71dd1d7a41551,,,,,,,,,,,,,,,,,,,,,,,a,1,3.3142,"[""0.156"",""0.513"",""0.840"",""0.874""]","[0,1,1,1]",0,17,17,17,1,0,0,,,0,FALSE,,,,,,,,,,,,,,,,,,,,,,,,,,,,,,
,5f24db32bb18c511736499f8,001,2022-04-28_19h59.34.609,classification_task,2021.2.3,Win32,60.07449237,5f24db32bb18c511736499f8,626b377229c10585ec392f89,626b37e70fe71dd1d7a41551,,,,,,,,,,,,,,,,,,,,,,,a,0,2.8029,"[""0.145"",""0.323"",""0.466"",""0.700""]","[0,1,1,1]",0,18,18,18,1,1,1,,,0,FALSE,,,,,,,,,,,,,,,,,,,,,,,,,,,,,,
,5f24db32bb18c511736499f8,001,2022-04-28_19h59.34.609,classification_task,2021.2.3,Win32,60.07449237,5f24db32bb18c511736499f8,626b377229c10585ec392f89,626b37e70fe71dd1d7a41551,,,,,,,,,,,,,,,,,,,,,,,a,1,2.3315,"[""0.359"",""0.394"",""0.739"",""0.940""]","[0,1,1,1]",0,19,19,19,1,0,1,,,0,FALSE,,,,,,,,,,,,,,,,,,,,,,,,,,,,,,
,5f24db32bb18c511736499f8,001,2022-04-28_19h59.34.609,classification_task,2021.2.3,Win32,60.07449237,5f24db32bb18c511736499f8,626b377229c10585ec392f89,626b37e70fe71dd1d7a41551,,,,,,,,,,,,,,,,,,,,,,,a,1,2.0672,"[""0.196"",""0.513"",""0.840"",""0.664""]","[1,1,1,0]",0,20,20,20,1,0,0,,,0,FALSE,,,,,,,,,,,,,,,,,,,,,,,,,,,,,,
,5f24db32bb18c511736499f8,001,2022-04-28_19h59.34.609,classification_task,2021.2.3,Win32,60.07449237,5f24db32bb18c511736499f8,626b377229c10585ec392f89,626b37e70fe71dd1d7a41551,,,,,,,,,,,,,,,,,,,,,,,l,1,1.7375,"[""0.054"",""0.247"",""0.146"",""0.800""]","[1,1,0,1]",0,21,21,21,1,1,0,,,0,FALSE,,,,,,,,,,,,,,,,,,,,,,,,,,,,,,
,5f24db32bb18c511736499f8,001,2022-04-28_19h59.34.609,classification_task,2021.2.3,Win32,60.07449237,5f24db32bb18c511736499f8,626b377229c10585ec392f89,626b37e70fe71dd1d7a41551,,,,,,,,,,,,,,,,,,,,,,,a,1,2.1866,"[""0.196"",""0.621"",""0.840"",""0.874""]","[1,0,1,1]",0,22,22,22,1,0,0,,,0,FALSE,,,,,,,,,,,,,,,,,,,,,,,,,,,,,,
,5f24db32bb18c511736499f8,001,2022-04-28_19h59.34.609,classification_task,2021.2.3,Win32,60.07449237,5f24db32bb18c511736499f8,626b377229c10585ec392f89,626b37e70fe71dd1d7a41551,,,,,,,,,,,,,,,,,,,,,,,l,1,1.9022,"[""0.108"",""0.323"",""0.466"",""0.614""]","[1,1,1,0]",0,23,23,23,1,1,1,,,0,FALSE,,,,,,,,,,,,,,,,,,,,,,,,,,,,,,
,5f24db32bb18c511736499f8,001,2022-04-28_19h59.34.609,classification_task,2021.2.3,Win32,60.07449237,5f24db32bb18c511736499f8,626b377229c10585ec392f89,626b37e70fe71dd1d7a41551,,,,,,,,,,,,,,,,,,,,,,,l,0,6.2269,"[""0.196"",""0.513"",""0.156"",""0.874""]","[1,1,0,1]",0,24,24,24,1,0,0,,,0,FALSE,,,,,,,,,,,,,,,,,,,,,,,,,,,,,,
,5f24db32bb18c511736499f8,001,2022-04-28_19h59.34.609,classification_task,2021.2.3,Win32,60.07449237,5f24db32bb18c511736499f8,626b377229c10585ec392f89,626b37e70fe71dd1d7a41551,,,,,,,,,,,,,,,,,,,,,,,a,1,4.1145,"[""0.285"",""0.394"",""0.739"",""0.644""]","[1,1,1,0]",0,25,25,25,1,0,1,,,0,FALSE,,,,,,,,,,,,,,,,,,,,,,,,,,,,,,
,5f24db32bb18c511736499f8,001,2022-04-28_19h59.34.609,classification_task,2021.2.3,Win32,60.07449237,5f24db32bb18c511736499f8,626b377229c10585ec392f89,626b37e70fe71dd1d7a41551,,,,,,,,,,,,,,,,,,,,,,,l,1,2.5116,"[""0.108"",""0.636"",""0.466"",""0.700""]","[1,0,1,1]",0,26,26,26,1,1,1,,,0,FALSE,,,,,,,,,,,,,,,,,,,,,,,,,,,,,,
,5f24db32bb18c511736499f8,001,2022-04-28_19h59.34.609,classification_task,2021.2.3,Win32,60.07449237,5f24db32bb18c511736499f8,626b377229c10585ec392f89,626b37e70fe71dd1d7a41551,,,,,,,,,,,,,,,,,,,,,,,a,1,2.595,"[""0.285"",""0.156"",""0.739"",""0.940""]","[1,0,1,1]",0,27,27,27,1,0,1,,,0,FALSE,,,,,,,,,,,,,,,,,,,,,,,,,,,,,,
,5f24db32bb18c511736499f8,001,2022-04-28_19h59.34.609,classification_task,2021.2.3,Win32,60.07449237,5f24db32bb18c511736499f8,626b377229c10585ec392f89,626b37e70fe71dd1d7a41551,,,,,,,,,,,,,,,,,,,,,,,l,1,2.1572,"[""0.054"",""0.614"",""0.578"",""0.800""]","[1,0,1,1]",0,28,28,28,1,1,0,,,0,FALSE,,,,,,,,,,,,,,,,,,,,,,,,,,,,,,
,5f24db32bb18c511736499f8,001,2022-04-28_19h59.34.609,classification_task,2021.2.3,Win32,60.07449237,5f24db32bb18c511736499f8,626b377229c10585ec392f89,626b37e70fe71dd1d7a41551,,,,,,,,,,,,,,,,,,,,,,,l,1,1.7856,"[""0.054"",""0.247"",""0.578"",""0.145""]","[1,1,1,0]",0,29,29,29,1,1,0,,,0,FALSE,,,,,,,,,,,,,,,,,,,,,,,,,,,,,,
,5f24db32bb18c511736499f8,001,2022-04-28_19h59.34.609,classification_task,2021.2.3,Win32,60.07449237,5f24db32bb18c511736499f8,626b377229c10585ec392f89,626b37e70fe71dd1d7a41551,,,,,,,,,,,,,,,,,,,,,,,a,1,1.9153,"[""0.285"",""0.394"",""0.645"",""0.940""]","[1,1,0,1]",0,30,30,30,1,0,1,,,0,FALSE,,,,,,,,,,,,,,,,,,,,,,,,,,,,,,
,5f24db32bb18c511736499f8,001,2022-04-28_19h59.34.609,classification_task,2021.2.3,Win32,60.07449237,5f24db32bb18c511736499f8,626b377229c10585ec392f89,626b37e70fe71dd1d7a41551,,,,,,,,,,,,,,,,,,,,,,,a,0,1.378,"[""0.644"",""0.247"",""0.578"",""0.800""]","[0,1,1,1]",0,31,31,31,1,1,0,,,0,FALSE,,,,,,,,,,,,,,,,,,,,,,,,,,,,,,
,5f24db32bb18c511736499f8,001,2022-04-28_19h59.34.609,classification_task,2021.2.3,Win32,60.07449237,5f24db32bb18c511736499f8,626b377229c10585ec392f89,626b37e70fe71dd1d7a41551,,,,,,,,,,,,,,,,,,,,,,,l,0,4.615,"[""0.664"",""0.513"",""0.840"",""0.874""]","[0,1,1,1]",0,32,32,32,1,0,0,,,0,FALSE,,,,,,,,,,,,,,,,,,,,,,,,,,,,,,
,5f24db32bb18c511736499f8,001,2022-04-28_19h59.34.609,classification_task,2021.2.3,Win32,60.07449237,5f24db32bb18c511736499f8,626b377229c10585ec392f89,626b37e70fe71dd1d7a41551,,,,,,,,,,,,,,,,,,,,,,,l,0,2.7786,"[""0.196"",""0.636"",""0.840"",""0.874""]","[1,0,1,1]",0,33,33,33,1,0,0,,,0,FALSE,,,,,,,,,,,,,,,,,,,,,,,,,,,,,,
,5f24db32bb18c511736499f8,001,2022-04-28_19h59.34.609,classification_task,2021.2.3,Win32,60.07449237,5f24db32bb18c511736499f8,626b377229c10585ec392f89,626b37e70fe71dd1d7a41551,,,,,,,,,,,,,,,,,,,,,,,a,0,1.2201,"[""0.145"",""0.247"",""0.578"",""0.800""]","[0,1,1,1]",0,34,34,34,1,1,0,,,0,FALSE,,,,,,,,,,,,,,,,,,,,,,,,,,,,,,
,5f24db32bb18c511736499f8,001,2022-04-28_19h59.34.609,classification_task,2021.2.3,Win32,60.07449237,5f24db32bb18c511736499f8,626b377229c10585ec392f89,626b37e70fe71dd1d7a41551,,,,,,,,,,,,,,,,,,,,,,,l,1,3.2337,"[""0.146"",""0.323"",""0.466"",""0.700""]","[0,1,1,1]",0,35,35,35,1,1,1,,,0,FALSE,,,,,,,,,,,,,,,,,,,,,,,,,,,,,,
,5f24db32bb18c511736499f8,001,2022-04-28_19h59.34.609,classification_task,2021.2.3,Win32,60.07449237,5f24db32bb18c511736499f8,626b377229c10585ec392f89,626b37e70fe71dd1d7a41551,,,,,,,,,,,,,,,,,,,,,,,a,1,0.6542,"[""0.196"",""0.513"",""0.840"",""0.146""]","[1,1,1,0]",0,36,36,36,1,0,0,,,0,FALSE,,,,,,,,,,,,,,,,,,,,,,,,,,,,,,
,5f24db32bb18c511736499f8,001,2022-04-28_19h59.34.609,classification_task,2021.2.3,Win32,60.07449237,5f24db32bb18c511736499f8,626b377229c10585ec392f89,626b37e70fe71dd1d7a41551,,,,,,,,,,,,,,,,,,,,,,,l,0,0.7673,"[""0.154"",""0.394"",""0.739"",""0.940""]","[0,1,1,1]",0,37,37,37,1,0,1,,,0,FALSE,,,,,,,,,,,,,,,,,,,,,,,,,,,,,,
,5f24db32bb18c511736499f8,001,2022-04-28_19h59.34.609,classification_task,2021.2.3,Win32,60.07449237,5f24db32bb18c511736499f8,626b377229c10585ec392f89,626b37e70fe71dd1d7a41551,,,,,,,,,,,,,,,,,,,,,,,l,1,0.7225,"[""0.054"",""0.247"",""0.359"",""0.800""]","[1,1,0,1]",0,38,38,38,1,1,0,,,0,FALSE,,,,,,,,,,,,,,,,,,,,,,,,,,,,,,
,5f24db32bb18c511736499f8,001,2022-04-28_19h59.34.609,classification_task,2021.2.3,Win32,60.07449237,5f24db32bb18c511736499f8,626b377229c10585ec392f89,626b37e70fe71dd1d7a41551,,,,,,,,,,,,,,,,,,,,,,,a,0,0.7614,"[""0.054"",""0.154"",""0.578"",""0.800""]","[1,0,1,1]",0,39,39,39,1,1,0,,,0,FALSE,,,,,,,,,,,,,,,,,,,,,,,,,,,,,,
,5f24db32bb18c511736499f8,001,2022-04-28_19h59.34.609,classification_task,2021.2.3,Win32,60.07449237,5f24db32bb18c511736499f8,626b377229c10585ec392f89,626b37e70fe71dd1d7a41551,,,,,,,,,,,,,,,,,,,,,,,a,1,0.7404,"[""0.285"",""0.614"",""0.739"",""0.940""]","[1,0,1,1]",0,40,40,40,1,0,1,,,0,FALSE,,,,,,,,,,,,,,,,,,,,,,,,,,,,,,
,5f24db32bb18c511736499f8,001,2022-04-28_19h59.34.609,classification_task,2021.2.3,Win32,60.07449237,5f24db32bb18c511736499f8,626b377229c10585ec392f89,626b37e70fe71dd1d7a41551,,,,,,,,,,,,,,,,,,,,,,,a,0,0.6377,"[""0.054"",""0.247"",""0.578"",""0.634""]","[1,1,1,0]",0,41,41,41,1,1,0,,,0,FALSE,,,,,,,,,,,,,,,,,,,,,,,,,,,,,,
,5f24db32bb18c511736499f8,001,2022-04-28_19h59.34.609,classification_task,2021.2.3,Win32,60.07449237,5f24db32bb18c511736499f8,626b377229c10585ec392f89,626b37e70fe71dd1d7a41551,,,,,,,,,,,,,,,,,,,,,,,a,0,0.5276,"[""0.108"",""0.151"",""0.466"",""0.700""]","[1,0,1,1]",0,42,42,42,1,1,1,,,0,FALSE,,,,,,,,,,,,,,,,,,,,,,,,,,,,,,
,5f24db32bb18c511736499f8,001,2022-04-28_19h59.34.609,classification_task,2021.2.3,Win32,60.07449237,5f24db32bb18c511736499f8,626b377229c10585ec392f89,626b37e70fe71dd1d7a41551,,,,,,,,,,,,,,,,,,,,,,,a,1,0.5134,"[""0.285"",""0.394"",""0.151"",""0.940""]","[1,1,0,1]",0,43,43,43,1,0,1,,,0,FALSE,,,,,,,,,,,,,,,,,,,,,,,,,,,,,,
,5f24db32bb18c511736499f8,001,2022-04-28_19h59.34.609,classification_task,2021.2.3,Win32,60.07449237,5f24db32bb18c511736499f8,626b377229c10585ec392f89,626b37e70fe71dd1d7a41551,,,,,,,,,,,,,,,,,,,,,,,l,0,0.5579,"[""0.196"",""0.513"",""0.629"",""0.874""]","[1,1,0,1]",0,44,44,44,1,0,0,,,0,FALSE,,,,,,,,,,,,,,,,,,,,,,,,,,,,,,
,5f24db32bb18c511736499f8,001,2022-04-28_19h59.34.609,classification_task,2021.2.3,Win32,60.07449237,5f24db32bb18c511736499f8,626b377229c10585ec392f89,626b37e70fe71dd1d7a41551,,,,,,,,,,,,,,,,,,,,,,,a,0,0.74,"[""0.108"",""0.323"",""0.644"",""0.700""]","[1,1,0,1]",0,45,45,45,1,1,1,,,0,FALSE,,,,,,,,,,,,,,,,,,,,,,,,,,,,,,
,5f24db32bb18c511736499f8,001,2022-04-28_19h59.34.609,classification_task,2021.2.3,Win32,60.07449237,5f24db32bb18c511736499f8,626b377229c10585ec392f89,626b37e70fe71dd1d7a41551,,,,,,,,,,,,,,,,,,,,,,,a,1,0.8921,"[""0.285"",""0.394"",""0.739"",""0.644""]","[1,1,1,0]",0,46,46,46,1,0,1,,,0,FALSE,,,,,,,,,,,,,,,,,,,,,,,,,,,,,,
,5f24db32bb18c511736499f8,001,2022-04-28_19h59.34.609,classification_task,2021.2.3,Win32,60.07449237,5f24db32bb18c511736499f8,626b377229c10585ec392f89,626b37e70fe71dd1d7a41551,,,,,,,,,,,,,,,,,,,,,,,l,1,1.2601,"[""0.108"",""0.323"",""0.466"",""0.614""]","[1,1,1,0]",0,47,47,47,1,1,1,,,0,FALSE,,,,,,,,,,,,,,,,,,,,,,,,,,,,,,
,5f24db32bb18c511736499f8,001,2022-04-28_19h59.34.609,classification_task,2021.2.3,Win32,60.07449237,5f24db32bb18c511736499f8,626b377229c10585ec392f89,626b37e70fe71dd1d7a41551,,,,,,,,,,,,,,,,,,,,,,,a,0,0.9173,"[""0.054"",""0.247"",""0.578"",""0.645""]","[1,1,1,0]",0,48,48,48,1,1,0,,,0,FALSE,,,,,,,,,,,,,,,,,,,,,,,,,,,,,,
,5f24db32bb18c511736499f8,001,2022-04-28_19h59.34.609,classification_task,2021.2.3,Win32,60.07449237,5f24db32bb18c511736499f8,626b377229c10585ec392f89,626b37e70fe71dd1d7a41551,,,,,,,,,,,,,,,,,,,,,,,l,1,1.2037,"[""0.614"",""0.323"",""0.466"",""0.700""]","[0,1,1,1]",0,49,49,49,1,1,1,,,0,FALSE,,,,,,,,,,,,,,,,,,,,,,,,,,,,,,
,5f24db32bb18c511736499f8,001,2022-04-28_19h59.34.609,classification_task,2021.2.3,Win32,60.07449237,5f24db32bb18c511736499f8,626b377229c10585ec392f89,626b37e70fe71dd1d7a41551,,,,,,,,,,,,,,,,,,,,,,,l,1,1.0923,"[""0.108"",""0.323"",""0.466"",""0.621""]","[1,1,1,0]",0,50,50,50,1,1,1,,,0,FALSE,,,,,,,,,,,,,,,,,,,,,,,,,,,,,,
,5f24db32bb18c511736499f8,001,2022-04-28_19h59.34.609,classification_task,2021.2.3,Win32,60.07449237,5f24db32bb18c511736499f8,626b377229c10585ec392f89,626b37e70fe71dd1d7a41551,,,,,,,,,,,,,,,,,,,,,,,l,0,1.0119,"[""0.196"",""0.513"",""0.840"",""0.156""]","[1,1,1,0]",0,51,51,51,1,0,0,,,0,FALSE,,,,,,,,,,,,,,,,,,,,,,,,,,,,,,
,5f24db32bb18c511736499f8,001,2022-04-28_19h59.34.609,classification_task,2021.2.3,Win32,60.07449237,5f24db32bb18c511736499f8,626b377229c10585ec392f89,626b37e70fe71dd1d7a41551,,,,,,,,,,,,,,,,,,,,,,,a,1,1.2591,"[""0.636"",""0.513"",""0.840"",""0.874""]","[0,1,1,1]",0,52,52,52,1,0,0,,,0,FALSE,,,,,,,,,,,,,,,,,,,,,,,,,,,,,,
,5f24db32bb18c511736499f8,001,2022-04-28_19h59.34.609,classification_task,2021.2.3,Win32,60.07449237,5f24db32bb18c511736499f8,626b377229c10585ec392f89,626b37e70fe71dd1d7a41551,,,,,,,,,,,,,,,,,,,,,,,a,1,1.1921,"[""0.196"",""0.513"",""0.629"",""0.874""]","[1,1,0,1]",0,53,53,53,1,0,0,,,0,FALSE,,,,,,,,,,,,,,,,,,,,,,,,,,,,,,
,5f24db32bb18c511736499f8,001,2022-04-28_19h59.34.609,classification_task,2021.2.3,Win32,60.07449237,5f24db32bb18c511736499f8,626b377229c10585ec392f89,626b37e70fe71dd1d7a41551,,,,,,,,,,,,,,,,,,,,,,,l,0,1.2993,"[""0.285"",""0.394"",""0.664"",""0.940""]","[1,1,0,1]",0,54,54,54,1,0,1,,,0,FALSE,,,,,,,,,,,,,,,,,,,,,,,,,,,,,,
,5f24db32bb18c511736499f8,001,2022-04-28_19h59.34.609,classification_task,2021.2.3,Win32,60.07449237,5f24db32bb18c511736499f8,626b377229c10585ec392f89,626b37e70fe71dd1d7a41551,,,,,,,,,,,,,,,,,,,,,,,l,0,2.2291,"[""0.196"",""0.156"",""0.840"",""0.874""]","[1,0,1,1]",0,55,55,55,1,0,0,,,0,FALSE,,,,,,,,,,,,,,,,,,,,,,,,,,,,,,
,5f24db32bb18c511736499f8,001,2022-04-28_19h59.34.609,classification_task,2021.2.3,Win32,60.07449237,5f24db32bb18c511736499f8,626b377229c10585ec392f89,626b37e70fe71dd1d7a41551,,,,,,,,,,,,,,,,,,,,,,,a,0,1.0747,"[""0.054"",""0.247"",""0.646"",""0.800""]","[1,1,0,1]",0,56,56,56,1,1,0,,,0,FALSE,,,,,,,,,,,,,,,,,,,,,,,,,,,,,,
,5f24db32bb18c511736499f8,001,2022-04-28_19h59.34.609,classification_task,2021.2.3,Win32,60.07449237,5f24db32bb18c511736499f8,626b377229c10585ec392f89,626b37e70fe71dd1d7a41551,,,,,,,,,,,,,,,,,,,,,,,l,1,1.2693,"[""0.646"",""0.247"",""0.578"",""0.800""]","[0,1,1,1]",0,57,57,57,1,1,0,,,0,FALSE,,,,,,,,,,,,,,,,,,,,,,,,,,,,,,
,5f24db32bb18c511736499f8,001,2022-04-28_19h59.34.609,classification_task,2021.2.3,Win32,60.07449237,5f24db32bb18c511736499f8,626b377229c10585ec392f89,626b37e70fe71dd1d7a41551,,,,,,,,,,,,,,,,,,,,,,,a,1,1.739,"[""0.621"",""0.394"",""0.739"",""0.940""]","[0,1,1,1]",0,58,58,58,1,0,1,,,0,FALSE,,,,,,,,,,,,,,,,,,,,,,,,,,,,,,
,5f24db32bb18c511736499f8,001,2022-04-28_19h59.34.609,classification_task,2021.2.3,Win32,60.07449237,5f24db32bb18c511736499f8,626b377229c10585ec392f89,626b37e70fe71dd1d7a41551,,,,,,,,,,,,,,,,,,,,,,,a,1,0.6833,"[""0.285"",""0.394"",""0.739"",""0.629""]","[1,1,1,0]",0,59,59,59,1,0,1,,,0,FALSE,,,,,,,,,,,,,,,,,,,,,,,,,,,,,,
,5f24db32bb18c511736499f8,001,2022-04-28_19h59.34.609,classification_task,2021.2.3,Win32,60.07449237,5f24db32bb18c511736499f8,626b377229c10585ec392f89,626b37e70fe71dd1d7a41551,,,,,,,,,,,,,,,,,,,,,,,a,1,1.0129,"[""0.285"",""0.644"",""0.739"",""0.940""]","[1,0,1,1]",0,60,60,60,1,0,1,,,0,FALSE,,,,,,,,,,,,,,,,,,,,,,,,,,,,,,
,5f24db32bb18c511736499f8,001,2022-04-28_19h59.34.609,classification_task,2021.2.3,Win32,60.07449237,5f24db32bb18c511736499f8,626b377229c10585ec392f89,626b37e70fe71dd1d7a41551,,,,,,,,,,,,,,,,,,,,,,,a,0,1.0775,"[""0.054"",""0.616"",""0.578"",""0.800""]","[1,0,1,1]",0,61,61,61,1,1,0,,,0,FALSE,,,,,,,,,,,,,,,,,,,,,,,,,,,,,,
,5f24db32bb18c511736499f8,001,2022-04-28_19h59.34.609,classification_task,2021.2.3,Win32,60.07449237,5f24db32bb18c511736499f8,626b377229c10585ec392f89,626b37e70fe71dd1d7a41551,,,,,,,,,,,,,,,,,,,,,,,a,0,1.3391,"[""0.108"",""0.621"",""0.466"",""0.700""]","[1,0,1,1]",0,62,62,62,1,1,1,,,0,FALSE,,,,,,,,,,,,,,,,,,,,,,,,,,,,,,
,5f24db32bb18c511736499f8,001,2022-04-28_19h59.34.609,classification_task,2021.2.3,Win32,60.07449237,5f24db32bb18c511736499f8,626b377229c10585ec392f89,626b37e70fe71dd1d7a41551,,,,,,,,,,,,,,,,,,,,,,,l,1,0.727,"[""0.108"",""0.323"",""0.145"",""0.700""]","[1,1,0,1]",0,63,63,63,1,1,1,,,0,FALSE,,,,,,,,,,,,,,,,,,,,,,,,,,,,,,
,5f24db32bb18c511736499f8,001,2022-04-28_19h59.34.609,classification_task,2021.2.3,Win32,60.07449237,5f24db32bb18c511736499f8,626b377229c10585ec392f89,626b37e70fe71dd1d7a41551,,,,,,,,,,,,,,,,,,,,,,,,,,,,,,,,,,,,,,,0, ,,0,10,424.3796,0,0,0,0,1,2,1,,,,,,,,,,,,,,,,,
,5f24db32bb18c511736499f8,001,2022-04-28_19h59.34.609,classification_task,2021.2.3,Win32,60.07449237,5f24db32bb18c511736499f8,626b377229c10585ec392f89,626b37e70fe71dd1d7a41551,,,,,,,,,,,,,,,,,,,,,,,,,,,,,,,,,,,,,,,1,  ,,0,6.396237507,428.1189,0,0,0,0,1,2,1,,,,,,,,,,,,,,,,,
,5f24db32bb18c511736499f8,001,2022-04-28_19h59.34.609,classification_task,2021.2.3,Win32,60.07449237,5f24db32bb18c511736499f8,626b377229c10585ec392f89,626b37e70fe71dd1d7a41551,,,,,,,,,,,,,,,,,,,,,,,,,,,,,,,,,,,,,,,2,  ,,0,1.37468156,434.8179,0,0,0,0,1,2,1,,,,,,,,,,,,,,,,,
,5f24db32bb18c511736499f8,001,2022-04-28_19h59.34.609,classification_task,2021.2.3,Win32,60.07449237,5f24db32bb18c511736499f8,626b377229c10585ec392f89,626b37e70fe71dd1d7a41551,,,,,,,,,,,,,,,,,,,,,,,,,,,,,,,,,,,,,,,,,,,,,0,0,0,0,1,,1,,,,,,,,,,,,,,,,,
,5f24db32bb18c511736499f8,001,2022-04-28_19h59.34.609,classification_task,2021.2.3,Win32,60.07449237,5f24db32bb18c511736499f8,626b377229c10585ec392f89,626b37e70fe71dd1d7a41551,,,,,,,,,,,,,,,,,,,,,space,12.7395,a,0,4.9441,"[""0.108"",""0.616"",""0.466"",""0.700""]","[1,0,1,1]",0,0,0,0,1,1,1,,,0,FALSE,,,,,,,,,,,,,,,,,,,,,,,,,,,,,,
,5f24db32bb18c511736499f8,001,2022-04-28_19h59.34.609,classification_task,2021.2.3,Win32,60.07449237,5f24db32bb18c511736499f8,626b377229c10585ec392f89,626b37e70fe71dd1d7a41551,,,,,,,,,,,,,,,,,,,,,,,a,1,2.7595,"[""0.664"",""0.513"",""0.840"",""0.874""]","[0,1,1,1]",0,1,1,1,1,0,0,,,0,FALSE,,,,,,,,,,,,,,,,,,,,,,,,,,,,,,
,5f24db32bb18c511736499f8,001,2022-04-28_19h59.34.609,classification_task,2021.2.3,Win32,60.07449237,5f24db32bb18c511736499f8,626b377229c10585ec392f89,626b37e70fe71dd1d7a41551,,,,,,,,,,,,,,,,,,,,,,,l,1,0.6515,"[""0.645"",""0.323"",""0.466"",""0.700""]","[0,1,1,1]",0,2,2,2,1,1,1,,,0,FALSE,,,,,,,,,,,,,,,,,,,,,,,,,,,,,,
,5f24db32bb18c511736499f8,001,2022-04-28_19h59.34.609,classification_task,2021.2.3,Win32,60.07449237,5f24db32bb18c511736499f8,626b377229c10585ec392f89,626b37e70fe71dd1d7a41551,,,,,,,,,,,,,,,,,,,,,,,l,0,0.4509,"[""0.614"",""0.394"",""0.739"",""0.940""]","[0,1,1,1]",0,3,3,3,1,0,1,,,0,FALSE,,,,,,,,,,,,,,,,,,,,,,,,,,,,,,
,5f24db32bb18c511736499f8,001,2022-04-28_19h59.34.609,classification_task,2021.2.3,Win32,60.07449237,5f24db32bb18c511736499f8,626b377229c10585ec392f89,626b37e70fe71dd1d7a41551,,,,,,,,,,,,,,,,,,,,,,,l,1,0.8251,"[""0.054"",""0.247"",""0.359"",""0.800""]","[1,1,0,1]",0,4,4,4,1,1,0,,,0,FALSE,,,,,,,,,,,,,,,,,,,,,,,,,,,,,,
,5f24db32bb18c511736499f8,001,2022-04-28_19h59.34.609,classification_task,2021.2.3,Win32,60.07449237,5f24db32bb18c511736499f8,626b377229c10585ec392f89,626b37e70fe71dd1d7a41551,,,,,,,,,,,,,,,,,,,,,,,l,1,0.4325,"[""0.054"",""0.247"",""0.578"",""0.645""]","[1,1,1,0]",0,5,5,5,1,1,0,,,0,FALSE,,,,,,,,,,,,,,,,,,,,,,,,,,,,,,
,5f24db32bb18c511736499f8,001,2022-04-28_19h59.34.609,classification_task,2021.2.3,Win32,60.07449237,5f24db32bb18c511736499f8,626b377229c10585ec392f89,626b37e70fe71dd1d7a41551,,,,,,,,,,,,,,,,,,,,,,,l,1,0.4067,"[""0.054"",""0.646"",""0.578"",""0.800""]","[1,0,1,1]",0,6,6,6,1,1,0,,,0,FALSE,,,,,,,,,,,,,,,,,,,,,,,,,,,,,,
,5f24db32bb18c511736499f8,001,2022-04-28_19h59.34.609,classification_task,2021.2.3,Win32,60.07449237,5f24db32bb18c511736499f8,626b377229c10585ec392f89,626b37e70fe71dd1d7a41551,,,,,,,,,,,,,,,,,,,,,,,a,1,0.8895,"[""0.285"",""0.394"",""0.644"",""0.940""]","[1,1,0,1]",0,7,7,7,1,0,1,,,0,FALSE,,,,,,,,,,,,,,,,,,,,,,,,,,,,,,
,5f24db32bb18c511736499f8,001,2022-04-28_19h59.34.609,classification_task,2021.2.3,Win32,60.07449237,5f24db32bb18c511736499f8,626b377229c10585ec392f89,626b37e70fe71dd1d7a41551,,,,,,,,,,,,,,,,,,,,,,,a,0,0.6402,"[""0.108"",""0.323"",""0.466"",""0.664""]","[1,1,1,0]",0,8,8,8,1,1,1,,,0,FALSE,,,,,,,,,,,,,,,,,,,,,,,,,,,,,,
,5f24db32bb18c511736499f8,001,2022-04-28_19h59.34.609,classification_task,2021.2.3,Win32,60.07449237,5f24db32bb18c511736499f8,626b377229c10585ec392f89,626b37e70fe71dd1d7a41551,,,,,,,,,,,,,,,,,,,,,,,l,1,0.6705,"[""0.621"",""0.247"",""0.578"",""0.800""]","[0,1,1,1]",0,9,9,9,1,1,0,,,0,FALSE,,,,,,,,,,,,,,,,,,,,,,,,,,,,,,
,5f24db32bb18c511736499f8,001,2022-04-28_19h59.34.609,classification_task,2021.2.3,Win32,60.07449237,5f24db32bb18c511736499f8,626b377229c10585ec392f89,626b37e70fe71dd1d7a41551,,,,,,,,,,,,,,,,,,,,,,,l,1,1.7597,"[""0.108"",""0.323"",""0.664"",""0.700""]","[1,1,0,1]",0,10,10,10,1,1,1,,,0,FALSE,,,,,,,,,,,,,,,,,,,,,,,,,,,,,,
,5f24db32bb18c511736499f8,001,2022-04-28_19h59.34.609,classification_task,2021.2.3,Win32,60.07449237,5f24db32bb18c511736499f8,626b377229c10585ec392f89,626b37e70fe71dd1d7a41551,,,,,,,,,,,,,,,,,,,,,,,a,1,0.5815,"[""0.196"",""0.616"",""0.840"",""0.874""]","[1,0,1,1]",0,11,11,11,1,0,0,,,0,FALSE,,,,,,,,,,,,,,,,,,,,,,,,,,,,,,
,5f24db32bb18c511736499f8,001,2022-04-28_19h59.34.609,classification_task,2021.2.3,Win32,60.07449237,5f24db32bb18c511736499f8,626b377229c10585ec392f89,626b37e70fe71dd1d7a41551,,,,,,,,,,,,,,,,,,,,,,,a,1,0.7915,"[""0.285"",""0.154"",""0.739"",""0.940""]","[1,0,1,1]",0,12,12,12,1,0,1,,,0,FALSE,,,,,,,,,,,,,,,,,,,,,,,,,,,,,,
,5f24db32bb18c511736499f8,001,2022-04-28_19h59.34.609,classification_task,2021.2.3,Win32,60.07449237,5f24db32bb18c511736499f8,626b377229c10585ec392f89,626b37e70fe71dd1d7a41551,,,,,,,,,,,,,,,,,,,,,,,a,1,0.5504,"[""0.196"",""0.513"",""0.840"",""0.645""]","[1,1,1,0]",0,13,13,13,1,0,0,,,0,FALSE,,,,,,,,,,,,,,,,,,,,,,,,,,,,,,
,5f24db32bb18c511736499f8,001,2022-04-28_19h59.34.609,classification_task,2021.2.3,Win32,60.07449237,5f24db32bb18c511736499f8,626b377229c10585ec392f89,626b37e70fe71dd1d7a41551,,,,,,,,,,,,,,,,,,,,,,,a,1,0.4924,"[""0.196"",""0.513"",""0.154"",""0.874""]","[1,1,0,1]",0,14,14,14,1,0,0,,,0,FALSE,,,,,,,,,,,,,,,,,,,,,,,,,,,,,,
,5f24db32bb18c511736499f8,001,2022-04-28_19h59.34.609,classification_task,2021.2.3,Win32,60.07449237,5f24db32bb18c511736499f8,626b377229c10585ec392f89,626b37e70fe71dd1d7a41551,,,,,,,,,,,,,,,,,,,,,,,a,1,0.8413,"[""0.285"",""0.394"",""0.739"",""0.616""]","[1,1,1,0]",0,15,15,15,1,0,1,,,0,FALSE,,,,,,,,,,,,,,,,,,,,,,,,,,,,,,
,5f24db32bb18c511736499f8,001,2022-04-28_19h59.34.609,classification_task,2021.2.3,Win32,60.07449237,5f24db32bb18c511736499f8,626b377229c10585ec392f89,626b37e70fe71dd1d7a41551,,,,,,,,,,,,,,,,,,,,,,,l,1,0.85,"[""0.108"",""0.154"",""0.466"",""0.700""]","[1,0,1,1]",0,16,16,16,1,1,1,,,0,FALSE,,,,,,,,,,,,,,,,,,,,,,,,,,,,,,
,5f24db32bb18c511736499f8,001,2022-04-28_19h59.34.609,classification_task,2021.2.3,Win32,60.07449237,5f24db32bb18c511736499f8,626b377229c10585ec392f89,626b37e70fe71dd1d7a41551,,,,,,,,,,,,,,,,,,,,,,,l,1,0.6242,"[""0.054"",""0.247"",""0.578"",""0.616""]","[1,1,1,0]",0,17,17,17,1,1,0,,,0,FALSE,,,,,,,,,,,,,,,,,,,,,,,,,,,,,,
,5f24db32bb18c511736499f8,001,2022-04-28_19h59.34.609,classification_task,2021.2.3,Win32,60.07449237,5f24db32bb18c511736499f8,626b377229c10585ec392f89,626b37e70fe71dd1d7a41551,,,,,,,,,,,,,,,,,,,,,,,l,0,1.0151,"[""0.285"",""0.621"",""0.739"",""0.940""]","[1,0,1,1]",0,18,18,18,1,0,1,,,0,FALSE,,,,,,,,,,,,,,,,,,,,,,,,,,,,,,
,5f24db32bb18c511736499f8,001,2022-04-28_19h59.34.609,classification_task,2021.2.3,Win32,60.07449237,5f24db32bb18c511736499f8,626b377229c10585ec392f89,626b37e70fe71dd1d7a41551,,,,,,,,,,,,,,,,,,,,,,,a,0,1.1165,"[""0.616"",""0.323"",""0.466"",""0.700""]","[0,1,1,1]",0,19,19,19,1,1,1,,,0,FALSE,,,,,,,,,,,,,,,,,,,,,,,,,,,,,,
,5f24db32bb18c511736499f8,001,2022-04-28_19h59.34.609,classification_task,2021.2.3,Win32,60.07449237,5f24db32bb18c511736499f8,626b377229c10585ec392f89,626b37e70fe71dd1d7a41551,,,,,,,,,,,,,,,,,,,,,,,a,1,0.5849,"[""0.196"",""0.513"",""0.840"",""0.621""]","[1,1,1,0]",0,20,20,20,1,0,0,,,0,FALSE,,,,,,,,,,,,,,,,,,,,,,,,,,,,,,
,5f24db32bb18c511736499f8,001,2022-04-28_19h59.34.609,classification_task,2021.2.3,Win32,60.07449237,5f24db32bb18c511736499f8,626b377229c10585ec392f89,626b37e70fe71dd1d7a41551,,,,,,,,,,,,,,,,,,,,,,,a,1,0.5001,"[""0.145"",""0.513"",""0.840"",""0.874""]","[0,1,1,1]",0,21,21,21,1,0,0,,,0,FALSE,,,,,,,,,,,,,,,,,,,,,,,,,,,,,,
,5f24db32bb18c511736499f8,001,2022-04-28_19h59.34.609,classification_task,2021.2.3,Win32,60.07449237,5f24db32bb18c511736499f8,626b377229c10585ec392f89,626b37e70fe71dd1d7a41551,,,,,,,,,,,,,,,,,,,,,,,a,1,0.4522,"[""0.196"",""0.513"",""0.154"",""0.874""]","[1,1,0,1]",0,22,22,22,1,0,0,,,0,FALSE,,,,,,,,,,,,,,,,,,,,,,,,,,,,,,
,5f24db32bb18c511736499f8,001,2022-04-28_19h59.34.609,classification_task,2021.2.3,Win32,60.07449237,5f24db32bb18c511736499f8,626b377229c10585ec392f89,626b37e70fe71dd1d7a41551,,,,,,,,,,,,,,,,,,,,,,,a,1,0.3996,"[""0.196"",""0.664"",""0.840"",""0.874""]","[1,0,1,1]",0,23,23,23,1,0,0,,,0,FALSE,,,,,,,,,,,,,,,,,,,,,,,,,,,,,,
,5f24db32bb18c511736499f8,001,2022-04-28_19h59.34.609,classification_task,2021.2.3,Win32,60.07449237,5f24db32bb18c511736499f8,626b377229c10585ec392f89,626b37e70fe71dd1d7a41551,,,,,,,,,,,,,,,,,,,,,,,a,1,1.6916,"[""0.285"",""0.394"",""0.664"",""0.940""]","[1,1,0,1]",0,24,24,24,1,0,1,,,0,FALSE,,,,,,,,,,,,,,,,,,,,,,,,,,,,,,
,5f24db32bb18c511736499f8,001,2022-04-28_19h59.34.609,classification_task,2021.2.3,Win32,60.07449237,5f24db32bb18c511736499f8,626b377229c10585ec392f89,626b37e70fe71dd1d7a41551,,,,,,,,,,,,,,,,,,,,,,,l,1,0.8279,"[""0.108"",""0.323"",""0.466"",""0.359""]","[1,1,1,0]",0,25,25,25,1,1,1,,,0,FALSE,,,,,,,,,,,,,,,,,,,,,,,,,,,,,,
,5f24db32bb18c511736499f8,001,2022-04-28_19h59.34.609,classification_task,2021.2.3,Win32,60.07449237,5f24db32bb18c511736499f8,626b377229c10585ec392f89,626b37e70fe71dd1d7a41551,,,,,,,,,,,,,,,,,,,,,,,l,1,0.5249,"[""0.054"",""0.247"",""0.146"",""0.800""]","[1,1,0,1]",0,26,26,26,1,1,0,,,0,FALSE,,,,,,,,,,,,,,,,,,,,,,,,,,,,,,
,5f24db32bb18c511736499f8,001,2022-04-28_19h59.34.609,classification_task,2021.2.3,Win32,60.07449237,5f24db32bb18c511736499f8,626b377229c10585ec392f89,626b37e70fe71dd1d7a41551,,,,,,,,,,,,,,,,,,,,,,,a,1,1.6818,"[""0.634"",""0.394"",""0.739"",""0.940""]","[0,1,1,1]",0,27,27,27,1,0,1,,,0,FALSE,,,,,,,,,,,,,,,,,,,,,,,,,,,,,,
,5f24db32bb18c511736499f8,001,2022-04-28_19h59.34.609,classification_task,2021.2.3,Win32,60.07449237,5f24db32bb18c511736499f8,626b377229c10585ec392f89,626b37e70fe71dd1d7a41551,,,,,,,,,,,,,,,,,,,,,,,l,1,0.6553,"[""0.108"",""0.323"",""0.646"",""0.700""]","[1,1,0,1]",0,28,28,28,1,1,1,,,0,FALSE,,,,,,,,,,,,,,,,,,,,,,,,,,,,,,
,5f24db32bb18c511736499f8,001,2022-04-28_19h59.34.609,classification_task,2021.2.3,Win32,60.07449237,5f24db32bb18c511736499f8,626b377229c10585ec392f89,626b37e70fe71dd1d7a41551,,,,,,,,,,,,,,,,,,,,,,,l,1,0.5497,"[""0.146"",""0.247"",""0.578"",""0.800""]","[0,1,1,1]",0,29,29,29,1,1,0,,,0,FALSE,,,,,,,,,,,,,,,,,,,,,,,,,,,,,,
,5f24db32bb18c511736499f8,001,2022-04-28_19h59.34.609,classification_task,2021.2.3,Win32,60.07449237,5f24db32bb18c511736499f8,626b377229c10585ec392f89,626b37e70fe71dd1d7a41551,,,,,,,,,,,,,,,,,,,,,,,l,1,0.7833,"[""0.054"",""0.636"",""0.578"",""0.800""]","[1,0,1,1]",0,30,30,30,1,1,0,,,0,FALSE,,,,,,,,,,,,,,,,,,,,,,,,,,,,,,
,5f24db32bb18c511736499f8,001,2022-04-28_19h59.34.609,classification_task,2021.2.3,Win32,60.07449237,5f24db32bb18c511736499f8,626b377229c10585ec392f89,626b37e70fe71dd1d7a41551,,,,,,,,,,,,,,,,,,,,,,,a,1,1.0262,"[""0.285"",""0.394"",""0.739"",""0.646""]","[1,1,1,0]",0,31,31,31,1,0,1,,,0,FALSE,,,,,,,,,,,,,,,,,,,,,,,,,,,,,,
,5f24db32bb18c511736499f8,001,2022-04-28_19h59.34.609,classification_task,2021.2.3,Win32,60.07449237,5f24db32bb18c511736499f8,626b377229c10585ec392f89,626b37e70fe71dd1d7a41551,,,,,,,,,,,,,,,,,,,,,,,a,1,0.4643,"[""0.196"",""0.513"",""0.840"",""0.634""]","[1,1,1,0]",0,32,32,32,1,0,0,,,0,FALSE,,,,,,,,,,,,,,,,,,,,,,,,,,,,,,
,5f24db32bb18c511736499f8,001,2022-04-28_19h59.34.609,classification_task,2021.2.3,Win32,60.07449237,5f24db32bb18c511736499f8,626b377229c10585ec392f89,626b37e70fe71dd1d7a41551,,,,,,,,,,,,,,,,,,,,,,,a,1,0.8194,"[""0.151"",""0.394"",""0.739"",""0.940""]","[0,1,1,1]",0,33,33,33,1,0,1,,,0,FALSE,,,,,,,,,,,,,,,,,,,,,,,,,,,,,,
,5f24db32bb18c511736499f8,001,2022-04-28_19h59.34.609,classification_task,2021.2.3,Win32,60.07449237,5f24db32bb18c511736499f8,626b377229c10585ec392f89,626b37e70fe71dd1d7a41551,,,,,,,,,,,,,,,,,,,,,,,l,1,0.5439,"[""0.634"",""0.247"",""0.578"",""0.800""]","[0,1,1,1]",0,34,34,34,1,1,0,,,0,FALSE,,,,,,,,,,,,,,,,,,,,,,,,,,,,,,
,5f24db32bb18c511736499f8,001,2022-04-28_19h59.34.609,classification_task,2021.2.3,Win32,60.07449237,5f24db32bb18c511736499f8,626b377229c10585ec392f89,626b37e70fe71dd1d7a41551,,,,,,,,,,,,,,,,,,,,,,,l,1,1.3716,"[""0.616"",""0.323"",""0.466"",""0.700""]","[0,1,1,1]",0,35,35,35,1,1,1,,,0,FALSE,,,,,,,,,,,,,,,,,,,,,,,,,,,,,,
,5f24db32bb18c511736499f8,001,2022-04-28_19h59.34.609,classification_task,2021.2.3,Win32,60.07449237,5f24db32bb18c511736499f8,626b377229c10585ec392f89,626b37e70fe71dd1d7a41551,,,,,,,,,,,,,,,,,,,,,,,l,1,0.5073,"[""0.054"",""0.146"",""0.578"",""0.800""]","[1,0,1,1]",0,36,36,36,1,1,0,,,0,FALSE,,,,,,,,,,,,,,,,,,,,,,,,,,,,,,
,5f24db32bb18c511736499f8,001,2022-04-28_19h59.34.609,classification_task,2021.2.3,Win32,60.07449237,5f24db32bb18c511736499f8,626b377229c10585ec392f89,626b37e70fe71dd1d7a41551,,,,,,,,,,,,,,,,,,,,,,,a,1,0.5992,"[""0.285"",""0.145"",""0.739"",""0.940""]","[1,0,1,1]",0,37,37,37,1,0,1,,,0,FALSE,,,,,,,,,,,,,,,,,,,,,,,,,,,,,,
,5f24db32bb18c511736499f8,001,2022-04-28_19h59.34.609,classification_task,2021.2.3,Win32,60.07449237,5f24db32bb18c511736499f8,626b377229c10585ec392f89,626b37e70fe71dd1d7a41551,,,,,,,,,,,,,,,,,,,,,,,l,1,0.9173,"[""0.108"",""0.323"",""0.151"",""0.700""]","[1,1,0,1]",0,38,38,38,1,1,1,,,0,FALSE,,,,,,,,,,,,,,,,,,,,,,,,,,,,,,
,5f24db32bb18c511736499f8,001,2022-04-28_19h59.34.609,classification_task,2021.2.3,Win32,60.07449237,5f24db32bb18c511736499f8,626b377229c10585ec392f89,626b37e70fe71dd1d7a41551,,,,,,,,,,,,,,,,,,,,,,,l,0,1.3328,"[""0.285"",""0.394"",""0.644"",""0.940""]","[1,1,0,1]",0,39,39,39,1,0,1,,,0,FALSE,,,,,,,,,,,,,,,,,,,,,,,,,,,,,,
,5f24db32bb18c511736499f8,001,2022-04-28_19h59.34.609,classification_task,2021.2.3,Win32,60.07449237,5f24db32bb18c511736499f8,626b377229c10585ec392f89,626b37e70fe71dd1d7a41551,,,,,,,,,,,,,,,,,,,,,,,l,1,0.5662,"[""0.054"",""0.247"",""0.578"",""0.154""]","[1,1,1,0]",0,40,40,40,1,1,0,,,0,FALSE,,,,,,,,,,,,,,,,,,,,,,,,,,,,,,
,5f24db32bb18c511736499f8,001,2022-04-28_19h59.34.609,classification_task,2021.2.3,Win32,60.07449237,5f24db32bb18c511736499f8,626b377229c10585ec392f89,626b37e70fe71dd1d7a41551,,,,,,,,,,,,,,,,,,,,,,,l,1,0.8761,"[""0.108"",""0.154"",""0.466"",""0.700""]","[1,0,1,1]",0,41,41,41,1,1,1,,,0,FALSE,,,,,,,,,,,,,,,,,,,,,,,,,,,,,,
,5f24db32bb18c511736499f8,001,2022-04-28_19h59.34.609,classification_task,2021.2.3,Win32,60.07449237,5f24db32bb18c511736499f8,626b377229c10585ec392f89,626b37e70fe71dd1d7a41551,,,,,,,,,,,,,,,,,,,,,,,a,1,0.52,"[""0.196"",""0.614"",""0.840"",""0.874""]","[1,0,1,1]",0,42,42,42,1,0,0,,,0,FALSE,,,,,,,,,,,,,,,,,,,,,,,,,,,,,,
,5f24db32bb18c511736499f8,001,2022-04-28_19h59.34.609,classification_task,2021.2.3,Win32,60.07449237,5f24db32bb18c511736499f8,626b377229c10585ec392f89,626b37e70fe71dd1d7a41551,,,,,,,,,,,,,,,,,,,,,,,a,1,0.5118,"[""0.664"",""0.513"",""0.840"",""0.874""]","[0,1,1,1]",0,43,43,43,1,0,0,,,0,FALSE,,,,,,,,,,,,,,,,,,,,,,,,,,,,,,
,5f24db32bb18c511736499f8,001,2022-04-28_19h59.34.609,classification_task,2021.2.3,Win32,60.07449237,5f24db32bb18c511736499f8,626b377229c10585ec392f89,626b37e70fe71dd1d7a41551,,,,,,,,,,,,,,,,,,,,,,,l,1,1.3161,"[""0.108"",""0.323"",""0.466"",""0.145""]","[1,1,1,0]",0,44,44,44,1,1,1,,,0,FALSE,,,,,,,,,,,,,,,,,,,,,,,,,,,,,,
,5f24db32bb18c511736499f8,001,2022-04-28_19h59.34.609,classification_task,2021.2.3,Win32,60.07449237,5f24db32bb18c511736499f8,626b377229c10585ec392f89,626b37e70fe71dd1d7a41551,,,,,,,,,,,,,,,,,,,,,,,a,1,0.6098,"[""0.285"",""0.394"",""0.739"",""0.644""]","[1,1,1,0]",0,45,45,45,1,0,1,,,0,FALSE,,,,,,,,,,,,,,,,,,,,,,,,,,,,,,
,5f24db32bb18c511736499f8,001,2022-04-28_19h59.34.609,classification_task,2021.2.3,Win32,60.07449237,5f24db32bb18c511736499f8,626b377229c10585ec392f89,626b37e70fe71dd1d7a41551,,,,,,,,,,,,,,,,,,,,,,,a,1,0.5428,"[""0.196"",""0.513"",""0.664"",""0.874""]","[1,1,0,1]",0,46,46,46,1,0,0,,,0,FALSE,,,,,,,,,,,,,,,,,,,,,,,,,,,,,,
,5f24db32bb18c511736499f8,001,2022-04-28_19h59.34.609,classification_task,2021.2.3,Win32,60.07449237,5f24db32bb18c511736499f8,626b377229c10585ec392f89,626b37e70fe71dd1d7a41551,,,,,,,,,,,,,,,,,,,,,,,l,1,0.4569,"[""0.054"",""0.247"",""0.156"",""0.800""]","[1,1,0,1]",0,47,47,47,1,1,0,,,0,FALSE,,,,,,,,,,,,,,,,,,,,,,,,,,,,,,
,5f24db32bb18c511736499f8,001,2022-04-28_19h59.34.609,classification_task,2021.2.3,Win32,60.07449237,5f24db32bb18c511736499f8,626b377229c10585ec392f89,626b37e70fe71dd1d7a41551,,,,,,,,,,,,,,,,,,,,,,,a,1,0.4173,"[""0.196"",""0.146"",""0.840"",""0.874""]","[1,0,1,1]",0,48,48,48,1,0,0,,,0,FALSE,,,,,,,,,,,,,,,,,,,,,,,,,,,,,,
,5f24db32bb18c511736499f8,001,2022-04-28_19h59.34.609,classification_task,2021.2.3,Win32,60.07449237,5f24db32bb18c511736499f8,626b377229c10585ec392f89,626b37e70fe71dd1d7a41551,,,,,,,,,,,,,,,,,,,,,,,a,1,0.9899,"[""0.285"",""0.394"",""0.629"",""0.940""]","[1,1,0,1]",0,49,49,49,1,0,1,,,0,FALSE,,,,,,,,,,,,,,,,,,,,,,,,,,,,,,
,5f24db32bb18c511736499f8,001,2022-04-28_19h59.34.609,classification_task,2021.2.3,Win32,60.07449237,5f24db32bb18c511736499f8,626b377229c10585ec392f89,626b37e70fe71dd1d7a41551,,,,,,,,,,,,,,,,,,,,,,,l,1,0.5398,"[""0.054"",""0.247"",""0.156"",""0.800""]","[1,1,0,1]",0,50,50,50,1,1,0,,,0,FALSE,,,,,,,,,,,,,,,,,,,,,,,,,,,,,,
,5f24db32bb18c511736499f8,001,2022-04-28_19h59.34.609,classification_task,2021.2.3,Win32,60.07449237,5f24db32bb18c511736499f8,626b377229c10585ec392f89,626b37e70fe71dd1d7a41551,,,,,,,,,,,,,,,,,,,,,,,l,1,0.8492,"[""0.108"",""0.151"",""0.466"",""0.700""]","[1,0,1,1]",0,51,51,51,1,1,1,,,0,FALSE,,,,,,,,,,,,,,,,,,,,,,,,,,,,,,
,5f24db32bb18c511736499f8,001,2022-04-28_19h59.34.609,classification_task,2021.2.3,Win32,60.07449237,5f24db32bb18c511736499f8,626b377229c10585ec392f89,626b37e70fe71dd1d7a41551,,,,,,,,,,,,,,,,,,,,,,,a,0,0.8808,"[""0.108"",""0.323"",""0.644"",""0.700""]","[1,1,0,1]",0,52,52,52,1,1,1,,,0,FALSE,,,,,,,,,,,,,,,,,,,,,,,,,,,,,,
,5f24db32bb18c511736499f8,001,2022-04-28_19h59.34.609,classification_task,2021.2.3,Win32,60.07449237,5f24db32bb18c511736499f8,626b377229c10585ec392f89,626b37e70fe71dd1d7a41551,,,,,,,,,,,,,,,,,,,,,,,l,1,1.0713,"[""0.636"",""0.323"",""0.466"",""0.700""]","[0,1,1,1]",0,53,53,53,1,1,1,,,0,FALSE,,,,,,,,,,,,,,,,,,,,,,,,,,,,,,
,5f24db32bb18c511736499f8,001,2022-04-28_19h59.34.609,classification_task,2021.2.3,Win32,60.07449237,5f24db32bb18c511736499f8,626b377229c10585ec392f89,626b37e70fe71dd1d7a41551,,,,,,,,,,,,,,,,,,,,,,,a,0,1.0995,"[""0.108"",""0.323"",""0.466"",""0.146""]","[1,1,1,0]",0,54,54,54,1,1,1,,,0,FALSE,,,,,,,,,,,,,,,,,,,,,,,,,,,,,,
,5f24db32bb18c511736499f8,001,2022-04-28_19h59.34.609,classification_task,2021.2.3,Win32,60.07449237,5f24db32bb18c511736499f8,626b377229c10585ec392f89,626b37e70fe71dd1d7a41551,,,,,,,,,,,,,,,,,,,,,,,a,1,0.6241,"[""0.636"",""0.513"",""0.840"",""0.874""]","[0,1,1,1]",0,55,55,55,1,0,0,,,0,FALSE,,,,,,,,,,,,,,,,,,,,,,,,,,,,,,
,5f24db32bb18c511736499f8,001,2022-04-28_19h59.34.609,classification_task,2021.2.3,Win32,60.07449237,5f24db32bb18c511736499f8,626b377229c10585ec392f89,626b37e70fe71dd1d7a41551,,,,,,,,,,,,,,,,,,,,,,,l,1,0.3598,"[""0.054"",""0.645"",""0.578"",""0.800""]","[1,0,1,1]",0,56,56,56,1,1,0,,,0,FALSE,,,,,,,,,,,,,,,,,,,,,,,,,,,,,,
,5f24db32bb18c511736499f8,001,2022-04-28_19h59.34.609,classification_task,2021.2.3,Win32,60.07449237,5f24db32bb18c511736499f8,626b377229c10585ec392f89,626b37e70fe71dd1d7a41551,,,,,,,,,,,,,,,,,,,,,,,l,1,0.3993,"[""0.629"",""0.247"",""0.578"",""0.800""]","[0,1,1,1]",0,57,57,57,1,1,0,,,0,FALSE,,,,,,,,,,,,,,,,,,,,,,,,,,,,,,
,5f24db32bb18c511736499f8,001,2022-04-28_19h59.34.609,classification_task,2021.2.3,Win32,60.07449237,5f24db32bb18c511736499f8,626b377229c10585ec392f89,626b37e70fe71dd1d7a41551,,,,,,,,,,,,,,,,,,,,,,,a,1,0.6068,"[""0.285"",""0.394"",""0.739"",""0.151""]","[1,1,1,0]",0,58,58,58,1,0,1,,,0,FALSE,,,,,,,,,,,,,,,,,,,,,,,,,,,,,,
,5f24db32bb18c511736499f8,001,2022-04-28_19h59.34.609,classification_task,2021.2.3,Win32,60.07449237,5f24db32bb18c511736499f8,626b377229c10585ec392f89,626b37e70fe71dd1d7a41551,,,,,,,,,,,,,,,,,,,,,,,a,1,0.577,"[""0.196"",""0.513"",""0.840"",""0.145""]","[1,1,1,0]",0,59,59,59,1,0,0,,,0,FALSE,,,,,,,,,,,,,,,,,,,,,,,,,,,,,,
,5f24db32bb18c511736499f8,001,2022-04-28_19h59.34.609,classification_task,2021.2.3,Win32,60.07449237,5f24db32bb18c511736499f8,626b377229c10585ec392f89,626b37e70fe71dd1d7a41551,,,,,,,,,,,,,,,,,,,,,,,a,1,0.9429,"[""0.616"",""0.394"",""0.739"",""0.940""]","[0,1,1,1]",0,60,60,60,1,0,1,,,0,FALSE,,,,,,,,,,,,,,,,,,,,,,,,,,,,,,
,5f24db32bb18c511736499f8,001,2022-04-28_19h59.34.609,classification_task,2021.2.3,Win32,60.07449237,5f24db32bb18c511736499f8,626b377229c10585ec392f89,626b37e70fe71dd1d7a41551,,,,,,,,,,,,,,,,,,,,,,,l,1,0.5397,"[""0.054"",""0.247"",""0.578"",""0.154""]","[1,1,1,0]",0,61,61,61,1,1,0,,,0,FALSE,,,,,,,,,,,,,,,,,,,,,,,,,,,,,,
,5f24db32bb18c511736499f8,001,2022-04-28_19h59.34.609,classification_task,2021.2.3,Win32,60.07449237,5f24db32bb18c511736499f8,626b377229c10585ec392f89,626b37e70fe71dd1d7a41551,,,,,,,,,,,,,,,,,,,,,,,l,0,0.9984,"[""0.285"",""0.646"",""0.739"",""0.940""]","[1,0,1,1]",0,62,62,62,1,0,1,,,0,FALSE,,,,,,,,,,,,,,,,,,,,,,,,,,,,,,
,5f24db32bb18c511736499f8,001,2022-04-28_19h59.34.609,classification_task,2021.2.3,Win32,60.07449237,5f24db32bb18c511736499f8,626b377229c10585ec392f89,626b37e70fe71dd1d7a41551,,,,,,,,,,,,,,,,,,,,,,,a,1,0.5187,"[""0.196"",""0.513"",""0.359"",""0.874""]","[1,1,0,1]",0,63,63,63,1,0,0,,,0,FALSE,,,,,,,,,,,,,,,,,,,,,,,,,,,,,,
,5f24db32bb18c511736499f8,001,2022-04-28_19h59.34.609,classification_task,2021.2.3,Win32,60.07449237,5f24db32bb18c511736499f8,626b377229c10585ec392f89,626b37e70fe71dd1d7a41551,,,,,,,,,,,,,,,,,,,,,,,,,,,,,,,,,,,,,,,0, ,,0,5.416421713,141.7421,0,1,1,1,1,2,2,,,,,,,,,,,,,,,,,
,5f24db32bb18c511736499f8,001,2022-04-28_19h59.34.609,classification_task,2021.2.3,Win32,60.07449237,5f24db32bb18c511736499f8,626b377229c10585ec392f89,626b37e70fe71dd1d7a41551,,,,,,,,,,,,,,,,,,,,,,,,,,,,,,,,,,,,,,,1,  ,,0,1.570644719,145.3383,0,1,1,1,1,2,2,,,,,,,,,,,,,,,,,
,5f24db32bb18c511736499f8,001,2022-04-28_19h59.34.609,classification_task,2021.2.3,Win32,60.07449237,5f24db32bb18c511736499f8,626b377229c10585ec392f89,626b37e70fe71dd1d7a41551,,,,,,,,,,,,,,,,,,,,,,,,,,,,,,,,,,,,,,,2,  ,,0,0,147.1862,0,1,1,1,1,2,2,,,,,,,,,,,,,,,,,
,5f24db32bb18c511736499f8,001,2022-04-28_19h59.34.609,classification_task,2021.2.3,Win32,60.07449237,5f24db32bb18c511736499f8,626b377229c10585ec392f89,626b37e70fe71dd1d7a41551,,,,,,,,,,,,,,,,,,,,,,,,,,,,,,,,,,,,,,,,,,,,,0,1,1,1,1,,2,,,,,,,,,,,,,,,,,
,5f24db32bb18c511736499f8,001,2022-04-28_19h59.34.609,classification_task,2021.2.3,Win32,60.07449237,5f24db32bb18c511736499f8,626b377229c10585ec392f89,626b37e70fe71dd1d7a41551,,,,,,,,,,,,,,,,,,,,,space,9.1227,l,0,2.0098,"[""0.614"",""0.513"",""0.840"",""0.874""]","[0,1,1,1]",0,0,0,0,1,0,0,,,0,FALSE,,,,,,,,,,,,,,,,,,,,,,,,,,,,,,
,5f24db32bb18c511736499f8,001,2022-04-28_19h59.34.609,classification_task,2021.2.3,Win32,60.07449237,5f24db32bb18c511736499f8,626b377229c10585ec392f89,626b37e70fe71dd1d7a41551,,,,,,,,,,,,,,,,,,,,,,,l,1,1.5783,"[""0.054"",""0.247"",""0.578"",""0.616""]","[1,1,1,0]",0,1,1,1,1,1,0,,,0,FALSE,,,,,,,,,,,,,,,,,,,,,,,,,,,,,,
,5f24db32bb18c511736499f8,001,2022-04-28_19h59.34.609,classification_task,2021.2.3,Win32,60.07449237,5f24db32bb18c511736499f8,626b377229c10585ec392f89,626b37e70fe71dd1d7a41551,,,,,,,,,,,,,,,,,,,,,,,a,1,0.9048,"[""0.614"",""0.394"",""0.739"",""0.940""]","[0,1,1,1]",0,2,2,2,1,0,1,,,0,FALSE,,,,,,,,,,,,,,,,,,,,,,,,,,,,,,
,5f24db32bb18c511736499f8,001,2022-04-28_19h59.34.609,classification_task,2021.2.3,Win32,60.07449237,5f24db32bb18c511736499f8,626b377229c10585ec392f89,626b37e70fe71dd1d7a41551,,,,,,,,,,,,,,,,,,,,,,,a,1,2.5898,"[""0.285"",""0.394"",""0.645"",""0.940""]","[1,1,0,1]",0,3,3,3,1,0,1,,,0,FALSE,,,,,,,,,,,,,,,,,,,,,,,,,,,,,,
,5f24db32bb18c511736499f8,001,2022-04-28_19h59.34.609,classification_task,2021.2.3,Win32,60.07449237,5f24db32bb18c511736499f8,626b377229c10585ec392f89,626b37e70fe71dd1d7a41551,,,,,,,,,,,,,,,,,,,,,,,l,1,1.3954,"[""0.054"",""0.156"",""0.578"",""0.800""]","[1,0,1,1]",0,4,4,4,1,1,0,,,0,FALSE,,,,,,,,,,,,,,,,,,,,,,,,,,,,,,
,5f24db32bb18c511736499f8,001,2022-04-28_19h59.34.609,classification_task,2021.2.3,Win32,60.07449237,5f24db32bb18c511736499f8,626b377229c10585ec392f89,626b37e70fe71dd1d7a41551,,,,,,,,,,,,,,,,,,,,,,,a,1,1.0506,"[""0.196"",""0.614"",""0.840"",""0.874""]","[1,0,1,1]",0,5,5,5,1,0,0,,,0,FALSE,,,,,,,,,,,,,,,,,,,,,,,,,,,,,,
,5f24db32bb18c511736499f8,001,2022-04-28_19h59.34.609,classification_task,2021.2.3,Win32,60.07449237,5f24db32bb18c511736499f8,626b377229c10585ec392f89,626b37e70fe71dd1d7a41551,,,,,,,,,,,,,,,,,,,,,,,a,1,0.9955,"[""0.285"",""0.629"",""0.739"",""0.940""]","[1,0,1,1]",0,6,6,6,1,0,1,,,0,FALSE,,,,,,,,,,,,,,,,,,,,,,,,,,,,,,
,5f24db32bb18c511736499f8,001,2022-04-28_19h59.34.609,classification_task,2021.2.3,Win32,60.07449237,5f24db32bb18c511736499f8,626b377229c10585ec392f89,626b37e70fe71dd1d7a41551,,,,,,,,,,,,,,,,,,,,,,,l,1,1.4746,"[""0.108"",""0.634"",""0.466"",""0.700""]","[1,0,1,1]",0,7,7,7,1,1,1,,,0,FALSE,,,,,,,,,,,,,,,,,,,,,,,,,,,,,,
,5f24db32bb18c511736499f8,001,2022-04-28_19h59.34.609,classification_task,2021.2.3,Win32,60.07449237,5f24db32bb18c511736499f8,626b377229c10585ec392f89,626b37e70fe71dd1d7a41551,,,,,,,,,,,,,,,,,,,,,,,a,1,0.7801,"[""0.196"",""0.513"",""0.840"",""0.621""]","[1,1,1,0]",0,8,8,8,1,0,0,,,0,FALSE,,,,,,,,,,,,,,,,,,,,,,,,,,,,,,
,5f24db32bb18c511736499f8,001,2022-04-28_19h59.34.609,classification_task,2021.2.3,Win32,60.07449237,5f24db32bb18c511736499f8,626b377229c10585ec392f89,626b37e70fe71dd1d7a41551,,,,,,,,,,,,,,,,,,,,,,,a,1,0.7131,"[""0.196"",""0.513"",""0.644"",""0.874""]","[1,1,0,1]",0,9,9,9,1,0,0,,,0,FALSE,,,,,,,,,,,,,,,,,,,,,,,,,,,,,,
,5f24db32bb18c511736499f8,001,2022-04-28_19h59.34.609,classification_task,2021.2.3,Win32,60.07449237,5f24db32bb18c511736499f8,626b377229c10585ec392f89,626b37e70fe71dd1d7a41551,,,,,,,,,,,,,,,,,,,,,,,a,1,0.7001,"[""0.285"",""0.394"",""0.739"",""0.634""]","[1,1,1,0]",0,10,10,10,1,0,1,,,0,FALSE,,,,,,,,,,,,,,,,,,,,,,,,,,,,,,
,5f24db32bb18c511736499f8,001,2022-04-28_19h59.34.609,classification_task,2021.2.3,Win32,60.07449237,5f24db32bb18c511736499f8,626b377229c10585ec392f89,626b37e70fe71dd1d7a41551,,,,,,,,,,,,,,,,,,,,,,,a,0,1.3844,"[""0.359"",""0.247"",""0.578"",""0.800""]","[0,1,1,1]",0,11,11,11,1,1,0,,,0,FALSE,,,,,,,,,,,,,,,,,,,,,,,,,,,,,,
,5f24db32bb18c511736499f8,001,2022-04-28_19h59.34.609,classification_task,2021.2.3,Win32,60.07449237,5f24db32bb18c511736499f8,626b377229c10585ec392f89,626b37e70fe71dd1d7a41551,,,,,,,,,,,,,,,,,,,,,,,l,1,0.88,"[""0.108"",""0.323"",""0.634"",""0.700""]","[1,1,0,1]",0,12,12,12,1,1,1,,,0,FALSE,,,,,,,,,,,,,,,,,,,,,,,,,,,,,,
,5f24db32bb18c511736499f8,001,2022-04-28_19h59.34.609,classification_task,2021.2.3,Win32,60.07449237,5f24db32bb18c511736499f8,626b377229c10585ec392f89,626b37e70fe71dd1d7a41551,,,,,,,,,,,,,,,,,,,,,,,a,0,0.5832,"[""0.054"",""0.247"",""0.646"",""0.800""]","[1,1,0,1]",0,13,13,13,1,1,0,,,0,FALSE,,,,,,,,,,,,,,,,,,,,,,,,,,,,,,
,5f24db32bb18c511736499f8,001,2022-04-28_19h59.34.609,classification_task,2021.2.3,Win32,60.07449237,5f24db32bb18c511736499f8,626b377229c10585ec392f89,626b37e70fe71dd1d7a41551,,,,,,,,,,,,,,,,,,,,,,,a,0,0.5672,"[""0.156"",""0.323"",""0.466"",""0.700""]","[0,1,1,1]",0,14,14,14,1,1,1,,,0,FALSE,,,,,,,,,,,,,,,,,,,,,,,,,,,,,,
,5f24db32bb18c511736499f8,001,2022-04-28_19h59.34.609,classification_task,2021.2.3,Win32,60.07449237,5f24db32bb18c511736499f8,626b377229c10585ec392f89,626b37e70fe71dd1d7a41551,,,,,,,,,,,,,,,,,,,,,,,a,0,0.6963,"[""0.108"",""0.323"",""0.466"",""0.636""]","[1,1,1,0]",0,15,15,15,1,1,1,,,0,FALSE,,,,,,,,,,,,,,,,,,,,,,,,,,,,,,
,5f24db32bb18c511736499f8,001,2022-04-28_19h59.34.609,classification_task,2021.2.3,Win32,60.07449237,5f24db32bb18c511736499f8,626b377229c10585ec392f89,626b37e70fe71dd1d7a41551,,,,,,,,,,,,,,,,,,,,,,,a,0,0.4663,"[""0.154"",""0.323"",""0.466"",""0.700""]","[0,1,1,1]",0,16,16,16,1,1,1,,,0,FALSE,,,,,,,,,,,,,,,,,,,,,,,,,,,,,,
,5f24db32bb18c511736499f8,001,2022-04-28_19h59.34.609,classification_task,2021.2.3,Win32,60.07449237,5f24db32bb18c511736499f8,626b377229c10585ec392f89,626b37e70fe71dd1d7a41551,,,,,,,,,,,,,,,,,,,,,,,a,1,1.044,"[""0.196"",""0.513"",""0.621"",""0.874""]","[1,1,0,1]",0,17,17,17,1,0,0,,,0,FALSE,,,,,,,,,,,,,,,,,,,,,,,,,,,,,,
,5f24db32bb18c511736499f8,001,2022-04-28_19h59.34.609,classification_task,2021.2.3,Win32,60.07449237,5f24db32bb18c511736499f8,626b377229c10585ec392f89,626b37e70fe71dd1d7a41551,,,,,,,,,,,,,,,,,,,,,,,l,1,0.8029,"[""0.054"",""0.145"",""0.578"",""0.800""]","[1,0,1,1]",0,18,18,18,1,1,0,,,0,FALSE,,,,,,,,,,,,,,,,,,,,,,,,,,,,,,
,5f24db32bb18c511736499f8,001,2022-04-28_19h59.34.609,classification_task,2021.2.3,Win32,60.07449237,5f24db32bb18c511736499f8,626b377229c10585ec392f89,626b37e70fe71dd1d7a41551,,,,,,,,,,,,,,,,,,,,,,,l,1,0.6006,"[""0.054"",""0.247"",""0.578"",""0.621""]","[1,1,1,0]",0,19,19,19,1,1,0,,,0,FALSE,,,,,,,,,,,,,,,,,,,,,,,,,,,,,,
,5f24db32bb18c511736499f8,001,2022-04-28_19h59.34.609,classification_task,2021.2.3,Win32,60.07449237,5f24db32bb18c511736499f8,626b377229c10585ec392f89,626b37e70fe71dd1d7a41551,,,,,,,,,,,,,,,,,,,,,,,l,1,1.0709,"[""0.108"",""0.323"",""0.616"",""0.700""]","[1,1,0,1]",0,20,20,20,1,1,1,,,0,FALSE,,,,,,,,,,,,,,,,,,,,,,,,,,,,,,
,5f24db32bb18c511736499f8,001,2022-04-28_19h59.34.609,classification_task,2021.2.3,Win32,60.07449237,5f24db32bb18c511736499f8,626b377229c10585ec392f89,626b37e70fe71dd1d7a41551,,,,,,,,,,,,,,,,,,,,,,,a,0,0.6572,"[""0.108"",""0.323"",""0.466"",""0.621""]","[1,1,1,0]",0,21,21,21,1,1,1,,,0,FALSE,,,,,,,,,,,,,,,,,,,,,,,,,,,,,,
,5f24db32bb18c511736499f8,001,2022-04-28_19h59.34.609,classification_task,2021.2.3,Win32,60.07449237,5f24db32bb18c511736499f8,626b377229c10585ec392f89,626b37e70fe71dd1d7a41551,,,,,,,,,,,,,,,,,,,,,,,l,0,1.2702,"[""0.196"",""0.145"",""0.840"",""0.874""]","[1,0,1,1]",0,22,22,22,1,0,0,,,0,FALSE,,,,,,,,,,,,,,,,,,,,,,,,,,,,,,
,5f24db32bb18c511736499f8,001,2022-04-28_19h59.34.609,classification_task,2021.2.3,Win32,60.07449237,5f24db32bb18c511736499f8,626b377229c10585ec392f89,626b37e70fe71dd1d7a41551,,,,,,,,,,,,,,,,,,,,,,,l,0,0.8223,"[""0.616"",""0.513"",""0.840"",""0.874""]","[0,1,1,1]",0,23,23,23,1,0,0,,,0,FALSE,,,,,,,,,,,,,,,,,,,,,,,,,,,,,,
,5f24db32bb18c511736499f8,001,2022-04-28_19h59.34.609,classification_task,2021.2.3,Win32,60.07449237,5f24db32bb18c511736499f8,626b377229c10585ec392f89,626b37e70fe71dd1d7a41551,,,,,,,,,,,,,,,,,,,,,,,a,0,1.127,"[""0.108"",""0.645"",""0.466"",""0.700""]","[1,0,1,1]",0,24,24,24,1,1,1,,,0,FALSE,,,,,,,,,,,,,,,,,,,,,,,,,,,,,,
,5f24db32bb18c511736499f8,001,2022-04-28_19h59.34.609,classification_task,2021.2.3,Win32,60.07449237,5f24db32bb18c511736499f8,626b377229c10585ec392f89,626b37e70fe71dd1d7a41551,,,,,,,,,,,,,,,,,,,,,,,l,0,0.9348,"[""0.285"",""0.394"",""0.151"",""0.940""]","[1,1,0,1]",0,25,25,25,1,0,1,,,0,FALSE,,,,,,,,,,,,,,,,,,,,,,,,,,,,,,
,5f24db32bb18c511736499f8,001,2022-04-28_19h59.34.609,classification_task,2021.2.3,Win32,60.07449237,5f24db32bb18c511736499f8,626b377229c10585ec392f89,626b37e70fe71dd1d7a41551,,,,,,,,,,,,,,,,,,,,,,,a,1,0.9409,"[""0.285"",""0.394"",""0.739"",""0.644""]","[1,1,1,0]",0,26,26,26,1,0,1,,,0,FALSE,,,,,,,,,,,,,,,,,,,,,,,,,,,,,,
,5f24db32bb18c511736499f8,001,2022-04-28_19h59.34.609,classification_task,2021.2.3,Win32,60.07449237,5f24db32bb18c511736499f8,626b377229c10585ec392f89,626b37e70fe71dd1d7a41551,,,,,,,,,,,,,,,,,,,,,,,l,1,0.8027,"[""0.359"",""0.247"",""0.578"",""0.800""]","[0,1,1,1]",0,27,27,27,1,1,0,,,0,FALSE,,,,,,,,,,,,,,,,,,,,,,,,,,,,,,
,5f24db32bb18c511736499f8,001,2022-04-28_19h59.34.609,classification_task,2021.2.3,Win32,60.07449237,5f24db32bb18c511736499f8,626b377229c10585ec392f89,626b37e70fe71dd1d7a41551,,,,,,,,,,,,,,,,,,,,,,,a,1,0.5943,"[""0.285"",""0.146"",""0.739"",""0.940""]","[1,0,1,1]",0,28,28,28,1,0,1,,,0,FALSE,,,,,,,,,,,,,,,,,,,,,,,,,,,,,,
,5f24db32bb18c511736499f8,001,2022-04-28_19h59.34.609,classification_task,2021.2.3,Win32,60.07449237,5f24db32bb18c511736499f8,626b377229c10585ec392f89,626b37e70fe71dd1d7a41551,,,,,,,,,,,,,,,,,,,,,,,a,0,0.502,"[""0.054"",""0.247"",""0.646"",""0.800""]","[1,1,0,1]",0,29,29,29,1,1,0,,,0,FALSE,,,,,,,,,,,,,,,,,,,,,,,,,,,,,,
,5f24db32bb18c511736499f8,001,2022-04-28_19h59.34.609,classification_task,2021.2.3,Win32,60.07449237,5f24db32bb18c511736499f8,626b377229c10585ec392f89,626b37e70fe71dd1d7a41551,,,,,,,,,,,,,,,,,,,,,,,a,1,1.5414,"[""0.636"",""0.394"",""0.739"",""0.940""]","[0,1,1,1]",0,30,30,30,1,0,1,,,0,FALSE,,,,,,,,,,,,,,,,,,,,,,,,,,,,,,
,5f24db32bb18c511736499f8,001,2022-04-28_19h59.34.609,classification_task,2021.2.3,Win32,60.07449237,5f24db32bb18c511736499f8,626b377229c10585ec392f89,626b37e70fe71dd1d7a41551,,,,,,,,,,,,,,,,,,,,,,,a,1,0.7865,"[""0.196"",""0.513"",""0.840"",""0.644""]","[1,1,1,0]",0,31,31,31,1,0,0,,,0,FALSE,,,,,,,,,,,,,,,,,,,,,,,,,,,,,,
,5f24db32bb18c511736499f8,001,2022-04-28_19h59.34.609,classification_task,2021.2.3,Win32,60.07449237,5f24db32bb18c511736499f8,626b377229c10585ec392f89,626b37e70fe71dd1d7a41551,,,,,,,,,,,,,,,,,,,,,,,a,1,0.8671,"[""0.664"",""0.394"",""0.739"",""0.940""]","[0,1,1,1]",0,32,32,32,1,0,1,,,0,FALSE,,,,,,,,,,,,,,,,,,,,,,,,,,,,,,
,5f24db32bb18c511736499f8,001,2022-04-28_19h59.34.609,classification_task,2021.2.3,Win32,60.07449237,5f24db32bb18c511736499f8,626b377229c10585ec392f89,626b37e70fe71dd1d7a41551,,,,,,,,,,,,,,,,,,,,,,,a,1,0.6533,"[""0.196"",""0.513"",""0.840"",""0.621""]","[1,1,1,0]",0,33,33,33,1,0,0,,,0,FALSE,,,,,,,,,,,,,,,,,,,,,,,,,,,,,,
,5f24db32bb18c511736499f8,001,2022-04-28_19h59.34.609,classification_task,2021.2.3,Win32,60.07449237,5f24db32bb18c511736499f8,626b377229c10585ec392f89,626b37e70fe71dd1d7a41551,,,,,,,,,,,,,,,,,,,,,,,l,1,0.6755,"[""0.054"",""0.247"",""0.578"",""0.614""]","[1,1,1,0]",0,34,34,34,1,1,0,,,0,FALSE,,,,,,,,,,,,,,,,,,,,,,,,,,,,,,
,5f24db32bb18c511736499f8,001,2022-04-28_19h59.34.609,classification_task,2021.2.3,Win32,60.07449237,5f24db32bb18c511736499f8,626b377229c10585ec392f89,626b37e70fe71dd1d7a41551,,,,,,,,,,,,,,,,,,,,,,,l,1,0.387,"[""0.108"",""0.644"",""0.466"",""0.700""]","[1,0,1,1]",0,35,35,35,1,1,1,,,0,FALSE,,,,,,,,,,,,,,,,,,,,,,,,,,,,,,
,5f24db32bb18c511736499f8,001,2022-04-28_19h59.34.609,classification_task,2021.2.3,Win32,60.07449237,5f24db32bb18c511736499f8,626b377229c10585ec392f89,626b37e70fe71dd1d7a41551,,,,,,,,,,,,,,,,,,,,,,,l,0,0.6704,"[""0.285"",""0.636"",""0.739"",""0.940""]","[1,0,1,1]",0,36,36,36,1,0,1,,,0,FALSE,,,,,,,,,,,,,,,,,,,,,,,,,,,,,,
,5f24db32bb18c511736499f8,001,2022-04-28_19h59.34.609,classification_task,2021.2.3,Win32,60.07449237,5f24db32bb18c511736499f8,626b377229c10585ec392f89,626b37e70fe71dd1d7a41551,,,,,,,,,,,,,,,,,,,,,,,l,0,0.5194,"[""0.196"",""0.146"",""0.840"",""0.874""]","[1,0,1,1]",0,37,37,37,1,0,0,,,0,FALSE,,,,,,,,,,,,,,,,,,,,,,,,,,,,,,
,5f24db32bb18c511736499f8,001,2022-04-28_19h59.34.609,classification_task,2021.2.3,Win32,60.07449237,5f24db32bb18c511736499f8,626b377229c10585ec392f89,626b37e70fe71dd1d7a41551,,,,,,,,,,,,,,,,,,,,,,,l,1,1.5737,"[""0.054"",""0.645"",""0.578"",""0.800""]","[1,0,1,1]",0,38,38,38,1,1,0,,,0,FALSE,,,,,,,,,,,,,,,,,,,,,,,,,,,,,,
,5f24db32bb18c511736499f8,001,2022-04-28_19h59.34.609,classification_task,2021.2.3,Win32,60.07449237,5f24db32bb18c511736499f8,626b377229c10585ec392f89,626b37e70fe71dd1d7a41551,,,,,,,,,,,,,,,,,,,,,,,a,1,1.184,"[""0.285"",""0.394"",""0.739"",""0.664""]","[1,1,1,0]",0,39,39,39,1,0,1,,,0,FALSE,,,,,,,,,,,,,,,,,,,,,,,,,,,,,,
,5f24db32bb18c511736499f8,001,2022-04-28_19h59.34.609,classification_task,2021.2.3,Win32,60.07449237,5f24db32bb18c511736499f8,626b377229c10585ec392f89,626b37e70fe71dd1d7a41551,,,,,,,,,,,,,,,,,,,,,,,l,1,0.2872,"[""0.108"",""0.323"",""0.614"",""0.700""]","[1,1,0,1]",0,40,40,40,1,1,1,,,0,FALSE,,,,,,,,,,,,,,,,,,,,,,,,,,,,,,
,5f24db32bb18c511736499f8,001,2022-04-28_19h59.34.609,classification_task,2021.2.3,Win32,60.07449237,5f24db32bb18c511736499f8,626b377229c10585ec392f89,626b37e70fe71dd1d7a41551,,,,,,,,,,,,,,,,,,,,,,,l,0,0.6508,"[""0.196"",""0.513"",""0.156"",""0.874""]","[1,1,0,1]",0,41,41,41,1,0,0,,,0,FALSE,,,,,,,,,,,,,,,,,,,,,,,,,,,,,,
,5f24db32bb18c511736499f8,001,2022-04-28_19h59.34.609,classification_task,2021.2.3,Win32,60.07449237,5f24db32bb18c511736499f8,626b377229c10585ec392f89,626b37e70fe71dd1d7a41551,,,,,,,,,,,,,,,,,,,,,,,l,0,0.8536,"[""0.154"",""0.513"",""0.840"",""0.874""]","[0,1,1,1]",0,42,42,42,1,0,0,,,0,FALSE,,,,,,,,,,,,,,,,,,,,,,,,,,,,,,
,5f24db32bb18c511736499f8,001,2022-04-28_19h59.34.609,classification_task,2021.2.3,Win32,60.07449237,5f24db32bb18c511736499f8,626b377229c10585ec392f89,626b37e70fe71dd1d7a41551,,,,,,,,,,,,,,,,,,,,,,,l,1,0.6675,"[""0.621"",""0.323"",""0.466"",""0.700""]","[0,1,1,1]",0,43,43,43,1,1,1,,,0,FALSE,,,,,,,,,,,,,,,,,,,,,,,,,,,,,,
,5f24db32bb18c511736499f8,001,2022-04-28_19h59.34.609,classification_task,2021.2.3,Win32,60.07449237,5f24db32bb18c511736499f8,626b377229c10585ec392f89,626b37e70fe71dd1d7a41551,,,,,,,,,,,,,,,,,,,,,,,l,1,0.7838,"[""0.108"",""0.323"",""0.466"",""0.154""]","[1,1,1,0]",0,44,44,44,1,1,1,,,0,FALSE,,,,,,,,,,,,,,,,,,,,,,,,,,,,,,
,5f24db32bb18c511736499f8,001,2022-04-28_19h59.34.609,classification_task,2021.2.3,Win32,60.07449237,5f24db32bb18c511736499f8,626b377229c10585ec392f89,626b37e70fe71dd1d7a41551,,,,,,,,,,,,,,,,,,,,,,,a,0,0.6699,"[""0.054"",""0.247"",""0.621"",""0.800""]","[1,1,0,1]",0,45,45,45,1,1,0,,,0,FALSE,,,,,,,,,,,,,,,,,,,,,,,,,,,,,,
,5f24db32bb18c511736499f8,001,2022-04-28_19h59.34.609,classification_task,2021.2.3,Win32,60.07449237,5f24db32bb18c511736499f8,626b377229c10585ec392f89,626b37e70fe71dd1d7a41551,,,,,,,,,,,,,,,,,,,,,,,l,0,0.7676,"[""0.285"",""0.394"",""0.145"",""0.940""]","[1,1,0,1]",0,46,46,46,1,0,1,,,0,FALSE,,,,,,,,,,,,,,,,,,,,,,,,,,,,,,
,5f24db32bb18c511736499f8,001,2022-04-28_19h59.34.609,classification_task,2021.2.3,Win32,60.07449237,5f24db32bb18c511736499f8,626b377229c10585ec392f89,626b37e70fe71dd1d7a41551,,,,,,,,,,,,,,,,,,,,,,,l,1,0.83,"[""0.621"",""0.247"",""0.578"",""0.800""]","[0,1,1,1]",0,47,47,47,1,1,0,,,0,FALSE,,,,,,,,,,,,,,,,,,,,,,,,,,,,,,
,5f24db32bb18c511736499f8,001,2022-04-28_19h59.34.609,classification_task,2021.2.3,Win32,60.07449237,5f24db32bb18c511736499f8,626b377229c10585ec392f89,626b37e70fe71dd1d7a41551,,,,,,,,,,,,,,,,,,,,,,,a,1,1.0287,"[""0.285"",""0.146"",""0.739"",""0.940""]","[1,0,1,1]",0,48,48,48,1,0,1,,,0,FALSE,,,,,,,,,,,,,,,,,,,,,,,,,,,,,,
,5f24db32bb18c511736499f8,001,2022-04-28_19h59.34.609,classification_task,2021.2.3,Win32,60.07449237,5f24db32bb18c511736499f8,626b377229c10585ec392f89,626b37e70fe71dd1d7a41551,,,,,,,,,,,,,,,,,,,,,,,a,1,0.6106,"[""0.629"",""0.394"",""0.739"",""0.940""]","[0,1,1,1]",0,49,49,49,1,0,1,,,0,FALSE,,,,,,,,,,,,,,,,,,,,,,,,,,,,,,
,5f24db32bb18c511736499f8,001,2022-04-28_19h59.34.609,classification_task,2021.2.3,Win32,60.07449237,5f24db32bb18c511736499f8,626b377229c10585ec392f89,626b37e70fe71dd1d7a41551,,,,,,,,,,,,,,,,,,,,,,,a,1,0.668,"[""0.285"",""0.394"",""0.739"",""0.664""]","[1,1,1,0]",0,50,50,50,1,0,1,,,0,FALSE,,,,,,,,,,,,,,,,,,,,,,,,,,,,,,
,5f24db32bb18c511736499f8,001,2022-04-28_19h59.34.609,classification_task,2021.2.3,Win32,60.07449237,5f24db32bb18c511736499f8,626b377229c10585ec392f89,626b37e70fe71dd1d7a41551,,,,,,,,,,,,,,,,,,,,,,,a,1,0.6674,"[""0.196"",""0.513"",""0.629"",""0.874""]","[1,1,0,1]",0,51,51,51,1,0,0,,,0,FALSE,,,,,,,,,,,,,,,,,,,,,,,,,,,,,,
,5f24db32bb18c511736499f8,001,2022-04-28_19h59.34.609,classification_task,2021.2.3,Win32,60.07449237,5f24db32bb18c511736499f8,626b377229c10585ec392f89,626b37e70fe71dd1d7a41551,,,,,,,,,,,,,,,,,,,,,,,l,1,0.7061,"[""0.054"",""0.247"",""0.578"",""0.146""]","[1,1,1,0]",0,52,52,52,1,1,0,,,0,FALSE,,,,,,,,,,,,,,,,,,,,,,,,,,,,,,
,5f24db32bb18c511736499f8,001,2022-04-28_19h59.34.609,classification_task,2021.2.3,Win32,60.07449237,5f24db32bb18c511736499f8,626b377229c10585ec392f89,626b37e70fe71dd1d7a41551,,,,,,,,,,,,,,,,,,,,,,,a,0,0.6016,"[""0.054"",""0.247"",""0.616"",""0.800""]","[1,1,0,1]",0,53,53,53,1,1,0,,,0,FALSE,,,,,,,,,,,,,,,,,,,,,,,,,,,,,,
,5f24db32bb18c511736499f8,001,2022-04-28_19h59.34.609,classification_task,2021.2.3,Win32,60.07449237,5f24db32bb18c511736499f8,626b377229c10585ec392f89,626b37e70fe71dd1d7a41551,,,,,,,,,,,,,,,,,,,,,,,l,1,0.6107,"[""0.108"",""0.634"",""0.466"",""0.700""]","[1,0,1,1]",0,54,54,54,1,1,1,,,0,FALSE,,,,,,,,,,,,,,,,,,,,,,,,,,,,,,
,5f24db32bb18c511736499f8,001,2022-04-28_19h59.34.609,classification_task,2021.2.3,Win32,60.07449237,5f24db32bb18c511736499f8,626b377229c10585ec392f89,626b37e70fe71dd1d7a41551,,,,,,,,,,,,,,,,,,,,,,,a,1,0.7781,"[""0.196"",""0.146"",""0.840"",""0.874""]","[1,0,1,1]",0,55,55,55,1,0,0,,,0,FALSE,,,,,,,,,,,,,,,,,,,,,,,,,,,,,,
,5f24db32bb18c511736499f8,001,2022-04-28_19h59.34.609,classification_task,2021.2.3,Win32,60.07449237,5f24db32bb18c511736499f8,626b377229c10585ec392f89,626b37e70fe71dd1d7a41551,,,,,,,,,,,,,,,,,,,,,,,a,0,0.6343,"[""0.108"",""0.323"",""0.466"",""0.646""]","[1,1,1,0]",0,56,56,56,1,1,1,,,0,FALSE,,,,,,,,,,,,,,,,,,,,,,,,,,,,,,
,5f24db32bb18c511736499f8,001,2022-04-28_19h59.34.609,classification_task,2021.2.3,Win32,60.07449237,5f24db32bb18c511736499f8,626b377229c10585ec392f89,626b37e70fe71dd1d7a41551,,,,,,,,,,,,,,,,,,,,,,,l,0,0.7231,"[""0.285"",""0.394"",""0.664"",""0.940""]","[1,1,0,1]",0,57,57,57,1,0,1,,,0,FALSE,,,,,,,,,,,,,,,,,,,,,,,,,,,,,,
,5f24db32bb18c511736499f8,001,2022-04-28_19h59.34.609,classification_task,2021.2.3,Win32,60.07449237,5f24db32bb18c511736499f8,626b377229c10585ec392f89,626b37e70fe71dd1d7a41551,,,,,,,,,,,,,,,,,,,,,,,l,0,0.6427,"[""0.196"",""0.513"",""0.840"",""0.156""]","[1,1,1,0]",0,58,58,58,1,0,0,,,0,FALSE,,,,,,,,,,,,,,,,,,,,,,,,,,,,,,
,5f24db32bb18c511736499f8,001,2022-04-28_19h59.34.609,classification_task,2021.2.3,Win32,60.07449237,5f24db32bb18c511736499f8,626b377229c10585ec392f89,626b37e70fe71dd1d7a41551,,,,,,,,,,,,,,,,,,,,,,,l,1,0.6797,"[""0.156"",""0.247"",""0.578"",""0.800""]","[0,1,1,1]",0,59,59,59,1,1,0,,,0,FALSE,,,,,,,,,,,,,,,,,,,,,,,,,,,,,,
,5f24db32bb18c511736499f8,001,2022-04-28_19h59.34.609,classification_task,2021.2.3,Win32,60.07449237,5f24db32bb18c511736499f8,626b377229c10585ec392f89,626b37e70fe71dd1d7a41551,,,,,,,,,,,,,,,,,,,,,,,a,0,0.4921,"[""0.156"",""0.323"",""0.466"",""0.700""]","[0,1,1,1]",0,60,60,60,1,1,1,,,0,FALSE,,,,,,,,,,,,,,,,,,,,,,,,,,,,,,
,5f24db32bb18c511736499f8,001,2022-04-28_19h59.34.609,classification_task,2021.2.3,Win32,60.07449237,5f24db32bb18c511736499f8,626b377229c10585ec392f89,626b37e70fe71dd1d7a41551,,,,,,,,,,,,,,,,,,,,,,,a,0,1.0225,"[""0.108"",""0.323"",""0.614"",""0.700""]","[1,1,0,1]",0,61,61,61,1,1,1,,,0,FALSE,,,,,,,,,,,,,,,,,,,,,,,,,,,,,,
,5f24db32bb18c511736499f8,001,2022-04-28_19h59.34.609,classification_task,2021.2.3,Win32,60.07449237,5f24db32bb18c511736499f8,626b377229c10585ec392f89,626b37e70fe71dd1d7a41551,,,,,,,,,,,,,,,,,,,,,,,l,1,0.7791,"[""0.054"",""0.645"",""0.578"",""0.800""]","[1,0,1,1]",0,62,62,62,1,1,0,,,0,FALSE,,,,,,,,,,,,,,,,,,,,,,,,,,,,,,
,5f24db32bb18c511736499f8,001,2022-04-28_19h59.34.609,classification_task,2021.2.3,Win32,60.07449237,5f24db32bb18c511736499f8,626b377229c10585ec392f89,626b37e70fe71dd1d7a41551,,,,,,,,,,,,,,,,,,,,,,,l,0,0.9844,"[""0.154"",""0.513"",""0.840"",""0.874""]","[0,1,1,1]",0,63,63,63,1,0,0,,,0,FALSE,,,,,,,,,,,,,,,,,,,,,,,,,,,,,,
,5f24db32bb18c511736499f8,001,2022-04-28_19h59.34.609,classification_task,2021.2.3,Win32,60.07449237,5f24db32bb18c511736499f8,626b377229c10585ec392f89,626b37e70fe71dd1d7a41551,,,,,,,,,,,,,,,,,,,,,,,,,,,,,,,,,,,,,,,0, ,,0,6.396237507,134.7807,0,2,2,2,1,2,3,,,,,,,,,,,,,,,,,
,5f24db32bb18c511736499f8,001,2022-04-28_19h59.34.609,classification_task,2021.2.3,Win32,60.07449237,5f24db32bb18c511736499f8,626b377229c10585ec392f89,626b37e70fe71dd1d7a41551,,,,,,,,,,,,,,,,,,,,,,,,,,,,,,,,,,,,,,,1,  ,,0,10,136.4169,0,2,2,2,1,2,3,,,,,,,,,,,,,,,,,
,5f24db32bb18c511736499f8,001,2022-04-28_19h59.34.609,classification_task,2021.2.3,Win32,60.07449237,5f24db32bb18c511736499f8,626b377229c10585ec392f89,626b37e70fe71dd1d7a41551,,,,,,,,,,,,,,,,,,,,,,,,,,,,,,,,,,,,,,,2,  ,,0,10,139.9335,0,2,2,2,1,2,3,,,,,,,,,,,,,,,,,
,5f24db32bb18c511736499f8,001,2022-04-28_19h59.34.609,classification_task,2021.2.3,Win32,60.07449237,5f24db32bb18c511736499f8,626b377229c10585ec392f89,626b37e70fe71dd1d7a41551,,,,,,,,,,,,,,,,,,,,,,,,,,,,,,,,,,,,,,,,,,,,,0,2,2,2,1,,3,,,,,,,,,,,,,,,,,
,5f24db32bb18c511736499f8,001,2022-04-28_19h59.34.609,classification_task,2021.2.3,Win32,60.07449237,5f24db32bb18c511736499f8,626b377229c10585ec392f89,626b37e70fe71dd1d7a41551,,,,,,,,,,,,,,,,,,,,,,,,,,,,,,,,,,,,,,,,,,,,,,,,,,,,,I believe the aid is a competent performer,,0.7,0,5,762.5724,0,0,0,0,1,0,,,,
,5f24db32bb18c511736499f8,001,2022-04-28_19h59.34.609,classification_task,2021.2.3,Win32,60.07449237,5f24db32bb18c511736499f8,626b377229c10585ec392f89,626b37e70fe71dd1d7a41551,,,,,,,,,,,,,,,,,,,,,,,,,,,,,,,,,,,,,,,,,,,,,,,,,,,,,I trust the aid,,0.7,0,5,763.9159,0,0,0,0,1,0,,,,
,5f24db32bb18c511736499f8,001,2022-04-28_19h59.34.609,classification_task,2021.2.3,Win32,60.07449237,5f24db32bb18c511736499f8,626b377229c10585ec392f89,626b37e70fe71dd1d7a41551,,,,,,,,,,,,,,,,,,,,,,,,,,,,,,,,,,,,,,,,,,,,,,,,,,,,,I have confidence in the advice given by the aid,,0.7,0,5,766.2319,0,0,0,0,1,0,,,,
,5f24db32bb18c511736499f8,001,2022-04-28_19h59.34.609,classification_task,2021.2.3,Win32,60.07449237,5f24db32bb18c511736499f8,626b377229c10585ec392f89,626b37e70fe71dd1d7a41551,,,,,,,,,,,,,,,,,,,,,,,,,,,,,,,,,,,,,,,,,,,,,,,,,,,,,I can depend on the aid,,0.7,0,5,769.9025,0,0,0,0,1,0,,,,
,5f24db32bb18c511736499f8,001,2022-04-28_19h59.34.609,classification_task,2021.2.3,Win32,60.07449237,5f24db32bb18c511736499f8,626b377229c10585ec392f89,626b37e70fe71dd1d7a41551,,,,,,,,,,,,,,,,,,,,,,,,,,,,,,,,,,,,,,,,,,,,,,,,,,,,,I can rely on the aid to behave in consistent ways,,0.7,0,5,772.3628,0,0,0,0,1,0,,,,
,5f24db32bb18c511736499f8,001,2022-04-28_19h59.34.609,classification_task,2021.2.3,Win32,60.07449237,5f24db32bb18c511736499f8,626b377229c10585ec392f89,626b37e70fe71dd1d7a41551,,,,,,,,,,,,,,,,,,,,,,,,,,,,,,,,,,,,,,,,,,,,,,,,,,,,,I can rely on the aid to do its best every time I take its advice,,0.7,0,5,775.8336,0,0,0,0,1,0,,,,
,5f24db32bb18c511736499f8,001,2022-04-28_19h59.34.609,classification_task,2021.2.3,Win32,60.07449237,5f24db32bb18c511736499f8,626b377229c10585ec392f89,626b37e70fe71dd1d7a41551,,,,,,,,,,,,,,,,,,,,,,,,,,,,,,,,,,,,,,,,,,,,,,,,,,,,,"On trials you completed with assistance from the aid, how frequently did you think the aid was correct?",,0.7,0,100%,,0,0,0,0,1,0,,,,
,5f24db32bb18c511736499f8,001,2022-04-28_19h59.34.609,classification_task,2021.2.3,Win32,60.07449237,5f24db32bb18c511736499f8,626b377229c10585ec392f89,626b37e70fe71dd1d7a41551,,,,,,,,,,,,,,,,,,,,,,,,,,,,,,,,,,,,,,,,,,,,,,,,,,,,,"On trials you completed without the aid, how frequently did you think you were correct?",,0.7,0,60%,,0,0,0,0,1,0,,,,
,5f24db32bb18c511736499f8,001,2022-04-28_19h59.34.609,classification_task,2021.2.3,Win32,60.07449237,5f24db32bb18c511736499f8,626b377229c10585ec392f89,626b37e70fe71dd1d7a41551,,,,,,,,,,,,,,,,,,,,,,,,,,,,,,,,,,,,,,,,,,,,,,,,,,,,,,,,,,,0,0,0,0,1,,,,,
,5f24db32bb18c511736499f8,001,2022-04-28_19h59.34.609,classification_task,2021.2.3,Win32,60.07449237,5f24db32bb18c511736499f8,626b377229c10585ec392f89,626b37e70fe71dd1d7a41551,,,,,,,,,,,,,,,,,,,,,,,,,,,,,,,,,,,,,,,,,,,,,,,,,,,,,,,,,,,,,,,,,space,16.4663,813.187,
,5f24db32bb18c511736499f8,001,2022-04-28_19h59.34.609,classification_task,2021.2.3,Win32,60.07449237,5f24db32bb18c511736499f8,626b377229c10585ec392f89,626b37e70fe71dd1d7a41551,,,,,,,,,,,,,,,,,,,,,,,,,,,,,,,,,,,,,,,,,,,,,,,,,,,,,,,,,,,,,,,,,,,,"Mozilla/5.0 (Windows NT 10.0; Win64; x64) AppleWebKit/537.36 (KHTML, like Gecko) Chrome/99.0.4844.84 Safari/537.36 OPR/85.0.4341.72"
