usingWebGL,participant,session,date,expName,psychopyVersion,OS,frameRate,PROLIFIC_PID,STUDY_ID,SESSION_ID,signatures_friend,signatures_foe,band_ranges_top,band_ranges_bottom,formitemText,formtype,formundefined,formitemWidth,formindex,formresponse,formrt,key_resp_2.keys,key_resp_2.rt,tute_resp.keys,tute_resp.rt,tutorial.thisRepN,tutorial.thisTrialN,tutorial.thisN,tutorial.thisIndex,tutorial.ran,key_resp_4.keys,key_resp_4.rt,key_resp.keys,key_resp.corr,key_resp.rt,lines_presented,is_signal_presented,trials.thisRepN,trials.thisTrialN,trials.thisN,trials.thisIndex,trials.ran,vessel,active_band,lines,is_signal,supported_pos,catch_trial,debrief_formindex,debrief_formitemText,debrief_formtype,debrief_formitemWidth,debrief_formresponse,debrief_formrt,phases.thisRepN,phases.thisTrialN,phases.thisN,phases.thisIndex,phases.ran,phases.order,phase,key_resp_3.keys,trustitemText,trusttype,trustitemWidth,trustindex,trustresponse,trustrt,support_status.thisRepN,support_status.thisTrialN,support_status.thisN,support_status.thisIndex,support_status.ran,support_status.order,key_resp_5.keys,key_resp_5.rt,globalClockTime,userAgent
TRUE,5f24891abbc6190706421642,001,2022-04-28_20h13.37.272,classification_task,2021.2.3,MacIntel,59.97361161,5f24891abbc6190706421642,626b377229c10585ec392f89,626b3b16b635dd57debdebf7,,,,,,,,,,,,,,,,,,,,,,,,,,,,,,,,,,,,,,,,,,,,,,,,,,,,,,,,,,,,,,,,,,,,
,5f24891abbc6190706421642,001,2022-04-28_20h13.37.272,classification_task,2021.2.3,MacIntel,59.97361161,5f24891abbc6190706421642,626b377229c10585ec392f89,626b3b16b635dd57debdebf7,"[[""0.195"",""0.490"",""0.824"",""0.965""],[""0.317"",""0.538"",""0.859"",""0.896""]]","[[""0.142"",""0.271"",""0.630"",""0.777""],[""0.058"",""0.235"",""0.666"",""0.700""]]","[1,10]","[100,1000]",Video game experience,,,0.7,0,,,,,,,,,,,,,,,,,,,,,,,,,,,,,,,,,,,,,,,,,,,,,,,,,,,,,,,,,,,
,5f24891abbc6190706421642,001,2022-04-28_20h13.37.272,classification_task,2021.2.3,MacIntel,59.97361161,5f24891abbc6190706421642,626b377229c10585ec392f89,626b3b16b635dd57debdebf7,,,,,Approximately how many hours did you spend playing video games in the last week?,,,0.7,0,1,,,,,,,,,,,,,,,,,,,,,,,,,,,,,,,,,,,,,,,,,,,,,,,,,,,,,,,,,,
,5f24891abbc6190706421642,001,2022-04-28_20h13.37.272,classification_task,2021.2.3,MacIntel,59.97361161,5f24891abbc6190706421642,626b377229c10585ec392f89,626b3b16b635dd57debdebf7,,,,,"Which game did you play the most this year? (Enter ""None"" if you didn't play any)",,,0.7,0,crash bandicoot,,,,,,,,,,,,,,,,,,,,,,,,,,,,,,,,,,,,,,,,,,,,,,,,,,,,,,,,,,
,5f24891abbc6190706421642,001,2022-04-28_20h13.37.272,classification_task,2021.2.3,MacIntel,59.97361161,5f24891abbc6190706421642,626b377229c10585ec392f89,626b3b16b635dd57debdebf7,,,,,Visual perception,,,0.7,0,,,,,,,,,,,,,,,,,,,,,,,,,,,,,,,,,,,,,,,,,,,,,,,,,,,,,,,,,,,
,5f24891abbc6190706421642,001,2022-04-28_20h13.37.272,classification_task,2021.2.3,MacIntel,59.97361161,5f24891abbc6190706421642,626b377229c10585ec392f89,626b3b16b635dd57debdebf7,,,,,Do you have any form of color blindness?,,,0.7,0,No,25.9073,,,,,,,,,,,,,,,,,,,,,,,,,,,,,,,,,,,,,,,,,,,,,,,,,,,,,,,,,
,5f24891abbc6190706421642,001,2022-04-28_20h13.37.272,classification_task,2021.2.3,MacIntel,59.97361161,5f24891abbc6190706421642,626b377229c10585ec392f89,626b3b16b635dd57debdebf7,,,,,Do you use software to change the colour temperature of your screen (e.g. f.lux)?,,,0.7,0,No,49.1512,,,,,,,,,,,,,,,,,,,,,,,,,,,,,,,,,,,,,,,,,,,,,,,,,,,,,,,,,
,5f24891abbc6190706421642,001,2022-04-28_20h13.37.272,classification_task,2021.2.3,MacIntel,59.97361161,5f24891abbc6190706421642,626b377229c10585ec392f89,626b3b16b635dd57debdebf7,,,,,,,,,,,,space,31.402,space,24.9063,0,0,0,0,1,,,,,,,,,,,,,,,,,,,,,,,,,,,,,,,,,,,,,,,,,,,,,,,,
,5f24891abbc6190706421642,001,2022-04-28_20h13.37.272,classification_task,2021.2.3,MacIntel,59.97361161,5f24891abbc6190706421642,626b377229c10585ec392f89,626b3b16b635dd57debdebf7,,,,,,,,,,,,,,space,18.9263,1,0,1,0,1,,,,,,,,,,,,,,,,,,,,,,,,,,,,,,,,,,,,,,,,,,,,,,,,
,5f24891abbc6190706421642,001,2022-04-28_20h13.37.272,classification_task,2021.2.3,MacIntel,59.97361161,5f24891abbc6190706421642,626b377229c10585ec392f89,626b3b16b635dd57debdebf7,,,,,,,,,,,,,,space,41.9695,2,0,2,0,1,,,,,,,,,,,,,,,,,,,,,,,,,,,,,,,,,,,,,,,,,,,,,,,,
,5f24891abbc6190706421642,001,2022-04-28_20h13.37.272,classification_task,2021.2.3,MacIntel,59.97361161,5f24891abbc6190706421642,626b377229c10585ec392f89,626b3b16b635dd57debdebf7,,,,,,,,,,,,,,space,28.7914,3,0,3,0,1,,,,,,,,,,,,,,,,,,,,,,,,,,,,,,,,,,,,,,,,,,,,,,,,
,5f24891abbc6190706421642,001,2022-04-28_20h13.37.272,classification_task,2021.2.3,MacIntel,59.97361161,5f24891abbc6190706421642,626b377229c10585ec392f89,626b3b16b635dd57debdebf7,,,,,,,,,,,,,,space,77.4678,4,0,4,0,1,,,,,,,,,,,,,,,,,,,,,,,,,,,,,,,,,,,,,,,,,,,,,,,,
,5f24891abbc6190706421642,001,2022-04-28_20h13.37.272,classification_task,2021.2.3,MacIntel,59.97361161,5f24891abbc6190706421642,626b377229c10585ec392f89,626b3b16b635dd57debdebf7,,,,,,,,,,,,,,,,,,,,,space,69.131,l,1,4.5459,"[""0.058"",""0.235"",""0.409"",""0.700""]","[1,1,0,1]",0,0,0,0,1,1,1,,,1,FALSE,,,,,,,,,,,,,,,,,,,,,,,,,,,,,,
,5f24891abbc6190706421642,001,2022-04-28_20h13.37.272,classification_task,2021.2.3,MacIntel,59.97361161,5f24891abbc6190706421642,626b377229c10585ec392f89,626b3b16b635dd57debdebf7,,,,,,,,,,,,,,,,,,,,,,,,0,,"[""0.142"",""0.578"",""0.630"",""0.777""]","[1,0,1,1]",0,1,1,1,1,1,0,,,1,FALSE,,,,,,,,,,,,,,,,,,,,,,,,,,,,,,
,5f24891abbc6190706421642,001,2022-04-28_20h13.37.272,classification_task,2021.2.3,MacIntel,59.97361161,5f24891abbc6190706421642,626b377229c10585ec392f89,626b3b16b635dd57debdebf7,,,,,,,,,,,,,,,,,,,,,,,a,1,6.3893,"[""0.588"",""0.490"",""0.824"",""0.965""]","[0,1,1,1]",0,2,2,2,1,0,0,,,1,FALSE,,,,,,,,,,,,,,,,,,,,,,,,,,,,,,
,5f24891abbc6190706421642,001,2022-04-28_20h13.37.272,classification_task,2021.2.3,MacIntel,59.97361161,5f24891abbc6190706421642,626b377229c10585ec392f89,626b3b16b635dd57debdebf7,,,,,,,,,,,,,,,,,,,,,,,a,1,3.5364,"[""0.317"",""0.409"",""0.859"",""0.896""]","[1,0,1,1]",0,3,3,3,1,0,1,,,1,FALSE,,,,,,,,,,,,,,,,,,,,,,,,,,,,,,
,5f24891abbc6190706421642,001,2022-04-28_20h13.37.272,classification_task,2021.2.3,MacIntel,59.97361161,5f24891abbc6190706421642,626b377229c10585ec392f89,626b3b16b635dd57debdebf7,,,,,,,,,,,,,,,,,,,,,,,a,1,2.9878,"[""0.317"",""0.538"",""0.859"",""0.582""]","[1,1,1,0]",0,4,4,4,1,0,1,,,1,FALSE,,,,,,,,,,,,,,,,,,,,,,,,,,,,,,
,5f24891abbc6190706421642,001,2022-04-28_20h13.37.272,classification_task,2021.2.3,MacIntel,59.97361161,5f24891abbc6190706421642,626b377229c10585ec392f89,626b3b16b635dd57debdebf7,,,,,,,,,,,,,,,,,,,,,,,a,1,6.1137,"[""0.317"",""0.538"",""0.099"",""0.896""]","[1,1,0,1]",0,5,5,5,1,0,1,,,1,FALSE,,,,,,,,,,,,,,,,,,,,,,,,,,,,,,
,5f24891abbc6190706421642,001,2022-04-28_20h13.37.272,classification_task,2021.2.3,MacIntel,59.97361161,5f24891abbc6190706421642,626b377229c10585ec392f89,626b3b16b635dd57debdebf7,,,,,,,,,,,,,,,,,,,,,,,l,1,4.2355,"[""0.142"",""0.271"",""0.630"",""0.441""]","[1,1,1,0]",0,6,6,6,1,1,0,,,1,FALSE,,,,,,,,,,,,,,,,,,,,,,,,,,,,,,
,5f24891abbc6190706421642,001,2022-04-28_20h13.37.272,classification_task,2021.2.3,MacIntel,59.97361161,5f24891abbc6190706421642,626b377229c10585ec392f89,626b3b16b635dd57debdebf7,,,,,,,,,,,,,,,,,,,,,,,a,1,4.619,"[""0.441"",""0.538"",""0.859"",""0.896""]","[0,1,1,1]",0,7,7,7,1,0,1,,,1,FALSE,,,,,,,,,,,,,,,,,,,,,,,,,,,,,,
,5f24891abbc6190706421642,001,2022-04-28_20h13.37.272,classification_task,2021.2.3,MacIntel,59.97361161,5f24891abbc6190706421642,626b377229c10585ec392f89,626b3b16b635dd57debdebf7,,,,,,,,,,,,,,,,,,,,,,,l,1,5.1518,"[""0.371"",""0.271"",""0.630"",""0.777""]","[0,1,1,1]",0,8,8,8,1,1,0,,,1,FALSE,,,,,,,,,,,,,,,,,,,,,,,,,,,,,,
,5f24891abbc6190706421642,001,2022-04-28_20h13.37.272,classification_task,2021.2.3,MacIntel,59.97361161,5f24891abbc6190706421642,626b377229c10585ec392f89,626b3b16b635dd57debdebf7,,,,,,,,,,,,,,,,,,,,,,,l,1,5.0724,"[""0.058"",""0.235"",""0.666"",""0.386""]","[1,1,1,0]",0,9,9,9,1,1,1,,,1,FALSE,,,,,,,,,,,,,,,,,,,,,,,,,,,,,,
,5f24891abbc6190706421642,001,2022-04-28_20h13.37.272,classification_task,2021.2.3,MacIntel,59.97361161,5f24891abbc6190706421642,626b377229c10585ec392f89,626b3b16b635dd57debdebf7,,,,,,,,,,,,,,,,,,,,,,,l,1,2.4369,"[""0.058"",""0.578"",""0.666"",""0.700""]","[1,0,1,1]",0,10,10,10,1,1,1,,,1,FALSE,,,,,,,,,,,,,,,,,,,,,,,,,,,,,,
,5f24891abbc6190706421642,001,2022-04-28_20h13.37.272,classification_task,2021.2.3,MacIntel,59.97361161,5f24891abbc6190706421642,626b377229c10585ec392f89,626b3b16b635dd57debdebf7,,,,,,,,,,,,,,,,,,,,,,,a,0,3.1492,"[""0.099"",""0.235"",""0.666"",""0.700""]","[0,1,1,1]",0,11,11,11,1,1,1,,,1,FALSE,,,,,,,,,,,,,,,,,,,,,,,,,,,,,,
,5f24891abbc6190706421642,001,2022-04-28_20h13.37.272,classification_task,2021.2.3,MacIntel,59.97361161,5f24891abbc6190706421642,626b377229c10585ec392f89,626b3b16b635dd57debdebf7,,,,,,,,,,,,,,,,,,,,,,,a,1,3.8362,"[""0.195"",""0.594"",""0.824"",""0.965""]","[1,0,1,1]",0,12,12,12,1,0,0,,,1,FALSE,,,,,,,,,,,,,,,,,,,,,,,,,,,,,,
,5f24891abbc6190706421642,001,2022-04-28_20h13.37.272,classification_task,2021.2.3,MacIntel,59.97361161,5f24891abbc6190706421642,626b377229c10585ec392f89,626b3b16b635dd57debdebf7,,,,,,,,,,,,,,,,,,,,,,,l,1,2.9082,"[""0.142"",""0.271"",""0.371"",""0.777""]","[1,1,0,1]",0,13,13,13,1,1,0,,,1,FALSE,,,,,,,,,,,,,,,,,,,,,,,,,,,,,,
,5f24891abbc6190706421642,001,2022-04-28_20h13.37.272,classification_task,2021.2.3,MacIntel,59.97361161,5f24891abbc6190706421642,626b377229c10585ec392f89,626b3b16b635dd57debdebf7,,,,,,,,,,,,,,,,,,,,,,,a,1,2.7619,"[""0.195"",""0.490"",""0.441"",""0.965""]","[1,1,0,1]",0,14,14,14,1,0,0,,,1,FALSE,,,,,,,,,,,,,,,,,,,,,,,,,,,,,,
,5f24891abbc6190706421642,001,2022-04-28_20h13.37.272,classification_task,2021.2.3,MacIntel,59.97361161,5f24891abbc6190706421642,626b377229c10585ec392f89,626b3b16b635dd57debdebf7,,,,,,,,,,,,,,,,,,,,,,,a,1,2.9698,"[""0.195"",""0.490"",""0.824"",""0.582""]","[1,1,1,0]",0,15,15,15,1,0,0,,,1,FALSE,,,,,,,,,,,,,,,,,,,,,,,,,,,,,,
,5f24891abbc6190706421642,001,2022-04-28_20h13.37.272,classification_task,2021.2.3,MacIntel,59.97361161,5f24891abbc6190706421642,626b377229c10585ec392f89,626b3b16b635dd57debdebf7,,,,,,,,,,,,,,,,,,,,,,,l,1,1.92,"[""0.142"",""0.271"",""0.630"",""0.371""]","[1,1,1,0]",0,16,16,16,1,1,0,,,1,FALSE,,,,,,,,,,,,,,,,,,,,,,,,,,,,,,
,5f24891abbc6190706421642,001,2022-04-28_20h13.37.272,classification_task,2021.2.3,MacIntel,59.97361161,5f24891abbc6190706421642,626b377229c10585ec392f89,626b3b16b635dd57debdebf7,,,,,,,,,,,,,,,,,,,,,,,l,1,1.7365,"[""0.142"",""0.740"",""0.630"",""0.777""]","[1,0,1,1]",0,17,17,17,1,1,0,,,1,FALSE,,,,,,,,,,,,,,,,,,,,,,,,,,,,,,
,5f24891abbc6190706421642,001,2022-04-28_20h13.37.272,classification_task,2021.2.3,MacIntel,59.97361161,5f24891abbc6190706421642,626b377229c10585ec392f89,626b3b16b635dd57debdebf7,,,,,,,,,,,,,,,,,,,,,,,a,1,5.873,"[""0.742"",""0.538"",""0.859"",""0.896""]","[0,1,1,1]",0,18,18,18,1,0,1,,,1,FALSE,,,,,,,,,,,,,,,,,,,,,,,,,,,,,,
,5f24891abbc6190706421642,001,2022-04-28_20h13.37.272,classification_task,2021.2.3,MacIntel,59.97361161,5f24891abbc6190706421642,626b377229c10585ec392f89,626b3b16b635dd57debdebf7,,,,,,,,,,,,,,,,,,,,,,,a,1,8.2941,"[""0.740"",""0.490"",""0.824"",""0.965""]","[0,1,1,1]",0,19,19,19,1,0,0,,,1,FALSE,,,,,,,,,,,,,,,,,,,,,,,,,,,,,,
,5f24891abbc6190706421642,001,2022-04-28_20h13.37.272,classification_task,2021.2.3,MacIntel,59.97361161,5f24891abbc6190706421642,626b377229c10585ec392f89,626b3b16b635dd57debdebf7,,,,,,,,,,,,,,,,,,,,,,,a,1,4.1249,"[""0.195"",""0.490"",""0.588"",""0.965""]","[1,1,0,1]",0,20,20,20,1,0,0,,,1,FALSE,,,,,,,,,,,,,,,,,,,,,,,,,,,,,,
,5f24891abbc6190706421642,001,2022-04-28_20h13.37.272,classification_task,2021.2.3,MacIntel,59.97361161,5f24891abbc6190706421642,626b377229c10585ec392f89,626b3b16b635dd57debdebf7,,,,,,,,,,,,,,,,,,,,,,,a,1,4.7566,"[""0.317"",""0.538"",""0.441"",""0.896""]","[1,1,0,1]",0,21,21,21,1,0,1,,,1,FALSE,,,,,,,,,,,,,,,,,,,,,,,,,,,,,,
,5f24891abbc6190706421642,001,2022-04-28_20h13.37.272,classification_task,2021.2.3,MacIntel,59.97361161,5f24891abbc6190706421642,626b377229c10585ec392f89,626b3b16b635dd57debdebf7,,,,,,,,,,,,,,,,,,,,,,,a,1,4.4729,"[""0.195"",""0.371"",""0.824"",""0.965""]","[1,0,1,1]",0,22,22,22,1,0,0,,,1,FALSE,,,,,,,,,,,,,,,,,,,,,,,,,,,,,,
,5f24891abbc6190706421642,001,2022-04-28_20h13.37.272,classification_task,2021.2.3,MacIntel,59.97361161,5f24891abbc6190706421642,626b377229c10585ec392f89,626b3b16b635dd57debdebf7,,,,,,,,,,,,,,,,,,,,,,,a,1,2.5718,"[""0.317"",""0.538"",""0.859"",""0.740""]","[1,1,1,0]",0,23,23,23,1,0,1,,,1,FALSE,,,,,,,,,,,,,,,,,,,,,,,,,,,,,,
,5f24891abbc6190706421642,001,2022-04-28_20h13.37.272,classification_task,2021.2.3,MacIntel,59.97361161,5f24891abbc6190706421642,626b377229c10585ec392f89,626b3b16b635dd57debdebf7,,,,,,,,,,,,,,,,,,,,,,,l,0,2.4086,"[""0.317"",""0.098"",""0.859"",""0.896""]","[1,0,1,1]",0,24,24,24,1,0,1,,,1,FALSE,,,,,,,,,,,,,,,,,,,,,,,,,,,,,,
,5f24891abbc6190706421642,001,2022-04-28_20h13.37.272,classification_task,2021.2.3,MacIntel,59.97361161,5f24891abbc6190706421642,626b377229c10585ec392f89,626b3b16b635dd57debdebf7,,,,,,,,,,,,,,,,,,,,,,,l,1,7.3804,"[""0.594"",""0.271"",""0.630"",""0.777""]","[0,1,1,1]",0,25,25,25,1,1,0,,,1,FALSE,,,,,,,,,,,,,,,,,,,,,,,,,,,,,,
,5f24891abbc6190706421642,001,2022-04-28_20h13.37.272,classification_task,2021.2.3,MacIntel,59.97361161,5f24891abbc6190706421642,626b377229c10585ec392f89,626b3b16b635dd57debdebf7,,,,,,,,,,,,,,,,,,,,,,,l,1,7.3542,"[""0.371"",""0.235"",""0.666"",""0.700""]","[0,1,1,1]",0,26,26,26,1,1,1,,,1,FALSE,,,,,,,,,,,,,,,,,,,,,,,,,,,,,,
,5f24891abbc6190706421642,001,2022-04-28_20h13.37.272,classification_task,2021.2.3,MacIntel,59.97361161,5f24891abbc6190706421642,626b377229c10585ec392f89,626b3b16b635dd57debdebf7,,,,,,,,,,,,,,,,,,,,,,,l,1,5.6901,"[""0.058"",""0.235"",""0.409"",""0.700""]","[1,1,0,1]",0,27,27,27,1,1,1,,,1,FALSE,,,,,,,,,,,,,,,,,,,,,,,,,,,,,,
,5f24891abbc6190706421642,001,2022-04-28_20h13.37.272,classification_task,2021.2.3,MacIntel,59.97361161,5f24891abbc6190706421642,626b377229c10585ec392f89,626b3b16b635dd57debdebf7,,,,,,,,,,,,,,,,,,,,,,,l,1,2.7399,"[""0.058"",""0.235"",""0.666"",""0.740""]","[1,1,1,0]",0,28,28,28,1,1,1,,,1,FALSE,,,,,,,,,,,,,,,,,,,,,,,,,,,,,,
,5f24891abbc6190706421642,001,2022-04-28_20h13.37.272,classification_task,2021.2.3,MacIntel,59.97361161,5f24891abbc6190706421642,626b377229c10585ec392f89,626b3b16b635dd57debdebf7,,,,,,,,,,,,,,,,,,,,,,,l,1,5.4538,"[""0.142"",""0.271"",""0.098"",""0.777""]","[1,1,0,1]",0,29,29,29,1,1,0,,,1,FALSE,,,,,,,,,,,,,,,,,,,,,,,,,,,,,,
,5f24891abbc6190706421642,001,2022-04-28_20h13.37.272,classification_task,2021.2.3,MacIntel,59.97361161,5f24891abbc6190706421642,626b377229c10585ec392f89,626b3b16b635dd57debdebf7,,,,,,,,,,,,,,,,,,,,,,,l,0,4.3748,"[""0.195"",""0.490"",""0.824"",""0.441""]","[1,1,1,0]",0,30,30,30,1,0,0,,,1,FALSE,,,,,,,,,,,,,,,,,,,,,,,,,,,,,,
,5f24891abbc6190706421642,001,2022-04-28_20h13.37.272,classification_task,2021.2.3,MacIntel,59.97361161,5f24891abbc6190706421642,626b377229c10585ec392f89,626b3b16b635dd57debdebf7,,,,,,,,,,,,,,,,,,,,,,,l,1,6.3598,"[""0.058"",""0.409"",""0.666"",""0.700""]","[1,0,1,1]",0,31,31,31,1,1,1,,,1,FALSE,,,,,,,,,,,,,,,,,,,,,,,,,,,,,,
,5f24891abbc6190706421642,001,2022-04-28_20h13.37.272,classification_task,2021.2.3,MacIntel,59.97361161,5f24891abbc6190706421642,626b377229c10585ec392f89,626b3b16b635dd57debdebf7,,,,,,,,,,,,,,,,,,,,,,,l,1,9.2217,"[""0.058"",""0.235"",""0.409"",""0.700""]","[1,1,0,1]",0,32,32,32,1,1,1,,,1,FALSE,,,,,,,,,,,,,,,,,,,,,,,,,,,,,,
,5f24891abbc6190706421642,001,2022-04-28_20h13.37.272,classification_task,2021.2.3,MacIntel,59.97361161,5f24891abbc6190706421642,626b377229c10585ec392f89,626b3b16b635dd57debdebf7,,,,,,,,,,,,,,,,,,,,,,,a,0,4.228,"[""0.594"",""0.271"",""0.630"",""0.777""]","[0,1,1,1]",0,33,33,33,1,1,0,,,1,FALSE,,,,,,,,,,,,,,,,,,,,,,,,,,,,,,
,5f24891abbc6190706421642,001,2022-04-28_20h13.37.272,classification_task,2021.2.3,MacIntel,59.97361161,5f24891abbc6190706421642,626b377229c10585ec392f89,626b3b16b635dd57debdebf7,,,,,,,,,,,,,,,,,,,,,,,l,1,2.911,"[""0.142"",""0.098"",""0.630"",""0.777""]","[1,0,1,1]",0,34,34,34,1,1,0,,,1,FALSE,,,,,,,,,,,,,,,,,,,,,,,,,,,,,,
,5f24891abbc6190706421642,001,2022-04-28_20h13.37.272,classification_task,2021.2.3,MacIntel,59.97361161,5f24891abbc6190706421642,626b377229c10585ec392f89,626b3b16b635dd57debdebf7,,,,,,,,,,,,,,,,,,,,,,,l,0,2.4872,"[""0.444"",""0.538"",""0.859"",""0.896""]","[0,1,1,1]",0,35,35,35,1,0,1,,,1,FALSE,,,,,,,,,,,,,,,,,,,,,,,,,,,,,,
,5f24891abbc6190706421642,001,2022-04-28_20h13.37.272,classification_task,2021.2.3,MacIntel,59.97361161,5f24891abbc6190706421642,626b377229c10585ec392f89,626b3b16b635dd57debdebf7,,,,,,,,,,,,,,,,,,,,,,,l,1,1.5884,"[""0.409"",""0.235"",""0.666"",""0.700""]","[0,1,1,1]",0,36,36,36,1,1,1,,,1,FALSE,,,,,,,,,,,,,,,,,,,,,,,,,,,,,,
,5f24891abbc6190706421642,001,2022-04-28_20h13.37.272,classification_task,2021.2.3,MacIntel,59.97361161,5f24891abbc6190706421642,626b377229c10585ec392f89,626b3b16b635dd57debdebf7,,,,,,,,,,,,,,,,,,,,,,,a,1,4.1905,"[""0.588"",""0.490"",""0.824"",""0.965""]","[0,1,1,1]",0,37,37,37,1,0,0,,,1,FALSE,,,,,,,,,,,,,,,,,,,,,,,,,,,,,,
,5f24891abbc6190706421642,001,2022-04-28_20h13.37.272,classification_task,2021.2.3,MacIntel,59.97361161,5f24891abbc6190706421642,626b377229c10585ec392f89,626b3b16b635dd57debdebf7,,,,,,,,,,,,,,,,,,,,,,,a,0,5.7248,"[""0.058"",""0.235"",""0.666"",""0.444""]","[1,1,1,0]",0,38,38,38,1,1,1,,,1,FALSE,,,,,,,,,,,,,,,,,,,,,,,,,,,,,,
,5f24891abbc6190706421642,001,2022-04-28_20h13.37.272,classification_task,2021.2.3,MacIntel,59.97361161,5f24891abbc6190706421642,626b377229c10585ec392f89,626b3b16b635dd57debdebf7,,,,,,,,,,,,,,,,,,,,,,,l,0,5.4305,"[""0.195"",""0.490"",""0.588"",""0.965""]","[1,1,0,1]",0,39,39,39,1,0,0,,,1,FALSE,,,,,,,,,,,,,,,,,,,,,,,,,,,,,,
,5f24891abbc6190706421642,001,2022-04-28_20h13.37.272,classification_task,2021.2.3,MacIntel,59.97361161,5f24891abbc6190706421642,626b377229c10585ec392f89,626b3b16b635dd57debdebf7,,,,,,,,,,,,,,,,,,,,,,,l,1,1.5207,"[""0.142"",""0.271"",""0.099"",""0.777""]","[1,1,0,1]",0,40,40,40,1,1,0,,,1,FALSE,,,,,,,,,,,,,,,,,,,,,,,,,,,,,,
,5f24891abbc6190706421642,001,2022-04-28_20h13.37.272,classification_task,2021.2.3,MacIntel,59.97361161,5f24891abbc6190706421642,626b377229c10585ec392f89,626b3b16b635dd57debdebf7,,,,,,,,,,,,,,,,,,,,,,,a,1,2.237,"[""0.317"",""0.538"",""0.386"",""0.896""]","[1,1,0,1]",0,41,41,41,1,0,1,,,1,FALSE,,,,,,,,,,,,,,,,,,,,,,,,,,,,,,
,5f24891abbc6190706421642,001,2022-04-28_20h13.37.272,classification_task,2021.2.3,MacIntel,59.97361161,5f24891abbc6190706421642,626b377229c10585ec392f89,626b3b16b635dd57debdebf7,,,,,,,,,,,,,,,,,,,,,,,l,1,1.3848,"[""0.058"",""0.409"",""0.666"",""0.700""]","[1,0,1,1]",0,42,42,42,1,1,1,,,1,FALSE,,,,,,,,,,,,,,,,,,,,,,,,,,,,,,
,5f24891abbc6190706421642,001,2022-04-28_20h13.37.272,classification_task,2021.2.3,MacIntel,59.97361161,5f24891abbc6190706421642,626b377229c10585ec392f89,626b3b16b635dd57debdebf7,,,,,,,,,,,,,,,,,,,,,,,l,1,2.1812,"[""0.142"",""0.271"",""0.630"",""0.352""]","[1,1,1,0]",0,43,43,43,1,1,0,,,1,FALSE,,,,,,,,,,,,,,,,,,,,,,,,,,,,,,
,5f24891abbc6190706421642,001,2022-04-28_20h13.37.272,classification_task,2021.2.3,MacIntel,59.97361161,5f24891abbc6190706421642,626b377229c10585ec392f89,626b3b16b635dd57debdebf7,,,,,,,,,,,,,,,,,,,,,,,l,0,1.3863,"[""0.195"",""0.490"",""0.824"",""0.574""]","[1,1,1,0]",0,44,44,44,1,0,0,,,1,FALSE,,,,,,,,,,,,,,,,,,,,,,,,,,,,,,
,5f24891abbc6190706421642,001,2022-04-28_20h13.37.272,classification_task,2021.2.3,MacIntel,59.97361161,5f24891abbc6190706421642,626b377229c10585ec392f89,626b3b16b635dd57debdebf7,,,,,,,,,,,,,,,,,,,,,,,l,0,2.536,"[""0.195"",""0.742"",""0.824"",""0.965""]","[1,0,1,1]",0,45,45,45,1,0,0,,,1,FALSE,,,,,,,,,,,,,,,,,,,,,,,,,,,,,,
,5f24891abbc6190706421642,001,2022-04-28_20h13.37.272,classification_task,2021.2.3,MacIntel,59.97361161,5f24891abbc6190706421642,626b377229c10585ec392f89,626b3b16b635dd57debdebf7,,,,,,,,,,,,,,,,,,,,,,,a,1,1.6354,"[""0.317"",""0.386"",""0.859"",""0.896""]","[1,0,1,1]",0,46,46,46,1,0,1,,,1,FALSE,,,,,,,,,,,,,,,,,,,,,,,,,,,,,,
,5f24891abbc6190706421642,001,2022-04-28_20h13.37.272,classification_task,2021.2.3,MacIntel,59.97361161,5f24891abbc6190706421642,626b377229c10585ec392f89,626b3b16b635dd57debdebf7,,,,,,,,,,,,,,,,,,,,,,,a,1,2.0855,"[""0.317"",""0.538"",""0.859"",""0.444""]","[1,1,1,0]",0,47,47,47,1,0,1,,,1,FALSE,,,,,,,,,,,,,,,,,,,,,,,,,,,,,,
,5f24891abbc6190706421642,001,2022-04-28_20h13.37.272,classification_task,2021.2.3,MacIntel,59.97361161,5f24891abbc6190706421642,626b377229c10585ec392f89,626b3b16b635dd57debdebf7,,,,,,,,,,,,,,,,,,,,,,,a,1,1.8388,"[""0.195"",""0.490"",""0.386"",""0.965""]","[1,1,0,1]",0,48,48,48,1,0,0,,,1,FALSE,,,,,,,,,,,,,,,,,,,,,,,,,,,,,,
,5f24891abbc6190706421642,001,2022-04-28_20h13.37.272,classification_task,2021.2.3,MacIntel,59.97361161,5f24891abbc6190706421642,626b377229c10585ec392f89,626b3b16b635dd57debdebf7,,,,,,,,,,,,,,,,,,,,,,,a,1,2.9862,"[""0.317"",""0.538"",""0.742"",""0.896""]","[1,1,0,1]",0,49,49,49,1,0,1,,,1,FALSE,,,,,,,,,,,,,,,,,,,,,,,,,,,,,,
,5f24891abbc6190706421642,001,2022-04-28_20h13.37.272,classification_task,2021.2.3,MacIntel,59.97361161,5f24891abbc6190706421642,626b377229c10585ec392f89,626b3b16b635dd57debdebf7,,,,,,,,,,,,,,,,,,,,,,,l,1,2.9241,"[""0.409"",""0.235"",""0.666"",""0.700""]","[0,1,1,1]",0,50,50,50,1,1,1,,,1,FALSE,,,,,,,,,,,,,,,,,,,,,,,,,,,,,,
,5f24891abbc6190706421642,001,2022-04-28_20h13.37.272,classification_task,2021.2.3,MacIntel,59.97361161,5f24891abbc6190706421642,626b377229c10585ec392f89,626b3b16b635dd57debdebf7,,,,,,,,,,,,,,,,,,,,,,,l,1,2.1697,"[""0.058"",""0.594"",""0.666"",""0.700""]","[1,0,1,1]",0,51,51,51,1,1,1,,,1,FALSE,,,,,,,,,,,,,,,,,,,,,,,,,,,,,,
,5f24891abbc6190706421642,001,2022-04-28_20h13.37.272,classification_task,2021.2.3,MacIntel,59.97361161,5f24891abbc6190706421642,626b377229c10585ec392f89,626b3b16b635dd57debdebf7,,,,,,,,,,,,,,,,,,,,,,,a,1,4.0082,"[""0.195"",""0.490"",""0.824"",""0.444""]","[1,1,1,0]",0,52,52,52,1,0,0,,,1,FALSE,,,,,,,,,,,,,,,,,,,,,,,,,,,,,,
,5f24891abbc6190706421642,001,2022-04-28_20h13.37.272,classification_task,2021.2.3,MacIntel,59.97361161,5f24891abbc6190706421642,626b377229c10585ec392f89,626b3b16b635dd57debdebf7,,,,,,,,,,,,,,,,,,,,,,,a,1,2.0743,"[""0.317"",""0.742"",""0.859"",""0.896""]","[1,0,1,1]",0,53,53,53,1,0,1,,,1,FALSE,,,,,,,,,,,,,,,,,,,,,,,,,,,,,,
,5f24891abbc6190706421642,001,2022-04-28_20h13.37.272,classification_task,2021.2.3,MacIntel,59.97361161,5f24891abbc6190706421642,626b377229c10585ec392f89,626b3b16b635dd57debdebf7,,,,,,,,,,,,,,,,,,,,,,,l,0,3.9737,"[""0.352"",""0.490"",""0.824"",""0.965""]","[0,1,1,1]",0,54,54,54,1,0,0,,,1,FALSE,,,,,,,,,,,,,,,,,,,,,,,,,,,,,,
,5f24891abbc6190706421642,001,2022-04-28_20h13.37.272,classification_task,2021.2.3,MacIntel,59.97361161,5f24891abbc6190706421642,626b377229c10585ec392f89,626b3b16b635dd57debdebf7,,,,,,,,,,,,,,,,,,,,,,,l,1,1.1041,"[""0.444"",""0.271"",""0.630"",""0.777""]","[0,1,1,1]",0,55,55,55,1,1,0,,,1,FALSE,,,,,,,,,,,,,,,,,,,,,,,,,,,,,,
,5f24891abbc6190706421642,001,2022-04-28_20h13.37.272,classification_task,2021.2.3,MacIntel,59.97361161,5f24891abbc6190706421642,626b377229c10585ec392f89,626b3b16b635dd57debdebf7,,,,,,,,,,,,,,,,,,,,,,,a,0,2.1078,"[""0.142"",""0.271"",""0.630"",""0.352""]","[1,1,1,0]",0,56,56,56,1,1,0,,,1,FALSE,,,,,,,,,,,,,,,,,,,,,,,,,,,,,,
,5f24891abbc6190706421642,001,2022-04-28_20h13.37.272,classification_task,2021.2.3,MacIntel,59.97361161,5f24891abbc6190706421642,626b377229c10585ec392f89,626b3b16b635dd57debdebf7,,,,,,,,,,,,,,,,,,,,,,,l,1,0.9989,"[""0.142"",""0.444"",""0.630"",""0.777""]","[1,0,1,1]",0,57,57,57,1,1,0,,,1,FALSE,,,,,,,,,,,,,,,,,,,,,,,,,,,,,,
,5f24891abbc6190706421642,001,2022-04-28_20h13.37.272,classification_task,2021.2.3,MacIntel,59.97361161,5f24891abbc6190706421642,626b377229c10585ec392f89,626b3b16b635dd57debdebf7,,,,,,,,,,,,,,,,,,,,,,,a,1,1.7464,"[""0.317"",""0.538"",""0.859"",""0.742""]","[1,1,1,0]",0,58,58,58,1,0,1,,,1,FALSE,,,,,,,,,,,,,,,,,,,,,,,,,,,,,,
,5f24891abbc6190706421642,001,2022-04-28_20h13.37.272,classification_task,2021.2.3,MacIntel,59.97361161,5f24891abbc6190706421642,626b377229c10585ec392f89,626b3b16b635dd57debdebf7,,,,,,,,,,,,,,,,,,,,,,,l,1,3.5325,"[""0.058"",""0.235"",""0.666"",""0.588""]","[1,1,1,0]",0,59,59,59,1,1,1,,,1,FALSE,,,,,,,,,,,,,,,,,,,,,,,,,,,,,,
,5f24891abbc6190706421642,001,2022-04-28_20h13.37.272,classification_task,2021.2.3,MacIntel,59.97361161,5f24891abbc6190706421642,626b377229c10585ec392f89,626b3b16b635dd57debdebf7,,,,,,,,,,,,,,,,,,,,,,,a,1,1.4043,"[""0.195"",""0.740"",""0.824"",""0.965""]","[1,0,1,1]",0,60,60,60,1,0,0,,,1,FALSE,,,,,,,,,,,,,,,,,,,,,,,,,,,,,,
,5f24891abbc6190706421642,001,2022-04-28_20h13.37.272,classification_task,2021.2.3,MacIntel,59.97361161,5f24891abbc6190706421642,626b377229c10585ec392f89,626b3b16b635dd57debdebf7,,,,,,,,,,,,,,,,,,,,,,,l,1,1.5996,"[""0.058"",""0.235"",""0.588"",""0.700""]","[1,1,0,1]",0,61,61,61,1,1,1,,,1,FALSE,,,,,,,,,,,,,,,,,,,,,,,,,,,,,,
,5f24891abbc6190706421642,001,2022-04-28_20h13.37.272,classification_task,2021.2.3,MacIntel,59.97361161,5f24891abbc6190706421642,626b377229c10585ec392f89,626b3b16b635dd57debdebf7,,,,,,,,,,,,,,,,,,,,,,,l,1,2.4645,"[""0.142"",""0.271"",""0.409"",""0.777""]","[1,1,0,1]",0,62,62,62,1,1,0,,,1,FALSE,,,,,,,,,,,,,,,,,,,,,,,,,,,,,,
,5f24891abbc6190706421642,001,2022-04-28_20h13.37.272,classification_task,2021.2.3,MacIntel,59.97361161,5f24891abbc6190706421642,626b377229c10585ec392f89,626b3b16b635dd57debdebf7,,,,,,,,,,,,,,,,,,,,,,,l,0,2.473,"[""0.574"",""0.538"",""0.859"",""0.896""]","[0,1,1,1]",0,63,63,63,1,0,1,,,1,FALSE,,,,,,,,,,,,,,,,,,,,,,,,,,,,,,
,5f24891abbc6190706421642,001,2022-04-28_20h13.37.272,classification_task,2021.2.3,MacIntel,59.97361161,5f24891abbc6190706421642,626b377229c10585ec392f89,626b3b16b635dd57debdebf7,,,,,,,,,,,,,,,,,,,,,,,,,,,,,,,,,,,,,,,0, ,,0,4.485310549,733.6528,0,0,0,0,1,2,1,,,,,,,,,,,,,,,,,
,5f24891abbc6190706421642,001,2022-04-28_20h13.37.272,classification_task,2021.2.3,MacIntel,59.97361161,5f24891abbc6190706421642,626b377229c10585ec392f89,626b3b16b635dd57debdebf7,,,,,,,,,,,,,,,,,,,,,,,,,,,,,,,,,,,,,,,1,  ,,0,7.054882554,723.861,0,0,0,0,1,2,1,,,,,,,,,,,,,,,,,
,5f24891abbc6190706421642,001,2022-04-28_20h13.37.272,classification_task,2021.2.3,MacIntel,59.97361161,5f24891abbc6190706421642,626b377229c10585ec392f89,626b3b16b635dd57debdebf7,,,,,,,,,,,,,,,,,,,,,,,,,,,,,,,,,,,,,,,2,  ,,0,1.880732138,719.8732,0,0,0,0,1,2,1,,,,,,,,,,,,,,,,,
,5f24891abbc6190706421642,001,2022-04-28_20h13.37.272,classification_task,2021.2.3,MacIntel,59.97361161,5f24891abbc6190706421642,626b377229c10585ec392f89,626b3b16b635dd57debdebf7,,,,,,,,,,,,,,,,,,,,,,,,,,,,,,,,,,,,,,,,,,,,,0,0,0,0,1,,1,,,,,,,,,,,,,,,,,
,5f24891abbc6190706421642,001,2022-04-28_20h13.37.272,classification_task,2021.2.3,MacIntel,59.97361161,5f24891abbc6190706421642,626b377229c10585ec392f89,626b3b16b635dd57debdebf7,,,,,,,,,,,,,,,,,,,,,space,17.4129,a,1,5.4225,"[""0.317"",""0.538"",""0.371"",""0.896""]","[1,1,0,1]",0,0,0,0,1,0,1,,,1,FALSE,,,,,,,,,,,,,,,,,,,,,,,,,,,,,,
,5f24891abbc6190706421642,001,2022-04-28_20h13.37.272,classification_task,2021.2.3,MacIntel,59.97361161,5f24891abbc6190706421642,626b377229c10585ec392f89,626b3b16b635dd57debdebf7,,,,,,,,,,,,,,,,,,,,,,,l,0,4.0374,"[""0.195"",""0.371"",""0.824"",""0.965""]","[1,0,1,1]",0,1,1,1,1,0,0,,,1,FALSE,,,,,,,,,,,,,,,,,,,,,,,,,,,,,,
,5f24891abbc6190706421642,001,2022-04-28_20h13.37.272,classification_task,2021.2.3,MacIntel,59.97361161,5f24891abbc6190706421642,626b377229c10585ec392f89,626b3b16b635dd57debdebf7,,,,,,,,,,,,,,,,,,,,,,,a,0,1.3027,"[""0.142"",""0.271"",""0.099"",""0.777""]","[1,1,0,1]",0,2,2,2,1,1,0,,,1,FALSE,,,,,,,,,,,,,,,,,,,,,,,,,,,,,,
,5f24891abbc6190706421642,001,2022-04-28_20h13.37.272,classification_task,2021.2.3,MacIntel,59.97361161,5f24891abbc6190706421642,626b377229c10585ec392f89,626b3b16b635dd57debdebf7,,,,,,,,,,,,,,,,,,,,,,,l,1,4.2506,"[""0.058"",""0.235"",""0.578"",""0.700""]","[1,1,0,1]",0,3,3,3,1,1,1,,,1,FALSE,,,,,,,,,,,,,,,,,,,,,,,,,,,,,,
,5f24891abbc6190706421642,001,2022-04-28_20h13.37.272,classification_task,2021.2.3,MacIntel,59.97361161,5f24891abbc6190706421642,626b377229c10585ec392f89,626b3b16b635dd57debdebf7,,,,,,,,,,,,,,,,,,,,,,,a,1,1.6378,"[""0.195"",""0.490"",""0.371"",""0.965""]","[1,1,0,1]",0,4,4,4,1,0,0,,,1,FALSE,,,,,,,,,,,,,,,,,,,,,,,,,,,,,,
,5f24891abbc6190706421642,001,2022-04-28_20h13.37.272,classification_task,2021.2.3,MacIntel,59.97361161,5f24891abbc6190706421642,626b377229c10585ec392f89,626b3b16b635dd57debdebf7,,,,,,,,,,,,,,,,,,,,,,,a,1,2.8426,"[""0.317"",""0.538"",""0.859"",""0.441""]","[1,1,1,0]",0,5,5,5,1,0,1,,,1,FALSE,,,,,,,,,,,,,,,,,,,,,,,,,,,,,,
,5f24891abbc6190706421642,001,2022-04-28_20h13.37.272,classification_task,2021.2.3,MacIntel,59.97361161,5f24891abbc6190706421642,626b377229c10585ec392f89,626b3b16b635dd57debdebf7,,,,,,,,,,,,,,,,,,,,,,,l,1,2.1378,"[""0.588"",""0.235"",""0.666"",""0.700""]","[0,1,1,1]",0,6,6,6,1,1,1,,,1,FALSE,,,,,,,,,,,,,,,,,,,,,,,,,,,,,,
,5f24891abbc6190706421642,001,2022-04-28_20h13.37.272,classification_task,2021.2.3,MacIntel,59.97361161,5f24891abbc6190706421642,626b377229c10585ec392f89,626b3b16b635dd57debdebf7,,,,,,,,,,,,,,,,,,,,,,,l,0,1.4061,"[""0.386"",""0.490"",""0.824"",""0.965""]","[0,1,1,1]",0,7,7,7,1,0,0,,,1,FALSE,,,,,,,,,,,,,,,,,,,,,,,,,,,,,,
,5f24891abbc6190706421642,001,2022-04-28_20h13.37.272,classification_task,2021.2.3,MacIntel,59.97361161,5f24891abbc6190706421642,626b377229c10585ec392f89,626b3b16b635dd57debdebf7,,,,,,,,,,,,,,,,,,,,,,,l,1,0.7054,"[""0.740"",""0.271"",""0.630"",""0.777""]","[0,1,1,1]",0,8,8,8,1,1,0,,,1,FALSE,,,,,,,,,,,,,,,,,,,,,,,,,,,,,,
,5f24891abbc6190706421642,001,2022-04-28_20h13.37.272,classification_task,2021.2.3,MacIntel,59.97361161,5f24891abbc6190706421642,626b377229c10585ec392f89,626b3b16b635dd57debdebf7,,,,,,,,,,,,,,,,,,,,,,,l,1,2.3178,"[""0.058"",""0.386"",""0.666"",""0.700""]","[1,0,1,1]",0,9,9,9,1,1,1,,,1,FALSE,,,,,,,,,,,,,,,,,,,,,,,,,,,,,,
,5f24891abbc6190706421642,001,2022-04-28_20h13.37.272,classification_task,2021.2.3,MacIntel,59.97361161,5f24891abbc6190706421642,626b377229c10585ec392f89,626b3b16b635dd57debdebf7,,,,,,,,,,,,,,,,,,,,,,,l,1,3.0417,"[""0.058"",""0.235"",""0.666"",""0.371""]","[1,1,1,0]",0,10,10,10,1,1,1,,,1,FALSE,,,,,,,,,,,,,,,,,,,,,,,,,,,,,,
,5f24891abbc6190706421642,001,2022-04-28_20h13.37.272,classification_task,2021.2.3,MacIntel,59.97361161,5f24891abbc6190706421642,626b377229c10585ec392f89,626b3b16b635dd57debdebf7,,,,,,,,,,,,,,,,,,,,,,,a,1,1.7059,"[""0.195"",""0.490"",""0.824"",""0.386""]","[1,1,1,0]",0,11,11,11,1,0,0,,,1,FALSE,,,,,,,,,,,,,,,,,,,,,,,,,,,,,,
,5f24891abbc6190706421642,001,2022-04-28_20h13.37.272,classification_task,2021.2.3,MacIntel,59.97361161,5f24891abbc6190706421642,626b377229c10585ec392f89,626b3b16b635dd57debdebf7,,,,,,,,,,,,,,,,,,,,,,,a,0,1.967,"[""0.142"",""0.409"",""0.630"",""0.777""]","[1,0,1,1]",0,12,12,12,1,1,0,,,1,FALSE,,,,,,,,,,,,,,,,,,,,,,,,,,,,,,
,5f24891abbc6190706421642,001,2022-04-28_20h13.37.272,classification_task,2021.2.3,MacIntel,59.97361161,5f24891abbc6190706421642,626b377229c10585ec392f89,626b3b16b635dd57debdebf7,,,,,,,,,,,,,,,,,,,,,,,a,1,2.0677,"[""0.317"",""0.594"",""0.859"",""0.896""]","[1,0,1,1]",0,13,13,13,1,0,1,,,1,FALSE,,,,,,,,,,,,,,,,,,,,,,,,,,,,,,
,5f24891abbc6190706421642,001,2022-04-28_20h13.37.272,classification_task,2021.2.3,MacIntel,59.97361161,5f24891abbc6190706421642,626b377229c10585ec392f89,626b3b16b635dd57debdebf7,,,,,,,,,,,,,,,,,,,,,,,a,0,1.8171,"[""0.142"",""0.271"",""0.630"",""0.409""]","[1,1,1,0]",0,14,14,14,1,1,0,,,1,FALSE,,,,,,,,,,,,,,,,,,,,,,,,,,,,,,
,5f24891abbc6190706421642,001,2022-04-28_20h13.37.272,classification_task,2021.2.3,MacIntel,59.97361161,5f24891abbc6190706421642,626b377229c10585ec392f89,626b3b16b635dd57debdebf7,,,,,,,,,,,,,,,,,,,,,,,a,1,1.4326,"[""0.742"",""0.538"",""0.859"",""0.896""]","[0,1,1,1]",0,15,15,15,1,0,1,,,1,FALSE,,,,,,,,,,,,,,,,,,,,,,,,,,,,,,
,5f24891abbc6190706421642,001,2022-04-28_20h13.37.272,classification_task,2021.2.3,MacIntel,59.97361161,5f24891abbc6190706421642,626b377229c10585ec392f89,626b3b16b635dd57debdebf7,,,,,,,,,,,,,,,,,,,,,,,l,1,2.0609,"[""0.371"",""0.235"",""0.666"",""0.700""]","[0,1,1,1]",0,16,16,16,1,1,1,,,1,FALSE,,,,,,,,,,,,,,,,,,,,,,,,,,,,,,
,5f24891abbc6190706421642,001,2022-04-28_20h13.37.272,classification_task,2021.2.3,MacIntel,59.97361161,5f24891abbc6190706421642,626b377229c10585ec392f89,626b3b16b635dd57debdebf7,,,,,,,,,,,,,,,,,,,,,,,l,0,3.5628,"[""0.740"",""0.490"",""0.824"",""0.965""]","[0,1,1,1]",0,17,17,17,1,0,0,,,1,FALSE,,,,,,,,,,,,,,,,,,,,,,,,,,,,,,
,5f24891abbc6190706421642,001,2022-04-28_20h13.37.272,classification_task,2021.2.3,MacIntel,59.97361161,5f24891abbc6190706421642,626b377229c10585ec392f89,626b3b16b635dd57debdebf7,,,,,,,,,,,,,,,,,,,,,,,a,0,2.6549,"[""0.409"",""0.271"",""0.630"",""0.777""]","[0,1,1,1]",0,18,18,18,1,1,0,,,1,FALSE,,,,,,,,,,,,,,,,,,,,,,,,,,,,,,
,5f24891abbc6190706421642,001,2022-04-28_20h13.37.272,classification_task,2021.2.3,MacIntel,59.97361161,5f24891abbc6190706421642,626b377229c10585ec392f89,626b3b16b635dd57debdebf7,,,,,,,,,,,,,,,,,,,,,,,a,1,1.7862,"[""0.195"",""0.490"",""0.824"",""0.582""]","[1,1,1,0]",0,19,19,19,1,0,0,,,1,FALSE,,,,,,,,,,,,,,,,,,,,,,,,,,,,,,
,5f24891abbc6190706421642,001,2022-04-28_20h13.37.272,classification_task,2021.2.3,MacIntel,59.97361161,5f24891abbc6190706421642,626b377229c10585ec392f89,626b3b16b635dd57debdebf7,,,,,,,,,,,,,,,,,,,,,,,l,1,1.3201,"[""0.142"",""0.742"",""0.630"",""0.777""]","[1,0,1,1]",0,20,20,20,1,1,0,,,1,FALSE,,,,,,,,,,,,,,,,,,,,,,,,,,,,,,
,5f24891abbc6190706421642,001,2022-04-28_20h13.37.272,classification_task,2021.2.3,MacIntel,59.97361161,5f24891abbc6190706421642,626b377229c10585ec392f89,626b3b16b635dd57debdebf7,,,,,,,,,,,,,,,,,,,,,,,a,1,2.4502,"[""0.317"",""0.538"",""0.352"",""0.896""]","[1,1,0,1]",0,21,21,21,1,0,1,,,1,FALSE,,,,,,,,,,,,,,,,,,,,,,,,,,,,,,
,5f24891abbc6190706421642,001,2022-04-28_20h13.37.272,classification_task,2021.2.3,MacIntel,59.97361161,5f24891abbc6190706421642,626b377229c10585ec392f89,626b3b16b635dd57debdebf7,,,,,,,,,,,,,,,,,,,,,,,a,1,3.0703,"[""0.317"",""0.538"",""0.859"",""0.578""]","[1,1,1,0]",0,22,22,22,1,0,1,,,1,FALSE,,,,,,,,,,,,,,,,,,,,,,,,,,,,,,
,5f24891abbc6190706421642,001,2022-04-28_20h13.37.272,classification_task,2021.2.3,MacIntel,59.97361161,5f24891abbc6190706421642,626b377229c10585ec392f89,626b3b16b635dd57debdebf7,,,,,,,,,,,,,,,,,,,,,,,l,1,2.1763,"[""0.058"",""0.235"",""0.352"",""0.700""]","[1,1,0,1]",0,23,23,23,1,1,1,,,1,FALSE,,,,,,,,,,,,,,,,,,,,,,,,,,,,,,
,5f24891abbc6190706421642,001,2022-04-28_20h13.37.272,classification_task,2021.2.3,MacIntel,59.97361161,5f24891abbc6190706421642,626b377229c10585ec392f89,626b3b16b635dd57debdebf7,,,,,,,,,,,,,,,,,,,,,,,l,1,1.8027,"[""0.058"",""0.099"",""0.666"",""0.700""]","[1,0,1,1]",0,24,24,24,1,1,1,,,1,FALSE,,,,,,,,,,,,,,,,,,,,,,,,,,,,,,
,5f24891abbc6190706421642,001,2022-04-28_20h13.37.272,classification_task,2021.2.3,MacIntel,59.97361161,5f24891abbc6190706421642,626b377229c10585ec392f89,626b3b16b635dd57debdebf7,,,,,,,,,,,,,,,,,,,,,,,l,1,1.594,"[""0.142"",""0.271"",""0.630"",""0.441""]","[1,1,1,0]",0,25,25,25,1,1,0,,,1,FALSE,,,,,,,,,,,,,,,,,,,,,,,,,,,,,,
,5f24891abbc6190706421642,001,2022-04-28_20h13.37.272,classification_task,2021.2.3,MacIntel,59.97361161,5f24891abbc6190706421642,626b377229c10585ec392f89,626b3b16b635dd57debdebf7,,,,,,,,,,,,,,,,,,,,,,,a,1,1.5514,"[""0.195"",""0.574"",""0.824"",""0.965""]","[1,0,1,1]",0,26,26,26,1,0,0,,,1,FALSE,,,,,,,,,,,,,,,,,,,,,,,,,,,,,,
,5f24891abbc6190706421642,001,2022-04-28_20h13.37.272,classification_task,2021.2.3,MacIntel,59.97361161,5f24891abbc6190706421642,626b377229c10585ec392f89,626b3b16b635dd57debdebf7,,,,,,,,,,,,,,,,,,,,,,,a,1,1.9835,"[""0.352"",""0.538"",""0.859"",""0.896""]","[0,1,1,1]",0,27,27,27,1,0,1,,,1,FALSE,,,,,,,,,,,,,,,,,,,,,,,,,,,,,,
,5f24891abbc6190706421642,001,2022-04-28_20h13.37.272,classification_task,2021.2.3,MacIntel,59.97361161,5f24891abbc6190706421642,626b377229c10585ec392f89,626b3b16b635dd57debdebf7,,,,,,,,,,,,,,,,,,,,,,,l,1,1.0545,"[""0.058"",""0.235"",""0.666"",""0.582""]","[1,1,1,0]",0,28,28,28,1,1,1,,,1,FALSE,,,,,,,,,,,,,,,,,,,,,,,,,,,,,,
,5f24891abbc6190706421642,001,2022-04-28_20h13.37.272,classification_task,2021.2.3,MacIntel,59.97361161,5f24891abbc6190706421642,626b377229c10585ec392f89,626b3b16b635dd57debdebf7,,,,,,,,,,,,,,,,,,,,,,,l,1,1.2315,"[""0.142"",""0.271"",""0.099"",""0.777""]","[1,1,0,1]",0,29,29,29,1,1,0,,,1,FALSE,,,,,,,,,,,,,,,,,,,,,,,,,,,,,,
,5f24891abbc6190706421642,001,2022-04-28_20h13.37.272,classification_task,2021.2.3,MacIntel,59.97361161,5f24891abbc6190706421642,626b377229c10585ec392f89,626b3b16b635dd57debdebf7,,,,,,,,,,,,,,,,,,,,,,,l,0,1.5835,"[""0.195"",""0.490"",""0.386"",""0.965""]","[1,1,0,1]",0,30,30,30,1,0,0,,,1,FALSE,,,,,,,,,,,,,,,,,,,,,,,,,,,,,,
,5f24891abbc6190706421642,001,2022-04-28_20h13.37.272,classification_task,2021.2.3,MacIntel,59.97361161,5f24891abbc6190706421642,626b377229c10585ec392f89,626b3b16b635dd57debdebf7,,,,,,,,,,,,,,,,,,,,,,,a,1,1.0111,"[""0.317"",""0.742"",""0.859"",""0.896""]","[1,0,1,1]",0,31,31,31,1,0,1,,,1,FALSE,,,,,,,,,,,,,,,,,,,,,,,,,,,,,,
,5f24891abbc6190706421642,001,2022-04-28_20h13.37.272,classification_task,2021.2.3,MacIntel,59.97361161,5f24891abbc6190706421642,626b377229c10585ec392f89,626b3b16b635dd57debdebf7,,,,,,,,,,,,,,,,,,,,,,,a,1,1.1823,"[""0.317"",""0.352"",""0.859"",""0.896""]","[1,0,1,1]",0,32,32,32,1,0,1,,,1,FALSE,,,,,,,,,,,,,,,,,,,,,,,,,,,,,,
,5f24891abbc6190706421642,001,2022-04-28_20h13.37.272,classification_task,2021.2.3,MacIntel,59.97361161,5f24891abbc6190706421642,626b377229c10585ec392f89,626b3b16b635dd57debdebf7,,,,,,,,,,,,,,,,,,,,,,,a,1,1.2105,"[""0.195"",""0.352"",""0.824"",""0.965""]","[1,0,1,1]",0,33,33,33,1,0,0,,,1,FALSE,,,,,,,,,,,,,,,,,,,,,,,,,,,,,,
,5f24891abbc6190706421642,001,2022-04-28_20h13.37.272,classification_task,2021.2.3,MacIntel,59.97361161,5f24891abbc6190706421642,626b377229c10585ec392f89,626b3b16b635dd57debdebf7,,,,,,,,,,,,,,,,,,,,,,,l,1,0.935,"[""0.574"",""0.271"",""0.630"",""0.777""]","[0,1,1,1]",0,34,34,34,1,1,0,,,1,FALSE,,,,,,,,,,,,,,,,,,,,,,,,,,,,,,
,5f24891abbc6190706421642,001,2022-04-28_20h13.37.272,classification_task,2021.2.3,MacIntel,59.97361161,5f24891abbc6190706421642,626b377229c10585ec392f89,626b3b16b635dd57debdebf7,,,,,,,,,,,,,,,,,,,,,,,a,0,2.0099,"[""0.142"",""0.271"",""0.588"",""0.777""]","[1,1,0,1]",0,35,35,35,1,1,0,,,1,FALSE,,,,,,,,,,,,,,,,,,,,,,,,,,,,,,
,5f24891abbc6190706421642,001,2022-04-28_20h13.37.272,classification_task,2021.2.3,MacIntel,59.97361161,5f24891abbc6190706421642,626b377229c10585ec392f89,626b3b16b635dd57debdebf7,,,,,,,,,,,,,,,,,,,,,,,a,1,0.8722,"[""0.386"",""0.538"",""0.859"",""0.896""]","[0,1,1,1]",0,36,36,36,1,0,1,,,1,FALSE,,,,,,,,,,,,,,,,,,,,,,,,,,,,,,
,5f24891abbc6190706421642,001,2022-04-28_20h13.37.272,classification_task,2021.2.3,MacIntel,59.97361161,5f24891abbc6190706421642,626b377229c10585ec392f89,626b3b16b635dd57debdebf7,,,,,,,,,,,,,,,,,,,,,,,l,1,1.646,"[""0.142"",""0.271"",""0.630"",""0.588""]","[1,1,1,0]",0,37,37,37,1,1,0,,,1,FALSE,,,,,,,,,,,,,,,,,,,,,,,,,,,,,,
,5f24891abbc6190706421642,001,2022-04-28_20h13.37.272,classification_task,2021.2.3,MacIntel,59.97361161,5f24891abbc6190706421642,626b377229c10585ec392f89,626b3b16b635dd57debdebf7,,,,,,,,,,,,,,,,,,,,,,,a,1,1.4634,"[""0.195"",""0.490"",""0.824"",""0.582""]","[1,1,1,0]",0,38,38,38,1,0,0,,,1,FALSE,,,,,,,,,,,,,,,,,,,,,,,,,,,,,,
,5f24891abbc6190706421642,001,2022-04-28_20h13.37.272,classification_task,2021.2.3,MacIntel,59.97361161,5f24891abbc6190706421642,626b377229c10585ec392f89,626b3b16b635dd57debdebf7,,,,,,,,,,,,,,,,,,,,,,,l,1,1.481,"[""0.058"",""0.441"",""0.666"",""0.700""]","[1,0,1,1]",0,39,39,39,1,1,1,,,1,FALSE,,,,,,,,,,,,,,,,,,,,,,,,,,,,,,
,5f24891abbc6190706421642,001,2022-04-28_20h13.37.272,classification_task,2021.2.3,MacIntel,59.97361161,5f24891abbc6190706421642,626b377229c10585ec392f89,626b3b16b635dd57debdebf7,,,,,,,,,,,,,,,,,,,,,,,l,1,0.8873,"[""0.058"",""0.235"",""0.666"",""0.441""]","[1,1,1,0]",0,40,40,40,1,1,1,,,1,FALSE,,,,,,,,,,,,,,,,,,,,,,,,,,,,,,
,5f24891abbc6190706421642,001,2022-04-28_20h13.37.272,classification_task,2021.2.3,MacIntel,59.97361161,5f24891abbc6190706421642,626b377229c10585ec392f89,626b3b16b635dd57debdebf7,,,,,,,,,,,,,,,,,,,,,,,a,1,0.8443,"[""0.317"",""0.538"",""0.371"",""0.896""]","[1,1,0,1]",0,41,41,41,1,0,1,,,1,FALSE,,,,,,,,,,,,,,,,,,,,,,,,,,,,,,
,5f24891abbc6190706421642,001,2022-04-28_20h13.37.272,classification_task,2021.2.3,MacIntel,59.97361161,5f24891abbc6190706421642,626b377229c10585ec392f89,626b3b16b635dd57debdebf7,,,,,,,,,,,,,,,,,,,,,,,l,1,2.5468,"[""0.142"",""0.386"",""0.630"",""0.777""]","[1,0,1,1]",0,42,42,42,1,1,0,,,1,FALSE,,,,,,,,,,,,,,,,,,,,,,,,,,,,,,
,5f24891abbc6190706421642,001,2022-04-28_20h13.37.272,classification_task,2021.2.3,MacIntel,59.97361161,5f24891abbc6190706421642,626b377229c10585ec392f89,626b3b16b635dd57debdebf7,,,,,,,,,,,,,,,,,,,,,,,a,1,0.9319,"[""0.195"",""0.490"",""0.099"",""0.965""]","[1,1,0,1]",0,43,43,43,1,0,0,,,1,FALSE,,,,,,,,,,,,,,,,,,,,,,,,,,,,,,
,5f24891abbc6190706421642,001,2022-04-28_20h13.37.272,classification_task,2021.2.3,MacIntel,59.97361161,5f24891abbc6190706421642,626b377229c10585ec392f89,626b3b16b635dd57debdebf7,,,,,,,,,,,,,,,,,,,,,,,l,1,1.8361,"[""0.058"",""0.235"",""0.588"",""0.700""]","[1,1,0,1]",0,44,44,44,1,1,1,,,1,FALSE,,,,,,,,,,,,,,,,,,,,,,,,,,,,,,
,5f24891abbc6190706421642,001,2022-04-28_20h13.37.272,classification_task,2021.2.3,MacIntel,59.97361161,5f24891abbc6190706421642,626b377229c10585ec392f89,626b3b16b635dd57debdebf7,,,,,,,,,,,,,,,,,,,,,,,l,0,1.7706,"[""0.588"",""0.490"",""0.824"",""0.965""]","[0,1,1,1]",0,45,45,45,1,0,0,,,1,FALSE,,,,,,,,,,,,,,,,,,,,,,,,,,,,,,
,5f24891abbc6190706421642,001,2022-04-28_20h13.37.272,classification_task,2021.2.3,MacIntel,59.97361161,5f24891abbc6190706421642,626b377229c10585ec392f89,626b3b16b635dd57debdebf7,,,,,,,,,,,,,,,,,,,,,,,l,1,1.2773,"[""0.444"",""0.235"",""0.666"",""0.700""]","[0,1,1,1]",0,46,46,46,1,1,1,,,1,FALSE,,,,,,,,,,,,,,,,,,,,,,,,,,,,,,
,5f24891abbc6190706421642,001,2022-04-28_20h13.37.272,classification_task,2021.2.3,MacIntel,59.97361161,5f24891abbc6190706421642,626b377229c10585ec392f89,626b3b16b635dd57debdebf7,,,,,,,,,,,,,,,,,,,,,,,a,1,1.9129,"[""0.317"",""0.538"",""0.859"",""0.371""]","[1,1,1,0]",0,47,47,47,1,0,1,,,1,FALSE,,,,,,,,,,,,,,,,,,,,,,,,,,,,,,
,5f24891abbc6190706421642,001,2022-04-28_20h13.37.272,classification_task,2021.2.3,MacIntel,59.97361161,5f24891abbc6190706421642,626b377229c10585ec392f89,626b3b16b635dd57debdebf7,,,,,,,,,,,,,,,,,,,,,,,l,0,2.0542,"[""0.195"",""0.594"",""0.824"",""0.965""]","[1,0,1,1]",0,48,48,48,1,0,0,,,1,FALSE,,,,,,,,,,,,,,,,,,,,,,,,,,,,,,
,5f24891abbc6190706421642,001,2022-04-28_20h13.37.272,classification_task,2021.2.3,MacIntel,59.97361161,5f24891abbc6190706421642,626b377229c10585ec392f89,626b3b16b635dd57debdebf7,,,,,,,,,,,,,,,,,,,,,,,a,1,2.2827,"[""0.317"",""0.538"",""0.859"",""0.588""]","[1,1,1,0]",0,49,49,49,1,0,1,,,1,FALSE,,,,,,,,,,,,,,,,,,,,,,,,,,,,,,
,5f24891abbc6190706421642,001,2022-04-28_20h13.37.272,classification_task,2021.2.3,MacIntel,59.97361161,5f24891abbc6190706421642,626b377229c10585ec392f89,626b3b16b635dd57debdebf7,,,,,,,,,,,,,,,,,,,,,,,l,1,1.2459,"[""0.058"",""0.099"",""0.666"",""0.700""]","[1,0,1,1]",0,50,50,50,1,1,1,,,1,FALSE,,,,,,,,,,,,,,,,,,,,,,,,,,,,,,
,5f24891abbc6190706421642,001,2022-04-28_20h13.37.272,classification_task,2021.2.3,MacIntel,59.97361161,5f24891abbc6190706421642,626b377229c10585ec392f89,626b3b16b635dd57debdebf7,,,,,,,,,,,,,,,,,,,,,,,l,1,1.3466,"[""0.058"",""0.235"",""0.666"",""0.594""]","[1,1,1,0]",0,51,51,51,1,1,1,,,1,FALSE,,,,,,,,,,,,,,,,,,,,,,,,,,,,,,
,5f24891abbc6190706421642,001,2022-04-28_20h13.37.272,classification_task,2021.2.3,MacIntel,59.97361161,5f24891abbc6190706421642,626b377229c10585ec392f89,626b3b16b635dd57debdebf7,,,,,,,,,,,,,,,,,,,,,,,l,1,1.191,"[""0.142"",""0.271"",""0.630"",""0.386""]","[1,1,1,0]",0,52,52,52,1,1,0,,,1,FALSE,,,,,,,,,,,,,,,,,,,,,,,,,,,,,,
,5f24891abbc6190706421642,001,2022-04-28_20h13.37.272,classification_task,2021.2.3,MacIntel,59.97361161,5f24891abbc6190706421642,626b377229c10585ec392f89,626b3b16b635dd57debdebf7,,,,,,,,,,,,,,,,,,,,,,,a,1,0.8112,"[""0.317"",""0.574"",""0.859"",""0.896""]","[1,0,1,1]",0,53,53,53,1,0,1,,,1,FALSE,,,,,,,,,,,,,,,,,,,,,,,,,,,,,,
,5f24891abbc6190706421642,001,2022-04-28_20h13.37.272,classification_task,2021.2.3,MacIntel,59.97361161,5f24891abbc6190706421642,626b377229c10585ec392f89,626b3b16b635dd57debdebf7,,,,,,,,,,,,,,,,,,,,,,,a,1,2.2308,"[""0.740"",""0.490"",""0.824"",""0.965""]","[0,1,1,1]",0,54,54,54,1,0,0,,,1,FALSE,,,,,,,,,,,,,,,,,,,,,,,,,,,,,,
,5f24891abbc6190706421642,001,2022-04-28_20h13.37.272,classification_task,2021.2.3,MacIntel,59.97361161,5f24891abbc6190706421642,626b377229c10585ec392f89,626b3b16b635dd57debdebf7,,,,,,,,,,,,,,,,,,,,,,,a,0,2.573,"[""0.409"",""0.271"",""0.630"",""0.777""]","[0,1,1,1]",0,55,55,55,1,1,0,,,1,FALSE,,,,,,,,,,,,,,,,,,,,,,,,,,,,,,
,5f24891abbc6190706421642,001,2022-04-28_20h13.37.272,classification_task,2021.2.3,MacIntel,59.97361161,5f24891abbc6190706421642,626b377229c10585ec392f89,626b3b16b635dd57debdebf7,,,,,,,,,,,,,,,,,,,,,,,a,1,2.7937,"[""0.317"",""0.538"",""0.371"",""0.896""]","[1,1,0,1]",0,56,56,56,1,0,1,,,1,FALSE,,,,,,,,,,,,,,,,,,,,,,,,,,,,,,
,5f24891abbc6190706421642,001,2022-04-28_20h13.37.272,classification_task,2021.2.3,MacIntel,59.97361161,5f24891abbc6190706421642,626b377229c10585ec392f89,626b3b16b635dd57debdebf7,,,,,,,,,,,,,,,,,,,,,,,a,0,2.2553,"[""0.142"",""0.098"",""0.630"",""0.777""]","[1,0,1,1]",0,57,57,57,1,1,0,,,1,FALSE,,,,,,,,,,,,,,,,,,,,,,,,,,,,,,
,5f24891abbc6190706421642,001,2022-04-28_20h13.37.272,classification_task,2021.2.3,MacIntel,59.97361161,5f24891abbc6190706421642,626b377229c10585ec392f89,626b3b16b635dd57debdebf7,,,,,,,,,,,,,,,,,,,,,,,l,1,1.4295,"[""0.441"",""0.235"",""0.666"",""0.700""]","[0,1,1,1]",0,58,58,58,1,1,1,,,1,FALSE,,,,,,,,,,,,,,,,,,,,,,,,,,,,,,
,5f24891abbc6190706421642,001,2022-04-28_20h13.37.272,classification_task,2021.2.3,MacIntel,59.97361161,5f24891abbc6190706421642,626b377229c10585ec392f89,626b3b16b635dd57debdebf7,,,,,,,,,,,,,,,,,,,,,,,l,0,1.2859,"[""0.195"",""0.490"",""0.371"",""0.965""]","[1,1,0,1]",0,59,59,59,1,0,0,,,1,FALSE,,,,,,,,,,,,,,,,,,,,,,,,,,,,,,
,5f24891abbc6190706421642,001,2022-04-28_20h13.37.272,classification_task,2021.2.3,MacIntel,59.97361161,5f24891abbc6190706421642,626b377229c10585ec392f89,626b3b16b635dd57debdebf7,,,,,,,,,,,,,,,,,,,,,,,a,1,1.5342,"[""0.195"",""0.490"",""0.824"",""0.371""]","[1,1,1,0]",0,60,60,60,1,0,0,,,1,FALSE,,,,,,,,,,,,,,,,,,,,,,,,,,,,,,
,5f24891abbc6190706421642,001,2022-04-28_20h13.37.272,classification_task,2021.2.3,MacIntel,59.97361161,5f24891abbc6190706421642,626b377229c10585ec392f89,626b3b16b635dd57debdebf7,,,,,,,,,,,,,,,,,,,,,,,a,1,1.244,"[""0.386"",""0.538"",""0.859"",""0.896""]","[0,1,1,1]",0,61,61,61,1,0,1,,,1,FALSE,,,,,,,,,,,,,,,,,,,,,,,,,,,,,,
,5f24891abbc6190706421642,001,2022-04-28_20h13.37.272,classification_task,2021.2.3,MacIntel,59.97361161,5f24891abbc6190706421642,626b377229c10585ec392f89,626b3b16b635dd57debdebf7,,,,,,,,,,,,,,,,,,,,,,,a,0,2.1811,"[""0.142"",""0.271"",""0.444"",""0.777""]","[1,1,0,1]",0,62,62,62,1,1,0,,,1,FALSE,,,,,,,,,,,,,,,,,,,,,,,,,,,,,,
,5f24891abbc6190706421642,001,2022-04-28_20h13.37.272,classification_task,2021.2.3,MacIntel,59.97361161,5f24891abbc6190706421642,626b377229c10585ec392f89,626b3b16b635dd57debdebf7,,,,,,,,,,,,,,,,,,,,,,,l,1,2.3349,"[""0.058"",""0.235"",""0.099"",""0.700""]","[1,1,0,1]",0,63,63,63,1,1,1,,,1,FALSE,,,,,,,,,,,,,,,,,,,,,,,,,,,,,,
,5f24891abbc6190706421642,001,2022-04-28_20h13.37.272,classification_task,2021.2.3,MacIntel,59.97361161,5f24891abbc6190706421642,626b377229c10585ec392f89,626b3b16b635dd57debdebf7,,,,,,,,,,,,,,,,,,,,,,,,,,,,,,,,,,,,,,,0, ,,0,5.763104959,213.2813,0,1,1,1,1,2,2,,,,,,,,,,,,,,,,,
,5f24891abbc6190706421642,001,2022-04-28_20h13.37.272,classification_task,2021.2.3,MacIntel,59.97361161,5f24891abbc6190706421642,626b377229c10585ec392f89,626b3b16b635dd57debdebf7,,,,,,,,,,,,,,,,,,,,,,,,,,,,,,,,,,,,,,,1,  ,,0,9.005966994,217.6041,0,1,1,1,1,2,2,,,,,,,,,,,,,,,,,
,5f24891abbc6190706421642,001,2022-04-28_20h13.37.272,classification_task,2021.2.3,MacIntel,59.97361161,5f24891abbc6190706421642,626b377229c10585ec392f89,626b3b16b635dd57debdebf7,,,,,,,,,,,,,,,,,,,,,,,,,,,,,,,,,,,,,,,2,  ,,0,3.340598616,221.1719,0,1,1,1,1,2,2,,,,,,,,,,,,,,,,,
,5f24891abbc6190706421642,001,2022-04-28_20h13.37.272,classification_task,2021.2.3,MacIntel,59.97361161,5f24891abbc6190706421642,626b377229c10585ec392f89,626b3b16b635dd57debdebf7,,,,,,,,,,,,,,,,,,,,,,,,,,,,,,,,,,,,,,,,,,,,,0,1,1,1,1,,2,,,,,,,,,,,,,,,,,
,5f24891abbc6190706421642,001,2022-04-28_20h13.37.272,classification_task,2021.2.3,MacIntel,59.97361161,5f24891abbc6190706421642,626b377229c10585ec392f89,626b3b16b635dd57debdebf7,,,,,,,,,,,,,,,,,,,,,space,15.4948,l,1,2.5295,"[""0.142"",""0.271"",""0.630"",""0.574""]","[1,1,1,0]",0,0,0,0,1,1,0,,,1,FALSE,,,,,,,,,,,,,,,,,,,,,,,,,,,,,,
,5f24891abbc6190706421642,001,2022-04-28_20h13.37.272,classification_task,2021.2.3,MacIntel,59.97361161,5f24891abbc6190706421642,626b377229c10585ec392f89,626b3b16b635dd57debdebf7,,,,,,,,,,,,,,,,,,,,,,,a,1,2.6018,"[""0.098"",""0.538"",""0.859"",""0.896""]","[0,1,1,1]",0,1,1,1,1,0,1,,,1,FALSE,,,,,,,,,,,,,,,,,,,,,,,,,,,,,,
,5f24891abbc6190706421642,001,2022-04-28_20h13.37.272,classification_task,2021.2.3,MacIntel,59.97361161,5f24891abbc6190706421642,626b377229c10585ec392f89,626b3b16b635dd57debdebf7,,,,,,,,,,,,,,,,,,,,,,,l,1,1.6921,"[""0.740"",""0.271"",""0.630"",""0.777""]","[0,1,1,1]",0,2,2,2,1,1,0,,,1,FALSE,,,,,,,,,,,,,,,,,,,,,,,,,,,,,,
,5f24891abbc6190706421642,001,2022-04-28_20h13.37.272,classification_task,2021.2.3,MacIntel,59.97361161,5f24891abbc6190706421642,626b377229c10585ec392f89,626b3b16b635dd57debdebf7,,,,,,,,,,,,,,,,,,,,,,,l,0,2.2321,"[""0.195"",""0.490"",""0.099"",""0.965""]","[1,1,0,1]",0,3,3,3,1,0,0,,,1,FALSE,,,,,,,,,,,,,,,,,,,,,,,,,,,,,,
,5f24891abbc6190706421642,001,2022-04-28_20h13.37.272,classification_task,2021.2.3,MacIntel,59.97361161,5f24891abbc6190706421642,626b377229c10585ec392f89,626b3b16b635dd57debdebf7,,,,,,,,,,,,,,,,,,,,,,,l,0,2.9638,"[""0.195"",""0.490"",""0.824"",""0.386""]","[1,1,1,0]",0,4,4,4,1,0,0,,,1,FALSE,,,,,,,,,,,,,,,,,,,,,,,,,,,,,,
,5f24891abbc6190706421642,001,2022-04-28_20h13.37.272,classification_task,2021.2.3,MacIntel,59.97361161,5f24891abbc6190706421642,626b377229c10585ec392f89,626b3b16b635dd57debdebf7,,,,,,,,,,,,,,,,,,,,,,,a,1,1.4257,"[""0.195"",""0.594"",""0.824"",""0.965""]","[1,0,1,1]",0,5,5,5,1,0,0,,,1,FALSE,,,,,,,,,,,,,,,,,,,,,,,,,,,,,,
,5f24891abbc6190706421642,001,2022-04-28_20h13.37.272,classification_task,2021.2.3,MacIntel,59.97361161,5f24891abbc6190706421642,626b377229c10585ec392f89,626b3b16b635dd57debdebf7,,,,,,,,,,,,,,,,,,,,,,,l,1,1.2521,"[""0.444"",""0.235"",""0.666"",""0.700""]","[0,1,1,1]",0,6,6,6,1,1,1,,,1,FALSE,,,,,,,,,,,,,,,,,,,,,,,,,,,,,,
,5f24891abbc6190706421642,001,2022-04-28_20h13.37.272,classification_task,2021.2.3,MacIntel,59.97361161,5f24891abbc6190706421642,626b377229c10585ec392f89,626b3b16b635dd57debdebf7,,,,,,,,,,,,,,,,,,,,,,,l,1,1.2157,"[""0.058"",""0.444"",""0.666"",""0.700""]","[1,0,1,1]",0,7,7,7,1,1,1,,,1,FALSE,,,,,,,,,,,,,,,,,,,,,,,,,,,,,,
,5f24891abbc6190706421642,001,2022-04-28_20h13.37.272,classification_task,2021.2.3,MacIntel,59.97361161,5f24891abbc6190706421642,626b377229c10585ec392f89,626b3b16b635dd57debdebf7,,,,,,,,,,,,,,,,,,,,,,,a,1,1.1454,"[""0.582"",""0.490"",""0.824"",""0.965""]","[0,1,1,1]",0,8,8,8,1,0,0,,,1,FALSE,,,,,,,,,,,,,,,,,,,,,,,,,,,,,,
,5f24891abbc6190706421642,001,2022-04-28_20h13.37.272,classification_task,2021.2.3,MacIntel,59.97361161,5f24891abbc6190706421642,626b377229c10585ec392f89,626b3b16b635dd57debdebf7,,,,,,,,,,,,,,,,,,,,,,,l,1,1.132,"[""0.058"",""0.235"",""0.666"",""0.588""]","[1,1,1,0]",0,9,9,9,1,1,1,,,1,FALSE,,,,,,,,,,,,,,,,,,,,,,,,,,,,,,
,5f24891abbc6190706421642,001,2022-04-28_20h13.37.272,classification_task,2021.2.3,MacIntel,59.97361161,5f24891abbc6190706421642,626b377229c10585ec392f89,626b3b16b635dd57debdebf7,,,,,,,,,,,,,,,,,,,,,,,a,0,2.1372,"[""0.058"",""0.235"",""0.386"",""0.700""]","[1,1,0,1]",0,10,10,10,1,1,1,,,1,FALSE,,,,,,,,,,,,,,,,,,,,,,,,,,,,,,
,5f24891abbc6190706421642,001,2022-04-28_20h13.37.272,classification_task,2021.2.3,MacIntel,59.97361161,5f24891abbc6190706421642,626b377229c10585ec392f89,626b3b16b635dd57debdebf7,,,,,,,,,,,,,,,,,,,,,,,l,1,1.3835,"[""0.142"",""0.444"",""0.630"",""0.777""]","[1,0,1,1]",0,11,11,11,1,1,0,,,1,FALSE,,,,,,,,,,,,,,,,,,,,,,,,,,,,,,
,5f24891abbc6190706421642,001,2022-04-28_20h13.37.272,classification_task,2021.2.3,MacIntel,59.97361161,5f24891abbc6190706421642,626b377229c10585ec392f89,626b3b16b635dd57debdebf7,,,,,,,,,,,,,,,,,,,,,,,a,1,1.1033,"[""0.317"",""0.386"",""0.859"",""0.896""]","[1,0,1,1]",0,12,12,12,1,0,1,,,1,FALSE,,,,,,,,,,,,,,,,,,,,,,,,,,,,,,
,5f24891abbc6190706421642,001,2022-04-28_20h13.37.272,classification_task,2021.2.3,MacIntel,59.97361161,5f24891abbc6190706421642,626b377229c10585ec392f89,626b3b16b635dd57debdebf7,,,,,,,,,,,,,,,,,,,,,,,a,1,3.2517,"[""0.317"",""0.538"",""0.444"",""0.896""]","[1,1,0,1]",0,13,13,13,1,0,1,,,1,FALSE,,,,,,,,,,,,,,,,,,,,,,,,,,,,,,
,5f24891abbc6190706421642,001,2022-04-28_20h13.37.272,classification_task,2021.2.3,MacIntel,59.97361161,5f24891abbc6190706421642,626b377229c10585ec392f89,626b3b16b635dd57debdebf7,,,,,,,,,,,,,,,,,,,,,,,l,0,1.6441,"[""0.317"",""0.538"",""0.859"",""0.582""]","[1,1,1,0]",0,14,14,14,1,0,1,,,1,FALSE,,,,,,,,,,,,,,,,,,,,,,,,,,,,,,
,5f24891abbc6190706421642,001,2022-04-28_20h13.37.272,classification_task,2021.2.3,MacIntel,59.97361161,5f24891abbc6190706421642,626b377229c10585ec392f89,626b3b16b635dd57debdebf7,,,,,,,,,,,,,,,,,,,,,,,a,0,1.4514,"[""0.142"",""0.271"",""0.371"",""0.777""]","[1,1,0,1]",0,15,15,15,1,1,0,,,1,FALSE,,,,,,,,,,,,,,,,,,,,,,,,,,,,,,
,5f24891abbc6190706421642,001,2022-04-28_20h13.37.272,classification_task,2021.2.3,MacIntel,59.97361161,5f24891abbc6190706421642,626b377229c10585ec392f89,626b3b16b635dd57debdebf7,,,,,,,,,,,,,,,,,,,,,,,a,1,1.1805,"[""0.099"",""0.490"",""0.824"",""0.965""]","[0,1,1,1]",0,16,16,16,1,0,0,,,1,FALSE,,,,,,,,,,,,,,,,,,,,,,,,,,,,,,
,5f24891abbc6190706421642,001,2022-04-28_20h13.37.272,classification_task,2021.2.3,MacIntel,59.97361161,5f24891abbc6190706421642,626b377229c10585ec392f89,626b3b16b635dd57debdebf7,,,,,,,,,,,,,,,,,,,,,,,a,1,1.3981,"[""0.195"",""0.490"",""0.574"",""0.965""]","[1,1,0,1]",0,17,17,17,1,0,0,,,1,FALSE,,,,,,,,,,,,,,,,,,,,,,,,,,,,,,
,5f24891abbc6190706421642,001,2022-04-28_20h13.37.272,classification_task,2021.2.3,MacIntel,59.97361161,5f24891abbc6190706421642,626b377229c10585ec392f89,626b3b16b635dd57debdebf7,,,,,,,,,,,,,,,,,,,,,,,l,0,1.6644,"[""0.317"",""0.538"",""0.099"",""0.896""]","[1,1,0,1]",0,18,18,18,1,0,1,,,1,FALSE,,,,,,,,,,,,,,,,,,,,,,,,,,,,,,
,5f24891abbc6190706421642,001,2022-04-28_20h13.37.272,classification_task,2021.2.3,MacIntel,59.97361161,5f24891abbc6190706421642,626b377229c10585ec392f89,626b3b16b635dd57debdebf7,,,,,,,,,,,,,,,,,,,,,,,a,0,1.3427,"[""0.058"",""0.235"",""0.666"",""0.409""]","[1,1,1,0]",0,19,19,19,1,1,1,,,1,FALSE,,,,,,,,,,,,,,,,,,,,,,,,,,,,,,
,5f24891abbc6190706421642,001,2022-04-28_20h13.37.272,classification_task,2021.2.3,MacIntel,59.97361161,5f24891abbc6190706421642,626b377229c10585ec392f89,626b3b16b635dd57debdebf7,,,,,,,,,,,,,,,,,,,,,,,l,1,0.9465,"[""0.058"",""0.594"",""0.666"",""0.700""]","[1,0,1,1]",0,20,20,20,1,1,1,,,1,FALSE,,,,,,,,,,,,,,,,,,,,,,,,,,,,,,
,5f24891abbc6190706421642,001,2022-04-28_20h13.37.272,classification_task,2021.2.3,MacIntel,59.97361161,5f24891abbc6190706421642,626b377229c10585ec392f89,626b3b16b635dd57debdebf7,,,,,,,,,,,,,,,,,,,,,,,a,0,1.9517,"[""0.371"",""0.271"",""0.630"",""0.777""]","[0,1,1,1]",0,21,21,21,1,1,0,,,1,FALSE,,,,,,,,,,,,,,,,,,,,,,,,,,,,,,
,5f24891abbc6190706421642,001,2022-04-28_20h13.37.272,classification_task,2021.2.3,MacIntel,59.97361161,5f24891abbc6190706421642,626b377229c10585ec392f89,626b3b16b635dd57debdebf7,,,,,,,,,,,,,,,,,,,,,,,a,1,1.0834,"[""0.740"",""0.538"",""0.859"",""0.896""]","[0,1,1,1]",0,22,22,22,1,0,1,,,1,FALSE,,,,,,,,,,,,,,,,,,,,,,,,,,,,,,
,5f24891abbc6190706421642,001,2022-04-28_20h13.37.272,classification_task,2021.2.3,MacIntel,59.97361161,5f24891abbc6190706421642,626b377229c10585ec392f89,626b3b16b635dd57debdebf7,,,,,,,,,,,,,,,,,,,,,,,l,1,0.7696,"[""0.574"",""0.235"",""0.666"",""0.700""]","[0,1,1,1]",0,23,23,23,1,1,1,,,1,FALSE,,,,,,,,,,,,,,,,,,,,,,,,,,,,,,
,5f24891abbc6190706421642,001,2022-04-28_20h13.37.272,classification_task,2021.2.3,MacIntel,59.97361161,5f24891abbc6190706421642,626b377229c10585ec392f89,626b3b16b635dd57debdebf7,,,,,,,,,,,,,,,,,,,,,,,a,0,1.3524,"[""0.142"",""0.271"",""0.444"",""0.777""]","[1,1,0,1]",0,24,24,24,1,1,0,,,1,FALSE,,,,,,,,,,,,,,,,,,,,,,,,,,,,,,
,5f24891abbc6190706421642,001,2022-04-28_20h13.37.272,classification_task,2021.2.3,MacIntel,59.97361161,5f24891abbc6190706421642,626b377229c10585ec392f89,626b3b16b635dd57debdebf7,,,,,,,,,,,,,,,,,,,,,,,l,1,0.9828,"[""0.142"",""0.740"",""0.630"",""0.777""]","[1,0,1,1]",0,25,25,25,1,1,0,,,1,FALSE,,,,,,,,,,,,,,,,,,,,,,,,,,,,,,
,5f24891abbc6190706421642,001,2022-04-28_20h13.37.272,classification_task,2021.2.3,MacIntel,59.97361161,5f24891abbc6190706421642,626b377229c10585ec392f89,626b3b16b635dd57debdebf7,,,,,,,,,,,,,,,,,,,,,,,a,1,1.0492,"[""0.195"",""0.490"",""0.824"",""0.352""]","[1,1,1,0]",0,26,26,26,1,0,0,,,1,FALSE,,,,,,,,,,,,,,,,,,,,,,,,,,,,,,
,5f24891abbc6190706421642,001,2022-04-28_20h13.37.272,classification_task,2021.2.3,MacIntel,59.97361161,5f24891abbc6190706421642,626b377229c10585ec392f89,626b3b16b635dd57debdebf7,,,,,,,,,,,,,,,,,,,,,,,a,1,1.1853,"[""0.195"",""0.578"",""0.824"",""0.965""]","[1,0,1,1]",0,27,27,27,1,0,0,,,1,FALSE,,,,,,,,,,,,,,,,,,,,,,,,,,,,,,
,5f24891abbc6190706421642,001,2022-04-28_20h13.37.272,classification_task,2021.2.3,MacIntel,59.97361161,5f24891abbc6190706421642,626b377229c10585ec392f89,626b3b16b635dd57debdebf7,,,,,,,,,,,,,,,,,,,,,,,l,1,1.5509,"[""0.142"",""0.271"",""0.630"",""0.582""]","[1,1,1,0]",0,28,28,28,1,1,0,,,1,FALSE,,,,,,,,,,,,,,,,,,,,,,,,,,,,,,
,5f24891abbc6190706421642,001,2022-04-28_20h13.37.272,classification_task,2021.2.3,MacIntel,59.97361161,5f24891abbc6190706421642,626b377229c10585ec392f89,626b3b16b635dd57debdebf7,,,,,,,,,,,,,,,,,,,,,,,l,0,1.3848,"[""0.317"",""0.538"",""0.859"",""0.582""]","[1,1,1,0]",0,29,29,29,1,0,1,,,1,FALSE,,,,,,,,,,,,,,,,,,,,,,,,,,,,,,
,5f24891abbc6190706421642,001,2022-04-28_20h13.37.272,classification_task,2021.2.3,MacIntel,59.97361161,5f24891abbc6190706421642,626b377229c10585ec392f89,626b3b16b635dd57debdebf7,,,,,,,,,,,,,,,,,,,,,,,a,1,1.4148,"[""0.317"",""0.099"",""0.859"",""0.896""]","[1,0,1,1]",0,30,30,30,1,0,1,,,1,FALSE,,,,,,,,,,,,,,,,,,,,,,,,,,,,,,
,5f24891abbc6190706421642,001,2022-04-28_20h13.37.272,classification_task,2021.2.3,MacIntel,59.97361161,5f24891abbc6190706421642,626b377229c10585ec392f89,626b3b16b635dd57debdebf7,,,,,,,,,,,,,,,,,,,,,,,a,0,1.1162,"[""0.058"",""0.235"",""0.444"",""0.700""]","[1,1,0,1]",0,31,31,31,1,1,1,,,1,FALSE,,,,,,,,,,,,,,,,,,,,,,,,,,,,,,
,5f24891abbc6190706421642,001,2022-04-28_20h13.37.272,classification_task,2021.2.3,MacIntel,59.97361161,5f24891abbc6190706421642,626b377229c10585ec392f89,626b3b16b635dd57debdebf7,,,,,,,,,,,,,,,,,,,,,,,l,1,1.1069,"[""0.142"",""0.271"",""0.441"",""0.777""]","[1,1,0,1]",0,32,32,32,1,1,0,,,1,FALSE,,,,,,,,,,,,,,,,,,,,,,,,,,,,,,
,5f24891abbc6190706421642,001,2022-04-28_20h13.37.272,classification_task,2021.2.3,MacIntel,59.97361161,5f24891abbc6190706421642,626b377229c10585ec392f89,626b3b16b635dd57debdebf7,,,,,,,,,,,,,,,,,,,,,,,l,1,1.3673,"[""0.142"",""0.271"",""0.630"",""0.574""]","[1,1,1,0]",0,33,33,33,1,1,0,,,1,FALSE,,,,,,,,,,,,,,,,,,,,,,,,,,,,,,
,5f24891abbc6190706421642,001,2022-04-28_20h13.37.272,classification_task,2021.2.3,MacIntel,59.97361161,5f24891abbc6190706421642,626b377229c10585ec392f89,626b3b16b635dd57debdebf7,,,,,,,,,,,,,,,,,,,,,,,a,1,0.9838,"[""0.409"",""0.538"",""0.859"",""0.896""]","[0,1,1,1]",0,34,34,34,1,0,1,,,1,FALSE,,,,,,,,,,,,,,,,,,,,,,,,,,,,,,
,5f24891abbc6190706421642,001,2022-04-28_20h13.37.272,classification_task,2021.2.3,MacIntel,59.97361161,5f24891abbc6190706421642,626b377229c10585ec392f89,626b3b16b635dd57debdebf7,,,,,,,,,,,,,,,,,,,,,,,a,1,0.8498,"[""0.317"",""0.386"",""0.859"",""0.896""]","[1,0,1,1]",0,35,35,35,1,0,1,,,1,FALSE,,,,,,,,,,,,,,,,,,,,,,,,,,,,,,
,5f24891abbc6190706421642,001,2022-04-28_20h13.37.272,classification_task,2021.2.3,MacIntel,59.97361161,5f24891abbc6190706421642,626b377229c10585ec392f89,626b3b16b635dd57debdebf7,,,,,,,,,,,,,,,,,,,,,,,l,1,1.3676,"[""0.058"",""0.386"",""0.666"",""0.700""]","[1,0,1,1]",0,36,36,36,1,1,1,,,1,FALSE,,,,,,,,,,,,,,,,,,,,,,,,,,,,,,
,5f24891abbc6190706421642,001,2022-04-28_20h13.37.272,classification_task,2021.2.3,MacIntel,59.97361161,5f24891abbc6190706421642,626b377229c10585ec392f89,626b3b16b635dd57debdebf7,,,,,,,,,,,,,,,,,,,,,,,a,1,2.2643,"[""0.444"",""0.490"",""0.824"",""0.965""]","[0,1,1,1]",0,37,37,37,1,0,0,,,1,FALSE,,,,,,,,,,,,,,,,,,,,,,,,,,,,,,
,5f24891abbc6190706421642,001,2022-04-28_20h13.37.272,classification_task,2021.2.3,MacIntel,59.97361161,5f24891abbc6190706421642,626b377229c10585ec392f89,626b3b16b635dd57debdebf7,,,,,,,,,,,,,,,,,,,,,,,a,1,1.7266,"[""0.317"",""0.538"",""0.444"",""0.896""]","[1,1,0,1]",0,38,38,38,1,0,1,,,1,FALSE,,,,,,,,,,,,,,,,,,,,,,,,,,,,,,
,5f24891abbc6190706421642,001,2022-04-28_20h13.37.272,classification_task,2021.2.3,MacIntel,59.97361161,5f24891abbc6190706421642,626b377229c10585ec392f89,626b3b16b635dd57debdebf7,,,,,,,,,,,,,,,,,,,,,,,l,1,1.0035,"[""0.058"",""0.235"",""0.666"",""0.409""]","[1,1,1,0]",0,39,39,39,1,1,1,,,1,FALSE,,,,,,,,,,,,,,,,,,,,,,,,,,,,,,
,5f24891abbc6190706421642,001,2022-04-28_20h13.37.272,classification_task,2021.2.3,MacIntel,59.97361161,5f24891abbc6190706421642,626b377229c10585ec392f89,626b3b16b635dd57debdebf7,,,,,,,,,,,,,,,,,,,,,,,l,1,1.2229,"[""0.142"",""0.578"",""0.630"",""0.777""]","[1,0,1,1]",0,40,40,40,1,1,0,,,1,FALSE,,,,,,,,,,,,,,,,,,,,,,,,,,,,,,
,5f24891abbc6190706421642,001,2022-04-28_20h13.37.272,classification_task,2021.2.3,MacIntel,59.97361161,5f24891abbc6190706421642,626b377229c10585ec392f89,626b3b16b635dd57debdebf7,,,,,,,,,,,,,,,,,,,,,,,l,1,0.8354,"[""0.594"",""0.235"",""0.666"",""0.700""]","[0,1,1,1]",0,41,41,41,1,1,1,,,1,FALSE,,,,,,,,,,,,,,,,,,,,,,,,,,,,,,
,5f24891abbc6190706421642,001,2022-04-28_20h13.37.272,classification_task,2021.2.3,MacIntel,59.97361161,5f24891abbc6190706421642,626b377229c10585ec392f89,626b3b16b635dd57debdebf7,,,,,,,,,,,,,,,,,,,,,,,l,1,0.5036,"[""0.058"",""0.235"",""0.740"",""0.700""]","[1,1,0,1]",0,42,42,42,1,1,1,,,1,FALSE,,,,,,,,,,,,,,,,,,,,,,,,,,,,,,
,5f24891abbc6190706421642,001,2022-04-28_20h13.37.272,classification_task,2021.2.3,MacIntel,59.97361161,5f24891abbc6190706421642,626b377229c10585ec392f89,626b3b16b635dd57debdebf7,,,,,,,,,,,,,,,,,,,,,,,a,1,0.868,"[""0.195"",""0.490"",""0.441"",""0.965""]","[1,1,0,1]",0,43,43,43,1,0,0,,,1,FALSE,,,,,,,,,,,,,,,,,,,,,,,,,,,,,,
,5f24891abbc6190706421642,001,2022-04-28_20h13.37.272,classification_task,2021.2.3,MacIntel,59.97361161,5f24891abbc6190706421642,626b377229c10585ec392f89,626b3b16b635dd57debdebf7,,,,,,,,,,,,,,,,,,,,,,,l,0,2.2633,"[""0.317"",""0.538"",""0.859"",""0.352""]","[1,1,1,0]",0,44,44,44,1,0,1,,,1,FALSE,,,,,,,,,,,,,,,,,,,,,,,,,,,,,,
,5f24891abbc6190706421642,001,2022-04-28_20h13.37.272,classification_task,2021.2.3,MacIntel,59.97361161,5f24891abbc6190706421642,626b377229c10585ec392f89,626b3b16b635dd57debdebf7,,,,,,,,,,,,,,,,,,,,,,,a,1,1.1672,"[""0.195"",""0.742"",""0.824"",""0.965""]","[1,0,1,1]",0,45,45,45,1,0,0,,,1,FALSE,,,,,,,,,,,,,,,,,,,,,,,,,,,,,,
,5f24891abbc6190706421642,001,2022-04-28_20h13.37.272,classification_task,2021.2.3,MacIntel,59.97361161,5f24891abbc6190706421642,626b377229c10585ec392f89,626b3b16b635dd57debdebf7,,,,,,,,,,,,,,,,,,,,,,,a,1,1.1853,"[""0.195"",""0.490"",""0.824"",""0.578""]","[1,1,1,0]",0,46,46,46,1,0,0,,,1,FALSE,,,,,,,,,,,,,,,,,,,,,,,,,,,,,,
,5f24891abbc6190706421642,001,2022-04-28_20h13.37.272,classification_task,2021.2.3,MacIntel,59.97361161,5f24891abbc6190706421642,626b377229c10585ec392f89,626b3b16b635dd57debdebf7,,,,,,,,,,,,,,,,,,,,,,,l,1,1.1789,"[""0.098"",""0.271"",""0.630"",""0.777""]","[0,1,1,1]",0,47,47,47,1,1,0,,,1,FALSE,,,,,,,,,,,,,,,,,,,,,,,,,,,,,,
,5f24891abbc6190706421642,001,2022-04-28_20h13.37.272,classification_task,2021.2.3,MacIntel,59.97361161,5f24891abbc6190706421642,626b377229c10585ec392f89,626b3b16b635dd57debdebf7,,,,,,,,,,,,,,,,,,,,,,,a,0,0.9237,"[""0.142"",""0.271"",""0.630"",""0.352""]","[1,1,1,0]",0,48,48,48,1,1,0,,,1,FALSE,,,,,,,,,,,,,,,,,,,,,,,,,,,,,,
,5f24891abbc6190706421642,001,2022-04-28_20h13.37.272,classification_task,2021.2.3,MacIntel,59.97361161,5f24891abbc6190706421642,626b377229c10585ec392f89,626b3b16b635dd57debdebf7,,,,,,,,,,,,,,,,,,,,,,,a,1,1.2831,"[""0.195"",""0.742"",""0.824"",""0.965""]","[1,0,1,1]",0,49,49,49,1,0,0,,,1,FALSE,,,,,,,,,,,,,,,,,,,,,,,,,,,,,,
,5f24891abbc6190706421642,001,2022-04-28_20h13.37.272,classification_task,2021.2.3,MacIntel,59.97361161,5f24891abbc6190706421642,626b377229c10585ec392f89,626b3b16b635dd57debdebf7,,,,,,,,,,,,,,,,,,,,,,,a,1,1.7682,"[""0.317"",""0.538"",""0.099"",""0.896""]","[1,1,0,1]",0,50,50,50,1,0,1,,,1,FALSE,,,,,,,,,,,,,,,,,,,,,,,,,,,,,,
,5f24891abbc6190706421642,001,2022-04-28_20h13.37.272,classification_task,2021.2.3,MacIntel,59.97361161,5f24891abbc6190706421642,626b377229c10585ec392f89,626b3b16b635dd57debdebf7,,,,,,,,,,,,,,,,,,,,,,,a,1,1.3489,"[""0.742"",""0.490"",""0.824"",""0.965""]","[0,1,1,1]",0,51,51,51,1,0,0,,,1,FALSE,,,,,,,,,,,,,,,,,,,,,,,,,,,,,,
,5f24891abbc6190706421642,001,2022-04-28_20h13.37.272,classification_task,2021.2.3,MacIntel,59.97361161,5f24891abbc6190706421642,626b377229c10585ec392f89,626b3b16b635dd57debdebf7,,,,,,,,,,,,,,,,,,,,,,,a,1,1.4456,"[""0.195"",""0.490"",""0.824"",""0.594""]","[1,1,1,0]",0,52,52,52,1,0,0,,,1,FALSE,,,,,,,,,,,,,,,,,,,,,,,,,,,,,,
,5f24891abbc6190706421642,001,2022-04-28_20h13.37.272,classification_task,2021.2.3,MacIntel,59.97361161,5f24891abbc6190706421642,626b377229c10585ec392f89,626b3b16b635dd57debdebf7,,,,,,,,,,,,,,,,,,,,,,,l,1,0.7414,"[""0.142"",""0.582"",""0.630"",""0.777""]","[1,0,1,1]",0,53,53,53,1,1,0,,,1,FALSE,,,,,,,,,,,,,,,,,,,,,,,,,,,,,,
,5f24891abbc6190706421642,001,2022-04-28_20h13.37.272,classification_task,2021.2.3,MacIntel,59.97361161,5f24891abbc6190706421642,626b377229c10585ec392f89,626b3b16b635dd57debdebf7,,,,,,,,,,,,,,,,,,,,,,,a,1,1.0839,"[""0.195"",""0.490"",""0.371"",""0.965""]","[1,1,0,1]",0,54,54,54,1,0,0,,,1,FALSE,,,,,,,,,,,,,,,,,,,,,,,,,,,,,,
,5f24891abbc6190706421642,001,2022-04-28_20h13.37.272,classification_task,2021.2.3,MacIntel,59.97361161,5f24891abbc6190706421642,626b377229c10585ec392f89,626b3b16b635dd57debdebf7,,,,,,,,,,,,,,,,,,,,,,,a,0,1.205,"[""0.098"",""0.271"",""0.630"",""0.777""]","[0,1,1,1]",0,55,55,55,1,1,0,,,1,FALSE,,,,,,,,,,,,,,,,,,,,,,,,,,,,,,
,5f24891abbc6190706421642,001,2022-04-28_20h13.37.272,classification_task,2021.2.3,MacIntel,59.97361161,5f24891abbc6190706421642,626b377229c10585ec392f89,626b3b16b635dd57debdebf7,,,,,,,,,,,,,,,,,,,,,,,l,1,1.0813,"[""0.058"",""0.742"",""0.666"",""0.700""]","[1,0,1,1]",0,56,56,56,1,1,1,,,1,FALSE,,,,,,,,,,,,,,,,,,,,,,,,,,,,,,
,5f24891abbc6190706421642,001,2022-04-28_20h13.37.272,classification_task,2021.2.3,MacIntel,59.97361161,5f24891abbc6190706421642,626b377229c10585ec392f89,626b3b16b635dd57debdebf7,,,,,,,,,,,,,,,,,,,,,,,l,1,1.0492,"[""0.058"",""0.235"",""0.099"",""0.700""]","[1,1,0,1]",0,57,57,57,1,1,1,,,1,FALSE,,,,,,,,,,,,,,,,,,,,,,,,,,,,,,
,5f24891abbc6190706421642,001,2022-04-28_20h13.37.272,classification_task,2021.2.3,MacIntel,59.97361161,5f24891abbc6190706421642,626b377229c10585ec392f89,626b3b16b635dd57debdebf7,,,,,,,,,,,,,,,,,,,,,,,a,1,1.1028,"[""0.317"",""0.578"",""0.859"",""0.896""]","[1,0,1,1]",0,58,58,58,1,0,1,,,1,FALSE,,,,,,,,,,,,,,,,,,,,,,,,,,,,,,
,5f24891abbc6190706421642,001,2022-04-28_20h13.37.272,classification_task,2021.2.3,MacIntel,59.97361161,5f24891abbc6190706421642,626b377229c10585ec392f89,626b3b16b635dd57debdebf7,,,,,,,,,,,,,,,,,,,,,,,l,1,0.9982,"[""0.441"",""0.235"",""0.666"",""0.700""]","[0,1,1,1]",0,59,59,59,1,1,1,,,1,FALSE,,,,,,,,,,,,,,,,,,,,,,,,,,,,,,
,5f24891abbc6190706421642,001,2022-04-28_20h13.37.272,classification_task,2021.2.3,MacIntel,59.97361161,5f24891abbc6190706421642,626b377229c10585ec392f89,626b3b16b635dd57debdebf7,,,,,,,,,,,,,,,,,,,,,,,a,0,2.2498,"[""0.142"",""0.271"",""0.386"",""0.777""]","[1,1,0,1]",0,60,60,60,1,1,0,,,1,FALSE,,,,,,,,,,,,,,,,,,,,,,,,,,,,,,
,5f24891abbc6190706421642,001,2022-04-28_20h13.37.272,classification_task,2021.2.3,MacIntel,59.97361161,5f24891abbc6190706421642,626b377229c10585ec392f89,626b3b16b635dd57debdebf7,,,,,,,,,,,,,,,,,,,,,,,a,0,0.9969,"[""0.058"",""0.235"",""0.666"",""0.444""]","[1,1,1,0]",0,61,61,61,1,1,1,,,1,FALSE,,,,,,,,,,,,,,,,,,,,,,,,,,,,,,
,5f24891abbc6190706421642,001,2022-04-28_20h13.37.272,classification_task,2021.2.3,MacIntel,59.97361161,5f24891abbc6190706421642,626b377229c10585ec392f89,626b3b16b635dd57debdebf7,,,,,,,,,,,,,,,,,,,,,,,a,1,1.383,"[""0.582"",""0.538"",""0.859"",""0.896""]","[0,1,1,1]",0,62,62,62,1,0,1,,,1,FALSE,,,,,,,,,,,,,,,,,,,,,,,,,,,,,,
,5f24891abbc6190706421642,001,2022-04-28_20h13.37.272,classification_task,2021.2.3,MacIntel,59.97361161,5f24891abbc6190706421642,626b377229c10585ec392f89,626b3b16b635dd57debdebf7,,,,,,,,,,,,,,,,,,,,,,,l,0,1.1576,"[""0.317"",""0.538"",""0.859"",""0.098""]","[1,1,1,0]",0,63,63,63,1,0,1,,,1,FALSE,,,,,,,,,,,,,,,,,,,,,,,,,,,,,,
,5f24891abbc6190706421642,001,2022-04-28_20h13.37.272,classification_task,2021.2.3,MacIntel,59.97361161,5f24891abbc6190706421642,626b377229c10585ec392f89,626b3b16b635dd57debdebf7,,,,,,,,,,,,,,,,,,,,,,,,,,,,,,,,,,,,,,,0, ,,0,8.546047715,174.1697,0,2,2,2,1,2,3,,,,,,,,,,,,,,,,,
,5f24891abbc6190706421642,001,2022-04-28_20h13.37.272,classification_task,2021.2.3,MacIntel,59.97361161,5f24891abbc6190706421642,626b377229c10585ec392f89,626b3b16b635dd57debdebf7,,,,,,,,,,,,,,,,,,,,,,,,,,,,,,,,,,,,,,,1,  ,,0,9.260899781,175.3934,0,2,2,2,1,2,3,,,,,,,,,,,,,,,,,
,5f24891abbc6190706421642,001,2022-04-28_20h13.37.272,classification_task,2021.2.3,MacIntel,59.97361161,5f24891abbc6190706421642,626b377229c10585ec392f89,626b3b16b635dd57debdebf7,,,,,,,,,,,,,,,,,,,,,,,,,,,,,,,,,,,,,,,2,  ,,0,3.816739441,176.9278,0,2,2,2,1,2,3,,,,,,,,,,,,,,,,,
,5f24891abbc6190706421642,001,2022-04-28_20h13.37.272,classification_task,2021.2.3,MacIntel,59.97361161,5f24891abbc6190706421642,626b377229c10585ec392f89,626b3b16b635dd57debdebf7,,,,,,,,,,,,,,,,,,,,,,,,,,,,,,,,,,,,,,,,,,,,,0,2,2,2,1,,3,,,,,,,,,,,,,,,,,
,5f24891abbc6190706421642,001,2022-04-28_20h13.37.272,classification_task,2021.2.3,MacIntel,59.97361161,5f24891abbc6190706421642,626b377229c10585ec392f89,626b3b16b635dd57debdebf7,,,,,,,,,,,,,,,,,,,,,,,,,,,,,,,,,,,,,,,,,,,,,,,,,,,,,I believe the aid is a competent performer,,0.7,0,5,1164.6957,0,0,0,0,1,0,,,,
,5f24891abbc6190706421642,001,2022-04-28_20h13.37.272,classification_task,2021.2.3,MacIntel,59.97361161,5f24891abbc6190706421642,626b377229c10585ec392f89,626b3b16b635dd57debdebf7,,,,,,,,,,,,,,,,,,,,,,,,,,,,,,,,,,,,,,,,,,,,,,,,,,,,,I trust the aid,,0.7,0,5,1165.8072,0,0,0,0,1,0,,,,
,5f24891abbc6190706421642,001,2022-04-28_20h13.37.272,classification_task,2021.2.3,MacIntel,59.97361161,5f24891abbc6190706421642,626b377229c10585ec392f89,626b3b16b635dd57debdebf7,,,,,,,,,,,,,,,,,,,,,,,,,,,,,,,,,,,,,,,,,,,,,,,,,,,,,I have confidence in the advice given by the aid,,0.7,0,5,1167.3606,0,0,0,0,1,0,,,,
,5f24891abbc6190706421642,001,2022-04-28_20h13.37.272,classification_task,2021.2.3,MacIntel,59.97361161,5f24891abbc6190706421642,626b377229c10585ec392f89,626b3b16b635dd57debdebf7,,,,,,,,,,,,,,,,,,,,,,,,,,,,,,,,,,,,,,,,,,,,,,,,,,,,,I can depend on the aid,,0.7,0,5,1168.36,0,0,0,0,1,0,,,,
,5f24891abbc6190706421642,001,2022-04-28_20h13.37.272,classification_task,2021.2.3,MacIntel,59.97361161,5f24891abbc6190706421642,626b377229c10585ec392f89,626b3b16b635dd57debdebf7,,,,,,,,,,,,,,,,,,,,,,,,,,,,,,,,,,,,,,,,,,,,,,,,,,,,,I can rely on the aid to behave in consistent ways,,0.7,0,5,1169.9743,0,0,0,0,1,0,,,,
,5f24891abbc6190706421642,001,2022-04-28_20h13.37.272,classification_task,2021.2.3,MacIntel,59.97361161,5f24891abbc6190706421642,626b377229c10585ec392f89,626b3b16b635dd57debdebf7,,,,,,,,,,,,,,,,,,,,,,,,,,,,,,,,,,,,,,,,,,,,,,,,,,,,,I can rely on the aid to do its best every time I take its advice,,0.7,0,5,1171.9171,0,0,0,0,1,0,,,,
,5f24891abbc6190706421642,001,2022-04-28_20h13.37.272,classification_task,2021.2.3,MacIntel,59.97361161,5f24891abbc6190706421642,626b377229c10585ec392f89,626b3b16b635dd57debdebf7,,,,,,,,,,,,,,,,,,,,,,,,,,,,,,,,,,,,,,,,,,,,,,,,,,,,,"On trials you completed with assistance from the aid, how frequently did you think the aid was correct?",,0.7,0,100,,0,0,0,0,1,0,,,,
,5f24891abbc6190706421642,001,2022-04-28_20h13.37.272,classification_task,2021.2.3,MacIntel,59.97361161,5f24891abbc6190706421642,626b377229c10585ec392f89,626b3b16b635dd57debdebf7,,,,,,,,,,,,,,,,,,,,,,,,,,,,,,,,,,,,,,,,,,,,,,,,,,,,,"On trials you completed without the aid, how frequently did you think you were correct?",,0.7,0,70,,0,0,0,0,1,0,,,,
,5f24891abbc6190706421642,001,2022-04-28_20h13.37.272,classification_task,2021.2.3,MacIntel,59.97361161,5f24891abbc6190706421642,626b377229c10585ec392f89,626b3b16b635dd57debdebf7,,,,,,,,,,,,,,,,,,,,,,,,,,,,,,,,,,,,,,,,,,,,,,,,,,,,,,,,,,,0,0,0,0,1,,,,,
,5f24891abbc6190706421642,001,2022-04-28_20h13.37.272,classification_task,2021.2.3,MacIntel,59.97361161,5f24891abbc6190706421642,626b377229c10585ec392f89,626b3b16b635dd57debdebf7,,,,,,,,,,,,,,,,,,,,,,,,,,,,,,,,,,,,,,,,,,,,,,,,,,,,,,,,,,,,,,,,,space,18.7585,1212.2553,
,5f24891abbc6190706421642,001,2022-04-28_20h13.37.272,classification_task,2021.2.3,MacIntel,59.97361161,5f24891abbc6190706421642,626b377229c10585ec392f89,626b3b16b635dd57debdebf7,,,,,,,,,,,,,,,,,,,,,,,,,,,,,,,,,,,,,,,,,,,,,,,,,,,,,,,,,,,,,,,,,,,,"Mozilla/5.0 (Macintosh; Intel Mac OS X 10_15_7) AppleWebKit/537.36 (KHTML, like Gecko) Chrome/99.0.4844.84 Safari/537.36 OPR/85.0.4341.75"
