usingWebGL,participant,session,date,expName,psychopyVersion,OS,frameRate,PROLIFIC_PID,STUDY_ID,SESSION_ID,signatures_friend,signatures_foe,band_ranges_top,band_ranges_bottom,formitemText,formtype,formundefined,formitemWidth,formindex,formresponse,formrt,key_resp_2.keys,key_resp_2.rt,tute_resp.keys,tute_resp.rt,tutorial.thisRepN,tutorial.thisTrialN,tutorial.thisN,tutorial.thisIndex,tutorial.ran,key_resp_4.keys,key_resp_4.rt,key_resp.keys,key_resp.corr,key_resp.rt,lines_presented,is_signal_presented,trials.thisRepN,trials.thisTrialN,trials.thisN,trials.thisIndex,trials.ran,vessel,active_band,lines,is_signal,supported_pos,catch_trial,debrief_formindex,debrief_formitemText,debrief_formtype,debrief_formitemWidth,debrief_formresponse,debrief_formrt,phases.thisRepN,phases.thisTrialN,phases.thisN,phases.thisIndex,phases.ran,phases.order,phase,key_resp_3.keys,trustitemText,trusttype,trustitemWidth,trustindex,trustresponse,trustrt,support_status.thisRepN,support_status.thisTrialN,support_status.thisN,support_status.thisIndex,support_status.ran,support_status.order,key_resp_5.keys,key_resp_5.rt,globalClockTime,userAgent
TRUE,5f2af6dc1a903c46dd0e53bd,001,2022-04-29_02h12.14.232,classification_task,2021.2.3,Win32,59.98080614,5f2af6dc1a903c46dd0e53bd,626b377229c10585ec392f89,626b3a7e1ce2c60a76cb44c0,,,,,,,,,,,,,,,,,,,,,,,,,,,,,,,,,,,,,,,,,,,,,,,,,,,,,,,,,,,,,,,,,,,,
,5f2af6dc1a903c46dd0e53bd,001,2022-04-29_02h12.14.232,classification_task,2021.2.3,Win32,59.98080614,5f2af6dc1a903c46dd0e53bd,626b377229c10585ec392f89,626b3a7e1ce2c60a76cb44c0,"[[""0.222"",""0.519"",""0.794"",""0.885""],[""0.272"",""0.417"",""0.933"",""0.968""]]","[[""0.147"",""0.382"",""0.452"",""0.832""],[""0.053"",""0.307"",""0.588"",""0.730""]]","[1,10]","[100,1000]",Video game experience,,,0.7,0,,,,,,,,,,,,,,,,,,,,,,,,,,,,,,,,,,,,,,,,,,,,,,,,,,,,,,,,,,,
,5f2af6dc1a903c46dd0e53bd,001,2022-04-29_02h12.14.232,classification_task,2021.2.3,Win32,59.98080614,5f2af6dc1a903c46dd0e53bd,626b377229c10585ec392f89,626b3a7e1ce2c60a76cb44c0,,,,,Approximately how many hours did you spend playing video games in the last week?,,,0.7,0,30,,,,,,,,,,,,,,,,,,,,,,,,,,,,,,,,,,,,,,,,,,,,,,,,,,,,,,,,,,
,5f2af6dc1a903c46dd0e53bd,001,2022-04-29_02h12.14.232,classification_task,2021.2.3,Win32,59.98080614,5f2af6dc1a903c46dd0e53bd,626b377229c10585ec392f89,626b3a7e1ce2c60a76cb44c0,,,,,"Which game did you play the most this year? (Enter ""None"" if you didn't play any)",,,0.7,0,Sims4,,,,,,,,,,,,,,,,,,,,,,,,,,,,,,,,,,,,,,,,,,,,,,,,,,,,,,,,,,
,5f2af6dc1a903c46dd0e53bd,001,2022-04-29_02h12.14.232,classification_task,2021.2.3,Win32,59.98080614,5f2af6dc1a903c46dd0e53bd,626b377229c10585ec392f89,626b3a7e1ce2c60a76cb44c0,,,,,Visual perception,,,0.7,0,,,,,,,,,,,,,,,,,,,,,,,,,,,,,,,,,,,,,,,,,,,,,,,,,,,,,,,,,,,
,5f2af6dc1a903c46dd0e53bd,001,2022-04-29_02h12.14.232,classification_task,2021.2.3,Win32,59.98080614,5f2af6dc1a903c46dd0e53bd,626b377229c10585ec392f89,626b3a7e1ce2c60a76cb44c0,,,,,Do you have any form of color blindness?,,,0.7,0,No,66.8715,,,,,,,,,,,,,,,,,,,,,,,,,,,,,,,,,,,,,,,,,,,,,,,,,,,,,,,,,
,5f2af6dc1a903c46dd0e53bd,001,2022-04-29_02h12.14.232,classification_task,2021.2.3,Win32,59.98080614,5f2af6dc1a903c46dd0e53bd,626b377229c10585ec392f89,626b3a7e1ce2c60a76cb44c0,,,,,Do you use software to change the colour temperature of your screen (e.g. f.lux)?,,,0.7,0,No,72.5578,,,,,,,,,,,,,,,,,,,,,,,,,,,,,,,,,,,,,,,,,,,,,,,,,,,,,,,,,
,5f2af6dc1a903c46dd0e53bd,001,2022-04-29_02h12.14.232,classification_task,2021.2.3,Win32,59.98080614,5f2af6dc1a903c46dd0e53bd,626b377229c10585ec392f89,626b3a7e1ce2c60a76cb44c0,,,,,,,,,,,,space,55.2318,space,9.0538,0,0,0,0,1,,,,,,,,,,,,,,,,,,,,,,,,,,,,,,,,,,,,,,,,,,,,,,,,
,5f2af6dc1a903c46dd0e53bd,001,2022-04-29_02h12.14.232,classification_task,2021.2.3,Win32,59.98080614,5f2af6dc1a903c46dd0e53bd,626b377229c10585ec392f89,626b3a7e1ce2c60a76cb44c0,,,,,,,,,,,,,,space,11.5662,1,0,1,0,1,,,,,,,,,,,,,,,,,,,,,,,,,,,,,,,,,,,,,,,,,,,,,,,,
,5f2af6dc1a903c46dd0e53bd,001,2022-04-29_02h12.14.232,classification_task,2021.2.3,Win32,59.98080614,5f2af6dc1a903c46dd0e53bd,626b377229c10585ec392f89,626b3a7e1ce2c60a76cb44c0,,,,,,,,,,,,,,space,29.754,2,0,2,0,1,,,,,,,,,,,,,,,,,,,,,,,,,,,,,,,,,,,,,,,,,,,,,,,,
,5f2af6dc1a903c46dd0e53bd,001,2022-04-29_02h12.14.232,classification_task,2021.2.3,Win32,59.98080614,5f2af6dc1a903c46dd0e53bd,626b377229c10585ec392f89,626b3a7e1ce2c60a76cb44c0,,,,,,,,,,,,,,space,9.8824,3,0,3,0,1,,,,,,,,,,,,,,,,,,,,,,,,,,,,,,,,,,,,,,,,,,,,,,,,
,5f2af6dc1a903c46dd0e53bd,001,2022-04-29_02h12.14.232,classification_task,2021.2.3,Win32,59.98080614,5f2af6dc1a903c46dd0e53bd,626b377229c10585ec392f89,626b3a7e1ce2c60a76cb44c0,,,,,,,,,,,,,,space,17.6202,4,0,4,0,1,,,,,,,,,,,,,,,,,,,,,,,,,,,,,,,,,,,,,,,,,,,,,,,,
,5f2af6dc1a903c46dd0e53bd,001,2022-04-29_02h12.14.232,classification_task,2021.2.3,Win32,59.98080614,5f2af6dc1a903c46dd0e53bd,626b377229c10585ec392f89,626b3a7e1ce2c60a76cb44c0,,,,,,,,,,,,,,,,,,,,,space,36.4766,l,1,6.4096,"[""0.147"",""0.382"",""0.684"",""0.832""]","[1,1,0,1]",0,0,0,0,1,1,0,,,0,FALSE,,,,,,,,,,,,,,,,,,,,,,,,,,,,,,
,5f2af6dc1a903c46dd0e53bd,001,2022-04-29_02h12.14.232,classification_task,2021.2.3,Win32,59.98080614,5f2af6dc1a903c46dd0e53bd,626b377229c10585ec392f89,626b3a7e1ce2c60a76cb44c0,,,,,,,,,,,,,,,,,,,,,,,,0,,"[""0.112"",""0.417"",""0.933"",""0.968""]","[0,1,1,1]",0,1,1,1,1,0,1,,,0,FALSE,,,,,,,,,,,,,,,,,,,,,,,,,,,,,,
,5f2af6dc1a903c46dd0e53bd,001,2022-04-29_02h12.14.232,classification_task,2021.2.3,Win32,59.98080614,5f2af6dc1a903c46dd0e53bd,626b377229c10585ec392f89,626b3a7e1ce2c60a76cb44c0,,,,,,,,,,,,,,,,,,,,,,,a,1,6.3619,"[""0.272"",""0.417"",""0.933"",""0.682""]","[1,1,1,0]",0,2,2,2,1,0,1,,,0,FALSE,,,,,,,,,,,,,,,,,,,,,,,,,,,,,,
,5f2af6dc1a903c46dd0e53bd,001,2022-04-29_02h12.14.232,classification_task,2021.2.3,Win32,59.98080614,5f2af6dc1a903c46dd0e53bd,626b377229c10585ec392f89,626b3a7e1ce2c60a76cb44c0,,,,,,,,,,,,,,,,,,,,,,,l,1,3.4778,"[""0.053"",""0.307"",""0.588"",""0.647""]","[1,1,1,0]",0,3,3,3,1,1,1,,,0,FALSE,,,,,,,,,,,,,,,,,,,,,,,,,,,,,,
,5f2af6dc1a903c46dd0e53bd,001,2022-04-29_02h12.14.232,classification_task,2021.2.3,Win32,59.98080614,5f2af6dc1a903c46dd0e53bd,626b377229c10585ec392f89,626b3a7e1ce2c60a76cb44c0,,,,,,,,,,,,,,,,,,,,,,,a,1,2.5254,"[""0.222"",""0.683"",""0.794"",""0.885""]","[1,0,1,1]",0,4,4,4,1,0,0,,,0,FALSE,,,,,,,,,,,,,,,,,,,,,,,,,,,,,,
,5f2af6dc1a903c46dd0e53bd,001,2022-04-29_02h12.14.232,classification_task,2021.2.3,Win32,59.98080614,5f2af6dc1a903c46dd0e53bd,626b377229c10585ec392f89,626b3a7e1ce2c60a76cb44c0,,,,,,,,,,,,,,,,,,,,,,,l,1,3.1537,"[""0.147"",""0.683"",""0.452"",""0.832""]","[1,0,1,1]",0,5,5,5,1,1,0,,,0,FALSE,,,,,,,,,,,,,,,,,,,,,,,,,,,,,,
,5f2af6dc1a903c46dd0e53bd,001,2022-04-29_02h12.14.232,classification_task,2021.2.3,Win32,59.98080614,5f2af6dc1a903c46dd0e53bd,626b377229c10585ec392f89,626b3a7e1ce2c60a76cb44c0,,,,,,,,,,,,,,,,,,,,,,,l,1,7.6146,"[""0.053"",""0.307"",""0.106"",""0.730""]","[1,1,0,1]",0,6,6,6,1,1,1,,,0,FALSE,,,,,,,,,,,,,,,,,,,,,,,,,,,,,,
,5f2af6dc1a903c46dd0e53bd,001,2022-04-29_02h12.14.232,classification_task,2021.2.3,Win32,59.98080614,5f2af6dc1a903c46dd0e53bd,626b377229c10585ec392f89,626b3a7e1ce2c60a76cb44c0,,,,,,,,,,,,,,,,,,,,,,,a,1,3.9165,"[""0.684"",""0.519"",""0.794"",""0.885""]","[0,1,1,1]",0,7,7,7,1,0,0,,,0,FALSE,,,,,,,,,,,,,,,,,,,,,,,,,,,,,,
,5f2af6dc1a903c46dd0e53bd,001,2022-04-29_02h12.14.232,classification_task,2021.2.3,Win32,59.98080614,5f2af6dc1a903c46dd0e53bd,626b377229c10585ec392f89,626b3a7e1ce2c60a76cb44c0,,,,,,,,,,,,,,,,,,,,,,,l,1,6.1708,"[""0.147"",""0.382"",""0.452"",""0.106""]","[1,1,1,0]",0,8,8,8,1,1,0,,,0,FALSE,,,,,,,,,,,,,,,,,,,,,,,,,,,,,,
,5f2af6dc1a903c46dd0e53bd,001,2022-04-29_02h12.14.232,classification_task,2021.2.3,Win32,59.98080614,5f2af6dc1a903c46dd0e53bd,626b377229c10585ec392f89,626b3a7e1ce2c60a76cb44c0,,,,,,,,,,,,,,,,,,,,,,,l,1,4.6435,"[""0.625"",""0.382"",""0.452"",""0.832""]","[0,1,1,1]",0,9,9,9,1,1,0,,,0,FALSE,,,,,,,,,,,,,,,,,,,,,,,,,,,,,,
,5f2af6dc1a903c46dd0e53bd,001,2022-04-29_02h12.14.232,classification_task,2021.2.3,Win32,59.98080614,5f2af6dc1a903c46dd0e53bd,626b377229c10585ec392f89,626b3a7e1ce2c60a76cb44c0,,,,,,,,,,,,,,,,,,,,,,,l,1,5.1043,"[""0.112"",""0.307"",""0.588"",""0.730""]","[0,1,1,1]",0,10,10,10,1,1,1,,,0,FALSE,,,,,,,,,,,,,,,,,,,,,,,,,,,,,,
,5f2af6dc1a903c46dd0e53bd,001,2022-04-29_02h12.14.232,classification_task,2021.2.3,Win32,59.98080614,5f2af6dc1a903c46dd0e53bd,626b377229c10585ec392f89,626b3a7e1ce2c60a76cb44c0,,,,,,,,,,,,,,,,,,,,,,,a,1,1.9256,"[""0.222"",""0.519"",""0.683"",""0.885""]","[1,1,0,1]",0,11,11,11,1,0,0,,,0,FALSE,,,,,,,,,,,,,,,,,,,,,,,,,,,,,,
,5f2af6dc1a903c46dd0e53bd,001,2022-04-29_02h12.14.232,classification_task,2021.2.3,Win32,59.98080614,5f2af6dc1a903c46dd0e53bd,626b377229c10585ec392f89,626b3a7e1ce2c60a76cb44c0,,,,,,,,,,,,,,,,,,,,,,,a,1,3.4583,"[""0.272"",""0.417"",""0.106"",""0.968""]","[1,1,0,1]",0,12,12,12,1,0,1,,,0,FALSE,,,,,,,,,,,,,,,,,,,,,,,,,,,,,,
,5f2af6dc1a903c46dd0e53bd,001,2022-04-29_02h12.14.232,classification_task,2021.2.3,Win32,59.98080614,5f2af6dc1a903c46dd0e53bd,626b377229c10585ec392f89,626b3a7e1ce2c60a76cb44c0,,,,,,,,,,,,,,,,,,,,,,,a,1,3.9331,"[""0.222"",""0.519"",""0.794"",""0.112""]","[1,1,1,0]",0,13,13,13,1,0,0,,,0,FALSE,,,,,,,,,,,,,,,,,,,,,,,,,,,,,,
,5f2af6dc1a903c46dd0e53bd,001,2022-04-29_02h12.14.232,classification_task,2021.2.3,Win32,59.98080614,5f2af6dc1a903c46dd0e53bd,626b377229c10585ec392f89,626b3a7e1ce2c60a76cb44c0,,,,,,,,,,,,,,,,,,,,,,,l,1,3.6483,"[""0.053"",""0.684"",""0.588"",""0.730""]","[1,0,1,1]",0,14,14,14,1,1,1,,,0,FALSE,,,,,,,,,,,,,,,,,,,,,,,,,,,,,,
,5f2af6dc1a903c46dd0e53bd,001,2022-04-29_02h12.14.232,classification_task,2021.2.3,Win32,59.98080614,5f2af6dc1a903c46dd0e53bd,626b377229c10585ec392f89,626b3a7e1ce2c60a76cb44c0,,,,,,,,,,,,,,,,,,,,,,,a,1,3.1834,"[""0.272"",""0.107"",""0.933"",""0.968""]","[1,0,1,1]",0,15,15,15,1,0,1,,,0,FALSE,,,,,,,,,,,,,,,,,,,,,,,,,,,,,,
,5f2af6dc1a903c46dd0e53bd,001,2022-04-29_02h12.14.232,classification_task,2021.2.3,Win32,59.98080614,5f2af6dc1a903c46dd0e53bd,626b377229c10585ec392f89,626b3a7e1ce2c60a76cb44c0,,,,,,,,,,,,,,,,,,,,,,,a,1,4.3037,"[""0.272"",""0.417"",""0.112"",""0.968""]","[1,1,0,1]",0,16,16,16,1,0,1,,,0,FALSE,,,,,,,,,,,,,,,,,,,,,,,,,,,,,,
,5f2af6dc1a903c46dd0e53bd,001,2022-04-29_02h12.14.232,classification_task,2021.2.3,Win32,59.98080614,5f2af6dc1a903c46dd0e53bd,626b377229c10585ec392f89,626b3a7e1ce2c60a76cb44c0,,,,,,,,,,,,,,,,,,,,,,,a,1,2.6875,"[""0.222"",""0.112"",""0.794"",""0.885""]","[1,0,1,1]",0,17,17,17,1,0,0,,,0,FALSE,,,,,,,,,,,,,,,,,,,,,,,,,,,,,,
,5f2af6dc1a903c46dd0e53bd,001,2022-04-29_02h12.14.232,classification_task,2021.2.3,Win32,59.98080614,5f2af6dc1a903c46dd0e53bd,626b377229c10585ec392f89,626b3a7e1ce2c60a76cb44c0,,,,,,,,,,,,,,,,,,,,,,,a,1,2.9929,"[""0.272"",""0.107"",""0.933"",""0.968""]","[1,0,1,1]",0,18,18,18,1,0,1,,,0,FALSE,,,,,,,,,,,,,,,,,,,,,,,,,,,,,,
,5f2af6dc1a903c46dd0e53bd,001,2022-04-29_02h12.14.232,classification_task,2021.2.3,Win32,59.98080614,5f2af6dc1a903c46dd0e53bd,626b377229c10585ec392f89,626b3a7e1ce2c60a76cb44c0,,,,,,,,,,,,,,,,,,,,,,,a,1,4.0484,"[""0.112"",""0.519"",""0.794"",""0.885""]","[0,1,1,1]",0,19,19,19,1,0,0,,,0,FALSE,,,,,,,,,,,,,,,,,,,,,,,,,,,,,,
,5f2af6dc1a903c46dd0e53bd,001,2022-04-29_02h12.14.232,classification_task,2021.2.3,Win32,59.98080614,5f2af6dc1a903c46dd0e53bd,626b377229c10585ec392f89,626b3a7e1ce2c60a76cb44c0,,,,,,,,,,,,,,,,,,,,,,,a,1,3.2466,"[""0.222"",""0.519"",""0.794"",""0.347""]","[1,1,1,0]",0,20,20,20,1,0,0,,,0,FALSE,,,,,,,,,,,,,,,,,,,,,,,,,,,,,,
,5f2af6dc1a903c46dd0e53bd,001,2022-04-29_02h12.14.232,classification_task,2021.2.3,Win32,59.98080614,5f2af6dc1a903c46dd0e53bd,626b377229c10585ec392f89,626b3a7e1ce2c60a76cb44c0,,,,,,,,,,,,,,,,,,,,,,,l,1,6.2431,"[""0.053"",""0.307"",""0.588"",""0.682""]","[1,1,1,0]",0,21,21,21,1,1,1,,,0,FALSE,,,,,,,,,,,,,,,,,,,,,,,,,,,,,,
,5f2af6dc1a903c46dd0e53bd,001,2022-04-29_02h12.14.232,classification_task,2021.2.3,Win32,59.98080614,5f2af6dc1a903c46dd0e53bd,626b377229c10585ec392f89,626b3a7e1ce2c60a76cb44c0,,,,,,,,,,,,,,,,,,,,,,,a,1,1.4286,"[""0.222"",""0.519"",""0.683"",""0.885""]","[1,1,0,1]",0,22,22,22,1,0,0,,,0,FALSE,,,,,,,,,,,,,,,,,,,,,,,,,,,,,,
,5f2af6dc1a903c46dd0e53bd,001,2022-04-29_02h12.14.232,classification_task,2021.2.3,Win32,59.98080614,5f2af6dc1a903c46dd0e53bd,626b377229c10585ec392f89,626b3a7e1ce2c60a76cb44c0,,,,,,,,,,,,,,,,,,,,,,,l,1,5.9884,"[""0.647"",""0.307"",""0.588"",""0.730""]","[0,1,1,1]",0,23,23,23,1,1,1,,,0,FALSE,,,,,,,,,,,,,,,,,,,,,,,,,,,,,,
,5f2af6dc1a903c46dd0e53bd,001,2022-04-29_02h12.14.232,classification_task,2021.2.3,Win32,59.98080614,5f2af6dc1a903c46dd0e53bd,626b377229c10585ec392f89,626b3a7e1ce2c60a76cb44c0,,,,,,,,,,,,,,,,,,,,,,,l,1,3.5094,"[""0.147"",""0.382"",""0.452"",""0.675""]","[1,1,1,0]",0,24,24,24,1,1,0,,,0,FALSE,,,,,,,,,,,,,,,,,,,,,,,,,,,,,,
,5f2af6dc1a903c46dd0e53bd,001,2022-04-29_02h12.14.232,classification_task,2021.2.3,Win32,59.98080614,5f2af6dc1a903c46dd0e53bd,626b377229c10585ec392f89,626b3a7e1ce2c60a76cb44c0,,,,,,,,,,,,,,,,,,,,,,,a,0,2.9466,"[""0.053"",""0.670"",""0.588"",""0.730""]","[1,0,1,1]",0,25,25,25,1,1,1,,,0,FALSE,,,,,,,,,,,,,,,,,,,,,,,,,,,,,,
,5f2af6dc1a903c46dd0e53bd,001,2022-04-29_02h12.14.232,classification_task,2021.2.3,Win32,59.98080614,5f2af6dc1a903c46dd0e53bd,626b377229c10585ec392f89,626b3a7e1ce2c60a76cb44c0,,,,,,,,,,,,,,,,,,,,,,,l,1,6.7292,"[""0.647"",""0.382"",""0.452"",""0.832""]","[0,1,1,1]",0,26,26,26,1,1,0,,,0,FALSE,,,,,,,,,,,,,,,,,,,,,,,,,,,,,,
,5f2af6dc1a903c46dd0e53bd,001,2022-04-29_02h12.14.232,classification_task,2021.2.3,Win32,59.98080614,5f2af6dc1a903c46dd0e53bd,626b377229c10585ec392f89,626b3a7e1ce2c60a76cb44c0,,,,,,,,,,,,,,,,,,,,,,,a,1,7.9925,"[""0.272"",""0.417"",""0.933"",""0.112""]","[1,1,1,0]",0,27,27,27,1,0,1,,,0,FALSE,,,,,,,,,,,,,,,,,,,,,,,,,,,,,,
,5f2af6dc1a903c46dd0e53bd,001,2022-04-29_02h12.14.232,classification_task,2021.2.3,Win32,59.98080614,5f2af6dc1a903c46dd0e53bd,626b377229c10585ec392f89,626b3a7e1ce2c60a76cb44c0,,,,,,,,,,,,,,,,,,,,,,,l,1,5.5866,"[""0.147"",""0.382"",""0.107"",""0.832""]","[1,1,0,1]",0,28,28,28,1,1,0,,,0,FALSE,,,,,,,,,,,,,,,,,,,,,,,,,,,,,,
,5f2af6dc1a903c46dd0e53bd,001,2022-04-29_02h12.14.232,classification_task,2021.2.3,Win32,59.98080614,5f2af6dc1a903c46dd0e53bd,626b377229c10585ec392f89,626b3a7e1ce2c60a76cb44c0,,,,,,,,,,,,,,,,,,,,,,,l,1,4.127,"[""0.147"",""0.098"",""0.452"",""0.832""]","[1,0,1,1]",0,29,29,29,1,1,0,,,0,FALSE,,,,,,,,,,,,,,,,,,,,,,,,,,,,,,
,5f2af6dc1a903c46dd0e53bd,001,2022-04-29_02h12.14.232,classification_task,2021.2.3,Win32,59.98080614,5f2af6dc1a903c46dd0e53bd,626b377229c10585ec392f89,626b3a7e1ce2c60a76cb44c0,,,,,,,,,,,,,,,,,,,,,,,l,1,5.032,"[""0.053"",""0.307"",""0.683"",""0.730""]","[1,1,0,1]",0,30,30,30,1,1,1,,,0,FALSE,,,,,,,,,,,,,,,,,,,,,,,,,,,,,,
,5f2af6dc1a903c46dd0e53bd,001,2022-04-29_02h12.14.232,classification_task,2021.2.3,Win32,59.98080614,5f2af6dc1a903c46dd0e53bd,626b377229c10585ec392f89,626b3a7e1ce2c60a76cb44c0,,,,,,,,,,,,,,,,,,,,,,,a,1,2.4278,"[""0.675"",""0.417"",""0.933"",""0.968""]","[0,1,1,1]",0,31,31,31,1,0,1,,,0,FALSE,,,,,,,,,,,,,,,,,,,,,,,,,,,,,,
,5f2af6dc1a903c46dd0e53bd,001,2022-04-29_02h12.14.232,classification_task,2021.2.3,Win32,59.98080614,5f2af6dc1a903c46dd0e53bd,626b377229c10585ec392f89,626b3a7e1ce2c60a76cb44c0,,,,,,,,,,,,,,,,,,,,,,,l,1,7.5576,"[""0.106"",""0.382"",""0.452"",""0.832""]","[0,1,1,1]",0,32,32,32,1,1,0,,,0,FALSE,,,,,,,,,,,,,,,,,,,,,,,,,,,,,,
,5f2af6dc1a903c46dd0e53bd,001,2022-04-29_02h12.14.232,classification_task,2021.2.3,Win32,59.98080614,5f2af6dc1a903c46dd0e53bd,626b377229c10585ec392f89,626b3a7e1ce2c60a76cb44c0,,,,,,,,,,,,,,,,,,,,,,,a,0,2.1525,"[""0.053"",""0.307"",""0.098"",""0.730""]","[1,1,0,1]",0,33,33,33,1,1,1,,,0,FALSE,,,,,,,,,,,,,,,,,,,,,,,,,,,,,,
,5f2af6dc1a903c46dd0e53bd,001,2022-04-29_02h12.14.232,classification_task,2021.2.3,Win32,59.98080614,5f2af6dc1a903c46dd0e53bd,626b377229c10585ec392f89,626b3a7e1ce2c60a76cb44c0,,,,,,,,,,,,,,,,,,,,,,,l,0,2.7104,"[""0.222"",""0.683"",""0.794"",""0.885""]","[1,0,1,1]",0,34,34,34,1,0,0,,,0,FALSE,,,,,,,,,,,,,,,,,,,,,,,,,,,,,,
,5f2af6dc1a903c46dd0e53bd,001,2022-04-29_02h12.14.232,classification_task,2021.2.3,Win32,59.98080614,5f2af6dc1a903c46dd0e53bd,626b377229c10585ec392f89,626b3a7e1ce2c60a76cb44c0,,,,,,,,,,,,,,,,,,,,,,,a,1,1.3812,"[""0.272"",""0.675"",""0.933"",""0.968""]","[1,0,1,1]",0,35,35,35,1,0,1,,,0,FALSE,,,,,,,,,,,,,,,,,,,,,,,,,,,,,,
,5f2af6dc1a903c46dd0e53bd,001,2022-04-29_02h12.14.232,classification_task,2021.2.3,Win32,59.98080614,5f2af6dc1a903c46dd0e53bd,626b377229c10585ec392f89,626b3a7e1ce2c60a76cb44c0,,,,,,,,,,,,,,,,,,,,,,,l,1,2.9048,"[""0.147"",""0.112"",""0.452"",""0.832""]","[1,0,1,1]",0,36,36,36,1,1,0,,,0,FALSE,,,,,,,,,,,,,,,,,,,,,,,,,,,,,,
,5f2af6dc1a903c46dd0e53bd,001,2022-04-29_02h12.14.232,classification_task,2021.2.3,Win32,59.98080614,5f2af6dc1a903c46dd0e53bd,626b377229c10585ec392f89,626b3a7e1ce2c60a76cb44c0,,,,,,,,,,,,,,,,,,,,,,,a,0,1.4442,"[""0.147"",""0.382"",""0.098"",""0.832""]","[1,1,0,1]",0,37,37,37,1,1,0,,,0,FALSE,,,,,,,,,,,,,,,,,,,,,,,,,,,,,,
,5f2af6dc1a903c46dd0e53bd,001,2022-04-29_02h12.14.232,classification_task,2021.2.3,Win32,59.98080614,5f2af6dc1a903c46dd0e53bd,626b377229c10585ec392f89,626b3a7e1ce2c60a76cb44c0,,,,,,,,,,,,,,,,,,,,,,,l,1,2.4884,"[""0.147"",""0.382"",""0.452"",""0.675""]","[1,1,1,0]",0,38,38,38,1,1,0,,,0,FALSE,,,,,,,,,,,,,,,,,,,,,,,,,,,,,,
,5f2af6dc1a903c46dd0e53bd,001,2022-04-29_02h12.14.232,classification_task,2021.2.3,Win32,59.98080614,5f2af6dc1a903c46dd0e53bd,626b377229c10585ec392f89,626b3a7e1ce2c60a76cb44c0,,,,,,,,,,,,,,,,,,,,,,,a,0,3.3278,"[""0.675"",""0.307"",""0.588"",""0.730""]","[0,1,1,1]",0,39,39,39,1,1,1,,,0,FALSE,,,,,,,,,,,,,,,,,,,,,,,,,,,,,,
,5f2af6dc1a903c46dd0e53bd,001,2022-04-29_02h12.14.232,classification_task,2021.2.3,Win32,59.98080614,5f2af6dc1a903c46dd0e53bd,626b377229c10585ec392f89,626b3a7e1ce2c60a76cb44c0,,,,,,,,,,,,,,,,,,,,,,,a,0,2.0121,"[""0.053"",""0.098"",""0.588"",""0.730""]","[1,0,1,1]",0,40,40,40,1,1,1,,,0,FALSE,,,,,,,,,,,,,,,,,,,,,,,,,,,,,,
,5f2af6dc1a903c46dd0e53bd,001,2022-04-29_02h12.14.232,classification_task,2021.2.3,Win32,59.98080614,5f2af6dc1a903c46dd0e53bd,626b377229c10585ec392f89,626b3a7e1ce2c60a76cb44c0,,,,,,,,,,,,,,,,,,,,,,,l,0,2.7776,"[""0.272"",""0.417"",""0.933"",""0.098""]","[1,1,1,0]",0,41,41,41,1,0,1,,,0,FALSE,,,,,,,,,,,,,,,,,,,,,,,,,,,,,,
,5f2af6dc1a903c46dd0e53bd,001,2022-04-29_02h12.14.232,classification_task,2021.2.3,Win32,59.98080614,5f2af6dc1a903c46dd0e53bd,626b377229c10585ec392f89,626b3a7e1ce2c60a76cb44c0,,,,,,,,,,,,,,,,,,,,,,,a,1,1.7365,"[""0.222"",""0.519"",""0.347"",""0.885""]","[1,1,0,1]",0,42,42,42,1,0,0,,,0,FALSE,,,,,,,,,,,,,,,,,,,,,,,,,,,,,,
,5f2af6dc1a903c46dd0e53bd,001,2022-04-29_02h12.14.232,classification_task,2021.2.3,Win32,59.98080614,5f2af6dc1a903c46dd0e53bd,626b377229c10585ec392f89,626b3a7e1ce2c60a76cb44c0,,,,,,,,,,,,,,,,,,,,,,,a,0,2.5342,"[""0.053"",""0.307"",""0.588"",""0.107""]","[1,1,1,0]",0,43,43,43,1,1,1,,,0,FALSE,,,,,,,,,,,,,,,,,,,,,,,,,,,,,,
,5f2af6dc1a903c46dd0e53bd,001,2022-04-29_02h12.14.232,classification_task,2021.2.3,Win32,59.98080614,5f2af6dc1a903c46dd0e53bd,626b377229c10585ec392f89,626b3a7e1ce2c60a76cb44c0,,,,,,,,,,,,,,,,,,,,,,,a,1,1.2002,"[""0.112"",""0.417"",""0.933"",""0.968""]","[0,1,1,1]",0,44,44,44,1,0,1,,,0,FALSE,,,,,,,,,,,,,,,,,,,,,,,,,,,,,,
,5f2af6dc1a903c46dd0e53bd,001,2022-04-29_02h12.14.232,classification_task,2021.2.3,Win32,59.98080614,5f2af6dc1a903c46dd0e53bd,626b377229c10585ec392f89,626b3a7e1ce2c60a76cb44c0,,,,,,,,,,,,,,,,,,,,,,,a,1,1.2024,"[""0.222"",""0.519"",""0.794"",""0.112""]","[1,1,1,0]",0,45,45,45,1,0,0,,,0,FALSE,,,,,,,,,,,,,,,,,,,,,,,,,,,,,,
,5f2af6dc1a903c46dd0e53bd,001,2022-04-29_02h12.14.232,classification_task,2021.2.3,Win32,59.98080614,5f2af6dc1a903c46dd0e53bd,626b377229c10585ec392f89,626b3a7e1ce2c60a76cb44c0,,,,,,,,,,,,,,,,,,,,,,,l,0,4.1501,"[""0.690"",""0.519"",""0.794"",""0.885""]","[0,1,1,1]",0,46,46,46,1,0,0,,,0,FALSE,,,,,,,,,,,,,,,,,,,,,,,,,,,,,,
,5f2af6dc1a903c46dd0e53bd,001,2022-04-29_02h12.14.232,classification_task,2021.2.3,Win32,59.98080614,5f2af6dc1a903c46dd0e53bd,626b377229c10585ec392f89,626b3a7e1ce2c60a76cb44c0,,,,,,,,,,,,,,,,,,,,,,,l,0,3.3254,"[""0.272"",""0.417"",""0.647"",""0.968""]","[1,1,0,1]",0,47,47,47,1,0,1,,,0,FALSE,,,,,,,,,,,,,,,,,,,,,,,,,,,,,,
,5f2af6dc1a903c46dd0e53bd,001,2022-04-29_02h12.14.232,classification_task,2021.2.3,Win32,59.98080614,5f2af6dc1a903c46dd0e53bd,626b377229c10585ec392f89,626b3a7e1ce2c60a76cb44c0,,,,,,,,,,,,,,,,,,,,,,,l,1,6.1285,"[""0.670"",""0.382"",""0.452"",""0.832""]","[0,1,1,1]",0,48,48,48,1,1,0,,,0,FALSE,,,,,,,,,,,,,,,,,,,,,,,,,,,,,,
,5f2af6dc1a903c46dd0e53bd,001,2022-04-29_02h12.14.232,classification_task,2021.2.3,Win32,59.98080614,5f2af6dc1a903c46dd0e53bd,626b377229c10585ec392f89,626b3a7e1ce2c60a76cb44c0,,,,,,,,,,,,,,,,,,,,,,,l,0,3.3091,"[""0.107"",""0.519"",""0.794"",""0.885""]","[0,1,1,1]",0,49,49,49,1,0,0,,,0,FALSE,,,,,,,,,,,,,,,,,,,,,,,,,,,,,,
,5f2af6dc1a903c46dd0e53bd,001,2022-04-29_02h12.14.232,classification_task,2021.2.3,Win32,59.98080614,5f2af6dc1a903c46dd0e53bd,626b377229c10585ec392f89,626b3a7e1ce2c60a76cb44c0,,,,,,,,,,,,,,,,,,,,,,,a,0,2.5125,"[""0.053"",""0.307"",""0.684"",""0.730""]","[1,1,0,1]",0,50,50,50,1,1,1,,,0,FALSE,,,,,,,,,,,,,,,,,,,,,,,,,,,,,,
,5f2af6dc1a903c46dd0e53bd,001,2022-04-29_02h12.14.232,classification_task,2021.2.3,Win32,59.98080614,5f2af6dc1a903c46dd0e53bd,626b377229c10585ec392f89,626b3a7e1ce2c60a76cb44c0,,,,,,,,,,,,,,,,,,,,,,,a,0,4.6549,"[""0.147"",""0.683"",""0.452"",""0.832""]","[1,0,1,1]",0,51,51,51,1,1,0,,,0,FALSE,,,,,,,,,,,,,,,,,,,,,,,,,,,,,,
,5f2af6dc1a903c46dd0e53bd,001,2022-04-29_02h12.14.232,classification_task,2021.2.3,Win32,59.98080614,5f2af6dc1a903c46dd0e53bd,626b377229c10585ec392f89,626b3a7e1ce2c60a76cb44c0,,,,,,,,,,,,,,,,,,,,,,,a,1,1.1434,"[""0.690"",""0.417"",""0.933"",""0.968""]","[0,1,1,1]",0,52,52,52,1,0,1,,,0,FALSE,,,,,,,,,,,,,,,,,,,,,,,,,,,,,,
,5f2af6dc1a903c46dd0e53bd,001,2022-04-29_02h12.14.232,classification_task,2021.2.3,Win32,59.98080614,5f2af6dc1a903c46dd0e53bd,626b377229c10585ec392f89,626b3a7e1ce2c60a76cb44c0,,,,,,,,,,,,,,,,,,,,,,,l,1,2.1601,"[""0.053"",""0.670"",""0.588"",""0.730""]","[1,0,1,1]",0,53,53,53,1,1,1,,,0,FALSE,,,,,,,,,,,,,,,,,,,,,,,,,,,,,,
,5f2af6dc1a903c46dd0e53bd,001,2022-04-29_02h12.14.232,classification_task,2021.2.3,Win32,59.98080614,5f2af6dc1a903c46dd0e53bd,626b377229c10585ec392f89,626b3a7e1ce2c60a76cb44c0,,,,,,,,,,,,,,,,,,,,,,,l,1,4.9384,"[""0.053"",""0.307"",""0.588"",""0.647""]","[1,1,1,0]",0,54,54,54,1,1,1,,,0,FALSE,,,,,,,,,,,,,,,,,,,,,,,,,,,,,,
,5f2af6dc1a903c46dd0e53bd,001,2022-04-29_02h12.14.232,classification_task,2021.2.3,Win32,59.98080614,5f2af6dc1a903c46dd0e53bd,626b377229c10585ec392f89,626b3a7e1ce2c60a76cb44c0,,,,,,,,,,,,,,,,,,,,,,,a,0,2.2263,"[""0.147"",""0.382"",""0.452"",""0.112""]","[1,1,1,0]",0,55,55,55,1,1,0,,,0,FALSE,,,,,,,,,,,,,,,,,,,,,,,,,,,,,,
,5f2af6dc1a903c46dd0e53bd,001,2022-04-29_02h12.14.232,classification_task,2021.2.3,Win32,59.98080614,5f2af6dc1a903c46dd0e53bd,626b377229c10585ec392f89,626b3a7e1ce2c60a76cb44c0,,,,,,,,,,,,,,,,,,,,,,,a,1,2.0058,"[""0.272"",""0.417"",""0.671"",""0.968""]","[1,1,0,1]",0,56,56,56,1,0,1,,,0,FALSE,,,,,,,,,,,,,,,,,,,,,,,,,,,,,,
,5f2af6dc1a903c46dd0e53bd,001,2022-04-29_02h12.14.232,classification_task,2021.2.3,Win32,59.98080614,5f2af6dc1a903c46dd0e53bd,626b377229c10585ec392f89,626b3a7e1ce2c60a76cb44c0,,,,,,,,,,,,,,,,,,,,,,,a,0,2.9648,"[""0.147"",""0.382"",""0.683"",""0.832""]","[1,1,0,1]",0,57,57,57,1,1,0,,,0,FALSE,,,,,,,,,,,,,,,,,,,,,,,,,,,,,,
,5f2af6dc1a903c46dd0e53bd,001,2022-04-29_02h12.14.232,classification_task,2021.2.3,Win32,59.98080614,5f2af6dc1a903c46dd0e53bd,626b377229c10585ec392f89,626b3a7e1ce2c60a76cb44c0,,,,,,,,,,,,,,,,,,,,,,,a,0,3.7203,"[""0.690"",""0.307"",""0.588"",""0.730""]","[0,1,1,1]",0,58,58,58,1,1,1,,,0,FALSE,,,,,,,,,,,,,,,,,,,,,,,,,,,,,,
,5f2af6dc1a903c46dd0e53bd,001,2022-04-29_02h12.14.232,classification_task,2021.2.3,Win32,59.98080614,5f2af6dc1a903c46dd0e53bd,626b377229c10585ec392f89,626b3a7e1ce2c60a76cb44c0,,,,,,,,,,,,,,,,,,,,,,,a,1,0.8615,"[""0.272"",""0.671"",""0.933"",""0.968""]","[1,0,1,1]",0,59,59,59,1,0,1,,,0,FALSE,,,,,,,,,,,,,,,,,,,,,,,,,,,,,,
,5f2af6dc1a903c46dd0e53bd,001,2022-04-29_02h12.14.232,classification_task,2021.2.3,Win32,59.98080614,5f2af6dc1a903c46dd0e53bd,626b377229c10585ec392f89,626b3a7e1ce2c60a76cb44c0,,,,,,,,,,,,,,,,,,,,,,,l,0,3.1384,"[""0.222"",""0.347"",""0.794"",""0.885""]","[1,0,1,1]",0,60,60,60,1,0,0,,,0,FALSE,,,,,,,,,,,,,,,,,,,,,,,,,,,,,,
,5f2af6dc1a903c46dd0e53bd,001,2022-04-29_02h12.14.232,classification_task,2021.2.3,Win32,59.98080614,5f2af6dc1a903c46dd0e53bd,626b377229c10585ec392f89,626b3a7e1ce2c60a76cb44c0,,,,,,,,,,,,,,,,,,,,,,,a,1,2.3443,"[""0.272"",""0.417"",""0.933"",""0.112""]","[1,1,1,0]",0,61,61,61,1,0,1,,,0,FALSE,,,,,,,,,,,,,,,,,,,,,,,,,,,,,,
,5f2af6dc1a903c46dd0e53bd,001,2022-04-29_02h12.14.232,classification_task,2021.2.3,Win32,59.98080614,5f2af6dc1a903c46dd0e53bd,626b377229c10585ec392f89,626b3a7e1ce2c60a76cb44c0,,,,,,,,,,,,,,,,,,,,,,,a,1,1.5111,"[""0.222"",""0.519"",""0.675"",""0.885""]","[1,1,0,1]",0,62,62,62,1,0,0,,,0,FALSE,,,,,,,,,,,,,,,,,,,,,,,,,,,,,,
,5f2af6dc1a903c46dd0e53bd,001,2022-04-29_02h12.14.232,classification_task,2021.2.3,Win32,59.98080614,5f2af6dc1a903c46dd0e53bd,626b377229c10585ec392f89,626b3a7e1ce2c60a76cb44c0,,,,,,,,,,,,,,,,,,,,,,,a,1,1.0862,"[""0.222"",""0.519"",""0.794"",""0.647""]","[1,1,1,0]",0,63,63,63,1,0,0,,,0,FALSE,,,,,,,,,,,,,,,,,,,,,,,,,,,,,,
,5f2af6dc1a903c46dd0e53bd,001,2022-04-29_02h12.14.232,classification_task,2021.2.3,Win32,59.98080614,5f2af6dc1a903c46dd0e53bd,626b377229c10585ec392f89,626b3a7e1ce2c60a76cb44c0,,,,,,,,,,,,,,,,,,,,,,,,,,,,,,,,,,,,,,,0, ,,0,0.321379581,590.8585,0,0,0,0,1,2,1,,,,,,,,,,,,,,,,,
,5f2af6dc1a903c46dd0e53bd,001,2022-04-29_02h12.14.232,classification_task,2021.2.3,Win32,59.98080614,5f2af6dc1a903c46dd0e53bd,626b377229c10585ec392f89,626b3a7e1ce2c60a76cb44c0,,,,,,,,,,,,,,,,,,,,,,,,,,,,,,,,,,,,,,,1,  ,,0,9.850088183,601.7237,0,0,0,0,1,2,1,,,,,,,,,,,,,,,,,
,5f2af6dc1a903c46dd0e53bd,001,2022-04-29_02h12.14.232,classification_task,2021.2.3,Win32,59.98080614,5f2af6dc1a903c46dd0e53bd,626b377229c10585ec392f89,626b3a7e1ce2c60a76cb44c0,,,,,,,,,,,,,,,,,,,,,,,,,,,,,,,,,,,,,,,2,  ,,0,5.024495395,621.7704,0,0,0,0,1,2,1,,,,,,,,,,,,,,,,,
,5f2af6dc1a903c46dd0e53bd,001,2022-04-29_02h12.14.232,classification_task,2021.2.3,Win32,59.98080614,5f2af6dc1a903c46dd0e53bd,626b377229c10585ec392f89,626b3a7e1ce2c60a76cb44c0,,,,,,,,,,,,,,,,,,,,,,,,,,,,,,,,,,,,,,,,,,,,,0,0,0,0,1,,1,,,,,,,,,,,,,,,,,
,5f2af6dc1a903c46dd0e53bd,001,2022-04-29_02h12.14.232,classification_task,2021.2.3,Win32,59.98080614,5f2af6dc1a903c46dd0e53bd,626b377229c10585ec392f89,626b3a7e1ce2c60a76cb44c0,,,,,,,,,,,,,,,,,,,,,space,13.4629,l,1,7.0386,"[""0.147"",""0.382"",""0.452"",""0.670""]","[1,1,1,0]",0,0,0,0,1,1,0,,,0,FALSE,,,,,,,,,,,,,,,,,,,,,,,,,,,,,,
,5f2af6dc1a903c46dd0e53bd,001,2022-04-29_02h12.14.232,classification_task,2021.2.3,Win32,59.98080614,5f2af6dc1a903c46dd0e53bd,626b377229c10585ec392f89,626b3a7e1ce2c60a76cb44c0,,,,,,,,,,,,,,,,,,,,,,,a,1,5.6833,"[""0.222"",""0.347"",""0.794"",""0.885""]","[1,0,1,1]",0,1,1,1,1,0,0,,,0,FALSE,,,,,,,,,,,,,,,,,,,,,,,,,,,,,,
,5f2af6dc1a903c46dd0e53bd,001,2022-04-29_02h12.14.232,classification_task,2021.2.3,Win32,59.98080614,5f2af6dc1a903c46dd0e53bd,626b377229c10585ec392f89,626b3a7e1ce2c60a76cb44c0,,,,,,,,,,,,,,,,,,,,,,,l,0,3.1334,"[""0.683"",""0.417"",""0.933"",""0.968""]","[0,1,1,1]",0,2,2,2,1,0,1,,,0,FALSE,,,,,,,,,,,,,,,,,,,,,,,,,,,,,,
,5f2af6dc1a903c46dd0e53bd,001,2022-04-29_02h12.14.232,classification_task,2021.2.3,Win32,59.98080614,5f2af6dc1a903c46dd0e53bd,626b377229c10585ec392f89,626b3a7e1ce2c60a76cb44c0,,,,,,,,,,,,,,,,,,,,,,,l,1,1.8835,"[""0.147"",""0.382"",""0.647"",""0.832""]","[1,1,0,1]",0,3,3,3,1,1,0,,,0,FALSE,,,,,,,,,,,,,,,,,,,,,,,,,,,,,,
,5f2af6dc1a903c46dd0e53bd,001,2022-04-29_02h12.14.232,classification_task,2021.2.3,Win32,59.98080614,5f2af6dc1a903c46dd0e53bd,626b377229c10585ec392f89,626b3a7e1ce2c60a76cb44c0,,,,,,,,,,,,,,,,,,,,,,,a,0,2.0169,"[""0.053"",""0.307"",""0.588"",""0.098""]","[1,1,1,0]",0,4,4,4,1,1,1,,,0,FALSE,,,,,,,,,,,,,,,,,,,,,,,,,,,,,,
,5f2af6dc1a903c46dd0e53bd,001,2022-04-29_02h12.14.232,classification_task,2021.2.3,Win32,59.98080614,5f2af6dc1a903c46dd0e53bd,626b377229c10585ec392f89,626b3a7e1ce2c60a76cb44c0,,,,,,,,,,,,,,,,,,,,,,,a,1,0.9169,"[""0.222"",""0.519"",""0.671"",""0.885""]","[1,1,0,1]",0,5,5,5,1,0,0,,,0,FALSE,,,,,,,,,,,,,,,,,,,,,,,,,,,,,,
,5f2af6dc1a903c46dd0e53bd,001,2022-04-29_02h12.14.232,classification_task,2021.2.3,Win32,59.98080614,5f2af6dc1a903c46dd0e53bd,626b377229c10585ec392f89,626b3a7e1ce2c60a76cb44c0,,,,,,,,,,,,,,,,,,,,,,,a,1,0.767,"[""0.683"",""0.519"",""0.794"",""0.885""]","[0,1,1,1]",0,6,6,6,1,0,0,,,0,FALSE,,,,,,,,,,,,,,,,,,,,,,,,,,,,,,
,5f2af6dc1a903c46dd0e53bd,001,2022-04-29_02h12.14.232,classification_task,2021.2.3,Win32,59.98080614,5f2af6dc1a903c46dd0e53bd,626b377229c10585ec392f89,626b3a7e1ce2c60a76cb44c0,,,,,,,,,,,,,,,,,,,,,,,l,1,0.8668,"[""0.147"",""0.647"",""0.452"",""0.832""]","[1,0,1,1]",0,7,7,7,1,1,0,,,0,FALSE,,,,,,,,,,,,,,,,,,,,,,,,,,,,,,
,5f2af6dc1a903c46dd0e53bd,001,2022-04-29_02h12.14.232,classification_task,2021.2.3,Win32,59.98080614,5f2af6dc1a903c46dd0e53bd,626b377229c10585ec392f89,626b3a7e1ce2c60a76cb44c0,,,,,,,,,,,,,,,,,,,,,,,a,1,1.8668,"[""0.272"",""0.106"",""0.933"",""0.968""]","[1,0,1,1]",0,8,8,8,1,0,1,,,0,FALSE,,,,,,,,,,,,,,,,,,,,,,,,,,,,,,
,5f2af6dc1a903c46dd0e53bd,001,2022-04-29_02h12.14.232,classification_task,2021.2.3,Win32,59.98080614,5f2af6dc1a903c46dd0e53bd,626b377229c10585ec392f89,626b3a7e1ce2c60a76cb44c0,,,,,,,,,,,,,,,,,,,,,,,l,1,2.25,"[""0.670"",""0.382"",""0.452"",""0.832""]","[0,1,1,1]",0,9,9,9,1,1,0,,,0,FALSE,,,,,,,,,,,,,,,,,,,,,,,,,,,,,,
,5f2af6dc1a903c46dd0e53bd,001,2022-04-29_02h12.14.232,classification_task,2021.2.3,Win32,59.98080614,5f2af6dc1a903c46dd0e53bd,626b377229c10585ec392f89,626b3a7e1ce2c60a76cb44c0,,,,,,,,,,,,,,,,,,,,,,,a,0,1.9004,"[""0.053"",""0.307"",""0.647"",""0.730""]","[1,1,0,1]",0,10,10,10,1,1,1,,,0,FALSE,,,,,,,,,,,,,,,,,,,,,,,,,,,,,,
,5f2af6dc1a903c46dd0e53bd,001,2022-04-29_02h12.14.232,classification_task,2021.2.3,Win32,59.98080614,5f2af6dc1a903c46dd0e53bd,626b377229c10585ec392f89,626b3a7e1ce2c60a76cb44c0,,,,,,,,,,,,,,,,,,,,,,,a,0,1.267,"[""0.112"",""0.307"",""0.588"",""0.730""]","[0,1,1,1]",0,11,11,11,1,1,1,,,0,FALSE,,,,,,,,,,,,,,,,,,,,,,,,,,,,,,
,5f2af6dc1a903c46dd0e53bd,001,2022-04-29_02h12.14.232,classification_task,2021.2.3,Win32,59.98080614,5f2af6dc1a903c46dd0e53bd,626b377229c10585ec392f89,626b3a7e1ce2c60a76cb44c0,,,,,,,,,,,,,,,,,,,,,,,a,1,1.0501,"[""0.222"",""0.519"",""0.794"",""0.098""]","[1,1,1,0]",0,12,12,12,1,0,0,,,0,FALSE,,,,,,,,,,,,,,,,,,,,,,,,,,,,,,
,5f2af6dc1a903c46dd0e53bd,001,2022-04-29_02h12.14.232,classification_task,2021.2.3,Win32,59.98080614,5f2af6dc1a903c46dd0e53bd,626b377229c10585ec392f89,626b3a7e1ce2c60a76cb44c0,,,,,,,,,,,,,,,,,,,,,,,a,0,2.6835,"[""0.053"",""0.625"",""0.588"",""0.730""]","[1,0,1,1]",0,13,13,13,1,1,1,,,0,FALSE,,,,,,,,,,,,,,,,,,,,,,,,,,,,,,
,5f2af6dc1a903c46dd0e53bd,001,2022-04-29_02h12.14.232,classification_task,2021.2.3,Win32,59.98080614,5f2af6dc1a903c46dd0e53bd,626b377229c10585ec392f89,626b3a7e1ce2c60a76cb44c0,,,,,,,,,,,,,,,,,,,,,,,l,0,1.917,"[""0.272"",""0.417"",""0.933"",""0.347""]","[1,1,1,0]",0,14,14,14,1,0,1,,,0,FALSE,,,,,,,,,,,,,,,,,,,,,,,,,,,,,,
,5f2af6dc1a903c46dd0e53bd,001,2022-04-29_02h12.14.232,classification_task,2021.2.3,Win32,59.98080614,5f2af6dc1a903c46dd0e53bd,626b377229c10585ec392f89,626b3a7e1ce2c60a76cb44c0,,,,,,,,,,,,,,,,,,,,,,,a,1,2.7836,"[""0.272"",""0.417"",""0.675"",""0.968""]","[1,1,0,1]",0,15,15,15,1,0,1,,,0,FALSE,,,,,,,,,,,,,,,,,,,,,,,,,,,,,,
,5f2af6dc1a903c46dd0e53bd,001,2022-04-29_02h12.14.232,classification_task,2021.2.3,Win32,59.98080614,5f2af6dc1a903c46dd0e53bd,626b377229c10585ec392f89,626b3a7e1ce2c60a76cb44c0,,,,,,,,,,,,,,,,,,,,,,,a,1,1.0835,"[""0.272"",""0.417"",""0.933"",""0.112""]","[1,1,1,0]",0,16,16,16,1,0,1,,,0,FALSE,,,,,,,,,,,,,,,,,,,,,,,,,,,,,,
,5f2af6dc1a903c46dd0e53bd,001,2022-04-29_02h12.14.232,classification_task,2021.2.3,Win32,59.98080614,5f2af6dc1a903c46dd0e53bd,626b377229c10585ec392f89,626b3a7e1ce2c60a76cb44c0,,,,,,,,,,,,,,,,,,,,,,,a,1,1.2,"[""0.222"",""0.519"",""0.112"",""0.885""]","[1,1,0,1]",0,17,17,17,1,0,0,,,0,FALSE,,,,,,,,,,,,,,,,,,,,,,,,,,,,,,
,5f2af6dc1a903c46dd0e53bd,001,2022-04-29_02h12.14.232,classification_task,2021.2.3,Win32,59.98080614,5f2af6dc1a903c46dd0e53bd,626b377229c10585ec392f89,626b3a7e1ce2c60a76cb44c0,,,,,,,,,,,,,,,,,,,,,,,a,1,2.9669,"[""0.272"",""0.417"",""0.347"",""0.968""]","[1,1,0,1]",0,18,18,18,1,0,1,,,0,FALSE,,,,,,,,,,,,,,,,,,,,,,,,,,,,,,
,5f2af6dc1a903c46dd0e53bd,001,2022-04-29_02h12.14.232,classification_task,2021.2.3,Win32,59.98080614,5f2af6dc1a903c46dd0e53bd,626b377229c10585ec392f89,626b3a7e1ce2c60a76cb44c0,,,,,,,,,,,,,,,,,,,,,,,l,1,0.8504,"[""0.106"",""0.382"",""0.452"",""0.832""]","[0,1,1,1]",0,19,19,19,1,1,0,,,0,FALSE,,,,,,,,,,,,,,,,,,,,,,,,,,,,,,
,5f2af6dc1a903c46dd0e53bd,001,2022-04-29_02h12.14.232,classification_task,2021.2.3,Win32,59.98080614,5f2af6dc1a903c46dd0e53bd,626b377229c10585ec392f89,626b3a7e1ce2c60a76cb44c0,,,,,,,,,,,,,,,,,,,,,,,a,0,2.0667,"[""0.112"",""0.307"",""0.588"",""0.730""]","[0,1,1,1]",0,20,20,20,1,1,1,,,0,FALSE,,,,,,,,,,,,,,,,,,,,,,,,,,,,,,
,5f2af6dc1a903c46dd0e53bd,001,2022-04-29_02h12.14.232,classification_task,2021.2.3,Win32,59.98080614,5f2af6dc1a903c46dd0e53bd,626b377229c10585ec392f89,626b3a7e1ce2c60a76cb44c0,,,,,,,,,,,,,,,,,,,,,,,a,1,1.067,"[""0.222"",""0.519"",""0.794"",""0.675""]","[1,1,1,0]",0,21,21,21,1,0,0,,,0,FALSE,,,,,,,,,,,,,,,,,,,,,,,,,,,,,,
,5f2af6dc1a903c46dd0e53bd,001,2022-04-29_02h12.14.232,classification_task,2021.2.3,Win32,59.98080614,5f2af6dc1a903c46dd0e53bd,626b377229c10585ec392f89,626b3a7e1ce2c60a76cb44c0,,,,,,,,,,,,,,,,,,,,,,,a,1,1.1,"[""0.272"",""0.682"",""0.933"",""0.968""]","[1,0,1,1]",0,22,22,22,1,0,1,,,0,FALSE,,,,,,,,,,,,,,,,,,,,,,,,,,,,,,
,5f2af6dc1a903c46dd0e53bd,001,2022-04-29_02h12.14.232,classification_task,2021.2.3,Win32,59.98080614,5f2af6dc1a903c46dd0e53bd,626b377229c10585ec392f89,626b3a7e1ce2c60a76cb44c0,,,,,,,,,,,,,,,,,,,,,,,l,1,0.8001,"[""0.147"",""0.670"",""0.452"",""0.832""]","[1,0,1,1]",0,23,23,23,1,1,0,,,0,FALSE,,,,,,,,,,,,,,,,,,,,,,,,,,,,,,
,5f2af6dc1a903c46dd0e53bd,001,2022-04-29_02h12.14.232,classification_task,2021.2.3,Win32,59.98080614,5f2af6dc1a903c46dd0e53bd,626b377229c10585ec392f89,626b3a7e1ce2c60a76cb44c0,,,,,,,,,,,,,,,,,,,,,,,a,1,2.4832,"[""0.222"",""0.347"",""0.794"",""0.885""]","[1,0,1,1]",0,24,24,24,1,0,0,,,0,FALSE,,,,,,,,,,,,,,,,,,,,,,,,,,,,,,
,5f2af6dc1a903c46dd0e53bd,001,2022-04-29_02h12.14.232,classification_task,2021.2.3,Win32,59.98080614,5f2af6dc1a903c46dd0e53bd,626b377229c10585ec392f89,626b3a7e1ce2c60a76cb44c0,,,,,,,,,,,,,,,,,,,,,,,a,1,0.817,"[""0.682"",""0.519"",""0.794"",""0.885""]","[0,1,1,1]",0,25,25,25,1,0,0,,,0,FALSE,,,,,,,,,,,,,,,,,,,,,,,,,,,,,,
,5f2af6dc1a903c46dd0e53bd,001,2022-04-29_02h12.14.232,classification_task,2021.2.3,Win32,59.98080614,5f2af6dc1a903c46dd0e53bd,626b377229c10585ec392f89,626b3a7e1ce2c60a76cb44c0,,,,,,,,,,,,,,,,,,,,,,,l,1,0.6833,"[""0.147"",""0.382"",""0.452"",""0.683""]","[1,1,1,0]",0,26,26,26,1,1,0,,,0,FALSE,,,,,,,,,,,,,,,,,,,,,,,,,,,,,,
,5f2af6dc1a903c46dd0e53bd,001,2022-04-29_02h12.14.232,classification_task,2021.2.3,Win32,59.98080614,5f2af6dc1a903c46dd0e53bd,626b377229c10585ec392f89,626b3a7e1ce2c60a76cb44c0,,,,,,,,,,,,,,,,,,,,,,,l,1,4.95,"[""0.053"",""0.307"",""0.588"",""0.347""]","[1,1,1,0]",0,27,27,27,1,1,1,,,0,FALSE,,,,,,,,,,,,,,,,,,,,,,,,,,,,,,
,5f2af6dc1a903c46dd0e53bd,001,2022-04-29_02h12.14.232,classification_task,2021.2.3,Win32,59.98080614,5f2af6dc1a903c46dd0e53bd,626b377229c10585ec392f89,626b3a7e1ce2c60a76cb44c0,,,,,,,,,,,,,,,,,,,,,,,a,0,2.1166,"[""0.053"",""0.684"",""0.588"",""0.730""]","[1,0,1,1]",0,28,28,28,1,1,1,,,0,FALSE,,,,,,,,,,,,,,,,,,,,,,,,,,,,,,
,5f2af6dc1a903c46dd0e53bd,001,2022-04-29_02h12.14.232,classification_task,2021.2.3,Win32,59.98080614,5f2af6dc1a903c46dd0e53bd,626b377229c10585ec392f89,626b3a7e1ce2c60a76cb44c0,,,,,,,,,,,,,,,,,,,,,,,a,1,1.0504,"[""0.625"",""0.417"",""0.933"",""0.968""]","[0,1,1,1]",0,29,29,29,1,0,1,,,0,FALSE,,,,,,,,,,,,,,,,,,,,,,,,,,,,,,
,5f2af6dc1a903c46dd0e53bd,001,2022-04-29_02h12.14.232,classification_task,2021.2.3,Win32,59.98080614,5f2af6dc1a903c46dd0e53bd,626b377229c10585ec392f89,626b3a7e1ce2c60a76cb44c0,,,,,,,,,,,,,,,,,,,,,,,l,1,1.3,"[""0.053"",""0.307"",""0.682"",""0.730""]","[1,1,0,1]",0,30,30,30,1,1,1,,,0,FALSE,,,,,,,,,,,,,,,,,,,,,,,,,,,,,,
,5f2af6dc1a903c46dd0e53bd,001,2022-04-29_02h12.14.232,classification_task,2021.2.3,Win32,59.98080614,5f2af6dc1a903c46dd0e53bd,626b377229c10585ec392f89,626b3a7e1ce2c60a76cb44c0,,,,,,,,,,,,,,,,,,,,,,,l,1,0.9169,"[""0.147"",""0.382"",""0.106"",""0.832""]","[1,1,0,1]",0,31,31,31,1,1,0,,,0,FALSE,,,,,,,,,,,,,,,,,,,,,,,,,,,,,,
,5f2af6dc1a903c46dd0e53bd,001,2022-04-29_02h12.14.232,classification_task,2021.2.3,Win32,59.98080614,5f2af6dc1a903c46dd0e53bd,626b377229c10585ec392f89,626b3a7e1ce2c60a76cb44c0,,,,,,,,,,,,,,,,,,,,,,,a,1,1.3166,"[""0.272"",""0.417"",""0.675"",""0.968""]","[1,1,0,1]",0,32,32,32,1,0,1,,,0,FALSE,,,,,,,,,,,,,,,,,,,,,,,,,,,,,,
,5f2af6dc1a903c46dd0e53bd,001,2022-04-29_02h12.14.232,classification_task,2021.2.3,Win32,59.98080614,5f2af6dc1a903c46dd0e53bd,626b377229c10585ec392f89,626b3a7e1ce2c60a76cb44c0,,,,,,,,,,,,,,,,,,,,,,,a,0,2.3664,"[""0.053"",""0.307"",""0.588"",""0.112""]","[1,1,1,0]",0,33,33,33,1,1,1,,,0,FALSE,,,,,,,,,,,,,,,,,,,,,,,,,,,,,,
,5f2af6dc1a903c46dd0e53bd,001,2022-04-29_02h12.14.232,classification_task,2021.2.3,Win32,59.98080614,5f2af6dc1a903c46dd0e53bd,626b377229c10585ec392f89,626b3a7e1ce2c60a76cb44c0,,,,,,,,,,,,,,,,,,,,,,,l,1,0.867,"[""0.682"",""0.382"",""0.452"",""0.832""]","[0,1,1,1]",0,34,34,34,1,1,0,,,0,FALSE,,,,,,,,,,,,,,,,,,,,,,,,,,,,,,
,5f2af6dc1a903c46dd0e53bd,001,2022-04-29_02h12.14.232,classification_task,2021.2.3,Win32,59.98080614,5f2af6dc1a903c46dd0e53bd,626b377229c10585ec392f89,626b3a7e1ce2c60a76cb44c0,,,,,,,,,,,,,,,,,,,,,,,a,1,0.8834,"[""0.098"",""0.417"",""0.933"",""0.968""]","[0,1,1,1]",0,35,35,35,1,0,1,,,0,FALSE,,,,,,,,,,,,,,,,,,,,,,,,,,,,,,
,5f2af6dc1a903c46dd0e53bd,001,2022-04-29_02h12.14.232,classification_task,2021.2.3,Win32,59.98080614,5f2af6dc1a903c46dd0e53bd,626b377229c10585ec392f89,626b3a7e1ce2c60a76cb44c0,,,,,,,,,,,,,,,,,,,,,,,a,0,2.017,"[""0.647"",""0.307"",""0.588"",""0.730""]","[0,1,1,1]",0,36,36,36,1,1,1,,,0,FALSE,,,,,,,,,,,,,,,,,,,,,,,,,,,,,,
,5f2af6dc1a903c46dd0e53bd,001,2022-04-29_02h12.14.232,classification_task,2021.2.3,Win32,59.98080614,5f2af6dc1a903c46dd0e53bd,626b377229c10585ec392f89,626b3a7e1ce2c60a76cb44c0,,,,,,,,,,,,,,,,,,,,,,,a,1,1.1167,"[""0.222"",""0.519"",""0.683"",""0.885""]","[1,1,0,1]",0,37,37,37,1,0,0,,,0,FALSE,,,,,,,,,,,,,,,,,,,,,,,,,,,,,,
,5f2af6dc1a903c46dd0e53bd,001,2022-04-29_02h12.14.232,classification_task,2021.2.3,Win32,59.98080614,5f2af6dc1a903c46dd0e53bd,626b377229c10585ec392f89,626b3a7e1ce2c60a76cb44c0,,,,,,,,,,,,,,,,,,,,,,,l,0,3.0334,"[""0.272"",""0.417"",""0.933"",""0.647""]","[1,1,1,0]",0,38,38,38,1,0,1,,,0,FALSE,,,,,,,,,,,,,,,,,,,,,,,,,,,,,,
,5f2af6dc1a903c46dd0e53bd,001,2022-04-29_02h12.14.232,classification_task,2021.2.3,Win32,59.98080614,5f2af6dc1a903c46dd0e53bd,626b377229c10585ec392f89,626b3a7e1ce2c60a76cb44c0,,,,,,,,,,,,,,,,,,,,,,,a,1,1.1336,"[""0.222"",""0.519"",""0.794"",""0.347""]","[1,1,1,0]",0,39,39,39,1,0,0,,,0,FALSE,,,,,,,,,,,,,,,,,,,,,,,,,,,,,,
,5f2af6dc1a903c46dd0e53bd,001,2022-04-29_02h12.14.232,classification_task,2021.2.3,Win32,59.98080614,5f2af6dc1a903c46dd0e53bd,626b377229c10585ec392f89,626b3a7e1ce2c60a76cb44c0,,,,,,,,,,,,,,,,,,,,,,,l,1,2.0169,"[""0.053"",""0.112"",""0.588"",""0.730""]","[1,0,1,1]",0,40,40,40,1,1,1,,,0,FALSE,,,,,,,,,,,,,,,,,,,,,,,,,,,,,,
,5f2af6dc1a903c46dd0e53bd,001,2022-04-29_02h12.14.232,classification_task,2021.2.3,Win32,59.98080614,5f2af6dc1a903c46dd0e53bd,626b377229c10585ec392f89,626b3a7e1ce2c60a76cb44c0,,,,,,,,,,,,,,,,,,,,,,,l,1,0.8337,"[""0.147"",""0.684"",""0.452"",""0.832""]","[1,0,1,1]",0,41,41,41,1,1,0,,,0,FALSE,,,,,,,,,,,,,,,,,,,,,,,,,,,,,,
,5f2af6dc1a903c46dd0e53bd,001,2022-04-29_02h12.14.232,classification_task,2021.2.3,Win32,59.98080614,5f2af6dc1a903c46dd0e53bd,626b377229c10585ec392f89,626b3a7e1ce2c60a76cb44c0,,,,,,,,,,,,,,,,,,,,,,,a,1,1.2002,"[""0.272"",""0.684"",""0.933"",""0.968""]","[1,0,1,1]",0,42,42,42,1,0,1,,,0,FALSE,,,,,,,,,,,,,,,,,,,,,,,,,,,,,,
,5f2af6dc1a903c46dd0e53bd,001,2022-04-29_02h12.14.232,classification_task,2021.2.3,Win32,59.98080614,5f2af6dc1a903c46dd0e53bd,626b377229c10585ec392f89,626b3a7e1ce2c60a76cb44c0,,,,,,,,,,,,,,,,,,,,,,,a,1,0.9002,"[""0.671"",""0.519"",""0.794"",""0.885""]","[0,1,1,1]",0,43,43,43,1,0,0,,,0,FALSE,,,,,,,,,,,,,,,,,,,,,,,,,,,,,,
,5f2af6dc1a903c46dd0e53bd,001,2022-04-29_02h12.14.232,classification_task,2021.2.3,Win32,59.98080614,5f2af6dc1a903c46dd0e53bd,626b377229c10585ec392f89,626b3a7e1ce2c60a76cb44c0,,,,,,,,,,,,,,,,,,,,,,,l,1,1.4668,"[""0.147"",""0.382"",""0.452"",""0.684""]","[1,1,1,0]",0,44,44,44,1,1,0,,,0,FALSE,,,,,,,,,,,,,,,,,,,,,,,,,,,,,,
,5f2af6dc1a903c46dd0e53bd,001,2022-04-29_02h12.14.232,classification_task,2021.2.3,Win32,59.98080614,5f2af6dc1a903c46dd0e53bd,626b377229c10585ec392f89,626b3a7e1ce2c60a76cb44c0,,,,,,,,,,,,,,,,,,,,,,,l,1,2.5999,"[""0.147"",""0.382"",""0.647"",""0.832""]","[1,1,0,1]",0,45,45,45,1,1,0,,,0,FALSE,,,,,,,,,,,,,,,,,,,,,,,,,,,,,,
,5f2af6dc1a903c46dd0e53bd,001,2022-04-29_02h12.14.232,classification_task,2021.2.3,Win32,59.98080614,5f2af6dc1a903c46dd0e53bd,626b377229c10585ec392f89,626b3a7e1ce2c60a76cb44c0,,,,,,,,,,,,,,,,,,,,,,,a,1,1.7667,"[""0.222"",""0.647"",""0.794"",""0.885""]","[1,0,1,1]",0,46,46,46,1,0,0,,,0,FALSE,,,,,,,,,,,,,,,,,,,,,,,,,,,,,,
,5f2af6dc1a903c46dd0e53bd,001,2022-04-29_02h12.14.232,classification_task,2021.2.3,Win32,59.98080614,5f2af6dc1a903c46dd0e53bd,626b377229c10585ec392f89,626b3a7e1ce2c60a76cb44c0,,,,,,,,,,,,,,,,,,,,,,,a,0,3.7668,"[""0.053"",""0.307"",""0.670"",""0.730""]","[1,1,0,1]",0,47,47,47,1,1,1,,,0,FALSE,,,,,,,,,,,,,,,,,,,,,,,,,,,,,,
,5f2af6dc1a903c46dd0e53bd,001,2022-04-29_02h12.14.232,classification_task,2021.2.3,Win32,59.98080614,5f2af6dc1a903c46dd0e53bd,626b377229c10585ec392f89,626b3a7e1ce2c60a76cb44c0,,,,,,,,,,,,,,,,,,,,,,,a,1,1.6004,"[""0.272"",""0.417"",""0.690"",""0.968""]","[1,1,0,1]",0,48,48,48,1,0,1,,,0,FALSE,,,,,,,,,,,,,,,,,,,,,,,,,,,,,,
,5f2af6dc1a903c46dd0e53bd,001,2022-04-29_02h12.14.232,classification_task,2021.2.3,Win32,59.98080614,5f2af6dc1a903c46dd0e53bd,626b377229c10585ec392f89,626b3a7e1ce2c60a76cb44c0,,,,,,,,,,,,,,,,,,,,,,,a,1,0.9002,"[""0.272"",""0.625"",""0.933"",""0.968""]","[1,0,1,1]",0,49,49,49,1,0,1,,,0,FALSE,,,,,,,,,,,,,,,,,,,,,,,,,,,,,,
,5f2af6dc1a903c46dd0e53bd,001,2022-04-29_02h12.14.232,classification_task,2021.2.3,Win32,59.98080614,5f2af6dc1a903c46dd0e53bd,626b377229c10585ec392f89,626b3a7e1ce2c60a76cb44c0,,,,,,,,,,,,,,,,,,,,,,,l,1,2.1668,"[""0.053"",""0.307"",""0.588"",""0.347""]","[1,1,1,0]",0,50,50,50,1,1,1,,,0,FALSE,,,,,,,,,,,,,,,,,,,,,,,,,,,,,,
,5f2af6dc1a903c46dd0e53bd,001,2022-04-29_02h12.14.232,classification_task,2021.2.3,Win32,59.98080614,5f2af6dc1a903c46dd0e53bd,626b377229c10585ec392f89,626b3a7e1ce2c60a76cb44c0,,,,,,,,,,,,,,,,,,,,,,,a,1,3.067,"[""0.272"",""0.417"",""0.933"",""0.670""]","[1,1,1,0]",0,51,51,51,1,0,1,,,0,FALSE,,,,,,,,,,,,,,,,,,,,,,,,,,,,,,
,5f2af6dc1a903c46dd0e53bd,001,2022-04-29_02h12.14.232,classification_task,2021.2.3,Win32,59.98080614,5f2af6dc1a903c46dd0e53bd,626b377229c10585ec392f89,626b3a7e1ce2c60a76cb44c0,,,,,,,,,,,,,,,,,,,,,,,l,1,2.8502,"[""0.675"",""0.382"",""0.452"",""0.832""]","[0,1,1,1]",0,52,52,52,1,1,0,,,0,FALSE,,,,,,,,,,,,,,,,,,,,,,,,,,,,,,
,5f2af6dc1a903c46dd0e53bd,001,2022-04-29_02h12.14.232,classification_task,2021.2.3,Win32,59.98080614,5f2af6dc1a903c46dd0e53bd,626b377229c10585ec392f89,626b3a7e1ce2c60a76cb44c0,,,,,,,,,,,,,,,,,,,,,,,l,1,1.3502,"[""0.147"",""0.382"",""0.625"",""0.832""]","[1,1,0,1]",0,53,53,53,1,1,0,,,0,FALSE,,,,,,,,,,,,,,,,,,,,,,,,,,,,,,
,5f2af6dc1a903c46dd0e53bd,001,2022-04-29_02h12.14.232,classification_task,2021.2.3,Win32,59.98080614,5f2af6dc1a903c46dd0e53bd,626b377229c10585ec392f89,626b3a7e1ce2c60a76cb44c0,,,,,,,,,,,,,,,,,,,,,,,a,1,1.4503,"[""0.222"",""0.106"",""0.794"",""0.885""]","[1,0,1,1]",0,54,54,54,1,0,0,,,0,FALSE,,,,,,,,,,,,,,,,,,,,,,,,,,,,,,
,5f2af6dc1a903c46dd0e53bd,001,2022-04-29_02h12.14.232,classification_task,2021.2.3,Win32,59.98080614,5f2af6dc1a903c46dd0e53bd,626b377229c10585ec392f89,626b3a7e1ce2c60a76cb44c0,,,,,,,,,,,,,,,,,,,,,,,l,1,1.9836,"[""0.147"",""0.382"",""0.452"",""0.682""]","[1,1,1,0]",0,55,55,55,1,1,0,,,0,FALSE,,,,,,,,,,,,,,,,,,,,,,,,,,,,,,
,5f2af6dc1a903c46dd0e53bd,001,2022-04-29_02h12.14.232,classification_task,2021.2.3,Win32,59.98080614,5f2af6dc1a903c46dd0e53bd,626b377229c10585ec392f89,626b3a7e1ce2c60a76cb44c0,,,,,,,,,,,,,,,,,,,,,,,a,1,1.0333,"[""0.675"",""0.417"",""0.933"",""0.968""]","[0,1,1,1]",0,56,56,56,1,0,1,,,0,FALSE,,,,,,,,,,,,,,,,,,,,,,,,,,,,,,
,5f2af6dc1a903c46dd0e53bd,001,2022-04-29_02h12.14.232,classification_task,2021.2.3,Win32,59.98080614,5f2af6dc1a903c46dd0e53bd,626b377229c10585ec392f89,626b3a7e1ce2c60a76cb44c0,,,,,,,,,,,,,,,,,,,,,,,l,1,2.3333,"[""0.053"",""0.307"",""0.625"",""0.730""]","[1,1,0,1]",0,57,57,57,1,1,1,,,0,FALSE,,,,,,,,,,,,,,,,,,,,,,,,,,,,,,
,5f2af6dc1a903c46dd0e53bd,001,2022-04-29_02h12.14.232,classification_task,2021.2.3,Win32,59.98080614,5f2af6dc1a903c46dd0e53bd,626b377229c10585ec392f89,626b3a7e1ce2c60a76cb44c0,,,,,,,,,,,,,,,,,,,,,,,a,1,1.4501,"[""0.222"",""0.519"",""0.794"",""0.347""]","[1,1,1,0]",0,58,58,58,1,0,0,,,0,FALSE,,,,,,,,,,,,,,,,,,,,,,,,,,,,,,
,5f2af6dc1a903c46dd0e53bd,001,2022-04-29_02h12.14.232,classification_task,2021.2.3,Win32,59.98080614,5f2af6dc1a903c46dd0e53bd,626b377229c10585ec392f89,626b3a7e1ce2c60a76cb44c0,,,,,,,,,,,,,,,,,,,,,,,l,1,2.1333,"[""0.053"",""0.683"",""0.588"",""0.730""]","[1,0,1,1]",0,59,59,59,1,1,1,,,0,FALSE,,,,,,,,,,,,,,,,,,,,,,,,,,,,,,
,5f2af6dc1a903c46dd0e53bd,001,2022-04-29_02h12.14.232,classification_task,2021.2.3,Win32,59.98080614,5f2af6dc1a903c46dd0e53bd,626b377229c10585ec392f89,626b3a7e1ce2c60a76cb44c0,,,,,,,,,,,,,,,,,,,,,,,l,1,1.9003,"[""0.670"",""0.307"",""0.588"",""0.730""]","[0,1,1,1]",0,60,60,60,1,1,1,,,0,FALSE,,,,,,,,,,,,,,,,,,,,,,,,,,,,,,
,5f2af6dc1a903c46dd0e53bd,001,2022-04-29_02h12.14.232,classification_task,2021.2.3,Win32,59.98080614,5f2af6dc1a903c46dd0e53bd,626b377229c10585ec392f89,626b3a7e1ce2c60a76cb44c0,,,,,,,,,,,,,,,,,,,,,,,l,1,2.2834,"[""0.147"",""0.098"",""0.452"",""0.832""]","[1,0,1,1]",0,61,61,61,1,1,0,,,0,FALSE,,,,,,,,,,,,,,,,,,,,,,,,,,,,,,
,5f2af6dc1a903c46dd0e53bd,001,2022-04-29_02h12.14.232,classification_task,2021.2.3,Win32,59.98080614,5f2af6dc1a903c46dd0e53bd,626b377229c10585ec392f89,626b3a7e1ce2c60a76cb44c0,,,,,,,,,,,,,,,,,,,,,,,a,1,0.9503,"[""0.222"",""0.519"",""0.690"",""0.885""]","[1,1,0,1]",0,62,62,62,1,0,0,,,0,FALSE,,,,,,,,,,,,,,,,,,,,,,,,,,,,,,
,5f2af6dc1a903c46dd0e53bd,001,2022-04-29_02h12.14.232,classification_task,2021.2.3,Win32,59.98080614,5f2af6dc1a903c46dd0e53bd,626b377229c10585ec392f89,626b3a7e1ce2c60a76cb44c0,,,,,,,,,,,,,,,,,,,,,,,a,1,1.3336,"[""0.683"",""0.519"",""0.794"",""0.885""]","[0,1,1,1]",0,63,63,63,1,0,0,,,0,FALSE,,,,,,,,,,,,,,,,,,,,,,,,,,,,,,
,5f2af6dc1a903c46dd0e53bd,001,2022-04-29_02h12.14.232,classification_task,2021.2.3,Win32,59.98080614,5f2af6dc1a903c46dd0e53bd,626b377229c10585ec392f89,626b3a7e1ce2c60a76cb44c0,,,,,,,,,,,,,,,,,,,,,,,,,,,,,,,,,,,,,,,0, ,,0,0.100921027,211.3562,0,1,1,1,1,2,2,,,,,,,,,,,,,,,,,
,5f2af6dc1a903c46dd0e53bd,001,2022-04-29_02h12.14.232,classification_task,2021.2.3,Win32,59.98080614,5f2af6dc1a903c46dd0e53bd,626b377229c10585ec392f89,626b3a7e1ce2c60a76cb44c0,,,,,,,,,,,,,,,,,,,,,,,,,,,,,,,,,,,,,,,1,  ,,0,9.923574368,220.9785,0,1,1,1,1,2,2,,,,,,,,,,,,,,,,,
,5f2af6dc1a903c46dd0e53bd,001,2022-04-29_02h12.14.232,classification_task,2021.2.3,Win32,59.98080614,5f2af6dc1a903c46dd0e53bd,626b377229c10585ec392f89,626b3a7e1ce2c60a76cb44c0,,,,,,,,,,,,,,,,,,,,,,,,,,,,,,,,,,,,,,,2,  ,,0,5.024495395,224.1225,0,1,1,1,1,2,2,,,,,,,,,,,,,,,,,
,5f2af6dc1a903c46dd0e53bd,001,2022-04-29_02h12.14.232,classification_task,2021.2.3,Win32,59.98080614,5f2af6dc1a903c46dd0e53bd,626b377229c10585ec392f89,626b3a7e1ce2c60a76cb44c0,,,,,,,,,,,,,,,,,,,,,,,,,,,,,,,,,,,,,,,,,,,,,0,1,1,1,1,,2,,,,,,,,,,,,,,,,,
,5f2af6dc1a903c46dd0e53bd,001,2022-04-29_02h12.14.232,classification_task,2021.2.3,Win32,59.98080614,5f2af6dc1a903c46dd0e53bd,626b377229c10585ec392f89,626b3a7e1ce2c60a76cb44c0,,,,,,,,,,,,,,,,,,,,,space,11.9704,a,1,2.0334,"[""0.272"",""0.417"",""0.675"",""0.968""]","[1,1,0,1]",0,0,0,0,1,0,1,,,0,FALSE,,,,,,,,,,,,,,,,,,,,,,,,,,,,,,
,5f2af6dc1a903c46dd0e53bd,001,2022-04-29_02h12.14.232,classification_task,2021.2.3,Win32,59.98080614,5f2af6dc1a903c46dd0e53bd,626b377229c10585ec392f89,626b3a7e1ce2c60a76cb44c0,,,,,,,,,,,,,,,,,,,,,,,a,1,1.8168,"[""0.670"",""0.417"",""0.933"",""0.968""]","[0,1,1,1]",0,1,1,1,1,0,1,,,0,FALSE,,,,,,,,,,,,,,,,,,,,,,,,,,,,,,
,5f2af6dc1a903c46dd0e53bd,001,2022-04-29_02h12.14.232,classification_task,2021.2.3,Win32,59.98080614,5f2af6dc1a903c46dd0e53bd,626b377229c10585ec392f89,626b3a7e1ce2c60a76cb44c0,,,,,,,,,,,,,,,,,,,,,,,l,1,3.6335,"[""0.683"",""0.382"",""0.452"",""0.832""]","[0,1,1,1]",0,2,2,2,1,1,0,,,0,FALSE,,,,,,,,,,,,,,,,,,,,,,,,,,,,,,
,5f2af6dc1a903c46dd0e53bd,001,2022-04-29_02h12.14.232,classification_task,2021.2.3,Win32,59.98080614,5f2af6dc1a903c46dd0e53bd,626b377229c10585ec392f89,626b3a7e1ce2c60a76cb44c0,,,,,,,,,,,,,,,,,,,,,,,l,1,2.7502,"[""0.147"",""0.347"",""0.452"",""0.832""]","[1,0,1,1]",0,3,3,3,1,1,0,,,0,FALSE,,,,,,,,,,,,,,,,,,,,,,,,,,,,,,
,5f2af6dc1a903c46dd0e53bd,001,2022-04-29_02h12.14.232,classification_task,2021.2.3,Win32,59.98080614,5f2af6dc1a903c46dd0e53bd,626b377229c10585ec392f89,626b3a7e1ce2c60a76cb44c0,,,,,,,,,,,,,,,,,,,,,,,a,1,1.2502,"[""0.670"",""0.519"",""0.794"",""0.885""]","[0,1,1,1]",0,4,4,4,1,0,0,,,0,FALSE,,,,,,,,,,,,,,,,,,,,,,,,,,,,,,
,5f2af6dc1a903c46dd0e53bd,001,2022-04-29_02h12.14.232,classification_task,2021.2.3,Win32,59.98080614,5f2af6dc1a903c46dd0e53bd,626b377229c10585ec392f89,626b3a7e1ce2c60a76cb44c0,,,,,,,,,,,,,,,,,,,,,,,a,0,2.6001,"[""0.112"",""0.307"",""0.588"",""0.730""]","[0,1,1,1]",0,5,5,5,1,1,1,,,0,FALSE,,,,,,,,,,,,,,,,,,,,,,,,,,,,,,
,5f2af6dc1a903c46dd0e53bd,001,2022-04-29_02h12.14.232,classification_task,2021.2.3,Win32,59.98080614,5f2af6dc1a903c46dd0e53bd,626b377229c10585ec392f89,626b3a7e1ce2c60a76cb44c0,,,,,,,,,,,,,,,,,,,,,,,l,1,3.1169,"[""0.147"",""0.382"",""0.452"",""0.647""]","[1,1,1,0]",0,6,6,6,1,1,0,,,0,FALSE,,,,,,,,,,,,,,,,,,,,,,,,,,,,,,
,5f2af6dc1a903c46dd0e53bd,001,2022-04-29_02h12.14.232,classification_task,2021.2.3,Win32,59.98080614,5f2af6dc1a903c46dd0e53bd,626b377229c10585ec392f89,626b3a7e1ce2c60a76cb44c0,,,,,,,,,,,,,,,,,,,,,,,a,1,1.0504,"[""0.272"",""0.347"",""0.933"",""0.968""]","[1,0,1,1]",0,7,7,7,1,0,1,,,0,FALSE,,,,,,,,,,,,,,,,,,,,,,,,,,,,,,
,5f2af6dc1a903c46dd0e53bd,001,2022-04-29_02h12.14.232,classification_task,2021.2.3,Win32,59.98080614,5f2af6dc1a903c46dd0e53bd,626b377229c10585ec392f89,626b3a7e1ce2c60a76cb44c0,,,,,,,,,,,,,,,,,,,,,,,a,1,5.9667,"[""0.272"",""0.417"",""0.933"",""0.670""]","[1,1,1,0]",0,8,8,8,1,0,1,,,0,FALSE,,,,,,,,,,,,,,,,,,,,,,,,,,,,,,
,5f2af6dc1a903c46dd0e53bd,001,2022-04-29_02h12.14.232,classification_task,2021.2.3,Win32,59.98080614,5f2af6dc1a903c46dd0e53bd,626b377229c10585ec392f89,626b3a7e1ce2c60a76cb44c0,,,,,,,,,,,,,,,,,,,,,,,l,1,1.9003,"[""0.053"",""0.107"",""0.588"",""0.730""]","[1,0,1,1]",0,9,9,9,1,1,1,,,0,FALSE,,,,,,,,,,,,,,,,,,,,,,,,,,,,,,
,5f2af6dc1a903c46dd0e53bd,001,2022-04-29_02h12.14.232,classification_task,2021.2.3,Win32,59.98080614,5f2af6dc1a903c46dd0e53bd,626b377229c10585ec392f89,626b3a7e1ce2c60a76cb44c0,,,,,,,,,,,,,,,,,,,,,,,a,1,2.9335,"[""0.222"",""0.519"",""0.794"",""0.670""]","[1,1,1,0]",0,10,10,10,1,0,0,,,0,FALSE,,,,,,,,,,,,,,,,,,,,,,,,,,,,,,
,5f2af6dc1a903c46dd0e53bd,001,2022-04-29_02h12.14.232,classification_task,2021.2.3,Win32,59.98080614,5f2af6dc1a903c46dd0e53bd,626b377229c10585ec392f89,626b3a7e1ce2c60a76cb44c0,,,,,,,,,,,,,,,,,,,,,,,l,1,2.3003,"[""0.053"",""0.307"",""0.588"",""0.112""]","[1,1,1,0]",0,11,11,11,1,1,1,,,0,FALSE,,,,,,,,,,,,,,,,,,,,,,,,,,,,,,
,5f2af6dc1a903c46dd0e53bd,001,2022-04-29_02h12.14.232,classification_task,2021.2.3,Win32,59.98080614,5f2af6dc1a903c46dd0e53bd,626b377229c10585ec392f89,626b3a7e1ce2c60a76cb44c0,,,,,,,,,,,,,,,,,,,,,,,l,1,2.4502,"[""0.147"",""0.382"",""0.690"",""0.832""]","[1,1,0,1]",0,12,12,12,1,1,0,,,0,FALSE,,,,,,,,,,,,,,,,,,,,,,,,,,,,,,
,5f2af6dc1a903c46dd0e53bd,001,2022-04-29_02h12.14.232,classification_task,2021.2.3,Win32,59.98080614,5f2af6dc1a903c46dd0e53bd,626b377229c10585ec392f89,626b3a7e1ce2c60a76cb44c0,,,,,,,,,,,,,,,,,,,,,,,l,0,2.0335,"[""0.222"",""0.519"",""0.112"",""0.885""]","[1,1,0,1]",0,13,13,13,1,0,0,,,0,FALSE,,,,,,,,,,,,,,,,,,,,,,,,,,,,,,
,5f2af6dc1a903c46dd0e53bd,001,2022-04-29_02h12.14.232,classification_task,2021.2.3,Win32,59.98080614,5f2af6dc1a903c46dd0e53bd,626b377229c10585ec392f89,626b3a7e1ce2c60a76cb44c0,,,,,,,,,,,,,,,,,,,,,,,a,1,1.6003,"[""0.222"",""0.675"",""0.794"",""0.885""]","[1,0,1,1]",0,14,14,14,1,0,0,,,0,FALSE,,,,,,,,,,,,,,,,,,,,,,,,,,,,,,
,5f2af6dc1a903c46dd0e53bd,001,2022-04-29_02h12.14.232,classification_task,2021.2.3,Win32,59.98080614,5f2af6dc1a903c46dd0e53bd,626b377229c10585ec392f89,626b3a7e1ce2c60a76cb44c0,,,,,,,,,,,,,,,,,,,,,,,a,0,6.0169,"[""0.053"",""0.307"",""0.671"",""0.730""]","[1,1,0,1]",0,15,15,15,1,1,1,,,0,FALSE,,,,,,,,,,,,,,,,,,,,,,,,,,,,,,
,5f2af6dc1a903c46dd0e53bd,001,2022-04-29_02h12.14.232,classification_task,2021.2.3,Win32,59.98080614,5f2af6dc1a903c46dd0e53bd,626b377229c10585ec392f89,626b3a7e1ce2c60a76cb44c0,,,,,,,,,,,,,,,,,,,,,,,l,0,3.7835,"[""0.222"",""0.519"",""0.794"",""0.675""]","[1,1,1,0]",0,16,16,16,1,0,0,,,0,FALSE,,,,,,,,,,,,,,,,,,,,,,,,,,,,,,
,5f2af6dc1a903c46dd0e53bd,001,2022-04-29_02h12.14.232,classification_task,2021.2.3,Win32,59.98080614,5f2af6dc1a903c46dd0e53bd,626b377229c10585ec392f89,626b3a7e1ce2c60a76cb44c0,,,,,,,,,,,,,,,,,,,,,,,l,1,2.6502,"[""0.053"",""0.307"",""0.098"",""0.730""]","[1,1,0,1]",0,17,17,17,1,1,1,,,0,FALSE,,,,,,,,,,,,,,,,,,,,,,,,,,,,,,
,5f2af6dc1a903c46dd0e53bd,001,2022-04-29_02h12.14.232,classification_task,2021.2.3,Win32,59.98080614,5f2af6dc1a903c46dd0e53bd,626b377229c10585ec392f89,626b3a7e1ce2c60a76cb44c0,,,,,,,,,,,,,,,,,,,,,,,a,1,6.6334,"[""0.222"",""0.671"",""0.794"",""0.885""]","[1,0,1,1]",0,18,18,18,1,0,0,,,0,FALSE,,,,,,,,,,,,,,,,,,,,,,,,,,,,,,
,5f2af6dc1a903c46dd0e53bd,001,2022-04-29_02h12.14.232,classification_task,2021.2.3,Win32,59.98080614,5f2af6dc1a903c46dd0e53bd,626b377229c10585ec392f89,626b3a7e1ce2c60a76cb44c0,,,,,,,,,,,,,,,,,,,,,,,a,1,7.1001,"[""0.222"",""0.519"",""0.098"",""0.885""]","[1,1,0,1]",0,19,19,19,1,0,0,,,0,FALSE,,,,,,,,,,,,,,,,,,,,,,,,,,,,,,
,5f2af6dc1a903c46dd0e53bd,001,2022-04-29_02h12.14.232,classification_task,2021.2.3,Win32,59.98080614,5f2af6dc1a903c46dd0e53bd,626b377229c10585ec392f89,626b3a7e1ce2c60a76cb44c0,,,,,,,,,,,,,,,,,,,,,,,a,1,2.5169,"[""0.272"",""0.417"",""0.933"",""0.690""]","[1,1,1,0]",0,20,20,20,1,0,1,,,0,FALSE,,,,,,,,,,,,,,,,,,,,,,,,,,,,,,
,5f2af6dc1a903c46dd0e53bd,001,2022-04-29_02h12.14.232,classification_task,2021.2.3,Win32,59.98080614,5f2af6dc1a903c46dd0e53bd,626b377229c10585ec392f89,626b3a7e1ce2c60a76cb44c0,,,,,,,,,,,,,,,,,,,,,,,a,1,0.9672,"[""0.671"",""0.417"",""0.933"",""0.968""]","[0,1,1,1]",0,21,21,21,1,0,1,,,0,FALSE,,,,,,,,,,,,,,,,,,,,,,,,,,,,,,
,5f2af6dc1a903c46dd0e53bd,001,2022-04-29_02h12.14.232,classification_task,2021.2.3,Win32,59.98080614,5f2af6dc1a903c46dd0e53bd,626b377229c10585ec392f89,626b3a7e1ce2c60a76cb44c0,,,,,,,,,,,,,,,,,,,,,,,a,1,0.9836,"[""0.272"",""0.671"",""0.933"",""0.968""]","[1,0,1,1]",0,22,22,22,1,0,1,,,0,FALSE,,,,,,,,,,,,,,,,,,,,,,,,,,,,,,
,5f2af6dc1a903c46dd0e53bd,001,2022-04-29_02h12.14.232,classification_task,2021.2.3,Win32,59.98080614,5f2af6dc1a903c46dd0e53bd,626b377229c10585ec392f89,626b3a7e1ce2c60a76cb44c0,,,,,,,,,,,,,,,,,,,,,,,a,0,4.0835,"[""0.053"",""0.675"",""0.588"",""0.730""]","[1,0,1,1]",0,23,23,23,1,1,1,,,0,FALSE,,,,,,,,,,,,,,,,,,,,,,,,,,,,,,
,5f2af6dc1a903c46dd0e53bd,001,2022-04-29_02h12.14.232,classification_task,2021.2.3,Win32,59.98080614,5f2af6dc1a903c46dd0e53bd,626b377229c10585ec392f89,626b3a7e1ce2c60a76cb44c0,,,,,,,,,,,,,,,,,,,,,,,l,1,4.0002,"[""0.682"",""0.382"",""0.452"",""0.832""]","[0,1,1,1]",0,24,24,24,1,1,0,,,0,FALSE,,,,,,,,,,,,,,,,,,,,,,,,,,,,,,
,5f2af6dc1a903c46dd0e53bd,001,2022-04-29_02h12.14.232,classification_task,2021.2.3,Win32,59.98080614,5f2af6dc1a903c46dd0e53bd,626b377229c10585ec392f89,626b3a7e1ce2c60a76cb44c0,,,,,,,,,,,,,,,,,,,,,,,a,1,1.9503,"[""0.272"",""0.417"",""0.647"",""0.968""]","[1,1,0,1]",0,25,25,25,1,0,1,,,0,FALSE,,,,,,,,,,,,,,,,,,,,,,,,,,,,,,
,5f2af6dc1a903c46dd0e53bd,001,2022-04-29_02h12.14.232,classification_task,2021.2.3,Win32,59.98080614,5f2af6dc1a903c46dd0e53bd,626b377229c10585ec392f89,626b3a7e1ce2c60a76cb44c0,,,,,,,,,,,,,,,,,,,,,,,a,0,2.4502,"[""0.675"",""0.307"",""0.588"",""0.730""]","[0,1,1,1]",0,26,26,26,1,1,1,,,0,FALSE,,,,,,,,,,,,,,,,,,,,,,,,,,,,,,
,5f2af6dc1a903c46dd0e53bd,001,2022-04-29_02h12.14.232,classification_task,2021.2.3,Win32,59.98080614,5f2af6dc1a903c46dd0e53bd,626b377229c10585ec392f89,626b3a7e1ce2c60a76cb44c0,,,,,,,,,,,,,,,,,,,,,,,l,1,1.7003,"[""0.053"",""0.307"",""0.588"",""0.106""]","[1,1,1,0]",0,27,27,27,1,1,1,,,0,FALSE,,,,,,,,,,,,,,,,,,,,,,,,,,,,,,
,5f2af6dc1a903c46dd0e53bd,001,2022-04-29_02h12.14.232,classification_task,2021.2.3,Win32,59.98080614,5f2af6dc1a903c46dd0e53bd,626b377229c10585ec392f89,626b3a7e1ce2c60a76cb44c0,,,,,,,,,,,,,,,,,,,,,,,l,1,4.6666,"[""0.147"",""0.683"",""0.452"",""0.832""]","[1,0,1,1]",0,28,28,28,1,1,0,,,0,FALSE,,,,,,,,,,,,,,,,,,,,,,,,,,,,,,
,5f2af6dc1a903c46dd0e53bd,001,2022-04-29_02h12.14.232,classification_task,2021.2.3,Win32,59.98080614,5f2af6dc1a903c46dd0e53bd,626b377229c10585ec392f89,626b3a7e1ce2c60a76cb44c0,,,,,,,,,,,,,,,,,,,,,,,a,0,2.0836,"[""0.147"",""0.382"",""0.452"",""0.107""]","[1,1,1,0]",0,29,29,29,1,1,0,,,0,FALSE,,,,,,,,,,,,,,,,,,,,,,,,,,,,,,
,5f2af6dc1a903c46dd0e53bd,001,2022-04-29_02h12.14.232,classification_task,2021.2.3,Win32,59.98080614,5f2af6dc1a903c46dd0e53bd,626b377229c10585ec392f89,626b3a7e1ce2c60a76cb44c0,,,,,,,,,,,,,,,,,,,,,,,a,0,1.6004,"[""0.147"",""0.382"",""0.106"",""0.832""]","[1,1,0,1]",0,30,30,30,1,1,0,,,0,FALSE,,,,,,,,,,,,,,,,,,,,,,,,,,,,,,
,5f2af6dc1a903c46dd0e53bd,001,2022-04-29_02h12.14.232,classification_task,2021.2.3,Win32,59.98080614,5f2af6dc1a903c46dd0e53bd,626b377229c10585ec392f89,626b3a7e1ce2c60a76cb44c0,,,,,,,,,,,,,,,,,,,,,,,l,0,2.0668,"[""0.647"",""0.519"",""0.794"",""0.885""]","[0,1,1,1]",0,31,31,31,1,0,0,,,0,FALSE,,,,,,,,,,,,,,,,,,,,,,,,,,,,,,
,5f2af6dc1a903c46dd0e53bd,001,2022-04-29_02h12.14.232,classification_task,2021.2.3,Win32,59.98080614,5f2af6dc1a903c46dd0e53bd,626b377229c10585ec392f89,626b3a7e1ce2c60a76cb44c0,,,,,,,,,,,,,,,,,,,,,,,l,1,2.3333,"[""0.690"",""0.382"",""0.452"",""0.832""]","[0,1,1,1]",0,32,32,32,1,1,0,,,0,FALSE,,,,,,,,,,,,,,,,,,,,,,,,,,,,,,
,5f2af6dc1a903c46dd0e53bd,001,2022-04-29_02h12.14.232,classification_task,2021.2.3,Win32,59.98080614,5f2af6dc1a903c46dd0e53bd,626b377229c10585ec392f89,626b3a7e1ce2c60a76cb44c0,,,,,,,,,,,,,,,,,,,,,,,l,1,4.0502,"[""0.053"",""0.307"",""0.588"",""0.671""]","[1,1,1,0]",0,33,33,33,1,1,1,,,0,FALSE,,,,,,,,,,,,,,,,,,,,,,,,,,,,,,
,5f2af6dc1a903c46dd0e53bd,001,2022-04-29_02h12.14.232,classification_task,2021.2.3,Win32,59.98080614,5f2af6dc1a903c46dd0e53bd,626b377229c10585ec392f89,626b3a7e1ce2c60a76cb44c0,,,,,,,,,,,,,,,,,,,,,,,a,1,0.8836,"[""0.347"",""0.417"",""0.933"",""0.968""]","[0,1,1,1]",0,34,34,34,1,0,1,,,0,FALSE,,,,,,,,,,,,,,,,,,,,,,,,,,,,,,
,5f2af6dc1a903c46dd0e53bd,001,2022-04-29_02h12.14.232,classification_task,2021.2.3,Win32,59.98080614,5f2af6dc1a903c46dd0e53bd,626b377229c10585ec392f89,626b3a7e1ce2c60a76cb44c0,,,,,,,,,,,,,,,,,,,,,,,a,0,3.6167,"[""0.147"",""0.382"",""0.452"",""0.106""]","[1,1,1,0]",0,35,35,35,1,1,0,,,0,FALSE,,,,,,,,,,,,,,,,,,,,,,,,,,,,,,
,5f2af6dc1a903c46dd0e53bd,001,2022-04-29_02h12.14.232,classification_task,2021.2.3,Win32,59.98080614,5f2af6dc1a903c46dd0e53bd,626b377229c10585ec392f89,626b3a7e1ce2c60a76cb44c0,,,,,,,,,,,,,,,,,,,,,,,l,1,2.6002,"[""0.147"",""0.684"",""0.452"",""0.832""]","[1,0,1,1]",0,36,36,36,1,1,0,,,0,FALSE,,,,,,,,,,,,,,,,,,,,,,,,,,,,,,
,5f2af6dc1a903c46dd0e53bd,001,2022-04-29_02h12.14.232,classification_task,2021.2.3,Win32,59.98080614,5f2af6dc1a903c46dd0e53bd,626b377229c10585ec392f89,626b3a7e1ce2c60a76cb44c0,,,,,,,,,,,,,,,,,,,,,,,l,0,2.4835,"[""0.107"",""0.519"",""0.794"",""0.885""]","[0,1,1,1]",0,37,37,37,1,0,0,,,0,FALSE,,,,,,,,,,,,,,,,,,,,,,,,,,,,,,
,5f2af6dc1a903c46dd0e53bd,001,2022-04-29_02h12.14.232,classification_task,2021.2.3,Win32,59.98080614,5f2af6dc1a903c46dd0e53bd,626b377229c10585ec392f89,626b3a7e1ce2c60a76cb44c0,,,,,,,,,,,,,,,,,,,,,,,a,1,1.4334,"[""0.272"",""0.417"",""0.347"",""0.968""]","[1,1,0,1]",0,38,38,38,1,0,1,,,0,FALSE,,,,,,,,,,,,,,,,,,,,,,,,,,,,,,
,5f2af6dc1a903c46dd0e53bd,001,2022-04-29_02h12.14.232,classification_task,2021.2.3,Win32,59.98080614,5f2af6dc1a903c46dd0e53bd,626b377229c10585ec392f89,626b3a7e1ce2c60a76cb44c0,,,,,,,,,,,,,,,,,,,,,,,a,0,2.7669,"[""0.053"",""0.307"",""0.682"",""0.730""]","[1,1,0,1]",0,39,39,39,1,1,1,,,0,FALSE,,,,,,,,,,,,,,,,,,,,,,,,,,,,,,
,5f2af6dc1a903c46dd0e53bd,001,2022-04-29_02h12.14.232,classification_task,2021.2.3,Win32,59.98080614,5f2af6dc1a903c46dd0e53bd,626b377229c10585ec392f89,626b3a7e1ce2c60a76cb44c0,,,,,,,,,,,,,,,,,,,,,,,l,0,4.3,"[""0.272"",""0.417"",""0.933"",""0.347""]","[1,1,1,0]",0,40,40,40,1,0,1,,,0,FALSE,,,,,,,,,,,,,,,,,,,,,,,,,,,,,,
,5f2af6dc1a903c46dd0e53bd,001,2022-04-29_02h12.14.232,classification_task,2021.2.3,Win32,59.98080614,5f2af6dc1a903c46dd0e53bd,626b377229c10585ec392f89,626b3a7e1ce2c60a76cb44c0,,,,,,,,,,,,,,,,,,,,,,,a,0,2.3667,"[""0.112"",""0.307"",""0.588"",""0.730""]","[0,1,1,1]",0,41,41,41,1,1,1,,,0,FALSE,,,,,,,,,,,,,,,,,,,,,,,,,,,,,,
,5f2af6dc1a903c46dd0e53bd,001,2022-04-29_02h12.14.232,classification_task,2021.2.3,Win32,59.98080614,5f2af6dc1a903c46dd0e53bd,626b377229c10585ec392f89,626b3a7e1ce2c60a76cb44c0,,,,,,,,,,,,,,,,,,,,,,,l,0,3.0834,"[""0.222"",""0.519"",""0.794"",""0.112""]","[1,1,1,0]",0,42,42,42,1,0,0,,,0,FALSE,,,,,,,,,,,,,,,,,,,,,,,,,,,,,,
,5f2af6dc1a903c46dd0e53bd,001,2022-04-29_02h12.14.232,classification_task,2021.2.3,Win32,59.98080614,5f2af6dc1a903c46dd0e53bd,626b377229c10585ec392f89,626b3a7e1ce2c60a76cb44c0,,,,,,,,,,,,,,,,,,,,,,,a,1,1.0005,"[""0.272"",""0.625"",""0.933"",""0.968""]","[1,0,1,1]",0,43,43,43,1,0,1,,,0,FALSE,,,,,,,,,,,,,,,,,,,,,,,,,,,,,,
,5f2af6dc1a903c46dd0e53bd,001,2022-04-29_02h12.14.232,classification_task,2021.2.3,Win32,59.98080614,5f2af6dc1a903c46dd0e53bd,626b377229c10585ec392f89,626b3a7e1ce2c60a76cb44c0,,,,,,,,,,,,,,,,,,,,,,,a,0,3.9668,"[""0.147"",""0.382"",""0.106"",""0.832""]","[1,1,0,1]",0,44,44,44,1,1,0,,,0,FALSE,,,,,,,,,,,,,,,,,,,,,,,,,,,,,,
,5f2af6dc1a903c46dd0e53bd,001,2022-04-29_02h12.14.232,classification_task,2021.2.3,Win32,59.98080614,5f2af6dc1a903c46dd0e53bd,626b377229c10585ec392f89,626b3a7e1ce2c60a76cb44c0,,,,,,,,,,,,,,,,,,,,,,,l,0,3.2834,"[""0.222"",""0.519"",""0.690"",""0.885""]","[1,1,0,1]",0,45,45,45,1,0,0,,,0,FALSE,,,,,,,,,,,,,,,,,,,,,,,,,,,,,,
,5f2af6dc1a903c46dd0e53bd,001,2022-04-29_02h12.14.232,classification_task,2021.2.3,Win32,59.98080614,5f2af6dc1a903c46dd0e53bd,626b377229c10585ec392f89,626b3a7e1ce2c60a76cb44c0,,,,,,,,,,,,,,,,,,,,,,,a,0,1.8003,"[""0.053"",""0.684"",""0.588"",""0.730""]","[1,0,1,1]",0,46,46,46,1,1,1,,,0,FALSE,,,,,,,,,,,,,,,,,,,,,,,,,,,,,,
,5f2af6dc1a903c46dd0e53bd,001,2022-04-29_02h12.14.232,classification_task,2021.2.3,Win32,59.98080614,5f2af6dc1a903c46dd0e53bd,626b377229c10585ec392f89,626b3a7e1ce2c60a76cb44c0,,,,,,,,,,,,,,,,,,,,,,,l,0,6.9833,"[""0.222"",""0.347"",""0.794"",""0.885""]","[1,0,1,1]",0,47,47,47,1,0,0,,,0,FALSE,,,,,,,,,,,,,,,,,,,,,,,,,,,,,,
,5f2af6dc1a903c46dd0e53bd,001,2022-04-29_02h12.14.232,classification_task,2021.2.3,Win32,59.98080614,5f2af6dc1a903c46dd0e53bd,626b377229c10585ec392f89,626b3a7e1ce2c60a76cb44c0,,,,,,,,,,,,,,,,,,,,,,,a,0,3.0668,"[""0.147"",""0.382"",""0.112"",""0.832""]","[1,1,0,1]",0,48,48,48,1,1,0,,,0,FALSE,,,,,,,,,,,,,,,,,,,,,,,,,,,,,,
,5f2af6dc1a903c46dd0e53bd,001,2022-04-29_02h12.14.232,classification_task,2021.2.3,Win32,59.98080614,5f2af6dc1a903c46dd0e53bd,626b377229c10585ec392f89,626b3a7e1ce2c60a76cb44c0,,,,,,,,,,,,,,,,,,,,,,,a,0,3.0836,"[""0.625"",""0.307"",""0.588"",""0.730""]","[0,1,1,1]",0,49,49,49,1,1,1,,,0,FALSE,,,,,,,,,,,,,,,,,,,,,,,,,,,,,,
,5f2af6dc1a903c46dd0e53bd,001,2022-04-29_02h12.14.232,classification_task,2021.2.3,Win32,59.98080614,5f2af6dc1a903c46dd0e53bd,626b377229c10585ec392f89,626b3a7e1ce2c60a76cb44c0,,,,,,,,,,,,,,,,,,,,,,,a,0,1.6971,"[""0.053"",""0.684"",""0.588"",""0.730""]","[1,0,1,1]",0,50,50,50,1,1,1,,,0,FALSE,,,,,,,,,,,,,,,,,,,,,,,,,,,,,,
,5f2af6dc1a903c46dd0e53bd,001,2022-04-29_02h12.14.232,classification_task,2021.2.3,Win32,59.98080614,5f2af6dc1a903c46dd0e53bd,626b377229c10585ec392f89,626b3a7e1ce2c60a76cb44c0,,,,,,,,,,,,,,,,,,,,,,,a,1,3.3501,"[""0.222"",""0.519"",""0.794"",""0.106""]","[1,1,1,0]",0,51,51,51,1,0,0,,,0,FALSE,,,,,,,,,,,,,,,,,,,,,,,,,,,,,,
,5f2af6dc1a903c46dd0e53bd,001,2022-04-29_02h12.14.232,classification_task,2021.2.3,Win32,59.98080614,5f2af6dc1a903c46dd0e53bd,626b377229c10585ec392f89,626b3a7e1ce2c60a76cb44c0,,,,,,,,,,,,,,,,,,,,,,,a,1,3.4169,"[""0.272"",""0.417"",""0.933"",""0.684""]","[1,1,1,0]",0,52,52,52,1,0,1,,,0,FALSE,,,,,,,,,,,,,,,,,,,,,,,,,,,,,,
,5f2af6dc1a903c46dd0e53bd,001,2022-04-29_02h12.14.232,classification_task,2021.2.3,Win32,59.98080614,5f2af6dc1a903c46dd0e53bd,626b377229c10585ec392f89,626b3a7e1ce2c60a76cb44c0,,,,,,,,,,,,,,,,,,,,,,,a,1,0.867,"[""0.272"",""0.112"",""0.933"",""0.968""]","[1,0,1,1]",0,53,53,53,1,0,1,,,0,FALSE,,,,,,,,,,,,,,,,,,,,,,,,,,,,,,
,5f2af6dc1a903c46dd0e53bd,001,2022-04-29_02h12.14.232,classification_task,2021.2.3,Win32,59.98080614,5f2af6dc1a903c46dd0e53bd,626b377229c10585ec392f89,626b3a7e1ce2c60a76cb44c0,,,,,,,,,,,,,,,,,,,,,,,a,1,4.35,"[""0.222"",""0.112"",""0.794"",""0.885""]","[1,0,1,1]",0,54,54,54,1,0,0,,,0,FALSE,,,,,,,,,,,,,,,,,,,,,,,,,,,,,,
,5f2af6dc1a903c46dd0e53bd,001,2022-04-29_02h12.14.232,classification_task,2021.2.3,Win32,59.98080614,5f2af6dc1a903c46dd0e53bd,626b377229c10585ec392f89,626b3a7e1ce2c60a76cb44c0,,,,,,,,,,,,,,,,,,,,,,,a,1,1.1171,"[""0.625"",""0.417"",""0.933"",""0.968""]","[0,1,1,1]",0,55,55,55,1,0,1,,,0,FALSE,,,,,,,,,,,,,,,,,,,,,,,,,,,,,,
,5f2af6dc1a903c46dd0e53bd,001,2022-04-29_02h12.14.232,classification_task,2021.2.3,Win32,59.98080614,5f2af6dc1a903c46dd0e53bd,626b377229c10585ec392f89,626b3a7e1ce2c60a76cb44c0,,,,,,,,,,,,,,,,,,,,,,,a,1,2.7164,"[""0.272"",""0.417"",""0.683"",""0.968""]","[1,1,0,1]",0,56,56,56,1,0,1,,,0,FALSE,,,,,,,,,,,,,,,,,,,,,,,,,,,,,,
,5f2af6dc1a903c46dd0e53bd,001,2022-04-29_02h12.14.232,classification_task,2021.2.3,Win32,59.98080614,5f2af6dc1a903c46dd0e53bd,626b377229c10585ec392f89,626b3a7e1ce2c60a76cb44c0,,,,,,,,,,,,,,,,,,,,,,,l,1,1.3336,"[""0.053"",""0.307"",""0.588"",""0.112""]","[1,1,1,0]",0,57,57,57,1,1,1,,,0,FALSE,,,,,,,,,,,,,,,,,,,,,,,,,,,,,,
,5f2af6dc1a903c46dd0e53bd,001,2022-04-29_02h12.14.232,classification_task,2021.2.3,Win32,59.98080614,5f2af6dc1a903c46dd0e53bd,626b377229c10585ec392f89,626b3a7e1ce2c60a76cb44c0,,,,,,,,,,,,,,,,,,,,,,,l,1,4.1171,"[""0.107"",""0.382"",""0.452"",""0.832""]","[0,1,1,1]",0,58,58,58,1,1,0,,,0,FALSE,,,,,,,,,,,,,,,,,,,,,,,,,,,,,,
,5f2af6dc1a903c46dd0e53bd,001,2022-04-29_02h12.14.232,classification_task,2021.2.3,Win32,59.98080614,5f2af6dc1a903c46dd0e53bd,626b377229c10585ec392f89,626b3a7e1ce2c60a76cb44c0,,,,,,,,,,,,,,,,,,,,,,,a,0,5.817,"[""0.053"",""0.307"",""0.682"",""0.730""]","[1,1,0,1]",0,59,59,59,1,1,1,,,0,FALSE,,,,,,,,,,,,,,,,,,,,,,,,,,,,,,
,5f2af6dc1a903c46dd0e53bd,001,2022-04-29_02h12.14.232,classification_task,2021.2.3,Win32,59.98080614,5f2af6dc1a903c46dd0e53bd,626b377229c10585ec392f89,626b3a7e1ce2c60a76cb44c0,,,,,,,,,,,,,,,,,,,,,,,l,1,3.4171,"[""0.147"",""0.107"",""0.452"",""0.832""]","[1,0,1,1]",0,60,60,60,1,1,0,,,0,FALSE,,,,,,,,,,,,,,,,,,,,,,,,,,,,,,
,5f2af6dc1a903c46dd0e53bd,001,2022-04-29_02h12.14.232,classification_task,2021.2.3,Win32,59.98080614,5f2af6dc1a903c46dd0e53bd,626b377229c10585ec392f89,626b3a7e1ce2c60a76cb44c0,,,,,,,,,,,,,,,,,,,,,,,a,0,1.2836,"[""0.147"",""0.382"",""0.452"",""0.112""]","[1,1,1,0]",0,61,61,61,1,1,0,,,0,FALSE,,,,,,,,,,,,,,,,,,,,,,,,,,,,,,
,5f2af6dc1a903c46dd0e53bd,001,2022-04-29_02h12.14.232,classification_task,2021.2.3,Win32,59.98080614,5f2af6dc1a903c46dd0e53bd,626b377229c10585ec392f89,626b3a7e1ce2c60a76cb44c0,,,,,,,,,,,,,,,,,,,,,,,l,0,1.4665,"[""0.647"",""0.519"",""0.794"",""0.885""]","[0,1,1,1]",0,62,62,62,1,0,0,,,0,FALSE,,,,,,,,,,,,,,,,,,,,,,,,,,,,,,
,5f2af6dc1a903c46dd0e53bd,001,2022-04-29_02h12.14.232,classification_task,2021.2.3,Win32,59.98080614,5f2af6dc1a903c46dd0e53bd,626b377229c10585ec392f89,626b3a7e1ce2c60a76cb44c0,,,,,,,,,,,,,,,,,,,,,,,a,1,2.4167,"[""0.222"",""0.519"",""0.106"",""0.885""]","[1,1,0,1]",0,63,63,63,1,0,0,,,0,FALSE,,,,,,,,,,,,,,,,,,,,,,,,,,,,,,
,5f2af6dc1a903c46dd0e53bd,001,2022-04-29_02h12.14.232,classification_task,2021.2.3,Win32,59.98080614,5f2af6dc1a903c46dd0e53bd,626b377229c10585ec392f89,626b3a7e1ce2c60a76cb44c0,,,,,,,,,,,,,,,,,,,,,,,,,,,,,,,,,,,,,,,0, ,,0,0,265.0035,0,2,2,2,1,2,3,,,,,,,,,,,,,,,,,
,5f2af6dc1a903c46dd0e53bd,001,2022-04-29_02h12.14.232,classification_task,2021.2.3,Win32,59.98080614,5f2af6dc1a903c46dd0e53bd,626b377229c10585ec392f89,626b3a7e1ce2c60a76cb44c0,,,,,,,,,,,,,,,,,,,,,,,,,,,,,,,,,,,,,,,1,  ,,0,9.972565158,268.2534,0,2,2,2,1,2,3,,,,,,,,,,,,,,,,,
,5f2af6dc1a903c46dd0e53bd,001,2022-04-29_02h12.14.232,classification_task,2021.2.3,Win32,59.98080614,5f2af6dc1a903c46dd0e53bd,626b377229c10585ec392f89,626b3a7e1ce2c60a76cb44c0,,,,,,,,,,,,,,,,,,,,,,,,,,,,,,,,,,,,,,,2,  ,,0,4.902018421,277.8297,0,2,2,2,1,2,3,,,,,,,,,,,,,,,,,
,5f2af6dc1a903c46dd0e53bd,001,2022-04-29_02h12.14.232,classification_task,2021.2.3,Win32,59.98080614,5f2af6dc1a903c46dd0e53bd,626b377229c10585ec392f89,626b3a7e1ce2c60a76cb44c0,,,,,,,,,,,,,,,,,,,,,,,,,,,,,,,,,,,,,,,,,,,,,0,2,2,2,1,,3,,,,,,,,,,,,,,,,,
,5f2af6dc1a903c46dd0e53bd,001,2022-04-29_02h12.14.232,classification_task,2021.2.3,Win32,59.98080614,5f2af6dc1a903c46dd0e53bd,626b377229c10585ec392f89,626b3a7e1ce2c60a76cb44c0,,,,,,,,,,,,,,,,,,,,,,,,,,,,,,,,,,,,,,,,,,,,,,,,,,,,,I believe the aid is a competent performer,,0.7,0,5,1177.6953,0,0,0,0,1,0,,,,
,5f2af6dc1a903c46dd0e53bd,001,2022-04-29_02h12.14.232,classification_task,2021.2.3,Win32,59.98080614,5f2af6dc1a903c46dd0e53bd,626b377229c10585ec392f89,626b3a7e1ce2c60a76cb44c0,,,,,,,,,,,,,,,,,,,,,,,,,,,,,,,,,,,,,,,,,,,,,,,,,,,,,I trust the aid,,0.7,0,5,1192.6647,0,0,0,0,1,0,,,,
,5f2af6dc1a903c46dd0e53bd,001,2022-04-29_02h12.14.232,classification_task,2021.2.3,Win32,59.98080614,5f2af6dc1a903c46dd0e53bd,626b377229c10585ec392f89,626b3a7e1ce2c60a76cb44c0,,,,,,,,,,,,,,,,,,,,,,,,,,,,,,,,,,,,,,,,,,,,,,,,,,,,,I have confidence in the advice given by the aid,,0.7,0,5,1197.1946,0,0,0,0,1,0,,,,
,5f2af6dc1a903c46dd0e53bd,001,2022-04-29_02h12.14.232,classification_task,2021.2.3,Win32,59.98080614,5f2af6dc1a903c46dd0e53bd,626b377229c10585ec392f89,626b3a7e1ce2c60a76cb44c0,,,,,,,,,,,,,,,,,,,,,,,,,,,,,,,,,,,,,,,,,,,,,,,,,,,,,I can depend on the aid,,0.7,0,3,1200.2699,0,0,0,0,1,0,,,,
,5f2af6dc1a903c46dd0e53bd,001,2022-04-29_02h12.14.232,classification_task,2021.2.3,Win32,59.98080614,5f2af6dc1a903c46dd0e53bd,626b377229c10585ec392f89,626b3a7e1ce2c60a76cb44c0,,,,,,,,,,,,,,,,,,,,,,,,,,,,,,,,,,,,,,,,,,,,,,,,,,,,,I can rely on the aid to behave in consistent ways,,0.7,0,3,1205.9296,0,0,0,0,1,0,,,,
,5f2af6dc1a903c46dd0e53bd,001,2022-04-29_02h12.14.232,classification_task,2021.2.3,Win32,59.98080614,5f2af6dc1a903c46dd0e53bd,626b377229c10585ec392f89,626b3a7e1ce2c60a76cb44c0,,,,,,,,,,,,,,,,,,,,,,,,,,,,,,,,,,,,,,,,,,,,,,,,,,,,,I can rely on the aid to do its best every time I take its advice,,0.7,0,5,1209.8512,0,0,0,0,1,0,,,,
,5f2af6dc1a903c46dd0e53bd,001,2022-04-29_02h12.14.232,classification_task,2021.2.3,Win32,59.98080614,5f2af6dc1a903c46dd0e53bd,626b377229c10585ec392f89,626b3a7e1ce2c60a76cb44c0,,,,,,,,,,,,,,,,,,,,,,,,,,,,,,,,,,,,,,,,,,,,,,,,,,,,,"On trials you completed with assistance from the aid, how frequently did you think the aid was correct?",,0.7,0,100%,,0,0,0,0,1,0,,,,
,5f2af6dc1a903c46dd0e53bd,001,2022-04-29_02h12.14.232,classification_task,2021.2.3,Win32,59.98080614,5f2af6dc1a903c46dd0e53bd,626b377229c10585ec392f89,626b3a7e1ce2c60a76cb44c0,,,,,,,,,,,,,,,,,,,,,,,,,,,,,,,,,,,,,,,,,,,,,,,,,,,,,"On trials you completed without the aid, how frequently did you think you were correct?",,0.7,0,20%,,0,0,0,0,1,0,,,,
,5f2af6dc1a903c46dd0e53bd,001,2022-04-29_02h12.14.232,classification_task,2021.2.3,Win32,59.98080614,5f2af6dc1a903c46dd0e53bd,626b377229c10585ec392f89,626b3a7e1ce2c60a76cb44c0,,,,,,,,,,,,,,,,,,,,,,,,,,,,,,,,,,,,,,,,,,,,,,,,,,,,,,,,,,,0,0,0,0,1,,,,,
,5f2af6dc1a903c46dd0e53bd,001,2022-04-29_02h12.14.232,classification_task,2021.2.3,Win32,59.98080614,5f2af6dc1a903c46dd0e53bd,626b377229c10585ec392f89,626b3a7e1ce2c60a76cb44c0,,,,,,,,,,,,,,,,,,,,,,,,,,,,,,,,,,,,,,,,,,,,,,,,,,,,,,,,,,,,,,,,,f,26.3989,1298.6678,
,5f2af6dc1a903c46dd0e53bd,001,2022-04-29_02h12.14.232,classification_task,2021.2.3,Win32,59.98080614,5f2af6dc1a903c46dd0e53bd,626b377229c10585ec392f89,626b3a7e1ce2c60a76cb44c0,,,,,,,,,,,,,,,,,,,,,,,,,,,,,,,,,,,,,,,,,,,,,,,,,,,,,,,,,,,,,,,,,,,,"Mozilla/5.0 (Windows NT 10.0; Win64; x64) AppleWebKit/537.36 (KHTML, like Gecko) Chrome/100.0.4896.127 Safari/537.36"
