usingWebGL,participant,session,date,expName,psychopyVersion,OS,frameRate,study_id,signatures_friend,signatures_foe,band_ranges_top,band_ranges_bottom,formitemText,formtype,formundefined,formitemWidth,formindex,formresponse,formrt,key_resp_2.keys,key_resp_2.rt,tute_resp.keys,tute_resp.rt,tutorial.thisRepN,tutorial.thisTrialN,tutorial.thisN,tutorial.thisIndex,tutorial.ran,key_resp_4.keys,key_resp_4.rt,key_resp.keys,key_resp.corr,key_resp.rt,lines_presented,is_signal_presented,trials.thisRepN,trials.thisTrialN,trials.thisN,trials.thisIndex,trials.ran,vessel,active_band,lines,is_signal,supported_pos,catch_trial,debrief_formindex,debrief_formitemText,debrief_formtype,debrief_formitemWidth,debrief_formresponse,debrief_formrt,phases.thisRepN,phases.thisTrialN,phases.thisN,phases.thisIndex,phases.ran,phases.order,phase,key_resp_3.keys,trustitemText,trusttype,trustitemWidth,trustindex,trustresponse,trustrt,support_status.thisRepN,support_status.thisTrialN,support_status.thisN,support_status.thisIndex,support_status.ran,support_status.order,key_resp_5.keys,key_resp_5.rt,globalClockTime,userAgent,manualCondition
TRUE,5f2c79e260e2f703a2196380,627c68f0ef443bb428a08beb,2022-05-11_22h00.09.095,classification_task,2021.2.3,Win32,59.86948452,627c6715c52fd12f31907bcf,,,,,,,,,,,,,,,,,,,,,,,,,,,,,,,,,,,,,,,,,,,,,,,,,,,,,,,,,,,,,,,,,,,,,
,5f2c79e260e2f703a2196380,627c68f0ef443bb428a08beb,2022-05-11_22h00.09.095,classification_task,2021.2.3,Win32,59.86948452,627c6715c52fd12f31907bcf,"[[""0.251"",""0.412"",""0.849"",""0.906""],[""0.311"",""0.554"",""0.764"",""0.959""]]","[[""0.095"",""0.359"",""0.519"",""0.804""],[""0.040"",""0.211"",""0.471"",""0.724""]]","[1,10]","[100,1000]",Video game experience,,,0.7,0,,,,,,,,,,,,,,,,,,,,,,,,,,,,,,,,,,,,,,,,,,,,,,,,,,,,,,,,,,,,
,5f2c79e260e2f703a2196380,627c68f0ef443bb428a08beb,2022-05-11_22h00.09.095,classification_task,2021.2.3,Win32,59.86948452,627c6715c52fd12f31907bcf,,,,,Approximately how many hours did you spend playing video games in the last week?,,,0.7,0,15,,,,,,,,,,,,,,,,,,,,,,,,,,,,,,,,,,,,,,,,,,,,,,,,,,,,,,,,,,,
,5f2c79e260e2f703a2196380,627c68f0ef443bb428a08beb,2022-05-11_22h00.09.095,classification_task,2021.2.3,Win32,59.86948452,627c6715c52fd12f31907bcf,,,,,"Which game did you play the most this year? (Enter ""None"" if you didn't play any)",,,0.7,0,Elden Ring,,,,,,,,,,,,,,,,,,,,,,,,,,,,,,,,,,,,,,,,,,,,,,,,,,,,,,,,,,,
,5f2c79e260e2f703a2196380,627c68f0ef443bb428a08beb,2022-05-11_22h00.09.095,classification_task,2021.2.3,Win32,59.86948452,627c6715c52fd12f31907bcf,,,,,Visual perception,,,0.7,0,,,,,,,,,,,,,,,,,,,,,,,,,,,,,,,,,,,,,,,,,,,,,,,,,,,,,,,,,,,,
,5f2c79e260e2f703a2196380,627c68f0ef443bb428a08beb,2022-05-11_22h00.09.095,classification_task,2021.2.3,Win32,59.86948452,627c6715c52fd12f31907bcf,,,,,Do you have any form of color blindness?,,,0.7,0,No,12.8683,,,,,,,,,,,,,,,,,,,,,,,,,,,,,,,,,,,,,,,,,,,,,,,,,,,,,,,,,,
,5f2c79e260e2f703a2196380,627c68f0ef443bb428a08beb,2022-05-11_22h00.09.095,classification_task,2021.2.3,Win32,59.86948452,627c6715c52fd12f31907bcf,,,,,Do you use software to change the colour temperature of your screen (e.g. f.lux)?,,,0.7,0,No,16.9815,,,,,,,,,,,,,,,,,,,,,,,,,,,,,,,,,,,,,,,,,,,,,,,,,,,,,,,,,,
,5f2c79e260e2f703a2196380,627c68f0ef443bb428a08beb,2022-05-11_22h00.09.095,classification_task,2021.2.3,Win32,59.86948452,627c6715c52fd12f31907bcf,,,,,,,,,,,,space,25.7631,space,8.2997,0,0,0,0,1,,,,,,,,,,,,,,,,,,,,,,,,,,,,,,,,,,,,,,,,,,,,,,,,,
,5f2c79e260e2f703a2196380,627c68f0ef443bb428a08beb,2022-05-11_22h00.09.095,classification_task,2021.2.3,Win32,59.86948452,627c6715c52fd12f31907bcf,,,,,,,,,,,,,,space,8.6476,1,0,1,0,1,,,,,,,,,,,,,,,,,,,,,,,,,,,,,,,,,,,,,,,,,,,,,,,,,
,5f2c79e260e2f703a2196380,627c68f0ef443bb428a08beb,2022-05-11_22h00.09.095,classification_task,2021.2.3,Win32,59.86948452,627c6715c52fd12f31907bcf,,,,,,,,,,,,,,space,34.8656,2,0,2,0,1,,,,,,,,,,,,,,,,,,,,,,,,,,,,,,,,,,,,,,,,,,,,,,,,,
,5f2c79e260e2f703a2196380,627c68f0ef443bb428a08beb,2022-05-11_22h00.09.095,classification_task,2021.2.3,Win32,59.86948452,627c6715c52fd12f31907bcf,,,,,,,,,,,,,,space,19.3534,3,0,3,0,1,,,,,,,,,,,,,,,,,,,,,,,,,,,,,,,,,,,,,,,,,,,,,,,,,
,5f2c79e260e2f703a2196380,627c68f0ef443bb428a08beb,2022-05-11_22h00.09.095,classification_task,2021.2.3,Win32,59.86948452,627c6715c52fd12f31907bcf,,,,,,,,,,,,,,space,9.9819,4,0,4,0,1,,,,,,,,,,,,,,,,,,,,,,,,,,,,,,,,,,,,,,,,,,,,,,,,,
,5f2c79e260e2f703a2196380,627c68f0ef443bb428a08beb,2022-05-11_22h00.09.095,classification_task,2021.2.3,Win32,59.86948452,627c6715c52fd12f31907bcf,,,,,,,,,,,,,,,,,,,,,space,16.3381,l,1,3.5794,"[""0.040"",""0.663"",""0.471"",""0.724""]","[1,0,1,1]",0,0,0,0,1,1,1,,,1,FALSE,,,,,,,,,,,,,,,,,,,,,,,,,,,,,,,
,5f2c79e260e2f703a2196380,627c68f0ef443bb428a08beb,2022-05-11_22h00.09.095,classification_task,2021.2.3,Win32,59.86948452,627c6715c52fd12f31907bcf,,,,,,,,,,,,,,,,,,,,,,,l,1,2.5491,"[""0.040"",""0.211"",""0.593"",""0.724""]","[1,1,0,1]",0,1,1,1,1,1,1,,,1,FALSE,,,,,,,,,,,,,,,,,,,,,,,,,,,,,,,
,5f2c79e260e2f703a2196380,627c68f0ef443bb428a08beb,2022-05-11_22h00.09.095,classification_task,2021.2.3,Win32,59.86948452,627c6715c52fd12f31907bcf,,,,,,,,,,,,,,,,,,,,,,,l,1,3.0841,"[""0.040"",""0.211"",""0.471"",""0.593""]","[1,1,1,0]",0,2,2,2,1,1,1,,,1,FALSE,,,,,,,,,,,,,,,,,,,,,,,,,,,,,,,
,5f2c79e260e2f703a2196380,627c68f0ef443bb428a08beb,2022-05-11_22h00.09.095,classification_task,2021.2.3,Win32,59.86948452,627c6715c52fd12f31907bcf,,,,,,,,,,,,,,,,,,,,,,,a,1,3.8347,"[""0.311"",""0.554"",""0.598"",""0.959""]","[1,1,0,1]",0,3,3,3,1,0,1,,,1,FALSE,,,,,,,,,,,,,,,,,,,,,,,,,,,,,,,
,5f2c79e260e2f703a2196380,627c68f0ef443bb428a08beb,2022-05-11_22h00.09.095,classification_task,2021.2.3,Win32,59.86948452,627c6715c52fd12f31907bcf,,,,,,,,,,,,,,,,,,,,,,,a,1,6.8841,"[""0.141"",""0.554"",""0.764"",""0.959""]","[0,1,1,1]",0,4,4,4,1,0,1,,,1,FALSE,,,,,,,,,,,,,,,,,,,,,,,,,,,,,,,
,5f2c79e260e2f703a2196380,627c68f0ef443bb428a08beb,2022-05-11_22h00.09.095,classification_task,2021.2.3,Win32,59.86948452,627c6715c52fd12f31907bcf,,,,,,,,,,,,,,,,,,,,,,,a,1,9.716,"[""0.251"",""0.159"",""0.849"",""0.906""]","[1,0,1,1]",0,5,5,5,1,0,0,,,1,FALSE,,,,,,,,,,,,,,,,,,,,,,,,,,,,,,,
,5f2c79e260e2f703a2196380,627c68f0ef443bb428a08beb,2022-05-11_22h00.09.095,classification_task,2021.2.3,Win32,59.86948452,627c6715c52fd12f31907bcf,,,,,,,,,,,,,,,,,,,,,,,l,1,7.4989,"[""0.671"",""0.359"",""0.519"",""0.804""]","[0,1,1,1]",0,6,6,6,1,1,0,,,1,FALSE,,,,,,,,,,,,,,,,,,,,,,,,,,,,,,,
,5f2c79e260e2f703a2196380,627c68f0ef443bb428a08beb,2022-05-11_22h00.09.095,classification_task,2021.2.3,Win32,59.86948452,627c6715c52fd12f31907bcf,,,,,,,,,,,,,,,,,,,,,,,l,1,5.017,"[""0.095"",""0.673"",""0.519"",""0.804""]","[1,0,1,1]",0,7,7,7,1,1,0,,,1,FALSE,,,,,,,,,,,,,,,,,,,,,,,,,,,,,,,
,5f2c79e260e2f703a2196380,627c68f0ef443bb428a08beb,2022-05-11_22h00.09.095,classification_task,2021.2.3,Win32,59.86948452,627c6715c52fd12f31907bcf,,,,,,,,,,,,,,,,,,,,,,,a,1,4.4169,"[""0.687"",""0.412"",""0.849"",""0.906""]","[0,1,1,1]",0,8,8,8,1,0,0,,,1,FALSE,,,,,,,,,,,,,,,,,,,,,,,,,,,,,,,
,5f2c79e260e2f703a2196380,627c68f0ef443bb428a08beb,2022-05-11_22h00.09.095,classification_task,2021.2.3,Win32,59.86948452,627c6715c52fd12f31907bcf,,,,,,,,,,,,,,,,,,,,,,,l,1,3.7506,"[""0.095"",""0.359"",""0.170"",""0.804""]","[1,1,0,1]",0,9,9,9,1,1,0,,,1,FALSE,,,,,,,,,,,,,,,,,,,,,,,,,,,,,,,
,5f2c79e260e2f703a2196380,627c68f0ef443bb428a08beb,2022-05-11_22h00.09.095,classification_task,2021.2.3,Win32,59.86948452,627c6715c52fd12f31907bcf,,,,,,,,,,,,,,,,,,,,,,,a,1,3.982,"[""0.311"",""0.663"",""0.764"",""0.959""]","[1,0,1,1]",0,10,10,10,1,0,1,,,1,FALSE,,,,,,,,,,,,,,,,,,,,,,,,,,,,,,,
,5f2c79e260e2f703a2196380,627c68f0ef443bb428a08beb,2022-05-11_22h00.09.095,classification_task,2021.2.3,Win32,59.86948452,627c6715c52fd12f31907bcf,,,,,,,,,,,,,,,,,,,,,,,l,1,3.6664,"[""0.095"",""0.359"",""0.519"",""0.617""]","[1,1,1,0]",0,11,11,11,1,1,0,,,1,FALSE,,,,,,,,,,,,,,,,,,,,,,,,,,,,,,,
,5f2c79e260e2f703a2196380,627c68f0ef443bb428a08beb,2022-05-11_22h00.09.095,classification_task,2021.2.3,Win32,59.86948452,627c6715c52fd12f31907bcf,,,,,,,,,,,,,,,,,,,,,,,a,1,2.6994,"[""0.311"",""0.554"",""0.764"",""0.637""]","[1,1,1,0]",0,12,12,12,1,0,1,,,1,FALSE,,,,,,,,,,,,,,,,,,,,,,,,,,,,,,,
,5f2c79e260e2f703a2196380,627c68f0ef443bb428a08beb,2022-05-11_22h00.09.095,classification_task,2021.2.3,Win32,59.86948452,627c6715c52fd12f31907bcf,,,,,,,,,,,,,,,,,,,,,,,l,0,6.431,"[""0.251"",""0.412"",""0.849"",""0.170""]","[1,1,1,0]",0,13,13,13,1,0,0,,,1,FALSE,,,,,,,,,,,,,,,,,,,,,,,,,,,,,,,
,5f2c79e260e2f703a2196380,627c68f0ef443bb428a08beb,2022-05-11_22h00.09.095,classification_task,2021.2.3,Win32,59.86948452,627c6715c52fd12f31907bcf,,,,,,,,,,,,,,,,,,,,,,,l,1,7.2007,"[""0.671"",""0.211"",""0.471"",""0.724""]","[0,1,1,1]",0,14,14,14,1,1,1,,,1,FALSE,,,,,,,,,,,,,,,,,,,,,,,,,,,,,,,
,5f2c79e260e2f703a2196380,627c68f0ef443bb428a08beb,2022-05-11_22h00.09.095,classification_task,2021.2.3,Win32,59.86948452,627c6715c52fd12f31907bcf,,,,,,,,,,,,,,,,,,,,,,,a,1,5.9168,"[""0.251"",""0.412"",""0.159"",""0.906""]","[1,1,0,1]",0,15,15,15,1,0,0,,,1,FALSE,,,,,,,,,,,,,,,,,,,,,,,,,,,,,,,
,5f2c79e260e2f703a2196380,627c68f0ef443bb428a08beb,2022-05-11_22h00.09.095,classification_task,2021.2.3,Win32,59.86948452,627c6715c52fd12f31907bcf,,,,,,,,,,,,,,,,,,,,,,,a,1,4.0506,"[""0.251"",""0.412"",""0.849"",""0.637""]","[1,1,1,0]",0,16,16,16,1,0,0,,,1,FALSE,,,,,,,,,,,,,,,,,,,,,,,,,,,,,,,
,5f2c79e260e2f703a2196380,627c68f0ef443bb428a08beb,2022-05-11_22h00.09.095,classification_task,2021.2.3,Win32,59.86948452,627c6715c52fd12f31907bcf,,,,,,,,,,,,,,,,,,,,,,,,0,,"[""0.311"",""0.554"",""0.764"",""0.687""]","[1,1,1,0]",0,17,17,17,1,0,1,,,1,FALSE,,,,,,,,,,,,,,,,,,,,,,,,,,,,,,,
,5f2c79e260e2f703a2196380,627c68f0ef443bb428a08beb,2022-05-11_22h00.09.095,classification_task,2021.2.3,Win32,59.86948452,627c6715c52fd12f31907bcf,,,,,,,,,,,,,,,,,,,,,,,a,1,4.2677,"[""0.311"",""0.554"",""0.613"",""0.959""]","[1,1,0,1]",0,18,18,18,1,0,1,,,1,FALSE,,,,,,,,,,,,,,,,,,,,,,,,,,,,,,,
,5f2c79e260e2f703a2196380,627c68f0ef443bb428a08beb,2022-05-11_22h00.09.095,classification_task,2021.2.3,Win32,59.86948452,627c6715c52fd12f31907bcf,,,,,,,,,,,,,,,,,,,,,,,a,1,6.8836,"[""0.159"",""0.412"",""0.849"",""0.906""]","[0,1,1,1]",0,19,19,19,1,0,0,,,1,FALSE,,,,,,,,,,,,,,,,,,,,,,,,,,,,,,,
,5f2c79e260e2f703a2196380,627c68f0ef443bb428a08beb,2022-05-11_22h00.09.095,classification_task,2021.2.3,Win32,59.86948452,627c6715c52fd12f31907bcf,,,,,,,,,,,,,,,,,,,,,,,l,1,5.4185,"[""0.095"",""0.359"",""0.519"",""0.673""]","[1,1,1,0]",0,20,20,20,1,1,0,,,1,FALSE,,,,,,,,,,,,,,,,,,,,,,,,,,,,,,,
,5f2c79e260e2f703a2196380,627c68f0ef443bb428a08beb,2022-05-11_22h00.09.095,classification_task,2021.2.3,Win32,59.86948452,627c6715c52fd12f31907bcf,,,,,,,,,,,,,,,,,,,,,,,l,1,7.3842,"[""0.095"",""0.359"",""0.637"",""0.804""]","[1,1,0,1]",0,21,21,21,1,1,0,,,1,FALSE,,,,,,,,,,,,,,,,,,,,,,,,,,,,,,,
,5f2c79e260e2f703a2196380,627c68f0ef443bb428a08beb,2022-05-11_22h00.09.095,classification_task,2021.2.3,Win32,59.86948452,627c6715c52fd12f31907bcf,,,,,,,,,,,,,,,,,,,,,,,l,1,5.6982,"[""0.095"",""0.598"",""0.519"",""0.804""]","[1,0,1,1]",0,22,22,22,1,1,0,,,1,FALSE,,,,,,,,,,,,,,,,,,,,,,,,,,,,,,,
,5f2c79e260e2f703a2196380,627c68f0ef443bb428a08beb,2022-05-11_22h00.09.095,classification_task,2021.2.3,Win32,59.86948452,627c6715c52fd12f31907bcf,,,,,,,,,,,,,,,,,,,,,,,l,1,7.4173,"[""0.040"",""0.211"",""0.170"",""0.724""]","[1,1,0,1]",0,23,23,23,1,1,1,,,1,FALSE,,,,,,,,,,,,,,,,,,,,,,,,,,,,,,,
,5f2c79e260e2f703a2196380,627c68f0ef443bb428a08beb,2022-05-11_22h00.09.095,classification_task,2021.2.3,Win32,59.86948452,627c6715c52fd12f31907bcf,,,,,,,,,,,,,,,,,,,,,,,a,1,6.0513,"[""0.617"",""0.554"",""0.764"",""0.959""]","[0,1,1,1]",0,24,24,24,1,0,1,,,1,FALSE,,,,,,,,,,,,,,,,,,,,,,,,,,,,,,,
,5f2c79e260e2f703a2196380,627c68f0ef443bb428a08beb,2022-05-11_22h00.09.095,classification_task,2021.2.3,Win32,59.86948452,627c6715c52fd12f31907bcf,,,,,,,,,,,,,,,,,,,,,,,l,1,5.8,"[""0.040"",""0.138"",""0.471"",""0.724""]","[1,0,1,1]",0,25,25,25,1,1,1,,,1,FALSE,,,,,,,,,,,,,,,,,,,,,,,,,,,,,,,
,5f2c79e260e2f703a2196380,627c68f0ef443bb428a08beb,2022-05-11_22h00.09.095,classification_task,2021.2.3,Win32,59.86948452,627c6715c52fd12f31907bcf,,,,,,,,,,,,,,,,,,,,,,,a,1,4.7991,"[""0.251"",""0.412"",""0.639"",""0.906""]","[1,1,0,1]",0,26,26,26,1,0,0,,,1,FALSE,,,,,,,,,,,,,,,,,,,,,,,,,,,,,,,
,5f2c79e260e2f703a2196380,627c68f0ef443bb428a08beb,2022-05-11_22h00.09.095,classification_task,2021.2.3,Win32,59.86948452,627c6715c52fd12f31907bcf,,,,,,,,,,,,,,,,,,,,,,,l,1,3.1,"[""0.673"",""0.359"",""0.519"",""0.804""]","[0,1,1,1]",0,27,27,27,1,1,0,,,1,FALSE,,,,,,,,,,,,,,,,,,,,,,,,,,,,,,,
,5f2c79e260e2f703a2196380,627c68f0ef443bb428a08beb,2022-05-11_22h00.09.095,classification_task,2021.2.3,Win32,59.86948452,627c6715c52fd12f31907bcf,,,,,,,,,,,,,,,,,,,,,,,a,1,7.9312,"[""0.311"",""0.598"",""0.764"",""0.959""]","[1,0,1,1]",0,28,28,28,1,0,1,,,1,FALSE,,,,,,,,,,,,,,,,,,,,,,,,,,,,,,,
,5f2c79e260e2f703a2196380,627c68f0ef443bb428a08beb,2022-05-11_22h00.09.095,classification_task,2021.2.3,Win32,59.86948452,627c6715c52fd12f31907bcf,,,,,,,,,,,,,,,,,,,,,,,a,1,5.8182,"[""0.251"",""0.592"",""0.849"",""0.906""]","[1,0,1,1]",0,29,29,29,1,0,0,,,1,FALSE,,,,,,,,,,,,,,,,,,,,,,,,,,,,,,,
,5f2c79e260e2f703a2196380,627c68f0ef443bb428a08beb,2022-05-11_22h00.09.095,classification_task,2021.2.3,Win32,59.86948452,627c6715c52fd12f31907bcf,,,,,,,,,,,,,,,,,,,,,,,l,1,4.9654,"[""0.617"",""0.211"",""0.471"",""0.724""]","[0,1,1,1]",0,30,30,30,1,1,1,,,1,FALSE,,,,,,,,,,,,,,,,,,,,,,,,,,,,,,,
,5f2c79e260e2f703a2196380,627c68f0ef443bb428a08beb,2022-05-11_22h00.09.095,classification_task,2021.2.3,Win32,59.86948452,627c6715c52fd12f31907bcf,,,,,,,,,,,,,,,,,,,,,,,l,1,6.3885,"[""0.040"",""0.211"",""0.471"",""0.617""]","[1,1,1,0]",0,31,31,31,1,1,1,,,1,FALSE,,,,,,,,,,,,,,,,,,,,,,,,,,,,,,,
,5f2c79e260e2f703a2196380,627c68f0ef443bb428a08beb,2022-05-11_22h00.09.095,classification_task,2021.2.3,Win32,59.86948452,627c6715c52fd12f31907bcf,,,,,,,,,,,,,,,,,,,,,,,a,0,3.9666,"[""0.040"",""0.211"",""0.471"",""0.598""]","[1,1,1,0]",0,32,32,32,1,1,1,,,1,FALSE,,,,,,,,,,,,,,,,,,,,,,,,,,,,,,,
,5f2c79e260e2f703a2196380,627c68f0ef443bb428a08beb,2022-05-11_22h00.09.095,classification_task,2021.2.3,Win32,59.86948452,627c6715c52fd12f31907bcf,,,,,,,,,,,,,,,,,,,,,,,l,1,1.3384,"[""0.040"",""0.211"",""0.673"",""0.724""]","[1,1,0,1]",0,33,33,33,1,1,1,,,1,FALSE,,,,,,,,,,,,,,,,,,,,,,,,,,,,,,,
,5f2c79e260e2f703a2196380,627c68f0ef443bb428a08beb,2022-05-11_22h00.09.095,classification_task,2021.2.3,Win32,59.86948452,627c6715c52fd12f31907bcf,,,,,,,,,,,,,,,,,,,,,,,a,1,1.8648,"[""0.593"",""0.554"",""0.764"",""0.959""]","[0,1,1,1]",0,34,34,34,1,0,1,,,1,FALSE,,,,,,,,,,,,,,,,,,,,,,,,,,,,,,,
,5f2c79e260e2f703a2196380,627c68f0ef443bb428a08beb,2022-05-11_22h00.09.095,classification_task,2021.2.3,Win32,59.86948452,627c6715c52fd12f31907bcf,,,,,,,,,,,,,,,,,,,,,,,a,1,1.5053,"[""0.251"",""0.593"",""0.849"",""0.906""]","[1,0,1,1]",0,35,35,35,1,0,0,,,1,FALSE,,,,,,,,,,,,,,,,,,,,,,,,,,,,,,,
,5f2c79e260e2f703a2196380,627c68f0ef443bb428a08beb,2022-05-11_22h00.09.095,classification_task,2021.2.3,Win32,59.86948452,627c6715c52fd12f31907bcf,,,,,,,,,,,,,,,,,,,,,,,l,1,2.1289,"[""0.040"",""0.141"",""0.471"",""0.724""]","[1,0,1,1]",0,36,36,36,1,1,1,,,1,FALSE,,,,,,,,,,,,,,,,,,,,,,,,,,,,,,,
,5f2c79e260e2f703a2196380,627c68f0ef443bb428a08beb,2022-05-11_22h00.09.095,classification_task,2021.2.3,Win32,59.86948452,627c6715c52fd12f31907bcf,,,,,,,,,,,,,,,,,,,,,,,a,1,0.6138,"[""0.311"",""0.617"",""0.764"",""0.959""]","[1,0,1,1]",0,37,37,37,1,0,1,,,1,FALSE,,,,,,,,,,,,,,,,,,,,,,,,,,,,,,,
,5f2c79e260e2f703a2196380,627c68f0ef443bb428a08beb,2022-05-11_22h00.09.095,classification_task,2021.2.3,Win32,59.86948452,627c6715c52fd12f31907bcf,,,,,,,,,,,,,,,,,,,,,,,a,1,0.5974,"[""0.311"",""0.554"",""0.639"",""0.959""]","[1,1,0,1]",0,38,38,38,1,0,1,,,1,FALSE,,,,,,,,,,,,,,,,,,,,,,,,,,,,,,,
,5f2c79e260e2f703a2196380,627c68f0ef443bb428a08beb,2022-05-11_22h00.09.095,classification_task,2021.2.3,Win32,59.86948452,627c6715c52fd12f31907bcf,,,,,,,,,,,,,,,,,,,,,,,l,1,2.2628,"[""0.095"",""0.359"",""0.611"",""0.804""]","[1,1,0,1]",0,39,39,39,1,1,0,,,1,FALSE,,,,,,,,,,,,,,,,,,,,,,,,,,,,,,,
,5f2c79e260e2f703a2196380,627c68f0ef443bb428a08beb,2022-05-11_22h00.09.095,classification_task,2021.2.3,Win32,59.86948452,627c6715c52fd12f31907bcf,,,,,,,,,,,,,,,,,,,,,,,a,1,1.1227,"[""0.613"",""0.412"",""0.849"",""0.906""]","[0,1,1,1]",0,40,40,40,1,0,0,,,1,FALSE,,,,,,,,,,,,,,,,,,,,,,,,,,,,,,,
,5f2c79e260e2f703a2196380,627c68f0ef443bb428a08beb,2022-05-11_22h00.09.095,classification_task,2021.2.3,Win32,59.86948452,627c6715c52fd12f31907bcf,,,,,,,,,,,,,,,,,,,,,,,l,0,0.9809,"[""0.251"",""0.412"",""0.637"",""0.906""]","[1,1,0,1]",0,41,41,41,1,0,0,,,1,FALSE,,,,,,,,,,,,,,,,,,,,,,,,,,,,,,,
,5f2c79e260e2f703a2196380,627c68f0ef443bb428a08beb,2022-05-11_22h00.09.095,classification_task,2021.2.3,Win32,59.86948452,627c6715c52fd12f31907bcf,,,,,,,,,,,,,,,,,,,,,,,l,0,1.4349,"[""0.251"",""0.412"",""0.849"",""0.141""]","[1,1,1,0]",0,42,42,42,1,0,0,,,1,FALSE,,,,,,,,,,,,,,,,,,,,,,,,,,,,,,,
,5f2c79e260e2f703a2196380,627c68f0ef443bb428a08beb,2022-05-11_22h00.09.095,classification_task,2021.2.3,Win32,59.86948452,627c6715c52fd12f31907bcf,,,,,,,,,,,,,,,,,,,,,,,a,0,0.981,"[""0.593"",""0.359"",""0.519"",""0.804""]","[0,1,1,1]",0,43,43,43,1,1,0,,,1,FALSE,,,,,,,,,,,,,,,,,,,,,,,,,,,,,,,
,5f2c79e260e2f703a2196380,627c68f0ef443bb428a08beb,2022-05-11_22h00.09.095,classification_task,2021.2.3,Win32,59.86948452,627c6715c52fd12f31907bcf,,,,,,,,,,,,,,,,,,,,,,,l,1,1.0148,"[""0.673"",""0.211"",""0.471"",""0.724""]","[0,1,1,1]",0,44,44,44,1,1,1,,,1,FALSE,,,,,,,,,,,,,,,,,,,,,,,,,,,,,,,
,5f2c79e260e2f703a2196380,627c68f0ef443bb428a08beb,2022-05-11_22h00.09.095,classification_task,2021.2.3,Win32,59.86948452,627c6715c52fd12f31907bcf,,,,,,,,,,,,,,,,,,,,,,,a,0,0.8478,"[""0.095"",""0.159"",""0.519"",""0.804""]","[1,0,1,1]",0,45,45,45,1,1,0,,,1,FALSE,,,,,,,,,,,,,,,,,,,,,,,,,,,,,,,
,5f2c79e260e2f703a2196380,627c68f0ef443bb428a08beb,2022-05-11_22h00.09.095,classification_task,2021.2.3,Win32,59.86948452,627c6715c52fd12f31907bcf,,,,,,,,,,,,,,,,,,,,,,,a,1,2.0962,"[""0.311"",""0.554"",""0.764"",""0.592""]","[1,1,1,0]",0,46,46,46,1,0,1,,,1,FALSE,,,,,,,,,,,,,,,,,,,,,,,,,,,,,,,
,5f2c79e260e2f703a2196380,627c68f0ef443bb428a08beb,2022-05-11_22h00.09.095,classification_task,2021.2.3,Win32,59.86948452,627c6715c52fd12f31907bcf,,,,,,,,,,,,,,,,,,,,,,,l,1,2.7183,"[""0.095"",""0.359"",""0.519"",""0.159""]","[1,1,1,0]",0,47,47,47,1,1,0,,,1,FALSE,,,,,,,,,,,,,,,,,,,,,,,,,,,,,,,
,5f2c79e260e2f703a2196380,627c68f0ef443bb428a08beb,2022-05-11_22h00.09.095,classification_task,2021.2.3,Win32,59.86948452,627c6715c52fd12f31907bcf,,,,,,,,,,,,,,,,,,,,,,,a,0,0.9294,"[""0.095"",""0.592"",""0.519"",""0.804""]","[1,0,1,1]",0,48,48,48,1,1,0,,,1,FALSE,,,,,,,,,,,,,,,,,,,,,,,,,,,,,,,
,5f2c79e260e2f703a2196380,627c68f0ef443bb428a08beb,2022-05-11_22h00.09.095,classification_task,2021.2.3,Win32,59.86948452,627c6715c52fd12f31907bcf,,,,,,,,,,,,,,,,,,,,,,,l,0,1.7473,"[""0.251"",""0.412"",""0.849"",""0.159""]","[1,1,1,0]",0,49,49,49,1,0,0,,,1,FALSE,,,,,,,,,,,,,,,,,,,,,,,,,,,,,,,
,5f2c79e260e2f703a2196380,627c68f0ef443bb428a08beb,2022-05-11_22h00.09.095,classification_task,2021.2.3,Win32,59.86948452,627c6715c52fd12f31907bcf,,,,,,,,,,,,,,,,,,,,,,,l,1,0.8329,"[""0.040"",""0.673"",""0.471"",""0.724""]","[1,0,1,1]",0,50,50,50,1,1,1,,,1,FALSE,,,,,,,,,,,,,,,,,,,,,,,,,,,,,,,
,5f2c79e260e2f703a2196380,627c68f0ef443bb428a08beb,2022-05-11_22h00.09.095,classification_task,2021.2.3,Win32,59.86948452,627c6715c52fd12f31907bcf,,,,,,,,,,,,,,,,,,,,,,,l,1,1.0849,"[""0.095"",""0.359"",""0.598"",""0.804""]","[1,1,0,1]",0,51,51,51,1,1,0,,,1,FALSE,,,,,,,,,,,,,,,,,,,,,,,,,,,,,,,
,5f2c79e260e2f703a2196380,627c68f0ef443bb428a08beb,2022-05-11_22h00.09.095,classification_task,2021.2.3,Win32,59.86948452,627c6715c52fd12f31907bcf,,,,,,,,,,,,,,,,,,,,,,,l,1,1.3455,"[""0.040"",""0.211"",""0.598"",""0.724""]","[1,1,0,1]",0,52,52,52,1,1,1,,,1,FALSE,,,,,,,,,,,,,,,,,,,,,,,,,,,,,,,
,5f2c79e260e2f703a2196380,627c68f0ef443bb428a08beb,2022-05-11_22h00.09.095,classification_task,2021.2.3,Win32,59.86948452,627c6715c52fd12f31907bcf,,,,,,,,,,,,,,,,,,,,,,,a,1,0.9125,"[""0.311"",""0.592"",""0.764"",""0.959""]","[1,0,1,1]",0,53,53,53,1,0,1,,,1,FALSE,,,,,,,,,,,,,,,,,,,,,,,,,,,,,,,
,5f2c79e260e2f703a2196380,627c68f0ef443bb428a08beb,2022-05-11_22h00.09.095,classification_task,2021.2.3,Win32,59.86948452,627c6715c52fd12f31907bcf,,,,,,,,,,,,,,,,,,,,,,,a,1,0.9801,"[""0.251"",""0.412"",""0.673"",""0.906""]","[1,1,0,1]",0,54,54,54,1,0,0,,,1,FALSE,,,,,,,,,,,,,,,,,,,,,,,,,,,,,,,
,5f2c79e260e2f703a2196380,627c68f0ef443bb428a08beb,2022-05-11_22h00.09.095,classification_task,2021.2.3,Win32,59.86948452,627c6715c52fd12f31907bcf,,,,,,,,,,,,,,,,,,,,,,,l,0,0.9471,"[""0.251"",""0.663"",""0.849"",""0.906""]","[1,0,1,1]",0,55,55,55,1,0,0,,,1,FALSE,,,,,,,,,,,,,,,,,,,,,,,,,,,,,,,
,5f2c79e260e2f703a2196380,627c68f0ef443bb428a08beb,2022-05-11_22h00.09.095,classification_task,2021.2.3,Win32,59.86948452,627c6715c52fd12f31907bcf,,,,,,,,,,,,,,,,,,,,,,,l,0,1.1006,"[""0.673"",""0.554"",""0.764"",""0.959""]","[0,1,1,1]",0,56,56,56,1,0,1,,,1,FALSE,,,,,,,,,,,,,,,,,,,,,,,,,,,,,,,
,5f2c79e260e2f703a2196380,627c68f0ef443bb428a08beb,2022-05-11_22h00.09.095,classification_task,2021.2.3,Win32,59.86948452,627c6715c52fd12f31907bcf,,,,,,,,,,,,,,,,,,,,,,,l,1,1.1133,"[""0.671"",""0.359"",""0.519"",""0.804""]","[0,1,1,1]",0,57,57,57,1,1,0,,,1,FALSE,,,,,,,,,,,,,,,,,,,,,,,,,,,,,,,
,5f2c79e260e2f703a2196380,627c68f0ef443bb428a08beb,2022-05-11_22h00.09.095,classification_task,2021.2.3,Win32,59.86948452,627c6715c52fd12f31907bcf,,,,,,,,,,,,,,,,,,,,,,,a,0,0.9797,"[""0.095"",""0.359"",""0.519"",""0.671""]","[1,1,1,0]",0,58,58,58,1,1,0,,,1,FALSE,,,,,,,,,,,,,,,,,,,,,,,,,,,,,,,
,5f2c79e260e2f703a2196380,627c68f0ef443bb428a08beb,2022-05-11_22h00.09.095,classification_task,2021.2.3,Win32,59.86948452,627c6715c52fd12f31907bcf,,,,,,,,,,,,,,,,,,,,,,,l,1,1.6167,"[""0.040"",""0.211"",""0.471"",""0.138""]","[1,1,1,0]",0,59,59,59,1,1,1,,,1,FALSE,,,,,,,,,,,,,,,,,,,,,,,,,,,,,,,
,5f2c79e260e2f703a2196380,627c68f0ef443bb428a08beb,2022-05-11_22h00.09.095,classification_task,2021.2.3,Win32,59.86948452,627c6715c52fd12f31907bcf,,,,,,,,,,,,,,,,,,,,,,,a,1,0.8455,"[""0.311"",""0.554"",""0.764"",""0.592""]","[1,1,1,0]",0,60,60,60,1,0,1,,,1,FALSE,,,,,,,,,,,,,,,,,,,,,,,,,,,,,,,
,5f2c79e260e2f703a2196380,627c68f0ef443bb428a08beb,2022-05-11_22h00.09.095,classification_task,2021.2.3,Win32,59.86948452,627c6715c52fd12f31907bcf,,,,,,,,,,,,,,,,,,,,,,,l,1,1.2796,"[""0.611"",""0.211"",""0.471"",""0.724""]","[0,1,1,1]",0,61,61,61,1,1,1,,,1,FALSE,,,,,,,,,,,,,,,,,,,,,,,,,,,,,,,
,5f2c79e260e2f703a2196380,627c68f0ef443bb428a08beb,2022-05-11_22h00.09.095,classification_task,2021.2.3,Win32,59.86948452,627c6715c52fd12f31907bcf,,,,,,,,,,,,,,,,,,,,,,,l,0,0.8992,"[""0.311"",""0.554"",""0.138"",""0.959""]","[1,1,0,1]",0,62,62,62,1,0,1,,,1,FALSE,,,,,,,,,,,,,,,,,,,,,,,,,,,,,,,
,5f2c79e260e2f703a2196380,627c68f0ef443bb428a08beb,2022-05-11_22h00.09.095,classification_task,2021.2.3,Win32,59.86948452,627c6715c52fd12f31907bcf,,,,,,,,,,,,,,,,,,,,,,,l,0,0.9811,"[""0.170"",""0.412"",""0.849"",""0.906""]","[0,1,1,1]",0,63,63,63,1,0,0,,,1,FALSE,,,,,,,,,,,,,,,,,,,,,,,,,,,,,,,
,5f2c79e260e2f703a2196380,627c68f0ef443bb428a08beb,2022-05-11_22h00.09.095,classification_task,2021.2.3,Win32,59.86948452,627c6715c52fd12f31907bcf,,,,,,,,,,,,,,,,,,,,,,,,,,,,,,,,,,,,,,,0, ,,0,8.380364491,448.1681,0,0,0,0,1,2,1,,,,,,,,,,,,,,,,,,
,5f2c79e260e2f703a2196380,627c68f0ef443bb428a08beb,2022-05-11_22h00.09.095,classification_task,2021.2.3,Win32,59.86948452,627c6715c52fd12f31907bcf,,,,,,,,,,,,,,,,,,,,,,,,,,,,,,,,,,,,,,,1,  ,,0,6.592200666,466.8707,0,0,0,0,1,2,1,,,,,,,,,,,,,,,,,,
,5f2c79e260e2f703a2196380,627c68f0ef443bb428a08beb,2022-05-11_22h00.09.095,classification_task,2021.2.3,Win32,59.86948452,627c6715c52fd12f31907bcf,,,,,,,,,,,,,,,,,,,,,,,,,,,,,,,,,,,,,,,2,  ,,0,2.18302959,461.3996,0,0,0,0,1,2,1,,,,,,,,,,,,,,,,,,
,5f2c79e260e2f703a2196380,627c68f0ef443bb428a08beb,2022-05-11_22h00.09.095,classification_task,2021.2.3,Win32,59.86948452,627c6715c52fd12f31907bcf,,,,,,,,,,,,,,,,,,,,,,,,,,,,,,,,,,,,,,,,,,,,,0,0,0,0,1,,1,,,,,,,,,,,,,,,,,,
,5f2c79e260e2f703a2196380,627c68f0ef443bb428a08beb,2022-05-11_22h00.09.095,classification_task,2021.2.3,Win32,59.86948452,627c6715c52fd12f31907bcf,,,,,,,,,,,,,,,,,,,,,space,14.5824,a,0,4.4798,"[""0.095"",""0.359"",""0.519"",""0.138""]","[1,1,1,0]",0,0,0,0,1,1,0,,,1,FALSE,,,,,,,,,,,,,,,,,,,,,,,,,,,,,,,
,5f2c79e260e2f703a2196380,627c68f0ef443bb428a08beb,2022-05-11_22h00.09.095,classification_task,2021.2.3,Win32,59.86948452,627c6715c52fd12f31907bcf,,,,,,,,,,,,,,,,,,,,,,,l,0,1.2406,"[""0.251"",""0.593"",""0.849"",""0.906""]","[1,0,1,1]",0,1,1,1,1,0,0,,,1,FALSE,,,,,,,,,,,,,,,,,,,,,,,,,,,,,,,
,5f2c79e260e2f703a2196380,627c68f0ef443bb428a08beb,2022-05-11_22h00.09.095,classification_task,2021.2.3,Win32,59.86948452,627c6715c52fd12f31907bcf,,,,,,,,,,,,,,,,,,,,,,,l,0,1.6845,"[""0.311"",""0.170"",""0.764"",""0.959""]","[1,0,1,1]",0,2,2,2,1,0,1,,,1,FALSE,,,,,,,,,,,,,,,,,,,,,,,,,,,,,,,
,5f2c79e260e2f703a2196380,627c68f0ef443bb428a08beb,2022-05-11_22h00.09.095,classification_task,2021.2.3,Win32,59.86948452,627c6715c52fd12f31907bcf,,,,,,,,,,,,,,,,,,,,,,,l,0,1.2025,"[""0.598"",""0.554"",""0.764"",""0.959""]","[0,1,1,1]",0,3,3,3,1,0,1,,,1,FALSE,,,,,,,,,,,,,,,,,,,,,,,,,,,,,,,
,5f2c79e260e2f703a2196380,627c68f0ef443bb428a08beb,2022-05-11_22h00.09.095,classification_task,2021.2.3,Win32,59.86948452,627c6715c52fd12f31907bcf,,,,,,,,,,,,,,,,,,,,,,,l,0,0.1648,"[""0.613"",""0.412"",""0.849"",""0.906""]","[0,1,1,1]",0,4,4,4,1,0,0,,,1,FALSE,,,,,,,,,,,,,,,,,,,,,,,,,,,,,,,
,5f2c79e260e2f703a2196380,627c68f0ef443bb428a08beb,2022-05-11_22h00.09.095,classification_task,2021.2.3,Win32,59.86948452,627c6715c52fd12f31907bcf,,,,,,,,,,,,,,,,,,,,,,,a,0,0.001,"[""0.170"",""0.211"",""0.471"",""0.724""]","[0,1,1,1]",0,5,5,5,1,1,1,,,1,FALSE,,,,,,,,,,,,,,,,,,,,,,,,,,,,,,,
,5f2c79e260e2f703a2196380,627c68f0ef443bb428a08beb,2022-05-11_22h00.09.095,classification_task,2021.2.3,Win32,59.86948452,627c6715c52fd12f31907bcf,,,,,,,,,,,,,,,,,,,,,,,a,0,0.8301,"[""0.040"",""0.141"",""0.471"",""0.724""]","[1,0,1,1]",0,6,6,6,1,1,1,,,1,FALSE,,,,,,,,,,,,,,,,,,,,,,,,,,,,,,,
,5f2c79e260e2f703a2196380,627c68f0ef443bb428a08beb,2022-05-11_22h00.09.095,classification_task,2021.2.3,Win32,59.86948452,627c6715c52fd12f31907bcf,,,,,,,,,,,,,,,,,,,,,,,a,1,0.7166,"[""0.311"",""0.554"",""0.764"",""0.673""]","[1,1,1,0]",0,7,7,7,1,0,1,,,1,FALSE,,,,,,,,,,,,,,,,,,,,,,,,,,,,,,,
,5f2c79e260e2f703a2196380,627c68f0ef443bb428a08beb,2022-05-11_22h00.09.095,classification_task,2021.2.3,Win32,59.86948452,627c6715c52fd12f31907bcf,,,,,,,,,,,,,,,,,,,,,,,l,0,0.9633,"[""0.311"",""0.554"",""0.170"",""0.959""]","[1,1,0,1]",0,8,8,8,1,0,1,,,1,FALSE,,,,,,,,,,,,,,,,,,,,,,,,,,,,,,,
,5f2c79e260e2f703a2196380,627c68f0ef443bb428a08beb,2022-05-11_22h00.09.095,classification_task,2021.2.3,Win32,59.86948452,627c6715c52fd12f31907bcf,,,,,,,,,,,,,,,,,,,,,,,l,1,0.5839,"[""0.095"",""0.359"",""0.639"",""0.804""]","[1,1,0,1]",0,9,9,9,1,1,0,,,1,FALSE,,,,,,,,,,,,,,,,,,,,,,,,,,,,,,,
,5f2c79e260e2f703a2196380,627c68f0ef443bb428a08beb,2022-05-11_22h00.09.095,classification_task,2021.2.3,Win32,59.86948452,627c6715c52fd12f31907bcf,,,,,,,,,,,,,,,,,,,,,,,a,0,0.7451,"[""0.040"",""0.211"",""0.471"",""0.598""]","[1,1,1,0]",0,10,10,10,1,1,1,,,1,FALSE,,,,,,,,,,,,,,,,,,,,,,,,,,,,,,,
,5f2c79e260e2f703a2196380,627c68f0ef443bb428a08beb,2022-05-11_22h00.09.095,classification_task,2021.2.3,Win32,59.86948452,627c6715c52fd12f31907bcf,,,,,,,,,,,,,,,,,,,,,,,l,1,1.0307,"[""0.159"",""0.359"",""0.519"",""0.804""]","[0,1,1,1]",0,11,11,11,1,1,0,,,1,FALSE,,,,,,,,,,,,,,,,,,,,,,,,,,,,,,,
,5f2c79e260e2f703a2196380,627c68f0ef443bb428a08beb,2022-05-11_22h00.09.095,classification_task,2021.2.3,Win32,59.86948452,627c6715c52fd12f31907bcf,,,,,,,,,,,,,,,,,,,,,,,l,1,1.7468,"[""0.095"",""0.687"",""0.519"",""0.804""]","[1,0,1,1]",0,12,12,12,1,1,0,,,1,FALSE,,,,,,,,,,,,,,,,,,,,,,,,,,,,,,,
,5f2c79e260e2f703a2196380,627c68f0ef443bb428a08beb,2022-05-11_22h00.09.095,classification_task,2021.2.3,Win32,59.86948452,627c6715c52fd12f31907bcf,,,,,,,,,,,,,,,,,,,,,,,l,0,1.3701,"[""0.251"",""0.412"",""0.849"",""0.663""]","[1,1,1,0]",0,13,13,13,1,0,0,,,1,FALSE,,,,,,,,,,,,,,,,,,,,,,,,,,,,,,,
,5f2c79e260e2f703a2196380,627c68f0ef443bb428a08beb,2022-05-11_22h00.09.095,classification_task,2021.2.3,Win32,59.86948452,627c6715c52fd12f31907bcf,,,,,,,,,,,,,,,,,,,,,,,a,0,0.9465,"[""0.040"",""0.211"",""0.141"",""0.724""]","[1,1,0,1]",0,14,14,14,1,1,1,,,1,FALSE,,,,,,,,,,,,,,,,,,,,,,,,,,,,,,,
,5f2c79e260e2f703a2196380,627c68f0ef443bb428a08beb,2022-05-11_22h00.09.095,classification_task,2021.2.3,Win32,59.86948452,627c6715c52fd12f31907bcf,,,,,,,,,,,,,,,,,,,,,,,l,0,1.8626,"[""0.251"",""0.412"",""0.170"",""0.906""]","[1,1,0,1]",0,15,15,15,1,0,0,,,1,FALSE,,,,,,,,,,,,,,,,,,,,,,,,,,,,,,,
,5f2c79e260e2f703a2196380,627c68f0ef443bb428a08beb,2022-05-11_22h00.09.095,classification_task,2021.2.3,Win32,59.86948452,627c6715c52fd12f31907bcf,,,,,,,,,,,,,,,,,,,,,,,l,1,0.7291,"[""0.095"",""0.673"",""0.519"",""0.804""]","[1,0,1,1]",0,16,16,16,1,1,0,,,1,FALSE,,,,,,,,,,,,,,,,,,,,,,,,,,,,,,,
,5f2c79e260e2f703a2196380,627c68f0ef443bb428a08beb,2022-05-11_22h00.09.095,classification_task,2021.2.3,Win32,59.86948452,627c6715c52fd12f31907bcf,,,,,,,,,,,,,,,,,,,,,,,l,0,1.1474,"[""0.311"",""0.554"",""0.671"",""0.959""]","[1,1,0,1]",0,17,17,17,1,0,1,,,1,FALSE,,,,,,,,,,,,,,,,,,,,,,,,,,,,,,,
,5f2c79e260e2f703a2196380,627c68f0ef443bb428a08beb,2022-05-11_22h00.09.095,classification_task,2021.2.3,Win32,59.86948452,627c6715c52fd12f31907bcf,,,,,,,,,,,,,,,,,,,,,,,a,0,1.3134,"[""0.095"",""0.359"",""0.519"",""0.639""]","[1,1,1,0]",0,18,18,18,1,1,0,,,1,FALSE,,,,,,,,,,,,,,,,,,,,,,,,,,,,,,,
,5f2c79e260e2f703a2196380,627c68f0ef443bb428a08beb,2022-05-11_22h00.09.095,classification_task,2021.2.3,Win32,59.86948452,627c6715c52fd12f31907bcf,,,,,,,,,,,,,,,,,,,,,,,l,1,0.8197,"[""0.095"",""0.359"",""0.671"",""0.804""]","[1,1,0,1]",0,19,19,19,1,1,0,,,1,FALSE,,,,,,,,,,,,,,,,,,,,,,,,,,,,,,,
,5f2c79e260e2f703a2196380,627c68f0ef443bb428a08beb,2022-05-11_22h00.09.095,classification_task,2021.2.3,Win32,59.86948452,627c6715c52fd12f31907bcf,,,,,,,,,,,,,,,,,,,,,,,a,1,0.979,"[""0.251"",""0.412"",""0.849"",""0.159""]","[1,1,1,0]",0,20,20,20,1,0,0,,,1,FALSE,,,,,,,,,,,,,,,,,,,,,,,,,,,,,,,
,5f2c79e260e2f703a2196380,627c68f0ef443bb428a08beb,2022-05-11_22h00.09.095,classification_task,2021.2.3,Win32,59.86948452,627c6715c52fd12f31907bcf,,,,,,,,,,,,,,,,,,,,,,,a,1,0.9978,"[""0.311"",""0.554"",""0.764"",""0.663""]","[1,1,1,0]",0,21,21,21,1,0,1,,,1,FALSE,,,,,,,,,,,,,,,,,,,,,,,,,,,,,,,
,5f2c79e260e2f703a2196380,627c68f0ef443bb428a08beb,2022-05-11_22h00.09.095,classification_task,2021.2.3,Win32,59.86948452,627c6715c52fd12f31907bcf,,,,,,,,,,,,,,,,,,,,,,,l,0,0.8851,"[""0.251"",""0.412"",""0.687"",""0.906""]","[1,1,0,1]",0,22,22,22,1,0,0,,,1,FALSE,,,,,,,,,,,,,,,,,,,,,,,,,,,,,,,
,5f2c79e260e2f703a2196380,627c68f0ef443bb428a08beb,2022-05-11_22h00.09.095,classification_task,2021.2.3,Win32,59.86948452,627c6715c52fd12f31907bcf,,,,,,,,,,,,,,,,,,,,,,,a,1,1.1133,"[""0.311"",""0.617"",""0.764"",""0.959""]","[1,0,1,1]",0,23,23,23,1,0,1,,,1,FALSE,,,,,,,,,,,,,,,,,,,,,,,,,,,,,,,
,5f2c79e260e2f703a2196380,627c68f0ef443bb428a08beb,2022-05-11_22h00.09.095,classification_task,2021.2.3,Win32,59.86948452,627c6715c52fd12f31907bcf,,,,,,,,,,,,,,,,,,,,,,,l,1,0.8377,"[""0.040"",""0.211"",""0.687"",""0.724""]","[1,1,0,1]",0,24,24,24,1,1,1,,,1,FALSE,,,,,,,,,,,,,,,,,,,,,,,,,,,,,,,
,5f2c79e260e2f703a2196380,627c68f0ef443bb428a08beb,2022-05-11_22h00.09.095,classification_task,2021.2.3,Win32,59.86948452,627c6715c52fd12f31907bcf,,,,,,,,,,,,,,,,,,,,,,,l,0,1.0305,"[""0.592"",""0.554"",""0.764"",""0.959""]","[0,1,1,1]",0,25,25,25,1,0,1,,,1,FALSE,,,,,,,,,,,,,,,,,,,,,,,,,,,,,,,
,5f2c79e260e2f703a2196380,627c68f0ef443bb428a08beb,2022-05-11_22h00.09.095,classification_task,2021.2.3,Win32,59.86948452,627c6715c52fd12f31907bcf,,,,,,,,,,,,,,,,,,,,,,,l,1,1.0299,"[""0.040"",""0.592"",""0.471"",""0.724""]","[1,0,1,1]",0,26,26,26,1,1,1,,,1,FALSE,,,,,,,,,,,,,,,,,,,,,,,,,,,,,,,
,5f2c79e260e2f703a2196380,627c68f0ef443bb428a08beb,2022-05-11_22h00.09.095,classification_task,2021.2.3,Win32,59.86948452,627c6715c52fd12f31907bcf,,,,,,,,,,,,,,,,,,,,,,,a,0,0.8513,"[""0.613"",""0.359"",""0.519"",""0.804""]","[0,1,1,1]",0,27,27,27,1,1,0,,,1,FALSE,,,,,,,,,,,,,,,,,,,,,,,,,,,,,,,
,5f2c79e260e2f703a2196380,627c68f0ef443bb428a08beb,2022-05-11_22h00.09.095,classification_task,2021.2.3,Win32,59.86948452,627c6715c52fd12f31907bcf,,,,,,,,,,,,,,,,,,,,,,,a,1,0.8798,"[""0.251"",""0.673"",""0.849"",""0.906""]","[1,0,1,1]",0,28,28,28,1,0,0,,,1,FALSE,,,,,,,,,,,,,,,,,,,,,,,,,,,,,,,
,5f2c79e260e2f703a2196380,627c68f0ef443bb428a08beb,2022-05-11_22h00.09.095,classification_task,2021.2.3,Win32,59.86948452,627c6715c52fd12f31907bcf,,,,,,,,,,,,,,,,,,,,,,,l,1,4.6975,"[""0.593"",""0.211"",""0.471"",""0.724""]","[0,1,1,1]",0,29,29,29,1,1,1,,,1,FALSE,,,,,,,,,,,,,,,,,,,,,,,,,,,,,,,
,5f2c79e260e2f703a2196380,627c68f0ef443bb428a08beb,2022-05-11_22h00.09.095,classification_task,2021.2.3,Win32,59.86948452,627c6715c52fd12f31907bcf,,,,,,,,,,,,,,,,,,,,,,,l,0,3.3865,"[""0.637"",""0.412"",""0.849"",""0.906""]","[0,1,1,1]",0,30,30,30,1,0,0,,,1,FALSE,,,,,,,,,,,,,,,,,,,,,,,,,,,,,,,
,5f2c79e260e2f703a2196380,627c68f0ef443bb428a08beb,2022-05-11_22h00.09.095,classification_task,2021.2.3,Win32,59.86948452,627c6715c52fd12f31907bcf,,,,,,,,,,,,,,,,,,,,,,,a,0,0.9552,"[""0.040"",""0.211"",""0.471"",""0.138""]","[1,1,1,0]",0,31,31,31,1,1,1,,,1,FALSE,,,,,,,,,,,,,,,,,,,,,,,,,,,,,,,
,5f2c79e260e2f703a2196380,627c68f0ef443bb428a08beb,2022-05-11_22h00.09.095,classification_task,2021.2.3,Win32,59.86948452,627c6715c52fd12f31907bcf,,,,,,,,,,,,,,,,,,,,,,,l,0,1.4964,"[""0.311"",""0.159"",""0.764"",""0.959""]","[1,0,1,1]",0,32,32,32,1,0,1,,,1,FALSE,,,,,,,,,,,,,,,,,,,,,,,,,,,,,,,
,5f2c79e260e2f703a2196380,627c68f0ef443bb428a08beb,2022-05-11_22h00.09.095,classification_task,2021.2.3,Win32,59.86948452,627c6715c52fd12f31907bcf,,,,,,,,,,,,,,,,,,,,,,,l,1,1.1529,"[""0.040"",""0.141"",""0.471"",""0.724""]","[1,0,1,1]",0,33,33,33,1,1,1,,,1,FALSE,,,,,,,,,,,,,,,,,,,,,,,,,,,,,,,
,5f2c79e260e2f703a2196380,627c68f0ef443bb428a08beb,2022-05-11_22h00.09.095,classification_task,2021.2.3,Win32,59.86948452,627c6715c52fd12f31907bcf,,,,,,,,,,,,,,,,,,,,,,,a,1,1.2141,"[""0.251"",""0.412"",""0.849"",""0.613""]","[1,1,1,0]",0,34,34,34,1,0,0,,,1,FALSE,,,,,,,,,,,,,,,,,,,,,,,,,,,,,,,
,5f2c79e260e2f703a2196380,627c68f0ef443bb428a08beb,2022-05-11_22h00.09.095,classification_task,2021.2.3,Win32,59.86948452,627c6715c52fd12f31907bcf,,,,,,,,,,,,,,,,,,,,,,,l,1,0.93,"[""0.095"",""0.359"",""0.519"",""0.613""]","[1,1,1,0]",0,35,35,35,1,1,0,,,1,FALSE,,,,,,,,,,,,,,,,,,,,,,,,,,,,,,,
,5f2c79e260e2f703a2196380,627c68f0ef443bb428a08beb,2022-05-11_22h00.09.095,classification_task,2021.2.3,Win32,59.86948452,627c6715c52fd12f31907bcf,,,,,,,,,,,,,,,,,,,,,,,a,0,2.9458,"[""0.637"",""0.211"",""0.471"",""0.724""]","[0,1,1,1]",0,36,36,36,1,1,1,,,1,FALSE,,,,,,,,,,,,,,,,,,,,,,,,,,,,,,,
,5f2c79e260e2f703a2196380,627c68f0ef443bb428a08beb,2022-05-11_22h00.09.095,classification_task,2021.2.3,Win32,59.86948452,627c6715c52fd12f31907bcf,,,,,,,,,,,,,,,,,,,,,,,l,1,1.1229,"[""0.040"",""0.211"",""0.663"",""0.724""]","[1,1,0,1]",0,37,37,37,1,1,1,,,1,FALSE,,,,,,,,,,,,,,,,,,,,,,,,,,,,,,,
,5f2c79e260e2f703a2196380,627c68f0ef443bb428a08beb,2022-05-11_22h00.09.095,classification_task,2021.2.3,Win32,59.86948452,627c6715c52fd12f31907bcf,,,,,,,,,,,,,,,,,,,,,,,a,1,1.1827,"[""0.251"",""0.663"",""0.849"",""0.906""]","[1,0,1,1]",0,38,38,38,1,0,0,,,1,FALSE,,,,,,,,,,,,,,,,,,,,,,,,,,,,,,,
,5f2c79e260e2f703a2196380,627c68f0ef443bb428a08beb,2022-05-11_22h00.09.095,classification_task,2021.2.3,Win32,59.86948452,627c6715c52fd12f31907bcf,,,,,,,,,,,,,,,,,,,,,,,a,1,0.8633,"[""0.593"",""0.554"",""0.764"",""0.959""]","[0,1,1,1]",0,39,39,39,1,0,1,,,1,FALSE,,,,,,,,,,,,,,,,,,,,,,,,,,,,,,,
,5f2c79e260e2f703a2196380,627c68f0ef443bb428a08beb,2022-05-11_22h00.09.095,classification_task,2021.2.3,Win32,59.86948452,627c6715c52fd12f31907bcf,,,,,,,,,,,,,,,,,,,,,,,a,0,1.3807,"[""0.095"",""0.673"",""0.519"",""0.804""]","[1,0,1,1]",0,40,40,40,1,1,0,,,1,FALSE,,,,,,,,,,,,,,,,,,,,,,,,,,,,,,,
,5f2c79e260e2f703a2196380,627c68f0ef443bb428a08beb,2022-05-11_22h00.09.095,classification_task,2021.2.3,Win32,59.86948452,627c6715c52fd12f31907bcf,,,,,,,,,,,,,,,,,,,,,,,l,0,0.8473,"[""0.311"",""0.554"",""0.764"",""0.611""]","[1,1,1,0]",0,41,41,41,1,0,1,,,1,FALSE,,,,,,,,,,,,,,,,,,,,,,,,,,,,,,,
,5f2c79e260e2f703a2196380,627c68f0ef443bb428a08beb,2022-05-11_22h00.09.095,classification_task,2021.2.3,Win32,59.86948452,627c6715c52fd12f31907bcf,,,,,,,,,,,,,,,,,,,,,,,l,1,1.2309,"[""0.040"",""0.211"",""0.471"",""0.598""]","[1,1,1,0]",0,42,42,42,1,1,1,,,1,FALSE,,,,,,,,,,,,,,,,,,,,,,,,,,,,,,,
,5f2c79e260e2f703a2196380,627c68f0ef443bb428a08beb,2022-05-11_22h00.09.095,classification_task,2021.2.3,Win32,59.86948452,627c6715c52fd12f31907bcf,,,,,,,,,,,,,,,,,,,,,,,l,1,1.0788,"[""0.095"",""0.359"",""0.617"",""0.804""]","[1,1,0,1]",0,43,43,43,1,1,0,,,1,FALSE,,,,,,,,,,,,,,,,,,,,,,,,,,,,,,,
,5f2c79e260e2f703a2196380,627c68f0ef443bb428a08beb,2022-05-11_22h00.09.095,classification_task,2021.2.3,Win32,59.86948452,627c6715c52fd12f31907bcf,,,,,,,,,,,,,,,,,,,,,,,a,0,0.8635,"[""0.170"",""0.359"",""0.519"",""0.804""]","[0,1,1,1]",0,44,44,44,1,1,0,,,1,FALSE,,,,,,,,,,,,,,,,,,,,,,,,,,,,,,,
,5f2c79e260e2f703a2196380,627c68f0ef443bb428a08beb,2022-05-11_22h00.09.095,classification_task,2021.2.3,Win32,59.86948452,627c6715c52fd12f31907bcf,,,,,,,,,,,,,,,,,,,,,,,l,0,0.9973,"[""0.311"",""0.554"",""0.639"",""0.959""]","[1,1,0,1]",0,45,45,45,1,0,1,,,1,FALSE,,,,,,,,,,,,,,,,,,,,,,,,,,,,,,,
,5f2c79e260e2f703a2196380,627c68f0ef443bb428a08beb,2022-05-11_22h00.09.095,classification_task,2021.2.3,Win32,59.86948452,627c6715c52fd12f31907bcf,,,,,,,,,,,,,,,,,,,,,,,l,0,0.7797,"[""0.251"",""0.412"",""0.613"",""0.906""]","[1,1,0,1]",0,46,46,46,1,0,0,,,1,FALSE,,,,,,,,,,,,,,,,,,,,,,,,,,,,,,,
,5f2c79e260e2f703a2196380,627c68f0ef443bb428a08beb,2022-05-11_22h00.09.095,classification_task,2021.2.3,Win32,59.86948452,627c6715c52fd12f31907bcf,,,,,,,,,,,,,,,,,,,,,,,a,1,0.999,"[""0.141"",""0.412"",""0.849"",""0.906""]","[0,1,1,1]",0,47,47,47,1,0,0,,,1,FALSE,,,,,,,,,,,,,,,,,,,,,,,,,,,,,,,
,5f2c79e260e2f703a2196380,627c68f0ef443bb428a08beb,2022-05-11_22h00.09.095,classification_task,2021.2.3,Win32,59.86948452,627c6715c52fd12f31907bcf,,,,,,,,,,,,,,,,,,,,,,,l,1,1.2805,"[""0.095"",""0.592"",""0.519"",""0.804""]","[1,0,1,1]",0,48,48,48,1,1,0,,,1,FALSE,,,,,,,,,,,,,,,,,,,,,,,,,,,,,,,
,5f2c79e260e2f703a2196380,627c68f0ef443bb428a08beb,2022-05-11_22h00.09.095,classification_task,2021.2.3,Win32,59.86948452,627c6715c52fd12f31907bcf,,,,,,,,,,,,,,,,,,,,,,,a,0,1.0303,"[""0.095"",""0.359"",""0.519"",""0.170""]","[1,1,1,0]",0,49,49,49,1,1,0,,,1,FALSE,,,,,,,,,,,,,,,,,,,,,,,,,,,,,,,
,5f2c79e260e2f703a2196380,627c68f0ef443bb428a08beb,2022-05-11_22h00.09.095,classification_task,2021.2.3,Win32,59.86948452,627c6715c52fd12f31907bcf,,,,,,,,,,,,,,,,,,,,,,,a,1,1.0969,"[""0.311"",""0.613"",""0.764"",""0.959""]","[1,0,1,1]",0,50,50,50,1,0,1,,,1,FALSE,,,,,,,,,,,,,,,,,,,,,,,,,,,,,,,
,5f2c79e260e2f703a2196380,627c68f0ef443bb428a08beb,2022-05-11_22h00.09.095,classification_task,2021.2.3,Win32,59.86948452,627c6715c52fd12f31907bcf,,,,,,,,,,,,,,,,,,,,,,,a,1,1.3314,"[""0.251"",""0.412"",""0.593"",""0.906""]","[1,1,0,1]",0,51,51,51,1,0,0,,,1,FALSE,,,,,,,,,,,,,,,,,,,,,,,,,,,,,,,
,5f2c79e260e2f703a2196380,627c68f0ef443bb428a08beb,2022-05-11_22h00.09.095,classification_task,2021.2.3,Win32,59.86948452,627c6715c52fd12f31907bcf,,,,,,,,,,,,,,,,,,,,,,,l,0,1.0546,"[""0.138"",""0.554"",""0.764"",""0.959""]","[0,1,1,1]",0,52,52,52,1,0,1,,,1,FALSE,,,,,,,,,,,,,,,,,,,,,,,,,,,,,,,
,5f2c79e260e2f703a2196380,627c68f0ef443bb428a08beb,2022-05-11_22h00.09.095,classification_task,2021.2.3,Win32,59.86948452,627c6715c52fd12f31907bcf,,,,,,,,,,,,,,,,,,,,,,,a,0,2.5639,"[""0.040"",""0.211"",""0.471"",""0.671""]","[1,1,1,0]",0,53,53,53,1,1,1,,,1,FALSE,,,,,,,,,,,,,,,,,,,,,,,,,,,,,,,
,5f2c79e260e2f703a2196380,627c68f0ef443bb428a08beb,2022-05-11_22h00.09.095,classification_task,2021.2.3,Win32,59.86948452,627c6715c52fd12f31907bcf,,,,,,,,,,,,,,,,,,,,,,,a,0,0.9972,"[""0.671"",""0.359"",""0.519"",""0.804""]","[0,1,1,1]",0,54,54,54,1,1,0,,,1,FALSE,,,,,,,,,,,,,,,,,,,,,,,,,,,,,,,
,5f2c79e260e2f703a2196380,627c68f0ef443bb428a08beb,2022-05-11_22h00.09.095,classification_task,2021.2.3,Win32,59.86948452,627c6715c52fd12f31907bcf,,,,,,,,,,,,,,,,,,,,,,,a,1,0.8506,"[""0.251"",""0.412"",""0.849"",""0.138""]","[1,1,1,0]",0,55,55,55,1,0,0,,,1,FALSE,,,,,,,,,,,,,,,,,,,,,,,,,,,,,,,
,5f2c79e260e2f703a2196380,627c68f0ef443bb428a08beb,2022-05-11_22h00.09.095,classification_task,2021.2.3,Win32,59.86948452,627c6715c52fd12f31907bcf,,,,,,,,,,,,,,,,,,,,,,,l,1,3.2158,"[""0.613"",""0.211"",""0.471"",""0.724""]","[0,1,1,1]",0,56,56,56,1,1,1,,,1,FALSE,,,,,,,,,,,,,,,,,,,,,,,,,,,,,,,
,5f2c79e260e2f703a2196380,627c68f0ef443bb428a08beb,2022-05-11_22h00.09.095,classification_task,2021.2.3,Win32,59.86948452,627c6715c52fd12f31907bcf,,,,,,,,,,,,,,,,,,,,,,,l,0,1.1354,"[""0.311"",""0.554"",""0.170"",""0.959""]","[1,1,0,1]",0,57,57,57,1,0,1,,,1,FALSE,,,,,,,,,,,,,,,,,,,,,,,,,,,,,,,
,5f2c79e260e2f703a2196380,627c68f0ef443bb428a08beb,2022-05-11_22h00.09.095,classification_task,2021.2.3,Win32,59.86948452,627c6715c52fd12f31907bcf,,,,,,,,,,,,,,,,,,,,,,,l,0,1.3304,"[""0.311"",""0.554"",""0.764"",""0.673""]","[1,1,1,0]",0,58,58,58,1,0,1,,,1,FALSE,,,,,,,,,,,,,,,,,,,,,,,,,,,,,,,
,5f2c79e260e2f703a2196380,627c68f0ef443bb428a08beb,2022-05-11_22h00.09.095,classification_task,2021.2.3,Win32,59.86948452,627c6715c52fd12f31907bcf,,,,,,,,,,,,,,,,,,,,,,,l,0,0.6561,"[""0.138"",""0.412"",""0.849"",""0.906""]","[0,1,1,1]",0,59,59,59,1,0,0,,,1,FALSE,,,,,,,,,,,,,,,,,,,,,,,,,,,,,,,
,5f2c79e260e2f703a2196380,627c68f0ef443bb428a08beb,2022-05-11_22h00.09.095,classification_task,2021.2.3,Win32,59.86948452,627c6715c52fd12f31907bcf,,,,,,,,,,,,,,,,,,,,,,,a,0,0.3458,"[""0.040"",""0.637"",""0.471"",""0.724""]","[1,0,1,1]",0,60,60,60,1,1,1,,,1,FALSE,,,,,,,,,,,,,,,,,,,,,,,,,,,,,,,
,5f2c79e260e2f703a2196380,627c68f0ef443bb428a08beb,2022-05-11_22h00.09.095,classification_task,2021.2.3,Win32,59.86948452,627c6715c52fd12f31907bcf,,,,,,,,,,,,,,,,,,,,,,,a,0,0.3804,"[""0.040"",""0.211"",""0.673"",""0.724""]","[1,1,0,1]",0,61,61,61,1,1,1,,,1,FALSE,,,,,,,,,,,,,,,,,,,,,,,,,,,,,,,
,5f2c79e260e2f703a2196380,627c68f0ef443bb428a08beb,2022-05-11_22h00.09.095,classification_task,2021.2.3,Win32,59.86948452,627c6715c52fd12f31907bcf,,,,,,,,,,,,,,,,,,,,,,,a,1,0.2471,"[""0.251"",""0.592"",""0.849"",""0.906""]","[1,0,1,1]",0,62,62,62,1,0,0,,,1,FALSE,,,,,,,,,,,,,,,,,,,,,,,,,,,,,,,
,5f2c79e260e2f703a2196380,627c68f0ef443bb428a08beb,2022-05-11_22h00.09.095,classification_task,2021.2.3,Win32,59.86948452,627c6715c52fd12f31907bcf,,,,,,,,,,,,,,,,,,,,,,,l,1,0.9969,"[""0.095"",""0.359"",""0.592"",""0.804""]","[1,1,0,1]",0,63,63,63,1,1,0,,,1,FALSE,,,,,,,,,,,,,,,,,,,,,,,,,,,,,,,
,5f2c79e260e2f703a2196380,627c68f0ef443bb428a08beb,2022-05-11_22h00.09.095,classification_task,2021.2.3,Win32,59.86948452,627c6715c52fd12f31907bcf,,,,,,,,,,,,,,,,,,,,,,,,,,,,,,,,,,,,,,,0, ,,0,8.894767784,165.8517,0,1,1,1,1,2,2,,,,,,,,,,,,,,,,,,
,5f2c79e260e2f703a2196380,627c68f0ef443bb428a08beb,2022-05-11_22h00.09.095,classification_task,2021.2.3,Win32,59.86948452,627c6715c52fd12f31907bcf,,,,,,,,,,,,,,,,,,,,,,,,,,,,,,,,,,,,,,,1,  ,,0,9.237703312,167.9765,0,1,1,1,1,2,2,,,,,,,,,,,,,,,,,,
,5f2c79e260e2f703a2196380,627c68f0ef443bb428a08beb,2022-05-11_22h00.09.095,classification_task,2021.2.3,Win32,59.86948452,627c6715c52fd12f31907bcf,,,,,,,,,,,,,,,,,,,,,,,,,,,,,,,,,,,,,,,2,  ,,0,7.449539487,170.5104,0,1,1,1,1,2,2,,,,,,,,,,,,,,,,,,
,5f2c79e260e2f703a2196380,627c68f0ef443bb428a08beb,2022-05-11_22h00.09.095,classification_task,2021.2.3,Win32,59.86948452,627c6715c52fd12f31907bcf,,,,,,,,,,,,,,,,,,,,,,,,,,,,,,,,,,,,,,,,,,,,,0,1,1,1,1,,2,,,,,,,,,,,,,,,,,,
,5f2c79e260e2f703a2196380,627c68f0ef443bb428a08beb,2022-05-11_22h00.09.095,classification_task,2021.2.3,Win32,59.86948452,627c6715c52fd12f31907bcf,,,,,,,,,,,,,,,,,,,,,space,8.6541,l,0,1.2779,"[""0.311"",""0.554"",""0.764"",""0.598""]","[1,1,1,0]",0,0,0,0,1,0,1,,,1,FALSE,,,,,,,,,,,,,,,,,,,,,,,,,,,,,,,
,5f2c79e260e2f703a2196380,627c68f0ef443bb428a08beb,2022-05-11_22h00.09.095,classification_task,2021.2.3,Win32,59.86948452,627c6715c52fd12f31907bcf,,,,,,,,,,,,,,,,,,,,,,,l,0,1.8808,"[""0.311"",""0.141"",""0.764"",""0.959""]","[1,0,1,1]",0,1,1,1,1,0,1,,,1,FALSE,,,,,,,,,,,,,,,,,,,,,,,,,,,,,,,
,5f2c79e260e2f703a2196380,627c68f0ef443bb428a08beb,2022-05-11_22h00.09.095,classification_task,2021.2.3,Win32,59.86948452,627c6715c52fd12f31907bcf,,,,,,,,,,,,,,,,,,,,,,,l,1,2.448,"[""0.040"",""0.211"",""0.471"",""0.138""]","[1,1,1,0]",0,2,2,2,1,1,1,,,1,FALSE,,,,,,,,,,,,,,,,,,,,,,,,,,,,,,,
,5f2c79e260e2f703a2196380,627c68f0ef443bb428a08beb,2022-05-11_22h00.09.095,classification_task,2021.2.3,Win32,59.86948452,627c6715c52fd12f31907bcf,,,,,,,,,,,,,,,,,,,,,,,a,1,1.3555,"[""0.311"",""0.554"",""0.639"",""0.959""]","[1,1,0,1]",0,3,3,3,1,0,1,,,1,FALSE,,,,,,,,,,,,,,,,,,,,,,,,,,,,,,,
,5f2c79e260e2f703a2196380,627c68f0ef443bb428a08beb,2022-05-11_22h00.09.095,classification_task,2021.2.3,Win32,59.86948452,627c6715c52fd12f31907bcf,,,,,,,,,,,,,,,,,,,,,,,l,1,3.4847,"[""0.095"",""0.359"",""0.519"",""0.639""]","[1,1,1,0]",0,4,4,4,1,1,0,,,1,FALSE,,,,,,,,,,,,,,,,,,,,,,,,,,,,,,,
,5f2c79e260e2f703a2196380,627c68f0ef443bb428a08beb,2022-05-11_22h00.09.095,classification_task,2021.2.3,Win32,59.86948452,627c6715c52fd12f31907bcf,,,,,,,,,,,,,,,,,,,,,,,a,0,2.5885,"[""0.593"",""0.359"",""0.519"",""0.804""]","[0,1,1,1]",0,5,5,5,1,1,0,,,1,FALSE,,,,,,,,,,,,,,,,,,,,,,,,,,,,,,,
,5f2c79e260e2f703a2196380,627c68f0ef443bb428a08beb,2022-05-11_22h00.09.095,classification_task,2021.2.3,Win32,59.86948452,627c6715c52fd12f31907bcf,,,,,,,,,,,,,,,,,,,,,,,l,0,2.5041,"[""0.251"",""0.639"",""0.849"",""0.906""]","[1,0,1,1]",0,6,6,6,1,0,0,,,1,FALSE,,,,,,,,,,,,,,,,,,,,,,,,,,,,,,,
,5f2c79e260e2f703a2196380,627c68f0ef443bb428a08beb,2022-05-11_22h00.09.095,classification_task,2021.2.3,Win32,59.86948452,627c6715c52fd12f31907bcf,,,,,,,,,,,,,,,,,,,,,,,a,1,2.4556,"[""0.251"",""0.412"",""0.849"",""0.598""]","[1,1,1,0]",0,7,7,7,1,0,0,,,1,FALSE,,,,,,,,,,,,,,,,,,,,,,,,,,,,,,,
,5f2c79e260e2f703a2196380,627c68f0ef443bb428a08beb,2022-05-11_22h00.09.095,classification_task,2021.2.3,Win32,59.86948452,627c6715c52fd12f31907bcf,,,,,,,,,,,,,,,,,,,,,,,a,1,2.3222,"[""0.663"",""0.554"",""0.764"",""0.959""]","[0,1,1,1]",0,8,8,8,1,0,1,,,1,FALSE,,,,,,,,,,,,,,,,,,,,,,,,,,,,,,,
,5f2c79e260e2f703a2196380,627c68f0ef443bb428a08beb,2022-05-11_22h00.09.095,classification_task,2021.2.3,Win32,59.86948452,627c6715c52fd12f31907bcf,,,,,,,,,,,,,,,,,,,,,,,l,0,1.2173,"[""0.251"",""0.412"",""0.673"",""0.906""]","[1,1,0,1]",0,9,9,9,1,0,0,,,1,FALSE,,,,,,,,,,,,,,,,,,,,,,,,,,,,,,,
,5f2c79e260e2f703a2196380,627c68f0ef443bb428a08beb,2022-05-11_22h00.09.095,classification_task,2021.2.3,Win32,59.86948452,627c6715c52fd12f31907bcf,,,,,,,,,,,,,,,,,,,,,,,a,0,3.029,"[""0.138"",""0.211"",""0.471"",""0.724""]","[0,1,1,1]",0,10,10,10,1,1,1,,,1,FALSE,,,,,,,,,,,,,,,,,,,,,,,,,,,,,,,
,5f2c79e260e2f703a2196380,627c68f0ef443bb428a08beb,2022-05-11_22h00.09.095,classification_task,2021.2.3,Win32,59.86948452,627c6715c52fd12f31907bcf,,,,,,,,,,,,,,,,,,,,,,,l,1,1.4348,"[""0.095"",""0.671"",""0.519"",""0.804""]","[1,0,1,1]",0,11,11,11,1,1,0,,,1,FALSE,,,,,,,,,,,,,,,,,,,,,,,,,,,,,,,
,5f2c79e260e2f703a2196380,627c68f0ef443bb428a08beb,2022-05-11_22h00.09.095,classification_task,2021.2.3,Win32,59.86948452,627c6715c52fd12f31907bcf,,,,,,,,,,,,,,,,,,,,,,,a,1,2.4579,"[""0.611"",""0.412"",""0.849"",""0.906""]","[0,1,1,1]",0,12,12,12,1,0,0,,,1,FALSE,,,,,,,,,,,,,,,,,,,,,,,,,,,,,,,
,5f2c79e260e2f703a2196380,627c68f0ef443bb428a08beb,2022-05-11_22h00.09.095,classification_task,2021.2.3,Win32,59.86948452,627c6715c52fd12f31907bcf,,,,,,,,,,,,,,,,,,,,,,,l,1,1.297,"[""0.040"",""0.592"",""0.471"",""0.724""]","[1,0,1,1]",0,13,13,13,1,1,1,,,1,FALSE,,,,,,,,,,,,,,,,,,,,,,,,,,,,,,,
,5f2c79e260e2f703a2196380,627c68f0ef443bb428a08beb,2022-05-11_22h00.09.095,classification_task,2021.2.3,Win32,59.86948452,627c6715c52fd12f31907bcf,,,,,,,,,,,,,,,,,,,,,,,l,1,1.8205,"[""0.095"",""0.359"",""0.617"",""0.804""]","[1,1,0,1]",0,14,14,14,1,1,0,,,1,FALSE,,,,,,,,,,,,,,,,,,,,,,,,,,,,,,,
,5f2c79e260e2f703a2196380,627c68f0ef443bb428a08beb,2022-05-11_22h00.09.095,classification_task,2021.2.3,Win32,59.86948452,627c6715c52fd12f31907bcf,,,,,,,,,,,,,,,,,,,,,,,a,0,1.7666,"[""0.040"",""0.211"",""0.592"",""0.724""]","[1,1,0,1]",0,15,15,15,1,1,1,,,1,FALSE,,,,,,,,,,,,,,,,,,,,,,,,,,,,,,,
,5f2c79e260e2f703a2196380,627c68f0ef443bb428a08beb,2022-05-11_22h00.09.095,classification_task,2021.2.3,Win32,59.86948452,627c6715c52fd12f31907bcf,,,,,,,,,,,,,,,,,,,,,,,l,0,1.1964,"[""0.251"",""0.412"",""0.849"",""0.639""]","[1,1,1,0]",0,16,16,16,1,0,0,,,1,FALSE,,,,,,,,,,,,,,,,,,,,,,,,,,,,,,,
,5f2c79e260e2f703a2196380,627c68f0ef443bb428a08beb,2022-05-11_22h00.09.095,classification_task,2021.2.3,Win32,59.86948452,627c6715c52fd12f31907bcf,,,,,,,,,,,,,,,,,,,,,,,a,1,1.3123,"[""0.311"",""0.554"",""0.764"",""0.617""]","[1,1,1,0]",0,17,17,17,1,0,1,,,1,FALSE,,,,,,,,,,,,,,,,,,,,,,,,,,,,,,,
,5f2c79e260e2f703a2196380,627c68f0ef443bb428a08beb,2022-05-11_22h00.09.095,classification_task,2021.2.3,Win32,59.86948452,627c6715c52fd12f31907bcf,,,,,,,,,,,,,,,,,,,,,,,l,0,1.2923,"[""0.311"",""0.687"",""0.764"",""0.959""]","[1,0,1,1]",0,18,18,18,1,0,1,,,1,FALSE,,,,,,,,,,,,,,,,,,,,,,,,,,,,,,,
,5f2c79e260e2f703a2196380,627c68f0ef443bb428a08beb,2022-05-11_22h00.09.095,classification_task,2021.2.3,Win32,59.86948452,627c6715c52fd12f31907bcf,,,,,,,,,,,,,,,,,,,,,,,l,0,1.1634,"[""0.613"",""0.554"",""0.764"",""0.959""]","[0,1,1,1]",0,19,19,19,1,0,1,,,1,FALSE,,,,,,,,,,,,,,,,,,,,,,,,,,,,,,,
,5f2c79e260e2f703a2196380,627c68f0ef443bb428a08beb,2022-05-11_22h00.09.095,classification_task,2021.2.3,Win32,59.86948452,627c6715c52fd12f31907bcf,,,,,,,,,,,,,,,,,,,,,,,l,0,0.9791,"[""0.141"",""0.412"",""0.849"",""0.906""]","[0,1,1,1]",0,20,20,20,1,0,0,,,1,FALSE,,,,,,,,,,,,,,,,,,,,,,,,,,,,,,,
,5f2c79e260e2f703a2196380,627c68f0ef443bb428a08beb,2022-05-11_22h00.09.095,classification_task,2021.2.3,Win32,59.86948452,627c6715c52fd12f31907bcf,,,,,,,,,,,,,,,,,,,,,,,l,1,1.3966,"[""0.040"",""0.138"",""0.471"",""0.724""]","[1,0,1,1]",0,21,21,21,1,1,1,,,1,FALSE,,,,,,,,,,,,,,,,,,,,,,,,,,,,,,,
,5f2c79e260e2f703a2196380,627c68f0ef443bb428a08beb,2022-05-11_22h00.09.095,classification_task,2021.2.3,Win32,59.86948452,627c6715c52fd12f31907bcf,,,,,,,,,,,,,,,,,,,,,,,l,1,1.0972,"[""0.040"",""0.211"",""0.159"",""0.724""]","[1,1,0,1]",0,22,22,22,1,1,1,,,1,FALSE,,,,,,,,,,,,,,,,,,,,,,,,,,,,,,,
,5f2c79e260e2f703a2196380,627c68f0ef443bb428a08beb,2022-05-11_22h00.09.095,classification_task,2021.2.3,Win32,59.86948452,627c6715c52fd12f31907bcf,,,,,,,,,,,,,,,,,,,,,,,a,0,0.7839,"[""0.040"",""0.211"",""0.471"",""0.141""]","[1,1,1,0]",0,23,23,23,1,1,1,,,1,FALSE,,,,,,,,,,,,,,,,,,,,,,,,,,,,,,,
,5f2c79e260e2f703a2196380,627c68f0ef443bb428a08beb,2022-05-11_22h00.09.095,classification_task,2021.2.3,Win32,59.86948452,627c6715c52fd12f31907bcf,,,,,,,,,,,,,,,,,,,,,,,a,0,1.531,"[""0.593"",""0.211"",""0.471"",""0.724""]","[0,1,1,1]",0,24,24,24,1,1,1,,,1,FALSE,,,,,,,,,,,,,,,,,,,,,,,,,,,,,,,
,5f2c79e260e2f703a2196380,627c68f0ef443bb428a08beb,2022-05-11_22h00.09.095,classification_task,2021.2.3,Win32,59.86948452,627c6715c52fd12f31907bcf,,,,,,,,,,,,,,,,,,,,,,,l,0,1.4627,"[""0.251"",""0.412"",""0.671"",""0.906""]","[1,1,0,1]",0,25,25,25,1,0,0,,,1,FALSE,,,,,,,,,,,,,,,,,,,,,,,,,,,,,,,
,5f2c79e260e2f703a2196380,627c68f0ef443bb428a08beb,2022-05-11_22h00.09.095,classification_task,2021.2.3,Win32,59.86948452,627c6715c52fd12f31907bcf,,,,,,,,,,,,,,,,,,,,,,,l,0,1.0407,"[""0.251"",""0.639"",""0.849"",""0.906""]","[1,0,1,1]",0,26,26,26,1,0,0,,,1,FALSE,,,,,,,,,,,,,,,,,,,,,,,,,,,,,,,
,5f2c79e260e2f703a2196380,627c68f0ef443bb428a08beb,2022-05-11_22h00.09.095,classification_task,2021.2.3,Win32,59.86948452,627c6715c52fd12f31907bcf,,,,,,,,,,,,,,,,,,,,,,,l,0,2.463,"[""0.311"",""0.554"",""0.673"",""0.959""]","[1,1,0,1]",0,27,27,27,1,0,1,,,1,FALSE,,,,,,,,,,,,,,,,,,,,,,,,,,,,,,,
,5f2c79e260e2f703a2196380,627c68f0ef443bb428a08beb,2022-05-11_22h00.09.095,classification_task,2021.2.3,Win32,59.86948452,627c6715c52fd12f31907bcf,,,,,,,,,,,,,,,,,,,,,,,a,0,0.851,"[""0.095"",""0.359"",""0.519"",""0.639""]","[1,1,1,0]",0,28,28,28,1,1,0,,,1,FALSE,,,,,,,,,,,,,,,,,,,,,,,,,,,,,,,
,5f2c79e260e2f703a2196380,627c68f0ef443bb428a08beb,2022-05-11_22h00.09.095,classification_task,2021.2.3,Win32,59.86948452,627c6715c52fd12f31907bcf,,,,,,,,,,,,,,,,,,,,,,,a,0,1.5813,"[""0.613"",""0.359"",""0.519"",""0.804""]","[0,1,1,1]",0,29,29,29,1,1,0,,,1,FALSE,,,,,,,,,,,,,,,,,,,,,,,,,,,,,,,
,5f2c79e260e2f703a2196380,627c68f0ef443bb428a08beb,2022-05-11_22h00.09.095,classification_task,2021.2.3,Win32,59.86948452,627c6715c52fd12f31907bcf,,,,,,,,,,,,,,,,,,,,,,,a,0,0.2079,"[""0.095"",""0.593"",""0.519"",""0.804""]","[1,0,1,1]",0,30,30,30,1,1,0,,,1,FALSE,,,,,,,,,,,,,,,,,,,,,,,,,,,,,,,
,5f2c79e260e2f703a2196380,627c68f0ef443bb428a08beb,2022-05-11_22h00.09.095,classification_task,2021.2.3,Win32,59.86948452,627c6715c52fd12f31907bcf,,,,,,,,,,,,,,,,,,,,,,,l,1,1.881,"[""0.095"",""0.359"",""0.593"",""0.804""]","[1,1,0,1]",0,31,31,31,1,1,0,,,1,FALSE,,,,,,,,,,,,,,,,,,,,,,,,,,,,,,,
,5f2c79e260e2f703a2196380,627c68f0ef443bb428a08beb,2022-05-11_22h00.09.095,classification_task,2021.2.3,Win32,59.86948452,627c6715c52fd12f31907bcf,,,,,,,,,,,,,,,,,,,,,,,l,1,1.1716,"[""0.040"",""0.211"",""0.687"",""0.724""]","[1,1,0,1]",0,32,32,32,1,1,1,,,1,FALSE,,,,,,,,,,,,,,,,,,,,,,,,,,,,,,,
,5f2c79e260e2f703a2196380,627c68f0ef443bb428a08beb,2022-05-11_22h00.09.095,classification_task,2021.2.3,Win32,59.86948452,627c6715c52fd12f31907bcf,,,,,,,,,,,,,,,,,,,,,,,a,1,1.3974,"[""0.637"",""0.554"",""0.764"",""0.959""]","[0,1,1,1]",0,33,33,33,1,0,1,,,1,FALSE,,,,,,,,,,,,,,,,,,,,,,,,,,,,,,,
,5f2c79e260e2f703a2196380,627c68f0ef443bb428a08beb,2022-05-11_22h00.09.095,classification_task,2021.2.3,Win32,59.86948452,627c6715c52fd12f31907bcf,,,,,,,,,,,,,,,,,,,,,,,l,1,1.5301,"[""0.095"",""0.359"",""0.519"",""0.598""]","[1,1,1,0]",0,34,34,34,1,1,0,,,1,FALSE,,,,,,,,,,,,,,,,,,,,,,,,,,,,,,,
,5f2c79e260e2f703a2196380,627c68f0ef443bb428a08beb,2022-05-11_22h00.09.095,classification_task,2021.2.3,Win32,59.86948452,627c6715c52fd12f31907bcf,,,,,,,,,,,,,,,,,,,,,,,a,0,1.3659,"[""0.617"",""0.211"",""0.471"",""0.724""]","[0,1,1,1]",0,35,35,35,1,1,1,,,1,FALSE,,,,,,,,,,,,,,,,,,,,,,,,,,,,,,,
,5f2c79e260e2f703a2196380,627c68f0ef443bb428a08beb,2022-05-11_22h00.09.095,classification_task,2021.2.3,Win32,59.86948452,627c6715c52fd12f31907bcf,,,,,,,,,,,,,,,,,,,,,,,a,1,1.2961,"[""0.251"",""0.412"",""0.617"",""0.906""]","[1,1,0,1]",0,36,36,36,1,0,0,,,1,FALSE,,,,,,,,,,,,,,,,,,,,,,,,,,,,,,,
,5f2c79e260e2f703a2196380,627c68f0ef443bb428a08beb,2022-05-11_22h00.09.095,classification_task,2021.2.3,Win32,59.86948452,627c6715c52fd12f31907bcf,,,,,,,,,,,,,,,,,,,,,,,l,1,1.1388,"[""0.592"",""0.359"",""0.519"",""0.804""]","[0,1,1,1]",0,37,37,37,1,1,0,,,1,FALSE,,,,,,,,,,,,,,,,,,,,,,,,,,,,,,,
,5f2c79e260e2f703a2196380,627c68f0ef443bb428a08beb,2022-05-11_22h00.09.095,classification_task,2021.2.3,Win32,59.86948452,627c6715c52fd12f31907bcf,,,,,,,,,,,,,,,,,,,,,,,l,0,1.1958,"[""0.311"",""0.554"",""0.764"",""0.639""]","[1,1,1,0]",0,38,38,38,1,0,1,,,1,FALSE,,,,,,,,,,,,,,,,,,,,,,,,,,,,,,,
,5f2c79e260e2f703a2196380,627c68f0ef443bb428a08beb,2022-05-11_22h00.09.095,classification_task,2021.2.3,Win32,59.86948452,627c6715c52fd12f31907bcf,,,,,,,,,,,,,,,,,,,,,,,l,0,1.4647,"[""0.251"",""0.613"",""0.849"",""0.906""]","[1,0,1,1]",0,39,39,39,1,0,0,,,1,FALSE,,,,,,,,,,,,,,,,,,,,,,,,,,,,,,,
,5f2c79e260e2f703a2196380,627c68f0ef443bb428a08beb,2022-05-11_22h00.09.095,classification_task,2021.2.3,Win32,59.86948452,627c6715c52fd12f31907bcf,,,,,,,,,,,,,,,,,,,,,,,l,1,1.5843,"[""0.095"",""0.359"",""0.639"",""0.804""]","[1,1,0,1]",0,40,40,40,1,1,0,,,1,FALSE,,,,,,,,,,,,,,,,,,,,,,,,,,,,,,,
,5f2c79e260e2f703a2196380,627c68f0ef443bb428a08beb,2022-05-11_22h00.09.095,classification_task,2021.2.3,Win32,59.86948452,627c6715c52fd12f31907bcf,,,,,,,,,,,,,,,,,,,,,,,a,0,1.2795,"[""0.040"",""0.211"",""0.471"",""0.593""]","[1,1,1,0]",0,41,41,41,1,1,1,,,1,FALSE,,,,,,,,,,,,,,,,,,,,,,,,,,,,,,,
,5f2c79e260e2f703a2196380,627c68f0ef443bb428a08beb,2022-05-11_22h00.09.095,classification_task,2021.2.3,Win32,59.86948452,627c6715c52fd12f31907bcf,,,,,,,,,,,,,,,,,,,,,,,l,0,1.2343,"[""0.311"",""0.554"",""0.687"",""0.959""]","[1,1,0,1]",0,42,42,42,1,0,1,,,1,FALSE,,,,,,,,,,,,,,,,,,,,,,,,,,,,,,,
,5f2c79e260e2f703a2196380,627c68f0ef443bb428a08beb,2022-05-11_22h00.09.095,classification_task,2021.2.3,Win32,59.86948452,627c6715c52fd12f31907bcf,,,,,,,,,,,,,,,,,,,,,,,l,0,1.4191,"[""0.251"",""0.412"",""0.849"",""0.663""]","[1,1,1,0]",0,43,43,43,1,0,0,,,1,FALSE,,,,,,,,,,,,,,,,,,,,,,,,,,,,,,,
,5f2c79e260e2f703a2196380,627c68f0ef443bb428a08beb,2022-05-11_22h00.09.095,classification_task,2021.2.3,Win32,59.86948452,627c6715c52fd12f31907bcf,,,,,,,,,,,,,,,,,,,,,,,l,1,1.3969,"[""0.040"",""0.687"",""0.471"",""0.724""]","[1,0,1,1]",0,44,44,44,1,1,1,,,1,FALSE,,,,,,,,,,,,,,,,,,,,,,,,,,,,,,,
,5f2c79e260e2f703a2196380,627c68f0ef443bb428a08beb,2022-05-11_22h00.09.095,classification_task,2021.2.3,Win32,59.86948452,627c6715c52fd12f31907bcf,,,,,,,,,,,,,,,,,,,,,,,a,1,1.0807,"[""0.671"",""0.412"",""0.849"",""0.906""]","[0,1,1,1]",0,45,45,45,1,0,0,,,1,FALSE,,,,,,,,,,,,,,,,,,,,,,,,,,,,,,,
,5f2c79e260e2f703a2196380,627c68f0ef443bb428a08beb,2022-05-11_22h00.09.095,classification_task,2021.2.3,Win32,59.86948452,627c6715c52fd12f31907bcf,,,,,,,,,,,,,,,,,,,,,,,l,1,0.7321,"[""0.095"",""0.611"",""0.519"",""0.804""]","[1,0,1,1]",0,46,46,46,1,1,0,,,1,FALSE,,,,,,,,,,,,,,,,,,,,,,,,,,,,,,,
,5f2c79e260e2f703a2196380,627c68f0ef443bb428a08beb,2022-05-11_22h00.09.095,classification_task,2021.2.3,Win32,59.86948452,627c6715c52fd12f31907bcf,,,,,,,,,,,,,,,,,,,,,,,l,0,0.8303,"[""0.311"",""0.141"",""0.764"",""0.959""]","[1,0,1,1]",0,47,47,47,1,0,1,,,1,FALSE,,,,,,,,,,,,,,,,,,,,,,,,,,,,,,,
,5f2c79e260e2f703a2196380,627c68f0ef443bb428a08beb,2022-05-11_22h00.09.095,classification_task,2021.2.3,Win32,59.86948452,627c6715c52fd12f31907bcf,,,,,,,,,,,,,,,,,,,,,,,l,1,0.8811,"[""0.040"",""0.613"",""0.471"",""0.724""]","[1,0,1,1]",0,48,48,48,1,1,1,,,1,FALSE,,,,,,,,,,,,,,,,,,,,,,,,,,,,,,,
,5f2c79e260e2f703a2196380,627c68f0ef443bb428a08beb,2022-05-11_22h00.09.095,classification_task,2021.2.3,Win32,59.86948452,627c6715c52fd12f31907bcf,,,,,,,,,,,,,,,,,,,,,,,a,0,1.5652,"[""0.040"",""0.211"",""0.471"",""0.598""]","[1,1,1,0]",0,49,49,49,1,1,1,,,1,FALSE,,,,,,,,,,,,,,,,,,,,,,,,,,,,,,,
,5f2c79e260e2f703a2196380,627c68f0ef443bb428a08beb,2022-05-11_22h00.09.095,classification_task,2021.2.3,Win32,59.86948452,627c6715c52fd12f31907bcf,,,,,,,,,,,,,,,,,,,,,,,l,1,1.3022,"[""0.095"",""0.671"",""0.519"",""0.804""]","[1,0,1,1]",0,50,50,50,1,1,0,,,1,FALSE,,,,,,,,,,,,,,,,,,,,,,,,,,,,,,,
,5f2c79e260e2f703a2196380,627c68f0ef443bb428a08beb,2022-05-11_22h00.09.095,classification_task,2021.2.3,Win32,59.86948452,627c6715c52fd12f31907bcf,,,,,,,,,,,,,,,,,,,,,,,l,0,1.2649,"[""0.311"",""0.687"",""0.764"",""0.959""]","[1,0,1,1]",0,51,51,51,1,0,1,,,1,FALSE,,,,,,,,,,,,,,,,,,,,,,,,,,,,,,,
,5f2c79e260e2f703a2196380,627c68f0ef443bb428a08beb,2022-05-11_22h00.09.095,classification_task,2021.2.3,Win32,59.86948452,627c6715c52fd12f31907bcf,,,,,,,,,,,,,,,,,,,,,,,l,0,1.4806,"[""0.251"",""0.170"",""0.849"",""0.906""]","[1,0,1,1]",0,52,52,52,1,0,0,,,1,FALSE,,,,,,,,,,,,,,,,,,,,,,,,,,,,,,,
,5f2c79e260e2f703a2196380,627c68f0ef443bb428a08beb,2022-05-11_22h00.09.095,classification_task,2021.2.3,Win32,59.86948452,627c6715c52fd12f31907bcf,,,,,,,,,,,,,,,,,,,,,,,l,0,1.4055,"[""0.593"",""0.554"",""0.764"",""0.959""]","[0,1,1,1]",0,53,53,53,1,0,1,,,1,FALSE,,,,,,,,,,,,,,,,,,,,,,,,,,,,,,,
,5f2c79e260e2f703a2196380,627c68f0ef443bb428a08beb,2022-05-11_22h00.09.095,classification_task,2021.2.3,Win32,59.86948452,627c6715c52fd12f31907bcf,,,,,,,,,,,,,,,,,,,,,,,l,0,1.2955,"[""0.251"",""0.412"",""0.611"",""0.906""]","[1,1,0,1]",0,54,54,54,1,0,0,,,1,FALSE,,,,,,,,,,,,,,,,,,,,,,,,,,,,,,,
,5f2c79e260e2f703a2196380,627c68f0ef443bb428a08beb,2022-05-11_22h00.09.095,classification_task,2021.2.3,Win32,59.86948452,627c6715c52fd12f31907bcf,,,,,,,,,,,,,,,,,,,,,,,l,0,0.9202,"[""0.598"",""0.412"",""0.849"",""0.906""]","[0,1,1,1]",0,55,55,55,1,0,0,,,1,FALSE,,,,,,,,,,,,,,,,,,,,,,,,,,,,,,,
,5f2c79e260e2f703a2196380,627c68f0ef443bb428a08beb,2022-05-11_22h00.09.095,classification_task,2021.2.3,Win32,59.86948452,627c6715c52fd12f31907bcf,,,,,,,,,,,,,,,,,,,,,,,a,1,1.0629,"[""0.311"",""0.554"",""0.764"",""0.611""]","[1,1,1,0]",0,56,56,56,1,0,1,,,1,FALSE,,,,,,,,,,,,,,,,,,,,,,,,,,,,,,,
,5f2c79e260e2f703a2196380,627c68f0ef443bb428a08beb,2022-05-11_22h00.09.095,classification_task,2021.2.3,Win32,59.86948452,627c6715c52fd12f31907bcf,,,,,,,,,,,,,,,,,,,,,,,a,0,1.4463,"[""0.613"",""0.211"",""0.471"",""0.724""]","[0,1,1,1]",0,57,57,57,1,1,1,,,1,FALSE,,,,,,,,,,,,,,,,,,,,,,,,,,,,,,,
,5f2c79e260e2f703a2196380,627c68f0ef443bb428a08beb,2022-05-11_22h00.09.095,classification_task,2021.2.3,Win32,59.86948452,627c6715c52fd12f31907bcf,,,,,,,,,,,,,,,,,,,,,,,l,1,1.5963,"[""0.095"",""0.359"",""0.519"",""0.671""]","[1,1,1,0]",0,58,58,58,1,1,0,,,1,FALSE,,,,,,,,,,,,,,,,,,,,,,,,,,,,,,,
,5f2c79e260e2f703a2196380,627c68f0ef443bb428a08beb,2022-05-11_22h00.09.095,classification_task,2021.2.3,Win32,59.86948452,627c6715c52fd12f31907bcf,,,,,,,,,,,,,,,,,,,,,,,l,0,1.1542,"[""0.251"",""0.412"",""0.849"",""0.663""]","[1,1,1,0]",0,59,59,59,1,0,0,,,1,FALSE,,,,,,,,,,,,,,,,,,,,,,,,,,,,,,,
,5f2c79e260e2f703a2196380,627c68f0ef443bb428a08beb,2022-05-11_22h00.09.095,classification_task,2021.2.3,Win32,59.86948452,627c6715c52fd12f31907bcf,,,,,,,,,,,,,,,,,,,,,,,l,0,1.3465,"[""0.311"",""0.554"",""0.593"",""0.959""]","[1,1,0,1]",0,60,60,60,1,0,1,,,1,FALSE,,,,,,,,,,,,,,,,,,,,,,,,,,,,,,,
,5f2c79e260e2f703a2196380,627c68f0ef443bb428a08beb,2022-05-11_22h00.09.095,classification_task,2021.2.3,Win32,59.86948452,627c6715c52fd12f31907bcf,,,,,,,,,,,,,,,,,,,,,,,a,0,0.9305,"[""0.040"",""0.211"",""0.687"",""0.724""]","[1,1,0,1]",0,61,61,61,1,1,1,,,1,FALSE,,,,,,,,,,,,,,,,,,,,,,,,,,,,,,,
,5f2c79e260e2f703a2196380,627c68f0ef443bb428a08beb,2022-05-11_22h00.09.095,classification_task,2021.2.3,Win32,59.86948452,627c6715c52fd12f31907bcf,,,,,,,,,,,,,,,,,,,,,,,l,1,0.7969,"[""0.663"",""0.359"",""0.519"",""0.804""]","[0,1,1,1]",0,62,62,62,1,1,0,,,1,FALSE,,,,,,,,,,,,,,,,,,,,,,,,,,,,,,,
,5f2c79e260e2f703a2196380,627c68f0ef443bb428a08beb,2022-05-11_22h00.09.095,classification_task,2021.2.3,Win32,59.86948452,627c6715c52fd12f31907bcf,,,,,,,,,,,,,,,,,,,,,,,l,1,1.0997,"[""0.095"",""0.359"",""0.673"",""0.804""]","[1,1,0,1]",0,63,63,63,1,1,0,,,1,FALSE,,,,,,,,,,,,,,,,,,,,,,,,,,,,,,,
,5f2c79e260e2f703a2196380,627c68f0ef443bb428a08beb,2022-05-11_22h00.09.095,classification_task,2021.2.3,Win32,59.86948452,627c6715c52fd12f31907bcf,,,,,,,,,,,,,,,,,,,,,,,,,,,,,,,,,,,,,,,0, ,,0,8.968253968,172.5387,0,2,2,2,1,2,3,,,,,,,,,,,,,,,,,,
,5f2c79e260e2f703a2196380,627c68f0ef443bb428a08beb,2022-05-11_22h00.09.095,classification_task,2021.2.3,Win32,59.86948452,627c6715c52fd12f31907bcf,,,,,,,,,,,,,,,,,,,,,,,,,,,,,,,,,,,,,,,1,  ,,0,3.701744072,174.9714,0,2,2,2,1,2,3,,,,,,,,,,,,,,,,,,
,5f2c79e260e2f703a2196380,627c68f0ef443bb428a08beb,2022-05-11_22h00.09.095,classification_task,2021.2.3,Win32,59.86948452,627c6715c52fd12f31907bcf,,,,,,,,,,,,,,,,,,,,,,,,,,,,,,,,,,,,,,,2,  ,,0,3.652753282,176.3547,0,2,2,2,1,2,3,,,,,,,,,,,,,,,,,,
,5f2c79e260e2f703a2196380,627c68f0ef443bb428a08beb,2022-05-11_22h00.09.095,classification_task,2021.2.3,Win32,59.86948452,627c6715c52fd12f31907bcf,,,,,,,,,,,,,,,,,,,,,,,,,,,,,,,,,,,,,,,,,,,,,0,2,2,2,1,,3,,,,,,,,,,,,,,,,,,
,5f2c79e260e2f703a2196380,627c68f0ef443bb428a08beb,2022-05-11_22h00.09.095,classification_task,2021.2.3,Win32,59.86948452,627c6715c52fd12f31907bcf,,,,,,,,,,,,,,,,,,,,,,,,,,,,,,,,,,,,,,,,,,,,,,,,,,,,,I believe the aid is a competent performer,,0.7,0,3,850.0846,0,0,0,0,1,0,,,,,
,5f2c79e260e2f703a2196380,627c68f0ef443bb428a08beb,2022-05-11_22h00.09.095,classification_task,2021.2.3,Win32,59.86948452,627c6715c52fd12f31907bcf,,,,,,,,,,,,,,,,,,,,,,,,,,,,,,,,,,,,,,,,,,,,,,,,,,,,,I trust the aid,,0.7,0,4,895.4323,0,0,0,0,1,0,,,,,
,5f2c79e260e2f703a2196380,627c68f0ef443bb428a08beb,2022-05-11_22h00.09.095,classification_task,2021.2.3,Win32,59.86948452,627c6715c52fd12f31907bcf,,,,,,,,,,,,,,,,,,,,,,,,,,,,,,,,,,,,,,,,,,,,,,,,,,,,,I have confidence in the advice given by the aid,,0.7,0,3,856.8547,0,0,0,0,1,0,,,,,
,5f2c79e260e2f703a2196380,627c68f0ef443bb428a08beb,2022-05-11_22h00.09.095,classification_task,2021.2.3,Win32,59.86948452,627c6715c52fd12f31907bcf,,,,,,,,,,,,,,,,,,,,,,,,,,,,,,,,,,,,,,,,,,,,,,,,,,,,,I can depend on the aid,,0.7,0,3,894.617,0,0,0,0,1,0,,,,,
,5f2c79e260e2f703a2196380,627c68f0ef443bb428a08beb,2022-05-11_22h00.09.095,classification_task,2021.2.3,Win32,59.86948452,627c6715c52fd12f31907bcf,,,,,,,,,,,,,,,,,,,,,,,,,,,,,,,,,,,,,,,,,,,,,,,,,,,,,I can rely on the aid to behave in consistent ways,,0.7,0,4,893.5274,0,0,0,0,1,0,,,,,
,5f2c79e260e2f703a2196380,627c68f0ef443bb428a08beb,2022-05-11_22h00.09.095,classification_task,2021.2.3,Win32,59.86948452,627c6715c52fd12f31907bcf,,,,,,,,,,,,,,,,,,,,,,,,,,,,,,,,,,,,,,,,,,,,,,,,,,,,,I can rely on the aid to do its best every time I take its advice,,0.7,0,4,893.0932,0,0,0,0,1,0,,,,,
,5f2c79e260e2f703a2196380,627c68f0ef443bb428a08beb,2022-05-11_22h00.09.095,classification_task,2021.2.3,Win32,59.86948452,627c6715c52fd12f31907bcf,,,,,,,,,,,,,,,,,,,,,,,,,,,,,,,,,,,,,,,,,,,,,,,,,,,,,"On trials you completed with assistance from the aid, how frequently did you think the aid was correct?",,0.7,0,60%,,0,0,0,0,1,0,,,,,
,5f2c79e260e2f703a2196380,627c68f0ef443bb428a08beb,2022-05-11_22h00.09.095,classification_task,2021.2.3,Win32,59.86948452,627c6715c52fd12f31907bcf,,,,,,,,,,,,,,,,,,,,,,,,,,,,,,,,,,,,,,,,,,,,,,,,,,,,,"On trials you completed without the aid, how frequently did you think you were correct?",,0.7,0,40%,,0,0,0,0,1,0,,,,,
,5f2c79e260e2f703a2196380,627c68f0ef443bb428a08beb,2022-05-11_22h00.09.095,classification_task,2021.2.3,Win32,59.86948452,627c6715c52fd12f31907bcf,,,,,,,,,,,,,,,,,,,,,,,,,,,,,,,,,,,,,,,,,,,,,,,,,,,,,,,,,,,0,0,0,0,1,,,,,,
,5f2c79e260e2f703a2196380,627c68f0ef443bb428a08beb,2022-05-11_22h00.09.095,classification_task,2021.2.3,Win32,59.86948452,627c6715c52fd12f31907bcf,,,,,,,,,,,,,,,,,,,,,,,,,,,,,,,,,,,,,,,,,,,,,,,,,,,,,,,,,,,,,,,,,g,9.2702,909.1631,,
,5f2c79e260e2f703a2196380,627c68f0ef443bb428a08beb,2022-05-11_22h00.09.095,classification_task,2021.2.3,Win32,59.86948452,627c6715c52fd12f31907bcf,,,,,,,,,,,,,,,,,,,,,,,,,,,,,,,,,,,,,,,,,,,,,,,,,,,,,,,,,,,,,,,,,,,,"Mozilla/5.0 (Windows NT 10.0; Win64; x64) AppleWebKit/537.36 (KHTML, like Gecko) Chrome/101.0.4951.64 Safari/537.36",
,5f2c79e260e2f703a2196380,627c68f0ef443bb428a08beb,2022-05-11_22h00.09.095,classification_task,2021.2.3,Win32,59.86948452,627c6715c52fd12f31907bcf,,,,,,,,,,,,,,,,,,,,,,,,,,,,,,,,,,,,,,,,,,,,,,,,,,,,,,,,,,,,,,,,,,,,,LOWLIGHT
