usingWebGL,participant,session,date,expName,psychopyVersion,OS,frameRate,PROLIFIC_PID,STUDY_ID,SESSION_ID,signatures_friend,signatures_foe,band_ranges_top,band_ranges_bottom,formitemText,formtype,formundefined,formitemWidth,formindex,formresponse,formrt,key_resp_2.keys,key_resp_2.rt,tute_resp.keys,tute_resp.rt,tutorial.thisRepN,tutorial.thisTrialN,tutorial.thisN,tutorial.thisIndex,tutorial.ran,key_resp_4.keys,key_resp_4.rt,key_resp.keys,key_resp.corr,key_resp.rt,lines_presented,is_signal_presented,trials.thisRepN,trials.thisTrialN,trials.thisN,trials.thisIndex,trials.ran,vessel,active_band,lines,is_signal,supported_pos,catch_trial,debrief_formindex,debrief_formitemText,debrief_formtype,debrief_formitemWidth,debrief_formresponse,debrief_formrt,phases.thisRepN,phases.thisTrialN,phases.thisN,phases.thisIndex,phases.ran,phases.order,phase,key_resp_3.keys,trustitemText,trusttype,trustitemWidth,trustindex,trustresponse,trustrt,support_status.thisRepN,support_status.thisTrialN,support_status.thisN,support_status.thisIndex,support_status.ran,support_status.order,key_resp_5.keys,key_resp_5.rt,globalClockTime,userAgent
TRUE,5f2dc42024e8d80f3be23d05,001,2022-04-28_20h11.10.941,classification_task,2021.2.3,Win32,59.80503558,5f2dc42024e8d80f3be23d05,626b377229c10585ec392f89,626b3ae6d84129424f238cc0,,,,,,,,,,,,,,,,,,,,,,,,,,,,,,,,,,,,,,,,,,,,,,,,,,,,,,,,,,,,,,,,,,,,
,5f2dc42024e8d80f3be23d05,001,2022-04-28_20h11.10.941,classification_task,2021.2.3,Win32,59.80503558,5f2dc42024e8d80f3be23d05,626b377229c10585ec392f89,626b3ae6d84129424f238cc0,"[[""0.218"",""0.414"",""0.737"",""0.968""],[""0.182"",""0.335"",""0.647"",""0.912""]]","[[""0.050"",""0.379"",""0.554"",""0.699""],[""0.085"",""0.121"",""0.506"",""0.796""]]","[1,10]","[100,1000]",Video game experience,,,0.7,0,,,,,,,,,,,,,,,,,,,,,,,,,,,,,,,,,,,,,,,,,,,,,,,,,,,,,,,,,,,
,5f2dc42024e8d80f3be23d05,001,2022-04-28_20h11.10.941,classification_task,2021.2.3,Win32,59.80503558,5f2dc42024e8d80f3be23d05,626b377229c10585ec392f89,626b3ae6d84129424f238cc0,,,,,Approximately how many hours did you spend playing video games in the last week?,,,0.7,0,0,,,,,,,,,,,,,,,,,,,,,,,,,,,,,,,,,,,,,,,,,,,,,,,,,,,,,,,,,,
,5f2dc42024e8d80f3be23d05,001,2022-04-28_20h11.10.941,classification_task,2021.2.3,Win32,59.80503558,5f2dc42024e8d80f3be23d05,626b377229c10585ec392f89,626b3ae6d84129424f238cc0,,,,,"Which game did you play the most this year? (Enter ""None"" if you didn't play any)",,,0.7,0,none,,,,,,,,,,,,,,,,,,,,,,,,,,,,,,,,,,,,,,,,,,,,,,,,,,,,,,,,,,
,5f2dc42024e8d80f3be23d05,001,2022-04-28_20h11.10.941,classification_task,2021.2.3,Win32,59.80503558,5f2dc42024e8d80f3be23d05,626b377229c10585ec392f89,626b3ae6d84129424f238cc0,,,,,Visual perception,,,0.7,0,,,,,,,,,,,,,,,,,,,,,,,,,,,,,,,,,,,,,,,,,,,,,,,,,,,,,,,,,,,
,5f2dc42024e8d80f3be23d05,001,2022-04-28_20h11.10.941,classification_task,2021.2.3,Win32,59.80503558,5f2dc42024e8d80f3be23d05,626b377229c10585ec392f89,626b3ae6d84129424f238cc0,,,,,Do you have any form of color blindness?,,,0.7,0,No,21.6857,,,,,,,,,,,,,,,,,,,,,,,,,,,,,,,,,,,,,,,,,,,,,,,,,,,,,,,,,
,5f2dc42024e8d80f3be23d05,001,2022-04-28_20h11.10.941,classification_task,2021.2.3,Win32,59.80503558,5f2dc42024e8d80f3be23d05,626b377229c10585ec392f89,626b3ae6d84129424f238cc0,,,,,Do you use software to change the colour temperature of your screen (e.g. f.lux)?,,,0.7,0,No,25.0504,,,,,,,,,,,,,,,,,,,,,,,,,,,,,,,,,,,,,,,,,,,,,,,,,,,,,,,,,
,5f2dc42024e8d80f3be23d05,001,2022-04-28_20h11.10.941,classification_task,2021.2.3,Win32,59.80503558,5f2dc42024e8d80f3be23d05,626b377229c10585ec392f89,626b3ae6d84129424f238cc0,,,,,,,,,,,,space,43.1928,space,11.0289,0,0,0,0,1,,,,,,,,,,,,,,,,,,,,,,,,,,,,,,,,,,,,,,,,,,,,,,,,
,5f2dc42024e8d80f3be23d05,001,2022-04-28_20h11.10.941,classification_task,2021.2.3,Win32,59.80503558,5f2dc42024e8d80f3be23d05,626b377229c10585ec392f89,626b3ae6d84129424f238cc0,,,,,,,,,,,,,,space,11.0457,1,0,1,0,1,,,,,,,,,,,,,,,,,,,,,,,,,,,,,,,,,,,,,,,,,,,,,,,,
,5f2dc42024e8d80f3be23d05,001,2022-04-28_20h11.10.941,classification_task,2021.2.3,Win32,59.80503558,5f2dc42024e8d80f3be23d05,626b377229c10585ec392f89,626b3ae6d84129424f238cc0,,,,,,,,,,,,,,space,18.8432,2,0,2,0,1,,,,,,,,,,,,,,,,,,,,,,,,,,,,,,,,,,,,,,,,,,,,,,,,
,5f2dc42024e8d80f3be23d05,001,2022-04-28_20h11.10.941,classification_task,2021.2.3,Win32,59.80503558,5f2dc42024e8d80f3be23d05,626b377229c10585ec392f89,626b3ae6d84129424f238cc0,,,,,,,,,,,,,,space,13.0471,3,0,3,0,1,,,,,,,,,,,,,,,,,,,,,,,,,,,,,,,,,,,,,,,,,,,,,,,,
,5f2dc42024e8d80f3be23d05,001,2022-04-28_20h11.10.941,classification_task,2021.2.3,Win32,59.80503558,5f2dc42024e8d80f3be23d05,626b377229c10585ec392f89,626b3ae6d84129424f238cc0,,,,,,,,,,,,,,space,27.9082,4,0,4,0,1,,,,,,,,,,,,,,,,,,,,,,,,,,,,,,,,,,,,,,,,,,,,,,,,
,5f2dc42024e8d80f3be23d05,001,2022-04-28_20h11.10.941,classification_task,2021.2.3,Win32,59.80503558,5f2dc42024e8d80f3be23d05,626b377229c10585ec392f89,626b3ae6d84129424f238cc0,,,,,,,,,,,,,,,,,,,,,space,20.0843,a,1,9.3612,"[""0.449"",""0.335"",""0.647"",""0.912""]","[0,1,1,1]",0,0,0,0,1,0,1,,,1,FALSE,,,,,,,,,,,,,,,,,,,,,,,,,,,,,,
,5f2dc42024e8d80f3be23d05,001,2022-04-28_20h11.10.941,classification_task,2021.2.3,Win32,59.80503558,5f2dc42024e8d80f3be23d05,626b377229c10585ec392f89,626b3ae6d84129424f238cc0,,,,,,,,,,,,,,,,,,,,,,,a,0,4.5813,"[""0.457"",""0.121"",""0.506"",""0.796""]","[0,1,1,1]",0,1,1,1,1,1,1,,,1,FALSE,,,,,,,,,,,,,,,,,,,,,,,,,,,,,,
,5f2dc42024e8d80f3be23d05,001,2022-04-28_20h11.10.941,classification_task,2021.2.3,Win32,59.80503558,5f2dc42024e8d80f3be23d05,626b377229c10585ec392f89,626b3ae6d84129424f238cc0,,,,,,,,,,,,,,,,,,,,,,,a,1,6.3662,"[""0.182"",""0.335"",""0.647"",""0.288""]","[1,1,1,0]",0,2,2,2,1,0,1,,,1,FALSE,,,,,,,,,,,,,,,,,,,,,,,,,,,,,,
,5f2dc42024e8d80f3be23d05,001,2022-04-28_20h11.10.941,classification_task,2021.2.3,Win32,59.80503558,5f2dc42024e8d80f3be23d05,626b377229c10585ec392f89,626b3ae6d84129424f238cc0,,,,,,,,,,,,,,,,,,,,,,,l,0,6.8411,"[""0.830"",""0.414"",""0.737"",""0.968""]","[0,1,1,1]",0,3,3,3,1,0,0,,,1,FALSE,,,,,,,,,,,,,,,,,,,,,,,,,,,,,,
,5f2dc42024e8d80f3be23d05,001,2022-04-28_20h11.10.941,classification_task,2021.2.3,Win32,59.80503558,5f2dc42024e8d80f3be23d05,626b377229c10585ec392f89,626b3ae6d84129424f238cc0,,,,,,,,,,,,,,,,,,,,,,,a,1,5.3352,"[""0.182"",""0.335"",""0.839"",""0.912""]","[1,1,0,1]",0,4,4,4,1,0,1,,,1,FALSE,,,,,,,,,,,,,,,,,,,,,,,,,,,,,,
,5f2dc42024e8d80f3be23d05,001,2022-04-28_20h11.10.941,classification_task,2021.2.3,Win32,59.80503558,5f2dc42024e8d80f3be23d05,626b377229c10585ec392f89,626b3ae6d84129424f238cc0,,,,,,,,,,,,,,,,,,,,,,,l,0,9.5602,"[""0.218"",""0.414"",""0.599"",""0.968""]","[1,1,0,1]",0,5,5,5,1,0,0,,,1,FALSE,,,,,,,,,,,,,,,,,,,,,,,,,,,,,,
,5f2dc42024e8d80f3be23d05,001,2022-04-28_20h11.10.941,classification_task,2021.2.3,Win32,59.80503558,5f2dc42024e8d80f3be23d05,626b377229c10585ec392f89,626b3ae6d84129424f238cc0,,,,,,,,,,,,,,,,,,,,,,,a,1,5.2809,"[""0.218"",""0.457"",""0.737"",""0.968""]","[1,0,1,1]",0,6,6,6,1,0,0,,,1,FALSE,,,,,,,,,,,,,,,,,,,,,,,,,,,,,,
,5f2dc42024e8d80f3be23d05,001,2022-04-28_20h11.10.941,classification_task,2021.2.3,Win32,59.80503558,5f2dc42024e8d80f3be23d05,626b377229c10585ec392f89,626b3ae6d84129424f238cc0,,,,,,,,,,,,,,,,,,,,,,,a,0,5.5224,"[""0.085"",""0.121"",""0.287"",""0.796""]","[1,1,0,1]",0,7,7,7,1,1,1,,,1,FALSE,,,,,,,,,,,,,,,,,,,,,,,,,,,,,,
,5f2dc42024e8d80f3be23d05,001,2022-04-28_20h11.10.941,classification_task,2021.2.3,Win32,59.80503558,5f2dc42024e8d80f3be23d05,626b377229c10585ec392f89,626b3ae6d84129424f238cc0,,,,,,,,,,,,,,,,,,,,,,,a,0,4.1056,"[""0.050"",""0.830"",""0.554"",""0.699""]","[1,0,1,1]",0,8,8,8,1,1,0,,,1,FALSE,,,,,,,,,,,,,,,,,,,,,,,,,,,,,,
,5f2dc42024e8d80f3be23d05,001,2022-04-28_20h11.10.941,classification_task,2021.2.3,Win32,59.80503558,5f2dc42024e8d80f3be23d05,626b377229c10585ec392f89,626b3ae6d84129424f238cc0,,,,,,,,,,,,,,,,,,,,,,,l,1,3.4888,"[""0.050"",""0.379"",""0.279"",""0.699""]","[1,1,0,1]",0,9,9,9,1,1,0,,,1,FALSE,,,,,,,,,,,,,,,,,,,,,,,,,,,,,,
,5f2dc42024e8d80f3be23d05,001,2022-04-28_20h11.10.941,classification_task,2021.2.3,Win32,59.80503558,5f2dc42024e8d80f3be23d05,626b377229c10585ec392f89,626b3ae6d84129424f238cc0,,,,,,,,,,,,,,,,,,,,,,,a,0,4.2199,"[""0.050"",""0.379"",""0.554"",""0.839""]","[1,1,1,0]",0,10,10,10,1,1,0,,,1,FALSE,,,,,,,,,,,,,,,,,,,,,,,,,,,,,,
,5f2dc42024e8d80f3be23d05,001,2022-04-28_20h11.10.941,classification_task,2021.2.3,Win32,59.80503558,5f2dc42024e8d80f3be23d05,626b377229c10585ec392f89,626b3ae6d84129424f238cc0,,,,,,,,,,,,,,,,,,,,,,,l,0,4.8563,"[""0.218"",""0.414"",""0.737"",""0.255""]","[1,1,1,0]",0,11,11,11,1,0,0,,,1,FALSE,,,,,,,,,,,,,,,,,,,,,,,,,,,,,,
,5f2dc42024e8d80f3be23d05,001,2022-04-28_20h11.10.941,classification_task,2021.2.3,Win32,59.80503558,5f2dc42024e8d80f3be23d05,626b377229c10585ec392f89,626b3ae6d84129424f238cc0,,,,,,,,,,,,,,,,,,,,,,,l,1,1.0879,"[""0.830"",""0.379"",""0.554"",""0.699""]","[0,1,1,1]",0,12,12,12,1,1,0,,,1,FALSE,,,,,,,,,,,,,,,,,,,,,,,,,,,,,,
,5f2dc42024e8d80f3be23d05,001,2022-04-28_20h11.10.941,classification_task,2021.2.3,Win32,59.80503558,5f2dc42024e8d80f3be23d05,626b377229c10585ec392f89,626b3ae6d84129424f238cc0,,,,,,,,,,,,,,,,,,,,,,,a,0,3.7853,"[""0.085"",""0.449"",""0.506"",""0.796""]","[1,0,1,1]",0,13,13,13,1,1,1,,,1,FALSE,,,,,,,,,,,,,,,,,,,,,,,,,,,,,,
,5f2dc42024e8d80f3be23d05,001,2022-04-28_20h11.10.941,classification_task,2021.2.3,Win32,59.80503558,5f2dc42024e8d80f3be23d05,626b377229c10585ec392f89,626b3ae6d84129424f238cc0,,,,,,,,,,,,,,,,,,,,,,,a,0,1.155,"[""0.085"",""0.121"",""0.506"",""0.287""]","[1,1,1,0]",0,14,14,14,1,1,1,,,1,FALSE,,,,,,,,,,,,,,,,,,,,,,,,,,,,,,
,5f2dc42024e8d80f3be23d05,001,2022-04-28_20h11.10.941,classification_task,2021.2.3,Win32,59.80503558,5f2dc42024e8d80f3be23d05,626b377229c10585ec392f89,626b3ae6d84129424f238cc0,,,,,,,,,,,,,,,,,,,,,,,l,0,5.4654,"[""0.182"",""0.288"",""0.647"",""0.912""]","[1,0,1,1]",0,15,15,15,1,0,1,,,1,FALSE,,,,,,,,,,,,,,,,,,,,,,,,,,,,,,
,5f2dc42024e8d80f3be23d05,001,2022-04-28_20h11.10.941,classification_task,2021.2.3,Win32,59.80503558,5f2dc42024e8d80f3be23d05,626b377229c10585ec392f89,626b3ae6d84129424f238cc0,,,,,,,,,,,,,,,,,,,,,,,a,1,3.6214,"[""0.280"",""0.335"",""0.647"",""0.912""]","[0,1,1,1]",0,16,16,16,1,0,1,,,1,FALSE,,,,,,,,,,,,,,,,,,,,,,,,,,,,,,
,5f2dc42024e8d80f3be23d05,001,2022-04-28_20h11.10.941,classification_task,2021.2.3,Win32,59.80503558,5f2dc42024e8d80f3be23d05,626b377229c10585ec392f89,626b3ae6d84129424f238cc0,,,,,,,,,,,,,,,,,,,,,,,a,1,1.5381,"[""0.218"",""0.414"",""0.737"",""0.255""]","[1,1,1,0]",0,17,17,17,1,0,0,,,1,FALSE,,,,,,,,,,,,,,,,,,,,,,,,,,,,,,
,5f2dc42024e8d80f3be23d05,001,2022-04-28_20h11.10.941,classification_task,2021.2.3,Win32,59.80503558,5f2dc42024e8d80f3be23d05,626b377229c10585ec392f89,626b3ae6d84129424f238cc0,,,,,,,,,,,,,,,,,,,,,,,a,1,2.096,"[""0.182"",""0.335"",""0.647"",""0.449""]","[1,1,1,0]",0,18,18,18,1,0,1,,,1,FALSE,,,,,,,,,,,,,,,,,,,,,,,,,,,,,,
,5f2dc42024e8d80f3be23d05,001,2022-04-28_20h11.10.941,classification_task,2021.2.3,Win32,59.80503558,5f2dc42024e8d80f3be23d05,626b377229c10585ec392f89,626b3ae6d84129424f238cc0,,,,,,,,,,,,,,,,,,,,,,,l,1,2.614,"[""0.085"",""0.461"",""0.506"",""0.796""]","[1,0,1,1]",0,19,19,19,1,1,1,,,1,FALSE,,,,,,,,,,,,,,,,,,,,,,,,,,,,,,
,5f2dc42024e8d80f3be23d05,001,2022-04-28_20h11.10.941,classification_task,2021.2.3,Win32,59.80503558,5f2dc42024e8d80f3be23d05,626b377229c10585ec392f89,626b3ae6d84129424f238cc0,,,,,,,,,,,,,,,,,,,,,,,a,0,1.769,"[""0.050"",""0.379"",""0.281"",""0.699""]","[1,1,0,1]",0,20,20,20,1,1,0,,,1,FALSE,,,,,,,,,,,,,,,,,,,,,,,,,,,,,,
,5f2dc42024e8d80f3be23d05,001,2022-04-28_20h11.10.941,classification_task,2021.2.3,Win32,59.80503558,5f2dc42024e8d80f3be23d05,626b377229c10585ec392f89,626b3ae6d84129424f238cc0,,,,,,,,,,,,,,,,,,,,,,,l,0,1.4203,"[""0.182"",""0.830"",""0.647"",""0.912""]","[1,0,1,1]",0,21,21,21,1,0,1,,,1,FALSE,,,,,,,,,,,,,,,,,,,,,,,,,,,,,,
,5f2dc42024e8d80f3be23d05,001,2022-04-28_20h11.10.941,classification_task,2021.2.3,Win32,59.80503558,5f2dc42024e8d80f3be23d05,626b377229c10585ec392f89,626b3ae6d84129424f238cc0,,,,,,,,,,,,,,,,,,,,,,,a,1,3.8211,"[""0.218"",""0.472"",""0.737"",""0.968""]","[1,0,1,1]",0,22,22,22,1,0,0,,,1,FALSE,,,,,,,,,,,,,,,,,,,,,,,,,,,,,,
,5f2dc42024e8d80f3be23d05,001,2022-04-28_20h11.10.941,classification_task,2021.2.3,Win32,59.80503558,5f2dc42024e8d80f3be23d05,626b377229c10585ec392f89,626b3ae6d84129424f238cc0,,,,,,,,,,,,,,,,,,,,,,,a,1,3.6883,"[""0.218"",""0.414"",""0.281"",""0.968""]","[1,1,0,1]",0,23,23,23,1,0,0,,,1,FALSE,,,,,,,,,,,,,,,,,,,,,,,,,,,,,,
,5f2dc42024e8d80f3be23d05,001,2022-04-28_20h11.10.941,classification_task,2021.2.3,Win32,59.80503558,5f2dc42024e8d80f3be23d05,626b377229c10585ec392f89,626b3ae6d84129424f238cc0,,,,,,,,,,,,,,,,,,,,,,,a,0,7.7701,"[""0.050"",""0.457"",""0.554"",""0.699""]","[1,0,1,1]",0,24,24,24,1,1,0,,,1,FALSE,,,,,,,,,,,,,,,,,,,,,,,,,,,,,,
,5f2dc42024e8d80f3be23d05,001,2022-04-28_20h11.10.941,classification_task,2021.2.3,Win32,59.80503558,5f2dc42024e8d80f3be23d05,626b377229c10585ec392f89,626b3ae6d84129424f238cc0,,,,,,,,,,,,,,,,,,,,,,,a,0,6.2469,"[""0.085"",""0.121"",""0.255"",""0.796""]","[1,1,0,1]",0,25,25,25,1,1,1,,,1,FALSE,,,,,,,,,,,,,,,,,,,,,,,,,,,,,,
,5f2dc42024e8d80f3be23d05,001,2022-04-28_20h11.10.941,classification_task,2021.2.3,Win32,59.80503558,5f2dc42024e8d80f3be23d05,626b377229c10585ec392f89,626b3ae6d84129424f238cc0,,,,,,,,,,,,,,,,,,,,,,,l,1,3.5683,"[""0.085"",""0.121"",""0.506"",""0.449""]","[1,1,1,0]",0,26,26,26,1,1,1,,,1,FALSE,,,,,,,,,,,,,,,,,,,,,,,,,,,,,,
,5f2dc42024e8d80f3be23d05,001,2022-04-28_20h11.10.941,classification_task,2021.2.3,Win32,59.80503558,5f2dc42024e8d80f3be23d05,626b377229c10585ec392f89,626b3ae6d84129424f238cc0,,,,,,,,,,,,,,,,,,,,,,,l,0,4.9489,"[""0.287"",""0.414"",""0.737"",""0.968""]","[0,1,1,1]",0,27,27,27,1,0,0,,,1,FALSE,,,,,,,,,,,,,,,,,,,,,,,,,,,,,,
,5f2dc42024e8d80f3be23d05,001,2022-04-28_20h11.10.941,classification_task,2021.2.3,Win32,59.80503558,5f2dc42024e8d80f3be23d05,626b377229c10585ec392f89,626b3ae6d84129424f238cc0,,,,,,,,,,,,,,,,,,,,,,,l,1,6.7914,"[""0.830"",""0.379"",""0.554"",""0.699""]","[0,1,1,1]",0,28,28,28,1,1,0,,,1,FALSE,,,,,,,,,,,,,,,,,,,,,,,,,,,,,,
,5f2dc42024e8d80f3be23d05,001,2022-04-28_20h11.10.941,classification_task,2021.2.3,Win32,59.80503558,5f2dc42024e8d80f3be23d05,626b377229c10585ec392f89,626b3ae6d84129424f238cc0,,,,,,,,,,,,,,,,,,,,,,,a,0,3.3574,"[""0.050"",""0.379"",""0.554"",""0.281""]","[1,1,1,0]",0,29,29,29,1,1,0,,,1,FALSE,,,,,,,,,,,,,,,,,,,,,,,,,,,,,,
,5f2dc42024e8d80f3be23d05,001,2022-04-28_20h11.10.941,classification_task,2021.2.3,Win32,59.80503558,5f2dc42024e8d80f3be23d05,626b377229c10585ec392f89,626b3ae6d84129424f238cc0,,,,,,,,,,,,,,,,,,,,,,,a,0,4.1974,"[""0.287"",""0.121"",""0.506"",""0.796""]","[0,1,1,1]",0,30,30,30,1,1,1,,,1,FALSE,,,,,,,,,,,,,,,,,,,,,,,,,,,,,,
,5f2dc42024e8d80f3be23d05,001,2022-04-28_20h11.10.941,classification_task,2021.2.3,Win32,59.80503558,5f2dc42024e8d80f3be23d05,626b377229c10585ec392f89,626b3ae6d84129424f238cc0,,,,,,,,,,,,,,,,,,,,,,,a,1,5.8084,"[""0.182"",""0.335"",""0.287"",""0.912""]","[1,1,0,1]",0,31,31,31,1,0,1,,,1,FALSE,,,,,,,,,,,,,,,,,,,,,,,,,,,,,,
,5f2dc42024e8d80f3be23d05,001,2022-04-28_20h11.10.941,classification_task,2021.2.3,Win32,59.80503558,5f2dc42024e8d80f3be23d05,626b377229c10585ec392f89,626b3ae6d84129424f238cc0,,,,,,,,,,,,,,,,,,,,,,,a,1,4.7475,"[""0.218"",""0.414"",""0.737"",""0.591""]","[1,1,1,0]",0,32,32,32,1,0,0,,,1,FALSE,,,,,,,,,,,,,,,,,,,,,,,,,,,,,,
,5f2dc42024e8d80f3be23d05,001,2022-04-28_20h11.10.941,classification_task,2021.2.3,Win32,59.80503558,5f2dc42024e8d80f3be23d05,626b377229c10585ec392f89,626b3ae6d84129424f238cc0,,,,,,,,,,,,,,,,,,,,,,,a,0,2.5072,"[""0.050"",""0.379"",""0.461"",""0.699""]","[1,1,0,1]",0,33,33,33,1,1,0,,,1,FALSE,,,,,,,,,,,,,,,,,,,,,,,,,,,,,,
,5f2dc42024e8d80f3be23d05,001,2022-04-28_20h11.10.941,classification_task,2021.2.3,Win32,59.80503558,5f2dc42024e8d80f3be23d05,626b377229c10585ec392f89,626b3ae6d84129424f238cc0,,,,,,,,,,,,,,,,,,,,,,,l,0,2.6033,"[""0.461"",""0.335"",""0.647"",""0.912""]","[0,1,1,1]",0,34,34,34,1,0,1,,,1,FALSE,,,,,,,,,,,,,,,,,,,,,,,,,,,,,,
,5f2dc42024e8d80f3be23d05,001,2022-04-28_20h11.10.941,classification_task,2021.2.3,Win32,59.80503558,5f2dc42024e8d80f3be23d05,626b377229c10585ec392f89,626b3ae6d84129424f238cc0,,,,,,,,,,,,,,,,,,,,,,,l,0,1.6149,"[""0.218"",""0.830"",""0.737"",""0.968""]","[1,0,1,1]",0,35,35,35,1,0,0,,,1,FALSE,,,,,,,,,,,,,,,,,,,,,,,,,,,,,,
,5f2dc42024e8d80f3be23d05,001,2022-04-28_20h11.10.941,classification_task,2021.2.3,Win32,59.80503558,5f2dc42024e8d80f3be23d05,626b377229c10585ec392f89,626b3ae6d84129424f238cc0,,,,,,,,,,,,,,,,,,,,,,,a,0,3.7111,"[""0.279"",""0.121"",""0.506"",""0.796""]","[0,1,1,1]",0,36,36,36,1,1,1,,,1,FALSE,,,,,,,,,,,,,,,,,,,,,,,,,,,,,,
,5f2dc42024e8d80f3be23d05,001,2022-04-28_20h11.10.941,classification_task,2021.2.3,Win32,59.80503558,5f2dc42024e8d80f3be23d05,626b377229c10585ec392f89,626b3ae6d84129424f238cc0,,,,,,,,,,,,,,,,,,,,,,,a,0,2.5706,"[""0.255"",""0.379"",""0.554"",""0.699""]","[0,1,1,1]",0,37,37,37,1,1,0,,,1,FALSE,,,,,,,,,,,,,,,,,,,,,,,,,,,,,,
,5f2dc42024e8d80f3be23d05,001,2022-04-28_20h11.10.941,classification_task,2021.2.3,Win32,59.80503558,5f2dc42024e8d80f3be23d05,626b377229c10585ec392f89,626b3ae6d84129424f238cc0,,,,,,,,,,,,,,,,,,,,,,,a,0,1.386,"[""0.050"",""0.255"",""0.554"",""0.699""]","[1,0,1,1]",0,38,38,38,1,1,0,,,1,FALSE,,,,,,,,,,,,,,,,,,,,,,,,,,,,,,
,5f2dc42024e8d80f3be23d05,001,2022-04-28_20h11.10.941,classification_task,2021.2.3,Win32,59.80503558,5f2dc42024e8d80f3be23d05,626b377229c10585ec392f89,626b3ae6d84129424f238cc0,,,,,,,,,,,,,,,,,,,,,,,l,0,0.6829,"[""0.461"",""0.414"",""0.737"",""0.968""]","[0,1,1,1]",0,39,39,39,1,0,0,,,1,FALSE,,,,,,,,,,,,,,,,,,,,,,,,,,,,,,
,5f2dc42024e8d80f3be23d05,001,2022-04-28_20h11.10.941,classification_task,2021.2.3,Win32,59.80503558,5f2dc42024e8d80f3be23d05,626b377229c10585ec392f89,626b3ae6d84129424f238cc0,,,,,,,,,,,,,,,,,,,,,,,a,0,0.9988,"[""0.050"",""0.379"",""0.554"",""0.281""]","[1,1,1,0]",0,40,40,40,1,1,0,,,1,FALSE,,,,,,,,,,,,,,,,,,,,,,,,,,,,,,
,5f2dc42024e8d80f3be23d05,001,2022-04-28_20h11.10.941,classification_task,2021.2.3,Win32,59.80503558,5f2dc42024e8d80f3be23d05,626b377229c10585ec392f89,626b3ae6d84129424f238cc0,,,,,,,,,,,,,,,,,,,,,,,l,1,1.2482,"[""0.085"",""0.472"",""0.506"",""0.796""]","[1,0,1,1]",0,41,41,41,1,1,1,,,1,FALSE,,,,,,,,,,,,,,,,,,,,,,,,,,,,,,
,5f2dc42024e8d80f3be23d05,001,2022-04-28_20h11.10.941,classification_task,2021.2.3,Win32,59.80503558,5f2dc42024e8d80f3be23d05,626b377229c10585ec392f89,626b3ae6d84129424f238cc0,,,,,,,,,,,,,,,,,,,,,,,a,1,1.0306,"[""0.182"",""0.335"",""0.255"",""0.912""]","[1,1,0,1]",0,42,42,42,1,0,1,,,1,FALSE,,,,,,,,,,,,,,,,,,,,,,,,,,,,,,
,5f2dc42024e8d80f3be23d05,001,2022-04-28_20h11.10.941,classification_task,2021.2.3,Win32,59.80503558,5f2dc42024e8d80f3be23d05,626b377229c10585ec392f89,626b3ae6d84129424f238cc0,,,,,,,,,,,,,,,,,,,,,,,a,0,1.6502,"[""0.085"",""0.121"",""0.457"",""0.796""]","[1,1,0,1]",0,43,43,43,1,1,1,,,1,FALSE,,,,,,,,,,,,,,,,,,,,,,,,,,,,,,
,5f2dc42024e8d80f3be23d05,001,2022-04-28_20h11.10.941,classification_task,2021.2.3,Win32,59.80503558,5f2dc42024e8d80f3be23d05,626b377229c10585ec392f89,626b3ae6d84129424f238cc0,,,,,,,,,,,,,,,,,,,,,,,l,0,1.1881,"[""0.182"",""0.830"",""0.647"",""0.912""]","[1,0,1,1]",0,44,44,44,1,0,1,,,1,FALSE,,,,,,,,,,,,,,,,,,,,,,,,,,,,,,
,5f2dc42024e8d80f3be23d05,001,2022-04-28_20h11.10.941,classification_task,2021.2.3,Win32,59.80503558,5f2dc42024e8d80f3be23d05,626b377229c10585ec392f89,626b3ae6d84129424f238cc0,,,,,,,,,,,,,,,,,,,,,,,l,1,1.4146,"[""0.085"",""0.121"",""0.506"",""0.839""]","[1,1,1,0]",0,45,45,45,1,1,1,,,1,FALSE,,,,,,,,,,,,,,,,,,,,,,,,,,,,,,
,5f2dc42024e8d80f3be23d05,001,2022-04-28_20h11.10.941,classification_task,2021.2.3,Win32,59.80503558,5f2dc42024e8d80f3be23d05,626b377229c10585ec392f89,626b3ae6d84129424f238cc0,,,,,,,,,,,,,,,,,,,,,,,a,1,2.2822,"[""0.182"",""0.335"",""0.647"",""0.255""]","[1,1,1,0]",0,46,46,46,1,0,1,,,1,FALSE,,,,,,,,,,,,,,,,,,,,,,,,,,,,,,
,5f2dc42024e8d80f3be23d05,001,2022-04-28_20h11.10.941,classification_task,2021.2.3,Win32,59.80503558,5f2dc42024e8d80f3be23d05,626b377229c10585ec392f89,626b3ae6d84129424f238cc0,,,,,,,,,,,,,,,,,,,,,,,l,0,1.7244,"[""0.218"",""0.414"",""0.831"",""0.968""]","[1,1,0,1]",0,47,47,47,1,0,0,,,1,FALSE,,,,,,,,,,,,,,,,,,,,,,,,,,,,,,
,5f2dc42024e8d80f3be23d05,001,2022-04-28_20h11.10.941,classification_task,2021.2.3,Win32,59.80503558,5f2dc42024e8d80f3be23d05,626b377229c10585ec392f89,626b3ae6d84129424f238cc0,,,,,,,,,,,,,,,,,,,,,,,l,0,1.0631,"[""0.591"",""0.414"",""0.737"",""0.968""]","[0,1,1,1]",0,48,48,48,1,0,0,,,1,FALSE,,,,,,,,,,,,,,,,,,,,,,,,,,,,,,
,5f2dc42024e8d80f3be23d05,001,2022-04-28_20h11.10.941,classification_task,2021.2.3,Win32,59.80503558,5f2dc42024e8d80f3be23d05,626b377229c10585ec392f89,626b3ae6d84129424f238cc0,,,,,,,,,,,,,,,,,,,,,,,a,1,0.9645,"[""0.182"",""0.335"",""0.831"",""0.912""]","[1,1,0,1]",0,49,49,49,1,0,1,,,1,FALSE,,,,,,,,,,,,,,,,,,,,,,,,,,,,,,
,5f2dc42024e8d80f3be23d05,001,2022-04-28_20h11.10.941,classification_task,2021.2.3,Win32,59.80503558,5f2dc42024e8d80f3be23d05,626b377229c10585ec392f89,626b3ae6d84129424f238cc0,,,,,,,,,,,,,,,,,,,,,,,a,1,2.4468,"[""0.831"",""0.335"",""0.647"",""0.912""]","[0,1,1,1]",0,50,50,50,1,0,1,,,1,FALSE,,,,,,,,,,,,,,,,,,,,,,,,,,,,,,
,5f2dc42024e8d80f3be23d05,001,2022-04-28_20h11.10.941,classification_task,2021.2.3,Win32,59.80503558,5f2dc42024e8d80f3be23d05,626b377229c10585ec392f89,626b3ae6d84129424f238cc0,,,,,,,,,,,,,,,,,,,,,,,a,0,2.2367,"[""0.050"",""0.599"",""0.554"",""0.699""]","[1,0,1,1]",0,51,51,51,1,1,0,,,1,FALSE,,,,,,,,,,,,,,,,,,,,,,,,,,,,,,
,5f2dc42024e8d80f3be23d05,001,2022-04-28_20h11.10.941,classification_task,2021.2.3,Win32,59.80503558,5f2dc42024e8d80f3be23d05,626b377229c10585ec392f89,626b3ae6d84129424f238cc0,,,,,,,,,,,,,,,,,,,,,,,a,0,0.88,"[""0.085"",""0.121"",""0.255"",""0.796""]","[1,1,0,1]",0,52,52,52,1,1,1,,,1,FALSE,,,,,,,,,,,,,,,,,,,,,,,,,,,,,,
,5f2dc42024e8d80f3be23d05,001,2022-04-28_20h11.10.941,classification_task,2021.2.3,Win32,59.80503558,5f2dc42024e8d80f3be23d05,626b377229c10585ec392f89,626b3ae6d84129424f238cc0,,,,,,,,,,,,,,,,,,,,,,,l,1,2.3279,"[""0.050"",""0.379"",""0.472"",""0.699""]","[1,1,0,1]",0,53,53,53,1,1,0,,,1,FALSE,,,,,,,,,,,,,,,,,,,,,,,,,,,,,,
,5f2dc42024e8d80f3be23d05,001,2022-04-28_20h11.10.941,classification_task,2021.2.3,Win32,59.80503558,5f2dc42024e8d80f3be23d05,626b377229c10585ec392f89,626b3ae6d84129424f238cc0,,,,,,,,,,,,,,,,,,,,,,,l,1,2.3245,"[""0.457"",""0.379"",""0.554"",""0.699""]","[0,1,1,1]",0,54,54,54,1,1,0,,,1,FALSE,,,,,,,,,,,,,,,,,,,,,,,,,,,,,,
,5f2dc42024e8d80f3be23d05,001,2022-04-28_20h11.10.941,classification_task,2021.2.3,Win32,59.80503558,5f2dc42024e8d80f3be23d05,626b377229c10585ec392f89,626b3ae6d84129424f238cc0,,,,,,,,,,,,,,,,,,,,,,,a,1,2.2256,"[""0.218"",""0.414"",""0.472"",""0.968""]","[1,1,0,1]",0,55,55,55,1,0,0,,,1,FALSE,,,,,,,,,,,,,,,,,,,,,,,,,,,,,,
,5f2dc42024e8d80f3be23d05,001,2022-04-28_20h11.10.941,classification_task,2021.2.3,Win32,59.80503558,5f2dc42024e8d80f3be23d05,626b377229c10585ec392f89,626b3ae6d84129424f238cc0,,,,,,,,,,,,,,,,,,,,,,,a,0,2.4302,"[""0.085"",""0.591"",""0.506"",""0.796""]","[1,0,1,1]",0,56,56,56,1,1,1,,,1,FALSE,,,,,,,,,,,,,,,,,,,,,,,,,,,,,,
,5f2dc42024e8d80f3be23d05,001,2022-04-28_20h11.10.941,classification_task,2021.2.3,Win32,59.80503558,5f2dc42024e8d80f3be23d05,626b377229c10585ec392f89,626b3ae6d84129424f238cc0,,,,,,,,,,,,,,,,,,,,,,,l,0,1.6072,"[""0.182"",""0.591"",""0.647"",""0.912""]","[1,0,1,1]",0,57,57,57,1,0,1,,,1,FALSE,,,,,,,,,,,,,,,,,,,,,,,,,,,,,,
,5f2dc42024e8d80f3be23d05,001,2022-04-28_20h11.10.941,classification_task,2021.2.3,Win32,59.80503558,5f2dc42024e8d80f3be23d05,626b377229c10585ec392f89,626b3ae6d84129424f238cc0,,,,,,,,,,,,,,,,,,,,,,,l,1,1.6987,"[""0.085"",""0.121"",""0.506"",""0.830""]","[1,1,1,0]",0,58,58,58,1,1,1,,,1,FALSE,,,,,,,,,,,,,,,,,,,,,,,,,,,,,,
,5f2dc42024e8d80f3be23d05,001,2022-04-28_20h11.10.941,classification_task,2021.2.3,Win32,59.80503558,5f2dc42024e8d80f3be23d05,626b377229c10585ec392f89,626b3ae6d84129424f238cc0,,,,,,,,,,,,,,,,,,,,,,,a,1,2.7564,"[""0.218"",""0.461"",""0.737"",""0.968""]","[1,0,1,1]",0,59,59,59,1,0,0,,,1,FALSE,,,,,,,,,,,,,,,,,,,,,,,,,,,,,,
,5f2dc42024e8d80f3be23d05,001,2022-04-28_20h11.10.941,classification_task,2021.2.3,Win32,59.80503558,5f2dc42024e8d80f3be23d05,626b377229c10585ec392f89,626b3ae6d84129424f238cc0,,,,,,,,,,,,,,,,,,,,,,,a,0,4.1377,"[""0.050"",""0.379"",""0.554"",""0.591""]","[1,1,1,0]",0,60,60,60,1,1,0,,,1,FALSE,,,,,,,,,,,,,,,,,,,,,,,,,,,,,,
,5f2dc42024e8d80f3be23d05,001,2022-04-28_20h11.10.941,classification_task,2021.2.3,Win32,59.80503558,5f2dc42024e8d80f3be23d05,626b377229c10585ec392f89,626b3ae6d84129424f238cc0,,,,,,,,,,,,,,,,,,,,,,,l,1,1.6423,"[""0.591"",""0.121"",""0.506"",""0.796""]","[0,1,1,1]",0,61,61,61,1,1,1,,,1,FALSE,,,,,,,,,,,,,,,,,,,,,,,,,,,,,,
,5f2dc42024e8d80f3be23d05,001,2022-04-28_20h11.10.941,classification_task,2021.2.3,Win32,59.80503558,5f2dc42024e8d80f3be23d05,626b377229c10585ec392f89,626b3ae6d84129424f238cc0,,,,,,,,,,,,,,,,,,,,,,,l,0,1.7162,"[""0.182"",""0.335"",""0.647"",""0.839""]","[1,1,1,0]",0,62,62,62,1,0,1,,,1,FALSE,,,,,,,,,,,,,,,,,,,,,,,,,,,,,,
,5f2dc42024e8d80f3be23d05,001,2022-04-28_20h11.10.941,classification_task,2021.2.3,Win32,59.80503558,5f2dc42024e8d80f3be23d05,626b377229c10585ec392f89,626b3ae6d84129424f238cc0,,,,,,,,,,,,,,,,,,,,,,,a,1,1.8398,"[""0.218"",""0.414"",""0.737"",""0.280""]","[1,1,1,0]",0,63,63,63,1,0,0,,,1,FALSE,,,,,,,,,,,,,,,,,,,,,,,,,,,,,,
,5f2dc42024e8d80f3be23d05,001,2022-04-28_20h11.10.941,classification_task,2021.2.3,Win32,59.80503558,5f2dc42024e8d80f3be23d05,626b377229c10585ec392f89,626b3ae6d84129424f238cc0,,,,,,,,,,,,,,,,,,,,,,,,,,,,,,,,,,,,,,,0, ,,0,7.137222828,475.6837,0,0,0,0,1,2,1,,,,,,,,,,,,,,,,,
,5f2dc42024e8d80f3be23d05,001,2022-04-28_20h11.10.941,classification_task,2021.2.3,Win32,59.80503558,5f2dc42024e8d80f3be23d05,626b377229c10585ec392f89,626b3ae6d84129424f238cc0,,,,,,,,,,,,,,,,,,,,,,,,,,,,,,,,,,,,,,,1,  ,,0,7.504653751,487.0968,0,0,0,0,1,2,1,,,,,,,,,,,,,,,,,
,5f2dc42024e8d80f3be23d05,001,2022-04-28_20h11.10.941,classification_task,2021.2.3,Win32,59.80503558,5f2dc42024e8d80f3be23d05,626b377229c10585ec392f89,626b3ae6d84129424f238cc0,,,,,,,,,,,,,,,,,,,,,,,,,,,,,,,,,,,,,,,2,  ,,0,2.066676839,493.6273,0,0,0,0,1,2,1,,,,,,,,,,,,,,,,,
,5f2dc42024e8d80f3be23d05,001,2022-04-28_20h11.10.941,classification_task,2021.2.3,Win32,59.80503558,5f2dc42024e8d80f3be23d05,626b377229c10585ec392f89,626b3ae6d84129424f238cc0,,,,,,,,,,,,,,,,,,,,,,,,,,,,,,,,,,,,,,,,,,,,,0,0,0,0,1,,1,,,,,,,,,,,,,,,,,
,5f2dc42024e8d80f3be23d05,001,2022-04-28_20h11.10.941,classification_task,2021.2.3,Win32,59.80503558,5f2dc42024e8d80f3be23d05,626b377229c10585ec392f89,626b3ae6d84129424f238cc0,,,,,,,,,,,,,,,,,,,,,space,12.1242,a,1,3.358,"[""0.182"",""0.335"",""0.287"",""0.912""]","[1,1,0,1]",0,0,0,0,1,0,1,,,1,FALSE,,,,,,,,,,,,,,,,,,,,,,,,,,,,,,
,5f2dc42024e8d80f3be23d05,001,2022-04-28_20h11.10.941,classification_task,2021.2.3,Win32,59.80503558,5f2dc42024e8d80f3be23d05,626b377229c10585ec392f89,626b3ae6d84129424f238cc0,,,,,,,,,,,,,,,,,,,,,,,a,0,3.1791,"[""0.050"",""0.287"",""0.554"",""0.699""]","[1,0,1,1]",0,1,1,1,1,1,0,,,1,FALSE,,,,,,,,,,,,,,,,,,,,,,,,,,,,,,
,5f2dc42024e8d80f3be23d05,001,2022-04-28_20h11.10.941,classification_task,2021.2.3,Win32,59.80503558,5f2dc42024e8d80f3be23d05,626b377229c10585ec392f89,626b3ae6d84129424f238cc0,,,,,,,,,,,,,,,,,,,,,,,l,1,1.5634,"[""0.085"",""0.121"",""0.472"",""0.796""]","[1,1,0,1]",0,2,2,2,1,1,1,,,1,FALSE,,,,,,,,,,,,,,,,,,,,,,,,,,,,,,
,5f2dc42024e8d80f3be23d05,001,2022-04-28_20h11.10.941,classification_task,2021.2.3,Win32,59.80503558,5f2dc42024e8d80f3be23d05,626b377229c10585ec392f89,626b3ae6d84129424f238cc0,,,,,,,,,,,,,,,,,,,,,,,l,0,1.3634,"[""0.218"",""0.280"",""0.737"",""0.968""]","[1,0,1,1]",0,3,3,3,1,0,0,,,1,FALSE,,,,,,,,,,,,,,,,,,,,,,,,,,,,,,
,5f2dc42024e8d80f3be23d05,001,2022-04-28_20h11.10.941,classification_task,2021.2.3,Win32,59.80503558,5f2dc42024e8d80f3be23d05,626b377229c10585ec392f89,626b3ae6d84129424f238cc0,,,,,,,,,,,,,,,,,,,,,,,a,0,2.3604,"[""0.050"",""0.379"",""0.287"",""0.699""]","[1,1,0,1]",0,4,4,4,1,1,0,,,1,FALSE,,,,,,,,,,,,,,,,,,,,,,,,,,,,,,
,5f2dc42024e8d80f3be23d05,001,2022-04-28_20h11.10.941,classification_task,2021.2.3,Win32,59.80503558,5f2dc42024e8d80f3be23d05,626b377229c10585ec392f89,626b3ae6d84129424f238cc0,,,,,,,,,,,,,,,,,,,,,,,a,1,3.3324,"[""0.449"",""0.335"",""0.647"",""0.912""]","[0,1,1,1]",0,5,5,5,1,0,1,,,1,FALSE,,,,,,,,,,,,,,,,,,,,,,,,,,,,,,
,5f2dc42024e8d80f3be23d05,001,2022-04-28_20h11.10.941,classification_task,2021.2.3,Win32,59.80503558,5f2dc42024e8d80f3be23d05,626b377229c10585ec392f89,626b3ae6d84129424f238cc0,,,,,,,,,,,,,,,,,,,,,,,a,1,1.0973,"[""0.461"",""0.414"",""0.737"",""0.968""]","[0,1,1,1]",0,6,6,6,1,0,0,,,1,FALSE,,,,,,,,,,,,,,,,,,,,,,,,,,,,,,
,5f2dc42024e8d80f3be23d05,001,2022-04-28_20h11.10.941,classification_task,2021.2.3,Win32,59.80503558,5f2dc42024e8d80f3be23d05,626b377229c10585ec392f89,626b3ae6d84129424f238cc0,,,,,,,,,,,,,,,,,,,,,,,a,0,2.4138,"[""0.050"",""0.379"",""0.554"",""0.830""]","[1,1,1,0]",0,7,7,7,1,1,0,,,1,FALSE,,,,,,,,,,,,,,,,,,,,,,,,,,,,,,
,5f2dc42024e8d80f3be23d05,001,2022-04-28_20h11.10.941,classification_task,2021.2.3,Win32,59.80503558,5f2dc42024e8d80f3be23d05,626b377229c10585ec392f89,626b3ae6d84129424f238cc0,,,,,,,,,,,,,,,,,,,,,,,a,1,2.9706,"[""0.182"",""0.839"",""0.647"",""0.912""]","[1,0,1,1]",0,8,8,8,1,0,1,,,1,FALSE,,,,,,,,,,,,,,,,,,,,,,,,,,,,,,
,5f2dc42024e8d80f3be23d05,001,2022-04-28_20h11.10.941,classification_task,2021.2.3,Win32,59.80503558,5f2dc42024e8d80f3be23d05,626b377229c10585ec392f89,626b3ae6d84129424f238cc0,,,,,,,,,,,,,,,,,,,,,,,l,1,0.8039,"[""0.085"",""0.255"",""0.506"",""0.796""]","[1,0,1,1]",0,9,9,9,1,1,1,,,1,FALSE,,,,,,,,,,,,,,,,,,,,,,,,,,,,,,
,5f2dc42024e8d80f3be23d05,001,2022-04-28_20h11.10.941,classification_task,2021.2.3,Win32,59.80503558,5f2dc42024e8d80f3be23d05,626b377229c10585ec392f89,626b3ae6d84129424f238cc0,,,,,,,,,,,,,,,,,,,,,,,l,1,1.3661,"[""0.599"",""0.379"",""0.554"",""0.699""]","[0,1,1,1]",0,10,10,10,1,1,0,,,1,FALSE,,,,,,,,,,,,,,,,,,,,,,,,,,,,,,
,5f2dc42024e8d80f3be23d05,001,2022-04-28_20h11.10.941,classification_task,2021.2.3,Win32,59.80503558,5f2dc42024e8d80f3be23d05,626b377229c10585ec392f89,626b3ae6d84129424f238cc0,,,,,,,,,,,,,,,,,,,,,,,l,0,1.7653,"[""0.218"",""0.414"",""0.737"",""0.281""]","[1,1,1,0]",0,11,11,11,1,0,0,,,1,FALSE,,,,,,,,,,,,,,,,,,,,,,,,,,,,,,
,5f2dc42024e8d80f3be23d05,001,2022-04-28_20h11.10.941,classification_task,2021.2.3,Win32,59.80503558,5f2dc42024e8d80f3be23d05,626b377229c10585ec392f89,626b3ae6d84129424f238cc0,,,,,,,,,,,,,,,,,,,,,,,a,1,1.0465,"[""0.218"",""0.414"",""0.280"",""0.968""]","[1,1,0,1]",0,12,12,12,1,0,0,,,1,FALSE,,,,,,,,,,,,,,,,,,,,,,,,,,,,,,
,5f2dc42024e8d80f3be23d05,001,2022-04-28_20h11.10.941,classification_task,2021.2.3,Win32,59.80503558,5f2dc42024e8d80f3be23d05,626b377229c10585ec392f89,626b3ae6d84129424f238cc0,,,,,,,,,,,,,,,,,,,,,,,l,1,0.8831,"[""0.281"",""0.121"",""0.506"",""0.796""]","[0,1,1,1]",0,13,13,13,1,1,1,,,1,FALSE,,,,,,,,,,,,,,,,,,,,,,,,,,,,,,
,5f2dc42024e8d80f3be23d05,001,2022-04-28_20h11.10.941,classification_task,2021.2.3,Win32,59.80503558,5f2dc42024e8d80f3be23d05,626b377229c10585ec392f89,626b3ae6d84129424f238cc0,,,,,,,,,,,,,,,,,,,,,,,l,1,0.8156,"[""0.085"",""0.121"",""0.506"",""0.599""]","[1,1,1,0]",0,14,14,14,1,1,1,,,1,FALSE,,,,,,,,,,,,,,,,,,,,,,,,,,,,,,
,5f2dc42024e8d80f3be23d05,001,2022-04-28_20h11.10.941,classification_task,2021.2.3,Win32,59.80503558,5f2dc42024e8d80f3be23d05,626b377229c10585ec392f89,626b3ae6d84129424f238cc0,,,,,,,,,,,,,,,,,,,,,,,a,1,0.6304,"[""0.182"",""0.335"",""0.647"",""0.472""]","[1,1,1,0]",0,15,15,15,1,0,1,,,1,FALSE,,,,,,,,,,,,,,,,,,,,,,,,,,,,,,
,5f2dc42024e8d80f3be23d05,001,2022-04-28_20h11.10.941,classification_task,2021.2.3,Win32,59.80503558,5f2dc42024e8d80f3be23d05,626b377229c10585ec392f89,626b3ae6d84129424f238cc0,,,,,,,,,,,,,,,,,,,,,,,l,1,0.6806,"[""0.085"",""0.121"",""0.506"",""0.599""]","[1,1,1,0]",0,16,16,16,1,1,1,,,1,FALSE,,,,,,,,,,,,,,,,,,,,,,,,,,,,,,
,5f2dc42024e8d80f3be23d05,001,2022-04-28_20h11.10.941,classification_task,2021.2.3,Win32,59.80503558,5f2dc42024e8d80f3be23d05,626b377229c10585ec392f89,626b3ae6d84129424f238cc0,,,,,,,,,,,,,,,,,,,,,,,l,1,0.9635,"[""0.085"",""0.255"",""0.506"",""0.796""]","[1,0,1,1]",0,17,17,17,1,1,1,,,1,FALSE,,,,,,,,,,,,,,,,,,,,,,,,,,,,,,
,5f2dc42024e8d80f3be23d05,001,2022-04-28_20h11.10.941,classification_task,2021.2.3,Win32,59.80503558,5f2dc42024e8d80f3be23d05,626b377229c10585ec392f89,626b3ae6d84129424f238cc0,,,,,,,,,,,,,,,,,,,,,,,a,1,0.5819,"[""0.182"",""0.335"",""0.647"",""0.280""]","[1,1,1,0]",0,18,18,18,1,0,1,,,1,FALSE,,,,,,,,,,,,,,,,,,,,,,,,,,,,,,
,5f2dc42024e8d80f3be23d05,001,2022-04-28_20h11.10.941,classification_task,2021.2.3,Win32,59.80503558,5f2dc42024e8d80f3be23d05,626b377229c10585ec392f89,626b3ae6d84129424f238cc0,,,,,,,,,,,,,,,,,,,,,,,a,0,1.7527,"[""0.050"",""0.379"",""0.554"",""0.281""]","[1,1,1,0]",0,19,19,19,1,1,0,,,1,FALSE,,,,,,,,,,,,,,,,,,,,,,,,,,,,,,
,5f2dc42024e8d80f3be23d05,001,2022-04-28_20h11.10.941,classification_task,2021.2.3,Win32,59.80503558,5f2dc42024e8d80f3be23d05,626b377229c10585ec392f89,626b3ae6d84129424f238cc0,,,,,,,,,,,,,,,,,,,,,,,a,1,1.0279,"[""0.218"",""0.414"",""0.839"",""0.968""]","[1,1,0,1]",0,20,20,20,1,0,0,,,1,FALSE,,,,,,,,,,,,,,,,,,,,,,,,,,,,,,
,5f2dc42024e8d80f3be23d05,001,2022-04-28_20h11.10.941,classification_task,2021.2.3,Win32,59.80503558,5f2dc42024e8d80f3be23d05,626b377229c10585ec392f89,626b3ae6d84129424f238cc0,,,,,,,,,,,,,,,,,,,,,,,l,1,0.6521,"[""0.085"",""0.121"",""0.280"",""0.796""]","[1,1,0,1]",0,21,21,21,1,1,1,,,1,FALSE,,,,,,,,,,,,,,,,,,,,,,,,,,,,,,
,5f2dc42024e8d80f3be23d05,001,2022-04-28_20h11.10.941,classification_task,2021.2.3,Win32,59.80503558,5f2dc42024e8d80f3be23d05,626b377229c10585ec392f89,626b3ae6d84129424f238cc0,,,,,,,,,,,,,,,,,,,,,,,l,0,1.2494,"[""0.218"",""0.414"",""0.737"",""0.288""]","[1,1,1,0]",0,22,22,22,1,0,0,,,1,FALSE,,,,,,,,,,,,,,,,,,,,,,,,,,,,,,
,5f2dc42024e8d80f3be23d05,001,2022-04-28_20h11.10.941,classification_task,2021.2.3,Win32,59.80503558,5f2dc42024e8d80f3be23d05,626b377229c10585ec392f89,626b3ae6d84129424f238cc0,,,,,,,,,,,,,,,,,,,,,,,a,1,0.7622,"[""0.830"",""0.335"",""0.647"",""0.912""]","[0,1,1,1]",0,23,23,23,1,0,1,,,1,FALSE,,,,,,,,,,,,,,,,,,,,,,,,,,,,,,
,5f2dc42024e8d80f3be23d05,001,2022-04-28_20h11.10.941,classification_task,2021.2.3,Win32,59.80503558,5f2dc42024e8d80f3be23d05,626b377229c10585ec392f89,626b3ae6d84129424f238cc0,,,,,,,,,,,,,,,,,,,,,,,a,1,0.647,"[""0.182"",""0.335"",""0.830"",""0.912""]","[1,1,0,1]",0,24,24,24,1,0,1,,,1,FALSE,,,,,,,,,,,,,,,,,,,,,,,,,,,,,,
,5f2dc42024e8d80f3be23d05,001,2022-04-28_20h11.10.941,classification_task,2021.2.3,Win32,59.80503558,5f2dc42024e8d80f3be23d05,626b377229c10585ec392f89,626b3ae6d84129424f238cc0,,,,,,,,,,,,,,,,,,,,,,,l,0,1.218,"[""0.591"",""0.414"",""0.737"",""0.968""]","[0,1,1,1]",0,25,25,25,1,0,0,,,1,FALSE,,,,,,,,,,,,,,,,,,,,,,,,,,,,,,
,5f2dc42024e8d80f3be23d05,001,2022-04-28_20h11.10.941,classification_task,2021.2.3,Win32,59.80503558,5f2dc42024e8d80f3be23d05,626b377229c10585ec392f89,626b3ae6d84129424f238cc0,,,,,,,,,,,,,,,,,,,,,,,a,0,1.5315,"[""0.457"",""0.379"",""0.554"",""0.699""]","[0,1,1,1]",0,26,26,26,1,1,0,,,1,FALSE,,,,,,,,,,,,,,,,,,,,,,,,,,,,,,
,5f2dc42024e8d80f3be23d05,001,2022-04-28_20h11.10.941,classification_task,2021.2.3,Win32,59.80503558,5f2dc42024e8d80f3be23d05,626b377229c10585ec392f89,626b3ae6d84129424f238cc0,,,,,,,,,,,,,,,,,,,,,,,a,0,0.8795,"[""0.050"",""0.379"",""0.591"",""0.699""]","[1,1,0,1]",0,27,27,27,1,1,0,,,1,FALSE,,,,,,,,,,,,,,,,,,,,,,,,,,,,,,
,5f2dc42024e8d80f3be23d05,001,2022-04-28_20h11.10.941,classification_task,2021.2.3,Win32,59.80503558,5f2dc42024e8d80f3be23d05,626b377229c10585ec392f89,626b3ae6d84129424f238cc0,,,,,,,,,,,,,,,,,,,,,,,a,1,0.673,"[""0.182"",""0.830"",""0.647"",""0.912""]","[1,0,1,1]",0,28,28,28,1,0,1,,,1,FALSE,,,,,,,,,,,,,,,,,,,,,,,,,,,,,,
,5f2dc42024e8d80f3be23d05,001,2022-04-28_20h11.10.941,classification_task,2021.2.3,Win32,59.80503558,5f2dc42024e8d80f3be23d05,626b377229c10585ec392f89,626b3ae6d84129424f238cc0,,,,,,,,,,,,,,,,,,,,,,,a,1,1.5357,"[""0.218"",""0.472"",""0.737"",""0.968""]","[1,0,1,1]",0,29,29,29,1,0,0,,,1,FALSE,,,,,,,,,,,,,,,,,,,,,,,,,,,,,,
,5f2dc42024e8d80f3be23d05,001,2022-04-28_20h11.10.941,classification_task,2021.2.3,Win32,59.80503558,5f2dc42024e8d80f3be23d05,626b377229c10585ec392f89,626b3ae6d84129424f238cc0,,,,,,,,,,,,,,,,,,,,,,,l,1,0.6528,"[""0.457"",""0.121"",""0.506"",""0.796""]","[0,1,1,1]",0,30,30,30,1,1,1,,,1,FALSE,,,,,,,,,,,,,,,,,,,,,,,,,,,,,,
,5f2dc42024e8d80f3be23d05,001,2022-04-28_20h11.10.941,classification_task,2021.2.3,Win32,59.80503558,5f2dc42024e8d80f3be23d05,626b377229c10585ec392f89,626b3ae6d84129424f238cc0,,,,,,,,,,,,,,,,,,,,,,,l,1,1.1862,"[""0.050"",""0.461"",""0.554"",""0.699""]","[1,0,1,1]",0,31,31,31,1,1,0,,,1,FALSE,,,,,,,,,,,,,,,,,,,,,,,,,,,,,,
,5f2dc42024e8d80f3be23d05,001,2022-04-28_20h11.10.941,classification_task,2021.2.3,Win32,59.80503558,5f2dc42024e8d80f3be23d05,626b377229c10585ec392f89,626b3ae6d84129424f238cc0,,,,,,,,,,,,,,,,,,,,,,,l,0,1.1807,"[""0.281"",""0.414"",""0.737"",""0.968""]","[0,1,1,1]",0,32,32,32,1,0,0,,,1,FALSE,,,,,,,,,,,,,,,,,,,,,,,,,,,,,,
,5f2dc42024e8d80f3be23d05,001,2022-04-28_20h11.10.941,classification_task,2021.2.3,Win32,59.80503558,5f2dc42024e8d80f3be23d05,626b377229c10585ec392f89,626b3ae6d84129424f238cc0,,,,,,,,,,,,,,,,,,,,,,,a,0,1.0112,"[""0.050"",""0.379"",""0.255"",""0.699""]","[1,1,0,1]",0,33,33,33,1,1,0,,,1,FALSE,,,,,,,,,,,,,,,,,,,,,,,,,,,,,,
,5f2dc42024e8d80f3be23d05,001,2022-04-28_20h11.10.941,classification_task,2021.2.3,Win32,59.80503558,5f2dc42024e8d80f3be23d05,626b377229c10585ec392f89,626b3ae6d84129424f238cc0,,,,,,,,,,,,,,,,,,,,,,,a,1,0.6417,"[""0.182"",""0.839"",""0.647"",""0.912""]","[1,0,1,1]",0,34,34,34,1,0,1,,,1,FALSE,,,,,,,,,,,,,,,,,,,,,,,,,,,,,,
,5f2dc42024e8d80f3be23d05,001,2022-04-28_20h11.10.941,classification_task,2021.2.3,Win32,59.80503558,5f2dc42024e8d80f3be23d05,626b377229c10585ec392f89,626b3ae6d84129424f238cc0,,,,,,,,,,,,,,,,,,,,,,,a,0,0.6702,"[""0.050"",""0.281"",""0.554"",""0.699""]","[1,0,1,1]",0,35,35,35,1,1,0,,,1,FALSE,,,,,,,,,,,,,,,,,,,,,,,,,,,,,,
,5f2dc42024e8d80f3be23d05,001,2022-04-28_20h11.10.941,classification_task,2021.2.3,Win32,59.80503558,5f2dc42024e8d80f3be23d05,626b377229c10585ec392f89,626b3ae6d84129424f238cc0,,,,,,,,,,,,,,,,,,,,,,,a,1,0.9956,"[""0.218"",""0.414"",""0.830"",""0.968""]","[1,1,0,1]",0,36,36,36,1,0,0,,,1,FALSE,,,,,,,,,,,,,,,,,,,,,,,,,,,,,,
,5f2dc42024e8d80f3be23d05,001,2022-04-28_20h11.10.941,classification_task,2021.2.3,Win32,59.80503558,5f2dc42024e8d80f3be23d05,626b377229c10585ec392f89,626b3ae6d84129424f238cc0,,,,,,,,,,,,,,,,,,,,,,,a,1,0.9513,"[""0.182"",""0.335"",""0.647"",""0.457""]","[1,1,1,0]",0,37,37,37,1,0,1,,,1,FALSE,,,,,,,,,,,,,,,,,,,,,,,,,,,,,,
,5f2dc42024e8d80f3be23d05,001,2022-04-28_20h11.10.941,classification_task,2021.2.3,Win32,59.80503558,5f2dc42024e8d80f3be23d05,626b377229c10585ec392f89,626b3ae6d84129424f238cc0,,,,,,,,,,,,,,,,,,,,,,,l,1,0.662,"[""0.085"",""0.461"",""0.506"",""0.796""]","[1,0,1,1]",0,38,38,38,1,1,1,,,1,FALSE,,,,,,,,,,,,,,,,,,,,,,,,,,,,,,
,5f2dc42024e8d80f3be23d05,001,2022-04-28_20h11.10.941,classification_task,2021.2.3,Win32,59.80503558,5f2dc42024e8d80f3be23d05,626b377229c10585ec392f89,626b3ae6d84129424f238cc0,,,,,,,,,,,,,,,,,,,,,,,l,1,1.5067,"[""0.050"",""0.379"",""0.554"",""0.449""]","[1,1,1,0]",0,39,39,39,1,1,0,,,1,FALSE,,,,,,,,,,,,,,,,,,,,,,,,,,,,,,
,5f2dc42024e8d80f3be23d05,001,2022-04-28_20h11.10.941,classification_task,2021.2.3,Win32,59.80503558,5f2dc42024e8d80f3be23d05,626b377229c10585ec392f89,626b3ae6d84129424f238cc0,,,,,,,,,,,,,,,,,,,,,,,l,1,0.7697,"[""0.085"",""0.121"",""0.506"",""0.591""]","[1,1,1,0]",0,40,40,40,1,1,1,,,1,FALSE,,,,,,,,,,,,,,,,,,,,,,,,,,,,,,
,5f2dc42024e8d80f3be23d05,001,2022-04-28_20h11.10.941,classification_task,2021.2.3,Win32,59.80503558,5f2dc42024e8d80f3be23d05,626b377229c10585ec392f89,626b3ae6d84129424f238cc0,,,,,,,,,,,,,,,,,,,,,,,l,1,0.6639,"[""0.085"",""0.121"",""0.255"",""0.796""]","[1,1,0,1]",0,41,41,41,1,1,1,,,1,FALSE,,,,,,,,,,,,,,,,,,,,,,,,,,,,,,
,5f2dc42024e8d80f3be23d05,001,2022-04-28_20h11.10.941,classification_task,2021.2.3,Win32,59.80503558,5f2dc42024e8d80f3be23d05,626b377229c10585ec392f89,626b3ae6d84129424f238cc0,,,,,,,,,,,,,,,,,,,,,,,l,0,0.7731,"[""0.218"",""0.279"",""0.737"",""0.968""]","[1,0,1,1]",0,42,42,42,1,0,0,,,1,FALSE,,,,,,,,,,,,,,,,,,,,,,,,,,,,,,
,5f2dc42024e8d80f3be23d05,001,2022-04-28_20h11.10.941,classification_task,2021.2.3,Win32,59.80503558,5f2dc42024e8d80f3be23d05,626b377229c10585ec392f89,626b3ae6d84129424f238cc0,,,,,,,,,,,,,,,,,,,,,,,a,1,0.6158,"[""0.830"",""0.335"",""0.647"",""0.912""]","[0,1,1,1]",0,43,43,43,1,0,1,,,1,FALSE,,,,,,,,,,,,,,,,,,,,,,,,,,,,,,
,5f2dc42024e8d80f3be23d05,001,2022-04-28_20h11.10.941,classification_task,2021.2.3,Win32,59.80503558,5f2dc42024e8d80f3be23d05,626b377229c10585ec392f89,626b3ae6d84129424f238cc0,,,,,,,,,,,,,,,,,,,,,,,a,1,0.5837,"[""0.182"",""0.335"",""0.839"",""0.912""]","[1,1,0,1]",0,44,44,44,1,0,1,,,1,FALSE,,,,,,,,,,,,,,,,,,,,,,,,,,,,,,
,5f2dc42024e8d80f3be23d05,001,2022-04-28_20h11.10.941,classification_task,2021.2.3,Win32,59.80503558,5f2dc42024e8d80f3be23d05,626b377229c10585ec392f89,626b3ae6d84129424f238cc0,,,,,,,,,,,,,,,,,,,,,,,l,1,0.8128,"[""0.280"",""0.379"",""0.554"",""0.699""]","[0,1,1,1]",0,45,45,45,1,1,0,,,1,FALSE,,,,,,,,,,,,,,,,,,,,,,,,,,,,,,
,5f2dc42024e8d80f3be23d05,001,2022-04-28_20h11.10.941,classification_task,2021.2.3,Win32,59.80503558,5f2dc42024e8d80f3be23d05,626b377229c10585ec392f89,626b3ae6d84129424f238cc0,,,,,,,,,,,,,,,,,,,,,,,a,1,1.0482,"[""0.218"",""0.414"",""0.737"",""0.830""]","[1,1,1,0]",0,46,46,46,1,0,0,,,1,FALSE,,,,,,,,,,,,,,,,,,,,,,,,,,,,,,
,5f2dc42024e8d80f3be23d05,001,2022-04-28_20h11.10.941,classification_task,2021.2.3,Win32,59.80503558,5f2dc42024e8d80f3be23d05,626b377229c10585ec392f89,626b3ae6d84129424f238cc0,,,,,,,,,,,,,,,,,,,,,,,l,1,0.6546,"[""0.831"",""0.121"",""0.506"",""0.796""]","[0,1,1,1]",0,47,47,47,1,1,1,,,1,FALSE,,,,,,,,,,,,,,,,,,,,,,,,,,,,,,
,5f2dc42024e8d80f3be23d05,001,2022-04-28_20h11.10.941,classification_task,2021.2.3,Win32,59.80503558,5f2dc42024e8d80f3be23d05,626b377229c10585ec392f89,626b3ae6d84129424f238cc0,,,,,,,,,,,,,,,,,,,,,,,a,1,0.5632,"[""0.182"",""0.335"",""0.647"",""0.279""]","[1,1,1,0]",0,48,48,48,1,0,1,,,1,FALSE,,,,,,,,,,,,,,,,,,,,,,,,,,,,,,
,5f2dc42024e8d80f3be23d05,001,2022-04-28_20h11.10.941,classification_task,2021.2.3,Win32,59.80503558,5f2dc42024e8d80f3be23d05,626b377229c10585ec392f89,626b3ae6d84129424f238cc0,,,,,,,,,,,,,,,,,,,,,,,l,0,0.6799,"[""0.218"",""0.255"",""0.737"",""0.968""]","[1,0,1,1]",0,49,49,49,1,0,0,,,1,FALSE,,,,,,,,,,,,,,,,,,,,,,,,,,,,,,
,5f2dc42024e8d80f3be23d05,001,2022-04-28_20h11.10.941,classification_task,2021.2.3,Win32,59.80503558,5f2dc42024e8d80f3be23d05,626b377229c10585ec392f89,626b3ae6d84129424f238cc0,,,,,,,,,,,,,,,,,,,,,,,l,1,0.7243,"[""0.085"",""0.121"",""0.506"",""0.457""]","[1,1,1,0]",0,50,50,50,1,1,1,,,1,FALSE,,,,,,,,,,,,,,,,,,,,,,,,,,,,,,
,5f2dc42024e8d80f3be23d05,001,2022-04-28_20h11.10.941,classification_task,2021.2.3,Win32,59.80503558,5f2dc42024e8d80f3be23d05,626b377229c10585ec392f89,626b3ae6d84129424f238cc0,,,,,,,,,,,,,,,,,,,,,,,l,1,0.5787,"[""0.085"",""0.287"",""0.506"",""0.796""]","[1,0,1,1]",0,51,51,51,1,1,1,,,1,FALSE,,,,,,,,,,,,,,,,,,,,,,,,,,,,,,
,5f2dc42024e8d80f3be23d05,001,2022-04-28_20h11.10.941,classification_task,2021.2.3,Win32,59.80503558,5f2dc42024e8d80f3be23d05,626b377229c10585ec392f89,626b3ae6d84129424f238cc0,,,,,,,,,,,,,,,,,,,,,,,a,0,0.7709,"[""0.449"",""0.379"",""0.554"",""0.699""]","[0,1,1,1]",0,52,52,52,1,1,0,,,1,FALSE,,,,,,,,,,,,,,,,,,,,,,,,,,,,,,
,5f2dc42024e8d80f3be23d05,001,2022-04-28_20h11.10.941,classification_task,2021.2.3,Win32,59.80503558,5f2dc42024e8d80f3be23d05,626b377229c10585ec392f89,626b3ae6d84129424f238cc0,,,,,,,,,,,,,,,,,,,,,,,l,1,0.5615,"[""0.050"",""0.379"",""0.554"",""0.461""]","[1,1,1,0]",0,53,53,53,1,1,0,,,1,FALSE,,,,,,,,,,,,,,,,,,,,,,,,,,,,,,
,5f2dc42024e8d80f3be23d05,001,2022-04-28_20h11.10.941,classification_task,2021.2.3,Win32,59.80503558,5f2dc42024e8d80f3be23d05,626b377229c10585ec392f89,626b3ae6d84129424f238cc0,,,,,,,,,,,,,,,,,,,,,,,l,0,0.7307,"[""0.218"",""0.414"",""0.830"",""0.968""]","[1,1,0,1]",0,54,54,54,1,0,0,,,1,FALSE,,,,,,,,,,,,,,,,,,,,,,,,,,,,,,
,5f2dc42024e8d80f3be23d05,001,2022-04-28_20h11.10.941,classification_task,2021.2.3,Win32,59.80503558,5f2dc42024e8d80f3be23d05,626b377229c10585ec392f89,626b3ae6d84129424f238cc0,,,,,,,,,,,,,,,,,,,,,,,a,0,1.0643,"[""0.050"",""0.472"",""0.554"",""0.699""]","[1,0,1,1]",0,55,55,55,1,1,0,,,1,FALSE,,,,,,,,,,,,,,,,,,,,,,,,,,,,,,
,5f2dc42024e8d80f3be23d05,001,2022-04-28_20h11.10.941,classification_task,2021.2.3,Win32,59.80503558,5f2dc42024e8d80f3be23d05,626b377229c10585ec392f89,626b3ae6d84129424f238cc0,,,,,,,,,,,,,,,,,,,,,,,a,1,0.6059,"[""0.449"",""0.335"",""0.647"",""0.912""]","[0,1,1,1]",0,56,56,56,1,0,1,,,1,FALSE,,,,,,,,,,,,,,,,,,,,,,,,,,,,,,
,5f2dc42024e8d80f3be23d05,001,2022-04-28_20h11.10.941,classification_task,2021.2.3,Win32,59.80503558,5f2dc42024e8d80f3be23d05,626b377229c10585ec392f89,626b3ae6d84129424f238cc0,,,,,,,,,,,,,,,,,,,,,,,a,1,0.5326,"[""0.182"",""0.335"",""0.255"",""0.912""]","[1,1,0,1]",0,57,57,57,1,0,1,,,1,FALSE,,,,,,,,,,,,,,,,,,,,,,,,,,,,,,
,5f2dc42024e8d80f3be23d05,001,2022-04-28_20h11.10.941,classification_task,2021.2.3,Win32,59.80503558,5f2dc42024e8d80f3be23d05,626b377229c10585ec392f89,626b3ae6d84129424f238cc0,,,,,,,,,,,,,,,,,,,,,,,a,0,0.6699,"[""0.050"",""0.379"",""0.280"",""0.699""]","[1,1,0,1]",0,58,58,58,1,1,0,,,1,FALSE,,,,,,,,,,,,,,,,,,,,,,,,,,,,,,
,5f2dc42024e8d80f3be23d05,001,2022-04-28_20h11.10.941,classification_task,2021.2.3,Win32,59.80503558,5f2dc42024e8d80f3be23d05,626b377229c10585ec392f89,626b3ae6d84129424f238cc0,,,,,,,,,,,,,,,,,,,,,,,a,1,0.5536,"[""0.182"",""0.280"",""0.647"",""0.912""]","[1,0,1,1]",0,59,59,59,1,0,1,,,1,FALSE,,,,,,,,,,,,,,,,,,,,,,,,,,,,,,
,5f2dc42024e8d80f3be23d05,001,2022-04-28_20h11.10.941,classification_task,2021.2.3,Win32,59.80503558,5f2dc42024e8d80f3be23d05,626b377229c10585ec392f89,626b3ae6d84129424f238cc0,,,,,,,,,,,,,,,,,,,,,,,l,0,0.6362,"[""0.830"",""0.414"",""0.737"",""0.968""]","[0,1,1,1]",0,60,60,60,1,0,0,,,1,FALSE,,,,,,,,,,,,,,,,,,,,,,,,,,,,,,
,5f2dc42024e8d80f3be23d05,001,2022-04-28_20h11.10.941,classification_task,2021.2.3,Win32,59.80503558,5f2dc42024e8d80f3be23d05,626b377229c10585ec392f89,626b3ae6d84129424f238cc0,,,,,,,,,,,,,,,,,,,,,,,l,1,0.8066,"[""0.279"",""0.121"",""0.506"",""0.796""]","[0,1,1,1]",0,61,61,61,1,1,1,,,1,FALSE,,,,,,,,,,,,,,,,,,,,,,,,,,,,,,
,5f2dc42024e8d80f3be23d05,001,2022-04-28_20h11.10.941,classification_task,2021.2.3,Win32,59.80503558,5f2dc42024e8d80f3be23d05,626b377229c10585ec392f89,626b3ae6d84129424f238cc0,,,,,,,,,,,,,,,,,,,,,,,l,1,0.978,"[""0.085"",""0.121"",""0.830"",""0.796""]","[1,1,0,1]",0,62,62,62,1,1,1,,,1,FALSE,,,,,,,,,,,,,,,,,,,,,,,,,,,,,,
,5f2dc42024e8d80f3be23d05,001,2022-04-28_20h11.10.941,classification_task,2021.2.3,Win32,59.80503558,5f2dc42024e8d80f3be23d05,626b377229c10585ec392f89,626b3ae6d84129424f238cc0,,,,,,,,,,,,,,,,,,,,,,,a,1,0.9826,"[""0.218"",""0.414"",""0.737"",""0.831""]","[1,1,1,0]",0,63,63,63,1,0,0,,,1,FALSE,,,,,,,,,,,,,,,,,,,,,,,,,,,,,,
,5f2dc42024e8d80f3be23d05,001,2022-04-28_20h11.10.941,classification_task,2021.2.3,Win32,59.80503558,5f2dc42024e8d80f3be23d05,626b377229c10585ec392f89,626b3ae6d84129424f238cc0,,,,,,,,,,,,,,,,,,,,,,,,,,,,,,,,,,,,,,,0, ,,0,6.647314931,154.3886,0,1,1,1,1,2,2,,,,,,,,,,,,,,,,,
,5f2dc42024e8d80f3be23d05,001,2022-04-28_20h11.10.941,classification_task,2021.2.3,Win32,59.80503558,5f2dc42024e8d80f3be23d05,626b377229c10585ec392f89,626b3ae6d84129424f238cc0,,,,,,,,,,,,,,,,,,,,,,,,,,,,,,,,,,,,,,,1,  ,,0,1.968694885,160.3952,0,1,1,1,1,2,2,,,,,,,,,,,,,,,,,
,5f2dc42024e8d80f3be23d05,001,2022-04-28_20h11.10.941,classification_task,2021.2.3,Win32,59.80503558,5f2dc42024e8d80f3be23d05,626b377229c10585ec392f89,626b3ae6d84129424f238cc0,,,,,,,,,,,,,,,,,,,,,,,,,,,,,,,,,,,,,,,2,  ,,0,1.870712932,171.0986,0,1,1,1,1,2,2,,,,,,,,,,,,,,,,,
,5f2dc42024e8d80f3be23d05,001,2022-04-28_20h11.10.941,classification_task,2021.2.3,Win32,59.80503558,5f2dc42024e8d80f3be23d05,626b377229c10585ec392f89,626b3ae6d84129424f238cc0,,,,,,,,,,,,,,,,,,,,,,,,,,,,,,,,,,,,,,,,,,,,,0,1,1,1,1,,2,,,,,,,,,,,,,,,,,
,5f2dc42024e8d80f3be23d05,001,2022-04-28_20h11.10.941,classification_task,2021.2.3,Win32,59.80503558,5f2dc42024e8d80f3be23d05,626b377229c10585ec392f89,626b3ae6d84129424f238cc0,,,,,,,,,,,,,,,,,,,,,space,11.9901,a,0,2.0901,"[""0.050"",""0.379"",""0.554"",""0.287""]","[1,1,1,0]",0,0,0,0,1,1,0,,,1,FALSE,,,,,,,,,,,,,,,,,,,,,,,,,,,,,,
,5f2dc42024e8d80f3be23d05,001,2022-04-28_20h11.10.941,classification_task,2021.2.3,Win32,59.80503558,5f2dc42024e8d80f3be23d05,626b377229c10585ec392f89,626b3ae6d84129424f238cc0,,,,,,,,,,,,,,,,,,,,,,,a,1,2.0628,"[""0.255"",""0.335"",""0.647"",""0.912""]","[0,1,1,1]",0,1,1,1,1,0,1,,,1,FALSE,,,,,,,,,,,,,,,,,,,,,,,,,,,,,,
,5f2dc42024e8d80f3be23d05,001,2022-04-28_20h11.10.941,classification_task,2021.2.3,Win32,59.80503558,5f2dc42024e8d80f3be23d05,626b377229c10585ec392f89,626b3ae6d84129424f238cc0,,,,,,,,,,,,,,,,,,,,,,,l,1,1.6381,"[""0.591"",""0.379"",""0.554"",""0.699""]","[0,1,1,1]",0,2,2,2,1,1,0,,,1,FALSE,,,,,,,,,,,,,,,,,,,,,,,,,,,,,,
,5f2dc42024e8d80f3be23d05,001,2022-04-28_20h11.10.941,classification_task,2021.2.3,Win32,59.80503558,5f2dc42024e8d80f3be23d05,626b377229c10585ec392f89,626b3ae6d84129424f238cc0,,,,,,,,,,,,,,,,,,,,,,,a,1,1.9314,"[""0.182"",""0.461"",""0.647"",""0.912""]","[1,0,1,1]",0,3,3,3,1,0,1,,,1,FALSE,,,,,,,,,,,,,,,,,,,,,,,,,,,,,,
,5f2dc42024e8d80f3be23d05,001,2022-04-28_20h11.10.941,classification_task,2021.2.3,Win32,59.80503558,5f2dc42024e8d80f3be23d05,626b377229c10585ec392f89,626b3ae6d84129424f238cc0,,,,,,,,,,,,,,,,,,,,,,,a,1,2.2648,"[""0.472"",""0.414"",""0.737"",""0.968""]","[0,1,1,1]",0,4,4,4,1,0,0,,,1,FALSE,,,,,,,,,,,,,,,,,,,,,,,,,,,,,,
,5f2dc42024e8d80f3be23d05,001,2022-04-28_20h11.10.941,classification_task,2021.2.3,Win32,59.80503558,5f2dc42024e8d80f3be23d05,626b377229c10585ec392f89,626b3ae6d84129424f238cc0,,,,,,,,,,,,,,,,,,,,,,,l,1,2.8545,"[""0.085"",""0.121"",""0.472"",""0.796""]","[1,1,0,1]",0,5,5,5,1,1,1,,,1,FALSE,,,,,,,,,,,,,,,,,,,,,,,,,,,,,,
,5f2dc42024e8d80f3be23d05,001,2022-04-28_20h11.10.941,classification_task,2021.2.3,Win32,59.80503558,5f2dc42024e8d80f3be23d05,626b377229c10585ec392f89,626b3ae6d84129424f238cc0,,,,,,,,,,,,,,,,,,,,,,,l,1,3.7807,"[""0.050"",""0.379"",""0.839"",""0.699""]","[1,1,0,1]",0,6,6,6,1,1,0,,,1,FALSE,,,,,,,,,,,,,,,,,,,,,,,,,,,,,,
,5f2dc42024e8d80f3be23d05,001,2022-04-28_20h11.10.941,classification_task,2021.2.3,Win32,59.80503558,5f2dc42024e8d80f3be23d05,626b377229c10585ec392f89,626b3ae6d84129424f238cc0,,,,,,,,,,,,,,,,,,,,,,,a,1,2.3586,"[""0.218"",""0.414"",""0.591"",""0.968""]","[1,1,0,1]",0,7,7,7,1,0,0,,,1,FALSE,,,,,,,,,,,,,,,,,,,,,,,,,,,,,,
,5f2dc42024e8d80f3be23d05,001,2022-04-28_20h11.10.941,classification_task,2021.2.3,Win32,59.80503558,5f2dc42024e8d80f3be23d05,626b377229c10585ec392f89,626b3ae6d84129424f238cc0,,,,,,,,,,,,,,,,,,,,,,,l,0,4.0197,"[""0.182"",""0.335"",""0.830"",""0.912""]","[1,1,0,1]",0,8,8,8,1,0,1,,,1,FALSE,,,,,,,,,,,,,,,,,,,,,,,,,,,,,,
,5f2dc42024e8d80f3be23d05,001,2022-04-28_20h11.10.941,classification_task,2021.2.3,Win32,59.80503558,5f2dc42024e8d80f3be23d05,626b377229c10585ec392f89,626b3ae6d84129424f238cc0,,,,,,,,,,,,,,,,,,,,,,,l,1,1.9927,"[""0.050"",""0.839"",""0.554"",""0.699""]","[1,0,1,1]",0,9,9,9,1,1,0,,,1,FALSE,,,,,,,,,,,,,,,,,,,,,,,,,,,,,,
,5f2dc42024e8d80f3be23d05,001,2022-04-28_20h11.10.941,classification_task,2021.2.3,Win32,59.80503558,5f2dc42024e8d80f3be23d05,626b377229c10585ec392f89,626b3ae6d84129424f238cc0,,,,,,,,,,,,,,,,,,,,,,,l,1,1.7642,"[""0.085"",""0.281"",""0.506"",""0.796""]","[1,0,1,1]",0,10,10,10,1,1,1,,,1,FALSE,,,,,,,,,,,,,,,,,,,,,,,,,,,,,,
,5f2dc42024e8d80f3be23d05,001,2022-04-28_20h11.10.941,classification_task,2021.2.3,Win32,59.80503558,5f2dc42024e8d80f3be23d05,626b377229c10585ec392f89,626b3ae6d84129424f238cc0,,,,,,,,,,,,,,,,,,,,,,,a,0,1.0986,"[""0.085"",""0.121"",""0.506"",""0.288""]","[1,1,1,0]",0,11,11,11,1,1,1,,,1,FALSE,,,,,,,,,,,,,,,,,,,,,,,,,,,,,,
,5f2dc42024e8d80f3be23d05,001,2022-04-28_20h11.10.941,classification_task,2021.2.3,Win32,59.80503558,5f2dc42024e8d80f3be23d05,626b377229c10585ec392f89,626b3ae6d84129424f238cc0,,,,,,,,,,,,,,,,,,,,,,,l,0,1.4899,"[""0.218"",""0.599"",""0.737"",""0.968""]","[1,0,1,1]",0,12,12,12,1,0,0,,,1,FALSE,,,,,,,,,,,,,,,,,,,,,,,,,,,,,,
,5f2dc42024e8d80f3be23d05,001,2022-04-28_20h11.10.941,classification_task,2021.2.3,Win32,59.80503558,5f2dc42024e8d80f3be23d05,626b377229c10585ec392f89,626b3ae6d84129424f238cc0,,,,,,,,,,,,,,,,,,,,,,,a,1,1.0976,"[""0.182"",""0.335"",""0.647"",""0.287""]","[1,1,1,0]",0,13,13,13,1,0,1,,,1,FALSE,,,,,,,,,,,,,,,,,,,,,,,,,,,,,,
,5f2dc42024e8d80f3be23d05,001,2022-04-28_20h11.10.941,classification_task,2021.2.3,Win32,59.80503558,5f2dc42024e8d80f3be23d05,626b377229c10585ec392f89,626b3ae6d84129424f238cc0,,,,,,,,,,,,,,,,,,,,,,,l,1,1.7653,"[""0.287"",""0.121"",""0.506"",""0.796""]","[0,1,1,1]",0,14,14,14,1,1,1,,,1,FALSE,,,,,,,,,,,,,,,,,,,,,,,,,,,,,,
,5f2dc42024e8d80f3be23d05,001,2022-04-28_20h11.10.941,classification_task,2021.2.3,Win32,59.80503558,5f2dc42024e8d80f3be23d05,626b377229c10585ec392f89,626b3ae6d84129424f238cc0,,,,,,,,,,,,,,,,,,,,,,,a,1,1.2824,"[""0.218"",""0.414"",""0.737"",""0.830""]","[1,1,1,0]",0,15,15,15,1,0,0,,,1,FALSE,,,,,,,,,,,,,,,,,,,,,,,,,,,,,,
,5f2dc42024e8d80f3be23d05,001,2022-04-28_20h11.10.941,classification_task,2021.2.3,Win32,59.80503558,5f2dc42024e8d80f3be23d05,626b377229c10585ec392f89,626b3ae6d84129424f238cc0,,,,,,,,,,,,,,,,,,,,,,,l,0,1.3646,"[""0.182"",""0.287"",""0.647"",""0.912""]","[1,0,1,1]",0,16,16,16,1,0,1,,,1,FALSE,,,,,,,,,,,,,,,,,,,,,,,,,,,,,,
,5f2dc42024e8d80f3be23d05,001,2022-04-28_20h11.10.941,classification_task,2021.2.3,Win32,59.80503558,5f2dc42024e8d80f3be23d05,626b377229c10585ec392f89,626b3ae6d84129424f238cc0,,,,,,,,,,,,,,,,,,,,,,,l,0,1.7544,"[""0.218"",""0.414"",""0.457"",""0.968""]","[1,1,0,1]",0,17,17,17,1,0,0,,,1,FALSE,,,,,,,,,,,,,,,,,,,,,,,,,,,,,,
,5f2dc42024e8d80f3be23d05,001,2022-04-28_20h11.10.941,classification_task,2021.2.3,Win32,59.80503558,5f2dc42024e8d80f3be23d05,626b377229c10585ec392f89,626b3ae6d84129424f238cc0,,,,,,,,,,,,,,,,,,,,,,,a,0,1.2152,"[""0.085"",""0.472"",""0.506"",""0.796""]","[1,0,1,1]",0,18,18,18,1,1,1,,,1,FALSE,,,,,,,,,,,,,,,,,,,,,,,,,,,,,,
,5f2dc42024e8d80f3be23d05,001,2022-04-28_20h11.10.941,classification_task,2021.2.3,Win32,59.80503558,5f2dc42024e8d80f3be23d05,626b377229c10585ec392f89,626b3ae6d84129424f238cc0,,,,,,,,,,,,,,,,,,,,,,,a,1,1.0317,"[""0.218"",""0.414"",""0.737"",""0.287""]","[1,1,1,0]",0,19,19,19,1,0,0,,,1,FALSE,,,,,,,,,,,,,,,,,,,,,,,,,,,,,,
,5f2dc42024e8d80f3be23d05,001,2022-04-28_20h11.10.941,classification_task,2021.2.3,Win32,59.80503558,5f2dc42024e8d80f3be23d05,626b377229c10585ec392f89,626b3ae6d84129424f238cc0,,,,,,,,,,,,,,,,,,,,,,,l,0,1.3953,"[""0.182"",""0.335"",""0.839"",""0.912""]","[1,1,0,1]",0,20,20,20,1,0,1,,,1,FALSE,,,,,,,,,,,,,,,,,,,,,,,,,,,,,,
,5f2dc42024e8d80f3be23d05,001,2022-04-28_20h11.10.941,classification_task,2021.2.3,Win32,59.80503558,5f2dc42024e8d80f3be23d05,626b377229c10585ec392f89,626b3ae6d84129424f238cc0,,,,,,,,,,,,,,,,,,,,,,,l,1,1.7151,"[""0.050"",""0.379"",""0.554"",""0.449""]","[1,1,1,0]",0,21,21,21,1,1,0,,,1,FALSE,,,,,,,,,,,,,,,,,,,,,,,,,,,,,,
,5f2dc42024e8d80f3be23d05,001,2022-04-28_20h11.10.941,classification_task,2021.2.3,Win32,59.80503558,5f2dc42024e8d80f3be23d05,626b377229c10585ec392f89,626b3ae6d84129424f238cc0,,,,,,,,,,,,,,,,,,,,,,,l,0,1.4217,"[""0.255"",""0.335"",""0.647"",""0.912""]","[0,1,1,1]",0,22,22,22,1,0,1,,,1,FALSE,,,,,,,,,,,,,,,,,,,,,,,,,,,,,,
,5f2dc42024e8d80f3be23d05,001,2022-04-28_20h11.10.941,classification_task,2021.2.3,Win32,59.80503558,5f2dc42024e8d80f3be23d05,626b377229c10585ec392f89,626b3ae6d84129424f238cc0,,,,,,,,,,,,,,,,,,,,,,,a,1,1.1652,"[""0.218"",""0.591"",""0.737"",""0.968""]","[1,0,1,1]",0,23,23,23,1,0,0,,,1,FALSE,,,,,,,,,,,,,,,,,,,,,,,,,,,,,,
,5f2dc42024e8d80f3be23d05,001,2022-04-28_20h11.10.941,classification_task,2021.2.3,Win32,59.80503558,5f2dc42024e8d80f3be23d05,626b377229c10585ec392f89,626b3ae6d84129424f238cc0,,,,,,,,,,,,,,,,,,,,,,,a,0,1.115,"[""0.085"",""0.121"",""0.506"",""0.591""]","[1,1,1,0]",0,24,24,24,1,1,1,,,1,FALSE,,,,,,,,,,,,,,,,,,,,,,,,,,,,,,
,5f2dc42024e8d80f3be23d05,001,2022-04-28_20h11.10.941,classification_task,2021.2.3,Win32,59.80503558,5f2dc42024e8d80f3be23d05,626b377229c10585ec392f89,626b3ae6d84129424f238cc0,,,,,,,,,,,,,,,,,,,,,,,a,0,1.4283,"[""0.050"",""0.379"",""0.287"",""0.699""]","[1,1,0,1]",0,25,25,25,1,1,0,,,1,FALSE,,,,,,,,,,,,,,,,,,,,,,,,,,,,,,
,5f2dc42024e8d80f3be23d05,001,2022-04-28_20h11.10.941,classification_task,2021.2.3,Win32,59.80503558,5f2dc42024e8d80f3be23d05,626b377229c10585ec392f89,626b3ae6d84129424f238cc0,,,,,,,,,,,,,,,,,,,,,,,l,0,0.8135,"[""0.457"",""0.414"",""0.737"",""0.968""]","[0,1,1,1]",0,26,26,26,1,0,0,,,1,FALSE,,,,,,,,,,,,,,,,,,,,,,,,,,,,,,
,5f2dc42024e8d80f3be23d05,001,2022-04-28_20h11.10.941,classification_task,2021.2.3,Win32,59.80503558,5f2dc42024e8d80f3be23d05,626b377229c10585ec392f89,626b3ae6d84129424f238cc0,,,,,,,,,,,,,,,,,,,,,,,a,1,1.5639,"[""0.182"",""0.335"",""0.647"",""0.599""]","[1,1,1,0]",0,27,27,27,1,0,1,,,1,FALSE,,,,,,,,,,,,,,,,,,,,,,,,,,,,,,
,5f2dc42024e8d80f3be23d05,001,2022-04-28_20h11.10.941,classification_task,2021.2.3,Win32,59.80503558,5f2dc42024e8d80f3be23d05,626b377229c10585ec392f89,626b3ae6d84129424f238cc0,,,,,,,,,,,,,,,,,,,,,,,a,0,1.7249,"[""0.050"",""0.288"",""0.554"",""0.699""]","[1,0,1,1]",0,28,28,28,1,1,0,,,1,FALSE,,,,,,,,,,,,,,,,,,,,,,,,,,,,,,
,5f2dc42024e8d80f3be23d05,001,2022-04-28_20h11.10.941,classification_task,2021.2.3,Win32,59.80503558,5f2dc42024e8d80f3be23d05,626b377229c10585ec392f89,626b3ae6d84129424f238cc0,,,,,,,,,,,,,,,,,,,,,,,l,1,1.4149,"[""0.281"",""0.379"",""0.554"",""0.699""]","[0,1,1,1]",0,29,29,29,1,1,0,,,1,FALSE,,,,,,,,,,,,,,,,,,,,,,,,,,,,,,
,5f2dc42024e8d80f3be23d05,001,2022-04-28_20h11.10.941,classification_task,2021.2.3,Win32,59.80503558,5f2dc42024e8d80f3be23d05,626b377229c10585ec392f89,626b3ae6d84129424f238cc0,,,,,,,,,,,,,,,,,,,,,,,l,1,2.581,"[""0.591"",""0.121"",""0.506"",""0.796""]","[0,1,1,1]",0,30,30,30,1,1,1,,,1,FALSE,,,,,,,,,,,,,,,,,,,,,,,,,,,,,,
,5f2dc42024e8d80f3be23d05,001,2022-04-28_20h11.10.941,classification_task,2021.2.3,Win32,59.80503558,5f2dc42024e8d80f3be23d05,626b377229c10585ec392f89,626b3ae6d84129424f238cc0,,,,,,,,,,,,,,,,,,,,,,,a,0,1.3409,"[""0.085"",""0.121"",""0.599"",""0.796""]","[1,1,0,1]",0,31,31,31,1,1,1,,,1,FALSE,,,,,,,,,,,,,,,,,,,,,,,,,,,,,,
,5f2dc42024e8d80f3be23d05,001,2022-04-28_20h11.10.941,classification_task,2021.2.3,Win32,59.80503558,5f2dc42024e8d80f3be23d05,626b377229c10585ec392f89,626b3ae6d84129424f238cc0,,,,,,,,,,,,,,,,,,,,,,,a,1,1.1831,"[""0.218"",""0.414"",""0.279"",""0.968""]","[1,1,0,1]",0,32,32,32,1,0,0,,,1,FALSE,,,,,,,,,,,,,,,,,,,,,,,,,,,,,,
,5f2dc42024e8d80f3be23d05,001,2022-04-28_20h11.10.941,classification_task,2021.2.3,Win32,59.80503558,5f2dc42024e8d80f3be23d05,626b377229c10585ec392f89,626b3ae6d84129424f238cc0,,,,,,,,,,,,,,,,,,,,,,,l,0,2.2665,"[""0.287"",""0.335"",""0.647"",""0.912""]","[0,1,1,1]",0,33,33,33,1,0,1,,,1,FALSE,,,,,,,,,,,,,,,,,,,,,,,,,,,,,,
,5f2dc42024e8d80f3be23d05,001,2022-04-28_20h11.10.941,classification_task,2021.2.3,Win32,59.80503558,5f2dc42024e8d80f3be23d05,626b377229c10585ec392f89,626b3ae6d84129424f238cc0,,,,,,,,,,,,,,,,,,,,,,,l,0,1.6893,"[""0.182"",""0.335"",""0.457"",""0.912""]","[1,1,0,1]",0,34,34,34,1,0,1,,,1,FALSE,,,,,,,,,,,,,,,,,,,,,,,,,,,,,,
,5f2dc42024e8d80f3be23d05,001,2022-04-28_20h11.10.941,classification_task,2021.2.3,Win32,59.80503558,5f2dc42024e8d80f3be23d05,626b377229c10585ec392f89,626b3ae6d84129424f238cc0,,,,,,,,,,,,,,,,,,,,,,,a,0,1.4196,"[""0.085"",""0.121"",""0.599"",""0.796""]","[1,1,0,1]",0,35,35,35,1,1,1,,,1,FALSE,,,,,,,,,,,,,,,,,,,,,,,,,,,,,,
,5f2dc42024e8d80f3be23d05,001,2022-04-28_20h11.10.941,classification_task,2021.2.3,Win32,59.80503558,5f2dc42024e8d80f3be23d05,626b377229c10585ec392f89,626b3ae6d84129424f238cc0,,,,,,,,,,,,,,,,,,,,,,,a,0,1.9048,"[""0.461"",""0.379"",""0.554"",""0.699""]","[0,1,1,1]",0,36,36,36,1,1,0,,,1,FALSE,,,,,,,,,,,,,,,,,,,,,,,,,,,,,,
,5f2dc42024e8d80f3be23d05,001,2022-04-28_20h11.10.941,classification_task,2021.2.3,Win32,59.80503558,5f2dc42024e8d80f3be23d05,626b377229c10585ec392f89,626b3ae6d84129424f238cc0,,,,,,,,,,,,,,,,,,,,,,,l,0,1.2224,"[""0.182"",""0.830"",""0.647"",""0.912""]","[1,0,1,1]",0,37,37,37,1,0,1,,,1,FALSE,,,,,,,,,,,,,,,,,,,,,,,,,,,,,,
,5f2dc42024e8d80f3be23d05,001,2022-04-28_20h11.10.941,classification_task,2021.2.3,Win32,59.80503558,5f2dc42024e8d80f3be23d05,626b377229c10585ec392f89,626b3ae6d84129424f238cc0,,,,,,,,,,,,,,,,,,,,,,,l,0,1.3666,"[""0.182"",""0.335"",""0.647"",""0.839""]","[1,1,1,0]",0,38,38,38,1,0,1,,,1,FALSE,,,,,,,,,,,,,,,,,,,,,,,,,,,,,,
,5f2dc42024e8d80f3be23d05,001,2022-04-28_20h11.10.941,classification_task,2021.2.3,Win32,59.80503558,5f2dc42024e8d80f3be23d05,626b377229c10585ec392f89,626b3ae6d84129424f238cc0,,,,,,,,,,,,,,,,,,,,,,,l,0,1.5489,"[""0.218"",""0.255"",""0.737"",""0.968""]","[1,0,1,1]",0,39,39,39,1,0,0,,,1,FALSE,,,,,,,,,,,,,,,,,,,,,,,,,,,,,,
,5f2dc42024e8d80f3be23d05,001,2022-04-28_20h11.10.941,classification_task,2021.2.3,Win32,59.80503558,5f2dc42024e8d80f3be23d05,626b377229c10585ec392f89,626b3ae6d84129424f238cc0,,,,,,,,,,,,,,,,,,,,,,,a,0,1.2983,"[""0.050"",""0.379"",""0.554"",""0.599""]","[1,1,1,0]",0,40,40,40,1,1,0,,,1,FALSE,,,,,,,,,,,,,,,,,,,,,,,,,,,,,,
,5f2dc42024e8d80f3be23d05,001,2022-04-28_20h11.10.941,classification_task,2021.2.3,Win32,59.80503558,5f2dc42024e8d80f3be23d05,626b377229c10585ec392f89,626b3ae6d84129424f238cc0,,,,,,,,,,,,,,,,,,,,,,,a,0,1.1095,"[""0.050"",""0.379"",""0.461"",""0.699""]","[1,1,0,1]",0,41,41,41,1,1,0,,,1,FALSE,,,,,,,,,,,,,,,,,,,,,,,,,,,,,,
,5f2dc42024e8d80f3be23d05,001,2022-04-28_20h11.10.941,classification_task,2021.2.3,Win32,59.80503558,5f2dc42024e8d80f3be23d05,626b377229c10585ec392f89,626b3ae6d84129424f238cc0,,,,,,,,,,,,,,,,,,,,,,,a,0,1.6459,"[""0.085"",""0.449"",""0.506"",""0.796""]","[1,0,1,1]",0,42,42,42,1,1,1,,,1,FALSE,,,,,,,,,,,,,,,,,,,,,,,,,,,,,,
,5f2dc42024e8d80f3be23d05,001,2022-04-28_20h11.10.941,classification_task,2021.2.3,Win32,59.80503558,5f2dc42024e8d80f3be23d05,626b377229c10585ec392f89,626b3ae6d84129424f238cc0,,,,,,,,,,,,,,,,,,,,,,,l,0,1.2976,"[""0.218"",""0.414"",""0.737"",""0.830""]","[1,1,1,0]",0,43,43,43,1,0,0,,,1,FALSE,,,,,,,,,,,,,,,,,,,,,,,,,,,,,,
,5f2dc42024e8d80f3be23d05,001,2022-04-28_20h11.10.941,classification_task,2021.2.3,Win32,59.80503558,5f2dc42024e8d80f3be23d05,626b377229c10585ec392f89,626b3ae6d84129424f238cc0,,,,,,,,,,,,,,,,,,,,,,,a,0,1.4798,"[""0.050"",""0.281"",""0.554"",""0.699""]","[1,0,1,1]",0,44,44,44,1,1,0,,,1,FALSE,,,,,,,,,,,,,,,,,,,,,,,,,,,,,,
,5f2dc42024e8d80f3be23d05,001,2022-04-28_20h11.10.941,classification_task,2021.2.3,Win32,59.80503558,5f2dc42024e8d80f3be23d05,626b377229c10585ec392f89,626b3ae6d84129424f238cc0,,,,,,,,,,,,,,,,,,,,,,,a,0,1.6462,"[""0.281"",""0.121"",""0.506"",""0.796""]","[0,1,1,1]",0,45,45,45,1,1,1,,,1,FALSE,,,,,,,,,,,,,,,,,,,,,,,,,,,,,,
,5f2dc42024e8d80f3be23d05,001,2022-04-28_20h11.10.941,classification_task,2021.2.3,Win32,59.80503558,5f2dc42024e8d80f3be23d05,626b377229c10585ec392f89,626b3ae6d84129424f238cc0,,,,,,,,,,,,,,,,,,,,,,,a,0,0.8551,"[""0.085"",""0.121"",""0.506"",""0.281""]","[1,1,1,0]",0,46,46,46,1,1,1,,,1,FALSE,,,,,,,,,,,,,,,,,,,,,,,,,,,,,,
,5f2dc42024e8d80f3be23d05,001,2022-04-28_20h11.10.941,classification_task,2021.2.3,Win32,59.80503558,5f2dc42024e8d80f3be23d05,626b377229c10585ec392f89,626b3ae6d84129424f238cc0,,,,,,,,,,,,,,,,,,,,,,,l,0,1.1953,"[""0.830"",""0.414"",""0.737"",""0.968""]","[0,1,1,1]",0,47,47,47,1,0,0,,,1,FALSE,,,,,,,,,,,,,,,,,,,,,,,,,,,,,,
,5f2dc42024e8d80f3be23d05,001,2022-04-28_20h11.10.941,classification_task,2021.2.3,Win32,59.80503558,5f2dc42024e8d80f3be23d05,626b377229c10585ec392f89,626b3ae6d84129424f238cc0,,,,,,,,,,,,,,,,,,,,,,,l,1,2.1287,"[""0.085"",""0.121"",""0.830"",""0.796""]","[1,1,0,1]",0,48,48,48,1,1,1,,,1,FALSE,,,,,,,,,,,,,,,,,,,,,,,,,,,,,,
,5f2dc42024e8d80f3be23d05,001,2022-04-28_20h11.10.941,classification_task,2021.2.3,Win32,59.80503558,5f2dc42024e8d80f3be23d05,626b377229c10585ec392f89,626b3ae6d84129424f238cc0,,,,,,,,,,,,,,,,,,,,,,,l,1,1.01,"[""0.830"",""0.121"",""0.506"",""0.796""]","[0,1,1,1]",0,49,49,49,1,1,1,,,1,FALSE,,,,,,,,,,,,,,,,,,,,,,,,,,,,,,
,5f2dc42024e8d80f3be23d05,001,2022-04-28_20h11.10.941,classification_task,2021.2.3,Win32,59.80503558,5f2dc42024e8d80f3be23d05,626b377229c10585ec392f89,626b3ae6d84129424f238cc0,,,,,,,,,,,,,,,,,,,,,,,a,0,0.73,"[""0.085"",""0.121"",""0.506"",""0.830""]","[1,1,1,0]",0,50,50,50,1,1,1,,,1,FALSE,,,,,,,,,,,,,,,,,,,,,,,,,,,,,,
,5f2dc42024e8d80f3be23d05,001,2022-04-28_20h11.10.941,classification_task,2021.2.3,Win32,59.80503558,5f2dc42024e8d80f3be23d05,626b377229c10585ec392f89,626b3ae6d84129424f238cc0,,,,,,,,,,,,,,,,,,,,,,,l,0,1.8499,"[""0.218"",""0.414"",""0.737"",""0.831""]","[1,1,1,0]",0,51,51,51,1,0,0,,,1,FALSE,,,,,,,,,,,,,,,,,,,,,,,,,,,,,,
,5f2dc42024e8d80f3be23d05,001,2022-04-28_20h11.10.941,classification_task,2021.2.3,Win32,59.80503558,5f2dc42024e8d80f3be23d05,626b377229c10585ec392f89,626b3ae6d84129424f238cc0,,,,,,,,,,,,,,,,,,,,,,,l,0,1.1676,"[""0.182"",""0.472"",""0.647"",""0.912""]","[1,0,1,1]",0,52,52,52,1,0,1,,,1,FALSE,,,,,,,,,,,,,,,,,,,,,,,,,,,,,,
,5f2dc42024e8d80f3be23d05,001,2022-04-28_20h11.10.941,classification_task,2021.2.3,Win32,59.80503558,5f2dc42024e8d80f3be23d05,626b377229c10585ec392f89,626b3ae6d84129424f238cc0,,,,,,,,,,,,,,,,,,,,,,,a,0,2.7137,"[""0.050"",""0.255"",""0.554"",""0.699""]","[1,0,1,1]",0,53,53,53,1,1,0,,,1,FALSE,,,,,,,,,,,,,,,,,,,,,,,,,,,,,,
,5f2dc42024e8d80f3be23d05,001,2022-04-28_20h11.10.941,classification_task,2021.2.3,Win32,59.80503558,5f2dc42024e8d80f3be23d05,626b377229c10585ec392f89,626b3ae6d84129424f238cc0,,,,,,,,,,,,,,,,,,,,,,,a,0,2.6781,"[""0.050"",""0.379"",""0.554"",""0.830""]","[1,1,1,0]",0,54,54,54,1,1,0,,,1,FALSE,,,,,,,,,,,,,,,,,,,,,,,,,,,,,,
,5f2dc42024e8d80f3be23d05,001,2022-04-28_20h11.10.941,classification_task,2021.2.3,Win32,59.80503558,5f2dc42024e8d80f3be23d05,626b377229c10585ec392f89,626b3ae6d84129424f238cc0,,,,,,,,,,,,,,,,,,,,,,,a,1,3.154,"[""0.182"",""0.335"",""0.255"",""0.912""]","[1,1,0,1]",0,55,55,55,1,0,1,,,1,FALSE,,,,,,,,,,,,,,,,,,,,,,,,,,,,,,
,5f2dc42024e8d80f3be23d05,001,2022-04-28_20h11.10.941,classification_task,2021.2.3,Win32,59.80503558,5f2dc42024e8d80f3be23d05,626b377229c10585ec392f89,626b3ae6d84129424f238cc0,,,,,,,,,,,,,,,,,,,,,,,l,1,2.0935,"[""0.085"",""0.461"",""0.506"",""0.796""]","[1,0,1,1]",0,56,56,56,1,1,1,,,1,FALSE,,,,,,,,,,,,,,,,,,,,,,,,,,,,,,
,5f2dc42024e8d80f3be23d05,001,2022-04-28_20h11.10.941,classification_task,2021.2.3,Win32,59.80503558,5f2dc42024e8d80f3be23d05,626b377229c10585ec392f89,626b3ae6d84129424f238cc0,,,,,,,,,,,,,,,,,,,,,,,l,0,1.5145,"[""0.218"",""0.461"",""0.737"",""0.968""]","[1,0,1,1]",0,57,57,57,1,0,0,,,1,FALSE,,,,,,,,,,,,,,,,,,,,,,,,,,,,,,
,5f2dc42024e8d80f3be23d05,001,2022-04-28_20h11.10.941,classification_task,2021.2.3,Win32,59.80503558,5f2dc42024e8d80f3be23d05,626b377229c10585ec392f89,626b3ae6d84129424f238cc0,,,,,,,,,,,,,,,,,,,,,,,a,1,1.8623,"[""0.472"",""0.335"",""0.647"",""0.912""]","[0,1,1,1]",0,58,58,58,1,0,1,,,1,FALSE,,,,,,,,,,,,,,,,,,,,,,,,,,,,,,
,5f2dc42024e8d80f3be23d05,001,2022-04-28_20h11.10.941,classification_task,2021.2.3,Win32,59.80503558,5f2dc42024e8d80f3be23d05,626b377229c10585ec392f89,626b3ae6d84129424f238cc0,,,,,,,,,,,,,,,,,,,,,,,l,0,2.7462,"[""0.830"",""0.414"",""0.737"",""0.968""]","[0,1,1,1]",0,59,59,59,1,0,0,,,1,FALSE,,,,,,,,,,,,,,,,,,,,,,,,,,,,,,
,5f2dc42024e8d80f3be23d05,001,2022-04-28_20h11.10.941,classification_task,2021.2.3,Win32,59.80503558,5f2dc42024e8d80f3be23d05,626b377229c10585ec392f89,626b3ae6d84129424f238cc0,,,,,,,,,,,,,,,,,,,,,,,a,0,1.2271,"[""0.279"",""0.379"",""0.554"",""0.699""]","[0,1,1,1]",0,60,60,60,1,1,0,,,1,FALSE,,,,,,,,,,,,,,,,,,,,,,,,,,,,,,
,5f2dc42024e8d80f3be23d05,001,2022-04-28_20h11.10.941,classification_task,2021.2.3,Win32,59.80503558,5f2dc42024e8d80f3be23d05,626b377229c10585ec392f89,626b3ae6d84129424f238cc0,,,,,,,,,,,,,,,,,,,,,,,a,1,1.3471,"[""0.218"",""0.414"",""0.457"",""0.968""]","[1,1,0,1]",0,61,61,61,1,0,0,,,1,FALSE,,,,,,,,,,,,,,,,,,,,,,,,,,,,,,
,5f2dc42024e8d80f3be23d05,001,2022-04-28_20h11.10.941,classification_task,2021.2.3,Win32,59.80503558,5f2dc42024e8d80f3be23d05,626b377229c10585ec392f89,626b3ae6d84129424f238cc0,,,,,,,,,,,,,,,,,,,,,,,l,0,1.0649,"[""0.182"",""0.335"",""0.647"",""0.472""]","[1,1,1,0]",0,62,62,62,1,0,1,,,1,FALSE,,,,,,,,,,,,,,,,,,,,,,,,,,,,,,
,5f2dc42024e8d80f3be23d05,001,2022-04-28_20h11.10.941,classification_task,2021.2.3,Win32,59.80503558,5f2dc42024e8d80f3be23d05,626b377229c10585ec392f89,626b3ae6d84129424f238cc0,,,,,,,,,,,,,,,,,,,,,,,a,0,1.248,"[""0.050"",""0.379"",""0.279"",""0.699""]","[1,1,0,1]",0,63,63,63,1,1,0,,,1,FALSE,,,,,,,,,,,,,,,,,,,,,,,,,,,,,,
,5f2dc42024e8d80f3be23d05,001,2022-04-28_20h11.10.941,classification_task,2021.2.3,Win32,59.80503558,5f2dc42024e8d80f3be23d05,626b377229c10585ec392f89,626b3ae6d84129424f238cc0,,,,,,,,,,,,,,,,,,,,,,,,,,,,,,,,,,,,,,,0, ,,0,0,193.1478,0,2,2,2,1,2,3,,,,,,,,,,,,,,,,,
,5f2dc42024e8d80f3be23d05,001,2022-04-28_20h11.10.941,classification_task,2021.2.3,Win32,59.80503558,5f2dc42024e8d80f3be23d05,626b377229c10585ec392f89,626b3ae6d84129424f238cc0,,,,,,,,,,,,,,,,,,,,,,,,,,,,,,,,,,,,,,,1,  ,,0,10,195.6545,0,2,2,2,1,2,3,,,,,,,,,,,,,,,,,
,5f2dc42024e8d80f3be23d05,001,2022-04-28_20h11.10.941,classification_task,2021.2.3,Win32,59.80503558,5f2dc42024e8d80f3be23d05,626b377229c10585ec392f89,626b3ae6d84129424f238cc0,,,,,,,,,,,,,,,,,,,,,,,,,,,,,,,,,,,,,,,2,  ,,0,10,197.5202,0,2,2,2,1,2,3,,,,,,,,,,,,,,,,,
,5f2dc42024e8d80f3be23d05,001,2022-04-28_20h11.10.941,classification_task,2021.2.3,Win32,59.80503558,5f2dc42024e8d80f3be23d05,626b377229c10585ec392f89,626b3ae6d84129424f238cc0,,,,,,,,,,,,,,,,,,,,,,,,,,,,,,,,,,,,,,,,,,,,,0,2,2,2,1,,3,,,,,,,,,,,,,,,,,
,5f2dc42024e8d80f3be23d05,001,2022-04-28_20h11.10.941,classification_task,2021.2.3,Win32,59.80503558,5f2dc42024e8d80f3be23d05,626b377229c10585ec392f89,626b3ae6d84129424f238cc0,,,,,,,,,,,,,,,,,,,,,,,,,,,,,,,,,,,,,,,,,,,,,,,,,,,,,I believe the aid is a competent performer,,0.7,0,4,906.8111,0,0,0,0,1,0,,,,
,5f2dc42024e8d80f3be23d05,001,2022-04-28_20h11.10.941,classification_task,2021.2.3,Win32,59.80503558,5f2dc42024e8d80f3be23d05,626b377229c10585ec392f89,626b3ae6d84129424f238cc0,,,,,,,,,,,,,,,,,,,,,,,,,,,,,,,,,,,,,,,,,,,,,,,,,,,,,I trust the aid,,0.7,0,4,909.1576,0,0,0,0,1,0,,,,
,5f2dc42024e8d80f3be23d05,001,2022-04-28_20h11.10.941,classification_task,2021.2.3,Win32,59.80503558,5f2dc42024e8d80f3be23d05,626b377229c10585ec392f89,626b3ae6d84129424f238cc0,,,,,,,,,,,,,,,,,,,,,,,,,,,,,,,,,,,,,,,,,,,,,,,,,,,,,I have confidence in the advice given by the aid,,0.7,0,4,912.1512,0,0,0,0,1,0,,,,
,5f2dc42024e8d80f3be23d05,001,2022-04-28_20h11.10.941,classification_task,2021.2.3,Win32,59.80503558,5f2dc42024e8d80f3be23d05,626b377229c10585ec392f89,626b3ae6d84129424f238cc0,,,,,,,,,,,,,,,,,,,,,,,,,,,,,,,,,,,,,,,,,,,,,,,,,,,,,I can depend on the aid,,0.7,0,4,915.8025,0,0,0,0,1,0,,,,
,5f2dc42024e8d80f3be23d05,001,2022-04-28_20h11.10.941,classification_task,2021.2.3,Win32,59.80503558,5f2dc42024e8d80f3be23d05,626b377229c10585ec392f89,626b3ae6d84129424f238cc0,,,,,,,,,,,,,,,,,,,,,,,,,,,,,,,,,,,,,,,,,,,,,,,,,,,,,I can rely on the aid to behave in consistent ways,,0.7,0,4,921.7483,0,0,0,0,1,0,,,,
,5f2dc42024e8d80f3be23d05,001,2022-04-28_20h11.10.941,classification_task,2021.2.3,Win32,59.80503558,5f2dc42024e8d80f3be23d05,626b377229c10585ec392f89,626b3ae6d84129424f238cc0,,,,,,,,,,,,,,,,,,,,,,,,,,,,,,,,,,,,,,,,,,,,,,,,,,,,,I can rely on the aid to do its best every time I take its advice,,0.7,0,4,927.9451,0,0,0,0,1,0,,,,
,5f2dc42024e8d80f3be23d05,001,2022-04-28_20h11.10.941,classification_task,2021.2.3,Win32,59.80503558,5f2dc42024e8d80f3be23d05,626b377229c10585ec392f89,626b3ae6d84129424f238cc0,,,,,,,,,,,,,,,,,,,,,,,,,,,,,,,,,,,,,,,,,,,,,,,,,,,,,"On trials you completed with assistance from the aid, how frequently did you think the aid was correct?",,0.7,0,100,,0,0,0,0,1,0,,,,
,5f2dc42024e8d80f3be23d05,001,2022-04-28_20h11.10.941,classification_task,2021.2.3,Win32,59.80503558,5f2dc42024e8d80f3be23d05,626b377229c10585ec392f89,626b3ae6d84129424f238cc0,,,,,,,,,,,,,,,,,,,,,,,,,,,,,,,,,,,,,,,,,,,,,,,,,,,,,"On trials you completed without the aid, how frequently did you think you were correct?",,0.7,0,40,,0,0,0,0,1,0,,,,
,5f2dc42024e8d80f3be23d05,001,2022-04-28_20h11.10.941,classification_task,2021.2.3,Win32,59.80503558,5f2dc42024e8d80f3be23d05,626b377229c10585ec392f89,626b3ae6d84129424f238cc0,,,,,,,,,,,,,,,,,,,,,,,,,,,,,,,,,,,,,,,,,,,,,,,,,,,,,,,,,,,0,0,0,0,1,,,,,
,5f2dc42024e8d80f3be23d05,001,2022-04-28_20h11.10.941,classification_task,2021.2.3,Win32,59.80503558,5f2dc42024e8d80f3be23d05,626b377229c10585ec392f89,626b3ae6d84129424f238cc0,,,,,,,,,,,,,,,,,,,,,,,,,,,,,,,,,,,,,,,,,,,,,,,,,,,,,,,,,,,,,,,,,space,26.8258,978.9211,
,5f2dc42024e8d80f3be23d05,001,2022-04-28_20h11.10.941,classification_task,2021.2.3,Win32,59.80503558,5f2dc42024e8d80f3be23d05,626b377229c10585ec392f89,626b3ae6d84129424f238cc0,,,,,,,,,,,,,,,,,,,,,,,,,,,,,,,,,,,,,,,,,,,,,,,,,,,,,,,,,,,,,,,,,,,,"Mozilla/5.0 (Windows NT 10.0; Win64; x64) AppleWebKit/537.36 (KHTML, like Gecko) Chrome/100.0.4896.88 Safari/537.36"
