usingWebGL,participant,session,date,expName,psychopyVersion,OS,frameRate,PROLIFIC_PID,STUDY_ID,SESSION_ID,signatures_friend,signatures_foe,band_ranges_top,band_ranges_bottom,formitemText,formtype,formundefined,formitemWidth,formindex,formresponse,formrt,key_resp_2.keys,key_resp_2.rt,tute_resp.keys,tute_resp.rt,tutorial.thisRepN,tutorial.thisTrialN,tutorial.thisN,tutorial.thisIndex,tutorial.ran,key_resp_4.keys,key_resp_4.rt,key_resp.keys,key_resp.corr,key_resp.rt,lines_presented,is_signal_presented,trials.thisRepN,trials.thisTrialN,trials.thisN,trials.thisIndex,trials.ran,vessel,active_band,lines,is_signal,supported_pos,catch_trial,debrief_formindex,debrief_formitemText,debrief_formtype,debrief_formitemWidth,debrief_formresponse,debrief_formrt,phases.thisRepN,phases.thisTrialN,phases.thisN,phases.thisIndex,phases.ran,phases.order,phase,key_resp_3.keys,trustitemText,trusttype,trustitemWidth,trustindex,trustresponse,trustrt,support_status.thisRepN,support_status.thisTrialN,support_status.thisN,support_status.thisIndex,support_status.ran,support_status.order,key_resp_5.keys,key_resp_5.rt,globalClockTime,userAgent
TRUE,5f2dc3b1a2052d0fc281a2c4,001,2022-04-28_20h08.50.279,classification_task,2021.2.3,Win32,144.1129846,5f2dc3b1a2052d0fc281a2c4,626b377229c10585ec392f89,626b39f0caf0a8250640b10e,,,,,,,,,,,,,,,,,,,,,,,,,,,,,,,,,,,,,,,,,,,,,,,,,,,,,,,,,,,,,,,,,,,,
,5f2dc3b1a2052d0fc281a2c4,001,2022-04-28_20h08.50.279,classification_task,2021.2.3,Win32,144.1129846,5f2dc3b1a2052d0fc281a2c4,626b377229c10585ec392f89,626b39f0caf0a8250640b10e,"[[""0.264"",""0.495"",""0.907"",""0.957""],[""0.225"",""0.459"",""0.839"",""0.873""]]","[[""0.085"",""0.125"",""0.649"",""0.804""],[""0.046"",""0.301"",""0.562"",""0.728""]]","[1,10]","[100,1000]",Video game experience,,,0.7,0,,,,,,,,,,,,,,,,,,,,,,,,,,,,,,,,,,,,,,,,,,,,,,,,,,,,,,,,,,,
,5f2dc3b1a2052d0fc281a2c4,001,2022-04-28_20h08.50.279,classification_task,2021.2.3,Win32,144.1129846,5f2dc3b1a2052d0fc281a2c4,626b377229c10585ec392f89,626b39f0caf0a8250640b10e,,,,,Approximately how many hours did you spend playing video games in the last week?,,,0.7,0,20,,,,,,,,,,,,,,,,,,,,,,,,,,,,,,,,,,,,,,,,,,,,,,,,,,,,,,,,,,
,5f2dc3b1a2052d0fc281a2c4,001,2022-04-28_20h08.50.279,classification_task,2021.2.3,Win32,144.1129846,5f2dc3b1a2052d0fc281a2c4,626b377229c10585ec392f89,626b39f0caf0a8250640b10e,,,,,"Which game did you play the most this year? (Enter ""None"" if you didn't play any)",,,0.7,0,God of war,,,,,,,,,,,,,,,,,,,,,,,,,,,,,,,,,,,,,,,,,,,,,,,,,,,,,,,,,,
,5f2dc3b1a2052d0fc281a2c4,001,2022-04-28_20h08.50.279,classification_task,2021.2.3,Win32,144.1129846,5f2dc3b1a2052d0fc281a2c4,626b377229c10585ec392f89,626b39f0caf0a8250640b10e,,,,,Visual perception,,,0.7,0,,,,,,,,,,,,,,,,,,,,,,,,,,,,,,,,,,,,,,,,,,,,,,,,,,,,,,,,,,,
,5f2dc3b1a2052d0fc281a2c4,001,2022-04-28_20h08.50.279,classification_task,2021.2.3,Win32,144.1129846,5f2dc3b1a2052d0fc281a2c4,626b377229c10585ec392f89,626b39f0caf0a8250640b10e,,,,,Do you have any form of color blindness?,,,0.7,0,No,6.4886,,,,,,,,,,,,,,,,,,,,,,,,,,,,,,,,,,,,,,,,,,,,,,,,,,,,,,,,,
,5f2dc3b1a2052d0fc281a2c4,001,2022-04-28_20h08.50.279,classification_task,2021.2.3,Win32,144.1129846,5f2dc3b1a2052d0fc281a2c4,626b377229c10585ec392f89,626b39f0caf0a8250640b10e,,,,,Do you use software to change the colour temperature of your screen (e.g. f.lux)?,,,0.7,0,Yes,8.4427,,,,,,,,,,,,,,,,,,,,,,,,,,,,,,,,,,,,,,,,,,,,,,,,,,,,,,,,,
,5f2dc3b1a2052d0fc281a2c4,001,2022-04-28_20h08.50.279,classification_task,2021.2.3,Win32,144.1129846,5f2dc3b1a2052d0fc281a2c4,626b377229c10585ec392f89,626b39f0caf0a8250640b10e,,,,,,,,,,,,space,2357.8827,space,4.528,0,0,0,0,1,,,,,,,,,,,,,,,,,,,,,,,,,,,,,,,,,,,,,,,,,,,,,,,,
,5f2dc3b1a2052d0fc281a2c4,001,2022-04-28_20h08.50.279,classification_task,2021.2.3,Win32,144.1129846,5f2dc3b1a2052d0fc281a2c4,626b377229c10585ec392f89,626b39f0caf0a8250640b10e,,,,,,,,,,,,,,space,5.6628,1,0,1,0,1,,,,,,,,,,,,,,,,,,,,,,,,,,,,,,,,,,,,,,,,,,,,,,,,
,5f2dc3b1a2052d0fc281a2c4,001,2022-04-28_20h08.50.279,classification_task,2021.2.3,Win32,144.1129846,5f2dc3b1a2052d0fc281a2c4,626b377229c10585ec392f89,626b39f0caf0a8250640b10e,,,,,,,,,,,,,,space,21.0107,2,0,2,0,1,,,,,,,,,,,,,,,,,,,,,,,,,,,,,,,,,,,,,,,,,,,,,,,,
,5f2dc3b1a2052d0fc281a2c4,001,2022-04-28_20h08.50.279,classification_task,2021.2.3,Win32,144.1129846,5f2dc3b1a2052d0fc281a2c4,626b377229c10585ec392f89,626b39f0caf0a8250640b10e,,,,,,,,,,,,,,space,23.4318,3,0,3,0,1,,,,,,,,,,,,,,,,,,,,,,,,,,,,,,,,,,,,,,,,,,,,,,,,
,5f2dc3b1a2052d0fc281a2c4,001,2022-04-28_20h08.50.279,classification_task,2021.2.3,Win32,144.1129846,5f2dc3b1a2052d0fc281a2c4,626b377229c10585ec392f89,626b39f0caf0a8250640b10e,,,,,,,,,,,,,,space,11.4867,4,0,4,0,1,,,,,,,,,,,,,,,,,,,,,,,,,,,,,,,,,,,,,,,,,,,,,,,,
,5f2dc3b1a2052d0fc281a2c4,001,2022-04-28_20h08.50.279,classification_task,2021.2.3,Win32,144.1129846,5f2dc3b1a2052d0fc281a2c4,626b377229c10585ec392f89,626b39f0caf0a8250640b10e,,,,,,,,,,,,,,,,,,,,,space,10.4846,a,1,4.4383,"[""0.399"",""0.495"",""0.907"",""0.957""]","[0,1,1,1]",0,0,0,0,1,0,0,,,1,FALSE,,,,,,,,,,,,,,,,,,,,,,,,,,,,,,
,5f2dc3b1a2052d0fc281a2c4,001,2022-04-28_20h08.50.279,classification_task,2021.2.3,Win32,144.1129846,5f2dc3b1a2052d0fc281a2c4,626b377229c10585ec392f89,626b39f0caf0a8250640b10e,,,,,,,,,,,,,,,,,,,,,,,l,1,3.704,"[""0.605"",""0.125"",""0.649"",""0.804""]","[0,1,1,1]",0,1,1,1,1,1,0,,,1,FALSE,,,,,,,,,,,,,,,,,,,,,,,,,,,,,,
,5f2dc3b1a2052d0fc281a2c4,001,2022-04-28_20h08.50.279,classification_task,2021.2.3,Win32,144.1129846,5f2dc3b1a2052d0fc281a2c4,626b377229c10585ec392f89,626b39f0caf0a8250640b10e,,,,,,,,,,,,,,,,,,,,,,,a,1,4.2203,"[""0.264"",""0.340"",""0.907"",""0.957""]","[1,0,1,1]",0,2,2,2,1,0,0,,,1,FALSE,,,,,,,,,,,,,,,,,,,,,,,,,,,,,,
,5f2dc3b1a2052d0fc281a2c4,001,2022-04-28_20h08.50.279,classification_task,2021.2.3,Win32,144.1129846,5f2dc3b1a2052d0fc281a2c4,626b377229c10585ec392f89,626b39f0caf0a8250640b10e,,,,,,,,,,,,,,,,,,,,,,,l,1,1.908,"[""0.085"",""0.366"",""0.649"",""0.804""]","[1,0,1,1]",0,3,3,3,1,1,0,,,1,FALSE,,,,,,,,,,,,,,,,,,,,,,,,,,,,,,
,5f2dc3b1a2052d0fc281a2c4,001,2022-04-28_20h08.50.279,classification_task,2021.2.3,Win32,144.1129846,5f2dc3b1a2052d0fc281a2c4,626b377229c10585ec392f89,626b39f0caf0a8250640b10e,,,,,,,,,,,,,,,,,,,,,,,a,1,2.9908,"[""0.264"",""0.495"",""0.907"",""0.692""]","[1,1,1,0]",0,4,4,4,1,0,0,,,1,FALSE,,,,,,,,,,,,,,,,,,,,,,,,,,,,,,
,5f2dc3b1a2052d0fc281a2c4,001,2022-04-28_20h08.50.279,classification_task,2021.2.3,Win32,144.1129846,5f2dc3b1a2052d0fc281a2c4,626b377229c10585ec392f89,626b39f0caf0a8250640b10e,,,,,,,,,,,,,,,,,,,,,,,l,1,6.5354,"[""0.046"",""0.768"",""0.562"",""0.728""]","[1,0,1,1]",0,5,5,5,1,1,1,,,1,FALSE,,,,,,,,,,,,,,,,,,,,,,,,,,,,,,
,5f2dc3b1a2052d0fc281a2c4,001,2022-04-28_20h08.50.279,classification_task,2021.2.3,Win32,144.1129846,5f2dc3b1a2052d0fc281a2c4,626b377229c10585ec392f89,626b39f0caf0a8250640b10e,,,,,,,,,,,,,,,,,,,,,,,l,0,2.6084,"[""0.225"",""0.459"",""0.190"",""0.873""]","[1,1,0,1]",0,6,6,6,1,0,1,,,1,FALSE,,,,,,,,,,,,,,,,,,,,,,,,,,,,,,
,5f2dc3b1a2052d0fc281a2c4,001,2022-04-28_20h08.50.279,classification_task,2021.2.3,Win32,144.1129846,5f2dc3b1a2052d0fc281a2c4,626b377229c10585ec392f89,626b39f0caf0a8250640b10e,,,,,,,,,,,,,,,,,,,,,,,a,1,2.205,"[""0.596"",""0.459"",""0.839"",""0.873""]","[0,1,1,1]",0,7,7,7,1,0,1,,,1,FALSE,,,,,,,,,,,,,,,,,,,,,,,,,,,,,,
,5f2dc3b1a2052d0fc281a2c4,001,2022-04-28_20h08.50.279,classification_task,2021.2.3,Win32,144.1129846,5f2dc3b1a2052d0fc281a2c4,626b377229c10585ec392f89,626b39f0caf0a8250640b10e,,,,,,,,,,,,,,,,,,,,,,,a,1,3.5509,"[""0.264"",""0.495"",""0.768"",""0.957""]","[1,1,0,1]",0,8,8,8,1,0,0,,,1,FALSE,,,,,,,,,,,,,,,,,,,,,,,,,,,,,,
,5f2dc3b1a2052d0fc281a2c4,001,2022-04-28_20h08.50.279,classification_task,2021.2.3,Win32,144.1129846,5f2dc3b1a2052d0fc281a2c4,626b377229c10585ec392f89,626b39f0caf0a8250640b10e,,,,,,,,,,,,,,,,,,,,,,,a,1,2.0987,"[""0.225"",""0.459"",""0.839"",""0.689""]","[1,1,1,0]",0,9,9,9,1,0,1,,,1,FALSE,,,,,,,,,,,,,,,,,,,,,,,,,,,,,,
,5f2dc3b1a2052d0fc281a2c4,001,2022-04-28_20h08.50.279,classification_task,2021.2.3,Win32,144.1129846,5f2dc3b1a2052d0fc281a2c4,626b377229c10585ec392f89,626b39f0caf0a8250640b10e,,,,,,,,,,,,,,,,,,,,,,,l,1,1.6567,"[""0.085"",""0.125"",""0.649"",""0.596""]","[1,1,1,0]",0,10,10,10,1,1,0,,,1,FALSE,,,,,,,,,,,,,,,,,,,,,,,,,,,,,,
,5f2dc3b1a2052d0fc281a2c4,001,2022-04-28_20h08.50.279,classification_task,2021.2.3,Win32,144.1129846,5f2dc3b1a2052d0fc281a2c4,626b377229c10585ec392f89,626b39f0caf0a8250640b10e,,,,,,,,,,,,,,,,,,,,,,,l,1,2.2012,"[""0.046"",""0.301"",""0.562"",""0.419""]","[1,1,1,0]",0,11,11,11,1,1,1,,,1,FALSE,,,,,,,,,,,,,,,,,,,,,,,,,,,,,,
,5f2dc3b1a2052d0fc281a2c4,001,2022-04-28_20h08.50.279,classification_task,2021.2.3,Win32,144.1129846,5f2dc3b1a2052d0fc281a2c4,626b377229c10585ec392f89,626b39f0caf0a8250640b10e,,,,,,,,,,,,,,,,,,,,,,,l,1,3.5086,"[""0.046"",""0.301"",""0.601"",""0.728""]","[1,1,0,1]",0,12,12,12,1,1,1,,,1,FALSE,,,,,,,,,,,,,,,,,,,,,,,,,,,,,,
,5f2dc3b1a2052d0fc281a2c4,001,2022-04-28_20h08.50.279,classification_task,2021.2.3,Win32,144.1129846,5f2dc3b1a2052d0fc281a2c4,626b377229c10585ec392f89,626b39f0caf0a8250640b10e,,,,,,,,,,,,,,,,,,,,,,,a,1,1.768,"[""0.225"",""0.399"",""0.839"",""0.873""]","[1,0,1,1]",0,13,13,13,1,0,1,,,1,FALSE,,,,,,,,,,,,,,,,,,,,,,,,,,,,,,
,5f2dc3b1a2052d0fc281a2c4,001,2022-04-28_20h08.50.279,classification_task,2021.2.3,Win32,144.1129846,5f2dc3b1a2052d0fc281a2c4,626b377229c10585ec392f89,626b39f0caf0a8250640b10e,,,,,,,,,,,,,,,,,,,,,,,l,1,4.5276,"[""0.601"",""0.301"",""0.562"",""0.728""]","[0,1,1,1]",0,14,14,14,1,1,1,,,1,FALSE,,,,,,,,,,,,,,,,,,,,,,,,,,,,,,
,5f2dc3b1a2052d0fc281a2c4,001,2022-04-28_20h08.50.279,classification_task,2021.2.3,Win32,144.1129846,5f2dc3b1a2052d0fc281a2c4,626b377229c10585ec392f89,626b39f0caf0a8250640b10e,,,,,,,,,,,,,,,,,,,,,,,l,1,2.6216,"[""0.085"",""0.125"",""0.171"",""0.804""]","[1,1,0,1]",0,15,15,15,1,1,0,,,1,FALSE,,,,,,,,,,,,,,,,,,,,,,,,,,,,,,
,5f2dc3b1a2052d0fc281a2c4,001,2022-04-28_20h08.50.279,classification_task,2021.2.3,Win32,144.1129846,5f2dc3b1a2052d0fc281a2c4,626b377229c10585ec392f89,626b39f0caf0a8250640b10e,,,,,,,,,,,,,,,,,,,,,,,a,1,3.2856,"[""0.264"",""0.495"",""0.907"",""0.768""]","[1,1,1,0]",0,16,16,16,1,0,0,,,1,FALSE,,,,,,,,,,,,,,,,,,,,,,,,,,,,,,
,5f2dc3b1a2052d0fc281a2c4,001,2022-04-28_20h08.50.279,classification_task,2021.2.3,Win32,144.1129846,5f2dc3b1a2052d0fc281a2c4,626b377229c10585ec392f89,626b39f0caf0a8250640b10e,,,,,,,,,,,,,,,,,,,,,,,a,1,2.2768,"[""0.225"",""0.400"",""0.839"",""0.873""]","[1,0,1,1]",0,17,17,17,1,0,1,,,1,FALSE,,,,,,,,,,,,,,,,,,,,,,,,,,,,,,
,5f2dc3b1a2052d0fc281a2c4,001,2022-04-28_20h08.50.279,classification_task,2021.2.3,Win32,144.1129846,5f2dc3b1a2052d0fc281a2c4,626b377229c10585ec392f89,626b39f0caf0a8250640b10e,,,,,,,,,,,,,,,,,,,,,,,l,1,2.4139,"[""0.085"",""0.125"",""0.649"",""0.596""]","[1,1,1,0]",0,18,18,18,1,1,0,,,1,FALSE,,,,,,,,,,,,,,,,,,,,,,,,,,,,,,
,5f2dc3b1a2052d0fc281a2c4,001,2022-04-28_20h08.50.279,classification_task,2021.2.3,Win32,144.1129846,5f2dc3b1a2052d0fc281a2c4,626b377229c10585ec392f89,626b39f0caf0a8250640b10e,,,,,,,,,,,,,,,,,,,,,,,l,1,2.0428,"[""0.085"",""0.400"",""0.649"",""0.804""]","[1,0,1,1]",0,19,19,19,1,1,0,,,1,FALSE,,,,,,,,,,,,,,,,,,,,,,,,,,,,,,
,5f2dc3b1a2052d0fc281a2c4,001,2022-04-28_20h08.50.279,classification_task,2021.2.3,Win32,144.1129846,5f2dc3b1a2052d0fc281a2c4,626b377229c10585ec392f89,626b39f0caf0a8250640b10e,,,,,,,,,,,,,,,,,,,,,,,l,1,2.5559,"[""0.085"",""0.125"",""0.692"",""0.804""]","[1,1,0,1]",0,20,20,20,1,1,0,,,1,FALSE,,,,,,,,,,,,,,,,,,,,,,,,,,,,,,
,5f2dc3b1a2052d0fc281a2c4,001,2022-04-28_20h08.50.279,classification_task,2021.2.3,Win32,144.1129846,5f2dc3b1a2052d0fc281a2c4,626b377229c10585ec392f89,626b39f0caf0a8250640b10e,,,,,,,,,,,,,,,,,,,,,,,l,1,1.7679,"[""0.689"",""0.125"",""0.649"",""0.804""]","[0,1,1,1]",0,21,21,21,1,1,0,,,1,FALSE,,,,,,,,,,,,,,,,,,,,,,,,,,,,,,
,5f2dc3b1a2052d0fc281a2c4,001,2022-04-28_20h08.50.279,classification_task,2021.2.3,Win32,144.1129846,5f2dc3b1a2052d0fc281a2c4,626b377229c10585ec392f89,626b39f0caf0a8250640b10e,,,,,,,,,,,,,,,,,,,,,,,l,1,2.0139,"[""0.046"",""0.399"",""0.562"",""0.728""]","[1,0,1,1]",0,22,22,22,1,1,1,,,1,FALSE,,,,,,,,,,,,,,,,,,,,,,,,,,,,,,
,5f2dc3b1a2052d0fc281a2c4,001,2022-04-28_20h08.50.279,classification_task,2021.2.3,Win32,144.1129846,5f2dc3b1a2052d0fc281a2c4,626b377229c10585ec392f89,626b39f0caf0a8250640b10e,,,,,,,,,,,,,,,,,,,,,,,a,0,1.3968,"[""0.422"",""0.301"",""0.562"",""0.728""]","[0,1,1,1]",0,23,23,23,1,1,1,,,1,FALSE,,,,,,,,,,,,,,,,,,,,,,,,,,,,,,
,5f2dc3b1a2052d0fc281a2c4,001,2022-04-28_20h08.50.279,classification_task,2021.2.3,Win32,144.1129846,5f2dc3b1a2052d0fc281a2c4,626b377229c10585ec392f89,626b39f0caf0a8250640b10e,,,,,,,,,,,,,,,,,,,,,,,l,0,1.6681,"[""0.225"",""0.459"",""0.180"",""0.873""]","[1,1,0,1]",0,24,24,24,1,0,1,,,1,FALSE,,,,,,,,,,,,,,,,,,,,,,,,,,,,,,
,5f2dc3b1a2052d0fc281a2c4,001,2022-04-28_20h08.50.279,classification_task,2021.2.3,Win32,144.1129846,5f2dc3b1a2052d0fc281a2c4,626b377229c10585ec392f89,626b39f0caf0a8250640b10e,,,,,,,,,,,,,,,,,,,,,,,l,1,1.3208,"[""0.046"",""0.301"",""0.562"",""0.605""]","[1,1,1,0]",0,25,25,25,1,1,1,,,1,FALSE,,,,,,,,,,,,,,,,,,,,,,,,,,,,,,
,5f2dc3b1a2052d0fc281a2c4,001,2022-04-28_20h08.50.279,classification_task,2021.2.3,Win32,144.1129846,5f2dc3b1a2052d0fc281a2c4,626b377229c10585ec392f89,626b39f0caf0a8250640b10e,,,,,,,,,,,,,,,,,,,,,,,a,1,1.7609,"[""0.692"",""0.459"",""0.839"",""0.873""]","[0,1,1,1]",0,26,26,26,1,0,1,,,1,FALSE,,,,,,,,,,,,,,,,,,,,,,,,,,,,,,
,5f2dc3b1a2052d0fc281a2c4,001,2022-04-28_20h08.50.279,classification_task,2021.2.3,Win32,144.1129846,5f2dc3b1a2052d0fc281a2c4,626b377229c10585ec392f89,626b39f0caf0a8250640b10e,,,,,,,,,,,,,,,,,,,,,,,l,0,2.2523,"[""0.264"",""0.180"",""0.907"",""0.957""]","[1,0,1,1]",0,27,27,27,1,0,0,,,1,FALSE,,,,,,,,,,,,,,,,,,,,,,,,,,,,,,
,5f2dc3b1a2052d0fc281a2c4,001,2022-04-28_20h08.50.279,classification_task,2021.2.3,Win32,144.1129846,5f2dc3b1a2052d0fc281a2c4,626b377229c10585ec392f89,626b39f0caf0a8250640b10e,,,,,,,,,,,,,,,,,,,,,,,a,1,3.5367,"[""0.264"",""0.495"",""0.692"",""0.957""]","[1,1,0,1]",0,28,28,28,1,0,0,,,1,FALSE,,,,,,,,,,,,,,,,,,,,,,,,,,,,,,
,5f2dc3b1a2052d0fc281a2c4,001,2022-04-28_20h08.50.279,classification_task,2021.2.3,Win32,144.1129846,5f2dc3b1a2052d0fc281a2c4,626b377229c10585ec392f89,626b39f0caf0a8250640b10e,,,,,,,,,,,,,,,,,,,,,,,l,1,3.4975,"[""0.046"",""0.301"",""0.416"",""0.728""]","[1,1,0,1]",0,29,29,29,1,1,1,,,1,FALSE,,,,,,,,,,,,,,,,,,,,,,,,,,,,,,
,5f2dc3b1a2052d0fc281a2c4,001,2022-04-28_20h08.50.279,classification_task,2021.2.3,Win32,144.1129846,5f2dc3b1a2052d0fc281a2c4,626b377229c10585ec392f89,626b39f0caf0a8250640b10e,,,,,,,,,,,,,,,,,,,,,,,a,1,1.2784,"[""0.225"",""0.459"",""0.839"",""0.601""]","[1,1,1,0]",0,30,30,30,1,0,1,,,1,FALSE,,,,,,,,,,,,,,,,,,,,,,,,,,,,,,
,5f2dc3b1a2052d0fc281a2c4,001,2022-04-28_20h08.50.279,classification_task,2021.2.3,Win32,144.1129846,5f2dc3b1a2052d0fc281a2c4,626b377229c10585ec392f89,626b39f0caf0a8250640b10e,,,,,,,,,,,,,,,,,,,,,,,a,1,2.5386,"[""0.601"",""0.495"",""0.907"",""0.957""]","[0,1,1,1]",0,31,31,31,1,0,0,,,1,FALSE,,,,,,,,,,,,,,,,,,,,,,,,,,,,,,
,5f2dc3b1a2052d0fc281a2c4,001,2022-04-28_20h08.50.279,classification_task,2021.2.3,Win32,144.1129846,5f2dc3b1a2052d0fc281a2c4,626b377229c10585ec392f89,626b39f0caf0a8250640b10e,,,,,,,,,,,,,,,,,,,,,,,a,1,2.7587,"[""0.399"",""0.459"",""0.839"",""0.873""]","[0,1,1,1]",0,32,32,32,1,0,1,,,1,FALSE,,,,,,,,,,,,,,,,,,,,,,,,,,,,,,
,5f2dc3b1a2052d0fc281a2c4,001,2022-04-28_20h08.50.279,classification_task,2021.2.3,Win32,144.1129846,5f2dc3b1a2052d0fc281a2c4,626b377229c10585ec392f89,626b39f0caf0a8250640b10e,,,,,,,,,,,,,,,,,,,,,,,a,0,3.6108,"[""0.601"",""0.125"",""0.649"",""0.804""]","[0,1,1,1]",0,33,33,33,1,1,0,,,1,FALSE,,,,,,,,,,,,,,,,,,,,,,,,,,,,,,
,5f2dc3b1a2052d0fc281a2c4,001,2022-04-28_20h08.50.279,classification_task,2021.2.3,Win32,144.1129846,5f2dc3b1a2052d0fc281a2c4,626b377229c10585ec392f89,626b39f0caf0a8250640b10e,,,,,,,,,,,,,,,,,,,,,,,l,1,1.5103,"[""0.046"",""0.399"",""0.562"",""0.728""]","[1,0,1,1]",0,34,34,34,1,1,1,,,1,FALSE,,,,,,,,,,,,,,,,,,,,,,,,,,,,,,
,5f2dc3b1a2052d0fc281a2c4,001,2022-04-28_20h08.50.279,classification_task,2021.2.3,Win32,144.1129846,5f2dc3b1a2052d0fc281a2c4,626b377229c10585ec392f89,626b39f0caf0a8250640b10e,,,,,,,,,,,,,,,,,,,,,,,a,1,1.1831,"[""0.225"",""0.459"",""0.839"",""0.768""]","[1,1,1,0]",0,35,35,35,1,0,1,,,1,FALSE,,,,,,,,,,,,,,,,,,,,,,,,,,,,,,
,5f2dc3b1a2052d0fc281a2c4,001,2022-04-28_20h08.50.279,classification_task,2021.2.3,Win32,144.1129846,5f2dc3b1a2052d0fc281a2c4,626b377229c10585ec392f89,626b39f0caf0a8250640b10e,,,,,,,,,,,,,,,,,,,,,,,a,1,1.3619,"[""0.225"",""0.459"",""0.400"",""0.873""]","[1,1,0,1]",0,36,36,36,1,0,1,,,1,FALSE,,,,,,,,,,,,,,,,,,,,,,,,,,,,,,
,5f2dc3b1a2052d0fc281a2c4,001,2022-04-28_20h08.50.279,classification_task,2021.2.3,Win32,144.1129846,5f2dc3b1a2052d0fc281a2c4,626b377229c10585ec392f89,626b39f0caf0a8250640b10e,,,,,,,,,,,,,,,,,,,,,,,a,1,1.2578,"[""0.225"",""0.605"",""0.839"",""0.873""]","[1,0,1,1]",0,37,37,37,1,0,1,,,1,FALSE,,,,,,,,,,,,,,,,,,,,,,,,,,,,,,
,5f2dc3b1a2052d0fc281a2c4,001,2022-04-28_20h08.50.279,classification_task,2021.2.3,Win32,144.1129846,5f2dc3b1a2052d0fc281a2c4,626b377229c10585ec392f89,626b39f0caf0a8250640b10e,,,,,,,,,,,,,,,,,,,,,,,a,1,1.6506,"[""0.264"",""0.495"",""0.907"",""0.416""]","[1,1,1,0]",0,38,38,38,1,0,0,,,1,FALSE,,,,,,,,,,,,,,,,,,,,,,,,,,,,,,
,5f2dc3b1a2052d0fc281a2c4,001,2022-04-28_20h08.50.279,classification_task,2021.2.3,Win32,144.1129846,5f2dc3b1a2052d0fc281a2c4,626b377229c10585ec392f89,626b39f0caf0a8250640b10e,,,,,,,,,,,,,,,,,,,,,,,a,1,1.3935,"[""0.264"",""0.495"",""0.171"",""0.957""]","[1,1,0,1]",0,39,39,39,1,0,0,,,1,FALSE,,,,,,,,,,,,,,,,,,,,,,,,,,,,,,
,5f2dc3b1a2052d0fc281a2c4,001,2022-04-28_20h08.50.279,classification_task,2021.2.3,Win32,144.1129846,5f2dc3b1a2052d0fc281a2c4,626b377229c10585ec392f89,626b39f0caf0a8250640b10e,,,,,,,,,,,,,,,,,,,,,,,l,1,1.748,"[""0.596"",""0.301"",""0.562"",""0.728""]","[0,1,1,1]",0,40,40,40,1,1,1,,,1,FALSE,,,,,,,,,,,,,,,,,,,,,,,,,,,,,,
,5f2dc3b1a2052d0fc281a2c4,001,2022-04-28_20h08.50.279,classification_task,2021.2.3,Win32,144.1129846,5f2dc3b1a2052d0fc281a2c4,626b377229c10585ec392f89,626b39f0caf0a8250640b10e,,,,,,,,,,,,,,,,,,,,,,,l,1,0.8204,"[""0.085"",""0.596"",""0.649"",""0.804""]","[1,0,1,1]",0,41,41,41,1,1,0,,,1,FALSE,,,,,,,,,,,,,,,,,,,,,,,,,,,,,,
,5f2dc3b1a2052d0fc281a2c4,001,2022-04-28_20h08.50.279,classification_task,2021.2.3,Win32,144.1129846,5f2dc3b1a2052d0fc281a2c4,626b377229c10585ec392f89,626b39f0caf0a8250640b10e,,,,,,,,,,,,,,,,,,,,,,,l,1,1.0166,"[""0.046"",""0.301"",""0.562"",""0.601""]","[1,1,1,0]",0,42,42,42,1,1,1,,,1,FALSE,,,,,,,,,,,,,,,,,,,,,,,,,,,,,,
,5f2dc3b1a2052d0fc281a2c4,001,2022-04-28_20h08.50.279,classification_task,2021.2.3,Win32,144.1129846,5f2dc3b1a2052d0fc281a2c4,626b377229c10585ec392f89,626b39f0caf0a8250640b10e,,,,,,,,,,,,,,,,,,,,,,,a,1,1.0185,"[""0.264"",""0.190"",""0.907"",""0.957""]","[1,0,1,1]",0,43,43,43,1,0,0,,,1,FALSE,,,,,,,,,,,,,,,,,,,,,,,,,,,,,,
,5f2dc3b1a2052d0fc281a2c4,001,2022-04-28_20h08.50.279,classification_task,2021.2.3,Win32,144.1129846,5f2dc3b1a2052d0fc281a2c4,626b377229c10585ec392f89,626b39f0caf0a8250640b10e,,,,,,,,,,,,,,,,,,,,,,,l,1,0.9482,"[""0.085"",""0.125"",""0.649"",""0.601""]","[1,1,1,0]",0,44,44,44,1,1,0,,,1,FALSE,,,,,,,,,,,,,,,,,,,,,,,,,,,,,,
,5f2dc3b1a2052d0fc281a2c4,001,2022-04-28_20h08.50.279,classification_task,2021.2.3,Win32,144.1129846,5f2dc3b1a2052d0fc281a2c4,626b377229c10585ec392f89,626b39f0caf0a8250640b10e,,,,,,,,,,,,,,,,,,,,,,,l,1,0.8995,"[""0.046"",""0.301"",""0.422"",""0.728""]","[1,1,0,1]",0,45,45,45,1,1,1,,,1,FALSE,,,,,,,,,,,,,,,,,,,,,,,,,,,,,,
,5f2dc3b1a2052d0fc281a2c4,001,2022-04-28_20h08.50.279,classification_task,2021.2.3,Win32,144.1129846,5f2dc3b1a2052d0fc281a2c4,626b377229c10585ec392f89,626b39f0caf0a8250640b10e,,,,,,,,,,,,,,,,,,,,,,,a,1,1.0355,"[""0.400"",""0.495"",""0.907"",""0.957""]","[0,1,1,1]",0,46,46,46,1,0,0,,,1,FALSE,,,,,,,,,,,,,,,,,,,,,,,,,,,,,,
,5f2dc3b1a2052d0fc281a2c4,001,2022-04-28_20h08.50.279,classification_task,2021.2.3,Win32,144.1129846,5f2dc3b1a2052d0fc281a2c4,626b377229c10585ec392f89,626b39f0caf0a8250640b10e,,,,,,,,,,,,,,,,,,,,,,,l,1,1.0725,"[""0.085"",""0.125"",""0.416"",""0.804""]","[1,1,0,1]",0,47,47,47,1,1,0,,,1,FALSE,,,,,,,,,,,,,,,,,,,,,,,,,,,,,,
,5f2dc3b1a2052d0fc281a2c4,001,2022-04-28_20h08.50.279,classification_task,2021.2.3,Win32,144.1129846,5f2dc3b1a2052d0fc281a2c4,626b377229c10585ec392f89,626b39f0caf0a8250640b10e,,,,,,,,,,,,,,,,,,,,,,,a,1,0.9312,"[""0.171"",""0.459"",""0.839"",""0.873""]","[0,1,1,1]",0,48,48,48,1,0,1,,,1,FALSE,,,,,,,,,,,,,,,,,,,,,,,,,,,,,,
,5f2dc3b1a2052d0fc281a2c4,001,2022-04-28_20h08.50.279,classification_task,2021.2.3,Win32,144.1129846,5f2dc3b1a2052d0fc281a2c4,626b377229c10585ec392f89,626b39f0caf0a8250640b10e,,,,,,,,,,,,,,,,,,,,,,,l,1,1.904,"[""0.085"",""0.400"",""0.649"",""0.804""]","[1,0,1,1]",0,49,49,49,1,1,0,,,1,FALSE,,,,,,,,,,,,,,,,,,,,,,,,,,,,,,
,5f2dc3b1a2052d0fc281a2c4,001,2022-04-28_20h08.50.279,classification_task,2021.2.3,Win32,144.1129846,5f2dc3b1a2052d0fc281a2c4,626b377229c10585ec392f89,626b39f0caf0a8250640b10e,,,,,,,,,,,,,,,,,,,,,,,a,0,3.7641,"[""0.180"",""0.125"",""0.649"",""0.804""]","[0,1,1,1]",0,50,50,50,1,1,0,,,1,FALSE,,,,,,,,,,,,,,,,,,,,,,,,,,,,,,
,5f2dc3b1a2052d0fc281a2c4,001,2022-04-28_20h08.50.279,classification_task,2021.2.3,Win32,144.1129846,5f2dc3b1a2052d0fc281a2c4,626b377229c10585ec392f89,626b39f0caf0a8250640b10e,,,,,,,,,,,,,,,,,,,,,,,l,1,1.4061,"[""0.046"",""0.301"",""0.562"",""0.596""]","[1,1,1,0]",0,51,51,51,1,1,1,,,1,FALSE,,,,,,,,,,,,,,,,,,,,,,,,,,,,,,
,5f2dc3b1a2052d0fc281a2c4,001,2022-04-28_20h08.50.279,classification_task,2021.2.3,Win32,144.1129846,5f2dc3b1a2052d0fc281a2c4,626b377229c10585ec392f89,626b39f0caf0a8250640b10e,,,,,,,,,,,,,,,,,,,,,,,a,1,1.4888,"[""0.399"",""0.495"",""0.907"",""0.957""]","[0,1,1,1]",0,52,52,52,1,0,0,,,1,FALSE,,,,,,,,,,,,,,,,,,,,,,,,,,,,,,
,5f2dc3b1a2052d0fc281a2c4,001,2022-04-28_20h08.50.279,classification_task,2021.2.3,Win32,144.1129846,5f2dc3b1a2052d0fc281a2c4,626b377229c10585ec392f89,626b39f0caf0a8250640b10e,,,,,,,,,,,,,,,,,,,,,,,a,1,3.533,"[""0.225"",""0.459"",""0.692"",""0.873""]","[1,1,0,1]",0,53,53,53,1,0,1,,,1,FALSE,,,,,,,,,,,,,,,,,,,,,,,,,,,,,,
,5f2dc3b1a2052d0fc281a2c4,001,2022-04-28_20h08.50.279,classification_task,2021.2.3,Win32,144.1129846,5f2dc3b1a2052d0fc281a2c4,626b377229c10585ec392f89,626b39f0caf0a8250640b10e,,,,,,,,,,,,,,,,,,,,,,,l,1,0.9483,"[""0.085"",""0.125"",""0.692"",""0.804""]","[1,1,0,1]",0,54,54,54,1,1,0,,,1,FALSE,,,,,,,,,,,,,,,,,,,,,,,,,,,,,,
,5f2dc3b1a2052d0fc281a2c4,001,2022-04-28_20h08.50.279,classification_task,2021.2.3,Win32,144.1129846,5f2dc3b1a2052d0fc281a2c4,626b377229c10585ec392f89,626b39f0caf0a8250640b10e,,,,,,,,,,,,,,,,,,,,,,,a,1,1.0646,"[""0.225"",""0.596"",""0.839"",""0.873""]","[1,0,1,1]",0,55,55,55,1,0,1,,,1,FALSE,,,,,,,,,,,,,,,,,,,,,,,,,,,,,,
,5f2dc3b1a2052d0fc281a2c4,001,2022-04-28_20h08.50.279,classification_task,2021.2.3,Win32,144.1129846,5f2dc3b1a2052d0fc281a2c4,626b377229c10585ec392f89,626b39f0caf0a8250640b10e,,,,,,,,,,,,,,,,,,,,,,,a,1,1.5938,"[""0.264"",""0.495"",""0.907"",""0.399""]","[1,1,1,0]",0,56,56,56,1,0,0,,,1,FALSE,,,,,,,,,,,,,,,,,,,,,,,,,,,,,,
,5f2dc3b1a2052d0fc281a2c4,001,2022-04-28_20h08.50.279,classification_task,2021.2.3,Win32,144.1129846,5f2dc3b1a2052d0fc281a2c4,626b377229c10585ec392f89,626b39f0caf0a8250640b10e,,,,,,,,,,,,,,,,,,,,,,,l,1,0.6671,"[""0.046"",""0.171"",""0.562"",""0.728""]","[1,0,1,1]",0,57,57,57,1,1,1,,,1,FALSE,,,,,,,,,,,,,,,,,,,,,,,,,,,,,,
,5f2dc3b1a2052d0fc281a2c4,001,2022-04-28_20h08.50.279,classification_task,2021.2.3,Win32,144.1129846,5f2dc3b1a2052d0fc281a2c4,626b377229c10585ec392f89,626b39f0caf0a8250640b10e,,,,,,,,,,,,,,,,,,,,,,,l,1,0.7852,"[""0.085"",""0.125"",""0.649"",""0.180""]","[1,1,1,0]",0,58,58,58,1,1,0,,,1,FALSE,,,,,,,,,,,,,,,,,,,,,,,,,,,,,,
,5f2dc3b1a2052d0fc281a2c4,001,2022-04-28_20h08.50.279,classification_task,2021.2.3,Win32,144.1129846,5f2dc3b1a2052d0fc281a2c4,626b377229c10585ec392f89,626b39f0caf0a8250640b10e,,,,,,,,,,,,,,,,,,,,,,,l,1,1.1273,"[""0.171"",""0.301"",""0.562"",""0.728""]","[0,1,1,1]",0,59,59,59,1,1,1,,,1,FALSE,,,,,,,,,,,,,,,,,,,,,,,,,,,,,,
,5f2dc3b1a2052d0fc281a2c4,001,2022-04-28_20h08.50.279,classification_task,2021.2.3,Win32,144.1129846,5f2dc3b1a2052d0fc281a2c4,626b377229c10585ec392f89,626b39f0caf0a8250640b10e,,,,,,,,,,,,,,,,,,,,,,,l,0,1.4037,"[""0.225"",""0.459"",""0.839"",""0.190""]","[1,1,1,0]",0,60,60,60,1,0,1,,,1,FALSE,,,,,,,,,,,,,,,,,,,,,,,,,,,,,,
,5f2dc3b1a2052d0fc281a2c4,001,2022-04-28_20h08.50.279,classification_task,2021.2.3,Win32,144.1129846,5f2dc3b1a2052d0fc281a2c4,626b377229c10585ec392f89,626b39f0caf0a8250640b10e,,,,,,,,,,,,,,,,,,,,,,,l,1,0.7587,"[""0.046"",""0.301"",""0.400"",""0.728""]","[1,1,0,1]",0,61,61,61,1,1,1,,,1,FALSE,,,,,,,,,,,,,,,,,,,,,,,,,,,,,,
,5f2dc3b1a2052d0fc281a2c4,001,2022-04-28_20h08.50.279,classification_task,2021.2.3,Win32,144.1129846,5f2dc3b1a2052d0fc281a2c4,626b377229c10585ec392f89,626b39f0caf0a8250640b10e,,,,,,,,,,,,,,,,,,,,,,,a,1,0.9215,"[""0.264"",""0.340"",""0.907"",""0.957""]","[1,0,1,1]",0,62,62,62,1,0,0,,,1,FALSE,,,,,,,,,,,,,,,,,,,,,,,,,,,,,,
,5f2dc3b1a2052d0fc281a2c4,001,2022-04-28_20h08.50.279,classification_task,2021.2.3,Win32,144.1129846,5f2dc3b1a2052d0fc281a2c4,626b377229c10585ec392f89,626b39f0caf0a8250640b10e,,,,,,,,,,,,,,,,,,,,,,,a,1,1.3728,"[""0.264"",""0.495"",""0.689"",""0.957""]","[1,1,0,1]",0,63,63,63,1,0,0,,,1,FALSE,,,,,,,,,,,,,,,,,,,,,,,,,,,,,,
,5f2dc3b1a2052d0fc281a2c4,001,2022-04-28_20h08.50.279,classification_task,2021.2.3,Win32,144.1129846,5f2dc3b1a2052d0fc281a2c4,626b377229c10585ec392f89,626b39f0caf0a8250640b10e,,,,,,,,,,,,,,,,,,,,,,,,,,,,,,,,,,,,,,,0, ,,0,10,2691.5318,0,0,0,0,1,2,1,,,,,,,,,,,,,,,,,
,5f2dc3b1a2052d0fc281a2c4,001,2022-04-28_20h08.50.279,classification_task,2021.2.3,Win32,144.1129846,5f2dc3b1a2052d0fc281a2c4,626b377229c10585ec392f89,626b39f0caf0a8250640b10e,,,,,,,,,,,,,,,,,,,,,,,,,,,,,,,,,,,,,,,1,  ,,0,7.20288578,2697.1104,0,0,0,0,1,2,1,,,,,,,,,,,,,,,,,
,5f2dc3b1a2052d0fc281a2c4,001,2022-04-28_20h08.50.279,classification_task,2021.2.3,Win32,144.1129846,5f2dc3b1a2052d0fc281a2c4,626b377229c10585ec392f89,626b39f0caf0a8250640b10e,,,,,,,,,,,,,,,,,,,,,,,,,,,,,,,,,,,,,,,2,  ,,0,2.81751131,2702.0256,0,0,0,0,1,2,1,,,,,,,,,,,,,,,,,
,5f2dc3b1a2052d0fc281a2c4,001,2022-04-28_20h08.50.279,classification_task,2021.2.3,Win32,144.1129846,5f2dc3b1a2052d0fc281a2c4,626b377229c10585ec392f89,626b39f0caf0a8250640b10e,,,,,,,,,,,,,,,,,,,,,,,,,,,,,,,,,,,,,,,,,,,,,0,0,0,0,1,,1,,,,,,,,,,,,,,,,,
,5f2dc3b1a2052d0fc281a2c4,001,2022-04-28_20h08.50.279,classification_task,2021.2.3,Win32,144.1129846,5f2dc3b1a2052d0fc281a2c4,626b377229c10585ec392f89,626b39f0caf0a8250640b10e,,,,,,,,,,,,,,,,,,,,,space,22.0813,a,1,2.2458,"[""0.225"",""0.459"",""0.605"",""0.873""]","[1,1,0,1]",0,0,0,0,1,0,1,,,1,FALSE,,,,,,,,,,,,,,,,,,,,,,,,,,,,,,
,5f2dc3b1a2052d0fc281a2c4,001,2022-04-28_20h08.50.279,classification_task,2021.2.3,Win32,144.1129846,5f2dc3b1a2052d0fc281a2c4,626b377229c10585ec392f89,626b39f0caf0a8250640b10e,,,,,,,,,,,,,,,,,,,,,,,a,1,1.1887,"[""0.264"",""0.689"",""0.907"",""0.957""]","[1,0,1,1]",0,1,1,1,1,0,0,,,1,FALSE,,,,,,,,,,,,,,,,,,,,,,,,,,,,,,
,5f2dc3b1a2052d0fc281a2c4,001,2022-04-28_20h08.50.279,classification_task,2021.2.3,Win32,144.1129846,5f2dc3b1a2052d0fc281a2c4,626b377229c10585ec392f89,626b39f0caf0a8250640b10e,,,,,,,,,,,,,,,,,,,,,,,l,1,1.7689,"[""0.046"",""0.301"",""0.422"",""0.728""]","[1,1,0,1]",0,2,2,2,1,1,1,,,1,FALSE,,,,,,,,,,,,,,,,,,,,,,,,,,,,,,
,5f2dc3b1a2052d0fc281a2c4,001,2022-04-28_20h08.50.279,classification_task,2021.2.3,Win32,144.1129846,5f2dc3b1a2052d0fc281a2c4,626b377229c10585ec392f89,626b39f0caf0a8250640b10e,,,,,,,,,,,,,,,,,,,,,,,a,1,1.376,"[""0.264"",""0.495"",""0.190"",""0.957""]","[1,1,0,1]",0,3,3,3,1,0,0,,,1,FALSE,,,,,,,,,,,,,,,,,,,,,,,,,,,,,,
,5f2dc3b1a2052d0fc281a2c4,001,2022-04-28_20h08.50.279,classification_task,2021.2.3,Win32,144.1129846,5f2dc3b1a2052d0fc281a2c4,626b377229c10585ec392f89,626b39f0caf0a8250640b10e,,,,,,,,,,,,,,,,,,,,,,,l,1,1.4129,"[""0.046"",""0.596"",""0.562"",""0.728""]","[1,0,1,1]",0,4,4,4,1,1,1,,,1,FALSE,,,,,,,,,,,,,,,,,,,,,,,,,,,,,,
,5f2dc3b1a2052d0fc281a2c4,001,2022-04-28_20h08.50.279,classification_task,2021.2.3,Win32,144.1129846,5f2dc3b1a2052d0fc281a2c4,626b377229c10585ec392f89,626b39f0caf0a8250640b10e,,,,,,,,,,,,,,,,,,,,,,,l,1,2.3702,"[""0.085"",""0.422"",""0.649"",""0.804""]","[1,0,1,1]",0,5,5,5,1,1,0,,,1,FALSE,,,,,,,,,,,,,,,,,,,,,,,,,,,,,,
,5f2dc3b1a2052d0fc281a2c4,001,2022-04-28_20h08.50.279,classification_task,2021.2.3,Win32,144.1129846,5f2dc3b1a2052d0fc281a2c4,626b377229c10585ec392f89,626b39f0caf0a8250640b10e,,,,,,,,,,,,,,,,,,,,,,,,0,,"[""0.692"",""0.301"",""0.562"",""0.728""]","[0,1,1,1]",0,6,6,6,1,1,1,,,1,FALSE,,,,,,,,,,,,,,,,,,,,,,,,,,,,,,
,5f2dc3b1a2052d0fc281a2c4,001,2022-04-28_20h08.50.279,classification_task,2021.2.3,Win32,144.1129846,5f2dc3b1a2052d0fc281a2c4,626b377229c10585ec392f89,626b39f0caf0a8250640b10e,,,,,,,,,,,,,,,,,,,,,,,l,1,1.7259,"[""0.085"",""0.125"",""0.400"",""0.804""]","[1,1,0,1]",0,7,7,7,1,1,0,,,1,FALSE,,,,,,,,,,,,,,,,,,,,,,,,,,,,,,
,5f2dc3b1a2052d0fc281a2c4,001,2022-04-28_20h08.50.279,classification_task,2021.2.3,Win32,144.1129846,5f2dc3b1a2052d0fc281a2c4,626b377229c10585ec392f89,626b39f0caf0a8250640b10e,,,,,,,,,,,,,,,,,,,,,,,a,1,1.0563,"[""0.225"",""0.422"",""0.839"",""0.873""]","[1,0,1,1]",0,8,8,8,1,0,1,,,1,FALSE,,,,,,,,,,,,,,,,,,,,,,,,,,,,,,
,5f2dc3b1a2052d0fc281a2c4,001,2022-04-28_20h08.50.279,classification_task,2021.2.3,Win32,144.1129846,5f2dc3b1a2052d0fc281a2c4,626b377229c10585ec392f89,626b39f0caf0a8250640b10e,,,,,,,,,,,,,,,,,,,,,,,a,1,0.9173,"[""0.422"",""0.459"",""0.839"",""0.873""]","[0,1,1,1]",0,9,9,9,1,0,1,,,1,FALSE,,,,,,,,,,,,,,,,,,,,,,,,,,,,,,
,5f2dc3b1a2052d0fc281a2c4,001,2022-04-28_20h08.50.279,classification_task,2021.2.3,Win32,144.1129846,5f2dc3b1a2052d0fc281a2c4,626b377229c10585ec392f89,626b39f0caf0a8250640b10e,,,,,,,,,,,,,,,,,,,,,,,a,1,3.1692,"[""0.225"",""0.459"",""0.839"",""0.419""]","[1,1,1,0]",0,10,10,10,1,0,1,,,1,FALSE,,,,,,,,,,,,,,,,,,,,,,,,,,,,,,
,5f2dc3b1a2052d0fc281a2c4,001,2022-04-28_20h08.50.279,classification_task,2021.2.3,Win32,144.1129846,5f2dc3b1a2052d0fc281a2c4,626b377229c10585ec392f89,626b39f0caf0a8250640b10e,,,,,,,,,,,,,,,,,,,,,,,l,1,2.0787,"[""0.046"",""0.301"",""0.562"",""0.419""]","[1,1,1,0]",0,11,11,11,1,1,1,,,1,FALSE,,,,,,,,,,,,,,,,,,,,,,,,,,,,,,
,5f2dc3b1a2052d0fc281a2c4,001,2022-04-28_20h08.50.279,classification_task,2021.2.3,Win32,144.1129846,5f2dc3b1a2052d0fc281a2c4,626b377229c10585ec392f89,626b39f0caf0a8250640b10e,,,,,,,,,,,,,,,,,,,,,,,a,1,0.8173,"[""0.366"",""0.495"",""0.907"",""0.957""]","[0,1,1,1]",0,12,12,12,1,0,0,,,1,FALSE,,,,,,,,,,,,,,,,,,,,,,,,,,,,,,
,5f2dc3b1a2052d0fc281a2c4,001,2022-04-28_20h08.50.279,classification_task,2021.2.3,Win32,144.1129846,5f2dc3b1a2052d0fc281a2c4,626b377229c10585ec392f89,626b39f0caf0a8250640b10e,,,,,,,,,,,,,,,,,,,,,,,a,1,1.1486,"[""0.264"",""0.495"",""0.907"",""0.340""]","[1,1,1,0]",0,13,13,13,1,0,0,,,1,FALSE,,,,,,,,,,,,,,,,,,,,,,,,,,,,,,
,5f2dc3b1a2052d0fc281a2c4,001,2022-04-28_20h08.50.279,classification_task,2021.2.3,Win32,144.1129846,5f2dc3b1a2052d0fc281a2c4,626b377229c10585ec392f89,626b39f0caf0a8250640b10e,,,,,,,,,,,,,,,,,,,,,,,l,1,1.9803,"[""0.689"",""0.125"",""0.649"",""0.804""]","[0,1,1,1]",0,14,14,14,1,1,0,,,1,FALSE,,,,,,,,,,,,,,,,,,,,,,,,,,,,,,
,5f2dc3b1a2052d0fc281a2c4,001,2022-04-28_20h08.50.279,classification_task,2021.2.3,Win32,144.1129846,5f2dc3b1a2052d0fc281a2c4,626b377229c10585ec392f89,626b39f0caf0a8250640b10e,,,,,,,,,,,,,,,,,,,,,,,l,1,1.5942,"[""0.085"",""0.125"",""0.649"",""0.605""]","[1,1,1,0]",0,15,15,15,1,1,0,,,1,FALSE,,,,,,,,,,,,,,,,,,,,,,,,,,,,,,
,5f2dc3b1a2052d0fc281a2c4,001,2022-04-28_20h08.50.279,classification_task,2021.2.3,Win32,144.1129846,5f2dc3b1a2052d0fc281a2c4,626b377229c10585ec392f89,626b39f0caf0a8250640b10e,,,,,,,,,,,,,,,,,,,,,,,a,1,0.7298,"[""0.225"",""0.400"",""0.839"",""0.873""]","[1,0,1,1]",0,16,16,16,1,0,1,,,1,FALSE,,,,,,,,,,,,,,,,,,,,,,,,,,,,,,
,5f2dc3b1a2052d0fc281a2c4,001,2022-04-28_20h08.50.279,classification_task,2021.2.3,Win32,144.1129846,5f2dc3b1a2052d0fc281a2c4,626b377229c10585ec392f89,626b39f0caf0a8250640b10e,,,,,,,,,,,,,,,,,,,,,,,a,1,0.7991,"[""0.419"",""0.495"",""0.907"",""0.957""]","[0,1,1,1]",0,17,17,17,1,0,0,,,1,FALSE,,,,,,,,,,,,,,,,,,,,,,,,,,,,,,
,5f2dc3b1a2052d0fc281a2c4,001,2022-04-28_20h08.50.279,classification_task,2021.2.3,Win32,144.1129846,5f2dc3b1a2052d0fc281a2c4,626b377229c10585ec392f89,626b39f0caf0a8250640b10e,,,,,,,,,,,,,,,,,,,,,,,l,1,1.0727,"[""0.768"",""0.125"",""0.649"",""0.804""]","[0,1,1,1]",0,18,18,18,1,1,0,,,1,FALSE,,,,,,,,,,,,,,,,,,,,,,,,,,,,,,
,5f2dc3b1a2052d0fc281a2c4,001,2022-04-28_20h08.50.279,classification_task,2021.2.3,Win32,144.1129846,5f2dc3b1a2052d0fc281a2c4,626b377229c10585ec392f89,626b39f0caf0a8250640b10e,,,,,,,,,,,,,,,,,,,,,,,l,1,1.3638,"[""0.085"",""0.125"",""0.649"",""0.190""]","[1,1,1,0]",0,19,19,19,1,1,0,,,1,FALSE,,,,,,,,,,,,,,,,,,,,,,,,,,,,,,
,5f2dc3b1a2052d0fc281a2c4,001,2022-04-28_20h08.50.279,classification_task,2021.2.3,Win32,144.1129846,5f2dc3b1a2052d0fc281a2c4,626b377229c10585ec392f89,626b39f0caf0a8250640b10e,,,,,,,,,,,,,,,,,,,,,,,a,1,0.7113,"[""0.264"",""0.495"",""0.689"",""0.957""]","[1,1,0,1]",0,20,20,20,1,0,0,,,1,FALSE,,,,,,,,,,,,,,,,,,,,,,,,,,,,,,
,5f2dc3b1a2052d0fc281a2c4,001,2022-04-28_20h08.50.279,classification_task,2021.2.3,Win32,144.1129846,5f2dc3b1a2052d0fc281a2c4,626b377229c10585ec392f89,626b39f0caf0a8250640b10e,,,,,,,,,,,,,,,,,,,,,,,l,1,1.091,"[""0.046"",""0.419"",""0.562"",""0.728""]","[1,0,1,1]",0,21,21,21,1,1,1,,,1,FALSE,,,,,,,,,,,,,,,,,,,,,,,,,,,,,,
,5f2dc3b1a2052d0fc281a2c4,001,2022-04-28_20h08.50.279,classification_task,2021.2.3,Win32,144.1129846,5f2dc3b1a2052d0fc281a2c4,626b377229c10585ec392f89,626b39f0caf0a8250640b10e,,,,,,,,,,,,,,,,,,,,,,,l,1,1.1465,"[""0.046"",""0.301"",""0.768"",""0.728""]","[1,1,0,1]",0,22,22,22,1,1,1,,,1,FALSE,,,,,,,,,,,,,,,,,,,,,,,,,,,,,,
,5f2dc3b1a2052d0fc281a2c4,001,2022-04-28_20h08.50.279,classification_task,2021.2.3,Win32,144.1129846,5f2dc3b1a2052d0fc281a2c4,626b377229c10585ec392f89,626b39f0caf0a8250640b10e,,,,,,,,,,,,,,,,,,,,,,,a,1,0.8549,"[""0.264"",""0.190"",""0.907"",""0.957""]","[1,0,1,1]",0,23,23,23,1,0,0,,,1,FALSE,,,,,,,,,,,,,,,,,,,,,,,,,,,,,,
,5f2dc3b1a2052d0fc281a2c4,001,2022-04-28_20h08.50.279,classification_task,2021.2.3,Win32,144.1129846,5f2dc3b1a2052d0fc281a2c4,626b377229c10585ec392f89,626b39f0caf0a8250640b10e,,,,,,,,,,,,,,,,,,,,,,,l,1,1.091,"[""0.046"",""0.301"",""0.562"",""0.400""]","[1,1,1,0]",0,24,24,24,1,1,1,,,1,FALSE,,,,,,,,,,,,,,,,,,,,,,,,,,,,,,
,5f2dc3b1a2052d0fc281a2c4,001,2022-04-28_20h08.50.279,classification_task,2021.2.3,Win32,144.1129846,5f2dc3b1a2052d0fc281a2c4,626b377229c10585ec392f89,626b39f0caf0a8250640b10e,,,,,,,,,,,,,,,,,,,,,,,a,0,1.0931,"[""0.085"",""0.171"",""0.649"",""0.804""]","[1,0,1,1]",0,25,25,25,1,1,0,,,1,FALSE,,,,,,,,,,,,,,,,,,,,,,,,,,,,,,
,5f2dc3b1a2052d0fc281a2c4,001,2022-04-28_20h08.50.279,classification_task,2021.2.3,Win32,144.1129846,5f2dc3b1a2052d0fc281a2c4,626b377229c10585ec392f89,626b39f0caf0a8250640b10e,,,,,,,,,,,,,,,,,,,,,,,a,1,1.0023,"[""0.596"",""0.459"",""0.839"",""0.873""]","[0,1,1,1]",0,26,26,26,1,0,1,,,1,FALSE,,,,,,,,,,,,,,,,,,,,,,,,,,,,,,
,5f2dc3b1a2052d0fc281a2c4,001,2022-04-28_20h08.50.279,classification_task,2021.2.3,Win32,144.1129846,5f2dc3b1a2052d0fc281a2c4,626b377229c10585ec392f89,626b39f0caf0a8250640b10e,,,,,,,,,,,,,,,,,,,,,,,a,1,1.2926,"[""0.264"",""0.495"",""0.907"",""0.596""]","[1,1,1,0]",0,27,27,27,1,0,0,,,1,FALSE,,,,,,,,,,,,,,,,,,,,,,,,,,,,,,
,5f2dc3b1a2052d0fc281a2c4,001,2022-04-28_20h08.50.279,classification_task,2021.2.3,Win32,144.1129846,5f2dc3b1a2052d0fc281a2c4,626b377229c10585ec392f89,626b39f0caf0a8250640b10e,,,,,,,,,,,,,,,,,,,,,,,a,1,1.8141,"[""0.225"",""0.459"",""0.839"",""0.419""]","[1,1,1,0]",0,28,28,28,1,0,1,,,1,FALSE,,,,,,,,,,,,,,,,,,,,,,,,,,,,,,
,5f2dc3b1a2052d0fc281a2c4,001,2022-04-28_20h08.50.279,classification_task,2021.2.3,Win32,144.1129846,5f2dc3b1a2052d0fc281a2c4,626b377229c10585ec392f89,626b39f0caf0a8250640b10e,,,,,,,,,,,,,,,,,,,,,,,l,1,0.7759,"[""0.085"",""0.125"",""0.399"",""0.804""]","[1,1,0,1]",0,29,29,29,1,1,0,,,1,FALSE,,,,,,,,,,,,,,,,,,,,,,,,,,,,,,
,5f2dc3b1a2052d0fc281a2c4,001,2022-04-28_20h08.50.279,classification_task,2021.2.3,Win32,144.1129846,5f2dc3b1a2052d0fc281a2c4,626b377229c10585ec392f89,626b39f0caf0a8250640b10e,,,,,,,,,,,,,,,,,,,,,,,a,0,3.8783,"[""0.601"",""0.301"",""0.562"",""0.728""]","[0,1,1,1]",0,30,30,30,1,1,1,,,1,FALSE,,,,,,,,,,,,,,,,,,,,,,,,,,,,,,
,5f2dc3b1a2052d0fc281a2c4,001,2022-04-28_20h08.50.279,classification_task,2021.2.3,Win32,144.1129846,5f2dc3b1a2052d0fc281a2c4,626b377229c10585ec392f89,626b39f0caf0a8250640b10e,,,,,,,,,,,,,,,,,,,,,,,a,1,2.7839,"[""0.225"",""0.459"",""0.190"",""0.873""]","[1,1,0,1]",0,31,31,31,1,0,1,,,1,FALSE,,,,,,,,,,,,,,,,,,,,,,,,,,,,,,
,5f2dc3b1a2052d0fc281a2c4,001,2022-04-28_20h08.50.279,classification_task,2021.2.3,Win32,144.1129846,5f2dc3b1a2052d0fc281a2c4,626b377229c10585ec392f89,626b39f0caf0a8250640b10e,,,,,,,,,,,,,,,,,,,,,,,l,1,1.0051,"[""0.190"",""0.125"",""0.649"",""0.804""]","[0,1,1,1]",0,32,32,32,1,1,0,,,1,FALSE,,,,,,,,,,,,,,,,,,,,,,,,,,,,,,
,5f2dc3b1a2052d0fc281a2c4,001,2022-04-28_20h08.50.279,classification_task,2021.2.3,Win32,144.1129846,5f2dc3b1a2052d0fc281a2c4,626b377229c10585ec392f89,626b39f0caf0a8250640b10e,,,,,,,,,,,,,,,,,,,,,,,a,1,1.288,"[""0.225"",""0.459"",""0.366"",""0.873""]","[1,1,0,1]",0,33,33,33,1,0,1,,,1,FALSE,,,,,,,,,,,,,,,,,,,,,,,,,,,,,,
,5f2dc3b1a2052d0fc281a2c4,001,2022-04-28_20h08.50.279,classification_task,2021.2.3,Win32,144.1129846,5f2dc3b1a2052d0fc281a2c4,626b377229c10585ec392f89,626b39f0caf0a8250640b10e,,,,,,,,,,,,,,,,,,,,,,,a,1,0.8757,"[""0.264"",""0.495"",""0.907"",""0.768""]","[1,1,1,0]",0,34,34,34,1,0,0,,,1,FALSE,,,,,,,,,,,,,,,,,,,,,,,,,,,,,,
,5f2dc3b1a2052d0fc281a2c4,001,2022-04-28_20h08.50.279,classification_task,2021.2.3,Win32,144.1129846,5f2dc3b1a2052d0fc281a2c4,626b377229c10585ec392f89,626b39f0caf0a8250640b10e,,,,,,,,,,,,,,,,,,,,,,,l,1,1.2234,"[""0.085"",""0.125"",""0.190"",""0.804""]","[1,1,0,1]",0,35,35,35,1,1,0,,,1,FALSE,,,,,,,,,,,,,,,,,,,,,,,,,,,,,,
,5f2dc3b1a2052d0fc281a2c4,001,2022-04-28_20h08.50.279,classification_task,2021.2.3,Win32,144.1129846,5f2dc3b1a2052d0fc281a2c4,626b377229c10585ec392f89,626b39f0caf0a8250640b10e,,,,,,,,,,,,,,,,,,,,,,,a,1,1.6193,"[""0.264"",""0.495"",""0.689"",""0.957""]","[1,1,0,1]",0,36,36,36,1,0,0,,,1,FALSE,,,,,,,,,,,,,,,,,,,,,,,,,,,,,,
,5f2dc3b1a2052d0fc281a2c4,001,2022-04-28_20h08.50.279,classification_task,2021.2.3,Win32,144.1129846,5f2dc3b1a2052d0fc281a2c4,626b377229c10585ec392f89,626b39f0caf0a8250640b10e,,,,,,,,,,,,,,,,,,,,,,,l,1,0.8193,"[""0.046"",""0.301"",""0.562"",""0.601""]","[1,1,1,0]",0,37,37,37,1,1,1,,,1,FALSE,,,,,,,,,,,,,,,,,,,,,,,,,,,,,,
,5f2dc3b1a2052d0fc281a2c4,001,2022-04-28_20h08.50.279,classification_task,2021.2.3,Win32,144.1129846,5f2dc3b1a2052d0fc281a2c4,626b377229c10585ec392f89,626b39f0caf0a8250640b10e,,,,,,,,,,,,,,,,,,,,,,,a,0,1.4825,"[""0.605"",""0.301"",""0.562"",""0.728""]","[0,1,1,1]",0,38,38,38,1,1,1,,,1,FALSE,,,,,,,,,,,,,,,,,,,,,,,,,,,,,,
,5f2dc3b1a2052d0fc281a2c4,001,2022-04-28_20h08.50.279,classification_task,2021.2.3,Win32,144.1129846,5f2dc3b1a2052d0fc281a2c4,626b377229c10585ec392f89,626b39f0caf0a8250640b10e,,,,,,,,,,,,,,,,,,,,,,,a,1,0.8801,"[""0.225"",""0.459"",""0.839"",""0.400""]","[1,1,1,0]",0,39,39,39,1,0,1,,,1,FALSE,,,,,,,,,,,,,,,,,,,,,,,,,,,,,,
,5f2dc3b1a2052d0fc281a2c4,001,2022-04-28_20h08.50.279,classification_task,2021.2.3,Win32,144.1129846,5f2dc3b1a2052d0fc281a2c4,626b377229c10585ec392f89,626b39f0caf0a8250640b10e,,,,,,,,,,,,,,,,,,,,,,,a,1,1.9388,"[""0.264"",""0.400"",""0.907"",""0.957""]","[1,0,1,1]",0,40,40,40,1,0,0,,,1,FALSE,,,,,,,,,,,,,,,,,,,,,,,,,,,,,,
,5f2dc3b1a2052d0fc281a2c4,001,2022-04-28_20h08.50.279,classification_task,2021.2.3,Win32,144.1129846,5f2dc3b1a2052d0fc281a2c4,626b377229c10585ec392f89,626b39f0caf0a8250640b10e,,,,,,,,,,,,,,,,,,,,,,,a,1,0.8963,"[""0.692"",""0.459"",""0.839"",""0.873""]","[0,1,1,1]",0,41,41,41,1,0,1,,,1,FALSE,,,,,,,,,,,,,,,,,,,,,,,,,,,,,,
,5f2dc3b1a2052d0fc281a2c4,001,2022-04-28_20h08.50.279,classification_task,2021.2.3,Win32,144.1129846,5f2dc3b1a2052d0fc281a2c4,626b377229c10585ec392f89,626b39f0caf0a8250640b10e,,,,,,,,,,,,,,,,,,,,,,,l,1,0.7366,"[""0.046"",""0.180"",""0.562"",""0.728""]","[1,0,1,1]",0,42,42,42,1,1,1,,,1,FALSE,,,,,,,,,,,,,,,,,,,,,,,,,,,,,,
,5f2dc3b1a2052d0fc281a2c4,001,2022-04-28_20h08.50.279,classification_task,2021.2.3,Win32,144.1129846,5f2dc3b1a2052d0fc281a2c4,626b377229c10585ec392f89,626b39f0caf0a8250640b10e,,,,,,,,,,,,,,,,,,,,,,,a,1,1.3978,"[""0.225"",""0.596"",""0.839"",""0.873""]","[1,0,1,1]",0,43,43,43,1,0,1,,,1,FALSE,,,,,,,,,,,,,,,,,,,,,,,,,,,,,,
,5f2dc3b1a2052d0fc281a2c4,001,2022-04-28_20h08.50.279,classification_task,2021.2.3,Win32,144.1129846,5f2dc3b1a2052d0fc281a2c4,626b377229c10585ec392f89,626b39f0caf0a8250640b10e,,,,,,,,,,,,,,,,,,,,,,,l,1,0.8341,"[""0.085"",""0.180"",""0.649"",""0.804""]","[1,0,1,1]",0,44,44,44,1,1,0,,,1,FALSE,,,,,,,,,,,,,,,,,,,,,,,,,,,,,,
,5f2dc3b1a2052d0fc281a2c4,001,2022-04-28_20h08.50.279,classification_task,2021.2.3,Win32,144.1129846,5f2dc3b1a2052d0fc281a2c4,626b377229c10585ec392f89,626b39f0caf0a8250640b10e,,,,,,,,,,,,,,,,,,,,,,,l,1,1.3918,"[""0.046"",""0.301"",""0.768"",""0.728""]","[1,1,0,1]",0,45,45,45,1,1,1,,,1,FALSE,,,,,,,,,,,,,,,,,,,,,,,,,,,,,,
,5f2dc3b1a2052d0fc281a2c4,001,2022-04-28_20h08.50.279,classification_task,2021.2.3,Win32,144.1129846,5f2dc3b1a2052d0fc281a2c4,626b377229c10585ec392f89,626b39f0caf0a8250640b10e,,,,,,,,,,,,,,,,,,,,,,,a,1,1.2303,"[""0.689"",""0.495"",""0.907"",""0.957""]","[0,1,1,1]",0,46,46,46,1,0,0,,,1,FALSE,,,,,,,,,,,,,,,,,,,,,,,,,,,,,,
,5f2dc3b1a2052d0fc281a2c4,001,2022-04-28_20h08.50.279,classification_task,2021.2.3,Win32,144.1129846,5f2dc3b1a2052d0fc281a2c4,626b377229c10585ec392f89,626b39f0caf0a8250640b10e,,,,,,,,,,,,,,,,,,,,,,,l,1,1.2857,"[""0.085"",""0.125"",""0.649"",""0.419""]","[1,1,1,0]",0,47,47,47,1,1,0,,,1,FALSE,,,,,,,,,,,,,,,,,,,,,,,,,,,,,,
,5f2dc3b1a2052d0fc281a2c4,001,2022-04-28_20h08.50.279,classification_task,2021.2.3,Win32,144.1129846,5f2dc3b1a2052d0fc281a2c4,626b377229c10585ec392f89,626b39f0caf0a8250640b10e,,,,,,,,,,,,,,,,,,,,,,,l,1,0.9771,"[""0.046"",""0.301"",""0.562"",""0.180""]","[1,1,1,0]",0,48,48,48,1,1,1,,,1,FALSE,,,,,,,,,,,,,,,,,,,,,,,,,,,,,,
,5f2dc3b1a2052d0fc281a2c4,001,2022-04-28_20h08.50.279,classification_task,2021.2.3,Win32,144.1129846,5f2dc3b1a2052d0fc281a2c4,626b377229c10585ec392f89,626b39f0caf0a8250640b10e,,,,,,,,,,,,,,,,,,,,,,,a,1,1.1812,"[""0.225"",""0.596"",""0.839"",""0.873""]","[1,0,1,1]",0,49,49,49,1,0,1,,,1,FALSE,,,,,,,,,,,,,,,,,,,,,,,,,,,,,,
,5f2dc3b1a2052d0fc281a2c4,001,2022-04-28_20h08.50.279,classification_task,2021.2.3,Win32,144.1129846,5f2dc3b1a2052d0fc281a2c4,626b377229c10585ec392f89,626b39f0caf0a8250640b10e,,,,,,,,,,,,,,,,,,,,,,,l,0,1.3353,"[""0.225"",""0.459"",""0.171"",""0.873""]","[1,1,0,1]",0,50,50,50,1,0,1,,,1,FALSE,,,,,,,,,,,,,,,,,,,,,,,,,,,,,,
,5f2dc3b1a2052d0fc281a2c4,001,2022-04-28_20h08.50.279,classification_task,2021.2.3,Win32,144.1129846,5f2dc3b1a2052d0fc281a2c4,626b377229c10585ec392f89,626b39f0caf0a8250640b10e,,,,,,,,,,,,,,,,,,,,,,,l,1,2.3141,"[""0.190"",""0.125"",""0.649"",""0.804""]","[0,1,1,1]",0,51,51,51,1,1,0,,,1,FALSE,,,,,,,,,,,,,,,,,,,,,,,,,,,,,,
,5f2dc3b1a2052d0fc281a2c4,001,2022-04-28_20h08.50.279,classification_task,2021.2.3,Win32,144.1129846,5f2dc3b1a2052d0fc281a2c4,626b377229c10585ec392f89,626b39f0caf0a8250640b10e,,,,,,,,,,,,,,,,,,,,,,,a,1,0.8896,"[""0.171"",""0.495"",""0.907"",""0.957""]","[0,1,1,1]",0,52,52,52,1,0,0,,,1,FALSE,,,,,,,,,,,,,,,,,,,,,,,,,,,,,,
,5f2dc3b1a2052d0fc281a2c4,001,2022-04-28_20h08.50.279,classification_task,2021.2.3,Win32,144.1129846,5f2dc3b1a2052d0fc281a2c4,626b377229c10585ec392f89,626b39f0caf0a8250640b10e,,,,,,,,,,,,,,,,,,,,,,,l,1,1.0006,"[""0.046"",""0.301"",""0.366"",""0.728""]","[1,1,0,1]",0,53,53,53,1,1,1,,,1,FALSE,,,,,,,,,,,,,,,,,,,,,,,,,,,,,,
,5f2dc3b1a2052d0fc281a2c4,001,2022-04-28_20h08.50.279,classification_task,2021.2.3,Win32,144.1129846,5f2dc3b1a2052d0fc281a2c4,626b377229c10585ec392f89,626b39f0caf0a8250640b10e,,,,,,,,,,,,,,,,,,,,,,,a,1,0.8964,"[""0.605"",""0.459"",""0.839"",""0.873""]","[0,1,1,1]",0,54,54,54,1,0,1,,,1,FALSE,,,,,,,,,,,,,,,,,,,,,,,,,,,,,,
,5f2dc3b1a2052d0fc281a2c4,001,2022-04-28_20h08.50.279,classification_task,2021.2.3,Win32,144.1129846,5f2dc3b1a2052d0fc281a2c4,626b377229c10585ec392f89,626b39f0caf0a8250640b10e,,,,,,,,,,,,,,,,,,,,,,,a,0,0.8964,"[""0.366"",""0.301"",""0.562"",""0.728""]","[0,1,1,1]",0,55,55,55,1,1,1,,,1,FALSE,,,,,,,,,,,,,,,,,,,,,,,,,,,,,,
,5f2dc3b1a2052d0fc281a2c4,001,2022-04-28_20h08.50.279,classification_task,2021.2.3,Win32,144.1129846,5f2dc3b1a2052d0fc281a2c4,626b377229c10585ec392f89,626b39f0caf0a8250640b10e,,,,,,,,,,,,,,,,,,,,,,,l,1,1.1745,"[""0.085"",""0.125"",""0.649"",""0.399""]","[1,1,1,0]",0,56,56,56,1,1,0,,,1,FALSE,,,,,,,,,,,,,,,,,,,,,,,,,,,,,,
,5f2dc3b1a2052d0fc281a2c4,001,2022-04-28_20h08.50.279,classification_task,2021.2.3,Win32,144.1129846,5f2dc3b1a2052d0fc281a2c4,626b377229c10585ec392f89,626b39f0caf0a8250640b10e,,,,,,,,,,,,,,,,,,,,,,,a,1,1.3482,"[""0.264"",""0.495"",""0.907"",""0.601""]","[1,1,1,0]",0,57,57,57,1,0,0,,,1,FALSE,,,,,,,,,,,,,,,,,,,,,,,,,,,,,,
,5f2dc3b1a2052d0fc281a2c4,001,2022-04-28_20h08.50.279,classification_task,2021.2.3,Win32,144.1129846,5f2dc3b1a2052d0fc281a2c4,626b377229c10585ec392f89,626b39f0caf0a8250640b10e,,,,,,,,,,,,,,,,,,,,,,,a,1,5.4522,"[""0.264"",""0.495"",""0.190"",""0.957""]","[1,1,0,1]",0,58,58,58,1,0,0,,,1,FALSE,,,,,,,,,,,,,,,,,,,,,,,,,,,,,,
,5f2dc3b1a2052d0fc281a2c4,001,2022-04-28_20h08.50.279,classification_task,2021.2.3,Win32,144.1129846,5f2dc3b1a2052d0fc281a2c4,626b377229c10585ec392f89,626b39f0caf0a8250640b10e,,,,,,,,,,,,,,,,,,,,,,,l,0,1.6928,"[""0.225"",""0.459"",""0.839"",""0.190""]","[1,1,1,0]",0,59,59,59,1,0,1,,,1,FALSE,,,,,,,,,,,,,,,,,,,,,,,,,,,,,,
,5f2dc3b1a2052d0fc281a2c4,001,2022-04-28_20h08.50.279,classification_task,2021.2.3,Win32,144.1129846,5f2dc3b1a2052d0fc281a2c4,626b377229c10585ec392f89,626b39f0caf0a8250640b10e,,,,,,,,,,,,,,,,,,,,,,,a,1,1.2947,"[""0.264"",""0.422"",""0.907"",""0.957""]","[1,0,1,1]",0,60,60,60,1,0,0,,,1,FALSE,,,,,,,,,,,,,,,,,,,,,,,,,,,,,,
,5f2dc3b1a2052d0fc281a2c4,001,2022-04-28_20h08.50.279,classification_task,2021.2.3,Win32,144.1129846,5f2dc3b1a2052d0fc281a2c4,626b377229c10585ec392f89,626b39f0caf0a8250640b10e,,,,,,,,,,,,,,,,,,,,,,,l,1,0.7784,"[""0.085"",""0.692"",""0.649"",""0.804""]","[1,0,1,1]",0,61,61,61,1,1,0,,,1,FALSE,,,,,,,,,,,,,,,,,,,,,,,,,,,,,,
,5f2dc3b1a2052d0fc281a2c4,001,2022-04-28_20h08.50.279,classification_task,2021.2.3,Win32,144.1129846,5f2dc3b1a2052d0fc281a2c4,626b377229c10585ec392f89,626b39f0caf0a8250640b10e,,,,,,,,,,,,,,,,,,,,,,,l,1,0.7782,"[""0.085"",""0.125"",""0.689"",""0.804""]","[1,1,0,1]",0,62,62,62,1,1,0,,,1,FALSE,,,,,,,,,,,,,,,,,,,,,,,,,,,,,,
,5f2dc3b1a2052d0fc281a2c4,001,2022-04-28_20h08.50.279,classification_task,2021.2.3,Win32,144.1129846,5f2dc3b1a2052d0fc281a2c4,626b377229c10585ec392f89,626b39f0caf0a8250640b10e,,,,,,,,,,,,,,,,,,,,,,,l,1,1.0353,"[""0.046"",""0.605"",""0.562"",""0.728""]","[1,0,1,1]",0,63,63,63,1,1,1,,,1,FALSE,,,,,,,,,,,,,,,,,,,,,,,,,,,,,,
,5f2dc3b1a2052d0fc281a2c4,001,2022-04-28_20h08.50.279,classification_task,2021.2.3,Win32,144.1129846,5f2dc3b1a2052d0fc281a2c4,626b377229c10585ec392f89,626b39f0caf0a8250640b10e,,,,,,,,,,,,,,,,,,,,,,,,,,,,,,,,,,,,,,,0, ,,0,8.610285029,197.0867,0,1,1,1,1,2,2,,,,,,,,,,,,,,,,,
,5f2dc3b1a2052d0fc281a2c4,001,2022-04-28_20h08.50.279,classification_task,2021.2.3,Win32,144.1129846,5f2dc3b1a2052d0fc281a2c4,626b377229c10585ec392f89,626b39f0caf0a8250640b10e,,,,,,,,,,,,,,,,,,,,,,,,,,,,,,,,,,,,,,,1,  ,,0,9.161006474,199.7759,0,1,1,1,1,2,2,,,,,,,,,,,,,,,,,
,5f2dc3b1a2052d0fc281a2c4,001,2022-04-28_20h08.50.279,classification_task,2021.2.3,Win32,144.1129846,5f2dc3b1a2052d0fc281a2c4,626b377229c10585ec392f89,626b39f0caf0a8250640b10e,,,,,,,,,,,,,,,,,,,,,,,,,,,,,,,,,,,,,,,2,  ,,0,6.917326513,204.0911,0,1,1,1,1,2,2,,,,,,,,,,,,,,,,,
,5f2dc3b1a2052d0fc281a2c4,001,2022-04-28_20h08.50.279,classification_task,2021.2.3,Win32,144.1129846,5f2dc3b1a2052d0fc281a2c4,626b377229c10585ec392f89,626b39f0caf0a8250640b10e,,,,,,,,,,,,,,,,,,,,,,,,,,,,,,,,,,,,,,,,,,,,,0,1,1,1,1,,2,,,,,,,,,,,,,,,,,
,5f2dc3b1a2052d0fc281a2c4,001,2022-04-28_20h08.50.279,classification_task,2021.2.3,Win32,144.1129846,5f2dc3b1a2052d0fc281a2c4,626b377229c10585ec392f89,626b39f0caf0a8250640b10e,,,,,,,,,,,,,,,,,,,,,space,7.4903,a,1,1.3487,"[""0.225"",""0.459"",""0.839"",""0.692""]","[1,1,1,0]",0,0,0,0,1,0,1,,,1,FALSE,,,,,,,,,,,,,,,,,,,,,,,,,,,,,,
,5f2dc3b1a2052d0fc281a2c4,001,2022-04-28_20h08.50.279,classification_task,2021.2.3,Win32,144.1129846,5f2dc3b1a2052d0fc281a2c4,626b377229c10585ec392f89,626b39f0caf0a8250640b10e,,,,,,,,,,,,,,,,,,,,,,,l,1,1.2439,"[""0.419"",""0.125"",""0.649"",""0.804""]","[0,1,1,1]",0,1,1,1,1,1,0,,,1,FALSE,,,,,,,,,,,,,,,,,,,,,,,,,,,,,,
,5f2dc3b1a2052d0fc281a2c4,001,2022-04-28_20h08.50.279,classification_task,2021.2.3,Win32,144.1129846,5f2dc3b1a2052d0fc281a2c4,626b377229c10585ec392f89,626b39f0caf0a8250640b10e,,,,,,,,,,,,,,,,,,,,,,,l,1,0.9907,"[""0.046"",""0.301"",""0.562"",""0.400""]","[1,1,1,0]",0,2,2,2,1,1,1,,,1,FALSE,,,,,,,,,,,,,,,,,,,,,,,,,,,,,,
,5f2dc3b1a2052d0fc281a2c4,001,2022-04-28_20h08.50.279,classification_task,2021.2.3,Win32,144.1129846,5f2dc3b1a2052d0fc281a2c4,626b377229c10585ec392f89,626b39f0caf0a8250640b10e,,,,,,,,,,,,,,,,,,,,,,,a,1,0.9033,"[""0.180"",""0.495"",""0.907"",""0.957""]","[0,1,1,1]",0,3,3,3,1,0,0,,,1,FALSE,,,,,,,,,,,,,,,,,,,,,,,,,,,,,,
,5f2dc3b1a2052d0fc281a2c4,001,2022-04-28_20h08.50.279,classification_task,2021.2.3,Win32,144.1129846,5f2dc3b1a2052d0fc281a2c4,626b377229c10585ec392f89,626b39f0caf0a8250640b10e,,,,,,,,,,,,,,,,,,,,,,,a,1,1.0562,"[""0.264"",""0.495"",""0.399"",""0.957""]","[1,1,0,1]",0,4,4,4,1,0,0,,,1,FALSE,,,,,,,,,,,,,,,,,,,,,,,,,,,,,,
,5f2dc3b1a2052d0fc281a2c4,001,2022-04-28_20h08.50.279,classification_task,2021.2.3,Win32,144.1129846,5f2dc3b1a2052d0fc281a2c4,626b377229c10585ec392f89,626b39f0caf0a8250640b10e,,,,,,,,,,,,,,,,,,,,,,,a,1,2.6335,"[""0.225"",""0.190"",""0.839"",""0.873""]","[1,0,1,1]",0,5,5,5,1,0,1,,,1,FALSE,,,,,,,,,,,,,,,,,,,,,,,,,,,,,,
,5f2dc3b1a2052d0fc281a2c4,001,2022-04-28_20h08.50.279,classification_task,2021.2.3,Win32,144.1129846,5f2dc3b1a2052d0fc281a2c4,626b377229c10585ec392f89,626b39f0caf0a8250640b10e,,,,,,,,,,,,,,,,,,,,,,,l,1,0.7806,"[""0.085"",""0.125"",""0.340"",""0.804""]","[1,1,0,1]",0,6,6,6,1,1,0,,,1,FALSE,,,,,,,,,,,,,,,,,,,,,,,,,,,,,,
,5f2dc3b1a2052d0fc281a2c4,001,2022-04-28_20h08.50.279,classification_task,2021.2.3,Win32,144.1129846,5f2dc3b1a2052d0fc281a2c4,626b377229c10585ec392f89,626b39f0caf0a8250640b10e,,,,,,,,,,,,,,,,,,,,,,,l,1,1.2855,"[""0.085"",""0.125"",""0.649"",""0.768""]","[1,1,1,0]",0,7,7,7,1,1,0,,,1,FALSE,,,,,,,,,,,,,,,,,,,,,,,,,,,,,,
,5f2dc3b1a2052d0fc281a2c4,001,2022-04-28_20h08.50.279,classification_task,2021.2.3,Win32,144.1129846,5f2dc3b1a2052d0fc281a2c4,626b377229c10585ec392f89,626b39f0caf0a8250640b10e,,,,,,,,,,,,,,,,,,,,,,,l,1,0.9251,"[""0.046"",""0.180"",""0.562"",""0.728""]","[1,0,1,1]",0,8,8,8,1,1,1,,,1,FALSE,,,,,,,,,,,,,,,,,,,,,,,,,,,,,,
,5f2dc3b1a2052d0fc281a2c4,001,2022-04-28_20h08.50.279,classification_task,2021.2.3,Win32,144.1129846,5f2dc3b1a2052d0fc281a2c4,626b377229c10585ec392f89,626b39f0caf0a8250640b10e,,,,,,,,,,,,,,,,,,,,,,,a,1,0.8414,"[""0.264"",""0.495"",""0.907"",""0.366""]","[1,1,1,0]",0,9,9,9,1,0,0,,,1,FALSE,,,,,,,,,,,,,,,,,,,,,,,,,,,,,,
,5f2dc3b1a2052d0fc281a2c4,001,2022-04-28_20h08.50.279,classification_task,2021.2.3,Win32,144.1129846,5f2dc3b1a2052d0fc281a2c4,626b377229c10585ec392f89,626b39f0caf0a8250640b10e,,,,,,,,,,,,,,,,,,,,,,,a,1,1.5147,"[""0.400"",""0.459"",""0.839"",""0.873""]","[0,1,1,1]",0,10,10,10,1,0,1,,,1,FALSE,,,,,,,,,,,,,,,,,,,,,,,,,,,,,,
,5f2dc3b1a2052d0fc281a2c4,001,2022-04-28_20h08.50.279,classification_task,2021.2.3,Win32,144.1129846,5f2dc3b1a2052d0fc281a2c4,626b377229c10585ec392f89,626b39f0caf0a8250640b10e,,,,,,,,,,,,,,,,,,,,,,,a,1,0.8871,"[""0.225"",""0.459"",""0.400"",""0.873""]","[1,1,0,1]",0,11,11,11,1,0,1,,,1,FALSE,,,,,,,,,,,,,,,,,,,,,,,,,,,,,,
,5f2dc3b1a2052d0fc281a2c4,001,2022-04-28_20h08.50.279,classification_task,2021.2.3,Win32,144.1129846,5f2dc3b1a2052d0fc281a2c4,626b377229c10585ec392f89,626b39f0caf0a8250640b10e,,,,,,,,,,,,,,,,,,,,,,,a,0,2.2452,"[""0.422"",""0.301"",""0.562"",""0.728""]","[0,1,1,1]",0,12,12,12,1,1,1,,,1,FALSE,,,,,,,,,,,,,,,,,,,,,,,,,,,,,,
,5f2dc3b1a2052d0fc281a2c4,001,2022-04-28_20h08.50.279,classification_task,2021.2.3,Win32,144.1129846,5f2dc3b1a2052d0fc281a2c4,626b377229c10585ec392f89,626b39f0caf0a8250640b10e,,,,,,,,,,,,,,,,,,,,,,,a,1,0.8868,"[""0.264"",""0.689"",""0.907"",""0.957""]","[1,0,1,1]",0,13,13,13,1,0,0,,,1,FALSE,,,,,,,,,,,,,,,,,,,,,,,,,,,,,,
,5f2dc3b1a2052d0fc281a2c4,001,2022-04-28_20h08.50.279,classification_task,2021.2.3,Win32,144.1129846,5f2dc3b1a2052d0fc281a2c4,626b377229c10585ec392f89,626b39f0caf0a8250640b10e,,,,,,,,,,,,,,,,,,,,,,,l,1,0.6401,"[""0.085"",""0.400"",""0.649"",""0.804""]","[1,0,1,1]",0,14,14,14,1,1,0,,,1,FALSE,,,,,,,,,,,,,,,,,,,,,,,,,,,,,,
,5f2dc3b1a2052d0fc281a2c4,001,2022-04-28_20h08.50.279,classification_task,2021.2.3,Win32,144.1129846,5f2dc3b1a2052d0fc281a2c4,626b377229c10585ec392f89,626b39f0caf0a8250640b10e,,,,,,,,,,,,,,,,,,,,,,,l,1,0.771,"[""0.046"",""0.301"",""0.768"",""0.728""]","[1,1,0,1]",0,15,15,15,1,1,1,,,1,FALSE,,,,,,,,,,,,,,,,,,,,,,,,,,,,,,
,5f2dc3b1a2052d0fc281a2c4,001,2022-04-28_20h08.50.279,classification_task,2021.2.3,Win32,144.1129846,5f2dc3b1a2052d0fc281a2c4,626b377229c10585ec392f89,626b39f0caf0a8250640b10e,,,,,,,,,,,,,,,,,,,,,,,l,1,1.0077,"[""0.085"",""0.125"",""0.649"",""0.180""]","[1,1,1,0]",0,16,16,16,1,1,0,,,1,FALSE,,,,,,,,,,,,,,,,,,,,,,,,,,,,,,
,5f2dc3b1a2052d0fc281a2c4,001,2022-04-28_20h08.50.279,classification_task,2021.2.3,Win32,144.1129846,5f2dc3b1a2052d0fc281a2c4,626b377229c10585ec392f89,626b39f0caf0a8250640b10e,,,,,,,,,,,,,,,,,,,,,,,a,1,0.7669,"[""0.225"",""0.416"",""0.839"",""0.873""]","[1,0,1,1]",0,17,17,17,1,0,1,,,1,FALSE,,,,,,,,,,,,,,,,,,,,,,,,,,,,,,
,5f2dc3b1a2052d0fc281a2c4,001,2022-04-28_20h08.50.279,classification_task,2021.2.3,Win32,144.1129846,5f2dc3b1a2052d0fc281a2c4,626b377229c10585ec392f89,626b39f0caf0a8250640b10e,,,,,,,,,,,,,,,,,,,,,,,l,1,1.0428,"[""0.046"",""0.366"",""0.562"",""0.728""]","[1,0,1,1]",0,18,18,18,1,1,1,,,1,FALSE,,,,,,,,,,,,,,,,,,,,,,,,,,,,,,
,5f2dc3b1a2052d0fc281a2c4,001,2022-04-28_20h08.50.279,classification_task,2021.2.3,Win32,144.1129846,5f2dc3b1a2052d0fc281a2c4,626b377229c10585ec392f89,626b39f0caf0a8250640b10e,,,,,,,,,,,,,,,,,,,,,,,l,1,1.0729,"[""0.085"",""0.180"",""0.649"",""0.804""]","[1,0,1,1]",0,19,19,19,1,1,0,,,1,FALSE,,,,,,,,,,,,,,,,,,,,,,,,,,,,,,
,5f2dc3b1a2052d0fc281a2c4,001,2022-04-28_20h08.50.279,classification_task,2021.2.3,Win32,144.1129846,5f2dc3b1a2052d0fc281a2c4,626b377229c10585ec392f89,626b39f0caf0a8250640b10e,,,,,,,,,,,,,,,,,,,,,,,a,1,1.5426,"[""0.180"",""0.459"",""0.839"",""0.873""]","[0,1,1,1]",0,20,20,20,1,0,1,,,1,FALSE,,,,,,,,,,,,,,,,,,,,,,,,,,,,,,
,5f2dc3b1a2052d0fc281a2c4,001,2022-04-28_20h08.50.279,classification_task,2021.2.3,Win32,144.1129846,5f2dc3b1a2052d0fc281a2c4,626b377229c10585ec392f89,626b39f0caf0a8250640b10e,,,,,,,,,,,,,,,,,,,,,,,l,1,0.8769,"[""0.046"",""0.301"",""0.562"",""0.768""]","[1,1,1,0]",0,21,21,21,1,1,1,,,1,FALSE,,,,,,,,,,,,,,,,,,,,,,,,,,,,,,
,5f2dc3b1a2052d0fc281a2c4,001,2022-04-28_20h08.50.279,classification_task,2021.2.3,Win32,144.1129846,5f2dc3b1a2052d0fc281a2c4,626b377229c10585ec392f89,626b39f0caf0a8250640b10e,,,,,,,,,,,,,,,,,,,,,,,l,1,1.6608,"[""0.416"",""0.125"",""0.649"",""0.804""]","[0,1,1,1]",0,22,22,22,1,1,0,,,1,FALSE,,,,,,,,,,,,,,,,,,,,,,,,,,,,,,
,5f2dc3b1a2052d0fc281a2c4,001,2022-04-28_20h08.50.279,classification_task,2021.2.3,Win32,144.1129846,5f2dc3b1a2052d0fc281a2c4,626b377229c10585ec392f89,626b39f0caf0a8250640b10e,,,,,,,,,,,,,,,,,,,,,,,l,1,0.8546,"[""0.085"",""0.125"",""0.190"",""0.804""]","[1,1,0,1]",0,23,23,23,1,1,0,,,1,FALSE,,,,,,,,,,,,,,,,,,,,,,,,,,,,,,
,5f2dc3b1a2052d0fc281a2c4,001,2022-04-28_20h08.50.279,classification_task,2021.2.3,Win32,144.1129846,5f2dc3b1a2052d0fc281a2c4,626b377229c10585ec392f89,626b39f0caf0a8250640b10e,,,,,,,,,,,,,,,,,,,,,,,a,1,0.6629,"[""0.422"",""0.495"",""0.907"",""0.957""]","[0,1,1,1]",0,24,24,24,1,0,0,,,1,FALSE,,,,,,,,,,,,,,,,,,,,,,,,,,,,,,
,5f2dc3b1a2052d0fc281a2c4,001,2022-04-28_20h08.50.279,classification_task,2021.2.3,Win32,144.1129846,5f2dc3b1a2052d0fc281a2c4,626b377229c10585ec392f89,626b39f0caf0a8250640b10e,,,,,,,,,,,,,,,,,,,,,,,a,0,0.8755,"[""0.689"",""0.301"",""0.562"",""0.728""]","[0,1,1,1]",0,25,25,25,1,1,1,,,1,FALSE,,,,,,,,,,,,,,,,,,,,,,,,,,,,,,
,5f2dc3b1a2052d0fc281a2c4,001,2022-04-28_20h08.50.279,classification_task,2021.2.3,Win32,144.1129846,5f2dc3b1a2052d0fc281a2c4,626b377229c10585ec392f89,626b39f0caf0a8250640b10e,,,,,,,,,,,,,,,,,,,,,,,a,1,1.4102,"[""0.264"",""0.495"",""0.907"",""0.768""]","[1,1,1,0]",0,26,26,26,1,0,0,,,1,FALSE,,,,,,,,,,,,,,,,,,,,,,,,,,,,,,
,5f2dc3b1a2052d0fc281a2c4,001,2022-04-28_20h08.50.279,classification_task,2021.2.3,Win32,144.1129846,5f2dc3b1a2052d0fc281a2c4,626b377229c10585ec392f89,626b39f0caf0a8250640b10e,,,,,,,,,,,,,,,,,,,,,,,l,1,0.8616,"[""0.046"",""0.301"",""0.400"",""0.728""]","[1,1,0,1]",0,27,27,27,1,1,1,,,1,FALSE,,,,,,,,,,,,,,,,,,,,,,,,,,,,,,
,5f2dc3b1a2052d0fc281a2c4,001,2022-04-28_20h08.50.279,classification_task,2021.2.3,Win32,144.1129846,5f2dc3b1a2052d0fc281a2c4,626b377229c10585ec392f89,626b39f0caf0a8250640b10e,,,,,,,,,,,,,,,,,,,,,,,l,0,0.9798,"[""0.264"",""0.495"",""0.180"",""0.957""]","[1,1,0,1]",0,28,28,28,1,0,0,,,1,FALSE,,,,,,,,,,,,,,,,,,,,,,,,,,,,,,
,5f2dc3b1a2052d0fc281a2c4,001,2022-04-28_20h08.50.279,classification_task,2021.2.3,Win32,144.1129846,5f2dc3b1a2052d0fc281a2c4,626b377229c10585ec392f89,626b39f0caf0a8250640b10e,,,,,,,,,,,,,,,,,,,,,,,a,1,0.8687,"[""0.225"",""0.459"",""0.839"",""0.399""]","[1,1,1,0]",0,29,29,29,1,0,1,,,1,FALSE,,,,,,,,,,,,,,,,,,,,,,,,,,,,,,
,5f2dc3b1a2052d0fc281a2c4,001,2022-04-28_20h08.50.279,classification_task,2021.2.3,Win32,144.1129846,5f2dc3b1a2052d0fc281a2c4,626b377229c10585ec392f89,626b39f0caf0a8250640b10e,,,,,,,,,,,,,,,,,,,,,,,a,1,1.7441,"[""0.264"",""0.416"",""0.907"",""0.957""]","[1,0,1,1]",0,30,30,30,1,0,0,,,1,FALSE,,,,,,,,,,,,,,,,,,,,,,,,,,,,,,
,5f2dc3b1a2052d0fc281a2c4,001,2022-04-28_20h08.50.279,classification_task,2021.2.3,Win32,144.1129846,5f2dc3b1a2052d0fc281a2c4,626b377229c10585ec392f89,626b39f0caf0a8250640b10e,,,,,,,,,,,,,,,,,,,,,,,l,0,3.0435,"[""0.225"",""0.459"",""0.171"",""0.873""]","[1,1,0,1]",0,31,31,31,1,0,1,,,1,FALSE,,,,,,,,,,,,,,,,,,,,,,,,,,,,,,
,5f2dc3b1a2052d0fc281a2c4,001,2022-04-28_20h08.50.279,classification_task,2021.2.3,Win32,144.1129846,5f2dc3b1a2052d0fc281a2c4,626b377229c10585ec392f89,626b39f0caf0a8250640b10e,,,,,,,,,,,,,,,,,,,,,,,l,1,0.8032,"[""0.085"",""0.399"",""0.649"",""0.804""]","[1,0,1,1]",0,32,32,32,1,1,0,,,1,FALSE,,,,,,,,,,,,,,,,,,,,,,,,,,,,,,
,5f2dc3b1a2052d0fc281a2c4,001,2022-04-28_20h08.50.279,classification_task,2021.2.3,Win32,144.1129846,5f2dc3b1a2052d0fc281a2c4,626b377229c10585ec392f89,626b39f0caf0a8250640b10e,,,,,,,,,,,,,,,,,,,,,,,l,1,0.8338,"[""0.046"",""0.301"",""0.562"",""0.419""]","[1,1,1,0]",0,33,33,33,1,1,1,,,1,FALSE,,,,,,,,,,,,,,,,,,,,,,,,,,,,,,
,5f2dc3b1a2052d0fc281a2c4,001,2022-04-28_20h08.50.279,classification_task,2021.2.3,Win32,144.1129846,5f2dc3b1a2052d0fc281a2c4,626b377229c10585ec392f89,626b39f0caf0a8250640b10e,,,,,,,,,,,,,,,,,,,,,,,a,1,1.822,"[""0.225"",""0.190"",""0.839"",""0.873""]","[1,0,1,1]",0,34,34,34,1,0,1,,,1,FALSE,,,,,,,,,,,,,,,,,,,,,,,,,,,,,,
,5f2dc3b1a2052d0fc281a2c4,001,2022-04-28_20h08.50.279,classification_task,2021.2.3,Win32,144.1129846,5f2dc3b1a2052d0fc281a2c4,626b377229c10585ec392f89,626b39f0caf0a8250640b10e,,,,,,,,,,,,,,,,,,,,,,,l,1,2.4708,"[""0.399"",""0.125"",""0.649"",""0.804""]","[0,1,1,1]",0,35,35,35,1,1,0,,,1,FALSE,,,,,,,,,,,,,,,,,,,,,,,,,,,,,,
,5f2dc3b1a2052d0fc281a2c4,001,2022-04-28_20h08.50.279,classification_task,2021.2.3,Win32,144.1129846,5f2dc3b1a2052d0fc281a2c4,626b377229c10585ec392f89,626b39f0caf0a8250640b10e,,,,,,,,,,,,,,,,,,,,,,,l,1,0.8646,"[""0.046"",""0.596"",""0.562"",""0.728""]","[1,0,1,1]",0,36,36,36,1,1,1,,,1,FALSE,,,,,,,,,,,,,,,,,,,,,,,,,,,,,,
,5f2dc3b1a2052d0fc281a2c4,001,2022-04-28_20h08.50.279,classification_task,2021.2.3,Win32,144.1129846,5f2dc3b1a2052d0fc281a2c4,626b377229c10585ec392f89,626b39f0caf0a8250640b10e,,,,,,,,,,,,,,,,,,,,,,,a,1,0.9103,"[""0.225"",""0.459"",""0.839"",""0.692""]","[1,1,1,0]",0,37,37,37,1,0,1,,,1,FALSE,,,,,,,,,,,,,,,,,,,,,,,,,,,,,,
,5f2dc3b1a2052d0fc281a2c4,001,2022-04-28_20h08.50.279,classification_task,2021.2.3,Win32,144.1129846,5f2dc3b1a2052d0fc281a2c4,626b377229c10585ec392f89,626b39f0caf0a8250640b10e,,,,,,,,,,,,,,,,,,,,,,,l,1,1.0075,"[""0.046"",""0.301"",""0.601"",""0.728""]","[1,1,0,1]",0,38,38,38,1,1,1,,,1,FALSE,,,,,,,,,,,,,,,,,,,,,,,,,,,,,,
,5f2dc3b1a2052d0fc281a2c4,001,2022-04-28_20h08.50.279,classification_task,2021.2.3,Win32,144.1129846,5f2dc3b1a2052d0fc281a2c4,626b377229c10585ec392f89,626b39f0caf0a8250640b10e,,,,,,,,,,,,,,,,,,,,,,,l,1,1.0146,"[""0.085"",""0.125"",""0.649"",""0.171""]","[1,1,1,0]",0,39,39,39,1,1,0,,,1,FALSE,,,,,,,,,,,,,,,,,,,,,,,,,,,,,,
,5f2dc3b1a2052d0fc281a2c4,001,2022-04-28_20h08.50.279,classification_task,2021.2.3,Win32,144.1129846,5f2dc3b1a2052d0fc281a2c4,626b377229c10585ec392f89,626b39f0caf0a8250640b10e,,,,,,,,,,,,,,,,,,,,,,,a,1,1.1682,"[""0.264"",""0.400"",""0.907"",""0.957""]","[1,0,1,1]",0,40,40,40,1,0,0,,,1,FALSE,,,,,,,,,,,,,,,,,,,,,,,,,,,,,,
,5f2dc3b1a2052d0fc281a2c4,001,2022-04-28_20h08.50.279,classification_task,2021.2.3,Win32,144.1129846,5f2dc3b1a2052d0fc281a2c4,626b377229c10585ec392f89,626b39f0caf0a8250640b10e,,,,,,,,,,,,,,,,,,,,,,,l,0,3.1615,"[""0.225"",""0.459"",""0.171"",""0.873""]","[1,1,0,1]",0,41,41,41,1,0,1,,,1,FALSE,,,,,,,,,,,,,,,,,,,,,,,,,,,,,,
,5f2dc3b1a2052d0fc281a2c4,001,2022-04-28_20h08.50.279,classification_task,2021.2.3,Win32,144.1129846,5f2dc3b1a2052d0fc281a2c4,626b377229c10585ec392f89,626b39f0caf0a8250640b10e,,,,,,,,,,,,,,,,,,,,,,,a,1,1.105,"[""0.692"",""0.459"",""0.839"",""0.873""]","[0,1,1,1]",0,42,42,42,1,0,1,,,1,FALSE,,,,,,,,,,,,,,,,,,,,,,,,,,,,,,
,5f2dc3b1a2052d0fc281a2c4,001,2022-04-28_20h08.50.279,classification_task,2021.2.3,Win32,144.1129846,5f2dc3b1a2052d0fc281a2c4,626b377229c10585ec392f89,626b39f0caf0a8250640b10e,,,,,,,,,,,,,,,,,,,,,,,l,0,1.3136,"[""0.264"",""0.495"",""0.907"",""0.190""]","[1,1,1,0]",0,43,43,43,1,0,0,,,1,FALSE,,,,,,,,,,,,,,,,,,,,,,,,,,,,,,
,5f2dc3b1a2052d0fc281a2c4,001,2022-04-28_20h08.50.279,classification_task,2021.2.3,Win32,144.1129846,5f2dc3b1a2052d0fc281a2c4,626b377229c10585ec392f89,626b39f0caf0a8250640b10e,,,,,,,,,,,,,,,,,,,,,,,a,1,1.2024,"[""0.601"",""0.495"",""0.907"",""0.957""]","[0,1,1,1]",0,44,44,44,1,0,0,,,1,FALSE,,,,,,,,,,,,,,,,,,,,,,,,,,,,,,
,5f2dc3b1a2052d0fc281a2c4,001,2022-04-28_20h08.50.279,classification_task,2021.2.3,Win32,144.1129846,5f2dc3b1a2052d0fc281a2c4,626b377229c10585ec392f89,626b39f0caf0a8250640b10e,,,,,,,,,,,,,,,,,,,,,,,a,1,2.4798,"[""0.264"",""0.495"",""0.692"",""0.957""]","[1,1,0,1]",0,45,45,45,1,0,0,,,1,FALSE,,,,,,,,,,,,,,,,,,,,,,,,,,,,,,
,5f2dc3b1a2052d0fc281a2c4,001,2022-04-28_20h08.50.279,classification_task,2021.2.3,Win32,144.1129846,5f2dc3b1a2052d0fc281a2c4,626b377229c10585ec392f89,626b39f0caf0a8250640b10e,,,,,,,,,,,,,,,,,,,,,,,a,0,1.4453,"[""0.605"",""0.301"",""0.562"",""0.728""]","[0,1,1,1]",0,46,46,46,1,1,1,,,1,FALSE,,,,,,,,,,,,,,,,,,,,,,,,,,,,,,
,5f2dc3b1a2052d0fc281a2c4,001,2022-04-28_20h08.50.279,classification_task,2021.2.3,Win32,144.1129846,5f2dc3b1a2052d0fc281a2c4,626b377229c10585ec392f89,626b39f0caf0a8250640b10e,,,,,,,,,,,,,,,,,,,,,,,l,1,0.7157,"[""0.085"",""0.125"",""0.400"",""0.804""]","[1,1,0,1]",0,47,47,47,1,1,0,,,1,FALSE,,,,,,,,,,,,,,,,,,,,,,,,,,,,,,
,5f2dc3b1a2052d0fc281a2c4,001,2022-04-28_20h08.50.279,classification_task,2021.2.3,Win32,144.1129846,5f2dc3b1a2052d0fc281a2c4,626b377229c10585ec392f89,626b39f0caf0a8250640b10e,,,,,,,,,,,,,,,,,,,,,,,l,1,0.6323,"[""0.085"",""0.125"",""0.649"",""0.596""]","[1,1,1,0]",0,48,48,48,1,1,0,,,1,FALSE,,,,,,,,,,,,,,,,,,,,,,,,,,,,,,
,5f2dc3b1a2052d0fc281a2c4,001,2022-04-28_20h08.50.279,classification_task,2021.2.3,Win32,144.1129846,5f2dc3b1a2052d0fc281a2c4,626b377229c10585ec392f89,626b39f0caf0a8250640b10e,,,,,,,,,,,,,,,,,,,,,,,a,1,0.6043,"[""0.264"",""0.495"",""0.907"",""0.422""]","[1,1,1,0]",0,49,49,49,1,0,0,,,1,FALSE,,,,,,,,,,,,,,,,,,,,,,,,,,,,,,
,5f2dc3b1a2052d0fc281a2c4,001,2022-04-28_20h08.50.279,classification_task,2021.2.3,Win32,144.1129846,5f2dc3b1a2052d0fc281a2c4,626b377229c10585ec392f89,626b39f0caf0a8250640b10e,,,,,,,,,,,,,,,,,,,,,,,l,1,0.7156,"[""0.046"",""0.301"",""0.562"",""0.601""]","[1,1,1,0]",0,50,50,50,1,1,1,,,1,FALSE,,,,,,,,,,,,,,,,,,,,,,,,,,,,,,
,5f2dc3b1a2052d0fc281a2c4,001,2022-04-28_20h08.50.279,classification_task,2021.2.3,Win32,144.1129846,5f2dc3b1a2052d0fc281a2c4,626b377229c10585ec392f89,626b39f0caf0a8250640b10e,,,,,,,,,,,,,,,,,,,,,,,l,1,0.8339,"[""0.046"",""0.301"",""0.692"",""0.728""]","[1,1,0,1]",0,51,51,51,1,1,1,,,1,FALSE,,,,,,,,,,,,,,,,,,,,,,,,,,,,,,
,5f2dc3b1a2052d0fc281a2c4,001,2022-04-28_20h08.50.279,classification_task,2021.2.3,Win32,144.1129846,5f2dc3b1a2052d0fc281a2c4,626b377229c10585ec392f89,626b39f0caf0a8250640b10e,,,,,,,,,,,,,,,,,,,,,,,a,1,0.8269,"[""0.225"",""0.459"",""0.839"",""0.340""]","[1,1,1,0]",0,52,52,52,1,0,1,,,1,FALSE,,,,,,,,,,,,,,,,,,,,,,,,,,,,,,
,5f2dc3b1a2052d0fc281a2c4,001,2022-04-28_20h08.50.279,classification_task,2021.2.3,Win32,144.1129846,5f2dc3b1a2052d0fc281a2c4,626b377229c10585ec392f89,626b39f0caf0a8250640b10e,,,,,,,,,,,,,,,,,,,,,,,l,1,1.1396,"[""0.046"",""0.171"",""0.562"",""0.728""]","[1,0,1,1]",0,53,53,53,1,1,1,,,1,FALSE,,,,,,,,,,,,,,,,,,,,,,,,,,,,,,
,5f2dc3b1a2052d0fc281a2c4,001,2022-04-28_20h08.50.279,classification_task,2021.2.3,Win32,144.1129846,5f2dc3b1a2052d0fc281a2c4,626b377229c10585ec392f89,626b39f0caf0a8250640b10e,,,,,,,,,,,,,,,,,,,,,,,a,0,0.8054,"[""0.366"",""0.301"",""0.562"",""0.728""]","[0,1,1,1]",0,54,54,54,1,1,1,,,1,FALSE,,,,,,,,,,,,,,,,,,,,,,,,,,,,,,
,5f2dc3b1a2052d0fc281a2c4,001,2022-04-28_20h08.50.279,classification_task,2021.2.3,Win32,144.1129846,5f2dc3b1a2052d0fc281a2c4,626b377229c10585ec392f89,626b39f0caf0a8250640b10e,,,,,,,,,,,,,,,,,,,,,,,a,1,0.8267,"[""0.225"",""0.768"",""0.839"",""0.873""]","[1,0,1,1]",0,55,55,55,1,0,1,,,1,FALSE,,,,,,,,,,,,,,,,,,,,,,,,,,,,,,
,5f2dc3b1a2052d0fc281a2c4,001,2022-04-28_20h08.50.279,classification_task,2021.2.3,Win32,144.1129846,5f2dc3b1a2052d0fc281a2c4,626b377229c10585ec392f89,626b39f0caf0a8250640b10e,,,,,,,,,,,,,,,,,,,,,,,a,1,2.9804,"[""0.264"",""0.495"",""0.171"",""0.957""]","[1,1,0,1]",0,56,56,56,1,0,0,,,1,FALSE,,,,,,,,,,,,,,,,,,,,,,,,,,,,,,
,5f2dc3b1a2052d0fc281a2c4,001,2022-04-28_20h08.50.279,classification_task,2021.2.3,Win32,144.1129846,5f2dc3b1a2052d0fc281a2c4,626b377229c10585ec392f89,626b39f0caf0a8250640b10e,,,,,,,,,,,,,,,,,,,,,,,a,0,1.3966,"[""0.596"",""0.125"",""0.649"",""0.804""]","[0,1,1,1]",0,57,57,57,1,1,0,,,1,FALSE,,,,,,,,,,,,,,,,,,,,,,,,,,,,,,
,5f2dc3b1a2052d0fc281a2c4,001,2022-04-28_20h08.50.279,classification_task,2021.2.3,Win32,144.1129846,5f2dc3b1a2052d0fc281a2c4,626b377229c10585ec392f89,626b39f0caf0a8250640b10e,,,,,,,,,,,,,,,,,,,,,,,l,0,1.3411,"[""0.190"",""0.459"",""0.839"",""0.873""]","[0,1,1,1]",0,58,58,58,1,0,1,,,1,FALSE,,,,,,,,,,,,,,,,,,,,,,,,,,,,,,
,5f2dc3b1a2052d0fc281a2c4,001,2022-04-28_20h08.50.279,classification_task,2021.2.3,Win32,144.1129846,5f2dc3b1a2052d0fc281a2c4,626b377229c10585ec392f89,626b39f0caf0a8250640b10e,,,,,,,,,,,,,,,,,,,,,,,a,1,0.7503,"[""0.264"",""0.366"",""0.907"",""0.957""]","[1,0,1,1]",0,59,59,59,1,0,0,,,1,FALSE,,,,,,,,,,,,,,,,,,,,,,,,,,,,,,
,5f2dc3b1a2052d0fc281a2c4,001,2022-04-28_20h08.50.279,classification_task,2021.2.3,Win32,144.1129846,5f2dc3b1a2052d0fc281a2c4,626b377229c10585ec392f89,626b39f0caf0a8250640b10e,,,,,,,,,,,,,,,,,,,,,,,a,1,0.9796,"[""0.225"",""0.459"",""0.340"",""0.873""]","[1,1,0,1]",0,60,60,60,1,0,1,,,1,FALSE,,,,,,,,,,,,,,,,,,,,,,,,,,,,,,
,5f2dc3b1a2052d0fc281a2c4,001,2022-04-28_20h08.50.279,classification_task,2021.2.3,Win32,144.1129846,5f2dc3b1a2052d0fc281a2c4,626b377229c10585ec392f89,626b39f0caf0a8250640b10e,,,,,,,,,,,,,,,,,,,,,,,l,1,0.669,"[""0.085"",""0.171"",""0.649"",""0.804""]","[1,0,1,1]",0,61,61,61,1,1,0,,,1,FALSE,,,,,,,,,,,,,,,,,,,,,,,,,,,,,,
,5f2dc3b1a2052d0fc281a2c4,001,2022-04-28_20h08.50.279,classification_task,2021.2.3,Win32,144.1129846,5f2dc3b1a2052d0fc281a2c4,626b377229c10585ec392f89,626b39f0caf0a8250640b10e,,,,,,,,,,,,,,,,,,,,,,,l,1,0.6672,"[""0.085"",""0.125"",""0.416"",""0.804""]","[1,1,0,1]",0,62,62,62,1,1,0,,,1,FALSE,,,,,,,,,,,,,,,,,,,,,,,,,,,,,,
,5f2dc3b1a2052d0fc281a2c4,001,2022-04-28_20h08.50.279,classification_task,2021.2.3,Win32,144.1129846,5f2dc3b1a2052d0fc281a2c4,626b377229c10585ec392f89,626b39f0caf0a8250640b10e,,,,,,,,,,,,,,,,,,,,,,,a,1,0.66,"[""0.601"",""0.495"",""0.907"",""0.957""]","[0,1,1,1]",0,63,63,63,1,0,0,,,1,FALSE,,,,,,,,,,,,,,,,,,,,,,,,,,,,,,
,5f2dc3b1a2052d0fc281a2c4,001,2022-04-28_20h08.50.279,classification_task,2021.2.3,Win32,144.1129846,5f2dc3b1a2052d0fc281a2c4,626b377229c10585ec392f89,626b39f0caf0a8250640b10e,,,,,,,,,,,,,,,,,,,,,,,,,,,,,,,,,,,,,,,0, ,,0,6.754149788,155.9836,0,2,2,2,1,2,3,,,,,,,,,,,,,,,,,
,5f2dc3b1a2052d0fc281a2c4,001,2022-04-28_20h08.50.279,classification_task,2021.2.3,Win32,144.1129846,5f2dc3b1a2052d0fc281a2c4,626b377229c10585ec392f89,626b39f0caf0a8250640b10e,,,,,,,,,,,,,,,,,,,,,,,,,,,,,,,,,,,,,,,1,  ,,0,5.34675054,161.8408,0,2,2,2,1,2,3,,,,,,,,,,,,,,,,,
,5f2dc3b1a2052d0fc281a2c4,001,2022-04-28_20h08.50.279,classification_task,2021.2.3,Win32,144.1129846,5f2dc3b1a2052d0fc281a2c4,626b377229c10585ec392f89,626b39f0caf0a8250640b10e,,,,,,,,,,,,,,,,,,,,,,,,,,,,,,,,,,,,,,,2,  ,,0,0.553434258,160.7036,0,2,2,2,1,2,3,,,,,,,,,,,,,,,,,
,5f2dc3b1a2052d0fc281a2c4,001,2022-04-28_20h08.50.279,classification_task,2021.2.3,Win32,144.1129846,5f2dc3b1a2052d0fc281a2c4,626b377229c10585ec392f89,626b39f0caf0a8250640b10e,,,,,,,,,,,,,,,,,,,,,,,,,,,,,,,,,,,,,,,,,,,,,0,2,2,2,1,,3,,,,,,,,,,,,,,,,,
,5f2dc3b1a2052d0fc281a2c4,001,2022-04-28_20h08.50.279,classification_task,2021.2.3,Win32,144.1129846,5f2dc3b1a2052d0fc281a2c4,626b377229c10585ec392f89,626b39f0caf0a8250640b10e,,,,,,,,,,,,,,,,,,,,,,,,,,,,,,,,,,,,,,,,,,,,,,,,,,,,,I believe the aid is a competent performer,,0.7,0,4,3275.1471,0,0,0,0,1,0,,,,
,5f2dc3b1a2052d0fc281a2c4,001,2022-04-28_20h08.50.279,classification_task,2021.2.3,Win32,144.1129846,5f2dc3b1a2052d0fc281a2c4,626b377229c10585ec392f89,626b39f0caf0a8250640b10e,,,,,,,,,,,,,,,,,,,,,,,,,,,,,,,,,,,,,,,,,,,,,,,,,,,,,I trust the aid,,0.7,0,5,3276.0383,0,0,0,0,1,0,,,,
,5f2dc3b1a2052d0fc281a2c4,001,2022-04-28_20h08.50.279,classification_task,2021.2.3,Win32,144.1129846,5f2dc3b1a2052d0fc281a2c4,626b377229c10585ec392f89,626b39f0caf0a8250640b10e,,,,,,,,,,,,,,,,,,,,,,,,,,,,,,,,,,,,,,,,,,,,,,,,,,,,,I have confidence in the advice given by the aid,,0.7,0,5,3278.1701,0,0,0,0,1,0,,,,
,5f2dc3b1a2052d0fc281a2c4,001,2022-04-28_20h08.50.279,classification_task,2021.2.3,Win32,144.1129846,5f2dc3b1a2052d0fc281a2c4,626b377229c10585ec392f89,626b39f0caf0a8250640b10e,,,,,,,,,,,,,,,,,,,,,,,,,,,,,,,,,,,,,,,,,,,,,,,,,,,,,I can depend on the aid,,0.7,0,3,3279.5797,0,0,0,0,1,0,,,,
,5f2dc3b1a2052d0fc281a2c4,001,2022-04-28_20h08.50.279,classification_task,2021.2.3,Win32,144.1129846,5f2dc3b1a2052d0fc281a2c4,626b377229c10585ec392f89,626b39f0caf0a8250640b10e,,,,,,,,,,,,,,,,,,,,,,,,,,,,,,,,,,,,,,,,,,,,,,,,,,,,,I can rely on the aid to behave in consistent ways,,0.7,0,4,3282.0172,0,0,0,0,1,0,,,,
,5f2dc3b1a2052d0fc281a2c4,001,2022-04-28_20h08.50.279,classification_task,2021.2.3,Win32,144.1129846,5f2dc3b1a2052d0fc281a2c4,626b377229c10585ec392f89,626b39f0caf0a8250640b10e,,,,,,,,,,,,,,,,,,,,,,,,,,,,,,,,,,,,,,,,,,,,,,,,,,,,,I can rely on the aid to do its best every time I take its advice,,0.7,0,4,3283.5361,0,0,0,0,1,0,,,,
,5f2dc3b1a2052d0fc281a2c4,001,2022-04-28_20h08.50.279,classification_task,2021.2.3,Win32,144.1129846,5f2dc3b1a2052d0fc281a2c4,626b377229c10585ec392f89,626b39f0caf0a8250640b10e,,,,,,,,,,,,,,,,,,,,,,,,,,,,,,,,,,,,,,,,,,,,,,,,,,,,,"On trials you completed with assistance from the aid, how frequently did you think the aid was correct?",,0.7,0,100,,0,0,0,0,1,0,,,,
,5f2dc3b1a2052d0fc281a2c4,001,2022-04-28_20h08.50.279,classification_task,2021.2.3,Win32,144.1129846,5f2dc3b1a2052d0fc281a2c4,626b377229c10585ec392f89,626b39f0caf0a8250640b10e,,,,,,,,,,,,,,,,,,,,,,,,,,,,,,,,,,,,,,,,,,,,,,,,,,,,,"On trials you completed without the aid, how frequently did you think you were correct?",,0.7,0,80,,0,0,0,0,1,0,,,,
,5f2dc3b1a2052d0fc281a2c4,001,2022-04-28_20h08.50.279,classification_task,2021.2.3,Win32,144.1129846,5f2dc3b1a2052d0fc281a2c4,626b377229c10585ec392f89,626b39f0caf0a8250640b10e,,,,,,,,,,,,,,,,,,,,,,,,,,,,,,,,,,,,,,,,,,,,,,,,,,,,,,,,,,,0,0,0,0,1,,,,,
,5f2dc3b1a2052d0fc281a2c4,001,2022-04-28_20h08.50.279,classification_task,2021.2.3,Win32,144.1129846,5f2dc3b1a2052d0fc281a2c4,626b377229c10585ec392f89,626b39f0caf0a8250640b10e,,,,,,,,,,,,,,,,,,,,,,,,,,,,,,,,,,,,,,,,,,,,,,,,,,,,,,,,,,,,,,,,,space,8.6498,3305.6527,
,5f2dc3b1a2052d0fc281a2c4,001,2022-04-28_20h08.50.279,classification_task,2021.2.3,Win32,144.1129846,5f2dc3b1a2052d0fc281a2c4,626b377229c10585ec392f89,626b39f0caf0a8250640b10e,,,,,,,,,,,,,,,,,,,,,,,,,,,,,,,,,,,,,,,,,,,,,,,,,,,,,,,,,,,,,,,,,,,,"Mozilla/5.0 (Windows NT 10.0; Win64; x64) AppleWebKit/537.36 (KHTML, like Gecko) Chrome/100.0.4896.127 Safari/537.36"
