usingWebGL,participant,session,date,expName,psychopyVersion,OS,frameRate,study_id,signatures_friend,signatures_foe,band_ranges_top,band_ranges_bottom,formitemText,formtype,formundefined,formitemWidth,formindex,formresponse,formrt,key_resp_2.keys,key_resp_2.rt,tute_resp.keys,tute_resp.rt,tutorial.thisRepN,tutorial.thisTrialN,tutorial.thisN,tutorial.thisIndex,tutorial.ran,key_resp_4.keys,key_resp_4.rt,key_resp.keys,key_resp.corr,key_resp.rt,lines_presented,is_signal_presented,trials.thisRepN,trials.thisTrialN,trials.thisN,trials.thisIndex,trials.ran,vessel,active_band,lines,is_signal,supported_pos,catch_trial,debrief_formindex,debrief_formitemText,debrief_formtype,debrief_formitemWidth,debrief_formresponse,debrief_formrt,phases.thisRepN,phases.thisTrialN,phases.thisN,phases.thisIndex,phases.ran,phases.order,phase,key_resp_3.keys,trustitemText,trusttype,trustitemWidth,trustindex,trustresponse,trustrt,support_status.thisRepN,support_status.thisTrialN,support_status.thisN,support_status.thisIndex,support_status.ran,support_status.order,key_resp_5.keys,key_resp_5.rt,globalClockTime,userAgent,manualCondition
TRUE,5f32b02a5cf1450159fc0728,627c6e7c7f7fbfcbee2a9699,2022-05-11_21h20.42.799,classification_task,2021.2.3,Win32,59.84798612,627c6715c52fd12f31907bcf,,,,,,,,,,,,,,,,,,,,,,,,,,,,,,,,,,,,,,,,,,,,,,,,,,,,,,,,,,,,,,,,,,,,,
,5f32b02a5cf1450159fc0728,627c6e7c7f7fbfcbee2a9699,2022-05-11_21h20.42.799,classification_task,2021.2.3,Win32,59.84798612,627c6715c52fd12f31907bcf,"[[""0.311"",""0.346"",""0.858"",""0.973""],[""0.237"",""0.511"",""0.895"",""0.938""]]","[[""0.032"",""0.422"",""0.557"",""0.751""],[""0.092"",""0.132"",""0.474"",""0.806""]]","[1,10]","[100,1000]",Video game experience,,,0.7,0,,,,,,,,,,,,,,,,,,,,,,,,,,,,,,,,,,,,,,,,,,,,,,,,,,,,,,,,,,,,
,5f32b02a5cf1450159fc0728,627c6e7c7f7fbfcbee2a9699,2022-05-11_21h20.42.799,classification_task,2021.2.3,Win32,59.84798612,627c6715c52fd12f31907bcf,,,,,Approximately how many hours did you spend playing video games in the last week?,,,0.7,0,5,,,,,,,,,,,,,,,,,,,,,,,,,,,,,,,,,,,,,,,,,,,,,,,,,,,,,,,,,,,
,5f32b02a5cf1450159fc0728,627c6e7c7f7fbfcbee2a9699,2022-05-11_21h20.42.799,classification_task,2021.2.3,Win32,59.84798612,627c6715c52fd12f31907bcf,,,,,"Which game did you play the most this year? (Enter ""None"" if you didn't play any)",,,0.7,0,Pokemon Go,,,,,,,,,,,,,,,,,,,,,,,,,,,,,,,,,,,,,,,,,,,,,,,,,,,,,,,,,,,
,5f32b02a5cf1450159fc0728,627c6e7c7f7fbfcbee2a9699,2022-05-11_21h20.42.799,classification_task,2021.2.3,Win32,59.84798612,627c6715c52fd12f31907bcf,,,,,Visual perception,,,0.7,0,,,,,,,,,,,,,,,,,,,,,,,,,,,,,,,,,,,,,,,,,,,,,,,,,,,,,,,,,,,,
,5f32b02a5cf1450159fc0728,627c6e7c7f7fbfcbee2a9699,2022-05-11_21h20.42.799,classification_task,2021.2.3,Win32,59.84798612,627c6715c52fd12f31907bcf,,,,,Do you have any form of color blindness?,,,0.7,0,No,27.4565,,,,,,,,,,,,,,,,,,,,,,,,,,,,,,,,,,,,,,,,,,,,,,,,,,,,,,,,,,
,5f32b02a5cf1450159fc0728,627c6e7c7f7fbfcbee2a9699,2022-05-11_21h20.42.799,classification_task,2021.2.3,Win32,59.84798612,627c6715c52fd12f31907bcf,,,,,Do you use software to change the colour temperature of your screen (e.g. f.lux)?,,,0.7,0,No,30.5475,,,,,,,,,,,,,,,,,,,,,,,,,,,,,,,,,,,,,,,,,,,,,,,,,,,,,,,,,,
,5f32b02a5cf1450159fc0728,627c6e7c7f7fbfcbee2a9699,2022-05-11_21h20.42.799,classification_task,2021.2.3,Win32,59.84798612,627c6715c52fd12f31907bcf,,,,,,,,,,,,space,66.2041,space,7.6079,0,0,0,0,1,,,,,,,,,,,,,,,,,,,,,,,,,,,,,,,,,,,,,,,,,,,,,,,,,
,5f32b02a5cf1450159fc0728,627c6e7c7f7fbfcbee2a9699,2022-05-11_21h20.42.799,classification_task,2021.2.3,Win32,59.84798612,627c6715c52fd12f31907bcf,,,,,,,,,,,,,,space,10.1183,1,0,1,0,1,,,,,,,,,,,,,,,,,,,,,,,,,,,,,,,,,,,,,,,,,,,,,,,,,
,5f32b02a5cf1450159fc0728,627c6e7c7f7fbfcbee2a9699,2022-05-11_21h20.42.799,classification_task,2021.2.3,Win32,59.84798612,627c6715c52fd12f31907bcf,,,,,,,,,,,,,,space,18.1464,2,0,2,0,1,,,,,,,,,,,,,,,,,,,,,,,,,,,,,,,,,,,,,,,,,,,,,,,,,
,5f32b02a5cf1450159fc0728,627c6e7c7f7fbfcbee2a9699,2022-05-11_21h20.42.799,classification_task,2021.2.3,Win32,59.84798612,627c6715c52fd12f31907bcf,,,,,,,,,,,,,,space,25.6245,3,0,3,0,1,,,,,,,,,,,,,,,,,,,,,,,,,,,,,,,,,,,,,,,,,,,,,,,,,
,5f32b02a5cf1450159fc0728,627c6e7c7f7fbfcbee2a9699,2022-05-11_21h20.42.799,classification_task,2021.2.3,Win32,59.84798612,627c6715c52fd12f31907bcf,,,,,,,,,,,,,,space,17.2784,4,0,4,0,1,,,,,,,,,,,,,,,,,,,,,,,,,,,,,,,,,,,,,,,,,,,,,,,,,
,5f32b02a5cf1450159fc0728,627c6e7c7f7fbfcbee2a9699,2022-05-11_21h20.42.799,classification_task,2021.2.3,Win32,59.84798612,627c6715c52fd12f31907bcf,,,,,,,,,,,,,,,,,,,,,space,19.6951,l,1,4.2024,"[""0.092"",""0.132"",""0.632"",""0.806""]","[1,1,0,1]",0,0,0,0,1,1,1,,,1,FALSE,,,,,,,,,,,,,,,,,,,,,,,,,,,,,,,
,5f32b02a5cf1450159fc0728,627c6e7c7f7fbfcbee2a9699,2022-05-11_21h20.42.799,classification_task,2021.2.3,Win32,59.84798612,627c6715c52fd12f31907bcf,,,,,,,,,,,,,,,,,,,,,,,,0,,"[""0.669"",""0.346"",""0.858"",""0.973""]","[0,1,1,1]",0,1,1,1,1,0,0,,,1,FALSE,,,,,,,,,,,,,,,,,,,,,,,,,,,,,,,
,5f32b02a5cf1450159fc0728,627c6e7c7f7fbfcbee2a9699,2022-05-11_21h20.42.799,classification_task,2021.2.3,Win32,59.84798612,627c6715c52fd12f31907bcf,,,,,,,,,,,,,,,,,,,,,,,l,1,2.702,"[""0.032"",""0.422"",""0.557"",""0.685""]","[1,1,1,0]",0,2,2,2,1,1,0,,,1,FALSE,,,,,,,,,,,,,,,,,,,,,,,,,,,,,,,
,5f32b02a5cf1450159fc0728,627c6e7c7f7fbfcbee2a9699,2022-05-11_21h20.42.799,classification_task,2021.2.3,Win32,59.84798612,627c6715c52fd12f31907bcf,,,,,,,,,,,,,,,,,,,,,,,a,1,1.9354,"[""0.237"",""0.613"",""0.895"",""0.938""]","[1,0,1,1]",0,3,3,3,1,0,1,,,1,FALSE,,,,,,,,,,,,,,,,,,,,,,,,,,,,,,,
,5f32b02a5cf1450159fc0728,627c6e7c7f7fbfcbee2a9699,2022-05-11_21h20.42.799,classification_task,2021.2.3,Win32,59.84798612,627c6715c52fd12f31907bcf,,,,,,,,,,,,,,,,,,,,,,,a,1,3.8702,"[""0.650"",""0.511"",""0.895"",""0.938""]","[0,1,1,1]",0,4,4,4,1,0,1,,,1,FALSE,,,,,,,,,,,,,,,,,,,,,,,,,,,,,,,
,5f32b02a5cf1450159fc0728,627c6e7c7f7fbfcbee2a9699,2022-05-11_21h20.42.799,classification_task,2021.2.3,Win32,59.84798612,627c6715c52fd12f31907bcf,,,,,,,,,,,,,,,,,,,,,,,a,1,2.6308,"[""0.237"",""0.511"",""0.650"",""0.938""]","[1,1,0,1]",0,5,5,5,1,0,1,,,1,FALSE,,,,,,,,,,,,,,,,,,,,,,,,,,,,,,,
,5f32b02a5cf1450159fc0728,627c6e7c7f7fbfcbee2a9699,2022-05-11_21h20.42.799,classification_task,2021.2.3,Win32,59.84798612,627c6715c52fd12f31907bcf,,,,,,,,,,,,,,,,,,,,,,,a,1,3.2236,"[""0.237"",""0.511"",""0.895"",""0.606""]","[1,1,1,0]",0,6,6,6,1,0,1,,,1,FALSE,,,,,,,,,,,,,,,,,,,,,,,,,,,,,,,
,5f32b02a5cf1450159fc0728,627c6e7c7f7fbfcbee2a9699,2022-05-11_21h20.42.799,classification_task,2021.2.3,Win32,59.84798612,627c6715c52fd12f31907bcf,,,,,,,,,,,,,,,,,,,,,,,a,1,4.1876,"[""0.311"",""0.346"",""0.858"",""0.199""]","[1,1,1,0]",0,7,7,7,1,0,0,,,1,FALSE,,,,,,,,,,,,,,,,,,,,,,,,,,,,,,,
,5f32b02a5cf1450159fc0728,627c6e7c7f7fbfcbee2a9699,2022-05-11_21h20.42.799,classification_task,2021.2.3,Win32,59.84798612,627c6715c52fd12f31907bcf,,,,,,,,,,,,,,,,,,,,,,,l,1,3.3037,"[""0.617"",""0.422"",""0.557"",""0.751""]","[0,1,1,1]",0,8,8,8,1,1,0,,,1,FALSE,,,,,,,,,,,,,,,,,,,,,,,,,,,,,,,
,5f32b02a5cf1450159fc0728,627c6e7c7f7fbfcbee2a9699,2022-05-11_21h20.42.799,classification_task,2021.2.3,Win32,59.84798612,627c6715c52fd12f31907bcf,,,,,,,,,,,,,,,,,,,,,,,a,0,5.3593,"[""0.617"",""0.132"",""0.474"",""0.806""]","[0,1,1,1]",0,9,9,9,1,1,1,,,1,FALSE,,,,,,,,,,,,,,,,,,,,,,,,,,,,,,,
,5f32b02a5cf1450159fc0728,627c6e7c7f7fbfcbee2a9699,2022-05-11_21h20.42.799,classification_task,2021.2.3,Win32,59.84798612,627c6715c52fd12f31907bcf,,,,,,,,,,,,,,,,,,,,,,,a,1,5.2654,"[""0.311"",""0.346"",""0.183"",""0.973""]","[1,1,0,1]",0,10,10,10,1,0,0,,,1,FALSE,,,,,,,,,,,,,,,,,,,,,,,,,,,,,,,
,5f32b02a5cf1450159fc0728,627c6e7c7f7fbfcbee2a9699,2022-05-11_21h20.42.799,classification_task,2021.2.3,Win32,59.84798612,627c6715c52fd12f31907bcf,,,,,,,,,,,,,,,,,,,,,,,l,1,4.5229,"[""0.092"",""0.183"",""0.474"",""0.806""]","[1,0,1,1]",0,11,11,11,1,1,1,,,1,FALSE,,,,,,,,,,,,,,,,,,,,,,,,,,,,,,,
,5f32b02a5cf1450159fc0728,627c6e7c7f7fbfcbee2a9699,2022-05-11_21h20.42.799,classification_task,2021.2.3,Win32,59.84798612,627c6715c52fd12f31907bcf,,,,,,,,,,,,,,,,,,,,,,,l,1,3.1848,"[""0.032"",""0.422"",""0.707"",""0.751""]","[1,1,0,1]",0,12,12,12,1,1,0,,,1,FALSE,,,,,,,,,,,,,,,,,,,,,,,,,,,,,,,
,5f32b02a5cf1450159fc0728,627c6e7c7f7fbfcbee2a9699,2022-05-11_21h20.42.799,classification_task,2021.2.3,Win32,59.84798612,627c6715c52fd12f31907bcf,,,,,,,,,,,,,,,,,,,,,,,a,1,1.6046,"[""0.311"",""0.707"",""0.858"",""0.973""]","[1,0,1,1]",0,13,13,13,1,0,0,,,1,FALSE,,,,,,,,,,,,,,,,,,,,,,,,,,,,,,,
,5f32b02a5cf1450159fc0728,627c6e7c7f7fbfcbee2a9699,2022-05-11_21h20.42.799,classification_task,2021.2.3,Win32,59.84798612,627c6715c52fd12f31907bcf,,,,,,,,,,,,,,,,,,,,,,,l,1,3.5934,"[""0.032"",""0.663"",""0.557"",""0.751""]","[1,0,1,1]",0,14,14,14,1,1,0,,,1,FALSE,,,,,,,,,,,,,,,,,,,,,,,,,,,,,,,
,5f32b02a5cf1450159fc0728,627c6e7c7f7fbfcbee2a9699,2022-05-11_21h20.42.799,classification_task,2021.2.3,Win32,59.84798612,627c6715c52fd12f31907bcf,,,,,,,,,,,,,,,,,,,,,,,l,1,4.0914,"[""0.092"",""0.132"",""0.474"",""0.635""]","[1,1,1,0]",0,15,15,15,1,1,1,,,1,FALSE,,,,,,,,,,,,,,,,,,,,,,,,,,,,,,,
,5f32b02a5cf1450159fc0728,627c6e7c7f7fbfcbee2a9699,2022-05-11_21h20.42.799,classification_task,2021.2.3,Win32,59.84798612,627c6715c52fd12f31907bcf,,,,,,,,,,,,,,,,,,,,,,,l,1,3.0868,"[""0.092"",""0.132"",""0.474"",""0.685""]","[1,1,1,0]",0,16,16,16,1,1,1,,,1,FALSE,,,,,,,,,,,,,,,,,,,,,,,,,,,,,,,
,5f32b02a5cf1450159fc0728,627c6e7c7f7fbfcbee2a9699,2022-05-11_21h20.42.799,classification_task,2021.2.3,Win32,59.84798612,627c6715c52fd12f31907bcf,,,,,,,,,,,,,,,,,,,,,,,a,1,3.4578,"[""0.237"",""0.632"",""0.895"",""0.938""]","[1,0,1,1]",0,17,17,17,1,0,1,,,1,FALSE,,,,,,,,,,,,,,,,,,,,,,,,,,,,,,,
,5f32b02a5cf1450159fc0728,627c6e7c7f7fbfcbee2a9699,2022-05-11_21h20.42.799,classification_task,2021.2.3,Win32,59.84798612,627c6715c52fd12f31907bcf,,,,,,,,,,,,,,,,,,,,,,,l,1,4.4504,"[""0.032"",""0.199"",""0.557"",""0.751""]","[1,0,1,1]",0,18,18,18,1,1,0,,,1,FALSE,,,,,,,,,,,,,,,,,,,,,,,,,,,,,,,
,5f32b02a5cf1450159fc0728,627c6e7c7f7fbfcbee2a9699,2022-05-11_21h20.42.799,classification_task,2021.2.3,Win32,59.84798612,627c6715c52fd12f31907bcf,,,,,,,,,,,,,,,,,,,,,,,l,1,3.7907,"[""0.092"",""0.132"",""0.380"",""0.806""]","[1,1,0,1]",0,19,19,19,1,1,1,,,1,FALSE,,,,,,,,,,,,,,,,,,,,,,,,,,,,,,,
,5f32b02a5cf1450159fc0728,627c6e7c7f7fbfcbee2a9699,2022-05-11_21h20.42.799,classification_task,2021.2.3,Win32,59.84798612,627c6715c52fd12f31907bcf,,,,,,,,,,,,,,,,,,,,,,,a,1,4.1692,"[""0.311"",""0.632"",""0.858"",""0.973""]","[1,0,1,1]",0,20,20,20,1,0,0,,,1,FALSE,,,,,,,,,,,,,,,,,,,,,,,,,,,,,,,
,5f32b02a5cf1450159fc0728,627c6e7c7f7fbfcbee2a9699,2022-05-11_21h20.42.799,classification_task,2021.2.3,Win32,59.84798612,627c6715c52fd12f31907bcf,,,,,,,,,,,,,,,,,,,,,,,a,1,3.4138,"[""0.183"",""0.346"",""0.858"",""0.973""]","[0,1,1,1]",0,21,21,21,1,0,0,,,1,FALSE,,,,,,,,,,,,,,,,,,,,,,,,,,,,,,,
,5f32b02a5cf1450159fc0728,627c6e7c7f7fbfcbee2a9699,2022-05-11_21h20.42.799,classification_task,2021.2.3,Win32,59.84798612,627c6715c52fd12f31907bcf,,,,,,,,,,,,,,,,,,,,,,,l,1,2.1579,"[""0.032"",""0.422"",""0.557"",""0.650""]","[1,1,1,0]",0,22,22,22,1,1,0,,,1,FALSE,,,,,,,,,,,,,,,,,,,,,,,,,,,,,,,
,5f32b02a5cf1450159fc0728,627c6e7c7f7fbfcbee2a9699,2022-05-11_21h20.42.799,classification_task,2021.2.3,Win32,59.84798612,627c6715c52fd12f31907bcf,,,,,,,,,,,,,,,,,,,,,,,l,1,3.2796,"[""0.092"",""0.669"",""0.474"",""0.806""]","[1,0,1,1]",0,23,23,23,1,1,1,,,1,FALSE,,,,,,,,,,,,,,,,,,,,,,,,,,,,,,,
,5f32b02a5cf1450159fc0728,627c6e7c7f7fbfcbee2a9699,2022-05-11_21h20.42.799,classification_task,2021.2.3,Win32,59.84798612,627c6715c52fd12f31907bcf,,,,,,,,,,,,,,,,,,,,,,,l,1,1.8962,"[""0.032"",""0.422"",""0.669"",""0.751""]","[1,1,0,1]",0,24,24,24,1,1,0,,,1,FALSE,,,,,,,,,,,,,,,,,,,,,,,,,,,,,,,
,5f32b02a5cf1450159fc0728,627c6e7c7f7fbfcbee2a9699,2022-05-11_21h20.42.799,classification_task,2021.2.3,Win32,59.84798612,627c6715c52fd12f31907bcf,,,,,,,,,,,,,,,,,,,,,,,l,1,2.3206,"[""0.380"",""0.132"",""0.474"",""0.806""]","[0,1,1,1]",0,25,25,25,1,1,1,,,1,FALSE,,,,,,,,,,,,,,,,,,,,,,,,,,,,,,,
,5f32b02a5cf1450159fc0728,627c6e7c7f7fbfcbee2a9699,2022-05-11_21h20.42.799,classification_task,2021.2.3,Win32,59.84798612,627c6715c52fd12f31907bcf,,,,,,,,,,,,,,,,,,,,,,,a,1,5.6126,"[""0.606"",""0.511"",""0.895"",""0.938""]","[0,1,1,1]",0,26,26,26,1,0,1,,,1,FALSE,,,,,,,,,,,,,,,,,,,,,,,,,,,,,,,
,5f32b02a5cf1450159fc0728,627c6e7c7f7fbfcbee2a9699,2022-05-11_21h20.42.799,classification_task,2021.2.3,Win32,59.84798612,627c6715c52fd12f31907bcf,,,,,,,,,,,,,,,,,,,,,,,a,1,2.6994,"[""0.311"",""0.346"",""0.858"",""0.669""]","[1,1,1,0]",0,27,27,27,1,0,0,,,1,FALSE,,,,,,,,,,,,,,,,,,,,,,,,,,,,,,,
,5f32b02a5cf1450159fc0728,627c6e7c7f7fbfcbee2a9699,2022-05-11_21h20.42.799,classification_task,2021.2.3,Win32,59.84798612,627c6715c52fd12f31907bcf,,,,,,,,,,,,,,,,,,,,,,,a,1,3.4009,"[""0.237"",""0.511"",""0.613"",""0.938""]","[1,1,0,1]",0,28,28,28,1,0,1,,,1,FALSE,,,,,,,,,,,,,,,,,,,,,,,,,,,,,,,
,5f32b02a5cf1450159fc0728,627c6e7c7f7fbfcbee2a9699,2022-05-11_21h20.42.799,classification_task,2021.2.3,Win32,59.84798612,627c6715c52fd12f31907bcf,,,,,,,,,,,,,,,,,,,,,,,l,1,4.9098,"[""0.663"",""0.422"",""0.557"",""0.751""]","[0,1,1,1]",0,29,29,29,1,1,0,,,1,FALSE,,,,,,,,,,,,,,,,,,,,,,,,,,,,,,,
,5f32b02a5cf1450159fc0728,627c6e7c7f7fbfcbee2a9699,2022-05-11_21h20.42.799,classification_task,2021.2.3,Win32,59.84798612,627c6715c52fd12f31907bcf,,,,,,,,,,,,,,,,,,,,,,,a,1,3.3531,"[""0.311"",""0.346"",""0.635"",""0.973""]","[1,1,0,1]",0,30,30,30,1,0,0,,,1,FALSE,,,,,,,,,,,,,,,,,,,,,,,,,,,,,,,
,5f32b02a5cf1450159fc0728,627c6e7c7f7fbfcbee2a9699,2022-05-11_21h20.42.799,classification_task,2021.2.3,Win32,59.84798612,627c6715c52fd12f31907bcf,,,,,,,,,,,,,,,,,,,,,,,a,1,5.4563,"[""0.237"",""0.511"",""0.895"",""0.183""]","[1,1,1,0]",0,31,31,31,1,0,1,,,1,FALSE,,,,,,,,,,,,,,,,,,,,,,,,,,,,,,,
,5f32b02a5cf1450159fc0728,627c6e7c7f7fbfcbee2a9699,2022-05-11_21h20.42.799,classification_task,2021.2.3,Win32,59.84798612,627c6715c52fd12f31907bcf,,,,,,,,,,,,,,,,,,,,,,,l,0,6.2375,"[""0.237"",""0.193"",""0.895"",""0.938""]","[1,0,1,1]",0,32,32,32,1,0,1,,,1,FALSE,,,,,,,,,,,,,,,,,,,,,,,,,,,,,,,
,5f32b02a5cf1450159fc0728,627c6e7c7f7fbfcbee2a9699,2022-05-11_21h20.42.799,classification_task,2021.2.3,Win32,59.84798612,627c6715c52fd12f31907bcf,,,,,,,,,,,,,,,,,,,,,,,a,1,4.8161,"[""0.669"",""0.511"",""0.895"",""0.938""]","[0,1,1,1]",0,33,33,33,1,0,1,,,1,FALSE,,,,,,,,,,,,,,,,,,,,,,,,,,,,,,,
,5f32b02a5cf1450159fc0728,627c6e7c7f7fbfcbee2a9699,2022-05-11_21h20.42.799,classification_task,2021.2.3,Win32,59.84798612,627c6715c52fd12f31907bcf,,,,,,,,,,,,,,,,,,,,,,,a,1,2.2741,"[""0.311"",""0.193"",""0.858"",""0.973""]","[1,0,1,1]",0,34,34,34,1,0,0,,,1,FALSE,,,,,,,,,,,,,,,,,,,,,,,,,,,,,,,
,5f32b02a5cf1450159fc0728,627c6e7c7f7fbfcbee2a9699,2022-05-11_21h20.42.799,classification_task,2021.2.3,Win32,59.84798612,627c6715c52fd12f31907bcf,,,,,,,,,,,,,,,,,,,,,,,a,0,2.5741,"[""0.092"",""0.632"",""0.474"",""0.806""]","[1,0,1,1]",0,35,35,35,1,1,1,,,1,FALSE,,,,,,,,,,,,,,,,,,,,,,,,,,,,,,,
,5f32b02a5cf1450159fc0728,627c6e7c7f7fbfcbee2a9699,2022-05-11_21h20.42.799,classification_task,2021.2.3,Win32,59.84798612,627c6715c52fd12f31907bcf,,,,,,,,,,,,,,,,,,,,,,,l,0,1.3206,"[""0.237"",""0.511"",""0.193"",""0.938""]","[1,1,0,1]",0,36,36,36,1,0,1,,,1,FALSE,,,,,,,,,,,,,,,,,,,,,,,,,,,,,,,
,5f32b02a5cf1450159fc0728,627c6e7c7f7fbfcbee2a9699,2022-05-11_21h20.42.799,classification_task,2021.2.3,Win32,59.84798612,627c6715c52fd12f31907bcf,,,,,,,,,,,,,,,,,,,,,,,a,0,3.6119,"[""0.032"",""0.422"",""0.557"",""0.685""]","[1,1,1,0]",0,37,37,37,1,1,0,,,1,FALSE,,,,,,,,,,,,,,,,,,,,,,,,,,,,,,,
,5f32b02a5cf1450159fc0728,627c6e7c7f7fbfcbee2a9699,2022-05-11_21h20.42.799,classification_task,2021.2.3,Win32,59.84798612,627c6715c52fd12f31907bcf,,,,,,,,,,,,,,,,,,,,,,,a,0,2.7417,"[""0.092"",""0.132"",""0.474"",""0.685""]","[1,1,1,0]",0,38,38,38,1,1,1,,,1,FALSE,,,,,,,,,,,,,,,,,,,,,,,,,,,,,,,
,5f32b02a5cf1450159fc0728,627c6e7c7f7fbfcbee2a9699,2022-05-11_21h20.42.799,classification_task,2021.2.3,Win32,59.84798612,627c6715c52fd12f31907bcf,,,,,,,,,,,,,,,,,,,,,,,l,1,3.0599,"[""0.092"",""0.132"",""0.650"",""0.806""]","[1,1,0,1]",0,39,39,39,1,1,1,,,1,FALSE,,,,,,,,,,,,,,,,,,,,,,,,,,,,,,,
,5f32b02a5cf1450159fc0728,627c6e7c7f7fbfcbee2a9699,2022-05-11_21h20.42.799,classification_task,2021.2.3,Win32,59.84798612,627c6715c52fd12f31907bcf,,,,,,,,,,,,,,,,,,,,,,,a,1,1.9904,"[""0.237"",""0.511"",""0.895"",""0.704""]","[1,1,1,0]",0,40,40,40,1,0,1,,,1,FALSE,,,,,,,,,,,,,,,,,,,,,,,,,,,,,,,
,5f32b02a5cf1450159fc0728,627c6e7c7f7fbfcbee2a9699,2022-05-11_21h20.42.799,classification_task,2021.2.3,Win32,59.84798612,627c6715c52fd12f31907bcf,,,,,,,,,,,,,,,,,,,,,,,l,0,2.3081,"[""0.311"",""0.346"",""0.858"",""0.193""]","[1,1,1,0]",0,41,41,41,1,0,0,,,1,FALSE,,,,,,,,,,,,,,,,,,,,,,,,,,,,,,,
,5f32b02a5cf1450159fc0728,627c6e7c7f7fbfcbee2a9699,2022-05-11_21h20.42.799,classification_task,2021.2.3,Win32,59.84798612,627c6715c52fd12f31907bcf,,,,,,,,,,,,,,,,,,,,,,,l,1,2.2911,"[""0.032"",""0.422"",""0.669"",""0.751""]","[1,1,0,1]",0,42,42,42,1,1,0,,,1,FALSE,,,,,,,,,,,,,,,,,,,,,,,,,,,,,,,
,5f32b02a5cf1450159fc0728,627c6e7c7f7fbfcbee2a9699,2022-05-11_21h20.42.799,classification_task,2021.2.3,Win32,59.84798612,627c6715c52fd12f31907bcf,,,,,,,,,,,,,,,,,,,,,,,a,0,2.5254,"[""0.032"",""0.707"",""0.557"",""0.751""]","[1,0,1,1]",0,43,43,43,1,1,0,,,1,FALSE,,,,,,,,,,,,,,,,,,,,,,,,,,,,,,,
,5f32b02a5cf1450159fc0728,627c6e7c7f7fbfcbee2a9699,2022-05-11_21h20.42.799,classification_task,2021.2.3,Win32,59.84798612,627c6715c52fd12f31907bcf,,,,,,,,,,,,,,,,,,,,,,,l,0,1.5043,"[""0.668"",""0.346"",""0.858"",""0.973""]","[0,1,1,1]",0,44,44,44,1,0,0,,,1,FALSE,,,,,,,,,,,,,,,,,,,,,,,,,,,,,,,
,5f32b02a5cf1450159fc0728,627c6e7c7f7fbfcbee2a9699,2022-05-11_21h20.42.799,classification_task,2021.2.3,Win32,59.84798612,627c6715c52fd12f31907bcf,,,,,,,,,,,,,,,,,,,,,,,a,1,1.4721,"[""0.311"",""0.346"",""0.632"",""0.973""]","[1,1,0,1]",0,45,45,45,1,0,0,,,1,FALSE,,,,,,,,,,,,,,,,,,,,,,,,,,,,,,,
,5f32b02a5cf1450159fc0728,627c6e7c7f7fbfcbee2a9699,2022-05-11_21h20.42.799,classification_task,2021.2.3,Win32,59.84798612,627c6715c52fd12f31907bcf,,,,,,,,,,,,,,,,,,,,,,,a,0,2.6259,"[""0.632"",""0.132"",""0.474"",""0.806""]","[0,1,1,1]",0,46,46,46,1,1,1,,,1,FALSE,,,,,,,,,,,,,,,,,,,,,,,,,,,,,,,
,5f32b02a5cf1450159fc0728,627c6e7c7f7fbfcbee2a9699,2022-05-11_21h20.42.799,classification_task,2021.2.3,Win32,59.84798612,627c6715c52fd12f31907bcf,,,,,,,,,,,,,,,,,,,,,,,l,1,2.9252,"[""0.613"",""0.422"",""0.557"",""0.751""]","[0,1,1,1]",0,47,47,47,1,1,0,,,1,FALSE,,,,,,,,,,,,,,,,,,,,,,,,,,,,,,,
,5f32b02a5cf1450159fc0728,627c6e7c7f7fbfcbee2a9699,2022-05-11_21h20.42.799,classification_task,2021.2.3,Win32,59.84798612,627c6715c52fd12f31907bcf,,,,,,,,,,,,,,,,,,,,,,,l,0,2.3744,"[""0.311"",""0.193"",""0.858"",""0.973""]","[1,0,1,1]",0,48,48,48,1,0,0,,,1,FALSE,,,,,,,,,,,,,,,,,,,,,,,,,,,,,,,
,5f32b02a5cf1450159fc0728,627c6e7c7f7fbfcbee2a9699,2022-05-11_21h20.42.799,classification_task,2021.2.3,Win32,59.84798612,627c6715c52fd12f31907bcf,,,,,,,,,,,,,,,,,,,,,,,a,1,1.7053,"[""0.311"",""0.346"",""0.650"",""0.973""]","[1,1,0,1]",0,49,49,49,1,0,0,,,1,FALSE,,,,,,,,,,,,,,,,,,,,,,,,,,,,,,,
,5f32b02a5cf1450159fc0728,627c6e7c7f7fbfcbee2a9699,2022-05-11_21h20.42.799,classification_task,2021.2.3,Win32,59.84798612,627c6715c52fd12f31907bcf,,,,,,,,,,,,,,,,,,,,,,,a,1,1.3882,"[""0.237"",""0.183"",""0.895"",""0.938""]","[1,0,1,1]",0,50,50,50,1,0,1,,,1,FALSE,,,,,,,,,,,,,,,,,,,,,,,,,,,,,,,
,5f32b02a5cf1450159fc0728,627c6e7c7f7fbfcbee2a9699,2022-05-11_21h20.42.799,classification_task,2021.2.3,Win32,59.84798612,627c6715c52fd12f31907bcf,,,,,,,,,,,,,,,,,,,,,,,l,1,1.8057,"[""0.092"",""0.132"",""0.474"",""0.669""]","[1,1,1,0]",0,51,51,51,1,1,1,,,1,FALSE,,,,,,,,,,,,,,,,,,,,,,,,,,,,,,,
,5f32b02a5cf1450159fc0728,627c6e7c7f7fbfcbee2a9699,2022-05-11_21h20.42.799,classification_task,2021.2.3,Win32,59.84798612,627c6715c52fd12f31907bcf,,,,,,,,,,,,,,,,,,,,,,,l,1,3.1774,"[""0.606"",""0.132"",""0.474"",""0.806""]","[0,1,1,1]",0,52,52,52,1,1,1,,,1,FALSE,,,,,,,,,,,,,,,,,,,,,,,,,,,,,,,
,5f32b02a5cf1450159fc0728,627c6e7c7f7fbfcbee2a9699,2022-05-11_21h20.42.799,classification_task,2021.2.3,Win32,59.84798612,627c6715c52fd12f31907bcf,,,,,,,,,,,,,,,,,,,,,,,l,1,1.4884,"[""0.032"",""0.668"",""0.557"",""0.751""]","[1,0,1,1]",0,53,53,53,1,1,0,,,1,FALSE,,,,,,,,,,,,,,,,,,,,,,,,,,,,,,,
,5f32b02a5cf1450159fc0728,627c6e7c7f7fbfcbee2a9699,2022-05-11_21h20.42.799,classification_task,2021.2.3,Win32,59.84798612,627c6715c52fd12f31907bcf,,,,,,,,,,,,,,,,,,,,,,,l,0,2.659,"[""0.237"",""0.511"",""0.635"",""0.938""]","[1,1,0,1]",0,54,54,54,1,0,1,,,1,FALSE,,,,,,,,,,,,,,,,,,,,,,,,,,,,,,,
,5f32b02a5cf1450159fc0728,627c6e7c7f7fbfcbee2a9699,2022-05-11_21h20.42.799,classification_task,2021.2.3,Win32,59.84798612,627c6715c52fd12f31907bcf,,,,,,,,,,,,,,,,,,,,,,,a,0,2.1242,"[""0.032"",""0.422"",""0.557"",""0.663""]","[1,1,1,0]",0,55,55,55,1,1,0,,,1,FALSE,,,,,,,,,,,,,,,,,,,,,,,,,,,,,,,
,5f32b02a5cf1450159fc0728,627c6e7c7f7fbfcbee2a9699,2022-05-11_21h20.42.799,classification_task,2021.2.3,Win32,59.84798612,627c6715c52fd12f31907bcf,,,,,,,,,,,,,,,,,,,,,,,a,1,1.2367,"[""0.707"",""0.511"",""0.895"",""0.938""]","[0,1,1,1]",0,56,56,56,1,0,1,,,1,FALSE,,,,,,,,,,,,,,,,,,,,,,,,,,,,,,,
,5f32b02a5cf1450159fc0728,627c6e7c7f7fbfcbee2a9699,2022-05-11_21h20.42.799,classification_task,2021.2.3,Win32,59.84798612,627c6715c52fd12f31907bcf,,,,,,,,,,,,,,,,,,,,,,,a,0,1.4208,"[""0.663"",""0.422"",""0.557"",""0.751""]","[0,1,1,1]",0,57,57,57,1,1,0,,,1,FALSE,,,,,,,,,,,,,,,,,,,,,,,,,,,,,,,
,5f32b02a5cf1450159fc0728,627c6e7c7f7fbfcbee2a9699,2022-05-11_21h20.42.799,classification_task,2021.2.3,Win32,59.84798612,627c6715c52fd12f31907bcf,,,,,,,,,,,,,,,,,,,,,,,a,0,3.4784,"[""0.032"",""0.422"",""0.685"",""0.751""]","[1,1,0,1]",0,58,58,58,1,1,0,,,1,FALSE,,,,,,,,,,,,,,,,,,,,,,,,,,,,,,,
,5f32b02a5cf1450159fc0728,627c6e7c7f7fbfcbee2a9699,2022-05-11_21h20.42.799,classification_task,2021.2.3,Win32,59.84798612,627c6715c52fd12f31907bcf,,,,,,,,,,,,,,,,,,,,,,,l,1,1.4209,"[""0.092"",""0.132"",""0.183"",""0.806""]","[1,1,0,1]",0,59,59,59,1,1,1,,,1,FALSE,,,,,,,,,,,,,,,,,,,,,,,,,,,,,,,
,5f32b02a5cf1450159fc0728,627c6e7c7f7fbfcbee2a9699,2022-05-11_21h20.42.799,classification_task,2021.2.3,Win32,59.84798612,627c6715c52fd12f31907bcf,,,,,,,,,,,,,,,,,,,,,,,l,0,1.0358,"[""0.199"",""0.346"",""0.858"",""0.973""]","[0,1,1,1]",0,60,60,60,1,0,0,,,1,FALSE,,,,,,,,,,,,,,,,,,,,,,,,,,,,,,,
,5f32b02a5cf1450159fc0728,627c6e7c7f7fbfcbee2a9699,2022-05-11_21h20.42.799,classification_task,2021.2.3,Win32,59.84798612,627c6715c52fd12f31907bcf,,,,,,,,,,,,,,,,,,,,,,,a,0,1.472,"[""0.092"",""0.685"",""0.474"",""0.806""]","[1,0,1,1]",0,61,61,61,1,1,1,,,1,FALSE,,,,,,,,,,,,,,,,,,,,,,,,,,,,,,,
,5f32b02a5cf1450159fc0728,627c6e7c7f7fbfcbee2a9699,2022-05-11_21h20.42.799,classification_task,2021.2.3,Win32,59.84798612,627c6715c52fd12f31907bcf,,,,,,,,,,,,,,,,,,,,,,,a,1,0.8191,"[""0.311"",""0.346"",""0.858"",""0.707""]","[1,1,1,0]",0,62,62,62,1,0,0,,,1,FALSE,,,,,,,,,,,,,,,,,,,,,,,,,,,,,,,
,5f32b02a5cf1450159fc0728,627c6e7c7f7fbfcbee2a9699,2022-05-11_21h20.42.799,classification_task,2021.2.3,Win32,59.84798612,627c6715c52fd12f31907bcf,,,,,,,,,,,,,,,,,,,,,,,a,1,1.4538,"[""0.237"",""0.511"",""0.895"",""0.193""]","[1,1,1,0]",0,63,63,63,1,0,1,,,1,FALSE,,,,,,,,,,,,,,,,,,,,,,,,,,,,,,,
,5f32b02a5cf1450159fc0728,627c6e7c7f7fbfcbee2a9699,2022-05-11_21h20.42.799,classification_task,2021.2.3,Win32,59.84798612,627c6715c52fd12f31907bcf,,,,,,,,,,,,,,,,,,,,,,,,,,,,,,,,,,,,,,,0, ,,0,5.068893298,490.1046,0,0,0,0,1,2,1,,,,,,,,,,,,,,,,,,
,5f32b02a5cf1450159fc0728,627c6e7c7f7fbfcbee2a9699,2022-05-11_21h20.42.799,classification_task,2021.2.3,Win32,59.84798612,627c6715c52fd12f31907bcf,,,,,,,,,,,,,,,,,,,,,,,,,,,,,,,,,,,,,,,1,  ,,0,10,485.6046,0,0,0,0,1,2,1,,,,,,,,,,,,,,,,,,
,5f32b02a5cf1450159fc0728,627c6e7c7f7fbfcbee2a9699,2022-05-11_21h20.42.799,classification_task,2021.2.3,Win32,59.84798612,627c6715c52fd12f31907bcf,,,,,,,,,,,,,,,,,,,,,,,,,,,,,,,,,,,,,,,2,  ,,0,7.962411817,493.2583,0,0,0,0,1,2,1,,,,,,,,,,,,,,,,,,
,5f32b02a5cf1450159fc0728,627c6e7c7f7fbfcbee2a9699,2022-05-11_21h20.42.799,classification_task,2021.2.3,Win32,59.84798612,627c6715c52fd12f31907bcf,,,,,,,,,,,,,,,,,,,,,,,,,,,,,,,,,,,,,,,,,,,,,0,0,0,0,1,,1,,,,,,,,,,,,,,,,,,
,5f32b02a5cf1450159fc0728,627c6e7c7f7fbfcbee2a9699,2022-05-11_21h20.42.799,classification_task,2021.2.3,Win32,59.84798612,627c6715c52fd12f31907bcf,,,,,,,,,,,,,,,,,,,,,space,18.8182,a,1,4.5268,"[""0.380"",""0.346"",""0.858"",""0.973""]","[0,1,1,1]",0,0,0,0,1,0,0,,,1,FALSE,,,,,,,,,,,,,,,,,,,,,,,,,,,,,,,
,5f32b02a5cf1450159fc0728,627c6e7c7f7fbfcbee2a9699,2022-05-11_21h20.42.799,classification_task,2021.2.3,Win32,59.84798612,627c6715c52fd12f31907bcf,,,,,,,,,,,,,,,,,,,,,,,a,1,1.288,"[""0.311"",""0.346"",""0.685"",""0.973""]","[1,1,0,1]",0,1,1,1,1,0,0,,,1,FALSE,,,,,,,,,,,,,,,,,,,,,,,,,,,,,,,
,5f32b02a5cf1450159fc0728,627c6e7c7f7fbfcbee2a9699,2022-05-11_21h20.42.799,classification_task,2021.2.3,Win32,59.84798612,627c6715c52fd12f31907bcf,,,,,,,,,,,,,,,,,,,,,,,a,1,1.8732,"[""0.311"",""0.346"",""0.858"",""0.685""]","[1,1,1,0]",0,2,2,2,1,0,0,,,1,FALSE,,,,,,,,,,,,,,,,,,,,,,,,,,,,,,,
,5f32b02a5cf1450159fc0728,627c6e7c7f7fbfcbee2a9699,2022-05-11_21h20.42.799,classification_task,2021.2.3,Win32,59.84798612,627c6715c52fd12f31907bcf,,,,,,,,,,,,,,,,,,,,,,,l,1,2.3243,"[""0.092"",""0.132"",""0.474"",""0.663""]","[1,1,1,0]",0,3,3,3,1,1,1,,,1,FALSE,,,,,,,,,,,,,,,,,,,,,,,,,,,,,,,
,5f32b02a5cf1450159fc0728,627c6e7c7f7fbfcbee2a9699,2022-05-11_21h20.42.799,classification_task,2021.2.3,Win32,59.84798612,627c6715c52fd12f31907bcf,,,,,,,,,,,,,,,,,,,,,,,a,0,0.918,"[""0.032"",""0.422"",""0.668"",""0.751""]","[1,1,0,1]",0,4,4,4,1,1,0,,,1,FALSE,,,,,,,,,,,,,,,,,,,,,,,,,,,,,,,
,5f32b02a5cf1450159fc0728,627c6e7c7f7fbfcbee2a9699,2022-05-11_21h20.42.799,classification_task,2021.2.3,Win32,59.84798612,627c6715c52fd12f31907bcf,,,,,,,,,,,,,,,,,,,,,,,a,1,3.21,"[""0.237"",""0.511"",""0.895"",""0.183""]","[1,1,1,0]",0,5,5,5,1,0,1,,,1,FALSE,,,,,,,,,,,,,,,,,,,,,,,,,,,,,,,
,5f32b02a5cf1450159fc0728,627c6e7c7f7fbfcbee2a9699,2022-05-11_21h20.42.799,classification_task,2021.2.3,Win32,59.84798612,627c6715c52fd12f31907bcf,,,,,,,,,,,,,,,,,,,,,,,l,1,1.9392,"[""0.183"",""0.132"",""0.474"",""0.806""]","[0,1,1,1]",0,6,6,6,1,1,1,,,1,FALSE,,,,,,,,,,,,,,,,,,,,,,,,,,,,,,,
,5f32b02a5cf1450159fc0728,627c6e7c7f7fbfcbee2a9699,2022-05-11_21h20.42.799,classification_task,2021.2.3,Win32,59.84798612,627c6715c52fd12f31907bcf,,,,,,,,,,,,,,,,,,,,,,,a,1,1.121,"[""0.237"",""0.511"",""0.199"",""0.938""]","[1,1,0,1]",0,7,7,7,1,0,1,,,1,FALSE,,,,,,,,,,,,,,,,,,,,,,,,,,,,,,,
,5f32b02a5cf1450159fc0728,627c6e7c7f7fbfcbee2a9699,2022-05-11_21h20.42.799,classification_task,2021.2.3,Win32,59.84798612,627c6715c52fd12f31907bcf,,,,,,,,,,,,,,,,,,,,,,,l,1,1.0701,"[""0.092"",""0.132"",""0.199"",""0.806""]","[1,1,0,1]",0,8,8,8,1,1,1,,,1,FALSE,,,,,,,,,,,,,,,,,,,,,,,,,,,,,,,
,5f32b02a5cf1450159fc0728,627c6e7c7f7fbfcbee2a9699,2022-05-11_21h20.42.799,classification_task,2021.2.3,Win32,59.84798612,627c6715c52fd12f31907bcf,,,,,,,,,,,,,,,,,,,,,,,a,0,1.8042,"[""0.669"",""0.422"",""0.557"",""0.751""]","[0,1,1,1]",0,9,9,9,1,1,0,,,1,FALSE,,,,,,,,,,,,,,,,,,,,,,,,,,,,,,,
,5f32b02a5cf1450159fc0728,627c6e7c7f7fbfcbee2a9699,2022-05-11_21h20.42.799,classification_task,2021.2.3,Win32,59.84798612,627c6715c52fd12f31907bcf,,,,,,,,,,,,,,,,,,,,,,,a,0,0.903,"[""0.032"",""0.422"",""0.557"",""0.193""]","[1,1,1,0]",0,10,10,10,1,1,0,,,1,FALSE,,,,,,,,,,,,,,,,,,,,,,,,,,,,,,,
,5f32b02a5cf1450159fc0728,627c6e7c7f7fbfcbee2a9699,2022-05-11_21h20.42.799,classification_task,2021.2.3,Win32,59.84798612,627c6715c52fd12f31907bcf,,,,,,,,,,,,,,,,,,,,,,,l,0,1.0702,"[""0.311"",""0.663"",""0.858"",""0.973""]","[1,0,1,1]",0,11,11,11,1,0,0,,,1,FALSE,,,,,,,,,,,,,,,,,,,,,,,,,,,,,,,
,5f32b02a5cf1450159fc0728,627c6e7c7f7fbfcbee2a9699,2022-05-11_21h20.42.799,classification_task,2021.2.3,Win32,59.84798612,627c6715c52fd12f31907bcf,,,,,,,,,,,,,,,,,,,,,,,a,0,0.7362,"[""0.032"",""0.199"",""0.557"",""0.751""]","[1,0,1,1]",0,12,12,12,1,1,0,,,1,FALSE,,,,,,,,,,,,,,,,,,,,,,,,,,,,,,,
,5f32b02a5cf1450159fc0728,627c6e7c7f7fbfcbee2a9699,2022-05-11_21h20.42.799,classification_task,2021.2.3,Win32,59.84798612,627c6715c52fd12f31907bcf,,,,,,,,,,,,,,,,,,,,,,,a,1,1.4876,"[""0.685"",""0.511"",""0.895"",""0.938""]","[0,1,1,1]",0,13,13,13,1,0,1,,,1,FALSE,,,,,,,,,,,,,,,,,,,,,,,,,,,,,,,
,5f32b02a5cf1450159fc0728,627c6e7c7f7fbfcbee2a9699,2022-05-11_21h20.42.799,classification_task,2021.2.3,Win32,59.84798612,627c6715c52fd12f31907bcf,,,,,,,,,,,,,,,,,,,,,,,a,1,0.5517,"[""0.237"",""0.606"",""0.895"",""0.938""]","[1,0,1,1]",0,14,14,14,1,0,1,,,1,FALSE,,,,,,,,,,,,,,,,,,,,,,,,,,,,,,,
,5f32b02a5cf1450159fc0728,627c6e7c7f7fbfcbee2a9699,2022-05-11_21h20.42.799,classification_task,2021.2.3,Win32,59.84798612,627c6715c52fd12f31907bcf,,,,,,,,,,,,,,,,,,,,,,,l,1,0.4516,"[""0.092"",""0.199"",""0.474"",""0.806""]","[1,0,1,1]",0,15,15,15,1,1,1,,,1,FALSE,,,,,,,,,,,,,,,,,,,,,,,,,,,,,,,
,5f32b02a5cf1450159fc0728,627c6e7c7f7fbfcbee2a9699,2022-05-11_21h20.42.799,classification_task,2021.2.3,Win32,59.84798612,627c6715c52fd12f31907bcf,,,,,,,,,,,,,,,,,,,,,,,l,1,0.7996,"[""0.704"",""0.422"",""0.557"",""0.751""]","[0,1,1,1]",0,16,16,16,1,1,0,,,1,FALSE,,,,,,,,,,,,,,,,,,,,,,,,,,,,,,,
,5f32b02a5cf1450159fc0728,627c6e7c7f7fbfcbee2a9699,2022-05-11_21h20.42.799,classification_task,2021.2.3,Win32,59.84798612,627c6715c52fd12f31907bcf,,,,,,,,,,,,,,,,,,,,,,,a,1,0.6846,"[""0.237"",""0.511"",""0.613"",""0.938""]","[1,1,0,1]",0,17,17,17,1,0,1,,,1,FALSE,,,,,,,,,,,,,,,,,,,,,,,,,,,,,,,
,5f32b02a5cf1450159fc0728,627c6e7c7f7fbfcbee2a9699,2022-05-11_21h20.42.799,classification_task,2021.2.3,Win32,59.84798612,627c6715c52fd12f31907bcf,,,,,,,,,,,,,,,,,,,,,,,l,0,1.8393,"[""0.311"",""0.346"",""0.380"",""0.973""]","[1,1,0,1]",0,18,18,18,1,0,0,,,1,FALSE,,,,,,,,,,,,,,,,,,,,,,,,,,,,,,,
,5f32b02a5cf1450159fc0728,627c6e7c7f7fbfcbee2a9699,2022-05-11_21h20.42.799,classification_task,2021.2.3,Win32,59.84798612,627c6715c52fd12f31907bcf,,,,,,,,,,,,,,,,,,,,,,,a,1,0.9185,"[""0.237"",""0.193"",""0.895"",""0.938""]","[1,0,1,1]",0,19,19,19,1,0,1,,,1,FALSE,,,,,,,,,,,,,,,,,,,,,,,,,,,,,,,
,5f32b02a5cf1450159fc0728,627c6e7c7f7fbfcbee2a9699,2022-05-11_21h20.42.799,classification_task,2021.2.3,Win32,59.84798612,627c6715c52fd12f31907bcf,,,,,,,,,,,,,,,,,,,,,,,l,1,0.618,"[""0.092"",""0.132"",""0.474"",""0.199""]","[1,1,1,0]",0,20,20,20,1,1,1,,,1,FALSE,,,,,,,,,,,,,,,,,,,,,,,,,,,,,,,
,5f32b02a5cf1450159fc0728,627c6e7c7f7fbfcbee2a9699,2022-05-11_21h20.42.799,classification_task,2021.2.3,Win32,59.84798612,627c6715c52fd12f31907bcf,,,,,,,,,,,,,,,,,,,,,,,a,0,0.6681,"[""0.032"",""0.422"",""0.557"",""0.606""]","[1,1,1,0]",0,21,21,21,1,1,0,,,1,FALSE,,,,,,,,,,,,,,,,,,,,,,,,,,,,,,,
,5f32b02a5cf1450159fc0728,627c6e7c7f7fbfcbee2a9699,2022-05-11_21h20.42.799,classification_task,2021.2.3,Win32,59.84798612,627c6715c52fd12f31907bcf,,,,,,,,,,,,,,,,,,,,,,,a,1,0.685,"[""0.311"",""0.346"",""0.858"",""0.663""]","[1,1,1,0]",0,22,22,22,1,0,0,,,1,FALSE,,,,,,,,,,,,,,,,,,,,,,,,,,,,,,,
,5f32b02a5cf1450159fc0728,627c6e7c7f7fbfcbee2a9699,2022-05-11_21h20.42.799,classification_task,2021.2.3,Win32,59.84798612,627c6715c52fd12f31907bcf,,,,,,,,,,,,,,,,,,,,,,,a,0,0.8524,"[""0.032"",""0.663"",""0.557"",""0.751""]","[1,0,1,1]",0,23,23,23,1,1,0,,,1,FALSE,,,,,,,,,,,,,,,,,,,,,,,,,,,,,,,
,5f32b02a5cf1450159fc0728,627c6e7c7f7fbfcbee2a9699,2022-05-11_21h20.42.799,classification_task,2021.2.3,Win32,59.84798612,627c6715c52fd12f31907bcf,,,,,,,,,,,,,,,,,,,,,,,l,0,0.6516,"[""0.632"",""0.346"",""0.858"",""0.973""]","[0,1,1,1]",0,24,24,24,1,0,0,,,1,FALSE,,,,,,,,,,,,,,,,,,,,,,,,,,,,,,,
,5f32b02a5cf1450159fc0728,627c6e7c7f7fbfcbee2a9699,2022-05-11_21h20.42.799,classification_task,2021.2.3,Win32,59.84798612,627c6715c52fd12f31907bcf,,,,,,,,,,,,,,,,,,,,,,,a,1,0.701,"[""0.237"",""0.511"",""0.895"",""0.613""]","[1,1,1,0]",0,25,25,25,1,0,1,,,1,FALSE,,,,,,,,,,,,,,,,,,,,,,,,,,,,,,,
,5f32b02a5cf1450159fc0728,627c6e7c7f7fbfcbee2a9699,2022-05-11_21h20.42.799,classification_task,2021.2.3,Win32,59.84798612,627c6715c52fd12f31907bcf,,,,,,,,,,,,,,,,,,,,,,,l,1,0.5012,"[""0.092"",""0.635"",""0.474"",""0.806""]","[1,0,1,1]",0,26,26,26,1,1,1,,,1,FALSE,,,,,,,,,,,,,,,,,,,,,,,,,,,,,,,
,5f32b02a5cf1450159fc0728,627c6e7c7f7fbfcbee2a9699,2022-05-11_21h20.42.799,classification_task,2021.2.3,Win32,59.84798612,627c6715c52fd12f31907bcf,,,,,,,,,,,,,,,,,,,,,,,l,1,0.5346,"[""0.092"",""0.132"",""0.707"",""0.806""]","[1,1,0,1]",0,27,27,27,1,1,1,,,1,FALSE,,,,,,,,,,,,,,,,,,,,,,,,,,,,,,,
,5f32b02a5cf1450159fc0728,627c6e7c7f7fbfcbee2a9699,2022-05-11_21h20.42.799,classification_task,2021.2.3,Win32,59.84798612,627c6715c52fd12f31907bcf,,,,,,,,,,,,,,,,,,,,,,,a,0,0.6347,"[""0.032"",""0.422"",""0.668"",""0.751""]","[1,1,0,1]",0,28,28,28,1,1,0,,,1,FALSE,,,,,,,,,,,,,,,,,,,,,,,,,,,,,,,
,5f32b02a5cf1450159fc0728,627c6e7c7f7fbfcbee2a9699,2022-05-11_21h20.42.799,classification_task,2021.2.3,Win32,59.84798612,627c6715c52fd12f31907bcf,,,,,,,,,,,,,,,,,,,,,,,l,1,1.1863,"[""0.183"",""0.132"",""0.474"",""0.806""]","[0,1,1,1]",0,29,29,29,1,1,1,,,1,FALSE,,,,,,,,,,,,,,,,,,,,,,,,,,,,,,,
,5f32b02a5cf1450159fc0728,627c6e7c7f7fbfcbee2a9699,2022-05-11_21h20.42.799,classification_task,2021.2.3,Win32,59.84798612,627c6715c52fd12f31907bcf,,,,,,,,,,,,,,,,,,,,,,,a,1,0.4513,"[""0.704"",""0.511"",""0.895"",""0.938""]","[0,1,1,1]",0,30,30,30,1,0,1,,,1,FALSE,,,,,,,,,,,,,,,,,,,,,,,,,,,,,,,
,5f32b02a5cf1450159fc0728,627c6e7c7f7fbfcbee2a9699,2022-05-11_21h20.42.799,classification_task,2021.2.3,Win32,59.84798612,627c6715c52fd12f31907bcf,,,,,,,,,,,,,,,,,,,,,,,l,0,0.6677,"[""0.311"",""0.669"",""0.858"",""0.973""]","[1,0,1,1]",0,31,31,31,1,0,0,,,1,FALSE,,,,,,,,,,,,,,,,,,,,,,,,,,,,,,,
,5f32b02a5cf1450159fc0728,627c6e7c7f7fbfcbee2a9699,2022-05-11_21h20.42.799,classification_task,2021.2.3,Win32,59.84798612,627c6715c52fd12f31907bcf,,,,,,,,,,,,,,,,,,,,,,,a,0,0.9531,"[""0.685"",""0.422"",""0.557"",""0.751""]","[0,1,1,1]",0,32,32,32,1,1,0,,,1,FALSE,,,,,,,,,,,,,,,,,,,,,,,,,,,,,,,
,5f32b02a5cf1450159fc0728,627c6e7c7f7fbfcbee2a9699,2022-05-11_21h20.42.799,classification_task,2021.2.3,Win32,59.84798612,627c6715c52fd12f31907bcf,,,,,,,,,,,,,,,,,,,,,,,l,1,0.9854,"[""0.669"",""0.132"",""0.474"",""0.806""]","[0,1,1,1]",0,33,33,33,1,1,1,,,1,FALSE,,,,,,,,,,,,,,,,,,,,,,,,,,,,,,,
,5f32b02a5cf1450159fc0728,627c6e7c7f7fbfcbee2a9699,2022-05-11_21h20.42.799,classification_task,2021.2.3,Win32,59.84798612,627c6715c52fd12f31907bcf,,,,,,,,,,,,,,,,,,,,,,,l,0,0.8185,"[""0.199"",""0.346"",""0.858"",""0.973""]","[0,1,1,1]",0,34,34,34,1,0,0,,,1,FALSE,,,,,,,,,,,,,,,,,,,,,,,,,,,,,,,
,5f32b02a5cf1450159fc0728,627c6e7c7f7fbfcbee2a9699,2022-05-11_21h20.42.799,classification_task,2021.2.3,Win32,59.84798612,627c6715c52fd12f31907bcf,,,,,,,,,,,,,,,,,,,,,,,a,0,1.0704,"[""0.032"",""0.193"",""0.557"",""0.751""]","[1,0,1,1]",0,35,35,35,1,1,0,,,1,FALSE,,,,,,,,,,,,,,,,,,,,,,,,,,,,,,,
,5f32b02a5cf1450159fc0728,627c6e7c7f7fbfcbee2a9699,2022-05-11_21h20.42.799,classification_task,2021.2.3,Win32,59.84798612,627c6715c52fd12f31907bcf,,,,,,,,,,,,,,,,,,,,,,,a,1,0.9521,"[""0.237"",""0.511"",""0.183"",""0.938""]","[1,1,0,1]",0,36,36,36,1,0,1,,,1,FALSE,,,,,,,,,,,,,,,,,,,,,,,,,,,,,,,
,5f32b02a5cf1450159fc0728,627c6e7c7f7fbfcbee2a9699,2022-05-11_21h20.42.799,classification_task,2021.2.3,Win32,59.84798612,627c6715c52fd12f31907bcf,,,,,,,,,,,,,,,,,,,,,,,l,1,0.552,"[""0.092"",""0.132"",""0.635"",""0.806""]","[1,1,0,1]",0,37,37,37,1,1,1,,,1,FALSE,,,,,,,,,,,,,,,,,,,,,,,,,,,,,,,
,5f32b02a5cf1450159fc0728,627c6e7c7f7fbfcbee2a9699,2022-05-11_21h20.42.799,classification_task,2021.2.3,Win32,59.84798612,627c6715c52fd12f31907bcf,,,,,,,,,,,,,,,,,,,,,,,l,1,0.451,"[""0.092"",""0.193"",""0.474"",""0.806""]","[1,0,1,1]",0,38,38,38,1,1,1,,,1,FALSE,,,,,,,,,,,,,,,,,,,,,,,,,,,,,,,
,5f32b02a5cf1450159fc0728,627c6e7c7f7fbfcbee2a9699,2022-05-11_21h20.42.799,classification_task,2021.2.3,Win32,59.84798612,627c6715c52fd12f31907bcf,,,,,,,,,,,,,,,,,,,,,,,l,1,0.8525,"[""0.032"",""0.422"",""0.557"",""0.668""]","[1,1,1,0]",0,39,39,39,1,1,0,,,1,FALSE,,,,,,,,,,,,,,,,,,,,,,,,,,,,,,,
,5f32b02a5cf1450159fc0728,627c6e7c7f7fbfcbee2a9699,2022-05-11_21h20.42.799,classification_task,2021.2.3,Win32,59.84798612,627c6715c52fd12f31907bcf,,,,,,,,,,,,,,,,,,,,,,,l,1,0.6363,"[""0.032"",""0.422"",""0.704"",""0.751""]","[1,1,0,1]",0,40,40,40,1,1,0,,,1,FALSE,,,,,,,,,,,,,,,,,,,,,,,,,,,,,,,
,5f32b02a5cf1450159fc0728,627c6e7c7f7fbfcbee2a9699,2022-05-11_21h20.42.799,classification_task,2021.2.3,Win32,59.84798612,627c6715c52fd12f31907bcf,,,,,,,,,,,,,,,,,,,,,,,a,1,0.9353,"[""0.237"",""0.511"",""0.895"",""0.669""]","[1,1,1,0]",0,41,41,41,1,0,1,,,1,FALSE,,,,,,,,,,,,,,,,,,,,,,,,,,,,,,,
,5f32b02a5cf1450159fc0728,627c6e7c7f7fbfcbee2a9699,2022-05-11_21h20.42.799,classification_task,2021.2.3,Win32,59.84798612,627c6715c52fd12f31907bcf,,,,,,,,,,,,,,,,,,,,,,,l,1,1.6214,"[""0.092"",""0.132"",""0.474"",""0.613""]","[1,1,1,0]",0,42,42,42,1,1,1,,,1,FALSE,,,,,,,,,,,,,,,,,,,,,,,,,,,,,,,
,5f32b02a5cf1450159fc0728,627c6e7c7f7fbfcbee2a9699,2022-05-11_21h20.42.799,classification_task,2021.2.3,Win32,59.84798612,627c6715c52fd12f31907bcf,,,,,,,,,,,,,,,,,,,,,,,l,0,1.1179,"[""0.311"",""0.663"",""0.858"",""0.973""]","[1,0,1,1]",0,43,43,43,1,0,0,,,1,FALSE,,,,,,,,,,,,,,,,,,,,,,,,,,,,,,,
,5f32b02a5cf1450159fc0728,627c6e7c7f7fbfcbee2a9699,2022-05-11_21h20.42.799,classification_task,2021.2.3,Win32,59.84798612,627c6715c52fd12f31907bcf,,,,,,,,,,,,,,,,,,,,,,,l,0,1.3708,"[""0.311"",""0.346"",""0.704"",""0.973""]","[1,1,0,1]",0,44,44,44,1,0,0,,,1,FALSE,,,,,,,,,,,,,,,,,,,,,,,,,,,,,,,
,5f32b02a5cf1450159fc0728,627c6e7c7f7fbfcbee2a9699,2022-05-11_21h20.42.799,classification_task,2021.2.3,Win32,59.84798612,627c6715c52fd12f31907bcf,,,,,,,,,,,,,,,,,,,,,,,a,1,0.6181,"[""0.311"",""0.346"",""0.858"",""0.635""]","[1,1,1,0]",0,45,45,45,1,0,0,,,1,FALSE,,,,,,,,,,,,,,,,,,,,,,,,,,,,,,,
,5f32b02a5cf1450159fc0728,627c6e7c7f7fbfcbee2a9699,2022-05-11_21h20.42.799,classification_task,2021.2.3,Win32,59.84798612,627c6715c52fd12f31907bcf,,,,,,,,,,,,,,,,,,,,,,,a,1,1.671,"[""0.237"",""0.685"",""0.895"",""0.938""]","[1,0,1,1]",0,46,46,46,1,0,1,,,1,FALSE,,,,,,,,,,,,,,,,,,,,,,,,,,,,,,,
,5f32b02a5cf1450159fc0728,627c6e7c7f7fbfcbee2a9699,2022-05-11_21h20.42.799,classification_task,2021.2.3,Win32,59.84798612,627c6715c52fd12f31907bcf,,,,,,,,,,,,,,,,,,,,,,,a,1,0.569,"[""0.613"",""0.511"",""0.895"",""0.938""]","[0,1,1,1]",0,47,47,47,1,0,1,,,1,FALSE,,,,,,,,,,,,,,,,,,,,,,,,,,,,,,,
,5f32b02a5cf1450159fc0728,627c6e7c7f7fbfcbee2a9699,2022-05-11_21h20.42.799,classification_task,2021.2.3,Win32,59.84798612,627c6715c52fd12f31907bcf,,,,,,,,,,,,,,,,,,,,,,,l,0,0.6689,"[""0.668"",""0.346"",""0.858"",""0.973""]","[0,1,1,1]",0,48,48,48,1,0,0,,,1,FALSE,,,,,,,,,,,,,,,,,,,,,,,,,,,,,,,
,5f32b02a5cf1450159fc0728,627c6e7c7f7fbfcbee2a9699,2022-05-11_21h20.42.799,classification_task,2021.2.3,Win32,59.84798612,627c6715c52fd12f31907bcf,,,,,,,,,,,,,,,,,,,,,,,l,1,0.7511,"[""0.092"",""0.132"",""0.474"",""0.632""]","[1,1,1,0]",0,49,49,49,1,1,1,,,1,FALSE,,,,,,,,,,,,,,,,,,,,,,,,,,,,,,,
,5f32b02a5cf1450159fc0728,627c6e7c7f7fbfcbee2a9699,2022-05-11_21h20.42.799,classification_task,2021.2.3,Win32,59.84798612,627c6715c52fd12f31907bcf,,,,,,,,,,,,,,,,,,,,,,,a,1,0.586,"[""0.650"",""0.511"",""0.895"",""0.938""]","[0,1,1,1]",0,50,50,50,1,0,1,,,1,FALSE,,,,,,,,,,,,,,,,,,,,,,,,,,,,,,,
,5f32b02a5cf1450159fc0728,627c6e7c7f7fbfcbee2a9699,2022-05-11_21h20.42.799,classification_task,2021.2.3,Win32,59.84798612,627c6715c52fd12f31907bcf,,,,,,,,,,,,,,,,,,,,,,,l,1,0.6358,"[""0.092"",""0.132"",""0.199"",""0.806""]","[1,1,0,1]",0,51,51,51,1,1,1,,,1,FALSE,,,,,,,,,,,,,,,,,,,,,,,,,,,,,,,
,5f32b02a5cf1450159fc0728,627c6e7c7f7fbfcbee2a9699,2022-05-11_21h20.42.799,classification_task,2021.2.3,Win32,59.84798612,627c6715c52fd12f31907bcf,,,,,,,,,,,,,,,,,,,,,,,a,0,0.5677,"[""0.032"",""0.668"",""0.557"",""0.751""]","[1,0,1,1]",0,52,52,52,1,1,0,,,1,FALSE,,,,,,,,,,,,,,,,,,,,,,,,,,,,,,,
,5f32b02a5cf1450159fc0728,627c6e7c7f7fbfcbee2a9699,2022-05-11_21h20.42.799,classification_task,2021.2.3,Win32,59.84798612,627c6715c52fd12f31907bcf,,,,,,,,,,,,,,,,,,,,,,,a,1,0.4352,"[""0.311"",""0.346"",""0.858"",""0.668""]","[1,1,1,0]",0,53,53,53,1,0,0,,,1,FALSE,,,,,,,,,,,,,,,,,,,,,,,,,,,,,,,
,5f32b02a5cf1450159fc0728,627c6e7c7f7fbfcbee2a9699,2022-05-11_21h20.42.799,classification_task,2021.2.3,Win32,59.84798612,627c6715c52fd12f31907bcf,,,,,,,,,,,,,,,,,,,,,,,a,1,1.169,"[""0.237"",""0.511"",""0.895"",""0.635""]","[1,1,1,0]",0,54,54,54,1,0,1,,,1,FALSE,,,,,,,,,,,,,,,,,,,,,,,,,,,,,,,
,5f32b02a5cf1450159fc0728,627c6e7c7f7fbfcbee2a9699,2022-05-11_21h20.42.799,classification_task,2021.2.3,Win32,59.84798612,627c6715c52fd12f31907bcf,,,,,,,,,,,,,,,,,,,,,,,a,0,0.7183,"[""0.032"",""0.422"",""0.183"",""0.751""]","[1,1,0,1]",0,55,55,55,1,1,0,,,1,FALSE,,,,,,,,,,,,,,,,,,,,,,,,,,,,,,,
,5f32b02a5cf1450159fc0728,627c6e7c7f7fbfcbee2a9699,2022-05-11_21h20.42.799,classification_task,2021.2.3,Win32,59.84798612,627c6715c52fd12f31907bcf,,,,,,,,,,,,,,,,,,,,,,,l,1,0.6192,"[""0.183"",""0.422"",""0.557"",""0.751""]","[0,1,1,1]",0,56,56,56,1,1,0,,,1,FALSE,,,,,,,,,,,,,,,,,,,,,,,,,,,,,,,
,5f32b02a5cf1450159fc0728,627c6e7c7f7fbfcbee2a9699,2022-05-11_21h20.42.799,classification_task,2021.2.3,Win32,59.84798612,627c6715c52fd12f31907bcf,,,,,,,,,,,,,,,,,,,,,,,l,0,0.4329,"[""0.237"",""0.511"",""0.193"",""0.938""]","[1,1,0,1]",0,57,57,57,1,0,1,,,1,FALSE,,,,,,,,,,,,,,,,,,,,,,,,,,,,,,,
,5f32b02a5cf1450159fc0728,627c6e7c7f7fbfcbee2a9699,2022-05-11_21h20.42.799,classification_task,2021.2.3,Win32,59.84798612,627c6715c52fd12f31907bcf,,,,,,,,,,,,,,,,,,,,,,,a,1,0.8696,"[""0.237"",""0.669"",""0.895"",""0.938""]","[1,0,1,1]",0,58,58,58,1,0,1,,,1,FALSE,,,,,,,,,,,,,,,,,,,,,,,,,,,,,,,
,5f32b02a5cf1450159fc0728,627c6e7c7f7fbfcbee2a9699,2022-05-11_21h20.42.799,classification_task,2021.2.3,Win32,59.84798612,627c6715c52fd12f31907bcf,,,,,,,,,,,,,,,,,,,,,,,l,0,0.8347,"[""0.311"",""0.346"",""0.193"",""0.973""]","[1,1,0,1]",0,59,59,59,1,0,0,,,1,FALSE,,,,,,,,,,,,,,,,,,,,,,,,,,,,,,,
,5f32b02a5cf1450159fc0728,627c6e7c7f7fbfcbee2a9699,2022-05-11_21h20.42.799,classification_task,2021.2.3,Win32,59.84798612,627c6715c52fd12f31907bcf,,,,,,,,,,,,,,,,,,,,,,,l,1,0.9025,"[""0.663"",""0.132"",""0.474"",""0.806""]","[0,1,1,1]",0,60,60,60,1,1,1,,,1,FALSE,,,,,,,,,,,,,,,,,,,,,,,,,,,,,,,
,5f32b02a5cf1450159fc0728,627c6e7c7f7fbfcbee2a9699,2022-05-11_21h20.42.799,classification_task,2021.2.3,Win32,59.84798612,627c6715c52fd12f31907bcf,,,,,,,,,,,,,,,,,,,,,,,a,1,0.7014,"[""0.311"",""0.193"",""0.858"",""0.973""]","[1,0,1,1]",0,61,61,61,1,0,0,,,1,FALSE,,,,,,,,,,,,,,,,,,,,,,,,,,,,,,,
,5f32b02a5cf1450159fc0728,627c6e7c7f7fbfcbee2a9699,2022-05-11_21h20.42.799,classification_task,2021.2.3,Win32,59.84798612,627c6715c52fd12f31907bcf,,,,,,,,,,,,,,,,,,,,,,,a,0,0.5685,"[""0.032"",""0.422"",""0.557"",""0.613""]","[1,1,1,0]",0,62,62,62,1,1,0,,,1,FALSE,,,,,,,,,,,,,,,,,,,,,,,,,,,,,,,
,5f32b02a5cf1450159fc0728,627c6e7c7f7fbfcbee2a9699,2022-05-11_21h20.42.799,classification_task,2021.2.3,Win32,59.84798612,627c6715c52fd12f31907bcf,,,,,,,,,,,,,,,,,,,,,,,l,1,0.5344,"[""0.092"",""0.704"",""0.474"",""0.806""]","[1,0,1,1]",0,63,63,63,1,1,1,,,1,FALSE,,,,,,,,,,,,,,,,,,,,,,,,,,,,,,,
,5f32b02a5cf1450159fc0728,627c6e7c7f7fbfcbee2a9699,2022-05-11_21h20.42.799,classification_task,2021.2.3,Win32,59.84798612,627c6715c52fd12f31907bcf,,,,,,,,,,,,,,,,,,,,,,,,,,,,,,,,,,,,,,,0, ,,0,8.582451499,194.5921,0,1,1,1,1,2,2,,,,,,,,,,,,,,,,,,
,5f32b02a5cf1450159fc0728,627c6e7c7f7fbfcbee2a9699,2022-05-11_21h20.42.799,classification_task,2021.2.3,Win32,59.84798612,627c6715c52fd12f31907bcf,,,,,,,,,,,,,,,,,,,,,,,,,,,,,,,,,,,,,,,1,  ,,0,6.825672399,198.7897,0,1,1,1,1,2,2,,,,,,,,,,,,,,,,,,
,5f32b02a5cf1450159fc0728,627c6e7c7f7fbfcbee2a9699,2022-05-11_21h20.42.799,classification_task,2021.2.3,Win32,59.84798612,627c6715c52fd12f31907bcf,,,,,,,,,,,,,,,,,,,,,,,,,,,,,,,,,,,,,,,2,  ,,0,6.929012346,197.4187,0,1,1,1,1,2,2,,,,,,,,,,,,,,,,,,
,5f32b02a5cf1450159fc0728,627c6e7c7f7fbfcbee2a9699,2022-05-11_21h20.42.799,classification_task,2021.2.3,Win32,59.84798612,627c6715c52fd12f31907bcf,,,,,,,,,,,,,,,,,,,,,,,,,,,,,,,,,,,,,,,,,,,,,0,1,1,1,1,,2,,,,,,,,,,,,,,,,,,
,5f32b02a5cf1450159fc0728,627c6e7c7f7fbfcbee2a9699,2022-05-11_21h20.42.799,classification_task,2021.2.3,Win32,59.84798612,627c6715c52fd12f31907bcf,,,,,,,,,,,,,,,,,,,,,space,12.8817,a,0,1.4198,"[""0.032"",""0.422"",""0.193"",""0.751""]","[1,1,0,1]",0,0,0,0,1,1,0,,,1,FALSE,,,,,,,,,,,,,,,,,,,,,,,,,,,,,,,
,5f32b02a5cf1450159fc0728,627c6e7c7f7fbfcbee2a9699,2022-05-11_21h20.42.799,classification_task,2021.2.3,Win32,59.84798612,627c6715c52fd12f31907bcf,,,,,,,,,,,,,,,,,,,,,,,a,1,2.1247,"[""0.237"",""0.511"",""0.635"",""0.938""]","[1,1,0,1]",0,1,1,1,1,0,1,,,1,FALSE,,,,,,,,,,,,,,,,,,,,,,,,,,,,,,,
,5f32b02a5cf1450159fc0728,627c6e7c7f7fbfcbee2a9699,2022-05-11_21h20.42.799,classification_task,2021.2.3,Win32,59.84798612,627c6715c52fd12f31907bcf,,,,,,,,,,,,,,,,,,,,,,,l,1,1.9399,"[""0.092"",""0.132"",""0.474"",""0.635""]","[1,1,1,0]",0,2,2,2,1,1,1,,,1,FALSE,,,,,,,,,,,,,,,,,,,,,,,,,,,,,,,
,5f32b02a5cf1450159fc0728,627c6e7c7f7fbfcbee2a9699,2022-05-11_21h20.42.799,classification_task,2021.2.3,Win32,59.84798612,627c6715c52fd12f31907bcf,,,,,,,,,,,,,,,,,,,,,,,a,0,1.2709,"[""0.032"",""0.422"",""0.557"",""0.704""]","[1,1,1,0]",0,3,3,3,1,1,0,,,1,FALSE,,,,,,,,,,,,,,,,,,,,,,,,,,,,,,,
,5f32b02a5cf1450159fc0728,627c6e7c7f7fbfcbee2a9699,2022-05-11_21h20.42.799,classification_task,2021.2.3,Win32,59.84798612,627c6715c52fd12f31907bcf,,,,,,,,,,,,,,,,,,,,,,,l,0,0.9358,"[""0.632"",""0.511"",""0.895"",""0.938""]","[0,1,1,1]",0,4,4,4,1,0,1,,,1,FALSE,,,,,,,,,,,,,,,,,,,,,,,,,,,,,,,
,5f32b02a5cf1450159fc0728,627c6e7c7f7fbfcbee2a9699,2022-05-11_21h20.42.799,classification_task,2021.2.3,Win32,59.84798612,627c6715c52fd12f31907bcf,,,,,,,,,,,,,,,,,,,,,,,a,1,0.8029,"[""0.237"",""0.511"",""0.895"",""0.183""]","[1,1,1,0]",0,5,5,5,1,0,1,,,1,FALSE,,,,,,,,,,,,,,,,,,,,,,,,,,,,,,,
,5f32b02a5cf1450159fc0728,627c6e7c7f7fbfcbee2a9699,2022-05-11_21h20.42.799,classification_task,2021.2.3,Win32,59.84798612,627c6715c52fd12f31907bcf,,,,,,,,,,,,,,,,,,,,,,,a,1,0.5017,"[""0.311"",""0.346"",""0.858"",""0.704""]","[1,1,1,0]",0,6,6,6,1,0,0,,,1,FALSE,,,,,,,,,,,,,,,,,,,,,,,,,,,,,,,
,5f32b02a5cf1450159fc0728,627c6e7c7f7fbfcbee2a9699,2022-05-11_21h20.42.799,classification_task,2021.2.3,Win32,59.84798612,627c6715c52fd12f31907bcf,,,,,,,,,,,,,,,,,,,,,,,l,1,1.1873,"[""0.617"",""0.132"",""0.474"",""0.806""]","[0,1,1,1]",0,7,7,7,1,1,1,,,1,FALSE,,,,,,,,,,,,,,,,,,,,,,,,,,,,,,,
,5f32b02a5cf1450159fc0728,627c6e7c7f7fbfcbee2a9699,2022-05-11_21h20.42.799,classification_task,2021.2.3,Win32,59.84798612,627c6715c52fd12f31907bcf,,,,,,,,,,,,,,,,,,,,,,,l,1,0.6358,"[""0.092"",""0.132"",""0.663"",""0.806""]","[1,1,0,1]",0,8,8,8,1,1,1,,,1,FALSE,,,,,,,,,,,,,,,,,,,,,,,,,,,,,,,
,5f32b02a5cf1450159fc0728,627c6e7c7f7fbfcbee2a9699,2022-05-11_21h20.42.799,classification_task,2021.2.3,Win32,59.84798612,627c6715c52fd12f31907bcf,,,,,,,,,,,,,,,,,,,,,,,a,0,0.836,"[""0.632"",""0.422"",""0.557"",""0.751""]","[0,1,1,1]",0,9,9,9,1,1,0,,,1,FALSE,,,,,,,,,,,,,,,,,,,,,,,,,,,,,,,
,5f32b02a5cf1450159fc0728,627c6e7c7f7fbfcbee2a9699,2022-05-11_21h20.42.799,classification_task,2021.2.3,Win32,59.84798612,627c6715c52fd12f31907bcf,,,,,,,,,,,,,,,,,,,,,,,a,1,1.6882,"[""0.237"",""0.199"",""0.895"",""0.938""]","[1,0,1,1]",0,10,10,10,1,0,1,,,1,FALSE,,,,,,,,,,,,,,,,,,,,,,,,,,,,,,,
,5f32b02a5cf1450159fc0728,627c6e7c7f7fbfcbee2a9699,2022-05-11_21h20.42.799,classification_task,2021.2.3,Win32,59.84798612,627c6715c52fd12f31907bcf,,,,,,,,,,,,,,,,,,,,,,,a,0,1.8893,"[""0.032"",""0.650"",""0.557"",""0.751""]","[1,0,1,1]",0,11,11,11,1,1,0,,,1,FALSE,,,,,,,,,,,,,,,,,,,,,,,,,,,,,,,
,5f32b02a5cf1450159fc0728,627c6e7c7f7fbfcbee2a9699,2022-05-11_21h20.42.799,classification_task,2021.2.3,Win32,59.84798612,627c6715c52fd12f31907bcf,,,,,,,,,,,,,,,,,,,,,,,l,1,0.5685,"[""0.092"",""0.635"",""0.474"",""0.806""]","[1,0,1,1]",0,12,12,12,1,1,1,,,1,FALSE,,,,,,,,,,,,,,,,,,,,,,,,,,,,,,,
,5f32b02a5cf1450159fc0728,627c6e7c7f7fbfcbee2a9699,2022-05-11_21h20.42.799,classification_task,2021.2.3,Win32,59.84798612,627c6715c52fd12f31907bcf,,,,,,,,,,,,,,,,,,,,,,,a,1,0.4178,"[""0.311"",""0.346"",""0.617"",""0.973""]","[1,1,0,1]",0,13,13,13,1,0,0,,,1,FALSE,,,,,,,,,,,,,,,,,,,,,,,,,,,,,,,
,5f32b02a5cf1450159fc0728,627c6e7c7f7fbfcbee2a9699,2022-05-11_21h20.42.799,classification_task,2021.2.3,Win32,59.84798612,627c6715c52fd12f31907bcf,,,,,,,,,,,,,,,,,,,,,,,l,0,0.551,"[""0.311"",""0.707"",""0.858"",""0.973""]","[1,0,1,1]",0,14,14,14,1,0,0,,,1,FALSE,,,,,,,,,,,,,,,,,,,,,,,,,,,,,,,
,5f32b02a5cf1450159fc0728,627c6e7c7f7fbfcbee2a9699,2022-05-11_21h20.42.799,classification_task,2021.2.3,Win32,59.84798612,627c6715c52fd12f31907bcf,,,,,,,,,,,,,,,,,,,,,,,l,0,0.4184,"[""0.650"",""0.346"",""0.858"",""0.973""]","[0,1,1,1]",0,15,15,15,1,0,0,,,1,FALSE,,,,,,,,,,,,,,,,,,,,,,,,,,,,,,,
,5f32b02a5cf1450159fc0728,627c6e7c7f7fbfcbee2a9699,2022-05-11_21h20.42.799,classification_task,2021.2.3,Win32,59.84798612,627c6715c52fd12f31907bcf,,,,,,,,,,,,,,,,,,,,,,,l,0,0.4184,"[""0.311"",""0.707"",""0.858"",""0.973""]","[1,0,1,1]",0,16,16,16,1,0,0,,,1,FALSE,,,,,,,,,,,,,,,,,,,,,,,,,,,,,,,
,5f32b02a5cf1450159fc0728,627c6e7c7f7fbfcbee2a9699,2022-05-11_21h20.42.799,classification_task,2021.2.3,Win32,59.84798612,627c6715c52fd12f31907bcf,,,,,,,,,,,,,,,,,,,,,,,a,1,0.7016,"[""0.237"",""0.606"",""0.895"",""0.938""]","[1,0,1,1]",0,17,17,17,1,0,1,,,1,FALSE,,,,,,,,,,,,,,,,,,,,,,,,,,,,,,,
,5f32b02a5cf1450159fc0728,627c6e7c7f7fbfcbee2a9699,2022-05-11_21h20.42.799,classification_task,2021.2.3,Win32,59.84798612,627c6715c52fd12f31907bcf,,,,,,,,,,,,,,,,,,,,,,,l,1,0.6192,"[""0.032"",""0.422"",""0.632"",""0.751""]","[1,1,0,1]",0,18,18,18,1,1,0,,,1,FALSE,,,,,,,,,,,,,,,,,,,,,,,,,,,,,,,
,5f32b02a5cf1450159fc0728,627c6e7c7f7fbfcbee2a9699,2022-05-11_21h20.42.799,classification_task,2021.2.3,Win32,59.84798612,627c6715c52fd12f31907bcf,,,,,,,,,,,,,,,,,,,,,,,a,0,0.919,"[""0.092"",""0.132"",""0.474"",""0.193""]","[1,1,1,0]",0,19,19,19,1,1,1,,,1,FALSE,,,,,,,,,,,,,,,,,,,,,,,,,,,,,,,
,5f32b02a5cf1450159fc0728,627c6e7c7f7fbfcbee2a9699,2022-05-11_21h20.42.799,classification_task,2021.2.3,Win32,59.84798612,627c6715c52fd12f31907bcf,,,,,,,,,,,,,,,,,,,,,,,a,0,0.3677,"[""0.199"",""0.132"",""0.474"",""0.806""]","[0,1,1,1]",0,20,20,20,1,1,1,,,1,FALSE,,,,,,,,,,,,,,,,,,,,,,,,,,,,,,,
,5f32b02a5cf1450159fc0728,627c6e7c7f7fbfcbee2a9699,2022-05-11_21h20.42.799,classification_task,2021.2.3,Win32,59.84798612,627c6715c52fd12f31907bcf,,,,,,,,,,,,,,,,,,,,,,,l,0,0.3342,"[""0.707"",""0.346"",""0.858"",""0.973""]","[0,1,1,1]",0,21,21,21,1,0,0,,,1,FALSE,,,,,,,,,,,,,,,,,,,,,,,,,,,,,,,
,5f32b02a5cf1450159fc0728,627c6e7c7f7fbfcbee2a9699,2022-05-11_21h20.42.799,classification_task,2021.2.3,Win32,59.84798612,627c6715c52fd12f31907bcf,,,,,,,,,,,,,,,,,,,,,,,a,0,0.669,"[""0.032"",""0.183"",""0.557"",""0.751""]","[1,0,1,1]",0,22,22,22,1,1,0,,,1,FALSE,,,,,,,,,,,,,,,,,,,,,,,,,,,,,,,
,5f32b02a5cf1450159fc0728,627c6e7c7f7fbfcbee2a9699,2022-05-11_21h20.42.799,classification_task,2021.2.3,Win32,59.84798612,627c6715c52fd12f31907bcf,,,,,,,,,,,,,,,,,,,,,,,l,1,0.418,"[""0.632"",""0.422"",""0.557"",""0.751""]","[0,1,1,1]",0,23,23,23,1,1,0,,,1,FALSE,,,,,,,,,,,,,,,,,,,,,,,,,,,,,,,
,5f32b02a5cf1450159fc0728,627c6e7c7f7fbfcbee2a9699,2022-05-11_21h20.42.799,classification_task,2021.2.3,Win32,59.84798612,627c6715c52fd12f31907bcf,,,,,,,,,,,,,,,,,,,,,,,a,0,0.4016,"[""0.092"",""0.650"",""0.474"",""0.806""]","[1,0,1,1]",0,24,24,24,1,1,1,,,1,FALSE,,,,,,,,,,,,,,,,,,,,,,,,,,,,,,,
,5f32b02a5cf1450159fc0728,627c6e7c7f7fbfcbee2a9699,2022-05-11_21h20.42.799,classification_task,2021.2.3,Win32,59.84798612,627c6715c52fd12f31907bcf,,,,,,,,,,,,,,,,,,,,,,,a,1,0.383,"[""0.311"",""0.346"",""0.606"",""0.973""]","[1,1,0,1]",0,25,25,25,1,0,0,,,1,FALSE,,,,,,,,,,,,,,,,,,,,,,,,,,,,,,,
,5f32b02a5cf1450159fc0728,627c6e7c7f7fbfcbee2a9699,2022-05-11_21h20.42.799,classification_task,2021.2.3,Win32,59.84798612,627c6715c52fd12f31907bcf,,,,,,,,,,,,,,,,,,,,,,,a,0,0.5181,"[""0.032"",""0.422"",""0.557"",""0.685""]","[1,1,1,0]",0,26,26,26,1,1,0,,,1,FALSE,,,,,,,,,,,,,,,,,,,,,,,,,,,,,,,
,5f32b02a5cf1450159fc0728,627c6e7c7f7fbfcbee2a9699,2022-05-11_21h20.42.799,classification_task,2021.2.3,Win32,59.84798612,627c6715c52fd12f31907bcf,,,,,,,,,,,,,,,,,,,,,,,l,0,0.3837,"[""0.237"",""0.511"",""0.895"",""0.380""]","[1,1,1,0]",0,27,27,27,1,0,1,,,1,FALSE,,,,,,,,,,,,,,,,,,,,,,,,,,,,,,,
,5f32b02a5cf1450159fc0728,627c6e7c7f7fbfcbee2a9699,2022-05-11_21h20.42.799,classification_task,2021.2.3,Win32,59.84798612,627c6715c52fd12f31907bcf,,,,,,,,,,,,,,,,,,,,,,,l,0,0.5356,"[""0.668"",""0.511"",""0.895"",""0.938""]","[0,1,1,1]",0,28,28,28,1,0,1,,,1,FALSE,,,,,,,,,,,,,,,,,,,,,,,,,,,,,,,
,5f32b02a5cf1450159fc0728,627c6e7c7f7fbfcbee2a9699,2022-05-11_21h20.42.799,classification_task,2021.2.3,Win32,59.84798612,627c6715c52fd12f31907bcf,,,,,,,,,,,,,,,,,,,,,,,a,1,0.6357,"[""0.237"",""0.511"",""0.632"",""0.938""]","[1,1,0,1]",0,29,29,29,1,0,1,,,1,FALSE,,,,,,,,,,,,,,,,,,,,,,,,,,,,,,,
,5f32b02a5cf1450159fc0728,627c6e7c7f7fbfcbee2a9699,2022-05-11_21h20.42.799,classification_task,2021.2.3,Win32,59.84798612,627c6715c52fd12f31907bcf,,,,,,,,,,,,,,,,,,,,,,,l,1,0.6685,"[""0.092"",""0.132"",""0.669"",""0.806""]","[1,1,0,1]",0,30,30,30,1,1,1,,,1,FALSE,,,,,,,,,,,,,,,,,,,,,,,,,,,,,,,
,5f32b02a5cf1450159fc0728,627c6e7c7f7fbfcbee2a9699,2022-05-11_21h20.42.799,classification_task,2021.2.3,Win32,59.84798612,627c6715c52fd12f31907bcf,,,,,,,,,,,,,,,,,,,,,,,l,0,0.5515,"[""0.311"",""0.346"",""0.858"",""0.199""]","[1,1,1,0]",0,31,31,31,1,0,0,,,1,FALSE,,,,,,,,,,,,,,,,,,,,,,,,,,,,,,,
,5f32b02a5cf1450159fc0728,627c6e7c7f7fbfcbee2a9699,2022-05-11_21h20.42.799,classification_task,2021.2.3,Win32,59.84798612,627c6715c52fd12f31907bcf,,,,,,,,,,,,,,,,,,,,,,,l,1,0.4509,"[""0.199"",""0.132"",""0.474"",""0.806""]","[0,1,1,1]",0,32,32,32,1,1,1,,,1,FALSE,,,,,,,,,,,,,,,,,,,,,,,,,,,,,,,
,5f32b02a5cf1450159fc0728,627c6e7c7f7fbfcbee2a9699,2022-05-11_21h20.42.799,classification_task,2021.2.3,Win32,59.84798612,627c6715c52fd12f31907bcf,,,,,,,,,,,,,,,,,,,,,,,l,0,0.4854,"[""0.311"",""0.346"",""0.858"",""0.668""]","[1,1,1,0]",0,33,33,33,1,0,0,,,1,FALSE,,,,,,,,,,,,,,,,,,,,,,,,,,,,,,,
,5f32b02a5cf1450159fc0728,627c6e7c7f7fbfcbee2a9699,2022-05-11_21h20.42.799,classification_task,2021.2.3,Win32,59.84798612,627c6715c52fd12f31907bcf,,,,,,,,,,,,,,,,,,,,,,,a,1,0.4843,"[""0.237"",""0.511"",""0.663"",""0.938""]","[1,1,0,1]",0,34,34,34,1,0,1,,,1,FALSE,,,,,,,,,,,,,,,,,,,,,,,,,,,,,,,
,5f32b02a5cf1450159fc0728,627c6e7c7f7fbfcbee2a9699,2022-05-11_21h20.42.799,classification_task,2021.2.3,Win32,59.84798612,627c6715c52fd12f31907bcf,,,,,,,,,,,,,,,,,,,,,,,a,0,0.6691,"[""0.032"",""0.669"",""0.557"",""0.751""]","[1,0,1,1]",0,35,35,35,1,1,0,,,1,FALSE,,,,,,,,,,,,,,,,,,,,,,,,,,,,,,,
,5f32b02a5cf1450159fc0728,627c6e7c7f7fbfcbee2a9699,2022-05-11_21h20.42.799,classification_task,2021.2.3,Win32,59.84798612,627c6715c52fd12f31907bcf,,,,,,,,,,,,,,,,,,,,,,,a,0,1.1874,"[""0.092"",""0.132"",""0.613"",""0.806""]","[1,1,0,1]",0,36,36,36,1,1,1,,,1,FALSE,,,,,,,,,,,,,,,,,,,,,,,,,,,,,,,
,5f32b02a5cf1450159fc0728,627c6e7c7f7fbfcbee2a9699,2022-05-11_21h20.42.799,classification_task,2021.2.3,Win32,59.84798612,627c6715c52fd12f31907bcf,,,,,,,,,,,,,,,,,,,,,,,a,1,0.6857,"[""0.311"",""0.707"",""0.858"",""0.973""]","[1,0,1,1]",0,37,37,37,1,0,0,,,1,FALSE,,,,,,,,,,,,,,,,,,,,,,,,,,,,,,,
,5f32b02a5cf1450159fc0728,627c6e7c7f7fbfcbee2a9699,2022-05-11_21h20.42.799,classification_task,2021.2.3,Win32,59.84798612,627c6715c52fd12f31907bcf,,,,,,,,,,,,,,,,,,,,,,,l,0,0.5522,"[""0.237"",""0.511"",""0.895"",""0.668""]","[1,1,1,0]",0,38,38,38,1,0,1,,,1,FALSE,,,,,,,,,,,,,,,,,,,,,,,,,,,,,,,
,5f32b02a5cf1450159fc0728,627c6e7c7f7fbfcbee2a9699,2022-05-11_21h20.42.799,classification_task,2021.2.3,Win32,59.84798612,627c6715c52fd12f31907bcf,,,,,,,,,,,,,,,,,,,,,,,a,1,0.2843,"[""0.237"",""0.669"",""0.895"",""0.938""]","[1,0,1,1]",0,39,39,39,1,0,1,,,1,FALSE,,,,,,,,,,,,,,,,,,,,,,,,,,,,,,,
,5f32b02a5cf1450159fc0728,627c6e7c7f7fbfcbee2a9699,2022-05-11_21h20.42.799,classification_task,2021.2.3,Win32,59.84798612,627c6715c52fd12f31907bcf,,,,,,,,,,,,,,,,,,,,,,,a,1,0.3173,"[""0.311"",""0.346"",""0.635"",""0.973""]","[1,1,0,1]",0,40,40,40,1,0,0,,,1,FALSE,,,,,,,,,,,,,,,,,,,,,,,,,,,,,,,
,5f32b02a5cf1450159fc0728,627c6e7c7f7fbfcbee2a9699,2022-05-11_21h20.42.799,classification_task,2021.2.3,Win32,59.84798612,627c6715c52fd12f31907bcf,,,,,,,,,,,,,,,,,,,,,,,a,0,0.6022,"[""0.032"",""0.422"",""0.557"",""0.199""]","[1,1,1,0]",0,41,41,41,1,1,0,,,1,FALSE,,,,,,,,,,,,,,,,,,,,,,,,,,,,,,,
,5f32b02a5cf1450159fc0728,627c6e7c7f7fbfcbee2a9699,2022-05-11_21h20.42.799,classification_task,2021.2.3,Win32,59.84798612,627c6715c52fd12f31907bcf,,,,,,,,,,,,,,,,,,,,,,,l,1,0.3837,"[""0.606"",""0.422"",""0.557"",""0.751""]","[0,1,1,1]",0,42,42,42,1,1,0,,,1,FALSE,,,,,,,,,,,,,,,,,,,,,,,,,,,,,,,
,5f32b02a5cf1450159fc0728,627c6e7c7f7fbfcbee2a9699,2022-05-11_21h20.42.799,classification_task,2021.2.3,Win32,59.84798612,627c6715c52fd12f31907bcf,,,,,,,,,,,,,,,,,,,,,,,a,1,0.519,"[""0.632"",""0.511"",""0.895"",""0.938""]","[0,1,1,1]",0,43,43,43,1,0,1,,,1,FALSE,,,,,,,,,,,,,,,,,,,,,,,,,,,,,,,
,5f32b02a5cf1450159fc0728,627c6e7c7f7fbfcbee2a9699,2022-05-11_21h20.42.799,classification_task,2021.2.3,Win32,59.84798612,627c6715c52fd12f31907bcf,,,,,,,,,,,,,,,,,,,,,,,l,0,0.368,"[""0.650"",""0.346"",""0.858"",""0.973""]","[0,1,1,1]",0,44,44,44,1,0,0,,,1,FALSE,,,,,,,,,,,,,,,,,,,,,,,,,,,,,,,
,5f32b02a5cf1450159fc0728,627c6e7c7f7fbfcbee2a9699,2022-05-11_21h20.42.799,classification_task,2021.2.3,Win32,59.84798612,627c6715c52fd12f31907bcf,,,,,,,,,,,,,,,,,,,,,,,l,1,0.4007,"[""0.032"",""0.422"",""0.707"",""0.751""]","[1,1,0,1]",0,45,45,45,1,1,0,,,1,FALSE,,,,,,,,,,,,,,,,,,,,,,,,,,,,,,,
,5f32b02a5cf1450159fc0728,627c6e7c7f7fbfcbee2a9699,2022-05-11_21h20.42.799,classification_task,2021.2.3,Win32,59.84798612,627c6715c52fd12f31907bcf,,,,,,,,,,,,,,,,,,,,,,,l,1,3.3621,"[""0.092"",""0.132"",""0.474"",""0.685""]","[1,1,1,0]",0,46,46,46,1,1,1,,,1,FALSE,,,,,,,,,,,,,,,,,,,,,,,,,,,,,,,
,5f32b02a5cf1450159fc0728,627c6e7c7f7fbfcbee2a9699,2022-05-11_21h20.42.799,classification_task,2021.2.3,Win32,59.84798612,627c6715c52fd12f31907bcf,,,,,,,,,,,,,,,,,,,,,,,a,0,0.7028,"[""0.092"",""0.650"",""0.474"",""0.806""]","[1,0,1,1]",0,47,47,47,1,1,1,,,1,FALSE,,,,,,,,,,,,,,,,,,,,,,,,,,,,,,,
,5f32b02a5cf1450159fc0728,627c6e7c7f7fbfcbee2a9699,2022-05-11_21h20.42.799,classification_task,2021.2.3,Win32,59.84798612,627c6715c52fd12f31907bcf,,,,,,,,,,,,,,,,,,,,,,,a,0,1.1536,"[""0.092"",""0.132"",""0.650"",""0.806""]","[1,1,0,1]",0,48,48,48,1,1,1,,,1,FALSE,,,,,,,,,,,,,,,,,,,,,,,,,,,,,,,
,5f32b02a5cf1450159fc0728,627c6e7c7f7fbfcbee2a9699,2022-05-11_21h20.42.799,classification_task,2021.2.3,Win32,59.84798612,627c6715c52fd12f31907bcf,,,,,,,,,,,,,,,,,,,,,,,l,0,0.5181,"[""0.237"",""0.635"",""0.895"",""0.938""]","[1,0,1,1]",0,49,49,49,1,0,1,,,1,FALSE,,,,,,,,,,,,,,,,,,,,,,,,,,,,,,,
,5f32b02a5cf1450159fc0728,627c6e7c7f7fbfcbee2a9699,2022-05-11_21h20.42.799,classification_task,2021.2.3,Win32,59.84798612,627c6715c52fd12f31907bcf,,,,,,,,,,,,,,,,,,,,,,,a,1,0.4852,"[""0.707"",""0.511"",""0.895"",""0.938""]","[0,1,1,1]",0,50,50,50,1,0,1,,,1,FALSE,,,,,,,,,,,,,,,,,,,,,,,,,,,,,,,
,5f32b02a5cf1450159fc0728,627c6e7c7f7fbfcbee2a9699,2022-05-11_21h20.42.799,classification_task,2021.2.3,Win32,59.84798612,627c6715c52fd12f31907bcf,,,,,,,,,,,,,,,,,,,,,,,l,1,0.4678,"[""0.092"",""0.132"",""0.474"",""0.707""]","[1,1,1,0]",0,51,51,51,1,1,1,,,1,FALSE,,,,,,,,,,,,,,,,,,,,,,,,,,,,,,,
,5f32b02a5cf1450159fc0728,627c6e7c7f7fbfcbee2a9699,2022-05-11_21h20.42.799,classification_task,2021.2.3,Win32,59.84798612,627c6715c52fd12f31907bcf,,,,,,,,,,,,,,,,,,,,,,,l,0,0.4181,"[""0.311"",""0.199"",""0.858"",""0.973""]","[1,0,1,1]",0,52,52,52,1,0,0,,,1,FALSE,,,,,,,,,,,,,,,,,,,,,,,,,,,,,,,
,5f32b02a5cf1450159fc0728,627c6e7c7f7fbfcbee2a9699,2022-05-11_21h20.42.799,classification_task,2021.2.3,Win32,59.84798612,627c6715c52fd12f31907bcf,,,,,,,,,,,,,,,,,,,,,,,a,0,0.7354,"[""0.032"",""0.707"",""0.557"",""0.751""]","[1,0,1,1]",0,53,53,53,1,1,0,,,1,FALSE,,,,,,,,,,,,,,,,,,,,,,,,,,,,,,,
,5f32b02a5cf1450159fc0728,627c6e7c7f7fbfcbee2a9699,2022-05-11_21h20.42.799,classification_task,2021.2.3,Win32,59.84798612,627c6715c52fd12f31907bcf,,,,,,,,,,,,,,,,,,,,,,,a,0,0.4848,"[""0.032"",""0.422"",""0.557"",""0.606""]","[1,1,1,0]",0,54,54,54,1,1,0,,,1,FALSE,,,,,,,,,,,,,,,,,,,,,,,,,,,,,,,
,5f32b02a5cf1450159fc0728,627c6e7c7f7fbfcbee2a9699,2022-05-11_21h20.42.799,classification_task,2021.2.3,Win32,59.84798612,627c6715c52fd12f31907bcf,,,,,,,,,,,,,,,,,,,,,,,a,0,0.5512,"[""0.613"",""0.422"",""0.557"",""0.751""]","[0,1,1,1]",0,55,55,55,1,1,0,,,1,FALSE,,,,,,,,,,,,,,,,,,,,,,,,,,,,,,,
,5f32b02a5cf1450159fc0728,627c6e7c7f7fbfcbee2a9699,2022-05-11_21h20.42.799,classification_task,2021.2.3,Win32,59.84798612,627c6715c52fd12f31907bcf,,,,,,,,,,,,,,,,,,,,,,,l,1,0.9702,"[""0.032"",""0.422"",""0.193"",""0.751""]","[1,1,0,1]",0,56,56,56,1,1,0,,,1,FALSE,,,,,,,,,,,,,,,,,,,,,,,,,,,,,,,
,5f32b02a5cf1450159fc0728,627c6e7c7f7fbfcbee2a9699,2022-05-11_21h20.42.799,classification_task,2021.2.3,Win32,59.84798612,627c6715c52fd12f31907bcf,,,,,,,,,,,,,,,,,,,,,,,l,0,0.4848,"[""0.237"",""0.511"",""0.895"",""0.606""]","[1,1,1,0]",0,57,57,57,1,0,1,,,1,FALSE,,,,,,,,,,,,,,,,,,,,,,,,,,,,,,,
,5f32b02a5cf1450159fc0728,627c6e7c7f7fbfcbee2a9699,2022-05-11_21h20.42.799,classification_task,2021.2.3,Win32,59.84798612,627c6715c52fd12f31907bcf,,,,,,,,,,,,,,,,,,,,,,,l,0,0.6341,"[""0.311"",""0.346"",""0.858"",""0.707""]","[1,1,1,0]",0,58,58,58,1,0,0,,,1,FALSE,,,,,,,,,,,,,,,,,,,,,,,,,,,,,,,
,5f32b02a5cf1450159fc0728,627c6e7c7f7fbfcbee2a9699,2022-05-11_21h20.42.799,classification_task,2021.2.3,Win32,59.84798612,627c6715c52fd12f31907bcf,,,,,,,,,,,,,,,,,,,,,,,l,0,0.6354,"[""0.635"",""0.346"",""0.858"",""0.973""]","[0,1,1,1]",0,59,59,59,1,0,0,,,1,FALSE,,,,,,,,,,,,,,,,,,,,,,,,,,,,,,,
,5f32b02a5cf1450159fc0728,627c6e7c7f7fbfcbee2a9699,2022-05-11_21h20.42.799,classification_task,2021.2.3,Win32,59.84798612,627c6715c52fd12f31907bcf,,,,,,,,,,,,,,,,,,,,,,,l,0,0.8531,"[""0.237"",""0.511"",""0.613"",""0.938""]","[1,1,0,1]",0,60,60,60,1,0,1,,,1,FALSE,,,,,,,,,,,,,,,,,,,,,,,,,,,,,,,
,5f32b02a5cf1450159fc0728,627c6e7c7f7fbfcbee2a9699,2022-05-11_21h20.42.799,classification_task,2021.2.3,Win32,59.84798612,627c6715c52fd12f31907bcf,,,,,,,,,,,,,,,,,,,,,,,a,0,0.5688,"[""0.092"",""0.183"",""0.474"",""0.806""]","[1,0,1,1]",0,61,61,61,1,1,1,,,1,FALSE,,,,,,,,,,,,,,,,,,,,,,,,,,,,,,,
,5f32b02a5cf1450159fc0728,627c6e7c7f7fbfcbee2a9699,2022-05-11_21h20.42.799,classification_task,2021.2.3,Win32,59.84798612,627c6715c52fd12f31907bcf,,,,,,,,,,,,,,,,,,,,,,,l,1,0.7523,"[""0.632"",""0.132"",""0.474"",""0.806""]","[0,1,1,1]",0,62,62,62,1,1,1,,,1,FALSE,,,,,,,,,,,,,,,,,,,,,,,,,,,,,,,
,5f32b02a5cf1450159fc0728,627c6e7c7f7fbfcbee2a9699,2022-05-11_21h20.42.799,classification_task,2021.2.3,Win32,59.84798612,627c6715c52fd12f31907bcf,,,,,,,,,,,,,,,,,,,,,,,a,1,0.6523,"[""0.311"",""0.346"",""0.707"",""0.973""]","[1,1,0,1]",0,63,63,63,1,0,0,,,1,FALSE,,,,,,,,,,,,,,,,,,,,,,,,,,,,,,,
,5f32b02a5cf1450159fc0728,627c6e7c7f7fbfcbee2a9699,2022-05-11_21h20.42.799,classification_task,2021.2.3,Win32,59.84798612,627c6715c52fd12f31907bcf,,,,,,,,,,,,,,,,,,,,,,,,,,,,,,,,,,,,,,,0, ,,0,8.789131393,130.4759,0,2,2,2,1,2,3,,,,,,,,,,,,,,,,,,
,5f32b02a5cf1450159fc0728,627c6e7c7f7fbfcbee2a9699,2022-05-11_21h20.42.799,classification_task,2021.2.3,Win32,59.84798612,627c6715c52fd12f31907bcf,,,,,,,,,,,,,,,,,,,,,,,,,,,,,,,,,,,,,,,1,  ,,0,8.754684744,132.1245,0,2,2,2,1,2,3,,,,,,,,,,,,,,,,,,
,5f32b02a5cf1450159fc0728,627c6e7c7f7fbfcbee2a9699,2022-05-11_21h20.42.799,classification_task,2021.2.3,Win32,59.84798612,627c6715c52fd12f31907bcf,,,,,,,,,,,,,,,,,,,,,,,,,,,,,,,,,,,,,,,2,  ,,0,4.552193563,134.2483,0,2,2,2,1,2,3,,,,,,,,,,,,,,,,,,
,5f32b02a5cf1450159fc0728,627c6e7c7f7fbfcbee2a9699,2022-05-11_21h20.42.799,classification_task,2021.2.3,Win32,59.84798612,627c6715c52fd12f31907bcf,,,,,,,,,,,,,,,,,,,,,,,,,,,,,,,,,,,,,,,,,,,,,0,2,2,2,1,,3,,,,,,,,,,,,,,,,,,
,5f32b02a5cf1450159fc0728,627c6e7c7f7fbfcbee2a9699,2022-05-11_21h20.42.799,classification_task,2021.2.3,Win32,59.84798612,627c6715c52fd12f31907bcf,,,,,,,,,,,,,,,,,,,,,,,,,,,,,,,,,,,,,,,,,,,,,,,,,,,,,I believe the aid is a competent performer,,0.7,0,5,895.6231,0,0,0,0,1,0,,,,,
,5f32b02a5cf1450159fc0728,627c6e7c7f7fbfcbee2a9699,2022-05-11_21h20.42.799,classification_task,2021.2.3,Win32,59.84798612,627c6715c52fd12f31907bcf,,,,,,,,,,,,,,,,,,,,,,,,,,,,,,,,,,,,,,,,,,,,,,,,,,,,,I trust the aid,,0.7,0,4,897.3435,0,0,0,0,1,0,,,,,
,5f32b02a5cf1450159fc0728,627c6e7c7f7fbfcbee2a9699,2022-05-11_21h20.42.799,classification_task,2021.2.3,Win32,59.84798612,627c6715c52fd12f31907bcf,,,,,,,,,,,,,,,,,,,,,,,,,,,,,,,,,,,,,,,,,,,,,,,,,,,,,I have confidence in the advice given by the aid,,0.7,0,3,899.8677,0,0,0,0,1,0,,,,,
,5f32b02a5cf1450159fc0728,627c6e7c7f7fbfcbee2a9699,2022-05-11_21h20.42.799,classification_task,2021.2.3,Win32,59.84798612,627c6715c52fd12f31907bcf,,,,,,,,,,,,,,,,,,,,,,,,,,,,,,,,,,,,,,,,,,,,,,,,,,,,,I can depend on the aid,,0.7,0,3,901.0708,0,0,0,0,1,0,,,,,
,5f32b02a5cf1450159fc0728,627c6e7c7f7fbfcbee2a9699,2022-05-11_21h20.42.799,classification_task,2021.2.3,Win32,59.84798612,627c6715c52fd12f31907bcf,,,,,,,,,,,,,,,,,,,,,,,,,,,,,,,,,,,,,,,,,,,,,,,,,,,,,I can rely on the aid to behave in consistent ways,,0.7,0,3,903.4615,0,0,0,0,1,0,,,,,
,5f32b02a5cf1450159fc0728,627c6e7c7f7fbfcbee2a9699,2022-05-11_21h20.42.799,classification_task,2021.2.3,Win32,59.84798612,627c6715c52fd12f31907bcf,,,,,,,,,,,,,,,,,,,,,,,,,,,,,,,,,,,,,,,,,,,,,,,,,,,,,I can rely on the aid to do its best every time I take its advice,,0.7,0,4,906.2706,0,0,0,0,1,0,,,,,
,5f32b02a5cf1450159fc0728,627c6e7c7f7fbfcbee2a9699,2022-05-11_21h20.42.799,classification_task,2021.2.3,Win32,59.84798612,627c6715c52fd12f31907bcf,,,,,,,,,,,,,,,,,,,,,,,,,,,,,,,,,,,,,,,,,,,,,,,,,,,,,"On trials you completed with assistance from the aid, how frequently did you think the aid was correct?",,0.7,0,95,,0,0,0,0,1,0,,,,,
,5f32b02a5cf1450159fc0728,627c6e7c7f7fbfcbee2a9699,2022-05-11_21h20.42.799,classification_task,2021.2.3,Win32,59.84798612,627c6715c52fd12f31907bcf,,,,,,,,,,,,,,,,,,,,,,,,,,,,,,,,,,,,,,,,,,,,,,,,,,,,,"On trials you completed without the aid, how frequently did you think you were correct?",,0.7,0,50,,0,0,0,0,1,0,,,,,
,5f32b02a5cf1450159fc0728,627c6e7c7f7fbfcbee2a9699,2022-05-11_21h20.42.799,classification_task,2021.2.3,Win32,59.84798612,627c6715c52fd12f31907bcf,,,,,,,,,,,,,,,,,,,,,,,,,,,,,,,,,,,,,,,,,,,,,,,,,,,,,,,,,,,0,0,0,0,1,,,,,,
,5f32b02a5cf1450159fc0728,627c6e7c7f7fbfcbee2a9699,2022-05-11_21h20.42.799,classification_task,2021.2.3,Win32,59.84798612,627c6715c52fd12f31907bcf,,,,,,,,,,,,,,,,,,,,,,,,,,,,,,,,,,,,,,,,,,,,,,,,,,,,,,,,,,,,,,,,,space,14.7501,932.6406,,
,5f32b02a5cf1450159fc0728,627c6e7c7f7fbfcbee2a9699,2022-05-11_21h20.42.799,classification_task,2021.2.3,Win32,59.84798612,627c6715c52fd12f31907bcf,,,,,,,,,,,,,,,,,,,,,,,,,,,,,,,,,,,,,,,,,,,,,,,,,,,,,,,,,,,,,,,,,,,,"Mozilla/5.0 (Windows NT 10.0; Win64; x64) AppleWebKit/537.36 (KHTML, like Gecko) Chrome/101.0.4951.64 Safari/537.36",
,5f32b02a5cf1450159fc0728,627c6e7c7f7fbfcbee2a9699,2022-05-11_21h20.42.799,classification_task,2021.2.3,Win32,59.84798612,627c6715c52fd12f31907bcf,,,,,,,,,,,,,,,,,,,,,,,,,,,,,,,,,,,,,,,,,,,,,,,,,,,,,,,,,,,,,,,,,,,,,HIGHLIGHT
