usingWebGL,participant,session,date,expName,psychopyVersion,OS,frameRate,PROLIFIC_PID,STUDY_ID,SESSION_ID,signatures_friend,signatures_foe,band_ranges_top,band_ranges_bottom,formitemText,formtype,formundefined,formitemWidth,formindex,formresponse,formrt,key_resp_2.keys,key_resp_2.rt,tute_resp.keys,tute_resp.rt,tutorial.thisRepN,tutorial.thisTrialN,tutorial.thisN,tutorial.thisIndex,tutorial.ran,key_resp_4.keys,key_resp_4.rt,key_resp.keys,key_resp.corr,lines_presented,is_signal_presented,trials.thisRepN,trials.thisTrialN,trials.thisN,trials.thisIndex,trials.ran,vessel,active_band,lines,is_signal,supported_pos,catch_trial,key_resp.rt,debrief_formindex,debrief_formitemText,debrief_formtype,debrief_formitemWidth,debrief_formresponse,debrief_formrt,phases.thisRepN,phases.thisTrialN,phases.thisN,phases.thisIndex,phases.ran,phases.order,phase,key_resp_3.keys,trustitemText,trusttype,trustitemWidth,trustindex,trustresponse,trustrt,support_status.thisRepN,support_status.thisTrialN,support_status.thisN,support_status.thisIndex,support_status.ran,support_status.order,key_resp_5.keys,key_resp_5.rt,globalClockTime,userAgent
TRUE,5f3ba39206b3218cf379659d,001,2022-04-29_13h14.44.650,classification_task,2021.2.3,Win32,60.49606776,5f3ba39206b3218cf379659d,626b377229c10585ec392f8a,626b3b7f48bfea07056a1736,,,,,,,,,,,,,,,,,,,,,,,,,,,,,,,,,,,,,,,,,,,,,,,,,,,,,,,,,,,,,,,,,,,,
,5f3ba39206b3218cf379659d,001,2022-04-29_13h14.44.650,classification_task,2021.2.3,Win32,60.49606776,5f3ba39206b3218cf379659d,626b377229c10585ec392f8a,626b3b7f48bfea07056a1736,"[[""0.278"",""0.529"",""0.701"",""0.972""],[""0.237"",""0.463"",""0.872"",""0.909""]]","[[""0.076"",""0.354"",""0.650"",""0.823""],[""0.111"",""0.152"",""0.585"",""0.766""]]","[1,10]","[100,1000]",Video game experience,,,0.7,0,,,,,,,,,,,,,,,,,,,,,,,,,,,,,,,,,,,,,,,,,,,,,,,,,,,,,,,,,,,
,5f3ba39206b3218cf379659d,001,2022-04-29_13h14.44.650,classification_task,2021.2.3,Win32,60.49606776,5f3ba39206b3218cf379659d,626b377229c10585ec392f8a,626b3b7f48bfea07056a1736,,,,,Approximately how many hours did you spend playing video games in the last week?,,,0.7,0,0,,,,,,,,,,,,,,,,,,,,,,,,,,,,,,,,,,,,,,,,,,,,,,,,,,,,,,,,,,
,5f3ba39206b3218cf379659d,001,2022-04-29_13h14.44.650,classification_task,2021.2.3,Win32,60.49606776,5f3ba39206b3218cf379659d,626b377229c10585ec392f8a,626b3b7f48bfea07056a1736,,,,,"Which game did you play the most this year? (Enter ""None"" if you didn't play any)",,,0.7,0,None,,,,,,,,,,,,,,,,,,,,,,,,,,,,,,,,,,,,,,,,,,,,,,,,,,,,,,,,,,
,5f3ba39206b3218cf379659d,001,2022-04-29_13h14.44.650,classification_task,2021.2.3,Win32,60.49606776,5f3ba39206b3218cf379659d,626b377229c10585ec392f8a,626b3b7f48bfea07056a1736,,,,,Visual perception,,,0.7,0,,,,,,,,,,,,,,,,,,,,,,,,,,,,,,,,,,,,,,,,,,,,,,,,,,,,,,,,,,,
,5f3ba39206b3218cf379659d,001,2022-04-29_13h14.44.650,classification_task,2021.2.3,Win32,60.49606776,5f3ba39206b3218cf379659d,626b377229c10585ec392f8a,626b3b7f48bfea07056a1736,,,,,Do you have any form of color blindness?,,,0.7,0,No,13.5587,,,,,,,,,,,,,,,,,,,,,,,,,,,,,,,,,,,,,,,,,,,,,,,,,,,,,,,,,
,5f3ba39206b3218cf379659d,001,2022-04-29_13h14.44.650,classification_task,2021.2.3,Win32,60.49606776,5f3ba39206b3218cf379659d,626b377229c10585ec392f8a,626b3b7f48bfea07056a1736,,,,,Do you use software to change the colour temperature of your screen (e.g. f.lux)?,,,0.7,0,No,16.1394,,,,,,,,,,,,,,,,,,,,,,,,,,,,,,,,,,,,,,,,,,,,,,,,,,,,,,,,,
,5f3ba39206b3218cf379659d,001,2022-04-29_13h14.44.650,classification_task,2021.2.3,Win32,60.49606776,5f3ba39206b3218cf379659d,626b377229c10585ec392f8a,626b3b7f48bfea07056a1736,,,,,,,,,,,,space,27.6068,space,10.278,0,0,0,0,1,,,,,,,,,,,,,,,,,,,,,,,,,,,,,,,,,,,,,,,,,,,,,,,,
,5f3ba39206b3218cf379659d,001,2022-04-29_13h14.44.650,classification_task,2021.2.3,Win32,60.49606776,5f3ba39206b3218cf379659d,626b377229c10585ec392f8a,626b3b7f48bfea07056a1736,,,,,,,,,,,,,,space,13.5371,1,0,1,0,1,,,,,,,,,,,,,,,,,,,,,,,,,,,,,,,,,,,,,,,,,,,,,,,,
,5f3ba39206b3218cf379659d,001,2022-04-29_13h14.44.650,classification_task,2021.2.3,Win32,60.49606776,5f3ba39206b3218cf379659d,626b377229c10585ec392f8a,626b3b7f48bfea07056a1736,,,,,,,,,,,,,,space,27.9447,2,0,2,0,1,,,,,,,,,,,,,,,,,,,,,,,,,,,,,,,,,,,,,,,,,,,,,,,,
,5f3ba39206b3218cf379659d,001,2022-04-29_13h14.44.650,classification_task,2021.2.3,Win32,60.49606776,5f3ba39206b3218cf379659d,626b377229c10585ec392f8a,626b3b7f48bfea07056a1736,,,,,,,,,,,,,,space,19.0794,3,0,3,0,1,,,,,,,,,,,,,,,,,,,,,,,,,,,,,,,,,,,,,,,,,,,,,,,,
,5f3ba39206b3218cf379659d,001,2022-04-29_13h14.44.650,classification_task,2021.2.3,Win32,60.49606776,5f3ba39206b3218cf379659d,626b377229c10585ec392f8a,626b3b7f48bfea07056a1736,,,,,,,,,,,,,,space,25.8515,4,0,4,0,1,,,,,,,,,,,,,,,,,,,,,,,,,,,,,,,,,,,,,,,,,,,,,,,,
,5f3ba39206b3218cf379659d,001,2022-04-29_13h14.44.650,classification_task,2021.2.3,Win32,60.49606776,5f3ba39206b3218cf379659d,626b377229c10585ec392f8a,626b3b7f48bfea07056a1736,,,,,,,,,,,,,,,,,,,,,space,6.7203,,0,"[""0.030"",""0.354"",""0.650"",""0.823""]","[0,1,1,1]",0,0,0,0,1,1,0,,,1,FALSE,,,,,,,,,,,,,,,,,,,,,,,,,,,,,,,
,5f3ba39206b3218cf379659d,001,2022-04-29_13h14.44.650,classification_task,2021.2.3,Win32,60.49606776,5f3ba39206b3218cf379659d,626b377229c10585ec392f8a,626b3b7f48bfea07056a1736,,,,,,,,,,,,,,,,,,,,,,,a,1,"[""0.237"",""0.188"",""0.872"",""0.909""]","[1,0,1,1]",0,1,1,1,1,0,1,,,1,FALSE,7.6097,,,,,,,,,,,,,,,,,,,,,,,,,,,,,,
,5f3ba39206b3218cf379659d,001,2022-04-29_13h14.44.650,classification_task,2021.2.3,Win32,60.49606776,5f3ba39206b3218cf379659d,626b377229c10585ec392f8a,626b3b7f48bfea07056a1736,,,,,,,,,,,,,,,,,,,,,,,l,1,"[""0.111"",""0.420"",""0.585"",""0.766""]","[1,0,1,1]",0,2,2,2,1,1,1,,,1,FALSE,3.5956,,,,,,,,,,,,,,,,,,,,,,,,,,,,,,
,5f3ba39206b3218cf379659d,001,2022-04-29_13h14.44.650,classification_task,2021.2.3,Win32,60.49606776,5f3ba39206b3218cf379659d,626b377229c10585ec392f8a,626b3b7f48bfea07056a1736,,,,,,,,,,,,,,,,,,,,,,,a,1,"[""0.319"",""0.463"",""0.872"",""0.909""]","[0,1,1,1]",0,3,3,3,1,0,1,,,1,FALSE,8.9117,,,,,,,,,,,,,,,,,,,,,,,,,,,,,,
,5f3ba39206b3218cf379659d,001,2022-04-29_13h14.44.650,classification_task,2021.2.3,Win32,60.49606776,5f3ba39206b3218cf379659d,626b377229c10585ec392f8a,626b3b7f48bfea07056a1736,,,,,,,,,,,,,,,,,,,,,,,a,1,"[""0.278"",""0.414"",""0.701"",""0.972""]","[1,0,1,1]",0,4,4,4,1,0,0,,,1,FALSE,3.6047,,,,,,,,,,,,,,,,,,,,,,,,,,,,,,
,5f3ba39206b3218cf379659d,001,2022-04-29_13h14.44.650,classification_task,2021.2.3,Win32,60.49606776,5f3ba39206b3218cf379659d,626b377229c10585ec392f8a,626b3b7f48bfea07056a1736,,,,,,,,,,,,,,,,,,,,,,,a,1,"[""0.237"",""0.463"",""0.188"",""0.909""]","[1,1,0,1]",0,5,5,5,1,0,1,,,1,FALSE,3.0598,,,,,,,,,,,,,,,,,,,,,,,,,,,,,,
,5f3ba39206b3218cf379659d,001,2022-04-29_13h14.44.650,classification_task,2021.2.3,Win32,60.49606776,5f3ba39206b3218cf379659d,626b377229c10585ec392f8a,626b3b7f48bfea07056a1736,,,,,,,,,,,,,,,,,,,,,,,a,1,"[""0.396"",""0.529"",""0.701"",""0.972""]","[0,1,1,1]",0,6,6,6,1,0,0,,,1,FALSE,6.0734,,,,,,,,,,,,,,,,,,,,,,,,,,,,,,
,5f3ba39206b3218cf379659d,001,2022-04-29_13h14.44.650,classification_task,2021.2.3,Win32,60.49606776,5f3ba39206b3218cf379659d,626b377229c10585ec392f8a,626b3b7f48bfea07056a1736,,,,,,,,,,,,,,,,,,,,,,,l,1,"[""0.111"",""0.152"",""0.319"",""0.766""]","[1,1,0,1]",0,7,7,7,1,1,1,,,1,FALSE,4.3732,,,,,,,,,,,,,,,,,,,,,,,,,,,,,,
,5f3ba39206b3218cf379659d,001,2022-04-29_13h14.44.650,classification_task,2021.2.3,Win32,60.49606776,5f3ba39206b3218cf379659d,626b377229c10585ec392f8a,626b3b7f48bfea07056a1736,,,,,,,,,,,,,,,,,,,,,,,l,1,"[""0.188"",""0.152"",""0.585"",""0.766""]","[0,1,1,1]",0,8,8,8,1,1,1,,,1,FALSE,5.9944,,,,,,,,,,,,,,,,,,,,,,,,,,,,,,
,5f3ba39206b3218cf379659d,001,2022-04-29_13h14.44.650,classification_task,2021.2.3,Win32,60.49606776,5f3ba39206b3218cf379659d,626b377229c10585ec392f8a,626b3b7f48bfea07056a1736,,,,,,,,,,,,,,,,,,,,,,,a,1,"[""0.278"",""0.529"",""0.701"",""0.028""]","[1,1,1,0]",0,9,9,9,1,0,0,,,1,FALSE,4.961,,,,,,,,,,,,,,,,,,,,,,,,,,,,,,
,5f3ba39206b3218cf379659d,001,2022-04-29_13h14.44.650,classification_task,2021.2.3,Win32,60.49606776,5f3ba39206b3218cf379659d,626b377229c10585ec392f8a,626b3b7f48bfea07056a1736,,,,,,,,,,,,,,,,,,,,,,,l,1,"[""0.076"",""0.354"",""0.650"",""0.188""]","[1,1,1,0]",0,10,10,10,1,1,0,,,1,FALSE,3.2958,,,,,,,,,,,,,,,,,,,,,,,,,,,,,,
,5f3ba39206b3218cf379659d,001,2022-04-29_13h14.44.650,classification_task,2021.2.3,Win32,60.49606776,5f3ba39206b3218cf379659d,626b377229c10585ec392f8a,626b3b7f48bfea07056a1736,,,,,,,,,,,,,,,,,,,,,,,l,1,"[""0.076"",""0.418"",""0.650"",""0.823""]","[1,0,1,1]",0,11,11,11,1,1,0,,,1,FALSE,3.3781,,,,,,,,,,,,,,,,,,,,,,,,,,,,,,
,5f3ba39206b3218cf379659d,001,2022-04-29_13h14.44.650,classification_task,2021.2.3,Win32,60.49606776,5f3ba39206b3218cf379659d,626b377229c10585ec392f8a,626b3b7f48bfea07056a1736,,,,,,,,,,,,,,,,,,,,,,,l,1,"[""0.111"",""0.152"",""0.585"",""0.414""]","[1,1,1,0]",0,12,12,12,1,1,1,,,1,FALSE,2.5254,,,,,,,,,,,,,,,,,,,,,,,,,,,,,,
,5f3ba39206b3218cf379659d,001,2022-04-29_13h14.44.650,classification_task,2021.2.3,Win32,60.49606776,5f3ba39206b3218cf379659d,626b377229c10585ec392f8a,626b3b7f48bfea07056a1736,,,,,,,,,,,,,,,,,,,,,,,a,1,"[""0.278"",""0.529"",""0.188"",""0.972""]","[1,1,0,1]",0,13,13,13,1,0,0,,,1,FALSE,5.9969,,,,,,,,,,,,,,,,,,,,,,,,,,,,,,
,5f3ba39206b3218cf379659d,001,2022-04-29_13h14.44.650,classification_task,2021.2.3,Win32,60.49606776,5f3ba39206b3218cf379659d,626b377229c10585ec392f8a,626b3b7f48bfea07056a1736,,,,,,,,,,,,,,,,,,,,,,,a,1,"[""0.237"",""0.463"",""0.872"",""0.428""]","[1,1,1,0]",0,14,14,14,1,0,1,,,1,FALSE,3.2915,,,,,,,,,,,,,,,,,,,,,,,,,,,,,,
,5f3ba39206b3218cf379659d,001,2022-04-29_13h14.44.650,classification_task,2021.2.3,Win32,60.49606776,5f3ba39206b3218cf379659d,626b377229c10585ec392f8a,626b3b7f48bfea07056a1736,,,,,,,,,,,,,,,,,,,,,,,l,1,"[""0.076"",""0.354"",""0.424"",""0.823""]","[1,1,0,1]",0,15,15,15,1,1,0,,,1,FALSE,2.1023,,,,,,,,,,,,,,,,,,,,,,,,,,,,,,
,5f3ba39206b3218cf379659d,001,2022-04-29_13h14.44.650,classification_task,2021.2.3,Win32,60.49606776,5f3ba39206b3218cf379659d,626b377229c10585ec392f8a,626b3b7f48bfea07056a1736,,,,,,,,,,,,,,,,,,,,,,,a,1,"[""0.237"",""0.463"",""0.872"",""0.396""]","[1,1,1,0]",0,16,16,16,1,0,1,,,1,FALSE,1.9469,,,,,,,,,,,,,,,,,,,,,,,,,,,,,,
,5f3ba39206b3218cf379659d,001,2022-04-29_13h14.44.650,classification_task,2021.2.3,Win32,60.49606776,5f3ba39206b3218cf379659d,626b377229c10585ec392f8a,626b3b7f48bfea07056a1736,,,,,,,,,,,,,,,,,,,,,,,a,1,"[""0.278"",""0.392"",""0.701"",""0.972""]","[1,0,1,1]",0,17,17,17,1,0,0,,,1,FALSE,2.0441,,,,,,,,,,,,,,,,,,,,,,,,,,,,,,
,5f3ba39206b3218cf379659d,001,2022-04-29_13h14.44.650,classification_task,2021.2.3,Win32,60.49606776,5f3ba39206b3218cf379659d,626b377229c10585ec392f8a,626b3b7f48bfea07056a1736,,,,,,,,,,,,,,,,,,,,,,,l,1,"[""0.111"",""0.028"",""0.585"",""0.766""]","[1,0,1,1]",0,18,18,18,1,1,1,,,1,FALSE,2.8947,,,,,,,,,,,,,,,,,,,,,,,,,,,,,,
,5f3ba39206b3218cf379659d,001,2022-04-29_13h14.44.650,classification_task,2021.2.3,Win32,60.49606776,5f3ba39206b3218cf379659d,626b377229c10585ec392f8a,626b3b7f48bfea07056a1736,,,,,,,,,,,,,,,,,,,,,,,a,1,"[""0.237"",""0.463"",""0.194"",""0.909""]","[1,1,0,1]",0,19,19,19,1,0,1,,,1,FALSE,1.8802,,,,,,,,,,,,,,,,,,,,,,,,,,,,,,
,5f3ba39206b3218cf379659d,001,2022-04-29_13h14.44.650,classification_task,2021.2.3,Win32,60.49606776,5f3ba39206b3218cf379659d,626b377229c10585ec392f8a,626b3b7f48bfea07056a1736,,,,,,,,,,,,,,,,,,,,,,,a,1,"[""0.278"",""0.529"",""0.414"",""0.972""]","[1,1,0,1]",0,20,20,20,1,0,0,,,1,FALSE,1.6241,,,,,,,,,,,,,,,,,,,,,,,,,,,,,,
,5f3ba39206b3218cf379659d,001,2022-04-29_13h14.44.650,classification_task,2021.2.3,Win32,60.49606776,5f3ba39206b3218cf379659d,626b377229c10585ec392f8a,626b3b7f48bfea07056a1736,,,,,,,,,,,,,,,,,,,,,,,l,1,"[""0.076"",""0.354"",""0.650"",""0.312""]","[1,1,1,0]",0,21,21,21,1,1,0,,,1,FALSE,3.3275,,,,,,,,,,,,,,,,,,,,,,,,,,,,,,
,5f3ba39206b3218cf379659d,001,2022-04-29_13h14.44.650,classification_task,2021.2.3,Win32,60.49606776,5f3ba39206b3218cf379659d,626b377229c10585ec392f8a,626b3b7f48bfea07056a1736,,,,,,,,,,,,,,,,,,,,,,,l,1,"[""0.111"",""0.152"",""0.030"",""0.766""]","[1,1,0,1]",0,22,22,22,1,1,1,,,1,FALSE,2.9336,,,,,,,,,,,,,,,,,,,,,,,,,,,,,,
,5f3ba39206b3218cf379659d,001,2022-04-29_13h14.44.650,classification_task,2021.2.3,Win32,60.49606776,5f3ba39206b3218cf379659d,626b377229c10585ec392f8a,626b3b7f48bfea07056a1736,,,,,,,,,,,,,,,,,,,,,,,a,1,"[""0.237"",""0.312"",""0.872"",""0.909""]","[1,0,1,1]",0,23,23,23,1,0,1,,,1,FALSE,1.6298,,,,,,,,,,,,,,,,,,,,,,,,,,,,,,
,5f3ba39206b3218cf379659d,001,2022-04-29_13h14.44.650,classification_task,2021.2.3,Win32,60.49606776,5f3ba39206b3218cf379659d,626b377229c10585ec392f8a,626b3b7f48bfea07056a1736,,,,,,,,,,,,,,,,,,,,,,,l,1,"[""0.312"",""0.152"",""0.585"",""0.766""]","[0,1,1,1]",0,24,24,24,1,1,1,,,1,FALSE,5.2102,,,,,,,,,,,,,,,,,,,,,,,,,,,,,,
,5f3ba39206b3218cf379659d,001,2022-04-29_13h14.44.650,classification_task,2021.2.3,Win32,60.49606776,5f3ba39206b3218cf379659d,626b377229c10585ec392f8a,626b3b7f48bfea07056a1736,,,,,,,,,,,,,,,,,,,,,,,l,1,"[""0.420"",""0.354"",""0.650"",""0.823""]","[0,1,1,1]",0,25,25,25,1,1,0,,,1,FALSE,1.7775,,,,,,,,,,,,,,,,,,,,,,,,,,,,,,
,5f3ba39206b3218cf379659d,001,2022-04-29_13h14.44.650,classification_task,2021.2.3,Win32,60.49606776,5f3ba39206b3218cf379659d,626b377229c10585ec392f8a,626b3b7f48bfea07056a1736,,,,,,,,,,,,,,,,,,,,,,,a,1,"[""0.278"",""0.529"",""0.701"",""0.028""]","[1,1,1,0]",0,26,26,26,1,0,0,,,1,FALSE,1.4774,,,,,,,,,,,,,,,,,,,,,,,,,,,,,,
,5f3ba39206b3218cf379659d,001,2022-04-29_13h14.44.650,classification_task,2021.2.3,Win32,60.49606776,5f3ba39206b3218cf379659d,626b377229c10585ec392f8a,626b3b7f48bfea07056a1736,,,,,,,,,,,,,,,,,,,,,,,l,1,"[""0.111"",""0.152"",""0.585"",""0.415""]","[1,1,1,0]",0,27,27,27,1,1,1,,,1,FALSE,1.9249,,,,,,,,,,,,,,,,,,,,,,,,,,,,,,
,5f3ba39206b3218cf379659d,001,2022-04-29_13h14.44.650,classification_task,2021.2.3,Win32,60.49606776,5f3ba39206b3218cf379659d,626b377229c10585ec392f8a,626b3b7f48bfea07056a1736,,,,,,,,,,,,,,,,,,,,,,,a,1,"[""0.188"",""0.529"",""0.701"",""0.972""]","[0,1,1,1]",0,28,28,28,1,0,0,,,1,FALSE,4.5712,,,,,,,,,,,,,,,,,,,,,,,,,,,,,,
,5f3ba39206b3218cf379659d,001,2022-04-29_13h14.44.650,classification_task,2021.2.3,Win32,60.49606776,5f3ba39206b3218cf379659d,626b377229c10585ec392f8a,626b3b7f48bfea07056a1736,,,,,,,,,,,,,,,,,,,,,,,l,1,"[""0.076"",""0.418"",""0.650"",""0.823""]","[1,0,1,1]",0,29,29,29,1,1,0,,,1,FALSE,5.7109,,,,,,,,,,,,,,,,,,,,,,,,,,,,,,
,5f3ba39206b3218cf379659d,001,2022-04-29_13h14.44.650,classification_task,2021.2.3,Win32,60.49606776,5f3ba39206b3218cf379659d,626b377229c10585ec392f8a,626b3b7f48bfea07056a1736,,,,,,,,,,,,,,,,,,,,,,,l,1,"[""0.076"",""0.354"",""0.312"",""0.823""]","[1,1,0,1]",0,30,30,30,1,1,0,,,1,FALSE,2.9443,,,,,,,,,,,,,,,,,,,,,,,,,,,,,,
,5f3ba39206b3218cf379659d,001,2022-04-29_13h14.44.650,classification_task,2021.2.3,Win32,60.49606776,5f3ba39206b3218cf379659d,626b377229c10585ec392f8a,626b3b7f48bfea07056a1736,,,,,,,,,,,,,,,,,,,,,,,a,1,"[""0.396"",""0.463"",""0.872"",""0.909""]","[0,1,1,1]",0,31,31,31,1,0,1,,,1,FALSE,4.1555,,,,,,,,,,,,,,,,,,,,,,,,,,,,,,
,5f3ba39206b3218cf379659d,001,2022-04-29_13h14.44.650,classification_task,2021.2.3,Win32,60.49606776,5f3ba39206b3218cf379659d,626b377229c10585ec392f8a,626b3b7f48bfea07056a1736,,,,,,,,,,,,,,,,,,,,,,,l,1,"[""0.076"",""0.354"",""0.650"",""0.188""]","[1,1,1,0]",0,32,32,32,1,1,0,,,1,FALSE,5.357,,,,,,,,,,,,,,,,,,,,,,,,,,,,,,
,5f3ba39206b3218cf379659d,001,2022-04-29_13h14.44.650,classification_task,2021.2.3,Win32,60.49606776,5f3ba39206b3218cf379659d,626b377229c10585ec392f8a,626b3b7f48bfea07056a1736,,,,,,,,,,,,,,,,,,,,,,,a,1,"[""0.237"",""0.463"",""0.419"",""0.909""]","[1,1,0,1]",0,33,33,33,1,0,1,,,1,FALSE,2.0078,,,,,,,,,,,,,,,,,,,,,,,,,,,,,,
,5f3ba39206b3218cf379659d,001,2022-04-29_13h14.44.650,classification_task,2021.2.3,Win32,60.49606776,5f3ba39206b3218cf379659d,626b377229c10585ec392f8a,626b3b7f48bfea07056a1736,,,,,,,,,,,,,,,,,,,,,,,a,1,"[""0.237"",""0.312"",""0.872"",""0.909""]","[1,0,1,1]",0,34,34,34,1,0,1,,,1,FALSE,1.3964,,,,,,,,,,,,,,,,,,,,,,,,,,,,,,
,5f3ba39206b3218cf379659d,001,2022-04-29_13h14.44.650,classification_task,2021.2.3,Win32,60.49606776,5f3ba39206b3218cf379659d,626b377229c10585ec392f8a,626b3b7f48bfea07056a1736,,,,,,,,,,,,,,,,,,,,,,,a,0,"[""0.111"",""0.152"",""0.585"",""0.428""]","[1,1,1,0]",0,35,35,35,1,1,1,,,1,FALSE,1.1999,,,,,,,,,,,,,,,,,,,,,,,,,,,,,,
,5f3ba39206b3218cf379659d,001,2022-04-29_13h14.44.650,classification_task,2021.2.3,Win32,60.49606776,5f3ba39206b3218cf379659d,626b377229c10585ec392f8a,626b3b7f48bfea07056a1736,,,,,,,,,,,,,,,,,,,,,,,l,1,"[""0.111"",""0.028"",""0.585"",""0.766""]","[1,0,1,1]",0,36,36,36,1,1,1,,,1,FALSE,1.8795,,,,,,,,,,,,,,,,,,,,,,,,,,,,,,
,5f3ba39206b3218cf379659d,001,2022-04-29_13h14.44.650,classification_task,2021.2.3,Win32,60.49606776,5f3ba39206b3218cf379659d,626b377229c10585ec392f8a,626b3b7f48bfea07056a1736,,,,,,,,,,,,,,,,,,,,,,,l,0,"[""0.415"",""0.529"",""0.701"",""0.972""]","[0,1,1,1]",0,37,37,37,1,0,0,,,1,FALSE,1.8626,,,,,,,,,,,,,,,,,,,,,,,,,,,,,,
,5f3ba39206b3218cf379659d,001,2022-04-29_13h14.44.650,classification_task,2021.2.3,Win32,60.49606776,5f3ba39206b3218cf379659d,626b377229c10585ec392f8a,626b3b7f48bfea07056a1736,,,,,,,,,,,,,,,,,,,,,,,l,1,"[""0.194"",""0.152"",""0.585"",""0.766""]","[0,1,1,1]",0,38,38,38,1,1,1,,,1,FALSE,2.0984,,,,,,,,,,,,,,,,,,,,,,,,,,,,,,
,5f3ba39206b3218cf379659d,001,2022-04-29_13h14.44.650,classification_task,2021.2.3,Win32,60.49606776,5f3ba39206b3218cf379659d,626b377229c10585ec392f8a,626b3b7f48bfea07056a1736,,,,,,,,,,,,,,,,,,,,,,,l,1,"[""0.076"",""0.319"",""0.650"",""0.823""]","[1,0,1,1]",0,39,39,39,1,1,0,,,1,FALSE,2.7768,,,,,,,,,,,,,,,,,,,,,,,,,,,,,,
,5f3ba39206b3218cf379659d,001,2022-04-29_13h14.44.650,classification_task,2021.2.3,Win32,60.49606776,5f3ba39206b3218cf379659d,626b377229c10585ec392f8a,626b3b7f48bfea07056a1736,,,,,,,,,,,,,,,,,,,,,,,a,1,"[""0.278"",""0.529"",""0.028"",""0.972""]","[1,1,0,1]",0,40,40,40,1,0,0,,,1,FALSE,2.7584,,,,,,,,,,,,,,,,,,,,,,,,,,,,,,
,5f3ba39206b3218cf379659d,001,2022-04-29_13h14.44.650,classification_task,2021.2.3,Win32,60.49606776,5f3ba39206b3218cf379659d,626b377229c10585ec392f8a,626b3b7f48bfea07056a1736,,,,,,,,,,,,,,,,,,,,,,,a,1,"[""0.237"",""0.463"",""0.872"",""0.028""]","[1,1,1,0]",0,41,41,41,1,0,1,,,1,FALSE,2.3767,,,,,,,,,,,,,,,,,,,,,,,,,,,,,,
,5f3ba39206b3218cf379659d,001,2022-04-29_13h14.44.650,classification_task,2021.2.3,Win32,60.49606776,5f3ba39206b3218cf379659d,626b377229c10585ec392f8a,626b3b7f48bfea07056a1736,,,,,,,,,,,,,,,,,,,,,,,l,1,"[""0.076"",""0.354"",""0.418"",""0.823""]","[1,1,0,1]",0,42,42,42,1,1,0,,,1,FALSE,2.948,,,,,,,,,,,,,,,,,,,,,,,,,,,,,,
,5f3ba39206b3218cf379659d,001,2022-04-29_13h14.44.650,classification_task,2021.2.3,Win32,60.49606776,5f3ba39206b3218cf379659d,626b377229c10585ec392f8a,626b3b7f48bfea07056a1736,,,,,,,,,,,,,,,,,,,,,,,l,0,"[""0.428"",""0.463"",""0.872"",""0.909""]","[0,1,1,1]",0,43,43,43,1,0,1,,,1,FALSE,2.9798,,,,,,,,,,,,,,,,,,,,,,,,,,,,,,
,5f3ba39206b3218cf379659d,001,2022-04-29_13h14.44.650,classification_task,2021.2.3,Win32,60.49606776,5f3ba39206b3218cf379659d,626b377229c10585ec392f8a,626b3b7f48bfea07056a1736,,,,,,,,,,,,,,,,,,,,,,,l,1,"[""0.111"",""0.152"",""0.194"",""0.766""]","[1,1,0,1]",0,44,44,44,1,1,1,,,1,FALSE,2.9084,,,,,,,,,,,,,,,,,,,,,,,,,,,,,,
,5f3ba39206b3218cf379659d,001,2022-04-29_13h14.44.650,classification_task,2021.2.3,Win32,60.49606776,5f3ba39206b3218cf379659d,626b377229c10585ec392f8a,626b3b7f48bfea07056a1736,,,,,,,,,,,,,,,,,,,,,,,a,1,"[""0.278"",""0.529"",""0.701"",""0.424""]","[1,1,1,0]",0,45,45,45,1,0,0,,,1,FALSE,1.5932,,,,,,,,,,,,,,,,,,,,,,,,,,,,,,
,5f3ba39206b3218cf379659d,001,2022-04-29_13h14.44.650,classification_task,2021.2.3,Win32,60.49606776,5f3ba39206b3218cf379659d,626b377229c10585ec392f8a,626b3b7f48bfea07056a1736,,,,,,,,,,,,,,,,,,,,,,,l,1,"[""0.188"",""0.354"",""0.650"",""0.823""]","[0,1,1,1]",0,46,46,46,1,1,0,,,1,FALSE,2.5957,,,,,,,,,,,,,,,,,,,,,,,,,,,,,,
,5f3ba39206b3218cf379659d,001,2022-04-29_13h14.44.650,classification_task,2021.2.3,Win32,60.49606776,5f3ba39206b3218cf379659d,626b377229c10585ec392f8a,626b3b7f48bfea07056a1736,,,,,,,,,,,,,,,,,,,,,,,a,1,"[""0.278"",""0.415"",""0.701"",""0.972""]","[1,0,1,1]",0,47,47,47,1,0,0,,,1,FALSE,1.6961,,,,,,,,,,,,,,,,,,,,,,,,,,,,,,
,5f3ba39206b3218cf379659d,001,2022-04-29_13h14.44.650,classification_task,2021.2.3,Win32,60.49606776,5f3ba39206b3218cf379659d,626b377229c10585ec392f8a,626b3b7f48bfea07056a1736,,,,,,,,,,,,,,,,,,,,,,,l,1,"[""0.111"",""0.152"",""0.414"",""0.766""]","[1,1,0,1]",0,48,48,48,1,1,1,,,1,FALSE,1.4464,,,,,,,,,,,,,,,,,,,,,,,,,,,,,,
,5f3ba39206b3218cf379659d,001,2022-04-29_13h14.44.650,classification_task,2021.2.3,Win32,60.49606776,5f3ba39206b3218cf379659d,626b377229c10585ec392f8a,626b3b7f48bfea07056a1736,,,,,,,,,,,,,,,,,,,,,,,a,1,"[""0.237"",""0.463"",""0.872"",""0.028""]","[1,1,1,0]",0,49,49,49,1,0,1,,,1,FALSE,2.911,,,,,,,,,,,,,,,,,,,,,,,,,,,,,,
,5f3ba39206b3218cf379659d,001,2022-04-29_13h14.44.650,classification_task,2021.2.3,Win32,60.49606776,5f3ba39206b3218cf379659d,626b377229c10585ec392f8a,626b3b7f48bfea07056a1736,,,,,,,,,,,,,,,,,,,,,,,a,0,"[""0.076"",""0.354"",""0.028"",""0.823""]","[1,1,0,1]",0,50,50,50,1,1,0,,,1,FALSE,2.7438,,,,,,,,,,,,,,,,,,,,,,,,,,,,,,
,5f3ba39206b3218cf379659d,001,2022-04-29_13h14.44.650,classification_task,2021.2.3,Win32,60.49606776,5f3ba39206b3218cf379659d,626b377229c10585ec392f8a,626b3b7f48bfea07056a1736,,,,,,,,,,,,,,,,,,,,,,,l,0,"[""0.278"",""0.529"",""0.028"",""0.972""]","[1,1,0,1]",0,51,51,51,1,0,0,,,1,FALSE,1.6121,,,,,,,,,,,,,,,,,,,,,,,,,,,,,,
,5f3ba39206b3218cf379659d,001,2022-04-29_13h14.44.650,classification_task,2021.2.3,Win32,60.49606776,5f3ba39206b3218cf379659d,626b377229c10585ec392f8a,626b3b7f48bfea07056a1736,,,,,,,,,,,,,,,,,,,,,,,a,1,"[""0.237"",""0.419"",""0.872"",""0.909""]","[1,0,1,1]",0,52,52,52,1,0,1,,,1,FALSE,2.5596,,,,,,,,,,,,,,,,,,,,,,,,,,,,,,
,5f3ba39206b3218cf379659d,001,2022-04-29_13h14.44.650,classification_task,2021.2.3,Win32,60.49606776,5f3ba39206b3218cf379659d,626b377229c10585ec392f8a,626b3b7f48bfea07056a1736,,,,,,,,,,,,,,,,,,,,,,,a,1,"[""0.278"",""0.028"",""0.701"",""0.972""]","[1,0,1,1]",0,53,53,53,1,0,0,,,1,FALSE,3.4116,,,,,,,,,,,,,,,,,,,,,,,,,,,,,,
,5f3ba39206b3218cf379659d,001,2022-04-29_13h14.44.650,classification_task,2021.2.3,Win32,60.49606776,5f3ba39206b3218cf379659d,626b377229c10585ec392f8a,626b3b7f48bfea07056a1736,,,,,,,,,,,,,,,,,,,,,,,l,1,"[""0.111"",""0.152"",""0.585"",""0.418""]","[1,1,1,0]",0,54,54,54,1,1,1,,,1,FALSE,1.4816,,,,,,,,,,,,,,,,,,,,,,,,,,,,,,
,5f3ba39206b3218cf379659d,001,2022-04-29_13h14.44.650,classification_task,2021.2.3,Win32,60.49606776,5f3ba39206b3218cf379659d,626b377229c10585ec392f8a,626b3b7f48bfea07056a1736,,,,,,,,,,,,,,,,,,,,,,,l,0,"[""0.319"",""0.529"",""0.701"",""0.972""]","[0,1,1,1]",0,55,55,55,1,0,0,,,1,FALSE,3.3949,,,,,,,,,,,,,,,,,,,,,,,,,,,,,,
,5f3ba39206b3218cf379659d,001,2022-04-29_13h14.44.650,classification_task,2021.2.3,Win32,60.49606776,5f3ba39206b3218cf379659d,626b377229c10585ec392f8a,626b3b7f48bfea07056a1736,,,,,,,,,,,,,,,,,,,,,,,l,1,"[""0.076"",""0.354"",""0.650"",""0.188""]","[1,1,1,0]",0,56,56,56,1,1,0,,,1,FALSE,3.2467,,,,,,,,,,,,,,,,,,,,,,,,,,,,,,
,5f3ba39206b3218cf379659d,001,2022-04-29_13h14.44.650,classification_task,2021.2.3,Win32,60.49606776,5f3ba39206b3218cf379659d,626b377229c10585ec392f8a,626b3b7f48bfea07056a1736,,,,,,,,,,,,,,,,,,,,,,,a,1,"[""0.237"",""0.463"",""0.188"",""0.909""]","[1,1,0,1]",0,57,57,57,1,0,1,,,1,FALSE,2.6697,,,,,,,,,,,,,,,,,,,,,,,,,,,,,,
,5f3ba39206b3218cf379659d,001,2022-04-29_13h14.44.650,classification_task,2021.2.3,Win32,60.49606776,5f3ba39206b3218cf379659d,626b377229c10585ec392f8a,626b3b7f48bfea07056a1736,,,,,,,,,,,,,,,,,,,,,,,l,1,"[""0.111"",""0.414"",""0.585"",""0.766""]","[1,0,1,1]",0,58,58,58,1,1,1,,,1,FALSE,1.1114,,,,,,,,,,,,,,,,,,,,,,,,,,,,,,
,5f3ba39206b3218cf379659d,001,2022-04-29_13h14.44.650,classification_task,2021.2.3,Win32,60.49606776,5f3ba39206b3218cf379659d,626b377229c10585ec392f8a,626b3b7f48bfea07056a1736,,,,,,,,,,,,,,,,,,,,,,,l,1,"[""0.428"",""0.354"",""0.650"",""0.823""]","[0,1,1,1]",0,59,59,59,1,1,0,,,1,FALSE,3.8456,,,,,,,,,,,,,,,,,,,,,,,,,,,,,,
,5f3ba39206b3218cf379659d,001,2022-04-29_13h14.44.650,classification_task,2021.2.3,Win32,60.49606776,5f3ba39206b3218cf379659d,626b377229c10585ec392f8a,626b3b7f48bfea07056a1736,,,,,,,,,,,,,,,,,,,,,,,l,1,"[""0.188"",""0.152"",""0.585"",""0.766""]","[0,1,1,1]",0,60,60,60,1,1,1,,,1,FALSE,2.3433,,,,,,,,,,,,,,,,,,,,,,,,,,,,,,
,5f3ba39206b3218cf379659d,001,2022-04-29_13h14.44.650,classification_task,2021.2.3,Win32,60.49606776,5f3ba39206b3218cf379659d,626b377229c10585ec392f8a,626b3b7f48bfea07056a1736,,,,,,,,,,,,,,,,,,,,,,,a,0,"[""0.076"",""0.392"",""0.650"",""0.823""]","[1,0,1,1]",0,61,61,61,1,1,0,,,1,FALSE,1.8752,,,,,,,,,,,,,,,,,,,,,,,,,,,,,,
,5f3ba39206b3218cf379659d,001,2022-04-29_13h14.44.650,classification_task,2021.2.3,Win32,60.49606776,5f3ba39206b3218cf379659d,626b377229c10585ec392f8a,626b3b7f48bfea07056a1736,,,,,,,,,,,,,,,,,,,,,,,a,1,"[""0.278"",""0.529"",""0.701"",""0.419""]","[1,1,1,0]",0,62,62,62,1,0,0,,,1,FALSE,1.4748,,,,,,,,,,,,,,,,,,,,,,,,,,,,,,
,5f3ba39206b3218cf379659d,001,2022-04-29_13h14.44.650,classification_task,2021.2.3,Win32,60.49606776,5f3ba39206b3218cf379659d,626b377229c10585ec392f8a,626b3b7f48bfea07056a1736,,,,,,,,,,,,,,,,,,,,,,,l,0,"[""0.194"",""0.463"",""0.872"",""0.909""]","[0,1,1,1]",0,63,63,63,1,0,1,,,1,FALSE,3.9594,,,,,,,,,,,,,,,,,,,,,,,,,,,,,,
,5f3ba39206b3218cf379659d,001,2022-04-29_13h14.44.650,classification_task,2021.2.3,Win32,60.49606776,5f3ba39206b3218cf379659d,626b377229c10585ec392f8a,626b3b7f48bfea07056a1736,,,,,,,,,,,,,,,,,,,,,,,,,,,,,,,,,,,,,,,0, ,,0,3.530276308,455.2459,0,0,0,0,1,2,1,,,,,,,,,,,,,,,,,
,5f3ba39206b3218cf379659d,001,2022-04-29_13h14.44.650,classification_task,2021.2.3,Win32,60.49606776,5f3ba39206b3218cf379659d,626b377229c10585ec392f8a,626b3b7f48bfea07056a1736,,,,,,,,,,,,,,,,,,,,,,,,,,,,,,,,,,,,,,,1,  ,,0,9.115226337,458.1919,0,0,0,0,1,2,1,,,,,,,,,,,,,,,,,
,5f3ba39206b3218cf379659d,001,2022-04-29_13h14.44.650,classification_task,2021.2.3,Win32,60.49606776,5f3ba39206b3218cf379659d,626b377229c10585ec392f8a,626b3b7f48bfea07056a1736,,,,,,,,,,,,,,,,,,,,,,,,,,,,,,,,,,,,,,,2,  ,,0,6.151285054,463.9142,0,0,0,0,1,2,1,,,,,,,,,,,,,,,,,
,5f3ba39206b3218cf379659d,001,2022-04-29_13h14.44.650,classification_task,2021.2.3,Win32,60.49606776,5f3ba39206b3218cf379659d,626b377229c10585ec392f8a,626b3b7f48bfea07056a1736,,,,,,,,,,,,,,,,,,,,,,,,,,,,,,,,,,,,,,,,,,,,,0,0,0,0,1,,1,,,,,,,,,,,,,,,,,
,5f3ba39206b3218cf379659d,001,2022-04-29_13h14.44.650,classification_task,2021.2.3,Win32,60.49606776,5f3ba39206b3218cf379659d,626b377229c10585ec392f8a,626b3b7f48bfea07056a1736,,,,,,,,,,,,,,,,,,,,,space,25.4507,l,1,"[""0.428"",""0.152"",""0.585"",""0.766""]","[0,1,1,1]",0,0,0,0,1,1,1,,,1,FALSE,7.3841,,,,,,,,,,,,,,,,,,,,,,,,,,,,,,
,5f3ba39206b3218cf379659d,001,2022-04-29_13h14.44.650,classification_task,2021.2.3,Win32,60.49606776,5f3ba39206b3218cf379659d,626b377229c10585ec392f8a,626b3b7f48bfea07056a1736,,,,,,,,,,,,,,,,,,,,,,,l,1,"[""0.111"",""0.415"",""0.585"",""0.766""]","[1,0,1,1]",0,1,1,1,1,1,1,,,1,FALSE,1.9271,,,,,,,,,,,,,,,,,,,,,,,,,,,,,,
,5f3ba39206b3218cf379659d,001,2022-04-29_13h14.44.650,classification_task,2021.2.3,Win32,60.49606776,5f3ba39206b3218cf379659d,626b377229c10585ec392f8a,626b3b7f48bfea07056a1736,,,,,,,,,,,,,,,,,,,,,,,a,1,"[""0.278"",""0.319"",""0.701"",""0.972""]","[1,0,1,1]",0,2,2,2,1,0,0,,,1,FALSE,1.0871,,,,,,,,,,,,,,,,,,,,,,,,,,,,,,
,5f3ba39206b3218cf379659d,001,2022-04-29_13h14.44.650,classification_task,2021.2.3,Win32,60.49606776,5f3ba39206b3218cf379659d,626b377229c10585ec392f8a,626b3b7f48bfea07056a1736,,,,,,,,,,,,,,,,,,,,,,,a,1,"[""0.312"",""0.463"",""0.872"",""0.909""]","[0,1,1,1]",0,3,3,3,1,0,1,,,1,FALSE,4.191,,,,,,,,,,,,,,,,,,,,,,,,,,,,,,
,5f3ba39206b3218cf379659d,001,2022-04-29_13h14.44.650,classification_task,2021.2.3,Win32,60.49606776,5f3ba39206b3218cf379659d,626b377229c10585ec392f8a,626b3b7f48bfea07056a1736,,,,,,,,,,,,,,,,,,,,,,,a,0,"[""0.392"",""0.354"",""0.650"",""0.823""]","[0,1,1,1]",0,4,4,4,1,1,0,,,1,FALSE,1.2634,,,,,,,,,,,,,,,,,,,,,,,,,,,,,,
,5f3ba39206b3218cf379659d,001,2022-04-29_13h14.44.650,classification_task,2021.2.3,Win32,60.49606776,5f3ba39206b3218cf379659d,626b377229c10585ec392f8a,626b3b7f48bfea07056a1736,,,,,,,,,,,,,,,,,,,,,,,a,1,"[""0.237"",""0.420"",""0.872"",""0.909""]","[1,0,1,1]",0,5,5,5,1,0,1,,,1,FALSE,4.4733,,,,,,,,,,,,,,,,,,,,,,,,,,,,,,
,5f3ba39206b3218cf379659d,001,2022-04-29_13h14.44.650,classification_task,2021.2.3,Win32,60.49606776,5f3ba39206b3218cf379659d,626b377229c10585ec392f8a,626b3b7f48bfea07056a1736,,,,,,,,,,,,,,,,,,,,,,,a,0,"[""0.076"",""0.424"",""0.650"",""0.823""]","[1,0,1,1]",0,6,6,6,1,1,0,,,1,FALSE,4.8561,,,,,,,,,,,,,,,,,,,,,,,,,,,,,,
,5f3ba39206b3218cf379659d,001,2022-04-29_13h14.44.650,classification_task,2021.2.3,Win32,60.49606776,5f3ba39206b3218cf379659d,626b377229c10585ec392f8a,626b3b7f48bfea07056a1736,,,,,,,,,,,,,,,,,,,,,,,l,1,"[""0.076"",""0.354"",""0.650"",""0.028""]","[1,1,1,0]",0,7,7,7,1,1,0,,,1,FALSE,1.6948,,,,,,,,,,,,,,,,,,,,,,,,,,,,,,
,5f3ba39206b3218cf379659d,001,2022-04-29_13h14.44.650,classification_task,2021.2.3,Win32,60.49606776,5f3ba39206b3218cf379659d,626b377229c10585ec392f8a,626b3b7f48bfea07056a1736,,,,,,,,,,,,,,,,,,,,,,,l,0,"[""0.415"",""0.529"",""0.701"",""0.972""]","[0,1,1,1]",0,8,8,8,1,0,0,,,1,FALSE,0.9279,,,,,,,,,,,,,,,,,,,,,,,,,,,,,,
,5f3ba39206b3218cf379659d,001,2022-04-29_13h14.44.650,classification_task,2021.2.3,Win32,60.49606776,5f3ba39206b3218cf379659d,626b377229c10585ec392f8a,626b3b7f48bfea07056a1736,,,,,,,,,,,,,,,,,,,,,,,l,1,"[""0.111"",""0.152"",""0.319"",""0.766""]","[1,1,0,1]",0,9,9,9,1,1,1,,,1,FALSE,3.98,,,,,,,,,,,,,,,,,,,,,,,,,,,,,,
,5f3ba39206b3218cf379659d,001,2022-04-29_13h14.44.650,classification_task,2021.2.3,Win32,60.49606776,5f3ba39206b3218cf379659d,626b377229c10585ec392f8a,626b3b7f48bfea07056a1736,,,,,,,,,,,,,,,,,,,,,,,a,1,"[""0.237"",""0.463"",""0.030"",""0.909""]","[1,1,0,1]",0,10,10,10,1,0,1,,,1,FALSE,1.6133,,,,,,,,,,,,,,,,,,,,,,,,,,,,,,
,5f3ba39206b3218cf379659d,001,2022-04-29_13h14.44.650,classification_task,2021.2.3,Win32,60.49606776,5f3ba39206b3218cf379659d,626b377229c10585ec392f8a,626b3b7f48bfea07056a1736,,,,,,,,,,,,,,,,,,,,,,,l,0,"[""0.278"",""0.529"",""0.424"",""0.972""]","[1,1,0,1]",0,11,11,11,1,0,0,,,1,FALSE,1.0749,,,,,,,,,,,,,,,,,,,,,,,,,,,,,,
,5f3ba39206b3218cf379659d,001,2022-04-29_13h14.44.650,classification_task,2021.2.3,Win32,60.49606776,5f3ba39206b3218cf379659d,626b377229c10585ec392f8a,626b3b7f48bfea07056a1736,,,,,,,,,,,,,,,,,,,,,,,a,1,"[""0.237"",""0.463"",""0.872"",""0.312""]","[1,1,1,0]",0,12,12,12,1,0,1,,,1,FALSE,1.5149,,,,,,,,,,,,,,,,,,,,,,,,,,,,,,
,5f3ba39206b3218cf379659d,001,2022-04-29_13h14.44.650,classification_task,2021.2.3,Win32,60.49606776,5f3ba39206b3218cf379659d,626b377229c10585ec392f8a,626b3b7f48bfea07056a1736,,,,,,,,,,,,,,,,,,,,,,,a,0,"[""0.076"",""0.354"",""0.418"",""0.823""]","[1,1,0,1]",0,13,13,13,1,1,0,,,1,FALSE,1.5479,,,,,,,,,,,,,,,,,,,,,,,,,,,,,,
,5f3ba39206b3218cf379659d,001,2022-04-29_13h14.44.650,classification_task,2021.2.3,Win32,60.49606776,5f3ba39206b3218cf379659d,626b377229c10585ec392f8a,626b3b7f48bfea07056a1736,,,,,,,,,,,,,,,,,,,,,,,l,1,"[""0.111"",""0.152"",""0.585"",""0.418""]","[1,1,1,0]",0,14,14,14,1,1,1,,,1,FALSE,6.4519,,,,,,,,,,,,,,,,,,,,,,,,,,,,,,
,5f3ba39206b3218cf379659d,001,2022-04-29_13h14.44.650,classification_task,2021.2.3,Win32,60.49606776,5f3ba39206b3218cf379659d,626b377229c10585ec392f8a,626b3b7f48bfea07056a1736,,,,,,,,,,,,,,,,,,,,,,,l,0,"[""0.278"",""0.529"",""0.701"",""0.188""]","[1,1,1,0]",0,15,15,15,1,0,0,,,1,FALSE,1.7565,,,,,,,,,,,,,,,,,,,,,,,,,,,,,,
,5f3ba39206b3218cf379659d,001,2022-04-29_13h14.44.650,classification_task,2021.2.3,Win32,60.49606776,5f3ba39206b3218cf379659d,626b377229c10585ec392f8a,626b3b7f48bfea07056a1736,,,,,,,,,,,,,,,,,,,,,,,a,1,"[""0.237"",""0.463"",""0.872"",""0.415""]","[1,1,1,0]",0,16,16,16,1,0,1,,,1,FALSE,1.289,,,,,,,,,,,,,,,,,,,,,,,,,,,,,,
,5f3ba39206b3218cf379659d,001,2022-04-29_13h14.44.650,classification_task,2021.2.3,Win32,60.49606776,5f3ba39206b3218cf379659d,626b377229c10585ec392f8a,626b3b7f48bfea07056a1736,,,,,,,,,,,,,,,,,,,,,,,a,0,"[""0.076"",""0.418"",""0.650"",""0.823""]","[1,0,1,1]",0,17,17,17,1,1,0,,,1,FALSE,1.7979,,,,,,,,,,,,,,,,,,,,,,,,,,,,,,
,5f3ba39206b3218cf379659d,001,2022-04-29_13h14.44.650,classification_task,2021.2.3,Win32,60.49606776,5f3ba39206b3218cf379659d,626b377229c10585ec392f8a,626b3b7f48bfea07056a1736,,,,,,,,,,,,,,,,,,,,,,,l,1,"[""0.414"",""0.354"",""0.650"",""0.823""]","[0,1,1,1]",0,18,18,18,1,1,0,,,1,FALSE,0.9003,,,,,,,,,,,,,,,,,,,,,,,,,,,,,,
,5f3ba39206b3218cf379659d,001,2022-04-29_13h14.44.650,classification_task,2021.2.3,Win32,60.49606776,5f3ba39206b3218cf379659d,626b377229c10585ec392f8a,626b3b7f48bfea07056a1736,,,,,,,,,,,,,,,,,,,,,,,l,1,"[""0.076"",""0.354"",""0.650"",""0.419""]","[1,1,1,0]",0,19,19,19,1,1,0,,,1,FALSE,1.0898,,,,,,,,,,,,,,,,,,,,,,,,,,,,,,
,5f3ba39206b3218cf379659d,001,2022-04-29_13h14.44.650,classification_task,2021.2.3,Win32,60.49606776,5f3ba39206b3218cf379659d,626b377229c10585ec392f8a,626b3b7f48bfea07056a1736,,,,,,,,,,,,,,,,,,,,,,,l,0,"[""0.278"",""0.529"",""0.428"",""0.972""]","[1,1,0,1]",0,20,20,20,1,0,0,,,1,FALSE,0.8626,,,,,,,,,,,,,,,,,,,,,,,,,,,,,,
,5f3ba39206b3218cf379659d,001,2022-04-29_13h14.44.650,classification_task,2021.2.3,Win32,60.49606776,5f3ba39206b3218cf379659d,626b377229c10585ec392f8a,626b3b7f48bfea07056a1736,,,,,,,,,,,,,,,,,,,,,,,l,1,"[""0.076"",""0.354"",""0.319"",""0.823""]","[1,1,0,1]",0,21,21,21,1,1,0,,,1,FALSE,2.847,,,,,,,,,,,,,,,,,,,,,,,,,,,,,,
,5f3ba39206b3218cf379659d,001,2022-04-29_13h14.44.650,classification_task,2021.2.3,Win32,60.49606776,5f3ba39206b3218cf379659d,626b377229c10585ec392f8a,626b3b7f48bfea07056a1736,,,,,,,,,,,,,,,,,,,,,,,l,1,"[""0.111"",""0.152"",""0.585"",""0.428""]","[1,1,1,0]",0,22,22,22,1,1,1,,,1,FALSE,2.0423,,,,,,,,,,,,,,,,,,,,,,,,,,,,,,
,5f3ba39206b3218cf379659d,001,2022-04-29_13h14.44.650,classification_task,2021.2.3,Win32,60.49606776,5f3ba39206b3218cf379659d,626b377229c10585ec392f8a,626b3b7f48bfea07056a1736,,,,,,,,,,,,,,,,,,,,,,,l,1,"[""0.111"",""0.030"",""0.585"",""0.766""]","[1,0,1,1]",0,23,23,23,1,1,1,,,1,FALSE,0.6589,,,,,,,,,,,,,,,,,,,,,,,,,,,,,,
,5f3ba39206b3218cf379659d,001,2022-04-29_13h14.44.650,classification_task,2021.2.3,Win32,60.49606776,5f3ba39206b3218cf379659d,626b377229c10585ec392f8a,626b3b7f48bfea07056a1736,,,,,,,,,,,,,,,,,,,,,,,a,1,"[""0.237"",""0.463"",""0.419"",""0.909""]","[1,1,0,1]",0,24,24,24,1,0,1,,,1,FALSE,1.2282,,,,,,,,,,,,,,,,,,,,,,,,,,,,,,
,5f3ba39206b3218cf379659d,001,2022-04-29_13h14.44.650,classification_task,2021.2.3,Win32,60.49606776,5f3ba39206b3218cf379659d,626b377229c10585ec392f8a,626b3b7f48bfea07056a1736,,,,,,,,,,,,,,,,,,,,,,,l,1,"[""0.111"",""0.152"",""0.414"",""0.766""]","[1,1,0,1]",0,25,25,25,1,1,1,,,1,FALSE,0.8962,,,,,,,,,,,,,,,,,,,,,,,,,,,,,,
,5f3ba39206b3218cf379659d,001,2022-04-29_13h14.44.650,classification_task,2021.2.3,Win32,60.49606776,5f3ba39206b3218cf379659d,626b377229c10585ec392f8a,626b3b7f48bfea07056a1736,,,,,,,,,,,,,,,,,,,,,,,l,0,"[""0.418"",""0.529"",""0.701"",""0.972""]","[0,1,1,1]",0,26,26,26,1,0,0,,,1,FALSE,1.4713,,,,,,,,,,,,,,,,,,,,,,,,,,,,,,
,5f3ba39206b3218cf379659d,001,2022-04-29_13h14.44.650,classification_task,2021.2.3,Win32,60.49606776,5f3ba39206b3218cf379659d,626b377229c10585ec392f8a,626b3b7f48bfea07056a1736,,,,,,,,,,,,,,,,,,,,,,,l,1,"[""0.188"",""0.152"",""0.585"",""0.766""]","[0,1,1,1]",0,27,27,27,1,1,1,,,1,FALSE,1.051,,,,,,,,,,,,,,,,,,,,,,,,,,,,,,
,5f3ba39206b3218cf379659d,001,2022-04-29_13h14.44.650,classification_task,2021.2.3,Win32,60.49606776,5f3ba39206b3218cf379659d,626b377229c10585ec392f8a,626b3b7f48bfea07056a1736,,,,,,,,,,,,,,,,,,,,,,,a,1,"[""0.278"",""0.529"",""0.701"",""0.194""]","[1,1,1,0]",0,28,28,28,1,0,0,,,1,FALSE,2.5149,,,,,,,,,,,,,,,,,,,,,,,,,,,,,,
,5f3ba39206b3218cf379659d,001,2022-04-29_13h14.44.650,classification_task,2021.2.3,Win32,60.49606776,5f3ba39206b3218cf379659d,626b377229c10585ec392f8a,626b3b7f48bfea07056a1736,,,,,,,,,,,,,,,,,,,,,,,a,1,"[""0.188"",""0.463"",""0.872"",""0.909""]","[0,1,1,1]",0,29,29,29,1,0,1,,,1,FALSE,2.4661,,,,,,,,,,,,,,,,,,,,,,,,,,,,,,
,5f3ba39206b3218cf379659d,001,2022-04-29_13h14.44.650,classification_task,2021.2.3,Win32,60.49606776,5f3ba39206b3218cf379659d,626b377229c10585ec392f8a,626b3b7f48bfea07056a1736,,,,,,,,,,,,,,,,,,,,,,,l,0,"[""0.278"",""0.420"",""0.701"",""0.972""]","[1,0,1,1]",0,30,30,30,1,0,0,,,1,FALSE,1.2631,,,,,,,,,,,,,,,,,,,,,,,,,,,,,,
,5f3ba39206b3218cf379659d,001,2022-04-29_13h14.44.650,classification_task,2021.2.3,Win32,60.49606776,5f3ba39206b3218cf379659d,626b377229c10585ec392f8a,626b3b7f48bfea07056a1736,,,,,,,,,,,,,,,,,,,,,,,a,1,"[""0.237"",""0.319"",""0.872"",""0.909""]","[1,0,1,1]",0,31,31,31,1,0,1,,,1,FALSE,0.7738,,,,,,,,,,,,,,,,,,,,,,,,,,,,,,
,5f3ba39206b3218cf379659d,001,2022-04-29_13h14.44.650,classification_task,2021.2.3,Win32,60.49606776,5f3ba39206b3218cf379659d,626b377229c10585ec392f8a,626b3b7f48bfea07056a1736,,,,,,,,,,,,,,,,,,,,,,,a,0,"[""0.030"",""0.354"",""0.650"",""0.823""]","[0,1,1,1]",0,32,32,32,1,1,0,,,1,FALSE,1.2661,,,,,,,,,,,,,,,,,,,,,,,,,,,,,,
,5f3ba39206b3218cf379659d,001,2022-04-29_13h14.44.650,classification_task,2021.2.3,Win32,60.49606776,5f3ba39206b3218cf379659d,626b377229c10585ec392f8a,626b3b7f48bfea07056a1736,,,,,,,,,,,,,,,,,,,,,,,l,1,"[""0.076"",""0.354"",""0.319"",""0.823""]","[1,1,0,1]",0,33,33,33,1,1,0,,,1,FALSE,3.1656,,,,,,,,,,,,,,,,,,,,,,,,,,,,,,
,5f3ba39206b3218cf379659d,001,2022-04-29_13h14.44.650,classification_task,2021.2.3,Win32,60.49606776,5f3ba39206b3218cf379659d,626b377229c10585ec392f8a,626b3b7f48bfea07056a1736,,,,,,,,,,,,,,,,,,,,,,,a,1,"[""0.237"",""0.463"",""0.188"",""0.909""]","[1,1,0,1]",0,34,34,34,1,0,1,,,1,FALSE,0.9197,,,,,,,,,,,,,,,,,,,,,,,,,,,,,,
,5f3ba39206b3218cf379659d,001,2022-04-29_13h14.44.650,classification_task,2021.2.3,Win32,60.49606776,5f3ba39206b3218cf379659d,626b377229c10585ec392f8a,626b3b7f48bfea07056a1736,,,,,,,,,,,,,,,,,,,,,,,a,1,"[""0.237"",""0.463"",""0.872"",""0.419""]","[1,1,1,0]",0,35,35,35,1,0,1,,,1,FALSE,0.6928,,,,,,,,,,,,,,,,,,,,,,,,,,,,,,
,5f3ba39206b3218cf379659d,001,2022-04-29_13h14.44.650,classification_task,2021.2.3,Win32,60.49606776,5f3ba39206b3218cf379659d,626b377229c10585ec392f8a,626b3b7f48bfea07056a1736,,,,,,,,,,,,,,,,,,,,,,,a,1,"[""0.237"",""0.424"",""0.872"",""0.909""]","[1,0,1,1]",0,36,36,36,1,0,1,,,1,FALSE,0.6008,,,,,,,,,,,,,,,,,,,,,,,,,,,,,,
,5f3ba39206b3218cf379659d,001,2022-04-29_13h14.44.650,classification_task,2021.2.3,Win32,60.49606776,5f3ba39206b3218cf379659d,626b377229c10585ec392f8a,626b3b7f48bfea07056a1736,,,,,,,,,,,,,,,,,,,,,,,l,1,"[""0.076"",""0.194"",""0.650"",""0.823""]","[1,0,1,1]",0,37,37,37,1,1,0,,,1,FALSE,1.124,,,,,,,,,,,,,,,,,,,,,,,,,,,,,,
,5f3ba39206b3218cf379659d,001,2022-04-29_13h14.44.650,classification_task,2021.2.3,Win32,60.49606776,5f3ba39206b3218cf379659d,626b377229c10585ec392f8a,626b3b7f48bfea07056a1736,,,,,,,,,,,,,,,,,,,,,,,l,1,"[""0.111"",""0.152"",""0.585"",""0.028""]","[1,1,1,0]",0,38,38,38,1,1,1,,,1,FALSE,1.4716,,,,,,,,,,,,,,,,,,,,,,,,,,,,,,
,5f3ba39206b3218cf379659d,001,2022-04-29_13h14.44.650,classification_task,2021.2.3,Win32,60.49606776,5f3ba39206b3218cf379659d,626b377229c10585ec392f8a,626b3b7f48bfea07056a1736,,,,,,,,,,,,,,,,,,,,,,,a,1,"[""0.278"",""0.529"",""0.701"",""0.419""]","[1,1,1,0]",0,39,39,39,1,0,0,,,1,FALSE,1.4045,,,,,,,,,,,,,,,,,,,,,,,,,,,,,,
,5f3ba39206b3218cf379659d,001,2022-04-29_13h14.44.650,classification_task,2021.2.3,Win32,60.49606776,5f3ba39206b3218cf379659d,626b377229c10585ec392f8a,626b3b7f48bfea07056a1736,,,,,,,,,,,,,,,,,,,,,,,l,1,"[""0.424"",""0.152"",""0.585"",""0.766""]","[0,1,1,1]",0,40,40,40,1,1,1,,,1,FALSE,0.9234,,,,,,,,,,,,,,,,,,,,,,,,,,,,,,
,5f3ba39206b3218cf379659d,001,2022-04-29_13h14.44.650,classification_task,2021.2.3,Win32,60.49606776,5f3ba39206b3218cf379659d,626b377229c10585ec392f8a,626b3b7f48bfea07056a1736,,,,,,,,,,,,,,,,,,,,,,,l,0,"[""0.278"",""0.396"",""0.701"",""0.972""]","[1,0,1,1]",0,41,41,41,1,0,0,,,1,FALSE,1.0244,,,,,,,,,,,,,,,,,,,,,,,,,,,,,,
,5f3ba39206b3218cf379659d,001,2022-04-29_13h14.44.650,classification_task,2021.2.3,Win32,60.49606776,5f3ba39206b3218cf379659d,626b377229c10585ec392f8a,626b3b7f48bfea07056a1736,,,,,,,,,,,,,,,,,,,,,,,l,1,"[""0.111"",""0.312"",""0.585"",""0.766""]","[1,0,1,1]",0,42,42,42,1,1,1,,,1,FALSE,1.0076,,,,,,,,,,,,,,,,,,,,,,,,,,,,,,
,5f3ba39206b3218cf379659d,001,2022-04-29_13h14.44.650,classification_task,2021.2.3,Win32,60.49606776,5f3ba39206b3218cf379659d,626b377229c10585ec392f8a,626b3b7f48bfea07056a1736,,,,,,,,,,,,,,,,,,,,,,,l,0,"[""0.414"",""0.529"",""0.701"",""0.972""]","[0,1,1,1]",0,43,43,43,1,0,0,,,1,FALSE,0.8066,,,,,,,,,,,,,,,,,,,,,,,,,,,,,,
,5f3ba39206b3218cf379659d,001,2022-04-29_13h14.44.650,classification_task,2021.2.3,Win32,60.49606776,5f3ba39206b3218cf379659d,626b377229c10585ec392f8a,626b3b7f48bfea07056a1736,,,,,,,,,,,,,,,,,,,,,,,a,1,"[""0.428"",""0.463"",""0.872"",""0.909""]","[0,1,1,1]",0,44,44,44,1,0,1,,,1,FALSE,1.465,,,,,,,,,,,,,,,,,,,,,,,,,,,,,,
,5f3ba39206b3218cf379659d,001,2022-04-29_13h14.44.650,classification_task,2021.2.3,Win32,60.49606776,5f3ba39206b3218cf379659d,626b377229c10585ec392f8a,626b3b7f48bfea07056a1736,,,,,,,,,,,,,,,,,,,,,,,a,0,"[""0.076"",""0.354"",""0.650"",""0.194""]","[1,1,1,0]",0,45,45,45,1,1,0,,,1,FALSE,1.0325,,,,,,,,,,,,,,,,,,,,,,,,,,,,,,
,5f3ba39206b3218cf379659d,001,2022-04-29_13h14.44.650,classification_task,2021.2.3,Win32,60.49606776,5f3ba39206b3218cf379659d,626b377229c10585ec392f8a,626b3b7f48bfea07056a1736,,,,,,,,,,,,,,,,,,,,,,,l,1,"[""0.111"",""0.152"",""0.030"",""0.766""]","[1,1,0,1]",0,46,46,46,1,1,1,,,1,FALSE,1.0661,,,,,,,,,,,,,,,,,,,,,,,,,,,,,,
,5f3ba39206b3218cf379659d,001,2022-04-29_13h14.44.650,classification_task,2021.2.3,Win32,60.49606776,5f3ba39206b3218cf379659d,626b377229c10585ec392f8a,626b3b7f48bfea07056a1736,,,,,,,,,,,,,,,,,,,,,,,l,0,"[""0.278"",""0.529"",""0.419"",""0.972""]","[1,1,0,1]",0,47,47,47,1,0,0,,,1,FALSE,1.4779,,,,,,,,,,,,,,,,,,,,,,,,,,,,,,
,5f3ba39206b3218cf379659d,001,2022-04-29_13h14.44.650,classification_task,2021.2.3,Win32,60.49606776,5f3ba39206b3218cf379659d,626b377229c10585ec392f8a,626b3b7f48bfea07056a1736,,,,,,,,,,,,,,,,,,,,,,,l,1,"[""0.111"",""0.152"",""0.585"",""0.428""]","[1,1,1,0]",0,48,48,48,1,1,1,,,1,FALSE,1.1088,,,,,,,,,,,,,,,,,,,,,,,,,,,,,,
,5f3ba39206b3218cf379659d,001,2022-04-29_13h14.44.650,classification_task,2021.2.3,Win32,60.49606776,5f3ba39206b3218cf379659d,626b377229c10585ec392f8a,626b3b7f48bfea07056a1736,,,,,,,,,,,,,,,,,,,,,,,a,1,"[""0.194"",""0.463"",""0.872"",""0.909""]","[0,1,1,1]",0,49,49,49,1,0,1,,,1,FALSE,0.5098,,,,,,,,,,,,,,,,,,,,,,,,,,,,,,
,5f3ba39206b3218cf379659d,001,2022-04-29_13h14.44.650,classification_task,2021.2.3,Win32,60.49606776,5f3ba39206b3218cf379659d,626b377229c10585ec392f8a,626b3b7f48bfea07056a1736,,,,,,,,,,,,,,,,,,,,,,,l,0,"[""0.278"",""0.529"",""0.028"",""0.972""]","[1,1,0,1]",0,50,50,50,1,0,0,,,1,FALSE,0.9728,,,,,,,,,,,,,,,,,,,,,,,,,,,,,,
,5f3ba39206b3218cf379659d,001,2022-04-29_13h14.44.650,classification_task,2021.2.3,Win32,60.49606776,5f3ba39206b3218cf379659d,626b377229c10585ec392f8a,626b3b7f48bfea07056a1736,,,,,,,,,,,,,,,,,,,,,,,l,1,"[""0.188"",""0.152"",""0.585"",""0.766""]","[0,1,1,1]",0,51,51,51,1,1,1,,,1,FALSE,1.0216,,,,,,,,,,,,,,,,,,,,,,,,,,,,,,
,5f3ba39206b3218cf379659d,001,2022-04-29_13h14.44.650,classification_task,2021.2.3,Win32,60.49606776,5f3ba39206b3218cf379659d,626b377229c10585ec392f8a,626b3b7f48bfea07056a1736,,,,,,,,,,,,,,,,,,,,,,,a,1,"[""0.278"",""0.529"",""0.701"",""0.414""]","[1,1,1,0]",0,52,52,52,1,0,0,,,1,FALSE,0.706,,,,,,,,,,,,,,,,,,,,,,,,,,,,,,
,5f3ba39206b3218cf379659d,001,2022-04-29_13h14.44.650,classification_task,2021.2.3,Win32,60.49606776,5f3ba39206b3218cf379659d,626b377229c10585ec392f8a,626b3b7f48bfea07056a1736,,,,,,,,,,,,,,,,,,,,,,,a,0,"[""0.076"",""0.354"",""0.650"",""0.312""]","[1,1,1,0]",0,53,53,53,1,1,0,,,1,FALSE,0.6753,,,,,,,,,,,,,,,,,,,,,,,,,,,,,,
,5f3ba39206b3218cf379659d,001,2022-04-29_13h14.44.650,classification_task,2021.2.3,Win32,60.49606776,5f3ba39206b3218cf379659d,626b377229c10585ec392f8a,626b3b7f48bfea07056a1736,,,,,,,,,,,,,,,,,,,,,,,a,1,"[""0.237"",""0.463"",""0.872"",""0.030""]","[1,1,1,0]",0,54,54,54,1,0,1,,,1,FALSE,0.9654,,,,,,,,,,,,,,,,,,,,,,,,,,,,,,
,5f3ba39206b3218cf379659d,001,2022-04-29_13h14.44.650,classification_task,2021.2.3,Win32,60.49606776,5f3ba39206b3218cf379659d,626b377229c10585ec392f8a,626b3b7f48bfea07056a1736,,,,,,,,,,,,,,,,,,,,,,,a,1,"[""0.237"",""0.194"",""0.872"",""0.909""]","[1,0,1,1]",0,55,55,55,1,0,1,,,1,FALSE,0.7904,,,,,,,,,,,,,,,,,,,,,,,,,,,,,,
,5f3ba39206b3218cf379659d,001,2022-04-29_13h14.44.650,classification_task,2021.2.3,Win32,60.49606776,5f3ba39206b3218cf379659d,626b377229c10585ec392f8a,626b3b7f48bfea07056a1736,,,,,,,,,,,,,,,,,,,,,,,l,1,"[""0.076"",""0.414"",""0.650"",""0.823""]","[1,0,1,1]",0,56,56,56,1,1,0,,,1,FALSE,1.1167,,,,,,,,,,,,,,,,,,,,,,,,,,,,,,
,5f3ba39206b3218cf379659d,001,2022-04-29_13h14.44.650,classification_task,2021.2.3,Win32,60.49606776,5f3ba39206b3218cf379659d,626b377229c10585ec392f8a,626b3b7f48bfea07056a1736,,,,,,,,,,,,,,,,,,,,,,,l,1,"[""0.111"",""0.312"",""0.585"",""0.766""]","[1,0,1,1]",0,57,57,57,1,1,1,,,1,FALSE,0.896,,,,,,,,,,,,,,,,,,,,,,,,,,,,,,
,5f3ba39206b3218cf379659d,001,2022-04-29_13h14.44.650,classification_task,2021.2.3,Win32,60.49606776,5f3ba39206b3218cf379659d,626b377229c10585ec392f8a,626b3b7f48bfea07056a1736,,,,,,,,,,,,,,,,,,,,,,,l,1,"[""0.076"",""0.354"",""0.030"",""0.823""]","[1,1,0,1]",0,58,58,58,1,1,0,,,1,FALSE,1.0302,,,,,,,,,,,,,,,,,,,,,,,,,,,,,,
,5f3ba39206b3218cf379659d,001,2022-04-29_13h14.44.650,classification_task,2021.2.3,Win32,60.49606776,5f3ba39206b3218cf379659d,626b377229c10585ec392f8a,626b3b7f48bfea07056a1736,,,,,,,,,,,,,,,,,,,,,,,a,1,"[""0.237"",""0.463"",""0.420"",""0.909""]","[1,1,0,1]",0,59,59,59,1,0,1,,,1,FALSE,0.8302,,,,,,,,,,,,,,,,,,,,,,,,,,,,,,
,5f3ba39206b3218cf379659d,001,2022-04-29_13h14.44.650,classification_task,2021.2.3,Win32,60.49606776,5f3ba39206b3218cf379659d,626b377229c10585ec392f8a,626b3b7f48bfea07056a1736,,,,,,,,,,,,,,,,,,,,,,,l,0,"[""0.194"",""0.529"",""0.701"",""0.972""]","[0,1,1,1]",0,60,60,60,1,0,0,,,1,FALSE,0.8205,,,,,,,,,,,,,,,,,,,,,,,,,,,,,,
,5f3ba39206b3218cf379659d,001,2022-04-29_13h14.44.650,classification_task,2021.2.3,Win32,60.49606776,5f3ba39206b3218cf379659d,626b377229c10585ec392f8a,626b3b7f48bfea07056a1736,,,,,,,,,,,,,,,,,,,,,,,l,0,"[""0.278"",""0.419"",""0.701"",""0.972""]","[1,0,1,1]",0,61,61,61,1,0,0,,,1,FALSE,0.8069,,,,,,,,,,,,,,,,,,,,,,,,,,,,,,
,5f3ba39206b3218cf379659d,001,2022-04-29_13h14.44.650,classification_task,2021.2.3,Win32,60.49606776,5f3ba39206b3218cf379659d,626b377229c10585ec392f8a,626b3b7f48bfea07056a1736,,,,,,,,,,,,,,,,,,,,,,,a,0,"[""0.194"",""0.354"",""0.650"",""0.823""]","[0,1,1,1]",0,62,62,62,1,1,0,,,1,FALSE,1.0731,,,,,,,,,,,,,,,,,,,,,,,,,,,,,,
,5f3ba39206b3218cf379659d,001,2022-04-29_13h14.44.650,classification_task,2021.2.3,Win32,60.49606776,5f3ba39206b3218cf379659d,626b377229c10585ec392f8a,626b3b7f48bfea07056a1736,,,,,,,,,,,,,,,,,,,,,,,l,1,"[""0.111"",""0.152"",""0.396"",""0.766""]","[1,1,0,1]",0,63,63,63,1,1,1,,,1,FALSE,0.8056,,,,,,,,,,,,,,,,,,,,,,,,,,,,,,
,5f3ba39206b3218cf379659d,001,2022-04-29_13h14.44.650,classification_task,2021.2.3,Win32,60.49606776,5f3ba39206b3218cf379659d,626b377229c10585ec392f8a,626b3b7f48bfea07056a1736,,,,,,,,,,,,,,,,,,,,,,,,,,,,,,,,,,,,,,,0, ,,0,6.9106408,208.8007,0,1,1,1,1,2,2,,,,,,,,,,,,,,,,,
,5f3ba39206b3218cf379659d,001,2022-04-29_13h14.44.650,classification_task,2021.2.3,Win32,60.49606776,5f3ba39206b3218cf379659d,626b377229c10585ec392f8a,626b3b7f48bfea07056a1736,,,,,,,,,,,,,,,,,,,,,,,,,,,,,,,,,,,,,,,1,  ,,0,8.551833003,213.2329,0,1,1,1,1,2,2,,,,,,,,,,,,,,,,,
,5f3ba39206b3218cf379659d,001,2022-04-29_13h14.44.650,classification_task,2021.2.3,Win32,60.49606776,5f3ba39206b3218cf379659d,626b377229c10585ec392f8a,626b3b7f48bfea07056a1736,,,,,,,,,,,,,,,,,,,,,,,,,,,,,,,,,,,,,,,2,  ,,0,7.792475015,242.6791,0,1,1,1,1,2,2,,,,,,,,,,,,,,,,,
,5f3ba39206b3218cf379659d,001,2022-04-29_13h14.44.650,classification_task,2021.2.3,Win32,60.49606776,5f3ba39206b3218cf379659d,626b377229c10585ec392f8a,626b3b7f48bfea07056a1736,,,,,,,,,,,,,,,,,,,,,,,,,,,,,,,,,,,,,,,,,,,,,0,1,1,1,1,,2,,,,,,,,,,,,,,,,,
,5f3ba39206b3218cf379659d,001,2022-04-29_13h14.44.650,classification_task,2021.2.3,Win32,60.49606776,5f3ba39206b3218cf379659d,626b377229c10585ec392f8a,626b3b7f48bfea07056a1736,,,,,,,,,,,,,,,,,,,,,space,35.5726,l,1,"[""0.076"",""0.354"",""0.030"",""0.823""]","[1,1,0,1]",0,0,0,0,1,1,0,,,1,FALSE,7.8452,,,,,,,,,,,,,,,,,,,,,,,,,,,,,,
,5f3ba39206b3218cf379659d,001,2022-04-29_13h14.44.650,classification_task,2021.2.3,Win32,60.49606776,5f3ba39206b3218cf379659d,626b377229c10585ec392f8a,626b3b7f48bfea07056a1736,,,,,,,,,,,,,,,,,,,,,,,a,1,"[""0.278"",""0.529"",""0.188"",""0.972""]","[1,1,0,1]",0,1,1,1,1,0,0,,,1,FALSE,4.5346,,,,,,,,,,,,,,,,,,,,,,,,,,,,,,
,5f3ba39206b3218cf379659d,001,2022-04-29_13h14.44.650,classification_task,2021.2.3,Win32,60.49606776,5f3ba39206b3218cf379659d,626b377229c10585ec392f8a,626b3b7f48bfea07056a1736,,,,,,,,,,,,,,,,,,,,,,,l,1,"[""0.111"",""0.152"",""0.392"",""0.766""]","[1,1,0,1]",0,2,2,2,1,1,1,,,1,FALSE,2.8958,,,,,,,,,,,,,,,,,,,,,,,,,,,,,,
,5f3ba39206b3218cf379659d,001,2022-04-29_13h14.44.650,classification_task,2021.2.3,Win32,60.49606776,5f3ba39206b3218cf379659d,626b377229c10585ec392f8a,626b3b7f48bfea07056a1736,,,,,,,,,,,,,,,,,,,,,,,l,0,"[""0.419"",""0.529"",""0.701"",""0.972""]","[0,1,1,1]",0,3,3,3,1,0,0,,,1,FALSE,2.1949,,,,,,,,,,,,,,,,,,,,,,,,,,,,,,
,5f3ba39206b3218cf379659d,001,2022-04-29_13h14.44.650,classification_task,2021.2.3,Win32,60.49606776,5f3ba39206b3218cf379659d,626b377229c10585ec392f8a,626b3b7f48bfea07056a1736,,,,,,,,,,,,,,,,,,,,,,,l,1,"[""0.396"",""0.152"",""0.585"",""0.766""]","[0,1,1,1]",0,4,4,4,1,1,1,,,1,FALSE,1.8796,,,,,,,,,,,,,,,,,,,,,,,,,,,,,,
,5f3ba39206b3218cf379659d,001,2022-04-29_13h14.44.650,classification_task,2021.2.3,Win32,60.49606776,5f3ba39206b3218cf379659d,626b377229c10585ec392f8a,626b3b7f48bfea07056a1736,,,,,,,,,,,,,,,,,,,,,,,a,1,"[""0.237"",""0.463"",""0.418"",""0.909""]","[1,1,0,1]",0,5,5,5,1,0,1,,,1,FALSE,1.3162,,,,,,,,,,,,,,,,,,,,,,,,,,,,,,
,5f3ba39206b3218cf379659d,001,2022-04-29_13h14.44.650,classification_task,2021.2.3,Win32,60.49606776,5f3ba39206b3218cf379659d,626b377229c10585ec392f8a,626b3b7f48bfea07056a1736,,,,,,,,,,,,,,,,,,,,,,,l,1,"[""0.111"",""0.152"",""0.585"",""0.418""]","[1,1,1,0]",0,6,6,6,1,1,1,,,1,FALSE,1.0617,,,,,,,,,,,,,,,,,,,,,,,,,,,,,,
,5f3ba39206b3218cf379659d,001,2022-04-29_13h14.44.650,classification_task,2021.2.3,Win32,60.49606776,5f3ba39206b3218cf379659d,626b377229c10585ec392f8a,626b3b7f48bfea07056a1736,,,,,,,,,,,,,,,,,,,,,,,a,1,"[""0.278"",""0.529"",""0.701"",""0.428""]","[1,1,1,0]",0,7,7,7,1,0,0,,,1,FALSE,1.5788,,,,,,,,,,,,,,,,,,,,,,,,,,,,,,
,5f3ba39206b3218cf379659d,001,2022-04-29_13h14.44.650,classification_task,2021.2.3,Win32,60.49606776,5f3ba39206b3218cf379659d,626b377229c10585ec392f8a,626b3b7f48bfea07056a1736,,,,,,,,,,,,,,,,,,,,,,,a,1,"[""0.237"",""0.312"",""0.872"",""0.909""]","[1,0,1,1]",0,8,8,8,1,0,1,,,1,FALSE,1.4096,,,,,,,,,,,,,,,,,,,,,,,,,,,,,,
,5f3ba39206b3218cf379659d,001,2022-04-29_13h14.44.650,classification_task,2021.2.3,Win32,60.49606776,5f3ba39206b3218cf379659d,626b377229c10585ec392f8a,626b3b7f48bfea07056a1736,,,,,,,,,,,,,,,,,,,,,,,a,1,"[""0.237"",""0.463"",""0.872"",""0.194""]","[1,1,1,0]",0,9,9,9,1,0,1,,,1,FALSE,1.6294,,,,,,,,,,,,,,,,,,,,,,,,,,,,,,
,5f3ba39206b3218cf379659d,001,2022-04-29_13h14.44.650,classification_task,2021.2.3,Win32,60.49606776,5f3ba39206b3218cf379659d,626b377229c10585ec392f8a,626b3b7f48bfea07056a1736,,,,,,,,,,,,,,,,,,,,,,,a,0,"[""0.076"",""0.354"",""0.650"",""0.392""]","[1,1,1,0]",0,10,10,10,1,1,0,,,1,FALSE,2.8131,,,,,,,,,,,,,,,,,,,,,,,,,,,,,,
,5f3ba39206b3218cf379659d,001,2022-04-29_13h14.44.650,classification_task,2021.2.3,Win32,60.49606776,5f3ba39206b3218cf379659d,626b377229c10585ec392f8a,626b3b7f48bfea07056a1736,,,,,,,,,,,,,,,,,,,,,,,l,0,"[""0.030"",""0.463"",""0.872"",""0.909""]","[0,1,1,1]",0,11,11,11,1,0,1,,,1,FALSE,2.2799,,,,,,,,,,,,,,,,,,,,,,,,,,,,,,
,5f3ba39206b3218cf379659d,001,2022-04-29_13h14.44.650,classification_task,2021.2.3,Win32,60.49606776,5f3ba39206b3218cf379659d,626b377229c10585ec392f8a,626b3b7f48bfea07056a1736,,,,,,,,,,,,,,,,,,,,,,,a,0,"[""0.076"",""0.418"",""0.650"",""0.823""]","[1,0,1,1]",0,12,12,12,1,1,0,,,1,FALSE,2.7479,,,,,,,,,,,,,,,,,,,,,,,,,,,,,,
,5f3ba39206b3218cf379659d,001,2022-04-29_13h14.44.650,classification_task,2021.2.3,Win32,60.49606776,5f3ba39206b3218cf379659d,626b377229c10585ec392f8a,626b3b7f48bfea07056a1736,,,,,,,,,,,,,,,,,,,,,,,l,1,"[""0.028"",""0.354"",""0.650"",""0.823""]","[0,1,1,1]",0,13,13,13,1,1,0,,,1,FALSE,1.909,,,,,,,,,,,,,,,,,,,,,,,,,,,,,,
,5f3ba39206b3218cf379659d,001,2022-04-29_13h14.44.650,classification_task,2021.2.3,Win32,60.49606776,5f3ba39206b3218cf379659d,626b377229c10585ec392f8a,626b3b7f48bfea07056a1736,,,,,,,,,,,,,,,,,,,,,,,a,1,"[""0.278"",""0.418"",""0.701"",""0.972""]","[1,0,1,1]",0,14,14,14,1,0,0,,,1,FALSE,0.9791,,,,,,,,,,,,,,,,,,,,,,,,,,,,,,
,5f3ba39206b3218cf379659d,001,2022-04-29_13h14.44.650,classification_task,2021.2.3,Win32,60.49606776,5f3ba39206b3218cf379659d,626b377229c10585ec392f8a,626b3b7f48bfea07056a1736,,,,,,,,,,,,,,,,,,,,,,,l,1,"[""0.111"",""0.396"",""0.585"",""0.766""]","[1,0,1,1]",0,15,15,15,1,1,1,,,1,FALSE,0.5749,,,,,,,,,,,,,,,,,,,,,,,,,,,,,,
,5f3ba39206b3218cf379659d,001,2022-04-29_13h14.44.650,classification_task,2021.2.3,Win32,60.49606776,5f3ba39206b3218cf379659d,626b377229c10585ec392f8a,626b3b7f48bfea07056a1736,,,,,,,,,,,,,,,,,,,,,,,l,0,"[""0.420"",""0.529"",""0.701"",""0.972""]","[0,1,1,1]",0,16,16,16,1,0,0,,,1,FALSE,1.2934,,,,,,,,,,,,,,,,,,,,,,,,,,,,,,
,5f3ba39206b3218cf379659d,001,2022-04-29_13h14.44.650,classification_task,2021.2.3,Win32,60.49606776,5f3ba39206b3218cf379659d,626b377229c10585ec392f8a,626b3b7f48bfea07056a1736,,,,,,,,,,,,,,,,,,,,,,,a,1,"[""0.237"",""0.420"",""0.872"",""0.909""]","[1,0,1,1]",0,17,17,17,1,0,1,,,1,FALSE,1.3468,,,,,,,,,,,,,,,,,,,,,,,,,,,,,,
,5f3ba39206b3218cf379659d,001,2022-04-29_13h14.44.650,classification_task,2021.2.3,Win32,60.49606776,5f3ba39206b3218cf379659d,626b377229c10585ec392f8a,626b3b7f48bfea07056a1736,,,,,,,,,,,,,,,,,,,,,,,a,1,"[""0.237"",""0.463"",""0.872"",""0.428""]","[1,1,1,0]",0,18,18,18,1,0,1,,,1,FALSE,0.847,,,,,,,,,,,,,,,,,,,,,,,,,,,,,,
,5f3ba39206b3218cf379659d,001,2022-04-29_13h14.44.650,classification_task,2021.2.3,Win32,60.49606776,5f3ba39206b3218cf379659d,626b377229c10585ec392f8a,626b3b7f48bfea07056a1736,,,,,,,,,,,,,,,,,,,,,,,a,1,"[""0.278"",""0.529"",""0.701"",""0.030""]","[1,1,1,0]",0,19,19,19,1,0,0,,,1,FALSE,2.1384,,,,,,,,,,,,,,,,,,,,,,,,,,,,,,
,5f3ba39206b3218cf379659d,001,2022-04-29_13h14.44.650,classification_task,2021.2.3,Win32,60.49606776,5f3ba39206b3218cf379659d,626b377229c10585ec392f8a,626b3b7f48bfea07056a1736,,,,,,,,,,,,,,,,,,,,,,,l,1,"[""0.076"",""0.392"",""0.650"",""0.823""]","[1,0,1,1]",0,20,20,20,1,1,0,,,1,FALSE,1.28,,,,,,,,,,,,,,,,,,,,,,,,,,,,,,
,5f3ba39206b3218cf379659d,001,2022-04-29_13h14.44.650,classification_task,2021.2.3,Win32,60.49606776,5f3ba39206b3218cf379659d,626b377229c10585ec392f8a,626b3b7f48bfea07056a1736,,,,,,,,,,,,,,,,,,,,,,,l,0,"[""0.418"",""0.463"",""0.872"",""0.909""]","[0,1,1,1]",0,21,21,21,1,0,1,,,1,FALSE,4.821,,,,,,,,,,,,,,,,,,,,,,,,,,,,,,
,5f3ba39206b3218cf379659d,001,2022-04-29_13h14.44.650,classification_task,2021.2.3,Win32,60.49606776,5f3ba39206b3218cf379659d,626b377229c10585ec392f8a,626b3b7f48bfea07056a1736,,,,,,,,,,,,,,,,,,,,,,,l,1,"[""0.111"",""0.152"",""0.188"",""0.766""]","[1,1,0,1]",0,22,22,22,1,1,1,,,1,FALSE,1.0621,,,,,,,,,,,,,,,,,,,,,,,,,,,,,,
,5f3ba39206b3218cf379659d,001,2022-04-29_13h14.44.650,classification_task,2021.2.3,Win32,60.49606776,5f3ba39206b3218cf379659d,626b377229c10585ec392f8a,626b3b7f48bfea07056a1736,,,,,,,,,,,,,,,,,,,,,,,a,1,"[""0.278"",""0.428"",""0.701"",""0.972""]","[1,0,1,1]",0,23,23,23,1,0,0,,,1,FALSE,1.1743,,,,,,,,,,,,,,,,,,,,,,,,,,,,,,
,5f3ba39206b3218cf379659d,001,2022-04-29_13h14.44.650,classification_task,2021.2.3,Win32,60.49606776,5f3ba39206b3218cf379659d,626b377229c10585ec392f8a,626b3b7f48bfea07056a1736,,,,,,,,,,,,,,,,,,,,,,,l,1,"[""0.111"",""0.419"",""0.585"",""0.766""]","[1,0,1,1]",0,24,24,24,1,1,1,,,1,FALSE,0.7601,,,,,,,,,,,,,,,,,,,,,,,,,,,,,,
,5f3ba39206b3218cf379659d,001,2022-04-29_13h14.44.650,classification_task,2021.2.3,Win32,60.49606776,5f3ba39206b3218cf379659d,626b377229c10585ec392f8a,626b3b7f48bfea07056a1736,,,,,,,,,,,,,,,,,,,,,,,a,1,"[""0.278"",""0.529"",""0.414"",""0.972""]","[1,1,0,1]",0,25,25,25,1,0,0,,,1,FALSE,0.8772,,,,,,,,,,,,,,,,,,,,,,,,,,,,,,
,5f3ba39206b3218cf379659d,001,2022-04-29_13h14.44.650,classification_task,2021.2.3,Win32,60.49606776,5f3ba39206b3218cf379659d,626b377229c10585ec392f8a,626b3b7f48bfea07056a1736,,,,,,,,,,,,,,,,,,,,,,,l,1,"[""0.111"",""0.152"",""0.585"",""0.414""]","[1,1,1,0]",0,26,26,26,1,1,1,,,1,FALSE,0.765,,,,,,,,,,,,,,,,,,,,,,,,,,,,,,
,5f3ba39206b3218cf379659d,001,2022-04-29_13h14.44.650,classification_task,2021.2.3,Win32,60.49606776,5f3ba39206b3218cf379659d,626b377229c10585ec392f8a,626b3b7f48bfea07056a1736,,,,,,,,,,,,,,,,,,,,,,,l,1,"[""0.415"",""0.354"",""0.650"",""0.823""]","[0,1,1,1]",0,27,27,27,1,1,0,,,1,FALSE,1.0294,,,,,,,,,,,,,,,,,,,,,,,,,,,,,,
,5f3ba39206b3218cf379659d,001,2022-04-29_13h14.44.650,classification_task,2021.2.3,Win32,60.49606776,5f3ba39206b3218cf379659d,626b377229c10585ec392f8a,626b3b7f48bfea07056a1736,,,,,,,,,,,,,,,,,,,,,,,l,1,"[""0.319"",""0.152"",""0.585"",""0.766""]","[0,1,1,1]",0,28,28,28,1,1,1,,,1,FALSE,1.8119,,,,,,,,,,,,,,,,,,,,,,,,,,,,,,
,5f3ba39206b3218cf379659d,001,2022-04-29_13h14.44.650,classification_task,2021.2.3,Win32,60.49606776,5f3ba39206b3218cf379659d,626b377229c10585ec392f8a,626b3b7f48bfea07056a1736,,,,,,,,,,,,,,,,,,,,,,,a,1,"[""0.237"",""0.463"",""0.188"",""0.909""]","[1,1,0,1]",0,29,29,29,1,0,1,,,1,FALSE,1.9946,,,,,,,,,,,,,,,,,,,,,,,,,,,,,,
,5f3ba39206b3218cf379659d,001,2022-04-29_13h14.44.650,classification_task,2021.2.3,Win32,60.49606776,5f3ba39206b3218cf379659d,626b377229c10585ec392f8a,626b3b7f48bfea07056a1736,,,,,,,,,,,,,,,,,,,,,,,l,1,"[""0.076"",""0.354"",""0.650"",""0.188""]","[1,1,1,0]",0,30,30,30,1,1,0,,,1,FALSE,3.5938,,,,,,,,,,,,,,,,,,,,,,,,,,,,,,
,5f3ba39206b3218cf379659d,001,2022-04-29_13h14.44.650,classification_task,2021.2.3,Win32,60.49606776,5f3ba39206b3218cf379659d,626b377229c10585ec392f8a,626b3b7f48bfea07056a1736,,,,,,,,,,,,,,,,,,,,,,,l,1,"[""0.076"",""0.354"",""0.414"",""0.823""]","[1,1,0,1]",0,31,31,31,1,1,0,,,1,FALSE,2.309,,,,,,,,,,,,,,,,,,,,,,,,,,,,,,
,5f3ba39206b3218cf379659d,001,2022-04-29_13h14.44.650,classification_task,2021.2.3,Win32,60.49606776,5f3ba39206b3218cf379659d,626b377229c10585ec392f8a,626b3b7f48bfea07056a1736,,,,,,,,,,,,,,,,,,,,,,,l,1,"[""0.111"",""0.414"",""0.585"",""0.766""]","[1,0,1,1]",0,32,32,32,1,1,1,,,1,FALSE,1.0292,,,,,,,,,,,,,,,,,,,,,,,,,,,,,,
,5f3ba39206b3218cf379659d,001,2022-04-29_13h14.44.650,classification_task,2021.2.3,Win32,60.49606776,5f3ba39206b3218cf379659d,626b377229c10585ec392f8a,626b3b7f48bfea07056a1736,,,,,,,,,,,,,,,,,,,,,,,l,0,"[""0.419"",""0.529"",""0.701"",""0.972""]","[0,1,1,1]",0,33,33,33,1,0,0,,,1,FALSE,1.2249,,,,,,,,,,,,,,,,,,,,,,,,,,,,,,
,5f3ba39206b3218cf379659d,001,2022-04-29_13h14.44.650,classification_task,2021.2.3,Win32,60.49606776,5f3ba39206b3218cf379659d,626b377229c10585ec392f8a,626b3b7f48bfea07056a1736,,,,,,,,,,,,,,,,,,,,,,,l,1,"[""0.414"",""0.152"",""0.585"",""0.766""]","[0,1,1,1]",0,34,34,34,1,1,1,,,1,FALSE,1.5713,,,,,,,,,,,,,,,,,,,,,,,,,,,,,,
,5f3ba39206b3218cf379659d,001,2022-04-29_13h14.44.650,classification_task,2021.2.3,Win32,60.49606776,5f3ba39206b3218cf379659d,626b377229c10585ec392f8a,626b3b7f48bfea07056a1736,,,,,,,,,,,,,,,,,,,,,,,a,1,"[""0.278"",""0.529"",""0.420"",""0.972""]","[1,1,0,1]",0,35,35,35,1,0,0,,,1,FALSE,1.1737,,,,,,,,,,,,,,,,,,,,,,,,,,,,,,
,5f3ba39206b3218cf379659d,001,2022-04-29_13h14.44.650,classification_task,2021.2.3,Win32,60.49606776,5f3ba39206b3218cf379659d,626b377229c10585ec392f8a,626b3b7f48bfea07056a1736,,,,,,,,,,,,,,,,,,,,,,,l,1,"[""0.111"",""0.152"",""0.585"",""0.028""]","[1,1,1,0]",0,36,36,36,1,1,1,,,1,FALSE,1.6055,,,,,,,,,,,,,,,,,,,,,,,,,,,,,,
,5f3ba39206b3218cf379659d,001,2022-04-29_13h14.44.650,classification_task,2021.2.3,Win32,60.49606776,5f3ba39206b3218cf379659d,626b377229c10585ec392f8a,626b3b7f48bfea07056a1736,,,,,,,,,,,,,,,,,,,,,,,l,1,"[""0.076"",""0.354"",""0.028"",""0.823""]","[1,1,0,1]",0,37,37,37,1,1,0,,,1,FALSE,2.1279,,,,,,,,,,,,,,,,,,,,,,,,,,,,,,
,5f3ba39206b3218cf379659d,001,2022-04-29_13h14.44.650,classification_task,2021.2.3,Win32,60.49606776,5f3ba39206b3218cf379659d,626b377229c10585ec392f8a,626b3b7f48bfea07056a1736,,,,,,,,,,,,,,,,,,,,,,,a,1,"[""0.237"",""0.463"",""0.312"",""0.909""]","[1,1,0,1]",0,38,38,38,1,0,1,,,1,FALSE,1.2403,,,,,,,,,,,,,,,,,,,,,,,,,,,,,,
,5f3ba39206b3218cf379659d,001,2022-04-29_13h14.44.650,classification_task,2021.2.3,Win32,60.49606776,5f3ba39206b3218cf379659d,626b377229c10585ec392f8a,626b3b7f48bfea07056a1736,,,,,,,,,,,,,,,,,,,,,,,a,1,"[""0.278"",""0.529"",""0.701"",""0.028""]","[1,1,1,0]",0,39,39,39,1,0,0,,,1,FALSE,0.9127,,,,,,,,,,,,,,,,,,,,,,,,,,,,,,
,5f3ba39206b3218cf379659d,001,2022-04-29_13h14.44.650,classification_task,2021.2.3,Win32,60.49606776,5f3ba39206b3218cf379659d,626b377229c10585ec392f8a,626b3b7f48bfea07056a1736,,,,,,,,,,,,,,,,,,,,,,,l,1,"[""0.188"",""0.354"",""0.650"",""0.823""]","[0,1,1,1]",0,40,40,40,1,1,0,,,1,FALSE,1.6785,,,,,,,,,,,,,,,,,,,,,,,,,,,,,,
,5f3ba39206b3218cf379659d,001,2022-04-29_13h14.44.650,classification_task,2021.2.3,Win32,60.49606776,5f3ba39206b3218cf379659d,626b377229c10585ec392f8a,626b3b7f48bfea07056a1736,,,,,,,,,,,,,,,,,,,,,,,a,1,"[""0.278"",""0.420"",""0.701"",""0.972""]","[1,0,1,1]",0,41,41,41,1,0,0,,,1,FALSE,1.3618,,,,,,,,,,,,,,,,,,,,,,,,,,,,,,
,5f3ba39206b3218cf379659d,001,2022-04-29_13h14.44.650,classification_task,2021.2.3,Win32,60.49606776,5f3ba39206b3218cf379659d,626b377229c10585ec392f8a,626b3b7f48bfea07056a1736,,,,,,,,,,,,,,,,,,,,,,,l,0,"[""0.424"",""0.463"",""0.872"",""0.909""]","[0,1,1,1]",0,42,42,42,1,0,1,,,1,FALSE,2.8486,,,,,,,,,,,,,,,,,,,,,,,,,,,,,,
,5f3ba39206b3218cf379659d,001,2022-04-29_13h14.44.650,classification_task,2021.2.3,Win32,60.49606776,5f3ba39206b3218cf379659d,626b377229c10585ec392f8a,626b3b7f48bfea07056a1736,,,,,,,,,,,,,,,,,,,,,,,l,1,"[""0.111"",""0.152"",""0.319"",""0.766""]","[1,1,0,1]",0,43,43,43,1,1,1,,,1,FALSE,0.9573,,,,,,,,,,,,,,,,,,,,,,,,,,,,,,
,5f3ba39206b3218cf379659d,001,2022-04-29_13h14.44.650,classification_task,2021.2.3,Win32,60.49606776,5f3ba39206b3218cf379659d,626b377229c10585ec392f8a,626b3b7f48bfea07056a1736,,,,,,,,,,,,,,,,,,,,,,,a,1,"[""0.237"",""0.319"",""0.872"",""0.909""]","[1,0,1,1]",0,44,44,44,1,0,1,,,1,FALSE,1.0314,,,,,,,,,,,,,,,,,,,,,,,,,,,,,,
,5f3ba39206b3218cf379659d,001,2022-04-29_13h14.44.650,classification_task,2021.2.3,Win32,60.49606776,5f3ba39206b3218cf379659d,626b377229c10585ec392f8a,626b3b7f48bfea07056a1736,,,,,,,,,,,,,,,,,,,,,,,l,1,"[""0.076"",""0.354"",""0.650"",""0.188""]","[1,1,1,0]",0,45,45,45,1,1,0,,,1,FALSE,1.713,,,,,,,,,,,,,,,,,,,,,,,,,,,,,,
,5f3ba39206b3218cf379659d,001,2022-04-29_13h14.44.650,classification_task,2021.2.3,Win32,60.49606776,5f3ba39206b3218cf379659d,626b377229c10585ec392f8a,626b3b7f48bfea07056a1736,,,,,,,,,,,,,,,,,,,,,,,a,1,"[""0.237"",""0.463"",""0.872"",""0.188""]","[1,1,1,0]",0,46,46,46,1,0,1,,,1,FALSE,1.6724,,,,,,,,,,,,,,,,,,,,,,,,,,,,,,
,5f3ba39206b3218cf379659d,001,2022-04-29_13h14.44.650,classification_task,2021.2.3,Win32,60.49606776,5f3ba39206b3218cf379659d,626b377229c10585ec392f8a,626b3b7f48bfea07056a1736,,,,,,,,,,,,,,,,,,,,,,,l,1,"[""0.076"",""0.415"",""0.650"",""0.823""]","[1,0,1,1]",0,47,47,47,1,1,0,,,1,FALSE,1.3563,,,,,,,,,,,,,,,,,,,,,,,,,,,,,,
,5f3ba39206b3218cf379659d,001,2022-04-29_13h14.44.650,classification_task,2021.2.3,Win32,60.49606776,5f3ba39206b3218cf379659d,626b377229c10585ec392f8a,626b3b7f48bfea07056a1736,,,,,,,,,,,,,,,,,,,,,,,a,1,"[""0.237"",""0.188"",""0.872"",""0.909""]","[1,0,1,1]",0,48,48,48,1,0,1,,,1,FALSE,1.2623,,,,,,,,,,,,,,,,,,,,,,,,,,,,,,
,5f3ba39206b3218cf379659d,001,2022-04-29_13h14.44.650,classification_task,2021.2.3,Win32,60.49606776,5f3ba39206b3218cf379659d,626b377229c10585ec392f8a,626b3b7f48bfea07056a1736,,,,,,,,,,,,,,,,,,,,,,,l,1,"[""0.076"",""0.354"",""0.194"",""0.823""]","[1,1,0,1]",0,49,49,49,1,1,0,,,1,FALSE,4.5608,,,,,,,,,,,,,,,,,,,,,,,,,,,,,,
,5f3ba39206b3218cf379659d,001,2022-04-29_13h14.44.650,classification_task,2021.2.3,Win32,60.49606776,5f3ba39206b3218cf379659d,626b377229c10585ec392f8a,626b3b7f48bfea07056a1736,,,,,,,,,,,,,,,,,,,,,,,a,1,"[""0.030"",""0.463"",""0.872"",""0.909""]","[0,1,1,1]",0,50,50,50,1,0,1,,,1,FALSE,2.2291,,,,,,,,,,,,,,,,,,,,,,,,,,,,,,
,5f3ba39206b3218cf379659d,001,2022-04-29_13h14.44.650,classification_task,2021.2.3,Win32,60.49606776,5f3ba39206b3218cf379659d,626b377229c10585ec392f8a,626b3b7f48bfea07056a1736,,,,,,,,,,,,,,,,,,,,,,,l,1,"[""0.076"",""0.424"",""0.650"",""0.823""]","[1,0,1,1]",0,51,51,51,1,1,0,,,1,FALSE,3.2108,,,,,,,,,,,,,,,,,,,,,,,,,,,,,,
,5f3ba39206b3218cf379659d,001,2022-04-29_13h14.44.650,classification_task,2021.2.3,Win32,60.49606776,5f3ba39206b3218cf379659d,626b377229c10585ec392f8a,626b3b7f48bfea07056a1736,,,,,,,,,,,,,,,,,,,,,,,a,1,"[""0.278"",""0.529"",""0.701"",""0.312""]","[1,1,1,0]",0,52,52,52,1,0,0,,,1,FALSE,1.209,,,,,,,,,,,,,,,,,,,,,,,,,,,,,,
,5f3ba39206b3218cf379659d,001,2022-04-29_13h14.44.650,classification_task,2021.2.3,Win32,60.49606776,5f3ba39206b3218cf379659d,626b377229c10585ec392f8a,626b3b7f48bfea07056a1736,,,,,,,,,,,,,,,,,,,,,,,l,1,"[""0.076"",""0.354"",""0.650"",""0.028""]","[1,1,1,0]",0,53,53,53,1,1,0,,,1,FALSE,4.7158,,,,,,,,,,,,,,,,,,,,,,,,,,,,,,
,5f3ba39206b3218cf379659d,001,2022-04-29_13h14.44.650,classification_task,2021.2.3,Win32,60.49606776,5f3ba39206b3218cf379659d,626b377229c10585ec392f8a,626b3b7f48bfea07056a1736,,,,,,,,,,,,,,,,,,,,,,,l,0,"[""0.396"",""0.529"",""0.701"",""0.972""]","[0,1,1,1]",0,54,54,54,1,0,0,,,1,FALSE,1.3283,,,,,,,,,,,,,,,,,,,,,,,,,,,,,,
,5f3ba39206b3218cf379659d,001,2022-04-29_13h14.44.650,classification_task,2021.2.3,Win32,60.49606776,5f3ba39206b3218cf379659d,626b377229c10585ec392f8a,626b3b7f48bfea07056a1736,,,,,,,,,,,,,,,,,,,,,,,l,1,"[""0.111"",""0.152"",""0.319"",""0.766""]","[1,1,0,1]",0,55,55,55,1,1,1,,,1,FALSE,0.7125,,,,,,,,,,,,,,,,,,,,,,,,,,,,,,
,5f3ba39206b3218cf379659d,001,2022-04-29_13h14.44.650,classification_task,2021.2.3,Win32,60.49606776,5f3ba39206b3218cf379659d,626b377229c10585ec392f8a,626b3b7f48bfea07056a1736,,,,,,,,,,,,,,,,,,,,,,,l,1,"[""0.194"",""0.152"",""0.585"",""0.766""]","[0,1,1,1]",0,56,56,56,1,1,1,,,1,FALSE,3.2961,,,,,,,,,,,,,,,,,,,,,,,,,,,,,,
,5f3ba39206b3218cf379659d,001,2022-04-29_13h14.44.650,classification_task,2021.2.3,Win32,60.49606776,5f3ba39206b3218cf379659d,626b377229c10585ec392f8a,626b3b7f48bfea07056a1736,,,,,,,,,,,,,,,,,,,,,,,l,1,"[""0.111"",""0.152"",""0.585"",""0.188""]","[1,1,1,0]",0,57,57,57,1,1,1,,,1,FALSE,1.0916,,,,,,,,,,,,,,,,,,,,,,,,,,,,,,
,5f3ba39206b3218cf379659d,001,2022-04-29_13h14.44.650,classification_task,2021.2.3,Win32,60.49606776,5f3ba39206b3218cf379659d,626b377229c10585ec392f8a,626b3b7f48bfea07056a1736,,,,,,,,,,,,,,,,,,,,,,,a,1,"[""0.278"",""0.194"",""0.701"",""0.972""]","[1,0,1,1]",0,58,58,58,1,0,0,,,1,FALSE,1.6093,,,,,,,,,,,,,,,,,,,,,,,,,,,,,,
,5f3ba39206b3218cf379659d,001,2022-04-29_13h14.44.650,classification_task,2021.2.3,Win32,60.49606776,5f3ba39206b3218cf379659d,626b377229c10585ec392f8a,626b3b7f48bfea07056a1736,,,,,,,,,,,,,,,,,,,,,,,a,1,"[""0.237"",""0.463"",""0.188"",""0.909""]","[1,1,0,1]",0,59,59,59,1,0,1,,,1,FALSE,1.4117,,,,,,,,,,,,,,,,,,,,,,,,,,,,,,
,5f3ba39206b3218cf379659d,001,2022-04-29_13h14.44.650,classification_task,2021.2.3,Win32,60.49606776,5f3ba39206b3218cf379659d,626b377229c10585ec392f8a,626b3b7f48bfea07056a1736,,,,,,,,,,,,,,,,,,,,,,,a,1,"[""0.278"",""0.529"",""0.194"",""0.972""]","[1,1,0,1]",0,60,60,60,1,0,0,,,1,FALSE,1.2951,,,,,,,,,,,,,,,,,,,,,,,,,,,,,,
,5f3ba39206b3218cf379659d,001,2022-04-29_13h14.44.650,classification_task,2021.2.3,Win32,60.49606776,5f3ba39206b3218cf379659d,626b377229c10585ec392f8a,626b3b7f48bfea07056a1736,,,,,,,,,,,,,,,,,,,,,,,a,1,"[""0.237"",""0.463"",""0.872"",""0.428""]","[1,1,1,0]",0,61,61,61,1,0,1,,,1,FALSE,1.0611,,,,,,,,,,,,,,,,,,,,,,,,,,,,,,
,5f3ba39206b3218cf379659d,001,2022-04-29_13h14.44.650,classification_task,2021.2.3,Win32,60.49606776,5f3ba39206b3218cf379659d,626b377229c10585ec392f8a,626b3b7f48bfea07056a1736,,,,,,,,,,,,,,,,,,,,,,,l,1,"[""0.111"",""0.414"",""0.585"",""0.766""]","[1,0,1,1]",0,62,62,62,1,1,1,,,1,FALSE,0.9313,,,,,,,,,,,,,,,,,,,,,,,,,,,,,,
,5f3ba39206b3218cf379659d,001,2022-04-29_13h14.44.650,classification_task,2021.2.3,Win32,60.49606776,5f3ba39206b3218cf379659d,626b377229c10585ec392f8a,626b3b7f48bfea07056a1736,,,,,,,,,,,,,,,,,,,,,,,l,1,"[""0.418"",""0.354"",""0.650"",""0.823""]","[0,1,1,1]",0,63,63,63,1,1,0,,,1,FALSE,1.2877,,,,,,,,,,,,,,,,,,,,,,,,,,,,,,
,5f3ba39206b3218cf379659d,001,2022-04-29_13h14.44.650,classification_task,2021.2.3,Win32,60.49606776,5f3ba39206b3218cf379659d,626b377229c10585ec392f8a,626b3b7f48bfea07056a1736,,,,,,,,,,,,,,,,,,,,,,,,,,,,,,,,,,,,,,,0, ,,0,9.115226337,225.6426,0,2,2,2,1,2,3,,,,,,,,,,,,,,,,,
,5f3ba39206b3218cf379659d,001,2022-04-29_13h14.44.650,classification_task,2021.2.3,Win32,60.49606776,5f3ba39206b3218cf379659d,626b377229c10585ec392f8a,626b3b7f48bfea07056a1736,,,,,,,,,,,,,,,,,,,,,,,,,,,,,,,,,,,,,,,1,  ,,0,6.861650757,228.9244,0,2,2,2,1,2,3,,,,,,,,,,,,,,,,,
,5f3ba39206b3218cf379659d,001,2022-04-29_13h14.44.650,classification_task,2021.2.3,Win32,60.49606776,5f3ba39206b3218cf379659d,626b377229c10585ec392f8a,626b3b7f48bfea07056a1736,,,,,,,,,,,,,,,,,,,,,,,,,,,,,,,,,,,,,,,2,  ,,0,3.383303939,235.7503,0,2,2,2,1,2,3,,,,,,,,,,,,,,,,,
,5f3ba39206b3218cf379659d,001,2022-04-29_13h14.44.650,classification_task,2021.2.3,Win32,60.49606776,5f3ba39206b3218cf379659d,626b377229c10585ec392f8a,626b3b7f48bfea07056a1736,,,,,,,,,,,,,,,,,,,,,,,,,,,,,,,,,,,,,,,,,,,,,0,2,2,2,1,,3,,,,,,,,,,,,,,,,,
,5f3ba39206b3218cf379659d,001,2022-04-29_13h14.44.650,classification_task,2021.2.3,Win32,60.49606776,5f3ba39206b3218cf379659d,626b377229c10585ec392f8a,626b3b7f48bfea07056a1736,,,,,,,,,,,,,,,,,,,,,,,,,,,,,,,,,,,,,,,,,,,,,,,,,,,,,I believe the aid is a competent performer,,0.7,0,3,960.696,0,0,0,0,1,0,,,,
,5f3ba39206b3218cf379659d,001,2022-04-29_13h14.44.650,classification_task,2021.2.3,Win32,60.49606776,5f3ba39206b3218cf379659d,626b377229c10585ec392f8a,626b3b7f48bfea07056a1736,,,,,,,,,,,,,,,,,,,,,,,,,,,,,,,,,,,,,,,,,,,,,,,,,,,,,I trust the aid,,0.7,0,3,962.4754,0,0,0,0,1,0,,,,
,5f3ba39206b3218cf379659d,001,2022-04-29_13h14.44.650,classification_task,2021.2.3,Win32,60.49606776,5f3ba39206b3218cf379659d,626b377229c10585ec392f8a,626b3b7f48bfea07056a1736,,,,,,,,,,,,,,,,,,,,,,,,,,,,,,,,,,,,,,,,,,,,,,,,,,,,,I have confidence in the advice given by the aid,,0.7,0,3,966.3271,0,0,0,0,1,0,,,,
,5f3ba39206b3218cf379659d,001,2022-04-29_13h14.44.650,classification_task,2021.2.3,Win32,60.49606776,5f3ba39206b3218cf379659d,626b377229c10585ec392f8a,626b3b7f48bfea07056a1736,,,,,,,,,,,,,,,,,,,,,,,,,,,,,,,,,,,,,,,,,,,,,,,,,,,,,I can depend on the aid,,0.7,0,3,967.6063,0,0,0,0,1,0,,,,
,5f3ba39206b3218cf379659d,001,2022-04-29_13h14.44.650,classification_task,2021.2.3,Win32,60.49606776,5f3ba39206b3218cf379659d,626b377229c10585ec392f8a,626b3b7f48bfea07056a1736,,,,,,,,,,,,,,,,,,,,,,,,,,,,,,,,,,,,,,,,,,,,,,,,,,,,,I can rely on the aid to behave in consistent ways,,0.7,0,2,971.0044,0,0,0,0,1,0,,,,
,5f3ba39206b3218cf379659d,001,2022-04-29_13h14.44.650,classification_task,2021.2.3,Win32,60.49606776,5f3ba39206b3218cf379659d,626b377229c10585ec392f8a,626b3b7f48bfea07056a1736,,,,,,,,,,,,,,,,,,,,,,,,,,,,,,,,,,,,,,,,,,,,,,,,,,,,,I can rely on the aid to do its best every time I take its advice,,0.7,0,3,974.5361,0,0,0,0,1,0,,,,
,5f3ba39206b3218cf379659d,001,2022-04-29_13h14.44.650,classification_task,2021.2.3,Win32,60.49606776,5f3ba39206b3218cf379659d,626b377229c10585ec392f8a,626b3b7f48bfea07056a1736,,,,,,,,,,,,,,,,,,,,,,,,,,,,,,,,,,,,,,,,,,,,,,,,,,,,,"On trials you completed with assistance from the aid, how frequently did you think the aid was correct?",,0.7,0,70,,0,0,0,0,1,0,,,,
,5f3ba39206b3218cf379659d,001,2022-04-29_13h14.44.650,classification_task,2021.2.3,Win32,60.49606776,5f3ba39206b3218cf379659d,626b377229c10585ec392f8a,626b3b7f48bfea07056a1736,,,,,,,,,,,,,,,,,,,,,,,,,,,,,,,,,,,,,,,,,,,,,,,,,,,,,"On trials you completed without the aid, how frequently did you think you were correct?",,0.7,0,60,,0,0,0,0,1,0,,,,
,5f3ba39206b3218cf379659d,001,2022-04-29_13h14.44.650,classification_task,2021.2.3,Win32,60.49606776,5f3ba39206b3218cf379659d,626b377229c10585ec392f8a,626b3b7f48bfea07056a1736,,,,,,,,,,,,,,,,,,,,,,,,,,,,,,,,,,,,,,,,,,,,,,,,,,,,,,,,,,,0,0,0,0,1,,,,,
,5f3ba39206b3218cf379659d,001,2022-04-29_13h14.44.650,classification_task,2021.2.3,Win32,60.49606776,5f3ba39206b3218cf379659d,626b377229c10585ec392f8a,626b3b7f48bfea07056a1736,,,,,,,,,,,,,,,,,,,,,,,,,,,,,,,,,,,,,,,,,,,,,,,,,,,,,,,,,,,,,,,,,return,7.8128,997.1935,
,5f3ba39206b3218cf379659d,001,2022-04-29_13h14.44.650,classification_task,2021.2.3,Win32,60.49606776,5f3ba39206b3218cf379659d,626b377229c10585ec392f8a,626b3b7f48bfea07056a1736,,,,,,,,,,,,,,,,,,,,,,,,,,,,,,,,,,,,,,,,,,,,,,,,,,,,,,,,,,,,,,,,,,,,"Mozilla/5.0 (Windows NT 10.0; Win64; x64) AppleWebKit/537.36 (KHTML, like Gecko) Chrome/100.0.4896.127 Safari/537.36"
