usingWebGL,participant,session,date,expName,psychopyVersion,OS,frameRate,study_id,signatures_friend,signatures_foe,band_ranges_top,band_ranges_bottom,formitemText,formtype,formundefined,formitemWidth,formindex,formresponse,formrt,key_resp_2.keys,key_resp_2.rt,tute_resp.keys,tute_resp.rt,tutorial.thisRepN,tutorial.thisTrialN,tutorial.thisN,tutorial.thisIndex,tutorial.ran,key_resp_4.keys,key_resp_4.rt,key_resp.keys,key_resp.corr,lines_presented,is_signal_presented,trials.thisRepN,trials.thisTrialN,trials.thisN,trials.thisIndex,trials.ran,vessel,active_band,lines,is_signal,supported_pos,catch_trial,key_resp.rt,debrief_formindex,debrief_formitemText,debrief_formtype,debrief_formitemWidth,debrief_formresponse,debrief_formrt,phases.thisRepN,phases.thisTrialN,phases.thisN,phases.thisIndex,phases.ran,phases.order,phase,key_resp_3.keys,trustitemText,trusttype,trustitemWidth,trustindex,trustresponse,trustrt,support_status.thisRepN,support_status.thisTrialN,support_status.thisN,support_status.thisIndex,support_status.ran,support_status.order,key_resp_5.keys,key_resp_5.rt,globalClockTime,userAgent,manualCondition
TRUE,5f3c6cd228b373af8d934e21,627c67ca2d82484ba394ff51,2022-05-11_20h50.32.107,classification_task,2021.2.3,MacIntel,60.0024001,627c6715c52fd12f31907bd0,,,,,,,,,,,,,,,,,,,,,,,,,,,,,,,,,,,,,,,,,,,,,,,,,,,,,,,,,,,,,,,,,,,,,
,5f3c6cd228b373af8d934e21,627c67ca2d82484ba394ff51,2022-05-11_20h50.32.107,classification_task,2021.2.3,MacIntel,60.0024001,627c6715c52fd12f31907bd0,"[[""0.187"",""0.552"",""0.843"",""0.904""],[""0.317"",""0.507"",""0.600"",""0.971""]]","[[""0.041"",""0.410"",""0.667"",""0.770""],[""0.080"",""0.355"",""0.464"",""0.728""]]","[1,10]","[100,1000]",Video game experience,,,0.7,0,,,,,,,,,,,,,,,,,,,,,,,,,,,,,,,,,,,,,,,,,,,,,,,,,,,,,,,,,,,,
,5f3c6cd228b373af8d934e21,627c67ca2d82484ba394ff51,2022-05-11_20h50.32.107,classification_task,2021.2.3,MacIntel,60.0024001,627c6715c52fd12f31907bd0,,,,,Approximately how many hours did you spend playing video games in the last week?,,,0.7,0,0,,,,,,,,,,,,,,,,,,,,,,,,,,,,,,,,,,,,,,,,,,,,,,,,,,,,,,,,,,,
,5f3c6cd228b373af8d934e21,627c67ca2d82484ba394ff51,2022-05-11_20h50.32.107,classification_task,2021.2.3,MacIntel,60.0024001,627c6715c52fd12f31907bd0,,,,,"Which game did you play the most this year? (Enter ""None"" if you didn't play any)",,,0.7,0,Smash brawl,,,,,,,,,,,,,,,,,,,,,,,,,,,,,,,,,,,,,,,,,,,,,,,,,,,,,,,,,,,
,5f3c6cd228b373af8d934e21,627c67ca2d82484ba394ff51,2022-05-11_20h50.32.107,classification_task,2021.2.3,MacIntel,60.0024001,627c6715c52fd12f31907bd0,,,,,Visual perception,,,0.7,0,,,,,,,,,,,,,,,,,,,,,,,,,,,,,,,,,,,,,,,,,,,,,,,,,,,,,,,,,,,,
,5f3c6cd228b373af8d934e21,627c67ca2d82484ba394ff51,2022-05-11_20h50.32.107,classification_task,2021.2.3,MacIntel,60.0024001,627c6715c52fd12f31907bd0,,,,,Do you have any form of color blindness?,,,0.7,0,No,31.1903,,,,,,,,,,,,,,,,,,,,,,,,,,,,,,,,,,,,,,,,,,,,,,,,,,,,,,,,,,
,5f3c6cd228b373af8d934e21,627c67ca2d82484ba394ff51,2022-05-11_20h50.32.107,classification_task,2021.2.3,MacIntel,60.0024001,627c6715c52fd12f31907bd0,,,,,Do you use software to change the colour temperature of your screen (e.g. f.lux)?,,,0.7,0,No,34.8729,,,,,,,,,,,,,,,,,,,,,,,,,,,,,,,,,,,,,,,,,,,,,,,,,,,,,,,,,,
,5f3c6cd228b373af8d934e21,627c67ca2d82484ba394ff51,2022-05-11_20h50.32.107,classification_task,2021.2.3,MacIntel,60.0024001,627c6715c52fd12f31907bd0,,,,,,,,,,,,space,28.3727,space,4.7833,0,0,0,0,1,,,,,,,,,,,,,,,,,,,,,,,,,,,,,,,,,,,,,,,,,,,,,,,,,
,5f3c6cd228b373af8d934e21,627c67ca2d82484ba394ff51,2022-05-11_20h50.32.107,classification_task,2021.2.3,MacIntel,60.0024001,627c6715c52fd12f31907bd0,,,,,,,,,,,,,,space,6.3484,1,0,1,0,1,,,,,,,,,,,,,,,,,,,,,,,,,,,,,,,,,,,,,,,,,,,,,,,,,
,5f3c6cd228b373af8d934e21,627c67ca2d82484ba394ff51,2022-05-11_20h50.32.107,classification_task,2021.2.3,MacIntel,60.0024001,627c6715c52fd12f31907bd0,,,,,,,,,,,,,,space,29.8784,2,0,2,0,1,,,,,,,,,,,,,,,,,,,,,,,,,,,,,,,,,,,,,,,,,,,,,,,,,
,5f3c6cd228b373af8d934e21,627c67ca2d82484ba394ff51,2022-05-11_20h50.32.107,classification_task,2021.2.3,MacIntel,60.0024001,627c6715c52fd12f31907bd0,,,,,,,,,,,,,,space,5.7016,3,0,3,0,1,,,,,,,,,,,,,,,,,,,,,,,,,,,,,,,,,,,,,,,,,,,,,,,,,
,5f3c6cd228b373af8d934e21,627c67ca2d82484ba394ff51,2022-05-11_20h50.32.107,classification_task,2021.2.3,MacIntel,60.0024001,627c6715c52fd12f31907bd0,,,,,,,,,,,,,,space,10.6415,4,0,4,0,1,,,,,,,,,,,,,,,,,,,,,,,,,,,,,,,,,,,,,,,,,,,,,,,,,
,5f3c6cd228b373af8d934e21,627c67ca2d82484ba394ff51,2022-05-11_20h50.32.107,classification_task,2021.2.3,MacIntel,60.0024001,627c6715c52fd12f31907bd0,,,,,,,,,,,,,,,,,,,,,space,13.6802,,0,"[""0.317"",""0.507"",""0.124"",""0.971""]","[1,1,0,1]",0,0,0,0,1,0,1,,,1,FALSE,,,,,,,,,,,,,,,,,,,,,,,,,,,,,,,,
,5f3c6cd228b373af8d934e21,627c67ca2d82484ba394ff51,2022-05-11_20h50.32.107,classification_task,2021.2.3,MacIntel,60.0024001,627c6715c52fd12f31907bd0,,,,,,,,,,,,,,,,,,,,,,,a,1,"[""0.246"",""0.552"",""0.843"",""0.904""]","[0,1,1,1]",0,1,1,1,1,0,0,,,1,FALSE,8.0663,,,,,,,,,,,,,,,,,,,,,,,,,,,,,,,
,5f3c6cd228b373af8d934e21,627c67ca2d82484ba394ff51,2022-05-11_20h50.32.107,classification_task,2021.2.3,MacIntel,60.0024001,627c6715c52fd12f31907bd0,,,,,,,,,,,,,,,,,,,,,,,a,1,"[""0.317"",""0.507"",""0.600"",""0.227""]","[1,1,1,0]",0,2,2,2,1,0,1,,,1,FALSE,4.8376,,,,,,,,,,,,,,,,,,,,,,,,,,,,,,,
,5f3c6cd228b373af8d934e21,627c67ca2d82484ba394ff51,2022-05-11_20h50.32.107,classification_task,2021.2.3,MacIntel,60.0024001,627c6715c52fd12f31907bd0,,,,,,,,,,,,,,,,,,,,,,,a,1,"[""0.317"",""0.276"",""0.600"",""0.971""]","[1,0,1,1]",0,3,3,3,1,0,1,,,1,FALSE,6.4414,,,,,,,,,,,,,,,,,,,,,,,,,,,,,,,
,5f3c6cd228b373af8d934e21,627c67ca2d82484ba394ff51,2022-05-11_20h50.32.107,classification_task,2021.2.3,MacIntel,60.0024001,627c6715c52fd12f31907bd0,,,,,,,,,,,,,,,,,,,,,,,l,1,"[""0.041"",""0.248"",""0.667"",""0.770""]","[1,0,1,1]",0,4,4,4,1,1,0,,,1,FALSE,3.7276,,,,,,,,,,,,,,,,,,,,,,,,,,,,,,,
,5f3c6cd228b373af8d934e21,627c67ca2d82484ba394ff51,2022-05-11_20h50.32.107,classification_task,2021.2.3,MacIntel,60.0024001,627c6715c52fd12f31907bd0,,,,,,,,,,,,,,,,,,,,,,,l,1,"[""0.222"",""0.355"",""0.464"",""0.728""]","[0,1,1,1]",0,5,5,5,1,1,1,,,1,FALSE,4.9442,,,,,,,,,,,,,,,,,,,,,,,,,,,,,,,
,5f3c6cd228b373af8d934e21,627c67ca2d82484ba394ff51,2022-05-11_20h50.32.107,classification_task,2021.2.3,MacIntel,60.0024001,627c6715c52fd12f31907bd0,,,,,,,,,,,,,,,,,,,,,,,l,1,"[""0.080"",""0.355"",""0.464"",""0.222""]","[1,1,1,0]",0,6,6,6,1,1,1,,,1,FALSE,3.4329,,,,,,,,,,,,,,,,,,,,,,,,,,,,,,,
,5f3c6cd228b373af8d934e21,627c67ca2d82484ba394ff51,2022-05-11_20h50.32.107,classification_task,2021.2.3,MacIntel,60.0024001,627c6715c52fd12f31907bd0,,,,,,,,,,,,,,,,,,,,,,,l,1,"[""0.041"",""0.410"",""0.248"",""0.770""]","[1,1,0,1]",0,7,7,7,1,1,0,,,1,FALSE,3.877,,,,,,,,,,,,,,,,,,,,,,,,,,,,,,,
,5f3c6cd228b373af8d934e21,627c67ca2d82484ba394ff51,2022-05-11_20h50.32.107,classification_task,2021.2.3,MacIntel,60.0024001,627c6715c52fd12f31907bd0,,,,,,,,,,,,,,,,,,,,,,,a,1,"[""0.187"",""0.552"",""0.123"",""0.904""]","[1,1,0,1]",0,8,8,8,1,0,0,,,1,FALSE,6.1384,,,,,,,,,,,,,,,,,,,,,,,,,,,,,,,
,5f3c6cd228b373af8d934e21,627c67ca2d82484ba394ff51,2022-05-11_20h50.32.107,classification_task,2021.2.3,MacIntel,60.0024001,627c6715c52fd12f31907bd0,,,,,,,,,,,,,,,,,,,,,,,a,1,"[""0.187"",""0.552"",""0.843"",""0.114""]","[1,1,1,0]",0,9,9,9,1,0,0,,,1,FALSE,6.6948,,,,,,,,,,,,,,,,,,,,,,,,,,,,,,,
,5f3c6cd228b373af8d934e21,627c67ca2d82484ba394ff51,2022-05-11_20h50.32.107,classification_task,2021.2.3,MacIntel,60.0024001,627c6715c52fd12f31907bd0,,,,,,,,,,,,,,,,,,,,,,,l,1,"[""0.248"",""0.410"",""0.667"",""0.770""]","[0,1,1,1]",0,10,10,10,1,1,0,,,1,FALSE,5.6154,,,,,,,,,,,,,,,,,,,,,,,,,,,,,,,
,5f3c6cd228b373af8d934e21,627c67ca2d82484ba394ff51,2022-05-11_20h50.32.107,classification_task,2021.2.3,MacIntel,60.0024001,627c6715c52fd12f31907bd0,,,,,,,,,,,,,,,,,,,,,,,l,1,"[""0.041"",""0.410"",""0.667"",""0.276""]","[1,1,1,0]",0,11,11,11,1,1,0,,,1,FALSE,3.3187,,,,,,,,,,,,,,,,,,,,,,,,,,,,,,,
,5f3c6cd228b373af8d934e21,627c67ca2d82484ba394ff51,2022-05-11_20h50.32.107,classification_task,2021.2.3,MacIntel,60.0024001,627c6715c52fd12f31907bd0,,,,,,,,,,,,,,,,,,,,,,,a,1,"[""0.187"",""0.278"",""0.843"",""0.904""]","[1,0,1,1]",0,12,12,12,1,0,0,,,1,FALSE,2.9796,,,,,,,,,,,,,,,,,,,,,,,,,,,,,,,
,5f3c6cd228b373af8d934e21,627c67ca2d82484ba394ff51,2022-05-11_20h50.32.107,classification_task,2021.2.3,MacIntel,60.0024001,627c6715c52fd12f31907bd0,,,,,,,,,,,,,,,,,,,,,,,a,1,"[""0.124"",""0.507"",""0.600"",""0.971""]","[0,1,1,1]",0,13,13,13,1,0,1,,,1,FALSE,4.8364,,,,,,,,,,,,,,,,,,,,,,,,,,,,,,,
,5f3c6cd228b373af8d934e21,627c67ca2d82484ba394ff51,2022-05-11_20h50.32.107,classification_task,2021.2.3,MacIntel,60.0024001,627c6715c52fd12f31907bd0,,,,,,,,,,,,,,,,,,,,,,,l,1,"[""0.080"",""0.138"",""0.464"",""0.728""]","[1,0,1,1]",0,14,14,14,1,1,1,,,1,FALSE,2.8583,,,,,,,,,,,,,,,,,,,,,,,,,,,,,,,
,5f3c6cd228b373af8d934e21,627c67ca2d82484ba394ff51,2022-05-11_20h50.32.107,classification_task,2021.2.3,MacIntel,60.0024001,627c6715c52fd12f31907bd0,,,,,,,,,,,,,,,,,,,,,,,l,1,"[""0.080"",""0.355"",""0.246"",""0.728""]","[1,1,0,1]",0,15,15,15,1,1,1,,,1,FALSE,2.3045,,,,,,,,,,,,,,,,,,,,,,,,,,,,,,,
,5f3c6cd228b373af8d934e21,627c67ca2d82484ba394ff51,2022-05-11_20h50.32.107,classification_task,2021.2.3,MacIntel,60.0024001,627c6715c52fd12f31907bd0,,,,,,,,,,,,,,,,,,,,,,,l,1,"[""0.114"",""0.355"",""0.464"",""0.728""]","[0,1,1,1]",0,16,16,16,1,1,1,,,1,FALSE,4.4224,,,,,,,,,,,,,,,,,,,,,,,,,,,,,,,
,5f3c6cd228b373af8d934e21,627c67ca2d82484ba394ff51,2022-05-11_20h50.32.107,classification_task,2021.2.3,MacIntel,60.0024001,627c6715c52fd12f31907bd0,,,,,,,,,,,,,,,,,,,,,,,l,1,"[""0.041"",""0.246"",""0.667"",""0.770""]","[1,0,1,1]",0,17,17,17,1,1,0,,,1,FALSE,3.6627,,,,,,,,,,,,,,,,,,,,,,,,,,,,,,,
,5f3c6cd228b373af8d934e21,627c67ca2d82484ba394ff51,2022-05-11_20h50.32.107,classification_task,2021.2.3,MacIntel,60.0024001,627c6715c52fd12f31907bd0,,,,,,,,,,,,,,,,,,,,,,,l,1,"[""0.041"",""0.410"",""0.667"",""0.138""]","[1,1,1,0]",0,18,18,18,1,1,0,,,1,FALSE,2.5437,,,,,,,,,,,,,,,,,,,,,,,,,,,,,,,
,5f3c6cd228b373af8d934e21,627c67ca2d82484ba394ff51,2022-05-11_20h50.32.107,classification_task,2021.2.3,MacIntel,60.0024001,627c6715c52fd12f31907bd0,,,,,,,,,,,,,,,,,,,,,,,l,1,"[""0.080"",""0.355"",""0.140"",""0.728""]","[1,1,0,1]",0,19,19,19,1,1,1,,,1,FALSE,2.6867,,,,,,,,,,,,,,,,,,,,,,,,,,,,,,,
,5f3c6cd228b373af8d934e21,627c67ca2d82484ba394ff51,2022-05-11_20h50.32.107,classification_task,2021.2.3,MacIntel,60.0024001,627c6715c52fd12f31907bd0,,,,,,,,,,,,,,,,,,,,,,,a,1,"[""0.187"",""0.552"",""0.232"",""0.904""]","[1,1,0,1]",0,20,20,20,1,0,0,,,1,FALSE,5.4525,,,,,,,,,,,,,,,,,,,,,,,,,,,,,,,
,5f3c6cd228b373af8d934e21,627c67ca2d82484ba394ff51,2022-05-11_20h50.32.107,classification_task,2021.2.3,MacIntel,60.0024001,627c6715c52fd12f31907bd0,,,,,,,,,,,,,,,,,,,,,,,l,1,"[""0.080"",""0.355"",""0.464"",""0.141""]","[1,1,1,0]",0,21,21,21,1,1,1,,,1,FALSE,2.9494,,,,,,,,,,,,,,,,,,,,,,,,,,,,,,,
,5f3c6cd228b373af8d934e21,627c67ca2d82484ba394ff51,2022-05-11_20h50.32.107,classification_task,2021.2.3,MacIntel,60.0024001,627c6715c52fd12f31907bd0,,,,,,,,,,,,,,,,,,,,,,,a,1,"[""0.187"",""0.276"",""0.843"",""0.904""]","[1,0,1,1]",0,22,22,22,1,0,0,,,1,FALSE,4.4426,,,,,,,,,,,,,,,,,,,,,,,,,,,,,,,
,5f3c6cd228b373af8d934e21,627c67ca2d82484ba394ff51,2022-05-11_20h50.32.107,classification_task,2021.2.3,MacIntel,60.0024001,627c6715c52fd12f31907bd0,,,,,,,,,,,,,,,,,,,,,,,l,1,"[""0.041"",""0.410"",""0.246"",""0.770""]","[1,1,0,1]",0,23,23,23,1,1,0,,,1,FALSE,3.2152,,,,,,,,,,,,,,,,,,,,,,,,,,,,,,,
,5f3c6cd228b373af8d934e21,627c67ca2d82484ba394ff51,2022-05-11_20h50.32.107,classification_task,2021.2.3,MacIntel,60.0024001,627c6715c52fd12f31907bd0,,,,,,,,,,,,,,,,,,,,,,,l,0,"[""0.222"",""0.552"",""0.843"",""0.904""]","[0,1,1,1]",0,24,24,24,1,0,0,,,1,FALSE,2.9698,,,,,,,,,,,,,,,,,,,,,,,,,,,,,,,
,5f3c6cd228b373af8d934e21,627c67ca2d82484ba394ff51,2022-05-11_20h50.32.107,classification_task,2021.2.3,MacIntel,60.0024001,627c6715c52fd12f31907bd0,,,,,,,,,,,,,,,,,,,,,,,l,1,"[""0.080"",""0.256"",""0.464"",""0.728""]","[1,0,1,1]",0,25,25,25,1,1,1,,,1,FALSE,2.9328,,,,,,,,,,,,,,,,,,,,,,,,,,,,,,,
,5f3c6cd228b373af8d934e21,627c67ca2d82484ba394ff51,2022-05-11_20h50.32.107,classification_task,2021.2.3,MacIntel,60.0024001,627c6715c52fd12f31907bd0,,,,,,,,,,,,,,,,,,,,,,,l,1,"[""0.276"",""0.410"",""0.667"",""0.770""]","[0,1,1,1]",0,26,26,26,1,1,0,,,1,FALSE,4.0795,,,,,,,,,,,,,,,,,,,,,,,,,,,,,,,
,5f3c6cd228b373af8d934e21,627c67ca2d82484ba394ff51,2022-05-11_20h50.32.107,classification_task,2021.2.3,MacIntel,60.0024001,627c6715c52fd12f31907bd0,,,,,,,,,,,,,,,,,,,,,,,a,1,"[""0.187"",""0.552"",""0.843"",""0.146""]","[1,1,1,0]",0,27,27,27,1,0,0,,,1,FALSE,4.0969,,,,,,,,,,,,,,,,,,,,,,,,,,,,,,,
,5f3c6cd228b373af8d934e21,627c67ca2d82484ba394ff51,2022-05-11_20h50.32.107,classification_task,2021.2.3,MacIntel,60.0024001,627c6715c52fd12f31907bd0,,,,,,,,,,,,,,,,,,,,,,,a,1,"[""0.317"",""0.507"",""0.600"",""0.278""]","[1,1,1,0]",0,28,28,28,1,0,1,,,1,FALSE,2.8626,,,,,,,,,,,,,,,,,,,,,,,,,,,,,,,
,5f3c6cd228b373af8d934e21,627c67ca2d82484ba394ff51,2022-05-11_20h50.32.107,classification_task,2021.2.3,MacIntel,60.0024001,627c6715c52fd12f31907bd0,,,,,,,,,,,,,,,,,,,,,,,a,1,"[""0.276"",""0.507"",""0.600"",""0.971""]","[0,1,1,1]",0,29,29,29,1,0,1,,,1,FALSE,3.6348,,,,,,,,,,,,,,,,,,,,,,,,,,,,,,,
,5f3c6cd228b373af8d934e21,627c67ca2d82484ba394ff51,2022-05-11_20h50.32.107,classification_task,2021.2.3,MacIntel,60.0024001,627c6715c52fd12f31907bd0,,,,,,,,,,,,,,,,,,,,,,,a,1,"[""0.317"",""0.124"",""0.600"",""0.971""]","[1,0,1,1]",0,30,30,30,1,0,1,,,1,FALSE,4.6781,,,,,,,,,,,,,,,,,,,,,,,,,,,,,,,
,5f3c6cd228b373af8d934e21,627c67ca2d82484ba394ff51,2022-05-11_20h50.32.107,classification_task,2021.2.3,MacIntel,60.0024001,627c6715c52fd12f31907bd0,,,,,,,,,,,,,,,,,,,,,,,a,1,"[""0.317"",""0.507"",""0.227"",""0.971""]","[1,1,0,1]",0,31,31,31,1,0,1,,,1,FALSE,3.3451,,,,,,,,,,,,,,,,,,,,,,,,,,,,,,,
,5f3c6cd228b373af8d934e21,627c67ca2d82484ba394ff51,2022-05-11_20h50.32.107,classification_task,2021.2.3,MacIntel,60.0024001,627c6715c52fd12f31907bd0,,,,,,,,,,,,,,,,,,,,,,,a,1,"[""0.317"",""0.507"",""0.123"",""0.971""]","[1,1,0,1]",0,32,32,32,1,0,1,,,1,FALSE,4.2442,,,,,,,,,,,,,,,,,,,,,,,,,,,,,,,
,5f3c6cd228b373af8d934e21,627c67ca2d82484ba394ff51,2022-05-11_20h50.32.107,classification_task,2021.2.3,MacIntel,60.0024001,627c6715c52fd12f31907bd0,,,,,,,,,,,,,,,,,,,,,,,l,1,"[""0.080"",""0.355"",""0.114"",""0.728""]","[1,1,0,1]",0,33,33,33,1,1,1,,,1,FALSE,2.076,,,,,,,,,,,,,,,,,,,,,,,,,,,,,,,
,5f3c6cd228b373af8d934e21,627c67ca2d82484ba394ff51,2022-05-11_20h50.32.107,classification_task,2021.2.3,MacIntel,60.0024001,627c6715c52fd12f31907bd0,,,,,,,,,,,,,,,,,,,,,,,l,1,"[""0.080"",""0.355"",""0.464"",""0.124""]","[1,1,1,0]",0,34,34,34,1,1,1,,,1,FALSE,1.4465,,,,,,,,,,,,,,,,,,,,,,,,,,,,,,,
,5f3c6cd228b373af8d934e21,627c67ca2d82484ba394ff51,2022-05-11_20h50.32.107,classification_task,2021.2.3,MacIntel,60.0024001,627c6715c52fd12f31907bd0,,,,,,,,,,,,,,,,,,,,,,,a,1,"[""0.187"",""0.552"",""0.843"",""0.246""]","[1,1,1,0]",0,35,35,35,1,0,0,,,1,FALSE,1.7386,,,,,,,,,,,,,,,,,,,,,,,,,,,,,,,
,5f3c6cd228b373af8d934e21,627c67ca2d82484ba394ff51,2022-05-11_20h50.32.107,classification_task,2021.2.3,MacIntel,60.0024001,627c6715c52fd12f31907bd0,,,,,,,,,,,,,,,,,,,,,,,a,1,"[""0.248"",""0.552"",""0.843"",""0.904""]","[0,1,1,1]",0,36,36,36,1,0,0,,,1,FALSE,0.8305,,,,,,,,,,,,,,,,,,,,,,,,,,,,,,,
,5f3c6cd228b373af8d934e21,627c67ca2d82484ba394ff51,2022-05-11_20h50.32.107,classification_task,2021.2.3,MacIntel,60.0024001,627c6715c52fd12f31907bd0,,,,,,,,,,,,,,,,,,,,,,,l,1,"[""0.080"",""0.141"",""0.464"",""0.728""]","[1,0,1,1]",0,37,37,37,1,1,1,,,1,FALSE,0.9706,,,,,,,,,,,,,,,,,,,,,,,,,,,,,,,
,5f3c6cd228b373af8d934e21,627c67ca2d82484ba394ff51,2022-05-11_20h50.32.107,classification_task,2021.2.3,MacIntel,60.0024001,627c6715c52fd12f31907bd0,,,,,,,,,,,,,,,,,,,,,,,a,1,"[""0.187"",""0.232"",""0.843"",""0.904""]","[1,0,1,1]",0,38,38,38,1,0,0,,,1,FALSE,1.3677,,,,,,,,,,,,,,,,,,,,,,,,,,,,,,,
,5f3c6cd228b373af8d934e21,627c67ca2d82484ba394ff51,2022-05-11_20h50.32.107,classification_task,2021.2.3,MacIntel,60.0024001,627c6715c52fd12f31907bd0,,,,,,,,,,,,,,,,,,,,,,,l,1,"[""0.041"",""0.410"",""0.667"",""0.256""]","[1,1,1,0]",0,39,39,39,1,1,0,,,1,FALSE,0.9367,,,,,,,,,,,,,,,,,,,,,,,,,,,,,,,
,5f3c6cd228b373af8d934e21,627c67ca2d82484ba394ff51,2022-05-11_20h50.32.107,classification_task,2021.2.3,MacIntel,60.0024001,627c6715c52fd12f31907bd0,,,,,,,,,,,,,,,,,,,,,,,a,0,"[""0.256"",""0.355"",""0.464"",""0.728""]","[0,1,1,1]",0,40,40,40,1,1,1,,,1,FALSE,0.8226,,,,,,,,,,,,,,,,,,,,,,,,,,,,,,,
,5f3c6cd228b373af8d934e21,627c67ca2d82484ba394ff51,2022-05-11_20h50.32.107,classification_task,2021.2.3,MacIntel,60.0024001,627c6715c52fd12f31907bd0,,,,,,,,,,,,,,,,,,,,,,,l,1,"[""0.041"",""0.124"",""0.667"",""0.770""]","[1,0,1,1]",0,41,41,41,1,1,0,,,1,FALSE,0.905,,,,,,,,,,,,,,,,,,,,,,,,,,,,,,,
,5f3c6cd228b373af8d934e21,627c67ca2d82484ba394ff51,2022-05-11_20h50.32.107,classification_task,2021.2.3,MacIntel,60.0024001,627c6715c52fd12f31907bd0,,,,,,,,,,,,,,,,,,,,,,,a,1,"[""0.187"",""0.552"",""0.246"",""0.904""]","[1,1,0,1]",0,42,42,42,1,0,0,,,1,FALSE,1.1128,,,,,,,,,,,,,,,,,,,,,,,,,,,,,,,
,5f3c6cd228b373af8d934e21,627c67ca2d82484ba394ff51,2022-05-11_20h50.32.107,classification_task,2021.2.3,MacIntel,60.0024001,627c6715c52fd12f31907bd0,,,,,,,,,,,,,,,,,,,,,,,l,0,"[""0.114"",""0.507"",""0.600"",""0.971""]","[0,1,1,1]",0,43,43,43,1,0,1,,,1,FALSE,0.8286,,,,,,,,,,,,,,,,,,,,,,,,,,,,,,,
,5f3c6cd228b373af8d934e21,627c67ca2d82484ba394ff51,2022-05-11_20h50.32.107,classification_task,2021.2.3,MacIntel,60.0024001,627c6715c52fd12f31907bd0,,,,,,,,,,,,,,,,,,,,,,,a,0,"[""0.276"",""0.410"",""0.667"",""0.770""]","[0,1,1,1]",0,44,44,44,1,1,0,,,1,FALSE,1.019,,,,,,,,,,,,,,,,,,,,,,,,,,,,,,,
,5f3c6cd228b373af8d934e21,627c67ca2d82484ba394ff51,2022-05-11_20h50.32.107,classification_task,2021.2.3,MacIntel,60.0024001,627c6715c52fd12f31907bd0,,,,,,,,,,,,,,,,,,,,,,,a,1,"[""0.317"",""0.146"",""0.600"",""0.971""]","[1,0,1,1]",0,45,45,45,1,0,1,,,1,FALSE,2.2674,,,,,,,,,,,,,,,,,,,,,,,,,,,,,,,
,5f3c6cd228b373af8d934e21,627c67ca2d82484ba394ff51,2022-05-11_20h50.32.107,classification_task,2021.2.3,MacIntel,60.0024001,627c6715c52fd12f31907bd0,,,,,,,,,,,,,,,,,,,,,,,l,1,"[""0.041"",""0.410"",""0.222"",""0.770""]","[1,1,0,1]",0,46,46,46,1,1,0,,,1,FALSE,1.3537,,,,,,,,,,,,,,,,,,,,,,,,,,,,,,,
,5f3c6cd228b373af8d934e21,627c67ca2d82484ba394ff51,2022-05-11_20h50.32.107,classification_task,2021.2.3,MacIntel,60.0024001,627c6715c52fd12f31907bd0,,,,,,,,,,,,,,,,,,,,,,,l,0,"[""0.317"",""0.507"",""0.600"",""0.232""]","[1,1,1,0]",0,47,47,47,1,0,1,,,1,FALSE,1.1022,,,,,,,,,,,,,,,,,,,,,,,,,,,,,,,
,5f3c6cd228b373af8d934e21,627c67ca2d82484ba394ff51,2022-05-11_20h50.32.107,classification_task,2021.2.3,MacIntel,60.0024001,627c6715c52fd12f31907bd0,,,,,,,,,,,,,,,,,,,,,,,l,0,"[""0.187"",""0.552"",""0.232"",""0.904""]","[1,1,0,1]",0,48,48,48,1,0,0,,,1,FALSE,1.2045,,,,,,,,,,,,,,,,,,,,,,,,,,,,,,,
,5f3c6cd228b373af8d934e21,627c67ca2d82484ba394ff51,2022-05-11_20h50.32.107,classification_task,2021.2.3,MacIntel,60.0024001,627c6715c52fd12f31907bd0,,,,,,,,,,,,,,,,,,,,,,,a,0,"[""0.080"",""0.355"",""0.464"",""0.248""]","[1,1,1,0]",0,49,49,49,1,1,1,,,1,FALSE,1.2407,,,,,,,,,,,,,,,,,,,,,,,,,,,,,,,
,5f3c6cd228b373af8d934e21,627c67ca2d82484ba394ff51,2022-05-11_20h50.32.107,classification_task,2021.2.3,MacIntel,60.0024001,627c6715c52fd12f31907bd0,,,,,,,,,,,,,,,,,,,,,,,a,1,"[""0.232"",""0.507"",""0.600"",""0.971""]","[0,1,1,1]",0,50,50,50,1,0,1,,,1,FALSE,0.9724,,,,,,,,,,,,,,,,,,,,,,,,,,,,,,,
,5f3c6cd228b373af8d934e21,627c67ca2d82484ba394ff51,2022-05-11_20h50.32.107,classification_task,2021.2.3,MacIntel,60.0024001,627c6715c52fd12f31907bd0,,,,,,,,,,,,,,,,,,,,,,,a,1,"[""0.317"",""0.507"",""0.140"",""0.971""]","[1,1,0,1]",0,51,51,51,1,0,1,,,1,FALSE,0.8212,,,,,,,,,,,,,,,,,,,,,,,,,,,,,,,
,5f3c6cd228b373af8d934e21,627c67ca2d82484ba394ff51,2022-05-11_20h50.32.107,classification_task,2021.2.3,MacIntel,60.0024001,627c6715c52fd12f31907bd0,,,,,,,,,,,,,,,,,,,,,,,a,1,"[""0.123"",""0.552"",""0.843"",""0.904""]","[0,1,1,1]",0,52,52,52,1,0,0,,,1,FALSE,0.9928,,,,,,,,,,,,,,,,,,,,,,,,,,,,,,,
,5f3c6cd228b373af8d934e21,627c67ca2d82484ba394ff51,2022-05-11_20h50.32.107,classification_task,2021.2.3,MacIntel,60.0024001,627c6715c52fd12f31907bd0,,,,,,,,,,,,,,,,,,,,,,,a,0,"[""0.080"",""0.222"",""0.464"",""0.728""]","[1,0,1,1]",0,53,53,53,1,1,1,,,1,FALSE,0.6806,,,,,,,,,,,,,,,,,,,,,,,,,,,,,,,
,5f3c6cd228b373af8d934e21,627c67ca2d82484ba394ff51,2022-05-11_20h50.32.107,classification_task,2021.2.3,MacIntel,60.0024001,627c6715c52fd12f31907bd0,,,,,,,,,,,,,,,,,,,,,,,a,0,"[""0.222"",""0.410"",""0.667"",""0.770""]","[0,1,1,1]",0,54,54,54,1,1,0,,,1,FALSE,1.2212,,,,,,,,,,,,,,,,,,,,,,,,,,,,,,,
,5f3c6cd228b373af8d934e21,627c67ca2d82484ba394ff51,2022-05-11_20h50.32.107,classification_task,2021.2.3,MacIntel,60.0024001,627c6715c52fd12f31907bd0,,,,,,,,,,,,,,,,,,,,,,,l,1,"[""0.041"",""0.276"",""0.667"",""0.770""]","[1,0,1,1]",0,55,55,55,1,1,0,,,1,FALSE,1.6176,,,,,,,,,,,,,,,,,,,,,,,,,,,,,,,
,5f3c6cd228b373af8d934e21,627c67ca2d82484ba394ff51,2022-05-11_20h50.32.107,classification_task,2021.2.3,MacIntel,60.0024001,627c6715c52fd12f31907bd0,,,,,,,,,,,,,,,,,,,,,,,l,0,"[""0.187"",""0.552"",""0.843"",""0.114""]","[1,1,1,0]",0,56,56,56,1,0,0,,,1,FALSE,0.7558,,,,,,,,,,,,,,,,,,,,,,,,,,,,,,,
,5f3c6cd228b373af8d934e21,627c67ca2d82484ba394ff51,2022-05-11_20h50.32.107,classification_task,2021.2.3,MacIntel,60.0024001,627c6715c52fd12f31907bd0,,,,,,,,,,,,,,,,,,,,,,,l,0,"[""0.187"",""0.232"",""0.843"",""0.904""]","[1,0,1,1]",0,57,57,57,1,0,0,,,1,FALSE,1.4302,,,,,,,,,,,,,,,,,,,,,,,,,,,,,,,
,5f3c6cd228b373af8d934e21,627c67ca2d82484ba394ff51,2022-05-11_20h50.32.107,classification_task,2021.2.3,MacIntel,60.0024001,627c6715c52fd12f31907bd0,,,,,,,,,,,,,,,,,,,,,,,a,1,"[""0.317"",""0.507"",""0.600"",""0.246""]","[1,1,1,0]",0,58,58,58,1,0,1,,,1,FALSE,2.0705,,,,,,,,,,,,,,,,,,,,,,,,,,,,,,,
,5f3c6cd228b373af8d934e21,627c67ca2d82484ba394ff51,2022-05-11_20h50.32.107,classification_task,2021.2.3,MacIntel,60.0024001,627c6715c52fd12f31907bd0,,,,,,,,,,,,,,,,,,,,,,,a,0,"[""0.041"",""0.410"",""0.246"",""0.770""]","[1,1,0,1]",0,59,59,59,1,1,0,,,1,FALSE,2.3276,,,,,,,,,,,,,,,,,,,,,,,,,,,,,,,
,5f3c6cd228b373af8d934e21,627c67ca2d82484ba394ff51,2022-05-11_20h50.32.107,classification_task,2021.2.3,MacIntel,60.0024001,627c6715c52fd12f31907bd0,,,,,,,,,,,,,,,,,,,,,,,a,0,"[""0.138"",""0.355"",""0.464"",""0.728""]","[0,1,1,1]",0,60,60,60,1,1,1,,,1,FALSE,1.412,,,,,,,,,,,,,,,,,,,,,,,,,,,,,,,
,5f3c6cd228b373af8d934e21,627c67ca2d82484ba394ff51,2022-05-11_20h50.32.107,classification_task,2021.2.3,MacIntel,60.0024001,627c6715c52fd12f31907bd0,,,,,,,,,,,,,,,,,,,,,,,l,1,"[""0.041"",""0.410"",""0.667"",""0.227""]","[1,1,1,0]",0,61,61,61,1,1,0,,,1,FALSE,0.9539,,,,,,,,,,,,,,,,,,,,,,,,,,,,,,,
,5f3c6cd228b373af8d934e21,627c67ca2d82484ba394ff51,2022-05-11_20h50.32.107,classification_task,2021.2.3,MacIntel,60.0024001,627c6715c52fd12f31907bd0,,,,,,,,,,,,,,,,,,,,,,,a,1,"[""0.317"",""0.256"",""0.600"",""0.971""]","[1,0,1,1]",0,62,62,62,1,0,1,,,1,FALSE,1.241,,,,,,,,,,,,,,,,,,,,,,,,,,,,,,,
,5f3c6cd228b373af8d934e21,627c67ca2d82484ba394ff51,2022-05-11_20h50.32.107,classification_task,2021.2.3,MacIntel,60.0024001,627c6715c52fd12f31907bd0,,,,,,,,,,,,,,,,,,,,,,,l,1,"[""0.080"",""0.355"",""0.222"",""0.728""]","[1,1,0,1]",0,63,63,63,1,1,1,,,1,FALSE,0.9648,,,,,,,,,,,,,,,,,,,,,,,,,,,,,,,
,5f3c6cd228b373af8d934e21,627c67ca2d82484ba394ff51,2022-05-11_20h50.32.107,classification_task,2021.2.3,MacIntel,60.0024001,627c6715c52fd12f31907bd0,,,,,,,,,,,,,,,,,,,,,,,,,,,,,,,,,,,,,,,0, ,,0,0,410.6877,0,0,0,0,1,2,1,,,,,,,,,,,,,,,,,,
,5f3c6cd228b373af8d934e21,627c67ca2d82484ba394ff51,2022-05-11_20h50.32.107,classification_task,2021.2.3,MacIntel,60.0024001,627c6715c52fd12f31907bd0,,,,,,,,,,,,,,,,,,,,,,,,,,,,,,,,,,,,,,,1,  ,,0,10,422.1616,0,0,0,0,1,2,1,,,,,,,,,,,,,,,,,,
,5f3c6cd228b373af8d934e21,627c67ca2d82484ba394ff51,2022-05-11_20h50.32.107,classification_task,2021.2.3,MacIntel,60.0024001,627c6715c52fd12f31907bd0,,,,,,,,,,,,,,,,,,,,,,,,,,,,,,,,,,,,,,,2,  ,,0,5.558414269,429.0883,0,0,0,0,1,2,1,,,,,,,,,,,,,,,,,,
,5f3c6cd228b373af8d934e21,627c67ca2d82484ba394ff51,2022-05-11_20h50.32.107,classification_task,2021.2.3,MacIntel,60.0024001,627c6715c52fd12f31907bd0,,,,,,,,,,,,,,,,,,,,,,,,,,,,,,,,,,,,,,,,,,,,,0,0,0,0,1,,1,,,,,,,,,,,,,,,,,,
,5f3c6cd228b373af8d934e21,627c67ca2d82484ba394ff51,2022-05-11_20h50.32.107,classification_task,2021.2.3,MacIntel,60.0024001,627c6715c52fd12f31907bd0,,,,,,,,,,,,,,,,,,,,,space,11.0019,a,0,"[""0.246"",""0.355"",""0.464"",""0.728""]","[0,1,1,1]",0,0,0,0,1,1,1,,,1,FALSE,3.5775,,,,,,,,,,,,,,,,,,,,,,,,,,,,,,,
,5f3c6cd228b373af8d934e21,627c67ca2d82484ba394ff51,2022-05-11_20h50.32.107,classification_task,2021.2.3,MacIntel,60.0024001,627c6715c52fd12f31907bd0,,,,,,,,,,,,,,,,,,,,,,,l,1,"[""0.041"",""0.410"",""0.667"",""0.140""]","[1,1,1,0]",0,1,1,1,1,1,0,,,1,FALSE,1.1171,,,,,,,,,,,,,,,,,,,,,,,,,,,,,,,
,5f3c6cd228b373af8d934e21,627c67ca2d82484ba394ff51,2022-05-11_20h50.32.107,classification_task,2021.2.3,MacIntel,60.0024001,627c6715c52fd12f31907bd0,,,,,,,,,,,,,,,,,,,,,,,a,1,"[""0.317"",""0.138"",""0.600"",""0.971""]","[1,0,1,1]",0,2,2,2,1,0,1,,,1,FALSE,1.2533,,,,,,,,,,,,,,,,,,,,,,,,,,,,,,,
,5f3c6cd228b373af8d934e21,627c67ca2d82484ba394ff51,2022-05-11_20h50.32.107,classification_task,2021.2.3,MacIntel,60.0024001,627c6715c52fd12f31907bd0,,,,,,,,,,,,,,,,,,,,,,,a,0,"[""0.080"",""0.355"",""0.464"",""0.123""]","[1,1,1,0]",0,3,3,3,1,1,1,,,1,FALSE,1.3927,,,,,,,,,,,,,,,,,,,,,,,,,,,,,,,
,5f3c6cd228b373af8d934e21,627c67ca2d82484ba394ff51,2022-05-11_20h50.32.107,classification_task,2021.2.3,MacIntel,60.0024001,627c6715c52fd12f31907bd0,,,,,,,,,,,,,,,,,,,,,,,l,1,"[""0.080"",""0.124"",""0.464"",""0.728""]","[1,0,1,1]",0,4,4,4,1,1,1,,,1,FALSE,0.901,,,,,,,,,,,,,,,,,,,,,,,,,,,,,,,
,5f3c6cd228b373af8d934e21,627c67ca2d82484ba394ff51,2022-05-11_20h50.32.107,classification_task,2021.2.3,MacIntel,60.0024001,627c6715c52fd12f31907bd0,,,,,,,,,,,,,,,,,,,,,,,l,1,"[""0.041"",""0.410"",""0.278"",""0.770""]","[1,1,0,1]",0,5,5,5,1,1,0,,,1,FALSE,0.8678,,,,,,,,,,,,,,,,,,,,,,,,,,,,,,,
,5f3c6cd228b373af8d934e21,627c67ca2d82484ba394ff51,2022-05-11_20h50.32.107,classification_task,2021.2.3,MacIntel,60.0024001,627c6715c52fd12f31907bd0,,,,,,,,,,,,,,,,,,,,,,,a,1,"[""0.187"",""0.141"",""0.843"",""0.904""]","[1,0,1,1]",0,6,6,6,1,0,0,,,1,FALSE,1.0962,,,,,,,,,,,,,,,,,,,,,,,,,,,,,,,
,5f3c6cd228b373af8d934e21,627c67ca2d82484ba394ff51,2022-05-11_20h50.32.107,classification_task,2021.2.3,MacIntel,60.0024001,627c6715c52fd12f31907bd0,,,,,,,,,,,,,,,,,,,,,,,l,1,"[""0.080"",""0.355"",""0.227"",""0.728""]","[1,1,0,1]",0,7,7,7,1,1,1,,,1,FALSE,2.0239,,,,,,,,,,,,,,,,,,,,,,,,,,,,,,,
,5f3c6cd228b373af8d934e21,627c67ca2d82484ba394ff51,2022-05-11_20h50.32.107,classification_task,2021.2.3,MacIntel,60.0024001,627c6715c52fd12f31907bd0,,,,,,,,,,,,,,,,,,,,,,,a,0,"[""0.146"",""0.410"",""0.667"",""0.770""]","[0,1,1,1]",0,8,8,8,1,1,0,,,1,FALSE,0.9768,,,,,,,,,,,,,,,,,,,,,,,,,,,,,,,
,5f3c6cd228b373af8d934e21,627c67ca2d82484ba394ff51,2022-05-11_20h50.32.107,classification_task,2021.2.3,MacIntel,60.0024001,627c6715c52fd12f31907bd0,,,,,,,,,,,,,,,,,,,,,,,l,0,"[""0.140"",""0.552"",""0.843"",""0.904""]","[0,1,1,1]",0,9,9,9,1,0,0,,,1,FALSE,0.9512,,,,,,,,,,,,,,,,,,,,,,,,,,,,,,,
,5f3c6cd228b373af8d934e21,627c67ca2d82484ba394ff51,2022-05-11_20h50.32.107,classification_task,2021.2.3,MacIntel,60.0024001,627c6715c52fd12f31907bd0,,,,,,,,,,,,,,,,,,,,,,,a,1,"[""0.317"",""0.507"",""0.232"",""0.971""]","[1,1,0,1]",0,10,10,10,1,0,1,,,1,FALSE,1.5209,,,,,,,,,,,,,,,,,,,,,,,,,,,,,,,
,5f3c6cd228b373af8d934e21,627c67ca2d82484ba394ff51,2022-05-11_20h50.32.107,classification_task,2021.2.3,MacIntel,60.0024001,627c6715c52fd12f31907bd0,,,,,,,,,,,,,,,,,,,,,,,l,0,"[""0.187"",""0.552"",""0.843"",""0.227""]","[1,1,1,0]",0,11,11,11,1,0,0,,,1,FALSE,1.3366,,,,,,,,,,,,,,,,,,,,,,,,,,,,,,,
,5f3c6cd228b373af8d934e21,627c67ca2d82484ba394ff51,2022-05-11_20h50.32.107,classification_task,2021.2.3,MacIntel,60.0024001,627c6715c52fd12f31907bd0,,,,,,,,,,,,,,,,,,,,,,,l,1,"[""0.041"",""0.222"",""0.667"",""0.770""]","[1,0,1,1]",0,12,12,12,1,1,0,,,1,FALSE,1.1655,,,,,,,,,,,,,,,,,,,,,,,,,,,,,,,
,5f3c6cd228b373af8d934e21,627c67ca2d82484ba394ff51,2022-05-11_20h50.32.107,classification_task,2021.2.3,MacIntel,60.0024001,627c6715c52fd12f31907bd0,,,,,,,,,,,,,,,,,,,,,,,a,1,"[""0.317"",""0.507"",""0.600"",""0.138""]","[1,1,1,0]",0,13,13,13,1,0,1,,,1,FALSE,1.5788,,,,,,,,,,,,,,,,,,,,,,,,,,,,,,,
,5f3c6cd228b373af8d934e21,627c67ca2d82484ba394ff51,2022-05-11_20h50.32.107,classification_task,2021.2.3,MacIntel,60.0024001,627c6715c52fd12f31907bd0,,,,,,,,,,,,,,,,,,,,,,,a,1,"[""0.123"",""0.507"",""0.600"",""0.971""]","[0,1,1,1]",0,14,14,14,1,0,1,,,1,FALSE,1.0807,,,,,,,,,,,,,,,,,,,,,,,,,,,,,,,
,5f3c6cd228b373af8d934e21,627c67ca2d82484ba394ff51,2022-05-11_20h50.32.107,classification_task,2021.2.3,MacIntel,60.0024001,627c6715c52fd12f31907bd0,,,,,,,,,,,,,,,,,,,,,,,l,0,"[""0.187"",""0.552"",""0.256"",""0.904""]","[1,1,0,1]",0,15,15,15,1,0,0,,,1,FALSE,1.957,,,,,,,,,,,,,,,,,,,,,,,,,,,,,,,
,5f3c6cd228b373af8d934e21,627c67ca2d82484ba394ff51,2022-05-11_20h50.32.107,classification_task,2021.2.3,MacIntel,60.0024001,627c6715c52fd12f31907bd0,,,,,,,,,,,,,,,,,,,,,,,l,1,"[""0.080"",""0.138"",""0.464"",""0.728""]","[1,0,1,1]",0,16,16,16,1,1,1,,,1,FALSE,1.1326,,,,,,,,,,,,,,,,,,,,,,,,,,,,,,,
,5f3c6cd228b373af8d934e21,627c67ca2d82484ba394ff51,2022-05-11_20h50.32.107,classification_task,2021.2.3,MacIntel,60.0024001,627c6715c52fd12f31907bd0,,,,,,,,,,,,,,,,,,,,,,,l,1,"[""0.041"",""0.410"",""0.667"",""0.138""]","[1,1,1,0]",0,17,17,17,1,1,0,,,1,FALSE,0.6731,,,,,,,,,,,,,,,,,,,,,,,,,,,,,,,
,5f3c6cd228b373af8d934e21,627c67ca2d82484ba394ff51,2022-05-11_20h50.32.107,classification_task,2021.2.3,MacIntel,60.0024001,627c6715c52fd12f31907bd0,,,,,,,,,,,,,,,,,,,,,,,a,1,"[""0.317"",""0.507"",""0.278"",""0.971""]","[1,1,0,1]",0,18,18,18,1,0,1,,,1,FALSE,0.8195,,,,,,,,,,,,,,,,,,,,,,,,,,,,,,,
,5f3c6cd228b373af8d934e21,627c67ca2d82484ba394ff51,2022-05-11_20h50.32.107,classification_task,2021.2.3,MacIntel,60.0024001,627c6715c52fd12f31907bd0,,,,,,,,,,,,,,,,,,,,,,,a,1,"[""0.187"",""0.552"",""0.278"",""0.904""]","[1,1,0,1]",0,19,19,19,1,0,0,,,1,FALSE,1.0049,,,,,,,,,,,,,,,,,,,,,,,,,,,,,,,
,5f3c6cd228b373af8d934e21,627c67ca2d82484ba394ff51,2022-05-11_20h50.32.107,classification_task,2021.2.3,MacIntel,60.0024001,627c6715c52fd12f31907bd0,,,,,,,,,,,,,,,,,,,,,,,l,1,"[""0.041"",""0.232"",""0.667"",""0.770""]","[1,0,1,1]",0,20,20,20,1,1,0,,,1,FALSE,0.723,,,,,,,,,,,,,,,,,,,,,,,,,,,,,,,
,5f3c6cd228b373af8d934e21,627c67ca2d82484ba394ff51,2022-05-11_20h50.32.107,classification_task,2021.2.3,MacIntel,60.0024001,627c6715c52fd12f31907bd0,,,,,,,,,,,,,,,,,,,,,,,a,0,"[""0.146"",""0.410"",""0.667"",""0.770""]","[0,1,1,1]",0,21,21,21,1,1,0,,,1,FALSE,0.7178,,,,,,,,,,,,,,,,,,,,,,,,,,,,,,,
,5f3c6cd228b373af8d934e21,627c67ca2d82484ba394ff51,2022-05-11_20h50.32.107,classification_task,2021.2.3,MacIntel,60.0024001,627c6715c52fd12f31907bd0,,,,,,,,,,,,,,,,,,,,,,,l,1,"[""0.080"",""0.355"",""0.138"",""0.728""]","[1,1,0,1]",0,22,22,22,1,1,1,,,1,FALSE,1.1547,,,,,,,,,,,,,,,,,,,,,,,,,,,,,,,
,5f3c6cd228b373af8d934e21,627c67ca2d82484ba394ff51,2022-05-11_20h50.32.107,classification_task,2021.2.3,MacIntel,60.0024001,627c6715c52fd12f31907bd0,,,,,,,,,,,,,,,,,,,,,,,l,0,"[""0.187"",""0.140"",""0.843"",""0.904""]","[1,0,1,1]",0,23,23,23,1,0,0,,,1,FALSE,0.8168,,,,,,,,,,,,,,,,,,,,,,,,,,,,,,,
,5f3c6cd228b373af8d934e21,627c67ca2d82484ba394ff51,2022-05-11_20h50.32.107,classification_task,2021.2.3,MacIntel,60.0024001,627c6715c52fd12f31907bd0,,,,,,,,,,,,,,,,,,,,,,,a,1,"[""0.187"",""0.552"",""0.843"",""0.146""]","[1,1,1,0]",0,24,24,24,1,0,0,,,1,FALSE,0.6645,,,,,,,,,,,,,,,,,,,,,,,,,,,,,,,
,5f3c6cd228b373af8d934e21,627c67ca2d82484ba394ff51,2022-05-11_20h50.32.107,classification_task,2021.2.3,MacIntel,60.0024001,627c6715c52fd12f31907bd0,,,,,,,,,,,,,,,,,,,,,,,l,0,"[""0.317"",""0.146"",""0.600"",""0.971""]","[1,0,1,1]",0,25,25,25,1,0,1,,,1,FALSE,1.0261,,,,,,,,,,,,,,,,,,,,,,,,,,,,,,,
,5f3c6cd228b373af8d934e21,627c67ca2d82484ba394ff51,2022-05-11_20h50.32.107,classification_task,2021.2.3,MacIntel,60.0024001,627c6715c52fd12f31907bd0,,,,,,,,,,,,,,,,,,,,,,,a,1,"[""0.141"",""0.507"",""0.600"",""0.971""]","[0,1,1,1]",0,26,26,26,1,0,1,,,1,FALSE,0.6715,,,,,,,,,,,,,,,,,,,,,,,,,,,,,,,
,5f3c6cd228b373af8d934e21,627c67ca2d82484ba394ff51,2022-05-11_20h50.32.107,classification_task,2021.2.3,MacIntel,60.0024001,627c6715c52fd12f31907bd0,,,,,,,,,,,,,,,,,,,,,,,a,0,"[""0.140"",""0.355"",""0.464"",""0.728""]","[0,1,1,1]",0,27,27,27,1,1,1,,,1,FALSE,0.9676,,,,,,,,,,,,,,,,,,,,,,,,,,,,,,,
,5f3c6cd228b373af8d934e21,627c67ca2d82484ba394ff51,2022-05-11_20h50.32.107,classification_task,2021.2.3,MacIntel,60.0024001,627c6715c52fd12f31907bd0,,,,,,,,,,,,,,,,,,,,,,,l,1,"[""0.080"",""0.355"",""0.464"",""0.123""]","[1,1,1,0]",0,28,28,28,1,1,1,,,1,FALSE,0.7688,,,,,,,,,,,,,,,,,,,,,,,,,,,,,,,
,5f3c6cd228b373af8d934e21,627c67ca2d82484ba394ff51,2022-05-11_20h50.32.107,classification_task,2021.2.3,MacIntel,60.0024001,627c6715c52fd12f31907bd0,,,,,,,,,,,,,,,,,,,,,,,l,1,"[""0.041"",""0.410"",""0.232"",""0.770""]","[1,1,0,1]",0,29,29,29,1,1,0,,,1,FALSE,1.254,,,,,,,,,,,,,,,,,,,,,,,,,,,,,,,
,5f3c6cd228b373af8d934e21,627c67ca2d82484ba394ff51,2022-05-11_20h50.32.107,classification_task,2021.2.3,MacIntel,60.0024001,627c6715c52fd12f31907bd0,,,,,,,,,,,,,,,,,,,,,,,a,1,"[""0.248"",""0.552"",""0.843"",""0.904""]","[0,1,1,1]",0,30,30,30,1,0,0,,,1,FALSE,1.1358,,,,,,,,,,,,,,,,,,,,,,,,,,,,,,,
,5f3c6cd228b373af8d934e21,627c67ca2d82484ba394ff51,2022-05-11_20h50.32.107,classification_task,2021.2.3,MacIntel,60.0024001,627c6715c52fd12f31907bd0,,,,,,,,,,,,,,,,,,,,,,,a,1,"[""0.317"",""0.507"",""0.600"",""0.256""]","[1,1,1,0]",0,31,31,31,1,0,1,,,1,FALSE,2.5711,,,,,,,,,,,,,,,,,,,,,,,,,,,,,,,
,5f3c6cd228b373af8d934e21,627c67ca2d82484ba394ff51,2022-05-11_20h50.32.107,classification_task,2021.2.3,MacIntel,60.0024001,627c6715c52fd12f31907bd0,,,,,,,,,,,,,,,,,,,,,,,l,1,"[""0.080"",""0.355"",""0.140"",""0.728""]","[1,1,0,1]",0,32,32,32,1,1,1,,,1,FALSE,0.9869,,,,,,,,,,,,,,,,,,,,,,,,,,,,,,,
,5f3c6cd228b373af8d934e21,627c67ca2d82484ba394ff51,2022-05-11_20h50.32.107,classification_task,2021.2.3,MacIntel,60.0024001,627c6715c52fd12f31907bd0,,,,,,,,,,,,,,,,,,,,,,,a,1,"[""0.227"",""0.507"",""0.600"",""0.971""]","[0,1,1,1]",0,33,33,33,1,0,1,,,1,FALSE,1.2759,,,,,,,,,,,,,,,,,,,,,,,,,,,,,,,
,5f3c6cd228b373af8d934e21,627c67ca2d82484ba394ff51,2022-05-11_20h50.32.107,classification_task,2021.2.3,MacIntel,60.0024001,627c6715c52fd12f31907bd0,,,,,,,,,,,,,,,,,,,,,,,a,0,"[""0.140"",""0.355"",""0.464"",""0.728""]","[0,1,1,1]",0,34,34,34,1,1,1,,,1,FALSE,0.8749,,,,,,,,,,,,,,,,,,,,,,,,,,,,,,,
,5f3c6cd228b373af8d934e21,627c67ca2d82484ba394ff51,2022-05-11_20h50.32.107,classification_task,2021.2.3,MacIntel,60.0024001,627c6715c52fd12f31907bd0,,,,,,,,,,,,,,,,,,,,,,,a,1,"[""0.256"",""0.552"",""0.843"",""0.904""]","[0,1,1,1]",0,35,35,35,1,0,0,,,1,FALSE,1.3997,,,,,,,,,,,,,,,,,,,,,,,,,,,,,,,
,5f3c6cd228b373af8d934e21,627c67ca2d82484ba394ff51,2022-05-11_20h50.32.107,classification_task,2021.2.3,MacIntel,60.0024001,627c6715c52fd12f31907bd0,,,,,,,,,,,,,,,,,,,,,,,l,1,"[""0.041"",""0.278"",""0.667"",""0.770""]","[1,0,1,1]",0,36,36,36,1,1,0,,,1,FALSE,0.8774,,,,,,,,,,,,,,,,,,,,,,,,,,,,,,,
,5f3c6cd228b373af8d934e21,627c67ca2d82484ba394ff51,2022-05-11_20h50.32.107,classification_task,2021.2.3,MacIntel,60.0024001,627c6715c52fd12f31907bd0,,,,,,,,,,,,,,,,,,,,,,,a,1,"[""0.317"",""0.507"",""0.600"",""0.124""]","[1,1,1,0]",0,37,37,37,1,0,1,,,1,FALSE,0.8239,,,,,,,,,,,,,,,,,,,,,,,,,,,,,,,
,5f3c6cd228b373af8d934e21,627c67ca2d82484ba394ff51,2022-05-11_20h50.32.107,classification_task,2021.2.3,MacIntel,60.0024001,627c6715c52fd12f31907bd0,,,,,,,,,,,,,,,,,,,,,,,l,0,"[""0.187"",""0.552"",""0.123"",""0.904""]","[1,1,0,1]",0,38,38,38,1,0,0,,,1,FALSE,0.9823,,,,,,,,,,,,,,,,,,,,,,,,,,,,,,,
,5f3c6cd228b373af8d934e21,627c67ca2d82484ba394ff51,2022-05-11_20h50.32.107,classification_task,2021.2.3,MacIntel,60.0024001,627c6715c52fd12f31907bd0,,,,,,,,,,,,,,,,,,,,,,,a,1,"[""0.317"",""0.507"",""0.146"",""0.971""]","[1,1,0,1]",0,39,39,39,1,0,1,,,1,FALSE,0.703,,,,,,,,,,,,,,,,,,,,,,,,,,,,,,,
,5f3c6cd228b373af8d934e21,627c67ca2d82484ba394ff51,2022-05-11_20h50.32.107,classification_task,2021.2.3,MacIntel,60.0024001,627c6715c52fd12f31907bd0,,,,,,,,,,,,,,,,,,,,,,,l,1,"[""0.080"",""0.140"",""0.464"",""0.728""]","[1,0,1,1]",0,40,40,40,1,1,1,,,1,FALSE,0.6586,,,,,,,,,,,,,,,,,,,,,,,,,,,,,,,
,5f3c6cd228b373af8d934e21,627c67ca2d82484ba394ff51,2022-05-11_20h50.32.107,classification_task,2021.2.3,MacIntel,60.0024001,627c6715c52fd12f31907bd0,,,,,,,,,,,,,,,,,,,,,,,a,1,"[""0.317"",""0.232"",""0.600"",""0.971""]","[1,0,1,1]",0,41,41,41,1,0,1,,,1,FALSE,1.0019,,,,,,,,,,,,,,,,,,,,,,,,,,,,,,,
,5f3c6cd228b373af8d934e21,627c67ca2d82484ba394ff51,2022-05-11_20h50.32.107,classification_task,2021.2.3,MacIntel,60.0024001,627c6715c52fd12f31907bd0,,,,,,,,,,,,,,,,,,,,,,,a,1,"[""0.187"",""0.248"",""0.843"",""0.904""]","[1,0,1,1]",0,42,42,42,1,0,0,,,1,FALSE,0.8803,,,,,,,,,,,,,,,,,,,,,,,,,,,,,,,
,5f3c6cd228b373af8d934e21,627c67ca2d82484ba394ff51,2022-05-11_20h50.32.107,classification_task,2021.2.3,MacIntel,60.0024001,627c6715c52fd12f31907bd0,,,,,,,,,,,,,,,,,,,,,,,l,1,"[""0.041"",""0.410"",""0.667"",""0.246""]","[1,1,1,0]",0,43,43,43,1,1,0,,,1,FALSE,0.886,,,,,,,,,,,,,,,,,,,,,,,,,,,,,,,
,5f3c6cd228b373af8d934e21,627c67ca2d82484ba394ff51,2022-05-11_20h50.32.107,classification_task,2021.2.3,MacIntel,60.0024001,627c6715c52fd12f31907bd0,,,,,,,,,,,,,,,,,,,,,,,l,1,"[""0.080"",""0.355"",""0.464"",""0.114""]","[1,1,1,0]",0,44,44,44,1,1,1,,,1,FALSE,0.9312,,,,,,,,,,,,,,,,,,,,,,,,,,,,,,,
,5f3c6cd228b373af8d934e21,627c67ca2d82484ba394ff51,2022-05-11_20h50.32.107,classification_task,2021.2.3,MacIntel,60.0024001,627c6715c52fd12f31907bd0,,,,,,,,,,,,,,,,,,,,,,,l,1,"[""0.041"",""0.410"",""0.140"",""0.770""]","[1,1,0,1]",0,45,45,45,1,1,0,,,1,FALSE,0.7086,,,,,,,,,,,,,,,,,,,,,,,,,,,,,,,
,5f3c6cd228b373af8d934e21,627c67ca2d82484ba394ff51,2022-05-11_20h50.32.107,classification_task,2021.2.3,MacIntel,60.0024001,627c6715c52fd12f31907bd0,,,,,,,,,,,,,,,,,,,,,,,a,0,"[""0.246"",""0.410"",""0.667"",""0.770""]","[0,1,1,1]",0,46,46,46,1,1,0,,,1,FALSE,0.5874,,,,,,,,,,,,,,,,,,,,,,,,,,,,,,,
,5f3c6cd228b373af8d934e21,627c67ca2d82484ba394ff51,2022-05-11_20h50.32.107,classification_task,2021.2.3,MacIntel,60.0024001,627c6715c52fd12f31907bd0,,,,,,,,,,,,,,,,,,,,,,,a,1,"[""0.187"",""0.552"",""0.843"",""0.222""]","[1,1,1,0]",0,47,47,47,1,0,0,,,1,FALSE,0.8212,,,,,,,,,,,,,,,,,,,,,,,,,,,,,,,
,5f3c6cd228b373af8d934e21,627c67ca2d82484ba394ff51,2022-05-11_20h50.32.107,classification_task,2021.2.3,MacIntel,60.0024001,627c6715c52fd12f31907bd0,,,,,,,,,,,,,,,,,,,,,,,a,1,"[""0.317"",""0.507"",""0.600"",""0.246""]","[1,1,1,0]",0,48,48,48,1,0,1,,,1,FALSE,0.6898,,,,,,,,,,,,,,,,,,,,,,,,,,,,,,,
,5f3c6cd228b373af8d934e21,627c67ca2d82484ba394ff51,2022-05-11_20h50.32.107,classification_task,2021.2.3,MacIntel,60.0024001,627c6715c52fd12f31907bd0,,,,,,,,,,,,,,,,,,,,,,,a,1,"[""0.317"",""0.507"",""0.269"",""0.971""]","[1,1,0,1]",0,49,49,49,1,0,1,,,1,FALSE,0.6508,,,,,,,,,,,,,,,,,,,,,,,,,,,,,,,
,5f3c6cd228b373af8d934e21,627c67ca2d82484ba394ff51,2022-05-11_20h50.32.107,classification_task,2021.2.3,MacIntel,60.0024001,627c6715c52fd12f31907bd0,,,,,,,,,,,,,,,,,,,,,,,a,1,"[""0.317"",""0.146"",""0.600"",""0.971""]","[1,0,1,1]",0,50,50,50,1,0,1,,,1,FALSE,0.7011,,,,,,,,,,,,,,,,,,,,,,,,,,,,,,,
,5f3c6cd228b373af8d934e21,627c67ca2d82484ba394ff51,2022-05-11_20h50.32.107,classification_task,2021.2.3,MacIntel,60.0024001,627c6715c52fd12f31907bd0,,,,,,,,,,,,,,,,,,,,,,,a,0,"[""0.041"",""0.124"",""0.667"",""0.770""]","[1,0,1,1]",0,51,51,51,1,1,0,,,1,FALSE,0.8009,,,,,,,,,,,,,,,,,,,,,,,,,,,,,,,
,5f3c6cd228b373af8d934e21,627c67ca2d82484ba394ff51,2022-05-11_20h50.32.107,classification_task,2021.2.3,MacIntel,60.0024001,627c6715c52fd12f31907bd0,,,,,,,,,,,,,,,,,,,,,,,l,1,"[""0.080"",""0.227"",""0.464"",""0.728""]","[1,0,1,1]",0,52,52,52,1,1,1,,,1,FALSE,0.784,,,,,,,,,,,,,,,,,,,,,,,,,,,,,,,
,5f3c6cd228b373af8d934e21,627c67ca2d82484ba394ff51,2022-05-11_20h50.32.107,classification_task,2021.2.3,MacIntel,60.0024001,627c6715c52fd12f31907bd0,,,,,,,,,,,,,,,,,,,,,,,l,1,"[""0.080"",""0.355"",""0.464"",""0.269""]","[1,1,1,0]",0,53,53,53,1,1,1,,,1,FALSE,0.6657,,,,,,,,,,,,,,,,,,,,,,,,,,,,,,,
,5f3c6cd228b373af8d934e21,627c67ca2d82484ba394ff51,2022-05-11_20h50.32.107,classification_task,2021.2.3,MacIntel,60.0024001,627c6715c52fd12f31907bd0,,,,,,,,,,,,,,,,,,,,,,,l,1,"[""0.080"",""0.355"",""0.146"",""0.728""]","[1,1,0,1]",0,54,54,54,1,1,1,,,1,FALSE,0.5584,,,,,,,,,,,,,,,,,,,,,,,,,,,,,,,
,5f3c6cd228b373af8d934e21,627c67ca2d82484ba394ff51,2022-05-11_20h50.32.107,classification_task,2021.2.3,MacIntel,60.0024001,627c6715c52fd12f31907bd0,,,,,,,,,,,,,,,,,,,,,,,a,1,"[""0.187"",""0.552"",""0.141"",""0.904""]","[1,1,0,1]",0,55,55,55,1,0,0,,,1,FALSE,0.7522,,,,,,,,,,,,,,,,,,,,,,,,,,,,,,,
,5f3c6cd228b373af8d934e21,627c67ca2d82484ba394ff51,2022-05-11_20h50.32.107,classification_task,2021.2.3,MacIntel,60.0024001,627c6715c52fd12f31907bd0,,,,,,,,,,,,,,,,,,,,,,,a,1,"[""0.187"",""0.552"",""0.843"",""0.222""]","[1,1,1,0]",0,56,56,56,1,0,0,,,1,FALSE,0.702,,,,,,,,,,,,,,,,,,,,,,,,,,,,,,,
,5f3c6cd228b373af8d934e21,627c67ca2d82484ba394ff51,2022-05-11_20h50.32.107,classification_task,2021.2.3,MacIntel,60.0024001,627c6715c52fd12f31907bd0,,,,,,,,,,,,,,,,,,,,,,,l,1,"[""0.114"",""0.410"",""0.667"",""0.770""]","[0,1,1,1]",0,57,57,57,1,1,0,,,1,FALSE,0.9023,,,,,,,,,,,,,,,,,,,,,,,,,,,,,,,
,5f3c6cd228b373af8d934e21,627c67ca2d82484ba394ff51,2022-05-11_20h50.32.107,classification_task,2021.2.3,MacIntel,60.0024001,627c6715c52fd12f31907bd0,,,,,,,,,,,,,,,,,,,,,,,a,0,"[""0.276"",""0.355"",""0.464"",""0.728""]","[0,1,1,1]",0,58,58,58,1,1,1,,,1,FALSE,0.666,,,,,,,,,,,,,,,,,,,,,,,,,,,,,,,
,5f3c6cd228b373af8d934e21,627c67ca2d82484ba394ff51,2022-05-11_20h50.32.107,classification_task,2021.2.3,MacIntel,60.0024001,627c6715c52fd12f31907bd0,,,,,,,,,,,,,,,,,,,,,,,a,1,"[""0.232"",""0.552"",""0.843"",""0.904""]","[0,1,1,1]",0,59,59,59,1,0,0,,,1,FALSE,1.0991,,,,,,,,,,,,,,,,,,,,,,,,,,,,,,,
,5f3c6cd228b373af8d934e21,627c67ca2d82484ba394ff51,2022-05-11_20h50.32.107,classification_task,2021.2.3,MacIntel,60.0024001,627c6715c52fd12f31907bd0,,,,,,,,,,,,,,,,,,,,,,,a,1,"[""0.187"",""0.278"",""0.843"",""0.904""]","[1,0,1,1]",0,60,60,60,1,0,0,,,1,FALSE,0.8555,,,,,,,,,,,,,,,,,,,,,,,,,,,,,,,
,5f3c6cd228b373af8d934e21,627c67ca2d82484ba394ff51,2022-05-11_20h50.32.107,classification_task,2021.2.3,MacIntel,60.0024001,627c6715c52fd12f31907bd0,,,,,,,,,,,,,,,,,,,,,,,a,1,"[""0.146"",""0.507"",""0.600"",""0.971""]","[0,1,1,1]",0,61,61,61,1,0,1,,,1,FALSE,1.0671,,,,,,,,,,,,,,,,,,,,,,,,,,,,,,,
,5f3c6cd228b373af8d934e21,627c67ca2d82484ba394ff51,2022-05-11_20h50.32.107,classification_task,2021.2.3,MacIntel,60.0024001,627c6715c52fd12f31907bd0,,,,,,,,,,,,,,,,,,,,,,,l,1,"[""0.041"",""0.410"",""0.222"",""0.770""]","[1,1,0,1]",0,62,62,62,1,1,0,,,1,FALSE,0.7039,,,,,,,,,,,,,,,,,,,,,,,,,,,,,,,
,5f3c6cd228b373af8d934e21,627c67ca2d82484ba394ff51,2022-05-11_20h50.32.107,classification_task,2021.2.3,MacIntel,60.0024001,627c6715c52fd12f31907bd0,,,,,,,,,,,,,,,,,,,,,,,l,1,"[""0.041"",""0.410"",""0.667"",""0.222""]","[1,1,1,0]",0,63,63,63,1,1,0,,,1,FALSE,0.703,,,,,,,,,,,,,,,,,,,,,,,,,,,,,,,
,5f3c6cd228b373af8d934e21,627c67ca2d82484ba394ff51,2022-05-11_20h50.32.107,classification_task,2021.2.3,MacIntel,60.0024001,627c6715c52fd12f31907bd0,,,,,,,,,,,,,,,,,,,,,,,,,,,,,,,,,,,,,,,0, ,,0,0,151.2821,0,1,1,1,1,2,2,,,,,,,,,,,,,,,,,,
,5f3c6cd228b373af8d934e21,627c67ca2d82484ba394ff51,2022-05-11_20h50.32.107,classification_task,2021.2.3,MacIntel,60.0024001,627c6715c52fd12f31907bd0,,,,,,,,,,,,,,,,,,,,,,,,,,,,,,,,,,,,,,,1,  ,,0,8.490039393,155.1247,0,1,1,1,1,2,2,,,,,,,,,,,,,,,,,,
,5f3c6cd228b373af8d934e21,627c67ca2d82484ba394ff51,2022-05-11_20h50.32.107,classification_task,2021.2.3,MacIntel,60.0024001,627c6715c52fd12f31907bd0,,,,,,,,,,,,,,,,,,,,,,,,,,,,,,,,,,,,,,,2,  ,,0,7.951889442,159.8127,0,1,1,1,1,2,2,,,,,,,,,,,,,,,,,,
,5f3c6cd228b373af8d934e21,627c67ca2d82484ba394ff51,2022-05-11_20h50.32.107,classification_task,2021.2.3,MacIntel,60.0024001,627c6715c52fd12f31907bd0,,,,,,,,,,,,,,,,,,,,,,,,,,,,,,,,,,,,,,,,,,,,,0,1,1,1,1,,2,,,,,,,,,,,,,,,,,,
,5f3c6cd228b373af8d934e21,627c67ca2d82484ba394ff51,2022-05-11_20h50.32.107,classification_task,2021.2.3,MacIntel,60.0024001,627c6715c52fd12f31907bd0,,,,,,,,,,,,,,,,,,,,,space,8.342,l,1,"[""0.080"",""0.355"",""0.232"",""0.728""]","[1,1,0,1]",0,0,0,0,1,1,1,,,1,FALSE,2.1771,,,,,,,,,,,,,,,,,,,,,,,,,,,,,,,
,5f3c6cd228b373af8d934e21,627c67ca2d82484ba394ff51,2022-05-11_20h50.32.107,classification_task,2021.2.3,MacIntel,60.0024001,627c6715c52fd12f31907bd0,,,,,,,,,,,,,,,,,,,,,,,a,0,"[""0.080"",""0.355"",""0.464"",""0.146""]","[1,1,1,0]",0,1,1,1,1,1,1,,,1,FALSE,2.1511,,,,,,,,,,,,,,,,,,,,,,,,,,,,,,,
,5f3c6cd228b373af8d934e21,627c67ca2d82484ba394ff51,2022-05-11_20h50.32.107,classification_task,2021.2.3,MacIntel,60.0024001,627c6715c52fd12f31907bd0,,,,,,,,,,,,,,,,,,,,,,,a,1,"[""0.317"",""0.227"",""0.600"",""0.971""]","[1,0,1,1]",0,2,2,2,1,0,1,,,1,FALSE,1.2929,,,,,,,,,,,,,,,,,,,,,,,,,,,,,,,
,5f3c6cd228b373af8d934e21,627c67ca2d82484ba394ff51,2022-05-11_20h50.32.107,classification_task,2021.2.3,MacIntel,60.0024001,627c6715c52fd12f31907bd0,,,,,,,,,,,,,,,,,,,,,,,l,1,"[""0.041"",""0.138"",""0.667"",""0.770""]","[1,0,1,1]",0,3,3,3,1,1,0,,,1,FALSE,0.9767,,,,,,,,,,,,,,,,,,,,,,,,,,,,,,,
,5f3c6cd228b373af8d934e21,627c67ca2d82484ba394ff51,2022-05-11_20h50.32.107,classification_task,2021.2.3,MacIntel,60.0024001,627c6715c52fd12f31907bd0,,,,,,,,,,,,,,,,,,,,,,,a,1,"[""0.317"",""0.507"",""0.232"",""0.971""]","[1,1,0,1]",0,4,4,4,1,0,1,,,1,FALSE,1.1583,,,,,,,,,,,,,,,,,,,,,,,,,,,,,,,
,5f3c6cd228b373af8d934e21,627c67ca2d82484ba394ff51,2022-05-11_20h50.32.107,classification_task,2021.2.3,MacIntel,60.0024001,627c6715c52fd12f31907bd0,,,,,,,,,,,,,,,,,,,,,,,a,1,"[""0.269"",""0.552"",""0.843"",""0.904""]","[0,1,1,1]",0,5,5,5,1,0,0,,,1,FALSE,2.2151,,,,,,,,,,,,,,,,,,,,,,,,,,,,,,,
,5f3c6cd228b373af8d934e21,627c67ca2d82484ba394ff51,2022-05-11_20h50.32.107,classification_task,2021.2.3,MacIntel,60.0024001,627c6715c52fd12f31907bd0,,,,,,,,,,,,,,,,,,,,,,,a,1,"[""0.317"",""0.507"",""0.600"",""0.232""]","[1,1,1,0]",0,6,6,6,1,0,1,,,1,FALSE,1.3308,,,,,,,,,,,,,,,,,,,,,,,,,,,,,,,
,5f3c6cd228b373af8d934e21,627c67ca2d82484ba394ff51,2022-05-11_20h50.32.107,classification_task,2021.2.3,MacIntel,60.0024001,627c6715c52fd12f31907bd0,,,,,,,,,,,,,,,,,,,,,,,a,0,"[""0.246"",""0.410"",""0.667"",""0.770""]","[0,1,1,1]",0,7,7,7,1,1,0,,,1,FALSE,1.0209,,,,,,,,,,,,,,,,,,,,,,,,,,,,,,,
,5f3c6cd228b373af8d934e21,627c67ca2d82484ba394ff51,2022-05-11_20h50.32.107,classification_task,2021.2.3,MacIntel,60.0024001,627c6715c52fd12f31907bd0,,,,,,,,,,,,,,,,,,,,,,,l,1,"[""0.041"",""0.410"",""0.123"",""0.770""]","[1,1,0,1]",0,8,8,8,1,1,0,,,1,FALSE,0.7298,,,,,,,,,,,,,,,,,,,,,,,,,,,,,,,
,5f3c6cd228b373af8d934e21,627c67ca2d82484ba394ff51,2022-05-11_20h50.32.107,classification_task,2021.2.3,MacIntel,60.0024001,627c6715c52fd12f31907bd0,,,,,,,,,,,,,,,,,,,,,,,l,0,"[""0.114"",""0.507"",""0.600"",""0.971""]","[0,1,1,1]",0,9,9,9,1,0,1,,,1,FALSE,1.3923,,,,,,,,,,,,,,,,,,,,,,,,,,,,,,,
,5f3c6cd228b373af8d934e21,627c67ca2d82484ba394ff51,2022-05-11_20h50.32.107,classification_task,2021.2.3,MacIntel,60.0024001,627c6715c52fd12f31907bd0,,,,,,,,,,,,,,,,,,,,,,,a,1,"[""0.187"",""0.232"",""0.843"",""0.904""]","[1,0,1,1]",0,10,10,10,1,0,0,,,1,FALSE,1.1823,,,,,,,,,,,,,,,,,,,,,,,,,,,,,,,
,5f3c6cd228b373af8d934e21,627c67ca2d82484ba394ff51,2022-05-11_20h50.32.107,classification_task,2021.2.3,MacIntel,60.0024001,627c6715c52fd12f31907bd0,,,,,,,,,,,,,,,,,,,,,,,l,1,"[""0.080"",""0.222"",""0.464"",""0.728""]","[1,0,1,1]",0,11,11,11,1,1,1,,,1,FALSE,1.4781,,,,,,,,,,,,,,,,,,,,,,,,,,,,,,,
,5f3c6cd228b373af8d934e21,627c67ca2d82484ba394ff51,2022-05-11_20h50.32.107,classification_task,2021.2.3,MacIntel,60.0024001,627c6715c52fd12f31907bd0,,,,,,,,,,,,,,,,,,,,,,,l,1,"[""0.141"",""0.355"",""0.464"",""0.728""]","[0,1,1,1]",0,12,12,12,1,1,1,,,1,FALSE,2.2244,,,,,,,,,,,,,,,,,,,,,,,,,,,,,,,
,5f3c6cd228b373af8d934e21,627c67ca2d82484ba394ff51,2022-05-11_20h50.32.107,classification_task,2021.2.3,MacIntel,60.0024001,627c6715c52fd12f31907bd0,,,,,,,,,,,,,,,,,,,,,,,l,1,"[""0.041"",""0.410"",""0.667"",""0.124""]","[1,1,1,0]",0,13,13,13,1,1,0,,,1,FALSE,1.3471,,,,,,,,,,,,,,,,,,,,,,,,,,,,,,,
,5f3c6cd228b373af8d934e21,627c67ca2d82484ba394ff51,2022-05-11_20h50.32.107,classification_task,2021.2.3,MacIntel,60.0024001,627c6715c52fd12f31907bd0,,,,,,,,,,,,,,,,,,,,,,,a,1,"[""0.187"",""0.552"",""0.138"",""0.904""]","[1,1,0,1]",0,14,14,14,1,0,0,,,1,FALSE,1.7561,,,,,,,,,,,,,,,,,,,,,,,,,,,,,,,
,5f3c6cd228b373af8d934e21,627c67ca2d82484ba394ff51,2022-05-11_20h50.32.107,classification_task,2021.2.3,MacIntel,60.0024001,627c6715c52fd12f31907bd0,,,,,,,,,,,,,,,,,,,,,,,a,1,"[""0.187"",""0.552"",""0.843"",""0.248""]","[1,1,1,0]",0,15,15,15,1,0,0,,,1,FALSE,1.1494,,,,,,,,,,,,,,,,,,,,,,,,,,,,,,,
,5f3c6cd228b373af8d934e21,627c67ca2d82484ba394ff51,2022-05-11_20h50.32.107,classification_task,2021.2.3,MacIntel,60.0024001,627c6715c52fd12f31907bd0,,,,,,,,,,,,,,,,,,,,,,,l,1,"[""0.080"",""0.232"",""0.464"",""0.728""]","[1,0,1,1]",0,16,16,16,1,1,1,,,1,FALSE,2.0766,,,,,,,,,,,,,,,,,,,,,,,,,,,,,,,
,5f3c6cd228b373af8d934e21,627c67ca2d82484ba394ff51,2022-05-11_20h50.32.107,classification_task,2021.2.3,MacIntel,60.0024001,627c6715c52fd12f31907bd0,,,,,,,,,,,,,,,,,,,,,,,l,1,"[""0.080"",""0.355"",""0.123"",""0.728""]","[1,1,0,1]",0,17,17,17,1,1,1,,,1,FALSE,3.6523,,,,,,,,,,,,,,,,,,,,,,,,,,,,,,,
,5f3c6cd228b373af8d934e21,627c67ca2d82484ba394ff51,2022-05-11_20h50.32.107,classification_task,2021.2.3,MacIntel,60.0024001,627c6715c52fd12f31907bd0,,,,,,,,,,,,,,,,,,,,,,,a,1,"[""0.317"",""0.507"",""0.278"",""0.971""]","[1,1,0,1]",0,18,18,18,1,0,1,,,1,FALSE,2.0779,,,,,,,,,,,,,,,,,,,,,,,,,,,,,,,
,5f3c6cd228b373af8d934e21,627c67ca2d82484ba394ff51,2022-05-11_20h50.32.107,classification_task,2021.2.3,MacIntel,60.0024001,627c6715c52fd12f31907bd0,,,,,,,,,,,,,,,,,,,,,,,l,1,"[""0.041"",""0.138"",""0.667"",""0.770""]","[1,0,1,1]",0,19,19,19,1,1,0,,,1,FALSE,2.3227,,,,,,,,,,,,,,,,,,,,,,,,,,,,,,,
,5f3c6cd228b373af8d934e21,627c67ca2d82484ba394ff51,2022-05-11_20h50.32.107,classification_task,2021.2.3,MacIntel,60.0024001,627c6715c52fd12f31907bd0,,,,,,,,,,,,,,,,,,,,,,,a,1,"[""0.317"",""0.276"",""0.600"",""0.971""]","[1,0,1,1]",0,20,20,20,1,0,1,,,1,FALSE,2.2953,,,,,,,,,,,,,,,,,,,,,,,,,,,,,,,
,5f3c6cd228b373af8d934e21,627c67ca2d82484ba394ff51,2022-05-11_20h50.32.107,classification_task,2021.2.3,MacIntel,60.0024001,627c6715c52fd12f31907bd0,,,,,,,,,,,,,,,,,,,,,,,l,1,"[""0.080"",""0.355"",""0.464"",""0.248""]","[1,1,1,0]",0,21,21,21,1,1,1,,,1,FALSE,1.1446,,,,,,,,,,,,,,,,,,,,,,,,,,,,,,,
,5f3c6cd228b373af8d934e21,627c67ca2d82484ba394ff51,2022-05-11_20h50.32.107,classification_task,2021.2.3,MacIntel,60.0024001,627c6715c52fd12f31907bd0,,,,,,,,,,,,,,,,,,,,,,,a,1,"[""0.187"",""0.552"",""0.843"",""0.232""]","[1,1,1,0]",0,22,22,22,1,0,0,,,1,FALSE,1.7716,,,,,,,,,,,,,,,,,,,,,,,,,,,,,,,
,5f3c6cd228b373af8d934e21,627c67ca2d82484ba394ff51,2022-05-11_20h50.32.107,classification_task,2021.2.3,MacIntel,60.0024001,627c6715c52fd12f31907bd0,,,,,,,,,,,,,,,,,,,,,,,l,0,"[""0.123"",""0.507"",""0.600"",""0.971""]","[0,1,1,1]",0,23,23,23,1,0,1,,,1,FALSE,0.9438,,,,,,,,,,,,,,,,,,,,,,,,,,,,,,,
,5f3c6cd228b373af8d934e21,627c67ca2d82484ba394ff51,2022-05-11_20h50.32.107,classification_task,2021.2.3,MacIntel,60.0024001,627c6715c52fd12f31907bd0,,,,,,,,,,,,,,,,,,,,,,,l,1,"[""0.041"",""0.410"",""0.248"",""0.770""]","[1,1,0,1]",0,24,24,24,1,1,0,,,1,FALSE,0.7834,,,,,,,,,,,,,,,,,,,,,,,,,,,,,,,
,5f3c6cd228b373af8d934e21,627c67ca2d82484ba394ff51,2022-05-11_20h50.32.107,classification_task,2021.2.3,MacIntel,60.0024001,627c6715c52fd12f31907bd0,,,,,,,,,,,,,,,,,,,,,,,a,0,"[""0.140"",""0.355"",""0.464"",""0.728""]","[0,1,1,1]",0,25,25,25,1,1,1,,,1,FALSE,1.3278,,,,,,,,,,,,,,,,,,,,,,,,,,,,,,,
,5f3c6cd228b373af8d934e21,627c67ca2d82484ba394ff51,2022-05-11_20h50.32.107,classification_task,2021.2.3,MacIntel,60.0024001,627c6715c52fd12f31907bd0,,,,,,,,,,,,,,,,,,,,,,,a,1,"[""0.317"",""0.507"",""0.600"",""0.248""]","[1,1,1,0]",0,26,26,26,1,0,1,,,1,FALSE,1.0438,,,,,,,,,,,,,,,,,,,,,,,,,,,,,,,
,5f3c6cd228b373af8d934e21,627c67ca2d82484ba394ff51,2022-05-11_20h50.32.107,classification_task,2021.2.3,MacIntel,60.0024001,627c6715c52fd12f31907bd0,,,,,,,,,,,,,,,,,,,,,,,a,1,"[""0.187"",""0.248"",""0.843"",""0.904""]","[1,0,1,1]",0,27,27,27,1,0,0,,,1,FALSE,0.6312,,,,,,,,,,,,,,,,,,,,,,,,,,,,,,,
,5f3c6cd228b373af8d934e21,627c67ca2d82484ba394ff51,2022-05-11_20h50.32.107,classification_task,2021.2.3,MacIntel,60.0024001,627c6715c52fd12f31907bd0,,,,,,,,,,,,,,,,,,,,,,,a,1,"[""0.276"",""0.552"",""0.843"",""0.904""]","[0,1,1,1]",0,28,28,28,1,0,0,,,1,FALSE,0.6365,,,,,,,,,,,,,,,,,,,,,,,,,,,,,,,
,5f3c6cd228b373af8d934e21,627c67ca2d82484ba394ff51,2022-05-11_20h50.32.107,classification_task,2021.2.3,MacIntel,60.0024001,627c6715c52fd12f31907bd0,,,,,,,,,,,,,,,,,,,,,,,a,1,"[""0.187"",""0.552"",""0.232"",""0.904""]","[1,1,0,1]",0,29,29,29,1,0,0,,,1,FALSE,0.877,,,,,,,,,,,,,,,,,,,,,,,,,,,,,,,
,5f3c6cd228b373af8d934e21,627c67ca2d82484ba394ff51,2022-05-11_20h50.32.107,classification_task,2021.2.3,MacIntel,60.0024001,627c6715c52fd12f31907bd0,,,,,,,,,,,,,,,,,,,,,,,l,1,"[""0.041"",""0.410"",""0.667"",""0.276""]","[1,1,1,0]",0,30,30,30,1,1,0,,,1,FALSE,0.5791,,,,,,,,,,,,,,,,,,,,,,,,,,,,,,,
,5f3c6cd228b373af8d934e21,627c67ca2d82484ba394ff51,2022-05-11_20h50.32.107,classification_task,2021.2.3,MacIntel,60.0024001,627c6715c52fd12f31907bd0,,,,,,,,,,,,,,,,,,,,,,,a,0,"[""0.248"",""0.410"",""0.667"",""0.770""]","[0,1,1,1]",0,31,31,31,1,1,0,,,1,FALSE,0.6163,,,,,,,,,,,,,,,,,,,,,,,,,,,,,,,
,5f3c6cd228b373af8d934e21,627c67ca2d82484ba394ff51,2022-05-11_20h50.32.107,classification_task,2021.2.3,MacIntel,60.0024001,627c6715c52fd12f31907bd0,,,,,,,,,,,,,,,,,,,,,,,a,1,"[""0.187"",""0.552"",""0.124"",""0.904""]","[1,1,0,1]",0,32,32,32,1,0,0,,,1,FALSE,1.9929,,,,,,,,,,,,,,,,,,,,,,,,,,,,,,,
,5f3c6cd228b373af8d934e21,627c67ca2d82484ba394ff51,2022-05-11_20h50.32.107,classification_task,2021.2.3,MacIntel,60.0024001,627c6715c52fd12f31907bd0,,,,,,,,,,,,,,,,,,,,,,,a,1,"[""0.187"",""0.146"",""0.843"",""0.904""]","[1,0,1,1]",0,33,33,33,1,0,0,,,1,FALSE,0.9929,,,,,,,,,,,,,,,,,,,,,,,,,,,,,,,
,5f3c6cd228b373af8d934e21,627c67ca2d82484ba394ff51,2022-05-11_20h50.32.107,classification_task,2021.2.3,MacIntel,60.0024001,627c6715c52fd12f31907bd0,,,,,,,,,,,,,,,,,,,,,,,a,0,"[""0.256"",""0.355"",""0.464"",""0.728""]","[0,1,1,1]",0,34,34,34,1,1,1,,,1,FALSE,0.7784,,,,,,,,,,,,,,,,,,,,,,,,,,,,,,,
,5f3c6cd228b373af8d934e21,627c67ca2d82484ba394ff51,2022-05-11_20h50.32.107,classification_task,2021.2.3,MacIntel,60.0024001,627c6715c52fd12f31907bd0,,,,,,,,,,,,,,,,,,,,,,,l,1,"[""0.041"",""0.227"",""0.667"",""0.770""]","[1,0,1,1]",0,35,35,35,1,1,0,,,1,FALSE,0.6484,,,,,,,,,,,,,,,,,,,,,,,,,,,,,,,
,5f3c6cd228b373af8d934e21,627c67ca2d82484ba394ff51,2022-05-11_20h50.32.107,classification_task,2021.2.3,MacIntel,60.0024001,627c6715c52fd12f31907bd0,,,,,,,,,,,,,,,,,,,,,,,a,0,"[""0.080"",""0.355"",""0.464"",""0.227""]","[1,1,1,0]",0,36,36,36,1,1,1,,,1,FALSE,1.1567,,,,,,,,,,,,,,,,,,,,,,,,,,,,,,,
,5f3c6cd228b373af8d934e21,627c67ca2d82484ba394ff51,2022-05-11_20h50.32.107,classification_task,2021.2.3,MacIntel,60.0024001,627c6715c52fd12f31907bd0,,,,,,,,,,,,,,,,,,,,,,,a,1,"[""0.317"",""0.507"",""0.600"",""0.276""]","[1,1,1,0]",0,37,37,37,1,0,1,,,1,FALSE,0.7336,,,,,,,,,,,,,,,,,,,,,,,,,,,,,,,
,5f3c6cd228b373af8d934e21,627c67ca2d82484ba394ff51,2022-05-11_20h50.32.107,classification_task,2021.2.3,MacIntel,60.0024001,627c6715c52fd12f31907bd0,,,,,,,,,,,,,,,,,,,,,,,a,1,"[""0.317"",""0.507"",""0.146"",""0.971""]","[1,1,0,1]",0,38,38,38,1,0,1,,,1,FALSE,1.2053,,,,,,,,,,,,,,,,,,,,,,,,,,,,,,,
,5f3c6cd228b373af8d934e21,627c67ca2d82484ba394ff51,2022-05-11_20h50.32.107,classification_task,2021.2.3,MacIntel,60.0024001,627c6715c52fd12f31907bd0,,,,,,,,,,,,,,,,,,,,,,,a,1,"[""0.269"",""0.507"",""0.600"",""0.971""]","[0,1,1,1]",0,39,39,39,1,0,1,,,1,FALSE,0.5879,,,,,,,,,,,,,,,,,,,,,,,,,,,,,,,
,5f3c6cd228b373af8d934e21,627c67ca2d82484ba394ff51,2022-05-11_20h50.32.107,classification_task,2021.2.3,MacIntel,60.0024001,627c6715c52fd12f31907bd0,,,,,,,,,,,,,,,,,,,,,,,a,0,"[""0.246"",""0.410"",""0.667"",""0.770""]","[0,1,1,1]",0,40,40,40,1,1,0,,,1,FALSE,0.5993,,,,,,,,,,,,,,,,,,,,,,,,,,,,,,,
,5f3c6cd228b373af8d934e21,627c67ca2d82484ba394ff51,2022-05-11_20h50.32.107,classification_task,2021.2.3,MacIntel,60.0024001,627c6715c52fd12f31907bd0,,,,,,,,,,,,,,,,,,,,,,,l,1,"[""0.080"",""0.355"",""0.232"",""0.728""]","[1,1,0,1]",0,41,41,41,1,1,1,,,1,FALSE,0.7376,,,,,,,,,,,,,,,,,,,,,,,,,,,,,,,
,5f3c6cd228b373af8d934e21,627c67ca2d82484ba394ff51,2022-05-11_20h50.32.107,classification_task,2021.2.3,MacIntel,60.0024001,627c6715c52fd12f31907bd0,,,,,,,,,,,,,,,,,,,,,,,l,1,"[""0.041"",""0.410"",""0.667"",""0.141""]","[1,1,1,0]",0,42,42,42,1,1,0,,,1,FALSE,0.7316,,,,,,,,,,,,,,,,,,,,,,,,,,,,,,,
,5f3c6cd228b373af8d934e21,627c67ca2d82484ba394ff51,2022-05-11_20h50.32.107,classification_task,2021.2.3,MacIntel,60.0024001,627c6715c52fd12f31907bd0,,,,,,,,,,,,,,,,,,,,,,,a,1,"[""0.187"",""0.552"",""0.843"",""0.232""]","[1,1,1,0]",0,43,43,43,1,0,0,,,1,FALSE,1.1168,,,,,,,,,,,,,,,,,,,,,,,,,,,,,,,
,5f3c6cd228b373af8d934e21,627c67ca2d82484ba394ff51,2022-05-11_20h50.32.107,classification_task,2021.2.3,MacIntel,60.0024001,627c6715c52fd12f31907bd0,,,,,,,,,,,,,,,,,,,,,,,a,0,"[""0.080"",""0.146"",""0.464"",""0.728""]","[1,0,1,1]",0,44,44,44,1,1,1,,,1,FALSE,2.6018,,,,,,,,,,,,,,,,,,,,,,,,,,,,,,,
,5f3c6cd228b373af8d934e21,627c67ca2d82484ba394ff51,2022-05-11_20h50.32.107,classification_task,2021.2.3,MacIntel,60.0024001,627c6715c52fd12f31907bd0,,,,,,,,,,,,,,,,,,,,,,,a,1,"[""0.317"",""0.269"",""0.600"",""0.971""]","[1,0,1,1]",0,45,45,45,1,0,1,,,1,FALSE,0.9969,,,,,,,,,,,,,,,,,,,,,,,,,,,,,,,
,5f3c6cd228b373af8d934e21,627c67ca2d82484ba394ff51,2022-05-11_20h50.32.107,classification_task,2021.2.3,MacIntel,60.0024001,627c6715c52fd12f31907bd0,,,,,,,,,,,,,,,,,,,,,,,a,1,"[""0.269"",""0.552"",""0.843"",""0.904""]","[0,1,1,1]",0,46,46,46,1,0,0,,,1,FALSE,0.8168,,,,,,,,,,,,,,,,,,,,,,,,,,,,,,,
,5f3c6cd228b373af8d934e21,627c67ca2d82484ba394ff51,2022-05-11_20h50.32.107,classification_task,2021.2.3,MacIntel,60.0024001,627c6715c52fd12f31907bd0,,,,,,,,,,,,,,,,,,,,,,,l,1,"[""0.041"",""0.410"",""0.140"",""0.770""]","[1,1,0,1]",0,47,47,47,1,1,0,,,1,FALSE,0.5675,,,,,,,,,,,,,,,,,,,,,,,,,,,,,,,
,5f3c6cd228b373af8d934e21,627c67ca2d82484ba394ff51,2022-05-11_20h50.32.107,classification_task,2021.2.3,MacIntel,60.0024001,627c6715c52fd12f31907bd0,,,,,,,,,,,,,,,,,,,,,,,a,0,"[""0.278"",""0.355"",""0.464"",""0.728""]","[0,1,1,1]",0,48,48,48,1,1,1,,,1,FALSE,0.7567,,,,,,,,,,,,,,,,,,,,,,,,,,,,,,,
,5f3c6cd228b373af8d934e21,627c67ca2d82484ba394ff51,2022-05-11_20h50.32.107,classification_task,2021.2.3,MacIntel,60.0024001,627c6715c52fd12f31907bd0,,,,,,,,,,,,,,,,,,,,,,,a,0,"[""0.080"",""0.355"",""0.141"",""0.728""]","[1,1,0,1]",0,49,49,49,1,1,1,,,1,FALSE,1.1559,,,,,,,,,,,,,,,,,,,,,,,,,,,,,,,
,5f3c6cd228b373af8d934e21,627c67ca2d82484ba394ff51,2022-05-11_20h50.32.107,classification_task,2021.2.3,MacIntel,60.0024001,627c6715c52fd12f31907bd0,,,,,,,,,,,,,,,,,,,,,,,a,1,"[""0.187"",""0.123"",""0.843"",""0.904""]","[1,0,1,1]",0,50,50,50,1,0,0,,,1,FALSE,0.9073,,,,,,,,,,,,,,,,,,,,,,,,,,,,,,,
,5f3c6cd228b373af8d934e21,627c67ca2d82484ba394ff51,2022-05-11_20h50.32.107,classification_task,2021.2.3,MacIntel,60.0024001,627c6715c52fd12f31907bd0,,,,,,,,,,,,,,,,,,,,,,,l,1,"[""0.041"",""0.410"",""0.667"",""0.124""]","[1,1,1,0]",0,51,51,51,1,1,0,,,1,FALSE,1.0551,,,,,,,,,,,,,,,,,,,,,,,,,,,,,,,
,5f3c6cd228b373af8d934e21,627c67ca2d82484ba394ff51,2022-05-11_20h50.32.107,classification_task,2021.2.3,MacIntel,60.0024001,627c6715c52fd12f31907bd0,,,,,,,,,,,,,,,,,,,,,,,a,0,"[""0.269"",""0.410"",""0.667"",""0.770""]","[0,1,1,1]",0,52,52,52,1,1,0,,,1,FALSE,0.5621,,,,,,,,,,,,,,,,,,,,,,,,,,,,,,,
,5f3c6cd228b373af8d934e21,627c67ca2d82484ba394ff51,2022-05-11_20h50.32.107,classification_task,2021.2.3,MacIntel,60.0024001,627c6715c52fd12f31907bd0,,,,,,,,,,,,,,,,,,,,,,,a,1,"[""0.248"",""0.507"",""0.600"",""0.971""]","[0,1,1,1]",0,53,53,53,1,0,1,,,1,FALSE,2.3832,,,,,,,,,,,,,,,,,,,,,,,,,,,,,,,
,5f3c6cd228b373af8d934e21,627c67ca2d82484ba394ff51,2022-05-11_20h50.32.107,classification_task,2021.2.3,MacIntel,60.0024001,627c6715c52fd12f31907bd0,,,,,,,,,,,,,,,,,,,,,,,l,1,"[""0.041"",""0.123"",""0.667"",""0.770""]","[1,0,1,1]",0,54,54,54,1,1,0,,,1,FALSE,0.9377,,,,,,,,,,,,,,,,,,,,,,,,,,,,,,,
,5f3c6cd228b373af8d934e21,627c67ca2d82484ba394ff51,2022-05-11_20h50.32.107,classification_task,2021.2.3,MacIntel,60.0024001,627c6715c52fd12f31907bd0,,,,,,,,,,,,,,,,,,,,,,,a,1,"[""0.187"",""0.552"",""0.246"",""0.904""]","[1,1,0,1]",0,55,55,55,1,0,0,,,1,FALSE,0.5685,,,,,,,,,,,,,,,,,,,,,,,,,,,,,,,
,5f3c6cd228b373af8d934e21,627c67ca2d82484ba394ff51,2022-05-11_20h50.32.107,classification_task,2021.2.3,MacIntel,60.0024001,627c6715c52fd12f31907bd0,,,,,,,,,,,,,,,,,,,,,,,l,1,"[""0.041"",""0.410"",""0.248"",""0.770""]","[1,1,0,1]",0,56,56,56,1,1,0,,,1,FALSE,0.6485,,,,,,,,,,,,,,,,,,,,,,,,,,,,,,,
,5f3c6cd228b373af8d934e21,627c67ca2d82484ba394ff51,2022-05-11_20h50.32.107,classification_task,2021.2.3,MacIntel,60.0024001,627c6715c52fd12f31907bd0,,,,,,,,,,,,,,,,,,,,,,,a,1,"[""0.317"",""0.507"",""0.600"",""0.138""]","[1,1,1,0]",0,57,57,57,1,0,1,,,1,FALSE,0.7017,,,,,,,,,,,,,,,,,,,,,,,,,,,,,,,
,5f3c6cd228b373af8d934e21,627c67ca2d82484ba394ff51,2022-05-11_20h50.32.107,classification_task,2021.2.3,MacIntel,60.0024001,627c6715c52fd12f31907bd0,,,,,,,,,,,,,,,,,,,,,,,a,1,"[""0.187"",""0.552"",""0.843"",""0.278""]","[1,1,1,0]",0,58,58,58,1,0,0,,,1,FALSE,0.8361,,,,,,,,,,,,,,,,,,,,,,,,,,,,,,,
,5f3c6cd228b373af8d934e21,627c67ca2d82484ba394ff51,2022-05-11_20h50.32.107,classification_task,2021.2.3,MacIntel,60.0024001,627c6715c52fd12f31907bd0,,,,,,,,,,,,,,,,,,,,,,,a,1,"[""0.278"",""0.552"",""0.843"",""0.904""]","[0,1,1,1]",0,59,59,59,1,0,0,,,1,FALSE,0.5882,,,,,,,,,,,,,,,,,,,,,,,,,,,,,,,
,5f3c6cd228b373af8d934e21,627c67ca2d82484ba394ff51,2022-05-11_20h50.32.107,classification_task,2021.2.3,MacIntel,60.0024001,627c6715c52fd12f31907bd0,,,,,,,,,,,,,,,,,,,,,,,a,1,"[""0.317"",""0.507"",""0.146"",""0.971""]","[1,1,0,1]",0,60,60,60,1,0,1,,,1,FALSE,0.653,,,,,,,,,,,,,,,,,,,,,,,,,,,,,,,
,5f3c6cd228b373af8d934e21,627c67ca2d82484ba394ff51,2022-05-11_20h50.32.107,classification_task,2021.2.3,MacIntel,60.0024001,627c6715c52fd12f31907bd0,,,,,,,,,,,,,,,,,,,,,,,a,1,"[""0.317"",""0.138"",""0.600"",""0.971""]","[1,0,1,1]",0,61,61,61,1,0,1,,,1,FALSE,0.4933,,,,,,,,,,,,,,,,,,,,,,,,,,,,,,,
,5f3c6cd228b373af8d934e21,627c67ca2d82484ba394ff51,2022-05-11_20h50.32.107,classification_task,2021.2.3,MacIntel,60.0024001,627c6715c52fd12f31907bd0,,,,,,,,,,,,,,,,,,,,,,,l,1,"[""0.080"",""0.355"",""0.464"",""0.114""]","[1,1,1,0]",0,62,62,62,1,1,1,,,1,FALSE,1.2493,,,,,,,,,,,,,,,,,,,,,,,,,,,,,,,
,5f3c6cd228b373af8d934e21,627c67ca2d82484ba394ff51,2022-05-11_20h50.32.107,classification_task,2021.2.3,MacIntel,60.0024001,627c6715c52fd12f31907bd0,,,,,,,,,,,,,,,,,,,,,,,l,1,"[""0.080"",""0.256"",""0.464"",""0.728""]","[1,0,1,1]",0,63,63,63,1,1,1,,,1,FALSE,0.9646,,,,,,,,,,,,,,,,,,,,,,,,,,,,,,,
,5f3c6cd228b373af8d934e21,627c67ca2d82484ba394ff51,2022-05-11_20h50.32.107,classification_task,2021.2.3,MacIntel,60.0024001,627c6715c52fd12f31907bd0,,,,,,,,,,,,,,,,,,,,,,,,,,,,,,,,,,,,,,,0, ,,0,1.462126412,156.7944,0,2,2,2,1,2,3,,,,,,,,,,,,,,,,,,
,5f3c6cd228b373af8d934e21,627c67ca2d82484ba394ff51,2022-05-11_20h50.32.107,classification_task,2021.2.3,MacIntel,60.0024001,627c6715c52fd12f31907bd0,,,,,,,,,,,,,,,,,,,,,,,,,,,,,,,,,,,,,,,1,  ,,0,7.532985896,160.3766,0,2,2,2,1,2,3,,,,,,,,,,,,,,,,,,
,5f3c6cd228b373af8d934e21,627c67ca2d82484ba394ff51,2022-05-11_20h50.32.107,classification_task,2021.2.3,MacIntel,60.0024001,627c6715c52fd12f31907bd0,,,,,,,,,,,,,,,,,,,,,,,,,,,,,,,,,,,,,,,2,  ,,0,7.196601809,163.0382,0,2,2,2,1,2,3,,,,,,,,,,,,,,,,,,
,5f3c6cd228b373af8d934e21,627c67ca2d82484ba394ff51,2022-05-11_20h50.32.107,classification_task,2021.2.3,MacIntel,60.0024001,627c6715c52fd12f31907bd0,,,,,,,,,,,,,,,,,,,,,,,,,,,,,,,,,,,,,,,,,,,,,0,2,2,2,1,,3,,,,,,,,,,,,,,,,,,
,5f3c6cd228b373af8d934e21,627c67ca2d82484ba394ff51,2022-05-11_20h50.32.107,classification_task,2021.2.3,MacIntel,60.0024001,627c6715c52fd12f31907bd0,,,,,,,,,,,,,,,,,,,,,,,,,,,,,,,,,,,,,,,,,,,,,,,,,,,,,I believe the aid is a competent performer,,0.7,0,4,769.2029,0,0,0,0,1,0,,,,,
,5f3c6cd228b373af8d934e21,627c67ca2d82484ba394ff51,2022-05-11_20h50.32.107,classification_task,2021.2.3,MacIntel,60.0024001,627c6715c52fd12f31907bd0,,,,,,,,,,,,,,,,,,,,,,,,,,,,,,,,,,,,,,,,,,,,,,,,,,,,,I trust the aid,,0.7,0,4,770.6944,0,0,0,0,1,0,,,,,
,5f3c6cd228b373af8d934e21,627c67ca2d82484ba394ff51,2022-05-11_20h50.32.107,classification_task,2021.2.3,MacIntel,60.0024001,627c6715c52fd12f31907bd0,,,,,,,,,,,,,,,,,,,,,,,,,,,,,,,,,,,,,,,,,,,,,,,,,,,,,I have confidence in the advice given by the aid,,0.7,0,5,773.2286,0,0,0,0,1,0,,,,,
,5f3c6cd228b373af8d934e21,627c67ca2d82484ba394ff51,2022-05-11_20h50.32.107,classification_task,2021.2.3,MacIntel,60.0024001,627c6715c52fd12f31907bd0,,,,,,,,,,,,,,,,,,,,,,,,,,,,,,,,,,,,,,,,,,,,,,,,,,,,,I can depend on the aid,,0.7,0,3,776.4264,0,0,0,0,1,0,,,,,
,5f3c6cd228b373af8d934e21,627c67ca2d82484ba394ff51,2022-05-11_20h50.32.107,classification_task,2021.2.3,MacIntel,60.0024001,627c6715c52fd12f31907bd0,,,,,,,,,,,,,,,,,,,,,,,,,,,,,,,,,,,,,,,,,,,,,,,,,,,,,I can rely on the aid to behave in consistent ways,,0.7,0,3,779.7099,0,0,0,0,1,0,,,,,
,5f3c6cd228b373af8d934e21,627c67ca2d82484ba394ff51,2022-05-11_20h50.32.107,classification_task,2021.2.3,MacIntel,60.0024001,627c6715c52fd12f31907bd0,,,,,,,,,,,,,,,,,,,,,,,,,,,,,,,,,,,,,,,,,,,,,,,,,,,,,I can rely on the aid to do its best every time I take its advice,,0.7,0,3,784.2824,0,0,0,0,1,0,,,,,
,5f3c6cd228b373af8d934e21,627c67ca2d82484ba394ff51,2022-05-11_20h50.32.107,classification_task,2021.2.3,MacIntel,60.0024001,627c6715c52fd12f31907bd0,,,,,,,,,,,,,,,,,,,,,,,,,,,,,,,,,,,,,,,,,,,,,,,,,,,,,"On trials you completed with assistance from the aid, how frequently did you think the aid was correct?",,0.7,0,80%,,0,0,0,0,1,0,,,,,
,5f3c6cd228b373af8d934e21,627c67ca2d82484ba394ff51,2022-05-11_20h50.32.107,classification_task,2021.2.3,MacIntel,60.0024001,627c6715c52fd12f31907bd0,,,,,,,,,,,,,,,,,,,,,,,,,,,,,,,,,,,,,,,,,,,,,,,,,,,,,"On trials you completed without the aid, how frequently did you think you were correct?",,0.7,0,70%,,0,0,0,0,1,0,,,,,
,5f3c6cd228b373af8d934e21,627c67ca2d82484ba394ff51,2022-05-11_20h50.32.107,classification_task,2021.2.3,MacIntel,60.0024001,627c6715c52fd12f31907bd0,,,,,,,,,,,,,,,,,,,,,,,,,,,,,,,,,,,,,,,,,,,,,,,,,,,,,,,,,,,0,0,0,0,1,,,,,,
,5f3c6cd228b373af8d934e21,627c67ca2d82484ba394ff51,2022-05-11_20h50.32.107,classification_task,2021.2.3,MacIntel,60.0024001,627c6715c52fd12f31907bd0,,,,,,,,,,,,,,,,,,,,,,,,,,,,,,,,,,,,,,,,,,,,,,,,,,,,,,,,,,,,,,,,,space,12.6992,817.5302,,
,5f3c6cd228b373af8d934e21,627c67ca2d82484ba394ff51,2022-05-11_20h50.32.107,classification_task,2021.2.3,MacIntel,60.0024001,627c6715c52fd12f31907bd0,,,,,,,,,,,,,,,,,,,,,,,,,,,,,,,,,,,,,,,,,,,,,,,,,,,,,,,,,,,,,,,,,,,,"Mozilla/5.0 (Macintosh; Intel Mac OS X 10_15_7) AppleWebKit/537.36 (KHTML, like Gecko) Chrome/100.0.4896.127 Safari/537.36",
,5f3c6cd228b373af8d934e21,627c67ca2d82484ba394ff51,2022-05-11_20h50.32.107,classification_task,2021.2.3,MacIntel,60.0024001,627c6715c52fd12f31907bd0,,,,,,,,,,,,,,,,,,,,,,,,,,,,,,,,,,,,,,,,,,,,,,,,,,,,,,,,,,,,,,,,,,,,,LOWLIGHT
