usingWebGL,participant,session,date,expName,psychopyVersion,OS,frameRate,study_id,signatures_friend,signatures_foe,band_ranges_top,band_ranges_bottom,formitemText,formtype,formundefined,formitemWidth,formindex,formresponse,formrt,key_resp_2.keys,key_resp_2.rt,tute_resp.keys,tute_resp.rt,tutorial.thisRepN,tutorial.thisTrialN,tutorial.thisN,tutorial.thisIndex,tutorial.ran,key_resp_4.keys,key_resp_4.rt,key_resp.keys,key_resp.corr,key_resp.rt,lines_presented,is_signal_presented,trials.thisRepN,trials.thisTrialN,trials.thisN,trials.thisIndex,trials.ran,vessel,active_band,lines,is_signal,supported_pos,catch_trial,debrief_formindex,debrief_formitemText,debrief_formtype,debrief_formitemWidth,debrief_formresponse,debrief_formrt,phases.thisRepN,phases.thisTrialN,phases.thisN,phases.thisIndex,phases.ran,phases.order,phase,key_resp_3.keys,trustitemText,trusttype,trustitemWidth,trustindex,trustresponse,trustrt,support_status.thisRepN,support_status.thisTrialN,support_status.thisN,support_status.thisIndex,support_status.ran,support_status.order,key_resp_5.keys,key_resp_5.rt,globalClockTime,userAgent,manualCondition
TRUE,5f435065ffd8ca5acb7068f1,627c67d44110c101253d3e26,2022-05-11_18h50.24.836,classification_task,2021.2.3,Win32,60.10337781,627c6715c52fd12f31907bcf,,,,,,,,,,,,,,,,,,,,,,,,,,,,,,,,,,,,,,,,,,,,,,,,,,,,,,,,,,,,,,,,,,,,,
,5f435065ffd8ca5acb7068f1,627c67d44110c101253d3e26,2022-05-11_18h50.24.836,classification_task,2021.2.3,Win32,60.10337781,627c6715c52fd12f31907bcf,"[[""0.258"",""0.525"",""0.663"",""0.971""],[""0.179"",""0.393"",""0.857"",""0.930""]]","[[""0.048"",""0.223"",""0.604"",""0.774""],[""0.103"",""0.347"",""0.490"",""0.715""]]","[1,10]","[100,1000]",Video game experience,,,0.7,0,,,,,,,,,,,,,,,,,,,,,,,,,,,,,,,,,,,,,,,,,,,,,,,,,,,,,,,,,,,,
,5f435065ffd8ca5acb7068f1,627c67d44110c101253d3e26,2022-05-11_18h50.24.836,classification_task,2021.2.3,Win32,60.10337781,627c6715c52fd12f31907bcf,,,,,Approximately how many hours did you spend playing video games in the last week?,,,0.7,0,40,,,,,,,,,,,,,,,,,,,,,,,,,,,,,,,,,,,,,,,,,,,,,,,,,,,,,,,,,,,
,5f435065ffd8ca5acb7068f1,627c67d44110c101253d3e26,2022-05-11_18h50.24.836,classification_task,2021.2.3,Win32,60.10337781,627c6715c52fd12f31907bcf,,,,,"Which game did you play the most this year? (Enter ""None"" if you didn't play any)",,,0.7,0,League of Legends,,,,,,,,,,,,,,,,,,,,,,,,,,,,,,,,,,,,,,,,,,,,,,,,,,,,,,,,,,,
,5f435065ffd8ca5acb7068f1,627c67d44110c101253d3e26,2022-05-11_18h50.24.836,classification_task,2021.2.3,Win32,60.10337781,627c6715c52fd12f31907bcf,,,,,Visual perception,,,0.7,0,,,,,,,,,,,,,,,,,,,,,,,,,,,,,,,,,,,,,,,,,,,,,,,,,,,,,,,,,,,,
,5f435065ffd8ca5acb7068f1,627c67d44110c101253d3e26,2022-05-11_18h50.24.836,classification_task,2021.2.3,Win32,60.10337781,627c6715c52fd12f31907bcf,,,,,Do you have any form of color blindness?,,,0.7,0,No,43.7859,,,,,,,,,,,,,,,,,,,,,,,,,,,,,,,,,,,,,,,,,,,,,,,,,,,,,,,,,,
,5f435065ffd8ca5acb7068f1,627c67d44110c101253d3e26,2022-05-11_18h50.24.836,classification_task,2021.2.3,Win32,60.10337781,627c6715c52fd12f31907bcf,,,,,Do you use software to change the colour temperature of your screen (e.g. f.lux)?,,,0.7,0,No,45.268,,,,,,,,,,,,,,,,,,,,,,,,,,,,,,,,,,,,,,,,,,,,,,,,,,,,,,,,,,
,5f435065ffd8ca5acb7068f1,627c67d44110c101253d3e26,2022-05-11_18h50.24.836,classification_task,2021.2.3,Win32,60.10337781,627c6715c52fd12f31907bcf,,,,,,,,,,,,space,7.236,space,4.135,0,0,0,0,1,,,,,,,,,,,,,,,,,,,,,,,,,,,,,,,,,,,,,,,,,,,,,,,,,
,5f435065ffd8ca5acb7068f1,627c67d44110c101253d3e26,2022-05-11_18h50.24.836,classification_task,2021.2.3,Win32,60.10337781,627c6715c52fd12f31907bcf,,,,,,,,,,,,,,space,4.252,1,0,1,0,1,,,,,,,,,,,,,,,,,,,,,,,,,,,,,,,,,,,,,,,,,,,,,,,,,
,5f435065ffd8ca5acb7068f1,627c67d44110c101253d3e26,2022-05-11_18h50.24.836,classification_task,2021.2.3,Win32,60.10337781,627c6715c52fd12f31907bcf,,,,,,,,,,,,,,space,20.3593,2,0,2,0,1,,,,,,,,,,,,,,,,,,,,,,,,,,,,,,,,,,,,,,,,,,,,,,,,,
,5f435065ffd8ca5acb7068f1,627c67d44110c101253d3e26,2022-05-11_18h50.24.836,classification_task,2021.2.3,Win32,60.10337781,627c6715c52fd12f31907bcf,,,,,,,,,,,,,,space,3.967,3,0,3,0,1,,,,,,,,,,,,,,,,,,,,,,,,,,,,,,,,,,,,,,,,,,,,,,,,,
,5f435065ffd8ca5acb7068f1,627c67d44110c101253d3e26,2022-05-11_18h50.24.836,classification_task,2021.2.3,Win32,60.10337781,627c6715c52fd12f31907bcf,,,,,,,,,,,,,,space,3.8,4,0,4,0,1,,,,,,,,,,,,,,,,,,,,,,,,,,,,,,,,,,,,,,,,,,,,,,,,,
,5f435065ffd8ca5acb7068f1,627c67d44110c101253d3e26,2022-05-11_18h50.24.836,classification_task,2021.2.3,Win32,60.10337781,627c6715c52fd12f31907bcf,,,,,,,,,,,,,,,,,,,,,space,3.844,l,1,3.5086,"[""0.048"",""0.455"",""0.604"",""0.774""]","[1,0,1,1]",0,0,0,0,1,1,0,,,0,FALSE,,,,,,,,,,,,,,,,,,,,,,,,,,,,,,,
,5f435065ffd8ca5acb7068f1,627c67d44110c101253d3e26,2022-05-11_18h50.24.836,classification_task,2021.2.3,Win32,60.10337781,627c6715c52fd12f31907bcf,,,,,,,,,,,,,,,,,,,,,,,a,0,1.049,"[""0.809"",""0.223"",""0.604"",""0.774""]","[0,1,1,1]",0,1,1,1,1,1,0,,,0,FALSE,,,,,,,,,,,,,,,,,,,,,,,,,,,,,,,
,5f435065ffd8ca5acb7068f1,627c67d44110c101253d3e26,2022-05-11_18h50.24.836,classification_task,2021.2.3,Win32,60.10337781,627c6715c52fd12f31907bcf,,,,,,,,,,,,,,,,,,,,,,,a,1,2.5882,"[""0.258"",""0.525"",""0.663"",""0.434""]","[1,1,1,0]",0,2,2,2,1,0,0,,,0,FALSE,,,,,,,,,,,,,,,,,,,,,,,,,,,,,,,
,5f435065ffd8ca5acb7068f1,627c67d44110c101253d3e26,2022-05-11_18h50.24.836,classification_task,2021.2.3,Win32,60.10337781,627c6715c52fd12f31907bcf,,,,,,,,,,,,,,,,,,,,,,,l,1,2.5856,"[""0.103"",""0.563"",""0.490"",""0.715""]","[1,0,1,1]",0,3,3,3,1,1,1,,,0,FALSE,,,,,,,,,,,,,,,,,,,,,,,,,,,,,,,
,5f435065ffd8ca5acb7068f1,627c67d44110c101253d3e26,2022-05-11_18h50.24.836,classification_task,2021.2.3,Win32,60.10337781,627c6715c52fd12f31907bcf,,,,,,,,,,,,,,,,,,,,,,,l,1,1.6089,"[""0.048"",""0.223"",""0.604"",""0.895""]","[1,1,1,0]",0,4,4,4,1,1,0,,,0,FALSE,,,,,,,,,,,,,,,,,,,,,,,,,,,,,,,
,5f435065ffd8ca5acb7068f1,627c67d44110c101253d3e26,2022-05-11_18h50.24.836,classification_task,2021.2.3,Win32,60.10337781,627c6715c52fd12f31907bcf,,,,,,,,,,,,,,,,,,,,,,,a,1,2.2699,"[""0.179"",""0.393"",""0.857"",""0.455""]","[1,1,1,0]",0,5,5,5,1,0,1,,,0,FALSE,,,,,,,,,,,,,,,,,,,,,,,,,,,,,,,
,5f435065ffd8ca5acb7068f1,627c67d44110c101253d3e26,2022-05-11_18h50.24.836,classification_task,2021.2.3,Win32,60.10337781,627c6715c52fd12f31907bcf,,,,,,,,,,,,,,,,,,,,,,,a,1,2.5967,"[""0.565"",""0.525"",""0.663"",""0.971""]","[0,1,1,1]",0,6,6,6,1,0,0,,,0,FALSE,,,,,,,,,,,,,,,,,,,,,,,,,,,,,,,
,5f435065ffd8ca5acb7068f1,627c67d44110c101253d3e26,2022-05-11_18h50.24.836,classification_task,2021.2.3,Win32,60.10337781,627c6715c52fd12f31907bcf,,,,,,,,,,,,,,,,,,,,,,,l,1,2.1014,"[""0.048"",""0.223"",""0.434"",""0.774""]","[1,1,0,1]",0,7,7,7,1,1,0,,,0,FALSE,,,,,,,,,,,,,,,,,,,,,,,,,,,,,,,
,5f435065ffd8ca5acb7068f1,627c67d44110c101253d3e26,2022-05-11_18h50.24.836,classification_task,2021.2.3,Win32,60.10337781,627c6715c52fd12f31907bcf,,,,,,,,,,,,,,,,,,,,,,,l,0,2.1496,"[""0.892"",""0.393"",""0.857"",""0.930""]","[0,1,1,1]",0,8,8,8,1,0,1,,,0,FALSE,,,,,,,,,,,,,,,,,,,,,,,,,,,,,,,
,5f435065ffd8ca5acb7068f1,627c67d44110c101253d3e26,2022-05-11_18h50.24.836,classification_task,2021.2.3,Win32,60.10337781,627c6715c52fd12f31907bcf,,,,,,,,,,,,,,,,,,,,,,,a,1,4.5343,"[""0.179"",""0.393"",""0.892"",""0.930""]","[1,1,0,1]",0,9,9,9,1,0,1,,,0,FALSE,,,,,,,,,,,,,,,,,,,,,,,,,,,,,,,
,5f435065ffd8ca5acb7068f1,627c67d44110c101253d3e26,2022-05-11_18h50.24.836,classification_task,2021.2.3,Win32,60.10337781,627c6715c52fd12f31907bcf,,,,,,,,,,,,,,,,,,,,,,,a,1,2.3155,"[""0.258"",""0.892"",""0.663"",""0.971""]","[1,0,1,1]",0,10,10,10,1,0,0,,,0,FALSE,,,,,,,,,,,,,,,,,,,,,,,,,,,,,,,
,5f435065ffd8ca5acb7068f1,627c67d44110c101253d3e26,2022-05-11_18h50.24.836,classification_task,2021.2.3,Win32,60.10337781,627c6715c52fd12f31907bcf,,,,,,,,,,,,,,,,,,,,,,,a,1,2.1498,"[""0.179"",""0.813"",""0.857"",""0.930""]","[1,0,1,1]",0,11,11,11,1,0,1,,,0,FALSE,,,,,,,,,,,,,,,,,,,,,,,,,,,,,,,
,5f435065ffd8ca5acb7068f1,627c67d44110c101253d3e26,2022-05-11_18h50.24.836,classification_task,2021.2.3,Win32,60.10337781,627c6715c52fd12f31907bcf,,,,,,,,,,,,,,,,,,,,,,,a,1,2.5595,"[""0.258"",""0.525"",""0.814"",""0.971""]","[1,1,0,1]",0,12,12,12,1,0,0,,,0,FALSE,,,,,,,,,,,,,,,,,,,,,,,,,,,,,,,
,5f435065ffd8ca5acb7068f1,627c67d44110c101253d3e26,2022-05-11_18h50.24.836,classification_task,2021.2.3,Win32,60.10337781,627c6715c52fd12f31907bcf,,,,,,,,,,,,,,,,,,,,,,,l,1,2.3172,"[""0.565"",""0.347"",""0.490"",""0.715""]","[0,1,1,1]",0,13,13,13,1,1,1,,,0,FALSE,,,,,,,,,,,,,,,,,,,,,,,,,,,,,,,
,5f435065ffd8ca5acb7068f1,627c67d44110c101253d3e26,2022-05-11_18h50.24.836,classification_task,2021.2.3,Win32,60.10337781,627c6715c52fd12f31907bcf,,,,,,,,,,,,,,,,,,,,,,,l,1,2.7011,"[""0.103"",""0.347"",""0.450"",""0.715""]","[1,1,0,1]",0,14,14,14,1,1,1,,,0,FALSE,,,,,,,,,,,,,,,,,,,,,,,,,,,,,,,
,5f435065ffd8ca5acb7068f1,627c67d44110c101253d3e26,2022-05-11_18h50.24.836,classification_task,2021.2.3,Win32,60.10337781,627c6715c52fd12f31907bcf,,,,,,,,,,,,,,,,,,,,,,,l,1,2.4692,"[""0.103"",""0.347"",""0.490"",""0.563""]","[1,1,1,0]",0,15,15,15,1,1,1,,,0,FALSE,,,,,,,,,,,,,,,,,,,,,,,,,,,,,,,
,5f435065ffd8ca5acb7068f1,627c67d44110c101253d3e26,2022-05-11_18h50.24.836,classification_task,2021.2.3,Win32,60.10337781,627c6715c52fd12f31907bcf,,,,,,,,,,,,,,,,,,,,,,,l,1,1.4521,"[""0.103"",""0.450"",""0.490"",""0.715""]","[1,0,1,1]",0,16,16,16,1,1,1,,,0,FALSE,,,,,,,,,,,,,,,,,,,,,,,,,,,,,,,
,5f435065ffd8ca5acb7068f1,627c67d44110c101253d3e26,2022-05-11_18h50.24.836,classification_task,2021.2.3,Win32,60.10337781,627c6715c52fd12f31907bcf,,,,,,,,,,,,,,,,,,,,,,,a,1,2.3825,"[""0.809"",""0.393"",""0.857"",""0.930""]","[0,1,1,1]",0,17,17,17,1,0,1,,,0,FALSE,,,,,,,,,,,,,,,,,,,,,,,,,,,,,,,
,5f435065ffd8ca5acb7068f1,627c67d44110c101253d3e26,2022-05-11_18h50.24.836,classification_task,2021.2.3,Win32,60.10337781,627c6715c52fd12f31907bcf,,,,,,,,,,,,,,,,,,,,,,,l,1,3.553,"[""0.048"",""0.223"",""0.563"",""0.774""]","[1,1,0,1]",0,18,18,18,1,1,0,,,0,FALSE,,,,,,,,,,,,,,,,,,,,,,,,,,,,,,,
,5f435065ffd8ca5acb7068f1,627c67d44110c101253d3e26,2022-05-11_18h50.24.836,classification_task,2021.2.3,Win32,60.10337781,627c6715c52fd12f31907bcf,,,,,,,,,,,,,,,,,,,,,,,l,1,2.3007,"[""0.048"",""0.223"",""0.604"",""0.814""]","[1,1,1,0]",0,19,19,19,1,1,0,,,0,FALSE,,,,,,,,,,,,,,,,,,,,,,,,,,,,,,,
,5f435065ffd8ca5acb7068f1,627c67d44110c101253d3e26,2022-05-11_18h50.24.836,classification_task,2021.2.3,Win32,60.10337781,627c6715c52fd12f31907bcf,,,,,,,,,,,,,,,,,,,,,,,a,1,2.6757,"[""0.179"",""0.815"",""0.857"",""0.930""]","[1,0,1,1]",0,20,20,20,1,0,1,,,0,FALSE,,,,,,,,,,,,,,,,,,,,,,,,,,,,,,,
,5f435065ffd8ca5acb7068f1,627c67d44110c101253d3e26,2022-05-11_18h50.24.836,classification_task,2021.2.3,Win32,60.10337781,627c6715c52fd12f31907bcf,,,,,,,,,,,,,,,,,,,,,,,a,1,4.8873,"[""0.258"",""0.525"",""0.663"",""0.815""]","[1,1,1,0]",0,21,21,21,1,0,0,,,0,FALSE,,,,,,,,,,,,,,,,,,,,,,,,,,,,,,,
,5f435065ffd8ca5acb7068f1,627c67d44110c101253d3e26,2022-05-11_18h50.24.836,classification_task,2021.2.3,Win32,60.10337781,627c6715c52fd12f31907bcf,,,,,,,,,,,,,,,,,,,,,,,a,1,2.1071,"[""0.179"",""0.393"",""0.857"",""0.895""]","[1,1,1,0]",0,22,22,22,1,0,1,,,0,FALSE,,,,,,,,,,,,,,,,,,,,,,,,,,,,,,,
,5f435065ffd8ca5acb7068f1,627c67d44110c101253d3e26,2022-05-11_18h50.24.836,classification_task,2021.2.3,Win32,60.10337781,627c6715c52fd12f31907bcf,,,,,,,,,,,,,,,,,,,,,,,a,1,2.7835,"[""0.179"",""0.393"",""0.565"",""0.930""]","[1,1,0,1]",0,23,23,23,1,0,1,,,0,FALSE,,,,,,,,,,,,,,,,,,,,,,,,,,,,,,,
,5f435065ffd8ca5acb7068f1,627c67d44110c101253d3e26,2022-05-11_18h50.24.836,classification_task,2021.2.3,Win32,60.10337781,627c6715c52fd12f31907bcf,,,,,,,,,,,,,,,,,,,,,,,l,1,3.2829,"[""0.563"",""0.223"",""0.604"",""0.774""]","[0,1,1,1]",0,24,24,24,1,1,0,,,0,FALSE,,,,,,,,,,,,,,,,,,,,,,,,,,,,,,,
,5f435065ffd8ca5acb7068f1,627c67d44110c101253d3e26,2022-05-11_18h50.24.836,classification_task,2021.2.3,Win32,60.10337781,627c6715c52fd12f31907bcf,,,,,,,,,,,,,,,,,,,,,,,a,1,5.1329,"[""0.258"",""0.525"",""0.313"",""0.971""]","[1,1,0,1]",0,25,25,25,1,0,0,,,0,FALSE,,,,,,,,,,,,,,,,,,,,,,,,,,,,,,,
,5f435065ffd8ca5acb7068f1,627c67d44110c101253d3e26,2022-05-11_18h50.24.836,classification_task,2021.2.3,Win32,60.10337781,627c6715c52fd12f31907bcf,,,,,,,,,,,,,,,,,,,,,,,l,1,2.3172,"[""0.048"",""0.455"",""0.604"",""0.774""]","[1,0,1,1]",0,26,26,26,1,1,0,,,0,FALSE,,,,,,,,,,,,,,,,,,,,,,,,,,,,,,,
,5f435065ffd8ca5acb7068f1,627c67d44110c101253d3e26,2022-05-11_18h50.24.836,classification_task,2021.2.3,Win32,60.10337781,627c6715c52fd12f31907bcf,,,,,,,,,,,,,,,,,,,,,,,l,1,2.4642,"[""0.103"",""0.347"",""0.490"",""0.813""]","[1,1,1,0]",0,27,27,27,1,1,1,,,0,FALSE,,,,,,,,,,,,,,,,,,,,,,,,,,,,,,,
,5f435065ffd8ca5acb7068f1,627c67d44110c101253d3e26,2022-05-11_18h50.24.836,classification_task,2021.2.3,Win32,60.10337781,627c6715c52fd12f31907bcf,,,,,,,,,,,,,,,,,,,,,,,a,1,4.5186,"[""0.303"",""0.525"",""0.663"",""0.971""]","[0,1,1,1]",0,28,28,28,1,0,0,,,0,FALSE,,,,,,,,,,,,,,,,,,,,,,,,,,,,,,,
,5f435065ffd8ca5acb7068f1,627c67d44110c101253d3e26,2022-05-11_18h50.24.836,classification_task,2021.2.3,Win32,60.10337781,627c6715c52fd12f31907bcf,,,,,,,,,,,,,,,,,,,,,,,l,1,4.8369,"[""0.103"",""0.347"",""0.892"",""0.715""]","[1,1,0,1]",0,29,29,29,1,1,1,,,0,FALSE,,,,,,,,,,,,,,,,,,,,,,,,,,,,,,,
,5f435065ffd8ca5acb7068f1,627c67d44110c101253d3e26,2022-05-11_18h50.24.836,classification_task,2021.2.3,Win32,60.10337781,627c6715c52fd12f31907bcf,,,,,,,,,,,,,,,,,,,,,,,a,1,2.0686,"[""0.258"",""0.814"",""0.663"",""0.971""]","[1,0,1,1]",0,30,30,30,1,0,0,,,0,FALSE,,,,,,,,,,,,,,,,,,,,,,,,,,,,,,,
,5f435065ffd8ca5acb7068f1,627c67d44110c101253d3e26,2022-05-11_18h50.24.836,classification_task,2021.2.3,Win32,60.10337781,627c6715c52fd12f31907bcf,,,,,,,,,,,,,,,,,,,,,,,l,1,5.9352,"[""0.563"",""0.347"",""0.490"",""0.715""]","[0,1,1,1]",0,31,31,31,1,1,1,,,0,FALSE,,,,,,,,,,,,,,,,,,,,,,,,,,,,,,,
,5f435065ffd8ca5acb7068f1,627c67d44110c101253d3e26,2022-05-11_18h50.24.836,classification_task,2021.2.3,Win32,60.10337781,627c6715c52fd12f31907bcf,,,,,,,,,,,,,,,,,,,,,,,l,1,2.8776,"[""0.815"",""0.347"",""0.490"",""0.715""]","[0,1,1,1]",0,32,32,32,1,1,1,,,0,FALSE,,,,,,,,,,,,,,,,,,,,,,,,,,,,,,,
,5f435065ffd8ca5acb7068f1,627c67d44110c101253d3e26,2022-05-11_18h50.24.836,classification_task,2021.2.3,Win32,60.10337781,627c6715c52fd12f31907bcf,,,,,,,,,,,,,,,,,,,,,,,l,1,1.3668,"[""0.103"",""0.347"",""0.434"",""0.715""]","[1,1,0,1]",0,33,33,33,1,1,1,,,0,FALSE,,,,,,,,,,,,,,,,,,,,,,,,,,,,,,,
,5f435065ffd8ca5acb7068f1,627c67d44110c101253d3e26,2022-05-11_18h50.24.836,classification_task,2021.2.3,Win32,60.10337781,627c6715c52fd12f31907bcf,,,,,,,,,,,,,,,,,,,,,,,l,1,1.6508,"[""0.103"",""0.347"",""0.490"",""0.565""]","[1,1,1,0]",0,34,34,34,1,1,1,,,0,FALSE,,,,,,,,,,,,,,,,,,,,,,,,,,,,,,,
,5f435065ffd8ca5acb7068f1,627c67d44110c101253d3e26,2022-05-11_18h50.24.836,classification_task,2021.2.3,Win32,60.10337781,627c6715c52fd12f31907bcf,,,,,,,,,,,,,,,,,,,,,,,a,1,1.3825,"[""0.258"",""0.525"",""0.814"",""0.971""]","[1,1,0,1]",0,35,35,35,1,0,0,,,0,FALSE,,,,,,,,,,,,,,,,,,,,,,,,,,,,,,,
,5f435065ffd8ca5acb7068f1,627c67d44110c101253d3e26,2022-05-11_18h50.24.836,classification_task,2021.2.3,Win32,60.10337781,627c6715c52fd12f31907bcf,,,,,,,,,,,,,,,,,,,,,,,l,1,1.7326,"[""0.103"",""0.303"",""0.490"",""0.715""]","[1,0,1,1]",0,36,36,36,1,1,1,,,0,FALSE,,,,,,,,,,,,,,,,,,,,,,,,,,,,,,,
,5f435065ffd8ca5acb7068f1,627c67d44110c101253d3e26,2022-05-11_18h50.24.836,classification_task,2021.2.3,Win32,60.10337781,627c6715c52fd12f31907bcf,,,,,,,,,,,,,,,,,,,,,,,l,0,1.799,"[""0.313"",""0.525"",""0.663"",""0.971""]","[0,1,1,1]",0,37,37,37,1,0,0,,,0,FALSE,,,,,,,,,,,,,,,,,,,,,,,,,,,,,,,
,5f435065ffd8ca5acb7068f1,627c67d44110c101253d3e26,2022-05-11_18h50.24.836,classification_task,2021.2.3,Win32,60.10337781,627c6715c52fd12f31907bcf,,,,,,,,,,,,,,,,,,,,,,,a,1,1.2312,"[""0.179"",""0.393"",""0.857"",""0.895""]","[1,1,1,0]",0,38,38,38,1,0,1,,,0,FALSE,,,,,,,,,,,,,,,,,,,,,,,,,,,,,,,
,5f435065ffd8ca5acb7068f1,627c67d44110c101253d3e26,2022-05-11_18h50.24.836,classification_task,2021.2.3,Win32,60.10337781,627c6715c52fd12f31907bcf,,,,,,,,,,,,,,,,,,,,,,,a,1,2.8351,"[""0.258"",""0.525"",""0.663"",""0.303""]","[1,1,1,0]",0,39,39,39,1,0,0,,,0,FALSE,,,,,,,,,,,,,,,,,,,,,,,,,,,,,,,
,5f435065ffd8ca5acb7068f1,627c67d44110c101253d3e26,2022-05-11_18h50.24.836,classification_task,2021.2.3,Win32,60.10337781,627c6715c52fd12f31907bcf,,,,,,,,,,,,,,,,,,,,,,,a,1,4.0168,"[""0.179"",""0.393"",""0.892"",""0.930""]","[1,1,0,1]",0,40,40,40,1,0,1,,,0,FALSE,,,,,,,,,,,,,,,,,,,,,,,,,,,,,,,
,5f435065ffd8ca5acb7068f1,627c67d44110c101253d3e26,2022-05-11_18h50.24.836,classification_task,2021.2.3,Win32,60.10337781,627c6715c52fd12f31907bcf,,,,,,,,,,,,,,,,,,,,,,,a,1,2.355,"[""0.179"",""0.563"",""0.857"",""0.930""]","[1,0,1,1]",0,41,41,41,1,0,1,,,0,FALSE,,,,,,,,,,,,,,,,,,,,,,,,,,,,,,,
,5f435065ffd8ca5acb7068f1,627c67d44110c101253d3e26,2022-05-11_18h50.24.836,classification_task,2021.2.3,Win32,60.10337781,627c6715c52fd12f31907bcf,,,,,,,,,,,,,,,,,,,,,,,a,0,1.6513,"[""0.048"",""0.223"",""0.604"",""0.815""]","[1,1,1,0]",0,42,42,42,1,1,0,,,0,FALSE,,,,,,,,,,,,,,,,,,,,,,,,,,,,,,,
,5f435065ffd8ca5acb7068f1,627c67d44110c101253d3e26,2022-05-11_18h50.24.836,classification_task,2021.2.3,Win32,60.10337781,627c6715c52fd12f31907bcf,,,,,,,,,,,,,,,,,,,,,,,l,1,1.2503,"[""0.048"",""0.223"",""0.815"",""0.774""]","[1,1,0,1]",0,43,43,43,1,1,0,,,0,FALSE,,,,,,,,,,,,,,,,,,,,,,,,,,,,,,,
,5f435065ffd8ca5acb7068f1,627c67d44110c101253d3e26,2022-05-11_18h50.24.836,classification_task,2021.2.3,Win32,60.10337781,627c6715c52fd12f31907bcf,,,,,,,,,,,,,,,,,,,,,,,l,1,1.3673,"[""0.048"",""0.892"",""0.604"",""0.774""]","[1,0,1,1]",0,44,44,44,1,1,0,,,0,FALSE,,,,,,,,,,,,,,,,,,,,,,,,,,,,,,,
,5f435065ffd8ca5acb7068f1,627c67d44110c101253d3e26,2022-05-11_18h50.24.836,classification_task,2021.2.3,Win32,60.10337781,627c6715c52fd12f31907bcf,,,,,,,,,,,,,,,,,,,,,,,a,1,1.5175,"[""0.895"",""0.393"",""0.857"",""0.930""]","[0,1,1,1]",0,45,45,45,1,0,1,,,0,FALSE,,,,,,,,,,,,,,,,,,,,,,,,,,,,,,,
,5f435065ffd8ca5acb7068f1,627c67d44110c101253d3e26,2022-05-11_18h50.24.836,classification_task,2021.2.3,Win32,60.10337781,627c6715c52fd12f31907bcf,,,,,,,,,,,,,,,,,,,,,,,l,1,2.2158,"[""0.815"",""0.223"",""0.604"",""0.774""]","[0,1,1,1]",0,46,46,46,1,1,0,,,0,FALSE,,,,,,,,,,,,,,,,,,,,,,,,,,,,,,,
,5f435065ffd8ca5acb7068f1,627c67d44110c101253d3e26,2022-05-11_18h50.24.836,classification_task,2021.2.3,Win32,60.10337781,627c6715c52fd12f31907bcf,,,,,,,,,,,,,,,,,,,,,,,a,1,5.1023,"[""0.258"",""0.892"",""0.663"",""0.971""]","[1,0,1,1]",0,47,47,47,1,0,0,,,0,FALSE,,,,,,,,,,,,,,,,,,,,,,,,,,,,,,,
,5f435065ffd8ca5acb7068f1,627c67d44110c101253d3e26,2022-05-11_18h50.24.836,classification_task,2021.2.3,Win32,60.10337781,627c6715c52fd12f31907bcf,,,,,,,,,,,,,,,,,,,,,,,l,0,4.4328,"[""0.895"",""0.525"",""0.663"",""0.971""]","[0,1,1,1]",0,48,48,48,1,0,0,,,0,FALSE,,,,,,,,,,,,,,,,,,,,,,,,,,,,,,,
,5f435065ffd8ca5acb7068f1,627c67d44110c101253d3e26,2022-05-11_18h50.24.836,classification_task,2021.2.3,Win32,60.10337781,627c6715c52fd12f31907bcf,,,,,,,,,,,,,,,,,,,,,,,a,1,1.8326,"[""0.258"",""0.525"",""0.663"",""0.815""]","[1,1,1,0]",0,49,49,49,1,0,0,,,0,FALSE,,,,,,,,,,,,,,,,,,,,,,,,,,,,,,,
,5f435065ffd8ca5acb7068f1,627c67d44110c101253d3e26,2022-05-11_18h50.24.836,classification_task,2021.2.3,Win32,60.10337781,627c6715c52fd12f31907bcf,,,,,,,,,,,,,,,,,,,,,,,l,1,1.1209,"[""0.048"",""0.223"",""0.434"",""0.774""]","[1,1,0,1]",0,50,50,50,1,1,0,,,0,FALSE,,,,,,,,,,,,,,,,,,,,,,,,,,,,,,,
,5f435065ffd8ca5acb7068f1,627c67d44110c101253d3e26,2022-05-11_18h50.24.836,classification_task,2021.2.3,Win32,60.10337781,627c6715c52fd12f31907bcf,,,,,,,,,,,,,,,,,,,,,,,a,1,1.0664,"[""0.258"",""0.525"",""0.439"",""0.971""]","[1,1,0,1]",0,51,51,51,1,0,0,,,0,FALSE,,,,,,,,,,,,,,,,,,,,,,,,,,,,,,,
,5f435065ffd8ca5acb7068f1,627c67d44110c101253d3e26,2022-05-11_18h50.24.836,classification_task,2021.2.3,Win32,60.10337781,627c6715c52fd12f31907bcf,,,,,,,,,,,,,,,,,,,,,,,l,1,1.0161,"[""0.048"",""0.813"",""0.604"",""0.774""]","[1,0,1,1]",0,52,52,52,1,1,0,,,0,FALSE,,,,,,,,,,,,,,,,,,,,,,,,,,,,,,,
,5f435065ffd8ca5acb7068f1,627c67d44110c101253d3e26,2022-05-11_18h50.24.836,classification_task,2021.2.3,Win32,60.10337781,627c6715c52fd12f31907bcf,,,,,,,,,,,,,,,,,,,,,,,l,0,1.5845,"[""0.439"",""0.393"",""0.857"",""0.930""]","[0,1,1,1]",0,53,53,53,1,0,1,,,0,FALSE,,,,,,,,,,,,,,,,,,,,,,,,,,,,,,,
,5f435065ffd8ca5acb7068f1,627c67d44110c101253d3e26,2022-05-11_18h50.24.836,classification_task,2021.2.3,Win32,60.10337781,627c6715c52fd12f31907bcf,,,,,,,,,,,,,,,,,,,,,,,l,1,1.3822,"[""0.103"",""0.565"",""0.490"",""0.715""]","[1,0,1,1]",0,54,54,54,1,1,1,,,0,FALSE,,,,,,,,,,,,,,,,,,,,,,,,,,,,,,,
,5f435065ffd8ca5acb7068f1,627c67d44110c101253d3e26,2022-05-11_18h50.24.836,classification_task,2021.2.3,Win32,60.10337781,627c6715c52fd12f31907bcf,,,,,,,,,,,,,,,,,,,,,,,a,1,0.9657,"[""0.179"",""0.393"",""0.857"",""0.313""]","[1,1,1,0]",0,55,55,55,1,0,1,,,0,FALSE,,,,,,,,,,,,,,,,,,,,,,,,,,,,,,,
,5f435065ffd8ca5acb7068f1,627c67d44110c101253d3e26,2022-05-11_18h50.24.836,classification_task,2021.2.3,Win32,60.10337781,627c6715c52fd12f31907bcf,,,,,,,,,,,,,,,,,,,,,,,a,1,0.984,"[""0.179"",""0.393"",""0.814"",""0.930""]","[1,1,0,1]",0,56,56,56,1,0,1,,,0,FALSE,,,,,,,,,,,,,,,,,,,,,,,,,,,,,,,
,5f435065ffd8ca5acb7068f1,627c67d44110c101253d3e26,2022-05-11_18h50.24.836,classification_task,2021.2.3,Win32,60.10337781,627c6715c52fd12f31907bcf,,,,,,,,,,,,,,,,,,,,,,,l,1,1.7011,"[""0.565"",""0.223"",""0.604"",""0.774""]","[0,1,1,1]",0,57,57,57,1,1,0,,,0,FALSE,,,,,,,,,,,,,,,,,,,,,,,,,,,,,,,
,5f435065ffd8ca5acb7068f1,627c67d44110c101253d3e26,2022-05-11_18h50.24.836,classification_task,2021.2.3,Win32,60.10337781,627c6715c52fd12f31907bcf,,,,,,,,,,,,,,,,,,,,,,,l,1,1.7157,"[""0.103"",""0.347"",""0.490"",""0.565""]","[1,1,1,0]",0,58,58,58,1,1,1,,,0,FALSE,,,,,,,,,,,,,,,,,,,,,,,,,,,,,,,
,5f435065ffd8ca5acb7068f1,627c67d44110c101253d3e26,2022-05-11_18h50.24.836,classification_task,2021.2.3,Win32,60.10337781,627c6715c52fd12f31907bcf,,,,,,,,,,,,,,,,,,,,,,,a,0,1.0883,"[""0.048"",""0.223"",""0.604"",""0.455""]","[1,1,1,0]",0,59,59,59,1,1,0,,,0,FALSE,,,,,,,,,,,,,,,,,,,,,,,,,,,,,,,
,5f435065ffd8ca5acb7068f1,627c67d44110c101253d3e26,2022-05-11_18h50.24.836,classification_task,2021.2.3,Win32,60.10337781,627c6715c52fd12f31907bcf,,,,,,,,,,,,,,,,,,,,,,,a,1,0.7491,"[""0.258"",""0.813"",""0.663"",""0.971""]","[1,0,1,1]",0,60,60,60,1,0,0,,,0,FALSE,,,,,,,,,,,,,,,,,,,,,,,,,,,,,,,
,5f435065ffd8ca5acb7068f1,627c67d44110c101253d3e26,2022-05-11_18h50.24.836,classification_task,2021.2.3,Win32,60.10337781,627c6715c52fd12f31907bcf,,,,,,,,,,,,,,,,,,,,,,,l,0,1.417,"[""0.179"",""0.814"",""0.857"",""0.930""]","[1,0,1,1]",0,61,61,61,1,0,1,,,0,FALSE,,,,,,,,,,,,,,,,,,,,,,,,,,,,,,,
,5f435065ffd8ca5acb7068f1,627c67d44110c101253d3e26,2022-05-11_18h50.24.836,classification_task,2021.2.3,Win32,60.10337781,627c6715c52fd12f31907bcf,,,,,,,,,,,,,,,,,,,,,,,l,1,1.7196,"[""0.565"",""0.347"",""0.490"",""0.715""]","[0,1,1,1]",0,62,62,62,1,1,1,,,0,FALSE,,,,,,,,,,,,,,,,,,,,,,,,,,,,,,,
,5f435065ffd8ca5acb7068f1,627c67d44110c101253d3e26,2022-05-11_18h50.24.836,classification_task,2021.2.3,Win32,60.10337781,627c6715c52fd12f31907bcf,,,,,,,,,,,,,,,,,,,,,,,l,1,1.1989,"[""0.103"",""0.347"",""0.439"",""0.715""]","[1,1,0,1]",0,63,63,63,1,1,1,,,0,FALSE,,,,,,,,,,,,,,,,,,,,,,,,,,,,,,,
,5f435065ffd8ca5acb7068f1,627c67d44110c101253d3e26,2022-05-11_18h50.24.836,classification_task,2021.2.3,Win32,60.10337781,627c6715c52fd12f31907bcf,,,,,,,,,,,,,,,,,,,,,,,,,,,,,,,,,,,,,,,0, ,,0,4.877523773,328.8956,0,0,0,0,1,2,1,,,,,,,,,,,,,,,,,,
,5f435065ffd8ca5acb7068f1,627c67d44110c101253d3e26,2022-05-11_18h50.24.836,classification_task,2021.2.3,Win32,60.10337781,627c6715c52fd12f31907bcf,,,,,,,,,,,,,,,,,,,,,,,,,,,,,,,,,,,,,,,1,  ,,0,7.033119269,334.2118,0,0,0,0,1,2,1,,,,,,,,,,,,,,,,,,
,5f435065ffd8ca5acb7068f1,627c67d44110c101253d3e26,2022-05-11_18h50.24.836,classification_task,2021.2.3,Win32,60.10337781,627c6715c52fd12f31907bcf,,,,,,,,,,,,,,,,,,,,,,,,,,,,,,,,,,,,,,,2,  ,,0,1.570645466,339.1097,0,0,0,0,1,2,1,,,,,,,,,,,,,,,,,,
,5f435065ffd8ca5acb7068f1,627c67d44110c101253d3e26,2022-05-11_18h50.24.836,classification_task,2021.2.3,Win32,60.10337781,627c6715c52fd12f31907bcf,,,,,,,,,,,,,,,,,,,,,,,,,,,,,,,,,,,,,,,,,,,,,0,0,0,0,1,,1,,,,,,,,,,,,,,,,,,
,5f435065ffd8ca5acb7068f1,627c67d44110c101253d3e26,2022-05-11_18h50.24.836,classification_task,2021.2.3,Win32,60.10337781,627c6715c52fd12f31907bcf,,,,,,,,,,,,,,,,,,,,,space,2.0663,a,1,2.9371,"[""0.179"",""0.393"",""0.857"",""0.813""]","[1,1,1,0]",0,0,0,0,1,0,1,,,0,FALSE,,,,,,,,,,,,,,,,,,,,,,,,,,,,,,,
,5f435065ffd8ca5acb7068f1,627c67d44110c101253d3e26,2022-05-11_18h50.24.836,classification_task,2021.2.3,Win32,60.10337781,627c6715c52fd12f31907bcf,,,,,,,,,,,,,,,,,,,,,,,a,1,5.4508,"[""0.258"",""0.565"",""0.663"",""0.971""]","[1,0,1,1]",0,1,1,1,1,0,0,,,0,FALSE,,,,,,,,,,,,,,,,,,,,,,,,,,,,,,,
,5f435065ffd8ca5acb7068f1,627c67d44110c101253d3e26,2022-05-11_18h50.24.836,classification_task,2021.2.3,Win32,60.10337781,627c6715c52fd12f31907bcf,,,,,,,,,,,,,,,,,,,,,,,a,1,3.7629,"[""0.179"",""0.393"",""0.815"",""0.930""]","[1,1,0,1]",0,2,2,2,1,0,1,,,0,FALSE,,,,,,,,,,,,,,,,,,,,,,,,,,,,,,,
,5f435065ffd8ca5acb7068f1,627c67d44110c101253d3e26,2022-05-11_18h50.24.836,classification_task,2021.2.3,Win32,60.10337781,627c6715c52fd12f31907bcf,,,,,,,,,,,,,,,,,,,,,,,a,1,1.1008,"[""0.258"",""0.525"",""0.814"",""0.971""]","[1,1,0,1]",0,3,3,3,1,0,0,,,0,FALSE,,,,,,,,,,,,,,,,,,,,,,,,,,,,,,,
,5f435065ffd8ca5acb7068f1,627c67d44110c101253d3e26,2022-05-11_18h50.24.836,classification_task,2021.2.3,Win32,60.10337781,627c6715c52fd12f31907bcf,,,,,,,,,,,,,,,,,,,,,,,l,1,0.7916,"[""0.048"",""0.223"",""0.604"",""0.813""]","[1,1,1,0]",0,4,4,4,1,1,0,,,0,FALSE,,,,,,,,,,,,,,,,,,,,,,,,,,,,,,,
,5f435065ffd8ca5acb7068f1,627c67d44110c101253d3e26,2022-05-11_18h50.24.836,classification_task,2021.2.3,Win32,60.10337781,627c6715c52fd12f31907bcf,,,,,,,,,,,,,,,,,,,,,,,l,1,0.9522,"[""0.103"",""0.814"",""0.490"",""0.715""]","[1,0,1,1]",0,5,5,5,1,1,1,,,0,FALSE,,,,,,,,,,,,,,,,,,,,,,,,,,,,,,,
,5f435065ffd8ca5acb7068f1,627c67d44110c101253d3e26,2022-05-11_18h50.24.836,classification_task,2021.2.3,Win32,60.10337781,627c6715c52fd12f31907bcf,,,,,,,,,,,,,,,,,,,,,,,a,1,0.967,"[""0.809"",""0.525"",""0.663"",""0.971""]","[0,1,1,1]",0,6,6,6,1,0,0,,,0,FALSE,,,,,,,,,,,,,,,,,,,,,,,,,,,,,,,
,5f435065ffd8ca5acb7068f1,627c67d44110c101253d3e26,2022-05-11_18h50.24.836,classification_task,2021.2.3,Win32,60.10337781,627c6715c52fd12f31907bcf,,,,,,,,,,,,,,,,,,,,,,,l,1,0.7003,"[""0.048"",""0.313"",""0.604"",""0.774""]","[1,0,1,1]",0,7,7,7,1,1,0,,,0,FALSE,,,,,,,,,,,,,,,,,,,,,,,,,,,,,,,
,5f435065ffd8ca5acb7068f1,627c67d44110c101253d3e26,2022-05-11_18h50.24.836,classification_task,2021.2.3,Win32,60.10337781,627c6715c52fd12f31907bcf,,,,,,,,,,,,,,,,,,,,,,,a,1,0.5167,"[""0.258"",""0.525"",""0.663"",""0.303""]","[1,1,1,0]",0,8,8,8,1,0,0,,,0,FALSE,,,,,,,,,,,,,,,,,,,,,,,,,,,,,,,
,5f435065ffd8ca5acb7068f1,627c67d44110c101253d3e26,2022-05-11_18h50.24.836,classification_task,2021.2.3,Win32,60.10337781,627c6715c52fd12f31907bcf,,,,,,,,,,,,,,,,,,,,,,,l,1,0.6506,"[""0.048"",""0.223"",""0.892"",""0.774""]","[1,1,0,1]",0,9,9,9,1,1,0,,,0,FALSE,,,,,,,,,,,,,,,,,,,,,,,,,,,,,,,
,5f435065ffd8ca5acb7068f1,627c67d44110c101253d3e26,2022-05-11_18h50.24.836,classification_task,2021.2.3,Win32,60.10337781,627c6715c52fd12f31907bcf,,,,,,,,,,,,,,,,,,,,,,,a,1,1.899,"[""0.179"",""0.565"",""0.857"",""0.930""]","[1,0,1,1]",0,10,10,10,1,0,1,,,0,FALSE,,,,,,,,,,,,,,,,,,,,,,,,,,,,,,,
,5f435065ffd8ca5acb7068f1,627c67d44110c101253d3e26,2022-05-11_18h50.24.836,classification_task,2021.2.3,Win32,60.10337781,627c6715c52fd12f31907bcf,,,,,,,,,,,,,,,,,,,,,,,l,1,1.0707,"[""0.103"",""0.347"",""0.455"",""0.715""]","[1,1,0,1]",0,11,11,11,1,1,1,,,0,FALSE,,,,,,,,,,,,,,,,,,,,,,,,,,,,,,,
,5f435065ffd8ca5acb7068f1,627c67d44110c101253d3e26,2022-05-11_18h50.24.836,classification_task,2021.2.3,Win32,60.10337781,627c6715c52fd12f31907bcf,,,,,,,,,,,,,,,,,,,,,,,a,1,1.1508,"[""0.563"",""0.393"",""0.857"",""0.930""]","[0,1,1,1]",0,12,12,12,1,0,1,,,0,FALSE,,,,,,,,,,,,,,,,,,,,,,,,,,,,,,,
,5f435065ffd8ca5acb7068f1,627c67d44110c101253d3e26,2022-05-11_18h50.24.836,classification_task,2021.2.3,Win32,60.10337781,627c6715c52fd12f31907bcf,,,,,,,,,,,,,,,,,,,,,,,l,1,1.1161,"[""0.895"",""0.347"",""0.490"",""0.715""]","[0,1,1,1]",0,13,13,13,1,1,1,,,0,FALSE,,,,,,,,,,,,,,,,,,,,,,,,,,,,,,,
,5f435065ffd8ca5acb7068f1,627c67d44110c101253d3e26,2022-05-11_18h50.24.836,classification_task,2021.2.3,Win32,60.10337781,627c6715c52fd12f31907bcf,,,,,,,,,,,,,,,,,,,,,,,l,1,0.8805,"[""0.455"",""0.223"",""0.604"",""0.774""]","[0,1,1,1]",0,14,14,14,1,1,0,,,0,FALSE,,,,,,,,,,,,,,,,,,,,,,,,,,,,,,,
,5f435065ffd8ca5acb7068f1,627c67d44110c101253d3e26,2022-05-11_18h50.24.836,classification_task,2021.2.3,Win32,60.10337781,627c6715c52fd12f31907bcf,,,,,,,,,,,,,,,,,,,,,,,l,1,1.1519,"[""0.103"",""0.347"",""0.490"",""0.455""]","[1,1,1,0]",0,15,15,15,1,1,1,,,0,FALSE,,,,,,,,,,,,,,,,,,,,,,,,,,,,,,,
,5f435065ffd8ca5acb7068f1,627c67d44110c101253d3e26,2022-05-11_18h50.24.836,classification_task,2021.2.3,Win32,60.10337781,627c6715c52fd12f31907bcf,,,,,,,,,,,,,,,,,,,,,,,a,1,0.7471,"[""0.258"",""0.525"",""0.450"",""0.971""]","[1,1,0,1]",0,16,16,16,1,0,0,,,0,FALSE,,,,,,,,,,,,,,,,,,,,,,,,,,,,,,,
,5f435065ffd8ca5acb7068f1,627c67d44110c101253d3e26,2022-05-11_18h50.24.836,classification_task,2021.2.3,Win32,60.10337781,627c6715c52fd12f31907bcf,,,,,,,,,,,,,,,,,,,,,,,l,1,0.635,"[""0.048"",""0.223"",""0.604"",""0.439""]","[1,1,1,0]",0,17,17,17,1,1,0,,,0,FALSE,,,,,,,,,,,,,,,,,,,,,,,,,,,,,,,
,5f435065ffd8ca5acb7068f1,627c67d44110c101253d3e26,2022-05-11_18h50.24.836,classification_task,2021.2.3,Win32,60.10337781,627c6715c52fd12f31907bcf,,,,,,,,,,,,,,,,,,,,,,,a,1,0.8312,"[""0.313"",""0.525"",""0.663"",""0.971""]","[0,1,1,1]",0,18,18,18,1,0,0,,,0,FALSE,,,,,,,,,,,,,,,,,,,,,,,,,,,,,,,
,5f435065ffd8ca5acb7068f1,627c67d44110c101253d3e26,2022-05-11_18h50.24.836,classification_task,2021.2.3,Win32,60.10337781,627c6715c52fd12f31907bcf,,,,,,,,,,,,,,,,,,,,,,,a,1,0.769,"[""0.258"",""0.303"",""0.663"",""0.971""]","[1,0,1,1]",0,19,19,19,1,0,0,,,0,FALSE,,,,,,,,,,,,,,,,,,,,,,,,,,,,,,,
,5f435065ffd8ca5acb7068f1,627c67d44110c101253d3e26,2022-05-11_18h50.24.836,classification_task,2021.2.3,Win32,60.10337781,627c6715c52fd12f31907bcf,,,,,,,,,,,,,,,,,,,,,,,a,1,1.6008,"[""0.434"",""0.393"",""0.857"",""0.930""]","[0,1,1,1]",0,20,20,20,1,0,1,,,0,FALSE,,,,,,,,,,,,,,,,,,,,,,,,,,,,,,,
,5f435065ffd8ca5acb7068f1,627c67d44110c101253d3e26,2022-05-11_18h50.24.836,classification_task,2021.2.3,Win32,60.10337781,627c6715c52fd12f31907bcf,,,,,,,,,,,,,,,,,,,,,,,l,1,1.2928,"[""0.103"",""0.563"",""0.490"",""0.715""]","[1,0,1,1]",0,21,21,21,1,1,1,,,0,FALSE,,,,,,,,,,,,,,,,,,,,,,,,,,,,,,,
,5f435065ffd8ca5acb7068f1,627c67d44110c101253d3e26,2022-05-11_18h50.24.836,classification_task,2021.2.3,Win32,60.10337781,627c6715c52fd12f31907bcf,,,,,,,,,,,,,,,,,,,,,,,l,1,1.0291,"[""0.455"",""0.223"",""0.604"",""0.774""]","[0,1,1,1]",0,22,22,22,1,1,0,,,0,FALSE,,,,,,,,,,,,,,,,,,,,,,,,,,,,,,,
,5f435065ffd8ca5acb7068f1,627c67d44110c101253d3e26,2022-05-11_18h50.24.836,classification_task,2021.2.3,Win32,60.10337781,627c6715c52fd12f31907bcf,,,,,,,,,,,,,,,,,,,,,,,a,0,1.0857,"[""0.439"",""0.347"",""0.490"",""0.715""]","[0,1,1,1]",0,23,23,23,1,1,1,,,0,FALSE,,,,,,,,,,,,,,,,,,,,,,,,,,,,,,,
,5f435065ffd8ca5acb7068f1,627c67d44110c101253d3e26,2022-05-11_18h50.24.836,classification_task,2021.2.3,Win32,60.10337781,627c6715c52fd12f31907bcf,,,,,,,,,,,,,,,,,,,,,,,a,1,0.7203,"[""0.258"",""0.525"",""0.663"",""0.814""]","[1,1,1,0]",0,24,24,24,1,0,0,,,0,FALSE,,,,,,,,,,,,,,,,,,,,,,,,,,,,,,,
,5f435065ffd8ca5acb7068f1,627c67d44110c101253d3e26,2022-05-11_18h50.24.836,classification_task,2021.2.3,Win32,60.10337781,627c6715c52fd12f31907bcf,,,,,,,,,,,,,,,,,,,,,,,a,1,1.9889,"[""0.179"",""0.303"",""0.857"",""0.930""]","[1,0,1,1]",0,25,25,25,1,0,1,,,0,FALSE,,,,,,,,,,,,,,,,,,,,,,,,,,,,,,,
,5f435065ffd8ca5acb7068f1,627c67d44110c101253d3e26,2022-05-11_18h50.24.836,classification_task,2021.2.3,Win32,60.10337781,627c6715c52fd12f31907bcf,,,,,,,,,,,,,,,,,,,,,,,l,1,1.5006,"[""0.103"",""0.347"",""0.450"",""0.715""]","[1,1,0,1]",0,26,26,26,1,1,1,,,0,FALSE,,,,,,,,,,,,,,,,,,,,,,,,,,,,,,,
,5f435065ffd8ca5acb7068f1,627c67d44110c101253d3e26,2022-05-11_18h50.24.836,classification_task,2021.2.3,Win32,60.10337781,627c6715c52fd12f31907bcf,,,,,,,,,,,,,,,,,,,,,,,l,1,1.2175,"[""0.103"",""0.347"",""0.490"",""0.455""]","[1,1,1,0]",0,27,27,27,1,1,1,,,0,FALSE,,,,,,,,,,,,,,,,,,,,,,,,,,,,,,,
,5f435065ffd8ca5acb7068f1,627c67d44110c101253d3e26,2022-05-11_18h50.24.836,classification_task,2021.2.3,Win32,60.10337781,627c6715c52fd12f31907bcf,,,,,,,,,,,,,,,,,,,,,,,l,1,1.0338,"[""0.048"",""0.895"",""0.604"",""0.774""]","[1,0,1,1]",0,28,28,28,1,1,0,,,0,FALSE,,,,,,,,,,,,,,,,,,,,,,,,,,,,,,,
,5f435065ffd8ca5acb7068f1,627c67d44110c101253d3e26,2022-05-11_18h50.24.836,classification_task,2021.2.3,Win32,60.10337781,627c6715c52fd12f31907bcf,,,,,,,,,,,,,,,,,,,,,,,a,1,3.2007,"[""0.179"",""0.393"",""0.857"",""0.813""]","[1,1,1,0]",0,29,29,29,1,0,1,,,0,FALSE,,,,,,,,,,,,,,,,,,,,,,,,,,,,,,,
,5f435065ffd8ca5acb7068f1,627c67d44110c101253d3e26,2022-05-11_18h50.24.836,classification_task,2021.2.3,Win32,60.10337781,627c6715c52fd12f31907bcf,,,,,,,,,,,,,,,,,,,,,,,a,1,1.2333,"[""0.179"",""0.393"",""0.892"",""0.930""]","[1,1,0,1]",0,30,30,30,1,0,1,,,0,FALSE,,,,,,,,,,,,,,,,,,,,,,,,,,,,,,,
,5f435065ffd8ca5acb7068f1,627c67d44110c101253d3e26,2022-05-11_18h50.24.836,classification_task,2021.2.3,Win32,60.10337781,627c6715c52fd12f31907bcf,,,,,,,,,,,,,,,,,,,,,,,l,1,2.0178,"[""0.048"",""0.223"",""0.895"",""0.774""]","[1,1,0,1]",0,31,31,31,1,1,0,,,0,FALSE,,,,,,,,,,,,,,,,,,,,,,,,,,,,,,,
,5f435065ffd8ca5acb7068f1,627c67d44110c101253d3e26,2022-05-11_18h50.24.836,classification_task,2021.2.3,Win32,60.10337781,627c6715c52fd12f31907bcf,,,,,,,,,,,,,,,,,,,,,,,l,1,1.3813,"[""0.048"",""0.892"",""0.604"",""0.774""]","[1,0,1,1]",0,32,32,32,1,1,0,,,0,FALSE,,,,,,,,,,,,,,,,,,,,,,,,,,,,,,,
,5f435065ffd8ca5acb7068f1,627c67d44110c101253d3e26,2022-05-11_18h50.24.836,classification_task,2021.2.3,Win32,60.10337781,627c6715c52fd12f31907bcf,,,,,,,,,,,,,,,,,,,,,,,l,1,0.8155,"[""0.455"",""0.223"",""0.604"",""0.774""]","[0,1,1,1]",0,33,33,33,1,1,0,,,0,FALSE,,,,,,,,,,,,,,,,,,,,,,,,,,,,,,,
,5f435065ffd8ca5acb7068f1,627c67d44110c101253d3e26,2022-05-11_18h50.24.836,classification_task,2021.2.3,Win32,60.10337781,627c6715c52fd12f31907bcf,,,,,,,,,,,,,,,,,,,,,,,a,1,0.8169,"[""0.809"",""0.525"",""0.663"",""0.971""]","[0,1,1,1]",0,34,34,34,1,0,0,,,0,FALSE,,,,,,,,,,,,,,,,,,,,,,,,,,,,,,,
,5f435065ffd8ca5acb7068f1,627c67d44110c101253d3e26,2022-05-11_18h50.24.836,classification_task,2021.2.3,Win32,60.10337781,627c6715c52fd12f31907bcf,,,,,,,,,,,,,,,,,,,,,,,l,1,1.1671,"[""0.048"",""0.223"",""0.439"",""0.774""]","[1,1,0,1]",0,35,35,35,1,1,0,,,0,FALSE,,,,,,,,,,,,,,,,,,,,,,,,,,,,,,,
,5f435065ffd8ca5acb7068f1,627c67d44110c101253d3e26,2022-05-11_18h50.24.836,classification_task,2021.2.3,Win32,60.10337781,627c6715c52fd12f31907bcf,,,,,,,,,,,,,,,,,,,,,,,a,1,0.6699,"[""0.258"",""0.814"",""0.663"",""0.971""]","[1,0,1,1]",0,36,36,36,1,0,0,,,0,FALSE,,,,,,,,,,,,,,,,,,,,,,,,,,,,,,,
,5f435065ffd8ca5acb7068f1,627c67d44110c101253d3e26,2022-05-11_18h50.24.836,classification_task,2021.2.3,Win32,60.10337781,627c6715c52fd12f31907bcf,,,,,,,,,,,,,,,,,,,,,,,a,1,1.416,"[""0.179"",""0.393"",""0.563"",""0.930""]","[1,1,0,1]",0,37,37,37,1,0,1,,,0,FALSE,,,,,,,,,,,,,,,,,,,,,,,,,,,,,,,
,5f435065ffd8ca5acb7068f1,627c67d44110c101253d3e26,2022-05-11_18h50.24.836,classification_task,2021.2.3,Win32,60.10337781,627c6715c52fd12f31907bcf,,,,,,,,,,,,,,,,,,,,,,,l,1,0.9839,"[""0.103"",""0.347"",""0.455"",""0.715""]","[1,1,0,1]",0,38,38,38,1,1,1,,,0,FALSE,,,,,,,,,,,,,,,,,,,,,,,,,,,,,,,
,5f435065ffd8ca5acb7068f1,627c67d44110c101253d3e26,2022-05-11_18h50.24.836,classification_task,2021.2.3,Win32,60.10337781,627c6715c52fd12f31907bcf,,,,,,,,,,,,,,,,,,,,,,,a,0,0.9352,"[""0.813"",""0.347"",""0.490"",""0.715""]","[0,1,1,1]",0,39,39,39,1,1,1,,,0,FALSE,,,,,,,,,,,,,,,,,,,,,,,,,,,,,,,
,5f435065ffd8ca5acb7068f1,627c67d44110c101253d3e26,2022-05-11_18h50.24.836,classification_task,2021.2.3,Win32,60.10337781,627c6715c52fd12f31907bcf,,,,,,,,,,,,,,,,,,,,,,,a,1,0.7188,"[""0.258"",""0.525"",""0.809"",""0.971""]","[1,1,0,1]",0,40,40,40,1,0,0,,,0,FALSE,,,,,,,,,,,,,,,,,,,,,,,,,,,,,,,
,5f435065ffd8ca5acb7068f1,627c67d44110c101253d3e26,2022-05-11_18h50.24.836,classification_task,2021.2.3,Win32,60.10337781,627c6715c52fd12f31907bcf,,,,,,,,,,,,,,,,,,,,,,,a,0,1.3006,"[""0.103"",""0.347"",""0.490"",""0.439""]","[1,1,1,0]",0,41,41,41,1,1,1,,,0,FALSE,,,,,,,,,,,,,,,,,,,,,,,,,,,,,,,
,5f435065ffd8ca5acb7068f1,627c67d44110c101253d3e26,2022-05-11_18h50.24.836,classification_task,2021.2.3,Win32,60.10337781,627c6715c52fd12f31907bcf,,,,,,,,,,,,,,,,,,,,,,,a,1,0.8006,"[""0.179"",""0.450"",""0.857"",""0.930""]","[1,0,1,1]",0,42,42,42,1,0,1,,,0,FALSE,,,,,,,,,,,,,,,,,,,,,,,,,,,,,,,
,5f435065ffd8ca5acb7068f1,627c67d44110c101253d3e26,2022-05-11_18h50.24.836,classification_task,2021.2.3,Win32,60.10337781,627c6715c52fd12f31907bcf,,,,,,,,,,,,,,,,,,,,,,,a,1,1.367,"[""0.814"",""0.393"",""0.857"",""0.930""]","[0,1,1,1]",0,43,43,43,1,0,1,,,0,FALSE,,,,,,,,,,,,,,,,,,,,,,,,,,,,,,,
,5f435065ffd8ca5acb7068f1,627c67d44110c101253d3e26,2022-05-11_18h50.24.836,classification_task,2021.2.3,Win32,60.10337781,627c6715c52fd12f31907bcf,,,,,,,,,,,,,,,,,,,,,,,l,1,1.2825,"[""0.103"",""0.892"",""0.490"",""0.715""]","[1,0,1,1]",0,44,44,44,1,1,1,,,0,FALSE,,,,,,,,,,,,,,,,,,,,,,,,,,,,,,,
,5f435065ffd8ca5acb7068f1,627c67d44110c101253d3e26,2022-05-11_18h50.24.836,classification_task,2021.2.3,Win32,60.10337781,627c6715c52fd12f31907bcf,,,,,,,,,,,,,,,,,,,,,,,a,1,1.4511,"[""0.179"",""0.393"",""0.857"",""0.434""]","[1,1,1,0]",0,45,45,45,1,0,1,,,0,FALSE,,,,,,,,,,,,,,,,,,,,,,,,,,,,,,,
,5f435065ffd8ca5acb7068f1,627c67d44110c101253d3e26,2022-05-11_18h50.24.836,classification_task,2021.2.3,Win32,60.10337781,627c6715c52fd12f31907bcf,,,,,,,,,,,,,,,,,,,,,,,a,1,0.884,"[""0.258"",""0.525"",""0.663"",""0.892""]","[1,1,1,0]",0,46,46,46,1,0,0,,,0,FALSE,,,,,,,,,,,,,,,,,,,,,,,,,,,,,,,
,5f435065ffd8ca5acb7068f1,627c67d44110c101253d3e26,2022-05-11_18h50.24.836,classification_task,2021.2.3,Win32,60.10337781,627c6715c52fd12f31907bcf,,,,,,,,,,,,,,,,,,,,,,,l,1,0.7673,"[""0.048"",""0.223"",""0.604"",""0.565""]","[1,1,1,0]",0,47,47,47,1,1,0,,,0,FALSE,,,,,,,,,,,,,,,,,,,,,,,,,,,,,,,
,5f435065ffd8ca5acb7068f1,627c67d44110c101253d3e26,2022-05-11_18h50.24.836,classification_task,2021.2.3,Win32,60.10337781,627c6715c52fd12f31907bcf,,,,,,,,,,,,,,,,,,,,,,,a,0,1.0658,"[""0.813"",""0.347"",""0.490"",""0.715""]","[0,1,1,1]",0,48,48,48,1,1,1,,,0,FALSE,,,,,,,,,,,,,,,,,,,,,,,,,,,,,,,
,5f435065ffd8ca5acb7068f1,627c67d44110c101253d3e26,2022-05-11_18h50.24.836,classification_task,2021.2.3,Win32,60.10337781,627c6715c52fd12f31907bcf,,,,,,,,,,,,,,,,,,,,,,,a,1,1,"[""0.179"",""0.393"",""0.857"",""0.434""]","[1,1,1,0]",0,49,49,49,1,0,1,,,0,FALSE,,,,,,,,,,,,,,,,,,,,,,,,,,,,,,,
,5f435065ffd8ca5acb7068f1,627c67d44110c101253d3e26,2022-05-11_18h50.24.836,classification_task,2021.2.3,Win32,60.10337781,627c6715c52fd12f31907bcf,,,,,,,,,,,,,,,,,,,,,,,l,1,1.0516,"[""0.048"",""0.455"",""0.604"",""0.774""]","[1,0,1,1]",0,50,50,50,1,1,0,,,0,FALSE,,,,,,,,,,,,,,,,,,,,,,,,,,,,,,,
,5f435065ffd8ca5acb7068f1,627c67d44110c101253d3e26,2022-05-11_18h50.24.836,classification_task,2021.2.3,Win32,60.10337781,627c6715c52fd12f31907bcf,,,,,,,,,,,,,,,,,,,,,,,a,1,1.7673,"[""0.895"",""0.393"",""0.857"",""0.930""]","[0,1,1,1]",0,51,51,51,1,0,1,,,0,FALSE,,,,,,,,,,,,,,,,,,,,,,,,,,,,,,,
,5f435065ffd8ca5acb7068f1,627c67d44110c101253d3e26,2022-05-11_18h50.24.836,classification_task,2021.2.3,Win32,60.10337781,627c6715c52fd12f31907bcf,,,,,,,,,,,,,,,,,,,,,,,a,1,1.0313,"[""0.258"",""0.525"",""0.663"",""0.450""]","[1,1,1,0]",0,52,52,52,1,0,0,,,0,FALSE,,,,,,,,,,,,,,,,,,,,,,,,,,,,,,,
,5f435065ffd8ca5acb7068f1,627c67d44110c101253d3e26,2022-05-11_18h50.24.836,classification_task,2021.2.3,Win32,60.10337781,627c6715c52fd12f31907bcf,,,,,,,,,,,,,,,,,,,,,,,l,1,1.153,"[""0.048"",""0.223"",""0.815"",""0.774""]","[1,1,0,1]",0,53,53,53,1,1,0,,,0,FALSE,,,,,,,,,,,,,,,,,,,,,,,,,,,,,,,
,5f435065ffd8ca5acb7068f1,627c67d44110c101253d3e26,2022-05-11_18h50.24.836,classification_task,2021.2.3,Win32,60.10337781,627c6715c52fd12f31907bcf,,,,,,,,,,,,,,,,,,,,,,,l,1,0.8,"[""0.434"",""0.223"",""0.604"",""0.774""]","[0,1,1,1]",0,54,54,54,1,1,0,,,0,FALSE,,,,,,,,,,,,,,,,,,,,,,,,,,,,,,,
,5f435065ffd8ca5acb7068f1,627c67d44110c101253d3e26,2022-05-11_18h50.24.836,classification_task,2021.2.3,Win32,60.10337781,627c6715c52fd12f31907bcf,,,,,,,,,,,,,,,,,,,,,,,l,1,1.7871,"[""0.103"",""0.303"",""0.490"",""0.715""]","[1,0,1,1]",0,55,55,55,1,1,1,,,0,FALSE,,,,,,,,,,,,,,,,,,,,,,,,,,,,,,,
,5f435065ffd8ca5acb7068f1,627c67d44110c101253d3e26,2022-05-11_18h50.24.836,classification_task,2021.2.3,Win32,60.10337781,627c6715c52fd12f31907bcf,,,,,,,,,,,,,,,,,,,,,,,a,1,1.1675,"[""0.179"",""0.565"",""0.857"",""0.930""]","[1,0,1,1]",0,56,56,56,1,0,1,,,0,FALSE,,,,,,,,,,,,,,,,,,,,,,,,,,,,,,,
,5f435065ffd8ca5acb7068f1,627c67d44110c101253d3e26,2022-05-11_18h50.24.836,classification_task,2021.2.3,Win32,60.10337781,627c6715c52fd12f31907bcf,,,,,,,,,,,,,,,,,,,,,,,a,1,1.1507,"[""0.450"",""0.525"",""0.663"",""0.971""]","[0,1,1,1]",0,57,57,57,1,0,0,,,0,FALSE,,,,,,,,,,,,,,,,,,,,,,,,,,,,,,,
,5f435065ffd8ca5acb7068f1,627c67d44110c101253d3e26,2022-05-11_18h50.24.836,classification_task,2021.2.3,Win32,60.10337781,627c6715c52fd12f31907bcf,,,,,,,,,,,,,,,,,,,,,,,a,1,1.6176,"[""0.179"",""0.393"",""0.895"",""0.930""]","[1,1,0,1]",0,58,58,58,1,0,1,,,0,FALSE,,,,,,,,,,,,,,,,,,,,,,,,,,,,,,,
,5f435065ffd8ca5acb7068f1,627c67d44110c101253d3e26,2022-05-11_18h50.24.836,classification_task,2021.2.3,Win32,60.10337781,627c6715c52fd12f31907bcf,,,,,,,,,,,,,,,,,,,,,,,l,1,0.8333,"[""0.103"",""0.347"",""0.490"",""0.892""]","[1,1,1,0]",0,59,59,59,1,1,1,,,0,FALSE,,,,,,,,,,,,,,,,,,,,,,,,,,,,,,,
,5f435065ffd8ca5acb7068f1,627c67d44110c101253d3e26,2022-05-11_18h50.24.836,classification_task,2021.2.3,Win32,60.10337781,627c6715c52fd12f31907bcf,,,,,,,,,,,,,,,,,,,,,,,l,1,0.8674,"[""0.048"",""0.223"",""0.604"",""0.563""]","[1,1,1,0]",0,60,60,60,1,1,0,,,0,FALSE,,,,,,,,,,,,,,,,,,,,,,,,,,,,,,,
,5f435065ffd8ca5acb7068f1,627c67d44110c101253d3e26,2022-05-11_18h50.24.836,classification_task,2021.2.3,Win32,60.10337781,627c6715c52fd12f31907bcf,,,,,,,,,,,,,,,,,,,,,,,l,1,1.1178,"[""0.103"",""0.347"",""0.563"",""0.715""]","[1,1,0,1]",0,61,61,61,1,1,1,,,0,FALSE,,,,,,,,,,,,,,,,,,,,,,,,,,,,,,,
,5f435065ffd8ca5acb7068f1,627c67d44110c101253d3e26,2022-05-11_18h50.24.836,classification_task,2021.2.3,Win32,60.10337781,627c6715c52fd12f31907bcf,,,,,,,,,,,,,,,,,,,,,,,a,1,0.7834,"[""0.258"",""0.815"",""0.663"",""0.971""]","[1,0,1,1]",0,62,62,62,1,0,0,,,0,FALSE,,,,,,,,,,,,,,,,,,,,,,,,,,,,,,,
,5f435065ffd8ca5acb7068f1,627c67d44110c101253d3e26,2022-05-11_18h50.24.836,classification_task,2021.2.3,Win32,60.10337781,627c6715c52fd12f31907bcf,,,,,,,,,,,,,,,,,,,,,,,a,1,0.9184,"[""0.258"",""0.525"",""0.455"",""0.971""]","[1,1,0,1]",0,63,63,63,1,0,0,,,0,FALSE,,,,,,,,,,,,,,,,,,,,,,,,,,,,,,,
,5f435065ffd8ca5acb7068f1,627c67d44110c101253d3e26,2022-05-11_18h50.24.836,classification_task,2021.2.3,Win32,60.10337781,627c6715c52fd12f31907bcf,,,,,,,,,,,,,,,,,,,,,,,,,,,,,,,,,,,,,,,0, ,,0,2.550462009,151.9914,0,1,1,1,1,2,2,,,,,,,,,,,,,,,,,,
,5f435065ffd8ca5acb7068f1,627c67d44110c101253d3e26,2022-05-11_18h50.24.836,classification_task,2021.2.3,Win32,60.10337781,627c6715c52fd12f31907bcf,,,,,,,,,,,,,,,,,,,,,,,,,,,,,,,,,,,,,,,1,  ,,0,3.750734862,157.992,0,1,1,1,1,2,2,,,,,,,,,,,,,,,,,,
,5f435065ffd8ca5acb7068f1,627c67d44110c101253d3e26,2022-05-11_18h50.24.836,classification_task,2021.2.3,Win32,60.10337781,627c6715c52fd12f31907bcf,,,,,,,,,,,,,,,,,,,,,,,,,,,,,,,,,,,,,,,2,  ,,0,0,156.5719,0,1,1,1,1,2,2,,,,,,,,,,,,,,,,,,
,5f435065ffd8ca5acb7068f1,627c67d44110c101253d3e26,2022-05-11_18h50.24.836,classification_task,2021.2.3,Win32,60.10337781,627c6715c52fd12f31907bcf,,,,,,,,,,,,,,,,,,,,,,,,,,,,,,,,,,,,,,,,,,,,,0,1,1,1,1,,2,,,,,,,,,,,,,,,,,,
,5f435065ffd8ca5acb7068f1,627c67d44110c101253d3e26,2022-05-11_18h50.24.836,classification_task,2021.2.3,Win32,60.10337781,627c6715c52fd12f31907bcf,,,,,,,,,,,,,,,,,,,,,space,6.987,l,1,1.2456,"[""0.048"",""0.223"",""0.604"",""0.892""]","[1,1,1,0]",0,0,0,0,1,1,0,,,0,FALSE,,,,,,,,,,,,,,,,,,,,,,,,,,,,,,,
,5f435065ffd8ca5acb7068f1,627c67d44110c101253d3e26,2022-05-11_18h50.24.836,classification_task,2021.2.3,Win32,60.10337781,627c6715c52fd12f31907bcf,,,,,,,,,,,,,,,,,,,,,,,a,1,0.9174,"[""0.258"",""0.895"",""0.663"",""0.971""]","[1,0,1,1]",0,1,1,1,1,0,0,,,0,FALSE,,,,,,,,,,,,,,,,,,,,,,,,,,,,,,,
,5f435065ffd8ca5acb7068f1,627c67d44110c101253d3e26,2022-05-11_18h50.24.836,classification_task,2021.2.3,Win32,60.10337781,627c6715c52fd12f31907bcf,,,,,,,,,,,,,,,,,,,,,,,a,1,0.9487,"[""0.179"",""0.393"",""0.857"",""0.892""]","[1,1,1,0]",0,2,2,2,1,0,1,,,0,FALSE,,,,,,,,,,,,,,,,,,,,,,,,,,,,,,,
,5f435065ffd8ca5acb7068f1,627c67d44110c101253d3e26,2022-05-11_18h50.24.836,classification_task,2021.2.3,Win32,60.10337781,627c6715c52fd12f31907bcf,,,,,,,,,,,,,,,,,,,,,,,a,1,1.0005,"[""0.258"",""0.525"",""0.663"",""0.303""]","[1,1,1,0]",0,3,3,3,1,0,0,,,0,FALSE,,,,,,,,,,,,,,,,,,,,,,,,,,,,,,,
,5f435065ffd8ca5acb7068f1,627c67d44110c101253d3e26,2022-05-11_18h50.24.836,classification_task,2021.2.3,Win32,60.10337781,627c6715c52fd12f31907bcf,,,,,,,,,,,,,,,,,,,,,,,a,1,1.1882,"[""0.179"",""0.450"",""0.857"",""0.930""]","[1,0,1,1]",0,4,4,4,1,0,1,,,0,FALSE,,,,,,,,,,,,,,,,,,,,,,,,,,,,,,,
,5f435065ffd8ca5acb7068f1,627c67d44110c101253d3e26,2022-05-11_18h50.24.836,classification_task,2021.2.3,Win32,60.10337781,627c6715c52fd12f31907bcf,,,,,,,,,,,,,,,,,,,,,,,a,1,0.7505,"[""0.258"",""0.525"",""0.450"",""0.971""]","[1,1,0,1]",0,5,5,5,1,0,0,,,0,FALSE,,,,,,,,,,,,,,,,,,,,,,,,,,,,,,,
,5f435065ffd8ca5acb7068f1,627c67d44110c101253d3e26,2022-05-11_18h50.24.836,classification_task,2021.2.3,Win32,60.10337781,627c6715c52fd12f31907bcf,,,,,,,,,,,,,,,,,,,,,,,l,1,0.9855,"[""0.103"",""0.450"",""0.490"",""0.715""]","[1,0,1,1]",0,6,6,6,1,1,1,,,0,FALSE,,,,,,,,,,,,,,,,,,,,,,,,,,,,,,,
,5f435065ffd8ca5acb7068f1,627c67d44110c101253d3e26,2022-05-11_18h50.24.836,classification_task,2021.2.3,Win32,60.10337781,627c6715c52fd12f31907bcf,,,,,,,,,,,,,,,,,,,,,,,l,1,1.1357,"[""0.103"",""0.347"",""0.490"",""0.892""]","[1,1,1,0]",0,7,7,7,1,1,1,,,0,FALSE,,,,,,,,,,,,,,,,,,,,,,,,,,,,,,,
,5f435065ffd8ca5acb7068f1,627c67d44110c101253d3e26,2022-05-11_18h50.24.836,classification_task,2021.2.3,Win32,60.10337781,627c6715c52fd12f31907bcf,,,,,,,,,,,,,,,,,,,,,,,a,1,1.1005,"[""0.179"",""0.393"",""0.434"",""0.930""]","[1,1,0,1]",0,8,8,8,1,0,1,,,0,FALSE,,,,,,,,,,,,,,,,,,,,,,,,,,,,,,,
,5f435065ffd8ca5acb7068f1,627c67d44110c101253d3e26,2022-05-11_18h50.24.836,classification_task,2021.2.3,Win32,60.10337781,627c6715c52fd12f31907bcf,,,,,,,,,,,,,,,,,,,,,,,a,1,3.6941,"[""0.434"",""0.393"",""0.857"",""0.930""]","[0,1,1,1]",0,9,9,9,1,0,1,,,0,FALSE,,,,,,,,,,,,,,,,,,,,,,,,,,,,,,,
,5f435065ffd8ca5acb7068f1,627c67d44110c101253d3e26,2022-05-11_18h50.24.836,classification_task,2021.2.3,Win32,60.10337781,627c6715c52fd12f31907bcf,,,,,,,,,,,,,,,,,,,,,,,l,1,1.9341,"[""0.892"",""0.223"",""0.604"",""0.774""]","[0,1,1,1]",0,10,10,10,1,1,0,,,0,FALSE,,,,,,,,,,,,,,,,,,,,,,,,,,,,,,,
,5f435065ffd8ca5acb7068f1,627c67d44110c101253d3e26,2022-05-11_18h50.24.836,classification_task,2021.2.3,Win32,60.10337781,627c6715c52fd12f31907bcf,,,,,,,,,,,,,,,,,,,,,,,l,1,1.0355,"[""0.103"",""0.347"",""0.303"",""0.715""]","[1,1,0,1]",0,11,11,11,1,1,1,,,0,FALSE,,,,,,,,,,,,,,,,,,,,,,,,,,,,,,,
,5f435065ffd8ca5acb7068f1,627c67d44110c101253d3e26,2022-05-11_18h50.24.836,classification_task,2021.2.3,Win32,60.10337781,627c6715c52fd12f31907bcf,,,,,,,,,,,,,,,,,,,,,,,l,1,1.5852,"[""0.048"",""0.223"",""0.809"",""0.774""]","[1,1,0,1]",0,12,12,12,1,1,0,,,0,FALSE,,,,,,,,,,,,,,,,,,,,,,,,,,,,,,,
,5f435065ffd8ca5acb7068f1,627c67d44110c101253d3e26,2022-05-11_18h50.24.836,classification_task,2021.2.3,Win32,60.10337781,627c6715c52fd12f31907bcf,,,,,,,,,,,,,,,,,,,,,,,l,1,1.9004,"[""0.048"",""0.303"",""0.604"",""0.774""]","[1,0,1,1]",0,13,13,13,1,1,0,,,0,FALSE,,,,,,,,,,,,,,,,,,,,,,,,,,,,,,,
,5f435065ffd8ca5acb7068f1,627c67d44110c101253d3e26,2022-05-11_18h50.24.836,classification_task,2021.2.3,Win32,60.10337781,627c6715c52fd12f31907bcf,,,,,,,,,,,,,,,,,,,,,,,a,0,1.9342,"[""0.450"",""0.347"",""0.490"",""0.715""]","[0,1,1,1]",0,14,14,14,1,1,1,,,0,FALSE,,,,,,,,,,,,,,,,,,,,,,,,,,,,,,,
,5f435065ffd8ca5acb7068f1,627c67d44110c101253d3e26,2022-05-11_18h50.24.836,classification_task,2021.2.3,Win32,60.10337781,627c6715c52fd12f31907bcf,,,,,,,,,,,,,,,,,,,,,,,a,1,1.0327,"[""0.813"",""0.525"",""0.663"",""0.971""]","[0,1,1,1]",0,15,15,15,1,0,0,,,0,FALSE,,,,,,,,,,,,,,,,,,,,,,,,,,,,,,,
,5f435065ffd8ca5acb7068f1,627c67d44110c101253d3e26,2022-05-11_18h50.24.836,classification_task,2021.2.3,Win32,60.10337781,627c6715c52fd12f31907bcf,,,,,,,,,,,,,,,,,,,,,,,l,1,0.9668,"[""0.815"",""0.223"",""0.604"",""0.774""]","[0,1,1,1]",0,16,16,16,1,1,0,,,0,FALSE,,,,,,,,,,,,,,,,,,,,,,,,,,,,,,,
,5f435065ffd8ca5acb7068f1,627c67d44110c101253d3e26,2022-05-11_18h50.24.836,classification_task,2021.2.3,Win32,60.10337781,627c6715c52fd12f31907bcf,,,,,,,,,,,,,,,,,,,,,,,l,1,1.4163,"[""0.103"",""0.347"",""0.303"",""0.715""]","[1,1,0,1]",0,17,17,17,1,1,1,,,0,FALSE,,,,,,,,,,,,,,,,,,,,,,,,,,,,,,,
,5f435065ffd8ca5acb7068f1,627c67d44110c101253d3e26,2022-05-11_18h50.24.836,classification_task,2021.2.3,Win32,60.10337781,627c6715c52fd12f31907bcf,,,,,,,,,,,,,,,,,,,,,,,l,1,1.2991,"[""0.103"",""0.347"",""0.490"",""0.563""]","[1,1,1,0]",0,18,18,18,1,1,1,,,0,FALSE,,,,,,,,,,,,,,,,,,,,,,,,,,,,,,,
,5f435065ffd8ca5acb7068f1,627c67d44110c101253d3e26,2022-05-11_18h50.24.836,classification_task,2021.2.3,Win32,60.10337781,627c6715c52fd12f31907bcf,,,,,,,,,,,,,,,,,,,,,,,a,1,0.9198,"[""0.258"",""0.525"",""0.455"",""0.971""]","[1,1,0,1]",0,19,19,19,1,0,0,,,0,FALSE,,,,,,,,,,,,,,,,,,,,,,,,,,,,,,,
,5f435065ffd8ca5acb7068f1,627c67d44110c101253d3e26,2022-05-11_18h50.24.836,classification_task,2021.2.3,Win32,60.10337781,627c6715c52fd12f31907bcf,,,,,,,,,,,,,,,,,,,,,,,a,1,0.9338,"[""0.450"",""0.525"",""0.663"",""0.971""]","[0,1,1,1]",0,20,20,20,1,0,0,,,0,FALSE,,,,,,,,,,,,,,,,,,,,,,,,,,,,,,,
,5f435065ffd8ca5acb7068f1,627c67d44110c101253d3e26,2022-05-11_18h50.24.836,classification_task,2021.2.3,Win32,60.10337781,627c6715c52fd12f31907bcf,,,,,,,,,,,,,,,,,,,,,,,a,0,1.4341,"[""0.455"",""0.347"",""0.490"",""0.715""]","[0,1,1,1]",0,21,21,21,1,1,1,,,0,FALSE,,,,,,,,,,,,,,,,,,,,,,,,,,,,,,,
,5f435065ffd8ca5acb7068f1,627c67d44110c101253d3e26,2022-05-11_18h50.24.836,classification_task,2021.2.3,Win32,60.10337781,627c6715c52fd12f31907bcf,,,,,,,,,,,,,,,,,,,,,,,l,1,2.2837,"[""0.048"",""0.223"",""0.604"",""0.809""]","[1,1,1,0]",0,22,22,22,1,1,0,,,0,FALSE,,,,,,,,,,,,,,,,,,,,,,,,,,,,,,,
,5f435065ffd8ca5acb7068f1,627c67d44110c101253d3e26,2022-05-11_18h50.24.836,classification_task,2021.2.3,Win32,60.10337781,627c6715c52fd12f31907bcf,,,,,,,,,,,,,,,,,,,,,,,a,1,1.6493,"[""0.892"",""0.393"",""0.857"",""0.930""]","[0,1,1,1]",0,23,23,23,1,0,1,,,0,FALSE,,,,,,,,,,,,,,,,,,,,,,,,,,,,,,,
,5f435065ffd8ca5acb7068f1,627c67d44110c101253d3e26,2022-05-11_18h50.24.836,classification_task,2021.2.3,Win32,60.10337781,627c6715c52fd12f31907bcf,,,,,,,,,,,,,,,,,,,,,,,l,1,1.1824,"[""0.103"",""0.815"",""0.490"",""0.715""]","[1,0,1,1]",0,24,24,24,1,1,1,,,0,FALSE,,,,,,,,,,,,,,,,,,,,,,,,,,,,,,,
,5f435065ffd8ca5acb7068f1,627c67d44110c101253d3e26,2022-05-11_18h50.24.836,classification_task,2021.2.3,Win32,60.10337781,627c6715c52fd12f31907bcf,,,,,,,,,,,,,,,,,,,,,,,a,1,1.1324,"[""0.179"",""0.563"",""0.857"",""0.930""]","[1,0,1,1]",0,25,25,25,1,0,1,,,0,FALSE,,,,,,,,,,,,,,,,,,,,,,,,,,,,,,,
,5f435065ffd8ca5acb7068f1,627c67d44110c101253d3e26,2022-05-11_18h50.24.836,classification_task,2021.2.3,Win32,60.10337781,627c6715c52fd12f31907bcf,,,,,,,,,,,,,,,,,,,,,,,a,1,0.5759,"[""0.179"",""0.393"",""0.857"",""0.815""]","[1,1,1,0]",0,26,26,26,1,0,1,,,0,FALSE,,,,,,,,,,,,,,,,,,,,,,,,,,,,,,,
,5f435065ffd8ca5acb7068f1,627c67d44110c101253d3e26,2022-05-11_18h50.24.836,classification_task,2021.2.3,Win32,60.10337781,627c6715c52fd12f31907bcf,,,,,,,,,,,,,,,,,,,,,,,l,1,1.4016,"[""0.048"",""0.223"",""0.813"",""0.774""]","[1,1,0,1]",0,27,27,27,1,1,0,,,0,FALSE,,,,,,,,,,,,,,,,,,,,,,,,,,,,,,,
,5f435065ffd8ca5acb7068f1,627c67d44110c101253d3e26,2022-05-11_18h50.24.836,classification_task,2021.2.3,Win32,60.10337781,627c6715c52fd12f31907bcf,,,,,,,,,,,,,,,,,,,,,,,a,1,0.9451,"[""0.179"",""0.393"",""0.892"",""0.930""]","[1,1,0,1]",0,28,28,28,1,0,1,,,0,FALSE,,,,,,,,,,,,,,,,,,,,,,,,,,,,,,,
,5f435065ffd8ca5acb7068f1,627c67d44110c101253d3e26,2022-05-11_18h50.24.836,classification_task,2021.2.3,Win32,60.10337781,627c6715c52fd12f31907bcf,,,,,,,,,,,,,,,,,,,,,,,a,1,1.3345,"[""0.258"",""0.525"",""0.663"",""0.565""]","[1,1,1,0]",0,29,29,29,1,0,0,,,0,FALSE,,,,,,,,,,,,,,,,,,,,,,,,,,,,,,,
,5f435065ffd8ca5acb7068f1,627c67d44110c101253d3e26,2022-05-11_18h50.24.836,classification_task,2021.2.3,Win32,60.10337781,627c6715c52fd12f31907bcf,,,,,,,,,,,,,,,,,,,,,,,l,1,1.5336,"[""0.048"",""0.455"",""0.604"",""0.774""]","[1,0,1,1]",0,30,30,30,1,1,0,,,0,FALSE,,,,,,,,,,,,,,,,,,,,,,,,,,,,,,,
,5f435065ffd8ca5acb7068f1,627c67d44110c101253d3e26,2022-05-11_18h50.24.836,classification_task,2021.2.3,Win32,60.10337781,627c6715c52fd12f31907bcf,,,,,,,,,,,,,,,,,,,,,,,a,1,1.8338,"[""0.258"",""0.434"",""0.663"",""0.971""]","[1,0,1,1]",0,31,31,31,1,0,0,,,0,FALSE,,,,,,,,,,,,,,,,,,,,,,,,,,,,,,,
,5f435065ffd8ca5acb7068f1,627c67d44110c101253d3e26,2022-05-11_18h50.24.836,classification_task,2021.2.3,Win32,60.10337781,627c6715c52fd12f31907bcf,,,,,,,,,,,,,,,,,,,,,,,l,1,2.0009,"[""0.103"",""0.347"",""0.490"",""0.815""]","[1,1,1,0]",0,32,32,32,1,1,1,,,0,FALSE,,,,,,,,,,,,,,,,,,,,,,,,,,,,,,,
,5f435065ffd8ca5acb7068f1,627c67d44110c101253d3e26,2022-05-11_18h50.24.836,classification_task,2021.2.3,Win32,60.10337781,627c6715c52fd12f31907bcf,,,,,,,,,,,,,,,,,,,,,,,a,1,1.466,"[""0.565"",""0.393"",""0.857"",""0.930""]","[0,1,1,1]",0,33,33,33,1,0,1,,,0,FALSE,,,,,,,,,,,,,,,,,,,,,,,,,,,,,,,
,5f435065ffd8ca5acb7068f1,627c67d44110c101253d3e26,2022-05-11_18h50.24.836,classification_task,2021.2.3,Win32,60.10337781,627c6715c52fd12f31907bcf,,,,,,,,,,,,,,,,,,,,,,,a,1,4.0023,"[""0.179"",""0.450"",""0.857"",""0.930""]","[1,0,1,1]",0,34,34,34,1,0,1,,,0,FALSE,,,,,,,,,,,,,,,,,,,,,,,,,,,,,,,
,5f435065ffd8ca5acb7068f1,627c67d44110c101253d3e26,2022-05-11_18h50.24.836,classification_task,2021.2.3,Win32,60.10337781,627c6715c52fd12f31907bcf,,,,,,,,,,,,,,,,,,,,,,,l,1,1.3173,"[""0.048"",""0.223"",""0.455"",""0.774""]","[1,1,0,1]",0,35,35,35,1,1,0,,,0,FALSE,,,,,,,,,,,,,,,,,,,,,,,,,,,,,,,
,5f435065ffd8ca5acb7068f1,627c67d44110c101253d3e26,2022-05-11_18h50.24.836,classification_task,2021.2.3,Win32,60.10337781,627c6715c52fd12f31907bcf,,,,,,,,,,,,,,,,,,,,,,,a,1,1.667,"[""0.179"",""0.393"",""0.809"",""0.930""]","[1,1,0,1]",0,36,36,36,1,0,1,,,0,FALSE,,,,,,,,,,,,,,,,,,,,,,,,,,,,,,,
,5f435065ffd8ca5acb7068f1,627c67d44110c101253d3e26,2022-05-11_18h50.24.836,classification_task,2021.2.3,Win32,60.10337781,627c6715c52fd12f31907bcf,,,,,,,,,,,,,,,,,,,,,,,a,1,1.4341,"[""0.258"",""0.525"",""0.663"",""0.809""]","[1,1,1,0]",0,37,37,37,1,0,0,,,0,FALSE,,,,,,,,,,,,,,,,,,,,,,,,,,,,,,,
,5f435065ffd8ca5acb7068f1,627c67d44110c101253d3e26,2022-05-11_18h50.24.836,classification_task,2021.2.3,Win32,60.10337781,627c6715c52fd12f31907bcf,,,,,,,,,,,,,,,,,,,,,,,l,1,1.0324,"[""0.815"",""0.223"",""0.604"",""0.774""]","[0,1,1,1]",0,38,38,38,1,1,0,,,0,FALSE,,,,,,,,,,,,,,,,,,,,,,,,,,,,,,,
,5f435065ffd8ca5acb7068f1,627c67d44110c101253d3e26,2022-05-11_18h50.24.836,classification_task,2021.2.3,Win32,60.10337781,627c6715c52fd12f31907bcf,,,,,,,,,,,,,,,,,,,,,,,l,1,0.9841,"[""0.103"",""0.450"",""0.490"",""0.715""]","[1,0,1,1]",0,39,39,39,1,1,1,,,0,FALSE,,,,,,,,,,,,,,,,,,,,,,,,,,,,,,,
,5f435065ffd8ca5acb7068f1,627c67d44110c101253d3e26,2022-05-11_18h50.24.836,classification_task,2021.2.3,Win32,60.10337781,627c6715c52fd12f31907bcf,,,,,,,,,,,,,,,,,,,,,,,l,1,0.9671,"[""0.103"",""0.347"",""0.892"",""0.715""]","[1,1,0,1]",0,40,40,40,1,1,1,,,0,FALSE,,,,,,,,,,,,,,,,,,,,,,,,,,,,,,,
,5f435065ffd8ca5acb7068f1,627c67d44110c101253d3e26,2022-05-11_18h50.24.836,classification_task,2021.2.3,Win32,60.10337781,627c6715c52fd12f31907bcf,,,,,,,,,,,,,,,,,,,,,,,l,1,1.1006,"[""0.048"",""0.892"",""0.604"",""0.774""]","[1,0,1,1]",0,41,41,41,1,1,0,,,0,FALSE,,,,,,,,,,,,,,,,,,,,,,,,,,,,,,,
,5f435065ffd8ca5acb7068f1,627c67d44110c101253d3e26,2022-05-11_18h50.24.836,classification_task,2021.2.3,Win32,60.10337781,627c6715c52fd12f31907bcf,,,,,,,,,,,,,,,,,,,,,,,a,1,0.9263,"[""0.258"",""0.525"",""0.895"",""0.971""]","[1,1,0,1]",0,42,42,42,1,0,0,,,0,FALSE,,,,,,,,,,,,,,,,,,,,,,,,,,,,,,,
,5f435065ffd8ca5acb7068f1,627c67d44110c101253d3e26,2022-05-11_18h50.24.836,classification_task,2021.2.3,Win32,60.10337781,627c6715c52fd12f31907bcf,,,,,,,,,,,,,,,,,,,,,,,l,1,0.9337,"[""0.048"",""0.223"",""0.604"",""0.565""]","[1,1,1,0]",0,43,43,43,1,1,0,,,0,FALSE,,,,,,,,,,,,,,,,,,,,,,,,,,,,,,,
,5f435065ffd8ca5acb7068f1,627c67d44110c101253d3e26,2022-05-11_18h50.24.836,classification_task,2021.2.3,Win32,60.10337781,627c6715c52fd12f31907bcf,,,,,,,,,,,,,,,,,,,,,,,a,1,1.1349,"[""0.179"",""0.393"",""0.857"",""0.303""]","[1,1,1,0]",0,44,44,44,1,0,1,,,0,FALSE,,,,,,,,,,,,,,,,,,,,,,,,,,,,,,,
,5f435065ffd8ca5acb7068f1,627c67d44110c101253d3e26,2022-05-11_18h50.24.836,classification_task,2021.2.3,Win32,60.10337781,627c6715c52fd12f31907bcf,,,,,,,,,,,,,,,,,,,,,,,l,1,1.3855,"[""0.439"",""0.347"",""0.490"",""0.715""]","[0,1,1,1]",0,45,45,45,1,1,1,,,0,FALSE,,,,,,,,,,,,,,,,,,,,,,,,,,,,,,,
,5f435065ffd8ca5acb7068f1,627c67d44110c101253d3e26,2022-05-11_18h50.24.836,classification_task,2021.2.3,Win32,60.10337781,627c6715c52fd12f31907bcf,,,,,,,,,,,,,,,,,,,,,,,a,1,1.5187,"[""0.258"",""0.895"",""0.663"",""0.971""]","[1,0,1,1]",0,46,46,46,1,0,0,,,0,FALSE,,,,,,,,,,,,,,,,,,,,,,,,,,,,,,,
,5f435065ffd8ca5acb7068f1,627c67d44110c101253d3e26,2022-05-11_18h50.24.836,classification_task,2021.2.3,Win32,60.10337781,627c6715c52fd12f31907bcf,,,,,,,,,,,,,,,,,,,,,,,a,1,2.6504,"[""0.815"",""0.525"",""0.663"",""0.971""]","[0,1,1,1]",0,47,47,47,1,0,0,,,0,FALSE,,,,,,,,,,,,,,,,,,,,,,,,,,,,,,,
,5f435065ffd8ca5acb7068f1,627c67d44110c101253d3e26,2022-05-11_18h50.24.836,classification_task,2021.2.3,Win32,60.10337781,627c6715c52fd12f31907bcf,,,,,,,,,,,,,,,,,,,,,,,l,1,1.6999,"[""0.048"",""0.223"",""0.604"",""0.313""]","[1,1,1,0]",0,48,48,48,1,1,0,,,0,FALSE,,,,,,,,,,,,,,,,,,,,,,,,,,,,,,,
,5f435065ffd8ca5acb7068f1,627c67d44110c101253d3e26,2022-05-11_18h50.24.836,classification_task,2021.2.3,Win32,60.10337781,627c6715c52fd12f31907bcf,,,,,,,,,,,,,,,,,,,,,,,l,1,1.616,"[""0.815"",""0.223"",""0.604"",""0.774""]","[0,1,1,1]",0,49,49,49,1,1,0,,,0,FALSE,,,,,,,,,,,,,,,,,,,,,,,,,,,,,,,
,5f435065ffd8ca5acb7068f1,627c67d44110c101253d3e26,2022-05-11_18h50.24.836,classification_task,2021.2.3,Win32,60.10337781,627c6715c52fd12f31907bcf,,,,,,,,,,,,,,,,,,,,,,,a,1,2.7338,"[""0.258"",""0.525"",""0.303"",""0.971""]","[1,1,0,1]",0,50,50,50,1,0,0,,,0,FALSE,,,,,,,,,,,,,,,,,,,,,,,,,,,,,,,
,5f435065ffd8ca5acb7068f1,627c67d44110c101253d3e26,2022-05-11_18h50.24.836,classification_task,2021.2.3,Win32,60.10337781,627c6715c52fd12f31907bcf,,,,,,,,,,,,,,,,,,,,,,,l,1,2.1823,"[""0.103"",""0.455"",""0.490"",""0.715""]","[1,0,1,1]",0,51,51,51,1,1,1,,,0,FALSE,,,,,,,,,,,,,,,,,,,,,,,,,,,,,,,
,5f435065ffd8ca5acb7068f1,627c67d44110c101253d3e26,2022-05-11_18h50.24.836,classification_task,2021.2.3,Win32,60.10337781,627c6715c52fd12f31907bcf,,,,,,,,,,,,,,,,,,,,,,,a,1,1.4832,"[""0.258"",""0.455"",""0.663"",""0.971""]","[1,0,1,1]",0,52,52,52,1,0,0,,,0,FALSE,,,,,,,,,,,,,,,,,,,,,,,,,,,,,,,
,5f435065ffd8ca5acb7068f1,627c67d44110c101253d3e26,2022-05-11_18h50.24.836,classification_task,2021.2.3,Win32,60.10337781,627c6715c52fd12f31907bcf,,,,,,,,,,,,,,,,,,,,,,,a,1,2.5507,"[""0.303"",""0.525"",""0.663"",""0.971""]","[0,1,1,1]",0,53,53,53,1,0,0,,,0,FALSE,,,,,,,,,,,,,,,,,,,,,,,,,,,,,,,
,5f435065ffd8ca5acb7068f1,627c67d44110c101253d3e26,2022-05-11_18h50.24.836,classification_task,2021.2.3,Win32,60.10337781,627c6715c52fd12f31907bcf,,,,,,,,,,,,,,,,,,,,,,,l,1,2.6359,"[""0.103"",""0.347"",""0.813"",""0.715""]","[1,1,0,1]",0,54,54,54,1,1,1,,,0,FALSE,,,,,,,,,,,,,,,,,,,,,,,,,,,,,,,
,5f435065ffd8ca5acb7068f1,627c67d44110c101253d3e26,2022-05-11_18h50.24.836,classification_task,2021.2.3,Win32,60.10337781,627c6715c52fd12f31907bcf,,,,,,,,,,,,,,,,,,,,,,,l,0,2.2044,"[""0.455"",""0.393"",""0.857"",""0.930""]","[0,1,1,1]",0,55,55,55,1,0,1,,,0,FALSE,,,,,,,,,,,,,,,,,,,,,,,,,,,,,,,
,5f435065ffd8ca5acb7068f1,627c67d44110c101253d3e26,2022-05-11_18h50.24.836,classification_task,2021.2.3,Win32,60.10337781,627c6715c52fd12f31907bcf,,,,,,,,,,,,,,,,,,,,,,,l,1,1.384,"[""0.103"",""0.347"",""0.490"",""0.815""]","[1,1,1,0]",0,56,56,56,1,1,1,,,0,FALSE,,,,,,,,,,,,,,,,,,,,,,,,,,,,,,,
,5f435065ffd8ca5acb7068f1,627c67d44110c101253d3e26,2022-05-11_18h50.24.836,classification_task,2021.2.3,Win32,60.10337781,627c6715c52fd12f31907bcf,,,,,,,,,,,,,,,,,,,,,,,a,0,1.682,"[""0.455"",""0.347"",""0.490"",""0.715""]","[0,1,1,1]",0,57,57,57,1,1,1,,,0,FALSE,,,,,,,,,,,,,,,,,,,,,,,,,,,,,,,
,5f435065ffd8ca5acb7068f1,627c67d44110c101253d3e26,2022-05-11_18h50.24.836,classification_task,2021.2.3,Win32,60.10337781,627c6715c52fd12f31907bcf,,,,,,,,,,,,,,,,,,,,,,,a,1,3.701,"[""0.179"",""0.393"",""0.809"",""0.930""]","[1,1,0,1]",0,58,58,58,1,0,1,,,0,FALSE,,,,,,,,,,,,,,,,,,,,,,,,,,,,,,,
,5f435065ffd8ca5acb7068f1,627c67d44110c101253d3e26,2022-05-11_18h50.24.836,classification_task,2021.2.3,Win32,60.10337781,627c6715c52fd12f31907bcf,,,,,,,,,,,,,,,,,,,,,,,a,1,2.8009,"[""0.179"",""0.813"",""0.857"",""0.930""]","[1,0,1,1]",0,59,59,59,1,0,1,,,0,FALSE,,,,,,,,,,,,,,,,,,,,,,,,,,,,,,,
,5f435065ffd8ca5acb7068f1,627c67d44110c101253d3e26,2022-05-11_18h50.24.836,classification_task,2021.2.3,Win32,60.10337781,627c6715c52fd12f31907bcf,,,,,,,,,,,,,,,,,,,,,,,l,0,1.3659,"[""0.258"",""0.525"",""0.663"",""0.815""]","[1,1,1,0]",0,60,60,60,1,0,0,,,0,FALSE,,,,,,,,,,,,,,,,,,,,,,,,,,,,,,,
,5f435065ffd8ca5acb7068f1,627c67d44110c101253d3e26,2022-05-11_18h50.24.836,classification_task,2021.2.3,Win32,60.10337781,627c6715c52fd12f31907bcf,,,,,,,,,,,,,,,,,,,,,,,a,1,1.1338,"[""0.179"",""0.393"",""0.857"",""0.303""]","[1,1,1,0]",0,61,61,61,1,0,1,,,0,FALSE,,,,,,,,,,,,,,,,,,,,,,,,,,,,,,,
,5f435065ffd8ca5acb7068f1,627c67d44110c101253d3e26,2022-05-11_18h50.24.836,classification_task,2021.2.3,Win32,60.10337781,627c6715c52fd12f31907bcf,,,,,,,,,,,,,,,,,,,,,,,l,1,1.3161,"[""0.048"",""0.223"",""0.892"",""0.774""]","[1,1,0,1]",0,62,62,62,1,1,0,,,0,FALSE,,,,,,,,,,,,,,,,,,,,,,,,,,,,,,,
,5f435065ffd8ca5acb7068f1,627c67d44110c101253d3e26,2022-05-11_18h50.24.836,classification_task,2021.2.3,Win32,60.10337781,627c6715c52fd12f31907bcf,,,,,,,,,,,,,,,,,,,,,,,l,1,1.7003,"[""0.048"",""0.313"",""0.604"",""0.774""]","[1,0,1,1]",0,63,63,63,1,1,0,,,0,FALSE,,,,,,,,,,,,,,,,,,,,,,,,,,,,,,,
,5f435065ffd8ca5acb7068f1,627c67d44110c101253d3e26,2022-05-11_18h50.24.836,classification_task,2021.2.3,Win32,60.10337781,627c6715c52fd12f31907bcf,,,,,,,,,,,,,,,,,,,,,,,,,,,,,,,,,,,,,,,0, ,,0,2.109544901,174.1408,0,2,2,2,1,2,3,,,,,,,,,,,,,,,,,,
,5f435065ffd8ca5acb7068f1,627c67d44110c101253d3e26,2022-05-11_18h50.24.836,classification_task,2021.2.3,Win32,60.10337781,627c6715c52fd12f31907bcf,,,,,,,,,,,,,,,,,,,,,,,,,,,,,,,,,,,,,,,1,  ,,0,4.583579035,175.01,0,2,2,2,1,2,3,,,,,,,,,,,,,,,,,,
,5f435065ffd8ca5acb7068f1,627c67d44110c101253d3e26,2022-05-11_18h50.24.836,classification_task,2021.2.3,Win32,60.10337781,627c6715c52fd12f31907bcf,,,,,,,,,,,,,,,,,,,,,,,,,,,,,,,,,,,,,,,2,  ,,0,2.697434378,175.7249,0,2,2,2,1,2,3,,,,,,,,,,,,,,,,,,
,5f435065ffd8ca5acb7068f1,627c67d44110c101253d3e26,2022-05-11_18h50.24.836,classification_task,2021.2.3,Win32,60.10337781,627c6715c52fd12f31907bcf,,,,,,,,,,,,,,,,,,,,,,,,,,,,,,,,,,,,,,,,,,,,,0,2,2,2,1,,3,,,,,,,,,,,,,,,,,,
,5f435065ffd8ca5acb7068f1,627c67d44110c101253d3e26,2022-05-11_18h50.24.836,classification_task,2021.2.3,Win32,60.10337781,627c6715c52fd12f31907bcf,,,,,,,,,,,,,,,,,,,,,,,,,,,,,,,,,,,,,,,,,,,,,,,,,,,,,I believe the aid is a competent performer,,0.7,0,5,683.6117,0,0,0,0,1,0,,,,,
,5f435065ffd8ca5acb7068f1,627c67d44110c101253d3e26,2022-05-11_18h50.24.836,classification_task,2021.2.3,Win32,60.10337781,627c6715c52fd12f31907bcf,,,,,,,,,,,,,,,,,,,,,,,,,,,,,,,,,,,,,,,,,,,,,,,,,,,,,I trust the aid,,0.7,0,5,684.2605,0,0,0,0,1,0,,,,,
,5f435065ffd8ca5acb7068f1,627c67d44110c101253d3e26,2022-05-11_18h50.24.836,classification_task,2021.2.3,Win32,60.10337781,627c6715c52fd12f31907bcf,,,,,,,,,,,,,,,,,,,,,,,,,,,,,,,,,,,,,,,,,,,,,,,,,,,,,I have confidence in the advice given by the aid,,0.7,0,5,685.6754,0,0,0,0,1,0,,,,,
,5f435065ffd8ca5acb7068f1,627c67d44110c101253d3e26,2022-05-11_18h50.24.836,classification_task,2021.2.3,Win32,60.10337781,627c6715c52fd12f31907bcf,,,,,,,,,,,,,,,,,,,,,,,,,,,,,,,,,,,,,,,,,,,,,,,,,,,,,I can depend on the aid,,0.7,0,5,690.1406,0,0,0,0,1,0,,,,,
,5f435065ffd8ca5acb7068f1,627c67d44110c101253d3e26,2022-05-11_18h50.24.836,classification_task,2021.2.3,Win32,60.10337781,627c6715c52fd12f31907bcf,,,,,,,,,,,,,,,,,,,,,,,,,,,,,,,,,,,,,,,,,,,,,,,,,,,,,I can rely on the aid to behave in consistent ways,,0.7,0,5,689.505,0,0,0,0,1,0,,,,,
,5f435065ffd8ca5acb7068f1,627c67d44110c101253d3e26,2022-05-11_18h50.24.836,classification_task,2021.2.3,Win32,60.10337781,627c6715c52fd12f31907bcf,,,,,,,,,,,,,,,,,,,,,,,,,,,,,,,,,,,,,,,,,,,,,,,,,,,,,I can rely on the aid to do its best every time I take its advice,,0.7,0,5,692.4877,0,0,0,0,1,0,,,,,
,5f435065ffd8ca5acb7068f1,627c67d44110c101253d3e26,2022-05-11_18h50.24.836,classification_task,2021.2.3,Win32,60.10337781,627c6715c52fd12f31907bcf,,,,,,,,,,,,,,,,,,,,,,,,,,,,,,,,,,,,,,,,,,,,,,,,,,,,,"On trials you completed with assistance from the aid, how frequently did you think the aid was correct?",,0.7,0,100%,,0,0,0,0,1,0,,,,,
,5f435065ffd8ca5acb7068f1,627c67d44110c101253d3e26,2022-05-11_18h50.24.836,classification_task,2021.2.3,Win32,60.10337781,627c6715c52fd12f31907bcf,,,,,,,,,,,,,,,,,,,,,,,,,,,,,,,,,,,,,,,,,,,,,,,,,,,,,"On trials you completed without the aid, how frequently did you think you were correct?",,0.7,0,68%,,0,0,0,0,1,0,,,,,
,5f435065ffd8ca5acb7068f1,627c67d44110c101253d3e26,2022-05-11_18h50.24.836,classification_task,2021.2.3,Win32,60.10337781,627c6715c52fd12f31907bcf,,,,,,,,,,,,,,,,,,,,,,,,,,,,,,,,,,,,,,,,,,,,,,,,,,,,,,,,,,,0,0,0,0,1,,,,,,
,5f435065ffd8ca5acb7068f1,627c67d44110c101253d3e26,2022-05-11_18h50.24.836,classification_task,2021.2.3,Win32,60.10337781,627c6715c52fd12f31907bcf,,,,,,,,,,,,,,,,,,,,,,,,,,,,,,,,,,,,,,,,,,,,,,,,,,,,,,,,,,,,,,,,,space,8.846,718.0917,,
,5f435065ffd8ca5acb7068f1,627c67d44110c101253d3e26,2022-05-11_18h50.24.836,classification_task,2021.2.3,Win32,60.10337781,627c6715c52fd12f31907bcf,,,,,,,,,,,,,,,,,,,,,,,,,,,,,,,,,,,,,,,,,,,,,,,,,,,,,,,,,,,,,,,,,,,,"Mozilla/5.0 (Windows NT 10.0; Win64; x64) AppleWebKit/537.36 (KHTML, like Gecko) Chrome/101.0.4951.54 Safari/537.36",
,5f435065ffd8ca5acb7068f1,627c67d44110c101253d3e26,2022-05-11_18h50.24.836,classification_task,2021.2.3,Win32,60.10337781,627c6715c52fd12f31907bcf,,,,,,,,,,,,,,,,,,,,,,,,,,,,,,,,,,,,,,,,,,,,,,,,,,,,,,,,,,,,,,,,,,,,,FADING
