usingWebGL,participant,session,date,expName,psychopyVersion,OS,frameRate,PROLIFIC_PID,STUDY_ID,SESSION_ID,signatures_friend,signatures_foe,band_ranges_top,band_ranges_bottom,formitemText,formtype,formundefined,formitemWidth,formindex,formresponse,formrt,key_resp_2.keys,key_resp_2.rt,tute_resp.keys,tute_resp.rt,tutorial.thisRepN,tutorial.thisTrialN,tutorial.thisN,tutorial.thisIndex,tutorial.ran,key_resp_4.keys,key_resp_4.rt,key_resp.keys,key_resp.corr,lines_presented,is_signal_presented,trials.thisRepN,trials.thisTrialN,trials.thisN,trials.thisIndex,trials.ran,vessel,active_band,lines,is_signal,supported_pos,catch_trial,key_resp.rt,debrief_formindex,debrief_formitemText,debrief_formtype,debrief_formitemWidth,debrief_formresponse,debrief_formrt,phases.thisRepN,phases.thisTrialN,phases.thisN,phases.thisIndex,phases.ran,phases.order,phase,key_resp_3.keys,trustitemText,trusttype,trustitemWidth,trustindex,trustresponse,trustrt,support_status.thisRepN,support_status.thisTrialN,support_status.thisN,support_status.thisIndex,support_status.ran,support_status.order,key_resp_5.keys,key_resp_5.rt,globalClockTime,userAgent
TRUE,5f458cb79f9aa31a7d7ab81b,001,2022-04-29_02h08.25.805,classification_task,2021.2.3,Win32,59.86948452,5f458cb79f9aa31a7d7ab81b,626b377229c10585ec392f89,626b3a433d49090b081d6450,,,,,,,,,,,,,,,,,,,,,,,,,,,,,,,,,,,,,,,,,,,,,,,,,,,,,,,,,,,,,,,,,,,,
,5f458cb79f9aa31a7d7ab81b,001,2022-04-29_02h08.25.805,classification_task,2021.2.3,Win32,59.86948452,5f458cb79f9aa31a7d7ab81b,626b377229c10585ec392f89,626b3a433d49090b081d6450,"[[""0.257"",""0.435"",""0.684"",""0.915""],[""0.303"",""0.491"",""0.856"",""0.959""]]","[[""0.067"",""0.174"",""0.650"",""0.780""],[""0.111"",""0.349"",""0.617"",""0.722""]]","[1,10]","[100,1000]",Video game experience,,,0.7,0,,,,,,,,,,,,,,,,,,,,,,,,,,,,,,,,,,,,,,,,,,,,,,,,,,,,,,,,,,,
,5f458cb79f9aa31a7d7ab81b,001,2022-04-29_02h08.25.805,classification_task,2021.2.3,Win32,59.86948452,5f458cb79f9aa31a7d7ab81b,626b377229c10585ec392f89,626b3a433d49090b081d6450,,,,,Approximately how many hours did you spend playing video games in the last week?,,,0.7,0,50,,,,,,,,,,,,,,,,,,,,,,,,,,,,,,,,,,,,,,,,,,,,,,,,,,,,,,,,,,
,5f458cb79f9aa31a7d7ab81b,001,2022-04-29_02h08.25.805,classification_task,2021.2.3,Win32,59.86948452,5f458cb79f9aa31a7d7ab81b,626b377229c10585ec392f89,626b3a433d49090b081d6450,,,,,"Which game did you play the most this year? (Enter ""None"" if you didn't play any)",,,0.7,0,Genshin Impact,,,,,,,,,,,,,,,,,,,,,,,,,,,,,,,,,,,,,,,,,,,,,,,,,,,,,,,,,,
,5f458cb79f9aa31a7d7ab81b,001,2022-04-29_02h08.25.805,classification_task,2021.2.3,Win32,59.86948452,5f458cb79f9aa31a7d7ab81b,626b377229c10585ec392f89,626b3a433d49090b081d6450,,,,,Visual perception,,,0.7,0,,,,,,,,,,,,,,,,,,,,,,,,,,,,,,,,,,,,,,,,,,,,,,,,,,,,,,,,,,,
,5f458cb79f9aa31a7d7ab81b,001,2022-04-29_02h08.25.805,classification_task,2021.2.3,Win32,59.86948452,5f458cb79f9aa31a7d7ab81b,626b377229c10585ec392f89,626b3a433d49090b081d6450,,,,,Do you have any form of color blindness?,,,0.7,0,No,69.9514,,,,,,,,,,,,,,,,,,,,,,,,,,,,,,,,,,,,,,,,,,,,,,,,,,,,,,,,,
,5f458cb79f9aa31a7d7ab81b,001,2022-04-29_02h08.25.805,classification_task,2021.2.3,Win32,59.86948452,5f458cb79f9aa31a7d7ab81b,626b377229c10585ec392f89,626b3a433d49090b081d6450,,,,,Do you use software to change the colour temperature of your screen (e.g. f.lux)?,,,0.7,0,No,88.0756,,,,,,,,,,,,,,,,,,,,,,,,,,,,,,,,,,,,,,,,,,,,,,,,,,,,,,,,,
,5f458cb79f9aa31a7d7ab81b,001,2022-04-29_02h08.25.805,classification_task,2021.2.3,Win32,59.86948452,5f458cb79f9aa31a7d7ab81b,626b377229c10585ec392f89,626b3a433d49090b081d6450,,,,,,,,,,,,space,78.5177,space,13.3396,0,0,0,0,1,,,,,,,,,,,,,,,,,,,,,,,,,,,,,,,,,,,,,,,,,,,,,,,,
,5f458cb79f9aa31a7d7ab81b,001,2022-04-29_02h08.25.805,classification_task,2021.2.3,Win32,59.86948452,5f458cb79f9aa31a7d7ab81b,626b377229c10585ec392f89,626b3a433d49090b081d6450,,,,,,,,,,,,,,space,23.339,1,0,1,0,1,,,,,,,,,,,,,,,,,,,,,,,,,,,,,,,,,,,,,,,,,,,,,,,,
,5f458cb79f9aa31a7d7ab81b,001,2022-04-29_02h08.25.805,classification_task,2021.2.3,Win32,59.86948452,5f458cb79f9aa31a7d7ab81b,626b377229c10585ec392f89,626b3a433d49090b081d6450,,,,,,,,,,,,,,space,25.8491,2,0,2,0,1,,,,,,,,,,,,,,,,,,,,,,,,,,,,,,,,,,,,,,,,,,,,,,,,
,5f458cb79f9aa31a7d7ab81b,001,2022-04-29_02h08.25.805,classification_task,2021.2.3,Win32,59.86948452,5f458cb79f9aa31a7d7ab81b,626b377229c10585ec392f89,626b3a433d49090b081d6450,,,,,,,,,,,,,,space,28.5032,3,0,3,0,1,,,,,,,,,,,,,,,,,,,,,,,,,,,,,,,,,,,,,,,,,,,,,,,,
,5f458cb79f9aa31a7d7ab81b,001,2022-04-29_02h08.25.805,classification_task,2021.2.3,Win32,59.86948452,5f458cb79f9aa31a7d7ab81b,626b377229c10585ec392f89,626b3a433d49090b081d6450,,,,,,,,,,,,,,space,30.3608,4,0,4,0,1,,,,,,,,,,,,,,,,,,,,,,,,,,,,,,,,,,,,,,,,,,,,,,,,
,5f458cb79f9aa31a7d7ab81b,001,2022-04-29_02h08.25.805,classification_task,2021.2.3,Win32,59.86948452,5f458cb79f9aa31a7d7ab81b,626b377229c10585ec392f89,626b3a433d49090b081d6450,,,,,,,,,,,,,,,,,,,,,space,36.8694,,0,"[""0.543"",""0.491"",""0.856"",""0.959""]","[0,1,1,1]",0,0,0,0,1,0,1,,,1,FALSE,,,,,,,,,,,,,,,,,,,,,,,,,,,,,,,
,5f458cb79f9aa31a7d7ab81b,001,2022-04-29_02h08.25.805,classification_task,2021.2.3,Win32,59.86948452,5f458cb79f9aa31a7d7ab81b,626b377229c10585ec392f89,626b3a433d49090b081d6450,,,,,,,,,,,,,,,,,,,,,,,l,1,"[""0.529"",""0.174"",""0.650"",""0.780""]","[0,1,1,1]",0,1,1,1,1,1,0,,,1,FALSE,8.5168,,,,,,,,,,,,,,,,,,,,,,,,,,,,,,
,5f458cb79f9aa31a7d7ab81b,001,2022-04-29_02h08.25.805,classification_task,2021.2.3,Win32,59.86948452,5f458cb79f9aa31a7d7ab81b,626b377229c10585ec392f89,626b3a433d49090b081d6450,,,,,,,,,,,,,,,,,,,,,,,a,1,"[""0.303"",""0.491"",""0.856"",""0.531""]","[1,1,1,0]",0,2,2,2,1,0,1,,,1,FALSE,6.8,,,,,,,,,,,,,,,,,,,,,,,,,,,,,,
,5f458cb79f9aa31a7d7ab81b,001,2022-04-29_02h08.25.805,classification_task,2021.2.3,Win32,59.86948452,5f458cb79f9aa31a7d7ab81b,626b377229c10585ec392f89,626b3a433d49090b081d6450,,,,,,,,,,,,,,,,,,,,,,,a,1,"[""0.303"",""0.491"",""0.562"",""0.959""]","[1,1,0,1]",0,3,3,3,1,0,1,,,1,FALSE,4.1005,,,,,,,,,,,,,,,,,,,,,,,,,,,,,,
,5f458cb79f9aa31a7d7ab81b,001,2022-04-29_02h08.25.805,classification_task,2021.2.3,Win32,59.86948452,5f458cb79f9aa31a7d7ab81b,626b377229c10585ec392f89,626b3a433d49090b081d6450,,,,,,,,,,,,,,,,,,,,,,,a,1,"[""0.257"",""0.435"",""0.562"",""0.915""]","[1,1,0,1]",0,4,4,4,1,0,0,,,1,FALSE,3.0508,,,,,,,,,,,,,,,,,,,,,,,,,,,,,,
,5f458cb79f9aa31a7d7ab81b,001,2022-04-29_02h08.25.805,classification_task,2021.2.3,Win32,59.86948452,5f458cb79f9aa31a7d7ab81b,626b377229c10585ec392f89,626b3a433d49090b081d6450,,,,,,,,,,,,,,,,,,,,,,,l,1,"[""0.529"",""0.349"",""0.617"",""0.722""]","[0,1,1,1]",0,5,5,5,1,1,1,,,1,FALSE,7.9668,,,,,,,,,,,,,,,,,,,,,,,,,,,,,,
,5f458cb79f9aa31a7d7ab81b,001,2022-04-29_02h08.25.805,classification_task,2021.2.3,Win32,59.86948452,5f458cb79f9aa31a7d7ab81b,626b377229c10585ec392f89,626b3a433d49090b081d6450,,,,,,,,,,,,,,,,,,,,,,,l,1,"[""0.111"",""0.541"",""0.617"",""0.722""]","[1,0,1,1]",0,6,6,6,1,1,1,,,1,FALSE,3.1837,,,,,,,,,,,,,,,,,,,,,,,,,,,,,,
,5f458cb79f9aa31a7d7ab81b,001,2022-04-29_02h08.25.805,classification_task,2021.2.3,Win32,59.86948452,5f458cb79f9aa31a7d7ab81b,626b377229c10585ec392f89,626b3a433d49090b081d6450,,,,,,,,,,,,,,,,,,,,,,,a,1,"[""0.257"",""0.541"",""0.684"",""0.915""]","[1,0,1,1]",0,7,7,7,1,0,0,,,1,FALSE,3.5668,,,,,,,,,,,,,,,,,,,,,,,,,,,,,,
,5f458cb79f9aa31a7d7ab81b,001,2022-04-29_02h08.25.805,classification_task,2021.2.3,Win32,59.86948452,5f458cb79f9aa31a7d7ab81b,626b377229c10585ec392f89,626b3a433d49090b081d6450,,,,,,,,,,,,,,,,,,,,,,,l,1,"[""0.067"",""0.174"",""0.210"",""0.780""]","[1,1,0,1]",0,8,8,8,1,1,0,,,1,FALSE,2.0836,,,,,,,,,,,,,,,,,,,,,,,,,,,,,,
,5f458cb79f9aa31a7d7ab81b,001,2022-04-29_02h08.25.805,classification_task,2021.2.3,Win32,59.86948452,5f458cb79f9aa31a7d7ab81b,626b377229c10585ec392f89,626b3a433d49090b081d6450,,,,,,,,,,,,,,,,,,,,,,,l,1,"[""0.111"",""0.349"",""0.543"",""0.722""]","[1,1,0,1]",0,9,9,9,1,1,1,,,1,FALSE,2.2836,,,,,,,,,,,,,,,,,,,,,,,,,,,,,,
,5f458cb79f9aa31a7d7ab81b,001,2022-04-29_02h08.25.805,classification_task,2021.2.3,Win32,59.86948452,5f458cb79f9aa31a7d7ab81b,626b377229c10585ec392f89,626b3a433d49090b081d6450,,,,,,,,,,,,,,,,,,,,,,,l,1,"[""0.111"",""0.349"",""0.617"",""0.531""]","[1,1,1,0]",0,10,10,10,1,1,1,,,1,FALSE,1.9837,,,,,,,,,,,,,,,,,,,,,,,,,,,,,,
,5f458cb79f9aa31a7d7ab81b,001,2022-04-29_02h08.25.805,classification_task,2021.2.3,Win32,59.86948452,5f458cb79f9aa31a7d7ab81b,626b377229c10585ec392f89,626b3a433d49090b081d6450,,,,,,,,,,,,,,,,,,,,,,,l,1,"[""0.067"",""0.174"",""0.650"",""0.562""]","[1,1,1,0]",0,11,11,11,1,1,0,,,1,FALSE,3.4835,,,,,,,,,,,,,,,,,,,,,,,,,,,,,,
,5f458cb79f9aa31a7d7ab81b,001,2022-04-29_02h08.25.805,classification_task,2021.2.3,Win32,59.86948452,5f458cb79f9aa31a7d7ab81b,626b377229c10585ec392f89,626b3a433d49090b081d6450,,,,,,,,,,,,,,,,,,,,,,,a,1,"[""0.303"",""0.541"",""0.856"",""0.959""]","[1,0,1,1]",0,12,12,12,1,0,1,,,1,FALSE,3.8002,,,,,,,,,,,,,,,,,,,,,,,,,,,,,,
,5f458cb79f9aa31a7d7ab81b,001,2022-04-29_02h08.25.805,classification_task,2021.2.3,Win32,59.86948452,5f458cb79f9aa31a7d7ab81b,626b377229c10585ec392f89,626b3a433d49090b081d6450,,,,,,,,,,,,,,,,,,,,,,,a,1,"[""0.541"",""0.435"",""0.684"",""0.915""]","[0,1,1,1]",0,13,13,13,1,0,0,,,1,FALSE,5.6169,,,,,,,,,,,,,,,,,,,,,,,,,,,,,,
,5f458cb79f9aa31a7d7ab81b,001,2022-04-29_02h08.25.805,classification_task,2021.2.3,Win32,59.86948452,5f458cb79f9aa31a7d7ab81b,626b377229c10585ec392f89,626b3a433d49090b081d6450,,,,,,,,,,,,,,,,,,,,,,,l,1,"[""0.067"",""0.578"",""0.650"",""0.780""]","[1,0,1,1]",0,14,14,14,1,1,0,,,1,FALSE,3.1503,,,,,,,,,,,,,,,,,,,,,,,,,,,,,,
,5f458cb79f9aa31a7d7ab81b,001,2022-04-29_02h08.25.805,classification_task,2021.2.3,Win32,59.86948452,5f458cb79f9aa31a7d7ab81b,626b377229c10585ec392f89,626b3a433d49090b081d6450,,,,,,,,,,,,,,,,,,,,,,,a,1,"[""0.257"",""0.435"",""0.684"",""0.535""]","[1,1,1,0]",0,15,15,15,1,0,0,,,1,FALSE,3.4837,,,,,,,,,,,,,,,,,,,,,,,,,,,,,,
,5f458cb79f9aa31a7d7ab81b,001,2022-04-29_02h08.25.805,classification_task,2021.2.3,Win32,59.86948452,5f458cb79f9aa31a7d7ab81b,626b377229c10585ec392f89,626b3a433d49090b081d6450,,,,,,,,,,,,,,,,,,,,,,,a,1,"[""0.257"",""0.529"",""0.684"",""0.915""]","[1,0,1,1]",0,16,16,16,1,0,0,,,1,FALSE,2.7505,,,,,,,,,,,,,,,,,,,,,,,,,,,,,,
,5f458cb79f9aa31a7d7ab81b,001,2022-04-29_02h08.25.805,classification_task,2021.2.3,Win32,59.86948452,5f458cb79f9aa31a7d7ab81b,626b377229c10585ec392f89,626b3a433d49090b081d6450,,,,,,,,,,,,,,,,,,,,,,,l,1,"[""0.111"",""0.349"",""0.617"",""0.541""]","[1,1,1,0]",0,17,17,17,1,1,1,,,1,FALSE,1.5334,,,,,,,,,,,,,,,,,,,,,,,,,,,,,,
,5f458cb79f9aa31a7d7ab81b,001,2022-04-29_02h08.25.805,classification_task,2021.2.3,Win32,59.86948452,5f458cb79f9aa31a7d7ab81b,626b377229c10585ec392f89,626b3a433d49090b081d6450,,,,,,,,,,,,,,,,,,,,,,,,0,"[""0.303"",""0.211"",""0.856"",""0.959""]","[1,0,1,1]",0,18,18,18,1,0,1,,,1,FALSE,,,,,,,,,,,,,,,,,,,,,,,,,,,,,,,
,5f458cb79f9aa31a7d7ab81b,001,2022-04-29_02h08.25.805,classification_task,2021.2.3,Win32,59.86948452,5f458cb79f9aa31a7d7ab81b,626b377229c10585ec392f89,626b3a433d49090b081d6450,,,,,,,,,,,,,,,,,,,,,,,l,1,"[""0.562"",""0.349"",""0.617"",""0.722""]","[0,1,1,1]",0,19,19,19,1,1,1,,,1,FALSE,3.517,,,,,,,,,,,,,,,,,,,,,,,,,,,,,,
,5f458cb79f9aa31a7d7ab81b,001,2022-04-29_02h08.25.805,classification_task,2021.2.3,Win32,59.86948452,5f458cb79f9aa31a7d7ab81b,626b377229c10585ec392f89,626b3a433d49090b081d6450,,,,,,,,,,,,,,,,,,,,,,,l,1,"[""0.111"",""0.210"",""0.617"",""0.722""]","[1,0,1,1]",0,20,20,20,1,1,1,,,1,FALSE,2.3671,,,,,,,,,,,,,,,,,,,,,,,,,,,,,,
,5f458cb79f9aa31a7d7ab81b,001,2022-04-29_02h08.25.805,classification_task,2021.2.3,Win32,59.86948452,5f458cb79f9aa31a7d7ab81b,626b377229c10585ec392f89,626b3a433d49090b081d6450,,,,,,,,,,,,,,,,,,,,,,,a,1,"[""0.211"",""0.491"",""0.856"",""0.959""]","[0,1,1,1]",0,21,21,21,1,0,1,,,1,FALSE,6.6502,,,,,,,,,,,,,,,,,,,,,,,,,,,,,,
,5f458cb79f9aa31a7d7ab81b,001,2022-04-29_02h08.25.805,classification_task,2021.2.3,Win32,59.86948452,5f458cb79f9aa31a7d7ab81b,626b377229c10585ec392f89,626b3a433d49090b081d6450,,,,,,,,,,,,,,,,,,,,,,,a,1,"[""0.303"",""0.491"",""0.856"",""0.531""]","[1,1,1,0]",0,22,22,22,1,0,1,,,1,FALSE,3.1504,,,,,,,,,,,,,,,,,,,,,,,,,,,,,,
,5f458cb79f9aa31a7d7ab81b,001,2022-04-29_02h08.25.805,classification_task,2021.2.3,Win32,59.86948452,5f458cb79f9aa31a7d7ab81b,626b377229c10585ec392f89,626b3a433d49090b081d6450,,,,,,,,,,,,,,,,,,,,,,,a,1,"[""0.529"",""0.435"",""0.684"",""0.915""]","[0,1,1,1]",0,23,23,23,1,0,0,,,1,FALSE,4.3669,,,,,,,,,,,,,,,,,,,,,,,,,,,,,,
,5f458cb79f9aa31a7d7ab81b,001,2022-04-29_02h08.25.805,classification_task,2021.2.3,Win32,59.86948452,5f458cb79f9aa31a7d7ab81b,626b377229c10585ec392f89,626b3a433d49090b081d6450,,,,,,,,,,,,,,,,,,,,,,,l,1,"[""0.067"",""0.174"",""0.650"",""0.535""]","[1,1,1,0]",0,24,24,24,1,1,0,,,1,FALSE,3.917,,,,,,,,,,,,,,,,,,,,,,,,,,,,,,
,5f458cb79f9aa31a7d7ab81b,001,2022-04-29_02h08.25.805,classification_task,2021.2.3,Win32,59.86948452,5f458cb79f9aa31a7d7ab81b,626b377229c10585ec392f89,626b3a433d49090b081d6450,,,,,,,,,,,,,,,,,,,,,,,a,1,"[""0.257"",""0.435"",""0.684"",""0.210""]","[1,1,1,0]",0,25,25,25,1,0,0,,,1,FALSE,7.2002,,,,,,,,,,,,,,,,,,,,,,,,,,,,,,
,5f458cb79f9aa31a7d7ab81b,001,2022-04-29_02h08.25.805,classification_task,2021.2.3,Win32,59.86948452,5f458cb79f9aa31a7d7ab81b,626b377229c10585ec392f89,626b3a433d49090b081d6450,,,,,,,,,,,,,,,,,,,,,,,l,1,"[""0.067"",""0.174"",""0.209"",""0.780""]","[1,1,0,1]",0,26,26,26,1,1,0,,,1,FALSE,3.7004,,,,,,,,,,,,,,,,,,,,,,,,,,,,,,
,5f458cb79f9aa31a7d7ab81b,001,2022-04-29_02h08.25.805,classification_task,2021.2.3,Win32,59.86948452,5f458cb79f9aa31a7d7ab81b,626b377229c10585ec392f89,626b3a433d49090b081d6450,,,,,,,,,,,,,,,,,,,,,,,l,1,"[""0.111"",""0.349"",""0.547"",""0.722""]","[1,1,0,1]",0,27,27,27,1,1,1,,,1,FALSE,1.8001,,,,,,,,,,,,,,,,,,,,,,,,,,,,,,
,5f458cb79f9aa31a7d7ab81b,001,2022-04-29_02h08.25.805,classification_task,2021.2.3,Win32,59.86948452,5f458cb79f9aa31a7d7ab81b,626b377229c10585ec392f89,626b3a433d49090b081d6450,,,,,,,,,,,,,,,,,,,,,,,a,1,"[""0.303"",""0.491"",""0.562"",""0.959""]","[1,1,0,1]",0,28,28,28,1,0,1,,,1,FALSE,3.2503,,,,,,,,,,,,,,,,,,,,,,,,,,,,,,
,5f458cb79f9aa31a7d7ab81b,001,2022-04-29_02h08.25.805,classification_task,2021.2.3,Win32,59.86948452,5f458cb79f9aa31a7d7ab81b,626b377229c10585ec392f89,626b3a433d49090b081d6450,,,,,,,,,,,,,,,,,,,,,,,l,1,"[""0.541"",""0.174"",""0.650"",""0.780""]","[0,1,1,1]",0,29,29,29,1,1,0,,,1,FALSE,3.2838,,,,,,,,,,,,,,,,,,,,,,,,,,,,,,
,5f458cb79f9aa31a7d7ab81b,001,2022-04-29_02h08.25.805,classification_task,2021.2.3,Win32,59.86948452,5f458cb79f9aa31a7d7ab81b,626b377229c10585ec392f89,626b3a433d49090b081d6450,,,,,,,,,,,,,,,,,,,,,,,a,1,"[""0.257"",""0.435"",""0.390"",""0.915""]","[1,1,0,1]",0,30,30,30,1,0,0,,,1,FALSE,2.5503,,,,,,,,,,,,,,,,,,,,,,,,,,,,,,
,5f458cb79f9aa31a7d7ab81b,001,2022-04-29_02h08.25.805,classification_task,2021.2.3,Win32,59.86948452,5f458cb79f9aa31a7d7ab81b,626b377229c10585ec392f89,626b3a433d49090b081d6450,,,,,,,,,,,,,,,,,,,,,,,l,1,"[""0.067"",""0.535"",""0.650"",""0.780""]","[1,0,1,1]",0,31,31,31,1,1,0,,,1,FALSE,1.9004,,,,,,,,,,,,,,,,,,,,,,,,,,,,,,
,5f458cb79f9aa31a7d7ab81b,001,2022-04-29_02h08.25.805,classification_task,2021.2.3,Win32,59.86948452,5f458cb79f9aa31a7d7ab81b,626b377229c10585ec392f89,626b3a433d49090b081d6450,,,,,,,,,,,,,,,,,,,,,,,l,0,"[""0.547"",""0.435"",""0.684"",""0.915""]","[0,1,1,1]",0,32,32,32,1,0,0,,,1,FALSE,6.2997,,,,,,,,,,,,,,,,,,,,,,,,,,,,,,
,5f458cb79f9aa31a7d7ab81b,001,2022-04-29_02h08.25.805,classification_task,2021.2.3,Win32,59.86948452,5f458cb79f9aa31a7d7ab81b,626b377229c10585ec392f89,626b3a433d49090b081d6450,,,,,,,,,,,,,,,,,,,,,,,a,1,"[""0.303"",""0.547"",""0.856"",""0.959""]","[1,0,1,1]",0,33,33,33,1,0,1,,,1,FALSE,1.5503,,,,,,,,,,,,,,,,,,,,,,,,,,,,,,
,5f458cb79f9aa31a7d7ab81b,001,2022-04-29_02h08.25.805,classification_task,2021.2.3,Win32,59.86948452,5f458cb79f9aa31a7d7ab81b,626b377229c10585ec392f89,626b3a433d49090b081d6450,,,,,,,,,,,,,,,,,,,,,,,a,1,"[""0.390"",""0.491"",""0.856"",""0.959""]","[0,1,1,1]",0,34,34,34,1,0,1,,,1,FALSE,3.317,,,,,,,,,,,,,,,,,,,,,,,,,,,,,,
,5f458cb79f9aa31a7d7ab81b,001,2022-04-29_02h08.25.805,classification_task,2021.2.3,Win32,59.86948452,5f458cb79f9aa31a7d7ab81b,626b377229c10585ec392f89,626b3a433d49090b081d6450,,,,,,,,,,,,,,,,,,,,,,,a,1,"[""0.303"",""0.491"",""0.856"",""0.578""]","[1,1,1,0]",0,35,35,35,1,0,1,,,1,FALSE,2.983,,,,,,,,,,,,,,,,,,,,,,,,,,,,,,
,5f458cb79f9aa31a7d7ab81b,001,2022-04-29_02h08.25.805,classification_task,2021.2.3,Win32,59.86948452,5f458cb79f9aa31a7d7ab81b,626b377229c10585ec392f89,626b3a433d49090b081d6450,,,,,,,,,,,,,,,,,,,,,,,l,1,"[""0.067"",""0.578"",""0.650"",""0.780""]","[1,0,1,1]",0,36,36,36,1,1,0,,,1,FALSE,1.0004,,,,,,,,,,,,,,,,,,,,,,,,,,,,,,
,5f458cb79f9aa31a7d7ab81b,001,2022-04-29_02h08.25.805,classification_task,2021.2.3,Win32,59.86948452,5f458cb79f9aa31a7d7ab81b,626b377229c10585ec392f89,626b3a433d49090b081d6450,,,,,,,,,,,,,,,,,,,,,,,a,1,"[""0.257"",""0.531"",""0.684"",""0.915""]","[1,0,1,1]",0,37,37,37,1,0,0,,,1,FALSE,1.3168,,,,,,,,,,,,,,,,,,,,,,,,,,,,,,
,5f458cb79f9aa31a7d7ab81b,001,2022-04-29_02h08.25.805,classification_task,2021.2.3,Win32,59.86948452,5f458cb79f9aa31a7d7ab81b,626b377229c10585ec392f89,626b3a433d49090b081d6450,,,,,,,,,,,,,,,,,,,,,,,a,1,"[""0.257"",""0.435"",""0.684"",""0.396""]","[1,1,1,0]",0,38,38,38,1,0,0,,,1,FALSE,1.2005,,,,,,,,,,,,,,,,,,,,,,,,,,,,,,
,5f458cb79f9aa31a7d7ab81b,001,2022-04-29_02h08.25.805,classification_task,2021.2.3,Win32,59.86948452,5f458cb79f9aa31a7d7ab81b,626b377229c10585ec392f89,626b3a433d49090b081d6450,,,,,,,,,,,,,,,,,,,,,,,l,1,"[""0.396"",""0.349"",""0.617"",""0.722""]","[0,1,1,1]",0,39,39,39,1,1,1,,,1,FALSE,3.5835,,,,,,,,,,,,,,,,,,,,,,,,,,,,,,
,5f458cb79f9aa31a7d7ab81b,001,2022-04-29_02h08.25.805,classification_task,2021.2.3,Win32,59.86948452,5f458cb79f9aa31a7d7ab81b,626b377229c10585ec392f89,626b3a433d49090b081d6450,,,,,,,,,,,,,,,,,,,,,,,l,1,"[""0.111"",""0.349"",""0.617"",""0.390""]","[1,1,1,0]",0,40,40,40,1,1,1,,,1,FALSE,1.5498,,,,,,,,,,,,,,,,,,,,,,,,,,,,,,
,5f458cb79f9aa31a7d7ab81b,001,2022-04-29_02h08.25.805,classification_task,2021.2.3,Win32,59.86948452,5f458cb79f9aa31a7d7ab81b,626b377229c10585ec392f89,626b3a433d49090b081d6450,,,,,,,,,,,,,,,,,,,,,,,a,0,"[""0.562"",""0.174"",""0.650"",""0.780""]","[0,1,1,1]",0,41,41,41,1,1,0,,,1,FALSE,1.3672,,,,,,,,,,,,,,,,,,,,,,,,,,,,,,
,5f458cb79f9aa31a7d7ab81b,001,2022-04-29_02h08.25.805,classification_task,2021.2.3,Win32,59.86948452,5f458cb79f9aa31a7d7ab81b,626b377229c10585ec392f89,626b3a433d49090b081d6450,,,,,,,,,,,,,,,,,,,,,,,l,1,"[""0.111"",""0.538"",""0.617"",""0.722""]","[1,0,1,1]",0,42,42,42,1,1,1,,,1,FALSE,0.9669,,,,,,,,,,,,,,,,,,,,,,,,,,,,,,
,5f458cb79f9aa31a7d7ab81b,001,2022-04-29_02h08.25.805,classification_task,2021.2.3,Win32,59.86948452,5f458cb79f9aa31a7d7ab81b,626b377229c10585ec392f89,626b3a433d49090b081d6450,,,,,,,,,,,,,,,,,,,,,,,l,1,"[""0.067"",""0.174"",""0.390"",""0.780""]","[1,1,0,1]",0,43,43,43,1,1,0,,,1,FALSE,1.1498,,,,,,,,,,,,,,,,,,,,,,,,,,,,,,
,5f458cb79f9aa31a7d7ab81b,001,2022-04-29_02h08.25.805,classification_task,2021.2.3,Win32,59.86948452,5f458cb79f9aa31a7d7ab81b,626b377229c10585ec392f89,626b3a433d49090b081d6450,,,,,,,,,,,,,,,,,,,,,,,l,1,"[""0.111"",""0.349"",""0.209"",""0.722""]","[1,1,0,1]",0,44,44,44,1,1,1,,,1,FALSE,1.1344,,,,,,,,,,,,,,,,,,,,,,,,,,,,,,
,5f458cb79f9aa31a7d7ab81b,001,2022-04-29_02h08.25.805,classification_task,2021.2.3,Win32,59.86948452,5f458cb79f9aa31a7d7ab81b,626b377229c10585ec392f89,626b3a433d49090b081d6450,,,,,,,,,,,,,,,,,,,,,,,l,0,"[""0.303"",""0.491"",""0.531"",""0.959""]","[1,1,0,1]",0,45,45,45,1,0,1,,,1,FALSE,1.1679,,,,,,,,,,,,,,,,,,,,,,,,,,,,,,
,5f458cb79f9aa31a7d7ab81b,001,2022-04-29_02h08.25.805,classification_task,2021.2.3,Win32,59.86948452,5f458cb79f9aa31a7d7ab81b,626b377229c10585ec392f89,626b3a433d49090b081d6450,,,,,,,,,,,,,,,,,,,,,,,a,1,"[""0.257"",""0.435"",""0.538"",""0.915""]","[1,1,0,1]",0,46,46,46,1,0,0,,,1,FALSE,1.3343,,,,,,,,,,,,,,,,,,,,,,,,,,,,,,
,5f458cb79f9aa31a7d7ab81b,001,2022-04-29_02h08.25.805,classification_task,2021.2.3,Win32,59.86948452,5f458cb79f9aa31a7d7ab81b,626b377229c10585ec392f89,626b3a433d49090b081d6450,,,,,,,,,,,,,,,,,,,,,,,l,1,"[""0.067"",""0.174"",""0.650"",""0.562""]","[1,1,1,0]",0,47,47,47,1,1,0,,,1,FALSE,1.0502,,,,,,,,,,,,,,,,,,,,,,,,,,,,,,
,5f458cb79f9aa31a7d7ab81b,001,2022-04-29_02h08.25.805,classification_task,2021.2.3,Win32,59.86948452,5f458cb79f9aa31a7d7ab81b,626b377229c10585ec392f89,626b3a433d49090b081d6450,,,,,,,,,,,,,,,,,,,,,,,a,1,"[""0.257"",""0.435"",""0.684"",""0.396""]","[1,1,1,0]",0,48,48,48,1,0,0,,,1,FALSE,1.0677,,,,,,,,,,,,,,,,,,,,,,,,,,,,,,
,5f458cb79f9aa31a7d7ab81b,001,2022-04-29_02h08.25.805,classification_task,2021.2.3,Win32,59.86948452,5f458cb79f9aa31a7d7ab81b,626b377229c10585ec392f89,626b3a433d49090b081d6450,,,,,,,,,,,,,,,,,,,,,,,l,0,"[""0.543"",""0.491"",""0.856"",""0.959""]","[0,1,1,1]",0,49,49,49,1,0,1,,,1,FALSE,2.3003,,,,,,,,,,,,,,,,,,,,,,,,,,,,,,
,5f458cb79f9aa31a7d7ab81b,001,2022-04-29_02h08.25.805,classification_task,2021.2.3,Win32,59.86948452,5f458cb79f9aa31a7d7ab81b,626b377229c10585ec392f89,626b3a433d49090b081d6450,,,,,,,,,,,,,,,,,,,,,,,l,0,"[""0.210"",""0.435"",""0.684"",""0.915""]","[0,1,1,1]",0,50,50,50,1,0,0,,,1,FALSE,2.833,,,,,,,,,,,,,,,,,,,,,,,,,,,,,,
,5f458cb79f9aa31a7d7ab81b,001,2022-04-29_02h08.25.805,classification_task,2021.2.3,Win32,59.86948452,5f458cb79f9aa31a7d7ab81b,626b377229c10585ec392f89,626b3a433d49090b081d6450,,,,,,,,,,,,,,,,,,,,,,,a,1,"[""0.303"",""0.541"",""0.856"",""0.959""]","[1,0,1,1]",0,51,51,51,1,0,1,,,1,FALSE,1.3837,,,,,,,,,,,,,,,,,,,,,,,,,,,,,,
,5f458cb79f9aa31a7d7ab81b,001,2022-04-29_02h08.25.805,classification_task,2021.2.3,Win32,59.86948452,5f458cb79f9aa31a7d7ab81b,626b377229c10585ec392f89,626b3a433d49090b081d6450,,,,,,,,,,,,,,,,,,,,,,,l,1,"[""0.111"",""0.349"",""0.211"",""0.722""]","[1,1,0,1]",0,52,52,52,1,1,1,,,1,FALSE,1.1007,,,,,,,,,,,,,,,,,,,,,,,,,,,,,,
,5f458cb79f9aa31a7d7ab81b,001,2022-04-29_02h08.25.805,classification_task,2021.2.3,Win32,59.86948452,5f458cb79f9aa31a7d7ab81b,626b377229c10585ec392f89,626b3a433d49090b081d6450,,,,,,,,,,,,,,,,,,,,,,,a,1,"[""0.257"",""0.543"",""0.684"",""0.915""]","[1,0,1,1]",0,53,53,53,1,0,0,,,1,FALSE,1.8667,,,,,,,,,,,,,,,,,,,,,,,,,,,,,,
,5f458cb79f9aa31a7d7ab81b,001,2022-04-29_02h08.25.805,classification_task,2021.2.3,Win32,59.86948452,5f458cb79f9aa31a7d7ab81b,626b377229c10585ec392f89,626b3a433d49090b081d6450,,,,,,,,,,,,,,,,,,,,,,,l,1,"[""0.067"",""0.174"",""0.390"",""0.780""]","[1,1,0,1]",0,54,54,54,1,1,0,,,1,FALSE,0.9336,,,,,,,,,,,,,,,,,,,,,,,,,,,,,,
,5f458cb79f9aa31a7d7ab81b,001,2022-04-29_02h08.25.805,classification_task,2021.2.3,Win32,59.86948452,5f458cb79f9aa31a7d7ab81b,626b377229c10585ec392f89,626b3a433d49090b081d6450,,,,,,,,,,,,,,,,,,,,,,,l,1,"[""0.111"",""0.531"",""0.617"",""0.722""]","[1,0,1,1]",0,55,55,55,1,1,1,,,1,FALSE,1.0174,,,,,,,,,,,,,,,,,,,,,,,,,,,,,,
,5f458cb79f9aa31a7d7ab81b,001,2022-04-29_02h08.25.805,classification_task,2021.2.3,Win32,59.86948452,5f458cb79f9aa31a7d7ab81b,626b377229c10585ec392f89,626b3a433d49090b081d6450,,,,,,,,,,,,,,,,,,,,,,,a,1,"[""0.303"",""0.491"",""0.856"",""0.396""]","[1,1,1,0]",0,56,56,56,1,0,1,,,1,FALSE,1.2839,,,,,,,,,,,,,,,,,,,,,,,,,,,,,,
,5f458cb79f9aa31a7d7ab81b,001,2022-04-29_02h08.25.805,classification_task,2021.2.3,Win32,59.86948452,5f458cb79f9aa31a7d7ab81b,626b377229c10585ec392f89,626b3a433d49090b081d6450,,,,,,,,,,,,,,,,,,,,,,,a,1,"[""0.303"",""0.491"",""0.541"",""0.959""]","[1,1,0,1]",0,57,57,57,1,0,1,,,1,FALSE,1.2838,,,,,,,,,,,,,,,,,,,,,,,,,,,,,,
,5f458cb79f9aa31a7d7ab81b,001,2022-04-29_02h08.25.805,classification_task,2021.2.3,Win32,59.86948452,5f458cb79f9aa31a7d7ab81b,626b377229c10585ec392f89,626b3a433d49090b081d6450,,,,,,,,,,,,,,,,,,,,,,,l,1,"[""0.067"",""0.531"",""0.650"",""0.780""]","[1,0,1,1]",0,58,58,58,1,1,0,,,1,FALSE,1.0328,,,,,,,,,,,,,,,,,,,,,,,,,,,,,,
,5f458cb79f9aa31a7d7ab81b,001,2022-04-29_02h08.25.805,classification_task,2021.2.3,Win32,59.86948452,5f458cb79f9aa31a7d7ab81b,626b377229c10585ec392f89,626b3a433d49090b081d6450,,,,,,,,,,,,,,,,,,,,,,,l,1,"[""0.111"",""0.349"",""0.617"",""0.210""]","[1,1,1,0]",0,59,59,59,1,1,1,,,1,FALSE,0.9845,,,,,,,,,,,,,,,,,,,,,,,,,,,,,,
,5f458cb79f9aa31a7d7ab81b,001,2022-04-29_02h08.25.805,classification_task,2021.2.3,Win32,59.86948452,5f458cb79f9aa31a7d7ab81b,626b377229c10585ec392f89,626b3a433d49090b081d6450,,,,,,,,,,,,,,,,,,,,,,,l,1,"[""0.067"",""0.174"",""0.650"",""0.543""]","[1,1,1,0]",0,60,60,60,1,1,0,,,1,FALSE,1.067,,,,,,,,,,,,,,,,,,,,,,,,,,,,,,
,5f458cb79f9aa31a7d7ab81b,001,2022-04-29_02h08.25.805,classification_task,2021.2.3,Win32,59.86948452,5f458cb79f9aa31a7d7ab81b,626b377229c10585ec392f89,626b3a433d49090b081d6450,,,,,,,,,,,,,,,,,,,,,,,a,0,"[""0.531"",""0.349"",""0.617"",""0.722""]","[0,1,1,1]",0,61,61,61,1,1,1,,,1,FALSE,1.8169,,,,,,,,,,,,,,,,,,,,,,,,,,,,,,
,5f458cb79f9aa31a7d7ab81b,001,2022-04-29_02h08.25.805,classification_task,2021.2.3,Win32,59.86948452,5f458cb79f9aa31a7d7ab81b,626b377229c10585ec392f89,626b3a433d49090b081d6450,,,,,,,,,,,,,,,,,,,,,,,l,0,"[""0.257"",""0.435"",""0.562"",""0.915""]","[1,1,0,1]",0,62,62,62,1,0,0,,,1,FALSE,2.0833,,,,,,,,,,,,,,,,,,,,,,,,,,,,,,
,5f458cb79f9aa31a7d7ab81b,001,2022-04-29_02h08.25.805,classification_task,2021.2.3,Win32,59.86948452,5f458cb79f9aa31a7d7ab81b,626b377229c10585ec392f89,626b3a433d49090b081d6450,,,,,,,,,,,,,,,,,,,,,,,l,1,"[""0.211"",""0.174"",""0.650"",""0.780""]","[0,1,1,1]",0,63,63,63,1,1,0,,,1,FALSE,1.0839,,,,,,,,,,,,,,,,,,,,,,,,,,,,,,
,5f458cb79f9aa31a7d7ab81b,001,2022-04-29_02h08.25.805,classification_task,2021.2.3,Win32,59.86948452,5f458cb79f9aa31a7d7ab81b,626b377229c10585ec392f89,626b3a433d49090b081d6450,,,,,,,,,,,,,,,,,,,,,,,,,,,,,,,,,,,,,,,0, ,,0,7.841465804,607.779,0,0,0,0,1,2,1,,,,,,,,,,,,,,,,,
,5f458cb79f9aa31a7d7ab81b,001,2022-04-29_02h08.25.805,classification_task,2021.2.3,Win32,59.86948452,5f458cb79f9aa31a7d7ab81b,626b377229c10585ec392f89,626b3a433d49090b081d6450,,,,,,,,,,,,,,,,,,,,,,,,,,,,,,,,,,,,,,,1,  ,,0,5.367430923,617.168,0,0,0,0,1,2,1,,,,,,,,,,,,,,,,,
,5f458cb79f9aa31a7d7ab81b,001,2022-04-29_02h08.25.805,classification_task,2021.2.3,Win32,59.86948452,5f458cb79f9aa31a7d7ab81b,626b377229c10585ec392f89,626b3a433d49090b081d6450,,,,,,,,,,,,,,,,,,,,,,,,,,,,,,,,,,,,,,,2,  ,,0,3.211836175,625.898,0,0,0,0,1,2,1,,,,,,,,,,,,,,,,,
,5f458cb79f9aa31a7d7ab81b,001,2022-04-29_02h08.25.805,classification_task,2021.2.3,Win32,59.86948452,5f458cb79f9aa31a7d7ab81b,626b377229c10585ec392f89,626b3a433d49090b081d6450,,,,,,,,,,,,,,,,,,,,,,,,,,,,,,,,,,,,,,,,,,,,,0,0,0,0,1,,1,,,,,,,,,,,,,,,,,
,5f458cb79f9aa31a7d7ab81b,001,2022-04-29_02h08.25.805,classification_task,2021.2.3,Win32,59.86948452,5f458cb79f9aa31a7d7ab81b,626b377229c10585ec392f89,626b3a433d49090b081d6450,,,,,,,,,,,,,,,,,,,,,space,25.5457,l,1,"[""0.210"",""0.349"",""0.617"",""0.722""]","[0,1,1,1]",0,0,0,0,1,1,1,,,1,FALSE,5.3811,,,,,,,,,,,,,,,,,,,,,,,,,,,,,,
,5f458cb79f9aa31a7d7ab81b,001,2022-04-29_02h08.25.805,classification_task,2021.2.3,Win32,59.86948452,5f458cb79f9aa31a7d7ab81b,626b377229c10585ec392f89,626b3a433d49090b081d6450,,,,,,,,,,,,,,,,,,,,,,,l,1,"[""0.067"",""0.538"",""0.650"",""0.780""]","[1,0,1,1]",0,1,1,1,1,1,0,,,1,FALSE,1.4937,,,,,,,,,,,,,,,,,,,,,,,,,,,,,,
,5f458cb79f9aa31a7d7ab81b,001,2022-04-29_02h08.25.805,classification_task,2021.2.3,Win32,59.86948452,5f458cb79f9aa31a7d7ab81b,626b377229c10585ec392f89,626b3a433d49090b081d6450,,,,,,,,,,,,,,,,,,,,,,,l,1,"[""0.535"",""0.174"",""0.650"",""0.780""]","[0,1,1,1]",0,2,2,2,1,1,0,,,1,FALSE,2.5671,,,,,,,,,,,,,,,,,,,,,,,,,,,,,,
,5f458cb79f9aa31a7d7ab81b,001,2022-04-29_02h08.25.805,classification_task,2021.2.3,Win32,59.86948452,5f458cb79f9aa31a7d7ab81b,626b377229c10585ec392f89,626b3a433d49090b081d6450,,,,,,,,,,,,,,,,,,,,,,,a,1,"[""0.303"",""0.491"",""0.856"",""0.531""]","[1,1,1,0]",0,3,3,3,1,0,1,,,1,FALSE,2.5525,,,,,,,,,,,,,,,,,,,,,,,,,,,,,,
,5f458cb79f9aa31a7d7ab81b,001,2022-04-29_02h08.25.805,classification_task,2021.2.3,Win32,59.86948452,5f458cb79f9aa31a7d7ab81b,626b377229c10585ec392f89,626b3a433d49090b081d6450,,,,,,,,,,,,,,,,,,,,,,,l,1,"[""0.111"",""0.349"",""0.617"",""0.535""]","[1,1,1,0]",0,4,4,4,1,1,1,,,1,FALSE,1.4944,,,,,,,,,,,,,,,,,,,,,,,,,,,,,,
,5f458cb79f9aa31a7d7ab81b,001,2022-04-29_02h08.25.805,classification_task,2021.2.3,Win32,59.86948452,5f458cb79f9aa31a7d7ab81b,626b377229c10585ec392f89,626b3a433d49090b081d6450,,,,,,,,,,,,,,,,,,,,,,,l,1,"[""0.111"",""0.390"",""0.617"",""0.722""]","[1,0,1,1]",0,5,5,5,1,1,1,,,1,FALSE,0.812,,,,,,,,,,,,,,,,,,,,,,,,,,,,,,
,5f458cb79f9aa31a7d7ab81b,001,2022-04-29_02h08.25.805,classification_task,2021.2.3,Win32,59.86948452,5f458cb79f9aa31a7d7ab81b,626b377229c10585ec392f89,626b3a433d49090b081d6450,,,,,,,,,,,,,,,,,,,,,,,l,1,"[""0.111"",""0.349"",""0.543"",""0.722""]","[1,1,0,1]",0,6,6,6,1,1,1,,,1,FALSE,1.3876,,,,,,,,,,,,,,,,,,,,,,,,,,,,,,
,5f458cb79f9aa31a7d7ab81b,001,2022-04-29_02h08.25.805,classification_task,2021.2.3,Win32,59.86948452,5f458cb79f9aa31a7d7ab81b,626b377229c10585ec392f89,626b3a433d49090b081d6450,,,,,,,,,,,,,,,,,,,,,,,a,1,"[""0.257"",""0.435"",""0.531"",""0.915""]","[1,1,0,1]",0,7,7,7,1,0,0,,,1,FALSE,3.1551,,,,,,,,,,,,,,,,,,,,,,,,,,,,,,
,5f458cb79f9aa31a7d7ab81b,001,2022-04-29_02h08.25.805,classification_task,2021.2.3,Win32,59.86948452,5f458cb79f9aa31a7d7ab81b,626b377229c10585ec392f89,626b3a433d49090b081d6450,,,,,,,,,,,,,,,,,,,,,,,a,1,"[""0.257"",""0.435"",""0.684"",""0.535""]","[1,1,1,0]",0,8,8,8,1,0,0,,,1,FALSE,0.8149,,,,,,,,,,,,,,,,,,,,,,,,,,,,,,
,5f458cb79f9aa31a7d7ab81b,001,2022-04-29_02h08.25.805,classification_task,2021.2.3,Win32,59.86948452,5f458cb79f9aa31a7d7ab81b,626b377229c10585ec392f89,626b3a433d49090b081d6450,,,,,,,,,,,,,,,,,,,,,,,l,1,"[""0.067"",""0.174"",""0.650"",""0.541""]","[1,1,1,0]",0,9,9,9,1,1,0,,,1,FALSE,0.9797,,,,,,,,,,,,,,,,,,,,,,,,,,,,,,
,5f458cb79f9aa31a7d7ab81b,001,2022-04-29_02h08.25.805,classification_task,2021.2.3,Win32,59.86948452,5f458cb79f9aa31a7d7ab81b,626b377229c10585ec392f89,626b3a433d49090b081d6450,,,,,,,,,,,,,,,,,,,,,,,l,0,"[""0.541"",""0.435"",""0.684"",""0.915""]","[0,1,1,1]",0,10,10,10,1,0,0,,,1,FALSE,2.8132,,,,,,,,,,,,,,,,,,,,,,,,,,,,,,
,5f458cb79f9aa31a7d7ab81b,001,2022-04-29_02h08.25.805,classification_task,2021.2.3,Win32,59.86948452,5f458cb79f9aa31a7d7ab81b,626b377229c10585ec392f89,626b3a433d49090b081d6450,,,,,,,,,,,,,,,,,,,,,,,a,1,"[""0.541"",""0.491"",""0.856"",""0.959""]","[0,1,1,1]",0,11,11,11,1,0,1,,,1,FALSE,1.4621,,,,,,,,,,,,,,,,,,,,,,,,,,,,,,
,5f458cb79f9aa31a7d7ab81b,001,2022-04-29_02h08.25.805,classification_task,2021.2.3,Win32,59.86948452,5f458cb79f9aa31a7d7ab81b,626b377229c10585ec392f89,626b3a433d49090b081d6450,,,,,,,,,,,,,,,,,,,,,,,a,1,"[""0.303"",""0.531"",""0.856"",""0.959""]","[1,0,1,1]",0,12,12,12,1,0,1,,,1,FALSE,1.9757,,,,,,,,,,,,,,,,,,,,,,,,,,,,,,
,5f458cb79f9aa31a7d7ab81b,001,2022-04-29_02h08.25.805,classification_task,2021.2.3,Win32,59.86948452,5f458cb79f9aa31a7d7ab81b,626b377229c10585ec392f89,626b3a433d49090b081d6450,,,,,,,,,,,,,,,,,,,,,,,l,1,"[""0.067"",""0.174"",""0.562"",""0.780""]","[1,1,0,1]",0,13,13,13,1,1,0,,,1,FALSE,1.1104,,,,,,,,,,,,,,,,,,,,,,,,,,,,,,
,5f458cb79f9aa31a7d7ab81b,001,2022-04-29_02h08.25.805,classification_task,2021.2.3,Win32,59.86948452,5f458cb79f9aa31a7d7ab81b,626b377229c10585ec392f89,626b3a433d49090b081d6450,,,,,,,,,,,,,,,,,,,,,,,a,1,"[""0.257"",""0.396"",""0.684"",""0.915""]","[1,0,1,1]",0,14,14,14,1,0,0,,,1,FALSE,1.4448,,,,,,,,,,,,,,,,,,,,,,,,,,,,,,
,5f458cb79f9aa31a7d7ab81b,001,2022-04-29_02h08.25.805,classification_task,2021.2.3,Win32,59.86948452,5f458cb79f9aa31a7d7ab81b,626b377229c10585ec392f89,626b3a433d49090b081d6450,,,,,,,,,,,,,,,,,,,,,,,a,1,"[""0.303"",""0.491"",""0.538"",""0.959""]","[1,1,0,1]",0,15,15,15,1,0,1,,,1,FALSE,2.3476,,,,,,,,,,,,,,,,,,,,,,,,,,,,,,
,5f458cb79f9aa31a7d7ab81b,001,2022-04-29_02h08.25.805,classification_task,2021.2.3,Win32,59.86948452,5f458cb79f9aa31a7d7ab81b,626b377229c10585ec392f89,626b3a433d49090b081d6450,,,,,,,,,,,,,,,,,,,,,,,l,1,"[""0.111"",""0.349"",""0.617"",""0.531""]","[1,1,1,0]",0,16,16,16,1,1,1,,,1,FALSE,1.3272,,,,,,,,,,,,,,,,,,,,,,,,,,,,,,
,5f458cb79f9aa31a7d7ab81b,001,2022-04-29_02h08.25.805,classification_task,2021.2.3,Win32,59.86948452,5f458cb79f9aa31a7d7ab81b,626b377229c10585ec392f89,626b3a433d49090b081d6450,,,,,,,,,,,,,,,,,,,,,,,l,1,"[""0.111"",""0.349"",""0.547"",""0.722""]","[1,1,0,1]",0,17,17,17,1,1,1,,,1,FALSE,0.7574,,,,,,,,,,,,,,,,,,,,,,,,,,,,,,
,5f458cb79f9aa31a7d7ab81b,001,2022-04-29_02h08.25.805,classification_task,2021.2.3,Win32,59.86948452,5f458cb79f9aa31a7d7ab81b,626b377229c10585ec392f89,626b3a433d49090b081d6450,,,,,,,,,,,,,,,,,,,,,,,a,1,"[""0.257"",""0.435"",""0.684"",""0.538""]","[1,1,1,0]",0,18,18,18,1,0,0,,,1,FALSE,2.6228,,,,,,,,,,,,,,,,,,,,,,,,,,,,,,
,5f458cb79f9aa31a7d7ab81b,001,2022-04-29_02h08.25.805,classification_task,2021.2.3,Win32,59.86948452,5f458cb79f9aa31a7d7ab81b,626b377229c10585ec392f89,626b3a433d49090b081d6450,,,,,,,,,,,,,,,,,,,,,,,a,1,"[""0.303"",""0.543"",""0.856"",""0.959""]","[1,0,1,1]",0,19,19,19,1,0,1,,,1,FALSE,1.3655,,,,,,,,,,,,,,,,,,,,,,,,,,,,,,
,5f458cb79f9aa31a7d7ab81b,001,2022-04-29_02h08.25.805,classification_task,2021.2.3,Win32,59.86948452,5f458cb79f9aa31a7d7ab81b,626b377229c10585ec392f89,626b3a433d49090b081d6450,,,,,,,,,,,,,,,,,,,,,,,a,1,"[""0.531"",""0.435"",""0.684"",""0.915""]","[0,1,1,1]",0,20,20,20,1,0,0,,,1,FALSE,1.9198,,,,,,,,,,,,,,,,,,,,,,,,,,,,,,
,5f458cb79f9aa31a7d7ab81b,001,2022-04-29_02h08.25.805,classification_task,2021.2.3,Win32,59.86948452,5f458cb79f9aa31a7d7ab81b,626b377229c10585ec392f89,626b3a433d49090b081d6450,,,,,,,,,,,,,,,,,,,,,,,a,1,"[""0.303"",""0.491"",""0.856"",""0.547""]","[1,1,1,0]",0,21,21,21,1,0,1,,,1,FALSE,1.5224,,,,,,,,,,,,,,,,,,,,,,,,,,,,,,
,5f458cb79f9aa31a7d7ab81b,001,2022-04-29_02h08.25.805,classification_task,2021.2.3,Win32,59.86948452,5f458cb79f9aa31a7d7ab81b,626b377229c10585ec392f89,626b3a433d49090b081d6450,,,,,,,,,,,,,,,,,,,,,,,a,1,"[""0.257"",""0.535"",""0.684"",""0.915""]","[1,0,1,1]",0,22,22,22,1,0,0,,,1,FALSE,2.2919,,,,,,,,,,,,,,,,,,,,,,,,,,,,,,
,5f458cb79f9aa31a7d7ab81b,001,2022-04-29_02h08.25.805,classification_task,2021.2.3,Win32,59.86948452,5f458cb79f9aa31a7d7ab81b,626b377229c10585ec392f89,626b3a433d49090b081d6450,,,,,,,,,,,,,,,,,,,,,,,a,1,"[""0.303"",""0.491"",""0.531"",""0.959""]","[1,1,0,1]",0,23,23,23,1,0,1,,,1,FALSE,1.378,,,,,,,,,,,,,,,,,,,,,,,,,,,,,,
,5f458cb79f9aa31a7d7ab81b,001,2022-04-29_02h08.25.805,classification_task,2021.2.3,Win32,59.86948452,5f458cb79f9aa31a7d7ab81b,626b377229c10585ec392f89,626b3a433d49090b081d6450,,,,,,,,,,,,,,,,,,,,,,,l,1,"[""0.067"",""0.174"",""0.650"",""0.210""]","[1,1,1,0]",0,24,24,24,1,1,0,,,1,FALSE,0.9487,,,,,,,,,,,,,,,,,,,,,,,,,,,,,,
,5f458cb79f9aa31a7d7ab81b,001,2022-04-29_02h08.25.805,classification_task,2021.2.3,Win32,59.86948452,5f458cb79f9aa31a7d7ab81b,626b377229c10585ec392f89,626b3a433d49090b081d6450,,,,,,,,,,,,,,,,,,,,,,,a,1,"[""0.257"",""0.435"",""0.209"",""0.915""]","[1,1,0,1]",0,25,25,25,1,0,0,,,1,FALSE,3.8678,,,,,,,,,,,,,,,,,,,,,,,,,,,,,,
,5f458cb79f9aa31a7d7ab81b,001,2022-04-29_02h08.25.805,classification_task,2021.2.3,Win32,59.86948452,5f458cb79f9aa31a7d7ab81b,626b377229c10585ec392f89,626b3a433d49090b081d6450,,,,,,,,,,,,,,,,,,,,,,,l,1,"[""0.396"",""0.174"",""0.650"",""0.780""]","[0,1,1,1]",0,26,26,26,1,1,0,,,1,FALSE,2.4427,,,,,,,,,,,,,,,,,,,,,,,,,,,,,,
,5f458cb79f9aa31a7d7ab81b,001,2022-04-29_02h08.25.805,classification_task,2021.2.3,Win32,59.86948452,5f458cb79f9aa31a7d7ab81b,626b377229c10585ec392f89,626b3a433d49090b081d6450,,,,,,,,,,,,,,,,,,,,,,,a,0,"[""0.578"",""0.349"",""0.617"",""0.722""]","[0,1,1,1]",0,27,27,27,1,1,1,,,1,FALSE,2.4665,,,,,,,,,,,,,,,,,,,,,,,,,,,,,,
,5f458cb79f9aa31a7d7ab81b,001,2022-04-29_02h08.25.805,classification_task,2021.2.3,Win32,59.86948452,5f458cb79f9aa31a7d7ab81b,626b377229c10585ec392f89,626b3a433d49090b081d6450,,,,,,,,,,,,,,,,,,,,,,,l,1,"[""0.067"",""0.211"",""0.650"",""0.780""]","[1,0,1,1]",0,28,28,28,1,1,0,,,1,FALSE,0.9708,,,,,,,,,,,,,,,,,,,,,,,,,,,,,,
,5f458cb79f9aa31a7d7ab81b,001,2022-04-29_02h08.25.805,classification_task,2021.2.3,Win32,59.86948452,5f458cb79f9aa31a7d7ab81b,626b377229c10585ec392f89,626b3a433d49090b081d6450,,,,,,,,,,,,,,,,,,,,,,,l,0,"[""0.562"",""0.491"",""0.856"",""0.959""]","[0,1,1,1]",0,29,29,29,1,0,1,,,1,FALSE,1.2841,,,,,,,,,,,,,,,,,,,,,,,,,,,,,,
,5f458cb79f9aa31a7d7ab81b,001,2022-04-29_02h08.25.805,classification_task,2021.2.3,Win32,59.86948452,5f458cb79f9aa31a7d7ab81b,626b377229c10585ec392f89,626b3a433d49090b081d6450,,,,,,,,,,,,,,,,,,,,,,,l,1,"[""0.111"",""0.547"",""0.617"",""0.722""]","[1,0,1,1]",0,30,30,30,1,1,1,,,1,FALSE,0.8511,,,,,,,,,,,,,,,,,,,,,,,,,,,,,,
,5f458cb79f9aa31a7d7ab81b,001,2022-04-29_02h08.25.805,classification_task,2021.2.3,Win32,59.86948452,5f458cb79f9aa31a7d7ab81b,626b377229c10585ec392f89,626b3a433d49090b081d6450,,,,,,,,,,,,,,,,,,,,,,,l,1,"[""0.067"",""0.174"",""0.547"",""0.780""]","[1,1,0,1]",0,31,31,31,1,1,0,,,1,FALSE,1.3481,,,,,,,,,,,,,,,,,,,,,,,,,,,,,,
,5f458cb79f9aa31a7d7ab81b,001,2022-04-29_02h08.25.805,classification_task,2021.2.3,Win32,59.86948452,5f458cb79f9aa31a7d7ab81b,626b377229c10585ec392f89,626b3a433d49090b081d6450,,,,,,,,,,,,,,,,,,,,,,,l,1,"[""0.111"",""0.349"",""0.617"",""0.209""]","[1,1,1,0]",0,32,32,32,1,1,1,,,1,FALSE,0.8025,,,,,,,,,,,,,,,,,,,,,,,,,,,,,,
,5f458cb79f9aa31a7d7ab81b,001,2022-04-29_02h08.25.805,classification_task,2021.2.3,Win32,59.86948452,5f458cb79f9aa31a7d7ab81b,626b377229c10585ec392f89,626b3a433d49090b081d6450,,,,,,,,,,,,,,,,,,,,,,,a,1,"[""0.303"",""0.491"",""0.856"",""0.531""]","[1,1,1,0]",0,33,33,33,1,0,1,,,1,FALSE,1.6915,,,,,,,,,,,,,,,,,,,,,,,,,,,,,,
,5f458cb79f9aa31a7d7ab81b,001,2022-04-29_02h08.25.805,classification_task,2021.2.3,Win32,59.86948452,5f458cb79f9aa31a7d7ab81b,626b377229c10585ec392f89,626b3a433d49090b081d6450,,,,,,,,,,,,,,,,,,,,,,,a,1,"[""0.303"",""0.491"",""0.531"",""0.959""]","[1,1,0,1]",0,34,34,34,1,0,1,,,1,FALSE,0.6338,,,,,,,,,,,,,,,,,,,,,,,,,,,,,,
,5f458cb79f9aa31a7d7ab81b,001,2022-04-29_02h08.25.805,classification_task,2021.2.3,Win32,59.86948452,5f458cb79f9aa31a7d7ab81b,626b377229c10585ec392f89,626b3a433d49090b081d6450,,,,,,,,,,,,,,,,,,,,,,,a,1,"[""0.390"",""0.435"",""0.684"",""0.915""]","[0,1,1,1]",0,35,35,35,1,0,0,,,1,FALSE,2.3339,,,,,,,,,,,,,,,,,,,,,,,,,,,,,,
,5f458cb79f9aa31a7d7ab81b,001,2022-04-29_02h08.25.805,classification_task,2021.2.3,Win32,59.86948452,5f458cb79f9aa31a7d7ab81b,626b377229c10585ec392f89,626b3a433d49090b081d6450,,,,,,,,,,,,,,,,,,,,,,,l,1,"[""0.067"",""0.174"",""0.650"",""0.538""]","[1,1,1,0]",0,36,36,36,1,1,0,,,1,FALSE,0.8906,,,,,,,,,,,,,,,,,,,,,,,,,,,,,,
,5f458cb79f9aa31a7d7ab81b,001,2022-04-29_02h08.25.805,classification_task,2021.2.3,Win32,59.86948452,5f458cb79f9aa31a7d7ab81b,626b377229c10585ec392f89,626b3a433d49090b081d6450,,,,,,,,,,,,,,,,,,,,,,,a,1,"[""0.257"",""0.435"",""0.684"",""0.562""]","[1,1,1,0]",0,37,37,37,1,0,0,,,1,FALSE,1.1992,,,,,,,,,,,,,,,,,,,,,,,,,,,,,,
,5f458cb79f9aa31a7d7ab81b,001,2022-04-29_02h08.25.805,classification_task,2021.2.3,Win32,59.86948452,5f458cb79f9aa31a7d7ab81b,626b377229c10585ec392f89,626b3a433d49090b081d6450,,,,,,,,,,,,,,,,,,,,,,,l,1,"[""0.067"",""0.174"",""0.547"",""0.780""]","[1,1,0,1]",0,38,38,38,1,1,0,,,1,FALSE,0.8827,,,,,,,,,,,,,,,,,,,,,,,,,,,,,,
,5f458cb79f9aa31a7d7ab81b,001,2022-04-29_02h08.25.805,classification_task,2021.2.3,Win32,59.86948452,5f458cb79f9aa31a7d7ab81b,626b377229c10585ec392f89,626b3a433d49090b081d6450,,,,,,,,,,,,,,,,,,,,,,,a,1,"[""0.257"",""0.435"",""0.390"",""0.915""]","[1,1,0,1]",0,39,39,39,1,0,0,,,1,FALSE,0.9044,,,,,,,,,,,,,,,,,,,,,,,,,,,,,,
,5f458cb79f9aa31a7d7ab81b,001,2022-04-29_02h08.25.805,classification_task,2021.2.3,Win32,59.86948452,5f458cb79f9aa31a7d7ab81b,626b377229c10585ec392f89,626b3a433d49090b081d6450,,,,,,,,,,,,,,,,,,,,,,,a,1,"[""0.257"",""0.211"",""0.684"",""0.915""]","[1,0,1,1]",0,40,40,40,1,0,0,,,1,FALSE,3.0572,,,,,,,,,,,,,,,,,,,,,,,,,,,,,,
,5f458cb79f9aa31a7d7ab81b,001,2022-04-29_02h08.25.805,classification_task,2021.2.3,Win32,59.86948452,5f458cb79f9aa31a7d7ab81b,626b377229c10585ec392f89,626b3a433d49090b081d6450,,,,,,,,,,,,,,,,,,,,,,,a,1,"[""0.303"",""0.531"",""0.856"",""0.959""]","[1,0,1,1]",0,41,41,41,1,0,1,,,1,FALSE,1.4335,,,,,,,,,,,,,,,,,,,,,,,,,,,,,,
,5f458cb79f9aa31a7d7ab81b,001,2022-04-29_02h08.25.805,classification_task,2021.2.3,Win32,59.86948452,5f458cb79f9aa31a7d7ab81b,626b377229c10585ec392f89,626b3a433d49090b081d6450,,,,,,,,,,,,,,,,,,,,,,,a,0,"[""0.111"",""0.529"",""0.617"",""0.722""]","[1,0,1,1]",0,42,42,42,1,1,1,,,1,FALSE,0.9425,,,,,,,,,,,,,,,,,,,,,,,,,,,,,,
,5f458cb79f9aa31a7d7ab81b,001,2022-04-29_02h08.25.805,classification_task,2021.2.3,Win32,59.86948452,5f458cb79f9aa31a7d7ab81b,626b377229c10585ec392f89,626b3a433d49090b081d6450,,,,,,,,,,,,,,,,,,,,,,,l,1,"[""0.067"",""0.211"",""0.650"",""0.780""]","[1,0,1,1]",0,43,43,43,1,1,0,,,1,FALSE,1.2228,,,,,,,,,,,,,,,,,,,,,,,,,,,,,,
,5f458cb79f9aa31a7d7ab81b,001,2022-04-29_02h08.25.805,classification_task,2021.2.3,Win32,59.86948452,5f458cb79f9aa31a7d7ab81b,626b377229c10585ec392f89,626b3a433d49090b081d6450,,,,,,,,,,,,,,,,,,,,,,,l,1,"[""0.111"",""0.349"",""0.396"",""0.722""]","[1,1,0,1]",0,44,44,44,1,1,1,,,1,FALSE,0.9893,,,,,,,,,,,,,,,,,,,,,,,,,,,,,,
,5f458cb79f9aa31a7d7ab81b,001,2022-04-29_02h08.25.805,classification_task,2021.2.3,Win32,59.86948452,5f458cb79f9aa31a7d7ab81b,626b377229c10585ec392f89,626b3a433d49090b081d6450,,,,,,,,,,,,,,,,,,,,,,,a,1,"[""0.538"",""0.491"",""0.856"",""0.959""]","[0,1,1,1]",0,45,45,45,1,0,1,,,1,FALSE,2.0992,,,,,,,,,,,,,,,,,,,,,,,,,,,,,,
,5f458cb79f9aa31a7d7ab81b,001,2022-04-29_02h08.25.805,classification_task,2021.2.3,Win32,59.86948452,5f458cb79f9aa31a7d7ab81b,626b377229c10585ec392f89,626b3a433d49090b081d6450,,,,,,,,,,,,,,,,,,,,,,,a,0,"[""0.396"",""0.174"",""0.650"",""0.780""]","[0,1,1,1]",0,46,46,46,1,1,0,,,1,FALSE,2.5268,,,,,,,,,,,,,,,,,,,,,,,,,,,,,,
,5f458cb79f9aa31a7d7ab81b,001,2022-04-29_02h08.25.805,classification_task,2021.2.3,Win32,59.86948452,5f458cb79f9aa31a7d7ab81b,626b377229c10585ec392f89,626b3a433d49090b081d6450,,,,,,,,,,,,,,,,,,,,,,,l,1,"[""0.541"",""0.349"",""0.617"",""0.722""]","[0,1,1,1]",0,47,47,47,1,1,1,,,1,FALSE,1.6624,,,,,,,,,,,,,,,,,,,,,,,,,,,,,,
,5f458cb79f9aa31a7d7ab81b,001,2022-04-29_02h08.25.805,classification_task,2021.2.3,Win32,59.86948452,5f458cb79f9aa31a7d7ab81b,626b377229c10585ec392f89,626b3a433d49090b081d6450,,,,,,,,,,,,,,,,,,,,,,,l,0,"[""0.396"",""0.435"",""0.684"",""0.915""]","[0,1,1,1]",0,48,48,48,1,0,0,,,1,FALSE,1.6566,,,,,,,,,,,,,,,,,,,,,,,,,,,,,,
,5f458cb79f9aa31a7d7ab81b,001,2022-04-29_02h08.25.805,classification_task,2021.2.3,Win32,59.86948452,5f458cb79f9aa31a7d7ab81b,626b377229c10585ec392f89,626b3a433d49090b081d6450,,,,,,,,,,,,,,,,,,,,,,,a,1,"[""0.257"",""0.435"",""0.684"",""0.531""]","[1,1,1,0]",0,49,49,49,1,0,0,,,1,FALSE,1.3867,,,,,,,,,,,,,,,,,,,,,,,,,,,,,,
,5f458cb79f9aa31a7d7ab81b,001,2022-04-29_02h08.25.805,classification_task,2021.2.3,Win32,59.86948452,5f458cb79f9aa31a7d7ab81b,626b377229c10585ec392f89,626b3a433d49090b081d6450,,,,,,,,,,,,,,,,,,,,,,,a,0,"[""0.209"",""0.349"",""0.617"",""0.722""]","[0,1,1,1]",0,50,50,50,1,1,1,,,1,FALSE,2.8325,,,,,,,,,,,,,,,,,,,,,,,,,,,,,,
,5f458cb79f9aa31a7d7ab81b,001,2022-04-29_02h08.25.805,classification_task,2021.2.3,Win32,59.86948452,5f458cb79f9aa31a7d7ab81b,626b377229c10585ec392f89,626b3a433d49090b081d6450,,,,,,,,,,,,,,,,,,,,,,,a,1,"[""0.303"",""0.547"",""0.856"",""0.959""]","[1,0,1,1]",0,51,51,51,1,0,1,,,1,FALSE,1.0848,,,,,,,,,,,,,,,,,,,,,,,,,,,,,,
,5f458cb79f9aa31a7d7ab81b,001,2022-04-29_02h08.25.805,classification_task,2021.2.3,Win32,59.86948452,5f458cb79f9aa31a7d7ab81b,626b377229c10585ec392f89,626b3a433d49090b081d6450,,,,,,,,,,,,,,,,,,,,,,,a,0,"[""0.543"",""0.174"",""0.650"",""0.780""]","[0,1,1,1]",0,52,52,52,1,1,0,,,1,FALSE,2.4819,,,,,,,,,,,,,,,,,,,,,,,,,,,,,,
,5f458cb79f9aa31a7d7ab81b,001,2022-04-29_02h08.25.805,classification_task,2021.2.3,Win32,59.86948452,5f458cb79f9aa31a7d7ab81b,626b377229c10585ec392f89,626b3a433d49090b081d6450,,,,,,,,,,,,,,,,,,,,,,,l,0,"[""0.535"",""0.491"",""0.856"",""0.959""]","[0,1,1,1]",0,53,53,53,1,0,1,,,1,FALSE,1.6596,,,,,,,,,,,,,,,,,,,,,,,,,,,,,,
,5f458cb79f9aa31a7d7ab81b,001,2022-04-29_02h08.25.805,classification_task,2021.2.3,Win32,59.86948452,5f458cb79f9aa31a7d7ab81b,626b377229c10585ec392f89,626b3a433d49090b081d6450,,,,,,,,,,,,,,,,,,,,,,,l,1,"[""0.067"",""0.174"",""0.650"",""0.543""]","[1,1,1,0]",0,54,54,54,1,1,0,,,1,FALSE,0.9794,,,,,,,,,,,,,,,,,,,,,,,,,,,,,,
,5f458cb79f9aa31a7d7ab81b,001,2022-04-29_02h08.25.805,classification_task,2021.2.3,Win32,59.86948452,5f458cb79f9aa31a7d7ab81b,626b377229c10585ec392f89,626b3a433d49090b081d6450,,,,,,,,,,,,,,,,,,,,,,,a,1,"[""0.257"",""0.543"",""0.684"",""0.915""]","[1,0,1,1]",0,55,55,55,1,0,0,,,1,FALSE,0.8758,,,,,,,,,,,,,,,,,,,,,,,,,,,,,,
,5f458cb79f9aa31a7d7ab81b,001,2022-04-29_02h08.25.805,classification_task,2021.2.3,Win32,59.86948452,5f458cb79f9aa31a7d7ab81b,626b377229c10585ec392f89,626b3a433d49090b081d6450,,,,,,,,,,,,,,,,,,,,,,,a,1,"[""0.303"",""0.491"",""0.856"",""0.211""]","[1,1,1,0]",0,56,56,56,1,0,1,,,1,FALSE,1.3514,,,,,,,,,,,,,,,,,,,,,,,,,,,,,,
,5f458cb79f9aa31a7d7ab81b,001,2022-04-29_02h08.25.805,classification_task,2021.2.3,Win32,59.86948452,5f458cb79f9aa31a7d7ab81b,626b377229c10585ec392f89,626b3a433d49090b081d6450,,,,,,,,,,,,,,,,,,,,,,,a,1,"[""0.257"",""0.435"",""0.543"",""0.915""]","[1,1,0,1]",0,57,57,57,1,0,0,,,1,FALSE,2.0348,,,,,,,,,,,,,,,,,,,,,,,,,,,,,,
,5f458cb79f9aa31a7d7ab81b,001,2022-04-29_02h08.25.805,classification_task,2021.2.3,Win32,59.86948452,5f458cb79f9aa31a7d7ab81b,626b377229c10585ec392f89,626b3a433d49090b081d6450,,,,,,,,,,,,,,,,,,,,,,,a,1,"[""0.303"",""0.491"",""0.209"",""0.959""]","[1,1,0,1]",0,58,58,58,1,0,1,,,1,FALSE,1.286,,,,,,,,,,,,,,,,,,,,,,,,,,,,,,
,5f458cb79f9aa31a7d7ab81b,001,2022-04-29_02h08.25.805,classification_task,2021.2.3,Win32,59.86948452,5f458cb79f9aa31a7d7ab81b,626b377229c10585ec392f89,626b3a433d49090b081d6450,,,,,,,,,,,,,,,,,,,,,,,l,1,"[""0.067"",""0.174"",""0.543"",""0.780""]","[1,1,0,1]",0,59,59,59,1,1,0,,,1,FALSE,1.0677,,,,,,,,,,,,,,,,,,,,,,,,,,,,,,
,5f458cb79f9aa31a7d7ab81b,001,2022-04-29_02h08.25.805,classification_task,2021.2.3,Win32,59.86948452,5f458cb79f9aa31a7d7ab81b,626b377229c10585ec392f89,626b3a433d49090b081d6450,,,,,,,,,,,,,,,,,,,,,,,l,1,"[""0.067"",""0.390"",""0.650"",""0.780""]","[1,0,1,1]",0,60,60,60,1,1,0,,,1,FALSE,1.1862,,,,,,,,,,,,,,,,,,,,,,,,,,,,,,
,5f458cb79f9aa31a7d7ab81b,001,2022-04-29_02h08.25.805,classification_task,2021.2.3,Win32,59.86948452,5f458cb79f9aa31a7d7ab81b,626b377229c10585ec392f89,626b3a433d49090b081d6450,,,,,,,,,,,,,,,,,,,,,,,l,1,"[""0.111"",""0.349"",""0.538"",""0.722""]","[1,1,0,1]",0,61,61,61,1,1,1,,,1,FALSE,1.0426,,,,,,,,,,,,,,,,,,,,,,,,,,,,,,
,5f458cb79f9aa31a7d7ab81b,001,2022-04-29_02h08.25.805,classification_task,2021.2.3,Win32,59.86948452,5f458cb79f9aa31a7d7ab81b,626b377229c10585ec392f89,626b3a433d49090b081d6450,,,,,,,,,,,,,,,,,,,,,,,l,1,"[""0.111"",""0.349"",""0.617"",""0.210""]","[1,1,1,0]",0,62,62,62,1,1,1,,,1,FALSE,0.7663,,,,,,,,,,,,,,,,,,,,,,,,,,,,,,
,5f458cb79f9aa31a7d7ab81b,001,2022-04-29_02h08.25.805,classification_task,2021.2.3,Win32,59.86948452,5f458cb79f9aa31a7d7ab81b,626b377229c10585ec392f89,626b3a433d49090b081d6450,,,,,,,,,,,,,,,,,,,,,,,l,1,"[""0.111"",""0.562"",""0.617"",""0.722""]","[1,0,1,1]",0,63,63,63,1,1,1,,,1,FALSE,0.4601,,,,,,,,,,,,,,,,,,,,,,,,,,,,,,
,5f458cb79f9aa31a7d7ab81b,001,2022-04-29_02h08.25.805,classification_task,2021.2.3,Win32,59.86948452,5f458cb79f9aa31a7d7ab81b,626b377229c10585ec392f89,626b3a433d49090b081d6450,,,,,,,,,,,,,,,,,,,,,,,,,,,,,,,,,,,,,,,0, ,,0,4.853027631,213.9929,0,1,1,1,1,2,2,,,,,,,,,,,,,,,,,
,5f458cb79f9aa31a7d7ab81b,001,2022-04-29_02h08.25.805,classification_task,2021.2.3,Win32,59.86948452,5f458cb79f9aa31a7d7ab81b,626b377229c10585ec392f89,626b3a433d49090b081d6450,,,,,,,,,,,,,,,,,,,,,,,,,,,,,,,,,,,,,,,1,  ,,0,1.717617088,222.4597,0,1,1,1,1,2,2,,,,,,,,,,,,,,,,,
,5f458cb79f9aa31a7d7ab81b,001,2022-04-29_02h08.25.805,classification_task,2021.2.3,Win32,59.86948452,5f458cb79f9aa31a7d7ab81b,626b377229c10585ec392f89,626b3a433d49090b081d6450,,,,,,,,,,,,,,,,,,,,,,,,,,,,,,,,,,,,,,,2,  ,,0,3.873211836,221.2168,0,1,1,1,1,2,2,,,,,,,,,,,,,,,,,
,5f458cb79f9aa31a7d7ab81b,001,2022-04-29_02h08.25.805,classification_task,2021.2.3,Win32,59.86948452,5f458cb79f9aa31a7d7ab81b,626b377229c10585ec392f89,626b3a433d49090b081d6450,,,,,,,,,,,,,,,,,,,,,,,,,,,,,,,,,,,,,,,,,,,,,0,1,1,1,1,,2,,,,,,,,,,,,,,,,,
,5f458cb79f9aa31a7d7ab81b,001,2022-04-29_02h08.25.805,classification_task,2021.2.3,Win32,59.86948452,5f458cb79f9aa31a7d7ab81b,626b377229c10585ec392f89,626b3a433d49090b081d6450,,,,,,,,,,,,,,,,,,,,,space,15.6189,a,1,"[""0.257"",""0.535"",""0.684"",""0.915""]","[1,0,1,1]",0,0,0,0,1,0,0,,,1,FALSE,2.2113,,,,,,,,,,,,,,,,,,,,,,,,,,,,,,
,5f458cb79f9aa31a7d7ab81b,001,2022-04-29_02h08.25.805,classification_task,2021.2.3,Win32,59.86948452,5f458cb79f9aa31a7d7ab81b,626b377229c10585ec392f89,626b3a433d49090b081d6450,,,,,,,,,,,,,,,,,,,,,,,l,1,"[""0.111"",""0.349"",""0.547"",""0.722""]","[1,1,0,1]",0,1,1,1,1,1,1,,,1,FALSE,1.1064,,,,,,,,,,,,,,,,,,,,,,,,,,,,,,
,5f458cb79f9aa31a7d7ab81b,001,2022-04-29_02h08.25.805,classification_task,2021.2.3,Win32,59.86948452,5f458cb79f9aa31a7d7ab81b,626b377229c10585ec392f89,626b3a433d49090b081d6450,,,,,,,,,,,,,,,,,,,,,,,a,1,"[""0.257"",""0.435"",""0.547"",""0.915""]","[1,1,0,1]",0,2,2,2,1,0,0,,,1,FALSE,1.4152,,,,,,,,,,,,,,,,,,,,,,,,,,,,,,
,5f458cb79f9aa31a7d7ab81b,001,2022-04-29_02h08.25.805,classification_task,2021.2.3,Win32,59.86948452,5f458cb79f9aa31a7d7ab81b,626b377229c10585ec392f89,626b3a433d49090b081d6450,,,,,,,,,,,,,,,,,,,,,,,a,1,"[""0.303"",""0.491"",""0.856"",""0.543""]","[1,1,1,0]",0,3,3,3,1,0,1,,,1,FALSE,1.167,,,,,,,,,,,,,,,,,,,,,,,,,,,,,,
,5f458cb79f9aa31a7d7ab81b,001,2022-04-29_02h08.25.805,classification_task,2021.2.3,Win32,59.86948452,5f458cb79f9aa31a7d7ab81b,626b377229c10585ec392f89,626b3a433d49090b081d6450,,,,,,,,,,,,,,,,,,,,,,,a,1,"[""0.303"",""0.531"",""0.856"",""0.959""]","[1,0,1,1]",0,4,4,4,1,0,1,,,1,FALSE,0.9335,,,,,,,,,,,,,,,,,,,,,,,,,,,,,,
,5f458cb79f9aa31a7d7ab81b,001,2022-04-29_02h08.25.805,classification_task,2021.2.3,Win32,59.86948452,5f458cb79f9aa31a7d7ab81b,626b377229c10585ec392f89,626b3a433d49090b081d6450,,,,,,,,,,,,,,,,,,,,,,,l,1,"[""0.111"",""0.349"",""0.617"",""0.538""]","[1,1,1,0]",0,5,5,5,1,1,1,,,1,FALSE,0.8397,,,,,,,,,,,,,,,,,,,,,,,,,,,,,,
,5f458cb79f9aa31a7d7ab81b,001,2022-04-29_02h08.25.805,classification_task,2021.2.3,Win32,59.86948452,5f458cb79f9aa31a7d7ab81b,626b377229c10585ec392f89,626b3a433d49090b081d6450,,,,,,,,,,,,,,,,,,,,,,,a,0,"[""0.210"",""0.174"",""0.650"",""0.780""]","[0,1,1,1]",0,6,6,6,1,1,0,,,1,FALSE,5.3897,,,,,,,,,,,,,,,,,,,,,,,,,,,,,,
,5f458cb79f9aa31a7d7ab81b,001,2022-04-29_02h08.25.805,classification_task,2021.2.3,Win32,59.86948452,5f458cb79f9aa31a7d7ab81b,626b377229c10585ec392f89,626b3a433d49090b081d6450,,,,,,,,,,,,,,,,,,,,,,,a,1,"[""0.396"",""0.491"",""0.856"",""0.959""]","[0,1,1,1]",0,7,7,7,1,0,1,,,1,FALSE,2.9423,,,,,,,,,,,,,,,,,,,,,,,,,,,,,,
,5f458cb79f9aa31a7d7ab81b,001,2022-04-29_02h08.25.805,classification_task,2021.2.3,Win32,59.86948452,5f458cb79f9aa31a7d7ab81b,626b377229c10585ec392f89,626b3a433d49090b081d6450,,,,,,,,,,,,,,,,,,,,,,,a,1,"[""0.257"",""0.435"",""0.684"",""0.535""]","[1,1,1,0]",0,8,8,8,1,0,0,,,1,FALSE,2.952,,,,,,,,,,,,,,,,,,,,,,,,,,,,,,
,5f458cb79f9aa31a7d7ab81b,001,2022-04-29_02h08.25.805,classification_task,2021.2.3,Win32,59.86948452,5f458cb79f9aa31a7d7ab81b,626b377229c10585ec392f89,626b3a433d49090b081d6450,,,,,,,,,,,,,,,,,,,,,,,l,1,"[""0.067"",""0.174"",""0.650"",""0.538""]","[1,1,1,0]",0,9,9,9,1,1,0,,,1,FALSE,0.9295,,,,,,,,,,,,,,,,,,,,,,,,,,,,,,
,5f458cb79f9aa31a7d7ab81b,001,2022-04-29_02h08.25.805,classification_task,2021.2.3,Win32,59.86948452,5f458cb79f9aa31a7d7ab81b,626b377229c10585ec392f89,626b3a433d49090b081d6450,,,,,,,,,,,,,,,,,,,,,,,l,1,"[""0.111"",""0.547"",""0.617"",""0.722""]","[1,0,1,1]",0,10,10,10,1,1,1,,,1,FALSE,0.5333,,,,,,,,,,,,,,,,,,,,,,,,,,,,,,
,5f458cb79f9aa31a7d7ab81b,001,2022-04-29_02h08.25.805,classification_task,2021.2.3,Win32,59.86948452,5f458cb79f9aa31a7d7ab81b,626b377229c10585ec392f89,626b3a433d49090b081d6450,,,,,,,,,,,,,,,,,,,,,,,l,0,"[""0.535"",""0.435"",""0.684"",""0.915""]","[0,1,1,1]",0,11,11,11,1,0,0,,,1,FALSE,1.8607,,,,,,,,,,,,,,,,,,,,,,,,,,,,,,
,5f458cb79f9aa31a7d7ab81b,001,2022-04-29_02h08.25.805,classification_task,2021.2.3,Win32,59.86948452,5f458cb79f9aa31a7d7ab81b,626b377229c10585ec392f89,626b3a433d49090b081d6450,,,,,,,,,,,,,,,,,,,,,,,l,1,"[""0.067"",""0.543"",""0.650"",""0.780""]","[1,0,1,1]",0,12,12,12,1,1,0,,,1,FALSE,1.1615,,,,,,,,,,,,,,,,,,,,,,,,,,,,,,
,5f458cb79f9aa31a7d7ab81b,001,2022-04-29_02h08.25.805,classification_task,2021.2.3,Win32,59.86948452,5f458cb79f9aa31a7d7ab81b,626b377229c10585ec392f89,626b3a433d49090b081d6450,,,,,,,,,,,,,,,,,,,,,,,l,1,"[""0.067"",""0.174"",""0.562"",""0.780""]","[1,1,0,1]",0,13,13,13,1,1,0,,,1,FALSE,0.8828,,,,,,,,,,,,,,,,,,,,,,,,,,,,,,
,5f458cb79f9aa31a7d7ab81b,001,2022-04-29_02h08.25.805,classification_task,2021.2.3,Win32,59.86948452,5f458cb79f9aa31a7d7ab81b,626b377229c10585ec392f89,626b3a433d49090b081d6450,,,,,,,,,,,,,,,,,,,,,,,a,1,"[""0.303"",""0.491"",""0.390"",""0.959""]","[1,1,0,1]",0,14,14,14,1,0,1,,,1,FALSE,1.159,,,,,,,,,,,,,,,,,,,,,,,,,,,,,,
,5f458cb79f9aa31a7d7ab81b,001,2022-04-29_02h08.25.805,classification_task,2021.2.3,Win32,59.86948452,5f458cb79f9aa31a7d7ab81b,626b377229c10585ec392f89,626b3a433d49090b081d6450,,,,,,,,,,,,,,,,,,,,,,,a,0,"[""0.209"",""0.349"",""0.617"",""0.722""]","[0,1,1,1]",0,15,15,15,1,1,1,,,1,FALSE,1.0808,,,,,,,,,,,,,,,,,,,,,,,,,,,,,,
,5f458cb79f9aa31a7d7ab81b,001,2022-04-29_02h08.25.805,classification_task,2021.2.3,Win32,59.86948452,5f458cb79f9aa31a7d7ab81b,626b377229c10585ec392f89,626b3a433d49090b081d6450,,,,,,,,,,,,,,,,,,,,,,,a,1,"[""0.257"",""0.531"",""0.684"",""0.915""]","[1,0,1,1]",0,16,16,16,1,0,0,,,1,FALSE,1.2703,,,,,,,,,,,,,,,,,,,,,,,,,,,,,,
,5f458cb79f9aa31a7d7ab81b,001,2022-04-29_02h08.25.805,classification_task,2021.2.3,Win32,59.86948452,5f458cb79f9aa31a7d7ab81b,626b377229c10585ec392f89,626b3a433d49090b081d6450,,,,,,,,,,,,,,,,,,,,,,,a,1,"[""0.543"",""0.435"",""0.684"",""0.915""]","[0,1,1,1]",0,17,17,17,1,0,0,,,1,FALSE,1.1618,,,,,,,,,,,,,,,,,,,,,,,,,,,,,,
,5f458cb79f9aa31a7d7ab81b,001,2022-04-29_02h08.25.805,classification_task,2021.2.3,Win32,59.86948452,5f458cb79f9aa31a7d7ab81b,626b377229c10585ec392f89,626b3a433d49090b081d6450,,,,,,,,,,,,,,,,,,,,,,,l,1,"[""0.067"",""0.390"",""0.650"",""0.780""]","[1,0,1,1]",0,18,18,18,1,1,0,,,1,FALSE,0.8676,,,,,,,,,,,,,,,,,,,,,,,,,,,,,,
,5f458cb79f9aa31a7d7ab81b,001,2022-04-29_02h08.25.805,classification_task,2021.2.3,Win32,59.86948452,5f458cb79f9aa31a7d7ab81b,626b377229c10585ec392f89,626b3a433d49090b081d6450,,,,,,,,,,,,,,,,,,,,,,,a,0,"[""0.529"",""0.349"",""0.617"",""0.722""]","[0,1,1,1]",0,19,19,19,1,1,1,,,1,FALSE,2.184,,,,,,,,,,,,,,,,,,,,,,,,,,,,,,
,5f458cb79f9aa31a7d7ab81b,001,2022-04-29_02h08.25.805,classification_task,2021.2.3,Win32,59.86948452,5f458cb79f9aa31a7d7ab81b,626b377229c10585ec392f89,626b3a433d49090b081d6450,,,,,,,,,,,,,,,,,,,,,,,l,1,"[""0.067"",""0.174"",""0.650"",""0.543""]","[1,1,1,0]",0,20,20,20,1,1,0,,,1,FALSE,0.913,,,,,,,,,,,,,,,,,,,,,,,,,,,,,,
,5f458cb79f9aa31a7d7ab81b,001,2022-04-29_02h08.25.805,classification_task,2021.2.3,Win32,59.86948452,5f458cb79f9aa31a7d7ab81b,626b377229c10585ec392f89,626b3a433d49090b081d6450,,,,,,,,,,,,,,,,,,,,,,,a,1,"[""0.303"",""0.491"",""0.529"",""0.959""]","[1,1,0,1]",0,21,21,21,1,0,1,,,1,FALSE,1.0996,,,,,,,,,,,,,,,,,,,,,,,,,,,,,,
,5f458cb79f9aa31a7d7ab81b,001,2022-04-29_02h08.25.805,classification_task,2021.2.3,Win32,59.86948452,5f458cb79f9aa31a7d7ab81b,626b377229c10585ec392f89,626b3a433d49090b081d6450,,,,,,,,,,,,,,,,,,,,,,,a,1,"[""0.303"",""0.531"",""0.856"",""0.959""]","[1,0,1,1]",0,22,22,22,1,0,1,,,1,FALSE,0.8463,,,,,,,,,,,,,,,,,,,,,,,,,,,,,,
,5f458cb79f9aa31a7d7ab81b,001,2022-04-29_02h08.25.805,classification_task,2021.2.3,Win32,59.86948452,5f458cb79f9aa31a7d7ab81b,626b377229c10585ec392f89,626b3a433d49090b081d6450,,,,,,,,,,,,,,,,,,,,,,,l,0,"[""0.562"",""0.491"",""0.856"",""0.959""]","[0,1,1,1]",0,23,23,23,1,0,1,,,1,FALSE,0.9808,,,,,,,,,,,,,,,,,,,,,,,,,,,,,,
,5f458cb79f9aa31a7d7ab81b,001,2022-04-29_02h08.25.805,classification_task,2021.2.3,Win32,59.86948452,5f458cb79f9aa31a7d7ab81b,626b377229c10585ec392f89,626b3a433d49090b081d6450,,,,,,,,,,,,,,,,,,,,,,,a,1,"[""0.257"",""0.435"",""0.684"",""0.578""]","[1,1,1,0]",0,24,24,24,1,0,0,,,1,FALSE,1.3834,,,,,,,,,,,,,,,,,,,,,,,,,,,,,,
,5f458cb79f9aa31a7d7ab81b,001,2022-04-29_02h08.25.805,classification_task,2021.2.3,Win32,59.86948452,5f458cb79f9aa31a7d7ab81b,626b377229c10585ec392f89,626b3a433d49090b081d6450,,,,,,,,,,,,,,,,,,,,,,,l,0,"[""0.257"",""0.435"",""0.210"",""0.915""]","[1,1,0,1]",0,25,25,25,1,0,0,,,1,FALSE,3.2934,,,,,,,,,,,,,,,,,,,,,,,,,,,,,,
,5f458cb79f9aa31a7d7ab81b,001,2022-04-29_02h08.25.805,classification_task,2021.2.3,Win32,59.86948452,5f458cb79f9aa31a7d7ab81b,626b377229c10585ec392f89,626b3a433d49090b081d6450,,,,,,,,,,,,,,,,,,,,,,,l,1,"[""0.111"",""0.349"",""0.617"",""0.531""]","[1,1,1,0]",0,26,26,26,1,1,1,,,1,FALSE,1.1046,,,,,,,,,,,,,,,,,,,,,,,,,,,,,,
,5f458cb79f9aa31a7d7ab81b,001,2022-04-29_02h08.25.805,classification_task,2021.2.3,Win32,59.86948452,5f458cb79f9aa31a7d7ab81b,626b377229c10585ec392f89,626b3a433d49090b081d6450,,,,,,,,,,,,,,,,,,,,,,,l,1,"[""0.111"",""0.349"",""0.543"",""0.722""]","[1,1,0,1]",0,27,27,27,1,1,1,,,1,FALSE,0.6442,,,,,,,,,,,,,,,,,,,,,,,,,,,,,,
,5f458cb79f9aa31a7d7ab81b,001,2022-04-29_02h08.25.805,classification_task,2021.2.3,Win32,59.86948452,5f458cb79f9aa31a7d7ab81b,626b377229c10585ec392f89,626b3a433d49090b081d6450,,,,,,,,,,,,,,,,,,,,,,,a,0,"[""0.562"",""0.174"",""0.650"",""0.780""]","[0,1,1,1]",0,28,28,28,1,1,0,,,1,FALSE,3.1382,,,,,,,,,,,,,,,,,,,,,,,,,,,,,,
,5f458cb79f9aa31a7d7ab81b,001,2022-04-29_02h08.25.805,classification_task,2021.2.3,Win32,59.86948452,5f458cb79f9aa31a7d7ab81b,626b377229c10585ec392f89,626b3a433d49090b081d6450,,,,,,,,,,,,,,,,,,,,,,,l,1,"[""0.067"",""0.174"",""0.529"",""0.780""]","[1,1,0,1]",0,29,29,29,1,1,0,,,1,FALSE,0.9331,,,,,,,,,,,,,,,,,,,,,,,,,,,,,,
,5f458cb79f9aa31a7d7ab81b,001,2022-04-29_02h08.25.805,classification_task,2021.2.3,Win32,59.86948452,5f458cb79f9aa31a7d7ab81b,626b377229c10585ec392f89,626b3a433d49090b081d6450,,,,,,,,,,,,,,,,,,,,,,,l,1,"[""0.111"",""0.396"",""0.617"",""0.722""]","[1,0,1,1]",0,30,30,30,1,1,1,,,1,FALSE,0.9105,,,,,,,,,,,,,,,,,,,,,,,,,,,,,,
,5f458cb79f9aa31a7d7ab81b,001,2022-04-29_02h08.25.805,classification_task,2021.2.3,Win32,59.86948452,5f458cb79f9aa31a7d7ab81b,626b377229c10585ec392f89,626b3a433d49090b081d6450,,,,,,,,,,,,,,,,,,,,,,,a,1,"[""0.303"",""0.491"",""0.856"",""0.396""]","[1,1,1,0]",0,31,31,31,1,0,1,,,1,FALSE,1.4902,,,,,,,,,,,,,,,,,,,,,,,,,,,,,,
,5f458cb79f9aa31a7d7ab81b,001,2022-04-29_02h08.25.805,classification_task,2021.2.3,Win32,59.86948452,5f458cb79f9aa31a7d7ab81b,626b377229c10585ec392f89,626b3a433d49090b081d6450,,,,,,,,,,,,,,,,,,,,,,,l,1,"[""0.067"",""0.174"",""0.650"",""0.547""]","[1,1,1,0]",0,32,32,32,1,1,0,,,1,FALSE,3.0616,,,,,,,,,,,,,,,,,,,,,,,,,,,,,,
,5f458cb79f9aa31a7d7ab81b,001,2022-04-29_02h08.25.805,classification_task,2021.2.3,Win32,59.86948452,5f458cb79f9aa31a7d7ab81b,626b377229c10585ec392f89,626b3a433d49090b081d6450,,,,,,,,,,,,,,,,,,,,,,,l,1,"[""0.067"",""0.174"",""0.531"",""0.780""]","[1,1,0,1]",0,33,33,33,1,1,0,,,1,FALSE,0.6763,,,,,,,,,,,,,,,,,,,,,,,,,,,,,,
,5f458cb79f9aa31a7d7ab81b,001,2022-04-29_02h08.25.805,classification_task,2021.2.3,Win32,59.86948452,5f458cb79f9aa31a7d7ab81b,626b377229c10585ec392f89,626b3a433d49090b081d6450,,,,,,,,,,,,,,,,,,,,,,,a,1,"[""0.303"",""0.491"",""0.856"",""0.210""]","[1,1,1,0]",0,34,34,34,1,0,1,,,1,FALSE,1.2969,,,,,,,,,,,,,,,,,,,,,,,,,,,,,,
,5f458cb79f9aa31a7d7ab81b,001,2022-04-29_02h08.25.805,classification_task,2021.2.3,Win32,59.86948452,5f458cb79f9aa31a7d7ab81b,626b377229c10585ec392f89,626b3a433d49090b081d6450,,,,,,,,,,,,,,,,,,,,,,,a,0,"[""0.543"",""0.349"",""0.617"",""0.722""]","[0,1,1,1]",0,35,35,35,1,1,1,,,1,FALSE,3.0273,,,,,,,,,,,,,,,,,,,,,,,,,,,,,,
,5f458cb79f9aa31a7d7ab81b,001,2022-04-29_02h08.25.805,classification_task,2021.2.3,Win32,59.86948452,5f458cb79f9aa31a7d7ab81b,626b377229c10585ec392f89,626b3a433d49090b081d6450,,,,,,,,,,,,,,,,,,,,,,,a,1,"[""0.210"",""0.491"",""0.856"",""0.959""]","[0,1,1,1]",0,36,36,36,1,0,1,,,1,FALSE,1.2105,,,,,,,,,,,,,,,,,,,,,,,,,,,,,,
,5f458cb79f9aa31a7d7ab81b,001,2022-04-29_02h08.25.805,classification_task,2021.2.3,Win32,59.86948452,5f458cb79f9aa31a7d7ab81b,626b377229c10585ec392f89,626b3a433d49090b081d6450,,,,,,,,,,,,,,,,,,,,,,,a,1,"[""0.543"",""0.435"",""0.684"",""0.915""]","[0,1,1,1]",0,37,37,37,1,0,0,,,1,FALSE,1.7768,,,,,,,,,,,,,,,,,,,,,,,,,,,,,,
,5f458cb79f9aa31a7d7ab81b,001,2022-04-29_02h08.25.805,classification_task,2021.2.3,Win32,59.86948452,5f458cb79f9aa31a7d7ab81b,626b377229c10585ec392f89,626b3a433d49090b081d6450,,,,,,,,,,,,,,,,,,,,,,,a,1,"[""0.303"",""0.390"",""0.856"",""0.959""]","[1,0,1,1]",0,38,38,38,1,0,1,,,1,FALSE,1.1859,,,,,,,,,,,,,,,,,,,,,,,,,,,,,,
,5f458cb79f9aa31a7d7ab81b,001,2022-04-29_02h08.25.805,classification_task,2021.2.3,Win32,59.86948452,5f458cb79f9aa31a7d7ab81b,626b377229c10585ec392f89,626b3a433d49090b081d6450,,,,,,,,,,,,,,,,,,,,,,,a,1,"[""0.257"",""0.435"",""0.684"",""0.390""]","[1,1,1,0]",0,39,39,39,1,0,0,,,1,FALSE,1.5379,,,,,,,,,,,,,,,,,,,,,,,,,,,,,,
,5f458cb79f9aa31a7d7ab81b,001,2022-04-29_02h08.25.805,classification_task,2021.2.3,Win32,59.86948452,5f458cb79f9aa31a7d7ab81b,626b377229c10585ec392f89,626b3a433d49090b081d6450,,,,,,,,,,,,,,,,,,,,,,,l,1,"[""0.111"",""0.211"",""0.617"",""0.722""]","[1,0,1,1]",0,40,40,40,1,1,1,,,1,FALSE,0.8119,,,,,,,,,,,,,,,,,,,,,,,,,,,,,,
,5f458cb79f9aa31a7d7ab81b,001,2022-04-29_02h08.25.805,classification_task,2021.2.3,Win32,59.86948452,5f458cb79f9aa31a7d7ab81b,626b377229c10585ec392f89,626b3a433d49090b081d6450,,,,,,,,,,,,,,,,,,,,,,,a,1,"[""0.303"",""0.491"",""0.529"",""0.959""]","[1,1,0,1]",0,41,41,41,1,0,1,,,1,FALSE,0.9235,,,,,,,,,,,,,,,,,,,,,,,,,,,,,,
,5f458cb79f9aa31a7d7ab81b,001,2022-04-29_02h08.25.805,classification_task,2021.2.3,Win32,59.86948452,5f458cb79f9aa31a7d7ab81b,626b377229c10585ec392f89,626b3a433d49090b081d6450,,,,,,,,,,,,,,,,,,,,,,,l,1,"[""0.111"",""0.349"",""0.210"",""0.722""]","[1,1,0,1]",0,42,42,42,1,1,1,,,1,FALSE,0.7422,,,,,,,,,,,,,,,,,,,,,,,,,,,,,,
,5f458cb79f9aa31a7d7ab81b,001,2022-04-29_02h08.25.805,classification_task,2021.2.3,Win32,59.86948452,5f458cb79f9aa31a7d7ab81b,626b377229c10585ec392f89,626b3a433d49090b081d6450,,,,,,,,,,,,,,,,,,,,,,,a,0,"[""0.535"",""0.174"",""0.650"",""0.780""]","[0,1,1,1]",0,43,43,43,1,1,0,,,1,FALSE,1.8961,,,,,,,,,,,,,,,,,,,,,,,,,,,,,,
,5f458cb79f9aa31a7d7ab81b,001,2022-04-29_02h08.25.805,classification_task,2021.2.3,Win32,59.86948452,5f458cb79f9aa31a7d7ab81b,626b377229c10585ec392f89,626b3a433d49090b081d6450,,,,,,,,,,,,,,,,,,,,,,,l,1,"[""0.067"",""0.535"",""0.650"",""0.780""]","[1,0,1,1]",0,44,44,44,1,1,0,,,1,FALSE,0.9573,,,,,,,,,,,,,,,,,,,,,,,,,,,,,,
,5f458cb79f9aa31a7d7ab81b,001,2022-04-29_02h08.25.805,classification_task,2021.2.3,Win32,59.86948452,5f458cb79f9aa31a7d7ab81b,626b377229c10585ec392f89,626b3a433d49090b081d6450,,,,,,,,,,,,,,,,,,,,,,,a,1,"[""0.257"",""0.396"",""0.684"",""0.915""]","[1,0,1,1]",0,45,45,45,1,0,0,,,1,FALSE,1.0389,,,,,,,,,,,,,,,,,,,,,,,,,,,,,,
,5f458cb79f9aa31a7d7ab81b,001,2022-04-29_02h08.25.805,classification_task,2021.2.3,Win32,59.86948452,5f458cb79f9aa31a7d7ab81b,626b377229c10585ec392f89,626b3a433d49090b081d6450,,,,,,,,,,,,,,,,,,,,,,,a,1,"[""0.257"",""0.435"",""0.547"",""0.915""]","[1,1,0,1]",0,46,46,46,1,0,0,,,1,FALSE,0.6034,,,,,,,,,,,,,,,,,,,,,,,,,,,,,,
,5f458cb79f9aa31a7d7ab81b,001,2022-04-29_02h08.25.805,classification_task,2021.2.3,Win32,59.86948452,5f458cb79f9aa31a7d7ab81b,626b377229c10585ec392f89,626b3a433d49090b081d6450,,,,,,,,,,,,,,,,,,,,,,,l,1,"[""0.111"",""0.349"",""0.617"",""0.529""]","[1,1,1,0]",0,47,47,47,1,1,1,,,1,FALSE,0.8752,,,,,,,,,,,,,,,,,,,,,,,,,,,,,,
,5f458cb79f9aa31a7d7ab81b,001,2022-04-29_02h08.25.805,classification_task,2021.2.3,Win32,59.86948452,5f458cb79f9aa31a7d7ab81b,626b377229c10585ec392f89,626b3a433d49090b081d6450,,,,,,,,,,,,,,,,,,,,,,,a,0,"[""0.067"",""0.174"",""0.396"",""0.780""]","[1,1,0,1]",0,48,48,48,1,1,0,,,1,FALSE,1.267,,,,,,,,,,,,,,,,,,,,,,,,,,,,,,
,5f458cb79f9aa31a7d7ab81b,001,2022-04-29_02h08.25.805,classification_task,2021.2.3,Win32,59.86948452,5f458cb79f9aa31a7d7ab81b,626b377229c10585ec392f89,626b3a433d49090b081d6450,,,,,,,,,,,,,,,,,,,,,,,l,1,"[""0.111"",""0.349"",""0.531"",""0.722""]","[1,1,0,1]",0,49,49,49,1,1,1,,,1,FALSE,0.7079,,,,,,,,,,,,,,,,,,,,,,,,,,,,,,
,5f458cb79f9aa31a7d7ab81b,001,2022-04-29_02h08.25.805,classification_task,2021.2.3,Win32,59.86948452,5f458cb79f9aa31a7d7ab81b,626b377229c10585ec392f89,626b3a433d49090b081d6450,,,,,,,,,,,,,,,,,,,,,,,l,1,"[""0.067"",""0.538"",""0.650"",""0.780""]","[1,0,1,1]",0,50,50,50,1,1,0,,,1,FALSE,0.9356,,,,,,,,,,,,,,,,,,,,,,,,,,,,,,
,5f458cb79f9aa31a7d7ab81b,001,2022-04-29_02h08.25.805,classification_task,2021.2.3,Win32,59.86948452,5f458cb79f9aa31a7d7ab81b,626b377229c10585ec392f89,626b3a433d49090b081d6450,,,,,,,,,,,,,,,,,,,,,,,a,0,"[""0.578"",""0.174"",""0.650"",""0.780""]","[0,1,1,1]",0,51,51,51,1,1,0,,,1,FALSE,1.1778,,,,,,,,,,,,,,,,,,,,,,,,,,,,,,
,5f458cb79f9aa31a7d7ab81b,001,2022-04-29_02h08.25.805,classification_task,2021.2.3,Win32,59.86948452,5f458cb79f9aa31a7d7ab81b,626b377229c10585ec392f89,626b3a433d49090b081d6450,,,,,,,,,,,,,,,,,,,,,,,a,1,"[""0.541"",""0.491"",""0.856"",""0.959""]","[0,1,1,1]",0,52,52,52,1,0,1,,,1,FALSE,1.3623,,,,,,,,,,,,,,,,,,,,,,,,,,,,,,
,5f458cb79f9aa31a7d7ab81b,001,2022-04-29_02h08.25.805,classification_task,2021.2.3,Win32,59.86948452,5f458cb79f9aa31a7d7ab81b,626b377229c10585ec392f89,626b3a433d49090b081d6450,,,,,,,,,,,,,,,,,,,,,,,l,0,"[""0.531"",""0.435"",""0.684"",""0.915""]","[0,1,1,1]",0,53,53,53,1,0,0,,,1,FALSE,1.996,,,,,,,,,,,,,,,,,,,,,,,,,,,,,,
,5f458cb79f9aa31a7d7ab81b,001,2022-04-29_02h08.25.805,classification_task,2021.2.3,Win32,59.86948452,5f458cb79f9aa31a7d7ab81b,626b377229c10585ec392f89,626b3a433d49090b081d6450,,,,,,,,,,,,,,,,,,,,,,,l,1,"[""0.111"",""0.578"",""0.617"",""0.722""]","[1,0,1,1]",0,54,54,54,1,1,1,,,1,FALSE,0.8928,,,,,,,,,,,,,,,,,,,,,,,,,,,,,,
,5f458cb79f9aa31a7d7ab81b,001,2022-04-29_02h08.25.805,classification_task,2021.2.3,Win32,59.86948452,5f458cb79f9aa31a7d7ab81b,626b377229c10585ec392f89,626b3a433d49090b081d6450,,,,,,,,,,,,,,,,,,,,,,,a,1,"[""0.303"",""0.491"",""0.856"",""0.541""]","[1,1,1,0]",0,55,55,55,1,0,1,,,1,FALSE,0.9591,,,,,,,,,,,,,,,,,,,,,,,,,,,,,,
,5f458cb79f9aa31a7d7ab81b,001,2022-04-29_02h08.25.805,classification_task,2021.2.3,Win32,59.86948452,5f458cb79f9aa31a7d7ab81b,626b377229c10585ec392f89,626b3a433d49090b081d6450,,,,,,,,,,,,,,,,,,,,,,,l,1,"[""0.578"",""0.349"",""0.617"",""0.722""]","[0,1,1,1]",0,56,56,56,1,1,1,,,1,FALSE,2.6733,,,,,,,,,,,,,,,,,,,,,,,,,,,,,,
,5f458cb79f9aa31a7d7ab81b,001,2022-04-29_02h08.25.805,classification_task,2021.2.3,Win32,59.86948452,5f458cb79f9aa31a7d7ab81b,626b377229c10585ec392f89,626b3a433d49090b081d6450,,,,,,,,,,,,,,,,,,,,,,,a,1,"[""0.303"",""0.535"",""0.856"",""0.959""]","[1,0,1,1]",0,57,57,57,1,0,1,,,1,FALSE,2.0852,,,,,,,,,,,,,,,,,,,,,,,,,,,,,,
,5f458cb79f9aa31a7d7ab81b,001,2022-04-29_02h08.25.805,classification_task,2021.2.3,Win32,59.86948452,5f458cb79f9aa31a7d7ab81b,626b377229c10585ec392f89,626b3a433d49090b081d6450,,,,,,,,,,,,,,,,,,,,,,,a,1,"[""0.257"",""0.541"",""0.684"",""0.915""]","[1,0,1,1]",0,58,58,58,1,0,0,,,1,FALSE,1.2976,,,,,,,,,,,,,,,,,,,,,,,,,,,,,,
,5f458cb79f9aa31a7d7ab81b,001,2022-04-29_02h08.25.805,classification_task,2021.2.3,Win32,59.86948452,5f458cb79f9aa31a7d7ab81b,626b377229c10585ec392f89,626b3a433d49090b081d6450,,,,,,,,,,,,,,,,,,,,,,,a,1,"[""0.257"",""0.435"",""0.684"",""0.578""]","[1,1,1,0]",0,59,59,59,1,0,0,,,1,FALSE,0.7169,,,,,,,,,,,,,,,,,,,,,,,,,,,,,,
,5f458cb79f9aa31a7d7ab81b,001,2022-04-29_02h08.25.805,classification_task,2021.2.3,Win32,59.86948452,5f458cb79f9aa31a7d7ab81b,626b377229c10585ec392f89,626b3a433d49090b081d6450,,,,,,,,,,,,,,,,,,,,,,,l,1,"[""0.111"",""0.349"",""0.617"",""0.562""]","[1,1,1,0]",0,60,60,60,1,1,1,,,1,FALSE,0.8636,,,,,,,,,,,,,,,,,,,,,,,,,,,,,,
,5f458cb79f9aa31a7d7ab81b,001,2022-04-29_02h08.25.805,classification_task,2021.2.3,Win32,59.86948452,5f458cb79f9aa31a7d7ab81b,626b377229c10585ec392f89,626b3a433d49090b081d6450,,,,,,,,,,,,,,,,,,,,,,,a,1,"[""0.303"",""0.491"",""0.390"",""0.959""]","[1,1,0,1]",0,61,61,61,1,0,1,,,1,FALSE,1.2053,,,,,,,,,,,,,,,,,,,,,,,,,,,,,,
,5f458cb79f9aa31a7d7ab81b,001,2022-04-29_02h08.25.805,classification_task,2021.2.3,Win32,59.86948452,5f458cb79f9aa31a7d7ab81b,626b377229c10585ec392f89,626b3a433d49090b081d6450,,,,,,,,,,,,,,,,,,,,,,,l,1,"[""0.067"",""0.174"",""0.650"",""0.543""]","[1,1,1,0]",0,62,62,62,1,1,0,,,1,FALSE,5.8287,,,,,,,,,,,,,,,,,,,,,,,,,,,,,,
,5f458cb79f9aa31a7d7ab81b,001,2022-04-29_02h08.25.805,classification_task,2021.2.3,Win32,59.86948452,5f458cb79f9aa31a7d7ab81b,626b377229c10585ec392f89,626b3a433d49090b081d6450,,,,,,,,,,,,,,,,,,,,,,,a,1,"[""0.257"",""0.435"",""0.543"",""0.915""]","[1,1,0,1]",0,63,63,63,1,0,0,,,1,FALSE,1.1635,,,,,,,,,,,,,,,,,,,,,,,,,,,,,,
,5f458cb79f9aa31a7d7ab81b,001,2022-04-29_02h08.25.805,classification_task,2021.2.3,Win32,59.86948452,5f458cb79f9aa31a7d7ab81b,626b377229c10585ec392f89,626b3a433d49090b081d6450,,,,,,,,,,,,,,,,,,,,,,,,,,,,,,,,,,,,,,,0, ,,0,4.191651969,179.033,0,2,2,2,1,2,3,,,,,,,,,,,,,,,,,
,5f458cb79f9aa31a7d7ab81b,001,2022-04-29_02h08.25.805,classification_task,2021.2.3,Win32,59.86948452,5f458cb79f9aa31a7d7ab81b,626b377229c10585ec392f89,626b3a433d49090b081d6450,,,,,,,,,,,,,,,,,,,,,,,,,,,,,,,,,,,,,,,1,  ,,0,4.828532236,182.6401,0,2,2,2,1,2,3,,,,,,,,,,,,,,,,,
,5f458cb79f9aa31a7d7ab81b,001,2022-04-29_02h08.25.805,classification_task,2021.2.3,Win32,59.86948452,5f458cb79f9aa31a7d7ab81b,626b377229c10585ec392f89,626b3a433d49090b081d6450,,,,,,,,,,,,,,,,,,,,,,,,,,,,,,,,,,,,,,,2,  ,,0,5.489907897,186.485,0,2,2,2,1,2,3,,,,,,,,,,,,,,,,,
,5f458cb79f9aa31a7d7ab81b,001,2022-04-29_02h08.25.805,classification_task,2021.2.3,Win32,59.86948452,5f458cb79f9aa31a7d7ab81b,626b377229c10585ec392f89,626b3a433d49090b081d6450,,,,,,,,,,,,,,,,,,,,,,,,,,,,,,,,,,,,,,,,,,,,,0,2,2,2,1,,3,,,,,,,,,,,,,,,,,
,5f458cb79f9aa31a7d7ab81b,001,2022-04-29_02h08.25.805,classification_task,2021.2.3,Win32,59.86948452,5f458cb79f9aa31a7d7ab81b,626b377229c10585ec392f89,626b3a433d49090b081d6450,,,,,,,,,,,,,,,,,,,,,,,,,,,,,,,,,,,,,,,,,,,,,,,,,,,,,I believe the aid is a competent performer,,0.7,0,4,1065.3427,0,0,0,0,1,0,,,,
,5f458cb79f9aa31a7d7ab81b,001,2022-04-29_02h08.25.805,classification_task,2021.2.3,Win32,59.86948452,5f458cb79f9aa31a7d7ab81b,626b377229c10585ec392f89,626b3a433d49090b081d6450,,,,,,,,,,,,,,,,,,,,,,,,,,,,,,,,,,,,,,,,,,,,,,,,,,,,,I trust the aid,,0.7,0,4,1067.5125,0,0,0,0,1,0,,,,
,5f458cb79f9aa31a7d7ab81b,001,2022-04-29_02h08.25.805,classification_task,2021.2.3,Win32,59.86948452,5f458cb79f9aa31a7d7ab81b,626b377229c10585ec392f89,626b3a433d49090b081d6450,,,,,,,,,,,,,,,,,,,,,,,,,,,,,,,,,,,,,,,,,,,,,,,,,,,,,I have confidence in the advice given by the aid,,0.7,0,4,1070.8874,0,0,0,0,1,0,,,,
,5f458cb79f9aa31a7d7ab81b,001,2022-04-29_02h08.25.805,classification_task,2021.2.3,Win32,59.86948452,5f458cb79f9aa31a7d7ab81b,626b377229c10585ec392f89,626b3a433d49090b081d6450,,,,,,,,,,,,,,,,,,,,,,,,,,,,,,,,,,,,,,,,,,,,,,,,,,,,,I can depend on the aid,,0.7,0,4,1072.793,0,0,0,0,1,0,,,,
,5f458cb79f9aa31a7d7ab81b,001,2022-04-29_02h08.25.805,classification_task,2021.2.3,Win32,59.86948452,5f458cb79f9aa31a7d7ab81b,626b377229c10585ec392f89,626b3a433d49090b081d6450,,,,,,,,,,,,,,,,,,,,,,,,,,,,,,,,,,,,,,,,,,,,,,,,,,,,,I can rely on the aid to behave in consistent ways,,0.7,0,4,1075.8508,0,0,0,0,1,0,,,,
,5f458cb79f9aa31a7d7ab81b,001,2022-04-29_02h08.25.805,classification_task,2021.2.3,Win32,59.86948452,5f458cb79f9aa31a7d7ab81b,626b377229c10585ec392f89,626b3a433d49090b081d6450,,,,,,,,,,,,,,,,,,,,,,,,,,,,,,,,,,,,,,,,,,,,,,,,,,,,,I can rely on the aid to do its best every time I take its advice,,0.7,0,4,1079.6499,0,0,0,0,1,0,,,,
,5f458cb79f9aa31a7d7ab81b,001,2022-04-29_02h08.25.805,classification_task,2021.2.3,Win32,59.86948452,5f458cb79f9aa31a7d7ab81b,626b377229c10585ec392f89,626b3a433d49090b081d6450,,,,,,,,,,,,,,,,,,,,,,,,,,,,,,,,,,,,,,,,,,,,,,,,,,,,,"On trials you completed with assistance from the aid, how frequently did you think the aid was correct?",,0.7,0,95,,0,0,0,0,1,0,,,,
,5f458cb79f9aa31a7d7ab81b,001,2022-04-29_02h08.25.805,classification_task,2021.2.3,Win32,59.86948452,5f458cb79f9aa31a7d7ab81b,626b377229c10585ec392f89,626b3a433d49090b081d6450,,,,,,,,,,,,,,,,,,,,,,,,,,,,,,,,,,,,,,,,,,,,,,,,,,,,,"On trials you completed without the aid, how frequently did you think you were correct?",,0.7,0,75,,0,0,0,0,1,0,,,,
,5f458cb79f9aa31a7d7ab81b,001,2022-04-29_02h08.25.805,classification_task,2021.2.3,Win32,59.86948452,5f458cb79f9aa31a7d7ab81b,626b377229c10585ec392f89,626b3a433d49090b081d6450,,,,,,,,,,,,,,,,,,,,,,,,,,,,,,,,,,,,,,,,,,,,,,,,,,,,,,,,,,,0,0,0,0,1,,,,,
,5f458cb79f9aa31a7d7ab81b,001,2022-04-29_02h08.25.805,classification_task,2021.2.3,Win32,59.86948452,5f458cb79f9aa31a7d7ab81b,626b377229c10585ec392f89,626b3a433d49090b081d6450,,,,,,,,,,,,,,,,,,,,,,,,,,,,,,,,,,,,,,,,,,,,,,,,,,,,,,,,,,,,,,,,,return,20.1116,1138.6246,
,5f458cb79f9aa31a7d7ab81b,001,2022-04-29_02h08.25.805,classification_task,2021.2.3,Win32,59.86948452,5f458cb79f9aa31a7d7ab81b,626b377229c10585ec392f89,626b3a433d49090b081d6450,,,,,,,,,,,,,,,,,,,,,,,,,,,,,,,,,,,,,,,,,,,,,,,,,,,,,,,,,,,,,,,,,,,,"Mozilla/5.0 (Windows NT 10.0; Win64; x64) AppleWebKit/537.36 (KHTML, like Gecko) Chrome/101.0.4951.41 Safari/537.36"
