usingWebGL,participant,session,date,expName,psychopyVersion,OS,frameRate,PROLIFIC_PID,STUDY_ID,SESSION_ID,signatures_friend,signatures_foe,band_ranges_top,band_ranges_bottom,formitemText,formtype,formundefined,formitemWidth,formindex,formresponse,formrt,key_resp_2.keys,key_resp_2.rt,tute_resp.keys,tute_resp.rt,tutorial.thisRepN,tutorial.thisTrialN,tutorial.thisN,tutorial.thisIndex,tutorial.ran,key_resp_4.keys,key_resp_4.rt,key_resp.keys,key_resp.corr,key_resp.rt,lines_presented,is_signal_presented,trials.thisRepN,trials.thisTrialN,trials.thisN,trials.thisIndex,trials.ran,vessel,active_band,lines,is_signal,supported_pos,catch_trial,debrief_formindex,debrief_formitemText,debrief_formtype,debrief_formitemWidth,debrief_formresponse,debrief_formrt,phases.thisRepN,phases.thisTrialN,phases.thisN,phases.thisIndex,phases.ran,phases.order,phase,key_resp_3.keys,trustitemText,trusttype,trustitemWidth,trustindex,trustresponse,trustrt,support_status.thisRepN,support_status.thisTrialN,support_status.thisN,support_status.thisIndex,support_status.ran,support_status.order,key_resp_5.keys,key_resp_5.rt,globalClockTime,userAgent
TRUE,5f4878547f5251349215a519,001,2022-04-28_21h45.54.067,classification_task,2021.2.3,MacIntel,59.99880002,5f4878547f5251349215a519,626b377229c10585ec392f8a,626b513c1e43323b6433232f,,,,,,,,,,,,,,,,,,,,,,,,,,,,,,,,,,,,,,,,,,,,,,,,,,,,,,,,,,,,,,,,,,,,
,5f4878547f5251349215a519,001,2022-04-28_21h45.54.067,classification_task,2021.2.3,MacIntel,59.99880002,5f4878547f5251349215a519,626b377229c10585ec392f8a,626b513c1e43323b6433232f,"[[""0.228"",""0.565"",""0.860"",""0.966""],[""0.164"",""0.432"",""0.895"",""0.931""]]","[[""0.127"",""0.271"",""0.500"",""0.766""],[""0.065"",""0.394"",""0.640"",""0.814""]]","[1,10]","[100,1000]",Video game experience,,,0.7,0,,,,,,,,,,,,,,,,,,,,,,,,,,,,,,,,,,,,,,,,,,,,,,,,,,,,,,,,,,,
,5f4878547f5251349215a519,001,2022-04-28_21h45.54.067,classification_task,2021.2.3,MacIntel,59.99880002,5f4878547f5251349215a519,626b377229c10585ec392f8a,626b513c1e43323b6433232f,,,,,Approximately how many hours did you spend playing video games in the last week?,,,0.7,0,10,,,,,,,,,,,,,,,,,,,,,,,,,,,,,,,,,,,,,,,,,,,,,,,,,,,,,,,,,,
,5f4878547f5251349215a519,001,2022-04-28_21h45.54.067,classification_task,2021.2.3,MacIntel,59.99880002,5f4878547f5251349215a519,626b377229c10585ec392f8a,626b513c1e43323b6433232f,,,,,"Which game did you play the most this year? (Enter ""None"" if you didn't play any)",,,0.7,0,need for speed,,,,,,,,,,,,,,,,,,,,,,,,,,,,,,,,,,,,,,,,,,,,,,,,,,,,,,,,,,
,5f4878547f5251349215a519,001,2022-04-28_21h45.54.067,classification_task,2021.2.3,MacIntel,59.99880002,5f4878547f5251349215a519,626b377229c10585ec392f8a,626b513c1e43323b6433232f,,,,,Visual perception,,,0.7,0,,,,,,,,,,,,,,,,,,,,,,,,,,,,,,,,,,,,,,,,,,,,,,,,,,,,,,,,,,,
,5f4878547f5251349215a519,001,2022-04-28_21h45.54.067,classification_task,2021.2.3,MacIntel,59.99880002,5f4878547f5251349215a519,626b377229c10585ec392f8a,626b513c1e43323b6433232f,,,,,Do you have any form of color blindness?,,,0.7,0,No,32.597,,,,,,,,,,,,,,,,,,,,,,,,,,,,,,,,,,,,,,,,,,,,,,,,,,,,,,,,,
,5f4878547f5251349215a519,001,2022-04-28_21h45.54.067,classification_task,2021.2.3,MacIntel,59.99880002,5f4878547f5251349215a519,626b377229c10585ec392f8a,626b513c1e43323b6433232f,,,,,Do you use software to change the colour temperature of your screen (e.g. f.lux)?,,,0.7,0,No,37.1302,,,,,,,,,,,,,,,,,,,,,,,,,,,,,,,,,,,,,,,,,,,,,,,,,,,,,,,,,
,5f4878547f5251349215a519,001,2022-04-28_21h45.54.067,classification_task,2021.2.3,MacIntel,59.99880002,5f4878547f5251349215a519,626b377229c10585ec392f8a,626b513c1e43323b6433232f,,,,,,,,,,,,space,63.2506,space,6.2129,0,0,0,0,1,,,,,,,,,,,,,,,,,,,,,,,,,,,,,,,,,,,,,,,,,,,,,,,,
,5f4878547f5251349215a519,001,2022-04-28_21h45.54.067,classification_task,2021.2.3,MacIntel,59.99880002,5f4878547f5251349215a519,626b377229c10585ec392f8a,626b513c1e43323b6433232f,,,,,,,,,,,,,,space,5.8202,1,0,1,0,1,,,,,,,,,,,,,,,,,,,,,,,,,,,,,,,,,,,,,,,,,,,,,,,,
,5f4878547f5251349215a519,001,2022-04-28_21h45.54.067,classification_task,2021.2.3,MacIntel,59.99880002,5f4878547f5251349215a519,626b377229c10585ec392f8a,626b513c1e43323b6433232f,,,,,,,,,,,,,,space,15.0479,2,0,2,0,1,,,,,,,,,,,,,,,,,,,,,,,,,,,,,,,,,,,,,,,,,,,,,,,,
,5f4878547f5251349215a519,001,2022-04-28_21h45.54.067,classification_task,2021.2.3,MacIntel,59.99880002,5f4878547f5251349215a519,626b377229c10585ec392f8a,626b513c1e43323b6433232f,,,,,,,,,,,,,,space,9.9676,3,0,3,0,1,,,,,,,,,,,,,,,,,,,,,,,,,,,,,,,,,,,,,,,,,,,,,,,,
,5f4878547f5251349215a519,001,2022-04-28_21h45.54.067,classification_task,2021.2.3,MacIntel,59.99880002,5f4878547f5251349215a519,626b377229c10585ec392f8a,626b513c1e43323b6433232f,,,,,,,,,,,,,,space,14.5712,4,0,4,0,1,,,,,,,,,,,,,,,,,,,,,,,,,,,,,,,,,,,,,,,,,,,,,,,,
,5f4878547f5251349215a519,001,2022-04-28_21h45.54.067,classification_task,2021.2.3,MacIntel,59.99880002,5f4878547f5251349215a519,626b377229c10585ec392f8a,626b513c1e43323b6433232f,,,,,,,,,,,,,,,,,,,,,space,23.5512,a,0,4.106,"[""0.065"",""0.691"",""0.640"",""0.814""]","[1,0,1,1]",0,0,0,0,1,1,1,,,0,FALSE,,,,,,,,,,,,,,,,,,,,,,,,,,,,,,
,5f4878547f5251349215a519,001,2022-04-28_21h45.54.067,classification_task,2021.2.3,MacIntel,59.99880002,5f4878547f5251349215a519,626b377229c10585ec392f8a,626b513c1e43323b6433232f,,,,,,,,,,,,,,,,,,,,,,,a,0,1.0931,"[""0.127"",""0.271"",""0.683"",""0.766""]","[1,1,0,1]",0,1,1,1,1,1,0,,,0,FALSE,,,,,,,,,,,,,,,,,,,,,,,,,,,,,,
,5f4878547f5251349215a519,001,2022-04-28_21h45.54.067,classification_task,2021.2.3,MacIntel,59.99880002,5f4878547f5251349215a519,626b377229c10585ec392f8a,626b513c1e43323b6433232f,,,,,,,,,,,,,,,,,,,,,,,a,0,3.9901,"[""0.696"",""0.394"",""0.640"",""0.814""]","[0,1,1,1]",0,2,2,2,1,1,1,,,0,FALSE,,,,,,,,,,,,,,,,,,,,,,,,,,,,,,
,5f4878547f5251349215a519,001,2022-04-28_21h45.54.067,classification_task,2021.2.3,MacIntel,59.99880002,5f4878547f5251349215a519,626b377229c10585ec392f8a,626b513c1e43323b6433232f,,,,,,,,,,,,,,,,,,,,,,,l,0,1.5358,"[""0.600"",""0.565"",""0.860"",""0.966""]","[0,1,1,1]",0,3,3,3,1,0,0,,,0,FALSE,,,,,,,,,,,,,,,,,,,,,,,,,,,,,,
,5f4878547f5251349215a519,001,2022-04-28_21h45.54.067,classification_task,2021.2.3,MacIntel,59.99880002,5f4878547f5251349215a519,626b377229c10585ec392f8a,626b513c1e43323b6433232f,,,,,,,,,,,,,,,,,,,,,,,l,1,6.0368,"[""0.127"",""0.600"",""0.500"",""0.766""]","[1,0,1,1]",0,4,4,4,1,1,0,,,0,FALSE,,,,,,,,,,,,,,,,,,,,,,,,,,,,,,
,5f4878547f5251349215a519,001,2022-04-28_21h45.54.067,classification_task,2021.2.3,MacIntel,59.99880002,5f4878547f5251349215a519,626b377229c10585ec392f8a,626b513c1e43323b6433232f,,,,,,,,,,,,,,,,,,,,,,,a,1,3.6468,"[""0.164"",""0.432"",""0.895"",""0.600""]","[1,1,1,0]",0,5,5,5,1,0,1,,,0,FALSE,,,,,,,,,,,,,,,,,,,,,,,,,,,,,,
,5f4878547f5251349215a519,001,2022-04-28_21h45.54.067,classification_task,2021.2.3,MacIntel,59.99880002,5f4878547f5251349215a519,626b377229c10585ec392f8a,626b513c1e43323b6433232f,,,,,,,,,,,,,,,,,,,,,,,l,0,4.3172,"[""0.164"",""0.432"",""0.315"",""0.931""]","[1,1,0,1]",0,6,6,6,1,0,1,,,0,FALSE,,,,,,,,,,,,,,,,,,,,,,,,,,,,,,
,5f4878547f5251349215a519,001,2022-04-28_21h45.54.067,classification_task,2021.2.3,MacIntel,59.99880002,5f4878547f5251349215a519,626b377229c10585ec392f8a,626b513c1e43323b6433232f,,,,,,,,,,,,,,,,,,,,,,,l,1,6.9546,"[""0.127"",""0.271"",""0.500"",""0.696""]","[1,1,1,0]",0,7,7,7,1,1,0,,,0,FALSE,,,,,,,,,,,,,,,,,,,,,,,,,,,,,,
,5f4878547f5251349215a519,001,2022-04-28_21h45.54.067,classification_task,2021.2.3,MacIntel,59.99880002,5f4878547f5251349215a519,626b377229c10585ec392f8a,626b513c1e43323b6433232f,,,,,,,,,,,,,,,,,,,,,,,a,1,5.021,"[""0.228"",""0.565"",""0.727"",""0.966""]","[1,1,0,1]",0,8,8,8,1,0,0,,,0,FALSE,,,,,,,,,,,,,,,,,,,,,,,,,,,,,,
,5f4878547f5251349215a519,001,2022-04-28_21h45.54.067,classification_task,2021.2.3,MacIntel,59.99880002,5f4878547f5251349215a519,626b377229c10585ec392f8a,626b513c1e43323b6433232f,,,,,,,,,,,,,,,,,,,,,,,l,1,3.622,"[""0.706"",""0.271"",""0.500"",""0.766""]","[0,1,1,1]",0,9,9,9,1,1,0,,,0,FALSE,,,,,,,,,,,,,,,,,,,,,,,,,,,,,,
,5f4878547f5251349215a519,001,2022-04-28_21h45.54.067,classification_task,2021.2.3,MacIntel,59.99880002,5f4878547f5251349215a519,626b377229c10585ec392f8a,626b513c1e43323b6433232f,,,,,,,,,,,,,,,,,,,,,,,a,1,2.1712,"[""0.228"",""0.315"",""0.860"",""0.966""]","[1,0,1,1]",0,10,10,10,1,0,0,,,0,FALSE,,,,,,,,,,,,,,,,,,,,,,,,,,,,,,
,5f4878547f5251349215a519,001,2022-04-28_21h45.54.067,classification_task,2021.2.3,MacIntel,59.99880002,5f4878547f5251349215a519,626b377229c10585ec392f8a,626b513c1e43323b6433232f,,,,,,,,,,,,,,,,,,,,,,,l,1,3.3814,"[""0.065"",""0.394"",""0.640"",""0.697""]","[1,1,1,0]",0,11,11,11,1,1,1,,,0,FALSE,,,,,,,,,,,,,,,,,,,,,,,,,,,,,,
,5f4878547f5251349215a519,001,2022-04-28_21h45.54.067,classification_task,2021.2.3,MacIntel,59.99880002,5f4878547f5251349215a519,626b377229c10585ec392f8a,626b513c1e43323b6433232f,,,,,,,,,,,,,,,,,,,,,,,l,1,3.5513,"[""0.065"",""0.394"",""0.600"",""0.814""]","[1,1,0,1]",0,12,12,12,1,1,1,,,0,FALSE,,,,,,,,,,,,,,,,,,,,,,,,,,,,,,
,5f4878547f5251349215a519,001,2022-04-28_21h45.54.067,classification_task,2021.2.3,MacIntel,59.99880002,5f4878547f5251349215a519,626b377229c10585ec392f8a,626b513c1e43323b6433232f,,,,,,,,,,,,,,,,,,,,,,,a,1,2.3205,"[""0.027"",""0.432"",""0.895"",""0.931""]","[0,1,1,1]",0,13,13,13,1,0,1,,,0,FALSE,,,,,,,,,,,,,,,,,,,,,,,,,,,,,,
,5f4878547f5251349215a519,001,2022-04-28_21h45.54.067,classification_task,2021.2.3,MacIntel,59.99880002,5f4878547f5251349215a519,626b377229c10585ec392f8a,626b513c1e43323b6433232f,,,,,,,,,,,,,,,,,,,,,,,a,1,2.7716,"[""0.164"",""0.696"",""0.895"",""0.931""]","[1,0,1,1]",0,14,14,14,1,0,1,,,0,FALSE,,,,,,,,,,,,,,,,,,,,,,,,,,,,,,
,5f4878547f5251349215a519,001,2022-04-28_21h45.54.067,classification_task,2021.2.3,MacIntel,59.99880002,5f4878547f5251349215a519,626b377229c10585ec392f8a,626b513c1e43323b6433232f,,,,,,,,,,,,,,,,,,,,,,,a,1,3.5754,"[""0.228"",""0.565"",""0.860"",""0.729""]","[1,1,1,0]",0,15,15,15,1,0,0,,,0,FALSE,,,,,,,,,,,,,,,,,,,,,,,,,,,,,,
,5f4878547f5251349215a519,001,2022-04-28_21h45.54.067,classification_task,2021.2.3,MacIntel,59.99880002,5f4878547f5251349215a519,626b377229c10585ec392f8a,626b513c1e43323b6433232f,,,,,,,,,,,,,,,,,,,,,,,a,1,2.7165,"[""0.164"",""0.697"",""0.895"",""0.931""]","[1,0,1,1]",0,16,16,16,1,0,1,,,0,FALSE,,,,,,,,,,,,,,,,,,,,,,,,,,,,,,
,5f4878547f5251349215a519,001,2022-04-28_21h45.54.067,classification_task,2021.2.3,MacIntel,59.99880002,5f4878547f5251349215a519,626b377229c10585ec392f8a,626b513c1e43323b6433232f,,,,,,,,,,,,,,,,,,,,,,,a,1,2.1535,"[""0.683"",""0.565"",""0.860"",""0.966""]","[0,1,1,1]",0,17,17,17,1,0,0,,,0,FALSE,,,,,,,,,,,,,,,,,,,,,,,,,,,,,,
,5f4878547f5251349215a519,001,2022-04-28_21h45.54.067,classification_task,2021.2.3,MacIntel,59.99880002,5f4878547f5251349215a519,626b377229c10585ec392f8a,626b513c1e43323b6433232f,,,,,,,,,,,,,,,,,,,,,,,l,1,2.3975,"[""0.127"",""0.271"",""0.500"",""0.325""]","[1,1,1,0]",0,18,18,18,1,1,0,,,0,FALSE,,,,,,,,,,,,,,,,,,,,,,,,,,,,,,
,5f4878547f5251349215a519,001,2022-04-28_21h45.54.067,classification_task,2021.2.3,MacIntel,59.99880002,5f4878547f5251349215a519,626b377229c10585ec392f8a,626b513c1e43323b6433232f,,,,,,,,,,,,,,,,,,,,,,,l,1,4.1523,"[""0.065"",""0.696"",""0.640"",""0.814""]","[1,0,1,1]",0,19,19,19,1,1,1,,,0,FALSE,,,,,,,,,,,,,,,,,,,,,,,,,,,,,,
,5f4878547f5251349215a519,001,2022-04-28_21h45.54.067,classification_task,2021.2.3,MacIntel,59.99880002,5f4878547f5251349215a519,626b377229c10585ec392f8a,626b513c1e43323b6433232f,,,,,,,,,,,,,,,,,,,,,,,l,1,3.811,"[""0.127"",""0.271"",""0.607"",""0.766""]","[1,1,0,1]",0,20,20,20,1,1,0,,,0,FALSE,,,,,,,,,,,,,,,,,,,,,,,,,,,,,,
,5f4878547f5251349215a519,001,2022-04-28_21h45.54.067,classification_task,2021.2.3,MacIntel,59.99880002,5f4878547f5251349215a519,626b377229c10585ec392f8a,626b513c1e43323b6433232f,,,,,,,,,,,,,,,,,,,,,,,l,1,1.7703,"[""0.127"",""0.315"",""0.500"",""0.766""]","[1,0,1,1]",0,21,21,21,1,1,0,,,0,FALSE,,,,,,,,,,,,,,,,,,,,,,,,,,,,,,
,5f4878547f5251349215a519,001,2022-04-28_21h45.54.067,classification_task,2021.2.3,MacIntel,59.99880002,5f4878547f5251349215a519,626b377229c10585ec392f8a,626b513c1e43323b6433232f,,,,,,,,,,,,,,,,,,,,,,,a,1,1.517,"[""0.228"",""0.565"",""0.325"",""0.966""]","[1,1,0,1]",0,22,22,22,1,0,0,,,0,FALSE,,,,,,,,,,,,,,,,,,,,,,,,,,,,,,
,5f4878547f5251349215a519,001,2022-04-28_21h45.54.067,classification_task,2021.2.3,MacIntel,59.99880002,5f4878547f5251349215a519,626b377229c10585ec392f8a,626b513c1e43323b6433232f,,,,,,,,,,,,,,,,,,,,,,,a,1,2.6612,"[""0.727"",""0.432"",""0.895"",""0.931""]","[0,1,1,1]",0,23,23,23,1,0,1,,,0,FALSE,,,,,,,,,,,,,,,,,,,,,,,,,,,,,,
,5f4878547f5251349215a519,001,2022-04-28_21h45.54.067,classification_task,2021.2.3,MacIntel,59.99880002,5f4878547f5251349215a519,626b377229c10585ec392f8a,626b513c1e43323b6433232f,,,,,,,,,,,,,,,,,,,,,,,a,1,3.185,"[""0.164"",""0.432"",""0.895"",""0.727""]","[1,1,1,0]",0,24,24,24,1,0,1,,,0,FALSE,,,,,,,,,,,,,,,,,,,,,,,,,,,,,,
,5f4878547f5251349215a519,001,2022-04-28_21h45.54.067,classification_task,2021.2.3,MacIntel,59.99880002,5f4878547f5251349215a519,626b377229c10585ec392f8a,626b513c1e43323b6433232f,,,,,,,,,,,,,,,,,,,,,,,a,0,1.8083,"[""0.065"",""0.394"",""0.727"",""0.814""]","[1,1,0,1]",0,25,25,25,1,1,1,,,0,FALSE,,,,,,,,,,,,,,,,,,,,,,,,,,,,,,
,5f4878547f5251349215a519,001,2022-04-28_21h45.54.067,classification_task,2021.2.3,MacIntel,59.99880002,5f4878547f5251349215a519,626b377229c10585ec392f8a,626b513c1e43323b6433232f,,,,,,,,,,,,,,,,,,,,,,,a,1,2.3662,"[""0.228"",""0.565"",""0.860"",""0.696""]","[1,1,1,0]",0,26,26,26,1,0,0,,,0,FALSE,,,,,,,,,,,,,,,,,,,,,,,,,,,,,,
,5f4878547f5251349215a519,001,2022-04-28_21h45.54.067,classification_task,2021.2.3,MacIntel,59.99880002,5f4878547f5251349215a519,626b377229c10585ec392f8a,626b513c1e43323b6433232f,,,,,,,,,,,,,,,,,,,,,,,a,1,2.2186,"[""0.164"",""0.432"",""0.354"",""0.931""]","[1,1,0,1]",0,27,27,27,1,0,1,,,0,FALSE,,,,,,,,,,,,,,,,,,,,,,,,,,,,,,
,5f4878547f5251349215a519,001,2022-04-28_21h45.54.067,classification_task,2021.2.3,MacIntel,59.99880002,5f4878547f5251349215a519,626b377229c10585ec392f8a,626b513c1e43323b6433232f,,,,,,,,,,,,,,,,,,,,,,,a,0,5.5067,"[""0.027"",""0.271"",""0.500"",""0.766""]","[0,1,1,1]",0,28,28,28,1,1,0,,,0,FALSE,,,,,,,,,,,,,,,,,,,,,,,,,,,,,,
,5f4878547f5251349215a519,001,2022-04-28_21h45.54.067,classification_task,2021.2.3,MacIntel,59.99880002,5f4878547f5251349215a519,626b377229c10585ec392f8a,626b513c1e43323b6433232f,,,,,,,,,,,,,,,,,,,,,,,a,1,4.8642,"[""0.228"",""0.727"",""0.860"",""0.966""]","[1,0,1,1]",0,29,29,29,1,0,0,,,0,FALSE,,,,,,,,,,,,,,,,,,,,,,,,,,,,,,
,5f4878547f5251349215a519,001,2022-04-28_21h45.54.067,classification_task,2021.2.3,MacIntel,59.99880002,5f4878547f5251349215a519,626b377229c10585ec392f8a,626b513c1e43323b6433232f,,,,,,,,,,,,,,,,,,,,,,,a,0,3.9782,"[""0.729"",""0.394"",""0.640"",""0.814""]","[0,1,1,1]",0,30,30,30,1,1,1,,,0,FALSE,,,,,,,,,,,,,,,,,,,,,,,,,,,,,,
,5f4878547f5251349215a519,001,2022-04-28_21h45.54.067,classification_task,2021.2.3,MacIntel,59.99880002,5f4878547f5251349215a519,626b377229c10585ec392f8a,626b513c1e43323b6433232f,,,,,,,,,,,,,,,,,,,,,,,l,1,2.8384,"[""0.065"",""0.394"",""0.640"",""0.607""]","[1,1,1,0]",0,31,31,31,1,1,1,,,0,FALSE,,,,,,,,,,,,,,,,,,,,,,,,,,,,,,
,5f4878547f5251349215a519,001,2022-04-28_21h45.54.067,classification_task,2021.2.3,MacIntel,59.99880002,5f4878547f5251349215a519,626b377229c10585ec392f8a,626b513c1e43323b6433232f,,,,,,,,,,,,,,,,,,,,,,,a,0,2.7355,"[""0.127"",""0.271"",""0.600"",""0.766""]","[1,1,0,1]",0,32,32,32,1,1,0,,,0,FALSE,,,,,,,,,,,,,,,,,,,,,,,,,,,,,,
,5f4878547f5251349215a519,001,2022-04-28_21h45.54.067,classification_task,2021.2.3,MacIntel,59.99880002,5f4878547f5251349215a519,626b377229c10585ec392f8a,626b513c1e43323b6433232f,,,,,,,,,,,,,,,,,,,,,,,a,0,6.2057,"[""0.706"",""0.271"",""0.500"",""0.766""]","[0,1,1,1]",0,33,33,33,1,1,0,,,0,FALSE,,,,,,,,,,,,,,,,,,,,,,,,,,,,,,
,5f4878547f5251349215a519,001,2022-04-28_21h45.54.067,classification_task,2021.2.3,MacIntel,59.99880002,5f4878547f5251349215a519,626b377229c10585ec392f8a,626b513c1e43323b6433232f,,,,,,,,,,,,,,,,,,,,,,,a,1,1.0334,"[""0.228"",""0.315"",""0.860"",""0.966""]","[1,0,1,1]",0,34,34,34,1,0,0,,,0,FALSE,,,,,,,,,,,,,,,,,,,,,,,,,,,,,,
,5f4878547f5251349215a519,001,2022-04-28_21h45.54.067,classification_task,2021.2.3,MacIntel,59.99880002,5f4878547f5251349215a519,626b377229c10585ec392f8a,626b513c1e43323b6433232f,,,,,,,,,,,,,,,,,,,,,,,l,1,2.3504,"[""0.065"",""0.305"",""0.640"",""0.814""]","[1,0,1,1]",0,35,35,35,1,1,1,,,0,FALSE,,,,,,,,,,,,,,,,,,,,,,,,,,,,,,
,5f4878547f5251349215a519,001,2022-04-28_21h45.54.067,classification_task,2021.2.3,MacIntel,59.99880002,5f4878547f5251349215a519,626b377229c10585ec392f8a,626b513c1e43323b6433232f,,,,,,,,,,,,,,,,,,,,,,,a,1,2.371,"[""0.164"",""0.432"",""0.697"",""0.931""]","[1,1,0,1]",0,36,36,36,1,0,1,,,0,FALSE,,,,,,,,,,,,,,,,,,,,,,,,,,,,,,
,5f4878547f5251349215a519,001,2022-04-28_21h45.54.067,classification_task,2021.2.3,MacIntel,59.99880002,5f4878547f5251349215a519,626b377229c10585ec392f8a,626b513c1e43323b6433232f,,,,,,,,,,,,,,,,,,,,,,,l,0,1.2366,"[""0.027"",""0.565"",""0.860"",""0.966""]","[0,1,1,1]",0,37,37,37,1,0,0,,,0,FALSE,,,,,,,,,,,,,,,,,,,,,,,,,,,,,,
,5f4878547f5251349215a519,001,2022-04-28_21h45.54.067,classification_task,2021.2.3,MacIntel,59.99880002,5f4878547f5251349215a519,626b377229c10585ec392f8a,626b513c1e43323b6433232f,,,,,,,,,,,,,,,,,,,,,,,a,1,1.1173,"[""0.228"",""0.565"",""0.860"",""0.325""]","[1,1,1,0]",0,38,38,38,1,0,0,,,0,FALSE,,,,,,,,,,,,,,,,,,,,,,,,,,,,,,
,5f4878547f5251349215a519,001,2022-04-28_21h45.54.067,classification_task,2021.2.3,MacIntel,59.99880002,5f4878547f5251349215a519,626b377229c10585ec392f8a,626b513c1e43323b6433232f,,,,,,,,,,,,,,,,,,,,,,,a,0,1.5845,"[""0.065"",""0.394"",""0.697"",""0.814""]","[1,1,0,1]",0,39,39,39,1,1,1,,,0,FALSE,,,,,,,,,,,,,,,,,,,,,,,,,,,,,,
,5f4878547f5251349215a519,001,2022-04-28_21h45.54.067,classification_task,2021.2.3,MacIntel,59.99880002,5f4878547f5251349215a519,626b377229c10585ec392f8a,626b513c1e43323b6433232f,,,,,,,,,,,,,,,,,,,,,,,a,1,3.9193,"[""0.164"",""0.432"",""0.895"",""0.027""]","[1,1,1,0]",0,40,40,40,1,0,1,,,0,FALSE,,,,,,,,,,,,,,,,,,,,,,,,,,,,,,
,5f4878547f5251349215a519,001,2022-04-28_21h45.54.067,classification_task,2021.2.3,MacIntel,59.99880002,5f4878547f5251349215a519,626b377229c10585ec392f8a,626b513c1e43323b6433232f,,,,,,,,,,,,,,,,,,,,,,,l,0,3.5736,"[""0.696"",""0.432"",""0.895"",""0.931""]","[0,1,1,1]",0,41,41,41,1,0,1,,,0,FALSE,,,,,,,,,,,,,,,,,,,,,,,,,,,,,,
,5f4878547f5251349215a519,001,2022-04-28_21h45.54.067,classification_task,2021.2.3,MacIntel,59.99880002,5f4878547f5251349215a519,626b377229c10585ec392f8a,626b513c1e43323b6433232f,,,,,,,,,,,,,,,,,,,,,,,l,0,2.9818,"[""0.164"",""0.724"",""0.895"",""0.931""]","[1,0,1,1]",0,42,42,42,1,0,1,,,0,FALSE,,,,,,,,,,,,,,,,,,,,,,,,,,,,,,
,5f4878547f5251349215a519,001,2022-04-28_21h45.54.067,classification_task,2021.2.3,MacIntel,59.99880002,5f4878547f5251349215a519,626b377229c10585ec392f8a,626b513c1e43323b6433232f,,,,,,,,,,,,,,,,,,,,,,,l,1,1.7208,"[""0.127"",""0.271"",""0.500"",""0.729""]","[1,1,1,0]",0,43,43,43,1,1,0,,,0,FALSE,,,,,,,,,,,,,,,,,,,,,,,,,,,,,,
,5f4878547f5251349215a519,001,2022-04-28_21h45.54.067,classification_task,2021.2.3,MacIntel,59.99880002,5f4878547f5251349215a519,626b377229c10585ec392f8a,626b513c1e43323b6433232f,,,,,,,,,,,,,,,,,,,,,,,a,0,1.4324,"[""0.065"",""0.394"",""0.640"",""0.607""]","[1,1,1,0]",0,44,44,44,1,1,1,,,0,FALSE,,,,,,,,,,,,,,,,,,,,,,,,,,,,,,
,5f4878547f5251349215a519,001,2022-04-28_21h45.54.067,classification_task,2021.2.3,MacIntel,59.99880002,5f4878547f5251349215a519,626b377229c10585ec392f8a,626b513c1e43323b6433232f,,,,,,,,,,,,,,,,,,,,,,,a,0,4.3025,"[""0.127"",""0.691"",""0.500"",""0.766""]","[1,0,1,1]",0,45,45,45,1,1,0,,,0,FALSE,,,,,,,,,,,,,,,,,,,,,,,,,,,,,,
,5f4878547f5251349215a519,001,2022-04-28_21h45.54.067,classification_task,2021.2.3,MacIntel,59.99880002,5f4878547f5251349215a519,626b377229c10585ec392f8a,626b513c1e43323b6433232f,,,,,,,,,,,,,,,,,,,,,,,a,1,1.071,"[""0.228"",""0.565"",""0.600"",""0.966""]","[1,1,0,1]",0,46,46,46,1,0,0,,,0,FALSE,,,,,,,,,,,,,,,,,,,,,,,,,,,,,,
,5f4878547f5251349215a519,001,2022-04-28_21h45.54.067,classification_task,2021.2.3,MacIntel,59.99880002,5f4878547f5251349215a519,626b377229c10585ec392f8a,626b513c1e43323b6433232f,,,,,,,,,,,,,,,,,,,,,,,a,0,3.7836,"[""0.729"",""0.394"",""0.640"",""0.814""]","[0,1,1,1]",0,47,47,47,1,1,1,,,0,FALSE,,,,,,,,,,,,,,,,,,,,,,,,,,,,,,
,5f4878547f5251349215a519,001,2022-04-28_21h45.54.067,classification_task,2021.2.3,MacIntel,59.99880002,5f4878547f5251349215a519,626b377229c10585ec392f8a,626b513c1e43323b6433232f,,,,,,,,,,,,,,,,,,,,,,,a,0,2.3187,"[""0.729"",""0.271"",""0.500"",""0.766""]","[0,1,1,1]",0,48,48,48,1,1,0,,,0,FALSE,,,,,,,,,,,,,,,,,,,,,,,,,,,,,,
,5f4878547f5251349215a519,001,2022-04-28_21h45.54.067,classification_task,2021.2.3,MacIntel,59.99880002,5f4878547f5251349215a519,626b377229c10585ec392f8a,626b513c1e43323b6433232f,,,,,,,,,,,,,,,,,,,,,,,a,1,0.5831,"[""0.164"",""0.432"",""0.704"",""0.931""]","[1,1,0,1]",0,49,49,49,1,0,1,,,0,FALSE,,,,,,,,,,,,,,,,,,,,,,,,,,,,,,
,5f4878547f5251349215a519,001,2022-04-28_21h45.54.067,classification_task,2021.2.3,MacIntel,59.99880002,5f4878547f5251349215a519,626b377229c10585ec392f8a,626b513c1e43323b6433232f,,,,,,,,,,,,,,,,,,,,,,,l,1,1.3847,"[""0.127"",""0.271"",""0.500"",""0.706""]","[1,1,1,0]",0,50,50,50,1,1,0,,,0,FALSE,,,,,,,,,,,,,,,,,,,,,,,,,,,,,,
,5f4878547f5251349215a519,001,2022-04-28_21h45.54.067,classification_task,2021.2.3,MacIntel,59.99880002,5f4878547f5251349215a519,626b377229c10585ec392f8a,626b513c1e43323b6433232f,,,,,,,,,,,,,,,,,,,,,,,l,1,0.967,"[""0.683"",""0.394"",""0.640"",""0.814""]","[0,1,1,1]",0,51,51,51,1,1,1,,,0,FALSE,,,,,,,,,,,,,,,,,,,,,,,,,,,,,,
,5f4878547f5251349215a519,001,2022-04-28_21h45.54.067,classification_task,2021.2.3,MacIntel,59.99880002,5f4878547f5251349215a519,626b377229c10585ec392f8a,626b513c1e43323b6433232f,,,,,,,,,,,,,,,,,,,,,,,l,0,0.9181,"[""0.228"",""0.724"",""0.860"",""0.966""]","[1,0,1,1]",0,52,52,52,1,0,0,,,0,FALSE,,,,,,,,,,,,,,,,,,,,,,,,,,,,,,
,5f4878547f5251349215a519,001,2022-04-28_21h45.54.067,classification_task,2021.2.3,MacIntel,59.99880002,5f4878547f5251349215a519,626b377229c10585ec392f8a,626b513c1e43323b6433232f,,,,,,,,,,,,,,,,,,,,,,,a,1,2.052,"[""0.164"",""0.432"",""0.895"",""0.691""]","[1,1,1,0]",0,53,53,53,1,0,1,,,0,FALSE,,,,,,,,,,,,,,,,,,,,,,,,,,,,,,
,5f4878547f5251349215a519,001,2022-04-28_21h45.54.067,classification_task,2021.2.3,MacIntel,59.99880002,5f4878547f5251349215a519,626b377229c10585ec392f8a,626b513c1e43323b6433232f,,,,,,,,,,,,,,,,,,,,,,,l,0,3.9903,"[""0.164"",""0.600"",""0.895"",""0.931""]","[1,0,1,1]",0,54,54,54,1,0,1,,,0,FALSE,,,,,,,,,,,,,,,,,,,,,,,,,,,,,,
,5f4878547f5251349215a519,001,2022-04-28_21h45.54.067,classification_task,2021.2.3,MacIntel,59.99880002,5f4878547f5251349215a519,626b377229c10585ec392f8a,626b513c1e43323b6433232f,,,,,,,,,,,,,,,,,,,,,,,a,0,1.0042,"[""0.065"",""0.683"",""0.640"",""0.814""]","[1,0,1,1]",0,55,55,55,1,1,1,,,0,FALSE,,,,,,,,,,,,,,,,,,,,,,,,,,,,,,
,5f4878547f5251349215a519,001,2022-04-28_21h45.54.067,classification_task,2021.2.3,MacIntel,59.99880002,5f4878547f5251349215a519,626b377229c10585ec392f8a,626b513c1e43323b6433232f,,,,,,,,,,,,,,,,,,,,,,,a,1,0.9174,"[""0.228"",""0.565"",""0.860"",""0.027""]","[1,1,1,0]",0,56,56,56,1,0,0,,,0,FALSE,,,,,,,,,,,,,,,,,,,,,,,,,,,,,,
,5f4878547f5251349215a519,001,2022-04-28_21h45.54.067,classification_task,2021.2.3,MacIntel,59.99880002,5f4878547f5251349215a519,626b377229c10585ec392f8a,626b513c1e43323b6433232f,,,,,,,,,,,,,,,,,,,,,,,a,1,0.9169,"[""0.305"",""0.565"",""0.860"",""0.966""]","[0,1,1,1]",0,57,57,57,1,0,0,,,0,FALSE,,,,,,,,,,,,,,,,,,,,,,,,,,,,,,
,5f4878547f5251349215a519,001,2022-04-28_21h45.54.067,classification_task,2021.2.3,MacIntel,59.99880002,5f4878547f5251349215a519,626b377229c10585ec392f8a,626b513c1e43323b6433232f,,,,,,,,,,,,,,,,,,,,,,,l,1,1.8189,"[""0.127"",""0.305"",""0.500"",""0.766""]","[1,0,1,1]",0,58,58,58,1,1,0,,,0,FALSE,,,,,,,,,,,,,,,,,,,,,,,,,,,,,,
,5f4878547f5251349215a519,001,2022-04-28_21h45.54.067,classification_task,2021.2.3,MacIntel,59.99880002,5f4878547f5251349215a519,626b377229c10585ec392f8a,626b513c1e43323b6433232f,,,,,,,,,,,,,,,,,,,,,,,l,0,1.455,"[""0.315"",""0.432"",""0.895"",""0.931""]","[0,1,1,1]",0,59,59,59,1,0,1,,,0,FALSE,,,,,,,,,,,,,,,,,,,,,,,,,,,,,,
,5f4878547f5251349215a519,001,2022-04-28_21h45.54.067,classification_task,2021.2.3,MacIntel,59.99880002,5f4878547f5251349215a519,626b377229c10585ec392f8a,626b513c1e43323b6433232f,,,,,,,,,,,,,,,,,,,,,,,l,1,1.5447,"[""0.127"",""0.271"",""0.305"",""0.766""]","[1,1,0,1]",0,60,60,60,1,1,0,,,0,FALSE,,,,,,,,,,,,,,,,,,,,,,,,,,,,,,
,5f4878547f5251349215a519,001,2022-04-28_21h45.54.067,classification_task,2021.2.3,MacIntel,59.99880002,5f4878547f5251349215a519,626b377229c10585ec392f8a,626b513c1e43323b6433232f,,,,,,,,,,,,,,,,,,,,,,,a,0,1.6324,"[""0.065"",""0.394"",""0.640"",""0.724""]","[1,1,1,0]",0,61,61,61,1,1,1,,,0,FALSE,,,,,,,,,,,,,,,,,,,,,,,,,,,,,,
,5f4878547f5251349215a519,001,2022-04-28_21h45.54.067,classification_task,2021.2.3,MacIntel,59.99880002,5f4878547f5251349215a519,626b377229c10585ec392f8a,626b513c1e43323b6433232f,,,,,,,,,,,,,,,,,,,,,,,a,0,3.0535,"[""0.065"",""0.394"",""0.027"",""0.814""]","[1,1,0,1]",0,62,62,62,1,1,1,,,0,FALSE,,,,,,,,,,,,,,,,,,,,,,,,,,,,,,
,5f4878547f5251349215a519,001,2022-04-28_21h45.54.067,classification_task,2021.2.3,MacIntel,59.99880002,5f4878547f5251349215a519,626b377229c10585ec392f8a,626b513c1e43323b6433232f,,,,,,,,,,,,,,,,,,,,,,,a,1,0.9857,"[""0.228"",""0.565"",""0.607"",""0.966""]","[1,1,0,1]",0,63,63,63,1,0,0,,,0,FALSE,,,,,,,,,,,,,,,,,,,,,,,,,,,,,,
,5f4878547f5251349215a519,001,2022-04-28_21h45.54.067,classification_task,2021.2.3,MacIntel,59.99880002,5f4878547f5251349215a519,626b377229c10585ec392f8a,626b513c1e43323b6433232f,,,,,,,,,,,,,,,,,,,,,,,,,,,,,,,,,,,,,,,0, ,,0,2.112452234,467.6063,0,0,0,0,1,2,1,,,,,,,,,,,,,,,,,
,5f4878547f5251349215a519,001,2022-04-28_21h45.54.067,classification_task,2021.2.3,MacIntel,59.99880002,5f4878547f5251349215a519,626b377229c10585ec392f8a,626b513c1e43323b6433232f,,,,,,,,,,,,,,,,,,,,,,,,,,,,,,,,,,,,,,,1,  ,,0,10,446.004,0,0,0,0,1,2,1,,,,,,,,,,,,,,,,,
,5f4878547f5251349215a519,001,2022-04-28_21h45.54.067,classification_task,2021.2.3,MacIntel,59.99880002,5f4878547f5251349215a519,626b377229c10585ec392f8a,626b513c1e43323b6433232f,,,,,,,,,,,,,,,,,,,,,,,,,,,,,,,,,,,,,,,2,  ,,0,6.544587743,455.0662,0,0,0,0,1,2,1,,,,,,,,,,,,,,,,,
,5f4878547f5251349215a519,001,2022-04-28_21h45.54.067,classification_task,2021.2.3,MacIntel,59.99880002,5f4878547f5251349215a519,626b377229c10585ec392f8a,626b513c1e43323b6433232f,,,,,,,,,,,,,,,,,,,,,,,,,,,,,,,,,,,,,,,,,,,,,0,0,0,0,1,,1,,,,,,,,,,,,,,,,,
,5f4878547f5251349215a519,001,2022-04-28_21h45.54.067,classification_task,2021.2.3,MacIntel,59.99880002,5f4878547f5251349215a519,626b377229c10585ec392f8a,626b513c1e43323b6433232f,,,,,,,,,,,,,,,,,,,,,space,14.7595,a,1,4.7449,"[""0.164"",""0.432"",""0.895"",""0.325""]","[1,1,1,0]",0,0,0,0,1,0,1,,,0,FALSE,,,,,,,,,,,,,,,,,,,,,,,,,,,,,,
,5f4878547f5251349215a519,001,2022-04-28_21h45.54.067,classification_task,2021.2.3,MacIntel,59.99880002,5f4878547f5251349215a519,626b377229c10585ec392f8a,626b513c1e43323b6433232f,,,,,,,,,,,,,,,,,,,,,,,l,0,2.9016,"[""0.164"",""0.607"",""0.895"",""0.931""]","[1,0,1,1]",0,1,1,1,1,0,1,,,0,FALSE,,,,,,,,,,,,,,,,,,,,,,,,,,,,,,
,5f4878547f5251349215a519,001,2022-04-28_21h45.54.067,classification_task,2021.2.3,MacIntel,59.99880002,5f4878547f5251349215a519,626b377229c10585ec392f8a,626b513c1e43323b6433232f,,,,,,,,,,,,,,,,,,,,,,,l,1,3.401,"[""0.600"",""0.271"",""0.500"",""0.766""]","[0,1,1,1]",0,2,2,2,1,1,0,,,0,FALSE,,,,,,,,,,,,,,,,,,,,,,,,,,,,,,
,5f4878547f5251349215a519,001,2022-04-28_21h45.54.067,classification_task,2021.2.3,MacIntel,59.99880002,5f4878547f5251349215a519,626b377229c10585ec392f8a,626b513c1e43323b6433232f,,,,,,,,,,,,,,,,,,,,,,,l,0,0.9687,"[""0.228"",""0.565"",""0.860"",""0.027""]","[1,1,1,0]",0,3,3,3,1,0,0,,,0,FALSE,,,,,,,,,,,,,,,,,,,,,,,,,,,,,,
,5f4878547f5251349215a519,001,2022-04-28_21h45.54.067,classification_task,2021.2.3,MacIntel,59.99880002,5f4878547f5251349215a519,626b377229c10585ec392f8a,626b513c1e43323b6433232f,,,,,,,,,,,,,,,,,,,,,,,a,0,1.1259,"[""0.065"",""0.607"",""0.640"",""0.814""]","[1,0,1,1]",0,4,4,4,1,1,1,,,0,FALSE,,,,,,,,,,,,,,,,,,,,,,,,,,,,,,
,5f4878547f5251349215a519,001,2022-04-28_21h45.54.067,classification_task,2021.2.3,MacIntel,59.99880002,5f4878547f5251349215a519,626b377229c10585ec392f8a,626b513c1e43323b6433232f,,,,,,,,,,,,,,,,,,,,,,,a,1,1.3662,"[""0.704"",""0.432"",""0.895"",""0.931""]","[0,1,1,1]",0,5,5,5,1,0,1,,,0,FALSE,,,,,,,,,,,,,,,,,,,,,,,,,,,,,,
,5f4878547f5251349215a519,001,2022-04-28_21h45.54.067,classification_task,2021.2.3,MacIntel,59.99880002,5f4878547f5251349215a519,626b377229c10585ec392f8a,626b513c1e43323b6433232f,,,,,,,,,,,,,,,,,,,,,,,l,1,0.7123,"[""0.127"",""0.271"",""0.500"",""0.315""]","[1,1,1,0]",0,6,6,6,1,1,0,,,0,FALSE,,,,,,,,,,,,,,,,,,,,,,,,,,,,,,
,5f4878547f5251349215a519,001,2022-04-28_21h45.54.067,classification_task,2021.2.3,MacIntel,59.99880002,5f4878547f5251349215a519,626b377229c10585ec392f8a,626b513c1e43323b6433232f,,,,,,,,,,,,,,,,,,,,,,,l,0,0.6638,"[""0.027"",""0.565"",""0.860"",""0.966""]","[0,1,1,1]",0,7,7,7,1,0,0,,,0,FALSE,,,,,,,,,,,,,,,,,,,,,,,,,,,,,,
,5f4878547f5251349215a519,001,2022-04-28_21h45.54.067,classification_task,2021.2.3,MacIntel,59.99880002,5f4878547f5251349215a519,626b377229c10585ec392f8a,626b513c1e43323b6433232f,,,,,,,,,,,,,,,,,,,,,,,a,0,2.0608,"[""0.065"",""0.394"",""0.640"",""0.305""]","[1,1,1,0]",0,8,8,8,1,1,1,,,0,FALSE,,,,,,,,,,,,,,,,,,,,,,,,,,,,,,
,5f4878547f5251349215a519,001,2022-04-28_21h45.54.067,classification_task,2021.2.3,MacIntel,59.99880002,5f4878547f5251349215a519,626b377229c10585ec392f8a,626b513c1e43323b6433232f,,,,,,,,,,,,,,,,,,,,,,,a,0,2.1238,"[""0.127"",""0.271"",""0.727"",""0.766""]","[1,1,0,1]",0,9,9,9,1,1,0,,,0,FALSE,,,,,,,,,,,,,,,,,,,,,,,,,,,,,,
,5f4878547f5251349215a519,001,2022-04-28_21h45.54.067,classification_task,2021.2.3,MacIntel,59.99880002,5f4878547f5251349215a519,626b377229c10585ec392f8a,626b513c1e43323b6433232f,,,,,,,,,,,,,,,,,,,,,,,l,1,0.7726,"[""0.127"",""0.315"",""0.500"",""0.766""]","[1,0,1,1]",0,10,10,10,1,1,0,,,0,FALSE,,,,,,,,,,,,,,,,,,,,,,,,,,,,,,
,5f4878547f5251349215a519,001,2022-04-28_21h45.54.067,classification_task,2021.2.3,MacIntel,59.99880002,5f4878547f5251349215a519,626b377229c10585ec392f8a,626b513c1e43323b6433232f,,,,,,,,,,,,,,,,,,,,,,,a,0,1.6079,"[""0.729"",""0.394"",""0.640"",""0.814""]","[0,1,1,1]",0,11,11,11,1,1,1,,,0,FALSE,,,,,,,,,,,,,,,,,,,,,,,,,,,,,,
,5f4878547f5251349215a519,001,2022-04-28_21h45.54.067,classification_task,2021.2.3,MacIntel,59.99880002,5f4878547f5251349215a519,626b377229c10585ec392f8a,626b513c1e43323b6433232f,,,,,,,,,,,,,,,,,,,,,,,l,0,6.9777,"[""0.228"",""0.727"",""0.860"",""0.966""]","[1,0,1,1]",0,12,12,12,1,0,0,,,0,FALSE,,,,,,,,,,,,,,,,,,,,,,,,,,,,,,
,5f4878547f5251349215a519,001,2022-04-28_21h45.54.067,classification_task,2021.2.3,MacIntel,59.99880002,5f4878547f5251349215a519,626b377229c10585ec392f8a,626b513c1e43323b6433232f,,,,,,,,,,,,,,,,,,,,,,,a,0,3.9489,"[""0.065"",""0.394"",""0.696"",""0.814""]","[1,1,0,1]",0,13,13,13,1,1,1,,,0,FALSE,,,,,,,,,,,,,,,,,,,,,,,,,,,,,,
,5f4878547f5251349215a519,001,2022-04-28_21h45.54.067,classification_task,2021.2.3,MacIntel,59.99880002,5f4878547f5251349215a519,626b377229c10585ec392f8a,626b513c1e43323b6433232f,,,,,,,,,,,,,,,,,,,,,,,a,1,1.2374,"[""0.164"",""0.432"",""0.697"",""0.931""]","[1,1,0,1]",0,14,14,14,1,0,1,,,0,FALSE,,,,,,,,,,,,,,,,,,,,,,,,,,,,,,
,5f4878547f5251349215a519,001,2022-04-28_21h45.54.067,classification_task,2021.2.3,MacIntel,59.99880002,5f4878547f5251349215a519,626b377229c10585ec392f8a,626b513c1e43323b6433232f,,,,,,,,,,,,,,,,,,,,,,,a,1,2.3253,"[""0.228"",""0.565"",""0.325"",""0.966""]","[1,1,0,1]",0,15,15,15,1,0,0,,,0,FALSE,,,,,,,,,,,,,,,,,,,,,,,,,,,,,,
,5f4878547f5251349215a519,001,2022-04-28_21h45.54.067,classification_task,2021.2.3,MacIntel,59.99880002,5f4878547f5251349215a519,626b377229c10585ec392f8a,626b513c1e43323b6433232f,,,,,,,,,,,,,,,,,,,,,,,l,1,0.9024,"[""0.127"",""0.271"",""0.696"",""0.766""]","[1,1,0,1]",0,16,16,16,1,1,0,,,0,FALSE,,,,,,,,,,,,,,,,,,,,,,,,,,,,,,
,5f4878547f5251349215a519,001,2022-04-28_21h45.54.067,classification_task,2021.2.3,MacIntel,59.99880002,5f4878547f5251349215a519,626b377229c10585ec392f8a,626b513c1e43323b6433232f,,,,,,,,,,,,,,,,,,,,,,,a,1,2.5045,"[""0.729"",""0.432"",""0.895"",""0.931""]","[0,1,1,1]",0,17,17,17,1,0,1,,,0,FALSE,,,,,,,,,,,,,,,,,,,,,,,,,,,,,,
,5f4878547f5251349215a519,001,2022-04-28_21h45.54.067,classification_task,2021.2.3,MacIntel,59.99880002,5f4878547f5251349215a519,626b377229c10585ec392f8a,626b513c1e43323b6433232f,,,,,,,,,,,,,,,,,,,,,,,l,1,1.4676,"[""0.729"",""0.394"",""0.640"",""0.814""]","[0,1,1,1]",0,18,18,18,1,1,1,,,0,FALSE,,,,,,,,,,,,,,,,,,,,,,,,,,,,,,
,5f4878547f5251349215a519,001,2022-04-28_21h45.54.067,classification_task,2021.2.3,MacIntel,59.99880002,5f4878547f5251349215a519,626b377229c10585ec392f8a,626b513c1e43323b6433232f,,,,,,,,,,,,,,,,,,,,,,,a,1,1.4007,"[""0.164"",""0.691"",""0.895"",""0.931""]","[1,0,1,1]",0,19,19,19,1,0,1,,,0,FALSE,,,,,,,,,,,,,,,,,,,,,,,,,,,,,,
,5f4878547f5251349215a519,001,2022-04-28_21h45.54.067,classification_task,2021.2.3,MacIntel,59.99880002,5f4878547f5251349215a519,626b377229c10585ec392f8a,626b513c1e43323b6433232f,,,,,,,,,,,,,,,,,,,,,,,l,1,1.2291,"[""0.065"",""0.607"",""0.640"",""0.814""]","[1,0,1,1]",0,20,20,20,1,1,1,,,0,FALSE,,,,,,,,,,,,,,,,,,,,,,,,,,,,,,
,5f4878547f5251349215a519,001,2022-04-28_21h45.54.067,classification_task,2021.2.3,MacIntel,59.99880002,5f4878547f5251349215a519,626b377229c10585ec392f8a,626b513c1e43323b6433232f,,,,,,,,,,,,,,,,,,,,,,,a,1,1.4447,"[""0.325"",""0.565"",""0.860"",""0.966""]","[0,1,1,1]",0,21,21,21,1,0,0,,,0,FALSE,,,,,,,,,,,,,,,,,,,,,,,,,,,,,,
,5f4878547f5251349215a519,001,2022-04-28_21h45.54.067,classification_task,2021.2.3,MacIntel,59.99880002,5f4878547f5251349215a519,626b377229c10585ec392f8a,626b513c1e43323b6433232f,,,,,,,,,,,,,,,,,,,,,,,a,1,0.6234,"[""0.228"",""0.565"",""0.860"",""0.729""]","[1,1,1,0]",0,22,22,22,1,0,0,,,0,FALSE,,,,,,,,,,,,,,,,,,,,,,,,,,,,,,
,5f4878547f5251349215a519,001,2022-04-28_21h45.54.067,classification_task,2021.2.3,MacIntel,59.99880002,5f4878547f5251349215a519,626b377229c10585ec392f8a,626b513c1e43323b6433232f,,,,,,,,,,,,,,,,,,,,,,,a,1,0.5479,"[""0.228"",""0.697"",""0.860"",""0.966""]","[1,0,1,1]",0,23,23,23,1,0,0,,,0,FALSE,,,,,,,,,,,,,,,,,,,,,,,,,,,,,,
,5f4878547f5251349215a519,001,2022-04-28_21h45.54.067,classification_task,2021.2.3,MacIntel,59.99880002,5f4878547f5251349215a519,626b377229c10585ec392f8a,626b513c1e43323b6433232f,,,,,,,,,,,,,,,,,,,,,,,l,1,0.5797,"[""0.727"",""0.271"",""0.500"",""0.766""]","[0,1,1,1]",0,24,24,24,1,1,0,,,0,FALSE,,,,,,,,,,,,,,,,,,,,,,,,,,,,,,
,5f4878547f5251349215a519,001,2022-04-28_21h45.54.067,classification_task,2021.2.3,MacIntel,59.99880002,5f4878547f5251349215a519,626b377229c10585ec392f8a,626b513c1e43323b6433232f,,,,,,,,,,,,,,,,,,,,,,,l,1,0.6313,"[""0.127"",""0.271"",""0.500"",""0.315""]","[1,1,1,0]",0,25,25,25,1,1,0,,,0,FALSE,,,,,,,,,,,,,,,,,,,,,,,,,,,,,,
,5f4878547f5251349215a519,001,2022-04-28_21h45.54.067,classification_task,2021.2.3,MacIntel,59.99880002,5f4878547f5251349215a519,626b377229c10585ec392f8a,626b513c1e43323b6433232f,,,,,,,,,,,,,,,,,,,,,,,l,1,0.5985,"[""0.127"",""0.724"",""0.500"",""0.766""]","[1,0,1,1]",0,26,26,26,1,1,0,,,0,FALSE,,,,,,,,,,,,,,,,,,,,,,,,,,,,,,
,5f4878547f5251349215a519,001,2022-04-28_21h45.54.067,classification_task,2021.2.3,MacIntel,59.99880002,5f4878547f5251349215a519,626b377229c10585ec392f8a,626b513c1e43323b6433232f,,,,,,,,,,,,,,,,,,,,,,,a,1,1.1346,"[""0.164"",""0.432"",""0.895"",""0.704""]","[1,1,1,0]",0,27,27,27,1,0,1,,,0,FALSE,,,,,,,,,,,,,,,,,,,,,,,,,,,,,,
,5f4878547f5251349215a519,001,2022-04-28_21h45.54.067,classification_task,2021.2.3,MacIntel,59.99880002,5f4878547f5251349215a519,626b377229c10585ec392f8a,626b513c1e43323b6433232f,,,,,,,,,,,,,,,,,,,,,,,l,0,1.3486,"[""0.164"",""0.432"",""0.607"",""0.931""]","[1,1,0,1]",0,28,28,28,1,0,1,,,0,FALSE,,,,,,,,,,,,,,,,,,,,,,,,,,,,,,
,5f4878547f5251349215a519,001,2022-04-28_21h45.54.067,classification_task,2021.2.3,MacIntel,59.99880002,5f4878547f5251349215a519,626b377229c10585ec392f8a,626b513c1e43323b6433232f,,,,,,,,,,,,,,,,,,,,,,,l,1,1.1494,"[""0.065"",""0.394"",""0.325"",""0.814""]","[1,1,0,1]",0,29,29,29,1,1,1,,,0,FALSE,,,,,,,,,,,,,,,,,,,,,,,,,,,,,,
,5f4878547f5251349215a519,001,2022-04-28_21h45.54.067,classification_task,2021.2.3,MacIntel,59.99880002,5f4878547f5251349215a519,626b377229c10585ec392f8a,626b513c1e43323b6433232f,,,,,,,,,,,,,,,,,,,,,,,a,1,0.7766,"[""0.228"",""0.565"",""0.727"",""0.966""]","[1,1,0,1]",0,30,30,30,1,0,0,,,0,FALSE,,,,,,,,,,,,,,,,,,,,,,,,,,,,,,
,5f4878547f5251349215a519,001,2022-04-28_21h45.54.067,classification_task,2021.2.3,MacIntel,59.99880002,5f4878547f5251349215a519,626b377229c10585ec392f8a,626b513c1e43323b6433232f,,,,,,,,,,,,,,,,,,,,,,,a,0,1.7271,"[""0.065"",""0.394"",""0.640"",""0.027""]","[1,1,1,0]",0,31,31,31,1,1,1,,,0,FALSE,,,,,,,,,,,,,,,,,,,,,,,,,,,,,,
,5f4878547f5251349215a519,001,2022-04-28_21h45.54.067,classification_task,2021.2.3,MacIntel,59.99880002,5f4878547f5251349215a519,626b377229c10585ec392f8a,626b513c1e43323b6433232f,,,,,,,,,,,,,,,,,,,,,,,a,1,0.7502,"[""0.683"",""0.565"",""0.860"",""0.966""]","[0,1,1,1]",0,32,32,32,1,0,0,,,0,FALSE,,,,,,,,,,,,,,,,,,,,,,,,,,,,,,
,5f4878547f5251349215a519,001,2022-04-28_21h45.54.067,classification_task,2021.2.3,MacIntel,59.99880002,5f4878547f5251349215a519,626b377229c10585ec392f8a,626b513c1e43323b6433232f,,,,,,,,,,,,,,,,,,,,,,,a,1,0.5822,"[""0.228"",""0.027"",""0.860"",""0.966""]","[1,0,1,1]",0,33,33,33,1,0,0,,,0,FALSE,,,,,,,,,,,,,,,,,,,,,,,,,,,,,,
,5f4878547f5251349215a519,001,2022-04-28_21h45.54.067,classification_task,2021.2.3,MacIntel,59.99880002,5f4878547f5251349215a519,626b377229c10585ec392f8a,626b513c1e43323b6433232f,,,,,,,,,,,,,,,,,,,,,,,a,1,0.5128,"[""0.228"",""0.565"",""0.696"",""0.966""]","[1,1,0,1]",0,34,34,34,1,0,0,,,0,FALSE,,,,,,,,,,,,,,,,,,,,,,,,,,,,,,
,5f4878547f5251349215a519,001,2022-04-28_21h45.54.067,classification_task,2021.2.3,MacIntel,59.99880002,5f4878547f5251349215a519,626b377229c10585ec392f8a,626b513c1e43323b6433232f,,,,,,,,,,,,,,,,,,,,,,,l,1,1.9578,"[""0.683"",""0.394"",""0.640"",""0.814""]","[0,1,1,1]",0,35,35,35,1,1,1,,,0,FALSE,,,,,,,,,,,,,,,,,,,,,,,,,,,,,,
,5f4878547f5251349215a519,001,2022-04-28_21h45.54.067,classification_task,2021.2.3,MacIntel,59.99880002,5f4878547f5251349215a519,626b377229c10585ec392f8a,626b513c1e43323b6433232f,,,,,,,,,,,,,,,,,,,,,,,a,1,0.817,"[""0.228"",""0.565"",""0.860"",""0.697""]","[1,1,1,0]",0,36,36,36,1,0,0,,,0,FALSE,,,,,,,,,,,,,,,,,,,,,,,,,,,,,,
,5f4878547f5251349215a519,001,2022-04-28_21h45.54.067,classification_task,2021.2.3,MacIntel,59.99880002,5f4878547f5251349215a519,626b377229c10585ec392f8a,626b513c1e43323b6433232f,,,,,,,,,,,,,,,,,,,,,,,l,1,1.7681,"[""0.127"",""0.271"",""0.500"",""0.727""]","[1,1,1,0]",0,37,37,37,1,1,0,,,0,FALSE,,,,,,,,,,,,,,,,,,,,,,,,,,,,,,
,5f4878547f5251349215a519,001,2022-04-28_21h45.54.067,classification_task,2021.2.3,MacIntel,59.99880002,5f4878547f5251349215a519,626b377229c10585ec392f8a,626b513c1e43323b6433232f,,,,,,,,,,,,,,,,,,,,,,,a,0,2.1318,"[""0.065"",""0.691"",""0.640"",""0.814""]","[1,0,1,1]",0,38,38,38,1,1,1,,,0,FALSE,,,,,,,,,,,,,,,,,,,,,,,,,,,,,,
,5f4878547f5251349215a519,001,2022-04-28_21h45.54.067,classification_task,2021.2.3,MacIntel,59.99880002,5f4878547f5251349215a519,626b377229c10585ec392f8a,626b513c1e43323b6433232f,,,,,,,,,,,,,,,,,,,,,,,a,1,0.7374,"[""0.164"",""0.697"",""0.895"",""0.931""]","[1,0,1,1]",0,39,39,39,1,0,1,,,0,FALSE,,,,,,,,,,,,,,,,,,,,,,,,,,,,,,
,5f4878547f5251349215a519,001,2022-04-28_21h45.54.067,classification_task,2021.2.3,MacIntel,59.99880002,5f4878547f5251349215a519,626b377229c10585ec392f8a,626b513c1e43323b6433232f,,,,,,,,,,,,,,,,,,,,,,,a,1,1.3379,"[""0.315"",""0.432"",""0.895"",""0.931""]","[0,1,1,1]",0,40,40,40,1,0,1,,,0,FALSE,,,,,,,,,,,,,,,,,,,,,,,,,,,,,,
,5f4878547f5251349215a519,001,2022-04-28_21h45.54.067,classification_task,2021.2.3,MacIntel,59.99880002,5f4878547f5251349215a519,626b377229c10585ec392f8a,626b513c1e43323b6433232f,,,,,,,,,,,,,,,,,,,,,,,a,1,1.5,"[""0.164"",""0.432"",""0.607"",""0.931""]","[1,1,0,1]",0,41,41,41,1,0,1,,,0,FALSE,,,,,,,,,,,,,,,,,,,,,,,,,,,,,,
,5f4878547f5251349215a519,001,2022-04-28_21h45.54.067,classification_task,2021.2.3,MacIntel,59.99880002,5f4878547f5251349215a519,626b377229c10585ec392f8a,626b513c1e43323b6433232f,,,,,,,,,,,,,,,,,,,,,,,a,0,1.5711,"[""0.065"",""0.394"",""0.640"",""0.027""]","[1,1,1,0]",0,42,42,42,1,1,1,,,0,FALSE,,,,,,,,,,,,,,,,,,,,,,,,,,,,,,
,5f4878547f5251349215a519,001,2022-04-28_21h45.54.067,classification_task,2021.2.3,MacIntel,59.99880002,5f4878547f5251349215a519,626b377229c10585ec392f8a,626b513c1e43323b6433232f,,,,,,,,,,,,,,,,,,,,,,,l,1,1.7004,"[""0.127"",""0.271"",""0.683"",""0.766""]","[1,1,0,1]",0,43,43,43,1,1,0,,,0,FALSE,,,,,,,,,,,,,,,,,,,,,,,,,,,,,,
,5f4878547f5251349215a519,001,2022-04-28_21h45.54.067,classification_task,2021.2.3,MacIntel,59.99880002,5f4878547f5251349215a519,626b377229c10585ec392f8a,626b513c1e43323b6433232f,,,,,,,,,,,,,,,,,,,,,,,a,0,1.6439,"[""0.065"",""0.394"",""0.027"",""0.814""]","[1,1,0,1]",0,44,44,44,1,1,1,,,0,FALSE,,,,,,,,,,,,,,,,,,,,,,,,,,,,,,
,5f4878547f5251349215a519,001,2022-04-28_21h45.54.067,classification_task,2021.2.3,MacIntel,59.99880002,5f4878547f5251349215a519,626b377229c10585ec392f8a,626b513c1e43323b6433232f,,,,,,,,,,,,,,,,,,,,,,,a,1,0.7314,"[""0.164"",""0.432"",""0.895"",""0.729""]","[1,1,1,0]",0,45,45,45,1,0,1,,,0,FALSE,,,,,,,,,,,,,,,,,,,,,,,,,,,,,,
,5f4878547f5251349215a519,001,2022-04-28_21h45.54.067,classification_task,2021.2.3,MacIntel,59.99880002,5f4878547f5251349215a519,626b377229c10585ec392f8a,626b513c1e43323b6433232f,,,,,,,,,,,,,,,,,,,,,,,l,1,0.742,"[""0.696"",""0.271"",""0.500"",""0.766""]","[0,1,1,1]",0,46,46,46,1,1,0,,,0,FALSE,,,,,,,,,,,,,,,,,,,,,,,,,,,,,,
,5f4878547f5251349215a519,001,2022-04-28_21h45.54.067,classification_task,2021.2.3,MacIntel,59.99880002,5f4878547f5251349215a519,626b377229c10585ec392f8a,626b513c1e43323b6433232f,,,,,,,,,,,,,,,,,,,,,,,l,1,0.5348,"[""0.127"",""0.600"",""0.500"",""0.766""]","[1,0,1,1]",0,47,47,47,1,1,0,,,0,FALSE,,,,,,,,,,,,,,,,,,,,,,,,,,,,,,
,5f4878547f5251349215a519,001,2022-04-28_21h45.54.067,classification_task,2021.2.3,MacIntel,59.99880002,5f4878547f5251349215a519,626b377229c10585ec392f8a,626b513c1e43323b6433232f,,,,,,,,,,,,,,,,,,,,,,,a,0,1.1667,"[""0.127"",""0.271"",""0.500"",""0.027""]","[1,1,1,0]",0,48,48,48,1,1,0,,,0,FALSE,,,,,,,,,,,,,,,,,,,,,,,,,,,,,,
,5f4878547f5251349215a519,001,2022-04-28_21h45.54.067,classification_task,2021.2.3,MacIntel,59.99880002,5f4878547f5251349215a519,626b377229c10585ec392f8a,626b513c1e43323b6433232f,,,,,,,,,,,,,,,,,,,,,,,a,1,1.4796,"[""0.164"",""0.706"",""0.895"",""0.931""]","[1,0,1,1]",0,49,49,49,1,0,1,,,0,FALSE,,,,,,,,,,,,,,,,,,,,,,,,,,,,,,
,5f4878547f5251349215a519,001,2022-04-28_21h45.54.067,classification_task,2021.2.3,MacIntel,59.99880002,5f4878547f5251349215a519,626b377229c10585ec392f8a,626b513c1e43323b6433232f,,,,,,,,,,,,,,,,,,,,,,,a,0,0.615,"[""0.065"",""0.704"",""0.640"",""0.814""]","[1,0,1,1]",0,50,50,50,1,1,1,,,0,FALSE,,,,,,,,,,,,,,,,,,,,,,,,,,,,,,
,5f4878547f5251349215a519,001,2022-04-28_21h45.54.067,classification_task,2021.2.3,MacIntel,59.99880002,5f4878547f5251349215a519,626b377229c10585ec392f8a,626b513c1e43323b6433232f,,,,,,,,,,,,,,,,,,,,,,,a,1,1.278,"[""0.228"",""0.565"",""0.727"",""0.966""]","[1,1,0,1]",0,51,51,51,1,0,0,,,0,FALSE,,,,,,,,,,,,,,,,,,,,,,,,,,,,,,
,5f4878547f5251349215a519,001,2022-04-28_21h45.54.067,classification_task,2021.2.3,MacIntel,59.99880002,5f4878547f5251349215a519,626b377229c10585ec392f8a,626b513c1e43323b6433232f,,,,,,,,,,,,,,,,,,,,,,,l,1,1.0512,"[""0.127"",""0.696"",""0.500"",""0.766""]","[1,0,1,1]",0,52,52,52,1,1,0,,,0,FALSE,,,,,,,,,,,,,,,,,,,,,,,,,,,,,,
,5f4878547f5251349215a519,001,2022-04-28_21h45.54.067,classification_task,2021.2.3,MacIntel,59.99880002,5f4878547f5251349215a519,626b377229c10585ec392f8a,626b513c1e43323b6433232f,,,,,,,,,,,,,,,,,,,,,,,l,1,0.8471,"[""0.691"",""0.271"",""0.500"",""0.766""]","[0,1,1,1]",0,53,53,53,1,1,0,,,0,FALSE,,,,,,,,,,,,,,,,,,,,,,,,,,,,,,
,5f4878547f5251349215a519,001,2022-04-28_21h45.54.067,classification_task,2021.2.3,MacIntel,59.99880002,5f4878547f5251349215a519,626b377229c10585ec392f8a,626b513c1e43323b6433232f,,,,,,,,,,,,,,,,,,,,,,,a,1,1.4889,"[""0.164"",""0.432"",""0.895"",""0.325""]","[1,1,1,0]",0,54,54,54,1,0,1,,,0,FALSE,,,,,,,,,,,,,,,,,,,,,,,,,,,,,,
,5f4878547f5251349215a519,001,2022-04-28_21h45.54.067,classification_task,2021.2.3,MacIntel,59.99880002,5f4878547f5251349215a519,626b377229c10585ec392f8a,626b513c1e43323b6433232f,,,,,,,,,,,,,,,,,,,,,,,a,0,1.6812,"[""0.065"",""0.394"",""0.640"",""0.729""]","[1,1,1,0]",0,55,55,55,1,1,1,,,0,FALSE,,,,,,,,,,,,,,,,,,,,,,,,,,,,,,
,5f4878547f5251349215a519,001,2022-04-28_21h45.54.067,classification_task,2021.2.3,MacIntel,59.99880002,5f4878547f5251349215a519,626b377229c10585ec392f8a,626b513c1e43323b6433232f,,,,,,,,,,,,,,,,,,,,,,,a,0,3.4744,"[""0.065"",""0.394"",""0.729"",""0.814""]","[1,1,0,1]",0,56,56,56,1,1,1,,,0,FALSE,,,,,,,,,,,,,,,,,,,,,,,,,,,,,,
,5f4878547f5251349215a519,001,2022-04-28_21h45.54.067,classification_task,2021.2.3,MacIntel,59.99880002,5f4878547f5251349215a519,626b377229c10585ec392f8a,626b513c1e43323b6433232f,,,,,,,,,,,,,,,,,,,,,,,a,1,1.8876,"[""0.325"",""0.432"",""0.895"",""0.931""]","[0,1,1,1]",0,57,57,57,1,0,1,,,0,FALSE,,,,,,,,,,,,,,,,,,,,,,,,,,,,,,
,5f4878547f5251349215a519,001,2022-04-28_21h45.54.067,classification_task,2021.2.3,MacIntel,59.99880002,5f4878547f5251349215a519,626b377229c10585ec392f8a,626b513c1e43323b6433232f,,,,,,,,,,,,,,,,,,,,,,,a,1,1.0043,"[""0.164"",""0.432"",""0.697"",""0.931""]","[1,1,0,1]",0,58,58,58,1,0,1,,,0,FALSE,,,,,,,,,,,,,,,,,,,,,,,,,,,,,,
,5f4878547f5251349215a519,001,2022-04-28_21h45.54.067,classification_task,2021.2.3,MacIntel,59.99880002,5f4878547f5251349215a519,626b377229c10585ec392f8a,626b513c1e43323b6433232f,,,,,,,,,,,,,,,,,,,,,,,l,0,1.3412,"[""0.691"",""0.565"",""0.860"",""0.966""]","[0,1,1,1]",0,59,59,59,1,0,0,,,0,FALSE,,,,,,,,,,,,,,,,,,,,,,,,,,,,,,
,5f4878547f5251349215a519,001,2022-04-28_21h45.54.067,classification_task,2021.2.3,MacIntel,59.99880002,5f4878547f5251349215a519,626b377229c10585ec392f8a,626b513c1e43323b6433232f,,,,,,,,,,,,,,,,,,,,,,,a,1,1.5482,"[""0.228"",""0.565"",""0.860"",""0.691""]","[1,1,1,0]",0,60,60,60,1,0,0,,,0,FALSE,,,,,,,,,,,,,,,,,,,,,,,,,,,,,,
,5f4878547f5251349215a519,001,2022-04-28_21h45.54.067,classification_task,2021.2.3,MacIntel,59.99880002,5f4878547f5251349215a519,626b377229c10585ec392f8a,626b513c1e43323b6433232f,,,,,,,,,,,,,,,,,,,,,,,a,1,1.0163,"[""0.228"",""0.691"",""0.860"",""0.966""]","[1,0,1,1]",0,61,61,61,1,0,0,,,0,FALSE,,,,,,,,,,,,,,,,,,,,,,,,,,,,,,
,5f4878547f5251349215a519,001,2022-04-28_21h45.54.067,classification_task,2021.2.3,MacIntel,59.99880002,5f4878547f5251349215a519,626b377229c10585ec392f8a,626b513c1e43323b6433232f,,,,,,,,,,,,,,,,,,,,,,,a,0,1.141,"[""0.600"",""0.394"",""0.640"",""0.814""]","[0,1,1,1]",0,62,62,62,1,1,1,,,0,FALSE,,,,,,,,,,,,,,,,,,,,,,,,,,,,,,
,5f4878547f5251349215a519,001,2022-04-28_21h45.54.067,classification_task,2021.2.3,MacIntel,59.99880002,5f4878547f5251349215a519,626b377229c10585ec392f8a,626b513c1e43323b6433232f,,,,,,,,,,,,,,,,,,,,,,,a,0,0.9152,"[""0.127"",""0.271"",""0.729"",""0.766""]","[1,1,0,1]",0,63,63,63,1,1,0,,,0,FALSE,,,,,,,,,,,,,,,,,,,,,,,,,,,,,,
,5f4878547f5251349215a519,001,2022-04-28_21h45.54.067,classification_task,2021.2.3,MacIntel,59.99880002,5f4878547f5251349215a519,626b377229c10585ec392f8a,626b513c1e43323b6433232f,,,,,,,,,,,,,,,,,,,,,,,,,,,,,,,,,,,,,,,0, ,,0,1.832745444,180.652,0,1,1,1,1,2,2,,,,,,,,,,,,,,,,,
,5f4878547f5251349215a519,001,2022-04-28_21h45.54.067,classification_task,2021.2.3,MacIntel,59.99880002,5f4878547f5251349215a519,626b377229c10585ec392f8a,626b513c1e43323b6433232f,,,,,,,,,,,,,,,,,,,,,,,,,,,,,,,,,,,,,,,1,  ,,0,8.349706974,183.8564,0,1,1,1,1,2,2,,,,,,,,,,,,,,,,,
,5f4878547f5251349215a519,001,2022-04-28_21h45.54.067,classification_task,2021.2.3,MacIntel,59.99880002,5f4878547f5251349215a519,626b377229c10585ec392f8a,626b513c1e43323b6433232f,,,,,,,,,,,,,,,,,,,,,,,,,,,,,,,,,,,,,,,2,  ,,0,2.160792365,189.752,0,1,1,1,1,2,2,,,,,,,,,,,,,,,,,
,5f4878547f5251349215a519,001,2022-04-28_21h45.54.067,classification_task,2021.2.3,MacIntel,59.99880002,5f4878547f5251349215a519,626b377229c10585ec392f8a,626b513c1e43323b6433232f,,,,,,,,,,,,,,,,,,,,,,,,,,,,,,,,,,,,,,,,,,,,,0,1,1,1,1,,2,,,,,,,,,,,,,,,,,
,5f4878547f5251349215a519,001,2022-04-28_21h45.54.067,classification_task,2021.2.3,MacIntel,59.99880002,5f4878547f5251349215a519,626b377229c10585ec392f8a,626b513c1e43323b6433232f,,,,,,,,,,,,,,,,,,,,,space,8.088,a,0,2.6996,"[""0.315"",""0.271"",""0.500"",""0.766""]","[0,1,1,1]",0,0,0,0,1,1,0,,,0,FALSE,,,,,,,,,,,,,,,,,,,,,,,,,,,,,,
,5f4878547f5251349215a519,001,2022-04-28_21h45.54.067,classification_task,2021.2.3,MacIntel,59.99880002,5f4878547f5251349215a519,626b377229c10585ec392f8a,626b513c1e43323b6433232f,,,,,,,,,,,,,,,,,,,,,,,a,1,2.448,"[""0.600"",""0.432"",""0.895"",""0.931""]","[0,1,1,1]",0,1,1,1,1,0,1,,,0,FALSE,,,,,,,,,,,,,,,,,,,,,,,,,,,,,,
,5f4878547f5251349215a519,001,2022-04-28_21h45.54.067,classification_task,2021.2.3,MacIntel,59.99880002,5f4878547f5251349215a519,626b377229c10585ec392f8a,626b513c1e43323b6433232f,,,,,,,,,,,,,,,,,,,,,,,l,1,1.3344,"[""0.065"",""0.697"",""0.640"",""0.814""]","[1,0,1,1]",0,2,2,2,1,1,1,,,0,FALSE,,,,,,,,,,,,,,,,,,,,,,,,,,,,,,
,5f4878547f5251349215a519,001,2022-04-28_21h45.54.067,classification_task,2021.2.3,MacIntel,59.99880002,5f4878547f5251349215a519,626b377229c10585ec392f8a,626b513c1e43323b6433232f,,,,,,,,,,,,,,,,,,,,,,,a,0,2.1149,"[""0.697"",""0.394"",""0.640"",""0.814""]","[0,1,1,1]",0,3,3,3,1,1,1,,,0,FALSE,,,,,,,,,,,,,,,,,,,,,,,,,,,,,,
,5f4878547f5251349215a519,001,2022-04-28_21h45.54.067,classification_task,2021.2.3,MacIntel,59.99880002,5f4878547f5251349215a519,626b377229c10585ec392f8a,626b513c1e43323b6433232f,,,,,,,,,,,,,,,,,,,,,,,a,1,3.5859,"[""0.315"",""0.565"",""0.860"",""0.966""]","[0,1,1,1]",0,4,4,4,1,0,0,,,0,FALSE,,,,,,,,,,,,,,,,,,,,,,,,,,,,,,
,5f4878547f5251349215a519,001,2022-04-28_21h45.54.067,classification_task,2021.2.3,MacIntel,59.99880002,5f4878547f5251349215a519,626b377229c10585ec392f8a,626b513c1e43323b6433232f,,,,,,,,,,,,,,,,,,,,,,,a,1,1.0441,"[""0.228"",""0.565"",""0.860"",""0.696""]","[1,1,1,0]",0,5,5,5,1,0,0,,,0,FALSE,,,,,,,,,,,,,,,,,,,,,,,,,,,,,,
,5f4878547f5251349215a519,001,2022-04-28_21h45.54.067,classification_task,2021.2.3,MacIntel,59.99880002,5f4878547f5251349215a519,626b377229c10585ec392f8a,626b513c1e43323b6433232f,,,,,,,,,,,,,,,,,,,,,,,a,1,4.6477,"[""0.228"",""0.565"",""0.325"",""0.966""]","[1,1,0,1]",0,6,6,6,1,0,0,,,0,FALSE,,,,,,,,,,,,,,,,,,,,,,,,,,,,,,
,5f4878547f5251349215a519,001,2022-04-28_21h45.54.067,classification_task,2021.2.3,MacIntel,59.99880002,5f4878547f5251349215a519,626b377229c10585ec392f8a,626b513c1e43323b6433232f,,,,,,,,,,,,,,,,,,,,,,,l,1,2.1162,"[""0.127"",""0.271"",""0.027"",""0.766""]","[1,1,0,1]",0,7,7,7,1,1,0,,,0,FALSE,,,,,,,,,,,,,,,,,,,,,,,,,,,,,,
,5f4878547f5251349215a519,001,2022-04-28_21h45.54.067,classification_task,2021.2.3,MacIntel,59.99880002,5f4878547f5251349215a519,626b377229c10585ec392f8a,626b513c1e43323b6433232f,,,,,,,,,,,,,,,,,,,,,,,a,0,1.7395,"[""0.065"",""0.394"",""0.704"",""0.814""]","[1,1,0,1]",0,8,8,8,1,1,1,,,0,FALSE,,,,,,,,,,,,,,,,,,,,,,,,,,,,,,
,5f4878547f5251349215a519,001,2022-04-28_21h45.54.067,classification_task,2021.2.3,MacIntel,59.99880002,5f4878547f5251349215a519,626b377229c10585ec392f8a,626b513c1e43323b6433232f,,,,,,,,,,,,,,,,,,,,,,,a,0,1.0823,"[""0.065"",""0.394"",""0.640"",""0.696""]","[1,1,1,0]",0,9,9,9,1,1,1,,,0,FALSE,,,,,,,,,,,,,,,,,,,,,,,,,,,,,,
,5f4878547f5251349215a519,001,2022-04-28_21h45.54.067,classification_task,2021.2.3,MacIntel,59.99880002,5f4878547f5251349215a519,626b377229c10585ec392f8a,626b513c1e43323b6433232f,,,,,,,,,,,,,,,,,,,,,,,l,0,1.3687,"[""0.228"",""0.706"",""0.860"",""0.966""]","[1,0,1,1]",0,10,10,10,1,0,0,,,0,FALSE,,,,,,,,,,,,,,,,,,,,,,,,,,,,,,
,5f4878547f5251349215a519,001,2022-04-28_21h45.54.067,classification_task,2021.2.3,MacIntel,59.99880002,5f4878547f5251349215a519,626b377229c10585ec392f8a,626b513c1e43323b6433232f,,,,,,,,,,,,,,,,,,,,,,,l,1,1.9663,"[""0.127"",""0.271"",""0.500"",""0.697""]","[1,1,1,0]",0,11,11,11,1,1,0,,,0,FALSE,,,,,,,,,,,,,,,,,,,,,,,,,,,,,,
,5f4878547f5251349215a519,001,2022-04-28_21h45.54.067,classification_task,2021.2.3,MacIntel,59.99880002,5f4878547f5251349215a519,626b377229c10585ec392f8a,626b513c1e43323b6433232f,,,,,,,,,,,,,,,,,,,,,,,a,1,1.9185,"[""0.164"",""0.432"",""0.895"",""0.027""]","[1,1,1,0]",0,12,12,12,1,0,1,,,0,FALSE,,,,,,,,,,,,,,,,,,,,,,,,,,,,,,
,5f4878547f5251349215a519,001,2022-04-28_21h45.54.067,classification_task,2021.2.3,MacIntel,59.99880002,5f4878547f5251349215a519,626b377229c10585ec392f8a,626b513c1e43323b6433232f,,,,,,,,,,,,,,,,,,,,,,,a,1,2.6692,"[""0.164"",""0.432"",""0.704"",""0.931""]","[1,1,0,1]",0,13,13,13,1,0,1,,,0,FALSE,,,,,,,,,,,,,,,,,,,,,,,,,,,,,,
,5f4878547f5251349215a519,001,2022-04-28_21h45.54.067,classification_task,2021.2.3,MacIntel,59.99880002,5f4878547f5251349215a519,626b377229c10585ec392f8a,626b513c1e43323b6433232f,,,,,,,,,,,,,,,,,,,,,,,a,1,2.6072,"[""0.164"",""0.600"",""0.895"",""0.931""]","[1,0,1,1]",0,14,14,14,1,0,1,,,0,FALSE,,,,,,,,,,,,,,,,,,,,,,,,,,,,,,
,5f4878547f5251349215a519,001,2022-04-28_21h45.54.067,classification_task,2021.2.3,MacIntel,59.99880002,5f4878547f5251349215a519,626b377229c10585ec392f8a,626b513c1e43323b6433232f,,,,,,,,,,,,,,,,,,,,,,,l,1,1.9195,"[""0.127"",""0.607"",""0.500"",""0.766""]","[1,0,1,1]",0,15,15,15,1,1,0,,,0,FALSE,,,,,,,,,,,,,,,,,,,,,,,,,,,,,,
,5f4878547f5251349215a519,001,2022-04-28_21h45.54.067,classification_task,2021.2.3,MacIntel,59.99880002,5f4878547f5251349215a519,626b377229c10585ec392f8a,626b513c1e43323b6433232f,,,,,,,,,,,,,,,,,,,,,,,l,1,3.4372,"[""0.065"",""0.027"",""0.640"",""0.814""]","[1,0,1,1]",0,16,16,16,1,1,1,,,0,FALSE,,,,,,,,,,,,,,,,,,,,,,,,,,,,,,
,5f4878547f5251349215a519,001,2022-04-28_21h45.54.067,classification_task,2021.2.3,MacIntel,59.99880002,5f4878547f5251349215a519,626b377229c10585ec392f8a,626b513c1e43323b6433232f,,,,,,,,,,,,,,,,,,,,,,,l,1,0.9781,"[""0.683"",""0.394"",""0.640"",""0.814""]","[0,1,1,1]",0,17,17,17,1,1,1,,,0,FALSE,,,,,,,,,,,,,,,,,,,,,,,,,,,,,,
,5f4878547f5251349215a519,001,2022-04-28_21h45.54.067,classification_task,2021.2.3,MacIntel,59.99880002,5f4878547f5251349215a519,626b377229c10585ec392f8a,626b513c1e43323b6433232f,,,,,,,,,,,,,,,,,,,,,,,l,0,2.7983,"[""0.727"",""0.432"",""0.895"",""0.931""]","[0,1,1,1]",0,18,18,18,1,0,1,,,0,FALSE,,,,,,,,,,,,,,,,,,,,,,,,,,,,,,
,5f4878547f5251349215a519,001,2022-04-28_21h45.54.067,classification_task,2021.2.3,MacIntel,59.99880002,5f4878547f5251349215a519,626b377229c10585ec392f8a,626b513c1e43323b6433232f,,,,,,,,,,,,,,,,,,,,,,,l,1,1.7655,"[""0.127"",""0.271"",""0.354"",""0.766""]","[1,1,0,1]",0,19,19,19,1,1,0,,,0,FALSE,,,,,,,,,,,,,,,,,,,,,,,,,,,,,,
,5f4878547f5251349215a519,001,2022-04-28_21h45.54.067,classification_task,2021.2.3,MacIntel,59.99880002,5f4878547f5251349215a519,626b377229c10585ec392f8a,626b513c1e43323b6433232f,,,,,,,,,,,,,,,,,,,,,,,a,1,1.0621,"[""0.697"",""0.565"",""0.860"",""0.966""]","[0,1,1,1]",0,20,20,20,1,0,0,,,0,FALSE,,,,,,,,,,,,,,,,,,,,,,,,,,,,,,
,5f4878547f5251349215a519,001,2022-04-28_21h45.54.067,classification_task,2021.2.3,MacIntel,59.99880002,5f4878547f5251349215a519,626b377229c10585ec392f8a,626b513c1e43323b6433232f,,,,,,,,,,,,,,,,,,,,,,,a,1,2.8035,"[""0.228"",""0.565"",""0.860"",""0.691""]","[1,1,1,0]",0,21,21,21,1,0,0,,,0,FALSE,,,,,,,,,,,,,,,,,,,,,,,,,,,,,,
,5f4878547f5251349215a519,001,2022-04-28_21h45.54.067,classification_task,2021.2.3,MacIntel,59.99880002,5f4878547f5251349215a519,626b377229c10585ec392f8a,626b513c1e43323b6433232f,,,,,,,,,,,,,,,,,,,,,,,a,0,2.5045,"[""0.065"",""0.394"",""0.706"",""0.814""]","[1,1,0,1]",0,22,22,22,1,1,1,,,0,FALSE,,,,,,,,,,,,,,,,,,,,,,,,,,,,,,
,5f4878547f5251349215a519,001,2022-04-28_21h45.54.067,classification_task,2021.2.3,MacIntel,59.99880002,5f4878547f5251349215a519,626b377229c10585ec392f8a,626b513c1e43323b6433232f,,,,,,,,,,,,,,,,,,,,,,,a,0,2.42,"[""0.127"",""0.271"",""0.500"",""0.325""]","[1,1,1,0]",0,23,23,23,1,1,0,,,0,FALSE,,,,,,,,,,,,,,,,,,,,,,,,,,,,,,
,5f4878547f5251349215a519,001,2022-04-28_21h45.54.067,classification_task,2021.2.3,MacIntel,59.99880002,5f4878547f5251349215a519,626b377229c10585ec392f8a,626b513c1e43323b6433232f,,,,,,,,,,,,,,,,,,,,,,,l,1,0.8847,"[""0.704"",""0.271"",""0.500"",""0.766""]","[0,1,1,1]",0,24,24,24,1,1,0,,,0,FALSE,,,,,,,,,,,,,,,,,,,,,,,,,,,,,,
,5f4878547f5251349215a519,001,2022-04-28_21h45.54.067,classification_task,2021.2.3,MacIntel,59.99880002,5f4878547f5251349215a519,626b377229c10585ec392f8a,626b513c1e43323b6433232f,,,,,,,,,,,,,,,,,,,,,,,a,0,1.1837,"[""0.065"",""0.394"",""0.640"",""0.683""]","[1,1,1,0]",0,25,25,25,1,1,1,,,0,FALSE,,,,,,,,,,,,,,,,,,,,,,,,,,,,,,
,5f4878547f5251349215a519,001,2022-04-28_21h45.54.067,classification_task,2021.2.3,MacIntel,59.99880002,5f4878547f5251349215a519,626b377229c10585ec392f8a,626b513c1e43323b6433232f,,,,,,,,,,,,,,,,,,,,,,,a,0,0.9879,"[""0.127"",""0.027"",""0.500"",""0.766""]","[1,0,1,1]",0,26,26,26,1,1,0,,,0,FALSE,,,,,,,,,,,,,,,,,,,,,,,,,,,,,,
,5f4878547f5251349215a519,001,2022-04-28_21h45.54.067,classification_task,2021.2.3,MacIntel,59.99880002,5f4878547f5251349215a519,626b377229c10585ec392f8a,626b513c1e43323b6433232f,,,,,,,,,,,,,,,,,,,,,,,a,1,4.2177,"[""0.164"",""0.432"",""0.325"",""0.931""]","[1,1,0,1]",0,27,27,27,1,0,1,,,0,FALSE,,,,,,,,,,,,,,,,,,,,,,,,,,,,,,
,5f4878547f5251349215a519,001,2022-04-28_21h45.54.067,classification_task,2021.2.3,MacIntel,59.99880002,5f4878547f5251349215a519,626b377229c10585ec392f8a,626b513c1e43323b6433232f,,,,,,,,,,,,,,,,,,,,,,,l,0,4.2699,"[""0.164"",""0.432"",""0.895"",""0.325""]","[1,1,1,0]",0,28,28,28,1,0,1,,,0,FALSE,,,,,,,,,,,,,,,,,,,,,,,,,,,,,,
,5f4878547f5251349215a519,001,2022-04-28_21h45.54.067,classification_task,2021.2.3,MacIntel,59.99880002,5f4878547f5251349215a519,626b377229c10585ec392f8a,626b513c1e43323b6433232f,,,,,,,,,,,,,,,,,,,,,,,a,1,3.6922,"[""0.228"",""0.565"",""0.704"",""0.966""]","[1,1,0,1]",0,29,29,29,1,0,0,,,0,FALSE,,,,,,,,,,,,,,,,,,,,,,,,,,,,,,
,5f4878547f5251349215a519,001,2022-04-28_21h45.54.067,classification_task,2021.2.3,MacIntel,59.99880002,5f4878547f5251349215a519,626b377229c10585ec392f8a,626b513c1e43323b6433232f,,,,,,,,,,,,,,,,,,,,,,,a,1,3.4872,"[""0.164"",""0.696"",""0.895"",""0.931""]","[1,0,1,1]",0,30,30,30,1,0,1,,,0,FALSE,,,,,,,,,,,,,,,,,,,,,,,,,,,,,,
,5f4878547f5251349215a519,001,2022-04-28_21h45.54.067,classification_task,2021.2.3,MacIntel,59.99880002,5f4878547f5251349215a519,626b377229c10585ec392f8a,626b513c1e43323b6433232f,,,,,,,,,,,,,,,,,,,,,,,l,0,4.2069,"[""0.228"",""0.696"",""0.860"",""0.966""]","[1,0,1,1]",0,31,31,31,1,0,0,,,0,FALSE,,,,,,,,,,,,,,,,,,,,,,,,,,,,,,
,5f4878547f5251349215a519,001,2022-04-28_21h45.54.067,classification_task,2021.2.3,MacIntel,59.99880002,5f4878547f5251349215a519,626b377229c10585ec392f8a,626b513c1e43323b6433232f,,,,,,,,,,,,,,,,,,,,,,,a,0,3.3884,"[""0.127"",""0.271"",""0.607"",""0.766""]","[1,1,0,1]",0,32,32,32,1,1,0,,,0,FALSE,,,,,,,,,,,,,,,,,,,,,,,,,,,,,,
,5f4878547f5251349215a519,001,2022-04-28_21h45.54.067,classification_task,2021.2.3,MacIntel,59.99880002,5f4878547f5251349215a519,626b377229c10585ec392f8a,626b513c1e43323b6433232f,,,,,,,,,,,,,,,,,,,,,,,a,0,2.24,"[""0.683"",""0.394"",""0.640"",""0.814""]","[0,1,1,1]",0,33,33,33,1,1,1,,,0,FALSE,,,,,,,,,,,,,,,,,,,,,,,,,,,,,,
,5f4878547f5251349215a519,001,2022-04-28_21h45.54.067,classification_task,2021.2.3,MacIntel,59.99880002,5f4878547f5251349215a519,626b377229c10585ec392f8a,626b513c1e43323b6433232f,,,,,,,,,,,,,,,,,,,,,,,a,1,1.4877,"[""0.600"",""0.432"",""0.895"",""0.931""]","[0,1,1,1]",0,34,34,34,1,0,1,,,0,FALSE,,,,,,,,,,,,,,,,,,,,,,,,,,,,,,
,5f4878547f5251349215a519,001,2022-04-28_21h45.54.067,classification_task,2021.2.3,MacIntel,59.99880002,5f4878547f5251349215a519,626b377229c10585ec392f8a,626b513c1e43323b6433232f,,,,,,,,,,,,,,,,,,,,,,,l,0,2.1504,"[""0.164"",""0.697"",""0.895"",""0.931""]","[1,0,1,1]",0,35,35,35,1,0,1,,,0,FALSE,,,,,,,,,,,,,,,,,,,,,,,,,,,,,,
,5f4878547f5251349215a519,001,2022-04-28_21h45.54.067,classification_task,2021.2.3,MacIntel,59.99880002,5f4878547f5251349215a519,626b377229c10585ec392f8a,626b513c1e43323b6433232f,,,,,,,,,,,,,,,,,,,,,,,a,0,4.4043,"[""0.065"",""0.696"",""0.640"",""0.814""]","[1,0,1,1]",0,36,36,36,1,1,1,,,0,FALSE,,,,,,,,,,,,,,,,,,,,,,,,,,,,,,
,5f4878547f5251349215a519,001,2022-04-28_21h45.54.067,classification_task,2021.2.3,MacIntel,59.99880002,5f4878547f5251349215a519,626b377229c10585ec392f8a,626b513c1e43323b6433232f,,,,,,,,,,,,,,,,,,,,,,,a,0,0.7547,"[""0.065"",""0.394"",""0.704"",""0.814""]","[1,1,0,1]",0,37,37,37,1,1,1,,,0,FALSE,,,,,,,,,,,,,,,,,,,,,,,,,,,,,,
,5f4878547f5251349215a519,001,2022-04-28_21h45.54.067,classification_task,2021.2.3,MacIntel,59.99880002,5f4878547f5251349215a519,626b377229c10585ec392f8a,626b513c1e43323b6433232f,,,,,,,,,,,,,,,,,,,,,,,l,0,0.8844,"[""0.164"",""0.432"",""0.325"",""0.931""]","[1,1,0,1]",0,38,38,38,1,0,1,,,0,FALSE,,,,,,,,,,,,,,,,,,,,,,,,,,,,,,
,5f4878547f5251349215a519,001,2022-04-28_21h45.54.067,classification_task,2021.2.3,MacIntel,59.99880002,5f4878547f5251349215a519,626b377229c10585ec392f8a,626b513c1e43323b6433232f,,,,,,,,,,,,,,,,,,,,,,,l,0,0.9372,"[""0.228"",""0.729"",""0.860"",""0.966""]","[1,0,1,1]",0,39,39,39,1,0,0,,,0,FALSE,,,,,,,,,,,,,,,,,,,,,,,,,,,,,,
,5f4878547f5251349215a519,001,2022-04-28_21h45.54.067,classification_task,2021.2.3,MacIntel,59.99880002,5f4878547f5251349215a519,626b377229c10585ec392f8a,626b513c1e43323b6433232f,,,,,,,,,,,,,,,,,,,,,,,a,1,1.0174,"[""0.164"",""0.432"",""0.895"",""0.706""]","[1,1,1,0]",0,40,40,40,1,0,1,,,0,FALSE,,,,,,,,,,,,,,,,,,,,,,,,,,,,,,
,5f4878547f5251349215a519,001,2022-04-28_21h45.54.067,classification_task,2021.2.3,MacIntel,59.99880002,5f4878547f5251349215a519,626b377229c10585ec392f8a,626b513c1e43323b6433232f,,,,,,,,,,,,,,,,,,,,,,,a,0,1.0008,"[""0.065"",""0.394"",""0.640"",""0.683""]","[1,1,1,0]",0,41,41,41,1,1,1,,,0,FALSE,,,,,,,,,,,,,,,,,,,,,,,,,,,,,,
,5f4878547f5251349215a519,001,2022-04-28_21h45.54.067,classification_task,2021.2.3,MacIntel,59.99880002,5f4878547f5251349215a519,626b377229c10585ec392f8a,626b513c1e43323b6433232f,,,,,,,,,,,,,,,,,,,,,,,a,1,0.9675,"[""0.228"",""0.565"",""0.860"",""0.683""]","[1,1,1,0]",0,42,42,42,1,0,0,,,0,FALSE,,,,,,,,,,,,,,,,,,,,,,,,,,,,,,
,5f4878547f5251349215a519,001,2022-04-28_21h45.54.067,classification_task,2021.2.3,MacIntel,59.99880002,5f4878547f5251349215a519,626b377229c10585ec392f8a,626b513c1e43323b6433232f,,,,,,,,,,,,,,,,,,,,,,,a,1,0.9301,"[""0.305"",""0.565"",""0.860"",""0.966""]","[0,1,1,1]",0,43,43,43,1,0,0,,,0,FALSE,,,,,,,,,,,,,,,,,,,,,,,,,,,,,,
,5f4878547f5251349215a519,001,2022-04-28_21h45.54.067,classification_task,2021.2.3,MacIntel,59.99880002,5f4878547f5251349215a519,626b377229c10585ec392f8a,626b513c1e43323b6433232f,,,,,,,,,,,,,,,,,,,,,,,a,0,2.2974,"[""0.127"",""0.683"",""0.500"",""0.766""]","[1,0,1,1]",0,44,44,44,1,1,0,,,0,FALSE,,,,,,,,,,,,,,,,,,,,,,,,,,,,,,
,5f4878547f5251349215a519,001,2022-04-28_21h45.54.067,classification_task,2021.2.3,MacIntel,59.99880002,5f4878547f5251349215a519,626b377229c10585ec392f8a,626b513c1e43323b6433232f,,,,,,,,,,,,,,,,,,,,,,,l,1,1.5888,"[""0.127"",""0.271"",""0.500"",""0.315""]","[1,1,1,0]",0,45,45,45,1,1,0,,,0,FALSE,,,,,,,,,,,,,,,,,,,,,,,,,,,,,,
,5f4878547f5251349215a519,001,2022-04-28_21h45.54.067,classification_task,2021.2.3,MacIntel,59.99880002,5f4878547f5251349215a519,626b377229c10585ec392f8a,626b513c1e43323b6433232f,,,,,,,,,,,,,,,,,,,,,,,a,1,1.3354,"[""0.228"",""0.565"",""0.325"",""0.966""]","[1,1,0,1]",0,46,46,46,1,0,0,,,0,FALSE,,,,,,,,,,,,,,,,,,,,,,,,,,,,,,
,5f4878547f5251349215a519,001,2022-04-28_21h45.54.067,classification_task,2021.2.3,MacIntel,59.99880002,5f4878547f5251349215a519,626b377229c10585ec392f8a,626b513c1e43323b6433232f,,,,,,,,,,,,,,,,,,,,,,,a,0,1.1514,"[""0.305"",""0.271"",""0.500"",""0.766""]","[0,1,1,1]",0,47,47,47,1,1,0,,,0,FALSE,,,,,,,,,,,,,,,,,,,,,,,,,,,,,,
,5f4878547f5251349215a519,001,2022-04-28_21h45.54.067,classification_task,2021.2.3,MacIntel,59.99880002,5f4878547f5251349215a519,626b377229c10585ec392f8a,626b513c1e43323b6433232f,,,,,,,,,,,,,,,,,,,,,,,a,1,2.9995,"[""0.697"",""0.432"",""0.895"",""0.931""]","[0,1,1,1]",0,48,48,48,1,0,1,,,0,FALSE,,,,,,,,,,,,,,,,,,,,,,,,,,,,,,
,5f4878547f5251349215a519,001,2022-04-28_21h45.54.067,classification_task,2021.2.3,MacIntel,59.99880002,5f4878547f5251349215a519,626b377229c10585ec392f8a,626b513c1e43323b6433232f,,,,,,,,,,,,,,,,,,,,,,,a,1,1.1246,"[""0.704"",""0.565"",""0.860"",""0.966""]","[0,1,1,1]",0,49,49,49,1,0,0,,,0,FALSE,,,,,,,,,,,,,,,,,,,,,,,,,,,,,,
,5f4878547f5251349215a519,001,2022-04-28_21h45.54.067,classification_task,2021.2.3,MacIntel,59.99880002,5f4878547f5251349215a519,626b377229c10585ec392f8a,626b513c1e43323b6433232f,,,,,,,,,,,,,,,,,,,,,,,a,1,2.1968,"[""0.164"",""0.432"",""0.895"",""0.691""]","[1,1,1,0]",0,50,50,50,1,0,1,,,0,FALSE,,,,,,,,,,,,,,,,,,,,,,,,,,,,,,
,5f4878547f5251349215a519,001,2022-04-28_21h45.54.067,classification_task,2021.2.3,MacIntel,59.99880002,5f4878547f5251349215a519,626b377229c10585ec392f8a,626b513c1e43323b6433232f,,,,,,,,,,,,,,,,,,,,,,,a,0,2.2673,"[""0.065"",""0.394"",""0.600"",""0.814""]","[1,1,0,1]",0,51,51,51,1,1,1,,,0,FALSE,,,,,,,,,,,,,,,,,,,,,,,,,,,,,,
,5f4878547f5251349215a519,001,2022-04-28_21h45.54.067,classification_task,2021.2.3,MacIntel,59.99880002,5f4878547f5251349215a519,626b377229c10585ec392f8a,626b513c1e43323b6433232f,,,,,,,,,,,,,,,,,,,,,,,l,1,3.1383,"[""0.305"",""0.394"",""0.640"",""0.814""]","[0,1,1,1]",0,52,52,52,1,1,1,,,0,FALSE,,,,,,,,,,,,,,,,,,,,,,,,,,,,,,
,5f4878547f5251349215a519,001,2022-04-28_21h45.54.067,classification_task,2021.2.3,MacIntel,59.99880002,5f4878547f5251349215a519,626b377229c10585ec392f8a,626b513c1e43323b6433232f,,,,,,,,,,,,,,,,,,,,,,,l,0,0.7194,"[""0.228"",""0.696"",""0.860"",""0.966""]","[1,0,1,1]",0,53,53,53,1,0,0,,,0,FALSE,,,,,,,,,,,,,,,,,,,,,,,,,,,,,,
,5f4878547f5251349215a519,001,2022-04-28_21h45.54.067,classification_task,2021.2.3,MacIntel,59.99880002,5f4878547f5251349215a519,626b377229c10585ec392f8a,626b513c1e43323b6433232f,,,,,,,,,,,,,,,,,,,,,,,a,0,1.05,"[""0.065"",""0.315"",""0.640"",""0.814""]","[1,0,1,1]",0,54,54,54,1,1,1,,,0,FALSE,,,,,,,,,,,,,,,,,,,,,,,,,,,,,,
,5f4878547f5251349215a519,001,2022-04-28_21h45.54.067,classification_task,2021.2.3,MacIntel,59.99880002,5f4878547f5251349215a519,626b377229c10585ec392f8a,626b513c1e43323b6433232f,,,,,,,,,,,,,,,,,,,,,,,a,1,1.184,"[""0.164"",""0.315"",""0.895"",""0.931""]","[1,0,1,1]",0,55,55,55,1,0,1,,,0,FALSE,,,,,,,,,,,,,,,,,,,,,,,,,,,,,,
,5f4878547f5251349215a519,001,2022-04-28_21h45.54.067,classification_task,2021.2.3,MacIntel,59.99880002,5f4878547f5251349215a519,626b377229c10585ec392f8a,626b513c1e43323b6433232f,,,,,,,,,,,,,,,,,,,,,,,a,0,2.3679,"[""0.127"",""0.691"",""0.500"",""0.766""]","[1,0,1,1]",0,56,56,56,1,1,0,,,0,FALSE,,,,,,,,,,,,,,,,,,,,,,,,,,,,,,
,5f4878547f5251349215a519,001,2022-04-28_21h45.54.067,classification_task,2021.2.3,MacIntel,59.99880002,5f4878547f5251349215a519,626b377229c10585ec392f8a,626b513c1e43323b6433232f,,,,,,,,,,,,,,,,,,,,,,,l,0,2.4522,"[""0.228"",""0.565"",""0.729"",""0.966""]","[1,1,0,1]",0,57,57,57,1,0,0,,,0,FALSE,,,,,,,,,,,,,,,,,,,,,,,,,,,,,,
,5f4878547f5251349215a519,001,2022-04-28_21h45.54.067,classification_task,2021.2.3,MacIntel,59.99880002,5f4878547f5251349215a519,626b377229c10585ec392f8a,626b513c1e43323b6433232f,,,,,,,,,,,,,,,,,,,,,,,l,1,1.5498,"[""0.727"",""0.271"",""0.500"",""0.766""]","[0,1,1,1]",0,58,58,58,1,1,0,,,0,FALSE,,,,,,,,,,,,,,,,,,,,,,,,,,,,,,
,5f4878547f5251349215a519,001,2022-04-28_21h45.54.067,classification_task,2021.2.3,MacIntel,59.99880002,5f4878547f5251349215a519,626b377229c10585ec392f8a,626b513c1e43323b6433232f,,,,,,,,,,,,,,,,,,,,,,,l,0,1.334,"[""0.228"",""0.565"",""0.860"",""0.305""]","[1,1,1,0]",0,59,59,59,1,0,0,,,0,FALSE,,,,,,,,,,,,,,,,,,,,,,,,,,,,,,
,5f4878547f5251349215a519,001,2022-04-28_21h45.54.067,classification_task,2021.2.3,MacIntel,59.99880002,5f4878547f5251349215a519,626b377229c10585ec392f8a,626b513c1e43323b6433232f,,,,,,,,,,,,,,,,,,,,,,,l,1,3.8801,"[""0.127"",""0.271"",""0.683"",""0.766""]","[1,1,0,1]",0,60,60,60,1,1,0,,,0,FALSE,,,,,,,,,,,,,,,,,,,,,,,,,,,,,,
,5f4878547f5251349215a519,001,2022-04-28_21h45.54.067,classification_task,2021.2.3,MacIntel,59.99880002,5f4878547f5251349215a519,626b377229c10585ec392f8a,626b513c1e43323b6433232f,,,,,,,,,,,,,,,,,,,,,,,l,0,1.5159,"[""0.164"",""0.432"",""0.354"",""0.931""]","[1,1,0,1]",0,61,61,61,1,0,1,,,0,FALSE,,,,,,,,,,,,,,,,,,,,,,,,,,,,,,
,5f4878547f5251349215a519,001,2022-04-28_21h45.54.067,classification_task,2021.2.3,MacIntel,59.99880002,5f4878547f5251349215a519,626b377229c10585ec392f8a,626b513c1e43323b6433232f,,,,,,,,,,,,,,,,,,,,,,,l,1,8.0024,"[""0.065"",""0.394"",""0.640"",""0.683""]","[1,1,1,0]",0,62,62,62,1,1,1,,,0,FALSE,,,,,,,,,,,,,,,,,,,,,,,,,,,,,,
,5f4878547f5251349215a519,001,2022-04-28_21h45.54.067,classification_task,2021.2.3,MacIntel,59.99880002,5f4878547f5251349215a519,626b377229c10585ec392f8a,626b513c1e43323b6433232f,,,,,,,,,,,,,,,,,,,,,,,l,1,1.3531,"[""0.127"",""0.271"",""0.500"",""0.696""]","[1,1,1,0]",0,63,63,63,1,1,0,,,0,FALSE,,,,,,,,,,,,,,,,,,,,,,,,,,,,,,
,5f4878547f5251349215a519,001,2022-04-28_21h45.54.067,classification_task,2021.2.3,MacIntel,59.99880002,5f4878547f5251349215a519,626b377229c10585ec392f8a,626b513c1e43323b6433232f,,,,,,,,,,,,,,,,,,,,,,,,,,,,,,,,,,,,,,,0, ,,0,3.427051183,217.4086,0,2,2,2,1,2,3,,,,,,,,,,,,,,,,,
,5f4878547f5251349215a519,001,2022-04-28_21h45.54.067,classification_task,2021.2.3,MacIntel,59.99880002,5f4878547f5251349215a519,626b377229c10585ec392f8a,626b513c1e43323b6433232f,,,,,,,,,,,,,,,,,,,,,,,,,,,,,,,,,,,,,,,1,  ,,0,9.047251617,221.5749,0,2,2,2,1,2,3,,,,,,,,,,,,,,,,,
,5f4878547f5251349215a519,001,2022-04-28_21h45.54.067,classification_task,2021.2.3,MacIntel,59.99880002,5f4878547f5251349215a519,626b377229c10585ec392f8a,626b513c1e43323b6433232f,,,,,,,,,,,,,,,,,,,,,,,,,,,,,,,,,,,,,,,2,  ,,0,6.970577969,225.5586,0,2,2,2,1,2,3,,,,,,,,,,,,,,,,,
,5f4878547f5251349215a519,001,2022-04-28_21h45.54.067,classification_task,2021.2.3,MacIntel,59.99880002,5f4878547f5251349215a519,626b377229c10585ec392f8a,626b513c1e43323b6433232f,,,,,,,,,,,,,,,,,,,,,,,,,,,,,,,,,,,,,,,,,,,,,0,2,2,2,1,,3,,,,,,,,,,,,,,,,,
,5f4878547f5251349215a519,001,2022-04-28_21h45.54.067,classification_task,2021.2.3,MacIntel,59.99880002,5f4878547f5251349215a519,626b377229c10585ec392f8a,626b513c1e43323b6433232f,,,,,,,,,,,,,,,,,,,,,,,,,,,,,,,,,,,,,,,,,,,,,,,,,,,,,I believe the aid is a competent performer,,0.7,0,2,901.691,0,0,0,0,1,0,,,,
,5f4878547f5251349215a519,001,2022-04-28_21h45.54.067,classification_task,2021.2.3,MacIntel,59.99880002,5f4878547f5251349215a519,626b377229c10585ec392f8a,626b513c1e43323b6433232f,,,,,,,,,,,,,,,,,,,,,,,,,,,,,,,,,,,,,,,,,,,,,,,,,,,,,I trust the aid,,0.7,0,3,903.0141,0,0,0,0,1,0,,,,
,5f4878547f5251349215a519,001,2022-04-28_21h45.54.067,classification_task,2021.2.3,MacIntel,59.99880002,5f4878547f5251349215a519,626b377229c10585ec392f8a,626b513c1e43323b6433232f,,,,,,,,,,,,,,,,,,,,,,,,,,,,,,,,,,,,,,,,,,,,,,,,,,,,,I have confidence in the advice given by the aid,,0.7,0,4,905.7937,0,0,0,0,1,0,,,,
,5f4878547f5251349215a519,001,2022-04-28_21h45.54.067,classification_task,2021.2.3,MacIntel,59.99880002,5f4878547f5251349215a519,626b377229c10585ec392f8a,626b513c1e43323b6433232f,,,,,,,,,,,,,,,,,,,,,,,,,,,,,,,,,,,,,,,,,,,,,,,,,,,,,I can depend on the aid,,0.7,0,4,909.1077,0,0,0,0,1,0,,,,
,5f4878547f5251349215a519,001,2022-04-28_21h45.54.067,classification_task,2021.2.3,MacIntel,59.99880002,5f4878547f5251349215a519,626b377229c10585ec392f8a,626b513c1e43323b6433232f,,,,,,,,,,,,,,,,,,,,,,,,,,,,,,,,,,,,,,,,,,,,,,,,,,,,,I can rely on the aid to behave in consistent ways,,0.7,0,4,911.6483,0,0,0,0,1,0,,,,
,5f4878547f5251349215a519,001,2022-04-28_21h45.54.067,classification_task,2021.2.3,MacIntel,59.99880002,5f4878547f5251349215a519,626b377229c10585ec392f8a,626b513c1e43323b6433232f,,,,,,,,,,,,,,,,,,,,,,,,,,,,,,,,,,,,,,,,,,,,,,,,,,,,,I can rely on the aid to do its best every time I take its advice,,0.7,0,4,913.3854,0,0,0,0,1,0,,,,
,5f4878547f5251349215a519,001,2022-04-28_21h45.54.067,classification_task,2021.2.3,MacIntel,59.99880002,5f4878547f5251349215a519,626b377229c10585ec392f8a,626b513c1e43323b6433232f,,,,,,,,,,,,,,,,,,,,,,,,,,,,,,,,,,,,,,,,,,,,,,,,,,,,,"On trials you completed with assistance from the aid, how frequently did you think the aid was correct?",,0.7,0,95,,0,0,0,0,1,0,,,,
,5f4878547f5251349215a519,001,2022-04-28_21h45.54.067,classification_task,2021.2.3,MacIntel,59.99880002,5f4878547f5251349215a519,626b377229c10585ec392f8a,626b513c1e43323b6433232f,,,,,,,,,,,,,,,,,,,,,,,,,,,,,,,,,,,,,,,,,,,,,,,,,,,,,"On trials you completed without the aid, how frequently did you think you were correct?",,0.7,0,55,,0,0,0,0,1,0,,,,
,5f4878547f5251349215a519,001,2022-04-28_21h45.54.067,classification_task,2021.2.3,MacIntel,59.99880002,5f4878547f5251349215a519,626b377229c10585ec392f8a,626b513c1e43323b6433232f,,,,,,,,,,,,,,,,,,,,,,,,,,,,,,,,,,,,,,,,,,,,,,,,,,,,,,,,,,,0,0,0,0,1,,,,,
,5f4878547f5251349215a519,001,2022-04-28_21h45.54.067,classification_task,2021.2.3,MacIntel,59.99880002,5f4878547f5251349215a519,626b377229c10585ec392f8a,626b513c1e43323b6433232f,,,,,,,,,,,,,,,,,,,,,,,,,,,,,,,,,,,,,,,,,,,,,,,,,,,,,,,,,,,,,,,,,space,2.5638,940.3763,
,5f4878547f5251349215a519,001,2022-04-28_21h45.54.067,classification_task,2021.2.3,MacIntel,59.99880002,5f4878547f5251349215a519,626b377229c10585ec392f8a,626b513c1e43323b6433232f,,,,,,,,,,,,,,,,,,,,,,,,,,,,,,,,,,,,,,,,,,,,,,,,,,,,,,,,,,,,,,,,,,,,"Mozilla/5.0 (Macintosh; Intel Mac OS X 10_13_6) AppleWebKit/537.36 (KHTML, like Gecko) Chrome/100.0.4896.127 Safari/537.36"
