usingWebGL,participant,session,date,expName,psychopyVersion,OS,frameRate,PROLIFIC_PID,STUDY_ID,SESSION_ID,signatures_friend,signatures_foe,band_ranges_top,band_ranges_bottom,formitemText,formtype,formundefined,formitemWidth,formindex,formresponse,formrt,key_resp_2.keys,key_resp_2.rt,tute_resp.keys,tute_resp.rt,tutorial.thisRepN,tutorial.thisTrialN,tutorial.thisN,tutorial.thisIndex,tutorial.ran,key_resp_4.keys,key_resp_4.rt,key_resp.keys,key_resp.corr,lines_presented,is_signal_presented,trials.thisRepN,trials.thisTrialN,trials.thisN,trials.thisIndex,trials.ran,vessel,active_band,lines,is_signal,supported_pos,catch_trial,key_resp.rt,debrief_formindex,debrief_formitemText,debrief_formtype,debrief_formitemWidth,debrief_formresponse,debrief_formrt,phases.thisRepN,phases.thisTrialN,phases.thisN,phases.thisIndex,phases.ran,phases.order,phase,key_resp_3.keys,trustitemText,trusttype,trustitemWidth,trustindex,trustresponse,trustrt,support_status.thisRepN,support_status.thisTrialN,support_status.thisN,support_status.thisIndex,support_status.ran,support_status.order,key_resp_5.keys,key_resp_5.rt,globalClockTime,userAgent
TRUE,5f494676e0837811e94a4007,001,2022-04-28_21h17.49.849,classification_task,2021.2.3,Win32,60.02040694,5f494676e0837811e94a4007,626b377229c10585ec392f89,626b3a966871a29d61042c97,,,,,,,,,,,,,,,,,,,,,,,,,,,,,,,,,,,,,,,,,,,,,,,,,,,,,,,,,,,,,,,,,,,,
,5f494676e0837811e94a4007,001,2022-04-28_21h17.49.849,classification_task,2021.2.3,Win32,60.02040694,5f494676e0837811e94a4007,626b377229c10585ec392f89,626b3a966871a29d61042c97,"[[""0.325"",""0.519"",""0.850"",""0.887""],[""0.177"",""0.372"",""0.936"",""0.974""]]","[[""0.051"",""0.251"",""0.560"",""0.702""],[""0.091"",""0.408"",""0.451"",""0.796""]]","[1,10]","[100,1000]",Video game experience,,,0.7,0,,,,,,,,,,,,,,,,,,,,,,,,,,,,,,,,,,,,,,,,,,,,,,,,,,,,,,,,,,,
,5f494676e0837811e94a4007,001,2022-04-28_21h17.49.849,classification_task,2021.2.3,Win32,60.02040694,5f494676e0837811e94a4007,626b377229c10585ec392f89,626b3a966871a29d61042c97,,,,,Approximately how many hours did you spend playing video games in the last week?,,,0.7,0,32,,,,,,,,,,,,,,,,,,,,,,,,,,,,,,,,,,,,,,,,,,,,,,,,,,,,,,,,,,
,5f494676e0837811e94a4007,001,2022-04-28_21h17.49.849,classification_task,2021.2.3,Win32,60.02040694,5f494676e0837811e94a4007,626b377229c10585ec392f89,626b3a966871a29d61042c97,,,,,"Which game did you play the most this year? (Enter ""None"" if you didn't play any)",,,0.7,0,Final Fantasy XIV,,,,,,,,,,,,,,,,,,,,,,,,,,,,,,,,,,,,,,,,,,,,,,,,,,,,,,,,,,
,5f494676e0837811e94a4007,001,2022-04-28_21h17.49.849,classification_task,2021.2.3,Win32,60.02040694,5f494676e0837811e94a4007,626b377229c10585ec392f89,626b3a966871a29d61042c97,,,,,Visual perception,,,0.7,0,,,,,,,,,,,,,,,,,,,,,,,,,,,,,,,,,,,,,,,,,,,,,,,,,,,,,,,,,,,
,5f494676e0837811e94a4007,001,2022-04-28_21h17.49.849,classification_task,2021.2.3,Win32,60.02040694,5f494676e0837811e94a4007,626b377229c10585ec392f89,626b3a966871a29d61042c97,,,,,Do you have any form of color blindness?,,,0.7,0,No,8.926,,,,,,,,,,,,,,,,,,,,,,,,,,,,,,,,,,,,,,,,,,,,,,,,,,,,,,,,,
,5f494676e0837811e94a4007,001,2022-04-28_21h17.49.849,classification_task,2021.2.3,Win32,60.02040694,5f494676e0837811e94a4007,626b377229c10585ec392f89,626b3a966871a29d61042c97,,,,,Do you use software to change the colour temperature of your screen (e.g. f.lux)?,,,0.7,0,No,12.0406,,,,,,,,,,,,,,,,,,,,,,,,,,,,,,,,,,,,,,,,,,,,,,,,,,,,,,,,,
,5f494676e0837811e94a4007,001,2022-04-28_21h17.49.849,classification_task,2021.2.3,Win32,60.02040694,5f494676e0837811e94a4007,626b377229c10585ec392f89,626b3a966871a29d61042c97,,,,,,,,,,,,space,17.7446,space,7.7005,0,0,0,0,1,,,,,,,,,,,,,,,,,,,,,,,,,,,,,,,,,,,,,,,,,,,,,,,,
,5f494676e0837811e94a4007,001,2022-04-28_21h17.49.849,classification_task,2021.2.3,Win32,60.02040694,5f494676e0837811e94a4007,626b377229c10585ec392f89,626b3a966871a29d61042c97,,,,,,,,,,,,,,space,5.9991,1,0,1,0,1,,,,,,,,,,,,,,,,,,,,,,,,,,,,,,,,,,,,,,,,,,,,,,,,
,5f494676e0837811e94a4007,001,2022-04-28_21h17.49.849,classification_task,2021.2.3,Win32,60.02040694,5f494676e0837811e94a4007,626b377229c10585ec392f89,626b3a966871a29d61042c97,,,,,,,,,,,,,,space,72.0676,2,0,2,0,1,,,,,,,,,,,,,,,,,,,,,,,,,,,,,,,,,,,,,,,,,,,,,,,,
,5f494676e0837811e94a4007,001,2022-04-28_21h17.49.849,classification_task,2021.2.3,Win32,60.02040694,5f494676e0837811e94a4007,626b377229c10585ec392f89,626b3a966871a29d61042c97,,,,,,,,,,,,,,space,5.3692,3,0,3,0,1,,,,,,,,,,,,,,,,,,,,,,,,,,,,,,,,,,,,,,,,,,,,,,,,
,5f494676e0837811e94a4007,001,2022-04-28_21h17.49.849,classification_task,2021.2.3,Win32,60.02040694,5f494676e0837811e94a4007,626b377229c10585ec392f89,626b3a966871a29d61042c97,,,,,,,,,,,,,,space,11.3664,4,0,4,0,1,,,,,,,,,,,,,,,,,,,,,,,,,,,,,,,,,,,,,,,,,,,,,,,,
,5f494676e0837811e94a4007,001,2022-04-28_21h17.49.849,classification_task,2021.2.3,Win32,60.02040694,5f494676e0837811e94a4007,626b377229c10585ec392f89,626b3a966871a29d61042c97,,,,,,,,,,,,,,,,,,,,,space,8.7166,,0,"[""0.211"",""0.251"",""0.560"",""0.702""]","[0,1,1,1]",0,0,0,0,1,1,0,,,1,FALSE,,,,,,,,,,,,,,,,,,,,,,,,,,,,,,,
,5f494676e0837811e94a4007,001,2022-04-28_21h17.49.849,classification_task,2021.2.3,Win32,60.02040694,5f494676e0837811e94a4007,626b377229c10585ec392f89,626b3a966871a29d61042c97,,,,,,,,,,,,,,,,,,,,,,,l,1,"[""0.051"",""0.251"",""0.616"",""0.702""]","[1,1,0,1]",0,1,1,1,1,1,0,,,1,FALSE,4.1986,,,,,,,,,,,,,,,,,,,,,,,,,,,,,,
,5f494676e0837811e94a4007,001,2022-04-28_21h17.49.849,classification_task,2021.2.3,Win32,60.02040694,5f494676e0837811e94a4007,626b377229c10585ec392f89,626b3a966871a29d61042c97,,,,,,,,,,,,,,,,,,,,,,,a,1,"[""0.325"",""0.519"",""0.850"",""0.744""]","[1,1,1,0]",0,2,2,2,1,0,0,,,1,FALSE,3.0725,,,,,,,,,,,,,,,,,,,,,,,,,,,,,,
,5f494676e0837811e94a4007,001,2022-04-28_21h17.49.849,classification_task,2021.2.3,Win32,60.02040694,5f494676e0837811e94a4007,626b377229c10585ec392f89,626b3a966871a29d61042c97,,,,,,,,,,,,,,,,,,,,,,,l,1,"[""0.640"",""0.408"",""0.451"",""0.796""]","[0,1,1,1]",0,3,3,3,1,1,1,,,1,FALSE,3.861,,,,,,,,,,,,,,,,,,,,,,,,,,,,,,
,5f494676e0837811e94a4007,001,2022-04-28_21h17.49.849,classification_task,2021.2.3,Win32,60.02040694,5f494676e0837811e94a4007,626b377229c10585ec392f89,626b3a966871a29d61042c97,,,,,,,,,,,,,,,,,,,,,,,a,1,"[""0.325"",""0.211"",""0.850"",""0.887""]","[1,0,1,1]",0,4,4,4,1,0,0,,,1,FALSE,2.4174,,,,,,,,,,,,,,,,,,,,,,,,,,,,,,
,5f494676e0837811e94a4007,001,2022-04-28_21h17.49.849,classification_task,2021.2.3,Win32,60.02040694,5f494676e0837811e94a4007,626b377229c10585ec392f89,626b3a966871a29d61042c97,,,,,,,,,,,,,,,,,,,,,,,l,1,"[""0.051"",""0.211"",""0.560"",""0.702""]","[1,0,1,1]",0,5,5,5,1,1,0,,,1,FALSE,2.3802,,,,,,,,,,,,,,,,,,,,,,,,,,,,,,
,5f494676e0837811e94a4007,001,2022-04-28_21h17.49.849,classification_task,2021.2.3,Win32,60.02040694,5f494676e0837811e94a4007,626b377229c10585ec392f89,626b3a966871a29d61042c97,,,,,,,,,,,,,,,,,,,,,,,a,1,"[""0.211"",""0.372"",""0.936"",""0.974""]","[0,1,1,1]",0,6,6,6,1,0,1,,,1,FALSE,4.551,,,,,,,,,,,,,,,,,,,,,,,,,,,,,,
,5f494676e0837811e94a4007,001,2022-04-28_21h17.49.849,classification_task,2021.2.3,Win32,60.02040694,5f494676e0837811e94a4007,626b377229c10585ec392f89,626b3a966871a29d61042c97,,,,,,,,,,,,,,,,,,,,,,,a,1,"[""0.649"",""0.519"",""0.850"",""0.887""]","[0,1,1,1]",0,7,7,7,1,0,0,,,1,FALSE,5.9235,,,,,,,,,,,,,,,,,,,,,,,,,,,,,,
,5f494676e0837811e94a4007,001,2022-04-28_21h17.49.849,classification_task,2021.2.3,Win32,60.02040694,5f494676e0837811e94a4007,626b377229c10585ec392f89,626b3a966871a29d61042c97,,,,,,,,,,,,,,,,,,,,,,,a,1,"[""0.177"",""0.372"",""0.936"",""0.636""]","[1,1,1,0]",0,8,8,8,1,0,1,,,1,FALSE,3.0512,,,,,,,,,,,,,,,,,,,,,,,,,,,,,,
,5f494676e0837811e94a4007,001,2022-04-28_21h17.49.849,classification_task,2021.2.3,Win32,60.02040694,5f494676e0837811e94a4007,626b377229c10585ec392f89,626b3a966871a29d61042c97,,,,,,,,,,,,,,,,,,,,,,,a,1,"[""0.177"",""0.372"",""0.288"",""0.974""]","[1,1,0,1]",0,9,9,9,1,0,1,,,1,FALSE,2.7371,,,,,,,,,,,,,,,,,,,,,,,,,,,,,,
,5f494676e0837811e94a4007,001,2022-04-28_21h17.49.849,classification_task,2021.2.3,Win32,60.02040694,5f494676e0837811e94a4007,626b377229c10585ec392f89,626b3a966871a29d61042c97,,,,,,,,,,,,,,,,,,,,,,,l,1,"[""0.091"",""0.408"",""0.451"",""0.636""]","[1,1,1,0]",0,10,10,10,1,1,1,,,1,FALSE,2.3338,,,,,,,,,,,,,,,,,,,,,,,,,,,,,,
,5f494676e0837811e94a4007,001,2022-04-28_21h17.49.849,classification_task,2021.2.3,Win32,60.02040694,5f494676e0837811e94a4007,626b377229c10585ec392f89,626b3a966871a29d61042c97,,,,,,,,,,,,,,,,,,,,,,,l,0,"[""0.325"",""0.519"",""0.214"",""0.887""]","[1,1,0,1]",0,11,11,11,1,0,0,,,1,FALSE,5.0031,,,,,,,,,,,,,,,,,,,,,,,,,,,,,,
,5f494676e0837811e94a4007,001,2022-04-28_21h17.49.849,classification_task,2021.2.3,Win32,60.02040694,5f494676e0837811e94a4007,626b377229c10585ec392f89,626b3a966871a29d61042c97,,,,,,,,,,,,,,,,,,,,,,,l,1,"[""0.091"",""0.408"",""0.654"",""0.796""]","[1,1,0,1]",0,12,12,12,1,1,1,,,1,FALSE,3.8908,,,,,,,,,,,,,,,,,,,,,,,,,,,,,,
,5f494676e0837811e94a4007,001,2022-04-28_21h17.49.849,classification_task,2021.2.3,Win32,60.02040694,5f494676e0837811e94a4007,626b377229c10585ec392f89,626b3a966871a29d61042c97,,,,,,,,,,,,,,,,,,,,,,,l,1,"[""0.091"",""0.618"",""0.451"",""0.796""]","[1,0,1,1]",0,13,13,13,1,1,1,,,1,FALSE,4.9586,,,,,,,,,,,,,,,,,,,,,,,,,,,,,,
,5f494676e0837811e94a4007,001,2022-04-28_21h17.49.849,classification_task,2021.2.3,Win32,60.02040694,5f494676e0837811e94a4007,626b377229c10585ec392f89,626b3a966871a29d61042c97,,,,,,,,,,,,,,,,,,,,,,,a,1,"[""0.177"",""0.611"",""0.936"",""0.974""]","[1,0,1,1]",0,14,14,14,1,0,1,,,1,FALSE,5.5844,,,,,,,,,,,,,,,,,,,,,,,,,,,,,,
,5f494676e0837811e94a4007,001,2022-04-28_21h17.49.849,classification_task,2021.2.3,Win32,60.02040694,5f494676e0837811e94a4007,626b377229c10585ec392f89,626b3a966871a29d61042c97,,,,,,,,,,,,,,,,,,,,,,,l,1,"[""0.051"",""0.251"",""0.560"",""0.616""]","[1,1,1,0]",0,15,15,15,1,1,0,,,1,FALSE,3.4232,,,,,,,,,,,,,,,,,,,,,,,,,,,,,,
,5f494676e0837811e94a4007,001,2022-04-28_21h17.49.849,classification_task,2021.2.3,Win32,60.02040694,5f494676e0837811e94a4007,626b377229c10585ec392f89,626b3a966871a29d61042c97,,,,,,,,,,,,,,,,,,,,,,,a,1,"[""0.177"",""0.649"",""0.936"",""0.974""]","[1,0,1,1]",0,16,16,16,1,0,1,,,1,FALSE,1.9875,,,,,,,,,,,,,,,,,,,,,,,,,,,,,,
,5f494676e0837811e94a4007,001,2022-04-28_21h17.49.849,classification_task,2021.2.3,Win32,60.02040694,5f494676e0837811e94a4007,626b377229c10585ec392f89,626b3a966871a29d61042c97,,,,,,,,,,,,,,,,,,,,,,,l,1,"[""0.091"",""0.649"",""0.451"",""0.796""]","[1,0,1,1]",0,17,17,17,1,1,1,,,1,FALSE,3.7764,,,,,,,,,,,,,,,,,,,,,,,,,,,,,,
,5f494676e0837811e94a4007,001,2022-04-28_21h17.49.849,classification_task,2021.2.3,Win32,60.02040694,5f494676e0837811e94a4007,626b377229c10585ec392f89,626b3a966871a29d61042c97,,,,,,,,,,,,,,,,,,,,,,,l,1,"[""0.640"",""0.408"",""0.451"",""0.796""]","[0,1,1,1]",0,18,18,18,1,1,1,,,1,FALSE,4.7096,,,,,,,,,,,,,,,,,,,,,,,,,,,,,,
,5f494676e0837811e94a4007,001,2022-04-28_21h17.49.849,classification_task,2021.2.3,Win32,60.02040694,5f494676e0837811e94a4007,626b377229c10585ec392f89,626b3a966871a29d61042c97,,,,,,,,,,,,,,,,,,,,,,,a,1,"[""0.485"",""0.372"",""0.936"",""0.974""]","[0,1,1,1]",0,19,19,19,1,0,1,,,1,FALSE,4.6947,,,,,,,,,,,,,,,,,,,,,,,,,,,,,,
,5f494676e0837811e94a4007,001,2022-04-28_21h17.49.849,classification_task,2021.2.3,Win32,60.02040694,5f494676e0837811e94a4007,626b377229c10585ec392f89,626b3a966871a29d61042c97,,,,,,,,,,,,,,,,,,,,,,,l,1,"[""0.051"",""0.251"",""0.560"",""0.744""]","[1,1,1,0]",0,20,20,20,1,1,0,,,1,FALSE,2.5498,,,,,,,,,,,,,,,,,,,,,,,,,,,,,,
,5f494676e0837811e94a4007,001,2022-04-28_21h17.49.849,classification_task,2021.2.3,Win32,60.02040694,5f494676e0837811e94a4007,626b377229c10585ec392f89,626b3a966871a29d61042c97,,,,,,,,,,,,,,,,,,,,,,,a,1,"[""0.325"",""0.519"",""0.216"",""0.887""]","[1,1,0,1]",0,21,21,21,1,0,0,,,1,FALSE,1.556,,,,,,,,,,,,,,,,,,,,,,,,,,,,,,
,5f494676e0837811e94a4007,001,2022-04-28_21h17.49.849,classification_task,2021.2.3,Win32,60.02040694,5f494676e0837811e94a4007,626b377229c10585ec392f89,626b3a966871a29d61042c97,,,,,,,,,,,,,,,,,,,,,,,a,1,"[""0.177"",""0.372"",""0.936"",""0.744""]","[1,1,1,0]",0,22,22,22,1,0,1,,,1,FALSE,2.1822,,,,,,,,,,,,,,,,,,,,,,,,,,,,,,
,5f494676e0837811e94a4007,001,2022-04-28_21h17.49.849,classification_task,2021.2.3,Win32,60.02040694,5f494676e0837811e94a4007,626b377229c10585ec392f89,626b3a966871a29d61042c97,,,,,,,,,,,,,,,,,,,,,,,a,1,"[""0.325"",""0.519"",""0.850"",""0.618""]","[1,1,1,0]",0,23,23,23,1,0,0,,,1,FALSE,1.8021,,,,,,,,,,,,,,,,,,,,,,,,,,,,,,
,5f494676e0837811e94a4007,001,2022-04-28_21h17.49.849,classification_task,2021.2.3,Win32,60.02040694,5f494676e0837811e94a4007,626b377229c10585ec392f89,626b3a966871a29d61042c97,,,,,,,,,,,,,,,,,,,,,,,a,0,"[""0.091"",""0.408"",""0.211"",""0.796""]","[1,1,0,1]",0,24,24,24,1,1,1,,,1,FALSE,4.6472,,,,,,,,,,,,,,,,,,,,,,,,,,,,,,
,5f494676e0837811e94a4007,001,2022-04-28_21h17.49.849,classification_task,2021.2.3,Win32,60.02040694,5f494676e0837811e94a4007,626b377229c10585ec392f89,626b3a966871a29d61042c97,,,,,,,,,,,,,,,,,,,,,,,l,1,"[""0.051"",""0.251"",""0.615"",""0.702""]","[1,1,0,1]",0,25,25,25,1,1,0,,,1,FALSE,3.8859,,,,,,,,,,,,,,,,,,,,,,,,,,,,,,
,5f494676e0837811e94a4007,001,2022-04-28_21h17.49.849,classification_task,2021.2.3,Win32,60.02040694,5f494676e0837811e94a4007,626b377229c10585ec392f89,626b3a966871a29d61042c97,,,,,,,,,,,,,,,,,,,,,,,a,1,"[""0.288"",""0.519"",""0.850"",""0.887""]","[0,1,1,1]",0,26,26,26,1,0,0,,,1,FALSE,5.1628,,,,,,,,,,,,,,,,,,,,,,,,,,,,,,
,5f494676e0837811e94a4007,001,2022-04-28_21h17.49.849,classification_task,2021.2.3,Win32,60.02040694,5f494676e0837811e94a4007,626b377229c10585ec392f89,626b3a966871a29d61042c97,,,,,,,,,,,,,,,,,,,,,,,l,1,"[""0.611"",""0.251"",""0.560"",""0.702""]","[0,1,1,1]",0,27,27,27,1,1,0,,,1,FALSE,2.3795,,,,,,,,,,,,,,,,,,,,,,,,,,,,,,
,5f494676e0837811e94a4007,001,2022-04-28_21h17.49.849,classification_task,2021.2.3,Win32,60.02040694,5f494676e0837811e94a4007,626b377229c10585ec392f89,626b3a966871a29d61042c97,,,,,,,,,,,,,,,,,,,,,,,l,1,"[""0.051"",""0.636"",""0.560"",""0.702""]","[1,0,1,1]",0,28,28,28,1,1,0,,,1,FALSE,3.6445,,,,,,,,,,,,,,,,,,,,,,,,,,,,,,
,5f494676e0837811e94a4007,001,2022-04-28_21h17.49.849,classification_task,2021.2.3,Win32,60.02040694,5f494676e0837811e94a4007,626b377229c10585ec392f89,626b3a966871a29d61042c97,,,,,,,,,,,,,,,,,,,,,,,a,0,"[""0.091"",""0.408"",""0.451"",""0.616""]","[1,1,1,0]",0,29,29,29,1,1,1,,,1,FALSE,2.951,,,,,,,,,,,,,,,,,,,,,,,,,,,,,,
,5f494676e0837811e94a4007,001,2022-04-28_21h17.49.849,classification_task,2021.2.3,Win32,60.02040694,5f494676e0837811e94a4007,626b377229c10585ec392f89,626b3a966871a29d61042c97,,,,,,,,,,,,,,,,,,,,,,,a,1,"[""0.177"",""0.372"",""0.737"",""0.974""]","[1,1,0,1]",0,30,30,30,1,0,1,,,1,FALSE,5.0577,,,,,,,,,,,,,,,,,,,,,,,,,,,,,,
,5f494676e0837811e94a4007,001,2022-04-28_21h17.49.849,classification_task,2021.2.3,Win32,60.02040694,5f494676e0837811e94a4007,626b377229c10585ec392f89,626b3a966871a29d61042c97,,,,,,,,,,,,,,,,,,,,,,,a,1,"[""0.325"",""0.737"",""0.850"",""0.887""]","[1,0,1,1]",0,31,31,31,1,0,0,,,1,FALSE,1.7575,,,,,,,,,,,,,,,,,,,,,,,,,,,,,,
,5f494676e0837811e94a4007,001,2022-04-28_21h17.49.849,classification_task,2021.2.3,Win32,60.02040694,5f494676e0837811e94a4007,626b377229c10585ec392f89,626b3a966871a29d61042c97,,,,,,,,,,,,,,,,,,,,,,,a,1,"[""0.325"",""0.616"",""0.850"",""0.887""]","[1,0,1,1]",0,32,32,32,1,0,0,,,1,FALSE,2.1977,,,,,,,,,,,,,,,,,,,,,,,,,,,,,,
,5f494676e0837811e94a4007,001,2022-04-28_21h17.49.849,classification_task,2021.2.3,Win32,60.02040694,5f494676e0837811e94a4007,626b377229c10585ec392f89,626b3a966871a29d61042c97,,,,,,,,,,,,,,,,,,,,,,,l,1,"[""0.051"",""0.251"",""0.214"",""0.702""]","[1,1,0,1]",0,33,33,33,1,1,0,,,1,FALSE,1.5341,,,,,,,,,,,,,,,,,,,,,,,,,,,,,,
,5f494676e0837811e94a4007,001,2022-04-28_21h17.49.849,classification_task,2021.2.3,Win32,60.02040694,5f494676e0837811e94a4007,626b377229c10585ec392f89,626b3a966871a29d61042c97,,,,,,,,,,,,,,,,,,,,,,,l,1,"[""0.091"",""0.408"",""0.743"",""0.796""]","[1,1,0,1]",0,34,34,34,1,1,1,,,1,FALSE,2.8811,,,,,,,,,,,,,,,,,,,,,,,,,,,,,,
,5f494676e0837811e94a4007,001,2022-04-28_21h17.49.849,classification_task,2021.2.3,Win32,60.02040694,5f494676e0837811e94a4007,626b377229c10585ec392f89,626b3a966871a29d61042c97,,,,,,,,,,,,,,,,,,,,,,,a,0,"[""0.051"",""0.251"",""0.560"",""0.611""]","[1,1,1,0]",0,35,35,35,1,1,0,,,1,FALSE,0.9316,,,,,,,,,,,,,,,,,,,,,,,,,,,,,,
,5f494676e0837811e94a4007,001,2022-04-28_21h17.49.849,classification_task,2021.2.3,Win32,60.02040694,5f494676e0837811e94a4007,626b377229c10585ec392f89,626b3a966871a29d61042c97,,,,,,,,,,,,,,,,,,,,,,,a,1,"[""0.177"",""0.372"",""0.744"",""0.974""]","[1,1,0,1]",0,36,36,36,1,0,1,,,1,FALSE,1.1882,,,,,,,,,,,,,,,,,,,,,,,,,,,,,,
,5f494676e0837811e94a4007,001,2022-04-28_21h17.49.849,classification_task,2021.2.3,Win32,60.02040694,5f494676e0837811e94a4007,626b377229c10585ec392f89,626b3a966871a29d61042c97,,,,,,,,,,,,,,,,,,,,,,,l,1,"[""0.091"",""0.408"",""0.451"",""0.640""]","[1,1,1,0]",0,37,37,37,1,1,1,,,1,FALSE,1.4267,,,,,,,,,,,,,,,,,,,,,,,,,,,,,,
,5f494676e0837811e94a4007,001,2022-04-28_21h17.49.849,classification_task,2021.2.3,Win32,60.02040694,5f494676e0837811e94a4007,626b377229c10585ec392f89,626b3a966871a29d61042c97,,,,,,,,,,,,,,,,,,,,,,,a,1,"[""0.325"",""0.519"",""0.850"",""0.744""]","[1,1,1,0]",0,38,38,38,1,0,0,,,1,FALSE,1.1851,,,,,,,,,,,,,,,,,,,,,,,,,,,,,,
,5f494676e0837811e94a4007,001,2022-04-28_21h17.49.849,classification_task,2021.2.3,Win32,60.02040694,5f494676e0837811e94a4007,626b377229c10585ec392f89,626b3a966871a29d61042c97,,,,,,,,,,,,,,,,,,,,,,,a,0,"[""0.216"",""0.408"",""0.451"",""0.796""]","[0,1,1,1]",0,39,39,39,1,1,1,,,1,FALSE,3.6423,,,,,,,,,,,,,,,,,,,,,,,,,,,,,,
,5f494676e0837811e94a4007,001,2022-04-28_21h17.49.849,classification_task,2021.2.3,Win32,60.02040694,5f494676e0837811e94a4007,626b377229c10585ec392f89,626b3a966871a29d61042c97,,,,,,,,,,,,,,,,,,,,,,,l,1,"[""0.211"",""0.251"",""0.560"",""0.702""]","[0,1,1,1]",0,40,40,40,1,1,0,,,1,FALSE,2.3397,,,,,,,,,,,,,,,,,,,,,,,,,,,,,,
,5f494676e0837811e94a4007,001,2022-04-28_21h17.49.849,classification_task,2021.2.3,Win32,60.02040694,5f494676e0837811e94a4007,626b377229c10585ec392f89,626b3a966871a29d61042c97,,,,,,,,,,,,,,,,,,,,,,,a,1,"[""0.325"",""0.519"",""0.737"",""0.887""]","[1,1,0,1]",0,41,41,41,1,0,0,,,1,FALSE,1.3014,,,,,,,,,,,,,,,,,,,,,,,,,,,,,,
,5f494676e0837811e94a4007,001,2022-04-28_21h17.49.849,classification_task,2021.2.3,Win32,60.02040694,5f494676e0837811e94a4007,626b377229c10585ec392f89,626b3a966871a29d61042c97,,,,,,,,,,,,,,,,,,,,,,,a,1,"[""0.211"",""0.372"",""0.936"",""0.974""]","[0,1,1,1]",0,42,42,42,1,0,1,,,1,FALSE,1.1894,,,,,,,,,,,,,,,,,,,,,,,,,,,,,,
,5f494676e0837811e94a4007,001,2022-04-28_21h17.49.849,classification_task,2021.2.3,Win32,60.02040694,5f494676e0837811e94a4007,626b377229c10585ec392f89,626b3a966871a29d61042c97,,,,,,,,,,,,,,,,,,,,,,,l,1,"[""0.091"",""0.615"",""0.451"",""0.796""]","[1,0,1,1]",0,43,43,43,1,1,1,,,1,FALSE,1.3001,,,,,,,,,,,,,,,,,,,,,,,,,,,,,,
,5f494676e0837811e94a4007,001,2022-04-28_21h17.49.849,classification_task,2021.2.3,Win32,60.02040694,5f494676e0837811e94a4007,626b377229c10585ec392f89,626b3a966871a29d61042c97,,,,,,,,,,,,,,,,,,,,,,,a,0,"[""0.051"",""0.211"",""0.560"",""0.702""]","[1,0,1,1]",0,44,44,44,1,1,0,,,1,FALSE,3.1844,,,,,,,,,,,,,,,,,,,,,,,,,,,,,,
,5f494676e0837811e94a4007,001,2022-04-28_21h17.49.849,classification_task,2021.2.3,Win32,60.02040694,5f494676e0837811e94a4007,626b377229c10585ec392f89,626b3a966871a29d61042c97,,,,,,,,,,,,,,,,,,,,,,,a,1,"[""0.177"",""0.618"",""0.936"",""0.974""]","[1,0,1,1]",0,45,45,45,1,0,1,,,1,FALSE,1.8,,,,,,,,,,,,,,,,,,,,,,,,,,,,,,
,5f494676e0837811e94a4007,001,2022-04-28_21h17.49.849,classification_task,2021.2.3,Win32,60.02040694,5f494676e0837811e94a4007,626b377229c10585ec392f89,626b3a966871a29d61042c97,,,,,,,,,,,,,,,,,,,,,,,a,1,"[""0.485"",""0.519"",""0.850"",""0.887""]","[0,1,1,1]",0,46,46,46,1,0,0,,,1,FALSE,2.1989,,,,,,,,,,,,,,,,,,,,,,,,,,,,,,
,5f494676e0837811e94a4007,001,2022-04-28_21h17.49.849,classification_task,2021.2.3,Win32,60.02040694,5f494676e0837811e94a4007,626b377229c10585ec392f89,626b3a966871a29d61042c97,,,,,,,,,,,,,,,,,,,,,,,a,1,"[""0.177"",""0.372"",""0.936"",""0.216""]","[1,1,1,0]",0,47,47,47,1,0,1,,,1,FALSE,2.1177,,,,,,,,,,,,,,,,,,,,,,,,,,,,,,
,5f494676e0837811e94a4007,001,2022-04-28_21h17.49.849,classification_task,2021.2.3,Win32,60.02040694,5f494676e0837811e94a4007,626b377229c10585ec392f89,626b3a966871a29d61042c97,,,,,,,,,,,,,,,,,,,,,,,l,1,"[""0.091"",""0.408"",""0.451"",""0.611""]","[1,1,1,0]",0,48,48,48,1,1,1,,,1,FALSE,3.2689,,,,,,,,,,,,,,,,,,,,,,,,,,,,,,
,5f494676e0837811e94a4007,001,2022-04-28_21h17.49.849,classification_task,2021.2.3,Win32,60.02040694,5f494676e0837811e94a4007,626b377229c10585ec392f89,626b3a966871a29d61042c97,,,,,,,,,,,,,,,,,,,,,,,a,1,"[""0.325"",""0.744"",""0.850"",""0.887""]","[1,0,1,1]",0,49,49,49,1,0,0,,,1,FALSE,1.6503,,,,,,,,,,,,,,,,,,,,,,,,,,,,,,
,5f494676e0837811e94a4007,001,2022-04-28_21h17.49.849,classification_task,2021.2.3,Win32,60.02040694,5f494676e0837811e94a4007,626b377229c10585ec392f89,626b3a966871a29d61042c97,,,,,,,,,,,,,,,,,,,,,,,a,1,"[""0.325"",""0.519"",""0.850"",""0.744""]","[1,1,1,0]",0,50,50,50,1,0,0,,,1,FALSE,1.0665,,,,,,,,,,,,,,,,,,,,,,,,,,,,,,
,5f494676e0837811e94a4007,001,2022-04-28_21h17.49.849,classification_task,2021.2.3,Win32,60.02040694,5f494676e0837811e94a4007,626b377229c10585ec392f89,626b3a966871a29d61042c97,,,,,,,,,,,,,,,,,,,,,,,l,0,"[""0.737"",""0.519"",""0.850"",""0.887""]","[0,1,1,1]",0,51,51,51,1,0,0,,,1,FALSE,1.2426,,,,,,,,,,,,,,,,,,,,,,,,,,,,,,
,5f494676e0837811e94a4007,001,2022-04-28_21h17.49.849,classification_task,2021.2.3,Win32,60.02040694,5f494676e0837811e94a4007,626b377229c10585ec392f89,626b3a966871a29d61042c97,,,,,,,,,,,,,,,,,,,,,,,a,1,"[""0.177"",""0.618"",""0.936"",""0.974""]","[1,0,1,1]",0,52,52,52,1,0,1,,,1,FALSE,1.8044,,,,,,,,,,,,,,,,,,,,,,,,,,,,,,
,5f494676e0837811e94a4007,001,2022-04-28_21h17.49.849,classification_task,2021.2.3,Win32,60.02040694,5f494676e0837811e94a4007,626b377229c10585ec392f89,626b3a966871a29d61042c97,,,,,,,,,,,,,,,,,,,,,,,a,0,"[""0.051"",""0.216"",""0.560"",""0.702""]","[1,0,1,1]",0,53,53,53,1,1,0,,,1,FALSE,2.6674,,,,,,,,,,,,,,,,,,,,,,,,,,,,,,
,5f494676e0837811e94a4007,001,2022-04-28_21h17.49.849,classification_task,2021.2.3,Win32,60.02040694,5f494676e0837811e94a4007,626b377229c10585ec392f89,626b3a966871a29d61042c97,,,,,,,,,,,,,,,,,,,,,,,l,1,"[""0.051"",""0.251"",""0.485"",""0.702""]","[1,1,0,1]",0,54,54,54,1,1,0,,,1,FALSE,0.9674,,,,,,,,,,,,,,,,,,,,,,,,,,,,,,
,5f494676e0837811e94a4007,001,2022-04-28_21h17.49.849,classification_task,2021.2.3,Win32,60.02040694,5f494676e0837811e94a4007,626b377229c10585ec392f89,626b3a966871a29d61042c97,,,,,,,,,,,,,,,,,,,,,,,a,0,"[""0.611"",""0.408"",""0.451"",""0.796""]","[0,1,1,1]",0,55,55,55,1,1,1,,,1,FALSE,1.6175,,,,,,,,,,,,,,,,,,,,,,,,,,,,,,
,5f494676e0837811e94a4007,001,2022-04-28_21h17.49.849,classification_task,2021.2.3,Win32,60.02040694,5f494676e0837811e94a4007,626b377229c10585ec392f89,626b3a966871a29d61042c97,,,,,,,,,,,,,,,,,,,,,,,a,1,"[""0.325"",""0.519"",""0.743"",""0.887""]","[1,1,0,1]",0,56,56,56,1,0,0,,,1,FALSE,1.1672,,,,,,,,,,,,,,,,,,,,,,,,,,,,,,
,5f494676e0837811e94a4007,001,2022-04-28_21h17.49.849,classification_task,2021.2.3,Win32,60.02040694,5f494676e0837811e94a4007,626b377229c10585ec392f89,626b3a966871a29d61042c97,,,,,,,,,,,,,,,,,,,,,,,l,1,"[""0.091"",""0.640"",""0.451"",""0.796""]","[1,0,1,1]",0,57,57,57,1,1,1,,,1,FALSE,1.4006,,,,,,,,,,,,,,,,,,,,,,,,,,,,,,
,5f494676e0837811e94a4007,001,2022-04-28_21h17.49.849,classification_task,2021.2.3,Win32,60.02040694,5f494676e0837811e94a4007,626b377229c10585ec392f89,626b3a966871a29d61042c97,,,,,,,,,,,,,,,,,,,,,,,l,1,"[""0.649"",""0.251"",""0.560"",""0.702""]","[0,1,1,1]",0,58,58,58,1,1,0,,,1,FALSE,1.6673,,,,,,,,,,,,,,,,,,,,,,,,,,,,,,
,5f494676e0837811e94a4007,001,2022-04-28_21h17.49.849,classification_task,2021.2.3,Win32,60.02040694,5f494676e0837811e94a4007,626b377229c10585ec392f89,626b3a966871a29d61042c97,,,,,,,,,,,,,,,,,,,,,,,l,0,"[""0.640"",""0.372"",""0.936"",""0.974""]","[0,1,1,1]",0,59,59,59,1,0,1,,,1,FALSE,1.615,,,,,,,,,,,,,,,,,,,,,,,,,,,,,,
,5f494676e0837811e94a4007,001,2022-04-28_21h17.49.849,classification_task,2021.2.3,Win32,60.02040694,5f494676e0837811e94a4007,626b377229c10585ec392f89,626b3a966871a29d61042c97,,,,,,,,,,,,,,,,,,,,,,,a,1,"[""0.177"",""0.372"",""0.640"",""0.974""]","[1,1,0,1]",0,60,60,60,1,0,1,,,1,FALSE,2.2048,,,,,,,,,,,,,,,,,,,,,,,,,,,,,,
,5f494676e0837811e94a4007,001,2022-04-28_21h17.49.849,classification_task,2021.2.3,Win32,60.02040694,5f494676e0837811e94a4007,626b377229c10585ec392f89,626b3a966871a29d61042c97,,,,,,,,,,,,,,,,,,,,,,,a,1,"[""0.177"",""0.372"",""0.936"",""0.288""]","[1,1,1,0]",0,61,61,61,1,0,1,,,1,FALSE,1.0671,,,,,,,,,,,,,,,,,,,,,,,,,,,,,,
,5f494676e0837811e94a4007,001,2022-04-28_21h17.49.849,classification_task,2021.2.3,Win32,60.02040694,5f494676e0837811e94a4007,626b377229c10585ec392f89,626b3a966871a29d61042c97,,,,,,,,,,,,,,,,,,,,,,,a,0,"[""0.051"",""0.251"",""0.560"",""0.743""]","[1,1,1,0]",0,62,62,62,1,1,0,,,1,FALSE,2.47,,,,,,,,,,,,,,,,,,,,,,,,,,,,,,
,5f494676e0837811e94a4007,001,2022-04-28_21h17.49.849,classification_task,2021.2.3,Win32,60.02040694,5f494676e0837811e94a4007,626b377229c10585ec392f89,626b3a966871a29d61042c97,,,,,,,,,,,,,,,,,,,,,,,l,1,"[""0.091"",""0.408"",""0.616"",""0.796""]","[1,1,0,1]",0,63,63,63,1,1,1,,,1,FALSE,1.5698,,,,,,,,,,,,,,,,,,,,,,,,,,,,,,
,5f494676e0837811e94a4007,001,2022-04-28_21h17.49.849,classification_task,2021.2.3,Win32,60.02040694,5f494676e0837811e94a4007,626b377229c10585ec392f89,626b3a966871a29d61042c97,,,,,,,,,,,,,,,,,,,,,,,,,,,,,,,,,,,,,,,0, ,,0,4.608073682,408.1746,0,0,0,0,1,2,1,,,,,,,,,,,,,,,,,
,5f494676e0837811e94a4007,001,2022-04-28_21h17.49.849,classification_task,2021.2.3,Win32,60.02040694,5f494676e0837811e94a4007,626b377229c10585ec392f89,626b3a966871a29d61042c97,,,,,,,,,,,,,,,,,,,,,,,,,,,,,,,,,,,,,,,1,  ,,0,3.750734862,412.6122,0,0,0,0,1,2,1,,,,,,,,,,,,,,,,,
,5f494676e0837811e94a4007,001,2022-04-28_21h17.49.849,classification_task,2021.2.3,Win32,60.02040694,5f494676e0837811e94a4007,626b377229c10585ec392f89,626b3a966871a29d61042c97,,,,,,,,,,,,,,,,,,,,,,,,,,,,,,,,,,,,,,,2,  ,,0,0.835782873,417.4272,0,0,0,0,1,2,1,,,,,,,,,,,,,,,,,
,5f494676e0837811e94a4007,001,2022-04-28_21h17.49.849,classification_task,2021.2.3,Win32,60.02040694,5f494676e0837811e94a4007,626b377229c10585ec392f89,626b3a966871a29d61042c97,,,,,,,,,,,,,,,,,,,,,,,,,,,,,,,,,,,,,,,,,,,,,0,0,0,0,1,,1,,,,,,,,,,,,,,,,,
,5f494676e0837811e94a4007,001,2022-04-28_21h17.49.849,classification_task,2021.2.3,Win32,60.02040694,5f494676e0837811e94a4007,626b377229c10585ec392f89,626b3a966871a29d61042c97,,,,,,,,,,,,,,,,,,,,,space,4.7586,a,1,"[""0.177"",""0.615"",""0.936"",""0.974""]","[1,0,1,1]",0,0,0,0,1,0,1,,,1,FALSE,3.8648,,,,,,,,,,,,,,,,,,,,,,,,,,,,,,
,5f494676e0837811e94a4007,001,2022-04-28_21h17.49.849,classification_task,2021.2.3,Win32,60.02040694,5f494676e0837811e94a4007,626b377229c10585ec392f89,626b3a966871a29d61042c97,,,,,,,,,,,,,,,,,,,,,,,a,1,"[""0.325"",""0.519"",""0.850"",""0.288""]","[1,1,1,0]",0,1,1,1,1,0,0,,,1,FALSE,1.9482,,,,,,,,,,,,,,,,,,,,,,,,,,,,,,
,5f494676e0837811e94a4007,001,2022-04-28_21h17.49.849,classification_task,2021.2.3,Win32,60.02040694,5f494676e0837811e94a4007,626b377229c10585ec392f89,626b3a966871a29d61042c97,,,,,,,,,,,,,,,,,,,,,,,l,1,"[""0.051"",""0.216"",""0.560"",""0.702""]","[1,0,1,1]",0,2,2,2,1,1,0,,,1,FALSE,2.3835,,,,,,,,,,,,,,,,,,,,,,,,,,,,,,
,5f494676e0837811e94a4007,001,2022-04-28_21h17.49.849,classification_task,2021.2.3,Win32,60.02040694,5f494676e0837811e94a4007,626b377229c10585ec392f89,626b3a966871a29d61042c97,,,,,,,,,,,,,,,,,,,,,,,a,0,"[""0.091"",""0.408"",""0.451"",""0.211""]","[1,1,1,0]",0,3,3,3,1,1,1,,,1,FALSE,3.2142,,,,,,,,,,,,,,,,,,,,,,,,,,,,,,
,5f494676e0837811e94a4007,001,2022-04-28_21h17.49.849,classification_task,2021.2.3,Win32,60.02040694,5f494676e0837811e94a4007,626b377229c10585ec392f89,626b3a966871a29d61042c97,,,,,,,,,,,,,,,,,,,,,,,a,1,"[""0.737"",""0.372"",""0.936"",""0.974""]","[0,1,1,1]",0,4,4,4,1,0,1,,,1,FALSE,1.2704,,,,,,,,,,,,,,,,,,,,,,,,,,,,,,
,5f494676e0837811e94a4007,001,2022-04-28_21h17.49.849,classification_task,2021.2.3,Win32,60.02040694,5f494676e0837811e94a4007,626b377229c10585ec392f89,626b3a966871a29d61042c97,,,,,,,,,,,,,,,,,,,,,,,l,0,"[""0.325"",""0.616"",""0.850"",""0.887""]","[1,0,1,1]",0,5,5,5,1,0,0,,,1,FALSE,1.3048,,,,,,,,,,,,,,,,,,,,,,,,,,,,,,
,5f494676e0837811e94a4007,001,2022-04-28_21h17.49.849,classification_task,2021.2.3,Win32,60.02040694,5f494676e0837811e94a4007,626b377229c10585ec392f89,626b3a966871a29d61042c97,,,,,,,,,,,,,,,,,,,,,,,a,1,"[""0.325"",""0.519"",""0.654"",""0.887""]","[1,1,0,1]",0,6,6,6,1,0,0,,,1,FALSE,1.1237,,,,,,,,,,,,,,,,,,,,,,,,,,,,,,
,5f494676e0837811e94a4007,001,2022-04-28_21h17.49.849,classification_task,2021.2.3,Win32,60.02040694,5f494676e0837811e94a4007,626b377229c10585ec392f89,626b3a966871a29d61042c97,,,,,,,,,,,,,,,,,,,,,,,a,1,"[""0.649"",""0.519"",""0.850"",""0.887""]","[0,1,1,1]",0,7,7,7,1,0,0,,,1,FALSE,2.3098,,,,,,,,,,,,,,,,,,,,,,,,,,,,,,
,5f494676e0837811e94a4007,001,2022-04-28_21h17.49.849,classification_task,2021.2.3,Win32,60.02040694,5f494676e0837811e94a4007,626b377229c10585ec392f89,626b3a966871a29d61042c97,,,,,,,,,,,,,,,,,,,,,,,l,1,"[""0.051"",""0.251"",""0.618"",""0.702""]","[1,1,0,1]",0,8,8,8,1,1,0,,,1,FALSE,1.6514,,,,,,,,,,,,,,,,,,,,,,,,,,,,,,
,5f494676e0837811e94a4007,001,2022-04-28_21h17.49.849,classification_task,2021.2.3,Win32,60.02040694,5f494676e0837811e94a4007,626b377229c10585ec392f89,626b3a966871a29d61042c97,,,,,,,,,,,,,,,,,,,,,,,l,1,"[""0.091"",""0.408"",""0.743"",""0.796""]","[1,1,0,1]",0,9,9,9,1,1,1,,,1,FALSE,1.4332,,,,,,,,,,,,,,,,,,,,,,,,,,,,,,
,5f494676e0837811e94a4007,001,2022-04-28_21h17.49.849,classification_task,2021.2.3,Win32,60.02040694,5f494676e0837811e94a4007,626b377229c10585ec392f89,626b3a966871a29d61042c97,,,,,,,,,,,,,,,,,,,,,,,l,1,"[""0.636"",""0.408"",""0.451"",""0.796""]","[0,1,1,1]",0,10,10,10,1,1,1,,,1,FALSE,1.4307,,,,,,,,,,,,,,,,,,,,,,,,,,,,,,
,5f494676e0837811e94a4007,001,2022-04-28_21h17.49.849,classification_task,2021.2.3,Win32,60.02040694,5f494676e0837811e94a4007,626b377229c10585ec392f89,626b3a966871a29d61042c97,,,,,,,,,,,,,,,,,,,,,,,a,0,"[""0.091"",""0.211"",""0.451"",""0.796""]","[1,0,1,1]",0,11,11,11,1,1,1,,,1,FALSE,1.5479,,,,,,,,,,,,,,,,,,,,,,,,,,,,,,
,5f494676e0837811e94a4007,001,2022-04-28_21h17.49.849,classification_task,2021.2.3,Win32,60.02040694,5f494676e0837811e94a4007,626b377229c10585ec392f89,626b3a966871a29d61042c97,,,,,,,,,,,,,,,,,,,,,,,a,0,"[""0.640"",""0.251"",""0.560"",""0.702""]","[0,1,1,1]",0,12,12,12,1,1,0,,,1,FALSE,1.2037,,,,,,,,,,,,,,,,,,,,,,,,,,,,,,
,5f494676e0837811e94a4007,001,2022-04-28_21h17.49.849,classification_task,2021.2.3,Win32,60.02040694,5f494676e0837811e94a4007,626b377229c10585ec392f89,626b3a966871a29d61042c97,,,,,,,,,,,,,,,,,,,,,,,a,1,"[""0.177"",""0.372"",""0.640"",""0.974""]","[1,1,0,1]",0,13,13,13,1,0,1,,,1,FALSE,3.0591,,,,,,,,,,,,,,,,,,,,,,,,,,,,,,
,5f494676e0837811e94a4007,001,2022-04-28_21h17.49.849,classification_task,2021.2.3,Win32,60.02040694,5f494676e0837811e94a4007,626b377229c10585ec392f89,626b3a966871a29d61042c97,,,,,,,,,,,,,,,,,,,,,,,l,1,"[""0.051"",""0.251"",""0.560"",""0.649""]","[1,1,1,0]",0,14,14,14,1,1,0,,,1,FALSE,1.3852,,,,,,,,,,,,,,,,,,,,,,,,,,,,,,
,5f494676e0837811e94a4007,001,2022-04-28_21h17.49.849,classification_task,2021.2.3,Win32,60.02040694,5f494676e0837811e94a4007,626b377229c10585ec392f89,626b3a966871a29d61042c97,,,,,,,,,,,,,,,,,,,,,,,a,1,"[""0.177"",""0.372"",""0.936"",""0.737""]","[1,1,1,0]",0,15,15,15,1,0,1,,,1,FALSE,2.6551,,,,,,,,,,,,,,,,,,,,,,,,,,,,,,
,5f494676e0837811e94a4007,001,2022-04-28_21h17.49.849,classification_task,2021.2.3,Win32,60.02040694,5f494676e0837811e94a4007,626b377229c10585ec392f89,626b3a966871a29d61042c97,,,,,,,,,,,,,,,,,,,,,,,a,1,"[""0.177"",""0.372"",""0.288"",""0.974""]","[1,1,0,1]",0,16,16,16,1,0,1,,,1,FALSE,1.1343,,,,,,,,,,,,,,,,,,,,,,,,,,,,,,
,5f494676e0837811e94a4007,001,2022-04-28_21h17.49.849,classification_task,2021.2.3,Win32,60.02040694,5f494676e0837811e94a4007,626b377229c10585ec392f89,626b3a966871a29d61042c97,,,,,,,,,,,,,,,,,,,,,,,l,1,"[""0.051"",""0.251"",""0.211"",""0.702""]","[1,1,0,1]",0,17,17,17,1,1,0,,,1,FALSE,3.6152,,,,,,,,,,,,,,,,,,,,,,,,,,,,,,
,5f494676e0837811e94a4007,001,2022-04-28_21h17.49.849,classification_task,2021.2.3,Win32,60.02040694,5f494676e0837811e94a4007,626b377229c10585ec392f89,626b3a966871a29d61042c97,,,,,,,,,,,,,,,,,,,,,,,l,1,"[""0.091"",""0.485"",""0.451"",""0.796""]","[1,0,1,1]",0,18,18,18,1,1,1,,,1,FALSE,1.4454,,,,,,,,,,,,,,,,,,,,,,,,,,,,,,
,5f494676e0837811e94a4007,001,2022-04-28_21h17.49.849,classification_task,2021.2.3,Win32,60.02040694,5f494676e0837811e94a4007,626b377229c10585ec392f89,626b3a966871a29d61042c97,,,,,,,,,,,,,,,,,,,,,,,l,1,"[""0.051"",""0.251"",""0.560"",""0.611""]","[1,1,1,0]",0,19,19,19,1,1,0,,,1,FALSE,1.0265,,,,,,,,,,,,,,,,,,,,,,,,,,,,,,
,5f494676e0837811e94a4007,001,2022-04-28_21h17.49.849,classification_task,2021.2.3,Win32,60.02040694,5f494676e0837811e94a4007,626b377229c10585ec392f89,626b3a966871a29d61042c97,,,,,,,,,,,,,,,,,,,,,,,a,1,"[""0.325"",""0.519"",""0.615"",""0.887""]","[1,1,0,1]",0,20,20,20,1,0,0,,,1,FALSE,2.1425,,,,,,,,,,,,,,,,,,,,,,,,,,,,,,
,5f494676e0837811e94a4007,001,2022-04-28_21h17.49.849,classification_task,2021.2.3,Win32,60.02040694,5f494676e0837811e94a4007,626b377229c10585ec392f89,626b3a966871a29d61042c97,,,,,,,,,,,,,,,,,,,,,,,l,1,"[""0.091"",""0.408"",""0.216"",""0.796""]","[1,1,0,1]",0,21,21,21,1,1,1,,,1,FALSE,1.5195,,,,,,,,,,,,,,,,,,,,,,,,,,,,,,
,5f494676e0837811e94a4007,001,2022-04-28_21h17.49.849,classification_task,2021.2.3,Win32,60.02040694,5f494676e0837811e94a4007,626b377229c10585ec392f89,626b3a966871a29d61042c97,,,,,,,,,,,,,,,,,,,,,,,a,1,"[""0.325"",""0.216"",""0.850"",""0.887""]","[1,0,1,1]",0,22,22,22,1,0,0,,,1,FALSE,1.967,,,,,,,,,,,,,,,,,,,,,,,,,,,,,,
,5f494676e0837811e94a4007,001,2022-04-28_21h17.49.849,classification_task,2021.2.3,Win32,60.02040694,5f494676e0837811e94a4007,626b377229c10585ec392f89,626b3a966871a29d61042c97,,,,,,,,,,,,,,,,,,,,,,,l,0,"[""0.654"",""0.372"",""0.936"",""0.974""]","[0,1,1,1]",0,23,23,23,1,0,1,,,1,FALSE,2.0525,,,,,,,,,,,,,,,,,,,,,,,,,,,,,,
,5f494676e0837811e94a4007,001,2022-04-28_21h17.49.849,classification_task,2021.2.3,Win32,60.02040694,5f494676e0837811e94a4007,626b377229c10585ec392f89,626b3a966871a29d61042c97,,,,,,,,,,,,,,,,,,,,,,,a,0,"[""0.091"",""0.408"",""0.451"",""0.211""]","[1,1,1,0]",0,24,24,24,1,1,1,,,1,FALSE,3.796,,,,,,,,,,,,,,,,,,,,,,,,,,,,,,
,5f494676e0837811e94a4007,001,2022-04-28_21h17.49.849,classification_task,2021.2.3,Win32,60.02040694,5f494676e0837811e94a4007,626b377229c10585ec392f89,626b3a966871a29d61042c97,,,,,,,,,,,,,,,,,,,,,,,a,0,"[""0.288"",""0.408"",""0.451"",""0.796""]","[0,1,1,1]",0,25,25,25,1,1,1,,,1,FALSE,3.8184,,,,,,,,,,,,,,,,,,,,,,,,,,,,,,
,5f494676e0837811e94a4007,001,2022-04-28_21h17.49.849,classification_task,2021.2.3,Win32,60.02040694,5f494676e0837811e94a4007,626b377229c10585ec392f89,626b3a966871a29d61042c97,,,,,,,,,,,,,,,,,,,,,,,a,1,"[""0.177"",""0.372"",""0.936"",""0.743""]","[1,1,1,0]",0,26,26,26,1,0,1,,,1,FALSE,1.7858,,,,,,,,,,,,,,,,,,,,,,,,,,,,,,
,5f494676e0837811e94a4007,001,2022-04-28_21h17.49.849,classification_task,2021.2.3,Win32,60.02040694,5f494676e0837811e94a4007,626b377229c10585ec392f89,626b3a966871a29d61042c97,,,,,,,,,,,,,,,,,,,,,,,a,1,"[""0.214"",""0.519"",""0.850"",""0.887""]","[0,1,1,1]",0,27,27,27,1,0,0,,,1,FALSE,1.5278,,,,,,,,,,,,,,,,,,,,,,,,,,,,,,
,5f494676e0837811e94a4007,001,2022-04-28_21h17.49.849,classification_task,2021.2.3,Win32,60.02040694,5f494676e0837811e94a4007,626b377229c10585ec392f89,626b3a966871a29d61042c97,,,,,,,,,,,,,,,,,,,,,,,a,0,"[""0.743"",""0.251"",""0.560"",""0.702""]","[0,1,1,1]",0,28,28,28,1,1,0,,,1,FALSE,1.2185,,,,,,,,,,,,,,,,,,,,,,,,,,,,,,
,5f494676e0837811e94a4007,001,2022-04-28_21h17.49.849,classification_task,2021.2.3,Win32,60.02040694,5f494676e0837811e94a4007,626b377229c10585ec392f89,626b3a966871a29d61042c97,,,,,,,,,,,,,,,,,,,,,,,a,1,"[""0.177"",""0.737"",""0.936"",""0.974""]","[1,0,1,1]",0,29,29,29,1,0,1,,,1,FALSE,1.2887,,,,,,,,,,,,,,,,,,,,,,,,,,,,,,
,5f494676e0837811e94a4007,001,2022-04-28_21h17.49.849,classification_task,2021.2.3,Win32,60.02040694,5f494676e0837811e94a4007,626b377229c10585ec392f89,626b3a966871a29d61042c97,,,,,,,,,,,,,,,,,,,,,,,a,1,"[""0.325"",""0.519"",""0.850"",""0.743""]","[1,1,1,0]",0,30,30,30,1,0,0,,,1,FALSE,1.452,,,,,,,,,,,,,,,,,,,,,,,,,,,,,,
,5f494676e0837811e94a4007,001,2022-04-28_21h17.49.849,classification_task,2021.2.3,Win32,60.02040694,5f494676e0837811e94a4007,626b377229c10585ec392f89,626b3a966871a29d61042c97,,,,,,,,,,,,,,,,,,,,,,,l,1,"[""0.051"",""0.485"",""0.560"",""0.702""]","[1,0,1,1]",0,31,31,31,1,1,0,,,1,FALSE,2.5699,,,,,,,,,,,,,,,,,,,,,,,,,,,,,,
,5f494676e0837811e94a4007,001,2022-04-28_21h17.49.849,classification_task,2021.2.3,Win32,60.02040694,5f494676e0837811e94a4007,626b377229c10585ec392f89,626b3a966871a29d61042c97,,,,,,,,,,,,,,,,,,,,,,,l,0,"[""0.615"",""0.372"",""0.936"",""0.974""]","[0,1,1,1]",0,32,32,32,1,0,1,,,1,FALSE,1.2746,,,,,,,,,,,,,,,,,,,,,,,,,,,,,,
,5f494676e0837811e94a4007,001,2022-04-28_21h17.49.849,classification_task,2021.2.3,Win32,60.02040694,5f494676e0837811e94a4007,626b377229c10585ec392f89,626b3a966871a29d61042c97,,,,,,,,,,,,,,,,,,,,,,,l,1,"[""0.288"",""0.251"",""0.560"",""0.702""]","[0,1,1,1]",0,33,33,33,1,1,0,,,1,FALSE,2.3498,,,,,,,,,,,,,,,,,,,,,,,,,,,,,,
,5f494676e0837811e94a4007,001,2022-04-28_21h17.49.849,classification_task,2021.2.3,Win32,60.02040694,5f494676e0837811e94a4007,626b377229c10585ec392f89,626b3a966871a29d61042c97,,,,,,,,,,,,,,,,,,,,,,,a,1,"[""0.177"",""0.372"",""0.936"",""0.615""]","[1,1,1,0]",0,34,34,34,1,0,1,,,1,FALSE,1.6384,,,,,,,,,,,,,,,,,,,,,,,,,,,,,,
,5f494676e0837811e94a4007,001,2022-04-28_21h17.49.849,classification_task,2021.2.3,Win32,60.02040694,5f494676e0837811e94a4007,626b377229c10585ec392f89,626b3a966871a29d61042c97,,,,,,,,,,,,,,,,,,,,,,,a,0,"[""0.051"",""0.485"",""0.560"",""0.702""]","[1,0,1,1]",0,35,35,35,1,1,0,,,1,FALSE,2.0376,,,,,,,,,,,,,,,,,,,,,,,,,,,,,,
,5f494676e0837811e94a4007,001,2022-04-28_21h17.49.849,classification_task,2021.2.3,Win32,60.02040694,5f494676e0837811e94a4007,626b377229c10585ec392f89,626b3a966871a29d61042c97,,,,,,,,,,,,,,,,,,,,,,,l,0,"[""0.325"",""0.519"",""0.850"",""0.211""]","[1,1,1,0]",0,36,36,36,1,0,0,,,1,FALSE,2.3795,,,,,,,,,,,,,,,,,,,,,,,,,,,,,,
,5f494676e0837811e94a4007,001,2022-04-28_21h17.49.849,classification_task,2021.2.3,Win32,60.02040694,5f494676e0837811e94a4007,626b377229c10585ec392f89,626b3a966871a29d61042c97,,,,,,,,,,,,,,,,,,,,,,,l,1,"[""0.091"",""0.408"",""0.654"",""0.796""]","[1,1,0,1]",0,37,37,37,1,1,1,,,1,FALSE,1.5886,,,,,,,,,,,,,,,,,,,,,,,,,,,,,,
,5f494676e0837811e94a4007,001,2022-04-28_21h17.49.849,classification_task,2021.2.3,Win32,60.02040694,5f494676e0837811e94a4007,626b377229c10585ec392f89,626b3a966871a29d61042c97,,,,,,,,,,,,,,,,,,,,,,,l,0,"[""0.325"",""0.519"",""0.211"",""0.887""]","[1,1,0,1]",0,38,38,38,1,0,0,,,1,FALSE,1.1077,,,,,,,,,,,,,,,,,,,,,,,,,,,,,,
,5f494676e0837811e94a4007,001,2022-04-28_21h17.49.849,classification_task,2021.2.3,Win32,60.02040694,5f494676e0837811e94a4007,626b377229c10585ec392f89,626b3a966871a29d61042c97,,,,,,,,,,,,,,,,,,,,,,,l,1,"[""0.051"",""0.251"",""0.616"",""0.702""]","[1,1,0,1]",0,39,39,39,1,1,0,,,1,FALSE,2.0065,,,,,,,,,,,,,,,,,,,,,,,,,,,,,,
,5f494676e0837811e94a4007,001,2022-04-28_21h17.49.849,classification_task,2021.2.3,Win32,60.02040694,5f494676e0837811e94a4007,626b377229c10585ec392f89,626b3a966871a29d61042c97,,,,,,,,,,,,,,,,,,,,,,,l,1,"[""0.091"",""0.408"",""0.451"",""0.485""]","[1,1,1,0]",0,40,40,40,1,1,1,,,1,FALSE,1.4965,,,,,,,,,,,,,,,,,,,,,,,,,,,,,,
,5f494676e0837811e94a4007,001,2022-04-28_21h17.49.849,classification_task,2021.2.3,Win32,60.02040694,5f494676e0837811e94a4007,626b377229c10585ec392f89,626b3a966871a29d61042c97,,,,,,,,,,,,,,,,,,,,,,,a,1,"[""0.177"",""0.372"",""0.611"",""0.974""]","[1,1,0,1]",0,41,41,41,1,0,1,,,1,FALSE,1.4249,,,,,,,,,,,,,,,,,,,,,,,,,,,,,,
,5f494676e0837811e94a4007,001,2022-04-28_21h17.49.849,classification_task,2021.2.3,Win32,60.02040694,5f494676e0837811e94a4007,626b377229c10585ec392f89,626b3a966871a29d61042c97,,,,,,,,,,,,,,,,,,,,,,,a,1,"[""0.325"",""0.211"",""0.850"",""0.887""]","[1,0,1,1]",0,42,42,42,1,0,0,,,1,FALSE,1.4071,,,,,,,,,,,,,,,,,,,,,,,,,,,,,,
,5f494676e0837811e94a4007,001,2022-04-28_21h17.49.849,classification_task,2021.2.3,Win32,60.02040694,5f494676e0837811e94a4007,626b377229c10585ec392f89,626b3a966871a29d61042c97,,,,,,,,,,,,,,,,,,,,,,,l,1,"[""0.091"",""0.288"",""0.451"",""0.796""]","[1,0,1,1]",0,43,43,43,1,1,1,,,1,FALSE,1.9015,,,,,,,,,,,,,,,,,,,,,,,,,,,,,,
,5f494676e0837811e94a4007,001,2022-04-28_21h17.49.849,classification_task,2021.2.3,Win32,60.02040694,5f494676e0837811e94a4007,626b377229c10585ec392f89,626b3a966871a29d61042c97,,,,,,,,,,,,,,,,,,,,,,,a,1,"[""0.177"",""0.288"",""0.936"",""0.974""]","[1,0,1,1]",0,44,44,44,1,0,1,,,1,FALSE,1.137,,,,,,,,,,,,,,,,,,,,,,,,,,,,,,
,5f494676e0837811e94a4007,001,2022-04-28_21h17.49.849,classification_task,2021.2.3,Win32,60.02040694,5f494676e0837811e94a4007,626b377229c10585ec392f89,626b3a966871a29d61042c97,,,,,,,,,,,,,,,,,,,,,,,l,1,"[""0.051"",""0.251"",""0.560"",""0.743""]","[1,1,1,0]",0,45,45,45,1,1,0,,,1,FALSE,1.3733,,,,,,,,,,,,,,,,,,,,,,,,,,,,,,
,5f494676e0837811e94a4007,001,2022-04-28_21h17.49.849,classification_task,2021.2.3,Win32,60.02040694,5f494676e0837811e94a4007,626b377229c10585ec392f89,626b3a966871a29d61042c97,,,,,,,,,,,,,,,,,,,,,,,l,0,"[""0.214"",""0.519"",""0.850"",""0.887""]","[0,1,1,1]",0,46,46,46,1,0,0,,,1,FALSE,1.7397,,,,,,,,,,,,,,,,,,,,,,,,,,,,,,
,5f494676e0837811e94a4007,001,2022-04-28_21h17.49.849,classification_task,2021.2.3,Win32,60.02040694,5f494676e0837811e94a4007,626b377229c10585ec392f89,626b3a966871a29d61042c97,,,,,,,,,,,,,,,,,,,,,,,a,0,"[""0.288"",""0.408"",""0.451"",""0.796""]","[0,1,1,1]",0,47,47,47,1,1,1,,,1,FALSE,1.5751,,,,,,,,,,,,,,,,,,,,,,,,,,,,,,
,5f494676e0837811e94a4007,001,2022-04-28_21h17.49.849,classification_task,2021.2.3,Win32,60.02040694,5f494676e0837811e94a4007,626b377229c10585ec392f89,626b3a966871a29d61042c97,,,,,,,,,,,,,,,,,,,,,,,l,1,"[""0.051"",""0.251"",""0.616"",""0.702""]","[1,1,0,1]",0,48,48,48,1,1,0,,,1,FALSE,1.4157,,,,,,,,,,,,,,,,,,,,,,,,,,,,,,
,5f494676e0837811e94a4007,001,2022-04-28_21h17.49.849,classification_task,2021.2.3,Win32,60.02040694,5f494676e0837811e94a4007,626b377229c10585ec392f89,626b3a966871a29d61042c97,,,,,,,,,,,,,,,,,,,,,,,a,1,"[""0.177"",""0.372"",""0.737"",""0.974""]","[1,1,0,1]",0,49,49,49,1,0,1,,,1,FALSE,1.3506,,,,,,,,,,,,,,,,,,,,,,,,,,,,,,
,5f494676e0837811e94a4007,001,2022-04-28_21h17.49.849,classification_task,2021.2.3,Win32,60.02040694,5f494676e0837811e94a4007,626b377229c10585ec392f89,626b3a966871a29d61042c97,,,,,,,,,,,,,,,,,,,,,,,l,1,"[""0.051"",""0.251"",""0.560"",""0.611""]","[1,1,1,0]",0,50,50,50,1,1,0,,,1,FALSE,1.349,,,,,,,,,,,,,,,,,,,,,,,,,,,,,,
,5f494676e0837811e94a4007,001,2022-04-28_21h17.49.849,classification_task,2021.2.3,Win32,60.02040694,5f494676e0837811e94a4007,626b377229c10585ec392f89,626b3a966871a29d61042c97,,,,,,,,,,,,,,,,,,,,,,,l,1,"[""0.091"",""0.408"",""0.211"",""0.796""]","[1,1,0,1]",0,51,51,51,1,1,1,,,1,FALSE,1.8997,,,,,,,,,,,,,,,,,,,,,,,,,,,,,,
,5f494676e0837811e94a4007,001,2022-04-28_21h17.49.849,classification_task,2021.2.3,Win32,60.02040694,5f494676e0837811e94a4007,626b377229c10585ec392f89,626b3a966871a29d61042c97,,,,,,,,,,,,,,,,,,,,,,,l,1,"[""0.091"",""0.640"",""0.451"",""0.796""]","[1,0,1,1]",0,52,52,52,1,1,1,,,1,FALSE,0.7841,,,,,,,,,,,,,,,,,,,,,,,,,,,,,,
,5f494676e0837811e94a4007,001,2022-04-28_21h17.49.849,classification_task,2021.2.3,Win32,60.02040694,5f494676e0837811e94a4007,626b377229c10585ec392f89,626b3a966871a29d61042c97,,,,,,,,,,,,,,,,,,,,,,,a,1,"[""0.325"",""0.519"",""0.615"",""0.887""]","[1,1,0,1]",0,53,53,53,1,0,0,,,1,FALSE,1.9346,,,,,,,,,,,,,,,,,,,,,,,,,,,,,,
,5f494676e0837811e94a4007,001,2022-04-28_21h17.49.849,classification_task,2021.2.3,Win32,60.02040694,5f494676e0837811e94a4007,626b377229c10585ec392f89,626b3a966871a29d61042c97,,,,,,,,,,,,,,,,,,,,,,,a,0,"[""0.615"",""0.408"",""0.451"",""0.796""]","[0,1,1,1]",0,54,54,54,1,1,1,,,1,FALSE,1.7902,,,,,,,,,,,,,,,,,,,,,,,,,,,,,,
,5f494676e0837811e94a4007,001,2022-04-28_21h17.49.849,classification_task,2021.2.3,Win32,60.02040694,5f494676e0837811e94a4007,626b377229c10585ec392f89,626b3a966871a29d61042c97,,,,,,,,,,,,,,,,,,,,,,,l,1,"[""0.091"",""0.408"",""0.451"",""0.743""]","[1,1,1,0]",0,55,55,55,1,1,1,,,1,FALSE,1.2755,,,,,,,,,,,,,,,,,,,,,,,,,,,,,,
,5f494676e0837811e94a4007,001,2022-04-28_21h17.49.849,classification_task,2021.2.3,Win32,60.02040694,5f494676e0837811e94a4007,626b377229c10585ec392f89,626b3a966871a29d61042c97,,,,,,,,,,,,,,,,,,,,,,,a,1,"[""0.177"",""0.372"",""0.936"",""0.615""]","[1,1,1,0]",0,56,56,56,1,0,1,,,1,FALSE,1.1148,,,,,,,,,,,,,,,,,,,,,,,,,,,,,,
,5f494676e0837811e94a4007,001,2022-04-28_21h17.49.849,classification_task,2021.2.3,Win32,60.02040694,5f494676e0837811e94a4007,626b377229c10585ec392f89,626b3a966871a29d61042c97,,,,,,,,,,,,,,,,,,,,,,,a,1,"[""0.325"",""0.211"",""0.850"",""0.887""]","[1,0,1,1]",0,57,57,57,1,0,0,,,1,FALSE,2.4159,,,,,,,,,,,,,,,,,,,,,,,,,,,,,,
,5f494676e0837811e94a4007,001,2022-04-28_21h17.49.849,classification_task,2021.2.3,Win32,60.02040694,5f494676e0837811e94a4007,626b377229c10585ec392f89,626b3a966871a29d61042c97,,,,,,,,,,,,,,,,,,,,,,,l,1,"[""0.051"",""0.211"",""0.560"",""0.702""]","[1,0,1,1]",0,58,58,58,1,1,0,,,1,FALSE,1.3374,,,,,,,,,,,,,,,,,,,,,,,,,,,,,,
,5f494676e0837811e94a4007,001,2022-04-28_21h17.49.849,classification_task,2021.2.3,Win32,60.02040694,5f494676e0837811e94a4007,626b377229c10585ec392f89,626b3a966871a29d61042c97,,,,,,,,,,,,,,,,,,,,,,,a,1,"[""0.211"",""0.519"",""0.850"",""0.887""]","[0,1,1,1]",0,59,59,59,1,0,0,,,1,FALSE,0.9387,,,,,,,,,,,,,,,,,,,,,,,,,,,,,,
,5f494676e0837811e94a4007,001,2022-04-28_21h17.49.849,classification_task,2021.2.3,Win32,60.02040694,5f494676e0837811e94a4007,626b377229c10585ec392f89,626b3a966871a29d61042c97,,,,,,,,,,,,,,,,,,,,,,,a,1,"[""0.177"",""0.615"",""0.936"",""0.974""]","[1,0,1,1]",0,60,60,60,1,0,1,,,1,FALSE,1.6363,,,,,,,,,,,,,,,,,,,,,,,,,,,,,,
,5f494676e0837811e94a4007,001,2022-04-28_21h17.49.849,classification_task,2021.2.3,Win32,60.02040694,5f494676e0837811e94a4007,626b377229c10585ec392f89,626b3a966871a29d61042c97,,,,,,,,,,,,,,,,,,,,,,,l,0,"[""0.654"",""0.372"",""0.936"",""0.974""]","[0,1,1,1]",0,61,61,61,1,0,1,,,1,FALSE,1.5179,,,,,,,,,,,,,,,,,,,,,,,,,,,,,,
,5f494676e0837811e94a4007,001,2022-04-28_21h17.49.849,classification_task,2021.2.3,Win32,60.02040694,5f494676e0837811e94a4007,626b377229c10585ec392f89,626b3a966871a29d61042c97,,,,,,,,,,,,,,,,,,,,,,,a,1,"[""0.325"",""0.519"",""0.850"",""0.214""]","[1,1,1,0]",0,62,62,62,1,0,0,,,1,FALSE,1.5185,,,,,,,,,,,,,,,,,,,,,,,,,,,,,,
,5f494676e0837811e94a4007,001,2022-04-28_21h17.49.849,classification_task,2021.2.3,Win32,60.02040694,5f494676e0837811e94a4007,626b377229c10585ec392f89,626b3a966871a29d61042c97,,,,,,,,,,,,,,,,,,,,,,,l,1,"[""0.743"",""0.251"",""0.560"",""0.702""]","[0,1,1,1]",0,63,63,63,1,1,0,,,1,FALSE,1.3672,,,,,,,,,,,,,,,,,,,,,,,,,,,,,,
,5f494676e0837811e94a4007,001,2022-04-28_21h17.49.849,classification_task,2021.2.3,Win32,60.02040694,5f494676e0837811e94a4007,626b377229c10585ec392f89,626b3a966871a29d61042c97,,,,,,,,,,,,,,,,,,,,,,,,,,,,,,,,,,,,,,,0, ,,0,2.574955908,189.9012,0,1,1,1,1,2,2,,,,,,,,,,,,,,,,,
,5f494676e0837811e94a4007,001,2022-04-28_21h17.49.849,classification_task,2021.2.3,Win32,60.02040694,5f494676e0837811e94a4007,626b377229c10585ec392f89,626b3a966871a29d61042c97,,,,,,,,,,,,,,,,,,,,,,,,,,,,,,,,,,,,,,,1,  ,,0,3.309817754,192.3004,0,1,1,1,1,2,2,,,,,,,,,,,,,,,,,
,5f494676e0837811e94a4007,001,2022-04-28_21h17.49.849,classification_task,2021.2.3,Win32,60.02040694,5f494676e0837811e94a4007,626b377229c10585ec392f89,626b3a966871a29d61042c97,,,,,,,,,,,,,,,,,,,,,,,,,,,,,,,,,,,,,,,2,  ,,0,0.272388791,194.7168,0,1,1,1,1,2,2,,,,,,,,,,,,,,,,,
,5f494676e0837811e94a4007,001,2022-04-28_21h17.49.849,classification_task,2021.2.3,Win32,60.02040694,5f494676e0837811e94a4007,626b377229c10585ec392f89,626b3a966871a29d61042c97,,,,,,,,,,,,,,,,,,,,,,,,,,,,,,,,,,,,,,,,,,,,,0,1,1,1,1,,2,,,,,,,,,,,,,,,,,
,5f494676e0837811e94a4007,001,2022-04-28_21h17.49.849,classification_task,2021.2.3,Win32,60.02040694,5f494676e0837811e94a4007,626b377229c10585ec392f89,626b3a966871a29d61042c97,,,,,,,,,,,,,,,,,,,,,space,3.82,l,1,"[""0.051"",""0.251"",""0.654"",""0.702""]","[1,1,0,1]",0,0,0,0,1,1,0,,,1,FALSE,2.0173,,,,,,,,,,,,,,,,,,,,,,,,,,,,,,
,5f494676e0837811e94a4007,001,2022-04-28_21h17.49.849,classification_task,2021.2.3,Win32,60.02040694,5f494676e0837811e94a4007,626b377229c10585ec392f89,626b3a966871a29d61042c97,,,,,,,,,,,,,,,,,,,,,,,l,1,"[""0.091"",""0.408"",""0.611"",""0.796""]","[1,1,0,1]",0,1,1,1,1,1,1,,,1,FALSE,2.8496,,,,,,,,,,,,,,,,,,,,,,,,,,,,,,
,5f494676e0837811e94a4007,001,2022-04-28_21h17.49.849,classification_task,2021.2.3,Win32,60.02040694,5f494676e0837811e94a4007,626b377229c10585ec392f89,626b3a966871a29d61042c97,,,,,,,,,,,,,,,,,,,,,,,l,0,"[""0.737"",""0.372"",""0.936"",""0.974""]","[0,1,1,1]",0,2,2,2,1,0,1,,,1,FALSE,1.6056,,,,,,,,,,,,,,,,,,,,,,,,,,,,,,
,5f494676e0837811e94a4007,001,2022-04-28_21h17.49.849,classification_task,2021.2.3,Win32,60.02040694,5f494676e0837811e94a4007,626b377229c10585ec392f89,626b3a966871a29d61042c97,,,,,,,,,,,,,,,,,,,,,,,l,1,"[""0.743"",""0.251"",""0.560"",""0.702""]","[0,1,1,1]",0,3,3,3,1,1,0,,,1,FALSE,3.427,,,,,,,,,,,,,,,,,,,,,,,,,,,,,,
,5f494676e0837811e94a4007,001,2022-04-28_21h17.49.849,classification_task,2021.2.3,Win32,60.02040694,5f494676e0837811e94a4007,626b377229c10585ec392f89,626b3a966871a29d61042c97,,,,,,,,,,,,,,,,,,,,,,,a,1,"[""0.325"",""0.743"",""0.850"",""0.887""]","[1,0,1,1]",0,4,4,4,1,0,0,,,1,FALSE,0.8592,,,,,,,,,,,,,,,,,,,,,,,,,,,,,,
,5f494676e0837811e94a4007,001,2022-04-28_21h17.49.849,classification_task,2021.2.3,Win32,60.02040694,5f494676e0837811e94a4007,626b377229c10585ec392f89,626b3a966871a29d61042c97,,,,,,,,,,,,,,,,,,,,,,,a,1,"[""0.325"",""0.519"",""0.850"",""0.211""]","[1,1,1,0]",0,5,5,5,1,0,0,,,1,FALSE,2.6611,,,,,,,,,,,,,,,,,,,,,,,,,,,,,,
,5f494676e0837811e94a4007,001,2022-04-28_21h17.49.849,classification_task,2021.2.3,Win32,60.02040694,5f494676e0837811e94a4007,626b377229c10585ec392f89,626b3a966871a29d61042c97,,,,,,,,,,,,,,,,,,,,,,,a,1,"[""0.636"",""0.519"",""0.850"",""0.887""]","[0,1,1,1]",0,6,6,6,1,0,0,,,1,FALSE,2.4687,,,,,,,,,,,,,,,,,,,,,,,,,,,,,,
,5f494676e0837811e94a4007,001,2022-04-28_21h17.49.849,classification_task,2021.2.3,Win32,60.02040694,5f494676e0837811e94a4007,626b377229c10585ec392f89,626b3a966871a29d61042c97,,,,,,,,,,,,,,,,,,,,,,,l,1,"[""0.091"",""0.408"",""0.451"",""0.615""]","[1,1,1,0]",0,7,7,7,1,1,1,,,1,FALSE,1.7043,,,,,,,,,,,,,,,,,,,,,,,,,,,,,,
,5f494676e0837811e94a4007,001,2022-04-28_21h17.49.849,classification_task,2021.2.3,Win32,60.02040694,5f494676e0837811e94a4007,626b377229c10585ec392f89,626b3a966871a29d61042c97,,,,,,,,,,,,,,,,,,,,,,,l,1,"[""0.051"",""0.743"",""0.560"",""0.702""]","[1,0,1,1]",0,8,8,8,1,1,0,,,1,FALSE,1.655,,,,,,,,,,,,,,,,,,,,,,,,,,,,,,
,5f494676e0837811e94a4007,001,2022-04-28_21h17.49.849,classification_task,2021.2.3,Win32,60.02040694,5f494676e0837811e94a4007,626b377229c10585ec392f89,626b3a966871a29d61042c97,,,,,,,,,,,,,,,,,,,,,,,a,0,"[""0.616"",""0.408"",""0.451"",""0.796""]","[0,1,1,1]",0,9,9,9,1,1,1,,,1,FALSE,2.1994,,,,,,,,,,,,,,,,,,,,,,,,,,,,,,
,5f494676e0837811e94a4007,001,2022-04-28_21h17.49.849,classification_task,2021.2.3,Win32,60.02040694,5f494676e0837811e94a4007,626b377229c10585ec392f89,626b3a966871a29d61042c97,,,,,,,,,,,,,,,,,,,,,,,a,1,"[""0.177"",""0.636"",""0.936"",""0.974""]","[1,0,1,1]",0,10,10,10,1,0,1,,,1,FALSE,1.3222,,,,,,,,,,,,,,,,,,,,,,,,,,,,,,
,5f494676e0837811e94a4007,001,2022-04-28_21h17.49.849,classification_task,2021.2.3,Win32,60.02040694,5f494676e0837811e94a4007,626b377229c10585ec392f89,626b3a966871a29d61042c97,,,,,,,,,,,,,,,,,,,,,,,a,1,"[""0.177"",""0.372"",""0.611"",""0.974""]","[1,1,0,1]",0,11,11,11,1,0,1,,,1,FALSE,0.8387,,,,,,,,,,,,,,,,,,,,,,,,,,,,,,
,5f494676e0837811e94a4007,001,2022-04-28_21h17.49.849,classification_task,2021.2.3,Win32,60.02040694,5f494676e0837811e94a4007,626b377229c10585ec392f89,626b3a966871a29d61042c97,,,,,,,,,,,,,,,,,,,,,,,l,1,"[""0.091"",""0.649"",""0.451"",""0.796""]","[1,0,1,1]",0,12,12,12,1,1,1,,,1,FALSE,2.3733,,,,,,,,,,,,,,,,,,,,,,,,,,,,,,
,5f494676e0837811e94a4007,001,2022-04-28_21h17.49.849,classification_task,2021.2.3,Win32,60.02040694,5f494676e0837811e94a4007,626b377229c10585ec392f89,626b3a966871a29d61042c97,,,,,,,,,,,,,,,,,,,,,,,l,1,"[""0.051"",""0.251"",""0.560"",""0.636""]","[1,1,1,0]",0,13,13,13,1,1,0,,,1,FALSE,1.6334,,,,,,,,,,,,,,,,,,,,,,,,,,,,,,
,5f494676e0837811e94a4007,001,2022-04-28_21h17.49.849,classification_task,2021.2.3,Win32,60.02040694,5f494676e0837811e94a4007,626b377229c10585ec392f89,626b3a966871a29d61042c97,,,,,,,,,,,,,,,,,,,,,,,a,1,"[""0.177"",""0.372"",""0.936"",""0.616""]","[1,1,1,0]",0,14,14,14,1,0,1,,,1,FALSE,1.5482,,,,,,,,,,,,,,,,,,,,,,,,,,,,,,
,5f494676e0837811e94a4007,001,2022-04-28_21h17.49.849,classification_task,2021.2.3,Win32,60.02040694,5f494676e0837811e94a4007,626b377229c10585ec392f89,626b3a966871a29d61042c97,,,,,,,,,,,,,,,,,,,,,,,a,1,"[""0.325"",""0.519"",""0.737"",""0.887""]","[1,1,0,1]",0,15,15,15,1,0,0,,,1,FALSE,1.7025,,,,,,,,,,,,,,,,,,,,,,,,,,,,,,
,5f494676e0837811e94a4007,001,2022-04-28_21h17.49.849,classification_task,2021.2.3,Win32,60.02040694,5f494676e0837811e94a4007,626b377229c10585ec392f89,626b3a966871a29d61042c97,,,,,,,,,,,,,,,,,,,,,,,a,1,"[""0.737"",""0.519"",""0.850"",""0.887""]","[0,1,1,1]",0,16,16,16,1,0,0,,,1,FALSE,2.4158,,,,,,,,,,,,,,,,,,,,,,,,,,,,,,
,5f494676e0837811e94a4007,001,2022-04-28_21h17.49.849,classification_task,2021.2.3,Win32,60.02040694,5f494676e0837811e94a4007,626b377229c10585ec392f89,626b3a966871a29d61042c97,,,,,,,,,,,,,,,,,,,,,,,a,1,"[""0.325"",""0.519"",""0.850"",""0.654""]","[1,1,1,0]",0,17,17,17,1,0,0,,,1,FALSE,1.1171,,,,,,,,,,,,,,,,,,,,,,,,,,,,,,
,5f494676e0837811e94a4007,001,2022-04-28_21h17.49.849,classification_task,2021.2.3,Win32,60.02040694,5f494676e0837811e94a4007,626b377229c10585ec392f89,626b3a966871a29d61042c97,,,,,,,,,,,,,,,,,,,,,,,l,0,"[""0.618"",""0.372"",""0.936"",""0.974""]","[0,1,1,1]",0,18,18,18,1,0,1,,,1,FALSE,2.5172,,,,,,,,,,,,,,,,,,,,,,,,,,,,,,
,5f494676e0837811e94a4007,001,2022-04-28_21h17.49.849,classification_task,2021.2.3,Win32,60.02040694,5f494676e0837811e94a4007,626b377229c10585ec392f89,626b3a966871a29d61042c97,,,,,,,,,,,,,,,,,,,,,,,l,1,"[""0.091"",""0.408"",""0.216"",""0.796""]","[1,1,0,1]",0,19,19,19,1,1,1,,,1,FALSE,2.5717,,,,,,,,,,,,,,,,,,,,,,,,,,,,,,
,5f494676e0837811e94a4007,001,2022-04-28_21h17.49.849,classification_task,2021.2.3,Win32,60.02040694,5f494676e0837811e94a4007,626b377229c10585ec392f89,626b3a966871a29d61042c97,,,,,,,,,,,,,,,,,,,,,,,a,0,"[""0.615"",""0.408"",""0.451"",""0.796""]","[0,1,1,1]",0,20,20,20,1,1,1,,,1,FALSE,1.7983,,,,,,,,,,,,,,,,,,,,,,,,,,,,,,
,5f494676e0837811e94a4007,001,2022-04-28_21h17.49.849,classification_task,2021.2.3,Win32,60.02040694,5f494676e0837811e94a4007,626b377229c10585ec392f89,626b3a966871a29d61042c97,,,,,,,,,,,,,,,,,,,,,,,a,1,"[""0.177"",""0.372"",""0.936"",""0.216""]","[1,1,1,0]",0,21,21,21,1,0,1,,,1,FALSE,1.3263,,,,,,,,,,,,,,,,,,,,,,,,,,,,,,
,5f494676e0837811e94a4007,001,2022-04-28_21h17.49.849,classification_task,2021.2.3,Win32,60.02040694,5f494676e0837811e94a4007,626b377229c10585ec392f89,626b3a966871a29d61042c97,,,,,,,,,,,,,,,,,,,,,,,l,1,"[""0.091"",""0.618"",""0.451"",""0.796""]","[1,0,1,1]",0,22,22,22,1,1,1,,,1,FALSE,1.0336,,,,,,,,,,,,,,,,,,,,,,,,,,,,,,
,5f494676e0837811e94a4007,001,2022-04-28_21h17.49.849,classification_task,2021.2.3,Win32,60.02040694,5f494676e0837811e94a4007,626b377229c10585ec392f89,626b3a966871a29d61042c97,,,,,,,,,,,,,,,,,,,,,,,l,1,"[""0.744"",""0.251"",""0.560"",""0.702""]","[0,1,1,1]",0,23,23,23,1,1,0,,,1,FALSE,1.8754,,,,,,,,,,,,,,,,,,,,,,,,,,,,,,
,5f494676e0837811e94a4007,001,2022-04-28_21h17.49.849,classification_task,2021.2.3,Win32,60.02040694,5f494676e0837811e94a4007,626b377229c10585ec392f89,626b3a966871a29d61042c97,,,,,,,,,,,,,,,,,,,,,,,a,1,"[""0.325"",""0.519"",""0.636"",""0.887""]","[1,1,0,1]",0,24,24,24,1,0,0,,,1,FALSE,0.7761,,,,,,,,,,,,,,,,,,,,,,,,,,,,,,
,5f494676e0837811e94a4007,001,2022-04-28_21h17.49.849,classification_task,2021.2.3,Win32,60.02040694,5f494676e0837811e94a4007,626b377229c10585ec392f89,626b3a966871a29d61042c97,,,,,,,,,,,,,,,,,,,,,,,l,1,"[""0.051"",""0.737"",""0.560"",""0.702""]","[1,0,1,1]",0,25,25,25,1,1,0,,,1,FALSE,1.0086,,,,,,,,,,,,,,,,,,,,,,,,,,,,,,
,5f494676e0837811e94a4007,001,2022-04-28_21h17.49.849,classification_task,2021.2.3,Win32,60.02040694,5f494676e0837811e94a4007,626b377229c10585ec392f89,626b3a966871a29d61042c97,,,,,,,,,,,,,,,,,,,,,,,a,1,"[""0.325"",""0.611"",""0.850"",""0.887""]","[1,0,1,1]",0,26,26,26,1,0,0,,,1,FALSE,0.7682,,,,,,,,,,,,,,,,,,,,,,,,,,,,,,
,5f494676e0837811e94a4007,001,2022-04-28_21h17.49.849,classification_task,2021.2.3,Win32,60.02040694,5f494676e0837811e94a4007,626b377229c10585ec392f89,626b3a966871a29d61042c97,,,,,,,,,,,,,,,,,,,,,,,l,1,"[""0.051"",""0.251"",""0.636"",""0.702""]","[1,1,0,1]",0,27,27,27,1,1,0,,,1,FALSE,1.0191,,,,,,,,,,,,,,,,,,,,,,,,,,,,,,
,5f494676e0837811e94a4007,001,2022-04-28_21h17.49.849,classification_task,2021.2.3,Win32,60.02040694,5f494676e0837811e94a4007,626b377229c10585ec392f89,626b3a966871a29d61042c97,,,,,,,,,,,,,,,,,,,,,,,l,1,"[""0.051"",""0.251"",""0.560"",""0.640""]","[1,1,1,0]",0,28,28,28,1,1,0,,,1,FALSE,0.7574,,,,,,,,,,,,,,,,,,,,,,,,,,,,,,
,5f494676e0837811e94a4007,001,2022-04-28_21h17.49.849,classification_task,2021.2.3,Win32,60.02040694,5f494676e0837811e94a4007,626b377229c10585ec392f89,626b3a966871a29d61042c97,,,,,,,,,,,,,,,,,,,,,,,a,1,"[""0.177"",""0.372"",""0.615"",""0.974""]","[1,1,0,1]",0,29,29,29,1,0,1,,,1,FALSE,1.1023,,,,,,,,,,,,,,,,,,,,,,,,,,,,,,
,5f494676e0837811e94a4007,001,2022-04-28_21h17.49.849,classification_task,2021.2.3,Win32,60.02040694,5f494676e0837811e94a4007,626b377229c10585ec392f89,626b3a966871a29d61042c97,,,,,,,,,,,,,,,,,,,,,,,a,1,"[""0.177"",""0.616"",""0.936"",""0.974""]","[1,0,1,1]",0,30,30,30,1,0,1,,,1,FALSE,0.9617,,,,,,,,,,,,,,,,,,,,,,,,,,,,,,
,5f494676e0837811e94a4007,001,2022-04-28_21h17.49.849,classification_task,2021.2.3,Win32,60.02040694,5f494676e0837811e94a4007,626b377229c10585ec392f89,626b3a966871a29d61042c97,,,,,,,,,,,,,,,,,,,,,,,l,1,"[""0.091"",""0.408"",""0.451"",""0.743""]","[1,1,1,0]",0,31,31,31,1,1,1,,,1,FALSE,1.4426,,,,,,,,,,,,,,,,,,,,,,,,,,,,,,
,5f494676e0837811e94a4007,001,2022-04-28_21h17.49.849,classification_task,2021.2.3,Win32,60.02040694,5f494676e0837811e94a4007,626b377229c10585ec392f89,626b3a966871a29d61042c97,,,,,,,,,,,,,,,,,,,,,,,l,1,"[""0.051"",""0.251"",""0.560"",""0.616""]","[1,1,1,0]",0,32,32,32,1,1,0,,,1,FALSE,1.2663,,,,,,,,,,,,,,,,,,,,,,,,,,,,,,
,5f494676e0837811e94a4007,001,2022-04-28_21h17.49.849,classification_task,2021.2.3,Win32,60.02040694,5f494676e0837811e94a4007,626b377229c10585ec392f89,626b3a966871a29d61042c97,,,,,,,,,,,,,,,,,,,,,,,l,1,"[""0.051"",""0.251"",""0.649"",""0.702""]","[1,1,0,1]",0,33,33,33,1,1,0,,,1,FALSE,0.6667,,,,,,,,,,,,,,,,,,,,,,,,,,,,,,
,5f494676e0837811e94a4007,001,2022-04-28_21h17.49.849,classification_task,2021.2.3,Win32,60.02040694,5f494676e0837811e94a4007,626b377229c10585ec392f89,626b3a966871a29d61042c97,,,,,,,,,,,,,,,,,,,,,,,a,0,"[""0.616"",""0.408"",""0.451"",""0.796""]","[0,1,1,1]",0,34,34,34,1,1,1,,,1,FALSE,1.4742,,,,,,,,,,,,,,,,,,,,,,,,,,,,,,
,5f494676e0837811e94a4007,001,2022-04-28_21h17.49.849,classification_task,2021.2.3,Win32,60.02040694,5f494676e0837811e94a4007,626b377229c10585ec392f89,626b3a966871a29d61042c97,,,,,,,,,,,,,,,,,,,,,,,l,1,"[""0.640"",""0.251"",""0.560"",""0.702""]","[0,1,1,1]",0,35,35,35,1,1,0,,,1,FALSE,2.5498,,,,,,,,,,,,,,,,,,,,,,,,,,,,,,
,5f494676e0837811e94a4007,001,2022-04-28_21h17.49.849,classification_task,2021.2.3,Win32,60.02040694,5f494676e0837811e94a4007,626b377229c10585ec392f89,626b3a966871a29d61042c97,,,,,,,,,,,,,,,,,,,,,,,a,1,"[""0.325"",""0.519"",""0.288"",""0.887""]","[1,1,0,1]",0,36,36,36,1,0,0,,,1,FALSE,0.684,,,,,,,,,,,,,,,,,,,,,,,,,,,,,,
,5f494676e0837811e94a4007,001,2022-04-28_21h17.49.849,classification_task,2021.2.3,Win32,60.02040694,5f494676e0837811e94a4007,626b377229c10585ec392f89,626b3a966871a29d61042c97,,,,,,,,,,,,,,,,,,,,,,,a,1,"[""0.325"",""0.519"",""0.850"",""0.640""]","[1,1,1,0]",0,37,37,37,1,0,0,,,1,FALSE,1.273,,,,,,,,,,,,,,,,,,,,,,,,,,,,,,
,5f494676e0837811e94a4007,001,2022-04-28_21h17.49.849,classification_task,2021.2.3,Win32,60.02040694,5f494676e0837811e94a4007,626b377229c10585ec392f89,626b3a966871a29d61042c97,,,,,,,,,,,,,,,,,,,,,,,a,1,"[""0.611"",""0.372"",""0.936"",""0.974""]","[0,1,1,1]",0,38,38,38,1,0,1,,,1,FALSE,2.0825,,,,,,,,,,,,,,,,,,,,,,,,,,,,,,
,5f494676e0837811e94a4007,001,2022-04-28_21h17.49.849,classification_task,2021.2.3,Win32,60.02040694,5f494676e0837811e94a4007,626b377229c10585ec392f89,626b3a966871a29d61042c97,,,,,,,,,,,,,,,,,,,,,,,a,1,"[""0.216"",""0.519"",""0.850"",""0.887""]","[0,1,1,1]",0,39,39,39,1,0,0,,,1,FALSE,3.0101,,,,,,,,,,,,,,,,,,,,,,,,,,,,,,
,5f494676e0837811e94a4007,001,2022-04-28_21h17.49.849,classification_task,2021.2.3,Win32,60.02040694,5f494676e0837811e94a4007,626b377229c10585ec392f89,626b3a966871a29d61042c97,,,,,,,,,,,,,,,,,,,,,,,l,1,"[""0.091"",""0.408"",""0.485"",""0.796""]","[1,1,0,1]",0,40,40,40,1,1,1,,,1,FALSE,1.4717,,,,,,,,,,,,,,,,,,,,,,,,,,,,,,
,5f494676e0837811e94a4007,001,2022-04-28_21h17.49.849,classification_task,2021.2.3,Win32,60.02040694,5f494676e0837811e94a4007,626b377229c10585ec392f89,626b3a966871a29d61042c97,,,,,,,,,,,,,,,,,,,,,,,a,1,"[""0.177"",""0.611"",""0.936"",""0.974""]","[1,0,1,1]",0,41,41,41,1,0,1,,,1,FALSE,1.3779,,,,,,,,,,,,,,,,,,,,,,,,,,,,,,
,5f494676e0837811e94a4007,001,2022-04-28_21h17.49.849,classification_task,2021.2.3,Win32,60.02040694,5f494676e0837811e94a4007,626b377229c10585ec392f89,626b3a966871a29d61042c97,,,,,,,,,,,,,,,,,,,,,,,l,1,"[""0.051"",""0.743"",""0.560"",""0.702""]","[1,0,1,1]",0,42,42,42,1,1,0,,,1,FALSE,2.6329,,,,,,,,,,,,,,,,,,,,,,,,,,,,,,
,5f494676e0837811e94a4007,001,2022-04-28_21h17.49.849,classification_task,2021.2.3,Win32,60.02040694,5f494676e0837811e94a4007,626b377229c10585ec392f89,626b3a966871a29d61042c97,,,,,,,,,,,,,,,,,,,,,,,a,1,"[""0.177"",""0.372"",""0.936"",""0.654""]","[1,1,1,0]",0,43,43,43,1,0,1,,,1,FALSE,1.7285,,,,,,,,,,,,,,,,,,,,,,,,,,,,,,
,5f494676e0837811e94a4007,001,2022-04-28_21h17.49.849,classification_task,2021.2.3,Win32,60.02040694,5f494676e0837811e94a4007,626b377229c10585ec392f89,626b3a966871a29d61042c97,,,,,,,,,,,,,,,,,,,,,,,a,1,"[""0.325"",""0.616"",""0.850"",""0.887""]","[1,0,1,1]",0,44,44,44,1,0,0,,,1,FALSE,1.7037,,,,,,,,,,,,,,,,,,,,,,,,,,,,,,
,5f494676e0837811e94a4007,001,2022-04-28_21h17.49.849,classification_task,2021.2.3,Win32,60.02040694,5f494676e0837811e94a4007,626b377229c10585ec392f89,626b3a966871a29d61042c97,,,,,,,,,,,,,,,,,,,,,,,a,1,"[""0.177"",""0.372"",""0.744"",""0.974""]","[1,1,0,1]",0,45,45,45,1,0,1,,,1,FALSE,1.5696,,,,,,,,,,,,,,,,,,,,,,,,,,,,,,
,5f494676e0837811e94a4007,001,2022-04-28_21h17.49.849,classification_task,2021.2.3,Win32,60.02040694,5f494676e0837811e94a4007,626b377229c10585ec392f89,626b3a966871a29d61042c97,,,,,,,,,,,,,,,,,,,,,,,a,0,"[""0.091"",""0.408"",""0.451"",""0.216""]","[1,1,1,0]",0,46,46,46,1,1,1,,,1,FALSE,2.9153,,,,,,,,,,,,,,,,,,,,,,,,,,,,,,
,5f494676e0837811e94a4007,001,2022-04-28_21h17.49.849,classification_task,2021.2.3,Win32,60.02040694,5f494676e0837811e94a4007,626b377229c10585ec392f89,626b3a966871a29d61042c97,,,,,,,,,,,,,,,,,,,,,,,a,0,"[""0.091"",""0.615"",""0.451"",""0.796""]","[1,0,1,1]",0,47,47,47,1,1,1,,,1,FALSE,1.2709,,,,,,,,,,,,,,,,,,,,,,,,,,,,,,
,5f494676e0837811e94a4007,001,2022-04-28_21h17.49.849,classification_task,2021.2.3,Win32,60.02040694,5f494676e0837811e94a4007,626b377229c10585ec392f89,626b3a966871a29d61042c97,,,,,,,,,,,,,,,,,,,,,,,a,0,"[""0.091"",""0.408"",""0.451"",""0.485""]","[1,1,1,0]",0,48,48,48,1,1,1,,,1,FALSE,1.4612,,,,,,,,,,,,,,,,,,,,,,,,,,,,,,
,5f494676e0837811e94a4007,001,2022-04-28_21h17.49.849,classification_task,2021.2.3,Win32,60.02040694,5f494676e0837811e94a4007,626b377229c10585ec392f89,626b3a966871a29d61042c97,,,,,,,,,,,,,,,,,,,,,,,a,0,"[""0.091"",""0.744"",""0.451"",""0.796""]","[1,0,1,1]",0,49,49,49,1,1,1,,,1,FALSE,0.878,,,,,,,,,,,,,,,,,,,,,,,,,,,,,,
,5f494676e0837811e94a4007,001,2022-04-28_21h17.49.849,classification_task,2021.2.3,Win32,60.02040694,5f494676e0837811e94a4007,626b377229c10585ec392f89,626b3a966871a29d61042c97,,,,,,,,,,,,,,,,,,,,,,,l,1,"[""0.485"",""0.251"",""0.560"",""0.702""]","[0,1,1,1]",0,50,50,50,1,1,0,,,1,FALSE,1.1404,,,,,,,,,,,,,,,,,,,,,,,,,,,,,,
,5f494676e0837811e94a4007,001,2022-04-28_21h17.49.849,classification_task,2021.2.3,Win32,60.02040694,5f494676e0837811e94a4007,626b377229c10585ec392f89,626b3a966871a29d61042c97,,,,,,,,,,,,,,,,,,,,,,,a,1,"[""0.177"",""0.372"",""0.618"",""0.974""]","[1,1,0,1]",0,51,51,51,1,0,1,,,1,FALSE,1.0168,,,,,,,,,,,,,,,,,,,,,,,,,,,,,,
,5f494676e0837811e94a4007,001,2022-04-28_21h17.49.849,classification_task,2021.2.3,Win32,60.02040694,5f494676e0837811e94a4007,626b377229c10585ec392f89,626b3a966871a29d61042c97,,,,,,,,,,,,,,,,,,,,,,,a,1,"[""0.211"",""0.519"",""0.850"",""0.887""]","[0,1,1,1]",0,52,52,52,1,0,0,,,1,FALSE,2.3722,,,,,,,,,,,,,,,,,,,,,,,,,,,,,,
,5f494676e0837811e94a4007,001,2022-04-28_21h17.49.849,classification_task,2021.2.3,Win32,60.02040694,5f494676e0837811e94a4007,626b377229c10585ec392f89,626b3a966871a29d61042c97,,,,,,,,,,,,,,,,,,,,,,,l,0,"[""0.214"",""0.372"",""0.936"",""0.974""]","[0,1,1,1]",0,53,53,53,1,0,1,,,1,FALSE,3.0348,,,,,,,,,,,,,,,,,,,,,,,,,,,,,,
,5f494676e0837811e94a4007,001,2022-04-28_21h17.49.849,classification_task,2021.2.3,Win32,60.02040694,5f494676e0837811e94a4007,626b377229c10585ec392f89,626b3a966871a29d61042c97,,,,,,,,,,,,,,,,,,,,,,,l,1,"[""0.051"",""0.251"",""0.618"",""0.702""]","[1,1,0,1]",0,54,54,54,1,1,0,,,1,FALSE,2.3644,,,,,,,,,,,,,,,,,,,,,,,,,,,,,,
,5f494676e0837811e94a4007,001,2022-04-28_21h17.49.849,classification_task,2021.2.3,Win32,60.02040694,5f494676e0837811e94a4007,626b377229c10585ec392f89,626b3a966871a29d61042c97,,,,,,,,,,,,,,,,,,,,,,,a,1,"[""0.177"",""0.640"",""0.936"",""0.974""]","[1,0,1,1]",0,55,55,55,1,0,1,,,1,FALSE,1.1726,,,,,,,,,,,,,,,,,,,,,,,,,,,,,,
,5f494676e0837811e94a4007,001,2022-04-28_21h17.49.849,classification_task,2021.2.3,Win32,60.02040694,5f494676e0837811e94a4007,626b377229c10585ec392f89,626b3a966871a29d61042c97,,,,,,,,,,,,,,,,,,,,,,,a,1,"[""0.325"",""0.615"",""0.850"",""0.887""]","[1,0,1,1]",0,56,56,56,1,0,0,,,1,FALSE,3.4041,,,,,,,,,,,,,,,,,,,,,,,,,,,,,,
,5f494676e0837811e94a4007,001,2022-04-28_21h17.49.849,classification_task,2021.2.3,Win32,60.02040694,5f494676e0837811e94a4007,626b377229c10585ec392f89,626b3a966871a29d61042c97,,,,,,,,,,,,,,,,,,,,,,,l,1,"[""0.091"",""0.408"",""0.288"",""0.796""]","[1,1,0,1]",0,57,57,57,1,1,1,,,1,FALSE,2.6134,,,,,,,,,,,,,,,,,,,,,,,,,,,,,,
,5f494676e0837811e94a4007,001,2022-04-28_21h17.49.849,classification_task,2021.2.3,Win32,60.02040694,5f494676e0837811e94a4007,626b377229c10585ec392f89,626b3a966871a29d61042c97,,,,,,,,,,,,,,,,,,,,,,,l,1,"[""0.051"",""0.251"",""0.560"",""0.737""]","[1,1,1,0]",0,58,58,58,1,1,0,,,1,FALSE,0.9624,,,,,,,,,,,,,,,,,,,,,,,,,,,,,,
,5f494676e0837811e94a4007,001,2022-04-28_21h17.49.849,classification_task,2021.2.3,Win32,60.02040694,5f494676e0837811e94a4007,626b377229c10585ec392f89,626b3a966871a29d61042c97,,,,,,,,,,,,,,,,,,,,,,,a,1,"[""0.325"",""0.519"",""0.485"",""0.887""]","[1,1,0,1]",0,59,59,59,1,0,0,,,1,FALSE,0.9856,,,,,,,,,,,,,,,,,,,,,,,,,,,,,,
,5f494676e0837811e94a4007,001,2022-04-28_21h17.49.849,classification_task,2021.2.3,Win32,60.02040694,5f494676e0837811e94a4007,626b377229c10585ec392f89,626b3a966871a29d61042c97,,,,,,,,,,,,,,,,,,,,,,,l,1,"[""0.051"",""0.216"",""0.560"",""0.702""]","[1,0,1,1]",0,60,60,60,1,1,0,,,1,FALSE,0.9067,,,,,,,,,,,,,,,,,,,,,,,,,,,,,,
,5f494676e0837811e94a4007,001,2022-04-28_21h17.49.849,classification_task,2021.2.3,Win32,60.02040694,5f494676e0837811e94a4007,626b377229c10585ec392f89,626b3a966871a29d61042c97,,,,,,,,,,,,,,,,,,,,,,,a,0,"[""0.743"",""0.408"",""0.451"",""0.796""]","[0,1,1,1]",0,61,61,61,1,1,1,,,1,FALSE,1.3392,,,,,,,,,,,,,,,,,,,,,,,,,,,,,,
,5f494676e0837811e94a4007,001,2022-04-28_21h17.49.849,classification_task,2021.2.3,Win32,60.02040694,5f494676e0837811e94a4007,626b377229c10585ec392f89,626b3a966871a29d61042c97,,,,,,,,,,,,,,,,,,,,,,,a,1,"[""0.177"",""0.372"",""0.936"",""0.654""]","[1,1,1,0]",0,62,62,62,1,0,1,,,1,FALSE,2.5115,,,,,,,,,,,,,,,,,,,,,,,,,,,,,,
,5f494676e0837811e94a4007,001,2022-04-28_21h17.49.849,classification_task,2021.2.3,Win32,60.02040694,5f494676e0837811e94a4007,626b377229c10585ec392f89,626b3a966871a29d61042c97,,,,,,,,,,,,,,,,,,,,,,,a,1,"[""0.325"",""0.519"",""0.850"",""0.654""]","[1,1,1,0]",0,63,63,63,1,0,0,,,1,FALSE,1.2837,,,,,,,,,,,,,,,,,,,,,,,,,,,,,,
,5f494676e0837811e94a4007,001,2022-04-28_21h17.49.849,classification_task,2021.2.3,Win32,60.02040694,5f494676e0837811e94a4007,626b377229c10585ec392f89,626b3a966871a29d61042c97,,,,,,,,,,,,,,,,,,,,,,,,,,,,,,,,,,,,,,,0, ,,0,1.717617088,180.4455,0,2,2,2,1,2,3,,,,,,,,,,,,,,,,,
,5f494676e0837811e94a4007,001,2022-04-28_21h17.49.849,classification_task,2021.2.3,Win32,60.02040694,5f494676e0837811e94a4007,626b377229c10585ec392f89,626b3a966871a29d61042c97,,,,,,,,,,,,,,,,,,,,,,,,,,,,,,,,,,,,,,,1,  ,,0,3.0893592,183.9174,0,2,2,2,1,2,3,,,,,,,,,,,,,,,,,
,5f494676e0837811e94a4007,001,2022-04-28_21h17.49.849,classification_task,2021.2.3,Win32,60.02040694,5f494676e0837811e94a4007,626b377229c10585ec392f89,626b3a966871a29d61042c97,,,,,,,,,,,,,,,,,,,,,,,,,,,,,,,,,,,,,,,2,  ,,0,2.305506565,185.9658,0,2,2,2,1,2,3,,,,,,,,,,,,,,,,,
,5f494676e0837811e94a4007,001,2022-04-28_21h17.49.849,classification_task,2021.2.3,Win32,60.02040694,5f494676e0837811e94a4007,626b377229c10585ec392f89,626b3a966871a29d61042c97,,,,,,,,,,,,,,,,,,,,,,,,,,,,,,,,,,,,,,,,,,,,,0,2,2,2,1,,3,,,,,,,,,,,,,,,,,
,5f494676e0837811e94a4007,001,2022-04-28_21h17.49.849,classification_task,2021.2.3,Win32,60.02040694,5f494676e0837811e94a4007,626b377229c10585ec392f89,626b3a966871a29d61042c97,,,,,,,,,,,,,,,,,,,,,,,,,,,,,,,,,,,,,,,,,,,,,,,,,,,,,I believe the aid is a competent performer,,0.7,0,4,819.8725,0,0,0,0,1,0,,,,
,5f494676e0837811e94a4007,001,2022-04-28_21h17.49.849,classification_task,2021.2.3,Win32,60.02040694,5f494676e0837811e94a4007,626b377229c10585ec392f89,626b3a966871a29d61042c97,,,,,,,,,,,,,,,,,,,,,,,,,,,,,,,,,,,,,,,,,,,,,,,,,,,,,I trust the aid,,0.7,0,3,823.1429,0,0,0,0,1,0,,,,
,5f494676e0837811e94a4007,001,2022-04-28_21h17.49.849,classification_task,2021.2.3,Win32,60.02040694,5f494676e0837811e94a4007,626b377229c10585ec392f89,626b3a966871a29d61042c97,,,,,,,,,,,,,,,,,,,,,,,,,,,,,,,,,,,,,,,,,,,,,,,,,,,,,I have confidence in the advice given by the aid,,0.7,0,4,825.3744,0,0,0,0,1,0,,,,
,5f494676e0837811e94a4007,001,2022-04-28_21h17.49.849,classification_task,2021.2.3,Win32,60.02040694,5f494676e0837811e94a4007,626b377229c10585ec392f89,626b3a966871a29d61042c97,,,,,,,,,,,,,,,,,,,,,,,,,,,,,,,,,,,,,,,,,,,,,,,,,,,,,I can depend on the aid,,0.7,0,4,828.5554,0,0,0,0,1,0,,,,
,5f494676e0837811e94a4007,001,2022-04-28_21h17.49.849,classification_task,2021.2.3,Win32,60.02040694,5f494676e0837811e94a4007,626b377229c10585ec392f89,626b3a966871a29d61042c97,,,,,,,,,,,,,,,,,,,,,,,,,,,,,,,,,,,,,,,,,,,,,,,,,,,,,I can rely on the aid to behave in consistent ways,,0.7,0,2,832.4505,0,0,0,0,1,0,,,,
,5f494676e0837811e94a4007,001,2022-04-28_21h17.49.849,classification_task,2021.2.3,Win32,60.02040694,5f494676e0837811e94a4007,626b377229c10585ec392f89,626b3a966871a29d61042c97,,,,,,,,,,,,,,,,,,,,,,,,,,,,,,,,,,,,,,,,,,,,,,,,,,,,,I can rely on the aid to do its best every time I take its advice,,0.7,0,4,835.4073,0,0,0,0,1,0,,,,
,5f494676e0837811e94a4007,001,2022-04-28_21h17.49.849,classification_task,2021.2.3,Win32,60.02040694,5f494676e0837811e94a4007,626b377229c10585ec392f89,626b3a966871a29d61042c97,,,,,,,,,,,,,,,,,,,,,,,,,,,,,,,,,,,,,,,,,,,,,,,,,,,,,"On trials you completed with assistance from the aid, how frequently did you think the aid was correct?",,0.7,0,89%,,0,0,0,0,1,0,,,,
,5f494676e0837811e94a4007,001,2022-04-28_21h17.49.849,classification_task,2021.2.3,Win32,60.02040694,5f494676e0837811e94a4007,626b377229c10585ec392f89,626b3a966871a29d61042c97,,,,,,,,,,,,,,,,,,,,,,,,,,,,,,,,,,,,,,,,,,,,,,,,,,,,,"On trials you completed without the aid, how frequently did you think you were correct?",,0.7,0,76%,,0,0,0,0,1,0,,,,
,5f494676e0837811e94a4007,001,2022-04-28_21h17.49.849,classification_task,2021.2.3,Win32,60.02040694,5f494676e0837811e94a4007,626b377229c10585ec392f89,626b3a966871a29d61042c97,,,,,,,,,,,,,,,,,,,,,,,,,,,,,,,,,,,,,,,,,,,,,,,,,,,,,,,,,,,0,0,0,0,1,,,,,
,5f494676e0837811e94a4007,001,2022-04-28_21h17.49.849,classification_task,2021.2.3,Win32,60.02040694,5f494676e0837811e94a4007,626b377229c10585ec392f89,626b3a966871a29d61042c97,,,,,,,,,,,,,,,,,,,,,,,,,,,,,,,,,,,,,,,,,,,,,,,,,,,,,,,,,,,,,,,,,space,6.8127,869.4843,
,5f494676e0837811e94a4007,001,2022-04-28_21h17.49.849,classification_task,2021.2.3,Win32,60.02040694,5f494676e0837811e94a4007,626b377229c10585ec392f89,626b3a966871a29d61042c97,,,,,,,,,,,,,,,,,,,,,,,,,,,,,,,,,,,,,,,,,,,,,,,,,,,,,,,,,,,,,,,,,,,,"Mozilla/5.0 (Windows NT 10.0; Win64; x64) AppleWebKit/537.36 (KHTML, like Gecko) Chrome/100.0.4896.127 Safari/537.36"
