usingWebGL,participant,session,date,expName,psychopyVersion,OS,frameRate,PROLIFIC_PID,STUDY_ID,SESSION_ID,signatures_friend,signatures_foe,band_ranges_top,band_ranges_bottom,formitemText,formtype,formundefined,formitemWidth,formindex,formresponse,formrt,key_resp_2.keys,key_resp_2.rt,tute_resp.keys,tute_resp.rt,tutorial.thisRepN,tutorial.thisTrialN,tutorial.thisN,tutorial.thisIndex,tutorial.ran,key_resp_4.keys,key_resp_4.rt,key_resp.keys,key_resp.corr,key_resp.rt,lines_presented,is_signal_presented,trials.thisRepN,trials.thisTrialN,trials.thisN,trials.thisIndex,trials.ran,vessel,active_band,lines,is_signal,supported_pos,catch_trial,debrief_formindex,debrief_formitemText,debrief_formtype,debrief_formitemWidth,debrief_formresponse,debrief_formrt,phases.thisRepN,phases.thisTrialN,phases.thisN,phases.thisIndex,phases.ran,phases.order,phase,key_resp_3.keys,trustitemText,trusttype,trustitemWidth,trustindex,trustresponse,trustrt,support_status.thisRepN,support_status.thisTrialN,support_status.thisN,support_status.thisIndex,support_status.ran,support_status.order,key_resp_5.keys,key_resp_5.rt,globalClockTime,userAgent
TRUE,5f494e24f9229236c055063b,001,2022-04-29_03h15.10.095,classification_task,2021.2.3,MacIntel,59.99880002,5f494e24f9229236c055063b,626b377229c10585ec392f8a,626b3bcdd152bd77a80e6e1b,,,,,,,,,,,,,,,,,,,,,,,,,,,,,,,,,,,,,,,,,,,,,,,,,,,,,,,,,,,,,,,,,,,,
,5f494e24f9229236c055063b,001,2022-04-29_03h15.10.095,classification_task,2021.2.3,MacIntel,59.99880002,5f494e24f9229236c055063b,626b377229c10585ec392f8a,626b3bcdd152bd77a80e6e1b,"[[""0.214"",""0.412"",""0.596"",""0.943""],[""0.272"",""0.532"",""0.874"",""0.909""]]","[[""0.055"",""0.114"",""0.669"",""0.818""],[""0.155"",""0.314"",""0.489"",""0.716""]]","[1,10]","[100,1000]",Video game experience,,,0.7,0,,,,,,,,,,,,,,,,,,,,,,,,,,,,,,,,,,,,,,,,,,,,,,,,,,,,,,,,,,,
,5f494e24f9229236c055063b,001,2022-04-29_03h15.10.095,classification_task,2021.2.3,MacIntel,59.99880002,5f494e24f9229236c055063b,626b377229c10585ec392f8a,626b3bcdd152bd77a80e6e1b,,,,,Approximately how many hours did you spend playing video games in the last week?,,,0.7,0,0,,,,,,,,,,,,,,,,,,,,,,,,,,,,,,,,,,,,,,,,,,,,,,,,,,,,,,,,,,
,5f494e24f9229236c055063b,001,2022-04-29_03h15.10.095,classification_task,2021.2.3,MacIntel,59.99880002,5f494e24f9229236c055063b,626b377229c10585ec392f8a,626b3bcdd152bd77a80e6e1b,,,,,"Which game did you play the most this year? (Enter ""None"" if you didn't play any)",,,0.7,0,The sims 4,,,,,,,,,,,,,,,,,,,,,,,,,,,,,,,,,,,,,,,,,,,,,,,,,,,,,,,,,,
,5f494e24f9229236c055063b,001,2022-04-29_03h15.10.095,classification_task,2021.2.3,MacIntel,59.99880002,5f494e24f9229236c055063b,626b377229c10585ec392f8a,626b3bcdd152bd77a80e6e1b,,,,,Visual perception,,,0.7,0,,,,,,,,,,,,,,,,,,,,,,,,,,,,,,,,,,,,,,,,,,,,,,,,,,,,,,,,,,,
,5f494e24f9229236c055063b,001,2022-04-29_03h15.10.095,classification_task,2021.2.3,MacIntel,59.99880002,5f494e24f9229236c055063b,626b377229c10585ec392f8a,626b3bcdd152bd77a80e6e1b,,,,,Do you have any form of color blindness?,,,0.7,0,No,18.2729,,,,,,,,,,,,,,,,,,,,,,,,,,,,,,,,,,,,,,,,,,,,,,,,,,,,,,,,,
,5f494e24f9229236c055063b,001,2022-04-29_03h15.10.095,classification_task,2021.2.3,MacIntel,59.99880002,5f494e24f9229236c055063b,626b377229c10585ec392f8a,626b3bcdd152bd77a80e6e1b,,,,,Do you use software to change the colour temperature of your screen (e.g. f.lux)?,,,0.7,0,No,21.7167,,,,,,,,,,,,,,,,,,,,,,,,,,,,,,,,,,,,,,,,,,,,,,,,,,,,,,,,,
,5f494e24f9229236c055063b,001,2022-04-29_03h15.10.095,classification_task,2021.2.3,MacIntel,59.99880002,5f494e24f9229236c055063b,626b377229c10585ec392f8a,626b3bcdd152bd77a80e6e1b,,,,,,,,,,,,space,27.2125,space,9.4203,0,0,0,0,1,,,,,,,,,,,,,,,,,,,,,,,,,,,,,,,,,,,,,,,,,,,,,,,,
,5f494e24f9229236c055063b,001,2022-04-29_03h15.10.095,classification_task,2021.2.3,MacIntel,59.99880002,5f494e24f9229236c055063b,626b377229c10585ec392f8a,626b3bcdd152bd77a80e6e1b,,,,,,,,,,,,,,space,6.1642,1,0,1,0,1,,,,,,,,,,,,,,,,,,,,,,,,,,,,,,,,,,,,,,,,,,,,,,,,
,5f494e24f9229236c055063b,001,2022-04-29_03h15.10.095,classification_task,2021.2.3,MacIntel,59.99880002,5f494e24f9229236c055063b,626b377229c10585ec392f8a,626b3bcdd152bd77a80e6e1b,,,,,,,,,,,,,,space,21.5146,2,0,2,0,1,,,,,,,,,,,,,,,,,,,,,,,,,,,,,,,,,,,,,,,,,,,,,,,,
,5f494e24f9229236c055063b,001,2022-04-29_03h15.10.095,classification_task,2021.2.3,MacIntel,59.99880002,5f494e24f9229236c055063b,626b377229c10585ec392f8a,626b3bcdd152bd77a80e6e1b,,,,,,,,,,,,,,space,7.4482,3,0,3,0,1,,,,,,,,,,,,,,,,,,,,,,,,,,,,,,,,,,,,,,,,,,,,,,,,
,5f494e24f9229236c055063b,001,2022-04-29_03h15.10.095,classification_task,2021.2.3,MacIntel,59.99880002,5f494e24f9229236c055063b,626b377229c10585ec392f8a,626b3bcdd152bd77a80e6e1b,,,,,,,,,,,,,,space,8.887,4,0,4,0,1,,,,,,,,,,,,,,,,,,,,,,,,,,,,,,,,,,,,,,,,,,,,,,,,
,5f494e24f9229236c055063b,001,2022-04-29_03h15.10.095,classification_task,2021.2.3,MacIntel,59.99880002,5f494e24f9229236c055063b,626b377229c10585ec392f8a,626b3bcdd152bd77a80e6e1b,,,,,,,,,,,,,,,,,,,,,space,14.8431,l,1,4.3228,"[""0.055"",""0.114"",""0.669"",""0.632""]","[1,1,1,0]",0,0,0,0,1,1,0,,,0,FALSE,,,,,,,,,,,,,,,,,,,,,,,,,,,,,,
,5f494e24f9229236c055063b,001,2022-04-29_03h15.10.095,classification_task,2021.2.3,MacIntel,59.99880002,5f494e24f9229236c055063b,626b377229c10585ec392f8a,626b3bcdd152bd77a80e6e1b,,,,,,,,,,,,,,,,,,,,,,,a,0,3.2783,"[""0.446"",""0.314"",""0.489"",""0.716""]","[0,1,1,1]",0,1,1,1,1,1,1,,,0,FALSE,,,,,,,,,,,,,,,,,,,,,,,,,,,,,,
,5f494e24f9229236c055063b,001,2022-04-29_03h15.10.095,classification_task,2021.2.3,MacIntel,59.99880002,5f494e24f9229236c055063b,626b377229c10585ec392f8a,626b3bcdd152bd77a80e6e1b,,,,,,,,,,,,,,,,,,,,,,,a,1,5.6259,"[""0.355"",""0.412"",""0.596"",""0.943""]","[0,1,1,1]",0,2,2,2,1,0,0,,,0,FALSE,,,,,,,,,,,,,,,,,,,,,,,,,,,,,,
,5f494e24f9229236c055063b,001,2022-04-29_03h15.10.095,classification_task,2021.2.3,MacIntel,59.99880002,5f494e24f9229236c055063b,626b377229c10585ec392f8a,626b3bcdd152bd77a80e6e1b,,,,,,,,,,,,,,,,,,,,,,,l,1,4.1353,"[""0.446"",""0.114"",""0.669"",""0.818""]","[0,1,1,1]",0,3,3,3,1,1,0,,,0,FALSE,,,,,,,,,,,,,,,,,,,,,,,,,,,,,,
,5f494e24f9229236c055063b,001,2022-04-29_03h15.10.095,classification_task,2021.2.3,MacIntel,59.99880002,5f494e24f9229236c055063b,626b377229c10585ec392f8a,626b3bcdd152bd77a80e6e1b,,,,,,,,,,,,,,,,,,,,,,,a,1,3.1215,"[""0.214"",""0.412"",""0.632"",""0.943""]","[1,1,0,1]",0,4,4,4,1,0,0,,,0,FALSE,,,,,,,,,,,,,,,,,,,,,,,,,,,,,,
,5f494e24f9229236c055063b,001,2022-04-29_03h15.10.095,classification_task,2021.2.3,MacIntel,59.99880002,5f494e24f9229236c055063b,626b377229c10585ec392f8a,626b3bcdd152bd77a80e6e1b,,,,,,,,,,,,,,,,,,,,,,,a,1,9.2165,"[""0.272"",""0.532"",""0.874"",""0.350""]","[1,1,1,0]",0,5,5,5,1,0,1,,,0,FALSE,,,,,,,,,,,,,,,,,,,,,,,,,,,,,,
,5f494e24f9229236c055063b,001,2022-04-29_03h15.10.095,classification_task,2021.2.3,MacIntel,59.99880002,5f494e24f9229236c055063b,626b377229c10585ec392f8a,626b3bcdd152bd77a80e6e1b,,,,,,,,,,,,,,,,,,,,,,,l,1,6.2381,"[""0.155"",""0.632"",""0.489"",""0.716""]","[1,0,1,1]",0,6,6,6,1,1,1,,,0,FALSE,,,,,,,,,,,,,,,,,,,,,,,,,,,,,,
,5f494e24f9229236c055063b,001,2022-04-29_03h15.10.095,classification_task,2021.2.3,MacIntel,59.99880002,5f494e24f9229236c055063b,626b377229c10585ec392f8a,626b3bcdd152bd77a80e6e1b,,,,,,,,,,,,,,,,,,,,,,,l,1,3.0035,"[""0.055"",""0.114"",""0.355"",""0.818""]","[1,1,0,1]",0,7,7,7,1,1,0,,,0,FALSE,,,,,,,,,,,,,,,,,,,,,,,,,,,,,,
,5f494e24f9229236c055063b,001,2022-04-29_03h15.10.095,classification_task,2021.2.3,MacIntel,59.99880002,5f494e24f9229236c055063b,626b377229c10585ec392f8a,626b3bcdd152bd77a80e6e1b,,,,,,,,,,,,,,,,,,,,,,,a,1,7.5027,"[""0.214"",""0.412"",""0.596"",""0.781""]","[1,1,1,0]",0,8,8,8,1,0,0,,,0,FALSE,,,,,,,,,,,,,,,,,,,,,,,,,,,,,,
,5f494e24f9229236c055063b,001,2022-04-29_03h15.10.095,classification_task,2021.2.3,MacIntel,59.99880002,5f494e24f9229236c055063b,626b377229c10585ec392f8a,626b3bcdd152bd77a80e6e1b,,,,,,,,,,,,,,,,,,,,,,,l,1,7.9984,"[""0.155"",""0.314"",""0.778"",""0.716""]","[1,1,0,1]",0,9,9,9,1,1,1,,,0,FALSE,,,,,,,,,,,,,,,,,,,,,,,,,,,,,,
,5f494e24f9229236c055063b,001,2022-04-29_03h15.10.095,classification_task,2021.2.3,MacIntel,59.99880002,5f494e24f9229236c055063b,626b377229c10585ec392f8a,626b3bcdd152bd77a80e6e1b,,,,,,,,,,,,,,,,,,,,,,,a,1,2.7367,"[""0.355"",""0.532"",""0.874"",""0.909""]","[0,1,1,1]",0,10,10,10,1,0,1,,,0,FALSE,,,,,,,,,,,,,,,,,,,,,,,,,,,,,,
,5f494e24f9229236c055063b,001,2022-04-29_03h15.10.095,classification_task,2021.2.3,MacIntel,59.99880002,5f494e24f9229236c055063b,626b377229c10585ec392f8a,626b3bcdd152bd77a80e6e1b,,,,,,,,,,,,,,,,,,,,,,,a,1,8.1938,"[""0.214"",""0.781"",""0.596"",""0.943""]","[1,0,1,1]",0,11,11,11,1,0,0,,,0,FALSE,,,,,,,,,,,,,,,,,,,,,,,,,,,,,,
,5f494e24f9229236c055063b,001,2022-04-29_03h15.10.095,classification_task,2021.2.3,MacIntel,59.99880002,5f494e24f9229236c055063b,626b377229c10585ec392f8a,626b3bcdd152bd77a80e6e1b,,,,,,,,,,,,,,,,,,,,,,,l,1,5.3504,"[""0.155"",""0.314"",""0.489"",""0.446""]","[1,1,1,0]",0,12,12,12,1,1,1,,,0,FALSE,,,,,,,,,,,,,,,,,,,,,,,,,,,,,,
,5f494e24f9229236c055063b,001,2022-04-29_03h15.10.095,classification_task,2021.2.3,MacIntel,59.99880002,5f494e24f9229236c055063b,626b377229c10585ec392f8a,626b3bcdd152bd77a80e6e1b,,,,,,,,,,,,,,,,,,,,,,,l,1,2.3509,"[""0.055"",""0.750"",""0.669"",""0.818""]","[1,0,1,1]",0,13,13,13,1,1,0,,,0,FALSE,,,,,,,,,,,,,,,,,,,,,,,,,,,,,,
,5f494e24f9229236c055063b,001,2022-04-29_03h15.10.095,classification_task,2021.2.3,MacIntel,59.99880002,5f494e24f9229236c055063b,626b377229c10585ec392f8a,626b3bcdd152bd77a80e6e1b,,,,,,,,,,,,,,,,,,,,,,,a,1,2.4619,"[""0.272"",""0.764"",""0.874"",""0.909""]","[1,0,1,1]",0,14,14,14,1,0,1,,,0,FALSE,,,,,,,,,,,,,,,,,,,,,,,,,,,,,,
,5f494e24f9229236c055063b,001,2022-04-29_03h15.10.095,classification_task,2021.2.3,MacIntel,59.99880002,5f494e24f9229236c055063b,626b377229c10585ec392f8a,626b3bcdd152bd77a80e6e1b,,,,,,,,,,,,,,,,,,,,,,,a,1,5.6781,"[""0.272"",""0.532"",""0.349"",""0.909""]","[1,1,0,1]",0,15,15,15,1,0,1,,,0,FALSE,,,,,,,,,,,,,,,,,,,,,,,,,,,,,,
,5f494e24f9229236c055063b,001,2022-04-29_03h15.10.095,classification_task,2021.2.3,MacIntel,59.99880002,5f494e24f9229236c055063b,626b377229c10585ec392f8a,626b3bcdd152bd77a80e6e1b,,,,,,,,,,,,,,,,,,,,,,,l,1,4.4339,"[""0.632"",""0.114"",""0.669"",""0.818""]","[0,1,1,1]",0,16,16,16,1,1,0,,,0,FALSE,,,,,,,,,,,,,,,,,,,,,,,,,,,,,,
,5f494e24f9229236c055063b,001,2022-04-29_03h15.10.095,classification_task,2021.2.3,MacIntel,59.99880002,5f494e24f9229236c055063b,626b377229c10585ec392f8a,626b3bcdd152bd77a80e6e1b,,,,,,,,,,,,,,,,,,,,,,,a,1,4.3684,"[""0.355"",""0.412"",""0.596"",""0.943""]","[0,1,1,1]",0,17,17,17,1,0,0,,,0,FALSE,,,,,,,,,,,,,,,,,,,,,,,,,,,,,,
,5f494e24f9229236c055063b,001,2022-04-29_03h15.10.095,classification_task,2021.2.3,MacIntel,59.99880002,5f494e24f9229236c055063b,626b377229c10585ec392f8a,626b3bcdd152bd77a80e6e1b,,,,,,,,,,,,,,,,,,,,,,,l,1,6.452,"[""0.632"",""0.314"",""0.489"",""0.716""]","[0,1,1,1]",0,18,18,18,1,1,1,,,0,FALSE,,,,,,,,,,,,,,,,,,,,,,,,,,,,,,
,5f494e24f9229236c055063b,001,2022-04-29_03h15.10.095,classification_task,2021.2.3,MacIntel,59.99880002,5f494e24f9229236c055063b,626b377229c10585ec392f8a,626b3bcdd152bd77a80e6e1b,,,,,,,,,,,,,,,,,,,,,,,a,1,3.8117,"[""0.214"",""0.412"",""0.764"",""0.943""]","[1,1,0,1]",0,19,19,19,1,0,0,,,0,FALSE,,,,,,,,,,,,,,,,,,,,,,,,,,,,,,
,5f494e24f9229236c055063b,001,2022-04-29_03h15.10.095,classification_task,2021.2.3,MacIntel,59.99880002,5f494e24f9229236c055063b,626b377229c10585ec392f8a,626b3bcdd152bd77a80e6e1b,,,,,,,,,,,,,,,,,,,,,,,a,1,7.2514,"[""0.272"",""0.532"",""0.874"",""0.355""]","[1,1,1,0]",0,20,20,20,1,0,1,,,0,FALSE,,,,,,,,,,,,,,,,,,,,,,,,,,,,,,
,5f494e24f9229236c055063b,001,2022-04-29_03h15.10.095,classification_task,2021.2.3,MacIntel,59.99880002,5f494e24f9229236c055063b,626b377229c10585ec392f8a,626b3bcdd152bd77a80e6e1b,,,,,,,,,,,,,,,,,,,,,,,a,1,4.3377,"[""0.272"",""0.532"",""0.353"",""0.909""]","[1,1,0,1]",0,21,21,21,1,0,1,,,0,FALSE,,,,,,,,,,,,,,,,,,,,,,,,,,,,,,
,5f494e24f9229236c055063b,001,2022-04-29_03h15.10.095,classification_task,2021.2.3,MacIntel,59.99880002,5f494e24f9229236c055063b,626b377229c10585ec392f8a,626b3bcdd152bd77a80e6e1b,,,,,,,,,,,,,,,,,,,,,,,l,1,5.7403,"[""0.155"",""0.314"",""0.489"",""0.447""]","[1,1,1,0]",0,22,22,22,1,1,1,,,0,FALSE,,,,,,,,,,,,,,,,,,,,,,,,,,,,,,
,5f494e24f9229236c055063b,001,2022-04-29_03h15.10.095,classification_task,2021.2.3,MacIntel,59.99880002,5f494e24f9229236c055063b,626b377229c10585ec392f8a,626b3bcdd152bd77a80e6e1b,,,,,,,,,,,,,,,,,,,,,,,l,1,4.1218,"[""0.155"",""0.349"",""0.489"",""0.716""]","[1,0,1,1]",0,23,23,23,1,1,1,,,0,FALSE,,,,,,,,,,,,,,,,,,,,,,,,,,,,,,
,5f494e24f9229236c055063b,001,2022-04-29_03h15.10.095,classification_task,2021.2.3,MacIntel,59.99880002,5f494e24f9229236c055063b,626b377229c10585ec392f8a,626b3bcdd152bd77a80e6e1b,,,,,,,,,,,,,,,,,,,,,,,l,1,5.8539,"[""0.055"",""0.114"",""0.669"",""0.445""]","[1,1,1,0]",0,24,24,24,1,1,0,,,0,FALSE,,,,,,,,,,,,,,,,,,,,,,,,,,,,,,
,5f494e24f9229236c055063b,001,2022-04-29_03h15.10.095,classification_task,2021.2.3,MacIntel,59.99880002,5f494e24f9229236c055063b,626b377229c10585ec392f8a,626b3bcdd152bd77a80e6e1b,,,,,,,,,,,,,,,,,,,,,,,a,1,2.1509,"[""0.272"",""0.373"",""0.874"",""0.909""]","[1,0,1,1]",0,25,25,25,1,0,1,,,0,FALSE,,,,,,,,,,,,,,,,,,,,,,,,,,,,,,
,5f494e24f9229236c055063b,001,2022-04-29_03h15.10.095,classification_task,2021.2.3,MacIntel,59.99880002,5f494e24f9229236c055063b,626b377229c10585ec392f8a,626b3bcdd152bd77a80e6e1b,,,,,,,,,,,,,,,,,,,,,,,l,1,2.4048,"[""0.155"",""0.314"",""0.355"",""0.716""]","[1,1,0,1]",0,26,26,26,1,1,1,,,0,FALSE,,,,,,,,,,,,,,,,,,,,,,,,,,,,,,
,5f494e24f9229236c055063b,001,2022-04-29_03h15.10.095,classification_task,2021.2.3,MacIntel,59.99880002,5f494e24f9229236c055063b,626b377229c10585ec392f8a,626b3bcdd152bd77a80e6e1b,,,,,,,,,,,,,,,,,,,,,,,l,1,4.1009,"[""0.055"",""0.781"",""0.669"",""0.818""]","[1,0,1,1]",0,27,27,27,1,1,0,,,0,FALSE,,,,,,,,,,,,,,,,,,,,,,,,,,,,,,
,5f494e24f9229236c055063b,001,2022-04-29_03h15.10.095,classification_task,2021.2.3,MacIntel,59.99880002,5f494e24f9229236c055063b,626b377229c10585ec392f8a,626b3bcdd152bd77a80e6e1b,,,,,,,,,,,,,,,,,,,,,,,a,1,2.1357,"[""0.350"",""0.532"",""0.874"",""0.909""]","[0,1,1,1]",0,28,28,28,1,0,1,,,0,FALSE,,,,,,,,,,,,,,,,,,,,,,,,,,,,,,
,5f494e24f9229236c055063b,001,2022-04-29_03h15.10.095,classification_task,2021.2.3,MacIntel,59.99880002,5f494e24f9229236c055063b,626b377229c10585ec392f8a,626b3bcdd152bd77a80e6e1b,,,,,,,,,,,,,,,,,,,,,,,l,1,1.2652,"[""0.055"",""0.114"",""0.773"",""0.818""]","[1,1,0,1]",0,29,29,29,1,1,0,,,0,FALSE,,,,,,,,,,,,,,,,,,,,,,,,,,,,,,
,5f494e24f9229236c055063b,001,2022-04-29_03h15.10.095,classification_task,2021.2.3,MacIntel,59.99880002,5f494e24f9229236c055063b,626b377229c10585ec392f8a,626b3bcdd152bd77a80e6e1b,,,,,,,,,,,,,,,,,,,,,,,a,1,3.8358,"[""0.214"",""0.764"",""0.596"",""0.943""]","[1,0,1,1]",0,30,30,30,1,0,0,,,0,FALSE,,,,,,,,,,,,,,,,,,,,,,,,,,,,,,
,5f494e24f9229236c055063b,001,2022-04-29_03h15.10.095,classification_task,2021.2.3,MacIntel,59.99880002,5f494e24f9229236c055063b,626b377229c10585ec392f8a,626b3bcdd152bd77a80e6e1b,,,,,,,,,,,,,,,,,,,,,,,a,1,1.7232,"[""0.214"",""0.412"",""0.596"",""0.781""]","[1,1,1,0]",0,31,31,31,1,0,0,,,0,FALSE,,,,,,,,,,,,,,,,,,,,,,,,,,,,,,
,5f494e24f9229236c055063b,001,2022-04-29_03h15.10.095,classification_task,2021.2.3,MacIntel,59.99880002,5f494e24f9229236c055063b,626b377229c10585ec392f8a,626b3bcdd152bd77a80e6e1b,,,,,,,,,,,,,,,,,,,,,,,l,1,2.6778,"[""0.155"",""0.446"",""0.489"",""0.716""]","[1,0,1,1]",0,32,32,32,1,1,1,,,0,FALSE,,,,,,,,,,,,,,,,,,,,,,,,,,,,,,
,5f494e24f9229236c055063b,001,2022-04-29_03h15.10.095,classification_task,2021.2.3,MacIntel,59.99880002,5f494e24f9229236c055063b,626b377229c10585ec392f8a,626b3bcdd152bd77a80e6e1b,,,,,,,,,,,,,,,,,,,,,,,l,1,1.055,"[""0.155"",""0.314"",""0.489"",""0.350""]","[1,1,1,0]",0,33,33,33,1,1,1,,,0,FALSE,,,,,,,,,,,,,,,,,,,,,,,,,,,,,,
,5f494e24f9229236c055063b,001,2022-04-29_03h15.10.095,classification_task,2021.2.3,MacIntel,59.99880002,5f494e24f9229236c055063b,626b377229c10585ec392f8a,626b3bcdd152bd77a80e6e1b,,,,,,,,,,,,,,,,,,,,,,,a,0,1.55,"[""0.055"",""0.445"",""0.669"",""0.818""]","[1,0,1,1]",0,34,34,34,1,1,0,,,0,FALSE,,,,,,,,,,,,,,,,,,,,,,,,,,,,,,
,5f494e24f9229236c055063b,001,2022-04-29_03h15.10.095,classification_task,2021.2.3,MacIntel,59.99880002,5f494e24f9229236c055063b,626b377229c10585ec392f8a,626b3bcdd152bd77a80e6e1b,,,,,,,,,,,,,,,,,,,,,,,a,1,1.1495,"[""0.447"",""0.412"",""0.596"",""0.943""]","[0,1,1,1]",0,35,35,35,1,0,0,,,0,FALSE,,,,,,,,,,,,,,,,,,,,,,,,,,,,,,
,5f494e24f9229236c055063b,001,2022-04-29_03h15.10.095,classification_task,2021.2.3,MacIntel,59.99880002,5f494e24f9229236c055063b,626b377229c10585ec392f8a,626b3bcdd152bd77a80e6e1b,,,,,,,,,,,,,,,,,,,,,,,a,1,1.3004,"[""0.353"",""0.532"",""0.874"",""0.909""]","[0,1,1,1]",0,36,36,36,1,0,1,,,0,FALSE,,,,,,,,,,,,,,,,,,,,,,,,,,,,,,
,5f494e24f9229236c055063b,001,2022-04-29_03h15.10.095,classification_task,2021.2.3,MacIntel,59.99880002,5f494e24f9229236c055063b,626b377229c10585ec392f8a,626b3bcdd152bd77a80e6e1b,,,,,,,,,,,,,,,,,,,,,,,l,0,1.3828,"[""0.272"",""0.532"",""0.874"",""0.778""]","[1,1,1,0]",0,37,37,37,1,0,1,,,0,FALSE,,,,,,,,,,,,,,,,,,,,,,,,,,,,,,
,5f494e24f9229236c055063b,001,2022-04-29_03h15.10.095,classification_task,2021.2.3,MacIntel,59.99880002,5f494e24f9229236c055063b,626b377229c10585ec392f8a,626b3bcdd152bd77a80e6e1b,,,,,,,,,,,,,,,,,,,,,,,l,1,1.0833,"[""0.447"",""0.314"",""0.489"",""0.716""]","[0,1,1,1]",0,38,38,38,1,1,1,,,0,FALSE,,,,,,,,,,,,,,,,,,,,,,,,,,,,,,
,5f494e24f9229236c055063b,001,2022-04-29_03h15.10.095,classification_task,2021.2.3,MacIntel,59.99880002,5f494e24f9229236c055063b,626b377229c10585ec392f8a,626b3bcdd152bd77a80e6e1b,,,,,,,,,,,,,,,,,,,,,,,a,1,1.0092,"[""0.272"",""0.532"",""0.773"",""0.909""]","[1,1,0,1]",0,39,39,39,1,0,1,,,0,FALSE,,,,,,,,,,,,,,,,,,,,,,,,,,,,,,
,5f494e24f9229236c055063b,001,2022-04-29_03h15.10.095,classification_task,2021.2.3,MacIntel,59.99880002,5f494e24f9229236c055063b,626b377229c10585ec392f8a,626b3bcdd152bd77a80e6e1b,,,,,,,,,,,,,,,,,,,,,,,a,1,0.7861,"[""0.272"",""0.373"",""0.874"",""0.909""]","[1,0,1,1]",0,40,40,40,1,0,1,,,0,FALSE,,,,,,,,,,,,,,,,,,,,,,,,,,,,,,
,5f494e24f9229236c055063b,001,2022-04-29_03h15.10.095,classification_task,2021.2.3,MacIntel,59.99880002,5f494e24f9229236c055063b,626b377229c10585ec392f8a,626b3bcdd152bd77a80e6e1b,,,,,,,,,,,,,,,,,,,,,,,a,1,2.4986,"[""0.214"",""0.412"",""0.764"",""0.943""]","[1,1,0,1]",0,41,41,41,1,0,0,,,0,FALSE,,,,,,,,,,,,,,,,,,,,,,,,,,,,,,
,5f494e24f9229236c055063b,001,2022-04-29_03h15.10.095,classification_task,2021.2.3,MacIntel,59.99880002,5f494e24f9229236c055063b,626b377229c10585ec392f8a,626b3bcdd152bd77a80e6e1b,,,,,,,,,,,,,,,,,,,,,,,a,0,1.4596,"[""0.750"",""0.114"",""0.669"",""0.818""]","[0,1,1,1]",0,42,42,42,1,1,0,,,0,FALSE,,,,,,,,,,,,,,,,,,,,,,,,,,,,,,
,5f494e24f9229236c055063b,001,2022-04-29_03h15.10.095,classification_task,2021.2.3,MacIntel,59.99880002,5f494e24f9229236c055063b,626b377229c10585ec392f8a,626b3bcdd152bd77a80e6e1b,,,,,,,,,,,,,,,,,,,,,,,a,0,1.7015,"[""0.155"",""0.314"",""0.447"",""0.716""]","[1,1,0,1]",0,43,43,43,1,1,1,,,0,FALSE,,,,,,,,,,,,,,,,,,,,,,,,,,,,,,
,5f494e24f9229236c055063b,001,2022-04-29_03h15.10.095,classification_task,2021.2.3,MacIntel,59.99880002,5f494e24f9229236c055063b,626b377229c10585ec392f8a,626b3bcdd152bd77a80e6e1b,,,,,,,,,,,,,,,,,,,,,,,a,0,1.3541,"[""0.055"",""0.114"",""0.355"",""0.818""]","[1,1,0,1]",0,44,44,44,1,1,0,,,0,FALSE,,,,,,,,,,,,,,,,,,,,,,,,,,,,,,
,5f494e24f9229236c055063b,001,2022-04-29_03h15.10.095,classification_task,2021.2.3,MacIntel,59.99880002,5f494e24f9229236c055063b,626b377229c10585ec392f8a,626b3bcdd152bd77a80e6e1b,,,,,,,,,,,,,,,,,,,,,,,a,1,1.2805,"[""0.214"",""0.750"",""0.596"",""0.943""]","[1,0,1,1]",0,45,45,45,1,0,0,,,0,FALSE,,,,,,,,,,,,,,,,,,,,,,,,,,,,,,
,5f494e24f9229236c055063b,001,2022-04-29_03h15.10.095,classification_task,2021.2.3,MacIntel,59.99880002,5f494e24f9229236c055063b,626b377229c10585ec392f8a,626b3bcdd152bd77a80e6e1b,,,,,,,,,,,,,,,,,,,,,,,a,1,1.4021,"[""0.214"",""0.412"",""0.596"",""0.447""]","[1,1,1,0]",0,46,46,46,1,0,0,,,0,FALSE,,,,,,,,,,,,,,,,,,,,,,,,,,,,,,
,5f494e24f9229236c055063b,001,2022-04-29_03h15.10.095,classification_task,2021.2.3,MacIntel,59.99880002,5f494e24f9229236c055063b,626b377229c10585ec392f8a,626b3bcdd152bd77a80e6e1b,,,,,,,,,,,,,,,,,,,,,,,l,1,1.2006,"[""0.055"",""0.114"",""0.669"",""0.764""]","[1,1,1,0]",0,47,47,47,1,1,0,,,0,FALSE,,,,,,,,,,,,,,,,,,,,,,,,,,,,,,
,5f494e24f9229236c055063b,001,2022-04-29_03h15.10.095,classification_task,2021.2.3,MacIntel,59.99880002,5f494e24f9229236c055063b,626b377229c10585ec392f8a,626b3bcdd152bd77a80e6e1b,,,,,,,,,,,,,,,,,,,,,,,l,1,0.8693,"[""0.055"",""0.445"",""0.669"",""0.818""]","[1,0,1,1]",0,48,48,48,1,1,0,,,0,FALSE,,,,,,,,,,,,,,,,,,,,,,,,,,,,,,
,5f494e24f9229236c055063b,001,2022-04-29_03h15.10.095,classification_task,2021.2.3,MacIntel,59.99880002,5f494e24f9229236c055063b,626b377229c10585ec392f8a,626b3bcdd152bd77a80e6e1b,,,,,,,,,,,,,,,,,,,,,,,a,1,1.2995,"[""0.272"",""0.532"",""0.373"",""0.909""]","[1,1,0,1]",0,49,49,49,1,0,1,,,0,FALSE,,,,,,,,,,,,,,,,,,,,,,,,,,,,,,
,5f494e24f9229236c055063b,001,2022-04-29_03h15.10.095,classification_task,2021.2.3,MacIntel,59.99880002,5f494e24f9229236c055063b,626b377229c10585ec392f8a,626b3bcdd152bd77a80e6e1b,,,,,,,,,,,,,,,,,,,,,,,l,0,1.2108,"[""0.214"",""0.412"",""0.373"",""0.943""]","[1,1,0,1]",0,50,50,50,1,0,0,,,0,FALSE,,,,,,,,,,,,,,,,,,,,,,,,,,,,,,
,5f494e24f9229236c055063b,001,2022-04-29_03h15.10.095,classification_task,2021.2.3,MacIntel,59.99880002,5f494e24f9229236c055063b,626b377229c10585ec392f8a,626b3bcdd152bd77a80e6e1b,,,,,,,,,,,,,,,,,,,,,,,l,0,1.3867,"[""0.214"",""0.781"",""0.596"",""0.943""]","[1,0,1,1]",0,51,51,51,1,0,0,,,0,FALSE,,,,,,,,,,,,,,,,,,,,,,,,,,,,,,
,5f494e24f9229236c055063b,001,2022-04-29_03h15.10.095,classification_task,2021.2.3,MacIntel,59.99880002,5f494e24f9229236c055063b,626b377229c10585ec392f8a,626b3bcdd152bd77a80e6e1b,,,,,,,,,,,,,,,,,,,,,,,a,0,1.17,"[""0.155"",""0.773"",""0.489"",""0.716""]","[1,0,1,1]",0,52,52,52,1,1,1,,,0,FALSE,,,,,,,,,,,,,,,,,,,,,,,,,,,,,,
,5f494e24f9229236c055063b,001,2022-04-29_03h15.10.095,classification_task,2021.2.3,MacIntel,59.99880002,5f494e24f9229236c055063b,626b377229c10585ec392f8a,626b3bcdd152bd77a80e6e1b,,,,,,,,,,,,,,,,,,,,,,,l,0,2.1511,"[""0.350"",""0.412"",""0.596"",""0.943""]","[0,1,1,1]",0,53,53,53,1,0,0,,,0,FALSE,,,,,,,,,,,,,,,,,,,,,,,,,,,,,,
,5f494e24f9229236c055063b,001,2022-04-29_03h15.10.095,classification_task,2021.2.3,MacIntel,59.99880002,5f494e24f9229236c055063b,626b377229c10585ec392f8a,626b3bcdd152bd77a80e6e1b,,,,,,,,,,,,,,,,,,,,,,,l,0,0.8875,"[""0.214"",""0.412"",""0.596"",""0.447""]","[1,1,1,0]",0,54,54,54,1,0,0,,,0,FALSE,,,,,,,,,,,,,,,,,,,,,,,,,,,,,,
,5f494e24f9229236c055063b,001,2022-04-29_03h15.10.095,classification_task,2021.2.3,MacIntel,59.99880002,5f494e24f9229236c055063b,626b377229c10585ec392f8a,626b3bcdd152bd77a80e6e1b,,,,,,,,,,,,,,,,,,,,,,,a,1,1.4368,"[""0.272"",""0.447"",""0.874"",""0.909""]","[1,0,1,1]",0,55,55,55,1,0,1,,,0,FALSE,,,,,,,,,,,,,,,,,,,,,,,,,,,,,,
,5f494e24f9229236c055063b,001,2022-04-29_03h15.10.095,classification_task,2021.2.3,MacIntel,59.99880002,5f494e24f9229236c055063b,626b377229c10585ec392f8a,626b3bcdd152bd77a80e6e1b,,,,,,,,,,,,,,,,,,,,,,,a,0,1.7679,"[""0.355"",""0.114"",""0.669"",""0.818""]","[0,1,1,1]",0,56,56,56,1,1,0,,,0,FALSE,,,,,,,,,,,,,,,,,,,,,,,,,,,,,,
,5f494e24f9229236c055063b,001,2022-04-29_03h15.10.095,classification_task,2021.2.3,MacIntel,59.99880002,5f494e24f9229236c055063b,626b377229c10585ec392f8a,626b3bcdd152bd77a80e6e1b,,,,,,,,,,,,,,,,,,,,,,,a,0,1.1651,"[""0.155"",""0.314"",""0.349"",""0.716""]","[1,1,0,1]",0,57,57,57,1,1,1,,,0,FALSE,,,,,,,,,,,,,,,,,,,,,,,,,,,,,,
,5f494e24f9229236c055063b,001,2022-04-29_03h15.10.095,classification_task,2021.2.3,MacIntel,59.99880002,5f494e24f9229236c055063b,626b377229c10585ec392f8a,626b3bcdd152bd77a80e6e1b,,,,,,,,,,,,,,,,,,,,,,,a,0,0.734,"[""0.764"",""0.314"",""0.489"",""0.716""]","[0,1,1,1]",0,58,58,58,1,1,1,,,0,FALSE,,,,,,,,,,,,,,,,,,,,,,,,,,,,,,
,5f494e24f9229236c055063b,001,2022-04-29_03h15.10.095,classification_task,2021.2.3,MacIntel,59.99880002,5f494e24f9229236c055063b,626b377229c10585ec392f8a,626b3bcdd152bd77a80e6e1b,,,,,,,,,,,,,,,,,,,,,,,a,1,0.6852,"[""0.353"",""0.532"",""0.874"",""0.909""]","[0,1,1,1]",0,59,59,59,1,0,1,,,0,FALSE,,,,,,,,,,,,,,,,,,,,,,,,,,,,,,
,5f494e24f9229236c055063b,001,2022-04-29_03h15.10.095,classification_task,2021.2.3,MacIntel,59.99880002,5f494e24f9229236c055063b,626b377229c10585ec392f8a,626b3bcdd152bd77a80e6e1b,,,,,,,,,,,,,,,,,,,,,,,a,0,1.8064,"[""0.055"",""0.114"",""0.778"",""0.818""]","[1,1,0,1]",0,60,60,60,1,1,0,,,0,FALSE,,,,,,,,,,,,,,,,,,,,,,,,,,,,,,
,5f494e24f9229236c055063b,001,2022-04-29_03h15.10.095,classification_task,2021.2.3,MacIntel,59.99880002,5f494e24f9229236c055063b,626b377229c10585ec392f8a,626b3bcdd152bd77a80e6e1b,,,,,,,,,,,,,,,,,,,,,,,a,1,1.1347,"[""0.272"",""0.532"",""0.874"",""0.355""]","[1,1,1,0]",0,61,61,61,1,0,1,,,0,FALSE,,,,,,,,,,,,,,,,,,,,,,,,,,,,,,
,5f494e24f9229236c055063b,001,2022-04-29_03h15.10.095,classification_task,2021.2.3,MacIntel,59.99880002,5f494e24f9229236c055063b,626b377229c10585ec392f8a,626b3bcdd152bd77a80e6e1b,,,,,,,,,,,,,,,,,,,,,,,l,1,1.1186,"[""0.155"",""0.314"",""0.489"",""0.355""]","[1,1,1,0]",0,62,62,62,1,1,1,,,0,FALSE,,,,,,,,,,,,,,,,,,,,,,,,,,,,,,
,5f494e24f9229236c055063b,001,2022-04-29_03h15.10.095,classification_task,2021.2.3,MacIntel,59.99880002,5f494e24f9229236c055063b,626b377229c10585ec392f8a,626b3bcdd152bd77a80e6e1b,,,,,,,,,,,,,,,,,,,,,,,l,1,1.5814,"[""0.055"",""0.114"",""0.669"",""0.773""]","[1,1,1,0]",0,63,63,63,1,1,0,,,0,FALSE,,,,,,,,,,,,,,,,,,,,,,,,,,,,,,
,5f494e24f9229236c055063b,001,2022-04-29_03h15.10.095,classification_task,2021.2.3,MacIntel,59.99880002,5f494e24f9229236c055063b,626b377229c10585ec392f8a,626b3bcdd152bd77a80e6e1b,,,,,,,,,,,,,,,,,,,,,,,,,,,,,,,,,,,,,,,0, ,,0,0,392.6243,0,0,0,0,1,2,1,,,,,,,,,,,,,,,,,
,5f494e24f9229236c055063b,001,2022-04-29_03h15.10.095,classification_task,2021.2.3,MacIntel,59.99880002,5f494e24f9229236c055063b,626b377229c10585ec392f8a,626b3bcdd152bd77a80e6e1b,,,,,,,,,,,,,,,,,,,,,,,,,,,,,,,,,,,,,,,1,  ,,0,7.432507532,399.1909,0,0,0,0,1,2,1,,,,,,,,,,,,,,,,,
,5f494e24f9229236c055063b,001,2022-04-29_03h15.10.095,classification_task,2021.2.3,MacIntel,59.99880002,5f494e24f9229236c055063b,626b377229c10585ec392f8a,626b3bcdd152bd77a80e6e1b,,,,,,,,,,,,,,,,,,,,,,,,,,,,,,,,,,,,,,,2,  ,,0,9.060456165,406.876,0,0,0,0,1,2,1,,,,,,,,,,,,,,,,,
,5f494e24f9229236c055063b,001,2022-04-29_03h15.10.095,classification_task,2021.2.3,MacIntel,59.99880002,5f494e24f9229236c055063b,626b377229c10585ec392f8a,626b3bcdd152bd77a80e6e1b,,,,,,,,,,,,,,,,,,,,,,,,,,,,,,,,,,,,,,,,,,,,,0,0,0,0,1,,1,,,,,,,,,,,,,,,,,
,5f494e24f9229236c055063b,001,2022-04-29_03h15.10.095,classification_task,2021.2.3,MacIntel,59.99880002,5f494e24f9229236c055063b,626b377229c10585ec392f8a,626b3bcdd152bd77a80e6e1b,,,,,,,,,,,,,,,,,,,,,space,7.9011,a,1,2.7141,"[""0.272"",""0.532"",""0.445"",""0.909""]","[1,1,0,1]",0,0,0,0,1,0,1,,,0,FALSE,,,,,,,,,,,,,,,,,,,,,,,,,,,,,,
,5f494e24f9229236c055063b,001,2022-04-29_03h15.10.095,classification_task,2021.2.3,MacIntel,59.99880002,5f494e24f9229236c055063b,626b377229c10585ec392f8a,626b3bcdd152bd77a80e6e1b,,,,,,,,,,,,,,,,,,,,,,,l,0,3.5169,"[""0.214"",""0.412"",""0.632"",""0.943""]","[1,1,0,1]",0,1,1,1,1,0,0,,,0,FALSE,,,,,,,,,,,,,,,,,,,,,,,,,,,,,,
,5f494e24f9229236c055063b,001,2022-04-29_03h15.10.095,classification_task,2021.2.3,MacIntel,59.99880002,5f494e24f9229236c055063b,626b377229c10585ec392f8a,626b3bcdd152bd77a80e6e1b,,,,,,,,,,,,,,,,,,,,,,,a,0,1.4835,"[""0.155"",""0.314"",""0.489"",""0.353""]","[1,1,1,0]",0,2,2,2,1,1,1,,,0,FALSE,,,,,,,,,,,,,,,,,,,,,,,,,,,,,,
,5f494e24f9229236c055063b,001,2022-04-29_03h15.10.095,classification_task,2021.2.3,MacIntel,59.99880002,5f494e24f9229236c055063b,626b377229c10585ec392f8a,626b3bcdd152bd77a80e6e1b,,,,,,,,,,,,,,,,,,,,,,,a,1,1.6332,"[""0.272"",""0.532"",""0.874"",""0.350""]","[1,1,1,0]",0,3,3,3,1,0,1,,,0,FALSE,,,,,,,,,,,,,,,,,,,,,,,,,,,,,,
,5f494e24f9229236c055063b,001,2022-04-29_03h15.10.095,classification_task,2021.2.3,MacIntel,59.99880002,5f494e24f9229236c055063b,626b377229c10585ec392f8a,626b3bcdd152bd77a80e6e1b,,,,,,,,,,,,,,,,,,,,,,,a,1,0.7828,"[""0.350"",""0.532"",""0.874"",""0.909""]","[0,1,1,1]",0,4,4,4,1,0,1,,,0,FALSE,,,,,,,,,,,,,,,,,,,,,,,,,,,,,,
,5f494e24f9229236c055063b,001,2022-04-29_03h15.10.095,classification_task,2021.2.3,MacIntel,59.99880002,5f494e24f9229236c055063b,626b377229c10585ec392f8a,626b3bcdd152bd77a80e6e1b,,,,,,,,,,,,,,,,,,,,,,,a,1,2.6944,"[""0.349"",""0.412"",""0.596"",""0.943""]","[0,1,1,1]",0,5,5,5,1,0,0,,,0,FALSE,,,,,,,,,,,,,,,,,,,,,,,,,,,,,,
,5f494e24f9229236c055063b,001,2022-04-29_03h15.10.095,classification_task,2021.2.3,MacIntel,59.99880002,5f494e24f9229236c055063b,626b377229c10585ec392f8a,626b3bcdd152bd77a80e6e1b,,,,,,,,,,,,,,,,,,,,,,,a,1,2.3897,"[""0.214"",""0.412"",""0.596"",""0.764""]","[1,1,1,0]",0,6,6,6,1,0,0,,,0,FALSE,,,,,,,,,,,,,,,,,,,,,,,,,,,,,,
,5f494e24f9229236c055063b,001,2022-04-29_03h15.10.095,classification_task,2021.2.3,MacIntel,59.99880002,5f494e24f9229236c055063b,626b377229c10585ec392f8a,626b3bcdd152bd77a80e6e1b,,,,,,,,,,,,,,,,,,,,,,,a,1,2.1448,"[""0.214"",""0.353"",""0.596"",""0.943""]","[1,0,1,1]",0,7,7,7,1,0,0,,,0,FALSE,,,,,,,,,,,,,,,,,,,,,,,,,,,,,,
,5f494e24f9229236c055063b,001,2022-04-29_03h15.10.095,classification_task,2021.2.3,MacIntel,59.99880002,5f494e24f9229236c055063b,626b377229c10585ec392f8a,626b3bcdd152bd77a80e6e1b,,,,,,,,,,,,,,,,,,,,,,,l,1,1.4572,"[""0.764"",""0.114"",""0.669"",""0.818""]","[0,1,1,1]",0,8,8,8,1,1,0,,,0,FALSE,,,,,,,,,,,,,,,,,,,,,,,,,,,,,,
,5f494e24f9229236c055063b,001,2022-04-29_03h15.10.095,classification_task,2021.2.3,MacIntel,59.99880002,5f494e24f9229236c055063b,626b377229c10585ec392f8a,626b3bcdd152bd77a80e6e1b,,,,,,,,,,,,,,,,,,,,,,,l,1,0.8009,"[""0.055"",""0.778"",""0.669"",""0.818""]","[1,0,1,1]",0,9,9,9,1,1,0,,,0,FALSE,,,,,,,,,,,,,,,,,,,,,,,,,,,,,,
,5f494e24f9229236c055063b,001,2022-04-29_03h15.10.095,classification_task,2021.2.3,MacIntel,59.99880002,5f494e24f9229236c055063b,626b377229c10585ec392f8a,626b3bcdd152bd77a80e6e1b,,,,,,,,,,,,,,,,,,,,,,,a,0,2.3285,"[""0.764"",""0.314"",""0.489"",""0.716""]","[0,1,1,1]",0,10,10,10,1,1,1,,,0,FALSE,,,,,,,,,,,,,,,,,,,,,,,,,,,,,,
,5f494e24f9229236c055063b,001,2022-04-29_03h15.10.095,classification_task,2021.2.3,MacIntel,59.99880002,5f494e24f9229236c055063b,626b377229c10585ec392f8a,626b3bcdd152bd77a80e6e1b,,,,,,,,,,,,,,,,,,,,,,,l,1,1.0399,"[""0.055"",""0.114"",""0.669"",""0.353""]","[1,1,1,0]",0,11,11,11,1,1,0,,,0,FALSE,,,,,,,,,,,,,,,,,,,,,,,,,,,,,,
,5f494e24f9229236c055063b,001,2022-04-29_03h15.10.095,classification_task,2021.2.3,MacIntel,59.99880002,5f494e24f9229236c055063b,626b377229c10585ec392f8a,626b3bcdd152bd77a80e6e1b,,,,,,,,,,,,,,,,,,,,,,,l,1,2.2597,"[""0.155"",""0.353"",""0.489"",""0.716""]","[1,0,1,1]",0,12,12,12,1,1,1,,,0,FALSE,,,,,,,,,,,,,,,,,,,,,,,,,,,,,,
,5f494e24f9229236c055063b,001,2022-04-29_03h15.10.095,classification_task,2021.2.3,MacIntel,59.99880002,5f494e24f9229236c055063b,626b377229c10585ec392f8a,626b3bcdd152bd77a80e6e1b,,,,,,,,,,,,,,,,,,,,,,,a,1,0.0348,"[""0.272"",""0.349"",""0.874"",""0.909""]","[1,0,1,1]",0,13,13,13,1,0,1,,,0,FALSE,,,,,,,,,,,,,,,,,,,,,,,,,,,,,,
,5f494e24f9229236c055063b,001,2022-04-29_03h15.10.095,classification_task,2021.2.3,MacIntel,59.99880002,5f494e24f9229236c055063b,626b377229c10585ec392f8a,626b3bcdd152bd77a80e6e1b,,,,,,,,,,,,,,,,,,,,,,,l,1,0.7771,"[""0.055"",""0.114"",""0.764"",""0.818""]","[1,1,0,1]",0,14,14,14,1,1,0,,,0,FALSE,,,,,,,,,,,,,,,,,,,,,,,,,,,,,,
,5f494e24f9229236c055063b,001,2022-04-29_03h15.10.095,classification_task,2021.2.3,MacIntel,59.99880002,5f494e24f9229236c055063b,626b377229c10585ec392f8a,626b3bcdd152bd77a80e6e1b,,,,,,,,,,,,,,,,,,,,,,,l,1,1.3604,"[""0.155"",""0.314"",""0.764"",""0.716""]","[1,1,0,1]",0,15,15,15,1,1,1,,,0,FALSE,,,,,,,,,,,,,,,,,,,,,,,,,,,,,,
,5f494e24f9229236c055063b,001,2022-04-29_03h15.10.095,classification_task,2021.2.3,MacIntel,59.99880002,5f494e24f9229236c055063b,626b377229c10585ec392f8a,626b3bcdd152bd77a80e6e1b,,,,,,,,,,,,,,,,,,,,,,,l,1,1.0164,"[""0.778"",""0.314"",""0.489"",""0.716""]","[0,1,1,1]",0,16,16,16,1,1,1,,,0,FALSE,,,,,,,,,,,,,,,,,,,,,,,,,,,,,,
,5f494e24f9229236c055063b,001,2022-04-29_03h15.10.095,classification_task,2021.2.3,MacIntel,59.99880002,5f494e24f9229236c055063b,626b377229c10585ec392f8a,626b3bcdd152bd77a80e6e1b,,,,,,,,,,,,,,,,,,,,,,,l,1,0.9459,"[""0.055"",""0.114"",""0.445"",""0.818""]","[1,1,0,1]",0,17,17,17,1,1,0,,,0,FALSE,,,,,,,,,,,,,,,,,,,,,,,,,,,,,,
,5f494e24f9229236c055063b,001,2022-04-29_03h15.10.095,classification_task,2021.2.3,MacIntel,59.99880002,5f494e24f9229236c055063b,626b377229c10585ec392f8a,626b3bcdd152bd77a80e6e1b,,,,,,,,,,,,,,,,,,,,,,,a,1,0.7949,"[""0.272"",""0.750"",""0.874"",""0.909""]","[1,0,1,1]",0,18,18,18,1,0,1,,,0,FALSE,,,,,,,,,,,,,,,,,,,,,,,,,,,,,,
,5f494e24f9229236c055063b,001,2022-04-29_03h15.10.095,classification_task,2021.2.3,MacIntel,59.99880002,5f494e24f9229236c055063b,626b377229c10585ec392f8a,626b3bcdd152bd77a80e6e1b,,,,,,,,,,,,,,,,,,,,,,,a,1,0.9975,"[""0.272"",""0.532"",""0.874"",""0.764""]","[1,1,1,0]",0,19,19,19,1,0,1,,,0,FALSE,,,,,,,,,,,,,,,,,,,,,,,,,,,,,,
,5f494e24f9229236c055063b,001,2022-04-29_03h15.10.095,classification_task,2021.2.3,MacIntel,59.99880002,5f494e24f9229236c055063b,626b377229c10585ec392f8a,626b3bcdd152bd77a80e6e1b,,,,,,,,,,,,,,,,,,,,,,,a,1,0.8185,"[""0.272"",""0.532"",""0.355"",""0.909""]","[1,1,0,1]",0,20,20,20,1,0,1,,,0,FALSE,,,,,,,,,,,,,,,,,,,,,,,,,,,,,,
,5f494e24f9229236c055063b,001,2022-04-29_03h15.10.095,classification_task,2021.2.3,MacIntel,59.99880002,5f494e24f9229236c055063b,626b377229c10585ec392f8a,626b3bcdd152bd77a80e6e1b,,,,,,,,,,,,,,,,,,,,,,,l,1,0.9025,"[""0.155"",""0.781"",""0.489"",""0.716""]","[1,0,1,1]",0,21,21,21,1,1,1,,,0,FALSE,,,,,,,,,,,,,,,,,,,,,,,,,,,,,,
,5f494e24f9229236c055063b,001,2022-04-29_03h15.10.095,classification_task,2021.2.3,MacIntel,59.99880002,5f494e24f9229236c055063b,626b377229c10585ec392f8a,626b3bcdd152bd77a80e6e1b,,,,,,,,,,,,,,,,,,,,,,,l,1,0.7638,"[""0.055"",""0.114"",""0.669"",""0.781""]","[1,1,1,0]",0,22,22,22,1,1,0,,,0,FALSE,,,,,,,,,,,,,,,,,,,,,,,,,,,,,,
,5f494e24f9229236c055063b,001,2022-04-29_03h15.10.095,classification_task,2021.2.3,MacIntel,59.99880002,5f494e24f9229236c055063b,626b377229c10585ec392f8a,626b3bcdd152bd77a80e6e1b,,,,,,,,,,,,,,,,,,,,,,,a,1,0.7947,"[""0.750"",""0.532"",""0.874"",""0.909""]","[0,1,1,1]",0,23,23,23,1,0,1,,,0,FALSE,,,,,,,,,,,,,,,,,,,,,,,,,,,,,,
,5f494e24f9229236c055063b,001,2022-04-29_03h15.10.095,classification_task,2021.2.3,MacIntel,59.99880002,5f494e24f9229236c055063b,626b377229c10585ec392f8a,626b3bcdd152bd77a80e6e1b,,,,,,,,,,,,,,,,,,,,,,,a,1,1.0454,"[""0.214"",""0.412"",""0.773"",""0.943""]","[1,1,0,1]",0,24,24,24,1,0,0,,,0,FALSE,,,,,,,,,,,,,,,,,,,,,,,,,,,,,,
,5f494e24f9229236c055063b,001,2022-04-29_03h15.10.095,classification_task,2021.2.3,MacIntel,59.99880002,5f494e24f9229236c055063b,626b377229c10585ec392f8a,626b3bcdd152bd77a80e6e1b,,,,,,,,,,,,,,,,,,,,,,,a,1,0.6276,"[""0.350"",""0.412"",""0.596"",""0.943""]","[0,1,1,1]",0,25,25,25,1,0,0,,,0,FALSE,,,,,,,,,,,,,,,,,,,,,,,,,,,,,,
,5f494e24f9229236c055063b,001,2022-04-29_03h15.10.095,classification_task,2021.2.3,MacIntel,59.99880002,5f494e24f9229236c055063b,626b377229c10585ec392f8a,626b3bcdd152bd77a80e6e1b,,,,,,,,,,,,,,,,,,,,,,,l,1,1.3788,"[""0.155"",""0.314"",""0.781"",""0.716""]","[1,1,0,1]",0,26,26,26,1,1,1,,,0,FALSE,,,,,,,,,,,,,,,,,,,,,,,,,,,,,,
,5f494e24f9229236c055063b,001,2022-04-29_03h15.10.095,classification_task,2021.2.3,MacIntel,59.99880002,5f494e24f9229236c055063b,626b377229c10585ec392f8a,626b3bcdd152bd77a80e6e1b,,,,,,,,,,,,,,,,,,,,,,,a,0,0.5619,"[""0.353"",""0.114"",""0.669"",""0.818""]","[0,1,1,1]",0,27,27,27,1,1,0,,,0,FALSE,,,,,,,,,,,,,,,,,,,,,,,,,,,,,,
,5f494e24f9229236c055063b,001,2022-04-29_03h15.10.095,classification_task,2021.2.3,MacIntel,59.99880002,5f494e24f9229236c055063b,626b377229c10585ec392f8a,626b3bcdd152bd77a80e6e1b,,,,,,,,,,,,,,,,,,,,,,,l,1,0.8667,"[""0.055"",""0.773"",""0.669"",""0.818""]","[1,0,1,1]",0,28,28,28,1,1,0,,,0,FALSE,,,,,,,,,,,,,,,,,,,,,,,,,,,,,,
,5f494e24f9229236c055063b,001,2022-04-29_03h15.10.095,classification_task,2021.2.3,MacIntel,59.99880002,5f494e24f9229236c055063b,626b377229c10585ec392f8a,626b3bcdd152bd77a80e6e1b,,,,,,,,,,,,,,,,,,,,,,,a,1,0.6996,"[""0.214"",""0.778"",""0.596"",""0.943""]","[1,0,1,1]",0,29,29,29,1,0,0,,,0,FALSE,,,,,,,,,,,,,,,,,,,,,,,,,,,,,,
,5f494e24f9229236c055063b,001,2022-04-29_03h15.10.095,classification_task,2021.2.3,MacIntel,59.99880002,5f494e24f9229236c055063b,626b377229c10585ec392f8a,626b3bcdd152bd77a80e6e1b,,,,,,,,,,,,,,,,,,,,,,,a,1,0.5807,"[""0.214"",""0.412"",""0.596"",""0.447""]","[1,1,1,0]",0,30,30,30,1,0,0,,,0,FALSE,,,,,,,,,,,,,,,,,,,,,,,,,,,,,,
,5f494e24f9229236c055063b,001,2022-04-29_03h15.10.095,classification_task,2021.2.3,MacIntel,59.99880002,5f494e24f9229236c055063b,626b377229c10585ec392f8a,626b3bcdd152bd77a80e6e1b,,,,,,,,,,,,,,,,,,,,,,,a,0,1.5114,"[""0.155"",""0.314"",""0.489"",""0.764""]","[1,1,1,0]",0,31,31,31,1,1,1,,,0,FALSE,,,,,,,,,,,,,,,,,,,,,,,,,,,,,,
,5f494e24f9229236c055063b,001,2022-04-29_03h15.10.095,classification_task,2021.2.3,MacIntel,59.99880002,5f494e24f9229236c055063b,626b377229c10585ec392f8a,626b3bcdd152bd77a80e6e1b,,,,,,,,,,,,,,,,,,,,,,,l,0,0.7014,"[""0.764"",""0.412"",""0.596"",""0.943""]","[0,1,1,1]",0,32,32,32,1,0,0,,,0,FALSE,,,,,,,,,,,,,,,,,,,,,,,,,,,,,,
,5f494e24f9229236c055063b,001,2022-04-29_03h15.10.095,classification_task,2021.2.3,MacIntel,59.99880002,5f494e24f9229236c055063b,626b377229c10585ec392f8a,626b3bcdd152bd77a80e6e1b,,,,,,,,,,,,,,,,,,,,,,,a,0,3.4612,"[""0.155"",""0.764"",""0.489"",""0.716""]","[1,0,1,1]",0,33,33,33,1,1,1,,,0,FALSE,,,,,,,,,,,,,,,,,,,,,,,,,,,,,,
,5f494e24f9229236c055063b,001,2022-04-29_03h15.10.095,classification_task,2021.2.3,MacIntel,59.99880002,5f494e24f9229236c055063b,626b377229c10585ec392f8a,626b3bcdd152bd77a80e6e1b,,,,,,,,,,,,,,,,,,,,,,,l,1,1.2894,"[""0.781"",""0.114"",""0.669"",""0.818""]","[0,1,1,1]",0,34,34,34,1,1,0,,,0,FALSE,,,,,,,,,,,,,,,,,,,,,,,,,,,,,,
,5f494e24f9229236c055063b,001,2022-04-29_03h15.10.095,classification_task,2021.2.3,MacIntel,59.99880002,5f494e24f9229236c055063b,626b377229c10585ec392f8a,626b3bcdd152bd77a80e6e1b,,,,,,,,,,,,,,,,,,,,,,,l,1,1.5526,"[""0.155"",""0.314"",""0.445"",""0.716""]","[1,1,0,1]",0,35,35,35,1,1,1,,,0,FALSE,,,,,,,,,,,,,,,,,,,,,,,,,,,,,,
,5f494e24f9229236c055063b,001,2022-04-29_03h15.10.095,classification_task,2021.2.3,MacIntel,59.99880002,5f494e24f9229236c055063b,626b377229c10585ec392f8a,626b3bcdd152bd77a80e6e1b,,,,,,,,,,,,,,,,,,,,,,,l,1,1.1007,"[""0.055"",""0.114"",""0.669"",""0.447""]","[1,1,1,0]",0,36,36,36,1,1,0,,,0,FALSE,,,,,,,,,,,,,,,,,,,,,,,,,,,,,,
,5f494e24f9229236c055063b,001,2022-04-29_03h15.10.095,classification_task,2021.2.3,MacIntel,59.99880002,5f494e24f9229236c055063b,626b377229c10585ec392f8a,626b3bcdd152bd77a80e6e1b,,,,,,,,,,,,,,,,,,,,,,,a,1,1.1448,"[""0.272"",""0.532"",""0.447"",""0.909""]","[1,1,0,1]",0,37,37,37,1,0,1,,,0,FALSE,,,,,,,,,,,,,,,,,,,,,,,,,,,,,,
,5f494e24f9229236c055063b,001,2022-04-29_03h15.10.095,classification_task,2021.2.3,MacIntel,59.99880002,5f494e24f9229236c055063b,626b377229c10585ec392f8a,626b3bcdd152bd77a80e6e1b,,,,,,,,,,,,,,,,,,,,,,,l,1,1.0901,"[""0.632"",""0.314"",""0.489"",""0.716""]","[0,1,1,1]",0,38,38,38,1,1,1,,,0,FALSE,,,,,,,,,,,,,,,,,,,,,,,,,,,,,,
,5f494e24f9229236c055063b,001,2022-04-29_03h15.10.095,classification_task,2021.2.3,MacIntel,59.99880002,5f494e24f9229236c055063b,626b377229c10585ec392f8a,626b3bcdd152bd77a80e6e1b,,,,,,,,,,,,,,,,,,,,,,,a,1,1.2106,"[""0.214"",""0.412"",""0.373"",""0.943""]","[1,1,0,1]",0,39,39,39,1,0,0,,,0,FALSE,,,,,,,,,,,,,,,,,,,,,,,,,,,,,,
,5f494e24f9229236c055063b,001,2022-04-29_03h15.10.095,classification_task,2021.2.3,MacIntel,59.99880002,5f494e24f9229236c055063b,626b377229c10585ec392f8a,626b3bcdd152bd77a80e6e1b,,,,,,,,,,,,,,,,,,,,,,,a,0,1.4638,"[""0.155"",""0.314"",""0.489"",""0.750""]","[1,1,1,0]",0,40,40,40,1,1,1,,,0,FALSE,,,,,,,,,,,,,,,,,,,,,,,,,,,,,,
,5f494e24f9229236c055063b,001,2022-04-29_03h15.10.095,classification_task,2021.2.3,MacIntel,59.99880002,5f494e24f9229236c055063b,626b377229c10585ec392f8a,626b3bcdd152bd77a80e6e1b,,,,,,,,,,,,,,,,,,,,,,,a,1,0.9491,"[""0.272"",""0.373"",""0.874"",""0.909""]","[1,0,1,1]",0,41,41,41,1,0,1,,,0,FALSE,,,,,,,,,,,,,,,,,,,,,,,,,,,,,,
,5f494e24f9229236c055063b,001,2022-04-29_03h15.10.095,classification_task,2021.2.3,MacIntel,59.99880002,5f494e24f9229236c055063b,626b377229c10585ec392f8a,626b3bcdd152bd77a80e6e1b,,,,,,,,,,,,,,,,,,,,,,,l,1,1.3923,"[""0.055"",""0.114"",""0.350"",""0.818""]","[1,1,0,1]",0,42,42,42,1,1,0,,,0,FALSE,,,,,,,,,,,,,,,,,,,,,,,,,,,,,,
,5f494e24f9229236c055063b,001,2022-04-29_03h15.10.095,classification_task,2021.2.3,MacIntel,59.99880002,5f494e24f9229236c055063b,626b377229c10585ec392f8a,626b3bcdd152bd77a80e6e1b,,,,,,,,,,,,,,,,,,,,,,,l,1,0.7873,"[""0.055"",""0.778"",""0.669"",""0.818""]","[1,0,1,1]",0,43,43,43,1,1,0,,,0,FALSE,,,,,,,,,,,,,,,,,,,,,,,,,,,,,,
,5f494e24f9229236c055063b,001,2022-04-29_03h15.10.095,classification_task,2021.2.3,MacIntel,59.99880002,5f494e24f9229236c055063b,626b377229c10585ec392f8a,626b3bcdd152bd77a80e6e1b,,,,,,,,,,,,,,,,,,,,,,,a,1,1.26,"[""0.272"",""0.532"",""0.874"",""0.750""]","[1,1,1,0]",0,44,44,44,1,0,1,,,0,FALSE,,,,,,,,,,,,,,,,,,,,,,,,,,,,,,
,5f494e24f9229236c055063b,001,2022-04-29_03h15.10.095,classification_task,2021.2.3,MacIntel,59.99880002,5f494e24f9229236c055063b,626b377229c10585ec392f8a,626b3bcdd152bd77a80e6e1b,,,,,,,,,,,,,,,,,,,,,,,l,0,0.6451,"[""0.214"",""0.412"",""0.596"",""0.764""]","[1,1,1,0]",0,45,45,45,1,0,0,,,0,FALSE,,,,,,,,,,,,,,,,,,,,,,,,,,,,,,
,5f494e24f9229236c055063b,001,2022-04-29_03h15.10.095,classification_task,2021.2.3,MacIntel,59.99880002,5f494e24f9229236c055063b,626b377229c10585ec392f8a,626b3bcdd152bd77a80e6e1b,,,,,,,,,,,,,,,,,,,,,,,a,1,0.896,"[""0.350"",""0.532"",""0.874"",""0.909""]","[0,1,1,1]",0,46,46,46,1,0,1,,,0,FALSE,,,,,,,,,,,,,,,,,,,,,,,,,,,,,,
,5f494e24f9229236c055063b,001,2022-04-29_03h15.10.095,classification_task,2021.2.3,MacIntel,59.99880002,5f494e24f9229236c055063b,626b377229c10585ec392f8a,626b3bcdd152bd77a80e6e1b,,,,,,,,,,,,,,,,,,,,,,,a,1,0.9307,"[""0.214"",""0.350"",""0.596"",""0.943""]","[1,0,1,1]",0,47,47,47,1,0,0,,,0,FALSE,,,,,,,,,,,,,,,,,,,,,,,,,,,,,,
,5f494e24f9229236c055063b,001,2022-04-29_03h15.10.095,classification_task,2021.2.3,MacIntel,59.99880002,5f494e24f9229236c055063b,626b377229c10585ec392f8a,626b3bcdd152bd77a80e6e1b,,,,,,,,,,,,,,,,,,,,,,,a,1,0.6821,"[""0.214"",""0.412"",""0.596"",""0.773""]","[1,1,1,0]",0,48,48,48,1,0,0,,,0,FALSE,,,,,,,,,,,,,,,,,,,,,,,,,,,,,,
,5f494e24f9229236c055063b,001,2022-04-29_03h15.10.095,classification_task,2021.2.3,MacIntel,59.99880002,5f494e24f9229236c055063b,626b377229c10585ec392f8a,626b3bcdd152bd77a80e6e1b,,,,,,,,,,,,,,,,,,,,,,,l,1,0.5993,"[""0.055"",""0.114"",""0.773"",""0.818""]","[1,1,0,1]",0,49,49,49,1,1,0,,,0,FALSE,,,,,,,,,,,,,,,,,,,,,,,,,,,,,,
,5f494e24f9229236c055063b,001,2022-04-29_03h15.10.095,classification_task,2021.2.3,MacIntel,59.99880002,5f494e24f9229236c055063b,626b377229c10585ec392f8a,626b3bcdd152bd77a80e6e1b,,,,,,,,,,,,,,,,,,,,,,,l,1,1.6456,"[""0.155"",""0.314"",""0.489"",""0.350""]","[1,1,1,0]",0,50,50,50,1,1,1,,,0,FALSE,,,,,,,,,,,,,,,,,,,,,,,,,,,,,,
,5f494e24f9229236c055063b,001,2022-04-29_03h15.10.095,classification_task,2021.2.3,MacIntel,59.99880002,5f494e24f9229236c055063b,626b377229c10585ec392f8a,626b3bcdd152bd77a80e6e1b,,,,,,,,,,,,,,,,,,,,,,,l,1,1.964,"[""0.155"",""0.314"",""0.764"",""0.716""]","[1,1,0,1]",0,51,51,51,1,1,1,,,0,FALSE,,,,,,,,,,,,,,,,,,,,,,,,,,,,,,
,5f494e24f9229236c055063b,001,2022-04-29_03h15.10.095,classification_task,2021.2.3,MacIntel,59.99880002,5f494e24f9229236c055063b,626b377229c10585ec392f8a,626b3bcdd152bd77a80e6e1b,,,,,,,,,,,,,,,,,,,,,,,a,1,0.8932,"[""0.272"",""0.532"",""0.632"",""0.909""]","[1,1,0,1]",0,52,52,52,1,0,1,,,0,FALSE,,,,,,,,,,,,,,,,,,,,,,,,,,,,,,
,5f494e24f9229236c055063b,001,2022-04-29_03h15.10.095,classification_task,2021.2.3,MacIntel,59.99880002,5f494e24f9229236c055063b,626b377229c10585ec392f8a,626b3bcdd152bd77a80e6e1b,,,,,,,,,,,,,,,,,,,,,,,a,1,0.6066,"[""0.272"",""0.632"",""0.874"",""0.909""]","[1,0,1,1]",0,53,53,53,1,0,1,,,0,FALSE,,,,,,,,,,,,,,,,,,,,,,,,,,,,,,
,5f494e24f9229236c055063b,001,2022-04-29_03h15.10.095,classification_task,2021.2.3,MacIntel,59.99880002,5f494e24f9229236c055063b,626b377229c10585ec392f8a,626b3bcdd152bd77a80e6e1b,,,,,,,,,,,,,,,,,,,,,,,a,1,1.2824,"[""0.350"",""0.412"",""0.596"",""0.943""]","[0,1,1,1]",0,54,54,54,1,0,0,,,0,FALSE,,,,,,,,,,,,,,,,,,,,,,,,,,,,,,
,5f494e24f9229236c055063b,001,2022-04-29_03h15.10.095,classification_task,2021.2.3,MacIntel,59.99880002,5f494e24f9229236c055063b,626b377229c10585ec392f8a,626b3bcdd152bd77a80e6e1b,,,,,,,,,,,,,,,,,,,,,,,l,1,0.7322,"[""0.055"",""0.114"",""0.669"",""0.750""]","[1,1,1,0]",0,55,55,55,1,1,0,,,0,FALSE,,,,,,,,,,,,,,,,,,,,,,,,,,,,,,
,5f494e24f9229236c055063b,001,2022-04-29_03h15.10.095,classification_task,2021.2.3,MacIntel,59.99880002,5f494e24f9229236c055063b,626b377229c10585ec392f8a,626b3bcdd152bd77a80e6e1b,,,,,,,,,,,,,,,,,,,,,,,a,1,0.8975,"[""0.214"",""0.349"",""0.596"",""0.943""]","[1,0,1,1]",0,56,56,56,1,0,0,,,0,FALSE,,,,,,,,,,,,,,,,,,,,,,,,,,,,,,
,5f494e24f9229236c055063b,001,2022-04-29_03h15.10.095,classification_task,2021.2.3,MacIntel,59.99880002,5f494e24f9229236c055063b,626b377229c10585ec392f8a,626b3bcdd152bd77a80e6e1b,,,,,,,,,,,,,,,,,,,,,,,l,1,0.6673,"[""0.055"",""0.750"",""0.669"",""0.818""]","[1,0,1,1]",0,57,57,57,1,1,0,,,0,FALSE,,,,,,,,,,,,,,,,,,,,,,,,,,,,,,
,5f494e24f9229236c055063b,001,2022-04-29_03h15.10.095,classification_task,2021.2.3,MacIntel,59.99880002,5f494e24f9229236c055063b,626b377229c10585ec392f8a,626b3bcdd152bd77a80e6e1b,,,,,,,,,,,,,,,,,,,,,,,l,1,1.664,"[""0.155"",""0.349"",""0.489"",""0.716""]","[1,0,1,1]",0,58,58,58,1,1,1,,,0,FALSE,,,,,,,,,,,,,,,,,,,,,,,,,,,,,,
,5f494e24f9229236c055063b,001,2022-04-29_03h15.10.095,classification_task,2021.2.3,MacIntel,59.99880002,5f494e24f9229236c055063b,626b377229c10585ec392f8a,626b3bcdd152bd77a80e6e1b,,,,,,,,,,,,,,,,,,,,,,,a,1,0.7216,"[""0.272"",""0.532"",""0.874"",""0.349""]","[1,1,1,0]",0,59,59,59,1,0,1,,,0,FALSE,,,,,,,,,,,,,,,,,,,,,,,,,,,,,,
,5f494e24f9229236c055063b,001,2022-04-29_03h15.10.095,classification_task,2021.2.3,MacIntel,59.99880002,5f494e24f9229236c055063b,626b377229c10585ec392f8a,626b3bcdd152bd77a80e6e1b,,,,,,,,,,,,,,,,,,,,,,,l,1,1.533,"[""0.764"",""0.314"",""0.489"",""0.716""]","[0,1,1,1]",0,60,60,60,1,1,1,,,0,FALSE,,,,,,,,,,,,,,,,,,,,,,,,,,,,,,
,5f494e24f9229236c055063b,001,2022-04-29_03h15.10.095,classification_task,2021.2.3,MacIntel,59.99880002,5f494e24f9229236c055063b,626b377229c10585ec392f8a,626b3bcdd152bd77a80e6e1b,,,,,,,,,,,,,,,,,,,,,,,a,1,1.0009,"[""0.214"",""0.412"",""0.764"",""0.943""]","[1,1,0,1]",0,61,61,61,1,0,0,,,0,FALSE,,,,,,,,,,,,,,,,,,,,,,,,,,,,,,
,5f494e24f9229236c055063b,001,2022-04-29_03h15.10.095,classification_task,2021.2.3,MacIntel,59.99880002,5f494e24f9229236c055063b,626b377229c10585ec392f8a,626b3bcdd152bd77a80e6e1b,,,,,,,,,,,,,,,,,,,,,,,l,1,0.6828,"[""0.355"",""0.114"",""0.669"",""0.818""]","[0,1,1,1]",0,62,62,62,1,1,0,,,0,FALSE,,,,,,,,,,,,,,,,,,,,,,,,,,,,,,
,5f494e24f9229236c055063b,001,2022-04-29_03h15.10.095,classification_task,2021.2.3,MacIntel,59.99880002,5f494e24f9229236c055063b,626b377229c10585ec392f8a,626b3bcdd152bd77a80e6e1b,,,,,,,,,,,,,,,,,,,,,,,a,1,1.0791,"[""0.778"",""0.532"",""0.874"",""0.909""]","[0,1,1,1]",0,63,63,63,1,0,1,,,0,FALSE,,,,,,,,,,,,,,,,,,,,,,,,,,,,,,
,5f494e24f9229236c055063b,001,2022-04-29_03h15.10.095,classification_task,2021.2.3,MacIntel,59.99880002,5f494e24f9229236c055063b,626b377229c10585ec392f8a,626b3bcdd152bd77a80e6e1b,,,,,,,,,,,,,,,,,,,,,,,,,,,,,,,,,,,,,,,0, ,,0,0.809105857,162.1894,0,1,1,1,1,2,2,,,,,,,,,,,,,,,,,
,5f494e24f9229236c055063b,001,2022-04-29_03h15.10.095,classification_task,2021.2.3,MacIntel,59.99880002,5f494e24f9229236c055063b,626b377229c10585ec392f8a,626b3bcdd152bd77a80e6e1b,,,,,,,,,,,,,,,,,,,,,,,,,,,,,,,,,,,,,,,1,  ,,0,2.714350015,161.0436,0,1,1,1,1,2,2,,,,,,,,,,,,,,,,,
,5f494e24f9229236c055063b,001,2022-04-29_03h15.10.095,classification_task,2021.2.3,MacIntel,59.99880002,5f494e24f9229236c055063b,626b377229c10585ec392f8a,626b3bcdd152bd77a80e6e1b,,,,,,,,,,,,,,,,,,,,,,,,,,,,,,,,,,,,,,,2,  ,,0,4.070859053,156.6181,0,1,1,1,1,2,2,,,,,,,,,,,,,,,,,
,5f494e24f9229236c055063b,001,2022-04-29_03h15.10.095,classification_task,2021.2.3,MacIntel,59.99880002,5f494e24f9229236c055063b,626b377229c10585ec392f8a,626b3bcdd152bd77a80e6e1b,,,,,,,,,,,,,,,,,,,,,,,,,,,,,,,,,,,,,,,,,,,,,0,1,1,1,1,,2,,,,,,,,,,,,,,,,,
,5f494e24f9229236c055063b,001,2022-04-29_03h15.10.095,classification_task,2021.2.3,MacIntel,59.99880002,5f494e24f9229236c055063b,626b377229c10585ec392f8a,626b3bcdd152bd77a80e6e1b,,,,,,,,,,,,,,,,,,,,,space,6.8614,l,0,2.2252,"[""0.214"",""0.445"",""0.596"",""0.943""]","[1,0,1,1]",0,0,0,0,1,0,0,,,0,FALSE,,,,,,,,,,,,,,,,,,,,,,,,,,,,,,
,5f494e24f9229236c055063b,001,2022-04-29_03h15.10.095,classification_task,2021.2.3,MacIntel,59.99880002,5f494e24f9229236c055063b,626b377229c10585ec392f8a,626b3bcdd152bd77a80e6e1b,,,,,,,,,,,,,,,,,,,,,,,a,1,0.9477,"[""0.272"",""0.349"",""0.874"",""0.909""]","[1,0,1,1]",0,1,1,1,1,0,1,,,0,FALSE,,,,,,,,,,,,,,,,,,,,,,,,,,,,,,
,5f494e24f9229236c055063b,001,2022-04-29_03h15.10.095,classification_task,2021.2.3,MacIntel,59.99880002,5f494e24f9229236c055063b,626b377229c10585ec392f8a,626b3bcdd152bd77a80e6e1b,,,,,,,,,,,,,,,,,,,,,,,l,0,3.1121,"[""0.764"",""0.412"",""0.596"",""0.943""]","[0,1,1,1]",0,2,2,2,1,0,0,,,0,FALSE,,,,,,,,,,,,,,,,,,,,,,,,,,,,,,
,5f494e24f9229236c055063b,001,2022-04-29_03h15.10.095,classification_task,2021.2.3,MacIntel,59.99880002,5f494e24f9229236c055063b,626b377229c10585ec392f8a,626b3bcdd152bd77a80e6e1b,,,,,,,,,,,,,,,,,,,,,,,a,1,0.9925,"[""0.272"",""0.532"",""0.874"",""0.445""]","[1,1,1,0]",0,3,3,3,1,0,1,,,0,FALSE,,,,,,,,,,,,,,,,,,,,,,,,,,,,,,
,5f494e24f9229236c055063b,001,2022-04-29_03h15.10.095,classification_task,2021.2.3,MacIntel,59.99880002,5f494e24f9229236c055063b,626b377229c10585ec392f8a,626b3bcdd152bd77a80e6e1b,,,,,,,,,,,,,,,,,,,,,,,a,0,2.6032,"[""0.350"",""0.114"",""0.669"",""0.818""]","[0,1,1,1]",0,4,4,4,1,1,0,,,0,FALSE,,,,,,,,,,,,,,,,,,,,,,,,,,,,,,
,5f494e24f9229236c055063b,001,2022-04-29_03h15.10.095,classification_task,2021.2.3,MacIntel,59.99880002,5f494e24f9229236c055063b,626b377229c10585ec392f8a,626b3bcdd152bd77a80e6e1b,,,,,,,,,,,,,,,,,,,,,,,l,1,0.9553,"[""0.155"",""0.314"",""0.764"",""0.716""]","[1,1,0,1]",0,5,5,5,1,1,1,,,0,FALSE,,,,,,,,,,,,,,,,,,,,,,,,,,,,,,
,5f494e24f9229236c055063b,001,2022-04-29_03h15.10.095,classification_task,2021.2.3,MacIntel,59.99880002,5f494e24f9229236c055063b,626b377229c10585ec392f8a,626b3bcdd152bd77a80e6e1b,,,,,,,,,,,,,,,,,,,,,,,l,0,1.6874,"[""0.214"",""0.412"",""0.445"",""0.943""]","[1,1,0,1]",0,6,6,6,1,0,0,,,0,FALSE,,,,,,,,,,,,,,,,,,,,,,,,,,,,,,
,5f494e24f9229236c055063b,001,2022-04-29_03h15.10.095,classification_task,2021.2.3,MacIntel,59.99880002,5f494e24f9229236c055063b,626b377229c10585ec392f8a,626b3bcdd152bd77a80e6e1b,,,,,,,,,,,,,,,,,,,,,,,a,0,1.5491,"[""0.055"",""0.114"",""0.750"",""0.818""]","[1,1,0,1]",0,7,7,7,1,1,0,,,0,FALSE,,,,,,,,,,,,,,,,,,,,,,,,,,,,,,
,5f494e24f9229236c055063b,001,2022-04-29_03h15.10.095,classification_task,2021.2.3,MacIntel,59.99880002,5f494e24f9229236c055063b,626b377229c10585ec392f8a,626b3bcdd152bd77a80e6e1b,,,,,,,,,,,,,,,,,,,,,,,l,1,0.8864,"[""0.055"",""0.355"",""0.669"",""0.818""]","[1,0,1,1]",0,8,8,8,1,1,0,,,0,FALSE,,,,,,,,,,,,,,,,,,,,,,,,,,,,,,
,5f494e24f9229236c055063b,001,2022-04-29_03h15.10.095,classification_task,2021.2.3,MacIntel,59.99880002,5f494e24f9229236c055063b,626b377229c10585ec392f8a,626b3bcdd152bd77a80e6e1b,,,,,,,,,,,,,,,,,,,,,,,l,1,1.5814,"[""0.155"",""0.314"",""0.489"",""0.778""]","[1,1,1,0]",0,9,9,9,1,1,1,,,0,FALSE,,,,,,,,,,,,,,,,,,,,,,,,,,,,,,
,5f494e24f9229236c055063b,001,2022-04-29_03h15.10.095,classification_task,2021.2.3,MacIntel,59.99880002,5f494e24f9229236c055063b,626b377229c10585ec392f8a,626b3bcdd152bd77a80e6e1b,,,,,,,,,,,,,,,,,,,,,,,a,1,0.6996,"[""0.350"",""0.532"",""0.874"",""0.909""]","[0,1,1,1]",0,10,10,10,1,0,1,,,0,FALSE,,,,,,,,,,,,,,,,,,,,,,,,,,,,,,
,5f494e24f9229236c055063b,001,2022-04-29_03h15.10.095,classification_task,2021.2.3,MacIntel,59.99880002,5f494e24f9229236c055063b,626b377229c10585ec392f8a,626b3bcdd152bd77a80e6e1b,,,,,,,,,,,,,,,,,,,,,,,a,1,0.8013,"[""0.272"",""0.532"",""0.373"",""0.909""]","[1,1,0,1]",0,11,11,11,1,0,1,,,0,FALSE,,,,,,,,,,,,,,,,,,,,,,,,,,,,,,
,5f494e24f9229236c055063b,001,2022-04-29_03h15.10.095,classification_task,2021.2.3,MacIntel,59.99880002,5f494e24f9229236c055063b,626b377229c10585ec392f8a,626b3bcdd152bd77a80e6e1b,,,,,,,,,,,,,,,,,,,,,,,l,1,1.467,"[""0.155"",""0.764"",""0.489"",""0.716""]","[1,0,1,1]",0,12,12,12,1,1,1,,,0,FALSE,,,,,,,,,,,,,,,,,,,,,,,,,,,,,,
,5f494e24f9229236c055063b,001,2022-04-29_03h15.10.095,classification_task,2021.2.3,MacIntel,59.99880002,5f494e24f9229236c055063b,626b377229c10585ec392f8a,626b3bcdd152bd77a80e6e1b,,,,,,,,,,,,,,,,,,,,,,,l,1,1.7523,"[""0.353"",""0.314"",""0.489"",""0.716""]","[0,1,1,1]",0,13,13,13,1,1,1,,,0,FALSE,,,,,,,,,,,,,,,,,,,,,,,,,,,,,,
,5f494e24f9229236c055063b,001,2022-04-29_03h15.10.095,classification_task,2021.2.3,MacIntel,59.99880002,5f494e24f9229236c055063b,626b377229c10585ec392f8a,626b3bcdd152bd77a80e6e1b,,,,,,,,,,,,,,,,,,,,,,,l,1,1.3874,"[""0.055"",""0.114"",""0.669"",""0.355""]","[1,1,1,0]",0,14,14,14,1,1,0,,,0,FALSE,,,,,,,,,,,,,,,,,,,,,,,,,,,,,,
,5f494e24f9229236c055063b,001,2022-04-29_03h15.10.095,classification_task,2021.2.3,MacIntel,59.99880002,5f494e24f9229236c055063b,626b377229c10585ec392f8a,626b3bcdd152bd77a80e6e1b,,,,,,,,,,,,,,,,,,,,,,,a,1,1.3725,"[""0.214"",""0.412"",""0.596"",""0.447""]","[1,1,1,0]",0,15,15,15,1,0,0,,,0,FALSE,,,,,,,,,,,,,,,,,,,,,,,,,,,,,,
,5f494e24f9229236c055063b,001,2022-04-29_03h15.10.095,classification_task,2021.2.3,MacIntel,59.99880002,5f494e24f9229236c055063b,626b377229c10585ec392f8a,626b3bcdd152bd77a80e6e1b,,,,,,,,,,,,,,,,,,,,,,,a,1,1.4951,"[""0.272"",""0.532"",""0.447"",""0.909""]","[1,1,0,1]",0,16,16,16,1,0,1,,,0,FALSE,,,,,,,,,,,,,,,,,,,,,,,,,,,,,,
,5f494e24f9229236c055063b,001,2022-04-29_03h15.10.095,classification_task,2021.2.3,MacIntel,59.99880002,5f494e24f9229236c055063b,626b377229c10585ec392f8a,626b3bcdd152bd77a80e6e1b,,,,,,,,,,,,,,,,,,,,,,,l,0,2.9216,"[""0.214"",""0.412"",""0.778"",""0.943""]","[1,1,0,1]",0,17,17,17,1,0,0,,,0,FALSE,,,,,,,,,,,,,,,,,,,,,,,,,,,,,,
,5f494e24f9229236c055063b,001,2022-04-29_03h15.10.095,classification_task,2021.2.3,MacIntel,59.99880002,5f494e24f9229236c055063b,626b377229c10585ec392f8a,626b3bcdd152bd77a80e6e1b,,,,,,,,,,,,,,,,,,,,,,,a,1,0.771,"[""0.272"",""0.353"",""0.874"",""0.909""]","[1,0,1,1]",0,18,18,18,1,0,1,,,0,FALSE,,,,,,,,,,,,,,,,,,,,,,,,,,,,,,
,5f494e24f9229236c055063b,001,2022-04-29_03h15.10.095,classification_task,2021.2.3,MacIntel,59.99880002,5f494e24f9229236c055063b,626b377229c10585ec392f8a,626b3bcdd152bd77a80e6e1b,,,,,,,,,,,,,,,,,,,,,,,l,1,1.3035,"[""0.447"",""0.114"",""0.669"",""0.818""]","[0,1,1,1]",0,19,19,19,1,1,0,,,0,FALSE,,,,,,,,,,,,,,,,,,,,,,,,,,,,,,
,5f494e24f9229236c055063b,001,2022-04-29_03h15.10.095,classification_task,2021.2.3,MacIntel,59.99880002,5f494e24f9229236c055063b,626b377229c10585ec392f8a,626b3bcdd152bd77a80e6e1b,,,,,,,,,,,,,,,,,,,,,,,a,1,1.419,"[""0.447"",""0.412"",""0.596"",""0.943""]","[0,1,1,1]",0,20,20,20,1,0,0,,,0,FALSE,,,,,,,,,,,,,,,,,,,,,,,,,,,,,,
,5f494e24f9229236c055063b,001,2022-04-29_03h15.10.095,classification_task,2021.2.3,MacIntel,59.99880002,5f494e24f9229236c055063b,626b377229c10585ec392f8a,626b3bcdd152bd77a80e6e1b,,,,,,,,,,,,,,,,,,,,,,,l,1,1.0153,"[""0.055"",""0.114"",""0.781"",""0.818""]","[1,1,0,1]",0,21,21,21,1,1,0,,,0,FALSE,,,,,,,,,,,,,,,,,,,,,,,,,,,,,,
,5f494e24f9229236c055063b,001,2022-04-29_03h15.10.095,classification_task,2021.2.3,MacIntel,59.99880002,5f494e24f9229236c055063b,626b377229c10585ec392f8a,626b3bcdd152bd77a80e6e1b,,,,,,,,,,,,,,,,,,,,,,,a,0,1.935,"[""0.055"",""0.350"",""0.669"",""0.818""]","[1,0,1,1]",0,22,22,22,1,1,0,,,0,FALSE,,,,,,,,,,,,,,,,,,,,,,,,,,,,,,
,5f494e24f9229236c055063b,001,2022-04-29_03h15.10.095,classification_task,2021.2.3,MacIntel,59.99880002,5f494e24f9229236c055063b,626b377229c10585ec392f8a,626b3bcdd152bd77a80e6e1b,,,,,,,,,,,,,,,,,,,,,,,l,0,1.4537,"[""0.214"",""0.350"",""0.596"",""0.943""]","[1,0,1,1]",0,23,23,23,1,0,0,,,0,FALSE,,,,,,,,,,,,,,,,,,,,,,,,,,,,,,
,5f494e24f9229236c055063b,001,2022-04-29_03h15.10.095,classification_task,2021.2.3,MacIntel,59.99880002,5f494e24f9229236c055063b,626b377229c10585ec392f8a,626b3bcdd152bd77a80e6e1b,,,,,,,,,,,,,,,,,,,,,,,l,1,1.2499,"[""0.055"",""0.114"",""0.669"",""0.447""]","[1,1,1,0]",0,24,24,24,1,1,0,,,0,FALSE,,,,,,,,,,,,,,,,,,,,,,,,,,,,,,
,5f494e24f9229236c055063b,001,2022-04-29_03h15.10.095,classification_task,2021.2.3,MacIntel,59.99880002,5f494e24f9229236c055063b,626b377229c10585ec392f8a,626b3bcdd152bd77a80e6e1b,,,,,,,,,,,,,,,,,,,,,,,a,1,0.9658,"[""0.350"",""0.532"",""0.874"",""0.909""]","[0,1,1,1]",0,25,25,25,1,0,1,,,0,FALSE,,,,,,,,,,,,,,,,,,,,,,,,,,,,,,
,5f494e24f9229236c055063b,001,2022-04-29_03h15.10.095,classification_task,2021.2.3,MacIntel,59.99880002,5f494e24f9229236c055063b,626b377229c10585ec392f8a,626b3bcdd152bd77a80e6e1b,,,,,,,,,,,,,,,,,,,,,,,a,1,2.1389,"[""0.272"",""0.532"",""0.874"",""0.632""]","[1,1,1,0]",0,26,26,26,1,0,1,,,0,FALSE,,,,,,,,,,,,,,,,,,,,,,,,,,,,,,
,5f494e24f9229236c055063b,001,2022-04-29_03h15.10.095,classification_task,2021.2.3,MacIntel,59.99880002,5f494e24f9229236c055063b,626b377229c10585ec392f8a,626b3bcdd152bd77a80e6e1b,,,,,,,,,,,,,,,,,,,,,,,l,1,1.1896,"[""0.155"",""0.314"",""0.489"",""0.353""]","[1,1,1,0]",0,27,27,27,1,1,1,,,0,FALSE,,,,,,,,,,,,,,,,,,,,,,,,,,,,,,
,5f494e24f9229236c055063b,001,2022-04-29_03h15.10.095,classification_task,2021.2.3,MacIntel,59.99880002,5f494e24f9229236c055063b,626b377229c10585ec392f8a,626b3bcdd152bd77a80e6e1b,,,,,,,,,,,,,,,,,,,,,,,a,0,1.0845,"[""0.155"",""0.350"",""0.489"",""0.716""]","[1,0,1,1]",0,28,28,28,1,1,1,,,0,FALSE,,,,,,,,,,,,,,,,,,,,,,,,,,,,,,
,5f494e24f9229236c055063b,001,2022-04-29_03h15.10.095,classification_task,2021.2.3,MacIntel,59.99880002,5f494e24f9229236c055063b,626b377229c10585ec392f8a,626b3bcdd152bd77a80e6e1b,,,,,,,,,,,,,,,,,,,,,,,l,1,1.9851,"[""0.632"",""0.314"",""0.489"",""0.716""]","[0,1,1,1]",0,29,29,29,1,1,1,,,0,FALSE,,,,,,,,,,,,,,,,,,,,,,,,,,,,,,
,5f494e24f9229236c055063b,001,2022-04-29_03h15.10.095,classification_task,2021.2.3,MacIntel,59.99880002,5f494e24f9229236c055063b,626b377229c10585ec392f8a,626b3bcdd152bd77a80e6e1b,,,,,,,,,,,,,,,,,,,,,,,a,1,1.3508,"[""0.214"",""0.412"",""0.596"",""0.778""]","[1,1,1,0]",0,30,30,30,1,0,0,,,0,FALSE,,,,,,,,,,,,,,,,,,,,,,,,,,,,,,
,5f494e24f9229236c055063b,001,2022-04-29_03h15.10.095,classification_task,2021.2.3,MacIntel,59.99880002,5f494e24f9229236c055063b,626b377229c10585ec392f8a,626b3bcdd152bd77a80e6e1b,,,,,,,,,,,,,,,,,,,,,,,l,1,1.2666,"[""0.155"",""0.314"",""0.764"",""0.716""]","[1,1,0,1]",0,31,31,31,1,1,1,,,0,FALSE,,,,,,,,,,,,,,,,,,,,,,,,,,,,,,
,5f494e24f9229236c055063b,001,2022-04-29_03h15.10.095,classification_task,2021.2.3,MacIntel,59.99880002,5f494e24f9229236c055063b,626b377229c10585ec392f8a,626b3bcdd152bd77a80e6e1b,,,,,,,,,,,,,,,,,,,,,,,a,1,0.6548,"[""0.750"",""0.532"",""0.874"",""0.909""]","[0,1,1,1]",0,32,32,32,1,0,1,,,0,FALSE,,,,,,,,,,,,,,,,,,,,,,,,,,,,,,
,5f494e24f9229236c055063b,001,2022-04-29_03h15.10.095,classification_task,2021.2.3,MacIntel,59.99880002,5f494e24f9229236c055063b,626b377229c10585ec392f8a,626b3bcdd152bd77a80e6e1b,,,,,,,,,,,,,,,,,,,,,,,l,0,1.6869,"[""0.214"",""0.412"",""0.446"",""0.943""]","[1,1,0,1]",0,33,33,33,1,0,0,,,0,FALSE,,,,,,,,,,,,,,,,,,,,,,,,,,,,,,
,5f494e24f9229236c055063b,001,2022-04-29_03h15.10.095,classification_task,2021.2.3,MacIntel,59.99880002,5f494e24f9229236c055063b,626b377229c10585ec392f8a,626b3bcdd152bd77a80e6e1b,,,,,,,,,,,,,,,,,,,,,,,a,1,1.523,"[""0.214"",""0.412"",""0.596"",""0.773""]","[1,1,1,0]",0,34,34,34,1,0,0,,,0,FALSE,,,,,,,,,,,,,,,,,,,,,,,,,,,,,,
,5f494e24f9229236c055063b,001,2022-04-29_03h15.10.095,classification_task,2021.2.3,MacIntel,59.99880002,5f494e24f9229236c055063b,626b377229c10585ec392f8a,626b3bcdd152bd77a80e6e1b,,,,,,,,,,,,,,,,,,,,,,,l,1,1.3243,"[""0.350"",""0.314"",""0.489"",""0.716""]","[0,1,1,1]",0,35,35,35,1,1,1,,,0,FALSE,,,,,,,,,,,,,,,,,,,,,,,,,,,,,,
,5f494e24f9229236c055063b,001,2022-04-29_03h15.10.095,classification_task,2021.2.3,MacIntel,59.99880002,5f494e24f9229236c055063b,626b377229c10585ec392f8a,626b3bcdd152bd77a80e6e1b,,,,,,,,,,,,,,,,,,,,,,,l,1,1.7829,"[""0.155"",""0.314"",""0.489"",""0.764""]","[1,1,1,0]",0,36,36,36,1,1,1,,,0,FALSE,,,,,,,,,,,,,,,,,,,,,,,,,,,,,,
,5f494e24f9229236c055063b,001,2022-04-29_03h15.10.095,classification_task,2021.2.3,MacIntel,59.99880002,5f494e24f9229236c055063b,626b377229c10585ec392f8a,626b3bcdd152bd77a80e6e1b,,,,,,,,,,,,,,,,,,,,,,,l,1,1.4718,"[""0.055"",""0.114"",""0.355"",""0.818""]","[1,1,0,1]",0,37,37,37,1,1,0,,,0,FALSE,,,,,,,,,,,,,,,,,,,,,,,,,,,,,,
,5f494e24f9229236c055063b,001,2022-04-29_03h15.10.095,classification_task,2021.2.3,MacIntel,59.99880002,5f494e24f9229236c055063b,626b377229c10585ec392f8a,626b3bcdd152bd77a80e6e1b,,,,,,,,,,,,,,,,,,,,,,,a,1,1.0531,"[""0.272"",""0.532"",""0.874"",""0.773""]","[1,1,1,0]",0,38,38,38,1,0,1,,,0,FALSE,,,,,,,,,,,,,,,,,,,,,,,,,,,,,,
,5f494e24f9229236c055063b,001,2022-04-29_03h15.10.095,classification_task,2021.2.3,MacIntel,59.99880002,5f494e24f9229236c055063b,626b377229c10585ec392f8a,626b3bcdd152bd77a80e6e1b,,,,,,,,,,,,,,,,,,,,,,,l,1,1.1697,"[""0.055"",""0.114"",""0.669"",""0.350""]","[1,1,1,0]",0,39,39,39,1,1,0,,,0,FALSE,,,,,,,,,,,,,,,,,,,,,,,,,,,,,,
,5f494e24f9229236c055063b,001,2022-04-29_03h15.10.095,classification_task,2021.2.3,MacIntel,59.99880002,5f494e24f9229236c055063b,626b377229c10585ec392f8a,626b3bcdd152bd77a80e6e1b,,,,,,,,,,,,,,,,,,,,,,,l,1,2.3668,"[""0.055"",""0.781"",""0.669"",""0.818""]","[1,0,1,1]",0,40,40,40,1,1,0,,,0,FALSE,,,,,,,,,,,,,,,,,,,,,,,,,,,,,,
,5f494e24f9229236c055063b,001,2022-04-29_03h15.10.095,classification_task,2021.2.3,MacIntel,59.99880002,5f494e24f9229236c055063b,626b377229c10585ec392f8a,626b3bcdd152bd77a80e6e1b,,,,,,,,,,,,,,,,,,,,,,,a,1,0.9195,"[""0.272"",""0.350"",""0.874"",""0.909""]","[1,0,1,1]",0,41,41,41,1,0,1,,,0,FALSE,,,,,,,,,,,,,,,,,,,,,,,,,,,,,,
,5f494e24f9229236c055063b,001,2022-04-29_03h15.10.095,classification_task,2021.2.3,MacIntel,59.99880002,5f494e24f9229236c055063b,626b377229c10585ec392f8a,626b3bcdd152bd77a80e6e1b,,,,,,,,,,,,,,,,,,,,,,,l,0,3.1479,"[""0.214"",""0.764"",""0.596"",""0.943""]","[1,0,1,1]",0,42,42,42,1,0,0,,,0,FALSE,,,,,,,,,,,,,,,,,,,,,,,,,,,,,,
,5f494e24f9229236c055063b,001,2022-04-29_03h15.10.095,classification_task,2021.2.3,MacIntel,59.99880002,5f494e24f9229236c055063b,626b377229c10585ec392f8a,626b3bcdd152bd77a80e6e1b,,,,,,,,,,,,,,,,,,,,,,,a,0,1.2896,"[""0.764"",""0.114"",""0.669"",""0.818""]","[0,1,1,1]",0,43,43,43,1,1,0,,,0,FALSE,,,,,,,,,,,,,,,,,,,,,,,,,,,,,,
,5f494e24f9229236c055063b,001,2022-04-29_03h15.10.095,classification_task,2021.2.3,MacIntel,59.99880002,5f494e24f9229236c055063b,626b377229c10585ec392f8a,626b3bcdd152bd77a80e6e1b,,,,,,,,,,,,,,,,,,,,,,,l,1,2.2843,"[""0.155"",""0.353"",""0.489"",""0.716""]","[1,0,1,1]",0,44,44,44,1,1,1,,,0,FALSE,,,,,,,,,,,,,,,,,,,,,,,,,,,,,,
,5f494e24f9229236c055063b,001,2022-04-29_03h15.10.095,classification_task,2021.2.3,MacIntel,59.99880002,5f494e24f9229236c055063b,626b377229c10585ec392f8a,626b3bcdd152bd77a80e6e1b,,,,,,,,,,,,,,,,,,,,,,,l,1,1.7501,"[""0.155"",""0.314"",""0.373"",""0.716""]","[1,1,0,1]",0,45,45,45,1,1,1,,,0,FALSE,,,,,,,,,,,,,,,,,,,,,,,,,,,,,,
,5f494e24f9229236c055063b,001,2022-04-29_03h15.10.095,classification_task,2021.2.3,MacIntel,59.99880002,5f494e24f9229236c055063b,626b377229c10585ec392f8a,626b3bcdd152bd77a80e6e1b,,,,,,,,,,,,,,,,,,,,,,,l,0,1.823,"[""0.781"",""0.412"",""0.596"",""0.943""]","[0,1,1,1]",0,46,46,46,1,0,0,,,0,FALSE,,,,,,,,,,,,,,,,,,,,,,,,,,,,,,
,5f494e24f9229236c055063b,001,2022-04-29_03h15.10.095,classification_task,2021.2.3,MacIntel,59.99880002,5f494e24f9229236c055063b,626b377229c10585ec392f8a,626b3bcdd152bd77a80e6e1b,,,,,,,,,,,,,,,,,,,,,,,a,1,0.9342,"[""0.272"",""0.532"",""0.764"",""0.909""]","[1,1,0,1]",0,47,47,47,1,0,1,,,0,FALSE,,,,,,,,,,,,,,,,,,,,,,,,,,,,,,
,5f494e24f9229236c055063b,001,2022-04-29_03h15.10.095,classification_task,2021.2.3,MacIntel,59.99880002,5f494e24f9229236c055063b,626b377229c10585ec392f8a,626b3bcdd152bd77a80e6e1b,,,,,,,,,,,,,,,,,,,,,,,a,1,1.3708,"[""0.214"",""0.412"",""0.596"",""0.373""]","[1,1,1,0]",0,48,48,48,1,0,0,,,0,FALSE,,,,,,,,,,,,,,,,,,,,,,,,,,,,,,
,5f494e24f9229236c055063b,001,2022-04-29_03h15.10.095,classification_task,2021.2.3,MacIntel,59.99880002,5f494e24f9229236c055063b,626b377229c10585ec392f8a,626b3bcdd152bd77a80e6e1b,,,,,,,,,,,,,,,,,,,,,,,l,1,0.8679,"[""0.055"",""0.114"",""0.669"",""0.373""]","[1,1,1,0]",0,49,49,49,1,1,0,,,0,FALSE,,,,,,,,,,,,,,,,,,,,,,,,,,,,,,
,5f494e24f9229236c055063b,001,2022-04-29_03h15.10.095,classification_task,2021.2.3,MacIntel,59.99880002,5f494e24f9229236c055063b,626b377229c10585ec392f8a,626b3bcdd152bd77a80e6e1b,,,,,,,,,,,,,,,,,,,,,,,l,1,3.9004,"[""0.155"",""0.445"",""0.489"",""0.716""]","[1,0,1,1]",0,50,50,50,1,1,1,,,0,FALSE,,,,,,,,,,,,,,,,,,,,,,,,,,,,,,
,5f494e24f9229236c055063b,001,2022-04-29_03h15.10.095,classification_task,2021.2.3,MacIntel,59.99880002,5f494e24f9229236c055063b,626b377229c10585ec392f8a,626b3bcdd152bd77a80e6e1b,,,,,,,,,,,,,,,,,,,,,,,l,0,0.9521,"[""0.214"",""0.412"",""0.773"",""0.943""]","[1,1,0,1]",0,51,51,51,1,0,0,,,0,FALSE,,,,,,,,,,,,,,,,,,,,,,,,,,,,,,
,5f494e24f9229236c055063b,001,2022-04-29_03h15.10.095,classification_task,2021.2.3,MacIntel,59.99880002,5f494e24f9229236c055063b,626b377229c10585ec392f8a,626b3bcdd152bd77a80e6e1b,,,,,,,,,,,,,,,,,,,,,,,a,0,1.6367,"[""0.155"",""0.314"",""0.489"",""0.353""]","[1,1,1,0]",0,52,52,52,1,1,1,,,0,FALSE,,,,,,,,,,,,,,,,,,,,,,,,,,,,,,
,5f494e24f9229236c055063b,001,2022-04-29_03h15.10.095,classification_task,2021.2.3,MacIntel,59.99880002,5f494e24f9229236c055063b,626b377229c10585ec392f8a,626b3bcdd152bd77a80e6e1b,,,,,,,,,,,,,,,,,,,,,,,a,1,0.6345,"[""0.353"",""0.532"",""0.874"",""0.909""]","[0,1,1,1]",0,53,53,53,1,0,1,,,0,FALSE,,,,,,,,,,,,,,,,,,,,,,,,,,,,,,
,5f494e24f9229236c055063b,001,2022-04-29_03h15.10.095,classification_task,2021.2.3,MacIntel,59.99880002,5f494e24f9229236c055063b,626b377229c10585ec392f8a,626b3bcdd152bd77a80e6e1b,,,,,,,,,,,,,,,,,,,,,,,a,1,1.0044,"[""0.272"",""0.446"",""0.874"",""0.909""]","[1,0,1,1]",0,54,54,54,1,0,1,,,0,FALSE,,,,,,,,,,,,,,,,,,,,,,,,,,,,,,
,5f494e24f9229236c055063b,001,2022-04-29_03h15.10.095,classification_task,2021.2.3,MacIntel,59.99880002,5f494e24f9229236c055063b,626b377229c10585ec392f8a,626b3bcdd152bd77a80e6e1b,,,,,,,,,,,,,,,,,,,,,,,a,1,1.0322,"[""0.272"",""0.532"",""0.874"",""0.778""]","[1,1,1,0]",0,55,55,55,1,0,1,,,0,FALSE,,,,,,,,,,,,,,,,,,,,,,,,,,,,,,
,5f494e24f9229236c055063b,001,2022-04-29_03h15.10.095,classification_task,2021.2.3,MacIntel,59.99880002,5f494e24f9229236c055063b,626b377229c10585ec392f8a,626b3bcdd152bd77a80e6e1b,,,,,,,,,,,,,,,,,,,,,,,a,1,0.6527,"[""0.272"",""0.532"",""0.764"",""0.909""]","[1,1,0,1]",0,56,56,56,1,0,1,,,0,FALSE,,,,,,,,,,,,,,,,,,,,,,,,,,,,,,
,5f494e24f9229236c055063b,001,2022-04-29_03h15.10.095,classification_task,2021.2.3,MacIntel,59.99880002,5f494e24f9229236c055063b,626b377229c10585ec392f8a,626b3bcdd152bd77a80e6e1b,,,,,,,,,,,,,,,,,,,,,,,l,1,1.8488,"[""0.764"",""0.314"",""0.489"",""0.716""]","[0,1,1,1]",0,57,57,57,1,1,1,,,0,FALSE,,,,,,,,,,,,,,,,,,,,,,,,,,,,,,
,5f494e24f9229236c055063b,001,2022-04-29_03h15.10.095,classification_task,2021.2.3,MacIntel,59.99880002,5f494e24f9229236c055063b,626b377229c10585ec392f8a,626b3bcdd152bd77a80e6e1b,,,,,,,,,,,,,,,,,,,,,,,l,0,1.0679,"[""0.350"",""0.412"",""0.596"",""0.943""]","[0,1,1,1]",0,58,58,58,1,0,0,,,0,FALSE,,,,,,,,,,,,,,,,,,,,,,,,,,,,,,
,5f494e24f9229236c055063b,001,2022-04-29_03h15.10.095,classification_task,2021.2.3,MacIntel,59.99880002,5f494e24f9229236c055063b,626b377229c10585ec392f8a,626b3bcdd152bd77a80e6e1b,,,,,,,,,,,,,,,,,,,,,,,a,0,1.8842,"[""0.155"",""0.314"",""0.778"",""0.716""]","[1,1,0,1]",0,59,59,59,1,1,1,,,0,FALSE,,,,,,,,,,,,,,,,,,,,,,,,,,,,,,
,5f494e24f9229236c055063b,001,2022-04-29_03h15.10.095,classification_task,2021.2.3,MacIntel,59.99880002,5f494e24f9229236c055063b,626b377229c10585ec392f8a,626b3bcdd152bd77a80e6e1b,,,,,,,,,,,,,,,,,,,,,,,l,1,1.7234,"[""0.055"",""0.350"",""0.669"",""0.818""]","[1,0,1,1]",0,60,60,60,1,1,0,,,0,FALSE,,,,,,,,,,,,,,,,,,,,,,,,,,,,,,
,5f494e24f9229236c055063b,001,2022-04-29_03h15.10.095,classification_task,2021.2.3,MacIntel,59.99880002,5f494e24f9229236c055063b,626b377229c10585ec392f8a,626b3bcdd152bd77a80e6e1b,,,,,,,,,,,,,,,,,,,,,,,a,0,1.5675,"[""0.373"",""0.114"",""0.669"",""0.818""]","[0,1,1,1]",0,61,61,61,1,1,0,,,0,FALSE,,,,,,,,,,,,,,,,,,,,,,,,,,,,,,
,5f494e24f9229236c055063b,001,2022-04-29_03h15.10.095,classification_task,2021.2.3,MacIntel,59.99880002,5f494e24f9229236c055063b,626b377229c10585ec392f8a,626b3bcdd152bd77a80e6e1b,,,,,,,,,,,,,,,,,,,,,,,l,1,1.0721,"[""0.055"",""0.114"",""0.781"",""0.818""]","[1,1,0,1]",0,62,62,62,1,1,0,,,0,FALSE,,,,,,,,,,,,,,,,,,,,,,,,,,,,,,
,5f494e24f9229236c055063b,001,2022-04-29_03h15.10.095,classification_task,2021.2.3,MacIntel,59.99880002,5f494e24f9229236c055063b,626b377229c10585ec392f8a,626b3bcdd152bd77a80e6e1b,,,,,,,,,,,,,,,,,,,,,,,l,0,1.4696,"[""0.214"",""0.750"",""0.596"",""0.943""]","[1,0,1,1]",0,63,63,63,1,0,0,,,0,FALSE,,,,,,,,,,,,,,,,,,,,,,,,,,,,,,
,5f494e24f9229236c055063b,001,2022-04-29_03h15.10.095,classification_task,2021.2.3,MacIntel,59.99880002,5f494e24f9229236c055063b,626b377229c10585ec392f8a,626b3bcdd152bd77a80e6e1b,,,,,,,,,,,,,,,,,,,,,,,,,,,,,,,,,,,,,,,0, ,,0,0.75353193,175.8504,0,2,2,2,1,2,3,,,,,,,,,,,,,,,,,
,5f494e24f9229236c055063b,001,2022-04-29_03h15.10.095,classification_task,2021.2.3,MacIntel,59.99880002,5f494e24f9229236c055063b,626b377229c10585ec392f8a,626b3bcdd152bd77a80e6e1b,,,,,,,,,,,,,,,,,,,,,,,,,,,,,,,,,,,,,,,1,  ,,0,5.436439043,172.6675,0,2,2,2,1,2,3,,,,,,,,,,,,,,,,,
,5f494e24f9229236c055063b,001,2022-04-29_03h15.10.095,classification_task,2021.2.3,MacIntel,59.99880002,5f494e24f9229236c055063b,626b377229c10585ec392f8a,626b3bcdd152bd77a80e6e1b,,,,,,,,,,,,,,,,,,,,,,,,,,,,,,,,,,,,,,,2,  ,,0,8.18654468,170.3017,0,2,2,2,1,2,3,,,,,,,,,,,,,,,,,
,5f494e24f9229236c055063b,001,2022-04-29_03h15.10.095,classification_task,2021.2.3,MacIntel,59.99880002,5f494e24f9229236c055063b,626b377229c10585ec392f8a,626b3bcdd152bd77a80e6e1b,,,,,,,,,,,,,,,,,,,,,,,,,,,,,,,,,,,,,,,,,,,,,0,2,2,2,1,,3,,,,,,,,,,,,,,,,,
,5f494e24f9229236c055063b,001,2022-04-29_03h15.10.095,classification_task,2021.2.3,MacIntel,59.99880002,5f494e24f9229236c055063b,626b377229c10585ec392f8a,626b3bcdd152bd77a80e6e1b,,,,,,,,,,,,,,,,,,,,,,,,,,,,,,,,,,,,,,,,,,,,,,,,,,,,,I believe the aid is a competent performer,,0.7,0,1,851.8883,0,0,0,0,1,0,,,,
,5f494e24f9229236c055063b,001,2022-04-29_03h15.10.095,classification_task,2021.2.3,MacIntel,59.99880002,5f494e24f9229236c055063b,626b377229c10585ec392f8a,626b3bcdd152bd77a80e6e1b,,,,,,,,,,,,,,,,,,,,,,,,,,,,,,,,,,,,,,,,,,,,,,,,,,,,,I trust the aid,,0.7,0,5,850.5297,0,0,0,0,1,0,,,,
,5f494e24f9229236c055063b,001,2022-04-29_03h15.10.095,classification_task,2021.2.3,MacIntel,59.99880002,5f494e24f9229236c055063b,626b377229c10585ec392f8a,626b3bcdd152bd77a80e6e1b,,,,,,,,,,,,,,,,,,,,,,,,,,,,,,,,,,,,,,,,,,,,,,,,,,,,,I have confidence in the advice given by the aid,,0.7,0,5,854.7913,0,0,0,0,1,0,,,,
,5f494e24f9229236c055063b,001,2022-04-29_03h15.10.095,classification_task,2021.2.3,MacIntel,59.99880002,5f494e24f9229236c055063b,626b377229c10585ec392f8a,626b3bcdd152bd77a80e6e1b,,,,,,,,,,,,,,,,,,,,,,,,,,,,,,,,,,,,,,,,,,,,,,,,,,,,,I can depend on the aid,,0.7,0,5,855.9584,0,0,0,0,1,0,,,,
,5f494e24f9229236c055063b,001,2022-04-29_03h15.10.095,classification_task,2021.2.3,MacIntel,59.99880002,5f494e24f9229236c055063b,626b377229c10585ec392f8a,626b3bcdd152bd77a80e6e1b,,,,,,,,,,,,,,,,,,,,,,,,,,,,,,,,,,,,,,,,,,,,,,,,,,,,,I can rely on the aid to behave in consistent ways,,0.7,0,5,858.0643,0,0,0,0,1,0,,,,
,5f494e24f9229236c055063b,001,2022-04-29_03h15.10.095,classification_task,2021.2.3,MacIntel,59.99880002,5f494e24f9229236c055063b,626b377229c10585ec392f8a,626b3bcdd152bd77a80e6e1b,,,,,,,,,,,,,,,,,,,,,,,,,,,,,,,,,,,,,,,,,,,,,,,,,,,,,I can rely on the aid to do its best every time I take its advice,,0.7,0,5,859.524,0,0,0,0,1,0,,,,
,5f494e24f9229236c055063b,001,2022-04-29_03h15.10.095,classification_task,2021.2.3,MacIntel,59.99880002,5f494e24f9229236c055063b,626b377229c10585ec392f8a,626b3bcdd152bd77a80e6e1b,,,,,,,,,,,,,,,,,,,,,,,,,,,,,,,,,,,,,,,,,,,,,,,,,,,,,"On trials you completed with assistance from the aid, how frequently did you think the aid was correct?",,0.7,0,95%,,0,0,0,0,1,0,,,,
,5f494e24f9229236c055063b,001,2022-04-29_03h15.10.095,classification_task,2021.2.3,MacIntel,59.99880002,5f494e24f9229236c055063b,626b377229c10585ec392f8a,626b3bcdd152bd77a80e6e1b,,,,,,,,,,,,,,,,,,,,,,,,,,,,,,,,,,,,,,,,,,,,,,,,,,,,,"On trials you completed without the aid, how frequently did you think you were correct?",,0.7,0,65%,,0,0,0,0,1,0,,,,
,5f494e24f9229236c055063b,001,2022-04-29_03h15.10.095,classification_task,2021.2.3,MacIntel,59.99880002,5f494e24f9229236c055063b,626b377229c10585ec392f8a,626b3bcdd152bd77a80e6e1b,,,,,,,,,,,,,,,,,,,,,,,,,,,,,,,,,,,,,,,,,,,,,,,,,,,,,,,,,,,0,0,0,0,1,,,,,
,5f494e24f9229236c055063b,001,2022-04-29_03h15.10.095,classification_task,2021.2.3,MacIntel,59.99880002,5f494e24f9229236c055063b,626b377229c10585ec392f8a,626b3bcdd152bd77a80e6e1b,,,,,,,,,,,,,,,,,,,,,,,,,,,,,,,,,,,,,,,,,,,,,,,,,,,,,,,,,,,,,,,,,space,5.9973,880.804,
,5f494e24f9229236c055063b,001,2022-04-29_03h15.10.095,classification_task,2021.2.3,MacIntel,59.99880002,5f494e24f9229236c055063b,626b377229c10585ec392f8a,626b3bcdd152bd77a80e6e1b,,,,,,,,,,,,,,,,,,,,,,,,,,,,,,,,,,,,,,,,,,,,,,,,,,,,,,,,,,,,,,,,,,,,"Mozilla/5.0 (Macintosh; Intel Mac OS X 10_15_7) AppleWebKit/537.36 (KHTML, like Gecko) Chrome/100.0.4896.127 Safari/537.36"
