usingWebGL,participant,session,date,expName,psychopyVersion,OS,frameRate,study_id,signatures_friend,signatures_foe,band_ranges_top,band_ranges_bottom,formitemText,formtype,formundefined,formitemWidth,formindex,formresponse,formrt,key_resp_2.keys,key_resp_2.rt,tute_resp.keys,tute_resp.rt,tutorial.thisRepN,tutorial.thisTrialN,tutorial.thisN,tutorial.thisIndex,tutorial.ran,key_resp_4.keys,key_resp_4.rt,key_resp.keys,key_resp.corr,key_resp.rt,lines_presented,is_signal_presented,trials.thisRepN,trials.thisTrialN,trials.thisN,trials.thisIndex,trials.ran,vessel,active_band,lines,is_signal,supported_pos,catch_trial,debrief_formindex,debrief_formitemText,debrief_formtype,debrief_formitemWidth,debrief_formresponse,debrief_formrt,phases.thisRepN,phases.thisTrialN,phases.thisN,phases.thisIndex,phases.ran,phases.order,phase,key_resp_3.keys,trustitemText,trusttype,trustitemWidth,trustindex,trustresponse,trustrt,support_status.thisRepN,support_status.thisTrialN,support_status.thisN,support_status.thisIndex,support_status.ran,support_status.order,key_resp_5.keys,key_resp_5.rt,globalClockTime,userAgent,manualCondition
TRUE,5f503987fc18901a2c94c407,627c69a2614fb8d1d73d0863,2022-05-11_21h38.43.816,classification_task,2021.2.3,MacIntel,59.84082341,627c6715c52fd12f31907bd0,,,,,,,,,,,,,,,,,,,,,,,,,,,,,,,,,,,,,,,,,,,,,,,,,,,,,,,,,,,,,,,,,,,,,
,5f503987fc18901a2c94c407,627c69a2614fb8d1d73d0863,2022-05-11_21h38.43.816,classification_task,2021.2.3,MacIntel,59.84082341,627c6715c52fd12f31907bd0,"[[""0.204"",""0.340"",""0.855"",""0.909""],[""0.162"",""0.557"",""0.785"",""0.959""]]","[[""0.094"",""0.414"",""0.604"",""0.730""],[""0.034"",""0.238"",""0.467"",""0.820""]]","[1,10]","[100,1000]",Video game experience,,,0.7,0,,,,,,,,,,,,,,,,,,,,,,,,,,,,,,,,,,,,,,,,,,,,,,,,,,,,,,,,,,,,
,5f503987fc18901a2c94c407,627c69a2614fb8d1d73d0863,2022-05-11_21h38.43.816,classification_task,2021.2.3,MacIntel,59.84082341,627c6715c52fd12f31907bd0,,,,,Approximately how many hours did you spend playing video games in the last week?,,,0.7,0,0,,,,,,,,,,,,,,,,,,,,,,,,,,,,,,,,,,,,,,,,,,,,,,,,,,,,,,,,,,,
,5f503987fc18901a2c94c407,627c69a2614fb8d1d73d0863,2022-05-11_21h38.43.816,classification_task,2021.2.3,MacIntel,59.84082341,627c6715c52fd12f31907bd0,,,,,"Which game did you play the most this year? (Enter ""None"" if you didn't play any)",,,0.7,0,Minecraft,,,,,,,,,,,,,,,,,,,,,,,,,,,,,,,,,,,,,,,,,,,,,,,,,,,,,,,,,,,
,5f503987fc18901a2c94c407,627c69a2614fb8d1d73d0863,2022-05-11_21h38.43.816,classification_task,2021.2.3,MacIntel,59.84082341,627c6715c52fd12f31907bd0,,,,,Visual perception,,,0.7,0,,,,,,,,,,,,,,,,,,,,,,,,,,,,,,,,,,,,,,,,,,,,,,,,,,,,,,,,,,,,
,5f503987fc18901a2c94c407,627c69a2614fb8d1d73d0863,2022-05-11_21h38.43.816,classification_task,2021.2.3,MacIntel,59.84082341,627c6715c52fd12f31907bd0,,,,,Do you have any form of color blindness?,,,0.7,0,No,17.6474,,,,,,,,,,,,,,,,,,,,,,,,,,,,,,,,,,,,,,,,,,,,,,,,,,,,,,,,,,
,5f503987fc18901a2c94c407,627c69a2614fb8d1d73d0863,2022-05-11_21h38.43.816,classification_task,2021.2.3,MacIntel,59.84082341,627c6715c52fd12f31907bd0,,,,,Do you use software to change the colour temperature of your screen (e.g. f.lux)?,,,0.7,0,No,19.5196,,,,,,,,,,,,,,,,,,,,,,,,,,,,,,,,,,,,,,,,,,,,,,,,,,,,,,,,,,
,5f503987fc18901a2c94c407,627c69a2614fb8d1d73d0863,2022-05-11_21h38.43.816,classification_task,2021.2.3,MacIntel,59.84082341,627c6715c52fd12f31907bd0,,,,,,,,,,,,space,53.8024,space,5.748,0,0,0,0,1,,,,,,,,,,,,,,,,,,,,,,,,,,,,,,,,,,,,,,,,,,,,,,,,,
,5f503987fc18901a2c94c407,627c69a2614fb8d1d73d0863,2022-05-11_21h38.43.816,classification_task,2021.2.3,MacIntel,59.84082341,627c6715c52fd12f31907bd0,,,,,,,,,,,,,,space,7.4012,1,0,1,0,1,,,,,,,,,,,,,,,,,,,,,,,,,,,,,,,,,,,,,,,,,,,,,,,,,
,5f503987fc18901a2c94c407,627c69a2614fb8d1d73d0863,2022-05-11_21h38.43.816,classification_task,2021.2.3,MacIntel,59.84082341,627c6715c52fd12f31907bd0,,,,,,,,,,,,,,space,17.5005,2,0,2,0,1,,,,,,,,,,,,,,,,,,,,,,,,,,,,,,,,,,,,,,,,,,,,,,,,,
,5f503987fc18901a2c94c407,627c69a2614fb8d1d73d0863,2022-05-11_21h38.43.816,classification_task,2021.2.3,MacIntel,59.84082341,627c6715c52fd12f31907bd0,,,,,,,,,,,,,,space,42.1141,3,0,3,0,1,,,,,,,,,,,,,,,,,,,,,,,,,,,,,,,,,,,,,,,,,,,,,,,,,
,5f503987fc18901a2c94c407,627c69a2614fb8d1d73d0863,2022-05-11_21h38.43.816,classification_task,2021.2.3,MacIntel,59.84082341,627c6715c52fd12f31907bd0,,,,,,,,,,,,,,space,12.5994,4,0,4,0,1,,,,,,,,,,,,,,,,,,,,,,,,,,,,,,,,,,,,,,,,,,,,,,,,,
,5f503987fc18901a2c94c407,627c69a2614fb8d1d73d0863,2022-05-11_21h38.43.816,classification_task,2021.2.3,MacIntel,59.84082341,627c6715c52fd12f31907bd0,,,,,,,,,,,,,,,,,,,,,space,11.2778,l,1,4.329,"[""0.094"",""0.648"",""0.604"",""0.730""]","[1,0,1,1]",0,0,0,0,1,1,0,,,1,FALSE,,,,,,,,,,,,,,,,,,,,,,,,,,,,,,,
,5f503987fc18901a2c94c407,627c69a2614fb8d1d73d0863,2022-05-11_21h38.43.816,classification_task,2021.2.3,MacIntel,59.84082341,627c6715c52fd12f31907bd0,,,,,,,,,,,,,,,,,,,,,,,l,0,4.9409,"[""0.275"",""0.557"",""0.785"",""0.959""]","[0,1,1,1]",0,1,1,1,1,0,1,,,1,FALSE,,,,,,,,,,,,,,,,,,,,,,,,,,,,,,,
,5f503987fc18901a2c94c407,627c69a2614fb8d1d73d0863,2022-05-11_21h38.43.816,classification_task,2021.2.3,MacIntel,59.84082341,627c6715c52fd12f31907bd0,,,,,,,,,,,,,,,,,,,,,,,a,1,5.5144,"[""0.671"",""0.340"",""0.855"",""0.909""]","[0,1,1,1]",0,2,2,2,1,0,0,,,1,FALSE,,,,,,,,,,,,,,,,,,,,,,,,,,,,,,,
,5f503987fc18901a2c94c407,627c69a2614fb8d1d73d0863,2022-05-11_21h38.43.816,classification_task,2021.2.3,MacIntel,59.84082341,627c6715c52fd12f31907bd0,,,,,,,,,,,,,,,,,,,,,,,l,1,7.1888,"[""0.648"",""0.414"",""0.604"",""0.730""]","[0,1,1,1]",0,3,3,3,1,1,0,,,1,FALSE,,,,,,,,,,,,,,,,,,,,,,,,,,,,,,,
,5f503987fc18901a2c94c407,627c69a2614fb8d1d73d0863,2022-05-11_21h38.43.816,classification_task,2021.2.3,MacIntel,59.84082341,627c6715c52fd12f31907bd0,,,,,,,,,,,,,,,,,,,,,,,l,1,5.6523,"[""0.646"",""0.238"",""0.467"",""0.820""]","[0,1,1,1]",0,4,4,4,1,1,1,,,1,FALSE,,,,,,,,,,,,,,,,,,,,,,,,,,,,,,,
,5f503987fc18901a2c94c407,627c69a2614fb8d1d73d0863,2022-05-11_21h38.43.816,classification_task,2021.2.3,MacIntel,59.84082341,627c6715c52fd12f31907bd0,,,,,,,,,,,,,,,,,,,,,,,a,1,4.2758,"[""0.204"",""0.340"",""0.855"",""0.671""]","[1,1,1,0]",0,5,5,5,1,0,0,,,1,FALSE,,,,,,,,,,,,,,,,,,,,,,,,,,,,,,,
,5f503987fc18901a2c94c407,627c69a2614fb8d1d73d0863,2022-05-11_21h38.43.816,classification_task,2021.2.3,MacIntel,59.84082341,627c6715c52fd12f31907bd0,,,,,,,,,,,,,,,,,,,,,,,l,1,3.0478,"[""0.034"",""0.238"",""0.512"",""0.820""]","[1,1,0,1]",0,6,6,6,1,1,1,,,1,FALSE,,,,,,,,,,,,,,,,,,,,,,,,,,,,,,,
,5f503987fc18901a2c94c407,627c69a2614fb8d1d73d0863,2022-05-11_21h38.43.816,classification_task,2021.2.3,MacIntel,59.84082341,627c6715c52fd12f31907bd0,,,,,,,,,,,,,,,,,,,,,,,a,1,3.5158,"[""0.162"",""0.646"",""0.785"",""0.959""]","[1,0,1,1]",0,7,7,7,1,0,1,,,1,FALSE,,,,,,,,,,,,,,,,,,,,,,,,,,,,,,,
,5f503987fc18901a2c94c407,627c69a2614fb8d1d73d0863,2022-05-11_21h38.43.816,classification_task,2021.2.3,MacIntel,59.84082341,627c6715c52fd12f31907bd0,,,,,,,,,,,,,,,,,,,,,,,a,1,2.2412,"[""0.162"",""0.557"",""0.785"",""0.648""]","[1,1,1,0]",0,8,8,8,1,0,1,,,1,FALSE,,,,,,,,,,,,,,,,,,,,,,,,,,,,,,,
,5f503987fc18901a2c94c407,627c69a2614fb8d1d73d0863,2022-05-11_21h38.43.816,classification_task,2021.2.3,MacIntel,59.84082341,627c6715c52fd12f31907bd0,,,,,,,,,,,,,,,,,,,,,,,l,1,2.2698,"[""0.034"",""0.238"",""0.467"",""0.516""]","[1,1,1,0]",0,9,9,9,1,1,1,,,1,FALSE,,,,,,,,,,,,,,,,,,,,,,,,,,,,,,,
,5f503987fc18901a2c94c407,627c69a2614fb8d1d73d0863,2022-05-11_21h38.43.816,classification_task,2021.2.3,MacIntel,59.84082341,627c6715c52fd12f31907bd0,,,,,,,,,,,,,,,,,,,,,,,a,0,3.0298,"[""0.094"",""0.414"",""0.306"",""0.730""]","[1,1,0,1]",0,10,10,10,1,1,0,,,1,FALSE,,,,,,,,,,,,,,,,,,,,,,,,,,,,,,,
,5f503987fc18901a2c94c407,627c69a2614fb8d1d73d0863,2022-05-11_21h38.43.816,classification_task,2021.2.3,MacIntel,59.84082341,627c6715c52fd12f31907bd0,,,,,,,,,,,,,,,,,,,,,,,a,1,3.1931,"[""0.162"",""0.557"",""0.275"",""0.959""]","[1,1,0,1]",0,11,11,11,1,0,1,,,1,FALSE,,,,,,,,,,,,,,,,,,,,,,,,,,,,,,,
,5f503987fc18901a2c94c407,627c69a2614fb8d1d73d0863,2022-05-11_21h38.43.816,classification_task,2021.2.3,MacIntel,59.84082341,627c6715c52fd12f31907bd0,,,,,,,,,,,,,,,,,,,,,,,l,1,2.1902,"[""0.034"",""0.502"",""0.467"",""0.820""]","[1,0,1,1]",0,12,12,12,1,1,1,,,1,FALSE,,,,,,,,,,,,,,,,,,,,,,,,,,,,,,,
,5f503987fc18901a2c94c407,627c69a2614fb8d1d73d0863,2022-05-11_21h38.43.816,classification_task,2021.2.3,MacIntel,59.84082341,627c6715c52fd12f31907bd0,,,,,,,,,,,,,,,,,,,,,,,l,1,3.1431,"[""0.094"",""0.414"",""0.604"",""0.646""]","[1,1,1,0]",0,13,13,13,1,1,0,,,1,FALSE,,,,,,,,,,,,,,,,,,,,,,,,,,,,,,,
,5f503987fc18901a2c94c407,627c69a2614fb8d1d73d0863,2022-05-11_21h38.43.816,classification_task,2021.2.3,MacIntel,59.84082341,627c6715c52fd12f31907bd0,,,,,,,,,,,,,,,,,,,,,,,a,1,3.4342,"[""0.204"",""0.340"",""0.678"",""0.909""]","[1,1,0,1]",0,14,14,14,1,0,0,,,1,FALSE,,,,,,,,,,,,,,,,,,,,,,,,,,,,,,,
,5f503987fc18901a2c94c407,627c69a2614fb8d1d73d0863,2022-05-11_21h38.43.816,classification_task,2021.2.3,MacIntel,59.84082341,627c6715c52fd12f31907bd0,,,,,,,,,,,,,,,,,,,,,,,a,1,4.3131,"[""0.204"",""0.502"",""0.855"",""0.909""]","[1,0,1,1]",0,15,15,15,1,0,0,,,1,FALSE,,,,,,,,,,,,,,,,,,,,,,,,,,,,,,,
,5f503987fc18901a2c94c407,627c69a2614fb8d1d73d0863,2022-05-11_21h38.43.816,classification_task,2021.2.3,MacIntel,59.84082341,627c6715c52fd12f31907bd0,,,,,,,,,,,,,,,,,,,,,,,a,1,2.5998,"[""0.204"",""0.340"",""0.641"",""0.909""]","[1,1,0,1]",0,16,16,16,1,0,0,,,1,FALSE,,,,,,,,,,,,,,,,,,,,,,,,,,,,,,,
,5f503987fc18901a2c94c407,627c69a2614fb8d1d73d0863,2022-05-11_21h38.43.816,classification_task,2021.2.3,MacIntel,59.84082341,627c6715c52fd12f31907bd0,,,,,,,,,,,,,,,,,,,,,,,a,1,3.1541,"[""0.162"",""0.557"",""0.640"",""0.959""]","[1,1,0,1]",0,17,17,17,1,0,1,,,1,FALSE,,,,,,,,,,,,,,,,,,,,,,,,,,,,,,,
,5f503987fc18901a2c94c407,627c69a2614fb8d1d73d0863,2022-05-11_21h38.43.816,classification_task,2021.2.3,MacIntel,59.84082341,627c6715c52fd12f31907bd0,,,,,,,,,,,,,,,,,,,,,,,l,1,2.6936,"[""0.094"",""0.414"",""0.306"",""0.730""]","[1,1,0,1]",0,18,18,18,1,1,0,,,1,FALSE,,,,,,,,,,,,,,,,,,,,,,,,,,,,,,,
,5f503987fc18901a2c94c407,627c69a2614fb8d1d73d0863,2022-05-11_21h38.43.816,classification_task,2021.2.3,MacIntel,59.84082341,627c6715c52fd12f31907bd0,,,,,,,,,,,,,,,,,,,,,,,a,1,2.916,"[""0.671"",""0.340"",""0.855"",""0.909""]","[0,1,1,1]",0,19,19,19,1,0,0,,,1,FALSE,,,,,,,,,,,,,,,,,,,,,,,,,,,,,,,
,5f503987fc18901a2c94c407,627c69a2614fb8d1d73d0863,2022-05-11_21h38.43.816,classification_task,2021.2.3,MacIntel,59.84082341,627c6715c52fd12f31907bd0,,,,,,,,,,,,,,,,,,,,,,,l,1,3.2184,"[""0.522"",""0.414"",""0.604"",""0.730""]","[0,1,1,1]",0,20,20,20,1,1,0,,,1,FALSE,,,,,,,,,,,,,,,,,,,,,,,,,,,,,,,
,5f503987fc18901a2c94c407,627c69a2614fb8d1d73d0863,2022-05-11_21h38.43.816,classification_task,2021.2.3,MacIntel,59.84082341,627c6715c52fd12f31907bd0,,,,,,,,,,,,,,,,,,,,,,,a,1,2.3407,"[""0.162"",""0.557"",""0.785"",""0.516""]","[1,1,1,0]",0,21,21,21,1,0,1,,,1,FALSE,,,,,,,,,,,,,,,,,,,,,,,,,,,,,,,
,5f503987fc18901a2c94c407,627c69a2614fb8d1d73d0863,2022-05-11_21h38.43.816,classification_task,2021.2.3,MacIntel,59.84082341,627c6715c52fd12f31907bd0,,,,,,,,,,,,,,,,,,,,,,,l,1,2.3548,"[""0.034"",""0.238"",""0.467"",""0.678""]","[1,1,1,0]",0,22,22,22,1,1,1,,,1,FALSE,,,,,,,,,,,,,,,,,,,,,,,,,,,,,,,
,5f503987fc18901a2c94c407,627c69a2614fb8d1d73d0863,2022-05-11_21h38.43.816,classification_task,2021.2.3,MacIntel,59.84082341,627c6715c52fd12f31907bd0,,,,,,,,,,,,,,,,,,,,,,,a,1,2.4597,"[""0.204"",""0.641"",""0.855"",""0.909""]","[1,0,1,1]",0,23,23,23,1,0,0,,,1,FALSE,,,,,,,,,,,,,,,,,,,,,,,,,,,,,,,
,5f503987fc18901a2c94c407,627c69a2614fb8d1d73d0863,2022-05-11_21h38.43.816,classification_task,2021.2.3,MacIntel,59.84082341,627c6715c52fd12f31907bd0,,,,,,,,,,,,,,,,,,,,,,,l,1,3.482,"[""0.094"",""0.414"",""0.604"",""0.522""]","[1,1,1,0]",0,24,24,24,1,1,0,,,1,FALSE,,,,,,,,,,,,,,,,,,,,,,,,,,,,,,,
,5f503987fc18901a2c94c407,627c69a2614fb8d1d73d0863,2022-05-11_21h38.43.816,classification_task,2021.2.3,MacIntel,59.84082341,627c6715c52fd12f31907bd0,,,,,,,,,,,,,,,,,,,,,,,a,0,2.7082,"[""0.034"",""0.646"",""0.467"",""0.820""]","[1,0,1,1]",0,25,25,25,1,1,1,,,1,FALSE,,,,,,,,,,,,,,,,,,,,,,,,,,,,,,,
,5f503987fc18901a2c94c407,627c69a2614fb8d1d73d0863,2022-05-11_21h38.43.816,classification_task,2021.2.3,MacIntel,59.84082341,627c6715c52fd12f31907bd0,,,,,,,,,,,,,,,,,,,,,,,l,0,4.7221,"[""0.502"",""0.557"",""0.785"",""0.959""]","[0,1,1,1]",0,26,26,26,1,0,1,,,1,FALSE,,,,,,,,,,,,,,,,,,,,,,,,,,,,,,,
,5f503987fc18901a2c94c407,627c69a2614fb8d1d73d0863,2022-05-11_21h38.43.816,classification_task,2021.2.3,MacIntel,59.84082341,627c6715c52fd12f31907bd0,,,,,,,,,,,,,,,,,,,,,,,l,1,2.4424,"[""0.094"",""0.275"",""0.604"",""0.730""]","[1,0,1,1]",0,27,27,27,1,1,0,,,1,FALSE,,,,,,,,,,,,,,,,,,,,,,,,,,,,,,,
,5f503987fc18901a2c94c407,627c69a2614fb8d1d73d0863,2022-05-11_21h38.43.816,classification_task,2021.2.3,MacIntel,59.84082341,627c6715c52fd12f31907bd0,,,,,,,,,,,,,,,,,,,,,,,a,1,2.7389,"[""0.204"",""0.340"",""0.855"",""0.516""]","[1,1,1,0]",0,28,28,28,1,0,0,,,1,FALSE,,,,,,,,,,,,,,,,,,,,,,,,,,,,,,,
,5f503987fc18901a2c94c407,627c69a2614fb8d1d73d0863,2022-05-11_21h38.43.816,classification_task,2021.2.3,MacIntel,59.84082341,627c6715c52fd12f31907bd0,,,,,,,,,,,,,,,,,,,,,,,l,1,3.2138,"[""0.648"",""0.238"",""0.467"",""0.820""]","[0,1,1,1]",0,29,29,29,1,1,1,,,1,FALSE,,,,,,,,,,,,,,,,,,,,,,,,,,,,,,,
,5f503987fc18901a2c94c407,627c69a2614fb8d1d73d0863,2022-05-11_21h38.43.816,classification_task,2021.2.3,MacIntel,59.84082341,627c6715c52fd12f31907bd0,,,,,,,,,,,,,,,,,,,,,,,a,1,2.5265,"[""0.162"",""0.685"",""0.785"",""0.959""]","[1,0,1,1]",0,30,30,30,1,0,1,,,1,FALSE,,,,,,,,,,,,,,,,,,,,,,,,,,,,,,,
,5f503987fc18901a2c94c407,627c69a2614fb8d1d73d0863,2022-05-11_21h38.43.816,classification_task,2021.2.3,MacIntel,59.84082341,627c6715c52fd12f31907bd0,,,,,,,,,,,,,,,,,,,,,,,l,1,2.5263,"[""0.034"",""0.238"",""0.640"",""0.820""]","[1,1,0,1]",0,31,31,31,1,1,1,,,1,FALSE,,,,,,,,,,,,,,,,,,,,,,,,,,,,,,,
,5f503987fc18901a2c94c407,627c69a2614fb8d1d73d0863,2022-05-11_21h38.43.816,classification_task,2021.2.3,MacIntel,59.84082341,627c6715c52fd12f31907bd0,,,,,,,,,,,,,,,,,,,,,,,l,1,6.3214,"[""0.034"",""0.640"",""0.467"",""0.820""]","[1,0,1,1]",0,32,32,32,1,1,1,,,1,FALSE,,,,,,,,,,,,,,,,,,,,,,,,,,,,,,,
,5f503987fc18901a2c94c407,627c69a2614fb8d1d73d0863,2022-05-11_21h38.43.816,classification_task,2021.2.3,MacIntel,59.84082341,627c6715c52fd12f31907bd0,,,,,,,,,,,,,,,,,,,,,,,l,0,4.668,"[""0.204"",""0.340"",""0.855"",""0.306""]","[1,1,1,0]",0,33,33,33,1,0,0,,,1,FALSE,,,,,,,,,,,,,,,,,,,,,,,,,,,,,,,
,5f503987fc18901a2c94c407,627c69a2614fb8d1d73d0863,2022-05-11_21h38.43.816,classification_task,2021.2.3,MacIntel,59.84082341,627c6715c52fd12f31907bd0,,,,,,,,,,,,,,,,,,,,,,,l,1,2.9622,"[""0.034"",""0.238"",""0.467"",""0.516""]","[1,1,1,0]",0,34,34,34,1,1,1,,,1,FALSE,,,,,,,,,,,,,,,,,,,,,,,,,,,,,,,
,5f503987fc18901a2c94c407,627c69a2614fb8d1d73d0863,2022-05-11_21h38.43.816,classification_task,2021.2.3,MacIntel,59.84082341,627c6715c52fd12f31907bd0,,,,,,,,,,,,,,,,,,,,,,,a,0,1.4213,"[""0.034"",""0.238"",""0.671"",""0.820""]","[1,1,0,1]",0,35,35,35,1,1,1,,,1,FALSE,,,,,,,,,,,,,,,,,,,,,,,,,,,,,,,
,5f503987fc18901a2c94c407,627c69a2614fb8d1d73d0863,2022-05-11_21h38.43.816,classification_task,2021.2.3,MacIntel,59.84082341,627c6715c52fd12f31907bd0,,,,,,,,,,,,,,,,,,,,,,,l,1,1.138,"[""0.094"",""0.414"",""0.604"",""0.275""]","[1,1,1,0]",0,36,36,36,1,1,0,,,1,FALSE,,,,,,,,,,,,,,,,,,,,,,,,,,,,,,,
,5f503987fc18901a2c94c407,627c69a2614fb8d1d73d0863,2022-05-11_21h38.43.816,classification_task,2021.2.3,MacIntel,59.84082341,627c6715c52fd12f31907bd0,,,,,,,,,,,,,,,,,,,,,,,a,0,1.1207,"[""0.094"",""0.640"",""0.604"",""0.730""]","[1,0,1,1]",0,37,37,37,1,1,0,,,1,FALSE,,,,,,,,,,,,,,,,,,,,,,,,,,,,,,,
,5f503987fc18901a2c94c407,627c69a2614fb8d1d73d0863,2022-05-11_21h38.43.816,classification_task,2021.2.3,MacIntel,59.84082341,627c6715c52fd12f31907bd0,,,,,,,,,,,,,,,,,,,,,,,l,0,1.6574,"[""0.640"",""0.557"",""0.785"",""0.959""]","[0,1,1,1]",0,38,38,38,1,0,1,,,1,FALSE,,,,,,,,,,,,,,,,,,,,,,,,,,,,,,,
,5f503987fc18901a2c94c407,627c69a2614fb8d1d73d0863,2022-05-11_21h38.43.816,classification_task,2021.2.3,MacIntel,59.84082341,627c6715c52fd12f31907bd0,,,,,,,,,,,,,,,,,,,,,,,l,0,3.16,"[""0.162"",""0.557"",""0.512"",""0.959""]","[1,1,0,1]",0,39,39,39,1,0,1,,,1,FALSE,,,,,,,,,,,,,,,,,,,,,,,,,,,,,,,
,5f503987fc18901a2c94c407,627c69a2614fb8d1d73d0863,2022-05-11_21h38.43.816,classification_task,2021.2.3,MacIntel,59.84082341,627c6715c52fd12f31907bd0,,,,,,,,,,,,,,,,,,,,,,,l,0,2.121,"[""0.204"",""0.685"",""0.855"",""0.909""]","[1,0,1,1]",0,40,40,40,1,0,0,,,1,FALSE,,,,,,,,,,,,,,,,,,,,,,,,,,,,,,,
,5f503987fc18901a2c94c407,627c69a2614fb8d1d73d0863,2022-05-11_21h38.43.816,classification_task,2021.2.3,MacIntel,59.84082341,627c6715c52fd12f31907bd0,,,,,,,,,,,,,,,,,,,,,,,a,1,2.4948,"[""0.162"",""0.671"",""0.785"",""0.959""]","[1,0,1,1]",0,41,41,41,1,0,1,,,1,FALSE,,,,,,,,,,,,,,,,,,,,,,,,,,,,,,,
,5f503987fc18901a2c94c407,627c69a2614fb8d1d73d0863,2022-05-11_21h38.43.816,classification_task,2021.2.3,MacIntel,59.84082341,627c6715c52fd12f31907bd0,,,,,,,,,,,,,,,,,,,,,,,a,1,1.1228,"[""0.204"",""0.340"",""0.671"",""0.909""]","[1,1,0,1]",0,42,42,42,1,0,0,,,1,FALSE,,,,,,,,,,,,,,,,,,,,,,,,,,,,,,,
,5f503987fc18901a2c94c407,627c69a2614fb8d1d73d0863,2022-05-11_21h38.43.816,classification_task,2021.2.3,MacIntel,59.84082341,627c6715c52fd12f31907bd0,,,,,,,,,,,,,,,,,,,,,,,a,1,1.0582,"[""0.279"",""0.340"",""0.855"",""0.909""]","[0,1,1,1]",0,43,43,43,1,0,0,,,1,FALSE,,,,,,,,,,,,,,,,,,,,,,,,,,,,,,,
,5f503987fc18901a2c94c407,627c69a2614fb8d1d73d0863,2022-05-11_21h38.43.816,classification_task,2021.2.3,MacIntel,59.84082341,627c6715c52fd12f31907bd0,,,,,,,,,,,,,,,,,,,,,,,l,1,0.5728,"[""0.094"",""0.414"",""0.303"",""0.730""]","[1,1,0,1]",0,44,44,44,1,1,0,,,1,FALSE,,,,,,,,,,,,,,,,,,,,,,,,,,,,,,,
,5f503987fc18901a2c94c407,627c69a2614fb8d1d73d0863,2022-05-11_21h38.43.816,classification_task,2021.2.3,MacIntel,59.84082341,627c6715c52fd12f31907bd0,,,,,,,,,,,,,,,,,,,,,,,l,1,0.5018,"[""0.678"",""0.414"",""0.604"",""0.730""]","[0,1,1,1]",0,45,45,45,1,1,0,,,1,FALSE,,,,,,,,,,,,,,,,,,,,,,,,,,,,,,,
,5f503987fc18901a2c94c407,627c69a2614fb8d1d73d0863,2022-05-11_21h38.43.816,classification_task,2021.2.3,MacIntel,59.84082341,627c6715c52fd12f31907bd0,,,,,,,,,,,,,,,,,,,,,,,a,0,0.7578,"[""0.303"",""0.238"",""0.467"",""0.820""]","[0,1,1,1]",0,46,46,46,1,1,1,,,1,FALSE,,,,,,,,,,,,,,,,,,,,,,,,,,,,,,,
,5f503987fc18901a2c94c407,627c69a2614fb8d1d73d0863,2022-05-11_21h38.43.816,classification_task,2021.2.3,MacIntel,59.84082341,627c6715c52fd12f31907bd0,,,,,,,,,,,,,,,,,,,,,,,a,1,0.7959,"[""0.162"",""0.557"",""0.785"",""0.685""]","[1,1,1,0]",0,47,47,47,1,0,1,,,1,FALSE,,,,,,,,,,,,,,,,,,,,,,,,,,,,,,,
,5f503987fc18901a2c94c407,627c69a2614fb8d1d73d0863,2022-05-11_21h38.43.816,classification_task,2021.2.3,MacIntel,59.84082341,627c6715c52fd12f31907bd0,,,,,,,,,,,,,,,,,,,,,,,l,0,2.7929,"[""0.204"",""0.340"",""0.512"",""0.909""]","[1,1,0,1]",0,48,48,48,1,0,0,,,1,FALSE,,,,,,,,,,,,,,,,,,,,,,,,,,,,,,,
,5f503987fc18901a2c94c407,627c69a2614fb8d1d73d0863,2022-05-11_21h38.43.816,classification_task,2021.2.3,MacIntel,59.84082341,627c6715c52fd12f31907bd0,,,,,,,,,,,,,,,,,,,,,,,l,1,1.6047,"[""0.671"",""0.414"",""0.604"",""0.730""]","[0,1,1,1]",0,49,49,49,1,1,0,,,1,FALSE,,,,,,,,,,,,,,,,,,,,,,,,,,,,,,,
,5f503987fc18901a2c94c407,627c69a2614fb8d1d73d0863,2022-05-11_21h38.43.816,classification_task,2021.2.3,MacIntel,59.84082341,627c6715c52fd12f31907bd0,,,,,,,,,,,,,,,,,,,,,,,l,1,1.3692,"[""0.502"",""0.238"",""0.467"",""0.820""]","[0,1,1,1]",0,50,50,50,1,1,1,,,1,FALSE,,,,,,,,,,,,,,,,,,,,,,,,,,,,,,,
,5f503987fc18901a2c94c407,627c69a2614fb8d1d73d0863,2022-05-11_21h38.43.816,classification_task,2021.2.3,MacIntel,59.84082341,627c6715c52fd12f31907bd0,,,,,,,,,,,,,,,,,,,,,,,a,0,1.3187,"[""0.094"",""0.414"",""0.604"",""0.516""]","[1,1,1,0]",0,51,51,51,1,1,0,,,1,FALSE,,,,,,,,,,,,,,,,,,,,,,,,,,,,,,,
,5f503987fc18901a2c94c407,627c69a2614fb8d1d73d0863,2022-05-11_21h38.43.816,classification_task,2021.2.3,MacIntel,59.84082341,627c6715c52fd12f31907bd0,,,,,,,,,,,,,,,,,,,,,,,l,1,1.8068,"[""0.034"",""0.238"",""0.467"",""0.685""]","[1,1,1,0]",0,52,52,52,1,1,1,,,1,FALSE,,,,,,,,,,,,,,,,,,,,,,,,,,,,,,,
,5f503987fc18901a2c94c407,627c69a2614fb8d1d73d0863,2022-05-11_21h38.43.816,classification_task,2021.2.3,MacIntel,59.84082341,627c6715c52fd12f31907bd0,,,,,,,,,,,,,,,,,,,,,,,l,0,0.8699,"[""0.162"",""0.671"",""0.785"",""0.959""]","[1,0,1,1]",0,53,53,53,1,0,1,,,1,FALSE,,,,,,,,,,,,,,,,,,,,,,,,,,,,,,,
,5f503987fc18901a2c94c407,627c69a2614fb8d1d73d0863,2022-05-11_21h38.43.816,classification_task,2021.2.3,MacIntel,59.84082341,627c6715c52fd12f31907bd0,,,,,,,,,,,,,,,,,,,,,,,a,1,0.6407,"[""0.648"",""0.340"",""0.855"",""0.909""]","[0,1,1,1]",0,54,54,54,1,0,0,,,1,FALSE,,,,,,,,,,,,,,,,,,,,,,,,,,,,,,,
,5f503987fc18901a2c94c407,627c69a2614fb8d1d73d0863,2022-05-11_21h38.43.816,classification_task,2021.2.3,MacIntel,59.84082341,627c6715c52fd12f31907bd0,,,,,,,,,,,,,,,,,,,,,,,a,1,1.3038,"[""0.204"",""0.512"",""0.855"",""0.909""]","[1,0,1,1]",0,55,55,55,1,0,0,,,1,FALSE,,,,,,,,,,,,,,,,,,,,,,,,,,,,,,,
,5f503987fc18901a2c94c407,627c69a2614fb8d1d73d0863,2022-05-11_21h38.43.816,classification_task,2021.2.3,MacIntel,59.84082341,627c6715c52fd12f31907bd0,,,,,,,,,,,,,,,,,,,,,,,a,0,0.9447,"[""0.094"",""0.414"",""0.512"",""0.730""]","[1,1,0,1]",0,56,56,56,1,1,0,,,1,FALSE,,,,,,,,,,,,,,,,,,,,,,,,,,,,,,,
,5f503987fc18901a2c94c407,627c69a2614fb8d1d73d0863,2022-05-11_21h38.43.816,classification_task,2021.2.3,MacIntel,59.84082341,627c6715c52fd12f31907bd0,,,,,,,,,,,,,,,,,,,,,,,l,1,0.4664,"[""0.034"",""0.522"",""0.467"",""0.820""]","[1,0,1,1]",0,57,57,57,1,1,1,,,1,FALSE,,,,,,,,,,,,,,,,,,,,,,,,,,,,,,,
,5f503987fc18901a2c94c407,627c69a2614fb8d1d73d0863,2022-05-11_21h38.43.816,classification_task,2021.2.3,MacIntel,59.84082341,627c6715c52fd12f31907bd0,,,,,,,,,,,,,,,,,,,,,,,l,0,0.9395,"[""0.516"",""0.557"",""0.785"",""0.959""]","[0,1,1,1]",0,58,58,58,1,0,1,,,1,FALSE,,,,,,,,,,,,,,,,,,,,,,,,,,,,,,,
,5f503987fc18901a2c94c407,627c69a2614fb8d1d73d0863,2022-05-11_21h38.43.816,classification_task,2021.2.3,MacIntel,59.84082341,627c6715c52fd12f31907bd0,,,,,,,,,,,,,,,,,,,,,,,a,0,1.6283,"[""0.094"",""0.306"",""0.604"",""0.730""]","[1,0,1,1]",0,59,59,59,1,1,0,,,1,FALSE,,,,,,,,,,,,,,,,,,,,,,,,,,,,,,,
,5f503987fc18901a2c94c407,627c69a2614fb8d1d73d0863,2022-05-11_21h38.43.816,classification_task,2021.2.3,MacIntel,59.84082341,627c6715c52fd12f31907bd0,,,,,,,,,,,,,,,,,,,,,,,l,0,0.6524,"[""0.162"",""0.557"",""0.671"",""0.959""]","[1,1,0,1]",0,60,60,60,1,0,1,,,1,FALSE,,,,,,,,,,,,,,,,,,,,,,,,,,,,,,,
,5f503987fc18901a2c94c407,627c69a2614fb8d1d73d0863,2022-05-11_21h38.43.816,classification_task,2021.2.3,MacIntel,59.84082341,627c6715c52fd12f31907bd0,,,,,,,,,,,,,,,,,,,,,,,l,1,1.3571,"[""0.034"",""0.238"",""0.516"",""0.820""]","[1,1,0,1]",0,61,61,61,1,1,1,,,1,FALSE,,,,,,,,,,,,,,,,,,,,,,,,,,,,,,,
,5f503987fc18901a2c94c407,627c69a2614fb8d1d73d0863,2022-05-11_21h38.43.816,classification_task,2021.2.3,MacIntel,59.84082341,627c6715c52fd12f31907bd0,,,,,,,,,,,,,,,,,,,,,,,l,0,1.5205,"[""0.162"",""0.557"",""0.785"",""0.502""]","[1,1,1,0]",0,62,62,62,1,0,1,,,1,FALSE,,,,,,,,,,,,,,,,,,,,,,,,,,,,,,,
,5f503987fc18901a2c94c407,627c69a2614fb8d1d73d0863,2022-05-11_21h38.43.816,classification_task,2021.2.3,MacIntel,59.84082341,627c6715c52fd12f31907bd0,,,,,,,,,,,,,,,,,,,,,,,a,1,4.4644,"[""0.204"",""0.340"",""0.855"",""0.640""]","[1,1,1,0]",0,63,63,63,1,0,0,,,1,FALSE,,,,,,,,,,,,,,,,,,,,,,,,,,,,,,,
,5f503987fc18901a2c94c407,627c69a2614fb8d1d73d0863,2022-05-11_21h38.43.816,classification_task,2021.2.3,MacIntel,59.84082341,627c6715c52fd12f31907bd0,,,,,,,,,,,,,,,,,,,,,,,,,,,,,,,,,,,,,,,0, ,,0,0,426.4085,0,0,0,0,1,2,1,,,,,,,,,,,,,,,,,,
,5f503987fc18901a2c94c407,627c69a2614fb8d1d73d0863,2022-05-11_21h38.43.816,classification_task,2021.2.3,MacIntel,59.84082341,627c6715c52fd12f31907bd0,,,,,,,,,,,,,,,,,,,,,,,,,,,,,,,,,,,,,,,1,  ,,0,3.704691174,434.6857,0,0,0,0,1,2,1,,,,,,,,,,,,,,,,,,
,5f503987fc18901a2c94c407,627c69a2614fb8d1d73d0863,2022-05-11_21h38.43.816,classification_task,2021.2.3,MacIntel,59.84082341,627c6715c52fd12f31907bd0,,,,,,,,,,,,,,,,,,,,,,,,,,,,,,,,,,,,,,,2,  ,,0,0.309514624,438.7204,0,0,0,0,1,2,1,,,,,,,,,,,,,,,,,,
,5f503987fc18901a2c94c407,627c69a2614fb8d1d73d0863,2022-05-11_21h38.43.816,classification_task,2021.2.3,MacIntel,59.84082341,627c6715c52fd12f31907bd0,,,,,,,,,,,,,,,,,,,,,,,,,,,,,,,,,,,,,,,,,,,,,0,0,0,0,1,,1,,,,,,,,,,,,,,,,,,
,5f503987fc18901a2c94c407,627c69a2614fb8d1d73d0863,2022-05-11_21h38.43.816,classification_task,2021.2.3,MacIntel,59.84082341,627c6715c52fd12f31907bd0,,,,,,,,,,,,,,,,,,,,,space,17.0809,l,1,3.7538,"[""0.094"",""0.414"",""0.604"",""0.306""]","[1,1,1,0]",0,0,0,0,1,1,0,,,1,FALSE,,,,,,,,,,,,,,,,,,,,,,,,,,,,,,,
,5f503987fc18901a2c94c407,627c69a2614fb8d1d73d0863,2022-05-11_21h38.43.816,classification_task,2021.2.3,MacIntel,59.84082341,627c6715c52fd12f31907bd0,,,,,,,,,,,,,,,,,,,,,,,l,1,2.1866,"[""0.034"",""0.238"",""0.467"",""0.640""]","[1,1,1,0]",0,1,1,1,1,1,1,,,1,FALSE,,,,,,,,,,,,,,,,,,,,,,,,,,,,,,,
,5f503987fc18901a2c94c407,627c69a2614fb8d1d73d0863,2022-05-11_21h38.43.816,classification_task,2021.2.3,MacIntel,59.84082341,627c6715c52fd12f31907bd0,,,,,,,,,,,,,,,,,,,,,,,a,0,1.8507,"[""0.094"",""0.685"",""0.604"",""0.730""]","[1,0,1,1]",0,2,2,2,1,1,0,,,1,FALSE,,,,,,,,,,,,,,,,,,,,,,,,,,,,,,,
,5f503987fc18901a2c94c407,627c69a2614fb8d1d73d0863,2022-05-11_21h38.43.816,classification_task,2021.2.3,MacIntel,59.84082341,627c6715c52fd12f31907bd0,,,,,,,,,,,,,,,,,,,,,,,a,1,1.4555,"[""0.646"",""0.557"",""0.785"",""0.959""]","[0,1,1,1]",0,3,3,3,1,0,1,,,1,FALSE,,,,,,,,,,,,,,,,,,,,,,,,,,,,,,,
,5f503987fc18901a2c94c407,627c69a2614fb8d1d73d0863,2022-05-11_21h38.43.816,classification_task,2021.2.3,MacIntel,59.84082341,627c6715c52fd12f31907bd0,,,,,,,,,,,,,,,,,,,,,,,l,1,2.664,"[""0.034"",""0.671"",""0.467"",""0.820""]","[1,0,1,1]",0,4,4,4,1,1,1,,,1,FALSE,,,,,,,,,,,,,,,,,,,,,,,,,,,,,,,
,5f503987fc18901a2c94c407,627c69a2614fb8d1d73d0863,2022-05-11_21h38.43.816,classification_task,2021.2.3,MacIntel,59.84082341,627c6715c52fd12f31907bd0,,,,,,,,,,,,,,,,,,,,,,,l,0,1.7943,"[""0.522"",""0.340"",""0.855"",""0.909""]","[0,1,1,1]",0,5,5,5,1,0,0,,,1,FALSE,,,,,,,,,,,,,,,,,,,,,,,,,,,,,,,
,5f503987fc18901a2c94c407,627c69a2614fb8d1d73d0863,2022-05-11_21h38.43.816,classification_task,2021.2.3,MacIntel,59.84082341,627c6715c52fd12f31907bd0,,,,,,,,,,,,,,,,,,,,,,,a,1,1.1059,"[""0.204"",""0.340"",""0.275"",""0.909""]","[1,1,0,1]",0,6,6,6,1,0,0,,,1,FALSE,,,,,,,,,,,,,,,,,,,,,,,,,,,,,,,
,5f503987fc18901a2c94c407,627c69a2614fb8d1d73d0863,2022-05-11_21h38.43.816,classification_task,2021.2.3,MacIntel,59.84082341,627c6715c52fd12f31907bd0,,,,,,,,,,,,,,,,,,,,,,,a,1,3.3061,"[""0.162"",""0.557"",""0.685"",""0.959""]","[1,1,0,1]",0,7,7,7,1,0,1,,,1,FALSE,,,,,,,,,,,,,,,,,,,,,,,,,,,,,,,
,5f503987fc18901a2c94c407,627c69a2614fb8d1d73d0863,2022-05-11_21h38.43.816,classification_task,2021.2.3,MacIntel,59.84082341,627c6715c52fd12f31907bd0,,,,,,,,,,,,,,,,,,,,,,,a,0,2.4198,"[""0.094"",""0.414"",""0.306"",""0.730""]","[1,1,0,1]",0,8,8,8,1,1,0,,,1,FALSE,,,,,,,,,,,,,,,,,,,,,,,,,,,,,,,
,5f503987fc18901a2c94c407,627c69a2614fb8d1d73d0863,2022-05-11_21h38.43.816,classification_task,2021.2.3,MacIntel,59.84082341,627c6715c52fd12f31907bd0,,,,,,,,,,,,,,,,,,,,,,,a,1,1.7206,"[""0.204"",""0.306"",""0.855"",""0.909""]","[1,0,1,1]",0,9,9,9,1,0,0,,,1,FALSE,,,,,,,,,,,,,,,,,,,,,,,,,,,,,,,
,5f503987fc18901a2c94c407,627c69a2614fb8d1d73d0863,2022-05-11_21h38.43.816,classification_task,2021.2.3,MacIntel,59.84082341,627c6715c52fd12f31907bd0,,,,,,,,,,,,,,,,,,,,,,,a,1,1.1526,"[""0.162"",""0.516"",""0.785"",""0.959""]","[1,0,1,1]",0,10,10,10,1,0,1,,,1,FALSE,,,,,,,,,,,,,,,,,,,,,,,,,,,,,,,
,5f503987fc18901a2c94c407,627c69a2614fb8d1d73d0863,2022-05-11_21h38.43.816,classification_task,2021.2.3,MacIntel,59.84082341,627c6715c52fd12f31907bd0,,,,,,,,,,,,,,,,,,,,,,,l,0,1.5012,"[""0.162"",""0.557"",""0.785"",""0.279""]","[1,1,1,0]",0,11,11,11,1,0,1,,,1,FALSE,,,,,,,,,,,,,,,,,,,,,,,,,,,,,,,
,5f503987fc18901a2c94c407,627c69a2614fb8d1d73d0863,2022-05-11_21h38.43.816,classification_task,2021.2.3,MacIntel,59.84082341,627c6715c52fd12f31907bd0,,,,,,,,,,,,,,,,,,,,,,,l,0,1.3506,"[""0.204"",""0.340"",""0.855"",""0.671""]","[1,1,1,0]",0,12,12,12,1,0,0,,,1,FALSE,,,,,,,,,,,,,,,,,,,,,,,,,,,,,,,
,5f503987fc18901a2c94c407,627c69a2614fb8d1d73d0863,2022-05-11_21h38.43.816,classification_task,2021.2.3,MacIntel,59.84082341,627c6715c52fd12f31907bd0,,,,,,,,,,,,,,,,,,,,,,,l,1,0.8645,"[""0.641"",""0.238"",""0.467"",""0.820""]","[0,1,1,1]",0,13,13,13,1,1,1,,,1,FALSE,,,,,,,,,,,,,,,,,,,,,,,,,,,,,,,
,5f503987fc18901a2c94c407,627c69a2614fb8d1d73d0863,2022-05-11_21h38.43.816,classification_task,2021.2.3,MacIntel,59.84082341,627c6715c52fd12f31907bd0,,,,,,,,,,,,,,,,,,,,,,,l,1,1.1327,"[""0.034"",""0.238"",""0.646"",""0.820""]","[1,1,0,1]",0,14,14,14,1,1,1,,,1,FALSE,,,,,,,,,,,,,,,,,,,,,,,,,,,,,,,
,5f503987fc18901a2c94c407,627c69a2614fb8d1d73d0863,2022-05-11_21h38.43.816,classification_task,2021.2.3,MacIntel,59.84082341,627c6715c52fd12f31907bd0,,,,,,,,,,,,,,,,,,,,,,,a,0,1.3101,"[""0.671"",""0.414"",""0.604"",""0.730""]","[0,1,1,1]",0,15,15,15,1,1,0,,,1,FALSE,,,,,,,,,,,,,,,,,,,,,,,,,,,,,,,
,5f503987fc18901a2c94c407,627c69a2614fb8d1d73d0863,2022-05-11_21h38.43.816,classification_task,2021.2.3,MacIntel,59.84082341,627c6715c52fd12f31907bd0,,,,,,,,,,,,,,,,,,,,,,,l,1,1.1469,"[""0.034"",""0.238"",""0.467"",""0.279""]","[1,1,1,0]",0,16,16,16,1,1,1,,,1,FALSE,,,,,,,,,,,,,,,,,,,,,,,,,,,,,,,
,5f503987fc18901a2c94c407,627c69a2614fb8d1d73d0863,2022-05-11_21h38.43.816,classification_task,2021.2.3,MacIntel,59.84082341,627c6715c52fd12f31907bd0,,,,,,,,,,,,,,,,,,,,,,,a,1,0.82,"[""0.162"",""0.557"",""0.785"",""0.275""]","[1,1,1,0]",0,17,17,17,1,0,1,,,1,FALSE,,,,,,,,,,,,,,,,,,,,,,,,,,,,,,,
,5f503987fc18901a2c94c407,627c69a2614fb8d1d73d0863,2022-05-11_21h38.43.816,classification_task,2021.2.3,MacIntel,59.84082341,627c6715c52fd12f31907bd0,,,,,,,,,,,,,,,,,,,,,,,l,0,1.2174,"[""0.204"",""0.340"",""0.279"",""0.909""]","[1,1,0,1]",0,18,18,18,1,0,0,,,1,FALSE,,,,,,,,,,,,,,,,,,,,,,,,,,,,,,,
,5f503987fc18901a2c94c407,627c69a2614fb8d1d73d0863,2022-05-11_21h38.43.816,classification_task,2021.2.3,MacIntel,59.84082341,627c6715c52fd12f31907bd0,,,,,,,,,,,,,,,,,,,,,,,l,0,1.356,"[""0.162"",""0.557"",""0.640"",""0.959""]","[1,1,0,1]",0,19,19,19,1,0,1,,,1,FALSE,,,,,,,,,,,,,,,,,,,,,,,,,,,,,,,
,5f503987fc18901a2c94c407,627c69a2614fb8d1d73d0863,2022-05-11_21h38.43.816,classification_task,2021.2.3,MacIntel,59.84082341,627c6715c52fd12f31907bd0,,,,,,,,,,,,,,,,,,,,,,,a,0,1.0131,"[""0.094"",""0.414"",""0.604"",""0.512""]","[1,1,1,0]",0,20,20,20,1,1,0,,,1,FALSE,,,,,,,,,,,,,,,,,,,,,,,,,,,,,,,
,5f503987fc18901a2c94c407,627c69a2614fb8d1d73d0863,2022-05-11_21h38.43.816,classification_task,2021.2.3,MacIntel,59.84082341,627c6715c52fd12f31907bd0,,,,,,,,,,,,,,,,,,,,,,,l,1,0.9032,"[""0.034"",""0.238"",""0.502"",""0.820""]","[1,1,0,1]",0,21,21,21,1,1,1,,,1,FALSE,,,,,,,,,,,,,,,,,,,,,,,,,,,,,,,
,5f503987fc18901a2c94c407,627c69a2614fb8d1d73d0863,2022-05-11_21h38.43.816,classification_task,2021.2.3,MacIntel,59.84082341,627c6715c52fd12f31907bd0,,,,,,,,,,,,,,,,,,,,,,,l,0,0.844,"[""0.204"",""0.340"",""0.855"",""0.671""]","[1,1,1,0]",0,22,22,22,1,0,0,,,1,FALSE,,,,,,,,,,,,,,,,,,,,,,,,,,,,,,,
,5f503987fc18901a2c94c407,627c69a2614fb8d1d73d0863,2022-05-11_21h38.43.816,classification_task,2021.2.3,MacIntel,59.84082341,627c6715c52fd12f31907bd0,,,,,,,,,,,,,,,,,,,,,,,a,1,0.6872,"[""0.204"",""0.279"",""0.855"",""0.909""]","[1,0,1,1]",0,23,23,23,1,0,0,,,1,FALSE,,,,,,,,,,,,,,,,,,,,,,,,,,,,,,,
,5f503987fc18901a2c94c407,627c69a2614fb8d1d73d0863,2022-05-11_21h38.43.816,classification_task,2021.2.3,MacIntel,59.84082341,627c6715c52fd12f31907bd0,,,,,,,,,,,,,,,,,,,,,,,a,1,0.8844,"[""0.671"",""0.340"",""0.855"",""0.909""]","[0,1,1,1]",0,24,24,24,1,0,0,,,1,FALSE,,,,,,,,,,,,,,,,,,,,,,,,,,,,,,,
,5f503987fc18901a2c94c407,627c69a2614fb8d1d73d0863,2022-05-11_21h38.43.816,classification_task,2021.2.3,MacIntel,59.84082341,627c6715c52fd12f31907bd0,,,,,,,,,,,,,,,,,,,,,,,a,1,0.8454,"[""0.671"",""0.557"",""0.785"",""0.959""]","[0,1,1,1]",0,25,25,25,1,0,1,,,1,FALSE,,,,,,,,,,,,,,,,,,,,,,,,,,,,,,,
,5f503987fc18901a2c94c407,627c69a2614fb8d1d73d0863,2022-05-11_21h38.43.816,classification_task,2021.2.3,MacIntel,59.84082341,627c6715c52fd12f31907bd0,,,,,,,,,,,,,,,,,,,,,,,l,0,0.6856,"[""0.162"",""0.303"",""0.785"",""0.959""]","[1,0,1,1]",0,26,26,26,1,0,1,,,1,FALSE,,,,,,,,,,,,,,,,,,,,,,,,,,,,,,,
,5f503987fc18901a2c94c407,627c69a2614fb8d1d73d0863,2022-05-11_21h38.43.816,classification_task,2021.2.3,MacIntel,59.84082341,627c6715c52fd12f31907bd0,,,,,,,,,,,,,,,,,,,,,,,l,1,0.6184,"[""0.034"",""0.671"",""0.467"",""0.820""]","[1,0,1,1]",0,27,27,27,1,1,1,,,1,FALSE,,,,,,,,,,,,,,,,,,,,,,,,,,,,,,,
,5f503987fc18901a2c94c407,627c69a2614fb8d1d73d0863,2022-05-11_21h38.43.816,classification_task,2021.2.3,MacIntel,59.84082341,627c6715c52fd12f31907bd0,,,,,,,,,,,,,,,,,,,,,,,l,1,1.0169,"[""0.275"",""0.414"",""0.604"",""0.730""]","[0,1,1,1]",0,28,28,28,1,1,0,,,1,FALSE,,,,,,,,,,,,,,,,,,,,,,,,,,,,,,,
,5f503987fc18901a2c94c407,627c69a2614fb8d1d73d0863,2022-05-11_21h38.43.816,classification_task,2021.2.3,MacIntel,59.84082341,627c6715c52fd12f31907bd0,,,,,,,,,,,,,,,,,,,,,,,a,0,0.5871,"[""0.094"",""0.502"",""0.604"",""0.730""]","[1,0,1,1]",0,29,29,29,1,1,0,,,1,FALSE,,,,,,,,,,,,,,,,,,,,,,,,,,,,,,,
,5f503987fc18901a2c94c407,627c69a2614fb8d1d73d0863,2022-05-11_21h38.43.816,classification_task,2021.2.3,MacIntel,59.84082341,627c6715c52fd12f31907bd0,,,,,,,,,,,,,,,,,,,,,,,l,1,0.648,"[""0.306"",""0.238"",""0.467"",""0.820""]","[0,1,1,1]",0,30,30,30,1,1,1,,,1,FALSE,,,,,,,,,,,,,,,,,,,,,,,,,,,,,,,
,5f503987fc18901a2c94c407,627c69a2614fb8d1d73d0863,2022-05-11_21h38.43.816,classification_task,2021.2.3,MacIntel,59.84082341,627c6715c52fd12f31907bd0,,,,,,,,,,,,,,,,,,,,,,,l,1,0.8649,"[""0.094"",""0.414"",""0.275"",""0.730""]","[1,1,0,1]",0,31,31,31,1,1,0,,,1,FALSE,,,,,,,,,,,,,,,,,,,,,,,,,,,,,,,
,5f503987fc18901a2c94c407,627c69a2614fb8d1d73d0863,2022-05-11_21h38.43.816,classification_task,2021.2.3,MacIntel,59.84082341,627c6715c52fd12f31907bd0,,,,,,,,,,,,,,,,,,,,,,,l,0,0.6001,"[""0.204"",""0.340"",""0.522"",""0.909""]","[1,1,0,1]",0,32,32,32,1,0,0,,,1,FALSE,,,,,,,,,,,,,,,,,,,,,,,,,,,,,,,
,5f503987fc18901a2c94c407,627c69a2614fb8d1d73d0863,2022-05-11_21h38.43.816,classification_task,2021.2.3,MacIntel,59.84082341,627c6715c52fd12f31907bd0,,,,,,,,,,,,,,,,,,,,,,,l,1,1.0345,"[""0.303"",""0.238"",""0.467"",""0.820""]","[0,1,1,1]",0,33,33,33,1,1,1,,,1,FALSE,,,,,,,,,,,,,,,,,,,,,,,,,,,,,,,
,5f503987fc18901a2c94c407,627c69a2614fb8d1d73d0863,2022-05-11_21h38.43.816,classification_task,2021.2.3,MacIntel,59.84082341,627c6715c52fd12f31907bd0,,,,,,,,,,,,,,,,,,,,,,,a,1,0.8006,"[""0.162"",""0.557"",""0.785"",""0.640""]","[1,1,1,0]",0,34,34,34,1,0,1,,,1,FALSE,,,,,,,,,,,,,,,,,,,,,,,,,,,,,,,
,5f503987fc18901a2c94c407,627c69a2614fb8d1d73d0863,2022-05-11_21h38.43.816,classification_task,2021.2.3,MacIntel,59.84082341,627c6715c52fd12f31907bd0,,,,,,,,,,,,,,,,,,,,,,,a,0,0.7018,"[""0.094"",""0.414"",""0.275"",""0.730""]","[1,1,0,1]",0,35,35,35,1,1,0,,,1,FALSE,,,,,,,,,,,,,,,,,,,,,,,,,,,,,,,
,5f503987fc18901a2c94c407,627c69a2614fb8d1d73d0863,2022-05-11_21h38.43.816,classification_task,2021.2.3,MacIntel,59.84082341,627c6715c52fd12f31907bd0,,,,,,,,,,,,,,,,,,,,,,,a,1,1.0897,"[""0.162"",""0.512"",""0.785"",""0.959""]","[1,0,1,1]",0,36,36,36,1,0,1,,,1,FALSE,,,,,,,,,,,,,,,,,,,,,,,,,,,,,,,
,5f503987fc18901a2c94c407,627c69a2614fb8d1d73d0863,2022-05-11_21h38.43.816,classification_task,2021.2.3,MacIntel,59.84082341,627c6715c52fd12f31907bd0,,,,,,,,,,,,,,,,,,,,,,,a,1,0.7485,"[""0.204"",""0.340"",""0.855"",""0.516""]","[1,1,1,0]",0,37,37,37,1,0,0,,,1,FALSE,,,,,,,,,,,,,,,,,,,,,,,,,,,,,,,
,5f503987fc18901a2c94c407,627c69a2614fb8d1d73d0863,2022-05-11_21h38.43.816,classification_task,2021.2.3,MacIntel,59.84082341,627c6715c52fd12f31907bd0,,,,,,,,,,,,,,,,,,,,,,,a,1,0.5721,"[""0.279"",""0.340"",""0.855"",""0.909""]","[0,1,1,1]",0,38,38,38,1,0,0,,,1,FALSE,,,,,,,,,,,,,,,,,,,,,,,,,,,,,,,
,5f503987fc18901a2c94c407,627c69a2614fb8d1d73d0863,2022-05-11_21h38.43.816,classification_task,2021.2.3,MacIntel,59.84082341,627c6715c52fd12f31907bd0,,,,,,,,,,,,,,,,,,,,,,,a,0,0.5052,"[""0.094"",""0.414"",""0.604"",""0.678""]","[1,1,1,0]",0,39,39,39,1,1,0,,,1,FALSE,,,,,,,,,,,,,,,,,,,,,,,,,,,,,,,
,5f503987fc18901a2c94c407,627c69a2614fb8d1d73d0863,2022-05-11_21h38.43.816,classification_task,2021.2.3,MacIntel,59.84082341,627c6715c52fd12f31907bd0,,,,,,,,,,,,,,,,,,,,,,,l,1,0.5641,"[""0.034"",""0.238"",""0.467"",""0.648""]","[1,1,1,0]",0,40,40,40,1,1,1,,,1,FALSE,,,,,,,,,,,,,,,,,,,,,,,,,,,,,,,
,5f503987fc18901a2c94c407,627c69a2614fb8d1d73d0863,2022-05-11_21h38.43.816,classification_task,2021.2.3,MacIntel,59.84082341,627c6715c52fd12f31907bd0,,,,,,,,,,,,,,,,,,,,,,,a,1,0.9756,"[""0.512"",""0.557"",""0.785"",""0.959""]","[0,1,1,1]",0,41,41,41,1,0,1,,,1,FALSE,,,,,,,,,,,,,,,,,,,,,,,,,,,,,,,
,5f503987fc18901a2c94c407,627c69a2614fb8d1d73d0863,2022-05-11_21h38.43.816,classification_task,2021.2.3,MacIntel,59.84082341,627c6715c52fd12f31907bd0,,,,,,,,,,,,,,,,,,,,,,,l,1,0.8182,"[""0.034"",""0.238"",""0.671"",""0.820""]","[1,1,0,1]",0,42,42,42,1,1,1,,,1,FALSE,,,,,,,,,,,,,,,,,,,,,,,,,,,,,,,
,5f503987fc18901a2c94c407,627c69a2614fb8d1d73d0863,2022-05-11_21h38.43.816,classification_task,2021.2.3,MacIntel,59.84082341,627c6715c52fd12f31907bd0,,,,,,,,,,,,,,,,,,,,,,,a,1,1.5545,"[""0.162"",""0.557"",""0.671"",""0.959""]","[1,1,0,1]",0,43,43,43,1,0,1,,,1,FALSE,,,,,,,,,,,,,,,,,,,,,,,,,,,,,,,
,5f503987fc18901a2c94c407,627c69a2614fb8d1d73d0863,2022-05-11_21h38.43.816,classification_task,2021.2.3,MacIntel,59.84082341,627c6715c52fd12f31907bd0,,,,,,,,,,,,,,,,,,,,,,,l,0,1.0076,"[""0.204"",""0.646"",""0.855"",""0.909""]","[1,0,1,1]",0,44,44,44,1,0,0,,,1,FALSE,,,,,,,,,,,,,,,,,,,,,,,,,,,,,,,
,5f503987fc18901a2c94c407,627c69a2614fb8d1d73d0863,2022-05-11_21h38.43.816,classification_task,2021.2.3,MacIntel,59.84082341,627c6715c52fd12f31907bd0,,,,,,,,,,,,,,,,,,,,,,,l,1,0.7289,"[""0.034"",""0.303"",""0.467"",""0.820""]","[1,0,1,1]",0,45,45,45,1,1,1,,,1,FALSE,,,,,,,,,,,,,,,,,,,,,,,,,,,,,,,
,5f503987fc18901a2c94c407,627c69a2614fb8d1d73d0863,2022-05-11_21h38.43.816,classification_task,2021.2.3,MacIntel,59.84082341,627c6715c52fd12f31907bd0,,,,,,,,,,,,,,,,,,,,,,,a,0,1.2137,"[""0.303"",""0.414"",""0.604"",""0.730""]","[0,1,1,1]",0,46,46,46,1,1,0,,,1,FALSE,,,,,,,,,,,,,,,,,,,,,,,,,,,,,,,
,5f503987fc18901a2c94c407,627c69a2614fb8d1d73d0863,2022-05-11_21h38.43.816,classification_task,2021.2.3,MacIntel,59.84082341,627c6715c52fd12f31907bd0,,,,,,,,,,,,,,,,,,,,,,,a,0,1.0853,"[""0.094"",""0.646"",""0.604"",""0.730""]","[1,0,1,1]",0,47,47,47,1,1,0,,,1,FALSE,,,,,,,,,,,,,,,,,,,,,,,,,,,,,,,
,5f503987fc18901a2c94c407,627c69a2614fb8d1d73d0863,2022-05-11_21h38.43.816,classification_task,2021.2.3,MacIntel,59.84082341,627c6715c52fd12f31907bd0,,,,,,,,,,,,,,,,,,,,,,,l,0,0.8213,"[""0.502"",""0.340"",""0.855"",""0.909""]","[0,1,1,1]",0,48,48,48,1,0,0,,,1,FALSE,,,,,,,,,,,,,,,,,,,,,,,,,,,,,,,
,5f503987fc18901a2c94c407,627c69a2614fb8d1d73d0863,2022-05-11_21h38.43.816,classification_task,2021.2.3,MacIntel,59.84082341,627c6715c52fd12f31907bd0,,,,,,,,,,,,,,,,,,,,,,,a,0,0.6682,"[""0.094"",""0.671"",""0.604"",""0.730""]","[1,0,1,1]",0,49,49,49,1,1,0,,,1,FALSE,,,,,,,,,,,,,,,,,,,,,,,,,,,,,,,
,5f503987fc18901a2c94c407,627c69a2614fb8d1d73d0863,2022-05-11_21h38.43.816,classification_task,2021.2.3,MacIntel,59.84082341,627c6715c52fd12f31907bd0,,,,,,,,,,,,,,,,,,,,,,,l,1,1.1348,"[""0.034"",""0.238"",""0.467"",""0.522""]","[1,1,1,0]",0,50,50,50,1,1,1,,,1,FALSE,,,,,,,,,,,,,,,,,,,,,,,,,,,,,,,
,5f503987fc18901a2c94c407,627c69a2614fb8d1d73d0863,2022-05-11_21h38.43.816,classification_task,2021.2.3,MacIntel,59.84082341,627c6715c52fd12f31907bd0,,,,,,,,,,,,,,,,,,,,,,,l,0,1.0158,"[""0.204"",""0.340"",""0.855"",""0.275""]","[1,1,1,0]",0,51,51,51,1,0,0,,,1,FALSE,,,,,,,,,,,,,,,,,,,,,,,,,,,,,,,
,5f503987fc18901a2c94c407,627c69a2614fb8d1d73d0863,2022-05-11_21h38.43.816,classification_task,2021.2.3,MacIntel,59.84082341,627c6715c52fd12f31907bd0,,,,,,,,,,,,,,,,,,,,,,,l,1,1.112,"[""0.034"",""0.516"",""0.467"",""0.820""]","[1,0,1,1]",0,52,52,52,1,1,1,,,1,FALSE,,,,,,,,,,,,,,,,,,,,,,,,,,,,,,,
,5f503987fc18901a2c94c407,627c69a2614fb8d1d73d0863,2022-05-11_21h38.43.816,classification_task,2021.2.3,MacIntel,59.84082341,627c6715c52fd12f31907bd0,,,,,,,,,,,,,,,,,,,,,,,a,1,0.9043,"[""0.162"",""0.671"",""0.785"",""0.959""]","[1,0,1,1]",0,53,53,53,1,0,1,,,1,FALSE,,,,,,,,,,,,,,,,,,,,,,,,,,,,,,,
,5f503987fc18901a2c94c407,627c69a2614fb8d1d73d0863,2022-05-11_21h38.43.816,classification_task,2021.2.3,MacIntel,59.84082341,627c6715c52fd12f31907bd0,,,,,,,,,,,,,,,,,,,,,,,l,0,1.347,"[""0.204"",""0.671"",""0.855"",""0.909""]","[1,0,1,1]",0,54,54,54,1,0,0,,,1,FALSE,,,,,,,,,,,,,,,,,,,,,,,,,,,,,,,
,5f503987fc18901a2c94c407,627c69a2614fb8d1d73d0863,2022-05-11_21h38.43.816,classification_task,2021.2.3,MacIntel,59.84082341,627c6715c52fd12f31907bd0,,,,,,,,,,,,,,,,,,,,,,,l,0,1.5056,"[""0.204"",""0.340"",""0.303"",""0.909""]","[1,1,0,1]",0,55,55,55,1,0,0,,,1,FALSE,,,,,,,,,,,,,,,,,,,,,,,,,,,,,,,
,5f503987fc18901a2c94c407,627c69a2614fb8d1d73d0863,2022-05-11_21h38.43.816,classification_task,2021.2.3,MacIntel,59.84082341,627c6715c52fd12f31907bd0,,,,,,,,,,,,,,,,,,,,,,,l,1,0.856,"[""0.275"",""0.414"",""0.604"",""0.730""]","[0,1,1,1]",0,56,56,56,1,1,0,,,1,FALSE,,,,,,,,,,,,,,,,,,,,,,,,,,,,,,,
,5f503987fc18901a2c94c407,627c69a2614fb8d1d73d0863,2022-05-11_21h38.43.816,classification_task,2021.2.3,MacIntel,59.84082341,627c6715c52fd12f31907bd0,,,,,,,,,,,,,,,,,,,,,,,a,1,1.6376,"[""0.162"",""0.557"",""0.785"",""0.306""]","[1,1,1,0]",0,57,57,57,1,0,1,,,1,FALSE,,,,,,,,,,,,,,,,,,,,,,,,,,,,,,,
,5f503987fc18901a2c94c407,627c69a2614fb8d1d73d0863,2022-05-11_21h38.43.816,classification_task,2021.2.3,MacIntel,59.84082341,627c6715c52fd12f31907bd0,,,,,,,,,,,,,,,,,,,,,,,a,1,1.1908,"[""0.162"",""0.557"",""0.279"",""0.959""]","[1,1,0,1]",0,58,58,58,1,0,1,,,1,FALSE,,,,,,,,,,,,,,,,,,,,,,,,,,,,,,,
,5f503987fc18901a2c94c407,627c69a2614fb8d1d73d0863,2022-05-11_21h38.43.816,classification_task,2021.2.3,MacIntel,59.84082341,627c6715c52fd12f31907bd0,,,,,,,,,,,,,,,,,,,,,,,a,0,0.8149,"[""0.094"",""0.414"",""0.604"",""0.641""]","[1,1,1,0]",0,59,59,59,1,1,0,,,1,FALSE,,,,,,,,,,,,,,,,,,,,,,,,,,,,,,,
,5f503987fc18901a2c94c407,627c69a2614fb8d1d73d0863,2022-05-11_21h38.43.816,classification_task,2021.2.3,MacIntel,59.84082341,627c6715c52fd12f31907bd0,,,,,,,,,,,,,,,,,,,,,,,l,1,0.4831,"[""0.512"",""0.238"",""0.467"",""0.820""]","[0,1,1,1]",0,60,60,60,1,1,1,,,1,FALSE,,,,,,,,,,,,,,,,,,,,,,,,,,,,,,,
,5f503987fc18901a2c94c407,627c69a2614fb8d1d73d0863,2022-05-11_21h38.43.816,classification_task,2021.2.3,MacIntel,59.84082341,627c6715c52fd12f31907bd0,,,,,,,,,,,,,,,,,,,,,,,a,1,0.7037,"[""0.641"",""0.557"",""0.785"",""0.959""]","[0,1,1,1]",0,61,61,61,1,0,1,,,1,FALSE,,,,,,,,,,,,,,,,,,,,,,,,,,,,,,,
,5f503987fc18901a2c94c407,627c69a2614fb8d1d73d0863,2022-05-11_21h38.43.816,classification_task,2021.2.3,MacIntel,59.84082341,627c6715c52fd12f31907bd0,,,,,,,,,,,,,,,,,,,,,,,l,1,0.8127,"[""0.094"",""0.414"",""0.512"",""0.730""]","[1,1,0,1]",0,62,62,62,1,1,0,,,1,FALSE,,,,,,,,,,,,,,,,,,,,,,,,,,,,,,,
,5f503987fc18901a2c94c407,627c69a2614fb8d1d73d0863,2022-05-11_21h38.43.816,classification_task,2021.2.3,MacIntel,59.84082341,627c6715c52fd12f31907bd0,,,,,,,,,,,,,,,,,,,,,,,l,1,0.6461,"[""0.034"",""0.238"",""0.522"",""0.820""]","[1,1,0,1]",0,63,63,63,1,1,1,,,1,FALSE,,,,,,,,,,,,,,,,,,,,,,,,,,,,,,,
,5f503987fc18901a2c94c407,627c69a2614fb8d1d73d0863,2022-05-11_21h38.43.816,classification_task,2021.2.3,MacIntel,59.84082341,627c6715c52fd12f31907bd0,,,,,,,,,,,,,,,,,,,,,,,,,,,,,,,,,,,,,,,0, ,,0,1.354740777,160.7829,0,1,1,1,1,2,2,,,,,,,,,,,,,,,,,,
,5f503987fc18901a2c94c407,627c69a2614fb8d1d73d0863,2022-05-11_21h38.43.816,classification_task,2021.2.3,MacIntel,59.84082341,627c6715c52fd12f31907bd0,,,,,,,,,,,,,,,,,,,,,,,,,,,,,,,,,,,,,,,1,  ,,0,2.128642159,162.8997,0,1,1,1,1,2,2,,,,,,,,,,,,,,,,,,
,5f503987fc18901a2c94c407,627c69a2614fb8d1d73d0863,2022-05-11_21h38.43.816,classification_task,2021.2.3,MacIntel,59.84082341,627c6715c52fd12f31907bd0,,,,,,,,,,,,,,,,,,,,,,,,,,,,,,,,,,,,,,,2,  ,,0,0.422614455,164.3699,0,1,1,1,1,2,2,,,,,,,,,,,,,,,,,,
,5f503987fc18901a2c94c407,627c69a2614fb8d1d73d0863,2022-05-11_21h38.43.816,classification_task,2021.2.3,MacIntel,59.84082341,627c6715c52fd12f31907bd0,,,,,,,,,,,,,,,,,,,,,,,,,,,,,,,,,,,,,,,,,,,,,0,1,1,1,1,,2,,,,,,,,,,,,,,,,,,
,5f503987fc18901a2c94c407,627c69a2614fb8d1d73d0863,2022-05-11_21h38.43.816,classification_task,2021.2.3,MacIntel,59.84082341,627c6715c52fd12f31907bd0,,,,,,,,,,,,,,,,,,,,,space,9.2267,l,0,1.8414,"[""0.671"",""0.557"",""0.785"",""0.959""]","[0,1,1,1]",0,0,0,0,1,0,1,,,1,FALSE,,,,,,,,,,,,,,,,,,,,,,,,,,,,,,,
,5f503987fc18901a2c94c407,627c69a2614fb8d1d73d0863,2022-05-11_21h38.43.816,classification_task,2021.2.3,MacIntel,59.84082341,627c6715c52fd12f31907bd0,,,,,,,,,,,,,,,,,,,,,,,a,0,1.3288,"[""0.034"",""0.640"",""0.467"",""0.820""]","[1,0,1,1]",0,1,1,1,1,1,1,,,1,FALSE,,,,,,,,,,,,,,,,,,,,,,,,,,,,,,,
,5f503987fc18901a2c94c407,627c69a2614fb8d1d73d0863,2022-05-11_21h38.43.816,classification_task,2021.2.3,MacIntel,59.84082341,627c6715c52fd12f31907bd0,,,,,,,,,,,,,,,,,,,,,,,a,0,0.7878,"[""0.094"",""0.275"",""0.604"",""0.730""]","[1,0,1,1]",0,2,2,2,1,1,0,,,1,FALSE,,,,,,,,,,,,,,,,,,,,,,,,,,,,,,,
,5f503987fc18901a2c94c407,627c69a2614fb8d1d73d0863,2022-05-11_21h38.43.816,classification_task,2021.2.3,MacIntel,59.84082341,627c6715c52fd12f31907bd0,,,,,,,,,,,,,,,,,,,,,,,l,1,2.6425,"[""0.640"",""0.238"",""0.467"",""0.820""]","[0,1,1,1]",0,3,3,3,1,1,1,,,1,FALSE,,,,,,,,,,,,,,,,,,,,,,,,,,,,,,,
,5f503987fc18901a2c94c407,627c69a2614fb8d1d73d0863,2022-05-11_21h38.43.816,classification_task,2021.2.3,MacIntel,59.84082341,627c6715c52fd12f31907bd0,,,,,,,,,,,,,,,,,,,,,,,a,0,2.4585,"[""0.502"",""0.414"",""0.604"",""0.730""]","[0,1,1,1]",0,4,4,4,1,1,0,,,1,FALSE,,,,,,,,,,,,,,,,,,,,,,,,,,,,,,,
,5f503987fc18901a2c94c407,627c69a2614fb8d1d73d0863,2022-05-11_21h38.43.816,classification_task,2021.2.3,MacIntel,59.84082341,627c6715c52fd12f31907bd0,,,,,,,,,,,,,,,,,,,,,,,a,0,2.2191,"[""0.094"",""0.414"",""0.604"",""0.275""]","[1,1,1,0]",0,5,5,5,1,1,0,,,1,FALSE,,,,,,,,,,,,,,,,,,,,,,,,,,,,,,,
,5f503987fc18901a2c94c407,627c69a2614fb8d1d73d0863,2022-05-11_21h38.43.816,classification_task,2021.2.3,MacIntel,59.84082341,627c6715c52fd12f31907bd0,,,,,,,,,,,,,,,,,,,,,,,a,0,1.3018,"[""0.094"",""0.414"",""0.279"",""0.730""]","[1,1,0,1]",0,6,6,6,1,1,0,,,1,FALSE,,,,,,,,,,,,,,,,,,,,,,,,,,,,,,,
,5f503987fc18901a2c94c407,627c69a2614fb8d1d73d0863,2022-05-11_21h38.43.816,classification_task,2021.2.3,MacIntel,59.84082341,627c6715c52fd12f31907bd0,,,,,,,,,,,,,,,,,,,,,,,l,0,1.1234,"[""0.204"",""0.502"",""0.855"",""0.909""]","[1,0,1,1]",0,7,7,7,1,0,0,,,1,FALSE,,,,,,,,,,,,,,,,,,,,,,,,,,,,,,,
,5f503987fc18901a2c94c407,627c69a2614fb8d1d73d0863,2022-05-11_21h38.43.816,classification_task,2021.2.3,MacIntel,59.84082341,627c6715c52fd12f31907bd0,,,,,,,,,,,,,,,,,,,,,,,l,0,1.3567,"[""0.162"",""0.557"",""0.275"",""0.959""]","[1,1,0,1]",0,8,8,8,1,0,1,,,1,FALSE,,,,,,,,,,,,,,,,,,,,,,,,,,,,,,,
,5f503987fc18901a2c94c407,627c69a2614fb8d1d73d0863,2022-05-11_21h38.43.816,classification_task,2021.2.3,MacIntel,59.84082341,627c6715c52fd12f31907bd0,,,,,,,,,,,,,,,,,,,,,,,l,0,1.0699,"[""0.162"",""0.557"",""0.785"",""0.685""]","[1,1,1,0]",0,9,9,9,1,0,1,,,1,FALSE,,,,,,,,,,,,,,,,,,,,,,,,,,,,,,,
,5f503987fc18901a2c94c407,627c69a2614fb8d1d73d0863,2022-05-11_21h38.43.816,classification_task,2021.2.3,MacIntel,59.84082341,627c6715c52fd12f31907bd0,,,,,,,,,,,,,,,,,,,,,,,a,1,1.0318,"[""0.204"",""0.340"",""0.275"",""0.909""]","[1,1,0,1]",0,10,10,10,1,0,0,,,1,FALSE,,,,,,,,,,,,,,,,,,,,,,,,,,,,,,,
,5f503987fc18901a2c94c407,627c69a2614fb8d1d73d0863,2022-05-11_21h38.43.816,classification_task,2021.2.3,MacIntel,59.84082341,627c6715c52fd12f31907bd0,,,,,,,,,,,,,,,,,,,,,,,l,0,0.8232,"[""0.162"",""0.306"",""0.785"",""0.959""]","[1,0,1,1]",0,11,11,11,1,0,1,,,1,FALSE,,,,,,,,,,,,,,,,,,,,,,,,,,,,,,,
,5f503987fc18901a2c94c407,627c69a2614fb8d1d73d0863,2022-05-11_21h38.43.816,classification_task,2021.2.3,MacIntel,59.84082341,627c6715c52fd12f31907bd0,,,,,,,,,,,,,,,,,,,,,,,a,0,1.5863,"[""0.034"",""0.238"",""0.467"",""0.522""]","[1,1,1,0]",0,12,12,12,1,1,1,,,1,FALSE,,,,,,,,,,,,,,,,,,,,,,,,,,,,,,,
,5f503987fc18901a2c94c407,627c69a2614fb8d1d73d0863,2022-05-11_21h38.43.816,classification_task,2021.2.3,MacIntel,59.84082341,627c6715c52fd12f31907bd0,,,,,,,,,,,,,,,,,,,,,,,l,0,0.8086,"[""0.204"",""0.340"",""0.855"",""0.641""]","[1,1,1,0]",0,13,13,13,1,0,0,,,1,FALSE,,,,,,,,,,,,,,,,,,,,,,,,,,,,,,,
,5f503987fc18901a2c94c407,627c69a2614fb8d1d73d0863,2022-05-11_21h38.43.816,classification_task,2021.2.3,MacIntel,59.84082341,627c6715c52fd12f31907bd0,,,,,,,,,,,,,,,,,,,,,,,a,0,0.6179,"[""0.034"",""0.238"",""0.303"",""0.820""]","[1,1,0,1]",0,14,14,14,1,1,1,,,1,FALSE,,,,,,,,,,,,,,,,,,,,,,,,,,,,,,,
,5f503987fc18901a2c94c407,627c69a2614fb8d1d73d0863,2022-05-11_21h38.43.816,classification_task,2021.2.3,MacIntel,59.84082341,627c6715c52fd12f31907bd0,,,,,,,,,,,,,,,,,,,,,,,a,1,0.7806,"[""0.671"",""0.340"",""0.855"",""0.909""]","[0,1,1,1]",0,15,15,15,1,0,0,,,1,FALSE,,,,,,,,,,,,,,,,,,,,,,,,,,,,,,,
,5f503987fc18901a2c94c407,627c69a2614fb8d1d73d0863,2022-05-11_21h38.43.816,classification_task,2021.2.3,MacIntel,59.84082341,627c6715c52fd12f31907bd0,,,,,,,,,,,,,,,,,,,,,,,a,1,0.7321,"[""0.204"",""0.340"",""0.678"",""0.909""]","[1,1,0,1]",0,16,16,16,1,0,0,,,1,FALSE,,,,,,,,,,,,,,,,,,,,,,,,,,,,,,,
,5f503987fc18901a2c94c407,627c69a2614fb8d1d73d0863,2022-05-11_21h38.43.816,classification_task,2021.2.3,MacIntel,59.84082341,627c6715c52fd12f31907bd0,,,,,,,,,,,,,,,,,,,,,,,l,1,1.2223,"[""0.502"",""0.238"",""0.467"",""0.820""]","[0,1,1,1]",0,17,17,17,1,1,1,,,1,FALSE,,,,,,,,,,,,,,,,,,,,,,,,,,,,,,,
,5f503987fc18901a2c94c407,627c69a2614fb8d1d73d0863,2022-05-11_21h38.43.816,classification_task,2021.2.3,MacIntel,59.84082341,627c6715c52fd12f31907bd0,,,,,,,,,,,,,,,,,,,,,,,a,0,0.9728,"[""0.640"",""0.414"",""0.604"",""0.730""]","[0,1,1,1]",0,18,18,18,1,1,0,,,1,FALSE,,,,,,,,,,,,,,,,,,,,,,,,,,,,,,,
,5f503987fc18901a2c94c407,627c69a2614fb8d1d73d0863,2022-05-11_21h38.43.816,classification_task,2021.2.3,MacIntel,59.84082341,627c6715c52fd12f31907bd0,,,,,,,,,,,,,,,,,,,,,,,a,0,0.8218,"[""0.034"",""0.279"",""0.467"",""0.820""]","[1,0,1,1]",0,19,19,19,1,1,1,,,1,FALSE,,,,,,,,,,,,,,,,,,,,,,,,,,,,,,,
,5f503987fc18901a2c94c407,627c69a2614fb8d1d73d0863,2022-05-11_21h38.43.816,classification_task,2021.2.3,MacIntel,59.84082341,627c6715c52fd12f31907bd0,,,,,,,,,,,,,,,,,,,,,,,l,0,1.2724,"[""0.162"",""0.557"",""0.641"",""0.959""]","[1,1,0,1]",0,20,20,20,1,0,1,,,1,FALSE,,,,,,,,,,,,,,,,,,,,,,,,,,,,,,,
,5f503987fc18901a2c94c407,627c69a2614fb8d1d73d0863,2022-05-11_21h38.43.816,classification_task,2021.2.3,MacIntel,59.84082341,627c6715c52fd12f31907bd0,,,,,,,,,,,,,,,,,,,,,,,a,0,1.8563,"[""0.094"",""0.414"",""0.671"",""0.730""]","[1,1,0,1]",0,21,21,21,1,1,0,,,1,FALSE,,,,,,,,,,,,,,,,,,,,,,,,,,,,,,,
,5f503987fc18901a2c94c407,627c69a2614fb8d1d73d0863,2022-05-11_21h38.43.816,classification_task,2021.2.3,MacIntel,59.84082341,627c6715c52fd12f31907bd0,,,,,,,,,,,,,,,,,,,,,,,a,1,0.6332,"[""0.204"",""0.340"",""0.855"",""0.522""]","[1,1,1,0]",0,22,22,22,1,0,0,,,1,FALSE,,,,,,,,,,,,,,,,,,,,,,,,,,,,,,,
,5f503987fc18901a2c94c407,627c69a2614fb8d1d73d0863,2022-05-11_21h38.43.816,classification_task,2021.2.3,MacIntel,59.84082341,627c6715c52fd12f31907bd0,,,,,,,,,,,,,,,,,,,,,,,a,1,0.4051,"[""0.640"",""0.340"",""0.855"",""0.909""]","[0,1,1,1]",0,23,23,23,1,0,0,,,1,FALSE,,,,,,,,,,,,,,,,,,,,,,,,,,,,,,,
,5f503987fc18901a2c94c407,627c69a2614fb8d1d73d0863,2022-05-11_21h38.43.816,classification_task,2021.2.3,MacIntel,59.84082341,627c6715c52fd12f31907bd0,,,,,,,,,,,,,,,,,,,,,,,l,0,0.6475,"[""0.162"",""0.678"",""0.785"",""0.959""]","[1,0,1,1]",0,24,24,24,1,0,1,,,1,FALSE,,,,,,,,,,,,,,,,,,,,,,,,,,,,,,,
,5f503987fc18901a2c94c407,627c69a2614fb8d1d73d0863,2022-05-11_21h38.43.816,classification_task,2021.2.3,MacIntel,59.84082341,627c6715c52fd12f31907bd0,,,,,,,,,,,,,,,,,,,,,,,a,0,0.6915,"[""0.034"",""0.238"",""0.467"",""0.275""]","[1,1,1,0]",0,25,25,25,1,1,1,,,1,FALSE,,,,,,,,,,,,,,,,,,,,,,,,,,,,,,,
,5f503987fc18901a2c94c407,627c69a2614fb8d1d73d0863,2022-05-11_21h38.43.816,classification_task,2021.2.3,MacIntel,59.84082341,627c6715c52fd12f31907bd0,,,,,,,,,,,,,,,,,,,,,,,a,1,0.653,"[""0.162"",""0.557"",""0.785"",""0.646""]","[1,1,1,0]",0,26,26,26,1,0,1,,,1,FALSE,,,,,,,,,,,,,,,,,,,,,,,,,,,,,,,
,5f503987fc18901a2c94c407,627c69a2614fb8d1d73d0863,2022-05-11_21h38.43.816,classification_task,2021.2.3,MacIntel,59.84082341,627c6715c52fd12f31907bd0,,,,,,,,,,,,,,,,,,,,,,,l,1,0.9226,"[""0.034"",""0.238"",""0.678"",""0.820""]","[1,1,0,1]",0,27,27,27,1,1,1,,,1,FALSE,,,,,,,,,,,,,,,,,,,,,,,,,,,,,,,
,5f503987fc18901a2c94c407,627c69a2614fb8d1d73d0863,2022-05-11_21h38.43.816,classification_task,2021.2.3,MacIntel,59.84082341,627c6715c52fd12f31907bd0,,,,,,,,,,,,,,,,,,,,,,,a,1,1.1887,"[""0.204"",""0.685"",""0.855"",""0.909""]","[1,0,1,1]",0,28,28,28,1,0,0,,,1,FALSE,,,,,,,,,,,,,,,,,,,,,,,,,,,,,,,
,5f503987fc18901a2c94c407,627c69a2614fb8d1d73d0863,2022-05-11_21h38.43.816,classification_task,2021.2.3,MacIntel,59.84082341,627c6715c52fd12f31907bd0,,,,,,,,,,,,,,,,,,,,,,,l,1,0.5034,"[""0.094"",""0.678"",""0.604"",""0.730""]","[1,0,1,1]",0,29,29,29,1,1,0,,,1,FALSE,,,,,,,,,,,,,,,,,,,,,,,,,,,,,,,
,5f503987fc18901a2c94c407,627c69a2614fb8d1d73d0863,2022-05-11_21h38.43.816,classification_task,2021.2.3,MacIntel,59.84082341,627c6715c52fd12f31907bd0,,,,,,,,,,,,,,,,,,,,,,,l,0,1.0208,"[""0.641"",""0.557"",""0.785"",""0.959""]","[0,1,1,1]",0,30,30,30,1,0,1,,,1,FALSE,,,,,,,,,,,,,,,,,,,,,,,,,,,,,,,
,5f503987fc18901a2c94c407,627c69a2614fb8d1d73d0863,2022-05-11_21h38.43.816,classification_task,2021.2.3,MacIntel,59.84082341,627c6715c52fd12f31907bd0,,,,,,,,,,,,,,,,,,,,,,,a,0,1.2913,"[""0.094"",""0.414"",""0.604"",""0.279""]","[1,1,1,0]",0,31,31,31,1,1,0,,,1,FALSE,,,,,,,,,,,,,,,,,,,,,,,,,,,,,,,
,5f503987fc18901a2c94c407,627c69a2614fb8d1d73d0863,2022-05-11_21h38.43.816,classification_task,2021.2.3,MacIntel,59.84082341,627c6715c52fd12f31907bd0,,,,,,,,,,,,,,,,,,,,,,,a,0,0.601,"[""0.516"",""0.238"",""0.467"",""0.820""]","[0,1,1,1]",0,32,32,32,1,1,1,,,1,FALSE,,,,,,,,,,,,,,,,,,,,,,,,,,,,,,,
,5f503987fc18901a2c94c407,627c69a2614fb8d1d73d0863,2022-05-11_21h38.43.816,classification_task,2021.2.3,MacIntel,59.84082341,627c6715c52fd12f31907bd0,,,,,,,,,,,,,,,,,,,,,,,a,1,1.3413,"[""0.162"",""0.641"",""0.785"",""0.959""]","[1,0,1,1]",0,33,33,33,1,0,1,,,1,FALSE,,,,,,,,,,,,,,,,,,,,,,,,,,,,,,,
,5f503987fc18901a2c94c407,627c69a2614fb8d1d73d0863,2022-05-11_21h38.43.816,classification_task,2021.2.3,MacIntel,59.84082341,627c6715c52fd12f31907bd0,,,,,,,,,,,,,,,,,,,,,,,a,1,1.2689,"[""0.162"",""0.557"",""0.279"",""0.959""]","[1,1,0,1]",0,34,34,34,1,0,1,,,1,FALSE,,,,,,,,,,,,,,,,,,,,,,,,,,,,,,,
,5f503987fc18901a2c94c407,627c69a2614fb8d1d73d0863,2022-05-11_21h38.43.816,classification_task,2021.2.3,MacIntel,59.84082341,627c6715c52fd12f31907bd0,,,,,,,,,,,,,,,,,,,,,,,a,0,1.1715,"[""0.094"",""0.303"",""0.604"",""0.730""]","[1,0,1,1]",0,35,35,35,1,1,0,,,1,FALSE,,,,,,,,,,,,,,,,,,,,,,,,,,,,,,,
,5f503987fc18901a2c94c407,627c69a2614fb8d1d73d0863,2022-05-11_21h38.43.816,classification_task,2021.2.3,MacIntel,59.84082341,627c6715c52fd12f31907bd0,,,,,,,,,,,,,,,,,,,,,,,l,0,0.7205,"[""0.162"",""0.557"",""0.785"",""0.671""]","[1,1,1,0]",0,36,36,36,1,0,1,,,1,FALSE,,,,,,,,,,,,,,,,,,,,,,,,,,,,,,,
,5f503987fc18901a2c94c407,627c69a2614fb8d1d73d0863,2022-05-11_21h38.43.816,classification_task,2021.2.3,MacIntel,59.84082341,627c6715c52fd12f31907bd0,,,,,,,,,,,,,,,,,,,,,,,a,0,1.1033,"[""0.034"",""0.238"",""0.467"",""0.522""]","[1,1,1,0]",0,37,37,37,1,1,1,,,1,FALSE,,,,,,,,,,,,,,,,,,,,,,,,,,,,,,,
,5f503987fc18901a2c94c407,627c69a2614fb8d1d73d0863,2022-05-11_21h38.43.816,classification_task,2021.2.3,MacIntel,59.84082341,627c6715c52fd12f31907bd0,,,,,,,,,,,,,,,,,,,,,,,a,1,1.2218,"[""0.204"",""0.522"",""0.855"",""0.909""]","[1,0,1,1]",0,38,38,38,1,0,0,,,1,FALSE,,,,,,,,,,,,,,,,,,,,,,,,,,,,,,,
,5f503987fc18901a2c94c407,627c69a2614fb8d1d73d0863,2022-05-11_21h38.43.816,classification_task,2021.2.3,MacIntel,59.84082341,627c6715c52fd12f31907bd0,,,,,,,,,,,,,,,,,,,,,,,a,1,1.1747,"[""0.648"",""0.340"",""0.855"",""0.909""]","[0,1,1,1]",0,39,39,39,1,0,0,,,1,FALSE,,,,,,,,,,,,,,,,,,,,,,,,,,,,,,,
,5f503987fc18901a2c94c407,627c69a2614fb8d1d73d0863,2022-05-11_21h38.43.816,classification_task,2021.2.3,MacIntel,59.84082341,627c6715c52fd12f31907bd0,,,,,,,,,,,,,,,,,,,,,,,a,1,0.55,"[""0.204"",""0.340"",""0.640"",""0.909""]","[1,1,0,1]",0,40,40,40,1,0,0,,,1,FALSE,,,,,,,,,,,,,,,,,,,,,,,,,,,,,,,
,5f503987fc18901a2c94c407,627c69a2614fb8d1d73d0863,2022-05-11_21h38.43.816,classification_task,2021.2.3,MacIntel,59.84082341,627c6715c52fd12f31907bd0,,,,,,,,,,,,,,,,,,,,,,,a,0,0.8717,"[""0.685"",""0.414"",""0.604"",""0.730""]","[0,1,1,1]",0,41,41,41,1,1,0,,,1,FALSE,,,,,,,,,,,,,,,,,,,,,,,,,,,,,,,
,5f503987fc18901a2c94c407,627c69a2614fb8d1d73d0863,2022-05-11_21h38.43.816,classification_task,2021.2.3,MacIntel,59.84082341,627c6715c52fd12f31907bd0,,,,,,,,,,,,,,,,,,,,,,,l,1,0.3733,"[""0.094"",""0.414"",""0.640"",""0.730""]","[1,1,0,1]",0,42,42,42,1,1,0,,,1,FALSE,,,,,,,,,,,,,,,,,,,,,,,,,,,,,,,
,5f503987fc18901a2c94c407,627c69a2614fb8d1d73d0863,2022-05-11_21h38.43.816,classification_task,2021.2.3,MacIntel,59.84082341,627c6715c52fd12f31907bd0,,,,,,,,,,,,,,,,,,,,,,,l,1,0.9261,"[""0.034"",""0.238"",""0.522"",""0.820""]","[1,1,0,1]",0,43,43,43,1,1,1,,,1,FALSE,,,,,,,,,,,,,,,,,,,,,,,,,,,,,,,
,5f503987fc18901a2c94c407,627c69a2614fb8d1d73d0863,2022-05-11_21h38.43.816,classification_task,2021.2.3,MacIntel,59.84082341,627c6715c52fd12f31907bd0,,,,,,,,,,,,,,,,,,,,,,,a,1,0.5164,"[""0.204"",""0.340"",""0.855"",""0.671""]","[1,1,1,0]",0,44,44,44,1,0,0,,,1,FALSE,,,,,,,,,,,,,,,,,,,,,,,,,,,,,,,
,5f503987fc18901a2c94c407,627c69a2614fb8d1d73d0863,2022-05-11_21h38.43.816,classification_task,2021.2.3,MacIntel,59.84082341,627c6715c52fd12f31907bd0,,,,,,,,,,,,,,,,,,,,,,,l,1,0.3348,"[""0.094"",""0.414"",""0.604"",""0.685""]","[1,1,1,0]",0,45,45,45,1,1,0,,,1,FALSE,,,,,,,,,,,,,,,,,,,,,,,,,,,,,,,
,5f503987fc18901a2c94c407,627c69a2614fb8d1d73d0863,2022-05-11_21h38.43.816,classification_task,2021.2.3,MacIntel,59.84082341,627c6715c52fd12f31907bd0,,,,,,,,,,,,,,,,,,,,,,,a,1,1.2695,"[""0.641"",""0.557"",""0.785"",""0.959""]","[0,1,1,1]",0,46,46,46,1,0,1,,,1,FALSE,,,,,,,,,,,,,,,,,,,,,,,,,,,,,,,
,5f503987fc18901a2c94c407,627c69a2614fb8d1d73d0863,2022-05-11_21h38.43.816,classification_task,2021.2.3,MacIntel,59.84082341,627c6715c52fd12f31907bd0,,,,,,,,,,,,,,,,,,,,,,,a,0,0.9361,"[""0.034"",""0.522"",""0.467"",""0.820""]","[1,0,1,1]",0,47,47,47,1,1,1,,,1,FALSE,,,,,,,,,,,,,,,,,,,,,,,,,,,,,,,
,5f503987fc18901a2c94c407,627c69a2614fb8d1d73d0863,2022-05-11_21h38.43.816,classification_task,2021.2.3,MacIntel,59.84082341,627c6715c52fd12f31907bd0,,,,,,,,,,,,,,,,,,,,,,,a,0,1.2709,"[""0.094"",""0.306"",""0.604"",""0.730""]","[1,0,1,1]",0,48,48,48,1,1,0,,,1,FALSE,,,,,,,,,,,,,,,,,,,,,,,,,,,,,,,
,5f503987fc18901a2c94c407,627c69a2614fb8d1d73d0863,2022-05-11_21h38.43.816,classification_task,2021.2.3,MacIntel,59.84082341,627c6715c52fd12f31907bd0,,,,,,,,,,,,,,,,,,,,,,,l,1,1.1394,"[""0.034"",""0.279"",""0.467"",""0.820""]","[1,0,1,1]",0,49,49,49,1,1,1,,,1,FALSE,,,,,,,,,,,,,,,,,,,,,,,,,,,,,,,
,5f503987fc18901a2c94c407,627c69a2614fb8d1d73d0863,2022-05-11_21h38.43.816,classification_task,2021.2.3,MacIntel,59.84082341,627c6715c52fd12f31907bd0,,,,,,,,,,,,,,,,,,,,,,,a,0,0.6529,"[""0.094"",""0.414"",""0.604"",""0.671""]","[1,1,1,0]",0,50,50,50,1,1,0,,,1,FALSE,,,,,,,,,,,,,,,,,,,,,,,,,,,,,,,
,5f503987fc18901a2c94c407,627c69a2614fb8d1d73d0863,2022-05-11_21h38.43.816,classification_task,2021.2.3,MacIntel,59.84082341,627c6715c52fd12f31907bd0,,,,,,,,,,,,,,,,,,,,,,,a,1,2.159,"[""0.162"",""0.557"",""0.785"",""0.522""]","[1,1,1,0]",0,51,51,51,1,0,1,,,1,FALSE,,,,,,,,,,,,,,,,,,,,,,,,,,,,,,,
,5f503987fc18901a2c94c407,627c69a2614fb8d1d73d0863,2022-05-11_21h38.43.816,classification_task,2021.2.3,MacIntel,59.84082341,627c6715c52fd12f31907bd0,,,,,,,,,,,,,,,,,,,,,,,a,1,1.5416,"[""0.671"",""0.340"",""0.855"",""0.909""]","[0,1,1,1]",0,52,52,52,1,0,0,,,1,FALSE,,,,,,,,,,,,,,,,,,,,,,,,,,,,,,,
,5f503987fc18901a2c94c407,627c69a2614fb8d1d73d0863,2022-05-11_21h38.43.816,classification_task,2021.2.3,MacIntel,59.84082341,627c6715c52fd12f31907bd0,,,,,,,,,,,,,,,,,,,,,,,a,0,1.9878,"[""0.094"",""0.414"",""0.685"",""0.730""]","[1,1,0,1]",0,53,53,53,1,1,0,,,1,FALSE,,,,,,,,,,,,,,,,,,,,,,,,,,,,,,,
,5f503987fc18901a2c94c407,627c69a2614fb8d1d73d0863,2022-05-11_21h38.43.816,classification_task,2021.2.3,MacIntel,59.84082341,627c6715c52fd12f31907bd0,,,,,,,,,,,,,,,,,,,,,,,a,0,2.7267,"[""0.646"",""0.414"",""0.604"",""0.730""]","[0,1,1,1]",0,54,54,54,1,1,0,,,1,FALSE,,,,,,,,,,,,,,,,,,,,,,,,,,,,,,,
,5f503987fc18901a2c94c407,627c69a2614fb8d1d73d0863,2022-05-11_21h38.43.816,classification_task,2021.2.3,MacIntel,59.84082341,627c6715c52fd12f31907bd0,,,,,,,,,,,,,,,,,,,,,,,l,0,0.737,"[""0.204"",""0.279"",""0.855"",""0.909""]","[1,0,1,1]",0,55,55,55,1,0,0,,,1,FALSE,,,,,,,,,,,,,,,,,,,,,,,,,,,,,,,
,5f503987fc18901a2c94c407,627c69a2614fb8d1d73d0863,2022-05-11_21h38.43.816,classification_task,2021.2.3,MacIntel,59.84082341,627c6715c52fd12f31907bd0,,,,,,,,,,,,,,,,,,,,,,,l,1,1.2162,"[""0.034"",""0.238"",""0.467"",""0.516""]","[1,1,1,0]",0,56,56,56,1,1,1,,,1,FALSE,,,,,,,,,,,,,,,,,,,,,,,,,,,,,,,
,5f503987fc18901a2c94c407,627c69a2614fb8d1d73d0863,2022-05-11_21h38.43.816,classification_task,2021.2.3,MacIntel,59.84082341,627c6715c52fd12f31907bd0,,,,,,,,,,,,,,,,,,,,,,,l,0,0.872,"[""0.204"",""0.340"",""0.671"",""0.909""]","[1,1,0,1]",0,57,57,57,1,0,0,,,1,FALSE,,,,,,,,,,,,,,,,,,,,,,,,,,,,,,,
,5f503987fc18901a2c94c407,627c69a2614fb8d1d73d0863,2022-05-11_21h38.43.816,classification_task,2021.2.3,MacIntel,59.84082341,627c6715c52fd12f31907bd0,,,,,,,,,,,,,,,,,,,,,,,a,1,1.4459,"[""0.512"",""0.557"",""0.785"",""0.959""]","[0,1,1,1]",0,58,58,58,1,0,1,,,1,FALSE,,,,,,,,,,,,,,,,,,,,,,,,,,,,,,,
,5f503987fc18901a2c94c407,627c69a2614fb8d1d73d0863,2022-05-11_21h38.43.816,classification_task,2021.2.3,MacIntel,59.84082341,627c6715c52fd12f31907bd0,,,,,,,,,,,,,,,,,,,,,,,a,1,1.1421,"[""0.162"",""0.522"",""0.785"",""0.959""]","[1,0,1,1]",0,59,59,59,1,0,1,,,1,FALSE,,,,,,,,,,,,,,,,,,,,,,,,,,,,,,,
,5f503987fc18901a2c94c407,627c69a2614fb8d1d73d0863,2022-05-11_21h38.43.816,classification_task,2021.2.3,MacIntel,59.84082341,627c6715c52fd12f31907bd0,,,,,,,,,,,,,,,,,,,,,,,l,0,0.8907,"[""0.204"",""0.340"",""0.855"",""0.306""]","[1,1,1,0]",0,60,60,60,1,0,0,,,1,FALSE,,,,,,,,,,,,,,,,,,,,,,,,,,,,,,,
,5f503987fc18901a2c94c407,627c69a2614fb8d1d73d0863,2022-05-11_21h38.43.816,classification_task,2021.2.3,MacIntel,59.84082341,627c6715c52fd12f31907bd0,,,,,,,,,,,,,,,,,,,,,,,l,1,0.771,"[""0.034"",""0.238"",""0.678"",""0.820""]","[1,1,0,1]",0,61,61,61,1,1,1,,,1,FALSE,,,,,,,,,,,,,,,,,,,,,,,,,,,,,,,
,5f503987fc18901a2c94c407,627c69a2614fb8d1d73d0863,2022-05-11_21h38.43.816,classification_task,2021.2.3,MacIntel,59.84082341,627c6715c52fd12f31907bd0,,,,,,,,,,,,,,,,,,,,,,,a,1,2.7934,"[""0.162"",""0.557"",""0.516"",""0.959""]","[1,1,0,1]",0,62,62,62,1,0,1,,,1,FALSE,,,,,,,,,,,,,,,,,,,,,,,,,,,,,,,
,5f503987fc18901a2c94c407,627c69a2614fb8d1d73d0863,2022-05-11_21h38.43.816,classification_task,2021.2.3,MacIntel,59.84082341,627c6715c52fd12f31907bd0,,,,,,,,,,,,,,,,,,,,,,,l,1,1.6878,"[""0.685"",""0.238"",""0.467"",""0.820""]","[0,1,1,1]",0,63,63,63,1,1,1,,,1,FALSE,,,,,,,,,,,,,,,,,,,,,,,,,,,,,,,
,5f503987fc18901a2c94c407,627c69a2614fb8d1d73d0863,2022-05-11_21h38.43.816,classification_task,2021.2.3,MacIntel,59.84082341,627c6715c52fd12f31907bd0,,,,,,,,,,,,,,,,,,,,,,,,,,,,,,,,,,,,,,,0, ,,0,0,152.4947,0,2,2,2,1,2,3,,,,,,,,,,,,,,,,,,
,5f503987fc18901a2c94c407,627c69a2614fb8d1d73d0863,2022-05-11_21h38.43.816,classification_task,2021.2.3,MacIntel,59.84082341,627c6715c52fd12f31907bd0,,,,,,,,,,,,,,,,,,,,,,,,,,,,,,,,,,,,,,,1,  ,,0,2.482753711,156.7962,0,2,2,2,1,2,3,,,,,,,,,,,,,,,,,,
,5f503987fc18901a2c94c407,627c69a2614fb8d1d73d0863,2022-05-11_21h38.43.816,classification_task,2021.2.3,MacIntel,59.84082341,627c6715c52fd12f31907bd0,,,,,,,,,,,,,,,,,,,,,,,,,,,,,,,,,,,,,,,2,  ,,0,1.264031268,158.7302,0,2,2,2,1,2,3,,,,,,,,,,,,,,,,,,
,5f503987fc18901a2c94c407,627c69a2614fb8d1d73d0863,2022-05-11_21h38.43.816,classification_task,2021.2.3,MacIntel,59.84082341,627c6715c52fd12f31907bd0,,,,,,,,,,,,,,,,,,,,,,,,,,,,,,,,,,,,,,,,,,,,,0,2,2,2,1,,3,,,,,,,,,,,,,,,,,,
,5f503987fc18901a2c94c407,627c69a2614fb8d1d73d0863,2022-05-11_21h38.43.816,classification_task,2021.2.3,MacIntel,59.84082341,627c6715c52fd12f31907bd0,,,,,,,,,,,,,,,,,,,,,,,,,,,,,,,,,,,,,,,,,,,,,,,,,,,,,I believe the aid is a competent performer,,0.7,0,5,841.2623,0,0,0,0,1,0,,,,,
,5f503987fc18901a2c94c407,627c69a2614fb8d1d73d0863,2022-05-11_21h38.43.816,classification_task,2021.2.3,MacIntel,59.84082341,627c6715c52fd12f31907bd0,,,,,,,,,,,,,,,,,,,,,,,,,,,,,,,,,,,,,,,,,,,,,,,,,,,,,I trust the aid,,0.7,0,5,842.4068,0,0,0,0,1,0,,,,,
,5f503987fc18901a2c94c407,627c69a2614fb8d1d73d0863,2022-05-11_21h38.43.816,classification_task,2021.2.3,MacIntel,59.84082341,627c6715c52fd12f31907bd0,,,,,,,,,,,,,,,,,,,,,,,,,,,,,,,,,,,,,,,,,,,,,,,,,,,,,I have confidence in the advice given by the aid,,0.7,0,5,843.9137,0,0,0,0,1,0,,,,,
,5f503987fc18901a2c94c407,627c69a2614fb8d1d73d0863,2022-05-11_21h38.43.816,classification_task,2021.2.3,MacIntel,59.84082341,627c6715c52fd12f31907bd0,,,,,,,,,,,,,,,,,,,,,,,,,,,,,,,,,,,,,,,,,,,,,,,,,,,,,I can depend on the aid,,0.7,0,5,844.626,0,0,0,0,1,0,,,,,
,5f503987fc18901a2c94c407,627c69a2614fb8d1d73d0863,2022-05-11_21h38.43.816,classification_task,2021.2.3,MacIntel,59.84082341,627c6715c52fd12f31907bd0,,,,,,,,,,,,,,,,,,,,,,,,,,,,,,,,,,,,,,,,,,,,,,,,,,,,,I can rely on the aid to behave in consistent ways,,0.7,0,5,847.2147,0,0,0,0,1,0,,,,,
,5f503987fc18901a2c94c407,627c69a2614fb8d1d73d0863,2022-05-11_21h38.43.816,classification_task,2021.2.3,MacIntel,59.84082341,627c6715c52fd12f31907bd0,,,,,,,,,,,,,,,,,,,,,,,,,,,,,,,,,,,,,,,,,,,,,,,,,,,,,I can rely on the aid to do its best every time I take its advice,,0.7,0,5,846.1993,0,0,0,0,1,0,,,,,
,5f503987fc18901a2c94c407,627c69a2614fb8d1d73d0863,2022-05-11_21h38.43.816,classification_task,2021.2.3,MacIntel,59.84082341,627c6715c52fd12f31907bd0,,,,,,,,,,,,,,,,,,,,,,,,,,,,,,,,,,,,,,,,,,,,,,,,,,,,,"On trials you completed with assistance from the aid, how frequently did you think the aid was correct?",,0.7,0,100,,0,0,0,0,1,0,,,,,
,5f503987fc18901a2c94c407,627c69a2614fb8d1d73d0863,2022-05-11_21h38.43.816,classification_task,2021.2.3,MacIntel,59.84082341,627c6715c52fd12f31907bd0,,,,,,,,,,,,,,,,,,,,,,,,,,,,,,,,,,,,,,,,,,,,,,,,,,,,,"On trials you completed without the aid, how frequently did you think you were correct?",,0.7,0,100,,0,0,0,0,1,0,,,,,
,5f503987fc18901a2c94c407,627c69a2614fb8d1d73d0863,2022-05-11_21h38.43.816,classification_task,2021.2.3,MacIntel,59.84082341,627c6715c52fd12f31907bd0,,,,,,,,,,,,,,,,,,,,,,,,,,,,,,,,,,,,,,,,,,,,,,,,,,,,,,,,,,,0,0,0,0,1,,,,,,
,5f503987fc18901a2c94c407,627c69a2614fb8d1d73d0863,2022-05-11_21h38.43.816,classification_task,2021.2.3,MacIntel,59.84082341,627c6715c52fd12f31907bd0,,,,,,,,,,,,,,,,,,,,,,,,,,,,,,,,,,,,,,,,,,,,,,,,,,,,,,,,,,,,,,,,,space,8.8347,865.5866,,
,5f503987fc18901a2c94c407,627c69a2614fb8d1d73d0863,2022-05-11_21h38.43.816,classification_task,2021.2.3,MacIntel,59.84082341,627c6715c52fd12f31907bd0,,,,,,,,,,,,,,,,,,,,,,,,,,,,,,,,,,,,,,,,,,,,,,,,,,,,,,,,,,,,,,,,,,,,"Mozilla/5.0 (Macintosh; Intel Mac OS X 10_14_6) AppleWebKit/537.36 (KHTML, like Gecko) Chrome/97.0.4692.99 Safari/537.36",
,5f503987fc18901a2c94c407,627c69a2614fb8d1d73d0863,2022-05-11_21h38.43.816,classification_task,2021.2.3,MacIntel,59.84082341,627c6715c52fd12f31907bd0,,,,,,,,,,,,,,,,,,,,,,,,,,,,,,,,,,,,,,,,,,,,,,,,,,,,,,,,,,,,,,,,,,,,,HIGHLIGHT
