usingWebGL,participant,session,date,expName,psychopyVersion,OS,frameRate,PROLIFIC_PID,STUDY_ID,SESSION_ID,signatures_friend,signatures_foe,band_ranges_top,band_ranges_bottom,formitemText,formtype,formundefined,formitemWidth,formindex,formresponse,formrt,key_resp_2.keys,key_resp_2.rt,tute_resp.keys,tute_resp.rt,tutorial.thisRepN,tutorial.thisTrialN,tutorial.thisN,tutorial.thisIndex,tutorial.ran,key_resp_4.keys,key_resp_4.rt,key_resp.keys,key_resp.corr,lines_presented,is_signal_presented,trials.thisRepN,trials.thisTrialN,trials.thisN,trials.thisIndex,trials.ran,vessel,active_band,lines,is_signal,supported_pos,catch_trial,key_resp.rt,debrief_formindex,debrief_formitemText,debrief_formtype,debrief_formitemWidth,debrief_formresponse,debrief_formrt,phases.thisRepN,phases.thisTrialN,phases.thisN,phases.thisIndex,phases.ran,phases.order,phase,key_resp_3.keys,trustitemText,trusttype,trustitemWidth,trustindex,trustresponse,trustrt,support_status.thisRepN,support_status.thisTrialN,support_status.thisN,support_status.thisIndex,support_status.ran,support_status.order,key_resp_5.keys,key_resp_5.rt,globalClockTime,userAgent
TRUE,5f52942b758cc0573b0eab12,001,2022-04-29_02h10.33.373,classification_task,2021.2.3,Win32,143.8228103,5f52942b758cc0573b0eab12,626b377229c10585ec392f89,626b3aba2f0aeed8afb3ff51,,,,,,,,,,,,,,,,,,,,,,,,,,,,,,,,,,,,,,,,,,,,,,,,,,,,,,,,,,,,,,,,,,,,
,5f52942b758cc0573b0eab12,001,2022-04-29_02h10.33.373,classification_task,2021.2.3,Win32,143.8228103,5f52942b758cc0573b0eab12,626b377229c10585ec392f89,626b3aba2f0aeed8afb3ff51,"[[""0.292"",""0.488"",""0.867"",""0.933""],[""0.200"",""0.534"",""0.679"",""0.967""]]","[[""0.148"",""0.241"",""0.575"",""0.807""],[""0.060"",""0.380"",""0.623"",""0.724""]]","[1,10]","[100,1000]",Video game experience,,,0.7,0,,,,,,,,,,,,,,,,,,,,,,,,,,,,,,,,,,,,,,,,,,,,,,,,,,,,,,,,,,,
,5f52942b758cc0573b0eab12,001,2022-04-29_02h10.33.373,classification_task,2021.2.3,Win32,143.8228103,5f52942b758cc0573b0eab12,626b377229c10585ec392f89,626b3aba2f0aeed8afb3ff51,,,,,Approximately how many hours did you spend playing video games in the last week?,,,0.7,0,12,,,,,,,,,,,,,,,,,,,,,,,,,,,,,,,,,,,,,,,,,,,,,,,,,,,,,,,,,,
,5f52942b758cc0573b0eab12,001,2022-04-29_02h10.33.373,classification_task,2021.2.3,Win32,143.8228103,5f52942b758cc0573b0eab12,626b377229c10585ec392f89,626b3aba2f0aeed8afb3ff51,,,,,"Which game did you play the most this year? (Enter ""None"" if you didn't play any)",,,0.7,0,Apex Legends,,,,,,,,,,,,,,,,,,,,,,,,,,,,,,,,,,,,,,,,,,,,,,,,,,,,,,,,,,
,5f52942b758cc0573b0eab12,001,2022-04-29_02h10.33.373,classification_task,2021.2.3,Win32,143.8228103,5f52942b758cc0573b0eab12,626b377229c10585ec392f89,626b3aba2f0aeed8afb3ff51,,,,,Visual perception,,,0.7,0,,,,,,,,,,,,,,,,,,,,,,,,,,,,,,,,,,,,,,,,,,,,,,,,,,,,,,,,,,,
,5f52942b758cc0573b0eab12,001,2022-04-29_02h10.33.373,classification_task,2021.2.3,Win32,143.8228103,5f52942b758cc0573b0eab12,626b377229c10585ec392f89,626b3aba2f0aeed8afb3ff51,,,,,Do you have any form of color blindness?,,,0.7,0,No,24.569,,,,,,,,,,,,,,,,,,,,,,,,,,,,,,,,,,,,,,,,,,,,,,,,,,,,,,,,,
,5f52942b758cc0573b0eab12,001,2022-04-29_02h10.33.373,classification_task,2021.2.3,Win32,143.8228103,5f52942b758cc0573b0eab12,626b377229c10585ec392f89,626b3aba2f0aeed8afb3ff51,,,,,Do you use software to change the colour temperature of your screen (e.g. f.lux)?,,,0.7,0,No,27.5556,,,,,,,,,,,,,,,,,,,,,,,,,,,,,,,,,,,,,,,,,,,,,,,,,,,,,,,,,
,5f52942b758cc0573b0eab12,001,2022-04-29_02h10.33.373,classification_task,2021.2.3,Win32,143.8228103,5f52942b758cc0573b0eab12,626b377229c10585ec392f89,626b3aba2f0aeed8afb3ff51,,,,,,,,,,,,space,143.0257,space,273.5935,0,0,0,0,1,,,,,,,,,,,,,,,,,,,,,,,,,,,,,,,,,,,,,,,,,,,,,,,,
,5f52942b758cc0573b0eab12,001,2022-04-29_02h10.33.373,classification_task,2021.2.3,Win32,143.8228103,5f52942b758cc0573b0eab12,626b377229c10585ec392f89,626b3aba2f0aeed8afb3ff51,,,,,,,,,,,,,,space,13.1786,1,0,1,0,1,,,,,,,,,,,,,,,,,,,,,,,,,,,,,,,,,,,,,,,,,,,,,,,,
,5f52942b758cc0573b0eab12,001,2022-04-29_02h10.33.373,classification_task,2021.2.3,Win32,143.8228103,5f52942b758cc0573b0eab12,626b377229c10585ec392f89,626b3aba2f0aeed8afb3ff51,,,,,,,,,,,,,,space,28.4624,2,0,2,0,1,,,,,,,,,,,,,,,,,,,,,,,,,,,,,,,,,,,,,,,,,,,,,,,,
,5f52942b758cc0573b0eab12,001,2022-04-29_02h10.33.373,classification_task,2021.2.3,Win32,143.8228103,5f52942b758cc0573b0eab12,626b377229c10585ec392f89,626b3aba2f0aeed8afb3ff51,,,,,,,,,,,,,,space,6.0895,3,0,3,0,1,,,,,,,,,,,,,,,,,,,,,,,,,,,,,,,,,,,,,,,,,,,,,,,,
,5f52942b758cc0573b0eab12,001,2022-04-29_02h10.33.373,classification_task,2021.2.3,Win32,143.8228103,5f52942b758cc0573b0eab12,626b377229c10585ec392f89,626b3aba2f0aeed8afb3ff51,,,,,,,,,,,,,,space,10.7667,4,0,4,0,1,,,,,,,,,,,,,,,,,,,,,,,,,,,,,,,,,,,,,,,,,,,,,,,,
,5f52942b758cc0573b0eab12,001,2022-04-29_02h10.33.373,classification_task,2021.2.3,Win32,143.8228103,5f52942b758cc0573b0eab12,626b377229c10585ec392f89,626b3aba2f0aeed8afb3ff51,,,,,,,,,,,,,,,,,,,,,space,31.6531,,0,"[""0.148"",""0.241"",""0.453"",""0.807""]","[1,1,0,1]",0,0,0,0,1,1,0,,,1,FALSE,,,,,,,,,,,,,,,,,,,,,,,,,,,,,,,
,5f52942b758cc0573b0eab12,001,2022-04-29_02h10.33.373,classification_task,2021.2.3,Win32,143.8228103,5f52942b758cc0573b0eab12,626b377229c10585ec392f89,626b3aba2f0aeed8afb3ff51,,,,,,,,,,,,,,,,,,,,,,,l,0,"[""0.292"",""0.488"",""0.867"",""0.105""]","[1,1,1,0]",0,1,1,1,1,0,0,,,1,FALSE,6.3579,,,,,,,,,,,,,,,,,,,,,,,,,,,,,,
,5f52942b758cc0573b0eab12,001,2022-04-29_02h10.33.373,classification_task,2021.2.3,Win32,143.8228103,5f52942b758cc0573b0eab12,626b377229c10585ec392f89,626b3aba2f0aeed8afb3ff51,,,,,,,,,,,,,,,,,,,,,,,l,1,"[""0.765"",""0.380"",""0.623"",""0.724""]","[0,1,1,1]",0,2,2,2,1,1,1,,,1,FALSE,9.0754,,,,,,,,,,,,,,,,,,,,,,,,,,,,,,
,5f52942b758cc0573b0eab12,001,2022-04-29_02h10.33.373,classification_task,2021.2.3,Win32,143.8228103,5f52942b758cc0573b0eab12,626b377229c10585ec392f89,626b3aba2f0aeed8afb3ff51,,,,,,,,,,,,,,,,,,,,,,,,0,"[""0.200"",""0.534"",""0.329"",""0.967""]","[1,1,0,1]",0,3,3,3,1,0,1,,,1,FALSE,,,,,,,,,,,,,,,,,,,,,,,,,,,,,,,
,5f52942b758cc0573b0eab12,001,2022-04-29_02h10.33.373,classification_task,2021.2.3,Win32,143.8228103,5f52942b758cc0573b0eab12,626b377229c10585ec392f89,626b3aba2f0aeed8afb3ff51,,,,,,,,,,,,,,,,,,,,,,,l,1,"[""0.060"",""0.380"",""0.329"",""0.724""]","[1,1,0,1]",0,4,4,4,1,1,1,,,1,FALSE,6.245,,,,,,,,,,,,,,,,,,,,,,,,,,,,,,
,5f52942b758cc0573b0eab12,001,2022-04-29_02h10.33.373,classification_task,2021.2.3,Win32,143.8228103,5f52942b758cc0573b0eab12,626b377229c10585ec392f89,626b3aba2f0aeed8afb3ff51,,,,,,,,,,,,,,,,,,,,,,,l,1,"[""0.060"",""0.380"",""0.623"",""0.326""]","[1,1,1,0]",0,5,5,5,1,1,1,,,1,FALSE,3.9988,,,,,,,,,,,,,,,,,,,,,,,,,,,,,,
,5f52942b758cc0573b0eab12,001,2022-04-29_02h10.33.373,classification_task,2021.2.3,Win32,143.8228103,5f52942b758cc0573b0eab12,626b377229c10585ec392f89,626b3aba2f0aeed8afb3ff51,,,,,,,,,,,,,,,,,,,,,,,l,1,"[""0.148"",""0.326"",""0.575"",""0.807""]","[1,0,1,1]",0,6,6,6,1,1,0,,,1,FALSE,7.7038,,,,,,,,,,,,,,,,,,,,,,,,,,,,,,
,5f52942b758cc0573b0eab12,001,2022-04-29_02h10.33.373,classification_task,2021.2.3,Win32,143.8228103,5f52942b758cc0573b0eab12,626b377229c10585ec392f89,626b3aba2f0aeed8afb3ff51,,,,,,,,,,,,,,,,,,,,,,,l,0,"[""0.292"",""0.105"",""0.867"",""0.933""]","[1,0,1,1]",0,7,7,7,1,0,0,,,1,FALSE,4.5549,,,,,,,,,,,,,,,,,,,,,,,,,,,,,,
,5f52942b758cc0573b0eab12,001,2022-04-29_02h10.33.373,classification_task,2021.2.3,Win32,143.8228103,5f52942b758cc0573b0eab12,626b377229c10585ec392f89,626b3aba2f0aeed8afb3ff51,,,,,,,,,,,,,,,,,,,,,,,l,1,"[""0.060"",""0.770"",""0.623"",""0.724""]","[1,0,1,1]",0,8,8,8,1,1,1,,,1,FALSE,4.6272,,,,,,,,,,,,,,,,,,,,,,,,,,,,,,
,5f52942b758cc0573b0eab12,001,2022-04-29_02h10.33.373,classification_task,2021.2.3,Win32,143.8228103,5f52942b758cc0573b0eab12,626b377229c10585ec392f89,626b3aba2f0aeed8afb3ff51,,,,,,,,,,,,,,,,,,,,,,,l,0,"[""0.200"",""0.770"",""0.679"",""0.967""]","[1,0,1,1]",0,9,9,9,1,0,1,,,1,FALSE,7.377,,,,,,,,,,,,,,,,,,,,,,,,,,,,,,
,5f52942b758cc0573b0eab12,001,2022-04-29_02h10.33.373,classification_task,2021.2.3,Win32,143.8228103,5f52942b758cc0573b0eab12,626b377229c10585ec392f89,626b3aba2f0aeed8afb3ff51,,,,,,,,,,,,,,,,,,,,,,,l,0,"[""0.292"",""0.488"",""0.027"",""0.933""]","[1,1,0,1]",0,10,10,10,1,0,0,,,1,FALSE,3.4659,,,,,,,,,,,,,,,,,,,,,,,,,,,,,,
,5f52942b758cc0573b0eab12,001,2022-04-29_02h10.33.373,classification_task,2021.2.3,Win32,143.8228103,5f52942b758cc0573b0eab12,626b377229c10585ec392f89,626b3aba2f0aeed8afb3ff51,,,,,,,,,,,,,,,,,,,,,,,,0,"[""0.326"",""0.241"",""0.575"",""0.807""]","[0,1,1,1]",0,11,11,11,1,1,0,,,1,FALSE,,,,,,,,,,,,,,,,,,,,,,,,,,,,,,,
,5f52942b758cc0573b0eab12,001,2022-04-29_02h10.33.373,classification_task,2021.2.3,Win32,143.8228103,5f52942b758cc0573b0eab12,626b377229c10585ec392f89,626b3aba2f0aeed8afb3ff51,,,,,,,,,,,,,,,,,,,,,,,l,1,"[""0.148"",""0.241"",""0.575"",""0.105""]","[1,1,1,0]",0,12,12,12,1,1,0,,,1,FALSE,5.9533,,,,,,,,,,,,,,,,,,,,,,,,,,,,,,
,5f52942b758cc0573b0eab12,001,2022-04-29_02h10.33.373,classification_task,2021.2.3,Win32,143.8228103,5f52942b758cc0573b0eab12,626b377229c10585ec392f89,626b3aba2f0aeed8afb3ff51,,,,,,,,,,,,,,,,,,,,,,,a,1,"[""0.421"",""0.488"",""0.867"",""0.933""]","[0,1,1,1]",0,13,13,13,1,0,0,,,1,FALSE,5.7593,,,,,,,,,,,,,,,,,,,,,,,,,,,,,,
,5f52942b758cc0573b0eab12,001,2022-04-29_02h10.33.373,classification_task,2021.2.3,Win32,143.8228103,5f52942b758cc0573b0eab12,626b377229c10585ec392f89,626b3aba2f0aeed8afb3ff51,,,,,,,,,,,,,,,,,,,,,,,a,1,"[""0.110"",""0.534"",""0.679"",""0.967""]","[0,1,1,1]",0,14,14,14,1,0,1,,,1,FALSE,8.9861,,,,,,,,,,,,,,,,,,,,,,,,,,,,,,
,5f52942b758cc0573b0eab12,001,2022-04-29_02h10.33.373,classification_task,2021.2.3,Win32,143.8228103,5f52942b758cc0573b0eab12,626b377229c10585ec392f89,626b3aba2f0aeed8afb3ff51,,,,,,,,,,,,,,,,,,,,,,,a,1,"[""0.200"",""0.534"",""0.679"",""0.765""]","[1,1,1,0]",0,15,15,15,1,0,1,,,1,FALSE,2.1102,,,,,,,,,,,,,,,,,,,,,,,,,,,,,,
,5f52942b758cc0573b0eab12,001,2022-04-29_02h10.33.373,classification_task,2021.2.3,Win32,143.8228103,5f52942b758cc0573b0eab12,626b377229c10585ec392f89,626b3aba2f0aeed8afb3ff51,,,,,,,,,,,,,,,,,,,,,,,a,0,"[""0.148"",""0.326"",""0.575"",""0.807""]","[1,0,1,1]",0,16,16,16,1,1,0,,,1,FALSE,3.6142,,,,,,,,,,,,,,,,,,,,,,,,,,,,,,
,5f52942b758cc0573b0eab12,001,2022-04-29_02h10.33.373,classification_task,2021.2.3,Win32,143.8228103,5f52942b758cc0573b0eab12,626b377229c10585ec392f89,626b3aba2f0aeed8afb3ff51,,,,,,,,,,,,,,,,,,,,,,,l,0,"[""0.292"",""0.102"",""0.867"",""0.933""]","[1,0,1,1]",0,17,17,17,1,0,0,,,1,FALSE,2.3434,,,,,,,,,,,,,,,,,,,,,,,,,,,,,,
,5f52942b758cc0573b0eab12,001,2022-04-29_02h10.33.373,classification_task,2021.2.3,Win32,143.8228103,5f52942b758cc0573b0eab12,626b377229c10585ec392f89,626b3aba2f0aeed8afb3ff51,,,,,,,,,,,,,,,,,,,,,,,a,1,"[""0.292"",""0.488"",""0.867"",""0.432""]","[1,1,1,0]",0,18,18,18,1,0,0,,,1,FALSE,3.5531,,,,,,,,,,,,,,,,,,,,,,,,,,,,,,
,5f52942b758cc0573b0eab12,001,2022-04-29_02h10.33.373,classification_task,2021.2.3,Win32,143.8228103,5f52942b758cc0573b0eab12,626b377229c10585ec392f89,626b3aba2f0aeed8afb3ff51,,,,,,,,,,,,,,,,,,,,,,,a,1,"[""0.105"",""0.534"",""0.679"",""0.967""]","[0,1,1,1]",0,19,19,19,1,0,1,,,1,FALSE,6.1549,,,,,,,,,,,,,,,,,,,,,,,,,,,,,,
,5f52942b758cc0573b0eab12,001,2022-04-29_02h10.33.373,classification_task,2021.2.3,Win32,143.8228103,5f52942b758cc0573b0eab12,626b377229c10585ec392f89,626b3aba2f0aeed8afb3ff51,,,,,,,,,,,,,,,,,,,,,,,a,1,"[""0.292"",""0.488"",""0.338"",""0.933""]","[1,1,0,1]",0,20,20,20,1,0,0,,,1,FALSE,3.1546,,,,,,,,,,,,,,,,,,,,,,,,,,,,,,
,5f52942b758cc0573b0eab12,001,2022-04-29_02h10.33.373,classification_task,2021.2.3,Win32,143.8228103,5f52942b758cc0573b0eab12,626b377229c10585ec392f89,626b3aba2f0aeed8afb3ff51,,,,,,,,,,,,,,,,,,,,,,,l,1,"[""0.148"",""0.241"",""0.432"",""0.807""]","[1,1,0,1]",0,21,21,21,1,1,0,,,1,FALSE,6.9463,,,,,,,,,,,,,,,,,,,,,,,,,,,,,,
,5f52942b758cc0573b0eab12,001,2022-04-29_02h10.33.373,classification_task,2021.2.3,Win32,143.8228103,5f52942b758cc0573b0eab12,626b377229c10585ec392f89,626b3aba2f0aeed8afb3ff51,,,,,,,,,,,,,,,,,,,,,,,a,1,"[""0.200"",""0.338"",""0.679"",""0.967""]","[1,0,1,1]",0,22,22,22,1,0,1,,,1,FALSE,6.6461,,,,,,,,,,,,,,,,,,,,,,,,,,,,,,
,5f52942b758cc0573b0eab12,001,2022-04-29_02h10.33.373,classification_task,2021.2.3,Win32,143.8228103,5f52942b758cc0573b0eab12,626b377229c10585ec392f89,626b3aba2f0aeed8afb3ff51,,,,,,,,,,,,,,,,,,,,,,,l,1,"[""0.060"",""0.380"",""0.432"",""0.724""]","[1,1,0,1]",0,23,23,23,1,1,1,,,1,FALSE,4.2587,,,,,,,,,,,,,,,,,,,,,,,,,,,,,,
,5f52942b758cc0573b0eab12,001,2022-04-29_02h10.33.373,classification_task,2021.2.3,Win32,143.8228103,5f52942b758cc0573b0eab12,626b377229c10585ec392f89,626b3aba2f0aeed8afb3ff51,,,,,,,,,,,,,,,,,,,,,,,a,1,"[""0.200"",""0.534"",""0.679"",""0.453""]","[1,1,1,0]",0,24,24,24,1,0,1,,,1,FALSE,7.1404,,,,,,,,,,,,,,,,,,,,,,,,,,,,,,
,5f52942b758cc0573b0eab12,001,2022-04-29_02h10.33.373,classification_task,2021.2.3,Win32,143.8228103,5f52942b758cc0573b0eab12,626b377229c10585ec392f89,626b3aba2f0aeed8afb3ff51,,,,,,,,,,,,,,,,,,,,,,,a,1,"[""0.326"",""0.488"",""0.867"",""0.933""]","[0,1,1,1]",0,25,25,25,1,0,0,,,1,FALSE,9.0941,,,,,,,,,,,,,,,,,,,,,,,,,,,,,,
,5f52942b758cc0573b0eab12,001,2022-04-29_02h10.33.373,classification_task,2021.2.3,Win32,143.8228103,5f52942b758cc0573b0eab12,626b377229c10585ec392f89,626b3aba2f0aeed8afb3ff51,,,,,,,,,,,,,,,,,,,,,,,a,0,"[""0.421"",""0.241"",""0.575"",""0.807""]","[0,1,1,1]",0,26,26,26,1,1,0,,,1,FALSE,6.3126,,,,,,,,,,,,,,,,,,,,,,,,,,,,,,
,5f52942b758cc0573b0eab12,001,2022-04-29_02h10.33.373,classification_task,2021.2.3,Win32,143.8228103,5f52942b758cc0573b0eab12,626b377229c10585ec392f89,626b3aba2f0aeed8afb3ff51,,,,,,,,,,,,,,,,,,,,,,,a,0,"[""0.148"",""0.241"",""0.575"",""0.102""]","[1,1,1,0]",0,27,27,27,1,1,0,,,1,FALSE,9.0665,,,,,,,,,,,,,,,,,,,,,,,,,,,,,,
,5f52942b758cc0573b0eab12,001,2022-04-29_02h10.33.373,classification_task,2021.2.3,Win32,143.8228103,5f52942b758cc0573b0eab12,626b377229c10585ec392f89,626b3aba2f0aeed8afb3ff51,,,,,,,,,,,,,,,,,,,,,,,l,1,"[""0.060"",""0.380"",""0.623"",""0.105""]","[1,1,1,0]",0,28,28,28,1,1,1,,,1,FALSE,4.662,,,,,,,,,,,,,,,,,,,,,,,,,,,,,,
,5f52942b758cc0573b0eab12,001,2022-04-29_02h10.33.373,classification_task,2021.2.3,Win32,143.8228103,5f52942b758cc0573b0eab12,626b377229c10585ec392f89,626b3aba2f0aeed8afb3ff51,,,,,,,,,,,,,,,,,,,,,,,l,1,"[""0.060"",""0.329"",""0.623"",""0.724""]","[1,0,1,1]",0,29,29,29,1,1,1,,,1,FALSE,4.7272,,,,,,,,,,,,,,,,,,,,,,,,,,,,,,
,5f52942b758cc0573b0eab12,001,2022-04-29_02h10.33.373,classification_task,2021.2.3,Win32,143.8228103,5f52942b758cc0573b0eab12,626b377229c10585ec392f89,626b3aba2f0aeed8afb3ff51,,,,,,,,,,,,,,,,,,,,,,,l,1,"[""0.110"",""0.380"",""0.623"",""0.724""]","[0,1,1,1]",0,30,30,30,1,1,1,,,1,FALSE,7.1216,,,,,,,,,,,,,,,,,,,,,,,,,,,,,,
,5f52942b758cc0573b0eab12,001,2022-04-29_02h10.33.373,classification_task,2021.2.3,Win32,143.8228103,5f52942b758cc0573b0eab12,626b377229c10585ec392f89,626b3aba2f0aeed8afb3ff51,,,,,,,,,,,,,,,,,,,,,,,a,1,"[""0.200"",""0.534"",""0.421"",""0.967""]","[1,1,0,1]",0,31,31,31,1,0,1,,,1,FALSE,4.1406,,,,,,,,,,,,,,,,,,,,,,,,,,,,,,
,5f52942b758cc0573b0eab12,001,2022-04-29_02h10.33.373,classification_task,2021.2.3,Win32,143.8228103,5f52942b758cc0573b0eab12,626b377229c10585ec392f89,626b3aba2f0aeed8afb3ff51,,,,,,,,,,,,,,,,,,,,,,,a,1,"[""0.329"",""0.488"",""0.867"",""0.933""]","[0,1,1,1]",0,32,32,32,1,0,0,,,1,FALSE,4.3422,,,,,,,,,,,,,,,,,,,,,,,,,,,,,,
,5f52942b758cc0573b0eab12,001,2022-04-29_02h10.33.373,classification_task,2021.2.3,Win32,143.8228103,5f52942b758cc0573b0eab12,626b377229c10585ec392f89,626b3aba2f0aeed8afb3ff51,,,,,,,,,,,,,,,,,,,,,,,a,1,"[""0.292"",""0.765"",""0.867"",""0.933""]","[1,0,1,1]",0,33,33,33,1,0,0,,,1,FALSE,5.9099,,,,,,,,,,,,,,,,,,,,,,,,,,,,,,
,5f52942b758cc0573b0eab12,001,2022-04-29_02h10.33.373,classification_task,2021.2.3,Win32,143.8228103,5f52942b758cc0573b0eab12,626b377229c10585ec392f89,626b3aba2f0aeed8afb3ff51,,,,,,,,,,,,,,,,,,,,,,,l,0,"[""0.200"",""0.534"",""0.110"",""0.967""]","[1,1,0,1]",0,34,34,34,1,0,1,,,1,FALSE,1.7384,,,,,,,,,,,,,,,,,,,,,,,,,,,,,,
,5f52942b758cc0573b0eab12,001,2022-04-29_02h10.33.373,classification_task,2021.2.3,Win32,143.8228103,5f52942b758cc0573b0eab12,626b377229c10585ec392f89,626b3aba2f0aeed8afb3ff51,,,,,,,,,,,,,,,,,,,,,,,a,0,"[""0.060"",""0.380"",""0.623"",""0.768""]","[1,1,1,0]",0,35,35,35,1,1,1,,,1,FALSE,1.029,,,,,,,,,,,,,,,,,,,,,,,,,,,,,,
,5f52942b758cc0573b0eab12,001,2022-04-29_02h10.33.373,classification_task,2021.2.3,Win32,143.8228103,5f52942b758cc0573b0eab12,626b377229c10585ec392f89,626b3aba2f0aeed8afb3ff51,,,,,,,,,,,,,,,,,,,,,,,l,1,"[""0.148"",""0.241"",""0.326"",""0.807""]","[1,1,0,1]",0,36,36,36,1,1,0,,,1,FALSE,2.3937,,,,,,,,,,,,,,,,,,,,,,,,,,,,,,
,5f52942b758cc0573b0eab12,001,2022-04-29_02h10.33.373,classification_task,2021.2.3,Win32,143.8228103,5f52942b758cc0573b0eab12,626b377229c10585ec392f89,626b3aba2f0aeed8afb3ff51,,,,,,,,,,,,,,,,,,,,,,,l,1,"[""0.453"",""0.380"",""0.623"",""0.724""]","[0,1,1,1]",0,37,37,37,1,1,1,,,1,FALSE,1.6632,,,,,,,,,,,,,,,,,,,,,,,,,,,,,,
,5f52942b758cc0573b0eab12,001,2022-04-29_02h10.33.373,classification_task,2021.2.3,Win32,143.8228103,5f52942b758cc0573b0eab12,626b377229c10585ec392f89,626b3aba2f0aeed8afb3ff51,,,,,,,,,,,,,,,,,,,,,,,a,0,"[""0.060"",""0.102"",""0.623"",""0.724""]","[1,0,1,1]",0,38,38,38,1,1,1,,,1,FALSE,0.8567,,,,,,,,,,,,,,,,,,,,,,,,,,,,,,
,5f52942b758cc0573b0eab12,001,2022-04-29_02h10.33.373,classification_task,2021.2.3,Win32,143.8228103,5f52942b758cc0573b0eab12,626b377229c10585ec392f89,626b3aba2f0aeed8afb3ff51,,,,,,,,,,,,,,,,,,,,,,,a,1,"[""0.292"",""0.488"",""0.453"",""0.933""]","[1,1,0,1]",0,39,39,39,1,0,0,,,1,FALSE,3.7468,,,,,,,,,,,,,,,,,,,,,,,,,,,,,,
,5f52942b758cc0573b0eab12,001,2022-04-29_02h10.33.373,classification_task,2021.2.3,Win32,143.8228103,5f52942b758cc0573b0eab12,626b377229c10585ec392f89,626b3aba2f0aeed8afb3ff51,,,,,,,,,,,,,,,,,,,,,,,l,1,"[""0.148"",""0.241"",""0.575"",""0.105""]","[1,1,1,0]",0,40,40,40,1,1,0,,,1,FALSE,1.6757,,,,,,,,,,,,,,,,,,,,,,,,,,,,,,
,5f52942b758cc0573b0eab12,001,2022-04-29_02h10.33.373,classification_task,2021.2.3,Win32,143.8228103,5f52942b758cc0573b0eab12,626b377229c10585ec392f89,626b3aba2f0aeed8afb3ff51,,,,,,,,,,,,,,,,,,,,,,,l,1,"[""0.060"",""0.380"",""0.110"",""0.724""]","[1,1,0,1]",0,41,41,41,1,1,1,,,1,FALSE,0.8172,,,,,,,,,,,,,,,,,,,,,,,,,,,,,,
,5f52942b758cc0573b0eab12,001,2022-04-29_02h10.33.373,classification_task,2021.2.3,Win32,143.8228103,5f52942b758cc0573b0eab12,626b377229c10585ec392f89,626b3aba2f0aeed8afb3ff51,,,,,,,,,,,,,,,,,,,,,,,a,1,"[""0.110"",""0.534"",""0.679"",""0.967""]","[0,1,1,1]",0,42,42,42,1,0,1,,,1,FALSE,1.7459,,,,,,,,,,,,,,,,,,,,,,,,,,,,,,
,5f52942b758cc0573b0eab12,001,2022-04-29_02h10.33.373,classification_task,2021.2.3,Win32,143.8228103,5f52942b758cc0573b0eab12,626b377229c10585ec392f89,626b3aba2f0aeed8afb3ff51,,,,,,,,,,,,,,,,,,,,,,,l,0,"[""0.200"",""0.534"",""0.679"",""0.329""]","[1,1,1,0]",0,43,43,43,1,0,1,,,1,FALSE,2.1796,,,,,,,,,,,,,,,,,,,,,,,,,,,,,,
,5f52942b758cc0573b0eab12,001,2022-04-29_02h10.33.373,classification_task,2021.2.3,Win32,143.8228103,5f52942b758cc0573b0eab12,626b377229c10585ec392f89,626b3aba2f0aeed8afb3ff51,,,,,,,,,,,,,,,,,,,,,,,a,0,"[""0.768"",""0.241"",""0.575"",""0.807""]","[0,1,1,1]",0,44,44,44,1,1,0,,,1,FALSE,1.317,,,,,,,,,,,,,,,,,,,,,,,,,,,,,,
,5f52942b758cc0573b0eab12,001,2022-04-29_02h10.33.373,classification_task,2021.2.3,Win32,143.8228103,5f52942b758cc0573b0eab12,626b377229c10585ec392f89,626b3aba2f0aeed8afb3ff51,,,,,,,,,,,,,,,,,,,,,,,l,0,"[""0.292"",""0.488"",""0.867"",""0.338""]","[1,1,1,0]",0,45,45,45,1,0,0,,,1,FALSE,2.5945,,,,,,,,,,,,,,,,,,,,,,,,,,,,,,
,5f52942b758cc0573b0eab12,001,2022-04-29_02h10.33.373,classification_task,2021.2.3,Win32,143.8228103,5f52942b758cc0573b0eab12,626b377229c10585ec392f89,626b3aba2f0aeed8afb3ff51,,,,,,,,,,,,,,,,,,,,,,,l,1,"[""0.148"",""0.110"",""0.575"",""0.807""]","[1,0,1,1]",0,46,46,46,1,1,0,,,1,FALSE,0.6623,,,,,,,,,,,,,,,,,,,,,,,,,,,,,,
,5f52942b758cc0573b0eab12,001,2022-04-29_02h10.33.373,classification_task,2021.2.3,Win32,143.8228103,5f52942b758cc0573b0eab12,626b377229c10585ec392f89,626b3aba2f0aeed8afb3ff51,,,,,,,,,,,,,,,,,,,,,,,l,0,"[""0.200"",""0.027"",""0.679"",""0.967""]","[1,0,1,1]",0,47,47,47,1,0,1,,,1,FALSE,1.4945,,,,,,,,,,,,,,,,,,,,,,,,,,,,,,
,5f52942b758cc0573b0eab12,001,2022-04-29_02h10.33.373,classification_task,2021.2.3,Win32,143.8228103,5f52942b758cc0573b0eab12,626b377229c10585ec392f89,626b3aba2f0aeed8afb3ff51,,,,,,,,,,,,,,,,,,,,,,,l,1,"[""0.453"",""0.380"",""0.623"",""0.724""]","[0,1,1,1]",0,48,48,48,1,1,1,,,1,FALSE,0.9772,,,,,,,,,,,,,,,,,,,,,,,,,,,,,,
,5f52942b758cc0573b0eab12,001,2022-04-29_02h10.33.373,classification_task,2021.2.3,Win32,143.8228103,5f52942b758cc0573b0eab12,626b377229c10585ec392f89,626b3aba2f0aeed8afb3ff51,,,,,,,,,,,,,,,,,,,,,,,a,1,"[""0.292"",""0.488"",""0.027"",""0.933""]","[1,1,0,1]",0,49,49,49,1,0,0,,,1,FALSE,1.3625,,,,,,,,,,,,,,,,,,,,,,,,,,,,,,
,5f52942b758cc0573b0eab12,001,2022-04-29_02h10.33.373,classification_task,2021.2.3,Win32,143.8228103,5f52942b758cc0573b0eab12,626b377229c10585ec392f89,626b3aba2f0aeed8afb3ff51,,,,,,,,,,,,,,,,,,,,,,,l,1,"[""0.060"",""0.380"",""0.623"",""0.432""]","[1,1,1,0]",0,50,50,50,1,1,1,,,1,FALSE,1.0501,,,,,,,,,,,,,,,,,,,,,,,,,,,,,,
,5f52942b758cc0573b0eab12,001,2022-04-29_02h10.33.373,classification_task,2021.2.3,Win32,143.8228103,5f52942b758cc0573b0eab12,626b377229c10585ec392f89,626b3aba2f0aeed8afb3ff51,,,,,,,,,,,,,,,,,,,,,,,l,1,"[""0.148"",""0.241"",""0.575"",""0.102""]","[1,1,1,0]",0,51,51,51,1,1,0,,,1,FALSE,0.7508,,,,,,,,,,,,,,,,,,,,,,,,,,,,,,
,5f52942b758cc0573b0eab12,001,2022-04-29_02h10.33.373,classification_task,2021.2.3,Win32,143.8228103,5f52942b758cc0573b0eab12,626b377229c10585ec392f89,626b3aba2f0aeed8afb3ff51,,,,,,,,,,,,,,,,,,,,,,,l,1,"[""0.060"",""0.380"",""0.768"",""0.724""]","[1,1,0,1]",0,52,52,52,1,1,1,,,1,FALSE,2.0447,,,,,,,,,,,,,,,,,,,,,,,,,,,,,,
,5f52942b758cc0573b0eab12,001,2022-04-29_02h10.33.373,classification_task,2021.2.3,Win32,143.8228103,5f52942b758cc0573b0eab12,626b377229c10585ec392f89,626b3aba2f0aeed8afb3ff51,,,,,,,,,,,,,,,,,,,,,,,l,1,"[""0.060"",""0.110"",""0.623"",""0.724""]","[1,0,1,1]",0,53,53,53,1,1,1,,,1,FALSE,1.0939,,,,,,,,,,,,,,,,,,,,,,,,,,,,,,
,5f52942b758cc0573b0eab12,001,2022-04-29_02h10.33.373,classification_task,2021.2.3,Win32,143.8228103,5f52942b758cc0573b0eab12,626b377229c10585ec392f89,626b3aba2f0aeed8afb3ff51,,,,,,,,,,,,,,,,,,,,,,,l,0,"[""0.200"",""0.534"",""0.679"",""0.105""]","[1,1,1,0]",0,54,54,54,1,0,1,,,1,FALSE,0.7311,,,,,,,,,,,,,,,,,,,,,,,,,,,,,,
,5f52942b758cc0573b0eab12,001,2022-04-29_02h10.33.373,classification_task,2021.2.3,Win32,143.8228103,5f52942b758cc0573b0eab12,626b377229c10585ec392f89,626b3aba2f0aeed8afb3ff51,,,,,,,,,,,,,,,,,,,,,,,a,1,"[""0.770"",""0.534"",""0.679"",""0.967""]","[0,1,1,1]",0,55,55,55,1,0,1,,,1,FALSE,0.8831,,,,,,,,,,,,,,,,,,,,,,,,,,,,,,
,5f52942b758cc0573b0eab12,001,2022-04-29_02h10.33.373,classification_task,2021.2.3,Win32,143.8228103,5f52942b758cc0573b0eab12,626b377229c10585ec392f89,626b3aba2f0aeed8afb3ff51,,,,,,,,,,,,,,,,,,,,,,,a,1,"[""0.200"",""0.768"",""0.679"",""0.967""]","[1,0,1,1]",0,56,56,56,1,0,1,,,1,FALSE,0.5084,,,,,,,,,,,,,,,,,,,,,,,,,,,,,,
,5f52942b758cc0573b0eab12,001,2022-04-29_02h10.33.373,classification_task,2021.2.3,Win32,143.8228103,5f52942b758cc0573b0eab12,626b377229c10585ec392f89,626b3aba2f0aeed8afb3ff51,,,,,,,,,,,,,,,,,,,,,,,l,0,"[""0.200"",""0.534"",""0.110"",""0.967""]","[1,1,0,1]",0,57,57,57,1,0,1,,,1,FALSE,0.5586,,,,,,,,,,,,,,,,,,,,,,,,,,,,,,
,5f52942b758cc0573b0eab12,001,2022-04-29_02h10.33.373,classification_task,2021.2.3,Win32,143.8228103,5f52942b758cc0573b0eab12,626b377229c10585ec392f89,626b3aba2f0aeed8afb3ff51,,,,,,,,,,,,,,,,,,,,,,,a,1,"[""0.292"",""0.329"",""0.867"",""0.933""]","[1,0,1,1]",0,58,58,58,1,0,0,,,1,FALSE,0.6604,,,,,,,,,,,,,,,,,,,,,,,,,,,,,,
,5f52942b758cc0573b0eab12,001,2022-04-29_02h10.33.373,classification_task,2021.2.3,Win32,143.8228103,5f52942b758cc0573b0eab12,626b377229c10585ec392f89,626b3aba2f0aeed8afb3ff51,,,,,,,,,,,,,,,,,,,,,,,l,1,"[""0.148"",""0.453"",""0.575"",""0.807""]","[1,0,1,1]",0,59,59,59,1,1,0,,,1,FALSE,0.7786,,,,,,,,,,,,,,,,,,,,,,,,,,,,,,
,5f52942b758cc0573b0eab12,001,2022-04-29_02h10.33.373,classification_task,2021.2.3,Win32,143.8228103,5f52942b758cc0573b0eab12,626b377229c10585ec392f89,626b3aba2f0aeed8afb3ff51,,,,,,,,,,,,,,,,,,,,,,,a,0,"[""0.421"",""0.241"",""0.575"",""0.807""]","[0,1,1,1]",0,60,60,60,1,1,0,,,1,FALSE,0.8384,,,,,,,,,,,,,,,,,,,,,,,,,,,,,,
,5f52942b758cc0573b0eab12,001,2022-04-29_02h10.33.373,classification_task,2021.2.3,Win32,143.8228103,5f52942b758cc0573b0eab12,626b377229c10585ec392f89,626b3aba2f0aeed8afb3ff51,,,,,,,,,,,,,,,,,,,,,,,l,1,"[""0.148"",""0.241"",""0.421"",""0.807""]","[1,1,0,1]",0,61,61,61,1,1,0,,,1,FALSE,0.5383,,,,,,,,,,,,,,,,,,,,,,,,,,,,,,
,5f52942b758cc0573b0eab12,001,2022-04-29_02h10.33.373,classification_task,2021.2.3,Win32,143.8228103,5f52942b758cc0573b0eab12,626b377229c10585ec392f89,626b3aba2f0aeed8afb3ff51,,,,,,,,,,,,,,,,,,,,,,,l,0,"[""0.292"",""0.488"",""0.867"",""0.105""]","[1,1,1,0]",0,62,62,62,1,0,0,,,1,FALSE,0.6402,,,,,,,,,,,,,,,,,,,,,,,,,,,,,,
,5f52942b758cc0573b0eab12,001,2022-04-29_02h10.33.373,classification_task,2021.2.3,Win32,143.8228103,5f52942b758cc0573b0eab12,626b377229c10585ec392f89,626b3aba2f0aeed8afb3ff51,,,,,,,,,,,,,,,,,,,,,,,l,0,"[""0.338"",""0.488"",""0.867"",""0.933""]","[0,1,1,1]",0,63,63,63,1,0,0,,,1,FALSE,0.612,,,,,,,,,,,,,,,,,,,,,,,,,,,,,,
,5f52942b758cc0573b0eab12,001,2022-04-29_02h10.33.373,classification_task,2021.2.3,Win32,143.8228103,5f52942b758cc0573b0eab12,626b377229c10585ec392f89,626b3aba2f0aeed8afb3ff51,,,,,,,,,,,,,,,,,,,,,,,,,,,,,,,,,,,,,,,0, ,,0,7.547521066,875.4132,0,0,0,0,1,2,1,,,,,,,,,,,,,,,,,
,5f52942b758cc0573b0eab12,001,2022-04-29_02h10.33.373,classification_task,2021.2.3,Win32,143.8228103,5f52942b758cc0573b0eab12,626b377229c10585ec392f89,626b3aba2f0aeed8afb3ff51,,,,,,,,,,,,,,,,,,,,,,,,,,,,,,,,,,,,,,,1,  ,,0,8.208896727,878.1837,0,0,0,0,1,2,1,,,,,,,,,,,,,,,,,
,5f52942b758cc0573b0eab12,001,2022-04-29_02h10.33.373,classification_task,2021.2.3,Win32,143.8228103,5f52942b758cc0573b0eab12,626b377229c10585ec392f89,626b3aba2f0aeed8afb3ff51,,,,,,,,,,,,,,,,,,,,,,,,,,,,,,,,,,,,,,,2,  ,,0,6.420732902,881.9334,0,0,0,0,1,2,1,,,,,,,,,,,,,,,,,
,5f52942b758cc0573b0eab12,001,2022-04-29_02h10.33.373,classification_task,2021.2.3,Win32,143.8228103,5f52942b758cc0573b0eab12,626b377229c10585ec392f89,626b3aba2f0aeed8afb3ff51,,,,,,,,,,,,,,,,,,,,,,,,,,,,,,,,,,,,,,,,,,,,,0,0,0,0,1,,1,,,,,,,,,,,,,,,,,
,5f52942b758cc0573b0eab12,001,2022-04-29_02h10.33.373,classification_task,2021.2.3,Win32,143.8228103,5f52942b758cc0573b0eab12,626b377229c10585ec392f89,626b3aba2f0aeed8afb3ff51,,,,,,,,,,,,,,,,,,,,,space,38.1339,a,1,"[""0.200"",""0.534"",""0.679"",""0.326""]","[1,1,1,0]",0,0,0,0,1,0,1,,,1,FALSE,5.6684,,,,,,,,,,,,,,,,,,,,,,,,,,,,,,
,5f52942b758cc0573b0eab12,001,2022-04-29_02h10.33.373,classification_task,2021.2.3,Win32,143.8228103,5f52942b758cc0573b0eab12,626b377229c10585ec392f89,626b3aba2f0aeed8afb3ff51,,,,,,,,,,,,,,,,,,,,,,,a,1,"[""0.292"",""0.488"",""0.867"",""0.105""]","[1,1,1,0]",0,1,1,1,1,0,0,,,1,FALSE,1.6857,,,,,,,,,,,,,,,,,,,,,,,,,,,,,,
,5f52942b758cc0573b0eab12,001,2022-04-29_02h10.33.373,classification_task,2021.2.3,Win32,143.8228103,5f52942b758cc0573b0eab12,626b377229c10585ec392f89,626b3aba2f0aeed8afb3ff51,,,,,,,,,,,,,,,,,,,,,,,l,1,"[""0.060"",""0.768"",""0.623"",""0.724""]","[1,0,1,1]",0,2,2,2,1,1,1,,,1,FALSE,1.0306,,,,,,,,,,,,,,,,,,,,,,,,,,,,,,
,5f52942b758cc0573b0eab12,001,2022-04-29_02h10.33.373,classification_task,2021.2.3,Win32,143.8228103,5f52942b758cc0573b0eab12,626b377229c10585ec392f89,626b3aba2f0aeed8afb3ff51,,,,,,,,,,,,,,,,,,,,,,,l,0,"[""0.432"",""0.488"",""0.867"",""0.933""]","[0,1,1,1]",0,3,3,3,1,0,0,,,1,FALSE,0.7138,,,,,,,,,,,,,,,,,,,,,,,,,,,,,,
,5f52942b758cc0573b0eab12,001,2022-04-29_02h10.33.373,classification_task,2021.2.3,Win32,143.8228103,5f52942b758cc0573b0eab12,626b377229c10585ec392f89,626b3aba2f0aeed8afb3ff51,,,,,,,,,,,,,,,,,,,,,,,l,1,"[""0.027"",""0.241"",""0.575"",""0.807""]","[0,1,1,1]",0,4,4,4,1,1,0,,,1,FALSE,1.2877,,,,,,,,,,,,,,,,,,,,,,,,,,,,,,
,5f52942b758cc0573b0eab12,001,2022-04-29_02h10.33.373,classification_task,2021.2.3,Win32,143.8228103,5f52942b758cc0573b0eab12,626b377229c10585ec392f89,626b3aba2f0aeed8afb3ff51,,,,,,,,,,,,,,,,,,,,,,,a,1,"[""0.292"",""0.488"",""0.027"",""0.933""]","[1,1,0,1]",0,5,5,5,1,0,0,,,1,FALSE,0.9537,,,,,,,,,,,,,,,,,,,,,,,,,,,,,,
,5f52942b758cc0573b0eab12,001,2022-04-29_02h10.33.373,classification_task,2021.2.3,Win32,143.8228103,5f52942b758cc0573b0eab12,626b377229c10585ec392f89,626b3aba2f0aeed8afb3ff51,,,,,,,,,,,,,,,,,,,,,,,a,1,"[""0.200"",""0.534"",""0.102"",""0.967""]","[1,1,0,1]",0,6,6,6,1,0,1,,,1,FALSE,0.8874,,,,,,,,,,,,,,,,,,,,,,,,,,,,,,
,5f52942b758cc0573b0eab12,001,2022-04-29_02h10.33.373,classification_task,2021.2.3,Win32,143.8228103,5f52942b758cc0573b0eab12,626b377229c10585ec392f89,626b3aba2f0aeed8afb3ff51,,,,,,,,,,,,,,,,,,,,,,,l,1,"[""0.148"",""0.241"",""0.110"",""0.807""]","[1,1,0,1]",0,7,7,7,1,1,0,,,1,FALSE,0.839,,,,,,,,,,,,,,,,,,,,,,,,,,,,,,
,5f52942b758cc0573b0eab12,001,2022-04-29_02h10.33.373,classification_task,2021.2.3,Win32,143.8228103,5f52942b758cc0573b0eab12,626b377229c10585ec392f89,626b3aba2f0aeed8afb3ff51,,,,,,,,,,,,,,,,,,,,,,,a,1,"[""0.292"",""0.444"",""0.867"",""0.933""]","[1,0,1,1]",0,8,8,8,1,0,0,,,1,FALSE,0.6187,,,,,,,,,,,,,,,,,,,,,,,,,,,,,,
,5f52942b758cc0573b0eab12,001,2022-04-29_02h10.33.373,classification_task,2021.2.3,Win32,143.8228103,5f52942b758cc0573b0eab12,626b377229c10585ec392f89,626b3aba2f0aeed8afb3ff51,,,,,,,,,,,,,,,,,,,,,,,l,1,"[""0.060"",""0.380"",""0.102"",""0.724""]","[1,1,0,1]",0,9,9,9,1,1,1,,,1,FALSE,0.7303,,,,,,,,,,,,,,,,,,,,,,,,,,,,,,
,5f52942b758cc0573b0eab12,001,2022-04-29_02h10.33.373,classification_task,2021.2.3,Win32,143.8228103,5f52942b758cc0573b0eab12,626b377229c10585ec392f89,626b3aba2f0aeed8afb3ff51,,,,,,,,,,,,,,,,,,,,,,,l,1,"[""0.060"",""0.380"",""0.623"",""0.105""]","[1,1,1,0]",0,10,10,10,1,1,1,,,1,FALSE,0.6881,,,,,,,,,,,,,,,,,,,,,,,,,,,,,,
,5f52942b758cc0573b0eab12,001,2022-04-29_02h10.33.373,classification_task,2021.2.3,Win32,143.8228103,5f52942b758cc0573b0eab12,626b377229c10585ec392f89,626b3aba2f0aeed8afb3ff51,,,,,,,,,,,,,,,,,,,,,,,a,0,"[""0.148"",""0.453"",""0.575"",""0.807""]","[1,0,1,1]",0,11,11,11,1,1,0,,,1,FALSE,1.2078,,,,,,,,,,,,,,,,,,,,,,,,,,,,,,
,5f52942b758cc0573b0eab12,001,2022-04-29_02h10.33.373,classification_task,2021.2.3,Win32,143.8228103,5f52942b758cc0573b0eab12,626b377229c10585ec392f89,626b3aba2f0aeed8afb3ff51,,,,,,,,,,,,,,,,,,,,,,,l,1,"[""0.329"",""0.380"",""0.623"",""0.724""]","[0,1,1,1]",0,12,12,12,1,1,1,,,1,FALSE,0.8614,,,,,,,,,,,,,,,,,,,,,,,,,,,,,,
,5f52942b758cc0573b0eab12,001,2022-04-29_02h10.33.373,classification_task,2021.2.3,Win32,143.8228103,5f52942b758cc0573b0eab12,626b377229c10585ec392f89,626b3aba2f0aeed8afb3ff51,,,,,,,,,,,,,,,,,,,,,,,a,1,"[""0.200"",""0.338"",""0.679"",""0.967""]","[1,0,1,1]",0,13,13,13,1,0,1,,,1,FALSE,0.3334,,,,,,,,,,,,,,,,,,,,,,,,,,,,,,
,5f52942b758cc0573b0eab12,001,2022-04-29_02h10.33.373,classification_task,2021.2.3,Win32,143.8228103,5f52942b758cc0573b0eab12,626b377229c10585ec392f89,626b3aba2f0aeed8afb3ff51,,,,,,,,,,,,,,,,,,,,,,,a,1,"[""0.453"",""0.534"",""0.679"",""0.967""]","[0,1,1,1]",0,14,14,14,1,0,1,,,1,FALSE,0.3681,,,,,,,,,,,,,,,,,,,,,,,,,,,,,,
,5f52942b758cc0573b0eab12,001,2022-04-29_02h10.33.373,classification_task,2021.2.3,Win32,143.8228103,5f52942b758cc0573b0eab12,626b377229c10585ec392f89,626b3aba2f0aeed8afb3ff51,,,,,,,,,,,,,,,,,,,,,,,l,1,"[""0.148"",""0.241"",""0.575"",""0.329""]","[1,1,1,0]",0,15,15,15,1,1,0,,,1,FALSE,1.0052,,,,,,,,,,,,,,,,,,,,,,,,,,,,,,
,5f52942b758cc0573b0eab12,001,2022-04-29_02h10.33.373,classification_task,2021.2.3,Win32,143.8228103,5f52942b758cc0573b0eab12,626b377229c10585ec392f89,626b3aba2f0aeed8afb3ff51,,,,,,,,,,,,,,,,,,,,,,,l,1,"[""0.148"",""0.241"",""0.102"",""0.807""]","[1,1,0,1]",0,16,16,16,1,1,0,,,1,FALSE,0.5454,,,,,,,,,,,,,,,,,,,,,,,,,,,,,,
,5f52942b758cc0573b0eab12,001,2022-04-29_02h10.33.373,classification_task,2021.2.3,Win32,143.8228103,5f52942b758cc0573b0eab12,626b377229c10585ec392f89,626b3aba2f0aeed8afb3ff51,,,,,,,,,,,,,,,,,,,,,,,a,1,"[""0.421"",""0.488"",""0.867"",""0.933""]","[0,1,1,1]",0,17,17,17,1,0,0,,,1,FALSE,0.6608,,,,,,,,,,,,,,,,,,,,,,,,,,,,,,
,5f52942b758cc0573b0eab12,001,2022-04-29_02h10.33.373,classification_task,2021.2.3,Win32,143.8228103,5f52942b758cc0573b0eab12,626b377229c10585ec392f89,626b3aba2f0aeed8afb3ff51,,,,,,,,,,,,,,,,,,,,,,,a,0,"[""0.148"",""0.453"",""0.575"",""0.807""]","[1,0,1,1]",0,18,18,18,1,1,0,,,1,FALSE,0.6463,,,,,,,,,,,,,,,,,,,,,,,,,,,,,,
,5f52942b758cc0573b0eab12,001,2022-04-29_02h10.33.373,classification_task,2021.2.3,Win32,143.8228103,5f52942b758cc0573b0eab12,626b377229c10585ec392f89,626b3aba2f0aeed8afb3ff51,,,,,,,,,,,,,,,,,,,,,,,l,1,"[""0.148"",""0.241"",""0.575"",""0.432""]","[1,1,1,0]",0,19,19,19,1,1,0,,,1,FALSE,3.3689,,,,,,,,,,,,,,,,,,,,,,,,,,,,,,
,5f52942b758cc0573b0eab12,001,2022-04-29_02h10.33.373,classification_task,2021.2.3,Win32,143.8228103,5f52942b758cc0573b0eab12,626b377229c10585ec392f89,626b3aba2f0aeed8afb3ff51,,,,,,,,,,,,,,,,,,,,,,,l,1,"[""0.060"",""0.444"",""0.623"",""0.724""]","[1,0,1,1]",0,20,20,20,1,1,1,,,1,FALSE,0.8253,,,,,,,,,,,,,,,,,,,,,,,,,,,,,,
,5f52942b758cc0573b0eab12,001,2022-04-29_02h10.33.373,classification_task,2021.2.3,Win32,143.8228103,5f52942b758cc0573b0eab12,626b377229c10585ec392f89,626b3aba2f0aeed8afb3ff51,,,,,,,,,,,,,,,,,,,,,,,a,1,"[""0.292"",""0.338"",""0.867"",""0.933""]","[1,0,1,1]",0,21,21,21,1,0,0,,,1,FALSE,0.8455,,,,,,,,,,,,,,,,,,,,,,,,,,,,,,
,5f52942b758cc0573b0eab12,001,2022-04-29_02h10.33.373,classification_task,2021.2.3,Win32,143.8228103,5f52942b758cc0573b0eab12,626b377229c10585ec392f89,626b3aba2f0aeed8afb3ff51,,,,,,,,,,,,,,,,,,,,,,,a,1,"[""0.292"",""0.488"",""0.453"",""0.933""]","[1,1,0,1]",0,22,22,22,1,0,0,,,1,FALSE,0.8547,,,,,,,,,,,,,,,,,,,,,,,,,,,,,,
,5f52942b758cc0573b0eab12,001,2022-04-29_02h10.33.373,classification_task,2021.2.3,Win32,143.8228103,5f52942b758cc0573b0eab12,626b377229c10585ec392f89,626b3aba2f0aeed8afb3ff51,,,,,,,,,,,,,,,,,,,,,,,l,0,"[""0.200"",""0.768"",""0.679"",""0.967""]","[1,0,1,1]",0,23,23,23,1,0,1,,,1,FALSE,0.594,,,,,,,,,,,,,,,,,,,,,,,,,,,,,,
,5f52942b758cc0573b0eab12,001,2022-04-29_02h10.33.373,classification_task,2021.2.3,Win32,143.8228103,5f52942b758cc0573b0eab12,626b377229c10585ec392f89,626b3aba2f0aeed8afb3ff51,,,,,,,,,,,,,,,,,,,,,,,a,0,"[""0.770"",""0.241"",""0.575"",""0.807""]","[0,1,1,1]",0,24,24,24,1,1,0,,,1,FALSE,0.7023,,,,,,,,,,,,,,,,,,,,,,,,,,,,,,
,5f52942b758cc0573b0eab12,001,2022-04-29_02h10.33.373,classification_task,2021.2.3,Win32,143.8228103,5f52942b758cc0573b0eab12,626b377229c10585ec392f89,626b3aba2f0aeed8afb3ff51,,,,,,,,,,,,,,,,,,,,,,,a,1,"[""0.200"",""0.534"",""0.679"",""0.338""]","[1,1,1,0]",0,25,25,25,1,0,1,,,1,FALSE,0.7902,,,,,,,,,,,,,,,,,,,,,,,,,,,,,,
,5f52942b758cc0573b0eab12,001,2022-04-29_02h10.33.373,classification_task,2021.2.3,Win32,143.8228103,5f52942b758cc0573b0eab12,626b377229c10585ec392f89,626b3aba2f0aeed8afb3ff51,,,,,,,,,,,,,,,,,,,,,,,a,1,"[""0.200"",""0.534"",""0.027"",""0.967""]","[1,1,0,1]",0,26,26,26,1,0,1,,,1,FALSE,0.5485,,,,,,,,,,,,,,,,,,,,,,,,,,,,,,
,5f52942b758cc0573b0eab12,001,2022-04-29_02h10.33.373,classification_task,2021.2.3,Win32,143.8228103,5f52942b758cc0573b0eab12,626b377229c10585ec392f89,626b3aba2f0aeed8afb3ff51,,,,,,,,,,,,,,,,,,,,,,,l,1,"[""0.105"",""0.380"",""0.623"",""0.724""]","[0,1,1,1]",0,27,27,27,1,1,1,,,1,FALSE,0.4892,,,,,,,,,,,,,,,,,,,,,,,,,,,,,,
,5f52942b758cc0573b0eab12,001,2022-04-29_02h10.33.373,classification_task,2021.2.3,Win32,143.8228103,5f52942b758cc0573b0eab12,626b377229c10585ec392f89,626b3aba2f0aeed8afb3ff51,,,,,,,,,,,,,,,,,,,,,,,l,1,"[""0.060"",""0.380"",""0.326"",""0.724""]","[1,1,0,1]",0,28,28,28,1,1,1,,,1,FALSE,0.4883,,,,,,,,,,,,,,,,,,,,,,,,,,,,,,
,5f52942b758cc0573b0eab12,001,2022-04-29_02h10.33.373,classification_task,2021.2.3,Win32,143.8228103,5f52942b758cc0573b0eab12,626b377229c10585ec392f89,626b3aba2f0aeed8afb3ff51,,,,,,,,,,,,,,,,,,,,,,,l,0,"[""0.292"",""0.488"",""0.867"",""0.110""]","[1,1,1,0]",0,29,29,29,1,0,0,,,1,FALSE,1.4261,,,,,,,,,,,,,,,,,,,,,,,,,,,,,,
,5f52942b758cc0573b0eab12,001,2022-04-29_02h10.33.373,classification_task,2021.2.3,Win32,143.8228103,5f52942b758cc0573b0eab12,626b377229c10585ec392f89,626b3aba2f0aeed8afb3ff51,,,,,,,,,,,,,,,,,,,,,,,a,1,"[""0.102"",""0.534"",""0.679"",""0.967""]","[0,1,1,1]",0,30,30,30,1,0,1,,,1,FALSE,0.681,,,,,,,,,,,,,,,,,,,,,,,,,,,,,,
,5f52942b758cc0573b0eab12,001,2022-04-29_02h10.33.373,classification_task,2021.2.3,Win32,143.8228103,5f52942b758cc0573b0eab12,626b377229c10585ec392f89,626b3aba2f0aeed8afb3ff51,,,,,,,,,,,,,,,,,,,,,,,l,1,"[""0.060"",""0.380"",""0.623"",""0.770""]","[1,1,1,0]",0,31,31,31,1,1,1,,,1,FALSE,3.2527,,,,,,,,,,,,,,,,,,,,,,,,,,,,,,
,5f52942b758cc0573b0eab12,001,2022-04-29_02h10.33.373,classification_task,2021.2.3,Win32,143.8228103,5f52942b758cc0573b0eab12,626b377229c10585ec392f89,626b3aba2f0aeed8afb3ff51,,,,,,,,,,,,,,,,,,,,,,,a,1,"[""0.200"",""0.432"",""0.679"",""0.967""]","[1,0,1,1]",0,32,32,32,1,0,1,,,1,FALSE,1.4328,,,,,,,,,,,,,,,,,,,,,,,,,,,,,,
,5f52942b758cc0573b0eab12,001,2022-04-29_02h10.33.373,classification_task,2021.2.3,Win32,143.8228103,5f52942b758cc0573b0eab12,626b377229c10585ec392f89,626b3aba2f0aeed8afb3ff51,,,,,,,,,,,,,,,,,,,,,,,a,1,"[""0.292"",""0.488"",""0.867"",""0.770""]","[1,1,1,0]",0,33,33,33,1,0,0,,,1,FALSE,0.9464,,,,,,,,,,,,,,,,,,,,,,,,,,,,,,
,5f52942b758cc0573b0eab12,001,2022-04-29_02h10.33.373,classification_task,2021.2.3,Win32,143.8228103,5f52942b758cc0573b0eab12,626b377229c10585ec392f89,626b3aba2f0aeed8afb3ff51,,,,,,,,,,,,,,,,,,,,,,,a,1,"[""0.453"",""0.534"",""0.679"",""0.967""]","[0,1,1,1]",0,34,34,34,1,0,1,,,1,FALSE,0.7846,,,,,,,,,,,,,,,,,,,,,,,,,,,,,,
,5f52942b758cc0573b0eab12,001,2022-04-29_02h10.33.373,classification_task,2021.2.3,Win32,143.8228103,5f52942b758cc0573b0eab12,626b377229c10585ec392f89,626b3aba2f0aeed8afb3ff51,,,,,,,,,,,,,,,,,,,,,,,a,1,"[""0.200"",""0.534"",""0.679"",""0.110""]","[1,1,1,0]",0,35,35,35,1,0,1,,,1,FALSE,0.5763,,,,,,,,,,,,,,,,,,,,,,,,,,,,,,
,5f52942b758cc0573b0eab12,001,2022-04-29_02h10.33.373,classification_task,2021.2.3,Win32,143.8228103,5f52942b758cc0573b0eab12,626b377229c10585ec392f89,626b3aba2f0aeed8afb3ff51,,,,,,,,,,,,,,,,,,,,,,,a,0,"[""0.329"",""0.241"",""0.575"",""0.807""]","[0,1,1,1]",0,36,36,36,1,1,0,,,1,FALSE,1.0537,,,,,,,,,,,,,,,,,,,,,,,,,,,,,,
,5f52942b758cc0573b0eab12,001,2022-04-29_02h10.33.373,classification_task,2021.2.3,Win32,143.8228103,5f52942b758cc0573b0eab12,626b377229c10585ec392f89,626b3aba2f0aeed8afb3ff51,,,,,,,,,,,,,,,,,,,,,,,l,1,"[""0.060"",""0.380"",""0.623"",""0.453""]","[1,1,1,0]",0,37,37,37,1,1,1,,,1,FALSE,0.6756,,,,,,,,,,,,,,,,,,,,,,,,,,,,,,
,5f52942b758cc0573b0eab12,001,2022-04-29_02h10.33.373,classification_task,2021.2.3,Win32,143.8228103,5f52942b758cc0573b0eab12,626b377229c10585ec392f89,626b3aba2f0aeed8afb3ff51,,,,,,,,,,,,,,,,,,,,,,,l,1,"[""0.453"",""0.380"",""0.623"",""0.724""]","[0,1,1,1]",0,38,38,38,1,1,1,,,1,FALSE,0.6532,,,,,,,,,,,,,,,,,,,,,,,,,,,,,,
,5f52942b758cc0573b0eab12,001,2022-04-29_02h10.33.373,classification_task,2021.2.3,Win32,143.8228103,5f52942b758cc0573b0eab12,626b377229c10585ec392f89,626b3aba2f0aeed8afb3ff51,,,,,,,,,,,,,,,,,,,,,,,l,0,"[""0.292"",""0.488"",""0.110"",""0.933""]","[1,1,0,1]",0,39,39,39,1,0,0,,,1,FALSE,0.8959,,,,,,,,,,,,,,,,,,,,,,,,,,,,,,
,5f52942b758cc0573b0eab12,001,2022-04-29_02h10.33.373,classification_task,2021.2.3,Win32,143.8228103,5f52942b758cc0573b0eab12,626b377229c10585ec392f89,626b3aba2f0aeed8afb3ff51,,,,,,,,,,,,,,,,,,,,,,,l,1,"[""0.148"",""0.241"",""0.575"",""0.453""]","[1,1,1,0]",0,40,40,40,1,1,0,,,1,FALSE,0.8703,,,,,,,,,,,,,,,,,,,,,,,,,,,,,,
,5f52942b758cc0573b0eab12,001,2022-04-29_02h10.33.373,classification_task,2021.2.3,Win32,143.8228103,5f52942b758cc0573b0eab12,626b377229c10585ec392f89,626b3aba2f0aeed8afb3ff51,,,,,,,,,,,,,,,,,,,,,,,a,1,"[""0.105"",""0.488"",""0.867"",""0.933""]","[0,1,1,1]",0,41,41,41,1,0,0,,,1,FALSE,0.7367,,,,,,,,,,,,,,,,,,,,,,,,,,,,,,
,5f52942b758cc0573b0eab12,001,2022-04-29_02h10.33.373,classification_task,2021.2.3,Win32,143.8228103,5f52942b758cc0573b0eab12,626b377229c10585ec392f89,626b3aba2f0aeed8afb3ff51,,,,,,,,,,,,,,,,,,,,,,,a,1,"[""0.292"",""0.027"",""0.867"",""0.933""]","[1,0,1,1]",0,42,42,42,1,0,0,,,1,FALSE,1.2729,,,,,,,,,,,,,,,,,,,,,,,,,,,,,,
,5f52942b758cc0573b0eab12,001,2022-04-29_02h10.33.373,classification_task,2021.2.3,Win32,143.8228103,5f52942b758cc0573b0eab12,626b377229c10585ec392f89,626b3aba2f0aeed8afb3ff51,,,,,,,,,,,,,,,,,,,,,,,l,1,"[""0.060"",""0.380"",""0.768"",""0.724""]","[1,1,0,1]",0,43,43,43,1,1,1,,,1,FALSE,0.8525,,,,,,,,,,,,,,,,,,,,,,,,,,,,,,
,5f52942b758cc0573b0eab12,001,2022-04-29_02h10.33.373,classification_task,2021.2.3,Win32,143.8228103,5f52942b758cc0573b0eab12,626b377229c10585ec392f89,626b3aba2f0aeed8afb3ff51,,,,,,,,,,,,,,,,,,,,,,,a,0,"[""0.148"",""0.241"",""0.770"",""0.807""]","[1,1,0,1]",0,44,44,44,1,1,0,,,1,FALSE,1.3563,,,,,,,,,,,,,,,,,,,,,,,,,,,,,,
,5f52942b758cc0573b0eab12,001,2022-04-29_02h10.33.373,classification_task,2021.2.3,Win32,143.8228103,5f52942b758cc0573b0eab12,626b377229c10585ec392f89,626b3aba2f0aeed8afb3ff51,,,,,,,,,,,,,,,,,,,,,,,a,1,"[""0.200"",""0.534"",""0.453"",""0.967""]","[1,1,0,1]",0,45,45,45,1,0,1,,,1,FALSE,0.7631,,,,,,,,,,,,,,,,,,,,,,,,,,,,,,
,5f52942b758cc0573b0eab12,001,2022-04-29_02h10.33.373,classification_task,2021.2.3,Win32,143.8228103,5f52942b758cc0573b0eab12,626b377229c10585ec392f89,626b3aba2f0aeed8afb3ff51,,,,,,,,,,,,,,,,,,,,,,,l,1,"[""0.060"",""0.444"",""0.623"",""0.724""]","[1,0,1,1]",0,46,46,46,1,1,1,,,1,FALSE,0.714,,,,,,,,,,,,,,,,,,,,,,,,,,,,,,
,5f52942b758cc0573b0eab12,001,2022-04-29_02h10.33.373,classification_task,2021.2.3,Win32,143.8228103,5f52942b758cc0573b0eab12,626b377229c10585ec392f89,626b3aba2f0aeed8afb3ff51,,,,,,,,,,,,,,,,,,,,,,,a,0,"[""0.148"",""0.444"",""0.575"",""0.807""]","[1,0,1,1]",0,47,47,47,1,1,0,,,1,FALSE,0.7687,,,,,,,,,,,,,,,,,,,,,,,,,,,,,,
,5f52942b758cc0573b0eab12,001,2022-04-29_02h10.33.373,classification_task,2021.2.3,Win32,143.8228103,5f52942b758cc0573b0eab12,626b377229c10585ec392f89,626b3aba2f0aeed8afb3ff51,,,,,,,,,,,,,,,,,,,,,,,l,0,"[""0.292"",""0.488"",""0.867"",""0.338""]","[1,1,1,0]",0,48,48,48,1,0,0,,,1,FALSE,0.7183,,,,,,,,,,,,,,,,,,,,,,,,,,,,,,
,5f52942b758cc0573b0eab12,001,2022-04-29_02h10.33.373,classification_task,2021.2.3,Win32,143.8228103,5f52942b758cc0573b0eab12,626b377229c10585ec392f89,626b3aba2f0aeed8afb3ff51,,,,,,,,,,,,,,,,,,,,,,,a,1,"[""0.421"",""0.534"",""0.679"",""0.967""]","[0,1,1,1]",0,49,49,49,1,0,1,,,1,FALSE,0.7833,,,,,,,,,,,,,,,,,,,,,,,,,,,,,,
,5f52942b758cc0573b0eab12,001,2022-04-29_02h10.33.373,classification_task,2021.2.3,Win32,143.8228103,5f52942b758cc0573b0eab12,626b377229c10585ec392f89,626b3aba2f0aeed8afb3ff51,,,,,,,,,,,,,,,,,,,,,,,l,1,"[""0.148"",""0.241"",""0.575"",""0.102""]","[1,1,1,0]",0,50,50,50,1,1,0,,,1,FALSE,0.8751,,,,,,,,,,,,,,,,,,,,,,,,,,,,,,
,5f52942b758cc0573b0eab12,001,2022-04-29_02h10.33.373,classification_task,2021.2.3,Win32,143.8228103,5f52942b758cc0573b0eab12,626b377229c10585ec392f89,626b3aba2f0aeed8afb3ff51,,,,,,,,,,,,,,,,,,,,,,,a,1,"[""0.200"",""0.534"",""0.027"",""0.967""]","[1,1,0,1]",0,51,51,51,1,0,1,,,1,FALSE,0.7553,,,,,,,,,,,,,,,,,,,,,,,,,,,,,,
,5f52942b758cc0573b0eab12,001,2022-04-29_02h10.33.373,classification_task,2021.2.3,Win32,143.8228103,5f52942b758cc0573b0eab12,626b377229c10585ec392f89,626b3aba2f0aeed8afb3ff51,,,,,,,,,,,,,,,,,,,,,,,l,1,"[""0.060"",""0.380"",""0.623"",""0.102""]","[1,1,1,0]",0,52,52,52,1,1,1,,,1,FALSE,0.7768,,,,,,,,,,,,,,,,,,,,,,,,,,,,,,
,5f52942b758cc0573b0eab12,001,2022-04-29_02h10.33.373,classification_task,2021.2.3,Win32,143.8228103,5f52942b758cc0573b0eab12,626b377229c10585ec392f89,626b3aba2f0aeed8afb3ff51,,,,,,,,,,,,,,,,,,,,,,,a,1,"[""0.292"",""0.105"",""0.867"",""0.933""]","[1,0,1,1]",0,53,53,53,1,0,0,,,1,FALSE,0.6256,,,,,,,,,,,,,,,,,,,,,,,,,,,,,,
,5f52942b758cc0573b0eab12,001,2022-04-29_02h10.33.373,classification_task,2021.2.3,Win32,143.8228103,5f52942b758cc0573b0eab12,626b377229c10585ec392f89,626b3aba2f0aeed8afb3ff51,,,,,,,,,,,,,,,,,,,,,,,l,1,"[""0.421"",""0.380"",""0.623"",""0.724""]","[0,1,1,1]",0,54,54,54,1,1,1,,,1,FALSE,0.9326,,,,,,,,,,,,,,,,,,,,,,,,,,,,,,
,5f52942b758cc0573b0eab12,001,2022-04-29_02h10.33.373,classification_task,2021.2.3,Win32,143.8228103,5f52942b758cc0573b0eab12,626b377229c10585ec392f89,626b3aba2f0aeed8afb3ff51,,,,,,,,,,,,,,,,,,,,,,,a,1,"[""0.444"",""0.488"",""0.867"",""0.933""]","[0,1,1,1]",0,55,55,55,1,0,0,,,1,FALSE,0.7373,,,,,,,,,,,,,,,,,,,,,,,,,,,,,,
,5f52942b758cc0573b0eab12,001,2022-04-29_02h10.33.373,classification_task,2021.2.3,Win32,143.8228103,5f52942b758cc0573b0eab12,626b377229c10585ec392f89,626b3aba2f0aeed8afb3ff51,,,,,,,,,,,,,,,,,,,,,,,a,1,"[""0.200"",""0.534"",""0.679"",""0.105""]","[1,1,1,0]",0,56,56,56,1,0,1,,,1,FALSE,0.6798,,,,,,,,,,,,,,,,,,,,,,,,,,,,,,
,5f52942b758cc0573b0eab12,001,2022-04-29_02h10.33.373,classification_task,2021.2.3,Win32,143.8228103,5f52942b758cc0573b0eab12,626b377229c10585ec392f89,626b3aba2f0aeed8afb3ff51,,,,,,,,,,,,,,,,,,,,,,,l,1,"[""0.060"",""0.380"",""0.105"",""0.724""]","[1,1,0,1]",0,57,57,57,1,1,1,,,1,FALSE,0.4936,,,,,,,,,,,,,,,,,,,,,,,,,,,,,,
,5f52942b758cc0573b0eab12,001,2022-04-29_02h10.33.373,classification_task,2021.2.3,Win32,143.8228103,5f52942b758cc0573b0eab12,626b377229c10585ec392f89,626b3aba2f0aeed8afb3ff51,,,,,,,,,,,,,,,,,,,,,,,a,1,"[""0.200"",""0.432"",""0.679"",""0.967""]","[1,0,1,1]",0,58,58,58,1,0,1,,,1,FALSE,0.3984,,,,,,,,,,,,,,,,,,,,,,,,,,,,,,
,5f52942b758cc0573b0eab12,001,2022-04-29_02h10.33.373,classification_task,2021.2.3,Win32,143.8228103,5f52942b758cc0573b0eab12,626b377229c10585ec392f89,626b3aba2f0aeed8afb3ff51,,,,,,,,,,,,,,,,,,,,,,,l,0,"[""0.292"",""0.488"",""0.105"",""0.933""]","[1,1,0,1]",0,59,59,59,1,0,0,,,1,FALSE,1.0004,,,,,,,,,,,,,,,,,,,,,,,,,,,,,,
,5f52942b758cc0573b0eab12,001,2022-04-29_02h10.33.373,classification_task,2021.2.3,Win32,143.8228103,5f52942b758cc0573b0eab12,626b377229c10585ec392f89,626b3aba2f0aeed8afb3ff51,,,,,,,,,,,,,,,,,,,,,,,l,1,"[""0.060"",""0.765"",""0.623"",""0.724""]","[1,0,1,1]",0,60,60,60,1,1,1,,,1,FALSE,0.8731,,,,,,,,,,,,,,,,,,,,,,,,,,,,,,
,5f52942b758cc0573b0eab12,001,2022-04-29_02h10.33.373,classification_task,2021.2.3,Win32,143.8228103,5f52942b758cc0573b0eab12,626b377229c10585ec392f89,626b3aba2f0aeed8afb3ff51,,,,,,,,,,,,,,,,,,,,,,,l,1,"[""0.148"",""0.241"",""0.110"",""0.807""]","[1,1,0,1]",0,61,61,61,1,1,0,,,1,FALSE,0.9901,,,,,,,,,,,,,,,,,,,,,,,,,,,,,,
,5f52942b758cc0573b0eab12,001,2022-04-29_02h10.33.373,classification_task,2021.2.3,Win32,143.8228103,5f52942b758cc0573b0eab12,626b377229c10585ec392f89,626b3aba2f0aeed8afb3ff51,,,,,,,,,,,,,,,,,,,,,,,a,0,"[""0.326"",""0.241"",""0.575"",""0.807""]","[0,1,1,1]",0,62,62,62,1,1,0,,,1,FALSE,0.4866,,,,,,,,,,,,,,,,,,,,,,,,,,,,,,
,5f52942b758cc0573b0eab12,001,2022-04-29_02h10.33.373,classification_task,2021.2.3,Win32,143.8228103,5f52942b758cc0573b0eab12,626b377229c10585ec392f89,626b3aba2f0aeed8afb3ff51,,,,,,,,,,,,,,,,,,,,,,,a,0,"[""0.148"",""0.326"",""0.575"",""0.807""]","[1,0,1,1]",0,63,63,63,1,1,0,,,1,FALSE,0.9348,,,,,,,,,,,,,,,,,,,,,,,,,,,,,,
,5f52942b758cc0573b0eab12,001,2022-04-29_02h10.33.373,classification_task,2021.2.3,Win32,143.8228103,5f52942b758cc0573b0eab12,626b377229c10585ec392f89,626b3aba2f0aeed8afb3ff51,,,,,,,,,,,,,,,,,,,,,,,,,,,,,,,,,,,,,,,0, ,,0,6.273760533,171.8528,0,1,1,1,1,2,2,,,,,,,,,,,,,,,,,
,5f52942b758cc0573b0eab12,001,2022-04-29_02h10.33.373,classification_task,2021.2.3,Win32,143.8228103,5f52942b758cc0573b0eab12,626b377229c10585ec392f89,626b3aba2f0aeed8afb3ff51,,,,,,,,,,,,,,,,,,,,,,,,,,,,,,,,,,,,,,,1,  ,,0,4.338624339,180.3536,0,1,1,1,1,2,2,,,,,,,,,,,,,,,,,
,5f52942b758cc0573b0eab12,001,2022-04-29_02h10.33.373,classification_task,2021.2.3,Win32,143.8228103,5f52942b758cc0573b0eab12,626b377229c10585ec392f89,626b3aba2f0aeed8afb3ff51,,,,,,,,,,,,,,,,,,,,,,,,,,,,,,,,,,,,,,,2,  ,,0,3.18734078,183.0617,0,1,1,1,1,2,2,,,,,,,,,,,,,,,,,
,5f52942b758cc0573b0eab12,001,2022-04-29_02h10.33.373,classification_task,2021.2.3,Win32,143.8228103,5f52942b758cc0573b0eab12,626b377229c10585ec392f89,626b3aba2f0aeed8afb3ff51,,,,,,,,,,,,,,,,,,,,,,,,,,,,,,,,,,,,,,,,,,,,,0,1,1,1,1,,2,,,,,,,,,,,,,,,,,
,5f52942b758cc0573b0eab12,001,2022-04-29_02h10.33.373,classification_task,2021.2.3,Win32,143.8228103,5f52942b758cc0573b0eab12,626b377229c10585ec392f89,626b3aba2f0aeed8afb3ff51,,,,,,,,,,,,,,,,,,,,,space,6.7838,a,1,"[""0.105"",""0.488"",""0.867"",""0.933""]","[0,1,1,1]",0,0,0,0,1,0,0,,,1,FALSE,2.0966,,,,,,,,,,,,,,,,,,,,,,,,,,,,,,
,5f52942b758cc0573b0eab12,001,2022-04-29_02h10.33.373,classification_task,2021.2.3,Win32,143.8228103,5f52942b758cc0573b0eab12,626b377229c10585ec392f89,626b3aba2f0aeed8afb3ff51,,,,,,,,,,,,,,,,,,,,,,,a,1,"[""0.292"",""0.105"",""0.867"",""0.933""]","[1,0,1,1]",0,1,1,1,1,0,0,,,1,FALSE,3.4156,,,,,,,,,,,,,,,,,,,,,,,,,,,,,,
,5f52942b758cc0573b0eab12,001,2022-04-29_02h10.33.373,classification_task,2021.2.3,Win32,143.8228103,5f52942b758cc0573b0eab12,626b377229c10585ec392f89,626b3aba2f0aeed8afb3ff51,,,,,,,,,,,,,,,,,,,,,,,a,0,"[""0.432"",""0.241"",""0.575"",""0.807""]","[0,1,1,1]",0,2,2,2,1,1,0,,,1,FALSE,1.2039,,,,,,,,,,,,,,,,,,,,,,,,,,,,,,
,5f52942b758cc0573b0eab12,001,2022-04-29_02h10.33.373,classification_task,2021.2.3,Win32,143.8228103,5f52942b758cc0573b0eab12,626b377229c10585ec392f89,626b3aba2f0aeed8afb3ff51,,,,,,,,,,,,,,,,,,,,,,,l,0,"[""0.027"",""0.534"",""0.679"",""0.967""]","[0,1,1,1]",0,3,3,3,1,0,1,,,1,FALSE,2.9708,,,,,,,,,,,,,,,,,,,,,,,,,,,,,,
,5f52942b758cc0573b0eab12,001,2022-04-29_02h10.33.373,classification_task,2021.2.3,Win32,143.8228103,5f52942b758cc0573b0eab12,626b377229c10585ec392f89,626b3aba2f0aeed8afb3ff51,,,,,,,,,,,,,,,,,,,,,,,a,1,"[""0.200"",""0.534"",""0.338"",""0.967""]","[1,1,0,1]",0,4,4,4,1,0,1,,,1,FALSE,0.8562,,,,,,,,,,,,,,,,,,,,,,,,,,,,,,
,5f52942b758cc0573b0eab12,001,2022-04-29_02h10.33.373,classification_task,2021.2.3,Win32,143.8228103,5f52942b758cc0573b0eab12,626b377229c10585ec392f89,626b3aba2f0aeed8afb3ff51,,,,,,,,,,,,,,,,,,,,,,,l,1,"[""0.148"",""0.241"",""0.575"",""0.105""]","[1,1,1,0]",0,5,5,5,1,1,0,,,1,FALSE,1.5431,,,,,,,,,,,,,,,,,,,,,,,,,,,,,,
,5f52942b758cc0573b0eab12,001,2022-04-29_02h10.33.373,classification_task,2021.2.3,Win32,143.8228103,5f52942b758cc0573b0eab12,626b377229c10585ec392f89,626b3aba2f0aeed8afb3ff51,,,,,,,,,,,,,,,,,,,,,,,l,1,"[""0.060"",""0.380"",""0.110"",""0.724""]","[1,1,0,1]",0,6,6,6,1,1,1,,,1,FALSE,3.3228,,,,,,,,,,,,,,,,,,,,,,,,,,,,,,
,5f52942b758cc0573b0eab12,001,2022-04-29_02h10.33.373,classification_task,2021.2.3,Win32,143.8228103,5f52942b758cc0573b0eab12,626b377229c10585ec392f89,626b3aba2f0aeed8afb3ff51,,,,,,,,,,,,,,,,,,,,,,,a,0,"[""0.060"",""0.380"",""0.623"",""0.765""]","[1,1,1,0]",0,7,7,7,1,1,1,,,1,FALSE,1.2262,,,,,,,,,,,,,,,,,,,,,,,,,,,,,,
,5f52942b758cc0573b0eab12,001,2022-04-29_02h10.33.373,classification_task,2021.2.3,Win32,143.8228103,5f52942b758cc0573b0eab12,626b377229c10585ec392f89,626b3aba2f0aeed8afb3ff51,,,,,,,,,,,,,,,,,,,,,,,a,0,"[""0.105"",""0.380"",""0.623"",""0.724""]","[0,1,1,1]",0,8,8,8,1,1,1,,,1,FALSE,1.4467,,,,,,,,,,,,,,,,,,,,,,,,,,,,,,
,5f52942b758cc0573b0eab12,001,2022-04-29_02h10.33.373,classification_task,2021.2.3,Win32,143.8228103,5f52942b758cc0573b0eab12,626b377229c10585ec392f89,626b3aba2f0aeed8afb3ff51,,,,,,,,,,,,,,,,,,,,,,,l,0,"[""0.292"",""0.488"",""0.102"",""0.933""]","[1,1,0,1]",0,9,9,9,1,0,0,,,1,FALSE,0.9981,,,,,,,,,,,,,,,,,,,,,,,,,,,,,,
,5f52942b758cc0573b0eab12,001,2022-04-29_02h10.33.373,classification_task,2021.2.3,Win32,143.8228103,5f52942b758cc0573b0eab12,626b377229c10585ec392f89,626b3aba2f0aeed8afb3ff51,,,,,,,,,,,,,,,,,,,,,,,l,1,"[""0.060"",""0.027"",""0.623"",""0.724""]","[1,0,1,1]",0,10,10,10,1,1,1,,,1,FALSE,3.0661,,,,,,,,,,,,,,,,,,,,,,,,,,,,,,
,5f52942b758cc0573b0eab12,001,2022-04-29_02h10.33.373,classification_task,2021.2.3,Win32,143.8228103,5f52942b758cc0573b0eab12,626b377229c10585ec392f89,626b3aba2f0aeed8afb3ff51,,,,,,,,,,,,,,,,,,,,,,,a,1,"[""0.200"",""0.534"",""0.679"",""0.453""]","[1,1,1,0]",0,11,11,11,1,0,1,,,1,FALSE,0.786,,,,,,,,,,,,,,,,,,,,,,,,,,,,,,
,5f52942b758cc0573b0eab12,001,2022-04-29_02h10.33.373,classification_task,2021.2.3,Win32,143.8228103,5f52942b758cc0573b0eab12,626b377229c10585ec392f89,626b3aba2f0aeed8afb3ff51,,,,,,,,,,,,,,,,,,,,,,,a,0,"[""0.148"",""0.421"",""0.575"",""0.807""]","[1,0,1,1]",0,12,12,12,1,1,0,,,1,FALSE,0.9359,,,,,,,,,,,,,,,,,,,,,,,,,,,,,,
,5f52942b758cc0573b0eab12,001,2022-04-29_02h10.33.373,classification_task,2021.2.3,Win32,143.8228103,5f52942b758cc0573b0eab12,626b377229c10585ec392f89,626b3aba2f0aeed8afb3ff51,,,,,,,,,,,,,,,,,,,,,,,l,1,"[""0.148"",""0.241"",""0.453"",""0.807""]","[1,1,0,1]",0,13,13,13,1,1,0,,,1,FALSE,0.904,,,,,,,,,,,,,,,,,,,,,,,,,,,,,,
,5f52942b758cc0573b0eab12,001,2022-04-29_02h10.33.373,classification_task,2021.2.3,Win32,143.8228103,5f52942b758cc0573b0eab12,626b377229c10585ec392f89,626b3aba2f0aeed8afb3ff51,,,,,,,,,,,,,,,,,,,,,,,a,1,"[""0.200"",""0.027"",""0.679"",""0.967""]","[1,0,1,1]",0,14,14,14,1,0,1,,,1,FALSE,0.9148,,,,,,,,,,,,,,,,,,,,,,,,,,,,,,
,5f52942b758cc0573b0eab12,001,2022-04-29_02h10.33.373,classification_task,2021.2.3,Win32,143.8228103,5f52942b758cc0573b0eab12,626b377229c10585ec392f89,626b3aba2f0aeed8afb3ff51,,,,,,,,,,,,,,,,,,,,,,,a,1,"[""0.292"",""0.488"",""0.867"",""0.453""]","[1,1,1,0]",0,15,15,15,1,0,0,,,1,FALSE,1.1677,,,,,,,,,,,,,,,,,,,,,,,,,,,,,,
,5f52942b758cc0573b0eab12,001,2022-04-29_02h10.33.373,classification_task,2021.2.3,Win32,143.8228103,5f52942b758cc0573b0eab12,626b377229c10585ec392f89,626b3aba2f0aeed8afb3ff51,,,,,,,,,,,,,,,,,,,,,,,l,1,"[""0.060"",""0.380"",""0.421"",""0.724""]","[1,1,0,1]",0,16,16,16,1,1,1,,,1,FALSE,0.9079,,,,,,,,,,,,,,,,,,,,,,,,,,,,,,
,5f52942b758cc0573b0eab12,001,2022-04-29_02h10.33.373,classification_task,2021.2.3,Win32,143.8228103,5f52942b758cc0573b0eab12,626b377229c10585ec392f89,626b3aba2f0aeed8afb3ff51,,,,,,,,,,,,,,,,,,,,,,,a,1,"[""0.453"",""0.488"",""0.867"",""0.933""]","[0,1,1,1]",0,17,17,17,1,0,0,,,1,FALSE,0.9557,,,,,,,,,,,,,,,,,,,,,,,,,,,,,,
,5f52942b758cc0573b0eab12,001,2022-04-29_02h10.33.373,classification_task,2021.2.3,Win32,143.8228103,5f52942b758cc0573b0eab12,626b377229c10585ec392f89,626b3aba2f0aeed8afb3ff51,,,,,,,,,,,,,,,,,,,,,,,a,1,"[""0.292"",""0.110"",""0.867"",""0.933""]","[1,0,1,1]",0,18,18,18,1,0,0,,,1,FALSE,1.3763,,,,,,,,,,,,,,,,,,,,,,,,,,,,,,
,5f52942b758cc0573b0eab12,001,2022-04-29_02h10.33.373,classification_task,2021.2.3,Win32,143.8228103,5f52942b758cc0573b0eab12,626b377229c10585ec392f89,626b3aba2f0aeed8afb3ff51,,,,,,,,,,,,,,,,,,,,,,,l,1,"[""0.148"",""0.027"",""0.575"",""0.807""]","[1,0,1,1]",0,19,19,19,1,1,0,,,1,FALSE,1.9184,,,,,,,,,,,,,,,,,,,,,,,,,,,,,,
,5f52942b758cc0573b0eab12,001,2022-04-29_02h10.33.373,classification_task,2021.2.3,Win32,143.8228103,5f52942b758cc0573b0eab12,626b377229c10585ec392f89,626b3aba2f0aeed8afb3ff51,,,,,,,,,,,,,,,,,,,,,,,a,1,"[""0.200"",""0.105"",""0.679"",""0.967""]","[1,0,1,1]",0,20,20,20,1,0,1,,,1,FALSE,1.2595,,,,,,,,,,,,,,,,,,,,,,,,,,,,,,
,5f52942b758cc0573b0eab12,001,2022-04-29_02h10.33.373,classification_task,2021.2.3,Win32,143.8228103,5f52942b758cc0573b0eab12,626b377229c10585ec392f89,626b3aba2f0aeed8afb3ff51,,,,,,,,,,,,,,,,,,,,,,,a,1,"[""0.200"",""0.534"",""0.453"",""0.967""]","[1,1,0,1]",0,21,21,21,1,0,1,,,1,FALSE,1.1208,,,,,,,,,,,,,,,,,,,,,,,,,,,,,,
,5f52942b758cc0573b0eab12,001,2022-04-29_02h10.33.373,classification_task,2021.2.3,Win32,143.8228103,5f52942b758cc0573b0eab12,626b377229c10585ec392f89,626b3aba2f0aeed8afb3ff51,,,,,,,,,,,,,,,,,,,,,,,l,1,"[""0.765"",""0.380"",""0.623"",""0.724""]","[0,1,1,1]",0,22,22,22,1,1,1,,,1,FALSE,1.3839,,,,,,,,,,,,,,,,,,,,,,,,,,,,,,
,5f52942b758cc0573b0eab12,001,2022-04-29_02h10.33.373,classification_task,2021.2.3,Win32,143.8228103,5f52942b758cc0573b0eab12,626b377229c10585ec392f89,626b3aba2f0aeed8afb3ff51,,,,,,,,,,,,,,,,,,,,,,,a,0,"[""0.148"",""0.241"",""0.102"",""0.807""]","[1,1,0,1]",0,23,23,23,1,1,0,,,1,FALSE,0.7858,,,,,,,,,,,,,,,,,,,,,,,,,,,,,,
,5f52942b758cc0573b0eab12,001,2022-04-29_02h10.33.373,classification_task,2021.2.3,Win32,143.8228103,5f52942b758cc0573b0eab12,626b377229c10585ec392f89,626b3aba2f0aeed8afb3ff51,,,,,,,,,,,,,,,,,,,,,,,a,1,"[""0.292"",""0.488"",""0.867"",""0.453""]","[1,1,1,0]",0,24,24,24,1,0,0,,,1,FALSE,0.8864,,,,,,,,,,,,,,,,,,,,,,,,,,,,,,
,5f52942b758cc0573b0eab12,001,2022-04-29_02h10.33.373,classification_task,2021.2.3,Win32,143.8228103,5f52942b758cc0573b0eab12,626b377229c10585ec392f89,626b3aba2f0aeed8afb3ff51,,,,,,,,,,,,,,,,,,,,,,,l,0,"[""0.200"",""0.534"",""0.679"",""0.421""]","[1,1,1,0]",0,25,25,25,1,0,1,,,1,FALSE,1.5177,,,,,,,,,,,,,,,,,,,,,,,,,,,,,,
,5f52942b758cc0573b0eab12,001,2022-04-29_02h10.33.373,classification_task,2021.2.3,Win32,143.8228103,5f52942b758cc0573b0eab12,626b377229c10585ec392f89,626b3aba2f0aeed8afb3ff51,,,,,,,,,,,,,,,,,,,,,,,l,1,"[""0.148"",""0.241"",""0.575"",""0.444""]","[1,1,1,0]",0,26,26,26,1,1,0,,,1,FALSE,1.2494,,,,,,,,,,,,,,,,,,,,,,,,,,,,,,
,5f52942b758cc0573b0eab12,001,2022-04-29_02h10.33.373,classification_task,2021.2.3,Win32,143.8228103,5f52942b758cc0573b0eab12,626b377229c10585ec392f89,626b3aba2f0aeed8afb3ff51,,,,,,,,,,,,,,,,,,,,,,,a,0,"[""0.060"",""0.329"",""0.623"",""0.724""]","[1,0,1,1]",0,27,27,27,1,1,1,,,1,FALSE,0.7477,,,,,,,,,,,,,,,,,,,,,,,,,,,,,,
,5f52942b758cc0573b0eab12,001,2022-04-29_02h10.33.373,classification_task,2021.2.3,Win32,143.8228103,5f52942b758cc0573b0eab12,626b377229c10585ec392f89,626b3aba2f0aeed8afb3ff51,,,,,,,,,,,,,,,,,,,,,,,l,1,"[""0.060"",""0.380"",""0.623"",""0.453""]","[1,1,1,0]",0,28,28,28,1,1,1,,,1,FALSE,1.4601,,,,,,,,,,,,,,,,,,,,,,,,,,,,,,
,5f52942b758cc0573b0eab12,001,2022-04-29_02h10.33.373,classification_task,2021.2.3,Win32,143.8228103,5f52942b758cc0573b0eab12,626b377229c10585ec392f89,626b3aba2f0aeed8afb3ff51,,,,,,,,,,,,,,,,,,,,,,,a,1,"[""0.105"",""0.534"",""0.679"",""0.967""]","[0,1,1,1]",0,29,29,29,1,0,1,,,1,FALSE,0.7232,,,,,,,,,,,,,,,,,,,,,,,,,,,,,,
,5f52942b758cc0573b0eab12,001,2022-04-29_02h10.33.373,classification_task,2021.2.3,Win32,143.8228103,5f52942b758cc0573b0eab12,626b377229c10585ec392f89,626b3aba2f0aeed8afb3ff51,,,,,,,,,,,,,,,,,,,,,,,l,1,"[""0.105"",""0.241"",""0.575"",""0.807""]","[0,1,1,1]",0,30,30,30,1,1,0,,,1,FALSE,0.9187,,,,,,,,,,,,,,,,,,,,,,,,,,,,,,
,5f52942b758cc0573b0eab12,001,2022-04-29_02h10.33.373,classification_task,2021.2.3,Win32,143.8228103,5f52942b758cc0573b0eab12,626b377229c10585ec392f89,626b3aba2f0aeed8afb3ff51,,,,,,,,,,,,,,,,,,,,,,,a,1,"[""0.292"",""0.488"",""0.338"",""0.933""]","[1,1,0,1]",0,31,31,31,1,0,0,,,1,FALSE,0.7203,,,,,,,,,,,,,,,,,,,,,,,,,,,,,,
,5f52942b758cc0573b0eab12,001,2022-04-29_02h10.33.373,classification_task,2021.2.3,Win32,143.8228103,5f52942b758cc0573b0eab12,626b377229c10585ec392f89,626b3aba2f0aeed8afb3ff51,,,,,,,,,,,,,,,,,,,,,,,l,0,"[""0.292"",""0.488"",""0.329"",""0.933""]","[1,1,0,1]",0,32,32,32,1,0,0,,,1,FALSE,1.7067,,,,,,,,,,,,,,,,,,,,,,,,,,,,,,
,5f52942b758cc0573b0eab12,001,2022-04-29_02h10.33.373,classification_task,2021.2.3,Win32,143.8228103,5f52942b758cc0573b0eab12,626b377229c10585ec392f89,626b3aba2f0aeed8afb3ff51,,,,,,,,,,,,,,,,,,,,,,,a,0,"[""0.148"",""0.770"",""0.575"",""0.807""]","[1,0,1,1]",0,33,33,33,1,1,0,,,1,FALSE,1.1167,,,,,,,,,,,,,,,,,,,,,,,,,,,,,,
,5f52942b758cc0573b0eab12,001,2022-04-29_02h10.33.373,classification_task,2021.2.3,Win32,143.8228103,5f52942b758cc0573b0eab12,626b377229c10585ec392f89,626b3aba2f0aeed8afb3ff51,,,,,,,,,,,,,,,,,,,,,,,a,0,"[""0.338"",""0.241"",""0.575"",""0.807""]","[0,1,1,1]",0,34,34,34,1,1,0,,,1,FALSE,1.154,,,,,,,,,,,,,,,,,,,,,,,,,,,,,,
,5f52942b758cc0573b0eab12,001,2022-04-29_02h10.33.373,classification_task,2021.2.3,Win32,143.8228103,5f52942b758cc0573b0eab12,626b377229c10585ec392f89,626b3aba2f0aeed8afb3ff51,,,,,,,,,,,,,,,,,,,,,,,a,1,"[""0.770"",""0.534"",""0.679"",""0.967""]","[0,1,1,1]",0,35,35,35,1,0,1,,,1,FALSE,2.2665,,,,,,,,,,,,,,,,,,,,,,,,,,,,,,
,5f52942b758cc0573b0eab12,001,2022-04-29_02h10.33.373,classification_task,2021.2.3,Win32,143.8228103,5f52942b758cc0573b0eab12,626b377229c10585ec392f89,626b3aba2f0aeed8afb3ff51,,,,,,,,,,,,,,,,,,,,,,,a,1,"[""0.768"",""0.488"",""0.867"",""0.933""]","[0,1,1,1]",0,36,36,36,1,0,0,,,1,FALSE,1.7667,,,,,,,,,,,,,,,,,,,,,,,,,,,,,,
,5f52942b758cc0573b0eab12,001,2022-04-29_02h10.33.373,classification_task,2021.2.3,Win32,143.8228103,5f52942b758cc0573b0eab12,626b377229c10585ec392f89,626b3aba2f0aeed8afb3ff51,,,,,,,,,,,,,,,,,,,,,,,l,0,"[""0.200"",""0.534"",""0.421"",""0.967""]","[1,1,0,1]",0,37,37,37,1,0,1,,,1,FALSE,0.9949,,,,,,,,,,,,,,,,,,,,,,,,,,,,,,
,5f52942b758cc0573b0eab12,001,2022-04-29_02h10.33.373,classification_task,2021.2.3,Win32,143.8228103,5f52942b758cc0573b0eab12,626b377229c10585ec392f89,626b3aba2f0aeed8afb3ff51,,,,,,,,,,,,,,,,,,,,,,,l,1,"[""0.060"",""0.380"",""0.444"",""0.724""]","[1,1,0,1]",0,38,38,38,1,1,1,,,1,FALSE,0.7798,,,,,,,,,,,,,,,,,,,,,,,,,,,,,,
,5f52942b758cc0573b0eab12,001,2022-04-29_02h10.33.373,classification_task,2021.2.3,Win32,143.8228103,5f52942b758cc0573b0eab12,626b377229c10585ec392f89,626b3aba2f0aeed8afb3ff51,,,,,,,,,,,,,,,,,,,,,,,l,1,"[""0.148"",""0.241"",""0.105"",""0.807""]","[1,1,0,1]",0,39,39,39,1,1,0,,,1,FALSE,1.1842,,,,,,,,,,,,,,,,,,,,,,,,,,,,,,
,5f52942b758cc0573b0eab12,001,2022-04-29_02h10.33.373,classification_task,2021.2.3,Win32,143.8228103,5f52942b758cc0573b0eab12,626b377229c10585ec392f89,626b3aba2f0aeed8afb3ff51,,,,,,,,,,,,,,,,,,,,,,,l,1,"[""0.060"",""0.380"",""0.623"",""0.102""]","[1,1,1,0]",0,40,40,40,1,1,1,,,1,FALSE,2.7816,,,,,,,,,,,,,,,,,,,,,,,,,,,,,,
,5f52942b758cc0573b0eab12,001,2022-04-29_02h10.33.373,classification_task,2021.2.3,Win32,143.8228103,5f52942b758cc0573b0eab12,626b377229c10585ec392f89,626b3aba2f0aeed8afb3ff51,,,,,,,,,,,,,,,,,,,,,,,a,0,"[""0.060"",""0.326"",""0.623"",""0.724""]","[1,0,1,1]",0,41,41,41,1,1,1,,,1,FALSE,0.5638,,,,,,,,,,,,,,,,,,,,,,,,,,,,,,
,5f52942b758cc0573b0eab12,001,2022-04-29_02h10.33.373,classification_task,2021.2.3,Win32,143.8228103,5f52942b758cc0573b0eab12,626b377229c10585ec392f89,626b3aba2f0aeed8afb3ff51,,,,,,,,,,,,,,,,,,,,,,,a,1,"[""0.292"",""0.105"",""0.867"",""0.933""]","[1,0,1,1]",0,42,42,42,1,0,0,,,1,FALSE,0.5633,,,,,,,,,,,,,,,,,,,,,,,,,,,,,,
,5f52942b758cc0573b0eab12,001,2022-04-29_02h10.33.373,classification_task,2021.2.3,Win32,143.8228103,5f52942b758cc0573b0eab12,626b377229c10585ec392f89,626b3aba2f0aeed8afb3ff51,,,,,,,,,,,,,,,,,,,,,,,l,1,"[""0.338"",""0.380"",""0.623"",""0.724""]","[0,1,1,1]",0,43,43,43,1,1,1,,,1,FALSE,0.9531,,,,,,,,,,,,,,,,,,,,,,,,,,,,,,
,5f52942b758cc0573b0eab12,001,2022-04-29_02h10.33.373,classification_task,2021.2.3,Win32,143.8228103,5f52942b758cc0573b0eab12,626b377229c10585ec392f89,626b3aba2f0aeed8afb3ff51,,,,,,,,,,,,,,,,,,,,,,,a,1,"[""0.200"",""0.453"",""0.679"",""0.967""]","[1,0,1,1]",0,44,44,44,1,0,1,,,1,FALSE,0.6746,,,,,,,,,,,,,,,,,,,,,,,,,,,,,,
,5f52942b758cc0573b0eab12,001,2022-04-29_02h10.33.373,classification_task,2021.2.3,Win32,143.8228103,5f52942b758cc0573b0eab12,626b377229c10585ec392f89,626b3aba2f0aeed8afb3ff51,,,,,,,,,,,,,,,,,,,,,,,l,0,"[""0.292"",""0.488"",""0.867"",""0.432""]","[1,1,1,0]",0,45,45,45,1,0,0,,,1,FALSE,1.3653,,,,,,,,,,,,,,,,,,,,,,,,,,,,,,
,5f52942b758cc0573b0eab12,001,2022-04-29_02h10.33.373,classification_task,2021.2.3,Win32,143.8228103,5f52942b758cc0573b0eab12,626b377229c10585ec392f89,626b3aba2f0aeed8afb3ff51,,,,,,,,,,,,,,,,,,,,,,,l,0,"[""0.200"",""0.534"",""0.679"",""0.105""]","[1,1,1,0]",0,46,46,46,1,0,1,,,1,FALSE,1.3665,,,,,,,,,,,,,,,,,,,,,,,,,,,,,,
,5f52942b758cc0573b0eab12,001,2022-04-29_02h10.33.373,classification_task,2021.2.3,Win32,143.8228103,5f52942b758cc0573b0eab12,626b377229c10585ec392f89,626b3aba2f0aeed8afb3ff51,,,,,,,,,,,,,,,,,,,,,,,l,1,"[""0.148"",""0.241"",""0.575"",""0.453""]","[1,1,1,0]",0,47,47,47,1,1,0,,,1,FALSE,0.9733,,,,,,,,,,,,,,,,,,,,,,,,,,,,,,
,5f52942b758cc0573b0eab12,001,2022-04-29_02h10.33.373,classification_task,2021.2.3,Win32,143.8228103,5f52942b758cc0573b0eab12,626b377229c10585ec392f89,626b3aba2f0aeed8afb3ff51,,,,,,,,,,,,,,,,,,,,,,,a,1,"[""0.292"",""0.488"",""0.453"",""0.933""]","[1,1,0,1]",0,48,48,48,1,0,0,,,1,FALSE,0.6299,,,,,,,,,,,,,,,,,,,,,,,,,,,,,,
,5f52942b758cc0573b0eab12,001,2022-04-29_02h10.33.373,classification_task,2021.2.3,Win32,143.8228103,5f52942b758cc0573b0eab12,626b377229c10585ec392f89,626b3aba2f0aeed8afb3ff51,,,,,,,,,,,,,,,,,,,,,,,l,0,"[""0.292"",""0.488"",""0.867"",""0.027""]","[1,1,1,0]",0,49,49,49,1,0,0,,,1,FALSE,0.8782,,,,,,,,,,,,,,,,,,,,,,,,,,,,,,
,5f52942b758cc0573b0eab12,001,2022-04-29_02h10.33.373,classification_task,2021.2.3,Win32,143.8228103,5f52942b758cc0573b0eab12,626b377229c10585ec392f89,626b3aba2f0aeed8afb3ff51,,,,,,,,,,,,,,,,,,,,,,,a,1,"[""0.027"",""0.488"",""0.867"",""0.933""]","[0,1,1,1]",0,50,50,50,1,0,0,,,1,FALSE,1.3144,,,,,,,,,,,,,,,,,,,,,,,,,,,,,,
,5f52942b758cc0573b0eab12,001,2022-04-29_02h10.33.373,classification_task,2021.2.3,Win32,143.8228103,5f52942b758cc0573b0eab12,626b377229c10585ec392f89,626b3aba2f0aeed8afb3ff51,,,,,,,,,,,,,,,,,,,,,,,a,1,"[""0.200"",""0.534"",""0.679"",""0.338""]","[1,1,1,0]",0,51,51,51,1,0,1,,,1,FALSE,0.876,,,,,,,,,,,,,,,,,,,,,,,,,,,,,,
,5f52942b758cc0573b0eab12,001,2022-04-29_02h10.33.373,classification_task,2021.2.3,Win32,143.8228103,5f52942b758cc0573b0eab12,626b377229c10585ec392f89,626b3aba2f0aeed8afb3ff51,,,,,,,,,,,,,,,,,,,,,,,a,0,"[""0.453"",""0.380"",""0.623"",""0.724""]","[0,1,1,1]",0,52,52,52,1,1,1,,,1,FALSE,1.6239,,,,,,,,,,,,,,,,,,,,,,,,,,,,,,
,5f52942b758cc0573b0eab12,001,2022-04-29_02h10.33.373,classification_task,2021.2.3,Win32,143.8228103,5f52942b758cc0573b0eab12,626b377229c10585ec392f89,626b3aba2f0aeed8afb3ff51,,,,,,,,,,,,,,,,,,,,,,,l,1,"[""0.148"",""0.027"",""0.575"",""0.807""]","[1,0,1,1]",0,53,53,53,1,1,0,,,1,FALSE,2.3638,,,,,,,,,,,,,,,,,,,,,,,,,,,,,,
,5f52942b758cc0573b0eab12,001,2022-04-29_02h10.33.373,classification_task,2021.2.3,Win32,143.8228103,5f52942b758cc0573b0eab12,626b377229c10585ec392f89,626b3aba2f0aeed8afb3ff51,,,,,,,,,,,,,,,,,,,,,,,l,1,"[""0.148"",""0.241"",""0.110"",""0.807""]","[1,1,0,1]",0,54,54,54,1,1,0,,,1,FALSE,0.9741,,,,,,,,,,,,,,,,,,,,,,,,,,,,,,
,5f52942b758cc0573b0eab12,001,2022-04-29_02h10.33.373,classification_task,2021.2.3,Win32,143.8228103,5f52942b758cc0573b0eab12,626b377229c10585ec392f89,626b3aba2f0aeed8afb3ff51,,,,,,,,,,,,,,,,,,,,,,,a,1,"[""0.292"",""0.421"",""0.867"",""0.933""]","[1,0,1,1]",0,55,55,55,1,0,0,,,1,FALSE,1.0219,,,,,,,,,,,,,,,,,,,,,,,,,,,,,,
,5f52942b758cc0573b0eab12,001,2022-04-29_02h10.33.373,classification_task,2021.2.3,Win32,143.8228103,5f52942b758cc0573b0eab12,626b377229c10585ec392f89,626b3aba2f0aeed8afb3ff51,,,,,,,,,,,,,,,,,,,,,,,a,0,"[""0.768"",""0.241"",""0.575"",""0.807""]","[0,1,1,1]",0,56,56,56,1,1,0,,,1,FALSE,0.5872,,,,,,,,,,,,,,,,,,,,,,,,,,,,,,
,5f52942b758cc0573b0eab12,001,2022-04-29_02h10.33.373,classification_task,2021.2.3,Win32,143.8228103,5f52942b758cc0573b0eab12,626b377229c10585ec392f89,626b3aba2f0aeed8afb3ff51,,,,,,,,,,,,,,,,,,,,,,,l,1,"[""0.148"",""0.241"",""0.575"",""0.768""]","[1,1,1,0]",0,57,57,57,1,1,0,,,1,FALSE,0.9289,,,,,,,,,,,,,,,,,,,,,,,,,,,,,,
,5f52942b758cc0573b0eab12,001,2022-04-29_02h10.33.373,classification_task,2021.2.3,Win32,143.8228103,5f52942b758cc0573b0eab12,626b377229c10585ec392f89,626b3aba2f0aeed8afb3ff51,,,,,,,,,,,,,,,,,,,,,,,l,0,"[""0.200"",""0.338"",""0.679"",""0.967""]","[1,0,1,1]",0,58,58,58,1,0,1,,,1,FALSE,2.678,,,,,,,,,,,,,,,,,,,,,,,,,,,,,,
,5f52942b758cc0573b0eab12,001,2022-04-29_02h10.33.373,classification_task,2021.2.3,Win32,143.8228103,5f52942b758cc0573b0eab12,626b377229c10585ec392f89,626b3aba2f0aeed8afb3ff51,,,,,,,,,,,,,,,,,,,,,,,a,0,"[""0.060"",""0.380"",""0.623"",""0.432""]","[1,1,1,0]",0,59,59,59,1,1,1,,,1,FALSE,1.0947,,,,,,,,,,,,,,,,,,,,,,,,,,,,,,
,5f52942b758cc0573b0eab12,001,2022-04-29_02h10.33.373,classification_task,2021.2.3,Win32,143.8228103,5f52942b758cc0573b0eab12,626b377229c10585ec392f89,626b3aba2f0aeed8afb3ff51,,,,,,,,,,,,,,,,,,,,,,,l,0,"[""0.200"",""0.534"",""0.444"",""0.967""]","[1,1,0,1]",0,60,60,60,1,0,1,,,1,FALSE,0.993,,,,,,,,,,,,,,,,,,,,,,,,,,,,,,
,5f52942b758cc0573b0eab12,001,2022-04-29_02h10.33.373,classification_task,2021.2.3,Win32,143.8228103,5f52942b758cc0573b0eab12,626b377229c10585ec392f89,626b3aba2f0aeed8afb3ff51,,,,,,,,,,,,,,,,,,,,,,,a,0,"[""0.060"",""0.453"",""0.623"",""0.724""]","[1,0,1,1]",0,61,61,61,1,1,1,,,1,FALSE,0.6068,,,,,,,,,,,,,,,,,,,,,,,,,,,,,,
,5f52942b758cc0573b0eab12,001,2022-04-29_02h10.33.373,classification_task,2021.2.3,Win32,143.8228103,5f52942b758cc0573b0eab12,626b377229c10585ec392f89,626b3aba2f0aeed8afb3ff51,,,,,,,,,,,,,,,,,,,,,,,a,0,"[""0.060"",""0.380"",""0.110"",""0.724""]","[1,1,0,1]",0,62,62,62,1,1,1,,,1,FALSE,0.9417,,,,,,,,,,,,,,,,,,,,,,,,,,,,,,
,5f52942b758cc0573b0eab12,001,2022-04-29_02h10.33.373,classification_task,2021.2.3,Win32,143.8228103,5f52942b758cc0573b0eab12,626b377229c10585ec392f89,626b3aba2f0aeed8afb3ff51,,,,,,,,,,,,,,,,,,,,,,,l,0,"[""0.770"",""0.534"",""0.679"",""0.967""]","[0,1,1,1]",0,63,63,63,1,0,1,,,1,FALSE,0.6542,,,,,,,,,,,,,,,,,,,,,,,,,,,,,,
,5f52942b758cc0573b0eab12,001,2022-04-29_02h10.33.373,classification_task,2021.2.3,Win32,143.8228103,5f52942b758cc0573b0eab12,626b377229c10585ec392f89,626b3aba2f0aeed8afb3ff51,,,,,,,,,,,,,,,,,,,,,,,,,,,,,,,,,,,,,,,0, ,,0,8.649813835,159.3729,0,2,2,2,1,2,3,,,,,,,,,,,,,,,,,
,5f52942b758cc0573b0eab12,001,2022-04-29_02h10.33.373,classification_task,2021.2.3,Win32,143.8228103,5f52942b758cc0573b0eab12,626b377229c10585ec392f89,626b3aba2f0aeed8afb3ff51,,,,,,,,,,,,,,,,,,,,,,,,,,,,,,,,,,,,,,,1,  ,,0,9.58063884,162.4309,0,2,2,2,1,2,3,,,,,,,,,,,,,,,,,
,5f52942b758cc0573b0eab12,001,2022-04-29_02h10.33.373,classification_task,2021.2.3,Win32,143.8228103,5f52942b758cc0573b0eab12,626b377229c10585ec392f89,626b3aba2f0aeed8afb3ff51,,,,,,,,,,,,,,,,,,,,,,,,,,,,,,,,,,,,,,,2,  ,,0,9.384675681,164.9645,0,2,2,2,1,2,3,,,,,,,,,,,,,,,,,
,5f52942b758cc0573b0eab12,001,2022-04-29_02h10.33.373,classification_task,2021.2.3,Win32,143.8228103,5f52942b758cc0573b0eab12,626b377229c10585ec392f89,626b3aba2f0aeed8afb3ff51,,,,,,,,,,,,,,,,,,,,,,,,,,,,,,,,,,,,,,,,,,,,,0,2,2,2,1,,3,,,,,,,,,,,,,,,,,
,5f52942b758cc0573b0eab12,001,2022-04-29_02h10.33.373,classification_task,2021.2.3,Win32,143.8228103,5f52942b758cc0573b0eab12,626b377229c10585ec392f89,626b3aba2f0aeed8afb3ff51,,,,,,,,,,,,,,,,,,,,,,,,,,,,,,,,,,,,,,,,,,,,,,,,,,,,,I believe the aid is a competent performer,,0.7,0,5,1268.3476,0,0,0,0,1,0,,,,
,5f52942b758cc0573b0eab12,001,2022-04-29_02h10.33.373,classification_task,2021.2.3,Win32,143.8228103,5f52942b758cc0573b0eab12,626b377229c10585ec392f89,626b3aba2f0aeed8afb3ff51,,,,,,,,,,,,,,,,,,,,,,,,,,,,,,,,,,,,,,,,,,,,,,,,,,,,,I trust the aid,,0.7,0,5,1265.8426,0,0,0,0,1,0,,,,
,5f52942b758cc0573b0eab12,001,2022-04-29_02h10.33.373,classification_task,2021.2.3,Win32,143.8228103,5f52942b758cc0573b0eab12,626b377229c10585ec392f89,626b3aba2f0aeed8afb3ff51,,,,,,,,,,,,,,,,,,,,,,,,,,,,,,,,,,,,,,,,,,,,,,,,,,,,,I have confidence in the advice given by the aid,,0.7,0,5,1249.5492,0,0,0,0,1,0,,,,
,5f52942b758cc0573b0eab12,001,2022-04-29_02h10.33.373,classification_task,2021.2.3,Win32,143.8228103,5f52942b758cc0573b0eab12,626b377229c10585ec392f89,626b3aba2f0aeed8afb3ff51,,,,,,,,,,,,,,,,,,,,,,,,,,,,,,,,,,,,,,,,,,,,,,,,,,,,,I can depend on the aid,,0.7,0,5,1251.4283,0,0,0,0,1,0,,,,
,5f52942b758cc0573b0eab12,001,2022-04-29_02h10.33.373,classification_task,2021.2.3,Win32,143.8228103,5f52942b758cc0573b0eab12,626b377229c10585ec392f89,626b3aba2f0aeed8afb3ff51,,,,,,,,,,,,,,,,,,,,,,,,,,,,,,,,,,,,,,,,,,,,,,,,,,,,,I can rely on the aid to behave in consistent ways,,0.7,0,4,1255.8764,0,0,0,0,1,0,,,,
,5f52942b758cc0573b0eab12,001,2022-04-29_02h10.33.373,classification_task,2021.2.3,Win32,143.8228103,5f52942b758cc0573b0eab12,626b377229c10585ec392f89,626b3aba2f0aeed8afb3ff51,,,,,,,,,,,,,,,,,,,,,,,,,,,,,,,,,,,,,,,,,,,,,,,,,,,,,I can rely on the aid to do its best every time I take its advice,,0.7,0,4,1259.444,0,0,0,0,1,0,,,,
,5f52942b758cc0573b0eab12,001,2022-04-29_02h10.33.373,classification_task,2021.2.3,Win32,143.8228103,5f52942b758cc0573b0eab12,626b377229c10585ec392f89,626b3aba2f0aeed8afb3ff51,,,,,,,,,,,,,,,,,,,,,,,,,,,,,,,,,,,,,,,,,,,,,,,,,,,,,"On trials you completed with assistance from the aid, how frequently did you think the aid was correct?",,0.7,0,100%,,0,0,0,0,1,0,,,,
,5f52942b758cc0573b0eab12,001,2022-04-29_02h10.33.373,classification_task,2021.2.3,Win32,143.8228103,5f52942b758cc0573b0eab12,626b377229c10585ec392f89,626b3aba2f0aeed8afb3ff51,,,,,,,,,,,,,,,,,,,,,,,,,,,,,,,,,,,,,,,,,,,,,,,,,,,,,"On trials you completed without the aid, how frequently did you think you were correct?",,0.7,0,60%,,0,0,0,0,1,0,,,,
,5f52942b758cc0573b0eab12,001,2022-04-29_02h10.33.373,classification_task,2021.2.3,Win32,143.8228103,5f52942b758cc0573b0eab12,626b377229c10585ec392f89,626b3aba2f0aeed8afb3ff51,,,,,,,,,,,,,,,,,,,,,,,,,,,,,,,,,,,,,,,,,,,,,,,,,,,,,,,,,,,0,0,0,0,1,,,,,
,5f52942b758cc0573b0eab12,001,2022-04-29_02h10.33.373,classification_task,2021.2.3,Win32,143.8228103,5f52942b758cc0573b0eab12,626b377229c10585ec392f89,626b3aba2f0aeed8afb3ff51,,,,,,,,,,,,,,,,,,,,,,,,,,,,,,,,,,,,,,,,,,,,,,,,,,,,,,,,,,,,,,,,,space,22.7959,1309.6606,
,5f52942b758cc0573b0eab12,001,2022-04-29_02h10.33.373,classification_task,2021.2.3,Win32,143.8228103,5f52942b758cc0573b0eab12,626b377229c10585ec392f89,626b3aba2f0aeed8afb3ff51,,,,,,,,,,,,,,,,,,,,,,,,,,,,,,,,,,,,,,,,,,,,,,,,,,,,,,,,,,,,,,,,,,,,"Mozilla/5.0 (Windows NT 10.0; Win64; x64) AppleWebKit/537.36 (KHTML, like Gecko) Chrome/100.0.4896.127 Safari/537.36"
