usingWebGL,participant,session,date,expName,psychopyVersion,OS,frameRate,PROLIFIC_PID,STUDY_ID,SESSION_ID,signatures_friend,signatures_foe,band_ranges_top,band_ranges_bottom,formitemText,formtype,formundefined,formitemWidth,formindex,formresponse,formrt,key_resp_2.keys,key_resp_2.rt,tute_resp.keys,tute_resp.rt,tutorial.thisRepN,tutorial.thisTrialN,tutorial.thisN,tutorial.thisIndex,tutorial.ran,key_resp_4.keys,key_resp_4.rt,key_resp.keys,key_resp.corr,lines_presented,is_signal_presented,trials.thisRepN,trials.thisTrialN,trials.thisN,trials.thisIndex,trials.ran,vessel,active_band,lines,is_signal,supported_pos,catch_trial,key_resp.rt,debrief_formindex,debrief_formitemText,debrief_formtype,debrief_formitemWidth,debrief_formresponse,debrief_formrt,phases.thisRepN,phases.thisTrialN,phases.thisN,phases.thisIndex,phases.ran,phases.order,phase,key_resp_3.keys,key_resp_3.rt,trustitemText,trusttype,trustitemWidth,trustindex,trustresponse,trustrt,support_status.thisRepN,support_status.thisTrialN,support_status.thisN,support_status.thisIndex,support_status.ran,support_status.order,key_resp_5.keys,key_resp_5.rt,globalClockTime,userAgent
TRUE,5f5b64c313f9ca2931cf9917,001,2022-04-29_03h13.05.366,classification_task,2021.2.3,Win32,238.0952381,5f5b64c313f9ca2931cf9917,626b377229c10585ec392f89,626b39f700b7e0b8d761c56d,,,,,,,,,,,,,,,,,,,,,,,,,,,,,,,,,,,,,,,,,,,,,,,,,,,,,,,,,,,,,,,,,,,,,
,5f5b64c313f9ca2931cf9917,001,2022-04-29_03h13.05.366,classification_task,2021.2.3,Win32,238.0952381,5f5b64c313f9ca2931cf9917,626b377229c10585ec392f89,626b39f700b7e0b8d761c56d,"[[""0.289"",""0.358"",""0.818"",""0.856""],[""0.200"",""0.464"",""0.894"",""0.944""]]","[[""0.069"",""0.154"",""0.584"",""0.742""],[""0.106"",""0.424"",""0.521"",""0.688""]]","[1,10]","[100,1000]",Video game experience,,,0.7,0,,,,,,,,,,,,,,,,,,,,,,,,,,,,,,,,,,,,,,,,,,,,,,,,,,,,,,,,,,,,
,5f5b64c313f9ca2931cf9917,001,2022-04-29_03h13.05.366,classification_task,2021.2.3,Win32,238.0952381,5f5b64c313f9ca2931cf9917,626b377229c10585ec392f89,626b39f700b7e0b8d761c56d,,,,,Approximately how many hours did you spend playing video games in the last week?,,,0.7,0,15,,,,,,,,,,,,,,,,,,,,,,,,,,,,,,,,,,,,,,,,,,,,,,,,,,,,,,,,,,,
,5f5b64c313f9ca2931cf9917,001,2022-04-29_03h13.05.366,classification_task,2021.2.3,Win32,238.0952381,5f5b64c313f9ca2931cf9917,626b377229c10585ec392f89,626b39f700b7e0b8d761c56d,,,,,"Which game did you play the most this year? (Enter ""None"" if you didn't play any)",,,0.7,0,Valorant,,,,,,,,,,,,,,,,,,,,,,,,,,,,,,,,,,,,,,,,,,,,,,,,,,,,,,,,,,,
,5f5b64c313f9ca2931cf9917,001,2022-04-29_03h13.05.366,classification_task,2021.2.3,Win32,238.0952381,5f5b64c313f9ca2931cf9917,626b377229c10585ec392f89,626b39f700b7e0b8d761c56d,,,,,Visual perception,,,0.7,0,,,,,,,,,,,,,,,,,,,,,,,,,,,,,,,,,,,,,,,,,,,,,,,,,,,,,,,,,,,,
,5f5b64c313f9ca2931cf9917,001,2022-04-29_03h13.05.366,classification_task,2021.2.3,Win32,238.0952381,5f5b64c313f9ca2931cf9917,626b377229c10585ec392f89,626b39f700b7e0b8d761c56d,,,,,Do you have any form of color blindness?,,,0.7,0,No,30.9434,,,,,,,,,,,,,,,,,,,,,,,,,,,,,,,,,,,,,,,,,,,,,,,,,,,,,,,,,,
,5f5b64c313f9ca2931cf9917,001,2022-04-29_03h13.05.366,classification_task,2021.2.3,Win32,238.0952381,5f5b64c313f9ca2931cf9917,626b377229c10585ec392f89,626b39f700b7e0b8d761c56d,,,,,Do you use software to change the colour temperature of your screen (e.g. f.lux)?,,,0.7,0,Yes,35.2964,,,,,,,,,,,,,,,,,,,,,,,,,,,,,,,,,,,,,,,,,,,,,,,,,,,,,,,,,,
,5f5b64c313f9ca2931cf9917,001,2022-04-29_03h13.05.366,classification_task,2021.2.3,Win32,238.0952381,5f5b64c313f9ca2931cf9917,626b377229c10585ec392f89,626b39f700b7e0b8d761c56d,,,,,,,,,,,,space,59.4369,space,24.9795,0,0,0,0,1,,,,,,,,,,,,,,,,,,,,,,,,,,,,,,,,,,,,,,,,,,,,,,,,,
,5f5b64c313f9ca2931cf9917,001,2022-04-29_03h13.05.366,classification_task,2021.2.3,Win32,238.0952381,5f5b64c313f9ca2931cf9917,626b377229c10585ec392f89,626b39f700b7e0b8d761c56d,,,,,,,,,,,,,,space,19.0449,1,0,1,0,1,,,,,,,,,,,,,,,,,,,,,,,,,,,,,,,,,,,,,,,,,,,,,,,,,
,5f5b64c313f9ca2931cf9917,001,2022-04-29_03h13.05.366,classification_task,2021.2.3,Win32,238.0952381,5f5b64c313f9ca2931cf9917,626b377229c10585ec392f89,626b39f700b7e0b8d761c56d,,,,,,,,,,,,,,space,24.779,2,0,2,0,1,,,,,,,,,,,,,,,,,,,,,,,,,,,,,,,,,,,,,,,,,,,,,,,,,
,5f5b64c313f9ca2931cf9917,001,2022-04-29_03h13.05.366,classification_task,2021.2.3,Win32,238.0952381,5f5b64c313f9ca2931cf9917,626b377229c10585ec392f89,626b39f700b7e0b8d761c56d,,,,,,,,,,,,,,space,8.3026,3,0,3,0,1,,,,,,,,,,,,,,,,,,,,,,,,,,,,,,,,,,,,,,,,,,,,,,,,,
,5f5b64c313f9ca2931cf9917,001,2022-04-29_03h13.05.366,classification_task,2021.2.3,Win32,238.0952381,5f5b64c313f9ca2931cf9917,626b377229c10585ec392f89,626b39f700b7e0b8d761c56d,,,,,,,,,,,,,,space,48.6082,4,0,4,0,1,,,,,,,,,,,,,,,,,,,,,,,,,,,,,,,,,,,,,,,,,,,,,,,,,
,5f5b64c313f9ca2931cf9917,001,2022-04-29_03h13.05.366,classification_task,2021.2.3,Win32,238.0952381,5f5b64c313f9ca2931cf9917,626b377229c10585ec392f89,626b39f700b7e0b8d761c56d,,,,,,,,,,,,,,,,,,,,,space,29.714,,0,"[""0.289"",""0.358"",""0.818"",""0.238""]","[1,1,1,0]",0,0,0,0,1,0,0,,,0,FALSE,,,,,,,,,,,,,,,,,,,,,,,,,,,,,,,,
,5f5b64c313f9ca2931cf9917,001,2022-04-29_03h13.05.366,classification_task,2021.2.3,Win32,238.0952381,5f5b64c313f9ca2931cf9917,626b377229c10585ec392f89,626b39f700b7e0b8d761c56d,,,,,,,,,,,,,,,,,,,,,,,l,1,"[""0.106"",""0.424"",""0.521"",""0.648""]","[1,1,1,0]",0,1,1,1,1,1,1,,,0,FALSE,6.7558,,,,,,,,,,,,,,,,,,,,,,,,,,,,,,,
,5f5b64c313f9ca2931cf9917,001,2022-04-29_03h13.05.366,classification_task,2021.2.3,Win32,238.0952381,5f5b64c313f9ca2931cf9917,626b377229c10585ec392f89,626b39f700b7e0b8d761c56d,,,,,,,,,,,,,,,,,,,,,,,l,1,"[""0.069"",""0.154"",""0.584"",""0.782""]","[1,1,1,0]",0,2,2,2,1,1,0,,,0,FALSE,5.1332,,,,,,,,,,,,,,,,,,,,,,,,,,,,,,,
,5f5b64c313f9ca2931cf9917,001,2022-04-29_03h13.05.366,classification_task,2021.2.3,Win32,238.0952381,5f5b64c313f9ca2931cf9917,626b377229c10585ec392f89,626b39f700b7e0b8d761c56d,,,,,,,,,,,,,,,,,,,,,,,a,1,"[""0.289"",""0.358"",""0.643"",""0.856""]","[1,1,0,1]",0,3,3,3,1,0,0,,,0,FALSE,3.4371,,,,,,,,,,,,,,,,,,,,,,,,,,,,,,,
,5f5b64c313f9ca2931cf9917,001,2022-04-29_03h13.05.366,classification_task,2021.2.3,Win32,238.0952381,5f5b64c313f9ca2931cf9917,626b377229c10585ec392f89,626b39f700b7e0b8d761c56d,,,,,,,,,,,,,,,,,,,,,,,l,1,"[""0.651"",""0.424"",""0.521"",""0.688""]","[0,1,1,1]",0,4,4,4,1,1,1,,,0,FALSE,5.2841,,,,,,,,,,,,,,,,,,,,,,,,,,,,,,,
,5f5b64c313f9ca2931cf9917,001,2022-04-29_03h13.05.366,classification_task,2021.2.3,Win32,238.0952381,5f5b64c313f9ca2931cf9917,626b377229c10585ec392f89,626b39f700b7e0b8d761c56d,,,,,,,,,,,,,,,,,,,,,,,,0,"[""0.620"",""0.358"",""0.818"",""0.856""]","[0,1,1,1]",0,5,5,5,1,0,0,,,0,FALSE,,,,,,,,,,,,,,,,,,,,,,,,,,,,,,,,
,5f5b64c313f9ca2931cf9917,001,2022-04-29_03h13.05.366,classification_task,2021.2.3,Win32,238.0952381,5f5b64c313f9ca2931cf9917,626b377229c10585ec392f89,626b39f700b7e0b8d761c56d,,,,,,,,,,,,,,,,,,,,,,,l,1,"[""0.106"",""0.424"",""0.643"",""0.688""]","[1,1,0,1]",0,6,6,6,1,1,1,,,0,FALSE,2.4461,,,,,,,,,,,,,,,,,,,,,,,,,,,,,,,
,5f5b64c313f9ca2931cf9917,001,2022-04-29_03h13.05.366,classification_task,2021.2.3,Win32,238.0952381,5f5b64c313f9ca2931cf9917,626b377229c10585ec392f89,626b39f700b7e0b8d761c56d,,,,,,,,,,,,,,,,,,,,,,,a,1,"[""0.781"",""0.464"",""0.894"",""0.944""]","[0,1,1,1]",0,7,7,7,1,0,1,,,0,FALSE,3.7504,,,,,,,,,,,,,,,,,,,,,,,,,,,,,,,
,5f5b64c313f9ca2931cf9917,001,2022-04-29_03h13.05.366,classification_task,2021.2.3,Win32,238.0952381,5f5b64c313f9ca2931cf9917,626b377229c10585ec392f89,626b39f700b7e0b8d761c56d,,,,,,,,,,,,,,,,,,,,,,,l,1,"[""0.069"",""0.154"",""0.782"",""0.742""]","[1,1,0,1]",0,8,8,8,1,1,0,,,0,FALSE,4.9424,,,,,,,,,,,,,,,,,,,,,,,,,,,,,,,
,5f5b64c313f9ca2931cf9917,001,2022-04-29_03h13.05.366,classification_task,2021.2.3,Win32,238.0952381,5f5b64c313f9ca2931cf9917,626b377229c10585ec392f89,626b39f700b7e0b8d761c56d,,,,,,,,,,,,,,,,,,,,,,,a,1,"[""0.200"",""0.464"",""0.781"",""0.944""]","[1,1,0,1]",0,9,9,9,1,0,1,,,0,FALSE,2.9506,,,,,,,,,,,,,,,,,,,,,,,,,,,,,,,
,5f5b64c313f9ca2931cf9917,001,2022-04-29_03h13.05.366,classification_task,2021.2.3,Win32,238.0952381,5f5b64c313f9ca2931cf9917,626b377229c10585ec392f89,626b39f700b7e0b8d761c56d,,,,,,,,,,,,,,,,,,,,,,,a,1,"[""0.289"",""0.627"",""0.818"",""0.856""]","[1,0,1,1]",0,10,10,10,1,0,0,,,0,FALSE,6.0632,,,,,,,,,,,,,,,,,,,,,,,,,,,,,,,
,5f5b64c313f9ca2931cf9917,001,2022-04-29_03h13.05.366,classification_task,2021.2.3,Win32,238.0952381,5f5b64c313f9ca2931cf9917,626b377229c10585ec392f89,626b39f700b7e0b8d761c56d,,,,,,,,,,,,,,,,,,,,,,,l,1,"[""0.106"",""0.633"",""0.521"",""0.688""]","[1,0,1,1]",0,11,11,11,1,1,1,,,0,FALSE,2.2545,,,,,,,,,,,,,,,,,,,,,,,,,,,,,,,
,5f5b64c313f9ca2931cf9917,001,2022-04-29_03h13.05.366,classification_task,2021.2.3,Win32,238.0952381,5f5b64c313f9ca2931cf9917,626b377229c10585ec392f89,626b39f700b7e0b8d761c56d,,,,,,,,,,,,,,,,,,,,,,,a,1,"[""0.200"",""0.464"",""0.894"",""0.633""]","[1,1,1,0]",0,12,12,12,1,0,1,,,0,FALSE,1.6749,,,,,,,,,,,,,,,,,,,,,,,,,,,,,,,
,5f5b64c313f9ca2931cf9917,001,2022-04-29_03h13.05.366,classification_task,2021.2.3,Win32,238.0952381,5f5b64c313f9ca2931cf9917,626b377229c10585ec392f89,626b39f700b7e0b8d761c56d,,,,,,,,,,,,,,,,,,,,,,,l,1,"[""0.620"",""0.154"",""0.584"",""0.742""]","[0,1,1,1]",0,13,13,13,1,1,0,,,0,FALSE,4.2601,,,,,,,,,,,,,,,,,,,,,,,,,,,,,,,
,5f5b64c313f9ca2931cf9917,001,2022-04-29_03h13.05.366,classification_task,2021.2.3,Win32,238.0952381,5f5b64c313f9ca2931cf9917,626b377229c10585ec392f89,626b39f700b7e0b8d761c56d,,,,,,,,,,,,,,,,,,,,,,,l,1,"[""0.069"",""0.238"",""0.584"",""0.742""]","[1,0,1,1]",0,14,14,14,1,1,0,,,0,FALSE,4.4081,,,,,,,,,,,,,,,,,,,,,,,,,,,,,,,
,5f5b64c313f9ca2931cf9917,001,2022-04-29_03h13.05.366,classification_task,2021.2.3,Win32,238.0952381,5f5b64c313f9ca2931cf9917,626b377229c10585ec392f89,626b39f700b7e0b8d761c56d,,,,,,,,,,,,,,,,,,,,,,,a,1,"[""0.200"",""0.641"",""0.894"",""0.944""]","[1,0,1,1]",0,15,15,15,1,0,1,,,0,FALSE,4.8926,,,,,,,,,,,,,,,,,,,,,,,,,,,,,,,
,5f5b64c313f9ca2931cf9917,001,2022-04-29_03h13.05.366,classification_task,2021.2.3,Win32,238.0952381,5f5b64c313f9ca2931cf9917,626b377229c10585ec392f89,626b39f700b7e0b8d761c56d,,,,,,,,,,,,,,,,,,,,,,,a,1,"[""0.783"",""0.358"",""0.818"",""0.856""]","[0,1,1,1]",0,16,16,16,1,0,0,,,0,FALSE,2.3336,,,,,,,,,,,,,,,,,,,,,,,,,,,,,,,
,5f5b64c313f9ca2931cf9917,001,2022-04-29_03h13.05.366,classification_task,2021.2.3,Win32,238.0952381,5f5b64c313f9ca2931cf9917,626b377229c10585ec392f89,626b39f700b7e0b8d761c56d,,,,,,,,,,,,,,,,,,,,,,,l,1,"[""0.648"",""0.424"",""0.521"",""0.688""]","[0,1,1,1]",0,17,17,17,1,1,1,,,0,FALSE,3.2054,,,,,,,,,,,,,,,,,,,,,,,,,,,,,,,
,5f5b64c313f9ca2931cf9917,001,2022-04-29_03h13.05.366,classification_task,2021.2.3,Win32,238.0952381,5f5b64c313f9ca2931cf9917,626b377229c10585ec392f89,626b39f700b7e0b8d761c56d,,,,,,,,,,,,,,,,,,,,,,,l,1,"[""0.106"",""0.781"",""0.521"",""0.688""]","[1,0,1,1]",0,18,18,18,1,1,1,,,0,FALSE,1.4956,,,,,,,,,,,,,,,,,,,,,,,,,,,,,,,
,5f5b64c313f9ca2931cf9917,001,2022-04-29_03h13.05.366,classification_task,2021.2.3,Win32,238.0952381,5f5b64c313f9ca2931cf9917,626b377229c10585ec392f89,626b39f700b7e0b8d761c56d,,,,,,,,,,,,,,,,,,,,,,,l,0,"[""0.241"",""0.464"",""0.894"",""0.944""]","[0,1,1,1]",0,19,19,19,1,0,1,,,0,FALSE,3.747,,,,,,,,,,,,,,,,,,,,,,,,,,,,,,,
,5f5b64c313f9ca2931cf9917,001,2022-04-29_03h13.05.366,classification_task,2021.2.3,Win32,238.0952381,5f5b64c313f9ca2931cf9917,626b377229c10585ec392f89,626b39f700b7e0b8d761c56d,,,,,,,,,,,,,,,,,,,,,,,l,1,"[""0.069"",""0.154"",""0.584"",""0.651""]","[1,1,1,0]",0,20,20,20,1,1,0,,,0,FALSE,4.6881,,,,,,,,,,,,,,,,,,,,,,,,,,,,,,,
,5f5b64c313f9ca2931cf9917,001,2022-04-29_03h13.05.366,classification_task,2021.2.3,Win32,238.0952381,5f5b64c313f9ca2931cf9917,626b377229c10585ec392f89,626b39f700b7e0b8d761c56d,,,,,,,,,,,,,,,,,,,,,,,l,1,"[""0.106"",""0.424"",""0.521"",""0.651""]","[1,1,1,0]",0,21,21,21,1,1,1,,,0,FALSE,1.8122,,,,,,,,,,,,,,,,,,,,,,,,,,,,,,,
,5f5b64c313f9ca2931cf9917,001,2022-04-29_03h13.05.366,classification_task,2021.2.3,Win32,238.0952381,5f5b64c313f9ca2931cf9917,626b377229c10585ec392f89,626b39f700b7e0b8d761c56d,,,,,,,,,,,,,,,,,,,,,,,a,1,"[""0.289"",""0.358"",""0.781"",""0.856""]","[1,1,0,1]",0,22,22,22,1,0,0,,,0,FALSE,4.3767,,,,,,,,,,,,,,,,,,,,,,,,,,,,,,,
,5f5b64c313f9ca2931cf9917,001,2022-04-29_03h13.05.366,classification_task,2021.2.3,Win32,238.0952381,5f5b64c313f9ca2931cf9917,626b377229c10585ec392f89,626b39f700b7e0b8d761c56d,,,,,,,,,,,,,,,,,,,,,,,l,1,"[""0.069"",""0.154"",""0.238"",""0.742""]","[1,1,0,1]",0,23,23,23,1,1,0,,,0,FALSE,2.9714,,,,,,,,,,,,,,,,,,,,,,,,,,,,,,,
,5f5b64c313f9ca2931cf9917,001,2022-04-29_03h13.05.366,classification_task,2021.2.3,Win32,238.0952381,5f5b64c313f9ca2931cf9917,626b377229c10585ec392f89,626b39f700b7e0b8d761c56d,,,,,,,,,,,,,,,,,,,,,,,a,1,"[""0.200"",""0.633"",""0.894"",""0.944""]","[1,0,1,1]",0,24,24,24,1,0,1,,,0,FALSE,5.1304,,,,,,,,,,,,,,,,,,,,,,,,,,,,,,,
,5f5b64c313f9ca2931cf9917,001,2022-04-29_03h13.05.366,classification_task,2021.2.3,Win32,238.0952381,5f5b64c313f9ca2931cf9917,626b377229c10585ec392f89,626b39f700b7e0b8d761c56d,,,,,,,,,,,,,,,,,,,,,,,a,1,"[""0.289"",""0.358"",""0.818"",""0.781""]","[1,1,1,0]",0,25,25,25,1,0,0,,,0,FALSE,2.962,,,,,,,,,,,,,,,,,,,,,,,,,,,,,,,
,5f5b64c313f9ca2931cf9917,001,2022-04-29_03h13.05.366,classification_task,2021.2.3,Win32,238.0952381,5f5b64c313f9ca2931cf9917,626b377229c10585ec392f89,626b39f700b7e0b8d761c56d,,,,,,,,,,,,,,,,,,,,,,,a,1,"[""0.200"",""0.464"",""0.651"",""0.944""]","[1,1,0,1]",0,26,26,26,1,0,1,,,0,FALSE,2.6542,,,,,,,,,,,,,,,,,,,,,,,,,,,,,,,
,5f5b64c313f9ca2931cf9917,001,2022-04-29_03h13.05.366,classification_task,2021.2.3,Win32,238.0952381,5f5b64c313f9ca2931cf9917,626b377229c10585ec392f89,626b39f700b7e0b8d761c56d,,,,,,,,,,,,,,,,,,,,,,,a,1,"[""0.289"",""0.246"",""0.818"",""0.856""]","[1,0,1,1]",0,27,27,27,1,0,0,,,0,FALSE,5.222,,,,,,,,,,,,,,,,,,,,,,,,,,,,,,,
,5f5b64c313f9ca2931cf9917,001,2022-04-29_03h13.05.366,classification_task,2021.2.3,Win32,238.0952381,5f5b64c313f9ca2931cf9917,626b377229c10585ec392f89,626b39f700b7e0b8d761c56d,,,,,,,,,,,,,,,,,,,,,,,l,1,"[""0.106"",""0.424"",""0.781"",""0.688""]","[1,1,0,1]",0,28,28,28,1,1,1,,,0,FALSE,1.8885,,,,,,,,,,,,,,,,,,,,,,,,,,,,,,,
,5f5b64c313f9ca2931cf9917,001,2022-04-29_03h13.05.366,classification_task,2021.2.3,Win32,238.0952381,5f5b64c313f9ca2931cf9917,626b377229c10585ec392f89,626b39f700b7e0b8d761c56d,,,,,,,,,,,,,,,,,,,,,,,l,1,"[""0.069"",""0.648"",""0.584"",""0.742""]","[1,0,1,1]",0,29,29,29,1,1,0,,,0,FALSE,3.5477,,,,,,,,,,,,,,,,,,,,,,,,,,,,,,,
,5f5b64c313f9ca2931cf9917,001,2022-04-29_03h13.05.366,classification_task,2021.2.3,Win32,238.0952381,5f5b64c313f9ca2931cf9917,626b377229c10585ec392f89,626b39f700b7e0b8d761c56d,,,,,,,,,,,,,,,,,,,,,,,a,1,"[""0.200"",""0.464"",""0.894"",""0.783""]","[1,1,1,0]",0,30,30,30,1,0,1,,,0,FALSE,1.6418,,,,,,,,,,,,,,,,,,,,,,,,,,,,,,,
,5f5b64c313f9ca2931cf9917,001,2022-04-29_03h13.05.366,classification_task,2021.2.3,Win32,238.0952381,5f5b64c313f9ca2931cf9917,626b377229c10585ec392f89,626b39f700b7e0b8d761c56d,,,,,,,,,,,,,,,,,,,,,,,l,1,"[""0.643"",""0.154"",""0.584"",""0.742""]","[0,1,1,1]",0,31,31,31,1,1,0,,,0,FALSE,4.5248,,,,,,,,,,,,,,,,,,,,,,,,,,,,,,,
,5f5b64c313f9ca2931cf9917,001,2022-04-29_03h13.05.366,classification_task,2021.2.3,Win32,238.0952381,5f5b64c313f9ca2931cf9917,626b377229c10585ec392f89,626b39f700b7e0b8d761c56d,,,,,,,,,,,,,,,,,,,,,,,a,0,"[""0.246"",""0.424"",""0.521"",""0.688""]","[0,1,1,1]",0,32,32,32,1,1,1,,,0,FALSE,3.5895,,,,,,,,,,,,,,,,,,,,,,,,,,,,,,,
,5f5b64c313f9ca2931cf9917,001,2022-04-29_03h13.05.366,classification_task,2021.2.3,Win32,238.0952381,5f5b64c313f9ca2931cf9917,626b377229c10585ec392f89,626b39f700b7e0b8d761c56d,,,,,,,,,,,,,,,,,,,,,,,a,1,"[""0.289"",""0.358"",""0.781"",""0.856""]","[1,1,0,1]",0,33,33,33,1,0,0,,,0,FALSE,2.5657,,,,,,,,,,,,,,,,,,,,,,,,,,,,,,,
,5f5b64c313f9ca2931cf9917,001,2022-04-29_03h13.05.366,classification_task,2021.2.3,Win32,238.0952381,5f5b64c313f9ca2931cf9917,626b377229c10585ec392f89,626b39f700b7e0b8d761c56d,,,,,,,,,,,,,,,,,,,,,,,a,1,"[""0.200"",""0.781"",""0.894"",""0.944""]","[1,0,1,1]",0,34,34,34,1,0,1,,,0,FALSE,1.6116,,,,,,,,,,,,,,,,,,,,,,,,,,,,,,,
,5f5b64c313f9ca2931cf9917,001,2022-04-29_03h13.05.366,classification_task,2021.2.3,Win32,238.0952381,5f5b64c313f9ca2931cf9917,626b377229c10585ec392f89,626b39f700b7e0b8d761c56d,,,,,,,,,,,,,,,,,,,,,,,a,0,"[""0.069"",""0.241"",""0.584"",""0.742""]","[1,0,1,1]",0,35,35,35,1,1,0,,,0,FALSE,1.7794,,,,,,,,,,,,,,,,,,,,,,,,,,,,,,,
,5f5b64c313f9ca2931cf9917,001,2022-04-29_03h13.05.366,classification_task,2021.2.3,Win32,238.0952381,5f5b64c313f9ca2931cf9917,626b377229c10585ec392f89,626b39f700b7e0b8d761c56d,,,,,,,,,,,,,,,,,,,,,,,l,0,"[""0.781"",""0.464"",""0.894"",""0.944""]","[0,1,1,1]",0,36,36,36,1,0,1,,,0,FALSE,1.5964,,,,,,,,,,,,,,,,,,,,,,,,,,,,,,,
,5f5b64c313f9ca2931cf9917,001,2022-04-29_03h13.05.366,classification_task,2021.2.3,Win32,238.0952381,5f5b64c313f9ca2931cf9917,626b377229c10585ec392f89,626b39f700b7e0b8d761c56d,,,,,,,,,,,,,,,,,,,,,,,l,0,"[""0.783"",""0.358"",""0.818"",""0.856""]","[0,1,1,1]",0,37,37,37,1,0,0,,,0,FALSE,1.2004,,,,,,,,,,,,,,,,,,,,,,,,,,,,,,,
,5f5b64c313f9ca2931cf9917,001,2022-04-29_03h13.05.366,classification_task,2021.2.3,Win32,238.0952381,5f5b64c313f9ca2931cf9917,626b377229c10585ec392f89,626b39f700b7e0b8d761c56d,,,,,,,,,,,,,,,,,,,,,,,l,0,"[""0.200"",""0.464"",""0.035"",""0.944""]","[1,1,0,1]",0,38,38,38,1,0,1,,,0,FALSE,1.0915,,,,,,,,,,,,,,,,,,,,,,,,,,,,,,,
,5f5b64c313f9ca2931cf9917,001,2022-04-29_03h13.05.366,classification_task,2021.2.3,Win32,238.0952381,5f5b64c313f9ca2931cf9917,626b377229c10585ec392f89,626b39f700b7e0b8d761c56d,,,,,,,,,,,,,,,,,,,,,,,l,1,"[""0.069"",""0.154"",""0.651"",""0.742""]","[1,1,0,1]",0,39,39,39,1,1,0,,,0,FALSE,1.3501,,,,,,,,,,,,,,,,,,,,,,,,,,,,,,,
,5f5b64c313f9ca2931cf9917,001,2022-04-29_03h13.05.366,classification_task,2021.2.3,Win32,238.0952381,5f5b64c313f9ca2931cf9917,626b377229c10585ec392f89,626b39f700b7e0b8d761c56d,,,,,,,,,,,,,,,,,,,,,,,l,1,"[""0.069"",""0.154"",""0.584"",""0.620""]","[1,1,1,0]",0,40,40,40,1,1,0,,,0,FALSE,1.9832,,,,,,,,,,,,,,,,,,,,,,,,,,,,,,,
,5f5b64c313f9ca2931cf9917,001,2022-04-29_03h13.05.366,classification_task,2021.2.3,Win32,238.0952381,5f5b64c313f9ca2931cf9917,626b377229c10585ec392f89,626b39f700b7e0b8d761c56d,,,,,,,,,,,,,,,,,,,,,,,l,1,"[""0.106"",""0.424"",""0.241"",""0.688""]","[1,1,0,1]",0,41,41,41,1,1,1,,,0,FALSE,1.5913,,,,,,,,,,,,,,,,,,,,,,,,,,,,,,,
,5f5b64c313f9ca2931cf9917,001,2022-04-29_03h13.05.366,classification_task,2021.2.3,Win32,238.0952381,5f5b64c313f9ca2931cf9917,626b377229c10585ec392f89,626b39f700b7e0b8d761c56d,,,,,,,,,,,,,,,,,,,,,,,a,1,"[""0.289"",""0.035"",""0.818"",""0.856""]","[1,0,1,1]",0,42,42,42,1,0,0,,,0,FALSE,1.8488,,,,,,,,,,,,,,,,,,,,,,,,,,,,,,,
,5f5b64c313f9ca2931cf9917,001,2022-04-29_03h13.05.366,classification_task,2021.2.3,Win32,238.0952381,5f5b64c313f9ca2931cf9917,626b377229c10585ec392f89,626b39f700b7e0b8d761c56d,,,,,,,,,,,,,,,,,,,,,,,a,0,"[""0.106"",""0.424"",""0.521"",""0.238""]","[1,1,1,0]",0,43,43,43,1,1,1,,,0,FALSE,2.1795,,,,,,,,,,,,,,,,,,,,,,,,,,,,,,,
,5f5b64c313f9ca2931cf9917,001,2022-04-29_03h13.05.366,classification_task,2021.2.3,Win32,238.0952381,5f5b64c313f9ca2931cf9917,626b377229c10585ec392f89,626b39f700b7e0b8d761c56d,,,,,,,,,,,,,,,,,,,,,,,l,1,"[""0.106"",""0.781"",""0.521"",""0.688""]","[1,0,1,1]",0,44,44,44,1,1,1,,,0,FALSE,1.7001,,,,,,,,,,,,,,,,,,,,,,,,,,,,,,,
,5f5b64c313f9ca2931cf9917,001,2022-04-29_03h13.05.366,classification_task,2021.2.3,Win32,238.0952381,5f5b64c313f9ca2931cf9917,626b377229c10585ec392f89,626b39f700b7e0b8d761c56d,,,,,,,,,,,,,,,,,,,,,,,l,0,"[""0.200"",""0.464"",""0.894"",""0.238""]","[1,1,1,0]",0,45,45,45,1,0,1,,,0,FALSE,1.3802,,,,,,,,,,,,,,,,,,,,,,,,,,,,,,,
,5f5b64c313f9ca2931cf9917,001,2022-04-29_03h13.05.366,classification_task,2021.2.3,Win32,238.0952381,5f5b64c313f9ca2931cf9917,626b377229c10585ec392f89,626b39f700b7e0b8d761c56d,,,,,,,,,,,,,,,,,,,,,,,l,0,"[""0.289"",""0.358"",""0.818"",""0.246""]","[1,1,1,0]",0,46,46,46,1,0,0,,,0,FALSE,1.5834,,,,,,,,,,,,,,,,,,,,,,,,,,,,,,,
,5f5b64c313f9ca2931cf9917,001,2022-04-29_03h13.05.366,classification_task,2021.2.3,Win32,238.0952381,5f5b64c313f9ca2931cf9917,626b377229c10585ec392f89,626b39f700b7e0b8d761c56d,,,,,,,,,,,,,,,,,,,,,,,a,0,"[""0.241"",""0.154"",""0.584"",""0.742""]","[0,1,1,1]",0,47,47,47,1,1,0,,,0,FALSE,1.3033,,,,,,,,,,,,,,,,,,,,,,,,,,,,,,,
,5f5b64c313f9ca2931cf9917,001,2022-04-29_03h13.05.366,classification_task,2021.2.3,Win32,238.0952381,5f5b64c313f9ca2931cf9917,626b377229c10585ec392f89,626b39f700b7e0b8d761c56d,,,,,,,,,,,,,,,,,,,,,,,a,0,"[""0.069"",""0.154"",""0.241"",""0.742""]","[1,1,0,1]",0,48,48,48,1,1,0,,,0,FALSE,0.9041,,,,,,,,,,,,,,,,,,,,,,,,,,,,,,,
,5f5b64c313f9ca2931cf9917,001,2022-04-29_03h13.05.366,classification_task,2021.2.3,Win32,238.0952381,5f5b64c313f9ca2931cf9917,626b377229c10585ec392f89,626b39f700b7e0b8d761c56d,,,,,,,,,,,,,,,,,,,,,,,a,1,"[""0.289"",""0.782"",""0.818"",""0.856""]","[1,0,1,1]",0,49,49,49,1,0,0,,,0,FALSE,2.0379,,,,,,,,,,,,,,,,,,,,,,,,,,,,,,,
,5f5b64c313f9ca2931cf9917,001,2022-04-29_03h13.05.366,classification_task,2021.2.3,Win32,238.0952381,5f5b64c313f9ca2931cf9917,626b377229c10585ec392f89,626b39f700b7e0b8d761c56d,,,,,,,,,,,,,,,,,,,,,,,l,1,"[""0.651"",""0.154"",""0.584"",""0.742""]","[0,1,1,1]",0,50,50,50,1,1,0,,,0,FALSE,1.8139,,,,,,,,,,,,,,,,,,,,,,,,,,,,,,,
,5f5b64c313f9ca2931cf9917,001,2022-04-29_03h13.05.366,classification_task,2021.2.3,Win32,238.0952381,5f5b64c313f9ca2931cf9917,626b377229c10585ec392f89,626b39f700b7e0b8d761c56d,,,,,,,,,,,,,,,,,,,,,,,l,0,"[""0.782"",""0.464"",""0.894"",""0.944""]","[0,1,1,1]",0,51,51,51,1,0,1,,,0,FALSE,1.2364,,,,,,,,,,,,,,,,,,,,,,,,,,,,,,,
,5f5b64c313f9ca2931cf9917,001,2022-04-29_03h13.05.366,classification_task,2021.2.3,Win32,238.0952381,5f5b64c313f9ca2931cf9917,626b377229c10585ec392f89,626b39f700b7e0b8d761c56d,,,,,,,,,,,,,,,,,,,,,,,l,1,"[""0.069"",""0.781"",""0.584"",""0.742""]","[1,0,1,1]",0,52,52,52,1,1,0,,,0,FALSE,1.0793,,,,,,,,,,,,,,,,,,,,,,,,,,,,,,,
,5f5b64c313f9ca2931cf9917,001,2022-04-29_03h13.05.366,classification_task,2021.2.3,Win32,238.0952381,5f5b64c313f9ca2931cf9917,626b377229c10585ec392f89,626b39f700b7e0b8d761c56d,,,,,,,,,,,,,,,,,,,,,,,a,0,"[""0.106"",""0.424"",""0.627"",""0.688""]","[1,1,0,1]",0,53,53,53,1,1,1,,,0,FALSE,1.7834,,,,,,,,,,,,,,,,,,,,,,,,,,,,,,,
,5f5b64c313f9ca2931cf9917,001,2022-04-29_03h13.05.366,classification_task,2021.2.3,Win32,238.0952381,5f5b64c313f9ca2931cf9917,626b377229c10585ec392f89,626b39f700b7e0b8d761c56d,,,,,,,,,,,,,,,,,,,,,,,l,0,"[""0.289"",""0.358"",""0.633"",""0.856""]","[1,1,0,1]",0,54,54,54,1,0,0,,,0,FALSE,2.6838,,,,,,,,,,,,,,,,,,,,,,,,,,,,,,,
,5f5b64c313f9ca2931cf9917,001,2022-04-29_03h13.05.366,classification_task,2021.2.3,Win32,238.0952381,5f5b64c313f9ca2931cf9917,626b377229c10585ec392f89,626b39f700b7e0b8d761c56d,,,,,,,,,,,,,,,,,,,,,,,l,0,"[""0.289"",""0.358"",""0.818"",""0.620""]","[1,1,1,0]",0,55,55,55,1,0,0,,,0,FALSE,1.0449,,,,,,,,,,,,,,,,,,,,,,,,,,,,,,,
,5f5b64c313f9ca2931cf9917,001,2022-04-29_03h13.05.366,classification_task,2021.2.3,Win32,238.0952381,5f5b64c313f9ca2931cf9917,626b377229c10585ec392f89,626b39f700b7e0b8d761c56d,,,,,,,,,,,,,,,,,,,,,,,l,0,"[""0.200"",""0.620"",""0.894"",""0.944""]","[1,0,1,1]",0,56,56,56,1,0,1,,,0,FALSE,0.9467,,,,,,,,,,,,,,,,,,,,,,,,,,,,,,,
,5f5b64c313f9ca2931cf9917,001,2022-04-29_03h13.05.366,classification_task,2021.2.3,Win32,238.0952381,5f5b64c313f9ca2931cf9917,626b377229c10585ec392f89,626b39f700b7e0b8d761c56d,,,,,,,,,,,,,,,,,,,,,,,l,0,"[""0.200"",""0.464"",""0.894"",""0.782""]","[1,1,1,0]",0,57,57,57,1,0,1,,,0,FALSE,1.8591,,,,,,,,,,,,,,,,,,,,,,,,,,,,,,,
,5f5b64c313f9ca2931cf9917,001,2022-04-29_03h13.05.366,classification_task,2021.2.3,Win32,238.0952381,5f5b64c313f9ca2931cf9917,626b377229c10585ec392f89,626b39f700b7e0b8d761c56d,,,,,,,,,,,,,,,,,,,,,,,l,1,"[""0.069"",""0.154"",""0.584"",""0.782""]","[1,1,1,0]",0,58,58,58,1,1,0,,,0,FALSE,0.951,,,,,,,,,,,,,,,,,,,,,,,,,,,,,,,
,5f5b64c313f9ca2931cf9917,001,2022-04-29_03h13.05.366,classification_task,2021.2.3,Win32,238.0952381,5f5b64c313f9ca2931cf9917,626b377229c10585ec392f89,626b39f700b7e0b8d761c56d,,,,,,,,,,,,,,,,,,,,,,,l,0,"[""0.200"",""0.464"",""0.633"",""0.944""]","[1,1,0,1]",0,59,59,59,1,0,1,,,0,FALSE,2.8514,,,,,,,,,,,,,,,,,,,,,,,,,,,,,,,
,5f5b64c313f9ca2931cf9917,001,2022-04-29_03h13.05.366,classification_task,2021.2.3,Win32,238.0952381,5f5b64c313f9ca2931cf9917,626b377229c10585ec392f89,626b39f700b7e0b8d761c56d,,,,,,,,,,,,,,,,,,,,,,,l,1,"[""0.106"",""0.424"",""0.521"",""0.648""]","[1,1,1,0]",0,60,60,60,1,1,1,,,0,FALSE,1.383,,,,,,,,,,,,,,,,,,,,,,,,,,,,,,,
,5f5b64c313f9ca2931cf9917,001,2022-04-29_03h13.05.366,classification_task,2021.2.3,Win32,238.0952381,5f5b64c313f9ca2931cf9917,626b377229c10585ec392f89,626b39f700b7e0b8d761c56d,,,,,,,,,,,,,,,,,,,,,,,a,0,"[""0.781"",""0.424"",""0.521"",""0.688""]","[0,1,1,1]",0,61,61,61,1,1,1,,,0,FALSE,1.3616,,,,,,,,,,,,,,,,,,,,,,,,,,,,,,,
,5f5b64c313f9ca2931cf9917,001,2022-04-29_03h13.05.366,classification_task,2021.2.3,Win32,238.0952381,5f5b64c313f9ca2931cf9917,626b377229c10585ec392f89,626b39f700b7e0b8d761c56d,,,,,,,,,,,,,,,,,,,,,,,a,0,"[""0.106"",""0.035"",""0.521"",""0.688""]","[1,0,1,1]",0,62,62,62,1,1,1,,,0,FALSE,2.4923,,,,,,,,,,,,,,,,,,,,,,,,,,,,,,,
,5f5b64c313f9ca2931cf9917,001,2022-04-29_03h13.05.366,classification_task,2021.2.3,Win32,238.0952381,5f5b64c313f9ca2931cf9917,626b377229c10585ec392f89,626b39f700b7e0b8d761c56d,,,,,,,,,,,,,,,,,,,,,,,a,1,"[""0.648"",""0.358"",""0.818"",""0.856""]","[0,1,1,1]",0,63,63,63,1,0,0,,,0,FALSE,1.3234,,,,,,,,,,,,,,,,,,,,,,,,,,,,,,,
,5f5b64c313f9ca2931cf9917,001,2022-04-29_03h13.05.366,classification_task,2021.2.3,Win32,238.0952381,5f5b64c313f9ca2931cf9917,626b377229c10585ec392f89,626b39f700b7e0b8d761c56d,,,,,,,,,,,,,,,,,,,,,,,,,,,,,,,,,,,,,,,0, ,,0,0.650474319,538.1445,0,0,0,0,1,2,1,,,,,,,,,,,,,,,,,,
,5f5b64c313f9ca2931cf9917,001,2022-04-29_03h13.05.366,classification_task,2021.2.3,Win32,238.0952381,5f5b64c313f9ca2931cf9917,626b377229c10585ec392f89,626b39f700b7e0b8d761c56d,,,,,,,,,,,,,,,,,,,,,,,,,,,,,,,,,,,,,,,1,  ,,0,8.633780949,549.905,0,0,0,0,1,2,1,,,,,,,,,,,,,,,,,,
,5f5b64c313f9ca2931cf9917,001,2022-04-29_03h13.05.366,classification_task,2021.2.3,Win32,238.0952381,5f5b64c313f9ca2931cf9917,626b377229c10585ec392f89,626b39f700b7e0b8d761c56d,,,,,,,,,,,,,,,,,,,,,,,,,,,,,,,,,,,,,,,2,  ,,0,5.055057287,562.5778,0,0,0,0,1,2,1,,,,,,,,,,,,,,,,,,
,5f5b64c313f9ca2931cf9917,001,2022-04-29_03h13.05.366,classification_task,2021.2.3,Win32,238.0952381,5f5b64c313f9ca2931cf9917,626b377229c10585ec392f89,626b39f700b7e0b8d761c56d,,,,,,,,,,,,,,,,,,,,,,,,,,,,,,,,,,,,,,,,,,,,,0,0,0,0,1,,1,,,,,,,,,,,,,,,,,,
,5f5b64c313f9ca2931cf9917,001,2022-04-29_03h13.05.366,classification_task,2021.2.3,Win32,238.0952381,5f5b64c313f9ca2931cf9917,626b377229c10585ec392f89,626b39f700b7e0b8d761c56d,,,,,,,,,,,,,,,,,,,,,space,11.2051,a,1,"[""0.200"",""0.464"",""0.241"",""0.944""]","[1,1,0,1]",0,0,0,0,1,0,1,,,0,FALSE,2.6453,,,,,,,,,,,,,,,,,,,,,,,,,,,,,,,
,5f5b64c313f9ca2931cf9917,001,2022-04-29_03h13.05.366,classification_task,2021.2.3,Win32,238.0952381,5f5b64c313f9ca2931cf9917,626b377229c10585ec392f89,626b39f700b7e0b8d761c56d,,,,,,,,,,,,,,,,,,,,,,,a,1,"[""0.289"",""0.643"",""0.818"",""0.856""]","[1,0,1,1]",0,1,1,1,1,0,0,,,0,FALSE,3.1936,,,,,,,,,,,,,,,,,,,,,,,,,,,,,,,
,5f5b64c313f9ca2931cf9917,001,2022-04-29_03h13.05.366,classification_task,2021.2.3,Win32,238.0952381,5f5b64c313f9ca2931cf9917,626b377229c10585ec392f89,626b39f700b7e0b8d761c56d,,,,,,,,,,,,,,,,,,,,,,,l,0,"[""0.641"",""0.464"",""0.894"",""0.944""]","[0,1,1,1]",0,2,2,2,1,0,1,,,0,FALSE,1.5391,,,,,,,,,,,,,,,,,,,,,,,,,,,,,,,
,5f5b64c313f9ca2931cf9917,001,2022-04-29_03h13.05.366,classification_task,2021.2.3,Win32,238.0952381,5f5b64c313f9ca2931cf9917,626b377229c10585ec392f89,626b39f700b7e0b8d761c56d,,,,,,,,,,,,,,,,,,,,,,,l,1,"[""0.069"",""0.651"",""0.584"",""0.742""]","[1,0,1,1]",0,3,3,3,1,1,0,,,0,FALSE,1.3107,,,,,,,,,,,,,,,,,,,,,,,,,,,,,,,
,5f5b64c313f9ca2931cf9917,001,2022-04-29_03h13.05.366,classification_task,2021.2.3,Win32,238.0952381,5f5b64c313f9ca2931cf9917,626b377229c10585ec392f89,626b39f700b7e0b8d761c56d,,,,,,,,,,,,,,,,,,,,,,,l,1,"[""0.106"",""0.424"",""0.521"",""0.627""]","[1,1,1,0]",0,4,4,4,1,1,1,,,0,FALSE,3.7904,,,,,,,,,,,,,,,,,,,,,,,,,,,,,,,
,5f5b64c313f9ca2931cf9917,001,2022-04-29_03h13.05.366,classification_task,2021.2.3,Win32,238.0952381,5f5b64c313f9ca2931cf9917,626b377229c10585ec392f89,626b39f700b7e0b8d761c56d,,,,,,,,,,,,,,,,,,,,,,,a,0,"[""0.643"",""0.424"",""0.521"",""0.688""]","[0,1,1,1]",0,5,5,5,1,1,1,,,0,FALSE,2.0245,,,,,,,,,,,,,,,,,,,,,,,,,,,,,,,
,5f5b64c313f9ca2931cf9917,001,2022-04-29_03h13.05.366,classification_task,2021.2.3,Win32,238.0952381,5f5b64c313f9ca2931cf9917,626b377229c10585ec392f89,626b39f700b7e0b8d761c56d,,,,,,,,,,,,,,,,,,,,,,,a,0,"[""0.783"",""0.154"",""0.584"",""0.742""]","[0,1,1,1]",0,6,6,6,1,1,0,,,0,FALSE,1.5147,,,,,,,,,,,,,,,,,,,,,,,,,,,,,,,
,5f5b64c313f9ca2931cf9917,001,2022-04-29_03h13.05.366,classification_task,2021.2.3,Win32,238.0952381,5f5b64c313f9ca2931cf9917,626b377229c10585ec392f89,626b39f700b7e0b8d761c56d,,,,,,,,,,,,,,,,,,,,,,,a,0,"[""0.069"",""0.154"",""0.620"",""0.742""]","[1,1,0,1]",0,7,7,7,1,1,0,,,0,FALSE,2.3877,,,,,,,,,,,,,,,,,,,,,,,,,,,,,,,
,5f5b64c313f9ca2931cf9917,001,2022-04-29_03h13.05.366,classification_task,2021.2.3,Win32,238.0952381,5f5b64c313f9ca2931cf9917,626b377229c10585ec392f89,626b39f700b7e0b8d761c56d,,,,,,,,,,,,,,,,,,,,,,,a,0,"[""0.106"",""0.620"",""0.521"",""0.688""]","[1,0,1,1]",0,8,8,8,1,1,1,,,0,FALSE,0.7842,,,,,,,,,,,,,,,,,,,,,,,,,,,,,,,
,5f5b64c313f9ca2931cf9917,001,2022-04-29_03h13.05.366,classification_task,2021.2.3,Win32,238.0952381,5f5b64c313f9ca2931cf9917,626b377229c10585ec392f89,626b39f700b7e0b8d761c56d,,,,,,,,,,,,,,,,,,,,,,,a,0,"[""0.069"",""0.154"",""0.584"",""0.627""]","[1,1,1,0]",0,9,9,9,1,1,0,,,0,FALSE,0.573,,,,,,,,,,,,,,,,,,,,,,,,,,,,,,,
,5f5b64c313f9ca2931cf9917,001,2022-04-29_03h13.05.366,classification_task,2021.2.3,Win32,238.0952381,5f5b64c313f9ca2931cf9917,626b377229c10585ec392f89,626b39f700b7e0b8d761c56d,,,,,,,,,,,,,,,,,,,,,,,a,1,"[""0.289"",""0.358"",""0.818"",""0.246""]","[1,1,1,0]",0,10,10,10,1,0,0,,,0,FALSE,0.6253,,,,,,,,,,,,,,,,,,,,,,,,,,,,,,,
,5f5b64c313f9ca2931cf9917,001,2022-04-29_03h13.05.366,classification_task,2021.2.3,Win32,238.0952381,5f5b64c313f9ca2931cf9917,626b377229c10585ec392f89,626b39f700b7e0b8d761c56d,,,,,,,,,,,,,,,,,,,,,,,a,1,"[""0.200"",""0.620"",""0.894"",""0.944""]","[1,0,1,1]",0,11,11,11,1,0,1,,,0,FALSE,2.5657,,,,,,,,,,,,,,,,,,,,,,,,,,,,,,,
,5f5b64c313f9ca2931cf9917,001,2022-04-29_03h13.05.366,classification_task,2021.2.3,Win32,238.0952381,5f5b64c313f9ca2931cf9917,626b377229c10585ec392f89,626b39f700b7e0b8d761c56d,,,,,,,,,,,,,,,,,,,,,,,l,0,"[""0.289"",""0.358"",""0.641"",""0.856""]","[1,1,0,1]",0,12,12,12,1,0,0,,,0,FALSE,1.3144,,,,,,,,,,,,,,,,,,,,,,,,,,,,,,,
,5f5b64c313f9ca2931cf9917,001,2022-04-29_03h13.05.366,classification_task,2021.2.3,Win32,238.0952381,5f5b64c313f9ca2931cf9917,626b377229c10585ec392f89,626b39f700b7e0b8d761c56d,,,,,,,,,,,,,,,,,,,,,,,l,0,"[""0.643"",""0.358"",""0.818"",""0.856""]","[0,1,1,1]",0,13,13,13,1,0,0,,,0,FALSE,1.0168,,,,,,,,,,,,,,,,,,,,,,,,,,,,,,,
,5f5b64c313f9ca2931cf9917,001,2022-04-29_03h13.05.366,classification_task,2021.2.3,Win32,238.0952381,5f5b64c313f9ca2931cf9917,626b377229c10585ec392f89,626b39f700b7e0b8d761c56d,,,,,,,,,,,,,,,,,,,,,,,l,0,"[""0.200"",""0.464"",""0.894"",""0.783""]","[1,1,1,0]",0,14,14,14,1,0,1,,,0,FALSE,2.2026,,,,,,,,,,,,,,,,,,,,,,,,,,,,,,,
,5f5b64c313f9ca2931cf9917,001,2022-04-29_03h13.05.366,classification_task,2021.2.3,Win32,238.0952381,5f5b64c313f9ca2931cf9917,626b377229c10585ec392f89,626b39f700b7e0b8d761c56d,,,,,,,,,,,,,,,,,,,,,,,l,1,"[""0.106"",""0.424"",""0.620"",""0.688""]","[1,1,0,1]",0,15,15,15,1,1,1,,,0,FALSE,2.4121,,,,,,,,,,,,,,,,,,,,,,,,,,,,,,,
,5f5b64c313f9ca2931cf9917,001,2022-04-29_03h13.05.366,classification_task,2021.2.3,Win32,238.0952381,5f5b64c313f9ca2931cf9917,626b377229c10585ec392f89,626b39f700b7e0b8d761c56d,,,,,,,,,,,,,,,,,,,,,,,a,0,"[""0.069"",""0.627"",""0.584"",""0.742""]","[1,0,1,1]",0,16,16,16,1,1,0,,,0,FALSE,3.0261,,,,,,,,,,,,,,,,,,,,,,,,,,,,,,,
,5f5b64c313f9ca2931cf9917,001,2022-04-29_03h13.05.366,classification_task,2021.2.3,Win32,238.0952381,5f5b64c313f9ca2931cf9917,626b377229c10585ec392f89,626b39f700b7e0b8d761c56d,,,,,,,,,,,,,,,,,,,,,,,a,1,"[""0.289"",""0.648"",""0.818"",""0.856""]","[1,0,1,1]",0,17,17,17,1,0,0,,,0,FALSE,1.4698,,,,,,,,,,,,,,,,,,,,,,,,,,,,,,,
,5f5b64c313f9ca2931cf9917,001,2022-04-29_03h13.05.366,classification_task,2021.2.3,Win32,238.0952381,5f5b64c313f9ca2931cf9917,626b377229c10585ec392f89,626b39f700b7e0b8d761c56d,,,,,,,,,,,,,,,,,,,,,,,l,0,"[""0.633"",""0.358"",""0.818"",""0.856""]","[0,1,1,1]",0,18,18,18,1,0,0,,,0,FALSE,1.4218,,,,,,,,,,,,,,,,,,,,,,,,,,,,,,,
,5f5b64c313f9ca2931cf9917,001,2022-04-29_03h13.05.366,classification_task,2021.2.3,Win32,238.0952381,5f5b64c313f9ca2931cf9917,626b377229c10585ec392f89,626b39f700b7e0b8d761c56d,,,,,,,,,,,,,,,,,,,,,,,a,0,"[""0.069"",""0.154"",""0.641"",""0.742""]","[1,1,0,1]",0,19,19,19,1,1,0,,,0,FALSE,4.4877,,,,,,,,,,,,,,,,,,,,,,,,,,,,,,,
,5f5b64c313f9ca2931cf9917,001,2022-04-29_03h13.05.366,classification_task,2021.2.3,Win32,238.0952381,5f5b64c313f9ca2931cf9917,626b377229c10585ec392f89,626b39f700b7e0b8d761c56d,,,,,,,,,,,,,,,,,,,,,,,l,0,"[""0.200"",""0.238"",""0.894"",""0.944""]","[1,0,1,1]",0,20,20,20,1,0,1,,,0,FALSE,2.2772,,,,,,,,,,,,,,,,,,,,,,,,,,,,,,,
,5f5b64c313f9ca2931cf9917,001,2022-04-29_03h13.05.366,classification_task,2021.2.3,Win32,238.0952381,5f5b64c313f9ca2931cf9917,626b377229c10585ec392f89,626b39f700b7e0b8d761c56d,,,,,,,,,,,,,,,,,,,,,,,l,1,"[""0.106"",""0.783"",""0.521"",""0.688""]","[1,0,1,1]",0,21,21,21,1,1,1,,,0,FALSE,1.3882,,,,,,,,,,,,,,,,,,,,,,,,,,,,,,,
,5f5b64c313f9ca2931cf9917,001,2022-04-29_03h13.05.366,classification_task,2021.2.3,Win32,238.0952381,5f5b64c313f9ca2931cf9917,626b377229c10585ec392f89,626b39f700b7e0b8d761c56d,,,,,,,,,,,,,,,,,,,,,,,a,1,"[""0.289"",""0.358"",""0.783"",""0.856""]","[1,1,0,1]",0,22,22,22,1,0,0,,,0,FALSE,1.722,,,,,,,,,,,,,,,,,,,,,,,,,,,,,,,
,5f5b64c313f9ca2931cf9917,001,2022-04-29_03h13.05.366,classification_task,2021.2.3,Win32,238.0952381,5f5b64c313f9ca2931cf9917,626b377229c10585ec392f89,626b39f700b7e0b8d761c56d,,,,,,,,,,,,,,,,,,,,,,,a,1,"[""0.782"",""0.464"",""0.894"",""0.944""]","[0,1,1,1]",0,23,23,23,1,0,1,,,0,FALSE,1.4828,,,,,,,,,,,,,,,,,,,,,,,,,,,,,,,
,5f5b64c313f9ca2931cf9917,001,2022-04-29_03h13.05.366,classification_task,2021.2.3,Win32,238.0952381,5f5b64c313f9ca2931cf9917,626b377229c10585ec392f89,626b39f700b7e0b8d761c56d,,,,,,,,,,,,,,,,,,,,,,,a,1,"[""0.200"",""0.464"",""0.246"",""0.944""]","[1,1,0,1]",0,24,24,24,1,0,1,,,0,FALSE,3.272,,,,,,,,,,,,,,,,,,,,,,,,,,,,,,,
,5f5b64c313f9ca2931cf9917,001,2022-04-29_03h13.05.366,classification_task,2021.2.3,Win32,238.0952381,5f5b64c313f9ca2931cf9917,626b377229c10585ec392f89,626b39f700b7e0b8d761c56d,,,,,,,,,,,,,,,,,,,,,,,l,1,"[""0.106"",""0.424"",""0.521"",""0.633""]","[1,1,1,0]",0,25,25,25,1,1,1,,,0,FALSE,1.5986,,,,,,,,,,,,,,,,,,,,,,,,,,,,,,,
,5f5b64c313f9ca2931cf9917,001,2022-04-29_03h13.05.366,classification_task,2021.2.3,Win32,238.0952381,5f5b64c313f9ca2931cf9917,626b377229c10585ec392f89,626b39f700b7e0b8d761c56d,,,,,,,,,,,,,,,,,,,,,,,a,0,"[""0.069"",""0.154"",""0.584"",""0.781""]","[1,1,1,0]",0,26,26,26,1,1,0,,,0,FALSE,2.072,,,,,,,,,,,,,,,,,,,,,,,,,,,,,,,
,5f5b64c313f9ca2931cf9917,001,2022-04-29_03h13.05.366,classification_task,2021.2.3,Win32,238.0952381,5f5b64c313f9ca2931cf9917,626b377229c10585ec392f89,626b39f700b7e0b8d761c56d,,,,,,,,,,,,,,,,,,,,,,,a,0,"[""0.782"",""0.154"",""0.584"",""0.742""]","[0,1,1,1]",0,27,27,27,1,1,0,,,0,FALSE,2.0217,,,,,,,,,,,,,,,,,,,,,,,,,,,,,,,
,5f5b64c313f9ca2931cf9917,001,2022-04-29_03h13.05.366,classification_task,2021.2.3,Win32,238.0952381,5f5b64c313f9ca2931cf9917,626b377229c10585ec392f89,626b39f700b7e0b8d761c56d,,,,,,,,,,,,,,,,,,,,,,,a,1,"[""0.289"",""0.358"",""0.818"",""0.633""]","[1,1,1,0]",0,28,28,28,1,0,0,,,0,FALSE,1.153,,,,,,,,,,,,,,,,,,,,,,,,,,,,,,,
,5f5b64c313f9ca2931cf9917,001,2022-04-29_03h13.05.366,classification_task,2021.2.3,Win32,238.0952381,5f5b64c313f9ca2931cf9917,626b377229c10585ec392f89,626b39f700b7e0b8d761c56d,,,,,,,,,,,,,,,,,,,,,,,a,0,"[""0.627"",""0.424"",""0.521"",""0.688""]","[0,1,1,1]",0,29,29,29,1,1,1,,,0,FALSE,1.2733,,,,,,,,,,,,,,,,,,,,,,,,,,,,,,,
,5f5b64c313f9ca2931cf9917,001,2022-04-29_03h13.05.366,classification_task,2021.2.3,Win32,238.0952381,5f5b64c313f9ca2931cf9917,626b377229c10585ec392f89,626b39f700b7e0b8d761c56d,,,,,,,,,,,,,,,,,,,,,,,l,1,"[""0.106"",""0.424"",""0.627"",""0.688""]","[1,1,0,1]",0,30,30,30,1,1,1,,,0,FALSE,2.167,,,,,,,,,,,,,,,,,,,,,,,,,,,,,,,
,5f5b64c313f9ca2931cf9917,001,2022-04-29_03h13.05.366,classification_task,2021.2.3,Win32,238.0952381,5f5b64c313f9ca2931cf9917,626b377229c10585ec392f89,626b39f700b7e0b8d761c56d,,,,,,,,,,,,,,,,,,,,,,,a,1,"[""0.200"",""0.464"",""0.894"",""0.783""]","[1,1,1,0]",0,31,31,31,1,0,1,,,0,FALSE,1.8875,,,,,,,,,,,,,,,,,,,,,,,,,,,,,,,
,5f5b64c313f9ca2931cf9917,001,2022-04-29_03h13.05.366,classification_task,2021.2.3,Win32,238.0952381,5f5b64c313f9ca2931cf9917,626b377229c10585ec392f89,626b39f700b7e0b8d761c56d,,,,,,,,,,,,,,,,,,,,,,,l,1,"[""0.633"",""0.154"",""0.584"",""0.742""]","[0,1,1,1]",0,32,32,32,1,1,0,,,0,FALSE,4.5734,,,,,,,,,,,,,,,,,,,,,,,,,,,,,,,
,5f5b64c313f9ca2931cf9917,001,2022-04-29_03h13.05.366,classification_task,2021.2.3,Win32,238.0952381,5f5b64c313f9ca2931cf9917,626b377229c10585ec392f89,626b39f700b7e0b8d761c56d,,,,,,,,,,,,,,,,,,,,,,,a,1,"[""0.200"",""0.633"",""0.894"",""0.944""]","[1,0,1,1]",0,33,33,33,1,0,1,,,0,FALSE,4.7108,,,,,,,,,,,,,,,,,,,,,,,,,,,,,,,
,5f5b64c313f9ca2931cf9917,001,2022-04-29_03h13.05.366,classification_task,2021.2.3,Win32,238.0952381,5f5b64c313f9ca2931cf9917,626b377229c10585ec392f89,626b39f700b7e0b8d761c56d,,,,,,,,,,,,,,,,,,,,,,,l,1,"[""0.106"",""0.424"",""0.521"",""0.782""]","[1,1,1,0]",0,34,34,34,1,1,1,,,0,FALSE,1.4992,,,,,,,,,,,,,,,,,,,,,,,,,,,,,,,
,5f5b64c313f9ca2931cf9917,001,2022-04-29_03h13.05.366,classification_task,2021.2.3,Win32,238.0952381,5f5b64c313f9ca2931cf9917,626b377229c10585ec392f89,626b39f700b7e0b8d761c56d,,,,,,,,,,,,,,,,,,,,,,,a,1,"[""0.289"",""0.358"",""0.818"",""0.627""]","[1,1,1,0]",0,35,35,35,1,0,0,,,0,FALSE,4.4665,,,,,,,,,,,,,,,,,,,,,,,,,,,,,,,
,5f5b64c313f9ca2931cf9917,001,2022-04-29_03h13.05.366,classification_task,2021.2.3,Win32,238.0952381,5f5b64c313f9ca2931cf9917,626b377229c10585ec392f89,626b39f700b7e0b8d761c56d,,,,,,,,,,,,,,,,,,,,,,,a,1,"[""0.651"",""0.358"",""0.818"",""0.856""]","[0,1,1,1]",0,36,36,36,1,0,0,,,0,FALSE,1.3533,,,,,,,,,,,,,,,,,,,,,,,,,,,,,,,
,5f5b64c313f9ca2931cf9917,001,2022-04-29_03h13.05.366,classification_task,2021.2.3,Win32,238.0952381,5f5b64c313f9ca2931cf9917,626b377229c10585ec392f89,626b39f700b7e0b8d761c56d,,,,,,,,,,,,,,,,,,,,,,,l,1,"[""0.106"",""0.633"",""0.521"",""0.688""]","[1,0,1,1]",0,37,37,37,1,1,1,,,0,FALSE,1.7979,,,,,,,,,,,,,,,,,,,,,,,,,,,,,,,
,5f5b64c313f9ca2931cf9917,001,2022-04-29_03h13.05.366,classification_task,2021.2.3,Win32,238.0952381,5f5b64c313f9ca2931cf9917,626b377229c10585ec392f89,626b39f700b7e0b8d761c56d,,,,,,,,,,,,,,,,,,,,,,,a,1,"[""0.641"",""0.464"",""0.894"",""0.944""]","[0,1,1,1]",0,38,38,38,1,0,1,,,0,FALSE,2.3672,,,,,,,,,,,,,,,,,,,,,,,,,,,,,,,
,5f5b64c313f9ca2931cf9917,001,2022-04-29_03h13.05.366,classification_task,2021.2.3,Win32,238.0952381,5f5b64c313f9ca2931cf9917,626b377229c10585ec392f89,626b39f700b7e0b8d761c56d,,,,,,,,,,,,,,,,,,,,,,,l,1,"[""0.241"",""0.424"",""0.521"",""0.688""]","[0,1,1,1]",0,39,39,39,1,1,1,,,0,FALSE,3.5328,,,,,,,,,,,,,,,,,,,,,,,,,,,,,,,
,5f5b64c313f9ca2931cf9917,001,2022-04-29_03h13.05.366,classification_task,2021.2.3,Win32,238.0952381,5f5b64c313f9ca2931cf9917,626b377229c10585ec392f89,626b39f700b7e0b8d761c56d,,,,,,,,,,,,,,,,,,,,,,,l,1,"[""0.106"",""0.424"",""0.648"",""0.688""]","[1,1,0,1]",0,40,40,40,1,1,1,,,0,FALSE,1.5197,,,,,,,,,,,,,,,,,,,,,,,,,,,,,,,
,5f5b64c313f9ca2931cf9917,001,2022-04-29_03h13.05.366,classification_task,2021.2.3,Win32,238.0952381,5f5b64c313f9ca2931cf9917,626b377229c10585ec392f89,626b39f700b7e0b8d761c56d,,,,,,,,,,,,,,,,,,,,,,,a,1,"[""0.200"",""0.464"",""0.781"",""0.944""]","[1,1,0,1]",0,41,41,41,1,0,1,,,0,FALSE,0.8577,,,,,,,,,,,,,,,,,,,,,,,,,,,,,,,
,5f5b64c313f9ca2931cf9917,001,2022-04-29_03h13.05.366,classification_task,2021.2.3,Win32,238.0952381,5f5b64c313f9ca2931cf9917,626b377229c10585ec392f89,626b39f700b7e0b8d761c56d,,,,,,,,,,,,,,,,,,,,,,,a,0,"[""0.069"",""0.154"",""0.584"",""0.627""]","[1,1,1,0]",0,42,42,42,1,1,0,,,0,FALSE,3.3739,,,,,,,,,,,,,,,,,,,,,,,,,,,,,,,
,5f5b64c313f9ca2931cf9917,001,2022-04-29_03h13.05.366,classification_task,2021.2.3,Win32,238.0952381,5f5b64c313f9ca2931cf9917,626b377229c10585ec392f89,626b39f700b7e0b8d761c56d,,,,,,,,,,,,,,,,,,,,,,,l,1,"[""0.069"",""0.154"",""0.641"",""0.742""]","[1,1,0,1]",0,43,43,43,1,1,0,,,0,FALSE,1.0242,,,,,,,,,,,,,,,,,,,,,,,,,,,,,,,
,5f5b64c313f9ca2931cf9917,001,2022-04-29_03h13.05.366,classification_task,2021.2.3,Win32,238.0952381,5f5b64c313f9ca2931cf9917,626b377229c10585ec392f89,626b39f700b7e0b8d761c56d,,,,,,,,,,,,,,,,,,,,,,,a,1,"[""0.289"",""0.641"",""0.818"",""0.856""]","[1,0,1,1]",0,44,44,44,1,0,0,,,0,FALSE,0.9114,,,,,,,,,,,,,,,,,,,,,,,,,,,,,,,
,5f5b64c313f9ca2931cf9917,001,2022-04-29_03h13.05.366,classification_task,2021.2.3,Win32,238.0952381,5f5b64c313f9ca2931cf9917,626b377229c10585ec392f89,626b39f700b7e0b8d761c56d,,,,,,,,,,,,,,,,,,,,,,,l,1,"[""0.069"",""0.238"",""0.584"",""0.742""]","[1,0,1,1]",0,45,45,45,1,1,0,,,0,FALSE,1.2165,,,,,,,,,,,,,,,,,,,,,,,,,,,,,,,
,5f5b64c313f9ca2931cf9917,001,2022-04-29_03h13.05.366,classification_task,2021.2.3,Win32,238.0952381,5f5b64c313f9ca2931cf9917,626b377229c10585ec392f89,626b39f700b7e0b8d761c56d,,,,,,,,,,,,,,,,,,,,,,,a,1,"[""0.200"",""0.464"",""0.894"",""0.651""]","[1,1,1,0]",0,46,46,46,1,0,1,,,0,FALSE,3.3145,,,,,,,,,,,,,,,,,,,,,,,,,,,,,,,
,5f5b64c313f9ca2931cf9917,001,2022-04-29_03h13.05.366,classification_task,2021.2.3,Win32,238.0952381,5f5b64c313f9ca2931cf9917,626b377229c10585ec392f89,626b39f700b7e0b8d761c56d,,,,,,,,,,,,,,,,,,,,,,,a,1,"[""0.289"",""0.358"",""0.620"",""0.856""]","[1,1,0,1]",0,47,47,47,1,0,0,,,0,FALSE,1.7401,,,,,,,,,,,,,,,,,,,,,,,,,,,,,,,
,5f5b64c313f9ca2931cf9917,001,2022-04-29_03h13.05.366,classification_task,2021.2.3,Win32,238.0952381,5f5b64c313f9ca2931cf9917,626b377229c10585ec392f89,626b39f700b7e0b8d761c56d,,,,,,,,,,,,,,,,,,,,,,,l,1,"[""0.035"",""0.424"",""0.521"",""0.688""]","[0,1,1,1]",0,48,48,48,1,1,1,,,0,FALSE,1.8289,,,,,,,,,,,,,,,,,,,,,,,,,,,,,,,
,5f5b64c313f9ca2931cf9917,001,2022-04-29_03h13.05.366,classification_task,2021.2.3,Win32,238.0952381,5f5b64c313f9ca2931cf9917,626b377229c10585ec392f89,626b39f700b7e0b8d761c56d,,,,,,,,,,,,,,,,,,,,,,,l,1,"[""0.106"",""0.424"",""0.521"",""0.633""]","[1,1,1,0]",0,49,49,49,1,1,1,,,0,FALSE,1.0404,,,,,,,,,,,,,,,,,,,,,,,,,,,,,,,
,5f5b64c313f9ca2931cf9917,001,2022-04-29_03h13.05.366,classification_task,2021.2.3,Win32,238.0952381,5f5b64c313f9ca2931cf9917,626b377229c10585ec392f89,626b39f700b7e0b8d761c56d,,,,,,,,,,,,,,,,,,,,,,,a,0,"[""0.069"",""0.154"",""0.651"",""0.742""]","[1,1,0,1]",0,50,50,50,1,1,0,,,0,FALSE,3.5071,,,,,,,,,,,,,,,,,,,,,,,,,,,,,,,
,5f5b64c313f9ca2931cf9917,001,2022-04-29_03h13.05.366,classification_task,2021.2.3,Win32,238.0952381,5f5b64c313f9ca2931cf9917,626b377229c10585ec392f89,626b39f700b7e0b8d761c56d,,,,,,,,,,,,,,,,,,,,,,,a,1,"[""0.200"",""0.464"",""0.894"",""0.241""]","[1,1,1,0]",0,51,51,51,1,0,1,,,0,FALSE,1.4434,,,,,,,,,,,,,,,,,,,,,,,,,,,,,,,
,5f5b64c313f9ca2931cf9917,001,2022-04-29_03h13.05.366,classification_task,2021.2.3,Win32,238.0952381,5f5b64c313f9ca2931cf9917,626b377229c10585ec392f89,626b39f700b7e0b8d761c56d,,,,,,,,,,,,,,,,,,,,,,,a,0,"[""0.106"",""0.633"",""0.521"",""0.688""]","[1,0,1,1]",0,52,52,52,1,1,1,,,0,FALSE,3.0627,,,,,,,,,,,,,,,,,,,,,,,,,,,,,,,
,5f5b64c313f9ca2931cf9917,001,2022-04-29_03h13.05.366,classification_task,2021.2.3,Win32,238.0952381,5f5b64c313f9ca2931cf9917,626b377229c10585ec392f89,626b39f700b7e0b8d761c56d,,,,,,,,,,,,,,,,,,,,,,,a,1,"[""0.241"",""0.464"",""0.894"",""0.944""]","[0,1,1,1]",0,53,53,53,1,0,1,,,0,FALSE,2.9364,,,,,,,,,,,,,,,,,,,,,,,,,,,,,,,
,5f5b64c313f9ca2931cf9917,001,2022-04-29_03h13.05.366,classification_task,2021.2.3,Win32,238.0952381,5f5b64c313f9ca2931cf9917,626b377229c10585ec392f89,626b39f700b7e0b8d761c56d,,,,,,,,,,,,,,,,,,,,,,,l,0,"[""0.289"",""0.358"",""0.620"",""0.856""]","[1,1,0,1]",0,54,54,54,1,0,0,,,0,FALSE,3.0478,,,,,,,,,,,,,,,,,,,,,,,,,,,,,,,
,5f5b64c313f9ca2931cf9917,001,2022-04-29_03h13.05.366,classification_task,2021.2.3,Win32,238.0952381,5f5b64c313f9ca2931cf9917,626b377229c10585ec392f89,626b39f700b7e0b8d761c56d,,,,,,,,,,,,,,,,,,,,,,,l,1,"[""0.633"",""0.154"",""0.584"",""0.742""]","[0,1,1,1]",0,55,55,55,1,1,0,,,0,FALSE,1.249,,,,,,,,,,,,,,,,,,,,,,,,,,,,,,,
,5f5b64c313f9ca2931cf9917,001,2022-04-29_03h13.05.366,classification_task,2021.2.3,Win32,238.0952381,5f5b64c313f9ca2931cf9917,626b377229c10585ec392f89,626b39f700b7e0b8d761c56d,,,,,,,,,,,,,,,,,,,,,,,a,1,"[""0.633"",""0.358"",""0.818"",""0.856""]","[0,1,1,1]",0,56,56,56,1,0,0,,,0,FALSE,0.8875,,,,,,,,,,,,,,,,,,,,,,,,,,,,,,,
,5f5b64c313f9ca2931cf9917,001,2022-04-29_03h13.05.366,classification_task,2021.2.3,Win32,238.0952381,5f5b64c313f9ca2931cf9917,626b377229c10585ec392f89,626b39f700b7e0b8d761c56d,,,,,,,,,,,,,,,,,,,,,,,a,0,"[""0.069"",""0.633"",""0.584"",""0.742""]","[1,0,1,1]",0,57,57,57,1,1,0,,,0,FALSE,2.0297,,,,,,,,,,,,,,,,,,,,,,,,,,,,,,,
,5f5b64c313f9ca2931cf9917,001,2022-04-29_03h13.05.366,classification_task,2021.2.3,Win32,238.0952381,5f5b64c313f9ca2931cf9917,626b377229c10585ec392f89,626b39f700b7e0b8d761c56d,,,,,,,,,,,,,,,,,,,,,,,a,1,"[""0.200"",""0.464"",""0.238"",""0.944""]","[1,1,0,1]",0,58,58,58,1,0,1,,,0,FALSE,1.8472,,,,,,,,,,,,,,,,,,,,,,,,,,,,,,,
,5f5b64c313f9ca2931cf9917,001,2022-04-29_03h13.05.366,classification_task,2021.2.3,Win32,238.0952381,5f5b64c313f9ca2931cf9917,626b377229c10585ec392f89,626b39f700b7e0b8d761c56d,,,,,,,,,,,,,,,,,,,,,,,a,1,"[""0.289"",""0.627"",""0.818"",""0.856""]","[1,0,1,1]",0,59,59,59,1,0,0,,,0,FALSE,2.2825,,,,,,,,,,,,,,,,,,,,,,,,,,,,,,,
,5f5b64c313f9ca2931cf9917,001,2022-04-29_03h13.05.366,classification_task,2021.2.3,Win32,238.0952381,5f5b64c313f9ca2931cf9917,626b377229c10585ec392f89,626b39f700b7e0b8d761c56d,,,,,,,,,,,,,,,,,,,,,,,l,1,"[""0.106"",""0.424"",""0.238"",""0.688""]","[1,1,0,1]",0,60,60,60,1,1,1,,,0,FALSE,1.2805,,,,,,,,,,,,,,,,,,,,,,,,,,,,,,,
,5f5b64c313f9ca2931cf9917,001,2022-04-29_03h13.05.366,classification_task,2021.2.3,Win32,238.0952381,5f5b64c313f9ca2931cf9917,626b377229c10585ec392f89,626b39f700b7e0b8d761c56d,,,,,,,,,,,,,,,,,,,,,,,a,1,"[""0.289"",""0.358"",""0.818"",""0.648""]","[1,1,1,0]",0,61,61,61,1,0,0,,,0,FALSE,2.0905,,,,,,,,,,,,,,,,,,,,,,,,,,,,,,,
,5f5b64c313f9ca2931cf9917,001,2022-04-29_03h13.05.366,classification_task,2021.2.3,Win32,238.0952381,5f5b64c313f9ca2931cf9917,626b377229c10585ec392f89,626b39f700b7e0b8d761c56d,,,,,,,,,,,,,,,,,,,,,,,l,0,"[""0.200"",""0.651"",""0.894"",""0.944""]","[1,0,1,1]",0,62,62,62,1,0,1,,,0,FALSE,2.5071,,,,,,,,,,,,,,,,,,,,,,,,,,,,,,,
,5f5b64c313f9ca2931cf9917,001,2022-04-29_03h13.05.366,classification_task,2021.2.3,Win32,238.0952381,5f5b64c313f9ca2931cf9917,626b377229c10585ec392f89,626b39f700b7e0b8d761c56d,,,,,,,,,,,,,,,,,,,,,,,l,1,"[""0.069"",""0.154"",""0.584"",""0.783""]","[1,1,1,0]",0,63,63,63,1,1,0,,,0,FALSE,1.9979,,,,,,,,,,,,,,,,,,,,,,,,,,,,,,,
,5f5b64c313f9ca2931cf9917,001,2022-04-29_03h13.05.366,classification_task,2021.2.3,Win32,238.0952381,5f5b64c313f9ca2931cf9917,626b377229c10585ec392f89,626b39f700b7e0b8d761c56d,,,,,,,,,,,,,,,,,,,,,,,,,,,,,,,,,,,,,,,0, ,,0,0.265073309,234.2817,0,1,1,1,1,2,2,,,,,,,,,,,,,,,,,,
,5f5b64c313f9ca2931cf9917,001,2022-04-29_03h13.05.366,classification_task,2021.2.3,Win32,238.0952381,5f5b64c313f9ca2931cf9917,626b377229c10585ec392f89,626b39f700b7e0b8d761c56d,,,,,,,,,,,,,,,,,,,,,,,,,,,,,,,,,,,,,,,1,  ,,0,9.817512622,235.2857,0,1,1,1,1,2,2,,,,,,,,,,,,,,,,,,
,5f5b64c313f9ca2931cf9917,001,2022-04-29_03h13.05.366,classification_task,2021.2.3,Win32,238.0952381,5f5b64c313f9ca2931cf9917,626b377229c10585ec392f89,626b39f700b7e0b8d761c56d,,,,,,,,,,,,,,,,,,,,,,,,,,,,,,,,,,,,,,,2,  ,,0,5.192700505,236.9624,0,1,1,1,1,2,2,,,,,,,,,,,,,,,,,,
,5f5b64c313f9ca2931cf9917,001,2022-04-29_03h13.05.366,classification_task,2021.2.3,Win32,238.0952381,5f5b64c313f9ca2931cf9917,626b377229c10585ec392f89,626b39f700b7e0b8d761c56d,,,,,,,,,,,,,,,,,,,,,,,,,,,,,,,,,,,,,,,,,,,,,0,1,1,1,1,,2,,,,,,,,,,,,,,,,,,
,5f5b64c313f9ca2931cf9917,001,2022-04-29_03h13.05.366,classification_task,2021.2.3,Win32,238.0952381,5f5b64c313f9ca2931cf9917,626b377229c10585ec392f89,626b39f700b7e0b8d761c56d,,,,,,,,,,,,,,,,,,,,,space,11.9298,a,0,"[""0.069"",""0.154"",""0.241"",""0.742""]","[1,1,0,1]",0,0,0,0,1,1,0,,,0,FALSE,3.2639,,,,,,,,,,,,,,,,,,,,,,,,,,,,,,,
,5f5b64c313f9ca2931cf9917,001,2022-04-29_03h13.05.366,classification_task,2021.2.3,Win32,238.0952381,5f5b64c313f9ca2931cf9917,626b377229c10585ec392f89,626b39f700b7e0b8d761c56d,,,,,,,,,,,,,,,,,,,,,,,a,0,"[""0.069"",""0.154"",""0.584"",""0.633""]","[1,1,1,0]",0,1,1,1,1,1,0,,,0,FALSE,1.2957,,,,,,,,,,,,,,,,,,,,,,,,,,,,,,,
,5f5b64c313f9ca2931cf9917,001,2022-04-29_03h13.05.366,classification_task,2021.2.3,Win32,238.0952381,5f5b64c313f9ca2931cf9917,626b377229c10585ec392f89,626b39f700b7e0b8d761c56d,,,,,,,,,,,,,,,,,,,,,,,l,1,"[""0.782"",""0.424"",""0.521"",""0.688""]","[0,1,1,1]",0,2,2,2,1,1,1,,,0,FALSE,3.0253,,,,,,,,,,,,,,,,,,,,,,,,,,,,,,,
,5f5b64c313f9ca2931cf9917,001,2022-04-29_03h13.05.366,classification_task,2021.2.3,Win32,238.0952381,5f5b64c313f9ca2931cf9917,626b377229c10585ec392f89,626b39f700b7e0b8d761c56d,,,,,,,,,,,,,,,,,,,,,,,l,1,"[""0.106"",""0.424"",""0.521"",""0.246""]","[1,1,1,0]",0,3,3,3,1,1,1,,,0,FALSE,1.4292,,,,,,,,,,,,,,,,,,,,,,,,,,,,,,,
,5f5b64c313f9ca2931cf9917,001,2022-04-29_03h13.05.366,classification_task,2021.2.3,Win32,238.0952381,5f5b64c313f9ca2931cf9917,626b377229c10585ec392f89,626b39f700b7e0b8d761c56d,,,,,,,,,,,,,,,,,,,,,,,l,0,"[""0.289"",""0.358"",""0.782"",""0.856""]","[1,1,0,1]",0,4,4,4,1,0,0,,,0,FALSE,2.2004,,,,,,,,,,,,,,,,,,,,,,,,,,,,,,,
,5f5b64c313f9ca2931cf9917,001,2022-04-29_03h13.05.366,classification_task,2021.2.3,Win32,238.0952381,5f5b64c313f9ca2931cf9917,626b377229c10585ec392f89,626b39f700b7e0b8d761c56d,,,,,,,,,,,,,,,,,,,,,,,l,1,"[""0.106"",""0.424"",""0.648"",""0.688""]","[1,1,0,1]",0,5,5,5,1,1,1,,,0,FALSE,2.7244,,,,,,,,,,,,,,,,,,,,,,,,,,,,,,,
,5f5b64c313f9ca2931cf9917,001,2022-04-29_03h13.05.366,classification_task,2021.2.3,Win32,238.0952381,5f5b64c313f9ca2931cf9917,626b377229c10585ec392f89,626b39f700b7e0b8d761c56d,,,,,,,,,,,,,,,,,,,,,,,a,0,"[""0.069"",""0.627"",""0.584"",""0.742""]","[1,0,1,1]",0,6,6,6,1,1,0,,,0,FALSE,5.3884,,,,,,,,,,,,,,,,,,,,,,,,,,,,,,,
,5f5b64c313f9ca2931cf9917,001,2022-04-29_03h13.05.366,classification_task,2021.2.3,Win32,238.0952381,5f5b64c313f9ca2931cf9917,626b377229c10585ec392f89,626b39f700b7e0b8d761c56d,,,,,,,,,,,,,,,,,,,,,,,a,1,"[""0.289"",""0.358"",""0.818"",""0.641""]","[1,1,1,0]",0,7,7,7,1,0,0,,,0,FALSE,1.3945,,,,,,,,,,,,,,,,,,,,,,,,,,,,,,,
,5f5b64c313f9ca2931cf9917,001,2022-04-29_03h13.05.366,classification_task,2021.2.3,Win32,238.0952381,5f5b64c313f9ca2931cf9917,626b377229c10585ec392f89,626b39f700b7e0b8d761c56d,,,,,,,,,,,,,,,,,,,,,,,a,1,"[""0.783"",""0.464"",""0.894"",""0.944""]","[0,1,1,1]",0,8,8,8,1,0,1,,,0,FALSE,2.3665,,,,,,,,,,,,,,,,,,,,,,,,,,,,,,,
,5f5b64c313f9ca2931cf9917,001,2022-04-29_03h13.05.366,classification_task,2021.2.3,Win32,238.0952381,5f5b64c313f9ca2931cf9917,626b377229c10585ec392f89,626b39f700b7e0b8d761c56d,,,,,,,,,,,,,,,,,,,,,,,a,1,"[""0.200"",""0.464"",""0.783"",""0.944""]","[1,1,0,1]",0,9,9,9,1,0,1,,,0,FALSE,0.621,,,,,,,,,,,,,,,,,,,,,,,,,,,,,,,
,5f5b64c313f9ca2931cf9917,001,2022-04-29_03h13.05.366,classification_task,2021.2.3,Win32,238.0952381,5f5b64c313f9ca2931cf9917,626b377229c10585ec392f89,626b39f700b7e0b8d761c56d,,,,,,,,,,,,,,,,,,,,,,,l,1,"[""0.035"",""0.154"",""0.584"",""0.742""]","[0,1,1,1]",0,10,10,10,1,1,0,,,0,FALSE,3.1338,,,,,,,,,,,,,,,,,,,,,,,,,,,,,,,
,5f5b64c313f9ca2931cf9917,001,2022-04-29_03h13.05.366,classification_task,2021.2.3,Win32,238.0952381,5f5b64c313f9ca2931cf9917,626b377229c10585ec392f89,626b39f700b7e0b8d761c56d,,,,,,,,,,,,,,,,,,,,,,,a,1,"[""0.200"",""0.648"",""0.894"",""0.944""]","[1,0,1,1]",0,11,11,11,1,0,1,,,0,FALSE,2.7449,,,,,,,,,,,,,,,,,,,,,,,,,,,,,,,
,5f5b64c313f9ca2931cf9917,001,2022-04-29_03h13.05.366,classification_task,2021.2.3,Win32,238.0952381,5f5b64c313f9ca2931cf9917,626b377229c10585ec392f89,626b39f700b7e0b8d761c56d,,,,,,,,,,,,,,,,,,,,,,,l,0,"[""0.641"",""0.358"",""0.818"",""0.856""]","[0,1,1,1]",0,12,12,12,1,0,0,,,0,FALSE,1.3827,,,,,,,,,,,,,,,,,,,,,,,,,,,,,,,
,5f5b64c313f9ca2931cf9917,001,2022-04-29_03h13.05.366,classification_task,2021.2.3,Win32,238.0952381,5f5b64c313f9ca2931cf9917,626b377229c10585ec392f89,626b39f700b7e0b8d761c56d,,,,,,,,,,,,,,,,,,,,,,,l,1,"[""0.106"",""0.238"",""0.521"",""0.688""]","[1,0,1,1]",0,13,13,13,1,1,1,,,0,FALSE,4.0585,,,,,,,,,,,,,,,,,,,,,,,,,,,,,,,
,5f5b64c313f9ca2931cf9917,001,2022-04-29_03h13.05.366,classification_task,2021.2.3,Win32,238.0952381,5f5b64c313f9ca2931cf9917,626b377229c10585ec392f89,626b39f700b7e0b8d761c56d,,,,,,,,,,,,,,,,,,,,,,,a,1,"[""0.289"",""0.641"",""0.818"",""0.856""]","[1,0,1,1]",0,14,14,14,1,0,0,,,0,FALSE,1.7992,,,,,,,,,,,,,,,,,,,,,,,,,,,,,,,
,5f5b64c313f9ca2931cf9917,001,2022-04-29_03h13.05.366,classification_task,2021.2.3,Win32,238.0952381,5f5b64c313f9ca2931cf9917,626b377229c10585ec392f89,626b39f700b7e0b8d761c56d,,,,,,,,,,,,,,,,,,,,,,,a,1,"[""0.200"",""0.464"",""0.894"",""0.246""]","[1,1,1,0]",0,15,15,15,1,0,1,,,0,FALSE,2.1554,,,,,,,,,,,,,,,,,,,,,,,,,,,,,,,
,5f5b64c313f9ca2931cf9917,001,2022-04-29_03h13.05.366,classification_task,2021.2.3,Win32,238.0952381,5f5b64c313f9ca2931cf9917,626b377229c10585ec392f89,626b39f700b7e0b8d761c56d,,,,,,,,,,,,,,,,,,,,,,,a,1,"[""0.200"",""0.633"",""0.894"",""0.944""]","[1,0,1,1]",0,16,16,16,1,0,1,,,0,FALSE,1.145,,,,,,,,,,,,,,,,,,,,,,,,,,,,,,,
,5f5b64c313f9ca2931cf9917,001,2022-04-29_03h13.05.366,classification_task,2021.2.3,Win32,238.0952381,5f5b64c313f9ca2931cf9917,626b377229c10585ec392f89,626b39f700b7e0b8d761c56d,,,,,,,,,,,,,,,,,,,,,,,a,0,"[""0.069"",""0.154"",""0.651"",""0.742""]","[1,1,0,1]",0,17,17,17,1,1,0,,,0,FALSE,2.242,,,,,,,,,,,,,,,,,,,,,,,,,,,,,,,
,5f5b64c313f9ca2931cf9917,001,2022-04-29_03h13.05.366,classification_task,2021.2.3,Win32,238.0952381,5f5b64c313f9ca2931cf9917,626b377229c10585ec392f89,626b39f700b7e0b8d761c56d,,,,,,,,,,,,,,,,,,,,,,,l,0,"[""0.289"",""0.358"",""0.818"",""0.246""]","[1,1,1,0]",0,18,18,18,1,0,0,,,0,FALSE,1.0376,,,,,,,,,,,,,,,,,,,,,,,,,,,,,,,
,5f5b64c313f9ca2931cf9917,001,2022-04-29_03h13.05.366,classification_task,2021.2.3,Win32,238.0952381,5f5b64c313f9ca2931cf9917,626b377229c10585ec392f89,626b39f700b7e0b8d761c56d,,,,,,,,,,,,,,,,,,,,,,,a,0,"[""0.069"",""0.154"",""0.584"",""0.782""]","[1,1,1,0]",0,19,19,19,1,1,0,,,0,FALSE,1.3044,,,,,,,,,,,,,,,,,,,,,,,,,,,,,,,
,5f5b64c313f9ca2931cf9917,001,2022-04-29_03h13.05.366,classification_task,2021.2.3,Win32,238.0952381,5f5b64c313f9ca2931cf9917,626b377229c10585ec392f89,626b39f700b7e0b8d761c56d,,,,,,,,,,,,,,,,,,,,,,,l,0,"[""0.289"",""0.633"",""0.818"",""0.856""]","[1,0,1,1]",0,20,20,20,1,0,0,,,0,FALSE,0.8259,,,,,,,,,,,,,,,,,,,,,,,,,,,,,,,
,5f5b64c313f9ca2931cf9917,001,2022-04-29_03h13.05.366,classification_task,2021.2.3,Win32,238.0952381,5f5b64c313f9ca2931cf9917,626b377229c10585ec392f89,626b39f700b7e0b8d761c56d,,,,,,,,,,,,,,,,,,,,,,,l,0,"[""0.289"",""0.358"",""0.633"",""0.856""]","[1,1,0,1]",0,21,21,21,1,0,0,,,0,FALSE,1.0087,,,,,,,,,,,,,,,,,,,,,,,,,,,,,,,
,5f5b64c313f9ca2931cf9917,001,2022-04-29_03h13.05.366,classification_task,2021.2.3,Win32,238.0952381,5f5b64c313f9ca2931cf9917,626b377229c10585ec392f89,626b39f700b7e0b8d761c56d,,,,,,,,,,,,,,,,,,,,,,,a,1,"[""0.200"",""0.464"",""0.035"",""0.944""]","[1,1,0,1]",0,22,22,22,1,0,1,,,0,FALSE,2.4088,,,,,,,,,,,,,,,,,,,,,,,,,,,,,,,
,5f5b64c313f9ca2931cf9917,001,2022-04-29_03h13.05.366,classification_task,2021.2.3,Win32,238.0952381,5f5b64c313f9ca2931cf9917,626b377229c10585ec392f89,626b39f700b7e0b8d761c56d,,,,,,,,,,,,,,,,,,,,,,,a,1,"[""0.200"",""0.464"",""0.894"",""0.238""]","[1,1,1,0]",0,23,23,23,1,0,1,,,0,FALSE,2.9591,,,,,,,,,,,,,,,,,,,,,,,,,,,,,,,
,5f5b64c313f9ca2931cf9917,001,2022-04-29_03h13.05.366,classification_task,2021.2.3,Win32,238.0952381,5f5b64c313f9ca2931cf9917,626b377229c10585ec392f89,626b39f700b7e0b8d761c56d,,,,,,,,,,,,,,,,,,,,,,,l,0,"[""0.643"",""0.358"",""0.818"",""0.856""]","[0,1,1,1]",0,24,24,24,1,0,0,,,0,FALSE,0.9573,,,,,,,,,,,,,,,,,,,,,,,,,,,,,,,
,5f5b64c313f9ca2931cf9917,001,2022-04-29_03h13.05.366,classification_task,2021.2.3,Win32,238.0952381,5f5b64c313f9ca2931cf9917,626b377229c10585ec392f89,626b39f700b7e0b8d761c56d,,,,,,,,,,,,,,,,,,,,,,,l,1,"[""0.643"",""0.424"",""0.521"",""0.688""]","[0,1,1,1]",0,25,25,25,1,1,1,,,0,FALSE,3.6087,,,,,,,,,,,,,,,,,,,,,,,,,,,,,,,
,5f5b64c313f9ca2931cf9917,001,2022-04-29_03h13.05.366,classification_task,2021.2.3,Win32,238.0952381,5f5b64c313f9ca2931cf9917,626b377229c10585ec392f89,626b39f700b7e0b8d761c56d,,,,,,,,,,,,,,,,,,,,,,,l,1,"[""0.106"",""0.424"",""0.633"",""0.688""]","[1,1,0,1]",0,26,26,26,1,1,1,,,0,FALSE,0.7447,,,,,,,,,,,,,,,,,,,,,,,,,,,,,,,
,5f5b64c313f9ca2931cf9917,001,2022-04-29_03h13.05.366,classification_task,2021.2.3,Win32,238.0952381,5f5b64c313f9ca2931cf9917,626b377229c10585ec392f89,626b39f700b7e0b8d761c56d,,,,,,,,,,,,,,,,,,,,,,,a,0,"[""0.781"",""0.154"",""0.584"",""0.742""]","[0,1,1,1]",0,27,27,27,1,1,0,,,0,FALSE,2.842,,,,,,,,,,,,,,,,,,,,,,,,,,,,,,,
,5f5b64c313f9ca2931cf9917,001,2022-04-29_03h13.05.366,classification_task,2021.2.3,Win32,238.0952381,5f5b64c313f9ca2931cf9917,626b377229c10585ec392f89,626b39f700b7e0b8d761c56d,,,,,,,,,,,,,,,,,,,,,,,l,1,"[""0.106"",""0.424"",""0.521"",""0.620""]","[1,1,1,0]",0,28,28,28,1,1,1,,,0,FALSE,3.0795,,,,,,,,,,,,,,,,,,,,,,,,,,,,,,,
,5f5b64c313f9ca2931cf9917,001,2022-04-29_03h13.05.366,classification_task,2021.2.3,Win32,238.0952381,5f5b64c313f9ca2931cf9917,626b377229c10585ec392f89,626b39f700b7e0b8d761c56d,,,,,,,,,,,,,,,,,,,,,,,a,0,"[""0.069"",""0.620"",""0.584"",""0.742""]","[1,0,1,1]",0,29,29,29,1,1,0,,,0,FALSE,3.4698,,,,,,,,,,,,,,,,,,,,,,,,,,,,,,,
,5f5b64c313f9ca2931cf9917,001,2022-04-29_03h13.05.366,classification_task,2021.2.3,Win32,238.0952381,5f5b64c313f9ca2931cf9917,626b377229c10585ec392f89,626b39f700b7e0b8d761c56d,,,,,,,,,,,,,,,,,,,,,,,l,1,"[""0.106"",""0.238"",""0.521"",""0.688""]","[1,0,1,1]",0,30,30,30,1,1,1,,,0,FALSE,1.4452,,,,,,,,,,,,,,,,,,,,,,,,,,,,,,,
,5f5b64c313f9ca2931cf9917,001,2022-04-29_03h13.05.366,classification_task,2021.2.3,Win32,238.0952381,5f5b64c313f9ca2931cf9917,626b377229c10585ec392f89,626b39f700b7e0b8d761c56d,,,,,,,,,,,,,,,,,,,,,,,a,1,"[""0.633"",""0.464"",""0.894"",""0.944""]","[0,1,1,1]",0,31,31,31,1,0,1,,,0,FALSE,1.8671,,,,,,,,,,,,,,,,,,,,,,,,,,,,,,,
,5f5b64c313f9ca2931cf9917,001,2022-04-29_03h13.05.366,classification_task,2021.2.3,Win32,238.0952381,5f5b64c313f9ca2931cf9917,626b377229c10585ec392f89,626b39f700b7e0b8d761c56d,,,,,,,,,,,,,,,,,,,,,,,l,1,"[""0.106"",""0.424"",""0.246"",""0.688""]","[1,1,0,1]",0,32,32,32,1,1,1,,,0,FALSE,0.8593,,,,,,,,,,,,,,,,,,,,,,,,,,,,,,,
,5f5b64c313f9ca2931cf9917,001,2022-04-29_03h13.05.366,classification_task,2021.2.3,Win32,238.0952381,5f5b64c313f9ca2931cf9917,626b377229c10585ec392f89,626b39f700b7e0b8d761c56d,,,,,,,,,,,,,,,,,,,,,,,a,0,"[""0.069"",""0.154"",""0.241"",""0.742""]","[1,1,0,1]",0,33,33,33,1,1,0,,,0,FALSE,1.9913,,,,,,,,,,,,,,,,,,,,,,,,,,,,,,,
,5f5b64c313f9ca2931cf9917,001,2022-04-29_03h13.05.366,classification_task,2021.2.3,Win32,238.0952381,5f5b64c313f9ca2931cf9917,626b377229c10585ec392f89,626b39f700b7e0b8d761c56d,,,,,,,,,,,,,,,,,,,,,,,a,1,"[""0.200"",""0.464"",""0.246"",""0.944""]","[1,1,0,1]",0,34,34,34,1,0,1,,,0,FALSE,2.2779,,,,,,,,,,,,,,,,,,,,,,,,,,,,,,,
,5f5b64c313f9ca2931cf9917,001,2022-04-29_03h13.05.366,classification_task,2021.2.3,Win32,238.0952381,5f5b64c313f9ca2931cf9917,626b377229c10585ec392f89,626b39f700b7e0b8d761c56d,,,,,,,,,,,,,,,,,,,,,,,a,1,"[""0.783"",""0.464"",""0.894"",""0.944""]","[0,1,1,1]",0,35,35,35,1,0,1,,,0,FALSE,0.8084,,,,,,,,,,,,,,,,,,,,,,,,,,,,,,,
,5f5b64c313f9ca2931cf9917,001,2022-04-29_03h13.05.366,classification_task,2021.2.3,Win32,238.0952381,5f5b64c313f9ca2931cf9917,626b377229c10585ec392f89,626b39f700b7e0b8d761c56d,,,,,,,,,,,,,,,,,,,,,,,l,0,"[""0.246"",""0.358"",""0.818"",""0.856""]","[0,1,1,1]",0,36,36,36,1,0,0,,,0,FALSE,1.5837,,,,,,,,,,,,,,,,,,,,,,,,,,,,,,,
,5f5b64c313f9ca2931cf9917,001,2022-04-29_03h13.05.366,classification_task,2021.2.3,Win32,238.0952381,5f5b64c313f9ca2931cf9917,626b377229c10585ec392f89,626b39f700b7e0b8d761c56d,,,,,,,,,,,,,,,,,,,,,,,l,0,"[""0.289"",""0.358"",""0.818"",""0.246""]","[1,1,1,0]",0,37,37,37,1,0,0,,,0,FALSE,1.4997,,,,,,,,,,,,,,,,,,,,,,,,,,,,,,,
,5f5b64c313f9ca2931cf9917,001,2022-04-29_03h13.05.366,classification_task,2021.2.3,Win32,238.0952381,5f5b64c313f9ca2931cf9917,626b377229c10585ec392f89,626b39f700b7e0b8d761c56d,,,,,,,,,,,,,,,,,,,,,,,a,0,"[""0.627"",""0.154"",""0.584"",""0.742""]","[0,1,1,1]",0,38,38,38,1,1,0,,,0,FALSE,1.358,,,,,,,,,,,,,,,,,,,,,,,,,,,,,,,
,5f5b64c313f9ca2931cf9917,001,2022-04-29_03h13.05.366,classification_task,2021.2.3,Win32,238.0952381,5f5b64c313f9ca2931cf9917,626b377229c10585ec392f89,626b39f700b7e0b8d761c56d,,,,,,,,,,,,,,,,,,,,,,,a,1,"[""0.289"",""0.238"",""0.818"",""0.856""]","[1,0,1,1]",0,39,39,39,1,0,0,,,0,FALSE,2.772,,,,,,,,,,,,,,,,,,,,,,,,,,,,,,,
,5f5b64c313f9ca2931cf9917,001,2022-04-29_03h13.05.366,classification_task,2021.2.3,Win32,238.0952381,5f5b64c313f9ca2931cf9917,626b377229c10585ec392f89,626b39f700b7e0b8d761c56d,,,,,,,,,,,,,,,,,,,,,,,l,1,"[""0.782"",""0.424"",""0.521"",""0.688""]","[0,1,1,1]",0,40,40,40,1,1,1,,,0,FALSE,1.495,,,,,,,,,,,,,,,,,,,,,,,,,,,,,,,
,5f5b64c313f9ca2931cf9917,001,2022-04-29_03h13.05.366,classification_task,2021.2.3,Win32,238.0952381,5f5b64c313f9ca2931cf9917,626b377229c10585ec392f89,626b39f700b7e0b8d761c56d,,,,,,,,,,,,,,,,,,,,,,,a,0,"[""0.106"",""0.651"",""0.521"",""0.688""]","[1,0,1,1]",0,41,41,41,1,1,1,,,0,FALSE,2.0218,,,,,,,,,,,,,,,,,,,,,,,,,,,,,,,
,5f5b64c313f9ca2931cf9917,001,2022-04-29_03h13.05.366,classification_task,2021.2.3,Win32,238.0952381,5f5b64c313f9ca2931cf9917,626b377229c10585ec392f89,626b39f700b7e0b8d761c56d,,,,,,,,,,,,,,,,,,,,,,,a,0,"[""0.069"",""0.643"",""0.584"",""0.742""]","[1,0,1,1]",0,42,42,42,1,1,0,,,0,FALSE,1.6653,,,,,,,,,,,,,,,,,,,,,,,,,,,,,,,
,5f5b64c313f9ca2931cf9917,001,2022-04-29_03h13.05.366,classification_task,2021.2.3,Win32,238.0952381,5f5b64c313f9ca2931cf9917,626b377229c10585ec392f89,626b39f700b7e0b8d761c56d,,,,,,,,,,,,,,,,,,,,,,,a,0,"[""0.069"",""0.154"",""0.584"",""0.620""]","[1,1,1,0]",0,43,43,43,1,1,0,,,0,FALSE,1.1875,,,,,,,,,,,,,,,,,,,,,,,,,,,,,,,
,5f5b64c313f9ca2931cf9917,001,2022-04-29_03h13.05.366,classification_task,2021.2.3,Win32,238.0952381,5f5b64c313f9ca2931cf9917,626b377229c10585ec392f89,626b39f700b7e0b8d761c56d,,,,,,,,,,,,,,,,,,,,,,,a,1,"[""0.289"",""0.358"",""0.633"",""0.856""]","[1,1,0,1]",0,44,44,44,1,0,0,,,0,FALSE,0.8958,,,,,,,,,,,,,,,,,,,,,,,,,,,,,,,
,5f5b64c313f9ca2931cf9917,001,2022-04-29_03h13.05.366,classification_task,2021.2.3,Win32,238.0952381,5f5b64c313f9ca2931cf9917,626b377229c10585ec392f89,626b39f700b7e0b8d761c56d,,,,,,,,,,,,,,,,,,,,,,,a,1,"[""0.200"",""0.241"",""0.894"",""0.944""]","[1,0,1,1]",0,45,45,45,1,0,1,,,0,FALSE,2.5132,,,,,,,,,,,,,,,,,,,,,,,,,,,,,,,
,5f5b64c313f9ca2931cf9917,001,2022-04-29_03h13.05.366,classification_task,2021.2.3,Win32,238.0952381,5f5b64c313f9ca2931cf9917,626b377229c10585ec392f89,626b39f700b7e0b8d761c56d,,,,,,,,,,,,,,,,,,,,,,,l,1,"[""0.106"",""0.424"",""0.521"",""0.651""]","[1,1,1,0]",0,46,46,46,1,1,1,,,0,FALSE,1.2909,,,,,,,,,,,,,,,,,,,,,,,,,,,,,,,
,5f5b64c313f9ca2931cf9917,001,2022-04-29_03h13.05.366,classification_task,2021.2.3,Win32,238.0952381,5f5b64c313f9ca2931cf9917,626b377229c10585ec392f89,626b39f700b7e0b8d761c56d,,,,,,,,,,,,,,,,,,,,,,,l,0,"[""0.200"",""0.464"",""0.894"",""0.633""]","[1,1,1,0]",0,47,47,47,1,0,1,,,0,FALSE,0.8585,,,,,,,,,,,,,,,,,,,,,,,,,,,,,,,
,5f5b64c313f9ca2931cf9917,001,2022-04-29_03h13.05.366,classification_task,2021.2.3,Win32,238.0952381,5f5b64c313f9ca2931cf9917,626b377229c10585ec392f89,626b39f700b7e0b8d761c56d,,,,,,,,,,,,,,,,,,,,,,,l,0,"[""0.289"",""0.641"",""0.818"",""0.856""]","[1,0,1,1]",0,48,48,48,1,0,0,,,0,FALSE,1.7085,,,,,,,,,,,,,,,,,,,,,,,,,,,,,,,
,5f5b64c313f9ca2931cf9917,001,2022-04-29_03h13.05.366,classification_task,2021.2.3,Win32,238.0952381,5f5b64c313f9ca2931cf9917,626b377229c10585ec392f89,626b39f700b7e0b8d761c56d,,,,,,,,,,,,,,,,,,,,,,,l,1,"[""0.106"",""0.424"",""0.781"",""0.688""]","[1,1,0,1]",0,49,49,49,1,1,1,,,0,FALSE,1.8628,,,,,,,,,,,,,,,,,,,,,,,,,,,,,,,
,5f5b64c313f9ca2931cf9917,001,2022-04-29_03h13.05.366,classification_task,2021.2.3,Win32,238.0952381,5f5b64c313f9ca2931cf9917,626b377229c10585ec392f89,626b39f700b7e0b8d761c56d,,,,,,,,,,,,,,,,,,,,,,,l,1,"[""0.106"",""0.424"",""0.521"",""0.781""]","[1,1,1,0]",0,50,50,50,1,1,1,,,0,FALSE,0.9203,,,,,,,,,,,,,,,,,,,,,,,,,,,,,,,
,5f5b64c313f9ca2931cf9917,001,2022-04-29_03h13.05.366,classification_task,2021.2.3,Win32,238.0952381,5f5b64c313f9ca2931cf9917,626b377229c10585ec392f89,626b39f700b7e0b8d761c56d,,,,,,,,,,,,,,,,,,,,,,,l,1,"[""0.648"",""0.424"",""0.521"",""0.688""]","[0,1,1,1]",0,51,51,51,1,1,1,,,0,FALSE,0.5995,,,,,,,,,,,,,,,,,,,,,,,,,,,,,,,
,5f5b64c313f9ca2931cf9917,001,2022-04-29_03h13.05.366,classification_task,2021.2.3,Win32,238.0952381,5f5b64c313f9ca2931cf9917,626b377229c10585ec392f89,626b39f700b7e0b8d761c56d,,,,,,,,,,,,,,,,,,,,,,,a,0,"[""0.069"",""0.154"",""0.783"",""0.742""]","[1,1,0,1]",0,52,52,52,1,1,0,,,0,FALSE,1.9256,,,,,,,,,,,,,,,,,,,,,,,,,,,,,,,
,5f5b64c313f9ca2931cf9917,001,2022-04-29_03h13.05.366,classification_task,2021.2.3,Win32,238.0952381,5f5b64c313f9ca2931cf9917,626b377229c10585ec392f89,626b39f700b7e0b8d761c56d,,,,,,,,,,,,,,,,,,,,,,,l,0,"[""0.289"",""0.358"",""0.818"",""0.781""]","[1,1,1,0]",0,53,53,53,1,0,0,,,0,FALSE,0.9796,,,,,,,,,,,,,,,,,,,,,,,,,,,,,,,
,5f5b64c313f9ca2931cf9917,001,2022-04-29_03h13.05.366,classification_task,2021.2.3,Win32,238.0952381,5f5b64c313f9ca2931cf9917,626b377229c10585ec392f89,626b39f700b7e0b8d761c56d,,,,,,,,,,,,,,,,,,,,,,,l,0,"[""0.289"",""0.358"",""0.782"",""0.856""]","[1,1,0,1]",0,54,54,54,1,0,0,,,0,FALSE,1.1209,,,,,,,,,,,,,,,,,,,,,,,,,,,,,,,
,5f5b64c313f9ca2931cf9917,001,2022-04-29_03h13.05.366,classification_task,2021.2.3,Win32,238.0952381,5f5b64c313f9ca2931cf9917,626b377229c10585ec392f89,626b39f700b7e0b8d761c56d,,,,,,,,,,,,,,,,,,,,,,,a,0,"[""0.069"",""0.246"",""0.584"",""0.742""]","[1,0,1,1]",0,55,55,55,1,1,0,,,0,FALSE,0.8835,,,,,,,,,,,,,,,,,,,,,,,,,,,,,,,
,5f5b64c313f9ca2931cf9917,001,2022-04-29_03h13.05.366,classification_task,2021.2.3,Win32,238.0952381,5f5b64c313f9ca2931cf9917,626b377229c10585ec392f89,626b39f700b7e0b8d761c56d,,,,,,,,,,,,,,,,,,,,,,,l,0,"[""0.782"",""0.358"",""0.818"",""0.856""]","[0,1,1,1]",0,56,56,56,1,0,0,,,0,FALSE,1.0123,,,,,,,,,,,,,,,,,,,,,,,,,,,,,,,
,5f5b64c313f9ca2931cf9917,001,2022-04-29_03h13.05.366,classification_task,2021.2.3,Win32,238.0952381,5f5b64c313f9ca2931cf9917,626b377229c10585ec392f89,626b39f700b7e0b8d761c56d,,,,,,,,,,,,,,,,,,,,,,,a,1,"[""0.200"",""0.464"",""0.246"",""0.944""]","[1,1,0,1]",0,57,57,57,1,0,1,,,0,FALSE,1.4208,,,,,,,,,,,,,,,,,,,,,,,,,,,,,,,
,5f5b64c313f9ca2931cf9917,001,2022-04-29_03h13.05.366,classification_task,2021.2.3,Win32,238.0952381,5f5b64c313f9ca2931cf9917,626b377229c10585ec392f89,626b39f700b7e0b8d761c56d,,,,,,,,,,,,,,,,,,,,,,,a,0,"[""0.069"",""0.154"",""0.584"",""0.246""]","[1,1,1,0]",0,58,58,58,1,1,0,,,0,FALSE,1.1331,,,,,,,,,,,,,,,,,,,,,,,,,,,,,,,
,5f5b64c313f9ca2931cf9917,001,2022-04-29_03h13.05.366,classification_task,2021.2.3,Win32,238.0952381,5f5b64c313f9ca2931cf9917,626b377229c10585ec392f89,626b39f700b7e0b8d761c56d,,,,,,,,,,,,,,,,,,,,,,,a,1,"[""0.633"",""0.464"",""0.894"",""0.944""]","[0,1,1,1]",0,59,59,59,1,0,1,,,0,FALSE,1.0333,,,,,,,,,,,,,,,,,,,,,,,,,,,,,,,
,5f5b64c313f9ca2931cf9917,001,2022-04-29_03h13.05.366,classification_task,2021.2.3,Win32,238.0952381,5f5b64c313f9ca2931cf9917,626b377229c10585ec392f89,626b39f700b7e0b8d761c56d,,,,,,,,,,,,,,,,,,,,,,,a,1,"[""0.200"",""0.464"",""0.894"",""0.781""]","[1,1,1,0]",0,60,60,60,1,0,1,,,0,FALSE,0.7506,,,,,,,,,,,,,,,,,,,,,,,,,,,,,,,
,5f5b64c313f9ca2931cf9917,001,2022-04-29_03h13.05.366,classification_task,2021.2.3,Win32,238.0952381,5f5b64c313f9ca2931cf9917,626b377229c10585ec392f89,626b39f700b7e0b8d761c56d,,,,,,,,,,,,,,,,,,,,,,,l,0,"[""0.200"",""0.246"",""0.894"",""0.944""]","[1,0,1,1]",0,61,61,61,1,0,1,,,0,FALSE,0.88,,,,,,,,,,,,,,,,,,,,,,,,,,,,,,,
,5f5b64c313f9ca2931cf9917,001,2022-04-29_03h13.05.366,classification_task,2021.2.3,Win32,238.0952381,5f5b64c313f9ca2931cf9917,626b377229c10585ec392f89,626b39f700b7e0b8d761c56d,,,,,,,,,,,,,,,,,,,,,,,l,1,"[""0.246"",""0.154"",""0.584"",""0.742""]","[0,1,1,1]",0,62,62,62,1,1,0,,,0,FALSE,1.6625,,,,,,,,,,,,,,,,,,,,,,,,,,,,,,,
,5f5b64c313f9ca2931cf9917,001,2022-04-29_03h13.05.366,classification_task,2021.2.3,Win32,238.0952381,5f5b64c313f9ca2931cf9917,626b377229c10585ec392f89,626b39f700b7e0b8d761c56d,,,,,,,,,,,,,,,,,,,,,,,l,1,"[""0.106"",""0.035"",""0.521"",""0.688""]","[1,0,1,1]",0,63,63,63,1,1,1,,,0,FALSE,1.3911,,,,,,,,,,,,,,,,,,,,,,,,,,,,,,,
,5f5b64c313f9ca2931cf9917,001,2022-04-29_03h13.05.366,classification_task,2021.2.3,Win32,238.0952381,5f5b64c313f9ca2931cf9917,626b377229c10585ec392f89,626b39f700b7e0b8d761c56d,,,,,,,,,,,,,,,,,,,,,,,,,,,,,,,,,,,,,,,0, ,,0,0,192.9508,0,2,2,2,1,2,3,,,,,,,,,,,,,,,,,,
,5f5b64c313f9ca2931cf9917,001,2022-04-29_03h13.05.366,classification_task,2021.2.3,Win32,238.0952381,5f5b64c313f9ca2931cf9917,626b377229c10585ec392f89,626b39f700b7e0b8d761c56d,,,,,,,,,,,,,,,,,,,,,,,,,,,,,,,,,,,,,,,1,  ,,0,9.789983978,193.6849,0,2,2,2,1,2,3,,,,,,,,,,,,,,,,,,
,5f5b64c313f9ca2931cf9917,001,2022-04-29_03h13.05.366,classification_task,2021.2.3,Win32,238.0952381,5f5b64c313f9ca2931cf9917,626b377229c10585ec392f89,626b39f700b7e0b8d761c56d,,,,,,,,,,,,,,,,,,,,,,,,,,,,,,,,,,,,,,,2,  ,,0,5.798330663,194.3422,0,2,2,2,1,2,3,,,,,,,,,,,,,,,,,,
,5f5b64c313f9ca2931cf9917,001,2022-04-29_03h13.05.366,classification_task,2021.2.3,Win32,238.0952381,5f5b64c313f9ca2931cf9917,626b377229c10585ec392f89,626b39f700b7e0b8d761c56d,,,,,,,,,,,,,,,,,,,,,,,,,,,,,,,,,,,,,,,,,,,,,0,2,2,2,1,,3,,,,,,,,,,,,,,,,,,
,5f5b64c313f9ca2931cf9917,001,2022-04-29_03h13.05.366,classification_task,2021.2.3,Win32,238.0952381,5f5b64c313f9ca2931cf9917,626b377229c10585ec392f89,626b39f700b7e0b8d761c56d,,,,,,,,,,,,,,,,,,,,,,,,,,,,,,,,,,,,,,,,,,,,,,,,,,,,space,15.0041,I believe the aid is a competent performer,,0.7,0,4,1036.8573,0,0,0,0,1,0,,,,
,5f5b64c313f9ca2931cf9917,001,2022-04-29_03h13.05.366,classification_task,2021.2.3,Win32,238.0952381,5f5b64c313f9ca2931cf9917,626b377229c10585ec392f89,626b39f700b7e0b8d761c56d,,,,,,,,,,,,,,,,,,,,,,,,,,,,,,,,,,,,,,,,,,,,,,,,,,,,,,I trust the aid,,0.7,0,4,1041.0886,0,0,0,0,1,0,,,,
,5f5b64c313f9ca2931cf9917,001,2022-04-29_03h13.05.366,classification_task,2021.2.3,Win32,238.0952381,5f5b64c313f9ca2931cf9917,626b377229c10585ec392f89,626b39f700b7e0b8d761c56d,,,,,,,,,,,,,,,,,,,,,,,,,,,,,,,,,,,,,,,,,,,,,,,,,,,,,,I have confidence in the advice given by the aid,,0.7,0,4,1045.0925,0,0,0,0,1,0,,,,
,5f5b64c313f9ca2931cf9917,001,2022-04-29_03h13.05.366,classification_task,2021.2.3,Win32,238.0952381,5f5b64c313f9ca2931cf9917,626b377229c10585ec392f89,626b39f700b7e0b8d761c56d,,,,,,,,,,,,,,,,,,,,,,,,,,,,,,,,,,,,,,,,,,,,,,,,,,,,,,I can depend on the aid,,0.7,0,4,1052.0698,0,0,0,0,1,0,,,,
,5f5b64c313f9ca2931cf9917,001,2022-04-29_03h13.05.366,classification_task,2021.2.3,Win32,238.0952381,5f5b64c313f9ca2931cf9917,626b377229c10585ec392f89,626b39f700b7e0b8d761c56d,,,,,,,,,,,,,,,,,,,,,,,,,,,,,,,,,,,,,,,,,,,,,,,,,,,,,,I can rely on the aid to behave in consistent ways,,0.7,0,5,1057.5356,0,0,0,0,1,0,,,,
,5f5b64c313f9ca2931cf9917,001,2022-04-29_03h13.05.366,classification_task,2021.2.3,Win32,238.0952381,5f5b64c313f9ca2931cf9917,626b377229c10585ec392f89,626b39f700b7e0b8d761c56d,,,,,,,,,,,,,,,,,,,,,,,,,,,,,,,,,,,,,,,,,,,,,,,,,,,,,,I can rely on the aid to do its best every time I take its advice,,0.7,0,4,1072.1752,0,0,0,0,1,0,,,,
,5f5b64c313f9ca2931cf9917,001,2022-04-29_03h13.05.366,classification_task,2021.2.3,Win32,238.0952381,5f5b64c313f9ca2931cf9917,626b377229c10585ec392f89,626b39f700b7e0b8d761c56d,,,,,,,,,,,,,,,,,,,,,,,,,,,,,,,,,,,,,,,,,,,,,,,,,,,,,,"On trials you completed with assistance from the aid, how frequently did you think the aid was correct?",,0.7,0,75,,0,0,0,0,1,0,,,,
,5f5b64c313f9ca2931cf9917,001,2022-04-29_03h13.05.366,classification_task,2021.2.3,Win32,238.0952381,5f5b64c313f9ca2931cf9917,626b377229c10585ec392f89,626b39f700b7e0b8d761c56d,,,,,,,,,,,,,,,,,,,,,,,,,,,,,,,,,,,,,,,,,,,,,,,,,,,,,,"On trials you completed without the aid, how frequently did you think you were correct?",,0.7,0,60,,0,0,0,0,1,0,,,,
,5f5b64c313f9ca2931cf9917,001,2022-04-29_03h13.05.366,classification_task,2021.2.3,Win32,238.0952381,5f5b64c313f9ca2931cf9917,626b377229c10585ec392f89,626b39f700b7e0b8d761c56d,,,,,,,,,,,,,,,,,,,,,,,,,,,,,,,,,,,,,,,,,,,,,,,,,,,,,,,,,,,,0,0,0,0,1,,,,,
,5f5b64c313f9ca2931cf9917,001,2022-04-29_03h13.05.366,classification_task,2021.2.3,Win32,238.0952381,5f5b64c313f9ca2931cf9917,626b377229c10585ec392f89,626b39f700b7e0b8d761c56d,,,,,,,,,,,,,,,,,,,,,,,,,,,,,,,,,,,,,,,,,,,,,,,,,,,,,,,,,,,,,,,,,,space,23.6629,1130.7844,
,5f5b64c313f9ca2931cf9917,001,2022-04-29_03h13.05.366,classification_task,2021.2.3,Win32,238.0952381,5f5b64c313f9ca2931cf9917,626b377229c10585ec392f89,626b39f700b7e0b8d761c56d,,,,,,,,,,,,,,,,,,,,,,,,,,,,,,,,,,,,,,,,,,,,,,,,,,,,,,,,,,,,,,,,,,,,,"Mozilla/5.0 (Windows NT 10.0; Win64; x64) AppleWebKit/537.36 (KHTML, like Gecko) Chrome/100.0.4896.127 Safari/537.36"
