usingWebGL,participant,session,date,expName,psychopyVersion,OS,frameRate,study_id,signatures_friend,signatures_foe,band_ranges_top,band_ranges_bottom,formitemText,formtype,formundefined,formitemWidth,formindex,formresponse,formrt,key_resp_2.keys,key_resp_2.rt,tute_resp.keys,tute_resp.rt,tutorial.thisRepN,tutorial.thisTrialN,tutorial.thisN,tutorial.thisIndex,tutorial.ran,key_resp_4.keys,key_resp_4.rt,key_resp.keys,key_resp.corr,lines_presented,is_signal_presented,trials.thisRepN,trials.thisTrialN,trials.thisN,trials.thisIndex,trials.ran,vessel,active_band,lines,is_signal,supported_pos,catch_trial,key_resp.rt,debrief_formindex,debrief_formitemText,debrief_formtype,debrief_formitemWidth,debrief_formresponse,debrief_formrt,phases.thisRepN,phases.thisTrialN,phases.thisN,phases.thisIndex,phases.ran,phases.order,phase,key_resp_3.keys,trustitemText,trusttype,trustitemWidth,trustindex,trustresponse,trustrt,support_status.thisRepN,support_status.thisTrialN,support_status.thisN,support_status.thisIndex,support_status.ran,support_status.order,key_resp_5.keys,key_resp_5.rt,globalClockTime,userAgent,manualCondition
TRUE,5f64bc237e8f58015be87e4f,627c6fb7121b502c19cef129,2022-05-12_03h23.48.620,classification_task,2021.2.3,Win32,60.10337781,627c6715c52fd12f31907bd0,,,,,,,,,,,,,,,,,,,,,,,,,,,,,,,,,,,,,,,,,,,,,,,,,,,,,,,,,,,,,,,,,,,,,
,5f64bc237e8f58015be87e4f,627c6fb7121b502c19cef129,2022-05-12_03h23.48.620,classification_task,2021.2.3,Win32,60.10337781,627c6715c52fd12f31907bd0,"[[""0.260"",""0.412"",""0.578"",""0.934""],[""0.169"",""0.378"",""0.670"",""0.857""]]","[[""0.126"",""0.323"",""0.515"",""0.711""],[""0.061"",""0.211"",""0.454"",""0.791""]]","[1,10]","[100,1000]",Video game experience,,,0.7,0,,,,,,,,,,,,,,,,,,,,,,,,,,,,,,,,,,,,,,,,,,,,,,,,,,,,,,,,,,,,
,5f64bc237e8f58015be87e4f,627c6fb7121b502c19cef129,2022-05-12_03h23.48.620,classification_task,2021.2.3,Win32,60.10337781,627c6715c52fd12f31907bd0,,,,,Approximately how many hours did you spend playing video games in the last week?,,,0.7,0,2,,,,,,,,,,,,,,,,,,,,,,,,,,,,,,,,,,,,,,,,,,,,,,,,,,,,,,,,,,,
,5f64bc237e8f58015be87e4f,627c6fb7121b502c19cef129,2022-05-12_03h23.48.620,classification_task,2021.2.3,Win32,60.10337781,627c6715c52fd12f31907bd0,,,,,"Which game did you play the most this year? (Enter ""None"" if you didn't play any)",,,0.7,0,none,,,,,,,,,,,,,,,,,,,,,,,,,,,,,,,,,,,,,,,,,,,,,,,,,,,,,,,,,,,
,5f64bc237e8f58015be87e4f,627c6fb7121b502c19cef129,2022-05-12_03h23.48.620,classification_task,2021.2.3,Win32,60.10337781,627c6715c52fd12f31907bd0,,,,,Visual perception,,,0.7,0,,,,,,,,,,,,,,,,,,,,,,,,,,,,,,,,,,,,,,,,,,,,,,,,,,,,,,,,,,,,
,5f64bc237e8f58015be87e4f,627c6fb7121b502c19cef129,2022-05-12_03h23.48.620,classification_task,2021.2.3,Win32,60.10337781,627c6715c52fd12f31907bd0,,,,,Do you have any form of color blindness?,,,0.7,0,No,32.9335,,,,,,,,,,,,,,,,,,,,,,,,,,,,,,,,,,,,,,,,,,,,,,,,,,,,,,,,,,
,5f64bc237e8f58015be87e4f,627c6fb7121b502c19cef129,2022-05-12_03h23.48.620,classification_task,2021.2.3,Win32,60.10337781,627c6715c52fd12f31907bd0,,,,,Do you use software to change the colour temperature of your screen (e.g. f.lux)?,,,0.7,0,No,37.4676,,,,,,,,,,,,,,,,,,,,,,,,,,,,,,,,,,,,,,,,,,,,,,,,,,,,,,,,,,
,5f64bc237e8f58015be87e4f,627c6fb7121b502c19cef129,2022-05-12_03h23.48.620,classification_task,2021.2.3,Win32,60.10337781,627c6715c52fd12f31907bd0,,,,,,,,,,,,space,18.9576,space,4.4598,0,0,0,0,1,,,,,,,,,,,,,,,,,,,,,,,,,,,,,,,,,,,,,,,,,,,,,,,,,
,5f64bc237e8f58015be87e4f,627c6fb7121b502c19cef129,2022-05-12_03h23.48.620,classification_task,2021.2.3,Win32,60.10337781,627c6715c52fd12f31907bd0,,,,,,,,,,,,,,space,2.9673,1,0,1,0,1,,,,,,,,,,,,,,,,,,,,,,,,,,,,,,,,,,,,,,,,,,,,,,,,,
,5f64bc237e8f58015be87e4f,627c6fb7121b502c19cef129,2022-05-12_03h23.48.620,classification_task,2021.2.3,Win32,60.10337781,627c6715c52fd12f31907bd0,,,,,,,,,,,,,,space,5.2403,2,0,2,0,1,,,,,,,,,,,,,,,,,,,,,,,,,,,,,,,,,,,,,,,,,,,,,,,,,
,5f64bc237e8f58015be87e4f,627c6fb7121b502c19cef129,2022-05-12_03h23.48.620,classification_task,2021.2.3,Win32,60.10337781,627c6715c52fd12f31907bd0,,,,,,,,,,,,,,space,3.5063,3,0,3,0,1,,,,,,,,,,,,,,,,,,,,,,,,,,,,,,,,,,,,,,,,,,,,,,,,,
,5f64bc237e8f58015be87e4f,627c6fb7121b502c19cef129,2022-05-12_03h23.48.620,classification_task,2021.2.3,Win32,60.10337781,627c6715c52fd12f31907bd0,,,,,,,,,,,,,,space,27.4286,4,0,4,0,1,,,,,,,,,,,,,,,,,,,,,,,,,,,,,,,,,,,,,,,,,,,,,,,,,
,5f64bc237e8f58015be87e4f,627c6fb7121b502c19cef129,2022-05-12_03h23.48.620,classification_task,2021.2.3,Win32,60.10337781,627c6715c52fd12f31907bd0,,,,,,,,,,,,,,,,,,,,,space,16.4099,,0,"[""0.753"",""0.211"",""0.454"",""0.791""]","[0,1,1,1]",0,0,0,0,1,1,1,,,1,FALSE,,,,,,,,,,,,,,,,,,,,,,,,,,,,,,,,
,5f64bc237e8f58015be87e4f,627c6fb7121b502c19cef129,2022-05-12_03h23.48.620,classification_task,2021.2.3,Win32,60.10337781,627c6715c52fd12f31907bd0,,,,,,,,,,,,,,,,,,,,,,,a,1,"[""0.169"",""0.614"",""0.670"",""0.857""]","[1,0,1,1]",0,1,1,1,1,0,1,,,1,FALSE,3.6007,,,,,,,,,,,,,,,,,,,,,,,,,,,,,,,
,5f64bc237e8f58015be87e4f,627c6fb7121b502c19cef129,2022-05-12_03h23.48.620,classification_task,2021.2.3,Win32,60.10337781,627c6715c52fd12f31907bd0,,,,,,,,,,,,,,,,,,,,,,,a,1,"[""0.169"",""0.378"",""0.620"",""0.857""]","[1,1,0,1]",0,2,2,2,1,0,1,,,1,FALSE,2.8873,,,,,,,,,,,,,,,,,,,,,,,,,,,,,,,
,5f64bc237e8f58015be87e4f,627c6fb7121b502c19cef129,2022-05-12_03h23.48.620,classification_task,2021.2.3,Win32,60.10337781,627c6715c52fd12f31907bd0,,,,,,,,,,,,,,,,,,,,,,,a,1,"[""0.260"",""0.412"",""0.027"",""0.934""]","[1,1,0,1]",0,3,3,3,1,0,0,,,1,FALSE,4.2752,,,,,,,,,,,,,,,,,,,,,,,,,,,,,,,
,5f64bc237e8f58015be87e4f,627c6fb7121b502c19cef129,2022-05-12_03h23.48.620,classification_task,2021.2.3,Win32,60.10337781,627c6715c52fd12f31907bd0,,,,,,,,,,,,,,,,,,,,,,,l,1,"[""0.126"",""0.614"",""0.515"",""0.711""]","[1,0,1,1]",0,4,4,4,1,1,0,,,1,FALSE,3.3836,,,,,,,,,,,,,,,,,,,,,,,,,,,,,,,
,5f64bc237e8f58015be87e4f,627c6fb7121b502c19cef129,2022-05-12_03h23.48.620,classification_task,2021.2.3,Win32,60.10337781,627c6715c52fd12f31907bd0,,,,,,,,,,,,,,,,,,,,,,,l,0,"[""0.753"",""0.378"",""0.670"",""0.857""]","[0,1,1,1]",0,5,5,5,1,0,1,,,1,FALSE,3.9257,,,,,,,,,,,,,,,,,,,,,,,,,,,,,,,
,5f64bc237e8f58015be87e4f,627c6fb7121b502c19cef129,2022-05-12_03h23.48.620,classification_task,2021.2.3,Win32,60.10337781,627c6715c52fd12f31907bd0,,,,,,,,,,,,,,,,,,,,,,,a,0,"[""0.061"",""0.211"",""0.454"",""0.968""]","[1,1,1,0]",0,6,6,6,1,1,1,,,1,FALSE,2.6319,,,,,,,,,,,,,,,,,,,,,,,,,,,,,,,
,5f64bc237e8f58015be87e4f,627c6fb7121b502c19cef129,2022-05-12_03h23.48.620,classification_task,2021.2.3,Win32,60.10337781,627c6715c52fd12f31907bd0,,,,,,,,,,,,,,,,,,,,,,,a,1,"[""0.260"",""0.412"",""0.578"",""0.970""]","[1,1,1,0]",0,7,7,7,1,0,0,,,1,FALSE,4.3262,,,,,,,,,,,,,,,,,,,,,,,,,,,,,,,
,5f64bc237e8f58015be87e4f,627c6fb7121b502c19cef129,2022-05-12_03h23.48.620,classification_task,2021.2.3,Win32,60.10337781,627c6715c52fd12f31907bd0,,,,,,,,,,,,,,,,,,,,,,,a,1,"[""0.169"",""0.378"",""0.670"",""0.630""]","[1,1,1,0]",0,8,8,8,1,0,1,,,1,FALSE,2.3995,,,,,,,,,,,,,,,,,,,,,,,,,,,,,,,
,5f64bc237e8f58015be87e4f,627c6fb7121b502c19cef129,2022-05-12_03h23.48.620,classification_task,2021.2.3,Win32,60.10337781,627c6715c52fd12f31907bd0,,,,,,,,,,,,,,,,,,,,,,,l,1,"[""0.061"",""0.211"",""0.893"",""0.791""]","[1,1,0,1]",0,9,9,9,1,1,1,,,1,FALSE,1.7895,,,,,,,,,,,,,,,,,,,,,,,,,,,,,,,
,5f64bc237e8f58015be87e4f,627c6fb7121b502c19cef129,2022-05-12_03h23.48.620,classification_task,2021.2.3,Win32,60.10337781,627c6715c52fd12f31907bd0,,,,,,,,,,,,,,,,,,,,,,,a,1,"[""0.748"",""0.412"",""0.578"",""0.934""]","[0,1,1,1]",0,10,10,10,1,0,0,,,1,FALSE,6.1261,,,,,,,,,,,,,,,,,,,,,,,,,,,,,,,
,5f64bc237e8f58015be87e4f,627c6fb7121b502c19cef129,2022-05-12_03h23.48.620,classification_task,2021.2.3,Win32,60.10337781,627c6715c52fd12f31907bd0,,,,,,,,,,,,,,,,,,,,,,,l,1,"[""0.126"",""0.323"",""0.748"",""0.711""]","[1,1,0,1]",0,11,11,11,1,1,0,,,1,FALSE,2.4701,,,,,,,,,,,,,,,,,,,,,,,,,,,,,,,
,5f64bc237e8f58015be87e4f,627c6fb7121b502c19cef129,2022-05-12_03h23.48.620,classification_task,2021.2.3,Win32,60.10337781,627c6715c52fd12f31907bd0,,,,,,,,,,,,,,,,,,,,,,,l,1,"[""0.126"",""0.323"",""0.515"",""0.622""]","[1,1,1,0]",0,12,12,12,1,1,0,,,1,FALSE,1.6032,,,,,,,,,,,,,,,,,,,,,,,,,,,,,,,
,5f64bc237e8f58015be87e4f,627c6fb7121b502c19cef129,2022-05-12_03h23.48.620,classification_task,2021.2.3,Win32,60.10337781,627c6715c52fd12f31907bd0,,,,,,,,,,,,,,,,,,,,,,,a,1,"[""0.260"",""0.893"",""0.578"",""0.934""]","[1,0,1,1]",0,13,13,13,1,0,0,,,1,FALSE,3.797,,,,,,,,,,,,,,,,,,,,,,,,,,,,,,,
,5f64bc237e8f58015be87e4f,627c6fb7121b502c19cef129,2022-05-12_03h23.48.620,classification_task,2021.2.3,Win32,60.10337781,627c6715c52fd12f31907bd0,,,,,,,,,,,,,,,,,,,,,,,a,0,"[""0.893"",""0.323"",""0.515"",""0.711""]","[0,1,1,1]",0,14,14,14,1,1,0,,,1,FALSE,3.2439,,,,,,,,,,,,,,,,,,,,,,,,,,,,,,,
,5f64bc237e8f58015be87e4f,627c6fb7121b502c19cef129,2022-05-12_03h23.48.620,classification_task,2021.2.3,Win32,60.10337781,627c6715c52fd12f31907bd0,,,,,,,,,,,,,,,,,,,,,,,l,1,"[""0.061"",""0.620"",""0.454"",""0.791""]","[1,0,1,1]",0,15,15,15,1,1,1,,,1,FALSE,3.2785,,,,,,,,,,,,,,,,,,,,,,,,,,,,,,,
,5f64bc237e8f58015be87e4f,627c6fb7121b502c19cef129,2022-05-12_03h23.48.620,classification_task,2021.2.3,Win32,60.10337781,627c6715c52fd12f31907bd0,,,,,,,,,,,,,,,,,,,,,,,l,1,"[""0.061"",""0.211"",""0.454"",""0.748""]","[1,1,1,0]",0,16,16,16,1,1,1,,,1,FALSE,1.472,,,,,,,,,,,,,,,,,,,,,,,,,,,,,,,
,5f64bc237e8f58015be87e4f,627c6fb7121b502c19cef129,2022-05-12_03h23.48.620,classification_task,2021.2.3,Win32,60.10337781,627c6715c52fd12f31907bd0,,,,,,,,,,,,,,,,,,,,,,,l,0,"[""0.169"",""0.378"",""0.670"",""0.027""]","[1,1,1,0]",0,17,17,17,1,0,1,,,1,FALSE,2.2397,,,,,,,,,,,,,,,,,,,,,,,,,,,,,,,
,5f64bc237e8f58015be87e4f,627c6fb7121b502c19cef129,2022-05-12_03h23.48.620,classification_task,2021.2.3,Win32,60.10337781,627c6715c52fd12f31907bd0,,,,,,,,,,,,,,,,,,,,,,,a,1,"[""0.260"",""0.753"",""0.578"",""0.934""]","[1,0,1,1]",0,18,18,18,1,0,0,,,1,FALSE,4.8475,,,,,,,,,,,,,,,,,,,,,,,,,,,,,,,
,5f64bc237e8f58015be87e4f,627c6fb7121b502c19cef129,2022-05-12_03h23.48.620,classification_task,2021.2.3,Win32,60.10337781,627c6715c52fd12f31907bd0,,,,,,,,,,,,,,,,,,,,,,,a,0,"[""0.754"",""0.323"",""0.515"",""0.711""]","[0,1,1,1]",0,19,19,19,1,1,0,,,1,FALSE,2.1304,,,,,,,,,,,,,,,,,,,,,,,,,,,,,,,
,5f64bc237e8f58015be87e4f,627c6fb7121b502c19cef129,2022-05-12_03h23.48.620,classification_task,2021.2.3,Win32,60.10337781,627c6715c52fd12f31907bd0,,,,,,,,,,,,,,,,,,,,,,,a,1,"[""0.260"",""0.412"",""0.630"",""0.934""]","[1,1,0,1]",0,20,20,20,1,0,0,,,1,FALSE,3.4656,,,,,,,,,,,,,,,,,,,,,,,,,,,,,,,
,5f64bc237e8f58015be87e4f,627c6fb7121b502c19cef129,2022-05-12_03h23.48.620,classification_task,2021.2.3,Win32,60.10337781,627c6715c52fd12f31907bd0,,,,,,,,,,,,,,,,,,,,,,,a,1,"[""0.749"",""0.412"",""0.578"",""0.934""]","[0,1,1,1]",0,21,21,21,1,0,0,,,1,FALSE,3.6379,,,,,,,,,,,,,,,,,,,,,,,,,,,,,,,
,5f64bc237e8f58015be87e4f,627c6fb7121b502c19cef129,2022-05-12_03h23.48.620,classification_task,2021.2.3,Win32,60.10337781,627c6715c52fd12f31907bd0,,,,,,,,,,,,,,,,,,,,,,,l,1,"[""0.126"",""0.323"",""0.515"",""0.754""]","[1,1,1,0]",0,22,22,22,1,1,0,,,1,FALSE,1.9671,,,,,,,,,,,,,,,,,,,,,,,,,,,,,,,
,5f64bc237e8f58015be87e4f,627c6fb7121b502c19cef129,2022-05-12_03h23.48.620,classification_task,2021.2.3,Win32,60.10337781,627c6715c52fd12f31907bd0,,,,,,,,,,,,,,,,,,,,,,,a,0,"[""0.620"",""0.211"",""0.454"",""0.791""]","[0,1,1,1]",0,23,23,23,1,1,1,,,1,FALSE,2.4358,,,,,,,,,,,,,,,,,,,,,,,,,,,,,,,
,5f64bc237e8f58015be87e4f,627c6fb7121b502c19cef129,2022-05-12_03h23.48.620,classification_task,2021.2.3,Win32,60.10337781,627c6715c52fd12f31907bd0,,,,,,,,,,,,,,,,,,,,,,,l,1,"[""0.126"",""0.323"",""0.630"",""0.711""]","[1,1,0,1]",0,24,24,24,1,1,0,,,1,FALSE,3.3741,,,,,,,,,,,,,,,,,,,,,,,,,,,,,,,
,5f64bc237e8f58015be87e4f,627c6fb7121b502c19cef129,2022-05-12_03h23.48.620,classification_task,2021.2.3,Win32,60.10337781,627c6715c52fd12f31907bd0,,,,,,,,,,,,,,,,,,,,,,,a,1,"[""0.169"",""0.378"",""0.970"",""0.857""]","[1,1,0,1]",0,25,25,25,1,0,1,,,1,FALSE,1.9869,,,,,,,,,,,,,,,,,,,,,,,,,,,,,,,
,5f64bc237e8f58015be87e4f,627c6fb7121b502c19cef129,2022-05-12_03h23.48.620,classification_task,2021.2.3,Win32,60.10337781,627c6715c52fd12f31907bd0,,,,,,,,,,,,,,,,,,,,,,,a,1,"[""0.970"",""0.378"",""0.670"",""0.857""]","[0,1,1,1]",0,26,26,26,1,0,1,,,1,FALSE,3.0465,,,,,,,,,,,,,,,,,,,,,,,,,,,,,,,
,5f64bc237e8f58015be87e4f,627c6fb7121b502c19cef129,2022-05-12_03h23.48.620,classification_task,2021.2.3,Win32,60.10337781,627c6715c52fd12f31907bd0,,,,,,,,,,,,,,,,,,,,,,,a,1,"[""0.169"",""0.753"",""0.670"",""0.857""]","[1,0,1,1]",0,27,27,27,1,0,1,,,1,FALSE,3.2493,,,,,,,,,,,,,,,,,,,,,,,,,,,,,,,
,5f64bc237e8f58015be87e4f,627c6fb7121b502c19cef129,2022-05-12_03h23.48.620,classification_task,2021.2.3,Win32,60.10337781,627c6715c52fd12f31907bd0,,,,,,,,,,,,,,,,,,,,,,,l,1,"[""0.061"",""0.630"",""0.454"",""0.791""]","[1,0,1,1]",0,28,28,28,1,1,1,,,1,FALSE,3.2874,,,,,,,,,,,,,,,,,,,,,,,,,,,,,,,
,5f64bc237e8f58015be87e4f,627c6fb7121b502c19cef129,2022-05-12_03h23.48.620,classification_task,2021.2.3,Win32,60.10337781,627c6715c52fd12f31907bd0,,,,,,,,,,,,,,,,,,,,,,,l,1,"[""0.126"",""0.620"",""0.515"",""0.711""]","[1,0,1,1]",0,29,29,29,1,1,0,,,1,FALSE,3.359,,,,,,,,,,,,,,,,,,,,,,,,,,,,,,,
,5f64bc237e8f58015be87e4f,627c6fb7121b502c19cef129,2022-05-12_03h23.48.620,classification_task,2021.2.3,Win32,60.10337781,627c6715c52fd12f31907bd0,,,,,,,,,,,,,,,,,,,,,,,a,0,"[""0.061"",""0.211"",""0.968"",""0.791""]","[1,1,0,1]",0,30,30,30,1,1,1,,,1,FALSE,2.2536,,,,,,,,,,,,,,,,,,,,,,,,,,,,,,,
,5f64bc237e8f58015be87e4f,627c6fb7121b502c19cef129,2022-05-12_03h23.48.620,classification_task,2021.2.3,Win32,60.10337781,627c6715c52fd12f31907bd0,,,,,,,,,,,,,,,,,,,,,,,a,1,"[""0.260"",""0.412"",""0.578"",""0.027""]","[1,1,1,0]",0,31,31,31,1,0,0,,,1,FALSE,3.3966,,,,,,,,,,,,,,,,,,,,,,,,,,,,,,,
,5f64bc237e8f58015be87e4f,627c6fb7121b502c19cef129,2022-05-12_03h23.48.620,classification_task,2021.2.3,Win32,60.10337781,627c6715c52fd12f31907bd0,,,,,,,,,,,,,,,,,,,,,,,a,1,"[""0.169"",""0.378"",""0.893"",""0.857""]","[1,1,0,1]",0,32,32,32,1,0,1,,,1,FALSE,3.717,,,,,,,,,,,,,,,,,,,,,,,,,,,,,,,
,5f64bc237e8f58015be87e4f,627c6fb7121b502c19cef129,2022-05-12_03h23.48.620,classification_task,2021.2.3,Win32,60.10337781,627c6715c52fd12f31907bd0,,,,,,,,,,,,,,,,,,,,,,,l,0,"[""0.260"",""0.622"",""0.578"",""0.934""]","[1,0,1,1]",0,33,33,33,1,0,0,,,1,FALSE,1.33,,,,,,,,,,,,,,,,,,,,,,,,,,,,,,,
,5f64bc237e8f58015be87e4f,627c6fb7121b502c19cef129,2022-05-12_03h23.48.620,classification_task,2021.2.3,Win32,60.10337781,627c6715c52fd12f31907bd0,,,,,,,,,,,,,,,,,,,,,,,a,1,"[""0.260"",""0.412"",""0.620"",""0.934""]","[1,1,0,1]",0,34,34,34,1,0,0,,,1,FALSE,1.0699,,,,,,,,,,,,,,,,,,,,,,,,,,,,,,,
,5f64bc237e8f58015be87e4f,627c6fb7121b502c19cef129,2022-05-12_03h23.48.620,classification_task,2021.2.3,Win32,60.10337781,627c6715c52fd12f31907bd0,,,,,,,,,,,,,,,,,,,,,,,l,0,"[""0.754"",""0.412"",""0.578"",""0.934""]","[0,1,1,1]",0,35,35,35,1,0,0,,,1,FALSE,1.7299,,,,,,,,,,,,,,,,,,,,,,,,,,,,,,,
,5f64bc237e8f58015be87e4f,627c6fb7121b502c19cef129,2022-05-12_03h23.48.620,classification_task,2021.2.3,Win32,60.10337781,627c6715c52fd12f31907bd0,,,,,,,,,,,,,,,,,,,,,,,a,0,"[""0.061"",""0.630"",""0.454"",""0.791""]","[1,0,1,1]",0,36,36,36,1,1,1,,,1,FALSE,1.0259,,,,,,,,,,,,,,,,,,,,,,,,,,,,,,,
,5f64bc237e8f58015be87e4f,627c6fb7121b502c19cef129,2022-05-12_03h23.48.620,classification_task,2021.2.3,Win32,60.10337781,627c6715c52fd12f31907bd0,,,,,,,,,,,,,,,,,,,,,,,l,1,"[""0.061"",""0.211"",""0.454"",""0.749""]","[1,1,1,0]",0,37,37,37,1,1,1,,,1,FALSE,1.0073,,,,,,,,,,,,,,,,,,,,,,,,,,,,,,,
,5f64bc237e8f58015be87e4f,627c6fb7121b502c19cef129,2022-05-12_03h23.48.620,classification_task,2021.2.3,Win32,60.10337781,627c6715c52fd12f31907bd0,,,,,,,,,,,,,,,,,,,,,,,a,0,"[""0.126"",""0.323"",""0.515"",""0.622""]","[1,1,1,0]",0,38,38,38,1,1,0,,,1,FALSE,1.0494,,,,,,,,,,,,,,,,,,,,,,,,,,,,,,,
,5f64bc237e8f58015be87e4f,627c6fb7121b502c19cef129,2022-05-12_03h23.48.620,classification_task,2021.2.3,Win32,60.10337781,627c6715c52fd12f31907bd0,,,,,,,,,,,,,,,,,,,,,,,a,0,"[""0.970"",""0.211"",""0.454"",""0.791""]","[0,1,1,1]",0,39,39,39,1,1,1,,,1,FALSE,1.369,,,,,,,,,,,,,,,,,,,,,,,,,,,,,,,
,5f64bc237e8f58015be87e4f,627c6fb7121b502c19cef129,2022-05-12_03h23.48.620,classification_task,2021.2.3,Win32,60.10337781,627c6715c52fd12f31907bd0,,,,,,,,,,,,,,,,,,,,,,,a,0,"[""0.126"",""0.753"",""0.515"",""0.711""]","[1,0,1,1]",0,40,40,40,1,1,0,,,1,FALSE,1.6994,,,,,,,,,,,,,,,,,,,,,,,,,,,,,,,
,5f64bc237e8f58015be87e4f,627c6fb7121b502c19cef129,2022-05-12_03h23.48.620,classification_task,2021.2.3,Win32,60.10337781,627c6715c52fd12f31907bd0,,,,,,,,,,,,,,,,,,,,,,,a,1,"[""0.260"",""0.412"",""0.578"",""0.754""]","[1,1,1,0]",0,41,41,41,1,0,0,,,1,FALSE,1.1,,,,,,,,,,,,,,,,,,,,,,,,,,,,,,,
,5f64bc237e8f58015be87e4f,627c6fb7121b502c19cef129,2022-05-12_03h23.48.620,classification_task,2021.2.3,Win32,60.10337781,627c6715c52fd12f31907bd0,,,,,,,,,,,,,,,,,,,,,,,l,1,"[""0.061"",""0.211"",""0.968"",""0.791""]","[1,1,0,1]",0,42,42,42,1,1,1,,,1,FALSE,1.1688,,,,,,,,,,,,,,,,,,,,,,,,,,,,,,,
,5f64bc237e8f58015be87e4f,627c6fb7121b502c19cef129,2022-05-12_03h23.48.620,classification_task,2021.2.3,Win32,60.10337781,627c6715c52fd12f31907bd0,,,,,,,,,,,,,,,,,,,,,,,l,1,"[""0.126"",""0.323"",""0.970"",""0.711""]","[1,1,0,1]",0,43,43,43,1,1,0,,,1,FALSE,0.7753,,,,,,,,,,,,,,,,,,,,,,,,,,,,,,,
,5f64bc237e8f58015be87e4f,627c6fb7121b502c19cef129,2022-05-12_03h23.48.620,classification_task,2021.2.3,Win32,60.10337781,627c6715c52fd12f31907bd0,,,,,,,,,,,,,,,,,,,,,,,a,1,"[""0.169"",""0.614"",""0.670"",""0.857""]","[1,0,1,1]",0,44,44,44,1,0,1,,,1,FALSE,0.9078,,,,,,,,,,,,,,,,,,,,,,,,,,,,,,,
,5f64bc237e8f58015be87e4f,627c6fb7121b502c19cef129,2022-05-12_03h23.48.620,classification_task,2021.2.3,Win32,60.10337781,627c6715c52fd12f31907bd0,,,,,,,,,,,,,,,,,,,,,,,a,1,"[""0.169"",""0.378"",""0.670"",""0.748""]","[1,1,1,0]",0,45,45,45,1,0,1,,,1,FALSE,0.7026,,,,,,,,,,,,,,,,,,,,,,,,,,,,,,,
,5f64bc237e8f58015be87e4f,627c6fb7121b502c19cef129,2022-05-12_03h23.48.620,classification_task,2021.2.3,Win32,60.10337781,627c6715c52fd12f31907bd0,,,,,,,,,,,,,,,,,,,,,,,a,1,"[""0.753"",""0.378"",""0.670"",""0.857""]","[0,1,1,1]",0,46,46,46,1,0,1,,,1,FALSE,0.8093,,,,,,,,,,,,,,,,,,,,,,,,,,,,,,,
,5f64bc237e8f58015be87e4f,627c6fb7121b502c19cef129,2022-05-12_03h23.48.620,classification_task,2021.2.3,Win32,60.10337781,627c6715c52fd12f31907bd0,,,,,,,,,,,,,,,,,,,,,,,a,0,"[""0.748"",""0.323"",""0.515"",""0.711""]","[0,1,1,1]",0,47,47,47,1,1,0,,,1,FALSE,1.0967,,,,,,,,,,,,,,,,,,,,,,,,,,,,,,,
,5f64bc237e8f58015be87e4f,627c6fb7121b502c19cef129,2022-05-12_03h23.48.620,classification_task,2021.2.3,Win32,60.10337781,627c6715c52fd12f31907bd0,,,,,,,,,,,,,,,,,,,,,,,l,0,"[""0.632"",""0.412"",""0.578"",""0.934""]","[0,1,1,1]",0,48,48,48,1,0,0,,,1,FALSE,0.8714,,,,,,,,,,,,,,,,,,,,,,,,,,,,,,,
,5f64bc237e8f58015be87e4f,627c6fb7121b502c19cef129,2022-05-12_03h23.48.620,classification_task,2021.2.3,Win32,60.10337781,627c6715c52fd12f31907bd0,,,,,,,,,,,,,,,,,,,,,,,l,0,"[""0.260"",""0.412"",""0.578"",""0.754""]","[1,1,1,0]",0,49,49,49,1,0,0,,,1,FALSE,1.3124,,,,,,,,,,,,,,,,,,,,,,,,,,,,,,,
,5f64bc237e8f58015be87e4f,627c6fb7121b502c19cef129,2022-05-12_03h23.48.620,classification_task,2021.2.3,Win32,60.10337781,627c6715c52fd12f31907bd0,,,,,,,,,,,,,,,,,,,,,,,a,0,"[""0.061"",""0.968"",""0.454"",""0.791""]","[1,0,1,1]",0,50,50,50,1,1,1,,,1,FALSE,1.0654,,,,,,,,,,,,,,,,,,,,,,,,,,,,,,,
,5f64bc237e8f58015be87e4f,627c6fb7121b502c19cef129,2022-05-12_03h23.48.620,classification_task,2021.2.3,Win32,60.10337781,627c6715c52fd12f31907bd0,,,,,,,,,,,,,,,,,,,,,,,l,1,"[""0.027"",""0.323"",""0.515"",""0.711""]","[0,1,1,1]",0,51,51,51,1,1,0,,,1,FALSE,2.131,,,,,,,,,,,,,,,,,,,,,,,,,,,,,,,
,5f64bc237e8f58015be87e4f,627c6fb7121b502c19cef129,2022-05-12_03h23.48.620,classification_task,2021.2.3,Win32,60.10337781,627c6715c52fd12f31907bd0,,,,,,,,,,,,,,,,,,,,,,,l,0,"[""0.169"",""0.893"",""0.670"",""0.857""]","[1,0,1,1]",0,52,52,52,1,0,1,,,1,FALSE,1.5884,,,,,,,,,,,,,,,,,,,,,,,,,,,,,,,
,5f64bc237e8f58015be87e4f,627c6fb7121b502c19cef129,2022-05-12_03h23.48.620,classification_task,2021.2.3,Win32,60.10337781,627c6715c52fd12f31907bd0,,,,,,,,,,,,,,,,,,,,,,,l,1,"[""0.632"",""0.211"",""0.454"",""0.791""]","[0,1,1,1]",0,53,53,53,1,1,1,,,1,FALSE,2.6855,,,,,,,,,,,,,,,,,,,,,,,,,,,,,,,
,5f64bc237e8f58015be87e4f,627c6fb7121b502c19cef129,2022-05-12_03h23.48.620,classification_task,2021.2.3,Win32,60.10337781,627c6715c52fd12f31907bd0,,,,,,,,,,,,,,,,,,,,,,,l,1,"[""0.126"",""0.323"",""0.027"",""0.711""]","[1,1,0,1]",0,54,54,54,1,1,0,,,1,FALSE,1.567,,,,,,,,,,,,,,,,,,,,,,,,,,,,,,,
,5f64bc237e8f58015be87e4f,627c6fb7121b502c19cef129,2022-05-12_03h23.48.620,classification_task,2021.2.3,Win32,60.10337781,627c6715c52fd12f31907bd0,,,,,,,,,,,,,,,,,,,,,,,a,1,"[""0.745"",""0.378"",""0.670"",""0.857""]","[0,1,1,1]",0,55,55,55,1,0,1,,,1,FALSE,1.0247,,,,,,,,,,,,,,,,,,,,,,,,,,,,,,,
,5f64bc237e8f58015be87e4f,627c6fb7121b502c19cef129,2022-05-12_03h23.48.620,classification_task,2021.2.3,Win32,60.10337781,627c6715c52fd12f31907bd0,,,,,,,,,,,,,,,,,,,,,,,a,0,"[""0.061"",""0.211"",""0.893"",""0.791""]","[1,1,0,1]",0,56,56,56,1,1,1,,,1,FALSE,1.3394,,,,,,,,,,,,,,,,,,,,,,,,,,,,,,,
,5f64bc237e8f58015be87e4f,627c6fb7121b502c19cef129,2022-05-12_03h23.48.620,classification_task,2021.2.3,Win32,60.10337781,627c6715c52fd12f31907bd0,,,,,,,,,,,,,,,,,,,,,,,a,0,"[""0.126"",""0.754"",""0.515"",""0.711""]","[1,0,1,1]",0,57,57,57,1,1,0,,,1,FALSE,0.7802,,,,,,,,,,,,,,,,,,,,,,,,,,,,,,,
,5f64bc237e8f58015be87e4f,627c6fb7121b502c19cef129,2022-05-12_03h23.48.620,classification_task,2021.2.3,Win32,60.10337781,627c6715c52fd12f31907bd0,,,,,,,,,,,,,,,,,,,,,,,a,1,"[""0.169"",""0.378"",""0.749"",""0.857""]","[1,1,0,1]",0,58,58,58,1,0,1,,,1,FALSE,0.9128,,,,,,,,,,,,,,,,,,,,,,,,,,,,,,,
,5f64bc237e8f58015be87e4f,627c6fb7121b502c19cef129,2022-05-12_03h23.48.620,classification_task,2021.2.3,Win32,60.10337781,627c6715c52fd12f31907bd0,,,,,,,,,,,,,,,,,,,,,,,l,0,"[""0.260"",""0.614"",""0.578"",""0.934""]","[1,0,1,1]",0,59,59,59,1,0,0,,,1,FALSE,1.4275,,,,,,,,,,,,,,,,,,,,,,,,,,,,,,,
,5f64bc237e8f58015be87e4f,627c6fb7121b502c19cef129,2022-05-12_03h23.48.620,classification_task,2021.2.3,Win32,60.10337781,627c6715c52fd12f31907bd0,,,,,,,,,,,,,,,,,,,,,,,a,1,"[""0.169"",""0.378"",""0.670"",""0.968""]","[1,1,1,0]",0,60,60,60,1,0,1,,,1,FALSE,0.7982,,,,,,,,,,,,,,,,,,,,,,,,,,,,,,,
,5f64bc237e8f58015be87e4f,627c6fb7121b502c19cef129,2022-05-12_03h23.48.620,classification_task,2021.2.3,Win32,60.10337781,627c6715c52fd12f31907bd0,,,,,,,,,,,,,,,,,,,,,,,a,0,"[""0.126"",""0.323"",""0.515"",""0.753""]","[1,1,1,0]",0,61,61,61,1,1,0,,,1,FALSE,0.7612,,,,,,,,,,,,,,,,,,,,,,,,,,,,,,,
,5f64bc237e8f58015be87e4f,627c6fb7121b502c19cef129,2022-05-12_03h23.48.620,classification_task,2021.2.3,Win32,60.10337781,627c6715c52fd12f31907bd0,,,,,,,,,,,,,,,,,,,,,,,l,1,"[""0.061"",""0.211"",""0.454"",""0.622""]","[1,1,1,0]",0,62,62,62,1,1,1,,,1,FALSE,1.3931,,,,,,,,,,,,,,,,,,,,,,,,,,,,,,,
,5f64bc237e8f58015be87e4f,627c6fb7121b502c19cef129,2022-05-12_03h23.48.620,classification_task,2021.2.3,Win32,60.10337781,627c6715c52fd12f31907bd0,,,,,,,,,,,,,,,,,,,,,,,l,0,"[""0.260"",""0.412"",""0.748"",""0.934""]","[1,1,0,1]",0,63,63,63,1,0,0,,,1,FALSE,1.485,,,,,,,,,,,,,,,,,,,,,,,,,,,,,,,
,5f64bc237e8f58015be87e4f,627c6fb7121b502c19cef129,2022-05-12_03h23.48.620,classification_task,2021.2.3,Win32,60.10337781,627c6715c52fd12f31907bd0,,,,,,,,,,,,,,,,,,,,,,,,,,,,,,,,,,,,,,,0, ,,0,,,0,0,0,0,1,2,1,,,,,,,,,,,,,,,,,,
,5f64bc237e8f58015be87e4f,627c6fb7121b502c19cef129,2022-05-12_03h23.48.620,classification_task,2021.2.3,Win32,60.10337781,627c6715c52fd12f31907bd0,,,,,,,,,,,,,,,,,,,,,,,,,,,,,,,,,,,,,,,1,  ,,0,,,0,0,0,0,1,2,1,,,,,,,,,,,,,,,,,,
,5f64bc237e8f58015be87e4f,627c6fb7121b502c19cef129,2022-05-12_03h23.48.620,classification_task,2021.2.3,Win32,60.10337781,627c6715c52fd12f31907bd0,,,,,,,,,,,,,,,,,,,,,,,,,,,,,,,,,,,,,,,2,  ,,0,,,0,0,0,0,1,2,1,,,,,,,,,,,,,,,,,,
,5f64bc237e8f58015be87e4f,627c6fb7121b502c19cef129,2022-05-12_03h23.48.620,classification_task,2021.2.3,Win32,60.10337781,627c6715c52fd12f31907bd0,,,,,,,,,,,,,,,,,,,,,,,,,,,,,,,,,,,,,,,,,,,,,0,0,0,0,1,,1,,,,,,,,,,,,,,,,,,
,5f64bc237e8f58015be87e4f,627c6fb7121b502c19cef129,2022-05-12_03h23.48.620,classification_task,2021.2.3,Win32,60.10337781,627c6715c52fd12f31907bd0,,,,,,,,,,,,,,,,,,,,,space,2.9948,a,1,"[""0.260"",""0.412"",""0.578"",""0.632""]","[1,1,1,0]",0,0,0,0,1,0,0,,,1,FALSE,2.3147,,,,,,,,,,,,,,,,,,,,,,,,,,,,,,,
,5f64bc237e8f58015be87e4f,627c6fb7121b502c19cef129,2022-05-12_03h23.48.620,classification_task,2021.2.3,Win32,60.10337781,627c6715c52fd12f31907bd0,,,,,,,,,,,,,,,,,,,,,,,a,0,"[""0.754"",""0.211"",""0.454"",""0.791""]","[0,1,1,1]",0,1,1,1,1,1,1,,,1,FALSE,2.027,,,,,,,,,,,,,,,,,,,,,,,,,,,,,,,
,5f64bc237e8f58015be87e4f,627c6fb7121b502c19cef129,2022-05-12_03h23.48.620,classification_task,2021.2.3,Win32,60.10337781,627c6715c52fd12f31907bd0,,,,,,,,,,,,,,,,,,,,,,,a,0,"[""0.126"",""0.323"",""0.968"",""0.711""]","[1,1,0,1]",0,2,2,2,1,1,0,,,1,FALSE,1.6908,,,,,,,,,,,,,,,,,,,,,,,,,,,,,,,
,5f64bc237e8f58015be87e4f,627c6fb7121b502c19cef129,2022-05-12_03h23.48.620,classification_task,2021.2.3,Win32,60.10337781,627c6715c52fd12f31907bd0,,,,,,,,,,,,,,,,,,,,,,,a,1,"[""0.169"",""0.893"",""0.670"",""0.857""]","[1,0,1,1]",0,3,3,3,1,0,1,,,1,FALSE,2.3598,,,,,,,,,,,,,,,,,,,,,,,,,,,,,,,
,5f64bc237e8f58015be87e4f,627c6fb7121b502c19cef129,2022-05-12_03h23.48.620,classification_task,2021.2.3,Win32,60.10337781,627c6715c52fd12f31907bd0,,,,,,,,,,,,,,,,,,,,,,,l,0,"[""0.620"",""0.412"",""0.578"",""0.934""]","[0,1,1,1]",0,4,4,4,1,0,0,,,1,FALSE,0.9386,,,,,,,,,,,,,,,,,,,,,,,,,,,,,,,
,5f64bc237e8f58015be87e4f,627c6fb7121b502c19cef129,2022-05-12_03h23.48.620,classification_task,2021.2.3,Win32,60.10337781,627c6715c52fd12f31907bd0,,,,,,,,,,,,,,,,,,,,,,,l,1,"[""0.061"",""0.211"",""0.632"",""0.791""]","[1,1,0,1]",0,5,5,5,1,1,1,,,1,FALSE,1.4409,,,,,,,,,,,,,,,,,,,,,,,,,,,,,,,
,5f64bc237e8f58015be87e4f,627c6fb7121b502c19cef129,2022-05-12_03h23.48.620,classification_task,2021.2.3,Win32,60.10337781,627c6715c52fd12f31907bd0,,,,,,,,,,,,,,,,,,,,,,,a,1,"[""0.614"",""0.378"",""0.670"",""0.857""]","[0,1,1,1]",0,6,6,6,1,0,1,,,1,FALSE,2.091,,,,,,,,,,,,,,,,,,,,,,,,,,,,,,,
,5f64bc237e8f58015be87e4f,627c6fb7121b502c19cef129,2022-05-12_03h23.48.620,classification_task,2021.2.3,Win32,60.10337781,627c6715c52fd12f31907bd0,,,,,,,,,,,,,,,,,,,,,,,a,1,"[""0.169"",""0.378"",""0.670"",""0.614""]","[1,1,1,0]",0,7,7,7,1,0,1,,,1,FALSE,1.0826,,,,,,,,,,,,,,,,,,,,,,,,,,,,,,,
,5f64bc237e8f58015be87e4f,627c6fb7121b502c19cef129,2022-05-12_03h23.48.620,classification_task,2021.2.3,Win32,60.10337781,627c6715c52fd12f31907bd0,,,,,,,,,,,,,,,,,,,,,,,l,1,"[""0.971"",""0.323"",""0.515"",""0.711""]","[0,1,1,1]",0,8,8,8,1,1,0,,,1,FALSE,2.3197,,,,,,,,,,,,,,,,,,,,,,,,,,,,,,,
,5f64bc237e8f58015be87e4f,627c6fb7121b502c19cef129,2022-05-12_03h23.48.620,classification_task,2021.2.3,Win32,60.10337781,627c6715c52fd12f31907bd0,,,,,,,,,,,,,,,,,,,,,,,l,1,"[""0.126"",""0.323"",""0.515"",""0.968""]","[1,1,1,0]",0,9,9,9,1,1,0,,,1,FALSE,1.0082,,,,,,,,,,,,,,,,,,,,,,,,,,,,,,,
,5f64bc237e8f58015be87e4f,627c6fb7121b502c19cef129,2022-05-12_03h23.48.620,classification_task,2021.2.3,Win32,60.10337781,627c6715c52fd12f31907bd0,,,,,,,,,,,,,,,,,,,,,,,a,1,"[""0.260"",""0.614"",""0.578"",""0.934""]","[1,0,1,1]",0,10,10,10,1,0,0,,,1,FALSE,0.9965,,,,,,,,,,,,,,,,,,,,,,,,,,,,,,,
,5f64bc237e8f58015be87e4f,627c6fb7121b502c19cef129,2022-05-12_03h23.48.620,classification_task,2021.2.3,Win32,60.10337781,627c6715c52fd12f31907bd0,,,,,,,,,,,,,,,,,,,,,,,a,1,"[""0.169"",""0.378"",""0.971"",""0.857""]","[1,1,0,1]",0,11,11,11,1,0,1,,,1,FALSE,1.3022,,,,,,,,,,,,,,,,,,,,,,,,,,,,,,,
,5f64bc237e8f58015be87e4f,627c6fb7121b502c19cef129,2022-05-12_03h23.48.620,classification_task,2021.2.3,Win32,60.10337781,627c6715c52fd12f31907bd0,,,,,,,,,,,,,,,,,,,,,,,a,1,"[""0.260"",""0.412"",""0.614"",""0.934""]","[1,1,0,1]",0,12,12,12,1,0,0,,,1,FALSE,1.3491,,,,,,,,,,,,,,,,,,,,,,,,,,,,,,,
,5f64bc237e8f58015be87e4f,627c6fb7121b502c19cef129,2022-05-12_03h23.48.620,classification_task,2021.2.3,Win32,60.10337781,627c6715c52fd12f31907bd0,,,,,,,,,,,,,,,,,,,,,,,l,1,"[""0.061"",""0.211"",""0.454"",""0.753""]","[1,1,1,0]",0,13,13,13,1,1,1,,,1,FALSE,1.2663,,,,,,,,,,,,,,,,,,,,,,,,,,,,,,,
,5f64bc237e8f58015be87e4f,627c6fb7121b502c19cef129,2022-05-12_03h23.48.620,classification_task,2021.2.3,Win32,60.10337781,627c6715c52fd12f31907bd0,,,,,,,,,,,,,,,,,,,,,,,a,0,"[""0.126"",""0.970"",""0.515"",""0.711""]","[1,0,1,1]",0,14,14,14,1,1,0,,,1,FALSE,1.4048,,,,,,,,,,,,,,,,,,,,,,,,,,,,,,,
,5f64bc237e8f58015be87e4f,627c6fb7121b502c19cef129,2022-05-12_03h23.48.620,classification_task,2021.2.3,Win32,60.10337781,627c6715c52fd12f31907bd0,,,,,,,,,,,,,,,,,,,,,,,l,1,"[""0.061"",""0.622"",""0.454"",""0.791""]","[1,0,1,1]",0,15,15,15,1,1,1,,,1,FALSE,2.1303,,,,,,,,,,,,,,,,,,,,,,,,,,,,,,,
,5f64bc237e8f58015be87e4f,627c6fb7121b502c19cef129,2022-05-12_03h23.48.620,classification_task,2021.2.3,Win32,60.10337781,627c6715c52fd12f31907bd0,,,,,,,,,,,,,,,,,,,,,,,a,1,"[""0.169"",""0.378"",""0.670"",""0.620""]","[1,1,1,0]",0,16,16,16,1,0,1,,,1,FALSE,1.4324,,,,,,,,,,,,,,,,,,,,,,,,,,,,,,,
,5f64bc237e8f58015be87e4f,627c6fb7121b502c19cef129,2022-05-12_03h23.48.620,classification_task,2021.2.3,Win32,60.10337781,627c6715c52fd12f31907bd0,,,,,,,,,,,,,,,,,,,,,,,l,1,"[""0.061"",""0.027"",""0.454"",""0.791""]","[1,0,1,1]",0,17,17,17,1,1,1,,,1,FALSE,0.9688,,,,,,,,,,,,,,,,,,,,,,,,,,,,,,,
,5f64bc237e8f58015be87e4f,627c6fb7121b502c19cef129,2022-05-12_03h23.48.620,classification_task,2021.2.3,Win32,60.10337781,627c6715c52fd12f31907bd0,,,,,,,,,,,,,,,,,,,,,,,l,1,"[""0.630"",""0.211"",""0.454"",""0.791""]","[0,1,1,1]",0,18,18,18,1,1,1,,,1,FALSE,1.6349,,,,,,,,,,,,,,,,,,,,,,,,,,,,,,,
,5f64bc237e8f58015be87e4f,627c6fb7121b502c19cef129,2022-05-12_03h23.48.620,classification_task,2021.2.3,Win32,60.10337781,627c6715c52fd12f31907bd0,,,,,,,,,,,,,,,,,,,,,,,a,1,"[""0.169"",""0.378"",""0.614"",""0.857""]","[1,1,0,1]",0,19,19,19,1,0,1,,,1,FALSE,0.7946,,,,,,,,,,,,,,,,,,,,,,,,,,,,,,,
,5f64bc237e8f58015be87e4f,627c6fb7121b502c19cef129,2022-05-12_03h23.48.620,classification_task,2021.2.3,Win32,60.10337781,627c6715c52fd12f31907bd0,,,,,,,,,,,,,,,,,,,,,,,l,0,"[""0.749"",""0.378"",""0.670"",""0.857""]","[0,1,1,1]",0,20,20,20,1,0,1,,,1,FALSE,1.0703,,,,,,,,,,,,,,,,,,,,,,,,,,,,,,,
,5f64bc237e8f58015be87e4f,627c6fb7121b502c19cef129,2022-05-12_03h23.48.620,classification_task,2021.2.3,Win32,60.10337781,627c6715c52fd12f31907bd0,,,,,,,,,,,,,,,,,,,,,,,l,1,"[""0.126"",""0.323"",""0.614"",""0.711""]","[1,1,0,1]",0,21,21,21,1,1,0,,,1,FALSE,2.3632,,,,,,,,,,,,,,,,,,,,,,,,,,,,,,,
,5f64bc237e8f58015be87e4f,627c6fb7121b502c19cef129,2022-05-12_03h23.48.620,classification_task,2021.2.3,Win32,60.10337781,627c6715c52fd12f31907bd0,,,,,,,,,,,,,,,,,,,,,,,a,0,"[""0.061"",""0.211"",""0.632"",""0.791""]","[1,1,0,1]",0,22,22,22,1,1,1,,,1,FALSE,1.1285,,,,,,,,,,,,,,,,,,,,,,,,,,,,,,,
,5f64bc237e8f58015be87e4f,627c6fb7121b502c19cef129,2022-05-12_03h23.48.620,classification_task,2021.2.3,Win32,60.10337781,627c6715c52fd12f31907bd0,,,,,,,,,,,,,,,,,,,,,,,a,0,"[""0.061"",""0.211"",""0.454"",""0.754""]","[1,1,1,0]",0,23,23,23,1,1,1,,,1,FALSE,0.7024,,,,,,,,,,,,,,,,,,,,,,,,,,,,,,,
,5f64bc237e8f58015be87e4f,627c6fb7121b502c19cef129,2022-05-12_03h23.48.620,classification_task,2021.2.3,Win32,60.10337781,627c6715c52fd12f31907bd0,,,,,,,,,,,,,,,,,,,,,,,a,1,"[""0.260"",""0.412"",""0.630"",""0.934""]","[1,1,0,1]",0,24,24,24,1,0,0,,,1,FALSE,1.2174,,,,,,,,,,,,,,,,,,,,,,,,,,,,,,,
,5f64bc237e8f58015be87e4f,627c6fb7121b502c19cef129,2022-05-12_03h23.48.620,classification_task,2021.2.3,Win32,60.10337781,627c6715c52fd12f31907bd0,,,,,,,,,,,,,,,,,,,,,,,a,1,"[""0.260"",""0.412"",""0.578"",""0.614""]","[1,1,1,0]",0,25,25,25,1,0,0,,,1,FALSE,0.9719,,,,,,,,,,,,,,,,,,,,,,,,,,,,,,,
,5f64bc237e8f58015be87e4f,627c6fb7121b502c19cef129,2022-05-12_03h23.48.620,classification_task,2021.2.3,Win32,60.10337781,627c6715c52fd12f31907bd0,,,,,,,,,,,,,,,,,,,,,,,l,0,"[""0.632"",""0.412"",""0.578"",""0.934""]","[0,1,1,1]",0,26,26,26,1,0,0,,,1,FALSE,0.7462,,,,,,,,,,,,,,,,,,,,,,,,,,,,,,,
,5f64bc237e8f58015be87e4f,627c6fb7121b502c19cef129,2022-05-12_03h23.48.620,classification_task,2021.2.3,Win32,60.10337781,627c6715c52fd12f31907bd0,,,,,,,,,,,,,,,,,,,,,,,l,0,"[""0.260"",""0.620"",""0.578"",""0.934""]","[1,0,1,1]",0,27,27,27,1,0,0,,,1,FALSE,0.7457,,,,,,,,,,,,,,,,,,,,,,,,,,,,,,,
,5f64bc237e8f58015be87e4f,627c6fb7121b502c19cef129,2022-05-12_03h23.48.620,classification_task,2021.2.3,Win32,60.10337781,627c6715c52fd12f31907bd0,,,,,,,,,,,,,,,,,,,,,,,l,1,"[""0.748"",""0.323"",""0.515"",""0.711""]","[0,1,1,1]",0,28,28,28,1,1,0,,,1,FALSE,1.3444,,,,,,,,,,,,,,,,,,,,,,,,,,,,,,,
,5f64bc237e8f58015be87e4f,627c6fb7121b502c19cef129,2022-05-12_03h23.48.620,classification_task,2021.2.3,Win32,60.10337781,627c6715c52fd12f31907bd0,,,,,,,,,,,,,,,,,,,,,,,l,1,"[""0.126"",""0.754"",""0.515"",""0.711""]","[1,0,1,1]",0,29,29,29,1,1,0,,,1,FALSE,1.9511,,,,,,,,,,,,,,,,,,,,,,,,,,,,,,,
,5f64bc237e8f58015be87e4f,627c6fb7121b502c19cef129,2022-05-12_03h23.48.620,classification_task,2021.2.3,Win32,60.10337781,627c6715c52fd12f31907bd0,,,,,,,,,,,,,,,,,,,,,,,l,1,"[""0.126"",""0.323"",""0.515"",""0.632""]","[1,1,1,0]",0,30,30,30,1,1,0,,,1,FALSE,1.0048,,,,,,,,,,,,,,,,,,,,,,,,,,,,,,,
,5f64bc237e8f58015be87e4f,627c6fb7121b502c19cef129,2022-05-12_03h23.48.620,classification_task,2021.2.3,Win32,60.10337781,627c6715c52fd12f31907bd0,,,,,,,,,,,,,,,,,,,,,,,a,1,"[""0.169"",""0.614"",""0.670"",""0.857""]","[1,0,1,1]",0,31,31,31,1,0,1,,,1,FALSE,1.0011,,,,,,,,,,,,,,,,,,,,,,,,,,,,,,,
,5f64bc237e8f58015be87e4f,627c6fb7121b502c19cef129,2022-05-12_03h23.48.620,classification_task,2021.2.3,Win32,60.10337781,627c6715c52fd12f31907bd0,,,,,,,,,,,,,,,,,,,,,,,a,1,"[""0.260"",""0.412"",""0.578"",""0.632""]","[1,1,1,0]",0,32,32,32,1,0,0,,,1,FALSE,2.5929,,,,,,,,,,,,,,,,,,,,,,,,,,,,,,,
,5f64bc237e8f58015be87e4f,627c6fb7121b502c19cef129,2022-05-12_03h23.48.620,classification_task,2021.2.3,Win32,60.10337781,627c6715c52fd12f31907bd0,,,,,,,,,,,,,,,,,,,,,,,a,1,"[""0.169"",""0.378"",""0.670"",""0.748""]","[1,1,1,0]",0,33,33,33,1,0,1,,,1,FALSE,1.0382,,,,,,,,,,,,,,,,,,,,,,,,,,,,,,,
,5f64bc237e8f58015be87e4f,627c6fb7121b502c19cef129,2022-05-12_03h23.48.620,classification_task,2021.2.3,Win32,60.10337781,627c6715c52fd12f31907bd0,,,,,,,,,,,,,,,,,,,,,,,a,1,"[""0.260"",""0.971"",""0.578"",""0.934""]","[1,0,1,1]",0,34,34,34,1,0,0,,,1,FALSE,0.8095,,,,,,,,,,,,,,,,,,,,,,,,,,,,,,,
,5f64bc237e8f58015be87e4f,627c6fb7121b502c19cef129,2022-05-12_03h23.48.620,classification_task,2021.2.3,Win32,60.10337781,627c6715c52fd12f31907bd0,,,,,,,,,,,,,,,,,,,,,,,l,0,"[""0.753"",""0.412"",""0.578"",""0.934""]","[0,1,1,1]",0,35,35,35,1,0,0,,,1,FALSE,1.0652,,,,,,,,,,,,,,,,,,,,,,,,,,,,,,,
,5f64bc237e8f58015be87e4f,627c6fb7121b502c19cef129,2022-05-12_03h23.48.620,classification_task,2021.2.3,Win32,60.10337781,627c6715c52fd12f31907bd0,,,,,,,,,,,,,,,,,,,,,,,l,1,"[""0.061"",""0.622"",""0.454"",""0.791""]","[1,0,1,1]",0,36,36,36,1,1,1,,,1,FALSE,1.3,,,,,,,,,,,,,,,,,,,,,,,,,,,,,,,
,5f64bc237e8f58015be87e4f,627c6fb7121b502c19cef129,2022-05-12_03h23.48.620,classification_task,2021.2.3,Win32,60.10337781,627c6715c52fd12f31907bd0,,,,,,,,,,,,,,,,,,,,,,,l,1,"[""0.126"",""0.323"",""0.027"",""0.711""]","[1,1,0,1]",0,37,37,37,1,1,0,,,1,FALSE,1.3603,,,,,,,,,,,,,,,,,,,,,,,,,,,,,,,
,5f64bc237e8f58015be87e4f,627c6fb7121b502c19cef129,2022-05-12_03h23.48.620,classification_task,2021.2.3,Win32,60.10337781,627c6715c52fd12f31907bd0,,,,,,,,,,,,,,,,,,,,,,,a,1,"[""0.260"",""0.412"",""0.632"",""0.934""]","[1,1,0,1]",0,38,38,38,1,0,0,,,1,FALSE,0.7186,,,,,,,,,,,,,,,,,,,,,,,,,,,,,,,
,5f64bc237e8f58015be87e4f,627c6fb7121b502c19cef129,2022-05-12_03h23.48.620,classification_task,2021.2.3,Win32,60.10337781,627c6715c52fd12f31907bd0,,,,,,,,,,,,,,,,,,,,,,,l,1,"[""0.126"",""0.630"",""0.515"",""0.711""]","[1,0,1,1]",0,39,39,39,1,1,0,,,1,FALSE,1.0803,,,,,,,,,,,,,,,,,,,,,,,,,,,,,,,
,5f64bc237e8f58015be87e4f,627c6fb7121b502c19cef129,2022-05-12_03h23.48.620,classification_task,2021.2.3,Win32,60.10337781,627c6715c52fd12f31907bd0,,,,,,,,,,,,,,,,,,,,,,,l,0,"[""0.968"",""0.378"",""0.670"",""0.857""]","[0,1,1,1]",0,40,40,40,1,0,1,,,1,FALSE,1.4244,,,,,,,,,,,,,,,,,,,,,,,,,,,,,,,
,5f64bc237e8f58015be87e4f,627c6fb7121b502c19cef129,2022-05-12_03h23.48.620,classification_task,2021.2.3,Win32,60.10337781,627c6715c52fd12f31907bd0,,,,,,,,,,,,,,,,,,,,,,,l,1,"[""0.061"",""0.211"",""0.454"",""0.749""]","[1,1,1,0]",0,41,41,41,1,1,1,,,1,FALSE,1.1851,,,,,,,,,,,,,,,,,,,,,,,,,,,,,,,
,5f64bc237e8f58015be87e4f,627c6fb7121b502c19cef129,2022-05-12_03h23.48.620,classification_task,2021.2.3,Win32,60.10337781,627c6715c52fd12f31907bd0,,,,,,,,,,,,,,,,,,,,,,,l,1,"[""0.126"",""0.323"",""0.515"",""0.614""]","[1,1,1,0]",0,42,42,42,1,1,0,,,1,FALSE,0.9216,,,,,,,,,,,,,,,,,,,,,,,,,,,,,,,
,5f64bc237e8f58015be87e4f,627c6fb7121b502c19cef129,2022-05-12_03h23.48.620,classification_task,2021.2.3,Win32,60.10337781,627c6715c52fd12f31907bd0,,,,,,,,,,,,,,,,,,,,,,,l,0,"[""0.169"",""0.027"",""0.670"",""0.857""]","[1,0,1,1]",0,43,43,43,1,0,1,,,1,FALSE,1.2998,,,,,,,,,,,,,,,,,,,,,,,,,,,,,,,
,5f64bc237e8f58015be87e4f,627c6fb7121b502c19cef129,2022-05-12_03h23.48.620,classification_task,2021.2.3,Win32,60.10337781,627c6715c52fd12f31907bd0,,,,,,,,,,,,,,,,,,,,,,,l,1,"[""0.749"",""0.323"",""0.515"",""0.711""]","[0,1,1,1]",0,44,44,44,1,1,0,,,1,FALSE,1.4638,,,,,,,,,,,,,,,,,,,,,,,,,,,,,,,
,5f64bc237e8f58015be87e4f,627c6fb7121b502c19cef129,2022-05-12_03h23.48.620,classification_task,2021.2.3,Win32,60.10337781,627c6715c52fd12f31907bd0,,,,,,,,,,,,,,,,,,,,,,,l,1,"[""0.061"",""0.211"",""0.622"",""0.791""]","[1,1,0,1]",0,45,45,45,1,1,1,,,1,FALSE,1.1456,,,,,,,,,,,,,,,,,,,,,,,,,,,,,,,
,5f64bc237e8f58015be87e4f,627c6fb7121b502c19cef129,2022-05-12_03h23.48.620,classification_task,2021.2.3,Win32,60.10337781,627c6715c52fd12f31907bd0,,,,,,,,,,,,,,,,,,,,,,,a,0,"[""0.745"",""0.211"",""0.454"",""0.791""]","[0,1,1,1]",0,46,46,46,1,1,1,,,1,FALSE,1.1672,,,,,,,,,,,,,,,,,,,,,,,,,,,,,,,
,5f64bc237e8f58015be87e4f,627c6fb7121b502c19cef129,2022-05-12_03h23.48.620,classification_task,2021.2.3,Win32,60.10337781,627c6715c52fd12f31907bd0,,,,,,,,,,,,,,,,,,,,,,,a,1,"[""0.169"",""0.378"",""0.893"",""0.857""]","[1,1,0,1]",0,47,47,47,1,0,1,,,1,FALSE,1.1867,,,,,,,,,,,,,,,,,,,,,,,,,,,,,,,
,5f64bc237e8f58015be87e4f,627c6fb7121b502c19cef129,2022-05-12_03h23.48.620,classification_task,2021.2.3,Win32,60.10337781,627c6715c52fd12f31907bd0,,,,,,,,,,,,,,,,,,,,,,,a,1,"[""0.260"",""0.412"",""0.753"",""0.934""]","[1,1,0,1]",0,48,48,48,1,0,0,,,1,FALSE,1.2072,,,,,,,,,,,,,,,,,,,,,,,,,,,,,,,
,5f64bc237e8f58015be87e4f,627c6fb7121b502c19cef129,2022-05-12_03h23.48.620,classification_task,2021.2.3,Win32,60.10337781,627c6715c52fd12f31907bd0,,,,,,,,,,,,,,,,,,,,,,,l,1,"[""0.970"",""0.323"",""0.515"",""0.711""]","[0,1,1,1]",0,49,49,49,1,1,0,,,1,FALSE,0.8407,,,,,,,,,,,,,,,,,,,,,,,,,,,,,,,
,5f64bc237e8f58015be87e4f,627c6fb7121b502c19cef129,2022-05-12_03h23.48.620,classification_task,2021.2.3,Win32,60.10337781,627c6715c52fd12f31907bd0,,,,,,,,,,,,,,,,,,,,,,,a,0,"[""0.126"",""0.323"",""0.620"",""0.711""]","[1,1,0,1]",0,50,50,50,1,1,0,,,1,FALSE,2.6327,,,,,,,,,,,,,,,,,,,,,,,,,,,,,,,
,5f64bc237e8f58015be87e4f,627c6fb7121b502c19cef129,2022-05-12_03h23.48.620,classification_task,2021.2.3,Win32,60.10337781,627c6715c52fd12f31907bd0,,,,,,,,,,,,,,,,,,,,,,,l,1,"[""0.061"",""0.211"",""0.454"",""0.632""]","[1,1,1,0]",0,51,51,51,1,1,1,,,1,FALSE,1.4589,,,,,,,,,,,,,,,,,,,,,,,,,,,,,,,
,5f64bc237e8f58015be87e4f,627c6fb7121b502c19cef129,2022-05-12_03h23.48.620,classification_task,2021.2.3,Win32,60.10337781,627c6715c52fd12f31907bd0,,,,,,,,,,,,,,,,,,,,,,,a,1,"[""0.169"",""0.971"",""0.670"",""0.857""]","[1,0,1,1]",0,52,52,52,1,0,1,,,1,FALSE,1.101,,,,,,,,,,,,,,,,,,,,,,,,,,,,,,,
,5f64bc237e8f58015be87e4f,627c6fb7121b502c19cef129,2022-05-12_03h23.48.620,classification_task,2021.2.3,Win32,60.10337781,627c6715c52fd12f31907bd0,,,,,,,,,,,,,,,,,,,,,,,a,1,"[""0.169"",""0.378"",""0.670"",""0.614""]","[1,1,1,0]",0,53,53,53,1,0,1,,,1,FALSE,0.7581,,,,,,,,,,,,,,,,,,,,,,,,,,,,,,,
,5f64bc237e8f58015be87e4f,627c6fb7121b502c19cef129,2022-05-12_03h23.48.620,classification_task,2021.2.3,Win32,60.10337781,627c6715c52fd12f31907bd0,,,,,,,,,,,,,,,,,,,,,,,l,0,"[""0.260"",""0.027"",""0.578"",""0.934""]","[1,0,1,1]",0,54,54,54,1,0,0,,,1,FALSE,0.9644,,,,,,,,,,,,,,,,,,,,,,,,,,,,,,,
,5f64bc237e8f58015be87e4f,627c6fb7121b502c19cef129,2022-05-12_03h23.48.620,classification_task,2021.2.3,Win32,60.10337781,627c6715c52fd12f31907bd0,,,,,,,,,,,,,,,,,,,,,,,a,0,"[""0.061"",""0.211"",""0.620"",""0.791""]","[1,1,0,1]",0,55,55,55,1,1,1,,,1,FALSE,1.0703,,,,,,,,,,,,,,,,,,,,,,,,,,,,,,,
,5f64bc237e8f58015be87e4f,627c6fb7121b502c19cef129,2022-05-12_03h23.48.620,classification_task,2021.2.3,Win32,60.10337781,627c6715c52fd12f31907bd0,,,,,,,,,,,,,,,,,,,,,,,l,1,"[""0.061"",""0.630"",""0.454"",""0.791""]","[1,0,1,1]",0,56,56,56,1,1,1,,,1,FALSE,0.8628,,,,,,,,,,,,,,,,,,,,,,,,,,,,,,,
,5f64bc237e8f58015be87e4f,627c6fb7121b502c19cef129,2022-05-12_03h23.48.620,classification_task,2021.2.3,Win32,60.10337781,627c6715c52fd12f31907bd0,,,,,,,,,,,,,,,,,,,,,,,a,1,"[""0.260"",""0.412"",""0.578"",""0.614""]","[1,1,1,0]",0,57,57,57,1,0,0,,,1,FALSE,1.0091,,,,,,,,,,,,,,,,,,,,,,,,,,,,,,,
,5f64bc237e8f58015be87e4f,627c6fb7121b502c19cef129,2022-05-12_03h23.48.620,classification_task,2021.2.3,Win32,60.10337781,627c6715c52fd12f31907bd0,,,,,,,,,,,,,,,,,,,,,,,l,1,"[""0.614"",""0.211"",""0.454"",""0.791""]","[0,1,1,1]",0,58,58,58,1,1,1,,,1,FALSE,1.5848,,,,,,,,,,,,,,,,,,,,,,,,,,,,,,,
,5f64bc237e8f58015be87e4f,627c6fb7121b502c19cef129,2022-05-12_03h23.48.620,classification_task,2021.2.3,Win32,60.10337781,627c6715c52fd12f31907bd0,,,,,,,,,,,,,,,,,,,,,,,a,0,"[""0.126"",""0.630"",""0.515"",""0.711""]","[1,0,1,1]",0,59,59,59,1,1,0,,,1,FALSE,0.8451,,,,,,,,,,,,,,,,,,,,,,,,,,,,,,,
,5f64bc237e8f58015be87e4f,627c6fb7121b502c19cef129,2022-05-12_03h23.48.620,classification_task,2021.2.3,Win32,60.10337781,627c6715c52fd12f31907bd0,,,,,,,,,,,,,,,,,,,,,,,a,1,"[""0.754"",""0.378"",""0.670"",""0.857""]","[0,1,1,1]",0,60,60,60,1,0,1,,,1,FALSE,0.8997,,,,,,,,,,,,,,,,,,,,,,,,,,,,,,,
,5f64bc237e8f58015be87e4f,627c6fb7121b502c19cef129,2022-05-12_03h23.48.620,classification_task,2021.2.3,Win32,60.10337781,627c6715c52fd12f31907bd0,,,,,,,,,,,,,,,,,,,,,,,l,1,"[""0.126"",""0.323"",""0.515"",""0.893""]","[1,1,1,0]",0,61,61,61,1,1,0,,,1,FALSE,1.8309,,,,,,,,,,,,,,,,,,,,,,,,,,,,,,,
,5f64bc237e8f58015be87e4f,627c6fb7121b502c19cef129,2022-05-12_03h23.48.620,classification_task,2021.2.3,Win32,60.10337781,627c6715c52fd12f31907bd0,,,,,,,,,,,,,,,,,,,,,,,l,0,"[""0.748"",""0.412"",""0.578"",""0.934""]","[0,1,1,1]",0,62,62,62,1,0,0,,,1,FALSE,1.3979,,,,,,,,,,,,,,,,,,,,,,,,,,,,,,,
,5f64bc237e8f58015be87e4f,627c6fb7121b502c19cef129,2022-05-12_03h23.48.620,classification_task,2021.2.3,Win32,60.10337781,627c6715c52fd12f31907bd0,,,,,,,,,,,,,,,,,,,,,,,a,1,"[""0.169"",""0.378"",""0.968"",""0.857""]","[1,1,0,1]",0,63,63,63,1,0,1,,,1,FALSE,1.1117,,,,,,,,,,,,,,,,,,,,,,,,,,,,,,,
,5f64bc237e8f58015be87e4f,627c6fb7121b502c19cef129,2022-05-12_03h23.48.620,classification_task,2021.2.3,Win32,60.10337781,627c6715c52fd12f31907bd0,,,,,,,,,,,,,,,,,,,,,,,,,,,,,,,,,,,,,,,0, ,,0,,,0,1,1,1,1,2,2,,,,,,,,,,,,,,,,,,
,5f64bc237e8f58015be87e4f,627c6fb7121b502c19cef129,2022-05-12_03h23.48.620,classification_task,2021.2.3,Win32,60.10337781,627c6715c52fd12f31907bd0,,,,,,,,,,,,,,,,,,,,,,,,,,,,,,,,,,,,,,,1,  ,,0,,,0,1,1,1,1,2,2,,,,,,,,,,,,,,,,,,
,5f64bc237e8f58015be87e4f,627c6fb7121b502c19cef129,2022-05-12_03h23.48.620,classification_task,2021.2.3,Win32,60.10337781,627c6715c52fd12f31907bd0,,,,,,,,,,,,,,,,,,,,,,,,,,,,,,,,,,,,,,,2,  ,,0,,,0,1,1,1,1,2,2,,,,,,,,,,,,,,,,,,
,5f64bc237e8f58015be87e4f,627c6fb7121b502c19cef129,2022-05-12_03h23.48.620,classification_task,2021.2.3,Win32,60.10337781,627c6715c52fd12f31907bd0,,,,,,,,,,,,,,,,,,,,,,,,,,,,,,,,,,,,,,,,,,,,,0,1,1,1,1,,2,,,,,,,,,,,,,,,,,,
,5f64bc237e8f58015be87e4f,627c6fb7121b502c19cef129,2022-05-12_03h23.48.620,classification_task,2021.2.3,Win32,60.10337781,627c6715c52fd12f31907bd0,,,,,,,,,,,,,,,,,,,,,space,4.0532,a,1,"[""0.169"",""0.378"",""0.670"",""0.754""]","[1,1,1,0]",0,0,0,0,1,0,1,,,1,FALSE,0.9688,,,,,,,,,,,,,,,,,,,,,,,,,,,,,,,
,5f64bc237e8f58015be87e4f,627c6fb7121b502c19cef129,2022-05-12_03h23.48.620,classification_task,2021.2.3,Win32,60.10337781,627c6715c52fd12f31907bd0,,,,,,,,,,,,,,,,,,,,,,,l,0,"[""0.749"",""0.378"",""0.670"",""0.857""]","[0,1,1,1]",0,1,1,1,1,0,1,,,1,FALSE,2.5633,,,,,,,,,,,,,,,,,,,,,,,,,,,,,,,
,5f64bc237e8f58015be87e4f,627c6fb7121b502c19cef129,2022-05-12_03h23.48.620,classification_task,2021.2.3,Win32,60.10337781,627c6715c52fd12f31907bd0,,,,,,,,,,,,,,,,,,,,,,,l,1,"[""0.061"",""0.211"",""0.454"",""0.893""]","[1,1,1,0]",0,2,2,2,1,1,1,,,1,FALSE,1.1308,,,,,,,,,,,,,,,,,,,,,,,,,,,,,,,
,5f64bc237e8f58015be87e4f,627c6fb7121b502c19cef129,2022-05-12_03h23.48.620,classification_task,2021.2.3,Win32,60.10337781,627c6715c52fd12f31907bd0,,,,,,,,,,,,,,,,,,,,,,,l,1,"[""0.061"",""0.211"",""0.968"",""0.791""]","[1,1,0,1]",0,3,3,3,1,1,1,,,1,FALSE,0.9752,,,,,,,,,,,,,,,,,,,,,,,,,,,,,,,
,5f64bc237e8f58015be87e4f,627c6fb7121b502c19cef129,2022-05-12_03h23.48.620,classification_task,2021.2.3,Win32,60.10337781,627c6715c52fd12f31907bd0,,,,,,,,,,,,,,,,,,,,,,,l,1,"[""0.061"",""0.630"",""0.454"",""0.791""]","[1,0,1,1]",0,4,4,4,1,1,1,,,1,FALSE,0.7338,,,,,,,,,,,,,,,,,,,,,,,,,,,,,,,
,5f64bc237e8f58015be87e4f,627c6fb7121b502c19cef129,2022-05-12_03h23.48.620,classification_task,2021.2.3,Win32,60.10337781,627c6715c52fd12f31907bd0,,,,,,,,,,,,,,,,,,,,,,,a,1,"[""0.622"",""0.412"",""0.578"",""0.934""]","[0,1,1,1]",0,5,5,5,1,0,0,,,1,FALSE,2.2314,,,,,,,,,,,,,,,,,,,,,,,,,,,,,,,
,5f64bc237e8f58015be87e4f,627c6fb7121b502c19cef129,2022-05-12_03h23.48.620,classification_task,2021.2.3,Win32,60.10337781,627c6715c52fd12f31907bd0,,,,,,,,,,,,,,,,,,,,,,,a,1,"[""0.169"",""0.971"",""0.670"",""0.857""]","[1,0,1,1]",0,6,6,6,1,0,1,,,1,FALSE,1.6027,,,,,,,,,,,,,,,,,,,,,,,,,,,,,,,
,5f64bc237e8f58015be87e4f,627c6fb7121b502c19cef129,2022-05-12_03h23.48.620,classification_task,2021.2.3,Win32,60.10337781,627c6715c52fd12f31907bd0,,,,,,,,,,,,,,,,,,,,,,,a,0,"[""0.893"",""0.323"",""0.515"",""0.711""]","[0,1,1,1]",0,7,7,7,1,1,0,,,1,FALSE,1.2811,,,,,,,,,,,,,,,,,,,,,,,,,,,,,,,
,5f64bc237e8f58015be87e4f,627c6fb7121b502c19cef129,2022-05-12_03h23.48.620,classification_task,2021.2.3,Win32,60.10337781,627c6715c52fd12f31907bd0,,,,,,,,,,,,,,,,,,,,,,,l,1,"[""0.614"",""0.211"",""0.454"",""0.791""]","[0,1,1,1]",0,8,8,8,1,1,1,,,1,FALSE,1.6488,,,,,,,,,,,,,,,,,,,,,,,,,,,,,,,
,5f64bc237e8f58015be87e4f,627c6fb7121b502c19cef129,2022-05-12_03h23.48.620,classification_task,2021.2.3,Win32,60.10337781,627c6715c52fd12f31907bd0,,,,,,,,,,,,,,,,,,,,,,,a,0,"[""0.126"",""0.323"",""0.515"",""0.749""]","[1,1,1,0]",0,9,9,9,1,1,0,,,1,FALSE,2.2059,,,,,,,,,,,,,,,,,,,,,,,,,,,,,,,
,5f64bc237e8f58015be87e4f,627c6fb7121b502c19cef129,2022-05-12_03h23.48.620,classification_task,2021.2.3,Win32,60.10337781,627c6715c52fd12f31907bd0,,,,,,,,,,,,,,,,,,,,,,,l,0,"[""0.260"",""0.412"",""0.614"",""0.934""]","[1,1,0,1]",0,10,10,10,1,0,0,,,1,FALSE,1.137,,,,,,,,,,,,,,,,,,,,,,,,,,,,,,,
,5f64bc237e8f58015be87e4f,627c6fb7121b502c19cef129,2022-05-12_03h23.48.620,classification_task,2021.2.3,Win32,60.10337781,627c6715c52fd12f31907bd0,,,,,,,,,,,,,,,,,,,,,,,a,0,"[""0.126"",""0.323"",""0.622"",""0.711""]","[1,1,0,1]",0,11,11,11,1,1,0,,,1,FALSE,0.7621,,,,,,,,,,,,,,,,,,,,,,,,,,,,,,,
,5f64bc237e8f58015be87e4f,627c6fb7121b502c19cef129,2022-05-12_03h23.48.620,classification_task,2021.2.3,Win32,60.10337781,627c6715c52fd12f31907bd0,,,,,,,,,,,,,,,,,,,,,,,l,0,"[""0.260"",""0.027"",""0.578"",""0.934""]","[1,0,1,1]",0,12,12,12,1,0,0,,,1,FALSE,1.2872,,,,,,,,,,,,,,,,,,,,,,,,,,,,,,,
,5f64bc237e8f58015be87e4f,627c6fb7121b502c19cef129,2022-05-12_03h23.48.620,classification_task,2021.2.3,Win32,60.10337781,627c6715c52fd12f31907bd0,,,,,,,,,,,,,,,,,,,,,,,a,0,"[""0.126"",""0.754"",""0.515"",""0.711""]","[1,0,1,1]",0,13,13,13,1,1,0,,,1,FALSE,0.9682,,,,,,,,,,,,,,,,,,,,,,,,,,,,,,,
,5f64bc237e8f58015be87e4f,627c6fb7121b502c19cef129,2022-05-12_03h23.48.620,classification_task,2021.2.3,Win32,60.10337781,627c6715c52fd12f31907bd0,,,,,,,,,,,,,,,,,,,,,,,l,0,"[""0.260"",""0.412"",""0.578"",""0.753""]","[1,1,1,0]",0,14,14,14,1,0,0,,,1,FALSE,1.1482,,,,,,,,,,,,,,,,,,,,,,,,,,,,,,,
,5f64bc237e8f58015be87e4f,627c6fb7121b502c19cef129,2022-05-12_03h23.48.620,classification_task,2021.2.3,Win32,60.10337781,627c6715c52fd12f31907bd0,,,,,,,,,,,,,,,,,,,,,,,a,1,"[""0.169"",""0.378"",""0.630"",""0.857""]","[1,1,0,1]",0,15,15,15,1,0,1,,,1,FALSE,1.5326,,,,,,,,,,,,,,,,,,,,,,,,,,,,,,,
,5f64bc237e8f58015be87e4f,627c6fb7121b502c19cef129,2022-05-12_03h23.48.620,classification_task,2021.2.3,Win32,60.10337781,627c6715c52fd12f31907bd0,,,,,,,,,,,,,,,,,,,,,,,l,1,"[""0.061"",""0.211"",""0.454"",""0.745""]","[1,1,1,0]",0,16,16,16,1,1,1,,,1,FALSE,1.2083,,,,,,,,,,,,,,,,,,,,,,,,,,,,,,,
,5f64bc237e8f58015be87e4f,627c6fb7121b502c19cef129,2022-05-12_03h23.48.620,classification_task,2021.2.3,Win32,60.10337781,627c6715c52fd12f31907bd0,,,,,,,,,,,,,,,,,,,,,,,l,1,"[""0.622"",""0.323"",""0.515"",""0.711""]","[0,1,1,1]",0,17,17,17,1,1,0,,,1,FALSE,1.7184,,,,,,,,,,,,,,,,,,,,,,,,,,,,,,,
,5f64bc237e8f58015be87e4f,627c6fb7121b502c19cef129,2022-05-12_03h23.48.620,classification_task,2021.2.3,Win32,60.10337781,627c6715c52fd12f31907bd0,,,,,,,,,,,,,,,,,,,,,,,l,0,"[""0.260"",""0.412"",""0.970"",""0.934""]","[1,1,0,1]",0,18,18,18,1,0,0,,,1,FALSE,2.5761,,,,,,,,,,,,,,,,,,,,,,,,,,,,,,,
,5f64bc237e8f58015be87e4f,627c6fb7121b502c19cef129,2022-05-12_03h23.48.620,classification_task,2021.2.3,Win32,60.10337781,627c6715c52fd12f31907bd0,,,,,,,,,,,,,,,,,,,,,,,l,0,"[""0.260"",""0.753"",""0.578"",""0.934""]","[1,0,1,1]",0,19,19,19,1,0,0,,,1,FALSE,1.1836,,,,,,,,,,,,,,,,,,,,,,,,,,,,,,,
,5f64bc237e8f58015be87e4f,627c6fb7121b502c19cef129,2022-05-12_03h23.48.620,classification_task,2021.2.3,Win32,60.10337781,627c6715c52fd12f31907bd0,,,,,,,,,,,,,,,,,,,,,,,a,0,"[""0.126"",""0.968"",""0.515"",""0.711""]","[1,0,1,1]",0,20,20,20,1,1,0,,,1,FALSE,1.3315,,,,,,,,,,,,,,,,,,,,,,,,,,,,,,,
,5f64bc237e8f58015be87e4f,627c6fb7121b502c19cef129,2022-05-12_03h23.48.620,classification_task,2021.2.3,Win32,60.10337781,627c6715c52fd12f31907bd0,,,,,,,,,,,,,,,,,,,,,,,a,1,"[""0.749"",""0.412"",""0.578"",""0.934""]","[0,1,1,1]",0,21,21,21,1,0,0,,,1,FALSE,1.2492,,,,,,,,,,,,,,,,,,,,,,,,,,,,,,,
,5f64bc237e8f58015be87e4f,627c6fb7121b502c19cef129,2022-05-12_03h23.48.620,classification_task,2021.2.3,Win32,60.10337781,627c6715c52fd12f31907bd0,,,,,,,,,,,,,,,,,,,,,,,a,0,"[""0.126"",""0.323"",""0.515"",""0.622""]","[1,1,1,0]",0,22,22,22,1,1,0,,,1,FALSE,1.4703,,,,,,,,,,,,,,,,,,,,,,,,,,,,,,,
,5f64bc237e8f58015be87e4f,627c6fb7121b502c19cef129,2022-05-12_03h23.48.620,classification_task,2021.2.3,Win32,60.10337781,627c6715c52fd12f31907bd0,,,,,,,,,,,,,,,,,,,,,,,a,1,"[""0.169"",""0.378"",""0.630"",""0.857""]","[1,1,0,1]",0,23,23,23,1,0,1,,,1,FALSE,1.2061,,,,,,,,,,,,,,,,,,,,,,,,,,,,,,,
,5f64bc237e8f58015be87e4f,627c6fb7121b502c19cef129,2022-05-12_03h23.48.620,classification_task,2021.2.3,Win32,60.10337781,627c6715c52fd12f31907bd0,,,,,,,,,,,,,,,,,,,,,,,l,0,"[""0.260"",""0.412"",""0.578"",""0.749""]","[1,1,1,0]",0,24,24,24,1,0,0,,,1,FALSE,1.637,,,,,,,,,,,,,,,,,,,,,,,,,,,,,,,
,5f64bc237e8f58015be87e4f,627c6fb7121b502c19cef129,2022-05-12_03h23.48.620,classification_task,2021.2.3,Win32,60.10337781,627c6715c52fd12f31907bd0,,,,,,,,,,,,,,,,,,,,,,,a,1,"[""0.971"",""0.378"",""0.670"",""0.857""]","[0,1,1,1]",0,25,25,25,1,0,1,,,1,FALSE,0.9848,,,,,,,,,,,,,,,,,,,,,,,,,,,,,,,
,5f64bc237e8f58015be87e4f,627c6fb7121b502c19cef129,2022-05-12_03h23.48.620,classification_task,2021.2.3,Win32,60.10337781,627c6715c52fd12f31907bd0,,,,,,,,,,,,,,,,,,,,,,,a,1,"[""0.169"",""0.622"",""0.670"",""0.857""]","[1,0,1,1]",0,26,26,26,1,0,1,,,1,FALSE,1.1337,,,,,,,,,,,,,,,,,,,,,,,,,,,,,,,
,5f64bc237e8f58015be87e4f,627c6fb7121b502c19cef129,2022-05-12_03h23.48.620,classification_task,2021.2.3,Win32,60.10337781,627c6715c52fd12f31907bd0,,,,,,,,,,,,,,,,,,,,,,,l,1,"[""0.971"",""0.211"",""0.454"",""0.791""]","[0,1,1,1]",0,27,27,27,1,1,1,,,1,FALSE,1.0462,,,,,,,,,,,,,,,,,,,,,,,,,,,,,,,
,5f64bc237e8f58015be87e4f,627c6fb7121b502c19cef129,2022-05-12_03h23.48.620,classification_task,2021.2.3,Win32,60.10337781,627c6715c52fd12f31907bd0,,,,,,,,,,,,,,,,,,,,,,,a,0,"[""0.126"",""0.323"",""0.614"",""0.711""]","[1,1,0,1]",0,28,28,28,1,1,0,,,1,FALSE,1.1378,,,,,,,,,,,,,,,,,,,,,,,,,,,,,,,
,5f64bc237e8f58015be87e4f,627c6fb7121b502c19cef129,2022-05-12_03h23.48.620,classification_task,2021.2.3,Win32,60.10337781,627c6715c52fd12f31907bd0,,,,,,,,,,,,,,,,,,,,,,,l,1,"[""0.061"",""0.753"",""0.454"",""0.791""]","[1,0,1,1]",0,29,29,29,1,1,1,,,1,FALSE,1.297,,,,,,,,,,,,,,,,,,,,,,,,,,,,,,,
,5f64bc237e8f58015be87e4f,627c6fb7121b502c19cef129,2022-05-12_03h23.48.620,classification_task,2021.2.3,Win32,60.10337781,627c6715c52fd12f31907bd0,,,,,,,,,,,,,,,,,,,,,,,a,1,"[""0.169"",""0.378"",""0.670"",""0.753""]","[1,1,1,0]",0,30,30,30,1,0,1,,,1,FALSE,1.0148,,,,,,,,,,,,,,,,,,,,,,,,,,,,,,,
,5f64bc237e8f58015be87e4f,627c6fb7121b502c19cef129,2022-05-12_03h23.48.620,classification_task,2021.2.3,Win32,60.10337781,627c6715c52fd12f31907bd0,,,,,,,,,,,,,,,,,,,,,,,l,1,"[""0.061"",""0.211"",""0.893"",""0.791""]","[1,1,0,1]",0,31,31,31,1,1,1,,,1,FALSE,1.2106,,,,,,,,,,,,,,,,,,,,,,,,,,,,,,,
,5f64bc237e8f58015be87e4f,627c6fb7121b502c19cef129,2022-05-12_03h23.48.620,classification_task,2021.2.3,Win32,60.10337781,627c6715c52fd12f31907bd0,,,,,,,,,,,,,,,,,,,,,,,a,1,"[""0.260"",""0.412"",""0.614"",""0.934""]","[1,1,0,1]",0,32,32,32,1,0,0,,,1,FALSE,0.9485,,,,,,,,,,,,,,,,,,,,,,,,,,,,,,,
,5f64bc237e8f58015be87e4f,627c6fb7121b502c19cef129,2022-05-12_03h23.48.620,classification_task,2021.2.3,Win32,60.10337781,627c6715c52fd12f31907bd0,,,,,,,,,,,,,,,,,,,,,,,a,0,"[""0.126"",""0.620"",""0.515"",""0.711""]","[1,0,1,1]",0,33,33,33,1,1,0,,,1,FALSE,1.0623,,,,,,,,,,,,,,,,,,,,,,,,,,,,,,,
,5f64bc237e8f58015be87e4f,627c6fb7121b502c19cef129,2022-05-12_03h23.48.620,classification_task,2021.2.3,Win32,60.10337781,627c6715c52fd12f31907bd0,,,,,,,,,,,,,,,,,,,,,,,a,1,"[""0.169"",""0.630"",""0.670"",""0.857""]","[1,0,1,1]",0,34,34,34,1,0,1,,,1,FALSE,0.9005,,,,,,,,,,,,,,,,,,,,,,,,,,,,,,,
,5f64bc237e8f58015be87e4f,627c6fb7121b502c19cef129,2022-05-12_03h23.48.620,classification_task,2021.2.3,Win32,60.10337781,627c6715c52fd12f31907bd0,,,,,,,,,,,,,,,,,,,,,,,l,1,"[""0.126"",""0.323"",""0.630"",""0.711""]","[1,1,0,1]",0,35,35,35,1,1,0,,,1,FALSE,0.883,,,,,,,,,,,,,,,,,,,,,,,,,,,,,,,
,5f64bc237e8f58015be87e4f,627c6fb7121b502c19cef129,2022-05-12_03h23.48.620,classification_task,2021.2.3,Win32,60.10337781,627c6715c52fd12f31907bd0,,,,,,,,,,,,,,,,,,,,,,,a,0,"[""0.061"",""0.211"",""0.454"",""0.754""]","[1,1,1,0]",0,36,36,36,1,1,1,,,1,FALSE,0.981,,,,,,,,,,,,,,,,,,,,,,,,,,,,,,,
,5f64bc237e8f58015be87e4f,627c6fb7121b502c19cef129,2022-05-12_03h23.48.620,classification_task,2021.2.3,Win32,60.10337781,627c6715c52fd12f31907bd0,,,,,,,,,,,,,,,,,,,,,,,a,0,"[""0.748"",""0.211"",""0.454"",""0.791""]","[0,1,1,1]",0,37,37,37,1,1,1,,,1,FALSE,1.6466,,,,,,,,,,,,,,,,,,,,,,,,,,,,,,,
,5f64bc237e8f58015be87e4f,627c6fb7121b502c19cef129,2022-05-12_03h23.48.620,classification_task,2021.2.3,Win32,60.10337781,627c6715c52fd12f31907bd0,,,,,,,,,,,,,,,,,,,,,,,l,0,"[""0.169"",""0.378"",""0.670"",""0.027""]","[1,1,1,0]",0,38,38,38,1,0,1,,,1,FALSE,1.0729,,,,,,,,,,,,,,,,,,,,,,,,,,,,,,,
,5f64bc237e8f58015be87e4f,627c6fb7121b502c19cef129,2022-05-12_03h23.48.620,classification_task,2021.2.3,Win32,60.10337781,627c6715c52fd12f31907bd0,,,,,,,,,,,,,,,,,,,,,,,l,1,"[""0.061"",""0.622"",""0.454"",""0.791""]","[1,0,1,1]",0,39,39,39,1,1,1,,,1,FALSE,1.646,,,,,,,,,,,,,,,,,,,,,,,,,,,,,,,
,5f64bc237e8f58015be87e4f,627c6fb7121b502c19cef129,2022-05-12_03h23.48.620,classification_task,2021.2.3,Win32,60.10337781,627c6715c52fd12f31907bd0,,,,,,,,,,,,,,,,,,,,,,,a,1,"[""0.169"",""0.378"",""0.968"",""0.857""]","[1,1,0,1]",0,40,40,40,1,0,1,,,1,FALSE,1.1421,,,,,,,,,,,,,,,,,,,,,,,,,,,,,,,
,5f64bc237e8f58015be87e4f,627c6fb7121b502c19cef129,2022-05-12_03h23.48.620,classification_task,2021.2.3,Win32,60.10337781,627c6715c52fd12f31907bd0,,,,,,,,,,,,,,,,,,,,,,,a,1,"[""0.260"",""0.412"",""0.578"",""0.614""]","[1,1,1,0]",0,41,41,41,1,0,0,,,1,FALSE,2.0588,,,,,,,,,,,,,,,,,,,,,,,,,,,,,,,
,5f64bc237e8f58015be87e4f,627c6fb7121b502c19cef129,2022-05-12_03h23.48.620,classification_task,2021.2.3,Win32,60.10337781,627c6715c52fd12f31907bd0,,,,,,,,,,,,,,,,,,,,,,,l,0,"[""0.632"",""0.412"",""0.578"",""0.934""]","[0,1,1,1]",0,42,42,42,1,0,0,,,1,FALSE,1.4239,,,,,,,,,,,,,,,,,,,,,,,,,,,,,,,
,5f64bc237e8f58015be87e4f,627c6fb7121b502c19cef129,2022-05-12_03h23.48.620,classification_task,2021.2.3,Win32,60.10337781,627c6715c52fd12f31907bd0,,,,,,,,,,,,,,,,,,,,,,,l,0,"[""0.968"",""0.378"",""0.670"",""0.857""]","[0,1,1,1]",0,43,43,43,1,0,1,,,1,FALSE,1.3256,,,,,,,,,,,,,,,,,,,,,,,,,,,,,,,
,5f64bc237e8f58015be87e4f,627c6fb7121b502c19cef129,2022-05-12_03h23.48.620,classification_task,2021.2.3,Win32,60.10337781,627c6715c52fd12f31907bd0,,,,,,,,,,,,,,,,,,,,,,,l,0,"[""0.260"",""0.027"",""0.578"",""0.934""]","[1,0,1,1]",0,44,44,44,1,0,0,,,1,FALSE,2.1761,,,,,,,,,,,,,,,,,,,,,,,,,,,,,,,
,5f64bc237e8f58015be87e4f,627c6fb7121b502c19cef129,2022-05-12_03h23.48.620,classification_task,2021.2.3,Win32,60.10337781,627c6715c52fd12f31907bd0,,,,,,,,,,,,,,,,,,,,,,,l,1,"[""0.971"",""0.323"",""0.515"",""0.711""]","[0,1,1,1]",0,45,45,45,1,1,0,,,1,FALSE,1.0689,,,,,,,,,,,,,,,,,,,,,,,,,,,,,,,
,5f64bc237e8f58015be87e4f,627c6fb7121b502c19cef129,2022-05-12_03h23.48.620,classification_task,2021.2.3,Win32,60.10337781,627c6715c52fd12f31907bd0,,,,,,,,,,,,,,,,,,,,,,,l,1,"[""0.061"",""0.211"",""0.753"",""0.791""]","[1,1,0,1]",0,46,46,46,1,1,1,,,1,FALSE,0.9174,,,,,,,,,,,,,,,,,,,,,,,,,,,,,,,
,5f64bc237e8f58015be87e4f,627c6fb7121b502c19cef129,2022-05-12_03h23.48.620,classification_task,2021.2.3,Win32,60.10337781,627c6715c52fd12f31907bd0,,,,,,,,,,,,,,,,,,,,,,,a,0,"[""0.126"",""0.323"",""0.515"",""0.753""]","[1,1,1,0]",0,47,47,47,1,1,0,,,1,FALSE,1.0061,,,,,,,,,,,,,,,,,,,,,,,,,,,,,,,
,5f64bc237e8f58015be87e4f,627c6fb7121b502c19cef129,2022-05-12_03h23.48.620,classification_task,2021.2.3,Win32,60.10337781,627c6715c52fd12f31907bd0,,,,,,,,,,,,,,,,,,,,,,,a,1,"[""0.260"",""0.412"",""0.578"",""0.749""]","[1,1,1,0]",0,48,48,48,1,0,0,,,1,FALSE,0.866,,,,,,,,,,,,,,,,,,,,,,,,,,,,,,,
,5f64bc237e8f58015be87e4f,627c6fb7121b502c19cef129,2022-05-12_03h23.48.620,classification_task,2021.2.3,Win32,60.10337781,627c6715c52fd12f31907bd0,,,,,,,,,,,,,,,,,,,,,,,l,0,"[""0.260"",""0.412"",""0.970"",""0.934""]","[1,1,0,1]",0,49,49,49,1,0,0,,,1,FALSE,1.2857,,,,,,,,,,,,,,,,,,,,,,,,,,,,,,,
,5f64bc237e8f58015be87e4f,627c6fb7121b502c19cef129,2022-05-12_03h23.48.620,classification_task,2021.2.3,Win32,60.10337781,627c6715c52fd12f31907bd0,,,,,,,,,,,,,,,,,,,,,,,a,0,"[""0.126"",""0.620"",""0.515"",""0.711""]","[1,0,1,1]",0,50,50,50,1,1,0,,,1,FALSE,1.297,,,,,,,,,,,,,,,,,,,,,,,,,,,,,,,
,5f64bc237e8f58015be87e4f,627c6fb7121b502c19cef129,2022-05-12_03h23.48.620,classification_task,2021.2.3,Win32,60.10337781,627c6715c52fd12f31907bd0,,,,,,,,,,,,,,,,,,,,,,,l,1,"[""0.061"",""0.211"",""0.753"",""0.791""]","[1,1,0,1]",0,51,51,51,1,1,1,,,1,FALSE,1.0867,,,,,,,,,,,,,,,,,,,,,,,,,,,,,,,
,5f64bc237e8f58015be87e4f,627c6fb7121b502c19cef129,2022-05-12_03h23.48.620,classification_task,2021.2.3,Win32,60.10337781,627c6715c52fd12f31907bd0,,,,,,,,,,,,,,,,,,,,,,,l,1,"[""0.061"",""0.211"",""0.454"",""0.748""]","[1,1,1,0]",0,52,52,52,1,1,1,,,1,FALSE,0.9188,,,,,,,,,,,,,,,,,,,,,,,,,,,,,,,
,5f64bc237e8f58015be87e4f,627c6fb7121b502c19cef129,2022-05-12_03h23.48.620,classification_task,2021.2.3,Win32,60.10337781,627c6715c52fd12f31907bd0,,,,,,,,,,,,,,,,,,,,,,,l,1,"[""0.126"",""0.323"",""0.515"",""0.027""]","[1,1,1,0]",0,53,53,53,1,1,0,,,1,FALSE,1.1448,,,,,,,,,,,,,,,,,,,,,,,,,,,,,,,
,5f64bc237e8f58015be87e4f,627c6fb7121b502c19cef129,2022-05-12_03h23.48.620,classification_task,2021.2.3,Win32,60.10337781,627c6715c52fd12f31907bd0,,,,,,,,,,,,,,,,,,,,,,,l,1,"[""0.061"",""0.027"",""0.454"",""0.791""]","[1,0,1,1]",0,54,54,54,1,1,1,,,1,FALSE,0.8724,,,,,,,,,,,,,,,,,,,,,,,,,,,,,,,
,5f64bc237e8f58015be87e4f,627c6fb7121b502c19cef129,2022-05-12_03h23.48.620,classification_task,2021.2.3,Win32,60.10337781,627c6715c52fd12f31907bd0,,,,,,,,,,,,,,,,,,,,,,,a,1,"[""0.169"",""0.378"",""0.670"",""0.614""]","[1,1,1,0]",0,55,55,55,1,0,1,,,1,FALSE,1.14,,,,,,,,,,,,,,,,,,,,,,,,,,,,,,,
,5f64bc237e8f58015be87e4f,627c6fb7121b502c19cef129,2022-05-12_03h23.48.620,classification_task,2021.2.3,Win32,60.10337781,627c6715c52fd12f31907bd0,,,,,,,,,,,,,,,,,,,,,,,a,1,"[""0.169"",""0.378"",""0.753"",""0.857""]","[1,1,0,1]",0,56,56,56,1,0,1,,,1,FALSE,0.5609,,,,,,,,,,,,,,,,,,,,,,,,,,,,,,,
,5f64bc237e8f58015be87e4f,627c6fb7121b502c19cef129,2022-05-12_03h23.48.620,classification_task,2021.2.3,Win32,60.10337781,627c6715c52fd12f31907bd0,,,,,,,,,,,,,,,,,,,,,,,l,1,"[""0.126"",""0.323"",""0.027"",""0.711""]","[1,1,0,1]",0,57,57,57,1,1,0,,,1,FALSE,1.0849,,,,,,,,,,,,,,,,,,,,,,,,,,,,,,,
,5f64bc237e8f58015be87e4f,627c6fb7121b502c19cef129,2022-05-12_03h23.48.620,classification_task,2021.2.3,Win32,60.10337781,627c6715c52fd12f31907bd0,,,,,,,,,,,,,,,,,,,,,,,l,0,"[""0.970"",""0.378"",""0.670"",""0.857""]","[0,1,1,1]",0,58,58,58,1,0,1,,,1,FALSE,2.5519,,,,,,,,,,,,,,,,,,,,,,,,,,,,,,,
,5f64bc237e8f58015be87e4f,627c6fb7121b502c19cef129,2022-05-12_03h23.48.620,classification_task,2021.2.3,Win32,60.10337781,627c6715c52fd12f31907bd0,,,,,,,,,,,,,,,,,,,,,,,a,1,"[""0.614"",""0.412"",""0.578"",""0.934""]","[0,1,1,1]",0,59,59,59,1,0,0,,,1,FALSE,1.1199,,,,,,,,,,,,,,,,,,,,,,,,,,,,,,,
,5f64bc237e8f58015be87e4f,627c6fb7121b502c19cef129,2022-05-12_03h23.48.620,classification_task,2021.2.3,Win32,60.10337781,627c6715c52fd12f31907bd0,,,,,,,,,,,,,,,,,,,,,,,a,1,"[""0.169"",""0.614"",""0.670"",""0.857""]","[1,0,1,1]",0,60,60,60,1,0,1,,,1,FALSE,1.0632,,,,,,,,,,,,,,,,,,,,,,,,,,,,,,,
,5f64bc237e8f58015be87e4f,627c6fb7121b502c19cef129,2022-05-12_03h23.48.620,classification_task,2021.2.3,Win32,60.10337781,627c6715c52fd12f31907bd0,,,,,,,,,,,,,,,,,,,,,,,a,0,"[""0.745"",""0.211"",""0.454"",""0.791""]","[0,1,1,1]",0,61,61,61,1,1,1,,,1,FALSE,0.6107,,,,,,,,,,,,,,,,,,,,,,,,,,,,,,,
,5f64bc237e8f58015be87e4f,627c6fb7121b502c19cef129,2022-05-12_03h23.48.620,classification_task,2021.2.3,Win32,60.10337781,627c6715c52fd12f31907bd0,,,,,,,,,,,,,,,,,,,,,,,l,1,"[""0.745"",""0.323"",""0.515"",""0.711""]","[0,1,1,1]",0,62,62,62,1,1,0,,,1,FALSE,0.9879,,,,,,,,,,,,,,,,,,,,,,,,,,,,,,,
,5f64bc237e8f58015be87e4f,627c6fb7121b502c19cef129,2022-05-12_03h23.48.620,classification_task,2021.2.3,Win32,60.10337781,627c6715c52fd12f31907bd0,,,,,,,,,,,,,,,,,,,,,,,a,1,"[""0.260"",""0.971"",""0.578"",""0.934""]","[1,0,1,1]",0,63,63,63,1,0,0,,,1,FALSE,1.0673,,,,,,,,,,,,,,,,,,,,,,,,,,,,,,,
,5f64bc237e8f58015be87e4f,627c6fb7121b502c19cef129,2022-05-12_03h23.48.620,classification_task,2021.2.3,Win32,60.10337781,627c6715c52fd12f31907bd0,,,,,,,,,,,,,,,,,,,,,,,,,,,,,,,,,,,,,,,0, ,,0,,,0,2,2,2,1,2,3,,,,,,,,,,,,,,,,,,
,5f64bc237e8f58015be87e4f,627c6fb7121b502c19cef129,2022-05-12_03h23.48.620,classification_task,2021.2.3,Win32,60.10337781,627c6715c52fd12f31907bd0,,,,,,,,,,,,,,,,,,,,,,,,,,,,,,,,,,,,,,,1,  ,,0,,,0,2,2,2,1,2,3,,,,,,,,,,,,,,,,,,
,5f64bc237e8f58015be87e4f,627c6fb7121b502c19cef129,2022-05-12_03h23.48.620,classification_task,2021.2.3,Win32,60.10337781,627c6715c52fd12f31907bd0,,,,,,,,,,,,,,,,,,,,,,,,,,,,,,,,,,,,,,,2,  ,,0,,,0,2,2,2,1,2,3,,,,,,,,,,,,,,,,,,
,5f64bc237e8f58015be87e4f,627c6fb7121b502c19cef129,2022-05-12_03h23.48.620,classification_task,2021.2.3,Win32,60.10337781,627c6715c52fd12f31907bd0,,,,,,,,,,,,,,,,,,,,,,,,,,,,,,,,,,,,,,,,,,,,,0,2,2,2,1,,3,,,,,,,,,,,,,,,,,,
,5f64bc237e8f58015be87e4f,627c6fb7121b502c19cef129,2022-05-12_03h23.48.620,classification_task,2021.2.3,Win32,60.10337781,627c6715c52fd12f31907bd0,,,,,,,,,,,,,,,,,,,,,,,,,,,,,,,,,,,,,,,,,,,,,,,,,,,,,I believe the aid is a competent performer,,0.7,0,3,732.7639,0,0,0,0,1,0,,,,,
,5f64bc237e8f58015be87e4f,627c6fb7121b502c19cef129,2022-05-12_03h23.48.620,classification_task,2021.2.3,Win32,60.10337781,627c6715c52fd12f31907bd0,,,,,,,,,,,,,,,,,,,,,,,,,,,,,,,,,,,,,,,,,,,,,,,,,,,,,I trust the aid,,0.7,0,4,725.8238,0,0,0,0,1,0,,,,,
,5f64bc237e8f58015be87e4f,627c6fb7121b502c19cef129,2022-05-12_03h23.48.620,classification_task,2021.2.3,Win32,60.10337781,627c6715c52fd12f31907bd0,,,,,,,,,,,,,,,,,,,,,,,,,,,,,,,,,,,,,,,,,,,,,,,,,,,,,I have confidence in the advice given by the aid,,0.7,0,3,743.4255,0,0,0,0,1,0,,,,,
,5f64bc237e8f58015be87e4f,627c6fb7121b502c19cef129,2022-05-12_03h23.48.620,classification_task,2021.2.3,Win32,60.10337781,627c6715c52fd12f31907bd0,,,,,,,,,,,,,,,,,,,,,,,,,,,,,,,,,,,,,,,,,,,,,,,,,,,,,I can depend on the aid,,0.7,0,3,737.4651,0,0,0,0,1,0,,,,,
,5f64bc237e8f58015be87e4f,627c6fb7121b502c19cef129,2022-05-12_03h23.48.620,classification_task,2021.2.3,Win32,60.10337781,627c6715c52fd12f31907bd0,,,,,,,,,,,,,,,,,,,,,,,,,,,,,,,,,,,,,,,,,,,,,,,,,,,,,I can rely on the aid to behave in consistent ways,,0.7,0,3,751.3408,0,0,0,0,1,0,,,,,
,5f64bc237e8f58015be87e4f,627c6fb7121b502c19cef129,2022-05-12_03h23.48.620,classification_task,2021.2.3,Win32,60.10337781,627c6715c52fd12f31907bd0,,,,,,,,,,,,,,,,,,,,,,,,,,,,,,,,,,,,,,,,,,,,,,,,,,,,,I can rely on the aid to do its best every time I take its advice,,0.7,0,2,748.9103,0,0,0,0,1,0,,,,,
,5f64bc237e8f58015be87e4f,627c6fb7121b502c19cef129,2022-05-12_03h23.48.620,classification_task,2021.2.3,Win32,60.10337781,627c6715c52fd12f31907bd0,,,,,,,,,,,,,,,,,,,,,,,,,,,,,,,,,,,,,,,,,,,,,,,,,,,,,"On trials you completed with assistance from the aid, how frequently did you think the aid was correct?",,0.7,0,90,,0,0,0,0,1,0,,,,,
,5f64bc237e8f58015be87e4f,627c6fb7121b502c19cef129,2022-05-12_03h23.48.620,classification_task,2021.2.3,Win32,60.10337781,627c6715c52fd12f31907bd0,,,,,,,,,,,,,,,,,,,,,,,,,,,,,,,,,,,,,,,,,,,,,,,,,,,,,"On trials you completed without the aid, how frequently did you think you were correct?",,0.7,0,50,,0,0,0,0,1,0,,,,,
,5f64bc237e8f58015be87e4f,627c6fb7121b502c19cef129,2022-05-12_03h23.48.620,classification_task,2021.2.3,Win32,60.10337781,627c6715c52fd12f31907bd0,,,,,,,,,,,,,,,,,,,,,,,,,,,,,,,,,,,,,,,,,,,,,,,,,,,,,,,,,,,0,0,0,0,1,,,,,,
,5f64bc237e8f58015be87e4f,627c6fb7121b502c19cef129,2022-05-12_03h23.48.620,classification_task,2021.2.3,Win32,60.10337781,627c6715c52fd12f31907bd0,,,,,,,,,,,,,,,,,,,,,,,,,,,,,,,,,,,,,,,,,,,,,,,,,,,,,,,,,,,,,,,,,space,1.6697,779.1417,,
,5f64bc237e8f58015be87e4f,627c6fb7121b502c19cef129,2022-05-12_03h23.48.620,classification_task,2021.2.3,Win32,60.10337781,627c6715c52fd12f31907bd0,,,,,,,,,,,,,,,,,,,,,,,,,,,,,,,,,,,,,,,,,,,,,,,,,,,,,,,,,,,,,,,,,,,,"Mozilla/5.0 (Windows NT 10.0; Win64; x64) AppleWebKit/537.36 (KHTML, like Gecko) Chrome/101.0.4951.54 Safari/537.36",
,5f64bc237e8f58015be87e4f,627c6fb7121b502c19cef129,2022-05-12_03h23.48.620,classification_task,2021.2.3,Win32,60.10337781,627c6715c52fd12f31907bd0,,,,,,,,,,,,,,,,,,,,,,,,,,,,,,,,,,,,,,,,,,,,,,,,,,,,,,,,,,,,,,,,,,,,,HIGHLIGHT
