usingWebGL,participant,session,date,expName,psychopyVersion,OS,frameRate,study_id,signatures_friend,signatures_foe,band_ranges_top,band_ranges_bottom,formitemText,formtype,formundefined,formitemWidth,formindex,formresponse,formrt,key_resp_2.keys,key_resp_2.rt,tute_resp.keys,tute_resp.rt,tutorial.thisRepN,tutorial.thisTrialN,tutorial.thisN,tutorial.thisIndex,tutorial.ran,key_resp_4.keys,key_resp_4.rt,key_resp.keys,key_resp.corr,key_resp.rt,lines_presented,is_signal_presented,trials.thisRepN,trials.thisTrialN,trials.thisN,trials.thisIndex,trials.ran,vessel,active_band,lines,is_signal,supported_pos,catch_trial,debrief_formindex,debrief_formitemText,debrief_formtype,debrief_formitemWidth,debrief_formresponse,debrief_formrt,phases.thisRepN,phases.thisTrialN,phases.thisN,phases.thisIndex,phases.ran,phases.order,phase,key_resp_3.keys,trustitemText,trusttype,trustitemWidth,trustindex,trustresponse,trustrt,support_status.thisRepN,support_status.thisTrialN,support_status.thisN,support_status.thisIndex,support_status.ran,support_status.order,key_resp_5.keys,key_resp_5.rt,globalClockTime,userAgent,manualCondition
TRUE,5f66457793e8240d22e60ea3,627c6dec893f7b013ae2db10,2022-05-11_21h19.06.525,classification_task,2021.2.3,MacIntel,59.99880002,627c6715c52fd12f31907bcf,,,,,,,,,,,,,,,,,,,,,,,,,,,,,,,,,,,,,,,,,,,,,,,,,,,,,,,,,,,,,,,,,,,,,
,5f66457793e8240d22e60ea3,627c6dec893f7b013ae2db10,2022-05-11_21h19.06.525,classification_task,2021.2.3,MacIntel,59.99880002,627c6715c52fd12f31907bcf,"[[""0.179"",""0.445"",""0.865"",""0.941""],[""0.254"",""0.548"",""0.898"",""0.975""]]","[[""0.076"",""0.290"",""0.506"",""0.831""],[""0.128"",""0.402"",""0.639"",""0.745""]]","[1,10]","[100,1000]",Video game experience,,,0.7,0,,,,,,,,,,,,,,,,,,,,,,,,,,,,,,,,,,,,,,,,,,,,,,,,,,,,,,,,,,,,
,5f66457793e8240d22e60ea3,627c6dec893f7b013ae2db10,2022-05-11_21h19.06.525,classification_task,2021.2.3,MacIntel,59.99880002,627c6715c52fd12f31907bcf,,,,,Approximately how many hours did you spend playing video games in the last week?,,,0.7,0,10,,,,,,,,,,,,,,,,,,,,,,,,,,,,,,,,,,,,,,,,,,,,,,,,,,,,,,,,,,,
,5f66457793e8240d22e60ea3,627c6dec893f7b013ae2db10,2022-05-11_21h19.06.525,classification_task,2021.2.3,MacIntel,59.99880002,627c6715c52fd12f31907bcf,,,,,"Which game did you play the most this year? (Enter ""None"" if you didn't play any)",,,0.7,0,GTA V,,,,,,,,,,,,,,,,,,,,,,,,,,,,,,,,,,,,,,,,,,,,,,,,,,,,,,,,,,,
,5f66457793e8240d22e60ea3,627c6dec893f7b013ae2db10,2022-05-11_21h19.06.525,classification_task,2021.2.3,MacIntel,59.99880002,627c6715c52fd12f31907bcf,,,,,Visual perception,,,0.7,0,,,,,,,,,,,,,,,,,,,,,,,,,,,,,,,,,,,,,,,,,,,,,,,,,,,,,,,,,,,,
,5f66457793e8240d22e60ea3,627c6dec893f7b013ae2db10,2022-05-11_21h19.06.525,classification_task,2021.2.3,MacIntel,59.99880002,627c6715c52fd12f31907bcf,,,,,Do you have any form of color blindness?,,,0.7,0,No,29.0136,,,,,,,,,,,,,,,,,,,,,,,,,,,,,,,,,,,,,,,,,,,,,,,,,,,,,,,,,,
,5f66457793e8240d22e60ea3,627c6dec893f7b013ae2db10,2022-05-11_21h19.06.525,classification_task,2021.2.3,MacIntel,59.99880002,627c6715c52fd12f31907bcf,,,,,Do you use software to change the colour temperature of your screen (e.g. f.lux)?,,,0.7,0,No,33.582,,,,,,,,,,,,,,,,,,,,,,,,,,,,,,,,,,,,,,,,,,,,,,,,,,,,,,,,,,
,5f66457793e8240d22e60ea3,627c6dec893f7b013ae2db10,2022-05-11_21h19.06.525,classification_task,2021.2.3,MacIntel,59.99880002,627c6715c52fd12f31907bcf,,,,,,,,,,,,space,37.1929,space,11.2622,0,0,0,0,1,,,,,,,,,,,,,,,,,,,,,,,,,,,,,,,,,,,,,,,,,,,,,,,,,
,5f66457793e8240d22e60ea3,627c6dec893f7b013ae2db10,2022-05-11_21h19.06.525,classification_task,2021.2.3,MacIntel,59.99880002,627c6715c52fd12f31907bcf,,,,,,,,,,,,,,space,10.0979,1,0,1,0,1,,,,,,,,,,,,,,,,,,,,,,,,,,,,,,,,,,,,,,,,,,,,,,,,,
,5f66457793e8240d22e60ea3,627c6dec893f7b013ae2db10,2022-05-11_21h19.06.525,classification_task,2021.2.3,MacIntel,59.99880002,627c6715c52fd12f31907bcf,,,,,,,,,,,,,,space,24.8333,2,0,2,0,1,,,,,,,,,,,,,,,,,,,,,,,,,,,,,,,,,,,,,,,,,,,,,,,,,
,5f66457793e8240d22e60ea3,627c6dec893f7b013ae2db10,2022-05-11_21h19.06.525,classification_task,2021.2.3,MacIntel,59.99880002,627c6715c52fd12f31907bcf,,,,,,,,,,,,,,space,29.0168,3,0,3,0,1,,,,,,,,,,,,,,,,,,,,,,,,,,,,,,,,,,,,,,,,,,,,,,,,,
,5f66457793e8240d22e60ea3,627c6dec893f7b013ae2db10,2022-05-11_21h19.06.525,classification_task,2021.2.3,MacIntel,59.99880002,627c6715c52fd12f31907bcf,,,,,,,,,,,,,,space,25.9468,4,0,4,0,1,,,,,,,,,,,,,,,,,,,,,,,,,,,,,,,,,,,,,,,,,,,,,,,,,
,5f66457793e8240d22e60ea3,627c6dec893f7b013ae2db10,2022-05-11_21h19.06.525,classification_task,2021.2.3,MacIntel,59.99880002,627c6715c52fd12f31907bcf,,,,,,,,,,,,,,,,,,,,,space,26.9722,l,0,7.699,"[""0.254"",""0.548"",""0.898"",""0.326""]","[1,1,1,0]",0,0,0,0,1,0,1,,,0,FALSE,,,,,,,,,,,,,,,,,,,,,,,,,,,,,,,
,5f66457793e8240d22e60ea3,627c6dec893f7b013ae2db10,2022-05-11_21h19.06.525,classification_task,2021.2.3,MacIntel,59.99880002,627c6715c52fd12f31907bcf,,,,,,,,,,,,,,,,,,,,,,,l,1,9.0458,"[""0.076"",""0.693"",""0.506"",""0.831""]","[1,0,1,1]",0,1,1,1,1,1,0,,,0,FALSE,,,,,,,,,,,,,,,,,,,,,,,,,,,,,,,
,5f66457793e8240d22e60ea3,627c6dec893f7b013ae2db10,2022-05-11_21h19.06.525,classification_task,2021.2.3,MacIntel,59.99880002,627c6715c52fd12f31907bcf,,,,,,,,,,,,,,,,,,,,,,,,0,,"[""0.179"",""0.445"",""0.865"",""0.026""]","[1,1,1,0]",0,2,2,2,1,0,0,,,0,FALSE,,,,,,,,,,,,,,,,,,,,,,,,,,,,,,,
,5f66457793e8240d22e60ea3,627c6dec893f7b013ae2db10,2022-05-11_21h19.06.525,classification_task,2021.2.3,MacIntel,59.99880002,627c6715c52fd12f31907bcf,,,,,,,,,,,,,,,,,,,,,,,,0,,"[""0.128"",""0.402"",""0.326"",""0.745""]","[1,1,0,1]",0,3,3,3,1,1,1,,,0,FALSE,,,,,,,,,,,,,,,,,,,,,,,,,,,,,,,
,5f66457793e8240d22e60ea3,627c6dec893f7b013ae2db10,2022-05-11_21h19.06.525,classification_task,2021.2.3,MacIntel,59.99880002,627c6715c52fd12f31907bcf,,,,,,,,,,,,,,,,,,,,,,,a,0,4.5952,"[""0.026"",""0.290"",""0.506"",""0.831""]","[0,1,1,1]",0,4,4,4,1,1,0,,,0,FALSE,,,,,,,,,,,,,,,,,,,,,,,,,,,,,,,
,5f66457793e8240d22e60ea3,627c6dec893f7b013ae2db10,2022-05-11_21h19.06.525,classification_task,2021.2.3,MacIntel,59.99880002,627c6715c52fd12f31907bcf,,,,,,,,,,,,,,,,,,,,,,,l,0,3.5022,"[""0.353"",""0.548"",""0.898"",""0.975""]","[0,1,1,1]",0,5,5,5,1,0,1,,,0,FALSE,,,,,,,,,,,,,,,,,,,,,,,,,,,,,,,
,5f66457793e8240d22e60ea3,627c6dec893f7b013ae2db10,2022-05-11_21h19.06.525,classification_task,2021.2.3,MacIntel,59.99880002,627c6715c52fd12f31907bcf,,,,,,,,,,,,,,,,,,,,,,,l,1,9.0256,"[""0.693"",""0.402"",""0.639"",""0.745""]","[0,1,1,1]",0,6,6,6,1,1,1,,,0,FALSE,,,,,,,,,,,,,,,,,,,,,,,,,,,,,,,
,5f66457793e8240d22e60ea3,627c6dec893f7b013ae2db10,2022-05-11_21h19.06.525,classification_task,2021.2.3,MacIntel,59.99880002,627c6715c52fd12f31907bcf,,,,,,,,,,,,,,,,,,,,,,,a,1,6.5826,"[""0.179"",""0.037"",""0.865"",""0.941""]","[1,0,1,1]",0,7,7,7,1,0,0,,,0,FALSE,,,,,,,,,,,,,,,,,,,,,,,,,,,,,,,
,5f66457793e8240d22e60ea3,627c6dec893f7b013ae2db10,2022-05-11_21h19.06.525,classification_task,2021.2.3,MacIntel,59.99880002,627c6715c52fd12f31907bcf,,,,,,,,,,,,,,,,,,,,,,,a,0,7.084,"[""0.128"",""0.402"",""0.639"",""0.353""]","[1,1,1,0]",0,8,8,8,1,1,1,,,0,FALSE,,,,,,,,,,,,,,,,,,,,,,,,,,,,,,,
,5f66457793e8240d22e60ea3,627c6dec893f7b013ae2db10,2022-05-11_21h19.06.525,classification_task,2021.2.3,MacIntel,59.99880002,627c6715c52fd12f31907bcf,,,,,,,,,,,,,,,,,,,,,,,l,1,5.9183,"[""0.076"",""0.290"",""0.506"",""0.026""]","[1,1,1,0]",0,9,9,9,1,1,0,,,0,FALSE,,,,,,,,,,,,,,,,,,,,,,,,,,,,,,,
,5f66457793e8240d22e60ea3,627c6dec893f7b013ae2db10,2022-05-11_21h19.06.525,classification_task,2021.2.3,MacIntel,59.99880002,627c6715c52fd12f31907bcf,,,,,,,,,,,,,,,,,,,,,,,a,1,5.4863,"[""0.254"",""0.693"",""0.898"",""0.975""]","[1,0,1,1]",0,10,10,10,1,0,1,,,0,FALSE,,,,,,,,,,,,,,,,,,,,,,,,,,,,,,,
,5f66457793e8240d22e60ea3,627c6dec893f7b013ae2db10,2022-05-11_21h19.06.525,classification_task,2021.2.3,MacIntel,59.99880002,627c6715c52fd12f31907bcf,,,,,,,,,,,,,,,,,,,,,,,l,1,4.9363,"[""0.076"",""0.290"",""0.026"",""0.831""]","[1,1,0,1]",0,11,11,11,1,1,0,,,0,FALSE,,,,,,,,,,,,,,,,,,,,,,,,,,,,,,,
,5f66457793e8240d22e60ea3,627c6dec893f7b013ae2db10,2022-05-11_21h19.06.525,classification_task,2021.2.3,MacIntel,59.99880002,627c6715c52fd12f31907bcf,,,,,,,,,,,,,,,,,,,,,,,a,1,7.0551,"[""0.179"",""0.445"",""0.694"",""0.941""]","[1,1,0,1]",0,12,12,12,1,0,0,,,0,FALSE,,,,,,,,,,,,,,,,,,,,,,,,,,,,,,,
,5f66457793e8240d22e60ea3,627c6dec893f7b013ae2db10,2022-05-11_21h19.06.525,classification_task,2021.2.3,MacIntel,59.99880002,627c6715c52fd12f31907bcf,,,,,,,,,,,,,,,,,,,,,,,l,0,6.4216,"[""0.254"",""0.548"",""0.694"",""0.975""]","[1,1,0,1]",0,13,13,13,1,0,1,,,0,FALSE,,,,,,,,,,,,,,,,,,,,,,,,,,,,,,,
,5f66457793e8240d22e60ea3,627c6dec893f7b013ae2db10,2022-05-11_21h19.06.525,classification_task,2021.2.3,MacIntel,59.99880002,627c6715c52fd12f31907bcf,,,,,,,,,,,,,,,,,,,,,,,a,1,9.5682,"[""0.693"",""0.445"",""0.865"",""0.941""]","[0,1,1,1]",0,14,14,14,1,0,0,,,0,FALSE,,,,,,,,,,,,,,,,,,,,,,,,,,,,,,,
,5f66457793e8240d22e60ea3,627c6dec893f7b013ae2db10,2022-05-11_21h19.06.525,classification_task,2021.2.3,MacIntel,59.99880002,627c6715c52fd12f31907bcf,,,,,,,,,,,,,,,,,,,,,,,l,1,7.9005,"[""0.128"",""0.693"",""0.639"",""0.745""]","[1,0,1,1]",0,15,15,15,1,1,1,,,0,FALSE,,,,,,,,,,,,,,,,,,,,,,,,,,,,,,,
,5f66457793e8240d22e60ea3,627c6dec893f7b013ae2db10,2022-05-11_21h19.06.525,classification_task,2021.2.3,MacIntel,59.99880002,627c6715c52fd12f31907bcf,,,,,,,,,,,,,,,,,,,,,,,l,1,5.1212,"[""0.128"",""0.402"",""0.639"",""0.601""]","[1,1,1,0]",0,16,16,16,1,1,1,,,0,FALSE,,,,,,,,,,,,,,,,,,,,,,,,,,,,,,,
,5f66457793e8240d22e60ea3,627c6dec893f7b013ae2db10,2022-05-11_21h19.06.525,classification_task,2021.2.3,MacIntel,59.99880002,627c6715c52fd12f31907bcf,,,,,,,,,,,,,,,,,,,,,,,a,1,6.4176,"[""0.179"",""0.326"",""0.865"",""0.941""]","[1,0,1,1]",0,17,17,17,1,0,0,,,0,FALSE,,,,,,,,,,,,,,,,,,,,,,,,,,,,,,,
,5f66457793e8240d22e60ea3,627c6dec893f7b013ae2db10,2022-05-11_21h19.06.525,classification_task,2021.2.3,MacIntel,59.99880002,627c6715c52fd12f31907bcf,,,,,,,,,,,,,,,,,,,,,,,a,1,8.9404,"[""0.179"",""0.445"",""0.693"",""0.941""]","[1,1,0,1]",0,18,18,18,1,0,0,,,0,FALSE,,,,,,,,,,,,,,,,,,,,,,,,,,,,,,,
,5f66457793e8240d22e60ea3,627c6dec893f7b013ae2db10,2022-05-11_21h19.06.525,classification_task,2021.2.3,MacIntel,59.99880002,627c6715c52fd12f31907bcf,,,,,,,,,,,,,,,,,,,,,,,l,1,8.3181,"[""0.128"",""0.402"",""0.693"",""0.745""]","[1,1,0,1]",0,19,19,19,1,1,1,,,0,FALSE,,,,,,,,,,,,,,,,,,,,,,,,,,,,,,,
,5f66457793e8240d22e60ea3,627c6dec893f7b013ae2db10,2022-05-11_21h19.06.525,classification_task,2021.2.3,MacIntel,59.99880002,627c6715c52fd12f31907bcf,,,,,,,,,,,,,,,,,,,,,,,l,1,8.4726,"[""0.076"",""0.682"",""0.506"",""0.831""]","[1,0,1,1]",0,20,20,20,1,1,0,,,0,FALSE,,,,,,,,,,,,,,,,,,,,,,,,,,,,,,,
,5f66457793e8240d22e60ea3,627c6dec893f7b013ae2db10,2022-05-11_21h19.06.525,classification_task,2021.2.3,MacIntel,59.99880002,627c6715c52fd12f31907bcf,,,,,,,,,,,,,,,,,,,,,,,a,1,9.7014,"[""0.254"",""0.548"",""0.898"",""0.693""]","[1,1,1,0]",0,21,21,21,1,0,1,,,0,FALSE,,,,,,,,,,,,,,,,,,,,,,,,,,,,,,,
,5f66457793e8240d22e60ea3,627c6dec893f7b013ae2db10,2022-05-11_21h19.06.525,classification_task,2021.2.3,MacIntel,59.99880002,627c6715c52fd12f31907bcf,,,,,,,,,,,,,,,,,,,,,,,l,1,6.0234,"[""0.076"",""0.290"",""0.353"",""0.831""]","[1,1,0,1]",0,22,22,22,1,1,0,,,0,FALSE,,,,,,,,,,,,,,,,,,,,,,,,,,,,,,,
,5f66457793e8240d22e60ea3,627c6dec893f7b013ae2db10,2022-05-11_21h19.06.525,classification_task,2021.2.3,MacIntel,59.99880002,627c6715c52fd12f31907bcf,,,,,,,,,,,,,,,,,,,,,,,l,1,6.8918,"[""0.026"",""0.290"",""0.506"",""0.831""]","[0,1,1,1]",0,23,23,23,1,1,0,,,0,FALSE,,,,,,,,,,,,,,,,,,,,,,,,,,,,,,,
,5f66457793e8240d22e60ea3,627c6dec893f7b013ae2db10,2022-05-11_21h19.06.525,classification_task,2021.2.3,MacIntel,59.99880002,627c6715c52fd12f31907bcf,,,,,,,,,,,,,,,,,,,,,,,a,1,6.1903,"[""0.254"",""0.682"",""0.898"",""0.975""]","[1,0,1,1]",0,24,24,24,1,0,1,,,0,FALSE,,,,,,,,,,,,,,,,,,,,,,,,,,,,,,,
,5f66457793e8240d22e60ea3,627c6dec893f7b013ae2db10,2022-05-11_21h19.06.525,classification_task,2021.2.3,MacIntel,59.99880002,627c6715c52fd12f31907bcf,,,,,,,,,,,,,,,,,,,,,,,l,1,5.0719,"[""0.128"",""0.353"",""0.639"",""0.745""]","[1,0,1,1]",0,25,25,25,1,1,1,,,0,FALSE,,,,,,,,,,,,,,,,,,,,,,,,,,,,,,,
,5f66457793e8240d22e60ea3,627c6dec893f7b013ae2db10,2022-05-11_21h19.06.525,classification_task,2021.2.3,MacIntel,59.99880002,627c6715c52fd12f31907bcf,,,,,,,,,,,,,,,,,,,,,,,l,1,7.0207,"[""0.076"",""0.290"",""0.506"",""0.693""]","[1,1,1,0]",0,26,26,26,1,1,0,,,0,FALSE,,,,,,,,,,,,,,,,,,,,,,,,,,,,,,,
,5f66457793e8240d22e60ea3,627c6dec893f7b013ae2db10,2022-05-11_21h19.06.525,classification_task,2021.2.3,MacIntel,59.99880002,627c6715c52fd12f31907bcf,,,,,,,,,,,,,,,,,,,,,,,a,1,9.517,"[""0.327"",""0.548"",""0.898"",""0.975""]","[0,1,1,1]",0,27,27,27,1,0,1,,,0,FALSE,,,,,,,,,,,,,,,,,,,,,,,,,,,,,,,
,5f66457793e8240d22e60ea3,627c6dec893f7b013ae2db10,2022-05-11_21h19.06.525,classification_task,2021.2.3,MacIntel,59.99880002,627c6715c52fd12f31907bcf,,,,,,,,,,,,,,,,,,,,,,,l,1,8.6402,"[""0.026"",""0.402"",""0.639"",""0.745""]","[0,1,1,1]",0,28,28,28,1,1,1,,,0,FALSE,,,,,,,,,,,,,,,,,,,,,,,,,,,,,,,
,5f66457793e8240d22e60ea3,627c6dec893f7b013ae2db10,2022-05-11_21h19.06.525,classification_task,2021.2.3,MacIntel,59.99880002,627c6715c52fd12f31907bcf,,,,,,,,,,,,,,,,,,,,,,,a,1,8.2172,"[""0.179"",""0.445"",""0.865"",""0.682""]","[1,1,1,0]",0,29,29,29,1,0,0,,,0,FALSE,,,,,,,,,,,,,,,,,,,,,,,,,,,,,,,
,5f66457793e8240d22e60ea3,627c6dec893f7b013ae2db10,2022-05-11_21h19.06.525,classification_task,2021.2.3,MacIntel,59.99880002,627c6715c52fd12f31907bcf,,,,,,,,,,,,,,,,,,,,,,,a,1,7.7378,"[""0.339"",""0.445"",""0.865"",""0.941""]","[0,1,1,1]",0,30,30,30,1,0,0,,,0,FALSE,,,,,,,,,,,,,,,,,,,,,,,,,,,,,,,
,5f66457793e8240d22e60ea3,627c6dec893f7b013ae2db10,2022-05-11_21h19.06.525,classification_task,2021.2.3,MacIntel,59.99880002,627c6715c52fd12f31907bcf,,,,,,,,,,,,,,,,,,,,,,,a,1,6.0511,"[""0.254"",""0.548"",""0.347"",""0.975""]","[1,1,0,1]",0,31,31,31,1,0,1,,,0,FALSE,,,,,,,,,,,,,,,,,,,,,,,,,,,,,,,
,5f66457793e8240d22e60ea3,627c6dec893f7b013ae2db10,2022-05-11_21h19.06.525,classification_task,2021.2.3,MacIntel,59.99880002,627c6715c52fd12f31907bcf,,,,,,,,,,,,,,,,,,,,,,,l,1,6.5994,"[""0.336"",""0.402"",""0.639"",""0.745""]","[0,1,1,1]",0,32,32,32,1,1,1,,,0,FALSE,,,,,,,,,,,,,,,,,,,,,,,,,,,,,,,
,5f66457793e8240d22e60ea3,627c6dec893f7b013ae2db10,2022-05-11_21h19.06.525,classification_task,2021.2.3,MacIntel,59.99880002,627c6715c52fd12f31907bcf,,,,,,,,,,,,,,,,,,,,,,,a,0,7.7573,"[""0.076"",""0.290"",""0.506"",""0.693""]","[1,1,1,0]",0,33,33,33,1,1,0,,,0,FALSE,,,,,,,,,,,,,,,,,,,,,,,,,,,,,,,
,5f66457793e8240d22e60ea3,627c6dec893f7b013ae2db10,2022-05-11_21h19.06.525,classification_task,2021.2.3,MacIntel,59.99880002,627c6715c52fd12f31907bcf,,,,,,,,,,,,,,,,,,,,,,,a,0,7.1213,"[""0.128"",""0.402"",""0.639"",""0.339""]","[1,1,1,0]",0,34,34,34,1,1,1,,,0,FALSE,,,,,,,,,,,,,,,,,,,,,,,,,,,,,,,
,5f66457793e8240d22e60ea3,627c6dec893f7b013ae2db10,2022-05-11_21h19.06.525,classification_task,2021.2.3,MacIntel,59.99880002,627c6715c52fd12f31907bcf,,,,,,,,,,,,,,,,,,,,,,,l,0,5.8879,"[""0.179"",""0.601"",""0.865"",""0.941""]","[1,0,1,1]",0,35,35,35,1,0,0,,,0,FALSE,,,,,,,,,,,,,,,,,,,,,,,,,,,,,,,
,5f66457793e8240d22e60ea3,627c6dec893f7b013ae2db10,2022-05-11_21h19.06.525,classification_task,2021.2.3,MacIntel,59.99880002,627c6715c52fd12f31907bcf,,,,,,,,,,,,,,,,,,,,,,,l,0,5.8747,"[""0.254"",""0.694"",""0.898"",""0.975""]","[1,0,1,1]",0,36,36,36,1,0,1,,,0,FALSE,,,,,,,,,,,,,,,,,,,,,,,,,,,,,,,
,5f66457793e8240d22e60ea3,627c6dec893f7b013ae2db10,2022-05-11_21h19.06.525,classification_task,2021.2.3,MacIntel,59.99880002,627c6715c52fd12f31907bcf,,,,,,,,,,,,,,,,,,,,,,,l,1,5.3604,"[""0.336"",""0.290"",""0.506"",""0.831""]","[0,1,1,1]",0,37,37,37,1,1,0,,,0,FALSE,,,,,,,,,,,,,,,,,,,,,,,,,,,,,,,
,5f66457793e8240d22e60ea3,627c6dec893f7b013ae2db10,2022-05-11_21h19.06.525,classification_task,2021.2.3,MacIntel,59.99880002,627c6715c52fd12f31907bcf,,,,,,,,,,,,,,,,,,,,,,,a,0,5.9211,"[""0.128"",""0.693"",""0.639"",""0.745""]","[1,0,1,1]",0,38,38,38,1,1,1,,,0,FALSE,,,,,,,,,,,,,,,,,,,,,,,,,,,,,,,
,5f66457793e8240d22e60ea3,627c6dec893f7b013ae2db10,2022-05-11_21h19.06.525,classification_task,2021.2.3,MacIntel,59.99880002,627c6715c52fd12f31907bcf,,,,,,,,,,,,,,,,,,,,,,,a,1,6.4855,"[""0.339"",""0.445"",""0.865"",""0.941""]","[0,1,1,1]",0,39,39,39,1,0,0,,,0,FALSE,,,,,,,,,,,,,,,,,,,,,,,,,,,,,,,
,5f66457793e8240d22e60ea3,627c6dec893f7b013ae2db10,2022-05-11_21h19.06.525,classification_task,2021.2.3,MacIntel,59.99880002,627c6715c52fd12f31907bcf,,,,,,,,,,,,,,,,,,,,,,,l,1,5.8212,"[""0.128"",""0.402"",""0.693"",""0.745""]","[1,1,0,1]",0,40,40,40,1,1,1,,,0,FALSE,,,,,,,,,,,,,,,,,,,,,,,,,,,,,,,
,5f66457793e8240d22e60ea3,627c6dec893f7b013ae2db10,2022-05-11_21h19.06.525,classification_task,2021.2.3,MacIntel,59.99880002,627c6715c52fd12f31907bcf,,,,,,,,,,,,,,,,,,,,,,,l,0,6.6888,"[""0.347"",""0.548"",""0.898"",""0.975""]","[0,1,1,1]",0,41,41,41,1,0,1,,,0,FALSE,,,,,,,,,,,,,,,,,,,,,,,,,,,,,,,
,5f66457793e8240d22e60ea3,627c6dec893f7b013ae2db10,2022-05-11_21h19.06.525,classification_task,2021.2.3,MacIntel,59.99880002,627c6715c52fd12f31907bcf,,,,,,,,,,,,,,,,,,,,,,,l,0,5.0725,"[""0.254"",""0.548"",""0.601"",""0.975""]","[1,1,0,1]",0,42,42,42,1,0,1,,,0,FALSE,,,,,,,,,,,,,,,,,,,,,,,,,,,,,,,
,5f66457793e8240d22e60ea3,627c6dec893f7b013ae2db10,2022-05-11_21h19.06.525,classification_task,2021.2.3,MacIntel,59.99880002,627c6715c52fd12f31907bcf,,,,,,,,,,,,,,,,,,,,,,,l,0,6.223,"[""0.254"",""0.548"",""0.898"",""0.693""]","[1,1,1,0]",0,43,43,43,1,0,1,,,0,FALSE,,,,,,,,,,,,,,,,,,,,,,,,,,,,,,,
,5f66457793e8240d22e60ea3,627c6dec893f7b013ae2db10,2022-05-11_21h19.06.525,classification_task,2021.2.3,MacIntel,59.99880002,627c6715c52fd12f31907bcf,,,,,,,,,,,,,,,,,,,,,,,a,0,7.0849,"[""0.076"",""0.353"",""0.506"",""0.831""]","[1,0,1,1]",0,44,44,44,1,1,0,,,0,FALSE,,,,,,,,,,,,,,,,,,,,,,,,,,,,,,,
,5f66457793e8240d22e60ea3,627c6dec893f7b013ae2db10,2022-05-11_21h19.06.525,classification_task,2021.2.3,MacIntel,59.99880002,627c6715c52fd12f31907bcf,,,,,,,,,,,,,,,,,,,,,,,l,0,5.7378,"[""0.179"",""0.445"",""0.865"",""0.027""]","[1,1,1,0]",0,45,45,45,1,0,0,,,0,FALSE,,,,,,,,,,,,,,,,,,,,,,,,,,,,,,,
,5f66457793e8240d22e60ea3,627c6dec893f7b013ae2db10,2022-05-11_21h19.06.525,classification_task,2021.2.3,MacIntel,59.99880002,627c6715c52fd12f31907bcf,,,,,,,,,,,,,,,,,,,,,,,l,0,5.788,"[""0.179"",""0.445"",""0.336"",""0.941""]","[1,1,0,1]",0,46,46,46,1,0,0,,,0,FALSE,,,,,,,,,,,,,,,,,,,,,,,,,,,,,,,
,5f66457793e8240d22e60ea3,627c6dec893f7b013ae2db10,2022-05-11_21h19.06.525,classification_task,2021.2.3,MacIntel,59.99880002,627c6715c52fd12f31907bcf,,,,,,,,,,,,,,,,,,,,,,,l,1,6.8082,"[""0.076"",""0.290"",""0.694"",""0.831""]","[1,1,0,1]",0,47,47,47,1,1,0,,,0,FALSE,,,,,,,,,,,,,,,,,,,,,,,,,,,,,,,
,5f66457793e8240d22e60ea3,627c6dec893f7b013ae2db10,2022-05-11_21h19.06.525,classification_task,2021.2.3,MacIntel,59.99880002,627c6715c52fd12f31907bcf,,,,,,,,,,,,,,,,,,,,,,,,0,,"[""0.254"",""0.548"",""0.898"",""0.339""]","[1,1,1,0]",0,48,48,48,1,0,1,,,0,FALSE,,,,,,,,,,,,,,,,,,,,,,,,,,,,,,,
,5f66457793e8240d22e60ea3,627c6dec893f7b013ae2db10,2022-05-11_21h19.06.525,classification_task,2021.2.3,MacIntel,59.99880002,627c6715c52fd12f31907bcf,,,,,,,,,,,,,,,,,,,,,,,a,0,2.8222,"[""0.128"",""0.027"",""0.639"",""0.745""]","[1,0,1,1]",0,49,49,49,1,1,1,,,0,FALSE,,,,,,,,,,,,,,,,,,,,,,,,,,,,,,,
,5f66457793e8240d22e60ea3,627c6dec893f7b013ae2db10,2022-05-11_21h19.06.525,classification_task,2021.2.3,MacIntel,59.99880002,627c6715c52fd12f31907bcf,,,,,,,,,,,,,,,,,,,,,,,l,1,5.2521,"[""0.076"",""0.290"",""0.601"",""0.831""]","[1,1,0,1]",0,50,50,50,1,1,0,,,0,FALSE,,,,,,,,,,,,,,,,,,,,,,,,,,,,,,,
,5f66457793e8240d22e60ea3,627c6dec893f7b013ae2db10,2022-05-11_21h19.06.525,classification_task,2021.2.3,MacIntel,59.99880002,627c6715c52fd12f31907bcf,,,,,,,,,,,,,,,,,,,,,,,a,0,5.6394,"[""0.076"",""0.290"",""0.506"",""0.691""]","[1,1,1,0]",0,51,51,51,1,1,0,,,0,FALSE,,,,,,,,,,,,,,,,,,,,,,,,,,,,,,,
,5f66457793e8240d22e60ea3,627c6dec893f7b013ae2db10,2022-05-11_21h19.06.525,classification_task,2021.2.3,MacIntel,59.99880002,627c6715c52fd12f31907bcf,,,,,,,,,,,,,,,,,,,,,,,l,0,8.8719,"[""0.254"",""0.682"",""0.898"",""0.975""]","[1,0,1,1]",0,52,52,52,1,0,1,,,0,FALSE,,,,,,,,,,,,,,,,,,,,,,,,,,,,,,,
,5f66457793e8240d22e60ea3,627c6dec893f7b013ae2db10,2022-05-11_21h19.06.525,classification_task,2021.2.3,MacIntel,59.99880002,627c6715c52fd12f31907bcf,,,,,,,,,,,,,,,,,,,,,,,l,0,7.0051,"[""0.353"",""0.548"",""0.898"",""0.975""]","[0,1,1,1]",0,53,53,53,1,0,1,,,0,FALSE,,,,,,,,,,,,,,,,,,,,,,,,,,,,,,,
,5f66457793e8240d22e60ea3,627c6dec893f7b013ae2db10,2022-05-11_21h19.06.525,classification_task,2021.2.3,MacIntel,59.99880002,627c6715c52fd12f31907bcf,,,,,,,,,,,,,,,,,,,,,,,l,0,8.9552,"[""0.179"",""0.339"",""0.865"",""0.941""]","[1,0,1,1]",0,54,54,54,1,0,0,,,0,FALSE,,,,,,,,,,,,,,,,,,,,,,,,,,,,,,,
,5f66457793e8240d22e60ea3,627c6dec893f7b013ae2db10,2022-05-11_21h19.06.525,classification_task,2021.2.3,MacIntel,59.99880002,627c6715c52fd12f31907bcf,,,,,,,,,,,,,,,,,,,,,,,a,0,6.409,"[""0.128"",""0.402"",""0.682"",""0.745""]","[1,1,0,1]",0,55,55,55,1,1,1,,,0,FALSE,,,,,,,,,,,,,,,,,,,,,,,,,,,,,,,
,5f66457793e8240d22e60ea3,627c6dec893f7b013ae2db10,2022-05-11_21h19.06.525,classification_task,2021.2.3,MacIntel,59.99880002,627c6715c52fd12f31907bcf,,,,,,,,,,,,,,,,,,,,,,,l,0,5.8035,"[""0.179"",""0.445"",""0.865"",""0.027""]","[1,1,1,0]",0,56,56,56,1,0,0,,,0,FALSE,,,,,,,,,,,,,,,,,,,,,,,,,,,,,,,
,5f66457793e8240d22e60ea3,627c6dec893f7b013ae2db10,2022-05-11_21h19.06.525,classification_task,2021.2.3,MacIntel,59.99880002,627c6715c52fd12f31907bcf,,,,,,,,,,,,,,,,,,,,,,,,0,,"[""0.353"",""0.445"",""0.865"",""0.941""]","[0,1,1,1]",0,57,57,57,1,0,0,,,0,FALSE,,,,,,,,,,,,,,,,,,,,,,,,,,,,,,,
,5f66457793e8240d22e60ea3,627c6dec893f7b013ae2db10,2022-05-11_21h19.06.525,classification_task,2021.2.3,MacIntel,59.99880002,627c6715c52fd12f31907bcf,,,,,,,,,,,,,,,,,,,,,,,l,1,4.9733,"[""0.128"",""0.402"",""0.639"",""0.353""]","[1,1,1,0]",0,58,58,58,1,1,1,,,0,FALSE,,,,,,,,,,,,,,,,,,,,,,,,,,,,,,,
,5f66457793e8240d22e60ea3,627c6dec893f7b013ae2db10,2022-05-11_21h19.06.525,classification_task,2021.2.3,MacIntel,59.99880002,627c6715c52fd12f31907bcf,,,,,,,,,,,,,,,,,,,,,,,,0,,"[""0.254"",""0.548"",""0.026"",""0.975""]","[1,1,0,1]",0,59,59,59,1,0,1,,,0,FALSE,,,,,,,,,,,,,,,,,,,,,,,,,,,,,,,
,5f66457793e8240d22e60ea3,627c6dec893f7b013ae2db10,2022-05-11_21h19.06.525,classification_task,2021.2.3,MacIntel,59.99880002,627c6715c52fd12f31907bcf,,,,,,,,,,,,,,,,,,,,,,,a,0,3.9048,"[""0.326"",""0.290"",""0.506"",""0.831""]","[0,1,1,1]",0,60,60,60,1,1,0,,,0,FALSE,,,,,,,,,,,,,,,,,,,,,,,,,,,,,,,
,5f66457793e8240d22e60ea3,627c6dec893f7b013ae2db10,2022-05-11_21h19.06.525,classification_task,2021.2.3,MacIntel,59.99880002,627c6715c52fd12f31907bcf,,,,,,,,,,,,,,,,,,,,,,,l,1,5.7562,"[""0.076"",""0.691"",""0.506"",""0.831""]","[1,0,1,1]",0,61,61,61,1,1,0,,,0,FALSE,,,,,,,,,,,,,,,,,,,,,,,,,,,,,,,
,5f66457793e8240d22e60ea3,627c6dec893f7b013ae2db10,2022-05-11_21h19.06.525,classification_task,2021.2.3,MacIntel,59.99880002,627c6715c52fd12f31907bcf,,,,,,,,,,,,,,,,,,,,,,,l,1,6.8538,"[""0.682"",""0.402"",""0.639"",""0.745""]","[0,1,1,1]",0,62,62,62,1,1,1,,,0,FALSE,,,,,,,,,,,,,,,,,,,,,,,,,,,,,,,
,5f66457793e8240d22e60ea3,627c6dec893f7b013ae2db10,2022-05-11_21h19.06.525,classification_task,2021.2.3,MacIntel,59.99880002,627c6715c52fd12f31907bcf,,,,,,,,,,,,,,,,,,,,,,,l,0,6.3727,"[""0.179"",""0.445"",""0.693"",""0.941""]","[1,1,0,1]",0,63,63,63,1,0,0,,,0,FALSE,,,,,,,,,,,,,,,,,,,,,,,,,,,,,,,
,5f66457793e8240d22e60ea3,627c6dec893f7b013ae2db10,2022-05-11_21h19.06.525,classification_task,2021.2.3,MacIntel,59.99880002,627c6715c52fd12f31907bcf,,,,,,,,,,,,,,,,,,,,,,,,,,,,,,,,,,,,,,,0, ,,0,0,772.6122,0,0,0,0,1,2,1,,,,,,,,,,,,,,,,,,
,5f66457793e8240d22e60ea3,627c6dec893f7b013ae2db10,2022-05-11_21h19.06.525,classification_task,2021.2.3,MacIntel,59.99880002,627c6715c52fd12f31907bcf,,,,,,,,,,,,,,,,,,,,,,,,,,,,,,,,,,,,,,,1,  ,,0,9.185153035,778.8787,0,0,0,0,1,2,1,,,,,,,,,,,,,,,,,,
,5f66457793e8240d22e60ea3,627c6dec893f7b013ae2db10,2022-05-11_21h19.06.525,classification_task,2021.2.3,MacIntel,59.99880002,627c6715c52fd12f31907bcf,,,,,,,,,,,,,,,,,,,,,,,,,,,,,,,,,,,,,,,2,  ,,0,7.497726521,790.8897,0,0,0,0,1,2,1,,,,,,,,,,,,,,,,,,
,5f66457793e8240d22e60ea3,627c6dec893f7b013ae2db10,2022-05-11_21h19.06.525,classification_task,2021.2.3,MacIntel,59.99880002,627c6715c52fd12f31907bcf,,,,,,,,,,,,,,,,,,,,,,,,,,,,,,,,,,,,,,,,,,,,,0,0,0,0,1,,1,,,,,,,,,,,,,,,,,,
,5f66457793e8240d22e60ea3,627c6dec893f7b013ae2db10,2022-05-11_21h19.06.525,classification_task,2021.2.3,MacIntel,59.99880002,627c6715c52fd12f31907bcf,,,,,,,,,,,,,,,,,,,,,space,30.8552,,0,,"[""0.128"",""0.402"",""0.326"",""0.745""]","[1,1,0,1]",0,0,0,0,1,1,1,,,0,FALSE,,,,,,,,,,,,,,,,,,,,,,,,,,,,,,,
,5f66457793e8240d22e60ea3,627c6dec893f7b013ae2db10,2022-05-11_21h19.06.525,classification_task,2021.2.3,MacIntel,59.99880002,627c6715c52fd12f31907bcf,,,,,,,,,,,,,,,,,,,,,,,,0,,"[""0.254"",""0.548"",""0.601"",""0.975""]","[1,1,0,1]",0,1,1,1,1,0,1,,,0,FALSE,,,,,,,,,,,,,,,,,,,,,,,,,,,,,,,
,5f66457793e8240d22e60ea3,627c6dec893f7b013ae2db10,2022-05-11_21h19.06.525,classification_task,2021.2.3,MacIntel,59.99880002,627c6715c52fd12f31907bcf,,,,,,,,,,,,,,,,,,,,,,,a,1,7.5711,"[""0.254"",""0.691"",""0.898"",""0.975""]","[1,0,1,1]",0,2,2,2,1,0,1,,,0,FALSE,,,,,,,,,,,,,,,,,,,,,,,,,,,,,,,
,5f66457793e8240d22e60ea3,627c6dec893f7b013ae2db10,2022-05-11_21h19.06.525,classification_task,2021.2.3,MacIntel,59.99880002,627c6715c52fd12f31907bcf,,,,,,,,,,,,,,,,,,,,,,,a,1,4.4021,"[""0.347"",""0.445"",""0.865"",""0.941""]","[0,1,1,1]",0,3,3,3,1,0,0,,,0,FALSE,,,,,,,,,,,,,,,,,,,,,,,,,,,,,,,
,5f66457793e8240d22e60ea3,627c6dec893f7b013ae2db10,2022-05-11_21h19.06.525,classification_task,2021.2.3,MacIntel,59.99880002,627c6715c52fd12f31907bcf,,,,,,,,,,,,,,,,,,,,,,,l,1,4.0376,"[""0.076"",""0.693"",""0.506"",""0.831""]","[1,0,1,1]",0,4,4,4,1,1,0,,,0,FALSE,,,,,,,,,,,,,,,,,,,,,,,,,,,,,,,
,5f66457793e8240d22e60ea3,627c6dec893f7b013ae2db10,2022-05-11_21h19.06.525,classification_task,2021.2.3,MacIntel,59.99880002,627c6715c52fd12f31907bcf,,,,,,,,,,,,,,,,,,,,,,,l,1,4.8881,"[""0.128"",""0.402"",""0.639"",""0.327""]","[1,1,1,0]",0,5,5,5,1,1,1,,,0,FALSE,,,,,,,,,,,,,,,,,,,,,,,,,,,,,,,
,5f66457793e8240d22e60ea3,627c6dec893f7b013ae2db10,2022-05-11_21h19.06.525,classification_task,2021.2.3,MacIntel,59.99880002,627c6715c52fd12f31907bcf,,,,,,,,,,,,,,,,,,,,,,,a,1,2.152,"[""0.179"",""0.445"",""0.865"",""0.327""]","[1,1,1,0]",0,6,6,6,1,0,0,,,0,FALSE,,,,,,,,,,,,,,,,,,,,,,,,,,,,,,,
,5f66457793e8240d22e60ea3,627c6dec893f7b013ae2db10,2022-05-11_21h19.06.525,classification_task,2021.2.3,MacIntel,59.99880002,627c6715c52fd12f31907bcf,,,,,,,,,,,,,,,,,,,,,,,l,1,2.5135,"[""0.076"",""0.290"",""0.327"",""0.831""]","[1,1,0,1]",0,7,7,7,1,1,0,,,0,FALSE,,,,,,,,,,,,,,,,,,,,,,,,,,,,,,,
,5f66457793e8240d22e60ea3,627c6dec893f7b013ae2db10,2022-05-11_21h19.06.525,classification_task,2021.2.3,MacIntel,59.99880002,627c6715c52fd12f31907bcf,,,,,,,,,,,,,,,,,,,,,,,a,1,2.8673,"[""0.027"",""0.548"",""0.898"",""0.975""]","[0,1,1,1]",0,8,8,8,1,0,1,,,0,FALSE,,,,,,,,,,,,,,,,,,,,,,,,,,,,,,,
,5f66457793e8240d22e60ea3,627c6dec893f7b013ae2db10,2022-05-11_21h19.06.525,classification_task,2021.2.3,MacIntel,59.99880002,627c6715c52fd12f31907bcf,,,,,,,,,,,,,,,,,,,,,,,l,1,2.1178,"[""0.076"",""0.290"",""0.506"",""0.347""]","[1,1,1,0]",0,9,9,9,1,1,0,,,0,FALSE,,,,,,,,,,,,,,,,,,,,,,,,,,,,,,,
,5f66457793e8240d22e60ea3,627c6dec893f7b013ae2db10,2022-05-11_21h19.06.525,classification_task,2021.2.3,MacIntel,59.99880002,627c6715c52fd12f31907bcf,,,,,,,,,,,,,,,,,,,,,,,l,1,2.6035,"[""0.691"",""0.402"",""0.639"",""0.745""]","[0,1,1,1]",0,10,10,10,1,1,1,,,0,FALSE,,,,,,,,,,,,,,,,,,,,,,,,,,,,,,,
,5f66457793e8240d22e60ea3,627c6dec893f7b013ae2db10,2022-05-11_21h19.06.525,classification_task,2021.2.3,MacIntel,59.99880002,627c6715c52fd12f31907bcf,,,,,,,,,,,,,,,,,,,,,,,l,1,3.43,"[""0.027"",""0.290"",""0.506"",""0.831""]","[0,1,1,1]",0,11,11,11,1,1,0,,,0,FALSE,,,,,,,,,,,,,,,,,,,,,,,,,,,,,,,
,5f66457793e8240d22e60ea3,627c6dec893f7b013ae2db10,2022-05-11_21h19.06.525,classification_task,2021.2.3,MacIntel,59.99880002,627c6715c52fd12f31907bcf,,,,,,,,,,,,,,,,,,,,,,,a,1,2.2032,"[""0.179"",""0.353"",""0.865"",""0.941""]","[1,0,1,1]",0,12,12,12,1,0,0,,,0,FALSE,,,,,,,,,,,,,,,,,,,,,,,,,,,,,,,
,5f66457793e8240d22e60ea3,627c6dec893f7b013ae2db10,2022-05-11_21h19.06.525,classification_task,2021.2.3,MacIntel,59.99880002,627c6715c52fd12f31907bcf,,,,,,,,,,,,,,,,,,,,,,,a,1,2.2846,"[""0.179"",""0.445"",""0.027"",""0.941""]","[1,1,0,1]",0,13,13,13,1,0,0,,,0,FALSE,,,,,,,,,,,,,,,,,,,,,,,,,,,,,,,
,5f66457793e8240d22e60ea3,627c6dec893f7b013ae2db10,2022-05-11_21h19.06.525,classification_task,2021.2.3,MacIntel,59.99880002,627c6715c52fd12f31907bcf,,,,,,,,,,,,,,,,,,,,,,,a,1,3.5016,"[""0.254"",""0.548"",""0.898"",""0.326""]","[1,1,1,0]",0,14,14,14,1,0,1,,,0,FALSE,,,,,,,,,,,,,,,,,,,,,,,,,,,,,,,
,5f66457793e8240d22e60ea3,627c6dec893f7b013ae2db10,2022-05-11_21h19.06.525,classification_task,2021.2.3,MacIntel,59.99880002,627c6715c52fd12f31907bcf,,,,,,,,,,,,,,,,,,,,,,,a,0,4.4088,"[""0.128"",""0.326"",""0.639"",""0.745""]","[1,0,1,1]",0,15,15,15,1,1,1,,,0,FALSE,,,,,,,,,,,,,,,,,,,,,,,,,,,,,,,
,5f66457793e8240d22e60ea3,627c6dec893f7b013ae2db10,2022-05-11_21h19.06.525,classification_task,2021.2.3,MacIntel,59.99880002,627c6715c52fd12f31907bcf,,,,,,,,,,,,,,,,,,,,,,,a,1,2.25,"[""0.179"",""0.027"",""0.865"",""0.941""]","[1,0,1,1]",0,16,16,16,1,0,0,,,0,FALSE,,,,,,,,,,,,,,,,,,,,,,,,,,,,,,,
,5f66457793e8240d22e60ea3,627c6dec893f7b013ae2db10,2022-05-11_21h19.06.525,classification_task,2021.2.3,MacIntel,59.99880002,627c6715c52fd12f31907bcf,,,,,,,,,,,,,,,,,,,,,,,l,0,3.2287,"[""0.347"",""0.548"",""0.898"",""0.975""]","[0,1,1,1]",0,17,17,17,1,0,1,,,0,FALSE,,,,,,,,,,,,,,,,,,,,,,,,,,,,,,,
,5f66457793e8240d22e60ea3,627c6dec893f7b013ae2db10,2022-05-11_21h19.06.525,classification_task,2021.2.3,MacIntel,59.99880002,627c6715c52fd12f31907bcf,,,,,,,,,,,,,,,,,,,,,,,a,1,2.4852,"[""0.037"",""0.445"",""0.865"",""0.941""]","[0,1,1,1]",0,18,18,18,1,0,0,,,0,FALSE,,,,,,,,,,,,,,,,,,,,,,,,,,,,,,,
,5f66457793e8240d22e60ea3,627c6dec893f7b013ae2db10,2022-05-11_21h19.06.525,classification_task,2021.2.3,MacIntel,59.99880002,627c6715c52fd12f31907bcf,,,,,,,,,,,,,,,,,,,,,,,l,1,2.6149,"[""0.076"",""0.682"",""0.506"",""0.831""]","[1,0,1,1]",0,19,19,19,1,1,0,,,0,FALSE,,,,,,,,,,,,,,,,,,,,,,,,,,,,,,,
,5f66457793e8240d22e60ea3,627c6dec893f7b013ae2db10,2022-05-11_21h19.06.525,classification_task,2021.2.3,MacIntel,59.99880002,627c6715c52fd12f31907bcf,,,,,,,,,,,,,,,,,,,,,,,l,1,4.2199,"[""0.128"",""0.402"",""0.639"",""0.327""]","[1,1,1,0]",0,20,20,20,1,1,1,,,0,FALSE,,,,,,,,,,,,,,,,,,,,,,,,,,,,,,,
,5f66457793e8240d22e60ea3,627c6dec893f7b013ae2db10,2022-05-11_21h19.06.525,classification_task,2021.2.3,MacIntel,59.99880002,627c6715c52fd12f31907bcf,,,,,,,,,,,,,,,,,,,,,,,a,1,2.219,"[""0.179"",""0.445"",""0.865"",""0.326""]","[1,1,1,0]",0,21,21,21,1,0,0,,,0,FALSE,,,,,,,,,,,,,,,,,,,,,,,,,,,,,,,
,5f66457793e8240d22e60ea3,627c6dec893f7b013ae2db10,2022-05-11_21h19.06.525,classification_task,2021.2.3,MacIntel,59.99880002,627c6715c52fd12f31907bcf,,,,,,,,,,,,,,,,,,,,,,,l,1,2.9816,"[""0.076"",""0.290"",""0.506"",""0.694""]","[1,1,1,0]",0,22,22,22,1,1,0,,,0,FALSE,,,,,,,,,,,,,,,,,,,,,,,,,,,,,,,
,5f66457793e8240d22e60ea3,627c6dec893f7b013ae2db10,2022-05-11_21h19.06.525,classification_task,2021.2.3,MacIntel,59.99880002,627c6715c52fd12f31907bcf,,,,,,,,,,,,,,,,,,,,,,,a,0,3.1015,"[""0.128"",""0.327"",""0.639"",""0.745""]","[1,0,1,1]",0,23,23,23,1,1,1,,,0,FALSE,,,,,,,,,,,,,,,,,,,,,,,,,,,,,,,
,5f66457793e8240d22e60ea3,627c6dec893f7b013ae2db10,2022-05-11_21h19.06.525,classification_task,2021.2.3,MacIntel,59.99880002,627c6715c52fd12f31907bcf,,,,,,,,,,,,,,,,,,,,,,,l,1,4.2692,"[""0.027"",""0.290"",""0.506"",""0.831""]","[0,1,1,1]",0,24,24,24,1,1,0,,,0,FALSE,,,,,,,,,,,,,,,,,,,,,,,,,,,,,,,
,5f66457793e8240d22e60ea3,627c6dec893f7b013ae2db10,2022-05-11_21h19.06.525,classification_task,2021.2.3,MacIntel,59.99880002,627c6715c52fd12f31907bcf,,,,,,,,,,,,,,,,,,,,,,,l,1,2.3558,"[""0.076"",""0.290"",""0.327"",""0.831""]","[1,1,0,1]",0,25,25,25,1,1,0,,,0,FALSE,,,,,,,,,,,,,,,,,,,,,,,,,,,,,,,
,5f66457793e8240d22e60ea3,627c6dec893f7b013ae2db10,2022-05-11_21h19.06.525,classification_task,2021.2.3,MacIntel,59.99880002,627c6715c52fd12f31907bcf,,,,,,,,,,,,,,,,,,,,,,,l,0,3.3026,"[""0.254"",""0.548"",""0.693"",""0.975""]","[1,1,0,1]",0,26,26,26,1,0,1,,,0,FALSE,,,,,,,,,,,,,,,,,,,,,,,,,,,,,,,
,5f66457793e8240d22e60ea3,627c6dec893f7b013ae2db10,2022-05-11_21h19.06.525,classification_task,2021.2.3,MacIntel,59.99880002,627c6715c52fd12f31907bcf,,,,,,,,,,,,,,,,,,,,,,,a,0,3.6096,"[""0.128"",""0.402"",""0.339"",""0.745""]","[1,1,0,1]",0,27,27,27,1,1,1,,,0,FALSE,,,,,,,,,,,,,,,,,,,,,,,,,,,,,,,
,5f66457793e8240d22e60ea3,627c6dec893f7b013ae2db10,2022-05-11_21h19.06.525,classification_task,2021.2.3,MacIntel,59.99880002,627c6715c52fd12f31907bcf,,,,,,,,,,,,,,,,,,,,,,,a,1,3.9034,"[""0.254"",""0.336"",""0.898"",""0.975""]","[1,0,1,1]",0,28,28,28,1,0,1,,,0,FALSE,,,,,,,,,,,,,,,,,,,,,,,,,,,,,,,
,5f66457793e8240d22e60ea3,627c6dec893f7b013ae2db10,2022-05-11_21h19.06.525,classification_task,2021.2.3,MacIntel,59.99880002,627c6715c52fd12f31907bcf,,,,,,,,,,,,,,,,,,,,,,,a,1,2.6376,"[""0.179"",""0.445"",""0.691"",""0.941""]","[1,1,0,1]",0,29,29,29,1,0,0,,,0,FALSE,,,,,,,,,,,,,,,,,,,,,,,,,,,,,,,
,5f66457793e8240d22e60ea3,627c6dec893f7b013ae2db10,2022-05-11_21h19.06.525,classification_task,2021.2.3,MacIntel,59.99880002,627c6715c52fd12f31907bcf,,,,,,,,,,,,,,,,,,,,,,,l,0,4.7363,"[""0.254"",""0.548"",""0.898"",""0.339""]","[1,1,1,0]",0,30,30,30,1,0,1,,,0,FALSE,,,,,,,,,,,,,,,,,,,,,,,,,,,,,,,
,5f66457793e8240d22e60ea3,627c6dec893f7b013ae2db10,2022-05-11_21h19.06.525,classification_task,2021.2.3,MacIntel,59.99880002,627c6715c52fd12f31907bcf,,,,,,,,,,,,,,,,,,,,,,,a,0,3.2367,"[""0.694"",""0.402"",""0.639"",""0.745""]","[0,1,1,1]",0,31,31,31,1,1,1,,,0,FALSE,,,,,,,,,,,,,,,,,,,,,,,,,,,,,,,
,5f66457793e8240d22e60ea3,627c6dec893f7b013ae2db10,2022-05-11_21h19.06.525,classification_task,2021.2.3,MacIntel,59.99880002,627c6715c52fd12f31907bcf,,,,,,,,,,,,,,,,,,,,,,,a,1,2.7691,"[""0.254"",""0.327"",""0.898"",""0.975""]","[1,0,1,1]",0,32,32,32,1,0,1,,,0,FALSE,,,,,,,,,,,,,,,,,,,,,,,,,,,,,,,
,5f66457793e8240d22e60ea3,627c6dec893f7b013ae2db10,2022-05-11_21h19.06.525,classification_task,2021.2.3,MacIntel,59.99880002,627c6715c52fd12f31907bcf,,,,,,,,,,,,,,,,,,,,,,,l,1,2.6774,"[""0.076"",""0.290"",""0.339"",""0.831""]","[1,1,0,1]",0,33,33,33,1,1,0,,,0,FALSE,,,,,,,,,,,,,,,,,,,,,,,,,,,,,,,
,5f66457793e8240d22e60ea3,627c6dec893f7b013ae2db10,2022-05-11_21h19.06.525,classification_task,2021.2.3,MacIntel,59.99880002,627c6715c52fd12f31907bcf,,,,,,,,,,,,,,,,,,,,,,,a,1,2.2681,"[""0.691"",""0.445"",""0.865"",""0.941""]","[0,1,1,1]",0,34,34,34,1,0,0,,,0,FALSE,,,,,,,,,,,,,,,,,,,,,,,,,,,,,,,
,5f66457793e8240d22e60ea3,627c6dec893f7b013ae2db10,2022-05-11_21h19.06.525,classification_task,2021.2.3,MacIntel,59.99880002,627c6715c52fd12f31907bcf,,,,,,,,,,,,,,,,,,,,,,,l,1,2.3571,"[""0.694"",""0.290"",""0.506"",""0.831""]","[0,1,1,1]",0,35,35,35,1,1,0,,,0,FALSE,,,,,,,,,,,,,,,,,,,,,,,,,,,,,,,
,5f66457793e8240d22e60ea3,627c6dec893f7b013ae2db10,2022-05-11_21h19.06.525,classification_task,2021.2.3,MacIntel,59.99880002,627c6715c52fd12f31907bcf,,,,,,,,,,,,,,,,,,,,,,,l,0,2.2696,"[""0.694"",""0.548"",""0.898"",""0.975""]","[0,1,1,1]",0,36,36,36,1,0,1,,,0,FALSE,,,,,,,,,,,,,,,,,,,,,,,,,,,,,,,
,5f66457793e8240d22e60ea3,627c6dec893f7b013ae2db10,2022-05-11_21h19.06.525,classification_task,2021.2.3,MacIntel,59.99880002,627c6715c52fd12f31907bcf,,,,,,,,,,,,,,,,,,,,,,,a,1,1.8976,"[""0.179"",""0.445"",""0.865"",""0.026""]","[1,1,1,0]",0,37,37,37,1,0,0,,,0,FALSE,,,,,,,,,,,,,,,,,,,,,,,,,,,,,,,
,5f66457793e8240d22e60ea3,627c6dec893f7b013ae2db10,2022-05-11_21h19.06.525,classification_task,2021.2.3,MacIntel,59.99880002,627c6715c52fd12f31907bcf,,,,,,,,,,,,,,,,,,,,,,,a,1,2.7733,"[""0.179"",""0.601"",""0.865"",""0.941""]","[1,0,1,1]",0,38,38,38,1,0,0,,,0,FALSE,,,,,,,,,,,,,,,,,,,,,,,,,,,,,,,
,5f66457793e8240d22e60ea3,627c6dec893f7b013ae2db10,2022-05-11_21h19.06.525,classification_task,2021.2.3,MacIntel,59.99880002,627c6715c52fd12f31907bcf,,,,,,,,,,,,,,,,,,,,,,,a,0,2.9172,"[""0.128"",""0.402"",""0.693"",""0.745""]","[1,1,0,1]",0,39,39,39,1,1,1,,,0,FALSE,,,,,,,,,,,,,,,,,,,,,,,,,,,,,,,
,5f66457793e8240d22e60ea3,627c6dec893f7b013ae2db10,2022-05-11_21h19.06.525,classification_task,2021.2.3,MacIntel,59.99880002,627c6715c52fd12f31907bcf,,,,,,,,,,,,,,,,,,,,,,,l,1,1.8341,"[""0.076"",""0.336"",""0.506"",""0.831""]","[1,0,1,1]",0,40,40,40,1,1,0,,,0,FALSE,,,,,,,,,,,,,,,,,,,,,,,,,,,,,,,
,5f66457793e8240d22e60ea3,627c6dec893f7b013ae2db10,2022-05-11_21h19.06.525,classification_task,2021.2.3,MacIntel,59.99880002,627c6715c52fd12f31907bcf,,,,,,,,,,,,,,,,,,,,,,,a,0,2.9762,"[""0.128"",""0.402"",""0.639"",""0.693""]","[1,1,1,0]",0,41,41,41,1,1,1,,,0,FALSE,,,,,,,,,,,,,,,,,,,,,,,,,,,,,,,
,5f66457793e8240d22e60ea3,627c6dec893f7b013ae2db10,2022-05-11_21h19.06.525,classification_task,2021.2.3,MacIntel,59.99880002,627c6715c52fd12f31907bcf,,,,,,,,,,,,,,,,,,,,,,,l,1,3.6378,"[""0.601"",""0.402"",""0.639"",""0.745""]","[0,1,1,1]",0,42,42,42,1,1,1,,,0,FALSE,,,,,,,,,,,,,,,,,,,,,,,,,,,,,,,
,5f66457793e8240d22e60ea3,627c6dec893f7b013ae2db10,2022-05-11_21h19.06.525,classification_task,2021.2.3,MacIntel,59.99880002,627c6715c52fd12f31907bcf,,,,,,,,,,,,,,,,,,,,,,,l,1,3.2873,"[""0.076"",""0.290"",""0.506"",""0.693""]","[1,1,1,0]",0,43,43,43,1,1,0,,,0,FALSE,,,,,,,,,,,,,,,,,,,,,,,,,,,,,,,
,5f66457793e8240d22e60ea3,627c6dec893f7b013ae2db10,2022-05-11_21h19.06.525,classification_task,2021.2.3,MacIntel,59.99880002,627c6715c52fd12f31907bcf,,,,,,,,,,,,,,,,,,,,,,,a,1,2.6487,"[""0.254"",""0.548"",""0.898"",""0.693""]","[1,1,1,0]",0,44,44,44,1,0,1,,,0,FALSE,,,,,,,,,,,,,,,,,,,,,,,,,,,,,,,
,5f66457793e8240d22e60ea3,627c6dec893f7b013ae2db10,2022-05-11_21h19.06.525,classification_task,2021.2.3,MacIntel,59.99880002,627c6715c52fd12f31907bcf,,,,,,,,,,,,,,,,,,,,,,,l,1,3.8152,"[""0.128"",""0.026"",""0.639"",""0.745""]","[1,0,1,1]",0,45,45,45,1,1,1,,,0,FALSE,,,,,,,,,,,,,,,,,,,,,,,,,,,,,,,
,5f66457793e8240d22e60ea3,627c6dec893f7b013ae2db10,2022-05-11_21h19.06.525,classification_task,2021.2.3,MacIntel,59.99880002,627c6715c52fd12f31907bcf,,,,,,,,,,,,,,,,,,,,,,,l,0,3.1339,"[""0.254"",""0.548"",""0.682"",""0.975""]","[1,1,0,1]",0,46,46,46,1,0,1,,,0,FALSE,,,,,,,,,,,,,,,,,,,,,,,,,,,,,,,
,5f66457793e8240d22e60ea3,627c6dec893f7b013ae2db10,2022-05-11_21h19.06.525,classification_task,2021.2.3,MacIntel,59.99880002,627c6715c52fd12f31907bcf,,,,,,,,,,,,,,,,,,,,,,,a,1,2.2381,"[""0.179"",""0.445"",""0.027"",""0.941""]","[1,1,0,1]",0,47,47,47,1,0,0,,,0,FALSE,,,,,,,,,,,,,,,,,,,,,,,,,,,,,,,
,5f66457793e8240d22e60ea3,627c6dec893f7b013ae2db10,2022-05-11_21h19.06.525,classification_task,2021.2.3,MacIntel,59.99880002,627c6715c52fd12f31907bcf,,,,,,,,,,,,,,,,,,,,,,,l,0,2.3281,"[""0.254"",""0.693"",""0.898"",""0.975""]","[1,0,1,1]",0,48,48,48,1,0,1,,,0,FALSE,,,,,,,,,,,,,,,,,,,,,,,,,,,,,,,
,5f66457793e8240d22e60ea3,627c6dec893f7b013ae2db10,2022-05-11_21h19.06.525,classification_task,2021.2.3,MacIntel,59.99880002,627c6715c52fd12f31907bcf,,,,,,,,,,,,,,,,,,,,,,,a,0,2.3739,"[""0.128"",""0.402"",""0.353"",""0.745""]","[1,1,0,1]",0,49,49,49,1,1,1,,,0,FALSE,,,,,,,,,,,,,,,,,,,,,,,,,,,,,,,
,5f66457793e8240d22e60ea3,627c6dec893f7b013ae2db10,2022-05-11_21h19.06.525,classification_task,2021.2.3,MacIntel,59.99880002,627c6715c52fd12f31907bcf,,,,,,,,,,,,,,,,,,,,,,,l,0,3.335,"[""0.179"",""0.445"",""0.865"",""0.026""]","[1,1,1,0]",0,50,50,50,1,0,0,,,0,FALSE,,,,,,,,,,,,,,,,,,,,,,,,,,,,,,,
,5f66457793e8240d22e60ea3,627c6dec893f7b013ae2db10,2022-05-11_21h19.06.525,classification_task,2021.2.3,MacIntel,59.99880002,627c6715c52fd12f31907bcf,,,,,,,,,,,,,,,,,,,,,,,l,0,2.8022,"[""0.254"",""0.548"",""0.898"",""0.326""]","[1,1,1,0]",0,51,51,51,1,0,1,,,0,FALSE,,,,,,,,,,,,,,,,,,,,,,,,,,,,,,,
,5f66457793e8240d22e60ea3,627c6dec893f7b013ae2db10,2022-05-11_21h19.06.525,classification_task,2021.2.3,MacIntel,59.99880002,627c6715c52fd12f31907bcf,,,,,,,,,,,,,,,,,,,,,,,l,1,3.7836,"[""0.076"",""0.290"",""0.353"",""0.831""]","[1,1,0,1]",0,52,52,52,1,1,0,,,0,FALSE,,,,,,,,,,,,,,,,,,,,,,,,,,,,,,,
,5f66457793e8240d22e60ea3,627c6dec893f7b013ae2db10,2022-05-11_21h19.06.525,classification_task,2021.2.3,MacIntel,59.99880002,627c6715c52fd12f31907bcf,,,,,,,,,,,,,,,,,,,,,,,a,1,4.7035,"[""0.693"",""0.445"",""0.865"",""0.941""]","[0,1,1,1]",0,53,53,53,1,0,0,,,0,FALSE,,,,,,,,,,,,,,,,,,,,,,,,,,,,,,,
,5f66457793e8240d22e60ea3,627c6dec893f7b013ae2db10,2022-05-11_21h19.06.525,classification_task,2021.2.3,MacIntel,59.99880002,627c6715c52fd12f31907bcf,,,,,,,,,,,,,,,,,,,,,,,l,1,5.7738,"[""0.076"",""0.290"",""0.506"",""0.027""]","[1,1,1,0]",0,54,54,54,1,1,0,,,0,FALSE,,,,,,,,,,,,,,,,,,,,,,,,,,,,,,,
,5f66457793e8240d22e60ea3,627c6dec893f7b013ae2db10,2022-05-11_21h19.06.525,classification_task,2021.2.3,MacIntel,59.99880002,627c6715c52fd12f31907bcf,,,,,,,,,,,,,,,,,,,,,,,a,1,2.5734,"[""0.179"",""0.445"",""0.693"",""0.941""]","[1,1,0,1]",0,55,55,55,1,0,0,,,0,FALSE,,,,,,,,,,,,,,,,,,,,,,,,,,,,,,,
,5f66457793e8240d22e60ea3,627c6dec893f7b013ae2db10,2022-05-11_21h19.06.525,classification_task,2021.2.3,MacIntel,59.99880002,627c6715c52fd12f31907bcf,,,,,,,,,,,,,,,,,,,,,,,a,0,3.948,"[""0.128"",""0.402"",""0.639"",""0.347""]","[1,1,1,0]",0,56,56,56,1,1,1,,,0,FALSE,,,,,,,,,,,,,,,,,,,,,,,,,,,,,,,
,5f66457793e8240d22e60ea3,627c6dec893f7b013ae2db10,2022-05-11_21h19.06.525,classification_task,2021.2.3,MacIntel,59.99880002,627c6715c52fd12f31907bcf,,,,,,,,,,,,,,,,,,,,,,,l,1,3.0197,"[""0.076"",""0.347"",""0.506"",""0.831""]","[1,0,1,1]",0,57,57,57,1,1,0,,,0,FALSE,,,,,,,,,,,,,,,,,,,,,,,,,,,,,,,
,5f66457793e8240d22e60ea3,627c6dec893f7b013ae2db10,2022-05-11_21h19.06.525,classification_task,2021.2.3,MacIntel,59.99880002,627c6715c52fd12f31907bcf,,,,,,,,,,,,,,,,,,,,,,,l,0,2.52,"[""0.254"",""0.548"",""0.037"",""0.975""]","[1,1,0,1]",0,58,58,58,1,0,1,,,0,FALSE,,,,,,,,,,,,,,,,,,,,,,,,,,,,,,,
,5f66457793e8240d22e60ea3,627c6dec893f7b013ae2db10,2022-05-11_21h19.06.525,classification_task,2021.2.3,MacIntel,59.99880002,627c6715c52fd12f31907bcf,,,,,,,,,,,,,,,,,,,,,,,a,1,2.2688,"[""0.179"",""0.027"",""0.865"",""0.941""]","[1,0,1,1]",0,59,59,59,1,0,0,,,0,FALSE,,,,,,,,,,,,,,,,,,,,,,,,,,,,,,,
,5f66457793e8240d22e60ea3,627c6dec893f7b013ae2db10,2022-05-11_21h19.06.525,classification_task,2021.2.3,MacIntel,59.99880002,627c6715c52fd12f31907bcf,,,,,,,,,,,,,,,,,,,,,,,l,1,2.0287,"[""0.601"",""0.290"",""0.506"",""0.831""]","[0,1,1,1]",0,60,60,60,1,1,0,,,0,FALSE,,,,,,,,,,,,,,,,,,,,,,,,,,,,,,,
,5f66457793e8240d22e60ea3,627c6dec893f7b013ae2db10,2022-05-11_21h19.06.525,classification_task,2021.2.3,MacIntel,59.99880002,627c6715c52fd12f31907bcf,,,,,,,,,,,,,,,,,,,,,,,a,1,5.1879,"[""0.691"",""0.548"",""0.898"",""0.975""]","[0,1,1,1]",0,61,61,61,1,0,1,,,0,FALSE,,,,,,,,,,,,,,,,,,,,,,,,,,,,,,,
,5f66457793e8240d22e60ea3,627c6dec893f7b013ae2db10,2022-05-11_21h19.06.525,classification_task,2021.2.3,MacIntel,59.99880002,627c6715c52fd12f31907bcf,,,,,,,,,,,,,,,,,,,,,,,a,0,3.4711,"[""0.128"",""0.326"",""0.639"",""0.745""]","[1,0,1,1]",0,62,62,62,1,1,1,,,0,FALSE,,,,,,,,,,,,,,,,,,,,,,,,,,,,,,,
,5f66457793e8240d22e60ea3,627c6dec893f7b013ae2db10,2022-05-11_21h19.06.525,classification_task,2021.2.3,MacIntel,59.99880002,627c6715c52fd12f31907bcf,,,,,,,,,,,,,,,,,,,,,,,a,0,3.2226,"[""0.353"",""0.402"",""0.639"",""0.745""]","[0,1,1,1]",0,63,63,63,1,1,1,,,0,FALSE,,,,,,,,,,,,,,,,,,,,,,,,,,,,,,,
,5f66457793e8240d22e60ea3,627c6dec893f7b013ae2db10,2022-05-11_21h19.06.525,classification_task,2021.2.3,MacIntel,59.99880002,627c6715c52fd12f31907bcf,,,,,,,,,,,,,,,,,,,,,,,,,,,,,,,,,,,,,,,0, ,,0,0,329.8694,0,1,1,1,1,2,2,,,,,,,,,,,,,,,,,,
,5f66457793e8240d22e60ea3,627c6dec893f7b013ae2db10,2022-05-11_21h19.06.525,classification_task,2021.2.3,MacIntel,59.99880002,627c6715c52fd12f31907bcf,,,,,,,,,,,,,,,,,,,,,,,,,,,,,,,,,,,,,,,1,  ,,0,10,363.6518,0,1,1,1,1,2,2,,,,,,,,,,,,,,,,,,
,5f66457793e8240d22e60ea3,627c6dec893f7b013ae2db10,2022-05-11_21h19.06.525,classification_task,2021.2.3,MacIntel,59.99880002,627c6715c52fd12f31907bcf,,,,,,,,,,,,,,,,,,,,,,,,,,,,,,,,,,,,,,,2,  ,,0,8.448109568,364.4915,0,1,1,1,1,2,2,,,,,,,,,,,,,,,,,,
,5f66457793e8240d22e60ea3,627c6dec893f7b013ae2db10,2022-05-11_21h19.06.525,classification_task,2021.2.3,MacIntel,59.99880002,627c6715c52fd12f31907bcf,,,,,,,,,,,,,,,,,,,,,,,,,,,,,,,,,,,,,,,,,,,,,0,1,1,1,1,,2,,,,,,,,,,,,,,,,,,
,5f66457793e8240d22e60ea3,627c6dec893f7b013ae2db10,2022-05-11_21h19.06.525,classification_task,2021.2.3,MacIntel,59.99880002,627c6715c52fd12f31907bcf,,,,,,,,,,,,,,,,,,,,,space,15.4161,l,1,4.3184,"[""0.076"",""0.290"",""0.506"",""0.326""]","[1,1,1,0]",0,0,0,0,1,1,0,,,0,FALSE,,,,,,,,,,,,,,,,,,,,,,,,,,,,,,,
,5f66457793e8240d22e60ea3,627c6dec893f7b013ae2db10,2022-05-11_21h19.06.525,classification_task,2021.2.3,MacIntel,59.99880002,627c6715c52fd12f31907bcf,,,,,,,,,,,,,,,,,,,,,,,l,1,5.8369,"[""0.128"",""0.402"",""0.639"",""0.339""]","[1,1,1,0]",0,1,1,1,1,1,1,,,0,FALSE,,,,,,,,,,,,,,,,,,,,,,,,,,,,,,,
,5f66457793e8240d22e60ea3,627c6dec893f7b013ae2db10,2022-05-11_21h19.06.525,classification_task,2021.2.3,MacIntel,59.99880002,627c6715c52fd12f31907bcf,,,,,,,,,,,,,,,,,,,,,,,a,1,4.7053,"[""0.693"",""0.445"",""0.865"",""0.941""]","[0,1,1,1]",0,2,2,2,1,0,0,,,0,FALSE,,,,,,,,,,,,,,,,,,,,,,,,,,,,,,,
,5f66457793e8240d22e60ea3,627c6dec893f7b013ae2db10,2022-05-11_21h19.06.525,classification_task,2021.2.3,MacIntel,59.99880002,627c6715c52fd12f31907bcf,,,,,,,,,,,,,,,,,,,,,,,l,1,4.6732,"[""0.339"",""0.290"",""0.506"",""0.831""]","[0,1,1,1]",0,3,3,3,1,1,0,,,0,FALSE,,,,,,,,,,,,,,,,,,,,,,,,,,,,,,,
,5f66457793e8240d22e60ea3,627c6dec893f7b013ae2db10,2022-05-11_21h19.06.525,classification_task,2021.2.3,MacIntel,59.99880002,627c6715c52fd12f31907bcf,,,,,,,,,,,,,,,,,,,,,,,a,0,5.8374,"[""0.128"",""0.402"",""0.326"",""0.745""]","[1,1,0,1]",0,4,4,4,1,1,1,,,0,FALSE,,,,,,,,,,,,,,,,,,,,,,,,,,,,,,,
,5f66457793e8240d22e60ea3,627c6dec893f7b013ae2db10,2022-05-11_21h19.06.525,classification_task,2021.2.3,MacIntel,59.99880002,627c6715c52fd12f31907bcf,,,,,,,,,,,,,,,,,,,,,,,l,0,4.8229,"[""0.179"",""0.445"",""0.336"",""0.941""]","[1,1,0,1]",0,5,5,5,1,0,0,,,0,FALSE,,,,,,,,,,,,,,,,,,,,,,,,,,,,,,,
,5f66457793e8240d22e60ea3,627c6dec893f7b013ae2db10,2022-05-11_21h19.06.525,classification_task,2021.2.3,MacIntel,59.99880002,627c6715c52fd12f31907bcf,,,,,,,,,,,,,,,,,,,,,,,l,0,4.7376,"[""0.254"",""0.548"",""0.336"",""0.975""]","[1,1,0,1]",0,6,6,6,1,0,1,,,0,FALSE,,,,,,,,,,,,,,,,,,,,,,,,,,,,,,,
,5f66457793e8240d22e60ea3,627c6dec893f7b013ae2db10,2022-05-11_21h19.06.525,classification_task,2021.2.3,MacIntel,59.99880002,627c6715c52fd12f31907bcf,,,,,,,,,,,,,,,,,,,,,,,l,0,5.125,"[""0.254"",""0.601"",""0.898"",""0.975""]","[1,0,1,1]",0,7,7,7,1,0,1,,,0,FALSE,,,,,,,,,,,,,,,,,,,,,,,,,,,,,,,
,5f66457793e8240d22e60ea3,627c6dec893f7b013ae2db10,2022-05-11_21h19.06.525,classification_task,2021.2.3,MacIntel,59.99880002,627c6715c52fd12f31907bcf,,,,,,,,,,,,,,,,,,,,,,,a,0,3.3377,"[""0.076"",""0.290"",""0.353"",""0.831""]","[1,1,0,1]",0,8,8,8,1,1,0,,,0,FALSE,,,,,,,,,,,,,,,,,,,,,,,,,,,,,,,
,5f66457793e8240d22e60ea3,627c6dec893f7b013ae2db10,2022-05-11_21h19.06.525,classification_task,2021.2.3,MacIntel,59.99880002,627c6715c52fd12f31907bcf,,,,,,,,,,,,,,,,,,,,,,,a,0,5.6258,"[""0.076"",""0.694"",""0.506"",""0.831""]","[1,0,1,1]",0,9,9,9,1,1,0,,,0,FALSE,,,,,,,,,,,,,,,,,,,,,,,,,,,,,,,
,5f66457793e8240d22e60ea3,627c6dec893f7b013ae2db10,2022-05-11_21h19.06.525,classification_task,2021.2.3,MacIntel,59.99880002,627c6715c52fd12f31907bcf,,,,,,,,,,,,,,,,,,,,,,,l,0,3.6221,"[""0.254"",""0.548"",""0.898"",""0.336""]","[1,1,1,0]",0,10,10,10,1,0,1,,,0,FALSE,,,,,,,,,,,,,,,,,,,,,,,,,,,,,,,
,5f66457793e8240d22e60ea3,627c6dec893f7b013ae2db10,2022-05-11_21h19.06.525,classification_task,2021.2.3,MacIntel,59.99880002,627c6715c52fd12f31907bcf,,,,,,,,,,,,,,,,,,,,,,,a,1,4.9397,"[""0.179"",""0.445"",""0.865"",""0.347""]","[1,1,1,0]",0,11,11,11,1,0,0,,,0,FALSE,,,,,,,,,,,,,,,,,,,,,,,,,,,,,,,
,5f66457793e8240d22e60ea3,627c6dec893f7b013ae2db10,2022-05-11_21h19.06.525,classification_task,2021.2.3,MacIntel,59.99880002,627c6715c52fd12f31907bcf,,,,,,,,,,,,,,,,,,,,,,,l,1,4.1231,"[""0.128"",""0.026"",""0.639"",""0.745""]","[1,0,1,1]",0,12,12,12,1,1,1,,,0,FALSE,,,,,,,,,,,,,,,,,,,,,,,,,,,,,,,
,5f66457793e8240d22e60ea3,627c6dec893f7b013ae2db10,2022-05-11_21h19.06.525,classification_task,2021.2.3,MacIntel,59.99880002,627c6715c52fd12f31907bcf,,,,,,,,,,,,,,,,,,,,,,,l,0,2.9404,"[""0.037"",""0.548"",""0.898"",""0.975""]","[0,1,1,1]",0,13,13,13,1,0,1,,,0,FALSE,,,,,,,,,,,,,,,,,,,,,,,,,,,,,,,
,5f66457793e8240d22e60ea3,627c6dec893f7b013ae2db10,2022-05-11_21h19.06.525,classification_task,2021.2.3,MacIntel,59.99880002,627c6715c52fd12f31907bcf,,,,,,,,,,,,,,,,,,,,,,,a,1,4.1117,"[""0.179"",""0.326"",""0.865"",""0.941""]","[1,0,1,1]",0,14,14,14,1,0,0,,,0,FALSE,,,,,,,,,,,,,,,,,,,,,,,,,,,,,,,
,5f66457793e8240d22e60ea3,627c6dec893f7b013ae2db10,2022-05-11_21h19.06.525,classification_task,2021.2.3,MacIntel,59.99880002,627c6715c52fd12f31907bcf,,,,,,,,,,,,,,,,,,,,,,,l,1,6.141,"[""0.682"",""0.402"",""0.639"",""0.745""]","[0,1,1,1]",0,15,15,15,1,1,1,,,0,FALSE,,,,,,,,,,,,,,,,,,,,,,,,,,,,,,,
,5f66457793e8240d22e60ea3,627c6dec893f7b013ae2db10,2022-05-11_21h19.06.525,classification_task,2021.2.3,MacIntel,59.99880002,627c6715c52fd12f31907bcf,,,,,,,,,,,,,,,,,,,,,,,a,0,4.9208,"[""0.693"",""0.290"",""0.506"",""0.831""]","[0,1,1,1]",0,16,16,16,1,1,0,,,0,FALSE,,,,,,,,,,,,,,,,,,,,,,,,,,,,,,,
,5f66457793e8240d22e60ea3,627c6dec893f7b013ae2db10,2022-05-11_21h19.06.525,classification_task,2021.2.3,MacIntel,59.99880002,627c6715c52fd12f31907bcf,,,,,,,,,,,,,,,,,,,,,,,a,0,5.1714,"[""0.076"",""0.682"",""0.506"",""0.831""]","[1,0,1,1]",0,17,17,17,1,1,0,,,0,FALSE,,,,,,,,,,,,,,,,,,,,,,,,,,,,,,,
,5f66457793e8240d22e60ea3,627c6dec893f7b013ae2db10,2022-05-11_21h19.06.525,classification_task,2021.2.3,MacIntel,59.99880002,627c6715c52fd12f31907bcf,,,,,,,,,,,,,,,,,,,,,,,l,1,4.9056,"[""0.076"",""0.290"",""0.506"",""0.601""]","[1,1,1,0]",0,18,18,18,1,1,0,,,0,FALSE,,,,,,,,,,,,,,,,,,,,,,,,,,,,,,,
,5f66457793e8240d22e60ea3,627c6dec893f7b013ae2db10,2022-05-11_21h19.06.525,classification_task,2021.2.3,MacIntel,59.99880002,627c6715c52fd12f31907bcf,,,,,,,,,,,,,,,,,,,,,,,a,0,4.9418,"[""0.128"",""0.402"",""0.682"",""0.745""]","[1,1,0,1]",0,19,19,19,1,1,1,,,0,FALSE,,,,,,,,,,,,,,,,,,,,,,,,,,,,,,,
,5f66457793e8240d22e60ea3,627c6dec893f7b013ae2db10,2022-05-11_21h19.06.525,classification_task,2021.2.3,MacIntel,59.99880002,627c6715c52fd12f31907bcf,,,,,,,,,,,,,,,,,,,,,,,l,0,3.7542,"[""0.353"",""0.445"",""0.865"",""0.941""]","[0,1,1,1]",0,20,20,20,1,0,0,,,0,FALSE,,,,,,,,,,,,,,,,,,,,,,,,,,,,,,,
,5f66457793e8240d22e60ea3,627c6dec893f7b013ae2db10,2022-05-11_21h19.06.525,classification_task,2021.2.3,MacIntel,59.99880002,627c6715c52fd12f31907bcf,,,,,,,,,,,,,,,,,,,,,,,a,0,3.6225,"[""0.128"",""0.326"",""0.639"",""0.745""]","[1,0,1,1]",0,21,21,21,1,1,1,,,0,FALSE,,,,,,,,,,,,,,,,,,,,,,,,,,,,,,,
,5f66457793e8240d22e60ea3,627c6dec893f7b013ae2db10,2022-05-11_21h19.06.525,classification_task,2021.2.3,MacIntel,59.99880002,627c6715c52fd12f31907bcf,,,,,,,,,,,,,,,,,,,,,,,l,0,4.1883,"[""0.254"",""0.548"",""0.898"",""0.347""]","[1,1,1,0]",0,22,22,22,1,0,1,,,0,FALSE,,,,,,,,,,,,,,,,,,,,,,,,,,,,,,,
,5f66457793e8240d22e60ea3,627c6dec893f7b013ae2db10,2022-05-11_21h19.06.525,classification_task,2021.2.3,MacIntel,59.99880002,627c6715c52fd12f31907bcf,,,,,,,,,,,,,,,,,,,,,,,a,1,3.3251,"[""0.254"",""0.548"",""0.694"",""0.975""]","[1,1,0,1]",0,23,23,23,1,0,1,,,0,FALSE,,,,,,,,,,,,,,,,,,,,,,,,,,,,,,,
,5f66457793e8240d22e60ea3,627c6dec893f7b013ae2db10,2022-05-11_21h19.06.525,classification_task,2021.2.3,MacIntel,59.99880002,627c6715c52fd12f31907bcf,,,,,,,,,,,,,,,,,,,,,,,l,1,5.0372,"[""0.327"",""0.402"",""0.639"",""0.745""]","[0,1,1,1]",0,24,24,24,1,1,1,,,0,FALSE,,,,,,,,,,,,,,,,,,,,,,,,,,,,,,,
,5f66457793e8240d22e60ea3,627c6dec893f7b013ae2db10,2022-05-11_21h19.06.525,classification_task,2021.2.3,MacIntel,59.99880002,627c6715c52fd12f31907bcf,,,,,,,,,,,,,,,,,,,,,,,l,0,4.1907,"[""0.179"",""0.445"",""0.865"",""0.601""]","[1,1,1,0]",0,25,25,25,1,0,0,,,0,FALSE,,,,,,,,,,,,,,,,,,,,,,,,,,,,,,,
,5f66457793e8240d22e60ea3,627c6dec893f7b013ae2db10,2022-05-11_21h19.06.525,classification_task,2021.2.3,MacIntel,59.99880002,627c6715c52fd12f31907bcf,,,,,,,,,,,,,,,,,,,,,,,l,1,4.2225,"[""0.076"",""0.290"",""0.682"",""0.831""]","[1,1,0,1]",0,26,26,26,1,1,0,,,0,FALSE,,,,,,,,,,,,,,,,,,,,,,,,,,,,,,,
,5f66457793e8240d22e60ea3,627c6dec893f7b013ae2db10,2022-05-11_21h19.06.525,classification_task,2021.2.3,MacIntel,59.99880002,627c6715c52fd12f31907bcf,,,,,,,,,,,,,,,,,,,,,,,a,1,4.2575,"[""0.179"",""0.445"",""0.336"",""0.941""]","[1,1,0,1]",0,27,27,27,1,0,0,,,0,FALSE,,,,,,,,,,,,,,,,,,,,,,,,,,,,,,,
,5f66457793e8240d22e60ea3,627c6dec893f7b013ae2db10,2022-05-11_21h19.06.525,classification_task,2021.2.3,MacIntel,59.99880002,627c6715c52fd12f31907bcf,,,,,,,,,,,,,,,,,,,,,,,l,1,4.6521,"[""0.128"",""0.402"",""0.639"",""0.339""]","[1,1,1,0]",0,28,28,28,1,1,1,,,0,FALSE,,,,,,,,,,,,,,,,,,,,,,,,,,,,,,,
,5f66457793e8240d22e60ea3,627c6dec893f7b013ae2db10,2022-05-11_21h19.06.525,classification_task,2021.2.3,MacIntel,59.99880002,627c6715c52fd12f31907bcf,,,,,,,,,,,,,,,,,,,,,,,l,0,4.0078,"[""0.254"",""0.601"",""0.898"",""0.975""]","[1,0,1,1]",0,29,29,29,1,0,1,,,0,FALSE,,,,,,,,,,,,,,,,,,,,,,,,,,,,,,,
,5f66457793e8240d22e60ea3,627c6dec893f7b013ae2db10,2022-05-11_21h19.06.525,classification_task,2021.2.3,MacIntel,59.99880002,627c6715c52fd12f31907bcf,,,,,,,,,,,,,,,,,,,,,,,l,0,5.1871,"[""0.179"",""0.027"",""0.865"",""0.941""]","[1,0,1,1]",0,30,30,30,1,0,0,,,0,FALSE,,,,,,,,,,,,,,,,,,,,,,,,,,,,,,,
,5f66457793e8240d22e60ea3,627c6dec893f7b013ae2db10,2022-05-11_21h19.06.525,classification_task,2021.2.3,MacIntel,59.99880002,627c6715c52fd12f31907bcf,,,,,,,,,,,,,,,,,,,,,,,a,1,4.3221,"[""0.682"",""0.548"",""0.898"",""0.975""]","[0,1,1,1]",0,31,31,31,1,0,1,,,0,FALSE,,,,,,,,,,,,,,,,,,,,,,,,,,,,,,,
,5f66457793e8240d22e60ea3,627c6dec893f7b013ae2db10,2022-05-11_21h19.06.525,classification_task,2021.2.3,MacIntel,59.99880002,627c6715c52fd12f31907bcf,,,,,,,,,,,,,,,,,,,,,,,l,1,3.8909,"[""0.076"",""0.290"",""0.694"",""0.831""]","[1,1,0,1]",0,32,32,32,1,1,0,,,0,FALSE,,,,,,,,,,,,,,,,,,,,,,,,,,,,,,,
,5f66457793e8240d22e60ea3,627c6dec893f7b013ae2db10,2022-05-11_21h19.06.525,classification_task,2021.2.3,MacIntel,59.99880002,627c6715c52fd12f31907bcf,,,,,,,,,,,,,,,,,,,,,,,a,1,4.1232,"[""0.254"",""0.548"",""0.898"",""0.336""]","[1,1,1,0]",0,33,33,33,1,0,1,,,0,FALSE,,,,,,,,,,,,,,,,,,,,,,,,,,,,,,,
,5f66457793e8240d22e60ea3,627c6dec893f7b013ae2db10,2022-05-11_21h19.06.525,classification_task,2021.2.3,MacIntel,59.99880002,627c6715c52fd12f31907bcf,,,,,,,,,,,,,,,,,,,,,,,a,1,4.2714,"[""0.179"",""0.445"",""0.601"",""0.941""]","[1,1,0,1]",0,34,34,34,1,0,0,,,0,FALSE,,,,,,,,,,,,,,,,,,,,,,,,,,,,,,,
,5f66457793e8240d22e60ea3,627c6dec893f7b013ae2db10,2022-05-11_21h19.06.525,classification_task,2021.2.3,MacIntel,59.99880002,627c6715c52fd12f31907bcf,,,,,,,,,,,,,,,,,,,,,,,a,0,4.1709,"[""0.076"",""0.290"",""0.506"",""0.327""]","[1,1,1,0]",0,35,35,35,1,1,0,,,0,FALSE,,,,,,,,,,,,,,,,,,,,,,,,,,,,,,,
,5f66457793e8240d22e60ea3,627c6dec893f7b013ae2db10,2022-05-11_21h19.06.525,classification_task,2021.2.3,MacIntel,59.99880002,627c6715c52fd12f31907bcf,,,,,,,,,,,,,,,,,,,,,,,l,0,4.8221,"[""0.693"",""0.445"",""0.865"",""0.941""]","[0,1,1,1]",0,36,36,36,1,0,0,,,0,FALSE,,,,,,,,,,,,,,,,,,,,,,,,,,,,,,,
,5f66457793e8240d22e60ea3,627c6dec893f7b013ae2db10,2022-05-11_21h19.06.525,classification_task,2021.2.3,MacIntel,59.99880002,627c6715c52fd12f31907bcf,,,,,,,,,,,,,,,,,,,,,,,l,1,5.57,"[""0.128"",""0.402"",""0.694"",""0.745""]","[1,1,0,1]",0,37,37,37,1,1,1,,,0,FALSE,,,,,,,,,,,,,,,,,,,,,,,,,,,,,,,
,5f66457793e8240d22e60ea3,627c6dec893f7b013ae2db10,2022-05-11_21h19.06.525,classification_task,2021.2.3,MacIntel,59.99880002,627c6715c52fd12f31907bcf,,,,,,,,,,,,,,,,,,,,,,,a,0,6.6738,"[""0.691"",""0.402"",""0.639"",""0.745""]","[0,1,1,1]",0,38,38,38,1,1,1,,,0,FALSE,,,,,,,,,,,,,,,,,,,,,,,,,,,,,,,
,5f66457793e8240d22e60ea3,627c6dec893f7b013ae2db10,2022-05-11_21h19.06.525,classification_task,2021.2.3,MacIntel,59.99880002,627c6715c52fd12f31907bcf,,,,,,,,,,,,,,,,,,,,,,,l,0,6.1527,"[""0.179"",""0.694"",""0.865"",""0.941""]","[1,0,1,1]",0,39,39,39,1,0,0,,,0,FALSE,,,,,,,,,,,,,,,,,,,,,,,,,,,,,,,
,5f66457793e8240d22e60ea3,627c6dec893f7b013ae2db10,2022-05-11_21h19.06.525,classification_task,2021.2.3,MacIntel,59.99880002,627c6715c52fd12f31907bcf,,,,,,,,,,,,,,,,,,,,,,,l,1,4.0056,"[""0.327"",""0.290"",""0.506"",""0.831""]","[0,1,1,1]",0,40,40,40,1,1,0,,,0,FALSE,,,,,,,,,,,,,,,,,,,,,,,,,,,,,,,
,5f66457793e8240d22e60ea3,627c6dec893f7b013ae2db10,2022-05-11_21h19.06.525,classification_task,2021.2.3,MacIntel,59.99880002,627c6715c52fd12f31907bcf,,,,,,,,,,,,,,,,,,,,,,,a,1,4.955,"[""0.254"",""0.601"",""0.898"",""0.975""]","[1,0,1,1]",0,41,41,41,1,0,1,,,0,FALSE,,,,,,,,,,,,,,,,,,,,,,,,,,,,,,,
,5f66457793e8240d22e60ea3,627c6dec893f7b013ae2db10,2022-05-11_21h19.06.525,classification_task,2021.2.3,MacIntel,59.99880002,627c6715c52fd12f31907bcf,,,,,,,,,,,,,,,,,,,,,,,l,1,3.6901,"[""0.076"",""0.327"",""0.506"",""0.831""]","[1,0,1,1]",0,42,42,42,1,1,0,,,0,FALSE,,,,,,,,,,,,,,,,,,,,,,,,,,,,,,,
,5f66457793e8240d22e60ea3,627c6dec893f7b013ae2db10,2022-05-11_21h19.06.525,classification_task,2021.2.3,MacIntel,59.99880002,627c6715c52fd12f31907bcf,,,,,,,,,,,,,,,,,,,,,,,a,0,5.9694,"[""0.128"",""0.694"",""0.639"",""0.745""]","[1,0,1,1]",0,43,43,43,1,1,1,,,0,FALSE,,,,,,,,,,,,,,,,,,,,,,,,,,,,,,,
,5f66457793e8240d22e60ea3,627c6dec893f7b013ae2db10,2022-05-11_21h19.06.525,classification_task,2021.2.3,MacIntel,59.99880002,627c6715c52fd12f31907bcf,,,,,,,,,,,,,,,,,,,,,,,l,0,5.1232,"[""0.693"",""0.548"",""0.898"",""0.975""]","[0,1,1,1]",0,44,44,44,1,0,1,,,0,FALSE,,,,,,,,,,,,,,,,,,,,,,,,,,,,,,,
,5f66457793e8240d22e60ea3,627c6dec893f7b013ae2db10,2022-05-11_21h19.06.525,classification_task,2021.2.3,MacIntel,59.99880002,627c6715c52fd12f31907bcf,,,,,,,,,,,,,,,,,,,,,,,l,1,4.6211,"[""0.128"",""0.402"",""0.639"",""0.693""]","[1,1,1,0]",0,45,45,45,1,1,1,,,0,FALSE,,,,,,,,,,,,,,,,,,,,,,,,,,,,,,,
,5f66457793e8240d22e60ea3,627c6dec893f7b013ae2db10,2022-05-11_21h19.06.525,classification_task,2021.2.3,MacIntel,59.99880002,627c6715c52fd12f31907bcf,,,,,,,,,,,,,,,,,,,,,,,a,1,4.7403,"[""0.179"",""0.445"",""0.865"",""0.682""]","[1,1,1,0]",0,46,46,46,1,0,0,,,0,FALSE,,,,,,,,,,,,,,,,,,,,,,,,,,,,,,,
,5f66457793e8240d22e60ea3,627c6dec893f7b013ae2db10,2022-05-11_21h19.06.525,classification_task,2021.2.3,MacIntel,59.99880002,627c6715c52fd12f31907bcf,,,,,,,,,,,,,,,,,,,,,,,l,0,5.2758,"[""0.254"",""0.548"",""0.037"",""0.975""]","[1,1,0,1]",0,47,47,47,1,0,1,,,0,FALSE,,,,,,,,,,,,,,,,,,,,,,,,,,,,,,,
,5f66457793e8240d22e60ea3,627c6dec893f7b013ae2db10,2022-05-11_21h19.06.525,classification_task,2021.2.3,MacIntel,59.99880002,627c6715c52fd12f31907bcf,,,,,,,,,,,,,,,,,,,,,,,l,0,9.2396,"[""0.254"",""0.548"",""0.898"",""0.693""]","[1,1,1,0]",0,48,48,48,1,0,1,,,0,FALSE,,,,,,,,,,,,,,,,,,,,,,,,,,,,,,,
,5f66457793e8240d22e60ea3,627c6dec893f7b013ae2db10,2022-05-11_21h19.06.525,classification_task,2021.2.3,MacIntel,59.99880002,627c6715c52fd12f31907bcf,,,,,,,,,,,,,,,,,,,,,,,a,0,3.3563,"[""0.076"",""0.290"",""0.693"",""0.831""]","[1,1,0,1]",0,49,49,49,1,1,0,,,0,FALSE,,,,,,,,,,,,,,,,,,,,,,,,,,,,,,,
,5f66457793e8240d22e60ea3,627c6dec893f7b013ae2db10,2022-05-11_21h19.06.525,classification_task,2021.2.3,MacIntel,59.99880002,627c6715c52fd12f31907bcf,,,,,,,,,,,,,,,,,,,,,,,l,1,4.4885,"[""0.128"",""0.037"",""0.639"",""0.745""]","[1,0,1,1]",0,50,50,50,1,1,1,,,0,FALSE,,,,,,,,,,,,,,,,,,,,,,,,,,,,,,,
,5f66457793e8240d22e60ea3,627c6dec893f7b013ae2db10,2022-05-11_21h19.06.525,classification_task,2021.2.3,MacIntel,59.99880002,627c6715c52fd12f31907bcf,,,,,,,,,,,,,,,,,,,,,,,l,0,3.2881,"[""0.179"",""0.336"",""0.865"",""0.941""]","[1,0,1,1]",0,51,51,51,1,0,0,,,0,FALSE,,,,,,,,,,,,,,,,,,,,,,,,,,,,,,,
,5f66457793e8240d22e60ea3,627c6dec893f7b013ae2db10,2022-05-11_21h19.06.525,classification_task,2021.2.3,MacIntel,59.99880002,627c6715c52fd12f31907bcf,,,,,,,,,,,,,,,,,,,,,,,l,0,3.9546,"[""0.254"",""0.336"",""0.898"",""0.975""]","[1,0,1,1]",0,52,52,52,1,0,1,,,0,FALSE,,,,,,,,,,,,,,,,,,,,,,,,,,,,,,,
,5f66457793e8240d22e60ea3,627c6dec893f7b013ae2db10,2022-05-11_21h19.06.525,classification_task,2021.2.3,MacIntel,59.99880002,627c6715c52fd12f31907bcf,,,,,,,,,,,,,,,,,,,,,,,a,1,6.1045,"[""0.254"",""0.548"",""0.691"",""0.975""]","[1,1,0,1]",0,53,53,53,1,0,1,,,0,FALSE,,,,,,,,,,,,,,,,,,,,,,,,,,,,,,,
,5f66457793e8240d22e60ea3,627c6dec893f7b013ae2db10,2022-05-11_21h19.06.525,classification_task,2021.2.3,MacIntel,59.99880002,627c6715c52fd12f31907bcf,,,,,,,,,,,,,,,,,,,,,,,l,1,3.356,"[""0.128"",""0.402"",""0.347"",""0.745""]","[1,1,0,1]",0,54,54,54,1,1,1,,,0,FALSE,,,,,,,,,,,,,,,,,,,,,,,,,,,,,,,
,5f66457793e8240d22e60ea3,627c6dec893f7b013ae2db10,2022-05-11_21h19.06.525,classification_task,2021.2.3,MacIntel,59.99880002,627c6715c52fd12f31907bcf,,,,,,,,,,,,,,,,,,,,,,,a,0,3.3702,"[""0.128"",""0.402"",""0.639"",""0.691""]","[1,1,1,0]",0,55,55,55,1,1,1,,,0,FALSE,,,,,,,,,,,,,,,,,,,,,,,,,,,,,,,
,5f66457793e8240d22e60ea3,627c6dec893f7b013ae2db10,2022-05-11_21h19.06.525,classification_task,2021.2.3,MacIntel,59.99880002,627c6715c52fd12f31907bcf,,,,,,,,,,,,,,,,,,,,,,,l,0,2.4565,"[""0.179"",""0.445"",""0.336"",""0.941""]","[1,1,0,1]",0,56,56,56,1,0,0,,,0,FALSE,,,,,,,,,,,,,,,,,,,,,,,,,,,,,,,
,5f66457793e8240d22e60ea3,627c6dec893f7b013ae2db10,2022-05-11_21h19.06.525,classification_task,2021.2.3,MacIntel,59.99880002,627c6715c52fd12f31907bcf,,,,,,,,,,,,,,,,,,,,,,,l,1,3.8229,"[""0.347"",""0.290"",""0.506"",""0.831""]","[0,1,1,1]",0,57,57,57,1,1,0,,,0,FALSE,,,,,,,,,,,,,,,,,,,,,,,,,,,,,,,
,5f66457793e8240d22e60ea3,627c6dec893f7b013ae2db10,2022-05-11_21h19.06.525,classification_task,2021.2.3,MacIntel,59.99880002,627c6715c52fd12f31907bcf,,,,,,,,,,,,,,,,,,,,,,,a,1,5.987,"[""0.179"",""0.445"",""0.865"",""0.353""]","[1,1,1,0]",0,58,58,58,1,0,0,,,0,FALSE,,,,,,,,,,,,,,,,,,,,,,,,,,,,,,,
,5f66457793e8240d22e60ea3,627c6dec893f7b013ae2db10,2022-05-11_21h19.06.525,classification_task,2021.2.3,MacIntel,59.99880002,627c6715c52fd12f31907bcf,,,,,,,,,,,,,,,,,,,,,,,l,1,3.4712,"[""0.076"",""0.353"",""0.506"",""0.831""]","[1,0,1,1]",0,59,59,59,1,1,0,,,0,FALSE,,,,,,,,,,,,,,,,,,,,,,,,,,,,,,,
,5f66457793e8240d22e60ea3,627c6dec893f7b013ae2db10,2022-05-11_21h19.06.525,classification_task,2021.2.3,MacIntel,59.99880002,627c6715c52fd12f31907bcf,,,,,,,,,,,,,,,,,,,,,,,l,1,6.0405,"[""0.336"",""0.402"",""0.639"",""0.745""]","[0,1,1,1]",0,60,60,60,1,1,1,,,0,FALSE,,,,,,,,,,,,,,,,,,,,,,,,,,,,,,,
,5f66457793e8240d22e60ea3,627c6dec893f7b013ae2db10,2022-05-11_21h19.06.525,classification_task,2021.2.3,MacIntel,59.99880002,627c6715c52fd12f31907bcf,,,,,,,,,,,,,,,,,,,,,,,a,1,4.0381,"[""0.693"",""0.548"",""0.898"",""0.975""]","[0,1,1,1]",0,61,61,61,1,0,1,,,0,FALSE,,,,,,,,,,,,,,,,,,,,,,,,,,,,,,,
,5f66457793e8240d22e60ea3,627c6dec893f7b013ae2db10,2022-05-11_21h19.06.525,classification_task,2021.2.3,MacIntel,59.99880002,627c6715c52fd12f31907bcf,,,,,,,,,,,,,,,,,,,,,,,l,1,4.3036,"[""0.076"",""0.290"",""0.506"",""0.027""]","[1,1,1,0]",0,62,62,62,1,1,0,,,0,FALSE,,,,,,,,,,,,,,,,,,,,,,,,,,,,,,,
,5f66457793e8240d22e60ea3,627c6dec893f7b013ae2db10,2022-05-11_21h19.06.525,classification_task,2021.2.3,MacIntel,59.99880002,627c6715c52fd12f31907bcf,,,,,,,,,,,,,,,,,,,,,,,l,0,3.6553,"[""0.336"",""0.445"",""0.865"",""0.941""]","[0,1,1,1]",0,63,63,63,1,0,0,,,0,FALSE,,,,,,,,,,,,,,,,,,,,,,,,,,,,,,,
,5f66457793e8240d22e60ea3,627c6dec893f7b013ae2db10,2022-05-11_21h19.06.525,classification_task,2021.2.3,MacIntel,59.99880002,627c6715c52fd12f31907bcf,,,,,,,,,,,,,,,,,,,,,,,,,,,,,,,,,,,,,,,0, ,,0,0,383.793,0,2,2,2,1,2,3,,,,,,,,,,,,,,,,,,
,5f66457793e8240d22e60ea3,627c6dec893f7b013ae2db10,2022-05-11_21h19.06.525,classification_task,2021.2.3,MacIntel,59.99880002,627c6715c52fd12f31907bcf,,,,,,,,,,,,,,,,,,,,,,,,,,,,,,,,,,,,,,,1,  ,,0,7.916023663,384.8652,0,2,2,2,1,2,3,,,,,,,,,,,,,,,,,,
,5f66457793e8240d22e60ea3,627c6dec893f7b013ae2db10,2022-05-11_21h19.06.525,classification_task,2021.2.3,MacIntel,59.99880002,627c6715c52fd12f31907bcf,,,,,,,,,,,,,,,,,,,,,,,,,,,,,,,,,,,,,,,2,  ,,0,10,386.1084,0,2,2,2,1,2,3,,,,,,,,,,,,,,,,,,
,5f66457793e8240d22e60ea3,627c6dec893f7b013ae2db10,2022-05-11_21h19.06.525,classification_task,2021.2.3,MacIntel,59.99880002,627c6715c52fd12f31907bcf,,,,,,,,,,,,,,,,,,,,,,,,,,,,,,,,,,,,,,,,,,,,,0,2,2,2,1,,3,,,,,,,,,,,,,,,,,,
,5f66457793e8240d22e60ea3,627c6dec893f7b013ae2db10,2022-05-11_21h19.06.525,classification_task,2021.2.3,MacIntel,59.99880002,627c6715c52fd12f31907bcf,,,,,,,,,,,,,,,,,,,,,,,,,,,,,,,,,,,,,,,,,,,,,,,,,,,,,I believe the aid is a competent performer,,0.7,0,4,1573.6906,0,0,0,0,1,0,,,,,
,5f66457793e8240d22e60ea3,627c6dec893f7b013ae2db10,2022-05-11_21h19.06.525,classification_task,2021.2.3,MacIntel,59.99880002,627c6715c52fd12f31907bcf,,,,,,,,,,,,,,,,,,,,,,,,,,,,,,,,,,,,,,,,,,,,,,,,,,,,,I trust the aid,,0.7,0,5,1574.2909,0,0,0,0,1,0,,,,,
,5f66457793e8240d22e60ea3,627c6dec893f7b013ae2db10,2022-05-11_21h19.06.525,classification_task,2021.2.3,MacIntel,59.99880002,627c6715c52fd12f31907bcf,,,,,,,,,,,,,,,,,,,,,,,,,,,,,,,,,,,,,,,,,,,,,,,,,,,,,I have confidence in the advice given by the aid,,0.7,0,5,1585.3008,0,0,0,0,1,0,,,,,
,5f66457793e8240d22e60ea3,627c6dec893f7b013ae2db10,2022-05-11_21h19.06.525,classification_task,2021.2.3,MacIntel,59.99880002,627c6715c52fd12f31907bcf,,,,,,,,,,,,,,,,,,,,,,,,,,,,,,,,,,,,,,,,,,,,,,,,,,,,,I can depend on the aid,,0.7,0,5,1588.3738,0,0,0,0,1,0,,,,,
,5f66457793e8240d22e60ea3,627c6dec893f7b013ae2db10,2022-05-11_21h19.06.525,classification_task,2021.2.3,MacIntel,59.99880002,627c6715c52fd12f31907bcf,,,,,,,,,,,,,,,,,,,,,,,,,,,,,,,,,,,,,,,,,,,,,,,,,,,,,I can rely on the aid to behave in consistent ways,,0.7,0,5,1590.8231,0,0,0,0,1,0,,,,,
,5f66457793e8240d22e60ea3,627c6dec893f7b013ae2db10,2022-05-11_21h19.06.525,classification_task,2021.2.3,MacIntel,59.99880002,627c6715c52fd12f31907bcf,,,,,,,,,,,,,,,,,,,,,,,,,,,,,,,,,,,,,,,,,,,,,,,,,,,,,I can rely on the aid to do its best every time I take its advice,,0.7,0,5,1593.2229,0,0,0,0,1,0,,,,,
,5f66457793e8240d22e60ea3,627c6dec893f7b013ae2db10,2022-05-11_21h19.06.525,classification_task,2021.2.3,MacIntel,59.99880002,627c6715c52fd12f31907bcf,,,,,,,,,,,,,,,,,,,,,,,,,,,,,,,,,,,,,,,,,,,,,,,,,,,,,"On trials you completed with assistance from the aid, how frequently did you think the aid was correct?",,0.7,0,100%,,0,0,0,0,1,0,,,,,
,5f66457793e8240d22e60ea3,627c6dec893f7b013ae2db10,2022-05-11_21h19.06.525,classification_task,2021.2.3,MacIntel,59.99880002,627c6715c52fd12f31907bcf,,,,,,,,,,,,,,,,,,,,,,,,,,,,,,,,,,,,,,,,,,,,,,,,,,,,,"On trials you completed without the aid, how frequently did you think you were correct?",,0.7,0,40%,,0,0,0,0,1,0,,,,,
,5f66457793e8240d22e60ea3,627c6dec893f7b013ae2db10,2022-05-11_21h19.06.525,classification_task,2021.2.3,MacIntel,59.99880002,627c6715c52fd12f31907bcf,,,,,,,,,,,,,,,,,,,,,,,,,,,,,,,,,,,,,,,,,,,,,,,,,,,,,,,,,,,0,0,0,0,1,,,,,,
,5f66457793e8240d22e60ea3,627c6dec893f7b013ae2db10,2022-05-11_21h19.06.525,classification_task,2021.2.3,MacIntel,59.99880002,627c6715c52fd12f31907bcf,,,,,,,,,,,,,,,,,,,,,,,,,,,,,,,,,,,,,,,,,,,,,,,,,,,,,,,,,,,,,,,,,space,15.5902,1640.3777,,
,5f66457793e8240d22e60ea3,627c6dec893f7b013ae2db10,2022-05-11_21h19.06.525,classification_task,2021.2.3,MacIntel,59.99880002,627c6715c52fd12f31907bcf,,,,,,,,,,,,,,,,,,,,,,,,,,,,,,,,,,,,,,,,,,,,,,,,,,,,,,,,,,,,,,,,,,,,"Mozilla/5.0 (Macintosh; Intel Mac OS X 10_15_7) AppleWebKit/537.36 (KHTML, like Gecko) Chrome/101.0.4951.64 Safari/537.36",
,5f66457793e8240d22e60ea3,627c6dec893f7b013ae2db10,2022-05-11_21h19.06.525,classification_task,2021.2.3,MacIntel,59.99880002,627c6715c52fd12f31907bcf,,,,,,,,,,,,,,,,,,,,,,,,,,,,,,,,,,,,,,,,,,,,,,,,,,,,,,,,,,,,,,,,,,,,,FADING
