usingWebGL,participant,session,date,expName,psychopyVersion,OS,frameRate,PROLIFIC_PID,STUDY_ID,SESSION_ID,signatures_friend,signatures_foe,band_ranges_top,band_ranges_bottom,formitemText,formtype,formundefined,formitemWidth,formindex,formresponse,formrt,key_resp_2.keys,key_resp_2.rt,tute_resp.keys,tute_resp.rt,tutorial.thisRepN,tutorial.thisTrialN,tutorial.thisN,tutorial.thisIndex,tutorial.ran,key_resp_4.keys,key_resp_4.rt,key_resp.keys,key_resp.corr,key_resp.rt,lines_presented,is_signal_presented,trials.thisRepN,trials.thisTrialN,trials.thisN,trials.thisIndex,trials.ran,vessel,active_band,lines,is_signal,supported_pos,catch_trial,debrief_formindex,debrief_formitemText,debrief_formtype,debrief_formitemWidth,debrief_formresponse,debrief_formrt,phases.thisRepN,phases.thisTrialN,phases.thisN,phases.thisIndex,phases.ran,phases.order,phase,key_resp_3.keys,key_resp_3.rt,trustitemText,trusttype,trustitemWidth,trustindex,trustresponse,trustrt,support_status.thisRepN,support_status.thisTrialN,support_status.thisN,support_status.thisIndex,support_status.ran,support_status.order,key_resp_5.keys,key_resp_5.rt,globalClockTime,userAgent
TRUE,5f6ce3aa36f6181177e93f0f,001,2022-04-29_03h10.10.909,classification_task,2021.2.3,Win32,59.49193884,5f6ce3aa36f6181177e93f0f,626b377229c10585ec392f8a,626b3ac19ff929ac14250572,,,,,,,,,,,,,,,,,,,,,,,,,,,,,,,,,,,,,,,,,,,,,,,,,,,,,,,,,,,,,,,,,,,,,
,5f6ce3aa36f6181177e93f0f,001,2022-04-29_03h10.10.909,classification_task,2021.2.3,Win32,59.49193884,5f6ce3aa36f6181177e93f0f,626b377229c10585ec392f8a,626b3ac19ff929ac14250572,"[[""0.257"",""0.362"",""0.871"",""0.974""],[""0.213"",""0.555"",""0.679"",""0.918""]]","[[""0.102"",""0.292"",""0.608"",""0.828""],[""0.029"",""0.162"",""0.438"",""0.758""]]","[1,10]","[100,1000]",Video game experience,,,0.7,0,,,,,,,,,,,,,,,,,,,,,,,,,,,,,,,,,,,,,,,,,,,,,,,,,,,,,,,,,,,,
,5f6ce3aa36f6181177e93f0f,001,2022-04-29_03h10.10.909,classification_task,2021.2.3,Win32,59.49193884,5f6ce3aa36f6181177e93f0f,626b377229c10585ec392f8a,626b3ac19ff929ac14250572,,,,,Approximately how many hours did you spend playing video games in the last week?,,,0.7,0,0,,,,,,,,,,,,,,,,,,,,,,,,,,,,,,,,,,,,,,,,,,,,,,,,,,,,,,,,,,,
,5f6ce3aa36f6181177e93f0f,001,2022-04-29_03h10.10.909,classification_task,2021.2.3,Win32,59.49193884,5f6ce3aa36f6181177e93f0f,626b377229c10585ec392f8a,626b3ac19ff929ac14250572,,,,,"Which game did you play the most this year? (Enter ""None"" if you didn't play any)",,,0.7,0,None,,,,,,,,,,,,,,,,,,,,,,,,,,,,,,,,,,,,,,,,,,,,,,,,,,,,,,,,,,,
,5f6ce3aa36f6181177e93f0f,001,2022-04-29_03h10.10.909,classification_task,2021.2.3,Win32,59.49193884,5f6ce3aa36f6181177e93f0f,626b377229c10585ec392f8a,626b3ac19ff929ac14250572,,,,,Visual perception,,,0.7,0,,,,,,,,,,,,,,,,,,,,,,,,,,,,,,,,,,,,,,,,,,,,,,,,,,,,,,,,,,,,
,5f6ce3aa36f6181177e93f0f,001,2022-04-29_03h10.10.909,classification_task,2021.2.3,Win32,59.49193884,5f6ce3aa36f6181177e93f0f,626b377229c10585ec392f8a,626b3ac19ff929ac14250572,,,,,Do you have any form of color blindness?,,,0.7,0,No,9.5108,,,,,,,,,,,,,,,,,,,,,,,,,,,,,,,,,,,,,,,,,,,,,,,,,,,,,,,,,,
,5f6ce3aa36f6181177e93f0f,001,2022-04-29_03h10.10.909,classification_task,2021.2.3,Win32,59.49193884,5f6ce3aa36f6181177e93f0f,626b377229c10585ec392f8a,626b3ac19ff929ac14250572,,,,,Do you use software to change the colour temperature of your screen (e.g. f.lux)?,,,0.7,0,No,11.8749,,,,,,,,,,,,,,,,,,,,,,,,,,,,,,,,,,,,,,,,,,,,,,,,,,,,,,,,,,
,5f6ce3aa36f6181177e93f0f,001,2022-04-29_03h10.10.909,classification_task,2021.2.3,Win32,59.49193884,5f6ce3aa36f6181177e93f0f,626b377229c10585ec392f8a,626b3ac19ff929ac14250572,,,,,,,,,,,,space,17.5395,space,4.7944,0,0,0,0,1,,,,,,,,,,,,,,,,,,,,,,,,,,,,,,,,,,,,,,,,,,,,,,,,,
,5f6ce3aa36f6181177e93f0f,001,2022-04-29_03h10.10.909,classification_task,2021.2.3,Win32,59.49193884,5f6ce3aa36f6181177e93f0f,626b377229c10585ec392f8a,626b3ac19ff929ac14250572,,,,,,,,,,,,,,space,4.5352,1,0,1,0,1,,,,,,,,,,,,,,,,,,,,,,,,,,,,,,,,,,,,,,,,,,,,,,,,,
,5f6ce3aa36f6181177e93f0f,001,2022-04-29_03h10.10.909,classification_task,2021.2.3,Win32,59.49193884,5f6ce3aa36f6181177e93f0f,626b377229c10585ec392f8a,626b3ac19ff929ac14250572,,,,,,,,,,,,,,space,13.6991,2,0,2,0,1,,,,,,,,,,,,,,,,,,,,,,,,,,,,,,,,,,,,,,,,,,,,,,,,,
,5f6ce3aa36f6181177e93f0f,001,2022-04-29_03h10.10.909,classification_task,2021.2.3,Win32,59.49193884,5f6ce3aa36f6181177e93f0f,626b377229c10585ec392f8a,626b3ac19ff929ac14250572,,,,,,,,,,,,,,space,4.7663,3,0,3,0,1,,,,,,,,,,,,,,,,,,,,,,,,,,,,,,,,,,,,,,,,,,,,,,,,,
,5f6ce3aa36f6181177e93f0f,001,2022-04-29_03h10.10.909,classification_task,2021.2.3,Win32,59.49193884,5f6ce3aa36f6181177e93f0f,626b377229c10585ec392f8a,626b3ac19ff929ac14250572,,,,,,,,,,,,,,space,8.3459,4,0,4,0,1,,,,,,,,,,,,,,,,,,,,,,,,,,,,,,,,,,,,,,,,,,,,,,,,,
,5f6ce3aa36f6181177e93f0f,001,2022-04-29_03h10.10.909,classification_task,2021.2.3,Win32,59.49193884,5f6ce3aa36f6181177e93f0f,626b377229c10585ec392f8a,626b3ac19ff929ac14250572,,,,,,,,,,,,,,,,,,,,,space,18.4775,a,1,3.1141,"[""0.213"",""0.555"",""0.715"",""0.918""]","[1,1,0,1]",0,0,0,0,1,0,1,,,0,FALSE,,,,,,,,,,,,,,,,,,,,,,,,,,,,,,,
,5f6ce3aa36f6181177e93f0f,001,2022-04-29_03h10.10.909,classification_task,2021.2.3,Win32,59.49193884,5f6ce3aa36f6181177e93f0f,626b377229c10585ec392f8a,626b3ac19ff929ac14250572,,,,,,,,,,,,,,,,,,,,,,,l,0,3.1077,"[""0.213"",""0.507"",""0.679"",""0.918""]","[1,0,1,1]",0,1,1,1,1,0,1,,,0,FALSE,,,,,,,,,,,,,,,,,,,,,,,,,,,,,,,
,5f6ce3aa36f6181177e93f0f,001,2022-04-29_03h10.10.909,classification_task,2021.2.3,Win32,59.49193884,5f6ce3aa36f6181177e93f0f,626b377229c10585ec392f8a,626b3ac19ff929ac14250572,,,,,,,,,,,,,,,,,,,,,,,l,1,3.603,"[""0.029"",""0.162"",""0.438"",""0.793""]","[1,1,1,0]",0,2,2,2,1,1,1,,,0,FALSE,,,,,,,,,,,,,,,,,,,,,,,,,,,,,,,
,5f6ce3aa36f6181177e93f0f,001,2022-04-29_03h10.10.909,classification_task,2021.2.3,Win32,59.49193884,5f6ce3aa36f6181177e93f0f,626b377229c10585ec392f8a,626b3ac19ff929ac14250572,,,,,,,,,,,,,,,,,,,,,,,l,1,3.7117,"[""0.102"",""0.292"",""0.477"",""0.828""]","[1,1,0,1]",0,3,3,3,1,1,0,,,0,FALSE,,,,,,,,,,,,,,,,,,,,,,,,,,,,,,,
,5f6ce3aa36f6181177e93f0f,001,2022-04-29_03h10.10.909,classification_task,2021.2.3,Win32,59.49193884,5f6ce3aa36f6181177e93f0f,626b377229c10585ec392f8a,626b3ac19ff929ac14250572,,,,,,,,,,,,,,,,,,,,,,,a,0,3.3284,"[""0.326"",""0.162"",""0.438"",""0.758""]","[0,1,1,1]",0,4,4,4,1,1,1,,,0,FALSE,,,,,,,,,,,,,,,,,,,,,,,,,,,,,,,
,5f6ce3aa36f6181177e93f0f,001,2022-04-29_03h10.10.909,classification_task,2021.2.3,Win32,59.49193884,5f6ce3aa36f6181177e93f0f,626b377229c10585ec392f8a,626b3ac19ff929ac14250572,,,,,,,,,,,,,,,,,,,,,,,l,1,2.8947,"[""0.102"",""0.715"",""0.608"",""0.828""]","[1,0,1,1]",0,5,5,5,1,1,0,,,0,FALSE,,,,,,,,,,,,,,,,,,,,,,,,,,,,,,,
,5f6ce3aa36f6181177e93f0f,001,2022-04-29_03h10.10.909,classification_task,2021.2.3,Win32,59.49193884,5f6ce3aa36f6181177e93f0f,626b377229c10585ec392f8a,626b3ac19ff929ac14250572,,,,,,,,,,,,,,,,,,,,,,,l,1,4.6456,"[""0.029"",""0.162"",""0.475"",""0.758""]","[1,1,0,1]",0,6,6,6,1,1,1,,,0,FALSE,,,,,,,,,,,,,,,,,,,,,,,,,,,,,,,
,5f6ce3aa36f6181177e93f0f,001,2022-04-29_03h10.10.909,classification_task,2021.2.3,Win32,59.49193884,5f6ce3aa36f6181177e93f0f,626b377229c10585ec392f8a,626b3ac19ff929ac14250572,,,,,,,,,,,,,,,,,,,,,,,l,1,4.1778,"[""0.510"",""0.292"",""0.608"",""0.828""]","[0,1,1,1]",0,7,7,7,1,1,0,,,0,FALSE,,,,,,,,,,,,,,,,,,,,,,,,,,,,,,,
,5f6ce3aa36f6181177e93f0f,001,2022-04-29_03h10.10.909,classification_task,2021.2.3,Win32,59.49193884,5f6ce3aa36f6181177e93f0f,626b377229c10585ec392f8a,626b3ac19ff929ac14250572,,,,,,,,,,,,,,,,,,,,,,,a,1,3.575,"[""0.257"",""0.362"",""0.793"",""0.974""]","[1,1,0,1]",0,8,8,8,1,0,0,,,0,FALSE,,,,,,,,,,,,,,,,,,,,,,,,,,,,,,,
,5f6ce3aa36f6181177e93f0f,001,2022-04-29_03h10.10.909,classification_task,2021.2.3,Win32,59.49193884,5f6ce3aa36f6181177e93f0f,626b377229c10585ec392f8a,626b3ac19ff929ac14250572,,,,,,,,,,,,,,,,,,,,,,,l,0,3.5188,"[""0.213"",""0.555"",""0.679"",""0.067""]","[1,1,1,0]",0,9,9,9,1,0,1,,,0,FALSE,,,,,,,,,,,,,,,,,,,,,,,,,,,,,,,
,5f6ce3aa36f6181177e93f0f,001,2022-04-29_03h10.10.909,classification_task,2021.2.3,Win32,59.49193884,5f6ce3aa36f6181177e93f0f,626b377229c10585ec392f8a,626b3ac19ff929ac14250572,,,,,,,,,,,,,,,,,,,,,,,l,0,2.5766,"[""0.400"",""0.555"",""0.679"",""0.918""]","[0,1,1,1]",0,10,10,10,1,0,1,,,0,FALSE,,,,,,,,,,,,,,,,,,,,,,,,,,,,,,,
,5f6ce3aa36f6181177e93f0f,001,2022-04-29_03h10.10.909,classification_task,2021.2.3,Win32,59.49193884,5f6ce3aa36f6181177e93f0f,626b377229c10585ec392f8a,626b3ac19ff929ac14250572,,,,,,,,,,,,,,,,,,,,,,,,0,,"[""0.257"",""0.793"",""0.871"",""0.974""]","[1,0,1,1]",0,11,11,11,1,0,0,,,0,FALSE,,,,,,,,,,,,,,,,,,,,,,,,,,,,,,,
,5f6ce3aa36f6181177e93f0f,001,2022-04-29_03h10.10.909,classification_task,2021.2.3,Win32,59.49193884,5f6ce3aa36f6181177e93f0f,626b377229c10585ec392f8a,626b3ac19ff929ac14250572,,,,,,,,,,,,,,,,,,,,,,,l,1,3.8202,"[""0.029"",""0.507"",""0.438"",""0.758""]","[1,0,1,1]",0,12,12,12,1,1,1,,,0,FALSE,,,,,,,,,,,,,,,,,,,,,,,,,,,,,,,
,5f6ce3aa36f6181177e93f0f,001,2022-04-29_03h10.10.909,classification_task,2021.2.3,Win32,59.49193884,5f6ce3aa36f6181177e93f0f,626b377229c10585ec392f8a,626b3ac19ff929ac14250572,,,,,,,,,,,,,,,,,,,,,,,a,1,8.109,"[""0.715"",""0.362"",""0.871"",""0.974""]","[0,1,1,1]",0,13,13,13,1,0,0,,,0,FALSE,,,,,,,,,,,,,,,,,,,,,,,,,,,,,,,
,5f6ce3aa36f6181177e93f0f,001,2022-04-29_03h10.10.909,classification_task,2021.2.3,Win32,59.49193884,5f6ce3aa36f6181177e93f0f,626b377229c10585ec392f8a,626b3ac19ff929ac14250572,,,,,,,,,,,,,,,,,,,,,,,a,1,3.0396,"[""0.257"",""0.362"",""0.871"",""0.793""]","[1,1,1,0]",0,14,14,14,1,0,0,,,0,FALSE,,,,,,,,,,,,,,,,,,,,,,,,,,,,,,,
,5f6ce3aa36f6181177e93f0f,001,2022-04-29_03h10.10.909,classification_task,2021.2.3,Win32,59.49193884,5f6ce3aa36f6181177e93f0f,626b377229c10585ec392f8a,626b3ac19ff929ac14250572,,,,,,,,,,,,,,,,,,,,,,,l,1,3.2633,"[""0.102"",""0.292"",""0.608"",""0.715""]","[1,1,1,0]",0,15,15,15,1,1,0,,,0,FALSE,,,,,,,,,,,,,,,,,,,,,,,,,,,,,,,
,5f6ce3aa36f6181177e93f0f,001,2022-04-29_03h10.10.909,classification_task,2021.2.3,Win32,59.49193884,5f6ce3aa36f6181177e93f0f,626b377229c10585ec392f8a,626b3ac19ff929ac14250572,,,,,,,,,,,,,,,,,,,,,,,,0,,"[""0.510"",""0.292"",""0.608"",""0.828""]","[0,1,1,1]",0,16,16,16,1,1,0,,,0,FALSE,,,,,,,,,,,,,,,,,,,,,,,,,,,,,,,
,5f6ce3aa36f6181177e93f0f,001,2022-04-29_03h10.10.909,classification_task,2021.2.3,Win32,59.49193884,5f6ce3aa36f6181177e93f0f,626b377229c10585ec392f8a,626b3ac19ff929ac14250572,,,,,,,,,,,,,,,,,,,,,,,l,1,7.0249,"[""0.507"",""0.162"",""0.438"",""0.758""]","[0,1,1,1]",0,17,17,17,1,1,1,,,0,FALSE,,,,,,,,,,,,,,,,,,,,,,,,,,,,,,,
,5f6ce3aa36f6181177e93f0f,001,2022-04-29_03h10.10.909,classification_task,2021.2.3,Win32,59.49193884,5f6ce3aa36f6181177e93f0f,626b377229c10585ec392f8a,626b3ac19ff929ac14250572,,,,,,,,,,,,,,,,,,,,,,,a,1,4.2629,"[""0.715"",""0.555"",""0.679"",""0.918""]","[0,1,1,1]",0,18,18,18,1,0,1,,,0,FALSE,,,,,,,,,,,,,,,,,,,,,,,,,,,,,,,
,5f6ce3aa36f6181177e93f0f,001,2022-04-29_03h10.10.909,classification_task,2021.2.3,Win32,59.49193884,5f6ce3aa36f6181177e93f0f,626b377229c10585ec392f8a,626b3ac19ff929ac14250572,,,,,,,,,,,,,,,,,,,,,,,l,1,2.9585,"[""0.102"",""0.793"",""0.608"",""0.828""]","[1,0,1,1]",0,19,19,19,1,1,0,,,0,FALSE,,,,,,,,,,,,,,,,,,,,,,,,,,,,,,,
,5f6ce3aa36f6181177e93f0f,001,2022-04-29_03h10.10.909,classification_task,2021.2.3,Win32,59.49193884,5f6ce3aa36f6181177e93f0f,626b377229c10585ec392f8a,626b3ac19ff929ac14250572,,,,,,,,,,,,,,,,,,,,,,,a,1,4.6493,"[""0.257"",""0.362"",""0.871"",""0.477""]","[1,1,1,0]",0,20,20,20,1,0,0,,,0,FALSE,,,,,,,,,,,,,,,,,,,,,,,,,,,,,,,
,5f6ce3aa36f6181177e93f0f,001,2022-04-29_03h10.10.909,classification_task,2021.2.3,Win32,59.49193884,5f6ce3aa36f6181177e93f0f,626b377229c10585ec392f8a,626b3ac19ff929ac14250572,,,,,,,,,,,,,,,,,,,,,,,a,0,7.6991,"[""0.029"",""0.162"",""0.644"",""0.758""]","[1,1,0,1]",0,21,21,21,1,1,1,,,0,FALSE,,,,,,,,,,,,,,,,,,,,,,,,,,,,,,,
,5f6ce3aa36f6181177e93f0f,001,2022-04-29_03h10.10.909,classification_task,2021.2.3,Win32,59.49193884,5f6ce3aa36f6181177e93f0f,626b377229c10585ec392f8a,626b3ac19ff929ac14250572,,,,,,,,,,,,,,,,,,,,,,,a,1,2.5625,"[""0.213"",""0.555"",""0.679"",""0.644""]","[1,1,1,0]",0,22,22,22,1,0,1,,,0,FALSE,,,,,,,,,,,,,,,,,,,,,,,,,,,,,,,
,5f6ce3aa36f6181177e93f0f,001,2022-04-29_03h10.10.909,classification_task,2021.2.3,Win32,59.49193884,5f6ce3aa36f6181177e93f0f,626b377229c10585ec392f8a,626b3ac19ff929ac14250572,,,,,,,,,,,,,,,,,,,,,,,l,1,3.3869,"[""0.102"",""0.292"",""0.505"",""0.828""]","[1,1,0,1]",0,23,23,23,1,1,0,,,0,FALSE,,,,,,,,,,,,,,,,,,,,,,,,,,,,,,,
,5f6ce3aa36f6181177e93f0f,001,2022-04-29_03h10.10.909,classification_task,2021.2.3,Win32,59.49193884,5f6ce3aa36f6181177e93f0f,626b377229c10585ec392f8a,626b3ac19ff929ac14250572,,,,,,,,,,,,,,,,,,,,,,,a,1,5.4619,"[""0.257"",""0.509"",""0.871"",""0.974""]","[1,0,1,1]",0,24,24,24,1,0,0,,,0,FALSE,,,,,,,,,,,,,,,,,,,,,,,,,,,,,,,
,5f6ce3aa36f6181177e93f0f,001,2022-04-29_03h10.10.909,classification_task,2021.2.3,Win32,59.49193884,5f6ce3aa36f6181177e93f0f,626b377229c10585ec392f8a,626b3ac19ff929ac14250572,,,,,,,,,,,,,,,,,,,,,,,a,1,6.9444,"[""0.715"",""0.362"",""0.871"",""0.974""]","[0,1,1,1]",0,25,25,25,1,0,0,,,0,FALSE,,,,,,,,,,,,,,,,,,,,,,,,,,,,,,,
,5f6ce3aa36f6181177e93f0f,001,2022-04-29_03h10.10.909,classification_task,2021.2.3,Win32,59.49193884,5f6ce3aa36f6181177e93f0f,626b377229c10585ec392f8a,626b3ac19ff929ac14250572,,,,,,,,,,,,,,,,,,,,,,,l,1,2.5016,"[""0.102"",""0.292"",""0.608"",""0.793""]","[1,1,1,0]",0,26,26,26,1,1,0,,,0,FALSE,,,,,,,,,,,,,,,,,,,,,,,,,,,,,,,
,5f6ce3aa36f6181177e93f0f,001,2022-04-29_03h10.10.909,classification_task,2021.2.3,Win32,59.49193884,5f6ce3aa36f6181177e93f0f,626b377229c10585ec392f8a,626b3ac19ff929ac14250572,,,,,,,,,,,,,,,,,,,,,,,l,1,4.1306,"[""0.029"",""0.162"",""0.438"",""0.644""]","[1,1,1,0]",0,27,27,27,1,1,1,,,0,FALSE,,,,,,,,,,,,,,,,,,,,,,,,,,,,,,,
,5f6ce3aa36f6181177e93f0f,001,2022-04-29_03h10.10.909,classification_task,2021.2.3,Win32,59.49193884,5f6ce3aa36f6181177e93f0f,626b377229c10585ec392f8a,626b3ac19ff929ac14250572,,,,,,,,,,,,,,,,,,,,,,,l,1,2.5815,"[""0.029"",""0.793"",""0.438"",""0.758""]","[1,0,1,1]",0,28,28,28,1,1,1,,,0,FALSE,,,,,,,,,,,,,,,,,,,,,,,,,,,,,,,
,5f6ce3aa36f6181177e93f0f,001,2022-04-29_03h10.10.909,classification_task,2021.2.3,Win32,59.49193884,5f6ce3aa36f6181177e93f0f,626b377229c10585ec392f8a,626b3ac19ff929ac14250572,,,,,,,,,,,,,,,,,,,,,,,a,1,2.8686,"[""0.213"",""0.555"",""0.715"",""0.918""]","[1,1,0,1]",0,29,29,29,1,0,1,,,0,FALSE,,,,,,,,,,,,,,,,,,,,,,,,,,,,,,,
,5f6ce3aa36f6181177e93f0f,001,2022-04-29_03h10.10.909,classification_task,2021.2.3,Win32,59.49193884,5f6ce3aa36f6181177e93f0f,626b377229c10585ec392f8a,626b3ac19ff929ac14250572,,,,,,,,,,,,,,,,,,,,,,,a,1,4.9613,"[""0.257"",""0.362"",""0.400"",""0.974""]","[1,1,0,1]",0,30,30,30,1,0,0,,,0,FALSE,,,,,,,,,,,,,,,,,,,,,,,,,,,,,,,
,5f6ce3aa36f6181177e93f0f,001,2022-04-29_03h10.10.909,classification_task,2021.2.3,Win32,59.49193884,5f6ce3aa36f6181177e93f0f,626b377229c10585ec392f8a,626b3ac19ff929ac14250572,,,,,,,,,,,,,,,,,,,,,,,l,0,3.6206,"[""0.213"",""0.067"",""0.679"",""0.918""]","[1,0,1,1]",0,31,31,31,1,0,1,,,0,FALSE,,,,,,,,,,,,,,,,,,,,,,,,,,,,,,,
,5f6ce3aa36f6181177e93f0f,001,2022-04-29_03h10.10.909,classification_task,2021.2.3,Win32,59.49193884,5f6ce3aa36f6181177e93f0f,626b377229c10585ec392f8a,626b3ac19ff929ac14250572,,,,,,,,,,,,,,,,,,,,,,,l,0,5.266,"[""0.257"",""0.362"",""0.871"",""0.793""]","[1,1,1,0]",0,32,32,32,1,0,0,,,0,FALSE,,,,,,,,,,,,,,,,,,,,,,,,,,,,,,,
,5f6ce3aa36f6181177e93f0f,001,2022-04-29_03h10.10.909,classification_task,2021.2.3,Win32,59.49193884,5f6ce3aa36f6181177e93f0f,626b377229c10585ec392f8a,626b3ac19ff929ac14250572,,,,,,,,,,,,,,,,,,,,,,,a,0,1.5256,"[""0.102"",""0.067"",""0.608"",""0.828""]","[1,0,1,1]",0,33,33,33,1,1,0,,,0,FALSE,,,,,,,,,,,,,,,,,,,,,,,,,,,,,,,
,5f6ce3aa36f6181177e93f0f,001,2022-04-29_03h10.10.909,classification_task,2021.2.3,Win32,59.49193884,5f6ce3aa36f6181177e93f0f,626b377229c10585ec392f8a,626b3ac19ff929ac14250572,,,,,,,,,,,,,,,,,,,,,,,a,1,2.5945,"[""0.257"",""0.326"",""0.871"",""0.974""]","[1,0,1,1]",0,34,34,34,1,0,0,,,0,FALSE,,,,,,,,,,,,,,,,,,,,,,,,,,,,,,,
,5f6ce3aa36f6181177e93f0f,001,2022-04-29_03h10.10.909,classification_task,2021.2.3,Win32,59.49193884,5f6ce3aa36f6181177e93f0f,626b377229c10585ec392f8a,626b3ac19ff929ac14250572,,,,,,,,,,,,,,,,,,,,,,,a,0,1.3444,"[""0.102"",""0.292"",""0.608"",""0.505""]","[1,1,1,0]",0,35,35,35,1,1,0,,,0,FALSE,,,,,,,,,,,,,,,,,,,,,,,,,,,,,,,
,5f6ce3aa36f6181177e93f0f,001,2022-04-29_03h10.10.909,classification_task,2021.2.3,Win32,59.49193884,5f6ce3aa36f6181177e93f0f,626b377229c10585ec392f8a,626b3ac19ff929ac14250572,,,,,,,,,,,,,,,,,,,,,,,l,0,0.9181,"[""0.257"",""0.362"",""0.475"",""0.974""]","[1,1,0,1]",0,36,36,36,1,0,0,,,0,FALSE,,,,,,,,,,,,,,,,,,,,,,,,,,,,,,,
,5f6ce3aa36f6181177e93f0f,001,2022-04-29_03h10.10.909,classification_task,2021.2.3,Win32,59.49193884,5f6ce3aa36f6181177e93f0f,626b377229c10585ec392f8a,626b3ac19ff929ac14250572,,,,,,,,,,,,,,,,,,,,,,,a,1,1.5429,"[""0.213"",""0.555"",""0.679"",""0.715""]","[1,1,1,0]",0,37,37,37,1,0,1,,,0,FALSE,,,,,,,,,,,,,,,,,,,,,,,,,,,,,,,
,5f6ce3aa36f6181177e93f0f,001,2022-04-29_03h10.10.909,classification_task,2021.2.3,Win32,59.49193884,5f6ce3aa36f6181177e93f0f,626b377229c10585ec392f8a,626b3ac19ff929ac14250572,,,,,,,,,,,,,,,,,,,,,,,l,1,1.7269,"[""0.029"",""0.162"",""0.505"",""0.758""]","[1,1,0,1]",0,38,38,38,1,1,1,,,0,FALSE,,,,,,,,,,,,,,,,,,,,,,,,,,,,,,,
,5f6ce3aa36f6181177e93f0f,001,2022-04-29_03h10.10.909,classification_task,2021.2.3,Win32,59.49193884,5f6ce3aa36f6181177e93f0f,626b377229c10585ec392f8a,626b3ac19ff929ac14250572,,,,,,,,,,,,,,,,,,,,,,,a,1,1.8917,"[""0.715"",""0.362"",""0.871"",""0.974""]","[0,1,1,1]",0,39,39,39,1,0,0,,,0,FALSE,,,,,,,,,,,,,,,,,,,,,,,,,,,,,,,
,5f6ce3aa36f6181177e93f0f,001,2022-04-29_03h10.10.909,classification_task,2021.2.3,Win32,59.49193884,5f6ce3aa36f6181177e93f0f,626b377229c10585ec392f8a,626b3ac19ff929ac14250572,,,,,,,,,,,,,,,,,,,,,,,l,0,3.179,"[""0.213"",""0.555"",""0.507"",""0.918""]","[1,1,0,1]",0,40,40,40,1,0,1,,,0,FALSE,,,,,,,,,,,,,,,,,,,,,,,,,,,,,,,
,5f6ce3aa36f6181177e93f0f,001,2022-04-29_03h10.10.909,classification_task,2021.2.3,Win32,59.49193884,5f6ce3aa36f6181177e93f0f,626b377229c10585ec392f8a,626b3ac19ff929ac14250572,,,,,,,,,,,,,,,,,,,,,,,a,1,1.2452,"[""0.213"",""0.326"",""0.679"",""0.918""]","[1,0,1,1]",0,41,41,41,1,0,1,,,0,FALSE,,,,,,,,,,,,,,,,,,,,,,,,,,,,,,,
,5f6ce3aa36f6181177e93f0f,001,2022-04-29_03h10.10.909,classification_task,2021.2.3,Win32,59.49193884,5f6ce3aa36f6181177e93f0f,626b377229c10585ec392f8a,626b3ac19ff929ac14250572,,,,,,,,,,,,,,,,,,,,,,,l,1,1.6153,"[""0.715"",""0.292"",""0.608"",""0.828""]","[0,1,1,1]",0,42,42,42,1,1,0,,,0,FALSE,,,,,,,,,,,,,,,,,,,,,,,,,,,,,,,
,5f6ce3aa36f6181177e93f0f,001,2022-04-29_03h10.10.909,classification_task,2021.2.3,Win32,59.49193884,5f6ce3aa36f6181177e93f0f,626b377229c10585ec392f8a,626b3ac19ff929ac14250572,,,,,,,,,,,,,,,,,,,,,,,l,1,1.0966,"[""0.029"",""0.162"",""0.438"",""0.509""]","[1,1,1,0]",0,43,43,43,1,1,1,,,0,FALSE,,,,,,,,,,,,,,,,,,,,,,,,,,,,,,,
,5f6ce3aa36f6181177e93f0f,001,2022-04-29_03h10.10.909,classification_task,2021.2.3,Win32,59.49193884,5f6ce3aa36f6181177e93f0f,626b377229c10585ec392f8a,626b3ac19ff929ac14250572,,,,,,,,,,,,,,,,,,,,,,,l,0,1.8488,"[""0.505"",""0.555"",""0.679"",""0.918""]","[0,1,1,1]",0,44,44,44,1,0,1,,,0,FALSE,,,,,,,,,,,,,,,,,,,,,,,,,,,,,,,
,5f6ce3aa36f6181177e93f0f,001,2022-04-29_03h10.10.909,classification_task,2021.2.3,Win32,59.49193884,5f6ce3aa36f6181177e93f0f,626b377229c10585ec392f8a,626b3ac19ff929ac14250572,,,,,,,,,,,,,,,,,,,,,,,l,1,1.3648,"[""0.102"",""0.292"",""0.477"",""0.828""]","[1,1,0,1]",0,45,45,45,1,1,0,,,0,FALSE,,,,,,,,,,,,,,,,,,,,,,,,,,,,,,,
,5f6ce3aa36f6181177e93f0f,001,2022-04-29_03h10.10.909,classification_task,2021.2.3,Win32,59.49193884,5f6ce3aa36f6181177e93f0f,626b377229c10585ec392f8a,626b3ac19ff929ac14250572,,,,,,,,,,,,,,,,,,,,,,,a,0,0.9545,"[""0.507"",""0.162"",""0.438"",""0.758""]","[0,1,1,1]",0,46,46,46,1,1,1,,,0,FALSE,,,,,,,,,,,,,,,,,,,,,,,,,,,,,,,
,5f6ce3aa36f6181177e93f0f,001,2022-04-29_03h10.10.909,classification_task,2021.2.3,Win32,59.49193884,5f6ce3aa36f6181177e93f0f,626b377229c10585ec392f8a,626b3ac19ff929ac14250572,,,,,,,,,,,,,,,,,,,,,,,l,1,0.8007,"[""0.029"",""0.715"",""0.438"",""0.758""]","[1,0,1,1]",0,47,47,47,1,1,1,,,0,FALSE,,,,,,,,,,,,,,,,,,,,,,,,,,,,,,,
,5f6ce3aa36f6181177e93f0f,001,2022-04-29_03h10.10.909,classification_task,2021.2.3,Win32,59.49193884,5f6ce3aa36f6181177e93f0f,626b377229c10585ec392f8a,626b3ac19ff929ac14250572,,,,,,,,,,,,,,,,,,,,,,,l,0,0.9388,"[""0.510"",""0.555"",""0.679"",""0.918""]","[0,1,1,1]",0,48,48,48,1,0,1,,,0,FALSE,,,,,,,,,,,,,,,,,,,,,,,,,,,,,,,
,5f6ce3aa36f6181177e93f0f,001,2022-04-29_03h10.10.909,classification_task,2021.2.3,Win32,59.49193884,5f6ce3aa36f6181177e93f0f,626b377229c10585ec392f8a,626b3ac19ff929ac14250572,,,,,,,,,,,,,,,,,,,,,,,l,1,0.7408,"[""0.029"",""0.162"",""0.715"",""0.758""]","[1,1,0,1]",0,49,49,49,1,1,1,,,0,FALSE,,,,,,,,,,,,,,,,,,,,,,,,,,,,,,,
,5f6ce3aa36f6181177e93f0f,001,2022-04-29_03h10.10.909,classification_task,2021.2.3,Win32,59.49193884,5f6ce3aa36f6181177e93f0f,626b377229c10585ec392f8a,626b3ac19ff929ac14250572,,,,,,,,,,,,,,,,,,,,,,,l,0,0.9863,"[""0.257"",""0.362"",""0.871"",""0.477""]","[1,1,1,0]",0,50,50,50,1,0,0,,,0,FALSE,,,,,,,,,,,,,,,,,,,,,,,,,,,,,,,
,5f6ce3aa36f6181177e93f0f,001,2022-04-29_03h10.10.909,classification_task,2021.2.3,Win32,59.49193884,5f6ce3aa36f6181177e93f0f,626b377229c10585ec392f8a,626b3ac19ff929ac14250572,,,,,,,,,,,,,,,,,,,,,,,l,1,1.0413,"[""0.102"",""0.793"",""0.608"",""0.828""]","[1,0,1,1]",0,51,51,51,1,1,0,,,0,FALSE,,,,,,,,,,,,,,,,,,,,,,,,,,,,,,,
,5f6ce3aa36f6181177e93f0f,001,2022-04-29_03h10.10.909,classification_task,2021.2.3,Win32,59.49193884,5f6ce3aa36f6181177e93f0f,626b377229c10585ec392f8a,626b3ac19ff929ac14250572,,,,,,,,,,,,,,,,,,,,,,,l,1,0.7692,"[""0.029"",""0.510"",""0.438"",""0.758""]","[1,0,1,1]",0,52,52,52,1,1,1,,,0,FALSE,,,,,,,,,,,,,,,,,,,,,,,,,,,,,,,
,5f6ce3aa36f6181177e93f0f,001,2022-04-29_03h10.10.909,classification_task,2021.2.3,Win32,59.49193884,5f6ce3aa36f6181177e93f0f,626b377229c10585ec392f8a,626b3ac19ff929ac14250572,,,,,,,,,,,,,,,,,,,,,,,l,0,0.6096,"[""0.257"",""0.715"",""0.871"",""0.974""]","[1,0,1,1]",0,53,53,53,1,0,0,,,0,FALSE,,,,,,,,,,,,,,,,,,,,,,,,,,,,,,,
,5f6ce3aa36f6181177e93f0f,001,2022-04-29_03h10.10.909,classification_task,2021.2.3,Win32,59.49193884,5f6ce3aa36f6181177e93f0f,626b377229c10585ec392f8a,626b3ac19ff929ac14250572,,,,,,,,,,,,,,,,,,,,,,,a,1,2.7073,"[""0.213"",""0.555"",""0.715"",""0.918""]","[1,1,0,1]",0,54,54,54,1,0,1,,,0,FALSE,,,,,,,,,,,,,,,,,,,,,,,,,,,,,,,
,5f6ce3aa36f6181177e93f0f,001,2022-04-29_03h10.10.909,classification_task,2021.2.3,Win32,59.49193884,5f6ce3aa36f6181177e93f0f,626b377229c10585ec392f8a,626b3ac19ff929ac14250572,,,,,,,,,,,,,,,,,,,,,,,l,1,1.0789,"[""0.067"",""0.292"",""0.608"",""0.828""]","[0,1,1,1]",0,55,55,55,1,1,0,,,0,FALSE,,,,,,,,,,,,,,,,,,,,,,,,,,,,,,,
,5f6ce3aa36f6181177e93f0f,001,2022-04-29_03h10.10.909,classification_task,2021.2.3,Win32,59.49193884,5f6ce3aa36f6181177e93f0f,626b377229c10585ec392f8a,626b3ac19ff929ac14250572,,,,,,,,,,,,,,,,,,,,,,,l,1,1.1669,"[""0.029"",""0.162"",""0.438"",""0.505""]","[1,1,1,0]",0,56,56,56,1,1,1,,,0,FALSE,,,,,,,,,,,,,,,,,,,,,,,,,,,,,,,
,5f6ce3aa36f6181177e93f0f,001,2022-04-29_03h10.10.909,classification_task,2021.2.3,Win32,59.49193884,5f6ce3aa36f6181177e93f0f,626b377229c10585ec392f8a,626b3ac19ff929ac14250572,,,,,,,,,,,,,,,,,,,,,,,a,1,0.6604,"[""0.213"",""0.509"",""0.679"",""0.918""]","[1,0,1,1]",0,57,57,57,1,0,1,,,0,FALSE,,,,,,,,,,,,,,,,,,,,,,,,,,,,,,,
,5f6ce3aa36f6181177e93f0f,001,2022-04-29_03h10.10.909,classification_task,2021.2.3,Win32,59.49193884,5f6ce3aa36f6181177e93f0f,626b377229c10585ec392f8a,626b3ac19ff929ac14250572,,,,,,,,,,,,,,,,,,,,,,,l,1,0.7536,"[""0.102"",""0.292"",""0.608"",""0.507""]","[1,1,1,0]",0,58,58,58,1,1,0,,,0,FALSE,,,,,,,,,,,,,,,,,,,,,,,,,,,,,,,
,5f6ce3aa36f6181177e93f0f,001,2022-04-29_03h10.10.909,classification_task,2021.2.3,Win32,59.49193884,5f6ce3aa36f6181177e93f0f,626b377229c10585ec392f8a,626b3ac19ff929ac14250572,,,,,,,,,,,,,,,,,,,,,,,l,0,1.6064,"[""0.213"",""0.555"",""0.679"",""0.505""]","[1,1,1,0]",0,59,59,59,1,0,1,,,0,FALSE,,,,,,,,,,,,,,,,,,,,,,,,,,,,,,,
,5f6ce3aa36f6181177e93f0f,001,2022-04-29_03h10.10.909,classification_task,2021.2.3,Win32,59.49193884,5f6ce3aa36f6181177e93f0f,626b377229c10585ec392f8a,626b3ac19ff929ac14250572,,,,,,,,,,,,,,,,,,,,,,,l,0,1.6767,"[""0.257"",""0.362"",""0.477"",""0.974""]","[1,1,0,1]",0,60,60,60,1,0,0,,,0,FALSE,,,,,,,,,,,,,,,,,,,,,,,,,,,,,,,
,5f6ce3aa36f6181177e93f0f,001,2022-04-29_03h10.10.909,classification_task,2021.2.3,Win32,59.49193884,5f6ce3aa36f6181177e93f0f,626b377229c10585ec392f8a,626b3ac19ff929ac14250572,,,,,,,,,,,,,,,,,,,,,,,a,1,2.5351,"[""0.510"",""0.362"",""0.871"",""0.974""]","[0,1,1,1]",0,61,61,61,1,0,0,,,0,FALSE,,,,,,,,,,,,,,,,,,,,,,,,,,,,,,,
,5f6ce3aa36f6181177e93f0f,001,2022-04-29_03h10.10.909,classification_task,2021.2.3,Win32,59.49193884,5f6ce3aa36f6181177e93f0f,626b377229c10585ec392f8a,626b3ac19ff929ac14250572,,,,,,,,,,,,,,,,,,,,,,,l,1,1.1285,"[""0.067"",""0.162"",""0.438"",""0.758""]","[0,1,1,1]",0,62,62,62,1,1,1,,,0,FALSE,,,,,,,,,,,,,,,,,,,,,,,,,,,,,,,
,5f6ce3aa36f6181177e93f0f,001,2022-04-29_03h10.10.909,classification_task,2021.2.3,Win32,59.49193884,5f6ce3aa36f6181177e93f0f,626b377229c10585ec392f8a,626b3ac19ff929ac14250572,,,,,,,,,,,,,,,,,,,,,,,a,0,0.8285,"[""0.102"",""0.292"",""0.475"",""0.828""]","[1,1,0,1]",0,63,63,63,1,1,0,,,0,FALSE,,,,,,,,,,,,,,,,,,,,,,,,,,,,,,,
,5f6ce3aa36f6181177e93f0f,001,2022-04-29_03h10.10.909,classification_task,2021.2.3,Win32,59.49193884,5f6ce3aa36f6181177e93f0f,626b377229c10585ec392f8a,626b3ac19ff929ac14250572,,,,,,,,,,,,,,,,,,,,,,,,,,,,,,,,,,,,,,,0, ,,0,4.018224979,361.3809,0,0,0,0,1,2,1,,,,,,,,,,,,,,,,,,
,5f6ce3aa36f6181177e93f0f,001,2022-04-29_03h10.10.909,classification_task,2021.2.3,Win32,59.49193884,5f6ce3aa36f6181177e93f0f,626b377229c10585ec392f8a,626b3ac19ff929ac14250572,,,,,,,,,,,,,,,,,,,,,,,,,,,,,,,,,,,,,,,1,  ,,0,6.669463675,365.9051,0,0,0,0,1,2,1,,,,,,,,,,,,,,,,,,
,5f6ce3aa36f6181177e93f0f,001,2022-04-29_03h10.10.909,classification_task,2021.2.3,Win32,59.49193884,5f6ce3aa36f6181177e93f0f,626b377229c10585ec392f8a,626b3ac19ff929ac14250572,,,,,,,,,,,,,,,,,,,,,,,,,,,,,,,,,,,,,,,2,  ,,0,2.572094782,370.3863,0,0,0,0,1,2,1,,,,,,,,,,,,,,,,,,
,5f6ce3aa36f6181177e93f0f,001,2022-04-29_03h10.10.909,classification_task,2021.2.3,Win32,59.49193884,5f6ce3aa36f6181177e93f0f,626b377229c10585ec392f8a,626b3ac19ff929ac14250572,,,,,,,,,,,,,,,,,,,,,,,,,,,,,,,,,,,,,,,,,,,,,0,0,0,0,1,,1,,,,,,,,,,,,,,,,,,
,5f6ce3aa36f6181177e93f0f,001,2022-04-29_03h10.10.909,classification_task,2021.2.3,Win32,59.49193884,5f6ce3aa36f6181177e93f0f,626b377229c10585ec392f8a,626b3ac19ff929ac14250572,,,,,,,,,,,,,,,,,,,,,space,5.3471,l,0,5.2303,"[""0.067"",""0.362"",""0.871"",""0.974""]","[0,1,1,1]",0,0,0,0,1,0,0,,,0,FALSE,,,,,,,,,,,,,,,,,,,,,,,,,,,,,,,
,5f6ce3aa36f6181177e93f0f,001,2022-04-29_03h10.10.909,classification_task,2021.2.3,Win32,59.49193884,5f6ce3aa36f6181177e93f0f,626b377229c10585ec392f8a,626b3ac19ff929ac14250572,,,,,,,,,,,,,,,,,,,,,,,a,1,1.5766,"[""0.257"",""0.362"",""0.871"",""0.715""]","[1,1,1,0]",0,1,1,1,1,0,0,,,0,FALSE,,,,,,,,,,,,,,,,,,,,,,,,,,,,,,,
,5f6ce3aa36f6181177e93f0f,001,2022-04-29_03h10.10.909,classification_task,2021.2.3,Win32,59.49193884,5f6ce3aa36f6181177e93f0f,626b377229c10585ec392f8a,626b3ac19ff929ac14250572,,,,,,,,,,,,,,,,,,,,,,,l,1,0.9239,"[""0.029"",""0.162"",""0.438"",""0.509""]","[1,1,1,0]",0,2,2,2,1,1,1,,,0,FALSE,,,,,,,,,,,,,,,,,,,,,,,,,,,,,,,
,5f6ce3aa36f6181177e93f0f,001,2022-04-29_03h10.10.909,classification_task,2021.2.3,Win32,59.49193884,5f6ce3aa36f6181177e93f0f,626b377229c10585ec392f8a,626b3ac19ff929ac14250572,,,,,,,,,,,,,,,,,,,,,,,a,0,0.6846,"[""0.510"",""0.292"",""0.608"",""0.828""]","[0,1,1,1]",0,3,3,3,1,1,0,,,0,FALSE,,,,,,,,,,,,,,,,,,,,,,,,,,,,,,,
,5f6ce3aa36f6181177e93f0f,001,2022-04-29_03h10.10.909,classification_task,2021.2.3,Win32,59.49193884,5f6ce3aa36f6181177e93f0f,626b377229c10585ec392f8a,626b3ac19ff929ac14250572,,,,,,,,,,,,,,,,,,,,,,,l,0,0.8091,"[""0.257"",""0.715"",""0.871"",""0.974""]","[1,0,1,1]",0,4,4,4,1,0,0,,,0,FALSE,,,,,,,,,,,,,,,,,,,,,,,,,,,,,,,
,5f6ce3aa36f6181177e93f0f,001,2022-04-29_03h10.10.909,classification_task,2021.2.3,Win32,59.49193884,5f6ce3aa36f6181177e93f0f,626b377229c10585ec392f8a,626b3ac19ff929ac14250572,,,,,,,,,,,,,,,,,,,,,,,a,1,1.1419,"[""0.213"",""0.507"",""0.679"",""0.918""]","[1,0,1,1]",0,5,5,5,1,0,1,,,0,FALSE,,,,,,,,,,,,,,,,,,,,,,,,,,,,,,,
,5f6ce3aa36f6181177e93f0f,001,2022-04-29_03h10.10.909,classification_task,2021.2.3,Win32,59.49193884,5f6ce3aa36f6181177e93f0f,626b377229c10585ec392f8a,626b3ac19ff929ac14250572,,,,,,,,,,,,,,,,,,,,,,,l,0,0.977,"[""0.475"",""0.555"",""0.679"",""0.918""]","[0,1,1,1]",0,6,6,6,1,0,1,,,0,FALSE,,,,,,,,,,,,,,,,,,,,,,,,,,,,,,,
,5f6ce3aa36f6181177e93f0f,001,2022-04-29_03h10.10.909,classification_task,2021.2.3,Win32,59.49193884,5f6ce3aa36f6181177e93f0f,626b377229c10585ec392f8a,626b3ac19ff929ac14250572,,,,,,,,,,,,,,,,,,,,,,,l,1,1.2773,"[""0.793"",""0.162"",""0.438"",""0.758""]","[0,1,1,1]",0,7,7,7,1,1,1,,,0,FALSE,,,,,,,,,,,,,,,,,,,,,,,,,,,,,,,
,5f6ce3aa36f6181177e93f0f,001,2022-04-29_03h10.10.909,classification_task,2021.2.3,Win32,59.49193884,5f6ce3aa36f6181177e93f0f,626b377229c10585ec392f8a,626b3ac19ff929ac14250572,,,,,,,,,,,,,,,,,,,,,,,a,0,0.8917,"[""0.102"",""0.644"",""0.608"",""0.828""]","[1,0,1,1]",0,8,8,8,1,1,0,,,0,FALSE,,,,,,,,,,,,,,,,,,,,,,,,,,,,,,,
,5f6ce3aa36f6181177e93f0f,001,2022-04-29_03h10.10.909,classification_task,2021.2.3,Win32,59.49193884,5f6ce3aa36f6181177e93f0f,626b377229c10585ec392f8a,626b3ac19ff929ac14250572,,,,,,,,,,,,,,,,,,,,,,,a,0,0.9741,"[""0.029"",""0.162"",""0.326"",""0.758""]","[1,1,0,1]",0,9,9,9,1,1,1,,,0,FALSE,,,,,,,,,,,,,,,,,,,,,,,,,,,,,,,
,5f6ce3aa36f6181177e93f0f,001,2022-04-29_03h10.10.909,classification_task,2021.2.3,Win32,59.49193884,5f6ce3aa36f6181177e93f0f,626b377229c10585ec392f8a,626b3ac19ff929ac14250572,,,,,,,,,,,,,,,,,,,,,,,l,0,0.6125,"[""0.213"",""0.555"",""0.679"",""0.475""]","[1,1,1,0]",0,10,10,10,1,0,1,,,0,FALSE,,,,,,,,,,,,,,,,,,,,,,,,,,,,,,,
,5f6ce3aa36f6181177e93f0f,001,2022-04-29_03h10.10.909,classification_task,2021.2.3,Win32,59.49193884,5f6ce3aa36f6181177e93f0f,626b377229c10585ec392f8a,626b3ac19ff929ac14250572,,,,,,,,,,,,,,,,,,,,,,,a,1,1.1183,"[""0.257"",""0.362"",""0.326"",""0.974""]","[1,1,0,1]",0,11,11,11,1,0,0,,,0,FALSE,,,,,,,,,,,,,,,,,,,,,,,,,,,,,,,
,5f6ce3aa36f6181177e93f0f,001,2022-04-29_03h10.10.909,classification_task,2021.2.3,Win32,59.49193884,5f6ce3aa36f6181177e93f0f,626b377229c10585ec392f8a,626b3ac19ff929ac14250572,,,,,,,,,,,,,,,,,,,,,,,l,0,3.3358,"[""0.213"",""0.555"",""0.510"",""0.918""]","[1,1,0,1]",0,12,12,12,1,0,1,,,0,FALSE,,,,,,,,,,,,,,,,,,,,,,,,,,,,,,,
,5f6ce3aa36f6181177e93f0f,001,2022-04-29_03h10.10.909,classification_task,2021.2.3,Win32,59.49193884,5f6ce3aa36f6181177e93f0f,626b377229c10585ec392f8a,626b3ac19ff929ac14250572,,,,,,,,,,,,,,,,,,,,,,,l,1,0.905,"[""0.102"",""0.292"",""0.644"",""0.828""]","[1,1,0,1]",0,13,13,13,1,1,0,,,0,FALSE,,,,,,,,,,,,,,,,,,,,,,,,,,,,,,,
,5f6ce3aa36f6181177e93f0f,001,2022-04-29_03h10.10.909,classification_task,2021.2.3,Win32,59.49193884,5f6ce3aa36f6181177e93f0f,626b377229c10585ec392f8a,626b3ac19ff929ac14250572,,,,,,,,,,,,,,,,,,,,,,,l,1,0.8572,"[""0.029"",""0.510"",""0.438"",""0.758""]","[1,0,1,1]",0,14,14,14,1,1,1,,,0,FALSE,,,,,,,,,,,,,,,,,,,,,,,,,,,,,,,
,5f6ce3aa36f6181177e93f0f,001,2022-04-29_03h10.10.909,classification_task,2021.2.3,Win32,59.49193884,5f6ce3aa36f6181177e93f0f,626b377229c10585ec392f8a,626b3ac19ff929ac14250572,,,,,,,,,,,,,,,,,,,,,,,l,1,0.9414,"[""0.102"",""0.292"",""0.608"",""0.644""]","[1,1,1,0]",0,15,15,15,1,1,0,,,0,FALSE,,,,,,,,,,,,,,,,,,,,,,,,,,,,,,,
,5f6ce3aa36f6181177e93f0f,001,2022-04-29_03h10.10.909,classification_task,2021.2.3,Win32,59.49193884,5f6ce3aa36f6181177e93f0f,626b377229c10585ec392f8a,626b3ac19ff929ac14250572,,,,,,,,,,,,,,,,,,,,,,,l,0,0.926,"[""0.257"",""0.477"",""0.871"",""0.974""]","[1,0,1,1]",0,16,16,16,1,0,0,,,0,FALSE,,,,,,,,,,,,,,,,,,,,,,,,,,,,,,,
,5f6ce3aa36f6181177e93f0f,001,2022-04-29_03h10.10.909,classification_task,2021.2.3,Win32,59.49193884,5f6ce3aa36f6181177e93f0f,626b377229c10585ec392f8a,626b3ac19ff929ac14250572,,,,,,,,,,,,,,,,,,,,,,,a,1,0.8921,"[""0.213"",""0.555"",""0.679"",""0.509""]","[1,1,1,0]",0,17,17,17,1,0,1,,,0,FALSE,,,,,,,,,,,,,,,,,,,,,,,,,,,,,,,
,5f6ce3aa36f6181177e93f0f,001,2022-04-29_03h10.10.909,classification_task,2021.2.3,Win32,59.49193884,5f6ce3aa36f6181177e93f0f,626b377229c10585ec392f8a,626b3ac19ff929ac14250572,,,,,,,,,,,,,,,,,,,,,,,l,0,0.9022,"[""0.213"",""0.555"",""0.326"",""0.918""]","[1,1,0,1]",0,18,18,18,1,0,1,,,0,FALSE,,,,,,,,,,,,,,,,,,,,,,,,,,,,,,,
,5f6ce3aa36f6181177e93f0f,001,2022-04-29_03h10.10.909,classification_task,2021.2.3,Win32,59.49193884,5f6ce3aa36f6181177e93f0f,626b377229c10585ec392f8a,626b3ac19ff929ac14250572,,,,,,,,,,,,,,,,,,,,,,,l,0,0.5461,"[""0.793"",""0.362"",""0.871"",""0.974""]","[0,1,1,1]",0,19,19,19,1,0,0,,,0,FALSE,,,,,,,,,,,,,,,,,,,,,,,,,,,,,,,
,5f6ce3aa36f6181177e93f0f,001,2022-04-29_03h10.10.909,classification_task,2021.2.3,Win32,59.49193884,5f6ce3aa36f6181177e93f0f,626b377229c10585ec392f8a,626b3ac19ff929ac14250572,,,,,,,,,,,,,,,,,,,,,,,l,0,0.9818,"[""0.257"",""0.362"",""0.475"",""0.974""]","[1,1,0,1]",0,20,20,20,1,0,0,,,0,FALSE,,,,,,,,,,,,,,,,,,,,,,,,,,,,,,,
,5f6ce3aa36f6181177e93f0f,001,2022-04-29_03h10.10.909,classification_task,2021.2.3,Win32,59.49193884,5f6ce3aa36f6181177e93f0f,626b377229c10585ec392f8a,626b3ac19ff929ac14250572,,,,,,,,,,,,,,,,,,,,,,,a,0,0.6005,"[""0.477"",""0.292"",""0.608"",""0.828""]","[0,1,1,1]",0,21,21,21,1,1,0,,,0,FALSE,,,,,,,,,,,,,,,,,,,,,,,,,,,,,,,
,5f6ce3aa36f6181177e93f0f,001,2022-04-29_03h10.10.909,classification_task,2021.2.3,Win32,59.49193884,5f6ce3aa36f6181177e93f0f,626b377229c10585ec392f8a,626b3ac19ff929ac14250572,,,,,,,,,,,,,,,,,,,,,,,l,1,0.8746,"[""0.102"",""0.292"",""0.067"",""0.828""]","[1,1,0,1]",0,22,22,22,1,1,0,,,0,FALSE,,,,,,,,,,,,,,,,,,,,,,,,,,,,,,,
,5f6ce3aa36f6181177e93f0f,001,2022-04-29_03h10.10.909,classification_task,2021.2.3,Win32,59.49193884,5f6ce3aa36f6181177e93f0f,626b377229c10585ec392f8a,626b3ac19ff929ac14250572,,,,,,,,,,,,,,,,,,,,,,,l,0,1.1982,"[""0.475"",""0.555"",""0.679"",""0.918""]","[0,1,1,1]",0,23,23,23,1,0,1,,,0,FALSE,,,,,,,,,,,,,,,,,,,,,,,,,,,,,,,
,5f6ce3aa36f6181177e93f0f,001,2022-04-29_03h10.10.909,classification_task,2021.2.3,Win32,59.49193884,5f6ce3aa36f6181177e93f0f,626b377229c10585ec392f8a,626b3ac19ff929ac14250572,,,,,,,,,,,,,,,,,,,,,,,l,0,0.6102,"[""0.213"",""0.715"",""0.679"",""0.918""]","[1,0,1,1]",0,24,24,24,1,0,1,,,0,FALSE,,,,,,,,,,,,,,,,,,,,,,,,,,,,,,,
,5f6ce3aa36f6181177e93f0f,001,2022-04-29_03h10.10.909,classification_task,2021.2.3,Win32,59.49193884,5f6ce3aa36f6181177e93f0f,626b377229c10585ec392f8a,626b3ac19ff929ac14250572,,,,,,,,,,,,,,,,,,,,,,,l,1,0.6531,"[""0.029"",""0.162"",""0.793"",""0.758""]","[1,1,0,1]",0,25,25,25,1,1,1,,,0,FALSE,,,,,,,,,,,,,,,,,,,,,,,,,,,,,,,
,5f6ce3aa36f6181177e93f0f,001,2022-04-29_03h10.10.909,classification_task,2021.2.3,Win32,59.49193884,5f6ce3aa36f6181177e93f0f,626b377229c10585ec392f8a,626b3ac19ff929ac14250572,,,,,,,,,,,,,,,,,,,,,,,a,0,0.6274,"[""0.102"",""0.326"",""0.608"",""0.828""]","[1,0,1,1]",0,26,26,26,1,1,0,,,0,FALSE,,,,,,,,,,,,,,,,,,,,,,,,,,,,,,,
,5f6ce3aa36f6181177e93f0f,001,2022-04-29_03h10.10.909,classification_task,2021.2.3,Win32,59.49193884,5f6ce3aa36f6181177e93f0f,626b377229c10585ec392f8a,626b3ac19ff929ac14250572,,,,,,,,,,,,,,,,,,,,,,,l,1,0.805,"[""0.029"",""0.715"",""0.438"",""0.758""]","[1,0,1,1]",0,27,27,27,1,1,1,,,0,FALSE,,,,,,,,,,,,,,,,,,,,,,,,,,,,,,,
,5f6ce3aa36f6181177e93f0f,001,2022-04-29_03h10.10.909,classification_task,2021.2.3,Win32,59.49193884,5f6ce3aa36f6181177e93f0f,626b377229c10585ec392f8a,626b3ac19ff929ac14250572,,,,,,,,,,,,,,,,,,,,,,,l,1,0.8135,"[""0.102"",""0.292"",""0.608"",""0.067""]","[1,1,1,0]",0,28,28,28,1,1,0,,,0,FALSE,,,,,,,,,,,,,,,,,,,,,,,,,,,,,,,
,5f6ce3aa36f6181177e93f0f,001,2022-04-29_03h10.10.909,classification_task,2021.2.3,Win32,59.49193884,5f6ce3aa36f6181177e93f0f,626b377229c10585ec392f8a,626b3ac19ff929ac14250572,,,,,,,,,,,,,,,,,,,,,,,a,0,0.7937,"[""0.509"",""0.162"",""0.438"",""0.758""]","[0,1,1,1]",0,29,29,29,1,1,1,,,0,FALSE,,,,,,,,,,,,,,,,,,,,,,,,,,,,,,,
,5f6ce3aa36f6181177e93f0f,001,2022-04-29_03h10.10.909,classification_task,2021.2.3,Win32,59.49193884,5f6ce3aa36f6181177e93f0f,626b377229c10585ec392f8a,626b3ac19ff929ac14250572,,,,,,,,,,,,,,,,,,,,,,,l,1,0.5616,"[""0.029"",""0.162"",""0.438"",""0.505""]","[1,1,1,0]",0,30,30,30,1,1,1,,,0,FALSE,,,,,,,,,,,,,,,,,,,,,,,,,,,,,,,
,5f6ce3aa36f6181177e93f0f,001,2022-04-29_03h10.10.909,classification_task,2021.2.3,Win32,59.49193884,5f6ce3aa36f6181177e93f0f,626b377229c10585ec392f8a,626b3ac19ff929ac14250572,,,,,,,,,,,,,,,,,,,,,,,l,0,0.7207,"[""0.257"",""0.362"",""0.871"",""0.793""]","[1,1,1,0]",0,31,31,31,1,0,0,,,0,FALSE,,,,,,,,,,,,,,,,,,,,,,,,,,,,,,,
,5f6ce3aa36f6181177e93f0f,001,2022-04-29_03h10.10.909,classification_task,2021.2.3,Win32,59.49193884,5f6ce3aa36f6181177e93f0f,626b377229c10585ec392f8a,626b3ac19ff929ac14250572,,,,,,,,,,,,,,,,,,,,,,,a,0,0.7961,"[""0.644"",""0.162"",""0.438"",""0.758""]","[0,1,1,1]",0,32,32,32,1,1,1,,,0,FALSE,,,,,,,,,,,,,,,,,,,,,,,,,,,,,,,
,5f6ce3aa36f6181177e93f0f,001,2022-04-29_03h10.10.909,classification_task,2021.2.3,Win32,59.49193884,5f6ce3aa36f6181177e93f0f,626b377229c10585ec392f8a,626b3ac19ff929ac14250572,,,,,,,,,,,,,,,,,,,,,,,l,0,0.7819,"[""0.507"",""0.555"",""0.679"",""0.918""]","[0,1,1,1]",0,33,33,33,1,0,1,,,0,FALSE,,,,,,,,,,,,,,,,,,,,,,,,,,,,,,,
,5f6ce3aa36f6181177e93f0f,001,2022-04-29_03h10.10.909,classification_task,2021.2.3,Win32,59.49193884,5f6ce3aa36f6181177e93f0f,626b377229c10585ec392f8a,626b3ac19ff929ac14250572,,,,,,,,,,,,,,,,,,,,,,,l,0,1.0467,"[""0.257"",""0.362"",""0.871"",""0.477""]","[1,1,1,0]",0,34,34,34,1,0,0,,,0,FALSE,,,,,,,,,,,,,,,,,,,,,,,,,,,,,,,
,5f6ce3aa36f6181177e93f0f,001,2022-04-29_03h10.10.909,classification_task,2021.2.3,Win32,59.49193884,5f6ce3aa36f6181177e93f0f,626b377229c10585ec392f8a,626b3ac19ff929ac14250572,,,,,,,,,,,,,,,,,,,,,,,l,1,0.6982,"[""0.029"",""0.793"",""0.438"",""0.758""]","[1,0,1,1]",0,35,35,35,1,1,1,,,0,FALSE,,,,,,,,,,,,,,,,,,,,,,,,,,,,,,,
,5f6ce3aa36f6181177e93f0f,001,2022-04-29_03h10.10.909,classification_task,2021.2.3,Win32,59.49193884,5f6ce3aa36f6181177e93f0f,626b377229c10585ec392f8a,626b3ac19ff929ac14250572,,,,,,,,,,,,,,,,,,,,,,,a,1,1.431,"[""0.475"",""0.362"",""0.871"",""0.974""]","[0,1,1,1]",0,36,36,36,1,0,0,,,0,FALSE,,,,,,,,,,,,,,,,,,,,,,,,,,,,,,,
,5f6ce3aa36f6181177e93f0f,001,2022-04-29_03h10.10.909,classification_task,2021.2.3,Win32,59.49193884,5f6ce3aa36f6181177e93f0f,626b377229c10585ec392f8a,626b3ac19ff929ac14250572,,,,,,,,,,,,,,,,,,,,,,,a,1,0.7572,"[""0.213"",""0.555"",""0.679"",""0.326""]","[1,1,1,0]",0,37,37,37,1,0,1,,,0,FALSE,,,,,,,,,,,,,,,,,,,,,,,,,,,,,,,
,5f6ce3aa36f6181177e93f0f,001,2022-04-29_03h10.10.909,classification_task,2021.2.3,Win32,59.49193884,5f6ce3aa36f6181177e93f0f,626b377229c10585ec392f8a,626b3ac19ff929ac14250572,,,,,,,,,,,,,,,,,,,,,,,l,1,0.7134,"[""0.102"",""0.292"",""0.509"",""0.828""]","[1,1,0,1]",0,38,38,38,1,1,0,,,0,FALSE,,,,,,,,,,,,,,,,,,,,,,,,,,,,,,,
,5f6ce3aa36f6181177e93f0f,001,2022-04-29_03h10.10.909,classification_task,2021.2.3,Win32,59.49193884,5f6ce3aa36f6181177e93f0f,626b377229c10585ec392f8a,626b3ac19ff929ac14250572,,,,,,,,,,,,,,,,,,,,,,,l,1,0.8767,"[""0.029"",""0.162"",""0.438"",""0.475""]","[1,1,1,0]",0,39,39,39,1,1,1,,,0,FALSE,,,,,,,,,,,,,,,,,,,,,,,,,,,,,,,
,5f6ce3aa36f6181177e93f0f,001,2022-04-29_03h10.10.909,classification_task,2021.2.3,Win32,59.49193884,5f6ce3aa36f6181177e93f0f,626b377229c10585ec392f8a,626b3ac19ff929ac14250572,,,,,,,,,,,,,,,,,,,,,,,a,1,0.9553,"[""0.257"",""0.362"",""0.477"",""0.974""]","[1,1,0,1]",0,40,40,40,1,0,0,,,0,FALSE,,,,,,,,,,,,,,,,,,,,,,,,,,,,,,,
,5f6ce3aa36f6181177e93f0f,001,2022-04-29_03h10.10.909,classification_task,2021.2.3,Win32,59.49193884,5f6ce3aa36f6181177e93f0f,626b377229c10585ec392f8a,626b3ac19ff929ac14250572,,,,,,,,,,,,,,,,,,,,,,,l,1,0.7102,"[""0.029"",""0.162"",""0.475"",""0.758""]","[1,1,0,1]",0,41,41,41,1,1,1,,,0,FALSE,,,,,,,,,,,,,,,,,,,,,,,,,,,,,,,
,5f6ce3aa36f6181177e93f0f,001,2022-04-29_03h10.10.909,classification_task,2021.2.3,Win32,59.49193884,5f6ce3aa36f6181177e93f0f,626b377229c10585ec392f8a,626b3ac19ff929ac14250572,,,,,,,,,,,,,,,,,,,,,,,a,1,0.9296,"[""0.213"",""0.555"",""0.326"",""0.918""]","[1,1,0,1]",0,42,42,42,1,0,1,,,0,FALSE,,,,,,,,,,,,,,,,,,,,,,,,,,,,,,,
,5f6ce3aa36f6181177e93f0f,001,2022-04-29_03h10.10.909,classification_task,2021.2.3,Win32,59.49193884,5f6ce3aa36f6181177e93f0f,626b377229c10585ec392f8a,626b3ac19ff929ac14250572,,,,,,,,,,,,,,,,,,,,,,,l,1,1.9449,"[""0.102"",""0.715"",""0.608"",""0.828""]","[1,0,1,1]",0,43,43,43,1,1,0,,,0,FALSE,,,,,,,,,,,,,,,,,,,,,,,,,,,,,,,
,5f6ce3aa36f6181177e93f0f,001,2022-04-29_03h10.10.909,classification_task,2021.2.3,Win32,59.49193884,5f6ce3aa36f6181177e93f0f,626b377229c10585ec392f8a,626b3ac19ff929ac14250572,,,,,,,,,,,,,,,,,,,,,,,a,0,0.8542,"[""0.477"",""0.292"",""0.608"",""0.828""]","[0,1,1,1]",0,44,44,44,1,1,0,,,0,FALSE,,,,,,,,,,,,,,,,,,,,,,,,,,,,,,,
,5f6ce3aa36f6181177e93f0f,001,2022-04-29_03h10.10.909,classification_task,2021.2.3,Win32,59.49193884,5f6ce3aa36f6181177e93f0f,626b377229c10585ec392f8a,626b3ac19ff929ac14250572,,,,,,,,,,,,,,,,,,,,,,,l,0,0.7813,"[""0.257"",""0.509"",""0.871"",""0.974""]","[1,0,1,1]",0,45,45,45,1,0,0,,,0,FALSE,,,,,,,,,,,,,,,,,,,,,,,,,,,,,,,
,5f6ce3aa36f6181177e93f0f,001,2022-04-29_03h10.10.909,classification_task,2021.2.3,Win32,59.49193884,5f6ce3aa36f6181177e93f0f,626b377229c10585ec392f8a,626b3ac19ff929ac14250572,,,,,,,,,,,,,,,,,,,,,,,l,1,1.227,"[""0.102"",""0.292"",""0.608"",""0.477""]","[1,1,1,0]",0,46,46,46,1,1,0,,,0,FALSE,,,,,,,,,,,,,,,,,,,,,,,,,,,,,,,
,5f6ce3aa36f6181177e93f0f,001,2022-04-29_03h10.10.909,classification_task,2021.2.3,Win32,59.49193884,5f6ce3aa36f6181177e93f0f,626b377229c10585ec392f8a,626b3ac19ff929ac14250572,,,,,,,,,,,,,,,,,,,,,,,l,0,1.0381,"[""0.213"",""0.477"",""0.679"",""0.918""]","[1,0,1,1]",0,47,47,47,1,0,1,,,0,FALSE,,,,,,,,,,,,,,,,,,,,,,,,,,,,,,,
,5f6ce3aa36f6181177e93f0f,001,2022-04-29_03h10.10.909,classification_task,2021.2.3,Win32,59.49193884,5f6ce3aa36f6181177e93f0f,626b377229c10585ec392f8a,626b3ac19ff929ac14250572,,,,,,,,,,,,,,,,,,,,,,,l,1,0.9938,"[""0.510"",""0.292"",""0.608"",""0.828""]","[0,1,1,1]",0,48,48,48,1,1,0,,,0,FALSE,,,,,,,,,,,,,,,,,,,,,,,,,,,,,,,
,5f6ce3aa36f6181177e93f0f,001,2022-04-29_03h10.10.909,classification_task,2021.2.3,Win32,59.49193884,5f6ce3aa36f6181177e93f0f,626b377229c10585ec392f8a,626b3ac19ff929ac14250572,,,,,,,,,,,,,,,,,,,,,,,a,0,0.6543,"[""0.102"",""0.292"",""0.715"",""0.828""]","[1,1,0,1]",0,49,49,49,1,1,0,,,0,FALSE,,,,,,,,,,,,,,,,,,,,,,,,,,,,,,,
,5f6ce3aa36f6181177e93f0f,001,2022-04-29_03h10.10.909,classification_task,2021.2.3,Win32,59.49193884,5f6ce3aa36f6181177e93f0f,626b377229c10585ec392f8a,626b3ac19ff929ac14250572,,,,,,,,,,,,,,,,,,,,,,,l,1,0.6728,"[""0.102"",""0.715"",""0.608"",""0.828""]","[1,0,1,1]",0,50,50,50,1,1,0,,,0,FALSE,,,,,,,,,,,,,,,,,,,,,,,,,,,,,,,
,5f6ce3aa36f6181177e93f0f,001,2022-04-29_03h10.10.909,classification_task,2021.2.3,Win32,59.49193884,5f6ce3aa36f6181177e93f0f,626b377229c10585ec392f8a,626b3ac19ff929ac14250572,,,,,,,,,,,,,,,,,,,,,,,l,1,0.8098,"[""0.029"",""0.162"",""0.326"",""0.758""]","[1,1,0,1]",0,51,51,51,1,1,1,,,0,FALSE,,,,,,,,,,,,,,,,,,,,,,,,,,,,,,,
,5f6ce3aa36f6181177e93f0f,001,2022-04-29_03h10.10.909,classification_task,2021.2.3,Win32,59.49193884,5f6ce3aa36f6181177e93f0f,626b377229c10585ec392f8a,626b3ac19ff929ac14250572,,,,,,,,,,,,,,,,,,,,,,,a,1,1.8326,"[""0.715"",""0.555"",""0.679"",""0.918""]","[0,1,1,1]",0,52,52,52,1,0,1,,,0,FALSE,,,,,,,,,,,,,,,,,,,,,,,,,,,,,,,
,5f6ce3aa36f6181177e93f0f,001,2022-04-29_03h10.10.909,classification_task,2021.2.3,Win32,59.49193884,5f6ce3aa36f6181177e93f0f,626b377229c10585ec392f8a,626b3ac19ff929ac14250572,,,,,,,,,,,,,,,,,,,,,,,l,1,2.7259,"[""0.505"",""0.162"",""0.438"",""0.758""]","[0,1,1,1]",0,53,53,53,1,1,1,,,0,FALSE,,,,,,,,,,,,,,,,,,,,,,,,,,,,,,,
,5f6ce3aa36f6181177e93f0f,001,2022-04-29_03h10.10.909,classification_task,2021.2.3,Win32,59.49193884,5f6ce3aa36f6181177e93f0f,626b377229c10585ec392f8a,626b3ac19ff929ac14250572,,,,,,,,,,,,,,,,,,,,,,,a,0,0.9711,"[""0.029"",""0.475"",""0.438"",""0.758""]","[1,0,1,1]",0,54,54,54,1,1,1,,,0,FALSE,,,,,,,,,,,,,,,,,,,,,,,,,,,,,,,
,5f6ce3aa36f6181177e93f0f,001,2022-04-29_03h10.10.909,classification_task,2021.2.3,Win32,59.49193884,5f6ce3aa36f6181177e93f0f,626b377229c10585ec392f8a,626b3ac19ff929ac14250572,,,,,,,,,,,,,,,,,,,,,,,l,0,0.8877,"[""0.257"",""0.362"",""0.507"",""0.974""]","[1,1,0,1]",0,55,55,55,1,0,0,,,0,FALSE,,,,,,,,,,,,,,,,,,,,,,,,,,,,,,,
,5f6ce3aa36f6181177e93f0f,001,2022-04-29_03h10.10.909,classification_task,2021.2.3,Win32,59.49193884,5f6ce3aa36f6181177e93f0f,626b377229c10585ec392f8a,626b3ac19ff929ac14250572,,,,,,,,,,,,,,,,,,,,,,,l,0,1.0097,"[""0.257"",""0.362"",""0.871"",""0.644""]","[1,1,1,0]",0,56,56,56,1,0,0,,,0,FALSE,,,,,,,,,,,,,,,,,,,,,,,,,,,,,,,
,5f6ce3aa36f6181177e93f0f,001,2022-04-29_03h10.10.909,classification_task,2021.2.3,Win32,59.49193884,5f6ce3aa36f6181177e93f0f,626b377229c10585ec392f8a,626b3ac19ff929ac14250572,,,,,,,,,,,,,,,,,,,,,,,a,1,0.7274,"[""0.213"",""0.326"",""0.679"",""0.918""]","[1,0,1,1]",0,57,57,57,1,0,1,,,0,FALSE,,,,,,,,,,,,,,,,,,,,,,,,,,,,,,,
,5f6ce3aa36f6181177e93f0f,001,2022-04-29_03h10.10.909,classification_task,2021.2.3,Win32,59.49193884,5f6ce3aa36f6181177e93f0f,626b377229c10585ec392f8a,626b3ac19ff929ac14250572,,,,,,,,,,,,,,,,,,,,,,,a,1,0.963,"[""0.257"",""0.067"",""0.871"",""0.974""]","[1,0,1,1]",0,58,58,58,1,0,0,,,0,FALSE,,,,,,,,,,,,,,,,,,,,,,,,,,,,,,,
,5f6ce3aa36f6181177e93f0f,001,2022-04-29_03h10.10.909,classification_task,2021.2.3,Win32,59.49193884,5f6ce3aa36f6181177e93f0f,626b377229c10585ec392f8a,626b3ac19ff929ac14250572,,,,,,,,,,,,,,,,,,,,,,,l,1,0.9402,"[""0.029"",""0.162"",""0.438"",""0.475""]","[1,1,1,0]",0,59,59,59,1,1,1,,,0,FALSE,,,,,,,,,,,,,,,,,,,,,,,,,,,,,,,
,5f6ce3aa36f6181177e93f0f,001,2022-04-29_03h10.10.909,classification_task,2021.2.3,Win32,59.49193884,5f6ce3aa36f6181177e93f0f,626b377229c10585ec392f8a,626b3ac19ff929ac14250572,,,,,,,,,,,,,,,,,,,,,,,l,0,1.7627,"[""0.213"",""0.555"",""0.679"",""0.067""]","[1,1,1,0]",0,60,60,60,1,0,1,,,0,FALSE,,,,,,,,,,,,,,,,,,,,,,,,,,,,,,,
,5f6ce3aa36f6181177e93f0f,001,2022-04-29_03h10.10.909,classification_task,2021.2.3,Win32,59.49193884,5f6ce3aa36f6181177e93f0f,626b377229c10585ec392f8a,626b3ac19ff929ac14250572,,,,,,,,,,,,,,,,,,,,,,,a,0,0.7804,"[""0.102"",""0.292"",""0.608"",""0.793""]","[1,1,1,0]",0,61,61,61,1,1,0,,,0,FALSE,,,,,,,,,,,,,,,,,,,,,,,,,,,,,,,
,5f6ce3aa36f6181177e93f0f,001,2022-04-29_03h10.10.909,classification_task,2021.2.3,Win32,59.49193884,5f6ce3aa36f6181177e93f0f,626b377229c10585ec392f8a,626b3ac19ff929ac14250572,,,,,,,,,,,,,,,,,,,,,,,l,0,1.5137,"[""0.475"",""0.362"",""0.871"",""0.974""]","[0,1,1,1]",0,62,62,62,1,0,0,,,0,FALSE,,,,,,,,,,,,,,,,,,,,,,,,,,,,,,,
,5f6ce3aa36f6181177e93f0f,001,2022-04-29_03h10.10.909,classification_task,2021.2.3,Win32,59.49193884,5f6ce3aa36f6181177e93f0f,626b377229c10585ec392f8a,626b3ac19ff929ac14250572,,,,,,,,,,,,,,,,,,,,,,,a,1,0.8982,"[""0.213"",""0.555"",""0.715"",""0.918""]","[1,1,0,1]",0,63,63,63,1,0,1,,,0,FALSE,,,,,,,,,,,,,,,,,,,,,,,,,,,,,,,
,5f6ce3aa36f6181177e93f0f,001,2022-04-29_03h10.10.909,classification_task,2021.2.3,Win32,59.49193884,5f6ce3aa36f6181177e93f0f,626b377229c10585ec392f8a,626b3ac19ff929ac14250572,,,,,,,,,,,,,,,,,,,,,,,,,,,,,,,,,,,,,,,0, ,,0,2.572094782,142.9627,0,1,1,1,1,2,2,,,,,,,,,,,,,,,,,,
,5f6ce3aa36f6181177e93f0f,001,2022-04-29_03h10.10.909,classification_task,2021.2.3,Win32,59.49193884,5f6ce3aa36f6181177e93f0f,626b377229c10585ec392f8a,626b3ac19ff929ac14250572,,,,,,,,,,,,,,,,,,,,,,,,,,,,,,,,,,,,,,,1,  ,,0,9.079680671,144.7281,0,1,1,1,1,2,2,,,,,,,,,,,,,,,,,,
,5f6ce3aa36f6181177e93f0f,001,2022-04-29_03h10.10.909,classification_task,2021.2.3,Win32,59.49193884,5f6ce3aa36f6181177e93f0f,626b377229c10585ec392f8a,626b3ac19ff929ac14250572,,,,,,,,,,,,,,,,,,,,,,,,,,,,,,,,,,,,,,,2,  ,,0,6.359578632,146.1111,0,1,1,1,1,2,2,,,,,,,,,,,,,,,,,,
,5f6ce3aa36f6181177e93f0f,001,2022-04-29_03h10.10.909,classification_task,2021.2.3,Win32,59.49193884,5f6ce3aa36f6181177e93f0f,626b377229c10585ec392f8a,626b3ac19ff929ac14250572,,,,,,,,,,,,,,,,,,,,,,,,,,,,,,,,,,,,,,,,,,,,,0,1,1,1,1,,2,,,,,,,,,,,,,,,,,,
,5f6ce3aa36f6181177e93f0f,001,2022-04-29_03h10.10.909,classification_task,2021.2.3,Win32,59.49193884,5f6ce3aa36f6181177e93f0f,626b377229c10585ec392f8a,626b3ac19ff929ac14250572,,,,,,,,,,,,,,,,,,,,,space,4.3939,a,0,2.6065,"[""0.102"",""0.292"",""0.608"",""0.793""]","[1,1,1,0]",0,0,0,0,1,1,0,,,0,FALSE,,,,,,,,,,,,,,,,,,,,,,,,,,,,,,,
,5f6ce3aa36f6181177e93f0f,001,2022-04-29_03h10.10.909,classification_task,2021.2.3,Win32,59.49193884,5f6ce3aa36f6181177e93f0f,626b377229c10585ec392f8a,626b3ac19ff929ac14250572,,,,,,,,,,,,,,,,,,,,,,,a,1,2.3184,"[""0.257"",""0.793"",""0.871"",""0.974""]","[1,0,1,1]",0,1,1,1,1,0,0,,,0,FALSE,,,,,,,,,,,,,,,,,,,,,,,,,,,,,,,
,5f6ce3aa36f6181177e93f0f,001,2022-04-29_03h10.10.909,classification_task,2021.2.3,Win32,59.49193884,5f6ce3aa36f6181177e93f0f,626b377229c10585ec392f8a,626b3ac19ff929ac14250572,,,,,,,,,,,,,,,,,,,,,,,l,1,1.8509,"[""0.102"",""0.292"",""0.507"",""0.828""]","[1,1,0,1]",0,2,2,2,1,1,0,,,0,FALSE,,,,,,,,,,,,,,,,,,,,,,,,,,,,,,,
,5f6ce3aa36f6181177e93f0f,001,2022-04-29_03h10.10.909,classification_task,2021.2.3,Win32,59.49193884,5f6ce3aa36f6181177e93f0f,626b377229c10585ec392f8a,626b3ac19ff929ac14250572,,,,,,,,,,,,,,,,,,,,,,,l,1,1.0807,"[""0.509"",""0.292"",""0.608"",""0.828""]","[0,1,1,1]",0,3,3,3,1,1,0,,,0,FALSE,,,,,,,,,,,,,,,,,,,,,,,,,,,,,,,
,5f6ce3aa36f6181177e93f0f,001,2022-04-29_03h10.10.909,classification_task,2021.2.3,Win32,59.49193884,5f6ce3aa36f6181177e93f0f,626b377229c10585ec392f8a,626b3ac19ff929ac14250572,,,,,,,,,,,,,,,,,,,,,,,l,1,0.545,"[""0.029"",""0.162"",""0.438"",""0.510""]","[1,1,1,0]",0,4,4,4,1,1,1,,,0,FALSE,,,,,,,,,,,,,,,,,,,,,,,,,,,,,,,
,5f6ce3aa36f6181177e93f0f,001,2022-04-29_03h10.10.909,classification_task,2021.2.3,Win32,59.49193884,5f6ce3aa36f6181177e93f0f,626b377229c10585ec392f8a,626b3ac19ff929ac14250572,,,,,,,,,,,,,,,,,,,,,,,l,1,2.2266,"[""0.400"",""0.162"",""0.438"",""0.758""]","[0,1,1,1]",0,5,5,5,1,1,1,,,0,FALSE,,,,,,,,,,,,,,,,,,,,,,,,,,,,,,,
,5f6ce3aa36f6181177e93f0f,001,2022-04-29_03h10.10.909,classification_task,2021.2.3,Win32,59.49193884,5f6ce3aa36f6181177e93f0f,626b377229c10585ec392f8a,626b3ac19ff929ac14250572,,,,,,,,,,,,,,,,,,,,,,,a,1,0.6944,"[""0.257"",""0.362"",""0.715"",""0.974""]","[1,1,0,1]",0,6,6,6,1,0,0,,,0,FALSE,,,,,,,,,,,,,,,,,,,,,,,,,,,,,,,
,5f6ce3aa36f6181177e93f0f,001,2022-04-29_03h10.10.909,classification_task,2021.2.3,Win32,59.49193884,5f6ce3aa36f6181177e93f0f,626b377229c10585ec392f8a,626b3ac19ff929ac14250572,,,,,,,,,,,,,,,,,,,,,,,a,1,0.8873,"[""0.213"",""0.715"",""0.679"",""0.918""]","[1,0,1,1]",0,7,7,7,1,0,1,,,0,FALSE,,,,,,,,,,,,,,,,,,,,,,,,,,,,,,,
,5f6ce3aa36f6181177e93f0f,001,2022-04-29_03h10.10.909,classification_task,2021.2.3,Win32,59.49193884,5f6ce3aa36f6181177e93f0f,626b377229c10585ec392f8a,626b3ac19ff929ac14250572,,,,,,,,,,,,,,,,,,,,,,,a,1,1.0167,"[""0.213"",""0.555"",""0.510"",""0.918""]","[1,1,0,1]",0,8,8,8,1,0,1,,,0,FALSE,,,,,,,,,,,,,,,,,,,,,,,,,,,,,,,
,5f6ce3aa36f6181177e93f0f,001,2022-04-29_03h10.10.909,classification_task,2021.2.3,Win32,59.49193884,5f6ce3aa36f6181177e93f0f,626b377229c10585ec392f8a,626b3ac19ff929ac14250572,,,,,,,,,,,,,,,,,,,,,,,l,0,0.909,"[""0.257"",""0.362"",""0.871"",""0.509""]","[1,1,1,0]",0,9,9,9,1,0,0,,,0,FALSE,,,,,,,,,,,,,,,,,,,,,,,,,,,,,,,
,5f6ce3aa36f6181177e93f0f,001,2022-04-29_03h10.10.909,classification_task,2021.2.3,Win32,59.49193884,5f6ce3aa36f6181177e93f0f,626b377229c10585ec392f8a,626b3ac19ff929ac14250572,,,,,,,,,,,,,,,,,,,,,,,l,1,1.1122,"[""0.029"",""0.162"",""0.715"",""0.758""]","[1,1,0,1]",0,10,10,10,1,1,1,,,0,FALSE,,,,,,,,,,,,,,,,,,,,,,,,,,,,,,,
,5f6ce3aa36f6181177e93f0f,001,2022-04-29_03h10.10.909,classification_task,2021.2.3,Win32,59.49193884,5f6ce3aa36f6181177e93f0f,626b377229c10585ec392f8a,626b3ac19ff929ac14250572,,,,,,,,,,,,,,,,,,,,,,,a,1,0.5581,"[""0.793"",""0.362"",""0.871"",""0.974""]","[0,1,1,1]",0,11,11,11,1,0,0,,,0,FALSE,,,,,,,,,,,,,,,,,,,,,,,,,,,,,,,
,5f6ce3aa36f6181177e93f0f,001,2022-04-29_03h10.10.909,classification_task,2021.2.3,Win32,59.49193884,5f6ce3aa36f6181177e93f0f,626b377229c10585ec392f8a,626b3ac19ff929ac14250572,,,,,,,,,,,,,,,,,,,,,,,l,0,0.9419,"[""0.213"",""0.555"",""0.679"",""0.510""]","[1,1,1,0]",0,12,12,12,1,0,1,,,0,FALSE,,,,,,,,,,,,,,,,,,,,,,,,,,,,,,,
,5f6ce3aa36f6181177e93f0f,001,2022-04-29_03h10.10.909,classification_task,2021.2.3,Win32,59.49193884,5f6ce3aa36f6181177e93f0f,626b377229c10585ec392f8a,626b3ac19ff929ac14250572,,,,,,,,,,,,,,,,,,,,,,,l,1,0.9258,"[""0.029"",""0.510"",""0.438"",""0.758""]","[1,0,1,1]",0,13,13,13,1,1,1,,,0,FALSE,,,,,,,,,,,,,,,,,,,,,,,,,,,,,,,
,5f6ce3aa36f6181177e93f0f,001,2022-04-29_03h10.10.909,classification_task,2021.2.3,Win32,59.49193884,5f6ce3aa36f6181177e93f0f,626b377229c10585ec392f8a,626b3ac19ff929ac14250572,,,,,,,,,,,,,,,,,,,,,,,a,1,0.9106,"[""0.509"",""0.555"",""0.679"",""0.918""]","[0,1,1,1]",0,14,14,14,1,0,1,,,0,FALSE,,,,,,,,,,,,,,,,,,,,,,,,,,,,,,,
,5f6ce3aa36f6181177e93f0f,001,2022-04-29_03h10.10.909,classification_task,2021.2.3,Win32,59.49193884,5f6ce3aa36f6181177e93f0f,626b377229c10585ec392f8a,626b3ac19ff929ac14250572,,,,,,,,,,,,,,,,,,,,,,,a,0,1.1094,"[""0.102"",""0.507"",""0.608"",""0.828""]","[1,0,1,1]",0,15,15,15,1,1,0,,,0,FALSE,,,,,,,,,,,,,,,,,,,,,,,,,,,,,,,
,5f6ce3aa36f6181177e93f0f,001,2022-04-29_03h10.10.909,classification_task,2021.2.3,Win32,59.49193884,5f6ce3aa36f6181177e93f0f,626b377229c10585ec392f8a,626b3ac19ff929ac14250572,,,,,,,,,,,,,,,,,,,,,,,l,1,0.8055,"[""0.029"",""0.475"",""0.438"",""0.758""]","[1,0,1,1]",0,16,16,16,1,1,1,,,0,FALSE,,,,,,,,,,,,,,,,,,,,,,,,,,,,,,,
,5f6ce3aa36f6181177e93f0f,001,2022-04-29_03h10.10.909,classification_task,2021.2.3,Win32,59.49193884,5f6ce3aa36f6181177e93f0f,626b377229c10585ec392f8a,626b3ac19ff929ac14250572,,,,,,,,,,,,,,,,,,,,,,,l,0,1.1802,"[""0.257"",""0.362"",""0.871"",""0.507""]","[1,1,1,0]",0,17,17,17,1,0,0,,,0,FALSE,,,,,,,,,,,,,,,,,,,,,,,,,,,,,,,
,5f6ce3aa36f6181177e93f0f,001,2022-04-29_03h10.10.909,classification_task,2021.2.3,Win32,59.49193884,5f6ce3aa36f6181177e93f0f,626b377229c10585ec392f8a,626b3ac19ff929ac14250572,,,,,,,,,,,,,,,,,,,,,,,l,0,2.5466,"[""0.715"",""0.555"",""0.679"",""0.918""]","[0,1,1,1]",0,18,18,18,1,0,1,,,0,FALSE,,,,,,,,,,,,,,,,,,,,,,,,,,,,,,,
,5f6ce3aa36f6181177e93f0f,001,2022-04-29_03h10.10.909,classification_task,2021.2.3,Win32,59.49193884,5f6ce3aa36f6181177e93f0f,626b377229c10585ec392f8a,626b3ac19ff929ac14250572,,,,,,,,,,,,,,,,,,,,,,,a,0,0.8526,"[""0.102"",""0.509"",""0.608"",""0.828""]","[1,0,1,1]",0,19,19,19,1,1,0,,,0,FALSE,,,,,,,,,,,,,,,,,,,,,,,,,,,,,,,
,5f6ce3aa36f6181177e93f0f,001,2022-04-29_03h10.10.909,classification_task,2021.2.3,Win32,59.49193884,5f6ce3aa36f6181177e93f0f,626b377229c10585ec392f8a,626b3ac19ff929ac14250572,,,,,,,,,,,,,,,,,,,,,,,l,1,0.5931,"[""0.029"",""0.162"",""0.715"",""0.758""]","[1,1,0,1]",0,20,20,20,1,1,1,,,0,FALSE,,,,,,,,,,,,,,,,,,,,,,,,,,,,,,,
,5f6ce3aa36f6181177e93f0f,001,2022-04-29_03h10.10.909,classification_task,2021.2.3,Win32,59.49193884,5f6ce3aa36f6181177e93f0f,626b377229c10585ec392f8a,626b3ac19ff929ac14250572,,,,,,,,,,,,,,,,,,,,,,,l,1,0.7001,"[""0.029"",""0.162"",""0.438"",""0.510""]","[1,1,1,0]",0,21,21,21,1,1,1,,,0,FALSE,,,,,,,,,,,,,,,,,,,,,,,,,,,,,,,
,5f6ce3aa36f6181177e93f0f,001,2022-04-29_03h10.10.909,classification_task,2021.2.3,Win32,59.49193884,5f6ce3aa36f6181177e93f0f,626b377229c10585ec392f8a,626b3ac19ff929ac14250572,,,,,,,,,,,,,,,,,,,,,,,l,0,3.2443,"[""0.213"",""0.400"",""0.679"",""0.918""]","[1,0,1,1]",0,22,22,22,1,0,1,,,0,FALSE,,,,,,,,,,,,,,,,,,,,,,,,,,,,,,,
,5f6ce3aa36f6181177e93f0f,001,2022-04-29_03h10.10.909,classification_task,2021.2.3,Win32,59.49193884,5f6ce3aa36f6181177e93f0f,626b377229c10585ec392f8a,626b3ac19ff929ac14250572,,,,,,,,,,,,,,,,,,,,,,,a,0,0.881,"[""0.326"",""0.292"",""0.608"",""0.828""]","[0,1,1,1]",0,23,23,23,1,1,0,,,0,FALSE,,,,,,,,,,,,,,,,,,,,,,,,,,,,,,,
,5f6ce3aa36f6181177e93f0f,001,2022-04-29_03h10.10.909,classification_task,2021.2.3,Win32,59.49193884,5f6ce3aa36f6181177e93f0f,626b377229c10585ec392f8a,626b3ac19ff929ac14250572,,,,,,,,,,,,,,,,,,,,,,,l,1,1.2946,"[""0.793"",""0.162"",""0.438"",""0.758""]","[0,1,1,1]",0,24,24,24,1,1,1,,,0,FALSE,,,,,,,,,,,,,,,,,,,,,,,,,,,,,,,
,5f6ce3aa36f6181177e93f0f,001,2022-04-29_03h10.10.909,classification_task,2021.2.3,Win32,59.49193884,5f6ce3aa36f6181177e93f0f,626b377229c10585ec392f8a,626b3ac19ff929ac14250572,,,,,,,,,,,,,,,,,,,,,,,a,1,0.8268,"[""0.509"",""0.362"",""0.871"",""0.974""]","[0,1,1,1]",0,25,25,25,1,0,0,,,0,FALSE,,,,,,,,,,,,,,,,,,,,,,,,,,,,,,,
,5f6ce3aa36f6181177e93f0f,001,2022-04-29_03h10.10.909,classification_task,2021.2.3,Win32,59.49193884,5f6ce3aa36f6181177e93f0f,626b377229c10585ec392f8a,626b3ac19ff929ac14250572,,,,,,,,,,,,,,,,,,,,,,,l,1,0.99,"[""0.102"",""0.292"",""0.608"",""0.507""]","[1,1,1,0]",0,26,26,26,1,1,0,,,0,FALSE,,,,,,,,,,,,,,,,,,,,,,,,,,,,,,,
,5f6ce3aa36f6181177e93f0f,001,2022-04-29_03h10.10.909,classification_task,2021.2.3,Win32,59.49193884,5f6ce3aa36f6181177e93f0f,626b377229c10585ec392f8a,626b3ac19ff929ac14250572,,,,,,,,,,,,,,,,,,,,,,,a,1,0.877,"[""0.257"",""0.793"",""0.871"",""0.974""]","[1,0,1,1]",0,27,27,27,1,0,0,,,0,FALSE,,,,,,,,,,,,,,,,,,,,,,,,,,,,,,,
,5f6ce3aa36f6181177e93f0f,001,2022-04-29_03h10.10.909,classification_task,2021.2.3,Win32,59.49193884,5f6ce3aa36f6181177e93f0f,626b377229c10585ec392f8a,626b3ac19ff929ac14250572,,,,,,,,,,,,,,,,,,,,,,,a,1,1.2112,"[""0.257"",""0.362"",""0.509"",""0.974""]","[1,1,0,1]",0,28,28,28,1,0,0,,,0,FALSE,,,,,,,,,,,,,,,,,,,,,,,,,,,,,,,
,5f6ce3aa36f6181177e93f0f,001,2022-04-29_03h10.10.909,classification_task,2021.2.3,Win32,59.49193884,5f6ce3aa36f6181177e93f0f,626b377229c10585ec392f8a,626b3ac19ff929ac14250572,,,,,,,,,,,,,,,,,,,,,,,a,0,2.894,"[""0.102"",""0.292"",""0.475"",""0.828""]","[1,1,0,1]",0,29,29,29,1,1,0,,,0,FALSE,,,,,,,,,,,,,,,,,,,,,,,,,,,,,,,
,5f6ce3aa36f6181177e93f0f,001,2022-04-29_03h10.10.909,classification_task,2021.2.3,Win32,59.49193884,5f6ce3aa36f6181177e93f0f,626b377229c10585ec392f8a,626b3ac19ff929ac14250572,,,,,,,,,,,,,,,,,,,,,,,l,0,1.714,"[""0.213"",""0.555"",""0.679"",""0.644""]","[1,1,1,0]",0,30,30,30,1,0,1,,,0,FALSE,,,,,,,,,,,,,,,,,,,,,,,,,,,,,,,
,5f6ce3aa36f6181177e93f0f,001,2022-04-29_03h10.10.909,classification_task,2021.2.3,Win32,59.49193884,5f6ce3aa36f6181177e93f0f,626b377229c10585ec392f8a,626b3ac19ff929ac14250572,,,,,,,,,,,,,,,,,,,,,,,a,1,2.8582,"[""0.213"",""0.555"",""0.644"",""0.918""]","[1,1,0,1]",0,31,31,31,1,0,1,,,0,FALSE,,,,,,,,,,,,,,,,,,,,,,,,,,,,,,,
,5f6ce3aa36f6181177e93f0f,001,2022-04-29_03h10.10.909,classification_task,2021.2.3,Win32,59.49193884,5f6ce3aa36f6181177e93f0f,626b377229c10585ec392f8a,626b3ac19ff929ac14250572,,,,,,,,,,,,,,,,,,,,,,,a,1,1.093,"[""0.257"",""0.362"",""0.871"",""0.644""]","[1,1,1,0]",0,32,32,32,1,0,0,,,0,FALSE,,,,,,,,,,,,,,,,,,,,,,,,,,,,,,,
,5f6ce3aa36f6181177e93f0f,001,2022-04-29_03h10.10.909,classification_task,2021.2.3,Win32,59.49193884,5f6ce3aa36f6181177e93f0f,626b377229c10585ec392f8a,626b3ac19ff929ac14250572,,,,,,,,,,,,,,,,,,,,,,,l,0,1.6729,"[""0.213"",""0.555"",""0.477"",""0.918""]","[1,1,0,1]",0,33,33,33,1,0,1,,,0,FALSE,,,,,,,,,,,,,,,,,,,,,,,,,,,,,,,
,5f6ce3aa36f6181177e93f0f,001,2022-04-29_03h10.10.909,classification_task,2021.2.3,Win32,59.49193884,5f6ce3aa36f6181177e93f0f,626b377229c10585ec392f8a,626b3ac19ff929ac14250572,,,,,,,,,,,,,,,,,,,,,,,l,1,0.8601,"[""0.102"",""0.292"",""0.400"",""0.828""]","[1,1,0,1]",0,34,34,34,1,1,0,,,0,FALSE,,,,,,,,,,,,,,,,,,,,,,,,,,,,,,,
,5f6ce3aa36f6181177e93f0f,001,2022-04-29_03h10.10.909,classification_task,2021.2.3,Win32,59.49193884,5f6ce3aa36f6181177e93f0f,626b377229c10585ec392f8a,626b3ac19ff929ac14250572,,,,,,,,,,,,,,,,,,,,,,,a,1,1.1773,"[""0.793"",""0.555"",""0.679"",""0.918""]","[0,1,1,1]",0,35,35,35,1,0,1,,,0,FALSE,,,,,,,,,,,,,,,,,,,,,,,,,,,,,,,
,5f6ce3aa36f6181177e93f0f,001,2022-04-29_03h10.10.909,classification_task,2021.2.3,Win32,59.49193884,5f6ce3aa36f6181177e93f0f,626b377229c10585ec392f8a,626b3ac19ff929ac14250572,,,,,,,,,,,,,,,,,,,,,,,l,1,1.2097,"[""0.029"",""0.162"",""0.438"",""0.510""]","[1,1,1,0]",0,36,36,36,1,1,1,,,0,FALSE,,,,,,,,,,,,,,,,,,,,,,,,,,,,,,,
,5f6ce3aa36f6181177e93f0f,001,2022-04-29_03h10.10.909,classification_task,2021.2.3,Win32,59.49193884,5f6ce3aa36f6181177e93f0f,626b377229c10585ec392f8a,626b3ac19ff929ac14250572,,,,,,,,,,,,,,,,,,,,,,,l,0,1.0813,"[""0.400"",""0.362"",""0.871"",""0.974""]","[0,1,1,1]",0,37,37,37,1,0,0,,,0,FALSE,,,,,,,,,,,,,,,,,,,,,,,,,,,,,,,
,5f6ce3aa36f6181177e93f0f,001,2022-04-29_03h10.10.909,classification_task,2021.2.3,Win32,59.49193884,5f6ce3aa36f6181177e93f0f,626b377229c10585ec392f8a,626b3ac19ff929ac14250572,,,,,,,,,,,,,,,,,,,,,,,a,1,0.7637,"[""0.213"",""0.793"",""0.679"",""0.918""]","[1,0,1,1]",0,38,38,38,1,0,1,,,0,FALSE,,,,,,,,,,,,,,,,,,,,,,,,,,,,,,,
,5f6ce3aa36f6181177e93f0f,001,2022-04-29_03h10.10.909,classification_task,2021.2.3,Win32,59.49193884,5f6ce3aa36f6181177e93f0f,626b377229c10585ec392f8a,626b3ac19ff929ac14250572,,,,,,,,,,,,,,,,,,,,,,,l,1,0.8971,"[""0.715"",""0.292"",""0.608"",""0.828""]","[0,1,1,1]",0,39,39,39,1,1,0,,,0,FALSE,,,,,,,,,,,,,,,,,,,,,,,,,,,,,,,
,5f6ce3aa36f6181177e93f0f,001,2022-04-29_03h10.10.909,classification_task,2021.2.3,Win32,59.49193884,5f6ce3aa36f6181177e93f0f,626b377229c10585ec392f8a,626b3ac19ff929ac14250572,,,,,,,,,,,,,,,,,,,,,,,a,0,0.6969,"[""0.029"",""0.326"",""0.438"",""0.758""]","[1,0,1,1]",0,40,40,40,1,1,1,,,0,FALSE,,,,,,,,,,,,,,,,,,,,,,,,,,,,,,,
,5f6ce3aa36f6181177e93f0f,001,2022-04-29_03h10.10.909,classification_task,2021.2.3,Win32,59.49193884,5f6ce3aa36f6181177e93f0f,626b377229c10585ec392f8a,626b3ac19ff929ac14250572,,,,,,,,,,,,,,,,,,,,,,,a,0,1.0792,"[""0.102"",""0.793"",""0.608"",""0.828""]","[1,0,1,1]",0,41,41,41,1,1,0,,,0,FALSE,,,,,,,,,,,,,,,,,,,,,,,,,,,,,,,
,5f6ce3aa36f6181177e93f0f,001,2022-04-29_03h10.10.909,classification_task,2021.2.3,Win32,59.49193884,5f6ce3aa36f6181177e93f0f,626b377229c10585ec392f8a,626b3ac19ff929ac14250572,,,,,,,,,,,,,,,,,,,,,,,a,0,0.7622,"[""0.400"",""0.162"",""0.438"",""0.758""]","[0,1,1,1]",0,42,42,42,1,1,1,,,0,FALSE,,,,,,,,,,,,,,,,,,,,,,,,,,,,,,,
,5f6ce3aa36f6181177e93f0f,001,2022-04-29_03h10.10.909,classification_task,2021.2.3,Win32,59.49193884,5f6ce3aa36f6181177e93f0f,626b377229c10585ec392f8a,626b3ac19ff929ac14250572,,,,,,,,,,,,,,,,,,,,,,,a,0,1.0609,"[""0.102"",""0.292"",""0.608"",""0.793""]","[1,1,1,0]",0,43,43,43,1,1,0,,,0,FALSE,,,,,,,,,,,,,,,,,,,,,,,,,,,,,,,
,5f6ce3aa36f6181177e93f0f,001,2022-04-29_03h10.10.909,classification_task,2021.2.3,Win32,59.49193884,5f6ce3aa36f6181177e93f0f,626b377229c10585ec392f8a,626b3ac19ff929ac14250572,,,,,,,,,,,,,,,,,,,,,,,l,0,1.1433,"[""0.213"",""0.555"",""0.679"",""0.644""]","[1,1,1,0]",0,44,44,44,1,0,1,,,0,FALSE,,,,,,,,,,,,,,,,,,,,,,,,,,,,,,,
,5f6ce3aa36f6181177e93f0f,001,2022-04-29_03h10.10.909,classification_task,2021.2.3,Win32,59.49193884,5f6ce3aa36f6181177e93f0f,626b377229c10585ec392f8a,626b3ac19ff929ac14250572,,,,,,,,,,,,,,,,,,,,,,,a,1,0.7469,"[""0.257"",""0.715"",""0.871"",""0.974""]","[1,0,1,1]",0,45,45,45,1,0,0,,,0,FALSE,,,,,,,,,,,,,,,,,,,,,,,,,,,,,,,
,5f6ce3aa36f6181177e93f0f,001,2022-04-29_03h10.10.909,classification_task,2021.2.3,Win32,59.49193884,5f6ce3aa36f6181177e93f0f,626b377229c10585ec392f8a,626b3ac19ff929ac14250572,,,,,,,,,,,,,,,,,,,,,,,a,1,1.3142,"[""0.257"",""0.362"",""0.067"",""0.974""]","[1,1,0,1]",0,46,46,46,1,0,0,,,0,FALSE,,,,,,,,,,,,,,,,,,,,,,,,,,,,,,,
,5f6ce3aa36f6181177e93f0f,001,2022-04-29_03h10.10.909,classification_task,2021.2.3,Win32,59.49193884,5f6ce3aa36f6181177e93f0f,626b377229c10585ec392f8a,626b3ac19ff929ac14250572,,,,,,,,,,,,,,,,,,,,,,,l,1,0.6809,"[""0.029"",""0.162"",""0.067"",""0.758""]","[1,1,0,1]",0,47,47,47,1,1,1,,,0,FALSE,,,,,,,,,,,,,,,,,,,,,,,,,,,,,,,
,5f6ce3aa36f6181177e93f0f,001,2022-04-29_03h10.10.909,classification_task,2021.2.3,Win32,59.49193884,5f6ce3aa36f6181177e93f0f,626b377229c10585ec392f8a,626b3ac19ff929ac14250572,,,,,,,,,,,,,,,,,,,,,,,a,1,1.4115,"[""0.213"",""0.715"",""0.679"",""0.918""]","[1,0,1,1]",0,48,48,48,1,0,1,,,0,FALSE,,,,,,,,,,,,,,,,,,,,,,,,,,,,,,,
,5f6ce3aa36f6181177e93f0f,001,2022-04-29_03h10.10.909,classification_task,2021.2.3,Win32,59.49193884,5f6ce3aa36f6181177e93f0f,626b377229c10585ec392f8a,626b3ac19ff929ac14250572,,,,,,,,,,,,,,,,,,,,,,,l,1,0.4302,"[""0.029"",""0.793"",""0.438"",""0.758""]","[1,0,1,1]",0,49,49,49,1,1,1,,,0,FALSE,,,,,,,,,,,,,,,,,,,,,,,,,,,,,,,
,5f6ce3aa36f6181177e93f0f,001,2022-04-29_03h10.10.909,classification_task,2021.2.3,Win32,59.49193884,5f6ce3aa36f6181177e93f0f,626b377229c10585ec392f8a,626b3ac19ff929ac14250572,,,,,,,,,,,,,,,,,,,,,,,a,0,1.0844,"[""0.102"",""0.292"",""0.608"",""0.505""]","[1,1,1,0]",0,50,50,50,1,1,0,,,0,FALSE,,,,,,,,,,,,,,,,,,,,,,,,,,,,,,,
,5f6ce3aa36f6181177e93f0f,001,2022-04-29_03h10.10.909,classification_task,2021.2.3,Win32,59.49193884,5f6ce3aa36f6181177e93f0f,626b377229c10585ec392f8a,626b3ac19ff929ac14250572,,,,,,,,,,,,,,,,,,,,,,,l,1,0.9102,"[""0.029"",""0.162"",""0.438"",""0.715""]","[1,1,1,0]",0,51,51,51,1,1,1,,,0,FALSE,,,,,,,,,,,,,,,,,,,,,,,,,,,,,,,
,5f6ce3aa36f6181177e93f0f,001,2022-04-29_03h10.10.909,classification_task,2021.2.3,Win32,59.49193884,5f6ce3aa36f6181177e93f0f,626b377229c10585ec392f8a,626b3ac19ff929ac14250572,,,,,,,,,,,,,,,,,,,,,,,a,0,0.7579,"[""0.644"",""0.162"",""0.438"",""0.758""]","[0,1,1,1]",0,52,52,52,1,1,1,,,0,FALSE,,,,,,,,,,,,,,,,,,,,,,,,,,,,,,,
,5f6ce3aa36f6181177e93f0f,001,2022-04-29_03h10.10.909,classification_task,2021.2.3,Win32,59.49193884,5f6ce3aa36f6181177e93f0f,626b377229c10585ec392f8a,626b3ac19ff929ac14250572,,,,,,,,,,,,,,,,,,,,,,,a,1,1.0091,"[""0.213"",""0.555"",""0.679"",""0.715""]","[1,1,1,0]",0,53,53,53,1,0,1,,,0,FALSE,,,,,,,,,,,,,,,,,,,,,,,,,,,,,,,
,5f6ce3aa36f6181177e93f0f,001,2022-04-29_03h10.10.909,classification_task,2021.2.3,Win32,59.49193884,5f6ce3aa36f6181177e93f0f,626b377229c10585ec392f8a,626b3ac19ff929ac14250572,,,,,,,,,,,,,,,,,,,,,,,a,1,0.6777,"[""0.213"",""0.555"",""0.793"",""0.918""]","[1,1,0,1]",0,54,54,54,1,0,1,,,0,FALSE,,,,,,,,,,,,,,,,,,,,,,,,,,,,,,,
,5f6ce3aa36f6181177e93f0f,001,2022-04-29_03h10.10.909,classification_task,2021.2.3,Win32,59.49193884,5f6ce3aa36f6181177e93f0f,626b377229c10585ec392f8a,626b3ac19ff929ac14250572,,,,,,,,,,,,,,,,,,,,,,,l,0,0.8427,"[""0.715"",""0.555"",""0.679"",""0.918""]","[0,1,1,1]",0,55,55,55,1,0,1,,,0,FALSE,,,,,,,,,,,,,,,,,,,,,,,,,,,,,,,
,5f6ce3aa36f6181177e93f0f,001,2022-04-29_03h10.10.909,classification_task,2021.2.3,Win32,59.49193884,5f6ce3aa36f6181177e93f0f,626b377229c10585ec392f8a,626b3ac19ff929ac14250572,,,,,,,,,,,,,,,,,,,,,,,a,0,1.307,"[""0.102"",""0.793"",""0.608"",""0.828""]","[1,0,1,1]",0,56,56,56,1,1,0,,,0,FALSE,,,,,,,,,,,,,,,,,,,,,,,,,,,,,,,
,5f6ce3aa36f6181177e93f0f,001,2022-04-29_03h10.10.909,classification_task,2021.2.3,Win32,59.49193884,5f6ce3aa36f6181177e93f0f,626b377229c10585ec392f8a,626b3ac19ff929ac14250572,,,,,,,,,,,,,,,,,,,,,,,a,1,1.1298,"[""0.257"",""0.477"",""0.871"",""0.974""]","[1,0,1,1]",0,57,57,57,1,0,0,,,0,FALSE,,,,,,,,,,,,,,,,,,,,,,,,,,,,,,,
,5f6ce3aa36f6181177e93f0f,001,2022-04-29_03h10.10.909,classification_task,2021.2.3,Win32,59.49193884,5f6ce3aa36f6181177e93f0f,626b377229c10585ec392f8a,626b3ac19ff929ac14250572,,,,,,,,,,,,,,,,,,,,,,,a,1,1.0466,"[""0.257"",""0.362"",""0.871"",""0.505""]","[1,1,1,0]",0,58,58,58,1,0,0,,,0,FALSE,,,,,,,,,,,,,,,,,,,,,,,,,,,,,,,
,5f6ce3aa36f6181177e93f0f,001,2022-04-29_03h10.10.909,classification_task,2021.2.3,Win32,59.49193884,5f6ce3aa36f6181177e93f0f,626b377229c10585ec392f8a,626b3ac19ff929ac14250572,,,,,,,,,,,,,,,,,,,,,,,a,0,1.0465,"[""0.715"",""0.292"",""0.608"",""0.828""]","[0,1,1,1]",0,59,59,59,1,1,0,,,0,FALSE,,,,,,,,,,,,,,,,,,,,,,,,,,,,,,,
,5f6ce3aa36f6181177e93f0f,001,2022-04-29_03h10.10.909,classification_task,2021.2.3,Win32,59.49193884,5f6ce3aa36f6181177e93f0f,626b377229c10585ec392f8a,626b3ac19ff929ac14250572,,,,,,,,,,,,,,,,,,,,,,,a,1,0.844,"[""0.505"",""0.362"",""0.871"",""0.974""]","[0,1,1,1]",0,60,60,60,1,0,0,,,0,FALSE,,,,,,,,,,,,,,,,,,,,,,,,,,,,,,,
,5f6ce3aa36f6181177e93f0f,001,2022-04-29_03h10.10.909,classification_task,2021.2.3,Win32,59.49193884,5f6ce3aa36f6181177e93f0f,626b377229c10585ec392f8a,626b3ac19ff929ac14250572,,,,,,,,,,,,,,,,,,,,,,,a,1,2.706,"[""0.257"",""0.362"",""0.715"",""0.974""]","[1,1,0,1]",0,61,61,61,1,0,0,,,0,FALSE,,,,,,,,,,,,,,,,,,,,,,,,,,,,,,,
,5f6ce3aa36f6181177e93f0f,001,2022-04-29_03h10.10.909,classification_task,2021.2.3,Win32,59.49193884,5f6ce3aa36f6181177e93f0f,626b377229c10585ec392f8a,626b3ac19ff929ac14250572,,,,,,,,,,,,,,,,,,,,,,,l,1,0.8979,"[""0.102"",""0.292"",""0.644"",""0.828""]","[1,1,0,1]",0,62,62,62,1,1,0,,,0,FALSE,,,,,,,,,,,,,,,,,,,,,,,,,,,,,,,
,5f6ce3aa36f6181177e93f0f,001,2022-04-29_03h10.10.909,classification_task,2021.2.3,Win32,59.49193884,5f6ce3aa36f6181177e93f0f,626b377229c10585ec392f8a,626b3ac19ff929ac14250572,,,,,,,,,,,,,,,,,,,,,,,l,1,0.617,"[""0.029"",""0.162"",""0.477"",""0.758""]","[1,1,0,1]",0,63,63,63,1,1,1,,,0,FALSE,,,,,,,,,,,,,,,,,,,,,,,,,,,,,,,
,5f6ce3aa36f6181177e93f0f,001,2022-04-29_03h10.10.909,classification_task,2021.2.3,Win32,59.49193884,5f6ce3aa36f6181177e93f0f,626b377229c10585ec392f8a,626b3ac19ff929ac14250572,,,,,,,,,,,,,,,,,,,,,,,,,,,,,,,,,,,,,,,0, ,,0,3.054138181,151.4141,0,2,2,2,1,2,3,,,,,,,,,,,,,,,,,,
,5f6ce3aa36f6181177e93f0f,001,2022-04-29_03h10.10.909,classification_task,2021.2.3,Win32,59.49193884,5f6ce3aa36f6181177e93f0f,626b377229c10585ec392f8a,626b3ac19ff929ac14250572,,,,,,,,,,,,,,,,,,,,,,,,,,,,,,,,,,,,,,,1,  ,,0,7.874572173,153.4964,0,2,2,2,1,2,3,,,,,,,,,,,,,,,,,,
,5f6ce3aa36f6181177e93f0f,001,2022-04-29_03h10.10.909,classification_task,2021.2.3,Win32,59.49193884,5f6ce3aa36f6181177e93f0f,626b377229c10585ec392f8a,626b3ac19ff929ac14250572,,,,,,,,,,,,,,,,,,,,,,,,,,,,,,,,,,,,,,,2,  ,,0,9.871609112,154.8492,0,2,2,2,1,2,3,,,,,,,,,,,,,,,,,,
,5f6ce3aa36f6181177e93f0f,001,2022-04-29_03h10.10.909,classification_task,2021.2.3,Win32,59.49193884,5f6ce3aa36f6181177e93f0f,626b377229c10585ec392f8a,626b3ac19ff929ac14250572,,,,,,,,,,,,,,,,,,,,,,,,,,,,,,,,,,,,,,,,,,,,,0,2,2,2,1,,3,,,,,,,,,,,,,,,,,,
,5f6ce3aa36f6181177e93f0f,001,2022-04-29_03h10.10.909,classification_task,2021.2.3,Win32,59.49193884,5f6ce3aa36f6181177e93f0f,626b377229c10585ec392f8a,626b3ac19ff929ac14250572,,,,,,,,,,,,,,,,,,,,,,,,,,,,,,,,,,,,,,,,,,,,,,,,,,,,space,6.0001,I believe the aid is a competent performer,,0.7,0,4,686.5062,0,0,0,0,1,0,,,,
,5f6ce3aa36f6181177e93f0f,001,2022-04-29_03h10.10.909,classification_task,2021.2.3,Win32,59.49193884,5f6ce3aa36f6181177e93f0f,626b377229c10585ec392f8a,626b3ac19ff929ac14250572,,,,,,,,,,,,,,,,,,,,,,,,,,,,,,,,,,,,,,,,,,,,,,,,,,,,,,I trust the aid,,0.7,0,4,688.2622,0,0,0,0,1,0,,,,
,5f6ce3aa36f6181177e93f0f,001,2022-04-29_03h10.10.909,classification_task,2021.2.3,Win32,59.49193884,5f6ce3aa36f6181177e93f0f,626b377229c10585ec392f8a,626b3ac19ff929ac14250572,,,,,,,,,,,,,,,,,,,,,,,,,,,,,,,,,,,,,,,,,,,,,,,,,,,,,,I have confidence in the advice given by the aid,,0.7,0,4,689.4591,0,0,0,0,1,0,,,,
,5f6ce3aa36f6181177e93f0f,001,2022-04-29_03h10.10.909,classification_task,2021.2.3,Win32,59.49193884,5f6ce3aa36f6181177e93f0f,626b377229c10585ec392f8a,626b3ac19ff929ac14250572,,,,,,,,,,,,,,,,,,,,,,,,,,,,,,,,,,,,,,,,,,,,,,,,,,,,,,I can depend on the aid,,0.7,0,2,693.8093,0,0,0,0,1,0,,,,
,5f6ce3aa36f6181177e93f0f,001,2022-04-29_03h10.10.909,classification_task,2021.2.3,Win32,59.49193884,5f6ce3aa36f6181177e93f0f,626b377229c10585ec392f8a,626b3ac19ff929ac14250572,,,,,,,,,,,,,,,,,,,,,,,,,,,,,,,,,,,,,,,,,,,,,,,,,,,,,,I can rely on the aid to behave in consistent ways,,0.7,0,4,697.0803,0,0,0,0,1,0,,,,
,5f6ce3aa36f6181177e93f0f,001,2022-04-29_03h10.10.909,classification_task,2021.2.3,Win32,59.49193884,5f6ce3aa36f6181177e93f0f,626b377229c10585ec392f8a,626b3ac19ff929ac14250572,,,,,,,,,,,,,,,,,,,,,,,,,,,,,,,,,,,,,,,,,,,,,,,,,,,,,,I can rely on the aid to do its best every time I take its advice,,0.7,0,4,708.0084,0,0,0,0,1,0,,,,
,5f6ce3aa36f6181177e93f0f,001,2022-04-29_03h10.10.909,classification_task,2021.2.3,Win32,59.49193884,5f6ce3aa36f6181177e93f0f,626b377229c10585ec392f8a,626b3ac19ff929ac14250572,,,,,,,,,,,,,,,,,,,,,,,,,,,,,,,,,,,,,,,,,,,,,,,,,,,,,,"On trials you completed with assistance from the aid, how frequently did you think the aid was correct?",,0.7,0,99%,,0,0,0,0,1,0,,,,
,5f6ce3aa36f6181177e93f0f,001,2022-04-29_03h10.10.909,classification_task,2021.2.3,Win32,59.49193884,5f6ce3aa36f6181177e93f0f,626b377229c10585ec392f8a,626b3ac19ff929ac14250572,,,,,,,,,,,,,,,,,,,,,,,,,,,,,,,,,,,,,,,,,,,,,,,,,,,,,,"On trials you completed without the aid, how frequently did you think you were correct?",,0.7,0,20%,,0,0,0,0,1,0,,,,
,5f6ce3aa36f6181177e93f0f,001,2022-04-29_03h10.10.909,classification_task,2021.2.3,Win32,59.49193884,5f6ce3aa36f6181177e93f0f,626b377229c10585ec392f8a,626b3ac19ff929ac14250572,,,,,,,,,,,,,,,,,,,,,,,,,,,,,,,,,,,,,,,,,,,,,,,,,,,,,,,,,,,,0,0,0,0,1,,,,,
,5f6ce3aa36f6181177e93f0f,001,2022-04-29_03h10.10.909,classification_task,2021.2.3,Win32,59.49193884,5f6ce3aa36f6181177e93f0f,626b377229c10585ec392f8a,626b3ac19ff929ac14250572,,,,,,,,,,,,,,,,,,,,,,,,,,,,,,,,,,,,,,,,,,,,,,,,,,,,,,,,,,,,,,,,,,space,5.0756,725.5581,
,5f6ce3aa36f6181177e93f0f,001,2022-04-29_03h10.10.909,classification_task,2021.2.3,Win32,59.49193884,5f6ce3aa36f6181177e93f0f,626b377229c10585ec392f8a,626b3ac19ff929ac14250572,,,,,,,,,,,,,,,,,,,,,,,,,,,,,,,,,,,,,,,,,,,,,,,,,,,,,,,,,,,,,,,,,,,,,"Mozilla/5.0 (Windows NT 10.0; Win64; x64) AppleWebKit/537.36 (KHTML, like Gecko) Chrome/99.0.4844.82 Safari/537.36"
