usingWebGL,participant,session,date,expName,psychopyVersion,OS,frameRate,study_id,signatures_friend,signatures_foe,band_ranges_top,band_ranges_bottom,formitemText,formtype,formundefined,formitemWidth,formindex,formresponse,formrt,key_resp_2.keys,key_resp_2.rt,tute_resp.keys,tute_resp.rt,tutorial.thisRepN,tutorial.thisTrialN,tutorial.thisN,tutorial.thisIndex,tutorial.ran,key_resp_4.keys,key_resp_4.rt,key_resp.keys,key_resp.corr,lines_presented,is_signal_presented,trials.thisRepN,trials.thisTrialN,trials.thisN,trials.thisIndex,trials.ran,vessel,active_band,lines,is_signal,supported_pos,catch_trial,key_resp.rt,debrief_formindex,debrief_formitemText,debrief_formtype,debrief_formitemWidth,debrief_formresponse,debrief_formrt,phases.thisRepN,phases.thisTrialN,phases.thisN,phases.thisIndex,phases.ran,phases.order,phase,key_resp_3.keys,trustitemText,trusttype,trustitemWidth,trustindex,trustresponse,trustrt,support_status.thisRepN,support_status.thisTrialN,support_status.thisN,support_status.thisIndex,support_status.ran,support_status.order,key_resp_5.keys,key_resp_5.rt,globalClockTime,userAgent,manualCondition
TRUE,5f6c343552bdce1aedca6ae1,627c67f24af4ba9f7127070d,2022-05-11_20h50.59.008,classification_task,2021.2.3,Win32,60.37918126,627c6715c52fd12f31907bcf,,,,,,,,,,,,,,,,,,,,,,,,,,,,,,,,,,,,,,,,,,,,,,,,,,,,,,,,,,,,,,,,,,,,,
,5f6c343552bdce1aedca6ae1,627c67f24af4ba9f7127070d,2022-05-11_20h50.59.008,classification_task,2021.2.3,Win32,60.37918126,627c6715c52fd12f31907bcf,"[[""0.323"",""0.493"",""0.748"",""0.926""],[""0.272"",""0.365"",""0.873"",""0.967""]]","[[""0.086"",""0.161"",""0.444"",""0.839""],[""0.052"",""0.405"",""0.540"",""0.705""]]","[1,10]","[100,1000]",Video game experience,,,0.7,0,,,,,,,,,,,,,,,,,,,,,,,,,,,,,,,,,,,,,,,,,,,,,,,,,,,,,,,,,,,,
,5f6c343552bdce1aedca6ae1,627c67f24af4ba9f7127070d,2022-05-11_20h50.59.008,classification_task,2021.2.3,Win32,60.37918126,627c6715c52fd12f31907bcf,,,,,Approximately how many hours did you spend playing video games in the last week?,,,0.7,0,15,,,,,,,,,,,,,,,,,,,,,,,,,,,,,,,,,,,,,,,,,,,,,,,,,,,,,,,,,,,
,5f6c343552bdce1aedca6ae1,627c67f24af4ba9f7127070d,2022-05-11_20h50.59.008,classification_task,2021.2.3,Win32,60.37918126,627c6715c52fd12f31907bcf,,,,,"Which game did you play the most this year? (Enter ""None"" if you didn't play any)",,,0.7,0,God Of War (2018),,,,,,,,,,,,,,,,,,,,,,,,,,,,,,,,,,,,,,,,,,,,,,,,,,,,,,,,,,,
,5f6c343552bdce1aedca6ae1,627c67f24af4ba9f7127070d,2022-05-11_20h50.59.008,classification_task,2021.2.3,Win32,60.37918126,627c6715c52fd12f31907bcf,,,,,Visual perception,,,0.7,0,,,,,,,,,,,,,,,,,,,,,,,,,,,,,,,,,,,,,,,,,,,,,,,,,,,,,,,,,,,,
,5f6c343552bdce1aedca6ae1,627c67f24af4ba9f7127070d,2022-05-11_20h50.59.008,classification_task,2021.2.3,Win32,60.37918126,627c6715c52fd12f31907bcf,,,,,Do you have any form of color blindness?,,,0.7,0,No,100.262,,,,,,,,,,,,,,,,,,,,,,,,,,,,,,,,,,,,,,,,,,,,,,,,,,,,,,,,,,
,5f6c343552bdce1aedca6ae1,627c67f24af4ba9f7127070d,2022-05-11_20h50.59.008,classification_task,2021.2.3,Win32,60.37918126,627c6715c52fd12f31907bcf,,,,,Do you use software to change the colour temperature of your screen (e.g. f.lux)?,,,0.7,0,No,105.8486,,,,,,,,,,,,,,,,,,,,,,,,,,,,,,,,,,,,,,,,,,,,,,,,,,,,,,,,,,
,5f6c343552bdce1aedca6ae1,627c67f24af4ba9f7127070d,2022-05-11_20h50.59.008,classification_task,2021.2.3,Win32,60.37918126,627c6715c52fd12f31907bcf,,,,,,,,,,,,space,103.4335,space,55.5745,0,0,0,0,1,,,,,,,,,,,,,,,,,,,,,,,,,,,,,,,,,,,,,,,,,,,,,,,,,
,5f6c343552bdce1aedca6ae1,627c67f24af4ba9f7127070d,2022-05-11_20h50.59.008,classification_task,2021.2.3,Win32,60.37918126,627c6715c52fd12f31907bcf,,,,,,,,,,,,,,space,11.6104,1,0,1,0,1,,,,,,,,,,,,,,,,,,,,,,,,,,,,,,,,,,,,,,,,,,,,,,,,,
,5f6c343552bdce1aedca6ae1,627c67f24af4ba9f7127070d,2022-05-11_20h50.59.008,classification_task,2021.2.3,Win32,60.37918126,627c6715c52fd12f31907bcf,,,,,,,,,,,,,,space,42.7979,2,0,2,0,1,,,,,,,,,,,,,,,,,,,,,,,,,,,,,,,,,,,,,,,,,,,,,,,,,
,5f6c343552bdce1aedca6ae1,627c67f24af4ba9f7127070d,2022-05-11_20h50.59.008,classification_task,2021.2.3,Win32,60.37918126,627c6715c52fd12f31907bcf,,,,,,,,,,,,,,space,34.6623,3,0,3,0,1,,,,,,,,,,,,,,,,,,,,,,,,,,,,,,,,,,,,,,,,,,,,,,,,,
,5f6c343552bdce1aedca6ae1,627c67f24af4ba9f7127070d,2022-05-11_20h50.59.008,classification_task,2021.2.3,Win32,60.37918126,627c6715c52fd12f31907bcf,,,,,,,,,,,,,,space,42.6814,4,0,4,0,1,,,,,,,,,,,,,,,,,,,,,,,,,,,,,,,,,,,,,,,,,,,,,,,,,
,5f6c343552bdce1aedca6ae1,627c67f24af4ba9f7127070d,2022-05-11_20h50.59.008,classification_task,2021.2.3,Win32,60.37918126,627c6715c52fd12f31907bcf,,,,,,,,,,,,,,,,,,,,,space,61.7785,,0,"[""0.581"",""0.161"",""0.444"",""0.839""]","[0,1,1,1]",0,0,0,0,1,1,0,,,1,FALSE,,,,,,,,,,,,,,,,,,,,,,,,,,,,,,,,
,5f6c343552bdce1aedca6ae1,627c67f24af4ba9f7127070d,2022-05-11_20h50.59.008,classification_task,2021.2.3,Win32,60.37918126,627c6715c52fd12f31907bcf,,,,,,,,,,,,,,,,,,,,,,,a,1,"[""0.272"",""0.365"",""0.220"",""0.967""]","[1,1,0,1]",0,1,1,1,1,0,1,,,1,FALSE,6.0551,,,,,,,,,,,,,,,,,,,,,,,,,,,,,,,
,5f6c343552bdce1aedca6ae1,627c67f24af4ba9f7127070d,2022-05-11_20h50.59.008,classification_task,2021.2.3,Win32,60.37918126,627c6715c52fd12f31907bcf,,,,,,,,,,,,,,,,,,,,,,,l,1,"[""0.086"",""0.214"",""0.444"",""0.839""]","[1,0,1,1]",0,2,2,2,1,1,0,,,1,FALSE,5.2714,,,,,,,,,,,,,,,,,,,,,,,,,,,,,,,
,5f6c343552bdce1aedca6ae1,627c67f24af4ba9f7127070d,2022-05-11_20h50.59.008,classification_task,2021.2.3,Win32,60.37918126,627c6715c52fd12f31907bcf,,,,,,,,,,,,,,,,,,,,,,,a,1,"[""0.272"",""0.365"",""0.873"",""0.577""]","[1,1,1,0]",0,3,3,3,1,0,1,,,1,FALSE,6.523,,,,,,,,,,,,,,,,,,,,,,,,,,,,,,,
,5f6c343552bdce1aedca6ae1,627c67f24af4ba9f7127070d,2022-05-11_20h50.59.008,classification_task,2021.2.3,Win32,60.37918126,627c6715c52fd12f31907bcf,,,,,,,,,,,,,,,,,,,,,,,l,1,"[""0.052"",""0.405"",""0.540"",""0.214""]","[1,1,1,0]",0,4,4,4,1,1,1,,,1,FALSE,4.7543,,,,,,,,,,,,,,,,,,,,,,,,,,,,,,,
,5f6c343552bdce1aedca6ae1,627c67f24af4ba9f7127070d,2022-05-11_20h50.59.008,classification_task,2021.2.3,Win32,60.37918126,627c6715c52fd12f31907bcf,,,,,,,,,,,,,,,,,,,,,,,a,1,"[""0.609"",""0.493"",""0.748"",""0.926""]","[0,1,1,1]",0,5,5,5,1,0,0,,,1,FALSE,5.4267,,,,,,,,,,,,,,,,,,,,,,,,,,,,,,,
,5f6c343552bdce1aedca6ae1,627c67f24af4ba9f7127070d,2022-05-11_20h50.59.008,classification_task,2021.2.3,Win32,60.37918126,627c6715c52fd12f31907bcf,,,,,,,,,,,,,,,,,,,,,,,l,1,"[""0.052"",""0.405"",""0.606"",""0.705""]","[1,1,0,1]",0,6,6,6,1,1,1,,,1,FALSE,2.8242,,,,,,,,,,,,,,,,,,,,,,,,,,,,,,,
,5f6c343552bdce1aedca6ae1,627c67f24af4ba9f7127070d,2022-05-11_20h50.59.008,classification_task,2021.2.3,Win32,60.37918126,627c6715c52fd12f31907bcf,,,,,,,,,,,,,,,,,,,,,,,a,1,"[""0.323"",""0.493"",""0.748"",""0.581""]","[1,1,1,0]",0,7,7,7,1,0,0,,,1,FALSE,2.6496,,,,,,,,,,,,,,,,,,,,,,,,,,,,,,,
,5f6c343552bdce1aedca6ae1,627c67f24af4ba9f7127070d,2022-05-11_20h50.59.008,classification_task,2021.2.3,Win32,60.37918126,627c6715c52fd12f31907bcf,,,,,,,,,,,,,,,,,,,,,,,l,1,"[""0.052"",""0.212"",""0.540"",""0.705""]","[1,0,1,1]",0,8,8,8,1,1,1,,,1,FALSE,4.9314,,,,,,,,,,,,,,,,,,,,,,,,,,,,,,,
,5f6c343552bdce1aedca6ae1,627c67f24af4ba9f7127070d,2022-05-11_20h50.59.008,classification_task,2021.2.3,Win32,60.37918126,627c6715c52fd12f31907bcf,,,,,,,,,,,,,,,,,,,,,,,a,1,"[""0.220"",""0.365"",""0.873"",""0.967""]","[0,1,1,1]",0,9,9,9,1,0,1,,,1,FALSE,5.3425,,,,,,,,,,,,,,,,,,,,,,,,,,,,,,,
,5f6c343552bdce1aedca6ae1,627c67f24af4ba9f7127070d,2022-05-11_20h50.59.008,classification_task,2021.2.3,Win32,60.37918126,627c6715c52fd12f31907bcf,,,,,,,,,,,,,,,,,,,,,,,a,1,"[""0.323"",""0.493"",""0.214"",""0.926""]","[1,1,0,1]",0,10,10,10,1,0,0,,,1,FALSE,4.8332,,,,,,,,,,,,,,,,,,,,,,,,,,,,,,,
,5f6c343552bdce1aedca6ae1,627c67f24af4ba9f7127070d,2022-05-11_20h50.59.008,classification_task,2021.2.3,Win32,60.37918126,627c6715c52fd12f31907bcf,,,,,,,,,,,,,,,,,,,,,,,l,1,"[""0.086"",""0.161"",""0.577"",""0.839""]","[1,1,0,1]",0,11,11,11,1,1,0,,,1,FALSE,6.8342,,,,,,,,,,,,,,,,,,,,,,,,,,,,,,,
,5f6c343552bdce1aedca6ae1,627c67f24af4ba9f7127070d,2022-05-11_20h50.59.008,classification_task,2021.2.3,Win32,60.37918126,627c6715c52fd12f31907bcf,,,,,,,,,,,,,,,,,,,,,,,a,1,"[""0.272"",""0.577"",""0.873"",""0.967""]","[1,0,1,1]",0,12,12,12,1,0,1,,,1,FALSE,5.082,,,,,,,,,,,,,,,,,,,,,,,,,,,,,,,
,5f6c343552bdce1aedca6ae1,627c67f24af4ba9f7127070d,2022-05-11_20h50.59.008,classification_task,2021.2.3,Win32,60.37918126,627c6715c52fd12f31907bcf,,,,,,,,,,,,,,,,,,,,,,,l,1,"[""0.212"",""0.405"",""0.540"",""0.705""]","[0,1,1,1]",0,13,13,13,1,1,1,,,1,FALSE,6.4688,,,,,,,,,,,,,,,,,,,,,,,,,,,,,,,
,5f6c343552bdce1aedca6ae1,627c67f24af4ba9f7127070d,2022-05-11_20h50.59.008,classification_task,2021.2.3,Win32,60.37918126,627c6715c52fd12f31907bcf,,,,,,,,,,,,,,,,,,,,,,,a,1,"[""0.323"",""0.804"",""0.748"",""0.926""]","[1,0,1,1]",0,14,14,14,1,0,0,,,1,FALSE,2.2312,,,,,,,,,,,,,,,,,,,,,,,,,,,,,,,
,5f6c343552bdce1aedca6ae1,627c67f24af4ba9f7127070d,2022-05-11_20h50.59.008,classification_task,2021.2.3,Win32,60.37918126,627c6715c52fd12f31907bcf,,,,,,,,,,,,,,,,,,,,,,,l,1,"[""0.086"",""0.161"",""0.444"",""0.602""]","[1,1,1,0]",0,15,15,15,1,1,0,,,1,FALSE,4.5967,,,,,,,,,,,,,,,,,,,,,,,,,,,,,,,
,5f6c343552bdce1aedca6ae1,627c67f24af4ba9f7127070d,2022-05-11_20h50.59.008,classification_task,2021.2.3,Win32,60.37918126,627c6715c52fd12f31907bcf,,,,,,,,,,,,,,,,,,,,,,,l,1,"[""0.086"",""0.238"",""0.444"",""0.839""]","[1,0,1,1]",0,16,16,16,1,1,0,,,1,FALSE,3.2497,,,,,,,,,,,,,,,,,,,,,,,,,,,,,,,
,5f6c343552bdce1aedca6ae1,627c67f24af4ba9f7127070d,2022-05-11_20h50.59.008,classification_task,2021.2.3,Win32,60.37918126,627c6715c52fd12f31907bcf,,,,,,,,,,,,,,,,,,,,,,,a,1,"[""0.272"",""0.365"",""0.873"",""0.609""]","[1,1,1,0]",0,17,17,17,1,0,1,,,1,FALSE,3.7215,,,,,,,,,,,,,,,,,,,,,,,,,,,,,,,
,5f6c343552bdce1aedca6ae1,627c67f24af4ba9f7127070d,2022-05-11_20h50.59.008,classification_task,2021.2.3,Win32,60.37918126,627c6715c52fd12f31907bcf,,,,,,,,,,,,,,,,,,,,,,,l,1,"[""0.052"",""0.405"",""0.804"",""0.705""]","[1,1,0,1]",0,18,18,18,1,1,1,,,1,FALSE,7.9076,,,,,,,,,,,,,,,,,,,,,,,,,,,,,,,
,5f6c343552bdce1aedca6ae1,627c67f24af4ba9f7127070d,2022-05-11_20h50.59.008,classification_task,2021.2.3,Win32,60.37918126,627c6715c52fd12f31907bcf,,,,,,,,,,,,,,,,,,,,,,,l,1,"[""0.230"",""0.161"",""0.444"",""0.839""]","[0,1,1,1]",0,19,19,19,1,1,0,,,1,FALSE,5.5267,,,,,,,,,,,,,,,,,,,,,,,,,,,,,,,
,5f6c343552bdce1aedca6ae1,627c67f24af4ba9f7127070d,2022-05-11_20h50.59.008,classification_task,2021.2.3,Win32,60.37918126,627c6715c52fd12f31907bcf,,,,,,,,,,,,,,,,,,,,,,,l,1,"[""0.086"",""0.161"",""0.785"",""0.839""]","[1,1,0,1]",0,20,20,20,1,1,0,,,1,FALSE,9.5482,,,,,,,,,,,,,,,,,,,,,,,,,,,,,,,
,5f6c343552bdce1aedca6ae1,627c67f24af4ba9f7127070d,2022-05-11_20h50.59.008,classification_task,2021.2.3,Win32,60.37918126,627c6715c52fd12f31907bcf,,,,,,,,,,,,,,,,,,,,,,,l,1,"[""0.609"",""0.405"",""0.540"",""0.705""]","[0,1,1,1]",0,21,21,21,1,1,1,,,1,FALSE,7.8588,,,,,,,,,,,,,,,,,,,,,,,,,,,,,,,
,5f6c343552bdce1aedca6ae1,627c67f24af4ba9f7127070d,2022-05-11_20h50.59.008,classification_task,2021.2.3,Win32,60.37918126,627c6715c52fd12f31907bcf,,,,,,,,,,,,,,,,,,,,,,,a,1,"[""0.272"",""0.365"",""0.606"",""0.967""]","[1,1,0,1]",0,22,22,22,1,0,1,,,1,FALSE,2.8653,,,,,,,,,,,,,,,,,,,,,,,,,,,,,,,
,5f6c343552bdce1aedca6ae1,627c67f24af4ba9f7127070d,2022-05-11_20h50.59.008,classification_task,2021.2.3,Win32,60.37918126,627c6715c52fd12f31907bcf,,,,,,,,,,,,,,,,,,,,,,,a,1,"[""0.323"",""0.493"",""0.584"",""0.926""]","[1,1,0,1]",0,23,23,23,1,0,0,,,1,FALSE,2.5725,,,,,,,,,,,,,,,,,,,,,,,,,,,,,,,
,5f6c343552bdce1aedca6ae1,627c67f24af4ba9f7127070d,2022-05-11_20h50.59.008,classification_task,2021.2.3,Win32,60.37918126,627c6715c52fd12f31907bcf,,,,,,,,,,,,,,,,,,,,,,,l,1,"[""0.086"",""0.161"",""0.444"",""0.212""]","[1,1,1,0]",0,24,24,24,1,1,0,,,1,FALSE,6.5589,,,,,,,,,,,,,,,,,,,,,,,,,,,,,,,
,5f6c343552bdce1aedca6ae1,627c67f24af4ba9f7127070d,2022-05-11_20h50.59.008,classification_task,2021.2.3,Win32,60.37918126,627c6715c52fd12f31907bcf,,,,,,,,,,,,,,,,,,,,,,,a,1,"[""0.323"",""0.493"",""0.748"",""0.581""]","[1,1,1,0]",0,25,25,25,1,0,0,,,1,FALSE,3.3354,,,,,,,,,,,,,,,,,,,,,,,,,,,,,,,
,5f6c343552bdce1aedca6ae1,627c67f24af4ba9f7127070d,2022-05-11_20h50.59.008,classification_task,2021.2.3,Win32,60.37918126,627c6715c52fd12f31907bcf,,,,,,,,,,,,,,,,,,,,,,,a,1,"[""0.272"",""0.581"",""0.873"",""0.967""]","[1,0,1,1]",0,26,26,26,1,0,1,,,1,FALSE,5.1388,,,,,,,,,,,,,,,,,,,,,,,,,,,,,,,
,5f6c343552bdce1aedca6ae1,627c67f24af4ba9f7127070d,2022-05-11_20h50.59.008,classification_task,2021.2.3,Win32,60.37918126,627c6715c52fd12f31907bcf,,,,,,,,,,,,,,,,,,,,,,,a,1,"[""0.577"",""0.493"",""0.748"",""0.926""]","[0,1,1,1]",0,27,27,27,1,0,0,,,1,FALSE,4.4081,,,,,,,,,,,,,,,,,,,,,,,,,,,,,,,
,5f6c343552bdce1aedca6ae1,627c67f24af4ba9f7127070d,2022-05-11_20h50.59.008,classification_task,2021.2.3,Win32,60.37918126,627c6715c52fd12f31907bcf,,,,,,,,,,,,,,,,,,,,,,,a,1,"[""0.577"",""0.365"",""0.873"",""0.967""]","[0,1,1,1]",0,28,28,28,1,0,1,,,1,FALSE,3.5982,,,,,,,,,,,,,,,,,,,,,,,,,,,,,,,
,5f6c343552bdce1aedca6ae1,627c67f24af4ba9f7127070d,2022-05-11_20h50.59.008,classification_task,2021.2.3,Win32,60.37918126,627c6715c52fd12f31907bcf,,,,,,,,,,,,,,,,,,,,,,,l,1,"[""0.052"",""0.405"",""0.540"",""0.606""]","[1,1,1,0]",0,29,29,29,1,1,1,,,1,FALSE,7.0937,,,,,,,,,,,,,,,,,,,,,,,,,,,,,,,
,5f6c343552bdce1aedca6ae1,627c67f24af4ba9f7127070d,2022-05-11_20h50.59.008,classification_task,2021.2.3,Win32,60.37918126,627c6715c52fd12f31907bcf,,,,,,,,,,,,,,,,,,,,,,,a,1,"[""0.323"",""0.799"",""0.748"",""0.926""]","[1,0,1,1]",0,30,30,30,1,0,0,,,1,FALSE,6.6144,,,,,,,,,,,,,,,,,,,,,,,,,,,,,,,
,5f6c343552bdce1aedca6ae1,627c67f24af4ba9f7127070d,2022-05-11_20h50.59.008,classification_task,2021.2.3,Win32,60.37918126,627c6715c52fd12f31907bcf,,,,,,,,,,,,,,,,,,,,,,,l,1,"[""0.052"",""0.230"",""0.540"",""0.705""]","[1,0,1,1]",0,31,31,31,1,1,1,,,1,FALSE,5.3971,,,,,,,,,,,,,,,,,,,,,,,,,,,,,,,
,5f6c343552bdce1aedca6ae1,627c67f24af4ba9f7127070d,2022-05-11_20h50.59.008,classification_task,2021.2.3,Win32,60.37918126,627c6715c52fd12f31907bcf,,,,,,,,,,,,,,,,,,,,,,,l,0,"[""0.122"",""0.493"",""0.748"",""0.926""]","[0,1,1,1]",0,32,32,32,1,0,0,,,1,FALSE,5.9835,,,,,,,,,,,,,,,,,,,,,,,,,,,,,,,
,5f6c343552bdce1aedca6ae1,627c67f24af4ba9f7127070d,2022-05-11_20h50.59.008,classification_task,2021.2.3,Win32,60.37918126,627c6715c52fd12f31907bcf,,,,,,,,,,,,,,,,,,,,,,,l,1,"[""0.052"",""0.214"",""0.540"",""0.705""]","[1,0,1,1]",0,33,33,33,1,1,1,,,1,FALSE,2.9326,,,,,,,,,,,,,,,,,,,,,,,,,,,,,,,
,5f6c343552bdce1aedca6ae1,627c67f24af4ba9f7127070d,2022-05-11_20h50.59.008,classification_task,2021.2.3,Win32,60.37918126,627c6715c52fd12f31907bcf,,,,,,,,,,,,,,,,,,,,,,,l,0,"[""0.272"",""0.365"",""0.873"",""0.804""]","[1,1,1,0]",0,34,34,34,1,0,1,,,1,FALSE,3.0509,,,,,,,,,,,,,,,,,,,,,,,,,,,,,,,
,5f6c343552bdce1aedca6ae1,627c67f24af4ba9f7127070d,2022-05-11_20h50.59.008,classification_task,2021.2.3,Win32,60.37918126,627c6715c52fd12f31907bcf,,,,,,,,,,,,,,,,,,,,,,,a,0,"[""0.052"",""0.405"",""0.540"",""0.577""]","[1,1,1,0]",0,35,35,35,1,1,1,,,1,FALSE,3.1003,,,,,,,,,,,,,,,,,,,,,,,,,,,,,,,
,5f6c343552bdce1aedca6ae1,627c67f24af4ba9f7127070d,2022-05-11_20h50.59.008,classification_task,2021.2.3,Win32,60.37918126,627c6715c52fd12f31907bcf,,,,,,,,,,,,,,,,,,,,,,,a,0,"[""0.609"",""0.161"",""0.444"",""0.839""]","[0,1,1,1]",0,36,36,36,1,1,0,,,1,FALSE,5.2637,,,,,,,,,,,,,,,,,,,,,,,,,,,,,,,
,5f6c343552bdce1aedca6ae1,627c67f24af4ba9f7127070d,2022-05-11_20h50.59.008,classification_task,2021.2.3,Win32,60.37918126,627c6715c52fd12f31907bcf,,,,,,,,,,,,,,,,,,,,,,,a,1,"[""0.323"",""0.493"",""0.212"",""0.926""]","[1,1,0,1]",0,37,37,37,1,0,0,,,1,FALSE,3.8083,,,,,,,,,,,,,,,,,,,,,,,,,,,,,,,
,5f6c343552bdce1aedca6ae1,627c67f24af4ba9f7127070d,2022-05-11_20h50.59.008,classification_task,2021.2.3,Win32,60.37918126,627c6715c52fd12f31907bcf,,,,,,,,,,,,,,,,,,,,,,,l,1,"[""0.086"",""0.161"",""0.444"",""0.577""]","[1,1,1,0]",0,38,38,38,1,1,0,,,1,FALSE,3.8932,,,,,,,,,,,,,,,,,,,,,,,,,,,,,,,
,5f6c343552bdce1aedca6ae1,627c67f24af4ba9f7127070d,2022-05-11_20h50.59.008,classification_task,2021.2.3,Win32,60.37918126,627c6715c52fd12f31907bcf,,,,,,,,,,,,,,,,,,,,,,,a,1,"[""0.220"",""0.365"",""0.873"",""0.967""]","[0,1,1,1]",0,39,39,39,1,0,1,,,1,FALSE,3.0933,,,,,,,,,,,,,,,,,,,,,,,,,,,,,,,
,5f6c343552bdce1aedca6ae1,627c67f24af4ba9f7127070d,2022-05-11_20h50.59.008,classification_task,2021.2.3,Win32,60.37918126,627c6715c52fd12f31907bcf,,,,,,,,,,,,,,,,,,,,,,,a,0,"[""0.220"",""0.405"",""0.540"",""0.705""]","[0,1,1,1]",0,40,40,40,1,1,1,,,1,FALSE,1.6293,,,,,,,,,,,,,,,,,,,,,,,,,,,,,,,
,5f6c343552bdce1aedca6ae1,627c67f24af4ba9f7127070d,2022-05-11_20h50.59.008,classification_task,2021.2.3,Win32,60.37918126,627c6715c52fd12f31907bcf,,,,,,,,,,,,,,,,,,,,,,,l,1,"[""0.086"",""0.602"",""0.444"",""0.839""]","[1,0,1,1]",0,41,41,41,1,1,0,,,1,FALSE,4.6448,,,,,,,,,,,,,,,,,,,,,,,,,,,,,,,
,5f6c343552bdce1aedca6ae1,627c67f24af4ba9f7127070d,2022-05-11_20h50.59.008,classification_task,2021.2.3,Win32,60.37918126,627c6715c52fd12f31907bcf,,,,,,,,,,,,,,,,,,,,,,,a,1,"[""0.323"",""0.493"",""0.748"",""0.214""]","[1,1,1,0]",0,42,42,42,1,0,0,,,1,FALSE,1.7851,,,,,,,,,,,,,,,,,,,,,,,,,,,,,,,
,5f6c343552bdce1aedca6ae1,627c67f24af4ba9f7127070d,2022-05-11_20h50.59.008,classification_task,2021.2.3,Win32,60.37918126,627c6715c52fd12f31907bcf,,,,,,,,,,,,,,,,,,,,,,,l,0,"[""0.272"",""0.581"",""0.873"",""0.967""]","[1,0,1,1]",0,43,43,43,1,0,1,,,1,FALSE,2.2574,,,,,,,,,,,,,,,,,,,,,,,,,,,,,,,
,5f6c343552bdce1aedca6ae1,627c67f24af4ba9f7127070d,2022-05-11_20h50.59.008,classification_task,2021.2.3,Win32,60.37918126,627c6715c52fd12f31907bcf,,,,,,,,,,,,,,,,,,,,,,,l,0,"[""0.272"",""0.365"",""0.220"",""0.967""]","[1,1,0,1]",0,44,44,44,1,0,1,,,1,FALSE,1.9049,,,,,,,,,,,,,,,,,,,,,,,,,,,,,,,
,5f6c343552bdce1aedca6ae1,627c67f24af4ba9f7127070d,2022-05-11_20h50.59.008,classification_task,2021.2.3,Win32,60.37918126,627c6715c52fd12f31907bcf,,,,,,,,,,,,,,,,,,,,,,,l,1,"[""0.086"",""0.161"",""0.577"",""0.839""]","[1,1,0,1]",0,45,45,45,1,1,0,,,1,FALSE,4.0114,,,,,,,,,,,,,,,,,,,,,,,,,,,,,,,
,5f6c343552bdce1aedca6ae1,627c67f24af4ba9f7127070d,2022-05-11_20h50.59.008,classification_task,2021.2.3,Win32,60.37918126,627c6715c52fd12f31907bcf,,,,,,,,,,,,,,,,,,,,,,,a,1,"[""0.323"",""0.212"",""0.748"",""0.926""]","[1,0,1,1]",0,46,46,46,1,0,0,,,1,FALSE,2.6974,,,,,,,,,,,,,,,,,,,,,,,,,,,,,,,
,5f6c343552bdce1aedca6ae1,627c67f24af4ba9f7127070d,2022-05-11_20h50.59.008,classification_task,2021.2.3,Win32,60.37918126,627c6715c52fd12f31907bcf,,,,,,,,,,,,,,,,,,,,,,,a,0,"[""0.052"",""0.405"",""0.804"",""0.705""]","[1,1,0,1]",0,47,47,47,1,1,1,,,1,FALSE,2.1569,,,,,,,,,,,,,,,,,,,,,,,,,,,,,,,
,5f6c343552bdce1aedca6ae1,627c67f24af4ba9f7127070d,2022-05-11_20h50.59.008,classification_task,2021.2.3,Win32,60.37918126,627c6715c52fd12f31907bcf,,,,,,,,,,,,,,,,,,,,,,,l,0,"[""0.272"",""0.214"",""0.873"",""0.967""]","[1,0,1,1]",0,48,48,48,1,0,1,,,1,FALSE,1.3561,,,,,,,,,,,,,,,,,,,,,,,,,,,,,,,
,5f6c343552bdce1aedca6ae1,627c67f24af4ba9f7127070d,2022-05-11_20h50.59.008,classification_task,2021.2.3,Win32,60.37918126,627c6715c52fd12f31907bcf,,,,,,,,,,,,,,,,,,,,,,,l,1,"[""0.052"",""0.405"",""0.609"",""0.705""]","[1,1,0,1]",0,49,49,49,1,1,1,,,1,FALSE,2.3845,,,,,,,,,,,,,,,,,,,,,,,,,,,,,,,
,5f6c343552bdce1aedca6ae1,627c67f24af4ba9f7127070d,2022-05-11_20h50.59.008,classification_task,2021.2.3,Win32,60.37918126,627c6715c52fd12f31907bcf,,,,,,,,,,,,,,,,,,,,,,,a,0,"[""0.606"",""0.161"",""0.444"",""0.839""]","[0,1,1,1]",0,50,50,50,1,1,0,,,1,FALSE,3.685,,,,,,,,,,,,,,,,,,,,,,,,,,,,,,,
,5f6c343552bdce1aedca6ae1,627c67f24af4ba9f7127070d,2022-05-11_20h50.59.008,classification_task,2021.2.3,Win32,60.37918126,627c6715c52fd12f31907bcf,,,,,,,,,,,,,,,,,,,,,,,a,1,"[""0.785"",""0.493"",""0.748"",""0.926""]","[0,1,1,1]",0,51,51,51,1,0,0,,,1,FALSE,2.2788,,,,,,,,,,,,,,,,,,,,,,,,,,,,,,,
,5f6c343552bdce1aedca6ae1,627c67f24af4ba9f7127070d,2022-05-11_20h50.59.008,classification_task,2021.2.3,Win32,60.37918126,627c6715c52fd12f31907bcf,,,,,,,,,,,,,,,,,,,,,,,a,0,"[""0.086"",""0.161"",""0.444"",""0.584""]","[1,1,1,0]",0,52,52,52,1,1,0,,,1,FALSE,4.7905,,,,,,,,,,,,,,,,,,,,,,,,,,,,,,,
,5f6c343552bdce1aedca6ae1,627c67f24af4ba9f7127070d,2022-05-11_20h50.59.008,classification_task,2021.2.3,Win32,60.37918126,627c6715c52fd12f31907bcf,,,,,,,,,,,,,,,,,,,,,,,l,1,"[""0.086"",""0.799"",""0.444"",""0.839""]","[1,0,1,1]",0,53,53,53,1,1,0,,,1,FALSE,2.2599,,,,,,,,,,,,,,,,,,,,,,,,,,,,,,,
,5f6c343552bdce1aedca6ae1,627c67f24af4ba9f7127070d,2022-05-11_20h50.59.008,classification_task,2021.2.3,Win32,60.37918126,627c6715c52fd12f31907bcf,,,,,,,,,,,,,,,,,,,,,,,a,0,"[""0.052"",""0.405"",""0.540"",""0.230""]","[1,1,1,0]",0,54,54,54,1,1,1,,,1,FALSE,3.3106,,,,,,,,,,,,,,,,,,,,,,,,,,,,,,,
,5f6c343552bdce1aedca6ae1,627c67f24af4ba9f7127070d,2022-05-11_20h50.59.008,classification_task,2021.2.3,Win32,60.37918126,627c6715c52fd12f31907bcf,,,,,,,,,,,,,,,,,,,,,,,l,0,"[""0.272"",""0.365"",""0.873"",""0.804""]","[1,1,1,0]",0,55,55,55,1,0,1,,,1,FALSE,3.3645,,,,,,,,,,,,,,,,,,,,,,,,,,,,,,,
,5f6c343552bdce1aedca6ae1,627c67f24af4ba9f7127070d,2022-05-11_20h50.59.008,classification_task,2021.2.3,Win32,60.37918126,627c6715c52fd12f31907bcf,,,,,,,,,,,,,,,,,,,,,,,l,0,"[""0.272"",""0.365"",""0.214"",""0.967""]","[1,1,0,1]",0,56,56,56,1,0,1,,,1,FALSE,2.316,,,,,,,,,,,,,,,,,,,,,,,,,,,,,,,
,5f6c343552bdce1aedca6ae1,627c67f24af4ba9f7127070d,2022-05-11_20h50.59.008,classification_task,2021.2.3,Win32,60.37918126,627c6715c52fd12f31907bcf,,,,,,,,,,,,,,,,,,,,,,,a,1,"[""0.323"",""0.493"",""0.748"",""0.220""]","[1,1,1,0]",0,57,57,57,1,0,0,,,1,FALSE,2.2211,,,,,,,,,,,,,,,,,,,,,,,,,,,,,,,
,5f6c343552bdce1aedca6ae1,627c67f24af4ba9f7127070d,2022-05-11_20h50.59.008,classification_task,2021.2.3,Win32,60.37918126,627c6715c52fd12f31907bcf,,,,,,,,,,,,,,,,,,,,,,,l,1,"[""0.609"",""0.405"",""0.540"",""0.705""]","[0,1,1,1]",0,58,58,58,1,1,1,,,1,FALSE,3.7714,,,,,,,,,,,,,,,,,,,,,,,,,,,,,,,
,5f6c343552bdce1aedca6ae1,627c67f24af4ba9f7127070d,2022-05-11_20h50.59.008,classification_task,2021.2.3,Win32,60.37918126,627c6715c52fd12f31907bcf,,,,,,,,,,,,,,,,,,,,,,,a,1,"[""0.323"",""0.493"",""0.238"",""0.926""]","[1,1,0,1]",0,59,59,59,1,0,0,,,1,FALSE,3.5768,,,,,,,,,,,,,,,,,,,,,,,,,,,,,,,
,5f6c343552bdce1aedca6ae1,627c67f24af4ba9f7127070d,2022-05-11_20h50.59.008,classification_task,2021.2.3,Win32,60.37918126,627c6715c52fd12f31907bcf,,,,,,,,,,,,,,,,,,,,,,,l,0,"[""0.581"",""0.365"",""0.873"",""0.967""]","[0,1,1,1]",0,60,60,60,1,0,1,,,1,FALSE,2.6905,,,,,,,,,,,,,,,,,,,,,,,,,,,,,,,
,5f6c343552bdce1aedca6ae1,627c67f24af4ba9f7127070d,2022-05-11_20h50.59.008,classification_task,2021.2.3,Win32,60.37918126,627c6715c52fd12f31907bcf,,,,,,,,,,,,,,,,,,,,,,,a,1,"[""0.323"",""0.212"",""0.748"",""0.926""]","[1,0,1,1]",0,61,61,61,1,0,0,,,1,FALSE,1.7506,,,,,,,,,,,,,,,,,,,,,,,,,,,,,,,
,5f6c343552bdce1aedca6ae1,627c67f24af4ba9f7127070d,2022-05-11_20h50.59.008,classification_task,2021.2.3,Win32,60.37918126,627c6715c52fd12f31907bcf,,,,,,,,,,,,,,,,,,,,,,,a,0,"[""0.086"",""0.161"",""0.609"",""0.839""]","[1,1,0,1]",0,62,62,62,1,1,0,,,1,FALSE,2.1329,,,,,,,,,,,,,,,,,,,,,,,,,,,,,,,
,5f6c343552bdce1aedca6ae1,627c67f24af4ba9f7127070d,2022-05-11_20h50.59.008,classification_task,2021.2.3,Win32,60.37918126,627c6715c52fd12f31907bcf,,,,,,,,,,,,,,,,,,,,,,,a,0,"[""0.052"",""0.238"",""0.540"",""0.705""]","[1,0,1,1]",0,63,63,63,1,1,1,,,1,FALSE,4.1611,,,,,,,,,,,,,,,,,,,,,,,,,,,,,,,
,5f6c343552bdce1aedca6ae1,627c67f24af4ba9f7127070d,2022-05-11_20h50.59.008,classification_task,2021.2.3,Win32,60.37918126,627c6715c52fd12f31907bcf,,,,,,,,,,,,,,,,,,,,,,,,,,,,,,,,,,,,,,,0, ,,0,3.20877425,890.6452,0,0,0,0,1,2,1,,,,,,,,,,,,,,,,,,
,5f6c343552bdce1aedca6ae1,627c67f24af4ba9f7127070d,2022-05-11_20h50.59.008,classification_task,2021.2.3,Win32,60.37918126,627c6715c52fd12f31907bcf,,,,,,,,,,,,,,,,,,,,,,,,,,,,,,,,,,,,,,,1,  ,,0,9.753637566,894.1317,0,0,0,0,1,2,1,,,,,,,,,,,,,,,,,,
,5f6c343552bdce1aedca6ae1,627c67f24af4ba9f7127070d,2022-05-11_20h50.59.008,classification_task,2021.2.3,Win32,60.37918126,627c6715c52fd12f31907bcf,,,,,,,,,,,,,,,,,,,,,,,,,,,,,,,,,,,,,,,2,  ,,0,6.06784612,897.1141,0,0,0,0,1,2,1,,,,,,,,,,,,,,,,,,
,5f6c343552bdce1aedca6ae1,627c67f24af4ba9f7127070d,2022-05-11_20h50.59.008,classification_task,2021.2.3,Win32,60.37918126,627c6715c52fd12f31907bcf,,,,,,,,,,,,,,,,,,,,,,,,,,,,,,,,,,,,,,,,,,,,,0,0,0,0,1,,1,,,,,,,,,,,,,,,,,,
,5f6c343552bdce1aedca6ae1,627c67f24af4ba9f7127070d,2022-05-11_20h50.59.008,classification_task,2021.2.3,Win32,60.37918126,627c6715c52fd12f31907bcf,,,,,,,,,,,,,,,,,,,,,space,55.3216,a,1,"[""0.214"",""0.493"",""0.748"",""0.926""]","[0,1,1,1]",0,0,0,0,1,0,0,,,1,FALSE,5.5457,,,,,,,,,,,,,,,,,,,,,,,,,,,,,,,
,5f6c343552bdce1aedca6ae1,627c67f24af4ba9f7127070d,2022-05-11_20h50.59.008,classification_task,2021.2.3,Win32,60.37918126,627c6715c52fd12f31907bcf,,,,,,,,,,,,,,,,,,,,,,,l,1,"[""0.052"",""0.405"",""0.540"",""0.785""]","[1,1,1,0]",0,1,1,1,1,1,1,,,1,FALSE,2.4011,,,,,,,,,,,,,,,,,,,,,,,,,,,,,,,
,5f6c343552bdce1aedca6ae1,627c67f24af4ba9f7127070d,2022-05-11_20h50.59.008,classification_task,2021.2.3,Win32,60.37918126,627c6715c52fd12f31907bcf,,,,,,,,,,,,,,,,,,,,,,,a,1,"[""0.272"",""0.365"",""0.873"",""0.581""]","[1,1,1,0]",0,2,2,2,1,0,1,,,1,FALSE,0.7382,,,,,,,,,,,,,,,,,,,,,,,,,,,,,,,
,5f6c343552bdce1aedca6ae1,627c67f24af4ba9f7127070d,2022-05-11_20h50.59.008,classification_task,2021.2.3,Win32,60.37918126,627c6715c52fd12f31907bcf,,,,,,,,,,,,,,,,,,,,,,,l,1,"[""0.052"",""0.405"",""0.220"",""0.705""]","[1,1,0,1]",0,3,3,3,1,1,1,,,1,FALSE,0.9473,,,,,,,,,,,,,,,,,,,,,,,,,,,,,,,
,5f6c343552bdce1aedca6ae1,627c67f24af4ba9f7127070d,2022-05-11_20h50.59.008,classification_task,2021.2.3,Win32,60.37918126,627c6715c52fd12f31907bcf,,,,,,,,,,,,,,,,,,,,,,,l,1,"[""0.052"",""0.212"",""0.540"",""0.705""]","[1,0,1,1]",0,4,4,4,1,1,1,,,1,FALSE,0.8079,,,,,,,,,,,,,,,,,,,,,,,,,,,,,,,
,5f6c343552bdce1aedca6ae1,627c67f24af4ba9f7127070d,2022-05-11_20h50.59.008,classification_task,2021.2.3,Win32,60.37918126,627c6715c52fd12f31907bcf,,,,,,,,,,,,,,,,,,,,,,,a,1,"[""0.272"",""0.365"",""0.799"",""0.967""]","[1,1,0,1]",0,5,5,5,1,0,1,,,1,FALSE,0.5507,,,,,,,,,,,,,,,,,,,,,,,,,,,,,,,
,5f6c343552bdce1aedca6ae1,627c67f24af4ba9f7127070d,2022-05-11_20h50.59.008,classification_task,2021.2.3,Win32,60.37918126,627c6715c52fd12f31907bcf,,,,,,,,,,,,,,,,,,,,,,,a,1,"[""0.230"",""0.365"",""0.873"",""0.967""]","[0,1,1,1]",0,6,6,6,1,0,1,,,1,FALSE,0.8892,,,,,,,,,,,,,,,,,,,,,,,,,,,,,,,
,5f6c343552bdce1aedca6ae1,627c67f24af4ba9f7127070d,2022-05-11_20h50.59.008,classification_task,2021.2.3,Win32,60.37918126,627c6715c52fd12f31907bcf,,,,,,,,,,,,,,,,,,,,,,,a,0,"[""0.086"",""0.161"",""0.220"",""0.839""]","[1,1,0,1]",0,7,7,7,1,1,0,,,1,FALSE,2.1172,,,,,,,,,,,,,,,,,,,,,,,,,,,,,,,
,5f6c343552bdce1aedca6ae1,627c67f24af4ba9f7127070d,2022-05-11_20h50.59.008,classification_task,2021.2.3,Win32,60.37918126,627c6715c52fd12f31907bcf,,,,,,,,,,,,,,,,,,,,,,,a,1,"[""0.323"",""0.584"",""0.748"",""0.926""]","[1,0,1,1]",0,8,8,8,1,0,0,,,1,FALSE,1.3071,,,,,,,,,,,,,,,,,,,,,,,,,,,,,,,
,5f6c343552bdce1aedca6ae1,627c67f24af4ba9f7127070d,2022-05-11_20h50.59.008,classification_task,2021.2.3,Win32,60.37918126,627c6715c52fd12f31907bcf,,,,,,,,,,,,,,,,,,,,,,,l,1,"[""0.086"",""0.584"",""0.444"",""0.839""]","[1,0,1,1]",0,9,9,9,1,1,0,,,1,FALSE,2.2916,,,,,,,,,,,,,,,,,,,,,,,,,,,,,,,
,5f6c343552bdce1aedca6ae1,627c67f24af4ba9f7127070d,2022-05-11_20h50.59.008,classification_task,2021.2.3,Win32,60.37918126,627c6715c52fd12f31907bcf,,,,,,,,,,,,,,,,,,,,,,,a,0,"[""0.214"",""0.161"",""0.444"",""0.839""]","[0,1,1,1]",0,10,10,10,1,1,0,,,1,FALSE,1.3228,,,,,,,,,,,,,,,,,,,,,,,,,,,,,,,
,5f6c343552bdce1aedca6ae1,627c67f24af4ba9f7127070d,2022-05-11_20h50.59.008,classification_task,2021.2.3,Win32,60.37918126,627c6715c52fd12f31907bcf,,,,,,,,,,,,,,,,,,,,,,,l,1,"[""0.086"",""0.161"",""0.444"",""0.799""]","[1,1,1,0]",0,11,11,11,1,1,0,,,1,FALSE,2.5995,,,,,,,,,,,,,,,,,,,,,,,,,,,,,,,
,5f6c343552bdce1aedca6ae1,627c67f24af4ba9f7127070d,2022-05-11_20h50.59.008,classification_task,2021.2.3,Win32,60.37918126,627c6715c52fd12f31907bcf,,,,,,,,,,,,,,,,,,,,,,,a,1,"[""0.323"",""0.493"",""0.748"",""0.214""]","[1,1,1,0]",0,12,12,12,1,0,0,,,1,FALSE,1.0099,,,,,,,,,,,,,,,,,,,,,,,,,,,,,,,
,5f6c343552bdce1aedca6ae1,627c67f24af4ba9f7127070d,2022-05-11_20h50.59.008,classification_task,2021.2.3,Win32,60.37918126,627c6715c52fd12f31907bcf,,,,,,,,,,,,,,,,,,,,,,,l,0,"[""0.323"",""0.493"",""0.606"",""0.926""]","[1,1,0,1]",0,13,13,13,1,0,0,,,1,FALSE,6.7619,,,,,,,,,,,,,,,,,,,,,,,,,,,,,,,
,5f6c343552bdce1aedca6ae1,627c67f24af4ba9f7127070d,2022-05-11_20h50.59.008,classification_task,2021.2.3,Win32,60.37918126,627c6715c52fd12f31907bcf,,,,,,,,,,,,,,,,,,,,,,,a,1,"[""0.272"",""0.609"",""0.873"",""0.967""]","[1,0,1,1]",0,14,14,14,1,0,1,,,1,FALSE,1.7689,,,,,,,,,,,,,,,,,,,,,,,,,,,,,,,
,5f6c343552bdce1aedca6ae1,627c67f24af4ba9f7127070d,2022-05-11_20h50.59.008,classification_task,2021.2.3,Win32,60.37918126,627c6715c52fd12f31907bcf,,,,,,,,,,,,,,,,,,,,,,,l,1,"[""0.581"",""0.405"",""0.540"",""0.705""]","[0,1,1,1]",0,15,15,15,1,1,1,,,1,FALSE,1.1023,,,,,,,,,,,,,,,,,,,,,,,,,,,,,,,
,5f6c343552bdce1aedca6ae1,627c67f24af4ba9f7127070d,2022-05-11_20h50.59.008,classification_task,2021.2.3,Win32,60.37918126,627c6715c52fd12f31907bcf,,,,,,,,,,,,,,,,,,,,,,,a,0,"[""0.086"",""0.161"",""0.122"",""0.839""]","[1,1,0,1]",0,16,16,16,1,1,0,,,1,FALSE,2.4359,,,,,,,,,,,,,,,,,,,,,,,,,,,,,,,
,5f6c343552bdce1aedca6ae1,627c67f24af4ba9f7127070d,2022-05-11_20h50.59.008,classification_task,2021.2.3,Win32,60.37918126,627c6715c52fd12f31907bcf,,,,,,,,,,,,,,,,,,,,,,,a,1,"[""0.272"",""0.365"",""0.873"",""0.238""]","[1,1,1,0]",0,17,17,17,1,0,1,,,1,FALSE,1.642,,,,,,,,,,,,,,,,,,,,,,,,,,,,,,,
,5f6c343552bdce1aedca6ae1,627c67f24af4ba9f7127070d,2022-05-11_20h50.59.008,classification_task,2021.2.3,Win32,60.37918126,627c6715c52fd12f31907bcf,,,,,,,,,,,,,,,,,,,,,,,a,1,"[""0.272"",""0.212"",""0.873"",""0.967""]","[1,0,1,1]",0,18,18,18,1,0,1,,,1,FALSE,1.0357,,,,,,,,,,,,,,,,,,,,,,,,,,,,,,,
,5f6c343552bdce1aedca6ae1,627c67f24af4ba9f7127070d,2022-05-11_20h50.59.008,classification_task,2021.2.3,Win32,60.37918126,627c6715c52fd12f31907bcf,,,,,,,,,,,,,,,,,,,,,,,l,1,"[""0.052"",""0.212"",""0.540"",""0.705""]","[1,0,1,1]",0,19,19,19,1,1,1,,,1,FALSE,0.7727,,,,,,,,,,,,,,,,,,,,,,,,,,,,,,,
,5f6c343552bdce1aedca6ae1,627c67f24af4ba9f7127070d,2022-05-11_20h50.59.008,classification_task,2021.2.3,Win32,60.37918126,627c6715c52fd12f31907bcf,,,,,,,,,,,,,,,,,,,,,,,a,1,"[""0.272"",""0.365"",""0.785"",""0.967""]","[1,1,0,1]",0,20,20,20,1,0,1,,,1,FALSE,0.741,,,,,,,,,,,,,,,,,,,,,,,,,,,,,,,
,5f6c343552bdce1aedca6ae1,627c67f24af4ba9f7127070d,2022-05-11_20h50.59.008,classification_task,2021.2.3,Win32,60.37918126,627c6715c52fd12f31907bcf,,,,,,,,,,,,,,,,,,,,,,,l,0,"[""0.323"",""0.238"",""0.748"",""0.926""]","[1,0,1,1]",0,21,21,21,1,0,0,,,1,FALSE,1.6551,,,,,,,,,,,,,,,,,,,,,,,,,,,,,,,
,5f6c343552bdce1aedca6ae1,627c67f24af4ba9f7127070d,2022-05-11_20h50.59.008,classification_task,2021.2.3,Win32,60.37918126,627c6715c52fd12f31907bcf,,,,,,,,,,,,,,,,,,,,,,,a,1,"[""0.212"",""0.365"",""0.873"",""0.967""]","[0,1,1,1]",0,22,22,22,1,0,1,,,1,FALSE,0.8781,,,,,,,,,,,,,,,,,,,,,,,,,,,,,,,
,5f6c343552bdce1aedca6ae1,627c67f24af4ba9f7127070d,2022-05-11_20h50.59.008,classification_task,2021.2.3,Win32,60.37918126,627c6715c52fd12f31907bcf,,,,,,,,,,,,,,,,,,,,,,,l,1,"[""0.052"",""0.405"",""0.212"",""0.705""]","[1,1,0,1]",0,23,23,23,1,1,1,,,1,FALSE,1.0532,,,,,,,,,,,,,,,,,,,,,,,,,,,,,,,
,5f6c343552bdce1aedca6ae1,627c67f24af4ba9f7127070d,2022-05-11_20h50.59.008,classification_task,2021.2.3,Win32,60.37918126,627c6715c52fd12f31907bcf,,,,,,,,,,,,,,,,,,,,,,,a,1,"[""0.323"",""0.493"",""0.799"",""0.926""]","[1,1,0,1]",0,24,24,24,1,0,0,,,1,FALSE,5.706,,,,,,,,,,,,,,,,,,,,,,,,,,,,,,,
,5f6c343552bdce1aedca6ae1,627c67f24af4ba9f7127070d,2022-05-11_20h50.59.008,classification_task,2021.2.3,Win32,60.37918126,627c6715c52fd12f31907bcf,,,,,,,,,,,,,,,,,,,,,,,l,0,"[""0.323"",""0.493"",""0.748"",""0.238""]","[1,1,1,0]",0,25,25,25,1,0,0,,,1,FALSE,1.735,,,,,,,,,,,,,,,,,,,,,,,,,,,,,,,
,5f6c343552bdce1aedca6ae1,627c67f24af4ba9f7127070d,2022-05-11_20h50.59.008,classification_task,2021.2.3,Win32,60.37918126,627c6715c52fd12f31907bcf,,,,,,,,,,,,,,,,,,,,,,,l,1,"[""0.052"",""0.405"",""0.540"",""0.577""]","[1,1,1,0]",0,26,26,26,1,1,1,,,1,FALSE,0.8109,,,,,,,,,,,,,,,,,,,,,,,,,,,,,,,
,5f6c343552bdce1aedca6ae1,627c67f24af4ba9f7127070d,2022-05-11_20h50.59.008,classification_task,2021.2.3,Win32,60.37918126,627c6715c52fd12f31907bcf,,,,,,,,,,,,,,,,,,,,,,,l,0,"[""0.122"",""0.493"",""0.748"",""0.926""]","[0,1,1,1]",0,27,27,27,1,0,0,,,1,FALSE,2.8965,,,,,,,,,,,,,,,,,,,,,,,,,,,,,,,
,5f6c343552bdce1aedca6ae1,627c67f24af4ba9f7127070d,2022-05-11_20h50.59.008,classification_task,2021.2.3,Win32,60.37918126,627c6715c52fd12f31907bcf,,,,,,,,,,,,,,,,,,,,,,,a,0,"[""0.086"",""0.161"",""0.444"",""0.602""]","[1,1,1,0]",0,28,28,28,1,1,0,,,1,FALSE,2.2519,,,,,,,,,,,,,,,,,,,,,,,,,,,,,,,
,5f6c343552bdce1aedca6ae1,627c67f24af4ba9f7127070d,2022-05-11_20h50.59.008,classification_task,2021.2.3,Win32,60.37918126,627c6715c52fd12f31907bcf,,,,,,,,,,,,,,,,,,,,,,,l,1,"[""0.581"",""0.405"",""0.540"",""0.705""]","[0,1,1,1]",0,29,29,29,1,1,1,,,1,FALSE,0.8466,,,,,,,,,,,,,,,,,,,,,,,,,,,,,,,
,5f6c343552bdce1aedca6ae1,627c67f24af4ba9f7127070d,2022-05-11_20h50.59.008,classification_task,2021.2.3,Win32,60.37918126,627c6715c52fd12f31907bcf,,,,,,,,,,,,,,,,,,,,,,,l,1,"[""0.220"",""0.161"",""0.444"",""0.839""]","[0,1,1,1]",0,30,30,30,1,1,0,,,1,FALSE,1.1426,,,,,,,,,,,,,,,,,,,,,,,,,,,,,,,
,5f6c343552bdce1aedca6ae1,627c67f24af4ba9f7127070d,2022-05-11_20h50.59.008,classification_task,2021.2.3,Win32,60.37918126,627c6715c52fd12f31907bcf,,,,,,,,,,,,,,,,,,,,,,,a,0,"[""0.086"",""0.606"",""0.444"",""0.839""]","[1,0,1,1]",0,31,31,31,1,1,0,,,1,FALSE,1.2856,,,,,,,,,,,,,,,,,,,,,,,,,,,,,,,
,5f6c343552bdce1aedca6ae1,627c67f24af4ba9f7127070d,2022-05-11_20h50.59.008,classification_task,2021.2.3,Win32,60.37918126,627c6715c52fd12f31907bcf,,,,,,,,,,,,,,,,,,,,,,,a,1,"[""0.272"",""0.785"",""0.873"",""0.967""]","[1,0,1,1]",0,32,32,32,1,0,1,,,1,FALSE,1.1605,,,,,,,,,,,,,,,,,,,,,,,,,,,,,,,
,5f6c343552bdce1aedca6ae1,627c67f24af4ba9f7127070d,2022-05-11_20h50.59.008,classification_task,2021.2.3,Win32,60.37918126,627c6715c52fd12f31907bcf,,,,,,,,,,,,,,,,,,,,,,,a,1,"[""0.272"",""0.365"",""0.602"",""0.967""]","[1,1,0,1]",0,33,33,33,1,0,1,,,1,FALSE,1.0823,,,,,,,,,,,,,,,,,,,,,,,,,,,,,,,
,5f6c343552bdce1aedca6ae1,627c67f24af4ba9f7127070d,2022-05-11_20h50.59.008,classification_task,2021.2.3,Win32,60.37918126,627c6715c52fd12f31907bcf,,,,,,,,,,,,,,,,,,,,,,,a,1,"[""0.272"",""0.365"",""0.873"",""0.212""]","[1,1,1,0]",0,34,34,34,1,0,1,,,1,FALSE,0.7289,,,,,,,,,,,,,,,,,,,,,,,,,,,,,,,
,5f6c343552bdce1aedca6ae1,627c67f24af4ba9f7127070d,2022-05-11_20h50.59.008,classification_task,2021.2.3,Win32,60.37918126,627c6715c52fd12f31907bcf,,,,,,,,,,,,,,,,,,,,,,,l,0,"[""0.323"",""0.493"",""0.748"",""0.785""]","[1,1,1,0]",0,35,35,35,1,0,0,,,1,FALSE,1.5902,,,,,,,,,,,,,,,,,,,,,,,,,,,,,,,
,5f6c343552bdce1aedca6ae1,627c67f24af4ba9f7127070d,2022-05-11_20h50.59.008,classification_task,2021.2.3,Win32,60.37918126,627c6715c52fd12f31907bcf,,,,,,,,,,,,,,,,,,,,,,,a,0,"[""0.086"",""0.161"",""0.444"",""0.799""]","[1,1,1,0]",0,36,36,36,1,1,0,,,1,FALSE,1.1991,,,,,,,,,,,,,,,,,,,,,,,,,,,,,,,
,5f6c343552bdce1aedca6ae1,627c67f24af4ba9f7127070d,2022-05-11_20h50.59.008,classification_task,2021.2.3,Win32,60.37918126,627c6715c52fd12f31907bcf,,,,,,,,,,,,,,,,,,,,,,,a,1,"[""0.581"",""0.365"",""0.873"",""0.967""]","[0,1,1,1]",0,37,37,37,1,0,1,,,1,FALSE,0.9109,,,,,,,,,,,,,,,,,,,,,,,,,,,,,,,
,5f6c343552bdce1aedca6ae1,627c67f24af4ba9f7127070d,2022-05-11_20h50.59.008,classification_task,2021.2.3,Win32,60.37918126,627c6715c52fd12f31907bcf,,,,,,,,,,,,,,,,,,,,,,,a,1,"[""0.212"",""0.493"",""0.748"",""0.926""]","[0,1,1,1]",0,38,38,38,1,0,0,,,1,FALSE,1.8382,,,,,,,,,,,,,,,,,,,,,,,,,,,,,,,
,5f6c343552bdce1aedca6ae1,627c67f24af4ba9f7127070d,2022-05-11_20h50.59.008,classification_task,2021.2.3,Win32,60.37918126,627c6715c52fd12f31907bcf,,,,,,,,,,,,,,,,,,,,,,,a,0,"[""0.609"",""0.161"",""0.444"",""0.839""]","[0,1,1,1]",0,39,39,39,1,1,0,,,1,FALSE,1.0122,,,,,,,,,,,,,,,,,,,,,,,,,,,,,,,
,5f6c343552bdce1aedca6ae1,627c67f24af4ba9f7127070d,2022-05-11_20h50.59.008,classification_task,2021.2.3,Win32,60.37918126,627c6715c52fd12f31907bcf,,,,,,,,,,,,,,,,,,,,,,,a,0,"[""0.086"",""0.161"",""0.581"",""0.839""]","[1,1,0,1]",0,40,40,40,1,1,0,,,1,FALSE,5.4885,,,,,,,,,,,,,,,,,,,,,,,,,,,,,,,
,5f6c343552bdce1aedca6ae1,627c67f24af4ba9f7127070d,2022-05-11_20h50.59.008,classification_task,2021.2.3,Win32,60.37918126,627c6715c52fd12f31907bcf,,,,,,,,,,,,,,,,,,,,,,,l,1,"[""0.086"",""0.799"",""0.444"",""0.839""]","[1,0,1,1]",0,41,41,41,1,1,0,,,1,FALSE,1.0394,,,,,,,,,,,,,,,,,,,,,,,,,,,,,,,
,5f6c343552bdce1aedca6ae1,627c67f24af4ba9f7127070d,2022-05-11_20h50.59.008,classification_task,2021.2.3,Win32,60.37918126,627c6715c52fd12f31907bcf,,,,,,,,,,,,,,,,,,,,,,,l,1,"[""0.052"",""0.214"",""0.540"",""0.705""]","[1,0,1,1]",0,42,42,42,1,1,1,,,1,FALSE,0.8426,,,,,,,,,,,,,,,,,,,,,,,,,,,,,,,
,5f6c343552bdce1aedca6ae1,627c67f24af4ba9f7127070d,2022-05-11_20h50.59.008,classification_task,2021.2.3,Win32,60.37918126,627c6715c52fd12f31907bcf,,,,,,,,,,,,,,,,,,,,,,,l,1,"[""0.052"",""0.405"",""0.540"",""0.602""]","[1,1,1,0]",0,43,43,43,1,1,1,,,1,FALSE,0.5245,,,,,,,,,,,,,,,,,,,,,,,,,,,,,,,
,5f6c343552bdce1aedca6ae1,627c67f24af4ba9f7127070d,2022-05-11_20h50.59.008,classification_task,2021.2.3,Win32,60.37918126,627c6715c52fd12f31907bcf,,,,,,,,,,,,,,,,,,,,,,,a,1,"[""0.323"",""0.230"",""0.748"",""0.926""]","[1,0,1,1]",0,44,44,44,1,0,0,,,1,FALSE,5.8284,,,,,,,,,,,,,,,,,,,,,,,,,,,,,,,
,5f6c343552bdce1aedca6ae1,627c67f24af4ba9f7127070d,2022-05-11_20h50.59.008,classification_task,2021.2.3,Win32,60.37918126,627c6715c52fd12f31907bcf,,,,,,,,,,,,,,,,,,,,,,,l,1,"[""0.052"",""0.405"",""0.602"",""0.705""]","[1,1,0,1]",0,45,45,45,1,1,1,,,1,FALSE,0.8554,,,,,,,,,,,,,,,,,,,,,,,,,,,,,,,
,5f6c343552bdce1aedca6ae1,627c67f24af4ba9f7127070d,2022-05-11_20h50.59.008,classification_task,2021.2.3,Win32,60.37918126,627c6715c52fd12f31907bcf,,,,,,,,,,,,,,,,,,,,,,,l,1,"[""0.220"",""0.405"",""0.540"",""0.705""]","[0,1,1,1]",0,46,46,46,1,1,1,,,1,FALSE,0.5057,,,,,,,,,,,,,,,,,,,,,,,,,,,,,,,
,5f6c343552bdce1aedca6ae1,627c67f24af4ba9f7127070d,2022-05-11_20h50.59.008,classification_task,2021.2.3,Win32,60.37918126,627c6715c52fd12f31907bcf,,,,,,,,,,,,,,,,,,,,,,,l,0,"[""0.323"",""0.493"",""0.230"",""0.926""]","[1,1,0,1]",0,47,47,47,1,0,0,,,1,FALSE,2.12,,,,,,,,,,,,,,,,,,,,,,,,,,,,,,,
,5f6c343552bdce1aedca6ae1,627c67f24af4ba9f7127070d,2022-05-11_20h50.59.008,classification_task,2021.2.3,Win32,60.37918126,627c6715c52fd12f31907bcf,,,,,,,,,,,,,,,,,,,,,,,a,1,"[""0.323"",""0.785"",""0.748"",""0.926""]","[1,0,1,1]",0,48,48,48,1,0,0,,,1,FALSE,0.9355,,,,,,,,,,,,,,,,,,,,,,,,,,,,,,,
,5f6c343552bdce1aedca6ae1,627c67f24af4ba9f7127070d,2022-05-11_20h50.59.008,classification_task,2021.2.3,Win32,60.37918126,627c6715c52fd12f31907bcf,,,,,,,,,,,,,,,,,,,,,,,l,1,"[""0.799"",""0.161"",""0.444"",""0.839""]","[0,1,1,1]",0,49,49,49,1,1,0,,,1,FALSE,1.7139,,,,,,,,,,,,,,,,,,,,,,,,,,,,,,,
,5f6c343552bdce1aedca6ae1,627c67f24af4ba9f7127070d,2022-05-11_20h50.59.008,classification_task,2021.2.3,Win32,60.37918126,627c6715c52fd12f31907bcf,,,,,,,,,,,,,,,,,,,,,,,a,0,"[""0.086"",""0.161"",""0.444"",""0.238""]","[1,1,1,0]",0,50,50,50,1,1,0,,,1,FALSE,0.9413,,,,,,,,,,,,,,,,,,,,,,,,,,,,,,,
,5f6c343552bdce1aedca6ae1,627c67f24af4ba9f7127070d,2022-05-11_20h50.59.008,classification_task,2021.2.3,Win32,60.37918126,627c6715c52fd12f31907bcf,,,,,,,,,,,,,,,,,,,,,,,a,0,"[""0.086"",""0.584"",""0.444"",""0.839""]","[1,0,1,1]",0,51,51,51,1,1,0,,,1,FALSE,6.8074,,,,,,,,,,,,,,,,,,,,,,,,,,,,,,,
,5f6c343552bdce1aedca6ae1,627c67f24af4ba9f7127070d,2022-05-11_20h50.59.008,classification_task,2021.2.3,Win32,60.37918126,627c6715c52fd12f31907bcf,,,,,,,,,,,,,,,,,,,,,,,a,1,"[""0.323"",""0.493"",""0.748"",""0.804""]","[1,1,1,0]",0,52,52,52,1,0,0,,,1,FALSE,1.6036,,,,,,,,,,,,,,,,,,,,,,,,,,,,,,,
,5f6c343552bdce1aedca6ae1,627c67f24af4ba9f7127070d,2022-05-11_20h50.59.008,classification_task,2021.2.3,Win32,60.37918126,627c6715c52fd12f31907bcf,,,,,,,,,,,,,,,,,,,,,,,a,1,"[""0.272"",""0.609"",""0.873"",""0.967""]","[1,0,1,1]",0,53,53,53,1,0,1,,,1,FALSE,1.1195,,,,,,,,,,,,,,,,,,,,,,,,,,,,,,,
,5f6c343552bdce1aedca6ae1,627c67f24af4ba9f7127070d,2022-05-11_20h50.59.008,classification_task,2021.2.3,Win32,60.37918126,627c6715c52fd12f31907bcf,,,,,,,,,,,,,,,,,,,,,,,l,1,"[""0.052"",""0.122"",""0.540"",""0.705""]","[1,0,1,1]",0,54,54,54,1,1,1,,,1,FALSE,0.6891,,,,,,,,,,,,,,,,,,,,,,,,,,,,,,,
,5f6c343552bdce1aedca6ae1,627c67f24af4ba9f7127070d,2022-05-11_20h50.59.008,classification_task,2021.2.3,Win32,60.37918126,627c6715c52fd12f31907bcf,,,,,,,,,,,,,,,,,,,,,,,l,1,"[""0.086"",""0.161"",""0.212"",""0.839""]","[1,1,0,1]",0,55,55,55,1,1,0,,,1,FALSE,1.5568,,,,,,,,,,,,,,,,,,,,,,,,,,,,,,,
,5f6c343552bdce1aedca6ae1,627c67f24af4ba9f7127070d,2022-05-11_20h50.59.008,classification_task,2021.2.3,Win32,60.37918126,627c6715c52fd12f31907bcf,,,,,,,,,,,,,,,,,,,,,,,a,1,"[""0.323"",""0.493"",""0.799"",""0.926""]","[1,1,0,1]",0,56,56,56,1,0,0,,,1,FALSE,0.7919,,,,,,,,,,,,,,,,,,,,,,,,,,,,,,,
,5f6c343552bdce1aedca6ae1,627c67f24af4ba9f7127070d,2022-05-11_20h50.59.008,classification_task,2021.2.3,Win32,60.37918126,627c6715c52fd12f31907bcf,,,,,,,,,,,,,,,,,,,,,,,a,1,"[""0.272"",""0.365"",""0.873"",""0.581""]","[1,1,1,0]",0,57,57,57,1,0,1,,,1,FALSE,0.7301,,,,,,,,,,,,,,,,,,,,,,,,,,,,,,,
,5f6c343552bdce1aedca6ae1,627c67f24af4ba9f7127070d,2022-05-11_20h50.59.008,classification_task,2021.2.3,Win32,60.37918126,627c6715c52fd12f31907bcf,,,,,,,,,,,,,,,,,,,,,,,l,1,"[""0.052"",""0.405"",""0.540"",""0.581""]","[1,1,1,0]",0,58,58,58,1,1,1,,,1,FALSE,0.7193,,,,,,,,,,,,,,,,,,,,,,,,,,,,,,,
,5f6c343552bdce1aedca6ae1,627c67f24af4ba9f7127070d,2022-05-11_20h50.59.008,classification_task,2021.2.3,Win32,60.37918126,627c6715c52fd12f31907bcf,,,,,,,,,,,,,,,,,,,,,,,a,1,"[""0.238"",""0.493"",""0.748"",""0.926""]","[0,1,1,1]",0,59,59,59,1,0,0,,,1,FALSE,1.532,,,,,,,,,,,,,,,,,,,,,,,,,,,,,,,
,5f6c343552bdce1aedca6ae1,627c67f24af4ba9f7127070d,2022-05-11_20h50.59.008,classification_task,2021.2.3,Win32,60.37918126,627c6715c52fd12f31907bcf,,,,,,,,,,,,,,,,,,,,,,,a,1,"[""0.606"",""0.365"",""0.873"",""0.967""]","[0,1,1,1]",0,60,60,60,1,0,1,,,1,FALSE,0.7121,,,,,,,,,,,,,,,,,,,,,,,,,,,,,,,
,5f6c343552bdce1aedca6ae1,627c67f24af4ba9f7127070d,2022-05-11_20h50.59.008,classification_task,2021.2.3,Win32,60.37918126,627c6715c52fd12f31907bcf,,,,,,,,,,,,,,,,,,,,,,,l,1,"[""0.052"",""0.405"",""0.799"",""0.705""]","[1,1,0,1]",0,61,61,61,1,1,1,,,1,FALSE,0.5929,,,,,,,,,,,,,,,,,,,,,,,,,,,,,,,
,5f6c343552bdce1aedca6ae1,627c67f24af4ba9f7127070d,2022-05-11_20h50.59.008,classification_task,2021.2.3,Win32,60.37918126,627c6715c52fd12f31907bcf,,,,,,,,,,,,,,,,,,,,,,,a,1,"[""0.272"",""0.365"",""0.212"",""0.967""]","[1,1,0,1]",0,62,62,62,1,0,1,,,1,FALSE,0.7099,,,,,,,,,,,,,,,,,,,,,,,,,,,,,,,
,5f6c343552bdce1aedca6ae1,627c67f24af4ba9f7127070d,2022-05-11_20h50.59.008,classification_task,2021.2.3,Win32,60.37918126,627c6715c52fd12f31907bcf,,,,,,,,,,,,,,,,,,,,,,,l,1,"[""0.606"",""0.405"",""0.540"",""0.705""]","[0,1,1,1]",0,63,63,63,1,1,1,,,1,FALSE,0.539,,,,,,,,,,,,,,,,,,,,,,,,,,,,,,,
,5f6c343552bdce1aedca6ae1,627c67f24af4ba9f7127070d,2022-05-11_20h50.59.008,classification_task,2021.2.3,Win32,60.37918126,627c6715c52fd12f31907bcf,,,,,,,,,,,,,,,,,,,,,,,,,,,,,,,,,,,,,,,0, ,,0,2.244268078,247.1311,0,1,1,1,1,2,2,,,,,,,,,,,,,,,,,,
,5f6c343552bdce1aedca6ae1,627c67f24af4ba9f7127070d,2022-05-11_20h50.59.008,classification_task,2021.2.3,Win32,60.37918126,627c6715c52fd12f31907bcf,,,,,,,,,,,,,,,,,,,,,,,,,,,,,,,,,,,,,,,1,  ,,0,10,267.8938,0,1,1,1,1,2,2,,,,,,,,,,,,,,,,,,
,5f6c343552bdce1aedca6ae1,627c67f24af4ba9f7127070d,2022-05-11_20h50.59.008,classification_task,2021.2.3,Win32,60.37918126,627c6715c52fd12f31907bcf,,,,,,,,,,,,,,,,,,,,,,,,,,,,,,,,,,,,,,,2,  ,,0,9.478064374,269.7016,0,1,1,1,1,2,2,,,,,,,,,,,,,,,,,,
,5f6c343552bdce1aedca6ae1,627c67f24af4ba9f7127070d,2022-05-11_20h50.59.008,classification_task,2021.2.3,Win32,60.37918126,627c6715c52fd12f31907bcf,,,,,,,,,,,,,,,,,,,,,,,,,,,,,,,,,,,,,,,,,,,,,0,1,1,1,1,,2,,,,,,,,,,,,,,,,,,
,5f6c343552bdce1aedca6ae1,627c67f24af4ba9f7127070d,2022-05-11_20h50.59.008,classification_task,2021.2.3,Win32,60.37918126,627c6715c52fd12f31907bcf,,,,,,,,,,,,,,,,,,,,,space,11.0901,a,0,"[""0.086"",""0.577"",""0.444"",""0.839""]","[1,0,1,1]",0,0,0,0,1,1,0,,,1,FALSE,2.0203,,,,,,,,,,,,,,,,,,,,,,,,,,,,,,,
,5f6c343552bdce1aedca6ae1,627c67f24af4ba9f7127070d,2022-05-11_20h50.59.008,classification_task,2021.2.3,Win32,60.37918126,627c6715c52fd12f31907bcf,,,,,,,,,,,,,,,,,,,,,,,a,0,"[""0.052"",""0.122"",""0.540"",""0.705""]","[1,0,1,1]",0,1,1,1,1,1,1,,,1,FALSE,1.2848,,,,,,,,,,,,,,,,,,,,,,,,,,,,,,,
,5f6c343552bdce1aedca6ae1,627c67f24af4ba9f7127070d,2022-05-11_20h50.59.008,classification_task,2021.2.3,Win32,60.37918126,627c6715c52fd12f31907bcf,,,,,,,,,,,,,,,,,,,,,,,l,1,"[""0.086"",""0.161"",""0.804"",""0.839""]","[1,1,0,1]",0,2,2,2,1,1,0,,,1,FALSE,1.5058,,,,,,,,,,,,,,,,,,,,,,,,,,,,,,,
,5f6c343552bdce1aedca6ae1,627c67f24af4ba9f7127070d,2022-05-11_20h50.59.008,classification_task,2021.2.3,Win32,60.37918126,627c6715c52fd12f31907bcf,,,,,,,,,,,,,,,,,,,,,,,l,1,"[""0.212"",""0.161"",""0.444"",""0.839""]","[0,1,1,1]",0,3,3,3,1,1,0,,,1,FALSE,2.7696,,,,,,,,,,,,,,,,,,,,,,,,,,,,,,,
,5f6c343552bdce1aedca6ae1,627c67f24af4ba9f7127070d,2022-05-11_20h50.59.008,classification_task,2021.2.3,Win32,60.37918126,627c6715c52fd12f31907bcf,,,,,,,,,,,,,,,,,,,,,,,a,1,"[""0.122"",""0.365"",""0.873"",""0.967""]","[0,1,1,1]",0,4,4,4,1,0,1,,,1,FALSE,1.5875,,,,,,,,,,,,,,,,,,,,,,,,,,,,,,,
,5f6c343552bdce1aedca6ae1,627c67f24af4ba9f7127070d,2022-05-11_20h50.59.008,classification_task,2021.2.3,Win32,60.37918126,627c6715c52fd12f31907bcf,,,,,,,,,,,,,,,,,,,,,,,a,0,"[""0.086"",""0.161"",""0.444"",""0.122""]","[1,1,1,0]",0,5,5,5,1,1,0,,,1,FALSE,1.6035,,,,,,,,,,,,,,,,,,,,,,,,,,,,,,,
,5f6c343552bdce1aedca6ae1,627c67f24af4ba9f7127070d,2022-05-11_20h50.59.008,classification_task,2021.2.3,Win32,60.37918126,627c6715c52fd12f31907bcf,,,,,,,,,,,,,,,,,,,,,,,l,0,"[""0.272"",""0.606"",""0.873"",""0.967""]","[1,0,1,1]",0,6,6,6,1,0,1,,,1,FALSE,5.1914,,,,,,,,,,,,,,,,,,,,,,,,,,,,,,,
,5f6c343552bdce1aedca6ae1,627c67f24af4ba9f7127070d,2022-05-11_20h50.59.008,classification_task,2021.2.3,Win32,60.37918126,627c6715c52fd12f31907bcf,,,,,,,,,,,,,,,,,,,,,,,l,0,"[""0.272"",""0.365"",""0.873"",""0.581""]","[1,1,1,0]",0,7,7,7,1,0,1,,,1,FALSE,2.3662,,,,,,,,,,,,,,,,,,,,,,,,,,,,,,,
,5f6c343552bdce1aedca6ae1,627c67f24af4ba9f7127070d,2022-05-11_20h50.59.008,classification_task,2021.2.3,Win32,60.37918126,627c6715c52fd12f31907bcf,,,,,,,,,,,,,,,,,,,,,,,a,1,"[""0.323"",""0.212"",""0.748"",""0.926""]","[1,0,1,1]",0,8,8,8,1,0,0,,,1,FALSE,1.0339,,,,,,,,,,,,,,,,,,,,,,,,,,,,,,,
,5f6c343552bdce1aedca6ae1,627c67f24af4ba9f7127070d,2022-05-11_20h50.59.008,classification_task,2021.2.3,Win32,60.37918126,627c6715c52fd12f31907bcf,,,,,,,,,,,,,,,,,,,,,,,l,0,"[""0.122"",""0.493"",""0.748"",""0.926""]","[0,1,1,1]",0,9,9,9,1,0,0,,,1,FALSE,2.205,,,,,,,,,,,,,,,,,,,,,,,,,,,,,,,
,5f6c343552bdce1aedca6ae1,627c67f24af4ba9f7127070d,2022-05-11_20h50.59.008,classification_task,2021.2.3,Win32,60.37918126,627c6715c52fd12f31907bcf,,,,,,,,,,,,,,,,,,,,,,,a,0,"[""0.052"",""0.405"",""0.540"",""0.230""]","[1,1,1,0]",0,10,10,10,1,1,1,,,1,FALSE,0.741,,,,,,,,,,,,,,,,,,,,,,,,,,,,,,,
,5f6c343552bdce1aedca6ae1,627c67f24af4ba9f7127070d,2022-05-11_20h50.59.008,classification_task,2021.2.3,Win32,60.37918126,627c6715c52fd12f31907bcf,,,,,,,,,,,,,,,,,,,,,,,l,0,"[""0.272"",""0.365"",""0.220"",""0.967""]","[1,1,0,1]",0,11,11,11,1,0,1,,,1,FALSE,0.6694,,,,,,,,,,,,,,,,,,,,,,,,,,,,,,,
,5f6c343552bdce1aedca6ae1,627c67f24af4ba9f7127070d,2022-05-11_20h50.59.008,classification_task,2021.2.3,Win32,60.37918126,627c6715c52fd12f31907bcf,,,,,,,,,,,,,,,,,,,,,,,l,0,"[""0.323"",""0.493"",""0.230"",""0.926""]","[1,1,0,1]",0,12,12,12,1,0,0,,,1,FALSE,0.6451,,,,,,,,,,,,,,,,,,,,,,,,,,,,,,,
,5f6c343552bdce1aedca6ae1,627c67f24af4ba9f7127070d,2022-05-11_20h50.59.008,classification_task,2021.2.3,Win32,60.37918126,627c6715c52fd12f31907bcf,,,,,,,,,,,,,,,,,,,,,,,a,1,"[""0.323"",""0.493"",""0.748"",""0.122""]","[1,1,1,0]",0,13,13,13,1,0,0,,,1,FALSE,3.0201,,,,,,,,,,,,,,,,,,,,,,,,,,,,,,,
,5f6c343552bdce1aedca6ae1,627c67f24af4ba9f7127070d,2022-05-11_20h50.59.008,classification_task,2021.2.3,Win32,60.37918126,627c6715c52fd12f31907bcf,,,,,,,,,,,,,,,,,,,,,,,l,1,"[""0.212"",""0.405"",""0.540"",""0.705""]","[0,1,1,1]",0,14,14,14,1,1,1,,,1,FALSE,4.6883,,,,,,,,,,,,,,,,,,,,,,,,,,,,,,,
,5f6c343552bdce1aedca6ae1,627c67f24af4ba9f7127070d,2022-05-11_20h50.59.008,classification_task,2021.2.3,Win32,60.37918126,627c6715c52fd12f31907bcf,,,,,,,,,,,,,,,,,,,,,,,a,0,"[""0.052"",""0.405"",""0.220"",""0.705""]","[1,1,0,1]",0,15,15,15,1,1,1,,,1,FALSE,1.6147,,,,,,,,,,,,,,,,,,,,,,,,,,,,,,,
,5f6c343552bdce1aedca6ae1,627c67f24af4ba9f7127070d,2022-05-11_20h50.59.008,classification_task,2021.2.3,Win32,60.37918126,627c6715c52fd12f31907bcf,,,,,,,,,,,,,,,,,,,,,,,l,1,"[""0.086"",""0.161"",""0.220"",""0.839""]","[1,1,0,1]",0,16,16,16,1,1,0,,,1,FALSE,2.06,,,,,,,,,,,,,,,,,,,,,,,,,,,,,,,
,5f6c343552bdce1aedca6ae1,627c67f24af4ba9f7127070d,2022-05-11_20h50.59.008,classification_task,2021.2.3,Win32,60.37918126,627c6715c52fd12f31907bcf,,,,,,,,,,,,,,,,,,,,,,,a,1,"[""0.323"",""0.122"",""0.748"",""0.926""]","[1,0,1,1]",0,17,17,17,1,0,0,,,1,FALSE,1.3,,,,,,,,,,,,,,,,,,,,,,,,,,,,,,,
,5f6c343552bdce1aedca6ae1,627c67f24af4ba9f7127070d,2022-05-11_20h50.59.008,classification_task,2021.2.3,Win32,60.37918126,627c6715c52fd12f31907bcf,,,,,,,,,,,,,,,,,,,,,,,a,1,"[""0.272"",""0.365"",""0.873"",""0.230""]","[1,1,1,0]",0,18,18,18,1,0,1,,,1,FALSE,2.5633,,,,,,,,,,,,,,,,,,,,,,,,,,,,,,,
,5f6c343552bdce1aedca6ae1,627c67f24af4ba9f7127070d,2022-05-11_20h50.59.008,classification_task,2021.2.3,Win32,60.37918126,627c6715c52fd12f31907bcf,,,,,,,,,,,,,,,,,,,,,,,l,1,"[""0.052"",""0.405"",""0.540"",""0.577""]","[1,1,1,0]",0,19,19,19,1,1,1,,,1,FALSE,1.936,,,,,,,,,,,,,,,,,,,,,,,,,,,,,,,
,5f6c343552bdce1aedca6ae1,627c67f24af4ba9f7127070d,2022-05-11_20h50.59.008,classification_task,2021.2.3,Win32,60.37918126,627c6715c52fd12f31907bcf,,,,,,,,,,,,,,,,,,,,,,,l,0,"[""0.323"",""0.493"",""0.238"",""0.926""]","[1,1,0,1]",0,20,20,20,1,0,0,,,1,FALSE,2.9172,,,,,,,,,,,,,,,,,,,,,,,,,,,,,,,
,5f6c343552bdce1aedca6ae1,627c67f24af4ba9f7127070d,2022-05-11_20h50.59.008,classification_task,2021.2.3,Win32,60.37918126,627c6715c52fd12f31907bcf,,,,,,,,,,,,,,,,,,,,,,,a,1,"[""0.323"",""0.493"",""0.748"",""0.238""]","[1,1,1,0]",0,21,21,21,1,0,0,,,1,FALSE,2.652,,,,,,,,,,,,,,,,,,,,,,,,,,,,,,,
,5f6c343552bdce1aedca6ae1,627c67f24af4ba9f7127070d,2022-05-11_20h50.59.008,classification_task,2021.2.3,Win32,60.37918126,627c6715c52fd12f31907bcf,,,,,,,,,,,,,,,,,,,,,,,l,0,"[""0.606"",""0.493"",""0.748"",""0.926""]","[0,1,1,1]",0,22,22,22,1,0,0,,,1,FALSE,1.8935,,,,,,,,,,,,,,,,,,,,,,,,,,,,,,,
,5f6c343552bdce1aedca6ae1,627c67f24af4ba9f7127070d,2022-05-11_20h50.59.008,classification_task,2021.2.3,Win32,60.37918126,627c6715c52fd12f31907bcf,,,,,,,,,,,,,,,,,,,,,,,a,0,"[""0.086"",""0.220"",""0.444"",""0.839""]","[1,0,1,1]",0,23,23,23,1,1,0,,,1,FALSE,2.8898,,,,,,,,,,,,,,,,,,,,,,,,,,,,,,,
,5f6c343552bdce1aedca6ae1,627c67f24af4ba9f7127070d,2022-05-11_20h50.59.008,classification_task,2021.2.3,Win32,60.37918126,627c6715c52fd12f31907bcf,,,,,,,,,,,,,,,,,,,,,,,l,0,"[""0.804"",""0.365"",""0.873"",""0.967""]","[0,1,1,1]",0,24,24,24,1,0,1,,,1,FALSE,2.1049,,,,,,,,,,,,,,,,,,,,,,,,,,,,,,,
,5f6c343552bdce1aedca6ae1,627c67f24af4ba9f7127070d,2022-05-11_20h50.59.008,classification_task,2021.2.3,Win32,60.37918126,627c6715c52fd12f31907bcf,,,,,,,,,,,,,,,,,,,,,,,a,0,"[""0.086"",""0.161"",""0.444"",""0.214""]","[1,1,1,0]",0,25,25,25,1,1,0,,,1,FALSE,1.3541,,,,,,,,,,,,,,,,,,,,,,,,,,,,,,,
,5f6c343552bdce1aedca6ae1,627c67f24af4ba9f7127070d,2022-05-11_20h50.59.008,classification_task,2021.2.3,Win32,60.37918126,627c6715c52fd12f31907bcf,,,,,,,,,,,,,,,,,,,,,,,l,1,"[""0.214"",""0.405"",""0.540"",""0.705""]","[0,1,1,1]",0,26,26,26,1,1,1,,,1,FALSE,1.6353,,,,,,,,,,,,,,,,,,,,,,,,,,,,,,,
,5f6c343552bdce1aedca6ae1,627c67f24af4ba9f7127070d,2022-05-11_20h50.59.008,classification_task,2021.2.3,Win32,60.37918126,627c6715c52fd12f31907bcf,,,,,,,,,,,,,,,,,,,,,,,l,0,"[""0.272"",""0.212"",""0.873"",""0.967""]","[1,0,1,1]",0,27,27,27,1,0,1,,,1,FALSE,2.1255,,,,,,,,,,,,,,,,,,,,,,,,,,,,,,,
,5f6c343552bdce1aedca6ae1,627c67f24af4ba9f7127070d,2022-05-11_20h50.59.008,classification_task,2021.2.3,Win32,60.37918126,627c6715c52fd12f31907bcf,,,,,,,,,,,,,,,,,,,,,,,a,0,"[""0.052"",""0.238"",""0.540"",""0.705""]","[1,0,1,1]",0,28,28,28,1,1,1,,,1,FALSE,4.2285,,,,,,,,,,,,,,,,,,,,,,,,,,,,,,,
,5f6c343552bdce1aedca6ae1,627c67f24af4ba9f7127070d,2022-05-11_20h50.59.008,classification_task,2021.2.3,Win32,60.37918126,627c6715c52fd12f31907bcf,,,,,,,,,,,,,,,,,,,,,,,l,1,"[""0.052"",""0.405"",""0.230"",""0.705""]","[1,1,0,1]",0,29,29,29,1,1,1,,,1,FALSE,1.3753,,,,,,,,,,,,,,,,,,,,,,,,,,,,,,,
,5f6c343552bdce1aedca6ae1,627c67f24af4ba9f7127070d,2022-05-11_20h50.59.008,classification_task,2021.2.3,Win32,60.37918126,627c6715c52fd12f31907bcf,,,,,,,,,,,,,,,,,,,,,,,l,1,"[""0.122"",""0.161"",""0.444"",""0.839""]","[0,1,1,1]",0,30,30,30,1,1,0,,,1,FALSE,2.2392,,,,,,,,,,,,,,,,,,,,,,,,,,,,,,,
,5f6c343552bdce1aedca6ae1,627c67f24af4ba9f7127070d,2022-05-11_20h50.59.008,classification_task,2021.2.3,Win32,60.37918126,627c6715c52fd12f31907bcf,,,,,,,,,,,,,,,,,,,,,,,a,1,"[""0.272"",""0.365"",""0.609"",""0.967""]","[1,1,0,1]",0,31,31,31,1,0,1,,,1,FALSE,3.6156,,,,,,,,,,,,,,,,,,,,,,,,,,,,,,,
,5f6c343552bdce1aedca6ae1,627c67f24af4ba9f7127070d,2022-05-11_20h50.59.008,classification_task,2021.2.3,Win32,60.37918126,627c6715c52fd12f31907bcf,,,,,,,,,,,,,,,,,,,,,,,a,1,"[""0.323"",""0.493"",""0.748"",""0.238""]","[1,1,1,0]",0,32,32,32,1,0,0,,,1,FALSE,2.4352,,,,,,,,,,,,,,,,,,,,,,,,,,,,,,,
,5f6c343552bdce1aedca6ae1,627c67f24af4ba9f7127070d,2022-05-11_20h50.59.008,classification_task,2021.2.3,Win32,60.37918126,627c6715c52fd12f31907bcf,,,,,,,,,,,,,,,,,,,,,,,l,1,"[""0.052"",""0.405"",""0.799"",""0.705""]","[1,1,0,1]",0,33,33,33,1,1,1,,,1,FALSE,1.6207,,,,,,,,,,,,,,,,,,,,,,,,,,,,,,,
,5f6c343552bdce1aedca6ae1,627c67f24af4ba9f7127070d,2022-05-11_20h50.59.008,classification_task,2021.2.3,Win32,60.37918126,627c6715c52fd12f31907bcf,,,,,,,,,,,,,,,,,,,,,,,a,1,"[""0.323"",""0.609"",""0.748"",""0.926""]","[1,0,1,1]",0,34,34,34,1,0,0,,,1,FALSE,2.7063,,,,,,,,,,,,,,,,,,,,,,,,,,,,,,,
,5f6c343552bdce1aedca6ae1,627c67f24af4ba9f7127070d,2022-05-11_20h50.59.008,classification_task,2021.2.3,Win32,60.37918126,627c6715c52fd12f31907bcf,,,,,,,,,,,,,,,,,,,,,,,a,0,"[""0.052"",""0.609"",""0.540"",""0.705""]","[1,0,1,1]",0,35,35,35,1,1,1,,,1,FALSE,2.1568,,,,,,,,,,,,,,,,,,,,,,,,,,,,,,,
,5f6c343552bdce1aedca6ae1,627c67f24af4ba9f7127070d,2022-05-11_20h50.59.008,classification_task,2021.2.3,Win32,60.37918126,627c6715c52fd12f31907bcf,,,,,,,,,,,,,,,,,,,,,,,l,0,"[""0.272"",""0.602"",""0.873"",""0.967""]","[1,0,1,1]",0,36,36,36,1,0,1,,,1,FALSE,2.5847,,,,,,,,,,,,,,,,,,,,,,,,,,,,,,,
,5f6c343552bdce1aedca6ae1,627c67f24af4ba9f7127070d,2022-05-11_20h50.59.008,classification_task,2021.2.3,Win32,60.37918126,627c6715c52fd12f31907bcf,,,,,,,,,,,,,,,,,,,,,,,l,0,"[""0.272"",""0.365"",""0.602"",""0.967""]","[1,1,0,1]",0,37,37,37,1,0,1,,,1,FALSE,2.0022,,,,,,,,,,,,,,,,,,,,,,,,,,,,,,,
,5f6c343552bdce1aedca6ae1,627c67f24af4ba9f7127070d,2022-05-11_20h50.59.008,classification_task,2021.2.3,Win32,60.37918126,627c6715c52fd12f31907bcf,,,,,,,,,,,,,,,,,,,,,,,a,1,"[""0.785"",""0.493"",""0.748"",""0.926""]","[0,1,1,1]",0,38,38,38,1,0,0,,,1,FALSE,3.7684,,,,,,,,,,,,,,,,,,,,,,,,,,,,,,,
,5f6c343552bdce1aedca6ae1,627c67f24af4ba9f7127070d,2022-05-11_20h50.59.008,classification_task,2021.2.3,Win32,60.37918126,627c6715c52fd12f31907bcf,,,,,,,,,,,,,,,,,,,,,,,a,0,"[""0.086"",""0.161"",""0.444"",""0.212""]","[1,1,1,0]",0,39,39,39,1,1,0,,,1,FALSE,2.5309,,,,,,,,,,,,,,,,,,,,,,,,,,,,,,,
,5f6c343552bdce1aedca6ae1,627c67f24af4ba9f7127070d,2022-05-11_20h50.59.008,classification_task,2021.2.3,Win32,60.37918126,627c6715c52fd12f31907bcf,,,,,,,,,,,,,,,,,,,,,,,l,0,"[""0.272"",""0.365"",""0.873"",""0.577""]","[1,1,1,0]",0,40,40,40,1,0,1,,,1,FALSE,1.8668,,,,,,,,,,,,,,,,,,,,,,,,,,,,,,,
,5f6c343552bdce1aedca6ae1,627c67f24af4ba9f7127070d,2022-05-11_20h50.59.008,classification_task,2021.2.3,Win32,60.37918126,627c6715c52fd12f31907bcf,,,,,,,,,,,,,,,,,,,,,,,l,1,"[""0.086"",""0.161"",""0.214"",""0.839""]","[1,1,0,1]",0,41,41,41,1,1,0,,,1,FALSE,3.0002,,,,,,,,,,,,,,,,,,,,,,,,,,,,,,,
,5f6c343552bdce1aedca6ae1,627c67f24af4ba9f7127070d,2022-05-11_20h50.59.008,classification_task,2021.2.3,Win32,60.37918126,627c6715c52fd12f31907bcf,,,,,,,,,,,,,,,,,,,,,,,a,1,"[""0.214"",""0.365"",""0.873"",""0.967""]","[0,1,1,1]",0,42,42,42,1,0,1,,,1,FALSE,3.0715,,,,,,,,,,,,,,,,,,,,,,,,,,,,,,,
,5f6c343552bdce1aedca6ae1,627c67f24af4ba9f7127070d,2022-05-11_20h50.59.008,classification_task,2021.2.3,Win32,60.37918126,627c6715c52fd12f31907bcf,,,,,,,,,,,,,,,,,,,,,,,l,1,"[""0.052"",""0.405"",""0.540"",""0.122""]","[1,1,1,0]",0,43,43,43,1,1,1,,,1,FALSE,2.0502,,,,,,,,,,,,,,,,,,,,,,,,,,,,,,,
,5f6c343552bdce1aedca6ae1,627c67f24af4ba9f7127070d,2022-05-11_20h50.59.008,classification_task,2021.2.3,Win32,60.37918126,627c6715c52fd12f31907bcf,,,,,,,,,,,,,,,,,,,,,,,a,0,"[""0.086"",""0.799"",""0.444"",""0.839""]","[1,0,1,1]",0,44,44,44,1,1,0,,,1,FALSE,2.0708,,,,,,,,,,,,,,,,,,,,,,,,,,,,,,,
,5f6c343552bdce1aedca6ae1,627c67f24af4ba9f7127070d,2022-05-11_20h50.59.008,classification_task,2021.2.3,Win32,60.37918126,627c6715c52fd12f31907bcf,,,,,,,,,,,,,,,,,,,,,,,l,1,"[""0.220"",""0.405"",""0.540"",""0.705""]","[0,1,1,1]",0,45,45,45,1,1,1,,,1,FALSE,4.5347,,,,,,,,,,,,,,,,,,,,,,,,,,,,,,,
,5f6c343552bdce1aedca6ae1,627c67f24af4ba9f7127070d,2022-05-11_20h50.59.008,classification_task,2021.2.3,Win32,60.37918126,627c6715c52fd12f31907bcf,,,,,,,,,,,,,,,,,,,,,,,l,1,"[""0.220"",""0.161"",""0.444"",""0.839""]","[0,1,1,1]",0,46,46,46,1,1,0,,,1,FALSE,1.1348,,,,,,,,,,,,,,,,,,,,,,,,,,,,,,,
,5f6c343552bdce1aedca6ae1,627c67f24af4ba9f7127070d,2022-05-11_20h50.59.008,classification_task,2021.2.3,Win32,60.37918126,627c6715c52fd12f31907bcf,,,,,,,,,,,,,,,,,,,,,,,a,1,"[""0.323"",""0.493"",""0.602"",""0.926""]","[1,1,0,1]",0,47,47,47,1,0,0,,,1,FALSE,0.8918,,,,,,,,,,,,,,,,,,,,,,,,,,,,,,,
,5f6c343552bdce1aedca6ae1,627c67f24af4ba9f7127070d,2022-05-11_20h50.59.008,classification_task,2021.2.3,Win32,60.37918126,627c6715c52fd12f31907bcf,,,,,,,,,,,,,,,,,,,,,,,a,0,"[""0.602"",""0.405"",""0.540"",""0.705""]","[0,1,1,1]",0,48,48,48,1,1,1,,,1,FALSE,1.2367,,,,,,,,,,,,,,,,,,,,,,,,,,,,,,,
,5f6c343552bdce1aedca6ae1,627c67f24af4ba9f7127070d,2022-05-11_20h50.59.008,classification_task,2021.2.3,Win32,60.37918126,627c6715c52fd12f31907bcf,,,,,,,,,,,,,,,,,,,,,,,l,0,"[""0.323"",""0.493"",""0.748"",""0.602""]","[1,1,1,0]",0,49,49,49,1,0,0,,,1,FALSE,0.9615,,,,,,,,,,,,,,,,,,,,,,,,,,,,,,,
,5f6c343552bdce1aedca6ae1,627c67f24af4ba9f7127070d,2022-05-11_20h50.59.008,classification_task,2021.2.3,Win32,60.37918126,627c6715c52fd12f31907bcf,,,,,,,,,,,,,,,,,,,,,,,l,1,"[""0.052"",""0.405"",""0.785"",""0.705""]","[1,1,0,1]",0,50,50,50,1,1,1,,,1,FALSE,2.2545,,,,,,,,,,,,,,,,,,,,,,,,,,,,,,,
,5f6c343552bdce1aedca6ae1,627c67f24af4ba9f7127070d,2022-05-11_20h50.59.008,classification_task,2021.2.3,Win32,60.37918126,627c6715c52fd12f31907bcf,,,,,,,,,,,,,,,,,,,,,,,a,0,"[""0.052"",""0.405"",""0.540"",""0.606""]","[1,1,1,0]",0,51,51,51,1,1,1,,,1,FALSE,0.8616,,,,,,,,,,,,,,,,,,,,,,,,,,,,,,,
,5f6c343552bdce1aedca6ae1,627c67f24af4ba9f7127070d,2022-05-11_20h50.59.008,classification_task,2021.2.3,Win32,60.37918126,627c6715c52fd12f31907bcf,,,,,,,,,,,,,,,,,,,,,,,a,1,"[""0.272"",""0.581"",""0.873"",""0.967""]","[1,0,1,1]",0,52,52,52,1,0,1,,,1,FALSE,1.4724,,,,,,,,,,,,,,,,,,,,,,,,,,,,,,,
,5f6c343552bdce1aedca6ae1,627c67f24af4ba9f7127070d,2022-05-11_20h50.59.008,classification_task,2021.2.3,Win32,60.37918126,627c6715c52fd12f31907bcf,,,,,,,,,,,,,,,,,,,,,,,a,0,"[""0.086"",""0.161"",""0.212"",""0.839""]","[1,1,0,1]",0,53,53,53,1,1,0,,,1,FALSE,1.338,,,,,,,,,,,,,,,,,,,,,,,,,,,,,,,
,5f6c343552bdce1aedca6ae1,627c67f24af4ba9f7127070d,2022-05-11_20h50.59.008,classification_task,2021.2.3,Win32,60.37918126,627c6715c52fd12f31907bcf,,,,,,,,,,,,,,,,,,,,,,,l,0,"[""0.272"",""0.365"",""0.799"",""0.967""]","[1,1,0,1]",0,54,54,54,1,0,1,,,1,FALSE,1.2238,,,,,,,,,,,,,,,,,,,,,,,,,,,,,,,
,5f6c343552bdce1aedca6ae1,627c67f24af4ba9f7127070d,2022-05-11_20h50.59.008,classification_task,2021.2.3,Win32,60.37918126,627c6715c52fd12f31907bcf,,,,,,,,,,,,,,,,,,,,,,,a,1,"[""0.606"",""0.365"",""0.873"",""0.967""]","[0,1,1,1]",0,55,55,55,1,0,1,,,1,FALSE,1.6202,,,,,,,,,,,,,,,,,,,,,,,,,,,,,,,
,5f6c343552bdce1aedca6ae1,627c67f24af4ba9f7127070d,2022-05-11_20h50.59.008,classification_task,2021.2.3,Win32,60.37918126,627c6715c52fd12f31907bcf,,,,,,,,,,,,,,,,,,,,,,,l,1,"[""0.086"",""0.161"",""0.444"",""0.238""]","[1,1,1,0]",0,56,56,56,1,1,0,,,1,FALSE,2.8726,,,,,,,,,,,,,,,,,,,,,,,,,,,,,,,
,5f6c343552bdce1aedca6ae1,627c67f24af4ba9f7127070d,2022-05-11_20h50.59.008,classification_task,2021.2.3,Win32,60.37918126,627c6715c52fd12f31907bcf,,,,,,,,,,,,,,,,,,,,,,,a,1,"[""0.323"",""0.493"",""0.804"",""0.926""]","[1,1,0,1]",0,57,57,57,1,0,0,,,1,FALSE,1.5745,,,,,,,,,,,,,,,,,,,,,,,,,,,,,,,
,5f6c343552bdce1aedca6ae1,627c67f24af4ba9f7127070d,2022-05-11_20h50.59.008,classification_task,2021.2.3,Win32,60.37918126,627c6715c52fd12f31907bcf,,,,,,,,,,,,,,,,,,,,,,,a,1,"[""0.323"",""0.804"",""0.748"",""0.926""]","[1,0,1,1]",0,58,58,58,1,0,0,,,1,FALSE,1.6942,,,,,,,,,,,,,,,,,,,,,,,,,,,,,,,
,5f6c343552bdce1aedca6ae1,627c67f24af4ba9f7127070d,2022-05-11_20h50.59.008,classification_task,2021.2.3,Win32,60.37918126,627c6715c52fd12f31907bcf,,,,,,,,,,,,,,,,,,,,,,,a,0,"[""0.086"",""0.212"",""0.444"",""0.839""]","[1,0,1,1]",0,59,59,59,1,1,0,,,1,FALSE,1.3882,,,,,,,,,,,,,,,,,,,,,,,,,,,,,,,
,5f6c343552bdce1aedca6ae1,627c67f24af4ba9f7127070d,2022-05-11_20h50.59.008,classification_task,2021.2.3,Win32,60.37918126,627c6715c52fd12f31907bcf,,,,,,,,,,,,,,,,,,,,,,,l,1,"[""0.052"",""0.220"",""0.540"",""0.705""]","[1,0,1,1]",0,60,60,60,1,1,1,,,1,FALSE,4.8707,,,,,,,,,,,,,,,,,,,,,,,,,,,,,,,
,5f6c343552bdce1aedca6ae1,627c67f24af4ba9f7127070d,2022-05-11_20h50.59.008,classification_task,2021.2.3,Win32,60.37918126,627c6715c52fd12f31907bcf,,,,,,,,,,,,,,,,,,,,,,,a,1,"[""0.272"",""0.365"",""0.873"",""0.799""]","[1,1,1,0]",0,61,61,61,1,0,1,,,1,FALSE,4.4129,,,,,,,,,,,,,,,,,,,,,,,,,,,,,,,
,5f6c343552bdce1aedca6ae1,627c67f24af4ba9f7127070d,2022-05-11_20h50.59.008,classification_task,2021.2.3,Win32,60.37918126,627c6715c52fd12f31907bcf,,,,,,,,,,,,,,,,,,,,,,,a,1,"[""0.212"",""0.493"",""0.748"",""0.926""]","[0,1,1,1]",0,62,62,62,1,0,0,,,1,FALSE,2.394,,,,,,,,,,,,,,,,,,,,,,,,,,,,,,,
,5f6c343552bdce1aedca6ae1,627c67f24af4ba9f7127070d,2022-05-11_20h50.59.008,classification_task,2021.2.3,Win32,60.37918126,627c6715c52fd12f31907bcf,,,,,,,,,,,,,,,,,,,,,,,l,1,"[""0.238"",""0.161"",""0.444"",""0.839""]","[0,1,1,1]",0,63,63,63,1,1,0,,,1,FALSE,2.2556,,,,,,,,,,,,,,,,,,,,,,,,,,,,,,,
,5f6c343552bdce1aedca6ae1,627c67f24af4ba9f7127070d,2022-05-11_20h50.59.008,classification_task,2021.2.3,Win32,60.37918126,627c6715c52fd12f31907bcf,,,,,,,,,,,,,,,,,,,,,,,,,,,,,,,,,,,,,,,0, ,,0,7.204585538,226.4145,0,2,2,2,1,2,3,,,,,,,,,,,,,,,,,,
,5f6c343552bdce1aedca6ae1,627c67f24af4ba9f7127070d,2022-05-11_20h50.59.008,classification_task,2021.2.3,Win32,60.37918126,627c6715c52fd12f31907bcf,,,,,,,,,,,,,,,,,,,,,,,,,,,,,,,,,,,,,,,1,  ,,0,10,229.3304,0,2,2,2,1,2,3,,,,,,,,,,,,,,,,,,
,5f6c343552bdce1aedca6ae1,627c67f24af4ba9f7127070d,2022-05-11_20h50.59.008,classification_task,2021.2.3,Win32,60.37918126,627c6715c52fd12f31907bcf,,,,,,,,,,,,,,,,,,,,,,,,,,,,,,,,,,,,,,,2,  ,,0,10,230.7721,0,2,2,2,1,2,3,,,,,,,,,,,,,,,,,,
,5f6c343552bdce1aedca6ae1,627c67f24af4ba9f7127070d,2022-05-11_20h50.59.008,classification_task,2021.2.3,Win32,60.37918126,627c6715c52fd12f31907bcf,,,,,,,,,,,,,,,,,,,,,,,,,,,,,,,,,,,,,,,,,,,,,0,2,2,2,1,,3,,,,,,,,,,,,,,,,,,
,5f6c343552bdce1aedca6ae1,627c67f24af4ba9f7127070d,2022-05-11_20h50.59.008,classification_task,2021.2.3,Win32,60.37918126,627c6715c52fd12f31907bcf,,,,,,,,,,,,,,,,,,,,,,,,,,,,,,,,,,,,,,,,,,,,,,,,,,,,,I believe the aid is a competent performer,,0.7,0,4,1634.2804,0,0,0,0,1,0,,,,,
,5f6c343552bdce1aedca6ae1,627c67f24af4ba9f7127070d,2022-05-11_20h50.59.008,classification_task,2021.2.3,Win32,60.37918126,627c6715c52fd12f31907bcf,,,,,,,,,,,,,,,,,,,,,,,,,,,,,,,,,,,,,,,,,,,,,,,,,,,,,I trust the aid,,0.7,0,5,1636.1016,0,0,0,0,1,0,,,,,
,5f6c343552bdce1aedca6ae1,627c67f24af4ba9f7127070d,2022-05-11_20h50.59.008,classification_task,2021.2.3,Win32,60.37918126,627c6715c52fd12f31907bcf,,,,,,,,,,,,,,,,,,,,,,,,,,,,,,,,,,,,,,,,,,,,,,,,,,,,,I have confidence in the advice given by the aid,,0.7,0,5,1638.8066,0,0,0,0,1,0,,,,,
,5f6c343552bdce1aedca6ae1,627c67f24af4ba9f7127070d,2022-05-11_20h50.59.008,classification_task,2021.2.3,Win32,60.37918126,627c6715c52fd12f31907bcf,,,,,,,,,,,,,,,,,,,,,,,,,,,,,,,,,,,,,,,,,,,,,,,,,,,,,I can depend on the aid,,0.7,0,4,1643.0072,0,0,0,0,1,0,,,,,
,5f6c343552bdce1aedca6ae1,627c67f24af4ba9f7127070d,2022-05-11_20h50.59.008,classification_task,2021.2.3,Win32,60.37918126,627c6715c52fd12f31907bcf,,,,,,,,,,,,,,,,,,,,,,,,,,,,,,,,,,,,,,,,,,,,,,,,,,,,,I can rely on the aid to behave in consistent ways,,0.7,0,3,1650.7737,0,0,0,0,1,0,,,,,
,5f6c343552bdce1aedca6ae1,627c67f24af4ba9f7127070d,2022-05-11_20h50.59.008,classification_task,2021.2.3,Win32,60.37918126,627c6715c52fd12f31907bcf,,,,,,,,,,,,,,,,,,,,,,,,,,,,,,,,,,,,,,,,,,,,,,,,,,,,,I can rely on the aid to do its best every time I take its advice,,0.7,0,4,1659.5219,0,0,0,0,1,0,,,,,
,5f6c343552bdce1aedca6ae1,627c67f24af4ba9f7127070d,2022-05-11_20h50.59.008,classification_task,2021.2.3,Win32,60.37918126,627c6715c52fd12f31907bcf,,,,,,,,,,,,,,,,,,,,,,,,,,,,,,,,,,,,,,,,,,,,,,,,,,,,,"On trials you completed with assistance from the aid, how frequently did you think the aid was correct?",,0.7,0,90%,,0,0,0,0,1,0,,,,,
,5f6c343552bdce1aedca6ae1,627c67f24af4ba9f7127070d,2022-05-11_20h50.59.008,classification_task,2021.2.3,Win32,60.37918126,627c6715c52fd12f31907bcf,,,,,,,,,,,,,,,,,,,,,,,,,,,,,,,,,,,,,,,,,,,,,,,,,,,,,"On trials you completed without the aid, how frequently did you think you were correct?",,0.7,0,50%,,0,0,0,0,1,0,,,,,
,5f6c343552bdce1aedca6ae1,627c67f24af4ba9f7127070d,2022-05-11_20h50.59.008,classification_task,2021.2.3,Win32,60.37918126,627c6715c52fd12f31907bcf,,,,,,,,,,,,,,,,,,,,,,,,,,,,,,,,,,,,,,,,,,,,,,,,,,,,,,,,,,,0,0,0,0,1,,,,,,
,5f6c343552bdce1aedca6ae1,627c67f24af4ba9f7127070d,2022-05-11_20h50.59.008,classification_task,2021.2.3,Win32,60.37918126,627c6715c52fd12f31907bcf,,,,,,,,,,,,,,,,,,,,,,,,,,,,,,,,,,,,,,,,,,,,,,,,,,,,,,,,,,,,,,,,,space,9.2064,1700.539,,
,5f6c343552bdce1aedca6ae1,627c67f24af4ba9f7127070d,2022-05-11_20h50.59.008,classification_task,2021.2.3,Win32,60.37918126,627c6715c52fd12f31907bcf,,,,,,,,,,,,,,,,,,,,,,,,,,,,,,,,,,,,,,,,,,,,,,,,,,,,,,,,,,,,,,,,,,,,"Mozilla/5.0 (Windows NT 10.0; Win64; x64) AppleWebKit/537.36 (KHTML, like Gecko) Chrome/101.0.4951.54 Safari/537.36 Edg/101.0.1210.39",
,5f6c343552bdce1aedca6ae1,627c67f24af4ba9f7127070d,2022-05-11_20h50.59.008,classification_task,2021.2.3,Win32,60.37918126,627c6715c52fd12f31907bcf,,,,,,,,,,,,,,,,,,,,,,,,,,,,,,,,,,,,,,,,,,,,,,,,,,,,,,,,,,,,,,,,,,,,,HIGHLIGHT
