usingWebGL,participant,session,date,expName,psychopyVersion,OS,frameRate,study_id,signatures_friend,signatures_foe,band_ranges_top,band_ranges_bottom,formitemText,formtype,formundefined,formitemWidth,formindex,formresponse,formrt,key_resp_2.keys,key_resp_2.rt,tute_resp.keys,tute_resp.rt,tutorial.thisRepN,tutorial.thisTrialN,tutorial.thisN,tutorial.thisIndex,tutorial.ran,key_resp_4.keys,key_resp_4.rt,key_resp.keys,key_resp.corr,key_resp.rt,lines_presented,is_signal_presented,trials.thisRepN,trials.thisTrialN,trials.thisN,trials.thisIndex,trials.ran,vessel,active_band,lines,is_signal,supported_pos,catch_trial,debrief_formindex,debrief_formitemText,debrief_formtype,debrief_formitemWidth,debrief_formresponse,debrief_formrt,phases.thisRepN,phases.thisTrialN,phases.thisN,phases.thisIndex,phases.ran,phases.order,phase,key_resp_3.keys,trustitemText,trusttype,trustitemWidth,trustindex,trustresponse,trustrt,support_status.thisRepN,support_status.thisTrialN,support_status.thisN,support_status.thisIndex,support_status.ran,support_status.order,key_resp_5.keys,key_resp_5.rt,globalClockTime,userAgent,manualCondition
TRUE,5f6ebfdd062b6e4168561195,627c6f5a623c20ce9f2c0b71,2022-05-11_22h23.09.944,classification_task,2021.2.3,Win32,59.69792848,627c6715c52fd12f31907bd0,,,,,,,,,,,,,,,,,,,,,,,,,,,,,,,,,,,,,,,,,,,,,,,,,,,,,,,,,,,,,,,,,,,,,
,5f6ebfdd062b6e4168561195,627c6f5a623c20ce9f2c0b71,2022-05-11_22h23.09.944,classification_task,2021.2.3,Win32,59.69792848,627c6715c52fd12f31907bd0,"[[""0.226"",""0.348"",""0.607"",""0.940""],[""0.189"",""0.393"",""0.881"",""0.974""]]","[[""0.137"",""0.262"",""0.498"",""0.817""],[""0.068"",""0.434"",""0.552"",""0.782""]]","[1,10]","[100,1000]",Video game experience,,,0.7,0,,,,,,,,,,,,,,,,,,,,,,,,,,,,,,,,,,,,,,,,,,,,,,,,,,,,,,,,,,,,
,5f6ebfdd062b6e4168561195,627c6f5a623c20ce9f2c0b71,2022-05-11_22h23.09.944,classification_task,2021.2.3,Win32,59.69792848,627c6715c52fd12f31907bd0,,,,,Approximately how many hours did you spend playing video games in the last week?,,,0.7,0,1,,,,,,,,,,,,,,,,,,,,,,,,,,,,,,,,,,,,,,,,,,,,,,,,,,,,,,,,,,,
,5f6ebfdd062b6e4168561195,627c6f5a623c20ce9f2c0b71,2022-05-11_22h23.09.944,classification_task,2021.2.3,Win32,59.69792848,627c6715c52fd12f31907bd0,,,,,"Which game did you play the most this year? (Enter ""None"" if you didn't play any)",,,0.7,0,valorant,,,,,,,,,,,,,,,,,,,,,,,,,,,,,,,,,,,,,,,,,,,,,,,,,,,,,,,,,,,
,5f6ebfdd062b6e4168561195,627c6f5a623c20ce9f2c0b71,2022-05-11_22h23.09.944,classification_task,2021.2.3,Win32,59.69792848,627c6715c52fd12f31907bd0,,,,,Visual perception,,,0.7,0,,,,,,,,,,,,,,,,,,,,,,,,,,,,,,,,,,,,,,,,,,,,,,,,,,,,,,,,,,,,
,5f6ebfdd062b6e4168561195,627c6f5a623c20ce9f2c0b71,2022-05-11_22h23.09.944,classification_task,2021.2.3,Win32,59.69792848,627c6715c52fd12f31907bd0,,,,,Do you have any form of color blindness?,,,0.7,0,No,22.9394,,,,,,,,,,,,,,,,,,,,,,,,,,,,,,,,,,,,,,,,,,,,,,,,,,,,,,,,,,
,5f6ebfdd062b6e4168561195,627c6f5a623c20ce9f2c0b71,2022-05-11_22h23.09.944,classification_task,2021.2.3,Win32,59.69792848,627c6715c52fd12f31907bd0,,,,,Do you use software to change the colour temperature of your screen (e.g. f.lux)?,,,0.7,0,Yes,38.1159,,,,,,,,,,,,,,,,,,,,,,,,,,,,,,,,,,,,,,,,,,,,,,,,,,,,,,,,,,
,5f6ebfdd062b6e4168561195,627c6f5a623c20ce9f2c0b71,2022-05-11_22h23.09.944,classification_task,2021.2.3,Win32,59.69792848,627c6715c52fd12f31907bd0,,,,,,,,,,,,space,92.8956,space,12.2033,0,0,0,0,1,,,,,,,,,,,,,,,,,,,,,,,,,,,,,,,,,,,,,,,,,,,,,,,,,
,5f6ebfdd062b6e4168561195,627c6f5a623c20ce9f2c0b71,2022-05-11_22h23.09.944,classification_task,2021.2.3,Win32,59.69792848,627c6715c52fd12f31907bd0,,,,,,,,,,,,,,space,10.2696,1,0,1,0,1,,,,,,,,,,,,,,,,,,,,,,,,,,,,,,,,,,,,,,,,,,,,,,,,,
,5f6ebfdd062b6e4168561195,627c6f5a623c20ce9f2c0b71,2022-05-11_22h23.09.944,classification_task,2021.2.3,Win32,59.69792848,627c6715c52fd12f31907bd0,,,,,,,,,,,,,,space,32.3233,2,0,2,0,1,,,,,,,,,,,,,,,,,,,,,,,,,,,,,,,,,,,,,,,,,,,,,,,,,
,5f6ebfdd062b6e4168561195,627c6f5a623c20ce9f2c0b71,2022-05-11_22h23.09.944,classification_task,2021.2.3,Win32,59.69792848,627c6715c52fd12f31907bd0,,,,,,,,,,,,,,space,11.6373,3,0,3,0,1,,,,,,,,,,,,,,,,,,,,,,,,,,,,,,,,,,,,,,,,,,,,,,,,,
,5f6ebfdd062b6e4168561195,627c6f5a623c20ce9f2c0b71,2022-05-11_22h23.09.944,classification_task,2021.2.3,Win32,59.69792848,627c6715c52fd12f31907bd0,,,,,,,,,,,,,,space,25.8152,4,0,4,0,1,,,,,,,,,,,,,,,,,,,,,,,,,,,,,,,,,,,,,,,,,,,,,,,,,
,5f6ebfdd062b6e4168561195,627c6f5a623c20ce9f2c0b71,2022-05-11_22h23.09.944,classification_task,2021.2.3,Win32,59.69792848,627c6715c52fd12f31907bd0,,,,,,,,,,,,,,,,,,,,,space,23.4772,l,1,4.8077,"[""0.137"",""0.701"",""0.498"",""0.817""]","[1,0,1,1]",0,0,0,0,1,1,0,,,1,FALSE,,,,,,,,,,,,,,,,,,,,,,,,,,,,,,,
,5f6ebfdd062b6e4168561195,627c6f5a623c20ce9f2c0b71,2022-05-11_22h23.09.944,classification_task,2021.2.3,Win32,59.69792848,627c6715c52fd12f31907bd0,,,,,,,,,,,,,,,,,,,,,,,a,1,4.2597,"[""0.189"",""0.309"",""0.881"",""0.974""]","[1,0,1,1]",0,1,1,1,1,0,1,,,1,FALSE,,,,,,,,,,,,,,,,,,,,,,,,,,,,,,,
,5f6ebfdd062b6e4168561195,627c6f5a623c20ce9f2c0b71,2022-05-11_22h23.09.944,classification_task,2021.2.3,Win32,59.69792848,627c6715c52fd12f31907bd0,,,,,,,,,,,,,,,,,,,,,,,a,1,2.9773,"[""0.226"",""0.348"",""0.701"",""0.940""]","[1,1,0,1]",0,2,2,2,1,0,0,,,1,FALSE,,,,,,,,,,,,,,,,,,,,,,,,,,,,,,,
,5f6ebfdd062b6e4168561195,627c6f5a623c20ce9f2c0b71,2022-05-11_22h23.09.944,classification_task,2021.2.3,Win32,59.69792848,627c6715c52fd12f31907bd0,,,,,,,,,,,,,,,,,,,,,,,a,1,3.661,"[""0.649"",""0.348"",""0.607"",""0.940""]","[0,1,1,1]",0,3,3,3,1,0,0,,,1,FALSE,,,,,,,,,,,,,,,,,,,,,,,,,,,,,,,
,5f6ebfdd062b6e4168561195,627c6f5a623c20ce9f2c0b71,2022-05-11_22h23.09.944,classification_task,2021.2.3,Win32,59.69792848,627c6715c52fd12f31907bd0,,,,,,,,,,,,,,,,,,,,,,,l,1,2.4074,"[""0.068"",""0.434"",""0.552"",""0.740""]","[1,1,1,0]",0,4,4,4,1,1,1,,,1,FALSE,,,,,,,,,,,,,,,,,,,,,,,,,,,,,,,
,5f6ebfdd062b6e4168561195,627c6f5a623c20ce9f2c0b71,2022-05-11_22h23.09.944,classification_task,2021.2.3,Win32,59.69792848,627c6715c52fd12f31907bd0,,,,,,,,,,,,,,,,,,,,,,,a,0,3.0556,"[""0.309"",""0.434"",""0.552"",""0.782""]","[0,1,1,1]",0,5,5,5,1,1,1,,,1,FALSE,,,,,,,,,,,,,,,,,,,,,,,,,,,,,,,
,5f6ebfdd062b6e4168561195,627c6f5a623c20ce9f2c0b71,2022-05-11_22h23.09.944,classification_task,2021.2.3,Win32,59.69792848,627c6715c52fd12f31907bd0,,,,,,,,,,,,,,,,,,,,,,,a,1,6.2174,"[""0.728"",""0.393"",""0.881"",""0.974""]","[0,1,1,1]",0,6,6,6,1,0,1,,,1,FALSE,,,,,,,,,,,,,,,,,,,,,,,,,,,,,,,
,5f6ebfdd062b6e4168561195,627c6f5a623c20ce9f2c0b71,2022-05-11_22h23.09.944,classification_task,2021.2.3,Win32,59.69792848,627c6715c52fd12f31907bd0,,,,,,,,,,,,,,,,,,,,,,,a,1,2.2887,"[""0.226"",""0.740"",""0.607"",""0.940""]","[1,0,1,1]",0,7,7,7,1,0,0,,,1,FALSE,,,,,,,,,,,,,,,,,,,,,,,,,,,,,,,
,5f6ebfdd062b6e4168561195,627c6f5a623c20ce9f2c0b71,2022-05-11_22h23.09.944,classification_task,2021.2.3,Win32,59.69792848,627c6715c52fd12f31907bd0,,,,,,,,,,,,,,,,,,,,,,,a,1,2.0867,"[""0.189"",""0.393"",""0.881"",""0.729""]","[1,1,1,0]",0,8,8,8,1,0,1,,,1,FALSE,,,,,,,,,,,,,,,,,,,,,,,,,,,,,,,
,5f6ebfdd062b6e4168561195,627c6f5a623c20ce9f2c0b71,2022-05-11_22h23.09.944,classification_task,2021.2.3,Win32,59.69792848,627c6715c52fd12f31907bd0,,,,,,,,,,,,,,,,,,,,,,,l,1,2.0492,"[""0.068"",""0.434"",""0.681"",""0.782""]","[1,1,0,1]",0,9,9,9,1,1,1,,,1,FALSE,,,,,,,,,,,,,,,,,,,,,,,,,,,,,,,
,5f6ebfdd062b6e4168561195,627c6f5a623c20ce9f2c0b71,2022-05-11_22h23.09.944,classification_task,2021.2.3,Win32,59.69792848,627c6715c52fd12f31907bd0,,,,,,,,,,,,,,,,,,,,,,,l,1,3.4057,"[""0.137"",""0.262"",""0.706"",""0.817""]","[1,1,0,1]",0,10,10,10,1,1,0,,,1,FALSE,,,,,,,,,,,,,,,,,,,,,,,,,,,,,,,
,5f6ebfdd062b6e4168561195,627c6f5a623c20ce9f2c0b71,2022-05-11_22h23.09.944,classification_task,2021.2.3,Win32,59.69792848,627c6715c52fd12f31907bd0,,,,,,,,,,,,,,,,,,,,,,,a,1,3.3126,"[""0.189"",""0.393"",""0.709"",""0.974""]","[1,1,0,1]",0,11,11,11,1,0,1,,,1,FALSE,,,,,,,,,,,,,,,,,,,,,,,,,,,,,,,
,5f6ebfdd062b6e4168561195,627c6f5a623c20ce9f2c0b71,2022-05-11_22h23.09.944,classification_task,2021.2.3,Win32,59.69792848,627c6715c52fd12f31907bd0,,,,,,,,,,,,,,,,,,,,,,,l,1,7.4821,"[""0.026"",""0.262"",""0.498"",""0.817""]","[0,1,1,1]",0,12,12,12,1,1,0,,,1,FALSE,,,,,,,,,,,,,,,,,,,,,,,,,,,,,,,
,5f6ebfdd062b6e4168561195,627c6f5a623c20ce9f2c0b71,2022-05-11_22h23.09.944,classification_task,2021.2.3,Win32,59.69792848,627c6715c52fd12f31907bd0,,,,,,,,,,,,,,,,,,,,,,,a,1,8.5242,"[""0.226"",""0.348"",""0.607"",""0.694""]","[1,1,1,0]",0,13,13,13,1,0,0,,,1,FALSE,,,,,,,,,,,,,,,,,,,,,,,,,,,,,,,
,5f6ebfdd062b6e4168561195,627c6f5a623c20ce9f2c0b71,2022-05-11_22h23.09.944,classification_task,2021.2.3,Win32,59.69792848,627c6715c52fd12f31907bd0,,,,,,,,,,,,,,,,,,,,,,,l,1,3.9757,"[""0.137"",""0.262"",""0.498"",""0.709""]","[1,1,1,0]",0,14,14,14,1,1,0,,,1,FALSE,,,,,,,,,,,,,,,,,,,,,,,,,,,,,,,
,5f6ebfdd062b6e4168561195,627c6f5a623c20ce9f2c0b71,2022-05-11_22h23.09.944,classification_task,2021.2.3,Win32,59.69792848,627c6715c52fd12f31907bd0,,,,,,,,,,,,,,,,,,,,,,,l,1,3.3046,"[""0.068"",""0.706"",""0.552"",""0.782""]","[1,0,1,1]",0,15,15,15,1,1,1,,,1,FALSE,,,,,,,,,,,,,,,,,,,,,,,,,,,,,,,
,5f6ebfdd062b6e4168561195,627c6f5a623c20ce9f2c0b71,2022-05-11_22h23.09.944,classification_task,2021.2.3,Win32,59.69792848,627c6715c52fd12f31907bd0,,,,,,,,,,,,,,,,,,,,,,,a,1,4.3364,"[""0.226"",""0.348"",""0.026"",""0.940""]","[1,1,0,1]",0,16,16,16,1,0,0,,,1,FALSE,,,,,,,,,,,,,,,,,,,,,,,,,,,,,,,
,5f6ebfdd062b6e4168561195,627c6f5a623c20ce9f2c0b71,2022-05-11_22h23.09.944,classification_task,2021.2.3,Win32,59.69792848,627c6715c52fd12f31907bd0,,,,,,,,,,,,,,,,,,,,,,,l,1,8.304,"[""0.137"",""0.262"",""0.498"",""0.728""]","[1,1,1,0]",0,17,17,17,1,1,0,,,1,FALSE,,,,,,,,,,,,,,,,,,,,,,,,,,,,,,,
,5f6ebfdd062b6e4168561195,627c6f5a623c20ce9f2c0b71,2022-05-11_22h23.09.944,classification_task,2021.2.3,Win32,59.69792848,627c6715c52fd12f31907bd0,,,,,,,,,,,,,,,,,,,,,,,l,1,3.7821,"[""0.068"",""0.434"",""0.681"",""0.782""]","[1,1,0,1]",0,18,18,18,1,1,1,,,1,FALSE,,,,,,,,,,,,,,,,,,,,,,,,,,,,,,,
,5f6ebfdd062b6e4168561195,627c6f5a623c20ce9f2c0b71,2022-05-11_22h23.09.944,classification_task,2021.2.3,Win32,59.69792848,627c6715c52fd12f31907bd0,,,,,,,,,,,,,,,,,,,,,,,a,1,3.6081,"[""0.226"",""0.701"",""0.607"",""0.940""]","[1,0,1,1]",0,19,19,19,1,0,0,,,1,FALSE,,,,,,,,,,,,,,,,,,,,,,,,,,,,,,,
,5f6ebfdd062b6e4168561195,627c6f5a623c20ce9f2c0b71,2022-05-11_22h23.09.944,classification_task,2021.2.3,Win32,59.69792848,627c6715c52fd12f31907bd0,,,,,,,,,,,,,,,,,,,,,,,a,1,2.523,"[""0.709"",""0.348"",""0.607"",""0.940""]","[0,1,1,1]",0,20,20,20,1,0,0,,,1,FALSE,,,,,,,,,,,,,,,,,,,,,,,,,,,,,,,
,5f6ebfdd062b6e4168561195,627c6f5a623c20ce9f2c0b71,2022-05-11_22h23.09.944,classification_task,2021.2.3,Win32,59.69792848,627c6715c52fd12f31907bd0,,,,,,,,,,,,,,,,,,,,,,,a,1,5.705,"[""0.226"",""0.348"",""0.607"",""0.026""]","[1,1,1,0]",0,21,21,21,1,0,0,,,1,FALSE,,,,,,,,,,,,,,,,,,,,,,,,,,,,,,,
,5f6ebfdd062b6e4168561195,627c6f5a623c20ce9f2c0b71,2022-05-11_22h23.09.944,classification_task,2021.2.3,Win32,59.69792848,627c6715c52fd12f31907bd0,,,,,,,,,,,,,,,,,,,,,,,a,1,4.5531,"[""0.189"",""0.393"",""0.881"",""0.694""]","[1,1,1,0]",0,22,22,22,1,0,1,,,1,FALSE,,,,,,,,,,,,,,,,,,,,,,,,,,,,,,,
,5f6ebfdd062b6e4168561195,627c6f5a623c20ce9f2c0b71,2022-05-11_22h23.09.944,classification_task,2021.2.3,Win32,59.69792848,627c6715c52fd12f31907bd0,,,,,,,,,,,,,,,,,,,,,,,l,1,3.5358,"[""0.694"",""0.262"",""0.498"",""0.817""]","[0,1,1,1]",0,23,23,23,1,1,0,,,1,FALSE,,,,,,,,,,,,,,,,,,,,,,,,,,,,,,,
,5f6ebfdd062b6e4168561195,627c6f5a623c20ce9f2c0b71,2022-05-11_22h23.09.944,classification_task,2021.2.3,Win32,59.69792848,627c6715c52fd12f31907bd0,,,,,,,,,,,,,,,,,,,,,,,l,1,8.0907,"[""0.068"",""0.434"",""0.552"",""0.026""]","[1,1,1,0]",0,24,24,24,1,1,1,,,1,FALSE,,,,,,,,,,,,,,,,,,,,,,,,,,,,,,,
,5f6ebfdd062b6e4168561195,627c6f5a623c20ce9f2c0b71,2022-05-11_22h23.09.944,classification_task,2021.2.3,Win32,59.69792848,627c6715c52fd12f31907bd0,,,,,,,,,,,,,,,,,,,,,,,a,1,4.9115,"[""0.189"",""0.393"",""0.744"",""0.974""]","[1,1,0,1]",0,25,25,25,1,0,1,,,1,FALSE,,,,,,,,,,,,,,,,,,,,,,,,,,,,,,,
,5f6ebfdd062b6e4168561195,627c6f5a623c20ce9f2c0b71,2022-05-11_22h23.09.944,classification_task,2021.2.3,Win32,59.69792848,627c6715c52fd12f31907bd0,,,,,,,,,,,,,,,,,,,,,,,a,1,3.2434,"[""0.189"",""0.701"",""0.881"",""0.974""]","[1,0,1,1]",0,26,26,26,1,0,1,,,1,FALSE,,,,,,,,,,,,,,,,,,,,,,,,,,,,,,,
,5f6ebfdd062b6e4168561195,627c6f5a623c20ce9f2c0b71,2022-05-11_22h23.09.944,classification_task,2021.2.3,Win32,59.69792848,627c6715c52fd12f31907bd0,,,,,,,,,,,,,,,,,,,,,,,l,1,5.813,"[""0.666"",""0.434"",""0.552"",""0.782""]","[0,1,1,1]",0,27,27,27,1,1,1,,,1,FALSE,,,,,,,,,,,,,,,,,,,,,,,,,,,,,,,
,5f6ebfdd062b6e4168561195,627c6f5a623c20ce9f2c0b71,2022-05-11_22h23.09.944,classification_task,2021.2.3,Win32,59.69792848,627c6715c52fd12f31907bd0,,,,,,,,,,,,,,,,,,,,,,,a,0,3.7586,"[""0.068"",""0.709"",""0.552"",""0.782""]","[1,0,1,1]",0,28,28,28,1,1,1,,,1,FALSE,,,,,,,,,,,,,,,,,,,,,,,,,,,,,,,
,5f6ebfdd062b6e4168561195,627c6f5a623c20ce9f2c0b71,2022-05-11_22h23.09.944,classification_task,2021.2.3,Win32,59.69792848,627c6715c52fd12f31907bd0,,,,,,,,,,,,,,,,,,,,,,,l,1,5.0608,"[""0.137"",""0.709"",""0.498"",""0.817""]","[1,0,1,1]",0,29,29,29,1,1,0,,,1,FALSE,,,,,,,,,,,,,,,,,,,,,,,,,,,,,,,
,5f6ebfdd062b6e4168561195,627c6f5a623c20ce9f2c0b71,2022-05-11_22h23.09.944,classification_task,2021.2.3,Win32,59.69792848,627c6715c52fd12f31907bd0,,,,,,,,,,,,,,,,,,,,,,,a,1,6.636,"[""0.706"",""0.393"",""0.881"",""0.974""]","[0,1,1,1]",0,30,30,30,1,0,1,,,1,FALSE,,,,,,,,,,,,,,,,,,,,,,,,,,,,,,,
,5f6ebfdd062b6e4168561195,627c6f5a623c20ce9f2c0b71,2022-05-11_22h23.09.944,classification_task,2021.2.3,Win32,59.69792848,627c6715c52fd12f31907bd0,,,,,,,,,,,,,,,,,,,,,,,l,1,5.371,"[""0.137"",""0.262"",""0.728"",""0.817""]","[1,1,0,1]",0,31,31,31,1,1,0,,,1,FALSE,,,,,,,,,,,,,,,,,,,,,,,,,,,,,,,
,5f6ebfdd062b6e4168561195,627c6f5a623c20ce9f2c0b71,2022-05-11_22h23.09.944,classification_task,2021.2.3,Win32,59.69792848,627c6715c52fd12f31907bd0,,,,,,,,,,,,,,,,,,,,,,,l,1,5.0062,"[""0.137"",""0.262"",""0.498"",""0.681""]","[1,1,1,0]",0,32,32,32,1,1,0,,,1,FALSE,,,,,,,,,,,,,,,,,,,,,,,,,,,,,,,
,5f6ebfdd062b6e4168561195,627c6f5a623c20ce9f2c0b71,2022-05-11_22h23.09.944,classification_task,2021.2.3,Win32,59.69792848,627c6715c52fd12f31907bd0,,,,,,,,,,,,,,,,,,,,,,,a,0,3.8188,"[""0.068"",""0.434"",""0.552"",""0.666""]","[1,1,1,0]",0,33,33,33,1,1,1,,,1,FALSE,,,,,,,,,,,,,,,,,,,,,,,,,,,,,,,
,5f6ebfdd062b6e4168561195,627c6f5a623c20ce9f2c0b71,2022-05-11_22h23.09.944,classification_task,2021.2.3,Win32,59.69792848,627c6715c52fd12f31907bd0,,,,,,,,,,,,,,,,,,,,,,,a,0,1.4232,"[""0.744"",""0.262"",""0.498"",""0.817""]","[0,1,1,1]",0,34,34,34,1,1,0,,,1,FALSE,,,,,,,,,,,,,,,,,,,,,,,,,,,,,,,
,5f6ebfdd062b6e4168561195,627c6f5a623c20ce9f2c0b71,2022-05-11_22h23.09.944,classification_task,2021.2.3,Win32,59.69792848,627c6715c52fd12f31907bd0,,,,,,,,,,,,,,,,,,,,,,,a,0,1.0143,"[""0.137"",""0.262"",""0.728"",""0.817""]","[1,1,0,1]",0,35,35,35,1,1,0,,,1,FALSE,,,,,,,,,,,,,,,,,,,,,,,,,,,,,,,
,5f6ebfdd062b6e4168561195,627c6f5a623c20ce9f2c0b71,2022-05-11_22h23.09.944,classification_task,2021.2.3,Win32,59.69792848,627c6715c52fd12f31907bd0,,,,,,,,,,,,,,,,,,,,,,,a,0,0.4232,"[""0.137"",""0.701"",""0.498"",""0.817""]","[1,0,1,1]",0,36,36,36,1,1,0,,,1,FALSE,,,,,,,,,,,,,,,,,,,,,,,,,,,,,,,
,5f6ebfdd062b6e4168561195,627c6f5a623c20ce9f2c0b71,2022-05-11_22h23.09.944,classification_task,2021.2.3,Win32,59.69792848,627c6715c52fd12f31907bd0,,,,,,,,,,,,,,,,,,,,,,,l,0,0.0495,"[""0.189"",""0.393"",""0.881"",""0.728""]","[1,1,1,0]",0,37,37,37,1,0,1,,,1,FALSE,,,,,,,,,,,,,,,,,,,,,,,,,,,,,,,
,5f6ebfdd062b6e4168561195,627c6f5a623c20ce9f2c0b71,2022-05-11_22h23.09.944,classification_task,2021.2.3,Win32,59.69792848,627c6715c52fd12f31907bd0,,,,,,,,,,,,,,,,,,,,,,,l,1,0.0464,"[""0.068"",""0.434"",""0.709"",""0.782""]","[1,1,0,1]",0,38,38,38,1,1,1,,,1,FALSE,,,,,,,,,,,,,,,,,,,,,,,,,,,,,,,
,5f6ebfdd062b6e4168561195,627c6f5a623c20ce9f2c0b71,2022-05-11_22h23.09.944,classification_task,2021.2.3,Win32,59.69792848,627c6715c52fd12f31907bd0,,,,,,,,,,,,,,,,,,,,,,,a,1,1.7306,"[""0.226"",""0.348"",""0.740"",""0.940""]","[1,1,0,1]",0,39,39,39,1,0,0,,,1,FALSE,,,,,,,,,,,,,,,,,,,,,,,,,,,,,,,
,5f6ebfdd062b6e4168561195,627c6f5a623c20ce9f2c0b71,2022-05-11_22h23.09.944,classification_task,2021.2.3,Win32,59.69792848,627c6715c52fd12f31907bd0,,,,,,,,,,,,,,,,,,,,,,,a,0,2.9463,"[""0.309"",""0.434"",""0.552"",""0.782""]","[0,1,1,1]",0,40,40,40,1,1,1,,,1,FALSE,,,,,,,,,,,,,,,,,,,,,,,,,,,,,,,
,5f6ebfdd062b6e4168561195,627c6f5a623c20ce9f2c0b71,2022-05-11_22h23.09.944,classification_task,2021.2.3,Win32,59.69792848,627c6715c52fd12f31907bd0,,,,,,,,,,,,,,,,,,,,,,,a,1,1.388,"[""0.189"",""0.393"",""0.709"",""0.974""]","[1,1,0,1]",0,41,41,41,1,0,1,,,1,FALSE,,,,,,,,,,,,,,,,,,,,,,,,,,,,,,,
,5f6ebfdd062b6e4168561195,627c6f5a623c20ce9f2c0b71,2022-05-11_22h23.09.944,classification_task,2021.2.3,Win32,59.69792848,627c6715c52fd12f31907bd0,,,,,,,,,,,,,,,,,,,,,,,l,1,1.0275,"[""0.068"",""0.026"",""0.552"",""0.782""]","[1,0,1,1]",0,42,42,42,1,1,1,,,1,FALSE,,,,,,,,,,,,,,,,,,,,,,,,,,,,,,,
,5f6ebfdd062b6e4168561195,627c6f5a623c20ce9f2c0b71,2022-05-11_22h23.09.944,classification_task,2021.2.3,Win32,59.69792848,627c6715c52fd12f31907bd0,,,,,,,,,,,,,,,,,,,,,,,a,1,0.9526,"[""0.689"",""0.393"",""0.881"",""0.974""]","[0,1,1,1]",0,43,43,43,1,0,1,,,1,FALSE,,,,,,,,,,,,,,,,,,,,,,,,,,,,,,,
,5f6ebfdd062b6e4168561195,627c6f5a623c20ce9f2c0b71,2022-05-11_22h23.09.944,classification_task,2021.2.3,Win32,59.69792848,627c6715c52fd12f31907bd0,,,,,,,,,,,,,,,,,,,,,,,a,1,2.2535,"[""0.226"",""0.348"",""0.607"",""0.729""]","[1,1,1,0]",0,44,44,44,1,0,0,,,1,FALSE,,,,,,,,,,,,,,,,,,,,,,,,,,,,,,,
,5f6ebfdd062b6e4168561195,627c6f5a623c20ce9f2c0b71,2022-05-11_22h23.09.944,classification_task,2021.2.3,Win32,59.69792848,627c6715c52fd12f31907bd0,,,,,,,,,,,,,,,,,,,,,,,a,1,1.6683,"[""0.226"",""0.309"",""0.607"",""0.940""]","[1,0,1,1]",0,45,45,45,1,0,0,,,1,FALSE,,,,,,,,,,,,,,,,,,,,,,,,,,,,,,,
,5f6ebfdd062b6e4168561195,627c6f5a623c20ce9f2c0b71,2022-05-11_22h23.09.944,classification_task,2021.2.3,Win32,59.69792848,627c6715c52fd12f31907bd0,,,,,,,,,,,,,,,,,,,,,,,l,0,0.6741,"[""0.026"",""0.348"",""0.607"",""0.940""]","[0,1,1,1]",0,46,46,46,1,0,0,,,1,FALSE,,,,,,,,,,,,,,,,,,,,,,,,,,,,,,,
,5f6ebfdd062b6e4168561195,627c6f5a623c20ce9f2c0b71,2022-05-11_22h23.09.944,classification_task,2021.2.3,Win32,59.69792848,627c6715c52fd12f31907bd0,,,,,,,,,,,,,,,,,,,,,,,a,1,1.4618,"[""0.189"",""0.709"",""0.881"",""0.974""]","[1,0,1,1]",0,47,47,47,1,0,1,,,1,FALSE,,,,,,,,,,,,,,,,,,,,,,,,,,,,,,,
,5f6ebfdd062b6e4168561195,627c6f5a623c20ce9f2c0b71,2022-05-11_22h23.09.944,classification_task,2021.2.3,Win32,59.69792848,627c6715c52fd12f31907bd0,,,,,,,,,,,,,,,,,,,,,,,l,1,0.7943,"[""0.068"",""0.434"",""0.552"",""0.314""]","[1,1,1,0]",0,48,48,48,1,1,1,,,1,FALSE,,,,,,,,,,,,,,,,,,,,,,,,,,,,,,,
,5f6ebfdd062b6e4168561195,627c6f5a623c20ce9f2c0b71,2022-05-11_22h23.09.944,classification_task,2021.2.3,Win32,59.69792848,627c6715c52fd12f31907bd0,,,,,,,,,,,,,,,,,,,,,,,l,1,2.506,"[""0.137"",""0.262"",""0.498"",""0.709""]","[1,1,1,0]",0,49,49,49,1,1,0,,,1,FALSE,,,,,,,,,,,,,,,,,,,,,,,,,,,,,,,
,5f6ebfdd062b6e4168561195,627c6f5a623c20ce9f2c0b71,2022-05-11_22h23.09.944,classification_task,2021.2.3,Win32,59.69792848,627c6715c52fd12f31907bd0,,,,,,,,,,,,,,,,,,,,,,,a,1,1.0291,"[""0.226"",""0.348"",""0.314"",""0.940""]","[1,1,0,1]",0,50,50,50,1,0,0,,,1,FALSE,,,,,,,,,,,,,,,,,,,,,,,,,,,,,,,
,5f6ebfdd062b6e4168561195,627c6f5a623c20ce9f2c0b71,2022-05-11_22h23.09.944,classification_task,2021.2.3,Win32,59.69792848,627c6715c52fd12f31907bd0,,,,,,,,,,,,,,,,,,,,,,,a,1,1.0551,"[""0.226"",""0.348"",""0.607"",""0.728""]","[1,1,1,0]",0,51,51,51,1,0,0,,,1,FALSE,,,,,,,,,,,,,,,,,,,,,,,,,,,,,,,
,5f6ebfdd062b6e4168561195,627c6f5a623c20ce9f2c0b71,2022-05-11_22h23.09.944,classification_task,2021.2.3,Win32,59.69792848,627c6715c52fd12f31907bd0,,,,,,,,,,,,,,,,,,,,,,,l,0,1.2884,"[""0.707"",""0.348"",""0.607"",""0.940""]","[0,1,1,1]",0,52,52,52,1,0,0,,,1,FALSE,,,,,,,,,,,,,,,,,,,,,,,,,,,,,,,
,5f6ebfdd062b6e4168561195,627c6f5a623c20ce9f2c0b71,2022-05-11_22h23.09.944,classification_task,2021.2.3,Win32,59.69792848,627c6715c52fd12f31907bd0,,,,,,,,,,,,,,,,,,,,,,,l,1,1.0858,"[""0.137"",""0.681"",""0.498"",""0.817""]","[1,0,1,1]",0,53,53,53,1,1,0,,,1,FALSE,,,,,,,,,,,,,,,,,,,,,,,,,,,,,,,
,5f6ebfdd062b6e4168561195,627c6f5a623c20ce9f2c0b71,2022-05-11_22h23.09.944,classification_task,2021.2.3,Win32,59.69792848,627c6715c52fd12f31907bd0,,,,,,,,,,,,,,,,,,,,,,,l,1,1.3878,"[""0.694"",""0.434"",""0.552"",""0.782""]","[0,1,1,1]",0,54,54,54,1,1,1,,,1,FALSE,,,,,,,,,,,,,,,,,,,,,,,,,,,,,,,
,5f6ebfdd062b6e4168561195,627c6f5a623c20ce9f2c0b71,2022-05-11_22h23.09.944,classification_task,2021.2.3,Win32,59.69792848,627c6715c52fd12f31907bd0,,,,,,,,,,,,,,,,,,,,,,,a,1,1.979,"[""0.226"",""0.649"",""0.607"",""0.940""]","[1,0,1,1]",0,55,55,55,1,0,0,,,1,FALSE,,,,,,,,,,,,,,,,,,,,,,,,,,,,,,,
,5f6ebfdd062b6e4168561195,627c6f5a623c20ce9f2c0b71,2022-05-11_22h23.09.944,classification_task,2021.2.3,Win32,59.69792848,627c6715c52fd12f31907bd0,,,,,,,,,,,,,,,,,,,,,,,l,1,1.3138,"[""0.068"",""0.434"",""0.707"",""0.782""]","[1,1,0,1]",0,56,56,56,1,1,1,,,1,FALSE,,,,,,,,,,,,,,,,,,,,,,,,,,,,,,,
,5f6ebfdd062b6e4168561195,627c6f5a623c20ce9f2c0b71,2022-05-11_22h23.09.944,classification_task,2021.2.3,Win32,59.69792848,627c6715c52fd12f31907bd0,,,,,,,,,,,,,,,,,,,,,,,l,1,1.2096,"[""0.068"",""0.649"",""0.552"",""0.782""]","[1,0,1,1]",0,57,57,57,1,1,1,,,1,FALSE,,,,,,,,,,,,,,,,,,,,,,,,,,,,,,,
,5f6ebfdd062b6e4168561195,627c6f5a623c20ce9f2c0b71,2022-05-11_22h23.09.944,classification_task,2021.2.3,Win32,59.69792848,627c6715c52fd12f31907bd0,,,,,,,,,,,,,,,,,,,,,,,a,1,1.27,"[""0.189"",""0.393"",""0.881"",""0.694""]","[1,1,1,0]",0,58,58,58,1,0,1,,,1,FALSE,,,,,,,,,,,,,,,,,,,,,,,,,,,,,,,
,5f6ebfdd062b6e4168561195,627c6f5a623c20ce9f2c0b71,2022-05-11_22h23.09.944,classification_task,2021.2.3,Win32,59.69792848,627c6715c52fd12f31907bd0,,,,,,,,,,,,,,,,,,,,,,,a,1,2.5032,"[""0.189"",""0.393"",""0.309"",""0.974""]","[1,1,0,1]",0,59,59,59,1,0,1,,,1,FALSE,,,,,,,,,,,,,,,,,,,,,,,,,,,,,,,
,5f6ebfdd062b6e4168561195,627c6f5a623c20ce9f2c0b71,2022-05-11_22h23.09.944,classification_task,2021.2.3,Win32,59.69792848,627c6715c52fd12f31907bd0,,,,,,,,,,,,,,,,,,,,,,,a,1,1.3631,"[""0.189"",""0.649"",""0.881"",""0.974""]","[1,0,1,1]",0,60,60,60,1,0,1,,,1,FALSE,,,,,,,,,,,,,,,,,,,,,,,,,,,,,,,
,5f6ebfdd062b6e4168561195,627c6f5a623c20ce9f2c0b71,2022-05-11_22h23.09.944,classification_task,2021.2.3,Win32,59.69792848,627c6715c52fd12f31907bd0,,,,,,,,,,,,,,,,,,,,,,,a,1,1.1064,"[""0.309"",""0.393"",""0.881"",""0.974""]","[0,1,1,1]",0,61,61,61,1,0,1,,,1,FALSE,,,,,,,,,,,,,,,,,,,,,,,,,,,,,,,
,5f6ebfdd062b6e4168561195,627c6f5a623c20ce9f2c0b71,2022-05-11_22h23.09.944,classification_task,2021.2.3,Win32,59.69792848,627c6715c52fd12f31907bd0,,,,,,,,,,,,,,,,,,,,,,,a,0,1.2644,"[""0.649"",""0.262"",""0.498"",""0.817""]","[0,1,1,1]",0,62,62,62,1,1,0,,,1,FALSE,,,,,,,,,,,,,,,,,,,,,,,,,,,,,,,
,5f6ebfdd062b6e4168561195,627c6f5a623c20ce9f2c0b71,2022-05-11_22h23.09.944,classification_task,2021.2.3,Win32,59.69792848,627c6715c52fd12f31907bd0,,,,,,,,,,,,,,,,,,,,,,,l,1,1.4475,"[""0.137"",""0.262"",""0.707"",""0.817""]","[1,1,0,1]",0,63,63,63,1,1,0,,,1,FALSE,,,,,,,,,,,,,,,,,,,,,,,,,,,,,,,
,5f6ebfdd062b6e4168561195,627c6f5a623c20ce9f2c0b71,2022-05-11_22h23.09.944,classification_task,2021.2.3,Win32,59.69792848,627c6715c52fd12f31907bd0,,,,,,,,,,,,,,,,,,,,,,,,,,,,,,,,,,,,,,,0, ,,0,1.589781746,558.1764,0,0,0,0,1,2,1,,,,,,,,,,,,,,,,,,
,5f6ebfdd062b6e4168561195,627c6f5a623c20ce9f2c0b71,2022-05-11_22h23.09.944,classification_task,2021.2.3,Win32,59.69792848,627c6715c52fd12f31907bd0,,,,,,,,,,,,,,,,,,,,,,,,,,,,,,,,,,,,,,,1,  ,,0,5.895612875,560.3511,0,0,0,0,1,2,1,,,,,,,,,,,,,,,,,,
,5f6ebfdd062b6e4168561195,627c6f5a623c20ce9f2c0b71,2022-05-11_22h23.09.944,classification_task,2021.2.3,Win32,59.69792848,627c6715c52fd12f31907bd0,,,,,,,,,,,,,,,,,,,,,,,,,,,,,,,,,,,,,,,2,  ,,0,2.760967813,568.3144,0,0,0,0,1,2,1,,,,,,,,,,,,,,,,,,
,5f6ebfdd062b6e4168561195,627c6f5a623c20ce9f2c0b71,2022-05-11_22h23.09.944,classification_task,2021.2.3,Win32,59.69792848,627c6715c52fd12f31907bd0,,,,,,,,,,,,,,,,,,,,,,,,,,,,,,,,,,,,,,,,,,,,,0,0,0,0,1,,1,,,,,,,,,,,,,,,,,,
,5f6ebfdd062b6e4168561195,627c6f5a623c20ce9f2c0b71,2022-05-11_22h23.09.944,classification_task,2021.2.3,Win32,59.69792848,627c6715c52fd12f31907bd0,,,,,,,,,,,,,,,,,,,,,space,38.4869,l,1,3.8165,"[""0.137"",""0.262"",""0.314"",""0.817""]","[1,1,0,1]",0,0,0,0,1,1,0,,,1,FALSE,,,,,,,,,,,,,,,,,,,,,,,,,,,,,,,
,5f6ebfdd062b6e4168561195,627c6f5a623c20ce9f2c0b71,2022-05-11_22h23.09.944,classification_task,2021.2.3,Win32,59.69792848,627c6715c52fd12f31907bd0,,,,,,,,,,,,,,,,,,,,,,,l,1,2.4319,"[""0.137"",""0.744"",""0.498"",""0.817""]","[1,0,1,1]",0,1,1,1,1,1,0,,,1,FALSE,,,,,,,,,,,,,,,,,,,,,,,,,,,,,,,
,5f6ebfdd062b6e4168561195,627c6f5a623c20ce9f2c0b71,2022-05-11_22h23.09.944,classification_task,2021.2.3,Win32,59.69792848,627c6715c52fd12f31907bd0,,,,,,,,,,,,,,,,,,,,,,,a,1,0.9415,"[""0.226"",""0.348"",""0.607"",""0.694""]","[1,1,1,0]",0,2,2,2,1,0,0,,,1,FALSE,,,,,,,,,,,,,,,,,,,,,,,,,,,,,,,
,5f6ebfdd062b6e4168561195,627c6f5a623c20ce9f2c0b71,2022-05-11_22h23.09.944,classification_task,2021.2.3,Win32,59.69792848,627c6715c52fd12f31907bd0,,,,,,,,,,,,,,,,,,,,,,,a,1,2.2356,"[""0.189"",""0.393"",""0.881"",""0.706""]","[1,1,1,0]",0,3,3,3,1,0,1,,,1,FALSE,,,,,,,,,,,,,,,,,,,,,,,,,,,,,,,
,5f6ebfdd062b6e4168561195,627c6f5a623c20ce9f2c0b71,2022-05-11_22h23.09.944,classification_task,2021.2.3,Win32,59.69792848,627c6715c52fd12f31907bd0,,,,,,,,,,,,,,,,,,,,,,,a,0,2.4835,"[""0.709"",""0.262"",""0.498"",""0.817""]","[0,1,1,1]",0,4,4,4,1,1,0,,,1,FALSE,,,,,,,,,,,,,,,,,,,,,,,,,,,,,,,
,5f6ebfdd062b6e4168561195,627c6f5a623c20ce9f2c0b71,2022-05-11_22h23.09.944,classification_task,2021.2.3,Win32,59.69792848,627c6715c52fd12f31907bd0,,,,,,,,,,,,,,,,,,,,,,,a,1,1.2418,"[""0.226"",""0.348"",""0.694"",""0.940""]","[1,1,0,1]",0,5,5,5,1,0,0,,,1,FALSE,,,,,,,,,,,,,,,,,,,,,,,,,,,,,,,
,5f6ebfdd062b6e4168561195,627c6f5a623c20ce9f2c0b71,2022-05-11_22h23.09.944,classification_task,2021.2.3,Win32,59.69792848,627c6715c52fd12f31907bd0,,,,,,,,,,,,,,,,,,,,,,,a,0,1.9646,"[""0.309"",""0.434"",""0.552"",""0.782""]","[0,1,1,1]",0,6,6,6,1,1,1,,,1,FALSE,,,,,,,,,,,,,,,,,,,,,,,,,,,,,,,
,5f6ebfdd062b6e4168561195,627c6f5a623c20ce9f2c0b71,2022-05-11_22h23.09.944,classification_task,2021.2.3,Win32,59.69792848,627c6715c52fd12f31907bd0,,,,,,,,,,,,,,,,,,,,,,,a,1,0.8022,"[""0.701"",""0.393"",""0.881"",""0.974""]","[0,1,1,1]",0,7,7,7,1,0,1,,,1,FALSE,,,,,,,,,,,,,,,,,,,,,,,,,,,,,,,
,5f6ebfdd062b6e4168561195,627c6f5a623c20ce9f2c0b71,2022-05-11_22h23.09.944,classification_task,2021.2.3,Win32,59.69792848,627c6715c52fd12f31907bd0,,,,,,,,,,,,,,,,,,,,,,,a,1,1.0464,"[""0.189"",""0.681"",""0.881"",""0.974""]","[1,0,1,1]",0,8,8,8,1,0,1,,,1,FALSE,,,,,,,,,,,,,,,,,,,,,,,,,,,,,,,
,5f6ebfdd062b6e4168561195,627c6f5a623c20ce9f2c0b71,2022-05-11_22h23.09.944,classification_task,2021.2.3,Win32,59.69792848,627c6715c52fd12f31907bd0,,,,,,,,,,,,,,,,,,,,,,,a,1,2.2043,"[""0.226"",""0.309"",""0.607"",""0.940""]","[1,0,1,1]",0,9,9,9,1,0,0,,,1,FALSE,,,,,,,,,,,,,,,,,,,,,,,,,,,,,,,
,5f6ebfdd062b6e4168561195,627c6f5a623c20ce9f2c0b71,2022-05-11_22h23.09.944,classification_task,2021.2.3,Win32,59.69792848,627c6715c52fd12f31907bd0,,,,,,,,,,,,,,,,,,,,,,,a,1,2.0483,"[""0.189"",""0.393"",""0.309"",""0.974""]","[1,1,0,1]",0,10,10,10,1,0,1,,,1,FALSE,,,,,,,,,,,,,,,,,,,,,,,,,,,,,,,
,5f6ebfdd062b6e4168561195,627c6f5a623c20ce9f2c0b71,2022-05-11_22h23.09.944,classification_task,2021.2.3,Win32,59.69792848,627c6715c52fd12f31907bd0,,,,,,,,,,,,,,,,,,,,,,,l,1,0.9038,"[""0.068"",""0.434"",""0.552"",""0.314""]","[1,1,1,0]",0,11,11,11,1,1,1,,,1,FALSE,,,,,,,,,,,,,,,,,,,,,,,,,,,,,,,
,5f6ebfdd062b6e4168561195,627c6f5a623c20ce9f2c0b71,2022-05-11_22h23.09.944,classification_task,2021.2.3,Win32,59.69792848,627c6715c52fd12f31907bd0,,,,,,,,,,,,,,,,,,,,,,,l,1,0.7766,"[""0.068"",""0.434"",""0.706"",""0.782""]","[1,1,0,1]",0,12,12,12,1,1,1,,,1,FALSE,,,,,,,,,,,,,,,,,,,,,,,,,,,,,,,
,5f6ebfdd062b6e4168561195,627c6f5a623c20ce9f2c0b71,2022-05-11_22h23.09.944,classification_task,2021.2.3,Win32,59.69792848,627c6715c52fd12f31907bd0,,,,,,,,,,,,,,,,,,,,,,,l,1,0.6318,"[""0.068"",""0.740"",""0.552"",""0.782""]","[1,0,1,1]",0,13,13,13,1,1,1,,,1,FALSE,,,,,,,,,,,,,,,,,,,,,,,,,,,,,,,
,5f6ebfdd062b6e4168561195,627c6f5a623c20ce9f2c0b71,2022-05-11_22h23.09.944,classification_task,2021.2.3,Win32,59.69792848,627c6715c52fd12f31907bd0,,,,,,,,,,,,,,,,,,,,,,,l,1,0.9041,"[""0.137"",""0.262"",""0.498"",""0.309""]","[1,1,1,0]",0,14,14,14,1,1,0,,,1,FALSE,,,,,,,,,,,,,,,,,,,,,,,,,,,,,,,
,5f6ebfdd062b6e4168561195,627c6f5a623c20ce9f2c0b71,2022-05-11_22h23.09.944,classification_task,2021.2.3,Win32,59.69792848,627c6715c52fd12f31907bd0,,,,,,,,,,,,,,,,,,,,,,,a,1,1.4988,"[""0.701"",""0.348"",""0.607"",""0.940""]","[0,1,1,1]",0,15,15,15,1,0,0,,,1,FALSE,,,,,,,,,,,,,,,,,,,,,,,,,,,,,,,
,5f6ebfdd062b6e4168561195,627c6f5a623c20ce9f2c0b71,2022-05-11_22h23.09.944,classification_task,2021.2.3,Win32,59.69792848,627c6715c52fd12f31907bd0,,,,,,,,,,,,,,,,,,,,,,,l,0,2.1654,"[""0.189"",""0.393"",""0.881"",""0.701""]","[1,1,1,0]",0,16,16,16,1,0,1,,,1,FALSE,,,,,,,,,,,,,,,,,,,,,,,,,,,,,,,
,5f6ebfdd062b6e4168561195,627c6f5a623c20ce9f2c0b71,2022-05-11_22h23.09.944,classification_task,2021.2.3,Win32,59.69792848,627c6715c52fd12f31907bd0,,,,,,,,,,,,,,,,,,,,,,,l,1,0.9573,"[""0.137"",""0.262"",""0.740"",""0.817""]","[1,1,0,1]",0,17,17,17,1,1,0,,,1,FALSE,,,,,,,,,,,,,,,,,,,,,,,,,,,,,,,
,5f6ebfdd062b6e4168561195,627c6f5a623c20ce9f2c0b71,2022-05-11_22h23.09.944,classification_task,2021.2.3,Win32,59.69792848,627c6715c52fd12f31907bd0,,,,,,,,,,,,,,,,,,,,,,,l,1,0.5853,"[""0.137"",""0.309"",""0.498"",""0.817""]","[1,0,1,1]",0,18,18,18,1,1,0,,,1,FALSE,,,,,,,,,,,,,,,,,,,,,,,,,,,,,,,
,5f6ebfdd062b6e4168561195,627c6f5a623c20ce9f2c0b71,2022-05-11_22h23.09.944,classification_task,2021.2.3,Win32,59.69792848,627c6715c52fd12f31907bd0,,,,,,,,,,,,,,,,,,,,,,,a,0,2.136,"[""0.707"",""0.434"",""0.552"",""0.782""]","[0,1,1,1]",0,19,19,19,1,1,1,,,1,FALSE,,,,,,,,,,,,,,,,,,,,,,,,,,,,,,,
,5f6ebfdd062b6e4168561195,627c6f5a623c20ce9f2c0b71,2022-05-11_22h23.09.944,classification_task,2021.2.3,Win32,59.69792848,627c6715c52fd12f31907bd0,,,,,,,,,,,,,,,,,,,,,,,l,1,1.1659,"[""0.068"",""0.434"",""0.552"",""0.740""]","[1,1,1,0]",0,20,20,20,1,1,1,,,1,FALSE,,,,,,,,,,,,,,,,,,,,,,,,,,,,,,,
,5f6ebfdd062b6e4168561195,627c6f5a623c20ce9f2c0b71,2022-05-11_22h23.09.944,classification_task,2021.2.3,Win32,59.69792848,627c6715c52fd12f31907bd0,,,,,,,,,,,,,,,,,,,,,,,a,1,0.8921,"[""0.314"",""0.393"",""0.881"",""0.974""]","[0,1,1,1]",0,21,21,21,1,0,1,,,1,FALSE,,,,,,,,,,,,,,,,,,,,,,,,,,,,,,,
,5f6ebfdd062b6e4168561195,627c6f5a623c20ce9f2c0b71,2022-05-11_22h23.09.944,classification_task,2021.2.3,Win32,59.69792848,627c6715c52fd12f31907bd0,,,,,,,,,,,,,,,,,,,,,,,a,1,1.0954,"[""0.226"",""0.348"",""0.607"",""0.649""]","[1,1,1,0]",0,22,22,22,1,0,0,,,1,FALSE,,,,,,,,,,,,,,,,,,,,,,,,,,,,,,,
,5f6ebfdd062b6e4168561195,627c6f5a623c20ce9f2c0b71,2022-05-11_22h23.09.944,classification_task,2021.2.3,Win32,59.69792848,627c6715c52fd12f31907bd0,,,,,,,,,,,,,,,,,,,,,,,l,0,1.0971,"[""0.189"",""0.728"",""0.881"",""0.974""]","[1,0,1,1]",0,23,23,23,1,0,1,,,1,FALSE,,,,,,,,,,,,,,,,,,,,,,,,,,,,,,,
,5f6ebfdd062b6e4168561195,627c6f5a623c20ce9f2c0b71,2022-05-11_22h23.09.944,classification_task,2021.2.3,Win32,59.69792848,627c6715c52fd12f31907bd0,,,,,,,,,,,,,,,,,,,,,,,a,1,0.9051,"[""0.189"",""0.393"",""0.701"",""0.974""]","[1,1,0,1]",0,24,24,24,1,0,1,,,1,FALSE,,,,,,,,,,,,,,,,,,,,,,,,,,,,,,,
,5f6ebfdd062b6e4168561195,627c6f5a623c20ce9f2c0b71,2022-05-11_22h23.09.944,classification_task,2021.2.3,Win32,59.69792848,627c6715c52fd12f31907bd0,,,,,,,,,,,,,,,,,,,,,,,a,1,1.5219,"[""0.709"",""0.348"",""0.607"",""0.940""]","[0,1,1,1]",0,25,25,25,1,0,0,,,1,FALSE,,,,,,,,,,,,,,,,,,,,,,,,,,,,,,,
,5f6ebfdd062b6e4168561195,627c6f5a623c20ce9f2c0b71,2022-05-11_22h23.09.944,classification_task,2021.2.3,Win32,59.69792848,627c6715c52fd12f31907bd0,,,,,,,,,,,,,,,,,,,,,,,a,1,0.8708,"[""0.226"",""0.348"",""0.707"",""0.940""]","[1,1,0,1]",0,26,26,26,1,0,0,,,1,FALSE,,,,,,,,,,,,,,,,,,,,,,,,,,,,,,,
,5f6ebfdd062b6e4168561195,627c6f5a623c20ce9f2c0b71,2022-05-11_22h23.09.944,classification_task,2021.2.3,Win32,59.69792848,627c6715c52fd12f31907bd0,,,,,,,,,,,,,,,,,,,,,,,a,0,0.0008,"[""0.701"",""0.262"",""0.498"",""0.817""]","[0,1,1,1]",0,27,27,27,1,1,0,,,1,FALSE,,,,,,,,,,,,,,,,,,,,,,,,,,,,,,,
,5f6ebfdd062b6e4168561195,627c6f5a623c20ce9f2c0b71,2022-05-11_22h23.09.944,classification_task,2021.2.3,Win32,59.69792848,627c6715c52fd12f31907bd0,,,,,,,,,,,,,,,,,,,,,,,l,1,1.0052,"[""0.068"",""0.434"",""0.701"",""0.782""]","[1,1,0,1]",0,28,28,28,1,1,1,,,1,FALSE,,,,,,,,,,,,,,,,,,,,,,,,,,,,,,,
,5f6ebfdd062b6e4168561195,627c6f5a623c20ce9f2c0b71,2022-05-11_22h23.09.944,classification_task,2021.2.3,Win32,59.69792848,627c6715c52fd12f31907bd0,,,,,,,,,,,,,,,,,,,,,,,a,1,0.7462,"[""0.226"",""0.740"",""0.607"",""0.940""]","[1,0,1,1]",0,29,29,29,1,0,0,,,1,FALSE,,,,,,,,,,,,,,,,,,,,,,,,,,,,,,,
,5f6ebfdd062b6e4168561195,627c6f5a623c20ce9f2c0b71,2022-05-11_22h23.09.944,classification_task,2021.2.3,Win32,59.69792848,627c6715c52fd12f31907bd0,,,,,,,,,,,,,,,,,,,,,,,l,1,7.8315,"[""0.068"",""0.689"",""0.552"",""0.782""]","[1,0,1,1]",0,30,30,30,1,1,1,,,1,FALSE,,,,,,,,,,,,,,,,,,,,,,,,,,,,,,,
,5f6ebfdd062b6e4168561195,627c6f5a623c20ce9f2c0b71,2022-05-11_22h23.09.944,classification_task,2021.2.3,Win32,59.69792848,627c6715c52fd12f31907bd0,,,,,,,,,,,,,,,,,,,,,,,l,1,2.1008,"[""0.137"",""0.262"",""0.498"",""0.709""]","[1,1,1,0]",0,31,31,31,1,1,0,,,1,FALSE,,,,,,,,,,,,,,,,,,,,,,,,,,,,,,,
,5f6ebfdd062b6e4168561195,627c6f5a623c20ce9f2c0b71,2022-05-11_22h23.09.944,classification_task,2021.2.3,Win32,59.69792848,627c6715c52fd12f31907bd0,,,,,,,,,,,,,,,,,,,,,,,a,1,2.4273,"[""0.189"",""0.689"",""0.881"",""0.974""]","[1,0,1,1]",0,32,32,32,1,0,1,,,1,FALSE,,,,,,,,,,,,,,,,,,,,,,,,,,,,,,,
,5f6ebfdd062b6e4168561195,627c6f5a623c20ce9f2c0b71,2022-05-11_22h23.09.944,classification_task,2021.2.3,Win32,59.69792848,627c6715c52fd12f31907bd0,,,,,,,,,,,,,,,,,,,,,,,l,0,5.787,"[""0.226"",""0.348"",""0.707"",""0.940""]","[1,1,0,1]",0,33,33,33,1,0,0,,,1,FALSE,,,,,,,,,,,,,,,,,,,,,,,,,,,,,,,
,5f6ebfdd062b6e4168561195,627c6f5a623c20ce9f2c0b71,2022-05-11_22h23.09.944,classification_task,2021.2.3,Win32,59.69792848,627c6715c52fd12f31907bd0,,,,,,,,,,,,,,,,,,,,,,,l,0,1.2222,"[""0.189"",""0.393"",""0.881"",""0.707""]","[1,1,1,0]",0,34,34,34,1,0,1,,,1,FALSE,,,,,,,,,,,,,,,,,,,,,,,,,,,,,,,
,5f6ebfdd062b6e4168561195,627c6f5a623c20ce9f2c0b71,2022-05-11_22h23.09.944,classification_task,2021.2.3,Win32,59.69792848,627c6715c52fd12f31907bd0,,,,,,,,,,,,,,,,,,,,,,,a,0,1.1954,"[""0.701"",""0.262"",""0.498"",""0.817""]","[0,1,1,1]",0,35,35,35,1,1,0,,,1,FALSE,,,,,,,,,,,,,,,,,,,,,,,,,,,,,,,
,5f6ebfdd062b6e4168561195,627c6f5a623c20ce9f2c0b71,2022-05-11_22h23.09.944,classification_task,2021.2.3,Win32,59.69792848,627c6715c52fd12f31907bd0,,,,,,,,,,,,,,,,,,,,,,,l,1,1.2348,"[""0.068"",""0.434"",""0.552"",""0.666""]","[1,1,1,0]",0,36,36,36,1,1,1,,,1,FALSE,,,,,,,,,,,,,,,,,,,,,,,,,,,,,,,
,5f6ebfdd062b6e4168561195,627c6f5a623c20ce9f2c0b71,2022-05-11_22h23.09.944,classification_task,2021.2.3,Win32,59.69792848,627c6715c52fd12f31907bd0,,,,,,,,,,,,,,,,,,,,,,,a,1,0.9384,"[""0.226"",""0.348"",""0.607"",""0.309""]","[1,1,1,0]",0,37,37,37,1,0,0,,,1,FALSE,,,,,,,,,,,,,,,,,,,,,,,,,,,,,,,
,5f6ebfdd062b6e4168561195,627c6f5a623c20ce9f2c0b71,2022-05-11_22h23.09.944,classification_task,2021.2.3,Win32,59.69792848,627c6715c52fd12f31907bd0,,,,,,,,,,,,,,,,,,,,,,,a,1,6.9334,"[""0.189"",""0.393"",""0.314"",""0.974""]","[1,1,0,1]",0,38,38,38,1,0,1,,,1,FALSE,,,,,,,,,,,,,,,,,,,,,,,,,,,,,,,
,5f6ebfdd062b6e4168561195,627c6f5a623c20ce9f2c0b71,2022-05-11_22h23.09.944,classification_task,2021.2.3,Win32,59.69792848,627c6715c52fd12f31907bd0,,,,,,,,,,,,,,,,,,,,,,,a,1,3.122,"[""0.649"",""0.393"",""0.881"",""0.974""]","[0,1,1,1]",0,39,39,39,1,0,1,,,1,FALSE,,,,,,,,,,,,,,,,,,,,,,,,,,,,,,,
,5f6ebfdd062b6e4168561195,627c6f5a623c20ce9f2c0b71,2022-05-11_22h23.09.944,classification_task,2021.2.3,Win32,59.69792848,627c6715c52fd12f31907bd0,,,,,,,,,,,,,,,,,,,,,,,a,1,1.4215,"[""0.226"",""0.666"",""0.607"",""0.940""]","[1,0,1,1]",0,40,40,40,1,0,0,,,1,FALSE,,,,,,,,,,,,,,,,,,,,,,,,,,,,,,,
,5f6ebfdd062b6e4168561195,627c6f5a623c20ce9f2c0b71,2022-05-11_22h23.09.944,classification_task,2021.2.3,Win32,59.69792848,627c6715c52fd12f31907bd0,,,,,,,,,,,,,,,,,,,,,,,l,1,1.2499,"[""0.137"",""0.262"",""0.498"",""0.706""]","[1,1,1,0]",0,41,41,41,1,1,0,,,1,FALSE,,,,,,,,,,,,,,,,,,,,,,,,,,,,,,,
,5f6ebfdd062b6e4168561195,627c6f5a623c20ce9f2c0b71,2022-05-11_22h23.09.944,classification_task,2021.2.3,Win32,59.69792848,627c6715c52fd12f31907bd0,,,,,,,,,,,,,,,,,,,,,,,l,1,1.649,"[""0.068"",""0.314"",""0.552"",""0.782""]","[1,0,1,1]",0,42,42,42,1,1,1,,,1,FALSE,,,,,,,,,,,,,,,,,,,,,,,,,,,,,,,
,5f6ebfdd062b6e4168561195,627c6f5a623c20ce9f2c0b71,2022-05-11_22h23.09.944,classification_task,2021.2.3,Win32,59.69792848,627c6715c52fd12f31907bd0,,,,,,,,,,,,,,,,,,,,,,,a,1,2.6082,"[""0.681"",""0.348"",""0.607"",""0.940""]","[0,1,1,1]",0,43,43,43,1,0,0,,,1,FALSE,,,,,,,,,,,,,,,,,,,,,,,,,,,,,,,
,5f6ebfdd062b6e4168561195,627c6f5a623c20ce9f2c0b71,2022-05-11_22h23.09.944,classification_task,2021.2.3,Win32,59.69792848,627c6715c52fd12f31907bd0,,,,,,,,,,,,,,,,,,,,,,,l,1,1.0877,"[""0.137"",""0.262"",""0.694"",""0.817""]","[1,1,0,1]",0,44,44,44,1,1,0,,,1,FALSE,,,,,,,,,,,,,,,,,,,,,,,,,,,,,,,
,5f6ebfdd062b6e4168561195,627c6f5a623c20ce9f2c0b71,2022-05-11_22h23.09.944,classification_task,2021.2.3,Win32,59.69792848,627c6715c52fd12f31907bd0,,,,,,,,,,,,,,,,,,,,,,,l,1,3.5139,"[""0.689"",""0.434"",""0.552"",""0.782""]","[0,1,1,1]",0,45,45,45,1,1,1,,,1,FALSE,,,,,,,,,,,,,,,,,,,,,,,,,,,,,,,
,5f6ebfdd062b6e4168561195,627c6f5a623c20ce9f2c0b71,2022-05-11_22h23.09.944,classification_task,2021.2.3,Win32,59.69792848,627c6715c52fd12f31907bd0,,,,,,,,,,,,,,,,,,,,,,,l,1,2.5088,"[""0.137"",""0.707"",""0.498"",""0.817""]","[1,0,1,1]",0,46,46,46,1,1,0,,,1,FALSE,,,,,,,,,,,,,,,,,,,,,,,,,,,,,,,
,5f6ebfdd062b6e4168561195,627c6f5a623c20ce9f2c0b71,2022-05-11_22h23.09.944,classification_task,2021.2.3,Win32,59.69792848,627c6715c52fd12f31907bd0,,,,,,,,,,,,,,,,,,,,,,,l,1,3.8863,"[""0.068"",""0.434"",""0.309"",""0.782""]","[1,1,0,1]",0,47,47,47,1,1,1,,,1,FALSE,,,,,,,,,,,,,,,,,,,,,,,,,,,,,,,
,5f6ebfdd062b6e4168561195,627c6f5a623c20ce9f2c0b71,2022-05-11_22h23.09.944,classification_task,2021.2.3,Win32,59.69792848,627c6715c52fd12f31907bd0,,,,,,,,,,,,,,,,,,,,,,,a,1,3.4099,"[""0.189"",""0.393"",""0.309"",""0.974""]","[1,1,0,1]",0,48,48,48,1,0,1,,,1,FALSE,,,,,,,,,,,,,,,,,,,,,,,,,,,,,,,
,5f6ebfdd062b6e4168561195,627c6f5a623c20ce9f2c0b71,2022-05-11_22h23.09.944,classification_task,2021.2.3,Win32,59.69792848,627c6715c52fd12f31907bd0,,,,,,,,,,,,,,,,,,,,,,,l,1,1.049,"[""0.137"",""0.262"",""0.666"",""0.817""]","[1,1,0,1]",0,49,49,49,1,1,0,,,1,FALSE,,,,,,,,,,,,,,,,,,,,,,,,,,,,,,,
,5f6ebfdd062b6e4168561195,627c6f5a623c20ce9f2c0b71,2022-05-11_22h23.09.944,classification_task,2021.2.3,Win32,59.69792848,627c6715c52fd12f31907bd0,,,,,,,,,,,,,,,,,,,,,,,l,1,1.4687,"[""0.068"",""0.434"",""0.694"",""0.782""]","[1,1,0,1]",0,50,50,50,1,1,1,,,1,FALSE,,,,,,,,,,,,,,,,,,,,,,,,,,,,,,,
,5f6ebfdd062b6e4168561195,627c6f5a623c20ce9f2c0b71,2022-05-11_22h23.09.944,classification_task,2021.2.3,Win32,59.69792848,627c6715c52fd12f31907bd0,,,,,,,,,,,,,,,,,,,,,,,a,1,1.3887,"[""0.226"",""0.707"",""0.607"",""0.940""]","[1,0,1,1]",0,51,51,51,1,0,0,,,1,FALSE,,,,,,,,,,,,,,,,,,,,,,,,,,,,,,,
,5f6ebfdd062b6e4168561195,627c6f5a623c20ce9f2c0b71,2022-05-11_22h23.09.944,classification_task,2021.2.3,Win32,59.69792848,627c6715c52fd12f31907bd0,,,,,,,,,,,,,,,,,,,,,,,a,1,1.6158,"[""0.728"",""0.393"",""0.881"",""0.974""]","[0,1,1,1]",0,52,52,52,1,0,1,,,1,FALSE,,,,,,,,,,,,,,,,,,,,,,,,,,,,,,,
,5f6ebfdd062b6e4168561195,627c6f5a623c20ce9f2c0b71,2022-05-11_22h23.09.944,classification_task,2021.2.3,Win32,59.69792848,627c6715c52fd12f31907bd0,,,,,,,,,,,,,,,,,,,,,,,l,0,0.9913,"[""0.226"",""0.348"",""0.607"",""0.706""]","[1,1,1,0]",0,53,53,53,1,0,0,,,1,FALSE,,,,,,,,,,,,,,,,,,,,,,,,,,,,,,,
,5f6ebfdd062b6e4168561195,627c6f5a623c20ce9f2c0b71,2022-05-11_22h23.09.944,classification_task,2021.2.3,Win32,59.69792848,627c6715c52fd12f31907bd0,,,,,,,,,,,,,,,,,,,,,,,a,0,0.9094,"[""0.137"",""0.694"",""0.498"",""0.817""]","[1,0,1,1]",0,54,54,54,1,1,0,,,1,FALSE,,,,,,,,,,,,,,,,,,,,,,,,,,,,,,,
,5f6ebfdd062b6e4168561195,627c6f5a623c20ce9f2c0b71,2022-05-11_22h23.09.944,classification_task,2021.2.3,Win32,59.69792848,627c6715c52fd12f31907bd0,,,,,,,,,,,,,,,,,,,,,,,a,1,1.1858,"[""0.226"",""0.348"",""0.740"",""0.940""]","[1,1,0,1]",0,55,55,55,1,0,0,,,1,FALSE,,,,,,,,,,,,,,,,,,,,,,,,,,,,,,,
,5f6ebfdd062b6e4168561195,627c6f5a623c20ce9f2c0b71,2022-05-11_22h23.09.944,classification_task,2021.2.3,Win32,59.69792848,627c6715c52fd12f31907bd0,,,,,,,,,,,,,,,,,,,,,,,l,1,2.3726,"[""0.649"",""0.434"",""0.552"",""0.782""]","[0,1,1,1]",0,56,56,56,1,1,1,,,1,FALSE,,,,,,,,,,,,,,,,,,,,,,,,,,,,,,,
,5f6ebfdd062b6e4168561195,627c6f5a623c20ce9f2c0b71,2022-05-11_22h23.09.944,classification_task,2021.2.3,Win32,59.69792848,627c6715c52fd12f31907bd0,,,,,,,,,,,,,,,,,,,,,,,a,0,1.7236,"[""0.068"",""0.681"",""0.552"",""0.782""]","[1,0,1,1]",0,57,57,57,1,1,1,,,1,FALSE,,,,,,,,,,,,,,,,,,,,,,,,,,,,,,,
,5f6ebfdd062b6e4168561195,627c6f5a623c20ce9f2c0b71,2022-05-11_22h23.09.944,classification_task,2021.2.3,Win32,59.69792848,627c6715c52fd12f31907bd0,,,,,,,,,,,,,,,,,,,,,,,l,1,1.0111,"[""0.137"",""0.262"",""0.498"",""0.309""]","[1,1,1,0]",0,58,58,58,1,1,0,,,1,FALSE,,,,,,,,,,,,,,,,,,,,,,,,,,,,,,,
,5f6ebfdd062b6e4168561195,627c6f5a623c20ce9f2c0b71,2022-05-11_22h23.09.944,classification_task,2021.2.3,Win32,59.69792848,627c6715c52fd12f31907bd0,,,,,,,,,,,,,,,,,,,,,,,l,0,2.6347,"[""0.189"",""0.393"",""0.881"",""0.706""]","[1,1,1,0]",0,59,59,59,1,0,1,,,1,FALSE,,,,,,,,,,,,,,,,,,,,,,,,,,,,,,,
,5f6ebfdd062b6e4168561195,627c6f5a623c20ce9f2c0b71,2022-05-11_22h23.09.944,classification_task,2021.2.3,Win32,59.69792848,627c6715c52fd12f31907bd0,,,,,,,,,,,,,,,,,,,,,,,a,0,1.0914,"[""0.694"",""0.262"",""0.498"",""0.817""]","[0,1,1,1]",0,60,60,60,1,1,0,,,1,FALSE,,,,,,,,,,,,,,,,,,,,,,,,,,,,,,,
,5f6ebfdd062b6e4168561195,627c6f5a623c20ce9f2c0b71,2022-05-11_22h23.09.944,classification_task,2021.2.3,Win32,59.69792848,627c6715c52fd12f31907bd0,,,,,,,,,,,,,,,,,,,,,,,l,1,2.9367,"[""0.068"",""0.434"",""0.552"",""0.314""]","[1,1,1,0]",0,61,61,61,1,1,1,,,1,FALSE,,,,,,,,,,,,,,,,,,,,,,,,,,,,,,,
,5f6ebfdd062b6e4168561195,627c6f5a623c20ce9f2c0b71,2022-05-11_22h23.09.944,classification_task,2021.2.3,Win32,59.69792848,627c6715c52fd12f31907bd0,,,,,,,,,,,,,,,,,,,,,,,a,1,0.854,"[""0.689"",""0.348"",""0.607"",""0.940""]","[0,1,1,1]",0,62,62,62,1,0,0,,,1,FALSE,,,,,,,,,,,,,,,,,,,,,,,,,,,,,,,
,5f6ebfdd062b6e4168561195,627c6f5a623c20ce9f2c0b71,2022-05-11_22h23.09.944,classification_task,2021.2.3,Win32,59.69792848,627c6715c52fd12f31907bd0,,,,,,,,,,,,,,,,,,,,,,,l,0,3.8845,"[""0.189"",""0.729"",""0.881"",""0.974""]","[1,0,1,1]",0,63,63,63,1,0,1,,,1,FALSE,,,,,,,,,,,,,,,,,,,,,,,,,,,,,,,
,5f6ebfdd062b6e4168561195,627c6f5a623c20ce9f2c0b71,2022-05-11_22h23.09.944,classification_task,2021.2.3,Win32,59.69792848,627c6715c52fd12f31907bd0,,,,,,,,,,,,,,,,,,,,,,,,,,,,,,,,,,,,,,,0, ,,0,2.347608025,247.5692,0,1,1,1,1,2,2,,,,,,,,,,,,,,,,,,
,5f6ebfdd062b6e4168561195,627c6f5a623c20ce9f2c0b71,2022-05-11_22h23.09.944,classification_task,2021.2.3,Win32,59.69792848,627c6715c52fd12f31907bd0,,,,,,,,,,,,,,,,,,,,,,,,,,,,,,,,,,,,,,,1,  ,,0,5.172233245,258.5089,0,1,1,1,1,2,2,,,,,,,,,,,,,,,,,,
,5f6ebfdd062b6e4168561195,627c6f5a623c20ce9f2c0b71,2022-05-11_22h23.09.944,classification_task,2021.2.3,Win32,59.69792848,627c6715c52fd12f31907bd0,,,,,,,,,,,,,,,,,,,,,,,,,,,,,,,,,,,,,,,2,  ,,0,5.206679894,297.8841,0,1,1,1,1,2,2,,,,,,,,,,,,,,,,,,
,5f6ebfdd062b6e4168561195,627c6f5a623c20ce9f2c0b71,2022-05-11_22h23.09.944,classification_task,2021.2.3,Win32,59.69792848,627c6715c52fd12f31907bd0,,,,,,,,,,,,,,,,,,,,,,,,,,,,,,,,,,,,,,,,,,,,,0,1,1,1,1,,2,,,,,,,,,,,,,,,,,,
,5f6ebfdd062b6e4168561195,627c6f5a623c20ce9f2c0b71,2022-05-11_22h23.09.944,classification_task,2021.2.3,Win32,59.69792848,627c6715c52fd12f31907bd0,,,,,,,,,,,,,,,,,,,,,space,428.9281,l,1,1.6573,"[""0.068"",""0.434"",""0.689"",""0.782""]","[1,1,0,1]",0,0,0,0,1,1,1,,,1,FALSE,,,,,,,,,,,,,,,,,,,,,,,,,,,,,,,
,5f6ebfdd062b6e4168561195,627c6f5a623c20ce9f2c0b71,2022-05-11_22h23.09.944,classification_task,2021.2.3,Win32,59.69792848,627c6715c52fd12f31907bd0,,,,,,,,,,,,,,,,,,,,,,,l,1,2.4543,"[""0.137"",""0.262"",""0.498"",""0.649""]","[1,1,1,0]",0,1,1,1,1,1,0,,,1,FALSE,,,,,,,,,,,,,,,,,,,,,,,,,,,,,,,
,5f6ebfdd062b6e4168561195,627c6f5a623c20ce9f2c0b71,2022-05-11_22h23.09.944,classification_task,2021.2.3,Win32,59.69792848,627c6715c52fd12f31907bd0,,,,,,,,,,,,,,,,,,,,,,,a,1,1.4909,"[""0.189"",""0.393"",""0.728"",""0.974""]","[1,1,0,1]",0,2,2,2,1,0,1,,,1,FALSE,,,,,,,,,,,,,,,,,,,,,,,,,,,,,,,
,5f6ebfdd062b6e4168561195,627c6f5a623c20ce9f2c0b71,2022-05-11_22h23.09.944,classification_task,2021.2.3,Win32,59.69792848,627c6715c52fd12f31907bd0,,,,,,,,,,,,,,,,,,,,,,,l,1,2.0776,"[""0.068"",""0.694"",""0.552"",""0.782""]","[1,0,1,1]",0,3,3,3,1,1,1,,,1,FALSE,,,,,,,,,,,,,,,,,,,,,,,,,,,,,,,
,5f6ebfdd062b6e4168561195,627c6f5a623c20ce9f2c0b71,2022-05-11_22h23.09.944,classification_task,2021.2.3,Win32,59.69792848,627c6715c52fd12f31907bd0,,,,,,,,,,,,,,,,,,,,,,,a,1,1.2126,"[""0.649"",""0.348"",""0.607"",""0.940""]","[0,1,1,1]",0,4,4,4,1,0,0,,,1,FALSE,,,,,,,,,,,,,,,,,,,,,,,,,,,,,,,
,5f6ebfdd062b6e4168561195,627c6f5a623c20ce9f2c0b71,2022-05-11_22h23.09.944,classification_task,2021.2.3,Win32,59.69792848,627c6715c52fd12f31907bd0,,,,,,,,,,,,,,,,,,,,,,,a,1,0.7461,"[""0.226"",""0.348"",""0.707"",""0.940""]","[1,1,0,1]",0,5,5,5,1,0,0,,,1,FALSE,,,,,,,,,,,,,,,,,,,,,,,,,,,,,,,
,5f6ebfdd062b6e4168561195,627c6f5a623c20ce9f2c0b71,2022-05-11_22h23.09.944,classification_task,2021.2.3,Win32,59.69792848,627c6715c52fd12f31907bd0,,,,,,,,,,,,,,,,,,,,,,,a,1,1.5064,"[""0.189"",""0.393"",""0.881"",""0.707""]","[1,1,1,0]",0,6,6,6,1,0,1,,,1,FALSE,,,,,,,,,,,,,,,,,,,,,,,,,,,,,,,
,5f6ebfdd062b6e4168561195,627c6f5a623c20ce9f2c0b71,2022-05-11_22h23.09.944,classification_task,2021.2.3,Win32,59.69792848,627c6715c52fd12f31907bd0,,,,,,,,,,,,,,,,,,,,,,,l,0,3.4761,"[""0.189"",""0.709"",""0.881"",""0.974""]","[1,0,1,1]",0,7,7,7,1,0,1,,,1,FALSE,,,,,,,,,,,,,,,,,,,,,,,,,,,,,,,
,5f6ebfdd062b6e4168561195,627c6f5a623c20ce9f2c0b71,2022-05-11_22h23.09.944,classification_task,2021.2.3,Win32,59.69792848,627c6715c52fd12f31907bd0,,,,,,,,,,,,,,,,,,,,,,,l,1,1.9117,"[""0.137"",""0.262"",""0.744"",""0.817""]","[1,1,0,1]",0,8,8,8,1,1,0,,,1,FALSE,,,,,,,,,,,,,,,,,,,,,,,,,,,,,,,
,5f6ebfdd062b6e4168561195,627c6f5a623c20ce9f2c0b71,2022-05-11_22h23.09.944,classification_task,2021.2.3,Win32,59.69792848,627c6715c52fd12f31907bd0,,,,,,,,,,,,,,,,,,,,,,,l,1,3.9779,"[""0.707"",""0.262"",""0.498"",""0.817""]","[0,1,1,1]",0,9,9,9,1,1,0,,,1,FALSE,,,,,,,,,,,,,,,,,,,,,,,,,,,,,,,
,5f6ebfdd062b6e4168561195,627c6f5a623c20ce9f2c0b71,2022-05-11_22h23.09.944,classification_task,2021.2.3,Win32,59.69792848,627c6715c52fd12f31907bd0,,,,,,,,,,,,,,,,,,,,,,,a,1,1.551,"[""0.689"",""0.393"",""0.881"",""0.974""]","[0,1,1,1]",0,10,10,10,1,0,1,,,1,FALSE,,,,,,,,,,,,,,,,,,,,,,,,,,,,,,,
,5f6ebfdd062b6e4168561195,627c6f5a623c20ce9f2c0b71,2022-05-11_22h23.09.944,classification_task,2021.2.3,Win32,59.69792848,627c6715c52fd12f31907bd0,,,,,,,,,,,,,,,,,,,,,,,a,1,1.1598,"[""0.226"",""0.348"",""0.607"",""0.689""]","[1,1,1,0]",0,11,11,11,1,0,0,,,1,FALSE,,,,,,,,,,,,,,,,,,,,,,,,,,,,,,,
,5f6ebfdd062b6e4168561195,627c6f5a623c20ce9f2c0b71,2022-05-11_22h23.09.944,classification_task,2021.2.3,Win32,59.69792848,627c6715c52fd12f31907bd0,,,,,,,,,,,,,,,,,,,,,,,a,0,2.8528,"[""0.701"",""0.434"",""0.552"",""0.782""]","[0,1,1,1]",0,12,12,12,1,1,1,,,1,FALSE,,,,,,,,,,,,,,,,,,,,,,,,,,,,,,,
,5f6ebfdd062b6e4168561195,627c6f5a623c20ce9f2c0b71,2022-05-11_22h23.09.944,classification_task,2021.2.3,Win32,59.69792848,627c6715c52fd12f31907bd0,,,,,,,,,,,,,,,,,,,,,,,l,1,3.1069,"[""0.068"",""0.434"",""0.552"",""0.694""]","[1,1,1,0]",0,13,13,13,1,1,1,,,1,FALSE,,,,,,,,,,,,,,,,,,,,,,,,,,,,,,,
,5f6ebfdd062b6e4168561195,627c6f5a623c20ce9f2c0b71,2022-05-11_22h23.09.944,classification_task,2021.2.3,Win32,59.69792848,627c6715c52fd12f31907bd0,,,,,,,,,,,,,,,,,,,,,,,l,1,1.6122,"[""0.137"",""0.694"",""0.498"",""0.817""]","[1,0,1,1]",0,14,14,14,1,1,0,,,1,FALSE,,,,,,,,,,,,,,,,,,,,,,,,,,,,,,,
,5f6ebfdd062b6e4168561195,627c6f5a623c20ce9f2c0b71,2022-05-11_22h23.09.944,classification_task,2021.2.3,Win32,59.69792848,627c6715c52fd12f31907bd0,,,,,,,,,,,,,,,,,,,,,,,a,1,0.7295,"[""0.226"",""0.707"",""0.607"",""0.940""]","[1,0,1,1]",0,15,15,15,1,0,0,,,1,FALSE,,,,,,,,,,,,,,,,,,,,,,,,,,,,,,,
,5f6ebfdd062b6e4168561195,627c6f5a623c20ce9f2c0b71,2022-05-11_22h23.09.944,classification_task,2021.2.3,Win32,59.69792848,627c6715c52fd12f31907bd0,,,,,,,,,,,,,,,,,,,,,,,l,1,1.0662,"[""0.137"",""0.728"",""0.498"",""0.817""]","[1,0,1,1]",0,16,16,16,1,1,0,,,1,FALSE,,,,,,,,,,,,,,,,,,,,,,,,,,,,,,,
,5f6ebfdd062b6e4168561195,627c6f5a623c20ce9f2c0b71,2022-05-11_22h23.09.944,classification_task,2021.2.3,Win32,59.69792848,627c6715c52fd12f31907bd0,,,,,,,,,,,,,,,,,,,,,,,l,1,5.4875,"[""0.689"",""0.434"",""0.552"",""0.782""]","[0,1,1,1]",0,17,17,17,1,1,1,,,1,FALSE,,,,,,,,,,,,,,,,,,,,,,,,,,,,,,,
,5f6ebfdd062b6e4168561195,627c6f5a623c20ce9f2c0b71,2022-05-11_22h23.09.944,classification_task,2021.2.3,Win32,59.69792848,627c6715c52fd12f31907bd0,,,,,,,,,,,,,,,,,,,,,,,l,1,1.2594,"[""0.068"",""0.434"",""0.552"",""0.694""]","[1,1,1,0]",0,18,18,18,1,1,1,,,1,FALSE,,,,,,,,,,,,,,,,,,,,,,,,,,,,,,,
,5f6ebfdd062b6e4168561195,627c6f5a623c20ce9f2c0b71,2022-05-11_22h23.09.944,classification_task,2021.2.3,Win32,59.69792848,627c6715c52fd12f31907bd0,,,,,,,,,,,,,,,,,,,,,,,l,1,3.8152,"[""0.068"",""0.434"",""0.740"",""0.782""]","[1,1,0,1]",0,19,19,19,1,1,1,,,1,FALSE,,,,,,,,,,,,,,,,,,,,,,,,,,,,,,,
,5f6ebfdd062b6e4168561195,627c6f5a623c20ce9f2c0b71,2022-05-11_22h23.09.944,classification_task,2021.2.3,Win32,59.69792848,627c6715c52fd12f31907bd0,,,,,,,,,,,,,,,,,,,,,,,a,1,2.3215,"[""0.681"",""0.348"",""0.607"",""0.940""]","[0,1,1,1]",0,20,20,20,1,0,0,,,1,FALSE,,,,,,,,,,,,,,,,,,,,,,,,,,,,,,,
,5f6ebfdd062b6e4168561195,627c6f5a623c20ce9f2c0b71,2022-05-11_22h23.09.944,classification_task,2021.2.3,Win32,59.69792848,627c6715c52fd12f31907bd0,,,,,,,,,,,,,,,,,,,,,,,l,0,1.0414,"[""0.226"",""0.348"",""0.607"",""0.026""]","[1,1,1,0]",0,21,21,21,1,0,0,,,1,FALSE,,,,,,,,,,,,,,,,,,,,,,,,,,,,,,,
,5f6ebfdd062b6e4168561195,627c6f5a623c20ce9f2c0b71,2022-05-11_22h23.09.944,classification_task,2021.2.3,Win32,59.69792848,627c6715c52fd12f31907bd0,,,,,,,,,,,,,,,,,,,,,,,a,1,5.6701,"[""0.189"",""0.309"",""0.881"",""0.974""]","[1,0,1,1]",0,22,22,22,1,0,1,,,1,FALSE,,,,,,,,,,,,,,,,,,,,,,,,,,,,,,,
,5f6ebfdd062b6e4168561195,627c6f5a623c20ce9f2c0b71,2022-05-11_22h23.09.944,classification_task,2021.2.3,Win32,59.69792848,627c6715c52fd12f31907bd0,,,,,,,,,,,,,,,,,,,,,,,a,1,0.7562,"[""0.189"",""0.393"",""0.728"",""0.974""]","[1,1,0,1]",0,23,23,23,1,0,1,,,1,FALSE,,,,,,,,,,,,,,,,,,,,,,,,,,,,,,,
,5f6ebfdd062b6e4168561195,627c6f5a623c20ce9f2c0b71,2022-05-11_22h23.09.944,classification_task,2021.2.3,Win32,59.69792848,627c6715c52fd12f31907bd0,,,,,,,,,,,,,,,,,,,,,,,a,1,1.8925,"[""0.189"",""0.393"",""0.881"",""0.681""]","[1,1,1,0]",0,24,24,24,1,0,1,,,1,FALSE,,,,,,,,,,,,,,,,,,,,,,,,,,,,,,,
,5f6ebfdd062b6e4168561195,627c6f5a623c20ce9f2c0b71,2022-05-11_22h23.09.944,classification_task,2021.2.3,Win32,59.69792848,627c6715c52fd12f31907bd0,,,,,,,,,,,,,,,,,,,,,,,a,0,2.0149,"[""0.137"",""0.262"",""0.728"",""0.817""]","[1,1,0,1]",0,25,25,25,1,1,0,,,1,FALSE,,,,,,,,,,,,,,,,,,,,,,,,,,,,,,,
,5f6ebfdd062b6e4168561195,627c6f5a623c20ce9f2c0b71,2022-05-11_22h23.09.944,classification_task,2021.2.3,Win32,59.69792848,627c6715c52fd12f31907bd0,,,,,,,,,,,,,,,,,,,,,,,l,1,3.5015,"[""0.666"",""0.262"",""0.498"",""0.817""]","[0,1,1,1]",0,26,26,26,1,1,0,,,1,FALSE,,,,,,,,,,,,,,,,,,,,,,,,,,,,,,,
,5f6ebfdd062b6e4168561195,627c6f5a623c20ce9f2c0b71,2022-05-11_22h23.09.944,classification_task,2021.2.3,Win32,59.69792848,627c6715c52fd12f31907bd0,,,,,,,,,,,,,,,,,,,,,,,l,1,1.1464,"[""0.068"",""0.728"",""0.552"",""0.782""]","[1,0,1,1]",0,27,27,27,1,1,1,,,1,FALSE,,,,,,,,,,,,,,,,,,,,,,,,,,,,,,,
,5f6ebfdd062b6e4168561195,627c6f5a623c20ce9f2c0b71,2022-05-11_22h23.09.944,classification_task,2021.2.3,Win32,59.69792848,627c6715c52fd12f31907bd0,,,,,,,,,,,,,,,,,,,,,,,a,0,1.0787,"[""0.137"",""0.262"",""0.498"",""0.694""]","[1,1,1,0]",0,28,28,28,1,1,0,,,1,FALSE,,,,,,,,,,,,,,,,,,,,,,,,,,,,,,,
,5f6ebfdd062b6e4168561195,627c6f5a623c20ce9f2c0b71,2022-05-11_22h23.09.944,classification_task,2021.2.3,Win32,59.69792848,627c6715c52fd12f31907bd0,,,,,,,,,,,,,,,,,,,,,,,a,1,1.214,"[""0.226"",""0.348"",""0.689"",""0.940""]","[1,1,0,1]",0,29,29,29,1,0,0,,,1,FALSE,,,,,,,,,,,,,,,,,,,,,,,,,,,,,,,
,5f6ebfdd062b6e4168561195,627c6f5a623c20ce9f2c0b71,2022-05-11_22h23.09.944,classification_task,2021.2.3,Win32,59.69792848,627c6715c52fd12f31907bd0,,,,,,,,,,,,,,,,,,,,,,,a,1,1.4318,"[""0.309"",""0.393"",""0.881"",""0.974""]","[0,1,1,1]",0,30,30,30,1,0,1,,,1,FALSE,,,,,,,,,,,,,,,,,,,,,,,,,,,,,,,
,5f6ebfdd062b6e4168561195,627c6f5a623c20ce9f2c0b71,2022-05-11_22h23.09.944,classification_task,2021.2.3,Win32,59.69792848,627c6715c52fd12f31907bd0,,,,,,,,,,,,,,,,,,,,,,,a,1,0.7794,"[""0.226"",""0.681"",""0.607"",""0.940""]","[1,0,1,1]",0,31,31,31,1,0,0,,,1,FALSE,,,,,,,,,,,,,,,,,,,,,,,,,,,,,,,
,5f6ebfdd062b6e4168561195,627c6f5a623c20ce9f2c0b71,2022-05-11_22h23.09.944,classification_task,2021.2.3,Win32,59.69792848,627c6715c52fd12f31907bd0,,,,,,,,,,,,,,,,,,,,,,,a,1,2.2413,"[""0.189"",""0.689"",""0.881"",""0.974""]","[1,0,1,1]",0,32,32,32,1,0,1,,,1,FALSE,,,,,,,,,,,,,,,,,,,,,,,,,,,,,,,
,5f6ebfdd062b6e4168561195,627c6f5a623c20ce9f2c0b71,2022-05-11_22h23.09.944,classification_task,2021.2.3,Win32,59.69792848,627c6715c52fd12f31907bd0,,,,,,,,,,,,,,,,,,,,,,,l,1,1.5824,"[""0.137"",""0.262"",""0.666"",""0.817""]","[1,1,0,1]",0,33,33,33,1,1,0,,,1,FALSE,,,,,,,,,,,,,,,,,,,,,,,,,,,,,,,
,5f6ebfdd062b6e4168561195,627c6f5a623c20ce9f2c0b71,2022-05-11_22h23.09.944,classification_task,2021.2.3,Win32,59.69792848,627c6715c52fd12f31907bd0,,,,,,,,,,,,,,,,,,,,,,,a,0,1.6109,"[""0.649"",""0.262"",""0.498"",""0.817""]","[0,1,1,1]",0,34,34,34,1,1,0,,,1,FALSE,,,,,,,,,,,,,,,,,,,,,,,,,,,,,,,
,5f6ebfdd062b6e4168561195,627c6f5a623c20ce9f2c0b71,2022-05-11_22h23.09.944,classification_task,2021.2.3,Win32,59.69792848,627c6715c52fd12f31907bd0,,,,,,,,,,,,,,,,,,,,,,,l,1,1.0512,"[""0.068"",""0.434"",""0.026"",""0.782""]","[1,1,0,1]",0,35,35,35,1,1,1,,,1,FALSE,,,,,,,,,,,,,,,,,,,,,,,,,,,,,,,
,5f6ebfdd062b6e4168561195,627c6f5a623c20ce9f2c0b71,2022-05-11_22h23.09.944,classification_task,2021.2.3,Win32,59.69792848,627c6715c52fd12f31907bd0,,,,,,,,,,,,,,,,,,,,,,,a,1,2.5502,"[""0.189"",""0.393"",""0.740"",""0.974""]","[1,1,0,1]",0,36,36,36,1,0,1,,,1,FALSE,,,,,,,,,,,,,,,,,,,,,,,,,,,,,,,
,5f6ebfdd062b6e4168561195,627c6f5a623c20ce9f2c0b71,2022-05-11_22h23.09.944,classification_task,2021.2.3,Win32,59.69792848,627c6715c52fd12f31907bd0,,,,,,,,,,,,,,,,,,,,,,,a,1,5.9172,"[""0.226"",""0.348"",""0.607"",""0.694""]","[1,1,1,0]",0,37,37,37,1,0,0,,,1,FALSE,,,,,,,,,,,,,,,,,,,,,,,,,,,,,,,
,5f6ebfdd062b6e4168561195,627c6f5a623c20ce9f2c0b71,2022-05-11_22h23.09.944,classification_task,2021.2.3,Win32,59.69792848,627c6715c52fd12f31907bd0,,,,,,,,,,,,,,,,,,,,,,,l,1,1.7514,"[""0.137"",""0.701"",""0.498"",""0.817""]","[1,0,1,1]",0,38,38,38,1,1,0,,,1,FALSE,,,,,,,,,,,,,,,,,,,,,,,,,,,,,,,
,5f6ebfdd062b6e4168561195,627c6f5a623c20ce9f2c0b71,2022-05-11_22h23.09.944,classification_task,2021.2.3,Win32,59.69792848,627c6715c52fd12f31907bd0,,,,,,,,,,,,,,,,,,,,,,,l,1,3.2606,"[""0.068"",""0.649"",""0.552"",""0.782""]","[1,0,1,1]",0,39,39,39,1,1,1,,,1,FALSE,,,,,,,,,,,,,,,,,,,,,,,,,,,,,,,
,5f6ebfdd062b6e4168561195,627c6f5a623c20ce9f2c0b71,2022-05-11_22h23.09.944,classification_task,2021.2.3,Win32,59.69792848,627c6715c52fd12f31907bd0,,,,,,,,,,,,,,,,,,,,,,,a,1,1.9487,"[""0.649"",""0.393"",""0.881"",""0.974""]","[0,1,1,1]",0,40,40,40,1,0,1,,,1,FALSE,,,,,,,,,,,,,,,,,,,,,,,,,,,,,,,
,5f6ebfdd062b6e4168561195,627c6f5a623c20ce9f2c0b71,2022-05-11_22h23.09.944,classification_task,2021.2.3,Win32,59.69792848,627c6715c52fd12f31907bd0,,,,,,,,,,,,,,,,,,,,,,,a,1,1.0924,"[""0.226"",""0.348"",""0.707"",""0.940""]","[1,1,0,1]",0,41,41,41,1,0,0,,,1,FALSE,,,,,,,,,,,,,,,,,,,,,,,,,,,,,,,
,5f6ebfdd062b6e4168561195,627c6f5a623c20ce9f2c0b71,2022-05-11_22h23.09.944,classification_task,2021.2.3,Win32,59.69792848,627c6715c52fd12f31907bd0,,,,,,,,,,,,,,,,,,,,,,,l,1,1.6608,"[""0.068"",""0.434"",""0.552"",""0.309""]","[1,1,1,0]",0,42,42,42,1,1,1,,,1,FALSE,,,,,,,,,,,,,,,,,,,,,,,,,,,,,,,
,5f6ebfdd062b6e4168561195,627c6f5a623c20ce9f2c0b71,2022-05-11_22h23.09.944,classification_task,2021.2.3,Win32,59.69792848,627c6715c52fd12f31907bd0,,,,,,,,,,,,,,,,,,,,,,,a,0,1.5348,"[""0.707"",""0.434"",""0.552"",""0.782""]","[0,1,1,1]",0,43,43,43,1,1,1,,,1,FALSE,,,,,,,,,,,,,,,,,,,,,,,,,,,,,,,
,5f6ebfdd062b6e4168561195,627c6f5a623c20ce9f2c0b71,2022-05-11_22h23.09.944,classification_task,2021.2.3,Win32,59.69792848,627c6715c52fd12f31907bd0,,,,,,,,,,,,,,,,,,,,,,,a,1,0.9616,"[""0.226"",""0.694"",""0.607"",""0.940""]","[1,0,1,1]",0,44,44,44,1,0,0,,,1,FALSE,,,,,,,,,,,,,,,,,,,,,,,,,,,,,,,
,5f6ebfdd062b6e4168561195,627c6f5a623c20ce9f2c0b71,2022-05-11_22h23.09.944,classification_task,2021.2.3,Win32,59.69792848,627c6715c52fd12f31907bd0,,,,,,,,,,,,,,,,,,,,,,,l,1,1.4284,"[""0.137"",""0.262"",""0.498"",""0.649""]","[1,1,1,0]",0,45,45,45,1,1,0,,,1,FALSE,,,,,,,,,,,,,,,,,,,,,,,,,,,,,,,
,5f6ebfdd062b6e4168561195,627c6f5a623c20ce9f2c0b71,2022-05-11_22h23.09.944,classification_task,2021.2.3,Win32,59.69792848,627c6715c52fd12f31907bd0,,,,,,,,,,,,,,,,,,,,,,,a,1,1.4193,"[""0.666"",""0.348"",""0.607"",""0.940""]","[0,1,1,1]",0,46,46,46,1,0,0,,,1,FALSE,,,,,,,,,,,,,,,,,,,,,,,,,,,,,,,
,5f6ebfdd062b6e4168561195,627c6f5a623c20ce9f2c0b71,2022-05-11_22h23.09.944,classification_task,2021.2.3,Win32,59.69792848,627c6715c52fd12f31907bd0,,,,,,,,,,,,,,,,,,,,,,,a,1,2.1847,"[""0.189"",""0.393"",""0.881"",""0.666""]","[1,1,1,0]",0,47,47,47,1,0,1,,,1,FALSE,,,,,,,,,,,,,,,,,,,,,,,,,,,,,,,
,5f6ebfdd062b6e4168561195,627c6f5a623c20ce9f2c0b71,2022-05-11_22h23.09.944,classification_task,2021.2.3,Win32,59.69792848,627c6715c52fd12f31907bd0,,,,,,,,,,,,,,,,,,,,,,,a,1,1.3873,"[""0.189"",""0.393"",""0.881"",""0.649""]","[1,1,1,0]",0,48,48,48,1,0,1,,,1,FALSE,,,,,,,,,,,,,,,,,,,,,,,,,,,,,,,
,5f6ebfdd062b6e4168561195,627c6f5a623c20ce9f2c0b71,2022-05-11_22h23.09.944,classification_task,2021.2.3,Win32,59.69792848,627c6715c52fd12f31907bd0,,,,,,,,,,,,,,,,,,,,,,,a,1,0.9843,"[""0.189"",""0.393"",""0.694"",""0.974""]","[1,1,0,1]",0,49,49,49,1,0,1,,,1,FALSE,,,,,,,,,,,,,,,,,,,,,,,,,,,,,,,
,5f6ebfdd062b6e4168561195,627c6f5a623c20ce9f2c0b71,2022-05-11_22h23.09.944,classification_task,2021.2.3,Win32,59.69792848,627c6715c52fd12f31907bd0,,,,,,,,,,,,,,,,,,,,,,,a,1,0.8757,"[""0.226"",""0.707"",""0.607"",""0.940""]","[1,0,1,1]",0,50,50,50,1,0,0,,,1,FALSE,,,,,,,,,,,,,,,,,,,,,,,,,,,,,,,
,5f6ebfdd062b6e4168561195,627c6f5a623c20ce9f2c0b71,2022-05-11_22h23.09.944,classification_task,2021.2.3,Win32,59.69792848,627c6715c52fd12f31907bd0,,,,,,,,,,,,,,,,,,,,,,,l,1,0.8207,"[""0.137"",""0.262"",""0.314"",""0.817""]","[1,1,0,1]",0,51,51,51,1,1,0,,,1,FALSE,,,,,,,,,,,,,,,,,,,,,,,,,,,,,,,
,5f6ebfdd062b6e4168561195,627c6f5a623c20ce9f2c0b71,2022-05-11_22h23.09.944,classification_task,2021.2.3,Win32,59.69792848,627c6715c52fd12f31907bd0,,,,,,,,,,,,,,,,,,,,,,,a,1,0.8986,"[""0.189"",""0.666"",""0.881"",""0.974""]","[1,0,1,1]",0,52,52,52,1,0,1,,,1,FALSE,,,,,,,,,,,,,,,,,,,,,,,,,,,,,,,
,5f6ebfdd062b6e4168561195,627c6f5a623c20ce9f2c0b71,2022-05-11_22h23.09.944,classification_task,2021.2.3,Win32,59.69792848,627c6715c52fd12f31907bd0,,,,,,,,,,,,,,,,,,,,,,,l,1,0.5226,"[""0.068"",""0.709"",""0.552"",""0.782""]","[1,0,1,1]",0,53,53,53,1,1,1,,,1,FALSE,,,,,,,,,,,,,,,,,,,,,,,,,,,,,,,
,5f6ebfdd062b6e4168561195,627c6f5a623c20ce9f2c0b71,2022-05-11_22h23.09.944,classification_task,2021.2.3,Win32,59.69792848,627c6715c52fd12f31907bd0,,,,,,,,,,,,,,,,,,,,,,,a,1,1.2728,"[""0.666"",""0.348"",""0.607"",""0.940""]","[0,1,1,1]",0,54,54,54,1,0,0,,,1,FALSE,,,,,,,,,,,,,,,,,,,,,,,,,,,,,,,
,5f6ebfdd062b6e4168561195,627c6f5a623c20ce9f2c0b71,2022-05-11_22h23.09.944,classification_task,2021.2.3,Win32,59.69792848,627c6715c52fd12f31907bd0,,,,,,,,,,,,,,,,,,,,,,,l,1,1.6487,"[""0.137"",""0.262"",""0.498"",""0.706""]","[1,1,1,0]",0,55,55,55,1,1,0,,,1,FALSE,,,,,,,,,,,,,,,,,,,,,,,,,,,,,,,
,5f6ebfdd062b6e4168561195,627c6f5a623c20ce9f2c0b71,2022-05-11_22h23.09.944,classification_task,2021.2.3,Win32,59.69792848,627c6715c52fd12f31907bd0,,,,,,,,,,,,,,,,,,,,,,,a,0,1.1584,"[""0.740"",""0.434"",""0.552"",""0.782""]","[0,1,1,1]",0,56,56,56,1,1,1,,,1,FALSE,,,,,,,,,,,,,,,,,,,,,,,,,,,,,,,
,5f6ebfdd062b6e4168561195,627c6f5a623c20ce9f2c0b71,2022-05-11_22h23.09.944,classification_task,2021.2.3,Win32,59.69792848,627c6715c52fd12f31907bd0,,,,,,,,,,,,,,,,,,,,,,,a,1,0.735,"[""0.694"",""0.393"",""0.881"",""0.974""]","[0,1,1,1]",0,57,57,57,1,0,1,,,1,FALSE,,,,,,,,,,,,,,,,,,,,,,,,,,,,,,,
,5f6ebfdd062b6e4168561195,627c6f5a623c20ce9f2c0b71,2022-05-11_22h23.09.944,classification_task,2021.2.3,Win32,59.69792848,627c6715c52fd12f31907bd0,,,,,,,,,,,,,,,,,,,,,,,l,1,1.3346,"[""0.137"",""0.681"",""0.498"",""0.817""]","[1,0,1,1]",0,58,58,58,1,1,0,,,1,FALSE,,,,,,,,,,,,,,,,,,,,,,,,,,,,,,,
,5f6ebfdd062b6e4168561195,627c6f5a623c20ce9f2c0b71,2022-05-11_22h23.09.944,classification_task,2021.2.3,Win32,59.69792848,627c6715c52fd12f31907bd0,,,,,,,,,,,,,,,,,,,,,,,a,1,1.4663,"[""0.226"",""0.348"",""0.681"",""0.940""]","[1,1,0,1]",0,59,59,59,1,0,0,,,1,FALSE,,,,,,,,,,,,,,,,,,,,,,,,,,,,,,,
,5f6ebfdd062b6e4168561195,627c6f5a623c20ce9f2c0b71,2022-05-11_22h23.09.944,classification_task,2021.2.3,Win32,59.69792848,627c6715c52fd12f31907bd0,,,,,,,,,,,,,,,,,,,,,,,a,0,0.5653,"[""0.666"",""0.262"",""0.498"",""0.817""]","[0,1,1,1]",0,60,60,60,1,1,0,,,1,FALSE,,,,,,,,,,,,,,,,,,,,,,,,,,,,,,,
,5f6ebfdd062b6e4168561195,627c6f5a623c20ce9f2c0b71,2022-05-11_22h23.09.944,classification_task,2021.2.3,Win32,59.69792848,627c6715c52fd12f31907bd0,,,,,,,,,,,,,,,,,,,,,,,a,1,0.584,"[""0.226"",""0.348"",""0.607"",""0.709""]","[1,1,1,0]",0,61,61,61,1,0,0,,,1,FALSE,,,,,,,,,,,,,,,,,,,,,,,,,,,,,,,
,5f6ebfdd062b6e4168561195,627c6f5a623c20ce9f2c0b71,2022-05-11_22h23.09.944,classification_task,2021.2.3,Win32,59.69792848,627c6715c52fd12f31907bd0,,,,,,,,,,,,,,,,,,,,,,,l,1,0.852,"[""0.068"",""0.434"",""0.728"",""0.782""]","[1,1,0,1]",0,62,62,62,1,1,1,,,1,FALSE,,,,,,,,,,,,,,,,,,,,,,,,,,,,,,,
,5f6ebfdd062b6e4168561195,627c6f5a623c20ce9f2c0b71,2022-05-11_22h23.09.944,classification_task,2021.2.3,Win32,59.69792848,627c6715c52fd12f31907bd0,,,,,,,,,,,,,,,,,,,,,,,l,1,0.7497,"[""0.068"",""0.434"",""0.552"",""0.649""]","[1,1,1,0]",0,63,63,63,1,1,1,,,1,FALSE,,,,,,,,,,,,,,,,,,,,,,,,,,,,,,,
,5f6ebfdd062b6e4168561195,627c6f5a623c20ce9f2c0b71,2022-05-11_22h23.09.944,classification_task,2021.2.3,Win32,59.69792848,627c6715c52fd12f31907bd0,,,,,,,,,,,,,,,,,,,,,,,,,,,,,,,,,,,,,,,0, ,,0,4.138833774,614.2713,0,2,2,2,1,2,3,,,,,,,,,,,,,,,,,,
,5f6ebfdd062b6e4168561195,627c6f5a623c20ce9f2c0b71,2022-05-11_22h23.09.944,classification_task,2021.2.3,Win32,59.69792848,627c6715c52fd12f31907bd0,,,,,,,,,,,,,,,,,,,,,,,,,,,,,,,,,,,,,,,1,  ,,0,6.722332451,617.2692,0,2,2,2,1,2,3,,,,,,,,,,,,,,,,,,
,5f6ebfdd062b6e4168561195,627c6f5a623c20ce9f2c0b71,2022-05-11_22h23.09.944,classification_task,2021.2.3,Win32,59.69792848,627c6715c52fd12f31907bd0,,,,,,,,,,,,,,,,,,,,,,,,,,,,,,,,,,,,,,,2,  ,,0,4.965553351,621.6382,0,2,2,2,1,2,3,,,,,,,,,,,,,,,,,,
,5f6ebfdd062b6e4168561195,627c6f5a623c20ce9f2c0b71,2022-05-11_22h23.09.944,classification_task,2021.2.3,Win32,59.69792848,627c6715c52fd12f31907bd0,,,,,,,,,,,,,,,,,,,,,,,,,,,,,,,,,,,,,,,,,,,,,0,2,2,2,1,,3,,,,,,,,,,,,,,,,,,
,5f6ebfdd062b6e4168561195,627c6f5a623c20ce9f2c0b71,2022-05-11_22h23.09.944,classification_task,2021.2.3,Win32,59.69792848,627c6715c52fd12f31907bd0,,,,,,,,,,,,,,,,,,,,,,,,,,,,,,,,,,,,,,,,,,,,,,,,,,,,,I believe the aid is a competent performer,,0.7,0,2,1519.8435,0,0,0,0,1,0,,,,,
,5f6ebfdd062b6e4168561195,627c6f5a623c20ce9f2c0b71,2022-05-11_22h23.09.944,classification_task,2021.2.3,Win32,59.69792848,627c6715c52fd12f31907bd0,,,,,,,,,,,,,,,,,,,,,,,,,,,,,,,,,,,,,,,,,,,,,,,,,,,,,I trust the aid,,0.7,0,3,1522.5977,0,0,0,0,1,0,,,,,
,5f6ebfdd062b6e4168561195,627c6f5a623c20ce9f2c0b71,2022-05-11_22h23.09.944,classification_task,2021.2.3,Win32,59.69792848,627c6715c52fd12f31907bd0,,,,,,,,,,,,,,,,,,,,,,,,,,,,,,,,,,,,,,,,,,,,,,,,,,,,,I have confidence in the advice given by the aid,,0.7,0,2,1525.7974,0,0,0,0,1,0,,,,,
,5f6ebfdd062b6e4168561195,627c6f5a623c20ce9f2c0b71,2022-05-11_22h23.09.944,classification_task,2021.2.3,Win32,59.69792848,627c6715c52fd12f31907bd0,,,,,,,,,,,,,,,,,,,,,,,,,,,,,,,,,,,,,,,,,,,,,,,,,,,,,I can depend on the aid,,0.7,0,3,1528.756,0,0,0,0,1,0,,,,,
,5f6ebfdd062b6e4168561195,627c6f5a623c20ce9f2c0b71,2022-05-11_22h23.09.944,classification_task,2021.2.3,Win32,59.69792848,627c6715c52fd12f31907bd0,,,,,,,,,,,,,,,,,,,,,,,,,,,,,,,,,,,,,,,,,,,,,,,,,,,,,I can rely on the aid to behave in consistent ways,,0.7,0,3,1533.633,0,0,0,0,1,0,,,,,
,5f6ebfdd062b6e4168561195,627c6f5a623c20ce9f2c0b71,2022-05-11_22h23.09.944,classification_task,2021.2.3,Win32,59.69792848,627c6715c52fd12f31907bd0,,,,,,,,,,,,,,,,,,,,,,,,,,,,,,,,,,,,,,,,,,,,,,,,,,,,,I can rely on the aid to do its best every time I take its advice,,0.7,0,3,1536.3403,0,0,0,0,1,0,,,,,
,5f6ebfdd062b6e4168561195,627c6f5a623c20ce9f2c0b71,2022-05-11_22h23.09.944,classification_task,2021.2.3,Win32,59.69792848,627c6715c52fd12f31907bd0,,,,,,,,,,,,,,,,,,,,,,,,,,,,,,,,,,,,,,,,,,,,,,,,,,,,,"On trials you completed with assistance from the aid, how frequently did you think the aid was correct?",,0.7,0,50,,0,0,0,0,1,0,,,,,
,5f6ebfdd062b6e4168561195,627c6f5a623c20ce9f2c0b71,2022-05-11_22h23.09.944,classification_task,2021.2.3,Win32,59.69792848,627c6715c52fd12f31907bd0,,,,,,,,,,,,,,,,,,,,,,,,,,,,,,,,,,,,,,,,,,,,,,,,,,,,,"On trials you completed without the aid, how frequently did you think you were correct?",,0.7,0,60,,0,0,0,0,1,0,,,,,
,5f6ebfdd062b6e4168561195,627c6f5a623c20ce9f2c0b71,2022-05-11_22h23.09.944,classification_task,2021.2.3,Win32,59.69792848,627c6715c52fd12f31907bd0,,,,,,,,,,,,,,,,,,,,,,,,,,,,,,,,,,,,,,,,,,,,,,,,,,,,,,,,,,,0,0,0,0,1,,,,,,
,5f6ebfdd062b6e4168561195,627c6f5a623c20ce9f2c0b71,2022-05-11_22h23.09.944,classification_task,2021.2.3,Win32,59.69792848,627c6715c52fd12f31907bd0,,,,,,,,,,,,,,,,,,,,,,,,,,,,,,,,,,,,,,,,,,,,,,,,,,,,,,,,,,,,,,,,,space,7.0183,1562.7975,,
,5f6ebfdd062b6e4168561195,627c6f5a623c20ce9f2c0b71,2022-05-11_22h23.09.944,classification_task,2021.2.3,Win32,59.69792848,627c6715c52fd12f31907bd0,,,,,,,,,,,,,,,,,,,,,,,,,,,,,,,,,,,,,,,,,,,,,,,,,,,,,,,,,,,,,,,,,,,,"Mozilla/5.0 (Windows NT 10.0; Win64; x64) AppleWebKit/537.36 (KHTML, like Gecko) Chrome/100.0.4896.127 Safari/537.36",
,5f6ebfdd062b6e4168561195,627c6f5a623c20ce9f2c0b71,2022-05-11_22h23.09.944,classification_task,2021.2.3,Win32,59.69792848,627c6715c52fd12f31907bd0,,,,,,,,,,,,,,,,,,,,,,,,,,,,,,,,,,,,,,,,,,,,,,,,,,,,,,,,,,,,,,,,,,,,,LOWLIGHT
