usingWebGL,participant,session,date,expName,psychopyVersion,OS,frameRate,PROLIFIC_PID,STUDY_ID,SESSION_ID,signatures_friend,signatures_foe,band_ranges_top,band_ranges_bottom,formitemText,formtype,formundefined,formitemWidth,formindex,formresponse,formrt,key_resp_2.keys,key_resp_2.rt,tute_resp.keys,tute_resp.rt,tutorial.thisRepN,tutorial.thisTrialN,tutorial.thisN,tutorial.thisIndex,tutorial.ran,key_resp_4.keys,key_resp_4.rt,key_resp.keys,key_resp.corr,key_resp.rt,lines_presented,is_signal_presented,trials.thisRepN,trials.thisTrialN,trials.thisN,trials.thisIndex,trials.ran,vessel,active_band,lines,is_signal,supported_pos,catch_trial,debrief_formindex,debrief_formitemText,debrief_formtype,debrief_formitemWidth,debrief_formresponse,debrief_formrt,phases.thisRepN,phases.thisTrialN,phases.thisN,phases.thisIndex,phases.ran,phases.order,phase,key_resp_3.keys,trustitemText,trusttype,trustitemWidth,trustindex,trustresponse,trustrt,support_status.thisRepN,support_status.thisTrialN,support_status.thisN,support_status.thisIndex,support_status.ran,support_status.order,key_resp_5.keys,key_resp_5.rt,globalClockTime,userAgent
TRUE,5f6fd1451758e95a989623b2,001,2022-04-28_20h07.45.472,classification_task,2021.2.3,Linux x86_64,60.0024001,5f6fd1451758e95a989623b2,626b377229c10585ec392f89,626b3a3b89cd1f41b54b55a0,,,,,,,,,,,,,,,,,,,,,,,,,,,,,,,,,,,,,,,,,,,,,,,,,,,,,,,,,,,,,,,,,,,,
,5f6fd1451758e95a989623b2,001,2022-04-28_20h07.45.472,classification_task,2021.2.3,Linux x86_64,60.0024001,5f6fd1451758e95a989623b2,626b377229c10585ec392f89,626b3a3b89cd1f41b54b55a0,"[[""0.217"",""0.372"",""0.833"",""0.879""],[""0.301"",""0.471"",""0.940"",""0.974""]]","[[""0.067"",""0.408"",""0.553"",""0.710""],[""0.117"",""0.259"",""0.644"",""0.677""]]","[1,10]","[100,1000]",Video game experience,,,0.7,0,,,,,,,,,,,,,,,,,,,,,,,,,,,,,,,,,,,,,,,,,,,,,,,,,,,,,,,,,,,
,5f6fd1451758e95a989623b2,001,2022-04-28_20h07.45.472,classification_task,2021.2.3,Linux x86_64,60.0024001,5f6fd1451758e95a989623b2,626b377229c10585ec392f89,626b3a3b89cd1f41b54b55a0,,,,,Approximately how many hours did you spend playing video games in the last week?,,,0.7,0,0,,,,,,,,,,,,,,,,,,,,,,,,,,,,,,,,,,,,,,,,,,,,,,,,,,,,,,,,,,
,5f6fd1451758e95a989623b2,001,2022-04-28_20h07.45.472,classification_task,2021.2.3,Linux x86_64,60.0024001,5f6fd1451758e95a989623b2,626b377229c10585ec392f89,626b3a3b89cd1f41b54b55a0,,,,,"Which game did you play the most this year? (Enter ""None"" if you didn't play any)",,,0.7,0,none,,,,,,,,,,,,,,,,,,,,,,,,,,,,,,,,,,,,,,,,,,,,,,,,,,,,,,,,,,
,5f6fd1451758e95a989623b2,001,2022-04-28_20h07.45.472,classification_task,2021.2.3,Linux x86_64,60.0024001,5f6fd1451758e95a989623b2,626b377229c10585ec392f89,626b3a3b89cd1f41b54b55a0,,,,,Visual perception,,,0.7,0,,,,,,,,,,,,,,,,,,,,,,,,,,,,,,,,,,,,,,,,,,,,,,,,,,,,,,,,,,,
,5f6fd1451758e95a989623b2,001,2022-04-28_20h07.45.472,classification_task,2021.2.3,Linux x86_64,60.0024001,5f6fd1451758e95a989623b2,626b377229c10585ec392f89,626b3a3b89cd1f41b54b55a0,,,,,Do you have any form of color blindness?,,,0.7,0,No,19.8822,,,,,,,,,,,,,,,,,,,,,,,,,,,,,,,,,,,,,,,,,,,,,,,,,,,,,,,,,
,5f6fd1451758e95a989623b2,001,2022-04-28_20h07.45.472,classification_task,2021.2.3,Linux x86_64,60.0024001,5f6fd1451758e95a989623b2,626b377229c10585ec392f89,626b3a3b89cd1f41b54b55a0,,,,,Do you use software to change the colour temperature of your screen (e.g. f.lux)?,,,0.7,0,No,23.9021,,,,,,,,,,,,,,,,,,,,,,,,,,,,,,,,,,,,,,,,,,,,,,,,,,,,,,,,,
,5f6fd1451758e95a989623b2,001,2022-04-28_20h07.45.472,classification_task,2021.2.3,Linux x86_64,60.0024001,5f6fd1451758e95a989623b2,626b377229c10585ec392f89,626b3a3b89cd1f41b54b55a0,,,,,,,,,,,,space,23.8269,space,6.4111,0,0,0,0,1,,,,,,,,,,,,,,,,,,,,,,,,,,,,,,,,,,,,,,,,,,,,,,,,
,5f6fd1451758e95a989623b2,001,2022-04-28_20h07.45.472,classification_task,2021.2.3,Linux x86_64,60.0024001,5f6fd1451758e95a989623b2,626b377229c10585ec392f89,626b3a3b89cd1f41b54b55a0,,,,,,,,,,,,,,space,6.1661,1,0,1,0,1,,,,,,,,,,,,,,,,,,,,,,,,,,,,,,,,,,,,,,,,,,,,,,,,
,5f6fd1451758e95a989623b2,001,2022-04-28_20h07.45.472,classification_task,2021.2.3,Linux x86_64,60.0024001,5f6fd1451758e95a989623b2,626b377229c10585ec392f89,626b3a3b89cd1f41b54b55a0,,,,,,,,,,,,,,space,11.5543,2,0,2,0,1,,,,,,,,,,,,,,,,,,,,,,,,,,,,,,,,,,,,,,,,,,,,,,,,
,5f6fd1451758e95a989623b2,001,2022-04-28_20h07.45.472,classification_task,2021.2.3,Linux x86_64,60.0024001,5f6fd1451758e95a989623b2,626b377229c10585ec392f89,626b3a3b89cd1f41b54b55a0,,,,,,,,,,,,,,space,15.7682,3,0,3,0,1,,,,,,,,,,,,,,,,,,,,,,,,,,,,,,,,,,,,,,,,,,,,,,,,
,5f6fd1451758e95a989623b2,001,2022-04-28_20h07.45.472,classification_task,2021.2.3,Linux x86_64,60.0024001,5f6fd1451758e95a989623b2,626b377229c10585ec392f89,626b3a3b89cd1f41b54b55a0,,,,,,,,,,,,,,space,20.959,4,0,4,0,1,,,,,,,,,,,,,,,,,,,,,,,,,,,,,,,,,,,,,,,,,,,,,,,,
,5f6fd1451758e95a989623b2,001,2022-04-28_20h07.45.472,classification_task,2021.2.3,Linux x86_64,60.0024001,5f6fd1451758e95a989623b2,626b377229c10585ec392f89,626b3a3b89cd1f41b54b55a0,,,,,,,,,,,,,,,,,,,,,space,14.0398,l,1,3.11,"[""0.117"",""0.792"",""0.644"",""0.677""]","[1,0,1,1]",0,0,0,0,1,1,1,,,0,FALSE,,,,,,,,,,,,,,,,,,,,,,,,,,,,,,
,5f6fd1451758e95a989623b2,001,2022-04-28_20h07.45.472,classification_task,2021.2.3,Linux x86_64,60.0024001,5f6fd1451758e95a989623b2,626b377229c10585ec392f89,626b3a3b89cd1f41b54b55a0,,,,,,,,,,,,,,,,,,,,,,,a,1,4.5999,"[""0.301"",""0.783"",""0.940"",""0.974""]","[1,0,1,1]",0,1,1,1,1,0,1,,,0,FALSE,,,,,,,,,,,,,,,,,,,,,,,,,,,,,,
,5f6fd1451758e95a989623b2,001,2022-04-28_20h07.45.472,classification_task,2021.2.3,Linux x86_64,60.0024001,5f6fd1451758e95a989623b2,626b377229c10585ec392f89,626b3a3b89cd1f41b54b55a0,,,,,,,,,,,,,,,,,,,,,,,l,1,3.1709,"[""0.117"",""0.259"",""0.172"",""0.677""]","[1,1,0,1]",0,2,2,2,1,1,1,,,0,FALSE,,,,,,,,,,,,,,,,,,,,,,,,,,,,,,
,5f6fd1451758e95a989623b2,001,2022-04-28_20h07.45.472,classification_task,2021.2.3,Linux x86_64,60.0024001,5f6fd1451758e95a989623b2,626b377229c10585ec392f89,626b3a3b89cd1f41b54b55a0,,,,,,,,,,,,,,,,,,,,,,,a,1,5.1536,"[""0.217"",""0.172"",""0.833"",""0.879""]","[1,0,1,1]",0,3,3,3,1,0,0,,,0,FALSE,,,,,,,,,,,,,,,,,,,,,,,,,,,,,,
,5f6fd1451758e95a989623b2,001,2022-04-28_20h07.45.472,classification_task,2021.2.3,Linux x86_64,60.0024001,5f6fd1451758e95a989623b2,626b377229c10585ec392f89,626b3a3b89cd1f41b54b55a0,,,,,,,,,,,,,,,,,,,,,,,l,1,3.7924,"[""0.067"",""0.408"",""0.553"",""0.518""]","[1,1,1,0]",0,4,4,4,1,1,0,,,0,FALSE,,,,,,,,,,,,,,,,,,,,,,,,,,,,,,
,5f6fd1451758e95a989623b2,001,2022-04-28_20h07.45.472,classification_task,2021.2.3,Linux x86_64,60.0024001,5f6fd1451758e95a989623b2,626b377229c10585ec392f89,626b3a3b89cd1f41b54b55a0,,,,,,,,,,,,,,,,,,,,,,,a,0,3.699,"[""0.783"",""0.408"",""0.553"",""0.710""]","[0,1,1,1]",0,5,5,5,1,1,0,,,0,FALSE,,,,,,,,,,,,,,,,,,,,,,,,,,,,,,
,5f6fd1451758e95a989623b2,001,2022-04-28_20h07.45.472,classification_task,2021.2.3,Linux x86_64,60.0024001,5f6fd1451758e95a989623b2,626b377229c10585ec392f89,626b3a3b89cd1f41b54b55a0,,,,,,,,,,,,,,,,,,,,,,,l,1,5.456,"[""0.067"",""0.183"",""0.553"",""0.710""]","[1,0,1,1]",0,6,6,6,1,1,0,,,0,FALSE,,,,,,,,,,,,,,,,,,,,,,,,,,,,,,
,5f6fd1451758e95a989623b2,001,2022-04-28_20h07.45.472,classification_task,2021.2.3,Linux x86_64,60.0024001,5f6fd1451758e95a989623b2,626b377229c10585ec392f89,626b3a3b89cd1f41b54b55a0,,,,,,,,,,,,,,,,,,,,,,,l,1,5.9357,"[""0.117"",""0.259"",""0.644"",""0.783""]","[1,1,1,0]",0,7,7,7,1,1,1,,,0,FALSE,,,,,,,,,,,,,,,,,,,,,,,,,,,,,,
,5f6fd1451758e95a989623b2,001,2022-04-28_20h07.45.472,classification_task,2021.2.3,Linux x86_64,60.0024001,5f6fd1451758e95a989623b2,626b377229c10585ec392f89,626b3a3b89cd1f41b54b55a0,,,,,,,,,,,,,,,,,,,,,,,a,1,3.3064,"[""0.217"",""0.372"",""0.175"",""0.879""]","[1,1,0,1]",0,8,8,8,1,0,0,,,0,FALSE,,,,,,,,,,,,,,,,,,,,,,,,,,,,,,
,5f6fd1451758e95a989623b2,001,2022-04-28_20h07.45.472,classification_task,2021.2.3,Linux x86_64,60.0024001,5f6fd1451758e95a989623b2,626b377229c10585ec392f89,626b3a3b89cd1f41b54b55a0,,,,,,,,,,,,,,,,,,,,,,,l,0,7.3461,"[""0.217"",""0.372"",""0.833"",""0.600""]","[1,1,1,0]",0,9,9,9,1,0,0,,,0,FALSE,,,,,,,,,,,,,,,,,,,,,,,,,,,,,,
,5f6fd1451758e95a989623b2,001,2022-04-28_20h07.45.472,classification_task,2021.2.3,Linux x86_64,60.0024001,5f6fd1451758e95a989623b2,626b377229c10585ec392f89,626b3a3b89cd1f41b54b55a0,,,,,,,,,,,,,,,,,,,,,,,l,1,2.3248,"[""0.783"",""0.259"",""0.644"",""0.677""]","[0,1,1,1]",0,10,10,10,1,1,1,,,0,FALSE,,,,,,,,,,,,,,,,,,,,,,,,,,,,,,
,5f6fd1451758e95a989623b2,001,2022-04-28_20h07.45.472,classification_task,2021.2.3,Linux x86_64,60.0024001,5f6fd1451758e95a989623b2,626b377229c10585ec392f89,626b3a3b89cd1f41b54b55a0,,,,,,,,,,,,,,,,,,,,,,,l,1,4.4898,"[""0.067"",""0.408"",""0.172"",""0.710""]","[1,1,0,1]",0,11,11,11,1,1,0,,,0,FALSE,,,,,,,,,,,,,,,,,,,,,,,,,,,,,,
,5f6fd1451758e95a989623b2,001,2022-04-28_20h07.45.472,classification_task,2021.2.3,Linux x86_64,60.0024001,5f6fd1451758e95a989623b2,626b377229c10585ec392f89,626b3a3b89cd1f41b54b55a0,,,,,,,,,,,,,,,,,,,,,,,l,0,4.1497,"[""0.301"",""0.471"",""0.940"",""0.600""]","[1,1,1,0]",0,12,12,12,1,0,1,,,0,FALSE,,,,,,,,,,,,,,,,,,,,,,,,,,,,,,
,5f6fd1451758e95a989623b2,001,2022-04-28_20h07.45.472,classification_task,2021.2.3,Linux x86_64,60.0024001,5f6fd1451758e95a989623b2,626b377229c10585ec392f89,626b3a3b89cd1f41b54b55a0,,,,,,,,,,,,,,,,,,,,,,,a,1,3.1721,"[""0.507"",""0.372"",""0.833"",""0.879""]","[0,1,1,1]",0,13,13,13,1,0,0,,,0,FALSE,,,,,,,,,,,,,,,,,,,,,,,,,,,,,,
,5f6fd1451758e95a989623b2,001,2022-04-28_20h07.45.472,classification_task,2021.2.3,Linux x86_64,60.0024001,5f6fd1451758e95a989623b2,626b377229c10585ec392f89,626b3a3b89cd1f41b54b55a0,,,,,,,,,,,,,,,,,,,,,,,a,1,2.8024,"[""0.301"",""0.471"",""0.586"",""0.974""]","[1,1,0,1]",0,14,14,14,1,0,1,,,0,FALSE,,,,,,,,,,,,,,,,,,,,,,,,,,,,,,
,5f6fd1451758e95a989623b2,001,2022-04-28_20h07.45.472,classification_task,2021.2.3,Linux x86_64,60.0024001,5f6fd1451758e95a989623b2,626b377229c10585ec392f89,626b3a3b89cd1f41b54b55a0,,,,,,,,,,,,,,,,,,,,,,,a,1,3.1024,"[""0.600"",""0.471"",""0.940"",""0.974""]","[0,1,1,1]",0,15,15,15,1,0,1,,,0,FALSE,,,,,,,,,,,,,,,,,,,,,,,,,,,,,,
,5f6fd1451758e95a989623b2,001,2022-04-28_20h07.45.472,classification_task,2021.2.3,Linux x86_64,60.0024001,5f6fd1451758e95a989623b2,626b377229c10585ec392f89,626b3a3b89cd1f41b54b55a0,,,,,,,,,,,,,,,,,,,,,,,l,1,3.8161,"[""0.067"",""0.408"",""0.507"",""0.710""]","[1,1,0,1]",0,16,16,16,1,1,0,,,0,FALSE,,,,,,,,,,,,,,,,,,,,,,,,,,,,,,
,5f6fd1451758e95a989623b2,001,2022-04-28_20h07.45.472,classification_task,2021.2.3,Linux x86_64,60.0024001,5f6fd1451758e95a989623b2,626b377229c10585ec392f89,626b3a3b89cd1f41b54b55a0,,,,,,,,,,,,,,,,,,,,,,,a,1,3.5105,"[""0.301"",""0.471"",""0.940"",""0.507""]","[1,1,1,0]",0,17,17,17,1,0,1,,,0,FALSE,,,,,,,,,,,,,,,,,,,,,,,,,,,,,,
,5f6fd1451758e95a989623b2,001,2022-04-28_20h07.45.472,classification_task,2021.2.3,Linux x86_64,60.0024001,5f6fd1451758e95a989623b2,626b377229c10585ec392f89,626b3a3b89cd1f41b54b55a0,,,,,,,,,,,,,,,,,,,,,,,a,1,3.2673,"[""0.217"",""0.372"",""0.833"",""0.175""]","[1,1,1,0]",0,18,18,18,1,0,0,,,0,FALSE,,,,,,,,,,,,,,,,,,,,,,,,,,,,,,
,5f6fd1451758e95a989623b2,001,2022-04-28_20h07.45.472,classification_task,2021.2.3,Linux x86_64,60.0024001,5f6fd1451758e95a989623b2,626b377229c10585ec392f89,626b3a3b89cd1f41b54b55a0,,,,,,,,,,,,,,,,,,,,,,,l,1,2.7978,"[""0.117"",""0.783"",""0.644"",""0.677""]","[1,0,1,1]",0,19,19,19,1,1,1,,,0,FALSE,,,,,,,,,,,,,,,,,,,,,,,,,,,,,,
,5f6fd1451758e95a989623b2,001,2022-04-28_20h07.45.472,classification_task,2021.2.3,Linux x86_64,60.0024001,5f6fd1451758e95a989623b2,626b377229c10585ec392f89,626b3a3b89cd1f41b54b55a0,,,,,,,,,,,,,,,,,,,,,,,l,1,3.5888,"[""0.117"",""0.259"",""0.644"",""0.172""]","[1,1,1,0]",0,20,20,20,1,1,1,,,0,FALSE,,,,,,,,,,,,,,,,,,,,,,,,,,,,,,
,5f6fd1451758e95a989623b2,001,2022-04-28_20h07.45.472,classification_task,2021.2.3,Linux x86_64,60.0024001,5f6fd1451758e95a989623b2,626b377229c10585ec392f89,626b3a3b89cd1f41b54b55a0,,,,,,,,,,,,,,,,,,,,,,,a,1,2.7284,"[""0.301"",""0.783"",""0.940"",""0.974""]","[1,0,1,1]",0,21,21,21,1,0,1,,,0,FALSE,,,,,,,,,,,,,,,,,,,,,,,,,,,,,,
,5f6fd1451758e95a989623b2,001,2022-04-28_20h07.45.472,classification_task,2021.2.3,Linux x86_64,60.0024001,5f6fd1451758e95a989623b2,626b377229c10585ec392f89,626b3a3b89cd1f41b54b55a0,,,,,,,,,,,,,,,,,,,,,,,l,1,4.3662,"[""0.067"",""0.518"",""0.553"",""0.710""]","[1,0,1,1]",0,22,22,22,1,1,0,,,0,FALSE,,,,,,,,,,,,,,,,,,,,,,,,,,,,,,
,5f6fd1451758e95a989623b2,001,2022-04-28_20h07.45.472,classification_task,2021.2.3,Linux x86_64,60.0024001,5f6fd1451758e95a989623b2,626b377229c10585ec392f89,626b3a3b89cd1f41b54b55a0,,,,,,,,,,,,,,,,,,,,,,,l,1,2.2996,"[""0.117"",""0.259"",""0.172"",""0.677""]","[1,1,0,1]",0,23,23,23,1,1,1,,,0,FALSE,,,,,,,,,,,,,,,,,,,,,,,,,,,,,,
,5f6fd1451758e95a989623b2,001,2022-04-28_20h07.45.472,classification_task,2021.2.3,Linux x86_64,60.0024001,5f6fd1451758e95a989623b2,626b377229c10585ec392f89,626b3a3b89cd1f41b54b55a0,,,,,,,,,,,,,,,,,,,,,,,a,1,2.0261,"[""0.507"",""0.471"",""0.940"",""0.974""]","[0,1,1,1]",0,24,24,24,1,0,1,,,0,FALSE,,,,,,,,,,,,,,,,,,,,,,,,,,,,,,
,5f6fd1451758e95a989623b2,001,2022-04-28_20h07.45.472,classification_task,2021.2.3,Linux x86_64,60.0024001,5f6fd1451758e95a989623b2,626b377229c10585ec392f89,626b3a3b89cd1f41b54b55a0,,,,,,,,,,,,,,,,,,,,,,,a,1,3.1483,"[""0.217"",""0.600"",""0.833"",""0.879""]","[1,0,1,1]",0,25,25,25,1,0,0,,,0,FALSE,,,,,,,,,,,,,,,,,,,,,,,,,,,,,,
,5f6fd1451758e95a989623b2,001,2022-04-28_20h07.45.472,classification_task,2021.2.3,Linux x86_64,60.0024001,5f6fd1451758e95a989623b2,626b377229c10585ec392f89,626b3a3b89cd1f41b54b55a0,,,,,,,,,,,,,,,,,,,,,,,a,0,3.2206,"[""0.067"",""0.408"",""0.553"",""0.783""]","[1,1,1,0]",0,26,26,26,1,1,0,,,0,FALSE,,,,,,,,,,,,,,,,,,,,,,,,,,,,,,
,5f6fd1451758e95a989623b2,001,2022-04-28_20h07.45.472,classification_task,2021.2.3,Linux x86_64,60.0024001,5f6fd1451758e95a989623b2,626b377229c10585ec392f89,626b3a3b89cd1f41b54b55a0,,,,,,,,,,,,,,,,,,,,,,,l,1,2.522,"[""0.172"",""0.408"",""0.553"",""0.710""]","[0,1,1,1]",0,27,27,27,1,1,0,,,0,FALSE,,,,,,,,,,,,,,,,,,,,,,,,,,,,,,
,5f6fd1451758e95a989623b2,001,2022-04-28_20h07.45.472,classification_task,2021.2.3,Linux x86_64,60.0024001,5f6fd1451758e95a989623b2,626b377229c10585ec392f89,626b3a3b89cd1f41b54b55a0,,,,,,,,,,,,,,,,,,,,,,,l,1,6.6848,"[""0.792"",""0.259"",""0.644"",""0.677""]","[0,1,1,1]",0,28,28,28,1,1,1,,,0,FALSE,,,,,,,,,,,,,,,,,,,,,,,,,,,,,,
,5f6fd1451758e95a989623b2,001,2022-04-28_20h07.45.472,classification_task,2021.2.3,Linux x86_64,60.0024001,5f6fd1451758e95a989623b2,626b377229c10585ec392f89,626b3a3b89cd1f41b54b55a0,,,,,,,,,,,,,,,,,,,,,,,a,1,3.6019,"[""0.217"",""0.372"",""0.518"",""0.879""]","[1,1,0,1]",0,29,29,29,1,0,0,,,0,FALSE,,,,,,,,,,,,,,,,,,,,,,,,,,,,,,
,5f6fd1451758e95a989623b2,001,2022-04-28_20h07.45.472,classification_task,2021.2.3,Linux x86_64,60.0024001,5f6fd1451758e95a989623b2,626b377229c10585ec392f89,626b3a3b89cd1f41b54b55a0,,,,,,,,,,,,,,,,,,,,,,,a,1,2.777,"[""0.172"",""0.372"",""0.833"",""0.879""]","[0,1,1,1]",0,30,30,30,1,0,0,,,0,FALSE,,,,,,,,,,,,,,,,,,,,,,,,,,,,,,
,5f6fd1451758e95a989623b2,001,2022-04-28_20h07.45.472,classification_task,2021.2.3,Linux x86_64,60.0024001,5f6fd1451758e95a989623b2,626b377229c10585ec392f89,626b3a3b89cd1f41b54b55a0,,,,,,,,,,,,,,,,,,,,,,,l,0,1.4133,"[""0.301"",""0.471"",""0.025"",""0.974""]","[1,1,0,1]",0,31,31,31,1,0,1,,,0,FALSE,,,,,,,,,,,,,,,,,,,,,,,,,,,,,,
,5f6fd1451758e95a989623b2,001,2022-04-28_20h07.45.472,classification_task,2021.2.3,Linux x86_64,60.0024001,5f6fd1451758e95a989623b2,626b377229c10585ec392f89,626b3a3b89cd1f41b54b55a0,,,,,,,,,,,,,,,,,,,,,,,l,1,5.033,"[""0.783"",""0.259"",""0.644"",""0.677""]","[0,1,1,1]",0,32,32,32,1,1,1,,,0,FALSE,,,,,,,,,,,,,,,,,,,,,,,,,,,,,,
,5f6fd1451758e95a989623b2,001,2022-04-28_20h07.45.472,classification_task,2021.2.3,Linux x86_64,60.0024001,5f6fd1451758e95a989623b2,626b377229c10585ec392f89,626b3a3b89cd1f41b54b55a0,,,,,,,,,,,,,,,,,,,,,,,a,1,3.4727,"[""0.217"",""0.372"",""0.833"",""0.175""]","[1,1,1,0]",0,33,33,33,1,0,0,,,0,FALSE,,,,,,,,,,,,,,,,,,,,,,,,,,,,,,
,5f6fd1451758e95a989623b2,001,2022-04-28_20h07.45.472,classification_task,2021.2.3,Linux x86_64,60.0024001,5f6fd1451758e95a989623b2,626b377229c10585ec392f89,626b3a3b89cd1f41b54b55a0,,,,,,,,,,,,,,,,,,,,,,,l,0,1.7867,"[""0.301"",""0.471"",""0.940"",""0.768""]","[1,1,1,0]",0,34,34,34,1,0,1,,,0,FALSE,,,,,,,,,,,,,,,,,,,,,,,,,,,,,,
,5f6fd1451758e95a989623b2,001,2022-04-28_20h07.45.472,classification_task,2021.2.3,Linux x86_64,60.0024001,5f6fd1451758e95a989623b2,626b377229c10585ec392f89,626b3a3b89cd1f41b54b55a0,,,,,,,,,,,,,,,,,,,,,,,a,1,2.4919,"[""0.301"",""0.471"",""0.175"",""0.974""]","[1,1,0,1]",0,35,35,35,1,0,1,,,0,FALSE,,,,,,,,,,,,,,,,,,,,,,,,,,,,,,
,5f6fd1451758e95a989623b2,001,2022-04-28_20h07.45.472,classification_task,2021.2.3,Linux x86_64,60.0024001,5f6fd1451758e95a989623b2,626b377229c10585ec392f89,626b3a3b89cd1f41b54b55a0,,,,,,,,,,,,,,,,,,,,,,,a,1,2.2268,"[""0.600"",""0.372"",""0.833"",""0.879""]","[0,1,1,1]",0,36,36,36,1,0,0,,,0,FALSE,,,,,,,,,,,,,,,,,,,,,,,,,,,,,,
,5f6fd1451758e95a989623b2,001,2022-04-28_20h07.45.472,classification_task,2021.2.3,Linux x86_64,60.0024001,5f6fd1451758e95a989623b2,626b377229c10585ec392f89,626b3a3b89cd1f41b54b55a0,,,,,,,,,,,,,,,,,,,,,,,a,0,1.2794,"[""0.067"",""0.408"",""0.183"",""0.710""]","[1,1,0,1]",0,37,37,37,1,1,0,,,0,FALSE,,,,,,,,,,,,,,,,,,,,,,,,,,,,,,
,5f6fd1451758e95a989623b2,001,2022-04-28_20h07.45.472,classification_task,2021.2.3,Linux x86_64,60.0024001,5f6fd1451758e95a989623b2,626b377229c10585ec392f89,626b3a3b89cd1f41b54b55a0,,,,,,,,,,,,,,,,,,,,,,,l,0,0.8815,"[""0.217"",""0.372"",""0.767"",""0.879""]","[1,1,0,1]",0,38,38,38,1,0,0,,,0,FALSE,,,,,,,,,,,,,,,,,,,,,,,,,,,,,,
,5f6fd1451758e95a989623b2,001,2022-04-28_20h07.45.472,classification_task,2021.2.3,Linux x86_64,60.0024001,5f6fd1451758e95a989623b2,626b377229c10585ec392f89,626b3a3b89cd1f41b54b55a0,,,,,,,,,,,,,,,,,,,,,,,a,1,2.0267,"[""0.217"",""0.783"",""0.833"",""0.879""]","[1,0,1,1]",0,39,39,39,1,0,0,,,0,FALSE,,,,,,,,,,,,,,,,,,,,,,,,,,,,,,
,5f6fd1451758e95a989623b2,001,2022-04-28_20h07.45.472,classification_task,2021.2.3,Linux x86_64,60.0024001,5f6fd1451758e95a989623b2,626b377229c10585ec392f89,626b3a3b89cd1f41b54b55a0,,,,,,,,,,,,,,,,,,,,,,,a,0,2.1284,"[""0.117"",""0.259"",""0.175"",""0.677""]","[1,1,0,1]",0,40,40,40,1,1,1,,,0,FALSE,,,,,,,,,,,,,,,,,,,,,,,,,,,,,,
,5f6fd1451758e95a989623b2,001,2022-04-28_20h07.45.472,classification_task,2021.2.3,Linux x86_64,60.0024001,5f6fd1451758e95a989623b2,626b377229c10585ec392f89,626b3a3b89cd1f41b54b55a0,,,,,,,,,,,,,,,,,,,,,,,l,1,1.5357,"[""0.117"",""0.792"",""0.644"",""0.677""]","[1,0,1,1]",0,41,41,41,1,1,1,,,0,FALSE,,,,,,,,,,,,,,,,,,,,,,,,,,,,,,
,5f6fd1451758e95a989623b2,001,2022-04-28_20h07.45.472,classification_task,2021.2.3,Linux x86_64,60.0024001,5f6fd1451758e95a989623b2,626b377229c10585ec392f89,626b3a3b89cd1f41b54b55a0,,,,,,,,,,,,,,,,,,,,,,,a,1,1.9761,"[""0.600"",""0.471"",""0.940"",""0.974""]","[0,1,1,1]",0,42,42,42,1,0,1,,,0,FALSE,,,,,,,,,,,,,,,,,,,,,,,,,,,,,,
,5f6fd1451758e95a989623b2,001,2022-04-28_20h07.45.472,classification_task,2021.2.3,Linux x86_64,60.0024001,5f6fd1451758e95a989623b2,626b377229c10585ec392f89,626b3a3b89cd1f41b54b55a0,,,,,,,,,,,,,,,,,,,,,,,l,1,3.4087,"[""0.067"",""0.783"",""0.553"",""0.710""]","[1,0,1,1]",0,43,43,43,1,1,0,,,0,FALSE,,,,,,,,,,,,,,,,,,,,,,,,,,,,,,
,5f6fd1451758e95a989623b2,001,2022-04-28_20h07.45.472,classification_task,2021.2.3,Linux x86_64,60.0024001,5f6fd1451758e95a989623b2,626b377229c10585ec392f89,626b3a3b89cd1f41b54b55a0,,,,,,,,,,,,,,,,,,,,,,,a,0,2.3567,"[""0.117"",""0.259"",""0.644"",""0.783""]","[1,1,1,0]",0,44,44,44,1,1,1,,,0,FALSE,,,,,,,,,,,,,,,,,,,,,,,,,,,,,,
,5f6fd1451758e95a989623b2,001,2022-04-28_20h07.45.472,classification_task,2021.2.3,Linux x86_64,60.0024001,5f6fd1451758e95a989623b2,626b377229c10585ec392f89,626b3a3b89cd1f41b54b55a0,,,,,,,,,,,,,,,,,,,,,,,l,0,0.8366,"[""0.301"",""0.507"",""0.940"",""0.974""]","[1,0,1,1]",0,45,45,45,1,0,1,,,0,FALSE,,,,,,,,,,,,,,,,,,,,,,,,,,,,,,
,5f6fd1451758e95a989623b2,001,2022-04-28_20h07.45.472,classification_task,2021.2.3,Linux x86_64,60.0024001,5f6fd1451758e95a989623b2,626b377229c10585ec392f89,626b3a3b89cd1f41b54b55a0,,,,,,,,,,,,,,,,,,,,,,,a,0,1.3631,"[""0.067"",""0.408"",""0.553"",""0.783""]","[1,1,1,0]",0,46,46,46,1,1,0,,,0,FALSE,,,,,,,,,,,,,,,,,,,,,,,,,,,,,,
,5f6fd1451758e95a989623b2,001,2022-04-28_20h07.45.472,classification_task,2021.2.3,Linux x86_64,60.0024001,5f6fd1451758e95a989623b2,626b377229c10585ec392f89,626b3a3b89cd1f41b54b55a0,,,,,,,,,,,,,,,,,,,,,,,l,1,3.6058,"[""0.175"",""0.408"",""0.553"",""0.710""]","[0,1,1,1]",0,47,47,47,1,1,0,,,0,FALSE,,,,,,,,,,,,,,,,,,,,,,,,,,,,,,
,5f6fd1451758e95a989623b2,001,2022-04-28_20h07.45.472,classification_task,2021.2.3,Linux x86_64,60.0024001,5f6fd1451758e95a989623b2,626b377229c10585ec392f89,626b3a3b89cd1f41b54b55a0,,,,,,,,,,,,,,,,,,,,,,,a,0,1.016,"[""0.067"",""0.408"",""0.553"",""0.172""]","[1,1,1,0]",0,48,48,48,1,1,0,,,0,FALSE,,,,,,,,,,,,,,,,,,,,,,,,,,,,,,
,5f6fd1451758e95a989623b2,001,2022-04-28_20h07.45.472,classification_task,2021.2.3,Linux x86_64,60.0024001,5f6fd1451758e95a989623b2,626b377229c10585ec392f89,626b3a3b89cd1f41b54b55a0,,,,,,,,,,,,,,,,,,,,,,,a,1,1.9633,"[""0.301"",""0.471"",""0.183"",""0.974""]","[1,1,0,1]",0,49,49,49,1,0,1,,,0,FALSE,,,,,,,,,,,,,,,,,,,,,,,,,,,,,,
,5f6fd1451758e95a989623b2,001,2022-04-28_20h07.45.472,classification_task,2021.2.3,Linux x86_64,60.0024001,5f6fd1451758e95a989623b2,626b377229c10585ec392f89,626b3a3b89cd1f41b54b55a0,,,,,,,,,,,,,,,,,,,,,,,a,1,1.8333,"[""0.586"",""0.471"",""0.940"",""0.974""]","[0,1,1,1]",0,50,50,50,1,0,1,,,0,FALSE,,,,,,,,,,,,,,,,,,,,,,,,,,,,,,
,5f6fd1451758e95a989623b2,001,2022-04-28_20h07.45.472,classification_task,2021.2.3,Linux x86_64,60.0024001,5f6fd1451758e95a989623b2,626b377229c10585ec392f89,626b3a3b89cd1f41b54b55a0,,,,,,,,,,,,,,,,,,,,,,,l,1,1.5886,"[""0.518"",""0.408"",""0.553"",""0.710""]","[0,1,1,1]",0,51,51,51,1,1,0,,,0,FALSE,,,,,,,,,,,,,,,,,,,,,,,,,,,,,,
,5f6fd1451758e95a989623b2,001,2022-04-28_20h07.45.472,classification_task,2021.2.3,Linux x86_64,60.0024001,5f6fd1451758e95a989623b2,626b377229c10585ec392f89,626b3a3b89cd1f41b54b55a0,,,,,,,,,,,,,,,,,,,,,,,a,0,2.3338,"[""0.067"",""0.792"",""0.553"",""0.710""]","[1,0,1,1]",0,52,52,52,1,1,0,,,0,FALSE,,,,,,,,,,,,,,,,,,,,,,,,,,,,,,
,5f6fd1451758e95a989623b2,001,2022-04-28_20h07.45.472,classification_task,2021.2.3,Linux x86_64,60.0024001,5f6fd1451758e95a989623b2,626b377229c10585ec392f89,626b3a3b89cd1f41b54b55a0,,,,,,,,,,,,,,,,,,,,,,,l,0,1.9405,"[""0.217"",""0.372"",""0.833"",""0.792""]","[1,1,1,0]",0,53,53,53,1,0,0,,,0,FALSE,,,,,,,,,,,,,,,,,,,,,,,,,,,,,,
,5f6fd1451758e95a989623b2,001,2022-04-28_20h07.45.472,classification_task,2021.2.3,Linux x86_64,60.0024001,5f6fd1451758e95a989623b2,626b377229c10585ec392f89,626b3a3b89cd1f41b54b55a0,,,,,,,,,,,,,,,,,,,,,,,a,1,1.7334,"[""0.301"",""0.471"",""0.940"",""0.172""]","[1,1,1,0]",0,54,54,54,1,0,1,,,0,FALSE,,,,,,,,,,,,,,,,,,,,,,,,,,,,,,
,5f6fd1451758e95a989623b2,001,2022-04-28_20h07.45.472,classification_task,2021.2.3,Linux x86_64,60.0024001,5f6fd1451758e95a989623b2,626b377229c10585ec392f89,626b3a3b89cd1f41b54b55a0,,,,,,,,,,,,,,,,,,,,,,,l,1,2.8001,"[""0.117"",""0.259"",""0.644"",""0.600""]","[1,1,1,0]",0,55,55,55,1,1,1,,,0,FALSE,,,,,,,,,,,,,,,,,,,,,,,,,,,,,,
,5f6fd1451758e95a989623b2,001,2022-04-28_20h07.45.472,classification_task,2021.2.3,Linux x86_64,60.0024001,5f6fd1451758e95a989623b2,626b377229c10585ec392f89,626b3a3b89cd1f41b54b55a0,,,,,,,,,,,,,,,,,,,,,,,a,1,2.1611,"[""0.518"",""0.372"",""0.833"",""0.879""]","[0,1,1,1]",0,56,56,56,1,0,0,,,0,FALSE,,,,,,,,,,,,,,,,,,,,,,,,,,,,,,
,5f6fd1451758e95a989623b2,001,2022-04-28_20h07.45.472,classification_task,2021.2.3,Linux x86_64,60.0024001,5f6fd1451758e95a989623b2,626b377229c10585ec392f89,626b3a3b89cd1f41b54b55a0,,,,,,,,,,,,,,,,,,,,,,,a,1,1.6637,"[""0.217"",""0.372"",""0.175"",""0.879""]","[1,1,0,1]",0,57,57,57,1,0,0,,,0,FALSE,,,,,,,,,,,,,,,,,,,,,,,,,,,,,,
,5f6fd1451758e95a989623b2,001,2022-04-28_20h07.45.472,classification_task,2021.2.3,Linux x86_64,60.0024001,5f6fd1451758e95a989623b2,626b377229c10585ec392f89,626b3a3b89cd1f41b54b55a0,,,,,,,,,,,,,,,,,,,,,,,l,1,3.0559,"[""0.067"",""0.408"",""0.518"",""0.710""]","[1,1,0,1]",0,58,58,58,1,1,0,,,0,FALSE,,,,,,,,,,,,,,,,,,,,,,,,,,,,,,
,5f6fd1451758e95a989623b2,001,2022-04-28_20h07.45.472,classification_task,2021.2.3,Linux x86_64,60.0024001,5f6fd1451758e95a989623b2,626b377229c10585ec392f89,626b3a3b89cd1f41b54b55a0,,,,,,,,,,,,,,,,,,,,,,,a,0,4.0024,"[""0.783"",""0.259"",""0.644"",""0.677""]","[0,1,1,1]",0,59,59,59,1,1,1,,,0,FALSE,,,,,,,,,,,,,,,,,,,,,,,,,,,,,,
,5f6fd1451758e95a989623b2,001,2022-04-28_20h07.45.472,classification_task,2021.2.3,Linux x86_64,60.0024001,5f6fd1451758e95a989623b2,626b377229c10585ec392f89,626b3a3b89cd1f41b54b55a0,,,,,,,,,,,,,,,,,,,,,,,a,1,1.5755,"[""0.301"",""0.175"",""0.940"",""0.974""]","[1,0,1,1]",0,60,60,60,1,0,1,,,0,FALSE,,,,,,,,,,,,,,,,,,,,,,,,,,,,,,
,5f6fd1451758e95a989623b2,001,2022-04-28_20h07.45.472,classification_task,2021.2.3,Linux x86_64,60.0024001,5f6fd1451758e95a989623b2,626b377229c10585ec392f89,626b3a3b89cd1f41b54b55a0,,,,,,,,,,,,,,,,,,,,,,,l,1,5.7528,"[""0.117"",""0.586"",""0.644"",""0.677""]","[1,0,1,1]",0,61,61,61,1,1,1,,,0,FALSE,,,,,,,,,,,,,,,,,,,,,,,,,,,,,,
,5f6fd1451758e95a989623b2,001,2022-04-28_20h07.45.472,classification_task,2021.2.3,Linux x86_64,60.0024001,5f6fd1451758e95a989623b2,626b377229c10585ec392f89,626b3a3b89cd1f41b54b55a0,,,,,,,,,,,,,,,,,,,,,,,a,0,2.9082,"[""0.117"",""0.259"",""0.518"",""0.677""]","[1,1,0,1]",0,62,62,62,1,1,1,,,0,FALSE,,,,,,,,,,,,,,,,,,,,,,,,,,,,,,
,5f6fd1451758e95a989623b2,001,2022-04-28_20h07.45.472,classification_task,2021.2.3,Linux x86_64,60.0024001,5f6fd1451758e95a989623b2,626b377229c10585ec392f89,626b3a3b89cd1f41b54b55a0,,,,,,,,,,,,,,,,,,,,,,,l,0,6.6672,"[""0.217"",""0.172"",""0.833"",""0.879""]","[1,0,1,1]",0,63,63,63,1,0,0,,,0,FALSE,,,,,,,,,,,,,,,,,,,,,,,,,,,,,,
,5f6fd1451758e95a989623b2,001,2022-04-28_20h07.45.472,classification_task,2021.2.3,Linux x86_64,60.0024001,5f6fd1451758e95a989623b2,626b377229c10585ec392f89,626b3a3b89cd1f41b54b55a0,,,,,,,,,,,,,,,,,,,,,,,,,,,,,,,,,,,,,,,0, ,,0,7.493353748,414.4469,0,0,0,0,1,2,1,,,,,,,,,,,,,,,,,
,5f6fd1451758e95a989623b2,001,2022-04-28_20h07.45.472,classification_task,2021.2.3,Linux x86_64,60.0024001,5f6fd1451758e95a989623b2,626b377229c10585ec392f89,626b3a3b89cd1f41b54b55a0,,,,,,,,,,,,,,,,,,,,,,,,,,,,,,,,,,,,,,,1,  ,,0,8.828230779,422.5287,0,0,0,0,1,2,1,,,,,,,,,,,,,,,,,
,5f6fd1451758e95a989623b2,001,2022-04-28_20h07.45.472,classification_task,2021.2.3,Linux x86_64,60.0024001,5f6fd1451758e95a989623b2,626b377229c10585ec392f89,626b3a3b89cd1f41b54b55a0,,,,,,,,,,,,,,,,,,,,,,,,,,,,,,,,,,,,,,,2,  ,,0,7.369971082,427.8878,0,0,0,0,1,2,1,,,,,,,,,,,,,,,,,
,5f6fd1451758e95a989623b2,001,2022-04-28_20h07.45.472,classification_task,2021.2.3,Linux x86_64,60.0024001,5f6fd1451758e95a989623b2,626b377229c10585ec392f89,626b3a3b89cd1f41b54b55a0,,,,,,,,,,,,,,,,,,,,,,,,,,,,,,,,,,,,,,,,,,,,,0,0,0,0,1,,1,,,,,,,,,,,,,,,,,
,5f6fd1451758e95a989623b2,001,2022-04-28_20h07.45.472,classification_task,2021.2.3,Linux x86_64,60.0024001,5f6fd1451758e95a989623b2,626b377229c10585ec392f89,626b3a3b89cd1f41b54b55a0,,,,,,,,,,,,,,,,,,,,,space,44.7206,l,1,2.7151,"[""0.025"",""0.408"",""0.553"",""0.710""]","[0,1,1,1]",0,0,0,0,1,1,0,,,0,FALSE,,,,,,,,,,,,,,,,,,,,,,,,,,,,,,
,5f6fd1451758e95a989623b2,001,2022-04-28_20h07.45.472,classification_task,2021.2.3,Linux x86_64,60.0024001,5f6fd1451758e95a989623b2,626b377229c10585ec392f89,626b3a3b89cd1f41b54b55a0,,,,,,,,,,,,,,,,,,,,,,,a,1,1.5064,"[""0.183"",""0.471"",""0.940"",""0.974""]","[0,1,1,1]",0,1,1,1,1,0,1,,,0,FALSE,,,,,,,,,,,,,,,,,,,,,,,,,,,,,,
,5f6fd1451758e95a989623b2,001,2022-04-28_20h07.45.472,classification_task,2021.2.3,Linux x86_64,60.0024001,5f6fd1451758e95a989623b2,626b377229c10585ec392f89,626b3a3b89cd1f41b54b55a0,,,,,,,,,,,,,,,,,,,,,,,a,1,0.7816,"[""0.301"",""0.025"",""0.940"",""0.974""]","[1,0,1,1]",0,2,2,2,1,0,1,,,0,FALSE,,,,,,,,,,,,,,,,,,,,,,,,,,,,,,
,5f6fd1451758e95a989623b2,001,2022-04-28_20h07.45.472,classification_task,2021.2.3,Linux x86_64,60.0024001,5f6fd1451758e95a989623b2,626b377229c10585ec392f89,626b3a3b89cd1f41b54b55a0,,,,,,,,,,,,,,,,,,,,,,,a,0,1.4672,"[""0.117"",""0.767"",""0.644"",""0.677""]","[1,0,1,1]",0,3,3,3,1,1,1,,,0,FALSE,,,,,,,,,,,,,,,,,,,,,,,,,,,,,,
,5f6fd1451758e95a989623b2,001,2022-04-28_20h07.45.472,classification_task,2021.2.3,Linux x86_64,60.0024001,5f6fd1451758e95a989623b2,626b377229c10585ec392f89,626b3a3b89cd1f41b54b55a0,,,,,,,,,,,,,,,,,,,,,,,l,0,3.1227,"[""0.767"",""0.372"",""0.833"",""0.879""]","[0,1,1,1]",0,4,4,4,1,0,0,,,0,FALSE,,,,,,,,,,,,,,,,,,,,,,,,,,,,,,
,5f6fd1451758e95a989623b2,001,2022-04-28_20h07.45.472,classification_task,2021.2.3,Linux x86_64,60.0024001,5f6fd1451758e95a989623b2,626b377229c10585ec392f89,626b3a3b89cd1f41b54b55a0,,,,,,,,,,,,,,,,,,,,,,,l,1,4.9193,"[""0.067"",""0.172"",""0.553"",""0.710""]","[1,0,1,1]",0,5,5,5,1,1,0,,,0,FALSE,,,,,,,,,,,,,,,,,,,,,,,,,,,,,,
,5f6fd1451758e95a989623b2,001,2022-04-28_20h07.45.472,classification_task,2021.2.3,Linux x86_64,60.0024001,5f6fd1451758e95a989623b2,626b377229c10585ec392f89,626b3a3b89cd1f41b54b55a0,,,,,,,,,,,,,,,,,,,,,,,a,1,4.5372,"[""0.301"",""0.471"",""0.600"",""0.974""]","[1,1,0,1]",0,6,6,6,1,0,1,,,0,FALSE,,,,,,,,,,,,,,,,,,,,,,,,,,,,,,
,5f6fd1451758e95a989623b2,001,2022-04-28_20h07.45.472,classification_task,2021.2.3,Linux x86_64,60.0024001,5f6fd1451758e95a989623b2,626b377229c10585ec392f89,626b3a3b89cd1f41b54b55a0,,,,,,,,,,,,,,,,,,,,,,,a,1,1.7697,"[""0.301"",""0.471"",""0.940"",""0.600""]","[1,1,1,0]",0,7,7,7,1,0,1,,,0,FALSE,,,,,,,,,,,,,,,,,,,,,,,,,,,,,,
,5f6fd1451758e95a989623b2,001,2022-04-28_20h07.45.472,classification_task,2021.2.3,Linux x86_64,60.0024001,5f6fd1451758e95a989623b2,626b377229c10585ec392f89,626b3a3b89cd1f41b54b55a0,,,,,,,,,,,,,,,,,,,,,,,l,1,1.5134,"[""0.767"",""0.259"",""0.644"",""0.677""]","[0,1,1,1]",0,8,8,8,1,1,1,,,0,FALSE,,,,,,,,,,,,,,,,,,,,,,,,,,,,,,
,5f6fd1451758e95a989623b2,001,2022-04-28_20h07.45.472,classification_task,2021.2.3,Linux x86_64,60.0024001,5f6fd1451758e95a989623b2,626b377229c10585ec392f89,626b3a3b89cd1f41b54b55a0,,,,,,,,,,,,,,,,,,,,,,,a,1,1.4152,"[""0.217"",""0.372"",""0.833"",""0.600""]","[1,1,1,0]",0,9,9,9,1,0,0,,,0,FALSE,,,,,,,,,,,,,,,,,,,,,,,,,,,,,,
,5f6fd1451758e95a989623b2,001,2022-04-28_20h07.45.472,classification_task,2021.2.3,Linux x86_64,60.0024001,5f6fd1451758e95a989623b2,626b377229c10585ec392f89,626b3a3b89cd1f41b54b55a0,,,,,,,,,,,,,,,,,,,,,,,a,1,1.2242,"[""0.217"",""0.586"",""0.833"",""0.879""]","[1,0,1,1]",0,10,10,10,1,0,0,,,0,FALSE,,,,,,,,,,,,,,,,,,,,,,,,,,,,,,
,5f6fd1451758e95a989623b2,001,2022-04-28_20h07.45.472,classification_task,2021.2.3,Linux x86_64,60.0024001,5f6fd1451758e95a989623b2,626b377229c10585ec392f89,626b3a3b89cd1f41b54b55a0,,,,,,,,,,,,,,,,,,,,,,,l,1,2.9343,"[""0.117"",""0.259"",""0.644"",""0.175""]","[1,1,1,0]",0,11,11,11,1,1,1,,,0,FALSE,,,,,,,,,,,,,,,,,,,,,,,,,,,,,,
,5f6fd1451758e95a989623b2,001,2022-04-28_20h07.45.472,classification_task,2021.2.3,Linux x86_64,60.0024001,5f6fd1451758e95a989623b2,626b377229c10585ec392f89,626b3a3b89cd1f41b54b55a0,,,,,,,,,,,,,,,,,,,,,,,a,1,1.2178,"[""0.217"",""0.372"",""0.586"",""0.879""]","[1,1,0,1]",0,12,12,12,1,0,0,,,0,FALSE,,,,,,,,,,,,,,,,,,,,,,,,,,,,,,
,5f6fd1451758e95a989623b2,001,2022-04-28_20h07.45.472,classification_task,2021.2.3,Linux x86_64,60.0024001,5f6fd1451758e95a989623b2,626b377229c10585ec392f89,626b3a3b89cd1f41b54b55a0,,,,,,,,,,,,,,,,,,,,,,,l,1,2.0899,"[""0.117"",""0.259"",""0.767"",""0.677""]","[1,1,0,1]",0,13,13,13,1,1,1,,,0,FALSE,,,,,,,,,,,,,,,,,,,,,,,,,,,,,,
,5f6fd1451758e95a989623b2,001,2022-04-28_20h07.45.472,classification_task,2021.2.3,Linux x86_64,60.0024001,5f6fd1451758e95a989623b2,626b377229c10585ec392f89,626b3a3b89cd1f41b54b55a0,,,,,,,,,,,,,,,,,,,,,,,l,1,0.9724,"[""0.067"",""0.408"",""0.768"",""0.710""]","[1,1,0,1]",0,14,14,14,1,1,0,,,0,FALSE,,,,,,,,,,,,,,,,,,,,,,,,,,,,,,
,5f6fd1451758e95a989623b2,001,2022-04-28_20h07.45.472,classification_task,2021.2.3,Linux x86_64,60.0024001,5f6fd1451758e95a989623b2,626b377229c10585ec392f89,626b3a3b89cd1f41b54b55a0,,,,,,,,,,,,,,,,,,,,,,,l,1,1.0507,"[""0.067"",""0.408"",""0.553"",""0.518""]","[1,1,1,0]",0,15,15,15,1,1,0,,,0,FALSE,,,,,,,,,,,,,,,,,,,,,,,,,,,,,,
,5f6fd1451758e95a989623b2,001,2022-04-28_20h07.45.472,classification_task,2021.2.3,Linux x86_64,60.0024001,5f6fd1451758e95a989623b2,626b377229c10585ec392f89,626b3a3b89cd1f41b54b55a0,,,,,,,,,,,,,,,,,,,,,,,a,1,1.0326,"[""0.217"",""0.767"",""0.833"",""0.879""]","[1,0,1,1]",0,16,16,16,1,0,0,,,0,FALSE,,,,,,,,,,,,,,,,,,,,,,,,,,,,,,
,5f6fd1451758e95a989623b2,001,2022-04-28_20h07.45.472,classification_task,2021.2.3,Linux x86_64,60.0024001,5f6fd1451758e95a989623b2,626b377229c10585ec392f89,626b3a3b89cd1f41b54b55a0,,,,,,,,,,,,,,,,,,,,,,,a,1,1.1754,"[""0.217"",""0.372"",""0.172"",""0.879""]","[1,1,0,1]",0,17,17,17,1,0,0,,,0,FALSE,,,,,,,,,,,,,,,,,,,,,,,,,,,,,,
,5f6fd1451758e95a989623b2,001,2022-04-28_20h07.45.472,classification_task,2021.2.3,Linux x86_64,60.0024001,5f6fd1451758e95a989623b2,626b377229c10585ec392f89,626b3a3b89cd1f41b54b55a0,,,,,,,,,,,,,,,,,,,,,,,l,1,0.9529,"[""0.067"",""0.408"",""0.553"",""0.767""]","[1,1,1,0]",0,18,18,18,1,1,0,,,0,FALSE,,,,,,,,,,,,,,,,,,,,,,,,,,,,,,
,5f6fd1451758e95a989623b2,001,2022-04-28_20h07.45.472,classification_task,2021.2.3,Linux x86_64,60.0024001,5f6fd1451758e95a989623b2,626b377229c10585ec392f89,626b3a3b89cd1f41b54b55a0,,,,,,,,,,,,,,,,,,,,,,,l,1,0.7349,"[""0.067"",""0.408"",""0.768"",""0.710""]","[1,1,0,1]",0,19,19,19,1,1,0,,,0,FALSE,,,,,,,,,,,,,,,,,,,,,,,,,,,,,,
,5f6fd1451758e95a989623b2,001,2022-04-28_20h07.45.472,classification_task,2021.2.3,Linux x86_64,60.0024001,5f6fd1451758e95a989623b2,626b377229c10585ec392f89,626b3a3b89cd1f41b54b55a0,,,,,,,,,,,,,,,,,,,,,,,l,1,1.1231,"[""0.518"",""0.408"",""0.553"",""0.710""]","[0,1,1,1]",0,20,20,20,1,1,0,,,0,FALSE,,,,,,,,,,,,,,,,,,,,,,,,,,,,,,
,5f6fd1451758e95a989623b2,001,2022-04-28_20h07.45.472,classification_task,2021.2.3,Linux x86_64,60.0024001,5f6fd1451758e95a989623b2,626b377229c10585ec392f89,626b3a3b89cd1f41b54b55a0,,,,,,,,,,,,,,,,,,,,,,,a,1,0.666,"[""0.600"",""0.372"",""0.833"",""0.879""]","[0,1,1,1]",0,21,21,21,1,0,0,,,0,FALSE,,,,,,,,,,,,,,,,,,,,,,,,,,,,,,
,5f6fd1451758e95a989623b2,001,2022-04-28_20h07.45.472,classification_task,2021.2.3,Linux x86_64,60.0024001,5f6fd1451758e95a989623b2,626b377229c10585ec392f89,626b3a3b89cd1f41b54b55a0,,,,,,,,,,,,,,,,,,,,,,,l,1,1.073,"[""0.067"",""0.792"",""0.553"",""0.710""]","[1,0,1,1]",0,22,22,22,1,1,0,,,0,FALSE,,,,,,,,,,,,,,,,,,,,,,,,,,,,,,
,5f6fd1451758e95a989623b2,001,2022-04-28_20h07.45.472,classification_task,2021.2.3,Linux x86_64,60.0024001,5f6fd1451758e95a989623b2,626b377229c10585ec392f89,626b3a3b89cd1f41b54b55a0,,,,,,,,,,,,,,,,,,,,,,,a,1,2.9618,"[""0.301"",""0.783"",""0.940"",""0.974""]","[1,0,1,1]",0,23,23,23,1,0,1,,,0,FALSE,,,,,,,,,,,,,,,,,,,,,,,,,,,,,,
,5f6fd1451758e95a989623b2,001,2022-04-28_20h07.45.472,classification_task,2021.2.3,Linux x86_64,60.0024001,5f6fd1451758e95a989623b2,626b377229c10585ec392f89,626b3a3b89cd1f41b54b55a0,,,,,,,,,,,,,,,,,,,,,,,a,1,1.7057,"[""0.600"",""0.471"",""0.940"",""0.974""]","[0,1,1,1]",0,24,24,24,1,0,1,,,0,FALSE,,,,,,,,,,,,,,,,,,,,,,,,,,,,,,
,5f6fd1451758e95a989623b2,001,2022-04-28_20h07.45.472,classification_task,2021.2.3,Linux x86_64,60.0024001,5f6fd1451758e95a989623b2,626b377229c10585ec392f89,626b3a3b89cd1f41b54b55a0,,,,,,,,,,,,,,,,,,,,,,,a,1,2.0523,"[""0.301"",""0.471"",""0.940"",""0.025""]","[1,1,1,0]",0,25,25,25,1,0,1,,,0,FALSE,,,,,,,,,,,,,,,,,,,,,,,,,,,,,,
,5f6fd1451758e95a989623b2,001,2022-04-28_20h07.45.472,classification_task,2021.2.3,Linux x86_64,60.0024001,5f6fd1451758e95a989623b2,626b377229c10585ec392f89,626b3a3b89cd1f41b54b55a0,,,,,,,,,,,,,,,,,,,,,,,l,1,1.287,"[""0.600"",""0.259"",""0.644"",""0.677""]","[0,1,1,1]",0,26,26,26,1,1,1,,,0,FALSE,,,,,,,,,,,,,,,,,,,,,,,,,,,,,,
,5f6fd1451758e95a989623b2,001,2022-04-28_20h07.45.472,classification_task,2021.2.3,Linux x86_64,60.0024001,5f6fd1451758e95a989623b2,626b377229c10585ec392f89,626b3a3b89cd1f41b54b55a0,,,,,,,,,,,,,,,,,,,,,,,a,1,1.2697,"[""0.217"",""0.372"",""0.833"",""0.172""]","[1,1,1,0]",0,27,27,27,1,0,0,,,0,FALSE,,,,,,,,,,,,,,,,,,,,,,,,,,,,,,
,5f6fd1451758e95a989623b2,001,2022-04-28_20h07.45.472,classification_task,2021.2.3,Linux x86_64,60.0024001,5f6fd1451758e95a989623b2,626b377229c10585ec392f89,626b3a3b89cd1f41b54b55a0,,,,,,,,,,,,,,,,,,,,,,,l,1,2.1026,"[""0.117"",""0.172"",""0.644"",""0.677""]","[1,0,1,1]",0,28,28,28,1,1,1,,,0,FALSE,,,,,,,,,,,,,,,,,,,,,,,,,,,,,,
,5f6fd1451758e95a989623b2,001,2022-04-28_20h07.45.472,classification_task,2021.2.3,Linux x86_64,60.0024001,5f6fd1451758e95a989623b2,626b377229c10585ec392f89,626b3a3b89cd1f41b54b55a0,,,,,,,,,,,,,,,,,,,,,,,l,1,2.4492,"[""0.117"",""0.259"",""0.644"",""0.783""]","[1,1,1,0]",0,29,29,29,1,1,1,,,0,FALSE,,,,,,,,,,,,,,,,,,,,,,,,,,,,,,
,5f6fd1451758e95a989623b2,001,2022-04-28_20h07.45.472,classification_task,2021.2.3,Linux x86_64,60.0024001,5f6fd1451758e95a989623b2,626b377229c10585ec392f89,626b3a3b89cd1f41b54b55a0,,,,,,,,,,,,,,,,,,,,,,,a,1,1.6247,"[""0.301"",""0.471"",""0.783"",""0.974""]","[1,1,0,1]",0,30,30,30,1,0,1,,,0,FALSE,,,,,,,,,,,,,,,,,,,,,,,,,,,,,,
,5f6fd1451758e95a989623b2,001,2022-04-28_20h07.45.472,classification_task,2021.2.3,Linux x86_64,60.0024001,5f6fd1451758e95a989623b2,626b377229c10585ec392f89,626b3a3b89cd1f41b54b55a0,,,,,,,,,,,,,,,,,,,,,,,l,1,2.9481,"[""0.117"",""0.259"",""0.767"",""0.677""]","[1,1,0,1]",0,31,31,31,1,1,1,,,0,FALSE,,,,,,,,,,,,,,,,,,,,,,,,,,,,,,
,5f6fd1451758e95a989623b2,001,2022-04-28_20h07.45.472,classification_task,2021.2.3,Linux x86_64,60.0024001,5f6fd1451758e95a989623b2,626b377229c10585ec392f89,626b3a3b89cd1f41b54b55a0,,,,,,,,,,,,,,,,,,,,,,,a,1,1.6583,"[""0.301"",""0.471"",""0.172"",""0.974""]","[1,1,0,1]",0,32,32,32,1,0,1,,,0,FALSE,,,,,,,,,,,,,,,,,,,,,,,,,,,,,,
,5f6fd1451758e95a989623b2,001,2022-04-28_20h07.45.472,classification_task,2021.2.3,Linux x86_64,60.0024001,5f6fd1451758e95a989623b2,626b377229c10585ec392f89,626b3a3b89cd1f41b54b55a0,,,,,,,,,,,,,,,,,,,,,,,a,1,1.2984,"[""0.518"",""0.372"",""0.833"",""0.879""]","[0,1,1,1]",0,33,33,33,1,0,0,,,0,FALSE,,,,,,,,,,,,,,,,,,,,,,,,,,,,,,
,5f6fd1451758e95a989623b2,001,2022-04-28_20h07.45.472,classification_task,2021.2.3,Linux x86_64,60.0024001,5f6fd1451758e95a989623b2,626b377229c10585ec392f89,626b3a3b89cd1f41b54b55a0,,,,,,,,,,,,,,,,,,,,,,,l,1,1.4735,"[""0.117"",""0.259"",""0.644"",""0.172""]","[1,1,1,0]",0,34,34,34,1,1,1,,,0,FALSE,,,,,,,,,,,,,,,,,,,,,,,,,,,,,,
,5f6fd1451758e95a989623b2,001,2022-04-28_20h07.45.472,classification_task,2021.2.3,Linux x86_64,60.0024001,5f6fd1451758e95a989623b2,626b377229c10585ec392f89,626b3a3b89cd1f41b54b55a0,,,,,,,,,,,,,,,,,,,,,,,l,1,1.529,"[""0.067"",""0.600"",""0.553"",""0.710""]","[1,0,1,1]",0,35,35,35,1,1,0,,,0,FALSE,,,,,,,,,,,,,,,,,,,,,,,,,,,,,,
,5f6fd1451758e95a989623b2,001,2022-04-28_20h07.45.472,classification_task,2021.2.3,Linux x86_64,60.0024001,5f6fd1451758e95a989623b2,626b377229c10585ec392f89,626b3a3b89cd1f41b54b55a0,,,,,,,,,,,,,,,,,,,,,,,a,1,0.8339,"[""0.217"",""0.372"",""0.600"",""0.879""]","[1,1,0,1]",0,36,36,36,1,0,0,,,0,FALSE,,,,,,,,,,,,,,,,,,,,,,,,,,,,,,
,5f6fd1451758e95a989623b2,001,2022-04-28_20h07.45.472,classification_task,2021.2.3,Linux x86_64,60.0024001,5f6fd1451758e95a989623b2,626b377229c10585ec392f89,626b3a3b89cd1f41b54b55a0,,,,,,,,,,,,,,,,,,,,,,,a,1,1.5361,"[""0.600"",""0.471"",""0.940"",""0.974""]","[0,1,1,1]",0,37,37,37,1,0,1,,,0,FALSE,,,,,,,,,,,,,,,,,,,,,,,,,,,,,,
,5f6fd1451758e95a989623b2,001,2022-04-28_20h07.45.472,classification_task,2021.2.3,Linux x86_64,60.0024001,5f6fd1451758e95a989623b2,626b377229c10585ec392f89,626b3a3b89cd1f41b54b55a0,,,,,,,,,,,,,,,,,,,,,,,a,1,1.1416,"[""0.301"",""0.172"",""0.940"",""0.974""]","[1,0,1,1]",0,38,38,38,1,0,1,,,0,FALSE,,,,,,,,,,,,,,,,,,,,,,,,,,,,,,
,5f6fd1451758e95a989623b2,001,2022-04-28_20h07.45.472,classification_task,2021.2.3,Linux x86_64,60.0024001,5f6fd1451758e95a989623b2,626b377229c10585ec392f89,626b3a3b89cd1f41b54b55a0,,,,,,,,,,,,,,,,,,,,,,,a,1,2.0415,"[""0.301"",""0.471"",""0.940"",""0.183""]","[1,1,1,0]",0,39,39,39,1,0,1,,,0,FALSE,,,,,,,,,,,,,,,,,,,,,,,,,,,,,,
,5f6fd1451758e95a989623b2,001,2022-04-28_20h07.45.472,classification_task,2021.2.3,Linux x86_64,60.0024001,5f6fd1451758e95a989623b2,626b377229c10585ec392f89,626b3a3b89cd1f41b54b55a0,,,,,,,,,,,,,,,,,,,,,,,a,1,1.6423,"[""0.217"",""0.372"",""0.833"",""0.600""]","[1,1,1,0]",0,40,40,40,1,0,0,,,0,FALSE,,,,,,,,,,,,,,,,,,,,,,,,,,,,,,
,5f6fd1451758e95a989623b2,001,2022-04-28_20h07.45.472,classification_task,2021.2.3,Linux x86_64,60.0024001,5f6fd1451758e95a989623b2,626b377229c10585ec392f89,626b3a3b89cd1f41b54b55a0,,,,,,,,,,,,,,,,,,,,,,,l,1,1.4452,"[""0.117"",""0.600"",""0.644"",""0.677""]","[1,0,1,1]",0,41,41,41,1,1,1,,,0,FALSE,,,,,,,,,,,,,,,,,,,,,,,,,,,,,,
,5f6fd1451758e95a989623b2,001,2022-04-28_20h07.45.472,classification_task,2021.2.3,Linux x86_64,60.0024001,5f6fd1451758e95a989623b2,626b377229c10585ec392f89,626b3a3b89cd1f41b54b55a0,,,,,,,,,,,,,,,,,,,,,,,l,1,1.3182,"[""0.175"",""0.408"",""0.553"",""0.710""]","[0,1,1,1]",0,42,42,42,1,1,0,,,0,FALSE,,,,,,,,,,,,,,,,,,,,,,,,,,,,,,
,5f6fd1451758e95a989623b2,001,2022-04-28_20h07.45.472,classification_task,2021.2.3,Linux x86_64,60.0024001,5f6fd1451758e95a989623b2,626b377229c10585ec392f89,626b3a3b89cd1f41b54b55a0,,,,,,,,,,,,,,,,,,,,,,,l,1,1.7167,"[""0.067"",""0.408"",""0.553"",""0.768""]","[1,1,1,0]",0,43,43,43,1,1,0,,,0,FALSE,,,,,,,,,,,,,,,,,,,,,,,,,,,,,,
,5f6fd1451758e95a989623b2,001,2022-04-28_20h07.45.472,classification_task,2021.2.3,Linux x86_64,60.0024001,5f6fd1451758e95a989623b2,626b377229c10585ec392f89,626b3a3b89cd1f41b54b55a0,,,,,,,,,,,,,,,,,,,,,,,l,1,1.8396,"[""0.783"",""0.259"",""0.644"",""0.677""]","[0,1,1,1]",0,44,44,44,1,1,1,,,0,FALSE,,,,,,,,,,,,,,,,,,,,,,,,,,,,,,
,5f6fd1451758e95a989623b2,001,2022-04-28_20h07.45.472,classification_task,2021.2.3,Linux x86_64,60.0024001,5f6fd1451758e95a989623b2,626b377229c10585ec392f89,626b3a3b89cd1f41b54b55a0,,,,,,,,,,,,,,,,,,,,,,,l,1,1.6493,"[""0.117"",""0.259"",""0.767"",""0.677""]","[1,1,0,1]",0,45,45,45,1,1,1,,,0,FALSE,,,,,,,,,,,,,,,,,,,,,,,,,,,,,,
,5f6fd1451758e95a989623b2,001,2022-04-28_20h07.45.472,classification_task,2021.2.3,Linux x86_64,60.0024001,5f6fd1451758e95a989623b2,626b377229c10585ec392f89,626b3a3b89cd1f41b54b55a0,,,,,,,,,,,,,,,,,,,,,,,a,1,1.2518,"[""0.217"",""0.025"",""0.833"",""0.879""]","[1,0,1,1]",0,46,46,46,1,0,0,,,0,FALSE,,,,,,,,,,,,,,,,,,,,,,,,,,,,,,
,5f6fd1451758e95a989623b2,001,2022-04-28_20h07.45.472,classification_task,2021.2.3,Linux x86_64,60.0024001,5f6fd1451758e95a989623b2,626b377229c10585ec392f89,626b3a3b89cd1f41b54b55a0,,,,,,,,,,,,,,,,,,,,,,,l,1,1.0511,"[""0.067"",""0.408"",""0.586"",""0.710""]","[1,1,0,1]",0,47,47,47,1,1,0,,,0,FALSE,,,,,,,,,,,,,,,,,,,,,,,,,,,,,,
,5f6fd1451758e95a989623b2,001,2022-04-28_20h07.45.472,classification_task,2021.2.3,Linux x86_64,60.0024001,5f6fd1451758e95a989623b2,626b377229c10585ec392f89,626b3a3b89cd1f41b54b55a0,,,,,,,,,,,,,,,,,,,,,,,a,1,1.9261,"[""0.217"",""0.172"",""0.833"",""0.879""]","[1,0,1,1]",0,48,48,48,1,0,0,,,0,FALSE,,,,,,,,,,,,,,,,,,,,,,,,,,,,,,
,5f6fd1451758e95a989623b2,001,2022-04-28_20h07.45.472,classification_task,2021.2.3,Linux x86_64,60.0024001,5f6fd1451758e95a989623b2,626b377229c10585ec392f89,626b3a3b89cd1f41b54b55a0,,,,,,,,,,,,,,,,,,,,,,,l,0,1.4754,"[""0.301"",""0.471"",""0.768"",""0.974""]","[1,1,0,1]",0,49,49,49,1,0,1,,,0,FALSE,,,,,,,,,,,,,,,,,,,,,,,,,,,,,,
,5f6fd1451758e95a989623b2,001,2022-04-28_20h07.45.472,classification_task,2021.2.3,Linux x86_64,60.0024001,5f6fd1451758e95a989623b2,626b377229c10585ec392f89,626b3a3b89cd1f41b54b55a0,,,,,,,,,,,,,,,,,,,,,,,l,1,2.5058,"[""0.117"",""0.259"",""0.644"",""0.600""]","[1,1,1,0]",0,50,50,50,1,1,1,,,0,FALSE,,,,,,,,,,,,,,,,,,,,,,,,,,,,,,
,5f6fd1451758e95a989623b2,001,2022-04-28_20h07.45.472,classification_task,2021.2.3,Linux x86_64,60.0024001,5f6fd1451758e95a989623b2,626b377229c10585ec392f89,626b3a3b89cd1f41b54b55a0,,,,,,,,,,,,,,,,,,,,,,,a,1,1.4963,"[""0.025"",""0.372"",""0.833"",""0.879""]","[0,1,1,1]",0,51,51,51,1,0,0,,,0,FALSE,,,,,,,,,,,,,,,,,,,,,,,,,,,,,,
,5f6fd1451758e95a989623b2,001,2022-04-28_20h07.45.472,classification_task,2021.2.3,Linux x86_64,60.0024001,5f6fd1451758e95a989623b2,626b377229c10585ec392f89,626b3a3b89cd1f41b54b55a0,,,,,,,,,,,,,,,,,,,,,,,a,1,1.3999,"[""0.301"",""0.507"",""0.940"",""0.974""]","[1,0,1,1]",0,52,52,52,1,0,1,,,0,FALSE,,,,,,,,,,,,,,,,,,,,,,,,,,,,,,
,5f6fd1451758e95a989623b2,001,2022-04-28_20h07.45.472,classification_task,2021.2.3,Linux x86_64,60.0024001,5f6fd1451758e95a989623b2,626b377229c10585ec392f89,626b3a3b89cd1f41b54b55a0,,,,,,,,,,,,,,,,,,,,,,,l,1,1.2374,"[""0.117"",""0.259"",""0.600"",""0.677""]","[1,1,0,1]",0,53,53,53,1,1,1,,,0,FALSE,,,,,,,,,,,,,,,,,,,,,,,,,,,,,,
,5f6fd1451758e95a989623b2,001,2022-04-28_20h07.45.472,classification_task,2021.2.3,Linux x86_64,60.0024001,5f6fd1451758e95a989623b2,626b377229c10585ec392f89,626b3a3b89cd1f41b54b55a0,,,,,,,,,,,,,,,,,,,,,,,a,1,1.5151,"[""0.217"",""0.372"",""0.183"",""0.879""]","[1,1,0,1]",0,54,54,54,1,0,0,,,0,FALSE,,,,,,,,,,,,,,,,,,,,,,,,,,,,,,
,5f6fd1451758e95a989623b2,001,2022-04-28_20h07.45.472,classification_task,2021.2.3,Linux x86_64,60.0024001,5f6fd1451758e95a989623b2,626b377229c10585ec392f89,626b3a3b89cd1f41b54b55a0,,,,,,,,,,,,,,,,,,,,,,,a,1,1.4204,"[""0.172"",""0.471"",""0.940"",""0.974""]","[0,1,1,1]",0,55,55,55,1,0,1,,,0,FALSE,,,,,,,,,,,,,,,,,,,,,,,,,,,,,,
,5f6fd1451758e95a989623b2,001,2022-04-28_20h07.45.472,classification_task,2021.2.3,Linux x86_64,60.0024001,5f6fd1451758e95a989623b2,626b377229c10585ec392f89,626b3a3b89cd1f41b54b55a0,,,,,,,,,,,,,,,,,,,,,,,l,1,1.164,"[""0.067"",""0.408"",""0.175"",""0.710""]","[1,1,0,1]",0,56,56,56,1,1,0,,,0,FALSE,,,,,,,,,,,,,,,,,,,,,,,,,,,,,,
,5f6fd1451758e95a989623b2,001,2022-04-28_20h07.45.472,classification_task,2021.2.3,Linux x86_64,60.0024001,5f6fd1451758e95a989623b2,626b377229c10585ec392f89,626b3a3b89cd1f41b54b55a0,,,,,,,,,,,,,,,,,,,,,,,a,1,2.0874,"[""0.217"",""0.372"",""0.833"",""0.172""]","[1,1,1,0]",0,57,57,57,1,0,0,,,0,FALSE,,,,,,,,,,,,,,,,,,,,,,,,,,,,,,
,5f6fd1451758e95a989623b2,001,2022-04-28_20h07.45.472,classification_task,2021.2.3,Linux x86_64,60.0024001,5f6fd1451758e95a989623b2,626b377229c10585ec392f89,626b3a3b89cd1f41b54b55a0,,,,,,,,,,,,,,,,,,,,,,,l,1,1.2246,"[""0.067"",""0.025"",""0.553"",""0.710""]","[1,0,1,1]",0,58,58,58,1,1,0,,,0,FALSE,,,,,,,,,,,,,,,,,,,,,,,,,,,,,,
,5f6fd1451758e95a989623b2,001,2022-04-28_20h07.45.472,classification_task,2021.2.3,Linux x86_64,60.0024001,5f6fd1451758e95a989623b2,626b377229c10585ec392f89,626b3a3b89cd1f41b54b55a0,,,,,,,,,,,,,,,,,,,,,,,l,1,1.4312,"[""0.518"",""0.259"",""0.644"",""0.677""]","[0,1,1,1]",0,59,59,59,1,1,1,,,0,FALSE,,,,,,,,,,,,,,,,,,,,,,,,,,,,,,
,5f6fd1451758e95a989623b2,001,2022-04-28_20h07.45.472,classification_task,2021.2.3,Linux x86_64,60.0024001,5f6fd1451758e95a989623b2,626b377229c10585ec392f89,626b3a3b89cd1f41b54b55a0,,,,,,,,,,,,,,,,,,,,,,,l,1,4.8692,"[""0.117"",""0.767"",""0.644"",""0.677""]","[1,0,1,1]",0,60,60,60,1,1,1,,,0,FALSE,,,,,,,,,,,,,,,,,,,,,,,,,,,,,,
,5f6fd1451758e95a989623b2,001,2022-04-28_20h07.45.472,classification_task,2021.2.3,Linux x86_64,60.0024001,5f6fd1451758e95a989623b2,626b377229c10585ec392f89,626b3a3b89cd1f41b54b55a0,,,,,,,,,,,,,,,,,,,,,,,a,1,1.3876,"[""0.301"",""0.471"",""0.940"",""0.172""]","[1,1,1,0]",0,61,61,61,1,0,1,,,0,FALSE,,,,,,,,,,,,,,,,,,,,,,,,,,,,,,
,5f6fd1451758e95a989623b2,001,2022-04-28_20h07.45.472,classification_task,2021.2.3,Linux x86_64,60.0024001,5f6fd1451758e95a989623b2,626b377229c10585ec392f89,626b3a3b89cd1f41b54b55a0,,,,,,,,,,,,,,,,,,,,,,,l,1,2.0186,"[""0.067"",""0.408"",""0.553"",""0.183""]","[1,1,1,0]",0,62,62,62,1,1,0,,,0,FALSE,,,,,,,,,,,,,,,,,,,,,,,,,,,,,,
,5f6fd1451758e95a989623b2,001,2022-04-28_20h07.45.472,classification_task,2021.2.3,Linux x86_64,60.0024001,5f6fd1451758e95a989623b2,626b377229c10585ec392f89,626b3a3b89cd1f41b54b55a0,,,,,,,,,,,,,,,,,,,,,,,l,1,1.2844,"[""0.172"",""0.408"",""0.553"",""0.710""]","[0,1,1,1]",0,63,63,63,1,1,0,,,0,FALSE,,,,,,,,,,,,,,,,,,,,,,,,,,,,,,
,5f6fd1451758e95a989623b2,001,2022-04-28_20h07.45.472,classification_task,2021.2.3,Linux x86_64,60.0024001,5f6fd1451758e95a989623b2,626b377229c10585ec392f89,626b3a3b89cd1f41b54b55a0,,,,,,,,,,,,,,,,,,,,,,,,,,,,,,,,,,,,,,,0, ,,0,8.186277191,232.2812,0,1,1,1,1,2,2,,,,,,,,,,,,,,,,,
,5f6fd1451758e95a989623b2,001,2022-04-28_20h07.45.472,classification_task,2021.2.3,Linux x86_64,60.0024001,5f6fd1451758e95a989623b2,626b377229c10585ec392f89,626b3a3b89cd1f41b54b55a0,,,,,,,,,,,,,,,,,,,,,,,,,,,,,,,,,,,,,,,1,  ,,0,5.81106048,237.6546,0,1,1,1,1,2,2,,,,,,,,,,,,,,,,,
,5f6fd1451758e95a989623b2,001,2022-04-28_20h07.45.472,classification_task,2021.2.3,Linux x86_64,60.0024001,5f6fd1451758e95a989623b2,626b377229c10585ec392f89,626b3a3b89cd1f41b54b55a0,,,,,,,,,,,,,,,,,,,,,,,,,,,,,,,,,,,,,,,2,  ,,0,5.30462704,241.305,0,1,1,1,1,2,2,,,,,,,,,,,,,,,,,
,5f6fd1451758e95a989623b2,001,2022-04-28_20h07.45.472,classification_task,2021.2.3,Linux x86_64,60.0024001,5f6fd1451758e95a989623b2,626b377229c10585ec392f89,626b3a3b89cd1f41b54b55a0,,,,,,,,,,,,,,,,,,,,,,,,,,,,,,,,,,,,,,,,,,,,,0,1,1,1,1,,2,,,,,,,,,,,,,,,,,
,5f6fd1451758e95a989623b2,001,2022-04-28_20h07.45.472,classification_task,2021.2.3,Linux x86_64,60.0024001,5f6fd1451758e95a989623b2,626b377229c10585ec392f89,626b3a3b89cd1f41b54b55a0,,,,,,,,,,,,,,,,,,,,,space,63.6651,l,1,3.6196,"[""0.117"",""0.259"",""0.183"",""0.677""]","[1,1,0,1]",0,0,0,0,1,1,1,,,0,FALSE,,,,,,,,,,,,,,,,,,,,,,,,,,,,,,
,5f6fd1451758e95a989623b2,001,2022-04-28_20h07.45.472,classification_task,2021.2.3,Linux x86_64,60.0024001,5f6fd1451758e95a989623b2,626b377229c10585ec392f89,626b3a3b89cd1f41b54b55a0,,,,,,,,,,,,,,,,,,,,,,,l,1,1.5839,"[""0.117"",""0.259"",""0.644"",""0.175""]","[1,1,1,0]",0,1,1,1,1,1,1,,,0,FALSE,,,,,,,,,,,,,,,,,,,,,,,,,,,,,,
,5f6fd1451758e95a989623b2,001,2022-04-28_20h07.45.472,classification_task,2021.2.3,Linux x86_64,60.0024001,5f6fd1451758e95a989623b2,626b377229c10585ec392f89,626b3a3b89cd1f41b54b55a0,,,,,,,,,,,,,,,,,,,,,,,a,1,1.8658,"[""0.301"",""0.471"",""0.768"",""0.974""]","[1,1,0,1]",0,2,2,2,1,0,1,,,0,FALSE,,,,,,,,,,,,,,,,,,,,,,,,,,,,,,
,5f6fd1451758e95a989623b2,001,2022-04-28_20h07.45.472,classification_task,2021.2.3,Linux x86_64,60.0024001,5f6fd1451758e95a989623b2,626b377229c10585ec392f89,626b3a3b89cd1f41b54b55a0,,,,,,,,,,,,,,,,,,,,,,,a,1,4.7479,"[""0.783"",""0.372"",""0.833"",""0.879""]","[0,1,1,1]",0,3,3,3,1,0,0,,,0,FALSE,,,,,,,,,,,,,,,,,,,,,,,,,,,,,,
,5f6fd1451758e95a989623b2,001,2022-04-28_20h07.45.472,classification_task,2021.2.3,Linux x86_64,60.0024001,5f6fd1451758e95a989623b2,626b377229c10585ec392f89,626b3a3b89cd1f41b54b55a0,,,,,,,,,,,,,,,,,,,,,,,l,1,4.6732,"[""0.768"",""0.259"",""0.644"",""0.677""]","[0,1,1,1]",0,4,4,4,1,1,1,,,0,FALSE,,,,,,,,,,,,,,,,,,,,,,,,,,,,,,
,5f6fd1451758e95a989623b2,001,2022-04-28_20h07.45.472,classification_task,2021.2.3,Linux x86_64,60.0024001,5f6fd1451758e95a989623b2,626b377229c10585ec392f89,626b3a3b89cd1f41b54b55a0,,,,,,,,,,,,,,,,,,,,,,,a,1,1.2203,"[""0.301"",""0.172"",""0.940"",""0.974""]","[1,0,1,1]",0,5,5,5,1,0,1,,,0,FALSE,,,,,,,,,,,,,,,,,,,,,,,,,,,,,,
,5f6fd1451758e95a989623b2,001,2022-04-28_20h07.45.472,classification_task,2021.2.3,Linux x86_64,60.0024001,5f6fd1451758e95a989623b2,626b377229c10585ec392f89,626b3a3b89cd1f41b54b55a0,,,,,,,,,,,,,,,,,,,,,,,a,1,1.2383,"[""0.783"",""0.471"",""0.940"",""0.974""]","[0,1,1,1]",0,6,6,6,1,0,1,,,0,FALSE,,,,,,,,,,,,,,,,,,,,,,,,,,,,,,
,5f6fd1451758e95a989623b2,001,2022-04-28_20h07.45.472,classification_task,2021.2.3,Linux x86_64,60.0024001,5f6fd1451758e95a989623b2,626b377229c10585ec392f89,626b3a3b89cd1f41b54b55a0,,,,,,,,,,,,,,,,,,,,,,,a,1,1.6558,"[""0.217"",""0.372"",""0.507"",""0.879""]","[1,1,0,1]",0,7,7,7,1,0,0,,,0,FALSE,,,,,,,,,,,,,,,,,,,,,,,,,,,,,,
,5f6fd1451758e95a989623b2,001,2022-04-28_20h07.45.472,classification_task,2021.2.3,Linux x86_64,60.0024001,5f6fd1451758e95a989623b2,626b377229c10585ec392f89,626b3a3b89cd1f41b54b55a0,,,,,,,,,,,,,,,,,,,,,,,a,1,1.5234,"[""0.217"",""0.025"",""0.833"",""0.879""]","[1,0,1,1]",0,8,8,8,1,0,0,,,0,FALSE,,,,,,,,,,,,,,,,,,,,,,,,,,,,,,
,5f6fd1451758e95a989623b2,001,2022-04-28_20h07.45.472,classification_task,2021.2.3,Linux x86_64,60.0024001,5f6fd1451758e95a989623b2,626b377229c10585ec392f89,626b3a3b89cd1f41b54b55a0,,,,,,,,,,,,,,,,,,,,,,,l,1,1.1984,"[""0.067"",""0.408"",""0.183"",""0.710""]","[1,1,0,1]",0,9,9,9,1,1,0,,,0,FALSE,,,,,,,,,,,,,,,,,,,,,,,,,,,,,,
,5f6fd1451758e95a989623b2,001,2022-04-28_20h07.45.472,classification_task,2021.2.3,Linux x86_64,60.0024001,5f6fd1451758e95a989623b2,626b377229c10585ec392f89,626b3a3b89cd1f41b54b55a0,,,,,,,,,,,,,,,,,,,,,,,l,1,1.5231,"[""0.117"",""0.172"",""0.644"",""0.677""]","[1,0,1,1]",0,10,10,10,1,1,1,,,0,FALSE,,,,,,,,,,,,,,,,,,,,,,,,,,,,,,
,5f6fd1451758e95a989623b2,001,2022-04-28_20h07.45.472,classification_task,2021.2.3,Linux x86_64,60.0024001,5f6fd1451758e95a989623b2,626b377229c10585ec392f89,626b3a3b89cd1f41b54b55a0,,,,,,,,,,,,,,,,,,,,,,,a,1,1.3416,"[""0.301"",""0.471"",""0.940"",""0.175""]","[1,1,1,0]",0,11,11,11,1,0,1,,,0,FALSE,,,,,,,,,,,,,,,,,,,,,,,,,,,,,,
,5f6fd1451758e95a989623b2,001,2022-04-28_20h07.45.472,classification_task,2021.2.3,Linux x86_64,60.0024001,5f6fd1451758e95a989623b2,626b377229c10585ec392f89,626b3a3b89cd1f41b54b55a0,,,,,,,,,,,,,,,,,,,,,,,l,1,1.4835,"[""0.067"",""0.408"",""0.553"",""0.600""]","[1,1,1,0]",0,12,12,12,1,1,0,,,0,FALSE,,,,,,,,,,,,,,,,,,,,,,,,,,,,,,
,5f6fd1451758e95a989623b2,001,2022-04-28_20h07.45.472,classification_task,2021.2.3,Linux x86_64,60.0024001,5f6fd1451758e95a989623b2,626b377229c10585ec392f89,626b3a3b89cd1f41b54b55a0,,,,,,,,,,,,,,,,,,,,,,,l,1,2.582,"[""0.507"",""0.408"",""0.553"",""0.710""]","[0,1,1,1]",0,13,13,13,1,1,0,,,0,FALSE,,,,,,,,,,,,,,,,,,,,,,,,,,,,,,
,5f6fd1451758e95a989623b2,001,2022-04-28_20h07.45.472,classification_task,2021.2.3,Linux x86_64,60.0024001,5f6fd1451758e95a989623b2,626b377229c10585ec392f89,626b3a3b89cd1f41b54b55a0,,,,,,,,,,,,,,,,,,,,,,,a,1,1.7004,"[""0.217"",""0.372"",""0.833"",""0.518""]","[1,1,1,0]",0,14,14,14,1,0,0,,,0,FALSE,,,,,,,,,,,,,,,,,,,,,,,,,,,,,,
,5f6fd1451758e95a989623b2,001,2022-04-28_20h07.45.472,classification_task,2021.2.3,Linux x86_64,60.0024001,5f6fd1451758e95a989623b2,626b377229c10585ec392f89,626b3a3b89cd1f41b54b55a0,,,,,,,,,,,,,,,,,,,,,,,l,1,1.4558,"[""0.067"",""0.025"",""0.553"",""0.710""]","[1,0,1,1]",0,15,15,15,1,1,0,,,0,FALSE,,,,,,,,,,,,,,,,,,,,,,,,,,,,,,
,5f6fd1451758e95a989623b2,001,2022-04-28_20h07.45.472,classification_task,2021.2.3,Linux x86_64,60.0024001,5f6fd1451758e95a989623b2,626b377229c10585ec392f89,626b3a3b89cd1f41b54b55a0,,,,,,,,,,,,,,,,,,,,,,,a,1,1.1489,"[""0.217"",""0.372"",""0.586"",""0.879""]","[1,1,0,1]",0,16,16,16,1,0,0,,,0,FALSE,,,,,,,,,,,,,,,,,,,,,,,,,,,,,,
,5f6fd1451758e95a989623b2,001,2022-04-28_20h07.45.472,classification_task,2021.2.3,Linux x86_64,60.0024001,5f6fd1451758e95a989623b2,626b377229c10585ec392f89,626b3a3b89cd1f41b54b55a0,,,,,,,,,,,,,,,,,,,,,,,l,1,2.1356,"[""0.067"",""0.408"",""0.518"",""0.710""]","[1,1,0,1]",0,17,17,17,1,1,0,,,0,FALSE,,,,,,,,,,,,,,,,,,,,,,,,,,,,,,
,5f6fd1451758e95a989623b2,001,2022-04-28_20h07.45.472,classification_task,2021.2.3,Linux x86_64,60.0024001,5f6fd1451758e95a989623b2,626b377229c10585ec392f89,626b3a3b89cd1f41b54b55a0,,,,,,,,,,,,,,,,,,,,,,,a,1,1.5659,"[""0.217"",""0.172"",""0.833"",""0.879""]","[1,0,1,1]",0,18,18,18,1,0,0,,,0,FALSE,,,,,,,,,,,,,,,,,,,,,,,,,,,,,,
,5f6fd1451758e95a989623b2,001,2022-04-28_20h07.45.472,classification_task,2021.2.3,Linux x86_64,60.0024001,5f6fd1451758e95a989623b2,626b377229c10585ec392f89,626b3a3b89cd1f41b54b55a0,,,,,,,,,,,,,,,,,,,,,,,l,1,1.9705,"[""0.067"",""0.600"",""0.553"",""0.710""]","[1,0,1,1]",0,19,19,19,1,1,0,,,0,FALSE,,,,,,,,,,,,,,,,,,,,,,,,,,,,,,
,5f6fd1451758e95a989623b2,001,2022-04-28_20h07.45.472,classification_task,2021.2.3,Linux x86_64,60.0024001,5f6fd1451758e95a989623b2,626b377229c10585ec392f89,626b3a3b89cd1f41b54b55a0,,,,,,,,,,,,,,,,,,,,,,,l,1,4.1026,"[""0.600"",""0.408"",""0.553"",""0.710""]","[0,1,1,1]",0,20,20,20,1,1,0,,,0,FALSE,,,,,,,,,,,,,,,,,,,,,,,,,,,,,,
,5f6fd1451758e95a989623b2,001,2022-04-28_20h07.45.472,classification_task,2021.2.3,Linux x86_64,60.0024001,5f6fd1451758e95a989623b2,626b377229c10585ec392f89,626b3a3b89cd1f41b54b55a0,,,,,,,,,,,,,,,,,,,,,,,l,1,3.8385,"[""0.117"",""0.507"",""0.644"",""0.677""]","[1,0,1,1]",0,21,21,21,1,1,1,,,0,FALSE,,,,,,,,,,,,,,,,,,,,,,,,,,,,,,
,5f6fd1451758e95a989623b2,001,2022-04-28_20h07.45.472,classification_task,2021.2.3,Linux x86_64,60.0024001,5f6fd1451758e95a989623b2,626b377229c10585ec392f89,626b3a3b89cd1f41b54b55a0,,,,,,,,,,,,,,,,,,,,,,,l,1,1.0514,"[""0.117"",""0.259"",""0.644"",""0.175""]","[1,1,1,0]",0,22,22,22,1,1,1,,,0,FALSE,,,,,,,,,,,,,,,,,,,,,,,,,,,,,,
,5f6fd1451758e95a989623b2,001,2022-04-28_20h07.45.472,classification_task,2021.2.3,Linux x86_64,60.0024001,5f6fd1451758e95a989623b2,626b377229c10585ec392f89,626b3a3b89cd1f41b54b55a0,,,,,,,,,,,,,,,,,,,,,,,a,1,1.0052,"[""0.301"",""0.471"",""0.940"",""0.507""]","[1,1,1,0]",0,23,23,23,1,0,1,,,0,FALSE,,,,,,,,,,,,,,,,,,,,,,,,,,,,,,
,5f6fd1451758e95a989623b2,001,2022-04-28_20h07.45.472,classification_task,2021.2.3,Linux x86_64,60.0024001,5f6fd1451758e95a989623b2,626b377229c10585ec392f89,626b3a3b89cd1f41b54b55a0,,,,,,,,,,,,,,,,,,,,,,,a,1,1.2667,"[""0.518"",""0.471"",""0.940"",""0.974""]","[0,1,1,1]",0,24,24,24,1,0,1,,,0,FALSE,,,,,,,,,,,,,,,,,,,,,,,,,,,,,,
,5f6fd1451758e95a989623b2,001,2022-04-28_20h07.45.472,classification_task,2021.2.3,Linux x86_64,60.0024001,5f6fd1451758e95a989623b2,626b377229c10585ec392f89,626b3a3b89cd1f41b54b55a0,,,,,,,,,,,,,,,,,,,,,,,l,1,1.904,"[""0.067"",""0.408"",""0.553"",""0.025""]","[1,1,1,0]",0,25,25,25,1,1,0,,,0,FALSE,,,,,,,,,,,,,,,,,,,,,,,,,,,,,,
,5f6fd1451758e95a989623b2,001,2022-04-28_20h07.45.472,classification_task,2021.2.3,Linux x86_64,60.0024001,5f6fd1451758e95a989623b2,626b377229c10585ec392f89,626b3a3b89cd1f41b54b55a0,,,,,,,,,,,,,,,,,,,,,,,l,1,1.7145,"[""0.117"",""0.259"",""0.518"",""0.677""]","[1,1,0,1]",0,26,26,26,1,1,1,,,0,FALSE,,,,,,,,,,,,,,,,,,,,,,,,,,,,,,
,5f6fd1451758e95a989623b2,001,2022-04-28_20h07.45.472,classification_task,2021.2.3,Linux x86_64,60.0024001,5f6fd1451758e95a989623b2,626b377229c10585ec392f89,626b3a3b89cd1f41b54b55a0,,,,,,,,,,,,,,,,,,,,,,,a,1,0.9579,"[""0.301"",""0.600"",""0.940"",""0.974""]","[1,0,1,1]",0,27,27,27,1,0,1,,,0,FALSE,,,,,,,,,,,,,,,,,,,,,,,,,,,,,,
,5f6fd1451758e95a989623b2,001,2022-04-28_20h07.45.472,classification_task,2021.2.3,Linux x86_64,60.0024001,5f6fd1451758e95a989623b2,626b377229c10585ec392f89,626b3a3b89cd1f41b54b55a0,,,,,,,,,,,,,,,,,,,,,,,a,1,0.9347,"[""0.301"",""0.471"",""0.792"",""0.974""]","[1,1,0,1]",0,28,28,28,1,0,1,,,0,FALSE,,,,,,,,,,,,,,,,,,,,,,,,,,,,,,
,5f6fd1451758e95a989623b2,001,2022-04-28_20h07.45.472,classification_task,2021.2.3,Linux x86_64,60.0024001,5f6fd1451758e95a989623b2,626b377229c10585ec392f89,626b3a3b89cd1f41b54b55a0,,,,,,,,,,,,,,,,,,,,,,,a,1,2.8244,"[""0.217"",""0.372"",""0.833"",""0.783""]","[1,1,1,0]",0,29,29,29,1,0,0,,,0,FALSE,,,,,,,,,,,,,,,,,,,,,,,,,,,,,,
,5f6fd1451758e95a989623b2,001,2022-04-28_20h07.45.472,classification_task,2021.2.3,Linux x86_64,60.0024001,5f6fd1451758e95a989623b2,626b377229c10585ec392f89,626b3a3b89cd1f41b54b55a0,,,,,,,,,,,,,,,,,,,,,,,a,1,1.4054,"[""0.768"",""0.372"",""0.833"",""0.879""]","[0,1,1,1]",0,30,30,30,1,0,0,,,0,FALSE,,,,,,,,,,,,,,,,,,,,,,,,,,,,,,
,5f6fd1451758e95a989623b2,001,2022-04-28_20h07.45.472,classification_task,2021.2.3,Linux x86_64,60.0024001,5f6fd1451758e95a989623b2,626b377229c10585ec392f89,626b3a3b89cd1f41b54b55a0,,,,,,,,,,,,,,,,,,,,,,,l,1,3.9185,"[""0.783"",""0.259"",""0.644"",""0.677""]","[0,1,1,1]",0,31,31,31,1,1,1,,,0,FALSE,,,,,,,,,,,,,,,,,,,,,,,,,,,,,,
,5f6fd1451758e95a989623b2,001,2022-04-28_20h07.45.472,classification_task,2021.2.3,Linux x86_64,60.0024001,5f6fd1451758e95a989623b2,626b377229c10585ec392f89,626b3a3b89cd1f41b54b55a0,,,,,,,,,,,,,,,,,,,,,,,a,1,1.0372,"[""0.175"",""0.471"",""0.940"",""0.974""]","[0,1,1,1]",0,32,32,32,1,0,1,,,0,FALSE,,,,,,,,,,,,,,,,,,,,,,,,,,,,,,
,5f6fd1451758e95a989623b2,001,2022-04-28_20h07.45.472,classification_task,2021.2.3,Linux x86_64,60.0024001,5f6fd1451758e95a989623b2,626b377229c10585ec392f89,626b3a3b89cd1f41b54b55a0,,,,,,,,,,,,,,,,,,,,,,,a,1,3.249,"[""0.217"",""0.372"",""0.833"",""0.792""]","[1,1,1,0]",0,33,33,33,1,0,0,,,0,FALSE,,,,,,,,,,,,,,,,,,,,,,,,,,,,,,
,5f6fd1451758e95a989623b2,001,2022-04-28_20h07.45.472,classification_task,2021.2.3,Linux x86_64,60.0024001,5f6fd1451758e95a989623b2,626b377229c10585ec392f89,626b3a3b89cd1f41b54b55a0,,,,,,,,,,,,,,,,,,,,,,,l,1,1.1954,"[""0.117"",""0.586"",""0.644"",""0.677""]","[1,0,1,1]",0,34,34,34,1,1,1,,,0,FALSE,,,,,,,,,,,,,,,,,,,,,,,,,,,,,,
,5f6fd1451758e95a989623b2,001,2022-04-28_20h07.45.472,classification_task,2021.2.3,Linux x86_64,60.0024001,5f6fd1451758e95a989623b2,626b377229c10585ec392f89,626b3a3b89cd1f41b54b55a0,,,,,,,,,,,,,,,,,,,,,,,a,1,4.1839,"[""0.301"",""0.471"",""0.940"",""0.783""]","[1,1,1,0]",0,35,35,35,1,0,1,,,0,FALSE,,,,,,,,,,,,,,,,,,,,,,,,,,,,,,
,5f6fd1451758e95a989623b2,001,2022-04-28_20h07.45.472,classification_task,2021.2.3,Linux x86_64,60.0024001,5f6fd1451758e95a989623b2,626b377229c10585ec392f89,626b3a3b89cd1f41b54b55a0,,,,,,,,,,,,,,,,,,,,,,,a,0,2.8216,"[""0.067"",""0.408"",""0.553"",""0.768""]","[1,1,1,0]",0,36,36,36,1,1,0,,,0,FALSE,,,,,,,,,,,,,,,,,,,,,,,,,,,,,,
,5f6fd1451758e95a989623b2,001,2022-04-28_20h07.45.472,classification_task,2021.2.3,Linux x86_64,60.0024001,5f6fd1451758e95a989623b2,626b377229c10585ec392f89,626b3a3b89cd1f41b54b55a0,,,,,,,,,,,,,,,,,,,,,,,l,1,2.0857,"[""0.067"",""0.408"",""0.586"",""0.710""]","[1,1,0,1]",0,37,37,37,1,1,0,,,0,FALSE,,,,,,,,,,,,,,,,,,,,,,,,,,,,,,
,5f6fd1451758e95a989623b2,001,2022-04-28_20h07.45.472,classification_task,2021.2.3,Linux x86_64,60.0024001,5f6fd1451758e95a989623b2,626b377229c10585ec392f89,626b3a3b89cd1f41b54b55a0,,,,,,,,,,,,,,,,,,,,,,,l,1,1.3959,"[""0.067"",""0.175"",""0.553"",""0.710""]","[1,0,1,1]",0,38,38,38,1,1,0,,,0,FALSE,,,,,,,,,,,,,,,,,,,,,,,,,,,,,,
,5f6fd1451758e95a989623b2,001,2022-04-28_20h07.45.472,classification_task,2021.2.3,Linux x86_64,60.0024001,5f6fd1451758e95a989623b2,626b377229c10585ec392f89,626b3a3b89cd1f41b54b55a0,,,,,,,,,,,,,,,,,,,,,,,l,1,6.5357,"[""0.783"",""0.408"",""0.553"",""0.710""]","[0,1,1,1]",0,39,39,39,1,1,0,,,0,FALSE,,,,,,,,,,,,,,,,,,,,,,,,,,,,,,
,5f6fd1451758e95a989623b2,001,2022-04-28_20h07.45.472,classification_task,2021.2.3,Linux x86_64,60.0024001,5f6fd1451758e95a989623b2,626b377229c10585ec392f89,626b3a3b89cd1f41b54b55a0,,,,,,,,,,,,,,,,,,,,,,,a,1,1.1109,"[""0.217"",""0.175"",""0.833"",""0.879""]","[1,0,1,1]",0,40,40,40,1,0,0,,,0,FALSE,,,,,,,,,,,,,,,,,,,,,,,,,,,,,,
,5f6fd1451758e95a989623b2,001,2022-04-28_20h07.45.472,classification_task,2021.2.3,Linux x86_64,60.0024001,5f6fd1451758e95a989623b2,626b377229c10585ec392f89,626b3a3b89cd1f41b54b55a0,,,,,,,,,,,,,,,,,,,,,,,a,1,1.2322,"[""0.768"",""0.372"",""0.833"",""0.879""]","[0,1,1,1]",0,41,41,41,1,0,0,,,0,FALSE,,,,,,,,,,,,,,,,,,,,,,,,,,,,,,
,5f6fd1451758e95a989623b2,001,2022-04-28_20h07.45.472,classification_task,2021.2.3,Linux x86_64,60.0024001,5f6fd1451758e95a989623b2,626b377229c10585ec392f89,626b3a3b89cd1f41b54b55a0,,,,,,,,,,,,,,,,,,,,,,,l,1,1.1996,"[""0.507"",""0.259"",""0.644"",""0.677""]","[0,1,1,1]",0,42,42,42,1,1,1,,,0,FALSE,,,,,,,,,,,,,,,,,,,,,,,,,,,,,,
,5f6fd1451758e95a989623b2,001,2022-04-28_20h07.45.472,classification_task,2021.2.3,Linux x86_64,60.0024001,5f6fd1451758e95a989623b2,626b377229c10585ec392f89,626b3a3b89cd1f41b54b55a0,,,,,,,,,,,,,,,,,,,,,,,a,1,1.7077,"[""0.301"",""0.471"",""0.767"",""0.974""]","[1,1,0,1]",0,43,43,43,1,0,1,,,0,FALSE,,,,,,,,,,,,,,,,,,,,,,,,,,,,,,
,5f6fd1451758e95a989623b2,001,2022-04-28_20h07.45.472,classification_task,2021.2.3,Linux x86_64,60.0024001,5f6fd1451758e95a989623b2,626b377229c10585ec392f89,626b3a3b89cd1f41b54b55a0,,,,,,,,,,,,,,,,,,,,,,,a,1,0.8659,"[""0.301"",""0.783"",""0.940"",""0.974""]","[1,0,1,1]",0,44,44,44,1,0,1,,,0,FALSE,,,,,,,,,,,,,,,,,,,,,,,,,,,,,,
,5f6fd1451758e95a989623b2,001,2022-04-28_20h07.45.472,classification_task,2021.2.3,Linux x86_64,60.0024001,5f6fd1451758e95a989623b2,626b377229c10585ec392f89,626b3a3b89cd1f41b54b55a0,,,,,,,,,,,,,,,,,,,,,,,l,1,1.0039,"[""0.117"",""0.259"",""0.172"",""0.677""]","[1,1,0,1]",0,45,45,45,1,1,1,,,0,FALSE,,,,,,,,,,,,,,,,,,,,,,,,,,,,,,
,5f6fd1451758e95a989623b2,001,2022-04-28_20h07.45.472,classification_task,2021.2.3,Linux x86_64,60.0024001,5f6fd1451758e95a989623b2,626b377229c10585ec392f89,626b3a3b89cd1f41b54b55a0,,,,,,,,,,,,,,,,,,,,,,,l,1,3.5687,"[""0.117"",""0.259"",""0.644"",""0.767""]","[1,1,1,0]",0,46,46,46,1,1,1,,,0,FALSE,,,,,,,,,,,,,,,,,,,,,,,,,,,,,,
,5f6fd1451758e95a989623b2,001,2022-04-28_20h07.45.472,classification_task,2021.2.3,Linux x86_64,60.0024001,5f6fd1451758e95a989623b2,626b377229c10585ec392f89,626b3a3b89cd1f41b54b55a0,,,,,,,,,,,,,,,,,,,,,,,a,1,1.5738,"[""0.217"",""0.372"",""0.600"",""0.879""]","[1,1,0,1]",0,47,47,47,1,0,0,,,0,FALSE,,,,,,,,,,,,,,,,,,,,,,,,,,,,,,
,5f6fd1451758e95a989623b2,001,2022-04-28_20h07.45.472,classification_task,2021.2.3,Linux x86_64,60.0024001,5f6fd1451758e95a989623b2,626b377229c10585ec392f89,626b3a3b89cd1f41b54b55a0,,,,,,,,,,,,,,,,,,,,,,,a,1,1.7531,"[""0.301"",""0.471"",""0.025"",""0.974""]","[1,1,0,1]",0,48,48,48,1,0,1,,,0,FALSE,,,,,,,,,,,,,,,,,,,,,,,,,,,,,,
,5f6fd1451758e95a989623b2,001,2022-04-28_20h07.45.472,classification_task,2021.2.3,Linux x86_64,60.0024001,5f6fd1451758e95a989623b2,626b377229c10585ec392f89,626b3a3b89cd1f41b54b55a0,,,,,,,,,,,,,,,,,,,,,,,a,1,1.7327,"[""0.217"",""0.518"",""0.833"",""0.879""]","[1,0,1,1]",0,49,49,49,1,0,0,,,0,FALSE,,,,,,,,,,,,,,,,,,,,,,,,,,,,,,
,5f6fd1451758e95a989623b2,001,2022-04-28_20h07.45.472,classification_task,2021.2.3,Linux x86_64,60.0024001,5f6fd1451758e95a989623b2,626b377229c10585ec392f89,626b3a3b89cd1f41b54b55a0,,,,,,,,,,,,,,,,,,,,,,,l,1,1.7024,"[""0.117"",""0.259"",""0.600"",""0.677""]","[1,1,0,1]",0,50,50,50,1,1,1,,,0,FALSE,,,,,,,,,,,,,,,,,,,,,,,,,,,,,,
,5f6fd1451758e95a989623b2,001,2022-04-28_20h07.45.472,classification_task,2021.2.3,Linux x86_64,60.0024001,5f6fd1451758e95a989623b2,626b377229c10585ec392f89,626b3a3b89cd1f41b54b55a0,,,,,,,,,,,,,,,,,,,,,,,l,1,3.1663,"[""0.586"",""0.408"",""0.553"",""0.710""]","[0,1,1,1]",0,51,51,51,1,1,0,,,0,FALSE,,,,,,,,,,,,,,,,,,,,,,,,,,,,,,
,5f6fd1451758e95a989623b2,001,2022-04-28_20h07.45.472,classification_task,2021.2.3,Linux x86_64,60.0024001,5f6fd1451758e95a989623b2,626b377229c10585ec392f89,626b3a3b89cd1f41b54b55a0,,,,,,,,,,,,,,,,,,,,,,,a,1,1.2055,"[""0.217"",""0.372"",""0.833"",""0.586""]","[1,1,1,0]",0,52,52,52,1,0,0,,,0,FALSE,,,,,,,,,,,,,,,,,,,,,,,,,,,,,,
,5f6fd1451758e95a989623b2,001,2022-04-28_20h07.45.472,classification_task,2021.2.3,Linux x86_64,60.0024001,5f6fd1451758e95a989623b2,626b377229c10585ec392f89,626b3a3b89cd1f41b54b55a0,,,,,,,,,,,,,,,,,,,,,,,l,1,1.166,"[""0.067"",""0.408"",""0.553"",""0.507""]","[1,1,1,0]",0,53,53,53,1,1,0,,,0,FALSE,,,,,,,,,,,,,,,,,,,,,,,,,,,,,,
,5f6fd1451758e95a989623b2,001,2022-04-28_20h07.45.472,classification_task,2021.2.3,Linux x86_64,60.0024001,5f6fd1451758e95a989623b2,626b377229c10585ec392f89,626b3a3b89cd1f41b54b55a0,,,,,,,,,,,,,,,,,,,,,,,a,1,1.4183,"[""0.301"",""0.471"",""0.940"",""0.518""]","[1,1,1,0]",0,54,54,54,1,0,1,,,0,FALSE,,,,,,,,,,,,,,,,,,,,,,,,,,,,,,
,5f6fd1451758e95a989623b2,001,2022-04-28_20h07.45.472,classification_task,2021.2.3,Linux x86_64,60.0024001,5f6fd1451758e95a989623b2,626b377229c10585ec392f89,626b3a3b89cd1f41b54b55a0,,,,,,,,,,,,,,,,,,,,,,,l,1,3.4877,"[""0.117"",""0.259"",""0.644"",""0.767""]","[1,1,1,0]",0,55,55,55,1,1,1,,,0,FALSE,,,,,,,,,,,,,,,,,,,,,,,,,,,,,,
,5f6fd1451758e95a989623b2,001,2022-04-28_20h07.45.472,classification_task,2021.2.3,Linux x86_64,60.0024001,5f6fd1451758e95a989623b2,626b377229c10585ec392f89,626b3a3b89cd1f41b54b55a0,,,,,,,,,,,,,,,,,,,,,,,l,1,1.0927,"[""0.117"",""0.175"",""0.644"",""0.677""]","[1,0,1,1]",0,56,56,56,1,1,1,,,0,FALSE,,,,,,,,,,,,,,,,,,,,,,,,,,,,,,
,5f6fd1451758e95a989623b2,001,2022-04-28_20h07.45.472,classification_task,2021.2.3,Linux x86_64,60.0024001,5f6fd1451758e95a989623b2,626b377229c10585ec392f89,626b3a3b89cd1f41b54b55a0,,,,,,,,,,,,,,,,,,,,,,,a,1,0.9679,"[""0.175"",""0.471"",""0.940"",""0.974""]","[0,1,1,1]",0,57,57,57,1,0,1,,,0,FALSE,,,,,,,,,,,,,,,,,,,,,,,,,,,,,,
,5f6fd1451758e95a989623b2,001,2022-04-28_20h07.45.472,classification_task,2021.2.3,Linux x86_64,60.0024001,5f6fd1451758e95a989623b2,626b377229c10585ec392f89,626b3a3b89cd1f41b54b55a0,,,,,,,,,,,,,,,,,,,,,,,l,1,1.7861,"[""0.067"",""0.767"",""0.553"",""0.710""]","[1,0,1,1]",0,58,58,58,1,1,0,,,0,FALSE,,,,,,,,,,,,,,,,,,,,,,,,,,,,,,
,5f6fd1451758e95a989623b2,001,2022-04-28_20h07.45.472,classification_task,2021.2.3,Linux x86_64,60.0024001,5f6fd1451758e95a989623b2,626b377229c10585ec392f89,626b3a3b89cd1f41b54b55a0,,,,,,,,,,,,,,,,,,,,,,,a,1,1.5863,"[""0.217"",""0.372"",""0.767"",""0.879""]","[1,1,0,1]",0,59,59,59,1,0,0,,,0,FALSE,,,,,,,,,,,,,,,,,,,,,,,,,,,,,,
,5f6fd1451758e95a989623b2,001,2022-04-28_20h07.45.472,classification_task,2021.2.3,Linux x86_64,60.0024001,5f6fd1451758e95a989623b2,626b377229c10585ec392f89,626b3a3b89cd1f41b54b55a0,,,,,,,,,,,,,,,,,,,,,,,l,1,1.1659,"[""0.067"",""0.408"",""0.172"",""0.710""]","[1,1,0,1]",0,60,60,60,1,1,0,,,0,FALSE,,,,,,,,,,,,,,,,,,,,,,,,,,,,,,
,5f6fd1451758e95a989623b2,001,2022-04-28_20h07.45.472,classification_task,2021.2.3,Linux x86_64,60.0024001,5f6fd1451758e95a989623b2,626b377229c10585ec392f89,626b3a3b89cd1f41b54b55a0,,,,,,,,,,,,,,,,,,,,,,,l,1,1.1198,"[""0.025"",""0.259"",""0.644"",""0.677""]","[0,1,1,1]",0,61,61,61,1,1,1,,,0,FALSE,,,,,,,,,,,,,,,,,,,,,,,,,,,,,,
,5f6fd1451758e95a989623b2,001,2022-04-28_20h07.45.472,classification_task,2021.2.3,Linux x86_64,60.0024001,5f6fd1451758e95a989623b2,626b377229c10585ec392f89,626b3a3b89cd1f41b54b55a0,,,,,,,,,,,,,,,,,,,,,,,a,1,0.8864,"[""0.301"",""0.767"",""0.940"",""0.974""]","[1,0,1,1]",0,62,62,62,1,0,1,,,0,FALSE,,,,,,,,,,,,,,,,,,,,,,,,,,,,,,
,5f6fd1451758e95a989623b2,001,2022-04-28_20h07.45.472,classification_task,2021.2.3,Linux x86_64,60.0024001,5f6fd1451758e95a989623b2,626b377229c10585ec392f89,626b3a3b89cd1f41b54b55a0,,,,,,,,,,,,,,,,,,,,,,,a,1,1.3769,"[""0.792"",""0.372"",""0.833"",""0.879""]","[0,1,1,1]",0,63,63,63,1,0,0,,,0,FALSE,,,,,,,,,,,,,,,,,,,,,,,,,,,,,,
,5f6fd1451758e95a989623b2,001,2022-04-28_20h07.45.472,classification_task,2021.2.3,Linux x86_64,60.0024001,5f6fd1451758e95a989623b2,626b377229c10585ec392f89,626b3a3b89cd1f41b54b55a0,,,,,,,,,,,,,,,,,,,,,,,,,,,,,,,,,,,,,,,0, ,,0,10,258.3702,0,2,2,2,1,2,3,,,,,,,,,,,,,,,,,
,5f6fd1451758e95a989623b2,001,2022-04-28_20h07.45.472,classification_task,2021.2.3,Linux x86_64,60.0024001,5f6fd1451758e95a989623b2,626b377229c10585ec392f89,626b3a3b89cd1f41b54b55a0,,,,,,,,,,,,,,,,,,,,,,,,,,,,,,,,,,,,,,,1,  ,,0,10,259.8108,0,2,2,2,1,2,3,,,,,,,,,,,,,,,,,
,5f6fd1451758e95a989623b2,001,2022-04-28_20h07.45.472,classification_task,2021.2.3,Linux x86_64,60.0024001,5f6fd1451758e95a989623b2,626b377229c10585ec392f89,626b3a3b89cd1f41b54b55a0,,,,,,,,,,,,,,,,,,,,,,,,,,,,,,,,,,,,,,,2,  ,,0,10,261.4946,0,2,2,2,1,2,3,,,,,,,,,,,,,,,,,
,5f6fd1451758e95a989623b2,001,2022-04-28_20h07.45.472,classification_task,2021.2.3,Linux x86_64,60.0024001,5f6fd1451758e95a989623b2,626b377229c10585ec392f89,626b3a3b89cd1f41b54b55a0,,,,,,,,,,,,,,,,,,,,,,,,,,,,,,,,,,,,,,,,,,,,,0,2,2,2,1,,3,,,,,,,,,,,,,,,,,
,5f6fd1451758e95a989623b2,001,2022-04-28_20h07.45.472,classification_task,2021.2.3,Linux x86_64,60.0024001,5f6fd1451758e95a989623b2,626b377229c10585ec392f89,626b3a3b89cd1f41b54b55a0,,,,,,,,,,,,,,,,,,,,,,,,,,,,,,,,,,,,,,,,,,,,,,,,,,,,,I believe the aid is a competent performer,,0.7,0,5,952.3176,0,0,0,0,1,0,,,,
,5f6fd1451758e95a989623b2,001,2022-04-28_20h07.45.472,classification_task,2021.2.3,Linux x86_64,60.0024001,5f6fd1451758e95a989623b2,626b377229c10585ec392f89,626b3a3b89cd1f41b54b55a0,,,,,,,,,,,,,,,,,,,,,,,,,,,,,,,,,,,,,,,,,,,,,,,,,,,,,I trust the aid,,0.7,0,5,953.9702,0,0,0,0,1,0,,,,
,5f6fd1451758e95a989623b2,001,2022-04-28_20h07.45.472,classification_task,2021.2.3,Linux x86_64,60.0024001,5f6fd1451758e95a989623b2,626b377229c10585ec392f89,626b3a3b89cd1f41b54b55a0,,,,,,,,,,,,,,,,,,,,,,,,,,,,,,,,,,,,,,,,,,,,,,,,,,,,,I have confidence in the advice given by the aid,,0.7,0,5,955.7505,0,0,0,0,1,0,,,,
,5f6fd1451758e95a989623b2,001,2022-04-28_20h07.45.472,classification_task,2021.2.3,Linux x86_64,60.0024001,5f6fd1451758e95a989623b2,626b377229c10585ec392f89,626b3a3b89cd1f41b54b55a0,,,,,,,,,,,,,,,,,,,,,,,,,,,,,,,,,,,,,,,,,,,,,,,,,,,,,I can depend on the aid,,0.7,0,5,957.1166,0,0,0,0,1,0,,,,
,5f6fd1451758e95a989623b2,001,2022-04-28_20h07.45.472,classification_task,2021.2.3,Linux x86_64,60.0024001,5f6fd1451758e95a989623b2,626b377229c10585ec392f89,626b3a3b89cd1f41b54b55a0,,,,,,,,,,,,,,,,,,,,,,,,,,,,,,,,,,,,,,,,,,,,,,,,,,,,,I can rely on the aid to behave in consistent ways,,0.7,0,5,958.8912,0,0,0,0,1,0,,,,
,5f6fd1451758e95a989623b2,001,2022-04-28_20h07.45.472,classification_task,2021.2.3,Linux x86_64,60.0024001,5f6fd1451758e95a989623b2,626b377229c10585ec392f89,626b3a3b89cd1f41b54b55a0,,,,,,,,,,,,,,,,,,,,,,,,,,,,,,,,,,,,,,,,,,,,,,,,,,,,,I can rely on the aid to do its best every time I take its advice,,0.7,0,5,960.2002,0,0,0,0,1,0,,,,
,5f6fd1451758e95a989623b2,001,2022-04-28_20h07.45.472,classification_task,2021.2.3,Linux x86_64,60.0024001,5f6fd1451758e95a989623b2,626b377229c10585ec392f89,626b3a3b89cd1f41b54b55a0,,,,,,,,,,,,,,,,,,,,,,,,,,,,,,,,,,,,,,,,,,,,,,,,,,,,,"On trials you completed with assistance from the aid, how frequently did you think the aid was correct?",,0.7,0,100,,0,0,0,0,1,0,,,,
,5f6fd1451758e95a989623b2,001,2022-04-28_20h07.45.472,classification_task,2021.2.3,Linux x86_64,60.0024001,5f6fd1451758e95a989623b2,626b377229c10585ec392f89,626b3a3b89cd1f41b54b55a0,,,,,,,,,,,,,,,,,,,,,,,,,,,,,,,,,,,,,,,,,,,,,,,,,,,,,"On trials you completed without the aid, how frequently did you think you were correct?",,0.7,0,80,,0,0,0,0,1,0,,,,
,5f6fd1451758e95a989623b2,001,2022-04-28_20h07.45.472,classification_task,2021.2.3,Linux x86_64,60.0024001,5f6fd1451758e95a989623b2,626b377229c10585ec392f89,626b3a3b89cd1f41b54b55a0,,,,,,,,,,,,,,,,,,,,,,,,,,,,,,,,,,,,,,,,,,,,,,,,,,,,,,,,,,,0,0,0,0,1,,,,,
,5f6fd1451758e95a989623b2,001,2022-04-28_20h07.45.472,classification_task,2021.2.3,Linux x86_64,60.0024001,5f6fd1451758e95a989623b2,626b377229c10585ec392f89,626b3a3b89cd1f41b54b55a0,,,,,,,,,,,,,,,,,,,,,,,,,,,,,,,,,,,,,,,,,,,,,,,,,,,,,,,,,,,,,,,,,space,12.1277,992.7951,
,5f6fd1451758e95a989623b2,001,2022-04-28_20h07.45.472,classification_task,2021.2.3,Linux x86_64,60.0024001,5f6fd1451758e95a989623b2,626b377229c10585ec392f89,626b3a3b89cd1f41b54b55a0,,,,,,,,,,,,,,,,,,,,,,,,,,,,,,,,,,,,,,,,,,,,,,,,,,,,,,,,,,,,,,,,,,,,"Mozilla/5.0 (X11; CrOS x86_64 14526.89.0) AppleWebKit/537.36 (KHTML, like Gecko) Chrome/100.0.4896.133 Safari/537.36"
