usingWebGL,participant,session,date,expName,psychopyVersion,OS,frameRate,study_id,signatures_friend,signatures_foe,band_ranges_top,band_ranges_bottom,formitemText,formtype,formundefined,formitemWidth,formindex,formresponse,formrt,key_resp_2.keys,key_resp_2.rt,tute_resp.keys,tute_resp.rt,tutorial.thisRepN,tutorial.thisTrialN,tutorial.thisN,tutorial.thisIndex,tutorial.ran,key_resp_4.keys,key_resp_4.rt,key_resp.keys,key_resp.corr,lines_presented,is_signal_presented,trials.thisRepN,trials.thisTrialN,trials.thisN,trials.thisIndex,trials.ran,vessel,active_band,lines,is_signal,supported_pos,catch_trial,key_resp.rt,debrief_formindex,debrief_formitemText,debrief_formtype,debrief_formitemWidth,debrief_formresponse,debrief_formrt,phases.thisRepN,phases.thisTrialN,phases.thisN,phases.thisIndex,phases.ran,phases.order,phase,key_resp_3.keys,trustitemText,trusttype,trustitemWidth,trustindex,trustresponse,trustrt,support_status.thisRepN,support_status.thisTrialN,support_status.thisN,support_status.thisIndex,support_status.ran,support_status.order,key_resp_5.keys,key_resp_5.rt,globalClockTime,userAgent,manualCondition
TRUE,5f7229ef1f8432123d3df17d,627c78f9a5ba515e5d7a3b9d,2022-05-12_05h04.24.795,classification_task,2021.2.3,Win32,60.17933442,627c6715c52fd12f31907bd0,,,,,,,,,,,,,,,,,,,,,,,,,,,,,,,,,,,,,,,,,,,,,,,,,,,,,,,,,,,,,,,,,,,,,
,5f7229ef1f8432123d3df17d,627c78f9a5ba515e5d7a3b9d,2022-05-12_05h04.24.795,classification_task,2021.2.3,Win32,60.17933442,627c6715c52fd12f31907bd0,"[[""0.269"",""0.398"",""0.907"",""0.964""],[""0.170"",""0.437"",""0.838"",""0.872""]]","[[""0.098"",""0.230"",""0.508"",""0.782""],[""0.025"",""0.306"",""0.576"",""0.739""]]","[1,10]","[100,1000]",Video game experience,,,0.7,0,,,,,,,,,,,,,,,,,,,,,,,,,,,,,,,,,,,,,,,,,,,,,,,,,,,,,,,,,,,,
,5f7229ef1f8432123d3df17d,627c78f9a5ba515e5d7a3b9d,2022-05-12_05h04.24.795,classification_task,2021.2.3,Win32,60.17933442,627c6715c52fd12f31907bd0,,,,,Approximately how many hours did you spend playing video games in the last week?,,,0.7,0,0,,,,,,,,,,,,,,,,,,,,,,,,,,,,,,,,,,,,,,,,,,,,,,,,,,,,,,,,,,,
,5f7229ef1f8432123d3df17d,627c78f9a5ba515e5d7a3b9d,2022-05-12_05h04.24.795,classification_task,2021.2.3,Win32,60.17933442,627c6715c52fd12f31907bd0,,,,,"Which game did you play the most this year? (Enter ""None"" if you didn't play any)",,,0.7,0,Life is strange,,,,,,,,,,,,,,,,,,,,,,,,,,,,,,,,,,,,,,,,,,,,,,,,,,,,,,,,,,,
,5f7229ef1f8432123d3df17d,627c78f9a5ba515e5d7a3b9d,2022-05-12_05h04.24.795,classification_task,2021.2.3,Win32,60.17933442,627c6715c52fd12f31907bd0,,,,,Visual perception,,,0.7,0,,,,,,,,,,,,,,,,,,,,,,,,,,,,,,,,,,,,,,,,,,,,,,,,,,,,,,,,,,,,
,5f7229ef1f8432123d3df17d,627c78f9a5ba515e5d7a3b9d,2022-05-12_05h04.24.795,classification_task,2021.2.3,Win32,60.17933442,627c6715c52fd12f31907bd0,,,,,Do you have any form of color blindness?,,,0.7,0,No,23.0373,,,,,,,,,,,,,,,,,,,,,,,,,,,,,,,,,,,,,,,,,,,,,,,,,,,,,,,,,,
,5f7229ef1f8432123d3df17d,627c78f9a5ba515e5d7a3b9d,2022-05-12_05h04.24.795,classification_task,2021.2.3,Win32,60.17933442,627c6715c52fd12f31907bd0,,,,,Do you use software to change the colour temperature of your screen (e.g. f.lux)?,,,0.7,0,Yes,31.5354,,,,,,,,,,,,,,,,,,,,,,,,,,,,,,,,,,,,,,,,,,,,,,,,,,,,,,,,,,
,5f7229ef1f8432123d3df17d,627c78f9a5ba515e5d7a3b9d,2022-05-12_05h04.24.795,classification_task,2021.2.3,Win32,60.17933442,627c6715c52fd12f31907bd0,,,,,,,,,,,,space,69.4711,space,10.6244,0,0,0,0,1,,,,,,,,,,,,,,,,,,,,,,,,,,,,,,,,,,,,,,,,,,,,,,,,,
,5f7229ef1f8432123d3df17d,627c78f9a5ba515e5d7a3b9d,2022-05-12_05h04.24.795,classification_task,2021.2.3,Win32,60.17933442,627c6715c52fd12f31907bd0,,,,,,,,,,,,,,space,21.8823,1,0,1,0,1,,,,,,,,,,,,,,,,,,,,,,,,,,,,,,,,,,,,,,,,,,,,,,,,,
,5f7229ef1f8432123d3df17d,627c78f9a5ba515e5d7a3b9d,2022-05-12_05h04.24.795,classification_task,2021.2.3,Win32,60.17933442,627c6715c52fd12f31907bd0,,,,,,,,,,,,,,space,61.4656,2,0,2,0,1,,,,,,,,,,,,,,,,,,,,,,,,,,,,,,,,,,,,,,,,,,,,,,,,,
,5f7229ef1f8432123d3df17d,627c78f9a5ba515e5d7a3b9d,2022-05-12_05h04.24.795,classification_task,2021.2.3,Win32,60.17933442,627c6715c52fd12f31907bd0,,,,,,,,,,,,,,space,9.4251,3,0,3,0,1,,,,,,,,,,,,,,,,,,,,,,,,,,,,,,,,,,,,,,,,,,,,,,,,,
,5f7229ef1f8432123d3df17d,627c78f9a5ba515e5d7a3b9d,2022-05-12_05h04.24.795,classification_task,2021.2.3,Win32,60.17933442,627c6715c52fd12f31907bd0,,,,,,,,,,,,,,space,111.2419,4,0,4,0,1,,,,,,,,,,,,,,,,,,,,,,,,,,,,,,,,,,,,,,,,,,,,,,,,,
,5f7229ef1f8432123d3df17d,627c78f9a5ba515e5d7a3b9d,2022-05-12_05h04.24.795,classification_task,2021.2.3,Win32,60.17933442,627c6715c52fd12f31907bd0,,,,,,,,,,,,,,,,,,,,,space,29.6407,,0,"[""0.098"",""0.230"",""0.634"",""0.782""]","[1,1,0,1]",0,0,0,0,1,1,0,,,0,FALSE,,,,,,,,,,,,,,,,,,,,,,,,,,,,,,,,
,5f7229ef1f8432123d3df17d,627c78f9a5ba515e5d7a3b9d,2022-05-12_05h04.24.795,classification_task,2021.2.3,Win32,60.17933442,627c6715c52fd12f31907bd0,,,,,,,,,,,,,,,,,,,,,,,l,0,"[""0.060"",""0.398"",""0.907"",""0.964""]","[0,1,1,1]",0,1,1,1,1,0,0,,,0,FALSE,0.499,,,,,,,,,,,,,,,,,,,,,,,,,,,,,,,
,5f7229ef1f8432123d3df17d,627c78f9a5ba515e5d7a3b9d,2022-05-12_05h04.24.795,classification_task,2021.2.3,Win32,60.17933442,627c6715c52fd12f31907bd0,,,,,,,,,,,,,,,,,,,,,,,l,1,"[""0.025"",""0.701"",""0.576"",""0.739""]","[1,0,1,1]",0,2,2,2,1,1,1,,,0,FALSE,3.8952,,,,,,,,,,,,,,,,,,,,,,,,,,,,,,,
,5f7229ef1f8432123d3df17d,627c78f9a5ba515e5d7a3b9d,2022-05-12_05h04.24.795,classification_task,2021.2.3,Win32,60.17933442,627c6715c52fd12f31907bd0,,,,,,,,,,,,,,,,,,,,,,,a,1,"[""0.269"",""0.398"",""0.907"",""0.634""]","[1,1,1,0]",0,3,3,3,1,0,0,,,0,FALSE,3.6134,,,,,,,,,,,,,,,,,,,,,,,,,,,,,,,
,5f7229ef1f8432123d3df17d,627c78f9a5ba515e5d7a3b9d,2022-05-12_05h04.24.795,classification_task,2021.2.3,Win32,60.17933442,627c6715c52fd12f31907bd0,,,,,,,,,,,,,,,,,,,,,,,l,1,"[""0.025"",""0.306"",""0.576"",""0.689""]","[1,1,1,0]",0,4,4,4,1,1,1,,,0,FALSE,4.3287,,,,,,,,,,,,,,,,,,,,,,,,,,,,,,,
,5f7229ef1f8432123d3df17d,627c78f9a5ba515e5d7a3b9d,2022-05-12_05h04.24.795,classification_task,2021.2.3,Win32,60.17933442,627c6715c52fd12f31907bd0,,,,,,,,,,,,,,,,,,,,,,,l,1,"[""0.025"",""0.306"",""0.625"",""0.739""]","[1,1,0,1]",0,5,5,5,1,1,1,,,0,FALSE,2.4979,,,,,,,,,,,,,,,,,,,,,,,,,,,,,,,
,5f7229ef1f8432123d3df17d,627c78f9a5ba515e5d7a3b9d,2022-05-12_05h04.24.795,classification_task,2021.2.3,Win32,60.17933442,627c6715c52fd12f31907bd0,,,,,,,,,,,,,,,,,,,,,,,a,1,"[""0.269"",""0.398"",""0.699"",""0.964""]","[1,1,0,1]",0,6,6,6,1,0,0,,,0,FALSE,4.4123,,,,,,,,,,,,,,,,,,,,,,,,,,,,,,,
,5f7229ef1f8432123d3df17d,627c78f9a5ba515e5d7a3b9d,2022-05-12_05h04.24.795,classification_task,2021.2.3,Win32,60.17933442,627c6715c52fd12f31907bd0,,,,,,,,,,,,,,,,,,,,,,,l,1,"[""0.098"",""0.699"",""0.508"",""0.782""]","[1,0,1,1]",0,7,7,7,1,1,0,,,0,FALSE,3.7473,,,,,,,,,,,,,,,,,,,,,,,,,,,,,,,
,5f7229ef1f8432123d3df17d,627c78f9a5ba515e5d7a3b9d,2022-05-12_05h04.24.795,classification_task,2021.2.3,Win32,60.17933442,627c6715c52fd12f31907bd0,,,,,,,,,,,,,,,,,,,,,,,a,1,"[""0.269"",""0.678"",""0.907"",""0.964""]","[1,0,1,1]",0,8,8,8,1,0,0,,,0,FALSE,3.0807,,,,,,,,,,,,,,,,,,,,,,,,,,,,,,,
,5f7229ef1f8432123d3df17d,627c78f9a5ba515e5d7a3b9d,2022-05-12_05h04.24.795,classification_task,2021.2.3,Win32,60.17933442,627c6715c52fd12f31907bd0,,,,,,,,,,,,,,,,,,,,,,,a,1,"[""0.170"",""0.437"",""0.701"",""0.872""]","[1,1,0,1]",0,9,9,9,1,0,1,,,0,FALSE,5.3615,,,,,,,,,,,,,,,,,,,,,,,,,,,,,,,
,5f7229ef1f8432123d3df17d,627c78f9a5ba515e5d7a3b9d,2022-05-12_05h04.24.795,classification_task,2021.2.3,Win32,60.17933442,627c6715c52fd12f31907bd0,,,,,,,,,,,,,,,,,,,,,,,a,1,"[""0.170"",""0.437"",""0.838"",""0.648""]","[1,1,1,0]",0,10,10,10,1,0,1,,,0,FALSE,4.3797,,,,,,,,,,,,,,,,,,,,,,,,,,,,,,,
,5f7229ef1f8432123d3df17d,627c78f9a5ba515e5d7a3b9d,2022-05-12_05h04.24.795,classification_task,2021.2.3,Win32,60.17933442,627c6715c52fd12f31907bd0,,,,,,,,,,,,,,,,,,,,,,,,0,"[""0.657"",""0.230"",""0.508"",""0.782""]","[0,1,1,1]",0,11,11,11,1,1,0,,,0,FALSE,,,,,,,,,,,,,,,,,,,,,,,,,,,,,,,,
,5f7229ef1f8432123d3df17d,627c78f9a5ba515e5d7a3b9d,2022-05-12_05h04.24.795,classification_task,2021.2.3,Win32,60.17933442,627c6715c52fd12f31907bd0,,,,,,,,,,,,,,,,,,,,,,,a,1,"[""0.170"",""0.657"",""0.838"",""0.872""]","[1,0,1,1]",0,12,12,12,1,0,1,,,0,FALSE,6.0269,,,,,,,,,,,,,,,,,,,,,,,,,,,,,,,
,5f7229ef1f8432123d3df17d,627c78f9a5ba515e5d7a3b9d,2022-05-12_05h04.24.795,classification_task,2021.2.3,Win32,60.17933442,627c6715c52fd12f31907bd0,,,,,,,,,,,,,,,,,,,,,,,,0,"[""0.098"",""0.230"",""0.508"",""0.060""]","[1,1,1,0]",0,13,13,13,1,1,0,,,0,FALSE,,,,,,,,,,,,,,,,,,,,,,,,,,,,,,,,
,5f7229ef1f8432123d3df17d,627c78f9a5ba515e5d7a3b9d,2022-05-12_05h04.24.795,classification_task,2021.2.3,Win32,60.17933442,627c6715c52fd12f31907bd0,,,,,,,,,,,,,,,,,,,,,,,l,0,"[""0.697"",""0.437"",""0.838"",""0.872""]","[0,1,1,1]",0,14,14,14,1,0,1,,,0,FALSE,8.1923,,,,,,,,,,,,,,,,,,,,,,,,,,,,,,,
,5f7229ef1f8432123d3df17d,627c78f9a5ba515e5d7a3b9d,2022-05-12_05h04.24.795,classification_task,2021.2.3,Win32,60.17933442,627c6715c52fd12f31907bd0,,,,,,,,,,,,,,,,,,,,,,,l,1,"[""0.625"",""0.306"",""0.576"",""0.739""]","[0,1,1,1]",0,15,15,15,1,1,1,,,0,FALSE,4.9457,,,,,,,,,,,,,,,,,,,,,,,,,,,,,,,
,5f7229ef1f8432123d3df17d,627c78f9a5ba515e5d7a3b9d,2022-05-12_05h04.24.795,classification_task,2021.2.3,Win32,60.17933442,627c6715c52fd12f31907bd0,,,,,,,,,,,,,,,,,,,,,,,l,1,"[""0.025"",""0.306"",""0.632"",""0.739""]","[1,1,0,1]",0,16,16,16,1,1,1,,,0,FALSE,8.7432,,,,,,,,,,,,,,,,,,,,,,,,,,,,,,,
,5f7229ef1f8432123d3df17d,627c78f9a5ba515e5d7a3b9d,2022-05-12_05h04.24.795,classification_task,2021.2.3,Win32,60.17933442,627c6715c52fd12f31907bd0,,,,,,,,,,,,,,,,,,,,,,,l,0,"[""0.269"",""0.060"",""0.907"",""0.964""]","[1,0,1,1]",0,17,17,17,1,0,0,,,0,FALSE,4.7955,,,,,,,,,,,,,,,,,,,,,,,,,,,,,,,
,5f7229ef1f8432123d3df17d,627c78f9a5ba515e5d7a3b9d,2022-05-12_05h04.24.795,classification_task,2021.2.3,Win32,60.17933442,627c6715c52fd12f31907bd0,,,,,,,,,,,,,,,,,,,,,,,l,1,"[""0.098"",""0.230"",""0.508"",""0.699""]","[1,1,1,0]",0,18,18,18,1,1,0,,,0,FALSE,7.0105,,,,,,,,,,,,,,,,,,,,,,,,,,,,,,,
,5f7229ef1f8432123d3df17d,627c78f9a5ba515e5d7a3b9d,2022-05-12_05h04.24.795,classification_task,2021.2.3,Win32,60.17933442,627c6715c52fd12f31907bd0,,,,,,,,,,,,,,,,,,,,,,,l,1,"[""0.699"",""0.230"",""0.508"",""0.782""]","[0,1,1,1]",0,19,19,19,1,1,0,,,0,FALSE,6.1632,,,,,,,,,,,,,,,,,,,,,,,,,,,,,,,
,5f7229ef1f8432123d3df17d,627c78f9a5ba515e5d7a3b9d,2022-05-12_05h04.24.795,classification_task,2021.2.3,Win32,60.17933442,627c6715c52fd12f31907bd0,,,,,,,,,,,,,,,,,,,,,,,l,0,"[""0.060"",""0.398"",""0.907"",""0.964""]","[0,1,1,1]",0,20,20,20,1,0,0,,,0,FALSE,5.9956,,,,,,,,,,,,,,,,,,,,,,,,,,,,,,,
,5f7229ef1f8432123d3df17d,627c78f9a5ba515e5d7a3b9d,2022-05-12_05h04.24.795,classification_task,2021.2.3,Win32,60.17933442,627c6715c52fd12f31907bd0,,,,,,,,,,,,,,,,,,,,,,,a,1,"[""0.170"",""0.642"",""0.838"",""0.872""]","[1,0,1,1]",0,21,21,21,1,0,1,,,0,FALSE,6.0109,,,,,,,,,,,,,,,,,,,,,,,,,,,,,,,
,5f7229ef1f8432123d3df17d,627c78f9a5ba515e5d7a3b9d,2022-05-12_05h04.24.795,classification_task,2021.2.3,Win32,60.17933442,627c6715c52fd12f31907bd0,,,,,,,,,,,,,,,,,,,,,,,l,1,"[""0.025"",""0.648"",""0.576"",""0.739""]","[1,0,1,1]",0,22,22,22,1,1,1,,,0,FALSE,2.8814,,,,,,,,,,,,,,,,,,,,,,,,,,,,,,,
,5f7229ef1f8432123d3df17d,627c78f9a5ba515e5d7a3b9d,2022-05-12_05h04.24.795,classification_task,2021.2.3,Win32,60.17933442,627c6715c52fd12f31907bd0,,,,,,,,,,,,,,,,,,,,,,,l,1,"[""0.098"",""0.634"",""0.508"",""0.782""]","[1,0,1,1]",0,23,23,23,1,1,0,,,0,FALSE,3.1306,,,,,,,,,,,,,,,,,,,,,,,,,,,,,,,
,5f7229ef1f8432123d3df17d,627c78f9a5ba515e5d7a3b9d,2022-05-12_05h04.24.795,classification_task,2021.2.3,Win32,60.17933442,627c6715c52fd12f31907bd0,,,,,,,,,,,,,,,,,,,,,,,l,1,"[""0.098"",""0.230"",""0.625"",""0.782""]","[1,1,0,1]",0,24,24,24,1,1,0,,,0,FALSE,3.7136,,,,,,,,,,,,,,,,,,,,,,,,,,,,,,,
,5f7229ef1f8432123d3df17d,627c78f9a5ba515e5d7a3b9d,2022-05-12_05h04.24.795,classification_task,2021.2.3,Win32,60.17933442,627c6715c52fd12f31907bd0,,,,,,,,,,,,,,,,,,,,,,,a,1,"[""0.269"",""0.398"",""0.907"",""0.648""]","[1,1,1,0]",0,25,25,25,1,0,0,,,0,FALSE,2.9308,,,,,,,,,,,,,,,,,,,,,,,,,,,,,,,
,5f7229ef1f8432123d3df17d,627c78f9a5ba515e5d7a3b9d,2022-05-12_05h04.24.795,classification_task,2021.2.3,Win32,60.17933442,627c6715c52fd12f31907bd0,,,,,,,,,,,,,,,,,,,,,,,l,1,"[""0.699"",""0.306"",""0.576"",""0.739""]","[0,1,1,1]",0,26,26,26,1,1,1,,,0,FALSE,5.4279,,,,,,,,,,,,,,,,,,,,,,,,,,,,,,,
,5f7229ef1f8432123d3df17d,627c78f9a5ba515e5d7a3b9d,2022-05-12_05h04.24.795,classification_task,2021.2.3,Win32,60.17933442,627c6715c52fd12f31907bd0,,,,,,,,,,,,,,,,,,,,,,,l,0,"[""0.343"",""0.437"",""0.838"",""0.872""]","[0,1,1,1]",0,27,27,27,1,0,1,,,0,FALSE,3.7307,,,,,,,,,,,,,,,,,,,,,,,,,,,,,,,
,5f7229ef1f8432123d3df17d,627c78f9a5ba515e5d7a3b9d,2022-05-12_05h04.24.795,classification_task,2021.2.3,Win32,60.17933442,627c6715c52fd12f31907bd0,,,,,,,,,,,,,,,,,,,,,,,a,1,"[""0.269"",""0.398"",""0.343"",""0.964""]","[1,1,0,1]",0,28,28,28,1,0,0,,,0,FALSE,4.3788,,,,,,,,,,,,,,,,,,,,,,,,,,,,,,,
,5f7229ef1f8432123d3df17d,627c78f9a5ba515e5d7a3b9d,2022-05-12_05h04.24.795,classification_task,2021.2.3,Win32,60.17933442,627c6715c52fd12f31907bd0,,,,,,,,,,,,,,,,,,,,,,,l,0,"[""0.170"",""0.437"",""0.060"",""0.872""]","[1,1,0,1]",0,29,29,29,1,0,1,,,0,FALSE,3.2964,,,,,,,,,,,,,,,,,,,,,,,,,,,,,,,
,5f7229ef1f8432123d3df17d,627c78f9a5ba515e5d7a3b9d,2022-05-12_05h04.24.795,classification_task,2021.2.3,Win32,60.17933442,627c6715c52fd12f31907bd0,,,,,,,,,,,,,,,,,,,,,,,a,1,"[""0.170"",""0.437"",""0.838"",""0.648""]","[1,1,1,0]",0,30,30,30,1,0,1,,,0,FALSE,4.3627,,,,,,,,,,,,,,,,,,,,,,,,,,,,,,,
,5f7229ef1f8432123d3df17d,627c78f9a5ba515e5d7a3b9d,2022-05-12_05h04.24.795,classification_task,2021.2.3,Win32,60.17933442,627c6715c52fd12f31907bd0,,,,,,,,,,,,,,,,,,,,,,,l,1,"[""0.025"",""0.306"",""0.576"",""0.648""]","[1,1,1,0]",0,31,31,31,1,1,1,,,0,FALSE,4.3961,,,,,,,,,,,,,,,,,,,,,,,,,,,,,,,
,5f7229ef1f8432123d3df17d,627c78f9a5ba515e5d7a3b9d,2022-05-12_05h04.24.795,classification_task,2021.2.3,Win32,60.17933442,627c6715c52fd12f31907bd0,,,,,,,,,,,,,,,,,,,,,,,l,0,"[""0.170"",""0.437"",""0.632"",""0.872""]","[1,1,0,1]",0,32,32,32,1,0,1,,,0,FALSE,5.478,,,,,,,,,,,,,,,,,,,,,,,,,,,,,,,
,5f7229ef1f8432123d3df17d,627c78f9a5ba515e5d7a3b9d,2022-05-12_05h04.24.795,classification_task,2021.2.3,Win32,60.17933442,627c6715c52fd12f31907bd0,,,,,,,,,,,,,,,,,,,,,,,a,0,"[""0.098"",""0.230"",""0.508"",""0.632""]","[1,1,1,0]",0,33,33,33,1,1,0,,,0,FALSE,3.68,,,,,,,,,,,,,,,,,,,,,,,,,,,,,,,
,5f7229ef1f8432123d3df17d,627c78f9a5ba515e5d7a3b9d,2022-05-12_05h04.24.795,classification_task,2021.2.3,Win32,60.17933442,627c6715c52fd12f31907bd0,,,,,,,,,,,,,,,,,,,,,,,a,1,"[""0.170"",""0.634"",""0.838"",""0.872""]","[1,0,1,1]",0,34,34,34,1,0,1,,,0,FALSE,1.8648,,,,,,,,,,,,,,,,,,,,,,,,,,,,,,,
,5f7229ef1f8432123d3df17d,627c78f9a5ba515e5d7a3b9d,2022-05-12_05h04.24.795,classification_task,2021.2.3,Win32,60.17933442,627c6715c52fd12f31907bd0,,,,,,,,,,,,,,,,,,,,,,,l,1,"[""0.098"",""0.648"",""0.508"",""0.782""]","[1,0,1,1]",0,35,35,35,1,1,0,,,0,FALSE,1.0979,,,,,,,,,,,,,,,,,,,,,,,,,,,,,,,
,5f7229ef1f8432123d3df17d,627c78f9a5ba515e5d7a3b9d,2022-05-12_05h04.24.795,classification_task,2021.2.3,Win32,60.17933442,627c6715c52fd12f31907bd0,,,,,,,,,,,,,,,,,,,,,,,l,0,"[""0.269"",""0.398"",""0.648"",""0.964""]","[1,1,0,1]",0,36,36,36,1,0,0,,,0,FALSE,0.8483,,,,,,,,,,,,,,,,,,,,,,,,,,,,,,,
,5f7229ef1f8432123d3df17d,627c78f9a5ba515e5d7a3b9d,2022-05-12_05h04.24.795,classification_task,2021.2.3,Win32,60.17933442,627c6715c52fd12f31907bd0,,,,,,,,,,,,,,,,,,,,,,,a,0,"[""0.343"",""0.306"",""0.576"",""0.739""]","[0,1,1,1]",0,37,37,37,1,1,1,,,0,FALSE,1.3316,,,,,,,,,,,,,,,,,,,,,,,,,,,,,,,
,5f7229ef1f8432123d3df17d,627c78f9a5ba515e5d7a3b9d,2022-05-12_05h04.24.795,classification_task,2021.2.3,Win32,60.17933442,627c6715c52fd12f31907bd0,,,,,,,,,,,,,,,,,,,,,,,a,0,"[""0.678"",""0.230"",""0.508"",""0.782""]","[0,1,1,1]",0,38,38,38,1,1,0,,,0,FALSE,3.1314,,,,,,,,,,,,,,,,,,,,,,,,,,,,,,,
,5f7229ef1f8432123d3df17d,627c78f9a5ba515e5d7a3b9d,2022-05-12_05h04.24.795,classification_task,2021.2.3,Win32,60.17933442,627c6715c52fd12f31907bd0,,,,,,,,,,,,,,,,,,,,,,,l,0,"[""0.616"",""0.398"",""0.907"",""0.964""]","[0,1,1,1]",0,39,39,39,1,0,0,,,0,FALSE,1.6484,,,,,,,,,,,,,,,,,,,,,,,,,,,,,,,
,5f7229ef1f8432123d3df17d,627c78f9a5ba515e5d7a3b9d,2022-05-12_05h04.24.795,classification_task,2021.2.3,Win32,60.17933442,627c6715c52fd12f31907bd0,,,,,,,,,,,,,,,,,,,,,,,a,1,"[""0.269"",""0.616"",""0.907"",""0.964""]","[1,0,1,1]",0,40,40,40,1,0,0,,,0,FALSE,1.2978,,,,,,,,,,,,,,,,,,,,,,,,,,,,,,,
,5f7229ef1f8432123d3df17d,627c78f9a5ba515e5d7a3b9d,2022-05-12_05h04.24.795,classification_task,2021.2.3,Win32,60.17933442,627c6715c52fd12f31907bd0,,,,,,,,,,,,,,,,,,,,,,,a,0,"[""0.025"",""0.306"",""0.576"",""0.625""]","[1,1,1,0]",0,41,41,41,1,1,1,,,0,FALSE,1.698,,,,,,,,,,,,,,,,,,,,,,,,,,,,,,,
,5f7229ef1f8432123d3df17d,627c78f9a5ba515e5d7a3b9d,2022-05-12_05h04.24.795,classification_task,2021.2.3,Win32,60.17933442,627c6715c52fd12f31907bd0,,,,,,,,,,,,,,,,,,,,,,,l,0,"[""0.625"",""0.437"",""0.838"",""0.872""]","[0,1,1,1]",0,42,42,42,1,0,1,,,0,FALSE,1.4644,,,,,,,,,,,,,,,,,,,,,,,,,,,,,,,
,5f7229ef1f8432123d3df17d,627c78f9a5ba515e5d7a3b9d,2022-05-12_05h04.24.795,classification_task,2021.2.3,Win32,60.17933442,627c6715c52fd12f31907bd0,,,,,,,,,,,,,,,,,,,,,,,l,1,"[""0.025"",""0.306"",""0.060"",""0.739""]","[1,1,0,1]",0,43,43,43,1,1,1,,,0,FALSE,1.4476,,,,,,,,,,,,,,,,,,,,,,,,,,,,,,,
,5f7229ef1f8432123d3df17d,627c78f9a5ba515e5d7a3b9d,2022-05-12_05h04.24.795,classification_task,2021.2.3,Win32,60.17933442,627c6715c52fd12f31907bd0,,,,,,,,,,,,,,,,,,,,,,,a,1,"[""0.170"",""0.437"",""0.838"",""0.060""]","[1,1,1,0]",0,44,44,44,1,0,1,,,0,FALSE,1.2647,,,,,,,,,,,,,,,,,,,,,,,,,,,,,,,
,5f7229ef1f8432123d3df17d,627c78f9a5ba515e5d7a3b9d,2022-05-12_05h04.24.795,classification_task,2021.2.3,Win32,60.17933442,627c6715c52fd12f31907bd0,,,,,,,,,,,,,,,,,,,,,,,a,0,"[""0.025"",""0.701"",""0.576"",""0.739""]","[1,0,1,1]",0,45,45,45,1,1,1,,,0,FALSE,1.6824,,,,,,,,,,,,,,,,,,,,,,,,,,,,,,,
,5f7229ef1f8432123d3df17d,627c78f9a5ba515e5d7a3b9d,2022-05-12_05h04.24.795,classification_task,2021.2.3,Win32,60.17933442,627c6715c52fd12f31907bd0,,,,,,,,,,,,,,,,,,,,,,,l,1,"[""0.098"",""0.230"",""0.343"",""0.782""]","[1,1,0,1]",0,46,46,46,1,1,0,,,0,FALSE,1.9648,,,,,,,,,,,,,,,,,,,,,,,,,,,,,,,
,5f7229ef1f8432123d3df17d,627c78f9a5ba515e5d7a3b9d,2022-05-12_05h04.24.795,classification_task,2021.2.3,Win32,60.17933442,627c6715c52fd12f31907bd0,,,,,,,,,,,,,,,,,,,,,,,l,0,"[""0.269"",""0.398"",""0.907"",""0.701""]","[1,1,1,0]",0,47,47,47,1,0,0,,,0,FALSE,0.8819,,,,,,,,,,,,,,,,,,,,,,,,,,,,,,,
,5f7229ef1f8432123d3df17d,627c78f9a5ba515e5d7a3b9d,2022-05-12_05h04.24.795,classification_task,2021.2.3,Win32,60.17933442,627c6715c52fd12f31907bd0,,,,,,,,,,,,,,,,,,,,,,,l,0,"[""0.269"",""0.398"",""0.657"",""0.964""]","[1,1,0,1]",0,48,48,48,1,0,0,,,0,FALSE,0.7983,,,,,,,,,,,,,,,,,,,,,,,,,,,,,,,
,5f7229ef1f8432123d3df17d,627c78f9a5ba515e5d7a3b9d,2022-05-12_05h04.24.795,classification_task,2021.2.3,Win32,60.17933442,627c6715c52fd12f31907bd0,,,,,,,,,,,,,,,,,,,,,,,a,0,"[""0.025"",""0.697"",""0.576"",""0.739""]","[1,0,1,1]",0,49,49,49,1,1,1,,,0,FALSE,1.1982,,,,,,,,,,,,,,,,,,,,,,,,,,,,,,,
,5f7229ef1f8432123d3df17d,627c78f9a5ba515e5d7a3b9d,2022-05-12_05h04.24.795,classification_task,2021.2.3,Win32,60.17933442,627c6715c52fd12f31907bd0,,,,,,,,,,,,,,,,,,,,,,,l,1,"[""0.098"",""0.230"",""0.508"",""0.343""]","[1,1,1,0]",0,50,50,50,1,1,0,,,0,FALSE,0.6983,,,,,,,,,,,,,,,,,,,,,,,,,,,,,,,
,5f7229ef1f8432123d3df17d,627c78f9a5ba515e5d7a3b9d,2022-05-12_05h04.24.795,classification_task,2021.2.3,Win32,60.17933442,627c6715c52fd12f31907bd0,,,,,,,,,,,,,,,,,,,,,,,a,0,"[""0.648"",""0.306"",""0.576"",""0.739""]","[0,1,1,1]",0,51,51,51,1,1,1,,,0,FALSE,1.2983,,,,,,,,,,,,,,,,,,,,,,,,,,,,,,,
,5f7229ef1f8432123d3df17d,627c78f9a5ba515e5d7a3b9d,2022-05-12_05h04.24.795,classification_task,2021.2.3,Win32,60.17933442,627c6715c52fd12f31907bd0,,,,,,,,,,,,,,,,,,,,,,,l,0,"[""0.269"",""0.398"",""0.907"",""0.648""]","[1,1,1,0]",0,52,52,52,1,0,0,,,0,FALSE,0.9323,,,,,,,,,,,,,,,,,,,,,,,,,,,,,,,
,5f7229ef1f8432123d3df17d,627c78f9a5ba515e5d7a3b9d,2022-05-12_05h04.24.795,classification_task,2021.2.3,Win32,60.17933442,627c6715c52fd12f31907bd0,,,,,,,,,,,,,,,,,,,,,,,a,0,"[""0.098"",""0.678"",""0.508"",""0.782""]","[1,0,1,1]",0,53,53,53,1,1,0,,,0,FALSE,1.731,,,,,,,,,,,,,,,,,,,,,,,,,,,,,,,
,5f7229ef1f8432123d3df17d,627c78f9a5ba515e5d7a3b9d,2022-05-12_05h04.24.795,classification_task,2021.2.3,Win32,60.17933442,627c6715c52fd12f31907bd0,,,,,,,,,,,,,,,,,,,,,,,a,1,"[""0.170"",""0.437"",""0.648"",""0.872""]","[1,1,0,1]",0,54,54,54,1,0,1,,,0,FALSE,0.8989,,,,,,,,,,,,,,,,,,,,,,,,,,,,,,,
,5f7229ef1f8432123d3df17d,627c78f9a5ba515e5d7a3b9d,2022-05-12_05h04.24.795,classification_task,2021.2.3,Win32,60.17933442,627c6715c52fd12f31907bd0,,,,,,,,,,,,,,,,,,,,,,,l,1,"[""0.025"",""0.306"",""0.576"",""0.616""]","[1,1,1,0]",0,55,55,55,1,1,1,,,0,FALSE,1.6991,,,,,,,,,,,,,,,,,,,,,,,,,,,,,,,
,5f7229ef1f8432123d3df17d,627c78f9a5ba515e5d7a3b9d,2022-05-12_05h04.24.795,classification_task,2021.2.3,Win32,60.17933442,627c6715c52fd12f31907bd0,,,,,,,,,,,,,,,,,,,,,,,l,0,"[""0.625"",""0.398"",""0.907"",""0.964""]","[0,1,1,1]",0,56,56,56,1,0,0,,,0,FALSE,1.9813,,,,,,,,,,,,,,,,,,,,,,,,,,,,,,,
,5f7229ef1f8432123d3df17d,627c78f9a5ba515e5d7a3b9d,2022-05-12_05h04.24.795,classification_task,2021.2.3,Win32,60.17933442,627c6715c52fd12f31907bd0,,,,,,,,,,,,,,,,,,,,,,,a,0,"[""0.098"",""0.230"",""0.648"",""0.782""]","[1,1,0,1]",0,57,57,57,1,1,0,,,0,FALSE,1.3646,,,,,,,,,,,,,,,,,,,,,,,,,,,,,,,
,5f7229ef1f8432123d3df17d,627c78f9a5ba515e5d7a3b9d,2022-05-12_05h04.24.795,classification_task,2021.2.3,Win32,60.17933442,627c6715c52fd12f31907bd0,,,,,,,,,,,,,,,,,,,,,,,a,0,"[""0.632"",""0.230"",""0.508"",""0.782""]","[0,1,1,1]",0,58,58,58,1,1,0,,,0,FALSE,1.0659,,,,,,,,,,,,,,,,,,,,,,,,,,,,,,,
,5f7229ef1f8432123d3df17d,627c78f9a5ba515e5d7a3b9d,2022-05-12_05h04.24.795,classification_task,2021.2.3,Win32,60.17933442,627c6715c52fd12f31907bd0,,,,,,,,,,,,,,,,,,,,,,,a,0,"[""0.025"",""0.306"",""0.632"",""0.739""]","[1,1,0,1]",0,59,59,59,1,1,1,,,0,FALSE,1.2484,,,,,,,,,,,,,,,,,,,,,,,,,,,,,,,
,5f7229ef1f8432123d3df17d,627c78f9a5ba515e5d7a3b9d,2022-05-12_05h04.24.795,classification_task,2021.2.3,Win32,60.17933442,627c6715c52fd12f31907bd0,,,,,,,,,,,,,,,,,,,,,,,l,0,"[""0.689"",""0.437"",""0.838"",""0.872""]","[0,1,1,1]",0,60,60,60,1,0,1,,,0,FALSE,0.7484,,,,,,,,,,,,,,,,,,,,,,,,,,,,,,,
,5f7229ef1f8432123d3df17d,627c78f9a5ba515e5d7a3b9d,2022-05-12_05h04.24.795,classification_task,2021.2.3,Win32,60.17933442,627c6715c52fd12f31907bd0,,,,,,,,,,,,,,,,,,,,,,,l,0,"[""0.170"",""0.701"",""0.838"",""0.872""]","[1,0,1,1]",0,61,61,61,1,0,1,,,0,FALSE,0.6988,,,,,,,,,,,,,,,,,,,,,,,,,,,,,,,
,5f7229ef1f8432123d3df17d,627c78f9a5ba515e5d7a3b9d,2022-05-12_05h04.24.795,classification_task,2021.2.3,Win32,60.17933442,627c6715c52fd12f31907bd0,,,,,,,,,,,,,,,,,,,,,,,a,1,"[""0.269"",""0.701"",""0.907"",""0.964""]","[1,0,1,1]",0,62,62,62,1,0,0,,,0,FALSE,1.2652,,,,,,,,,,,,,,,,,,,,,,,,,,,,,,,
,5f7229ef1f8432123d3df17d,627c78f9a5ba515e5d7a3b9d,2022-05-12_05h04.24.795,classification_task,2021.2.3,Win32,60.17933442,627c6715c52fd12f31907bd0,,,,,,,,,,,,,,,,,,,,,,,a,1,"[""0.170"",""0.437"",""0.838"",""0.648""]","[1,1,1,0]",0,63,63,63,1,0,1,,,0,FALSE,1.8647,,,,,,,,,,,,,,,,,,,,,,,,,,,,,,,
,5f7229ef1f8432123d3df17d,627c78f9a5ba515e5d7a3b9d,2022-05-12_05h04.24.795,classification_task,2021.2.3,Win32,60.17933442,627c6715c52fd12f31907bd0,,,,,,,,,,,,,,,,,,,,,,,,,,,,,,,,,,,,,,,0, ,,0,8.484469546,677.7719,0,0,0,0,1,2,1,,,,,,,,,,,,,,,,,,
,5f7229ef1f8432123d3df17d,627c78f9a5ba515e5d7a3b9d,2022-05-12_05h04.24.795,classification_task,2021.2.3,Win32,60.17933442,627c6715c52fd12f31907bd0,,,,,,,,,,,,,,,,,,,,,,,,,,,,,,,,,,,,,,,1,  ,,0,9.782726221,674.1949,0,0,0,0,1,2,1,,,,,,,,,,,,,,,,,,
,5f7229ef1f8432123d3df17d,627c78f9a5ba515e5d7a3b9d,2022-05-12_05h04.24.795,classification_task,2021.2.3,Win32,60.17933442,627c6715c52fd12f31907bd0,,,,,,,,,,,,,,,,,,,,,,,,,,,,,,,,,,,,,,,2,  ,,0,8.60694652,668.3304,0,0,0,0,1,2,1,,,,,,,,,,,,,,,,,,
,5f7229ef1f8432123d3df17d,627c78f9a5ba515e5d7a3b9d,2022-05-12_05h04.24.795,classification_task,2021.2.3,Win32,60.17933442,627c6715c52fd12f31907bd0,,,,,,,,,,,,,,,,,,,,,,,,,,,,,,,,,,,,,,,,,,,,,0,0,0,0,1,,1,,,,,,,,,,,,,,,,,,
,5f7229ef1f8432123d3df17d,627c78f9a5ba515e5d7a3b9d,2022-05-12_05h04.24.795,classification_task,2021.2.3,Win32,60.17933442,627c6715c52fd12f31907bd0,,,,,,,,,,,,,,,,,,,,,space,87.3834,,0,"[""0.269"",""0.398"",""0.907"",""0.343""]","[1,1,1,0]",0,0,0,0,1,0,0,,,0,FALSE,,,,,,,,,,,,,,,,,,,,,,,,,,,,,,,,
,5f7229ef1f8432123d3df17d,627c78f9a5ba515e5d7a3b9d,2022-05-12_05h04.24.795,classification_task,2021.2.3,Win32,60.17933442,627c6715c52fd12f31907bd0,,,,,,,,,,,,,,,,,,,,,,,l,1,"[""0.098"",""0.230"",""0.648"",""0.782""]","[1,1,0,1]",0,1,1,1,1,1,0,,,0,FALSE,3.1635,,,,,,,,,,,,,,,,,,,,,,,,,,,,,,,
,5f7229ef1f8432123d3df17d,627c78f9a5ba515e5d7a3b9d,2022-05-12_05h04.24.795,classification_task,2021.2.3,Win32,60.17933442,627c6715c52fd12f31907bd0,,,,,,,,,,,,,,,,,,,,,,,a,1,"[""0.269"",""0.343"",""0.907"",""0.964""]","[1,0,1,1]",0,2,2,2,1,0,0,,,0,FALSE,2.2497,,,,,,,,,,,,,,,,,,,,,,,,,,,,,,,
,5f7229ef1f8432123d3df17d,627c78f9a5ba515e5d7a3b9d,2022-05-12_05h04.24.795,classification_task,2021.2.3,Win32,60.17933442,627c6715c52fd12f31907bd0,,,,,,,,,,,,,,,,,,,,,,,a,0,"[""0.648"",""0.306"",""0.576"",""0.739""]","[0,1,1,1]",0,3,3,3,1,1,1,,,0,FALSE,1.3935,,,,,,,,,,,,,,,,,,,,,,,,,,,,,,,
,5f7229ef1f8432123d3df17d,627c78f9a5ba515e5d7a3b9d,2022-05-12_05h04.24.795,classification_task,2021.2.3,Win32,60.17933442,627c6715c52fd12f31907bd0,,,,,,,,,,,,,,,,,,,,,,,l,1,"[""0.657"",""0.230"",""0.508"",""0.782""]","[0,1,1,1]",0,4,4,4,1,1,0,,,0,FALSE,1.8451,,,,,,,,,,,,,,,,,,,,,,,,,,,,,,,
,5f7229ef1f8432123d3df17d,627c78f9a5ba515e5d7a3b9d,2022-05-12_05h04.24.795,classification_task,2021.2.3,Win32,60.17933442,627c6715c52fd12f31907bd0,,,,,,,,,,,,,,,,,,,,,,,a,0,"[""0.025"",""0.306"",""0.576"",""0.701""]","[1,1,1,0]",0,5,5,5,1,1,1,,,0,FALSE,2.163,,,,,,,,,,,,,,,,,,,,,,,,,,,,,,,
,5f7229ef1f8432123d3df17d,627c78f9a5ba515e5d7a3b9d,2022-05-12_05h04.24.795,classification_task,2021.2.3,Win32,60.17933442,627c6715c52fd12f31907bd0,,,,,,,,,,,,,,,,,,,,,,,a,1,"[""0.170"",""0.437"",""0.648"",""0.872""]","[1,1,0,1]",0,6,6,6,1,0,1,,,0,FALSE,1.1927,,,,,,,,,,,,,,,,,,,,,,,,,,,,,,,
,5f7229ef1f8432123d3df17d,627c78f9a5ba515e5d7a3b9d,2022-05-12_05h04.24.795,classification_task,2021.2.3,Win32,60.17933442,627c6715c52fd12f31907bd0,,,,,,,,,,,,,,,,,,,,,,,l,1,"[""0.098"",""0.616"",""0.508"",""0.782""]","[1,0,1,1]",0,7,7,7,1,1,0,,,0,FALSE,1.1692,,,,,,,,,,,,,,,,,,,,,,,,,,,,,,,
,5f7229ef1f8432123d3df17d,627c78f9a5ba515e5d7a3b9d,2022-05-12_05h04.24.795,classification_task,2021.2.3,Win32,60.17933442,627c6715c52fd12f31907bd0,,,,,,,,,,,,,,,,,,,,,,,a,0,"[""0.025"",""0.699"",""0.576"",""0.739""]","[1,0,1,1]",0,8,8,8,1,1,1,,,0,FALSE,1.5787,,,,,,,,,,,,,,,,,,,,,,,,,,,,,,,
,5f7229ef1f8432123d3df17d,627c78f9a5ba515e5d7a3b9d,2022-05-12_05h04.24.795,classification_task,2021.2.3,Win32,60.17933442,627c6715c52fd12f31907bd0,,,,,,,,,,,,,,,,,,,,,,,l,0,"[""0.170"",""0.634"",""0.838"",""0.872""]","[1,0,1,1]",0,9,9,9,1,0,1,,,0,FALSE,0.7524,,,,,,,,,,,,,,,,,,,,,,,,,,,,,,,
,5f7229ef1f8432123d3df17d,627c78f9a5ba515e5d7a3b9d,2022-05-12_05h04.24.795,classification_task,2021.2.3,Win32,60.17933442,627c6715c52fd12f31907bd0,,,,,,,,,,,,,,,,,,,,,,,l,1,"[""0.025"",""0.306"",""0.632"",""0.739""]","[1,1,0,1]",0,10,10,10,1,1,1,,,0,FALSE,0.8047,,,,,,,,,,,,,,,,,,,,,,,,,,,,,,,
,5f7229ef1f8432123d3df17d,627c78f9a5ba515e5d7a3b9d,2022-05-12_05h04.24.795,classification_task,2021.2.3,Win32,60.17933442,627c6715c52fd12f31907bd0,,,,,,,,,,,,,,,,,,,,,,,a,1,"[""0.269"",""0.398"",""0.689"",""0.964""]","[1,1,0,1]",0,11,11,11,1,0,0,,,0,FALSE,2.5797,,,,,,,,,,,,,,,,,,,,,,,,,,,,,,,
,5f7229ef1f8432123d3df17d,627c78f9a5ba515e5d7a3b9d,2022-05-12_05h04.24.795,classification_task,2021.2.3,Win32,60.17933442,627c6715c52fd12f31907bd0,,,,,,,,,,,,,,,,,,,,,,,a,1,"[""0.170"",""0.437"",""0.838"",""0.699""]","[1,1,1,0]",0,12,12,12,1,0,1,,,0,FALSE,2.6556,,,,,,,,,,,,,,,,,,,,,,,,,,,,,,,
,5f7229ef1f8432123d3df17d,627c78f9a5ba515e5d7a3b9d,2022-05-12_05h04.24.795,classification_task,2021.2.3,Win32,60.17933442,627c6715c52fd12f31907bd0,,,,,,,,,,,,,,,,,,,,,,,a,1,"[""0.701"",""0.437"",""0.838"",""0.872""]","[0,1,1,1]",0,13,13,13,1,0,1,,,0,FALSE,2.0424,,,,,,,,,,,,,,,,,,,,,,,,,,,,,,,
,5f7229ef1f8432123d3df17d,627c78f9a5ba515e5d7a3b9d,2022-05-12_05h04.24.795,classification_task,2021.2.3,Win32,60.17933442,627c6715c52fd12f31907bd0,,,,,,,,,,,,,,,,,,,,,,,a,1,"[""0.616"",""0.398"",""0.907"",""0.964""]","[0,1,1,1]",0,14,14,14,1,0,0,,,0,FALSE,2.946,,,,,,,,,,,,,,,,,,,,,,,,,,,,,,,
,5f7229ef1f8432123d3df17d,627c78f9a5ba515e5d7a3b9d,2022-05-12_05h04.24.795,classification_task,2021.2.3,Win32,60.17933442,627c6715c52fd12f31907bd0,,,,,,,,,,,,,,,,,,,,,,,l,1,"[""0.098"",""0.230"",""0.508"",""0.625""]","[1,1,1,0]",0,15,15,15,1,1,0,,,0,FALSE,0.4984,,,,,,,,,,,,,,,,,,,,,,,,,,,,,,,
,5f7229ef1f8432123d3df17d,627c78f9a5ba515e5d7a3b9d,2022-05-12_05h04.24.795,classification_task,2021.2.3,Win32,60.17933442,627c6715c52fd12f31907bd0,,,,,,,,,,,,,,,,,,,,,,,a,1,"[""0.060"",""0.437"",""0.838"",""0.872""]","[0,1,1,1]",0,16,16,16,1,0,1,,,0,FALSE,1.2331,,,,,,,,,,,,,,,,,,,,,,,,,,,,,,,
,5f7229ef1f8432123d3df17d,627c78f9a5ba515e5d7a3b9d,2022-05-12_05h04.24.795,classification_task,2021.2.3,Win32,60.17933442,627c6715c52fd12f31907bd0,,,,,,,,,,,,,,,,,,,,,,,a,0,"[""0.025"",""0.306"",""0.634"",""0.739""]","[1,1,0,1]",0,17,17,17,1,1,1,,,0,FALSE,1.091,,,,,,,,,,,,,,,,,,,,,,,,,,,,,,,
,5f7229ef1f8432123d3df17d,627c78f9a5ba515e5d7a3b9d,2022-05-12_05h04.24.795,classification_task,2021.2.3,Win32,60.17933442,627c6715c52fd12f31907bd0,,,,,,,,,,,,,,,,,,,,,,,l,1,"[""0.678"",""0.230"",""0.508"",""0.782""]","[0,1,1,1]",0,18,18,18,1,1,0,,,0,FALSE,0.5838,,,,,,,,,,,,,,,,,,,,,,,,,,,,,,,
,5f7229ef1f8432123d3df17d,627c78f9a5ba515e5d7a3b9d,2022-05-12_05h04.24.795,classification_task,2021.2.3,Win32,60.17933442,627c6715c52fd12f31907bd0,,,,,,,,,,,,,,,,,,,,,,,l,1,"[""0.098"",""0.230"",""0.634"",""0.782""]","[1,1,0,1]",0,19,19,19,1,1,0,,,0,FALSE,0.899,,,,,,,,,,,,,,,,,,,,,,,,,,,,,,,
,5f7229ef1f8432123d3df17d,627c78f9a5ba515e5d7a3b9d,2022-05-12_05h04.24.795,classification_task,2021.2.3,Win32,60.17933442,627c6715c52fd12f31907bd0,,,,,,,,,,,,,,,,,,,,,,,a,0,"[""0.025"",""0.306"",""0.576"",""0.632""]","[1,1,1,0]",0,20,20,20,1,1,1,,,0,FALSE,0.8819,,,,,,,,,,,,,,,,,,,,,,,,,,,,,,,
,5f7229ef1f8432123d3df17d,627c78f9a5ba515e5d7a3b9d,2022-05-12_05h04.24.795,classification_task,2021.2.3,Win32,60.17933442,627c6715c52fd12f31907bd0,,,,,,,,,,,,,,,,,,,,,,,a,1,"[""0.697"",""0.398"",""0.907"",""0.964""]","[0,1,1,1]",0,21,21,21,1,0,0,,,0,FALSE,1.1007,,,,,,,,,,,,,,,,,,,,,,,,,,,,,,,
,5f7229ef1f8432123d3df17d,627c78f9a5ba515e5d7a3b9d,2022-05-12_05h04.24.795,classification_task,2021.2.3,Win32,60.17933442,627c6715c52fd12f31907bd0,,,,,,,,,,,,,,,,,,,,,,,a,1,"[""0.269"",""0.398"",""0.343"",""0.964""]","[1,1,0,1]",0,22,22,22,1,0,0,,,0,FALSE,0.5817,,,,,,,,,,,,,,,,,,,,,,,,,,,,,,,
,5f7229ef1f8432123d3df17d,627c78f9a5ba515e5d7a3b9d,2022-05-12_05h04.24.795,classification_task,2021.2.3,Win32,60.17933442,627c6715c52fd12f31907bd0,,,,,,,,,,,,,,,,,,,,,,,l,1,"[""0.098"",""0.657"",""0.508"",""0.782""]","[1,0,1,1]",0,23,23,23,1,1,0,,,0,FALSE,1.1324,,,,,,,,,,,,,,,,,,,,,,,,,,,,,,,
,5f7229ef1f8432123d3df17d,627c78f9a5ba515e5d7a3b9d,2022-05-12_05h04.24.795,classification_task,2021.2.3,Win32,60.17933442,627c6715c52fd12f31907bd0,,,,,,,,,,,,,,,,,,,,,,,a,1,"[""0.269"",""0.398"",""0.907"",""0.699""]","[1,1,1,0]",0,24,24,24,1,0,0,,,0,FALSE,1.1709,,,,,,,,,,,,,,,,,,,,,,,,,,,,,,,
,5f7229ef1f8432123d3df17d,627c78f9a5ba515e5d7a3b9d,2022-05-12_05h04.24.795,classification_task,2021.2.3,Win32,60.17933442,627c6715c52fd12f31907bd0,,,,,,,,,,,,,,,,,,,,,,,a,0,"[""0.025"",""0.657"",""0.576"",""0.739""]","[1,0,1,1]",0,25,25,25,1,1,1,,,0,FALSE,0.53,,,,,,,,,,,,,,,,,,,,,,,,,,,,,,,
,5f7229ef1f8432123d3df17d,627c78f9a5ba515e5d7a3b9d,2022-05-12_05h04.24.795,classification_task,2021.2.3,Win32,60.17933442,627c6715c52fd12f31907bd0,,,,,,,,,,,,,,,,,,,,,,,a,1,"[""0.170"",""0.701"",""0.838"",""0.872""]","[1,0,1,1]",0,26,26,26,1,0,1,,,0,FALSE,0.5657,,,,,,,,,,,,,,,,,,,,,,,,,,,,,,,
,5f7229ef1f8432123d3df17d,627c78f9a5ba515e5d7a3b9d,2022-05-12_05h04.24.795,classification_task,2021.2.3,Win32,60.17933442,627c6715c52fd12f31907bd0,,,,,,,,,,,,,,,,,,,,,,,a,0,"[""0.678"",""0.306"",""0.576"",""0.739""]","[0,1,1,1]",0,27,27,27,1,1,1,,,0,FALSE,0.7488,,,,,,,,,,,,,,,,,,,,,,,,,,,,,,,
,5f7229ef1f8432123d3df17d,627c78f9a5ba515e5d7a3b9d,2022-05-12_05h04.24.795,classification_task,2021.2.3,Win32,60.17933442,627c6715c52fd12f31907bd0,,,,,,,,,,,,,,,,,,,,,,,a,1,"[""0.269"",""0.648"",""0.907"",""0.964""]","[1,0,1,1]",0,28,28,28,1,0,0,,,0,FALSE,0.8451,,,,,,,,,,,,,,,,,,,,,,,,,,,,,,,
,5f7229ef1f8432123d3df17d,627c78f9a5ba515e5d7a3b9d,2022-05-12_05h04.24.795,classification_task,2021.2.3,Win32,60.17933442,627c6715c52fd12f31907bd0,,,,,,,,,,,,,,,,,,,,,,,a,1,"[""0.170"",""0.437"",""0.838"",""0.699""]","[1,1,1,0]",0,29,29,29,1,0,1,,,0,FALSE,0.735,,,,,,,,,,,,,,,,,,,,,,,,,,,,,,,
,5f7229ef1f8432123d3df17d,627c78f9a5ba515e5d7a3b9d,2022-05-12_05h04.24.795,classification_task,2021.2.3,Win32,60.17933442,627c6715c52fd12f31907bd0,,,,,,,,,,,,,,,,,,,,,,,l,1,"[""0.098"",""0.230"",""0.508"",""0.642""]","[1,1,1,0]",0,30,30,30,1,1,0,,,0,FALSE,0.9198,,,,,,,,,,,,,,,,,,,,,,,,,,,,,,,
,5f7229ef1f8432123d3df17d,627c78f9a5ba515e5d7a3b9d,2022-05-12_05h04.24.795,classification_task,2021.2.3,Win32,60.17933442,627c6715c52fd12f31907bd0,,,,,,,,,,,,,,,,,,,,,,,a,1,"[""0.170"",""0.437"",""0.625"",""0.872""]","[1,1,0,1]",0,31,31,31,1,0,1,,,0,FALSE,0.906,,,,,,,,,,,,,,,,,,,,,,,,,,,,,,,
,5f7229ef1f8432123d3df17d,627c78f9a5ba515e5d7a3b9d,2022-05-12_05h04.24.795,classification_task,2021.2.3,Win32,60.17933442,627c6715c52fd12f31907bd0,,,,,,,,,,,,,,,,,,,,,,,a,1,"[""0.269"",""0.648"",""0.907"",""0.964""]","[1,0,1,1]",0,32,32,32,1,0,0,,,0,FALSE,1.2367,,,,,,,,,,,,,,,,,,,,,,,,,,,,,,,
,5f7229ef1f8432123d3df17d,627c78f9a5ba515e5d7a3b9d,2022-05-12_05h04.24.795,classification_task,2021.2.3,Win32,60.17933442,627c6715c52fd12f31907bd0,,,,,,,,,,,,,,,,,,,,,,,a,0,"[""0.025"",""0.699"",""0.576"",""0.739""]","[1,0,1,1]",0,33,33,33,1,1,1,,,0,FALSE,0.5169,,,,,,,,,,,,,,,,,,,,,,,,,,,,,,,
,5f7229ef1f8432123d3df17d,627c78f9a5ba515e5d7a3b9d,2022-05-12_05h04.24.795,classification_task,2021.2.3,Win32,60.17933442,627c6715c52fd12f31907bd0,,,,,,,,,,,,,,,,,,,,,,,a,1,"[""0.170"",""0.437"",""0.838"",""0.699""]","[1,1,1,0]",0,34,34,34,1,0,1,,,0,FALSE,0.4823,,,,,,,,,,,,,,,,,,,,,,,,,,,,,,,
,5f7229ef1f8432123d3df17d,627c78f9a5ba515e5d7a3b9d,2022-05-12_05h04.24.795,classification_task,2021.2.3,Win32,60.17933442,627c6715c52fd12f31907bd0,,,,,,,,,,,,,,,,,,,,,,,a,1,"[""0.170"",""0.437"",""0.648"",""0.872""]","[1,1,0,1]",0,35,35,35,1,0,1,,,0,FALSE,0.5,,,,,,,,,,,,,,,,,,,,,,,,,,,,,,,
,5f7229ef1f8432123d3df17d,627c78f9a5ba515e5d7a3b9d,2022-05-12_05h04.24.795,classification_task,2021.2.3,Win32,60.17933442,627c6715c52fd12f31907bd0,,,,,,,,,,,,,,,,,,,,,,,l,1,"[""0.632"",""0.230"",""0.508"",""0.782""]","[0,1,1,1]",0,36,36,36,1,1,0,,,0,FALSE,1.0547,,,,,,,,,,,,,,,,,,,,,,,,,,,,,,,
,5f7229ef1f8432123d3df17d,627c78f9a5ba515e5d7a3b9d,2022-05-12_05h04.24.795,classification_task,2021.2.3,Win32,60.17933442,627c6715c52fd12f31907bd0,,,,,,,,,,,,,,,,,,,,,,,a,1,"[""0.060"",""0.437"",""0.838"",""0.872""]","[0,1,1,1]",0,37,37,37,1,0,1,,,0,FALSE,1.2963,,,,,,,,,,,,,,,,,,,,,,,,,,,,,,,
,5f7229ef1f8432123d3df17d,627c78f9a5ba515e5d7a3b9d,2022-05-12_05h04.24.795,classification_task,2021.2.3,Win32,60.17933442,627c6715c52fd12f31907bd0,,,,,,,,,,,,,,,,,,,,,,,a,1,"[""0.269"",""0.398"",""0.907"",""0.678""]","[1,1,1,0]",0,38,38,38,1,0,0,,,0,FALSE,0.4962,,,,,,,,,,,,,,,,,,,,,,,,,,,,,,,
,5f7229ef1f8432123d3df17d,627c78f9a5ba515e5d7a3b9d,2022-05-12_05h04.24.795,classification_task,2021.2.3,Win32,60.17933442,627c6715c52fd12f31907bd0,,,,,,,,,,,,,,,,,,,,,,,l,1,"[""0.098"",""0.230"",""0.642"",""0.782""]","[1,1,0,1]",0,39,39,39,1,1,0,,,0,FALSE,1.0006,,,,,,,,,,,,,,,,,,,,,,,,,,,,,,,
,5f7229ef1f8432123d3df17d,627c78f9a5ba515e5d7a3b9d,2022-05-12_05h04.24.795,classification_task,2021.2.3,Win32,60.17933442,627c6715c52fd12f31907bd0,,,,,,,,,,,,,,,,,,,,,,,a,0,"[""0.642"",""0.306"",""0.576"",""0.739""]","[0,1,1,1]",0,40,40,40,1,1,1,,,0,FALSE,0.9293,,,,,,,,,,,,,,,,,,,,,,,,,,,,,,,
,5f7229ef1f8432123d3df17d,627c78f9a5ba515e5d7a3b9d,2022-05-12_05h04.24.795,classification_task,2021.2.3,Win32,60.17933442,627c6715c52fd12f31907bd0,,,,,,,,,,,,,,,,,,,,,,,a,1,"[""0.269"",""0.398"",""0.701"",""0.964""]","[1,1,0,1]",0,41,41,41,1,0,0,,,0,FALSE,0.4283,,,,,,,,,,,,,,,,,,,,,,,,,,,,,,,
,5f7229ef1f8432123d3df17d,627c78f9a5ba515e5d7a3b9d,2022-05-12_05h04.24.795,classification_task,2021.2.3,Win32,60.17933442,627c6715c52fd12f31907bd0,,,,,,,,,,,,,,,,,,,,,,,a,1,"[""0.701"",""0.398"",""0.907"",""0.964""]","[0,1,1,1]",0,42,42,42,1,0,0,,,0,FALSE,0.4697,,,,,,,,,,,,,,,,,,,,,,,,,,,,,,,
,5f7229ef1f8432123d3df17d,627c78f9a5ba515e5d7a3b9d,2022-05-12_05h04.24.795,classification_task,2021.2.3,Win32,60.17933442,627c6715c52fd12f31907bd0,,,,,,,,,,,,,,,,,,,,,,,l,1,"[""0.098"",""0.230"",""0.508"",""0.699""]","[1,1,1,0]",0,43,43,43,1,1,0,,,0,FALSE,1.3332,,,,,,,,,,,,,,,,,,,,,,,,,,,,,,,
,5f7229ef1f8432123d3df17d,627c78f9a5ba515e5d7a3b9d,2022-05-12_05h04.24.795,classification_task,2021.2.3,Win32,60.17933442,627c6715c52fd12f31907bd0,,,,,,,,,,,,,,,,,,,,,,,a,0,"[""0.025"",""0.306"",""0.648"",""0.739""]","[1,1,0,1]",0,44,44,44,1,1,1,,,0,FALSE,1.0344,,,,,,,,,,,,,,,,,,,,,,,,,,,,,,,
,5f7229ef1f8432123d3df17d,627c78f9a5ba515e5d7a3b9d,2022-05-12_05h04.24.795,classification_task,2021.2.3,Win32,60.17933442,627c6715c52fd12f31907bd0,,,,,,,,,,,,,,,,,,,,,,,a,1,"[""0.170"",""0.678"",""0.838"",""0.872""]","[1,0,1,1]",0,45,45,45,1,0,1,,,0,FALSE,0.4528,,,,,,,,,,,,,,,,,,,,,,,,,,,,,,,
,5f7229ef1f8432123d3df17d,627c78f9a5ba515e5d7a3b9d,2022-05-12_05h04.24.795,classification_task,2021.2.3,Win32,60.17933442,627c6715c52fd12f31907bd0,,,,,,,,,,,,,,,,,,,,,,,l,1,"[""0.098"",""0.632"",""0.508"",""0.782""]","[1,0,1,1]",0,46,46,46,1,1,0,,,0,FALSE,1.2626,,,,,,,,,,,,,,,,,,,,,,,,,,,,,,,
,5f7229ef1f8432123d3df17d,627c78f9a5ba515e5d7a3b9d,2022-05-12_05h04.24.795,classification_task,2021.2.3,Win32,60.17933442,627c6715c52fd12f31907bd0,,,,,,,,,,,,,,,,,,,,,,,a,0,"[""0.025"",""0.306"",""0.576"",""0.343""]","[1,1,1,0]",0,47,47,47,1,1,1,,,0,FALSE,1.1298,,,,,,,,,,,,,,,,,,,,,,,,,,,,,,,
,5f7229ef1f8432123d3df17d,627c78f9a5ba515e5d7a3b9d,2022-05-12_05h04.24.795,classification_task,2021.2.3,Win32,60.17933442,627c6715c52fd12f31907bd0,,,,,,,,,,,,,,,,,,,,,,,a,1,"[""0.634"",""0.437"",""0.838"",""0.872""]","[0,1,1,1]",0,48,48,48,1,0,1,,,0,FALSE,1.1185,,,,,,,,,,,,,,,,,,,,,,,,,,,,,,,
,5f7229ef1f8432123d3df17d,627c78f9a5ba515e5d7a3b9d,2022-05-12_05h04.24.795,classification_task,2021.2.3,Win32,60.17933442,627c6715c52fd12f31907bd0,,,,,,,,,,,,,,,,,,,,,,,a,0,"[""0.098"",""0.230"",""0.697"",""0.782""]","[1,1,0,1]",0,49,49,49,1,1,0,,,0,FALSE,0.7057,,,,,,,,,,,,,,,,,,,,,,,,,,,,,,,
,5f7229ef1f8432123d3df17d,627c78f9a5ba515e5d7a3b9d,2022-05-12_05h04.24.795,classification_task,2021.2.3,Win32,60.17933442,627c6715c52fd12f31907bd0,,,,,,,,,,,,,,,,,,,,,,,a,1,"[""0.170"",""0.437"",""0.838"",""0.701""]","[1,1,1,0]",0,50,50,50,1,0,1,,,0,FALSE,0.7623,,,,,,,,,,,,,,,,,,,,,,,,,,,,,,,
,5f7229ef1f8432123d3df17d,627c78f9a5ba515e5d7a3b9d,2022-05-12_05h04.24.795,classification_task,2021.2.3,Win32,60.17933442,627c6715c52fd12f31907bd0,,,,,,,,,,,,,,,,,,,,,,,a,0,"[""0.025"",""0.306"",""0.576"",""0.632""]","[1,1,1,0]",0,51,51,51,1,1,1,,,0,FALSE,0.4666,,,,,,,,,,,,,,,,,,,,,,,,,,,,,,,
,5f7229ef1f8432123d3df17d,627c78f9a5ba515e5d7a3b9d,2022-05-12_05h04.24.795,classification_task,2021.2.3,Win32,60.17933442,627c6715c52fd12f31907bd0,,,,,,,,,,,,,,,,,,,,,,,a,0,"[""0.098"",""0.230"",""0.508"",""0.697""]","[1,1,1,0]",0,52,52,52,1,1,0,,,0,FALSE,0.5381,,,,,,,,,,,,,,,,,,,,,,,,,,,,,,,
,5f7229ef1f8432123d3df17d,627c78f9a5ba515e5d7a3b9d,2022-05-12_05h04.24.795,classification_task,2021.2.3,Win32,60.17933442,627c6715c52fd12f31907bd0,,,,,,,,,,,,,,,,,,,,,,,a,1,"[""0.699"",""0.398"",""0.907"",""0.964""]","[0,1,1,1]",0,53,53,53,1,0,0,,,0,FALSE,0.6229,,,,,,,,,,,,,,,,,,,,,,,,,,,,,,,
,5f7229ef1f8432123d3df17d,627c78f9a5ba515e5d7a3b9d,2022-05-12_05h04.24.795,classification_task,2021.2.3,Win32,60.17933442,627c6715c52fd12f31907bd0,,,,,,,,,,,,,,,,,,,,,,,a,1,"[""0.170"",""0.437"",""0.616"",""0.872""]","[1,1,0,1]",0,54,54,54,1,0,1,,,0,FALSE,0.4183,,,,,,,,,,,,,,,,,,,,,,,,,,,,,,,
,5f7229ef1f8432123d3df17d,627c78f9a5ba515e5d7a3b9d,2022-05-12_05h04.24.795,classification_task,2021.2.3,Win32,60.17933442,627c6715c52fd12f31907bd0,,,,,,,,,,,,,,,,,,,,,,,a,0,"[""0.098"",""0.699"",""0.508"",""0.782""]","[1,0,1,1]",0,55,55,55,1,1,0,,,0,FALSE,0.3561,,,,,,,,,,,,,,,,,,,,,,,,,,,,,,,
,5f7229ef1f8432123d3df17d,627c78f9a5ba515e5d7a3b9d,2022-05-12_05h04.24.795,classification_task,2021.2.3,Win32,60.17933442,627c6715c52fd12f31907bd0,,,,,,,,,,,,,,,,,,,,,,,a,0,"[""0.060"",""0.306"",""0.576"",""0.739""]","[0,1,1,1]",0,56,56,56,1,1,1,,,0,FALSE,1.2961,,,,,,,,,,,,,,,,,,,,,,,,,,,,,,,
,5f7229ef1f8432123d3df17d,627c78f9a5ba515e5d7a3b9d,2022-05-12_05h04.24.795,classification_task,2021.2.3,Win32,60.17933442,627c6715c52fd12f31907bd0,,,,,,,,,,,,,,,,,,,,,,,a,0,"[""0.025"",""0.689"",""0.576"",""0.739""]","[1,0,1,1]",0,57,57,57,1,1,1,,,0,FALSE,0.9226,,,,,,,,,,,,,,,,,,,,,,,,,,,,,,,
,5f7229ef1f8432123d3df17d,627c78f9a5ba515e5d7a3b9d,2022-05-12_05h04.24.795,classification_task,2021.2.3,Win32,60.17933442,627c6715c52fd12f31907bd0,,,,,,,,,,,,,,,,,,,,,,,a,1,"[""0.269"",""0.701"",""0.907"",""0.964""]","[1,0,1,1]",0,58,58,58,1,0,0,,,0,FALSE,0.5475,,,,,,,,,,,,,,,,,,,,,,,,,,,,,,,
,5f7229ef1f8432123d3df17d,627c78f9a5ba515e5d7a3b9d,2022-05-12_05h04.24.795,classification_task,2021.2.3,Win32,60.17933442,627c6715c52fd12f31907bd0,,,,,,,,,,,,,,,,,,,,,,,a,1,"[""0.170"",""0.060"",""0.838"",""0.872""]","[1,0,1,1]",0,59,59,59,1,0,1,,,0,FALSE,0.6304,,,,,,,,,,,,,,,,,,,,,,,,,,,,,,,
,5f7229ef1f8432123d3df17d,627c78f9a5ba515e5d7a3b9d,2022-05-12_05h04.24.795,classification_task,2021.2.3,Win32,60.17933442,627c6715c52fd12f31907bd0,,,,,,,,,,,,,,,,,,,,,,,a,1,"[""0.269"",""0.398"",""0.657"",""0.964""]","[1,1,0,1]",0,60,60,60,1,0,0,,,0,FALSE,0.4545,,,,,,,,,,,,,,,,,,,,,,,,,,,,,,,
,5f7229ef1f8432123d3df17d,627c78f9a5ba515e5d7a3b9d,2022-05-12_05h04.24.795,classification_task,2021.2.3,Win32,60.17933442,627c6715c52fd12f31907bd0,,,,,,,,,,,,,,,,,,,,,,,a,1,"[""0.269"",""0.398"",""0.907"",""0.699""]","[1,1,1,0]",0,61,61,61,1,0,0,,,0,FALSE,0.8985,,,,,,,,,,,,,,,,,,,,,,,,,,,,,,,
,5f7229ef1f8432123d3df17d,627c78f9a5ba515e5d7a3b9d,2022-05-12_05h04.24.795,classification_task,2021.2.3,Win32,60.17933442,627c6715c52fd12f31907bd0,,,,,,,,,,,,,,,,,,,,,,,a,0,"[""0.616"",""0.230"",""0.508"",""0.782""]","[0,1,1,1]",0,62,62,62,1,1,0,,,0,FALSE,0.4832,,,,,,,,,,,,,,,,,,,,,,,,,,,,,,,
,5f7229ef1f8432123d3df17d,627c78f9a5ba515e5d7a3b9d,2022-05-12_05h04.24.795,classification_task,2021.2.3,Win32,60.17933442,627c6715c52fd12f31907bd0,,,,,,,,,,,,,,,,,,,,,,,a,0,"[""0.025"",""0.306"",""0.699"",""0.739""]","[1,1,0,1]",0,63,63,63,1,1,1,,,0,FALSE,0.8298,,,,,,,,,,,,,,,,,,,,,,,,,,,,,,,
,5f7229ef1f8432123d3df17d,627c78f9a5ba515e5d7a3b9d,2022-05-12_05h04.24.795,classification_task,2021.2.3,Win32,60.17933442,627c6715c52fd12f31907bd0,,,,,,,,,,,,,,,,,,,,,,,,,,,,,,,,,,,,,,,0, ,,0,,,0,1,1,1,1,2,2,,,,,,,,,,,,,,,,,,
,5f7229ef1f8432123d3df17d,627c78f9a5ba515e5d7a3b9d,2022-05-12_05h04.24.795,classification_task,2021.2.3,Win32,60.17933442,627c6715c52fd12f31907bd0,,,,,,,,,,,,,,,,,,,,,,,,,,,,,,,,,,,,,,,1,  ,,0,,,0,1,1,1,1,2,2,,,,,,,,,,,,,,,,,,
,5f7229ef1f8432123d3df17d,627c78f9a5ba515e5d7a3b9d,2022-05-12_05h04.24.795,classification_task,2021.2.3,Win32,60.17933442,627c6715c52fd12f31907bd0,,,,,,,,,,,,,,,,,,,,,,,,,,,,,,,,,,,,,,,2,  ,,0,,,0,1,1,1,1,2,2,,,,,,,,,,,,,,,,,,
,5f7229ef1f8432123d3df17d,627c78f9a5ba515e5d7a3b9d,2022-05-12_05h04.24.795,classification_task,2021.2.3,Win32,60.17933442,627c6715c52fd12f31907bd0,,,,,,,,,,,,,,,,,,,,,,,,,,,,,,,,,,,,,,,,,,,,,0,1,1,1,1,,2,,,,,,,,,,,,,,,,,,
,5f7229ef1f8432123d3df17d,627c78f9a5ba515e5d7a3b9d,2022-05-12_05h04.24.795,classification_task,2021.2.3,Win32,60.17933442,627c6715c52fd12f31907bd0,,,,,,,,,,,,,,,,,,,,,space,11.59,l,0,"[""0.701"",""0.398"",""0.907"",""0.964""]","[0,1,1,1]",0,0,0,0,1,0,0,,,0,FALSE,1.8909,,,,,,,,,,,,,,,,,,,,,,,,,,,,,,,
,5f7229ef1f8432123d3df17d,627c78f9a5ba515e5d7a3b9d,2022-05-12_05h04.24.795,classification_task,2021.2.3,Win32,60.17933442,627c6715c52fd12f31907bd0,,,,,,,,,,,,,,,,,,,,,,,a,1,"[""0.269"",""0.398"",""0.632"",""0.964""]","[1,1,0,1]",0,1,1,1,1,0,0,,,0,FALSE,1.931,,,,,,,,,,,,,,,,,,,,,,,,,,,,,,,
,5f7229ef1f8432123d3df17d,627c78f9a5ba515e5d7a3b9d,2022-05-12_05h04.24.795,classification_task,2021.2.3,Win32,60.17933442,627c6715c52fd12f31907bd0,,,,,,,,,,,,,,,,,,,,,,,a,0,"[""0.098"",""0.230"",""0.625"",""0.782""]","[1,1,0,1]",0,2,2,2,1,1,0,,,0,FALSE,0.8858,,,,,,,,,,,,,,,,,,,,,,,,,,,,,,,
,5f7229ef1f8432123d3df17d,627c78f9a5ba515e5d7a3b9d,2022-05-12_05h04.24.795,classification_task,2021.2.3,Win32,60.17933442,627c6715c52fd12f31907bd0,,,,,,,,,,,,,,,,,,,,,,,a,0,"[""0.060"",""0.306"",""0.576"",""0.739""]","[0,1,1,1]",0,3,3,3,1,1,1,,,0,FALSE,1.1153,,,,,,,,,,,,,,,,,,,,,,,,,,,,,,,
,5f7229ef1f8432123d3df17d,627c78f9a5ba515e5d7a3b9d,2022-05-12_05h04.24.795,classification_task,2021.2.3,Win32,60.17933442,627c6715c52fd12f31907bd0,,,,,,,,,,,,,,,,,,,,,,,l,0,"[""0.170"",""0.678"",""0.838"",""0.872""]","[1,0,1,1]",0,4,4,4,1,0,1,,,0,FALSE,0.9676,,,,,,,,,,,,,,,,,,,,,,,,,,,,,,,
,5f7229ef1f8432123d3df17d,627c78f9a5ba515e5d7a3b9d,2022-05-12_05h04.24.795,classification_task,2021.2.3,Win32,60.17933442,627c6715c52fd12f31907bd0,,,,,,,,,,,,,,,,,,,,,,,l,0,"[""0.269"",""0.634"",""0.907"",""0.964""]","[1,0,1,1]",0,5,5,5,1,0,0,,,0,FALSE,0.6378,,,,,,,,,,,,,,,,,,,,,,,,,,,,,,,
,5f7229ef1f8432123d3df17d,627c78f9a5ba515e5d7a3b9d,2022-05-12_05h04.24.795,classification_task,2021.2.3,Win32,60.17933442,627c6715c52fd12f31907bd0,,,,,,,,,,,,,,,,,,,,,,,l,1,"[""0.025"",""0.306"",""0.648"",""0.739""]","[1,1,0,1]",0,6,6,6,1,1,1,,,0,FALSE,0.949,,,,,,,,,,,,,,,,,,,,,,,,,,,,,,,
,5f7229ef1f8432123d3df17d,627c78f9a5ba515e5d7a3b9d,2022-05-12_05h04.24.795,classification_task,2021.2.3,Win32,60.17933442,627c6715c52fd12f31907bd0,,,,,,,,,,,,,,,,,,,,,,,a,0,"[""0.098"",""0.230"",""0.508"",""0.343""]","[1,1,1,0]",0,7,7,7,1,1,0,,,0,FALSE,0.9415,,,,,,,,,,,,,,,,,,,,,,,,,,,,,,,
,5f7229ef1f8432123d3df17d,627c78f9a5ba515e5d7a3b9d,2022-05-12_05h04.24.795,classification_task,2021.2.3,Win32,60.17933442,627c6715c52fd12f31907bd0,,,,,,,,,,,,,,,,,,,,,,,a,0,"[""0.025"",""0.306"",""0.576"",""0.689""]","[1,1,1,0]",0,8,8,8,1,1,1,,,0,FALSE,0.4327,,,,,,,,,,,,,,,,,,,,,,,,,,,,,,,
,5f7229ef1f8432123d3df17d,627c78f9a5ba515e5d7a3b9d,2022-05-12_05h04.24.795,classification_task,2021.2.3,Win32,60.17933442,627c6715c52fd12f31907bd0,,,,,,,,,,,,,,,,,,,,,,,a,0,"[""0.632"",""0.230"",""0.508"",""0.782""]","[0,1,1,1]",0,9,9,9,1,1,0,,,0,FALSE,0.435,,,,,,,,,,,,,,,,,,,,,,,,,,,,,,,
,5f7229ef1f8432123d3df17d,627c78f9a5ba515e5d7a3b9d,2022-05-12_05h04.24.795,classification_task,2021.2.3,Win32,60.17933442,627c6715c52fd12f31907bd0,,,,,,,,,,,,,,,,,,,,,,,a,0,"[""0.098"",""0.699"",""0.508"",""0.782""]","[1,0,1,1]",0,10,10,10,1,1,0,,,0,FALSE,0.5215,,,,,,,,,,,,,,,,,,,,,,,,,,,,,,,
,5f7229ef1f8432123d3df17d,627c78f9a5ba515e5d7a3b9d,2022-05-12_05h04.24.795,classification_task,2021.2.3,Win32,60.17933442,627c6715c52fd12f31907bd0,,,,,,,,,,,,,,,,,,,,,,,l,0,"[""0.648"",""0.437"",""0.838"",""0.872""]","[0,1,1,1]",0,11,11,11,1,0,1,,,0,FALSE,1.2491,,,,,,,,,,,,,,,,,,,,,,,,,,,,,,,
,5f7229ef1f8432123d3df17d,627c78f9a5ba515e5d7a3b9d,2022-05-12_05h04.24.795,classification_task,2021.2.3,Win32,60.17933442,627c6715c52fd12f31907bd0,,,,,,,,,,,,,,,,,,,,,,,a,1,"[""0.170"",""0.437"",""0.060"",""0.872""]","[1,1,0,1]",0,12,12,12,1,0,1,,,0,FALSE,1.8094,,,,,,,,,,,,,,,,,,,,,,,,,,,,,,,
,5f7229ef1f8432123d3df17d,627c78f9a5ba515e5d7a3b9d,2022-05-12_05h04.24.795,classification_task,2021.2.3,Win32,60.17933442,627c6715c52fd12f31907bd0,,,,,,,,,,,,,,,,,,,,,,,l,1,"[""0.025"",""0.697"",""0.576"",""0.739""]","[1,0,1,1]",0,13,13,13,1,1,1,,,0,FALSE,1.0989,,,,,,,,,,,,,,,,,,,,,,,,,,,,,,,
,5f7229ef1f8432123d3df17d,627c78f9a5ba515e5d7a3b9d,2022-05-12_05h04.24.795,classification_task,2021.2.3,Win32,60.17933442,627c6715c52fd12f31907bd0,,,,,,,,,,,,,,,,,,,,,,,a,1,"[""0.170"",""0.437"",""0.838"",""0.648""]","[1,1,1,0]",0,14,14,14,1,0,1,,,0,FALSE,0.9909,,,,,,,,,,,,,,,,,,,,,,,,,,,,,,,
,5f7229ef1f8432123d3df17d,627c78f9a5ba515e5d7a3b9d,2022-05-12_05h04.24.795,classification_task,2021.2.3,Win32,60.17933442,627c6715c52fd12f31907bd0,,,,,,,,,,,,,,,,,,,,,,,a,1,"[""0.269"",""0.398"",""0.907"",""0.701""]","[1,1,1,0]",0,15,15,15,1,0,0,,,0,FALSE,1.0012,,,,,,,,,,,,,,,,,,,,,,,,,,,,,,,
,5f7229ef1f8432123d3df17d,627c78f9a5ba515e5d7a3b9d,2022-05-12_05h04.24.795,classification_task,2021.2.3,Win32,60.17933442,627c6715c52fd12f31907bd0,,,,,,,,,,,,,,,,,,,,,,,l,1,"[""0.025"",""0.306"",""0.689"",""0.739""]","[1,1,0,1]",0,16,16,16,1,1,1,,,0,FALSE,1.2653,,,,,,,,,,,,,,,,,,,,,,,,,,,,,,,
,5f7229ef1f8432123d3df17d,627c78f9a5ba515e5d7a3b9d,2022-05-12_05h04.24.795,classification_task,2021.2.3,Win32,60.17933442,627c6715c52fd12f31907bd0,,,,,,,,,,,,,,,,,,,,,,,l,1,"[""0.025"",""0.616"",""0.576"",""0.739""]","[1,0,1,1]",0,17,17,17,1,1,1,,,0,FALSE,0.8078,,,,,,,,,,,,,,,,,,,,,,,,,,,,,,,
,5f7229ef1f8432123d3df17d,627c78f9a5ba515e5d7a3b9d,2022-05-12_05h04.24.795,classification_task,2021.2.3,Win32,60.17933442,627c6715c52fd12f31907bd0,,,,,,,,,,,,,,,,,,,,,,,a,0,"[""0.657"",""0.230"",""0.508"",""0.782""]","[0,1,1,1]",0,18,18,18,1,1,0,,,0,FALSE,1.1663,,,,,,,,,,,,,,,,,,,,,,,,,,,,,,,
,5f7229ef1f8432123d3df17d,627c78f9a5ba515e5d7a3b9d,2022-05-12_05h04.24.795,classification_task,2021.2.3,Win32,60.17933442,627c6715c52fd12f31907bd0,,,,,,,,,,,,,,,,,,,,,,,a,1,"[""0.170"",""0.437"",""0.657"",""0.872""]","[1,1,0,1]",0,19,19,19,1,0,1,,,0,FALSE,1.1897,,,,,,,,,,,,,,,,,,,,,,,,,,,,,,,
,5f7229ef1f8432123d3df17d,627c78f9a5ba515e5d7a3b9d,2022-05-12_05h04.24.795,classification_task,2021.2.3,Win32,60.17933442,627c6715c52fd12f31907bd0,,,,,,,,,,,,,,,,,,,,,,,a,0,"[""0.098"",""0.230"",""0.697"",""0.782""]","[1,1,0,1]",0,20,20,20,1,1,0,,,0,FALSE,0.9657,,,,,,,,,,,,,,,,,,,,,,,,,,,,,,,
,5f7229ef1f8432123d3df17d,627c78f9a5ba515e5d7a3b9d,2022-05-12_05h04.24.795,classification_task,2021.2.3,Win32,60.17933442,627c6715c52fd12f31907bd0,,,,,,,,,,,,,,,,,,,,,,,a,0,"[""0.025"",""0.306"",""0.576"",""0.657""]","[1,1,1,0]",0,21,21,21,1,1,1,,,0,FALSE,0.6064,,,,,,,,,,,,,,,,,,,,,,,,,,,,,,,
,5f7229ef1f8432123d3df17d,627c78f9a5ba515e5d7a3b9d,2022-05-12_05h04.24.795,classification_task,2021.2.3,Win32,60.17933442,627c6715c52fd12f31907bd0,,,,,,,,,,,,,,,,,,,,,,,a,1,"[""0.648"",""0.437"",""0.838"",""0.872""]","[0,1,1,1]",0,22,22,22,1,0,1,,,0,FALSE,0.748,,,,,,,,,,,,,,,,,,,,,,,,,,,,,,,
,5f7229ef1f8432123d3df17d,627c78f9a5ba515e5d7a3b9d,2022-05-12_05h04.24.795,classification_task,2021.2.3,Win32,60.17933442,627c6715c52fd12f31907bd0,,,,,,,,,,,,,,,,,,,,,,,a,0,"[""0.098"",""0.616"",""0.508"",""0.782""]","[1,0,1,1]",0,23,23,23,1,1,0,,,0,FALSE,0.6247,,,,,,,,,,,,,,,,,,,,,,,,,,,,,,,
,5f7229ef1f8432123d3df17d,627c78f9a5ba515e5d7a3b9d,2022-05-12_05h04.24.795,classification_task,2021.2.3,Win32,60.17933442,627c6715c52fd12f31907bd0,,,,,,,,,,,,,,,,,,,,,,,a,0,"[""0.060"",""0.306"",""0.576"",""0.739""]","[0,1,1,1]",0,24,24,24,1,1,1,,,0,FALSE,0.8158,,,,,,,,,,,,,,,,,,,,,,,,,,,,,,,
,5f7229ef1f8432123d3df17d,627c78f9a5ba515e5d7a3b9d,2022-05-12_05h04.24.795,classification_task,2021.2.3,Win32,60.17933442,627c6715c52fd12f31907bd0,,,,,,,,,,,,,,,,,,,,,,,a,1,"[""0.269"",""0.398"",""0.642"",""0.964""]","[1,1,0,1]",0,25,25,25,1,0,0,,,0,FALSE,0.7822,,,,,,,,,,,,,,,,,,,,,,,,,,,,,,,
,5f7229ef1f8432123d3df17d,627c78f9a5ba515e5d7a3b9d,2022-05-12_05h04.24.795,classification_task,2021.2.3,Win32,60.17933442,627c6715c52fd12f31907bd0,,,,,,,,,,,,,,,,,,,,,,,a,1,"[""0.170"",""0.701"",""0.838"",""0.872""]","[1,0,1,1]",0,26,26,26,1,0,1,,,0,FALSE,0.732,,,,,,,,,,,,,,,,,,,,,,,,,,,,,,,
,5f7229ef1f8432123d3df17d,627c78f9a5ba515e5d7a3b9d,2022-05-12_05h04.24.795,classification_task,2021.2.3,Win32,60.17933442,627c6715c52fd12f31907bd0,,,,,,,,,,,,,,,,,,,,,,,l,0,"[""0.701"",""0.398"",""0.907"",""0.964""]","[0,1,1,1]",0,27,27,27,1,0,0,,,0,FALSE,1.8393,,,,,,,,,,,,,,,,,,,,,,,,,,,,,,,
,5f7229ef1f8432123d3df17d,627c78f9a5ba515e5d7a3b9d,2022-05-12_05h04.24.795,classification_task,2021.2.3,Win32,60.17933442,627c6715c52fd12f31907bd0,,,,,,,,,,,,,,,,,,,,,,,a,0,"[""0.098"",""0.230"",""0.508"",""0.616""]","[1,1,1,0]",0,28,28,28,1,1,0,,,0,FALSE,2.6753,,,,,,,,,,,,,,,,,,,,,,,,,,,,,,,
,5f7229ef1f8432123d3df17d,627c78f9a5ba515e5d7a3b9d,2022-05-12_05h04.24.795,classification_task,2021.2.3,Win32,60.17933442,627c6715c52fd12f31907bd0,,,,,,,,,,,,,,,,,,,,,,,a,1,"[""0.170"",""0.437"",""0.838"",""0.657""]","[1,1,1,0]",0,29,29,29,1,0,1,,,0,FALSE,1.247,,,,,,,,,,,,,,,,,,,,,,,,,,,,,,,
,5f7229ef1f8432123d3df17d,627c78f9a5ba515e5d7a3b9d,2022-05-12_05h04.24.795,classification_task,2021.2.3,Win32,60.17933442,627c6715c52fd12f31907bd0,,,,,,,,,,,,,,,,,,,,,,,l,0,"[""0.269"",""0.689"",""0.907"",""0.964""]","[1,0,1,1]",0,30,30,30,1,0,0,,,0,FALSE,1.2888,,,,,,,,,,,,,,,,,,,,,,,,,,,,,,,
,5f7229ef1f8432123d3df17d,627c78f9a5ba515e5d7a3b9d,2022-05-12_05h04.24.795,classification_task,2021.2.3,Win32,60.17933442,627c6715c52fd12f31907bd0,,,,,,,,,,,,,,,,,,,,,,,a,1,"[""0.269"",""0.398"",""0.907"",""0.699""]","[1,1,1,0]",0,31,31,31,1,0,0,,,0,FALSE,1.0196,,,,,,,,,,,,,,,,,,,,,,,,,,,,,,,
,5f7229ef1f8432123d3df17d,627c78f9a5ba515e5d7a3b9d,2022-05-12_05h04.24.795,classification_task,2021.2.3,Win32,60.17933442,627c6715c52fd12f31907bd0,,,,,,,,,,,,,,,,,,,,,,,a,1,"[""0.269"",""0.398"",""0.907"",""0.648""]","[1,1,1,0]",0,32,32,32,1,0,0,,,0,FALSE,1.5651,,,,,,,,,,,,,,,,,,,,,,,,,,,,,,,
,5f7229ef1f8432123d3df17d,627c78f9a5ba515e5d7a3b9d,2022-05-12_05h04.24.795,classification_task,2021.2.3,Win32,60.17933442,627c6715c52fd12f31907bd0,,,,,,,,,,,,,,,,,,,,,,,a,0,"[""0.098"",""0.701"",""0.508"",""0.782""]","[1,0,1,1]",0,33,33,33,1,1,0,,,0,FALSE,1.1088,,,,,,,,,,,,,,,,,,,,,,,,,,,,,,,
,5f7229ef1f8432123d3df17d,627c78f9a5ba515e5d7a3b9d,2022-05-12_05h04.24.795,classification_task,2021.2.3,Win32,60.17933442,627c6715c52fd12f31907bd0,,,,,,,,,,,,,,,,,,,,,,,a,0,"[""0.701"",""0.230"",""0.508"",""0.782""]","[0,1,1,1]",0,34,34,34,1,1,0,,,0,FALSE,0.8994,,,,,,,,,,,,,,,,,,,,,,,,,,,,,,,
,5f7229ef1f8432123d3df17d,627c78f9a5ba515e5d7a3b9d,2022-05-12_05h04.24.795,classification_task,2021.2.3,Win32,60.17933442,627c6715c52fd12f31907bd0,,,,,,,,,,,,,,,,,,,,,,,l,0,"[""0.678"",""0.398"",""0.907"",""0.964""]","[0,1,1,1]",0,35,35,35,1,0,0,,,0,FALSE,1.9816,,,,,,,,,,,,,,,,,,,,,,,,,,,,,,,
,5f7229ef1f8432123d3df17d,627c78f9a5ba515e5d7a3b9d,2022-05-12_05h04.24.795,classification_task,2021.2.3,Win32,60.17933442,627c6715c52fd12f31907bd0,,,,,,,,,,,,,,,,,,,,,,,a,0,"[""0.098"",""0.230"",""0.625"",""0.782""]","[1,1,0,1]",0,36,36,36,1,1,0,,,0,FALSE,1.1766,,,,,,,,,,,,,,,,,,,,,,,,,,,,,,,
,5f7229ef1f8432123d3df17d,627c78f9a5ba515e5d7a3b9d,2022-05-12_05h04.24.795,classification_task,2021.2.3,Win32,60.17933442,627c6715c52fd12f31907bd0,,,,,,,,,,,,,,,,,,,,,,,l,0,"[""0.170"",""0.437"",""0.616"",""0.872""]","[1,1,0,1]",0,37,37,37,1,0,1,,,0,FALSE,0.9644,,,,,,,,,,,,,,,,,,,,,,,,,,,,,,,
,5f7229ef1f8432123d3df17d,627c78f9a5ba515e5d7a3b9d,2022-05-12_05h04.24.795,classification_task,2021.2.3,Win32,60.17933442,627c6715c52fd12f31907bd0,,,,,,,,,,,,,,,,,,,,,,,l,1,"[""0.025"",""0.306"",""0.576"",""0.343""]","[1,1,1,0]",0,38,38,38,1,1,1,,,0,FALSE,1.0575,,,,,,,,,,,,,,,,,,,,,,,,,,,,,,,
,5f7229ef1f8432123d3df17d,627c78f9a5ba515e5d7a3b9d,2022-05-12_05h04.24.795,classification_task,2021.2.3,Win32,60.17933442,627c6715c52fd12f31907bd0,,,,,,,,,,,,,,,,,,,,,,,l,1,"[""0.697"",""0.306"",""0.576"",""0.739""]","[0,1,1,1]",0,39,39,39,1,1,1,,,0,FALSE,1.022,,,,,,,,,,,,,,,,,,,,,,,,,,,,,,,
,5f7229ef1f8432123d3df17d,627c78f9a5ba515e5d7a3b9d,2022-05-12_05h04.24.795,classification_task,2021.2.3,Win32,60.17933442,627c6715c52fd12f31907bd0,,,,,,,,,,,,,,,,,,,,,,,a,0,"[""0.025"",""0.689"",""0.576"",""0.739""]","[1,0,1,1]",0,40,40,40,1,1,1,,,0,FALSE,0.4244,,,,,,,,,,,,,,,,,,,,,,,,,,,,,,,
,5f7229ef1f8432123d3df17d,627c78f9a5ba515e5d7a3b9d,2022-05-12_05h04.24.795,classification_task,2021.2.3,Win32,60.17933442,627c6715c52fd12f31907bd0,,,,,,,,,,,,,,,,,,,,,,,a,1,"[""0.269"",""0.398"",""0.634"",""0.964""]","[1,1,0,1]",0,41,41,41,1,0,0,,,0,FALSE,0.566,,,,,,,,,,,,,,,,,,,,,,,,,,,,,,,
,5f7229ef1f8432123d3df17d,627c78f9a5ba515e5d7a3b9d,2022-05-12_05h04.24.795,classification_task,2021.2.3,Win32,60.17933442,627c6715c52fd12f31907bd0,,,,,,,,,,,,,,,,,,,,,,,l,0,"[""0.060"",""0.437"",""0.838"",""0.872""]","[0,1,1,1]",0,42,42,42,1,0,1,,,0,FALSE,1.1487,,,,,,,,,,,,,,,,,,,,,,,,,,,,,,,
,5f7229ef1f8432123d3df17d,627c78f9a5ba515e5d7a3b9d,2022-05-12_05h04.24.795,classification_task,2021.2.3,Win32,60.17933442,627c6715c52fd12f31907bd0,,,,,,,,,,,,,,,,,,,,,,,l,1,"[""0.025"",""0.306"",""0.701"",""0.739""]","[1,1,0,1]",0,43,43,43,1,1,1,,,0,FALSE,1.0961,,,,,,,,,,,,,,,,,,,,,,,,,,,,,,,
,5f7229ef1f8432123d3df17d,627c78f9a5ba515e5d7a3b9d,2022-05-12_05h04.24.795,classification_task,2021.2.3,Win32,60.17933442,627c6715c52fd12f31907bd0,,,,,,,,,,,,,,,,,,,,,,,a,0,"[""0.098"",""0.230"",""0.508"",""0.642""]","[1,1,1,0]",0,44,44,44,1,1,0,,,0,FALSE,0.5542,,,,,,,,,,,,,,,,,,,,,,,,,,,,,,,
,5f7229ef1f8432123d3df17d,627c78f9a5ba515e5d7a3b9d,2022-05-12_05h04.24.795,classification_task,2021.2.3,Win32,60.17933442,627c6715c52fd12f31907bd0,,,,,,,,,,,,,,,,,,,,,,,a,1,"[""0.170"",""0.437"",""0.838"",""0.678""]","[1,1,1,0]",0,45,45,45,1,0,1,,,0,FALSE,0.519,,,,,,,,,,,,,,,,,,,,,,,,,,,,,,,
,5f7229ef1f8432123d3df17d,627c78f9a5ba515e5d7a3b9d,2022-05-12_05h04.24.795,classification_task,2021.2.3,Win32,60.17933442,627c6715c52fd12f31907bd0,,,,,,,,,,,,,,,,,,,,,,,a,1,"[""0.170"",""0.697"",""0.838"",""0.872""]","[1,0,1,1]",0,46,46,46,1,0,1,,,0,FALSE,1.1028,,,,,,,,,,,,,,,,,,,,,,,,,,,,,,,
,5f7229ef1f8432123d3df17d,627c78f9a5ba515e5d7a3b9d,2022-05-12_05h04.24.795,classification_task,2021.2.3,Win32,60.17933442,627c6715c52fd12f31907bd0,,,,,,,,,,,,,,,,,,,,,,,a,1,"[""0.269"",""0.697"",""0.907"",""0.964""]","[1,0,1,1]",0,47,47,47,1,0,0,,,0,FALSE,1.1653,,,,,,,,,,,,,,,,,,,,,,,,,,,,,,,
,5f7229ef1f8432123d3df17d,627c78f9a5ba515e5d7a3b9d,2022-05-12_05h04.24.795,classification_task,2021.2.3,Win32,60.17933442,627c6715c52fd12f31907bd0,,,,,,,,,,,,,,,,,,,,,,,a,0,"[""0.025"",""0.306"",""0.576"",""0.642""]","[1,1,1,0]",0,48,48,48,1,1,1,,,0,FALSE,0.75,,,,,,,,,,,,,,,,,,,,,,,,,,,,,,,
,5f7229ef1f8432123d3df17d,627c78f9a5ba515e5d7a3b9d,2022-05-12_05h04.24.795,classification_task,2021.2.3,Win32,60.17933442,627c6715c52fd12f31907bd0,,,,,,,,,,,,,,,,,,,,,,,a,1,"[""0.170"",""0.437"",""0.625"",""0.872""]","[1,1,0,1]",0,49,49,49,1,0,1,,,0,FALSE,1.2822,,,,,,,,,,,,,,,,,,,,,,,,,,,,,,,
,5f7229ef1f8432123d3df17d,627c78f9a5ba515e5d7a3b9d,2022-05-12_05h04.24.795,classification_task,2021.2.3,Win32,60.17933442,627c6715c52fd12f31907bd0,,,,,,,,,,,,,,,,,,,,,,,a,1,"[""0.170"",""0.689"",""0.838"",""0.872""]","[1,0,1,1]",0,50,50,50,1,0,1,,,0,FALSE,0.4829,,,,,,,,,,,,,,,,,,,,,,,,,,,,,,,
,5f7229ef1f8432123d3df17d,627c78f9a5ba515e5d7a3b9d,2022-05-12_05h04.24.795,classification_task,2021.2.3,Win32,60.17933442,627c6715c52fd12f31907bd0,,,,,,,,,,,,,,,,,,,,,,,a,1,"[""0.269"",""0.642"",""0.907"",""0.964""]","[1,0,1,1]",0,51,51,51,1,0,0,,,0,FALSE,1.4319,,,,,,,,,,,,,,,,,,,,,,,,,,,,,,,
,5f7229ef1f8432123d3df17d,627c78f9a5ba515e5d7a3b9d,2022-05-12_05h04.24.795,classification_task,2021.2.3,Win32,60.17933442,627c6715c52fd12f31907bd0,,,,,,,,,,,,,,,,,,,,,,,l,1,"[""0.025"",""0.616"",""0.576"",""0.739""]","[1,0,1,1]",0,52,52,52,1,1,1,,,0,FALSE,1.5816,,,,,,,,,,,,,,,,,,,,,,,,,,,,,,,
,5f7229ef1f8432123d3df17d,627c78f9a5ba515e5d7a3b9d,2022-05-12_05h04.24.795,classification_task,2021.2.3,Win32,60.17933442,627c6715c52fd12f31907bd0,,,,,,,,,,,,,,,,,,,,,,,a,1,"[""0.170"",""0.437"",""0.838"",""0.701""]","[1,1,1,0]",0,53,53,53,1,0,1,,,0,FALSE,1.0851,,,,,,,,,,,,,,,,,,,,,,,,,,,,,,,
,5f7229ef1f8432123d3df17d,627c78f9a5ba515e5d7a3b9d,2022-05-12_05h04.24.795,classification_task,2021.2.3,Win32,60.17933442,627c6715c52fd12f31907bd0,,,,,,,,,,,,,,,,,,,,,,,a,0,"[""0.025"",""0.306"",""0.689"",""0.739""]","[1,1,0,1]",0,54,54,54,1,1,1,,,0,FALSE,1.8481,,,,,,,,,,,,,,,,,,,,,,,,,,,,,,,
,5f7229ef1f8432123d3df17d,627c78f9a5ba515e5d7a3b9d,2022-05-12_05h04.24.795,classification_task,2021.2.3,Win32,60.17933442,627c6715c52fd12f31907bd0,,,,,,,,,,,,,,,,,,,,,,,a,0,"[""0.657"",""0.230"",""0.508"",""0.782""]","[0,1,1,1]",0,55,55,55,1,1,0,,,0,FALSE,3.1464,,,,,,,,,,,,,,,,,,,,,,,,,,,,,,,
,5f7229ef1f8432123d3df17d,627c78f9a5ba515e5d7a3b9d,2022-05-12_05h04.24.795,classification_task,2021.2.3,Win32,60.17933442,627c6715c52fd12f31907bd0,,,,,,,,,,,,,,,,,,,,,,,a,0,"[""0.098"",""0.648"",""0.508"",""0.782""]","[1,0,1,1]",0,56,56,56,1,1,0,,,0,FALSE,0.7103,,,,,,,,,,,,,,,,,,,,,,,,,,,,,,,
,5f7229ef1f8432123d3df17d,627c78f9a5ba515e5d7a3b9d,2022-05-12_05h04.24.795,classification_task,2021.2.3,Win32,60.17933442,627c6715c52fd12f31907bd0,,,,,,,,,,,,,,,,,,,,,,,a,0,"[""0.697"",""0.306"",""0.576"",""0.739""]","[0,1,1,1]",0,57,57,57,1,1,1,,,0,FALSE,1.3183,,,,,,,,,,,,,,,,,,,,,,,,,,,,,,,
,5f7229ef1f8432123d3df17d,627c78f9a5ba515e5d7a3b9d,2022-05-12_05h04.24.795,classification_task,2021.2.3,Win32,60.17933442,627c6715c52fd12f31907bd0,,,,,,,,,,,,,,,,,,,,,,,l,0,"[""0.634"",""0.437"",""0.838"",""0.872""]","[0,1,1,1]",0,58,58,58,1,0,1,,,0,FALSE,1.2718,,,,,,,,,,,,,,,,,,,,,,,,,,,,,,,
,5f7229ef1f8432123d3df17d,627c78f9a5ba515e5d7a3b9d,2022-05-12_05h04.24.795,classification_task,2021.2.3,Win32,60.17933442,627c6715c52fd12f31907bd0,,,,,,,,,,,,,,,,,,,,,,,a,1,"[""0.269"",""0.398"",""0.678"",""0.964""]","[1,1,0,1]",0,59,59,59,1,0,0,,,0,FALSE,1.4742,,,,,,,,,,,,,,,,,,,,,,,,,,,,,,,
,5f7229ef1f8432123d3df17d,627c78f9a5ba515e5d7a3b9d,2022-05-12_05h04.24.795,classification_task,2021.2.3,Win32,60.17933442,627c6715c52fd12f31907bd0,,,,,,,,,,,,,,,,,,,,,,,a,1,"[""0.269"",""0.398"",""0.907"",""0.689""]","[1,1,1,0]",0,60,60,60,1,0,0,,,0,FALSE,0.9316,,,,,,,,,,,,,,,,,,,,,,,,,,,,,,,
,5f7229ef1f8432123d3df17d,627c78f9a5ba515e5d7a3b9d,2022-05-12_05h04.24.795,classification_task,2021.2.3,Win32,60.17933442,627c6715c52fd12f31907bd0,,,,,,,,,,,,,,,,,,,,,,,a,1,"[""0.642"",""0.398"",""0.907"",""0.964""]","[0,1,1,1]",0,61,61,61,1,0,0,,,0,FALSE,0.9355,,,,,,,,,,,,,,,,,,,,,,,,,,,,,,,
,5f7229ef1f8432123d3df17d,627c78f9a5ba515e5d7a3b9d,2022-05-12_05h04.24.795,classification_task,2021.2.3,Win32,60.17933442,627c6715c52fd12f31907bd0,,,,,,,,,,,,,,,,,,,,,,,a,0,"[""0.098"",""0.230"",""0.508"",""0.634""]","[1,1,1,0]",0,62,62,62,1,1,0,,,0,FALSE,0.7419,,,,,,,,,,,,,,,,,,,,,,,,,,,,,,,
,5f7229ef1f8432123d3df17d,627c78f9a5ba515e5d7a3b9d,2022-05-12_05h04.24.795,classification_task,2021.2.3,Win32,60.17933442,627c6715c52fd12f31907bd0,,,,,,,,,,,,,,,,,,,,,,,a,0,"[""0.098"",""0.230"",""0.616"",""0.782""]","[1,1,0,1]",0,63,63,63,1,1,0,,,0,FALSE,0.9019,,,,,,,,,,,,,,,,,,,,,,,,,,,,,,,
,5f7229ef1f8432123d3df17d,627c78f9a5ba515e5d7a3b9d,2022-05-12_05h04.24.795,classification_task,2021.2.3,Win32,60.17933442,627c6715c52fd12f31907bd0,,,,,,,,,,,,,,,,,,,,,,,,,,,,,,,,,,,,,,,0, ,,0,10,153.7702,0,2,2,2,1,2,3,,,,,,,,,,,,,,,,,,
,5f7229ef1f8432123d3df17d,627c78f9a5ba515e5d7a3b9d,2022-05-12_05h04.24.795,classification_task,2021.2.3,Win32,60.17933442,627c6715c52fd12f31907bd0,,,,,,,,,,,,,,,,,,,,,,,,,,,,,,,,,,,,,,,1,  ,,0,3.070987654,160.5312,0,2,2,2,1,2,3,,,,,,,,,,,,,,,,,,
,5f7229ef1f8432123d3df17d,627c78f9a5ba515e5d7a3b9d,2022-05-12_05h04.24.795,classification_task,2021.2.3,Win32,60.17933442,627c6715c52fd12f31907bd0,,,,,,,,,,,,,,,,,,,,,,,,,,,,,,,,,,,,,,,2,  ,,0,7.063737765,165.5681,0,2,2,2,1,2,3,,,,,,,,,,,,,,,,,,
,5f7229ef1f8432123d3df17d,627c78f9a5ba515e5d7a3b9d,2022-05-12_05h04.24.795,classification_task,2021.2.3,Win32,60.17933442,627c6715c52fd12f31907bd0,,,,,,,,,,,,,,,,,,,,,,,,,,,,,,,,,,,,,,,,,,,,,0,2,2,2,1,,3,,,,,,,,,,,,,,,,,,
,5f7229ef1f8432123d3df17d,627c78f9a5ba515e5d7a3b9d,2022-05-12_05h04.24.795,classification_task,2021.2.3,Win32,60.17933442,627c6715c52fd12f31907bd0,,,,,,,,,,,,,,,,,,,,,,,,,,,,,,,,,,,,,,,,,,,,,,,,,,,,,I believe the aid is a competent performer,,0.7,0,1,1102.5543,0,0,0,0,1,0,,,,,
,5f7229ef1f8432123d3df17d,627c78f9a5ba515e5d7a3b9d,2022-05-12_05h04.24.795,classification_task,2021.2.3,Win32,60.17933442,627c6715c52fd12f31907bd0,,,,,,,,,,,,,,,,,,,,,,,,,,,,,,,,,,,,,,,,,,,,,,,,,,,,,I trust the aid,,0.7,0,2,1107.8147,0,0,0,0,1,0,,,,,
,5f7229ef1f8432123d3df17d,627c78f9a5ba515e5d7a3b9d,2022-05-12_05h04.24.795,classification_task,2021.2.3,Win32,60.17933442,627c6715c52fd12f31907bd0,,,,,,,,,,,,,,,,,,,,,,,,,,,,,,,,,,,,,,,,,,,,,,,,,,,,,I have confidence in the advice given by the aid,,0.7,0,1,1111.1929,0,0,0,0,1,0,,,,,
,5f7229ef1f8432123d3df17d,627c78f9a5ba515e5d7a3b9d,2022-05-12_05h04.24.795,classification_task,2021.2.3,Win32,60.17933442,627c6715c52fd12f31907bd0,,,,,,,,,,,,,,,,,,,,,,,,,,,,,,,,,,,,,,,,,,,,,,,,,,,,,I can depend on the aid,,0.7,0,1,1114.3736,0,0,0,0,1,0,,,,,
,5f7229ef1f8432123d3df17d,627c78f9a5ba515e5d7a3b9d,2022-05-12_05h04.24.795,classification_task,2021.2.3,Win32,60.17933442,627c6715c52fd12f31907bd0,,,,,,,,,,,,,,,,,,,,,,,,,,,,,,,,,,,,,,,,,,,,,,,,,,,,,I can rely on the aid to behave in consistent ways,,0.7,0,1,1117.9945,0,0,0,0,1,0,,,,,
,5f7229ef1f8432123d3df17d,627c78f9a5ba515e5d7a3b9d,2022-05-12_05h04.24.795,classification_task,2021.2.3,Win32,60.17933442,627c6715c52fd12f31907bd0,,,,,,,,,,,,,,,,,,,,,,,,,,,,,,,,,,,,,,,,,,,,,,,,,,,,,I can rely on the aid to do its best every time I take its advice,,0.7,0,3,1122.9966,0,0,0,0,1,0,,,,,
,5f7229ef1f8432123d3df17d,627c78f9a5ba515e5d7a3b9d,2022-05-12_05h04.24.795,classification_task,2021.2.3,Win32,60.17933442,627c6715c52fd12f31907bd0,,,,,,,,,,,,,,,,,,,,,,,,,,,,,,,,,,,,,,,,,,,,,,,,,,,,,"On trials you completed with assistance from the aid, how frequently did you think the aid was correct?",,0.7,0,50%,,0,0,0,0,1,0,,,,,
,5f7229ef1f8432123d3df17d,627c78f9a5ba515e5d7a3b9d,2022-05-12_05h04.24.795,classification_task,2021.2.3,Win32,60.17933442,627c6715c52fd12f31907bd0,,,,,,,,,,,,,,,,,,,,,,,,,,,,,,,,,,,,,,,,,,,,,,,,,,,,,"On trials you completed without the aid, how frequently did you think you were correct?",,0.7,0,30%,,0,0,0,0,1,0,,,,,
,5f7229ef1f8432123d3df17d,627c78f9a5ba515e5d7a3b9d,2022-05-12_05h04.24.795,classification_task,2021.2.3,Win32,60.17933442,627c6715c52fd12f31907bd0,,,,,,,,,,,,,,,,,,,,,,,,,,,,,,,,,,,,,,,,,,,,,,,,,,,,,,,,,,,0,0,0,0,1,,,,,,
,5f7229ef1f8432123d3df17d,627c78f9a5ba515e5d7a3b9d,2022-05-12_05h04.24.795,classification_task,2021.2.3,Win32,60.17933442,627c6715c52fd12f31907bd0,,,,,,,,,,,,,,,,,,,,,,,,,,,,,,,,,,,,,,,,,,,,,,,,,,,,,,,,,,,,,,,,,space,14.2959,1167.2288,,
,5f7229ef1f8432123d3df17d,627c78f9a5ba515e5d7a3b9d,2022-05-12_05h04.24.795,classification_task,2021.2.3,Win32,60.17933442,627c6715c52fd12f31907bd0,,,,,,,,,,,,,,,,,,,,,,,,,,,,,,,,,,,,,,,,,,,,,,,,,,,,,,,,,,,,,,,,,,,,"Mozilla/5.0 (Windows NT 10.0; Win64; x64) AppleWebKit/537.36 (KHTML, like Gecko) Chrome/101.0.4951.64 Safari/537.36",
,5f7229ef1f8432123d3df17d,627c78f9a5ba515e5d7a3b9d,2022-05-12_05h04.24.795,classification_task,2021.2.3,Win32,60.17933442,627c6715c52fd12f31907bd0,,,,,,,,,,,,,,,,,,,,,,,,,,,,,,,,,,,,,,,,,,,,,,,,,,,,,,,,,,,,,,,,,,,,,FADING
