usingWebGL,participant,session,date,expName,psychopyVersion,OS,frameRate,study_id,signatures_friend,signatures_foe,band_ranges_top,band_ranges_bottom,formitemText,formtype,formundefined,formitemWidth,formindex,formresponse,formrt,key_resp_2.keys,key_resp_2.rt,tute_resp.keys,tute_resp.rt,tutorial.thisRepN,tutorial.thisTrialN,tutorial.thisN,tutorial.thisIndex,tutorial.ran,key_resp_4.keys,key_resp_4.rt,key_resp.keys,key_resp.corr,key_resp.rt,lines_presented,is_signal_presented,trials.thisRepN,trials.thisTrialN,trials.thisN,trials.thisIndex,trials.ran,vessel,active_band,lines,is_signal,supported_pos,catch_trial,debrief_formindex,debrief_formitemText,debrief_formtype,debrief_formitemWidth,debrief_formresponse,debrief_formrt,phases.thisRepN,phases.thisTrialN,phases.thisN,phases.thisIndex,phases.ran,phases.order,phase,key_resp_3.keys,trustitemText,trusttype,trustitemWidth,trustindex,trustresponse,trustrt,support_status.thisRepN,support_status.thisTrialN,support_status.thisN,support_status.thisIndex,support_status.ran,support_status.order,key_resp_5.keys,key_resp_5.rt,globalClockTime,userAgent,manualCondition
TRUE,5f7460857c789f200efba7dc,627c6fbadc54bcc7f388c5da,2022-05-12_04h24.15.778,classification_task,2021.2.3,Win32,144.1129846,627c6715c52fd12f31907bcf,,,,,,,,,,,,,,,,,,,,,,,,,,,,,,,,,,,,,,,,,,,,,,,,,,,,,,,,,,,,,,,,,,,,,
,5f7460857c789f200efba7dc,627c6fbadc54bcc7f388c5da,2022-05-12_04h24.15.778,classification_task,2021.2.3,Win32,144.1129846,627c6715c52fd12f31907bcf,"[[""0.205"",""0.385"",""0.772"",""0.893""],[""0.166"",""0.512"",""0.571"",""0.946""]]","[[""0.076"",""0.304"",""0.656"",""0.820""],[""0.031"",""0.256"",""0.462"",""0.719""]]","[1,10]","[100,1000]",Video game experience,,,0.7,0,,,,,,,,,,,,,,,,,,,,,,,,,,,,,,,,,,,,,,,,,,,,,,,,,,,,,,,,,,,,
,5f7460857c789f200efba7dc,627c6fbadc54bcc7f388c5da,2022-05-12_04h24.15.778,classification_task,2021.2.3,Win32,144.1129846,627c6715c52fd12f31907bcf,,,,,Approximately how many hours did you spend playing video games in the last week?,,,0.7,0,15,,,,,,,,,,,,,,,,,,,,,,,,,,,,,,,,,,,,,,,,,,,,,,,,,,,,,,,,,,,
,5f7460857c789f200efba7dc,627c6fbadc54bcc7f388c5da,2022-05-12_04h24.15.778,classification_task,2021.2.3,Win32,144.1129846,627c6715c52fd12f31907bcf,,,,,"Which game did you play the most this year? (Enter ""None"" if you didn't play any)",,,0.7,0,Elden Ring,,,,,,,,,,,,,,,,,,,,,,,,,,,,,,,,,,,,,,,,,,,,,,,,,,,,,,,,,,,
,5f7460857c789f200efba7dc,627c6fbadc54bcc7f388c5da,2022-05-12_04h24.15.778,classification_task,2021.2.3,Win32,144.1129846,627c6715c52fd12f31907bcf,,,,,Visual perception,,,0.7,0,,,,,,,,,,,,,,,,,,,,,,,,,,,,,,,,,,,,,,,,,,,,,,,,,,,,,,,,,,,,
,5f7460857c789f200efba7dc,627c6fbadc54bcc7f388c5da,2022-05-12_04h24.15.778,classification_task,2021.2.3,Win32,144.1129846,627c6715c52fd12f31907bcf,,,,,Do you have any form of color blindness?,,,0.7,0,No,49.3349,,,,,,,,,,,,,,,,,,,,,,,,,,,,,,,,,,,,,,,,,,,,,,,,,,,,,,,,,,
,5f7460857c789f200efba7dc,627c6fbadc54bcc7f388c5da,2022-05-12_04h24.15.778,classification_task,2021.2.3,Win32,144.1129846,627c6715c52fd12f31907bcf,,,,,Do you use software to change the colour temperature of your screen (e.g. f.lux)?,,,0.7,0,No,51.7845,,,,,,,,,,,,,,,,,,,,,,,,,,,,,,,,,,,,,,,,,,,,,,,,,,,,,,,,,,
,5f7460857c789f200efba7dc,627c6fbadc54bcc7f388c5da,2022-05-12_04h24.15.778,classification_task,2021.2.3,Win32,144.1129846,627c6715c52fd12f31907bcf,,,,,,,,,,,,space,30.5331,space,5.543,0,0,0,0,1,,,,,,,,,,,,,,,,,,,,,,,,,,,,,,,,,,,,,,,,,,,,,,,,,
,5f7460857c789f200efba7dc,627c6fbadc54bcc7f388c5da,2022-05-12_04h24.15.778,classification_task,2021.2.3,Win32,144.1129846,627c6715c52fd12f31907bcf,,,,,,,,,,,,,,space,7.7741,1,0,1,0,1,,,,,,,,,,,,,,,,,,,,,,,,,,,,,,,,,,,,,,,,,,,,,,,,,
,5f7460857c789f200efba7dc,627c6fbadc54bcc7f388c5da,2022-05-12_04h24.15.778,classification_task,2021.2.3,Win32,144.1129846,627c6715c52fd12f31907bcf,,,,,,,,,,,,,,space,13.9393,2,0,2,0,1,,,,,,,,,,,,,,,,,,,,,,,,,,,,,,,,,,,,,,,,,,,,,,,,,
,5f7460857c789f200efba7dc,627c6fbadc54bcc7f388c5da,2022-05-12_04h24.15.778,classification_task,2021.2.3,Win32,144.1129846,627c6715c52fd12f31907bcf,,,,,,,,,,,,,,space,31.8601,3,0,3,0,1,,,,,,,,,,,,,,,,,,,,,,,,,,,,,,,,,,,,,,,,,,,,,,,,,
,5f7460857c789f200efba7dc,627c6fbadc54bcc7f388c5da,2022-05-12_04h24.15.778,classification_task,2021.2.3,Win32,144.1129846,627c6715c52fd12f31907bcf,,,,,,,,,,,,,,space,11.7913,4,0,4,0,1,,,,,,,,,,,,,,,,,,,,,,,,,,,,,,,,,,,,,,,,,,,,,,,,,
,5f7460857c789f200efba7dc,627c6fbadc54bcc7f388c5da,2022-05-12_04h24.15.778,classification_task,2021.2.3,Win32,144.1129846,627c6715c52fd12f31907bcf,,,,,,,,,,,,,,,,,,,,,space,9.5175,a,1,7.8953,"[""0.113"",""0.385"",""0.772"",""0.893""]","[0,1,1,1]",0,0,0,0,1,0,0,,,1,FALSE,,,,,,,,,,,,,,,,,,,,,,,,,,,,,,,
,5f7460857c789f200efba7dc,627c6fbadc54bcc7f388c5da,2022-05-12_04h24.15.778,classification_task,2021.2.3,Win32,144.1129846,627c6715c52fd12f31907bcf,,,,,,,,,,,,,,,,,,,,,,,l,1,3.691,"[""0.031"",""0.620"",""0.462"",""0.719""]","[1,0,1,1]",0,1,1,1,1,1,1,,,1,FALSE,,,,,,,,,,,,,,,,,,,,,,,,,,,,,,,
,5f7460857c789f200efba7dc,627c6fbadc54bcc7f388c5da,2022-05-12_04h24.15.778,classification_task,2021.2.3,Win32,144.1129846,627c6715c52fd12f31907bcf,,,,,,,,,,,,,,,,,,,,,,,a,1,2.1584,"[""0.205"",""0.385"",""0.119"",""0.893""]","[1,1,0,1]",0,2,2,2,1,0,0,,,1,FALSE,,,,,,,,,,,,,,,,,,,,,,,,,,,,,,,
,5f7460857c789f200efba7dc,627c6fbadc54bcc7f388c5da,2022-05-12_04h24.15.778,classification_task,2021.2.3,Win32,144.1129846,627c6715c52fd12f31907bcf,,,,,,,,,,,,,,,,,,,,,,,a,1,2.598,"[""0.166"",""0.512"",""0.620"",""0.946""]","[1,1,0,1]",0,3,3,3,1,0,1,,,1,FALSE,,,,,,,,,,,,,,,,,,,,,,,,,,,,,,,
,5f7460857c789f200efba7dc,627c6fbadc54bcc7f388c5da,2022-05-12_04h24.15.778,classification_task,2021.2.3,Win32,144.1129846,627c6715c52fd12f31907bcf,,,,,,,,,,,,,,,,,,,,,,,a,1,2.034,"[""0.166"",""0.427"",""0.571"",""0.946""]","[1,0,1,1]",0,4,4,4,1,0,1,,,1,FALSE,,,,,,,,,,,,,,,,,,,,,,,,,,,,,,,
,5f7460857c789f200efba7dc,627c6fbadc54bcc7f388c5da,2022-05-12_04h24.15.778,classification_task,2021.2.3,Win32,144.1129846,627c6715c52fd12f31907bcf,,,,,,,,,,,,,,,,,,,,,,,a,1,1.8472,"[""0.614"",""0.512"",""0.571"",""0.946""]","[0,1,1,1]",0,5,5,5,1,0,1,,,1,FALSE,,,,,,,,,,,,,,,,,,,,,,,,,,,,,,,
,5f7460857c789f200efba7dc,627c6fbadc54bcc7f388c5da,2022-05-12_04h24.15.778,classification_task,2021.2.3,Win32,144.1129846,627c6715c52fd12f31907bcf,,,,,,,,,,,,,,,,,,,,,,,l,1,1.6802,"[""0.076"",""0.304"",""0.427"",""0.820""]","[1,1,0,1]",0,6,6,6,1,1,0,,,1,FALSE,,,,,,,,,,,,,,,,,,,,,,,,,,,,,,,
,5f7460857c789f200efba7dc,627c6fbadc54bcc7f388c5da,2022-05-12_04h24.15.778,classification_task,2021.2.3,Win32,144.1129846,627c6715c52fd12f31907bcf,,,,,,,,,,,,,,,,,,,,,,,l,0,2.9097,"[""0.205"",""0.385"",""0.772"",""0.427""]","[1,1,1,0]",0,7,7,7,1,0,0,,,1,FALSE,,,,,,,,,,,,,,,,,,,,,,,,,,,,,,,
,5f7460857c789f200efba7dc,627c6fbadc54bcc7f388c5da,2022-05-12_04h24.15.778,classification_task,2021.2.3,Win32,144.1129846,627c6715c52fd12f31907bcf,,,,,,,,,,,,,,,,,,,,,,,a,1,2.684,"[""0.166"",""0.512"",""0.571"",""0.128""]","[1,1,1,0]",0,8,8,8,1,0,1,,,1,FALSE,,,,,,,,,,,,,,,,,,,,,,,,,,,,,,,
,5f7460857c789f200efba7dc,627c6fbadc54bcc7f388c5da,2022-05-12_04h24.15.778,classification_task,2021.2.3,Win32,144.1129846,627c6715c52fd12f31907bcf,,,,,,,,,,,,,,,,,,,,,,,a,1,1.8719,"[""0.205"",""0.420"",""0.772"",""0.893""]","[1,0,1,1]",0,9,9,9,1,0,0,,,1,FALSE,,,,,,,,,,,,,,,,,,,,,,,,,,,,,,,
,5f7460857c789f200efba7dc,627c6fbadc54bcc7f388c5da,2022-05-12_04h24.15.778,classification_task,2021.2.3,Win32,144.1129846,627c6715c52fd12f31907bcf,,,,,,,,,,,,,,,,,,,,,,,l,1,3.0615,"[""0.076"",""0.304"",""0.656"",""0.427""]","[1,1,1,0]",0,10,10,10,1,1,0,,,1,FALSE,,,,,,,,,,,,,,,,,,,,,,,,,,,,,,,
,5f7460857c789f200efba7dc,627c6fbadc54bcc7f388c5da,2022-05-12_04h24.15.778,classification_task,2021.2.3,Win32,144.1129846,627c6715c52fd12f31907bcf,,,,,,,,,,,,,,,,,,,,,,,l,1,2.2431,"[""0.119"",""0.304"",""0.656"",""0.820""]","[0,1,1,1]",0,11,11,11,1,1,0,,,1,FALSE,,,,,,,,,,,,,,,,,,,,,,,,,,,,,,,
,5f7460857c789f200efba7dc,627c6fbadc54bcc7f388c5da,2022-05-12_04h24.15.778,classification_task,2021.2.3,Win32,144.1129846,627c6715c52fd12f31907bcf,,,,,,,,,,,,,,,,,,,,,,,l,1,2.4129,"[""0.031"",""0.256"",""0.119"",""0.719""]","[1,1,0,1]",0,12,12,12,1,1,1,,,1,FALSE,,,,,,,,,,,,,,,,,,,,,,,,,,,,,,,
,5f7460857c789f200efba7dc,627c6fbadc54bcc7f388c5da,2022-05-12_04h24.15.778,classification_task,2021.2.3,Win32,144.1129846,627c6715c52fd12f31907bcf,,,,,,,,,,,,,,,,,,,,,,,l,1,1.6865,"[""0.076"",""0.620"",""0.656"",""0.820""]","[1,0,1,1]",0,13,13,13,1,1,0,,,1,FALSE,,,,,,,,,,,,,,,,,,,,,,,,,,,,,,,
,5f7460857c789f200efba7dc,627c6fbadc54bcc7f388c5da,2022-05-12_04h24.15.778,classification_task,2021.2.3,Win32,144.1129846,627c6715c52fd12f31907bcf,,,,,,,,,,,,,,,,,,,,,,,l,1,2.3804,"[""0.618"",""0.256"",""0.462"",""0.719""]","[0,1,1,1]",0,14,14,14,1,1,1,,,1,FALSE,,,,,,,,,,,,,,,,,,,,,,,,,,,,,,,
,5f7460857c789f200efba7dc,627c6fbadc54bcc7f388c5da,2022-05-12_04h24.15.778,classification_task,2021.2.3,Win32,144.1129846,627c6715c52fd12f31907bcf,,,,,,,,,,,,,,,,,,,,,,,l,1,3.3627,"[""0.031"",""0.256"",""0.462"",""0.122""]","[1,1,1,0]",0,15,15,15,1,1,1,,,1,FALSE,,,,,,,,,,,,,,,,,,,,,,,,,,,,,,,
,5f7460857c789f200efba7dc,627c6fbadc54bcc7f388c5da,2022-05-12_04h24.15.778,classification_task,2021.2.3,Win32,144.1129846,627c6715c52fd12f31907bcf,,,,,,,,,,,,,,,,,,,,,,,a,1,3.7492,"[""0.427"",""0.385"",""0.772"",""0.893""]","[0,1,1,1]",0,16,16,16,1,0,0,,,1,FALSE,,,,,,,,,,,,,,,,,,,,,,,,,,,,,,,
,5f7460857c789f200efba7dc,627c6fbadc54bcc7f388c5da,2022-05-12_04h24.15.778,classification_task,2021.2.3,Win32,144.1129846,627c6715c52fd12f31907bcf,,,,,,,,,,,,,,,,,,,,,,,a,1,1.5359,"[""0.205"",""0.119"",""0.772"",""0.893""]","[1,0,1,1]",0,17,17,17,1,0,0,,,1,FALSE,,,,,,,,,,,,,,,,,,,,,,,,,,,,,,,
,5f7460857c789f200efba7dc,627c6fbadc54bcc7f388c5da,2022-05-12_04h24.15.778,classification_task,2021.2.3,Win32,144.1129846,627c6715c52fd12f31907bcf,,,,,,,,,,,,,,,,,,,,,,,l,1,2.9667,"[""0.076"",""0.620"",""0.656"",""0.820""]","[1,0,1,1]",0,18,18,18,1,1,0,,,1,FALSE,,,,,,,,,,,,,,,,,,,,,,,,,,,,,,,
,5f7460857c789f200efba7dc,627c6fbadc54bcc7f388c5da,2022-05-12_04h24.15.778,classification_task,2021.2.3,Win32,144.1129846,627c6715c52fd12f31907bcf,,,,,,,,,,,,,,,,,,,,,,,a,1,2.0837,"[""0.166"",""0.512"",""0.113"",""0.946""]","[1,1,0,1]",0,19,19,19,1,0,1,,,1,FALSE,,,,,,,,,,,,,,,,,,,,,,,,,,,,,,,
,5f7460857c789f200efba7dc,627c6fbadc54bcc7f388c5da,2022-05-12_04h24.15.778,classification_task,2021.2.3,Win32,144.1129846,627c6715c52fd12f31907bcf,,,,,,,,,,,,,,,,,,,,,,,l,1,2.3985,"[""0.620"",""0.256"",""0.462"",""0.719""]","[0,1,1,1]",0,20,20,20,1,1,1,,,1,FALSE,,,,,,,,,,,,,,,,,,,,,,,,,,,,,,,
,5f7460857c789f200efba7dc,627c6fbadc54bcc7f388c5da,2022-05-12_04h24.15.778,classification_task,2021.2.3,Win32,144.1129846,627c6715c52fd12f31907bcf,,,,,,,,,,,,,,,,,,,,,,,a,1,3.2081,"[""0.166"",""0.512"",""0.571"",""0.420""]","[1,1,1,0]",0,21,21,21,1,0,1,,,1,FALSE,,,,,,,,,,,,,,,,,,,,,,,,,,,,,,,
,5f7460857c789f200efba7dc,627c6fbadc54bcc7f388c5da,2022-05-12_04h24.15.778,classification_task,2021.2.3,Win32,144.1129846,627c6715c52fd12f31907bcf,,,,,,,,,,,,,,,,,,,,,,,a,1,1.7724,"[""0.166"",""0.119"",""0.571"",""0.946""]","[1,0,1,1]",0,22,22,22,1,0,1,,,1,FALSE,,,,,,,,,,,,,,,,,,,,,,,,,,,,,,,
,5f7460857c789f200efba7dc,627c6fbadc54bcc7f388c5da,2022-05-12_04h24.15.778,classification_task,2021.2.3,Win32,144.1129846,627c6715c52fd12f31907bcf,,,,,,,,,,,,,,,,,,,,,,,l,1,1.6797,"[""0.076"",""0.304"",""0.345"",""0.820""]","[1,1,0,1]",0,23,23,23,1,1,0,,,1,FALSE,,,,,,,,,,,,,,,,,,,,,,,,,,,,,,,
,5f7460857c789f200efba7dc,627c6fbadc54bcc7f388c5da,2022-05-12_04h24.15.778,classification_task,2021.2.3,Win32,144.1129846,627c6715c52fd12f31907bcf,,,,,,,,,,,,,,,,,,,,,,,a,0,2.3241,"[""0.076"",""0.304"",""0.656"",""0.609""]","[1,1,1,0]",0,24,24,24,1,1,0,,,1,FALSE,,,,,,,,,,,,,,,,,,,,,,,,,,,,,,,
,5f7460857c789f200efba7dc,627c6fbadc54bcc7f388c5da,2022-05-12_04h24.15.778,classification_task,2021.2.3,Win32,144.1129846,627c6715c52fd12f31907bcf,,,,,,,,,,,,,,,,,,,,,,,l,0,0.8183,"[""0.205"",""0.385"",""0.772"",""0.122""]","[1,1,1,0]",0,25,25,25,1,0,0,,,1,FALSE,,,,,,,,,,,,,,,,,,,,,,,,,,,,,,,
,5f7460857c789f200efba7dc,627c6fbadc54bcc7f388c5da,2022-05-12_04h24.15.778,classification_task,2021.2.3,Win32,144.1129846,627c6715c52fd12f31907bcf,,,,,,,,,,,,,,,,,,,,,,,l,1,1.7605,"[""0.031"",""0.614"",""0.462"",""0.719""]","[1,0,1,1]",0,26,26,26,1,1,1,,,1,FALSE,,,,,,,,,,,,,,,,,,,,,,,,,,,,,,,
,5f7460857c789f200efba7dc,627c6fbadc54bcc7f388c5da,2022-05-12_04h24.15.778,classification_task,2021.2.3,Win32,144.1129846,627c6715c52fd12f31907bcf,,,,,,,,,,,,,,,,,,,,,,,a,1,3.2973,"[""0.620"",""0.512"",""0.571"",""0.946""]","[0,1,1,1]",0,27,27,27,1,0,1,,,1,FALSE,,,,,,,,,,,,,,,,,,,,,,,,,,,,,,,
,5f7460857c789f200efba7dc,627c6fbadc54bcc7f388c5da,2022-05-12_04h24.15.778,classification_task,2021.2.3,Win32,144.1129846,627c6715c52fd12f31907bcf,,,,,,,,,,,,,,,,,,,,,,,l,1,2.1439,"[""0.031"",""0.256"",""0.420"",""0.719""]","[1,1,0,1]",0,28,28,28,1,1,1,,,1,FALSE,,,,,,,,,,,,,,,,,,,,,,,,,,,,,,,
,5f7460857c789f200efba7dc,627c6fbadc54bcc7f388c5da,2022-05-12_04h24.15.778,classification_task,2021.2.3,Win32,144.1129846,627c6715c52fd12f31907bcf,,,,,,,,,,,,,,,,,,,,,,,a,1,2.0375,"[""0.205"",""0.385"",""0.113"",""0.893""]","[1,1,0,1]",0,29,29,29,1,0,0,,,1,FALSE,,,,,,,,,,,,,,,,,,,,,,,,,,,,,,,
,5f7460857c789f200efba7dc,627c6fbadc54bcc7f388c5da,2022-05-12_04h24.15.778,classification_task,2021.2.3,Win32,144.1129846,627c6715c52fd12f31907bcf,,,,,,,,,,,,,,,,,,,,,,,l,1,3.6257,"[""0.031"",""0.256"",""0.462"",""0.345""]","[1,1,1,0]",0,30,30,30,1,1,1,,,1,FALSE,,,,,,,,,,,,,,,,,,,,,,,,,,,,,,,
,5f7460857c789f200efba7dc,627c6fbadc54bcc7f388c5da,2022-05-12_04h24.15.778,classification_task,2021.2.3,Win32,144.1129846,627c6715c52fd12f31907bcf,,,,,,,,,,,,,,,,,,,,,,,l,1,1.494,"[""0.119"",""0.304"",""0.656"",""0.820""]","[0,1,1,1]",0,31,31,31,1,1,0,,,1,FALSE,,,,,,,,,,,,,,,,,,,,,,,,,,,,,,,
,5f7460857c789f200efba7dc,627c6fbadc54bcc7f388c5da,2022-05-12_04h24.15.778,classification_task,2021.2.3,Win32,144.1129846,627c6715c52fd12f31907bcf,,,,,,,,,,,,,,,,,,,,,,,l,0,3.1194,"[""0.166"",""0.620"",""0.571"",""0.946""]","[1,0,1,1]",0,32,32,32,1,0,1,,,1,FALSE,,,,,,,,,,,,,,,,,,,,,,,,,,,,,,,
,5f7460857c789f200efba7dc,627c6fbadc54bcc7f388c5da,2022-05-12_04h24.15.778,classification_task,2021.2.3,Win32,144.1129846,627c6715c52fd12f31907bcf,,,,,,,,,,,,,,,,,,,,,,,a,1,3.2796,"[""0.620"",""0.385"",""0.772"",""0.893""]","[0,1,1,1]",0,33,33,33,1,0,0,,,1,FALSE,,,,,,,,,,,,,,,,,,,,,,,,,,,,,,,
,5f7460857c789f200efba7dc,627c6fbadc54bcc7f388c5da,2022-05-12_04h24.15.778,classification_task,2021.2.3,Win32,144.1129846,627c6715c52fd12f31907bcf,,,,,,,,,,,,,,,,,,,,,,,a,0,1.5921,"[""0.076"",""0.304"",""0.122"",""0.820""]","[1,1,0,1]",0,34,34,34,1,1,0,,,1,FALSE,,,,,,,,,,,,,,,,,,,,,,,,,,,,,,,
,5f7460857c789f200efba7dc,627c6fbadc54bcc7f388c5da,2022-05-12_04h24.15.778,classification_task,2021.2.3,Win32,144.1129846,627c6715c52fd12f31907bcf,,,,,,,,,,,,,,,,,,,,,,,l,0,0.8644,"[""0.205"",""0.385"",""0.772"",""0.614""]","[1,1,1,0]",0,35,35,35,1,0,0,,,1,FALSE,,,,,,,,,,,,,,,,,,,,,,,,,,,,,,,
,5f7460857c789f200efba7dc,627c6fbadc54bcc7f388c5da,2022-05-12_04h24.15.778,classification_task,2021.2.3,Win32,144.1129846,627c6715c52fd12f31907bcf,,,,,,,,,,,,,,,,,,,,,,,a,0,0.7051,"[""0.031"",""0.256"",""0.345"",""0.719""]","[1,1,0,1]",0,36,36,36,1,1,1,,,1,FALSE,,,,,,,,,,,,,,,,,,,,,,,,,,,,,,,
,5f7460857c789f200efba7dc,627c6fbadc54bcc7f388c5da,2022-05-12_04h24.15.778,classification_task,2021.2.3,Win32,144.1129846,627c6715c52fd12f31907bcf,,,,,,,,,,,,,,,,,,,,,,,a,0,1.0408,"[""0.076"",""0.304"",""0.656"",""0.427""]","[1,1,1,0]",0,37,37,37,1,1,0,,,1,FALSE,,,,,,,,,,,,,,,,,,,,,,,,,,,,,,,
,5f7460857c789f200efba7dc,627c6fbadc54bcc7f388c5da,2022-05-12_04h24.15.778,classification_task,2021.2.3,Win32,144.1129846,627c6715c52fd12f31907bcf,,,,,,,,,,,,,,,,,,,,,,,a,0,1.0767,"[""0.076"",""0.421"",""0.656"",""0.820""]","[1,0,1,1]",0,38,38,38,1,1,0,,,1,FALSE,,,,,,,,,,,,,,,,,,,,,,,,,,,,,,,
,5f7460857c789f200efba7dc,627c6fbadc54bcc7f388c5da,2022-05-12_04h24.15.778,classification_task,2021.2.3,Win32,144.1129846,627c6715c52fd12f31907bcf,,,,,,,,,,,,,,,,,,,,,,,l,1,0.7218,"[""0.031"",""0.620"",""0.462"",""0.719""]","[1,0,1,1]",0,39,39,39,1,1,1,,,1,FALSE,,,,,,,,,,,,,,,,,,,,,,,,,,,,,,,
,5f7460857c789f200efba7dc,627c6fbadc54bcc7f388c5da,2022-05-12_04h24.15.778,classification_task,2021.2.3,Win32,144.1129846,627c6715c52fd12f31907bcf,,,,,,,,,,,,,,,,,,,,,,,l,0,1.7988,"[""0.205"",""0.385"",""0.122"",""0.893""]","[1,1,0,1]",0,40,40,40,1,0,0,,,1,FALSE,,,,,,,,,,,,,,,,,,,,,,,,,,,,,,,
,5f7460857c789f200efba7dc,627c6fbadc54bcc7f388c5da,2022-05-12_04h24.15.778,classification_task,2021.2.3,Win32,144.1129846,627c6715c52fd12f31907bcf,,,,,,,,,,,,,,,,,,,,,,,a,1,0.8426,"[""0.427"",""0.512"",""0.571"",""0.946""]","[0,1,1,1]",0,41,41,41,1,0,1,,,1,FALSE,,,,,,,,,,,,,,,,,,,,,,,,,,,,,,,
,5f7460857c789f200efba7dc,627c6fbadc54bcc7f388c5da,2022-05-12_04h24.15.778,classification_task,2021.2.3,Win32,144.1129846,627c6715c52fd12f31907bcf,,,,,,,,,,,,,,,,,,,,,,,l,0,1.5517,"[""0.166"",""0.512"",""0.571"",""0.618""]","[1,1,1,0]",0,42,42,42,1,0,1,,,1,FALSE,,,,,,,,,,,,,,,,,,,,,,,,,,,,,,,
,5f7460857c789f200efba7dc,627c6fbadc54bcc7f388c5da,2022-05-12_04h24.15.778,classification_task,2021.2.3,Win32,144.1129846,627c6715c52fd12f31907bcf,,,,,,,,,,,,,,,,,,,,,,,a,1,0.8812,"[""0.205"",""0.618"",""0.772"",""0.893""]","[1,0,1,1]",0,43,43,43,1,0,0,,,1,FALSE,,,,,,,,,,,,,,,,,,,,,,,,,,,,,,,
,5f7460857c789f200efba7dc,627c6fbadc54bcc7f388c5da,2022-05-12_04h24.15.778,classification_task,2021.2.3,Win32,144.1129846,627c6715c52fd12f31907bcf,,,,,,,,,,,,,,,,,,,,,,,l,0,1.3049,"[""0.166"",""0.512"",""0.128"",""0.946""]","[1,1,0,1]",0,44,44,44,1,0,1,,,1,FALSE,,,,,,,,,,,,,,,,,,,,,,,,,,,,,,,
,5f7460857c789f200efba7dc,627c6fbadc54bcc7f388c5da,2022-05-12_04h24.15.778,classification_task,2021.2.3,Win32,144.1129846,627c6715c52fd12f31907bcf,,,,,,,,,,,,,,,,,,,,,,,a,0,1.7194,"[""0.122"",""0.256"",""0.462"",""0.719""]","[0,1,1,1]",0,45,45,45,1,1,1,,,1,FALSE,,,,,,,,,,,,,,,,,,,,,,,,,,,,,,,
,5f7460857c789f200efba7dc,627c6fbadc54bcc7f388c5da,2022-05-12_04h24.15.778,classification_task,2021.2.3,Win32,144.1129846,627c6715c52fd12f31907bcf,,,,,,,,,,,,,,,,,,,,,,,a,0,0.8158,"[""0.031"",""0.256"",""0.462"",""0.618""]","[1,1,1,0]",0,46,46,46,1,1,1,,,1,FALSE,,,,,,,,,,,,,,,,,,,,,,,,,,,,,,,
,5f7460857c789f200efba7dc,627c6fbadc54bcc7f388c5da,2022-05-12_04h24.15.778,classification_task,2021.2.3,Win32,144.1129846,627c6715c52fd12f31907bcf,,,,,,,,,,,,,,,,,,,,,,,l,1,0.8336,"[""0.620"",""0.304"",""0.656"",""0.820""]","[0,1,1,1]",0,47,47,47,1,1,0,,,1,FALSE,,,,,,,,,,,,,,,,,,,,,,,,,,,,,,,
,5f7460857c789f200efba7dc,627c6fbadc54bcc7f388c5da,2022-05-12_04h24.15.778,classification_task,2021.2.3,Win32,144.1129846,627c6715c52fd12f31907bcf,,,,,,,,,,,,,,,,,,,,,,,l,1,0.7642,"[""0.076"",""0.620"",""0.656"",""0.820""]","[1,0,1,1]",0,48,48,48,1,1,0,,,1,FALSE,,,,,,,,,,,,,,,,,,,,,,,,,,,,,,,
,5f7460857c789f200efba7dc,627c6fbadc54bcc7f388c5da,2022-05-12_04h24.15.778,classification_task,2021.2.3,Win32,144.1129846,627c6715c52fd12f31907bcf,,,,,,,,,,,,,,,,,,,,,,,l,0,0.7916,"[""0.205"",""0.385"",""0.111"",""0.893""]","[1,1,0,1]",0,49,49,49,1,0,0,,,1,FALSE,,,,,,,,,,,,,,,,,,,,,,,,,,,,,,,
,5f7460857c789f200efba7dc,627c6fbadc54bcc7f388c5da,2022-05-12_04h24.15.778,classification_task,2021.2.3,Win32,144.1129846,627c6715c52fd12f31907bcf,,,,,,,,,,,,,,,,,,,,,,,l,1,1.0495,"[""0.076"",""0.304"",""0.113"",""0.820""]","[1,1,0,1]",0,50,50,50,1,1,0,,,1,FALSE,,,,,,,,,,,,,,,,,,,,,,,,,,,,,,,
,5f7460857c789f200efba7dc,627c6fbadc54bcc7f388c5da,2022-05-12_04h24.15.778,classification_task,2021.2.3,Win32,144.1129846,627c6715c52fd12f31907bcf,,,,,,,,,,,,,,,,,,,,,,,a,1,0.5078,"[""0.205"",""0.128"",""0.772"",""0.893""]","[1,0,1,1]",0,51,51,51,1,0,0,,,1,FALSE,,,,,,,,,,,,,,,,,,,,,,,,,,,,,,,
,5f7460857c789f200efba7dc,627c6fbadc54bcc7f388c5da,2022-05-12_04h24.15.778,classification_task,2021.2.3,Win32,144.1129846,627c6715c52fd12f31907bcf,,,,,,,,,,,,,,,,,,,,,,,a,1,0.4583,"[""0.111"",""0.385"",""0.772"",""0.893""]","[0,1,1,1]",0,52,52,52,1,0,0,,,1,FALSE,,,,,,,,,,,,,,,,,,,,,,,,,,,,,,,
,5f7460857c789f200efba7dc,627c6fbadc54bcc7f388c5da,2022-05-12_04h24.15.778,classification_task,2021.2.3,Win32,144.1129846,627c6715c52fd12f31907bcf,,,,,,,,,,,,,,,,,,,,,,,l,1,1.6826,"[""0.031"",""0.421"",""0.462"",""0.719""]","[1,0,1,1]",0,53,53,53,1,1,1,,,1,FALSE,,,,,,,,,,,,,,,,,,,,,,,,,,,,,,,
,5f7460857c789f200efba7dc,627c6fbadc54bcc7f388c5da,2022-05-12_04h24.15.778,classification_task,2021.2.3,Win32,144.1129846,627c6715c52fd12f31907bcf,,,,,,,,,,,,,,,,,,,,,,,l,1,0.8233,"[""0.128"",""0.256"",""0.462"",""0.719""]","[0,1,1,1]",0,54,54,54,1,1,1,,,1,FALSE,,,,,,,,,,,,,,,,,,,,,,,,,,,,,,,
,5f7460857c789f200efba7dc,627c6fbadc54bcc7f388c5da,2022-05-12_04h24.15.778,classification_task,2021.2.3,Win32,144.1129846,627c6715c52fd12f31907bcf,,,,,,,,,,,,,,,,,,,,,,,a,1,0.9991,"[""0.166"",""0.113"",""0.571"",""0.946""]","[1,0,1,1]",0,55,55,55,1,0,1,,,1,FALSE,,,,,,,,,,,,,,,,,,,,,,,,,,,,,,,
,5f7460857c789f200efba7dc,627c6fbadc54bcc7f388c5da,2022-05-12_04h24.15.778,classification_task,2021.2.3,Win32,144.1129846,627c6715c52fd12f31907bcf,,,,,,,,,,,,,,,,,,,,,,,l,1,1.5925,"[""0.609"",""0.304"",""0.656"",""0.820""]","[0,1,1,1]",0,56,56,56,1,1,0,,,1,FALSE,,,,,,,,,,,,,,,,,,,,,,,,,,,,,,,
,5f7460857c789f200efba7dc,627c6fbadc54bcc7f388c5da,2022-05-12_04h24.15.778,classification_task,2021.2.3,Win32,144.1129846,627c6715c52fd12f31907bcf,,,,,,,,,,,,,,,,,,,,,,,a,0,0.9234,"[""0.031"",""0.256"",""0.462"",""0.122""]","[1,1,1,0]",0,57,57,57,1,1,1,,,1,FALSE,,,,,,,,,,,,,,,,,,,,,,,,,,,,,,,
,5f7460857c789f200efba7dc,627c6fbadc54bcc7f388c5da,2022-05-12_04h24.15.778,classification_task,2021.2.3,Win32,144.1129846,627c6715c52fd12f31907bcf,,,,,,,,,,,,,,,,,,,,,,,a,1,1.0366,"[""0.128"",""0.512"",""0.571"",""0.946""]","[0,1,1,1]",0,58,58,58,1,0,1,,,1,FALSE,,,,,,,,,,,,,,,,,,,,,,,,,,,,,,,
,5f7460857c789f200efba7dc,627c6fbadc54bcc7f388c5da,2022-05-12_04h24.15.778,classification_task,2021.2.3,Win32,144.1129846,627c6715c52fd12f31907bcf,,,,,,,,,,,,,,,,,,,,,,,l,0,1.2497,"[""0.166"",""0.512"",""0.571"",""0.609""]","[1,1,1,0]",0,59,59,59,1,0,1,,,1,FALSE,,,,,,,,,,,,,,,,,,,,,,,,,,,,,,,
,5f7460857c789f200efba7dc,627c6fbadc54bcc7f388c5da,2022-05-12_04h24.15.778,classification_task,2021.2.3,Win32,144.1129846,627c6715c52fd12f31907bcf,,,,,,,,,,,,,,,,,,,,,,,l,1,1.3356,"[""0.031"",""0.256"",""0.122"",""0.719""]","[1,1,0,1]",0,60,60,60,1,1,1,,,1,FALSE,,,,,,,,,,,,,,,,,,,,,,,,,,,,,,,
,5f7460857c789f200efba7dc,627c6fbadc54bcc7f388c5da,2022-05-12_04h24.15.778,classification_task,2021.2.3,Win32,144.1129846,627c6715c52fd12f31907bcf,,,,,,,,,,,,,,,,,,,,,,,l,1,0.9274,"[""0.076"",""0.304"",""0.656"",""0.620""]","[1,1,1,0]",0,61,61,61,1,1,0,,,1,FALSE,,,,,,,,,,,,,,,,,,,,,,,,,,,,,,,
,5f7460857c789f200efba7dc,627c6fbadc54bcc7f388c5da,2022-05-12_04h24.15.778,classification_task,2021.2.3,Win32,144.1129846,627c6715c52fd12f31907bcf,,,,,,,,,,,,,,,,,,,,,,,a,1,1.0358,"[""0.205"",""0.385"",""0.772"",""0.113""]","[1,1,1,0]",0,62,62,62,1,0,0,,,1,FALSE,,,,,,,,,,,,,,,,,,,,,,,,,,,,,,,
,5f7460857c789f200efba7dc,627c6fbadc54bcc7f388c5da,2022-05-12_04h24.15.778,classification_task,2021.2.3,Win32,144.1129846,627c6715c52fd12f31907bcf,,,,,,,,,,,,,,,,,,,,,,,a,1,1.2454,"[""0.166"",""0.512"",""0.421"",""0.946""]","[1,1,0,1]",0,63,63,63,1,0,1,,,1,FALSE,,,,,,,,,,,,,,,,,,,,,,,,,,,,,,,
,5f7460857c789f200efba7dc,627c6fbadc54bcc7f388c5da,2022-05-12_04h24.15.778,classification_task,2021.2.3,Win32,144.1129846,627c6715c52fd12f31907bcf,,,,,,,,,,,,,,,,,,,,,,,,,,,,,,,,,,,,,,,0, ,,0,10,386.4279,0,0,0,0,1,2,1,,,,,,,,,,,,,,,,,,
,5f7460857c789f200efba7dc,627c6fbadc54bcc7f388c5da,2022-05-12_04h24.15.778,classification_task,2021.2.3,Win32,144.1129846,627c6715c52fd12f31907bcf,,,,,,,,,,,,,,,,,,,,,,,,,,,,,,,,,,,,,,,1,  ,,0,10,390.001,0,0,0,0,1,2,1,,,,,,,,,,,,,,,,,,
,5f7460857c789f200efba7dc,627c6fbadc54bcc7f388c5da,2022-05-12_04h24.15.778,classification_task,2021.2.3,Win32,144.1129846,627c6715c52fd12f31907bcf,,,,,,,,,,,,,,,,,,,,,,,,,,,,,,,,,,,,,,,2,  ,,0,8.43547913,396.6345,0,0,0,0,1,2,1,,,,,,,,,,,,,,,,,,
,5f7460857c789f200efba7dc,627c6fbadc54bcc7f388c5da,2022-05-12_04h24.15.778,classification_task,2021.2.3,Win32,144.1129846,627c6715c52fd12f31907bcf,,,,,,,,,,,,,,,,,,,,,,,,,,,,,,,,,,,,,,,,,,,,,0,0,0,0,1,,1,,,,,,,,,,,,,,,,,,
,5f7460857c789f200efba7dc,627c6fbadc54bcc7f388c5da,2022-05-12_04h24.15.778,classification_task,2021.2.3,Win32,144.1129846,627c6715c52fd12f31907bcf,,,,,,,,,,,,,,,,,,,,,space,14.2709,a,1,3.3827,"[""0.166"",""0.512"",""0.571"",""0.119""]","[1,1,1,0]",0,0,0,0,1,0,1,,,1,FALSE,,,,,,,,,,,,,,,,,,,,,,,,,,,,,,,
,5f7460857c789f200efba7dc,627c6fbadc54bcc7f388c5da,2022-05-12_04h24.15.778,classification_task,2021.2.3,Win32,144.1129846,627c6715c52fd12f31907bcf,,,,,,,,,,,,,,,,,,,,,,,l,0,2.3343,"[""0.205"",""0.385"",""0.618"",""0.893""]","[1,1,0,1]",0,1,1,1,1,0,0,,,1,FALSE,,,,,,,,,,,,,,,,,,,,,,,,,,,,,,,
,5f7460857c789f200efba7dc,627c6fbadc54bcc7f388c5da,2022-05-12_04h24.15.778,classification_task,2021.2.3,Win32,144.1129846,627c6715c52fd12f31907bcf,,,,,,,,,,,,,,,,,,,,,,,l,1,0.8085,"[""0.031"",""0.256"",""0.614"",""0.719""]","[1,1,0,1]",0,2,2,2,1,1,1,,,1,FALSE,,,,,,,,,,,,,,,,,,,,,,,,,,,,,,,
,5f7460857c789f200efba7dc,627c6fbadc54bcc7f388c5da,2022-05-12_04h24.15.778,classification_task,2021.2.3,Win32,144.1129846,627c6715c52fd12f31907bcf,,,,,,,,,,,,,,,,,,,,,,,l,1,1.7219,"[""0.609"",""0.256"",""0.462"",""0.719""]","[0,1,1,1]",0,3,3,3,1,1,1,,,1,FALSE,,,,,,,,,,,,,,,,,,,,,,,,,,,,,,,
,5f7460857c789f200efba7dc,627c6fbadc54bcc7f388c5da,2022-05-12_04h24.15.778,classification_task,2021.2.3,Win32,144.1129846,627c6715c52fd12f31907bcf,,,,,,,,,,,,,,,,,,,,,,,a,0,1.8851,"[""0.076"",""0.304"",""0.420"",""0.820""]","[1,1,0,1]",0,4,4,4,1,1,0,,,1,FALSE,,,,,,,,,,,,,,,,,,,,,,,,,,,,,,,
,5f7460857c789f200efba7dc,627c6fbadc54bcc7f388c5da,2022-05-12_04h24.15.778,classification_task,2021.2.3,Win32,144.1129846,627c6715c52fd12f31907bcf,,,,,,,,,,,,,,,,,,,,,,,l,0,0.9625,"[""0.345"",""0.385"",""0.772"",""0.893""]","[0,1,1,1]",0,5,5,5,1,0,0,,,1,FALSE,,,,,,,,,,,,,,,,,,,,,,,,,,,,,,,
,5f7460857c789f200efba7dc,627c6fbadc54bcc7f388c5da,2022-05-12_04h24.15.778,classification_task,2021.2.3,Win32,144.1129846,627c6715c52fd12f31907bcf,,,,,,,,,,,,,,,,,,,,,,,l,1,1.1254,"[""0.076"",""0.304"",""0.656"",""0.614""]","[1,1,1,0]",0,6,6,6,1,1,0,,,1,FALSE,,,,,,,,,,,,,,,,,,,,,,,,,,,,,,,
,5f7460857c789f200efba7dc,627c6fbadc54bcc7f388c5da,2022-05-12_04h24.15.778,classification_task,2021.2.3,Win32,144.1129846,627c6715c52fd12f31907bcf,,,,,,,,,,,,,,,,,,,,,,,l,0,1.462,"[""0.205"",""0.609"",""0.772"",""0.893""]","[1,0,1,1]",0,7,7,7,1,0,0,,,1,FALSE,,,,,,,,,,,,,,,,,,,,,,,,,,,,,,,
,5f7460857c789f200efba7dc,627c6fbadc54bcc7f388c5da,2022-05-12_04h24.15.778,classification_task,2021.2.3,Win32,144.1129846,627c6715c52fd12f31907bcf,,,,,,,,,,,,,,,,,,,,,,,a,1,1.1536,"[""0.614"",""0.512"",""0.571"",""0.946""]","[0,1,1,1]",0,8,8,8,1,0,1,,,1,FALSE,,,,,,,,,,,,,,,,,,,,,,,,,,,,,,,
,5f7460857c789f200efba7dc,627c6fbadc54bcc7f388c5da,2022-05-12_04h24.15.778,classification_task,2021.2.3,Win32,144.1129846,627c6715c52fd12f31907bcf,,,,,,,,,,,,,,,,,,,,,,,a,0,1.2636,"[""0.111"",""0.304"",""0.656"",""0.820""]","[0,1,1,1]",0,9,9,9,1,1,0,,,1,FALSE,,,,,,,,,,,,,,,,,,,,,,,,,,,,,,,
,5f7460857c789f200efba7dc,627c6fbadc54bcc7f388c5da,2022-05-12_04h24.15.778,classification_task,2021.2.3,Win32,144.1129846,627c6715c52fd12f31907bcf,,,,,,,,,,,,,,,,,,,,,,,a,1,0.9238,"[""0.166"",""0.609"",""0.571"",""0.946""]","[1,0,1,1]",0,10,10,10,1,0,1,,,1,FALSE,,,,,,,,,,,,,,,,,,,,,,,,,,,,,,,
,5f7460857c789f200efba7dc,627c6fbadc54bcc7f388c5da,2022-05-12_04h24.15.778,classification_task,2021.2.3,Win32,144.1129846,627c6715c52fd12f31907bcf,,,,,,,,,,,,,,,,,,,,,,,l,1,1.4299,"[""0.076"",""0.614"",""0.656"",""0.820""]","[1,0,1,1]",0,11,11,11,1,1,0,,,1,FALSE,,,,,,,,,,,,,,,,,,,,,,,,,,,,,,,
,5f7460857c789f200efba7dc,627c6fbadc54bcc7f388c5da,2022-05-12_04h24.15.778,classification_task,2021.2.3,Win32,144.1129846,627c6715c52fd12f31907bcf,,,,,,,,,,,,,,,,,,,,,,,l,1,0.9425,"[""0.031"",""0.256"",""0.462"",""0.620""]","[1,1,1,0]",0,12,12,12,1,1,1,,,1,FALSE,,,,,,,,,,,,,,,,,,,,,,,,,,,,,,,
,5f7460857c789f200efba7dc,627c6fbadc54bcc7f388c5da,2022-05-12_04h24.15.778,classification_task,2021.2.3,Win32,144.1129846,627c6715c52fd12f31907bcf,,,,,,,,,,,,,,,,,,,,,,,l,1,0.4455,"[""0.031"",""0.119"",""0.462"",""0.719""]","[1,0,1,1]",0,13,13,13,1,1,1,,,1,FALSE,,,,,,,,,,,,,,,,,,,,,,,,,,,,,,,
,5f7460857c789f200efba7dc,627c6fbadc54bcc7f388c5da,2022-05-12_04h24.15.778,classification_task,2021.2.3,Win32,144.1129846,627c6715c52fd12f31907bcf,,,,,,,,,,,,,,,,,,,,,,,a,1,0.6826,"[""0.166"",""0.512"",""0.609"",""0.946""]","[1,1,0,1]",0,14,14,14,1,0,1,,,1,FALSE,,,,,,,,,,,,,,,,,,,,,,,,,,,,,,,
,5f7460857c789f200efba7dc,627c6fbadc54bcc7f388c5da,2022-05-12_04h24.15.778,classification_task,2021.2.3,Win32,144.1129846,627c6715c52fd12f31907bcf,,,,,,,,,,,,,,,,,,,,,,,l,0,1.5747,"[""0.205"",""0.385"",""0.772"",""0.618""]","[1,1,1,0]",0,15,15,15,1,0,0,,,1,FALSE,,,,,,,,,,,,,,,,,,,,,,,,,,,,,,,
,5f7460857c789f200efba7dc,627c6fbadc54bcc7f388c5da,2022-05-12_04h24.15.778,classification_task,2021.2.3,Win32,144.1129846,627c6715c52fd12f31907bcf,,,,,,,,,,,,,,,,,,,,,,,a,1,0.6914,"[""0.205"",""0.427"",""0.772"",""0.893""]","[1,0,1,1]",0,16,16,16,1,0,0,,,1,FALSE,,,,,,,,,,,,,,,,,,,,,,,,,,,,,,,
,5f7460857c789f200efba7dc,627c6fbadc54bcc7f388c5da,2022-05-12_04h24.15.778,classification_task,2021.2.3,Win32,144.1129846,627c6715c52fd12f31907bcf,,,,,,,,,,,,,,,,,,,,,,,a,1,0.4754,"[""0.111"",""0.385"",""0.772"",""0.893""]","[0,1,1,1]",0,17,17,17,1,0,0,,,1,FALSE,,,,,,,,,,,,,,,,,,,,,,,,,,,,,,,
,5f7460857c789f200efba7dc,627c6fbadc54bcc7f388c5da,2022-05-12_04h24.15.778,classification_task,2021.2.3,Win32,144.1129846,627c6715c52fd12f31907bcf,,,,,,,,,,,,,,,,,,,,,,,l,1,0.7682,"[""0.031"",""0.256"",""0.462"",""0.620""]","[1,1,1,0]",0,18,18,18,1,1,1,,,1,FALSE,,,,,,,,,,,,,,,,,,,,,,,,,,,,,,,
,5f7460857c789f200efba7dc,627c6fbadc54bcc7f388c5da,2022-05-12_04h24.15.778,classification_task,2021.2.3,Win32,144.1129846,627c6715c52fd12f31907bcf,,,,,,,,,,,,,,,,,,,,,,,a,1,0.6367,"[""0.205"",""0.385"",""0.620"",""0.893""]","[1,1,0,1]",0,19,19,19,1,0,0,,,1,FALSE,,,,,,,,,,,,,,,,,,,,,,,,,,,,,,,
,5f7460857c789f200efba7dc,627c6fbadc54bcc7f388c5da,2022-05-12_04h24.15.778,classification_task,2021.2.3,Win32,144.1129846,627c6715c52fd12f31907bcf,,,,,,,,,,,,,,,,,,,,,,,l,1,0.6732,"[""0.031"",""0.620"",""0.462"",""0.719""]","[1,0,1,1]",0,20,20,20,1,1,1,,,1,FALSE,,,,,,,,,,,,,,,,,,,,,,,,,,,,,,,
,5f7460857c789f200efba7dc,627c6fbadc54bcc7f388c5da,2022-05-12_04h24.15.778,classification_task,2021.2.3,Win32,144.1129846,627c6715c52fd12f31907bcf,,,,,,,,,,,,,,,,,,,,,,,a,1,1.1838,"[""0.345"",""0.512"",""0.571"",""0.946""]","[0,1,1,1]",0,21,21,21,1,0,1,,,1,FALSE,,,,,,,,,,,,,,,,,,,,,,,,,,,,,,,
,5f7460857c789f200efba7dc,627c6fbadc54bcc7f388c5da,2022-05-12_04h24.15.778,classification_task,2021.2.3,Win32,144.1129846,627c6715c52fd12f31907bcf,,,,,,,,,,,,,,,,,,,,,,,l,1,1.0625,"[""0.427"",""0.256"",""0.462"",""0.719""]","[0,1,1,1]",0,22,22,22,1,1,1,,,1,FALSE,,,,,,,,,,,,,,,,,,,,,,,,,,,,,,,
,5f7460857c789f200efba7dc,627c6fbadc54bcc7f388c5da,2022-05-12_04h24.15.778,classification_task,2021.2.3,Win32,144.1129846,627c6715c52fd12f31907bcf,,,,,,,,,,,,,,,,,,,,,,,l,1,3.5593,"[""0.614"",""0.304"",""0.656"",""0.820""]","[0,1,1,1]",0,23,23,23,1,1,0,,,1,FALSE,,,,,,,,,,,,,,,,,,,,,,,,,,,,,,,
,5f7460857c789f200efba7dc,627c6fbadc54bcc7f388c5da,2022-05-12_04h24.15.778,classification_task,2021.2.3,Win32,144.1129846,627c6715c52fd12f31907bcf,,,,,,,,,,,,,,,,,,,,,,,a,1,1.064,"[""0.166"",""0.512"",""0.111"",""0.946""]","[1,1,0,1]",0,24,24,24,1,0,1,,,1,FALSE,,,,,,,,,,,,,,,,,,,,,,,,,,,,,,,
,5f7460857c789f200efba7dc,627c6fbadc54bcc7f388c5da,2022-05-12_04h24.15.778,classification_task,2021.2.3,Win32,144.1129846,627c6715c52fd12f31907bcf,,,,,,,,,,,,,,,,,,,,,,,l,1,1.1112,"[""0.031"",""0.256"",""0.614"",""0.719""]","[1,1,0,1]",0,25,25,25,1,1,1,,,1,FALSE,,,,,,,,,,,,,,,,,,,,,,,,,,,,,,,
,5f7460857c789f200efba7dc,627c6fbadc54bcc7f388c5da,2022-05-12_04h24.15.778,classification_task,2021.2.3,Win32,144.1129846,627c6715c52fd12f31907bcf,,,,,,,,,,,,,,,,,,,,,,,a,1,0.9234,"[""0.166"",""0.113"",""0.571"",""0.946""]","[1,0,1,1]",0,26,26,26,1,0,1,,,1,FALSE,,,,,,,,,,,,,,,,,,,,,,,,,,,,,,,
,5f7460857c789f200efba7dc,627c6fbadc54bcc7f388c5da,2022-05-12_04h24.15.778,classification_task,2021.2.3,Win32,144.1129846,627c6715c52fd12f31907bcf,,,,,,,,,,,,,,,,,,,,,,,l,1,1.5516,"[""0.076"",""0.304"",""0.420"",""0.820""]","[1,1,0,1]",0,27,27,27,1,1,0,,,1,FALSE,,,,,,,,,,,,,,,,,,,,,,,,,,,,,,,
,5f7460857c789f200efba7dc,627c6fbadc54bcc7f388c5da,2022-05-12_04h24.15.778,classification_task,2021.2.3,Win32,144.1129846,627c6715c52fd12f31907bcf,,,,,,,,,,,,,,,,,,,,,,,l,0,0.7024,"[""0.205"",""0.385"",""0.772"",""0.128""]","[1,1,1,0]",0,28,28,28,1,0,0,,,1,FALSE,,,,,,,,,,,,,,,,,,,,,,,,,,,,,,,
,5f7460857c789f200efba7dc,627c6fbadc54bcc7f388c5da,2022-05-12_04h24.15.778,classification_task,2021.2.3,Win32,144.1129846,627c6715c52fd12f31907bcf,,,,,,,,,,,,,,,,,,,,,,,l,1,0.8679,"[""0.076"",""0.122"",""0.656"",""0.820""]","[1,0,1,1]",0,29,29,29,1,1,0,,,1,FALSE,,,,,,,,,,,,,,,,,,,,,,,,,,,,,,,
,5f7460857c789f200efba7dc,627c6fbadc54bcc7f388c5da,2022-05-12_04h24.15.778,classification_task,2021.2.3,Win32,144.1129846,627c6715c52fd12f31907bcf,,,,,,,,,,,,,,,,,,,,,,,a,1,0.9283,"[""0.166"",""0.512"",""0.571"",""0.609""]","[1,1,1,0]",0,30,30,30,1,0,1,,,1,FALSE,,,,,,,,,,,,,,,,,,,,,,,,,,,,,,,
,5f7460857c789f200efba7dc,627c6fbadc54bcc7f388c5da,2022-05-12_04h24.15.778,classification_task,2021.2.3,Win32,144.1129846,627c6715c52fd12f31907bcf,,,,,,,,,,,,,,,,,,,,,,,a,0,1.0615,"[""0.076"",""0.304"",""0.656"",""0.113""]","[1,1,1,0]",0,31,31,31,1,1,0,,,1,FALSE,,,,,,,,,,,,,,,,,,,,,,,,,,,,,,,
,5f7460857c789f200efba7dc,627c6fbadc54bcc7f388c5da,2022-05-12_04h24.15.778,classification_task,2021.2.3,Win32,144.1129846,627c6715c52fd12f31907bcf,,,,,,,,,,,,,,,,,,,,,,,a,1,1.1089,"[""0.205"",""0.385"",""0.620"",""0.893""]","[1,1,0,1]",0,32,32,32,1,0,0,,,1,FALSE,,,,,,,,,,,,,,,,,,,,,,,,,,,,,,,
,5f7460857c789f200efba7dc,627c6fbadc54bcc7f388c5da,2022-05-12_04h24.15.778,classification_task,2021.2.3,Win32,144.1129846,627c6715c52fd12f31907bcf,,,,,,,,,,,,,,,,,,,,,,,a,1,1.0238,"[""0.166"",""0.512"",""0.128"",""0.946""]","[1,1,0,1]",0,33,33,33,1,0,1,,,1,FALSE,,,,,,,,,,,,,,,,,,,,,,,,,,,,,,,
,5f7460857c789f200efba7dc,627c6fbadc54bcc7f388c5da,2022-05-12_04h24.15.778,classification_task,2021.2.3,Win32,144.1129846,627c6715c52fd12f31907bcf,,,,,,,,,,,,,,,,,,,,,,,a,0,1.5625,"[""0.076"",""0.304"",""0.656"",""0.614""]","[1,1,1,0]",0,34,34,34,1,1,0,,,1,FALSE,,,,,,,,,,,,,,,,,,,,,,,,,,,,,,,
,5f7460857c789f200efba7dc,627c6fbadc54bcc7f388c5da,2022-05-12_04h24.15.778,classification_task,2021.2.3,Win32,144.1129846,627c6715c52fd12f31907bcf,,,,,,,,,,,,,,,,,,,,,,,a,1,1.9396,"[""0.205"",""0.385"",""0.772"",""0.620""]","[1,1,1,0]",0,35,35,35,1,0,0,,,1,FALSE,,,,,,,,,,,,,,,,,,,,,,,,,,,,,,,
,5f7460857c789f200efba7dc,627c6fbadc54bcc7f388c5da,2022-05-12_04h24.15.778,classification_task,2021.2.3,Win32,144.1129846,627c6715c52fd12f31907bcf,,,,,,,,,,,,,,,,,,,,,,,l,1,0.7499,"[""0.031"",""0.256"",""0.111"",""0.719""]","[1,1,0,1]",0,36,36,36,1,1,1,,,1,FALSE,,,,,,,,,,,,,,,,,,,,,,,,,,,,,,,
,5f7460857c789f200efba7dc,627c6fbadc54bcc7f388c5da,2022-05-12_04h24.15.778,classification_task,2021.2.3,Win32,144.1129846,627c6715c52fd12f31907bcf,,,,,,,,,,,,,,,,,,,,,,,a,0,3.2534,"[""0.076"",""0.345"",""0.656"",""0.820""]","[1,0,1,1]",0,37,37,37,1,1,0,,,1,FALSE,,,,,,,,,,,,,,,,,,,,,,,,,,,,,,,
,5f7460857c789f200efba7dc,627c6fbadc54bcc7f388c5da,2022-05-12_04h24.15.778,classification_task,2021.2.3,Win32,144.1129846,627c6715c52fd12f31907bcf,,,,,,,,,,,,,,,,,,,,,,,a,1,0.8458,"[""0.421"",""0.512"",""0.571"",""0.946""]","[0,1,1,1]",0,38,38,38,1,0,1,,,1,FALSE,,,,,,,,,,,,,,,,,,,,,,,,,,,,,,,
,5f7460857c789f200efba7dc,627c6fbadc54bcc7f388c5da,2022-05-12_04h24.15.778,classification_task,2021.2.3,Win32,144.1129846,627c6715c52fd12f31907bcf,,,,,,,,,,,,,,,,,,,,,,,a,1,0.6045,"[""0.166"",""0.512"",""0.571"",""0.620""]","[1,1,1,0]",0,39,39,39,1,0,1,,,1,FALSE,,,,,,,,,,,,,,,,,,,,,,,,,,,,,,,
,5f7460857c789f200efba7dc,627c6fbadc54bcc7f388c5da,2022-05-12_04h24.15.778,classification_task,2021.2.3,Win32,144.1129846,627c6715c52fd12f31907bcf,,,,,,,,,,,,,,,,,,,,,,,l,1,1.354,"[""0.128"",""0.304"",""0.656"",""0.820""]","[0,1,1,1]",0,40,40,40,1,1,0,,,1,FALSE,,,,,,,,,,,,,,,,,,,,,,,,,,,,,,,
,5f7460857c789f200efba7dc,627c6fbadc54bcc7f388c5da,2022-05-12_04h24.15.778,classification_task,2021.2.3,Win32,144.1129846,627c6715c52fd12f31907bcf,,,,,,,,,,,,,,,,,,,,,,,l,1,0.7983,"[""0.031"",""0.256"",""0.462"",""0.122""]","[1,1,1,0]",0,41,41,41,1,1,1,,,1,FALSE,,,,,,,,,,,,,,,,,,,,,,,,,,,,,,,
,5f7460857c789f200efba7dc,627c6fbadc54bcc7f388c5da,2022-05-12_04h24.15.778,classification_task,2021.2.3,Win32,144.1129846,627c6715c52fd12f31907bcf,,,,,,,,,,,,,,,,,,,,,,,l,1,0.7289,"[""0.031"",""0.614"",""0.462"",""0.719""]","[1,0,1,1]",0,42,42,42,1,1,1,,,1,FALSE,,,,,,,,,,,,,,,,,,,,,,,,,,,,,,,
,5f7460857c789f200efba7dc,627c6fbadc54bcc7f388c5da,2022-05-12_04h24.15.778,classification_task,2021.2.3,Win32,144.1129846,627c6715c52fd12f31907bcf,,,,,,,,,,,,,,,,,,,,,,,a,1,0.799,"[""0.166"",""0.119"",""0.571"",""0.946""]","[1,0,1,1]",0,43,43,43,1,0,1,,,1,FALSE,,,,,,,,,,,,,,,,,,,,,,,,,,,,,,,
,5f7460857c789f200efba7dc,627c6fbadc54bcc7f388c5da,2022-05-12_04h24.15.778,classification_task,2021.2.3,Win32,144.1129846,627c6715c52fd12f31907bcf,,,,,,,,,,,,,,,,,,,,,,,l,1,1.5534,"[""0.427"",""0.256"",""0.462"",""0.719""]","[0,1,1,1]",0,44,44,44,1,1,1,,,1,FALSE,,,,,,,,,,,,,,,,,,,,,,,,,,,,,,,
,5f7460857c789f200efba7dc,627c6fbadc54bcc7f388c5da,2022-05-12_04h24.15.778,classification_task,2021.2.3,Win32,144.1129846,627c6715c52fd12f31907bcf,,,,,,,,,,,,,,,,,,,,,,,a,1,1.1942,"[""0.427"",""0.385"",""0.772"",""0.893""]","[0,1,1,1]",0,45,45,45,1,0,0,,,1,FALSE,,,,,,,,,,,,,,,,,,,,,,,,,,,,,,,
,5f7460857c789f200efba7dc,627c6fbadc54bcc7f388c5da,2022-05-12_04h24.15.778,classification_task,2021.2.3,Win32,144.1129846,627c6715c52fd12f31907bcf,,,,,,,,,,,,,,,,,,,,,,,l,1,1.3959,"[""0.076"",""0.304"",""0.620"",""0.820""]","[1,1,0,1]",0,46,46,46,1,1,0,,,1,FALSE,,,,,,,,,,,,,,,,,,,,,,,,,,,,,,,
,5f7460857c789f200efba7dc,627c6fbadc54bcc7f388c5da,2022-05-12_04h24.15.778,classification_task,2021.2.3,Win32,144.1129846,627c6715c52fd12f31907bcf,,,,,,,,,,,,,,,,,,,,,,,a,1,1.462,"[""0.205"",""0.620"",""0.772"",""0.893""]","[1,0,1,1]",0,47,47,47,1,0,0,,,1,FALSE,,,,,,,,,,,,,,,,,,,,,,,,,,,,,,,
,5f7460857c789f200efba7dc,627c6fbadc54bcc7f388c5da,2022-05-12_04h24.15.778,classification_task,2021.2.3,Win32,144.1129846,627c6715c52fd12f31907bcf,,,,,,,,,,,,,,,,,,,,,,,l,0,1.009,"[""0.205"",""0.385"",""0.772"",""0.421""]","[1,1,1,0]",0,48,48,48,1,0,0,,,1,FALSE,,,,,,,,,,,,,,,,,,,,,,,,,,,,,,,
,5f7460857c789f200efba7dc,627c6fbadc54bcc7f388c5da,2022-05-12_04h24.15.778,classification_task,2021.2.3,Win32,144.1129846,627c6715c52fd12f31907bcf,,,,,,,,,,,,,,,,,,,,,,,a,1,2.4794,"[""0.205"",""0.385"",""0.620"",""0.893""]","[1,1,0,1]",0,49,49,49,1,0,0,,,1,FALSE,,,,,,,,,,,,,,,,,,,,,,,,,,,,,,,
,5f7460857c789f200efba7dc,627c6fbadc54bcc7f388c5da,2022-05-12_04h24.15.778,classification_task,2021.2.3,Win32,144.1129846,627c6715c52fd12f31907bcf,,,,,,,,,,,,,,,,,,,,,,,l,0,1.1091,"[""0.166"",""0.512"",""0.571"",""0.421""]","[1,1,1,0]",0,50,50,50,1,0,1,,,1,FALSE,,,,,,,,,,,,,,,,,,,,,,,,,,,,,,,
,5f7460857c789f200efba7dc,627c6fbadc54bcc7f388c5da,2022-05-12_04h24.15.778,classification_task,2021.2.3,Win32,144.1129846,627c6715c52fd12f31907bcf,,,,,,,,,,,,,,,,,,,,,,,a,0,2.2234,"[""0.031"",""0.256"",""0.122"",""0.719""]","[1,1,0,1]",0,51,51,51,1,1,1,,,1,FALSE,,,,,,,,,,,,,,,,,,,,,,,,,,,,,,,
,5f7460857c789f200efba7dc,627c6fbadc54bcc7f388c5da,2022-05-12_04h24.15.778,classification_task,2021.2.3,Win32,144.1129846,627c6715c52fd12f31907bcf,,,,,,,,,,,,,,,,,,,,,,,l,1,0.6322,"[""0.031"",""0.128"",""0.462"",""0.719""]","[1,0,1,1]",0,52,52,52,1,1,1,,,1,FALSE,,,,,,,,,,,,,,,,,,,,,,,,,,,,,,,
,5f7460857c789f200efba7dc,627c6fbadc54bcc7f388c5da,2022-05-12_04h24.15.778,classification_task,2021.2.3,Win32,144.1129846,627c6715c52fd12f31907bcf,,,,,,,,,,,,,,,,,,,,,,,a,0,1.4845,"[""0.620"",""0.304"",""0.656"",""0.820""]","[0,1,1,1]",0,53,53,53,1,1,0,,,1,FALSE,,,,,,,,,,,,,,,,,,,,,,,,,,,,,,,
,5f7460857c789f200efba7dc,627c6fbadc54bcc7f388c5da,2022-05-12_04h24.15.778,classification_task,2021.2.3,Win32,144.1129846,627c6715c52fd12f31907bcf,,,,,,,,,,,,,,,,,,,,,,,l,1,1.1785,"[""0.618"",""0.256"",""0.462"",""0.719""]","[0,1,1,1]",0,54,54,54,1,1,1,,,1,FALSE,,,,,,,,,,,,,,,,,,,,,,,,,,,,,,,
,5f7460857c789f200efba7dc,627c6fbadc54bcc7f388c5da,2022-05-12_04h24.15.778,classification_task,2021.2.3,Win32,144.1129846,627c6715c52fd12f31907bcf,,,,,,,,,,,,,,,,,,,,,,,a,0,1.7709,"[""0.076"",""0.304"",""0.122"",""0.820""]","[1,1,0,1]",0,55,55,55,1,1,0,,,1,FALSE,,,,,,,,,,,,,,,,,,,,,,,,,,,,,,,
,5f7460857c789f200efba7dc,627c6fbadc54bcc7f388c5da,2022-05-12_04h24.15.778,classification_task,2021.2.3,Win32,144.1129846,627c6715c52fd12f31907bcf,,,,,,,,,,,,,,,,,,,,,,,l,1,1.1367,"[""0.031"",""0.256"",""0.462"",""0.111""]","[1,1,1,0]",0,56,56,56,1,1,1,,,1,FALSE,,,,,,,,,,,,,,,,,,,,,,,,,,,,,,,
,5f7460857c789f200efba7dc,627c6fbadc54bcc7f388c5da,2022-05-12_04h24.15.778,classification_task,2021.2.3,Win32,144.1129846,627c6715c52fd12f31907bcf,,,,,,,,,,,,,,,,,,,,,,,a,0,1.883,"[""0.076"",""0.304"",""0.656"",""0.609""]","[1,1,1,0]",0,57,57,57,1,1,0,,,1,FALSE,,,,,,,,,,,,,,,,,,,,,,,,,,,,,,,
,5f7460857c789f200efba7dc,627c6fbadc54bcc7f388c5da,2022-05-12_04h24.15.778,classification_task,2021.2.3,Win32,144.1129846,627c6715c52fd12f31907bcf,,,,,,,,,,,,,,,,,,,,,,,a,1,1.0965,"[""0.166"",""0.119"",""0.571"",""0.946""]","[1,0,1,1]",0,58,58,58,1,0,1,,,1,FALSE,,,,,,,,,,,,,,,,,,,,,,,,,,,,,,,
,5f7460857c789f200efba7dc,627c6fbadc54bcc7f388c5da,2022-05-12_04h24.15.778,classification_task,2021.2.3,Win32,144.1129846,627c6715c52fd12f31907bcf,,,,,,,,,,,,,,,,,,,,,,,a,1,0.9843,"[""0.205"",""0.420"",""0.772"",""0.893""]","[1,0,1,1]",0,59,59,59,1,0,0,,,1,FALSE,,,,,,,,,,,,,,,,,,,,,,,,,,,,,,,
,5f7460857c789f200efba7dc,627c6fbadc54bcc7f388c5da,2022-05-12_04h24.15.778,classification_task,2021.2.3,Win32,144.1129846,627c6715c52fd12f31907bcf,,,,,,,,,,,,,,,,,,,,,,,l,1,0.8409,"[""0.076"",""0.618"",""0.656"",""0.820""]","[1,0,1,1]",0,60,60,60,1,1,0,,,1,FALSE,,,,,,,,,,,,,,,,,,,,,,,,,,,,,,,
,5f7460857c789f200efba7dc,627c6fbadc54bcc7f388c5da,2022-05-12_04h24.15.778,classification_task,2021.2.3,Win32,144.1129846,627c6715c52fd12f31907bcf,,,,,,,,,,,,,,,,,,,,,,,a,1,1.0143,"[""0.166"",""0.512"",""0.427"",""0.946""]","[1,1,0,1]",0,61,61,61,1,0,1,,,1,FALSE,,,,,,,,,,,,,,,,,,,,,,,,,,,,,,,
,5f7460857c789f200efba7dc,627c6fbadc54bcc7f388c5da,2022-05-12_04h24.15.778,classification_task,2021.2.3,Win32,144.1129846,627c6715c52fd12f31907bcf,,,,,,,,,,,,,,,,,,,,,,,a,1,0.6844,"[""0.122"",""0.512"",""0.571"",""0.946""]","[0,1,1,1]",0,62,62,62,1,0,1,,,1,FALSE,,,,,,,,,,,,,,,,,,,,,,,,,,,,,,,
,5f7460857c789f200efba7dc,627c6fbadc54bcc7f388c5da,2022-05-12_04h24.15.778,classification_task,2021.2.3,Win32,144.1129846,627c6715c52fd12f31907bcf,,,,,,,,,,,,,,,,,,,,,,,a,1,1.4307,"[""0.111"",""0.385"",""0.772"",""0.893""]","[0,1,1,1]",0,63,63,63,1,0,0,,,1,FALSE,,,,,,,,,,,,,,,,,,,,,,,,,,,,,,,
,5f7460857c789f200efba7dc,627c6fbadc54bcc7f388c5da,2022-05-12_04h24.15.778,classification_task,2021.2.3,Win32,144.1129846,627c6715c52fd12f31907bcf,,,,,,,,,,,,,,,,,,,,,,,,,,,,,,,,,,,,,,,0, ,,0,4.944885362,163.1759,0,1,1,1,1,2,2,,,,,,,,,,,,,,,,,,
,5f7460857c789f200efba7dc,627c6fbadc54bcc7f388c5da,2022-05-12_04h24.15.778,classification_task,2021.2.3,Win32,144.1129846,627c6715c52fd12f31907bcf,,,,,,,,,,,,,,,,,,,,,,,,,,,,,,,,,,,,,,,1,  ,,0,4.448853616,166.334,0,1,1,1,1,2,2,,,,,,,,,,,,,,,,,,
,5f7460857c789f200efba7dc,627c6fbadc54bcc7f388c5da,2022-05-12_04h24.15.778,classification_task,2021.2.3,Win32,144.1129846,627c6715c52fd12f31907bcf,,,,,,,,,,,,,,,,,,,,,,,,,,,,,,,,,,,,,,,2,  ,,0,8.43547913,167.8865,0,1,1,1,1,2,2,,,,,,,,,,,,,,,,,,
,5f7460857c789f200efba7dc,627c6fbadc54bcc7f388c5da,2022-05-12_04h24.15.778,classification_task,2021.2.3,Win32,144.1129846,627c6715c52fd12f31907bcf,,,,,,,,,,,,,,,,,,,,,,,,,,,,,,,,,,,,,,,,,,,,,0,1,1,1,1,,2,,,,,,,,,,,,,,,,,,
,5f7460857c789f200efba7dc,627c6fbadc54bcc7f388c5da,2022-05-12_04h24.15.778,classification_task,2021.2.3,Win32,144.1129846,627c6715c52fd12f31907bcf,,,,,,,,,,,,,,,,,,,,,space,7.1478,l,1,3.6971,"[""0.031"",""0.256"",""0.113"",""0.719""]","[1,1,0,1]",0,0,0,0,1,1,1,,,1,FALSE,,,,,,,,,,,,,,,,,,,,,,,,,,,,,,,
,5f7460857c789f200efba7dc,627c6fbadc54bcc7f388c5da,2022-05-12_04h24.15.778,classification_task,2021.2.3,Win32,144.1129846,627c6715c52fd12f31907bcf,,,,,,,,,,,,,,,,,,,,,,,a,0,1.4832,"[""0.031"",""0.609"",""0.462"",""0.719""]","[1,0,1,1]",0,1,1,1,1,1,1,,,1,FALSE,,,,,,,,,,,,,,,,,,,,,,,,,,,,,,,
,5f7460857c789f200efba7dc,627c6fbadc54bcc7f388c5da,2022-05-12_04h24.15.778,classification_task,2021.2.3,Win32,144.1129846,627c6715c52fd12f31907bcf,,,,,,,,,,,,,,,,,,,,,,,l,0,1.5634,"[""0.205"",""0.385"",""0.772"",""0.111""]","[1,1,1,0]",0,2,2,2,1,0,0,,,1,FALSE,,,,,,,,,,,,,,,,,,,,,,,,,,,,,,,
,5f7460857c789f200efba7dc,627c6fbadc54bcc7f388c5da,2022-05-12_04h24.15.778,classification_task,2021.2.3,Win32,144.1129846,627c6715c52fd12f31907bcf,,,,,,,,,,,,,,,,,,,,,,,l,1,2.1703,"[""0.076"",""0.304"",""0.614"",""0.820""]","[1,1,0,1]",0,3,3,3,1,1,0,,,1,FALSE,,,,,,,,,,,,,,,,,,,,,,,,,,,,,,,
,5f7460857c789f200efba7dc,627c6fbadc54bcc7f388c5da,2022-05-12_04h24.15.778,classification_task,2021.2.3,Win32,144.1129846,627c6715c52fd12f31907bcf,,,,,,,,,,,,,,,,,,,,,,,l,1,1.2423,"[""0.076"",""0.304"",""0.656"",""0.620""]","[1,1,1,0]",0,4,4,4,1,1,0,,,1,FALSE,,,,,,,,,,,,,,,,,,,,,,,,,,,,,,,
,5f7460857c789f200efba7dc,627c6fbadc54bcc7f388c5da,2022-05-12_04h24.15.778,classification_task,2021.2.3,Win32,144.1129846,627c6715c52fd12f31907bcf,,,,,,,,,,,,,,,,,,,,,,,a,0,1.0026,"[""0.420"",""0.256"",""0.462"",""0.719""]","[0,1,1,1]",0,5,5,5,1,1,1,,,1,FALSE,,,,,,,,,,,,,,,,,,,,,,,,,,,,,,,
,5f7460857c789f200efba7dc,627c6fbadc54bcc7f388c5da,2022-05-12_04h24.15.778,classification_task,2021.2.3,Win32,144.1129846,627c6715c52fd12f31907bcf,,,,,,,,,,,,,,,,,,,,,,,a,1,0.7695,"[""0.205"",""0.385"",""0.620"",""0.893""]","[1,1,0,1]",0,6,6,6,1,0,0,,,1,FALSE,,,,,,,,,,,,,,,,,,,,,,,,,,,,,,,
,5f7460857c789f200efba7dc,627c6fbadc54bcc7f388c5da,2022-05-12_04h24.15.778,classification_task,2021.2.3,Win32,144.1129846,627c6715c52fd12f31907bcf,,,,,,,,,,,,,,,,,,,,,,,a,1,1.4235,"[""0.166"",""0.512"",""0.427"",""0.946""]","[1,1,0,1]",0,7,7,7,1,0,1,,,1,FALSE,,,,,,,,,,,,,,,,,,,,,,,,,,,,,,,
,5f7460857c789f200efba7dc,627c6fbadc54bcc7f388c5da,2022-05-12_04h24.15.778,classification_task,2021.2.3,Win32,144.1129846,627c6715c52fd12f31907bcf,,,,,,,,,,,,,,,,,,,,,,,a,1,0.6321,"[""0.166"",""0.420"",""0.571"",""0.946""]","[1,0,1,1]",0,8,8,8,1,0,1,,,1,FALSE,,,,,,,,,,,,,,,,,,,,,,,,,,,,,,,
,5f7460857c789f200efba7dc,627c6fbadc54bcc7f388c5da,2022-05-12_04h24.15.778,classification_task,2021.2.3,Win32,144.1129846,627c6715c52fd12f31907bcf,,,,,,,,,,,,,,,,,,,,,,,a,1,0.8625,"[""0.609"",""0.385"",""0.772"",""0.893""]","[0,1,1,1]",0,9,9,9,1,0,0,,,1,FALSE,,,,,,,,,,,,,,,,,,,,,,,,,,,,,,,
,5f7460857c789f200efba7dc,627c6fbadc54bcc7f388c5da,2022-05-12_04h24.15.778,classification_task,2021.2.3,Win32,144.1129846,627c6715c52fd12f31907bcf,,,,,,,,,,,,,,,,,,,,,,,l,1,0.8829,"[""0.031"",""0.256"",""0.462"",""0.128""]","[1,1,1,0]",0,10,10,10,1,1,1,,,1,FALSE,,,,,,,,,,,,,,,,,,,,,,,,,,,,,,,
,5f7460857c789f200efba7dc,627c6fbadc54bcc7f388c5da,2022-05-12_04h24.15.778,classification_task,2021.2.3,Win32,144.1129846,627c6715c52fd12f31907bcf,,,,,,,,,,,,,,,,,,,,,,,l,0,1.4401,"[""0.420"",""0.512"",""0.571"",""0.946""]","[0,1,1,1]",0,11,11,11,1,0,1,,,1,FALSE,,,,,,,,,,,,,,,,,,,,,,,,,,,,,,,
,5f7460857c789f200efba7dc,627c6fbadc54bcc7f388c5da,2022-05-12_04h24.15.778,classification_task,2021.2.3,Win32,144.1129846,627c6715c52fd12f31907bcf,,,,,,,,,,,,,,,,,,,,,,,a,1,0.6534,"[""0.205"",""0.620"",""0.772"",""0.893""]","[1,0,1,1]",0,12,12,12,1,0,0,,,1,FALSE,,,,,,,,,,,,,,,,,,,,,,,,,,,,,,,
,5f7460857c789f200efba7dc,627c6fbadc54bcc7f388c5da,2022-05-12_04h24.15.778,classification_task,2021.2.3,Win32,144.1129846,627c6715c52fd12f31907bcf,,,,,,,,,,,,,,,,,,,,,,,a,1,1.4312,"[""0.166"",""0.512"",""0.571"",""0.345""]","[1,1,1,0]",0,13,13,13,1,0,1,,,1,FALSE,,,,,,,,,,,,,,,,,,,,,,,,,,,,,,,
,5f7460857c789f200efba7dc,627c6fbadc54bcc7f388c5da,2022-05-12_04h24.15.778,classification_task,2021.2.3,Win32,144.1129846,627c6715c52fd12f31907bcf,,,,,,,,,,,,,,,,,,,,,,,l,1,1.1463,"[""0.076"",""0.609"",""0.656"",""0.820""]","[1,0,1,1]",0,14,14,14,1,1,0,,,1,FALSE,,,,,,,,,,,,,,,,,,,,,,,,,,,,,,,
,5f7460857c789f200efba7dc,627c6fbadc54bcc7f388c5da,2022-05-12_04h24.15.778,classification_task,2021.2.3,Win32,144.1129846,627c6715c52fd12f31907bcf,,,,,,,,,,,,,,,,,,,,,,,l,1,0.631,"[""0.122"",""0.304"",""0.656"",""0.820""]","[0,1,1,1]",0,15,15,15,1,1,0,,,1,FALSE,,,,,,,,,,,,,,,,,,,,,,,,,,,,,,,
,5f7460857c789f200efba7dc,627c6fbadc54bcc7f388c5da,2022-05-12_04h24.15.778,classification_task,2021.2.3,Win32,144.1129846,627c6715c52fd12f31907bcf,,,,,,,,,,,,,,,,,,,,,,,a,1,0.9168,"[""0.166"",""0.512"",""0.571"",""0.421""]","[1,1,1,0]",0,16,16,16,1,0,1,,,1,FALSE,,,,,,,,,,,,,,,,,,,,,,,,,,,,,,,
,5f7460857c789f200efba7dc,627c6fbadc54bcc7f388c5da,2022-05-12_04h24.15.778,classification_task,2021.2.3,Win32,144.1129846,627c6715c52fd12f31907bcf,,,,,,,,,,,,,,,,,,,,,,,a,0,0.9025,"[""0.076"",""0.345"",""0.656"",""0.820""]","[1,0,1,1]",0,17,17,17,1,1,0,,,1,FALSE,,,,,,,,,,,,,,,,,,,,,,,,,,,,,,,
,5f7460857c789f200efba7dc,627c6fbadc54bcc7f388c5da,2022-05-12_04h24.15.778,classification_task,2021.2.3,Win32,144.1129846,627c6715c52fd12f31907bcf,,,,,,,,,,,,,,,,,,,,,,,a,1,1.5836,"[""0.166"",""0.421"",""0.571"",""0.946""]","[1,0,1,1]",0,18,18,18,1,0,1,,,1,FALSE,,,,,,,,,,,,,,,,,,,,,,,,,,,,,,,
,5f7460857c789f200efba7dc,627c6fbadc54bcc7f388c5da,2022-05-12_04h24.15.778,classification_task,2021.2.3,Win32,144.1129846,627c6715c52fd12f31907bcf,,,,,,,,,,,,,,,,,,,,,,,a,1,0.744,"[""0.119"",""0.385"",""0.772"",""0.893""]","[0,1,1,1]",0,19,19,19,1,0,0,,,1,FALSE,,,,,,,,,,,,,,,,,,,,,,,,,,,,,,,
,5f7460857c789f200efba7dc,627c6fbadc54bcc7f388c5da,2022-05-12_04h24.15.778,classification_task,2021.2.3,Win32,144.1129846,627c6715c52fd12f31907bcf,,,,,,,,,,,,,,,,,,,,,,,a,1,0.6294,"[""0.205"",""0.420"",""0.772"",""0.893""]","[1,0,1,1]",0,20,20,20,1,0,0,,,1,FALSE,,,,,,,,,,,,,,,,,,,,,,,,,,,,,,,
,5f7460857c789f200efba7dc,627c6fbadc54bcc7f388c5da,2022-05-12_04h24.15.778,classification_task,2021.2.3,Win32,144.1129846,627c6715c52fd12f31907bcf,,,,,,,,,,,,,,,,,,,,,,,l,1,0.8251,"[""0.031"",""0.256"",""0.462"",""0.345""]","[1,1,1,0]",0,21,21,21,1,1,1,,,1,FALSE,,,,,,,,,,,,,,,,,,,,,,,,,,,,,,,
,5f7460857c789f200efba7dc,627c6fbadc54bcc7f388c5da,2022-05-12_04h24.15.778,classification_task,2021.2.3,Win32,144.1129846,627c6715c52fd12f31907bcf,,,,,,,,,,,,,,,,,,,,,,,l,0,0.8983,"[""0.113"",""0.512"",""0.571"",""0.946""]","[0,1,1,1]",0,22,22,22,1,0,1,,,1,FALSE,,,,,,,,,,,,,,,,,,,,,,,,,,,,,,,
,5f7460857c789f200efba7dc,627c6fbadc54bcc7f388c5da,2022-05-12_04h24.15.778,classification_task,2021.2.3,Win32,144.1129846,627c6715c52fd12f31907bcf,,,,,,,,,,,,,,,,,,,,,,,l,1,0.6943,"[""0.122"",""0.256"",""0.462"",""0.719""]","[0,1,1,1]",0,23,23,23,1,1,1,,,1,FALSE,,,,,,,,,,,,,,,,,,,,,,,,,,,,,,,
,5f7460857c789f200efba7dc,627c6fbadc54bcc7f388c5da,2022-05-12_04h24.15.778,classification_task,2021.2.3,Win32,144.1129846,627c6715c52fd12f31907bcf,,,,,,,,,,,,,,,,,,,,,,,a,0,1.2425,"[""0.031"",""0.113"",""0.462"",""0.719""]","[1,0,1,1]",0,24,24,24,1,1,1,,,1,FALSE,,,,,,,,,,,,,,,,,,,,,,,,,,,,,,,
,5f7460857c789f200efba7dc,627c6fbadc54bcc7f388c5da,2022-05-12_04h24.15.778,classification_task,2021.2.3,Win32,144.1129846,627c6715c52fd12f31907bcf,,,,,,,,,,,,,,,,,,,,,,,a,0,0.6173,"[""0.031"",""0.256"",""0.427"",""0.719""]","[1,1,0,1]",0,25,25,25,1,1,1,,,1,FALSE,,,,,,,,,,,,,,,,,,,,,,,,,,,,,,,
,5f7460857c789f200efba7dc,627c6fbadc54bcc7f388c5da,2022-05-12_04h24.15.778,classification_task,2021.2.3,Win32,144.1129846,627c6715c52fd12f31907bcf,,,,,,,,,,,,,,,,,,,,,,,a,0,1.1194,"[""0.076"",""0.304"",""0.618"",""0.820""]","[1,1,0,1]",0,26,26,26,1,1,0,,,1,FALSE,,,,,,,,,,,,,,,,,,,,,,,,,,,,,,,
,5f7460857c789f200efba7dc,627c6fbadc54bcc7f388c5da,2022-05-12_04h24.15.778,classification_task,2021.2.3,Win32,144.1129846,627c6715c52fd12f31907bcf,,,,,,,,,,,,,,,,,,,,,,,a,0,0.5692,"[""0.609"",""0.304"",""0.656"",""0.820""]","[0,1,1,1]",0,27,27,27,1,1,0,,,1,FALSE,,,,,,,,,,,,,,,,,,,,,,,,,,,,,,,
,5f7460857c789f200efba7dc,627c6fbadc54bcc7f388c5da,2022-05-12_04h24.15.778,classification_task,2021.2.3,Win32,144.1129846,627c6715c52fd12f31907bcf,,,,,,,,,,,,,,,,,,,,,,,l,1,1.0379,"[""0.076"",""0.304"",""0.656"",""0.620""]","[1,1,1,0]",0,28,28,28,1,1,0,,,1,FALSE,,,,,,,,,,,,,,,,,,,,,,,,,,,,,,,
,5f7460857c789f200efba7dc,627c6fbadc54bcc7f388c5da,2022-05-12_04h24.15.778,classification_task,2021.2.3,Win32,144.1129846,627c6715c52fd12f31907bcf,,,,,,,,,,,,,,,,,,,,,,,l,0,1.0543,"[""0.205"",""0.385"",""0.772"",""0.119""]","[1,1,1,0]",0,29,29,29,1,0,0,,,1,FALSE,,,,,,,,,,,,,,,,,,,,,,,,,,,,,,,
,5f7460857c789f200efba7dc,627c6fbadc54bcc7f388c5da,2022-05-12_04h24.15.778,classification_task,2021.2.3,Win32,144.1129846,627c6715c52fd12f31907bcf,,,,,,,,,,,,,,,,,,,,,,,a,1,0.7247,"[""0.205"",""0.385"",""0.620"",""0.893""]","[1,1,0,1]",0,30,30,30,1,0,0,,,1,FALSE,,,,,,,,,,,,,,,,,,,,,,,,,,,,,,,
,5f7460857c789f200efba7dc,627c6fbadc54bcc7f388c5da,2022-05-12_04h24.15.778,classification_task,2021.2.3,Win32,144.1129846,627c6715c52fd12f31907bcf,,,,,,,,,,,,,,,,,,,,,,,l,0,0.8735,"[""0.166"",""0.512"",""0.122"",""0.946""]","[1,1,0,1]",0,31,31,31,1,0,1,,,1,FALSE,,,,,,,,,,,,,,,,,,,,,,,,,,,,,,,
,5f7460857c789f200efba7dc,627c6fbadc54bcc7f388c5da,2022-05-12_04h24.15.778,classification_task,2021.2.3,Win32,144.1129846,627c6715c52fd12f31907bcf,,,,,,,,,,,,,,,,,,,,,,,l,1,1.1616,"[""0.076"",""0.122"",""0.656"",""0.820""]","[1,0,1,1]",0,32,32,32,1,1,0,,,1,FALSE,,,,,,,,,,,,,,,,,,,,,,,,,,,,,,,
,5f7460857c789f200efba7dc,627c6fbadc54bcc7f388c5da,2022-05-12_04h24.15.778,classification_task,2021.2.3,Win32,144.1129846,627c6715c52fd12f31907bcf,,,,,,,,,,,,,,,,,,,,,,,a,0,0.9918,"[""0.031"",""0.256"",""0.614"",""0.719""]","[1,1,0,1]",0,33,33,33,1,1,1,,,1,FALSE,,,,,,,,,,,,,,,,,,,,,,,,,,,,,,,
,5f7460857c789f200efba7dc,627c6fbadc54bcc7f388c5da,2022-05-12_04h24.15.778,classification_task,2021.2.3,Win32,144.1129846,627c6715c52fd12f31907bcf,,,,,,,,,,,,,,,,,,,,,,,a,0,0.8948,"[""0.076"",""0.304"",""0.656"",""0.119""]","[1,1,1,0]",0,34,34,34,1,1,0,,,1,FALSE,,,,,,,,,,,,,,,,,,,,,,,,,,,,,,,
,5f7460857c789f200efba7dc,627c6fbadc54bcc7f388c5da,2022-05-12_04h24.15.778,classification_task,2021.2.3,Win32,144.1129846,627c6715c52fd12f31907bcf,,,,,,,,,,,,,,,,,,,,,,,a,0,0.9134,"[""0.076"",""0.304"",""0.620"",""0.820""]","[1,1,0,1]",0,35,35,35,1,1,0,,,1,FALSE,,,,,,,,,,,,,,,,,,,,,,,,,,,,,,,
,5f7460857c789f200efba7dc,627c6fbadc54bcc7f388c5da,2022-05-12_04h24.15.778,classification_task,2021.2.3,Win32,144.1129846,627c6715c52fd12f31907bcf,,,,,,,,,,,,,,,,,,,,,,,l,0,1.9192,"[""0.205"",""0.385"",""0.772"",""0.609""]","[1,1,1,0]",0,36,36,36,1,0,0,,,1,FALSE,,,,,,,,,,,,,,,,,,,,,,,,,,,,,,,
,5f7460857c789f200efba7dc,627c6fbadc54bcc7f388c5da,2022-05-12_04h24.15.778,classification_task,2021.2.3,Win32,144.1129846,627c6715c52fd12f31907bcf,,,,,,,,,,,,,,,,,,,,,,,a,0,0.8126,"[""0.031"",""0.427"",""0.462"",""0.719""]","[1,0,1,1]",0,37,37,37,1,1,1,,,1,FALSE,,,,,,,,,,,,,,,,,,,,,,,,,,,,,,,
,5f7460857c789f200efba7dc,627c6fbadc54bcc7f388c5da,2022-05-12_04h24.15.778,classification_task,2021.2.3,Win32,144.1129846,627c6715c52fd12f31907bcf,,,,,,,,,,,,,,,,,,,,,,,a,1,0.5552,"[""0.166"",""0.512"",""0.571"",""0.420""]","[1,1,1,0]",0,38,38,38,1,0,1,,,1,FALSE,,,,,,,,,,,,,,,,,,,,,,,,,,,,,,,
,5f7460857c789f200efba7dc,627c6fbadc54bcc7f388c5da,2022-05-12_04h24.15.778,classification_task,2021.2.3,Win32,144.1129846,627c6715c52fd12f31907bcf,,,,,,,,,,,,,,,,,,,,,,,a,1,0.806,"[""0.609"",""0.385"",""0.772"",""0.893""]","[0,1,1,1]",0,39,39,39,1,0,0,,,1,FALSE,,,,,,,,,,,,,,,,,,,,,,,,,,,,,,,
,5f7460857c789f200efba7dc,627c6fbadc54bcc7f388c5da,2022-05-12_04h24.15.778,classification_task,2021.2.3,Win32,144.1129846,627c6715c52fd12f31907bcf,,,,,,,,,,,,,,,,,,,,,,,l,0,0.8542,"[""0.166"",""0.614"",""0.571"",""0.946""]","[1,0,1,1]",0,40,40,40,1,0,1,,,1,FALSE,,,,,,,,,,,,,,,,,,,,,,,,,,,,,,,
,5f7460857c789f200efba7dc,627c6fbadc54bcc7f388c5da,2022-05-12_04h24.15.778,classification_task,2021.2.3,Win32,144.1129846,627c6715c52fd12f31907bcf,,,,,,,,,,,,,,,,,,,,,,,a,1,0.6887,"[""0.205"",""0.427"",""0.772"",""0.893""]","[1,0,1,1]",0,41,41,41,1,0,0,,,1,FALSE,,,,,,,,,,,,,,,,,,,,,,,,,,,,,,,
,5f7460857c789f200efba7dc,627c6fbadc54bcc7f388c5da,2022-05-12_04h24.15.778,classification_task,2021.2.3,Win32,144.1129846,627c6715c52fd12f31907bcf,,,,,,,,,,,,,,,,,,,,,,,a,1,0.7176,"[""0.205"",""0.385"",""0.421"",""0.893""]","[1,1,0,1]",0,42,42,42,1,0,0,,,1,FALSE,,,,,,,,,,,,,,,,,,,,,,,,,,,,,,,
,5f7460857c789f200efba7dc,627c6fbadc54bcc7f388c5da,2022-05-12_04h24.15.778,classification_task,2021.2.3,Win32,144.1129846,627c6715c52fd12f31907bcf,,,,,,,,,,,,,,,,,,,,,,,l,0,0.8955,"[""0.166"",""0.512"",""0.620"",""0.946""]","[1,1,0,1]",0,43,43,43,1,0,1,,,1,FALSE,,,,,,,,,,,,,,,,,,,,,,,,,,,,,,,
,5f7460857c789f200efba7dc,627c6fbadc54bcc7f388c5da,2022-05-12_04h24.15.778,classification_task,2021.2.3,Win32,144.1129846,627c6715c52fd12f31907bcf,,,,,,,,,,,,,,,,,,,,,,,l,1,0.7737,"[""0.620"",""0.256"",""0.462"",""0.719""]","[0,1,1,1]",0,44,44,44,1,1,1,,,1,FALSE,,,,,,,,,,,,,,,,,,,,,,,,,,,,,,,
,5f7460857c789f200efba7dc,627c6fbadc54bcc7f388c5da,2022-05-12_04h24.15.778,classification_task,2021.2.3,Win32,144.1129846,627c6715c52fd12f31907bcf,,,,,,,,,,,,,,,,,,,,,,,a,1,2.7455,"[""0.113"",""0.512"",""0.571"",""0.946""]","[0,1,1,1]",0,45,45,45,1,0,1,,,1,FALSE,,,,,,,,,,,,,,,,,,,,,,,,,,,,,,,
,5f7460857c789f200efba7dc,627c6fbadc54bcc7f388c5da,2022-05-12_04h24.15.778,classification_task,2021.2.3,Win32,144.1129846,627c6715c52fd12f31907bcf,,,,,,,,,,,,,,,,,,,,,,,a,0,1.2045,"[""0.614"",""0.304"",""0.656"",""0.820""]","[0,1,1,1]",0,46,46,46,1,1,0,,,1,FALSE,,,,,,,,,,,,,,,,,,,,,,,,,,,,,,,
,5f7460857c789f200efba7dc,627c6fbadc54bcc7f388c5da,2022-05-12_04h24.15.778,classification_task,2021.2.3,Win32,144.1129846,627c6715c52fd12f31907bcf,,,,,,,,,,,,,,,,,,,,,,,l,1,1.0449,"[""0.031"",""0.256"",""0.462"",""0.113""]","[1,1,1,0]",0,47,47,47,1,1,1,,,1,FALSE,,,,,,,,,,,,,,,,,,,,,,,,,,,,,,,
,5f7460857c789f200efba7dc,627c6fbadc54bcc7f388c5da,2022-05-12_04h24.15.778,classification_task,2021.2.3,Win32,144.1129846,627c6715c52fd12f31907bcf,,,,,,,,,,,,,,,,,,,,,,,a,1,0.7702,"[""0.609"",""0.385"",""0.772"",""0.893""]","[0,1,1,1]",0,48,48,48,1,0,0,,,1,FALSE,,,,,,,,,,,,,,,,,,,,,,,,,,,,,,,
,5f7460857c789f200efba7dc,627c6fbadc54bcc7f388c5da,2022-05-12_04h24.15.778,classification_task,2021.2.3,Win32,144.1129846,627c6715c52fd12f31907bcf,,,,,,,,,,,,,,,,,,,,,,,l,1,0.8149,"[""0.119"",""0.304"",""0.656"",""0.820""]","[0,1,1,1]",0,49,49,49,1,1,0,,,1,FALSE,,,,,,,,,,,,,,,,,,,,,,,,,,,,,,,
,5f7460857c789f200efba7dc,627c6fbadc54bcc7f388c5da,2022-05-12_04h24.15.778,classification_task,2021.2.3,Win32,144.1129846,627c6715c52fd12f31907bcf,,,,,,,,,,,,,,,,,,,,,,,a,1,0.8873,"[""0.205"",""0.385"",""0.420"",""0.893""]","[1,1,0,1]",0,50,50,50,1,0,0,,,1,FALSE,,,,,,,,,,,,,,,,,,,,,,,,,,,,,,,
,5f7460857c789f200efba7dc,627c6fbadc54bcc7f388c5da,2022-05-12_04h24.15.778,classification_task,2021.2.3,Win32,144.1129846,627c6715c52fd12f31907bcf,,,,,,,,,,,,,,,,,,,,,,,l,1,0.7108,"[""0.076"",""0.620"",""0.656"",""0.820""]","[1,0,1,1]",0,51,51,51,1,1,0,,,1,FALSE,,,,,,,,,,,,,,,,,,,,,,,,,,,,,,,
,5f7460857c789f200efba7dc,627c6fbadc54bcc7f388c5da,2022-05-12_04h24.15.778,classification_task,2021.2.3,Win32,144.1129846,627c6715c52fd12f31907bcf,,,,,,,,,,,,,,,,,,,,,,,l,0,0.9238,"[""0.205"",""0.385"",""0.772"",""0.122""]","[1,1,1,0]",0,52,52,52,1,0,0,,,1,FALSE,,,,,,,,,,,,,,,,,,,,,,,,,,,,,,,
,5f7460857c789f200efba7dc,627c6fbadc54bcc7f388c5da,2022-05-12_04h24.15.778,classification_task,2021.2.3,Win32,144.1129846,627c6715c52fd12f31907bcf,,,,,,,,,,,,,,,,,,,,,,,a,1,1.176,"[""0.122"",""0.512"",""0.571"",""0.946""]","[0,1,1,1]",0,53,53,53,1,0,1,,,1,FALSE,,,,,,,,,,,,,,,,,,,,,,,,,,,,,,,
,5f7460857c789f200efba7dc,627c6fbadc54bcc7f388c5da,2022-05-12_04h24.15.778,classification_task,2021.2.3,Win32,144.1129846,627c6715c52fd12f31907bcf,,,,,,,,,,,,,,,,,,,,,,,a,1,0.7571,"[""0.166"",""0.420"",""0.571"",""0.946""]","[1,0,1,1]",0,54,54,54,1,0,1,,,1,FALSE,,,,,,,,,,,,,,,,,,,,,,,,,,,,,,,
,5f7460857c789f200efba7dc,627c6fbadc54bcc7f388c5da,2022-05-12_04h24.15.778,classification_task,2021.2.3,Win32,144.1129846,627c6715c52fd12f31907bcf,,,,,,,,,,,,,,,,,,,,,,,l,1,1.0589,"[""0.031"",""0.256"",""0.111"",""0.719""]","[1,1,0,1]",0,55,55,55,1,1,1,,,1,FALSE,,,,,,,,,,,,,,,,,,,,,,,,,,,,,,,
,5f7460857c789f200efba7dc,627c6fbadc54bcc7f388c5da,2022-05-12_04h24.15.778,classification_task,2021.2.3,Win32,144.1129846,627c6715c52fd12f31907bcf,,,,,,,,,,,,,,,,,,,,,,,a,1,0.8535,"[""0.205"",""0.614"",""0.772"",""0.893""]","[1,0,1,1]",0,56,56,56,1,0,0,,,1,FALSE,,,,,,,,,,,,,,,,,,,,,,,,,,,,,,,
,5f7460857c789f200efba7dc,627c6fbadc54bcc7f388c5da,2022-05-12_04h24.15.778,classification_task,2021.2.3,Win32,144.1129846,627c6715c52fd12f31907bcf,,,,,,,,,,,,,,,,,,,,,,,l,0,0.8638,"[""0.166"",""0.512"",""0.571"",""0.113""]","[1,1,1,0]",0,57,57,57,1,0,1,,,1,FALSE,,,,,,,,,,,,,,,,,,,,,,,,,,,,,,,
,5f7460857c789f200efba7dc,627c6fbadc54bcc7f388c5da,2022-05-12_04h24.15.778,classification_task,2021.2.3,Win32,144.1129846,627c6715c52fd12f31907bcf,,,,,,,,,,,,,,,,,,,,,,,a,0,1.4584,"[""0.076"",""0.304"",""0.614"",""0.820""]","[1,1,0,1]",0,58,58,58,1,1,0,,,1,FALSE,,,,,,,,,,,,,,,,,,,,,,,,,,,,,,,
,5f7460857c789f200efba7dc,627c6fbadc54bcc7f388c5da,2022-05-12_04h24.15.778,classification_task,2021.2.3,Win32,144.1129846,627c6715c52fd12f31907bcf,,,,,,,,,,,,,,,,,,,,,,,l,1,1.3956,"[""0.076"",""0.304"",""0.656"",""0.620""]","[1,1,1,0]",0,59,59,59,1,1,0,,,1,FALSE,,,,,,,,,,,,,,,,,,,,,,,,,,,,,,,
,5f7460857c789f200efba7dc,627c6fbadc54bcc7f388c5da,2022-05-12_04h24.15.778,classification_task,2021.2.3,Win32,144.1129846,627c6715c52fd12f31907bcf,,,,,,,,,,,,,,,,,,,,,,,l,1,0.9573,"[""0.122"",""0.256"",""0.462"",""0.719""]","[0,1,1,1]",0,60,60,60,1,1,1,,,1,FALSE,,,,,,,,,,,,,,,,,,,,,,,,,,,,,,,
,5f7460857c789f200efba7dc,627c6fbadc54bcc7f388c5da,2022-05-12_04h24.15.778,classification_task,2021.2.3,Win32,144.1129846,627c6715c52fd12f31907bcf,,,,,,,,,,,,,,,,,,,,,,,l,1,0.7124,"[""0.031"",""0.345"",""0.462"",""0.719""]","[1,0,1,1]",0,61,61,61,1,1,1,,,1,FALSE,,,,,,,,,,,,,,,,,,,,,,,,,,,,,,,
,5f7460857c789f200efba7dc,627c6fbadc54bcc7f388c5da,2022-05-12_04h24.15.778,classification_task,2021.2.3,Win32,144.1129846,627c6715c52fd12f31907bcf,,,,,,,,,,,,,,,,,,,,,,,a,0,0.6859,"[""0.031"",""0.256"",""0.462"",""0.620""]","[1,1,1,0]",0,62,62,62,1,1,1,,,1,FALSE,,,,,,,,,,,,,,,,,,,,,,,,,,,,,,,
,5f7460857c789f200efba7dc,627c6fbadc54bcc7f388c5da,2022-05-12_04h24.15.778,classification_task,2021.2.3,Win32,144.1129846,627c6715c52fd12f31907bcf,,,,,,,,,,,,,,,,,,,,,,,a,1,0.7318,"[""0.166"",""0.512"",""0.427"",""0.946""]","[1,1,0,1]",0,63,63,63,1,0,1,,,1,FALSE,,,,,,,,,,,,,,,,,,,,,,,,,,,,,,,
,5f7460857c789f200efba7dc,627c6fbadc54bcc7f388c5da,2022-05-12_04h24.15.778,classification_task,2021.2.3,Win32,144.1129846,627c6715c52fd12f31907bcf,,,,,,,,,,,,,,,,,,,,,,,,,,,,,,,,,,,,,,,0, ,,0,10,142.5137,0,2,2,2,1,2,3,,,,,,,,,,,,,,,,,,
,5f7460857c789f200efba7dc,627c6fbadc54bcc7f388c5da,2022-05-12_04h24.15.778,classification_task,2021.2.3,Win32,144.1129846,627c6715c52fd12f31907bcf,,,,,,,,,,,,,,,,,,,,,,,,,,,,,,,,,,,,,,,1,  ,,0,8.012933568,149.3269,0,2,2,2,1,2,3,,,,,,,,,,,,,,,,,,
,5f7460857c789f200efba7dc,627c6fbadc54bcc7f388c5da,2022-05-12_04h24.15.778,classification_task,2021.2.3,Win32,144.1129846,627c6715c52fd12f31907bcf,,,,,,,,,,,,,,,,,,,,,,,,,,,,,,,,,,,,,,,2,  ,,0,9.225455614,147.9517,0,2,2,2,1,2,3,,,,,,,,,,,,,,,,,,
,5f7460857c789f200efba7dc,627c6fbadc54bcc7f388c5da,2022-05-12_04h24.15.778,classification_task,2021.2.3,Win32,144.1129846,627c6715c52fd12f31907bcf,,,,,,,,,,,,,,,,,,,,,,,,,,,,,,,,,,,,,,,,,,,,,0,2,2,2,1,,3,,,,,,,,,,,,,,,,,,
,5f7460857c789f200efba7dc,627c6fbadc54bcc7f388c5da,2022-05-12_04h24.15.778,classification_task,2021.2.3,Win32,144.1129846,627c6715c52fd12f31907bcf,,,,,,,,,,,,,,,,,,,,,,,,,,,,,,,,,,,,,,,,,,,,,,,,,,,,,I believe the aid is a competent performer,,0.7,0,4,782.5708,0,0,0,0,1,0,,,,,
,5f7460857c789f200efba7dc,627c6fbadc54bcc7f388c5da,2022-05-12_04h24.15.778,classification_task,2021.2.3,Win32,144.1129846,627c6715c52fd12f31907bcf,,,,,,,,,,,,,,,,,,,,,,,,,,,,,,,,,,,,,,,,,,,,,,,,,,,,,I trust the aid,,0.7,0,5,785.9171,0,0,0,0,1,0,,,,,
,5f7460857c789f200efba7dc,627c6fbadc54bcc7f388c5da,2022-05-12_04h24.15.778,classification_task,2021.2.3,Win32,144.1129846,627c6715c52fd12f31907bcf,,,,,,,,,,,,,,,,,,,,,,,,,,,,,,,,,,,,,,,,,,,,,,,,,,,,,I have confidence in the advice given by the aid,,0.7,0,4,786.9859,0,0,0,0,1,0,,,,,
,5f7460857c789f200efba7dc,627c6fbadc54bcc7f388c5da,2022-05-12_04h24.15.778,classification_task,2021.2.3,Win32,144.1129846,627c6715c52fd12f31907bcf,,,,,,,,,,,,,,,,,,,,,,,,,,,,,,,,,,,,,,,,,,,,,,,,,,,,,I can depend on the aid,,0.7,0,5,787.993,0,0,0,0,1,0,,,,,
,5f7460857c789f200efba7dc,627c6fbadc54bcc7f388c5da,2022-05-12_04h24.15.778,classification_task,2021.2.3,Win32,144.1129846,627c6715c52fd12f31907bcf,,,,,,,,,,,,,,,,,,,,,,,,,,,,,,,,,,,,,,,,,,,,,,,,,,,,,I can rely on the aid to behave in consistent ways,,0.7,0,5,789.893,0,0,0,0,1,0,,,,,
,5f7460857c789f200efba7dc,627c6fbadc54bcc7f388c5da,2022-05-12_04h24.15.778,classification_task,2021.2.3,Win32,144.1129846,627c6715c52fd12f31907bcf,,,,,,,,,,,,,,,,,,,,,,,,,,,,,,,,,,,,,,,,,,,,,,,,,,,,,I can rely on the aid to do its best every time I take its advice,,0.7,0,4,793.1052,0,0,0,0,1,0,,,,,
,5f7460857c789f200efba7dc,627c6fbadc54bcc7f388c5da,2022-05-12_04h24.15.778,classification_task,2021.2.3,Win32,144.1129846,627c6715c52fd12f31907bcf,,,,,,,,,,,,,,,,,,,,,,,,,,,,,,,,,,,,,,,,,,,,,,,,,,,,,"On trials you completed with assistance from the aid, how frequently did you think the aid was correct?",,0.7,0,100%,,0,0,0,0,1,0,,,,,
,5f7460857c789f200efba7dc,627c6fbadc54bcc7f388c5da,2022-05-12_04h24.15.778,classification_task,2021.2.3,Win32,144.1129846,627c6715c52fd12f31907bcf,,,,,,,,,,,,,,,,,,,,,,,,,,,,,,,,,,,,,,,,,,,,,,,,,,,,,"On trials you completed without the aid, how frequently did you think you were correct?",,0.7,0,60%,,0,0,0,0,1,0,,,,,
,5f7460857c789f200efba7dc,627c6fbadc54bcc7f388c5da,2022-05-12_04h24.15.778,classification_task,2021.2.3,Win32,144.1129846,627c6715c52fd12f31907bcf,,,,,,,,,,,,,,,,,,,,,,,,,,,,,,,,,,,,,,,,,,,,,,,,,,,,,,,,,,,0,0,0,0,1,,,,,,
,5f7460857c789f200efba7dc,627c6fbadc54bcc7f388c5da,2022-05-12_04h24.15.778,classification_task,2021.2.3,Win32,144.1129846,627c6715c52fd12f31907bcf,,,,,,,,,,,,,,,,,,,,,,,,,,,,,,,,,,,,,,,,,,,,,,,,,,,,,,,,,,,,,,,,,space,9.2655,824.4747,,
,5f7460857c789f200efba7dc,627c6fbadc54bcc7f388c5da,2022-05-12_04h24.15.778,classification_task,2021.2.3,Win32,144.1129846,627c6715c52fd12f31907bcf,,,,,,,,,,,,,,,,,,,,,,,,,,,,,,,,,,,,,,,,,,,,,,,,,,,,,,,,,,,,,,,,,,,,"Mozilla/5.0 (Windows NT 10.0; Win64; x64) AppleWebKit/537.36 (KHTML, like Gecko) Chrome/100.0.4896.127 Safari/537.36 OPR/86.0.4363.50",
,5f7460857c789f200efba7dc,627c6fbadc54bcc7f388c5da,2022-05-12_04h24.15.778,classification_task,2021.2.3,Win32,144.1129846,627c6715c52fd12f31907bcf,,,,,,,,,,,,,,,,,,,,,,,,,,,,,,,,,,,,,,,,,,,,,,,,,,,,,,,,,,,,,,,,,,,,,FADING
