usingWebGL,participant,session,date,expName,psychopyVersion,OS,frameRate,PROLIFIC_PID,STUDY_ID,SESSION_ID,signatures_friend,signatures_foe,band_ranges_top,band_ranges_bottom,formitemText,formtype,formundefined,formitemWidth,formindex,formresponse,formrt,key_resp_2.keys,key_resp_2.rt,tute_resp.keys,tute_resp.rt,tutorial.thisRepN,tutorial.thisTrialN,tutorial.thisN,tutorial.thisIndex,tutorial.ran,key_resp_4.keys,key_resp_4.rt,key_resp.keys,key_resp.corr,key_resp.rt,lines_presented,is_signal_presented,trials.thisRepN,trials.thisTrialN,trials.thisN,trials.thisIndex,trials.ran,vessel,active_band,lines,is_signal,supported_pos,catch_trial,debrief_formindex,debrief_formitemText,debrief_formtype,debrief_formitemWidth,debrief_formresponse,debrief_formrt,phases.thisRepN,phases.thisTrialN,phases.thisN,phases.thisIndex,phases.ran,phases.order,phase,key_resp_3.keys,trustitemText,trusttype,trustitemWidth,trustindex,trustresponse,trustrt,support_status.thisRepN,support_status.thisTrialN,support_status.thisN,support_status.thisIndex,support_status.ran,support_status.order,key_resp_5.keys,key_resp_5.rt,globalClockTime,userAgent
TRUE,5f740f60b8a1e41acc020269,001,2022-04-28_20h21.50.822,classification_task,2021.2.3,Win32,59.90893841,5f740f60b8a1e41acc020269,626b377229c10585ec392f89,626b3a83526d4a31057ffb83,,,,,,,,,,,,,,,,,,,,,,,,,,,,,,,,,,,,,,,,,,,,,,,,,,,,,,,,,,,,,,,,,,,,
,5f740f60b8a1e41acc020269,001,2022-04-28_20h21.50.822,classification_task,2021.2.3,Win32,59.90893841,5f740f60b8a1e41acc020269,626b377229c10585ec392f89,626b3a83526d4a31057ffb83,"[[""0.235"",""0.382"",""0.846"",""0.882""],[""0.163"",""0.425"",""0.923"",""0.972""]]","[[""0.129"",""0.316"",""0.607"",""0.694""],[""0.095"",""0.270"",""0.563"",""0.754""]]","[1,10]","[100,1000]",Video game experience,,,0.7,0,,,,,,,,,,,,,,,,,,,,,,,,,,,,,,,,,,,,,,,,,,,,,,,,,,,,,,,,,,,
,5f740f60b8a1e41acc020269,001,2022-04-28_20h21.50.822,classification_task,2021.2.3,Win32,59.90893841,5f740f60b8a1e41acc020269,626b377229c10585ec392f89,626b3a83526d4a31057ffb83,,,,,Approximately how many hours did you spend playing video games in the last week?,,,0.7,0,16,,,,,,,,,,,,,,,,,,,,,,,,,,,,,,,,,,,,,,,,,,,,,,,,,,,,,,,,,,
,5f740f60b8a1e41acc020269,001,2022-04-28_20h21.50.822,classification_task,2021.2.3,Win32,59.90893841,5f740f60b8a1e41acc020269,626b377229c10585ec392f89,626b3a83526d4a31057ffb83,,,,,"Which game did you play the most this year? (Enter ""None"" if you didn't play any)",,,0.7,0,Elden Ring,,,,,,,,,,,,,,,,,,,,,,,,,,,,,,,,,,,,,,,,,,,,,,,,,,,,,,,,,,
,5f740f60b8a1e41acc020269,001,2022-04-28_20h21.50.822,classification_task,2021.2.3,Win32,59.90893841,5f740f60b8a1e41acc020269,626b377229c10585ec392f89,626b3a83526d4a31057ffb83,,,,,Visual perception,,,0.7,0,,,,,,,,,,,,,,,,,,,,,,,,,,,,,,,,,,,,,,,,,,,,,,,,,,,,,,,,,,,
,5f740f60b8a1e41acc020269,001,2022-04-28_20h21.50.822,classification_task,2021.2.3,Win32,59.90893841,5f740f60b8a1e41acc020269,626b377229c10585ec392f89,626b3a83526d4a31057ffb83,,,,,Do you have any form of color blindness?,,,0.7,0,No,47.1262,,,,,,,,,,,,,,,,,,,,,,,,,,,,,,,,,,,,,,,,,,,,,,,,,,,,,,,,,
,5f740f60b8a1e41acc020269,001,2022-04-28_20h21.50.822,classification_task,2021.2.3,Win32,59.90893841,5f740f60b8a1e41acc020269,626b377229c10585ec392f89,626b3a83526d4a31057ffb83,,,,,Do you use software to change the colour temperature of your screen (e.g. f.lux)?,,,0.7,0,No,53.7024,,,,,,,,,,,,,,,,,,,,,,,,,,,,,,,,,,,,,,,,,,,,,,,,,,,,,,,,,
,5f740f60b8a1e41acc020269,001,2022-04-28_20h21.50.822,classification_task,2021.2.3,Win32,59.90893841,5f740f60b8a1e41acc020269,626b377229c10585ec392f89,626b3a83526d4a31057ffb83,,,,,,,,,,,,space,58.0976,space,19.4274,0,0,0,0,1,,,,,,,,,,,,,,,,,,,,,,,,,,,,,,,,,,,,,,,,,,,,,,,,
,5f740f60b8a1e41acc020269,001,2022-04-28_20h21.50.822,classification_task,2021.2.3,Win32,59.90893841,5f740f60b8a1e41acc020269,626b377229c10585ec392f89,626b3a83526d4a31057ffb83,,,,,,,,,,,,,,space,13.5408,1,0,1,0,1,,,,,,,,,,,,,,,,,,,,,,,,,,,,,,,,,,,,,,,,,,,,,,,,
,5f740f60b8a1e41acc020269,001,2022-04-28_20h21.50.822,classification_task,2021.2.3,Win32,59.90893841,5f740f60b8a1e41acc020269,626b377229c10585ec392f89,626b3a83526d4a31057ffb83,,,,,,,,,,,,,,space,25.741,2,0,2,0,1,,,,,,,,,,,,,,,,,,,,,,,,,,,,,,,,,,,,,,,,,,,,,,,,
,5f740f60b8a1e41acc020269,001,2022-04-28_20h21.50.822,classification_task,2021.2.3,Win32,59.90893841,5f740f60b8a1e41acc020269,626b377229c10585ec392f89,626b3a83526d4a31057ffb83,,,,,,,,,,,,,,space,39.7596,3,0,3,0,1,,,,,,,,,,,,,,,,,,,,,,,,,,,,,,,,,,,,,,,,,,,,,,,,
,5f740f60b8a1e41acc020269,001,2022-04-28_20h21.50.822,classification_task,2021.2.3,Win32,59.90893841,5f740f60b8a1e41acc020269,626b377229c10585ec392f89,626b3a83526d4a31057ffb83,,,,,,,,,,,,,,space,43.0895,4,0,4,0,1,,,,,,,,,,,,,,,,,,,,,,,,,,,,,,,,,,,,,,,,,,,,,,,,
,5f740f60b8a1e41acc020269,001,2022-04-28_20h21.50.822,classification_task,2021.2.3,Win32,59.90893841,5f740f60b8a1e41acc020269,626b377229c10585ec392f89,626b3a83526d4a31057ffb83,,,,,,,,,,,,,,,,,,,,,space,25.6539,a,1,5.1291,"[""0.163"",""0.800"",""0.923"",""0.972""]","[1,0,1,1]",0,0,0,0,1,0,1,,,0,FALSE,,,,,,,,,,,,,,,,,,,,,,,,,,,,,,
,5f740f60b8a1e41acc020269,001,2022-04-28_20h21.50.822,classification_task,2021.2.3,Win32,59.90893841,5f740f60b8a1e41acc020269,626b377229c10585ec392f89,626b3a83526d4a31057ffb83,,,,,,,,,,,,,,,,,,,,,,,a,1,9.2193,"[""0.644"",""0.382"",""0.846"",""0.882""]","[0,1,1,1]",0,1,1,1,1,0,0,,,0,FALSE,,,,,,,,,,,,,,,,,,,,,,,,,,,,,,
,5f740f60b8a1e41acc020269,001,2022-04-28_20h21.50.822,classification_task,2021.2.3,Win32,59.90893841,5f740f60b8a1e41acc020269,626b377229c10585ec392f89,626b3a83526d4a31057ffb83,,,,,,,,,,,,,,,,,,,,,,,a,1,6.6916,"[""0.199"",""0.425"",""0.923"",""0.972""]","[0,1,1,1]",0,2,2,2,1,0,1,,,0,FALSE,,,,,,,,,,,,,,,,,,,,,,,,,,,,,,
,5f740f60b8a1e41acc020269,001,2022-04-28_20h21.50.822,classification_task,2021.2.3,Win32,59.90893841,5f740f60b8a1e41acc020269,626b377229c10585ec392f89,626b3a83526d4a31057ffb83,,,,,,,,,,,,,,,,,,,,,,,l,1,4.5041,"[""0.095"",""0.270"",""0.563"",""0.518""]","[1,1,1,0]",0,3,3,3,1,1,1,,,0,FALSE,,,,,,,,,,,,,,,,,,,,,,,,,,,,,,
,5f740f60b8a1e41acc020269,001,2022-04-28_20h21.50.822,classification_task,2021.2.3,Win32,59.90893841,5f740f60b8a1e41acc020269,626b377229c10585ec392f89,626b3a83526d4a31057ffb83,,,,,,,,,,,,,,,,,,,,,,,,0,,"[""0.040"",""0.316"",""0.607"",""0.694""]","[0,1,1,1]",0,4,4,4,1,1,0,,,0,FALSE,,,,,,,,,,,,,,,,,,,,,,,,,,,,,,
,5f740f60b8a1e41acc020269,001,2022-04-28_20h21.50.822,classification_task,2021.2.3,Win32,59.90893841,5f740f60b8a1e41acc020269,626b377229c10585ec392f89,626b3a83526d4a31057ffb83,,,,,,,,,,,,,,,,,,,,,,,a,1,3.4511,"[""0.163"",""0.425"",""0.923"",""0.647""]","[1,1,1,0]",0,5,5,5,1,0,1,,,0,FALSE,,,,,,,,,,,,,,,,,,,,,,,,,,,,,,
,5f740f60b8a1e41acc020269,001,2022-04-28_20h21.50.822,classification_task,2021.2.3,Win32,59.90893841,5f740f60b8a1e41acc020269,626b377229c10585ec392f89,626b3a83526d4a31057ffb83,,,,,,,,,,,,,,,,,,,,,,,l,1,4.1922,"[""0.129"",""0.316"",""0.518"",""0.694""]","[1,1,0,1]",0,6,6,6,1,1,0,,,0,FALSE,,,,,,,,,,,,,,,,,,,,,,,,,,,,,,
,5f740f60b8a1e41acc020269,001,2022-04-28_20h21.50.822,classification_task,2021.2.3,Win32,59.90893841,5f740f60b8a1e41acc020269,626b377229c10585ec392f89,626b3a83526d4a31057ffb83,,,,,,,,,,,,,,,,,,,,,,,l,1,4.089,"[""0.095"",""0.270"",""0.055"",""0.754""]","[1,1,0,1]",0,7,7,7,1,1,1,,,0,FALSE,,,,,,,,,,,,,,,,,,,,,,,,,,,,,,
,5f740f60b8a1e41acc020269,001,2022-04-28_20h21.50.822,classification_task,2021.2.3,Win32,59.90893841,5f740f60b8a1e41acc020269,626b377229c10585ec392f89,626b3a83526d4a31057ffb83,,,,,,,,,,,,,,,,,,,,,,,l,1,8.1546,"[""0.518"",""0.270"",""0.563"",""0.754""]","[0,1,1,1]",0,8,8,8,1,1,1,,,0,FALSE,,,,,,,,,,,,,,,,,,,,,,,,,,,,,,
,5f740f60b8a1e41acc020269,001,2022-04-28_20h21.50.822,classification_task,2021.2.3,Win32,59.90893841,5f740f60b8a1e41acc020269,626b377229c10585ec392f89,626b3a83526d4a31057ffb83,,,,,,,,,,,,,,,,,,,,,,,l,1,2.7861,"[""0.129"",""0.503"",""0.607"",""0.694""]","[1,0,1,1]",0,9,9,9,1,1,0,,,0,FALSE,,,,,,,,,,,,,,,,,,,,,,,,,,,,,,
,5f740f60b8a1e41acc020269,001,2022-04-28_20h21.50.822,classification_task,2021.2.3,Win32,59.90893841,5f740f60b8a1e41acc020269,626b377229c10585ec392f89,626b3a83526d4a31057ffb83,,,,,,,,,,,,,,,,,,,,,,,l,1,3.2486,"[""0.095"",""0.048"",""0.563"",""0.754""]","[1,0,1,1]",0,10,10,10,1,1,1,,,0,FALSE,,,,,,,,,,,,,,,,,,,,,,,,,,,,,,
,5f740f60b8a1e41acc020269,001,2022-04-28_20h21.50.822,classification_task,2021.2.3,Win32,59.90893841,5f740f60b8a1e41acc020269,626b377229c10585ec392f89,626b3a83526d4a31057ffb83,,,,,,,,,,,,,,,,,,,,,,,l,0,2.9548,"[""0.163"",""0.425"",""0.040"",""0.972""]","[1,1,0,1]",0,11,11,11,1,0,1,,,0,FALSE,,,,,,,,,,,,,,,,,,,,,,,,,,,,,,
,5f740f60b8a1e41acc020269,001,2022-04-28_20h21.50.822,classification_task,2021.2.3,Win32,59.90893841,5f740f60b8a1e41acc020269,626b377229c10585ec392f89,626b3a83526d4a31057ffb83,,,,,,,,,,,,,,,,,,,,,,,a,1,9.432,"[""0.235"",""0.382"",""0.048"",""0.882""]","[1,1,0,1]",0,12,12,12,1,0,0,,,0,FALSE,,,,,,,,,,,,,,,,,,,,,,,,,,,,,,
,5f740f60b8a1e41acc020269,001,2022-04-28_20h21.50.822,classification_task,2021.2.3,Win32,59.90893841,5f740f60b8a1e41acc020269,626b377229c10585ec392f89,626b3a83526d4a31057ffb83,,,,,,,,,,,,,,,,,,,,,,,a,1,3.3162,"[""0.235"",""0.648"",""0.846"",""0.882""]","[1,0,1,1]",0,13,13,13,1,0,0,,,0,FALSE,,,,,,,,,,,,,,,,,,,,,,,,,,,,,,
,5f740f60b8a1e41acc020269,001,2022-04-28_20h21.50.822,classification_task,2021.2.3,Win32,59.90893841,5f740f60b8a1e41acc020269,626b377229c10585ec392f89,626b3a83526d4a31057ffb83,,,,,,,,,,,,,,,,,,,,,,,a,1,1.4252,"[""0.235"",""0.382"",""0.846"",""0.790""]","[1,1,1,0]",0,14,14,14,1,0,0,,,0,FALSE,,,,,,,,,,,,,,,,,,,,,,,,,,,,,,
,5f740f60b8a1e41acc020269,001,2022-04-28_20h21.50.822,classification_task,2021.2.3,Win32,59.90893841,5f740f60b8a1e41acc020269,626b377229c10585ec392f89,626b3a83526d4a31057ffb83,,,,,,,,,,,,,,,,,,,,,,,a,0,2.0882,"[""0.129"",""0.316"",""0.607"",""0.800""]","[1,1,1,0]",0,15,15,15,1,1,0,,,0,FALSE,,,,,,,,,,,,,,,,,,,,,,,,,,,,,,
,5f740f60b8a1e41acc020269,001,2022-04-28_20h21.50.822,classification_task,2021.2.3,Win32,59.90893841,5f740f60b8a1e41acc020269,626b377229c10585ec392f89,626b3a83526d4a31057ffb83,,,,,,,,,,,,,,,,,,,,,,,l,1,3.1538,"[""0.095"",""0.270"",""0.563"",""0.049""]","[1,1,1,0]",0,16,16,16,1,1,1,,,0,FALSE,,,,,,,,,,,,,,,,,,,,,,,,,,,,,,
,5f740f60b8a1e41acc020269,001,2022-04-28_20h21.50.822,classification_task,2021.2.3,Win32,59.90893841,5f740f60b8a1e41acc020269,626b377229c10585ec392f89,626b3a83526d4a31057ffb83,,,,,,,,,,,,,,,,,,,,,,,l,1,5.8547,"[""0.033"",""0.316"",""0.607"",""0.694""]","[0,1,1,1]",0,17,17,17,1,1,0,,,0,FALSE,,,,,,,,,,,,,,,,,,,,,,,,,,,,,,
,5f740f60b8a1e41acc020269,001,2022-04-28_20h21.50.822,classification_task,2021.2.3,Win32,59.90893841,5f740f60b8a1e41acc020269,626b377229c10585ec392f89,626b3a83526d4a31057ffb83,,,,,,,,,,,,,,,,,,,,,,,l,1,4.7021,"[""0.129"",""0.316"",""0.607"",""0.055""]","[1,1,1,0]",0,18,18,18,1,1,0,,,0,FALSE,,,,,,,,,,,,,,,,,,,,,,,,,,,,,,
,5f740f60b8a1e41acc020269,001,2022-04-28_20h21.50.822,classification_task,2021.2.3,Win32,59.90893841,5f740f60b8a1e41acc020269,626b377229c10585ec392f89,626b3a83526d4a31057ffb83,,,,,,,,,,,,,,,,,,,,,,,l,1,4.0658,"[""0.129"",""0.033"",""0.607"",""0.694""]","[1,0,1,1]",0,19,19,19,1,1,0,,,0,FALSE,,,,,,,,,,,,,,,,,,,,,,,,,,,,,,
,5f740f60b8a1e41acc020269,001,2022-04-28_20h21.50.822,classification_task,2021.2.3,Win32,59.90893841,5f740f60b8a1e41acc020269,626b377229c10585ec392f89,626b3a83526d4a31057ffb83,,,,,,,,,,,,,,,,,,,,,,,l,1,2.8687,"[""0.095"",""0.790"",""0.563"",""0.754""]","[1,0,1,1]",0,20,20,20,1,1,1,,,0,FALSE,,,,,,,,,,,,,,,,,,,,,,,,,,,,,,
,5f740f60b8a1e41acc020269,001,2022-04-28_20h21.50.822,classification_task,2021.2.3,Win32,59.90893841,5f740f60b8a1e41acc020269,626b377229c10585ec392f89,626b3a83526d4a31057ffb83,,,,,,,,,,,,,,,,,,,,,,,a,1,3.8166,"[""0.235"",""0.382"",""0.846"",""0.503""]","[1,1,1,0]",0,21,21,21,1,0,0,,,0,FALSE,,,,,,,,,,,,,,,,,,,,,,,,,,,,,,
,5f740f60b8a1e41acc020269,001,2022-04-28_20h21.50.822,classification_task,2021.2.3,Win32,59.90893841,5f740f60b8a1e41acc020269,626b377229c10585ec392f89,626b3a83526d4a31057ffb83,,,,,,,,,,,,,,,,,,,,,,,a,1,1.2461,"[""0.235"",""0.503"",""0.846"",""0.882""]","[1,0,1,1]",0,22,22,22,1,0,0,,,0,FALSE,,,,,,,,,,,,,,,,,,,,,,,,,,,,,,
,5f740f60b8a1e41acc020269,001,2022-04-28_20h21.50.822,classification_task,2021.2.3,Win32,59.90893841,5f740f60b8a1e41acc020269,626b377229c10585ec392f89,626b3a83526d4a31057ffb83,,,,,,,,,,,,,,,,,,,,,,,l,1,1.8621,"[""0.095"",""0.270"",""0.790"",""0.754""]","[1,1,0,1]",0,23,23,23,1,1,1,,,0,FALSE,,,,,,,,,,,,,,,,,,,,,,,,,,,,,,
,5f740f60b8a1e41acc020269,001,2022-04-28_20h21.50.822,classification_task,2021.2.3,Win32,59.90893841,5f740f60b8a1e41acc020269,626b377229c10585ec392f89,626b3a83526d4a31057ffb83,,,,,,,,,,,,,,,,,,,,,,,a,1,2.3705,"[""0.163"",""0.425"",""0.923"",""0.647""]","[1,1,1,0]",0,24,24,24,1,0,1,,,0,FALSE,,,,,,,,,,,,,,,,,,,,,,,,,,,,,,
,5f740f60b8a1e41acc020269,001,2022-04-28_20h21.50.822,classification_task,2021.2.3,Win32,59.90893841,5f740f60b8a1e41acc020269,626b377229c10585ec392f89,626b3a83526d4a31057ffb83,,,,,,,,,,,,,,,,,,,,,,,a,1,2.5731,"[""0.235"",""0.382"",""0.799"",""0.882""]","[1,1,0,1]",0,25,25,25,1,0,0,,,0,FALSE,,,,,,,,,,,,,,,,,,,,,,,,,,,,,,
,5f740f60b8a1e41acc020269,001,2022-04-28_20h21.50.822,classification_task,2021.2.3,Win32,59.90893841,5f740f60b8a1e41acc020269,626b377229c10585ec392f89,626b3a83526d4a31057ffb83,,,,,,,,,,,,,,,,,,,,,,,l,0,1.7461,"[""0.163"",""0.040"",""0.923"",""0.972""]","[1,0,1,1]",0,26,26,26,1,0,1,,,0,FALSE,,,,,,,,,,,,,,,,,,,,,,,,,,,,,,
,5f740f60b8a1e41acc020269,001,2022-04-28_20h21.50.822,classification_task,2021.2.3,Win32,59.90893841,5f740f60b8a1e41acc020269,626b377229c10585ec392f89,626b3a83526d4a31057ffb83,,,,,,,,,,,,,,,,,,,,,,,l,0,2.6832,"[""0.163"",""0.425"",""0.049"",""0.972""]","[1,1,0,1]",0,27,27,27,1,0,1,,,0,FALSE,,,,,,,,,,,,,,,,,,,,,,,,,,,,,,
,5f740f60b8a1e41acc020269,001,2022-04-28_20h21.50.822,classification_task,2021.2.3,Win32,59.90893841,5f740f60b8a1e41acc020269,626b377229c10585ec392f89,626b3a83526d4a31057ffb83,,,,,,,,,,,,,,,,,,,,,,,a,1,7.1445,"[""0.503"",""0.382"",""0.846"",""0.882""]","[0,1,1,1]",0,28,28,28,1,0,0,,,0,FALSE,,,,,,,,,,,,,,,,,,,,,,,,,,,,,,
,5f740f60b8a1e41acc020269,001,2022-04-28_20h21.50.822,classification_task,2021.2.3,Win32,59.90893841,5f740f60b8a1e41acc020269,626b377229c10585ec392f89,626b3a83526d4a31057ffb83,,,,,,,,,,,,,,,,,,,,,,,l,0,3.0999,"[""0.048"",""0.425"",""0.923"",""0.972""]","[0,1,1,1]",0,29,29,29,1,0,1,,,0,FALSE,,,,,,,,,,,,,,,,,,,,,,,,,,,,,,
,5f740f60b8a1e41acc020269,001,2022-04-28_20h21.50.822,classification_task,2021.2.3,Win32,59.90893841,5f740f60b8a1e41acc020269,626b377229c10585ec392f89,626b3a83526d4a31057ffb83,,,,,,,,,,,,,,,,,,,,,,,l,1,8.3925,"[""0.790"",""0.270"",""0.563"",""0.754""]","[0,1,1,1]",0,30,30,30,1,1,1,,,0,FALSE,,,,,,,,,,,,,,,,,,,,,,,,,,,,,,
,5f740f60b8a1e41acc020269,001,2022-04-28_20h21.50.822,classification_task,2021.2.3,Win32,59.90893841,5f740f60b8a1e41acc020269,626b377229c10585ec392f89,626b3a83526d4a31057ffb83,,,,,,,,,,,,,,,,,,,,,,,l,1,6.2033,"[""0.129"",""0.316"",""0.040"",""0.694""]","[1,1,0,1]",0,31,31,31,1,1,0,,,0,FALSE,,,,,,,,,,,,,,,,,,,,,,,,,,,,,,
,5f740f60b8a1e41acc020269,001,2022-04-28_20h21.50.822,classification_task,2021.2.3,Win32,59.90893841,5f740f60b8a1e41acc020269,626b377229c10585ec392f89,626b3a83526d4a31057ffb83,,,,,,,,,,,,,,,,,,,,,,,l,1,4.919,"[""0.503"",""0.316"",""0.607"",""0.694""]","[0,1,1,1]",0,32,32,32,1,1,0,,,0,FALSE,,,,,,,,,,,,,,,,,,,,,,,,,,,,,,
,5f740f60b8a1e41acc020269,001,2022-04-28_20h21.50.822,classification_task,2021.2.3,Win32,59.90893841,5f740f60b8a1e41acc020269,626b377229c10585ec392f89,626b3a83526d4a31057ffb83,,,,,,,,,,,,,,,,,,,,,,,a,1,2.9592,"[""0.163"",""0.425"",""0.923"",""0.199""]","[1,1,1,0]",0,33,33,33,1,0,1,,,0,FALSE,,,,,,,,,,,,,,,,,,,,,,,,,,,,,,
,5f740f60b8a1e41acc020269,001,2022-04-28_20h21.50.822,classification_task,2021.2.3,Win32,59.90893841,5f740f60b8a1e41acc020269,626b377229c10585ec392f89,626b3a83526d4a31057ffb83,,,,,,,,,,,,,,,,,,,,,,,a,1,1.2164,"[""0.163"",""0.425"",""0.199"",""0.972""]","[1,1,0,1]",0,34,34,34,1,0,1,,,0,FALSE,,,,,,,,,,,,,,,,,,,,,,,,,,,,,,
,5f740f60b8a1e41acc020269,001,2022-04-28_20h21.50.822,classification_task,2021.2.3,Win32,59.90893841,5f740f60b8a1e41acc020269,626b377229c10585ec392f89,626b3a83526d4a31057ffb83,,,,,,,,,,,,,,,,,,,,,,,l,1,1.5113,"[""0.095"",""0.270"",""0.049"",""0.754""]","[1,1,0,1]",0,35,35,35,1,1,1,,,0,FALSE,,,,,,,,,,,,,,,,,,,,,,,,,,,,,,
,5f740f60b8a1e41acc020269,001,2022-04-28_20h21.50.822,classification_task,2021.2.3,Win32,59.90893841,5f740f60b8a1e41acc020269,626b377229c10585ec392f89,626b3a83526d4a31057ffb83,,,,,,,,,,,,,,,,,,,,,,,l,0,1.9081,"[""0.235"",""0.049"",""0.846"",""0.882""]","[1,0,1,1]",0,36,36,36,1,0,0,,,0,FALSE,,,,,,,,,,,,,,,,,,,,,,,,,,,,,,
,5f740f60b8a1e41acc020269,001,2022-04-28_20h21.50.822,classification_task,2021.2.3,Win32,59.90893841,5f740f60b8a1e41acc020269,626b377229c10585ec392f89,626b3a83526d4a31057ffb83,,,,,,,,,,,,,,,,,,,,,,,l,0,1.2044,"[""0.235"",""0.382"",""0.518"",""0.882""]","[1,1,0,1]",0,37,37,37,1,0,0,,,0,FALSE,,,,,,,,,,,,,,,,,,,,,,,,,,,,,,
,5f740f60b8a1e41acc020269,001,2022-04-28_20h21.50.822,classification_task,2021.2.3,Win32,59.90893841,5f740f60b8a1e41acc020269,626b377229c10585ec392f89,626b3a83526d4a31057ffb83,,,,,,,,,,,,,,,,,,,,,,,l,0,1.2083,"[""0.799"",""0.382"",""0.846"",""0.882""]","[0,1,1,1]",0,38,38,38,1,0,0,,,0,FALSE,,,,,,,,,,,,,,,,,,,,,,,,,,,,,,
,5f740f60b8a1e41acc020269,001,2022-04-28_20h21.50.822,classification_task,2021.2.3,Win32,59.90893841,5f740f60b8a1e41acc020269,626b377229c10585ec392f89,626b3a83526d4a31057ffb83,,,,,,,,,,,,,,,,,,,,,,,l,0,2.4213,"[""0.799"",""0.425"",""0.923"",""0.972""]","[0,1,1,1]",0,39,39,39,1,0,1,,,0,FALSE,,,,,,,,,,,,,,,,,,,,,,,,,,,,,,
,5f740f60b8a1e41acc020269,001,2022-04-28_20h21.50.822,classification_task,2021.2.3,Win32,59.90893841,5f740f60b8a1e41acc020269,626b377229c10585ec392f89,626b3a83526d4a31057ffb83,,,,,,,,,,,,,,,,,,,,,,,a,1,1.2962,"[""0.235"",""0.382"",""0.846"",""0.800""]","[1,1,1,0]",0,40,40,40,1,0,0,,,0,FALSE,,,,,,,,,,,,,,,,,,,,,,,,,,,,,,
,5f740f60b8a1e41acc020269,001,2022-04-28_20h21.50.822,classification_task,2021.2.3,Win32,59.90893841,5f740f60b8a1e41acc020269,626b377229c10585ec392f89,626b3a83526d4a31057ffb83,,,,,,,,,,,,,,,,,,,,,,,l,1,1.4091,"[""0.129"",""0.316"",""0.607"",""0.790""]","[1,1,1,0]",0,41,41,41,1,1,0,,,0,FALSE,,,,,,,,,,,,,,,,,,,,,,,,,,,,,,
,5f740f60b8a1e41acc020269,001,2022-04-28_20h21.50.822,classification_task,2021.2.3,Win32,59.90893841,5f740f60b8a1e41acc020269,626b377229c10585ec392f89,626b3a83526d4a31057ffb83,,,,,,,,,,,,,,,,,,,,,,,a,0,1.1972,"[""0.129"",""0.793"",""0.607"",""0.694""]","[1,0,1,1]",0,42,42,42,1,1,0,,,0,FALSE,,,,,,,,,,,,,,,,,,,,,,,,,,,,,,
,5f740f60b8a1e41acc020269,001,2022-04-28_20h21.50.822,classification_task,2021.2.3,Win32,59.90893841,5f740f60b8a1e41acc020269,626b377229c10585ec392f89,626b3a83526d4a31057ffb83,,,,,,,,,,,,,,,,,,,,,,,l,1,3.2314,"[""0.055"",""0.270"",""0.563"",""0.754""]","[0,1,1,1]",0,43,43,43,1,1,1,,,0,FALSE,,,,,,,,,,,,,,,,,,,,,,,,,,,,,,
,5f740f60b8a1e41acc020269,001,2022-04-28_20h21.50.822,classification_task,2021.2.3,Win32,59.90893841,5f740f60b8a1e41acc020269,626b377229c10585ec392f89,626b3a83526d4a31057ffb83,,,,,,,,,,,,,,,,,,,,,,,a,0,1.936,"[""0.095"",""0.033"",""0.563"",""0.754""]","[1,0,1,1]",0,44,44,44,1,1,1,,,0,FALSE,,,,,,,,,,,,,,,,,,,,,,,,,,,,,,
,5f740f60b8a1e41acc020269,001,2022-04-28_20h21.50.822,classification_task,2021.2.3,Win32,59.90893841,5f740f60b8a1e41acc020269,626b377229c10585ec392f89,626b3a83526d4a31057ffb83,,,,,,,,,,,,,,,,,,,,,,,l,0,1.6878,"[""0.163"",""0.040"",""0.923"",""0.972""]","[1,0,1,1]",0,45,45,45,1,0,1,,,0,FALSE,,,,,,,,,,,,,,,,,,,,,,,,,,,,,,
,5f740f60b8a1e41acc020269,001,2022-04-28_20h21.50.822,classification_task,2021.2.3,Win32,59.90893841,5f740f60b8a1e41acc020269,626b377229c10585ec392f89,626b3a83526d4a31057ffb83,,,,,,,,,,,,,,,,,,,,,,,l,1,1.931,"[""0.095"",""0.270"",""0.563"",""0.648""]","[1,1,1,0]",0,46,46,46,1,1,1,,,0,FALSE,,,,,,,,,,,,,,,,,,,,,,,,,,,,,,
,5f740f60b8a1e41acc020269,001,2022-04-28_20h21.50.822,classification_task,2021.2.3,Win32,59.90893841,5f740f60b8a1e41acc020269,626b377229c10585ec392f89,626b3a83526d4a31057ffb83,,,,,,,,,,,,,,,,,,,,,,,l,1,1.4333,"[""0.129"",""0.316"",""0.032"",""0.694""]","[1,1,0,1]",0,47,47,47,1,1,0,,,0,FALSE,,,,,,,,,,,,,,,,,,,,,,,,,,,,,,
,5f740f60b8a1e41acc020269,001,2022-04-28_20h21.50.822,classification_task,2021.2.3,Win32,59.90893841,5f740f60b8a1e41acc020269,626b377229c10585ec392f89,626b3a83526d4a31057ffb83,,,,,,,,,,,,,,,,,,,,,,,a,1,1.3859,"[""0.163"",""0.503"",""0.923"",""0.972""]","[1,0,1,1]",0,48,48,48,1,0,1,,,0,FALSE,,,,,,,,,,,,,,,,,,,,,,,,,,,,,,
,5f740f60b8a1e41acc020269,001,2022-04-28_20h21.50.822,classification_task,2021.2.3,Win32,59.90893841,5f740f60b8a1e41acc020269,626b377229c10585ec392f89,626b3a83526d4a31057ffb83,,,,,,,,,,,,,,,,,,,,,,,l,0,1.6285,"[""0.055"",""0.425"",""0.923"",""0.972""]","[0,1,1,1]",0,49,49,49,1,0,1,,,0,FALSE,,,,,,,,,,,,,,,,,,,,,,,,,,,,,,
,5f740f60b8a1e41acc020269,001,2022-04-28_20h21.50.822,classification_task,2021.2.3,Win32,59.90893841,5f740f60b8a1e41acc020269,626b377229c10585ec392f89,626b3a83526d4a31057ffb83,,,,,,,,,,,,,,,,,,,,,,,l,1,1.3168,"[""0.049"",""0.316"",""0.607"",""0.694""]","[0,1,1,1]",0,50,50,50,1,1,0,,,0,FALSE,,,,,,,,,,,,,,,,,,,,,,,,,,,,,,
,5f740f60b8a1e41acc020269,001,2022-04-28_20h21.50.822,classification_task,2021.2.3,Win32,59.90893841,5f740f60b8a1e41acc020269,626b377229c10585ec392f89,626b3a83526d4a31057ffb83,,,,,,,,,,,,,,,,,,,,,,,a,0,1.5118,"[""0.095"",""0.270"",""0.647"",""0.754""]","[1,1,0,1]",0,51,51,51,1,1,1,,,0,FALSE,,,,,,,,,,,,,,,,,,,,,,,,,,,,,,
,5f740f60b8a1e41acc020269,001,2022-04-28_20h21.50.822,classification_task,2021.2.3,Win32,59.90893841,5f740f60b8a1e41acc020269,626b377229c10585ec392f89,626b3a83526d4a31057ffb83,,,,,,,,,,,,,,,,,,,,,,,a,1,2.4356,"[""0.055"",""0.382"",""0.846"",""0.882""]","[0,1,1,1]",0,52,52,52,1,0,0,,,0,FALSE,,,,,,,,,,,,,,,,,,,,,,,,,,,,,,
,5f740f60b8a1e41acc020269,001,2022-04-28_20h21.50.822,classification_task,2021.2.3,Win32,59.90893841,5f740f60b8a1e41acc020269,626b377229c10585ec392f89,626b3a83526d4a31057ffb83,,,,,,,,,,,,,,,,,,,,,,,l,0,0.9037,"[""0.235"",""0.382"",""0.846"",""0.503""]","[1,1,1,0]",0,53,53,53,1,0,0,,,0,FALSE,,,,,,,,,,,,,,,,,,,,,,,,,,,,,,
,5f740f60b8a1e41acc020269,001,2022-04-28_20h21.50.822,classification_task,2021.2.3,Win32,59.90893841,5f740f60b8a1e41acc020269,626b377229c10585ec392f89,626b3a83526d4a31057ffb83,,,,,,,,,,,,,,,,,,,,,,,l,1,1.2142,"[""0.095"",""0.644"",""0.563"",""0.754""]","[1,0,1,1]",0,54,54,54,1,1,1,,,0,FALSE,,,,,,,,,,,,,,,,,,,,,,,,,,,,,,
,5f740f60b8a1e41acc020269,001,2022-04-28_20h21.50.822,classification_task,2021.2.3,Win32,59.90893841,5f740f60b8a1e41acc020269,626b377229c10585ec392f89,626b3a83526d4a31057ffb83,,,,,,,,,,,,,,,,,,,,,,,a,1,0.9055,"[""0.163"",""0.425"",""0.923"",""0.647""]","[1,1,1,0]",0,55,55,55,1,0,1,,,0,FALSE,,,,,,,,,,,,,,,,,,,,,,,,,,,,,,
,5f740f60b8a1e41acc020269,001,2022-04-28_20h21.50.822,classification_task,2021.2.3,Win32,59.90893841,5f740f60b8a1e41acc020269,626b377229c10585ec392f89,626b3a83526d4a31057ffb83,,,,,,,,,,,,,,,,,,,,,,,a,1,1.193,"[""0.163"",""0.425"",""0.647"",""0.972""]","[1,1,0,1]",0,56,56,56,1,0,1,,,0,FALSE,,,,,,,,,,,,,,,,,,,,,,,,,,,,,,
,5f740f60b8a1e41acc020269,001,2022-04-28_20h21.50.822,classification_task,2021.2.3,Win32,59.90893841,5f740f60b8a1e41acc020269,626b377229c10585ec392f89,626b3a83526d4a31057ffb83,,,,,,,,,,,,,,,,,,,,,,,l,0,1.7104,"[""0.235"",""0.382"",""0.518"",""0.882""]","[1,1,0,1]",0,57,57,57,1,0,0,,,0,FALSE,,,,,,,,,,,,,,,,,,,,,,,,,,,,,,
,5f740f60b8a1e41acc020269,001,2022-04-28_20h21.50.822,classification_task,2021.2.3,Win32,59.90893841,5f740f60b8a1e41acc020269,626b377229c10585ec392f89,626b3a83526d4a31057ffb83,,,,,,,,,,,,,,,,,,,,,,,a,0,0.9034,"[""0.129"",""0.049"",""0.607"",""0.694""]","[1,0,1,1]",0,58,58,58,1,1,0,,,0,FALSE,,,,,,,,,,,,,,,,,,,,,,,,,,,,,,
,5f740f60b8a1e41acc020269,001,2022-04-28_20h21.50.822,classification_task,2021.2.3,Win32,59.90893841,5f740f60b8a1e41acc020269,626b377229c10585ec392f89,626b3a83526d4a31057ffb83,,,,,,,,,,,,,,,,,,,,,,,a,1,2.239,"[""0.235"",""0.055"",""0.846"",""0.882""]","[1,0,1,1]",0,59,59,59,1,0,0,,,0,FALSE,,,,,,,,,,,,,,,,,,,,,,,,,,,,,,
,5f740f60b8a1e41acc020269,001,2022-04-28_20h21.50.822,classification_task,2021.2.3,Win32,59.90893841,5f740f60b8a1e41acc020269,626b377229c10585ec392f89,626b3a83526d4a31057ffb83,,,,,,,,,,,,,,,,,,,,,,,a,0,1.0155,"[""0.129"",""0.316"",""0.607"",""0.055""]","[1,1,1,0]",0,60,60,60,1,1,0,,,0,FALSE,,,,,,,,,,,,,,,,,,,,,,,,,,,,,,
,5f740f60b8a1e41acc020269,001,2022-04-28_20h21.50.822,classification_task,2021.2.3,Win32,59.90893841,5f740f60b8a1e41acc020269,626b377229c10585ec392f89,626b3a83526d4a31057ffb83,,,,,,,,,,,,,,,,,,,,,,,a,0,1.5152,"[""0.800"",""0.270"",""0.563"",""0.754""]","[0,1,1,1]",0,61,61,61,1,1,1,,,0,FALSE,,,,,,,,,,,,,,,,,,,,,,,,,,,,,,
,5f740f60b8a1e41acc020269,001,2022-04-28_20h21.50.822,classification_task,2021.2.3,Win32,59.90893841,5f740f60b8a1e41acc020269,626b377229c10585ec392f89,626b3a83526d4a31057ffb83,,,,,,,,,,,,,,,,,,,,,,,a,0,1.4253,"[""0.095"",""0.270"",""0.563"",""0.048""]","[1,1,1,0]",0,62,62,62,1,1,1,,,0,FALSE,,,,,,,,,,,,,,,,,,,,,,,,,,,,,,
,5f740f60b8a1e41acc020269,001,2022-04-28_20h21.50.822,classification_task,2021.2.3,Win32,59.90893841,5f740f60b8a1e41acc020269,626b377229c10585ec392f89,626b3a83526d4a31057ffb83,,,,,,,,,,,,,,,,,,,,,,,l,1,1.3133,"[""0.129"",""0.316"",""0.055"",""0.694""]","[1,1,0,1]",0,63,63,63,1,1,0,,,0,FALSE,,,,,,,,,,,,,,,,,,,,,,,,,,,,,,
,5f740f60b8a1e41acc020269,001,2022-04-28_20h21.50.822,classification_task,2021.2.3,Win32,59.90893841,5f740f60b8a1e41acc020269,626b377229c10585ec392f89,626b3a83526d4a31057ffb83,,,,,,,,,,,,,,,,,,,,,,,,,,,,,,,,,,,,,,,0, ,,0,7.859071869,577.7506,0,0,0,0,1,2,1,,,,,,,,,,,,,,,,,
,5f740f60b8a1e41acc020269,001,2022-04-28_20h21.50.822,classification_task,2021.2.3,Win32,59.90893841,5f740f60b8a1e41acc020269,626b377229c10585ec392f89,626b3a83526d4a31057ffb83,,,,,,,,,,,,,,,,,,,,,,,,,,,,,,,,,,,,,,,1,  ,,0,7.376818783,598.1087,0,0,0,0,1,2,1,,,,,,,,,,,,,,,,,
,5f740f60b8a1e41acc020269,001,2022-04-28_20h21.50.822,classification_task,2021.2.3,Win32,59.90893841,5f740f60b8a1e41acc020269,626b377229c10585ec392f89,626b3a83526d4a31057ffb83,,,,,,,,,,,,,,,,,,,,,,,,,,,,,,,,,,,,,,,2,  ,,0,0,612.2709,0,0,0,0,1,2,1,,,,,,,,,,,,,,,,,
,5f740f60b8a1e41acc020269,001,2022-04-28_20h21.50.822,classification_task,2021.2.3,Win32,59.90893841,5f740f60b8a1e41acc020269,626b377229c10585ec392f89,626b3a83526d4a31057ffb83,,,,,,,,,,,,,,,,,,,,,,,,,,,,,,,,,,,,,,,,,,,,,0,0,0,0,1,,1,,,,,,,,,,,,,,,,,
,5f740f60b8a1e41acc020269,001,2022-04-28_20h21.50.822,classification_task,2021.2.3,Win32,59.90893841,5f740f60b8a1e41acc020269,626b377229c10585ec392f89,626b3a83526d4a31057ffb83,,,,,,,,,,,,,,,,,,,,,space,13.4925,a,1,3.0577,"[""0.040"",""0.425"",""0.923"",""0.972""]","[0,1,1,1]",0,0,0,0,1,0,1,,,0,FALSE,,,,,,,,,,,,,,,,,,,,,,,,,,,,,,
,5f740f60b8a1e41acc020269,001,2022-04-28_20h21.50.822,classification_task,2021.2.3,Win32,59.90893841,5f740f60b8a1e41acc020269,626b377229c10585ec392f89,626b3a83526d4a31057ffb83,,,,,,,,,,,,,,,,,,,,,,,l,0,2.3063,"[""0.235"",""0.503"",""0.846"",""0.882""]","[1,0,1,1]",0,1,1,1,1,0,0,,,0,FALSE,,,,,,,,,,,,,,,,,,,,,,,,,,,,,,
,5f740f60b8a1e41acc020269,001,2022-04-28_20h21.50.822,classification_task,2021.2.3,Win32,59.90893841,5f740f60b8a1e41acc020269,626b377229c10585ec392f89,626b3a83526d4a31057ffb83,,,,,,,,,,,,,,,,,,,,,,,l,1,1.4677,"[""0.518"",""0.316"",""0.607"",""0.694""]","[0,1,1,1]",0,2,2,2,1,1,0,,,0,FALSE,,,,,,,,,,,,,,,,,,,,,,,,,,,,,,
,5f740f60b8a1e41acc020269,001,2022-04-28_20h21.50.822,classification_task,2021.2.3,Win32,59.90893841,5f740f60b8a1e41acc020269,626b377229c10585ec392f89,626b3a83526d4a31057ffb83,,,,,,,,,,,,,,,,,,,,,,,l,1,1.4792,"[""0.129"",""0.316"",""0.644"",""0.694""]","[1,1,0,1]",0,3,3,3,1,1,0,,,0,FALSE,,,,,,,,,,,,,,,,,,,,,,,,,,,,,,
,5f740f60b8a1e41acc020269,001,2022-04-28_20h21.50.822,classification_task,2021.2.3,Win32,59.90893841,5f740f60b8a1e41acc020269,626b377229c10585ec392f89,626b3a83526d4a31057ffb83,,,,,,,,,,,,,,,,,,,,,,,a,1,0.5309,"[""0.235"",""0.382"",""0.846"",""0.033""]","[1,1,1,0]",0,4,4,4,1,0,0,,,0,FALSE,,,,,,,,,,,,,,,,,,,,,,,,,,,,,,
,5f740f60b8a1e41acc020269,001,2022-04-28_20h21.50.822,classification_task,2021.2.3,Win32,59.90893841,5f740f60b8a1e41acc020269,626b377229c10585ec392f89,626b3a83526d4a31057ffb83,,,,,,,,,,,,,,,,,,,,,,,a,1,1.2583,"[""0.235"",""0.382"",""0.048"",""0.882""]","[1,1,0,1]",0,5,5,5,1,0,0,,,0,FALSE,,,,,,,,,,,,,,,,,,,,,,,,,,,,,,
,5f740f60b8a1e41acc020269,001,2022-04-28_20h21.50.822,classification_task,2021.2.3,Win32,59.90893841,5f740f60b8a1e41acc020269,626b377229c10585ec392f89,626b3a83526d4a31057ffb83,,,,,,,,,,,,,,,,,,,,,,,l,1,0.7288,"[""0.129"",""0.648"",""0.607"",""0.694""]","[1,0,1,1]",0,6,6,6,1,1,0,,,0,FALSE,,,,,,,,,,,,,,,,,,,,,,,,,,,,,,
,5f740f60b8a1e41acc020269,001,2022-04-28_20h21.50.822,classification_task,2021.2.3,Win32,59.90893841,5f740f60b8a1e41acc020269,626b377229c10585ec392f89,626b3a83526d4a31057ffb83,,,,,,,,,,,,,,,,,,,,,,,a,1,2.8302,"[""0.163"",""0.790"",""0.923"",""0.972""]","[1,0,1,1]",0,7,7,7,1,0,1,,,0,FALSE,,,,,,,,,,,,,,,,,,,,,,,,,,,,,,
,5f740f60b8a1e41acc020269,001,2022-04-28_20h21.50.822,classification_task,2021.2.3,Win32,59.90893841,5f740f60b8a1e41acc020269,626b377229c10585ec392f89,626b3a83526d4a31057ffb83,,,,,,,,,,,,,,,,,,,,,,,a,0,2.1753,"[""0.095"",""0.270"",""0.563"",""0.199""]","[1,1,1,0]",0,8,8,8,1,1,1,,,0,FALSE,,,,,,,,,,,,,,,,,,,,,,,,,,,,,,
,5f740f60b8a1e41acc020269,001,2022-04-28_20h21.50.822,classification_task,2021.2.3,Win32,59.90893841,5f740f60b8a1e41acc020269,626b377229c10585ec392f89,626b3a83526d4a31057ffb83,,,,,,,,,,,,,,,,,,,,,,,a,1,0.9436,"[""0.644"",""0.382"",""0.846"",""0.882""]","[0,1,1,1]",0,9,9,9,1,0,0,,,0,FALSE,,,,,,,,,,,,,,,,,,,,,,,,,,,,,,
,5f740f60b8a1e41acc020269,001,2022-04-28_20h21.50.822,classification_task,2021.2.3,Win32,59.90893841,5f740f60b8a1e41acc020269,626b377229c10585ec392f89,626b3a83526d4a31057ffb83,,,,,,,,,,,,,,,,,,,,,,,a,0,1.6728,"[""0.647"",""0.270"",""0.563"",""0.754""]","[0,1,1,1]",0,10,10,10,1,1,1,,,0,FALSE,,,,,,,,,,,,,,,,,,,,,,,,,,,,,,
,5f740f60b8a1e41acc020269,001,2022-04-28_20h21.50.822,classification_task,2021.2.3,Win32,59.90893841,5f740f60b8a1e41acc020269,626b377229c10585ec392f89,626b3a83526d4a31057ffb83,,,,,,,,,,,,,,,,,,,,,,,a,0,2.026,"[""0.095"",""0.270"",""0.790"",""0.754""]","[1,1,0,1]",0,11,11,11,1,1,1,,,0,FALSE,,,,,,,,,,,,,,,,,,,,,,,,,,,,,,
,5f740f60b8a1e41acc020269,001,2022-04-28_20h21.50.822,classification_task,2021.2.3,Win32,59.90893841,5f740f60b8a1e41acc020269,626b377229c10585ec392f89,626b3a83526d4a31057ffb83,,,,,,,,,,,,,,,,,,,,,,,a,1,1.2452,"[""0.163"",""0.425"",""0.923"",""0.503""]","[1,1,1,0]",0,12,12,12,1,0,1,,,0,FALSE,,,,,,,,,,,,,,,,,,,,,,,,,,,,,,
,5f740f60b8a1e41acc020269,001,2022-04-28_20h21.50.822,classification_task,2021.2.3,Win32,59.90893841,5f740f60b8a1e41acc020269,626b377229c10585ec392f89,626b3a83526d4a31057ffb83,,,,,,,,,,,,,,,,,,,,,,,l,0,1.049,"[""0.163"",""0.425"",""0.199"",""0.972""]","[1,1,0,1]",0,13,13,13,1,0,1,,,0,FALSE,,,,,,,,,,,,,,,,,,,,,,,,,,,,,,
,5f740f60b8a1e41acc020269,001,2022-04-28_20h21.50.822,classification_task,2021.2.3,Win32,59.90893841,5f740f60b8a1e41acc020269,626b377229c10585ec392f89,626b3a83526d4a31057ffb83,,,,,,,,,,,,,,,,,,,,,,,l,1,1.3598,"[""0.095"",""0.199"",""0.563"",""0.754""]","[1,0,1,1]",0,14,14,14,1,1,1,,,0,FALSE,,,,,,,,,,,,,,,,,,,,,,,,,,,,,,
,5f740f60b8a1e41acc020269,001,2022-04-28_20h21.50.822,classification_task,2021.2.3,Win32,59.90893841,5f740f60b8a1e41acc020269,626b377229c10585ec392f89,626b3a83526d4a31057ffb83,,,,,,,,,,,,,,,,,,,,,,,l,1,0.9849,"[""0.129"",""0.316"",""0.607"",""0.799""]","[1,1,1,0]",0,15,15,15,1,1,0,,,0,FALSE,,,,,,,,,,,,,,,,,,,,,,,,,,,,,,
,5f740f60b8a1e41acc020269,001,2022-04-28_20h21.50.822,classification_task,2021.2.3,Win32,59.90893841,5f740f60b8a1e41acc020269,626b377229c10585ec392f89,626b3a83526d4a31057ffb83,,,,,,,,,,,,,,,,,,,,,,,a,1,0.6346,"[""0.235"",""0.382"",""0.846"",""0.040""]","[1,1,1,0]",0,16,16,16,1,0,0,,,0,FALSE,,,,,,,,,,,,,,,,,,,,,,,,,,,,,,
,5f740f60b8a1e41acc020269,001,2022-04-28_20h21.50.822,classification_task,2021.2.3,Win32,59.90893841,5f740f60b8a1e41acc020269,626b377229c10585ec392f89,626b3a83526d4a31057ffb83,,,,,,,,,,,,,,,,,,,,,,,a,1,0.6544,"[""0.235"",""0.382"",""0.800"",""0.882""]","[1,1,0,1]",0,17,17,17,1,0,0,,,0,FALSE,,,,,,,,,,,,,,,,,,,,,,,,,,,,,,
,5f740f60b8a1e41acc020269,001,2022-04-28_20h21.50.822,classification_task,2021.2.3,Win32,59.90893841,5f740f60b8a1e41acc020269,626b377229c10585ec392f89,626b3a83526d4a31057ffb83,,,,,,,,,,,,,,,,,,,,,,,a,1,0.5488,"[""0.235"",""0.648"",""0.846"",""0.882""]","[1,0,1,1]",0,18,18,18,1,0,0,,,0,FALSE,,,,,,,,,,,,,,,,,,,,,,,,,,,,,,
,5f740f60b8a1e41acc020269,001,2022-04-28_20h21.50.822,classification_task,2021.2.3,Win32,59.90893841,5f740f60b8a1e41acc020269,626b377229c10585ec392f89,626b3a83526d4a31057ffb83,,,,,,,,,,,,,,,,,,,,,,,l,1,1.2756,"[""0.800"",""0.270"",""0.563"",""0.754""]","[0,1,1,1]",0,19,19,19,1,1,1,,,0,FALSE,,,,,,,,,,,,,,,,,,,,,,,,,,,,,,
,5f740f60b8a1e41acc020269,001,2022-04-28_20h21.50.822,classification_task,2021.2.3,Win32,59.90893841,5f740f60b8a1e41acc020269,626b377229c10585ec392f89,626b3a83526d4a31057ffb83,,,,,,,,,,,,,,,,,,,,,,,a,0,0.6382,"[""0.129"",""0.048"",""0.607"",""0.694""]","[1,0,1,1]",0,20,20,20,1,1,0,,,0,FALSE,,,,,,,,,,,,,,,,,,,,,,,,,,,,,,
,5f740f60b8a1e41acc020269,001,2022-04-28_20h21.50.822,classification_task,2021.2.3,Win32,59.90893841,5f740f60b8a1e41acc020269,626b377229c10585ec392f89,626b3a83526d4a31057ffb83,,,,,,,,,,,,,,,,,,,,,,,l,0,1.3917,"[""0.163"",""0.425"",""0.923"",""0.048""]","[1,1,1,0]",0,21,21,21,1,0,1,,,0,FALSE,,,,,,,,,,,,,,,,,,,,,,,,,,,,,,
,5f740f60b8a1e41acc020269,001,2022-04-28_20h21.50.822,classification_task,2021.2.3,Win32,59.90893841,5f740f60b8a1e41acc020269,626b377229c10585ec392f89,626b3a83526d4a31057ffb83,,,,,,,,,,,,,,,,,,,,,,,a,1,1.8016,"[""0.048"",""0.425"",""0.923"",""0.972""]","[0,1,1,1]",0,22,22,22,1,0,1,,,0,FALSE,,,,,,,,,,,,,,,,,,,,,,,,,,,,,,
,5f740f60b8a1e41acc020269,001,2022-04-28_20h21.50.822,classification_task,2021.2.3,Win32,59.90893841,5f740f60b8a1e41acc020269,626b377229c10585ec392f89,626b3a83526d4a31057ffb83,,,,,,,,,,,,,,,,,,,,,,,l,0,0.8539,"[""0.163"",""0.793"",""0.923"",""0.972""]","[1,0,1,1]",0,23,23,23,1,0,1,,,0,FALSE,,,,,,,,,,,,,,,,,,,,,,,,,,,,,,
,5f740f60b8a1e41acc020269,001,2022-04-28_20h21.50.822,classification_task,2021.2.3,Win32,59.90893841,5f740f60b8a1e41acc020269,626b377229c10585ec392f89,626b3a83526d4a31057ffb83,,,,,,,,,,,,,,,,,,,,,,,l,1,1.0495,"[""0.129"",""0.316"",""0.055"",""0.694""]","[1,1,0,1]",0,24,24,24,1,1,0,,,0,FALSE,,,,,,,,,,,,,,,,,,,,,,,,,,,,,,
,5f740f60b8a1e41acc020269,001,2022-04-28_20h21.50.822,classification_task,2021.2.3,Win32,59.90893841,5f740f60b8a1e41acc020269,626b377229c10585ec392f89,626b3a83526d4a31057ffb83,,,,,,,,,,,,,,,,,,,,,,,l,0,1.4605,"[""0.163"",""0.425"",""0.048"",""0.972""]","[1,1,0,1]",0,25,25,25,1,0,1,,,0,FALSE,,,,,,,,,,,,,,,,,,,,,,,,,,,,,,
,5f740f60b8a1e41acc020269,001,2022-04-28_20h21.50.822,classification_task,2021.2.3,Win32,59.90893841,5f740f60b8a1e41acc020269,626b377229c10585ec392f89,626b3a83526d4a31057ffb83,,,,,,,,,,,,,,,,,,,,,,,l,1,1.6471,"[""0.095"",""0.270"",""0.800"",""0.754""]","[1,1,0,1]",0,26,26,26,1,1,1,,,0,FALSE,,,,,,,,,,,,,,,,,,,,,,,,,,,,,,
,5f740f60b8a1e41acc020269,001,2022-04-28_20h21.50.822,classification_task,2021.2.3,Win32,59.90893841,5f740f60b8a1e41acc020269,626b377229c10585ec392f89,626b3a83526d4a31057ffb83,,,,,,,,,,,,,,,,,,,,,,,a,0,1.1333,"[""0.095"",""0.033"",""0.563"",""0.754""]","[1,0,1,1]",0,27,27,27,1,1,1,,,0,FALSE,,,,,,,,,,,,,,,,,,,,,,,,,,,,,,
,5f740f60b8a1e41acc020269,001,2022-04-28_20h21.50.822,classification_task,2021.2.3,Win32,59.90893841,5f740f60b8a1e41acc020269,626b377229c10585ec392f89,626b3a83526d4a31057ffb83,,,,,,,,,,,,,,,,,,,,,,,l,1,1.0534,"[""0.790"",""0.316"",""0.607"",""0.694""]","[0,1,1,1]",0,28,28,28,1,1,0,,,0,FALSE,,,,,,,,,,,,,,,,,,,,,,,,,,,,,,
,5f740f60b8a1e41acc020269,001,2022-04-28_20h21.50.822,classification_task,2021.2.3,Win32,59.90893841,5f740f60b8a1e41acc020269,626b377229c10585ec392f89,626b3a83526d4a31057ffb83,,,,,,,,,,,,,,,,,,,,,,,l,1,0.6155,"[""0.129"",""0.316"",""0.607"",""0.644""]","[1,1,1,0]",0,29,29,29,1,1,0,,,0,FALSE,,,,,,,,,,,,,,,,,,,,,,,,,,,,,,
,5f740f60b8a1e41acc020269,001,2022-04-28_20h21.50.822,classification_task,2021.2.3,Win32,59.90893841,5f740f60b8a1e41acc020269,626b377229c10585ec392f89,626b3a83526d4a31057ffb83,,,,,,,,,,,,,,,,,,,,,,,a,1,0.5196,"[""0.518"",""0.382"",""0.846"",""0.882""]","[0,1,1,1]",0,30,30,30,1,0,0,,,0,FALSE,,,,,,,,,,,,,,,,,,,,,,,,,,,,,,
,5f740f60b8a1e41acc020269,001,2022-04-28_20h21.50.822,classification_task,2021.2.3,Win32,59.90893841,5f740f60b8a1e41acc020269,626b377229c10585ec392f89,626b3a83526d4a31057ffb83,,,,,,,,,,,,,,,,,,,,,,,a,0,2.0108,"[""0.095"",""0.270"",""0.563"",""0.055""]","[1,1,1,0]",0,31,31,31,1,1,1,,,0,FALSE,,,,,,,,,,,,,,,,,,,,,,,,,,,,,,
,5f740f60b8a1e41acc020269,001,2022-04-28_20h21.50.822,classification_task,2021.2.3,Win32,59.90893841,5f740f60b8a1e41acc020269,626b377229c10585ec392f89,626b3a83526d4a31057ffb83,,,,,,,,,,,,,,,,,,,,,,,l,1,0.8512,"[""0.129"",""0.316"",""0.607"",""0.503""]","[1,1,1,0]",0,32,32,32,1,1,0,,,0,FALSE,,,,,,,,,,,,,,,,,,,,,,,,,,,,,,
,5f740f60b8a1e41acc020269,001,2022-04-28_20h21.50.822,classification_task,2021.2.3,Win32,59.90893841,5f740f60b8a1e41acc020269,626b377229c10585ec392f89,626b3a83526d4a31057ffb83,,,,,,,,,,,,,,,,,,,,,,,a,1,0.7361,"[""0.235"",""0.799"",""0.846"",""0.882""]","[1,0,1,1]",0,33,33,33,1,0,0,,,0,FALSE,,,,,,,,,,,,,,,,,,,,,,,,,,,,,,
,5f740f60b8a1e41acc020269,001,2022-04-28_20h21.50.822,classification_task,2021.2.3,Win32,59.90893841,5f740f60b8a1e41acc020269,626b377229c10585ec392f89,626b3a83526d4a31057ffb83,,,,,,,,,,,,,,,,,,,,,,,l,0,0.8305,"[""0.644"",""0.425"",""0.923"",""0.972""]","[0,1,1,1]",0,34,34,34,1,0,1,,,0,FALSE,,,,,,,,,,,,,,,,,,,,,,,,,,,,,,
,5f740f60b8a1e41acc020269,001,2022-04-28_20h21.50.822,classification_task,2021.2.3,Win32,59.90893841,5f740f60b8a1e41acc020269,626b377229c10585ec392f89,626b3a83526d4a31057ffb83,,,,,,,,,,,,,,,,,,,,,,,a,1,0.945,"[""0.235"",""0.382"",""0.040"",""0.882""]","[1,1,0,1]",0,35,35,35,1,0,0,,,0,FALSE,,,,,,,,,,,,,,,,,,,,,,,,,,,,,,
,5f740f60b8a1e41acc020269,001,2022-04-28_20h21.50.822,classification_task,2021.2.3,Win32,59.90893841,5f740f60b8a1e41acc020269,626b377229c10585ec392f89,626b3a83526d4a31057ffb83,,,,,,,,,,,,,,,,,,,,,,,l,1,0.6283,"[""0.129"",""0.316"",""0.199"",""0.694""]","[1,1,0,1]",0,36,36,36,1,1,0,,,0,FALSE,,,,,,,,,,,,,,,,,,,,,,,,,,,,,,
,5f740f60b8a1e41acc020269,001,2022-04-28_20h21.50.822,classification_task,2021.2.3,Win32,59.90893841,5f740f60b8a1e41acc020269,626b377229c10585ec392f89,626b3a83526d4a31057ffb83,,,,,,,,,,,,,,,,,,,,,,,l,1,0.629,"[""0.793"",""0.316"",""0.607"",""0.694""]","[0,1,1,1]",0,37,37,37,1,1,0,,,0,FALSE,,,,,,,,,,,,,,,,,,,,,,,,,,,,,,
,5f740f60b8a1e41acc020269,001,2022-04-28_20h21.50.822,classification_task,2021.2.3,Win32,59.90893841,5f740f60b8a1e41acc020269,626b377229c10585ec392f89,626b3a83526d4a31057ffb83,,,,,,,,,,,,,,,,,,,,,,,l,1,1.5803,"[""0.790"",""0.270"",""0.563"",""0.754""]","[0,1,1,1]",0,38,38,38,1,1,1,,,0,FALSE,,,,,,,,,,,,,,,,,,,,,,,,,,,,,,
,5f740f60b8a1e41acc020269,001,2022-04-28_20h21.50.822,classification_task,2021.2.3,Win32,59.90893841,5f740f60b8a1e41acc020269,626b377229c10585ec392f89,626b3a83526d4a31057ffb83,,,,,,,,,,,,,,,,,,,,,,,a,0,0.7487,"[""0.095"",""0.270"",""0.793"",""0.754""]","[1,1,0,1]",0,39,39,39,1,1,1,,,0,FALSE,,,,,,,,,,,,,,,,,,,,,,,,,,,,,,
,5f740f60b8a1e41acc020269,001,2022-04-28_20h21.50.822,classification_task,2021.2.3,Win32,59.90893841,5f740f60b8a1e41acc020269,626b377229c10585ec392f89,626b3a83526d4a31057ffb83,,,,,,,,,,,,,,,,,,,,,,,a,1,0.8435,"[""0.235"",""0.382"",""0.846"",""0.055""]","[1,1,1,0]",0,40,40,40,1,0,0,,,0,FALSE,,,,,,,,,,,,,,,,,,,,,,,,,,,,,,
,5f740f60b8a1e41acc020269,001,2022-04-28_20h21.50.822,classification_task,2021.2.3,Win32,59.90893841,5f740f60b8a1e41acc020269,626b377229c10585ec392f89,626b3a83526d4a31057ffb83,,,,,,,,,,,,,,,,,,,,,,,a,1,1.6991,"[""0.163"",""0.425"",""0.923"",""0.049""]","[1,1,1,0]",0,41,41,41,1,0,1,,,0,FALSE,,,,,,,,,,,,,,,,,,,,,,,,,,,,,,
,5f740f60b8a1e41acc020269,001,2022-04-28_20h21.50.822,classification_task,2021.2.3,Win32,59.90893841,5f740f60b8a1e41acc020269,626b377229c10585ec392f89,626b3a83526d4a31057ffb83,,,,,,,,,,,,,,,,,,,,,,,l,0,0.8298,"[""0.163"",""0.199"",""0.923"",""0.972""]","[1,0,1,1]",0,42,42,42,1,0,1,,,0,FALSE,,,,,,,,,,,,,,,,,,,,,,,,,,,,,,
,5f740f60b8a1e41acc020269,001,2022-04-28_20h21.50.822,classification_task,2021.2.3,Win32,59.90893841,5f740f60b8a1e41acc020269,626b377229c10585ec392f89,626b3a83526d4a31057ffb83,,,,,,,,,,,,,,,,,,,,,,,l,1,1.2612,"[""0.129"",""0.055"",""0.607"",""0.694""]","[1,0,1,1]",0,43,43,43,1,1,0,,,0,FALSE,,,,,,,,,,,,,,,,,,,,,,,,,,,,,,
,5f740f60b8a1e41acc020269,001,2022-04-28_20h21.50.822,classification_task,2021.2.3,Win32,59.90893841,5f740f60b8a1e41acc020269,626b377229c10585ec392f89,626b3a83526d4a31057ffb83,,,,,,,,,,,,,,,,,,,,,,,a,0,0.7414,"[""0.095"",""0.793"",""0.563"",""0.754""]","[1,0,1,1]",0,44,44,44,1,1,1,,,0,FALSE,,,,,,,,,,,,,,,,,,,,,,,,,,,,,,
,5f740f60b8a1e41acc020269,001,2022-04-28_20h21.50.822,classification_task,2021.2.3,Win32,59.90893841,5f740f60b8a1e41acc020269,626b377229c10585ec392f89,626b3a83526d4a31057ffb83,,,,,,,,,,,,,,,,,,,,,,,l,0,0.6293,"[""0.163"",""0.425"",""0.793"",""0.972""]","[1,1,0,1]",0,45,45,45,1,0,1,,,0,FALSE,,,,,,,,,,,,,,,,,,,,,,,,,,,,,,
,5f740f60b8a1e41acc020269,001,2022-04-28_20h21.50.822,classification_task,2021.2.3,Win32,59.90893841,5f740f60b8a1e41acc020269,626b377229c10585ec392f89,626b3a83526d4a31057ffb83,,,,,,,,,,,,,,,,,,,,,,,l,1,1.1755,"[""0.095"",""0.270"",""0.563"",""0.790""]","[1,1,1,0]",0,46,46,46,1,1,1,,,0,FALSE,,,,,,,,,,,,,,,,,,,,,,,,,,,,,,
,5f740f60b8a1e41acc020269,001,2022-04-28_20h21.50.822,classification_task,2021.2.3,Win32,59.90893841,5f740f60b8a1e41acc020269,626b377229c10585ec392f89,626b3a83526d4a31057ffb83,,,,,,,,,,,,,,,,,,,,,,,a,1,0.6279,"[""0.799"",""0.382"",""0.846"",""0.882""]","[0,1,1,1]",0,47,47,47,1,0,0,,,0,FALSE,,,,,,,,,,,,,,,,,,,,,,,,,,,,,,
,5f740f60b8a1e41acc020269,001,2022-04-28_20h21.50.822,classification_task,2021.2.3,Win32,59.90893841,5f740f60b8a1e41acc020269,626b377229c10585ec392f89,626b3a83526d4a31057ffb83,,,,,,,,,,,,,,,,,,,,,,,l,1,0.6344,"[""0.129"",""0.055"",""0.607"",""0.694""]","[1,0,1,1]",0,48,48,48,1,1,0,,,0,FALSE,,,,,,,,,,,,,,,,,,,,,,,,,,,,,,
,5f740f60b8a1e41acc020269,001,2022-04-28_20h21.50.822,classification_task,2021.2.3,Win32,59.90893841,5f740f60b8a1e41acc020269,626b377229c10585ec392f89,626b3a83526d4a31057ffb83,,,,,,,,,,,,,,,,,,,,,,,a,0,1.1581,"[""0.095"",""0.270"",""0.799"",""0.754""]","[1,1,0,1]",0,49,49,49,1,1,1,,,0,FALSE,,,,,,,,,,,,,,,,,,,,,,,,,,,,,,
,5f740f60b8a1e41acc020269,001,2022-04-28_20h21.50.822,classification_task,2021.2.3,Win32,59.90893841,5f740f60b8a1e41acc020269,626b377229c10585ec392f89,626b3a83526d4a31057ffb83,,,,,,,,,,,,,,,,,,,,,,,l,1,0.9465,"[""0.129"",""0.316"",""0.607"",""0.518""]","[1,1,1,0]",0,50,50,50,1,1,0,,,0,FALSE,,,,,,,,,,,,,,,,,,,,,,,,,,,,,,
,5f740f60b8a1e41acc020269,001,2022-04-28_20h21.50.822,classification_task,2021.2.3,Win32,59.90893841,5f740f60b8a1e41acc020269,626b377229c10585ec392f89,626b3a83526d4a31057ffb83,,,,,,,,,,,,,,,,,,,,,,,a,1,0.5368,"[""0.235"",""0.382"",""0.800"",""0.882""]","[1,1,0,1]",0,51,51,51,1,0,0,,,0,FALSE,,,,,,,,,,,,,,,,,,,,,,,,,,,,,,
,5f740f60b8a1e41acc020269,001,2022-04-28_20h21.50.822,classification_task,2021.2.3,Win32,59.90893841,5f740f60b8a1e41acc020269,626b377229c10585ec392f89,626b3a83526d4a31057ffb83,,,,,,,,,,,,,,,,,,,,,,,l,0,1.8957,"[""0.163"",""0.425"",""0.923"",""0.518""]","[1,1,1,0]",0,52,52,52,1,0,1,,,0,FALSE,,,,,,,,,,,,,,,,,,,,,,,,,,,,,,
,5f740f60b8a1e41acc020269,001,2022-04-28_20h21.50.822,classification_task,2021.2.3,Win32,59.90893841,5f740f60b8a1e41acc020269,626b377229c10585ec392f89,626b3a83526d4a31057ffb83,,,,,,,,,,,,,,,,,,,,,,,l,0,1.0549,"[""0.055"",""0.425"",""0.923"",""0.972""]","[0,1,1,1]",0,53,53,53,1,0,1,,,0,FALSE,,,,,,,,,,,,,,,,,,,,,,,,,,,,,,
,5f740f60b8a1e41acc020269,001,2022-04-28_20h21.50.822,classification_task,2021.2.3,Win32,59.90893841,5f740f60b8a1e41acc020269,626b377229c10585ec392f89,626b3a83526d4a31057ffb83,,,,,,,,,,,,,,,,,,,,,,,l,1,0.8361,"[""0.129"",""0.316"",""0.644"",""0.694""]","[1,1,0,1]",0,54,54,54,1,1,0,,,0,FALSE,,,,,,,,,,,,,,,,,,,,,,,,,,,,,,
,5f740f60b8a1e41acc020269,001,2022-04-28_20h21.50.822,classification_task,2021.2.3,Win32,59.90893841,5f740f60b8a1e41acc020269,626b377229c10585ec392f89,626b3a83526d4a31057ffb83,,,,,,,,,,,,,,,,,,,,,,,a,1,0.8289,"[""0.163"",""0.425"",""0.199"",""0.972""]","[1,1,0,1]",0,55,55,55,1,0,1,,,0,FALSE,,,,,,,,,,,,,,,,,,,,,,,,,,,,,,
,5f740f60b8a1e41acc020269,001,2022-04-28_20h21.50.822,classification_task,2021.2.3,Win32,59.90893841,5f740f60b8a1e41acc020269,626b377229c10585ec392f89,626b3a83526d4a31057ffb83,,,,,,,,,,,,,,,,,,,,,,,l,1,0.9445,"[""0.095"",""0.647"",""0.563"",""0.754""]","[1,0,1,1]",0,56,56,56,1,1,1,,,0,FALSE,,,,,,,,,,,,,,,,,,,,,,,,,,,,,,
,5f740f60b8a1e41acc020269,001,2022-04-28_20h21.50.822,classification_task,2021.2.3,Win32,59.90893841,5f740f60b8a1e41acc020269,626b377229c10585ec392f89,626b3a83526d4a31057ffb83,,,,,,,,,,,,,,,,,,,,,,,a,1,0.8373,"[""0.235"",""0.518"",""0.846"",""0.882""]","[1,0,1,1]",0,57,57,57,1,0,0,,,0,FALSE,,,,,,,,,,,,,,,,,,,,,,,,,,,,,,
,5f740f60b8a1e41acc020269,001,2022-04-28_20h21.50.822,classification_task,2021.2.3,Win32,59.90893841,5f740f60b8a1e41acc020269,626b377229c10585ec392f89,626b3a83526d4a31057ffb83,,,,,,,,,,,,,,,,,,,,,,,l,1,0.8376,"[""0.648"",""0.316"",""0.607"",""0.694""]","[0,1,1,1]",0,58,58,58,1,1,0,,,0,FALSE,,,,,,,,,,,,,,,,,,,,,,,,,,,,,,
,5f740f60b8a1e41acc020269,001,2022-04-28_20h21.50.822,classification_task,2021.2.3,Win32,59.90893841,5f740f60b8a1e41acc020269,626b377229c10585ec392f89,626b3a83526d4a31057ffb83,,,,,,,,,,,,,,,,,,,,,,,a,0,1.6656,"[""0.095"",""0.270"",""0.563"",""0.199""]","[1,1,1,0]",0,59,59,59,1,1,1,,,0,FALSE,,,,,,,,,,,,,,,,,,,,,,,,,,,,,,
,5f740f60b8a1e41acc020269,001,2022-04-28_20h21.50.822,classification_task,2021.2.3,Win32,59.90893841,5f740f60b8a1e41acc020269,626b377229c10585ec392f89,626b3a83526d4a31057ffb83,,,,,,,,,,,,,,,,,,,,,,,l,0,1.2616,"[""0.163"",""0.790"",""0.923"",""0.972""]","[1,0,1,1]",0,60,60,60,1,0,1,,,0,FALSE,,,,,,,,,,,,,,,,,,,,,,,,,,,,,,
,5f740f60b8a1e41acc020269,001,2022-04-28_20h21.50.822,classification_task,2021.2.3,Win32,59.90893841,5f740f60b8a1e41acc020269,626b377229c10585ec392f89,626b3a83526d4a31057ffb83,,,,,,,,,,,,,,,,,,,,,,,a,1,0.9491,"[""0.033"",""0.382"",""0.846"",""0.882""]","[0,1,1,1]",0,61,61,61,1,0,0,,,0,FALSE,,,,,,,,,,,,,,,,,,,,,,,,,,,,,,
,5f740f60b8a1e41acc020269,001,2022-04-28_20h21.50.822,classification_task,2021.2.3,Win32,59.90893841,5f740f60b8a1e41acc020269,626b377229c10585ec392f89,626b3a83526d4a31057ffb83,,,,,,,,,,,,,,,,,,,,,,,a,0,1.8628,"[""0.040"",""0.270"",""0.563"",""0.754""]","[0,1,1,1]",0,62,62,62,1,1,1,,,0,FALSE,,,,,,,,,,,,,,,,,,,,,,,,,,,,,,
,5f740f60b8a1e41acc020269,001,2022-04-28_20h21.50.822,classification_task,2021.2.3,Win32,59.90893841,5f740f60b8a1e41acc020269,626b377229c10585ec392f89,626b3a83526d4a31057ffb83,,,,,,,,,,,,,,,,,,,,,,,a,1,0.635,"[""0.235"",""0.382"",""0.846"",""0.648""]","[1,1,1,0]",0,63,63,63,1,0,0,,,0,FALSE,,,,,,,,,,,,,,,,,,,,,,,,,,,,,,
,5f740f60b8a1e41acc020269,001,2022-04-28_20h21.50.822,classification_task,2021.2.3,Win32,59.90893841,5f740f60b8a1e41acc020269,626b377229c10585ec392f89,626b3a83526d4a31057ffb83,,,,,,,,,,,,,,,,,,,,,,,,,,,,,,,,,,,,,,,0, ,,0,6.687885802,169.0873,0,1,1,1,1,2,2,,,,,,,,,,,,,,,,,
,5f740f60b8a1e41acc020269,001,2022-04-28_20h21.50.822,classification_task,2021.2.3,Win32,59.90893841,5f740f60b8a1e41acc020269,626b377229c10585ec392f89,626b3a83526d4a31057ffb83,,,,,,,,,,,,,,,,,,,,,,,,,,,,,,,,,,,,,,,1,  ,,0,7.927965168,172.2593,0,1,1,1,1,2,2,,,,,,,,,,,,,,,,,
,5f740f60b8a1e41acc020269,001,2022-04-28_20h21.50.822,classification_task,2021.2.3,Win32,59.90893841,5f740f60b8a1e41acc020269,626b377229c10585ec392f89,626b3a83526d4a31057ffb83,,,,,,,,,,,,,,,,,,,,,,,,,,,,,,,,,,,,,,,2,  ,,0,0,179.267,0,1,1,1,1,2,2,,,,,,,,,,,,,,,,,
,5f740f60b8a1e41acc020269,001,2022-04-28_20h21.50.822,classification_task,2021.2.3,Win32,59.90893841,5f740f60b8a1e41acc020269,626b377229c10585ec392f89,626b3a83526d4a31057ffb83,,,,,,,,,,,,,,,,,,,,,,,,,,,,,,,,,,,,,,,,,,,,,0,1,1,1,1,,2,,,,,,,,,,,,,,,,,
,5f740f60b8a1e41acc020269,001,2022-04-28_20h21.50.822,classification_task,2021.2.3,Win32,59.90893841,5f740f60b8a1e41acc020269,626b377229c10585ec392f89,626b3a83526d4a31057ffb83,,,,,,,,,,,,,,,,,,,,,space,12.7642,l,0,1.6787,"[""0.163"",""0.425"",""0.923"",""0.503""]","[1,1,1,0]",0,0,0,0,1,0,1,,,0,FALSE,,,,,,,,,,,,,,,,,,,,,,,,,,,,,,
,5f740f60b8a1e41acc020269,001,2022-04-28_20h21.50.822,classification_task,2021.2.3,Win32,59.90893841,5f740f60b8a1e41acc020269,626b377229c10585ec392f89,626b3a83526d4a31057ffb83,,,,,,,,,,,,,,,,,,,,,,,l,0,1.9686,"[""0.235"",""0.199"",""0.846"",""0.882""]","[1,0,1,1]",0,1,1,1,1,0,0,,,0,FALSE,,,,,,,,,,,,,,,,,,,,,,,,,,,,,,
,5f740f60b8a1e41acc020269,001,2022-04-28_20h21.50.822,classification_task,2021.2.3,Win32,59.90893841,5f740f60b8a1e41acc020269,626b377229c10585ec392f89,626b3a83526d4a31057ffb83,,,,,,,,,,,,,,,,,,,,,,,a,1,1.229,"[""0.163"",""0.503"",""0.923"",""0.972""]","[1,0,1,1]",0,2,2,2,1,0,1,,,0,FALSE,,,,,,,,,,,,,,,,,,,,,,,,,,,,,,
,5f740f60b8a1e41acc020269,001,2022-04-28_20h21.50.822,classification_task,2021.2.3,Win32,59.90893841,5f740f60b8a1e41acc020269,626b377229c10585ec392f89,626b3a83526d4a31057ffb83,,,,,,,,,,,,,,,,,,,,,,,a,0,0.822,"[""0.095"",""0.270"",""0.048"",""0.754""]","[1,1,0,1]",0,3,3,3,1,1,1,,,0,FALSE,,,,,,,,,,,,,,,,,,,,,,,,,,,,,,
,5f740f60b8a1e41acc020269,001,2022-04-28_20h21.50.822,classification_task,2021.2.3,Win32,59.90893841,5f740f60b8a1e41acc020269,626b377229c10585ec392f89,626b3a83526d4a31057ffb83,,,,,,,,,,,,,,,,,,,,,,,l,0,1.2417,"[""0.163"",""0.425"",""0.799"",""0.972""]","[1,1,0,1]",0,4,4,4,1,0,1,,,0,FALSE,,,,,,,,,,,,,,,,,,,,,,,,,,,,,,
,5f740f60b8a1e41acc020269,001,2022-04-28_20h21.50.822,classification_task,2021.2.3,Win32,59.90893841,5f740f60b8a1e41acc020269,626b377229c10585ec392f89,626b3a83526d4a31057ffb83,,,,,,,,,,,,,,,,,,,,,,,l,1,1.1425,"[""0.095"",""0.793"",""0.563"",""0.754""]","[1,0,1,1]",0,5,5,5,1,1,1,,,0,FALSE,,,,,,,,,,,,,,,,,,,,,,,,,,,,,,
,5f740f60b8a1e41acc020269,001,2022-04-28_20h21.50.822,classification_task,2021.2.3,Win32,59.90893841,5f740f60b8a1e41acc020269,626b377229c10585ec392f89,626b3a83526d4a31057ffb83,,,,,,,,,,,,,,,,,,,,,,,a,1,0.9113,"[""0.235"",""0.382"",""0.846"",""0.048""]","[1,1,1,0]",0,6,6,6,1,0,0,,,0,FALSE,,,,,,,,,,,,,,,,,,,,,,,,,,,,,,
,5f740f60b8a1e41acc020269,001,2022-04-28_20h21.50.822,classification_task,2021.2.3,Win32,59.90893841,5f740f60b8a1e41acc020269,626b377229c10585ec392f89,626b3a83526d4a31057ffb83,,,,,,,,,,,,,,,,,,,,,,,a,1,0.9162,"[""0.235"",""0.382"",""0.049"",""0.882""]","[1,1,0,1]",0,7,7,7,1,0,0,,,0,FALSE,,,,,,,,,,,,,,,,,,,,,,,,,,,,,,
,5f740f60b8a1e41acc020269,001,2022-04-28_20h21.50.822,classification_task,2021.2.3,Win32,59.90893841,5f740f60b8a1e41acc020269,626b377229c10585ec392f89,626b3a83526d4a31057ffb83,,,,,,,,,,,,,,,,,,,,,,,a,0,1.1339,"[""0.129"",""0.316"",""0.048"",""0.694""]","[1,1,0,1]",0,8,8,8,1,1,0,,,0,FALSE,,,,,,,,,,,,,,,,,,,,,,,,,,,,,,
,5f740f60b8a1e41acc020269,001,2022-04-28_20h21.50.822,classification_task,2021.2.3,Win32,59.90893841,5f740f60b8a1e41acc020269,626b377229c10585ec392f89,626b3a83526d4a31057ffb83,,,,,,,,,,,,,,,,,,,,,,,a,0,0.8099,"[""0.129"",""0.316"",""0.607"",""0.055""]","[1,1,1,0]",0,9,9,9,1,1,0,,,0,FALSE,,,,,,,,,,,,,,,,,,,,,,,,,,,,,,
,5f740f60b8a1e41acc020269,001,2022-04-28_20h21.50.822,classification_task,2021.2.3,Win32,59.90893841,5f740f60b8a1e41acc020269,626b377229c10585ec392f89,626b3a83526d4a31057ffb83,,,,,,,,,,,,,,,,,,,,,,,l,0,0.8137,"[""0.648"",""0.382"",""0.846"",""0.882""]","[0,1,1,1]",0,10,10,10,1,0,0,,,0,FALSE,,,,,,,,,,,,,,,,,,,,,,,,,,,,,,
,5f740f60b8a1e41acc020269,001,2022-04-28_20h21.50.822,classification_task,2021.2.3,Win32,59.90893841,5f740f60b8a1e41acc020269,626b377229c10585ec392f89,626b3a83526d4a31057ffb83,,,,,,,,,,,,,,,,,,,,,,,a,0,1.3511,"[""0.518"",""0.270"",""0.563"",""0.754""]","[0,1,1,1]",0,11,11,11,1,1,1,,,0,FALSE,,,,,,,,,,,,,,,,,,,,,,,,,,,,,,
,5f740f60b8a1e41acc020269,001,2022-04-28_20h21.50.822,classification_task,2021.2.3,Win32,59.90893841,5f740f60b8a1e41acc020269,626b377229c10585ec392f89,626b3a83526d4a31057ffb83,,,,,,,,,,,,,,,,,,,,,,,a,0,1.4251,"[""0.503"",""0.316"",""0.607"",""0.694""]","[0,1,1,1]",0,12,12,12,1,1,0,,,0,FALSE,,,,,,,,,,,,,,,,,,,,,,,,,,,,,,
,5f740f60b8a1e41acc020269,001,2022-04-28_20h21.50.822,classification_task,2021.2.3,Win32,59.90893841,5f740f60b8a1e41acc020269,626b377229c10585ec392f89,626b3a83526d4a31057ffb83,,,,,,,,,,,,,,,,,,,,,,,l,1,1.107,"[""0.095"",""0.270"",""0.563"",""0.647""]","[1,1,1,0]",0,13,13,13,1,1,1,,,0,FALSE,,,,,,,,,,,,,,,,,,,,,,,,,,,,,,
,5f740f60b8a1e41acc020269,001,2022-04-28_20h21.50.822,classification_task,2021.2.3,Win32,59.90893841,5f740f60b8a1e41acc020269,626b377229c10585ec392f89,626b3a83526d4a31057ffb83,,,,,,,,,,,,,,,,,,,,,,,l,1,1.3467,"[""0.129"",""0.055"",""0.607"",""0.694""]","[1,0,1,1]",0,14,14,14,1,1,0,,,0,FALSE,,,,,,,,,,,,,,,,,,,,,,,,,,,,,,
,5f740f60b8a1e41acc020269,001,2022-04-28_20h21.50.822,classification_task,2021.2.3,Win32,59.90893841,5f740f60b8a1e41acc020269,626b377229c10585ec392f89,626b3a83526d4a31057ffb83,,,,,,,,,,,,,,,,,,,,,,,a,1,1.2304,"[""0.503"",""0.425"",""0.923"",""0.972""]","[0,1,1,1]",0,15,15,15,1,0,1,,,0,FALSE,,,,,,,,,,,,,,,,,,,,,,,,,,,,,,
,5f740f60b8a1e41acc020269,001,2022-04-28_20h21.50.822,classification_task,2021.2.3,Win32,59.90893841,5f740f60b8a1e41acc020269,626b377229c10585ec392f89,626b3a83526d4a31057ffb83,,,,,,,,,,,,,,,,,,,,,,,a,1,1.5161,"[""0.163"",""0.425"",""0.923"",""0.790""]","[1,1,1,0]",0,16,16,16,1,0,1,,,0,FALSE,,,,,,,,,,,,,,,,,,,,,,,,,,,,,,
,5f740f60b8a1e41acc020269,001,2022-04-28_20h21.50.822,classification_task,2021.2.3,Win32,59.90893841,5f740f60b8a1e41acc020269,626b377229c10585ec392f89,626b3a83526d4a31057ffb83,,,,,,,,,,,,,,,,,,,,,,,a,1,1.2106,"[""0.235"",""0.382"",""0.846"",""0.049""]","[1,1,1,0]",0,17,17,17,1,0,0,,,0,FALSE,,,,,,,,,,,,,,,,,,,,,,,,,,,,,,
,5f740f60b8a1e41acc020269,001,2022-04-28_20h21.50.822,classification_task,2021.2.3,Win32,59.90893841,5f740f60b8a1e41acc020269,626b377229c10585ec392f89,626b3a83526d4a31057ffb83,,,,,,,,,,,,,,,,,,,,,,,l,1,0.6216,"[""0.648"",""0.270"",""0.563"",""0.754""]","[0,1,1,1]",0,18,18,18,1,1,1,,,0,FALSE,,,,,,,,,,,,,,,,,,,,,,,,,,,,,,
,5f740f60b8a1e41acc020269,001,2022-04-28_20h21.50.822,classification_task,2021.2.3,Win32,59.90893841,5f740f60b8a1e41acc020269,626b377229c10585ec392f89,626b3a83526d4a31057ffb83,,,,,,,,,,,,,,,,,,,,,,,l,0,1.3548,"[""0.235"",""0.382"",""0.648"",""0.882""]","[1,1,0,1]",0,19,19,19,1,0,0,,,0,FALSE,,,,,,,,,,,,,,,,,,,,,,,,,,,,,,
,5f740f60b8a1e41acc020269,001,2022-04-28_20h21.50.822,classification_task,2021.2.3,Win32,59.90893841,5f740f60b8a1e41acc020269,626b377229c10585ec392f89,626b3a83526d4a31057ffb83,,,,,,,,,,,,,,,,,,,,,,,a,1,0.7255,"[""0.235"",""0.033"",""0.846"",""0.882""]","[1,0,1,1]",0,20,20,20,1,0,0,,,0,FALSE,,,,,,,,,,,,,,,,,,,,,,,,,,,,,,
,5f740f60b8a1e41acc020269,001,2022-04-28_20h21.50.822,classification_task,2021.2.3,Win32,59.90893841,5f740f60b8a1e41acc020269,626b377229c10585ec392f89,626b3a83526d4a31057ffb83,,,,,,,,,,,,,,,,,,,,,,,a,0,0.8249,"[""0.129"",""0.040"",""0.607"",""0.694""]","[1,0,1,1]",0,21,21,21,1,1,0,,,0,FALSE,,,,,,,,,,,,,,,,,,,,,,,,,,,,,,
,5f740f60b8a1e41acc020269,001,2022-04-28_20h21.50.822,classification_task,2021.2.3,Win32,59.90893841,5f740f60b8a1e41acc020269,626b377229c10585ec392f89,626b3a83526d4a31057ffb83,,,,,,,,,,,,,,,,,,,,,,,a,1,1.1089,"[""0.503"",""0.382"",""0.846"",""0.882""]","[0,1,1,1]",0,22,22,22,1,0,0,,,0,FALSE,,,,,,,,,,,,,,,,,,,,,,,,,,,,,,
,5f740f60b8a1e41acc020269,001,2022-04-28_20h21.50.822,classification_task,2021.2.3,Win32,59.90893841,5f740f60b8a1e41acc020269,626b377229c10585ec392f89,626b3a83526d4a31057ffb83,,,,,,,,,,,,,,,,,,,,,,,l,1,1.5336,"[""0.095"",""0.270"",""0.793"",""0.754""]","[1,1,0,1]",0,23,23,23,1,1,1,,,0,FALSE,,,,,,,,,,,,,,,,,,,,,,,,,,,,,,
,5f740f60b8a1e41acc020269,001,2022-04-28_20h21.50.822,classification_task,2021.2.3,Win32,59.90893841,5f740f60b8a1e41acc020269,626b377229c10585ec392f89,626b3a83526d4a31057ffb83,,,,,,,,,,,,,,,,,,,,,,,l,0,0.9364,"[""0.055"",""0.425"",""0.923"",""0.972""]","[0,1,1,1]",0,24,24,24,1,0,1,,,0,FALSE,,,,,,,,,,,,,,,,,,,,,,,,,,,,,,
,5f740f60b8a1e41acc020269,001,2022-04-28_20h21.50.822,classification_task,2021.2.3,Win32,59.90893841,5f740f60b8a1e41acc020269,626b377229c10585ec392f89,626b3a83526d4a31057ffb83,,,,,,,,,,,,,,,,,,,,,,,a,1,1.332,"[""0.163"",""0.425"",""0.648"",""0.972""]","[1,1,0,1]",0,25,25,25,1,0,1,,,0,FALSE,,,,,,,,,,,,,,,,,,,,,,,,,,,,,,
,5f740f60b8a1e41acc020269,001,2022-04-28_20h21.50.822,classification_task,2021.2.3,Win32,59.90893841,5f740f60b8a1e41acc020269,626b377229c10585ec392f89,626b3a83526d4a31057ffb83,,,,,,,,,,,,,,,,,,,,,,,a,0,1.0079,"[""0.049"",""0.316"",""0.607"",""0.694""]","[0,1,1,1]",0,26,26,26,1,1,0,,,0,FALSE,,,,,,,,,,,,,,,,,,,,,,,,,,,,,,
,5f740f60b8a1e41acc020269,001,2022-04-28_20h21.50.822,classification_task,2021.2.3,Win32,59.90893841,5f740f60b8a1e41acc020269,626b377229c10585ec392f89,626b3a83526d4a31057ffb83,,,,,,,,,,,,,,,,,,,,,,,l,1,0.7229,"[""0.129"",""0.316"",""0.607"",""0.800""]","[1,1,1,0]",0,27,27,27,1,1,0,,,0,FALSE,,,,,,,,,,,,,,,,,,,,,,,,,,,,,,
,5f740f60b8a1e41acc020269,001,2022-04-28_20h21.50.822,classification_task,2021.2.3,Win32,59.90893841,5f740f60b8a1e41acc020269,626b377229c10585ec392f89,626b3a83526d4a31057ffb83,,,,,,,,,,,,,,,,,,,,,,,l,0,0.908,"[""0.163"",""0.503"",""0.923"",""0.972""]","[1,0,1,1]",0,28,28,28,1,0,1,,,0,FALSE,,,,,,,,,,,,,,,,,,,,,,,,,,,,,,
,5f740f60b8a1e41acc020269,001,2022-04-28_20h21.50.822,classification_task,2021.2.3,Win32,59.90893841,5f740f60b8a1e41acc020269,626b377229c10585ec392f89,626b3a83526d4a31057ffb83,,,,,,,,,,,,,,,,,,,,,,,a,0,0.8197,"[""0.095"",""0.033"",""0.563"",""0.754""]","[1,0,1,1]",0,29,29,29,1,1,1,,,0,FALSE,,,,,,,,,,,,,,,,,,,,,,,,,,,,,,
,5f740f60b8a1e41acc020269,001,2022-04-28_20h21.50.822,classification_task,2021.2.3,Win32,59.90893841,5f740f60b8a1e41acc020269,626b377229c10585ec392f89,626b3a83526d4a31057ffb83,,,,,,,,,,,,,,,,,,,,,,,l,1,0.5096,"[""0.095"",""0.270"",""0.563"",""0.644""]","[1,1,1,0]",0,30,30,30,1,1,1,,,0,FALSE,,,,,,,,,,,,,,,,,,,,,,,,,,,,,,
,5f740f60b8a1e41acc020269,001,2022-04-28_20h21.50.822,classification_task,2021.2.3,Win32,59.90893841,5f740f60b8a1e41acc020269,626b377229c10585ec392f89,626b3a83526d4a31057ffb83,,,,,,,,,,,,,,,,,,,,,,,a,0,0.8123,"[""0.129"",""0.316"",""0.048"",""0.694""]","[1,1,0,1]",0,31,31,31,1,1,0,,,0,FALSE,,,,,,,,,,,,,,,,,,,,,,,,,,,,,,
,5f740f60b8a1e41acc020269,001,2022-04-28_20h21.50.822,classification_task,2021.2.3,Win32,59.90893841,5f740f60b8a1e41acc020269,626b377229c10585ec392f89,626b3a83526d4a31057ffb83,,,,,,,,,,,,,,,,,,,,,,,a,1,1.0242,"[""0.163"",""0.425"",""0.923"",""0.800""]","[1,1,1,0]",0,32,32,32,1,0,1,,,0,FALSE,,,,,,,,,,,,,,,,,,,,,,,,,,,,,,
,5f740f60b8a1e41acc020269,001,2022-04-28_20h21.50.822,classification_task,2021.2.3,Win32,59.90893841,5f740f60b8a1e41acc020269,626b377229c10585ec392f89,626b3a83526d4a31057ffb83,,,,,,,,,,,,,,,,,,,,,,,l,0,0.7212,"[""0.163"",""0.647"",""0.923"",""0.972""]","[1,0,1,1]",0,33,33,33,1,0,1,,,0,FALSE,,,,,,,,,,,,,,,,,,,,,,,,,,,,,,
,5f740f60b8a1e41acc020269,001,2022-04-28_20h21.50.822,classification_task,2021.2.3,Win32,59.90893841,5f740f60b8a1e41acc020269,626b377229c10585ec392f89,626b3a83526d4a31057ffb83,,,,,,,,,,,,,,,,,,,,,,,a,0,0.8183,"[""0.095"",""0.270"",""0.647"",""0.754""]","[1,1,0,1]",0,34,34,34,1,1,1,,,0,FALSE,,,,,,,,,,,,,,,,,,,,,,,,,,,,,,
,5f740f60b8a1e41acc020269,001,2022-04-28_20h21.50.822,classification_task,2021.2.3,Win32,59.90893841,5f740f60b8a1e41acc020269,626b377229c10585ec392f89,626b3a83526d4a31057ffb83,,,,,,,,,,,,,,,,,,,,,,,l,1,0.8061,"[""0.129"",""0.316"",""0.055"",""0.694""]","[1,1,0,1]",0,35,35,35,1,1,0,,,0,FALSE,,,,,,,,,,,,,,,,,,,,,,,,,,,,,,
,5f740f60b8a1e41acc020269,001,2022-04-28_20h21.50.822,classification_task,2021.2.3,Win32,59.90893841,5f740f60b8a1e41acc020269,626b377229c10585ec392f89,626b3a83526d4a31057ffb83,,,,,,,,,,,,,,,,,,,,,,,l,0,0.9282,"[""0.163"",""0.425"",""0.644"",""0.972""]","[1,1,0,1]",0,36,36,36,1,0,1,,,0,FALSE,,,,,,,,,,,,,,,,,,,,,,,,,,,,,,
,5f740f60b8a1e41acc020269,001,2022-04-28_20h21.50.822,classification_task,2021.2.3,Win32,59.90893841,5f740f60b8a1e41acc020269,626b377229c10585ec392f89,626b3a83526d4a31057ffb83,,,,,,,,,,,,,,,,,,,,,,,a,0,0.6011,"[""0.032"",""0.316"",""0.607"",""0.694""]","[0,1,1,1]",0,37,37,37,1,1,0,,,0,FALSE,,,,,,,,,,,,,,,,,,,,,,,,,,,,,,
,5f740f60b8a1e41acc020269,001,2022-04-28_20h21.50.822,classification_task,2021.2.3,Win32,59.90893841,5f740f60b8a1e41acc020269,626b377229c10585ec392f89,626b3a83526d4a31057ffb83,,,,,,,,,,,,,,,,,,,,,,,l,1,1.2379,"[""0.648"",""0.270"",""0.563"",""0.754""]","[0,1,1,1]",0,38,38,38,1,1,1,,,0,FALSE,,,,,,,,,,,,,,,,,,,,,,,,,,,,,,
,5f740f60b8a1e41acc020269,001,2022-04-28_20h21.50.822,classification_task,2021.2.3,Win32,59.90893841,5f740f60b8a1e41acc020269,626b377229c10585ec392f89,626b3a83526d4a31057ffb83,,,,,,,,,,,,,,,,,,,,,,,a,0,0.6008,"[""0.095"",""0.270"",""0.563"",""0.800""]","[1,1,1,0]",0,39,39,39,1,1,1,,,0,FALSE,,,,,,,,,,,,,,,,,,,,,,,,,,,,,,
,5f740f60b8a1e41acc020269,001,2022-04-28_20h21.50.822,classification_task,2021.2.3,Win32,59.90893841,5f740f60b8a1e41acc020269,626b377229c10585ec392f89,626b3a83526d4a31057ffb83,,,,,,,,,,,,,,,,,,,,,,,a,1,1.1303,"[""0.235"",""0.049"",""0.846"",""0.882""]","[1,0,1,1]",0,40,40,40,1,0,0,,,0,FALSE,,,,,,,,,,,,,,,,,,,,,,,,,,,,,,
,5f740f60b8a1e41acc020269,001,2022-04-28_20h21.50.822,classification_task,2021.2.3,Win32,59.90893841,5f740f60b8a1e41acc020269,626b377229c10585ec392f89,626b3a83526d4a31057ffb83,,,,,,,,,,,,,,,,,,,,,,,a,0,0.9299,"[""0.129"",""0.316"",""0.607"",""0.503""]","[1,1,1,0]",0,41,41,41,1,1,0,,,0,FALSE,,,,,,,,,,,,,,,,,,,,,,,,,,,,,,
,5f740f60b8a1e41acc020269,001,2022-04-28_20h21.50.822,classification_task,2021.2.3,Win32,59.90893841,5f740f60b8a1e41acc020269,626b377229c10585ec392f89,626b3a83526d4a31057ffb83,,,,,,,,,,,,,,,,,,,,,,,l,1,0.8145,"[""0.095"",""0.647"",""0.563"",""0.754""]","[1,0,1,1]",0,42,42,42,1,1,1,,,0,FALSE,,,,,,,,,,,,,,,,,,,,,,,,,,,,,,
,5f740f60b8a1e41acc020269,001,2022-04-28_20h21.50.822,classification_task,2021.2.3,Win32,59.90893841,5f740f60b8a1e41acc020269,626b377229c10585ec392f89,626b3a83526d4a31057ffb83,,,,,,,,,,,,,,,,,,,,,,,a,1,0.7231,"[""0.235"",""0.382"",""0.846"",""0.055""]","[1,1,1,0]",0,43,43,43,1,0,0,,,0,FALSE,,,,,,,,,,,,,,,,,,,,,,,,,,,,,,
,5f740f60b8a1e41acc020269,001,2022-04-28_20h21.50.822,classification_task,2021.2.3,Win32,59.90893841,5f740f60b8a1e41acc020269,626b377229c10585ec392f89,626b3a83526d4a31057ffb83,,,,,,,,,,,,,,,,,,,,,,,l,0,0.7141,"[""0.032"",""0.425"",""0.923"",""0.972""]","[0,1,1,1]",0,44,44,44,1,0,1,,,0,FALSE,,,,,,,,,,,,,,,,,,,,,,,,,,,,,,
,5f740f60b8a1e41acc020269,001,2022-04-28_20h21.50.822,classification_task,2021.2.3,Win32,59.90893841,5f740f60b8a1e41acc020269,626b377229c10585ec392f89,626b3a83526d4a31057ffb83,,,,,,,,,,,,,,,,,,,,,,,l,0,1.0071,"[""0.235"",""0.382"",""0.644"",""0.882""]","[1,1,0,1]",0,45,45,45,1,0,0,,,0,FALSE,,,,,,,,,,,,,,,,,,,,,,,,,,,,,,
,5f740f60b8a1e41acc020269,001,2022-04-28_20h21.50.822,classification_task,2021.2.3,Win32,59.90893841,5f740f60b8a1e41acc020269,626b377229c10585ec392f89,626b3a83526d4a31057ffb83,,,,,,,,,,,,,,,,,,,,,,,l,1,0.9122,"[""0.129"",""0.799"",""0.607"",""0.694""]","[1,0,1,1]",0,46,46,46,1,1,0,,,0,FALSE,,,,,,,,,,,,,,,,,,,,,,,,,,,,,,
,5f740f60b8a1e41acc020269,001,2022-04-28_20h21.50.822,classification_task,2021.2.3,Win32,59.90893841,5f740f60b8a1e41acc020269,626b377229c10585ec392f89,626b3a83526d4a31057ffb83,,,,,,,,,,,,,,,,,,,,,,,a,1,0.8023,"[""0.049"",""0.382"",""0.846"",""0.882""]","[0,1,1,1]",0,47,47,47,1,0,0,,,0,FALSE,,,,,,,,,,,,,,,,,,,,,,,,,,,,,,
,5f740f60b8a1e41acc020269,001,2022-04-28_20h21.50.822,classification_task,2021.2.3,Win32,59.90893841,5f740f60b8a1e41acc020269,626b377229c10585ec392f89,626b3a83526d4a31057ffb83,,,,,,,,,,,,,,,,,,,,,,,a,0,0.7111,"[""0.095"",""0.270"",""0.033"",""0.754""]","[1,1,0,1]",0,48,48,48,1,1,1,,,0,FALSE,,,,,,,,,,,,,,,,,,,,,,,,,,,,,,
,5f740f60b8a1e41acc020269,001,2022-04-28_20h21.50.822,classification_task,2021.2.3,Win32,59.90893841,5f740f60b8a1e41acc020269,626b377229c10585ec392f89,626b3a83526d4a31057ffb83,,,,,,,,,,,,,,,,,,,,,,,a,0,0.6071,"[""0.095"",""0.270"",""0.563"",""0.033""]","[1,1,1,0]",0,49,49,49,1,1,1,,,0,FALSE,,,,,,,,,,,,,,,,,,,,,,,,,,,,,,
,5f740f60b8a1e41acc020269,001,2022-04-28_20h21.50.822,classification_task,2021.2.3,Win32,59.90893841,5f740f60b8a1e41acc020269,626b377229c10585ec392f89,626b3a83526d4a31057ffb83,,,,,,,,,,,,,,,,,,,,,,,l,1,1.1141,"[""0.049"",""0.316"",""0.607"",""0.694""]","[0,1,1,1]",0,50,50,50,1,1,0,,,0,FALSE,,,,,,,,,,,,,,,,,,,,,,,,,,,,,,
,5f740f60b8a1e41acc020269,001,2022-04-28_20h21.50.822,classification_task,2021.2.3,Win32,59.90893841,5f740f60b8a1e41acc020269,626b377229c10585ec392f89,626b3a83526d4a31057ffb83,,,,,,,,,,,,,,,,,,,,,,,l,1,0.8418,"[""0.129"",""0.518"",""0.607"",""0.694""]","[1,0,1,1]",0,51,51,51,1,1,0,,,0,FALSE,,,,,,,,,,,,,,,,,,,,,,,,,,,,,,
,5f740f60b8a1e41acc020269,001,2022-04-28_20h21.50.822,classification_task,2021.2.3,Win32,59.90893841,5f740f60b8a1e41acc020269,626b377229c10585ec392f89,626b3a83526d4a31057ffb83,,,,,,,,,,,,,,,,,,,,,,,a,0,0.5933,"[""0.129"",""0.316"",""0.049"",""0.694""]","[1,1,0,1]",0,52,52,52,1,1,0,,,0,FALSE,,,,,,,,,,,,,,,,,,,,,,,,,,,,,,
,5f740f60b8a1e41acc020269,001,2022-04-28_20h21.50.822,classification_task,2021.2.3,Win32,59.90893841,5f740f60b8a1e41acc020269,626b377229c10585ec392f89,626b3a83526d4a31057ffb83,,,,,,,,,,,,,,,,,,,,,,,l,1,0.5007,"[""0.095"",""0.503"",""0.563"",""0.754""]","[1,0,1,1]",0,53,53,53,1,1,1,,,0,FALSE,,,,,,,,,,,,,,,,,,,,,,,,,,,,,,
,5f740f60b8a1e41acc020269,001,2022-04-28_20h21.50.822,classification_task,2021.2.3,Win32,59.90893841,5f740f60b8a1e41acc020269,626b377229c10585ec392f89,626b3a83526d4a31057ffb83,,,,,,,,,,,,,,,,,,,,,,,a,1,0.6143,"[""0.235"",""0.382"",""0.048"",""0.882""]","[1,1,0,1]",0,54,54,54,1,0,0,,,0,FALSE,,,,,,,,,,,,,,,,,,,,,,,,,,,,,,
,5f740f60b8a1e41acc020269,001,2022-04-28_20h21.50.822,classification_task,2021.2.3,Win32,59.90893841,5f740f60b8a1e41acc020269,626b377229c10585ec392f89,626b3a83526d4a31057ffb83,,,,,,,,,,,,,,,,,,,,,,,a,1,0.6014,"[""0.163"",""0.425"",""0.923"",""0.049""]","[1,1,1,0]",0,55,55,55,1,0,1,,,0,FALSE,,,,,,,,,,,,,,,,,,,,,,,,,,,,,,
,5f740f60b8a1e41acc020269,001,2022-04-28_20h21.50.822,classification_task,2021.2.3,Win32,59.90893841,5f740f60b8a1e41acc020269,626b377229c10585ec392f89,626b3a83526d4a31057ffb83,,,,,,,,,,,,,,,,,,,,,,,l,0,0.8288,"[""0.235"",""0.648"",""0.846"",""0.882""]","[1,0,1,1]",0,56,56,56,1,0,0,,,0,FALSE,,,,,,,,,,,,,,,,,,,,,,,,,,,,,,
,5f740f60b8a1e41acc020269,001,2022-04-28_20h21.50.822,classification_task,2021.2.3,Win32,59.90893841,5f740f60b8a1e41acc020269,626b377229c10585ec392f89,626b3a83526d4a31057ffb83,,,,,,,,,,,,,,,,,,,,,,,l,0,0.7093,"[""0.790"",""0.425"",""0.923"",""0.972""]","[0,1,1,1]",0,57,57,57,1,0,1,,,0,FALSE,,,,,,,,,,,,,,,,,,,,,,,,,,,,,,
,5f740f60b8a1e41acc020269,001,2022-04-28_20h21.50.822,classification_task,2021.2.3,Win32,59.90893841,5f740f60b8a1e41acc020269,626b377229c10585ec392f89,626b3a83526d4a31057ffb83,,,,,,,,,,,,,,,,,,,,,,,a,0,0.5215,"[""0.048"",""0.270"",""0.563"",""0.754""]","[0,1,1,1]",0,58,58,58,1,1,1,,,0,FALSE,,,,,,,,,,,,,,,,,,,,,,,,,,,,,,
,5f740f60b8a1e41acc020269,001,2022-04-28_20h21.50.822,classification_task,2021.2.3,Win32,59.90893841,5f740f60b8a1e41acc020269,626b377229c10585ec392f89,626b3a83526d4a31057ffb83,,,,,,,,,,,,,,,,,,,,,,,l,0,1.1118,"[""0.048"",""0.382"",""0.846"",""0.882""]","[0,1,1,1]",0,59,59,59,1,0,0,,,0,FALSE,,,,,,,,,,,,,,,,,,,,,,,,,,,,,,
,5f740f60b8a1e41acc020269,001,2022-04-28_20h21.50.822,classification_task,2021.2.3,Win32,59.90893841,5f740f60b8a1e41acc020269,626b377229c10585ec392f89,626b3a83526d4a31057ffb83,,,,,,,,,,,,,,,,,,,,,,,l,1,1.0215,"[""0.129"",""0.316"",""0.607"",""0.648""]","[1,1,1,0]",0,60,60,60,1,1,0,,,0,FALSE,,,,,,,,,,,,,,,,,,,,,,,,,,,,,,
,5f740f60b8a1e41acc020269,001,2022-04-28_20h21.50.822,classification_task,2021.2.3,Win32,59.90893841,5f740f60b8a1e41acc020269,626b377229c10585ec392f89,626b3a83526d4a31057ffb83,,,,,,,,,,,,,,,,,,,,,,,a,1,1.1277,"[""0.163"",""0.425"",""0.790"",""0.972""]","[1,1,0,1]",0,61,61,61,1,0,1,,,0,FALSE,,,,,,,,,,,,,,,,,,,,,,,,,,,,,,
,5f740f60b8a1e41acc020269,001,2022-04-28_20h21.50.822,classification_task,2021.2.3,Win32,59.90893841,5f740f60b8a1e41acc020269,626b377229c10585ec392f89,626b3a83526d4a31057ffb83,,,,,,,,,,,,,,,,,,,,,,,a,1,0.9277,"[""0.163"",""0.799"",""0.923"",""0.972""]","[1,0,1,1]",0,62,62,62,1,0,1,,,0,FALSE,,,,,,,,,,,,,,,,,,,,,,,,,,,,,,
,5f740f60b8a1e41acc020269,001,2022-04-28_20h21.50.822,classification_task,2021.2.3,Win32,59.90893841,5f740f60b8a1e41acc020269,626b377229c10585ec392f89,626b3a83526d4a31057ffb83,,,,,,,,,,,,,,,,,,,,,,,l,0,1.0088,"[""0.235"",""0.382"",""0.846"",""0.799""]","[1,1,1,0]",0,63,63,63,1,0,0,,,0,FALSE,,,,,,,,,,,,,,,,,,,,,,,,,,,,,,
,5f740f60b8a1e41acc020269,001,2022-04-28_20h21.50.822,classification_task,2021.2.3,Win32,59.90893841,5f740f60b8a1e41acc020269,626b377229c10585ec392f89,626b3a83526d4a31057ffb83,,,,,,,,,,,,,,,,,,,,,,,,,,,,,,,,,,,,,,,0, ,,0,7.893518519,151.3528,0,2,2,2,1,2,3,,,,,,,,,,,,,,,,,
,5f740f60b8a1e41acc020269,001,2022-04-28_20h21.50.822,classification_task,2021.2.3,Win32,59.90893841,5f740f60b8a1e41acc020269,626b377229c10585ec392f89,626b3a83526d4a31057ffb83,,,,,,,,,,,,,,,,,,,,,,,,,,,,,,,,,,,,,,,1,  ,,0,9.236937831,154.6888,0,2,2,2,1,2,3,,,,,,,,,,,,,,,,,
,5f740f60b8a1e41acc020269,001,2022-04-28_20h21.50.822,classification_task,2021.2.3,Win32,59.90893841,5f740f60b8a1e41acc020269,626b377229c10585ec392f89,626b3a83526d4a31057ffb83,,,,,,,,,,,,,,,,,,,,,,,,,,,,,,,,,,,,,,,2,  ,,0,0,161.4472,0,2,2,2,1,2,3,,,,,,,,,,,,,,,,,
,5f740f60b8a1e41acc020269,001,2022-04-28_20h21.50.822,classification_task,2021.2.3,Win32,59.90893841,5f740f60b8a1e41acc020269,626b377229c10585ec392f89,626b3a83526d4a31057ffb83,,,,,,,,,,,,,,,,,,,,,,,,,,,,,,,,,,,,,,,,,,,,,0,2,2,2,1,,3,,,,,,,,,,,,,,,,,
,5f740f60b8a1e41acc020269,001,2022-04-28_20h21.50.822,classification_task,2021.2.3,Win32,59.90893841,5f740f60b8a1e41acc020269,626b377229c10585ec392f89,626b3a83526d4a31057ffb83,,,,,,,,,,,,,,,,,,,,,,,,,,,,,,,,,,,,,,,,,,,,,,,,,,,,,I believe the aid is a competent performer,,0.7,0,5,1004.6486,0,0,0,0,1,0,,,,
,5f740f60b8a1e41acc020269,001,2022-04-28_20h21.50.822,classification_task,2021.2.3,Win32,59.90893841,5f740f60b8a1e41acc020269,626b377229c10585ec392f89,626b3a83526d4a31057ffb83,,,,,,,,,,,,,,,,,,,,,,,,,,,,,,,,,,,,,,,,,,,,,,,,,,,,,I trust the aid,,0.7,0,5,1006.2319,0,0,0,0,1,0,,,,
,5f740f60b8a1e41acc020269,001,2022-04-28_20h21.50.822,classification_task,2021.2.3,Win32,59.90893841,5f740f60b8a1e41acc020269,626b377229c10585ec392f89,626b3a83526d4a31057ffb83,,,,,,,,,,,,,,,,,,,,,,,,,,,,,,,,,,,,,,,,,,,,,,,,,,,,,I have confidence in the advice given by the aid,,0.7,0,5,1008.717,0,0,0,0,1,0,,,,
,5f740f60b8a1e41acc020269,001,2022-04-28_20h21.50.822,classification_task,2021.2.3,Win32,59.90893841,5f740f60b8a1e41acc020269,626b377229c10585ec392f89,626b3a83526d4a31057ffb83,,,,,,,,,,,,,,,,,,,,,,,,,,,,,,,,,,,,,,,,,,,,,,,,,,,,,I can depend on the aid,,0.7,0,5,1010.4864,0,0,0,0,1,0,,,,
,5f740f60b8a1e41acc020269,001,2022-04-28_20h21.50.822,classification_task,2021.2.3,Win32,59.90893841,5f740f60b8a1e41acc020269,626b377229c10585ec392f89,626b3a83526d4a31057ffb83,,,,,,,,,,,,,,,,,,,,,,,,,,,,,,,,,,,,,,,,,,,,,,,,,,,,,I can rely on the aid to behave in consistent ways,,0.7,0,5,1014.5653,0,0,0,0,1,0,,,,
,5f740f60b8a1e41acc020269,001,2022-04-28_20h21.50.822,classification_task,2021.2.3,Win32,59.90893841,5f740f60b8a1e41acc020269,626b377229c10585ec392f89,626b3a83526d4a31057ffb83,,,,,,,,,,,,,,,,,,,,,,,,,,,,,,,,,,,,,,,,,,,,,,,,,,,,,I can rely on the aid to do its best every time I take its advice,,0.7,0,5,1020.5305,0,0,0,0,1,0,,,,
,5f740f60b8a1e41acc020269,001,2022-04-28_20h21.50.822,classification_task,2021.2.3,Win32,59.90893841,5f740f60b8a1e41acc020269,626b377229c10585ec392f89,626b3a83526d4a31057ffb83,,,,,,,,,,,,,,,,,,,,,,,,,,,,,,,,,,,,,,,,,,,,,,,,,,,,,"On trials you completed with assistance from the aid, how frequently did you think the aid was correct?",,0.7,0,100%,,0,0,0,0,1,0,,,,
,5f740f60b8a1e41acc020269,001,2022-04-28_20h21.50.822,classification_task,2021.2.3,Win32,59.90893841,5f740f60b8a1e41acc020269,626b377229c10585ec392f89,626b3a83526d4a31057ffb83,,,,,,,,,,,,,,,,,,,,,,,,,,,,,,,,,,,,,,,,,,,,,,,,,,,,,"On trials you completed without the aid, how frequently did you think you were correct?",,0.7,0,70%,,0,0,0,0,1,0,,,,
,5f740f60b8a1e41acc020269,001,2022-04-28_20h21.50.822,classification_task,2021.2.3,Win32,59.90893841,5f740f60b8a1e41acc020269,626b377229c10585ec392f89,626b3a83526d4a31057ffb83,,,,,,,,,,,,,,,,,,,,,,,,,,,,,,,,,,,,,,,,,,,,,,,,,,,,,,,,,,,0,0,0,0,1,,,,,
,5f740f60b8a1e41acc020269,001,2022-04-28_20h21.50.822,classification_task,2021.2.3,Win32,59.90893841,5f740f60b8a1e41acc020269,626b377229c10585ec392f89,626b3a83526d4a31057ffb83,,,,,,,,,,,,,,,,,,,,,,,,,,,,,,,,,,,,,,,,,,,,,,,,,,,,,,,,,,,,,,,,,space,26.0751,1067.5644,
,5f740f60b8a1e41acc020269,001,2022-04-28_20h21.50.822,classification_task,2021.2.3,Win32,59.90893841,5f740f60b8a1e41acc020269,626b377229c10585ec392f89,626b3a83526d4a31057ffb83,,,,,,,,,,,,,,,,,,,,,,,,,,,,,,,,,,,,,,,,,,,,,,,,,,,,,,,,,,,,,,,,,,,,"Mozilla/5.0 (Windows NT 6.1; Win64; x64) AppleWebKit/537.36 (KHTML, like Gecko) Chrome/100.0.4896.88 Safari/537.36"
