usingWebGL,participant,session,date,expName,psychopyVersion,OS,frameRate,PROLIFIC_PID,STUDY_ID,SESSION_ID,signatures_friend,signatures_foe,band_ranges_top,band_ranges_bottom,formitemText,formtype,formundefined,formitemWidth,formindex,formresponse,formrt,key_resp_2.keys,key_resp_2.rt,tute_resp.keys,tute_resp.rt,tutorial.thisRepN,tutorial.thisTrialN,tutorial.thisN,tutorial.thisIndex,tutorial.ran,key_resp_4.keys,key_resp_4.rt,key_resp.keys,key_resp.corr,lines_presented,is_signal_presented,trials.thisRepN,trials.thisTrialN,trials.thisN,trials.thisIndex,trials.ran,vessel,active_band,lines,is_signal,supported_pos,catch_trial,key_resp.rt,debrief_formindex,debrief_formitemText,debrief_formtype,debrief_formitemWidth,debrief_formresponse,debrief_formrt,phases.thisRepN,phases.thisTrialN,phases.thisN,phases.thisIndex,phases.ran,phases.order,phase,key_resp_3.keys,trustitemText,trusttype,trustitemWidth,trustindex,trustresponse,trustrt,support_status.thisRepN,support_status.thisTrialN,support_status.thisN,support_status.thisIndex,support_status.ran,support_status.order,key_resp_5.keys,key_resp_5.rt,globalClockTime,userAgent
TRUE,5f7bdb159226d61cae55f330,001,2022-04-28_18h08.23.994,classification_task,2021.2.3,Win32,60.00960154,5f7bdb159226d61cae55f330,626b377229c10585ec392f8a,626b384415dee1dfbb7b19e2,,,,,,,,,,,,,,,,,,,,,,,,,,,,,,,,,,,,,,,,,,,,,,,,,,,,,,,,,,,,,,,,,,,,
,5f7bdb159226d61cae55f330,001,2022-04-28_18h08.23.994,classification_task,2021.2.3,Win32,60.00960154,5f7bdb159226d61cae55f330,626b377229c10585ec392f8a,626b384415dee1dfbb7b19e2,"[[""0.261"",""0.507"",""0.706"",""0.953""],[""0.227"",""0.464"",""0.869"",""0.904""]]","[[""0.048"",""0.397"",""0.656"",""0.779""],[""0.085"",""0.177"",""0.561"",""0.820""]]","[1,10]","[100,1000]",Video game experience,,,0.7,0,,,,,,,,,,,,,,,,,,,,,,,,,,,,,,,,,,,,,,,,,,,,,,,,,,,,,,,,,,,
,5f7bdb159226d61cae55f330,001,2022-04-28_18h08.23.994,classification_task,2021.2.3,Win32,60.00960154,5f7bdb159226d61cae55f330,626b377229c10585ec392f8a,626b384415dee1dfbb7b19e2,,,,,Approximately how many hours did you spend playing video games in the last week?,,,0.7,0,9,,,,,,,,,,,,,,,,,,,,,,,,,,,,,,,,,,,,,,,,,,,,,,,,,,,,,,,,,,
,5f7bdb159226d61cae55f330,001,2022-04-28_18h08.23.994,classification_task,2021.2.3,Win32,60.00960154,5f7bdb159226d61cae55f330,626b377229c10585ec392f8a,626b384415dee1dfbb7b19e2,,,,,"Which game did you play the most this year? (Enter ""None"" if you didn't play any)",,,0.7,0,Genshin Impact ,,,,,,,,,,,,,,,,,,,,,,,,,,,,,,,,,,,,,,,,,,,,,,,,,,,,,,,,,,
,5f7bdb159226d61cae55f330,001,2022-04-28_18h08.23.994,classification_task,2021.2.3,Win32,60.00960154,5f7bdb159226d61cae55f330,626b377229c10585ec392f8a,626b384415dee1dfbb7b19e2,,,,,Visual perception,,,0.7,0,,,,,,,,,,,,,,,,,,,,,,,,,,,,,,,,,,,,,,,,,,,,,,,,,,,,,,,,,,,
,5f7bdb159226d61cae55f330,001,2022-04-28_18h08.23.994,classification_task,2021.2.3,Win32,60.00960154,5f7bdb159226d61cae55f330,626b377229c10585ec392f8a,626b384415dee1dfbb7b19e2,,,,,Do you have any form of color blindness?,,,0.7,0,No,146.1262,,,,,,,,,,,,,,,,,,,,,,,,,,,,,,,,,,,,,,,,,,,,,,,,,,,,,,,,,
,5f7bdb159226d61cae55f330,001,2022-04-28_18h08.23.994,classification_task,2021.2.3,Win32,60.00960154,5f7bdb159226d61cae55f330,626b377229c10585ec392f8a,626b384415dee1dfbb7b19e2,,,,,Do you use software to change the colour temperature of your screen (e.g. f.lux)?,,,0.7,0,No,148.4773,,,,,,,,,,,,,,,,,,,,,,,,,,,,,,,,,,,,,,,,,,,,,,,,,,,,,,,,,
,5f7bdb159226d61cae55f330,001,2022-04-28_18h08.23.994,classification_task,2021.2.3,Win32,60.00960154,5f7bdb159226d61cae55f330,626b377229c10585ec392f8a,626b384415dee1dfbb7b19e2,,,,,,,,,,,,space,35.7527,space,4.6099,0,0,0,0,1,,,,,,,,,,,,,,,,,,,,,,,,,,,,,,,,,,,,,,,,,,,,,,,,
,5f7bdb159226d61cae55f330,001,2022-04-28_18h08.23.994,classification_task,2021.2.3,Win32,60.00960154,5f7bdb159226d61cae55f330,626b377229c10585ec392f8a,626b384415dee1dfbb7b19e2,,,,,,,,,,,,,,space,3.8308,1,0,1,0,1,,,,,,,,,,,,,,,,,,,,,,,,,,,,,,,,,,,,,,,,,,,,,,,,
,5f7bdb159226d61cae55f330,001,2022-04-28_18h08.23.994,classification_task,2021.2.3,Win32,60.00960154,5f7bdb159226d61cae55f330,626b377229c10585ec392f8a,626b384415dee1dfbb7b19e2,,,,,,,,,,,,,,space,25.38,2,0,2,0,1,,,,,,,,,,,,,,,,,,,,,,,,,,,,,,,,,,,,,,,,,,,,,,,,
,5f7bdb159226d61cae55f330,001,2022-04-28_18h08.23.994,classification_task,2021.2.3,Win32,60.00960154,5f7bdb159226d61cae55f330,626b377229c10585ec392f8a,626b384415dee1dfbb7b19e2,,,,,,,,,,,,,,space,4.2035,3,0,3,0,1,,,,,,,,,,,,,,,,,,,,,,,,,,,,,,,,,,,,,,,,,,,,,,,,
,5f7bdb159226d61cae55f330,001,2022-04-28_18h08.23.994,classification_task,2021.2.3,Win32,60.00960154,5f7bdb159226d61cae55f330,626b377229c10585ec392f8a,626b384415dee1dfbb7b19e2,,,,,,,,,,,,,,space,6.3743,4,0,4,0,1,,,,,,,,,,,,,,,,,,,,,,,,,,,,,,,,,,,,,,,,,,,,,,,,
,5f7bdb159226d61cae55f330,001,2022-04-28_18h08.23.994,classification_task,2021.2.3,Win32,60.00960154,5f7bdb159226d61cae55f330,626b377229c10585ec392f8a,626b384415dee1dfbb7b19e2,,,,,,,,,,,,,,,,,,,,,space,5.6332,,0,"[""0.304"",""0.464"",""0.869"",""0.904""]","[0,1,1,1]",0,0,0,0,1,0,1,,,0,FALSE,,,,,,,,,,,,,,,,,,,,,,,,,,,,,,,
,5f7bdb159226d61cae55f330,001,2022-04-28_18h08.23.994,classification_task,2021.2.3,Win32,60.00960154,5f7bdb159226d61cae55f330,626b377229c10585ec392f8a,626b384415dee1dfbb7b19e2,,,,,,,,,,,,,,,,,,,,,,,a,1,"[""0.227"",""0.464"",""0.124"",""0.904""]","[1,1,0,1]",0,1,1,1,1,0,1,,,0,FALSE,3.6133,,,,,,,,,,,,,,,,,,,,,,,,,,,,,,
,5f7bdb159226d61cae55f330,001,2022-04-28_18h08.23.994,classification_task,2021.2.3,Win32,60.00960154,5f7bdb159226d61cae55f330,626b377229c10585ec392f8a,626b384415dee1dfbb7b19e2,,,,,,,,,,,,,,,,,,,,,,,a,1,"[""0.227"",""0.126"",""0.869"",""0.904""]","[1,0,1,1]",0,2,2,2,1,0,1,,,0,FALSE,2.7704,,,,,,,,,,,,,,,,,,,,,,,,,,,,,,
,5f7bdb159226d61cae55f330,001,2022-04-28_18h08.23.994,classification_task,2021.2.3,Win32,60.00960154,5f7bdb159226d61cae55f330,626b377229c10585ec392f8a,626b384415dee1dfbb7b19e2,,,,,,,,,,,,,,,,,,,,,,,l,1,"[""0.622"",""0.397"",""0.656"",""0.779""]","[0,1,1,1]",0,3,3,3,1,1,0,,,0,FALSE,5.7285,,,,,,,,,,,,,,,,,,,,,,,,,,,,,,
,5f7bdb159226d61cae55f330,001,2022-04-28_18h08.23.994,classification_task,2021.2.3,Win32,60.00960154,5f7bdb159226d61cae55f330,626b377229c10585ec392f8a,626b384415dee1dfbb7b19e2,,,,,,,,,,,,,,,,,,,,,,,l,1,"[""0.085"",""0.177"",""0.305"",""0.820""]","[1,1,0,1]",0,4,4,4,1,1,1,,,0,FALSE,7.1939,,,,,,,,,,,,,,,,,,,,,,,,,,,,,,
,5f7bdb159226d61cae55f330,001,2022-04-28_18h08.23.994,classification_task,2021.2.3,Win32,60.00960154,5f7bdb159226d61cae55f330,626b377229c10585ec392f8a,626b384415dee1dfbb7b19e2,,,,,,,,,,,,,,,,,,,,,,,l,1,"[""0.048"",""0.397"",""0.656"",""0.121""]","[1,1,1,0]",0,5,5,5,1,1,0,,,0,FALSE,6.9446,,,,,,,,,,,,,,,,,,,,,,,,,,,,,,
,5f7bdb159226d61cae55f330,001,2022-04-28_18h08.23.994,classification_task,2021.2.3,Win32,60.00960154,5f7bdb159226d61cae55f330,626b377229c10585ec392f8a,626b384415dee1dfbb7b19e2,,,,,,,,,,,,,,,,,,,,,,,l,1,"[""0.085"",""0.177"",""0.561"",""0.315""]","[1,1,1,0]",0,6,6,6,1,1,1,,,0,FALSE,7.4021,,,,,,,,,,,,,,,,,,,,,,,,,,,,,,
,5f7bdb159226d61cae55f330,001,2022-04-28_18h08.23.994,classification_task,2021.2.3,Win32,60.00960154,5f7bdb159226d61cae55f330,626b377229c10585ec392f8a,626b384415dee1dfbb7b19e2,,,,,,,,,,,,,,,,,,,,,,,a,1,"[""0.227"",""0.464"",""0.869"",""0.344""]","[1,1,1,0]",0,7,7,7,1,0,1,,,0,FALSE,3.7865,,,,,,,,,,,,,,,,,,,,,,,,,,,,,,
,5f7bdb159226d61cae55f330,001,2022-04-28_18h08.23.994,classification_task,2021.2.3,Win32,60.00960154,5f7bdb159226d61cae55f330,626b377229c10585ec392f8a,626b384415dee1dfbb7b19e2,,,,,,,,,,,,,,,,,,,,,,,a,1,"[""0.261"",""0.507"",""0.344"",""0.953""]","[1,1,0,1]",0,8,8,8,1,0,0,,,0,FALSE,5.4046,,,,,,,,,,,,,,,,,,,,,,,,,,,,,,
,5f7bdb159226d61cae55f330,001,2022-04-28_18h08.23.994,classification_task,2021.2.3,Win32,60.00960154,5f7bdb159226d61cae55f330,626b377229c10585ec392f8a,626b384415dee1dfbb7b19e2,,,,,,,,,,,,,,,,,,,,,,,a,1,"[""0.261"",""0.305"",""0.706"",""0.953""]","[1,0,1,1]",0,9,9,9,1,0,0,,,0,FALSE,2.441,,,,,,,,,,,,,,,,,,,,,,,,,,,,,,
,5f7bdb159226d61cae55f330,001,2022-04-28_18h08.23.994,classification_task,2021.2.3,Win32,60.00960154,5f7bdb159226d61cae55f330,626b377229c10585ec392f8a,626b384415dee1dfbb7b19e2,,,,,,,,,,,,,,,,,,,,,,,l,1,"[""0.048"",""0.125"",""0.656"",""0.779""]","[1,0,1,1]",0,10,10,10,1,1,0,,,0,FALSE,4.6105,,,,,,,,,,,,,,,,,,,,,,,,,,,,,,
,5f7bdb159226d61cae55f330,001,2022-04-28_18h08.23.994,classification_task,2021.2.3,Win32,60.00960154,5f7bdb159226d61cae55f330,626b377229c10585ec392f8a,626b384415dee1dfbb7b19e2,,,,,,,,,,,,,,,,,,,,,,,l,1,"[""0.085"",""0.304"",""0.561"",""0.820""]","[1,0,1,1]",0,11,11,11,1,1,1,,,0,FALSE,4.9751,,,,,,,,,,,,,,,,,,,,,,,,,,,,,,
,5f7bdb159226d61cae55f330,001,2022-04-28_18h08.23.994,classification_task,2021.2.3,Win32,60.00960154,5f7bdb159226d61cae55f330,626b377229c10585ec392f8a,626b384415dee1dfbb7b19e2,,,,,,,,,,,,,,,,,,,,,,,l,1,"[""0.048"",""0.397"",""0.622"",""0.779""]","[1,1,0,1]",0,12,12,12,1,1,0,,,0,FALSE,3.0837,,,,,,,,,,,,,,,,,,,,,,,,,,,,,,
,5f7bdb159226d61cae55f330,001,2022-04-28_18h08.23.994,classification_task,2021.2.3,Win32,60.00960154,5f7bdb159226d61cae55f330,626b377229c10585ec392f8a,626b384415dee1dfbb7b19e2,,,,,,,,,,,,,,,,,,,,,,,a,1,"[""0.261"",""0.507"",""0.706"",""0.340""]","[1,1,1,0]",0,13,13,13,1,0,0,,,0,FALSE,3.7764,,,,,,,,,,,,,,,,,,,,,,,,,,,,,,
,5f7bdb159226d61cae55f330,001,2022-04-28_18h08.23.994,classification_task,2021.2.3,Win32,60.00960154,5f7bdb159226d61cae55f330,626b377229c10585ec392f8a,626b384415dee1dfbb7b19e2,,,,,,,,,,,,,,,,,,,,,,,a,1,"[""0.742"",""0.507"",""0.706"",""0.953""]","[0,1,1,1]",0,14,14,14,1,0,0,,,0,FALSE,4.3767,,,,,,,,,,,,,,,,,,,,,,,,,,,,,,
,5f7bdb159226d61cae55f330,001,2022-04-28_18h08.23.994,classification_task,2021.2.3,Win32,60.00960154,5f7bdb159226d61cae55f330,626b377229c10585ec392f8a,626b384415dee1dfbb7b19e2,,,,,,,,,,,,,,,,,,,,,,,l,1,"[""0.340"",""0.177"",""0.561"",""0.820""]","[0,1,1,1]",0,15,15,15,1,1,1,,,0,FALSE,7.3126,,,,,,,,,,,,,,,,,,,,,,,,,,,,,,
,5f7bdb159226d61cae55f330,001,2022-04-28_18h08.23.994,classification_task,2021.2.3,Win32,60.00960154,5f7bdb159226d61cae55f330,626b377229c10585ec392f8a,626b384415dee1dfbb7b19e2,,,,,,,,,,,,,,,,,,,,,,,a,1,"[""0.227"",""0.464"",""0.869"",""0.125""]","[1,1,1,0]",0,16,16,16,1,0,1,,,0,FALSE,2.9361,,,,,,,,,,,,,,,,,,,,,,,,,,,,,,
,5f7bdb159226d61cae55f330,001,2022-04-28_18h08.23.994,classification_task,2021.2.3,Win32,60.00960154,5f7bdb159226d61cae55f330,626b377229c10585ec392f8a,626b384415dee1dfbb7b19e2,,,,,,,,,,,,,,,,,,,,,,,,0,"[""0.048"",""0.397"",""0.656"",""0.125""]","[1,1,1,0]",0,17,17,17,1,1,0,,,0,FALSE,,,,,,,,,,,,,,,,,,,,,,,,,,,,,,,
,5f7bdb159226d61cae55f330,001,2022-04-28_18h08.23.994,classification_task,2021.2.3,Win32,60.00960154,5f7bdb159226d61cae55f330,626b377229c10585ec392f8a,626b384415dee1dfbb7b19e2,,,,,,,,,,,,,,,,,,,,,,,l,1,"[""0.085"",""0.177"",""0.121"",""0.820""]","[1,1,0,1]",0,18,18,18,1,1,1,,,0,FALSE,4.8624,,,,,,,,,,,,,,,,,,,,,,,,,,,,,,
,5f7bdb159226d61cae55f330,001,2022-04-28_18h08.23.994,classification_task,2021.2.3,Win32,60.00960154,5f7bdb159226d61cae55f330,626b377229c10585ec392f8a,626b384415dee1dfbb7b19e2,,,,,,,,,,,,,,,,,,,,,,,l,1,"[""0.048"",""0.126"",""0.656"",""0.779""]","[1,0,1,1]",0,19,19,19,1,1,0,,,0,FALSE,3.9068,,,,,,,,,,,,,,,,,,,,,,,,,,,,,,
,5f7bdb159226d61cae55f330,001,2022-04-28_18h08.23.994,classification_task,2021.2.3,Win32,60.00960154,5f7bdb159226d61cae55f330,626b377229c10585ec392f8a,626b384415dee1dfbb7b19e2,,,,,,,,,,,,,,,,,,,,,,,a,1,"[""0.261"",""0.507"",""0.126"",""0.953""]","[1,1,0,1]",0,20,20,20,1,0,0,,,0,FALSE,3.7091,,,,,,,,,,,,,,,,,,,,,,,,,,,,,,
,5f7bdb159226d61cae55f330,001,2022-04-28_18h08.23.994,classification_task,2021.2.3,Win32,60.00960154,5f7bdb159226d61cae55f330,626b377229c10585ec392f8a,626b384415dee1dfbb7b19e2,,,,,,,,,,,,,,,,,,,,,,,l,1,"[""0.085"",""0.126"",""0.561"",""0.820""]","[1,0,1,1]",0,21,21,21,1,1,1,,,0,FALSE,6.5025,,,,,,,,,,,,,,,,,,,,,,,,,,,,,,
,5f7bdb159226d61cae55f330,001,2022-04-28_18h08.23.994,classification_task,2021.2.3,Win32,60.00960154,5f7bdb159226d61cae55f330,626b377229c10585ec392f8a,626b384415dee1dfbb7b19e2,,,,,,,,,,,,,,,,,,,,,,,l,1,"[""0.085"",""0.177"",""0.561"",""0.121""]","[1,1,1,0]",0,22,22,22,1,1,1,,,0,FALSE,3.6649,,,,,,,,,,,,,,,,,,,,,,,,,,,,,,
,5f7bdb159226d61cae55f330,001,2022-04-28_18h08.23.994,classification_task,2021.2.3,Win32,60.00960154,5f7bdb159226d61cae55f330,626b377229c10585ec392f8a,626b384415dee1dfbb7b19e2,,,,,,,,,,,,,,,,,,,,,,,l,1,"[""0.048"",""0.397"",""0.139"",""0.779""]","[1,1,0,1]",0,23,23,23,1,1,0,,,0,FALSE,3.9648,,,,,,,,,,,,,,,,,,,,,,,,,,,,,,
,5f7bdb159226d61cae55f330,001,2022-04-28_18h08.23.994,classification_task,2021.2.3,Win32,60.00960154,5f7bdb159226d61cae55f330,626b377229c10585ec392f8a,626b384415dee1dfbb7b19e2,,,,,,,,,,,,,,,,,,,,,,,a,1,"[""0.227"",""0.464"",""0.304"",""0.904""]","[1,1,0,1]",0,24,24,24,1,0,1,,,0,FALSE,3.002,,,,,,,,,,,,,,,,,,,,,,,,,,,,,,
,5f7bdb159226d61cae55f330,001,2022-04-28_18h08.23.994,classification_task,2021.2.3,Win32,60.00960154,5f7bdb159226d61cae55f330,626b377229c10585ec392f8a,626b384415dee1dfbb7b19e2,,,,,,,,,,,,,,,,,,,,,,,l,1,"[""0.137"",""0.177"",""0.561"",""0.820""]","[0,1,1,1]",0,25,25,25,1,1,1,,,0,FALSE,6.7243,,,,,,,,,,,,,,,,,,,,,,,,,,,,,,
,5f7bdb159226d61cae55f330,001,2022-04-28_18h08.23.994,classification_task,2021.2.3,Win32,60.00960154,5f7bdb159226d61cae55f330,626b377229c10585ec392f8a,626b384415dee1dfbb7b19e2,,,,,,,,,,,,,,,,,,,,,,,a,1,"[""0.124"",""0.507"",""0.706"",""0.953""]","[0,1,1,1]",0,26,26,26,1,0,0,,,0,FALSE,5.7912,,,,,,,,,,,,,,,,,,,,,,,,,,,,,,
,5f7bdb159226d61cae55f330,001,2022-04-28_18h08.23.994,classification_task,2021.2.3,Win32,60.00960154,5f7bdb159226d61cae55f330,626b377229c10585ec392f8a,626b384415dee1dfbb7b19e2,,,,,,,,,,,,,,,,,,,,,,,l,1,"[""0.137"",""0.397"",""0.656"",""0.779""]","[0,1,1,1]",0,27,27,27,1,1,0,,,0,FALSE,8.1996,,,,,,,,,,,,,,,,,,,,,,,,,,,,,,
,5f7bdb159226d61cae55f330,001,2022-04-28_18h08.23.994,classification_task,2021.2.3,Win32,60.00960154,5f7bdb159226d61cae55f330,626b377229c10585ec392f8a,626b384415dee1dfbb7b19e2,,,,,,,,,,,,,,,,,,,,,,,a,1,"[""0.261"",""0.124"",""0.706"",""0.953""]","[1,0,1,1]",0,28,28,28,1,0,0,,,0,FALSE,3.3074,,,,,,,,,,,,,,,,,,,,,,,,,,,,,,
,5f7bdb159226d61cae55f330,001,2022-04-28_18h08.23.994,classification_task,2021.2.3,Win32,60.00960154,5f7bdb159226d61cae55f330,626b377229c10585ec392f8a,626b384415dee1dfbb7b19e2,,,,,,,,,,,,,,,,,,,,,,,a,1,"[""0.344"",""0.464"",""0.869"",""0.904""]","[0,1,1,1]",0,29,29,29,1,0,1,,,0,FALSE,4.209,,,,,,,,,,,,,,,,,,,,,,,,,,,,,,
,5f7bdb159226d61cae55f330,001,2022-04-28_18h08.23.994,classification_task,2021.2.3,Win32,60.00960154,5f7bdb159226d61cae55f330,626b377229c10585ec392f8a,626b384415dee1dfbb7b19e2,,,,,,,,,,,,,,,,,,,,,,,a,1,"[""0.261"",""0.507"",""0.706"",""0.622""]","[1,1,1,0]",0,30,30,30,1,0,0,,,0,FALSE,3.2867,,,,,,,,,,,,,,,,,,,,,,,,,,,,,,
,5f7bdb159226d61cae55f330,001,2022-04-28_18h08.23.994,classification_task,2021.2.3,Win32,60.00960154,5f7bdb159226d61cae55f330,626b377229c10585ec392f8a,626b384415dee1dfbb7b19e2,,,,,,,,,,,,,,,,,,,,,,,a,1,"[""0.227"",""0.121"",""0.869"",""0.904""]","[1,0,1,1]",0,31,31,31,1,0,1,,,0,FALSE,2.058,,,,,,,,,,,,,,,,,,,,,,,,,,,,,,
,5f7bdb159226d61cae55f330,001,2022-04-28_18h08.23.994,classification_task,2021.2.3,Win32,60.00960154,5f7bdb159226d61cae55f330,626b377229c10585ec392f8a,626b384415dee1dfbb7b19e2,,,,,,,,,,,,,,,,,,,,,,,l,0,"[""0.261"",""0.124"",""0.706"",""0.953""]","[1,0,1,1]",0,32,32,32,1,0,0,,,0,FALSE,5.2622,,,,,,,,,,,,,,,,,,,,,,,,,,,,,,
,5f7bdb159226d61cae55f330,001,2022-04-28_18h08.23.994,classification_task,2021.2.3,Win32,60.00960154,5f7bdb159226d61cae55f330,626b377229c10585ec392f8a,626b384415dee1dfbb7b19e2,,,,,,,,,,,,,,,,,,,,,,,a,0,"[""0.085"",""0.177"",""0.561"",""0.125""]","[1,1,1,0]",0,33,33,33,1,1,1,,,0,FALSE,1.5775,,,,,,,,,,,,,,,,,,,,,,,,,,,,,,
,5f7bdb159226d61cae55f330,001,2022-04-28_18h08.23.994,classification_task,2021.2.3,Win32,60.00960154,5f7bdb159226d61cae55f330,626b377229c10585ec392f8a,626b384415dee1dfbb7b19e2,,,,,,,,,,,,,,,,,,,,,,,a,1,"[""0.227"",""0.464"",""0.869"",""0.126""]","[1,1,1,0]",0,34,34,34,1,0,1,,,0,FALSE,0.8776,,,,,,,,,,,,,,,,,,,,,,,,,,,,,,
,5f7bdb159226d61cae55f330,001,2022-04-28_18h08.23.994,classification_task,2021.2.3,Win32,60.00960154,5f7bdb159226d61cae55f330,626b377229c10585ec392f8a,626b384415dee1dfbb7b19e2,,,,,,,,,,,,,,,,,,,,,,,l,0,"[""0.744"",""0.507"",""0.706"",""0.953""]","[0,1,1,1]",0,35,35,35,1,0,0,,,0,FALSE,1.7002,,,,,,,,,,,,,,,,,,,,,,,,,,,,,,
,5f7bdb159226d61cae55f330,001,2022-04-28_18h08.23.994,classification_task,2021.2.3,Win32,60.00960154,5f7bdb159226d61cae55f330,626b377229c10585ec392f8a,626b384415dee1dfbb7b19e2,,,,,,,,,,,,,,,,,,,,,,,a,1,"[""0.261"",""0.507"",""0.137"",""0.953""]","[1,1,0,1]",0,36,36,36,1,0,0,,,0,FALSE,1.3832,,,,,,,,,,,,,,,,,,,,,,,,,,,,,,
,5f7bdb159226d61cae55f330,001,2022-04-28_18h08.23.994,classification_task,2021.2.3,Win32,60.00960154,5f7bdb159226d61cae55f330,626b377229c10585ec392f8a,626b384415dee1dfbb7b19e2,,,,,,,,,,,,,,,,,,,,,,,l,0,"[""0.126"",""0.464"",""0.869"",""0.904""]","[0,1,1,1]",0,37,37,37,1,0,1,,,0,FALSE,1.0291,,,,,,,,,,,,,,,,,,,,,,,,,,,,,,
,5f7bdb159226d61cae55f330,001,2022-04-28_18h08.23.994,classification_task,2021.2.3,Win32,60.00960154,5f7bdb159226d61cae55f330,626b377229c10585ec392f8a,626b384415dee1dfbb7b19e2,,,,,,,,,,,,,,,,,,,,,,,a,1,"[""0.261"",""0.507"",""0.706"",""0.137""]","[1,1,1,0]",0,38,38,38,1,0,0,,,0,FALSE,0.8973,,,,,,,,,,,,,,,,,,,,,,,,,,,,,,
,5f7bdb159226d61cae55f330,001,2022-04-28_18h08.23.994,classification_task,2021.2.3,Win32,60.00960154,5f7bdb159226d61cae55f330,626b377229c10585ec392f8a,626b384415dee1dfbb7b19e2,,,,,,,,,,,,,,,,,,,,,,,a,0,"[""0.304"",""0.397"",""0.656"",""0.779""]","[0,1,1,1]",0,39,39,39,1,1,0,,,0,FALSE,1.0976,,,,,,,,,,,,,,,,,,,,,,,,,,,,,,
,5f7bdb159226d61cae55f330,001,2022-04-28_18h08.23.994,classification_task,2021.2.3,Win32,60.00960154,5f7bdb159226d61cae55f330,626b377229c10585ec392f8a,626b384415dee1dfbb7b19e2,,,,,,,,,,,,,,,,,,,,,,,a,1,"[""0.227"",""0.464"",""0.742"",""0.904""]","[1,1,0,1]",0,40,40,40,1,0,1,,,0,FALSE,1.114,,,,,,,,,,,,,,,,,,,,,,,,,,,,,,
,5f7bdb159226d61cae55f330,001,2022-04-28_18h08.23.994,classification_task,2021.2.3,Win32,60.00960154,5f7bdb159226d61cae55f330,626b377229c10585ec392f8a,626b384415dee1dfbb7b19e2,,,,,,,,,,,,,,,,,,,,,,,l,1,"[""0.048"",""0.397"",""0.344"",""0.779""]","[1,1,0,1]",0,41,41,41,1,1,0,,,0,FALSE,1.7114,,,,,,,,,,,,,,,,,,,,,,,,,,,,,,
,5f7bdb159226d61cae55f330,001,2022-04-28_18h08.23.994,classification_task,2021.2.3,Win32,60.00960154,5f7bdb159226d61cae55f330,626b377229c10585ec392f8a,626b384415dee1dfbb7b19e2,,,,,,,,,,,,,,,,,,,,,,,a,0,"[""0.085"",""0.177"",""0.124"",""0.820""]","[1,1,0,1]",0,42,42,42,1,1,1,,,0,FALSE,1.7789,,,,,,,,,,,,,,,,,,,,,,,,,,,,,,
,5f7bdb159226d61cae55f330,001,2022-04-28_18h08.23.994,classification_task,2021.2.3,Win32,60.00960154,5f7bdb159226d61cae55f330,626b377229c10585ec392f8a,626b384415dee1dfbb7b19e2,,,,,,,,,,,,,,,,,,,,,,,a,0,"[""0.125"",""0.177"",""0.561"",""0.820""]","[0,1,1,1]",0,43,43,43,1,1,1,,,0,FALSE,1.1146,,,,,,,,,,,,,,,,,,,,,,,,,,,,,,
,5f7bdb159226d61cae55f330,001,2022-04-28_18h08.23.994,classification_task,2021.2.3,Win32,60.00960154,5f7bdb159226d61cae55f330,626b377229c10585ec392f8a,626b384415dee1dfbb7b19e2,,,,,,,,,,,,,,,,,,,,,,,l,1,"[""0.048"",""0.397"",""0.656"",""0.126""]","[1,1,1,0]",0,44,44,44,1,1,0,,,0,FALSE,1.3946,,,,,,,,,,,,,,,,,,,,,,,,,,,,,,
,5f7bdb159226d61cae55f330,001,2022-04-28_18h08.23.994,classification_task,2021.2.3,Win32,60.00960154,5f7bdb159226d61cae55f330,626b377229c10585ec392f8a,626b384415dee1dfbb7b19e2,,,,,,,,,,,,,,,,,,,,,,,l,0,"[""0.227"",""0.304"",""0.869"",""0.904""]","[1,0,1,1]",0,45,45,45,1,0,1,,,0,FALSE,1.0219,,,,,,,,,,,,,,,,,,,,,,,,,,,,,,
,5f7bdb159226d61cae55f330,001,2022-04-28_18h08.23.994,classification_task,2021.2.3,Win32,60.00960154,5f7bdb159226d61cae55f330,626b377229c10585ec392f8a,626b384415dee1dfbb7b19e2,,,,,,,,,,,,,,,,,,,,,,,l,1,"[""0.085"",""0.126"",""0.561"",""0.820""]","[1,0,1,1]",0,46,46,46,1,1,1,,,0,FALSE,1.6971,,,,,,,,,,,,,,,,,,,,,,,,,,,,,,
,5f7bdb159226d61cae55f330,001,2022-04-28_18h08.23.994,classification_task,2021.2.3,Win32,60.00960154,5f7bdb159226d61cae55f330,626b377229c10585ec392f8a,626b384415dee1dfbb7b19e2,,,,,,,,,,,,,,,,,,,,,,,a,0,"[""0.048"",""0.340"",""0.656"",""0.779""]","[1,0,1,1]",0,47,47,47,1,1,0,,,0,FALSE,1.4448,,,,,,,,,,,,,,,,,,,,,,,,,,,,,,
,5f7bdb159226d61cae55f330,001,2022-04-28_18h08.23.994,classification_task,2021.2.3,Win32,60.00960154,5f7bdb159226d61cae55f330,626b377229c10585ec392f8a,626b384415dee1dfbb7b19e2,,,,,,,,,,,,,,,,,,,,,,,a,0,"[""0.315"",""0.397"",""0.656"",""0.779""]","[0,1,1,1]",0,48,48,48,1,1,0,,,0,FALSE,1.0807,,,,,,,,,,,,,,,,,,,,,,,,,,,,,,
,5f7bdb159226d61cae55f330,001,2022-04-28_18h08.23.994,classification_task,2021.2.3,Win32,60.00960154,5f7bdb159226d61cae55f330,626b377229c10585ec392f8a,626b384415dee1dfbb7b19e2,,,,,,,,,,,,,,,,,,,,,,,l,1,"[""0.048"",""0.139"",""0.656"",""0.779""]","[1,0,1,1]",0,49,49,49,1,1,0,,,0,FALSE,0.4971,,,,,,,,,,,,,,,,,,,,,,,,,,,,,,
,5f7bdb159226d61cae55f330,001,2022-04-28_18h08.23.994,classification_task,2021.2.3,Win32,60.00960154,5f7bdb159226d61cae55f330,626b377229c10585ec392f8a,626b384415dee1dfbb7b19e2,,,,,,,,,,,,,,,,,,,,,,,l,1,"[""0.048"",""0.397"",""0.612"",""0.779""]","[1,1,0,1]",0,50,50,50,1,1,0,,,0,FALSE,2.3026,,,,,,,,,,,,,,,,,,,,,,,,,,,,,,
,5f7bdb159226d61cae55f330,001,2022-04-28_18h08.23.994,classification_task,2021.2.3,Win32,60.00960154,5f7bdb159226d61cae55f330,626b377229c10585ec392f8a,626b384415dee1dfbb7b19e2,,,,,,,,,,,,,,,,,,,,,,,l,1,"[""0.085"",""0.177"",""0.607"",""0.820""]","[1,1,0,1]",0,51,51,51,1,1,1,,,0,FALSE,2.0096,,,,,,,,,,,,,,,,,,,,,,,,,,,,,,
,5f7bdb159226d61cae55f330,001,2022-04-28_18h08.23.994,classification_task,2021.2.3,Win32,60.00960154,5f7bdb159226d61cae55f330,626b377229c10585ec392f8a,626b384415dee1dfbb7b19e2,,,,,,,,,,,,,,,,,,,,,,,l,0,"[""0.227"",""0.126"",""0.869"",""0.904""]","[1,0,1,1]",0,52,52,52,1,0,1,,,0,FALSE,0.7617,,,,,,,,,,,,,,,,,,,,,,,,,,,,,,
,5f7bdb159226d61cae55f330,001,2022-04-28_18h08.23.994,classification_task,2021.2.3,Win32,60.00960154,5f7bdb159226d61cae55f330,626b377229c10585ec392f8a,626b384415dee1dfbb7b19e2,,,,,,,,,,,,,,,,,,,,,,,a,1,"[""0.261"",""0.507"",""0.706"",""0.744""]","[1,1,1,0]",0,53,53,53,1,0,0,,,0,FALSE,1.8254,,,,,,,,,,,,,,,,,,,,,,,,,,,,,,
,5f7bdb159226d61cae55f330,001,2022-04-28_18h08.23.994,classification_task,2021.2.3,Win32,60.00960154,5f7bdb159226d61cae55f330,626b377229c10585ec392f8a,626b384415dee1dfbb7b19e2,,,,,,,,,,,,,,,,,,,,,,,a,0,"[""0.304"",""0.177"",""0.561"",""0.820""]","[0,1,1,1]",0,54,54,54,1,1,1,,,0,FALSE,1.5769,,,,,,,,,,,,,,,,,,,,,,,,,,,,,,
,5f7bdb159226d61cae55f330,001,2022-04-28_18h08.23.994,classification_task,2021.2.3,Win32,60.00960154,5f7bdb159226d61cae55f330,626b377229c10585ec392f8a,626b384415dee1dfbb7b19e2,,,,,,,,,,,,,,,,,,,,,,,a,1,"[""0.139"",""0.464"",""0.869"",""0.904""]","[0,1,1,1]",0,55,55,55,1,0,1,,,0,FALSE,1.6508,,,,,,,,,,,,,,,,,,,,,,,,,,,,,,
,5f7bdb159226d61cae55f330,001,2022-04-28_18h08.23.994,classification_task,2021.2.3,Win32,60.00960154,5f7bdb159226d61cae55f330,626b377229c10585ec392f8a,626b384415dee1dfbb7b19e2,,,,,,,,,,,,,,,,,,,,,,,a,1,"[""0.261"",""0.344"",""0.706"",""0.953""]","[1,0,1,1]",0,56,56,56,1,0,0,,,0,FALSE,1.7436,,,,,,,,,,,,,,,,,,,,,,,,,,,,,,
,5f7bdb159226d61cae55f330,001,2022-04-28_18h08.23.994,classification_task,2021.2.3,Win32,60.00960154,5f7bdb159226d61cae55f330,626b377229c10585ec392f8a,626b384415dee1dfbb7b19e2,,,,,,,,,,,,,,,,,,,,,,,l,1,"[""0.048"",""0.397"",""0.656"",""0.744""]","[1,1,1,0]",0,57,57,57,1,1,0,,,0,FALSE,1.6941,,,,,,,,,,,,,,,,,,,,,,,,,,,,,,
,5f7bdb159226d61cae55f330,001,2022-04-28_18h08.23.994,classification_task,2021.2.3,Win32,60.00960154,5f7bdb159226d61cae55f330,626b377229c10585ec392f8a,626b384415dee1dfbb7b19e2,,,,,,,,,,,,,,,,,,,,,,,a,1,"[""0.137"",""0.507"",""0.706"",""0.953""]","[0,1,1,1]",0,58,58,58,1,0,0,,,0,FALSE,1.2416,,,,,,,,,,,,,,,,,,,,,,,,,,,,,,
,5f7bdb159226d61cae55f330,001,2022-04-28_18h08.23.994,classification_task,2021.2.3,Win32,60.00960154,5f7bdb159226d61cae55f330,626b377229c10585ec392f8a,626b384415dee1dfbb7b19e2,,,,,,,,,,,,,,,,,,,,,,,a,1,"[""0.227"",""0.464"",""0.869"",""0.124""]","[1,1,1,0]",0,59,59,59,1,0,1,,,0,FALSE,2.7242,,,,,,,,,,,,,,,,,,,,,,,,,,,,,,
,5f7bdb159226d61cae55f330,001,2022-04-28_18h08.23.994,classification_task,2021.2.3,Win32,60.00960154,5f7bdb159226d61cae55f330,626b377229c10585ec392f8a,626b384415dee1dfbb7b19e2,,,,,,,,,,,,,,,,,,,,,,,l,1,"[""0.085"",""0.177"",""0.561"",""0.126""]","[1,1,1,0]",0,60,60,60,1,1,1,,,0,FALSE,1.3192,,,,,,,,,,,,,,,,,,,,,,,,,,,,,,
,5f7bdb159226d61cae55f330,001,2022-04-28_18h08.23.994,classification_task,2021.2.3,Win32,60.00960154,5f7bdb159226d61cae55f330,626b377229c10585ec392f8a,626b384415dee1dfbb7b19e2,,,,,,,,,,,,,,,,,,,,,,,a,1,"[""0.261"",""0.507"",""0.304"",""0.953""]","[1,1,0,1]",0,61,61,61,1,0,0,,,0,FALSE,1.1967,,,,,,,,,,,,,,,,,,,,,,,,,,,,,,
,5f7bdb159226d61cae55f330,001,2022-04-28_18h08.23.994,classification_task,2021.2.3,Win32,60.00960154,5f7bdb159226d61cae55f330,626b377229c10585ec392f8a,626b384415dee1dfbb7b19e2,,,,,,,,,,,,,,,,,,,,,,,l,1,"[""0.085"",""0.344"",""0.561"",""0.820""]","[1,0,1,1]",0,62,62,62,1,1,1,,,0,FALSE,1.6451,,,,,,,,,,,,,,,,,,,,,,,,,,,,,,
,5f7bdb159226d61cae55f330,001,2022-04-28_18h08.23.994,classification_task,2021.2.3,Win32,60.00960154,5f7bdb159226d61cae55f330,626b377229c10585ec392f8a,626b384415dee1dfbb7b19e2,,,,,,,,,,,,,,,,,,,,,,,a,1,"[""0.227"",""0.464"",""0.137"",""0.904""]","[1,1,0,1]",0,63,63,63,1,0,1,,,0,FALSE,1.2229,,,,,,,,,,,,,,,,,,,,,,,,,,,,,,
,5f7bdb159226d61cae55f330,001,2022-04-28_18h08.23.994,classification_task,2021.2.3,Win32,60.00960154,5f7bdb159226d61cae55f330,626b377229c10585ec392f8a,626b384415dee1dfbb7b19e2,,,,,,,,,,,,,,,,,,,,,,,,,,,,,,,,,,,,,,,0, ,,0,6.618992504,530.5884,0,0,0,0,1,2,1,,,,,,,,,,,,,,,,,
,5f7bdb159226d61cae55f330,001,2022-04-28_18h08.23.994,classification_task,2021.2.3,Win32,60.00960154,5f7bdb159226d61cae55f330,626b377229c10585ec392f8a,626b384415dee1dfbb7b19e2,,,,,,,,,,,,,,,,,,,,,,,,,,,,,,,,,,,,,,,1,  ,,0,7.342372134,536.9324,0,0,0,0,1,2,1,,,,,,,,,,,,,,,,,
,5f7bdb159226d61cae55f330,001,2022-04-28_18h08.23.994,classification_task,2021.2.3,Win32,60.00960154,5f7bdb159226d61cae55f330,626b377229c10585ec392f8a,626b384415dee1dfbb7b19e2,,,,,,,,,,,,,,,,,,,,,,,,,,,,,,,,,,,,,,,2,  ,,0,3.759920635,548.8601,0,0,0,0,1,2,1,,,,,,,,,,,,,,,,,
,5f7bdb159226d61cae55f330,001,2022-04-28_18h08.23.994,classification_task,2021.2.3,Win32,60.00960154,5f7bdb159226d61cae55f330,626b377229c10585ec392f8a,626b384415dee1dfbb7b19e2,,,,,,,,,,,,,,,,,,,,,,,,,,,,,,,,,,,,,,,,,,,,,0,0,0,0,1,,1,,,,,,,,,,,,,,,,,
,5f7bdb159226d61cae55f330,001,2022-04-28_18h08.23.994,classification_task,2021.2.3,Win32,60.00960154,5f7bdb159226d61cae55f330,626b377229c10585ec392f8a,626b384415dee1dfbb7b19e2,,,,,,,,,,,,,,,,,,,,,space,10.797,a,1,"[""0.261"",""0.507"",""0.706"",""0.612""]","[1,1,1,0]",0,0,0,0,1,0,0,,,0,FALSE,3.5746,,,,,,,,,,,,,,,,,,,,,,,,,,,,,,
,5f7bdb159226d61cae55f330,001,2022-04-28_18h08.23.994,classification_task,2021.2.3,Win32,60.00960154,5f7bdb159226d61cae55f330,626b377229c10585ec392f8a,626b384415dee1dfbb7b19e2,,,,,,,,,,,,,,,,,,,,,,,l,1,"[""0.085"",""0.124"",""0.561"",""0.820""]","[1,0,1,1]",0,1,1,1,1,1,1,,,0,FALSE,3.7943,,,,,,,,,,,,,,,,,,,,,,,,,,,,,,
,5f7bdb159226d61cae55f330,001,2022-04-28_18h08.23.994,classification_task,2021.2.3,Win32,60.00960154,5f7bdb159226d61cae55f330,626b377229c10585ec392f8a,626b384415dee1dfbb7b19e2,,,,,,,,,,,,,,,,,,,,,,,l,1,"[""0.048"",""0.344"",""0.656"",""0.779""]","[1,0,1,1]",0,2,2,2,1,1,0,,,0,FALSE,2.0956,,,,,,,,,,,,,,,,,,,,,,,,,,,,,,
,5f7bdb159226d61cae55f330,001,2022-04-28_18h08.23.994,classification_task,2021.2.3,Win32,60.00960154,5f7bdb159226d61cae55f330,626b377229c10585ec392f8a,626b384415dee1dfbb7b19e2,,,,,,,,,,,,,,,,,,,,,,,l,0,"[""0.227"",""0.124"",""0.869"",""0.904""]","[1,0,1,1]",0,3,3,3,1,0,1,,,0,FALSE,2.5048,,,,,,,,,,,,,,,,,,,,,,,,,,,,,,
,5f7bdb159226d61cae55f330,001,2022-04-28_18h08.23.994,classification_task,2021.2.3,Win32,60.00960154,5f7bdb159226d61cae55f330,626b377229c10585ec392f8a,626b384415dee1dfbb7b19e2,,,,,,,,,,,,,,,,,,,,,,,a,1,"[""0.344"",""0.464"",""0.869"",""0.904""]","[0,1,1,1]",0,4,4,4,1,0,1,,,0,FALSE,2.9652,,,,,,,,,,,,,,,,,,,,,,,,,,,,,,
,5f7bdb159226d61cae55f330,001,2022-04-28_18h08.23.994,classification_task,2021.2.3,Win32,60.00960154,5f7bdb159226d61cae55f330,626b377229c10585ec392f8a,626b384415dee1dfbb7b19e2,,,,,,,,,,,,,,,,,,,,,,,a,1,"[""0.126"",""0.507"",""0.706"",""0.953""]","[0,1,1,1]",0,5,5,5,1,0,0,,,0,FALSE,2.0373,,,,,,,,,,,,,,,,,,,,,,,,,,,,,,
,5f7bdb159226d61cae55f330,001,2022-04-28_18h08.23.994,classification_task,2021.2.3,Win32,60.00960154,5f7bdb159226d61cae55f330,626b377229c10585ec392f8a,626b384415dee1dfbb7b19e2,,,,,,,,,,,,,,,,,,,,,,,l,1,"[""0.340"",""0.397"",""0.656"",""0.779""]","[0,1,1,1]",0,6,6,6,1,1,0,,,0,FALSE,1.1623,,,,,,,,,,,,,,,,,,,,,,,,,,,,,,
,5f7bdb159226d61cae55f330,001,2022-04-28_18h08.23.994,classification_task,2021.2.3,Win32,60.00960154,5f7bdb159226d61cae55f330,626b377229c10585ec392f8a,626b384415dee1dfbb7b19e2,,,,,,,,,,,,,,,,,,,,,,,a,1,"[""0.227"",""0.464"",""0.869"",""0.137""]","[1,1,1,0]",0,7,7,7,1,0,1,,,0,FALSE,1.5456,,,,,,,,,,,,,,,,,,,,,,,,,,,,,,
,5f7bdb159226d61cae55f330,001,2022-04-28_18h08.23.994,classification_task,2021.2.3,Win32,60.00960154,5f7bdb159226d61cae55f330,626b377229c10585ec392f8a,626b384415dee1dfbb7b19e2,,,,,,,,,,,,,,,,,,,,,,,l,0,"[""0.261"",""0.742"",""0.706"",""0.953""]","[1,0,1,1]",0,8,8,8,1,0,0,,,0,FALSE,1.4174,,,,,,,,,,,,,,,,,,,,,,,,,,,,,,
,5f7bdb159226d61cae55f330,001,2022-04-28_18h08.23.994,classification_task,2021.2.3,Win32,60.00960154,5f7bdb159226d61cae55f330,626b377229c10585ec392f8a,626b384415dee1dfbb7b19e2,,,,,,,,,,,,,,,,,,,,,,,a,1,"[""0.227"",""0.464"",""0.315"",""0.904""]","[1,1,0,1]",0,9,9,9,1,0,1,,,0,FALSE,2.272,,,,,,,,,,,,,,,,,,,,,,,,,,,,,,
,5f7bdb159226d61cae55f330,001,2022-04-28_18h08.23.994,classification_task,2021.2.3,Win32,60.00960154,5f7bdb159226d61cae55f330,626b377229c10585ec392f8a,626b384415dee1dfbb7b19e2,,,,,,,,,,,,,,,,,,,,,,,a,0,"[""0.126"",""0.177"",""0.561"",""0.820""]","[0,1,1,1]",0,10,10,10,1,1,1,,,0,FALSE,1.5698,,,,,,,,,,,,,,,,,,,,,,,,,,,,,,
,5f7bdb159226d61cae55f330,001,2022-04-28_18h08.23.994,classification_task,2021.2.3,Win32,60.00960154,5f7bdb159226d61cae55f330,626b377229c10585ec392f8a,626b384415dee1dfbb7b19e2,,,,,,,,,,,,,,,,,,,,,,,l,1,"[""0.085"",""0.177"",""0.607"",""0.820""]","[1,1,0,1]",0,11,11,11,1,1,1,,,0,FALSE,1.5,,,,,,,,,,,,,,,,,,,,,,,,,,,,,,
,5f7bdb159226d61cae55f330,001,2022-04-28_18h08.23.994,classification_task,2021.2.3,Win32,60.00960154,5f7bdb159226d61cae55f330,626b377229c10585ec392f8a,626b384415dee1dfbb7b19e2,,,,,,,,,,,,,,,,,,,,,,,a,1,"[""0.261"",""0.507"",""0.137"",""0.953""]","[1,1,0,1]",0,12,12,12,1,0,0,,,0,FALSE,1.8574,,,,,,,,,,,,,,,,,,,,,,,,,,,,,,
,5f7bdb159226d61cae55f330,001,2022-04-28_18h08.23.994,classification_task,2021.2.3,Win32,60.00960154,5f7bdb159226d61cae55f330,626b377229c10585ec392f8a,626b384415dee1dfbb7b19e2,,,,,,,,,,,,,,,,,,,,,,,l,1,"[""0.085"",""0.177"",""0.561"",""0.344""]","[1,1,1,0]",0,13,13,13,1,1,1,,,0,FALSE,2.3543,,,,,,,,,,,,,,,,,,,,,,,,,,,,,,
,5f7bdb159226d61cae55f330,001,2022-04-28_18h08.23.994,classification_task,2021.2.3,Win32,60.00960154,5f7bdb159226d61cae55f330,626b377229c10585ec392f8a,626b384415dee1dfbb7b19e2,,,,,,,,,,,,,,,,,,,,,,,l,1,"[""0.048"",""0.397"",""0.656"",""0.742""]","[1,1,1,0]",0,14,14,14,1,1,0,,,0,FALSE,1.667,,,,,,,,,,,,,,,,,,,,,,,,,,,,,,
,5f7bdb159226d61cae55f330,001,2022-04-28_18h08.23.994,classification_task,2021.2.3,Win32,60.00960154,5f7bdb159226d61cae55f330,626b377229c10585ec392f8a,626b384415dee1dfbb7b19e2,,,,,,,,,,,,,,,,,,,,,,,l,1,"[""0.048"",""0.397"",""0.607"",""0.779""]","[1,1,0,1]",0,15,15,15,1,1,0,,,0,FALSE,1.1948,,,,,,,,,,,,,,,,,,,,,,,,,,,,,,
,5f7bdb159226d61cae55f330,001,2022-04-28_18h08.23.994,classification_task,2021.2.3,Win32,60.00960154,5f7bdb159226d61cae55f330,626b377229c10585ec392f8a,626b384415dee1dfbb7b19e2,,,,,,,,,,,,,,,,,,,,,,,l,1,"[""0.085"",""0.177"",""0.742"",""0.820""]","[1,1,0,1]",0,16,16,16,1,1,1,,,0,FALSE,1.7673,,,,,,,,,,,,,,,,,,,,,,,,,,,,,,
,5f7bdb159226d61cae55f330,001,2022-04-28_18h08.23.994,classification_task,2021.2.3,Win32,60.00960154,5f7bdb159226d61cae55f330,626b377229c10585ec392f8a,626b384415dee1dfbb7b19e2,,,,,,,,,,,,,,,,,,,,,,,a,1,"[""0.622"",""0.507"",""0.706"",""0.953""]","[0,1,1,1]",0,17,17,17,1,0,0,,,0,FALSE,1.5121,,,,,,,,,,,,,,,,,,,,,,,,,,,,,,
,5f7bdb159226d61cae55f330,001,2022-04-28_18h08.23.994,classification_task,2021.2.3,Win32,60.00960154,5f7bdb159226d61cae55f330,626b377229c10585ec392f8a,626b384415dee1dfbb7b19e2,,,,,,,,,,,,,,,,,,,,,,,l,1,"[""0.048"",""0.397"",""0.656"",""0.137""]","[1,1,1,0]",0,18,18,18,1,1,0,,,0,FALSE,1.2938,,,,,,,,,,,,,,,,,,,,,,,,,,,,,,
,5f7bdb159226d61cae55f330,001,2022-04-28_18h08.23.994,classification_task,2021.2.3,Win32,60.00960154,5f7bdb159226d61cae55f330,626b377229c10585ec392f8a,626b384415dee1dfbb7b19e2,,,,,,,,,,,,,,,,,,,,,,,l,1,"[""0.048"",""0.397"",""0.315"",""0.779""]","[1,1,0,1]",0,19,19,19,1,1,0,,,0,FALSE,1.315,,,,,,,,,,,,,,,,,,,,,,,,,,,,,,
,5f7bdb159226d61cae55f330,001,2022-04-28_18h08.23.994,classification_task,2021.2.3,Win32,60.00960154,5f7bdb159226d61cae55f330,626b377229c10585ec392f8a,626b384415dee1dfbb7b19e2,,,,,,,,,,,,,,,,,,,,,,,a,1,"[""0.261"",""0.507"",""0.706"",""0.315""]","[1,1,1,0]",0,20,20,20,1,0,0,,,0,FALSE,1.1175,,,,,,,,,,,,,,,,,,,,,,,,,,,,,,
,5f7bdb159226d61cae55f330,001,2022-04-28_18h08.23.994,classification_task,2021.2.3,Win32,60.00960154,5f7bdb159226d61cae55f330,626b377229c10585ec392f8a,626b384415dee1dfbb7b19e2,,,,,,,,,,,,,,,,,,,,,,,a,1,"[""0.227"",""0.464"",""0.869"",""0.744""]","[1,1,1,0]",0,21,21,21,1,0,1,,,0,FALSE,1.7743,,,,,,,,,,,,,,,,,,,,,,,,,,,,,,
,5f7bdb159226d61cae55f330,001,2022-04-28_18h08.23.994,classification_task,2021.2.3,Win32,60.00960154,5f7bdb159226d61cae55f330,626b377229c10585ec392f8a,626b384415dee1dfbb7b19e2,,,,,,,,,,,,,,,,,,,,,,,l,1,"[""0.612"",""0.177"",""0.561"",""0.820""]","[0,1,1,1]",0,22,22,22,1,1,1,,,0,FALSE,2.2766,,,,,,,,,,,,,,,,,,,,,,,,,,,,,,
,5f7bdb159226d61cae55f330,001,2022-04-28_18h08.23.994,classification_task,2021.2.3,Win32,60.00960154,5f7bdb159226d61cae55f330,626b377229c10585ec392f8a,626b384415dee1dfbb7b19e2,,,,,,,,,,,,,,,,,,,,,,,a,1,"[""0.261"",""0.305"",""0.706"",""0.953""]","[1,0,1,1]",0,23,23,23,1,0,0,,,0,FALSE,1.6671,,,,,,,,,,,,,,,,,,,,,,,,,,,,,,
,5f7bdb159226d61cae55f330,001,2022-04-28_18h08.23.994,classification_task,2021.2.3,Win32,60.00960154,5f7bdb159226d61cae55f330,626b377229c10585ec392f8a,626b384415dee1dfbb7b19e2,,,,,,,,,,,,,,,,,,,,,,,l,1,"[""0.085"",""0.177"",""0.561"",""0.315""]","[1,1,1,0]",0,24,24,24,1,1,1,,,0,FALSE,1.8017,,,,,,,,,,,,,,,,,,,,,,,,,,,,,,
,5f7bdb159226d61cae55f330,001,2022-04-28_18h08.23.994,classification_task,2021.2.3,Win32,60.00960154,5f7bdb159226d61cae55f330,626b377229c10585ec392f8a,626b384415dee1dfbb7b19e2,,,,,,,,,,,,,,,,,,,,,,,l,1,"[""0.048"",""0.344"",""0.656"",""0.779""]","[1,0,1,1]",0,25,25,25,1,1,0,,,0,FALSE,1.7989,,,,,,,,,,,,,,,,,,,,,,,,,,,,,,
,5f7bdb159226d61cae55f330,001,2022-04-28_18h08.23.994,classification_task,2021.2.3,Win32,60.00960154,5f7bdb159226d61cae55f330,626b377229c10585ec392f8a,626b384415dee1dfbb7b19e2,,,,,,,,,,,,,,,,,,,,,,,l,1,"[""0.085"",""0.607"",""0.561"",""0.820""]","[1,0,1,1]",0,26,26,26,1,1,1,,,0,FALSE,1.0797,,,,,,,,,,,,,,,,,,,,,,,,,,,,,,
,5f7bdb159226d61cae55f330,001,2022-04-28_18h08.23.994,classification_task,2021.2.3,Win32,60.00960154,5f7bdb159226d61cae55f330,626b377229c10585ec392f8a,626b384415dee1dfbb7b19e2,,,,,,,,,,,,,,,,,,,,,,,a,1,"[""0.227"",""0.464"",""0.340"",""0.904""]","[1,1,0,1]",0,27,27,27,1,0,1,,,0,FALSE,1.2895,,,,,,,,,,,,,,,,,,,,,,,,,,,,,,
,5f7bdb159226d61cae55f330,001,2022-04-28_18h08.23.994,classification_task,2021.2.3,Win32,60.00960154,5f7bdb159226d61cae55f330,626b377229c10585ec392f8a,626b384415dee1dfbb7b19e2,,,,,,,,,,,,,,,,,,,,,,,l,0,"[""0.612"",""0.464"",""0.869"",""0.904""]","[0,1,1,1]",0,28,28,28,1,0,1,,,0,FALSE,3.1485,,,,,,,,,,,,,,,,,,,,,,,,,,,,,,
,5f7bdb159226d61cae55f330,001,2022-04-28_18h08.23.994,classification_task,2021.2.3,Win32,60.00960154,5f7bdb159226d61cae55f330,626b377229c10585ec392f8a,626b384415dee1dfbb7b19e2,,,,,,,,,,,,,,,,,,,,,,,l,1,"[""0.622"",""0.397"",""0.656"",""0.779""]","[0,1,1,1]",0,29,29,29,1,1,0,,,0,FALSE,1.6715,,,,,,,,,,,,,,,,,,,,,,,,,,,,,,
,5f7bdb159226d61cae55f330,001,2022-04-28_18h08.23.994,classification_task,2021.2.3,Win32,60.00960154,5f7bdb159226d61cae55f330,626b377229c10585ec392f8a,626b384415dee1dfbb7b19e2,,,,,,,,,,,,,,,,,,,,,,,l,0,"[""0.261"",""0.507"",""0.344"",""0.953""]","[1,1,0,1]",0,30,30,30,1,0,0,,,0,FALSE,0.7061,,,,,,,,,,,,,,,,,,,,,,,,,,,,,,
,5f7bdb159226d61cae55f330,001,2022-04-28_18h08.23.994,classification_task,2021.2.3,Win32,60.00960154,5f7bdb159226d61cae55f330,626b377229c10585ec392f8a,626b384415dee1dfbb7b19e2,,,,,,,,,,,,,,,,,,,,,,,a,1,"[""0.227"",""0.124"",""0.869"",""0.904""]","[1,0,1,1]",0,31,31,31,1,0,1,,,0,FALSE,1.2796,,,,,,,,,,,,,,,,,,,,,,,,,,,,,,
,5f7bdb159226d61cae55f330,001,2022-04-28_18h08.23.994,classification_task,2021.2.3,Win32,60.00960154,5f7bdb159226d61cae55f330,626b377229c10585ec392f8a,626b384415dee1dfbb7b19e2,,,,,,,,,,,,,,,,,,,,,,,l,1,"[""0.048"",""0.397"",""0.656"",""0.304""]","[1,1,1,0]",0,32,32,32,1,1,0,,,0,FALSE,1.5821,,,,,,,,,,,,,,,,,,,,,,,,,,,,,,
,5f7bdb159226d61cae55f330,001,2022-04-28_18h08.23.994,classification_task,2021.2.3,Win32,60.00960154,5f7bdb159226d61cae55f330,626b377229c10585ec392f8a,626b384415dee1dfbb7b19e2,,,,,,,,,,,,,,,,,,,,,,,l,1,"[""0.125"",""0.397"",""0.656"",""0.779""]","[0,1,1,1]",0,33,33,33,1,1,0,,,0,FALSE,1.2979,,,,,,,,,,,,,,,,,,,,,,,,,,,,,,
,5f7bdb159226d61cae55f330,001,2022-04-28_18h08.23.994,classification_task,2021.2.3,Win32,60.00960154,5f7bdb159226d61cae55f330,626b377229c10585ec392f8a,626b384415dee1dfbb7b19e2,,,,,,,,,,,,,,,,,,,,,,,a,1,"[""0.227"",""0.464"",""0.607"",""0.904""]","[1,1,0,1]",0,34,34,34,1,0,1,,,0,FALSE,1.3694,,,,,,,,,,,,,,,,,,,,,,,,,,,,,,
,5f7bdb159226d61cae55f330,001,2022-04-28_18h08.23.994,classification_task,2021.2.3,Win32,60.00960154,5f7bdb159226d61cae55f330,626b377229c10585ec392f8a,626b384415dee1dfbb7b19e2,,,,,,,,,,,,,,,,,,,,,,,l,1,"[""0.085"",""0.315"",""0.561"",""0.820""]","[1,0,1,1]",0,35,35,35,1,1,1,,,0,FALSE,1.6628,,,,,,,,,,,,,,,,,,,,,,,,,,,,,,
,5f7bdb159226d61cae55f330,001,2022-04-28_18h08.23.994,classification_task,2021.2.3,Win32,60.00960154,5f7bdb159226d61cae55f330,626b377229c10585ec392f8a,626b384415dee1dfbb7b19e2,,,,,,,,,,,,,,,,,,,,,,,a,1,"[""0.227"",""0.344"",""0.869"",""0.904""]","[1,0,1,1]",0,36,36,36,1,0,1,,,0,FALSE,1.0981,,,,,,,,,,,,,,,,,,,,,,,,,,,,,,
,5f7bdb159226d61cae55f330,001,2022-04-28_18h08.23.994,classification_task,2021.2.3,Win32,60.00960154,5f7bdb159226d61cae55f330,626b377229c10585ec392f8a,626b384415dee1dfbb7b19e2,,,,,,,,,,,,,,,,,,,,,,,l,1,"[""0.085"",""0.177"",""0.304"",""0.820""]","[1,1,0,1]",0,37,37,37,1,1,1,,,0,FALSE,1.6016,,,,,,,,,,,,,,,,,,,,,,,,,,,,,,
,5f7bdb159226d61cae55f330,001,2022-04-28_18h08.23.994,classification_task,2021.2.3,Win32,60.00960154,5f7bdb159226d61cae55f330,626b377229c10585ec392f8a,626b384415dee1dfbb7b19e2,,,,,,,,,,,,,,,,,,,,,,,a,1,"[""0.227"",""0.464"",""0.869"",""0.612""]","[1,1,1,0]",0,38,38,38,1,0,1,,,0,FALSE,1.2083,,,,,,,,,,,,,,,,,,,,,,,,,,,,,,
,5f7bdb159226d61cae55f330,001,2022-04-28_18h08.23.994,classification_task,2021.2.3,Win32,60.00960154,5f7bdb159226d61cae55f330,626b377229c10585ec392f8a,626b384415dee1dfbb7b19e2,,,,,,,,,,,,,,,,,,,,,,,a,1,"[""0.305"",""0.464"",""0.869"",""0.904""]","[0,1,1,1]",0,39,39,39,1,0,1,,,0,FALSE,4.3358,,,,,,,,,,,,,,,,,,,,,,,,,,,,,,
,5f7bdb159226d61cae55f330,001,2022-04-28_18h08.23.994,classification_task,2021.2.3,Win32,60.00960154,5f7bdb159226d61cae55f330,626b377229c10585ec392f8a,626b384415dee1dfbb7b19e2,,,,,,,,,,,,,,,,,,,,,,,l,1,"[""0.048"",""0.397"",""0.742"",""0.779""]","[1,1,0,1]",0,40,40,40,1,1,0,,,0,FALSE,1.6824,,,,,,,,,,,,,,,,,,,,,,,,,,,,,,
,5f7bdb159226d61cae55f330,001,2022-04-28_18h08.23.994,classification_task,2021.2.3,Win32,60.00960154,5f7bdb159226d61cae55f330,626b377229c10585ec392f8a,626b384415dee1dfbb7b19e2,,,,,,,,,,,,,,,,,,,,,,,a,1,"[""0.261"",""0.304"",""0.706"",""0.953""]","[1,0,1,1]",0,41,41,41,1,0,0,,,0,FALSE,0.7124,,,,,,,,,,,,,,,,,,,,,,,,,,,,,,
,5f7bdb159226d61cae55f330,001,2022-04-28_18h08.23.994,classification_task,2021.2.3,Win32,60.00960154,5f7bdb159226d61cae55f330,626b377229c10585ec392f8a,626b384415dee1dfbb7b19e2,,,,,,,,,,,,,,,,,,,,,,,a,0,"[""0.340"",""0.177"",""0.561"",""0.820""]","[0,1,1,1]",0,42,42,42,1,1,1,,,0,FALSE,2.581,,,,,,,,,,,,,,,,,,,,,,,,,,,,,,
,5f7bdb159226d61cae55f330,001,2022-04-28_18h08.23.994,classification_task,2021.2.3,Win32,60.00960154,5f7bdb159226d61cae55f330,626b377229c10585ec392f8a,626b384415dee1dfbb7b19e2,,,,,,,,,,,,,,,,,,,,,,,l,1,"[""0.048"",""0.607"",""0.656"",""0.779""]","[1,0,1,1]",0,43,43,43,1,1,0,,,0,FALSE,1.0016,,,,,,,,,,,,,,,,,,,,,,,,,,,,,,
,5f7bdb159226d61cae55f330,001,2022-04-28_18h08.23.994,classification_task,2021.2.3,Win32,60.00960154,5f7bdb159226d61cae55f330,626b377229c10585ec392f8a,626b384415dee1dfbb7b19e2,,,,,,,,,,,,,,,,,,,,,,,a,1,"[""0.125"",""0.507"",""0.706"",""0.953""]","[0,1,1,1]",0,44,44,44,1,0,0,,,0,FALSE,1.2017,,,,,,,,,,,,,,,,,,,,,,,,,,,,,,
,5f7bdb159226d61cae55f330,001,2022-04-28_18h08.23.994,classification_task,2021.2.3,Win32,60.00960154,5f7bdb159226d61cae55f330,626b377229c10585ec392f8a,626b384415dee1dfbb7b19e2,,,,,,,,,,,,,,,,,,,,,,,a,1,"[""0.261"",""0.507"",""0.706"",""0.622""]","[1,1,1,0]",0,45,45,45,1,0,0,,,0,FALSE,0.7038,,,,,,,,,,,,,,,,,,,,,,,,,,,,,,
,5f7bdb159226d61cae55f330,001,2022-04-28_18h08.23.994,classification_task,2021.2.3,Win32,60.00960154,5f7bdb159226d61cae55f330,626b377229c10585ec392f8a,626b384415dee1dfbb7b19e2,,,,,,,,,,,,,,,,,,,,,,,l,1,"[""0.085"",""0.177"",""0.561"",""0.137""]","[1,1,1,0]",0,46,46,46,1,1,1,,,0,FALSE,2.2768,,,,,,,,,,,,,,,,,,,,,,,,,,,,,,
,5f7bdb159226d61cae55f330,001,2022-04-28_18h08.23.994,classification_task,2021.2.3,Win32,60.00960154,5f7bdb159226d61cae55f330,626b377229c10585ec392f8a,626b384415dee1dfbb7b19e2,,,,,,,,,,,,,,,,,,,,,,,a,1,"[""0.261"",""0.507"",""0.622"",""0.953""]","[1,1,0,1]",0,47,47,47,1,0,0,,,0,FALSE,1.5125,,,,,,,,,,,,,,,,,,,,,,,,,,,,,,
,5f7bdb159226d61cae55f330,001,2022-04-28_18h08.23.994,classification_task,2021.2.3,Win32,60.00960154,5f7bdb159226d61cae55f330,626b377229c10585ec392f8a,626b384415dee1dfbb7b19e2,,,,,,,,,,,,,,,,,,,,,,,a,1,"[""0.744"",""0.507"",""0.706"",""0.953""]","[0,1,1,1]",0,48,48,48,1,0,0,,,0,FALSE,1.0393,,,,,,,,,,,,,,,,,,,,,,,,,,,,,,
,5f7bdb159226d61cae55f330,001,2022-04-28_18h08.23.994,classification_task,2021.2.3,Win32,60.00960154,5f7bdb159226d61cae55f330,626b377229c10585ec392f8a,626b384415dee1dfbb7b19e2,,,,,,,,,,,,,,,,,,,,,,,a,1,"[""0.261"",""0.507"",""0.340"",""0.953""]","[1,1,0,1]",0,49,49,49,1,0,0,,,0,FALSE,0.7945,,,,,,,,,,,,,,,,,,,,,,,,,,,,,,
,5f7bdb159226d61cae55f330,001,2022-04-28_18h08.23.994,classification_task,2021.2.3,Win32,60.00960154,5f7bdb159226d61cae55f330,626b377229c10585ec392f8a,626b384415dee1dfbb7b19e2,,,,,,,,,,,,,,,,,,,,,,,a,1,"[""0.261"",""0.507"",""0.706"",""0.742""]","[1,1,1,0]",0,50,50,50,1,0,0,,,0,FALSE,0.7925,,,,,,,,,,,,,,,,,,,,,,,,,,,,,,
,5f7bdb159226d61cae55f330,001,2022-04-28_18h08.23.994,classification_task,2021.2.3,Win32,60.00960154,5f7bdb159226d61cae55f330,626b377229c10585ec392f8a,626b384415dee1dfbb7b19e2,,,,,,,,,,,,,,,,,,,,,,,l,1,"[""0.048"",""0.397"",""0.656"",""0.305""]","[1,1,1,0]",0,51,51,51,1,1,0,,,0,FALSE,2.2762,,,,,,,,,,,,,,,,,,,,,,,,,,,,,,
,5f7bdb159226d61cae55f330,001,2022-04-28_18h08.23.994,classification_task,2021.2.3,Win32,60.00960154,5f7bdb159226d61cae55f330,626b377229c10585ec392f8a,626b384415dee1dfbb7b19e2,,,,,,,,,,,,,,,,,,,,,,,l,0,"[""0.261"",""0.124"",""0.706"",""0.953""]","[1,0,1,1]",0,52,52,52,1,0,0,,,0,FALSE,1.8014,,,,,,,,,,,,,,,,,,,,,,,,,,,,,,
,5f7bdb159226d61cae55f330,001,2022-04-28_18h08.23.994,classification_task,2021.2.3,Win32,60.00960154,5f7bdb159226d61cae55f330,626b377229c10585ec392f8a,626b384415dee1dfbb7b19e2,,,,,,,,,,,,,,,,,,,,,,,l,1,"[""0.085"",""0.177"",""0.137"",""0.820""]","[1,1,0,1]",0,53,53,53,1,1,1,,,0,FALSE,1.9718,,,,,,,,,,,,,,,,,,,,,,,,,,,,,,
,5f7bdb159226d61cae55f330,001,2022-04-28_18h08.23.994,classification_task,2021.2.3,Win32,60.00960154,5f7bdb159226d61cae55f330,626b377229c10585ec392f8a,626b384415dee1dfbb7b19e2,,,,,,,,,,,,,,,,,,,,,,,a,0,"[""0.085"",""0.344"",""0.561"",""0.820""]","[1,0,1,1]",0,54,54,54,1,1,1,,,0,FALSE,1.9778,,,,,,,,,,,,,,,,,,,,,,,,,,,,,,
,5f7bdb159226d61cae55f330,001,2022-04-28_18h08.23.994,classification_task,2021.2.3,Win32,60.00960154,5f7bdb159226d61cae55f330,626b377229c10585ec392f8a,626b384415dee1dfbb7b19e2,,,,,,,,,,,,,,,,,,,,,,,a,1,"[""0.227"",""0.464"",""0.869"",""0.305""]","[1,1,1,0]",0,55,55,55,1,0,1,,,0,FALSE,0.9828,,,,,,,,,,,,,,,,,,,,,,,,,,,,,,
,5f7bdb159226d61cae55f330,001,2022-04-28_18h08.23.994,classification_task,2021.2.3,Win32,60.00960154,5f7bdb159226d61cae55f330,626b377229c10585ec392f8a,626b384415dee1dfbb7b19e2,,,,,,,,,,,,,,,,,,,,,,,a,1,"[""0.139"",""0.464"",""0.869"",""0.904""]","[0,1,1,1]",0,56,56,56,1,0,1,,,0,FALSE,1.7917,,,,,,,,,,,,,,,,,,,,,,,,,,,,,,
,5f7bdb159226d61cae55f330,001,2022-04-28_18h08.23.994,classification_task,2021.2.3,Win32,60.00960154,5f7bdb159226d61cae55f330,626b377229c10585ec392f8a,626b384415dee1dfbb7b19e2,,,,,,,,,,,,,,,,,,,,,,,l,1,"[""0.048"",""0.612"",""0.656"",""0.779""]","[1,0,1,1]",0,57,57,57,1,1,0,,,0,FALSE,2.3856,,,,,,,,,,,,,,,,,,,,,,,,,,,,,,
,5f7bdb159226d61cae55f330,001,2022-04-28_18h08.23.994,classification_task,2021.2.3,Win32,60.00960154,5f7bdb159226d61cae55f330,626b377229c10585ec392f8a,626b384415dee1dfbb7b19e2,,,,,,,,,,,,,,,,,,,,,,,a,1,"[""0.227"",""0.464"",""0.125"",""0.904""]","[1,1,0,1]",0,58,58,58,1,0,1,,,0,FALSE,1.1313,,,,,,,,,,,,,,,,,,,,,,,,,,,,,,
,5f7bdb159226d61cae55f330,001,2022-04-28_18h08.23.994,classification_task,2021.2.3,Win32,60.00960154,5f7bdb159226d61cae55f330,626b377229c10585ec392f8a,626b384415dee1dfbb7b19e2,,,,,,,,,,,,,,,,,,,,,,,a,0,"[""0.124"",""0.177"",""0.561"",""0.820""]","[0,1,1,1]",0,59,59,59,1,1,1,,,0,FALSE,1.2336,,,,,,,,,,,,,,,,,,,,,,,,,,,,,,
,5f7bdb159226d61cae55f330,001,2022-04-28_18h08.23.994,classification_task,2021.2.3,Win32,60.00960154,5f7bdb159226d61cae55f330,626b377229c10585ec392f8a,626b384415dee1dfbb7b19e2,,,,,,,,,,,,,,,,,,,,,,,a,1,"[""0.227"",""0.305"",""0.869"",""0.904""]","[1,0,1,1]",0,60,60,60,1,0,1,,,0,FALSE,0.9283,,,,,,,,,,,,,,,,,,,,,,,,,,,,,,
,5f7bdb159226d61cae55f330,001,2022-04-28_18h08.23.994,classification_task,2021.2.3,Win32,60.00960154,5f7bdb159226d61cae55f330,626b377229c10585ec392f8a,626b384415dee1dfbb7b19e2,,,,,,,,,,,,,,,,,,,,,,,l,1,"[""0.048"",""0.397"",""0.340"",""0.779""]","[1,1,0,1]",0,61,61,61,1,1,0,,,0,FALSE,1.8864,,,,,,,,,,,,,,,,,,,,,,,,,,,,,,
,5f7bdb159226d61cae55f330,001,2022-04-28_18h08.23.994,classification_task,2021.2.3,Win32,60.00960154,5f7bdb159226d61cae55f330,626b377229c10585ec392f8a,626b384415dee1dfbb7b19e2,,,,,,,,,,,,,,,,,,,,,,,l,1,"[""0.085"",""0.177"",""0.561"",""0.607""]","[1,1,1,0]",0,62,62,62,1,1,1,,,0,FALSE,2.547,,,,,,,,,,,,,,,,,,,,,,,,,,,,,,
,5f7bdb159226d61cae55f330,001,2022-04-28_18h08.23.994,classification_task,2021.2.3,Win32,60.00960154,5f7bdb159226d61cae55f330,626b377229c10585ec392f8a,626b384415dee1dfbb7b19e2,,,,,,,,,,,,,,,,,,,,,,,a,0,"[""0.139"",""0.397"",""0.656"",""0.779""]","[0,1,1,1]",0,63,63,63,1,1,0,,,0,FALSE,1.1371,,,,,,,,,,,,,,,,,,,,,,,,,,,,,,
,5f7bdb159226d61cae55f330,001,2022-04-28_18h08.23.994,classification_task,2021.2.3,Win32,60.00960154,5f7bdb159226d61cae55f330,626b377229c10585ec392f8a,626b384415dee1dfbb7b19e2,,,,,,,,,,,,,,,,,,,,,,,,,,,,,,,,,,,,,,,0, ,,0,1.004188713,198.7384,0,1,1,1,1,2,2,,,,,,,,,,,,,,,,,
,5f7bdb159226d61cae55f330,001,2022-04-28_18h08.23.994,classification_task,2021.2.3,Win32,60.00960154,5f7bdb159226d61cae55f330,626b377229c10585ec392f8a,626b384415dee1dfbb7b19e2,,,,,,,,,,,,,,,,,,,,,,,,,,,,,,,,,,,,,,,1,  ,,0,4.379960317,202.0985,0,1,1,1,1,2,2,,,,,,,,,,,,,,,,,
,5f7bdb159226d61cae55f330,001,2022-04-28_18h08.23.994,classification_task,2021.2.3,Win32,60.00960154,5f7bdb159226d61cae55f330,626b377229c10585ec392f8a,626b384415dee1dfbb7b19e2,,,,,,,,,,,,,,,,,,,,,,,,,,,,,,,,,,,,,,,2,  ,,0,1.624228395,203.8438,0,1,1,1,1,2,2,,,,,,,,,,,,,,,,,
,5f7bdb159226d61cae55f330,001,2022-04-28_18h08.23.994,classification_task,2021.2.3,Win32,60.00960154,5f7bdb159226d61cae55f330,626b377229c10585ec392f8a,626b384415dee1dfbb7b19e2,,,,,,,,,,,,,,,,,,,,,,,,,,,,,,,,,,,,,,,,,,,,,0,1,1,1,1,,2,,,,,,,,,,,,,,,,,
,5f7bdb159226d61cae55f330,001,2022-04-28_18h08.23.994,classification_task,2021.2.3,Win32,60.00960154,5f7bdb159226d61cae55f330,626b377229c10585ec392f8a,626b384415dee1dfbb7b19e2,,,,,,,,,,,,,,,,,,,,,space,4.2806,l,0,"[""0.612"",""0.464"",""0.869"",""0.904""]","[0,1,1,1]",0,0,0,0,1,0,1,,,0,FALSE,2.1403,,,,,,,,,,,,,,,,,,,,,,,,,,,,,,
,5f7bdb159226d61cae55f330,001,2022-04-28_18h08.23.994,classification_task,2021.2.3,Win32,60.00960154,5f7bdb159226d61cae55f330,626b377229c10585ec392f8a,626b384415dee1dfbb7b19e2,,,,,,,,,,,,,,,,,,,,,,,l,0,"[""0.622"",""0.507"",""0.706"",""0.953""]","[0,1,1,1]",0,1,1,1,1,0,0,,,0,FALSE,2.4739,,,,,,,,,,,,,,,,,,,,,,,,,,,,,,
,5f7bdb159226d61cae55f330,001,2022-04-28_18h08.23.994,classification_task,2021.2.3,Win32,60.00960154,5f7bdb159226d61cae55f330,626b377229c10585ec392f8a,626b384415dee1dfbb7b19e2,,,,,,,,,,,,,,,,,,,,,,,a,0,"[""0.124"",""0.397"",""0.656"",""0.779""]","[0,1,1,1]",0,2,2,2,1,1,0,,,0,FALSE,1.4442,,,,,,,,,,,,,,,,,,,,,,,,,,,,,,
,5f7bdb159226d61cae55f330,001,2022-04-28_18h08.23.994,classification_task,2021.2.3,Win32,60.00960154,5f7bdb159226d61cae55f330,626b377229c10585ec392f8a,626b384415dee1dfbb7b19e2,,,,,,,,,,,,,,,,,,,,,,,l,1,"[""0.085"",""0.177"",""0.744"",""0.820""]","[1,1,0,1]",0,3,3,3,1,1,1,,,0,FALSE,1.7499,,,,,,,,,,,,,,,,,,,,,,,,,,,,,,
,5f7bdb159226d61cae55f330,001,2022-04-28_18h08.23.994,classification_task,2021.2.3,Win32,60.00960154,5f7bdb159226d61cae55f330,626b377229c10585ec392f8a,626b384415dee1dfbb7b19e2,,,,,,,,,,,,,,,,,,,,,,,a,0,"[""0.340"",""0.177"",""0.561"",""0.820""]","[0,1,1,1]",0,4,4,4,1,1,1,,,0,FALSE,1.0494,,,,,,,,,,,,,,,,,,,,,,,,,,,,,,
,5f7bdb159226d61cae55f330,001,2022-04-28_18h08.23.994,classification_task,2021.2.3,Win32,60.00960154,5f7bdb159226d61cae55f330,626b377229c10585ec392f8a,626b384415dee1dfbb7b19e2,,,,,,,,,,,,,,,,,,,,,,,l,1,"[""0.085"",""0.742"",""0.561"",""0.820""]","[1,0,1,1]",0,5,5,5,1,1,1,,,0,FALSE,0.7701,,,,,,,,,,,,,,,,,,,,,,,,,,,,,,
,5f7bdb159226d61cae55f330,001,2022-04-28_18h08.23.994,classification_task,2021.2.3,Win32,60.00960154,5f7bdb159226d61cae55f330,626b377229c10585ec392f8a,626b384415dee1dfbb7b19e2,,,,,,,,,,,,,,,,,,,,,,,a,1,"[""0.261"",""0.507"",""0.706"",""0.315""]","[1,1,1,0]",0,6,6,6,1,0,0,,,0,FALSE,1.3322,,,,,,,,,,,,,,,,,,,,,,,,,,,,,,
,5f7bdb159226d61cae55f330,001,2022-04-28_18h08.23.994,classification_task,2021.2.3,Win32,60.00960154,5f7bdb159226d61cae55f330,626b377229c10585ec392f8a,626b384415dee1dfbb7b19e2,,,,,,,,,,,,,,,,,,,,,,,a,1,"[""0.227"",""0.464"",""0.742"",""0.904""]","[1,1,0,1]",0,7,7,7,1,0,1,,,0,FALSE,1.7505,,,,,,,,,,,,,,,,,,,,,,,,,,,,,,
,5f7bdb159226d61cae55f330,001,2022-04-28_18h08.23.994,classification_task,2021.2.3,Win32,60.00960154,5f7bdb159226d61cae55f330,626b377229c10585ec392f8a,626b384415dee1dfbb7b19e2,,,,,,,,,,,,,,,,,,,,,,,l,0,"[""0.227"",""0.126"",""0.869"",""0.904""]","[1,0,1,1]",0,8,8,8,1,0,1,,,0,FALSE,2.2472,,,,,,,,,,,,,,,,,,,,,,,,,,,,,,
,5f7bdb159226d61cae55f330,001,2022-04-28_18h08.23.994,classification_task,2021.2.3,Win32,60.00960154,5f7bdb159226d61cae55f330,626b377229c10585ec392f8a,626b384415dee1dfbb7b19e2,,,,,,,,,,,,,,,,,,,,,,,a,1,"[""0.261"",""0.126"",""0.706"",""0.953""]","[1,0,1,1]",0,9,9,9,1,0,0,,,0,FALSE,2.4659,,,,,,,,,,,,,,,,,,,,,,,,,,,,,,
,5f7bdb159226d61cae55f330,001,2022-04-28_18h08.23.994,classification_task,2021.2.3,Win32,60.00960154,5f7bdb159226d61cae55f330,626b377229c10585ec392f8a,626b384415dee1dfbb7b19e2,,,,,,,,,,,,,,,,,,,,,,,a,1,"[""0.261"",""0.507"",""0.344"",""0.953""]","[1,1,0,1]",0,10,10,10,1,0,0,,,0,FALSE,0.9809,,,,,,,,,,,,,,,,,,,,,,,,,,,,,,
,5f7bdb159226d61cae55f330,001,2022-04-28_18h08.23.994,classification_task,2021.2.3,Win32,60.00960154,5f7bdb159226d61cae55f330,626b377229c10585ec392f8a,626b384415dee1dfbb7b19e2,,,,,,,,,,,,,,,,,,,,,,,l,1,"[""0.048"",""0.397"",""0.656"",""0.742""]","[1,1,1,0]",0,11,11,11,1,1,0,,,0,FALSE,1.1673,,,,,,,,,,,,,,,,,,,,,,,,,,,,,,
,5f7bdb159226d61cae55f330,001,2022-04-28_18h08.23.994,classification_task,2021.2.3,Win32,60.00960154,5f7bdb159226d61cae55f330,626b377229c10585ec392f8a,626b384415dee1dfbb7b19e2,,,,,,,,,,,,,,,,,,,,,,,l,1,"[""0.048"",""0.742"",""0.656"",""0.779""]","[1,0,1,1]",0,12,12,12,1,1,0,,,0,FALSE,1.4612,,,,,,,,,,,,,,,,,,,,,,,,,,,,,,
,5f7bdb159226d61cae55f330,001,2022-04-28_18h08.23.994,classification_task,2021.2.3,Win32,60.00960154,5f7bdb159226d61cae55f330,626b377229c10585ec392f8a,626b384415dee1dfbb7b19e2,,,,,,,,,,,,,,,,,,,,,,,l,1,"[""0.048"",""0.397"",""0.315"",""0.779""]","[1,1,0,1]",0,13,13,13,1,1,0,,,0,FALSE,1.1982,,,,,,,,,,,,,,,,,,,,,,,,,,,,,,
,5f7bdb159226d61cae55f330,001,2022-04-28_18h08.23.994,classification_task,2021.2.3,Win32,60.00960154,5f7bdb159226d61cae55f330,626b377229c10585ec392f8a,626b384415dee1dfbb7b19e2,,,,,,,,,,,,,,,,,,,,,,,l,1,"[""0.085"",""0.177"",""0.561"",""0.121""]","[1,1,1,0]",0,14,14,14,1,1,1,,,0,FALSE,2.1671,,,,,,,,,,,,,,,,,,,,,,,,,,,,,,
,5f7bdb159226d61cae55f330,001,2022-04-28_18h08.23.994,classification_task,2021.2.3,Win32,60.00960154,5f7bdb159226d61cae55f330,626b377229c10585ec392f8a,626b384415dee1dfbb7b19e2,,,,,,,,,,,,,,,,,,,,,,,a,1,"[""0.227"",""0.464"",""0.869"",""0.137""]","[1,1,1,0]",0,15,15,15,1,0,1,,,0,FALSE,1.2483,,,,,,,,,,,,,,,,,,,,,,,,,,,,,,
,5f7bdb159226d61cae55f330,001,2022-04-28_18h08.23.994,classification_task,2021.2.3,Win32,60.00960154,5f7bdb159226d61cae55f330,626b377229c10585ec392f8a,626b384415dee1dfbb7b19e2,,,,,,,,,,,,,,,,,,,,,,,l,1,"[""0.048"",""0.397"",""0.340"",""0.779""]","[1,1,0,1]",0,16,16,16,1,1,0,,,0,FALSE,1.0548,,,,,,,,,,,,,,,,,,,,,,,,,,,,,,
,5f7bdb159226d61cae55f330,001,2022-04-28_18h08.23.994,classification_task,2021.2.3,Win32,60.00960154,5f7bdb159226d61cae55f330,626b377229c10585ec392f8a,626b384415dee1dfbb7b19e2,,,,,,,,,,,,,,,,,,,,,,,a,1,"[""0.261"",""0.507"",""0.706"",""0.742""]","[1,1,1,0]",0,17,17,17,1,0,0,,,0,FALSE,0.8793,,,,,,,,,,,,,,,,,,,,,,,,,,,,,,
,5f7bdb159226d61cae55f330,001,2022-04-28_18h08.23.994,classification_task,2021.2.3,Win32,60.00960154,5f7bdb159226d61cae55f330,626b377229c10585ec392f8a,626b384415dee1dfbb7b19e2,,,,,,,,,,,,,,,,,,,,,,,l,1,"[""0.085"",""0.304"",""0.561"",""0.820""]","[1,0,1,1]",0,18,18,18,1,1,1,,,0,FALSE,0.776,,,,,,,,,,,,,,,,,,,,,,,,,,,,,,
,5f7bdb159226d61cae55f330,001,2022-04-28_18h08.23.994,classification_task,2021.2.3,Win32,60.00960154,5f7bdb159226d61cae55f330,626b377229c10585ec392f8a,626b384415dee1dfbb7b19e2,,,,,,,,,,,,,,,,,,,,,,,a,1,"[""0.227"",""0.464"",""0.869"",""0.137""]","[1,1,1,0]",0,19,19,19,1,0,1,,,0,FALSE,0.8814,,,,,,,,,,,,,,,,,,,,,,,,,,,,,,
,5f7bdb159226d61cae55f330,001,2022-04-28_18h08.23.994,classification_task,2021.2.3,Win32,60.00960154,5f7bdb159226d61cae55f330,626b377229c10585ec392f8a,626b384415dee1dfbb7b19e2,,,,,,,,,,,,,,,,,,,,,,,l,1,"[""0.048"",""0.125"",""0.656"",""0.779""]","[1,0,1,1]",0,20,20,20,1,1,0,,,0,FALSE,0.8747,,,,,,,,,,,,,,,,,,,,,,,,,,,,,,
,5f7bdb159226d61cae55f330,001,2022-04-28_18h08.23.994,classification_task,2021.2.3,Win32,60.00960154,5f7bdb159226d61cae55f330,626b377229c10585ec392f8a,626b384415dee1dfbb7b19e2,,,,,,,,,,,,,,,,,,,,,,,a,1,"[""0.227"",""0.622"",""0.869"",""0.904""]","[1,0,1,1]",0,21,21,21,1,0,1,,,0,FALSE,1.1642,,,,,,,,,,,,,,,,,,,,,,,,,,,,,,
,5f7bdb159226d61cae55f330,001,2022-04-28_18h08.23.994,classification_task,2021.2.3,Win32,60.00960154,5f7bdb159226d61cae55f330,626b377229c10585ec392f8a,626b384415dee1dfbb7b19e2,,,,,,,,,,,,,,,,,,,,,,,a,1,"[""0.261"",""0.742"",""0.706"",""0.953""]","[1,0,1,1]",0,22,22,22,1,0,0,,,0,FALSE,1.6583,,,,,,,,,,,,,,,,,,,,,,,,,,,,,,
,5f7bdb159226d61cae55f330,001,2022-04-28_18h08.23.994,classification_task,2021.2.3,Win32,60.00960154,5f7bdb159226d61cae55f330,626b377229c10585ec392f8a,626b384415dee1dfbb7b19e2,,,,,,,,,,,,,,,,,,,,,,,a,0,"[""0.744"",""0.177"",""0.561"",""0.820""]","[0,1,1,1]",0,23,23,23,1,1,1,,,0,FALSE,1.7533,,,,,,,,,,,,,,,,,,,,,,,,,,,,,,
,5f7bdb159226d61cae55f330,001,2022-04-28_18h08.23.994,classification_task,2021.2.3,Win32,60.00960154,5f7bdb159226d61cae55f330,626b377229c10585ec392f8a,626b384415dee1dfbb7b19e2,,,,,,,,,,,,,,,,,,,,,,,l,0,"[""0.742"",""0.464"",""0.869"",""0.904""]","[0,1,1,1]",0,24,24,24,1,0,1,,,0,FALSE,1.6364,,,,,,,,,,,,,,,,,,,,,,,,,,,,,,
,5f7bdb159226d61cae55f330,001,2022-04-28_18h08.23.994,classification_task,2021.2.3,Win32,60.00960154,5f7bdb159226d61cae55f330,626b377229c10585ec392f8a,626b384415dee1dfbb7b19e2,,,,,,,,,,,,,,,,,,,,,,,a,1,"[""0.227"",""0.464"",""0.137"",""0.904""]","[1,1,0,1]",0,25,25,25,1,0,1,,,0,FALSE,1.2732,,,,,,,,,,,,,,,,,,,,,,,,,,,,,,
,5f7bdb159226d61cae55f330,001,2022-04-28_18h08.23.994,classification_task,2021.2.3,Win32,60.00960154,5f7bdb159226d61cae55f330,626b377229c10585ec392f8a,626b384415dee1dfbb7b19e2,,,,,,,,,,,,,,,,,,,,,,,l,1,"[""0.085"",""0.177"",""0.126"",""0.820""]","[1,1,0,1]",0,26,26,26,1,1,1,,,0,FALSE,0.7223,,,,,,,,,,,,,,,,,,,,,,,,,,,,,,
,5f7bdb159226d61cae55f330,001,2022-04-28_18h08.23.994,classification_task,2021.2.3,Win32,60.00960154,5f7bdb159226d61cae55f330,626b377229c10585ec392f8a,626b384415dee1dfbb7b19e2,,,,,,,,,,,,,,,,,,,,,,,l,1,"[""0.048"",""0.397"",""0.656"",""0.125""]","[1,1,1,0]",0,27,27,27,1,1,0,,,0,FALSE,2.0623,,,,,,,,,,,,,,,,,,,,,,,,,,,,,,
,5f7bdb159226d61cae55f330,001,2022-04-28_18h08.23.994,classification_task,2021.2.3,Win32,60.00960154,5f7bdb159226d61cae55f330,626b377229c10585ec392f8a,626b384415dee1dfbb7b19e2,,,,,,,,,,,,,,,,,,,,,,,a,0,"[""0.622"",""0.397"",""0.656"",""0.779""]","[0,1,1,1]",0,28,28,28,1,1,0,,,0,FALSE,1.0299,,,,,,,,,,,,,,,,,,,,,,,,,,,,,,
,5f7bdb159226d61cae55f330,001,2022-04-28_18h08.23.994,classification_task,2021.2.3,Win32,60.00960154,5f7bdb159226d61cae55f330,626b377229c10585ec392f8a,626b384415dee1dfbb7b19e2,,,,,,,,,,,,,,,,,,,,,,,l,1,"[""0.085"",""0.177"",""0.561"",""0.344""]","[1,1,1,0]",0,29,29,29,1,1,1,,,0,FALSE,1.2473,,,,,,,,,,,,,,,,,,,,,,,,,,,,,,
,5f7bdb159226d61cae55f330,001,2022-04-28_18h08.23.994,classification_task,2021.2.3,Win32,60.00960154,5f7bdb159226d61cae55f330,626b377229c10585ec392f8a,626b384415dee1dfbb7b19e2,,,,,,,,,,,,,,,,,,,,,,,a,1,"[""0.261"",""0.507"",""0.612"",""0.953""]","[1,1,0,1]",0,30,30,30,1,0,0,,,0,FALSE,1.3485,,,,,,,,,,,,,,,,,,,,,,,,,,,,,,
,5f7bdb159226d61cae55f330,001,2022-04-28_18h08.23.994,classification_task,2021.2.3,Win32,60.00960154,5f7bdb159226d61cae55f330,626b377229c10585ec392f8a,626b384415dee1dfbb7b19e2,,,,,,,,,,,,,,,,,,,,,,,l,0,"[""0.344"",""0.507"",""0.706"",""0.953""]","[0,1,1,1]",0,31,31,31,1,0,0,,,0,FALSE,2.5169,,,,,,,,,,,,,,,,,,,,,,,,,,,,,,
,5f7bdb159226d61cae55f330,001,2022-04-28_18h08.23.994,classification_task,2021.2.3,Win32,60.00960154,5f7bdb159226d61cae55f330,626b377229c10585ec392f8a,626b384415dee1dfbb7b19e2,,,,,,,,,,,,,,,,,,,,,,,a,0,"[""0.124"",""0.177"",""0.561"",""0.820""]","[0,1,1,1]",0,32,32,32,1,1,1,,,0,FALSE,1.1567,,,,,,,,,,,,,,,,,,,,,,,,,,,,,,
,5f7bdb159226d61cae55f330,001,2022-04-28_18h08.23.994,classification_task,2021.2.3,Win32,60.00960154,5f7bdb159226d61cae55f330,626b377229c10585ec392f8a,626b384415dee1dfbb7b19e2,,,,,,,,,,,,,,,,,,,,,,,a,1,"[""0.261"",""0.507"",""0.139"",""0.953""]","[1,1,0,1]",0,33,33,33,1,0,0,,,0,FALSE,1.748,,,,,,,,,,,,,,,,,,,,,,,,,,,,,,
,5f7bdb159226d61cae55f330,001,2022-04-28_18h08.23.994,classification_task,2021.2.3,Win32,60.00960154,5f7bdb159226d61cae55f330,626b377229c10585ec392f8a,626b384415dee1dfbb7b19e2,,,,,,,,,,,,,,,,,,,,,,,l,1,"[""0.612"",""0.397"",""0.656"",""0.779""]","[0,1,1,1]",0,34,34,34,1,1,0,,,0,FALSE,1.447,,,,,,,,,,,,,,,,,,,,,,,,,,,,,,
,5f7bdb159226d61cae55f330,001,2022-04-28_18h08.23.994,classification_task,2021.2.3,Win32,60.00960154,5f7bdb159226d61cae55f330,626b377229c10585ec392f8a,626b384415dee1dfbb7b19e2,,,,,,,,,,,,,,,,,,,,,,,l,1,"[""0.085"",""0.139"",""0.561"",""0.820""]","[1,0,1,1]",0,35,35,35,1,1,1,,,0,FALSE,1.3155,,,,,,,,,,,,,,,,,,,,,,,,,,,,,,
,5f7bdb159226d61cae55f330,001,2022-04-28_18h08.23.994,classification_task,2021.2.3,Win32,60.00960154,5f7bdb159226d61cae55f330,626b377229c10585ec392f8a,626b384415dee1dfbb7b19e2,,,,,,,,,,,,,,,,,,,,,,,l,1,"[""0.048"",""0.397"",""0.656"",""0.340""]","[1,1,1,0]",0,36,36,36,1,1,0,,,0,FALSE,1.7206,,,,,,,,,,,,,,,,,,,,,,,,,,,,,,
,5f7bdb159226d61cae55f330,001,2022-04-28_18h08.23.994,classification_task,2021.2.3,Win32,60.00960154,5f7bdb159226d61cae55f330,626b377229c10585ec392f8a,626b384415dee1dfbb7b19e2,,,,,,,,,,,,,,,,,,,,,,,a,1,"[""0.227"",""0.139"",""0.869"",""0.904""]","[1,0,1,1]",0,37,37,37,1,0,1,,,0,FALSE,1.7556,,,,,,,,,,,,,,,,,,,,,,,,,,,,,,
,5f7bdb159226d61cae55f330,001,2022-04-28_18h08.23.994,classification_task,2021.2.3,Win32,60.00960154,5f7bdb159226d61cae55f330,626b377229c10585ec392f8a,626b384415dee1dfbb7b19e2,,,,,,,,,,,,,,,,,,,,,,,l,1,"[""0.048"",""0.124"",""0.656"",""0.779""]","[1,0,1,1]",0,38,38,38,1,1,0,,,0,FALSE,2.5509,,,,,,,,,,,,,,,,,,,,,,,,,,,,,,
,5f7bdb159226d61cae55f330,001,2022-04-28_18h08.23.994,classification_task,2021.2.3,Win32,60.00960154,5f7bdb159226d61cae55f330,626b377229c10585ec392f8a,626b384415dee1dfbb7b19e2,,,,,,,,,,,,,,,,,,,,,,,a,1,"[""0.227"",""0.464"",""0.305"",""0.904""]","[1,1,0,1]",0,39,39,39,1,0,1,,,0,FALSE,1.4333,,,,,,,,,,,,,,,,,,,,,,,,,,,,,,
,5f7bdb159226d61cae55f330,001,2022-04-28_18h08.23.994,classification_task,2021.2.3,Win32,60.00960154,5f7bdb159226d61cae55f330,626b377229c10585ec392f8a,626b384415dee1dfbb7b19e2,,,,,,,,,,,,,,,,,,,,,,,a,1,"[""0.227"",""0.464"",""0.869"",""0.340""]","[1,1,1,0]",0,40,40,40,1,0,1,,,0,FALSE,1.261,,,,,,,,,,,,,,,,,,,,,,,,,,,,,,
,5f7bdb159226d61cae55f330,001,2022-04-28_18h08.23.994,classification_task,2021.2.3,Win32,60.00960154,5f7bdb159226d61cae55f330,626b377229c10585ec392f8a,626b384415dee1dfbb7b19e2,,,,,,,,,,,,,,,,,,,,,,,a,1,"[""0.121"",""0.507"",""0.706"",""0.953""]","[0,1,1,1]",0,41,41,41,1,0,0,,,0,FALSE,1.8605,,,,,,,,,,,,,,,,,,,,,,,,,,,,,,
,5f7bdb159226d61cae55f330,001,2022-04-28_18h08.23.994,classification_task,2021.2.3,Win32,60.00960154,5f7bdb159226d61cae55f330,626b377229c10585ec392f8a,626b384415dee1dfbb7b19e2,,,,,,,,,,,,,,,,,,,,,,,a,1,"[""0.261"",""0.137"",""0.706"",""0.953""]","[1,0,1,1]",0,42,42,42,1,0,0,,,0,FALSE,1.4603,,,,,,,,,,,,,,,,,,,,,,,,,,,,,,
,5f7bdb159226d61cae55f330,001,2022-04-28_18h08.23.994,classification_task,2021.2.3,Win32,60.00960154,5f7bdb159226d61cae55f330,626b377229c10585ec392f8a,626b384415dee1dfbb7b19e2,,,,,,,,,,,,,,,,,,,,,,,l,1,"[""0.085"",""0.177"",""0.612"",""0.820""]","[1,1,0,1]",0,43,43,43,1,1,1,,,0,FALSE,1.7712,,,,,,,,,,,,,,,,,,,,,,,,,,,,,,
,5f7bdb159226d61cae55f330,001,2022-04-28_18h08.23.994,classification_task,2021.2.3,Win32,60.00960154,5f7bdb159226d61cae55f330,626b377229c10585ec392f8a,626b384415dee1dfbb7b19e2,,,,,,,,,,,,,,,,,,,,,,,l,1,"[""0.085"",""0.177"",""0.561"",""0.124""]","[1,1,1,0]",0,44,44,44,1,1,1,,,0,FALSE,1.9948,,,,,,,,,,,,,,,,,,,,,,,,,,,,,,
,5f7bdb159226d61cae55f330,001,2022-04-28_18h08.23.994,classification_task,2021.2.3,Win32,60.00960154,5f7bdb159226d61cae55f330,626b377229c10585ec392f8a,626b384415dee1dfbb7b19e2,,,,,,,,,,,,,,,,,,,,,,,l,1,"[""0.048"",""0.397"",""0.742"",""0.779""]","[1,1,0,1]",0,45,45,45,1,1,0,,,0,FALSE,3.4313,,,,,,,,,,,,,,,,,,,,,,,,,,,,,,
,5f7bdb159226d61cae55f330,001,2022-04-28_18h08.23.994,classification_task,2021.2.3,Win32,60.00960154,5f7bdb159226d61cae55f330,626b377229c10585ec392f8a,626b384415dee1dfbb7b19e2,,,,,,,,,,,,,,,,,,,,,,,a,1,"[""0.261"",""0.507"",""0.706"",""0.125""]","[1,1,1,0]",0,46,46,46,1,0,0,,,0,FALSE,1.1456,,,,,,,,,,,,,,,,,,,,,,,,,,,,,,
,5f7bdb159226d61cae55f330,001,2022-04-28_18h08.23.994,classification_task,2021.2.3,Win32,60.00960154,5f7bdb159226d61cae55f330,626b377229c10585ec392f8a,626b384415dee1dfbb7b19e2,,,,,,,,,,,,,,,,,,,,,,,a,1,"[""0.137"",""0.464"",""0.869"",""0.904""]","[0,1,1,1]",0,47,47,47,1,0,1,,,0,FALSE,1.3492,,,,,,,,,,,,,,,,,,,,,,,,,,,,,,
,5f7bdb159226d61cae55f330,001,2022-04-28_18h08.23.994,classification_task,2021.2.3,Win32,60.00960154,5f7bdb159226d61cae55f330,626b377229c10585ec392f8a,626b384415dee1dfbb7b19e2,,,,,,,,,,,,,,,,,,,,,,,l,1,"[""0.048"",""0.397"",""0.125"",""0.779""]","[1,1,0,1]",0,48,48,48,1,1,0,,,0,FALSE,1.836,,,,,,,,,,,,,,,,,,,,,,,,,,,,,,
,5f7bdb159226d61cae55f330,001,2022-04-28_18h08.23.994,classification_task,2021.2.3,Win32,60.00960154,5f7bdb159226d61cae55f330,626b377229c10585ec392f8a,626b384415dee1dfbb7b19e2,,,,,,,,,,,,,,,,,,,,,,,a,1,"[""0.261"",""0.744"",""0.706"",""0.953""]","[1,0,1,1]",0,49,49,49,1,0,0,,,0,FALSE,1.1566,,,,,,,,,,,,,,,,,,,,,,,,,,,,,,
,5f7bdb159226d61cae55f330,001,2022-04-28_18h08.23.994,classification_task,2021.2.3,Win32,60.00960154,5f7bdb159226d61cae55f330,626b377229c10585ec392f8a,626b384415dee1dfbb7b19e2,,,,,,,,,,,,,,,,,,,,,,,a,1,"[""0.261"",""0.507"",""0.706"",""0.612""]","[1,1,1,0]",0,50,50,50,1,0,0,,,0,FALSE,0.7695,,,,,,,,,,,,,,,,,,,,,,,,,,,,,,
,5f7bdb159226d61cae55f330,001,2022-04-28_18h08.23.994,classification_task,2021.2.3,Win32,60.00960154,5f7bdb159226d61cae55f330,626b377229c10585ec392f8a,626b384415dee1dfbb7b19e2,,,,,,,,,,,,,,,,,,,,,,,l,1,"[""0.048"",""0.315"",""0.656"",""0.779""]","[1,0,1,1]",0,51,51,51,1,1,0,,,0,FALSE,1.5501,,,,,,,,,,,,,,,,,,,,,,,,,,,,,,
,5f7bdb159226d61cae55f330,001,2022-04-28_18h08.23.994,classification_task,2021.2.3,Win32,60.00960154,5f7bdb159226d61cae55f330,626b377229c10585ec392f8a,626b384415dee1dfbb7b19e2,,,,,,,,,,,,,,,,,,,,,,,a,0,"[""0.607"",""0.177"",""0.561"",""0.820""]","[0,1,1,1]",0,52,52,52,1,1,1,,,0,FALSE,2.6952,,,,,,,,,,,,,,,,,,,,,,,,,,,,,,
,5f7bdb159226d61cae55f330,001,2022-04-28_18h08.23.994,classification_task,2021.2.3,Win32,60.00960154,5f7bdb159226d61cae55f330,626b377229c10585ec392f8a,626b384415dee1dfbb7b19e2,,,,,,,,,,,,,,,,,,,,,,,l,1,"[""0.124"",""0.397"",""0.656"",""0.779""]","[0,1,1,1]",0,53,53,53,1,1,0,,,0,FALSE,2.3761,,,,,,,,,,,,,,,,,,,,,,,,,,,,,,
,5f7bdb159226d61cae55f330,001,2022-04-28_18h08.23.994,classification_task,2021.2.3,Win32,60.00960154,5f7bdb159226d61cae55f330,626b377229c10585ec392f8a,626b384415dee1dfbb7b19e2,,,,,,,,,,,,,,,,,,,,,,,l,1,"[""0.085"",""0.177"",""0.742"",""0.820""]","[1,1,0,1]",0,54,54,54,1,1,1,,,0,FALSE,1.9432,,,,,,,,,,,,,,,,,,,,,,,,,,,,,,
,5f7bdb159226d61cae55f330,001,2022-04-28_18h08.23.994,classification_task,2021.2.3,Win32,60.00960154,5f7bdb159226d61cae55f330,626b377229c10585ec392f8a,626b384415dee1dfbb7b19e2,,,,,,,,,,,,,,,,,,,,,,,a,1,"[""0.304"",""0.464"",""0.869"",""0.904""]","[0,1,1,1]",0,55,55,55,1,0,1,,,0,FALSE,2.0637,,,,,,,,,,,,,,,,,,,,,,,,,,,,,,
,5f7bdb159226d61cae55f330,001,2022-04-28_18h08.23.994,classification_task,2021.2.3,Win32,60.00960154,5f7bdb159226d61cae55f330,626b377229c10585ec392f8a,626b384415dee1dfbb7b19e2,,,,,,,,,,,,,,,,,,,,,,,a,1,"[""0.261"",""0.507"",""0.305"",""0.953""]","[1,1,0,1]",0,56,56,56,1,0,0,,,0,FALSE,2.419,,,,,,,,,,,,,,,,,,,,,,,,,,,,,,
,5f7bdb159226d61cae55f330,001,2022-04-28_18h08.23.994,classification_task,2021.2.3,Win32,60.00960154,5f7bdb159226d61cae55f330,626b377229c10585ec392f8a,626b384415dee1dfbb7b19e2,,,,,,,,,,,,,,,,,,,,,,,l,1,"[""0.085"",""0.177"",""0.561"",""0.304""]","[1,1,1,0]",0,57,57,57,1,1,1,,,0,FALSE,1.5547,,,,,,,,,,,,,,,,,,,,,,,,,,,,,,
,5f7bdb159226d61cae55f330,001,2022-04-28_18h08.23.994,classification_task,2021.2.3,Win32,60.00960154,5f7bdb159226d61cae55f330,626b377229c10585ec392f8a,626b384415dee1dfbb7b19e2,,,,,,,,,,,,,,,,,,,,,,,l,1,"[""0.048"",""0.397"",""0.656"",""0.622""]","[1,1,1,0]",0,58,58,58,1,1,0,,,0,FALSE,1.8446,,,,,,,,,,,,,,,,,,,,,,,,,,,,,,
,5f7bdb159226d61cae55f330,001,2022-04-28_18h08.23.994,classification_task,2021.2.3,Win32,60.00960154,5f7bdb159226d61cae55f330,626b377229c10585ec392f8a,626b384415dee1dfbb7b19e2,,,,,,,,,,,,,,,,,,,,,,,l,1,"[""0.085"",""0.344"",""0.561"",""0.820""]","[1,0,1,1]",0,59,59,59,1,1,1,,,0,FALSE,1.547,,,,,,,,,,,,,,,,,,,,,,,,,,,,,,
,5f7bdb159226d61cae55f330,001,2022-04-28_18h08.23.994,classification_task,2021.2.3,Win32,60.00960154,5f7bdb159226d61cae55f330,626b377229c10585ec392f8a,626b384415dee1dfbb7b19e2,,,,,,,,,,,,,,,,,,,,,,,a,1,"[""0.227"",""0.464"",""0.622"",""0.904""]","[1,1,0,1]",0,60,60,60,1,0,1,,,0,FALSE,1.657,,,,,,,,,,,,,,,,,,,,,,,,,,,,,,
,5f7bdb159226d61cae55f330,001,2022-04-28_18h08.23.994,classification_task,2021.2.3,Win32,60.00960154,5f7bdb159226d61cae55f330,626b377229c10585ec392f8a,626b384415dee1dfbb7b19e2,,,,,,,,,,,,,,,,,,,,,,,l,0,"[""0.121"",""0.507"",""0.706"",""0.953""]","[0,1,1,1]",0,61,61,61,1,0,0,,,0,FALSE,2.0366,,,,,,,,,,,,,,,,,,,,,,,,,,,,,,
,5f7bdb159226d61cae55f330,001,2022-04-28_18h08.23.994,classification_task,2021.2.3,Win32,60.00960154,5f7bdb159226d61cae55f330,626b377229c10585ec392f8a,626b384415dee1dfbb7b19e2,,,,,,,,,,,,,,,,,,,,,,,a,1,"[""0.227"",""0.464"",""0.869"",""0.139""]","[1,1,1,0]",0,62,62,62,1,0,1,,,0,FALSE,1.7242,,,,,,,,,,,,,,,,,,,,,,,,,,,,,,
,5f7bdb159226d61cae55f330,001,2022-04-28_18h08.23.994,classification_task,2021.2.3,Win32,60.00960154,5f7bdb159226d61cae55f330,626b377229c10585ec392f8a,626b384415dee1dfbb7b19e2,,,,,,,,,,,,,,,,,,,,,,,a,1,"[""0.227"",""0.305"",""0.869"",""0.904""]","[1,0,1,1]",0,63,63,63,1,0,1,,,0,FALSE,1.164,,,,,,,,,,,,,,,,,,,,,,,,,,,,,,
,5f7bdb159226d61cae55f330,001,2022-04-28_18h08.23.994,classification_task,2021.2.3,Win32,60.00960154,5f7bdb159226d61cae55f330,626b377229c10585ec392f8a,626b384415dee1dfbb7b19e2,,,,,,,,,,,,,,,,,,,,,,,,,,,,,,,,,,,,,,,0, ,,0,1.210868607,181.6757,0,2,2,2,1,2,3,,,,,,,,,,,,,,,,,
,5f7bdb159226d61cae55f330,001,2022-04-28_18h08.23.994,classification_task,2021.2.3,Win32,60.00960154,5f7bdb159226d61cae55f330,626b377229c10585ec392f8a,626b384415dee1dfbb7b19e2,,,,,,,,,,,,,,,,,,,,,,,,,,,,,,,,,,,,,,,1,  ,,0,2.795414462,182.739,0,2,2,2,1,2,3,,,,,,,,,,,,,,,,,
,5f7bdb159226d61cae55f330,001,2022-04-28_18h08.23.994,classification_task,2021.2.3,Win32,60.00960154,5f7bdb159226d61cae55f330,626b377229c10585ec392f8a,626b384415dee1dfbb7b19e2,,,,,,,,,,,,,,,,,,,,,,,,,,,,,,,,,,,,,,,2,  ,,0,3.656580688,185.9033,0,2,2,2,1,2,3,,,,,,,,,,,,,,,,,
,5f7bdb159226d61cae55f330,001,2022-04-28_18h08.23.994,classification_task,2021.2.3,Win32,60.00960154,5f7bdb159226d61cae55f330,626b377229c10585ec392f8a,626b384415dee1dfbb7b19e2,,,,,,,,,,,,,,,,,,,,,,,,,,,,,,,,,,,,,,,,,,,,,0,2,2,2,1,,3,,,,,,,,,,,,,,,,,
,5f7bdb159226d61cae55f330,001,2022-04-28_18h08.23.994,classification_task,2021.2.3,Win32,60.00960154,5f7bdb159226d61cae55f330,626b377229c10585ec392f8a,626b384415dee1dfbb7b19e2,,,,,,,,,,,,,,,,,,,,,,,,,,,,,,,,,,,,,,,,,,,,,,,,,,,,,I believe the aid is a competent performer,,0.7,0,4,989.4809,0,0,0,0,1,0,,,,
,5f7bdb159226d61cae55f330,001,2022-04-28_18h08.23.994,classification_task,2021.2.3,Win32,60.00960154,5f7bdb159226d61cae55f330,626b377229c10585ec392f8a,626b384415dee1dfbb7b19e2,,,,,,,,,,,,,,,,,,,,,,,,,,,,,,,,,,,,,,,,,,,,,,,,,,,,,I trust the aid,,0.7,0,4,991.024,0,0,0,0,1,0,,,,
,5f7bdb159226d61cae55f330,001,2022-04-28_18h08.23.994,classification_task,2021.2.3,Win32,60.00960154,5f7bdb159226d61cae55f330,626b377229c10585ec392f8a,626b384415dee1dfbb7b19e2,,,,,,,,,,,,,,,,,,,,,,,,,,,,,,,,,,,,,,,,,,,,,,,,,,,,,I have confidence in the advice given by the aid,,0.7,0,4,992.1744,0,0,0,0,1,0,,,,
,5f7bdb159226d61cae55f330,001,2022-04-28_18h08.23.994,classification_task,2021.2.3,Win32,60.00960154,5f7bdb159226d61cae55f330,626b377229c10585ec392f8a,626b384415dee1dfbb7b19e2,,,,,,,,,,,,,,,,,,,,,,,,,,,,,,,,,,,,,,,,,,,,,,,,,,,,,I can depend on the aid,,0.7,0,4,993.7254,0,0,0,0,1,0,,,,
,5f7bdb159226d61cae55f330,001,2022-04-28_18h08.23.994,classification_task,2021.2.3,Win32,60.00960154,5f7bdb159226d61cae55f330,626b377229c10585ec392f8a,626b384415dee1dfbb7b19e2,,,,,,,,,,,,,,,,,,,,,,,,,,,,,,,,,,,,,,,,,,,,,,,,,,,,,I can rely on the aid to behave in consistent ways,,0.7,0,4,996.1325,0,0,0,0,1,0,,,,
,5f7bdb159226d61cae55f330,001,2022-04-28_18h08.23.994,classification_task,2021.2.3,Win32,60.00960154,5f7bdb159226d61cae55f330,626b377229c10585ec392f8a,626b384415dee1dfbb7b19e2,,,,,,,,,,,,,,,,,,,,,,,,,,,,,,,,,,,,,,,,,,,,,,,,,,,,,I can rely on the aid to do its best every time I take its advice,,0.7,0,4,995.2571,0,0,0,0,1,0,,,,
,5f7bdb159226d61cae55f330,001,2022-04-28_18h08.23.994,classification_task,2021.2.3,Win32,60.00960154,5f7bdb159226d61cae55f330,626b377229c10585ec392f8a,626b384415dee1dfbb7b19e2,,,,,,,,,,,,,,,,,,,,,,,,,,,,,,,,,,,,,,,,,,,,,,,,,,,,,"On trials you completed with assistance from the aid, how frequently did you think the aid was correct?",,0.7,0,100,,0,0,0,0,1,0,,,,
,5f7bdb159226d61cae55f330,001,2022-04-28_18h08.23.994,classification_task,2021.2.3,Win32,60.00960154,5f7bdb159226d61cae55f330,626b377229c10585ec392f8a,626b384415dee1dfbb7b19e2,,,,,,,,,,,,,,,,,,,,,,,,,,,,,,,,,,,,,,,,,,,,,,,,,,,,,"On trials you completed without the aid, how frequently did you think you were correct?",,0.7,0,70,,0,0,0,0,1,0,,,,
,5f7bdb159226d61cae55f330,001,2022-04-28_18h08.23.994,classification_task,2021.2.3,Win32,60.00960154,5f7bdb159226d61cae55f330,626b377229c10585ec392f8a,626b384415dee1dfbb7b19e2,,,,,,,,,,,,,,,,,,,,,,,,,,,,,,,,,,,,,,,,,,,,,,,,,,,,,,,,,,,0,0,0,0,1,,,,,
,5f7bdb159226d61cae55f330,001,2022-04-28_18h08.23.994,classification_task,2021.2.3,Win32,60.00960154,5f7bdb159226d61cae55f330,626b377229c10585ec392f8a,626b384415dee1dfbb7b19e2,,,,,,,,,,,,,,,,,,,,,,,,,,,,,,,,,,,,,,,,,,,,,,,,,,,,,,,,,,,,,,,,,space,9.2078,1021.0225,
,5f7bdb159226d61cae55f330,001,2022-04-28_18h08.23.994,classification_task,2021.2.3,Win32,60.00960154,5f7bdb159226d61cae55f330,626b377229c10585ec392f8a,626b384415dee1dfbb7b19e2,,,,,,,,,,,,,,,,,,,,,,,,,,,,,,,,,,,,,,,,,,,,,,,,,,,,,,,,,,,,,,,,,,,,"Mozilla/5.0 (Windows NT 6.3; Win64; x64) AppleWebKit/537.36 (KHTML, like Gecko) Chrome/100.0.4896.127 Safari/537.36"
