usingWebGL,participant,session,date,expName,psychopyVersion,OS,frameRate,study_id,signatures_friend,signatures_foe,band_ranges_top,band_ranges_bottom,formitemText,formtype,formundefined,formitemWidth,formindex,formresponse,formrt,key_resp_2.keys,key_resp_2.rt,tute_resp.keys,tute_resp.rt,tutorial.thisRepN,tutorial.thisTrialN,tutorial.thisN,tutorial.thisIndex,tutorial.ran,key_resp_4.keys,key_resp_4.rt,key_resp.keys,key_resp.corr,key_resp.rt,lines_presented,is_signal_presented,trials.thisRepN,trials.thisTrialN,trials.thisN,trials.thisIndex,trials.ran,vessel,active_band,lines,is_signal,supported_pos,catch_trial,debrief_formindex,debrief_formitemText,debrief_formtype,debrief_formitemWidth,debrief_formresponse,debrief_formrt,phases.thisRepN,phases.thisTrialN,phases.thisN,phases.thisIndex,phases.ran,phases.order,phase,key_resp_3.keys,trustitemText,trusttype,trustitemWidth,trustindex,trustresponse,trustrt,support_status.thisRepN,support_status.thisTrialN,support_status.thisN,support_status.thisIndex,support_status.ran,support_status.order,key_resp_5.keys,key_resp_5.rt,globalClockTime,userAgent,manualCondition
TRUE,5f80a6f92dac9e105a84b405,627c7bbf2738a7bf892f4efb,2022-05-11_21h17.12.161,classification_task,2021.2.3,Win32,60.07810153,627c6715c52fd12f31907bcf,,,,,,,,,,,,,,,,,,,,,,,,,,,,,,,,,,,,,,,,,,,,,,,,,,,,,,,,,,,,,,,,,,,,,
,5f80a6f92dac9e105a84b405,627c7bbf2738a7bf892f4efb,2022-05-11_21h17.12.161,classification_task,2021.2.3,Win32,60.07810153,627c6715c52fd12f31907bcf,"[[""0.314"",""0.457"",""0.879"",""0.946""],[""0.272"",""0.355"",""0.662"",""0.845""]]","[[""0.132"",""0.171"",""0.494"",""0.751""],[""0.072"",""0.389"",""0.538"",""0.698""]]","[1,10]","[100,1000]",Video game experience,,,0.7,0,,,,,,,,,,,,,,,,,,,,,,,,,,,,,,,,,,,,,,,,,,,,,,,,,,,,,,,,,,,,
,5f80a6f92dac9e105a84b405,627c7bbf2738a7bf892f4efb,2022-05-11_21h17.12.161,classification_task,2021.2.3,Win32,60.07810153,627c6715c52fd12f31907bcf,,,,,Approximately how many hours did you spend playing video games in the last week?,,,0.7,0,12,,,,,,,,,,,,,,,,,,,,,,,,,,,,,,,,,,,,,,,,,,,,,,,,,,,,,,,,,,,
,5f80a6f92dac9e105a84b405,627c7bbf2738a7bf892f4efb,2022-05-11_21h17.12.161,classification_task,2021.2.3,Win32,60.07810153,627c6715c52fd12f31907bcf,,,,,"Which game did you play the most this year? (Enter ""None"" if you didn't play any)",,,0.7,0,Elden Ring,,,,,,,,,,,,,,,,,,,,,,,,,,,,,,,,,,,,,,,,,,,,,,,,,,,,,,,,,,,
,5f80a6f92dac9e105a84b405,627c7bbf2738a7bf892f4efb,2022-05-11_21h17.12.161,classification_task,2021.2.3,Win32,60.07810153,627c6715c52fd12f31907bcf,,,,,Visual perception,,,0.7,0,,,,,,,,,,,,,,,,,,,,,,,,,,,,,,,,,,,,,,,,,,,,,,,,,,,,,,,,,,,,
,5f80a6f92dac9e105a84b405,627c7bbf2738a7bf892f4efb,2022-05-11_21h17.12.161,classification_task,2021.2.3,Win32,60.07810153,627c6715c52fd12f31907bcf,,,,,Do you have any form of color blindness?,,,0.7,0,No,36.3032,,,,,,,,,,,,,,,,,,,,,,,,,,,,,,,,,,,,,,,,,,,,,,,,,,,,,,,,,,
,5f80a6f92dac9e105a84b405,627c7bbf2738a7bf892f4efb,2022-05-11_21h17.12.161,classification_task,2021.2.3,Win32,60.07810153,627c6715c52fd12f31907bcf,,,,,Do you use software to change the colour temperature of your screen (e.g. f.lux)?,,,0.7,0,No,72.1373,,,,,,,,,,,,,,,,,,,,,,,,,,,,,,,,,,,,,,,,,,,,,,,,,,,,,,,,,,
,5f80a6f92dac9e105a84b405,627c7bbf2738a7bf892f4efb,2022-05-11_21h17.12.161,classification_task,2021.2.3,Win32,60.07810153,627c6715c52fd12f31907bcf,,,,,,,,,,,,space,39.2567,space,22.3104,0,0,0,0,1,,,,,,,,,,,,,,,,,,,,,,,,,,,,,,,,,,,,,,,,,,,,,,,,,
,5f80a6f92dac9e105a84b405,627c7bbf2738a7bf892f4efb,2022-05-11_21h17.12.161,classification_task,2021.2.3,Win32,60.07810153,627c6715c52fd12f31907bcf,,,,,,,,,,,,,,space,8.9662,1,0,1,0,1,,,,,,,,,,,,,,,,,,,,,,,,,,,,,,,,,,,,,,,,,,,,,,,,,
,5f80a6f92dac9e105a84b405,627c7bbf2738a7bf892f4efb,2022-05-11_21h17.12.161,classification_task,2021.2.3,Win32,60.07810153,627c6715c52fd12f31907bcf,,,,,,,,,,,,,,space,28.3144,2,0,2,0,1,,,,,,,,,,,,,,,,,,,,,,,,,,,,,,,,,,,,,,,,,,,,,,,,,
,5f80a6f92dac9e105a84b405,627c7bbf2738a7bf892f4efb,2022-05-11_21h17.12.161,classification_task,2021.2.3,Win32,60.07810153,627c6715c52fd12f31907bcf,,,,,,,,,,,,,,space,11.0315,3,0,3,0,1,,,,,,,,,,,,,,,,,,,,,,,,,,,,,,,,,,,,,,,,,,,,,,,,,
,5f80a6f92dac9e105a84b405,627c7bbf2738a7bf892f4efb,2022-05-11_21h17.12.161,classification_task,2021.2.3,Win32,60.07810153,627c6715c52fd12f31907bcf,,,,,,,,,,,,,,space,23.5354,4,0,4,0,1,,,,,,,,,,,,,,,,,,,,,,,,,,,,,,,,,,,,,,,,,,,,,,,,,
,5f80a6f92dac9e105a84b405,627c7bbf2738a7bf892f4efb,2022-05-11_21h17.12.161,classification_task,2021.2.3,Win32,60.07810153,627c6715c52fd12f31907bcf,,,,,,,,,,,,,,,,,,,,,space,105.3175,a,1,8.9269,"[""0.272"",""0.030"",""0.662"",""0.845""]","[1,0,1,1]",0,0,0,0,1,0,1,,,1,FALSE,,,,,,,,,,,,,,,,,,,,,,,,,,,,,,,
,5f80a6f92dac9e105a84b405,627c7bbf2738a7bf892f4efb,2022-05-11_21h17.12.161,classification_task,2021.2.3,Win32,60.07810153,627c6715c52fd12f31907bcf,,,,,,,,,,,,,,,,,,,,,,,a,1,5.9657,"[""0.272"",""0.355"",""0.662"",""0.629""]","[1,1,1,0]",0,1,1,1,1,0,1,,,1,FALSE,,,,,,,,,,,,,,,,,,,,,,,,,,,,,,,
,5f80a6f92dac9e105a84b405,627c7bbf2738a7bf892f4efb,2022-05-11_21h17.12.161,classification_task,2021.2.3,Win32,60.07810153,627c6715c52fd12f31907bcf,,,,,,,,,,,,,,,,,,,,,,,l,1,4.0129,"[""0.072"",""0.389"",""0.538"",""0.804""]","[1,1,1,0]",0,2,2,2,1,1,1,,,1,FALSE,,,,,,,,,,,,,,,,,,,,,,,,,,,,,,,
,5f80a6f92dac9e105a84b405,627c7bbf2738a7bf892f4efb,2022-05-11_21h17.12.161,classification_task,2021.2.3,Win32,60.07810153,627c6715c52fd12f31907bcf,,,,,,,,,,,,,,,,,,,,,,,a,1,4.3812,"[""0.272"",""0.355"",""0.616"",""0.845""]","[1,1,0,1]",0,3,3,3,1,0,1,,,1,FALSE,,,,,,,,,,,,,,,,,,,,,,,,,,,,,,,
,5f80a6f92dac9e105a84b405,627c7bbf2738a7bf892f4efb,2022-05-11_21h17.12.161,classification_task,2021.2.3,Win32,60.07810153,627c6715c52fd12f31907bcf,,,,,,,,,,,,,,,,,,,,,,,l,1,3.999,"[""0.132"",""0.171"",""0.494"",""0.239""]","[1,1,1,0]",0,4,4,4,1,1,0,,,1,FALSE,,,,,,,,,,,,,,,,,,,,,,,,,,,,,,,
,5f80a6f92dac9e105a84b405,627c7bbf2738a7bf892f4efb,2022-05-11_21h17.12.161,classification_task,2021.2.3,Win32,60.07810153,627c6715c52fd12f31907bcf,,,,,,,,,,,,,,,,,,,,,,,l,1,4.2449,"[""0.132"",""0.171"",""0.239"",""0.751""]","[1,1,0,1]",0,5,5,5,1,1,0,,,1,FALSE,,,,,,,,,,,,,,,,,,,,,,,,,,,,,,,
,5f80a6f92dac9e105a84b405,627c7bbf2738a7bf892f4efb,2022-05-11_21h17.12.161,classification_task,2021.2.3,Win32,60.07810153,627c6715c52fd12f31907bcf,,,,,,,,,,,,,,,,,,,,,,,l,1,2.2885,"[""0.072"",""0.389"",""0.629"",""0.698""]","[1,1,0,1]",0,6,6,6,1,1,1,,,1,FALSE,,,,,,,,,,,,,,,,,,,,,,,,,,,,,,,
,5f80a6f92dac9e105a84b405,627c7bbf2738a7bf892f4efb,2022-05-11_21h17.12.161,classification_task,2021.2.3,Win32,60.07810153,627c6715c52fd12f31907bcf,,,,,,,,,,,,,,,,,,,,,,,a,1,7.2737,"[""0.314"",""0.030"",""0.879"",""0.946""]","[1,0,1,1]",0,7,7,7,1,0,0,,,1,FALSE,,,,,,,,,,,,,,,,,,,,,,,,,,,,,,,
,5f80a6f92dac9e105a84b405,627c7bbf2738a7bf892f4efb,2022-05-11_21h17.12.161,classification_task,2021.2.3,Win32,60.07810153,627c6715c52fd12f31907bcf,,,,,,,,,,,,,,,,,,,,,,,a,1,7.8271,"[""0.314"",""0.457"",""0.205"",""0.946""]","[1,1,0,1]",0,8,8,8,1,0,0,,,1,FALSE,,,,,,,,,,,,,,,,,,,,,,,,,,,,,,,
,5f80a6f92dac9e105a84b405,627c7bbf2738a7bf892f4efb,2022-05-11_21h17.12.161,classification_task,2021.2.3,Win32,60.07810153,627c6715c52fd12f31907bcf,,,,,,,,,,,,,,,,,,,,,,,l,1,7.3461,"[""0.034"",""0.389"",""0.538"",""0.698""]","[0,1,1,1]",0,9,9,9,1,1,1,,,1,FALSE,,,,,,,,,,,,,,,,,,,,,,,,,,,,,,,
,5f80a6f92dac9e105a84b405,627c7bbf2738a7bf892f4efb,2022-05-11_21h17.12.161,classification_task,2021.2.3,Win32,60.07810153,627c6715c52fd12f31907bcf,,,,,,,,,,,,,,,,,,,,,,,a,1,2.726,"[""0.314"",""0.457"",""0.879"",""0.616""]","[1,1,1,0]",0,10,10,10,1,0,0,,,1,FALSE,,,,,,,,,,,,,,,,,,,,,,,,,,,,,,,
,5f80a6f92dac9e105a84b405,627c7bbf2738a7bf892f4efb,2022-05-11_21h17.12.161,classification_task,2021.2.3,Win32,60.07810153,627c6715c52fd12f31907bcf,,,,,,,,,,,,,,,,,,,,,,,l,1,4.2634,"[""0.132"",""0.628"",""0.494"",""0.751""]","[1,0,1,1]",0,11,11,11,1,1,0,,,1,FALSE,,,,,,,,,,,,,,,,,,,,,,,,,,,,,,,
,5f80a6f92dac9e105a84b405,627c7bbf2738a7bf892f4efb,2022-05-11_21h17.12.161,classification_task,2021.2.3,Win32,60.07810153,627c6715c52fd12f31907bcf,,,,,,,,,,,,,,,,,,,,,,,a,1,5.476,"[""0.212"",""0.457"",""0.879"",""0.946""]","[0,1,1,1]",0,12,12,12,1,0,0,,,1,FALSE,,,,,,,,,,,,,,,,,,,,,,,,,,,,,,,
,5f80a6f92dac9e105a84b405,627c7bbf2738a7bf892f4efb,2022-05-11_21h17.12.161,classification_task,2021.2.3,Win32,60.07810153,627c6715c52fd12f31907bcf,,,,,,,,,,,,,,,,,,,,,,,a,1,6.091,"[""0.030"",""0.355"",""0.662"",""0.845""]","[0,1,1,1]",0,13,13,13,1,0,1,,,1,FALSE,,,,,,,,,,,,,,,,,,,,,,,,,,,,,,,
,5f80a6f92dac9e105a84b405,627c7bbf2738a7bf892f4efb,2022-05-11_21h17.12.161,classification_task,2021.2.3,Win32,60.07810153,627c6715c52fd12f31907bcf,,,,,,,,,,,,,,,,,,,,,,,l,1,5.6749,"[""0.583"",""0.171"",""0.494"",""0.751""]","[0,1,1,1]",0,14,14,14,1,1,0,,,1,FALSE,,,,,,,,,,,,,,,,,,,,,,,,,,,,,,,
,5f80a6f92dac9e105a84b405,627c7bbf2738a7bf892f4efb,2022-05-11_21h17.12.161,classification_task,2021.2.3,Win32,60.07810153,627c6715c52fd12f31907bcf,,,,,,,,,,,,,,,,,,,,,,,l,1,4.3226,"[""0.072"",""0.583"",""0.538"",""0.698""]","[1,0,1,1]",0,15,15,15,1,1,1,,,1,FALSE,,,,,,,,,,,,,,,,,,,,,,,,,,,,,,,
,5f80a6f92dac9e105a84b405,627c7bbf2738a7bf892f4efb,2022-05-11_21h17.12.161,classification_task,2021.2.3,Win32,60.07810153,627c6715c52fd12f31907bcf,,,,,,,,,,,,,,,,,,,,,,,a,1,6.1971,"[""0.614"",""0.355"",""0.662"",""0.845""]","[0,1,1,1]",0,16,16,16,1,0,1,,,1,FALSE,,,,,,,,,,,,,,,,,,,,,,,,,,,,,,,
,5f80a6f92dac9e105a84b405,627c7bbf2738a7bf892f4efb,2022-05-11_21h17.12.161,classification_task,2021.2.3,Win32,60.07810153,627c6715c52fd12f31907bcf,,,,,,,,,,,,,,,,,,,,,,,a,1,6.5148,"[""0.272"",""0.355"",""0.662"",""0.616""]","[1,1,1,0]",0,17,17,17,1,0,1,,,1,FALSE,,,,,,,,,,,,,,,,,,,,,,,,,,,,,,,
,5f80a6f92dac9e105a84b405,627c7bbf2738a7bf892f4efb,2022-05-11_21h17.12.161,classification_task,2021.2.3,Win32,60.07810153,627c6715c52fd12f31907bcf,,,,,,,,,,,,,,,,,,,,,,,a,1,9.764,"[""0.314"",""0.457"",""0.879"",""0.034""]","[1,1,1,0]",0,18,18,18,1,0,0,,,1,FALSE,,,,,,,,,,,,,,,,,,,,,,,,,,,,,,,
,5f80a6f92dac9e105a84b405,627c7bbf2738a7bf892f4efb,2022-05-11_21h17.12.161,classification_task,2021.2.3,Win32,60.07810153,627c6715c52fd12f31907bcf,,,,,,,,,,,,,,,,,,,,,,,l,1,4.2998,"[""0.034"",""0.389"",""0.538"",""0.698""]","[0,1,1,1]",0,19,19,19,1,1,1,,,1,FALSE,,,,,,,,,,,,,,,,,,,,,,,,,,,,,,,
,5f80a6f92dac9e105a84b405,627c7bbf2738a7bf892f4efb,2022-05-11_21h17.12.161,classification_task,2021.2.3,Win32,60.07810153,627c6715c52fd12f31907bcf,,,,,,,,,,,,,,,,,,,,,,,l,1,5.7044,"[""0.579"",""0.171"",""0.494"",""0.751""]","[0,1,1,1]",0,20,20,20,1,1,0,,,1,FALSE,,,,,,,,,,,,,,,,,,,,,,,,,,,,,,,
,5f80a6f92dac9e105a84b405,627c7bbf2738a7bf892f4efb,2022-05-11_21h17.12.161,classification_task,2021.2.3,Win32,60.07810153,627c6715c52fd12f31907bcf,,,,,,,,,,,,,,,,,,,,,,,l,1,4.9979,"[""0.072"",""0.030"",""0.538"",""0.698""]","[1,0,1,1]",0,21,21,21,1,1,1,,,1,FALSE,,,,,,,,,,,,,,,,,,,,,,,,,,,,,,,
,5f80a6f92dac9e105a84b405,627c7bbf2738a7bf892f4efb,2022-05-11_21h17.12.161,classification_task,2021.2.3,Win32,60.07810153,627c6715c52fd12f31907bcf,,,,,,,,,,,,,,,,,,,,,,,l,1,5.7611,"[""0.132"",""0.171"",""0.614"",""0.751""]","[1,1,0,1]",0,22,22,22,1,1,0,,,1,FALSE,,,,,,,,,,,,,,,,,,,,,,,,,,,,,,,
,5f80a6f92dac9e105a84b405,627c7bbf2738a7bf892f4efb,2022-05-11_21h17.12.161,classification_task,2021.2.3,Win32,60.07810153,627c6715c52fd12f31907bcf,,,,,,,,,,,,,,,,,,,,,,,l,1,3.1432,"[""0.072"",""0.389"",""0.538"",""0.579""]","[1,1,1,0]",0,23,23,23,1,1,1,,,1,FALSE,,,,,,,,,,,,,,,,,,,,,,,,,,,,,,,
,5f80a6f92dac9e105a84b405,627c7bbf2738a7bf892f4efb,2022-05-11_21h17.12.161,classification_task,2021.2.3,Win32,60.07810153,627c6715c52fd12f31907bcf,,,,,,,,,,,,,,,,,,,,,,,l,0,1.7499,"[""0.314"",""0.457"",""0.239"",""0.946""]","[1,1,0,1]",0,24,24,24,1,0,0,,,1,FALSE,,,,,,,,,,,,,,,,,,,,,,,,,,,,,,,
,5f80a6f92dac9e105a84b405,627c7bbf2738a7bf892f4efb,2022-05-11_21h17.12.161,classification_task,2021.2.3,Win32,60.07810153,627c6715c52fd12f31907bcf,,,,,,,,,,,,,,,,,,,,,,,l,1,5.6506,"[""0.132"",""0.171"",""0.494"",""0.626""]","[1,1,1,0]",0,25,25,25,1,1,0,,,1,FALSE,,,,,,,,,,,,,,,,,,,,,,,,,,,,,,,
,5f80a6f92dac9e105a84b405,627c7bbf2738a7bf892f4efb,2022-05-11_21h17.12.161,classification_task,2021.2.3,Win32,60.07810153,627c6715c52fd12f31907bcf,,,,,,,,,,,,,,,,,,,,,,,a,1,2.6796,"[""0.272"",""0.629"",""0.662"",""0.845""]","[1,0,1,1]",0,26,26,26,1,0,1,,,1,FALSE,,,,,,,,,,,,,,,,,,,,,,,,,,,,,,,
,5f80a6f92dac9e105a84b405,627c7bbf2738a7bf892f4efb,2022-05-11_21h17.12.161,classification_task,2021.2.3,Win32,60.07810153,627c6715c52fd12f31907bcf,,,,,,,,,,,,,,,,,,,,,,,a,1,4.4973,"[""0.235"",""0.457"",""0.879"",""0.946""]","[0,1,1,1]",0,27,27,27,1,0,0,,,1,FALSE,,,,,,,,,,,,,,,,,,,,,,,,,,,,,,,
,5f80a6f92dac9e105a84b405,627c7bbf2738a7bf892f4efb,2022-05-11_21h17.12.161,classification_task,2021.2.3,Win32,60.07810153,627c6715c52fd12f31907bcf,,,,,,,,,,,,,,,,,,,,,,,l,1,4.6141,"[""0.132"",""0.030"",""0.494"",""0.751""]","[1,0,1,1]",0,28,28,28,1,1,0,,,1,FALSE,,,,,,,,,,,,,,,,,,,,,,,,,,,,,,,
,5f80a6f92dac9e105a84b405,627c7bbf2738a7bf892f4efb,2022-05-11_21h17.12.161,classification_task,2021.2.3,Win32,60.07810153,627c6715c52fd12f31907bcf,,,,,,,,,,,,,,,,,,,,,,,a,1,3.1653,"[""0.272"",""0.355"",""0.616"",""0.845""]","[1,1,0,1]",0,29,29,29,1,0,1,,,1,FALSE,,,,,,,,,,,,,,,,,,,,,,,,,,,,,,,
,5f80a6f92dac9e105a84b405,627c7bbf2738a7bf892f4efb,2022-05-11_21h17.12.161,classification_task,2021.2.3,Win32,60.07810153,627c6715c52fd12f31907bcf,,,,,,,,,,,,,,,,,,,,,,,a,1,4.8482,"[""0.314"",""0.579"",""0.879"",""0.946""]","[1,0,1,1]",0,30,30,30,1,0,0,,,1,FALSE,,,,,,,,,,,,,,,,,,,,,,,,,,,,,,,
,5f80a6f92dac9e105a84b405,627c7bbf2738a7bf892f4efb,2022-05-11_21h17.12.161,classification_task,2021.2.3,Win32,60.07810153,627c6715c52fd12f31907bcf,,,,,,,,,,,,,,,,,,,,,,,l,1,2.8249,"[""0.072"",""0.389"",""0.591"",""0.698""]","[1,1,0,1]",0,31,31,31,1,1,1,,,1,FALSE,,,,,,,,,,,,,,,,,,,,,,,,,,,,,,,
,5f80a6f92dac9e105a84b405,627c7bbf2738a7bf892f4efb,2022-05-11_21h17.12.161,classification_task,2021.2.3,Win32,60.07810153,627c6715c52fd12f31907bcf,,,,,,,,,,,,,,,,,,,,,,,l,1,6.3328,"[""0.030"",""0.389"",""0.538"",""0.698""]","[0,1,1,1]",0,32,32,32,1,1,1,,,1,FALSE,,,,,,,,,,,,,,,,,,,,,,,,,,,,,,,
,5f80a6f92dac9e105a84b405,627c7bbf2738a7bf892f4efb,2022-05-11_21h17.12.161,classification_task,2021.2.3,Win32,60.07810153,627c6715c52fd12f31907bcf,,,,,,,,,,,,,,,,,,,,,,,a,1,2.5939,"[""0.272"",""0.355"",""0.662"",""0.628""]","[1,1,1,0]",0,33,33,33,1,0,1,,,1,FALSE,,,,,,,,,,,,,,,,,,,,,,,,,,,,,,,
,5f80a6f92dac9e105a84b405,627c7bbf2738a7bf892f4efb,2022-05-11_21h17.12.161,classification_task,2021.2.3,Win32,60.07810153,627c6715c52fd12f31907bcf,,,,,,,,,,,,,,,,,,,,,,,a,1,2.4479,"[""0.804"",""0.355"",""0.662"",""0.845""]","[0,1,1,1]",0,34,34,34,1,0,1,,,1,FALSE,,,,,,,,,,,,,,,,,,,,,,,,,,,,,,,
,5f80a6f92dac9e105a84b405,627c7bbf2738a7bf892f4efb,2022-05-11_21h17.12.161,classification_task,2021.2.3,Win32,60.07810153,627c6715c52fd12f31907bcf,,,,,,,,,,,,,,,,,,,,,,,a,1,4.1677,"[""0.314"",""0.626"",""0.879"",""0.946""]","[1,0,1,1]",0,35,35,35,1,0,0,,,1,FALSE,,,,,,,,,,,,,,,,,,,,,,,,,,,,,,,
,5f80a6f92dac9e105a84b405,627c7bbf2738a7bf892f4efb,2022-05-11_21h17.12.161,classification_task,2021.2.3,Win32,60.07810153,627c6715c52fd12f31907bcf,,,,,,,,,,,,,,,,,,,,,,,a,1,6.6264,"[""0.272"",""0.355"",""0.804"",""0.845""]","[1,1,0,1]",0,36,36,36,1,0,1,,,1,FALSE,,,,,,,,,,,,,,,,,,,,,,,,,,,,,,,
,5f80a6f92dac9e105a84b405,627c7bbf2738a7bf892f4efb,2022-05-11_21h17.12.161,classification_task,2021.2.3,Win32,60.07810153,627c6715c52fd12f31907bcf,,,,,,,,,,,,,,,,,,,,,,,a,1,2.3171,"[""0.628"",""0.457"",""0.879"",""0.946""]","[0,1,1,1]",0,37,37,37,1,0,0,,,1,FALSE,,,,,,,,,,,,,,,,,,,,,,,,,,,,,,,
,5f80a6f92dac9e105a84b405,627c7bbf2738a7bf892f4efb,2022-05-11_21h17.12.161,classification_task,2021.2.3,Win32,60.07810153,627c6715c52fd12f31907bcf,,,,,,,,,,,,,,,,,,,,,,,a,0,2.5769,"[""0.132"",""0.171"",""0.626"",""0.751""]","[1,1,0,1]",0,38,38,38,1,1,0,,,1,FALSE,,,,,,,,,,,,,,,,,,,,,,,,,,,,,,,
,5f80a6f92dac9e105a84b405,627c7bbf2738a7bf892f4efb,2022-05-11_21h17.12.161,classification_task,2021.2.3,Win32,60.07810153,627c6715c52fd12f31907bcf,,,,,,,,,,,,,,,,,,,,,,,l,1,3.159,"[""0.132"",""0.579"",""0.494"",""0.751""]","[1,0,1,1]",0,39,39,39,1,1,0,,,1,FALSE,,,,,,,,,,,,,,,,,,,,,,,,,,,,,,,
,5f80a6f92dac9e105a84b405,627c7bbf2738a7bf892f4efb,2022-05-11_21h17.12.161,classification_task,2021.2.3,Win32,60.07810153,627c6715c52fd12f31907bcf,,,,,,,,,,,,,,,,,,,,,,,a,0,1.7439,"[""0.072"",""0.389"",""0.538"",""0.616""]","[1,1,1,0]",0,40,40,40,1,1,1,,,1,FALSE,,,,,,,,,,,,,,,,,,,,,,,,,,,,,,,
,5f80a6f92dac9e105a84b405,627c7bbf2738a7bf892f4efb,2022-05-11_21h17.12.161,classification_task,2021.2.3,Win32,60.07810153,627c6715c52fd12f31907bcf,,,,,,,,,,,,,,,,,,,,,,,l,1,2.4651,"[""0.132"",""0.171"",""0.494"",""0.629""]","[1,1,1,0]",0,41,41,41,1,1,0,,,1,FALSE,,,,,,,,,,,,,,,,,,,,,,,,,,,,,,,
,5f80a6f92dac9e105a84b405,627c7bbf2738a7bf892f4efb,2022-05-11_21h17.12.161,classification_task,2021.2.3,Win32,60.07810153,627c6715c52fd12f31907bcf,,,,,,,,,,,,,,,,,,,,,,,l,0,5.2773,"[""0.314"",""0.457"",""0.879"",""0.614""]","[1,1,1,0]",0,42,42,42,1,0,0,,,1,FALSE,,,,,,,,,,,,,,,,,,,,,,,,,,,,,,,
,5f80a6f92dac9e105a84b405,627c7bbf2738a7bf892f4efb,2022-05-11_21h17.12.161,classification_task,2021.2.3,Win32,60.07810153,627c6715c52fd12f31907bcf,,,,,,,,,,,,,,,,,,,,,,,a,0,3.9311,"[""0.072"",""0.616"",""0.538"",""0.698""]","[1,0,1,1]",0,43,43,43,1,1,1,,,1,FALSE,,,,,,,,,,,,,,,,,,,,,,,,,,,,,,,
,5f80a6f92dac9e105a84b405,627c7bbf2738a7bf892f4efb,2022-05-11_21h17.12.161,classification_task,2021.2.3,Win32,60.07810153,627c6715c52fd12f31907bcf,,,,,,,,,,,,,,,,,,,,,,,a,0,9.5435,"[""0.626"",""0.171"",""0.494"",""0.751""]","[0,1,1,1]",0,44,44,44,1,1,0,,,1,FALSE,,,,,,,,,,,,,,,,,,,,,,,,,,,,,,,
,5f80a6f92dac9e105a84b405,627c7bbf2738a7bf892f4efb,2022-05-11_21h17.12.161,classification_task,2021.2.3,Win32,60.07810153,627c6715c52fd12f31907bcf,,,,,,,,,,,,,,,,,,,,,,,a,0,2.9275,"[""0.072"",""0.389"",""0.614"",""0.698""]","[1,1,0,1]",0,45,45,45,1,1,1,,,1,FALSE,,,,,,,,,,,,,,,,,,,,,,,,,,,,,,,
,5f80a6f92dac9e105a84b405,627c7bbf2738a7bf892f4efb,2022-05-11_21h17.12.161,classification_task,2021.2.3,Win32,60.07810153,627c6715c52fd12f31907bcf,,,,,,,,,,,,,,,,,,,,,,,a,1,5.6829,"[""0.314"",""0.457"",""0.614"",""0.946""]","[1,1,0,1]",0,46,46,46,1,0,0,,,1,FALSE,,,,,,,,,,,,,,,,,,,,,,,,,,,,,,,
,5f80a6f92dac9e105a84b405,627c7bbf2738a7bf892f4efb,2022-05-11_21h17.12.161,classification_task,2021.2.3,Win32,60.07810153,627c6715c52fd12f31907bcf,,,,,,,,,,,,,,,,,,,,,,,a,1,3.7754,"[""0.272"",""0.579"",""0.662"",""0.845""]","[1,0,1,1]",0,47,47,47,1,0,1,,,1,FALSE,,,,,,,,,,,,,,,,,,,,,,,,,,,,,,,
,5f80a6f92dac9e105a84b405,627c7bbf2738a7bf892f4efb,2022-05-11_21h17.12.161,classification_task,2021.2.3,Win32,60.07810153,627c6715c52fd12f31907bcf,,,,,,,,,,,,,,,,,,,,,,,l,1,5.2023,"[""0.072"",""0.389"",""0.030"",""0.698""]","[1,1,0,1]",0,48,48,48,1,1,1,,,1,FALSE,,,,,,,,,,,,,,,,,,,,,,,,,,,,,,,
,5f80a6f92dac9e105a84b405,627c7bbf2738a7bf892f4efb,2022-05-11_21h17.12.161,classification_task,2021.2.3,Win32,60.07810153,627c6715c52fd12f31907bcf,,,,,,,,,,,,,,,,,,,,,,,l,1,5.4923,"[""0.583"",""0.389"",""0.538"",""0.698""]","[0,1,1,1]",0,49,49,49,1,1,1,,,1,FALSE,,,,,,,,,,,,,,,,,,,,,,,,,,,,,,,
,5f80a6f92dac9e105a84b405,627c7bbf2738a7bf892f4efb,2022-05-11_21h17.12.161,classification_task,2021.2.3,Win32,60.07810153,627c6715c52fd12f31907bcf,,,,,,,,,,,,,,,,,,,,,,,a,1,1.4953,"[""0.272"",""0.355"",""0.662"",""0.583""]","[1,1,1,0]",0,50,50,50,1,0,1,,,1,FALSE,,,,,,,,,,,,,,,,,,,,,,,,,,,,,,,
,5f80a6f92dac9e105a84b405,627c7bbf2738a7bf892f4efb,2022-05-11_21h17.12.161,classification_task,2021.2.3,Win32,60.07810153,627c6715c52fd12f31907bcf,,,,,,,,,,,,,,,,,,,,,,,l,1,3.8028,"[""0.072"",""0.389"",""0.538"",""0.583""]","[1,1,1,0]",0,51,51,51,1,1,1,,,1,FALSE,,,,,,,,,,,,,,,,,,,,,,,,,,,,,,,
,5f80a6f92dac9e105a84b405,627c7bbf2738a7bf892f4efb,2022-05-11_21h17.12.161,classification_task,2021.2.3,Win32,60.07810153,627c6715c52fd12f31907bcf,,,,,,,,,,,,,,,,,,,,,,,a,1,1.0598,"[""0.239"",""0.355"",""0.662"",""0.845""]","[0,1,1,1]",0,52,52,52,1,0,1,,,1,FALSE,,,,,,,,,,,,,,,,,,,,,,,,,,,,,,,
,5f80a6f92dac9e105a84b405,627c7bbf2738a7bf892f4efb,2022-05-11_21h17.12.161,classification_task,2021.2.3,Win32,60.07810153,627c6715c52fd12f31907bcf,,,,,,,,,,,,,,,,,,,,,,,l,0,5.6723,"[""0.314"",""0.457"",""0.879"",""0.626""]","[1,1,1,0]",0,53,53,53,1,0,0,,,1,FALSE,,,,,,,,,,,,,,,,,,,,,,,,,,,,,,,
,5f80a6f92dac9e105a84b405,627c7bbf2738a7bf892f4efb,2022-05-11_21h17.12.161,classification_task,2021.2.3,Win32,60.07810153,627c6715c52fd12f31907bcf,,,,,,,,,,,,,,,,,,,,,,,l,0,2.5423,"[""0.314"",""0.804"",""0.879"",""0.946""]","[1,0,1,1]",0,54,54,54,1,0,0,,,1,FALSE,,,,,,,,,,,,,,,,,,,,,,,,,,,,,,,
,5f80a6f92dac9e105a84b405,627c7bbf2738a7bf892f4efb,2022-05-11_21h17.12.161,classification_task,2021.2.3,Win32,60.07810153,627c6715c52fd12f31907bcf,,,,,,,,,,,,,,,,,,,,,,,a,0,3.1025,"[""0.132"",""0.171"",""0.591"",""0.751""]","[1,1,0,1]",0,55,55,55,1,1,0,,,1,FALSE,,,,,,,,,,,,,,,,,,,,,,,,,,,,,,,
,5f80a6f92dac9e105a84b405,627c7bbf2738a7bf892f4efb,2022-05-11_21h17.12.161,classification_task,2021.2.3,Win32,60.07810153,627c6715c52fd12f31907bcf,,,,,,,,,,,,,,,,,,,,,,,a,1,2.8777,"[""0.314"",""0.457"",""0.235"",""0.946""]","[1,1,0,1]",0,56,56,56,1,0,0,,,1,FALSE,,,,,,,,,,,,,,,,,,,,,,,,,,,,,,,
,5f80a6f92dac9e105a84b405,627c7bbf2738a7bf892f4efb,2022-05-11_21h17.12.161,classification_task,2021.2.3,Win32,60.07810153,627c6715c52fd12f31907bcf,,,,,,,,,,,,,,,,,,,,,,,a,1,0.6313,"[""0.205"",""0.457"",""0.879"",""0.946""]","[0,1,1,1]",0,57,57,57,1,0,0,,,1,FALSE,,,,,,,,,,,,,,,,,,,,,,,,,,,,,,,
,5f80a6f92dac9e105a84b405,627c7bbf2738a7bf892f4efb,2022-05-11_21h17.12.161,classification_task,2021.2.3,Win32,60.07810153,627c6715c52fd12f31907bcf,,,,,,,,,,,,,,,,,,,,,,,l,0,4.4979,"[""0.272"",""0.355"",""0.579"",""0.845""]","[1,1,0,1]",0,58,58,58,1,0,1,,,1,FALSE,,,,,,,,,,,,,,,,,,,,,,,,,,,,,,,
,5f80a6f92dac9e105a84b405,627c7bbf2738a7bf892f4efb,2022-05-11_21h17.12.161,classification_task,2021.2.3,Win32,60.07810153,627c6715c52fd12f31907bcf,,,,,,,,,,,,,,,,,,,,,,,l,0,2.0784,"[""0.272"",""0.034"",""0.662"",""0.845""]","[1,0,1,1]",0,59,59,59,1,0,1,,,1,FALSE,,,,,,,,,,,,,,,,,,,,,,,,,,,,,,,
,5f80a6f92dac9e105a84b405,627c7bbf2738a7bf892f4efb,2022-05-11_21h17.12.161,classification_task,2021.2.3,Win32,60.07810153,627c6715c52fd12f31907bcf,,,,,,,,,,,,,,,,,,,,,,,l,1,6.2896,"[""0.616"",""0.171"",""0.494"",""0.751""]","[0,1,1,1]",0,60,60,60,1,1,0,,,1,FALSE,,,,,,,,,,,,,,,,,,,,,,,,,,,,,,,
,5f80a6f92dac9e105a84b405,627c7bbf2738a7bf892f4efb,2022-05-11_21h17.12.161,classification_task,2021.2.3,Win32,60.07810153,627c6715c52fd12f31907bcf,,,,,,,,,,,,,,,,,,,,,,,l,1,1.3639,"[""0.132"",""0.171"",""0.494"",""0.628""]","[1,1,1,0]",0,61,61,61,1,1,0,,,1,FALSE,,,,,,,,,,,,,,,,,,,,,,,,,,,,,,,
,5f80a6f92dac9e105a84b405,627c7bbf2738a7bf892f4efb,2022-05-11_21h17.12.161,classification_task,2021.2.3,Win32,60.07810153,627c6715c52fd12f31907bcf,,,,,,,,,,,,,,,,,,,,,,,a,0,1.3155,"[""0.072"",""0.030"",""0.538"",""0.698""]","[1,0,1,1]",0,62,62,62,1,1,1,,,1,FALSE,,,,,,,,,,,,,,,,,,,,,,,,,,,,,,,
,5f80a6f92dac9e105a84b405,627c7bbf2738a7bf892f4efb,2022-05-11_21h17.12.161,classification_task,2021.2.3,Win32,60.07810153,627c6715c52fd12f31907bcf,,,,,,,,,,,,,,,,,,,,,,,l,1,1.5638,"[""0.132"",""0.626"",""0.494"",""0.751""]","[1,0,1,1]",0,63,63,63,1,1,0,,,1,FALSE,,,,,,,,,,,,,,,,,,,,,,,,,,,,,,,
,5f80a6f92dac9e105a84b405,627c7bbf2738a7bf892f4efb,2022-05-11_21h17.12.161,classification_task,2021.2.3,Win32,60.07810153,627c6715c52fd12f31907bcf,,,,,,,,,,,,,,,,,,,,,,,,,,,,,,,,,,,,,,,0, ,,0,1.405301925,745.5717,0,0,0,0,1,2,1,,,,,,,,,,,,,,,,,,
,5f80a6f92dac9e105a84b405,627c7bbf2738a7bf892f4efb,2022-05-11_21h17.12.161,classification_task,2021.2.3,Win32,60.07810153,627c6715c52fd12f31907bcf,,,,,,,,,,,,,,,,,,,,,,,,,,,,,,,,,,,,,,,1,  ,,0,7.284196693,749.2374,0,0,0,0,1,2,1,,,,,,,,,,,,,,,,,,
,5f80a6f92dac9e105a84b405,627c7bbf2738a7bf892f4efb,2022-05-11_21h17.12.161,classification_task,2021.2.3,Win32,60.07810153,627c6715c52fd12f31907bcf,,,,,,,,,,,,,,,,,,,,,,,,,,,,,,,,,,,,,,,2,  ,,0,2.189153813,743.962,0,0,0,0,1,2,1,,,,,,,,,,,,,,,,,,
,5f80a6f92dac9e105a84b405,627c7bbf2738a7bf892f4efb,2022-05-11_21h17.12.161,classification_task,2021.2.3,Win32,60.07810153,627c6715c52fd12f31907bcf,,,,,,,,,,,,,,,,,,,,,,,,,,,,,,,,,,,,,,,,,,,,,0,0,0,0,1,,1,,,,,,,,,,,,,,,,,,
,5f80a6f92dac9e105a84b405,627c7bbf2738a7bf892f4efb,2022-05-11_21h17.12.161,classification_task,2021.2.3,Win32,60.07810153,627c6715c52fd12f31907bcf,,,,,,,,,,,,,,,,,,,,,space,18.399,l,1,2.288,"[""0.072"",""0.030"",""0.538"",""0.698""]","[1,0,1,1]",0,0,0,0,1,1,1,,,1,FALSE,,,,,,,,,,,,,,,,,,,,,,,,,,,,,,,
,5f80a6f92dac9e105a84b405,627c7bbf2738a7bf892f4efb,2022-05-11_21h17.12.161,classification_task,2021.2.3,Win32,60.07810153,627c6715c52fd12f31907bcf,,,,,,,,,,,,,,,,,,,,,,,a,0,0.5902,"[""0.072"",""0.389"",""0.804"",""0.698""]","[1,1,0,1]",0,1,1,1,1,1,1,,,1,FALSE,,,,,,,,,,,,,,,,,,,,,,,,,,,,,,,
,5f80a6f92dac9e105a84b405,627c7bbf2738a7bf892f4efb,2022-05-11_21h17.12.161,classification_task,2021.2.3,Win32,60.07810153,627c6715c52fd12f31907bcf,,,,,,,,,,,,,,,,,,,,,,,a,1,5.2478,"[""0.579"",""0.457"",""0.879"",""0.946""]","[0,1,1,1]",0,2,2,2,1,0,0,,,1,FALSE,,,,,,,,,,,,,,,,,,,,,,,,,,,,,,,
,5f80a6f92dac9e105a84b405,627c7bbf2738a7bf892f4efb,2022-05-11_21h17.12.161,classification_task,2021.2.3,Win32,60.07810153,627c6715c52fd12f31907bcf,,,,,,,,,,,,,,,,,,,,,,,a,1,3.0421,"[""0.314"",""0.212"",""0.879"",""0.946""]","[1,0,1,1]",0,3,3,3,1,0,0,,,1,FALSE,,,,,,,,,,,,,,,,,,,,,,,,,,,,,,,
,5f80a6f92dac9e105a84b405,627c7bbf2738a7bf892f4efb,2022-05-11_21h17.12.161,classification_task,2021.2.3,Win32,60.07810153,627c6715c52fd12f31907bcf,,,,,,,,,,,,,,,,,,,,,,,a,1,0.8089,"[""0.034"",""0.355"",""0.662"",""0.845""]","[0,1,1,1]",0,4,4,4,1,0,1,,,1,FALSE,,,,,,,,,,,,,,,,,,,,,,,,,,,,,,,
,5f80a6f92dac9e105a84b405,627c7bbf2738a7bf892f4efb,2022-05-11_21h17.12.161,classification_task,2021.2.3,Win32,60.07810153,627c6715c52fd12f31907bcf,,,,,,,,,,,,,,,,,,,,,,,a,1,2.7874,"[""0.314"",""0.457"",""0.626"",""0.946""]","[1,1,0,1]",0,5,5,5,1,0,0,,,1,FALSE,,,,,,,,,,,,,,,,,,,,,,,,,,,,,,,
,5f80a6f92dac9e105a84b405,627c7bbf2738a7bf892f4efb,2022-05-11_21h17.12.161,classification_task,2021.2.3,Win32,60.07810153,627c6715c52fd12f31907bcf,,,,,,,,,,,,,,,,,,,,,,,l,1,1.5933,"[""0.132"",""0.171"",""0.494"",""0.235""]","[1,1,1,0]",0,6,6,6,1,1,0,,,1,FALSE,,,,,,,,,,,,,,,,,,,,,,,,,,,,,,,
,5f80a6f92dac9e105a84b405,627c7bbf2738a7bf892f4efb,2022-05-11_21h17.12.161,classification_task,2021.2.3,Win32,60.07810153,627c6715c52fd12f31907bcf,,,,,,,,,,,,,,,,,,,,,,,a,1,0.7633,"[""0.272"",""0.205"",""0.662"",""0.845""]","[1,0,1,1]",0,7,7,7,1,0,1,,,1,FALSE,,,,,,,,,,,,,,,,,,,,,,,,,,,,,,,
,5f80a6f92dac9e105a84b405,627c7bbf2738a7bf892f4efb,2022-05-11_21h17.12.161,classification_task,2021.2.3,Win32,60.07810153,627c6715c52fd12f31907bcf,,,,,,,,,,,,,,,,,,,,,,,l,1,0.6485,"[""0.072"",""0.389"",""0.538"",""0.583""]","[1,1,1,0]",0,8,8,8,1,1,1,,,1,FALSE,,,,,,,,,,,,,,,,,,,,,,,,,,,,,,,
,5f80a6f92dac9e105a84b405,627c7bbf2738a7bf892f4efb,2022-05-11_21h17.12.161,classification_task,2021.2.3,Win32,60.07810153,627c6715c52fd12f31907bcf,,,,,,,,,,,,,,,,,,,,,,,l,1,3.7967,"[""0.132"",""0.616"",""0.494"",""0.751""]","[1,0,1,1]",0,9,9,9,1,1,0,,,1,FALSE,,,,,,,,,,,,,,,,,,,,,,,,,,,,,,,
,5f80a6f92dac9e105a84b405,627c7bbf2738a7bf892f4efb,2022-05-11_21h17.12.161,classification_task,2021.2.3,Win32,60.07810153,627c6715c52fd12f31907bcf,,,,,,,,,,,,,,,,,,,,,,,l,1,1.0758,"[""0.132"",""0.171"",""0.579"",""0.751""]","[1,1,0,1]",0,10,10,10,1,1,0,,,1,FALSE,,,,,,,,,,,,,,,,,,,,,,,,,,,,,,,
,5f80a6f92dac9e105a84b405,627c7bbf2738a7bf892f4efb,2022-05-11_21h17.12.161,classification_task,2021.2.3,Win32,60.07810153,627c6715c52fd12f31907bcf,,,,,,,,,,,,,,,,,,,,,,,a,0,1.0162,"[""0.626"",""0.171"",""0.494"",""0.751""]","[0,1,1,1]",0,11,11,11,1,1,0,,,1,FALSE,,,,,,,,,,,,,,,,,,,,,,,,,,,,,,,
,5f80a6f92dac9e105a84b405,627c7bbf2738a7bf892f4efb,2022-05-11_21h17.12.161,classification_task,2021.2.3,Win32,60.07810153,627c6715c52fd12f31907bcf,,,,,,,,,,,,,,,,,,,,,,,a,1,2.156,"[""0.314"",""0.457"",""0.879"",""0.804""]","[1,1,1,0]",0,12,12,12,1,0,0,,,1,FALSE,,,,,,,,,,,,,,,,,,,,,,,,,,,,,,,
,5f80a6f92dac9e105a84b405,627c7bbf2738a7bf892f4efb,2022-05-11_21h17.12.161,classification_task,2021.2.3,Win32,60.07810153,627c6715c52fd12f31907bcf,,,,,,,,,,,,,,,,,,,,,,,a,1,0.7566,"[""0.272"",""0.355"",""0.030"",""0.845""]","[1,1,0,1]",0,13,13,13,1,0,1,,,1,FALSE,,,,,,,,,,,,,,,,,,,,,,,,,,,,,,,
,5f80a6f92dac9e105a84b405,627c7bbf2738a7bf892f4efb,2022-05-11_21h17.12.161,classification_task,2021.2.3,Win32,60.07810153,627c6715c52fd12f31907bcf,,,,,,,,,,,,,,,,,,,,,,,a,1,0.5166,"[""0.272"",""0.355"",""0.662"",""0.591""]","[1,1,1,0]",0,14,14,14,1,0,1,,,1,FALSE,,,,,,,,,,,,,,,,,,,,,,,,,,,,,,,
,5f80a6f92dac9e105a84b405,627c7bbf2738a7bf892f4efb,2022-05-11_21h17.12.161,classification_task,2021.2.3,Win32,60.07810153,627c6715c52fd12f31907bcf,,,,,,,,,,,,,,,,,,,,,,,l,1,0.5485,"[""0.583"",""0.389"",""0.538"",""0.698""]","[0,1,1,1]",0,15,15,15,1,1,1,,,1,FALSE,,,,,,,,,,,,,,,,,,,,,,,,,,,,,,,
,5f80a6f92dac9e105a84b405,627c7bbf2738a7bf892f4efb,2022-05-11_21h17.12.161,classification_task,2021.2.3,Win32,60.07810153,627c6715c52fd12f31907bcf,,,,,,,,,,,,,,,,,,,,,,,a,1,5.9258,"[""0.314"",""0.616"",""0.879"",""0.946""]","[1,0,1,1]",0,16,16,16,1,0,0,,,1,FALSE,,,,,,,,,,,,,,,,,,,,,,,,,,,,,,,
,5f80a6f92dac9e105a84b405,627c7bbf2738a7bf892f4efb,2022-05-11_21h17.12.161,classification_task,2021.2.3,Win32,60.07810153,627c6715c52fd12f31907bcf,,,,,,,,,,,,,,,,,,,,,,,a,1,1.0087,"[""0.614"",""0.355"",""0.662"",""0.845""]","[0,1,1,1]",0,17,17,17,1,0,1,,,1,FALSE,,,,,,,,,,,,,,,,,,,,,,,,,,,,,,,
,5f80a6f92dac9e105a84b405,627c7bbf2738a7bf892f4efb,2022-05-11_21h17.12.161,classification_task,2021.2.3,Win32,60.07810153,627c6715c52fd12f31907bcf,,,,,,,,,,,,,,,,,,,,,,,a,1,1.8286,"[""0.314"",""0.457"",""0.879"",""0.628""]","[1,1,1,0]",0,18,18,18,1,0,0,,,1,FALSE,,,,,,,,,,,,,,,,,,,,,,,,,,,,,,,
,5f80a6f92dac9e105a84b405,627c7bbf2738a7bf892f4efb,2022-05-11_21h17.12.161,classification_task,2021.2.3,Win32,60.07810153,627c6715c52fd12f31907bcf,,,,,,,,,,,,,,,,,,,,,,,l,1,0.5852,"[""0.072"",""0.389"",""0.616"",""0.698""]","[1,1,0,1]",0,19,19,19,1,1,1,,,1,FALSE,,,,,,,,,,,,,,,,,,,,,,,,,,,,,,,
,5f80a6f92dac9e105a84b405,627c7bbf2738a7bf892f4efb,2022-05-11_21h17.12.161,classification_task,2021.2.3,Win32,60.07810153,627c6715c52fd12f31907bcf,,,,,,,,,,,,,,,,,,,,,,,a,1,0.77,"[""0.804"",""0.457"",""0.879"",""0.946""]","[0,1,1,1]",0,20,20,20,1,0,0,,,1,FALSE,,,,,,,,,,,,,,,,,,,,,,,,,,,,,,,
,5f80a6f92dac9e105a84b405,627c7bbf2738a7bf892f4efb,2022-05-11_21h17.12.161,classification_task,2021.2.3,Win32,60.07810153,627c6715c52fd12f31907bcf,,,,,,,,,,,,,,,,,,,,,,,l,1,2.338,"[""0.579"",""0.171"",""0.494"",""0.751""]","[0,1,1,1]",0,21,21,21,1,1,0,,,1,FALSE,,,,,,,,,,,,,,,,,,,,,,,,,,,,,,,
,5f80a6f92dac9e105a84b405,627c7bbf2738a7bf892f4efb,2022-05-11_21h17.12.161,classification_task,2021.2.3,Win32,60.07810153,627c6715c52fd12f31907bcf,,,,,,,,,,,,,,,,,,,,,,,l,1,0.6282,"[""0.583"",""0.389"",""0.538"",""0.698""]","[0,1,1,1]",0,22,22,22,1,1,1,,,1,FALSE,,,,,,,,,,,,,,,,,,,,,,,,,,,,,,,
,5f80a6f92dac9e105a84b405,627c7bbf2738a7bf892f4efb,2022-05-11_21h17.12.161,classification_task,2021.2.3,Win32,60.07810153,627c6715c52fd12f31907bcf,,,,,,,,,,,,,,,,,,,,,,,l,1,1.2805,"[""0.132"",""0.030"",""0.494"",""0.751""]","[1,0,1,1]",0,23,23,23,1,1,0,,,1,FALSE,,,,,,,,,,,,,,,,,,,,,,,,,,,,,,,
,5f80a6f92dac9e105a84b405,627c7bbf2738a7bf892f4efb,2022-05-11_21h17.12.161,classification_task,2021.2.3,Win32,60.07810153,627c6715c52fd12f31907bcf,,,,,,,,,,,,,,,,,,,,,,,l,1,2.6319,"[""0.132"",""0.171"",""0.212"",""0.751""]","[1,1,0,1]",0,24,24,24,1,1,0,,,1,FALSE,,,,,,,,,,,,,,,,,,,,,,,,,,,,,,,
,5f80a6f92dac9e105a84b405,627c7bbf2738a7bf892f4efb,2022-05-11_21h17.12.161,classification_task,2021.2.3,Win32,60.07810153,627c6715c52fd12f31907bcf,,,,,,,,,,,,,,,,,,,,,,,a,1,0.7616,"[""0.272"",""0.355"",""0.662"",""0.034""]","[1,1,1,0]",0,25,25,25,1,0,1,,,1,FALSE,,,,,,,,,,,,,,,,,,,,,,,,,,,,,,,
,5f80a6f92dac9e105a84b405,627c7bbf2738a7bf892f4efb,2022-05-11_21h17.12.161,classification_task,2021.2.3,Win32,60.07810153,627c6715c52fd12f31907bcf,,,,,,,,,,,,,,,,,,,,,,,l,1,0.7303,"[""0.072"",""0.579"",""0.538"",""0.698""]","[1,0,1,1]",0,26,26,26,1,1,1,,,1,FALSE,,,,,,,,,,,,,,,,,,,,,,,,,,,,,,,
,5f80a6f92dac9e105a84b405,627c7bbf2738a7bf892f4efb,2022-05-11_21h17.12.161,classification_task,2021.2.3,Win32,60.07810153,627c6715c52fd12f31907bcf,,,,,,,,,,,,,,,,,,,,,,,l,1,0.5817,"[""0.072"",""0.389"",""0.538"",""0.614""]","[1,1,1,0]",0,27,27,27,1,1,1,,,1,FALSE,,,,,,,,,,,,,,,,,,,,,,,,,,,,,,,
,5f80a6f92dac9e105a84b405,627c7bbf2738a7bf892f4efb,2022-05-11_21h17.12.161,classification_task,2021.2.3,Win32,60.07810153,627c6715c52fd12f31907bcf,,,,,,,,,,,,,,,,,,,,,,,a,1,0.5905,"[""0.272"",""0.205"",""0.662"",""0.845""]","[1,0,1,1]",0,28,28,28,1,0,1,,,1,FALSE,,,,,,,,,,,,,,,,,,,,,,,,,,,,,,,
,5f80a6f92dac9e105a84b405,627c7bbf2738a7bf892f4efb,2022-05-11_21h17.12.161,classification_task,2021.2.3,Win32,60.07810153,627c6715c52fd12f31907bcf,,,,,,,,,,,,,,,,,,,,,,,l,1,2.1456,"[""0.132"",""0.171"",""0.494"",""0.616""]","[1,1,1,0]",0,29,29,29,1,1,0,,,1,FALSE,,,,,,,,,,,,,,,,,,,,,,,,,,,,,,,
,5f80a6f92dac9e105a84b405,627c7bbf2738a7bf892f4efb,2022-05-11_21h17.12.161,classification_task,2021.2.3,Win32,60.07810153,627c6715c52fd12f31907bcf,,,,,,,,,,,,,,,,,,,,,,,a,1,0.8876,"[""0.314"",""0.457"",""0.579"",""0.946""]","[1,1,0,1]",0,30,30,30,1,0,0,,,1,FALSE,,,,,,,,,,,,,,,,,,,,,,,,,,,,,,,
,5f80a6f92dac9e105a84b405,627c7bbf2738a7bf892f4efb,2022-05-11_21h17.12.161,classification_task,2021.2.3,Win32,60.07810153,627c6715c52fd12f31907bcf,,,,,,,,,,,,,,,,,,,,,,,a,1,0.4717,"[""0.272"",""0.355"",""0.212"",""0.845""]","[1,1,0,1]",0,31,31,31,1,0,1,,,1,FALSE,,,,,,,,,,,,,,,,,,,,,,,,,,,,,,,
,5f80a6f92dac9e105a84b405,627c7bbf2738a7bf892f4efb,2022-05-11_21h17.12.161,classification_task,2021.2.3,Win32,60.07810153,627c6715c52fd12f31907bcf,,,,,,,,,,,,,,,,,,,,,,,a,1,0.7652,"[""0.314"",""0.457"",""0.879"",""0.239""]","[1,1,1,0]",0,32,32,32,1,0,0,,,1,FALSE,,,,,,,,,,,,,,,,,,,,,,,,,,,,,,,
,5f80a6f92dac9e105a84b405,627c7bbf2738a7bf892f4efb,2022-05-11_21h17.12.161,classification_task,2021.2.3,Win32,60.07810153,627c6715c52fd12f31907bcf,,,,,,,,,,,,,,,,,,,,,,,a,1,0.5734,"[""0.314"",""0.457"",""0.616"",""0.946""]","[1,1,0,1]",0,33,33,33,1,0,0,,,1,FALSE,,,,,,,,,,,,,,,,,,,,,,,,,,,,,,,
,5f80a6f92dac9e105a84b405,627c7bbf2738a7bf892f4efb,2022-05-11_21h17.12.161,classification_task,2021.2.3,Win32,60.07810153,627c6715c52fd12f31907bcf,,,,,,,,,,,,,,,,,,,,,,,l,1,1.2337,"[""0.132"",""0.212"",""0.494"",""0.751""]","[1,0,1,1]",0,34,34,34,1,1,0,,,1,FALSE,,,,,,,,,,,,,,,,,,,,,,,,,,,,,,,
,5f80a6f92dac9e105a84b405,627c7bbf2738a7bf892f4efb,2022-05-11_21h17.12.161,classification_task,2021.2.3,Win32,60.07810153,627c6715c52fd12f31907bcf,,,,,,,,,,,,,,,,,,,,,,,a,1,0.6461,"[""0.591"",""0.355"",""0.662"",""0.845""]","[0,1,1,1]",0,35,35,35,1,0,1,,,1,FALSE,,,,,,,,,,,,,,,,,,,,,,,,,,,,,,,
,5f80a6f92dac9e105a84b405,627c7bbf2738a7bf892f4efb,2022-05-11_21h17.12.161,classification_task,2021.2.3,Win32,60.07810153,627c6715c52fd12f31907bcf,,,,,,,,,,,,,,,,,,,,,,,a,1,0.5502,"[""0.272"",""0.355"",""0.662"",""0.591""]","[1,1,1,0]",0,36,36,36,1,0,1,,,1,FALSE,,,,,,,,,,,,,,,,,,,,,,,,,,,,,,,
,5f80a6f92dac9e105a84b405,627c7bbf2738a7bf892f4efb,2022-05-11_21h17.12.161,classification_task,2021.2.3,Win32,60.07810153,627c6715c52fd12f31907bcf,,,,,,,,,,,,,,,,,,,,,,,l,0,2.9655,"[""0.314"",""0.626"",""0.879"",""0.946""]","[1,0,1,1]",0,37,37,37,1,0,0,,,1,FALSE,,,,,,,,,,,,,,,,,,,,,,,,,,,,,,,
,5f80a6f92dac9e105a84b405,627c7bbf2738a7bf892f4efb,2022-05-11_21h17.12.161,classification_task,2021.2.3,Win32,60.07810153,627c6715c52fd12f31907bcf,,,,,,,,,,,,,,,,,,,,,,,a,1,0.7007,"[""0.272"",""0.804"",""0.662"",""0.845""]","[1,0,1,1]",0,38,38,38,1,0,1,,,1,FALSE,,,,,,,,,,,,,,,,,,,,,,,,,,,,,,,
,5f80a6f92dac9e105a84b405,627c7bbf2738a7bf892f4efb,2022-05-11_21h17.12.161,classification_task,2021.2.3,Win32,60.07810153,627c6715c52fd12f31907bcf,,,,,,,,,,,,,,,,,,,,,,,l,1,0.9331,"[""0.072"",""0.628"",""0.538"",""0.698""]","[1,0,1,1]",0,39,39,39,1,1,1,,,1,FALSE,,,,,,,,,,,,,,,,,,,,,,,,,,,,,,,
,5f80a6f92dac9e105a84b405,627c7bbf2738a7bf892f4efb,2022-05-11_21h17.12.161,classification_task,2021.2.3,Win32,60.07810153,627c6715c52fd12f31907bcf,,,,,,,,,,,,,,,,,,,,,,,l,1,0.6165,"[""0.072"",""0.389"",""0.538"",""0.583""]","[1,1,1,0]",0,40,40,40,1,1,1,,,1,FALSE,,,,,,,,,,,,,,,,,,,,,,,,,,,,,,,
,5f80a6f92dac9e105a84b405,627c7bbf2738a7bf892f4efb,2022-05-11_21h17.12.161,classification_task,2021.2.3,Win32,60.07810153,627c6715c52fd12f31907bcf,,,,,,,,,,,,,,,,,,,,,,,l,1,0.4984,"[""0.205"",""0.389"",""0.538"",""0.698""]","[0,1,1,1]",0,41,41,41,1,1,1,,,1,FALSE,,,,,,,,,,,,,,,,,,,,,,,,,,,,,,,
,5f80a6f92dac9e105a84b405,627c7bbf2738a7bf892f4efb,2022-05-11_21h17.12.161,classification_task,2021.2.3,Win32,60.07810153,627c6715c52fd12f31907bcf,,,,,,,,,,,,,,,,,,,,,,,a,1,0.448,"[""0.272"",""0.355"",""0.239"",""0.845""]","[1,1,0,1]",0,42,42,42,1,0,1,,,1,FALSE,,,,,,,,,,,,,,,,,,,,,,,,,,,,,,,
,5f80a6f92dac9e105a84b405,627c7bbf2738a7bf892f4efb,2022-05-11_21h17.12.161,classification_task,2021.2.3,Win32,60.07810153,627c6715c52fd12f31907bcf,,,,,,,,,,,,,,,,,,,,,,,l,1,1.6797,"[""0.132"",""0.171"",""0.030"",""0.751""]","[1,1,0,1]",0,43,43,43,1,1,0,,,1,FALSE,,,,,,,,,,,,,,,,,,,,,,,,,,,,,,,
,5f80a6f92dac9e105a84b405,627c7bbf2738a7bf892f4efb,2022-05-11_21h17.12.161,classification_task,2021.2.3,Win32,60.07810153,627c6715c52fd12f31907bcf,,,,,,,,,,,,,,,,,,,,,,,l,1,0.7963,"[""0.212"",""0.171"",""0.494"",""0.751""]","[0,1,1,1]",0,44,44,44,1,1,0,,,1,FALSE,,,,,,,,,,,,,,,,,,,,,,,,,,,,,,,
,5f80a6f92dac9e105a84b405,627c7bbf2738a7bf892f4efb,2022-05-11_21h17.12.161,classification_task,2021.2.3,Win32,60.07810153,627c6715c52fd12f31907bcf,,,,,,,,,,,,,,,,,,,,,,,l,1,0.7159,"[""0.072"",""0.389"",""0.628"",""0.698""]","[1,1,0,1]",0,45,45,45,1,1,1,,,1,FALSE,,,,,,,,,,,,,,,,,,,,,,,,,,,,,,,
,5f80a6f92dac9e105a84b405,627c7bbf2738a7bf892f4efb,2022-05-11_21h17.12.161,classification_task,2021.2.3,Win32,60.07810153,627c6715c52fd12f31907bcf,,,,,,,,,,,,,,,,,,,,,,,a,1,1.998,"[""0.235"",""0.457"",""0.879"",""0.946""]","[0,1,1,1]",0,46,46,46,1,0,0,,,1,FALSE,,,,,,,,,,,,,,,,,,,,,,,,,,,,,,,
,5f80a6f92dac9e105a84b405,627c7bbf2738a7bf892f4efb,2022-05-11_21h17.12.161,classification_task,2021.2.3,Win32,60.07810153,627c6715c52fd12f31907bcf,,,,,,,,,,,,,,,,,,,,,,,l,1,1.8136,"[""0.132"",""0.171"",""0.494"",""0.235""]","[1,1,1,0]",0,47,47,47,1,1,0,,,1,FALSE,,,,,,,,,,,,,,,,,,,,,,,,,,,,,,,
,5f80a6f92dac9e105a84b405,627c7bbf2738a7bf892f4efb,2022-05-11_21h17.12.161,classification_task,2021.2.3,Win32,60.07810153,627c6715c52fd12f31907bcf,,,,,,,,,,,,,,,,,,,,,,,l,1,0.5643,"[""0.072"",""0.389"",""0.583"",""0.698""]","[1,1,0,1]",0,48,48,48,1,1,1,,,1,FALSE,,,,,,,,,,,,,,,,,,,,,,,,,,,,,,,
,5f80a6f92dac9e105a84b405,627c7bbf2738a7bf892f4efb,2022-05-11_21h17.12.161,classification_task,2021.2.3,Win32,60.07810153,627c6715c52fd12f31907bcf,,,,,,,,,,,,,,,,,,,,,,,a,1,0.7993,"[""0.235"",""0.457"",""0.879"",""0.946""]","[0,1,1,1]",0,49,49,49,1,0,0,,,1,FALSE,,,,,,,,,,,,,,,,,,,,,,,,,,,,,,,
,5f80a6f92dac9e105a84b405,627c7bbf2738a7bf892f4efb,2022-05-11_21h17.12.161,classification_task,2021.2.3,Win32,60.07810153,627c6715c52fd12f31907bcf,,,,,,,,,,,,,,,,,,,,,,,l,1,0.4837,"[""0.072"",""0.626"",""0.538"",""0.698""]","[1,0,1,1]",0,50,50,50,1,1,1,,,1,FALSE,,,,,,,,,,,,,,,,,,,,,,,,,,,,,,,
,5f80a6f92dac9e105a84b405,627c7bbf2738a7bf892f4efb,2022-05-11_21h17.12.161,classification_task,2021.2.3,Win32,60.07810153,627c6715c52fd12f31907bcf,,,,,,,,,,,,,,,,,,,,,,,l,1,1.4147,"[""0.132"",""0.171"",""0.494"",""0.626""]","[1,1,1,0]",0,51,51,51,1,1,0,,,1,FALSE,,,,,,,,,,,,,,,,,,,,,,,,,,,,,,,
,5f80a6f92dac9e105a84b405,627c7bbf2738a7bf892f4efb,2022-05-11_21h17.12.161,classification_task,2021.2.3,Win32,60.07810153,627c6715c52fd12f31907bcf,,,,,,,,,,,,,,,,,,,,,,,a,1,0.7317,"[""0.272"",""0.355"",""0.629"",""0.845""]","[1,1,0,1]",0,52,52,52,1,0,1,,,1,FALSE,,,,,,,,,,,,,,,,,,,,,,,,,,,,,,,
,5f80a6f92dac9e105a84b405,627c7bbf2738a7bf892f4efb,2022-05-11_21h17.12.161,classification_task,2021.2.3,Win32,60.07810153,627c6715c52fd12f31907bcf,,,,,,,,,,,,,,,,,,,,,,,l,1,1.0821,"[""0.616"",""0.171"",""0.494"",""0.751""]","[0,1,1,1]",0,53,53,53,1,1,0,,,1,FALSE,,,,,,,,,,,,,,,,,,,,,,,,,,,,,,,
,5f80a6f92dac9e105a84b405,627c7bbf2738a7bf892f4efb,2022-05-11_21h17.12.161,classification_task,2021.2.3,Win32,60.07810153,627c6715c52fd12f31907bcf,,,,,,,,,,,,,,,,,,,,,,,a,1,0.5981,"[""0.272"",""0.355"",""0.662"",""0.212""]","[1,1,1,0]",0,54,54,54,1,0,1,,,1,FALSE,,,,,,,,,,,,,,,,,,,,,,,,,,,,,,,
,5f80a6f92dac9e105a84b405,627c7bbf2738a7bf892f4efb,2022-05-11_21h17.12.161,classification_task,2021.2.3,Win32,60.07810153,627c6715c52fd12f31907bcf,,,,,,,,,,,,,,,,,,,,,,,a,1,0.4649,"[""0.034"",""0.355"",""0.662"",""0.845""]","[0,1,1,1]",0,55,55,55,1,0,1,,,1,FALSE,,,,,,,,,,,,,,,,,,,,,,,,,,,,,,,
,5f80a6f92dac9e105a84b405,627c7bbf2738a7bf892f4efb,2022-05-11_21h17.12.161,classification_task,2021.2.3,Win32,60.07810153,627c6715c52fd12f31907bcf,,,,,,,,,,,,,,,,,,,,,,,a,1,0.4474,"[""0.272"",""0.212"",""0.662"",""0.845""]","[1,0,1,1]",0,56,56,56,1,0,1,,,1,FALSE,,,,,,,,,,,,,,,,,,,,,,,,,,,,,,,
,5f80a6f92dac9e105a84b405,627c7bbf2738a7bf892f4efb,2022-05-11_21h17.12.161,classification_task,2021.2.3,Win32,60.07810153,627c6715c52fd12f31907bcf,,,,,,,,,,,,,,,,,,,,,,,l,1,1.2804,"[""0.132"",""0.212"",""0.494"",""0.751""]","[1,0,1,1]",0,57,57,57,1,1,0,,,1,FALSE,,,,,,,,,,,,,,,,,,,,,,,,,,,,,,,
,5f80a6f92dac9e105a84b405,627c7bbf2738a7bf892f4efb,2022-05-11_21h17.12.161,classification_task,2021.2.3,Win32,60.07810153,627c6715c52fd12f31907bcf,,,,,,,,,,,,,,,,,,,,,,,a,1,0.9571,"[""0.314"",""0.457"",""0.879"",""0.626""]","[1,1,1,0]",0,58,58,58,1,0,0,,,1,FALSE,,,,,,,,,,,,,,,,,,,,,,,,,,,,,,,
,5f80a6f92dac9e105a84b405,627c7bbf2738a7bf892f4efb,2022-05-11_21h17.12.161,classification_task,2021.2.3,Win32,60.07810153,627c6715c52fd12f31907bcf,,,,,,,,,,,,,,,,,,,,,,,a,1,0.7477,"[""0.314"",""0.457"",""0.212"",""0.946""]","[1,1,0,1]",0,59,59,59,1,0,0,,,1,FALSE,,,,,,,,,,,,,,,,,,,,,,,,,,,,,,,
,5f80a6f92dac9e105a84b405,627c7bbf2738a7bf892f4efb,2022-05-11_21h17.12.161,classification_task,2021.2.3,Win32,60.07810153,627c6715c52fd12f31907bcf,,,,,,,,,,,,,,,,,,,,,,,a,1,1.8667,"[""0.314"",""0.212"",""0.879"",""0.946""]","[1,0,1,1]",0,60,60,60,1,0,0,,,1,FALSE,,,,,,,,,,,,,,,,,,,,,,,,,,,,,,,
,5f80a6f92dac9e105a84b405,627c7bbf2738a7bf892f4efb,2022-05-11_21h17.12.161,classification_task,2021.2.3,Win32,60.07810153,627c6715c52fd12f31907bcf,,,,,,,,,,,,,,,,,,,,,,,l,1,0.6987,"[""0.072"",""0.389"",""0.538"",""0.616""]","[1,1,1,0]",0,61,61,61,1,1,1,,,1,FALSE,,,,,,,,,,,,,,,,,,,,,,,,,,,,,,,
,5f80a6f92dac9e105a84b405,627c7bbf2738a7bf892f4efb,2022-05-11_21h17.12.161,classification_task,2021.2.3,Win32,60.07810153,627c6715c52fd12f31907bcf,,,,,,,,,,,,,,,,,,,,,,,l,1,1.4656,"[""0.132"",""0.171"",""0.628"",""0.751""]","[1,1,0,1]",0,62,62,62,1,1,0,,,1,FALSE,,,,,,,,,,,,,,,,,,,,,,,,,,,,,,,
,5f80a6f92dac9e105a84b405,627c7bbf2738a7bf892f4efb,2022-05-11_21h17.12.161,classification_task,2021.2.3,Win32,60.07810153,627c6715c52fd12f31907bcf,,,,,,,,,,,,,,,,,,,,,,,l,1,1.2064,"[""0.212"",""0.389"",""0.538"",""0.698""]","[0,1,1,1]",0,63,63,63,1,1,1,,,1,FALSE,,,,,,,,,,,,,,,,,,,,,,,,,,,,,,,
,5f80a6f92dac9e105a84b405,627c7bbf2738a7bf892f4efb,2022-05-11_21h17.12.161,classification_task,2021.2.3,Win32,60.07810153,627c6715c52fd12f31907bcf,,,,,,,,,,,,,,,,,,,,,,,,,,,,,,,,,,,,,,,0, ,,0,2.213648834,204.393,0,1,1,1,1,2,2,,,,,,,,,,,,,,,,,,
,5f80a6f92dac9e105a84b405,627c7bbf2738a7bf892f4efb,2022-05-11_21h17.12.161,classification_task,2021.2.3,Win32,60.07810153,627c6715c52fd12f31907bcf,,,,,,,,,,,,,,,,,,,,,,,,,,,,,,,,,,,,,,,1,  ,,0,6.475847914,215.8862,0,1,1,1,1,2,2,,,,,,,,,,,,,,,,,,
,5f80a6f92dac9e105a84b405,627c7bbf2738a7bf892f4efb,2022-05-11_21h17.12.161,classification_task,2021.2.3,Win32,60.07810153,627c6715c52fd12f31907bcf,,,,,,,,,,,,,,,,,,,,,,,,,,,,,,,,,,,,,,,2,  ,,0,0.96438407,221.4382,0,1,1,1,1,2,2,,,,,,,,,,,,,,,,,,
,5f80a6f92dac9e105a84b405,627c7bbf2738a7bf892f4efb,2022-05-11_21h17.12.161,classification_task,2021.2.3,Win32,60.07810153,627c6715c52fd12f31907bcf,,,,,,,,,,,,,,,,,,,,,,,,,,,,,,,,,,,,,,,,,,,,,0,1,1,1,1,,2,,,,,,,,,,,,,,,,,,
,5f80a6f92dac9e105a84b405,627c7bbf2738a7bf892f4efb,2022-05-11_21h17.12.161,classification_task,2021.2.3,Win32,60.07810153,627c6715c52fd12f31907bcf,,,,,,,,,,,,,,,,,,,,,space,21.72,a,0,3.8291,"[""0.072"",""0.389"",""0.538"",""0.804""]","[1,1,1,0]",0,0,0,0,1,1,1,,,1,FALSE,,,,,,,,,,,,,,,,,,,,,,,,,,,,,,,
,5f80a6f92dac9e105a84b405,627c7bbf2738a7bf892f4efb,2022-05-11_21h17.12.161,classification_task,2021.2.3,Win32,60.07810153,627c6715c52fd12f31907bcf,,,,,,,,,,,,,,,,,,,,,,,l,1,2.0763,"[""0.132"",""0.171"",""0.494"",""0.583""]","[1,1,1,0]",0,1,1,1,1,1,0,,,1,FALSE,,,,,,,,,,,,,,,,,,,,,,,,,,,,,,,
,5f80a6f92dac9e105a84b405,627c7bbf2738a7bf892f4efb,2022-05-11_21h17.12.161,classification_task,2021.2.3,Win32,60.07810153,627c6715c52fd12f31907bcf,,,,,,,,,,,,,,,,,,,,,,,l,1,2.214,"[""0.628"",""0.171"",""0.494"",""0.751""]","[0,1,1,1]",0,2,2,2,1,1,0,,,1,FALSE,,,,,,,,,,,,,,,,,,,,,,,,,,,,,,,
,5f80a6f92dac9e105a84b405,627c7bbf2738a7bf892f4efb,2022-05-11_21h17.12.161,classification_task,2021.2.3,Win32,60.07810153,627c6715c52fd12f31907bcf,,,,,,,,,,,,,,,,,,,,,,,a,1,3.9141,"[""0.579"",""0.355"",""0.662"",""0.845""]","[0,1,1,1]",0,3,3,3,1,0,1,,,1,FALSE,,,,,,,,,,,,,,,,,,,,,,,,,,,,,,,
,5f80a6f92dac9e105a84b405,627c7bbf2738a7bf892f4efb,2022-05-11_21h17.12.161,classification_task,2021.2.3,Win32,60.07810153,627c6715c52fd12f31907bcf,,,,,,,,,,,,,,,,,,,,,,,l,1,0.915,"[""0.132"",""0.171"",""0.034"",""0.751""]","[1,1,0,1]",0,4,4,4,1,1,0,,,1,FALSE,,,,,,,,,,,,,,,,,,,,,,,,,,,,,,,
,5f80a6f92dac9e105a84b405,627c7bbf2738a7bf892f4efb,2022-05-11_21h17.12.161,classification_task,2021.2.3,Win32,60.07810153,627c6715c52fd12f31907bcf,,,,,,,,,,,,,,,,,,,,,,,a,1,1.9498,"[""0.272"",""0.355"",""0.662"",""0.629""]","[1,1,1,0]",0,5,5,5,1,0,1,,,1,FALSE,,,,,,,,,,,,,,,,,,,,,,,,,,,,,,,
,5f80a6f92dac9e105a84b405,627c7bbf2738a7bf892f4efb,2022-05-11_21h17.12.161,classification_task,2021.2.3,Win32,60.07810153,627c6715c52fd12f31907bcf,,,,,,,,,,,,,,,,,,,,,,,l,1,2.1331,"[""0.628"",""0.389"",""0.538"",""0.698""]","[0,1,1,1]",0,6,6,6,1,1,1,,,1,FALSE,,,,,,,,,,,,,,,,,,,,,,,,,,,,,,,
,5f80a6f92dac9e105a84b405,627c7bbf2738a7bf892f4efb,2022-05-11_21h17.12.161,classification_task,2021.2.3,Win32,60.07810153,627c6715c52fd12f31907bcf,,,,,,,,,,,,,,,,,,,,,,,a,1,1.282,"[""0.616"",""0.457"",""0.879"",""0.946""]","[0,1,1,1]",0,7,7,7,1,0,0,,,1,FALSE,,,,,,,,,,,,,,,,,,,,,,,,,,,,,,,
,5f80a6f92dac9e105a84b405,627c7bbf2738a7bf892f4efb,2022-05-11_21h17.12.161,classification_task,2021.2.3,Win32,60.07810153,627c6715c52fd12f31907bcf,,,,,,,,,,,,,,,,,,,,,,,a,1,2.7495,"[""0.314"",""0.591"",""0.879"",""0.946""]","[1,0,1,1]",0,8,8,8,1,0,0,,,1,FALSE,,,,,,,,,,,,,,,,,,,,,,,,,,,,,,,
,5f80a6f92dac9e105a84b405,627c7bbf2738a7bf892f4efb,2022-05-11_21h17.12.161,classification_task,2021.2.3,Win32,60.07810153,627c6715c52fd12f31907bcf,,,,,,,,,,,,,,,,,,,,,,,l,0,6.0981,"[""0.272"",""0.355"",""0.626"",""0.845""]","[1,1,0,1]",0,9,9,9,1,0,1,,,1,FALSE,,,,,,,,,,,,,,,,,,,,,,,,,,,,,,,
,5f80a6f92dac9e105a84b405,627c7bbf2738a7bf892f4efb,2022-05-11_21h17.12.161,classification_task,2021.2.3,Win32,60.07810153,627c6715c52fd12f31907bcf,,,,,,,,,,,,,,,,,,,,,,,a,1,1.3011,"[""0.314"",""0.457"",""0.879"",""0.212""]","[1,1,1,0]",0,10,10,10,1,0,0,,,1,FALSE,,,,,,,,,,,,,,,,,,,,,,,,,,,,,,,
,5f80a6f92dac9e105a84b405,627c7bbf2738a7bf892f4efb,2022-05-11_21h17.12.161,classification_task,2021.2.3,Win32,60.07810153,627c6715c52fd12f31907bcf,,,,,,,,,,,,,,,,,,,,,,,l,1,5.2826,"[""0.072"",""0.389"",""0.629"",""0.698""]","[1,1,0,1]",0,11,11,11,1,1,1,,,1,FALSE,,,,,,,,,,,,,,,,,,,,,,,,,,,,,,,
,5f80a6f92dac9e105a84b405,627c7bbf2738a7bf892f4efb,2022-05-11_21h17.12.161,classification_task,2021.2.3,Win32,60.07810153,627c6715c52fd12f31907bcf,,,,,,,,,,,,,,,,,,,,,,,l,1,1.3896,"[""0.132"",""0.034"",""0.494"",""0.751""]","[1,0,1,1]",0,12,12,12,1,1,0,,,1,FALSE,,,,,,,,,,,,,,,,,,,,,,,,,,,,,,,
,5f80a6f92dac9e105a84b405,627c7bbf2738a7bf892f4efb,2022-05-11_21h17.12.161,classification_task,2021.2.3,Win32,60.07810153,627c6715c52fd12f31907bcf,,,,,,,,,,,,,,,,,,,,,,,l,1,3.528,"[""0.072"",""0.212"",""0.538"",""0.698""]","[1,0,1,1]",0,13,13,13,1,1,1,,,1,FALSE,,,,,,,,,,,,,,,,,,,,,,,,,,,,,,,
,5f80a6f92dac9e105a84b405,627c7bbf2738a7bf892f4efb,2022-05-11_21h17.12.161,classification_task,2021.2.3,Win32,60.07810153,627c6715c52fd12f31907bcf,,,,,,,,,,,,,,,,,,,,,,,a,1,2.777,"[""0.272"",""0.034"",""0.662"",""0.845""]","[1,0,1,1]",0,14,14,14,1,0,1,,,1,FALSE,,,,,,,,,,,,,,,,,,,,,,,,,,,,,,,
,5f80a6f92dac9e105a84b405,627c7bbf2738a7bf892f4efb,2022-05-11_21h17.12.161,classification_task,2021.2.3,Win32,60.07810153,627c6715c52fd12f31907bcf,,,,,,,,,,,,,,,,,,,,,,,a,1,1.4932,"[""0.314"",""0.457"",""0.629"",""0.946""]","[1,1,0,1]",0,15,15,15,1,0,0,,,1,FALSE,,,,,,,,,,,,,,,,,,,,,,,,,,,,,,,
,5f80a6f92dac9e105a84b405,627c7bbf2738a7bf892f4efb,2022-05-11_21h17.12.161,classification_task,2021.2.3,Win32,60.07810153,627c6715c52fd12f31907bcf,,,,,,,,,,,,,,,,,,,,,,,l,1,4.5538,"[""0.579"",""0.171"",""0.494"",""0.751""]","[0,1,1,1]",0,16,16,16,1,1,0,,,1,FALSE,,,,,,,,,,,,,,,,,,,,,,,,,,,,,,,
,5f80a6f92dac9e105a84b405,627c7bbf2738a7bf892f4efb,2022-05-11_21h17.12.161,classification_task,2021.2.3,Win32,60.07810153,627c6715c52fd12f31907bcf,,,,,,,,,,,,,,,,,,,,,,,l,1,1.352,"[""0.072"",""0.389"",""0.030"",""0.698""]","[1,1,0,1]",0,17,17,17,1,1,1,,,1,FALSE,,,,,,,,,,,,,,,,,,,,,,,,,,,,,,,
,5f80a6f92dac9e105a84b405,627c7bbf2738a7bf892f4efb,2022-05-11_21h17.12.161,classification_task,2021.2.3,Win32,60.07810153,627c6715c52fd12f31907bcf,,,,,,,,,,,,,,,,,,,,,,,a,1,2.2185,"[""0.314"",""0.457"",""0.879"",""0.235""]","[1,1,1,0]",0,18,18,18,1,0,0,,,1,FALSE,,,,,,,,,,,,,,,,,,,,,,,,,,,,,,,
,5f80a6f92dac9e105a84b405,627c7bbf2738a7bf892f4efb,2022-05-11_21h17.12.161,classification_task,2021.2.3,Win32,60.07810153,627c6715c52fd12f31907bcf,,,,,,,,,,,,,,,,,,,,,,,l,1,1.699,"[""0.072"",""0.030"",""0.538"",""0.698""]","[1,0,1,1]",0,19,19,19,1,1,1,,,1,FALSE,,,,,,,,,,,,,,,,,,,,,,,,,,,,,,,
,5f80a6f92dac9e105a84b405,627c7bbf2738a7bf892f4efb,2022-05-11_21h17.12.161,classification_task,2021.2.3,Win32,60.07810153,627c6715c52fd12f31907bcf,,,,,,,,,,,,,,,,,,,,,,,a,1,0.9848,"[""0.314"",""0.457"",""0.626"",""0.946""]","[1,1,0,1]",0,20,20,20,1,0,0,,,1,FALSE,,,,,,,,,,,,,,,,,,,,,,,,,,,,,,,
,5f80a6f92dac9e105a84b405,627c7bbf2738a7bf892f4efb,2022-05-11_21h17.12.161,classification_task,2021.2.3,Win32,60.07810153,627c6715c52fd12f31907bcf,,,,,,,,,,,,,,,,,,,,,,,l,1,0.9046,"[""0.132"",""0.171"",""0.494"",""0.614""]","[1,1,1,0]",0,21,21,21,1,1,0,,,1,FALSE,,,,,,,,,,,,,,,,,,,,,,,,,,,,,,,
,5f80a6f92dac9e105a84b405,627c7bbf2738a7bf892f4efb,2022-05-11_21h17.12.161,classification_task,2021.2.3,Win32,60.07810153,627c6715c52fd12f31907bcf,,,,,,,,,,,,,,,,,,,,,,,l,0,3.8156,"[""0.272"",""0.355"",""0.616"",""0.845""]","[1,1,0,1]",0,22,22,22,1,0,1,,,1,FALSE,,,,,,,,,,,,,,,,,,,,,,,,,,,,,,,
,5f80a6f92dac9e105a84b405,627c7bbf2738a7bf892f4efb,2022-05-11_21h17.12.161,classification_task,2021.2.3,Win32,60.07810153,627c6715c52fd12f31907bcf,,,,,,,,,,,,,,,,,,,,,,,a,1,1.3606,"[""0.626"",""0.355"",""0.662"",""0.845""]","[0,1,1,1]",0,23,23,23,1,0,1,,,1,FALSE,,,,,,,,,,,,,,,,,,,,,,,,,,,,,,,
,5f80a6f92dac9e105a84b405,627c7bbf2738a7bf892f4efb,2022-05-11_21h17.12.161,classification_task,2021.2.3,Win32,60.07810153,627c6715c52fd12f31907bcf,,,,,,,,,,,,,,,,,,,,,,,l,1,3.0004,"[""0.583"",""0.389"",""0.538"",""0.698""]","[0,1,1,1]",0,24,24,24,1,1,1,,,1,FALSE,,,,,,,,,,,,,,,,,,,,,,,,,,,,,,,
,5f80a6f92dac9e105a84b405,627c7bbf2738a7bf892f4efb,2022-05-11_21h17.12.161,classification_task,2021.2.3,Win32,60.07810153,627c6715c52fd12f31907bcf,,,,,,,,,,,,,,,,,,,,,,,a,1,1.4942,"[""0.272"",""0.579"",""0.662"",""0.845""]","[1,0,1,1]",0,25,25,25,1,0,1,,,1,FALSE,,,,,,,,,,,,,,,,,,,,,,,,,,,,,,,
,5f80a6f92dac9e105a84b405,627c7bbf2738a7bf892f4efb,2022-05-11_21h17.12.161,classification_task,2021.2.3,Win32,60.07810153,627c6715c52fd12f31907bcf,,,,,,,,,,,,,,,,,,,,,,,l,1,2.151,"[""0.072"",""0.389"",""0.538"",""0.614""]","[1,1,1,0]",0,26,26,26,1,1,1,,,1,FALSE,,,,,,,,,,,,,,,,,,,,,,,,,,,,,,,
,5f80a6f92dac9e105a84b405,627c7bbf2738a7bf892f4efb,2022-05-11_21h17.12.161,classification_task,2021.2.3,Win32,60.07810153,627c6715c52fd12f31907bcf,,,,,,,,,,,,,,,,,,,,,,,a,1,0.6155,"[""0.616"",""0.457"",""0.879"",""0.946""]","[0,1,1,1]",0,27,27,27,1,0,0,,,1,FALSE,,,,,,,,,,,,,,,,,,,,,,,,,,,,,,,
,5f80a6f92dac9e105a84b405,627c7bbf2738a7bf892f4efb,2022-05-11_21h17.12.161,classification_task,2021.2.3,Win32,60.07810153,627c6715c52fd12f31907bcf,,,,,,,,,,,,,,,,,,,,,,,l,1,1.9341,"[""0.132"",""0.212"",""0.494"",""0.751""]","[1,0,1,1]",0,28,28,28,1,1,0,,,1,FALSE,,,,,,,,,,,,,,,,,,,,,,,,,,,,,,,
,5f80a6f92dac9e105a84b405,627c7bbf2738a7bf892f4efb,2022-05-11_21h17.12.161,classification_task,2021.2.3,Win32,60.07810153,627c6715c52fd12f31907bcf,,,,,,,,,,,,,,,,,,,,,,,l,1,1.744,"[""0.132"",""0.171"",""0.030"",""0.751""]","[1,1,0,1]",0,29,29,29,1,1,0,,,1,FALSE,,,,,,,,,,,,,,,,,,,,,,,,,,,,,,,
,5f80a6f92dac9e105a84b405,627c7bbf2738a7bf892f4efb,2022-05-11_21h17.12.161,classification_task,2021.2.3,Win32,60.07810153,627c6715c52fd12f31907bcf,,,,,,,,,,,,,,,,,,,,,,,a,1,3.4187,"[""0.314"",""0.626"",""0.879"",""0.946""]","[1,0,1,1]",0,30,30,30,1,0,0,,,1,FALSE,,,,,,,,,,,,,,,,,,,,,,,,,,,,,,,
,5f80a6f92dac9e105a84b405,627c7bbf2738a7bf892f4efb,2022-05-11_21h17.12.161,classification_task,2021.2.3,Win32,60.07810153,627c6715c52fd12f31907bcf,,,,,,,,,,,,,,,,,,,,,,,a,1,1.4996,"[""0.272"",""0.355"",""0.662"",""0.616""]","[1,1,1,0]",0,31,31,31,1,0,1,,,1,FALSE,,,,,,,,,,,,,,,,,,,,,,,,,,,,,,,
,5f80a6f92dac9e105a84b405,627c7bbf2738a7bf892f4efb,2022-05-11_21h17.12.161,classification_task,2021.2.3,Win32,60.07810153,627c6715c52fd12f31907bcf,,,,,,,,,,,,,,,,,,,,,,,l,1,1.9157,"[""0.072"",""0.389"",""0.538"",""0.628""]","[1,1,1,0]",0,32,32,32,1,1,1,,,1,FALSE,,,,,,,,,,,,,,,,,,,,,,,,,,,,,,,
,5f80a6f92dac9e105a84b405,627c7bbf2738a7bf892f4efb,2022-05-11_21h17.12.161,classification_task,2021.2.3,Win32,60.07810153,627c6715c52fd12f31907bcf,,,,,,,,,,,,,,,,,,,,,,,a,1,1.0074,"[""0.212"",""0.457"",""0.879"",""0.946""]","[0,1,1,1]",0,33,33,33,1,0,0,,,1,FALSE,,,,,,,,,,,,,,,,,,,,,,,,,,,,,,,
,5f80a6f92dac9e105a84b405,627c7bbf2738a7bf892f4efb,2022-05-11_21h17.12.161,classification_task,2021.2.3,Win32,60.07810153,627c6715c52fd12f31907bcf,,,,,,,,,,,,,,,,,,,,,,,l,1,2.331,"[""0.072"",""0.389"",""0.235"",""0.698""]","[1,1,0,1]",0,34,34,34,1,1,1,,,1,FALSE,,,,,,,,,,,,,,,,,,,,,,,,,,,,,,,
,5f80a6f92dac9e105a84b405,627c7bbf2738a7bf892f4efb,2022-05-11_21h17.12.161,classification_task,2021.2.3,Win32,60.07810153,627c6715c52fd12f31907bcf,,,,,,,,,,,,,,,,,,,,,,,l,1,4.2753,"[""0.239"",""0.389"",""0.538"",""0.698""]","[0,1,1,1]",0,35,35,35,1,1,1,,,1,FALSE,,,,,,,,,,,,,,,,,,,,,,,,,,,,,,,
,5f80a6f92dac9e105a84b405,627c7bbf2738a7bf892f4efb,2022-05-11_21h17.12.161,classification_task,2021.2.3,Win32,60.07810153,627c6715c52fd12f31907bcf,,,,,,,,,,,,,,,,,,,,,,,l,1,1.4984,"[""0.132"",""0.171"",""0.583"",""0.751""]","[1,1,0,1]",0,36,36,36,1,1,0,,,1,FALSE,,,,,,,,,,,,,,,,,,,,,,,,,,,,,,,
,5f80a6f92dac9e105a84b405,627c7bbf2738a7bf892f4efb,2022-05-11_21h17.12.161,classification_task,2021.2.3,Win32,60.07810153,627c6715c52fd12f31907bcf,,,,,,,,,,,,,,,,,,,,,,,a,1,1.0669,"[""0.272"",""0.355"",""0.662"",""0.212""]","[1,1,1,0]",0,37,37,37,1,0,1,,,1,FALSE,,,,,,,,,,,,,,,,,,,,,,,,,,,,,,,
,5f80a6f92dac9e105a84b405,627c7bbf2738a7bf892f4efb,2022-05-11_21h17.12.161,classification_task,2021.2.3,Win32,60.07810153,627c6715c52fd12f31907bcf,,,,,,,,,,,,,,,,,,,,,,,l,1,1.1498,"[""0.132"",""0.171"",""0.494"",""0.030""]","[1,1,1,0]",0,38,38,38,1,1,0,,,1,FALSE,,,,,,,,,,,,,,,,,,,,,,,,,,,,,,,
,5f80a6f92dac9e105a84b405,627c7bbf2738a7bf892f4efb,2022-05-11_21h17.12.161,classification_task,2021.2.3,Win32,60.07810153,627c6715c52fd12f31907bcf,,,,,,,,,,,,,,,,,,,,,,,a,0,3.0487,"[""0.132"",""0.034"",""0.494"",""0.751""]","[1,0,1,1]",0,39,39,39,1,1,0,,,1,FALSE,,,,,,,,,,,,,,,,,,,,,,,,,,,,,,,
,5f80a6f92dac9e105a84b405,627c7bbf2738a7bf892f4efb,2022-05-11_21h17.12.161,classification_task,2021.2.3,Win32,60.07810153,627c6715c52fd12f31907bcf,,,,,,,,,,,,,,,,,,,,,,,a,1,2.9485,"[""0.272"",""0.355"",""0.239"",""0.845""]","[1,1,0,1]",0,40,40,40,1,0,1,,,1,FALSE,,,,,,,,,,,,,,,,,,,,,,,,,,,,,,,
,5f80a6f92dac9e105a84b405,627c7bbf2738a7bf892f4efb,2022-05-11_21h17.12.161,classification_task,2021.2.3,Win32,60.07810153,627c6715c52fd12f31907bcf,,,,,,,,,,,,,,,,,,,,,,,l,1,2.0157,"[""0.591"",""0.171"",""0.494"",""0.751""]","[0,1,1,1]",0,41,41,41,1,1,0,,,1,FALSE,,,,,,,,,,,,,,,,,,,,,,,,,,,,,,,
,5f80a6f92dac9e105a84b405,627c7bbf2738a7bf892f4efb,2022-05-11_21h17.12.161,classification_task,2021.2.3,Win32,60.07810153,627c6715c52fd12f31907bcf,,,,,,,,,,,,,,,,,,,,,,,a,1,1.3319,"[""0.272"",""0.626"",""0.662"",""0.845""]","[1,0,1,1]",0,42,42,42,1,0,1,,,1,FALSE,,,,,,,,,,,,,,,,,,,,,,,,,,,,,,,
,5f80a6f92dac9e105a84b405,627c7bbf2738a7bf892f4efb,2022-05-11_21h17.12.161,classification_task,2021.2.3,Win32,60.07810153,627c6715c52fd12f31907bcf,,,,,,,,,,,,,,,,,,,,,,,a,1,0.8845,"[""0.235"",""0.355"",""0.662"",""0.845""]","[0,1,1,1]",0,43,43,43,1,0,1,,,1,FALSE,,,,,,,,,,,,,,,,,,,,,,,,,,,,,,,
,5f80a6f92dac9e105a84b405,627c7bbf2738a7bf892f4efb,2022-05-11_21h17.12.161,classification_task,2021.2.3,Win32,60.07810153,627c6715c52fd12f31907bcf,,,,,,,,,,,,,,,,,,,,,,,l,1,2.6333,"[""0.072"",""0.239"",""0.538"",""0.698""]","[1,0,1,1]",0,44,44,44,1,1,1,,,1,FALSE,,,,,,,,,,,,,,,,,,,,,,,,,,,,,,,
,5f80a6f92dac9e105a84b405,627c7bbf2738a7bf892f4efb,2022-05-11_21h17.12.161,classification_task,2021.2.3,Win32,60.07810153,627c6715c52fd12f31907bcf,,,,,,,,,,,,,,,,,,,,,,,a,1,0.9845,"[""0.314"",""0.457"",""0.212"",""0.946""]","[1,1,0,1]",0,45,45,45,1,0,0,,,1,FALSE,,,,,,,,,,,,,,,,,,,,,,,,,,,,,,,
,5f80a6f92dac9e105a84b405,627c7bbf2738a7bf892f4efb,2022-05-11_21h17.12.161,classification_task,2021.2.3,Win32,60.07810153,627c6715c52fd12f31907bcf,,,,,,,,,,,,,,,,,,,,,,,a,1,3.1151,"[""0.314"",""0.583"",""0.879"",""0.946""]","[1,0,1,1]",0,46,46,46,1,0,0,,,1,FALSE,,,,,,,,,,,,,,,,,,,,,,,,,,,,,,,
,5f80a6f92dac9e105a84b405,627c7bbf2738a7bf892f4efb,2022-05-11_21h17.12.161,classification_task,2021.2.3,Win32,60.07810153,627c6715c52fd12f31907bcf,,,,,,,,,,,,,,,,,,,,,,,a,1,0.5966,"[""0.314"",""0.457"",""0.879"",""0.616""]","[1,1,1,0]",0,47,47,47,1,0,0,,,1,FALSE,,,,,,,,,,,,,,,,,,,,,,,,,,,,,,,
,5f80a6f92dac9e105a84b405,627c7bbf2738a7bf892f4efb,2022-05-11_21h17.12.161,classification_task,2021.2.3,Win32,60.07810153,627c6715c52fd12f31907bcf,,,,,,,,,,,,,,,,,,,,,,,a,1,1.5642,"[""0.272"",""0.583"",""0.662"",""0.845""]","[1,0,1,1]",0,48,48,48,1,0,1,,,1,FALSE,,,,,,,,,,,,,,,,,,,,,,,,,,,,,,,
,5f80a6f92dac9e105a84b405,627c7bbf2738a7bf892f4efb,2022-05-11_21h17.12.161,classification_task,2021.2.3,Win32,60.07810153,627c6715c52fd12f31907bcf,,,,,,,,,,,,,,,,,,,,,,,a,1,0.7661,"[""0.314"",""0.457"",""0.879"",""0.235""]","[1,1,1,0]",0,49,49,49,1,0,0,,,1,FALSE,,,,,,,,,,,,,,,,,,,,,,,,,,,,,,,
,5f80a6f92dac9e105a84b405,627c7bbf2738a7bf892f4efb,2022-05-11_21h17.12.161,classification_task,2021.2.3,Win32,60.07810153,627c6715c52fd12f31907bcf,,,,,,,,,,,,,,,,,,,,,,,a,1,0.5999,"[""0.314"",""0.457"",""0.034"",""0.946""]","[1,1,0,1]",0,50,50,50,1,0,0,,,1,FALSE,,,,,,,,,,,,,,,,,,,,,,,,,,,,,,,
,5f80a6f92dac9e105a84b405,627c7bbf2738a7bf892f4efb,2022-05-11_21h17.12.161,classification_task,2021.2.3,Win32,60.07810153,627c6715c52fd12f31907bcf,,,,,,,,,,,,,,,,,,,,,,,a,1,2.3984,"[""0.314"",""0.591"",""0.879"",""0.946""]","[1,0,1,1]",0,51,51,51,1,0,0,,,1,FALSE,,,,,,,,,,,,,,,,,,,,,,,,,,,,,,,
,5f80a6f92dac9e105a84b405,627c7bbf2738a7bf892f4efb,2022-05-11_21h17.12.161,classification_task,2021.2.3,Win32,60.07810153,627c6715c52fd12f31907bcf,,,,,,,,,,,,,,,,,,,,,,,l,1,1.2978,"[""0.132"",""0.171"",""0.034"",""0.751""]","[1,1,0,1]",0,52,52,52,1,1,0,,,1,FALSE,,,,,,,,,,,,,,,,,,,,,,,,,,,,,,,
,5f80a6f92dac9e105a84b405,627c7bbf2738a7bf892f4efb,2022-05-11_21h17.12.161,classification_task,2021.2.3,Win32,60.07810153,627c6715c52fd12f31907bcf,,,,,,,,,,,,,,,,,,,,,,,a,1,1.1988,"[""0.614"",""0.355"",""0.662"",""0.845""]","[0,1,1,1]",0,53,53,53,1,0,1,,,1,FALSE,,,,,,,,,,,,,,,,,,,,,,,,,,,,,,,
,5f80a6f92dac9e105a84b405,627c7bbf2738a7bf892f4efb,2022-05-11_21h17.12.161,classification_task,2021.2.3,Win32,60.07810153,627c6715c52fd12f31907bcf,,,,,,,,,,,,,,,,,,,,,,,a,1,0.8815,"[""0.272"",""0.355"",""0.662"",""0.205""]","[1,1,1,0]",0,54,54,54,1,0,1,,,1,FALSE,,,,,,,,,,,,,,,,,,,,,,,,,,,,,,,
,5f80a6f92dac9e105a84b405,627c7bbf2738a7bf892f4efb,2022-05-11_21h17.12.161,classification_task,2021.2.3,Win32,60.07810153,627c6715c52fd12f31907bcf,,,,,,,,,,,,,,,,,,,,,,,l,1,1.3398,"[""0.072"",""0.579"",""0.538"",""0.698""]","[1,0,1,1]",0,55,55,55,1,1,1,,,1,FALSE,,,,,,,,,,,,,,,,,,,,,,,,,,,,,,,
,5f80a6f92dac9e105a84b405,627c7bbf2738a7bf892f4efb,2022-05-11_21h17.12.161,classification_task,2021.2.3,Win32,60.07810153,627c6715c52fd12f31907bcf,,,,,,,,,,,,,,,,,,,,,,,a,0,3.1476,"[""0.132"",""0.626"",""0.494"",""0.751""]","[1,0,1,1]",0,56,56,56,1,1,0,,,1,FALSE,,,,,,,,,,,,,,,,,,,,,,,,,,,,,,,
,5f80a6f92dac9e105a84b405,627c7bbf2738a7bf892f4efb,2022-05-11_21h17.12.161,classification_task,2021.2.3,Win32,60.07810153,627c6715c52fd12f31907bcf,,,,,,,,,,,,,,,,,,,,,,,l,0,1.4167,"[""0.272"",""0.355"",""0.626"",""0.845""]","[1,1,0,1]",0,57,57,57,1,0,1,,,1,FALSE,,,,,,,,,,,,,,,,,,,,,,,,,,,,,,,
,5f80a6f92dac9e105a84b405,627c7bbf2738a7bf892f4efb,2022-05-11_21h17.12.161,classification_task,2021.2.3,Win32,60.07810153,627c6715c52fd12f31907bcf,,,,,,,,,,,,,,,,,,,,,,,l,1,2.2487,"[""0.072"",""0.389"",""0.583"",""0.698""]","[1,1,0,1]",0,58,58,58,1,1,1,,,1,FALSE,,,,,,,,,,,,,,,,,,,,,,,,,,,,,,,
,5f80a6f92dac9e105a84b405,627c7bbf2738a7bf892f4efb,2022-05-11_21h17.12.161,classification_task,2021.2.3,Win32,60.07810153,627c6715c52fd12f31907bcf,,,,,,,,,,,,,,,,,,,,,,,l,1,1.1639,"[""0.030"",""0.389"",""0.538"",""0.698""]","[0,1,1,1]",0,59,59,59,1,1,1,,,1,FALSE,,,,,,,,,,,,,,,,,,,,,,,,,,,,,,,
,5f80a6f92dac9e105a84b405,627c7bbf2738a7bf892f4efb,2022-05-11_21h17.12.161,classification_task,2021.2.3,Win32,60.07810153,627c6715c52fd12f31907bcf,,,,,,,,,,,,,,,,,,,,,,,l,1,2.5646,"[""0.072"",""0.389"",""0.538"",""0.235""]","[1,1,1,0]",0,60,60,60,1,1,1,,,1,FALSE,,,,,,,,,,,,,,,,,,,,,,,,,,,,,,,
,5f80a6f92dac9e105a84b405,627c7bbf2738a7bf892f4efb,2022-05-11_21h17.12.161,classification_task,2021.2.3,Win32,60.07810153,627c6715c52fd12f31907bcf,,,,,,,,,,,,,,,,,,,,,,,l,1,1.4648,"[""0.132"",""0.171"",""0.494"",""0.616""]","[1,1,1,0]",0,61,61,61,1,1,0,,,1,FALSE,,,,,,,,,,,,,,,,,,,,,,,,,,,,,,,
,5f80a6f92dac9e105a84b405,627c7bbf2738a7bf892f4efb,2022-05-11_21h17.12.161,classification_task,2021.2.3,Win32,60.07810153,627c6715c52fd12f31907bcf,,,,,,,,,,,,,,,,,,,,,,,l,1,4.4211,"[""0.616"",""0.171"",""0.494"",""0.751""]","[0,1,1,1]",0,62,62,62,1,1,0,,,1,FALSE,,,,,,,,,,,,,,,,,,,,,,,,,,,,,,,
,5f80a6f92dac9e105a84b405,627c7bbf2738a7bf892f4efb,2022-05-11_21h17.12.161,classification_task,2021.2.3,Win32,60.07810153,627c6715c52fd12f31907bcf,,,,,,,,,,,,,,,,,,,,,,,a,1,0.6668,"[""0.034"",""0.457"",""0.879"",""0.946""]","[0,1,1,1]",0,63,63,63,1,0,0,,,1,FALSE,,,,,,,,,,,,,,,,,,,,,,,,,,,,,,,
,5f80a6f92dac9e105a84b405,627c7bbf2738a7bf892f4efb,2022-05-11_21h17.12.161,classification_task,2021.2.3,Win32,60.07810153,627c6715c52fd12f31907bcf,,,,,,,,,,,,,,,,,,,,,,,,,,,,,,,,,,,,,,,0, ,,0,1.625758983,228.1942,0,2,2,2,1,2,3,,,,,,,,,,,,,,,,,,
,5f80a6f92dac9e105a84b405,627c7bbf2738a7bf892f4efb,2022-05-11_21h17.12.161,classification_task,2021.2.3,Win32,60.07810153,627c6715c52fd12f31907bcf,,,,,,,,,,,,,,,,,,,,,,,,,,,,,,,,,,,,,,,1,  ,,0,7.431168688,230.9676,0,2,2,2,1,2,3,,,,,,,,,,,,,,,,,,
,5f80a6f92dac9e105a84b405,627c7bbf2738a7bf892f4efb,2022-05-11_21h17.12.161,classification_task,2021.2.3,Win32,60.07810153,627c6715c52fd12f31907bcf,,,,,,,,,,,,,,,,,,,,,,,,,,,,,,,,,,,,,,,2,  ,,0,6.769791905,233.3615,0,2,2,2,1,2,3,,,,,,,,,,,,,,,,,,
,5f80a6f92dac9e105a84b405,627c7bbf2738a7bf892f4efb,2022-05-11_21h17.12.161,classification_task,2021.2.3,Win32,60.07810153,627c6715c52fd12f31907bcf,,,,,,,,,,,,,,,,,,,,,,,,,,,,,,,,,,,,,,,,,,,,,0,2,2,2,1,,3,,,,,,,,,,,,,,,,,,
,5f80a6f92dac9e105a84b405,627c7bbf2738a7bf892f4efb,2022-05-11_21h17.12.161,classification_task,2021.2.3,Win32,60.07810153,627c6715c52fd12f31907bcf,,,,,,,,,,,,,,,,,,,,,,,,,,,,,,,,,,,,,,,,,,,,,,,,,,,,,I believe the aid is a competent performer,,0.7,0,5,1226.8357,0,0,0,0,1,0,,,,,
,5f80a6f92dac9e105a84b405,627c7bbf2738a7bf892f4efb,2022-05-11_21h17.12.161,classification_task,2021.2.3,Win32,60.07810153,627c6715c52fd12f31907bcf,,,,,,,,,,,,,,,,,,,,,,,,,,,,,,,,,,,,,,,,,,,,,,,,,,,,,I trust the aid,,0.7,0,5,1228.4341,0,0,0,0,1,0,,,,,
,5f80a6f92dac9e105a84b405,627c7bbf2738a7bf892f4efb,2022-05-11_21h17.12.161,classification_task,2021.2.3,Win32,60.07810153,627c6715c52fd12f31907bcf,,,,,,,,,,,,,,,,,,,,,,,,,,,,,,,,,,,,,,,,,,,,,,,,,,,,,I have confidence in the advice given by the aid,,0.7,0,5,1231.2047,0,0,0,0,1,0,,,,,
,5f80a6f92dac9e105a84b405,627c7bbf2738a7bf892f4efb,2022-05-11_21h17.12.161,classification_task,2021.2.3,Win32,60.07810153,627c6715c52fd12f31907bcf,,,,,,,,,,,,,,,,,,,,,,,,,,,,,,,,,,,,,,,,,,,,,,,,,,,,,I can depend on the aid,,0.7,0,4,1233.9631,0,0,0,0,1,0,,,,,
,5f80a6f92dac9e105a84b405,627c7bbf2738a7bf892f4efb,2022-05-11_21h17.12.161,classification_task,2021.2.3,Win32,60.07810153,627c6715c52fd12f31907bcf,,,,,,,,,,,,,,,,,,,,,,,,,,,,,,,,,,,,,,,,,,,,,,,,,,,,,I can rely on the aid to behave in consistent ways,,0.7,0,5,1238.7174,0,0,0,0,1,0,,,,,
,5f80a6f92dac9e105a84b405,627c7bbf2738a7bf892f4efb,2022-05-11_21h17.12.161,classification_task,2021.2.3,Win32,60.07810153,627c6715c52fd12f31907bcf,,,,,,,,,,,,,,,,,,,,,,,,,,,,,,,,,,,,,,,,,,,,,,,,,,,,,I can rely on the aid to do its best every time I take its advice,,0.7,0,5,1242.7325,0,0,0,0,1,0,,,,,
,5f80a6f92dac9e105a84b405,627c7bbf2738a7bf892f4efb,2022-05-11_21h17.12.161,classification_task,2021.2.3,Win32,60.07810153,627c6715c52fd12f31907bcf,,,,,,,,,,,,,,,,,,,,,,,,,,,,,,,,,,,,,,,,,,,,,,,,,,,,,"On trials you completed with assistance from the aid, how frequently did you think the aid was correct?",,0.7,0,100,,0,0,0,0,1,0,,,,,
,5f80a6f92dac9e105a84b405,627c7bbf2738a7bf892f4efb,2022-05-11_21h17.12.161,classification_task,2021.2.3,Win32,60.07810153,627c6715c52fd12f31907bcf,,,,,,,,,,,,,,,,,,,,,,,,,,,,,,,,,,,,,,,,,,,,,,,,,,,,,"On trials you completed without the aid, how frequently did you think you were correct?",,0.7,0,75,,0,0,0,0,1,0,,,,,
,5f80a6f92dac9e105a84b405,627c7bbf2738a7bf892f4efb,2022-05-11_21h17.12.161,classification_task,2021.2.3,Win32,60.07810153,627c6715c52fd12f31907bcf,,,,,,,,,,,,,,,,,,,,,,,,,,,,,,,,,,,,,,,,,,,,,,,,,,,,,,,,,,,0,0,0,0,1,,,,,,
,5f80a6f92dac9e105a84b405,627c7bbf2738a7bf892f4efb,2022-05-11_21h17.12.161,classification_task,2021.2.3,Win32,60.07810153,627c6715c52fd12f31907bcf,,,,,,,,,,,,,,,,,,,,,,,,,,,,,,,,,,,,,,,,,,,,,,,,,,,,,,,,,,,,,,,,,lcommand,3.2789,1266.332,,
,5f80a6f92dac9e105a84b405,627c7bbf2738a7bf892f4efb,2022-05-11_21h17.12.161,classification_task,2021.2.3,Win32,60.07810153,627c6715c52fd12f31907bcf,,,,,,,,,,,,,,,,,,,,,,,,,,,,,,,,,,,,,,,,,,,,,,,,,,,,,,,,,,,,,,,,,,,,"Mozilla/5.0 (Windows NT 10.0; Win64; x64) AppleWebKit/537.36 (KHTML, like Gecko) Chrome/101.0.4951.54 Safari/537.36 Edg/101.0.1210.39",
,5f80a6f92dac9e105a84b405,627c7bbf2738a7bf892f4efb,2022-05-11_21h17.12.161,classification_task,2021.2.3,Win32,60.07810153,627c6715c52fd12f31907bcf,,,,,,,,,,,,,,,,,,,,,,,,,,,,,,,,,,,,,,,,,,,,,,,,,,,,,,,,,,,,,,,,,,,,,HIGHLIGHT
