usingWebGL,participant,session,date,expName,psychopyVersion,OS,frameRate,study_id,signatures_friend,signatures_foe,band_ranges_top,band_ranges_bottom,formitemText,formtype,formundefined,formitemWidth,formindex,formresponse,formrt,key_resp_2.keys,key_resp_2.rt,tute_resp.keys,tute_resp.rt,tutorial.thisRepN,tutorial.thisTrialN,tutorial.thisN,tutorial.thisIndex,tutorial.ran,key_resp_4.keys,key_resp_4.rt,key_resp.keys,key_resp.corr,key_resp.rt,lines_presented,is_signal_presented,trials.thisRepN,trials.thisTrialN,trials.thisN,trials.thisIndex,trials.ran,vessel,active_band,lines,is_signal,supported_pos,catch_trial,debrief_formindex,debrief_formitemText,debrief_formtype,debrief_formitemWidth,debrief_formresponse,debrief_formrt,phases.thisRepN,phases.thisTrialN,phases.thisN,phases.thisIndex,phases.ran,phases.order,phase,key_resp_3.keys,trustitemText,trusttype,trustitemWidth,trustindex,trustresponse,trustrt,support_status.thisRepN,support_status.thisTrialN,support_status.thisN,support_status.thisIndex,support_status.ran,support_status.order,key_resp_5.keys,key_resp_5.rt,globalClockTime,userAgent,manualCondition
TRUE,5f823a9879e10536650a3d81,627c6fa178ae5c77f3b67e94,2022-05-12_03h24.11.630,classification_task,2021.2.3,Win32,59.99520038,627c6715c52fd12f31907bcf,,,,,,,,,,,,,,,,,,,,,,,,,,,,,,,,,,,,,,,,,,,,,,,,,,,,,,,,,,,,,,,,,,,,,
,5f823a9879e10536650a3d81,627c6fa178ae5c77f3b67e94,2022-05-12_03h24.11.630,classification_task,2021.2.3,Win32,59.99520038,627c6715c52fd12f31907bcf,"[[""0.235"",""0.333"",""0.883"",""0.925""],[""0.157"",""0.390"",""0.818"",""0.960""]]","[[""0.073"",""0.198"",""0.515"",""0.707""],[""0.038"",""0.289"",""0.666"",""0.751""]]","[1,10]","[100,1000]",Video game experience,,,0.7,0,,,,,,,,,,,,,,,,,,,,,,,,,,,,,,,,,,,,,,,,,,,,,,,,,,,,,,,,,,,,
,5f823a9879e10536650a3d81,627c6fa178ae5c77f3b67e94,2022-05-12_03h24.11.630,classification_task,2021.2.3,Win32,59.99520038,627c6715c52fd12f31907bcf,,,,,Approximately how many hours did you spend playing video games in the last week?,,,0.7,0,20,,,,,,,,,,,,,,,,,,,,,,,,,,,,,,,,,,,,,,,,,,,,,,,,,,,,,,,,,,,
,5f823a9879e10536650a3d81,627c6fa178ae5c77f3b67e94,2022-05-12_03h24.11.630,classification_task,2021.2.3,Win32,59.99520038,627c6715c52fd12f31907bcf,,,,,"Which game did you play the most this year? (Enter ""None"" if you didn't play any)",,,0.7,0,league od legends,,,,,,,,,,,,,,,,,,,,,,,,,,,,,,,,,,,,,,,,,,,,,,,,,,,,,,,,,,,
,5f823a9879e10536650a3d81,627c6fa178ae5c77f3b67e94,2022-05-12_03h24.11.630,classification_task,2021.2.3,Win32,59.99520038,627c6715c52fd12f31907bcf,,,,,Visual perception,,,0.7,0,,,,,,,,,,,,,,,,,,,,,,,,,,,,,,,,,,,,,,,,,,,,,,,,,,,,,,,,,,,,
,5f823a9879e10536650a3d81,627c6fa178ae5c77f3b67e94,2022-05-12_03h24.11.630,classification_task,2021.2.3,Win32,59.99520038,627c6715c52fd12f31907bcf,,,,,Do you have any form of color blindness?,,,0.7,0,No,35.2471,,,,,,,,,,,,,,,,,,,,,,,,,,,,,,,,,,,,,,,,,,,,,,,,,,,,,,,,,,
,5f823a9879e10536650a3d81,627c6fa178ae5c77f3b67e94,2022-05-12_03h24.11.630,classification_task,2021.2.3,Win32,59.99520038,627c6715c52fd12f31907bcf,,,,,Do you use software to change the colour temperature of your screen (e.g. f.lux)?,,,0.7,0,No,37.3563,,,,,,,,,,,,,,,,,,,,,,,,,,,,,,,,,,,,,,,,,,,,,,,,,,,,,,,,,,
,5f823a9879e10536650a3d81,627c6fa178ae5c77f3b67e94,2022-05-12_03h24.11.630,classification_task,2021.2.3,Win32,59.99520038,627c6715c52fd12f31907bcf,,,,,,,,,,,,space,16.7918,space,6.6158,0,0,0,0,1,,,,,,,,,,,,,,,,,,,,,,,,,,,,,,,,,,,,,,,,,,,,,,,,,
,5f823a9879e10536650a3d81,627c6fa178ae5c77f3b67e94,2022-05-12_03h24.11.630,classification_task,2021.2.3,Win32,59.99520038,627c6715c52fd12f31907bcf,,,,,,,,,,,,,,space,14.9315,1,0,1,0,1,,,,,,,,,,,,,,,,,,,,,,,,,,,,,,,,,,,,,,,,,,,,,,,,,
,5f823a9879e10536650a3d81,627c6fa178ae5c77f3b67e94,2022-05-12_03h24.11.630,classification_task,2021.2.3,Win32,59.99520038,627c6715c52fd12f31907bcf,,,,,,,,,,,,,,space,28.5111,2,0,2,0,1,,,,,,,,,,,,,,,,,,,,,,,,,,,,,,,,,,,,,,,,,,,,,,,,,
,5f823a9879e10536650a3d81,627c6fa178ae5c77f3b67e94,2022-05-12_03h24.11.630,classification_task,2021.2.3,Win32,59.99520038,627c6715c52fd12f31907bcf,,,,,,,,,,,,,,space,6.3498,3,0,3,0,1,,,,,,,,,,,,,,,,,,,,,,,,,,,,,,,,,,,,,,,,,,,,,,,,,
,5f823a9879e10536650a3d81,627c6fa178ae5c77f3b67e94,2022-05-12_03h24.11.630,classification_task,2021.2.3,Win32,59.99520038,627c6715c52fd12f31907bcf,,,,,,,,,,,,,,space,12.4222,4,0,4,0,1,,,,,,,,,,,,,,,,,,,,,,,,,,,,,,,,,,,,,,,,,,,,,,,,,
,5f823a9879e10536650a3d81,627c6fa178ae5c77f3b67e94,2022-05-12_03h24.11.630,classification_task,2021.2.3,Win32,59.99520038,627c6715c52fd12f31907bcf,,,,,,,,,,,,,,,,,,,,,space,11.8596,l,1,6.6218,"[""0.589"",""0.289"",""0.666"",""0.751""]","[0,1,1,1]",0,0,0,0,1,1,1,,,1,FALSE,,,,,,,,,,,,,,,,,,,,,,,,,,,,,,,
,5f823a9879e10536650a3d81,627c6fa178ae5c77f3b67e94,2022-05-12_03h24.11.630,classification_task,2021.2.3,Win32,59.99520038,627c6715c52fd12f31907bcf,,,,,,,,,,,,,,,,,,,,,,,a,1,5.6213,"[""0.235"",""0.333"",""0.883"",""0.589""]","[1,1,1,0]",0,1,1,1,1,0,0,,,1,FALSE,,,,,,,,,,,,,,,,,,,,,,,,,,,,,,,
,5f823a9879e10536650a3d81,627c6fa178ae5c77f3b67e94,2022-05-12_03h24.11.630,classification_task,2021.2.3,Win32,59.99520038,627c6715c52fd12f31907bcf,,,,,,,,,,,,,,,,,,,,,,,l,1,3.185,"[""0.563"",""0.198"",""0.515"",""0.707""]","[0,1,1,1]",0,2,2,2,1,1,0,,,1,FALSE,,,,,,,,,,,,,,,,,,,,,,,,,,,,,,,
,5f823a9879e10536650a3d81,627c6fa178ae5c77f3b67e94,2022-05-12_03h24.11.630,classification_task,2021.2.3,Win32,59.99520038,627c6715c52fd12f31907bcf,,,,,,,,,,,,,,,,,,,,,,,l,1,4.0935,"[""0.038"",""0.289"",""0.620"",""0.751""]","[1,1,0,1]",0,3,3,3,1,1,1,,,1,FALSE,,,,,,,,,,,,,,,,,,,,,,,,,,,,,,,
,5f823a9879e10536650a3d81,627c6fa178ae5c77f3b67e94,2022-05-12_03h24.11.630,classification_task,2021.2.3,Win32,59.99520038,627c6715c52fd12f31907bcf,,,,,,,,,,,,,,,,,,,,,,,a,1,3.0368,"[""0.157"",""0.573"",""0.818"",""0.960""]","[1,0,1,1]",0,4,4,4,1,0,1,,,1,FALSE,,,,,,,,,,,,,,,,,,,,,,,,,,,,,,,
,5f823a9879e10536650a3d81,627c6fa178ae5c77f3b67e94,2022-05-12_03h24.11.630,classification_task,2021.2.3,Win32,59.99520038,627c6715c52fd12f31907bcf,,,,,,,,,,,,,,,,,,,,,,,l,1,2.0955,"[""0.038"",""0.289"",""0.666"",""0.436""]","[1,1,1,0]",0,5,5,5,1,1,1,,,1,FALSE,,,,,,,,,,,,,,,,,,,,,,,,,,,,,,,
,5f823a9879e10536650a3d81,627c6fa178ae5c77f3b67e94,2022-05-12_03h24.11.630,classification_task,2021.2.3,Win32,59.99520038,627c6715c52fd12f31907bcf,,,,,,,,,,,,,,,,,,,,,,,a,1,3.2292,"[""0.235"",""0.624"",""0.883"",""0.925""]","[1,0,1,1]",0,6,6,6,1,0,0,,,1,FALSE,,,,,,,,,,,,,,,,,,,,,,,,,,,,,,,
,5f823a9879e10536650a3d81,627c6fa178ae5c77f3b67e94,2022-05-12_03h24.11.630,classification_task,2021.2.3,Win32,59.99520038,627c6715c52fd12f31907bcf,,,,,,,,,,,,,,,,,,,,,,,l,1,2.0144,"[""0.038"",""0.594"",""0.666"",""0.751""]","[1,0,1,1]",0,7,7,7,1,1,1,,,1,FALSE,,,,,,,,,,,,,,,,,,,,,,,,,,,,,,,
,5f823a9879e10536650a3d81,627c6fa178ae5c77f3b67e94,2022-05-12_03h24.11.630,classification_task,2021.2.3,Win32,59.99520038,627c6715c52fd12f31907bcf,,,,,,,,,,,,,,,,,,,,,,,a,1,2.2359,"[""0.235"",""0.333"",""0.609"",""0.925""]","[1,1,0,1]",0,8,8,8,1,0,0,,,1,FALSE,,,,,,,,,,,,,,,,,,,,,,,,,,,,,,,
,5f823a9879e10536650a3d81,627c6fa178ae5c77f3b67e94,2022-05-12_03h24.11.630,classification_task,2021.2.3,Win32,59.99520038,627c6715c52fd12f31907bcf,,,,,,,,,,,,,,,,,,,,,,,l,1,2.2834,"[""0.073"",""0.574"",""0.515"",""0.707""]","[1,0,1,1]",0,9,9,9,1,1,0,,,1,FALSE,,,,,,,,,,,,,,,,,,,,,,,,,,,,,,,
,5f823a9879e10536650a3d81,627c6fa178ae5c77f3b67e94,2022-05-12_03h24.11.630,classification_task,2021.2.3,Win32,59.99520038,627c6715c52fd12f31907bcf,,,,,,,,,,,,,,,,,,,,,,,a,1,1.7684,"[""0.573"",""0.333"",""0.883"",""0.925""]","[0,1,1,1]",0,10,10,10,1,0,0,,,1,FALSE,,,,,,,,,,,,,,,,,,,,,,,,,,,,,,,
,5f823a9879e10536650a3d81,627c6fa178ae5c77f3b67e94,2022-05-12_03h24.11.630,classification_task,2021.2.3,Win32,59.99520038,627c6715c52fd12f31907bcf,,,,,,,,,,,,,,,,,,,,,,,a,1,7.2282,"[""0.436"",""0.390"",""0.818"",""0.960""]","[0,1,1,1]",0,11,11,11,1,0,1,,,1,FALSE,,,,,,,,,,,,,,,,,,,,,,,,,,,,,,,
,5f823a9879e10536650a3d81,627c6fa178ae5c77f3b67e94,2022-05-12_03h24.11.630,classification_task,2021.2.3,Win32,59.99520038,627c6715c52fd12f31907bcf,,,,,,,,,,,,,,,,,,,,,,,a,1,2.5582,"[""0.157"",""0.390"",""0.430"",""0.960""]","[1,1,0,1]",0,12,12,12,1,0,1,,,1,FALSE,,,,,,,,,,,,,,,,,,,,,,,,,,,,,,,
,5f823a9879e10536650a3d81,627c6fa178ae5c77f3b67e94,2022-05-12_03h24.11.630,classification_task,2021.2.3,Win32,59.99520038,627c6715c52fd12f31907bcf,,,,,,,,,,,,,,,,,,,,,,,l,1,2.9981,"[""0.073"",""0.198"",""0.515"",""0.620""]","[1,1,1,0]",0,13,13,13,1,1,0,,,1,FALSE,,,,,,,,,,,,,,,,,,,,,,,,,,,,,,,
,5f823a9879e10536650a3d81,627c6fa178ae5c77f3b67e94,2022-05-12_03h24.11.630,classification_task,2021.2.3,Win32,59.99520038,627c6715c52fd12f31907bcf,,,,,,,,,,,,,,,,,,,,,,,a,1,2.1144,"[""0.157"",""0.390"",""0.818"",""0.620""]","[1,1,1,0]",0,14,14,14,1,0,1,,,1,FALSE,,,,,,,,,,,,,,,,,,,,,,,,,,,,,,,
,5f823a9879e10536650a3d81,627c6fa178ae5c77f3b67e94,2022-05-12_03h24.11.630,classification_task,2021.2.3,Win32,59.99520038,627c6715c52fd12f31907bcf,,,,,,,,,,,,,,,,,,,,,,,l,1,2.7683,"[""0.073"",""0.198"",""0.589"",""0.707""]","[1,1,0,1]",0,15,15,15,1,1,0,,,1,FALSE,,,,,,,,,,,,,,,,,,,,,,,,,,,,,,,
,5f823a9879e10536650a3d81,627c6fa178ae5c77f3b67e94,2022-05-12_03h24.11.630,classification_task,2021.2.3,Win32,59.99520038,627c6715c52fd12f31907bcf,,,,,,,,,,,,,,,,,,,,,,,l,1,1.6566,"[""0.038"",""0.289"",""0.620"",""0.751""]","[1,1,0,1]",0,16,16,16,1,1,1,,,1,FALSE,,,,,,,,,,,,,,,,,,,,,,,,,,,,,,,
,5f823a9879e10536650a3d81,627c6fa178ae5c77f3b67e94,2022-05-12_03h24.11.630,classification_task,2021.2.3,Win32,59.99520038,627c6715c52fd12f31907bcf,,,,,,,,,,,,,,,,,,,,,,,a,1,1.486,"[""0.157"",""0.390"",""0.573"",""0.960""]","[1,1,0,1]",0,17,17,17,1,0,1,,,1,FALSE,,,,,,,,,,,,,,,,,,,,,,,,,,,,,,,
,5f823a9879e10536650a3d81,627c6fa178ae5c77f3b67e94,2022-05-12_03h24.11.630,classification_task,2021.2.3,Win32,59.99520038,627c6715c52fd12f31907bcf,,,,,,,,,,,,,,,,,,,,,,,a,1,1.7095,"[""0.235"",""0.333"",""0.589"",""0.925""]","[1,1,0,1]",0,18,18,18,1,0,0,,,1,FALSE,,,,,,,,,,,,,,,,,,,,,,,,,,,,,,,
,5f823a9879e10536650a3d81,627c6fa178ae5c77f3b67e94,2022-05-12_03h24.11.630,classification_task,2021.2.3,Win32,59.99520038,627c6715c52fd12f31907bcf,,,,,,,,,,,,,,,,,,,,,,,l,1,2.1354,"[""0.425"",""0.289"",""0.666"",""0.751""]","[0,1,1,1]",0,19,19,19,1,1,1,,,1,FALSE,,,,,,,,,,,,,,,,,,,,,,,,,,,,,,,
,5f823a9879e10536650a3d81,627c6fa178ae5c77f3b67e94,2022-05-12_03h24.11.630,classification_task,2021.2.3,Win32,59.99520038,627c6715c52fd12f31907bcf,,,,,,,,,,,,,,,,,,,,,,,l,1,1.4281,"[""0.038"",""0.563"",""0.666"",""0.751""]","[1,0,1,1]",0,20,20,20,1,1,1,,,1,FALSE,,,,,,,,,,,,,,,,,,,,,,,,,,,,,,,
,5f823a9879e10536650a3d81,627c6fa178ae5c77f3b67e94,2022-05-12_03h24.11.630,classification_task,2021.2.3,Win32,59.99520038,627c6715c52fd12f31907bcf,,,,,,,,,,,,,,,,,,,,,,,l,1,1.7027,"[""0.073"",""0.198"",""0.515"",""0.425""]","[1,1,1,0]",0,21,21,21,1,1,0,,,1,FALSE,,,,,,,,,,,,,,,,,,,,,,,,,,,,,,,
,5f823a9879e10536650a3d81,627c6fa178ae5c77f3b67e94,2022-05-12_03h24.11.630,classification_task,2021.2.3,Win32,59.99520038,627c6715c52fd12f31907bcf,,,,,,,,,,,,,,,,,,,,,,,a,1,1.2809,"[""0.235"",""0.625"",""0.883"",""0.925""]","[1,0,1,1]",0,22,22,22,1,0,0,,,1,FALSE,,,,,,,,,,,,,,,,,,,,,,,,,,,,,,,
,5f823a9879e10536650a3d81,627c6fa178ae5c77f3b67e94,2022-05-12_03h24.11.630,classification_task,2021.2.3,Win32,59.99520038,627c6715c52fd12f31907bcf,,,,,,,,,,,,,,,,,,,,,,,a,1,2.0463,"[""0.573"",""0.333"",""0.883"",""0.925""]","[0,1,1,1]",0,23,23,23,1,0,0,,,1,FALSE,,,,,,,,,,,,,,,,,,,,,,,,,,,,,,,
,5f823a9879e10536650a3d81,627c6fa178ae5c77f3b67e94,2022-05-12_03h24.11.630,classification_task,2021.2.3,Win32,59.99520038,627c6715c52fd12f31907bcf,,,,,,,,,,,,,,,,,,,,,,,l,1,1.5024,"[""0.073"",""0.573"",""0.515"",""0.707""]","[1,0,1,1]",0,24,24,24,1,1,0,,,1,FALSE,,,,,,,,,,,,,,,,,,,,,,,,,,,,,,,
,5f823a9879e10536650a3d81,627c6fa178ae5c77f3b67e94,2022-05-12_03h24.11.630,classification_task,2021.2.3,Win32,59.99520038,627c6715c52fd12f31907bcf,,,,,,,,,,,,,,,,,,,,,,,a,1,2.3379,"[""0.157"",""0.390"",""0.818"",""0.436""]","[1,1,1,0]",0,25,25,25,1,0,1,,,1,FALSE,,,,,,,,,,,,,,,,,,,,,,,,,,,,,,,
,5f823a9879e10536650a3d81,627c6fa178ae5c77f3b67e94,2022-05-12_03h24.11.630,classification_task,2021.2.3,Win32,59.99520038,627c6715c52fd12f31907bcf,,,,,,,,,,,,,,,,,,,,,,,a,1,2.8422,"[""0.626"",""0.390"",""0.818"",""0.960""]","[0,1,1,1]",0,26,26,26,1,0,1,,,1,FALSE,,,,,,,,,,,,,,,,,,,,,,,,,,,,,,,
,5f823a9879e10536650a3d81,627c6fa178ae5c77f3b67e94,2022-05-12_03h24.11.630,classification_task,2021.2.3,Win32,59.99520038,627c6715c52fd12f31907bcf,,,,,,,,,,,,,,,,,,,,,,,a,1,2.0537,"[""0.157"",""0.587"",""0.818"",""0.960""]","[1,0,1,1]",0,27,27,27,1,0,1,,,1,FALSE,,,,,,,,,,,,,,,,,,,,,,,,,,,,,,,
,5f823a9879e10536650a3d81,627c6fa178ae5c77f3b67e94,2022-05-12_03h24.11.630,classification_task,2021.2.3,Win32,59.99520038,627c6715c52fd12f31907bcf,,,,,,,,,,,,,,,,,,,,,,,a,1,2.1617,"[""0.235"",""0.333"",""0.883"",""0.573""]","[1,1,1,0]",0,28,28,28,1,0,0,,,1,FALSE,,,,,,,,,,,,,,,,,,,,,,,,,,,,,,,
,5f823a9879e10536650a3d81,627c6fa178ae5c77f3b67e94,2022-05-12_03h24.11.630,classification_task,2021.2.3,Win32,59.99520038,627c6715c52fd12f31907bcf,,,,,,,,,,,,,,,,,,,,,,,l,1,1.4221,"[""0.038"",""0.289"",""0.666"",""0.425""]","[1,1,1,0]",0,29,29,29,1,1,1,,,1,FALSE,,,,,,,,,,,,,,,,,,,,,,,,,,,,,,,
,5f823a9879e10536650a3d81,627c6fa178ae5c77f3b67e94,2022-05-12_03h24.11.630,classification_task,2021.2.3,Win32,59.99520038,627c6715c52fd12f31907bcf,,,,,,,,,,,,,,,,,,,,,,,l,1,1.8001,"[""0.073"",""0.198"",""0.574"",""0.707""]","[1,1,0,1]",0,30,30,30,1,1,0,,,1,FALSE,,,,,,,,,,,,,,,,,,,,,,,,,,,,,,,
,5f823a9879e10536650a3d81,627c6fa178ae5c77f3b67e94,2022-05-12_03h24.11.630,classification_task,2021.2.3,Win32,59.99520038,627c6715c52fd12f31907bcf,,,,,,,,,,,,,,,,,,,,,,,l,1,2.3404,"[""0.624"",""0.198"",""0.515"",""0.707""]","[0,1,1,1]",0,31,31,31,1,1,0,,,1,FALSE,,,,,,,,,,,,,,,,,,,,,,,,,,,,,,,
,5f823a9879e10536650a3d81,627c6fa178ae5c77f3b67e94,2022-05-12_03h24.11.630,classification_task,2021.2.3,Win32,59.99520038,627c6715c52fd12f31907bcf,,,,,,,,,,,,,,,,,,,,,,,a,1,6.0519,"[""0.235"",""0.333"",""0.883"",""0.425""]","[1,1,1,0]",0,32,32,32,1,0,0,,,1,FALSE,,,,,,,,,,,,,,,,,,,,,,,,,,,,,,,
,5f823a9879e10536650a3d81,627c6fa178ae5c77f3b67e94,2022-05-12_03h24.11.630,classification_task,2021.2.3,Win32,59.99520038,627c6715c52fd12f31907bcf,,,,,,,,,,,,,,,,,,,,,,,l,0,3.0162,"[""0.235"",""0.594"",""0.883"",""0.925""]","[1,0,1,1]",0,33,33,33,1,0,0,,,1,FALSE,,,,,,,,,,,,,,,,,,,,,,,,,,,,,,,
,5f823a9879e10536650a3d81,627c6fa178ae5c77f3b67e94,2022-05-12_03h24.11.630,classification_task,2021.2.3,Win32,59.99520038,627c6715c52fd12f31907bcf,,,,,,,,,,,,,,,,,,,,,,,a,1,3.5116,"[""0.626"",""0.390"",""0.818"",""0.960""]","[0,1,1,1]",0,34,34,34,1,0,1,,,1,FALSE,,,,,,,,,,,,,,,,,,,,,,,,,,,,,,,
,5f823a9879e10536650a3d81,627c6fa178ae5c77f3b67e94,2022-05-12_03h24.11.630,classification_task,2021.2.3,Win32,59.99520038,627c6715c52fd12f31907bcf,,,,,,,,,,,,,,,,,,,,,,,a,1,1.6707,"[""0.235"",""0.333"",""0.430"",""0.925""]","[1,1,0,1]",0,35,35,35,1,0,0,,,1,FALSE,,,,,,,,,,,,,,,,,,,,,,,,,,,,,,,
,5f823a9879e10536650a3d81,627c6fa178ae5c77f3b67e94,2022-05-12_03h24.11.630,classification_task,2021.2.3,Win32,59.99520038,627c6715c52fd12f31907bcf,,,,,,,,,,,,,,,,,,,,,,,l,1,0.8949,"[""0.038"",""0.116"",""0.666"",""0.751""]","[1,0,1,1]",0,36,36,36,1,1,1,,,1,FALSE,,,,,,,,,,,,,,,,,,,,,,,,,,,,,,,
,5f823a9879e10536650a3d81,627c6fa178ae5c77f3b67e94,2022-05-12_03h24.11.630,classification_task,2021.2.3,Win32,59.99520038,627c6715c52fd12f31907bcf,,,,,,,,,,,,,,,,,,,,,,,a,1,1.3727,"[""0.157"",""0.390"",""0.818"",""0.587""]","[1,1,1,0]",0,37,37,37,1,0,1,,,1,FALSE,,,,,,,,,,,,,,,,,,,,,,,,,,,,,,,
,5f823a9879e10536650a3d81,627c6fa178ae5c77f3b67e94,2022-05-12_03h24.11.630,classification_task,2021.2.3,Win32,59.99520038,627c6715c52fd12f31907bcf,,,,,,,,,,,,,,,,,,,,,,,a,0,0.9152,"[""0.587"",""0.289"",""0.666"",""0.751""]","[0,1,1,1]",0,38,38,38,1,1,1,,,1,FALSE,,,,,,,,,,,,,,,,,,,,,,,,,,,,,,,
,5f823a9879e10536650a3d81,627c6fa178ae5c77f3b67e94,2022-05-12_03h24.11.630,classification_task,2021.2.3,Win32,59.99520038,627c6715c52fd12f31907bcf,,,,,,,,,,,,,,,,,,,,,,,a,0,2.4727,"[""0.038"",""0.289"",""0.666"",""0.589""]","[1,1,1,0]",0,39,39,39,1,1,1,,,1,FALSE,,,,,,,,,,,,,,,,,,,,,,,,,,,,,,,
,5f823a9879e10536650a3d81,627c6fa178ae5c77f3b67e94,2022-05-12_03h24.11.630,classification_task,2021.2.3,Win32,59.99520038,627c6715c52fd12f31907bcf,,,,,,,,,,,,,,,,,,,,,,,l,1,1.1776,"[""0.073"",""0.198"",""0.625"",""0.707""]","[1,1,0,1]",0,40,40,40,1,1,0,,,1,FALSE,,,,,,,,,,,,,,,,,,,,,,,,,,,,,,,
,5f823a9879e10536650a3d81,627c6fa178ae5c77f3b67e94,2022-05-12_03h24.11.630,classification_task,2021.2.3,Win32,59.99520038,627c6715c52fd12f31907bcf,,,,,,,,,,,,,,,,,,,,,,,l,1,0.7911,"[""0.038"",""0.289"",""0.625"",""0.751""]","[1,1,0,1]",0,41,41,41,1,1,1,,,1,FALSE,,,,,,,,,,,,,,,,,,,,,,,,,,,,,,,
,5f823a9879e10536650a3d81,627c6fa178ae5c77f3b67e94,2022-05-12_03h24.11.630,classification_task,2021.2.3,Win32,59.99520038,627c6715c52fd12f31907bcf,,,,,,,,,,,,,,,,,,,,,,,a,1,1.0812,"[""0.157"",""0.563"",""0.818"",""0.960""]","[1,0,1,1]",0,42,42,42,1,0,1,,,1,FALSE,,,,,,,,,,,,,,,,,,,,,,,,,,,,,,,
,5f823a9879e10536650a3d81,627c6fa178ae5c77f3b67e94,2022-05-12_03h24.11.630,classification_task,2021.2.3,Win32,59.99520038,627c6715c52fd12f31907bcf,,,,,,,,,,,,,,,,,,,,,,,a,0,0.9619,"[""0.073"",""0.198"",""0.515"",""0.116""]","[1,1,1,0]",0,43,43,43,1,1,0,,,1,FALSE,,,,,,,,,,,,,,,,,,,,,,,,,,,,,,,
,5f823a9879e10536650a3d81,627c6fa178ae5c77f3b67e94,2022-05-12_03h24.11.630,classification_task,2021.2.3,Win32,59.99520038,627c6715c52fd12f31907bcf,,,,,,,,,,,,,,,,,,,,,,,l,0,1.5745,"[""0.587"",""0.333"",""0.883"",""0.925""]","[0,1,1,1]",0,44,44,44,1,0,0,,,1,FALSE,,,,,,,,,,,,,,,,,,,,,,,,,,,,,,,
,5f823a9879e10536650a3d81,627c6fa178ae5c77f3b67e94,2022-05-12_03h24.11.630,classification_task,2021.2.3,Win32,59.99520038,627c6715c52fd12f31907bcf,,,,,,,,,,,,,,,,,,,,,,,l,1,2.3972,"[""0.620"",""0.198"",""0.515"",""0.707""]","[0,1,1,1]",0,45,45,45,1,1,0,,,1,FALSE,,,,,,,,,,,,,,,,,,,,,,,,,,,,,,,
,5f823a9879e10536650a3d81,627c6fa178ae5c77f3b67e94,2022-05-12_03h24.11.630,classification_task,2021.2.3,Win32,59.99520038,627c6715c52fd12f31907bcf,,,,,,,,,,,,,,,,,,,,,,,a,1,0.8569,"[""0.157"",""0.390"",""0.436"",""0.960""]","[1,1,0,1]",0,46,46,46,1,0,1,,,1,FALSE,,,,,,,,,,,,,,,,,,,,,,,,,,,,,,,
,5f823a9879e10536650a3d81,627c6fa178ae5c77f3b67e94,2022-05-12_03h24.11.630,classification_task,2021.2.3,Win32,59.99520038,627c6715c52fd12f31907bcf,,,,,,,,,,,,,,,,,,,,,,,a,0,0.8064,"[""0.073"",""0.430"",""0.515"",""0.707""]","[1,0,1,1]",0,47,47,47,1,1,0,,,1,FALSE,,,,,,,,,,,,,,,,,,,,,,,,,,,,,,,
,5f823a9879e10536650a3d81,627c6fa178ae5c77f3b67e94,2022-05-12_03h24.11.630,classification_task,2021.2.3,Win32,59.99520038,627c6715c52fd12f31907bcf,,,,,,,,,,,,,,,,,,,,,,,l,0,4.136,"[""0.157"",""0.390"",""0.574"",""0.960""]","[1,1,0,1]",0,48,48,48,1,0,1,,,1,FALSE,,,,,,,,,,,,,,,,,,,,,,,,,,,,,,,
,5f823a9879e10536650a3d81,627c6fa178ae5c77f3b67e94,2022-05-12_03h24.11.630,classification_task,2021.2.3,Win32,59.99520038,627c6715c52fd12f31907bcf,,,,,,,,,,,,,,,,,,,,,,,l,1,1.294,"[""0.073"",""0.198"",""0.515"",""0.609""]","[1,1,1,0]",0,49,49,49,1,1,0,,,1,FALSE,,,,,,,,,,,,,,,,,,,,,,,,,,,,,,,
,5f823a9879e10536650a3d81,627c6fa178ae5c77f3b67e94,2022-05-12_03h24.11.630,classification_task,2021.2.3,Win32,59.99520038,627c6715c52fd12f31907bcf,,,,,,,,,,,,,,,,,,,,,,,a,0,1.2445,"[""0.624"",""0.289"",""0.666"",""0.751""]","[0,1,1,1]",0,50,50,50,1,1,1,,,1,FALSE,,,,,,,,,,,,,,,,,,,,,,,,,,,,,,,
,5f823a9879e10536650a3d81,627c6fa178ae5c77f3b67e94,2022-05-12_03h24.11.630,classification_task,2021.2.3,Win32,59.99520038,627c6715c52fd12f31907bcf,,,,,,,,,,,,,,,,,,,,,,,a,1,1.1341,"[""0.235"",""0.620"",""0.883"",""0.925""]","[1,0,1,1]",0,51,51,51,1,0,0,,,1,FALSE,,,,,,,,,,,,,,,,,,,,,,,,,,,,,,,
,5f823a9879e10536650a3d81,627c6fa178ae5c77f3b67e94,2022-05-12_03h24.11.630,classification_task,2021.2.3,Win32,59.99520038,627c6715c52fd12f31907bcf,,,,,,,,,,,,,,,,,,,,,,,l,0,1.4666,"[""0.624"",""0.390"",""0.818"",""0.960""]","[0,1,1,1]",0,52,52,52,1,0,1,,,1,FALSE,,,,,,,,,,,,,,,,,,,,,,,,,,,,,,,
,5f823a9879e10536650a3d81,627c6fa178ae5c77f3b67e94,2022-05-12_03h24.11.630,classification_task,2021.2.3,Win32,59.99520038,627c6715c52fd12f31907bcf,,,,,,,,,,,,,,,,,,,,,,,l,0,1.26,"[""0.235"",""0.333"",""0.883"",""0.436""]","[1,1,1,0]",0,53,53,53,1,0,0,,,1,FALSE,,,,,,,,,,,,,,,,,,,,,,,,,,,,,,,
,5f823a9879e10536650a3d81,627c6fa178ae5c77f3b67e94,2022-05-12_03h24.11.630,classification_task,2021.2.3,Win32,59.99520038,627c6715c52fd12f31907bcf,,,,,,,,,,,,,,,,,,,,,,,a,0,1.2239,"[""0.073"",""0.198"",""0.116"",""0.707""]","[1,1,0,1]",0,54,54,54,1,1,0,,,1,FALSE,,,,,,,,,,,,,,,,,,,,,,,,,,,,,,,
,5f823a9879e10536650a3d81,627c6fa178ae5c77f3b67e94,2022-05-12_03h24.11.630,classification_task,2021.2.3,Win32,59.99520038,627c6715c52fd12f31907bcf,,,,,,,,,,,,,,,,,,,,,,,a,0,1.0541,"[""0.038"",""0.289"",""0.666"",""0.624""]","[1,1,1,0]",0,55,55,55,1,1,1,,,1,FALSE,,,,,,,,,,,,,,,,,,,,,,,,,,,,,,,
,5f823a9879e10536650a3d81,627c6fa178ae5c77f3b67e94,2022-05-12_03h24.11.630,classification_task,2021.2.3,Win32,59.99520038,627c6715c52fd12f31907bcf,,,,,,,,,,,,,,,,,,,,,,,l,0,0.7721,"[""0.625"",""0.333"",""0.883"",""0.925""]","[0,1,1,1]",0,56,56,56,1,0,0,,,1,FALSE,,,,,,,,,,,,,,,,,,,,,,,,,,,,,,,
,5f823a9879e10536650a3d81,627c6fa178ae5c77f3b67e94,2022-05-12_03h24.11.630,classification_task,2021.2.3,Win32,59.99520038,627c6715c52fd12f31907bcf,,,,,,,,,,,,,,,,,,,,,,,l,1,2.6685,"[""0.430"",""0.198"",""0.515"",""0.707""]","[0,1,1,1]",0,57,57,57,1,1,0,,,1,FALSE,,,,,,,,,,,,,,,,,,,,,,,,,,,,,,,
,5f823a9879e10536650a3d81,627c6fa178ae5c77f3b67e94,2022-05-12_03h24.11.630,classification_task,2021.2.3,Win32,59.99520038,627c6715c52fd12f31907bcf,,,,,,,,,,,,,,,,,,,,,,,a,0,0.9037,"[""0.073"",""0.574"",""0.515"",""0.707""]","[1,0,1,1]",0,58,58,58,1,1,0,,,1,FALSE,,,,,,,,,,,,,,,,,,,,,,,,,,,,,,,
,5f823a9879e10536650a3d81,627c6fa178ae5c77f3b67e94,2022-05-12_03h24.11.630,classification_task,2021.2.3,Win32,59.99520038,627c6715c52fd12f31907bcf,,,,,,,,,,,,,,,,,,,,,,,l,0,1.2766,"[""0.157"",""0.594"",""0.818"",""0.960""]","[1,0,1,1]",0,59,59,59,1,0,1,,,1,FALSE,,,,,,,,,,,,,,,,,,,,,,,,,,,,,,,
,5f823a9879e10536650a3d81,627c6fa178ae5c77f3b67e94,2022-05-12_03h24.11.630,classification_task,2021.2.3,Win32,59.99520038,627c6715c52fd12f31907bcf,,,,,,,,,,,,,,,,,,,,,,,a,0,1.2737,"[""0.038"",""0.289"",""0.626"",""0.751""]","[1,1,0,1]",0,60,60,60,1,1,1,,,1,FALSE,,,,,,,,,,,,,,,,,,,,,,,,,,,,,,,
,5f823a9879e10536650a3d81,627c6fa178ae5c77f3b67e94,2022-05-12_03h24.11.630,classification_task,2021.2.3,Win32,59.99520038,627c6715c52fd12f31907bcf,,,,,,,,,,,,,,,,,,,,,,,a,1,1.8072,"[""0.235"",""0.333"",""0.587"",""0.925""]","[1,1,0,1]",0,61,61,61,1,0,0,,,1,FALSE,,,,,,,,,,,,,,,,,,,,,,,,,,,,,,,
,5f823a9879e10536650a3d81,627c6fa178ae5c77f3b67e94,2022-05-12_03h24.11.630,classification_task,2021.2.3,Win32,59.99520038,627c6715c52fd12f31907bcf,,,,,,,,,,,,,,,,,,,,,,,l,1,1.0636,"[""0.038"",""0.626"",""0.666"",""0.751""]","[1,0,1,1]",0,62,62,62,1,1,1,,,1,FALSE,,,,,,,,,,,,,,,,,,,,,,,,,,,,,,,
,5f823a9879e10536650a3d81,627c6fa178ae5c77f3b67e94,2022-05-12_03h24.11.630,classification_task,2021.2.3,Win32,59.99520038,627c6715c52fd12f31907bcf,,,,,,,,,,,,,,,,,,,,,,,l,0,1.0515,"[""0.157"",""0.390"",""0.818"",""0.589""]","[1,1,1,0]",0,63,63,63,1,0,1,,,1,FALSE,,,,,,,,,,,,,,,,,,,,,,,,,,,,,,,
,5f823a9879e10536650a3d81,627c6fa178ae5c77f3b67e94,2022-05-12_03h24.11.630,classification_task,2021.2.3,Win32,59.99520038,627c6715c52fd12f31907bcf,,,,,,,,,,,,,,,,,,,,,,,,,,,,,,,,,,,,,,,0, ,,0,2.721928277,355.5853,0,0,0,0,1,2,1,,,,,,,,,,,,,,,,,,
,5f823a9879e10536650a3d81,627c6fa178ae5c77f3b67e94,2022-05-12_03h24.11.630,classification_task,2021.2.3,Win32,59.99520038,627c6715c52fd12f31907bcf,,,,,,,,,,,,,,,,,,,,,,,,,,,,,,,,,,,,,,,1,  ,,0,4.828532236,360.2701,0,0,0,0,1,2,1,,,,,,,,,,,,,,,,,,
,5f823a9879e10536650a3d81,627c6fa178ae5c77f3b67e94,2022-05-12_03h24.11.630,classification_task,2021.2.3,Win32,59.99520038,627c6715c52fd12f31907bcf,,,,,,,,,,,,,,,,,,,,,,,,,,,,,,,,,,,,,,,2,  ,,0,2.427983539,364.7761,0,0,0,0,1,2,1,,,,,,,,,,,,,,,,,,
,5f823a9879e10536650a3d81,627c6fa178ae5c77f3b67e94,2022-05-12_03h24.11.630,classification_task,2021.2.3,Win32,59.99520038,627c6715c52fd12f31907bcf,,,,,,,,,,,,,,,,,,,,,,,,,,,,,,,,,,,,,,,,,,,,,0,0,0,0,1,,1,,,,,,,,,,,,,,,,,,
,5f823a9879e10536650a3d81,627c6fa178ae5c77f3b67e94,2022-05-12_03h24.11.630,classification_task,2021.2.3,Win32,59.99520038,627c6715c52fd12f31907bcf,,,,,,,,,,,,,,,,,,,,,space,20.5709,l,1,1.4887,"[""0.038"",""0.594"",""0.666"",""0.751""]","[1,0,1,1]",0,0,0,0,1,1,1,,,1,FALSE,,,,,,,,,,,,,,,,,,,,,,,,,,,,,,,
,5f823a9879e10536650a3d81,627c6fa178ae5c77f3b67e94,2022-05-12_03h24.11.630,classification_task,2021.2.3,Win32,59.99520038,627c6715c52fd12f31907bcf,,,,,,,,,,,,,,,,,,,,,,,l,1,1.6929,"[""0.038"",""0.289"",""0.620"",""0.751""]","[1,1,0,1]",0,1,1,1,1,1,1,,,1,FALSE,,,,,,,,,,,,,,,,,,,,,,,,,,,,,,,
,5f823a9879e10536650a3d81,627c6fa178ae5c77f3b67e94,2022-05-12_03h24.11.630,classification_task,2021.2.3,Win32,59.99520038,627c6715c52fd12f31907bcf,,,,,,,,,,,,,,,,,,,,,,,a,1,2.4674,"[""0.620"",""0.333"",""0.883"",""0.925""]","[0,1,1,1]",0,2,2,2,1,0,0,,,1,FALSE,,,,,,,,,,,,,,,,,,,,,,,,,,,,,,,
,5f823a9879e10536650a3d81,627c6fa178ae5c77f3b67e94,2022-05-12_03h24.11.630,classification_task,2021.2.3,Win32,59.99520038,627c6715c52fd12f31907bcf,,,,,,,,,,,,,,,,,,,,,,,a,1,0.7611,"[""0.157"",""0.390"",""0.620"",""0.960""]","[1,1,0,1]",0,3,3,3,1,0,1,,,1,FALSE,,,,,,,,,,,,,,,,,,,,,,,,,,,,,,,
,5f823a9879e10536650a3d81,627c6fa178ae5c77f3b67e94,2022-05-12_03h24.11.630,classification_task,2021.2.3,Win32,59.99520038,627c6715c52fd12f31907bcf,,,,,,,,,,,,,,,,,,,,,,,a,1,0.6332,"[""0.157"",""0.436"",""0.818"",""0.960""]","[1,0,1,1]",0,4,4,4,1,0,1,,,1,FALSE,,,,,,,,,,,,,,,,,,,,,,,,,,,,,,,
,5f823a9879e10536650a3d81,627c6fa178ae5c77f3b67e94,2022-05-12_03h24.11.630,classification_task,2021.2.3,Win32,59.99520038,627c6715c52fd12f31907bcf,,,,,,,,,,,,,,,,,,,,,,,a,1,0.7958,"[""0.235"",""0.425"",""0.883"",""0.925""]","[1,0,1,1]",0,5,5,5,1,0,0,,,1,FALSE,,,,,,,,,,,,,,,,,,,,,,,,,,,,,,,
,5f823a9879e10536650a3d81,627c6fa178ae5c77f3b67e94,2022-05-12_03h24.11.630,classification_task,2021.2.3,Win32,59.99520038,627c6715c52fd12f31907bcf,,,,,,,,,,,,,,,,,,,,,,,l,1,0.8783,"[""0.073"",""0.198"",""0.515"",""0.624""]","[1,1,1,0]",0,6,6,6,1,1,0,,,1,FALSE,,,,,,,,,,,,,,,,,,,,,,,,,,,,,,,
,5f823a9879e10536650a3d81,627c6fa178ae5c77f3b67e94,2022-05-12_03h24.11.630,classification_task,2021.2.3,Win32,59.99520038,627c6715c52fd12f31907bcf,,,,,,,,,,,,,,,,,,,,,,,l,0,1.0268,"[""0.235"",""0.333"",""0.587"",""0.925""]","[1,1,0,1]",0,7,7,7,1,0,0,,,1,FALSE,,,,,,,,,,,,,,,,,,,,,,,,,,,,,,,
,5f823a9879e10536650a3d81,627c6fa178ae5c77f3b67e94,2022-05-12_03h24.11.630,classification_task,2021.2.3,Win32,59.99520038,627c6715c52fd12f31907bcf,,,,,,,,,,,,,,,,,,,,,,,a,1,0.5829,"[""0.157"",""0.390"",""0.818"",""0.425""]","[1,1,1,0]",0,8,8,8,1,0,1,,,1,FALSE,,,,,,,,,,,,,,,,,,,,,,,,,,,,,,,
,5f823a9879e10536650a3d81,627c6fa178ae5c77f3b67e94,2022-05-12_03h24.11.630,classification_task,2021.2.3,Win32,59.99520038,627c6715c52fd12f31907bcf,,,,,,,,,,,,,,,,,,,,,,,a,0,1.1233,"[""0.073"",""0.573"",""0.515"",""0.707""]","[1,0,1,1]",0,9,9,9,1,1,0,,,1,FALSE,,,,,,,,,,,,,,,,,,,,,,,,,,,,,,,
,5f823a9879e10536650a3d81,627c6fa178ae5c77f3b67e94,2022-05-12_03h24.11.630,classification_task,2021.2.3,Win32,59.99520038,627c6715c52fd12f31907bcf,,,,,,,,,,,,,,,,,,,,,,,l,1,1.3984,"[""0.594"",""0.289"",""0.666"",""0.751""]","[0,1,1,1]",0,10,10,10,1,1,1,,,1,FALSE,,,,,,,,,,,,,,,,,,,,,,,,,,,,,,,
,5f823a9879e10536650a3d81,627c6fa178ae5c77f3b67e94,2022-05-12_03h24.11.630,classification_task,2021.2.3,Win32,59.99520038,627c6715c52fd12f31907bcf,,,,,,,,,,,,,,,,,,,,,,,l,0,0.7694,"[""0.235"",""0.333"",""0.883"",""0.425""]","[1,1,1,0]",0,11,11,11,1,0,0,,,1,FALSE,,,,,,,,,,,,,,,,,,,,,,,,,,,,,,,
,5f823a9879e10536650a3d81,627c6fa178ae5c77f3b67e94,2022-05-12_03h24.11.630,classification_task,2021.2.3,Win32,59.99520038,627c6715c52fd12f31907bcf,,,,,,,,,,,,,,,,,,,,,,,l,1,1.5633,"[""0.073"",""0.198"",""0.620"",""0.707""]","[1,1,0,1]",0,12,12,12,1,1,0,,,1,FALSE,,,,,,,,,,,,,,,,,,,,,,,,,,,,,,,
,5f823a9879e10536650a3d81,627c6fa178ae5c77f3b67e94,2022-05-12_03h24.11.630,classification_task,2021.2.3,Win32,59.99520038,627c6715c52fd12f31907bcf,,,,,,,,,,,,,,,,,,,,,,,l,1,0.9357,"[""0.038"",""0.289"",""0.666"",""0.625""]","[1,1,1,0]",0,13,13,13,1,1,1,,,1,FALSE,,,,,,,,,,,,,,,,,,,,,,,,,,,,,,,
,5f823a9879e10536650a3d81,627c6fa178ae5c77f3b67e94,2022-05-12_03h24.11.630,classification_task,2021.2.3,Win32,59.99520038,627c6715c52fd12f31907bcf,,,,,,,,,,,,,,,,,,,,,,,a,0,1.1173,"[""0.609"",""0.198"",""0.515"",""0.707""]","[0,1,1,1]",0,14,14,14,1,1,0,,,1,FALSE,,,,,,,,,,,,,,,,,,,,,,,,,,,,,,,
,5f823a9879e10536650a3d81,627c6fa178ae5c77f3b67e94,2022-05-12_03h24.11.630,classification_task,2021.2.3,Win32,59.99520038,627c6715c52fd12f31907bcf,,,,,,,,,,,,,,,,,,,,,,,a,1,0.9049,"[""0.436"",""0.390"",""0.818"",""0.960""]","[0,1,1,1]",0,15,15,15,1,0,1,,,1,FALSE,,,,,,,,,,,,,,,,,,,,,,,,,,,,,,,
,5f823a9879e10536650a3d81,627c6fa178ae5c77f3b67e94,2022-05-12_03h24.11.630,classification_task,2021.2.3,Win32,59.99520038,627c6715c52fd12f31907bcf,,,,,,,,,,,,,,,,,,,,,,,l,1,0.9074,"[""0.038"",""0.289"",""0.573"",""0.751""]","[1,1,0,1]",0,16,16,16,1,1,1,,,1,FALSE,,,,,,,,,,,,,,,,,,,,,,,,,,,,,,,
,5f823a9879e10536650a3d81,627c6fa178ae5c77f3b67e94,2022-05-12_03h24.11.630,classification_task,2021.2.3,Win32,59.99520038,627c6715c52fd12f31907bcf,,,,,,,,,,,,,,,,,,,,,,,a,1,0.8366,"[""0.594"",""0.390"",""0.818"",""0.960""]","[0,1,1,1]",0,17,17,17,1,0,1,,,1,FALSE,,,,,,,,,,,,,,,,,,,,,,,,,,,,,,,
,5f823a9879e10536650a3d81,627c6fa178ae5c77f3b67e94,2022-05-12_03h24.11.630,classification_task,2021.2.3,Win32,59.99520038,627c6715c52fd12f31907bcf,,,,,,,,,,,,,,,,,,,,,,,a,1,0.7889,"[""0.235"",""0.333"",""0.883"",""0.573""]","[1,1,1,0]",0,18,18,18,1,0,0,,,1,FALSE,,,,,,,,,,,,,,,,,,,,,,,,,,,,,,,
,5f823a9879e10536650a3d81,627c6fa178ae5c77f3b67e94,2022-05-12_03h24.11.630,classification_task,2021.2.3,Win32,59.99520038,627c6715c52fd12f31907bcf,,,,,,,,,,,,,,,,,,,,,,,a,0,0.6445,"[""0.073"",""0.198"",""0.436"",""0.707""]","[1,1,0,1]",0,19,19,19,1,1,0,,,1,FALSE,,,,,,,,,,,,,,,,,,,,,,,,,,,,,,,
,5f823a9879e10536650a3d81,627c6fa178ae5c77f3b67e94,2022-05-12_03h24.11.630,classification_task,2021.2.3,Win32,59.99520038,627c6715c52fd12f31907bcf,,,,,,,,,,,,,,,,,,,,,,,l,1,1.2201,"[""0.594"",""0.289"",""0.666"",""0.751""]","[0,1,1,1]",0,20,20,20,1,1,1,,,1,FALSE,,,,,,,,,,,,,,,,,,,,,,,,,,,,,,,
,5f823a9879e10536650a3d81,627c6fa178ae5c77f3b67e94,2022-05-12_03h24.11.630,classification_task,2021.2.3,Win32,59.99520038,627c6715c52fd12f31907bcf,,,,,,,,,,,,,,,,,,,,,,,l,1,0.6745,"[""0.073"",""0.574"",""0.515"",""0.707""]","[1,0,1,1]",0,21,21,21,1,1,0,,,1,FALSE,,,,,,,,,,,,,,,,,,,,,,,,,,,,,,,
,5f823a9879e10536650a3d81,627c6fa178ae5c77f3b67e94,2022-05-12_03h24.11.630,classification_task,2021.2.3,Win32,59.99520038,627c6715c52fd12f31907bcf,,,,,,,,,,,,,,,,,,,,,,,l,0,0.7254,"[""0.235"",""0.333"",""0.436"",""0.925""]","[1,1,0,1]",0,22,22,22,1,0,0,,,1,FALSE,,,,,,,,,,,,,,,,,,,,,,,,,,,,,,,
,5f823a9879e10536650a3d81,627c6fa178ae5c77f3b67e94,2022-05-12_03h24.11.630,classification_task,2021.2.3,Win32,59.99520038,627c6715c52fd12f31907bcf,,,,,,,,,,,,,,,,,,,,,,,l,1,0.8202,"[""0.038"",""0.430"",""0.666"",""0.751""]","[1,0,1,1]",0,23,23,23,1,1,1,,,1,FALSE,,,,,,,,,,,,,,,,,,,,,,,,,,,,,,,
,5f823a9879e10536650a3d81,627c6fa178ae5c77f3b67e94,2022-05-12_03h24.11.630,classification_task,2021.2.3,Win32,59.99520038,627c6715c52fd12f31907bcf,,,,,,,,,,,,,,,,,,,,,,,a,1,0.6821,"[""0.157"",""0.390"",""0.818"",""0.589""]","[1,1,1,0]",0,24,24,24,1,0,1,,,1,FALSE,,,,,,,,,,,,,,,,,,,,,,,,,,,,,,,
,5f823a9879e10536650a3d81,627c6fa178ae5c77f3b67e94,2022-05-12_03h24.11.630,classification_task,2021.2.3,Win32,59.99520038,627c6715c52fd12f31907bcf,,,,,,,,,,,,,,,,,,,,,,,a,1,0.8438,"[""0.235"",""0.620"",""0.883"",""0.925""]","[1,0,1,1]",0,25,25,25,1,0,0,,,1,FALSE,,,,,,,,,,,,,,,,,,,,,,,,,,,,,,,
,5f823a9879e10536650a3d81,627c6fa178ae5c77f3b67e94,2022-05-12_03h24.11.630,classification_task,2021.2.3,Win32,59.99520038,627c6715c52fd12f31907bcf,,,,,,,,,,,,,,,,,,,,,,,l,1,0.7785,"[""0.038"",""0.289"",""0.666"",""0.563""]","[1,1,1,0]",0,26,26,26,1,1,1,,,1,FALSE,,,,,,,,,,,,,,,,,,,,,,,,,,,,,,,
,5f823a9879e10536650a3d81,627c6fa178ae5c77f3b67e94,2022-05-12_03h24.11.630,classification_task,2021.2.3,Win32,59.99520038,627c6715c52fd12f31907bcf,,,,,,,,,,,,,,,,,,,,,,,a,1,0.728,"[""0.157"",""0.390"",""0.436"",""0.960""]","[1,1,0,1]",0,27,27,27,1,0,1,,,1,FALSE,,,,,,,,,,,,,,,,,,,,,,,,,,,,,,,
,5f823a9879e10536650a3d81,627c6fa178ae5c77f3b67e94,2022-05-12_03h24.11.630,classification_task,2021.2.3,Win32,59.99520038,627c6715c52fd12f31907bcf,,,,,,,,,,,,,,,,,,,,,,,a,0,1.2202,"[""0.425"",""0.198"",""0.515"",""0.707""]","[0,1,1,1]",0,28,28,28,1,1,0,,,1,FALSE,,,,,,,,,,,,,,,,,,,,,,,,,,,,,,,
,5f823a9879e10536650a3d81,627c6fa178ae5c77f3b67e94,2022-05-12_03h24.11.630,classification_task,2021.2.3,Win32,59.99520038,627c6715c52fd12f31907bcf,,,,,,,,,,,,,,,,,,,,,,,a,1,0.8317,"[""0.436"",""0.333"",""0.883"",""0.925""]","[0,1,1,1]",0,29,29,29,1,0,0,,,1,FALSE,,,,,,,,,,,,,,,,,,,,,,,,,,,,,,,
,5f823a9879e10536650a3d81,627c6fa178ae5c77f3b67e94,2022-05-12_03h24.11.630,classification_task,2021.2.3,Win32,59.99520038,627c6715c52fd12f31907bcf,,,,,,,,,,,,,,,,,,,,,,,a,1,0.6911,"[""0.157"",""0.574"",""0.818"",""0.960""]","[1,0,1,1]",0,30,30,30,1,0,1,,,1,FALSE,,,,,,,,,,,,,,,,,,,,,,,,,,,,,,,
,5f823a9879e10536650a3d81,627c6fa178ae5c77f3b67e94,2022-05-12_03h24.11.630,classification_task,2021.2.3,Win32,59.99520038,627c6715c52fd12f31907bcf,,,,,,,,,,,,,,,,,,,,,,,l,1,0.5202,"[""0.073"",""0.198"",""0.515"",""0.436""]","[1,1,1,0]",0,31,31,31,1,1,0,,,1,FALSE,,,,,,,,,,,,,,,,,,,,,,,,,,,,,,,
,5f823a9879e10536650a3d81,627c6fa178ae5c77f3b67e94,2022-05-12_03h24.11.630,classification_task,2021.2.3,Win32,59.99520038,627c6715c52fd12f31907bcf,,,,,,,,,,,,,,,,,,,,,,,l,0,0.5754,"[""0.624"",""0.390"",""0.818"",""0.960""]","[0,1,1,1]",0,32,32,32,1,0,1,,,1,FALSE,,,,,,,,,,,,,,,,,,,,,,,,,,,,,,,
,5f823a9879e10536650a3d81,627c6fa178ae5c77f3b67e94,2022-05-12_03h24.11.630,classification_task,2021.2.3,Win32,59.99520038,627c6715c52fd12f31907bcf,,,,,,,,,,,,,,,,,,,,,,,l,1,0.7787,"[""0.038"",""0.289"",""0.573"",""0.751""]","[1,1,0,1]",0,33,33,33,1,1,1,,,1,FALSE,,,,,,,,,,,,,,,,,,,,,,,,,,,,,,,
,5f823a9879e10536650a3d81,627c6fa178ae5c77f3b67e94,2022-05-12_03h24.11.630,classification_task,2021.2.3,Win32,59.99520038,627c6715c52fd12f31907bcf,,,,,,,,,,,,,,,,,,,,,,,a,0,0.7406,"[""0.073"",""0.574"",""0.515"",""0.707""]","[1,0,1,1]",0,34,34,34,1,1,0,,,1,FALSE,,,,,,,,,,,,,,,,,,,,,,,,,,,,,,,
,5f823a9879e10536650a3d81,627c6fa178ae5c77f3b67e94,2022-05-12_03h24.11.630,classification_task,2021.2.3,Win32,59.99520038,627c6715c52fd12f31907bcf,,,,,,,,,,,,,,,,,,,,,,,a,0,1.0458,"[""0.626"",""0.289"",""0.666"",""0.751""]","[0,1,1,1]",0,35,35,35,1,1,1,,,1,FALSE,,,,,,,,,,,,,,,,,,,,,,,,,,,,,,,
,5f823a9879e10536650a3d81,627c6fa178ae5c77f3b67e94,2022-05-12_03h24.11.630,classification_task,2021.2.3,Win32,59.99520038,627c6715c52fd12f31907bcf,,,,,,,,,,,,,,,,,,,,,,,l,0,0.9511,"[""0.235"",""0.333"",""0.574"",""0.925""]","[1,1,0,1]",0,36,36,36,1,0,0,,,1,FALSE,,,,,,,,,,,,,,,,,,,,,,,,,,,,,,,
,5f823a9879e10536650a3d81,627c6fa178ae5c77f3b67e94,2022-05-12_03h24.11.630,classification_task,2021.2.3,Win32,59.99520038,627c6715c52fd12f31907bcf,,,,,,,,,,,,,,,,,,,,,,,l,1,1.679,"[""0.038"",""0.289"",""0.666"",""0.594""]","[1,1,1,0]",0,37,37,37,1,1,1,,,1,FALSE,,,,,,,,,,,,,,,,,,,,,,,,,,,,,,,
,5f823a9879e10536650a3d81,627c6fa178ae5c77f3b67e94,2022-05-12_03h24.11.630,classification_task,2021.2.3,Win32,59.99520038,627c6715c52fd12f31907bcf,,,,,,,,,,,,,,,,,,,,,,,l,1,0.5976,"[""0.038"",""0.574"",""0.666"",""0.751""]","[1,0,1,1]",0,38,38,38,1,1,1,,,1,FALSE,,,,,,,,,,,,,,,,,,,,,,,,,,,,,,,
,5f823a9879e10536650a3d81,627c6fa178ae5c77f3b67e94,2022-05-12_03h24.11.630,classification_task,2021.2.3,Win32,59.99520038,627c6715c52fd12f31907bcf,,,,,,,,,,,,,,,,,,,,,,,a,0,0.6343,"[""0.073"",""0.198"",""0.515"",""0.436""]","[1,1,1,0]",0,39,39,39,1,1,0,,,1,FALSE,,,,,,,,,,,,,,,,,,,,,,,,,,,,,,,
,5f823a9879e10536650a3d81,627c6fa178ae5c77f3b67e94,2022-05-12_03h24.11.630,classification_task,2021.2.3,Win32,59.99520038,627c6715c52fd12f31907bcf,,,,,,,,,,,,,,,,,,,,,,,a,1,0.7998,"[""0.157"",""0.573"",""0.818"",""0.960""]","[1,0,1,1]",0,40,40,40,1,0,1,,,1,FALSE,,,,,,,,,,,,,,,,,,,,,,,,,,,,,,,
,5f823a9879e10536650a3d81,627c6fa178ae5c77f3b67e94,2022-05-12_03h24.11.630,classification_task,2021.2.3,Win32,59.99520038,627c6715c52fd12f31907bcf,,,,,,,,,,,,,,,,,,,,,,,l,0,0.7654,"[""0.235"",""0.430"",""0.883"",""0.925""]","[1,0,1,1]",0,41,41,41,1,0,0,,,1,FALSE,,,,,,,,,,,,,,,,,,,,,,,,,,,,,,,
,5f823a9879e10536650a3d81,627c6fa178ae5c77f3b67e94,2022-05-12_03h24.11.630,classification_task,2021.2.3,Win32,59.99520038,627c6715c52fd12f31907bcf,,,,,,,,,,,,,,,,,,,,,,,l,1,0.732,"[""0.073"",""0.198"",""0.589"",""0.707""]","[1,1,0,1]",0,42,42,42,1,1,0,,,1,FALSE,,,,,,,,,,,,,,,,,,,,,,,,,,,,,,,
,5f823a9879e10536650a3d81,627c6fa178ae5c77f3b67e94,2022-05-12_03h24.11.630,classification_task,2021.2.3,Win32,59.99520038,627c6715c52fd12f31907bcf,,,,,,,,,,,,,,,,,,,,,,,a,1,0.6268,"[""0.609"",""0.333"",""0.883"",""0.925""]","[0,1,1,1]",0,43,43,43,1,0,0,,,1,FALSE,,,,,,,,,,,,,,,,,,,,,,,,,,,,,,,
,5f823a9879e10536650a3d81,627c6fa178ae5c77f3b67e94,2022-05-12_03h24.11.630,classification_task,2021.2.3,Win32,59.99520038,627c6715c52fd12f31907bcf,,,,,,,,,,,,,,,,,,,,,,,a,1,0.7685,"[""0.157"",""0.390"",""0.609"",""0.960""]","[1,1,0,1]",0,44,44,44,1,0,1,,,1,FALSE,,,,,,,,,,,,,,,,,,,,,,,,,,,,,,,
,5f823a9879e10536650a3d81,627c6fa178ae5c77f3b67e94,2022-05-12_03h24.11.630,classification_task,2021.2.3,Win32,59.99520038,627c6715c52fd12f31907bcf,,,,,,,,,,,,,,,,,,,,,,,a,1,0.4981,"[""0.157"",""0.390"",""0.818"",""0.626""]","[1,1,1,0]",0,45,45,45,1,0,1,,,1,FALSE,,,,,,,,,,,,,,,,,,,,,,,,,,,,,,,
,5f823a9879e10536650a3d81,627c6fa178ae5c77f3b67e94,2022-05-12_03h24.11.630,classification_task,2021.2.3,Win32,59.99520038,627c6715c52fd12f31907bcf,,,,,,,,,,,,,,,,,,,,,,,l,0,0.5857,"[""0.235"",""0.333"",""0.883"",""0.425""]","[1,1,1,0]",0,46,46,46,1,0,0,,,1,FALSE,,,,,,,,,,,,,,,,,,,,,,,,,,,,,,,
,5f823a9879e10536650a3d81,627c6fa178ae5c77f3b67e94,2022-05-12_03h24.11.630,classification_task,2021.2.3,Win32,59.99520038,627c6715c52fd12f31907bcf,,,,,,,,,,,,,,,,,,,,,,,l,1,0.9961,"[""0.573"",""0.198"",""0.515"",""0.707""]","[0,1,1,1]",0,47,47,47,1,1,0,,,1,FALSE,,,,,,,,,,,,,,,,,,,,,,,,,,,,,,,
,5f823a9879e10536650a3d81,627c6fa178ae5c77f3b67e94,2022-05-12_03h24.11.630,classification_task,2021.2.3,Win32,59.99520038,627c6715c52fd12f31907bcf,,,,,,,,,,,,,,,,,,,,,,,a,1,0.8357,"[""0.235"",""0.436"",""0.883"",""0.925""]","[1,0,1,1]",0,48,48,48,1,0,0,,,1,FALSE,,,,,,,,,,,,,,,,,,,,,,,,,,,,,,,
,5f823a9879e10536650a3d81,627c6fa178ae5c77f3b67e94,2022-05-12_03h24.11.630,classification_task,2021.2.3,Win32,59.99520038,627c6715c52fd12f31907bcf,,,,,,,,,,,,,,,,,,,,,,,l,1,0.5836,"[""0.609"",""0.198"",""0.515"",""0.707""]","[0,1,1,1]",0,49,49,49,1,1,0,,,1,FALSE,,,,,,,,,,,,,,,,,,,,,,,,,,,,,,,
,5f823a9879e10536650a3d81,627c6fa178ae5c77f3b67e94,2022-05-12_03h24.11.630,classification_task,2021.2.3,Win32,59.99520038,627c6715c52fd12f31907bcf,,,,,,,,,,,,,,,,,,,,,,,l,1,0.8964,"[""0.038"",""0.289"",""0.666"",""0.563""]","[1,1,1,0]",0,50,50,50,1,1,1,,,1,FALSE,,,,,,,,,,,,,,,,,,,,,,,,,,,,,,,
,5f823a9879e10536650a3d81,627c6fa178ae5c77f3b67e94,2022-05-12_03h24.11.630,classification_task,2021.2.3,Win32,59.99520038,627c6715c52fd12f31907bcf,,,,,,,,,,,,,,,,,,,,,,,a,0,0.7778,"[""0.073"",""0.198"",""0.425"",""0.707""]","[1,1,0,1]",0,51,51,51,1,1,0,,,1,FALSE,,,,,,,,,,,,,,,,,,,,,,,,,,,,,,,
,5f823a9879e10536650a3d81,627c6fa178ae5c77f3b67e94,2022-05-12_03h24.11.630,classification_task,2021.2.3,Win32,59.99520038,627c6715c52fd12f31907bcf,,,,,,,,,,,,,,,,,,,,,,,l,1,0.6902,"[""0.073"",""0.574"",""0.515"",""0.707""]","[1,0,1,1]",0,52,52,52,1,1,0,,,1,FALSE,,,,,,,,,,,,,,,,,,,,,,,,,,,,,,,
,5f823a9879e10536650a3d81,627c6fa178ae5c77f3b67e94,2022-05-12_03h24.11.630,classification_task,2021.2.3,Win32,59.99520038,627c6715c52fd12f31907bcf,,,,,,,,,,,,,,,,,,,,,,,a,1,0.6843,"[""0.157"",""0.390"",""0.563"",""0.960""]","[1,1,0,1]",0,53,53,53,1,0,1,,,1,FALSE,,,,,,,,,,,,,,,,,,,,,,,,,,,,,,,
,5f823a9879e10536650a3d81,627c6fa178ae5c77f3b67e94,2022-05-12_03h24.11.630,classification_task,2021.2.3,Win32,59.99520038,627c6715c52fd12f31907bcf,,,,,,,,,,,,,,,,,,,,,,,a,1,0.4858,"[""0.157"",""0.573"",""0.818"",""0.960""]","[1,0,1,1]",0,54,54,54,1,0,1,,,1,FALSE,,,,,,,,,,,,,,,,,,,,,,,,,,,,,,,
,5f823a9879e10536650a3d81,627c6fa178ae5c77f3b67e94,2022-05-12_03h24.11.630,classification_task,2021.2.3,Win32,59.99520038,627c6715c52fd12f31907bcf,,,,,,,,,,,,,,,,,,,,,,,l,1,0.628,"[""0.038"",""0.574"",""0.666"",""0.751""]","[1,0,1,1]",0,55,55,55,1,1,1,,,1,FALSE,,,,,,,,,,,,,,,,,,,,,,,,,,,,,,,
,5f823a9879e10536650a3d81,627c6fa178ae5c77f3b67e94,2022-05-12_03h24.11.630,classification_task,2021.2.3,Win32,59.99520038,627c6715c52fd12f31907bcf,,,,,,,,,,,,,,,,,,,,,,,l,1,0.4871,"[""0.038"",""0.289"",""0.116"",""0.751""]","[1,1,0,1]",0,56,56,56,1,1,1,,,1,FALSE,,,,,,,,,,,,,,,,,,,,,,,,,,,,,,,
,5f823a9879e10536650a3d81,627c6fa178ae5c77f3b67e94,2022-05-12_03h24.11.630,classification_task,2021.2.3,Win32,59.99520038,627c6715c52fd12f31907bcf,,,,,,,,,,,,,,,,,,,,,,,a,1,0.5866,"[""0.436"",""0.390"",""0.818"",""0.960""]","[0,1,1,1]",0,57,57,57,1,0,1,,,1,FALSE,,,,,,,,,,,,,,,,,,,,,,,,,,,,,,,
,5f823a9879e10536650a3d81,627c6fa178ae5c77f3b67e94,2022-05-12_03h24.11.630,classification_task,2021.2.3,Win32,59.99520038,627c6715c52fd12f31907bcf,,,,,,,,,,,,,,,,,,,,,,,l,0,0.5274,"[""0.235"",""0.333"",""0.430"",""0.925""]","[1,1,0,1]",0,58,58,58,1,0,0,,,1,FALSE,,,,,,,,,,,,,,,,,,,,,,,,,,,,,,,
,5f823a9879e10536650a3d81,627c6fa178ae5c77f3b67e94,2022-05-12_03h24.11.630,classification_task,2021.2.3,Win32,59.99520038,627c6715c52fd12f31907bcf,,,,,,,,,,,,,,,,,,,,,,,a,0,0.6393,"[""0.073"",""0.198"",""0.515"",""0.116""]","[1,1,1,0]",0,59,59,59,1,1,0,,,1,FALSE,,,,,,,,,,,,,,,,,,,,,,,,,,,,,,,
,5f823a9879e10536650a3d81,627c6fa178ae5c77f3b67e94,2022-05-12_03h24.11.630,classification_task,2021.2.3,Win32,59.99520038,627c6715c52fd12f31907bcf,,,,,,,,,,,,,,,,,,,,,,,a,1,0.9729,"[""0.157"",""0.390"",""0.818"",""0.624""]","[1,1,1,0]",0,60,60,60,1,0,1,,,1,FALSE,,,,,,,,,,,,,,,,,,,,,,,,,,,,,,,
,5f823a9879e10536650a3d81,627c6fa178ae5c77f3b67e94,2022-05-12_03h24.11.630,classification_task,2021.2.3,Win32,59.99520038,627c6715c52fd12f31907bcf,,,,,,,,,,,,,,,,,,,,,,,l,1,0.5268,"[""0.625"",""0.289"",""0.666"",""0.751""]","[0,1,1,1]",0,61,61,61,1,1,1,,,1,FALSE,,,,,,,,,,,,,,,,,,,,,,,,,,,,,,,
,5f823a9879e10536650a3d81,627c6fa178ae5c77f3b67e94,2022-05-12_03h24.11.630,classification_task,2021.2.3,Win32,59.99520038,627c6715c52fd12f31907bcf,,,,,,,,,,,,,,,,,,,,,,,a,1,0.4366,"[""0.563"",""0.333"",""0.883"",""0.925""]","[0,1,1,1]",0,62,62,62,1,0,0,,,1,FALSE,,,,,,,,,,,,,,,,,,,,,,,,,,,,,,,
,5f823a9879e10536650a3d81,627c6fa178ae5c77f3b67e94,2022-05-12_03h24.11.630,classification_task,2021.2.3,Win32,59.99520038,627c6715c52fd12f31907bcf,,,,,,,,,,,,,,,,,,,,,,,a,1,0.3884,"[""0.235"",""0.333"",""0.883"",""0.625""]","[1,1,1,0]",0,63,63,63,1,0,0,,,1,FALSE,,,,,,,,,,,,,,,,,,,,,,,,,,,,,,,
,5f823a9879e10536650a3d81,627c6fa178ae5c77f3b67e94,2022-05-12_03h24.11.630,classification_task,2021.2.3,Win32,59.99520038,627c6715c52fd12f31907bcf,,,,,,,,,,,,,,,,,,,,,,,,,,,,,,,,,,,,,,,0, ,,0,1.27669998,145.9459,0,1,1,1,1,2,2,,,,,,,,,,,,,,,,,,
,5f823a9879e10536650a3d81,627c6fa178ae5c77f3b67e94,2022-05-12_03h24.11.630,classification_task,2021.2.3,Win32,59.99520038,627c6715c52fd12f31907bcf,,,,,,,,,,,,,,,,,,,,,,,,,,,,,,,,,,,,,,,1,  ,,0,6.886145405,149.6241,0,1,1,1,1,2,2,,,,,,,,,,,,,,,,,,
,5f823a9879e10536650a3d81,627c6fa178ae5c77f3b67e94,2022-05-12_03h24.11.630,classification_task,2021.2.3,Win32,59.99520038,627c6715c52fd12f31907bcf,,,,,,,,,,,,,,,,,,,,,,,,,,,,,,,,,,,,,,,2,  ,,0,3.873211836,151.848,0,1,1,1,1,2,2,,,,,,,,,,,,,,,,,,
,5f823a9879e10536650a3d81,627c6fa178ae5c77f3b67e94,2022-05-12_03h24.11.630,classification_task,2021.2.3,Win32,59.99520038,627c6715c52fd12f31907bcf,,,,,,,,,,,,,,,,,,,,,,,,,,,,,,,,,,,,,,,,,,,,,0,1,1,1,1,,2,,,,,,,,,,,,,,,,,,
,5f823a9879e10536650a3d81,627c6fa178ae5c77f3b67e94,2022-05-12_03h24.11.630,classification_task,2021.2.3,Win32,59.99520038,627c6715c52fd12f31907bcf,,,,,,,,,,,,,,,,,,,,,space,8.9302,l,0,0.8725,"[""0.235"",""0.563"",""0.883"",""0.925""]","[1,0,1,1]",0,0,0,0,1,0,0,,,1,FALSE,,,,,,,,,,,,,,,,,,,,,,,,,,,,,,,
,5f823a9879e10536650a3d81,627c6fa178ae5c77f3b67e94,2022-05-12_03h24.11.630,classification_task,2021.2.3,Win32,59.99520038,627c6715c52fd12f31907bcf,,,,,,,,,,,,,,,,,,,,,,,a,1,0.5809,"[""0.235"",""0.333"",""0.625"",""0.925""]","[1,1,0,1]",0,1,1,1,1,0,0,,,1,FALSE,,,,,,,,,,,,,,,,,,,,,,,,,,,,,,,
,5f823a9879e10536650a3d81,627c6fa178ae5c77f3b67e94,2022-05-12_03h24.11.630,classification_task,2021.2.3,Win32,59.99520038,627c6715c52fd12f31907bcf,,,,,,,,,,,,,,,,,,,,,,,a,0,1.2066,"[""0.038"",""0.289"",""0.430"",""0.751""]","[1,1,0,1]",0,2,2,2,1,1,1,,,1,FALSE,,,,,,,,,,,,,,,,,,,,,,,,,,,,,,,
,5f823a9879e10536650a3d81,627c6fa178ae5c77f3b67e94,2022-05-12_03h24.11.630,classification_task,2021.2.3,Win32,59.99520038,627c6715c52fd12f31907bcf,,,,,,,,,,,,,,,,,,,,,,,a,1,1.2178,"[""0.157"",""0.390"",""0.436"",""0.960""]","[1,1,0,1]",0,3,3,3,1,0,1,,,1,FALSE,,,,,,,,,,,,,,,,,,,,,,,,,,,,,,,
,5f823a9879e10536650a3d81,627c6fa178ae5c77f3b67e94,2022-05-12_03h24.11.630,classification_task,2021.2.3,Win32,59.99520038,627c6715c52fd12f31907bcf,,,,,,,,,,,,,,,,,,,,,,,l,1,0.6623,"[""0.436"",""0.198"",""0.515"",""0.707""]","[0,1,1,1]",0,4,4,4,1,1,0,,,1,FALSE,,,,,,,,,,,,,,,,,,,,,,,,,,,,,,,
,5f823a9879e10536650a3d81,627c6fa178ae5c77f3b67e94,2022-05-12_03h24.11.630,classification_task,2021.2.3,Win32,59.99520038,627c6715c52fd12f31907bcf,,,,,,,,,,,,,,,,,,,,,,,a,0,0.993,"[""0.038"",""0.289"",""0.666"",""0.594""]","[1,1,1,0]",0,5,5,5,1,1,1,,,1,FALSE,,,,,,,,,,,,,,,,,,,,,,,,,,,,,,,
,5f823a9879e10536650a3d81,627c6fa178ae5c77f3b67e94,2022-05-12_03h24.11.630,classification_task,2021.2.3,Win32,59.99520038,627c6715c52fd12f31907bcf,,,,,,,,,,,,,,,,,,,,,,,l,0,1.6834,"[""0.157"",""0.573"",""0.818"",""0.960""]","[1,0,1,1]",0,6,6,6,1,0,1,,,1,FALSE,,,,,,,,,,,,,,,,,,,,,,,,,,,,,,,
,5f823a9879e10536650a3d81,627c6fa178ae5c77f3b67e94,2022-05-12_03h24.11.630,classification_task,2021.2.3,Win32,59.99520038,627c6715c52fd12f31907bcf,,,,,,,,,,,,,,,,,,,,,,,a,0,0.9262,"[""0.073"",""0.198"",""0.515"",""0.574""]","[1,1,1,0]",0,7,7,7,1,1,0,,,1,FALSE,,,,,,,,,,,,,,,,,,,,,,,,,,,,,,,
,5f823a9879e10536650a3d81,627c6fa178ae5c77f3b67e94,2022-05-12_03h24.11.630,classification_task,2021.2.3,Win32,59.99520038,627c6715c52fd12f31907bcf,,,,,,,,,,,,,,,,,,,,,,,a,0,0.7679,"[""0.073"",""0.198"",""0.620"",""0.707""]","[1,1,0,1]",0,8,8,8,1,1,0,,,1,FALSE,,,,,,,,,,,,,,,,,,,,,,,,,,,,,,,
,5f823a9879e10536650a3d81,627c6fa178ae5c77f3b67e94,2022-05-12_03h24.11.630,classification_task,2021.2.3,Win32,59.99520038,627c6715c52fd12f31907bcf,,,,,,,,,,,,,,,,,,,,,,,a,0,1.5771,"[""0.563"",""0.289"",""0.666"",""0.751""]","[0,1,1,1]",0,9,9,9,1,1,1,,,1,FALSE,,,,,,,,,,,,,,,,,,,,,,,,,,,,,,,
,5f823a9879e10536650a3d81,627c6fa178ae5c77f3b67e94,2022-05-12_03h24.11.630,classification_task,2021.2.3,Win32,59.99520038,627c6715c52fd12f31907bcf,,,,,,,,,,,,,,,,,,,,,,,l,0,0.5286,"[""0.235"",""0.333"",""0.883"",""0.436""]","[1,1,1,0]",0,10,10,10,1,0,0,,,1,FALSE,,,,,,,,,,,,,,,,,,,,,,,,,,,,,,,
,5f823a9879e10536650a3d81,627c6fa178ae5c77f3b67e94,2022-05-12_03h24.11.630,classification_task,2021.2.3,Win32,59.99520038,627c6715c52fd12f31907bcf,,,,,,,,,,,,,,,,,,,,,,,l,0,0.5306,"[""0.625"",""0.333"",""0.883"",""0.925""]","[0,1,1,1]",0,11,11,11,1,0,0,,,1,FALSE,,,,,,,,,,,,,,,,,,,,,,,,,,,,,,,
,5f823a9879e10536650a3d81,627c6fa178ae5c77f3b67e94,2022-05-12_03h24.11.630,classification_task,2021.2.3,Win32,59.99520038,627c6715c52fd12f31907bcf,,,,,,,,,,,,,,,,,,,,,,,a,1,0.3872,"[""0.624"",""0.390"",""0.818"",""0.960""]","[0,1,1,1]",0,12,12,12,1,0,1,,,1,FALSE,,,,,,,,,,,,,,,,,,,,,,,,,,,,,,,
,5f823a9879e10536650a3d81,627c6fa178ae5c77f3b67e94,2022-05-12_03h24.11.630,classification_task,2021.2.3,Win32,59.99520038,627c6715c52fd12f31907bcf,,,,,,,,,,,,,,,,,,,,,,,a,1,0.6696,"[""0.157"",""0.390"",""0.818"",""0.574""]","[1,1,1,0]",0,13,13,13,1,0,1,,,1,FALSE,,,,,,,,,,,,,,,,,,,,,,,,,,,,,,,
,5f823a9879e10536650a3d81,627c6fa178ae5c77f3b67e94,2022-05-12_03h24.11.630,classification_task,2021.2.3,Win32,59.99520038,627c6715c52fd12f31907bcf,,,,,,,,,,,,,,,,,,,,,,,a,0,1.3493,"[""0.038"",""0.587"",""0.666"",""0.751""]","[1,0,1,1]",0,14,14,14,1,1,1,,,1,FALSE,,,,,,,,,,,,,,,,,,,,,,,,,,,,,,,
,5f823a9879e10536650a3d81,627c6fa178ae5c77f3b67e94,2022-05-12_03h24.11.630,classification_task,2021.2.3,Win32,59.99520038,627c6715c52fd12f31907bcf,,,,,,,,,,,,,,,,,,,,,,,l,1,0.6708,"[""0.073"",""0.609"",""0.515"",""0.707""]","[1,0,1,1]",0,15,15,15,1,1,0,,,1,FALSE,,,,,,,,,,,,,,,,,,,,,,,,,,,,,,,
,5f823a9879e10536650a3d81,627c6fa178ae5c77f3b67e94,2022-05-12_03h24.11.630,classification_task,2021.2.3,Win32,59.99520038,627c6715c52fd12f31907bcf,,,,,,,,,,,,,,,,,,,,,,,l,1,0.7273,"[""0.038"",""0.289"",""0.620"",""0.751""]","[1,1,0,1]",0,16,16,16,1,1,1,,,1,FALSE,,,,,,,,,,,,,,,,,,,,,,,,,,,,,,,
,5f823a9879e10536650a3d81,627c6fa178ae5c77f3b67e94,2022-05-12_03h24.11.630,classification_task,2021.2.3,Win32,59.99520038,627c6715c52fd12f31907bcf,,,,,,,,,,,,,,,,,,,,,,,a,1,0.3382,"[""0.235"",""0.333"",""0.587"",""0.925""]","[1,1,0,1]",0,17,17,17,1,0,0,,,1,FALSE,,,,,,,,,,,,,,,,,,,,,,,,,,,,,,,
,5f823a9879e10536650a3d81,627c6fa178ae5c77f3b67e94,2022-05-12_03h24.11.630,classification_task,2021.2.3,Win32,59.99520038,627c6715c52fd12f31907bcf,,,,,,,,,,,,,,,,,,,,,,,a,0,0.3817,"[""0.589"",""0.198"",""0.515"",""0.707""]","[0,1,1,1]",0,18,18,18,1,1,0,,,1,FALSE,,,,,,,,,,,,,,,,,,,,,,,,,,,,,,,
,5f823a9879e10536650a3d81,627c6fa178ae5c77f3b67e94,2022-05-12_03h24.11.630,classification_task,2021.2.3,Win32,59.99520038,627c6715c52fd12f31907bcf,,,,,,,,,,,,,,,,,,,,,,,a,0,0.4666,"[""0.073"",""0.594"",""0.515"",""0.707""]","[1,0,1,1]",0,19,19,19,1,1,0,,,1,FALSE,,,,,,,,,,,,,,,,,,,,,,,,,,,,,,,
,5f823a9879e10536650a3d81,627c6fa178ae5c77f3b67e94,2022-05-12_03h24.11.630,classification_task,2021.2.3,Win32,59.99520038,627c6715c52fd12f31907bcf,,,,,,,,,,,,,,,,,,,,,,,l,1,0.5232,"[""0.073"",""0.198"",""0.609"",""0.707""]","[1,1,0,1]",0,20,20,20,1,1,0,,,1,FALSE,,,,,,,,,,,,,,,,,,,,,,,,,,,,,,,
,5f823a9879e10536650a3d81,627c6fa178ae5c77f3b67e94,2022-05-12_03h24.11.630,classification_task,2021.2.3,Win32,59.99520038,627c6715c52fd12f31907bcf,,,,,,,,,,,,,,,,,,,,,,,l,1,0.4246,"[""0.038"",""0.289"",""0.666"",""0.425""]","[1,1,1,0]",0,21,21,21,1,1,1,,,1,FALSE,,,,,,,,,,,,,,,,,,,,,,,,,,,,,,,
,5f823a9879e10536650a3d81,627c6fa178ae5c77f3b67e94,2022-05-12_03h24.11.630,classification_task,2021.2.3,Win32,59.99520038,627c6715c52fd12f31907bcf,,,,,,,,,,,,,,,,,,,,,,,a,1,0.612,"[""0.235"",""0.573"",""0.883"",""0.925""]","[1,0,1,1]",0,22,22,22,1,0,0,,,1,FALSE,,,,,,,,,,,,,,,,,,,,,,,,,,,,,,,
,5f823a9879e10536650a3d81,627c6fa178ae5c77f3b67e94,2022-05-12_03h24.11.630,classification_task,2021.2.3,Win32,59.99520038,627c6715c52fd12f31907bcf,,,,,,,,,,,,,,,,,,,,,,,l,0,0.9356,"[""0.157"",""0.390"",""0.818"",""0.624""]","[1,1,1,0]",0,23,23,23,1,0,1,,,1,FALSE,,,,,,,,,,,,,,,,,,,,,,,,,,,,,,,
,5f823a9879e10536650a3d81,627c6fa178ae5c77f3b67e94,2022-05-12_03h24.11.630,classification_task,2021.2.3,Win32,59.99520038,627c6715c52fd12f31907bcf,,,,,,,,,,,,,,,,,,,,,,,l,0,0.5839,"[""0.157"",""0.574"",""0.818"",""0.960""]","[1,0,1,1]",0,24,24,24,1,0,1,,,1,FALSE,,,,,,,,,,,,,,,,,,,,,,,,,,,,,,,
,5f823a9879e10536650a3d81,627c6fa178ae5c77f3b67e94,2022-05-12_03h24.11.630,classification_task,2021.2.3,Win32,59.99520038,627c6715c52fd12f31907bcf,,,,,,,,,,,,,,,,,,,,,,,a,1,0.6656,"[""0.430"",""0.333"",""0.883"",""0.925""]","[0,1,1,1]",0,25,25,25,1,0,0,,,1,FALSE,,,,,,,,,,,,,,,,,,,,,,,,,,,,,,,
,5f823a9879e10536650a3d81,627c6fa178ae5c77f3b67e94,2022-05-12_03h24.11.630,classification_task,2021.2.3,Win32,59.99520038,627c6715c52fd12f31907bcf,,,,,,,,,,,,,,,,,,,,,,,a,1,0.9106,"[""0.425"",""0.390"",""0.818"",""0.960""]","[0,1,1,1]",0,26,26,26,1,0,1,,,1,FALSE,,,,,,,,,,,,,,,,,,,,,,,,,,,,,,,
,5f823a9879e10536650a3d81,627c6fa178ae5c77f3b67e94,2022-05-12_03h24.11.630,classification_task,2021.2.3,Win32,59.99520038,627c6715c52fd12f31907bcf,,,,,,,,,,,,,,,,,,,,,,,a,0,0.9364,"[""0.038"",""0.116"",""0.666"",""0.751""]","[1,0,1,1]",0,27,27,27,1,1,1,,,1,FALSE,,,,,,,,,,,,,,,,,,,,,,,,,,,,,,,
,5f823a9879e10536650a3d81,627c6fa178ae5c77f3b67e94,2022-05-12_03h24.11.630,classification_task,2021.2.3,Win32,59.99520038,627c6715c52fd12f31907bcf,,,,,,,,,,,,,,,,,,,,,,,l,0,0.6857,"[""0.157"",""0.390"",""0.436"",""0.960""]","[1,1,0,1]",0,28,28,28,1,0,1,,,1,FALSE,,,,,,,,,,,,,,,,,,,,,,,,,,,,,,,
,5f823a9879e10536650a3d81,627c6fa178ae5c77f3b67e94,2022-05-12_03h24.11.630,classification_task,2021.2.3,Win32,59.99520038,627c6715c52fd12f31907bcf,,,,,,,,,,,,,,,,,,,,,,,a,0,0.4909,"[""0.073"",""0.198"",""0.515"",""0.436""]","[1,1,1,0]",0,29,29,29,1,1,0,,,1,FALSE,,,,,,,,,,,,,,,,,,,,,,,,,,,,,,,
,5f823a9879e10536650a3d81,627c6fa178ae5c77f3b67e94,2022-05-12_03h24.11.630,classification_task,2021.2.3,Win32,59.99520038,627c6715c52fd12f31907bcf,,,,,,,,,,,,,,,,,,,,,,,a,0,0.7467,"[""0.425"",""0.289"",""0.666"",""0.751""]","[0,1,1,1]",0,30,30,30,1,1,1,,,1,FALSE,,,,,,,,,,,,,,,,,,,,,,,,,,,,,,,
,5f823a9879e10536650a3d81,627c6fa178ae5c77f3b67e94,2022-05-12_03h24.11.630,classification_task,2021.2.3,Win32,59.99520038,627c6715c52fd12f31907bcf,,,,,,,,,,,,,,,,,,,,,,,l,0,0.5213,"[""0.235"",""0.333"",""0.883"",""0.574""]","[1,1,1,0]",0,31,31,31,1,0,0,,,1,FALSE,,,,,,,,,,,,,,,,,,,,,,,,,,,,,,,
,5f823a9879e10536650a3d81,627c6fa178ae5c77f3b67e94,2022-05-12_03h24.11.630,classification_task,2021.2.3,Win32,59.99520038,627c6715c52fd12f31907bcf,,,,,,,,,,,,,,,,,,,,,,,a,1,0.5349,"[""0.157"",""0.390"",""0.818"",""0.609""]","[1,1,1,0]",0,32,32,32,1,0,1,,,1,FALSE,,,,,,,,,,,,,,,,,,,,,,,,,,,,,,,
,5f823a9879e10536650a3d81,627c6fa178ae5c77f3b67e94,2022-05-12_03h24.11.630,classification_task,2021.2.3,Win32,59.99520038,627c6715c52fd12f31907bcf,,,,,,,,,,,,,,,,,,,,,,,l,1,0.2907,"[""0.038"",""0.289"",""0.666"",""0.594""]","[1,1,1,0]",0,33,33,33,1,1,1,,,1,FALSE,,,,,,,,,,,,,,,,,,,,,,,,,,,,,,,
,5f823a9879e10536650a3d81,627c6fa178ae5c77f3b67e94,2022-05-12_03h24.11.630,classification_task,2021.2.3,Win32,59.99520038,627c6715c52fd12f31907bcf,,,,,,,,,,,,,,,,,,,,,,,a,1,0.3379,"[""0.574"",""0.390"",""0.818"",""0.960""]","[0,1,1,1]",0,34,34,34,1,0,1,,,1,FALSE,,,,,,,,,,,,,,,,,,,,,,,,,,,,,,,
,5f823a9879e10536650a3d81,627c6fa178ae5c77f3b67e94,2022-05-12_03h24.11.630,classification_task,2021.2.3,Win32,59.99520038,627c6715c52fd12f31907bcf,,,,,,,,,,,,,,,,,,,,,,,l,1,0.3897,"[""0.038"",""0.594"",""0.666"",""0.751""]","[1,0,1,1]",0,35,35,35,1,1,1,,,1,FALSE,,,,,,,,,,,,,,,,,,,,,,,,,,,,,,,
,5f823a9879e10536650a3d81,627c6fa178ae5c77f3b67e94,2022-05-12_03h24.11.630,classification_task,2021.2.3,Win32,59.99520038,627c6715c52fd12f31907bcf,,,,,,,,,,,,,,,,,,,,,,,l,0,0.517,"[""0.157"",""0.609"",""0.818"",""0.960""]","[1,0,1,1]",0,36,36,36,1,0,1,,,1,FALSE,,,,,,,,,,,,,,,,,,,,,,,,,,,,,,,
,5f823a9879e10536650a3d81,627c6fa178ae5c77f3b67e94,2022-05-12_03h24.11.630,classification_task,2021.2.3,Win32,59.99520038,627c6715c52fd12f31907bcf,,,,,,,,,,,,,,,,,,,,,,,a,1,0.4372,"[""0.235"",""0.333"",""0.436"",""0.925""]","[1,1,0,1]",0,37,37,37,1,0,0,,,1,FALSE,,,,,,,,,,,,,,,,,,,,,,,,,,,,,,,
,5f823a9879e10536650a3d81,627c6fa178ae5c77f3b67e94,2022-05-12_03h24.11.630,classification_task,2021.2.3,Win32,59.99520038,627c6715c52fd12f31907bcf,,,,,,,,,,,,,,,,,,,,,,,l,0,0.4291,"[""0.573"",""0.333"",""0.883"",""0.925""]","[0,1,1,1]",0,38,38,38,1,0,0,,,1,FALSE,,,,,,,,,,,,,,,,,,,,,,,,,,,,,,,
,5f823a9879e10536650a3d81,627c6fa178ae5c77f3b67e94,2022-05-12_03h24.11.630,classification_task,2021.2.3,Win32,59.99520038,627c6715c52fd12f31907bcf,,,,,,,,,,,,,,,,,,,,,,,l,1,0.3954,"[""0.563"",""0.198"",""0.515"",""0.707""]","[0,1,1,1]",0,39,39,39,1,1,0,,,1,FALSE,,,,,,,,,,,,,,,,,,,,,,,,,,,,,,,
,5f823a9879e10536650a3d81,627c6fa178ae5c77f3b67e94,2022-05-12_03h24.11.630,classification_task,2021.2.3,Win32,59.99520038,627c6715c52fd12f31907bcf,,,,,,,,,,,,,,,,,,,,,,,a,1,0.3361,"[""0.235"",""0.333"",""0.883"",""0.609""]","[1,1,1,0]",0,40,40,40,1,0,0,,,1,FALSE,,,,,,,,,,,,,,,,,,,,,,,,,,,,,,,
,5f823a9879e10536650a3d81,627c6fa178ae5c77f3b67e94,2022-05-12_03h24.11.630,classification_task,2021.2.3,Win32,59.99520038,627c6715c52fd12f31907bcf,,,,,,,,,,,,,,,,,,,,,,,l,1,0.4494,"[""0.073"",""0.625"",""0.515"",""0.707""]","[1,0,1,1]",0,41,41,41,1,1,0,,,1,FALSE,,,,,,,,,,,,,,,,,,,,,,,,,,,,,,,
,5f823a9879e10536650a3d81,627c6fa178ae5c77f3b67e94,2022-05-12_03h24.11.630,classification_task,2021.2.3,Win32,59.99520038,627c6715c52fd12f31907bcf,,,,,,,,,,,,,,,,,,,,,,,l,0,0.5323,"[""0.235"",""0.620"",""0.883"",""0.925""]","[1,0,1,1]",0,42,42,42,1,0,0,,,1,FALSE,,,,,,,,,,,,,,,,,,,,,,,,,,,,,,,
,5f823a9879e10536650a3d81,627c6fa178ae5c77f3b67e94,2022-05-12_03h24.11.630,classification_task,2021.2.3,Win32,59.99520038,627c6715c52fd12f31907bcf,,,,,,,,,,,,,,,,,,,,,,,a,0,0.5739,"[""0.038"",""0.289"",""0.573"",""0.751""]","[1,1,0,1]",0,43,43,43,1,1,1,,,1,FALSE,,,,,,,,,,,,,,,,,,,,,,,,,,,,,,,
,5f823a9879e10536650a3d81,627c6fa178ae5c77f3b67e94,2022-05-12_03h24.11.630,classification_task,2021.2.3,Win32,59.99520038,627c6715c52fd12f31907bcf,,,,,,,,,,,,,,,,,,,,,,,l,0,0.8422,"[""0.157"",""0.390"",""0.589"",""0.960""]","[1,1,0,1]",0,44,44,44,1,0,1,,,1,FALSE,,,,,,,,,,,,,,,,,,,,,,,,,,,,,,,
,5f823a9879e10536650a3d81,627c6fa178ae5c77f3b67e94,2022-05-12_03h24.11.630,classification_task,2021.2.3,Win32,59.99520038,627c6715c52fd12f31907bcf,,,,,,,,,,,,,,,,,,,,,,,l,1,0.4454,"[""0.073"",""0.198"",""0.430"",""0.707""]","[1,1,0,1]",0,45,45,45,1,1,0,,,1,FALSE,,,,,,,,,,,,,,,,,,,,,,,,,,,,,,,
,5f823a9879e10536650a3d81,627c6fa178ae5c77f3b67e94,2022-05-12_03h24.11.630,classification_task,2021.2.3,Win32,59.99520038,627c6715c52fd12f31907bcf,,,,,,,,,,,,,,,,,,,,,,,l,1,0.3757,"[""0.116"",""0.289"",""0.666"",""0.751""]","[0,1,1,1]",0,46,46,46,1,1,1,,,1,FALSE,,,,,,,,,,,,,,,,,,,,,,,,,,,,,,,
,5f823a9879e10536650a3d81,627c6fa178ae5c77f3b67e94,2022-05-12_03h24.11.630,classification_task,2021.2.3,Win32,59.99520038,627c6715c52fd12f31907bcf,,,,,,,,,,,,,,,,,,,,,,,l,1,0.6243,"[""0.073"",""0.198"",""0.515"",""0.436""]","[1,1,1,0]",0,47,47,47,1,1,0,,,1,FALSE,,,,,,,,,,,,,,,,,,,,,,,,,,,,,,,
,5f823a9879e10536650a3d81,627c6fa178ae5c77f3b67e94,2022-05-12_03h24.11.630,classification_task,2021.2.3,Win32,59.99520038,627c6715c52fd12f31907bcf,,,,,,,,,,,,,,,,,,,,,,,a,0,0.6213,"[""0.625"",""0.198"",""0.515"",""0.707""]","[0,1,1,1]",0,48,48,48,1,1,0,,,1,FALSE,,,,,,,,,,,,,,,,,,,,,,,,,,,,,,,
,5f823a9879e10536650a3d81,627c6fa178ae5c77f3b67e94,2022-05-12_03h24.11.630,classification_task,2021.2.3,Win32,59.99520038,627c6715c52fd12f31907bcf,,,,,,,,,,,,,,,,,,,,,,,l,1,0.6135,"[""0.038"",""0.289"",""0.666"",""0.430""]","[1,1,1,0]",0,49,49,49,1,1,1,,,1,FALSE,,,,,,,,,,,,,,,,,,,,,,,,,,,,,,,
,5f823a9879e10536650a3d81,627c6fa178ae5c77f3b67e94,2022-05-12_03h24.11.630,classification_task,2021.2.3,Win32,59.99520038,627c6715c52fd12f31907bcf,,,,,,,,,,,,,,,,,,,,,,,l,0,0.5732,"[""0.620"",""0.390"",""0.818"",""0.960""]","[0,1,1,1]",0,50,50,50,1,0,1,,,1,FALSE,,,,,,,,,,,,,,,,,,,,,,,,,,,,,,,
,5f823a9879e10536650a3d81,627c6fa178ae5c77f3b67e94,2022-05-12_03h24.11.630,classification_task,2021.2.3,Win32,59.99520038,627c6715c52fd12f31907bcf,,,,,,,,,,,,,,,,,,,,,,,l,1,0.3869,"[""0.589"",""0.289"",""0.666"",""0.751""]","[0,1,1,1]",0,51,51,51,1,1,1,,,1,FALSE,,,,,,,,,,,,,,,,,,,,,,,,,,,,,,,
,5f823a9879e10536650a3d81,627c6fa178ae5c77f3b67e94,2022-05-12_03h24.11.630,classification_task,2021.2.3,Win32,59.99520038,627c6715c52fd12f31907bcf,,,,,,,,,,,,,,,,,,,,,,,l,0,0.4854,"[""0.436"",""0.333"",""0.883"",""0.925""]","[0,1,1,1]",0,52,52,52,1,0,0,,,1,FALSE,,,,,,,,,,,,,,,,,,,,,,,,,,,,,,,
,5f823a9879e10536650a3d81,627c6fa178ae5c77f3b67e94,2022-05-12_03h24.11.630,classification_task,2021.2.3,Win32,59.99520038,627c6715c52fd12f31907bcf,,,,,,,,,,,,,,,,,,,,,,,a,0,0.3954,"[""0.038"",""0.289"",""0.563"",""0.751""]","[1,1,0,1]",0,53,53,53,1,1,1,,,1,FALSE,,,,,,,,,,,,,,,,,,,,,,,,,,,,,,,
,5f823a9879e10536650a3d81,627c6fa178ae5c77f3b67e94,2022-05-12_03h24.11.630,classification_task,2021.2.3,Win32,59.99520038,627c6715c52fd12f31907bcf,,,,,,,,,,,,,,,,,,,,,,,l,1,0.4373,"[""0.073"",""0.198"",""0.430"",""0.707""]","[1,1,0,1]",0,54,54,54,1,1,0,,,1,FALSE,,,,,,,,,,,,,,,,,,,,,,,,,,,,,,,
,5f823a9879e10536650a3d81,627c6fa178ae5c77f3b67e94,2022-05-12_03h24.11.630,classification_task,2021.2.3,Win32,59.99520038,627c6715c52fd12f31907bcf,,,,,,,,,,,,,,,,,,,,,,,l,0,0.5246,"[""0.157"",""0.594"",""0.818"",""0.960""]","[1,0,1,1]",0,55,55,55,1,0,1,,,1,FALSE,,,,,,,,,,,,,,,,,,,,,,,,,,,,,,,
,5f823a9879e10536650a3d81,627c6fa178ae5c77f3b67e94,2022-05-12_03h24.11.630,classification_task,2021.2.3,Win32,59.99520038,627c6715c52fd12f31907bcf,,,,,,,,,,,,,,,,,,,,,,,a,0,0.4266,"[""0.073"",""0.198"",""0.515"",""0.436""]","[1,1,1,0]",0,56,56,56,1,1,0,,,1,FALSE,,,,,,,,,,,,,,,,,,,,,,,,,,,,,,,
,5f823a9879e10536650a3d81,627c6fa178ae5c77f3b67e94,2022-05-12_03h24.11.630,classification_task,2021.2.3,Win32,59.99520038,627c6715c52fd12f31907bcf,,,,,,,,,,,,,,,,,,,,,,,l,0,0.5738,"[""0.235"",""0.333"",""0.625"",""0.925""]","[1,1,0,1]",0,57,57,57,1,0,0,,,1,FALSE,,,,,,,,,,,,,,,,,,,,,,,,,,,,,,,
,5f823a9879e10536650a3d81,627c6fa178ae5c77f3b67e94,2022-05-12_03h24.11.630,classification_task,2021.2.3,Win32,59.99520038,627c6715c52fd12f31907bcf,,,,,,,,,,,,,,,,,,,,,,,l,1,0.5395,"[""0.038"",""0.574"",""0.666"",""0.751""]","[1,0,1,1]",0,58,58,58,1,1,1,,,1,FALSE,,,,,,,,,,,,,,,,,,,,,,,,,,,,,,,
,5f823a9879e10536650a3d81,627c6fa178ae5c77f3b67e94,2022-05-12_03h24.11.630,classification_task,2021.2.3,Win32,59.99520038,627c6715c52fd12f31907bcf,,,,,,,,,,,,,,,,,,,,,,,a,1,1.154,"[""0.157"",""0.390"",""0.563"",""0.960""]","[1,1,0,1]",0,59,59,59,1,0,1,,,1,FALSE,,,,,,,,,,,,,,,,,,,,,,,,,,,,,,,
,5f823a9879e10536650a3d81,627c6fa178ae5c77f3b67e94,2022-05-12_03h24.11.630,classification_task,2021.2.3,Win32,59.99520038,627c6715c52fd12f31907bcf,,,,,,,,,,,,,,,,,,,,,,,l,1,0.9729,"[""0.073"",""0.609"",""0.515"",""0.707""]","[1,0,1,1]",0,60,60,60,1,1,0,,,1,FALSE,,,,,,,,,,,,,,,,,,,,,,,,,,,,,,,
,5f823a9879e10536650a3d81,627c6fa178ae5c77f3b67e94,2022-05-12_03h24.11.630,classification_task,2021.2.3,Win32,59.99520038,627c6715c52fd12f31907bcf,,,,,,,,,,,,,,,,,,,,,,,l,0,0.6417,"[""0.235"",""0.333"",""0.883"",""0.574""]","[1,1,1,0]",0,61,61,61,1,0,0,,,1,FALSE,,,,,,,,,,,,,,,,,,,,,,,,,,,,,,,
,5f823a9879e10536650a3d81,627c6fa178ae5c77f3b67e94,2022-05-12_03h24.11.630,classification_task,2021.2.3,Win32,59.99520038,627c6715c52fd12f31907bcf,,,,,,,,,,,,,,,,,,,,,,,a,1,0.3447,"[""0.157"",""0.390"",""0.818"",""0.563""]","[1,1,1,0]",0,62,62,62,1,0,1,,,1,FALSE,,,,,,,,,,,,,,,,,,,,,,,,,,,,,,,
,5f823a9879e10536650a3d81,627c6fa178ae5c77f3b67e94,2022-05-12_03h24.11.630,classification_task,2021.2.3,Win32,59.99520038,627c6715c52fd12f31907bcf,,,,,,,,,,,,,,,,,,,,,,,l,0,0.8231,"[""0.235"",""0.573"",""0.883"",""0.925""]","[1,0,1,1]",0,63,63,63,1,0,0,,,1,FALSE,,,,,,,,,,,,,,,,,,,,,,,,,,,,,,,
,5f823a9879e10536650a3d81,627c6fa178ae5c77f3b67e94,2022-05-12_03h24.11.630,classification_task,2021.2.3,Win32,59.99520038,627c6715c52fd12f31907bcf,,,,,,,,,,,,,,,,,,,,,,,,,,,,,,,,,,,,,,,0, ,,0,2.207524985,120.6956,0,2,2,2,1,2,3,,,,,,,,,,,,,,,,,,
,5f823a9879e10536650a3d81,627c6fa178ae5c77f3b67e94,2022-05-12_03h24.11.630,classification_task,2021.2.3,Win32,59.99520038,627c6715c52fd12f31907bcf,,,,,,,,,,,,,,,,,,,,,,,,,,,,,,,,,,,,,,,1,  ,,0,7.057613169,122.9609,0,2,2,2,1,2,3,,,,,,,,,,,,,,,,,,
,5f823a9879e10536650a3d81,627c6fa178ae5c77f3b67e94,2022-05-12_03h24.11.630,classification_task,2021.2.3,Win32,59.99520038,627c6715c52fd12f31907bcf,,,,,,,,,,,,,,,,,,,,,,,,,,,,,,,,,,,,,,,2,  ,,0,6.518714482,124.8923,0,2,2,2,1,2,3,,,,,,,,,,,,,,,,,,
,5f823a9879e10536650a3d81,627c6fa178ae5c77f3b67e94,2022-05-12_03h24.11.630,classification_task,2021.2.3,Win32,59.99520038,627c6715c52fd12f31907bcf,,,,,,,,,,,,,,,,,,,,,,,,,,,,,,,,,,,,,,,,,,,,,0,2,2,2,1,,3,,,,,,,,,,,,,,,,,,
,5f823a9879e10536650a3d81,627c6fa178ae5c77f3b67e94,2022-05-12_03h24.11.630,classification_task,2021.2.3,Win32,59.99520038,627c6715c52fd12f31907bcf,,,,,,,,,,,,,,,,,,,,,,,,,,,,,,,,,,,,,,,,,,,,,,,,,,,,,I believe the aid is a competent performer,,0.7,0,5,670.7877,0,0,0,0,1,0,,,,,
,5f823a9879e10536650a3d81,627c6fa178ae5c77f3b67e94,2022-05-12_03h24.11.630,classification_task,2021.2.3,Win32,59.99520038,627c6715c52fd12f31907bcf,,,,,,,,,,,,,,,,,,,,,,,,,,,,,,,,,,,,,,,,,,,,,,,,,,,,,I trust the aid,,0.7,0,5,671.7446,0,0,0,0,1,0,,,,,
,5f823a9879e10536650a3d81,627c6fa178ae5c77f3b67e94,2022-05-12_03h24.11.630,classification_task,2021.2.3,Win32,59.99520038,627c6715c52fd12f31907bcf,,,,,,,,,,,,,,,,,,,,,,,,,,,,,,,,,,,,,,,,,,,,,,,,,,,,,I have confidence in the advice given by the aid,,0.7,0,5,674.4256,0,0,0,0,1,0,,,,,
,5f823a9879e10536650a3d81,627c6fa178ae5c77f3b67e94,2022-05-12_03h24.11.630,classification_task,2021.2.3,Win32,59.99520038,627c6715c52fd12f31907bcf,,,,,,,,,,,,,,,,,,,,,,,,,,,,,,,,,,,,,,,,,,,,,,,,,,,,,I can depend on the aid,,0.7,0,5,675.8017,0,0,0,0,1,0,,,,,
,5f823a9879e10536650a3d81,627c6fa178ae5c77f3b67e94,2022-05-12_03h24.11.630,classification_task,2021.2.3,Win32,59.99520038,627c6715c52fd12f31907bcf,,,,,,,,,,,,,,,,,,,,,,,,,,,,,,,,,,,,,,,,,,,,,,,,,,,,,I can rely on the aid to behave in consistent ways,,0.7,0,5,676.8945,0,0,0,0,1,0,,,,,
,5f823a9879e10536650a3d81,627c6fa178ae5c77f3b67e94,2022-05-12_03h24.11.630,classification_task,2021.2.3,Win32,59.99520038,627c6715c52fd12f31907bcf,,,,,,,,,,,,,,,,,,,,,,,,,,,,,,,,,,,,,,,,,,,,,,,,,,,,,I can rely on the aid to do its best every time I take its advice,,0.7,0,5,681.6103,0,0,0,0,1,0,,,,,
,5f823a9879e10536650a3d81,627c6fa178ae5c77f3b67e94,2022-05-12_03h24.11.630,classification_task,2021.2.3,Win32,59.99520038,627c6715c52fd12f31907bcf,,,,,,,,,,,,,,,,,,,,,,,,,,,,,,,,,,,,,,,,,,,,,,,,,,,,,"On trials you completed with assistance from the aid, how frequently did you think the aid was correct?",,0.7,0,100%,,0,0,0,0,1,0,,,,,
,5f823a9879e10536650a3d81,627c6fa178ae5c77f3b67e94,2022-05-12_03h24.11.630,classification_task,2021.2.3,Win32,59.99520038,627c6715c52fd12f31907bcf,,,,,,,,,,,,,,,,,,,,,,,,,,,,,,,,,,,,,,,,,,,,,,,,,,,,,"On trials you completed without the aid, how frequently did you think you were correct?",,0.7,0,100%,,0,0,0,0,1,0,,,,,
,5f823a9879e10536650a3d81,627c6fa178ae5c77f3b67e94,2022-05-12_03h24.11.630,classification_task,2021.2.3,Win32,59.99520038,627c6715c52fd12f31907bcf,,,,,,,,,,,,,,,,,,,,,,,,,,,,,,,,,,,,,,,,,,,,,,,,,,,,,,,,,,,0,0,0,0,1,,,,,,
,5f823a9879e10536650a3d81,627c6fa178ae5c77f3b67e94,2022-05-12_03h24.11.630,classification_task,2021.2.3,Win32,59.99520038,627c6715c52fd12f31907bcf,,,,,,,,,,,,,,,,,,,,,,,,,,,,,,,,,,,,,,,,,,,,,,,,,,,,,,,,,,,,,,,,,space,8.348,709.6692,,
,5f823a9879e10536650a3d81,627c6fa178ae5c77f3b67e94,2022-05-12_03h24.11.630,classification_task,2021.2.3,Win32,59.99520038,627c6715c52fd12f31907bcf,,,,,,,,,,,,,,,,,,,,,,,,,,,,,,,,,,,,,,,,,,,,,,,,,,,,,,,,,,,,,,,,,,,,"Mozilla/5.0 (Windows NT 10.0; Win64; x64) AppleWebKit/537.36 (KHTML, like Gecko) Chrome/101.0.4951.64 Safari/537.36",
,5f823a9879e10536650a3d81,627c6fa178ae5c77f3b67e94,2022-05-12_03h24.11.630,classification_task,2021.2.3,Win32,59.99520038,627c6715c52fd12f31907bcf,,,,,,,,,,,,,,,,,,,,,,,,,,,,,,,,,,,,,,,,,,,,,,,,,,,,,,,,,,,,,,,,,,,,,HIGHLIGHT
