usingWebGL,participant,session,date,expName,psychopyVersion,OS,frameRate,PROLIFIC_PID,STUDY_ID,SESSION_ID,signatures_friend,signatures_foe,band_ranges_top,band_ranges_bottom,formitemText,formtype,formundefined,formitemWidth,formindex,formresponse,formrt,key_resp_2.keys,key_resp_2.rt,tute_resp.keys,tute_resp.rt,tutorial.thisRepN,tutorial.thisTrialN,tutorial.thisN,tutorial.thisIndex,tutorial.ran,key_resp_4.keys,key_resp_4.rt,key_resp.keys,key_resp.corr,key_resp.rt,lines_presented,is_signal_presented,trials.thisRepN,trials.thisTrialN,trials.thisN,trials.thisIndex,trials.ran,vessel,active_band,lines,is_signal,supported_pos,catch_trial,debrief_formindex,debrief_formitemText,debrief_formtype,debrief_formitemWidth,debrief_formresponse,debrief_formrt,phases.thisRepN,phases.thisTrialN,phases.thisN,phases.thisIndex,phases.ran,phases.order,phase,key_resp_3.keys,trustitemText,trusttype,trustitemWidth,trustindex,trustresponse,trustrt,support_status.thisRepN,support_status.thisTrialN,support_status.thisN,support_status.thisIndex,support_status.ran,support_status.order,key_resp_5.keys,key_resp_5.rt,globalClockTime,userAgent
TRUE,5f83653605d2664cf6a4f5f4,001,2022-04-29_02h13.17.557,classification_task,2021.2.3,Win32,60.0240096,5f83653605d2664cf6a4f5f4,626b377229c10585ec392f8a,626b3b7b63d90d55e8259da0,,,,,,,,,,,,,,,,,,,,,,,,,,,,,,,,,,,,,,,,,,,,,,,,,,,,,,,,,,,,,,,,,,,,
,5f83653605d2664cf6a4f5f4,001,2022-04-29_02h13.17.557,classification_task,2021.2.3,Win32,60.0240096,5f83653605d2664cf6a4f5f4,626b377229c10585ec392f8a,626b3b7b63d90d55e8259da0,"[[""0.226"",""0.414"",""0.662"",""0.918""],[""0.178"",""0.520"",""0.742"",""0.959""]]","[[""0.145"",""0.333"",""0.567"",""0.788""],[""0.028"",""0.110"",""0.482"",""0.832""]]","[1,10]","[100,1000]",Video game experience,,,0.7,0,,,,,,,,,,,,,,,,,,,,,,,,,,,,,,,,,,,,,,,,,,,,,,,,,,,,,,,,,,,
,5f83653605d2664cf6a4f5f4,001,2022-04-29_02h13.17.557,classification_task,2021.2.3,Win32,60.0240096,5f83653605d2664cf6a4f5f4,626b377229c10585ec392f8a,626b3b7b63d90d55e8259da0,,,,,Approximately how many hours did you spend playing video games in the last week?,,,0.7,0,0,,,,,,,,,,,,,,,,,,,,,,,,,,,,,,,,,,,,,,,,,,,,,,,,,,,,,,,,,,
,5f83653605d2664cf6a4f5f4,001,2022-04-29_02h13.17.557,classification_task,2021.2.3,Win32,60.0240096,5f83653605d2664cf6a4f5f4,626b377229c10585ec392f8a,626b3b7b63d90d55e8259da0,,,,,"Which game did you play the most this year? (Enter ""None"" if you didn't play any)",,,0.7,0,Sims 4,,,,,,,,,,,,,,,,,,,,,,,,,,,,,,,,,,,,,,,,,,,,,,,,,,,,,,,,,,
,5f83653605d2664cf6a4f5f4,001,2022-04-29_02h13.17.557,classification_task,2021.2.3,Win32,60.0240096,5f83653605d2664cf6a4f5f4,626b377229c10585ec392f8a,626b3b7b63d90d55e8259da0,,,,,Visual perception,,,0.7,0,,,,,,,,,,,,,,,,,,,,,,,,,,,,,,,,,,,,,,,,,,,,,,,,,,,,,,,,,,,
,5f83653605d2664cf6a4f5f4,001,2022-04-29_02h13.17.557,classification_task,2021.2.3,Win32,60.0240096,5f83653605d2664cf6a4f5f4,626b377229c10585ec392f8a,626b3b7b63d90d55e8259da0,,,,,Do you have any form of color blindness?,,,0.7,0,No,97.904,,,,,,,,,,,,,,,,,,,,,,,,,,,,,,,,,,,,,,,,,,,,,,,,,,,,,,,,,
,5f83653605d2664cf6a4f5f4,001,2022-04-29_02h13.17.557,classification_task,2021.2.3,Win32,60.0240096,5f83653605d2664cf6a4f5f4,626b377229c10585ec392f8a,626b3b7b63d90d55e8259da0,,,,,Do you use software to change the colour temperature of your screen (e.g. f.lux)?,,,0.7,0,No,100.635,,,,,,,,,,,,,,,,,,,,,,,,,,,,,,,,,,,,,,,,,,,,,,,,,,,,,,,,,
,5f83653605d2664cf6a4f5f4,001,2022-04-29_02h13.17.557,classification_task,2021.2.3,Win32,60.0240096,5f83653605d2664cf6a4f5f4,626b377229c10585ec392f8a,626b3b7b63d90d55e8259da0,,,,,,,,,,,,space,49.375,space,8.502,0,0,0,0,1,,,,,,,,,,,,,,,,,,,,,,,,,,,,,,,,,,,,,,,,,,,,,,,,
,5f83653605d2664cf6a4f5f4,001,2022-04-29_02h13.17.557,classification_task,2021.2.3,Win32,60.0240096,5f83653605d2664cf6a4f5f4,626b377229c10585ec392f8a,626b3b7b63d90d55e8259da0,,,,,,,,,,,,,,space,6.893,1,0,1,0,1,,,,,,,,,,,,,,,,,,,,,,,,,,,,,,,,,,,,,,,,,,,,,,,,
,5f83653605d2664cf6a4f5f4,001,2022-04-29_02h13.17.557,classification_task,2021.2.3,Win32,60.0240096,5f83653605d2664cf6a4f5f4,626b377229c10585ec392f8a,626b3b7b63d90d55e8259da0,,,,,,,,,,,,,,space,16.522,2,0,2,0,1,,,,,,,,,,,,,,,,,,,,,,,,,,,,,,,,,,,,,,,,,,,,,,,,
,5f83653605d2664cf6a4f5f4,001,2022-04-29_02h13.17.557,classification_task,2021.2.3,Win32,60.0240096,5f83653605d2664cf6a4f5f4,626b377229c10585ec392f8a,626b3b7b63d90d55e8259da0,,,,,,,,,,,,,,space,13.758,3,0,3,0,1,,,,,,,,,,,,,,,,,,,,,,,,,,,,,,,,,,,,,,,,,,,,,,,,
,5f83653605d2664cf6a4f5f4,001,2022-04-29_02h13.17.557,classification_task,2021.2.3,Win32,60.0240096,5f83653605d2664cf6a4f5f4,626b377229c10585ec392f8a,626b3b7b63d90d55e8259da0,,,,,,,,,,,,,,space,10.58,4,0,4,0,1,,,,,,,,,,,,,,,,,,,,,,,,,,,,,,,,,,,,,,,,,,,,,,,,
,5f83653605d2664cf6a4f5f4,001,2022-04-29_02h13.17.557,classification_task,2021.2.3,Win32,60.0240096,5f83653605d2664cf6a4f5f4,626b377229c10585ec392f8a,626b3b7b63d90d55e8259da0,,,,,,,,,,,,,,,,,,,,,space,7,a,1,7.103,"[""0.226"",""0.414"",""0.601"",""0.918""]","[1,1,0,1]",0,0,0,0,1,0,0,,,0,FALSE,,,,,,,,,,,,,,,,,,,,,,,,,,,,,,
,5f83653605d2664cf6a4f5f4,001,2022-04-29_02h13.17.557,classification_task,2021.2.3,Win32,60.0240096,5f83653605d2664cf6a4f5f4,626b377229c10585ec392f8a,626b3b7b63d90d55e8259da0,,,,,,,,,,,,,,,,,,,,,,,a,1,4.167,"[""0.178"",""0.376"",""0.742"",""0.959""]","[1,0,1,1]",0,1,1,1,1,0,1,,,0,FALSE,,,,,,,,,,,,,,,,,,,,,,,,,,,,,,
,5f83653605d2664cf6a4f5f4,001,2022-04-29_02h13.17.557,classification_task,2021.2.3,Win32,60.0240096,5f83653605d2664cf6a4f5f4,626b377229c10585ec392f8a,626b3b7b63d90d55e8259da0,,,,,,,,,,,,,,,,,,,,,,,l,1,2.614,"[""0.028"",""0.110"",""0.482"",""0.695""]","[1,1,1,0]",0,2,2,2,1,1,1,,,0,FALSE,,,,,,,,,,,,,,,,,,,,,,,,,,,,,,
,5f83653605d2664cf6a4f5f4,001,2022-04-29_02h13.17.557,classification_task,2021.2.3,Win32,60.0240096,5f83653605d2664cf6a4f5f4,626b377229c10585ec392f8a,626b3b7b63d90d55e8259da0,,,,,,,,,,,,,,,,,,,,,,,a,1,4.165,"[""0.226"",""0.414"",""0.662"",""0.262""]","[1,1,1,0]",0,3,3,3,1,0,0,,,0,FALSE,,,,,,,,,,,,,,,,,,,,,,,,,,,,,,
,5f83653605d2664cf6a4f5f4,001,2022-04-29_02h13.17.557,classification_task,2021.2.3,Win32,60.0240096,5f83653605d2664cf6a4f5f4,626b377229c10585ec392f8a,626b3b7b63d90d55e8259da0,,,,,,,,,,,,,,,,,,,,,,,a,1,3.867,"[""0.178"",""0.520"",""0.616"",""0.959""]","[1,1,0,1]",0,4,4,4,1,0,1,,,0,FALSE,,,,,,,,,,,,,,,,,,,,,,,,,,,,,,
,5f83653605d2664cf6a4f5f4,001,2022-04-29_02h13.17.557,classification_task,2021.2.3,Win32,60.0240096,5f83653605d2664cf6a4f5f4,626b377229c10585ec392f8a,626b3b7b63d90d55e8259da0,,,,,,,,,,,,,,,,,,,,,,,a,1,2.66,"[""0.226"",""0.873"",""0.662"",""0.918""]","[1,0,1,1]",0,5,5,5,1,0,0,,,0,FALSE,,,,,,,,,,,,,,,,,,,,,,,,,,,,,,
,5f83653605d2664cf6a4f5f4,001,2022-04-29_02h13.17.557,classification_task,2021.2.3,Win32,60.0240096,5f83653605d2664cf6a4f5f4,626b377229c10585ec392f8a,626b3b7b63d90d55e8259da0,,,,,,,,,,,,,,,,,,,,,,,,0,,"[""0.277"",""0.333"",""0.567"",""0.788""]","[0,1,1,1]",0,6,6,6,1,1,0,,,0,FALSE,,,,,,,,,,,,,,,,,,,,,,,,,,,,,,
,5f83653605d2664cf6a4f5f4,001,2022-04-29_02h13.17.557,classification_task,2021.2.3,Win32,60.0240096,5f83653605d2664cf6a4f5f4,626b377229c10585ec392f8a,626b3b7b63d90d55e8259da0,,,,,,,,,,,,,,,,,,,,,,,l,1,4.379,"[""0.145"",""0.333"",""0.071"",""0.788""]","[1,1,0,1]",0,7,7,7,1,1,0,,,0,FALSE,,,,,,,,,,,,,,,,,,,,,,,,,,,,,,
,5f83653605d2664cf6a4f5f4,001,2022-04-29_02h13.17.557,classification_task,2021.2.3,Win32,60.0240096,5f83653605d2664cf6a4f5f4,626b377229c10585ec392f8a,626b3b7b63d90d55e8259da0,,,,,,,,,,,,,,,,,,,,,,,l,1,2.784,"[""0.145"",""0.873"",""0.567"",""0.788""]","[1,0,1,1]",0,8,8,8,1,1,0,,,0,FALSE,,,,,,,,,,,,,,,,,,,,,,,,,,,,,,
,5f83653605d2664cf6a4f5f4,001,2022-04-29_02h13.17.557,classification_task,2021.2.3,Win32,60.0240096,5f83653605d2664cf6a4f5f4,626b377229c10585ec392f8a,626b3b7b63d90d55e8259da0,,,,,,,,,,,,,,,,,,,,,,,l,1,2.486,"[""0.028"",""0.284"",""0.482"",""0.832""]","[1,0,1,1]",0,9,9,9,1,1,1,,,0,FALSE,,,,,,,,,,,,,,,,,,,,,,,,,,,,,,
,5f83653605d2664cf6a4f5f4,001,2022-04-29_02h13.17.557,classification_task,2021.2.3,Win32,60.0240096,5f83653605d2664cf6a4f5f4,626b377229c10585ec392f8a,626b3b7b63d90d55e8259da0,,,,,,,,,,,,,,,,,,,,,,,a,1,2.114,"[""0.178"",""0.520"",""0.742"",""0.265""]","[1,1,1,0]",0,10,10,10,1,0,1,,,0,FALSE,,,,,,,,,,,,,,,,,,,,,,,,,,,,,,
,5f83653605d2664cf6a4f5f4,001,2022-04-29_02h13.17.557,classification_task,2021.2.3,Win32,60.0240096,5f83653605d2664cf6a4f5f4,626b377229c10585ec392f8a,626b3b7b63d90d55e8259da0,,,,,,,,,,,,,,,,,,,,,,,a,1,6.373,"[""0.262"",""0.520"",""0.742"",""0.959""]","[0,1,1,1]",0,11,11,11,1,0,1,,,0,FALSE,,,,,,,,,,,,,,,,,,,,,,,,,,,,,,
,5f83653605d2664cf6a4f5f4,001,2022-04-29_02h13.17.557,classification_task,2021.2.3,Win32,60.0240096,5f83653605d2664cf6a4f5f4,626b377229c10585ec392f8a,626b3b7b63d90d55e8259da0,,,,,,,,,,,,,,,,,,,,,,,l,1,3.272,"[""0.284"",""0.110"",""0.482"",""0.832""]","[0,1,1,1]",0,12,12,12,1,1,1,,,0,FALSE,,,,,,,,,,,,,,,,,,,,,,,,,,,,,,
,5f83653605d2664cf6a4f5f4,001,2022-04-29_02h13.17.557,classification_task,2021.2.3,Win32,60.0240096,5f83653605d2664cf6a4f5f4,626b377229c10585ec392f8a,626b3b7b63d90d55e8259da0,,,,,,,,,,,,,,,,,,,,,,,l,1,3.704,"[""0.145"",""0.333"",""0.567"",""0.074""]","[1,1,1,0]",0,13,13,13,1,1,0,,,0,FALSE,,,,,,,,,,,,,,,,,,,,,,,,,,,,,,
,5f83653605d2664cf6a4f5f4,001,2022-04-29_02h13.17.557,classification_task,2021.2.3,Win32,60.0240096,5f83653605d2664cf6a4f5f4,626b377229c10585ec392f8a,626b3b7b63d90d55e8259da0,,,,,,,,,,,,,,,,,,,,,,,a,1,3.943,"[""0.074"",""0.414"",""0.662"",""0.918""]","[0,1,1,1]",0,14,14,14,1,0,0,,,0,FALSE,,,,,,,,,,,,,,,,,,,,,,,,,,,,,,
,5f83653605d2664cf6a4f5f4,001,2022-04-29_02h13.17.557,classification_task,2021.2.3,Win32,60.0240096,5f83653605d2664cf6a4f5f4,626b377229c10585ec392f8a,626b3b7b63d90d55e8259da0,,,,,,,,,,,,,,,,,,,,,,,l,1,2.417,"[""0.028"",""0.110"",""0.061"",""0.832""]","[1,1,0,1]",0,15,15,15,1,1,1,,,0,FALSE,,,,,,,,,,,,,,,,,,,,,,,,,,,,,,
,5f83653605d2664cf6a4f5f4,001,2022-04-29_02h13.17.557,classification_task,2021.2.3,Win32,60.0240096,5f83653605d2664cf6a4f5f4,626b377229c10585ec392f8a,626b3b7b63d90d55e8259da0,,,,,,,,,,,,,,,,,,,,,,,a,1,2.06,"[""0.178"",""0.520"",""0.742"",""0.373""]","[1,1,1,0]",0,16,16,16,1,0,1,,,0,FALSE,,,,,,,,,,,,,,,,,,,,,,,,,,,,,,
,5f83653605d2664cf6a4f5f4,001,2022-04-29_02h13.17.557,classification_task,2021.2.3,Win32,60.0240096,5f83653605d2664cf6a4f5f4,626b377229c10585ec392f8a,626b3b7b63d90d55e8259da0,,,,,,,,,,,,,,,,,,,,,,,l,1,3.897,"[""0.284"",""0.333"",""0.567"",""0.788""]","[0,1,1,1]",0,17,17,17,1,1,0,,,0,FALSE,,,,,,,,,,,,,,,,,,,,,,,,,,,,,,
,5f83653605d2664cf6a4f5f4,001,2022-04-29_02h13.17.557,classification_task,2021.2.3,Win32,60.0240096,5f83653605d2664cf6a4f5f4,626b377229c10585ec392f8a,626b3b7b63d90d55e8259da0,,,,,,,,,,,,,,,,,,,,,,,a,1,4.127,"[""0.277"",""0.414"",""0.662"",""0.918""]","[0,1,1,1]",0,18,18,18,1,0,0,,,0,FALSE,,,,,,,,,,,,,,,,,,,,,,,,,,,,,,
,5f83653605d2664cf6a4f5f4,001,2022-04-29_02h13.17.557,classification_task,2021.2.3,Win32,60.0240096,5f83653605d2664cf6a4f5f4,626b377229c10585ec392f8a,626b3b7b63d90d55e8259da0,,,,,,,,,,,,,,,,,,,,,,,a,1,3.492,"[""0.226"",""0.414"",""0.061"",""0.918""]","[1,1,0,1]",0,19,19,19,1,0,0,,,0,FALSE,,,,,,,,,,,,,,,,,,,,,,,,,,,,,,
,5f83653605d2664cf6a4f5f4,001,2022-04-29_02h13.17.557,classification_task,2021.2.3,Win32,60.0240096,5f83653605d2664cf6a4f5f4,626b377229c10585ec392f8a,626b3b7b63d90d55e8259da0,,,,,,,,,,,,,,,,,,,,,,,l,1,2.5,"[""0.145"",""0.333"",""0.567"",""0.061""]","[1,1,1,0]",0,20,20,20,1,1,0,,,0,FALSE,,,,,,,,,,,,,,,,,,,,,,,,,,,,,,
,5f83653605d2664cf6a4f5f4,001,2022-04-29_02h13.17.557,classification_task,2021.2.3,Win32,60.0240096,5f83653605d2664cf6a4f5f4,626b377229c10585ec392f8a,626b3b7b63d90d55e8259da0,,,,,,,,,,,,,,,,,,,,,,,l,1,2.552,"[""0.028"",""0.110"",""0.265"",""0.832""]","[1,1,0,1]",0,21,21,21,1,1,1,,,0,FALSE,,,,,,,,,,,,,,,,,,,,,,,,,,,,,,
,5f83653605d2664cf6a4f5f4,001,2022-04-29_02h13.17.557,classification_task,2021.2.3,Win32,60.0240096,5f83653605d2664cf6a4f5f4,626b377229c10585ec392f8a,626b3b7b63d90d55e8259da0,,,,,,,,,,,,,,,,,,,,,,,a,1,4.614,"[""0.874"",""0.520"",""0.742"",""0.959""]","[0,1,1,1]",0,22,22,22,1,0,1,,,0,FALSE,,,,,,,,,,,,,,,,,,,,,,,,,,,,,,
,5f83653605d2664cf6a4f5f4,001,2022-04-29_02h13.17.557,classification_task,2021.2.3,Win32,60.0240096,5f83653605d2664cf6a4f5f4,626b377229c10585ec392f8a,626b3b7b63d90d55e8259da0,,,,,,,,,,,,,,,,,,,,,,,l,1,2.835,"[""0.874"",""0.110"",""0.482"",""0.832""]","[0,1,1,1]",0,23,23,23,1,1,1,,,0,FALSE,,,,,,,,,,,,,,,,,,,,,,,,,,,,,,
,5f83653605d2664cf6a4f5f4,001,2022-04-29_02h13.17.557,classification_task,2021.2.3,Win32,60.0240096,5f83653605d2664cf6a4f5f4,626b377229c10585ec392f8a,626b3b7b63d90d55e8259da0,,,,,,,,,,,,,,,,,,,,,,,a,1,1.698,"[""0.226"",""0.414"",""0.662"",""0.284""]","[1,1,1,0]",0,24,24,24,1,0,0,,,0,FALSE,,,,,,,,,,,,,,,,,,,,,,,,,,,,,,
,5f83653605d2664cf6a4f5f4,001,2022-04-29_02h13.17.557,classification_task,2021.2.3,Win32,60.0240096,5f83653605d2664cf6a4f5f4,626b377229c10585ec392f8a,626b3b7b63d90d55e8259da0,,,,,,,,,,,,,,,,,,,,,,,l,1,2.524,"[""0.028"",""0.110"",""0.482"",""0.874""]","[1,1,1,0]",0,25,25,25,1,1,1,,,0,FALSE,,,,,,,,,,,,,,,,,,,,,,,,,,,,,,
,5f83653605d2664cf6a4f5f4,001,2022-04-29_02h13.17.557,classification_task,2021.2.3,Win32,60.0240096,5f83653605d2664cf6a4f5f4,626b377229c10585ec392f8a,626b3b7b63d90d55e8259da0,,,,,,,,,,,,,,,,,,,,,,,a,1,1.667,"[""0.226"",""0.277"",""0.662"",""0.918""]","[1,0,1,1]",0,26,26,26,1,0,0,,,0,FALSE,,,,,,,,,,,,,,,,,,,,,,,,,,,,,,
,5f83653605d2664cf6a4f5f4,001,2022-04-29_02h13.17.557,classification_task,2021.2.3,Win32,60.0240096,5f83653605d2664cf6a4f5f4,626b377229c10585ec392f8a,626b3b7b63d90d55e8259da0,,,,,,,,,,,,,,,,,,,,,,,l,1,2.785,"[""0.145"",""0.333"",""0.373"",""0.788""]","[1,1,0,1]",0,27,27,27,1,1,0,,,0,FALSE,,,,,,,,,,,,,,,,,,,,,,,,,,,,,,
,5f83653605d2664cf6a4f5f4,001,2022-04-29_02h13.17.557,classification_task,2021.2.3,Win32,60.0240096,5f83653605d2664cf6a4f5f4,626b377229c10585ec392f8a,626b3b7b63d90d55e8259da0,,,,,,,,,,,,,,,,,,,,,,,a,1,2.019,"[""0.178"",""0.601"",""0.742"",""0.959""]","[1,0,1,1]",0,28,28,28,1,0,1,,,0,FALSE,,,,,,,,,,,,,,,,,,,,,,,,,,,,,,
,5f83653605d2664cf6a4f5f4,001,2022-04-29_02h13.17.557,classification_task,2021.2.3,Win32,60.0240096,5f83653605d2664cf6a4f5f4,626b377229c10585ec392f8a,626b3b7b63d90d55e8259da0,,,,,,,,,,,,,,,,,,,,,,,l,1,2.17,"[""0.145"",""0.618"",""0.567"",""0.788""]","[1,0,1,1]",0,29,29,29,1,1,0,,,0,FALSE,,,,,,,,,,,,,,,,,,,,,,,,,,,,,,
,5f83653605d2664cf6a4f5f4,001,2022-04-29_02h13.17.557,classification_task,2021.2.3,Win32,60.0240096,5f83653605d2664cf6a4f5f4,626b377229c10585ec392f8a,626b3b7b63d90d55e8259da0,,,,,,,,,,,,,,,,,,,,,,,a,1,3.034,"[""0.178"",""0.520"",""0.616"",""0.959""]","[1,1,0,1]",0,30,30,30,1,0,1,,,0,FALSE,,,,,,,,,,,,,,,,,,,,,,,,,,,,,,
,5f83653605d2664cf6a4f5f4,001,2022-04-29_02h13.17.557,classification_task,2021.2.3,Win32,60.0240096,5f83653605d2664cf6a4f5f4,626b377229c10585ec392f8a,626b3b7b63d90d55e8259da0,,,,,,,,,,,,,,,,,,,,,,,l,1,2.486,"[""0.028"",""0.695"",""0.482"",""0.832""]","[1,0,1,1]",0,31,31,31,1,1,1,,,0,FALSE,,,,,,,,,,,,,,,,,,,,,,,,,,,,,,
,5f83653605d2664cf6a4f5f4,001,2022-04-29_02h13.17.557,classification_task,2021.2.3,Win32,60.0240096,5f83653605d2664cf6a4f5f4,626b377229c10585ec392f8a,626b3b7b63d90d55e8259da0,,,,,,,,,,,,,,,,,,,,,,,l,1,4.116,"[""0.028"",""0.601"",""0.482"",""0.832""]","[1,0,1,1]",0,32,32,32,1,1,1,,,0,FALSE,,,,,,,,,,,,,,,,,,,,,,,,,,,,,,
,5f83653605d2664cf6a4f5f4,001,2022-04-29_02h13.17.557,classification_task,2021.2.3,Win32,60.0240096,5f83653605d2664cf6a4f5f4,626b377229c10585ec392f8a,626b3b7b63d90d55e8259da0,,,,,,,,,,,,,,,,,,,,,,,l,1,4.509,"[""0.145"",""0.874"",""0.567"",""0.788""]","[1,0,1,1]",0,33,33,33,1,1,0,,,0,FALSE,,,,,,,,,,,,,,,,,,,,,,,,,,,,,,
,5f83653605d2664cf6a4f5f4,001,2022-04-29_02h13.17.557,classification_task,2021.2.3,Win32,60.0240096,5f83653605d2664cf6a4f5f4,626b377229c10585ec392f8a,626b3b7b63d90d55e8259da0,,,,,,,,,,,,,,,,,,,,,,,l,1,1.258,"[""0.145"",""0.333"",""0.373"",""0.788""]","[1,1,0,1]",0,34,34,34,1,1,0,,,0,FALSE,,,,,,,,,,,,,,,,,,,,,,,,,,,,,,
,5f83653605d2664cf6a4f5f4,001,2022-04-29_02h13.17.557,classification_task,2021.2.3,Win32,60.0240096,5f83653605d2664cf6a4f5f4,626b377229c10585ec392f8a,626b3b7b63d90d55e8259da0,,,,,,,,,,,,,,,,,,,,,,,a,1,2.079,"[""0.874"",""0.520"",""0.742"",""0.959""]","[0,1,1,1]",0,35,35,35,1,0,1,,,0,FALSE,,,,,,,,,,,,,,,,,,,,,,,,,,,,,,
,5f83653605d2664cf6a4f5f4,001,2022-04-29_02h13.17.557,classification_task,2021.2.3,Win32,60.0240096,5f83653605d2664cf6a4f5f4,626b377229c10585ec392f8a,626b3b7b63d90d55e8259da0,,,,,,,,,,,,,,,,,,,,,,,l,1,3.005,"[""0.028"",""0.110"",""0.061"",""0.832""]","[1,1,0,1]",0,36,36,36,1,1,1,,,0,FALSE,,,,,,,,,,,,,,,,,,,,,,,,,,,,,,
,5f83653605d2664cf6a4f5f4,001,2022-04-29_02h13.17.557,classification_task,2021.2.3,Win32,60.0240096,5f83653605d2664cf6a4f5f4,626b377229c10585ec392f8a,626b3b7b63d90d55e8259da0,,,,,,,,,,,,,,,,,,,,,,,a,1,1.324,"[""0.226"",""0.414"",""0.662"",""0.618""]","[1,1,1,0]",0,37,37,37,1,0,0,,,0,FALSE,,,,,,,,,,,,,,,,,,,,,,,,,,,,,,
,5f83653605d2664cf6a4f5f4,001,2022-04-29_02h13.17.557,classification_task,2021.2.3,Win32,60.0240096,5f83653605d2664cf6a4f5f4,626b377229c10585ec392f8a,626b3b7b63d90d55e8259da0,,,,,,,,,,,,,,,,,,,,,,,a,1,2.432,"[""0.178"",""0.265"",""0.742"",""0.959""]","[1,0,1,1]",0,38,38,38,1,0,1,,,0,FALSE,,,,,,,,,,,,,,,,,,,,,,,,,,,,,,
,5f83653605d2664cf6a4f5f4,001,2022-04-29_02h13.17.557,classification_task,2021.2.3,Win32,60.0240096,5f83653605d2664cf6a4f5f4,626b377229c10585ec392f8a,626b3b7b63d90d55e8259da0,,,,,,,,,,,,,,,,,,,,,,,a,1,1.023,"[""0.226"",""0.616"",""0.662"",""0.918""]","[1,0,1,1]",0,39,39,39,1,0,0,,,0,FALSE,,,,,,,,,,,,,,,,,,,,,,,,,,,,,,
,5f83653605d2664cf6a4f5f4,001,2022-04-29_02h13.17.557,classification_task,2021.2.3,Win32,60.0240096,5f83653605d2664cf6a4f5f4,626b377229c10585ec392f8a,626b3b7b63d90d55e8259da0,,,,,,,,,,,,,,,,,,,,,,,a,1,1.668,"[""0.178"",""0.520"",""0.262"",""0.959""]","[1,1,0,1]",0,40,40,40,1,0,1,,,0,FALSE,,,,,,,,,,,,,,,,,,,,,,,,,,,,,,
,5f83653605d2664cf6a4f5f4,001,2022-04-29_02h13.17.557,classification_task,2021.2.3,Win32,60.0240096,5f83653605d2664cf6a4f5f4,626b377229c10585ec392f8a,626b3b7b63d90d55e8259da0,,,,,,,,,,,,,,,,,,,,,,,l,1,0.987,"[""0.028"",""0.110"",""0.482"",""0.277""]","[1,1,1,0]",0,41,41,41,1,1,1,,,0,FALSE,,,,,,,,,,,,,,,,,,,,,,,,,,,,,,
,5f83653605d2664cf6a4f5f4,001,2022-04-29_02h13.17.557,classification_task,2021.2.3,Win32,60.0240096,5f83653605d2664cf6a4f5f4,626b377229c10585ec392f8a,626b3b7b63d90d55e8259da0,,,,,,,,,,,,,,,,,,,,,,,l,0,5.401,"[""0.071"",""0.414"",""0.662"",""0.918""]","[0,1,1,1]",0,42,42,42,1,0,0,,,0,FALSE,,,,,,,,,,,,,,,,,,,,,,,,,,,,,,
,5f83653605d2664cf6a4f5f4,001,2022-04-29_02h13.17.557,classification_task,2021.2.3,Win32,60.0240096,5f83653605d2664cf6a4f5f4,626b377229c10585ec392f8a,626b3b7b63d90d55e8259da0,,,,,,,,,,,,,,,,,,,,,,,a,1,1.09,"[""0.226"",""0.414"",""0.373"",""0.918""]","[1,1,0,1]",0,43,43,43,1,0,0,,,0,FALSE,,,,,,,,,,,,,,,,,,,,,,,,,,,,,,
,5f83653605d2664cf6a4f5f4,001,2022-04-29_02h13.17.557,classification_task,2021.2.3,Win32,60.0240096,5f83653605d2664cf6a4f5f4,626b377229c10585ec392f8a,626b3b7b63d90d55e8259da0,,,,,,,,,,,,,,,,,,,,,,,a,1,1.593,"[""0.178"",""0.520"",""0.742"",""0.616""]","[1,1,1,0]",0,44,44,44,1,0,1,,,0,FALSE,,,,,,,,,,,,,,,,,,,,,,,,,,,,,,
,5f83653605d2664cf6a4f5f4,001,2022-04-29_02h13.17.557,classification_task,2021.2.3,Win32,60.0240096,5f83653605d2664cf6a4f5f4,626b377229c10585ec392f8a,626b3b7b63d90d55e8259da0,,,,,,,,,,,,,,,,,,,,,,,a,0,2.35,"[""0.277"",""0.110"",""0.482"",""0.832""]","[0,1,1,1]",0,45,45,45,1,1,1,,,0,FALSE,,,,,,,,,,,,,,,,,,,,,,,,,,,,,,
,5f83653605d2664cf6a4f5f4,001,2022-04-29_02h13.17.557,classification_task,2021.2.3,Win32,60.0240096,5f83653605d2664cf6a4f5f4,626b377229c10585ec392f8a,626b3b7b63d90d55e8259da0,,,,,,,,,,,,,,,,,,,,,,,l,1,2.431,"[""0.145"",""0.333"",""0.567"",""0.284""]","[1,1,1,0]",0,46,46,46,1,1,0,,,0,FALSE,,,,,,,,,,,,,,,,,,,,,,,,,,,,,,
,5f83653605d2664cf6a4f5f4,001,2022-04-29_02h13.17.557,classification_task,2021.2.3,Win32,60.0240096,5f83653605d2664cf6a4f5f4,626b377229c10585ec392f8a,626b3b7b63d90d55e8259da0,,,,,,,,,,,,,,,,,,,,,,,l,1,4.027,"[""0.618"",""0.333"",""0.567"",""0.788""]","[0,1,1,1]",0,47,47,47,1,1,0,,,0,FALSE,,,,,,,,,,,,,,,,,,,,,,,,,,,,,,
,5f83653605d2664cf6a4f5f4,001,2022-04-29_02h13.17.557,classification_task,2021.2.3,Win32,60.0240096,5f83653605d2664cf6a4f5f4,626b377229c10585ec392f8a,626b3b7b63d90d55e8259da0,,,,,,,,,,,,,,,,,,,,,,,l,1,2.331,"[""0.028"",""0.618"",""0.482"",""0.832""]","[1,0,1,1]",0,48,48,48,1,1,1,,,0,FALSE,,,,,,,,,,,,,,,,,,,,,,,,,,,,,,
,5f83653605d2664cf6a4f5f4,001,2022-04-29_02h13.17.557,classification_task,2021.2.3,Win32,60.0240096,5f83653605d2664cf6a4f5f4,626b377229c10585ec392f8a,626b3b7b63d90d55e8259da0,,,,,,,,,,,,,,,,,,,,,,,l,0,6.023,"[""0.178"",""0.520"",""0.071"",""0.959""]","[1,1,0,1]",0,49,49,49,1,0,1,,,0,FALSE,,,,,,,,,,,,,,,,,,,,,,,,,,,,,,
,5f83653605d2664cf6a4f5f4,001,2022-04-29_02h13.17.557,classification_task,2021.2.3,Win32,60.0240096,5f83653605d2664cf6a4f5f4,626b377229c10585ec392f8a,626b3b7b63d90d55e8259da0,,,,,,,,,,,,,,,,,,,,,,,a,1,0.923,"[""0.226"",""0.414"",""0.373"",""0.918""]","[1,1,0,1]",0,50,50,50,1,0,0,,,0,FALSE,,,,,,,,,,,,,,,,,,,,,,,,,,,,,,
,5f83653605d2664cf6a4f5f4,001,2022-04-29_02h13.17.557,classification_task,2021.2.3,Win32,60.0240096,5f83653605d2664cf6a4f5f4,626b377229c10585ec392f8a,626b3b7b63d90d55e8259da0,,,,,,,,,,,,,,,,,,,,,,,a,0,4.954,"[""0.145"",""0.333"",""0.618"",""0.788""]","[1,1,0,1]",0,51,51,51,1,1,0,,,0,FALSE,,,,,,,,,,,,,,,,,,,,,,,,,,,,,,
,5f83653605d2664cf6a4f5f4,001,2022-04-29_02h13.17.557,classification_task,2021.2.3,Win32,60.0240096,5f83653605d2664cf6a4f5f4,626b377229c10585ec392f8a,626b3b7b63d90d55e8259da0,,,,,,,,,,,,,,,,,,,,,,,l,1,2.045,"[""0.145"",""0.376"",""0.567"",""0.788""]","[1,0,1,1]",0,52,52,52,1,1,0,,,0,FALSE,,,,,,,,,,,,,,,,,,,,,,,,,,,,,,
,5f83653605d2664cf6a4f5f4,001,2022-04-29_02h13.17.557,classification_task,2021.2.3,Win32,60.0240096,5f83653605d2664cf6a4f5f4,626b377229c10585ec392f8a,626b3b7b63d90d55e8259da0,,,,,,,,,,,,,,,,,,,,,,,l,1,1.492,"[""0.028"",""0.110"",""0.482"",""0.616""]","[1,1,1,0]",0,53,53,53,1,1,1,,,0,FALSE,,,,,,,,,,,,,,,,,,,,,,,,,,,,,,
,5f83653605d2664cf6a4f5f4,001,2022-04-29_02h13.17.557,classification_task,2021.2.3,Win32,60.0240096,5f83653605d2664cf6a4f5f4,626b377229c10585ec392f8a,626b3b7b63d90d55e8259da0,,,,,,,,,,,,,,,,,,,,,,,a,1,3.389,"[""0.178"",""0.618"",""0.742"",""0.959""]","[1,0,1,1]",0,54,54,54,1,0,1,,,0,FALSE,,,,,,,,,,,,,,,,,,,,,,,,,,,,,,
,5f83653605d2664cf6a4f5f4,001,2022-04-29_02h13.17.557,classification_task,2021.2.3,Win32,60.0240096,5f83653605d2664cf6a4f5f4,626b377229c10585ec392f8a,626b3b7b63d90d55e8259da0,,,,,,,,,,,,,,,,,,,,,,,a,1,1.455,"[""0.284"",""0.414"",""0.662"",""0.918""]","[0,1,1,1]",0,55,55,55,1,0,0,,,0,FALSE,,,,,,,,,,,,,,,,,,,,,,,,,,,,,,
,5f83653605d2664cf6a4f5f4,001,2022-04-29_02h13.17.557,classification_task,2021.2.3,Win32,60.0240096,5f83653605d2664cf6a4f5f4,626b377229c10585ec392f8a,626b3b7b63d90d55e8259da0,,,,,,,,,,,,,,,,,,,,,,,l,1,1.222,"[""0.028"",""0.110"",""0.262"",""0.832""]","[1,1,0,1]",0,56,56,56,1,1,1,,,0,FALSE,,,,,,,,,,,,,,,,,,,,,,,,,,,,,,
,5f83653605d2664cf6a4f5f4,001,2022-04-29_02h13.17.557,classification_task,2021.2.3,Win32,60.0240096,5f83653605d2664cf6a4f5f4,626b377229c10585ec392f8a,626b3b7b63d90d55e8259da0,,,,,,,,,,,,,,,,,,,,,,,a,0,1.377,"[""0.373"",""0.110"",""0.482"",""0.832""]","[0,1,1,1]",0,57,57,57,1,1,1,,,0,FALSE,,,,,,,,,,,,,,,,,,,,,,,,,,,,,,
,5f83653605d2664cf6a4f5f4,001,2022-04-29_02h13.17.557,classification_task,2021.2.3,Win32,60.0240096,5f83653605d2664cf6a4f5f4,626b377229c10585ec392f8a,626b3b7b63d90d55e8259da0,,,,,,,,,,,,,,,,,,,,,,,a,1,1.209,"[""0.178"",""0.520"",""0.742"",""0.616""]","[1,1,1,0]",0,58,58,58,1,0,1,,,0,FALSE,,,,,,,,,,,,,,,,,,,,,,,,,,,,,,
,5f83653605d2664cf6a4f5f4,001,2022-04-29_02h13.17.557,classification_task,2021.2.3,Win32,60.0240096,5f83653605d2664cf6a4f5f4,626b377229c10585ec392f8a,626b3b7b63d90d55e8259da0,,,,,,,,,,,,,,,,,,,,,,,l,1,2.029,"[""0.145"",""0.333"",""0.567"",""0.616""]","[1,1,1,0]",0,59,59,59,1,1,0,,,0,FALSE,,,,,,,,,,,,,,,,,,,,,,,,,,,,,,
,5f83653605d2664cf6a4f5f4,001,2022-04-29_02h13.17.557,classification_task,2021.2.3,Win32,60.0240096,5f83653605d2664cf6a4f5f4,626b377229c10585ec392f8a,626b3b7b63d90d55e8259da0,,,,,,,,,,,,,,,,,,,,,,,a,1,0.203,"[""0.226"",""0.414"",""0.662"",""0.074""]","[1,1,1,0]",0,60,60,60,1,0,0,,,0,FALSE,,,,,,,,,,,,,,,,,,,,,,,,,,,,,,
,5f83653605d2664cf6a4f5f4,001,2022-04-29_02h13.17.557,classification_task,2021.2.3,Win32,60.0240096,5f83653605d2664cf6a4f5f4,626b377229c10585ec392f8a,626b3b7b63d90d55e8259da0,,,,,,,,,,,,,,,,,,,,,,,a,1,1.142,"[""0.226"",""0.375"",""0.662"",""0.918""]","[1,0,1,1]",0,61,61,61,1,0,0,,,0,FALSE,,,,,,,,,,,,,,,,,,,,,,,,,,,,,,
,5f83653605d2664cf6a4f5f4,001,2022-04-29_02h13.17.557,classification_task,2021.2.3,Win32,60.0240096,5f83653605d2664cf6a4f5f4,626b377229c10585ec392f8a,626b3b7b63d90d55e8259da0,,,,,,,,,,,,,,,,,,,,,,,l,1,1.109,"[""0.873"",""0.333"",""0.567"",""0.788""]","[0,1,1,1]",0,62,62,62,1,1,0,,,0,FALSE,,,,,,,,,,,,,,,,,,,,,,,,,,,,,,
,5f83653605d2664cf6a4f5f4,001,2022-04-29_02h13.17.557,classification_task,2021.2.3,Win32,60.0240096,5f83653605d2664cf6a4f5f4,626b377229c10585ec392f8a,626b3b7b63d90d55e8259da0,,,,,,,,,,,,,,,,,,,,,,,l,0,1.769,"[""0.265"",""0.520"",""0.742"",""0.959""]","[0,1,1,1]",0,63,63,63,1,0,1,,,0,FALSE,,,,,,,,,,,,,,,,,,,,,,,,,,,,,,
,5f83653605d2664cf6a4f5f4,001,2022-04-29_02h13.17.557,classification_task,2021.2.3,Win32,60.0240096,5f83653605d2664cf6a4f5f4,626b377229c10585ec392f8a,626b3b7b63d90d55e8259da0,,,,,,,,,,,,,,,,,,,,,,,,,,,,,,,,,,,,,,,0, ,,0,4.917713759,563.845,0,0,0,0,1,2,1,,,,,,,,,,,,,,,,,
,5f83653605d2664cf6a4f5f4,001,2022-04-29_02h13.17.557,classification_task,2021.2.3,Win32,60.0240096,5f83653605d2664cf6a4f5f4,626b377229c10585ec392f8a,626b3b7b63d90d55e8259da0,,,,,,,,,,,,,,,,,,,,,,,,,,,,,,,,,,,,,,,1,  ,,0,1.708550363,554.498,0,0,0,0,1,2,1,,,,,,,,,,,,,,,,,
,5f83653605d2664cf6a4f5f4,001,2022-04-29_02h13.17.557,classification_task,2021.2.3,Win32,60.0240096,5f83653605d2664cf6a4f5f4,626b377229c10585ec392f8a,626b3b7b63d90d55e8259da0,,,,,,,,,,,,,,,,,,,,,,,,,,,,,,,,,,,,,,,2,  ,,0,0,562.046,0,0,0,0,1,2,1,,,,,,,,,,,,,,,,,
,5f83653605d2664cf6a4f5f4,001,2022-04-29_02h13.17.557,classification_task,2021.2.3,Win32,60.0240096,5f83653605d2664cf6a4f5f4,626b377229c10585ec392f8a,626b3b7b63d90d55e8259da0,,,,,,,,,,,,,,,,,,,,,,,,,,,,,,,,,,,,,,,,,,,,,0,0,0,0,1,,1,,,,,,,,,,,,,,,,,
,5f83653605d2664cf6a4f5f4,001,2022-04-29_02h13.17.557,classification_task,2021.2.3,Win32,60.0240096,5f83653605d2664cf6a4f5f4,626b377229c10585ec392f8a,626b3b7b63d90d55e8259da0,,,,,,,,,,,,,,,,,,,,,space,53.274,l,0,6.404,"[""0.178"",""0.071"",""0.742"",""0.959""]","[1,0,1,1]",0,0,0,0,1,0,1,,,0,FALSE,,,,,,,,,,,,,,,,,,,,,,,,,,,,,,
,5f83653605d2664cf6a4f5f4,001,2022-04-29_02h13.17.557,classification_task,2021.2.3,Win32,60.0240096,5f83653605d2664cf6a4f5f4,626b377229c10585ec392f8a,626b3b7b63d90d55e8259da0,,,,,,,,,,,,,,,,,,,,,,,l,1,3.769,"[""0.028"",""0.110"",""0.482"",""0.373""]","[1,1,1,0]",0,1,1,1,1,1,1,,,0,FALSE,,,,,,,,,,,,,,,,,,,,,,,,,,,,,,
,5f83653605d2664cf6a4f5f4,001,2022-04-29_02h13.17.557,classification_task,2021.2.3,Win32,60.0240096,5f83653605d2664cf6a4f5f4,626b377229c10585ec392f8a,626b3b7b63d90d55e8259da0,,,,,,,,,,,,,,,,,,,,,,,a,1,3.763,"[""0.375"",""0.414"",""0.662"",""0.918""]","[0,1,1,1]",0,2,2,2,1,0,0,,,0,FALSE,,,,,,,,,,,,,,,,,,,,,,,,,,,,,,
,5f83653605d2664cf6a4f5f4,001,2022-04-29_02h13.17.557,classification_task,2021.2.3,Win32,60.0240096,5f83653605d2664cf6a4f5f4,626b377229c10585ec392f8a,626b3b7b63d90d55e8259da0,,,,,,,,,,,,,,,,,,,,,,,a,1,1.458,"[""0.226"",""0.414"",""0.662"",""0.874""]","[1,1,1,0]",0,3,3,3,1,0,0,,,0,FALSE,,,,,,,,,,,,,,,,,,,,,,,,,,,,,,
,5f83653605d2664cf6a4f5f4,001,2022-04-29_02h13.17.557,classification_task,2021.2.3,Win32,60.0240096,5f83653605d2664cf6a4f5f4,626b377229c10585ec392f8a,626b3b7b63d90d55e8259da0,,,,,,,,,,,,,,,,,,,,,,,l,1,0.989,"[""0.601"",""0.333"",""0.567"",""0.788""]","[0,1,1,1]",0,4,4,4,1,1,0,,,0,FALSE,,,,,,,,,,,,,,,,,,,,,,,,,,,,,,
,5f83653605d2664cf6a4f5f4,001,2022-04-29_02h13.17.557,classification_task,2021.2.3,Win32,60.0240096,5f83653605d2664cf6a4f5f4,626b377229c10585ec392f8a,626b3b7b63d90d55e8259da0,,,,,,,,,,,,,,,,,,,,,,,l,1,0.604,"[""0.145"",""0.874"",""0.567"",""0.788""]","[1,0,1,1]",0,5,5,5,1,1,0,,,0,FALSE,,,,,,,,,,,,,,,,,,,,,,,,,,,,,,
,5f83653605d2664cf6a4f5f4,001,2022-04-29_02h13.17.557,classification_task,2021.2.3,Win32,60.0240096,5f83653605d2664cf6a4f5f4,626b377229c10585ec392f8a,626b3b7b63d90d55e8259da0,,,,,,,,,,,,,,,,,,,,,,,a,0,2.911,"[""0.601"",""0.110"",""0.482"",""0.832""]","[0,1,1,1]",0,6,6,6,1,1,1,,,0,FALSE,,,,,,,,,,,,,,,,,,,,,,,,,,,,,,
,5f83653605d2664cf6a4f5f4,001,2022-04-29_02h13.17.557,classification_task,2021.2.3,Win32,60.0240096,5f83653605d2664cf6a4f5f4,626b377229c10585ec392f8a,626b3b7b63d90d55e8259da0,,,,,,,,,,,,,,,,,,,,,,,a,0,1.652,"[""0.028"",""0.375"",""0.482"",""0.832""]","[1,0,1,1]",0,7,7,7,1,1,1,,,0,FALSE,,,,,,,,,,,,,,,,,,,,,,,,,,,,,,
,5f83653605d2664cf6a4f5f4,001,2022-04-29_02h13.17.557,classification_task,2021.2.3,Win32,60.0240096,5f83653605d2664cf6a4f5f4,626b377229c10585ec392f8a,626b3b7b63d90d55e8259da0,,,,,,,,,,,,,,,,,,,,,,,l,0,1.79,"[""0.178"",""0.520"",""0.742"",""0.874""]","[1,1,1,0]",0,8,8,8,1,0,1,,,0,FALSE,,,,,,,,,,,,,,,,,,,,,,,,,,,,,,
,5f83653605d2664cf6a4f5f4,001,2022-04-29_02h13.17.557,classification_task,2021.2.3,Win32,60.0240096,5f83653605d2664cf6a4f5f4,626b377229c10585ec392f8a,626b3b7b63d90d55e8259da0,,,,,,,,,,,,,,,,,,,,,,,l,1,5.257,"[""0.145"",""0.333"",""0.567"",""0.277""]","[1,1,1,0]",0,9,9,9,1,1,0,,,0,FALSE,,,,,,,,,,,,,,,,,,,,,,,,,,,,,,
,5f83653605d2664cf6a4f5f4,001,2022-04-29_02h13.17.557,classification_task,2021.2.3,Win32,60.0240096,5f83653605d2664cf6a4f5f4,626b377229c10585ec392f8a,626b3b7b63d90d55e8259da0,,,,,,,,,,,,,,,,,,,,,,,a,1,2.254,"[""0.373"",""0.520"",""0.742"",""0.959""]","[0,1,1,1]",0,10,10,10,1,0,1,,,0,FALSE,,,,,,,,,,,,,,,,,,,,,,,,,,,,,,
,5f83653605d2664cf6a4f5f4,001,2022-04-29_02h13.17.557,classification_task,2021.2.3,Win32,60.0240096,5f83653605d2664cf6a4f5f4,626b377229c10585ec392f8a,626b3b7b63d90d55e8259da0,,,,,,,,,,,,,,,,,,,,,,,a,1,1.503,"[""0.226"",""0.414"",""0.618"",""0.918""]","[1,1,0,1]",0,11,11,11,1,0,0,,,0,FALSE,,,,,,,,,,,,,,,,,,,,,,,,,,,,,,
,5f83653605d2664cf6a4f5f4,001,2022-04-29_02h13.17.557,classification_task,2021.2.3,Win32,60.0240096,5f83653605d2664cf6a4f5f4,626b377229c10585ec392f8a,626b3b7b63d90d55e8259da0,,,,,,,,,,,,,,,,,,,,,,,l,1,1.358,"[""0.145"",""0.333"",""0.262"",""0.788""]","[1,1,0,1]",0,12,12,12,1,1,0,,,0,FALSE,,,,,,,,,,,,,,,,,,,,,,,,,,,,,,
,5f83653605d2664cf6a4f5f4,001,2022-04-29_02h13.17.557,classification_task,2021.2.3,Win32,60.0240096,5f83653605d2664cf6a4f5f4,626b377229c10585ec392f8a,626b3b7b63d90d55e8259da0,,,,,,,,,,,,,,,,,,,,,,,a,1,1.09,"[""0.226"",""0.874"",""0.662"",""0.918""]","[1,0,1,1]",0,13,13,13,1,0,0,,,0,FALSE,,,,,,,,,,,,,,,,,,,,,,,,,,,,,,
,5f83653605d2664cf6a4f5f4,001,2022-04-29_02h13.17.557,classification_task,2021.2.3,Win32,60.0240096,5f83653605d2664cf6a4f5f4,626b377229c10585ec392f8a,626b3b7b63d90d55e8259da0,,,,,,,,,,,,,,,,,,,,,,,l,1,4.154,"[""0.028"",""0.110"",""0.262"",""0.832""]","[1,1,0,1]",0,14,14,14,1,1,1,,,0,FALSE,,,,,,,,,,,,,,,,,,,,,,,,,,,,,,
,5f83653605d2664cf6a4f5f4,001,2022-04-29_02h13.17.557,classification_task,2021.2.3,Win32,60.0240096,5f83653605d2664cf6a4f5f4,626b377229c10585ec392f8a,626b3b7b63d90d55e8259da0,,,,,,,,,,,,,,,,,,,,,,,a,1,1.242,"[""0.178"",""0.520"",""0.071"",""0.959""]","[1,1,0,1]",0,15,15,15,1,0,1,,,0,FALSE,,,,,,,,,,,,,,,,,,,,,,,,,,,,,,
,5f83653605d2664cf6a4f5f4,001,2022-04-29_02h13.17.557,classification_task,2021.2.3,Win32,60.0240096,5f83653605d2664cf6a4f5f4,626b377229c10585ec392f8a,626b3b7b63d90d55e8259da0,,,,,,,,,,,,,,,,,,,,,,,a,1,1.047,"[""0.071"",""0.520"",""0.742"",""0.959""]","[0,1,1,1]",0,16,16,16,1,0,1,,,0,FALSE,,,,,,,,,,,,,,,,,,,,,,,,,,,,,,
,5f83653605d2664cf6a4f5f4,001,2022-04-29_02h13.17.557,classification_task,2021.2.3,Win32,60.0240096,5f83653605d2664cf6a4f5f4,626b377229c10585ec392f8a,626b3b7b63d90d55e8259da0,,,,,,,,,,,,,,,,,,,,,,,l,1,0.788,"[""0.145"",""0.284"",""0.567"",""0.788""]","[1,0,1,1]",0,17,17,17,1,1,0,,,0,FALSE,,,,,,,,,,,,,,,,,,,,,,,,,,,,,,
,5f83653605d2664cf6a4f5f4,001,2022-04-29_02h13.17.557,classification_task,2021.2.3,Win32,60.0240096,5f83653605d2664cf6a4f5f4,626b377229c10585ec392f8a,626b3b7b63d90d55e8259da0,,,,,,,,,,,,,,,,,,,,,,,a,1,0.435,"[""0.226"",""0.414"",""0.662"",""0.695""]","[1,1,1,0]",0,18,18,18,1,0,0,,,0,FALSE,,,,,,,,,,,,,,,,,,,,,,,,,,,,,,
,5f83653605d2664cf6a4f5f4,001,2022-04-29_02h13.17.557,classification_task,2021.2.3,Win32,60.0240096,5f83653605d2664cf6a4f5f4,626b377229c10585ec392f8a,626b3b7b63d90d55e8259da0,,,,,,,,,,,,,,,,,,,,,,,l,1,3.153,"[""0.074"",""0.333"",""0.567"",""0.788""]","[0,1,1,1]",0,19,19,19,1,1,0,,,0,FALSE,,,,,,,,,,,,,,,,,,,,,,,,,,,,,,
,5f83653605d2664cf6a4f5f4,001,2022-04-29_02h13.17.557,classification_task,2021.2.3,Win32,60.0240096,5f83653605d2664cf6a4f5f4,626b377229c10585ec392f8a,626b3b7b63d90d55e8259da0,,,,,,,,,,,,,,,,,,,,,,,a,1,1.98,"[""0.226"",""0.414"",""0.071"",""0.918""]","[1,1,0,1]",0,20,20,20,1,0,0,,,0,FALSE,,,,,,,,,,,,,,,,,,,,,,,,,,,,,,
,5f83653605d2664cf6a4f5f4,001,2022-04-29_02h13.17.557,classification_task,2021.2.3,Win32,60.0240096,5f83653605d2664cf6a4f5f4,626b377229c10585ec392f8a,626b3b7b63d90d55e8259da0,,,,,,,,,,,,,,,,,,,,,,,l,1,3.096,"[""0.028"",""0.616"",""0.482"",""0.832""]","[1,0,1,1]",0,21,21,21,1,1,1,,,0,FALSE,,,,,,,,,,,,,,,,,,,,,,,,,,,,,,
,5f83653605d2664cf6a4f5f4,001,2022-04-29_02h13.17.557,classification_task,2021.2.3,Win32,60.0240096,5f83653605d2664cf6a4f5f4,626b377229c10585ec392f8a,626b3b7b63d90d55e8259da0,,,,,,,,,,,,,,,,,,,,,,,a,0,1.194,"[""0.373"",""0.110"",""0.482"",""0.832""]","[0,1,1,1]",0,22,22,22,1,1,1,,,0,FALSE,,,,,,,,,,,,,,,,,,,,,,,,,,,,,,
,5f83653605d2664cf6a4f5f4,001,2022-04-29_02h13.17.557,classification_task,2021.2.3,Win32,60.0240096,5f83653605d2664cf6a4f5f4,626b377229c10585ec392f8a,626b3b7b63d90d55e8259da0,,,,,,,,,,,,,,,,,,,,,,,a,1,1.242,"[""0.178"",""0.262"",""0.742"",""0.959""]","[1,0,1,1]",0,23,23,23,1,0,1,,,0,FALSE,,,,,,,,,,,,,,,,,,,,,,,,,,,,,,
,5f83653605d2664cf6a4f5f4,001,2022-04-29_02h13.17.557,classification_task,2021.2.3,Win32,60.0240096,5f83653605d2664cf6a4f5f4,626b377229c10585ec392f8a,626b3b7b63d90d55e8259da0,,,,,,,,,,,,,,,,,,,,,,,l,1,1.082,"[""0.145"",""0.333"",""0.262"",""0.788""]","[1,1,0,1]",0,24,24,24,1,1,0,,,0,FALSE,,,,,,,,,,,,,,,,,,,,,,,,,,,,,,
,5f83653605d2664cf6a4f5f4,001,2022-04-29_02h13.17.557,classification_task,2021.2.3,Win32,60.0240096,5f83653605d2664cf6a4f5f4,626b377229c10585ec392f8a,626b3b7b63d90d55e8259da0,,,,,,,,,,,,,,,,,,,,,,,l,0,1.71,"[""0.178"",""0.520"",""0.742"",""0.284""]","[1,1,1,0]",0,25,25,25,1,0,1,,,0,FALSE,,,,,,,,,,,,,,,,,,,,,,,,,,,,,,
,5f83653605d2664cf6a4f5f4,001,2022-04-29_02h13.17.557,classification_task,2021.2.3,Win32,60.0240096,5f83653605d2664cf6a4f5f4,626b377229c10585ec392f8a,626b3b7b63d90d55e8259da0,,,,,,,,,,,,,,,,,,,,,,,a,1,1.172,"[""0.178"",""0.520"",""0.375"",""0.959""]","[1,1,0,1]",0,26,26,26,1,0,1,,,0,FALSE,,,,,,,,,,,,,,,,,,,,,,,,,,,,,,
,5f83653605d2664cf6a4f5f4,001,2022-04-29_02h13.17.557,classification_task,2021.2.3,Win32,60.0240096,5f83653605d2664cf6a4f5f4,626b377229c10585ec392f8a,626b3b7b63d90d55e8259da0,,,,,,,,,,,,,,,,,,,,,,,a,1,0.847,"[""0.071"",""0.414"",""0.662"",""0.918""]","[0,1,1,1]",0,27,27,27,1,0,0,,,0,FALSE,,,,,,,,,,,,,,,,,,,,,,,,,,,,,,
,5f83653605d2664cf6a4f5f4,001,2022-04-29_02h13.17.557,classification_task,2021.2.3,Win32,60.0240096,5f83653605d2664cf6a4f5f4,626b377229c10585ec392f8a,626b3b7b63d90d55e8259da0,,,,,,,,,,,,,,,,,,,,,,,a,1,0.47,"[""0.226"",""0.071"",""0.662"",""0.918""]","[1,0,1,1]",0,28,28,28,1,0,0,,,0,FALSE,,,,,,,,,,,,,,,,,,,,,,,,,,,,,,
,5f83653605d2664cf6a4f5f4,001,2022-04-29_02h13.17.557,classification_task,2021.2.3,Win32,60.0240096,5f83653605d2664cf6a4f5f4,626b377229c10585ec392f8a,626b3b7b63d90d55e8259da0,,,,,,,,,,,,,,,,,,,,,,,l,1,2.192,"[""0.028"",""0.110"",""0.618"",""0.832""]","[1,1,0,1]",0,29,29,29,1,1,1,,,0,FALSE,,,,,,,,,,,,,,,,,,,,,,,,,,,,,,
,5f83653605d2664cf6a4f5f4,001,2022-04-29_02h13.17.557,classification_task,2021.2.3,Win32,60.0240096,5f83653605d2664cf6a4f5f4,626b377229c10585ec392f8a,626b3b7b63d90d55e8259da0,,,,,,,,,,,,,,,,,,,,,,,l,1,2.03,"[""0.145"",""0.333"",""0.567"",""0.265""]","[1,1,1,0]",0,30,30,30,1,1,0,,,0,FALSE,,,,,,,,,,,,,,,,,,,,,,,,,,,,,,
,5f83653605d2664cf6a4f5f4,001,2022-04-29_02h13.17.557,classification_task,2021.2.3,Win32,60.0240096,5f83653605d2664cf6a4f5f4,626b377229c10585ec392f8a,626b3b7b63d90d55e8259da0,,,,,,,,,,,,,,,,,,,,,,,l,1,1.715,"[""0.028"",""0.110"",""0.482"",""0.618""]","[1,1,1,0]",0,31,31,31,1,1,1,,,0,FALSE,,,,,,,,,,,,,,,,,,,,,,,,,,,,,,
,5f83653605d2664cf6a4f5f4,001,2022-04-29_02h13.17.557,classification_task,2021.2.3,Win32,60.0240096,5f83653605d2664cf6a4f5f4,626b377229c10585ec392f8a,626b3b7b63d90d55e8259da0,,,,,,,,,,,,,,,,,,,,,,,l,1,1.156,"[""0.028"",""0.618"",""0.482"",""0.832""]","[1,0,1,1]",0,32,32,32,1,1,1,,,0,FALSE,,,,,,,,,,,,,,,,,,,,,,,,,,,,,,
,5f83653605d2664cf6a4f5f4,001,2022-04-29_02h13.17.557,classification_task,2021.2.3,Win32,60.0240096,5f83653605d2664cf6a4f5f4,626b377229c10585ec392f8a,626b3b7b63d90d55e8259da0,,,,,,,,,,,,,,,,,,,,,,,l,1,1.432,"[""0.874"",""0.333"",""0.567"",""0.788""]","[0,1,1,1]",0,33,33,33,1,1,0,,,0,FALSE,,,,,,,,,,,,,,,,,,,,,,,,,,,,,,
,5f83653605d2664cf6a4f5f4,001,2022-04-29_02h13.17.557,classification_task,2021.2.3,Win32,60.0240096,5f83653605d2664cf6a4f5f4,626b377229c10585ec392f8a,626b3b7b63d90d55e8259da0,,,,,,,,,,,,,,,,,,,,,,,l,0,4.019,"[""0.178"",""0.618"",""0.742"",""0.959""]","[1,0,1,1]",0,34,34,34,1,0,1,,,0,FALSE,,,,,,,,,,,,,,,,,,,,,,,,,,,,,,
,5f83653605d2664cf6a4f5f4,001,2022-04-29_02h13.17.557,classification_task,2021.2.3,Win32,60.0240096,5f83653605d2664cf6a4f5f4,626b377229c10585ec392f8a,626b3b7b63d90d55e8259da0,,,,,,,,,,,,,,,,,,,,,,,a,1,0.827,"[""0.226"",""0.414"",""0.662"",""0.618""]","[1,1,1,0]",0,35,35,35,1,0,0,,,0,FALSE,,,,,,,,,,,,,,,,,,,,,,,,,,,,,,
,5f83653605d2664cf6a4f5f4,001,2022-04-29_02h13.17.557,classification_task,2021.2.3,Win32,60.0240096,5f83653605d2664cf6a4f5f4,626b377229c10585ec392f8a,626b3b7b63d90d55e8259da0,,,,,,,,,,,,,,,,,,,,,,,a,1,2.559,"[""0.618"",""0.520"",""0.742"",""0.959""]","[0,1,1,1]",0,36,36,36,1,0,1,,,0,FALSE,,,,,,,,,,,,,,,,,,,,,,,,,,,,,,
,5f83653605d2664cf6a4f5f4,001,2022-04-29_02h13.17.557,classification_task,2021.2.3,Win32,60.0240096,5f83653605d2664cf6a4f5f4,626b377229c10585ec392f8a,626b3b7b63d90d55e8259da0,,,,,,,,,,,,,,,,,,,,,,,a,1,0.797,"[""0.226"",""0.376"",""0.662"",""0.918""]","[1,0,1,1]",0,37,37,37,1,0,0,,,0,FALSE,,,,,,,,,,,,,,,,,,,,,,,,,,,,,,
,5f83653605d2664cf6a4f5f4,001,2022-04-29_02h13.17.557,classification_task,2021.2.3,Win32,60.0240096,5f83653605d2664cf6a4f5f4,626b377229c10585ec392f8a,626b3b7b63d90d55e8259da0,,,,,,,,,,,,,,,,,,,,,,,l,1,1.24,"[""0.145"",""0.333"",""0.616"",""0.788""]","[1,1,0,1]",0,38,38,38,1,1,0,,,0,FALSE,,,,,,,,,,,,,,,,,,,,,,,,,,,,,,
,5f83653605d2664cf6a4f5f4,001,2022-04-29_02h13.17.557,classification_task,2021.2.3,Win32,60.0240096,5f83653605d2664cf6a4f5f4,626b377229c10585ec392f8a,626b3b7b63d90d55e8259da0,,,,,,,,,,,,,,,,,,,,,,,a,0,2.54,"[""0.028"",""0.110"",""0.061"",""0.832""]","[1,1,0,1]",0,39,39,39,1,1,1,,,0,FALSE,,,,,,,,,,,,,,,,,,,,,,,,,,,,,,
,5f83653605d2664cf6a4f5f4,001,2022-04-29_02h13.17.557,classification_task,2021.2.3,Win32,60.0240096,5f83653605d2664cf6a4f5f4,626b377229c10585ec392f8a,626b3b7b63d90d55e8259da0,,,,,,,,,,,,,,,,,,,,,,,a,1,1.291,"[""0.178"",""0.520"",""0.742"",""0.061""]","[1,1,1,0]",0,40,40,40,1,0,1,,,0,FALSE,,,,,,,,,,,,,,,,,,,,,,,,,,,,,,
,5f83653605d2664cf6a4f5f4,001,2022-04-29_02h13.17.557,classification_task,2021.2.3,Win32,60.0240096,5f83653605d2664cf6a4f5f4,626b377229c10585ec392f8a,626b3b7b63d90d55e8259da0,,,,,,,,,,,,,,,,,,,,,,,l,1,1.084,"[""0.028"",""0.110"",""0.482"",""0.618""]","[1,1,1,0]",0,41,41,41,1,1,1,,,0,FALSE,,,,,,,,,,,,,,,,,,,,,,,,,,,,,,
,5f83653605d2664cf6a4f5f4,001,2022-04-29_02h13.17.557,classification_task,2021.2.3,Win32,60.0240096,5f83653605d2664cf6a4f5f4,626b377229c10585ec392f8a,626b3b7b63d90d55e8259da0,,,,,,,,,,,,,,,,,,,,,,,a,1,1.146,"[""0.178"",""0.520"",""0.265"",""0.959""]","[1,1,0,1]",0,42,42,42,1,0,1,,,0,FALSE,,,,,,,,,,,,,,,,,,,,,,,,,,,,,,
,5f83653605d2664cf6a4f5f4,001,2022-04-29_02h13.17.557,classification_task,2021.2.3,Win32,60.0240096,5f83653605d2664cf6a4f5f4,626b377229c10585ec392f8a,626b3b7b63d90d55e8259da0,,,,,,,,,,,,,,,,,,,,,,,a,1,0.877,"[""0.616"",""0.414"",""0.662"",""0.918""]","[0,1,1,1]",0,43,43,43,1,0,0,,,0,FALSE,,,,,,,,,,,,,,,,,,,,,,,,,,,,,,
,5f83653605d2664cf6a4f5f4,001,2022-04-29_02h13.17.557,classification_task,2021.2.3,Win32,60.0240096,5f83653605d2664cf6a4f5f4,626b377229c10585ec392f8a,626b3b7b63d90d55e8259da0,,,,,,,,,,,,,,,,,,,,,,,a,0,1.684,"[""0.601"",""0.110"",""0.482"",""0.832""]","[0,1,1,1]",0,44,44,44,1,1,1,,,0,FALSE,,,,,,,,,,,,,,,,,,,,,,,,,,,,,,
,5f83653605d2664cf6a4f5f4,001,2022-04-29_02h13.17.557,classification_task,2021.2.3,Win32,60.0240096,5f83653605d2664cf6a4f5f4,626b377229c10585ec392f8a,626b3b7b63d90d55e8259da0,,,,,,,,,,,,,,,,,,,,,,,l,1,1.4,"[""0.145"",""0.375"",""0.567"",""0.788""]","[1,0,1,1]",0,45,45,45,1,1,0,,,0,FALSE,,,,,,,,,,,,,,,,,,,,,,,,,,,,,,
,5f83653605d2664cf6a4f5f4,001,2022-04-29_02h13.17.557,classification_task,2021.2.3,Win32,60.0240096,5f83653605d2664cf6a4f5f4,626b377229c10585ec392f8a,626b3b7b63d90d55e8259da0,,,,,,,,,,,,,,,,,,,,,,,a,1,0.872,"[""0.226"",""0.414"",""0.074"",""0.918""]","[1,1,0,1]",0,46,46,46,1,0,0,,,0,FALSE,,,,,,,,,,,,,,,,,,,,,,,,,,,,,,
,5f83653605d2664cf6a4f5f4,001,2022-04-29_02h13.17.557,classification_task,2021.2.3,Win32,60.0240096,5f83653605d2664cf6a4f5f4,626b377229c10585ec392f8a,626b3b7b63d90d55e8259da0,,,,,,,,,,,,,,,,,,,,,,,l,1,1.27,"[""0.145"",""0.333"",""0.567"",""0.618""]","[1,1,1,0]",0,47,47,47,1,1,0,,,0,FALSE,,,,,,,,,,,,,,,,,,,,,,,,,,,,,,
,5f83653605d2664cf6a4f5f4,001,2022-04-29_02h13.17.557,classification_task,2021.2.3,Win32,60.0240096,5f83653605d2664cf6a4f5f4,626b377229c10585ec392f8a,626b3b7b63d90d55e8259da0,,,,,,,,,,,,,,,,,,,,,,,l,0,1.509,"[""0.226"",""0.414"",""0.662"",""0.873""]","[1,1,1,0]",0,48,48,48,1,0,0,,,0,FALSE,,,,,,,,,,,,,,,,,,,,,,,,,,,,,,
,5f83653605d2664cf6a4f5f4,001,2022-04-29_02h13.17.557,classification_task,2021.2.3,Win32,60.0240096,5f83653605d2664cf6a4f5f4,626b377229c10585ec392f8a,626b3b7b63d90d55e8259da0,,,,,,,,,,,,,,,,,,,,,,,l,1,3.697,"[""0.061"",""0.110"",""0.482"",""0.832""]","[0,1,1,1]",0,49,49,49,1,1,1,,,0,FALSE,,,,,,,,,,,,,,,,,,,,,,,,,,,,,,
,5f83653605d2664cf6a4f5f4,001,2022-04-29_02h13.17.557,classification_task,2021.2.3,Win32,60.0240096,5f83653605d2664cf6a4f5f4,626b377229c10585ec392f8a,626b3b7b63d90d55e8259da0,,,,,,,,,,,,,,,,,,,,,,,a,0,1.509,"[""0.028"",""0.110"",""0.601"",""0.832""]","[1,1,0,1]",0,50,50,50,1,1,1,,,0,FALSE,,,,,,,,,,,,,,,,,,,,,,,,,,,,,,
,5f83653605d2664cf6a4f5f4,001,2022-04-29_02h13.17.557,classification_task,2021.2.3,Win32,60.0240096,5f83653605d2664cf6a4f5f4,626b377229c10585ec392f8a,626b3b7b63d90d55e8259da0,,,,,,,,,,,,,,,,,,,,,,,l,1,4.127,"[""0.028"",""0.873"",""0.482"",""0.832""]","[1,0,1,1]",0,51,51,51,1,1,1,,,0,FALSE,,,,,,,,,,,,,,,,,,,,,,,,,,,,,,
,5f83653605d2664cf6a4f5f4,001,2022-04-29_02h13.17.557,classification_task,2021.2.3,Win32,60.0240096,5f83653605d2664cf6a4f5f4,626b377229c10585ec392f8a,626b3b7b63d90d55e8259da0,,,,,,,,,,,,,,,,,,,,,,,l,1,1.653,"[""0.874"",""0.333"",""0.567"",""0.788""]","[0,1,1,1]",0,52,52,52,1,1,0,,,0,FALSE,,,,,,,,,,,,,,,,,,,,,,,,,,,,,,
,5f83653605d2664cf6a4f5f4,001,2022-04-29_02h13.17.557,classification_task,2021.2.3,Win32,60.0240096,5f83653605d2664cf6a4f5f4,626b377229c10585ec392f8a,626b3b7b63d90d55e8259da0,,,,,,,,,,,,,,,,,,,,,,,a,1,1.528,"[""0.874"",""0.520"",""0.742"",""0.959""]","[0,1,1,1]",0,53,53,53,1,0,1,,,0,FALSE,,,,,,,,,,,,,,,,,,,,,,,,,,,,,,
,5f83653605d2664cf6a4f5f4,001,2022-04-29_02h13.17.557,classification_task,2021.2.3,Win32,60.0240096,5f83653605d2664cf6a4f5f4,626b377229c10585ec392f8a,626b3b7b63d90d55e8259da0,,,,,,,,,,,,,,,,,,,,,,,l,1,1.598,"[""0.145"",""0.618"",""0.567"",""0.788""]","[1,0,1,1]",0,54,54,54,1,1,0,,,0,FALSE,,,,,,,,,,,,,,,,,,,,,,,,,,,,,,
,5f83653605d2664cf6a4f5f4,001,2022-04-29_02h13.17.557,classification_task,2021.2.3,Win32,60.0240096,5f83653605d2664cf6a4f5f4,626b377229c10585ec392f8a,626b3b7b63d90d55e8259da0,,,,,,,,,,,,,,,,,,,,,,,a,1,1.258,"[""0.226"",""0.695"",""0.662"",""0.918""]","[1,0,1,1]",0,55,55,55,1,0,0,,,0,FALSE,,,,,,,,,,,,,,,,,,,,,,,,,,,,,,
,5f83653605d2664cf6a4f5f4,001,2022-04-29_02h13.17.557,classification_task,2021.2.3,Win32,60.0240096,5f83653605d2664cf6a4f5f4,626b377229c10585ec392f8a,626b3b7b63d90d55e8259da0,,,,,,,,,,,,,,,,,,,,,,,l,0,2.043,"[""0.178"",""0.265"",""0.742"",""0.959""]","[1,0,1,1]",0,56,56,56,1,0,1,,,0,FALSE,,,,,,,,,,,,,,,,,,,,,,,,,,,,,,
,5f83653605d2664cf6a4f5f4,001,2022-04-29_02h13.17.557,classification_task,2021.2.3,Win32,60.0240096,5f83653605d2664cf6a4f5f4,626b377229c10585ec392f8a,626b3b7b63d90d55e8259da0,,,,,,,,,,,,,,,,,,,,,,,a,1,2.356,"[""0.601"",""0.414"",""0.662"",""0.918""]","[0,1,1,1]",0,57,57,57,1,0,0,,,0,FALSE,,,,,,,,,,,,,,,,,,,,,,,,,,,,,,
,5f83653605d2664cf6a4f5f4,001,2022-04-29_02h13.17.557,classification_task,2021.2.3,Win32,60.0240096,5f83653605d2664cf6a4f5f4,626b377229c10585ec392f8a,626b3b7b63d90d55e8259da0,,,,,,,,,,,,,,,,,,,,,,,a,1,1.508,"[""0.226"",""0.414"",""0.873"",""0.918""]","[1,1,0,1]",0,58,58,58,1,0,0,,,0,FALSE,,,,,,,,,,,,,,,,,,,,,,,,,,,,,,
,5f83653605d2664cf6a4f5f4,001,2022-04-29_02h13.17.557,classification_task,2021.2.3,Win32,60.0240096,5f83653605d2664cf6a4f5f4,626b377229c10585ec392f8a,626b3b7b63d90d55e8259da0,,,,,,,,,,,,,,,,,,,,,,,l,0,1.384,"[""0.178"",""0.520"",""0.071"",""0.959""]","[1,1,0,1]",0,59,59,59,1,0,1,,,0,FALSE,,,,,,,,,,,,,,,,,,,,,,,,,,,,,,
,5f83653605d2664cf6a4f5f4,001,2022-04-29_02h13.17.557,classification_task,2021.2.3,Win32,60.0240096,5f83653605d2664cf6a4f5f4,626b377229c10585ec392f8a,626b3b7b63d90d55e8259da0,,,,,,,,,,,,,,,,,,,,,,,a,0,1.223,"[""0.028"",""0.110"",""0.482"",""0.277""]","[1,1,1,0]",0,60,60,60,1,1,1,,,0,FALSE,,,,,,,,,,,,,,,,,,,,,,,,,,,,,,
,5f83653605d2664cf6a4f5f4,001,2022-04-29_02h13.17.557,classification_task,2021.2.3,Win32,60.0240096,5f83653605d2664cf6a4f5f4,626b377229c10585ec392f8a,626b3b7b63d90d55e8259da0,,,,,,,,,,,,,,,,,,,,,,,l,1,1.625,"[""0.145"",""0.333"",""0.567"",""0.071""]","[1,1,1,0]",0,61,61,61,1,1,0,,,0,FALSE,,,,,,,,,,,,,,,,,,,,,,,,,,,,,,
,5f83653605d2664cf6a4f5f4,001,2022-04-29_02h13.17.557,classification_task,2021.2.3,Win32,60.0240096,5f83653605d2664cf6a4f5f4,626b377229c10585ec392f8a,626b3b7b63d90d55e8259da0,,,,,,,,,,,,,,,,,,,,,,,l,1,4.645,"[""0.145"",""0.333"",""0.262"",""0.788""]","[1,1,0,1]",0,62,62,62,1,1,0,,,0,FALSE,,,,,,,,,,,,,,,,,,,,,,,,,,,,,,
,5f83653605d2664cf6a4f5f4,001,2022-04-29_02h13.17.557,classification_task,2021.2.3,Win32,60.0240096,5f83653605d2664cf6a4f5f4,626b377229c10585ec392f8a,626b3b7b63d90d55e8259da0,,,,,,,,,,,,,,,,,,,,,,,a,1,5.412,"[""0.178"",""0.520"",""0.742"",""0.874""]","[1,1,1,0]",0,63,63,63,1,0,1,,,0,FALSE,,,,,,,,,,,,,,,,,,,,,,,,,,,,,,
,5f83653605d2664cf6a4f5f4,001,2022-04-29_02h13.17.557,classification_task,2021.2.3,Win32,60.0240096,5f83653605d2664cf6a4f5f4,626b377229c10585ec392f8a,626b3b7b63d90d55e8259da0,,,,,,,,,,,,,,,,,,,,,,,,,,,,,,,,,,,,,,,0, ,,0,10,248.364,0,1,1,1,1,2,2,,,,,,,,,,,,,,,,,
,5f83653605d2664cf6a4f5f4,001,2022-04-29_02h13.17.557,classification_task,2021.2.3,Win32,60.0240096,5f83653605d2664cf6a4f5f4,626b377229c10585ec392f8a,626b3b7b63d90d55e8259da0,,,,,,,,,,,,,,,,,,,,,,,,,,,,,,,,,,,,,,,1,  ,,0,7.221728505,251.314,0,1,1,1,1,2,2,,,,,,,,,,,,,,,,,
,5f83653605d2664cf6a4f5f4,001,2022-04-29_02h13.17.557,classification_task,2021.2.3,Win32,60.0240096,5f83653605d2664cf6a4f5f4,626b377229c10585ec392f8a,626b3b7b63d90d55e8259da0,,,,,,,,,,,,,,,,,,,,,,,,,,,,,,,,,,,,,,,2,  ,,0,1.667407243,253.462,0,1,1,1,1,2,2,,,,,,,,,,,,,,,,,
,5f83653605d2664cf6a4f5f4,001,2022-04-29_02h13.17.557,classification_task,2021.2.3,Win32,60.0240096,5f83653605d2664cf6a4f5f4,626b377229c10585ec392f8a,626b3b7b63d90d55e8259da0,,,,,,,,,,,,,,,,,,,,,,,,,,,,,,,,,,,,,,,,,,,,,0,1,1,1,1,,2,,,,,,,,,,,,,,,,,
,5f83653605d2664cf6a4f5f4,001,2022-04-29_02h13.17.557,classification_task,2021.2.3,Win32,60.0240096,5f83653605d2664cf6a4f5f4,626b377229c10585ec392f8a,626b3b7b63d90d55e8259da0,,,,,,,,,,,,,,,,,,,,,space,9.243,l,1,1.819,"[""0.145"",""0.333"",""0.618"",""0.788""]","[1,1,0,1]",0,0,0,0,1,1,0,,,0,FALSE,,,,,,,,,,,,,,,,,,,,,,,,,,,,,,
,5f83653605d2664cf6a4f5f4,001,2022-04-29_02h13.17.557,classification_task,2021.2.3,Win32,60.0240096,5f83653605d2664cf6a4f5f4,626b377229c10585ec392f8a,626b3b7b63d90d55e8259da0,,,,,,,,,,,,,,,,,,,,,,,l,0,2.55,"[""0.071"",""0.520"",""0.742"",""0.959""]","[0,1,1,1]",0,1,1,1,1,0,1,,,0,FALSE,,,,,,,,,,,,,,,,,,,,,,,,,,,,,,
,5f83653605d2664cf6a4f5f4,001,2022-04-29_02h13.17.557,classification_task,2021.2.3,Win32,60.0240096,5f83653605d2664cf6a4f5f4,626b377229c10585ec392f8a,626b3b7b63d90d55e8259da0,,,,,,,,,,,,,,,,,,,,,,,l,1,2.217,"[""0.028"",""0.110"",""0.873"",""0.832""]","[1,1,0,1]",0,2,2,2,1,1,1,,,0,FALSE,,,,,,,,,,,,,,,,,,,,,,,,,,,,,,
,5f83653605d2664cf6a4f5f4,001,2022-04-29_02h13.17.557,classification_task,2021.2.3,Win32,60.0240096,5f83653605d2664cf6a4f5f4,626b377229c10585ec392f8a,626b3b7b63d90d55e8259da0,,,,,,,,,,,,,,,,,,,,,,,a,1,1.281,"[""0.873"",""0.414"",""0.662"",""0.918""]","[0,1,1,1]",0,3,3,3,1,0,0,,,0,FALSE,,,,,,,,,,,,,,,,,,,,,,,,,,,,,,
,5f83653605d2664cf6a4f5f4,001,2022-04-29_02h13.17.557,classification_task,2021.2.3,Win32,60.0240096,5f83653605d2664cf6a4f5f4,626b377229c10585ec392f8a,626b3b7b63d90d55e8259da0,,,,,,,,,,,,,,,,,,,,,,,l,1,0.952,"[""0.618"",""0.333"",""0.567"",""0.788""]","[0,1,1,1]",0,4,4,4,1,1,0,,,0,FALSE,,,,,,,,,,,,,,,,,,,,,,,,,,,,,,
,5f83653605d2664cf6a4f5f4,001,2022-04-29_02h13.17.557,classification_task,2021.2.3,Win32,60.0240096,5f83653605d2664cf6a4f5f4,626b377229c10585ec392f8a,626b3b7b63d90d55e8259da0,,,,,,,,,,,,,,,,,,,,,,,a,1,0.918,"[""0.226"",""0.414"",""0.265"",""0.918""]","[1,1,0,1]",0,5,5,5,1,0,0,,,0,FALSE,,,,,,,,,,,,,,,,,,,,,,,,,,,,,,
,5f83653605d2664cf6a4f5f4,001,2022-04-29_02h13.17.557,classification_task,2021.2.3,Win32,60.0240096,5f83653605d2664cf6a4f5f4,626b377229c10585ec392f8a,626b3b7b63d90d55e8259da0,,,,,,,,,,,,,,,,,,,,,,,a,1,0.875,"[""0.226"",""0.061"",""0.662"",""0.918""]","[1,0,1,1]",0,6,6,6,1,0,0,,,0,FALSE,,,,,,,,,,,,,,,,,,,,,,,,,,,,,,
,5f83653605d2664cf6a4f5f4,001,2022-04-29_02h13.17.557,classification_task,2021.2.3,Win32,60.0240096,5f83653605d2664cf6a4f5f4,626b377229c10585ec392f8a,626b3b7b63d90d55e8259da0,,,,,,,,,,,,,,,,,,,,,,,l,0,2.063,"[""0.178"",""0.520"",""0.618"",""0.959""]","[1,1,0,1]",0,7,7,7,1,0,1,,,0,FALSE,,,,,,,,,,,,,,,,,,,,,,,,,,,,,,
,5f83653605d2664cf6a4f5f4,001,2022-04-29_02h13.17.557,classification_task,2021.2.3,Win32,60.0240096,5f83653605d2664cf6a4f5f4,626b377229c10585ec392f8a,626b3b7b63d90d55e8259da0,,,,,,,,,,,,,,,,,,,,,,,l,1,1.159,"[""0.145"",""0.333"",""0.567"",""0.695""]","[1,1,1,0]",0,8,8,8,1,1,0,,,0,FALSE,,,,,,,,,,,,,,,,,,,,,,,,,,,,,,
,5f83653605d2664cf6a4f5f4,001,2022-04-29_02h13.17.557,classification_task,2021.2.3,Win32,60.0240096,5f83653605d2664cf6a4f5f4,626b377229c10585ec392f8a,626b3b7b63d90d55e8259da0,,,,,,,,,,,,,,,,,,,,,,,a,1,1.66,"[""0.178"",""0.520"",""0.742"",""0.695""]","[1,1,1,0]",0,9,9,9,1,0,1,,,0,FALSE,,,,,,,,,,,,,,,,,,,,,,,,,,,,,,
,5f83653605d2664cf6a4f5f4,001,2022-04-29_02h13.17.557,classification_task,2021.2.3,Win32,60.0240096,5f83653605d2664cf6a4f5f4,626b377229c10585ec392f8a,626b3b7b63d90d55e8259da0,,,,,,,,,,,,,,,,,,,,,,,l,0,1.545,"[""0.178"",""0.284"",""0.742"",""0.959""]","[1,0,1,1]",0,10,10,10,1,0,1,,,0,FALSE,,,,,,,,,,,,,,,,,,,,,,,,,,,,,,
,5f83653605d2664cf6a4f5f4,001,2022-04-29_02h13.17.557,classification_task,2021.2.3,Win32,60.0240096,5f83653605d2664cf6a4f5f4,626b377229c10585ec392f8a,626b3b7b63d90d55e8259da0,,,,,,,,,,,,,,,,,,,,,,,l,1,2.82,"[""0.873"",""0.110"",""0.482"",""0.832""]","[0,1,1,1]",0,11,11,11,1,1,1,,,0,FALSE,,,,,,,,,,,,,,,,,,,,,,,,,,,,,,
,5f83653605d2664cf6a4f5f4,001,2022-04-29_02h13.17.557,classification_task,2021.2.3,Win32,60.0240096,5f83653605d2664cf6a4f5f4,626b377229c10585ec392f8a,626b3b7b63d90d55e8259da0,,,,,,,,,,,,,,,,,,,,,,,a,0,1.476,"[""0.145"",""0.262"",""0.567"",""0.788""]","[1,0,1,1]",0,12,12,12,1,1,0,,,0,FALSE,,,,,,,,,,,,,,,,,,,,,,,,,,,,,,
,5f83653605d2664cf6a4f5f4,001,2022-04-29_02h13.17.557,classification_task,2021.2.3,Win32,60.0240096,5f83653605d2664cf6a4f5f4,626b377229c10585ec392f8a,626b3b7b63d90d55e8259da0,,,,,,,,,,,,,,,,,,,,,,,l,1,1.643,"[""0.028"",""0.265"",""0.482"",""0.832""]","[1,0,1,1]",0,13,13,13,1,1,1,,,0,FALSE,,,,,,,,,,,,,,,,,,,,,,,,,,,,,,
,5f83653605d2664cf6a4f5f4,001,2022-04-29_02h13.17.557,classification_task,2021.2.3,Win32,60.0240096,5f83653605d2664cf6a4f5f4,626b377229c10585ec392f8a,626b3b7b63d90d55e8259da0,,,,,,,,,,,,,,,,,,,,,,,a,0,1.309,"[""0.028"",""0.110"",""0.482"",""0.695""]","[1,1,1,0]",0,14,14,14,1,1,1,,,0,FALSE,,,,,,,,,,,,,,,,,,,,,,,,,,,,,,
,5f83653605d2664cf6a4f5f4,001,2022-04-29_02h13.17.557,classification_task,2021.2.3,Win32,60.0240096,5f83653605d2664cf6a4f5f4,626b377229c10585ec392f8a,626b3b7b63d90d55e8259da0,,,,,,,,,,,,,,,,,,,,,,,a,1,1.307,"[""0.226"",""0.414"",""0.662"",""0.373""]","[1,1,1,0]",0,15,15,15,1,0,0,,,0,FALSE,,,,,,,,,,,,,,,,,,,,,,,,,,,,,,
,5f83653605d2664cf6a4f5f4,001,2022-04-29_02h13.17.557,classification_task,2021.2.3,Win32,60.0240096,5f83653605d2664cf6a4f5f4,626b377229c10585ec392f8a,626b3b7b63d90d55e8259da0,,,,,,,,,,,,,,,,,,,,,,,l,0,1.553,"[""0.178"",""0.373"",""0.742"",""0.959""]","[1,0,1,1]",0,16,16,16,1,0,1,,,0,FALSE,,,,,,,,,,,,,,,,,,,,,,,,,,,,,,
,5f83653605d2664cf6a4f5f4,001,2022-04-29_02h13.17.557,classification_task,2021.2.3,Win32,60.0240096,5f83653605d2664cf6a4f5f4,626b377229c10585ec392f8a,626b3b7b63d90d55e8259da0,,,,,,,,,,,,,,,,,,,,,,,l,1,1.644,"[""0.028"",""0.110"",""0.482"",""0.284""]","[1,1,1,0]",0,17,17,17,1,1,1,,,0,FALSE,,,,,,,,,,,,,,,,,,,,,,,,,,,,,,
,5f83653605d2664cf6a4f5f4,001,2022-04-29_02h13.17.557,classification_task,2021.2.3,Win32,60.0240096,5f83653605d2664cf6a4f5f4,626b377229c10585ec392f8a,626b3b7b63d90d55e8259da0,,,,,,,,,,,,,,,,,,,,,,,a,1,2.549,"[""0.373"",""0.520"",""0.742"",""0.959""]","[0,1,1,1]",0,18,18,18,1,0,1,,,0,FALSE,,,,,,,,,,,,,,,,,,,,,,,,,,,,,,
,5f83653605d2664cf6a4f5f4,001,2022-04-29_02h13.17.557,classification_task,2021.2.3,Win32,60.0240096,5f83653605d2664cf6a4f5f4,626b377229c10585ec392f8a,626b3b7b63d90d55e8259da0,,,,,,,,,,,,,,,,,,,,,,,a,1,3.142,"[""0.178"",""0.520"",""0.742"",""0.061""]","[1,1,1,0]",0,19,19,19,1,0,1,,,0,FALSE,,,,,,,,,,,,,,,,,,,,,,,,,,,,,,
,5f83653605d2664cf6a4f5f4,001,2022-04-29_02h13.17.557,classification_task,2021.2.3,Win32,60.0240096,5f83653605d2664cf6a4f5f4,626b377229c10585ec392f8a,626b3b7b63d90d55e8259da0,,,,,,,,,,,,,,,,,,,,,,,a,1,1.072,"[""0.226"",""0.874"",""0.662"",""0.918""]","[1,0,1,1]",0,20,20,20,1,0,0,,,0,FALSE,,,,,,,,,,,,,,,,,,,,,,,,,,,,,,
,5f83653605d2664cf6a4f5f4,001,2022-04-29_02h13.17.557,classification_task,2021.2.3,Win32,60.0240096,5f83653605d2664cf6a4f5f4,626b377229c10585ec392f8a,626b3b7b63d90d55e8259da0,,,,,,,,,,,,,,,,,,,,,,,a,1,0.604,"[""0.226"",""0.414"",""0.373"",""0.918""]","[1,1,0,1]",0,21,21,21,1,0,0,,,0,FALSE,,,,,,,,,,,,,,,,,,,,,,,,,,,,,,
,5f83653605d2664cf6a4f5f4,001,2022-04-29_02h13.17.557,classification_task,2021.2.3,Win32,60.0240096,5f83653605d2664cf6a4f5f4,626b377229c10585ec392f8a,626b3b7b63d90d55e8259da0,,,,,,,,,,,,,,,,,,,,,,,l,1,0.807,"[""0.145"",""0.333"",""0.874"",""0.788""]","[1,1,0,1]",0,22,22,22,1,1,0,,,0,FALSE,,,,,,,,,,,,,,,,,,,,,,,,,,,,,,
,5f83653605d2664cf6a4f5f4,001,2022-04-29_02h13.17.557,classification_task,2021.2.3,Win32,60.0240096,5f83653605d2664cf6a4f5f4,626b377229c10585ec392f8a,626b3b7b63d90d55e8259da0,,,,,,,,,,,,,,,,,,,,,,,l,1,2.184,"[""0.028"",""0.110"",""0.375"",""0.832""]","[1,1,0,1]",0,23,23,23,1,1,1,,,0,FALSE,,,,,,,,,,,,,,,,,,,,,,,,,,,,,,
,5f83653605d2664cf6a4f5f4,001,2022-04-29_02h13.17.557,classification_task,2021.2.3,Win32,60.0240096,5f83653605d2664cf6a4f5f4,626b377229c10585ec392f8a,626b3b7b63d90d55e8259da0,,,,,,,,,,,,,,,,,,,,,,,l,1,1.021,"[""0.616"",""0.333"",""0.567"",""0.788""]","[0,1,1,1]",0,24,24,24,1,1,0,,,0,FALSE,,,,,,,,,,,,,,,,,,,,,,,,,,,,,,
,5f83653605d2664cf6a4f5f4,001,2022-04-29_02h13.17.557,classification_task,2021.2.3,Win32,60.0240096,5f83653605d2664cf6a4f5f4,626b377229c10585ec392f8a,626b3b7b63d90d55e8259da0,,,,,,,,,,,,,,,,,,,,,,,l,1,0.589,"[""0.145"",""0.333"",""0.567"",""0.873""]","[1,1,1,0]",0,25,25,25,1,1,0,,,0,FALSE,,,,,,,,,,,,,,,,,,,,,,,,,,,,,,
,5f83653605d2664cf6a4f5f4,001,2022-04-29_02h13.17.557,classification_task,2021.2.3,Win32,60.0240096,5f83653605d2664cf6a4f5f4,626b377229c10585ec392f8a,626b3b7b63d90d55e8259da0,,,,,,,,,,,,,,,,,,,,,,,l,0,1.78,"[""0.873"",""0.414"",""0.662"",""0.918""]","[0,1,1,1]",0,26,26,26,1,0,0,,,0,FALSE,,,,,,,,,,,,,,,,,,,,,,,,,,,,,,
,5f83653605d2664cf6a4f5f4,001,2022-04-29_02h13.17.557,classification_task,2021.2.3,Win32,60.0240096,5f83653605d2664cf6a4f5f4,626b377229c10585ec392f8a,626b3b7b63d90d55e8259da0,,,,,,,,,,,,,,,,,,,,,,,a,1,1.023,"[""0.178"",""0.520"",""0.277"",""0.959""]","[1,1,0,1]",0,27,27,27,1,0,1,,,0,FALSE,,,,,,,,,,,,,,,,,,,,,,,,,,,,,,
,5f83653605d2664cf6a4f5f4,001,2022-04-29_02h13.17.557,classification_task,2021.2.3,Win32,60.0240096,5f83653605d2664cf6a4f5f4,626b377229c10585ec392f8a,626b3b7b63d90d55e8259da0,,,,,,,,,,,,,,,,,,,,,,,l,0,1.022,"[""0.226"",""0.414"",""0.662"",""0.695""]","[1,1,1,0]",0,28,28,28,1,0,0,,,0,FALSE,,,,,,,,,,,,,,,,,,,,,,,,,,,,,,
,5f83653605d2664cf6a4f5f4,001,2022-04-29_02h13.17.557,classification_task,2021.2.3,Win32,60.0240096,5f83653605d2664cf6a4f5f4,626b377229c10585ec392f8a,626b3b7b63d90d55e8259da0,,,,,,,,,,,,,,,,,,,,,,,l,1,2.071,"[""0.071"",""0.110"",""0.482"",""0.832""]","[0,1,1,1]",0,29,29,29,1,1,1,,,0,FALSE,,,,,,,,,,,,,,,,,,,,,,,,,,,,,,
,5f83653605d2664cf6a4f5f4,001,2022-04-29_02h13.17.557,classification_task,2021.2.3,Win32,60.0240096,5f83653605d2664cf6a4f5f4,626b377229c10585ec392f8a,626b3b7b63d90d55e8259da0,,,,,,,,,,,,,,,,,,,,,,,a,0,2.112,"[""0.028"",""0.071"",""0.482"",""0.832""]","[1,0,1,1]",0,30,30,30,1,1,1,,,0,FALSE,,,,,,,,,,,,,,,,,,,,,,,,,,,,,,
,5f83653605d2664cf6a4f5f4,001,2022-04-29_02h13.17.557,classification_task,2021.2.3,Win32,60.0240096,5f83653605d2664cf6a4f5f4,626b377229c10585ec392f8a,626b3b7b63d90d55e8259da0,,,,,,,,,,,,,,,,,,,,,,,l,1,2.196,"[""0.145"",""0.284"",""0.567"",""0.788""]","[1,0,1,1]",0,31,31,31,1,1,0,,,0,FALSE,,,,,,,,,,,,,,,,,,,,,,,,,,,,,,
,5f83653605d2664cf6a4f5f4,001,2022-04-29_02h13.17.557,classification_task,2021.2.3,Win32,60.0240096,5f83653605d2664cf6a4f5f4,626b377229c10585ec392f8a,626b3b7b63d90d55e8259da0,,,,,,,,,,,,,,,,,,,,,,,a,1,1.559,"[""0.178"",""0.520"",""0.742"",""0.061""]","[1,1,1,0]",0,32,32,32,1,0,1,,,0,FALSE,,,,,,,,,,,,,,,,,,,,,,,,,,,,,,
,5f83653605d2664cf6a4f5f4,001,2022-04-29_02h13.17.557,classification_task,2021.2.3,Win32,60.0240096,5f83653605d2664cf6a4f5f4,626b377229c10585ec392f8a,626b3b7b63d90d55e8259da0,,,,,,,,,,,,,,,,,,,,,,,l,1,1.141,"[""0.028"",""0.110"",""0.482"",""0.618""]","[1,1,1,0]",0,33,33,33,1,1,1,,,0,FALSE,,,,,,,,,,,,,,,,,,,,,,,,,,,,,,
,5f83653605d2664cf6a4f5f4,001,2022-04-29_02h13.17.557,classification_task,2021.2.3,Win32,60.0240096,5f83653605d2664cf6a4f5f4,626b377229c10585ec392f8a,626b3b7b63d90d55e8259da0,,,,,,,,,,,,,,,,,,,,,,,l,1,1.489,"[""0.061"",""0.110"",""0.482"",""0.832""]","[0,1,1,1]",0,34,34,34,1,1,1,,,0,FALSE,,,,,,,,,,,,,,,,,,,,,,,,,,,,,,
,5f83653605d2664cf6a4f5f4,001,2022-04-29_02h13.17.557,classification_task,2021.2.3,Win32,60.0240096,5f83653605d2664cf6a4f5f4,626b377229c10585ec392f8a,626b3b7b63d90d55e8259da0,,,,,,,,,,,,,,,,,,,,,,,l,1,1.191,"[""0.145"",""0.333"",""0.567"",""0.376""]","[1,1,1,0]",0,35,35,35,1,1,0,,,0,FALSE,,,,,,,,,,,,,,,,,,,,,,,,,,,,,,
,5f83653605d2664cf6a4f5f4,001,2022-04-29_02h13.17.557,classification_task,2021.2.3,Win32,60.0240096,5f83653605d2664cf6a4f5f4,626b377229c10585ec392f8a,626b3b7b63d90d55e8259da0,,,,,,,,,,,,,,,,,,,,,,,a,1,0.788,"[""0.873"",""0.520"",""0.742"",""0.959""]","[0,1,1,1]",0,36,36,36,1,0,1,,,0,FALSE,,,,,,,,,,,,,,,,,,,,,,,,,,,,,,
,5f83653605d2664cf6a4f5f4,001,2022-04-29_02h13.17.557,classification_task,2021.2.3,Win32,60.0240096,5f83653605d2664cf6a4f5f4,626b377229c10585ec392f8a,626b3b7b63d90d55e8259da0,,,,,,,,,,,,,,,,,,,,,,,a,1,1.175,"[""0.226"",""0.414"",""0.662"",""0.601""]","[1,1,1,0]",0,37,37,37,1,0,0,,,0,FALSE,,,,,,,,,,,,,,,,,,,,,,,,,,,,,,
,5f83653605d2664cf6a4f5f4,001,2022-04-29_02h13.17.557,classification_task,2021.2.3,Win32,60.0240096,5f83653605d2664cf6a4f5f4,626b377229c10585ec392f8a,626b3b7b63d90d55e8259da0,,,,,,,,,,,,,,,,,,,,,,,l,1,1.663,"[""0.145"",""0.333"",""0.874"",""0.788""]","[1,1,0,1]",0,38,38,38,1,1,0,,,0,FALSE,,,,,,,,,,,,,,,,,,,,,,,,,,,,,,
,5f83653605d2664cf6a4f5f4,001,2022-04-29_02h13.17.557,classification_task,2021.2.3,Win32,60.0240096,5f83653605d2664cf6a4f5f4,626b377229c10585ec392f8a,626b3b7b63d90d55e8259da0,,,,,,,,,,,,,,,,,,,,,,,a,0,1.293,"[""0.145"",""0.873"",""0.567"",""0.788""]","[1,0,1,1]",0,39,39,39,1,1,0,,,0,FALSE,,,,,,,,,,,,,,,,,,,,,,,,,,,,,,
,5f83653605d2664cf6a4f5f4,001,2022-04-29_02h13.17.557,classification_task,2021.2.3,Win32,60.0240096,5f83653605d2664cf6a4f5f4,626b377229c10585ec392f8a,626b3b7b63d90d55e8259da0,,,,,,,,,,,,,,,,,,,,,,,l,1,1.392,"[""0.028"",""0.874"",""0.482"",""0.832""]","[1,0,1,1]",0,40,40,40,1,1,1,,,0,FALSE,,,,,,,,,,,,,,,,,,,,,,,,,,,,,,
,5f83653605d2664cf6a4f5f4,001,2022-04-29_02h13.17.557,classification_task,2021.2.3,Win32,60.0240096,5f83653605d2664cf6a4f5f4,626b377229c10585ec392f8a,626b3b7b63d90d55e8259da0,,,,,,,,,,,,,,,,,,,,,,,l,0,4.397,"[""0.178"",""0.601"",""0.742"",""0.959""]","[1,0,1,1]",0,41,41,41,1,0,1,,,0,FALSE,,,,,,,,,,,,,,,,,,,,,,,,,,,,,,
,5f83653605d2664cf6a4f5f4,001,2022-04-29_02h13.17.557,classification_task,2021.2.3,Win32,60.0240096,5f83653605d2664cf6a4f5f4,626b377229c10585ec392f8a,626b3b7b63d90d55e8259da0,,,,,,,,,,,,,,,,,,,,,,,a,1,0.733,"[""0.226"",""0.414"",""0.873"",""0.918""]","[1,1,0,1]",0,42,42,42,1,0,0,,,0,FALSE,,,,,,,,,,,,,,,,,,,,,,,,,,,,,,
,5f83653605d2664cf6a4f5f4,001,2022-04-29_02h13.17.557,classification_task,2021.2.3,Win32,60.0240096,5f83653605d2664cf6a4f5f4,626b377229c10585ec392f8a,626b3b7b63d90d55e8259da0,,,,,,,,,,,,,,,,,,,,,,,l,1,1.271,"[""0.028"",""0.110"",""0.601"",""0.832""]","[1,1,0,1]",0,43,43,43,1,1,1,,,0,FALSE,,,,,,,,,,,,,,,,,,,,,,,,,,,,,,
,5f83653605d2664cf6a4f5f4,001,2022-04-29_02h13.17.557,classification_task,2021.2.3,Win32,60.0240096,5f83653605d2664cf6a4f5f4,626b377229c10585ec392f8a,626b3b7b63d90d55e8259da0,,,,,,,,,,,,,,,,,,,,,,,a,1,1.141,"[""0.226"",""0.873"",""0.662"",""0.918""]","[1,0,1,1]",0,44,44,44,1,0,0,,,0,FALSE,,,,,,,,,,,,,,,,,,,,,,,,,,,,,,
,5f83653605d2664cf6a4f5f4,001,2022-04-29_02h13.17.557,classification_task,2021.2.3,Win32,60.0240096,5f83653605d2664cf6a4f5f4,626b377229c10585ec392f8a,626b3b7b63d90d55e8259da0,,,,,,,,,,,,,,,,,,,,,,,l,1,1.393,"[""0.376"",""0.333"",""0.567"",""0.788""]","[0,1,1,1]",0,45,45,45,1,1,0,,,0,FALSE,,,,,,,,,,,,,,,,,,,,,,,,,,,,,,
,5f83653605d2664cf6a4f5f4,001,2022-04-29_02h13.17.557,classification_task,2021.2.3,Win32,60.0240096,5f83653605d2664cf6a4f5f4,626b377229c10585ec392f8a,626b3b7b63d90d55e8259da0,,,,,,,,,,,,,,,,,,,,,,,a,1,1.34,"[""0.061"",""0.414"",""0.662"",""0.918""]","[0,1,1,1]",0,46,46,46,1,0,0,,,0,FALSE,,,,,,,,,,,,,,,,,,,,,,,,,,,,,,
,5f83653605d2664cf6a4f5f4,001,2022-04-29_02h13.17.557,classification_task,2021.2.3,Win32,60.0240096,5f83653605d2664cf6a4f5f4,626b377229c10585ec392f8a,626b3b7b63d90d55e8259da0,,,,,,,,,,,,,,,,,,,,,,,l,0,3.136,"[""0.178"",""0.520"",""0.071"",""0.959""]","[1,1,0,1]",0,47,47,47,1,0,1,,,0,FALSE,,,,,,,,,,,,,,,,,,,,,,,,,,,,,,
,5f83653605d2664cf6a4f5f4,001,2022-04-29_02h13.17.557,classification_task,2021.2.3,Win32,60.0240096,5f83653605d2664cf6a4f5f4,626b377229c10585ec392f8a,626b3b7b63d90d55e8259da0,,,,,,,,,,,,,,,,,,,,,,,l,0,1.376,"[""0.178"",""0.376"",""0.742"",""0.959""]","[1,0,1,1]",0,48,48,48,1,0,1,,,0,FALSE,,,,,,,,,,,,,,,,,,,,,,,,,,,,,,
,5f83653605d2664cf6a4f5f4,001,2022-04-29_02h13.17.557,classification_task,2021.2.3,Win32,60.0240096,5f83653605d2664cf6a4f5f4,626b377229c10585ec392f8a,626b3b7b63d90d55e8259da0,,,,,,,,,,,,,,,,,,,,,,,a,0,1.032,"[""0.145"",""0.265"",""0.567"",""0.788""]","[1,0,1,1]",0,49,49,49,1,1,0,,,0,FALSE,,,,,,,,,,,,,,,,,,,,,,,,,,,,,,
,5f83653605d2664cf6a4f5f4,001,2022-04-29_02h13.17.557,classification_task,2021.2.3,Win32,60.0240096,5f83653605d2664cf6a4f5f4,626b377229c10585ec392f8a,626b3b7b63d90d55e8259da0,,,,,,,,,,,,,,,,,,,,,,,l,0,0.907,"[""0.226"",""0.414"",""0.662"",""0.265""]","[1,1,1,0]",0,50,50,50,1,0,0,,,0,FALSE,,,,,,,,,,,,,,,,,,,,,,,,,,,,,,
,5f83653605d2664cf6a4f5f4,001,2022-04-29_02h13.17.557,classification_task,2021.2.3,Win32,60.0240096,5f83653605d2664cf6a4f5f4,626b377229c10585ec392f8a,626b3b7b63d90d55e8259da0,,,,,,,,,,,,,,,,,,,,,,,a,1,1.856,"[""0.226"",""0.375"",""0.662"",""0.918""]","[1,0,1,1]",0,51,51,51,1,0,0,,,0,FALSE,,,,,,,,,,,,,,,,,,,,,,,,,,,,,,
,5f83653605d2664cf6a4f5f4,001,2022-04-29_02h13.17.557,classification_task,2021.2.3,Win32,60.0240096,5f83653605d2664cf6a4f5f4,626b377229c10585ec392f8a,626b3b7b63d90d55e8259da0,,,,,,,,,,,,,,,,,,,,,,,l,0,1.526,"[""0.874"",""0.414"",""0.662"",""0.918""]","[0,1,1,1]",0,52,52,52,1,0,0,,,0,FALSE,,,,,,,,,,,,,,,,,,,,,,,,,,,,,,
,5f83653605d2664cf6a4f5f4,001,2022-04-29_02h13.17.557,classification_task,2021.2.3,Win32,60.0240096,5f83653605d2664cf6a4f5f4,626b377229c10585ec392f8a,626b3b7b63d90d55e8259da0,,,,,,,,,,,,,,,,,,,,,,,l,1,1.743,"[""0.028"",""0.110"",""0.265"",""0.832""]","[1,1,0,1]",0,53,53,53,1,1,1,,,0,FALSE,,,,,,,,,,,,,,,,,,,,,,,,,,,,,,
,5f83653605d2664cf6a4f5f4,001,2022-04-29_02h13.17.557,classification_task,2021.2.3,Win32,60.0240096,5f83653605d2664cf6a4f5f4,626b377229c10585ec392f8a,626b3b7b63d90d55e8259da0,,,,,,,,,,,,,,,,,,,,,,,l,1,3.641,"[""0.145"",""0.333"",""0.373"",""0.788""]","[1,1,0,1]",0,54,54,54,1,1,0,,,0,FALSE,,,,,,,,,,,,,,,,,,,,,,,,,,,,,,
,5f83653605d2664cf6a4f5f4,001,2022-04-29_02h13.17.557,classification_task,2021.2.3,Win32,60.0240096,5f83653605d2664cf6a4f5f4,626b377229c10585ec392f8a,626b3b7b63d90d55e8259da0,,,,,,,,,,,,,,,,,,,,,,,a,1,1.049,"[""0.178"",""0.520"",""0.742"",""0.874""]","[1,1,1,0]",0,55,55,55,1,0,1,,,0,FALSE,,,,,,,,,,,,,,,,,,,,,,,,,,,,,,
,5f83653605d2664cf6a4f5f4,001,2022-04-29_02h13.17.557,classification_task,2021.2.3,Win32,60.0240096,5f83653605d2664cf6a4f5f4,626b377229c10585ec392f8a,626b3b7b63d90d55e8259da0,,,,,,,,,,,,,,,,,,,,,,,l,1,0.82,"[""0.373"",""0.333"",""0.567"",""0.788""]","[0,1,1,1]",0,56,56,56,1,1,0,,,0,FALSE,,,,,,,,,,,,,,,,,,,,,,,,,,,,,,
,5f83653605d2664cf6a4f5f4,001,2022-04-29_02h13.17.557,classification_task,2021.2.3,Win32,60.0240096,5f83653605d2664cf6a4f5f4,626b377229c10585ec392f8a,626b3b7b63d90d55e8259da0,,,,,,,,,,,,,,,,,,,,,,,l,1,1.072,"[""0.028"",""0.616"",""0.482"",""0.832""]","[1,0,1,1]",0,57,57,57,1,1,1,,,0,FALSE,,,,,,,,,,,,,,,,,,,,,,,,,,,,,,
,5f83653605d2664cf6a4f5f4,001,2022-04-29_02h13.17.557,classification_task,2021.2.3,Win32,60.0240096,5f83653605d2664cf6a4f5f4,626b377229c10585ec392f8a,626b3b7b63d90d55e8259da0,,,,,,,,,,,,,,,,,,,,,,,a,0,3.255,"[""0.071"",""0.110"",""0.482"",""0.832""]","[0,1,1,1]",0,58,58,58,1,1,1,,,0,FALSE,,,,,,,,,,,,,,,,,,,,,,,,,,,,,,
,5f83653605d2664cf6a4f5f4,001,2022-04-29_02h13.17.557,classification_task,2021.2.3,Win32,60.0240096,5f83653605d2664cf6a4f5f4,626b377229c10585ec392f8a,626b3b7b63d90d55e8259da0,,,,,,,,,,,,,,,,,,,,,,,l,0,1.207,"[""0.071"",""0.520"",""0.742"",""0.959""]","[0,1,1,1]",0,59,59,59,1,0,1,,,0,FALSE,,,,,,,,,,,,,,,,,,,,,,,,,,,,,,
,5f83653605d2664cf6a4f5f4,001,2022-04-29_02h13.17.557,classification_task,2021.2.3,Win32,60.0240096,5f83653605d2664cf6a4f5f4,626b377229c10585ec392f8a,626b3b7b63d90d55e8259da0,,,,,,,,,,,,,,,,,,,,,,,l,1,2.987,"[""0.028"",""0.110"",""0.482"",""0.874""]","[1,1,1,0]",0,60,60,60,1,1,1,,,0,FALSE,,,,,,,,,,,,,,,,,,,,,,,,,,,,,,
,5f83653605d2664cf6a4f5f4,001,2022-04-29_02h13.17.557,classification_task,2021.2.3,Win32,60.0240096,5f83653605d2664cf6a4f5f4,626b377229c10585ec392f8a,626b3b7b63d90d55e8259da0,,,,,,,,,,,,,,,,,,,,,,,a,1,1.056,"[""0.226"",""0.414"",""0.277"",""0.918""]","[1,1,0,1]",0,61,61,61,1,0,0,,,0,FALSE,,,,,,,,,,,,,,,,,,,,,,,,,,,,,,
,5f83653605d2664cf6a4f5f4,001,2022-04-29_02h13.17.557,classification_task,2021.2.3,Win32,60.0240096,5f83653605d2664cf6a4f5f4,626b377229c10585ec392f8a,626b3b7b63d90d55e8259da0,,,,,,,,,,,,,,,,,,,,,,,a,1,1.04,"[""0.178"",""0.520"",""0.376"",""0.959""]","[1,1,0,1]",0,62,62,62,1,0,1,,,0,FALSE,,,,,,,,,,,,,,,,,,,,,,,,,,,,,,
,5f83653605d2664cf6a4f5f4,001,2022-04-29_02h13.17.557,classification_task,2021.2.3,Win32,60.0240096,5f83653605d2664cf6a4f5f4,626b377229c10585ec392f8a,626b3b7b63d90d55e8259da0,,,,,,,,,,,,,,,,,,,,,,,a,0,1.374,"[""0.145"",""0.333"",""0.567"",""0.874""]","[1,1,1,0]",0,63,63,63,1,1,0,,,0,FALSE,,,,,,,,,,,,,,,,,,,,,,,,,,,,,,
,5f83653605d2664cf6a4f5f4,001,2022-04-29_02h13.17.557,classification_task,2021.2.3,Win32,60.0240096,5f83653605d2664cf6a4f5f4,626b377229c10585ec392f8a,626b3b7b63d90d55e8259da0,,,,,,,,,,,,,,,,,,,,,,,,,,,,,,,,,,,,,,,0, ,,0,7.67430283,179.968,0,2,2,2,1,2,3,,,,,,,,,,,,,,,,,
,5f83653605d2664cf6a4f5f4,001,2022-04-29_02h13.17.557,classification_task,2021.2.3,Win32,60.0240096,5f83653605d2664cf6a4f5f4,626b377229c10585ec392f8a,626b3b7b63d90d55e8259da0,,,,,,,,,,,,,,,,,,,,,,,,,,,,,,,,,,,,,,,1,  ,,0,6.110864252,182.097,0,2,2,2,1,2,3,,,,,,,,,,,,,,,,,
,5f83653605d2664cf6a4f5f4,001,2022-04-29_02h13.17.557,classification_task,2021.2.3,Win32,60.0240096,5f83653605d2664cf6a4f5f4,626b377229c10585ec392f8a,626b3b7b63d90d55e8259da0,,,,,,,,,,,,,,,,,,,,,,,,,,,,,,,,,,,,,,,2,  ,,0,0,183.977,0,2,2,2,1,2,3,,,,,,,,,,,,,,,,,
,5f83653605d2664cf6a4f5f4,001,2022-04-29_02h13.17.557,classification_task,2021.2.3,Win32,60.0240096,5f83653605d2664cf6a4f5f4,626b377229c10585ec392f8a,626b3b7b63d90d55e8259da0,,,,,,,,,,,,,,,,,,,,,,,,,,,,,,,,,,,,,,,,,,,,,0,2,2,2,1,,3,,,,,,,,,,,,,,,,,
,5f83653605d2664cf6a4f5f4,001,2022-04-29_02h13.17.557,classification_task,2021.2.3,Win32,60.0240096,5f83653605d2664cf6a4f5f4,626b377229c10585ec392f8a,626b3b7b63d90d55e8259da0,,,,,,,,,,,,,,,,,,,,,,,,,,,,,,,,,,,,,,,,,,,,,,,,,,,,,I believe the aid is a competent performer,,0.7,0,4,1043.803,0,0,0,0,1,0,,,,
,5f83653605d2664cf6a4f5f4,001,2022-04-29_02h13.17.557,classification_task,2021.2.3,Win32,60.0240096,5f83653605d2664cf6a4f5f4,626b377229c10585ec392f8a,626b3b7b63d90d55e8259da0,,,,,,,,,,,,,,,,,,,,,,,,,,,,,,,,,,,,,,,,,,,,,,,,,,,,,I trust the aid,,0.7,0,5,1023.047,0,0,0,0,1,0,,,,
,5f83653605d2664cf6a4f5f4,001,2022-04-29_02h13.17.557,classification_task,2021.2.3,Win32,60.0240096,5f83653605d2664cf6a4f5f4,626b377229c10585ec392f8a,626b3b7b63d90d55e8259da0,,,,,,,,,,,,,,,,,,,,,,,,,,,,,,,,,,,,,,,,,,,,,,,,,,,,,I have confidence in the advice given by the aid,,0.7,0,4,1026.599,0,0,0,0,1,0,,,,
,5f83653605d2664cf6a4f5f4,001,2022-04-29_02h13.17.557,classification_task,2021.2.3,Win32,60.0240096,5f83653605d2664cf6a4f5f4,626b377229c10585ec392f8a,626b3b7b63d90d55e8259da0,,,,,,,,,,,,,,,,,,,,,,,,,,,,,,,,,,,,,,,,,,,,,,,,,,,,,I can depend on the aid,,0.7,0,4,1028.813,0,0,0,0,1,0,,,,
,5f83653605d2664cf6a4f5f4,001,2022-04-29_02h13.17.557,classification_task,2021.2.3,Win32,60.0240096,5f83653605d2664cf6a4f5f4,626b377229c10585ec392f8a,626b3b7b63d90d55e8259da0,,,,,,,,,,,,,,,,,,,,,,,,,,,,,,,,,,,,,,,,,,,,,,,,,,,,,I can rely on the aid to behave in consistent ways,,0.7,0,4,1032.517,0,0,0,0,1,0,,,,
,5f83653605d2664cf6a4f5f4,001,2022-04-29_02h13.17.557,classification_task,2021.2.3,Win32,60.0240096,5f83653605d2664cf6a4f5f4,626b377229c10585ec392f8a,626b3b7b63d90d55e8259da0,,,,,,,,,,,,,,,,,,,,,,,,,,,,,,,,,,,,,,,,,,,,,,,,,,,,,I can rely on the aid to do its best every time I take its advice,,0.7,0,4,1033.77,0,0,0,0,1,0,,,,
,5f83653605d2664cf6a4f5f4,001,2022-04-29_02h13.17.557,classification_task,2021.2.3,Win32,60.0240096,5f83653605d2664cf6a4f5f4,626b377229c10585ec392f8a,626b3b7b63d90d55e8259da0,,,,,,,,,,,,,,,,,,,,,,,,,,,,,,,,,,,,,,,,,,,,,,,,,,,,,"On trials you completed with assistance from the aid, how frequently did you think the aid was correct?",,0.7,0,90%,,0,0,0,0,1,0,,,,
,5f83653605d2664cf6a4f5f4,001,2022-04-29_02h13.17.557,classification_task,2021.2.3,Win32,60.0240096,5f83653605d2664cf6a4f5f4,626b377229c10585ec392f8a,626b3b7b63d90d55e8259da0,,,,,,,,,,,,,,,,,,,,,,,,,,,,,,,,,,,,,,,,,,,,,,,,,,,,,"On trials you completed without the aid, how frequently did you think you were correct?",,0.7,0,50%,,0,0,0,0,1,0,,,,
,5f83653605d2664cf6a4f5f4,001,2022-04-29_02h13.17.557,classification_task,2021.2.3,Win32,60.0240096,5f83653605d2664cf6a4f5f4,626b377229c10585ec392f8a,626b3b7b63d90d55e8259da0,,,,,,,,,,,,,,,,,,,,,,,,,,,,,,,,,,,,,,,,,,,,,,,,,,,,,,,,,,,0,0,0,0,1,,,,,
,5f83653605d2664cf6a4f5f4,001,2022-04-29_02h13.17.557,classification_task,2021.2.3,Win32,60.0240096,5f83653605d2664cf6a4f5f4,626b377229c10585ec392f8a,626b3b7b63d90d55e8259da0,,,,,,,,,,,,,,,,,,,,,,,,,,,,,,,,,,,,,,,,,,,,,,,,,,,,,,,,,,,,,,,,,space,9.064,1068.96,
,5f83653605d2664cf6a4f5f4,001,2022-04-29_02h13.17.557,classification_task,2021.2.3,Win32,60.0240096,5f83653605d2664cf6a4f5f4,626b377229c10585ec392f8a,626b3b7b63d90d55e8259da0,,,,,,,,,,,,,,,,,,,,,,,,,,,,,,,,,,,,,,,,,,,,,,,,,,,,,,,,,,,,,,,,,,,,Mozilla/5.0 (Windows NT 10.0; Win64; x64; rv:99.0) Gecko/20100101 Firefox/99.0
