usingWebGL,participant,session,date,expName,psychopyVersion,OS,frameRate,study_id,signatures_friend,signatures_foe,band_ranges_top,band_ranges_bottom,formitemText,formtype,formundefined,formitemWidth,formindex,formresponse,formrt,key_resp_2.keys,key_resp_2.rt,tute_resp.keys,tute_resp.rt,tutorial.thisRepN,tutorial.thisTrialN,tutorial.thisN,tutorial.thisIndex,tutorial.ran,key_resp_4.keys,key_resp_4.rt,key_resp.keys,key_resp.corr,key_resp.rt,lines_presented,is_signal_presented,trials.thisRepN,trials.thisTrialN,trials.thisN,trials.thisIndex,trials.ran,vessel,active_band,lines,is_signal,supported_pos,catch_trial,debrief_formindex,debrief_formitemText,debrief_formtype,debrief_formitemWidth,debrief_formresponse,debrief_formrt,phases.thisRepN,phases.thisTrialN,phases.thisN,phases.thisIndex,phases.ran,phases.order,phase,key_resp_3.keys,trustitemText,trusttype,trustitemWidth,trustindex,trustresponse,trustrt,support_status.thisRepN,support_status.thisTrialN,support_status.thisN,support_status.thisIndex,support_status.ran,support_status.order,key_resp_5.keys,key_resp_5.rt,globalClockTime,userAgent,manualCondition
TRUE,5f95155d7ae37e0009ed42ac,627c6fc1b368a87425bdae67,2022-05-11_21h24.54.205,classification_task,2021.2.3,Win32,39.43062182,627c6715c52fd12f31907bcf,,,,,,,,,,,,,,,,,,,,,,,,,,,,,,,,,,,,,,,,,,,,,,,,,,,,,,,,,,,,,,,,,,,,,
,5f95155d7ae37e0009ed42ac,627c6fc1b368a87425bdae67,2022-05-11_21h24.54.205,classification_task,2021.2.3,Win32,39.43062182,627c6715c52fd12f31907bcf,"[[""0.178"",""0.422"",""0.877"",""0.918""],[""0.238"",""0.499"",""0.688"",""0.955""]]","[[""0.121"",""0.385"",""0.609"",""0.729""],[""0.056"",""0.299"",""0.550"",""0.804""]]","[1,10]","[100,1000]",Video game experience,,,0.7,0,,,,,,,,,,,,,,,,,,,,,,,,,,,,,,,,,,,,,,,,,,,,,,,,,,,,,,,,,,,,
,5f95155d7ae37e0009ed42ac,627c6fc1b368a87425bdae67,2022-05-11_21h24.54.205,classification_task,2021.2.3,Win32,39.43062182,627c6715c52fd12f31907bcf,,,,,Approximately how many hours did you spend playing video games in the last week?,,,0.7,0,10,,,,,,,,,,,,,,,,,,,,,,,,,,,,,,,,,,,,,,,,,,,,,,,,,,,,,,,,,,,
,5f95155d7ae37e0009ed42ac,627c6fc1b368a87425bdae67,2022-05-11_21h24.54.205,classification_task,2021.2.3,Win32,39.43062182,627c6715c52fd12f31907bcf,,,,,"Which game did you play the most this year? (Enter ""None"" if you didn't play any)",,,0.7,0,Tetris,,,,,,,,,,,,,,,,,,,,,,,,,,,,,,,,,,,,,,,,,,,,,,,,,,,,,,,,,,,
,5f95155d7ae37e0009ed42ac,627c6fc1b368a87425bdae67,2022-05-11_21h24.54.205,classification_task,2021.2.3,Win32,39.43062182,627c6715c52fd12f31907bcf,,,,,Visual perception,,,0.7,0,,,,,,,,,,,,,,,,,,,,,,,,,,,,,,,,,,,,,,,,,,,,,,,,,,,,,,,,,,,,
,5f95155d7ae37e0009ed42ac,627c6fc1b368a87425bdae67,2022-05-11_21h24.54.205,classification_task,2021.2.3,Win32,39.43062182,627c6715c52fd12f31907bcf,,,,,Do you have any form of color blindness?,,,0.7,0,No,23.2534,,,,,,,,,,,,,,,,,,,,,,,,,,,,,,,,,,,,,,,,,,,,,,,,,,,,,,,,,,
,5f95155d7ae37e0009ed42ac,627c6fc1b368a87425bdae67,2022-05-11_21h24.54.205,classification_task,2021.2.3,Win32,39.43062182,627c6715c52fd12f31907bcf,,,,,Do you use software to change the colour temperature of your screen (e.g. f.lux)?,,,0.7,0,No,29.5451,,,,,,,,,,,,,,,,,,,,,,,,,,,,,,,,,,,,,,,,,,,,,,,,,,,,,,,,,,
,5f95155d7ae37e0009ed42ac,627c6fc1b368a87425bdae67,2022-05-11_21h24.54.205,classification_task,2021.2.3,Win32,39.43062182,627c6715c52fd12f31907bcf,,,,,,,,,,,,space,20.0417,space,9.2547,0,0,0,0,1,,,,,,,,,,,,,,,,,,,,,,,,,,,,,,,,,,,,,,,,,,,,,,,,,
,5f95155d7ae37e0009ed42ac,627c6fc1b368a87425bdae67,2022-05-11_21h24.54.205,classification_task,2021.2.3,Win32,39.43062182,627c6715c52fd12f31907bcf,,,,,,,,,,,,,,space,8.9182,1,0,1,0,1,,,,,,,,,,,,,,,,,,,,,,,,,,,,,,,,,,,,,,,,,,,,,,,,,
,5f95155d7ae37e0009ed42ac,627c6fc1b368a87425bdae67,2022-05-11_21h24.54.205,classification_task,2021.2.3,Win32,39.43062182,627c6715c52fd12f31907bcf,,,,,,,,,,,,,,space,40.4174,2,0,2,0,1,,,,,,,,,,,,,,,,,,,,,,,,,,,,,,,,,,,,,,,,,,,,,,,,,
,5f95155d7ae37e0009ed42ac,627c6fc1b368a87425bdae67,2022-05-11_21h24.54.205,classification_task,2021.2.3,Win32,39.43062182,627c6715c52fd12f31907bcf,,,,,,,,,,,,,,space,7.3573,3,0,3,0,1,,,,,,,,,,,,,,,,,,,,,,,,,,,,,,,,,,,,,,,,,,,,,,,,,
,5f95155d7ae37e0009ed42ac,627c6fc1b368a87425bdae67,2022-05-11_21h24.54.205,classification_task,2021.2.3,Win32,39.43062182,627c6715c52fd12f31907bcf,,,,,,,,,,,,,,space,10.3238,4,0,4,0,1,,,,,,,,,,,,,,,,,,,,,,,,,,,,,,,,,,,,,,,,,,,,,,,,,
,5f95155d7ae37e0009ed42ac,627c6fc1b368a87425bdae67,2022-05-11_21h24.54.205,classification_task,2021.2.3,Win32,39.43062182,627c6715c52fd12f31907bcf,,,,,,,,,,,,,,,,,,,,,space,12.2603,l,1,5.5397,"[""0.121"",""0.385"",""0.609"",""0.340""]","[1,1,1,0]",0,0,0,0,1,1,0,,,1,FALSE,,,,,,,,,,,,,,,,,,,,,,,,,,,,,,,
,5f95155d7ae37e0009ed42ac,627c6fc1b368a87425bdae67,2022-05-11_21h24.54.205,classification_task,2021.2.3,Win32,39.43062182,627c6715c52fd12f31907bcf,,,,,,,,,,,,,,,,,,,,,,,l,0,6.7043,"[""0.178"",""0.841"",""0.877"",""0.918""]","[1,0,1,1]",0,1,1,1,1,0,0,,,1,FALSE,,,,,,,,,,,,,,,,,,,,,,,,,,,,,,,
,5f95155d7ae37e0009ed42ac,627c6fc1b368a87425bdae67,2022-05-11_21h24.54.205,classification_task,2021.2.3,Win32,39.43062182,627c6715c52fd12f31907bcf,,,,,,,,,,,,,,,,,,,,,,,l,1,7.6272,"[""0.121"",""0.842"",""0.609"",""0.729""]","[1,0,1,1]",0,2,2,2,1,1,0,,,1,FALSE,,,,,,,,,,,,,,,,,,,,,,,,,,,,,,,
,5f95155d7ae37e0009ed42ac,627c6fc1b368a87425bdae67,2022-05-11_21h24.54.205,classification_task,2021.2.3,Win32,39.43062182,627c6715c52fd12f31907bcf,,,,,,,,,,,,,,,,,,,,,,,a,1,5.7158,"[""0.238"",""0.350"",""0.688"",""0.955""]","[1,0,1,1]",0,3,3,3,1,0,1,,,1,FALSE,,,,,,,,,,,,,,,,,,,,,,,,,,,,,,,
,5f95155d7ae37e0009ed42ac,627c6fc1b368a87425bdae67,2022-05-11_21h24.54.205,classification_task,2021.2.3,Win32,39.43062182,627c6715c52fd12f31907bcf,,,,,,,,,,,,,,,,,,,,,,,a,1,6.5026,"[""0.178"",""0.422"",""0.343"",""0.918""]","[1,1,0,1]",0,4,4,4,1,0,0,,,1,FALSE,,,,,,,,,,,,,,,,,,,,,,,,,,,,,,,
,5f95155d7ae37e0009ed42ac,627c6fc1b368a87425bdae67,2022-05-11_21h24.54.205,classification_task,2021.2.3,Win32,39.43062182,627c6715c52fd12f31907bcf,,,,,,,,,,,,,,,,,,,,,,,a,1,9.0695,"[""0.238"",""0.499"",""0.688"",""0.351""]","[1,1,1,0]",0,5,5,5,1,0,1,,,1,FALSE,,,,,,,,,,,,,,,,,,,,,,,,,,,,,,,
,5f95155d7ae37e0009ed42ac,627c6fc1b368a87425bdae67,2022-05-11_21h24.54.205,classification_task,2021.2.3,Win32,39.43062182,627c6715c52fd12f31907bcf,,,,,,,,,,,,,,,,,,,,,,,l,1,6.0978,"[""0.056"",""0.299"",""0.550"",""0.769""]","[1,1,1,0]",0,6,6,6,1,1,1,,,1,FALSE,,,,,,,,,,,,,,,,,,,,,,,,,,,,,,,
,5f95155d7ae37e0009ed42ac,627c6fc1b368a87425bdae67,2022-05-11_21h24.54.205,classification_task,2021.2.3,Win32,39.43062182,627c6715c52fd12f31907bcf,,,,,,,,,,,,,,,,,,,,,,,a,0,5.309,"[""0.343"",""0.299"",""0.550"",""0.804""]","[0,1,1,1]",0,7,7,7,1,1,1,,,1,FALSE,,,,,,,,,,,,,,,,,,,,,,,,,,,,,,,
,5f95155d7ae37e0009ed42ac,627c6fc1b368a87425bdae67,2022-05-11_21h24.54.205,classification_task,2021.2.3,Win32,39.43062182,627c6715c52fd12f31907bcf,,,,,,,,,,,,,,,,,,,,,,,l,0,7.1755,"[""0.178"",""0.422"",""0.877"",""0.457""]","[1,1,1,0]",0,8,8,8,1,0,0,,,1,FALSE,,,,,,,,,,,,,,,,,,,,,,,,,,,,,,,
,5f95155d7ae37e0009ed42ac,627c6fc1b368a87425bdae67,2022-05-11_21h24.54.205,classification_task,2021.2.3,Win32,39.43062182,627c6715c52fd12f31907bcf,,,,,,,,,,,,,,,,,,,,,,,l,1,4.5207,"[""0.056"",""0.769"",""0.550"",""0.804""]","[1,0,1,1]",0,9,9,9,1,1,1,,,1,FALSE,,,,,,,,,,,,,,,,,,,,,,,,,,,,,,,
,5f95155d7ae37e0009ed42ac,627c6fc1b368a87425bdae67,2022-05-11_21h24.54.205,classification_task,2021.2.3,Win32,39.43062182,627c6715c52fd12f31907bcf,,,,,,,,,,,,,,,,,,,,,,,l,1,7.3169,"[""0.121"",""0.385"",""0.764"",""0.729""]","[1,1,0,1]",0,10,10,10,1,1,0,,,1,FALSE,,,,,,,,,,,,,,,,,,,,,,,,,,,,,,,
,5f95155d7ae37e0009ed42ac,627c6fc1b368a87425bdae67,2022-05-11_21h24.54.205,classification_task,2021.2.3,Win32,39.43062182,627c6715c52fd12f31907bcf,,,,,,,,,,,,,,,,,,,,,,,a,1,3.9832,"[""0.238"",""0.499"",""0.842"",""0.955""]","[1,1,0,1]",0,11,11,11,1,0,1,,,1,FALSE,,,,,,,,,,,,,,,,,,,,,,,,,,,,,,,
,5f95155d7ae37e0009ed42ac,627c6fc1b368a87425bdae67,2022-05-11_21h24.54.205,classification_task,2021.2.3,Win32,39.43062182,627c6715c52fd12f31907bcf,,,,,,,,,,,,,,,,,,,,,,,a,1,4.5646,"[""0.343"",""0.499"",""0.688"",""0.955""]","[0,1,1,1]",0,12,12,12,1,0,1,,,1,FALSE,,,,,,,,,,,,,,,,,,,,,,,,,,,,,,,
,5f95155d7ae37e0009ed42ac,627c6fc1b368a87425bdae67,2022-05-11_21h24.54.205,classification_task,2021.2.3,Win32,39.43062182,627c6715c52fd12f31907bcf,,,,,,,,,,,,,,,,,,,,,,,l,1,2.6482,"[""0.056"",""0.299"",""0.654"",""0.804""]","[1,1,0,1]",0,13,13,13,1,1,1,,,1,FALSE,,,,,,,,,,,,,,,,,,,,,,,,,,,,,,,
,5f95155d7ae37e0009ed42ac,627c6fc1b368a87425bdae67,2022-05-11_21h24.54.205,classification_task,2021.2.3,Win32,39.43062182,627c6715c52fd12f31907bcf,,,,,,,,,,,,,,,,,,,,,,,a,1,7.8999,"[""0.763"",""0.422"",""0.877"",""0.918""]","[0,1,1,1]",0,14,14,14,1,0,0,,,1,FALSE,,,,,,,,,,,,,,,,,,,,,,,,,,,,,,,
,5f95155d7ae37e0009ed42ac,627c6fc1b368a87425bdae67,2022-05-11_21h24.54.205,classification_task,2021.2.3,Win32,39.43062182,627c6715c52fd12f31907bcf,,,,,,,,,,,,,,,,,,,,,,,l,1,7.6277,"[""0.343"",""0.385"",""0.609"",""0.729""]","[0,1,1,1]",0,15,15,15,1,1,0,,,1,FALSE,,,,,,,,,,,,,,,,,,,,,,,,,,,,,,,
,5f95155d7ae37e0009ed42ac,627c6fc1b368a87425bdae67,2022-05-11_21h24.54.205,classification_task,2021.2.3,Win32,39.43062182,627c6715c52fd12f31907bcf,,,,,,,,,,,,,,,,,,,,,,,a,1,4.9889,"[""0.238"",""0.499"",""0.688"",""0.457""]","[1,1,1,0]",0,16,16,16,1,0,1,,,1,FALSE,,,,,,,,,,,,,,,,,,,,,,,,,,,,,,,
,5f95155d7ae37e0009ed42ac,627c6fc1b368a87425bdae67,2022-05-11_21h24.54.205,classification_task,2021.2.3,Win32,39.43062182,627c6715c52fd12f31907bcf,,,,,,,,,,,,,,,,,,,,,,,l,0,8.0805,"[""0.178"",""0.769"",""0.877"",""0.918""]","[1,0,1,1]",0,17,17,17,1,0,0,,,1,FALSE,,,,,,,,,,,,,,,,,,,,,,,,,,,,,,,
,5f95155d7ae37e0009ed42ac,627c6fc1b368a87425bdae67,2022-05-11_21h24.54.205,classification_task,2021.2.3,Win32,39.43062182,627c6715c52fd12f31907bcf,,,,,,,,,,,,,,,,,,,,,,,l,1,4.6273,"[""0.763"",""0.299"",""0.550"",""0.804""]","[0,1,1,1]",0,18,18,18,1,1,1,,,1,FALSE,,,,,,,,,,,,,,,,,,,,,,,,,,,,,,,
,5f95155d7ae37e0009ed42ac,627c6fc1b368a87425bdae67,2022-05-11_21h24.54.205,classification_task,2021.2.3,Win32,39.43062182,627c6715c52fd12f31907bcf,,,,,,,,,,,,,,,,,,,,,,,a,1,4.4374,"[""0.238"",""0.769"",""0.688"",""0.955""]","[1,0,1,1]",0,19,19,19,1,0,1,,,1,FALSE,,,,,,,,,,,,,,,,,,,,,,,,,,,,,,,
,5f95155d7ae37e0009ed42ac,627c6fc1b368a87425bdae67,2022-05-11_21h24.54.205,classification_task,2021.2.3,Win32,39.43062182,627c6715c52fd12f31907bcf,,,,,,,,,,,,,,,,,,,,,,,a,1,4.7504,"[""0.238"",""0.499"",""0.340"",""0.955""]","[1,1,0,1]",0,20,20,20,1,0,1,,,1,FALSE,,,,,,,,,,,,,,,,,,,,,,,,,,,,,,,
,5f95155d7ae37e0009ed42ac,627c6fc1b368a87425bdae67,2022-05-11_21h24.54.205,classification_task,2021.2.3,Win32,39.43062182,627c6715c52fd12f31907bcf,,,,,,,,,,,,,,,,,,,,,,,a,1,4.4356,"[""0.178"",""0.422"",""0.877"",""0.769""]","[1,1,1,0]",0,21,21,21,1,0,0,,,1,FALSE,,,,,,,,,,,,,,,,,,,,,,,,,,,,,,,
,5f95155d7ae37e0009ed42ac,627c6fc1b368a87425bdae67,2022-05-11_21h24.54.205,classification_task,2021.2.3,Win32,39.43062182,627c6715c52fd12f31907bcf,,,,,,,,,,,,,,,,,,,,,,,l,1,2.5494,"[""0.056"",""0.299"",""0.647"",""0.804""]","[1,1,0,1]",0,22,22,22,1,1,1,,,1,FALSE,,,,,,,,,,,,,,,,,,,,,,,,,,,,,,,
,5f95155d7ae37e0009ed42ac,627c6fc1b368a87425bdae67,2022-05-11_21h24.54.205,classification_task,2021.2.3,Win32,39.43062182,627c6715c52fd12f31907bcf,,,,,,,,,,,,,,,,,,,,,,,l,1,5.6831,"[""0.351"",""0.385"",""0.609"",""0.729""]","[0,1,1,1]",0,23,23,23,1,1,0,,,1,FALSE,,,,,,,,,,,,,,,,,,,,,,,,,,,,,,,
,5f95155d7ae37e0009ed42ac,627c6fc1b368a87425bdae67,2022-05-11_21h24.54.205,classification_task,2021.2.3,Win32,39.43062182,627c6715c52fd12f31907bcf,,,,,,,,,,,,,,,,,,,,,,,a,0,3.4322,"[""0.056"",""0.299"",""0.550"",""0.842""]","[1,1,1,0]",0,24,24,24,1,1,1,,,1,FALSE,,,,,,,,,,,,,,,,,,,,,,,,,,,,,,,
,5f95155d7ae37e0009ed42ac,627c6fc1b368a87425bdae67,2022-05-11_21h24.54.205,classification_task,2021.2.3,Win32,39.43062182,627c6715c52fd12f31907bcf,,,,,,,,,,,,,,,,,,,,,,,l,1,5.3163,"[""0.121"",""0.343"",""0.609"",""0.729""]","[1,0,1,1]",0,25,25,25,1,1,0,,,1,FALSE,,,,,,,,,,,,,,,,,,,,,,,,,,,,,,,
,5f95155d7ae37e0009ed42ac,627c6fc1b368a87425bdae67,2022-05-11_21h24.54.205,classification_task,2021.2.3,Win32,39.43062182,627c6715c52fd12f31907bcf,,,,,,,,,,,,,,,,,,,,,,,a,1,6.3374,"[""0.654"",""0.422"",""0.877"",""0.918""]","[0,1,1,1]",0,26,26,26,1,0,0,,,1,FALSE,,,,,,,,,,,,,,,,,,,,,,,,,,,,,,,
,5f95155d7ae37e0009ed42ac,627c6fc1b368a87425bdae67,2022-05-11_21h24.54.205,classification_task,2021.2.3,Win32,39.43062182,627c6715c52fd12f31907bcf,,,,,,,,,,,,,,,,,,,,,,,l,1,3.4663,"[""0.121"",""0.385"",""0.609"",""0.457""]","[1,1,1,0]",0,27,27,27,1,1,0,,,1,FALSE,,,,,,,,,,,,,,,,,,,,,,,,,,,,,,,
,5f95155d7ae37e0009ed42ac,627c6fc1b368a87425bdae67,2022-05-11_21h24.54.205,classification_task,2021.2.3,Win32,39.43062182,627c6715c52fd12f31907bcf,,,,,,,,,,,,,,,,,,,,,,,a,1,5.5226,"[""0.343"",""0.499"",""0.688"",""0.955""]","[0,1,1,1]",0,28,28,28,1,0,1,,,1,FALSE,,,,,,,,,,,,,,,,,,,,,,,,,,,,,,,
,5f95155d7ae37e0009ed42ac,627c6fc1b368a87425bdae67,2022-05-11_21h24.54.205,classification_task,2021.2.3,Win32,39.43062182,627c6715c52fd12f31907bcf,,,,,,,,,,,,,,,,,,,,,,,l,1,4.1827,"[""0.121"",""0.385"",""0.841"",""0.729""]","[1,1,0,1]",0,29,29,29,1,1,0,,,1,FALSE,,,,,,,,,,,,,,,,,,,,,,,,,,,,,,,
,5f95155d7ae37e0009ed42ac,627c6fc1b368a87425bdae67,2022-05-11_21h24.54.205,classification_task,2021.2.3,Win32,39.43062182,627c6715c52fd12f31907bcf,,,,,,,,,,,,,,,,,,,,,,,a,1,5.621,"[""0.178"",""0.422"",""0.350"",""0.918""]","[1,1,0,1]",0,30,30,30,1,0,0,,,1,FALSE,,,,,,,,,,,,,,,,,,,,,,,,,,,,,,,
,5f95155d7ae37e0009ed42ac,627c6fc1b368a87425bdae67,2022-05-11_21h24.54.205,classification_task,2021.2.3,Win32,39.43062182,627c6715c52fd12f31907bcf,,,,,,,,,,,,,,,,,,,,,,,l,1,4.064,"[""0.056"",""0.343"",""0.550"",""0.804""]","[1,0,1,1]",0,31,31,31,1,1,1,,,1,FALSE,,,,,,,,,,,,,,,,,,,,,,,,,,,,,,,
,5f95155d7ae37e0009ed42ac,627c6fc1b368a87425bdae67,2022-05-11_21h24.54.205,classification_task,2021.2.3,Win32,39.43062182,627c6715c52fd12f31907bcf,,,,,,,,,,,,,,,,,,,,,,,l,0,3.8351,"[""0.178"",""0.422"",""0.343"",""0.918""]","[1,1,0,1]",0,32,32,32,1,0,0,,,1,FALSE,,,,,,,,,,,,,,,,,,,,,,,,,,,,,,,
,5f95155d7ae37e0009ed42ac,627c6fc1b368a87425bdae67,2022-05-11_21h24.54.205,classification_task,2021.2.3,Win32,39.43062182,627c6715c52fd12f31907bcf,,,,,,,,,,,,,,,,,,,,,,,l,0,3.262,"[""0.178"",""0.422"",""0.877"",""0.842""]","[1,1,1,0]",0,33,33,33,1,0,0,,,1,FALSE,,,,,,,,,,,,,,,,,,,,,,,,,,,,,,,
,5f95155d7ae37e0009ed42ac,627c6fc1b368a87425bdae67,2022-05-11_21h24.54.205,classification_task,2021.2.3,Win32,39.43062182,627c6715c52fd12f31907bcf,,,,,,,,,,,,,,,,,,,,,,,l,1,2.6539,"[""0.056"",""0.351"",""0.550"",""0.804""]","[1,0,1,1]",0,34,34,34,1,1,1,,,1,FALSE,,,,,,,,,,,,,,,,,,,,,,,,,,,,,,,
,5f95155d7ae37e0009ed42ac,627c6fc1b368a87425bdae67,2022-05-11_21h24.54.205,classification_task,2021.2.3,Win32,39.43062182,627c6715c52fd12f31907bcf,,,,,,,,,,,,,,,,,,,,,,,a,1,2.6826,"[""0.238"",""0.499"",""0.688"",""0.338""]","[1,1,1,0]",0,35,35,35,1,0,1,,,1,FALSE,,,,,,,,,,,,,,,,,,,,,,,,,,,,,,,
,5f95155d7ae37e0009ed42ac,627c6fc1b368a87425bdae67,2022-05-11_21h24.54.205,classification_task,2021.2.3,Win32,39.43062182,627c6715c52fd12f31907bcf,,,,,,,,,,,,,,,,,,,,,,,l,1,1.9337,"[""0.457"",""0.385"",""0.609"",""0.729""]","[0,1,1,1]",0,36,36,36,1,1,0,,,1,FALSE,,,,,,,,,,,,,,,,,,,,,,,,,,,,,,,
,5f95155d7ae37e0009ed42ac,627c6fc1b368a87425bdae67,2022-05-11_21h24.54.205,classification_task,2021.2.3,Win32,39.43062182,627c6715c52fd12f31907bcf,,,,,,,,,,,,,,,,,,,,,,,a,0,2.4034,"[""0.340"",""0.299"",""0.550"",""0.804""]","[0,1,1,1]",0,37,37,37,1,1,1,,,1,FALSE,,,,,,,,,,,,,,,,,,,,,,,,,,,,,,,
,5f95155d7ae37e0009ed42ac,627c6fc1b368a87425bdae67,2022-05-11_21h24.54.205,classification_task,2021.2.3,Win32,39.43062182,627c6715c52fd12f31907bcf,,,,,,,,,,,,,,,,,,,,,,,a,1,2.9215,"[""0.178"",""0.842"",""0.877"",""0.918""]","[1,0,1,1]",0,38,38,38,1,0,0,,,1,FALSE,,,,,,,,,,,,,,,,,,,,,,,,,,,,,,,
,5f95155d7ae37e0009ed42ac,627c6fc1b368a87425bdae67,2022-05-11_21h24.54.205,classification_task,2021.2.3,Win32,39.43062182,627c6715c52fd12f31907bcf,,,,,,,,,,,,,,,,,,,,,,,l,0,2.6674,"[""0.647"",""0.499"",""0.688"",""0.955""]","[0,1,1,1]",0,39,39,39,1,0,1,,,1,FALSE,,,,,,,,,,,,,,,,,,,,,,,,,,,,,,,
,5f95155d7ae37e0009ed42ac,627c6fc1b368a87425bdae67,2022-05-11_21h24.54.205,classification_task,2021.2.3,Win32,39.43062182,627c6715c52fd12f31907bcf,,,,,,,,,,,,,,,,,,,,,,,l,1,1.8533,"[""0.121"",""0.385"",""0.609"",""0.841""]","[1,1,1,0]",0,40,40,40,1,1,0,,,1,FALSE,,,,,,,,,,,,,,,,,,,,,,,,,,,,,,,
,5f95155d7ae37e0009ed42ac,627c6fc1b368a87425bdae67,2022-05-11_21h24.54.205,classification_task,2021.2.3,Win32,39.43062182,627c6715c52fd12f31907bcf,,,,,,,,,,,,,,,,,,,,,,,l,1,1.5716,"[""0.121"",""0.351"",""0.609"",""0.729""]","[1,0,1,1]",0,41,41,41,1,1,0,,,1,FALSE,,,,,,,,,,,,,,,,,,,,,,,,,,,,,,,
,5f95155d7ae37e0009ed42ac,627c6fc1b368a87425bdae67,2022-05-11_21h24.54.205,classification_task,2021.2.3,Win32,39.43062182,627c6715c52fd12f31907bcf,,,,,,,,,,,,,,,,,,,,,,,a,1,1.7408,"[""0.340"",""0.422"",""0.877"",""0.918""]","[0,1,1,1]",0,42,42,42,1,0,0,,,1,FALSE,,,,,,,,,,,,,,,,,,,,,,,,,,,,,,,
,5f95155d7ae37e0009ed42ac,627c6fc1b368a87425bdae67,2022-05-11_21h24.54.205,classification_task,2021.2.3,Win32,39.43062182,627c6715c52fd12f31907bcf,,,,,,,,,,,,,,,,,,,,,,,l,1,1.7686,"[""0.121"",""0.385"",""0.763"",""0.729""]","[1,1,0,1]",0,43,43,43,1,1,0,,,1,FALSE,,,,,,,,,,,,,,,,,,,,,,,,,,,,,,,
,5f95155d7ae37e0009ed42ac,627c6fc1b368a87425bdae67,2022-05-11_21h24.54.205,classification_task,2021.2.3,Win32,39.43062182,627c6715c52fd12f31907bcf,,,,,,,,,,,,,,,,,,,,,,,a,1,2.6113,"[""0.238"",""0.351"",""0.688"",""0.955""]","[1,0,1,1]",0,44,44,44,1,0,1,,,1,FALSE,,,,,,,,,,,,,,,,,,,,,,,,,,,,,,,
,5f95155d7ae37e0009ed42ac,627c6fc1b368a87425bdae67,2022-05-11_21h24.54.205,classification_task,2021.2.3,Win32,39.43062182,627c6715c52fd12f31907bcf,,,,,,,,,,,,,,,,,,,,,,,a,1,1.8339,"[""0.238"",""0.499"",""0.350"",""0.955""]","[1,1,0,1]",0,45,45,45,1,0,1,,,1,FALSE,,,,,,,,,,,,,,,,,,,,,,,,,,,,,,,
,5f95155d7ae37e0009ed42ac,627c6fc1b368a87425bdae67,2022-05-11_21h24.54.205,classification_task,2021.2.3,Win32,39.43062182,627c6715c52fd12f31907bcf,,,,,,,,,,,,,,,,,,,,,,,l,1,1.5813,"[""0.056"",""0.299"",""0.842"",""0.804""]","[1,1,0,1]",0,46,46,46,1,1,1,,,1,FALSE,,,,,,,,,,,,,,,,,,,,,,,,,,,,,,,
,5f95155d7ae37e0009ed42ac,627c6fc1b368a87425bdae67,2022-05-11_21h24.54.205,classification_task,2021.2.3,Win32,39.43062182,627c6715c52fd12f31907bcf,,,,,,,,,,,,,,,,,,,,,,,l,1,1.8075,"[""0.056"",""0.299"",""0.550"",""0.842""]","[1,1,1,0]",0,47,47,47,1,1,1,,,1,FALSE,,,,,,,,,,,,,,,,,,,,,,,,,,,,,,,
,5f95155d7ae37e0009ed42ac,627c6fc1b368a87425bdae67,2022-05-11_21h24.54.205,classification_task,2021.2.3,Win32,39.43062182,627c6715c52fd12f31907bcf,,,,,,,,,,,,,,,,,,,,,,,l,1,1.7822,"[""0.056"",""0.299"",""0.550"",""0.654""]","[1,1,1,0]",0,48,48,48,1,1,1,,,1,FALSE,,,,,,,,,,,,,,,,,,,,,,,,,,,,,,,
,5f95155d7ae37e0009ed42ac,627c6fc1b368a87425bdae67,2022-05-11_21h24.54.205,classification_task,2021.2.3,Win32,39.43062182,627c6715c52fd12f31907bcf,,,,,,,,,,,,,,,,,,,,,,,l,1,2.248,"[""0.121"",""0.385"",""0.350"",""0.729""]","[1,1,0,1]",0,49,49,49,1,1,0,,,1,FALSE,,,,,,,,,,,,,,,,,,,,,,,,,,,,,,,
,5f95155d7ae37e0009ed42ac,627c6fc1b368a87425bdae67,2022-05-11_21h24.54.205,classification_task,2021.2.3,Win32,39.43062182,627c6715c52fd12f31907bcf,,,,,,,,,,,,,,,,,,,,,,,a,1,1.7106,"[""0.238"",""0.499"",""0.688"",""0.351""]","[1,1,1,0]",0,50,50,50,1,0,1,,,1,FALSE,,,,,,,,,,,,,,,,,,,,,,,,,,,,,,,
,5f95155d7ae37e0009ed42ac,627c6fc1b368a87425bdae67,2022-05-11_21h24.54.205,classification_task,2021.2.3,Win32,39.43062182,627c6715c52fd12f31907bcf,,,,,,,,,,,,,,,,,,,,,,,a,1,2.2409,"[""0.178"",""0.422"",""0.877"",""0.764""]","[1,1,1,0]",0,51,51,51,1,0,0,,,1,FALSE,,,,,,,,,,,,,,,,,,,,,,,,,,,,,,,
,5f95155d7ae37e0009ed42ac,627c6fc1b368a87425bdae67,2022-05-11_21h24.54.205,classification_task,2021.2.3,Win32,39.43062182,627c6715c52fd12f31907bcf,,,,,,,,,,,,,,,,,,,,,,,l,1,1.3094,"[""0.121"",""0.841"",""0.609"",""0.729""]","[1,0,1,1]",0,52,52,52,1,1,0,,,1,FALSE,,,,,,,,,,,,,,,,,,,,,,,,,,,,,,,
,5f95155d7ae37e0009ed42ac,627c6fc1b368a87425bdae67,2022-05-11_21h24.54.205,classification_task,2021.2.3,Win32,39.43062182,627c6715c52fd12f31907bcf,,,,,,,,,,,,,,,,,,,,,,,a,1,1.2237,"[""0.178"",""0.422"",""0.841"",""0.918""]","[1,1,0,1]",0,53,53,53,1,0,0,,,1,FALSE,,,,,,,,,,,,,,,,,,,,,,,,,,,,,,,
,5f95155d7ae37e0009ed42ac,627c6fc1b368a87425bdae67,2022-05-11_21h24.54.205,classification_task,2021.2.3,Win32,39.43062182,627c6715c52fd12f31907bcf,,,,,,,,,,,,,,,,,,,,,,,l,1,1.3798,"[""0.121"",""0.385"",""0.609"",""0.343""]","[1,1,1,0]",0,54,54,54,1,1,0,,,1,FALSE,,,,,,,,,,,,,,,,,,,,,,,,,,,,,,,
,5f95155d7ae37e0009ed42ac,627c6fc1b368a87425bdae67,2022-05-11_21h24.54.205,classification_task,2021.2.3,Win32,39.43062182,627c6715c52fd12f31907bcf,,,,,,,,,,,,,,,,,,,,,,,l,1,1.4559,"[""0.056"",""0.350"",""0.550"",""0.804""]","[1,0,1,1]",0,55,55,55,1,1,1,,,1,FALSE,,,,,,,,,,,,,,,,,,,,,,,,,,,,,,,
,5f95155d7ae37e0009ed42ac,627c6fc1b368a87425bdae67,2022-05-11_21h24.54.205,classification_task,2021.2.3,Win32,39.43062182,627c6715c52fd12f31907bcf,,,,,,,,,,,,,,,,,,,,,,,a,0,1.5428,"[""0.338"",""0.385"",""0.609"",""0.729""]","[0,1,1,1]",0,56,56,56,1,1,0,,,1,FALSE,,,,,,,,,,,,,,,,,,,,,,,,,,,,,,,
,5f95155d7ae37e0009ed42ac,627c6fc1b368a87425bdae67,2022-05-11_21h24.54.205,classification_task,2021.2.3,Win32,39.43062182,627c6715c52fd12f31907bcf,,,,,,,,,,,,,,,,,,,,,,,a,1,1.7749,"[""0.238"",""0.647"",""0.688"",""0.955""]","[1,0,1,1]",0,57,57,57,1,0,1,,,1,FALSE,,,,,,,,,,,,,,,,,,,,,,,,,,,,,,,
,5f95155d7ae37e0009ed42ac,627c6fc1b368a87425bdae67,2022-05-11_21h24.54.205,classification_task,2021.2.3,Win32,39.43062182,627c6715c52fd12f31907bcf,,,,,,,,,,,,,,,,,,,,,,,l,1,1.6274,"[""0.351"",""0.299"",""0.550"",""0.804""]","[0,1,1,1]",0,58,58,58,1,1,1,,,1,FALSE,,,,,,,,,,,,,,,,,,,,,,,,,,,,,,,
,5f95155d7ae37e0009ed42ac,627c6fc1b368a87425bdae67,2022-05-11_21h24.54.205,classification_task,2021.2.3,Win32,39.43062182,627c6715c52fd12f31907bcf,,,,,,,,,,,,,,,,,,,,,,,l,1,1.4706,"[""0.056"",""0.299"",""0.763"",""0.804""]","[1,1,0,1]",0,59,59,59,1,1,1,,,1,FALSE,,,,,,,,,,,,,,,,,,,,,,,,,,,,,,,
,5f95155d7ae37e0009ed42ac,627c6fc1b368a87425bdae67,2022-05-11_21h24.54.205,classification_task,2021.2.3,Win32,39.43062182,627c6715c52fd12f31907bcf,,,,,,,,,,,,,,,,,,,,,,,a,1,1.4439,"[""0.238"",""0.499"",""0.350"",""0.955""]","[1,1,0,1]",0,60,60,60,1,0,1,,,1,FALSE,,,,,,,,,,,,,,,,,,,,,,,,,,,,,,,
,5f95155d7ae37e0009ed42ac,627c6fc1b368a87425bdae67,2022-05-11_21h24.54.205,classification_task,2021.2.3,Win32,39.43062182,627c6715c52fd12f31907bcf,,,,,,,,,,,,,,,,,,,,,,,a,1,1.6371,"[""0.764"",""0.422"",""0.877"",""0.918""]","[0,1,1,1]",0,61,61,61,1,0,0,,,1,FALSE,,,,,,,,,,,,,,,,,,,,,,,,,,,,,,,
,5f95155d7ae37e0009ed42ac,627c6fc1b368a87425bdae67,2022-05-11_21h24.54.205,classification_task,2021.2.3,Win32,39.43062182,627c6715c52fd12f31907bcf,,,,,,,,,,,,,,,,,,,,,,,a,1,3.1014,"[""0.178"",""0.842"",""0.877"",""0.918""]","[1,0,1,1]",0,62,62,62,1,0,0,,,1,FALSE,,,,,,,,,,,,,,,,,,,,,,,,,,,,,,,
,5f95155d7ae37e0009ed42ac,627c6fc1b368a87425bdae67,2022-05-11_21h24.54.205,classification_task,2021.2.3,Win32,39.43062182,627c6715c52fd12f31907bcf,,,,,,,,,,,,,,,,,,,,,,,l,0,1.8917,"[""0.647"",""0.499"",""0.688"",""0.955""]","[0,1,1,1]",0,63,63,63,1,0,1,,,1,FALSE,,,,,,,,,,,,,,,,,,,,,,,,,,,,,,,
,5f95155d7ae37e0009ed42ac,627c6fc1b368a87425bdae67,2022-05-11_21h24.54.205,classification_task,2021.2.3,Win32,39.43062182,627c6715c52fd12f31907bcf,,,,,,,,,,,,,,,,,,,,,,,,,,,,,,,,,,,,,,,0, ,,0,0.449896515,525.2868,0,0,0,0,1,2,1,,,,,,,,,,,,,,,,,,
,5f95155d7ae37e0009ed42ac,627c6fc1b368a87425bdae67,2022-05-11_21h24.54.205,classification_task,2021.2.3,Win32,39.43062182,627c6715c52fd12f31907bcf,,,,,,,,,,,,,,,,,,,,,,,,,,,,,,,,,,,,,,,1,  ,,0,7.657582566,508.6376,0,0,0,0,1,2,1,,,,,,,,,,,,,,,,,,
,5f95155d7ae37e0009ed42ac,627c6fc1b368a87425bdae67,2022-05-11_21h24.54.205,classification_task,2021.2.3,Win32,39.43062182,627c6715c52fd12f31907bcf,,,,,,,,,,,,,,,,,,,,,,,,,,,,,,,,,,,,,,,2,  ,,0,4.83893439,507.1512,0,0,0,0,1,2,1,,,,,,,,,,,,,,,,,,
,5f95155d7ae37e0009ed42ac,627c6fc1b368a87425bdae67,2022-05-11_21h24.54.205,classification_task,2021.2.3,Win32,39.43062182,627c6715c52fd12f31907bcf,,,,,,,,,,,,,,,,,,,,,,,,,,,,,,,,,,,,,,,,,,,,,0,0,0,0,1,,1,,,,,,,,,,,,,,,,,,
,5f95155d7ae37e0009ed42ac,627c6fc1b368a87425bdae67,2022-05-11_21h24.54.205,classification_task,2021.2.3,Win32,39.43062182,627c6715c52fd12f31907bcf,,,,,,,,,,,,,,,,,,,,,space,21.0541,l,1,7.5126,"[""0.121"",""0.385"",""0.609"",""0.763""]","[1,1,1,0]",0,0,0,0,1,1,0,,,1,FALSE,,,,,,,,,,,,,,,,,,,,,,,,,,,,,,,
,5f95155d7ae37e0009ed42ac,627c6fc1b368a87425bdae67,2022-05-11_21h24.54.205,classification_task,2021.2.3,Win32,39.43062182,627c6715c52fd12f31907bcf,,,,,,,,,,,,,,,,,,,,,,,a,1,3.476,"[""0.178"",""0.343"",""0.877"",""0.918""]","[1,0,1,1]",0,1,1,1,1,0,0,,,1,FALSE,,,,,,,,,,,,,,,,,,,,,,,,,,,,,,,
,5f95155d7ae37e0009ed42ac,627c6fc1b368a87425bdae67,2022-05-11_21h24.54.205,classification_task,2021.2.3,Win32,39.43062182,627c6715c52fd12f31907bcf,,,,,,,,,,,,,,,,,,,,,,,l,1,3.2874,"[""0.056"",""0.299"",""0.550"",""0.340""]","[1,1,1,0]",0,2,2,2,1,1,1,,,1,FALSE,,,,,,,,,,,,,,,,,,,,,,,,,,,,,,,
,5f95155d7ae37e0009ed42ac,627c6fc1b368a87425bdae67,2022-05-11_21h24.54.205,classification_task,2021.2.3,Win32,39.43062182,627c6715c52fd12f31907bcf,,,,,,,,,,,,,,,,,,,,,,,a,1,2.0291,"[""0.178"",""0.422"",""0.338"",""0.918""]","[1,1,0,1]",0,3,3,3,1,0,0,,,1,FALSE,,,,,,,,,,,,,,,,,,,,,,,,,,,,,,,
,5f95155d7ae37e0009ed42ac,627c6fc1b368a87425bdae67,2022-05-11_21h24.54.205,classification_task,2021.2.3,Win32,39.43062182,627c6715c52fd12f31907bcf,,,,,,,,,,,,,,,,,,,,,,,l,1,1.8315,"[""0.121"",""0.351"",""0.609"",""0.729""]","[1,0,1,1]",0,4,4,4,1,1,0,,,1,FALSE,,,,,,,,,,,,,,,,,,,,,,,,,,,,,,,
,5f95155d7ae37e0009ed42ac,627c6fc1b368a87425bdae67,2022-05-11_21h24.54.205,classification_task,2021.2.3,Win32,39.43062182,627c6715c52fd12f31907bcf,,,,,,,,,,,,,,,,,,,,,,,a,1,1.8297,"[""0.350"",""0.499"",""0.688"",""0.955""]","[0,1,1,1]",0,5,5,5,1,0,1,,,1,FALSE,,,,,,,,,,,,,,,,,,,,,,,,,,,,,,,
,5f95155d7ae37e0009ed42ac,627c6fc1b368a87425bdae67,2022-05-11_21h24.54.205,classification_task,2021.2.3,Win32,39.43062182,627c6715c52fd12f31907bcf,,,,,,,,,,,,,,,,,,,,,,,a,1,1.9116,"[""0.178"",""0.422"",""0.877"",""0.763""]","[1,1,1,0]",0,6,6,6,1,0,0,,,1,FALSE,,,,,,,,,,,,,,,,,,,,,,,,,,,,,,,
,5f95155d7ae37e0009ed42ac,627c6fc1b368a87425bdae67,2022-05-11_21h24.54.205,classification_task,2021.2.3,Win32,39.43062182,627c6715c52fd12f31907bcf,,,,,,,,,,,,,,,,,,,,,,,a,1,1.4026,"[""0.238"",""0.499"",""0.688"",""0.351""]","[1,1,1,0]",0,7,7,7,1,0,1,,,1,FALSE,,,,,,,,,,,,,,,,,,,,,,,,,,,,,,,
,5f95155d7ae37e0009ed42ac,627c6fc1b368a87425bdae67,2022-05-11_21h24.54.205,classification_task,2021.2.3,Win32,39.43062182,627c6715c52fd12f31907bcf,,,,,,,,,,,,,,,,,,,,,,,a,1,1.1686,"[""0.238"",""0.499"",""0.343"",""0.955""]","[1,1,0,1]",0,8,8,8,1,0,1,,,1,FALSE,,,,,,,,,,,,,,,,,,,,,,,,,,,,,,,
,5f95155d7ae37e0009ed42ac,627c6fc1b368a87425bdae67,2022-05-11_21h24.54.205,classification_task,2021.2.3,Win32,39.43062182,627c6715c52fd12f31907bcf,,,,,,,,,,,,,,,,,,,,,,,l,1,1.2773,"[""0.056"",""0.299"",""0.340"",""0.804""]","[1,1,0,1]",0,9,9,9,1,1,1,,,1,FALSE,,,,,,,,,,,,,,,,,,,,,,,,,,,,,,,
,5f95155d7ae37e0009ed42ac,627c6fc1b368a87425bdae67,2022-05-11_21h24.54.205,classification_task,2021.2.3,Win32,39.43062182,627c6715c52fd12f31907bcf,,,,,,,,,,,,,,,,,,,,,,,a,0,2.1106,"[""0.121"",""0.385"",""0.763"",""0.729""]","[1,1,0,1]",0,10,10,10,1,1,0,,,1,FALSE,,,,,,,,,,,,,,,,,,,,,,,,,,,,,,,
,5f95155d7ae37e0009ed42ac,627c6fc1b368a87425bdae67,2022-05-11_21h24.54.205,classification_task,2021.2.3,Win32,39.43062182,627c6715c52fd12f31907bcf,,,,,,,,,,,,,,,,,,,,,,,a,1,1.7589,"[""0.238"",""0.351"",""0.688"",""0.955""]","[1,0,1,1]",0,11,11,11,1,0,1,,,1,FALSE,,,,,,,,,,,,,,,,,,,,,,,,,,,,,,,
,5f95155d7ae37e0009ed42ac,627c6fc1b368a87425bdae67,2022-05-11_21h24.54.205,classification_task,2021.2.3,Win32,39.43062182,627c6715c52fd12f31907bcf,,,,,,,,,,,,,,,,,,,,,,,l,1,1.3401,"[""0.056"",""0.351"",""0.550"",""0.804""]","[1,0,1,1]",0,12,12,12,1,1,1,,,1,FALSE,,,,,,,,,,,,,,,,,,,,,,,,,,,,,,,
,5f95155d7ae37e0009ed42ac,627c6fc1b368a87425bdae67,2022-05-11_21h24.54.205,classification_task,2021.2.3,Win32,39.43062182,627c6715c52fd12f31907bcf,,,,,,,,,,,,,,,,,,,,,,,a,0,1.5711,"[""0.340"",""0.385"",""0.609"",""0.729""]","[0,1,1,1]",0,13,13,13,1,1,0,,,1,FALSE,,,,,,,,,,,,,,,,,,,,,,,,,,,,,,,
,5f95155d7ae37e0009ed42ac,627c6fc1b368a87425bdae67,2022-05-11_21h24.54.205,classification_task,2021.2.3,Win32,39.43062182,627c6715c52fd12f31907bcf,,,,,,,,,,,,,,,,,,,,,,,l,0,1.0008,"[""0.351"",""0.422"",""0.877"",""0.918""]","[0,1,1,1]",0,14,14,14,1,0,0,,,1,FALSE,,,,,,,,,,,,,,,,,,,,,,,,,,,,,,,
,5f95155d7ae37e0009ed42ac,627c6fc1b368a87425bdae67,2022-05-11_21h24.54.205,classification_task,2021.2.3,Win32,39.43062182,627c6715c52fd12f31907bcf,,,,,,,,,,,,,,,,,,,,,,,l,1,2.0511,"[""0.457"",""0.299"",""0.550"",""0.804""]","[0,1,1,1]",0,15,15,15,1,1,1,,,1,FALSE,,,,,,,,,,,,,,,,,,,,,,,,,,,,,,,
,5f95155d7ae37e0009ed42ac,627c6fc1b368a87425bdae67,2022-05-11_21h24.54.205,classification_task,2021.2.3,Win32,39.43062182,627c6715c52fd12f31907bcf,,,,,,,,,,,,,,,,,,,,,,,l,1,1.118,"[""0.343"",""0.299"",""0.550"",""0.804""]","[0,1,1,1]",0,16,16,16,1,1,1,,,1,FALSE,,,,,,,,,,,,,,,,,,,,,,,,,,,,,,,
,5f95155d7ae37e0009ed42ac,627c6fc1b368a87425bdae67,2022-05-11_21h24.54.205,classification_task,2021.2.3,Win32,39.43062182,627c6715c52fd12f31907bcf,,,,,,,,,,,,,,,,,,,,,,,a,1,0.9112,"[""0.238"",""0.499"",""0.763"",""0.955""]","[1,1,0,1]",0,17,17,17,1,0,1,,,1,FALSE,,,,,,,,,,,,,,,,,,,,,,,,,,,,,,,
,5f95155d7ae37e0009ed42ac,627c6fc1b368a87425bdae67,2022-05-11_21h24.54.205,classification_task,2021.2.3,Win32,39.43062182,627c6715c52fd12f31907bcf,,,,,,,,,,,,,,,,,,,,,,,l,1,2.878,"[""0.121"",""0.385"",""0.609"",""0.457""]","[1,1,1,0]",0,18,18,18,1,1,0,,,1,FALSE,,,,,,,,,,,,,,,,,,,,,,,,,,,,,,,
,5f95155d7ae37e0009ed42ac,627c6fc1b368a87425bdae67,2022-05-11_21h24.54.205,classification_task,2021.2.3,Win32,39.43062182,627c6715c52fd12f31907bcf,,,,,,,,,,,,,,,,,,,,,,,l,1,1.2571,"[""0.121"",""0.841"",""0.609"",""0.729""]","[1,0,1,1]",0,19,19,19,1,1,0,,,1,FALSE,,,,,,,,,,,,,,,,,,,,,,,,,,,,,,,
,5f95155d7ae37e0009ed42ac,627c6fc1b368a87425bdae67,2022-05-11_21h24.54.205,classification_task,2021.2.3,Win32,39.43062182,627c6715c52fd12f31907bcf,,,,,,,,,,,,,,,,,,,,,,,l,1,1.1909,"[""0.056"",""0.299"",""0.550"",""0.764""]","[1,1,1,0]",0,20,20,20,1,1,1,,,1,FALSE,,,,,,,,,,,,,,,,,,,,,,,,,,,,,,,
,5f95155d7ae37e0009ed42ac,627c6fc1b368a87425bdae67,2022-05-11_21h24.54.205,classification_task,2021.2.3,Win32,39.43062182,627c6715c52fd12f31907bcf,,,,,,,,,,,,,,,,,,,,,,,a,1,0.9317,"[""0.238"",""0.763"",""0.688"",""0.955""]","[1,0,1,1]",0,21,21,21,1,0,1,,,1,FALSE,,,,,,,,,,,,,,,,,,,,,,,,,,,,,,,
,5f95155d7ae37e0009ed42ac,627c6fc1b368a87425bdae67,2022-05-11_21h24.54.205,classification_task,2021.2.3,Win32,39.43062182,627c6715c52fd12f31907bcf,,,,,,,,,,,,,,,,,,,,,,,a,0,1.6279,"[""0.769"",""0.385"",""0.609"",""0.729""]","[0,1,1,1]",0,22,22,22,1,1,0,,,1,FALSE,,,,,,,,,,,,,,,,,,,,,,,,,,,,,,,
,5f95155d7ae37e0009ed42ac,627c6fc1b368a87425bdae67,2022-05-11_21h24.54.205,classification_task,2021.2.3,Win32,39.43062182,627c6715c52fd12f31907bcf,,,,,,,,,,,,,,,,,,,,,,,a,1,1.3137,"[""0.178"",""0.422"",""0.763"",""0.918""]","[1,1,0,1]",0,23,23,23,1,0,0,,,1,FALSE,,,,,,,,,,,,,,,,,,,,,,,,,,,,,,,
,5f95155d7ae37e0009ed42ac,627c6fc1b368a87425bdae67,2022-05-11_21h24.54.205,classification_task,2021.2.3,Win32,39.43062182,627c6715c52fd12f31907bcf,,,,,,,,,,,,,,,,,,,,,,,l,1,1.508,"[""0.056"",""0.764"",""0.550"",""0.804""]","[1,0,1,1]",0,24,24,24,1,1,1,,,1,FALSE,,,,,,,,,,,,,,,,,,,,,,,,,,,,,,,
,5f95155d7ae37e0009ed42ac,627c6fc1b368a87425bdae67,2022-05-11_21h24.54.205,classification_task,2021.2.3,Win32,39.43062182,627c6715c52fd12f31907bcf,,,,,,,,,,,,,,,,,,,,,,,l,1,2.0849,"[""0.121"",""0.385"",""0.764"",""0.729""]","[1,1,0,1]",0,25,25,25,1,1,0,,,1,FALSE,,,,,,,,,,,,,,,,,,,,,,,,,,,,,,,
,5f95155d7ae37e0009ed42ac,627c6fc1b368a87425bdae67,2022-05-11_21h24.54.205,classification_task,2021.2.3,Win32,39.43062182,627c6715c52fd12f31907bcf,,,,,,,,,,,,,,,,,,,,,,,a,1,1.006,"[""0.178"",""0.351"",""0.877"",""0.918""]","[1,0,1,1]",0,26,26,26,1,0,0,,,1,FALSE,,,,,,,,,,,,,,,,,,,,,,,,,,,,,,,
,5f95155d7ae37e0009ed42ac,627c6fc1b368a87425bdae67,2022-05-11_21h24.54.205,classification_task,2021.2.3,Win32,39.43062182,627c6715c52fd12f31907bcf,,,,,,,,,,,,,,,,,,,,,,,l,0,1.5805,"[""0.764"",""0.422"",""0.877"",""0.918""]","[0,1,1,1]",0,27,27,27,1,0,0,,,1,FALSE,,,,,,,,,,,,,,,,,,,,,,,,,,,,,,,
,5f95155d7ae37e0009ed42ac,627c6fc1b368a87425bdae67,2022-05-11_21h24.54.205,classification_task,2021.2.3,Win32,39.43062182,627c6715c52fd12f31907bcf,,,,,,,,,,,,,,,,,,,,,,,a,1,0.9896,"[""0.238"",""0.499"",""0.688"",""0.763""]","[1,1,1,0]",0,28,28,28,1,0,1,,,1,FALSE,,,,,,,,,,,,,,,,,,,,,,,,,,,,,,,
,5f95155d7ae37e0009ed42ac,627c6fc1b368a87425bdae67,2022-05-11_21h24.54.205,classification_task,2021.2.3,Win32,39.43062182,627c6715c52fd12f31907bcf,,,,,,,,,,,,,,,,,,,,,,,l,1,0.8555,"[""0.056"",""0.299"",""0.457"",""0.804""]","[1,1,0,1]",0,29,29,29,1,1,1,,,1,FALSE,,,,,,,,,,,,,,,,,,,,,,,,,,,,,,,
,5f95155d7ae37e0009ed42ac,627c6fc1b368a87425bdae67,2022-05-11_21h24.54.205,classification_task,2021.2.3,Win32,39.43062182,627c6715c52fd12f31907bcf,,,,,,,,,,,,,,,,,,,,,,,a,1,1.2304,"[""0.763"",""0.499"",""0.688"",""0.955""]","[0,1,1,1]",0,30,30,30,1,0,1,,,1,FALSE,,,,,,,,,,,,,,,,,,,,,,,,,,,,,,,
,5f95155d7ae37e0009ed42ac,627c6fc1b368a87425bdae67,2022-05-11_21h24.54.205,classification_task,2021.2.3,Win32,39.43062182,627c6715c52fd12f31907bcf,,,,,,,,,,,,,,,,,,,,,,,a,1,1.5119,"[""0.178"",""0.422"",""0.877"",""0.842""]","[1,1,1,0]",0,31,31,31,1,0,0,,,1,FALSE,,,,,,,,,,,,,,,,,,,,,,,,,,,,,,,
,5f95155d7ae37e0009ed42ac,627c6fc1b368a87425bdae67,2022-05-11_21h24.54.205,classification_task,2021.2.3,Win32,39.43062182,627c6715c52fd12f31907bcf,,,,,,,,,,,,,,,,,,,,,,,a,1,1.2386,"[""0.178"",""0.351"",""0.877"",""0.918""]","[1,0,1,1]",0,32,32,32,1,0,0,,,1,FALSE,,,,,,,,,,,,,,,,,,,,,,,,,,,,,,,
,5f95155d7ae37e0009ed42ac,627c6fc1b368a87425bdae67,2022-05-11_21h24.54.205,classification_task,2021.2.3,Win32,39.43062182,627c6715c52fd12f31907bcf,,,,,,,,,,,,,,,,,,,,,,,l,1,1.8899,"[""0.647"",""0.385"",""0.609"",""0.729""]","[0,1,1,1]",0,33,33,33,1,1,0,,,1,FALSE,,,,,,,,,,,,,,,,,,,,,,,,,,,,,,,
,5f95155d7ae37e0009ed42ac,627c6fc1b368a87425bdae67,2022-05-11_21h24.54.205,classification_task,2021.2.3,Win32,39.43062182,627c6715c52fd12f31907bcf,,,,,,,,,,,,,,,,,,,,,,,a,1,1.3895,"[""0.178"",""0.422"",""0.877"",""0.343""]","[1,1,1,0]",0,34,34,34,1,0,0,,,1,FALSE,,,,,,,,,,,,,,,,,,,,,,,,,,,,,,,
,5f95155d7ae37e0009ed42ac,627c6fc1b368a87425bdae67,2022-05-11_21h24.54.205,classification_task,2021.2.3,Win32,39.43062182,627c6715c52fd12f31907bcf,,,,,,,,,,,,,,,,,,,,,,,l,1,1.3289,"[""0.121"",""0.763"",""0.609"",""0.729""]","[1,0,1,1]",0,35,35,35,1,1,0,,,1,FALSE,,,,,,,,,,,,,,,,,,,,,,,,,,,,,,,
,5f95155d7ae37e0009ed42ac,627c6fc1b368a87425bdae67,2022-05-11_21h24.54.205,classification_task,2021.2.3,Win32,39.43062182,627c6715c52fd12f31907bcf,,,,,,,,,,,,,,,,,,,,,,,l,1,1.4276,"[""0.121"",""0.385"",""0.338"",""0.729""]","[1,1,0,1]",0,36,36,36,1,1,0,,,1,FALSE,,,,,,,,,,,,,,,,,,,,,,,,,,,,,,,
,5f95155d7ae37e0009ed42ac,627c6fc1b368a87425bdae67,2022-05-11_21h24.54.205,classification_task,2021.2.3,Win32,39.43062182,627c6715c52fd12f31907bcf,,,,,,,,,,,,,,,,,,,,,,,a,1,1.5092,"[""0.178"",""0.422"",""0.351"",""0.918""]","[1,1,0,1]",0,37,37,37,1,0,0,,,1,FALSE,,,,,,,,,,,,,,,,,,,,,,,,,,,,,,,
,5f95155d7ae37e0009ed42ac,627c6fc1b368a87425bdae67,2022-05-11_21h24.54.205,classification_task,2021.2.3,Win32,39.43062182,627c6715c52fd12f31907bcf,,,,,,,,,,,,,,,,,,,,,,,a,1,1.469,"[""0.238"",""0.499"",""0.688"",""0.764""]","[1,1,1,0]",0,38,38,38,1,0,1,,,1,FALSE,,,,,,,,,,,,,,,,,,,,,,,,,,,,,,,
,5f95155d7ae37e0009ed42ac,627c6fc1b368a87425bdae67,2022-05-11_21h24.54.205,classification_task,2021.2.3,Win32,39.43062182,627c6715c52fd12f31907bcf,,,,,,,,,,,,,,,,,,,,,,,l,1,0.7789,"[""0.343"",""0.299"",""0.550"",""0.804""]","[0,1,1,1]",0,39,39,39,1,1,1,,,1,FALSE,,,,,,,,,,,,,,,,,,,,,,,,,,,,,,,
,5f95155d7ae37e0009ed42ac,627c6fc1b368a87425bdae67,2022-05-11_21h24.54.205,classification_task,2021.2.3,Win32,39.43062182,627c6715c52fd12f31907bcf,,,,,,,,,,,,,,,,,,,,,,,l,0,1.3107,"[""0.763"",""0.422"",""0.877"",""0.918""]","[0,1,1,1]",0,40,40,40,1,0,0,,,1,FALSE,,,,,,,,,,,,,,,,,,,,,,,,,,,,,,,
,5f95155d7ae37e0009ed42ac,627c6fc1b368a87425bdae67,2022-05-11_21h24.54.205,classification_task,2021.2.3,Win32,39.43062182,627c6715c52fd12f31907bcf,,,,,,,,,,,,,,,,,,,,,,,l,1,1.5699,"[""0.121"",""0.385"",""0.609"",""0.351""]","[1,1,1,0]",0,41,41,41,1,1,0,,,1,FALSE,,,,,,,,,,,,,,,,,,,,,,,,,,,,,,,
,5f95155d7ae37e0009ed42ac,627c6fc1b368a87425bdae67,2022-05-11_21h24.54.205,classification_task,2021.2.3,Win32,39.43062182,627c6715c52fd12f31907bcf,,,,,,,,,,,,,,,,,,,,,,,a,1,0.8184,"[""0.350"",""0.499"",""0.688"",""0.955""]","[0,1,1,1]",0,42,42,42,1,0,1,,,1,FALSE,,,,,,,,,,,,,,,,,,,,,,,,,,,,,,,
,5f95155d7ae37e0009ed42ac,627c6fc1b368a87425bdae67,2022-05-11_21h24.54.205,classification_task,2021.2.3,Win32,39.43062182,627c6715c52fd12f31907bcf,,,,,,,,,,,,,,,,,,,,,,,l,1,0.7563,"[""0.056"",""0.654"",""0.550"",""0.804""]","[1,0,1,1]",0,43,43,43,1,1,1,,,1,FALSE,,,,,,,,,,,,,,,,,,,,,,,,,,,,,,,
,5f95155d7ae37e0009ed42ac,627c6fc1b368a87425bdae67,2022-05-11_21h24.54.205,classification_task,2021.2.3,Win32,39.43062182,627c6715c52fd12f31907bcf,,,,,,,,,,,,,,,,,,,,,,,a,1,0.7215,"[""0.238"",""0.343"",""0.688"",""0.955""]","[1,0,1,1]",0,44,44,44,1,0,1,,,1,FALSE,,,,,,,,,,,,,,,,,,,,,,,,,,,,,,,
,5f95155d7ae37e0009ed42ac,627c6fc1b368a87425bdae67,2022-05-11_21h24.54.205,classification_task,2021.2.3,Win32,39.43062182,627c6715c52fd12f31907bcf,,,,,,,,,,,,,,,,,,,,,,,a,1,0.7089,"[""0.238"",""0.499"",""0.654"",""0.955""]","[1,1,0,1]",0,45,45,45,1,0,1,,,1,FALSE,,,,,,,,,,,,,,,,,,,,,,,,,,,,,,,
,5f95155d7ae37e0009ed42ac,627c6fc1b368a87425bdae67,2022-05-11_21h24.54.205,classification_task,2021.2.3,Win32,39.43062182,627c6715c52fd12f31907bcf,,,,,,,,,,,,,,,,,,,,,,,l,1,0.8147,"[""0.056"",""0.299"",""0.550"",""0.654""]","[1,1,1,0]",0,46,46,46,1,1,1,,,1,FALSE,,,,,,,,,,,,,,,,,,,,,,,,,,,,,,,
,5f95155d7ae37e0009ed42ac,627c6fc1b368a87425bdae67,2022-05-11_21h24.54.205,classification_task,2021.2.3,Win32,39.43062182,627c6715c52fd12f31907bcf,,,,,,,,,,,,,,,,,,,,,,,l,1,1.0216,"[""0.056"",""0.299"",""0.763"",""0.804""]","[1,1,0,1]",0,47,47,47,1,1,1,,,1,FALSE,,,,,,,,,,,,,,,,,,,,,,,,,,,,,,,
,5f95155d7ae37e0009ed42ac,627c6fc1b368a87425bdae67,2022-05-11_21h24.54.205,classification_task,2021.2.3,Win32,39.43062182,627c6715c52fd12f31907bcf,,,,,,,,,,,,,,,,,,,,,,,a,1,1.422,"[""0.178"",""0.422"",""0.654"",""0.918""]","[1,1,0,1]",0,48,48,48,1,0,0,,,1,FALSE,,,,,,,,,,,,,,,,,,,,,,,,,,,,,,,
,5f95155d7ae37e0009ed42ac,627c6fc1b368a87425bdae67,2022-05-11_21h24.54.205,classification_task,2021.2.3,Win32,39.43062182,627c6715c52fd12f31907bcf,,,,,,,,,,,,,,,,,,,,,,,l,1,1.4646,"[""0.056"",""0.299"",""0.550"",""0.647""]","[1,1,1,0]",0,49,49,49,1,1,1,,,1,FALSE,,,,,,,,,,,,,,,,,,,,,,,,,,,,,,,
,5f95155d7ae37e0009ed42ac,627c6fc1b368a87425bdae67,2022-05-11_21h24.54.205,classification_task,2021.2.3,Win32,39.43062182,627c6715c52fd12f31907bcf,,,,,,,,,,,,,,,,,,,,,,,a,0,2.0124,"[""0.763"",""0.385"",""0.609"",""0.729""]","[0,1,1,1]",0,50,50,50,1,1,0,,,1,FALSE,,,,,,,,,,,,,,,,,,,,,,,,,,,,,,,
,5f95155d7ae37e0009ed42ac,627c6fc1b368a87425bdae67,2022-05-11_21h24.54.205,classification_task,2021.2.3,Win32,39.43062182,627c6715c52fd12f31907bcf,,,,,,,,,,,,,,,,,,,,,,,l,1,1.3509,"[""0.121"",""0.385"",""0.343"",""0.729""]","[1,1,0,1]",0,51,51,51,1,1,0,,,1,FALSE,,,,,,,,,,,,,,,,,,,,,,,,,,,,,,,
,5f95155d7ae37e0009ed42ac,627c6fc1b368a87425bdae67,2022-05-11_21h24.54.205,classification_task,2021.2.3,Win32,39.43062182,627c6715c52fd12f31907bcf,,,,,,,,,,,,,,,,,,,,,,,a,1,1.0188,"[""0.178"",""0.422"",""0.877"",""0.351""]","[1,1,1,0]",0,52,52,52,1,0,0,,,1,FALSE,,,,,,,,,,,,,,,,,,,,,,,,,,,,,,,
,5f95155d7ae37e0009ed42ac,627c6fc1b368a87425bdae67,2022-05-11_21h24.54.205,classification_task,2021.2.3,Win32,39.43062182,627c6715c52fd12f31907bcf,,,,,,,,,,,,,,,,,,,,,,,a,1,1.132,"[""0.351"",""0.499"",""0.688"",""0.955""]","[0,1,1,1]",0,53,53,53,1,0,1,,,1,FALSE,,,,,,,,,,,,,,,,,,,,,,,,,,,,,,,
,5f95155d7ae37e0009ed42ac,627c6fc1b368a87425bdae67,2022-05-11_21h24.54.205,classification_task,2021.2.3,Win32,39.43062182,627c6715c52fd12f31907bcf,,,,,,,,,,,,,,,,,,,,,,,l,0,1.4339,"[""0.763"",""0.422"",""0.877"",""0.918""]","[0,1,1,1]",0,54,54,54,1,0,0,,,1,FALSE,,,,,,,,,,,,,,,,,,,,,,,,,,,,,,,
,5f95155d7ae37e0009ed42ac,627c6fc1b368a87425bdae67,2022-05-11_21h24.54.205,classification_task,2021.2.3,Win32,39.43062182,627c6715c52fd12f31907bcf,,,,,,,,,,,,,,,,,,,,,,,a,1,1.377,"[""0.238"",""0.764"",""0.688"",""0.955""]","[1,0,1,1]",0,55,55,55,1,0,1,,,1,FALSE,,,,,,,,,,,,,,,,,,,,,,,,,,,,,,,
,5f95155d7ae37e0009ed42ac,627c6fc1b368a87425bdae67,2022-05-11_21h24.54.205,classification_task,2021.2.3,Win32,39.43062182,627c6715c52fd12f31907bcf,,,,,,,,,,,,,,,,,,,,,,,l,1,1.0734,"[""0.340"",""0.299"",""0.550"",""0.804""]","[0,1,1,1]",0,56,56,56,1,1,1,,,1,FALSE,,,,,,,,,,,,,,,,,,,,,,,,,,,,,,,
,5f95155d7ae37e0009ed42ac,627c6fc1b368a87425bdae67,2022-05-11_21h24.54.205,classification_task,2021.2.3,Win32,39.43062182,627c6715c52fd12f31907bcf,,,,,,,,,,,,,,,,,,,,,,,a,1,2.0015,"[""0.178"",""0.351"",""0.877"",""0.918""]","[1,0,1,1]",0,57,57,57,1,0,0,,,1,FALSE,,,,,,,,,,,,,,,,,,,,,,,,,,,,,,,
,5f95155d7ae37e0009ed42ac,627c6fc1b368a87425bdae67,2022-05-11_21h24.54.205,classification_task,2021.2.3,Win32,39.43062182,627c6715c52fd12f31907bcf,,,,,,,,,,,,,,,,,,,,,,,l,1,0.9668,"[""0.121"",""0.343"",""0.609"",""0.729""]","[1,0,1,1]",0,58,58,58,1,1,0,,,1,FALSE,,,,,,,,,,,,,,,,,,,,,,,,,,,,,,,
,5f95155d7ae37e0009ed42ac,627c6fc1b368a87425bdae67,2022-05-11_21h24.54.205,classification_task,2021.2.3,Win32,39.43062182,627c6715c52fd12f31907bcf,,,,,,,,,,,,,,,,,,,,,,,l,1,0.9254,"[""0.121"",""0.385"",""0.609"",""0.842""]","[1,1,1,0]",0,59,59,59,1,1,0,,,1,FALSE,,,,,,,,,,,,,,,,,,,,,,,,,,,,,,,
,5f95155d7ae37e0009ed42ac,627c6fc1b368a87425bdae67,2022-05-11_21h24.54.205,classification_task,2021.2.3,Win32,39.43062182,627c6715c52fd12f31907bcf,,,,,,,,,,,,,,,,,,,,,,,l,1,1.669,"[""0.056"",""0.842"",""0.550"",""0.804""]","[1,0,1,1]",0,60,60,60,1,1,1,,,1,FALSE,,,,,,,,,,,,,,,,,,,,,,,,,,,,,,,
,5f95155d7ae37e0009ed42ac,627c6fc1b368a87425bdae67,2022-05-11_21h24.54.205,classification_task,2021.2.3,Win32,39.43062182,627c6715c52fd12f31907bcf,,,,,,,,,,,,,,,,,,,,,,,a,1,2.0733,"[""0.238"",""0.499"",""0.688"",""0.351""]","[1,1,1,0]",0,61,61,61,1,0,1,,,1,FALSE,,,,,,,,,,,,,,,,,,,,,,,,,,,,,,,
,5f95155d7ae37e0009ed42ac,627c6fc1b368a87425bdae67,2022-05-11_21h24.54.205,classification_task,2021.2.3,Win32,39.43062182,627c6715c52fd12f31907bcf,,,,,,,,,,,,,,,,,,,,,,,a,1,1.0436,"[""0.238"",""0.499"",""0.764"",""0.955""]","[1,1,0,1]",0,62,62,62,1,0,1,,,1,FALSE,,,,,,,,,,,,,,,,,,,,,,,,,,,,,,,
,5f95155d7ae37e0009ed42ac,627c6fc1b368a87425bdae67,2022-05-11_21h24.54.205,classification_task,2021.2.3,Win32,39.43062182,627c6715c52fd12f31907bcf,,,,,,,,,,,,,,,,,,,,,,,l,1,1.9639,"[""0.056"",""0.299"",""0.350"",""0.804""]","[1,1,0,1]",0,63,63,63,1,1,1,,,1,FALSE,,,,,,,,,,,,,,,,,,,,,,,,,,,,,,,
,5f95155d7ae37e0009ed42ac,627c6fc1b368a87425bdae67,2022-05-11_21h24.54.205,classification_task,2021.2.3,Win32,39.43062182,627c6715c52fd12f31907bcf,,,,,,,,,,,,,,,,,,,,,,,,,,,,,,,,,,,,,,,0, ,,0,0,197.2099,0,1,1,1,1,2,2,,,,,,,,,,,,,,,,,,
,5f95155d7ae37e0009ed42ac,627c6fc1b368a87425bdae67,2022-05-11_21h24.54.205,classification_task,2021.2.3,Win32,39.43062182,627c6715c52fd12f31907bcf,,,,,,,,,,,,,,,,,,,,,,,,,,,,,,,,,,,,,,,1,  ,,0,3.268544692,204.3023,0,1,1,1,1,2,2,,,,,,,,,,,,,,,,,,
,5f95155d7ae37e0009ed42ac,627c6fc1b368a87425bdae67,2022-05-11_21h24.54.205,classification_task,2021.2.3,Win32,39.43062182,627c6715c52fd12f31907bcf,,,,,,,,,,,,,,,,,,,,,,,,,,,,,,,,,,,,,,,2,  ,,0,4.436270365,206.6635,0,1,1,1,1,2,2,,,,,,,,,,,,,,,,,,
,5f95155d7ae37e0009ed42ac,627c6fc1b368a87425bdae67,2022-05-11_21h24.54.205,classification_task,2021.2.3,Win32,39.43062182,627c6715c52fd12f31907bcf,,,,,,,,,,,,,,,,,,,,,,,,,,,,,,,,,,,,,,,,,,,,,0,1,1,1,1,,2,,,,,,,,,,,,,,,,,,
,5f95155d7ae37e0009ed42ac,627c6fc1b368a87425bdae67,2022-05-11_21h24.54.205,classification_task,2021.2.3,Win32,39.43062182,627c6715c52fd12f31907bcf,,,,,,,,,,,,,,,,,,,,,space,7.2691,l,1,2.8147,"[""0.056"",""0.350"",""0.550"",""0.804""]","[1,0,1,1]",0,0,0,0,1,1,1,,,1,FALSE,,,,,,,,,,,,,,,,,,,,,,,,,,,,,,,
,5f95155d7ae37e0009ed42ac,627c6fc1b368a87425bdae67,2022-05-11_21h24.54.205,classification_task,2021.2.3,Win32,39.43062182,627c6715c52fd12f31907bcf,,,,,,,,,,,,,,,,,,,,,,,l,1,3.1605,"[""0.121"",""0.385"",""0.609"",""0.351""]","[1,1,1,0]",0,1,1,1,1,1,0,,,1,FALSE,,,,,,,,,,,,,,,,,,,,,,,,,,,,,,,
,5f95155d7ae37e0009ed42ac,627c6fc1b368a87425bdae67,2022-05-11_21h24.54.205,classification_task,2021.2.3,Win32,39.43062182,627c6715c52fd12f31907bcf,,,,,,,,,,,,,,,,,,,,,,,l,1,3.0802,"[""0.056"",""0.299"",""0.338"",""0.804""]","[1,1,0,1]",0,2,2,2,1,1,1,,,1,FALSE,,,,,,,,,,,,,,,,,,,,,,,,,,,,,,,
,5f95155d7ae37e0009ed42ac,627c6fc1b368a87425bdae67,2022-05-11_21h24.54.205,classification_task,2021.2.3,Win32,39.43062182,627c6715c52fd12f31907bcf,,,,,,,,,,,,,,,,,,,,,,,a,1,1.6539,"[""0.238"",""0.499"",""0.688"",""0.343""]","[1,1,1,0]",0,3,3,3,1,0,1,,,1,FALSE,,,,,,,,,,,,,,,,,,,,,,,,,,,,,,,
,5f95155d7ae37e0009ed42ac,627c6fc1b368a87425bdae67,2022-05-11_21h24.54.205,classification_task,2021.2.3,Win32,39.43062182,627c6715c52fd12f31907bcf,,,,,,,,,,,,,,,,,,,,,,,l,1,1.8819,"[""0.056"",""0.299"",""0.550"",""0.457""]","[1,1,1,0]",0,4,4,4,1,1,1,,,1,FALSE,,,,,,,,,,,,,,,,,,,,,,,,,,,,,,,
,5f95155d7ae37e0009ed42ac,627c6fc1b368a87425bdae67,2022-05-11_21h24.54.205,classification_task,2021.2.3,Win32,39.43062182,627c6715c52fd12f31907bcf,,,,,,,,,,,,,,,,,,,,,,,a,0,1.4886,"[""0.121"",""0.385"",""0.763"",""0.729""]","[1,1,0,1]",0,5,5,5,1,1,0,,,1,FALSE,,,,,,,,,,,,,,,,,,,,,,,,,,,,,,,
,5f95155d7ae37e0009ed42ac,627c6fc1b368a87425bdae67,2022-05-11_21h24.54.205,classification_task,2021.2.3,Win32,39.43062182,627c6715c52fd12f31907bcf,,,,,,,,,,,,,,,,,,,,,,,a,1,1.6608,"[""0.238"",""0.769"",""0.688"",""0.955""]","[1,0,1,1]",0,6,6,6,1,0,1,,,1,FALSE,,,,,,,,,,,,,,,,,,,,,,,,,,,,,,,
,5f95155d7ae37e0009ed42ac,627c6fc1b368a87425bdae67,2022-05-11_21h24.54.205,classification_task,2021.2.3,Win32,39.43062182,627c6715c52fd12f31907bcf,,,,,,,,,,,,,,,,,,,,,,,a,0,3.1033,"[""0.340"",""0.385"",""0.609"",""0.729""]","[0,1,1,1]",0,7,7,7,1,1,0,,,1,FALSE,,,,,,,,,,,,,,,,,,,,,,,,,,,,,,,
,5f95155d7ae37e0009ed42ac,627c6fc1b368a87425bdae67,2022-05-11_21h24.54.205,classification_task,2021.2.3,Win32,39.43062182,627c6715c52fd12f31907bcf,,,,,,,,,,,,,,,,,,,,,,,a,1,3.7738,"[""0.238"",""0.499"",""0.343"",""0.955""]","[1,1,0,1]",0,8,8,8,1,0,1,,,1,FALSE,,,,,,,,,,,,,,,,,,,,,,,,,,,,,,,
,5f95155d7ae37e0009ed42ac,627c6fc1b368a87425bdae67,2022-05-11_21h24.54.205,classification_task,2021.2.3,Win32,39.43062182,627c6715c52fd12f31907bcf,,,,,,,,,,,,,,,,,,,,,,,a,1,2.2585,"[""0.647"",""0.499"",""0.688"",""0.955""]","[0,1,1,1]",0,9,9,9,1,0,1,,,1,FALSE,,,,,,,,,,,,,,,,,,,,,,,,,,,,,,,
,5f95155d7ae37e0009ed42ac,627c6fc1b368a87425bdae67,2022-05-11_21h24.54.205,classification_task,2021.2.3,Win32,39.43062182,627c6715c52fd12f31907bcf,,,,,,,,,,,,,,,,,,,,,,,a,1,2.7132,"[""0.178"",""0.422"",""0.338"",""0.918""]","[1,1,0,1]",0,10,10,10,1,0,0,,,1,FALSE,,,,,,,,,,,,,,,,,,,,,,,,,,,,,,,
,5f95155d7ae37e0009ed42ac,627c6fc1b368a87425bdae67,2022-05-11_21h24.54.205,classification_task,2021.2.3,Win32,39.43062182,627c6715c52fd12f31907bcf,,,,,,,,,,,,,,,,,,,,,,,l,0,1.2825,"[""0.763"",""0.422"",""0.877"",""0.918""]","[0,1,1,1]",0,11,11,11,1,0,0,,,1,FALSE,,,,,,,,,,,,,,,,,,,,,,,,,,,,,,,
,5f95155d7ae37e0009ed42ac,627c6fc1b368a87425bdae67,2022-05-11_21h24.54.205,classification_task,2021.2.3,Win32,39.43062182,627c6715c52fd12f31907bcf,,,,,,,,,,,,,,,,,,,,,,,a,1,2.258,"[""0.178"",""0.422"",""0.877"",""0.457""]","[1,1,1,0]",0,12,12,12,1,0,0,,,1,FALSE,,,,,,,,,,,,,,,,,,,,,,,,,,,,,,,
,5f95155d7ae37e0009ed42ac,627c6fc1b368a87425bdae67,2022-05-11_21h24.54.205,classification_task,2021.2.3,Win32,39.43062182,627c6715c52fd12f31907bcf,,,,,,,,,,,,,,,,,,,,,,,l,1,2.7986,"[""0.350"",""0.299"",""0.550"",""0.804""]","[0,1,1,1]",0,13,13,13,1,1,1,,,1,FALSE,,,,,,,,,,,,,,,,,,,,,,,,,,,,,,,
,5f95155d7ae37e0009ed42ac,627c6fc1b368a87425bdae67,2022-05-11_21h24.54.205,classification_task,2021.2.3,Win32,39.43062182,627c6715c52fd12f31907bcf,,,,,,,,,,,,,,,,,,,,,,,a,0,1.7146,"[""0.121"",""0.350"",""0.609"",""0.729""]","[1,0,1,1]",0,14,14,14,1,1,0,,,1,FALSE,,,,,,,,,,,,,,,,,,,,,,,,,,,,,,,
,5f95155d7ae37e0009ed42ac,627c6fc1b368a87425bdae67,2022-05-11_21h24.54.205,classification_task,2021.2.3,Win32,39.43062182,627c6715c52fd12f31907bcf,,,,,,,,,,,,,,,,,,,,,,,a,1,2.133,"[""0.178"",""0.351"",""0.877"",""0.918""]","[1,0,1,1]",0,15,15,15,1,0,0,,,1,FALSE,,,,,,,,,,,,,,,,,,,,,,,,,,,,,,,
,5f95155d7ae37e0009ed42ac,627c6fc1b368a87425bdae67,2022-05-11_21h24.54.205,classification_task,2021.2.3,Win32,39.43062182,627c6715c52fd12f31907bcf,,,,,,,,,,,,,,,,,,,,,,,a,0,2.2074,"[""0.647"",""0.299"",""0.550"",""0.804""]","[0,1,1,1]",0,16,16,16,1,1,1,,,1,FALSE,,,,,,,,,,,,,,,,,,,,,,,,,,,,,,,
,5f95155d7ae37e0009ed42ac,627c6fc1b368a87425bdae67,2022-05-11_21h24.54.205,classification_task,2021.2.3,Win32,39.43062182,627c6715c52fd12f31907bcf,,,,,,,,,,,,,,,,,,,,,,,l,1,1.5391,"[""0.056"",""0.299"",""0.550"",""0.763""]","[1,1,1,0]",0,17,17,17,1,1,1,,,1,FALSE,,,,,,,,,,,,,,,,,,,,,,,,,,,,,,,
,5f95155d7ae37e0009ed42ac,627c6fc1b368a87425bdae67,2022-05-11_21h24.54.205,classification_task,2021.2.3,Win32,39.43062182,627c6715c52fd12f31907bcf,,,,,,,,,,,,,,,,,,,,,,,l,1,1.3278,"[""0.121"",""0.385"",""0.609"",""0.350""]","[1,1,1,0]",0,18,18,18,1,1,0,,,1,FALSE,,,,,,,,,,,,,,,,,,,,,,,,,,,,,,,
,5f95155d7ae37e0009ed42ac,627c6fc1b368a87425bdae67,2022-05-11_21h24.54.205,classification_task,2021.2.3,Win32,39.43062182,627c6715c52fd12f31907bcf,,,,,,,,,,,,,,,,,,,,,,,a,1,2.8073,"[""0.238"",""0.499"",""0.457"",""0.955""]","[1,1,0,1]",0,19,19,19,1,0,1,,,1,FALSE,,,,,,,,,,,,,,,,,,,,,,,,,,,,,,,
,5f95155d7ae37e0009ed42ac,627c6fc1b368a87425bdae67,2022-05-11_21h24.54.205,classification_task,2021.2.3,Win32,39.43062182,627c6715c52fd12f31907bcf,,,,,,,,,,,,,,,,,,,,,,,l,1,1.242,"[""0.056"",""0.299"",""0.457"",""0.804""]","[1,1,0,1]",0,20,20,20,1,1,1,,,1,FALSE,,,,,,,,,,,,,,,,,,,,,,,,,,,,,,,
,5f95155d7ae37e0009ed42ac,627c6fc1b368a87425bdae67,2022-05-11_21h24.54.205,classification_task,2021.2.3,Win32,39.43062182,627c6715c52fd12f31907bcf,,,,,,,,,,,,,,,,,,,,,,,a,1,2.5742,"[""0.178"",""0.422"",""0.351"",""0.918""]","[1,1,0,1]",0,21,21,21,1,0,0,,,1,FALSE,,,,,,,,,,,,,,,,,,,,,,,,,,,,,,,
,5f95155d7ae37e0009ed42ac,627c6fc1b368a87425bdae67,2022-05-11_21h24.54.205,classification_task,2021.2.3,Win32,39.43062182,627c6715c52fd12f31907bcf,,,,,,,,,,,,,,,,,,,,,,,a,1,1.5709,"[""0.238"",""0.499"",""0.688"",""0.763""]","[1,1,1,0]",0,22,22,22,1,0,1,,,1,FALSE,,,,,,,,,,,,,,,,,,,,,,,,,,,,,,,
,5f95155d7ae37e0009ed42ac,627c6fc1b368a87425bdae67,2022-05-11_21h24.54.205,classification_task,2021.2.3,Win32,39.43062182,627c6715c52fd12f31907bcf,,,,,,,,,,,,,,,,,,,,,,,l,1,1.8466,"[""0.343"",""0.385"",""0.609"",""0.729""]","[0,1,1,1]",0,23,23,23,1,1,0,,,1,FALSE,,,,,,,,,,,,,,,,,,,,,,,,,,,,,,,
,5f95155d7ae37e0009ed42ac,627c6fc1b368a87425bdae67,2022-05-11_21h24.54.205,classification_task,2021.2.3,Win32,39.43062182,627c6715c52fd12f31907bcf,,,,,,,,,,,,,,,,,,,,,,,l,0,2.2857,"[""0.841"",""0.499"",""0.688"",""0.955""]","[0,1,1,1]",0,24,24,24,1,0,1,,,1,FALSE,,,,,,,,,,,,,,,,,,,,,,,,,,,,,,,
,5f95155d7ae37e0009ed42ac,627c6fc1b368a87425bdae67,2022-05-11_21h24.54.205,classification_task,2021.2.3,Win32,39.43062182,627c6715c52fd12f31907bcf,,,,,,,,,,,,,,,,,,,,,,,a,1,2.4105,"[""0.178"",""0.343"",""0.877"",""0.918""]","[1,0,1,1]",0,25,25,25,1,0,0,,,1,FALSE,,,,,,,,,,,,,,,,,,,,,,,,,,,,,,,
,5f95155d7ae37e0009ed42ac,627c6fc1b368a87425bdae67,2022-05-11_21h24.54.205,classification_task,2021.2.3,Win32,39.43062182,627c6715c52fd12f31907bcf,,,,,,,,,,,,,,,,,,,,,,,l,1,1.4038,"[""0.056"",""0.350"",""0.550"",""0.804""]","[1,0,1,1]",0,26,26,26,1,1,1,,,1,FALSE,,,,,,,,,,,,,,,,,,,,,,,,,,,,,,,
,5f95155d7ae37e0009ed42ac,627c6fc1b368a87425bdae67,2022-05-11_21h24.54.205,classification_task,2021.2.3,Win32,39.43062182,627c6715c52fd12f31907bcf,,,,,,,,,,,,,,,,,,,,,,,a,1,1.2462,"[""0.178"",""0.422"",""0.877"",""0.647""]","[1,1,1,0]",0,27,27,27,1,0,0,,,1,FALSE,,,,,,,,,,,,,,,,,,,,,,,,,,,,,,,
,5f95155d7ae37e0009ed42ac,627c6fc1b368a87425bdae67,2022-05-11_21h24.54.205,classification_task,2021.2.3,Win32,39.43062182,627c6715c52fd12f31907bcf,,,,,,,,,,,,,,,,,,,,,,,l,1,1.0522,"[""0.121"",""0.385"",""0.764"",""0.729""]","[1,1,0,1]",0,28,28,28,1,1,0,,,1,FALSE,,,,,,,,,,,,,,,,,,,,,,,,,,,,,,,
,5f95155d7ae37e0009ed42ac,627c6fc1b368a87425bdae67,2022-05-11_21h24.54.205,classification_task,2021.2.3,Win32,39.43062182,627c6715c52fd12f31907bcf,,,,,,,,,,,,,,,,,,,,,,,l,1,0.6123,"[""0.121"",""0.647"",""0.609"",""0.729""]","[1,0,1,1]",0,29,29,29,1,1,0,,,1,FALSE,,,,,,,,,,,,,,,,,,,,,,,,,,,,,,,
,5f95155d7ae37e0009ed42ac,627c6fc1b368a87425bdae67,2022-05-11_21h24.54.205,classification_task,2021.2.3,Win32,39.43062182,627c6715c52fd12f31907bcf,,,,,,,,,,,,,,,,,,,,,,,a,1,1.812,"[""0.238"",""0.841"",""0.688"",""0.955""]","[1,0,1,1]",0,30,30,30,1,0,1,,,1,FALSE,,,,,,,,,,,,,,,,,,,,,,,,,,,,,,,
,5f95155d7ae37e0009ed42ac,627c6fc1b368a87425bdae67,2022-05-11_21h24.54.205,classification_task,2021.2.3,Win32,39.43062182,627c6715c52fd12f31907bcf,,,,,,,,,,,,,,,,,,,,,,,l,0,1.6303,"[""0.343"",""0.422"",""0.877"",""0.918""]","[0,1,1,1]",0,31,31,31,1,0,0,,,1,FALSE,,,,,,,,,,,,,,,,,,,,,,,,,,,,,,,
,5f95155d7ae37e0009ed42ac,627c6fc1b368a87425bdae67,2022-05-11_21h24.54.205,classification_task,2021.2.3,Win32,39.43062182,627c6715c52fd12f31907bcf,,,,,,,,,,,,,,,,,,,,,,,l,0,1.6234,"[""0.338"",""0.422"",""0.877"",""0.918""]","[0,1,1,1]",0,32,32,32,1,0,0,,,1,FALSE,,,,,,,,,,,,,,,,,,,,,,,,,,,,,,,
,5f95155d7ae37e0009ed42ac,627c6fc1b368a87425bdae67,2022-05-11_21h24.54.205,classification_task,2021.2.3,Win32,39.43062182,627c6715c52fd12f31907bcf,,,,,,,,,,,,,,,,,,,,,,,a,0,1.6255,"[""0.764"",""0.385"",""0.609"",""0.729""]","[0,1,1,1]",0,33,33,33,1,1,0,,,1,FALSE,,,,,,,,,,,,,,,,,,,,,,,,,,,,,,,
,5f95155d7ae37e0009ed42ac,627c6fc1b368a87425bdae67,2022-05-11_21h24.54.205,classification_task,2021.2.3,Win32,39.43062182,627c6715c52fd12f31907bcf,,,,,,,,,,,,,,,,,,,,,,,a,1,1.6259,"[""0.238"",""0.499"",""0.343"",""0.955""]","[1,1,0,1]",0,34,34,34,1,0,1,,,1,FALSE,,,,,,,,,,,,,,,,,,,,,,,,,,,,,,,
,5f95155d7ae37e0009ed42ac,627c6fc1b368a87425bdae67,2022-05-11_21h24.54.205,classification_task,2021.2.3,Win32,39.43062182,627c6715c52fd12f31907bcf,,,,,,,,,,,,,,,,,,,,,,,a,1,1.0991,"[""0.178"",""0.422"",""0.877"",""0.769""]","[1,1,1,0]",0,35,35,35,1,0,0,,,1,FALSE,,,,,,,,,,,,,,,,,,,,,,,,,,,,,,,
,5f95155d7ae37e0009ed42ac,627c6fc1b368a87425bdae67,2022-05-11_21h24.54.205,classification_task,2021.2.3,Win32,39.43062182,627c6715c52fd12f31907bcf,,,,,,,,,,,,,,,,,,,,,,,a,0,1.8363,"[""0.351"",""0.299"",""0.550"",""0.804""]","[0,1,1,1]",0,36,36,36,1,1,1,,,1,FALSE,,,,,,,,,,,,,,,,,,,,,,,,,,,,,,,
,5f95155d7ae37e0009ed42ac,627c6fc1b368a87425bdae67,2022-05-11_21h24.54.205,classification_task,2021.2.3,Win32,39.43062182,627c6715c52fd12f31907bcf,,,,,,,,,,,,,,,,,,,,,,,l,0,1.7674,"[""0.238"",""0.499"",""0.688"",""0.351""]","[1,1,1,0]",0,37,37,37,1,0,1,,,1,FALSE,,,,,,,,,,,,,,,,,,,,,,,,,,,,,,,
,5f95155d7ae37e0009ed42ac,627c6fc1b368a87425bdae67,2022-05-11_21h24.54.205,classification_task,2021.2.3,Win32,39.43062182,627c6715c52fd12f31907bcf,,,,,,,,,,,,,,,,,,,,,,,a,1,1.84,"[""0.178"",""0.422"",""0.343"",""0.918""]","[1,1,0,1]",0,38,38,38,1,0,0,,,1,FALSE,,,,,,,,,,,,,,,,,,,,,,,,,,,,,,,
,5f95155d7ae37e0009ed42ac,627c6fc1b368a87425bdae67,2022-05-11_21h24.54.205,classification_task,2021.2.3,Win32,39.43062182,627c6715c52fd12f31907bcf,,,,,,,,,,,,,,,,,,,,,,,a,1,2.0076,"[""0.343"",""0.499"",""0.688"",""0.955""]","[0,1,1,1]",0,39,39,39,1,0,1,,,1,FALSE,,,,,,,,,,,,,,,,,,,,,,,,,,,,,,,
,5f95155d7ae37e0009ed42ac,627c6fc1b368a87425bdae67,2022-05-11_21h24.54.205,classification_task,2021.2.3,Win32,39.43062182,627c6715c52fd12f31907bcf,,,,,,,,,,,,,,,,,,,,,,,l,1,1.4907,"[""0.121"",""0.385"",""0.764"",""0.729""]","[1,1,0,1]",0,40,40,40,1,1,0,,,1,FALSE,,,,,,,,,,,,,,,,,,,,,,,,,,,,,,,
,5f95155d7ae37e0009ed42ac,627c6fc1b368a87425bdae67,2022-05-11_21h24.54.205,classification_task,2021.2.3,Win32,39.43062182,627c6715c52fd12f31907bcf,,,,,,,,,,,,,,,,,,,,,,,l,1,1.281,"[""0.121"",""0.350"",""0.609"",""0.729""]","[1,0,1,1]",0,41,41,41,1,1,0,,,1,FALSE,,,,,,,,,,,,,,,,,,,,,,,,,,,,,,,
,5f95155d7ae37e0009ed42ac,627c6fc1b368a87425bdae67,2022-05-11_21h24.54.205,classification_task,2021.2.3,Win32,39.43062182,627c6715c52fd12f31907bcf,,,,,,,,,,,,,,,,,,,,,,,a,1,0.9218,"[""0.178"",""0.764"",""0.877"",""0.918""]","[1,0,1,1]",0,42,42,42,1,0,0,,,1,FALSE,,,,,,,,,,,,,,,,,,,,,,,,,,,,,,,
,5f95155d7ae37e0009ed42ac,627c6fc1b368a87425bdae67,2022-05-11_21h24.54.205,classification_task,2021.2.3,Win32,39.43062182,627c6715c52fd12f31907bcf,,,,,,,,,,,,,,,,,,,,,,,l,1,1.1501,"[""0.121"",""0.385"",""0.609"",""0.654""]","[1,1,1,0]",0,43,43,43,1,1,0,,,1,FALSE,,,,,,,,,,,,,,,,,,,,,,,,,,,,,,,
,5f95155d7ae37e0009ed42ac,627c6fc1b368a87425bdae67,2022-05-11_21h24.54.205,classification_task,2021.2.3,Win32,39.43062182,627c6715c52fd12f31907bcf,,,,,,,,,,,,,,,,,,,,,,,a,1,1.226,"[""0.238"",""0.343"",""0.688"",""0.955""]","[1,0,1,1]",0,44,44,44,1,0,1,,,1,FALSE,,,,,,,,,,,,,,,,,,,,,,,,,,,,,,,
,5f95155d7ae37e0009ed42ac,627c6fc1b368a87425bdae67,2022-05-11_21h24.54.205,classification_task,2021.2.3,Win32,39.43062182,627c6715c52fd12f31907bcf,,,,,,,,,,,,,,,,,,,,,,,l,1,1.2476,"[""0.056"",""0.763"",""0.550"",""0.804""]","[1,0,1,1]",0,45,45,45,1,1,1,,,1,FALSE,,,,,,,,,,,,,,,,,,,,,,,,,,,,,,,
,5f95155d7ae37e0009ed42ac,627c6fc1b368a87425bdae67,2022-05-11_21h24.54.205,classification_task,2021.2.3,Win32,39.43062182,627c6715c52fd12f31907bcf,,,,,,,,,,,,,,,,,,,,,,,l,1,1.3802,"[""0.056"",""0.299"",""0.763"",""0.804""]","[1,1,0,1]",0,46,46,46,1,1,1,,,1,FALSE,,,,,,,,,,,,,,,,,,,,,,,,,,,,,,,
,5f95155d7ae37e0009ed42ac,627c6fc1b368a87425bdae67,2022-05-11_21h24.54.205,classification_task,2021.2.3,Win32,39.43062182,627c6715c52fd12f31907bcf,,,,,,,,,,,,,,,,,,,,,,,l,1,1.3524,"[""0.056"",""0.299"",""0.550"",""0.647""]","[1,1,1,0]",0,47,47,47,1,1,1,,,1,FALSE,,,,,,,,,,,,,,,,,,,,,,,,,,,,,,,
,5f95155d7ae37e0009ed42ac,627c6fc1b368a87425bdae67,2022-05-11_21h24.54.205,classification_task,2021.2.3,Win32,39.43062182,627c6715c52fd12f31907bcf,,,,,,,,,,,,,,,,,,,,,,,l,1,2.0357,"[""0.056"",""0.842"",""0.550"",""0.804""]","[1,0,1,1]",0,48,48,48,1,1,1,,,1,FALSE,,,,,,,,,,,,,,,,,,,,,,,,,,,,,,,
,5f95155d7ae37e0009ed42ac,627c6fc1b368a87425bdae67,2022-05-11_21h24.54.205,classification_task,2021.2.3,Win32,39.43062182,627c6715c52fd12f31907bcf,,,,,,,,,,,,,,,,,,,,,,,l,1,2.4006,"[""0.121"",""0.385"",""0.841"",""0.729""]","[1,1,0,1]",0,49,49,49,1,1,0,,,1,FALSE,,,,,,,,,,,,,,,,,,,,,,,,,,,,,,,
,5f95155d7ae37e0009ed42ac,627c6fc1b368a87425bdae67,2022-05-11_21h24.54.205,classification_task,2021.2.3,Win32,39.43062182,627c6715c52fd12f31907bcf,,,,,,,,,,,,,,,,,,,,,,,a,0,1.5694,"[""0.763"",""0.299"",""0.550"",""0.804""]","[0,1,1,1]",0,50,50,50,1,1,1,,,1,FALSE,,,,,,,,,,,,,,,,,,,,,,,,,,,,,,,
,5f95155d7ae37e0009ed42ac,627c6fc1b368a87425bdae67,2022-05-11_21h24.54.205,classification_task,2021.2.3,Win32,39.43062182,627c6715c52fd12f31907bcf,,,,,,,,,,,,,,,,,,,,,,,a,1,1.3067,"[""0.238"",""0.340"",""0.688"",""0.955""]","[1,0,1,1]",0,51,51,51,1,0,1,,,1,FALSE,,,,,,,,,,,,,,,,,,,,,,,,,,,,,,,
,5f95155d7ae37e0009ed42ac,627c6fc1b368a87425bdae67,2022-05-11_21h24.54.205,classification_task,2021.2.3,Win32,39.43062182,627c6715c52fd12f31907bcf,,,,,,,,,,,,,,,,,,,,,,,a,1,1.2878,"[""0.238"",""0.499"",""0.688"",""0.343""]","[1,1,1,0]",0,52,52,52,1,0,1,,,1,FALSE,,,,,,,,,,,,,,,,,,,,,,,,,,,,,,,
,5f95155d7ae37e0009ed42ac,627c6fc1b368a87425bdae67,2022-05-11_21h24.54.205,classification_task,2021.2.3,Win32,39.43062182,627c6715c52fd12f31907bcf,,,,,,,,,,,,,,,,,,,,,,,l,1,0.9387,"[""0.056"",""0.299"",""0.550"",""0.654""]","[1,1,1,0]",0,53,53,53,1,1,1,,,1,FALSE,,,,,,,,,,,,,,,,,,,,,,,,,,,,,,,
,5f95155d7ae37e0009ed42ac,627c6fc1b368a87425bdae67,2022-05-11_21h24.54.205,classification_task,2021.2.3,Win32,39.43062182,627c6715c52fd12f31907bcf,,,,,,,,,,,,,,,,,,,,,,,a,1,1.0014,"[""0.178"",""0.769"",""0.877"",""0.918""]","[1,0,1,1]",0,54,54,54,1,0,0,,,1,FALSE,,,,,,,,,,,,,,,,,,,,,,,,,,,,,,,
,5f95155d7ae37e0009ed42ac,627c6fc1b368a87425bdae67,2022-05-11_21h24.54.205,classification_task,2021.2.3,Win32,39.43062182,627c6715c52fd12f31907bcf,,,,,,,,,,,,,,,,,,,,,,,a,1,1.2968,"[""0.178"",""0.422"",""0.841"",""0.918""]","[1,1,0,1]",0,55,55,55,1,0,0,,,1,FALSE,,,,,,,,,,,,,,,,,,,,,,,,,,,,,,,
,5f95155d7ae37e0009ed42ac,627c6fc1b368a87425bdae67,2022-05-11_21h24.54.205,classification_task,2021.2.3,Win32,39.43062182,627c6715c52fd12f31907bcf,,,,,,,,,,,,,,,,,,,,,,,l,0,1.8587,"[""0.841"",""0.422"",""0.877"",""0.918""]","[0,1,1,1]",0,56,56,56,1,0,0,,,1,FALSE,,,,,,,,,,,,,,,,,,,,,,,,,,,,,,,
,5f95155d7ae37e0009ed42ac,627c6fc1b368a87425bdae67,2022-05-11_21h24.54.205,classification_task,2021.2.3,Win32,39.43062182,627c6715c52fd12f31907bcf,,,,,,,,,,,,,,,,,,,,,,,a,1,1.4016,"[""0.763"",""0.499"",""0.688"",""0.955""]","[0,1,1,1]",0,57,57,57,1,0,1,,,1,FALSE,,,,,,,,,,,,,,,,,,,,,,,,,,,,,,,
,5f95155d7ae37e0009ed42ac,627c6fc1b368a87425bdae67,2022-05-11_21h24.54.205,classification_task,2021.2.3,Win32,39.43062182,627c6715c52fd12f31907bcf,,,,,,,,,,,,,,,,,,,,,,,a,1,1.0471,"[""0.238"",""0.499"",""0.457"",""0.955""]","[1,1,0,1]",0,58,58,58,1,0,1,,,1,FALSE,,,,,,,,,,,,,,,,,,,,,,,,,,,,,,,
,5f95155d7ae37e0009ed42ac,627c6fc1b368a87425bdae67,2022-05-11_21h24.54.205,classification_task,2021.2.3,Win32,39.43062182,627c6715c52fd12f31907bcf,,,,,,,,,,,,,,,,,,,,,,,l,1,2.5731,"[""0.121"",""0.457"",""0.609"",""0.729""]","[1,0,1,1]",0,59,59,59,1,1,0,,,1,FALSE,,,,,,,,,,,,,,,,,,,,,,,,,,,,,,,
,5f95155d7ae37e0009ed42ac,627c6fc1b368a87425bdae67,2022-05-11_21h24.54.205,classification_task,2021.2.3,Win32,39.43062182,627c6715c52fd12f31907bcf,,,,,,,,,,,,,,,,,,,,,,,a,1,1.6907,"[""0.178"",""0.422"",""0.877"",""0.763""]","[1,1,1,0]",0,60,60,60,1,0,0,,,1,FALSE,,,,,,,,,,,,,,,,,,,,,,,,,,,,,,,
,5f95155d7ae37e0009ed42ac,627c6fc1b368a87425bdae67,2022-05-11_21h24.54.205,classification_task,2021.2.3,Win32,39.43062182,627c6715c52fd12f31907bcf,,,,,,,,,,,,,,,,,,,,,,,l,1,1.5229,"[""0.056"",""0.299"",""0.764"",""0.804""]","[1,1,0,1]",0,61,61,61,1,1,1,,,1,FALSE,,,,,,,,,,,,,,,,,,,,,,,,,,,,,,,
,5f95155d7ae37e0009ed42ac,627c6fc1b368a87425bdae67,2022-05-11_21h24.54.205,classification_task,2021.2.3,Win32,39.43062182,627c6715c52fd12f31907bcf,,,,,,,,,,,,,,,,,,,,,,,l,1,1.8215,"[""0.121"",""0.385"",""0.609"",""0.841""]","[1,1,1,0]",0,62,62,62,1,1,0,,,1,FALSE,,,,,,,,,,,,,,,,,,,,,,,,,,,,,,,
,5f95155d7ae37e0009ed42ac,627c6fc1b368a87425bdae67,2022-05-11_21h24.54.205,classification_task,2021.2.3,Win32,39.43062182,627c6715c52fd12f31907bcf,,,,,,,,,,,,,,,,,,,,,,,a,0,0.9273,"[""0.351"",""0.385"",""0.609"",""0.729""]","[0,1,1,1]",0,63,63,63,1,1,0,,,1,FALSE,,,,,,,,,,,,,,,,,,,,,,,,,,,,,,,
,5f95155d7ae37e0009ed42ac,627c6fc1b368a87425bdae67,2022-05-11_21h24.54.205,classification_task,2021.2.3,Win32,39.43062182,627c6715c52fd12f31907bcf,,,,,,,,,,,,,,,,,,,,,,,,,,,,,,,,,,,,,,,0, ,,0,4.114139145,193.1906,0,2,2,2,1,2,3,,,,,,,,,,,,,,,,,,
,5f95155d7ae37e0009ed42ac,627c6fc1b368a87425bdae67,2022-05-11_21h24.54.205,classification_task,2021.2.3,Win32,39.43062182,627c6715c52fd12f31907bcf,,,,,,,,,,,,,,,,,,,,,,,,,,,,,,,,,,,,,,,1,  ,,0,9.550103485,196.9926,0,2,2,2,1,2,3,,,,,,,,,,,,,,,,,,
,5f95155d7ae37e0009ed42ac,627c6fc1b368a87425bdae67,2022-05-11_21h24.54.205,classification_task,2021.2.3,Win32,39.43062182,627c6715c52fd12f31907bcf,,,,,,,,,,,,,,,,,,,,,,,,,,,,,,,,,,,,,,,2,  ,,0,9.509837082,204.6399,0,2,2,2,1,2,3,,,,,,,,,,,,,,,,,,
,5f95155d7ae37e0009ed42ac,627c6fc1b368a87425bdae67,2022-05-11_21h24.54.205,classification_task,2021.2.3,Win32,39.43062182,627c6715c52fd12f31907bcf,,,,,,,,,,,,,,,,,,,,,,,,,,,,,,,,,,,,,,,,,,,,,0,2,2,2,1,,3,,,,,,,,,,,,,,,,,,
,5f95155d7ae37e0009ed42ac,627c6fc1b368a87425bdae67,2022-05-11_21h24.54.205,classification_task,2021.2.3,Win32,39.43062182,627c6715c52fd12f31907bcf,,,,,,,,,,,,,,,,,,,,,,,,,,,,,,,,,,,,,,,,,,,,,,,,,,,,,I believe the aid is a competent performer,,0.7,0,5,958.2761,0,0,0,0,1,0,,,,,
,5f95155d7ae37e0009ed42ac,627c6fc1b368a87425bdae67,2022-05-11_21h24.54.205,classification_task,2021.2.3,Win32,39.43062182,627c6715c52fd12f31907bcf,,,,,,,,,,,,,,,,,,,,,,,,,,,,,,,,,,,,,,,,,,,,,,,,,,,,,I trust the aid,,0.7,0,4,996.7342,0,0,0,0,1,0,,,,,
,5f95155d7ae37e0009ed42ac,627c6fc1b368a87425bdae67,2022-05-11_21h24.54.205,classification_task,2021.2.3,Win32,39.43062182,627c6715c52fd12f31907bcf,,,,,,,,,,,,,,,,,,,,,,,,,,,,,,,,,,,,,,,,,,,,,,,,,,,,,I have confidence in the advice given by the aid,,0.7,0,4,997.9833,0,0,0,0,1,0,,,,,
,5f95155d7ae37e0009ed42ac,627c6fc1b368a87425bdae67,2022-05-11_21h24.54.205,classification_task,2021.2.3,Win32,39.43062182,627c6715c52fd12f31907bcf,,,,,,,,,,,,,,,,,,,,,,,,,,,,,,,,,,,,,,,,,,,,,,,,,,,,,I can depend on the aid,,0.7,0,5,962.8772,0,0,0,0,1,0,,,,,
,5f95155d7ae37e0009ed42ac,627c6fc1b368a87425bdae67,2022-05-11_21h24.54.205,classification_task,2021.2.3,Win32,39.43062182,627c6715c52fd12f31907bcf,,,,,,,,,,,,,,,,,,,,,,,,,,,,,,,,,,,,,,,,,,,,,,,,,,,,,I can rely on the aid to behave in consistent ways,,0.7,0,5,965.472,0,0,0,0,1,0,,,,,
,5f95155d7ae37e0009ed42ac,627c6fc1b368a87425bdae67,2022-05-11_21h24.54.205,classification_task,2021.2.3,Win32,39.43062182,627c6715c52fd12f31907bcf,,,,,,,,,,,,,,,,,,,,,,,,,,,,,,,,,,,,,,,,,,,,,,,,,,,,,I can rely on the aid to do its best every time I take its advice,,0.7,0,5,968.6183,0,0,0,0,1,0,,,,,
,5f95155d7ae37e0009ed42ac,627c6fc1b368a87425bdae67,2022-05-11_21h24.54.205,classification_task,2021.2.3,Win32,39.43062182,627c6715c52fd12f31907bcf,,,,,,,,,,,,,,,,,,,,,,,,,,,,,,,,,,,,,,,,,,,,,,,,,,,,,"On trials you completed with assistance from the aid, how frequently did you think the aid was correct?",,0.7,0,90,,0,0,0,0,1,0,,,,,
,5f95155d7ae37e0009ed42ac,627c6fc1b368a87425bdae67,2022-05-11_21h24.54.205,classification_task,2021.2.3,Win32,39.43062182,627c6715c52fd12f31907bcf,,,,,,,,,,,,,,,,,,,,,,,,,,,,,,,,,,,,,,,,,,,,,,,,,,,,,"On trials you completed without the aid, how frequently did you think you were correct?",,0.7,0,75,,0,0,0,0,1,0,,,,,
,5f95155d7ae37e0009ed42ac,627c6fc1b368a87425bdae67,2022-05-11_21h24.54.205,classification_task,2021.2.3,Win32,39.43062182,627c6715c52fd12f31907bcf,,,,,,,,,,,,,,,,,,,,,,,,,,,,,,,,,,,,,,,,,,,,,,,,,,,,,,,,,,,0,0,0,0,1,,,,,,
,5f95155d7ae37e0009ed42ac,627c6fc1b368a87425bdae67,2022-05-11_21h24.54.205,classification_task,2021.2.3,Win32,39.43062182,627c6715c52fd12f31907bcf,,,,,,,,,,,,,,,,,,,,,,,,,,,,,,,,,,,,,,,,,,,,,,,,,,,,,,,,,,,,,,,,,h,11.94,1016.0884,,
,5f95155d7ae37e0009ed42ac,627c6fc1b368a87425bdae67,2022-05-11_21h24.54.205,classification_task,2021.2.3,Win32,39.43062182,627c6715c52fd12f31907bcf,,,,,,,,,,,,,,,,,,,,,,,,,,,,,,,,,,,,,,,,,,,,,,,,,,,,,,,,,,,,,,,,,,,,"Mozilla/5.0 (Windows NT 6.1; Win64; x64) AppleWebKit/537.36 (KHTML, like Gecko) Chrome/101.0.4951.64 Safari/537.36",
,5f95155d7ae37e0009ed42ac,627c6fc1b368a87425bdae67,2022-05-11_21h24.54.205,classification_task,2021.2.3,Win32,39.43062182,627c6715c52fd12f31907bcf,,,,,,,,,,,,,,,,,,,,,,,,,,,,,,,,,,,,,,,,,,,,,,,,,,,,,,,,,,,,,,,,,,,,,FADING
