usingWebGL,participant,session,date,expName,psychopyVersion,OS,frameRate,PROLIFIC_PID,STUDY_ID,SESSION_ID,signatures_friend,signatures_foe,band_ranges_top,band_ranges_bottom,formitemText,formtype,formundefined,formitemWidth,formindex,formresponse,formrt,key_resp_2.keys,key_resp_2.rt,tute_resp.keys,tute_resp.rt,tutorial.thisRepN,tutorial.thisTrialN,tutorial.thisN,tutorial.thisIndex,tutorial.ran,key_resp_4.keys,key_resp_4.rt,key_resp.keys,key_resp.corr,key_resp.rt,lines_presented,is_signal_presented,trials.thisRepN,trials.thisTrialN,trials.thisN,trials.thisIndex,trials.ran,vessel,active_band,lines,is_signal,supported_pos,catch_trial,debrief_formindex,debrief_formitemText,debrief_formtype,debrief_formitemWidth,debrief_formresponse,debrief_formrt,phases.thisRepN,phases.thisTrialN,phases.thisN,phases.thisIndex,phases.ran,phases.order,phase,key_resp_3.keys,trustitemText,trusttype,trustitemWidth,trustindex,trustresponse,trustrt,support_status.thisRepN,support_status.thisTrialN,support_status.thisN,support_status.thisIndex,support_status.ran,support_status.order,key_resp_5.keys,key_resp_5.rt,globalClockTime,userAgent
TRUE,5f9920fdbcbfb224a0c96932,001,2022-04-29_10h42.32.492,classification_task,2021.2.3,Win32,60.0240096,5f9920fdbcbfb224a0c96932,626b377229c10585ec392f8a,626b3b488e63d823d729a59a,,,,,,,,,,,,,,,,,,,,,,,,,,,,,,,,,,,,,,,,,,,,,,,,,,,,,,,,,,,,,,,,,,,,
,5f9920fdbcbfb224a0c96932,001,2022-04-29_10h42.32.492,classification_task,2021.2.3,Win32,60.0240096,5f9920fdbcbfb224a0c96932,626b377229c10585ec392f8a,626b3b488e63d823d729a59a,"[[""0.213"",""0.498"",""0.919"",""0.974""],[""0.249"",""0.422"",""0.696"",""0.884""]]","[[""0.058"",""0.335"",""0.464"",""0.773""],[""0.112"",""0.147"",""0.621"",""0.830""]]","[1,10]","[100,1000]",Video game experience,,,0.7,0,,,,,,,,,,,,,,,,,,,,,,,,,,,,,,,,,,,,,,,,,,,,,,,,,,,,,,,,,,,
,5f9920fdbcbfb224a0c96932,001,2022-04-29_10h42.32.492,classification_task,2021.2.3,Win32,60.0240096,5f9920fdbcbfb224a0c96932,626b377229c10585ec392f8a,626b3b488e63d823d729a59a,,,,,Approximately how many hours did you spend playing video games in the last week?,,,0.7,0,0,,,,,,,,,,,,,,,,,,,,,,,,,,,,,,,,,,,,,,,,,,,,,,,,,,,,,,,,,,
,5f9920fdbcbfb224a0c96932,001,2022-04-29_10h42.32.492,classification_task,2021.2.3,Win32,60.0240096,5f9920fdbcbfb224a0c96932,626b377229c10585ec392f8a,626b3b488e63d823d729a59a,,,,,"Which game did you play the most this year? (Enter ""None"" if you didn't play any)",,,0.7,0,none,,,,,,,,,,,,,,,,,,,,,,,,,,,,,,,,,,,,,,,,,,,,,,,,,,,,,,,,,,
,5f9920fdbcbfb224a0c96932,001,2022-04-29_10h42.32.492,classification_task,2021.2.3,Win32,60.0240096,5f9920fdbcbfb224a0c96932,626b377229c10585ec392f8a,626b3b488e63d823d729a59a,,,,,Visual perception,,,0.7,0,,,,,,,,,,,,,,,,,,,,,,,,,,,,,,,,,,,,,,,,,,,,,,,,,,,,,,,,,,,
,5f9920fdbcbfb224a0c96932,001,2022-04-29_10h42.32.492,classification_task,2021.2.3,Win32,60.0240096,5f9920fdbcbfb224a0c96932,626b377229c10585ec392f8a,626b3b488e63d823d729a59a,,,,,Do you have any form of color blindness?,,,0.7,0,No,21.633,,,,,,,,,,,,,,,,,,,,,,,,,,,,,,,,,,,,,,,,,,,,,,,,,,,,,,,,,
,5f9920fdbcbfb224a0c96932,001,2022-04-29_10h42.32.492,classification_task,2021.2.3,Win32,60.0240096,5f9920fdbcbfb224a0c96932,626b377229c10585ec392f8a,626b3b488e63d823d729a59a,,,,,Do you use software to change the colour temperature of your screen (e.g. f.lux)?,,,0.7,0,No,25.646,,,,,,,,,,,,,,,,,,,,,,,,,,,,,,,,,,,,,,,,,,,,,,,,,,,,,,,,,
,5f9920fdbcbfb224a0c96932,001,2022-04-29_10h42.32.492,classification_task,2021.2.3,Win32,60.0240096,5f9920fdbcbfb224a0c96932,626b377229c10585ec392f8a,626b3b488e63d823d729a59a,,,,,,,,,,,,space,41.249,space,13.168,0,0,0,0,1,,,,,,,,,,,,,,,,,,,,,,,,,,,,,,,,,,,,,,,,,,,,,,,,
,5f9920fdbcbfb224a0c96932,001,2022-04-29_10h42.32.492,classification_task,2021.2.3,Win32,60.0240096,5f9920fdbcbfb224a0c96932,626b377229c10585ec392f8a,626b3b488e63d823d729a59a,,,,,,,,,,,,,,space,11.842,1,0,1,0,1,,,,,,,,,,,,,,,,,,,,,,,,,,,,,,,,,,,,,,,,,,,,,,,,
,5f9920fdbcbfb224a0c96932,001,2022-04-29_10h42.32.492,classification_task,2021.2.3,Win32,60.0240096,5f9920fdbcbfb224a0c96932,626b377229c10585ec392f8a,626b3b488e63d823d729a59a,,,,,,,,,,,,,,space,41.234,2,0,2,0,1,,,,,,,,,,,,,,,,,,,,,,,,,,,,,,,,,,,,,,,,,,,,,,,,
,5f9920fdbcbfb224a0c96932,001,2022-04-29_10h42.32.492,classification_task,2021.2.3,Win32,60.0240096,5f9920fdbcbfb224a0c96932,626b377229c10585ec392f8a,626b3b488e63d823d729a59a,,,,,,,,,,,,,,space,6.617,3,0,3,0,1,,,,,,,,,,,,,,,,,,,,,,,,,,,,,,,,,,,,,,,,,,,,,,,,
,5f9920fdbcbfb224a0c96932,001,2022-04-29_10h42.32.492,classification_task,2021.2.3,Win32,60.0240096,5f9920fdbcbfb224a0c96932,626b377229c10585ec392f8a,626b3b488e63d823d729a59a,,,,,,,,,,,,,,space,24.408,4,0,4,0,1,,,,,,,,,,,,,,,,,,,,,,,,,,,,,,,,,,,,,,,,,,,,,,,,
,5f9920fdbcbfb224a0c96932,001,2022-04-29_10h42.32.492,classification_task,2021.2.3,Win32,60.0240096,5f9920fdbcbfb224a0c96932,626b377229c10585ec392f8a,626b3b488e63d823d729a59a,,,,,,,,,,,,,,,,,,,,,space,15.121,l,1,9.025,"[""0.112"",""0.147"",""0.381"",""0.830""]","[1,1,0,1]",0,0,0,0,1,1,1,,,1,FALSE,,,,,,,,,,,,,,,,,,,,,,,,,,,,,,
,5f9920fdbcbfb224a0c96932,001,2022-04-29_10h42.32.492,classification_task,2021.2.3,Win32,60.0240096,5f9920fdbcbfb224a0c96932,626b377229c10585ec392f8a,626b3b488e63d823d729a59a,,,,,,,,,,,,,,,,,,,,,,,a,1,7.931,"[""0.249"",""0.422"",""0.696"",""0.548""]","[1,1,1,0]",0,1,1,1,1,0,1,,,1,FALSE,,,,,,,,,,,,,,,,,,,,,,,,,,,,,,
,5f9920fdbcbfb224a0c96932,001,2022-04-29_10h42.32.492,classification_task,2021.2.3,Win32,60.0240096,5f9920fdbcbfb224a0c96932,626b377229c10585ec392f8a,626b3b488e63d823d729a59a,,,,,,,,,,,,,,,,,,,,,,,,0,,"[""0.213"",""0.296"",""0.919"",""0.974""]","[1,0,1,1]",0,2,2,2,1,0,0,,,1,FALSE,,,,,,,,,,,,,,,,,,,,,,,,,,,,,,
,5f9920fdbcbfb224a0c96932,001,2022-04-29_10h42.32.492,classification_task,2021.2.3,Win32,60.0240096,5f9920fdbcbfb224a0c96932,626b377229c10585ec392f8a,626b3b488e63d823d729a59a,,,,,,,,,,,,,,,,,,,,,,,a,1,4.981,"[""0.249"",""0.577"",""0.696"",""0.884""]","[1,0,1,1]",0,3,3,3,1,0,1,,,1,FALSE,,,,,,,,,,,,,,,,,,,,,,,,,,,,,,
,5f9920fdbcbfb224a0c96932,001,2022-04-29_10h42.32.492,classification_task,2021.2.3,Win32,60.0240096,5f9920fdbcbfb224a0c96932,626b377229c10585ec392f8a,626b3b488e63d823d729a59a,,,,,,,,,,,,,,,,,,,,,,,a,1,4.853,"[""0.582"",""0.422"",""0.696"",""0.884""]","[0,1,1,1]",0,4,4,4,1,0,1,,,1,FALSE,,,,,,,,,,,,,,,,,,,,,,,,,,,,,,
,5f9920fdbcbfb224a0c96932,001,2022-04-29_10h42.32.492,classification_task,2021.2.3,Win32,60.0240096,5f9920fdbcbfb224a0c96932,626b377229c10585ec392f8a,626b3b488e63d823d729a59a,,,,,,,,,,,,,,,,,,,,,,,l,1,4.281,"[""0.112"",""0.543"",""0.621"",""0.830""]","[1,0,1,1]",0,5,5,5,1,1,1,,,1,FALSE,,,,,,,,,,,,,,,,,,,,,,,,,,,,,,
,5f9920fdbcbfb224a0c96932,001,2022-04-29_10h42.32.492,classification_task,2021.2.3,Win32,60.0240096,5f9920fdbcbfb224a0c96932,626b377229c10585ec392f8a,626b3b488e63d823d729a59a,,,,,,,,,,,,,,,,,,,,,,,l,1,4.101,"[""0.534"",""0.335"",""0.464"",""0.773""]","[0,1,1,1]",0,6,6,6,1,1,0,,,1,FALSE,,,,,,,,,,,,,,,,,,,,,,,,,,,,,,
,5f9920fdbcbfb224a0c96932,001,2022-04-29_10h42.32.492,classification_task,2021.2.3,Win32,60.0240096,5f9920fdbcbfb224a0c96932,626b377229c10585ec392f8a,626b3b488e63d823d729a59a,,,,,,,,,,,,,,,,,,,,,,,a,1,4.037,"[""0.249"",""0.422"",""0.552"",""0.884""]","[1,1,0,1]",0,7,7,7,1,0,1,,,1,FALSE,,,,,,,,,,,,,,,,,,,,,,,,,,,,,,
,5f9920fdbcbfb224a0c96932,001,2022-04-29_10h42.32.492,classification_task,2021.2.3,Win32,60.0240096,5f9920fdbcbfb224a0c96932,626b377229c10585ec392f8a,626b3b488e63d823d729a59a,,,,,,,,,,,,,,,,,,,,,,,l,1,3.387,"[""0.058"",""0.543"",""0.464"",""0.773""]","[1,0,1,1]",0,8,8,8,1,1,0,,,1,FALSE,,,,,,,,,,,,,,,,,,,,,,,,,,,,,,
,5f9920fdbcbfb224a0c96932,001,2022-04-29_10h42.32.492,classification_task,2021.2.3,Win32,60.0240096,5f9920fdbcbfb224a0c96932,626b377229c10585ec392f8a,626b3b488e63d823d729a59a,,,,,,,,,,,,,,,,,,,,,,,l,1,3.796,"[""0.112"",""0.147"",""0.621"",""0.548""]","[1,1,1,0]",0,9,9,9,1,1,1,,,1,FALSE,,,,,,,,,,,,,,,,,,,,,,,,,,,,,,
,5f9920fdbcbfb224a0c96932,001,2022-04-29_10h42.32.492,classification_task,2021.2.3,Win32,60.0240096,5f9920fdbcbfb224a0c96932,626b377229c10585ec392f8a,626b3b488e63d823d729a59a,,,,,,,,,,,,,,,,,,,,,,,l,1,2.889,"[""0.058"",""0.335"",""0.464"",""0.577""]","[1,1,1,0]",0,10,10,10,1,1,0,,,1,FALSE,,,,,,,,,,,,,,,,,,,,,,,,,,,,,,
,5f9920fdbcbfb224a0c96932,001,2022-04-29_10h42.32.492,classification_task,2021.2.3,Win32,60.0240096,5f9920fdbcbfb224a0c96932,626b377229c10585ec392f8a,626b3b488e63d823d729a59a,,,,,,,,,,,,,,,,,,,,,,,a,1,7.265,"[""0.382"",""0.498"",""0.919"",""0.974""]","[0,1,1,1]",0,11,11,11,1,0,0,,,1,FALSE,,,,,,,,,,,,,,,,,,,,,,,,,,,,,,
,5f9920fdbcbfb224a0c96932,001,2022-04-29_10h42.32.492,classification_task,2021.2.3,Win32,60.0240096,5f9920fdbcbfb224a0c96932,626b377229c10585ec392f8a,626b3b488e63d823d729a59a,,,,,,,,,,,,,,,,,,,,,,,l,1,7.29,"[""0.058"",""0.335"",""0.730"",""0.773""]","[1,1,0,1]",0,12,12,12,1,1,0,,,1,FALSE,,,,,,,,,,,,,,,,,,,,,,,,,,,,,,
,5f9920fdbcbfb224a0c96932,001,2022-04-29_10h42.32.492,classification_task,2021.2.3,Win32,60.0240096,5f9920fdbcbfb224a0c96932,626b377229c10585ec392f8a,626b3b488e63d823d729a59a,,,,,,,,,,,,,,,,,,,,,,,l,1,5.184,"[""0.582"",""0.147"",""0.621"",""0.830""]","[0,1,1,1]",0,13,13,13,1,1,1,,,1,FALSE,,,,,,,,,,,,,,,,,,,,,,,,,,,,,,
,5f9920fdbcbfb224a0c96932,001,2022-04-29_10h42.32.492,classification_task,2021.2.3,Win32,60.0240096,5f9920fdbcbfb224a0c96932,626b377229c10585ec392f8a,626b3b488e63d823d729a59a,,,,,,,,,,,,,,,,,,,,,,,a,1,4.101,"[""0.213"",""0.498"",""0.540"",""0.974""]","[1,1,0,1]",0,14,14,14,1,0,0,,,1,FALSE,,,,,,,,,,,,,,,,,,,,,,,,,,,,,,
,5f9920fdbcbfb224a0c96932,001,2022-04-29_10h42.32.492,classification_task,2021.2.3,Win32,60.0240096,5f9920fdbcbfb224a0c96932,626b377229c10585ec392f8a,626b3b488e63d823d729a59a,,,,,,,,,,,,,,,,,,,,,,,a,1,2.579,"[""0.213"",""0.498"",""0.919"",""0.736""]","[1,1,1,0]",0,15,15,15,1,0,0,,,1,FALSE,,,,,,,,,,,,,,,,,,,,,,,,,,,,,,
,5f9920fdbcbfb224a0c96932,001,2022-04-29_10h42.32.492,classification_task,2021.2.3,Win32,60.0240096,5f9920fdbcbfb224a0c96932,626b377229c10585ec392f8a,626b3b488e63d823d729a59a,,,,,,,,,,,,,,,,,,,,,,,a,1,4.702,"[""0.730"",""0.422"",""0.696"",""0.884""]","[0,1,1,1]",0,16,16,16,1,0,1,,,1,FALSE,,,,,,,,,,,,,,,,,,,,,,,,,,,,,,
,5f9920fdbcbfb224a0c96932,001,2022-04-29_10h42.32.492,classification_task,2021.2.3,Win32,60.0240096,5f9920fdbcbfb224a0c96932,626b377229c10585ec392f8a,626b3b488e63d823d729a59a,,,,,,,,,,,,,,,,,,,,,,,l,1,5.309,"[""0.380"",""0.147"",""0.621"",""0.830""]","[0,1,1,1]",0,17,17,17,1,1,1,,,1,FALSE,,,,,,,,,,,,,,,,,,,,,,,,,,,,,,
,5f9920fdbcbfb224a0c96932,001,2022-04-29_10h42.32.492,classification_task,2021.2.3,Win32,60.0240096,5f9920fdbcbfb224a0c96932,626b377229c10585ec392f8a,626b3b488e63d823d729a59a,,,,,,,,,,,,,,,,,,,,,,,l,1,5.672,"[""0.297"",""0.335"",""0.464"",""0.773""]","[0,1,1,1]",0,18,18,18,1,1,0,,,1,FALSE,,,,,,,,,,,,,,,,,,,,,,,,,,,,,,
,5f9920fdbcbfb224a0c96932,001,2022-04-29_10h42.32.492,classification_task,2021.2.3,Win32,60.0240096,5f9920fdbcbfb224a0c96932,626b377229c10585ec392f8a,626b3b488e63d823d729a59a,,,,,,,,,,,,,,,,,,,,,,,a,1,5.592,"[""0.213"",""0.498"",""0.919"",""0.552""]","[1,1,1,0]",0,19,19,19,1,0,0,,,1,FALSE,,,,,,,,,,,,,,,,,,,,,,,,,,,,,,
,5f9920fdbcbfb224a0c96932,001,2022-04-29_10h42.32.492,classification_task,2021.2.3,Win32,60.0240096,5f9920fdbcbfb224a0c96932,626b377229c10585ec392f8a,626b3b488e63d823d729a59a,,,,,,,,,,,,,,,,,,,,,,,a,1,4.304,"[""0.249"",""0.422"",""0.696"",""0.380""]","[1,1,1,0]",0,20,20,20,1,0,1,,,1,FALSE,,,,,,,,,,,,,,,,,,,,,,,,,,,,,,
,5f9920fdbcbfb224a0c96932,001,2022-04-29_10h42.32.492,classification_task,2021.2.3,Win32,60.0240096,5f9920fdbcbfb224a0c96932,626b377229c10585ec392f8a,626b3b488e63d823d729a59a,,,,,,,,,,,,,,,,,,,,,,,a,1,3.63,"[""0.249"",""0.422"",""0.543"",""0.884""]","[1,1,0,1]",0,21,21,21,1,0,1,,,1,FALSE,,,,,,,,,,,,,,,,,,,,,,,,,,,,,,
,5f9920fdbcbfb224a0c96932,001,2022-04-29_10h42.32.492,classification_task,2021.2.3,Win32,60.0240096,5f9920fdbcbfb224a0c96932,626b377229c10585ec392f8a,626b3b488e63d823d729a59a,,,,,,,,,,,,,,,,,,,,,,,l,1,5.168,"[""0.058"",""0.736"",""0.464"",""0.773""]","[1,0,1,1]",0,22,22,22,1,1,0,,,1,FALSE,,,,,,,,,,,,,,,,,,,,,,,,,,,,,,
,5f9920fdbcbfb224a0c96932,001,2022-04-29_10h42.32.492,classification_task,2021.2.3,Win32,60.0240096,5f9920fdbcbfb224a0c96932,626b377229c10585ec392f8a,626b3b488e63d823d729a59a,,,,,,,,,,,,,,,,,,,,,,,l,1,3.758,"[""0.112"",""0.147"",""0.621"",""0.577""]","[1,1,1,0]",0,23,23,23,1,1,1,,,1,FALSE,,,,,,,,,,,,,,,,,,,,,,,,,,,,,,
,5f9920fdbcbfb224a0c96932,001,2022-04-29_10h42.32.492,classification_task,2021.2.3,Win32,60.0240096,5f9920fdbcbfb224a0c96932,626b377229c10585ec392f8a,626b3b488e63d823d729a59a,,,,,,,,,,,,,,,,,,,,,,,l,1,2.336,"[""0.058"",""0.335"",""0.540"",""0.773""]","[1,1,0,1]",0,24,24,24,1,1,0,,,1,FALSE,,,,,,,,,,,,,,,,,,,,,,,,,,,,,,
,5f9920fdbcbfb224a0c96932,001,2022-04-29_10h42.32.492,classification_task,2021.2.3,Win32,60.0240096,5f9920fdbcbfb224a0c96932,626b377229c10585ec392f8a,626b3b488e63d823d729a59a,,,,,,,,,,,,,,,,,,,,,,,l,1,2.506,"[""0.112"",""0.382"",""0.621"",""0.830""]","[1,0,1,1]",0,25,25,25,1,1,1,,,1,FALSE,,,,,,,,,,,,,,,,,,,,,,,,,,,,,,
,5f9920fdbcbfb224a0c96932,001,2022-04-29_10h42.32.492,classification_task,2021.2.3,Win32,60.0240096,5f9920fdbcbfb224a0c96932,626b377229c10585ec392f8a,626b3b488e63d823d729a59a,,,,,,,,,,,,,,,,,,,,,,,a,1,5.311,"[""0.297"",""0.498"",""0.919"",""0.974""]","[0,1,1,1]",0,26,26,26,1,0,0,,,1,FALSE,,,,,,,,,,,,,,,,,,,,,,,,,,,,,,
,5f9920fdbcbfb224a0c96932,001,2022-04-29_10h42.32.492,classification_task,2021.2.3,Win32,60.0240096,5f9920fdbcbfb224a0c96932,626b377229c10585ec392f8a,626b3b488e63d823d729a59a,,,,,,,,,,,,,,,,,,,,,,,l,1,5.077,"[""0.058"",""0.335"",""0.464"",""0.730""]","[1,1,1,0]",0,27,27,27,1,1,0,,,1,FALSE,,,,,,,,,,,,,,,,,,,,,,,,,,,,,,
,5f9920fdbcbfb224a0c96932,001,2022-04-29_10h42.32.492,classification_task,2021.2.3,Win32,60.0240096,5f9920fdbcbfb224a0c96932,626b377229c10585ec392f8a,626b3b488e63d823d729a59a,,,,,,,,,,,,,,,,,,,,,,,a,1,5.471,"[""0.213"",""0.498"",""0.297"",""0.974""]","[1,1,0,1]",0,28,28,28,1,0,0,,,1,FALSE,,,,,,,,,,,,,,,,,,,,,,,,,,,,,,
,5f9920fdbcbfb224a0c96932,001,2022-04-29_10h42.32.492,classification_task,2021.2.3,Win32,60.0240096,5f9920fdbcbfb224a0c96932,626b377229c10585ec392f8a,626b3b488e63d823d729a59a,,,,,,,,,,,,,,,,,,,,,,,a,1,6.013,"[""0.249"",""0.577"",""0.696"",""0.884""]","[1,0,1,1]",0,29,29,29,1,0,1,,,1,FALSE,,,,,,,,,,,,,,,,,,,,,,,,,,,,,,
,5f9920fdbcbfb224a0c96932,001,2022-04-29_10h42.32.492,classification_task,2021.2.3,Win32,60.0240096,5f9920fdbcbfb224a0c96932,626b377229c10585ec392f8a,626b3b488e63d823d729a59a,,,,,,,,,,,,,,,,,,,,,,,a,1,4.343,"[""0.213"",""0.381"",""0.919"",""0.974""]","[1,0,1,1]",0,30,30,30,1,0,0,,,1,FALSE,,,,,,,,,,,,,,,,,,,,,,,,,,,,,,
,5f9920fdbcbfb224a0c96932,001,2022-04-29_10h42.32.492,classification_task,2021.2.3,Win32,60.0240096,5f9920fdbcbfb224a0c96932,626b377229c10585ec392f8a,626b3b488e63d823d729a59a,,,,,,,,,,,,,,,,,,,,,,,l,1,6.953,"[""0.112"",""0.147"",""0.283"",""0.830""]","[1,1,0,1]",0,31,31,31,1,1,1,,,1,FALSE,,,,,,,,,,,,,,,,,,,,,,,,,,,,,,
,5f9920fdbcbfb224a0c96932,001,2022-04-29_10h42.32.492,classification_task,2021.2.3,Win32,60.0240096,5f9920fdbcbfb224a0c96932,626b377229c10585ec392f8a,626b3b488e63d823d729a59a,,,,,,,,,,,,,,,,,,,,,,,a,0,7.253,"[""0.058"",""0.335"",""0.540"",""0.773""]","[1,1,0,1]",0,32,32,32,1,1,0,,,1,FALSE,,,,,,,,,,,,,,,,,,,,,,,,,,,,,,
,5f9920fdbcbfb224a0c96932,001,2022-04-29_10h42.32.492,classification_task,2021.2.3,Win32,60.0240096,5f9920fdbcbfb224a0c96932,626b377229c10585ec392f8a,626b3b488e63d823d729a59a,,,,,,,,,,,,,,,,,,,,,,,l,1,5.962,"[""0.058"",""0.543"",""0.464"",""0.773""]","[1,0,1,1]",0,33,33,33,1,1,0,,,1,FALSE,,,,,,,,,,,,,,,,,,,,,,,,,,,,,,
,5f9920fdbcbfb224a0c96932,001,2022-04-29_10h42.32.492,classification_task,2021.2.3,Win32,60.0240096,5f9920fdbcbfb224a0c96932,626b377229c10585ec392f8a,626b3b488e63d823d729a59a,,,,,,,,,,,,,,,,,,,,,,,a,0,5.007,"[""0.381"",""0.335"",""0.464"",""0.773""]","[0,1,1,1]",0,34,34,34,1,1,0,,,1,FALSE,,,,,,,,,,,,,,,,,,,,,,,,,,,,,,
,5f9920fdbcbfb224a0c96932,001,2022-04-29_10h42.32.492,classification_task,2021.2.3,Win32,60.0240096,5f9920fdbcbfb224a0c96932,626b377229c10585ec392f8a,626b3b488e63d823d729a59a,,,,,,,,,,,,,,,,,,,,,,,l,0,4.96,"[""0.249"",""0.422"",""0.736"",""0.884""]","[1,1,0,1]",0,35,35,35,1,0,1,,,1,FALSE,,,,,,,,,,,,,,,,,,,,,,,,,,,,,,
,5f9920fdbcbfb224a0c96932,001,2022-04-29_10h42.32.492,classification_task,2021.2.3,Win32,60.0240096,5f9920fdbcbfb224a0c96932,626b377229c10585ec392f8a,626b3b488e63d823d729a59a,,,,,,,,,,,,,,,,,,,,,,,l,1,2.181,"[""0.112"",""0.147"",""0.621"",""0.730""]","[1,1,1,0]",0,36,36,36,1,1,1,,,1,FALSE,,,,,,,,,,,,,,,,,,,,,,,,,,,,,,
,5f9920fdbcbfb224a0c96932,001,2022-04-29_10h42.32.492,classification_task,2021.2.3,Win32,60.0240096,5f9920fdbcbfb224a0c96932,626b377229c10585ec392f8a,626b3b488e63d823d729a59a,,,,,,,,,,,,,,,,,,,,,,,l,1,5.855,"[""0.112"",""0.582"",""0.621"",""0.830""]","[1,0,1,1]",0,37,37,37,1,1,1,,,1,FALSE,,,,,,,,,,,,,,,,,,,,,,,,,,,,,,
,5f9920fdbcbfb224a0c96932,001,2022-04-29_10h42.32.492,classification_task,2021.2.3,Win32,60.0240096,5f9920fdbcbfb224a0c96932,626b377229c10585ec392f8a,626b3b488e63d823d729a59a,,,,,,,,,,,,,,,,,,,,,,,a,1,3.147,"[""0.249"",""0.380"",""0.696"",""0.884""]","[1,0,1,1]",0,38,38,38,1,0,1,,,1,FALSE,,,,,,,,,,,,,,,,,,,,,,,,,,,,,,
,5f9920fdbcbfb224a0c96932,001,2022-04-29_10h42.32.492,classification_task,2021.2.3,Win32,60.0240096,5f9920fdbcbfb224a0c96932,626b377229c10585ec392f8a,626b3b488e63d823d729a59a,,,,,,,,,,,,,,,,,,,,,,,a,1,4.423,"[""0.249"",""0.422"",""0.696"",""0.543""]","[1,1,1,0]",0,39,39,39,1,0,1,,,1,FALSE,,,,,,,,,,,,,,,,,,,,,,,,,,,,,,
,5f9920fdbcbfb224a0c96932,001,2022-04-29_10h42.32.492,classification_task,2021.2.3,Win32,60.0240096,5f9920fdbcbfb224a0c96932,626b377229c10585ec392f8a,626b3b488e63d823d729a59a,,,,,,,,,,,,,,,,,,,,,,,l,0,1.737,"[""0.736"",""0.422"",""0.696"",""0.884""]","[0,1,1,1]",0,40,40,40,1,0,1,,,1,FALSE,,,,,,,,,,,,,,,,,,,,,,,,,,,,,,
,5f9920fdbcbfb224a0c96932,001,2022-04-29_10h42.32.492,classification_task,2021.2.3,Win32,60.0240096,5f9920fdbcbfb224a0c96932,626b377229c10585ec392f8a,626b3b488e63d823d729a59a,,,,,,,,,,,,,,,,,,,,,,,l,0,3.011,"[""0.213"",""0.383"",""0.919"",""0.974""]","[1,0,1,1]",0,41,41,41,1,0,0,,,1,FALSE,,,,,,,,,,,,,,,,,,,,,,,,,,,,,,
,5f9920fdbcbfb224a0c96932,001,2022-04-29_10h42.32.492,classification_task,2021.2.3,Win32,60.0240096,5f9920fdbcbfb224a0c96932,626b377229c10585ec392f8a,626b3b488e63d823d729a59a,,,,,,,,,,,,,,,,,,,,,,,a,1,1.711,"[""0.213"",""0.498"",""0.534"",""0.974""]","[1,1,0,1]",0,42,42,42,1,0,0,,,1,FALSE,,,,,,,,,,,,,,,,,,,,,,,,,,,,,,
,5f9920fdbcbfb224a0c96932,001,2022-04-29_10h42.32.492,classification_task,2021.2.3,Win32,60.0240096,5f9920fdbcbfb224a0c96932,626b377229c10585ec392f8a,626b3b488e63d823d729a59a,,,,,,,,,,,,,,,,,,,,,,,a,0,2.288,"[""0.381"",""0.147"",""0.621"",""0.830""]","[0,1,1,1]",0,43,43,43,1,1,1,,,1,FALSE,,,,,,,,,,,,,,,,,,,,,,,,,,,,,,
,5f9920fdbcbfb224a0c96932,001,2022-04-29_10h42.32.492,classification_task,2021.2.3,Win32,60.0240096,5f9920fdbcbfb224a0c96932,626b377229c10585ec392f8a,626b3b488e63d823d729a59a,,,,,,,,,,,,,,,,,,,,,,,l,0,3.16,"[""0.382"",""0.498"",""0.919"",""0.974""]","[0,1,1,1]",0,44,44,44,1,0,0,,,1,FALSE,,,,,,,,,,,,,,,,,,,,,,,,,,,,,,
,5f9920fdbcbfb224a0c96932,001,2022-04-29_10h42.32.492,classification_task,2021.2.3,Win32,60.0240096,5f9920fdbcbfb224a0c96932,626b377229c10585ec392f8a,626b3b488e63d823d729a59a,,,,,,,,,,,,,,,,,,,,,,,l,1,3.707,"[""0.058"",""0.335"",""0.464"",""0.381""]","[1,1,1,0]",0,45,45,45,1,1,0,,,1,FALSE,,,,,,,,,,,,,,,,,,,,,,,,,,,,,,
,5f9920fdbcbfb224a0c96932,001,2022-04-29_10h42.32.492,classification_task,2021.2.3,Win32,60.0240096,5f9920fdbcbfb224a0c96932,626b377229c10585ec392f8a,626b3b488e63d823d729a59a,,,,,,,,,,,,,,,,,,,,,,,a,0,2.158,"[""0.112"",""0.147"",""0.582"",""0.830""]","[1,1,0,1]",0,46,46,46,1,1,1,,,1,FALSE,,,,,,,,,,,,,,,,,,,,,,,,,,,,,,
,5f9920fdbcbfb224a0c96932,001,2022-04-29_10h42.32.492,classification_task,2021.2.3,Win32,60.0240096,5f9920fdbcbfb224a0c96932,626b377229c10585ec392f8a,626b3b488e63d823d729a59a,,,,,,,,,,,,,,,,,,,,,,,a,1,3.21,"[""0.213"",""0.498"",""0.919"",""0.381""]","[1,1,1,0]",0,47,47,47,1,0,0,,,1,FALSE,,,,,,,,,,,,,,,,,,,,,,,,,,,,,,
,5f9920fdbcbfb224a0c96932,001,2022-04-29_10h42.32.492,classification_task,2021.2.3,Win32,60.0240096,5f9920fdbcbfb224a0c96932,626b377229c10585ec392f8a,626b3b488e63d823d729a59a,,,,,,,,,,,,,,,,,,,,,,,a,1,3.278,"[""0.249"",""0.730"",""0.696"",""0.884""]","[1,0,1,1]",0,48,48,48,1,0,1,,,1,FALSE,,,,,,,,,,,,,,,,,,,,,,,,,,,,,,
,5f9920fdbcbfb224a0c96932,001,2022-04-29_10h42.32.492,classification_task,2021.2.3,Win32,60.0240096,5f9920fdbcbfb224a0c96932,626b377229c10585ec392f8a,626b3b488e63d823d729a59a,,,,,,,,,,,,,,,,,,,,,,,l,1,1.891,"[""0.382"",""0.335"",""0.464"",""0.773""]","[0,1,1,1]",0,49,49,49,1,1,0,,,1,FALSE,,,,,,,,,,,,,,,,,,,,,,,,,,,,,,
,5f9920fdbcbfb224a0c96932,001,2022-04-29_10h42.32.492,classification_task,2021.2.3,Win32,60.0240096,5f9920fdbcbfb224a0c96932,626b377229c10585ec392f8a,626b3b488e63d823d729a59a,,,,,,,,,,,,,,,,,,,,,,,a,0,1.863,"[""0.383"",""0.147"",""0.621"",""0.830""]","[0,1,1,1]",0,50,50,50,1,1,1,,,1,FALSE,,,,,,,,,,,,,,,,,,,,,,,,,,,,,,
,5f9920fdbcbfb224a0c96932,001,2022-04-29_10h42.32.492,classification_task,2021.2.3,Win32,60.0240096,5f9920fdbcbfb224a0c96932,626b377229c10585ec392f8a,626b3b488e63d823d729a59a,,,,,,,,,,,,,,,,,,,,,,,a,0,2.143,"[""0.058"",""0.335"",""0.381"",""0.773""]","[1,1,0,1]",0,51,51,51,1,1,0,,,1,FALSE,,,,,,,,,,,,,,,,,,,,,,,,,,,,,,
,5f9920fdbcbfb224a0c96932,001,2022-04-29_10h42.32.492,classification_task,2021.2.3,Win32,60.0240096,5f9920fdbcbfb224a0c96932,626b377229c10585ec392f8a,626b3b488e63d823d729a59a,,,,,,,,,,,,,,,,,,,,,,,l,1,1.474,"[""0.112"",""0.147"",""0.297"",""0.830""]","[1,1,0,1]",0,52,52,52,1,1,1,,,1,FALSE,,,,,,,,,,,,,,,,,,,,,,,,,,,,,,
,5f9920fdbcbfb224a0c96932,001,2022-04-29_10h42.32.492,classification_task,2021.2.3,Win32,60.0240096,5f9920fdbcbfb224a0c96932,626b377229c10585ec392f8a,626b3b488e63d823d729a59a,,,,,,,,,,,,,,,,,,,,,,,l,1,1.927,"[""0.112"",""0.147"",""0.621"",""0.283""]","[1,1,1,0]",0,53,53,53,1,1,1,,,1,FALSE,,,,,,,,,,,,,,,,,,,,,,,,,,,,,,
,5f9920fdbcbfb224a0c96932,001,2022-04-29_10h42.32.492,classification_task,2021.2.3,Win32,60.0240096,5f9920fdbcbfb224a0c96932,626b377229c10585ec392f8a,626b3b488e63d823d729a59a,,,,,,,,,,,,,,,,,,,,,,,a,0,2.179,"[""0.112"",""0.381"",""0.621"",""0.830""]","[1,0,1,1]",0,54,54,54,1,1,1,,,1,FALSE,,,,,,,,,,,,,,,,,,,,,,,,,,,,,,
,5f9920fdbcbfb224a0c96932,001,2022-04-29_10h42.32.492,classification_task,2021.2.3,Win32,60.0240096,5f9920fdbcbfb224a0c96932,626b377229c10585ec392f8a,626b3b488e63d823d729a59a,,,,,,,,,,,,,,,,,,,,,,,a,1,2.562,"[""0.249"",""0.422"",""0.543"",""0.884""]","[1,1,0,1]",0,55,55,55,1,0,1,,,1,FALSE,,,,,,,,,,,,,,,,,,,,,,,,,,,,,,
,5f9920fdbcbfb224a0c96932,001,2022-04-29_10h42.32.492,classification_task,2021.2.3,Win32,60.0240096,5f9920fdbcbfb224a0c96932,626b377229c10585ec392f8a,626b3b488e63d823d729a59a,,,,,,,,,,,,,,,,,,,,,,,l,0,2.188,"[""0.381"",""0.422"",""0.696"",""0.884""]","[0,1,1,1]",0,56,56,56,1,0,1,,,1,FALSE,,,,,,,,,,,,,,,,,,,,,,,,,,,,,,
,5f9920fdbcbfb224a0c96932,001,2022-04-29_10h42.32.492,classification_task,2021.2.3,Win32,60.0240096,5f9920fdbcbfb224a0c96932,626b377229c10585ec392f8a,626b3b488e63d823d729a59a,,,,,,,,,,,,,,,,,,,,,,,l,1,1.596,"[""0.058"",""0.335"",""0.464"",""0.552""]","[1,1,1,0]",0,57,57,57,1,1,0,,,1,FALSE,,,,,,,,,,,,,,,,,,,,,,,,,,,,,,
,5f9920fdbcbfb224a0c96932,001,2022-04-29_10h42.32.492,classification_task,2021.2.3,Win32,60.0240096,5f9920fdbcbfb224a0c96932,626b377229c10585ec392f8a,626b3b488e63d823d729a59a,,,,,,,,,,,,,,,,,,,,,,,l,0,2.308,"[""0.213"",""0.498"",""0.919"",""0.552""]","[1,1,1,0]",0,58,58,58,1,0,0,,,1,FALSE,,,,,,,,,,,,,,,,,,,,,,,,,,,,,,
,5f9920fdbcbfb224a0c96932,001,2022-04-29_10h42.32.492,classification_task,2021.2.3,Win32,60.0240096,5f9920fdbcbfb224a0c96932,626b377229c10585ec392f8a,626b3b488e63d823d729a59a,,,,,,,,,,,,,,,,,,,,,,,a,0,2.876,"[""0.058"",""0.730"",""0.464"",""0.773""]","[1,0,1,1]",0,59,59,59,1,1,0,,,1,FALSE,,,,,,,,,,,,,,,,,,,,,,,,,,,,,,
,5f9920fdbcbfb224a0c96932,001,2022-04-29_10h42.32.492,classification_task,2021.2.3,Win32,60.0240096,5f9920fdbcbfb224a0c96932,626b377229c10585ec392f8a,626b3b488e63d823d729a59a,,,,,,,,,,,,,,,,,,,,,,,l,0,1.481,"[""0.249"",""0.422"",""0.696"",""0.730""]","[1,1,1,0]",0,60,60,60,1,0,1,,,1,FALSE,,,,,,,,,,,,,,,,,,,,,,,,,,,,,,
,5f9920fdbcbfb224a0c96932,001,2022-04-29_10h42.32.492,classification_task,2021.2.3,Win32,60.0240096,5f9920fdbcbfb224a0c96932,626b377229c10585ec392f8a,626b3b488e63d823d729a59a,,,,,,,,,,,,,,,,,,,,,,,l,0,2.042,"[""0.213"",""0.540"",""0.919"",""0.974""]","[1,0,1,1]",0,61,61,61,1,0,0,,,1,FALSE,,,,,,,,,,,,,,,,,,,,,,,,,,,,,,
,5f9920fdbcbfb224a0c96932,001,2022-04-29_10h42.32.492,classification_task,2021.2.3,Win32,60.0240096,5f9920fdbcbfb224a0c96932,626b377229c10585ec392f8a,626b3b488e63d823d729a59a,,,,,,,,,,,,,,,,,,,,,,,l,0,2.298,"[""0.380"",""0.498"",""0.919"",""0.974""]","[0,1,1,1]",0,62,62,62,1,0,0,,,1,FALSE,,,,,,,,,,,,,,,,,,,,,,,,,,,,,,
,5f9920fdbcbfb224a0c96932,001,2022-04-29_10h42.32.492,classification_task,2021.2.3,Win32,60.0240096,5f9920fdbcbfb224a0c96932,626b377229c10585ec392f8a,626b3b488e63d823d729a59a,,,,,,,,,,,,,,,,,,,,,,,a,1,1.429,"[""0.213"",""0.498"",""0.296"",""0.974""]","[1,1,0,1]",0,63,63,63,1,0,0,,,1,FALSE,,,,,,,,,,,,,,,,,,,,,,,,,,,,,,
,5f9920fdbcbfb224a0c96932,001,2022-04-29_10h42.32.492,classification_task,2021.2.3,Win32,60.0240096,5f9920fdbcbfb224a0c96932,626b377229c10585ec392f8a,626b3b488e63d823d729a59a,,,,,,,,,,,,,,,,,,,,,,,,,,,,,,,,,,,,,,,0, ,,0,5.482253086,533.983,0,0,0,0,1,2,1,,,,,,,,,,,,,,,,,
,5f9920fdbcbfb224a0c96932,001,2022-04-29_10h42.32.492,classification_task,2021.2.3,Win32,60.0240096,5f9920fdbcbfb224a0c96932,626b377229c10585ec392f8a,626b3b488e63d823d729a59a,,,,,,,,,,,,,,,,,,,,,,,,,,,,,,,,,,,,,,,1,  ,,0,10,540.345,0,0,0,0,1,2,1,,,,,,,,,,,,,,,,,
,5f9920fdbcbfb224a0c96932,001,2022-04-29_10h42.32.492,classification_task,2021.2.3,Win32,60.0240096,5f9920fdbcbfb224a0c96932,626b377229c10585ec392f8a,626b3b488e63d823d729a59a,,,,,,,,,,,,,,,,,,,,,,,,,,,,,,,,,,,,,,,2,  ,,0,5.551146384,549.511,0,0,0,0,1,2,1,,,,,,,,,,,,,,,,,
,5f9920fdbcbfb224a0c96932,001,2022-04-29_10h42.32.492,classification_task,2021.2.3,Win32,60.0240096,5f9920fdbcbfb224a0c96932,626b377229c10585ec392f8a,626b3b488e63d823d729a59a,,,,,,,,,,,,,,,,,,,,,,,,,,,,,,,,,,,,,,,,,,,,,0,0,0,0,1,,1,,,,,,,,,,,,,,,,,
,5f9920fdbcbfb224a0c96932,001,2022-04-29_10h42.32.492,classification_task,2021.2.3,Win32,60.0240096,5f9920fdbcbfb224a0c96932,626b377229c10585ec392f8a,626b3b488e63d823d729a59a,,,,,,,,,,,,,,,,,,,,,space,18.408,a,1,5.436,"[""0.213"",""0.498"",""0.582"",""0.974""]","[1,1,0,1]",0,0,0,0,1,0,0,,,1,FALSE,,,,,,,,,,,,,,,,,,,,,,,,,,,,,,
,5f9920fdbcbfb224a0c96932,001,2022-04-29_10h42.32.492,classification_task,2021.2.3,Win32,60.0240096,5f9920fdbcbfb224a0c96932,626b377229c10585ec392f8a,626b3b488e63d823d729a59a,,,,,,,,,,,,,,,,,,,,,,,a,0,3.604,"[""0.383"",""0.335"",""0.464"",""0.773""]","[0,1,1,1]",0,1,1,1,1,1,0,,,1,FALSE,,,,,,,,,,,,,,,,,,,,,,,,,,,,,,
,5f9920fdbcbfb224a0c96932,001,2022-04-29_10h42.32.492,classification_task,2021.2.3,Win32,60.0240096,5f9920fdbcbfb224a0c96932,626b377229c10585ec392f8a,626b3b488e63d823d729a59a,,,,,,,,,,,,,,,,,,,,,,,a,1,4.506,"[""0.249"",""0.422"",""0.296"",""0.884""]","[1,1,0,1]",0,2,2,2,1,0,1,,,1,FALSE,,,,,,,,,,,,,,,,,,,,,,,,,,,,,,
,5f9920fdbcbfb224a0c96932,001,2022-04-29_10h42.32.492,classification_task,2021.2.3,Win32,60.0240096,5f9920fdbcbfb224a0c96932,626b377229c10585ec392f8a,626b3b488e63d823d729a59a,,,,,,,,,,,,,,,,,,,,,,,a,0,3.392,"[""0.112"",""0.147"",""0.543"",""0.830""]","[1,1,0,1]",0,3,3,3,1,1,1,,,1,FALSE,,,,,,,,,,,,,,,,,,,,,,,,,,,,,,
,5f9920fdbcbfb224a0c96932,001,2022-04-29_10h42.32.492,classification_task,2021.2.3,Win32,60.0240096,5f9920fdbcbfb224a0c96932,626b377229c10585ec392f8a,626b3b488e63d823d729a59a,,,,,,,,,,,,,,,,,,,,,,,a,1,2.445,"[""0.249"",""0.422"",""0.696"",""0.383""]","[1,1,1,0]",0,4,4,4,1,0,1,,,1,FALSE,,,,,,,,,,,,,,,,,,,,,,,,,,,,,,
,5f9920fdbcbfb224a0c96932,001,2022-04-29_10h42.32.492,classification_task,2021.2.3,Win32,60.0240096,5f9920fdbcbfb224a0c96932,626b377229c10585ec392f8a,626b3b488e63d823d729a59a,,,,,,,,,,,,,,,,,,,,,,,l,0,1.792,"[""0.534"",""0.498"",""0.919"",""0.974""]","[0,1,1,1]",0,5,5,5,1,0,0,,,1,FALSE,,,,,,,,,,,,,,,,,,,,,,,,,,,,,,
,5f9920fdbcbfb224a0c96932,001,2022-04-29_10h42.32.492,classification_task,2021.2.3,Win32,60.0240096,5f9920fdbcbfb224a0c96932,626b377229c10585ec392f8a,626b3b488e63d823d729a59a,,,,,,,,,,,,,,,,,,,,,,,a,0,2.144,"[""0.058"",""0.335"",""0.464"",""0.297""]","[1,1,1,0]",0,6,6,6,1,1,0,,,1,FALSE,,,,,,,,,,,,,,,,,,,,,,,,,,,,,,
,5f9920fdbcbfb224a0c96932,001,2022-04-29_10h42.32.492,classification_task,2021.2.3,Win32,60.0240096,5f9920fdbcbfb224a0c96932,626b377229c10585ec392f8a,626b3b488e63d823d729a59a,,,,,,,,,,,,,,,,,,,,,,,a,0,1.78,"[""0.058"",""0.548"",""0.464"",""0.773""]","[1,0,1,1]",0,7,7,7,1,1,0,,,1,FALSE,,,,,,,,,,,,,,,,,,,,,,,,,,,,,,
,5f9920fdbcbfb224a0c96932,001,2022-04-29_10h42.32.492,classification_task,2021.2.3,Win32,60.0240096,5f9920fdbcbfb224a0c96932,626b377229c10585ec392f8a,626b3b488e63d823d729a59a,,,,,,,,,,,,,,,,,,,,,,,a,0,2.044,"[""0.112"",""0.552"",""0.621"",""0.830""]","[1,0,1,1]",0,8,8,8,1,1,1,,,1,FALSE,,,,,,,,,,,,,,,,,,,,,,,,,,,,,,
,5f9920fdbcbfb224a0c96932,001,2022-04-29_10h42.32.492,classification_task,2021.2.3,Win32,60.0240096,5f9920fdbcbfb224a0c96932,626b377229c10585ec392f8a,626b3b488e63d823d729a59a,,,,,,,,,,,,,,,,,,,,,,,a,1,1.895,"[""0.249"",""0.283"",""0.696"",""0.884""]","[1,0,1,1]",0,9,9,9,1,0,1,,,1,FALSE,,,,,,,,,,,,,,,,,,,,,,,,,,,,,,
,5f9920fdbcbfb224a0c96932,001,2022-04-29_10h42.32.492,classification_task,2021.2.3,Win32,60.0240096,5f9920fdbcbfb224a0c96932,626b377229c10585ec392f8a,626b3b488e63d823d729a59a,,,,,,,,,,,,,,,,,,,,,,,l,1,1.42,"[""0.540"",""0.147"",""0.621"",""0.830""]","[0,1,1,1]",0,10,10,10,1,1,1,,,1,FALSE,,,,,,,,,,,,,,,,,,,,,,,,,,,,,,
,5f9920fdbcbfb224a0c96932,001,2022-04-29_10h42.32.492,classification_task,2021.2.3,Win32,60.0240096,5f9920fdbcbfb224a0c96932,626b377229c10585ec392f8a,626b3b488e63d823d729a59a,,,,,,,,,,,,,,,,,,,,,,,l,1,2.72,"[""0.112"",""0.147"",""0.621"",""0.297""]","[1,1,1,0]",0,11,11,11,1,1,1,,,1,FALSE,,,,,,,,,,,,,,,,,,,,,,,,,,,,,,
,5f9920fdbcbfb224a0c96932,001,2022-04-29_10h42.32.492,classification_task,2021.2.3,Win32,60.0240096,5f9920fdbcbfb224a0c96932,626b377229c10585ec392f8a,626b3b488e63d823d729a59a,,,,,,,,,,,,,,,,,,,,,,,a,1,2.922,"[""0.283"",""0.422"",""0.696"",""0.884""]","[0,1,1,1]",0,12,12,12,1,0,1,,,1,FALSE,,,,,,,,,,,,,,,,,,,,,,,,,,,,,,
,5f9920fdbcbfb224a0c96932,001,2022-04-29_10h42.32.492,classification_task,2021.2.3,Win32,60.0240096,5f9920fdbcbfb224a0c96932,626b377229c10585ec392f8a,626b3b488e63d823d729a59a,,,,,,,,,,,,,,,,,,,,,,,a,1,2.446,"[""0.213"",""0.297"",""0.919"",""0.974""]","[1,0,1,1]",0,13,13,13,1,0,0,,,1,FALSE,,,,,,,,,,,,,,,,,,,,,,,,,,,,,,
,5f9920fdbcbfb224a0c96932,001,2022-04-29_10h42.32.492,classification_task,2021.2.3,Win32,60.0240096,5f9920fdbcbfb224a0c96932,626b377229c10585ec392f8a,626b3b488e63d823d729a59a,,,,,,,,,,,,,,,,,,,,,,,a,0,2.251,"[""0.058"",""0.335"",""0.548"",""0.773""]","[1,1,0,1]",0,14,14,14,1,1,0,,,1,FALSE,,,,,,,,,,,,,,,,,,,,,,,,,,,,,,
,5f9920fdbcbfb224a0c96932,001,2022-04-29_10h42.32.492,classification_task,2021.2.3,Win32,60.0240096,5f9920fdbcbfb224a0c96932,626b377229c10585ec392f8a,626b3b488e63d823d729a59a,,,,,,,,,,,,,,,,,,,,,,,a,1,1.595,"[""0.213"",""0.498"",""0.919"",""0.582""]","[1,1,1,0]",0,15,15,15,1,0,0,,,1,FALSE,,,,,,,,,,,,,,,,,,,,,,,,,,,,,,
,5f9920fdbcbfb224a0c96932,001,2022-04-29_10h42.32.492,classification_task,2021.2.3,Win32,60.0240096,5f9920fdbcbfb224a0c96932,626b377229c10585ec392f8a,626b3b488e63d823d729a59a,,,,,,,,,,,,,,,,,,,,,,,l,1,1.313,"[""0.112"",""0.147"",""0.621"",""0.534""]","[1,1,1,0]",0,16,16,16,1,1,1,,,1,FALSE,,,,,,,,,,,,,,,,,,,,,,,,,,,,,,
,5f9920fdbcbfb224a0c96932,001,2022-04-29_10h42.32.492,classification_task,2021.2.3,Win32,60.0240096,5f9920fdbcbfb224a0c96932,626b377229c10585ec392f8a,626b3b488e63d823d729a59a,,,,,,,,,,,,,,,,,,,,,,,a,1,2.163,"[""0.213"",""0.498"",""0.919"",""0.283""]","[1,1,1,0]",0,17,17,17,1,0,0,,,1,FALSE,,,,,,,,,,,,,,,,,,,,,,,,,,,,,,
,5f9920fdbcbfb224a0c96932,001,2022-04-29_10h42.32.492,classification_task,2021.2.3,Win32,60.0240096,5f9920fdbcbfb224a0c96932,626b377229c10585ec392f8a,626b3b488e63d823d729a59a,,,,,,,,,,,,,,,,,,,,,,,l,1,1.614,"[""0.382"",""0.147"",""0.621"",""0.830""]","[0,1,1,1]",0,18,18,18,1,1,1,,,1,FALSE,,,,,,,,,,,,,,,,,,,,,,,,,,,,,,
,5f9920fdbcbfb224a0c96932,001,2022-04-29_10h42.32.492,classification_task,2021.2.3,Win32,60.0240096,5f9920fdbcbfb224a0c96932,626b377229c10585ec392f8a,626b3b488e63d823d729a59a,,,,,,,,,,,,,,,,,,,,,,,l,0,1.853,"[""0.577"",""0.422"",""0.696"",""0.884""]","[0,1,1,1]",0,19,19,19,1,0,1,,,1,FALSE,,,,,,,,,,,,,,,,,,,,,,,,,,,,,,
,5f9920fdbcbfb224a0c96932,001,2022-04-29_10h42.32.492,classification_task,2021.2.3,Win32,60.0240096,5f9920fdbcbfb224a0c96932,626b377229c10585ec392f8a,626b3b488e63d823d729a59a,,,,,,,,,,,,,,,,,,,,,,,a,0,2.712,"[""0.112"",""0.582"",""0.621"",""0.830""]","[1,0,1,1]",0,20,20,20,1,1,1,,,1,FALSE,,,,,,,,,,,,,,,,,,,,,,,,,,,,,,
,5f9920fdbcbfb224a0c96932,001,2022-04-29_10h42.32.492,classification_task,2021.2.3,Win32,60.0240096,5f9920fdbcbfb224a0c96932,626b377229c10585ec392f8a,626b3b488e63d823d729a59a,,,,,,,,,,,,,,,,,,,,,,,a,1,1.863,"[""0.249"",""0.422"",""0.696"",""0.534""]","[1,1,1,0]",0,21,21,21,1,0,1,,,1,FALSE,,,,,,,,,,,,,,,,,,,,,,,,,,,,,,
,5f9920fdbcbfb224a0c96932,001,2022-04-29_10h42.32.492,classification_task,2021.2.3,Win32,60.0240096,5f9920fdbcbfb224a0c96932,626b377229c10585ec392f8a,626b3b488e63d823d729a59a,,,,,,,,,,,,,,,,,,,,,,,a,0,3.16,"[""0.534"",""0.335"",""0.464"",""0.773""]","[0,1,1,1]",0,22,22,22,1,1,0,,,1,FALSE,,,,,,,,,,,,,,,,,,,,,,,,,,,,,,
,5f9920fdbcbfb224a0c96932,001,2022-04-29_10h42.32.492,classification_task,2021.2.3,Win32,60.0240096,5f9920fdbcbfb224a0c96932,626b377229c10585ec392f8a,626b3b488e63d823d729a59a,,,,,,,,,,,,,,,,,,,,,,,a,1,1.711,"[""0.213"",""0.577"",""0.919"",""0.974""]","[1,0,1,1]",0,23,23,23,1,0,0,,,1,FALSE,,,,,,,,,,,,,,,,,,,,,,,,,,,,,,
,5f9920fdbcbfb224a0c96932,001,2022-04-29_10h42.32.492,classification_task,2021.2.3,Win32,60.0240096,5f9920fdbcbfb224a0c96932,626b377229c10585ec392f8a,626b3b488e63d823d729a59a,,,,,,,,,,,,,,,,,,,,,,,l,1,1.613,"[""0.058"",""0.543"",""0.464"",""0.773""]","[1,0,1,1]",0,24,24,24,1,1,0,,,1,FALSE,,,,,,,,,,,,,,,,,,,,,,,,,,,,,,
,5f9920fdbcbfb224a0c96932,001,2022-04-29_10h42.32.492,classification_task,2021.2.3,Win32,60.0240096,5f9920fdbcbfb224a0c96932,626b377229c10585ec392f8a,626b3b488e63d823d729a59a,,,,,,,,,,,,,,,,,,,,,,,a,0,1.92,"[""0.058"",""0.335"",""0.464"",""0.552""]","[1,1,1,0]",0,25,25,25,1,1,0,,,1,FALSE,,,,,,,,,,,,,,,,,,,,,,,,,,,,,,
,5f9920fdbcbfb224a0c96932,001,2022-04-29_10h42.32.492,classification_task,2021.2.3,Win32,60.0240096,5f9920fdbcbfb224a0c96932,626b377229c10585ec392f8a,626b3b488e63d823d729a59a,,,,,,,,,,,,,,,,,,,,,,,a,1,1.353,"[""0.582"",""0.498"",""0.919"",""0.974""]","[0,1,1,1]",0,26,26,26,1,0,0,,,1,FALSE,,,,,,,,,,,,,,,,,,,,,,,,,,,,,,
,5f9920fdbcbfb224a0c96932,001,2022-04-29_10h42.32.492,classification_task,2021.2.3,Win32,60.0240096,5f9920fdbcbfb224a0c96932,626b377229c10585ec392f8a,626b3b488e63d823d729a59a,,,,,,,,,,,,,,,,,,,,,,,l,0,2.148,"[""0.249"",""0.422"",""0.540"",""0.884""]","[1,1,0,1]",0,27,27,27,1,0,1,,,1,FALSE,,,,,,,,,,,,,,,,,,,,,,,,,,,,,,
,5f9920fdbcbfb224a0c96932,001,2022-04-29_10h42.32.492,classification_task,2021.2.3,Win32,60.0240096,5f9920fdbcbfb224a0c96932,626b377229c10585ec392f8a,626b3b488e63d823d729a59a,,,,,,,,,,,,,,,,,,,,,,,l,0,1.964,"[""0.249"",""0.283"",""0.696"",""0.884""]","[1,0,1,1]",0,28,28,28,1,0,1,,,1,FALSE,,,,,,,,,,,,,,,,,,,,,,,,,,,,,,
,5f9920fdbcbfb224a0c96932,001,2022-04-29_10h42.32.492,classification_task,2021.2.3,Win32,60.0240096,5f9920fdbcbfb224a0c96932,626b377229c10585ec392f8a,626b3b488e63d823d729a59a,,,,,,,,,,,,,,,,,,,,,,,a,0,1.8,"[""0.112"",""0.147"",""0.283"",""0.830""]","[1,1,0,1]",0,29,29,29,1,1,1,,,1,FALSE,,,,,,,,,,,,,,,,,,,,,,,,,,,,,,
,5f9920fdbcbfb224a0c96932,001,2022-04-29_10h42.32.492,classification_task,2021.2.3,Win32,60.0240096,5f9920fdbcbfb224a0c96932,626b377229c10585ec392f8a,626b3b488e63d823d729a59a,,,,,,,,,,,,,,,,,,,,,,,a,0,2.077,"[""0.058"",""0.335"",""0.381"",""0.773""]","[1,1,0,1]",0,30,30,30,1,1,0,,,1,FALSE,,,,,,,,,,,,,,,,,,,,,,,,,,,,,,
,5f9920fdbcbfb224a0c96932,001,2022-04-29_10h42.32.492,classification_task,2021.2.3,Win32,60.0240096,5f9920fdbcbfb224a0c96932,626b377229c10585ec392f8a,626b3b488e63d823d729a59a,,,,,,,,,,,,,,,,,,,,,,,a,1,1.704,"[""0.213"",""0.498"",""0.534"",""0.974""]","[1,1,0,1]",0,31,31,31,1,0,0,,,1,FALSE,,,,,,,,,,,,,,,,,,,,,,,,,,,,,,
,5f9920fdbcbfb224a0c96932,001,2022-04-29_10h42.32.492,classification_task,2021.2.3,Win32,60.0240096,5f9920fdbcbfb224a0c96932,626b377229c10585ec392f8a,626b3b488e63d823d729a59a,,,,,,,,,,,,,,,,,,,,,,,l,0,1.655,"[""0.249"",""0.577"",""0.696"",""0.884""]","[1,0,1,1]",0,32,32,32,1,0,1,,,1,FALSE,,,,,,,,,,,,,,,,,,,,,,,,,,,,,,
,5f9920fdbcbfb224a0c96932,001,2022-04-29_10h42.32.492,classification_task,2021.2.3,Win32,60.0240096,5f9920fdbcbfb224a0c96932,626b377229c10585ec392f8a,626b3b488e63d823d729a59a,,,,,,,,,,,,,,,,,,,,,,,l,0,1.761,"[""0.249"",""0.422"",""0.382"",""0.884""]","[1,1,0,1]",0,33,33,33,1,0,1,,,1,FALSE,,,,,,,,,,,,,,,,,,,,,,,,,,,,,,
,5f9920fdbcbfb224a0c96932,001,2022-04-29_10h42.32.492,classification_task,2021.2.3,Win32,60.0240096,5f9920fdbcbfb224a0c96932,626b377229c10585ec392f8a,626b3b488e63d823d729a59a,,,,,,,,,,,,,,,,,,,,,,,l,0,2.061,"[""0.213"",""0.381"",""0.919"",""0.974""]","[1,0,1,1]",0,34,34,34,1,0,0,,,1,FALSE,,,,,,,,,,,,,,,,,,,,,,,,,,,,,,
,5f9920fdbcbfb224a0c96932,001,2022-04-29_10h42.32.492,classification_task,2021.2.3,Win32,60.0240096,5f9920fdbcbfb224a0c96932,626b377229c10585ec392f8a,626b3b488e63d823d729a59a,,,,,,,,,,,,,,,,,,,,,,,l,1,3.065,"[""0.058"",""0.335"",""0.464"",""0.382""]","[1,1,1,0]",0,35,35,35,1,1,0,,,1,FALSE,,,,,,,,,,,,,,,,,,,,,,,,,,,,,,
,5f9920fdbcbfb224a0c96932,001,2022-04-29_10h42.32.492,classification_task,2021.2.3,Win32,60.0240096,5f9920fdbcbfb224a0c96932,626b377229c10585ec392f8a,626b3b488e63d823d729a59a,,,,,,,,,,,,,,,,,,,,,,,l,1,2.894,"[""0.058"",""0.335"",""0.540"",""0.773""]","[1,1,0,1]",0,36,36,36,1,1,0,,,1,FALSE,,,,,,,,,,,,,,,,,,,,,,,,,,,,,,
,5f9920fdbcbfb224a0c96932,001,2022-04-29_10h42.32.492,classification_task,2021.2.3,Win32,60.0240096,5f9920fdbcbfb224a0c96932,626b377229c10585ec392f8a,626b3b488e63d823d729a59a,,,,,,,,,,,,,,,,,,,,,,,a,0,2.66,"[""0.112"",""0.147"",""0.543"",""0.830""]","[1,1,0,1]",0,37,37,37,1,1,1,,,1,FALSE,,,,,,,,,,,,,,,,,,,,,,,,,,,,,,
,5f9920fdbcbfb224a0c96932,001,2022-04-29_10h42.32.492,classification_task,2021.2.3,Win32,60.0240096,5f9920fdbcbfb224a0c96932,626b377229c10585ec392f8a,626b3b488e63d823d729a59a,,,,,,,,,,,,,,,,,,,,,,,l,1,1.732,"[""0.112"",""0.380"",""0.621"",""0.830""]","[1,0,1,1]",0,38,38,38,1,1,1,,,1,FALSE,,,,,,,,,,,,,,,,,,,,,,,,,,,,,,
,5f9920fdbcbfb224a0c96932,001,2022-04-29_10h42.32.492,classification_task,2021.2.3,Win32,60.0240096,5f9920fdbcbfb224a0c96932,626b377229c10585ec392f8a,626b3b488e63d823d729a59a,,,,,,,,,,,,,,,,,,,,,,,a,1,2.409,"[""0.380"",""0.498"",""0.919"",""0.974""]","[0,1,1,1]",0,39,39,39,1,0,0,,,1,FALSE,,,,,,,,,,,,,,,,,,,,,,,,,,,,,,
,5f9920fdbcbfb224a0c96932,001,2022-04-29_10h42.32.492,classification_task,2021.2.3,Win32,60.0240096,5f9920fdbcbfb224a0c96932,626b377229c10585ec392f8a,626b3b488e63d823d729a59a,,,,,,,,,,,,,,,,,,,,,,,a,1,2.046,"[""0.213"",""0.498"",""0.382"",""0.974""]","[1,1,0,1]",0,40,40,40,1,0,0,,,1,FALSE,,,,,,,,,,,,,,,,,,,,,,,,,,,,,,
,5f9920fdbcbfb224a0c96932,001,2022-04-29_10h42.32.492,classification_task,2021.2.3,Win32,60.0240096,5f9920fdbcbfb224a0c96932,626b377229c10585ec392f8a,626b3b488e63d823d729a59a,,,,,,,,,,,,,,,,,,,,,,,l,1,1.729,"[""0.112"",""0.147"",""0.621"",""0.382""]","[1,1,1,0]",0,41,41,41,1,1,1,,,1,FALSE,,,,,,,,,,,,,,,,,,,,,,,,,,,,,,
,5f9920fdbcbfb224a0c96932,001,2022-04-29_10h42.32.492,classification_task,2021.2.3,Win32,60.0240096,5f9920fdbcbfb224a0c96932,626b377229c10585ec392f8a,626b3b488e63d823d729a59a,,,,,,,,,,,,,,,,,,,,,,,a,1,1.449,"[""0.249"",""0.422"",""0.696"",""0.548""]","[1,1,1,0]",0,42,42,42,1,0,1,,,1,FALSE,,,,,,,,,,,,,,,,,,,,,,,,,,,,,,
,5f9920fdbcbfb224a0c96932,001,2022-04-29_10h42.32.492,classification_task,2021.2.3,Win32,60.0240096,5f9920fdbcbfb224a0c96932,626b377229c10585ec392f8a,626b3b488e63d823d729a59a,,,,,,,,,,,,,,,,,,,,,,,l,1,2.022,"[""0.058"",""0.540"",""0.464"",""0.773""]","[1,0,1,1]",0,43,43,43,1,1,0,,,1,FALSE,,,,,,,,,,,,,,,,,,,,,,,,,,,,,,
,5f9920fdbcbfb224a0c96932,001,2022-04-29_10h42.32.492,classification_task,2021.2.3,Win32,60.0240096,5f9920fdbcbfb224a0c96932,626b377229c10585ec392f8a,626b3b488e63d823d729a59a,,,,,,,,,,,,,,,,,,,,,,,a,0,2.393,"[""0.552"",""0.335"",""0.464"",""0.773""]","[0,1,1,1]",0,44,44,44,1,1,0,,,1,FALSE,,,,,,,,,,,,,,,,,,,,,,,,,,,,,,
,5f9920fdbcbfb224a0c96932,001,2022-04-29_10h42.32.492,classification_task,2021.2.3,Win32,60.0240096,5f9920fdbcbfb224a0c96932,626b377229c10585ec392f8a,626b3b488e63d823d729a59a,,,,,,,,,,,,,,,,,,,,,,,l,0,1.32,"[""0.213"",""0.498"",""0.919"",""0.543""]","[1,1,1,0]",0,45,45,45,1,0,0,,,1,FALSE,,,,,,,,,,,,,,,,,,,,,,,,,,,,,,
,5f9920fdbcbfb224a0c96932,001,2022-04-29_10h42.32.492,classification_task,2021.2.3,Win32,60.0240096,5f9920fdbcbfb224a0c96932,626b377229c10585ec392f8a,626b3b488e63d823d729a59a,,,,,,,,,,,,,,,,,,,,,,,l,1,3.372,"[""0.534"",""0.147"",""0.621"",""0.830""]","[0,1,1,1]",0,46,46,46,1,1,1,,,1,FALSE,,,,,,,,,,,,,,,,,,,,,,,,,,,,,,
,5f9920fdbcbfb224a0c96932,001,2022-04-29_10h42.32.492,classification_task,2021.2.3,Win32,60.0240096,5f9920fdbcbfb224a0c96932,626b377229c10585ec392f8a,626b3b488e63d823d729a59a,,,,,,,,,,,,,,,,,,,,,,,a,1,2.284,"[""0.283"",""0.422"",""0.696"",""0.884""]","[0,1,1,1]",0,47,47,47,1,0,1,,,1,FALSE,,,,,,,,,,,,,,,,,,,,,,,,,,,,,,
,5f9920fdbcbfb224a0c96932,001,2022-04-29_10h42.32.492,classification_task,2021.2.3,Win32,60.0240096,5f9920fdbcbfb224a0c96932,626b377229c10585ec392f8a,626b3b488e63d823d729a59a,,,,,,,,,,,,,,,,,,,,,,,a,0,2.163,"[""0.058"",""0.381"",""0.464"",""0.773""]","[1,0,1,1]",0,48,48,48,1,1,0,,,1,FALSE,,,,,,,,,,,,,,,,,,,,,,,,,,,,,,
,5f9920fdbcbfb224a0c96932,001,2022-04-29_10h42.32.492,classification_task,2021.2.3,Win32,60.0240096,5f9920fdbcbfb224a0c96932,626b377229c10585ec392f8a,626b3b488e63d823d729a59a,,,,,,,,,,,,,,,,,,,,,,,l,0,1.95,"[""0.213"",""0.498"",""0.534"",""0.974""]","[1,1,0,1]",0,49,49,49,1,0,0,,,1,FALSE,,,,,,,,,,,,,,,,,,,,,,,,,,,,,,
,5f9920fdbcbfb224a0c96932,001,2022-04-29_10h42.32.492,classification_task,2021.2.3,Win32,60.0240096,5f9920fdbcbfb224a0c96932,626b377229c10585ec392f8a,626b3b488e63d823d729a59a,,,,,,,,,,,,,,,,,,,,,,,l,0,1.778,"[""0.249"",""0.383"",""0.696"",""0.884""]","[1,0,1,1]",0,50,50,50,1,0,1,,,1,FALSE,,,,,,,,,,,,,,,,,,,,,,,,,,,,,,
,5f9920fdbcbfb224a0c96932,001,2022-04-29_10h42.32.492,classification_task,2021.2.3,Win32,60.0240096,5f9920fdbcbfb224a0c96932,626b377229c10585ec392f8a,626b3b488e63d823d729a59a,,,,,,,,,,,,,,,,,,,,,,,l,1,2.425,"[""0.112"",""0.147"",""0.621"",""0.543""]","[1,1,1,0]",0,51,51,51,1,1,1,,,1,FALSE,,,,,,,,,,,,,,,,,,,,,,,,,,,,,,
,5f9920fdbcbfb224a0c96932,001,2022-04-29_10h42.32.492,classification_task,2021.2.3,Win32,60.0240096,5f9920fdbcbfb224a0c96932,626b377229c10585ec392f8a,626b3b488e63d823d729a59a,,,,,,,,,,,,,,,,,,,,,,,l,1,3.544,"[""0.552"",""0.147"",""0.621"",""0.830""]","[0,1,1,1]",0,52,52,52,1,1,1,,,1,FALSE,,,,,,,,,,,,,,,,,,,,,,,,,,,,,,
,5f9920fdbcbfb224a0c96932,001,2022-04-29_10h42.32.492,classification_task,2021.2.3,Win32,60.0240096,5f9920fdbcbfb224a0c96932,626b377229c10585ec392f8a,626b3b488e63d823d729a59a,,,,,,,,,,,,,,,,,,,,,,,a,1,1.562,"[""0.540"",""0.422"",""0.696"",""0.884""]","[0,1,1,1]",0,53,53,53,1,0,1,,,1,FALSE,,,,,,,,,,,,,,,,,,,,,,,,,,,,,,
,5f9920fdbcbfb224a0c96932,001,2022-04-29_10h42.32.492,classification_task,2021.2.3,Win32,60.0240096,5f9920fdbcbfb224a0c96932,626b377229c10585ec392f8a,626b3b488e63d823d729a59a,,,,,,,,,,,,,,,,,,,,,,,a,0,1.865,"[""0.112"",""0.548"",""0.621"",""0.830""]","[1,0,1,1]",0,54,54,54,1,1,1,,,1,FALSE,,,,,,,,,,,,,,,,,,,,,,,,,,,,,,
,5f9920fdbcbfb224a0c96932,001,2022-04-29_10h42.32.492,classification_task,2021.2.3,Win32,60.0240096,5f9920fdbcbfb224a0c96932,626b377229c10585ec392f8a,626b3b488e63d823d729a59a,,,,,,,,,,,,,,,,,,,,,,,a,0,2.82,"[""0.058"",""0.335"",""0.464"",""0.582""]","[1,1,1,0]",0,55,55,55,1,1,0,,,1,FALSE,,,,,,,,,,,,,,,,,,,,,,,,,,,,,,
,5f9920fdbcbfb224a0c96932,001,2022-04-29_10h42.32.492,classification_task,2021.2.3,Win32,60.0240096,5f9920fdbcbfb224a0c96932,626b377229c10585ec392f8a,626b3b488e63d823d729a59a,,,,,,,,,,,,,,,,,,,,,,,a,1,3.342,"[""0.249"",""0.422"",""0.696"",""0.540""]","[1,1,1,0]",0,56,56,56,1,0,1,,,1,FALSE,,,,,,,,,,,,,,,,,,,,,,,,,,,,,,
,5f9920fdbcbfb224a0c96932,001,2022-04-29_10h42.32.492,classification_task,2021.2.3,Win32,60.0240096,5f9920fdbcbfb224a0c96932,626b377229c10585ec392f8a,626b3b488e63d823d729a59a,,,,,,,,,,,,,,,,,,,,,,,l,1,2.769,"[""0.112"",""0.147"",""0.540"",""0.830""]","[1,1,0,1]",0,57,57,57,1,1,1,,,1,FALSE,,,,,,,,,,,,,,,,,,,,,,,,,,,,,,
,5f9920fdbcbfb224a0c96932,001,2022-04-29_10h42.32.492,classification_task,2021.2.3,Win32,60.0240096,5f9920fdbcbfb224a0c96932,626b377229c10585ec392f8a,626b3b488e63d823d729a59a,,,,,,,,,,,,,,,,,,,,,,,a,1,2.117,"[""0.213"",""0.498"",""0.919"",""0.534""]","[1,1,1,0]",0,58,58,58,1,0,0,,,1,FALSE,,,,,,,,,,,,,,,,,,,,,,,,,,,,,,
,5f9920fdbcbfb224a0c96932,001,2022-04-29_10h42.32.492,classification_task,2021.2.3,Win32,60.0240096,5f9920fdbcbfb224a0c96932,626b377229c10585ec392f8a,626b3b488e63d823d729a59a,,,,,,,,,,,,,,,,,,,,,,,a,1,2.687,"[""0.249"",""0.422"",""0.296"",""0.884""]","[1,1,0,1]",0,59,59,59,1,0,1,,,1,FALSE,,,,,,,,,,,,,,,,,,,,,,,,,,,,,,
,5f9920fdbcbfb224a0c96932,001,2022-04-29_10h42.32.492,classification_task,2021.2.3,Win32,60.0240096,5f9920fdbcbfb224a0c96932,626b377229c10585ec392f8a,626b3b488e63d823d729a59a,,,,,,,,,,,,,,,,,,,,,,,l,0,1.694,"[""0.213"",""0.540"",""0.919"",""0.974""]","[1,0,1,1]",0,60,60,60,1,0,0,,,1,FALSE,,,,,,,,,,,,,,,,,,,,,,,,,,,,,,
,5f9920fdbcbfb224a0c96932,001,2022-04-29_10h42.32.492,classification_task,2021.2.3,Win32,60.0240096,5f9920fdbcbfb224a0c96932,626b377229c10585ec392f8a,626b3b488e63d823d729a59a,,,,,,,,,,,,,,,,,,,,,,,l,1,1.949,"[""0.058"",""0.335"",""0.582"",""0.773""]","[1,1,0,1]",0,61,61,61,1,1,0,,,1,FALSE,,,,,,,,,,,,,,,,,,,,,,,,,,,,,,
,5f9920fdbcbfb224a0c96932,001,2022-04-29_10h42.32.492,classification_task,2021.2.3,Win32,60.0240096,5f9920fdbcbfb224a0c96932,626b377229c10585ec392f8a,626b3b488e63d823d729a59a,,,,,,,,,,,,,,,,,,,,,,,a,1,2.012,"[""0.730"",""0.498"",""0.919"",""0.974""]","[0,1,1,1]",0,62,62,62,1,0,0,,,1,FALSE,,,,,,,,,,,,,,,,,,,,,,,,,,,,,,
,5f9920fdbcbfb224a0c96932,001,2022-04-29_10h42.32.492,classification_task,2021.2.3,Win32,60.0240096,5f9920fdbcbfb224a0c96932,626b377229c10585ec392f8a,626b3b488e63d823d729a59a,,,,,,,,,,,,,,,,,,,,,,,a,0,1.732,"[""0.382"",""0.335"",""0.464"",""0.773""]","[0,1,1,1]",0,63,63,63,1,1,0,,,1,FALSE,,,,,,,,,,,,,,,,,,,,,,,,,,,,,,
,5f9920fdbcbfb224a0c96932,001,2022-04-29_10h42.32.492,classification_task,2021.2.3,Win32,60.0240096,5f9920fdbcbfb224a0c96932,626b377229c10585ec392f8a,626b3b488e63d823d729a59a,,,,,,,,,,,,,,,,,,,,,,,,,,,,,,,,,,,,,,,0, ,,0,4.621086861,235.146,0,1,1,1,1,2,2,,,,,,,,,,,,,,,,,
,5f9920fdbcbfb224a0c96932,001,2022-04-29_10h42.32.492,classification_task,2021.2.3,Win32,60.0240096,5f9920fdbcbfb224a0c96932,626b377229c10585ec392f8a,626b3b488e63d823d729a59a,,,,,,,,,,,,,,,,,,,,,,,,,,,,,,,,,,,,,,,1,  ,,0,9.891424162,242,0,1,1,1,1,2,2,,,,,,,,,,,,,,,,,
,5f9920fdbcbfb224a0c96932,001,2022-04-29_10h42.32.492,classification_task,2021.2.3,Win32,60.0240096,5f9920fdbcbfb224a0c96932,626b377229c10585ec392f8a,626b3b488e63d823d729a59a,,,,,,,,,,,,,,,,,,,,,,,,,,,,,,,,,,,,,,,2,  ,,0,10,246.549,0,1,1,1,1,2,2,,,,,,,,,,,,,,,,,
,5f9920fdbcbfb224a0c96932,001,2022-04-29_10h42.32.492,classification_task,2021.2.3,Win32,60.0240096,5f9920fdbcbfb224a0c96932,626b377229c10585ec392f8a,626b3b488e63d823d729a59a,,,,,,,,,,,,,,,,,,,,,,,,,,,,,,,,,,,,,,,,,,,,,0,1,1,1,1,,2,,,,,,,,,,,,,,,,,
,5f9920fdbcbfb224a0c96932,001,2022-04-29_10h42.32.492,classification_task,2021.2.3,Win32,60.0240096,5f9920fdbcbfb224a0c96932,626b377229c10585ec392f8a,626b3b488e63d823d729a59a,,,,,,,,,,,,,,,,,,,,,space,12.278,a,0,1.972,"[""0.058"",""0.335"",""0.464"",""0.380""]","[1,1,1,0]",0,0,0,0,1,1,0,,,1,FALSE,,,,,,,,,,,,,,,,,,,,,,,,,,,,,,
,5f9920fdbcbfb224a0c96932,001,2022-04-29_10h42.32.492,classification_task,2021.2.3,Win32,60.0240096,5f9920fdbcbfb224a0c96932,626b377229c10585ec392f8a,626b3b488e63d823d729a59a,,,,,,,,,,,,,,,,,,,,,,,a,1,2.158,"[""0.249"",""0.577"",""0.696"",""0.884""]","[1,0,1,1]",0,1,1,1,1,0,1,,,1,FALSE,,,,,,,,,,,,,,,,,,,,,,,,,,,,,,
,5f9920fdbcbfb224a0c96932,001,2022-04-29_10h42.32.492,classification_task,2021.2.3,Win32,60.0240096,5f9920fdbcbfb224a0c96932,626b377229c10585ec392f8a,626b3b488e63d823d729a59a,,,,,,,,,,,,,,,,,,,,,,,a,1,1.433,"[""0.249"",""0.422"",""0.696"",""0.381""]","[1,1,1,0]",0,2,2,2,1,0,1,,,1,FALSE,,,,,,,,,,,,,,,,,,,,,,,,,,,,,,
,5f9920fdbcbfb224a0c96932,001,2022-04-29_10h42.32.492,classification_task,2021.2.3,Win32,60.0240096,5f9920fdbcbfb224a0c96932,626b377229c10585ec392f8a,626b3b488e63d823d729a59a,,,,,,,,,,,,,,,,,,,,,,,l,0,2.924,"[""0.249"",""0.422"",""0.283"",""0.884""]","[1,1,0,1]",0,3,3,3,1,0,1,,,1,FALSE,,,,,,,,,,,,,,,,,,,,,,,,,,,,,,
,5f9920fdbcbfb224a0c96932,001,2022-04-29_10h42.32.492,classification_task,2021.2.3,Win32,60.0240096,5f9920fdbcbfb224a0c96932,626b377229c10585ec392f8a,626b3b488e63d823d729a59a,,,,,,,,,,,,,,,,,,,,,,,a,0,2.513,"[""0.582"",""0.335"",""0.464"",""0.773""]","[0,1,1,1]",0,4,4,4,1,1,0,,,1,FALSE,,,,,,,,,,,,,,,,,,,,,,,,,,,,,,
,5f9920fdbcbfb224a0c96932,001,2022-04-29_10h42.32.492,classification_task,2021.2.3,Win32,60.0240096,5f9920fdbcbfb224a0c96932,626b377229c10585ec392f8a,626b3b488e63d823d729a59a,,,,,,,,,,,,,,,,,,,,,,,a,1,1.675,"[""0.213"",""0.498"",""0.919"",""0.297""]","[1,1,1,0]",0,5,5,5,1,0,0,,,1,FALSE,,,,,,,,,,,,,,,,,,,,,,,,,,,,,,
,5f9920fdbcbfb224a0c96932,001,2022-04-29_10h42.32.492,classification_task,2021.2.3,Win32,60.0240096,5f9920fdbcbfb224a0c96932,626b377229c10585ec392f8a,626b3b488e63d823d729a59a,,,,,,,,,,,,,,,,,,,,,,,l,1,1.632,"[""0.058"",""0.383"",""0.464"",""0.773""]","[1,0,1,1]",0,6,6,6,1,1,0,,,1,FALSE,,,,,,,,,,,,,,,,,,,,,,,,,,,,,,
,5f9920fdbcbfb224a0c96932,001,2022-04-29_10h42.32.492,classification_task,2021.2.3,Win32,60.0240096,5f9920fdbcbfb224a0c96932,626b377229c10585ec392f8a,626b3b488e63d823d729a59a,,,,,,,,,,,,,,,,,,,,,,,l,1,1.54,"[""0.112"",""0.383"",""0.621"",""0.830""]","[1,0,1,1]",0,7,7,7,1,1,1,,,1,FALSE,,,,,,,,,,,,,,,,,,,,,,,,,,,,,,
,5f9920fdbcbfb224a0c96932,001,2022-04-29_10h42.32.492,classification_task,2021.2.3,Win32,60.0240096,5f9920fdbcbfb224a0c96932,626b377229c10585ec392f8a,626b3b488e63d823d729a59a,,,,,,,,,,,,,,,,,,,,,,,a,1,1.526,"[""0.213"",""0.498"",""0.283"",""0.974""]","[1,1,0,1]",0,8,8,8,1,0,0,,,1,FALSE,,,,,,,,,,,,,,,,,,,,,,,,,,,,,,
,5f9920fdbcbfb224a0c96932,001,2022-04-29_10h42.32.492,classification_task,2021.2.3,Win32,60.0240096,5f9920fdbcbfb224a0c96932,626b377229c10585ec392f8a,626b3b488e63d823d729a59a,,,,,,,,,,,,,,,,,,,,,,,a,0,2.462,"[""0.112"",""0.147"",""0.621"",""0.383""]","[1,1,1,0]",0,9,9,9,1,1,1,,,1,FALSE,,,,,,,,,,,,,,,,,,,,,,,,,,,,,,
,5f9920fdbcbfb224a0c96932,001,2022-04-29_10h42.32.492,classification_task,2021.2.3,Win32,60.0240096,5f9920fdbcbfb224a0c96932,626b377229c10585ec392f8a,626b3b488e63d823d729a59a,,,,,,,,,,,,,,,,,,,,,,,l,0,1.437,"[""0.552"",""0.422"",""0.696"",""0.884""]","[0,1,1,1]",0,10,10,10,1,0,1,,,1,FALSE,,,,,,,,,,,,,,,,,,,,,,,,,,,,,,
,5f9920fdbcbfb224a0c96932,001,2022-04-29_10h42.32.492,classification_task,2021.2.3,Win32,60.0240096,5f9920fdbcbfb224a0c96932,626b377229c10585ec392f8a,626b3b488e63d823d729a59a,,,,,,,,,,,,,,,,,,,,,,,l,1,1.851,"[""0.112"",""0.147"",""0.736"",""0.830""]","[1,1,0,1]",0,11,11,11,1,1,1,,,1,FALSE,,,,,,,,,,,,,,,,,,,,,,,,,,,,,,
,5f9920fdbcbfb224a0c96932,001,2022-04-29_10h42.32.492,classification_task,2021.2.3,Win32,60.0240096,5f9920fdbcbfb224a0c96932,626b377229c10585ec392f8a,626b3b488e63d823d729a59a,,,,,,,,,,,,,,,,,,,,,,,l,0,2.464,"[""0.213"",""0.736"",""0.919"",""0.974""]","[1,0,1,1]",0,12,12,12,1,0,0,,,1,FALSE,,,,,,,,,,,,,,,,,,,,,,,,,,,,,,
,5f9920fdbcbfb224a0c96932,001,2022-04-29_10h42.32.492,classification_task,2021.2.3,Win32,60.0240096,5f9920fdbcbfb224a0c96932,626b377229c10585ec392f8a,626b3b488e63d823d729a59a,,,,,,,,,,,,,,,,,,,,,,,a,0,1.47,"[""0.381"",""0.147"",""0.621"",""0.830""]","[0,1,1,1]",0,13,13,13,1,1,1,,,1,FALSE,,,,,,,,,,,,,,,,,,,,,,,,,,,,,,
,5f9920fdbcbfb224a0c96932,001,2022-04-29_10h42.32.492,classification_task,2021.2.3,Win32,60.0240096,5f9920fdbcbfb224a0c96932,626b377229c10585ec392f8a,626b3b488e63d823d729a59a,,,,,,,,,,,,,,,,,,,,,,,a,1,1.277,"[""0.283"",""0.498"",""0.919"",""0.974""]","[0,1,1,1]",0,14,14,14,1,0,0,,,1,FALSE,,,,,,,,,,,,,,,,,,,,,,,,,,,,,,
,5f9920fdbcbfb224a0c96932,001,2022-04-29_10h42.32.492,classification_task,2021.2.3,Win32,60.0240096,5f9920fdbcbfb224a0c96932,626b377229c10585ec392f8a,626b3b488e63d823d729a59a,,,,,,,,,,,,,,,,,,,,,,,a,0,1.731,"[""0.058"",""0.335"",""0.543"",""0.773""]","[1,1,0,1]",0,15,15,15,1,1,0,,,1,FALSE,,,,,,,,,,,,,,,,,,,,,,,,,,,,,,
,5f9920fdbcbfb224a0c96932,001,2022-04-29_10h42.32.492,classification_task,2021.2.3,Win32,60.0240096,5f9920fdbcbfb224a0c96932,626b377229c10585ec392f8a,626b3b488e63d823d729a59a,,,,,,,,,,,,,,,,,,,,,,,a,1,2.392,"[""0.213"",""0.498"",""0.919"",""0.582""]","[1,1,1,0]",0,16,16,16,1,0,0,,,1,FALSE,,,,,,,,,,,,,,,,,,,,,,,,,,,,,,
,5f9920fdbcbfb224a0c96932,001,2022-04-29_10h42.32.492,classification_task,2021.2.3,Win32,60.0240096,5f9920fdbcbfb224a0c96932,626b377229c10585ec392f8a,626b3b488e63d823d729a59a,,,,,,,,,,,,,,,,,,,,,,,l,0,1.711,"[""0.730"",""0.422"",""0.696"",""0.884""]","[0,1,1,1]",0,17,17,17,1,0,1,,,1,FALSE,,,,,,,,,,,,,,,,,,,,,,,,,,,,,,
,5f9920fdbcbfb224a0c96932,001,2022-04-29_10h42.32.492,classification_task,2021.2.3,Win32,60.0240096,5f9920fdbcbfb224a0c96932,626b377229c10585ec392f8a,626b3b488e63d823d729a59a,,,,,,,,,,,,,,,,,,,,,,,a,1,1.557,"[""0.213"",""0.498"",""0.382"",""0.974""]","[1,1,0,1]",0,18,18,18,1,0,0,,,1,FALSE,,,,,,,,,,,,,,,,,,,,,,,,,,,,,,
,5f9920fdbcbfb224a0c96932,001,2022-04-29_10h42.32.492,classification_task,2021.2.3,Win32,60.0240096,5f9920fdbcbfb224a0c96932,626b377229c10585ec392f8a,626b3b488e63d823d729a59a,,,,,,,,,,,,,,,,,,,,,,,a,1,1.996,"[""0.249"",""0.422"",""0.696"",""0.548""]","[1,1,1,0]",0,19,19,19,1,0,1,,,1,FALSE,,,,,,,,,,,,,,,,,,,,,,,,,,,,,,
,5f9920fdbcbfb224a0c96932,001,2022-04-29_10h42.32.492,classification_task,2021.2.3,Win32,60.0240096,5f9920fdbcbfb224a0c96932,626b377229c10585ec392f8a,626b3b488e63d823d729a59a,,,,,,,,,,,,,,,,,,,,,,,l,0,1.48,"[""0.249"",""0.736"",""0.696"",""0.884""]","[1,0,1,1]",0,20,20,20,1,0,1,,,1,FALSE,,,,,,,,,,,,,,,,,,,,,,,,,,,,,,
,5f9920fdbcbfb224a0c96932,001,2022-04-29_10h42.32.492,classification_task,2021.2.3,Win32,60.0240096,5f9920fdbcbfb224a0c96932,626b377229c10585ec392f8a,626b3b488e63d823d729a59a,,,,,,,,,,,,,,,,,,,,,,,a,0,2.379,"[""0.112"",""0.283"",""0.621"",""0.830""]","[1,0,1,1]",0,21,21,21,1,1,1,,,1,FALSE,,,,,,,,,,,,,,,,,,,,,,,,,,,,,,
,5f9920fdbcbfb224a0c96932,001,2022-04-29_10h42.32.492,classification_task,2021.2.3,Win32,60.0240096,5f9920fdbcbfb224a0c96932,626b377229c10585ec392f8a,626b3b488e63d823d729a59a,,,,,,,,,,,,,,,,,,,,,,,a,1,2.594,"[""0.297"",""0.498"",""0.919"",""0.974""]","[0,1,1,1]",0,22,22,22,1,0,0,,,1,FALSE,,,,,,,,,,,,,,,,,,,,,,,,,,,,,,
,5f9920fdbcbfb224a0c96932,001,2022-04-29_10h42.32.492,classification_task,2021.2.3,Win32,60.0240096,5f9920fdbcbfb224a0c96932,626b377229c10585ec392f8a,626b3b488e63d823d729a59a,,,,,,,,,,,,,,,,,,,,,,,l,1,1.729,"[""0.058"",""0.335"",""0.464"",""0.296""]","[1,1,1,0]",0,23,23,23,1,1,0,,,1,FALSE,,,,,,,,,,,,,,,,,,,,,,,,,,,,,,
,5f9920fdbcbfb224a0c96932,001,2022-04-29_10h42.32.492,classification_task,2021.2.3,Win32,60.0240096,5f9920fdbcbfb224a0c96932,626b377229c10585ec392f8a,626b3b488e63d823d729a59a,,,,,,,,,,,,,,,,,,,,,,,a,0,1.621,"[""0.112"",""0.147"",""0.621"",""0.296""]","[1,1,1,0]",0,24,24,24,1,1,1,,,1,FALSE,,,,,,,,,,,,,,,,,,,,,,,,,,,,,,
,5f9920fdbcbfb224a0c96932,001,2022-04-29_10h42.32.492,classification_task,2021.2.3,Win32,60.0240096,5f9920fdbcbfb224a0c96932,626b377229c10585ec392f8a,626b3b488e63d823d729a59a,,,,,,,,,,,,,,,,,,,,,,,a,0,1.848,"[""0.058"",""0.552"",""0.464"",""0.773""]","[1,0,1,1]",0,25,25,25,1,1,0,,,1,FALSE,,,,,,,,,,,,,,,,,,,,,,,,,,,,,,
,5f9920fdbcbfb224a0c96932,001,2022-04-29_10h42.32.492,classification_task,2021.2.3,Win32,60.0240096,5f9920fdbcbfb224a0c96932,626b377229c10585ec392f8a,626b3b488e63d823d729a59a,,,,,,,,,,,,,,,,,,,,,,,l,1,2.019,"[""0.382"",""0.335"",""0.464"",""0.773""]","[0,1,1,1]",0,26,26,26,1,1,0,,,1,FALSE,,,,,,,,,,,,,,,,,,,,,,,,,,,,,,
,5f9920fdbcbfb224a0c96932,001,2022-04-29_10h42.32.492,classification_task,2021.2.3,Win32,60.0240096,5f9920fdbcbfb224a0c96932,626b377229c10585ec392f8a,626b3b488e63d823d729a59a,,,,,,,,,,,,,,,,,,,,,,,l,0,1.339,"[""0.249"",""0.422"",""0.577"",""0.884""]","[1,1,0,1]",0,27,27,27,1,0,1,,,1,FALSE,,,,,,,,,,,,,,,,,,,,,,,,,,,,,,
,5f9920fdbcbfb224a0c96932,001,2022-04-29_10h42.32.492,classification_task,2021.2.3,Win32,60.0240096,5f9920fdbcbfb224a0c96932,626b377229c10585ec392f8a,626b3b488e63d823d729a59a,,,,,,,,,,,,,,,,,,,,,,,a,0,1.126,"[""0.112"",""0.147"",""0.383"",""0.830""]","[1,1,0,1]",0,28,28,28,1,1,1,,,1,FALSE,,,,,,,,,,,,,,,,,,,,,,,,,,,,,,
,5f9920fdbcbfb224a0c96932,001,2022-04-29_10h42.32.492,classification_task,2021.2.3,Win32,60.0240096,5f9920fdbcbfb224a0c96932,626b377229c10585ec392f8a,626b3b488e63d823d729a59a,,,,,,,,,,,,,,,,,,,,,,,l,1,2.344,"[""0.058"",""0.335"",""0.380"",""0.773""]","[1,1,0,1]",0,29,29,29,1,1,0,,,1,FALSE,,,,,,,,,,,,,,,,,,,,,,,,,,,,,,
,5f9920fdbcbfb224a0c96932,001,2022-04-29_10h42.32.492,classification_task,2021.2.3,Win32,60.0240096,5f9920fdbcbfb224a0c96932,626b377229c10585ec392f8a,626b3b488e63d823d729a59a,,,,,,,,,,,,,,,,,,,,,,,l,0,1.366,"[""0.213"",""0.283"",""0.919"",""0.974""]","[1,0,1,1]",0,30,30,30,1,0,0,,,1,FALSE,,,,,,,,,,,,,,,,,,,,,,,,,,,,,,
,5f9920fdbcbfb224a0c96932,001,2022-04-29_10h42.32.492,classification_task,2021.2.3,Win32,60.0240096,5f9920fdbcbfb224a0c96932,626b377229c10585ec392f8a,626b3b488e63d823d729a59a,,,,,,,,,,,,,,,,,,,,,,,a,0,0.813,"[""0.552"",""0.147"",""0.621"",""0.830""]","[0,1,1,1]",0,31,31,31,1,1,1,,,1,FALSE,,,,,,,,,,,,,,,,,,,,,,,,,,,,,,
,5f9920fdbcbfb224a0c96932,001,2022-04-29_10h42.32.492,classification_task,2021.2.3,Win32,60.0240096,5f9920fdbcbfb224a0c96932,626b377229c10585ec392f8a,626b3b488e63d823d729a59a,,,,,,,,,,,,,,,,,,,,,,,a,0,1.005,"[""0.058"",""0.730"",""0.464"",""0.773""]","[1,0,1,1]",0,32,32,32,1,1,0,,,1,FALSE,,,,,,,,,,,,,,,,,,,,,,,,,,,,,,
,5f9920fdbcbfb224a0c96932,001,2022-04-29_10h42.32.492,classification_task,2021.2.3,Win32,60.0240096,5f9920fdbcbfb224a0c96932,626b377229c10585ec392f8a,626b3b488e63d823d729a59a,,,,,,,,,,,,,,,,,,,,,,,a,0,1.289,"[""0.552"",""0.335"",""0.464"",""0.773""]","[0,1,1,1]",0,33,33,33,1,1,0,,,1,FALSE,,,,,,,,,,,,,,,,,,,,,,,,,,,,,,
,5f9920fdbcbfb224a0c96932,001,2022-04-29_10h42.32.492,classification_task,2021.2.3,Win32,60.0240096,5f9920fdbcbfb224a0c96932,626b377229c10585ec392f8a,626b3b488e63d823d729a59a,,,,,,,,,,,,,,,,,,,,,,,a,0,1.355,"[""0.058"",""0.335"",""0.548"",""0.773""]","[1,1,0,1]",0,34,34,34,1,1,0,,,1,FALSE,,,,,,,,,,,,,,,,,,,,,,,,,,,,,,
,5f9920fdbcbfb224a0c96932,001,2022-04-29_10h42.32.492,classification_task,2021.2.3,Win32,60.0240096,5f9920fdbcbfb224a0c96932,626b377229c10585ec392f8a,626b3b488e63d823d729a59a,,,,,,,,,,,,,,,,,,,,,,,l,0,1.584,"[""0.249"",""0.422"",""0.540"",""0.884""]","[1,1,0,1]",0,35,35,35,1,0,1,,,1,FALSE,,,,,,,,,,,,,,,,,,,,,,,,,,,,,,
,5f9920fdbcbfb224a0c96932,001,2022-04-29_10h42.32.492,classification_task,2021.2.3,Win32,60.0240096,5f9920fdbcbfb224a0c96932,626b377229c10585ec392f8a,626b3b488e63d823d729a59a,,,,,,,,,,,,,,,,,,,,,,,a,1,1.391,"[""0.213"",""0.498"",""0.582"",""0.974""]","[1,1,0,1]",0,36,36,36,1,0,0,,,1,FALSE,,,,,,,,,,,,,,,,,,,,,,,,,,,,,,
,5f9920fdbcbfb224a0c96932,001,2022-04-29_10h42.32.492,classification_task,2021.2.3,Win32,60.0240096,5f9920fdbcbfb224a0c96932,626b377229c10585ec392f8a,626b3b488e63d823d729a59a,,,,,,,,,,,,,,,,,,,,,,,l,0,1.956,"[""0.213"",""0.382"",""0.919"",""0.974""]","[1,0,1,1]",0,37,37,37,1,0,0,,,1,FALSE,,,,,,,,,,,,,,,,,,,,,,,,,,,,,,
,5f9920fdbcbfb224a0c96932,001,2022-04-29_10h42.32.492,classification_task,2021.2.3,Win32,60.0240096,5f9920fdbcbfb224a0c96932,626b377229c10585ec392f8a,626b3b488e63d823d729a59a,,,,,,,,,,,,,,,,,,,,,,,a,0,1.524,"[""0.112"",""0.147"",""0.383"",""0.830""]","[1,1,0,1]",0,38,38,38,1,1,1,,,1,FALSE,,,,,,,,,,,,,,,,,,,,,,,,,,,,,,
,5f9920fdbcbfb224a0c96932,001,2022-04-29_10h42.32.492,classification_task,2021.2.3,Win32,60.0240096,5f9920fdbcbfb224a0c96932,626b377229c10585ec392f8a,626b3b488e63d823d729a59a,,,,,,,,,,,,,,,,,,,,,,,a,0,1.775,"[""0.058"",""0.335"",""0.464"",""0.296""]","[1,1,1,0]",0,39,39,39,1,1,0,,,1,FALSE,,,,,,,,,,,,,,,,,,,,,,,,,,,,,,
,5f9920fdbcbfb224a0c96932,001,2022-04-29_10h42.32.492,classification_task,2021.2.3,Win32,60.0240096,5f9920fdbcbfb224a0c96932,626b377229c10585ec392f8a,626b3b488e63d823d729a59a,,,,,,,,,,,,,,,,,,,,,,,l,0,1.916,"[""0.249"",""0.380"",""0.696"",""0.884""]","[1,0,1,1]",0,40,40,40,1,0,1,,,1,FALSE,,,,,,,,,,,,,,,,,,,,,,,,,,,,,,
,5f9920fdbcbfb224a0c96932,001,2022-04-29_10h42.32.492,classification_task,2021.2.3,Win32,60.0240096,5f9920fdbcbfb224a0c96932,626b377229c10585ec392f8a,626b3b488e63d823d729a59a,,,,,,,,,,,,,,,,,,,,,,,a,0,1.13,"[""0.112"",""0.147"",""0.621"",""0.283""]","[1,1,1,0]",0,41,41,41,1,1,1,,,1,FALSE,,,,,,,,,,,,,,,,,,,,,,,,,,,,,,
,5f9920fdbcbfb224a0c96932,001,2022-04-29_10h42.32.492,classification_task,2021.2.3,Win32,60.0240096,5f9920fdbcbfb224a0c96932,626b377229c10585ec392f8a,626b3b488e63d823d729a59a,,,,,,,,,,,,,,,,,,,,,,,a,0,1.636,"[""0.112"",""0.730"",""0.621"",""0.830""]","[1,0,1,1]",0,42,42,42,1,1,1,,,1,FALSE,,,,,,,,,,,,,,,,,,,,,,,,,,,,,,
,5f9920fdbcbfb224a0c96932,001,2022-04-29_10h42.32.492,classification_task,2021.2.3,Win32,60.0240096,5f9920fdbcbfb224a0c96932,626b377229c10585ec392f8a,626b3b488e63d823d729a59a,,,,,,,,,,,,,,,,,,,,,,,a,0,2.438,"[""0.730"",""0.147"",""0.621"",""0.830""]","[0,1,1,1]",0,43,43,43,1,1,1,,,1,FALSE,,,,,,,,,,,,,,,,,,,,,,,,,,,,,,
,5f9920fdbcbfb224a0c96932,001,2022-04-29_10h42.32.492,classification_task,2021.2.3,Win32,60.0240096,5f9920fdbcbfb224a0c96932,626b377229c10585ec392f8a,626b3b488e63d823d729a59a,,,,,,,,,,,,,,,,,,,,,,,a,1,1.545,"[""0.213"",""0.498"",""0.919"",""0.297""]","[1,1,1,0]",0,44,44,44,1,0,0,,,1,FALSE,,,,,,,,,,,,,,,,,,,,,,,,,,,,,,
,5f9920fdbcbfb224a0c96932,001,2022-04-29_10h42.32.492,classification_task,2021.2.3,Win32,60.0240096,5f9920fdbcbfb224a0c96932,626b377229c10585ec392f8a,626b3b488e63d823d729a59a,,,,,,,,,,,,,,,,,,,,,,,l,0,1.679,"[""0.543"",""0.422"",""0.696"",""0.884""]","[0,1,1,1]",0,45,45,45,1,0,1,,,1,FALSE,,,,,,,,,,,,,,,,,,,,,,,,,,,,,,
,5f9920fdbcbfb224a0c96932,001,2022-04-29_10h42.32.492,classification_task,2021.2.3,Win32,60.0240096,5f9920fdbcbfb224a0c96932,626b377229c10585ec392f8a,626b3b488e63d823d729a59a,,,,,,,,,,,,,,,,,,,,,,,a,1,1.86,"[""0.548"",""0.498"",""0.919"",""0.974""]","[0,1,1,1]",0,46,46,46,1,0,0,,,1,FALSE,,,,,,,,,,,,,,,,,,,,,,,,,,,,,,
,5f9920fdbcbfb224a0c96932,001,2022-04-29_10h42.32.492,classification_task,2021.2.3,Win32,60.0240096,5f9920fdbcbfb224a0c96932,626b377229c10585ec392f8a,626b3b488e63d823d729a59a,,,,,,,,,,,,,,,,,,,,,,,a,1,1.644,"[""0.249"",""0.422"",""0.696"",""0.552""]","[1,1,1,0]",0,47,47,47,1,0,1,,,1,FALSE,,,,,,,,,,,,,,,,,,,,,,,,,,,,,,
,5f9920fdbcbfb224a0c96932,001,2022-04-29_10h42.32.492,classification_task,2021.2.3,Win32,60.0240096,5f9920fdbcbfb224a0c96932,626b377229c10585ec392f8a,626b3b488e63d823d729a59a,,,,,,,,,,,,,,,,,,,,,,,l,0,0.767,"[""0.249"",""0.422"",""0.696"",""0.383""]","[1,1,1,0]",0,48,48,48,1,0,1,,,1,FALSE,,,,,,,,,,,,,,,,,,,,,,,,,,,,,,
,5f9920fdbcbfb224a0c96932,001,2022-04-29_10h42.32.492,classification_task,2021.2.3,Win32,60.0240096,5f9920fdbcbfb224a0c96932,626b377229c10585ec392f8a,626b3b488e63d823d729a59a,,,,,,,,,,,,,,,,,,,,,,,a,0,0.95,"[""0.112"",""0.147"",""0.621"",""0.297""]","[1,1,1,0]",0,49,49,49,1,1,1,,,1,FALSE,,,,,,,,,,,,,,,,,,,,,,,,,,,,,,
,5f9920fdbcbfb224a0c96932,001,2022-04-29_10h42.32.492,classification_task,2021.2.3,Win32,60.0240096,5f9920fdbcbfb224a0c96932,626b377229c10585ec392f8a,626b3b488e63d823d729a59a,,,,,,,,,,,,,,,,,,,,,,,a,0,1.66,"[""0.112"",""0.543"",""0.621"",""0.830""]","[1,0,1,1]",0,50,50,50,1,1,1,,,1,FALSE,,,,,,,,,,,,,,,,,,,,,,,,,,,,,,
,5f9920fdbcbfb224a0c96932,001,2022-04-29_10h42.32.492,classification_task,2021.2.3,Win32,60.0240096,5f9920fdbcbfb224a0c96932,626b377229c10585ec392f8a,626b3b488e63d823d729a59a,,,,,,,,,,,,,,,,,,,,,,,a,1,1.978,"[""0.213"",""0.283"",""0.919"",""0.974""]","[1,0,1,1]",0,51,51,51,1,0,0,,,1,FALSE,,,,,,,,,,,,,,,,,,,,,,,,,,,,,,
,5f9920fdbcbfb224a0c96932,001,2022-04-29_10h42.32.492,classification_task,2021.2.3,Win32,60.0240096,5f9920fdbcbfb224a0c96932,626b377229c10585ec392f8a,626b3b488e63d823d729a59a,,,,,,,,,,,,,,,,,,,,,,,l,0,0.883,"[""0.249"",""0.296"",""0.696"",""0.884""]","[1,0,1,1]",0,52,52,52,1,0,1,,,1,FALSE,,,,,,,,,,,,,,,,,,,,,,,,,,,,,,
,5f9920fdbcbfb224a0c96932,001,2022-04-29_10h42.32.492,classification_task,2021.2.3,Win32,60.0240096,5f9920fdbcbfb224a0c96932,626b377229c10585ec392f8a,626b3b488e63d823d729a59a,,,,,,,,,,,,,,,,,,,,,,,l,0,1.361,"[""0.213"",""0.498"",""0.919"",""0.552""]","[1,1,1,0]",0,53,53,53,1,0,0,,,1,FALSE,,,,,,,,,,,,,,,,,,,,,,,,,,,,,,
,5f9920fdbcbfb224a0c96932,001,2022-04-29_10h42.32.492,classification_task,2021.2.3,Win32,60.0240096,5f9920fdbcbfb224a0c96932,626b377229c10585ec392f8a,626b3b488e63d823d729a59a,,,,,,,,,,,,,,,,,,,,,,,a,1,1.599,"[""0.582"",""0.422"",""0.696"",""0.884""]","[0,1,1,1]",0,54,54,54,1,0,1,,,1,FALSE,,,,,,,,,,,,,,,,,,,,,,,,,,,,,,
,5f9920fdbcbfb224a0c96932,001,2022-04-29_10h42.32.492,classification_task,2021.2.3,Win32,60.0240096,5f9920fdbcbfb224a0c96932,626b377229c10585ec392f8a,626b3b488e63d823d729a59a,,,,,,,,,,,,,,,,,,,,,,,l,1,2.286,"[""0.058"",""0.380"",""0.464"",""0.773""]","[1,0,1,1]",0,55,55,55,1,1,0,,,1,FALSE,,,,,,,,,,,,,,,,,,,,,,,,,,,,,,
,5f9920fdbcbfb224a0c96932,001,2022-04-29_10h42.32.492,classification_task,2021.2.3,Win32,60.0240096,5f9920fdbcbfb224a0c96932,626b377229c10585ec392f8a,626b3b488e63d823d729a59a,,,,,,,,,,,,,,,,,,,,,,,a,1,1.293,"[""0.213"",""0.498"",""0.582"",""0.974""]","[1,1,0,1]",0,56,56,56,1,0,0,,,1,FALSE,,,,,,,,,,,,,,,,,,,,,,,,,,,,,,
,5f9920fdbcbfb224a0c96932,001,2022-04-29_10h42.32.492,classification_task,2021.2.3,Win32,60.0240096,5f9920fdbcbfb224a0c96932,626b377229c10585ec392f8a,626b3b488e63d823d729a59a,,,,,,,,,,,,,,,,,,,,,,,a,0,1.378,"[""0.736"",""0.147"",""0.621"",""0.830""]","[0,1,1,1]",0,57,57,57,1,1,1,,,1,FALSE,,,,,,,,,,,,,,,,,,,,,,,,,,,,,,
,5f9920fdbcbfb224a0c96932,001,2022-04-29_10h42.32.492,classification_task,2021.2.3,Win32,60.0240096,5f9920fdbcbfb224a0c96932,626b377229c10585ec392f8a,626b3b488e63d823d729a59a,,,,,,,,,,,,,,,,,,,,,,,a,0,1.588,"[""0.112"",""0.147"",""0.381"",""0.830""]","[1,1,0,1]",0,58,58,58,1,1,1,,,1,FALSE,,,,,,,,,,,,,,,,,,,,,,,,,,,,,,
,5f9920fdbcbfb224a0c96932,001,2022-04-29_10h42.32.492,classification_task,2021.2.3,Win32,60.0240096,5f9920fdbcbfb224a0c96932,626b377229c10585ec392f8a,626b3b488e63d823d729a59a,,,,,,,,,,,,,,,,,,,,,,,l,0,1.163,"[""0.283"",""0.498"",""0.919"",""0.974""]","[0,1,1,1]",0,59,59,59,1,0,0,,,1,FALSE,,,,,,,,,,,,,,,,,,,,,,,,,,,,,,
,5f9920fdbcbfb224a0c96932,001,2022-04-29_10h42.32.492,classification_task,2021.2.3,Win32,60.0240096,5f9920fdbcbfb224a0c96932,626b377229c10585ec392f8a,626b3b488e63d823d729a59a,,,,,,,,,,,,,,,,,,,,,,,a,0,1.534,"[""0.058"",""0.335"",""0.534"",""0.773""]","[1,1,0,1]",0,60,60,60,1,1,0,,,1,FALSE,,,,,,,,,,,,,,,,,,,,,,,,,,,,,,
,5f9920fdbcbfb224a0c96932,001,2022-04-29_10h42.32.492,classification_task,2021.2.3,Win32,60.0240096,5f9920fdbcbfb224a0c96932,626b377229c10585ec392f8a,626b3b488e63d823d729a59a,,,,,,,,,,,,,,,,,,,,,,,a,0,2.261,"[""0.058"",""0.335"",""0.464"",""0.383""]","[1,1,1,0]",0,61,61,61,1,1,0,,,1,FALSE,,,,,,,,,,,,,,,,,,,,,,,,,,,,,,
,5f9920fdbcbfb224a0c96932,001,2022-04-29_10h42.32.492,classification_task,2021.2.3,Win32,60.0240096,5f9920fdbcbfb224a0c96932,626b377229c10585ec392f8a,626b3b488e63d823d729a59a,,,,,,,,,,,,,,,,,,,,,,,l,1,0.848,"[""0.297"",""0.335"",""0.464"",""0.773""]","[0,1,1,1]",0,62,62,62,1,1,0,,,1,FALSE,,,,,,,,,,,,,,,,,,,,,,,,,,,,,,
,5f9920fdbcbfb224a0c96932,001,2022-04-29_10h42.32.492,classification_task,2021.2.3,Win32,60.0240096,5f9920fdbcbfb224a0c96932,626b377229c10585ec392f8a,626b3b488e63d823d729a59a,,,,,,,,,,,,,,,,,,,,,,,a,1,1.415,"[""0.249"",""0.422"",""0.540"",""0.884""]","[1,1,0,1]",0,63,63,63,1,0,1,,,1,FALSE,,,,,,,,,,,,,,,,,,,,,,,,,,,,,,
,5f9920fdbcbfb224a0c96932,001,2022-04-29_10h42.32.492,classification_task,2021.2.3,Win32,60.0240096,5f9920fdbcbfb224a0c96932,626b377229c10585ec392f8a,626b3b488e63d823d729a59a,,,,,,,,,,,,,,,,,,,,,,,,,,,,,,,,,,,,,,,0, ,,0,4.931106702,191.187,0,2,2,2,1,2,3,,,,,,,,,,,,,,,,,
,5f9920fdbcbfb224a0c96932,001,2022-04-29_10h42.32.492,classification_task,2021.2.3,Win32,60.0240096,5f9920fdbcbfb224a0c96932,626b377229c10585ec392f8a,626b3b488e63d823d729a59a,,,,,,,,,,,,,,,,,,,,,,,,,,,,,,,,,,,,,,,1,  ,,0,9.409171076,194.739,0,2,2,2,1,2,3,,,,,,,,,,,,,,,,,
,5f9920fdbcbfb224a0c96932,001,2022-04-29_10h42.32.492,classification_task,2021.2.3,Win32,60.0240096,5f9920fdbcbfb224a0c96932,626b377229c10585ec392f8a,626b3b488e63d823d729a59a,,,,,,,,,,,,,,,,,,,,,,,,,,,,,,,,,,,,,,,2,  ,,0,10,200.45,0,2,2,2,1,2,3,,,,,,,,,,,,,,,,,
,5f9920fdbcbfb224a0c96932,001,2022-04-29_10h42.32.492,classification_task,2021.2.3,Win32,60.0240096,5f9920fdbcbfb224a0c96932,626b377229c10585ec392f8a,626b3b488e63d823d729a59a,,,,,,,,,,,,,,,,,,,,,,,,,,,,,,,,,,,,,,,,,,,,,0,2,2,2,1,,3,,,,,,,,,,,,,,,,,
,5f9920fdbcbfb224a0c96932,001,2022-04-29_10h42.32.492,classification_task,2021.2.3,Win32,60.0240096,5f9920fdbcbfb224a0c96932,626b377229c10585ec392f8a,626b3b488e63d823d729a59a,,,,,,,,,,,,,,,,,,,,,,,,,,,,,,,,,,,,,,,,,,,,,,,,,,,,,I believe the aid is a competent performer,,0.7,0,1,1019.418,0,0,0,0,1,0,,,,
,5f9920fdbcbfb224a0c96932,001,2022-04-29_10h42.32.492,classification_task,2021.2.3,Win32,60.0240096,5f9920fdbcbfb224a0c96932,626b377229c10585ec392f8a,626b3b488e63d823d729a59a,,,,,,,,,,,,,,,,,,,,,,,,,,,,,,,,,,,,,,,,,,,,,,,,,,,,,I trust the aid,,0.7,0,2,1022.137,0,0,0,0,1,0,,,,
,5f9920fdbcbfb224a0c96932,001,2022-04-29_10h42.32.492,classification_task,2021.2.3,Win32,60.0240096,5f9920fdbcbfb224a0c96932,626b377229c10585ec392f8a,626b3b488e63d823d729a59a,,,,,,,,,,,,,,,,,,,,,,,,,,,,,,,,,,,,,,,,,,,,,,,,,,,,,I have confidence in the advice given by the aid,,0.7,0,3,1027.748,0,0,0,0,1,0,,,,
,5f9920fdbcbfb224a0c96932,001,2022-04-29_10h42.32.492,classification_task,2021.2.3,Win32,60.0240096,5f9920fdbcbfb224a0c96932,626b377229c10585ec392f8a,626b3b488e63d823d729a59a,,,,,,,,,,,,,,,,,,,,,,,,,,,,,,,,,,,,,,,,,,,,,,,,,,,,,I can depend on the aid,,0.7,0,1,1029.445,0,0,0,0,1,0,,,,
,5f9920fdbcbfb224a0c96932,001,2022-04-29_10h42.32.492,classification_task,2021.2.3,Win32,60.0240096,5f9920fdbcbfb224a0c96932,626b377229c10585ec392f8a,626b3b488e63d823d729a59a,,,,,,,,,,,,,,,,,,,,,,,,,,,,,,,,,,,,,,,,,,,,,,,,,,,,,I can rely on the aid to behave in consistent ways,,0.7,0,2,1038.349,0,0,0,0,1,0,,,,
,5f9920fdbcbfb224a0c96932,001,2022-04-29_10h42.32.492,classification_task,2021.2.3,Win32,60.0240096,5f9920fdbcbfb224a0c96932,626b377229c10585ec392f8a,626b3b488e63d823d729a59a,,,,,,,,,,,,,,,,,,,,,,,,,,,,,,,,,,,,,,,,,,,,,,,,,,,,,I can rely on the aid to do its best every time I take its advice,,0.7,0,3,1042.192,0,0,0,0,1,0,,,,
,5f9920fdbcbfb224a0c96932,001,2022-04-29_10h42.32.492,classification_task,2021.2.3,Win32,60.0240096,5f9920fdbcbfb224a0c96932,626b377229c10585ec392f8a,626b3b488e63d823d729a59a,,,,,,,,,,,,,,,,,,,,,,,,,,,,,,,,,,,,,,,,,,,,,,,,,,,,,"On trials you completed with assistance from the aid, how frequently did you think the aid was correct?",,0.7,0,60,,0,0,0,0,1,0,,,,
,5f9920fdbcbfb224a0c96932,001,2022-04-29_10h42.32.492,classification_task,2021.2.3,Win32,60.0240096,5f9920fdbcbfb224a0c96932,626b377229c10585ec392f8a,626b3b488e63d823d729a59a,,,,,,,,,,,,,,,,,,,,,,,,,,,,,,,,,,,,,,,,,,,,,,,,,,,,,"On trials you completed without the aid, how frequently did you think you were correct?",,0.7,0,65,,0,0,0,0,1,0,,,,
,5f9920fdbcbfb224a0c96932,001,2022-04-29_10h42.32.492,classification_task,2021.2.3,Win32,60.0240096,5f9920fdbcbfb224a0c96932,626b377229c10585ec392f8a,626b3b488e63d823d729a59a,,,,,,,,,,,,,,,,,,,,,,,,,,,,,,,,,,,,,,,,,,,,,,,,,,,,,,,,,,,0,0,0,0,1,,,,,
,5f9920fdbcbfb224a0c96932,001,2022-04-29_10h42.32.492,classification_task,2021.2.3,Win32,60.0240096,5f9920fdbcbfb224a0c96932,626b377229c10585ec392f8a,626b3b488e63d823d729a59a,,,,,,,,,,,,,,,,,,,,,,,,,,,,,,,,,,,,,,,,,,,,,,,,,,,,,,,,,,,,,,,,,space,13.039,1097.216,
,5f9920fdbcbfb224a0c96932,001,2022-04-29_10h42.32.492,classification_task,2021.2.3,Win32,60.0240096,5f9920fdbcbfb224a0c96932,626b377229c10585ec392f8a,626b3b488e63d823d729a59a,,,,,,,,,,,,,,,,,,,,,,,,,,,,,,,,,,,,,,,,,,,,,,,,,,,,,,,,,,,,,,,,,,,,Mozilla/5.0 (Windows NT 10.0; Win64; x64; rv:99.0) Gecko/20100101 Firefox/99.0
