usingWebGL,participant,session,date,expName,psychopyVersion,OS,frameRate,PROLIFIC_PID,STUDY_ID,SESSION_ID,signatures_friend,signatures_foe,band_ranges_top,band_ranges_bottom,formitemText,formtype,formundefined,formitemWidth,formindex,formresponse,formrt,key_resp_2.keys,key_resp_2.rt,tute_resp.keys,tute_resp.rt,tutorial.thisRepN,tutorial.thisTrialN,tutorial.thisN,tutorial.thisIndex,tutorial.ran,key_resp_4.keys,key_resp_4.rt,key_resp.keys,key_resp.corr,key_resp.rt,lines_presented,is_signal_presented,trials.thisRepN,trials.thisTrialN,trials.thisN,trials.thisIndex,trials.ran,vessel,active_band,lines,is_signal,supported_pos,catch_trial,debrief_formindex,debrief_formitemText,debrief_formtype,debrief_formitemWidth,debrief_formresponse,debrief_formrt,phases.thisRepN,phases.thisTrialN,phases.thisN,phases.thisIndex,phases.ran,phases.order,phase,key_resp_3.keys,trustitemText,trusttype,trustitemWidth,trustindex,trustresponse,trustrt,support_status.thisRepN,support_status.thisTrialN,support_status.thisN,support_status.thisIndex,support_status.ran,support_status.order,key_resp_5.keys,key_resp_5.rt,globalClockTime,userAgent
TRUE,5f9baf2a2613ea3ea295875b,001,2022-04-28_20h16.07.598,classification_task,2021.2.3,Win32,59.74429442,5f9baf2a2613ea3ea295875b,626b377229c10585ec392f8a,626b3c3a404e1b6d8480b248,,,,,,,,,,,,,,,,,,,,,,,,,,,,,,,,,,,,,,,,,,,,,,,,,,,,,,,,,,,,,,,,,,,,
,5f9baf2a2613ea3ea295875b,001,2022-04-28_20h16.07.598,classification_task,2021.2.3,Win32,59.74429442,5f9baf2a2613ea3ea295875b,626b377229c10585ec392f8a,626b3c3a404e1b6d8480b248,"[[""0.162"",""0.467"",""0.908"",""0.948""],[""0.206"",""0.432"",""0.699"",""0.850""]]","[[""0.116"",""0.357"",""0.604"",""0.753""],[""0.072"",""0.398"",""0.533"",""0.803""]]","[1,10]","[100,1000]",Video game experience,,,0.7,0,,,,,,,,,,,,,,,,,,,,,,,,,,,,,,,,,,,,,,,,,,,,,,,,,,,,,,,,,,,
,5f9baf2a2613ea3ea295875b,001,2022-04-28_20h16.07.598,classification_task,2021.2.3,Win32,59.74429442,5f9baf2a2613ea3ea295875b,626b377229c10585ec392f8a,626b3c3a404e1b6d8480b248,,,,,Approximately how many hours did you spend playing video games in the last week?,,,0.7,0,3,,,,,,,,,,,,,,,,,,,,,,,,,,,,,,,,,,,,,,,,,,,,,,,,,,,,,,,,,,
,5f9baf2a2613ea3ea295875b,001,2022-04-28_20h16.07.598,classification_task,2021.2.3,Win32,59.74429442,5f9baf2a2613ea3ea295875b,626b377229c10585ec392f8a,626b3c3a404e1b6d8480b248,,,,,"Which game did you play the most this year? (Enter ""None"" if you didn't play any)",,,0.7,0,Mario Kart,,,,,,,,,,,,,,,,,,,,,,,,,,,,,,,,,,,,,,,,,,,,,,,,,,,,,,,,,,
,5f9baf2a2613ea3ea295875b,001,2022-04-28_20h16.07.598,classification_task,2021.2.3,Win32,59.74429442,5f9baf2a2613ea3ea295875b,626b377229c10585ec392f8a,626b3c3a404e1b6d8480b248,,,,,Visual perception,,,0.7,0,,,,,,,,,,,,,,,,,,,,,,,,,,,,,,,,,,,,,,,,,,,,,,,,,,,,,,,,,,,
,5f9baf2a2613ea3ea295875b,001,2022-04-28_20h16.07.598,classification_task,2021.2.3,Win32,59.74429442,5f9baf2a2613ea3ea295875b,626b377229c10585ec392f8a,626b3c3a404e1b6d8480b248,,,,,Do you have any form of color blindness?,,,0.7,0,No,25.6174,,,,,,,,,,,,,,,,,,,,,,,,,,,,,,,,,,,,,,,,,,,,,,,,,,,,,,,,,
,5f9baf2a2613ea3ea295875b,001,2022-04-28_20h16.07.598,classification_task,2021.2.3,Win32,59.74429442,5f9baf2a2613ea3ea295875b,626b377229c10585ec392f8a,626b3c3a404e1b6d8480b248,,,,,Do you use software to change the colour temperature of your screen (e.g. f.lux)?,,,0.7,0,No,31.2423,,,,,,,,,,,,,,,,,,,,,,,,,,,,,,,,,,,,,,,,,,,,,,,,,,,,,,,,,
,5f9baf2a2613ea3ea295875b,001,2022-04-28_20h16.07.598,classification_task,2021.2.3,Win32,59.74429442,5f9baf2a2613ea3ea295875b,626b377229c10585ec392f8a,626b3c3a404e1b6d8480b248,,,,,,,,,,,,space,41.5466,space,6.8189,0,0,0,0,1,,,,,,,,,,,,,,,,,,,,,,,,,,,,,,,,,,,,,,,,,,,,,,,,
,5f9baf2a2613ea3ea295875b,001,2022-04-28_20h16.07.598,classification_task,2021.2.3,Win32,59.74429442,5f9baf2a2613ea3ea295875b,626b377229c10585ec392f8a,626b3c3a404e1b6d8480b248,,,,,,,,,,,,,,space,9.7092,1,0,1,0,1,,,,,,,,,,,,,,,,,,,,,,,,,,,,,,,,,,,,,,,,,,,,,,,,
,5f9baf2a2613ea3ea295875b,001,2022-04-28_20h16.07.598,classification_task,2021.2.3,Win32,59.74429442,5f9baf2a2613ea3ea295875b,626b377229c10585ec392f8a,626b3c3a404e1b6d8480b248,,,,,,,,,,,,,,space,39.736,2,0,2,0,1,,,,,,,,,,,,,,,,,,,,,,,,,,,,,,,,,,,,,,,,,,,,,,,,
,5f9baf2a2613ea3ea295875b,001,2022-04-28_20h16.07.598,classification_task,2021.2.3,Win32,59.74429442,5f9baf2a2613ea3ea295875b,626b377229c10585ec392f8a,626b3c3a404e1b6d8480b248,,,,,,,,,,,,,,space,21.0749,3,0,3,0,1,,,,,,,,,,,,,,,,,,,,,,,,,,,,,,,,,,,,,,,,,,,,,,,,
,5f9baf2a2613ea3ea295875b,001,2022-04-28_20h16.07.598,classification_task,2021.2.3,Win32,59.74429442,5f9baf2a2613ea3ea295875b,626b377229c10585ec392f8a,626b3c3a404e1b6d8480b248,,,,,,,,,,,,,,space,14.5622,4,0,4,0,1,,,,,,,,,,,,,,,,,,,,,,,,,,,,,,,,,,,,,,,,,,,,,,,,
,5f9baf2a2613ea3ea295875b,001,2022-04-28_20h16.07.598,classification_task,2021.2.3,Win32,59.74429442,5f9baf2a2613ea3ea295875b,626b377229c10585ec392f8a,626b3c3a404e1b6d8480b248,,,,,,,,,,,,,,,,,,,,,space,16.6714,l,1,2.6051,"[""0.272"",""0.398"",""0.533"",""0.803""]","[0,1,1,1]",0,0,0,0,1,1,1,,,0,FALSE,,,,,,,,,,,,,,,,,,,,,,,,,,,,,,
,5f9baf2a2613ea3ea295875b,001,2022-04-28_20h16.07.598,classification_task,2021.2.3,Win32,59.74429442,5f9baf2a2613ea3ea295875b,626b377229c10585ec392f8a,626b3c3a404e1b6d8480b248,,,,,,,,,,,,,,,,,,,,,,,a,1,2.094,"[""0.206"",""0.638"",""0.699"",""0.850""]","[1,0,1,1]",0,1,1,1,1,0,1,,,0,FALSE,,,,,,,,,,,,,,,,,,,,,,,,,,,,,,
,5f9baf2a2613ea3ea295875b,001,2022-04-28_20h16.07.598,classification_task,2021.2.3,Win32,59.74429442,5f9baf2a2613ea3ea295875b,626b377229c10585ec392f8a,626b3c3a404e1b6d8480b248,,,,,,,,,,,,,,,,,,,,,,,l,1,2.7943,"[""0.317"",""0.357"",""0.604"",""0.753""]","[0,1,1,1]",0,2,2,2,1,1,0,,,0,FALSE,,,,,,,,,,,,,,,,,,,,,,,,,,,,,,
,5f9baf2a2613ea3ea295875b,001,2022-04-28_20h16.07.598,classification_task,2021.2.3,Win32,59.74429442,5f9baf2a2613ea3ea295875b,626b377229c10585ec392f8a,626b3c3a404e1b6d8480b248,,,,,,,,,,,,,,,,,,,,,,,l,0,1.6669,"[""0.640"",""0.432"",""0.699"",""0.850""]","[0,1,1,1]",0,3,3,3,1,0,1,,,0,FALSE,,,,,,,,,,,,,,,,,,,,,,,,,,,,,,
,5f9baf2a2613ea3ea295875b,001,2022-04-28_20h16.07.598,classification_task,2021.2.3,Win32,59.74429442,5f9baf2a2613ea3ea295875b,626b377229c10585ec392f8a,626b3c3a404e1b6d8480b248,,,,,,,,,,,,,,,,,,,,,,,l,1,4.241,"[""0.072"",""0.398"",""0.252"",""0.803""]","[1,1,0,1]",0,4,4,4,1,1,1,,,0,FALSE,,,,,,,,,,,,,,,,,,,,,,,,,,,,,,
,5f9baf2a2613ea3ea295875b,001,2022-04-28_20h16.07.598,classification_task,2021.2.3,Win32,59.74429442,5f9baf2a2613ea3ea295875b,626b377229c10585ec392f8a,626b3c3a404e1b6d8480b248,,,,,,,,,,,,,,,,,,,,,,,l,1,2.277,"[""0.116"",""0.357"",""0.291"",""0.753""]","[1,1,0,1]",0,5,5,5,1,1,0,,,0,FALSE,,,,,,,,,,,,,,,,,,,,,,,,,,,,,,
,5f9baf2a2613ea3ea295875b,001,2022-04-28_20h16.07.598,classification_task,2021.2.3,Win32,59.74429442,5f9baf2a2613ea3ea295875b,626b377229c10585ec392f8a,626b3c3a404e1b6d8480b248,,,,,,,,,,,,,,,,,,,,,,,l,1,1.8913,"[""0.116"",""0.357"",""0.604"",""0.272""]","[1,1,1,0]",0,6,6,6,1,1,0,,,0,FALSE,,,,,,,,,,,,,,,,,,,,,,,,,,,,,,
,5f9baf2a2613ea3ea295875b,001,2022-04-28_20h16.07.598,classification_task,2021.2.3,Win32,59.74429442,5f9baf2a2613ea3ea295875b,626b377229c10585ec392f8a,626b3c3a404e1b6d8480b248,,,,,,,,,,,,,,,,,,,,,,,a,1,1.4878,"[""0.206"",""0.432"",""0.699"",""0.317""]","[1,1,1,0]",0,7,7,7,1,0,1,,,0,FALSE,,,,,,,,,,,,,,,,,,,,,,,,,,,,,,
,5f9baf2a2613ea3ea295875b,001,2022-04-28_20h16.07.598,classification_task,2021.2.3,Win32,59.74429442,5f9baf2a2613ea3ea295875b,626b377229c10585ec392f8a,626b3c3a404e1b6d8480b248,,,,,,,,,,,,,,,,,,,,,,,l,1,2.0752,"[""0.072"",""0.272"",""0.533"",""0.803""]","[1,0,1,1]",0,8,8,8,1,1,1,,,0,FALSE,,,,,,,,,,,,,,,,,,,,,,,,,,,,,,
,5f9baf2a2613ea3ea295875b,001,2022-04-28_20h16.07.598,classification_task,2021.2.3,Win32,59.74429442,5f9baf2a2613ea3ea295875b,626b377229c10585ec392f8a,626b3c3a404e1b6d8480b248,,,,,,,,,,,,,,,,,,,,,,,l,1,1.9673,"[""0.116"",""0.032"",""0.604"",""0.753""]","[1,0,1,1]",0,9,9,9,1,1,0,,,0,FALSE,,,,,,,,,,,,,,,,,,,,,,,,,,,,,,
,5f9baf2a2613ea3ea295875b,001,2022-04-28_20h16.07.598,classification_task,2021.2.3,Win32,59.74429442,5f9baf2a2613ea3ea295875b,626b377229c10585ec392f8a,626b3c3a404e1b6d8480b248,,,,,,,,,,,,,,,,,,,,,,,a,1,1.9633,"[""0.206"",""0.432"",""0.272"",""0.850""]","[1,1,0,1]",0,10,10,10,1,0,1,,,0,FALSE,,,,,,,,,,,,,,,,,,,,,,,,,,,,,,
,5f9baf2a2613ea3ea295875b,001,2022-04-28_20h16.07.598,classification_task,2021.2.3,Win32,59.74429442,5f9baf2a2613ea3ea295875b,626b377229c10585ec392f8a,626b3c3a404e1b6d8480b248,,,,,,,,,,,,,,,,,,,,,,,a,1,2.5713,"[""0.162"",""0.291"",""0.908"",""0.948""]","[1,0,1,1]",0,11,11,11,1,0,0,,,0,FALSE,,,,,,,,,,,,,,,,,,,,,,,,,,,,,,
,5f9baf2a2613ea3ea295875b,001,2022-04-28_20h16.07.598,classification_task,2021.2.3,Win32,59.74429442,5f9baf2a2613ea3ea295875b,626b377229c10585ec392f8a,626b3c3a404e1b6d8480b248,,,,,,,,,,,,,,,,,,,,,,,l,0,3.3167,"[""0.162"",""0.467"",""0.908"",""0.252""]","[1,1,1,0]",0,12,12,12,1,0,0,,,0,FALSE,,,,,,,,,,,,,,,,,,,,,,,,,,,,,,
,5f9baf2a2613ea3ea295875b,001,2022-04-28_20h16.07.598,classification_task,2021.2.3,Win32,59.74429442,5f9baf2a2613ea3ea295875b,626b377229c10585ec392f8a,626b3c3a404e1b6d8480b248,,,,,,,,,,,,,,,,,,,,,,,a,1,5.5207,"[""0.162"",""0.467"",""0.316"",""0.948""]","[1,1,0,1]",0,13,13,13,1,0,0,,,0,FALSE,,,,,,,,,,,,,,,,,,,,,,,,,,,,,,
,5f9baf2a2613ea3ea295875b,001,2022-04-28_20h16.07.598,classification_task,2021.2.3,Win32,59.74429442,5f9baf2a2613ea3ea295875b,626b377229c10585ec392f8a,626b3c3a404e1b6d8480b248,,,,,,,,,,,,,,,,,,,,,,,l,1,3.1599,"[""0.072"",""0.398"",""0.533"",""0.291""]","[1,1,1,0]",0,14,14,14,1,1,1,,,0,FALSE,,,,,,,,,,,,,,,,,,,,,,,,,,,,,,
,5f9baf2a2613ea3ea295875b,001,2022-04-28_20h16.07.598,classification_task,2021.2.3,Win32,59.74429442,5f9baf2a2613ea3ea295875b,626b377229c10585ec392f8a,626b3c3a404e1b6d8480b248,,,,,,,,,,,,,,,,,,,,,,,l,0,1.4121,"[""0.657"",""0.467"",""0.908"",""0.948""]","[0,1,1,1]",0,15,15,15,1,0,0,,,0,FALSE,,,,,,,,,,,,,,,,,,,,,,,,,,,,,,
,5f9baf2a2613ea3ea295875b,001,2022-04-28_20h16.07.598,classification_task,2021.2.3,Win32,59.74429442,5f9baf2a2613ea3ea295875b,626b377229c10585ec392f8a,626b3c3a404e1b6d8480b248,,,,,,,,,,,,,,,,,,,,,,,l,1,3.0566,"[""0.072"",""0.398"",""0.309"",""0.803""]","[1,1,0,1]",0,16,16,16,1,1,1,,,0,FALSE,,,,,,,,,,,,,,,,,,,,,,,,,,,,,,
,5f9baf2a2613ea3ea295875b,001,2022-04-28_20h16.07.598,classification_task,2021.2.3,Win32,59.74429442,5f9baf2a2613ea3ea295875b,626b377229c10585ec392f8a,626b3c3a404e1b6d8480b248,,,,,,,,,,,,,,,,,,,,,,,l,1,2.0481,"[""0.072"",""0.398"",""0.533"",""0.665""]","[1,1,1,0]",0,17,17,17,1,1,1,,,0,FALSE,,,,,,,,,,,,,,,,,,,,,,,,,,,,,,
,5f9baf2a2613ea3ea295875b,001,2022-04-28_20h16.07.598,classification_task,2021.2.3,Win32,59.74429442,5f9baf2a2613ea3ea295875b,626b377229c10585ec392f8a,626b3c3a404e1b6d8480b248,,,,,,,,,,,,,,,,,,,,,,,l,0,3.8531,"[""0.206"",""0.309"",""0.699"",""0.850""]","[1,0,1,1]",0,18,18,18,1,0,1,,,0,FALSE,,,,,,,,,,,,,,,,,,,,,,,,,,,,,,
,5f9baf2a2613ea3ea295875b,001,2022-04-28_20h16.07.598,classification_task,2021.2.3,Win32,59.74429442,5f9baf2a2613ea3ea295875b,626b377229c10585ec392f8a,626b3c3a404e1b6d8480b248,,,,,,,,,,,,,,,,,,,,,,,l,1,3.766,"[""0.116"",""0.272"",""0.604"",""0.753""]","[1,0,1,1]",0,19,19,19,1,1,0,,,0,FALSE,,,,,,,,,,,,,,,,,,,,,,,,,,,,,,
,5f9baf2a2613ea3ea295875b,001,2022-04-28_20h16.07.598,classification_task,2021.2.3,Win32,59.74429442,5f9baf2a2613ea3ea295875b,626b377229c10585ec392f8a,626b3c3a404e1b6d8480b248,,,,,,,,,,,,,,,,,,,,,,,l,1,3.4061,"[""0.116"",""0.357"",""0.604"",""0.309""]","[1,1,1,0]",0,20,20,20,1,1,0,,,0,FALSE,,,,,,,,,,,,,,,,,,,,,,,,,,,,,,
,5f9baf2a2613ea3ea295875b,001,2022-04-28_20h16.07.598,classification_task,2021.2.3,Win32,59.74429442,5f9baf2a2613ea3ea295875b,626b377229c10585ec392f8a,626b3c3a404e1b6d8480b248,,,,,,,,,,,,,,,,,,,,,,,a,1,2.2555,"[""0.162"",""0.640"",""0.908"",""0.948""]","[1,0,1,1]",0,21,21,21,1,0,0,,,0,FALSE,,,,,,,,,,,,,,,,,,,,,,,,,,,,,,
,5f9baf2a2613ea3ea295875b,001,2022-04-28_20h16.07.598,classification_task,2021.2.3,Win32,59.74429442,5f9baf2a2613ea3ea295875b,626b377229c10585ec392f8a,626b3c3a404e1b6d8480b248,,,,,,,,,,,,,,,,,,,,,,,a,1,1.7671,"[""0.162"",""0.467"",""0.640"",""0.948""]","[1,1,0,1]",0,22,22,22,1,0,0,,,0,FALSE,,,,,,,,,,,,,,,,,,,,,,,,,,,,,,
,5f9baf2a2613ea3ea295875b,001,2022-04-28_20h16.07.598,classification_task,2021.2.3,Win32,59.74429442,5f9baf2a2613ea3ea295875b,626b377229c10585ec392f8a,626b3c3a404e1b6d8480b248,,,,,,,,,,,,,,,,,,,,,,,l,1,2.1045,"[""0.638"",""0.398"",""0.533"",""0.803""]","[0,1,1,1]",0,23,23,23,1,1,1,,,0,FALSE,,,,,,,,,,,,,,,,,,,,,,,,,,,,,,
,5f9baf2a2613ea3ea295875b,001,2022-04-28_20h16.07.598,classification_task,2021.2.3,Win32,59.74429442,5f9baf2a2613ea3ea295875b,626b377229c10585ec392f8a,626b3c3a404e1b6d8480b248,,,,,,,,,,,,,,,,,,,,,,,a,1,1.7935,"[""0.206"",""0.432"",""0.640"",""0.850""]","[1,1,0,1]",0,24,24,24,1,0,1,,,0,FALSE,,,,,,,,,,,,,,,,,,,,,,,,,,,,,,
,5f9baf2a2613ea3ea295875b,001,2022-04-28_20h16.07.598,classification_task,2021.2.3,Win32,59.74429442,5f9baf2a2613ea3ea295875b,626b377229c10585ec392f8a,626b3c3a404e1b6d8480b248,,,,,,,,,,,,,,,,,,,,,,,a,1,1.8839,"[""0.162"",""0.467"",""0.908"",""0.265""]","[1,1,1,0]",0,25,25,25,1,0,0,,,0,FALSE,,,,,,,,,,,,,,,,,,,,,,,,,,,,,,
,5f9baf2a2613ea3ea295875b,001,2022-04-28_20h16.07.598,classification_task,2021.2.3,Win32,59.74429442,5f9baf2a2613ea3ea295875b,626b377229c10585ec392f8a,626b3c3a404e1b6d8480b248,,,,,,,,,,,,,,,,,,,,,,,l,0,1.7854,"[""0.309"",""0.467"",""0.908"",""0.948""]","[0,1,1,1]",0,26,26,26,1,0,0,,,0,FALSE,,,,,,,,,,,,,,,,,,,,,,,,,,,,,,
,5f9baf2a2613ea3ea295875b,001,2022-04-28_20h16.07.598,classification_task,2021.2.3,Win32,59.74429442,5f9baf2a2613ea3ea295875b,626b377229c10585ec392f8a,626b3c3a404e1b6d8480b248,,,,,,,,,,,,,,,,,,,,,,,l,1,3.0493,"[""0.317"",""0.357"",""0.604"",""0.753""]","[0,1,1,1]",0,27,27,27,1,1,0,,,0,FALSE,,,,,,,,,,,,,,,,,,,,,,,,,,,,,,
,5f9baf2a2613ea3ea295875b,001,2022-04-28_20h16.07.598,classification_task,2021.2.3,Win32,59.74429442,5f9baf2a2613ea3ea295875b,626b377229c10585ec392f8a,626b3c3a404e1b6d8480b248,,,,,,,,,,,,,,,,,,,,,,,l,1,3.046,"[""0.116"",""0.357"",""0.272"",""0.753""]","[1,1,0,1]",0,28,28,28,1,1,0,,,0,FALSE,,,,,,,,,,,,,,,,,,,,,,,,,,,,,,
,5f9baf2a2613ea3ea295875b,001,2022-04-28_20h16.07.598,classification_task,2021.2.3,Win32,59.74429442,5f9baf2a2613ea3ea295875b,626b377229c10585ec392f8a,626b3c3a404e1b6d8480b248,,,,,,,,,,,,,,,,,,,,,,,l,1,1.74,"[""0.072"",""0.638"",""0.533"",""0.803""]","[1,0,1,1]",0,29,29,29,1,1,1,,,0,FALSE,,,,,,,,,,,,,,,,,,,,,,,,,,,,,,
,5f9baf2a2613ea3ea295875b,001,2022-04-28_20h16.07.598,classification_task,2021.2.3,Win32,59.74429442,5f9baf2a2613ea3ea295875b,626b377229c10585ec392f8a,626b3c3a404e1b6d8480b248,,,,,,,,,,,,,,,,,,,,,,,a,1,2.0021,"[""0.206"",""0.432"",""0.699"",""0.291""]","[1,1,1,0]",0,30,30,30,1,0,1,,,0,FALSE,,,,,,,,,,,,,,,,,,,,,,,,,,,,,,
,5f9baf2a2613ea3ea295875b,001,2022-04-28_20h16.07.598,classification_task,2021.2.3,Win32,59.74429442,5f9baf2a2613ea3ea295875b,626b377229c10585ec392f8a,626b3c3a404e1b6d8480b248,,,,,,,,,,,,,,,,,,,,,,,l,0,1.8832,"[""0.568"",""0.432"",""0.699"",""0.850""]","[0,1,1,1]",0,31,31,31,1,0,1,,,0,FALSE,,,,,,,,,,,,,,,,,,,,,,,,,,,,,,
,5f9baf2a2613ea3ea295875b,001,2022-04-28_20h16.07.598,classification_task,2021.2.3,Win32,59.74429442,5f9baf2a2613ea3ea295875b,626b377229c10585ec392f8a,626b3c3a404e1b6d8480b248,,,,,,,,,,,,,,,,,,,,,,,a,0,1.9613,"[""0.116"",""0.252"",""0.604"",""0.753""]","[1,0,1,1]",0,32,32,32,1,1,0,,,0,FALSE,,,,,,,,,,,,,,,,,,,,,,,,,,,,,,
,5f9baf2a2613ea3ea295875b,001,2022-04-28_20h16.07.598,classification_task,2021.2.3,Win32,59.74429442,5f9baf2a2613ea3ea295875b,626b377229c10585ec392f8a,626b3c3a404e1b6d8480b248,,,,,,,,,,,,,,,,,,,,,,,a,1,3.3985,"[""0.206"",""0.316"",""0.699"",""0.850""]","[1,0,1,1]",0,33,33,33,1,0,1,,,0,FALSE,,,,,,,,,,,,,,,,,,,,,,,,,,,,,,
,5f9baf2a2613ea3ea295875b,001,2022-04-28_20h16.07.598,classification_task,2021.2.3,Win32,59.74429442,5f9baf2a2613ea3ea295875b,626b377229c10585ec392f8a,626b3c3a404e1b6d8480b248,,,,,,,,,,,,,,,,,,,,,,,a,1,1.7432,"[""0.162"",""0.657"",""0.908"",""0.948""]","[1,0,1,1]",0,34,34,34,1,0,0,,,0,FALSE,,,,,,,,,,,,,,,,,,,,,,,,,,,,,,
,5f9baf2a2613ea3ea295875b,001,2022-04-28_20h16.07.598,classification_task,2021.2.3,Win32,59.74429442,5f9baf2a2613ea3ea295875b,626b377229c10585ec392f8a,626b3c3a404e1b6d8480b248,,,,,,,,,,,,,,,,,,,,,,,a,1,2.4317,"[""0.206"",""0.432"",""0.699"",""0.252""]","[1,1,1,0]",0,35,35,35,1,0,1,,,0,FALSE,,,,,,,,,,,,,,,,,,,,,,,,,,,,,,
,5f9baf2a2613ea3ea295875b,001,2022-04-28_20h16.07.598,classification_task,2021.2.3,Win32,59.74429442,5f9baf2a2613ea3ea295875b,626b377229c10585ec392f8a,626b3c3a404e1b6d8480b248,,,,,,,,,,,,,,,,,,,,,,,a,1,1.9392,"[""0.162"",""0.467"",""0.643"",""0.948""]","[1,1,0,1]",0,36,36,36,1,0,0,,,0,FALSE,,,,,,,,,,,,,,,,,,,,,,,,,,,,,,
,5f9baf2a2613ea3ea295875b,001,2022-04-28_20h16.07.598,classification_task,2021.2.3,Win32,59.74429442,5f9baf2a2613ea3ea295875b,626b377229c10585ec392f8a,626b3c3a404e1b6d8480b248,,,,,,,,,,,,,,,,,,,,,,,l,0,1.8269,"[""0.309"",""0.467"",""0.908"",""0.948""]","[0,1,1,1]",0,37,37,37,1,0,0,,,0,FALSE,,,,,,,,,,,,,,,,,,,,,,,,,,,,,,
,5f9baf2a2613ea3ea295875b,001,2022-04-28_20h16.07.598,classification_task,2021.2.3,Win32,59.74429442,5f9baf2a2613ea3ea295875b,626b377229c10585ec392f8a,626b3c3a404e1b6d8480b248,,,,,,,,,,,,,,,,,,,,,,,l,1,1.4427,"[""0.072"",""0.272"",""0.533"",""0.803""]","[1,0,1,1]",0,38,38,38,1,1,1,,,0,FALSE,,,,,,,,,,,,,,,,,,,,,,,,,,,,,,
,5f9baf2a2613ea3ea295875b,001,2022-04-28_20h16.07.598,classification_task,2021.2.3,Win32,59.74429442,5f9baf2a2613ea3ea295875b,626b377229c10585ec392f8a,626b3c3a404e1b6d8480b248,,,,,,,,,,,,,,,,,,,,,,,a,1,1.1488,"[""0.162"",""0.467"",""0.908"",""0.665""]","[1,1,1,0]",0,39,39,39,1,0,0,,,0,FALSE,,,,,,,,,,,,,,,,,,,,,,,,,,,,,,
,5f9baf2a2613ea3ea295875b,001,2022-04-28_20h16.07.598,classification_task,2021.2.3,Win32,59.74429442,5f9baf2a2613ea3ea295875b,626b377229c10585ec392f8a,626b3c3a404e1b6d8480b248,,,,,,,,,,,,,,,,,,,,,,,l,1,1.4672,"[""0.072"",""0.398"",""0.272"",""0.803""]","[1,1,0,1]",0,40,40,40,1,1,1,,,0,FALSE,,,,,,,,,,,,,,,,,,,,,,,,,,,,,,
,5f9baf2a2613ea3ea295875b,001,2022-04-28_20h16.07.598,classification_task,2021.2.3,Win32,59.74429442,5f9baf2a2613ea3ea295875b,626b377229c10585ec392f8a,626b3c3a404e1b6d8480b248,,,,,,,,,,,,,,,,,,,,,,,l,1,1.5486,"[""0.072"",""0.398"",""0.533"",""0.643""]","[1,1,1,0]",0,41,41,41,1,1,1,,,0,FALSE,,,,,,,,,,,,,,,,,,,,,,,,,,,,,,
,5f9baf2a2613ea3ea295875b,001,2022-04-28_20h16.07.598,classification_task,2021.2.3,Win32,59.74429442,5f9baf2a2613ea3ea295875b,626b377229c10585ec392f8a,626b3c3a404e1b6d8480b248,,,,,,,,,,,,,,,,,,,,,,,l,1,1.6283,"[""0.116"",""0.357"",""0.604"",""0.272""]","[1,1,1,0]",0,42,42,42,1,1,0,,,0,FALSE,,,,,,,,,,,,,,,,,,,,,,,,,,,,,,
,5f9baf2a2613ea3ea295875b,001,2022-04-28_20h16.07.598,classification_task,2021.2.3,Win32,59.74429442,5f9baf2a2613ea3ea295875b,626b377229c10585ec392f8a,626b3c3a404e1b6d8480b248,,,,,,,,,,,,,,,,,,,,,,,a,1,1.2717,"[""0.206"",""0.432"",""0.252"",""0.850""]","[1,1,0,1]",0,43,43,43,1,0,1,,,0,FALSE,,,,,,,,,,,,,,,,,,,,,,,,,,,,,,
,5f9baf2a2613ea3ea295875b,001,2022-04-28_20h16.07.598,classification_task,2021.2.3,Win32,59.74429442,5f9baf2a2613ea3ea295875b,626b377229c10585ec392f8a,626b3c3a404e1b6d8480b248,,,,,,,,,,,,,,,,,,,,,,,a,1,2.1288,"[""0.252"",""0.432"",""0.699"",""0.850""]","[0,1,1,1]",0,44,44,44,1,0,1,,,0,FALSE,,,,,,,,,,,,,,,,,,,,,,,,,,,,,,
,5f9baf2a2613ea3ea295875b,001,2022-04-28_20h16.07.598,classification_task,2021.2.3,Win32,59.74429442,5f9baf2a2613ea3ea295875b,626b377229c10585ec392f8a,626b3c3a404e1b6d8480b248,,,,,,,,,,,,,,,,,,,,,,,a,0,1.9417,"[""0.317"",""0.357"",""0.604"",""0.753""]","[0,1,1,1]",0,45,45,45,1,1,0,,,0,FALSE,,,,,,,,,,,,,,,,,,,,,,,,,,,,,,
,5f9baf2a2613ea3ea295875b,001,2022-04-28_20h16.07.598,classification_task,2021.2.3,Win32,59.74429442,5f9baf2a2613ea3ea295875b,626b377229c10585ec392f8a,626b3c3a404e1b6d8480b248,,,,,,,,,,,,,,,,,,,,,,,l,1,1.449,"[""0.116"",""0.357"",""0.309"",""0.753""]","[1,1,0,1]",0,46,46,46,1,1,0,,,0,FALSE,,,,,,,,,,,,,,,,,,,,,,,,,,,,,,
,5f9baf2a2613ea3ea295875b,001,2022-04-28_20h16.07.598,classification_task,2021.2.3,Win32,59.74429442,5f9baf2a2613ea3ea295875b,626b377229c10585ec392f8a,626b3c3a404e1b6d8480b248,,,,,,,,,,,,,,,,,,,,,,,l,1,1.6517,"[""0.316"",""0.398"",""0.533"",""0.803""]","[0,1,1,1]",0,47,47,47,1,1,1,,,0,FALSE,,,,,,,,,,,,,,,,,,,,,,,,,,,,,,
,5f9baf2a2613ea3ea295875b,001,2022-04-28_20h16.07.598,classification_task,2021.2.3,Win32,59.74429442,5f9baf2a2613ea3ea295875b,626b377229c10585ec392f8a,626b3c3a404e1b6d8480b248,,,,,,,,,,,,,,,,,,,,,,,l,0,1.6528,"[""0.252"",""0.432"",""0.699"",""0.850""]","[0,1,1,1]",0,48,48,48,1,0,1,,,0,FALSE,,,,,,,,,,,,,,,,,,,,,,,,,,,,,,
,5f9baf2a2613ea3ea295875b,001,2022-04-28_20h16.07.598,classification_task,2021.2.3,Win32,59.74429442,5f9baf2a2613ea3ea295875b,626b377229c10585ec392f8a,626b3c3a404e1b6d8480b248,,,,,,,,,,,,,,,,,,,,,,,l,1,1.3676,"[""0.116"",""0.357"",""0.643"",""0.753""]","[1,1,0,1]",0,49,49,49,1,1,0,,,0,FALSE,,,,,,,,,,,,,,,,,,,,,,,,,,,,,,
,5f9baf2a2613ea3ea295875b,001,2022-04-28_20h16.07.598,classification_task,2021.2.3,Win32,59.74429442,5f9baf2a2613ea3ea295875b,626b377229c10585ec392f8a,626b3c3a404e1b6d8480b248,,,,,,,,,,,,,,,,,,,,,,,a,1,1.1719,"[""0.206"",""0.432"",""0.643"",""0.850""]","[1,1,0,1]",0,50,50,50,1,0,1,,,0,FALSE,,,,,,,,,,,,,,,,,,,,,,,,,,,,,,
,5f9baf2a2613ea3ea295875b,001,2022-04-28_20h16.07.598,classification_task,2021.2.3,Win32,59.74429442,5f9baf2a2613ea3ea295875b,626b377229c10585ec392f8a,626b3c3a404e1b6d8480b248,,,,,,,,,,,,,,,,,,,,,,,a,1,1.0674,"[""0.206"",""0.432"",""0.699"",""0.657""]","[1,1,1,0]",0,51,51,51,1,0,1,,,0,FALSE,,,,,,,,,,,,,,,,,,,,,,,,,,,,,,
,5f9baf2a2613ea3ea295875b,001,2022-04-28_20h16.07.598,classification_task,2021.2.3,Win32,59.74429442,5f9baf2a2613ea3ea295875b,626b377229c10585ec392f8a,626b3c3a404e1b6d8480b248,,,,,,,,,,,,,,,,,,,,,,,l,1,1.2216,"[""0.116"",""0.291"",""0.604"",""0.753""]","[1,0,1,1]",0,52,52,52,1,1,0,,,0,FALSE,,,,,,,,,,,,,,,,,,,,,,,,,,,,,,
,5f9baf2a2613ea3ea295875b,001,2022-04-28_20h16.07.598,classification_task,2021.2.3,Win32,59.74429442,5f9baf2a2613ea3ea295875b,626b377229c10585ec392f8a,626b3c3a404e1b6d8480b248,,,,,,,,,,,,,,,,,,,,,,,a,0,1.3174,"[""0.316"",""0.398"",""0.533"",""0.803""]","[0,1,1,1]",0,53,53,53,1,1,1,,,0,FALSE,,,,,,,,,,,,,,,,,,,,,,,,,,,,,,
,5f9baf2a2613ea3ea295875b,001,2022-04-28_20h16.07.598,classification_task,2021.2.3,Win32,59.74429442,5f9baf2a2613ea3ea295875b,626b377229c10585ec392f8a,626b3c3a404e1b6d8480b248,,,,,,,,,,,,,,,,,,,,,,,a,1,1.4563,"[""0.206"",""0.309"",""0.699"",""0.850""]","[1,0,1,1]",0,54,54,54,1,0,1,,,0,FALSE,,,,,,,,,,,,,,,,,,,,,,,,,,,,,,
,5f9baf2a2613ea3ea295875b,001,2022-04-28_20h16.07.598,classification_task,2021.2.3,Win32,59.74429442,5f9baf2a2613ea3ea295875b,626b377229c10585ec392f8a,626b3c3a404e1b6d8480b248,,,,,,,,,,,,,,,,,,,,,,,a,1,1.8288,"[""0.657"",""0.467"",""0.908"",""0.948""]","[0,1,1,1]",0,55,55,55,1,0,0,,,0,FALSE,,,,,,,,,,,,,,,,,,,,,,,,,,,,,,
,5f9baf2a2613ea3ea295875b,001,2022-04-28_20h16.07.598,classification_task,2021.2.3,Win32,59.74429442,5f9baf2a2613ea3ea295875b,626b377229c10585ec392f8a,626b3c3a404e1b6d8480b248,,,,,,,,,,,,,,,,,,,,,,,l,1,1.0724,"[""0.291"",""0.357"",""0.604"",""0.753""]","[0,1,1,1]",0,56,56,56,1,1,0,,,0,FALSE,,,,,,,,,,,,,,,,,,,,,,,,,,,,,,
,5f9baf2a2613ea3ea295875b,001,2022-04-28_20h16.07.598,classification_task,2021.2.3,Win32,59.74429442,5f9baf2a2613ea3ea295875b,626b377229c10585ec392f8a,626b3c3a404e1b6d8480b248,,,,,,,,,,,,,,,,,,,,,,,a,1,1.5457,"[""0.162"",""0.467"",""0.665"",""0.948""]","[1,1,0,1]",0,57,57,57,1,0,0,,,0,FALSE,,,,,,,,,,,,,,,,,,,,,,,,,,,,,,
,5f9baf2a2613ea3ea295875b,001,2022-04-28_20h16.07.598,classification_task,2021.2.3,Win32,59.74429442,5f9baf2a2613ea3ea295875b,626b377229c10585ec392f8a,626b3c3a404e1b6d8480b248,,,,,,,,,,,,,,,,,,,,,,,l,1,1.163,"[""0.116"",""0.357"",""0.604"",""0.657""]","[1,1,1,0]",0,58,58,58,1,1,0,,,0,FALSE,,,,,,,,,,,,,,,,,,,,,,,,,,,,,,
,5f9baf2a2613ea3ea295875b,001,2022-04-28_20h16.07.598,classification_task,2021.2.3,Win32,59.74429442,5f9baf2a2613ea3ea295875b,626b377229c10585ec392f8a,626b3c3a404e1b6d8480b248,,,,,,,,,,,,,,,,,,,,,,,a,1,1.279,"[""0.162"",""0.467"",""0.908"",""0.657""]","[1,1,1,0]",0,59,59,59,1,0,0,,,0,FALSE,,,,,,,,,,,,,,,,,,,,,,,,,,,,,,
,5f9baf2a2613ea3ea295875b,001,2022-04-28_20h16.07.598,classification_task,2021.2.3,Win32,59.74429442,5f9baf2a2613ea3ea295875b,626b377229c10585ec392f8a,626b3c3a404e1b6d8480b248,,,,,,,,,,,,,,,,,,,,,,,l,1,2.2503,"[""0.072"",""0.398"",""0.533"",""0.317""]","[1,1,1,0]",0,60,60,60,1,1,1,,,0,FALSE,,,,,,,,,,,,,,,,,,,,,,,,,,,,,,
,5f9baf2a2613ea3ea295875b,001,2022-04-28_20h16.07.598,classification_task,2021.2.3,Win32,59.74429442,5f9baf2a2613ea3ea295875b,626b377229c10585ec392f8a,626b3c3a404e1b6d8480b248,,,,,,,,,,,,,,,,,,,,,,,a,1,2.2389,"[""0.162"",""0.657"",""0.908"",""0.948""]","[1,0,1,1]",0,61,61,61,1,0,0,,,0,FALSE,,,,,,,,,,,,,,,,,,,,,,,,,,,,,,
,5f9baf2a2613ea3ea295875b,001,2022-04-28_20h16.07.598,classification_task,2021.2.3,Win32,59.74429442,5f9baf2a2613ea3ea295875b,626b377229c10585ec392f8a,626b3c3a404e1b6d8480b248,,,,,,,,,,,,,,,,,,,,,,,l,1,2.5463,"[""0.072"",""0.317"",""0.533"",""0.803""]","[1,0,1,1]",0,62,62,62,1,1,1,,,0,FALSE,,,,,,,,,,,,,,,,,,,,,,,,,,,,,,
,5f9baf2a2613ea3ea295875b,001,2022-04-28_20h16.07.598,classification_task,2021.2.3,Win32,59.74429442,5f9baf2a2613ea3ea295875b,626b377229c10585ec392f8a,626b3c3a404e1b6d8480b248,,,,,,,,,,,,,,,,,,,,,,,l,1,1.3019,"[""0.072"",""0.398"",""0.291"",""0.803""]","[1,1,0,1]",0,63,63,63,1,1,1,,,0,FALSE,,,,,,,,,,,,,,,,,,,,,,,,,,,,,,
,5f9baf2a2613ea3ea295875b,001,2022-04-28_20h16.07.598,classification_task,2021.2.3,Win32,59.74429442,5f9baf2a2613ea3ea295875b,626b377229c10585ec392f8a,626b3c3a404e1b6d8480b248,,,,,,,,,,,,,,,,,,,,,,,,,,,,,,,,,,,,,,,0, ,,0,8.789131393,409.0211,0,0,0,0,1,2,1,,,,,,,,,,,,,,,,,
,5f9baf2a2613ea3ea295875b,001,2022-04-28_20h16.07.598,classification_task,2021.2.3,Win32,59.74429442,5f9baf2a2613ea3ea295875b,626b377229c10585ec392f8a,626b3c3a404e1b6d8480b248,,,,,,,,,,,,,,,,,,,,,,,,,,,,,,,,,,,,,,,1,  ,,0,6.618992504,419.8474,0,0,0,0,1,2,1,,,,,,,,,,,,,,,,,
,5f9baf2a2613ea3ea295875b,001,2022-04-28_20h16.07.598,classification_task,2021.2.3,Win32,59.74429442,5f9baf2a2613ea3ea295875b,626b377229c10585ec392f8a,626b3c3a404e1b6d8480b248,,,,,,,,,,,,,,,,,,,,,,,,,,,,,,,,,,,,,,,2,  ,,0,5.792272928,426.7435,0,0,0,0,1,2,1,,,,,,,,,,,,,,,,,
,5f9baf2a2613ea3ea295875b,001,2022-04-28_20h16.07.598,classification_task,2021.2.3,Win32,59.74429442,5f9baf2a2613ea3ea295875b,626b377229c10585ec392f8a,626b3c3a404e1b6d8480b248,,,,,,,,,,,,,,,,,,,,,,,,,,,,,,,,,,,,,,,,,,,,,0,0,0,0,1,,1,,,,,,,,,,,,,,,,,
,5f9baf2a2613ea3ea295875b,001,2022-04-28_20h16.07.598,classification_task,2021.2.3,Win32,59.74429442,5f9baf2a2613ea3ea295875b,626b377229c10585ec392f8a,626b3c3a404e1b6d8480b248,,,,,,,,,,,,,,,,,,,,,space,11.2932,a,1,3.8114,"[""0.162"",""0.316"",""0.908"",""0.948""]","[1,0,1,1]",0,0,0,0,1,0,0,,,0,FALSE,,,,,,,,,,,,,,,,,,,,,,,,,,,,,,
,5f9baf2a2613ea3ea295875b,001,2022-04-28_20h16.07.598,classification_task,2021.2.3,Win32,59.74429442,5f9baf2a2613ea3ea295875b,626b377229c10585ec392f8a,626b3c3a404e1b6d8480b248,,,,,,,,,,,,,,,,,,,,,,,a,1,2.0571,"[""0.206"",""0.432"",""0.699"",""0.309""]","[1,1,1,0]",0,1,1,1,1,0,1,,,0,FALSE,,,,,,,,,,,,,,,,,,,,,,,,,,,,,,
,5f9baf2a2613ea3ea295875b,001,2022-04-28_20h16.07.598,classification_task,2021.2.3,Win32,59.74429442,5f9baf2a2613ea3ea295875b,626b377229c10585ec392f8a,626b3c3a404e1b6d8480b248,,,,,,,,,,,,,,,,,,,,,,,a,1,2.0175,"[""0.206"",""0.432"",""0.320"",""0.850""]","[1,1,0,1]",0,2,2,2,1,0,1,,,0,FALSE,,,,,,,,,,,,,,,,,,,,,,,,,,,,,,
,5f9baf2a2613ea3ea295875b,001,2022-04-28_20h16.07.598,classification_task,2021.2.3,Win32,59.74429442,5f9baf2a2613ea3ea295875b,626b377229c10585ec392f8a,626b3c3a404e1b6d8480b248,,,,,,,,,,,,,,,,,,,,,,,a,1,1.7273,"[""0.162"",""0.467"",""0.908"",""0.291""]","[1,1,1,0]",0,3,3,3,1,0,0,,,0,FALSE,,,,,,,,,,,,,,,,,,,,,,,,,,,,,,
,5f9baf2a2613ea3ea295875b,001,2022-04-28_20h16.07.598,classification_task,2021.2.3,Win32,59.74429442,5f9baf2a2613ea3ea295875b,626b377229c10585ec392f8a,626b3c3a404e1b6d8480b248,,,,,,,,,,,,,,,,,,,,,,,a,1,2.8105,"[""0.291"",""0.467"",""0.908"",""0.948""]","[0,1,1,1]",0,4,4,4,1,0,0,,,0,FALSE,,,,,,,,,,,,,,,,,,,,,,,,,,,,,,
,5f9baf2a2613ea3ea295875b,001,2022-04-28_20h16.07.598,classification_task,2021.2.3,Win32,59.74429442,5f9baf2a2613ea3ea295875b,626b377229c10585ec392f8a,626b3c3a404e1b6d8480b248,,,,,,,,,,,,,,,,,,,,,,,l,1,1.7398,"[""0.072"",""0.398"",""0.568"",""0.803""]","[1,1,0,1]",0,5,5,5,1,1,1,,,0,FALSE,,,,,,,,,,,,,,,,,,,,,,,,,,,,,,
,5f9baf2a2613ea3ea295875b,001,2022-04-28_20h16.07.598,classification_task,2021.2.3,Win32,59.74429442,5f9baf2a2613ea3ea295875b,626b377229c10585ec392f8a,626b3c3a404e1b6d8480b248,,,,,,,,,,,,,,,,,,,,,,,l,1,1.199,"[""0.072"",""0.252"",""0.533"",""0.803""]","[1,0,1,1]",0,6,6,6,1,1,1,,,0,FALSE,,,,,,,,,,,,,,,,,,,,,,,,,,,,,,
,5f9baf2a2613ea3ea295875b,001,2022-04-28_20h16.07.598,classification_task,2021.2.3,Win32,59.74429442,5f9baf2a2613ea3ea295875b,626b377229c10585ec392f8a,626b3c3a404e1b6d8480b248,,,,,,,,,,,,,,,,,,,,,,,a,1,2.1137,"[""0.162"",""0.467"",""0.568"",""0.948""]","[1,1,0,1]",0,7,7,7,1,0,0,,,0,FALSE,,,,,,,,,,,,,,,,,,,,,,,,,,,,,,
,5f9baf2a2613ea3ea295875b,001,2022-04-28_20h16.07.598,classification_task,2021.2.3,Win32,59.74429442,5f9baf2a2613ea3ea295875b,626b377229c10585ec392f8a,626b3c3a404e1b6d8480b248,,,,,,,,,,,,,,,,,,,,,,,l,1,2.1608,"[""0.116"",""0.657"",""0.604"",""0.753""]","[1,0,1,1]",0,8,8,8,1,1,0,,,0,FALSE,,,,,,,,,,,,,,,,,,,,,,,,,,,,,,
,5f9baf2a2613ea3ea295875b,001,2022-04-28_20h16.07.598,classification_task,2021.2.3,Win32,59.74429442,5f9baf2a2613ea3ea295875b,626b377229c10585ec392f8a,626b3c3a404e1b6d8480b248,,,,,,,,,,,,,,,,,,,,,,,l,1,2.6916,"[""0.317"",""0.357"",""0.604"",""0.753""]","[0,1,1,1]",0,9,9,9,1,1,0,,,0,FALSE,,,,,,,,,,,,,,,,,,,,,,,,,,,,,,
,5f9baf2a2613ea3ea295875b,001,2022-04-28_20h16.07.598,classification_task,2021.2.3,Win32,59.74429442,5f9baf2a2613ea3ea295875b,626b377229c10585ec392f8a,626b3c3a404e1b6d8480b248,,,,,,,,,,,,,,,,,,,,,,,a,1,1.8424,"[""0.643"",""0.432"",""0.699"",""0.850""]","[0,1,1,1]",0,10,10,10,1,0,1,,,0,FALSE,,,,,,,,,,,,,,,,,,,,,,,,,,,,,,
,5f9baf2a2613ea3ea295875b,001,2022-04-28_20h16.07.598,classification_task,2021.2.3,Win32,59.74429442,5f9baf2a2613ea3ea295875b,626b377229c10585ec392f8a,626b3c3a404e1b6d8480b248,,,,,,,,,,,,,,,,,,,,,,,l,1,1.6015,"[""0.316"",""0.398"",""0.533"",""0.803""]","[0,1,1,1]",0,11,11,11,1,1,1,,,0,FALSE,,,,,,,,,,,,,,,,,,,,,,,,,,,,,,
,5f9baf2a2613ea3ea295875b,001,2022-04-28_20h16.07.598,classification_task,2021.2.3,Win32,59.74429442,5f9baf2a2613ea3ea295875b,626b377229c10585ec392f8a,626b3c3a404e1b6d8480b248,,,,,,,,,,,,,,,,,,,,,,,l,1,1.4844,"[""0.072"",""0.398"",""0.533"",""0.309""]","[1,1,1,0]",0,12,12,12,1,1,1,,,0,FALSE,,,,,,,,,,,,,,,,,,,,,,,,,,,,,,
,5f9baf2a2613ea3ea295875b,001,2022-04-28_20h16.07.598,classification_task,2021.2.3,Win32,59.74429442,5f9baf2a2613ea3ea295875b,626b377229c10585ec392f8a,626b3c3a404e1b6d8480b248,,,,,,,,,,,,,,,,,,,,,,,l,1,1.4623,"[""0.116"",""0.357"",""0.317"",""0.753""]","[1,1,0,1]",0,13,13,13,1,1,0,,,0,FALSE,,,,,,,,,,,,,,,,,,,,,,,,,,,,,,
,5f9baf2a2613ea3ea295875b,001,2022-04-28_20h16.07.598,classification_task,2021.2.3,Win32,59.74429442,5f9baf2a2613ea3ea295875b,626b377229c10585ec392f8a,626b3c3a404e1b6d8480b248,,,,,,,,,,,,,,,,,,,,,,,a,1,1.3585,"[""0.206"",""0.638"",""0.699"",""0.850""]","[1,0,1,1]",0,14,14,14,1,0,1,,,0,FALSE,,,,,,,,,,,,,,,,,,,,,,,,,,,,,,
,5f9baf2a2613ea3ea295875b,001,2022-04-28_20h16.07.598,classification_task,2021.2.3,Win32,59.74429442,5f9baf2a2613ea3ea295875b,626b377229c10585ec392f8a,626b3c3a404e1b6d8480b248,,,,,,,,,,,,,,,,,,,,,,,l,1,1.252,"[""0.116"",""0.357"",""0.604"",""0.252""]","[1,1,1,0]",0,15,15,15,1,1,0,,,0,FALSE,,,,,,,,,,,,,,,,,,,,,,,,,,,,,,
,5f9baf2a2613ea3ea295875b,001,2022-04-28_20h16.07.598,classification_task,2021.2.3,Win32,59.74429442,5f9baf2a2613ea3ea295875b,626b377229c10585ec392f8a,626b3c3a404e1b6d8480b248,,,,,,,,,,,,,,,,,,,,,,,a,1,1.0418,"[""0.162"",""0.467"",""0.908"",""0.643""]","[1,1,1,0]",0,16,16,16,1,0,0,,,0,FALSE,,,,,,,,,,,,,,,,,,,,,,,,,,,,,,
,5f9baf2a2613ea3ea295875b,001,2022-04-28_20h16.07.598,classification_task,2021.2.3,Win32,59.74429442,5f9baf2a2613ea3ea295875b,626b377229c10585ec392f8a,626b3c3a404e1b6d8480b248,,,,,,,,,,,,,,,,,,,,,,,l,1,1.1883,"[""0.116"",""0.357"",""0.272"",""0.753""]","[1,1,0,1]",0,17,17,17,1,1,0,,,0,FALSE,,,,,,,,,,,,,,,,,,,,,,,,,,,,,,
,5f9baf2a2613ea3ea295875b,001,2022-04-28_20h16.07.598,classification_task,2021.2.3,Win32,59.74429442,5f9baf2a2613ea3ea295875b,626b377229c10585ec392f8a,626b3c3a404e1b6d8480b248,,,,,,,,,,,,,,,,,,,,,,,l,1,3.1757,"[""0.317"",""0.398"",""0.533"",""0.803""]","[0,1,1,1]",0,18,18,18,1,1,1,,,0,FALSE,,,,,,,,,,,,,,,,,,,,,,,,,,,,,,
,5f9baf2a2613ea3ea295875b,001,2022-04-28_20h16.07.598,classification_task,2021.2.3,Win32,59.74429442,5f9baf2a2613ea3ea295875b,626b377229c10585ec392f8a,626b3c3a404e1b6d8480b248,,,,,,,,,,,,,,,,,,,,,,,a,1,2.0297,"[""0.162"",""0.467"",""0.309"",""0.948""]","[1,1,0,1]",0,19,19,19,1,0,0,,,0,FALSE,,,,,,,,,,,,,,,,,,,,,,,,,,,,,,
,5f9baf2a2613ea3ea295875b,001,2022-04-28_20h16.07.598,classification_task,2021.2.3,Win32,59.74429442,5f9baf2a2613ea3ea295875b,626b377229c10585ec392f8a,626b3c3a404e1b6d8480b248,,,,,,,,,,,,,,,,,,,,,,,l,1,1.7126,"[""0.072"",""0.398"",""0.533"",""0.657""]","[1,1,1,0]",0,20,20,20,1,1,1,,,0,FALSE,,,,,,,,,,,,,,,,,,,,,,,,,,,,,,
,5f9baf2a2613ea3ea295875b,001,2022-04-28_20h16.07.598,classification_task,2021.2.3,Win32,59.74429442,5f9baf2a2613ea3ea295875b,626b377229c10585ec392f8a,626b3c3a404e1b6d8480b248,,,,,,,,,,,,,,,,,,,,,,,a,1,1.0793,"[""0.162"",""0.317"",""0.908"",""0.948""]","[1,0,1,1]",0,21,21,21,1,0,0,,,0,FALSE,,,,,,,,,,,,,,,,,,,,,,,,,,,,,,
,5f9baf2a2613ea3ea295875b,001,2022-04-28_20h16.07.598,classification_task,2021.2.3,Win32,59.74429442,5f9baf2a2613ea3ea295875b,626b377229c10585ec392f8a,626b3c3a404e1b6d8480b248,,,,,,,,,,,,,,,,,,,,,,,a,1,1.1807,"[""0.206"",""0.432"",""0.568"",""0.850""]","[1,1,0,1]",0,22,22,22,1,0,1,,,0,FALSE,,,,,,,,,,,,,,,,,,,,,,,,,,,,,,
,5f9baf2a2613ea3ea295875b,001,2022-04-28_20h16.07.598,classification_task,2021.2.3,Win32,59.74429442,5f9baf2a2613ea3ea295875b,626b377229c10585ec392f8a,626b3c3a404e1b6d8480b248,,,,,,,,,,,,,,,,,,,,,,,l,1,1.8391,"[""0.568"",""0.357"",""0.604"",""0.753""]","[0,1,1,1]",0,23,23,23,1,1,0,,,0,FALSE,,,,,,,,,,,,,,,,,,,,,,,,,,,,,,
,5f9baf2a2613ea3ea295875b,001,2022-04-28_20h16.07.598,classification_task,2021.2.3,Win32,59.74429442,5f9baf2a2613ea3ea295875b,626b377229c10585ec392f8a,626b3c3a404e1b6d8480b248,,,,,,,,,,,,,,,,,,,,,,,a,1,1.4113,"[""0.206"",""0.432"",""0.699"",""0.317""]","[1,1,1,0]",0,24,24,24,1,0,1,,,0,FALSE,,,,,,,,,,,,,,,,,,,,,,,,,,,,,,
,5f9baf2a2613ea3ea295875b,001,2022-04-28_20h16.07.598,classification_task,2021.2.3,Win32,59.74429442,5f9baf2a2613ea3ea295875b,626b377229c10585ec392f8a,626b3c3a404e1b6d8480b248,,,,,,,,,,,,,,,,,,,,,,,l,1,1.6314,"[""0.072"",""0.320"",""0.533"",""0.803""]","[1,0,1,1]",0,25,25,25,1,1,1,,,0,FALSE,,,,,,,,,,,,,,,,,,,,,,,,,,,,,,
,5f9baf2a2613ea3ea295875b,001,2022-04-28_20h16.07.598,classification_task,2021.2.3,Win32,59.74429442,5f9baf2a2613ea3ea295875b,626b377229c10585ec392f8a,626b3c3a404e1b6d8480b248,,,,,,,,,,,,,,,,,,,,,,,l,1,1.0959,"[""0.116"",""0.357"",""0.604"",""0.252""]","[1,1,1,0]",0,26,26,26,1,1,0,,,0,FALSE,,,,,,,,,,,,,,,,,,,,,,,,,,,,,,
,5f9baf2a2613ea3ea295875b,001,2022-04-28_20h16.07.598,classification_task,2021.2.3,Win32,59.74429442,5f9baf2a2613ea3ea295875b,626b377229c10585ec392f8a,626b3c3a404e1b6d8480b248,,,,,,,,,,,,,,,,,,,,,,,a,1,2.1554,"[""0.568"",""0.432"",""0.699"",""0.850""]","[0,1,1,1]",0,27,27,27,1,0,1,,,0,FALSE,,,,,,,,,,,,,,,,,,,,,,,,,,,,,,
,5f9baf2a2613ea3ea295875b,001,2022-04-28_20h16.07.598,classification_task,2021.2.3,Win32,59.74429442,5f9baf2a2613ea3ea295875b,626b377229c10585ec392f8a,626b3c3a404e1b6d8480b248,,,,,,,,,,,,,,,,,,,,,,,l,1,1.2647,"[""0.072"",""0.398"",""0.317"",""0.803""]","[1,1,0,1]",0,28,28,28,1,1,1,,,0,FALSE,,,,,,,,,,,,,,,,,,,,,,,,,,,,,,
,5f9baf2a2613ea3ea295875b,001,2022-04-28_20h16.07.598,classification_task,2021.2.3,Win32,59.74429442,5f9baf2a2613ea3ea295875b,626b377229c10585ec392f8a,626b3c3a404e1b6d8480b248,,,,,,,,,,,,,,,,,,,,,,,a,0,1.6593,"[""0.116"",""0.272"",""0.604"",""0.753""]","[1,0,1,1]",0,29,29,29,1,1,0,,,0,FALSE,,,,,,,,,,,,,,,,,,,,,,,,,,,,,,
,5f9baf2a2613ea3ea295875b,001,2022-04-28_20h16.07.598,classification_task,2021.2.3,Win32,59.74429442,5f9baf2a2613ea3ea295875b,626b377229c10585ec392f8a,626b3c3a404e1b6d8480b248,,,,,,,,,,,,,,,,,,,,,,,a,1,1.5589,"[""0.638"",""0.467"",""0.908"",""0.948""]","[0,1,1,1]",0,30,30,30,1,0,0,,,0,FALSE,,,,,,,,,,,,,,,,,,,,,,,,,,,,,,
,5f9baf2a2613ea3ea295875b,001,2022-04-28_20h16.07.598,classification_task,2021.2.3,Win32,59.74429442,5f9baf2a2613ea3ea295875b,626b377229c10585ec392f8a,626b3c3a404e1b6d8480b248,,,,,,,,,,,,,,,,,,,,,,,a,1,1.1731,"[""0.206"",""0.309"",""0.699"",""0.850""]","[1,0,1,1]",0,31,31,31,1,0,1,,,0,FALSE,,,,,,,,,,,,,,,,,,,,,,,,,,,,,,
,5f9baf2a2613ea3ea295875b,001,2022-04-28_20h16.07.598,classification_task,2021.2.3,Win32,59.74429442,5f9baf2a2613ea3ea295875b,626b377229c10585ec392f8a,626b3c3a404e1b6d8480b248,,,,,,,,,,,,,,,,,,,,,,,a,1,1.0528,"[""0.206"",""0.657"",""0.699"",""0.850""]","[1,0,1,1]",0,32,32,32,1,0,1,,,0,FALSE,,,,,,,,,,,,,,,,,,,,,,,,,,,,,,
,5f9baf2a2613ea3ea295875b,001,2022-04-28_20h16.07.598,classification_task,2021.2.3,Win32,59.74429442,5f9baf2a2613ea3ea295875b,626b377229c10585ec392f8a,626b3c3a404e1b6d8480b248,,,,,,,,,,,,,,,,,,,,,,,l,1,2.3135,"[""0.643"",""0.357"",""0.604"",""0.753""]","[0,1,1,1]",0,33,33,33,1,1,0,,,0,FALSE,,,,,,,,,,,,,,,,,,,,,,,,,,,,,,
,5f9baf2a2613ea3ea295875b,001,2022-04-28_20h16.07.598,classification_task,2021.2.3,Win32,59.74429442,5f9baf2a2613ea3ea295875b,626b377229c10585ec392f8a,626b3c3a404e1b6d8480b248,,,,,,,,,,,,,,,,,,,,,,,l,0,0.9665,"[""0.317"",""0.432"",""0.699"",""0.850""]","[0,1,1,1]",0,34,34,34,1,0,1,,,0,FALSE,,,,,,,,,,,,,,,,,,,,,,,,,,,,,,
,5f9baf2a2613ea3ea295875b,001,2022-04-28_20h16.07.598,classification_task,2021.2.3,Win32,59.74429442,5f9baf2a2613ea3ea295875b,626b377229c10585ec392f8a,626b3c3a404e1b6d8480b248,,,,,,,,,,,,,,,,,,,,,,,a,1,1.1679,"[""0.162"",""0.316"",""0.908"",""0.948""]","[1,0,1,1]",0,35,35,35,1,0,0,,,0,FALSE,,,,,,,,,,,,,,,,,,,,,,,,,,,,,,
,5f9baf2a2613ea3ea295875b,001,2022-04-28_20h16.07.598,classification_task,2021.2.3,Win32,59.74429442,5f9baf2a2613ea3ea295875b,626b377229c10585ec392f8a,626b3c3a404e1b6d8480b248,,,,,,,,,,,,,,,,,,,,,,,l,1,2.1215,"[""0.265"",""0.398"",""0.533"",""0.803""]","[0,1,1,1]",0,36,36,36,1,1,1,,,0,FALSE,,,,,,,,,,,,,,,,,,,,,,,,,,,,,,
,5f9baf2a2613ea3ea295875b,001,2022-04-28_20h16.07.598,classification_task,2021.2.3,Win32,59.74429442,5f9baf2a2613ea3ea295875b,626b377229c10585ec392f8a,626b3c3a404e1b6d8480b248,,,,,,,,,,,,,,,,,,,,,,,a,1,1.3532,"[""0.162"",""0.467"",""0.568"",""0.948""]","[1,1,0,1]",0,37,37,37,1,0,0,,,0,FALSE,,,,,,,,,,,,,,,,,,,,,,,,,,,,,,
,5f9baf2a2613ea3ea295875b,001,2022-04-28_20h16.07.598,classification_task,2021.2.3,Win32,59.74429442,5f9baf2a2613ea3ea295875b,626b377229c10585ec392f8a,626b3c3a404e1b6d8480b248,,,,,,,,,,,,,,,,,,,,,,,a,1,3.0681,"[""0.252"",""0.467"",""0.908"",""0.948""]","[0,1,1,1]",0,38,38,38,1,0,0,,,0,FALSE,,,,,,,,,,,,,,,,,,,,,,,,,,,,,,
,5f9baf2a2613ea3ea295875b,001,2022-04-28_20h16.07.598,classification_task,2021.2.3,Win32,59.74429442,5f9baf2a2613ea3ea295875b,626b377229c10585ec392f8a,626b3c3a404e1b6d8480b248,,,,,,,,,,,,,,,,,,,,,,,l,1,1.702,"[""0.116"",""0.357"",""0.252"",""0.753""]","[1,1,0,1]",0,39,39,39,1,1,0,,,0,FALSE,,,,,,,,,,,,,,,,,,,,,,,,,,,,,,
,5f9baf2a2613ea3ea295875b,001,2022-04-28_20h16.07.598,classification_task,2021.2.3,Win32,59.74429442,5f9baf2a2613ea3ea295875b,626b377229c10585ec392f8a,626b3c3a404e1b6d8480b248,,,,,,,,,,,,,,,,,,,,,,,l,1,1.012,"[""0.072"",""0.398"",""0.643"",""0.803""]","[1,1,0,1]",0,40,40,40,1,1,1,,,0,FALSE,,,,,,,,,,,,,,,,,,,,,,,,,,,,,,
,5f9baf2a2613ea3ea295875b,001,2022-04-28_20h16.07.598,classification_task,2021.2.3,Win32,59.74429442,5f9baf2a2613ea3ea295875b,626b377229c10585ec392f8a,626b3c3a404e1b6d8480b248,,,,,,,,,,,,,,,,,,,,,,,a,1,0.9699,"[""0.206"",""0.432"",""0.699"",""0.291""]","[1,1,1,0]",0,41,41,41,1,0,1,,,0,FALSE,,,,,,,,,,,,,,,,,,,,,,,,,,,,,,
,5f9baf2a2613ea3ea295875b,001,2022-04-28_20h16.07.598,classification_task,2021.2.3,Win32,59.74429442,5f9baf2a2613ea3ea295875b,626b377229c10585ec392f8a,626b3c3a404e1b6d8480b248,,,,,,,,,,,,,,,,,,,,,,,a,1,1.4614,"[""0.206"",""0.432"",""0.309"",""0.850""]","[1,1,0,1]",0,42,42,42,1,0,1,,,0,FALSE,,,,,,,,,,,,,,,,,,,,,,,,,,,,,,
,5f9baf2a2613ea3ea295875b,001,2022-04-28_20h16.07.598,classification_task,2021.2.3,Win32,59.74429442,5f9baf2a2613ea3ea295875b,626b377229c10585ec392f8a,626b3c3a404e1b6d8480b248,,,,,,,,,,,,,,,,,,,,,,,l,1,1.1903,"[""0.072"",""0.309"",""0.533"",""0.803""]","[1,0,1,1]",0,43,43,43,1,1,1,,,0,FALSE,,,,,,,,,,,,,,,,,,,,,,,,,,,,,,
,5f9baf2a2613ea3ea295875b,001,2022-04-28_20h16.07.598,classification_task,2021.2.3,Win32,59.74429442,5f9baf2a2613ea3ea295875b,626b377229c10585ec392f8a,626b3c3a404e1b6d8480b248,,,,,,,,,,,,,,,,,,,,,,,l,1,1.7397,"[""0.116"",""0.357"",""0.604"",""0.272""]","[1,1,1,0]",0,44,44,44,1,1,0,,,0,FALSE,,,,,,,,,,,,,,,,,,,,,,,,,,,,,,
,5f9baf2a2613ea3ea295875b,001,2022-04-28_20h16.07.598,classification_task,2021.2.3,Win32,59.74429442,5f9baf2a2613ea3ea295875b,626b377229c10585ec392f8a,626b3c3a404e1b6d8480b248,,,,,,,,,,,,,,,,,,,,,,,l,1,0.9776,"[""0.116"",""0.568"",""0.604"",""0.753""]","[1,0,1,1]",0,45,45,45,1,1,0,,,0,FALSE,,,,,,,,,,,,,,,,,,,,,,,,,,,,,,
,5f9baf2a2613ea3ea295875b,001,2022-04-28_20h16.07.598,classification_task,2021.2.3,Win32,59.74429442,5f9baf2a2613ea3ea295875b,626b377229c10585ec392f8a,626b3c3a404e1b6d8480b248,,,,,,,,,,,,,,,,,,,,,,,l,1,1.3556,"[""0.072"",""0.398"",""0.533"",""0.638""]","[1,1,1,0]",0,46,46,46,1,1,1,,,0,FALSE,,,,,,,,,,,,,,,,,,,,,,,,,,,,,,
,5f9baf2a2613ea3ea295875b,001,2022-04-28_20h16.07.598,classification_task,2021.2.3,Win32,59.74429442,5f9baf2a2613ea3ea295875b,626b377229c10585ec392f8a,626b3c3a404e1b6d8480b248,,,,,,,,,,,,,,,,,,,,,,,a,1,0.9759,"[""0.162"",""0.467"",""0.908"",""0.657""]","[1,1,1,0]",0,47,47,47,1,0,0,,,0,FALSE,,,,,,,,,,,,,,,,,,,,,,,,,,,,,,
,5f9baf2a2613ea3ea295875b,001,2022-04-28_20h16.07.598,classification_task,2021.2.3,Win32,59.74429442,5f9baf2a2613ea3ea295875b,626b377229c10585ec392f8a,626b3c3a404e1b6d8480b248,,,,,,,,,,,,,,,,,,,,,,,l,1,0.9729,"[""0.116"",""0.357"",""0.252"",""0.753""]","[1,1,0,1]",0,48,48,48,1,1,0,,,0,FALSE,,,,,,,,,,,,,,,,,,,,,,,,,,,,,,
,5f9baf2a2613ea3ea295875b,001,2022-04-28_20h16.07.598,classification_task,2021.2.3,Win32,59.74429442,5f9baf2a2613ea3ea295875b,626b377229c10585ec392f8a,626b3c3a404e1b6d8480b248,,,,,,,,,,,,,,,,,,,,,,,l,1,2.2642,"[""0.640"",""0.357"",""0.604"",""0.753""]","[0,1,1,1]",0,49,49,49,1,1,0,,,0,FALSE,,,,,,,,,,,,,,,,,,,,,,,,,,,,,,
,5f9baf2a2613ea3ea295875b,001,2022-04-28_20h16.07.598,classification_task,2021.2.3,Win32,59.74429442,5f9baf2a2613ea3ea295875b,626b377229c10585ec392f8a,626b3c3a404e1b6d8480b248,,,,,,,,,,,,,,,,,,,,,,,a,1,1.0776,"[""0.162"",""0.467"",""0.908"",""0.657""]","[1,1,1,0]",0,50,50,50,1,0,0,,,0,FALSE,,,,,,,,,,,,,,,,,,,,,,,,,,,,,,
,5f9baf2a2613ea3ea295875b,001,2022-04-28_20h16.07.598,classification_task,2021.2.3,Win32,59.74429442,5f9baf2a2613ea3ea295875b,626b377229c10585ec392f8a,626b3c3a404e1b6d8480b248,,,,,,,,,,,,,,,,,,,,,,,l,1,1.6527,"[""0.072"",""0.398"",""0.657"",""0.803""]","[1,1,0,1]",0,51,51,51,1,1,1,,,0,FALSE,,,,,,,,,,,,,,,,,,,,,,,,,,,,,,
,5f9baf2a2613ea3ea295875b,001,2022-04-28_20h16.07.598,classification_task,2021.2.3,Win32,59.74429442,5f9baf2a2613ea3ea295875b,626b377229c10585ec392f8a,626b3c3a404e1b6d8480b248,,,,,,,,,,,,,,,,,,,,,,,l,1,1.0675,"[""0.072"",""0.398"",""0.533"",""0.316""]","[1,1,1,0]",0,52,52,52,1,1,1,,,0,FALSE,,,,,,,,,,,,,,,,,,,,,,,,,,,,,,
,5f9baf2a2613ea3ea295875b,001,2022-04-28_20h16.07.598,classification_task,2021.2.3,Win32,59.74429442,5f9baf2a2613ea3ea295875b,626b377229c10585ec392f8a,626b3c3a404e1b6d8480b248,,,,,,,,,,,,,,,,,,,,,,,a,0,0.885,"[""0.320"",""0.398"",""0.533"",""0.803""]","[0,1,1,1]",0,53,53,53,1,1,1,,,0,FALSE,,,,,,,,,,,,,,,,,,,,,,,,,,,,,,
,5f9baf2a2613ea3ea295875b,001,2022-04-28_20h16.07.598,classification_task,2021.2.3,Win32,59.74429442,5f9baf2a2613ea3ea295875b,626b377229c10585ec392f8a,626b3c3a404e1b6d8480b248,,,,,,,,,,,,,,,,,,,,,,,l,0,1.557,"[""0.317"",""0.432"",""0.699"",""0.850""]","[0,1,1,1]",0,54,54,54,1,0,1,,,0,FALSE,,,,,,,,,,,,,,,,,,,,,,,,,,,,,,
,5f9baf2a2613ea3ea295875b,001,2022-04-28_20h16.07.598,classification_task,2021.2.3,Win32,59.74429442,5f9baf2a2613ea3ea295875b,626b377229c10585ec392f8a,626b3c3a404e1b6d8480b248,,,,,,,,,,,,,,,,,,,,,,,l,1,1.4296,"[""0.116"",""0.357"",""0.604"",""0.643""]","[1,1,1,0]",0,55,55,55,1,1,0,,,0,FALSE,,,,,,,,,,,,,,,,,,,,,,,,,,,,,,
,5f9baf2a2613ea3ea295875b,001,2022-04-28_20h16.07.598,classification_task,2021.2.3,Win32,59.74429442,5f9baf2a2613ea3ea295875b,626b377229c10585ec392f8a,626b3c3a404e1b6d8480b248,,,,,,,,,,,,,,,,,,,,,,,a,1,1.3959,"[""0.206"",""0.309"",""0.699"",""0.850""]","[1,0,1,1]",0,56,56,56,1,0,1,,,0,FALSE,,,,,,,,,,,,,,,,,,,,,,,,,,,,,,
,5f9baf2a2613ea3ea295875b,001,2022-04-28_20h16.07.598,classification_task,2021.2.3,Win32,59.74429442,5f9baf2a2613ea3ea295875b,626b377229c10585ec392f8a,626b3c3a404e1b6d8480b248,,,,,,,,,,,,,,,,,,,,,,,a,1,1.3062,"[""0.206"",""0.432"",""0.699"",""0.657""]","[1,1,1,0]",0,57,57,57,1,0,1,,,0,FALSE,,,,,,,,,,,,,,,,,,,,,,,,,,,,,,
,5f9baf2a2613ea3ea295875b,001,2022-04-28_20h16.07.598,classification_task,2021.2.3,Win32,59.74429442,5f9baf2a2613ea3ea295875b,626b377229c10585ec392f8a,626b3c3a404e1b6d8480b248,,,,,,,,,,,,,,,,,,,,,,,a,1,1.0845,"[""0.206"",""0.432"",""0.252"",""0.850""]","[1,1,0,1]",0,58,58,58,1,0,1,,,0,FALSE,,,,,,,,,,,,,,,,,,,,,,,,,,,,,,
,5f9baf2a2613ea3ea295875b,001,2022-04-28_20h16.07.598,classification_task,2021.2.3,Win32,59.74429442,5f9baf2a2613ea3ea295875b,626b377229c10585ec392f8a,626b3c3a404e1b6d8480b248,,,,,,,,,,,,,,,,,,,,,,,l,0,1.8604,"[""0.272"",""0.467"",""0.908"",""0.948""]","[0,1,1,1]",0,59,59,59,1,0,0,,,0,FALSE,,,,,,,,,,,,,,,,,,,,,,,,,,,,,,
,5f9baf2a2613ea3ea295875b,001,2022-04-28_20h16.07.598,classification_task,2021.2.3,Win32,59.74429442,5f9baf2a2613ea3ea295875b,626b377229c10585ec392f8a,626b3c3a404e1b6d8480b248,,,,,,,,,,,,,,,,,,,,,,,l,1,1.0585,"[""0.072"",""0.291"",""0.533"",""0.803""]","[1,0,1,1]",0,60,60,60,1,1,1,,,0,FALSE,,,,,,,,,,,,,,,,,,,,,,,,,,,,,,
,5f9baf2a2613ea3ea295875b,001,2022-04-28_20h16.07.598,classification_task,2021.2.3,Win32,59.74429442,5f9baf2a2613ea3ea295875b,626b377229c10585ec392f8a,626b3c3a404e1b6d8480b248,,,,,,,,,,,,,,,,,,,,,,,a,1,0.972,"[""0.162"",""0.467"",""0.317"",""0.948""]","[1,1,0,1]",0,61,61,61,1,0,0,,,0,FALSE,,,,,,,,,,,,,,,,,,,,,,,,,,,,,,
,5f9baf2a2613ea3ea295875b,001,2022-04-28_20h16.07.598,classification_task,2021.2.3,Win32,59.74429442,5f9baf2a2613ea3ea295875b,626b377229c10585ec392f8a,626b3c3a404e1b6d8480b248,,,,,,,,,,,,,,,,,,,,,,,a,1,0.771,"[""0.162"",""0.665"",""0.908"",""0.948""]","[1,0,1,1]",0,62,62,62,1,0,0,,,0,FALSE,,,,,,,,,,,,,,,,,,,,,,,,,,,,,,
,5f9baf2a2613ea3ea295875b,001,2022-04-28_20h16.07.598,classification_task,2021.2.3,Win32,59.74429442,5f9baf2a2613ea3ea295875b,626b377229c10585ec392f8a,626b3c3a404e1b6d8480b248,,,,,,,,,,,,,,,,,,,,,,,a,0,0.886,"[""0.116"",""0.291"",""0.604"",""0.753""]","[1,0,1,1]",0,63,63,63,1,1,0,,,0,FALSE,,,,,,,,,,,,,,,,,,,,,,,,,,,,,,
,5f9baf2a2613ea3ea295875b,001,2022-04-28_20h16.07.598,classification_task,2021.2.3,Win32,59.74429442,5f9baf2a2613ea3ea295875b,626b377229c10585ec392f8a,626b3c3a404e1b6d8480b248,,,,,,,,,,,,,,,,,,,,,,,,,,,,,,,,,,,,,,,0, ,,0,10,188.8793,0,1,1,1,1,2,2,,,,,,,,,,,,,,,,,
,5f9baf2a2613ea3ea295875b,001,2022-04-28_20h16.07.598,classification_task,2021.2.3,Win32,59.74429442,5f9baf2a2613ea3ea295875b,626b377229c10585ec392f8a,626b3c3a404e1b6d8480b248,,,,,,,,,,,,,,,,,,,,,,,,,,,,,,,,,,,,,,,1,  ,,0,8.306878307,190.8387,0,1,1,1,1,2,2,,,,,,,,,,,,,,,,,
,5f9baf2a2613ea3ea295875b,001,2022-04-28_20h16.07.598,classification_task,2021.2.3,Win32,59.74429442,5f9baf2a2613ea3ea295875b,626b377229c10585ec392f8a,626b3c3a404e1b6d8480b248,,,,,,,,,,,,,,,,,,,,,,,,,,,,,,,,,,,,,,,2,  ,,0,8.54800485,193.1777,0,1,1,1,1,2,2,,,,,,,,,,,,,,,,,
,5f9baf2a2613ea3ea295875b,001,2022-04-28_20h16.07.598,classification_task,2021.2.3,Win32,59.74429442,5f9baf2a2613ea3ea295875b,626b377229c10585ec392f8a,626b3c3a404e1b6d8480b248,,,,,,,,,,,,,,,,,,,,,,,,,,,,,,,,,,,,,,,,,,,,,0,1,1,1,1,,2,,,,,,,,,,,,,,,,,
,5f9baf2a2613ea3ea295875b,001,2022-04-28_20h16.07.598,classification_task,2021.2.3,Win32,59.74429442,5f9baf2a2613ea3ea295875b,626b377229c10585ec392f8a,626b3c3a404e1b6d8480b248,,,,,,,,,,,,,,,,,,,,,space,11.3711,l,1,2.4581,"[""0.252"",""0.398"",""0.533"",""0.803""]","[0,1,1,1]",0,0,0,0,1,1,1,,,0,FALSE,,,,,,,,,,,,,,,,,,,,,,,,,,,,,,
,5f9baf2a2613ea3ea295875b,001,2022-04-28_20h16.07.598,classification_task,2021.2.3,Win32,59.74429442,5f9baf2a2613ea3ea295875b,626b377229c10585ec392f8a,626b3c3a404e1b6d8480b248,,,,,,,,,,,,,,,,,,,,,,,l,1,1.6685,"[""0.072"",""0.317"",""0.533"",""0.803""]","[1,0,1,1]",0,1,1,1,1,1,1,,,0,FALSE,,,,,,,,,,,,,,,,,,,,,,,,,,,,,,
,5f9baf2a2613ea3ea295875b,001,2022-04-28_20h16.07.598,classification_task,2021.2.3,Win32,59.74429442,5f9baf2a2613ea3ea295875b,626b377229c10585ec392f8a,626b3c3a404e1b6d8480b248,,,,,,,,,,,,,,,,,,,,,,,l,0,1.5635,"[""0.032"",""0.432"",""0.699"",""0.850""]","[0,1,1,1]",0,2,2,2,1,0,1,,,0,FALSE,,,,,,,,,,,,,,,,,,,,,,,,,,,,,,
,5f9baf2a2613ea3ea295875b,001,2022-04-28_20h16.07.598,classification_task,2021.2.3,Win32,59.74429442,5f9baf2a2613ea3ea295875b,626b377229c10585ec392f8a,626b3c3a404e1b6d8480b248,,,,,,,,,,,,,,,,,,,,,,,l,1,1.2592,"[""0.116"",""0.357"",""0.604"",""0.272""]","[1,1,1,0]",0,3,3,3,1,1,0,,,0,FALSE,,,,,,,,,,,,,,,,,,,,,,,,,,,,,,
,5f9baf2a2613ea3ea295875b,001,2022-04-28_20h16.07.598,classification_task,2021.2.3,Win32,59.74429442,5f9baf2a2613ea3ea295875b,626b377229c10585ec392f8a,626b3c3a404e1b6d8480b248,,,,,,,,,,,,,,,,,,,,,,,a,1,0.9689,"[""0.206"",""0.432"",""0.699"",""0.316""]","[1,1,1,0]",0,4,4,4,1,0,1,,,0,FALSE,,,,,,,,,,,,,,,,,,,,,,,,,,,,,,
,5f9baf2a2613ea3ea295875b,001,2022-04-28_20h16.07.598,classification_task,2021.2.3,Win32,59.74429442,5f9baf2a2613ea3ea295875b,626b377229c10585ec392f8a,626b3c3a404e1b6d8480b248,,,,,,,,,,,,,,,,,,,,,,,l,1,1.676,"[""0.072"",""0.398"",""0.533"",""0.032""]","[1,1,1,0]",0,5,5,5,1,1,1,,,0,FALSE,,,,,,,,,,,,,,,,,,,,,,,,,,,,,,
,5f9baf2a2613ea3ea295875b,001,2022-04-28_20h16.07.598,classification_task,2021.2.3,Win32,59.74429442,5f9baf2a2613ea3ea295875b,626b377229c10585ec392f8a,626b3c3a404e1b6d8480b248,,,,,,,,,,,,,,,,,,,,,,,a,1,2.0496,"[""0.162"",""0.467"",""0.252"",""0.948""]","[1,1,0,1]",0,6,6,6,1,0,0,,,0,FALSE,,,,,,,,,,,,,,,,,,,,,,,,,,,,,,
,5f9baf2a2613ea3ea295875b,001,2022-04-28_20h16.07.598,classification_task,2021.2.3,Win32,59.74429442,5f9baf2a2613ea3ea295875b,626b377229c10585ec392f8a,626b3c3a404e1b6d8480b248,,,,,,,,,,,,,,,,,,,,,,,a,1,2.4574,"[""0.657"",""0.467"",""0.908"",""0.948""]","[0,1,1,1]",0,7,7,7,1,0,0,,,0,FALSE,,,,,,,,,,,,,,,,,,,,,,,,,,,,,,
,5f9baf2a2613ea3ea295875b,001,2022-04-28_20h16.07.598,classification_task,2021.2.3,Win32,59.74429442,5f9baf2a2613ea3ea295875b,626b377229c10585ec392f8a,626b3c3a404e1b6d8480b248,,,,,,,,,,,,,,,,,,,,,,,l,1,1.2653,"[""0.320"",""0.357"",""0.604"",""0.753""]","[0,1,1,1]",0,8,8,8,1,1,0,,,0,FALSE,,,,,,,,,,,,,,,,,,,,,,,,,,,,,,
,5f9baf2a2613ea3ea295875b,001,2022-04-28_20h16.07.598,classification_task,2021.2.3,Win32,59.74429442,5f9baf2a2613ea3ea295875b,626b377229c10585ec392f8a,626b3c3a404e1b6d8480b248,,,,,,,,,,,,,,,,,,,,,,,l,1,1.4457,"[""0.116"",""0.032"",""0.604"",""0.753""]","[1,0,1,1]",0,9,9,9,1,1,0,,,0,FALSE,,,,,,,,,,,,,,,,,,,,,,,,,,,,,,
,5f9baf2a2613ea3ea295875b,001,2022-04-28_20h16.07.598,classification_task,2021.2.3,Win32,59.74429442,5f9baf2a2613ea3ea295875b,626b377229c10585ec392f8a,626b3c3a404e1b6d8480b248,,,,,,,,,,,,,,,,,,,,,,,l,1,1.1728,"[""0.116"",""0.357"",""0.643"",""0.753""]","[1,1,0,1]",0,10,10,10,1,1,0,,,0,FALSE,,,,,,,,,,,,,,,,,,,,,,,,,,,,,,
,5f9baf2a2613ea3ea295875b,001,2022-04-28_20h16.07.598,classification_task,2021.2.3,Win32,59.74429442,5f9baf2a2613ea3ea295875b,626b377229c10585ec392f8a,626b3c3a404e1b6d8480b248,,,,,,,,,,,,,,,,,,,,,,,a,1,0.797,"[""0.162"",""0.309"",""0.908"",""0.948""]","[1,0,1,1]",0,11,11,11,1,0,0,,,0,FALSE,,,,,,,,,,,,,,,,,,,,,,,,,,,,,,
,5f9baf2a2613ea3ea295875b,001,2022-04-28_20h16.07.598,classification_task,2021.2.3,Win32,59.74429442,5f9baf2a2613ea3ea295875b,626b377229c10585ec392f8a,626b3c3a404e1b6d8480b248,,,,,,,,,,,,,,,,,,,,,,,a,1,1.1674,"[""0.206"",""0.432"",""0.032"",""0.850""]","[1,1,0,1]",0,12,12,12,1,0,1,,,0,FALSE,,,,,,,,,,,,,,,,,,,,,,,,,,,,,,
,5f9baf2a2613ea3ea295875b,001,2022-04-28_20h16.07.598,classification_task,2021.2.3,Win32,59.74429442,5f9baf2a2613ea3ea295875b,626b377229c10585ec392f8a,626b3c3a404e1b6d8480b248,,,,,,,,,,,,,,,,,,,,,,,l,1,2.5133,"[""0.072"",""0.398"",""0.643"",""0.803""]","[1,1,0,1]",0,13,13,13,1,1,1,,,0,FALSE,,,,,,,,,,,,,,,,,,,,,,,,,,,,,,
,5f9baf2a2613ea3ea295875b,001,2022-04-28_20h16.07.598,classification_task,2021.2.3,Win32,59.74429442,5f9baf2a2613ea3ea295875b,626b377229c10585ec392f8a,626b3c3a404e1b6d8480b248,,,,,,,,,,,,,,,,,,,,,,,a,1,0.979,"[""0.206"",""0.638"",""0.699"",""0.850""]","[1,0,1,1]",0,14,14,14,1,0,1,,,0,FALSE,,,,,,,,,,,,,,,,,,,,,,,,,,,,,,
,5f9baf2a2613ea3ea295875b,001,2022-04-28_20h16.07.598,classification_task,2021.2.3,Win32,59.74429442,5f9baf2a2613ea3ea295875b,626b377229c10585ec392f8a,626b3c3a404e1b6d8480b248,,,,,,,,,,,,,,,,,,,,,,,a,1,0.9659,"[""0.162"",""0.467"",""0.908"",""0.665""]","[1,1,1,0]",0,15,15,15,1,0,0,,,0,FALSE,,,,,,,,,,,,,,,,,,,,,,,,,,,,,,
,5f9baf2a2613ea3ea295875b,001,2022-04-28_20h16.07.598,classification_task,2021.2.3,Win32,59.74429442,5f9baf2a2613ea3ea295875b,626b377229c10585ec392f8a,626b3c3a404e1b6d8480b248,,,,,,,,,,,,,,,,,,,,,,,l,1,1.4639,"[""0.072"",""0.665"",""0.533"",""0.803""]","[1,0,1,1]",0,16,16,16,1,1,1,,,0,FALSE,,,,,,,,,,,,,,,,,,,,,,,,,,,,,,
,5f9baf2a2613ea3ea295875b,001,2022-04-28_20h16.07.598,classification_task,2021.2.3,Win32,59.74429442,5f9baf2a2613ea3ea295875b,626b377229c10585ec392f8a,626b3c3a404e1b6d8480b248,,,,,,,,,,,,,,,,,,,,,,,a,1,0.9226,"[""0.206"",""0.252"",""0.699"",""0.850""]","[1,0,1,1]",0,17,17,17,1,0,1,,,0,FALSE,,,,,,,,,,,,,,,,,,,,,,,,,,,,,,
,5f9baf2a2613ea3ea295875b,001,2022-04-28_20h16.07.598,classification_task,2021.2.3,Win32,59.74429442,5f9baf2a2613ea3ea295875b,626b377229c10585ec392f8a,626b3c3a404e1b6d8480b248,,,,,,,,,,,,,,,,,,,,,,,a,1,0.9696,"[""0.162"",""0.467"",""0.640"",""0.948""]","[1,1,0,1]",0,18,18,18,1,0,0,,,0,FALSE,,,,,,,,,,,,,,,,,,,,,,,,,,,,,,
,5f9baf2a2613ea3ea295875b,001,2022-04-28_20h16.07.598,classification_task,2021.2.3,Win32,59.74429442,5f9baf2a2613ea3ea295875b,626b377229c10585ec392f8a,626b3c3a404e1b6d8480b248,,,,,,,,,,,,,,,,,,,,,,,a,1,0.9065,"[""0.162"",""0.032"",""0.908"",""0.948""]","[1,0,1,1]",0,19,19,19,1,0,0,,,0,FALSE,,,,,,,,,,,,,,,,,,,,,,,,,,,,,,
,5f9baf2a2613ea3ea295875b,001,2022-04-28_20h16.07.598,classification_task,2021.2.3,Win32,59.74429442,5f9baf2a2613ea3ea295875b,626b377229c10585ec392f8a,626b3c3a404e1b6d8480b248,,,,,,,,,,,,,,,,,,,,,,,a,1,0.9171,"[""0.162"",""0.467"",""0.908"",""0.252""]","[1,1,1,0]",0,20,20,20,1,0,0,,,0,FALSE,,,,,,,,,,,,,,,,,,,,,,,,,,,,,,
,5f9baf2a2613ea3ea295875b,001,2022-04-28_20h16.07.598,classification_task,2021.2.3,Win32,59.74429442,5f9baf2a2613ea3ea295875b,626b377229c10585ec392f8a,626b3c3a404e1b6d8480b248,,,,,,,,,,,,,,,,,,,,,,,l,1,1.2583,"[""0.252"",""0.357"",""0.604"",""0.753""]","[0,1,1,1]",0,21,21,21,1,1,0,,,0,FALSE,,,,,,,,,,,,,,,,,,,,,,,,,,,,,,
,5f9baf2a2613ea3ea295875b,001,2022-04-28_20h16.07.598,classification_task,2021.2.3,Win32,59.74429442,5f9baf2a2613ea3ea295875b,626b377229c10585ec392f8a,626b3c3a404e1b6d8480b248,,,,,,,,,,,,,,,,,,,,,,,l,1,1.5523,"[""0.072"",""0.398"",""0.272"",""0.803""]","[1,1,0,1]",0,22,22,22,1,1,1,,,0,FALSE,,,,,,,,,,,,,,,,,,,,,,,,,,,,,,
,5f9baf2a2613ea3ea295875b,001,2022-04-28_20h16.07.598,classification_task,2021.2.3,Win32,59.74429442,5f9baf2a2613ea3ea295875b,626b377229c10585ec392f8a,626b3c3a404e1b6d8480b248,,,,,,,,,,,,,,,,,,,,,,,l,1,3.9743,"[""0.316"",""0.398"",""0.533"",""0.803""]","[0,1,1,1]",0,23,23,23,1,1,1,,,0,FALSE,,,,,,,,,,,,,,,,,,,,,,,,,,,,,,
,5f9baf2a2613ea3ea295875b,001,2022-04-28_20h16.07.598,classification_task,2021.2.3,Win32,59.74429442,5f9baf2a2613ea3ea295875b,626b377229c10585ec392f8a,626b3c3a404e1b6d8480b248,,,,,,,,,,,,,,,,,,,,,,,l,1,3.202,"[""0.072"",""0.398"",""0.533"",""0.252""]","[1,1,1,0]",0,24,24,24,1,1,1,,,0,FALSE,,,,,,,,,,,,,,,,,,,,,,,,,,,,,,
,5f9baf2a2613ea3ea295875b,001,2022-04-28_20h16.07.598,classification_task,2021.2.3,Win32,59.74429442,5f9baf2a2613ea3ea295875b,626b377229c10585ec392f8a,626b3c3a404e1b6d8480b248,,,,,,,,,,,,,,,,,,,,,,,l,1,1.1736,"[""0.116"",""0.357"",""0.272"",""0.753""]","[1,1,0,1]",0,25,25,25,1,1,0,,,0,FALSE,,,,,,,,,,,,,,,,,,,,,,,,,,,,,,
,5f9baf2a2613ea3ea295875b,001,2022-04-28_20h16.07.598,classification_task,2021.2.3,Win32,59.74429442,5f9baf2a2613ea3ea295875b,626b377229c10585ec392f8a,626b3c3a404e1b6d8480b248,,,,,,,,,,,,,,,,,,,,,,,l,0,2.5092,"[""0.252"",""0.432"",""0.699"",""0.850""]","[0,1,1,1]",0,26,26,26,1,0,1,,,0,FALSE,,,,,,,,,,,,,,,,,,,,,,,,,,,,,,
,5f9baf2a2613ea3ea295875b,001,2022-04-28_20h16.07.598,classification_task,2021.2.3,Win32,59.74429442,5f9baf2a2613ea3ea295875b,626b377229c10585ec392f8a,626b3c3a404e1b6d8480b248,,,,,,,,,,,,,,,,,,,,,,,l,0,2.1656,"[""0.316"",""0.467"",""0.908"",""0.948""]","[0,1,1,1]",0,27,27,27,1,0,0,,,0,FALSE,,,,,,,,,,,,,,,,,,,,,,,,,,,,,,
,5f9baf2a2613ea3ea295875b,001,2022-04-28_20h16.07.598,classification_task,2021.2.3,Win32,59.74429442,5f9baf2a2613ea3ea295875b,626b377229c10585ec392f8a,626b3c3a404e1b6d8480b248,,,,,,,,,,,,,,,,,,,,,,,a,1,1.2644,"[""0.206"",""0.432"",""0.291"",""0.850""]","[1,1,0,1]",0,28,28,28,1,0,1,,,0,FALSE,,,,,,,,,,,,,,,,,,,,,,,,,,,,,,
,5f9baf2a2613ea3ea295875b,001,2022-04-28_20h16.07.598,classification_task,2021.2.3,Win32,59.74429442,5f9baf2a2613ea3ea295875b,626b377229c10585ec392f8a,626b3c3a404e1b6d8480b248,,,,,,,,,,,,,,,,,,,,,,,a,1,0.6148,"[""0.206"",""0.432"",""0.699"",""0.265""]","[1,1,1,0]",0,29,29,29,1,0,1,,,0,FALSE,,,,,,,,,,,,,,,,,,,,,,,,,,,,,,
,5f9baf2a2613ea3ea295875b,001,2022-04-28_20h16.07.598,classification_task,2021.2.3,Win32,59.74429442,5f9baf2a2613ea3ea295875b,626b377229c10585ec392f8a,626b3c3a404e1b6d8480b248,,,,,,,,,,,,,,,,,,,,,,,l,1,1.2606,"[""0.116"",""0.357"",""0.604"",""0.309""]","[1,1,1,0]",0,30,30,30,1,1,0,,,0,FALSE,,,,,,,,,,,,,,,,,,,,,,,,,,,,,,
,5f9baf2a2613ea3ea295875b,001,2022-04-28_20h16.07.598,classification_task,2021.2.3,Win32,59.74429442,5f9baf2a2613ea3ea295875b,626b377229c10585ec392f8a,626b3c3a404e1b6d8480b248,,,,,,,,,,,,,,,,,,,,,,,l,1,0.788,"[""0.116"",""0.665"",""0.604"",""0.753""]","[1,0,1,1]",0,31,31,31,1,1,0,,,0,FALSE,,,,,,,,,,,,,,,,,,,,,,,,,,,,,,
,5f9baf2a2613ea3ea295875b,001,2022-04-28_20h16.07.598,classification_task,2021.2.3,Win32,59.74429442,5f9baf2a2613ea3ea295875b,626b377229c10585ec392f8a,626b3c3a404e1b6d8480b248,,,,,,,,,,,,,,,,,,,,,,,a,1,1.3551,"[""0.206"",""0.432"",""0.699"",""0.272""]","[1,1,1,0]",0,32,32,32,1,0,1,,,0,FALSE,,,,,,,,,,,,,,,,,,,,,,,,,,,,,,
,5f9baf2a2613ea3ea295875b,001,2022-04-28_20h16.07.598,classification_task,2021.2.3,Win32,59.74429442,5f9baf2a2613ea3ea295875b,626b377229c10585ec392f8a,626b3c3a404e1b6d8480b248,,,,,,,,,,,,,,,,,,,,,,,l,1,1.1642,"[""0.072"",""0.398"",""0.533"",""0.291""]","[1,1,1,0]",0,33,33,33,1,1,1,,,0,FALSE,,,,,,,,,,,,,,,,,,,,,,,,,,,,,,
,5f9baf2a2613ea3ea295875b,001,2022-04-28_20h16.07.598,classification_task,2021.2.3,Win32,59.74429442,5f9baf2a2613ea3ea295875b,626b377229c10585ec392f8a,626b3c3a404e1b6d8480b248,,,,,,,,,,,,,,,,,,,,,,,l,0,1.8532,"[""0.309"",""0.432"",""0.699"",""0.850""]","[0,1,1,1]",0,34,34,34,1,0,1,,,0,FALSE,,,,,,,,,,,,,,,,,,,,,,,,,,,,,,
,5f9baf2a2613ea3ea295875b,001,2022-04-28_20h16.07.598,classification_task,2021.2.3,Win32,59.74429442,5f9baf2a2613ea3ea295875b,626b377229c10585ec392f8a,626b3c3a404e1b6d8480b248,,,,,,,,,,,,,,,,,,,,,,,a,0,1.4581,"[""0.665"",""0.398"",""0.533"",""0.803""]","[0,1,1,1]",0,35,35,35,1,1,1,,,0,FALSE,,,,,,,,,,,,,,,,,,,,,,,,,,,,,,
,5f9baf2a2613ea3ea295875b,001,2022-04-28_20h16.07.598,classification_task,2021.2.3,Win32,59.74429442,5f9baf2a2613ea3ea295875b,626b377229c10585ec392f8a,626b3c3a404e1b6d8480b248,,,,,,,,,,,,,,,,,,,,,,,l,1,1.7485,"[""0.252"",""0.357"",""0.604"",""0.753""]","[0,1,1,1]",0,36,36,36,1,1,0,,,0,FALSE,,,,,,,,,,,,,,,,,,,,,,,,,,,,,,
,5f9baf2a2613ea3ea295875b,001,2022-04-28_20h16.07.598,classification_task,2021.2.3,Win32,59.74429442,5f9baf2a2613ea3ea295875b,626b377229c10585ec392f8a,626b3c3a404e1b6d8480b248,,,,,,,,,,,,,,,,,,,,,,,l,1,1.3493,"[""0.072"",""0.398"",""0.320"",""0.803""]","[1,1,0,1]",0,37,37,37,1,1,1,,,0,FALSE,,,,,,,,,,,,,,,,,,,,,,,,,,,,,,
,5f9baf2a2613ea3ea295875b,001,2022-04-28_20h16.07.598,classification_task,2021.2.3,Win32,59.74429442,5f9baf2a2613ea3ea295875b,626b377229c10585ec392f8a,626b3c3a404e1b6d8480b248,,,,,,,,,,,,,,,,,,,,,,,a,1,1.2528,"[""0.657"",""0.467"",""0.908"",""0.948""]","[0,1,1,1]",0,38,38,38,1,0,0,,,0,FALSE,,,,,,,,,,,,,,,,,,,,,,,,,,,,,,
,5f9baf2a2613ea3ea295875b,001,2022-04-28_20h16.07.598,classification_task,2021.2.3,Win32,59.74429442,5f9baf2a2613ea3ea295875b,626b377229c10585ec392f8a,626b3c3a404e1b6d8480b248,,,,,,,,,,,,,,,,,,,,,,,a,1,1.4481,"[""0.206"",""0.640"",""0.699"",""0.850""]","[1,0,1,1]",0,39,39,39,1,0,1,,,0,FALSE,,,,,,,,,,,,,,,,,,,,,,,,,,,,,,
,5f9baf2a2613ea3ea295875b,001,2022-04-28_20h16.07.598,classification_task,2021.2.3,Win32,59.74429442,5f9baf2a2613ea3ea295875b,626b377229c10585ec392f8a,626b3c3a404e1b6d8480b248,,,,,,,,,,,,,,,,,,,,,,,l,1,0.9601,"[""0.116"",""0.357"",""0.604"",""0.657""]","[1,1,1,0]",0,40,40,40,1,1,0,,,0,FALSE,,,,,,,,,,,,,,,,,,,,,,,,,,,,,,
,5f9baf2a2613ea3ea295875b,001,2022-04-28_20h16.07.598,classification_task,2021.2.3,Win32,59.74429442,5f9baf2a2613ea3ea295875b,626b377229c10585ec392f8a,626b3c3a404e1b6d8480b248,,,,,,,,,,,,,,,,,,,,,,,l,1,1.1753,"[""0.116"",""0.357"",""0.265"",""0.753""]","[1,1,0,1]",0,41,41,41,1,1,0,,,0,FALSE,,,,,,,,,,,,,,,,,,,,,,,,,,,,,,
,5f9baf2a2613ea3ea295875b,001,2022-04-28_20h16.07.598,classification_task,2021.2.3,Win32,59.74429442,5f9baf2a2613ea3ea295875b,626b377229c10585ec392f8a,626b3c3a404e1b6d8480b248,,,,,,,,,,,,,,,,,,,,,,,a,1,1.2662,"[""0.162"",""0.467"",""0.908"",""0.320""]","[1,1,1,0]",0,42,42,42,1,0,0,,,0,FALSE,,,,,,,,,,,,,,,,,,,,,,,,,,,,,,
,5f9baf2a2613ea3ea295875b,001,2022-04-28_20h16.07.598,classification_task,2021.2.3,Win32,59.74429442,5f9baf2a2613ea3ea295875b,626b377229c10585ec392f8a,626b3c3a404e1b6d8480b248,,,,,,,,,,,,,,,,,,,,,,,l,1,2.113,"[""0.116"",""0.638"",""0.604"",""0.753""]","[1,0,1,1]",0,43,43,43,1,1,0,,,0,FALSE,,,,,,,,,,,,,,,,,,,,,,,,,,,,,,
,5f9baf2a2613ea3ea295875b,001,2022-04-28_20h16.07.598,classification_task,2021.2.3,Win32,59.74429442,5f9baf2a2613ea3ea295875b,626b377229c10585ec392f8a,626b3c3a404e1b6d8480b248,,,,,,,,,,,,,,,,,,,,,,,a,1,1.3196,"[""0.206"",""0.432"",""0.316"",""0.850""]","[1,1,0,1]",0,44,44,44,1,0,1,,,0,FALSE,,,,,,,,,,,,,,,,,,,,,,,,,,,,,,
,5f9baf2a2613ea3ea295875b,001,2022-04-28_20h16.07.598,classification_task,2021.2.3,Win32,59.74429442,5f9baf2a2613ea3ea295875b,626b377229c10585ec392f8a,626b3c3a404e1b6d8480b248,,,,,,,,,,,,,,,,,,,,,,,l,1,1.4176,"[""0.072"",""0.032"",""0.533"",""0.803""]","[1,0,1,1]",0,45,45,45,1,1,1,,,0,FALSE,,,,,,,,,,,,,,,,,,,,,,,,,,,,,,
,5f9baf2a2613ea3ea295875b,001,2022-04-28_20h16.07.598,classification_task,2021.2.3,Win32,59.74429442,5f9baf2a2613ea3ea295875b,626b377229c10585ec392f8a,626b3c3a404e1b6d8480b248,,,,,,,,,,,,,,,,,,,,,,,a,1,0.8622,"[""0.162"",""0.638"",""0.908"",""0.948""]","[1,0,1,1]",0,46,46,46,1,0,0,,,0,FALSE,,,,,,,,,,,,,,,,,,,,,,,,,,,,,,
,5f9baf2a2613ea3ea295875b,001,2022-04-28_20h16.07.598,classification_task,2021.2.3,Win32,59.74429442,5f9baf2a2613ea3ea295875b,626b377229c10585ec392f8a,626b3c3a404e1b6d8480b248,,,,,,,,,,,,,,,,,,,,,,,a,1,0.699,"[""0.162"",""0.467"",""0.252"",""0.948""]","[1,1,0,1]",0,47,47,47,1,0,0,,,0,FALSE,,,,,,,,,,,,,,,,,,,,,,,,,,,,,,
,5f9baf2a2613ea3ea295875b,001,2022-04-28_20h16.07.598,classification_task,2021.2.3,Win32,59.74429442,5f9baf2a2613ea3ea295875b,626b377229c10585ec392f8a,626b3c3a404e1b6d8480b248,,,,,,,,,,,,,,,,,,,,,,,l,1,1.1006,"[""0.252"",""0.398"",""0.533"",""0.803""]","[0,1,1,1]",0,48,48,48,1,1,1,,,0,FALSE,,,,,,,,,,,,,,,,,,,,,,,,,,,,,,
,5f9baf2a2613ea3ea295875b,001,2022-04-28_20h16.07.598,classification_task,2021.2.3,Win32,59.74429442,5f9baf2a2613ea3ea295875b,626b377229c10585ec392f8a,626b3c3a404e1b6d8480b248,,,,,,,,,,,,,,,,,,,,,,,l,1,1.2691,"[""0.032"",""0.357"",""0.604"",""0.753""]","[0,1,1,1]",0,49,49,49,1,1,0,,,0,FALSE,,,,,,,,,,,,,,,,,,,,,,,,,,,,,,
,5f9baf2a2613ea3ea295875b,001,2022-04-28_20h16.07.598,classification_task,2021.2.3,Win32,59.74429442,5f9baf2a2613ea3ea295875b,626b377229c10585ec392f8a,626b3c3a404e1b6d8480b248,,,,,,,,,,,,,,,,,,,,,,,a,1,1.2744,"[""0.568"",""0.432"",""0.699"",""0.850""]","[0,1,1,1]",0,50,50,50,1,0,1,,,0,FALSE,,,,,,,,,,,,,,,,,,,,,,,,,,,,,,
,5f9baf2a2613ea3ea295875b,001,2022-04-28_20h16.07.598,classification_task,2021.2.3,Win32,59.74429442,5f9baf2a2613ea3ea295875b,626b377229c10585ec392f8a,626b3c3a404e1b6d8480b248,,,,,,,,,,,,,,,,,,,,,,,a,1,1.0325,"[""0.162"",""0.643"",""0.908"",""0.948""]","[1,0,1,1]",0,51,51,51,1,0,0,,,0,FALSE,,,,,,,,,,,,,,,,,,,,,,,,,,,,,,
,5f9baf2a2613ea3ea295875b,001,2022-04-28_20h16.07.598,classification_task,2021.2.3,Win32,59.74429442,5f9baf2a2613ea3ea295875b,626b377229c10585ec392f8a,626b3c3a404e1b6d8480b248,,,,,,,,,,,,,,,,,,,,,,,a,1,0.6955,"[""0.162"",""0.467"",""0.908"",""0.568""]","[1,1,1,0]",0,52,52,52,1,0,0,,,0,FALSE,,,,,,,,,,,,,,,,,,,,,,,,,,,,,,
,5f9baf2a2613ea3ea295875b,001,2022-04-28_20h16.07.598,classification_task,2021.2.3,Win32,59.74429442,5f9baf2a2613ea3ea295875b,626b377229c10585ec392f8a,626b3c3a404e1b6d8480b248,,,,,,,,,,,,,,,,,,,,,,,a,1,0.8157,"[""0.162"",""0.467"",""0.032"",""0.948""]","[1,1,0,1]",0,53,53,53,1,0,0,,,0,FALSE,,,,,,,,,,,,,,,,,,,,,,,,,,,,,,
,5f9baf2a2613ea3ea295875b,001,2022-04-28_20h16.07.598,classification_task,2021.2.3,Win32,59.74429442,5f9baf2a2613ea3ea295875b,626b377229c10585ec392f8a,626b3c3a404e1b6d8480b248,,,,,,,,,,,,,,,,,,,,,,,a,1,1.091,"[""0.206"",""0.432"",""0.699"",""0.317""]","[1,1,1,0]",0,54,54,54,1,0,1,,,0,FALSE,,,,,,,,,,,,,,,,,,,,,,,,,,,,,,
,5f9baf2a2613ea3ea295875b,001,2022-04-28_20h16.07.598,classification_task,2021.2.3,Win32,59.74429442,5f9baf2a2613ea3ea295875b,626b377229c10585ec392f8a,626b3c3a404e1b6d8480b248,,,,,,,,,,,,,,,,,,,,,,,a,1,0.8817,"[""0.206"",""0.432"",""0.317"",""0.850""]","[1,1,0,1]",0,55,55,55,1,0,1,,,0,FALSE,,,,,,,,,,,,,,,,,,,,,,,,,,,,,,
,5f9baf2a2613ea3ea295875b,001,2022-04-28_20h16.07.598,classification_task,2021.2.3,Win32,59.74429442,5f9baf2a2613ea3ea295875b,626b377229c10585ec392f8a,626b3c3a404e1b6d8480b248,,,,,,,,,,,,,,,,,,,,,,,l,0,1.45,"[""0.265"",""0.467"",""0.908"",""0.948""]","[0,1,1,1]",0,56,56,56,1,0,0,,,0,FALSE,,,,,,,,,,,,,,,,,,,,,,,,,,,,,,
,5f9baf2a2613ea3ea295875b,001,2022-04-28_20h16.07.598,classification_task,2021.2.3,Win32,59.74429442,5f9baf2a2613ea3ea295875b,626b377229c10585ec392f8a,626b3c3a404e1b6d8480b248,,,,,,,,,,,,,,,,,,,,,,,l,1,1.2587,"[""0.116"",""0.357"",""0.604"",""0.032""]","[1,1,1,0]",0,57,57,57,1,1,0,,,0,FALSE,,,,,,,,,,,,,,,,,,,,,,,,,,,,,,
,5f9baf2a2613ea3ea295875b,001,2022-04-28_20h16.07.598,classification_task,2021.2.3,Win32,59.74429442,5f9baf2a2613ea3ea295875b,626b377229c10585ec392f8a,626b3c3a404e1b6d8480b248,,,,,,,,,,,,,,,,,,,,,,,l,1,1.1614,"[""0.116"",""0.357"",""0.252"",""0.753""]","[1,1,0,1]",0,58,58,58,1,1,0,,,0,FALSE,,,,,,,,,,,,,,,,,,,,,,,,,,,,,,
,5f9baf2a2613ea3ea295875b,001,2022-04-28_20h16.07.598,classification_task,2021.2.3,Win32,59.74429442,5f9baf2a2613ea3ea295875b,626b377229c10585ec392f8a,626b3c3a404e1b6d8480b248,,,,,,,,,,,,,,,,,,,,,,,l,1,1.9369,"[""0.072"",""0.398"",""0.533"",""0.032""]","[1,1,1,0]",0,59,59,59,1,1,1,,,0,FALSE,,,,,,,,,,,,,,,,,,,,,,,,,,,,,,
,5f9baf2a2613ea3ea295875b,001,2022-04-28_20h16.07.598,classification_task,2021.2.3,Win32,59.74429442,5f9baf2a2613ea3ea295875b,626b377229c10585ec392f8a,626b3c3a404e1b6d8480b248,,,,,,,,,,,,,,,,,,,,,,,l,1,0.9821,"[""0.072"",""0.638"",""0.533"",""0.803""]","[1,0,1,1]",0,60,60,60,1,1,1,,,0,FALSE,,,,,,,,,,,,,,,,,,,,,,,,,,,,,,
,5f9baf2a2613ea3ea295875b,001,2022-04-28_20h16.07.598,classification_task,2021.2.3,Win32,59.74429442,5f9baf2a2613ea3ea295875b,626b377229c10585ec392f8a,626b3c3a404e1b6d8480b248,,,,,,,,,,,,,,,,,,,,,,,a,1,0.8764,"[""0.206"",""0.309"",""0.699"",""0.850""]","[1,0,1,1]",0,61,61,61,1,0,1,,,0,FALSE,,,,,,,,,,,,,,,,,,,,,,,,,,,,,,
,5f9baf2a2613ea3ea295875b,001,2022-04-28_20h16.07.598,classification_task,2021.2.3,Win32,59.74429442,5f9baf2a2613ea3ea295875b,626b377229c10585ec392f8a,626b3c3a404e1b6d8480b248,,,,,,,,,,,,,,,,,,,,,,,l,1,1.6488,"[""0.116"",""0.291"",""0.604"",""0.753""]","[1,0,1,1]",0,62,62,62,1,1,0,,,0,FALSE,,,,,,,,,,,,,,,,,,,,,,,,,,,,,,
,5f9baf2a2613ea3ea295875b,001,2022-04-28_20h16.07.598,classification_task,2021.2.3,Win32,59.74429442,5f9baf2a2613ea3ea295875b,626b377229c10585ec392f8a,626b3c3a404e1b6d8480b248,,,,,,,,,,,,,,,,,,,,,,,l,1,1.3702,"[""0.072"",""0.398"",""0.317"",""0.803""]","[1,1,0,1]",0,63,63,63,1,1,1,,,0,FALSE,,,,,,,,,,,,,,,,,,,,,,,,,,,,,,
,5f9baf2a2613ea3ea295875b,001,2022-04-28_20h16.07.598,classification_task,2021.2.3,Win32,59.74429442,5f9baf2a2613ea3ea295875b,626b377229c10585ec392f8a,626b3c3a404e1b6d8480b248,,,,,,,,,,,,,,,,,,,,,,,,,,,,,,,,,,,,,,,0, ,,0,9.753637566,174.5397,0,2,2,2,1,2,3,,,,,,,,,,,,,,,,,
,5f9baf2a2613ea3ea295875b,001,2022-04-28_20h16.07.598,classification_task,2021.2.3,Win32,59.74429442,5f9baf2a2613ea3ea295875b,626b377229c10585ec392f8a,626b3c3a404e1b6d8480b248,,,,,,,,,,,,,,,,,,,,,,,,,,,,,,,,,,,,,,,1,  ,,0,8.582451499,176.5935,0,2,2,2,1,2,3,,,,,,,,,,,,,,,,,
,5f9baf2a2613ea3ea295875b,001,2022-04-28_20h16.07.598,classification_task,2021.2.3,Win32,59.74429442,5f9baf2a2613ea3ea295875b,626b377229c10585ec392f8a,626b3c3a404e1b6d8480b248,,,,,,,,,,,,,,,,,,,,,,,,,,,,,,,,,,,,,,,2,  ,,0,8.513558201,178.1913,0,2,2,2,1,2,3,,,,,,,,,,,,,,,,,
,5f9baf2a2613ea3ea295875b,001,2022-04-28_20h16.07.598,classification_task,2021.2.3,Win32,59.74429442,5f9baf2a2613ea3ea295875b,626b377229c10585ec392f8a,626b3c3a404e1b6d8480b248,,,,,,,,,,,,,,,,,,,,,,,,,,,,,,,,,,,,,,,,,,,,,0,2,2,2,1,,3,,,,,,,,,,,,,,,,,
,5f9baf2a2613ea3ea295875b,001,2022-04-28_20h16.07.598,classification_task,2021.2.3,Win32,59.74429442,5f9baf2a2613ea3ea295875b,626b377229c10585ec392f8a,626b3c3a404e1b6d8480b248,,,,,,,,,,,,,,,,,,,,,,,,,,,,,,,,,,,,,,,,,,,,,,,,,,,,,I believe the aid is a competent performer,,0.7,0,3,830.131,0,0,0,0,1,0,,,,
,5f9baf2a2613ea3ea295875b,001,2022-04-28_20h16.07.598,classification_task,2021.2.3,Win32,59.74429442,5f9baf2a2613ea3ea295875b,626b377229c10585ec392f8a,626b3c3a404e1b6d8480b248,,,,,,,,,,,,,,,,,,,,,,,,,,,,,,,,,,,,,,,,,,,,,,,,,,,,,I trust the aid,,0.7,0,3,834.6189,0,0,0,0,1,0,,,,
,5f9baf2a2613ea3ea295875b,001,2022-04-28_20h16.07.598,classification_task,2021.2.3,Win32,59.74429442,5f9baf2a2613ea3ea295875b,626b377229c10585ec392f8a,626b3c3a404e1b6d8480b248,,,,,,,,,,,,,,,,,,,,,,,,,,,,,,,,,,,,,,,,,,,,,,,,,,,,,I have confidence in the advice given by the aid,,0.7,0,2,838.7693,0,0,0,0,1,0,,,,
,5f9baf2a2613ea3ea295875b,001,2022-04-28_20h16.07.598,classification_task,2021.2.3,Win32,59.74429442,5f9baf2a2613ea3ea295875b,626b377229c10585ec392f8a,626b3c3a404e1b6d8480b248,,,,,,,,,,,,,,,,,,,,,,,,,,,,,,,,,,,,,,,,,,,,,,,,,,,,,I can depend on the aid,,0.7,0,2,839.8452,0,0,0,0,1,0,,,,
,5f9baf2a2613ea3ea295875b,001,2022-04-28_20h16.07.598,classification_task,2021.2.3,Win32,59.74429442,5f9baf2a2613ea3ea295875b,626b377229c10585ec392f8a,626b3c3a404e1b6d8480b248,,,,,,,,,,,,,,,,,,,,,,,,,,,,,,,,,,,,,,,,,,,,,,,,,,,,,I can rely on the aid to behave in consistent ways,,0.7,0,2,841.7753,0,0,0,0,1,0,,,,
,5f9baf2a2613ea3ea295875b,001,2022-04-28_20h16.07.598,classification_task,2021.2.3,Win32,59.74429442,5f9baf2a2613ea3ea295875b,626b377229c10585ec392f8a,626b3c3a404e1b6d8480b248,,,,,,,,,,,,,,,,,,,,,,,,,,,,,,,,,,,,,,,,,,,,,,,,,,,,,I can rely on the aid to do its best every time I take its advice,,0.7,0,3,845.0068,0,0,0,0,1,0,,,,
,5f9baf2a2613ea3ea295875b,001,2022-04-28_20h16.07.598,classification_task,2021.2.3,Win32,59.74429442,5f9baf2a2613ea3ea295875b,626b377229c10585ec392f8a,626b3c3a404e1b6d8480b248,,,,,,,,,,,,,,,,,,,,,,,,,,,,,,,,,,,,,,,,,,,,,,,,,,,,,"On trials you completed with assistance from the aid, how frequently did you think the aid was correct?",,0.7,0,50,,0,0,0,0,1,0,,,,
,5f9baf2a2613ea3ea295875b,001,2022-04-28_20h16.07.598,classification_task,2021.2.3,Win32,59.74429442,5f9baf2a2613ea3ea295875b,626b377229c10585ec392f8a,626b3c3a404e1b6d8480b248,,,,,,,,,,,,,,,,,,,,,,,,,,,,,,,,,,,,,,,,,,,,,,,,,,,,,"On trials you completed without the aid, how frequently did you think you were correct?",,0.7,0,80,,0,0,0,0,1,0,,,,
,5f9baf2a2613ea3ea295875b,001,2022-04-28_20h16.07.598,classification_task,2021.2.3,Win32,59.74429442,5f9baf2a2613ea3ea295875b,626b377229c10585ec392f8a,626b3c3a404e1b6d8480b248,,,,,,,,,,,,,,,,,,,,,,,,,,,,,,,,,,,,,,,,,,,,,,,,,,,,,,,,,,,0,0,0,0,1,,,,,
,5f9baf2a2613ea3ea295875b,001,2022-04-28_20h16.07.598,classification_task,2021.2.3,Win32,59.74429442,5f9baf2a2613ea3ea295875b,626b377229c10585ec392f8a,626b3c3a404e1b6d8480b248,,,,,,,,,,,,,,,,,,,,,,,,,,,,,,,,,,,,,,,,,,,,,,,,,,,,,,,,,,,,,,,,,space,9.5136,873.2423,
,5f9baf2a2613ea3ea295875b,001,2022-04-28_20h16.07.598,classification_task,2021.2.3,Win32,59.74429442,5f9baf2a2613ea3ea295875b,626b377229c10585ec392f8a,626b3c3a404e1b6d8480b248,,,,,,,,,,,,,,,,,,,,,,,,,,,,,,,,,,,,,,,,,,,,,,,,,,,,,,,,,,,,,,,,,,,,"Mozilla/5.0 (Windows NT 10.0; Win64; x64) AppleWebKit/537.36 (KHTML, like Gecko) Chrome/100.0.4896.127 Safari/537.36"
