usingWebGL,participant,session,date,expName,psychopyVersion,OS,frameRate,PROLIFIC_PID,STUDY_ID,SESSION_ID,signatures_friend,signatures_foe,band_ranges_top,band_ranges_bottom,formitemText,formtype,formundefined,formitemWidth,formindex,formresponse,formrt,key_resp_2.keys,key_resp_2.rt,tute_resp.keys,tute_resp.rt,tutorial.thisRepN,tutorial.thisTrialN,tutorial.thisN,tutorial.thisIndex,tutorial.ran,key_resp_4.keys,key_resp_4.rt,key_resp.keys,key_resp.corr,key_resp.rt,lines_presented,is_signal_presented,trials.thisRepN,trials.thisTrialN,trials.thisN,trials.thisIndex,trials.ran,vessel,active_band,lines,is_signal,supported_pos,catch_trial,debrief_formindex,debrief_formitemText,debrief_formtype,debrief_formitemWidth,debrief_formresponse,debrief_formrt,phases.thisRepN,phases.thisTrialN,phases.thisN,phases.thisIndex,phases.ran,phases.order,phase,key_resp_3.keys,trustitemText,trusttype,trustitemWidth,trustindex,trustresponse,trustrt,support_status.thisRepN,support_status.thisTrialN,support_status.thisN,support_status.thisIndex,support_status.ran,support_status.order,key_resp_5.keys,key_resp_5.rt,globalClockTime,userAgent
TRUE,5f9f2149fd257e5401063293,001,2022-04-28_20h43.34.981,classification_task,2021.2.3,Win32,60.1612321,5f9f2149fd257e5401063293,626b377229c10585ec392f89,626b3ac2983213a57e6d5a72,,,,,,,,,,,,,,,,,,,,,,,,,,,,,,,,,,,,,,,,,,,,,,,,,,,,,,,,,,,,,,,,,,,,
,5f9f2149fd257e5401063293,001,2022-04-28_20h43.34.981,classification_task,2021.2.3,Win32,60.1612321,5f9f2149fd257e5401063293,626b377229c10585ec392f89,626b3ac2983213a57e6d5a72,"[[""0.198"",""0.469"",""0.770"",""0.864""],[""0.234"",""0.503"",""0.632"",""0.931""]]","[[""0.087"",""0.367"",""0.538"",""0.693""],[""0.026"",""0.150"",""0.583"",""0.810""]]","[1,10]","[100,1000]",Video game experience,,,0.7,0,,,,,,,,,,,,,,,,,,,,,,,,,,,,,,,,,,,,,,,,,,,,,,,,,,,,,,,,,,,
,5f9f2149fd257e5401063293,001,2022-04-28_20h43.34.981,classification_task,2021.2.3,Win32,60.1612321,5f9f2149fd257e5401063293,626b377229c10585ec392f89,626b3ac2983213a57e6d5a72,,,,,Approximately how many hours did you spend playing video games in the last week?,,,0.7,0,20,,,,,,,,,,,,,,,,,,,,,,,,,,,,,,,,,,,,,,,,,,,,,,,,,,,,,,,,,,
,5f9f2149fd257e5401063293,001,2022-04-28_20h43.34.981,classification_task,2021.2.3,Win32,60.1612321,5f9f2149fd257e5401063293,626b377229c10585ec392f89,626b3ac2983213a57e6d5a72,,,,,"Which game did you play the most this year? (Enter ""None"" if you didn't play any)",,,0.7,0,Europa Universalis 4,,,,,,,,,,,,,,,,,,,,,,,,,,,,,,,,,,,,,,,,,,,,,,,,,,,,,,,,,,
,5f9f2149fd257e5401063293,001,2022-04-28_20h43.34.981,classification_task,2021.2.3,Win32,60.1612321,5f9f2149fd257e5401063293,626b377229c10585ec392f89,626b3ac2983213a57e6d5a72,,,,,Visual perception,,,0.7,0,,,,,,,,,,,,,,,,,,,,,,,,,,,,,,,,,,,,,,,,,,,,,,,,,,,,,,,,,,,
,5f9f2149fd257e5401063293,001,2022-04-28_20h43.34.981,classification_task,2021.2.3,Win32,60.1612321,5f9f2149fd257e5401063293,626b377229c10585ec392f89,626b3ac2983213a57e6d5a72,,,,,Do you have any form of color blindness?,,,0.7,0,No,44.9578,,,,,,,,,,,,,,,,,,,,,,,,,,,,,,,,,,,,,,,,,,,,,,,,,,,,,,,,,
,5f9f2149fd257e5401063293,001,2022-04-28_20h43.34.981,classification_task,2021.2.3,Win32,60.1612321,5f9f2149fd257e5401063293,626b377229c10585ec392f89,626b3ac2983213a57e6d5a72,,,,,Do you use software to change the colour temperature of your screen (e.g. f.lux)?,,,0.7,0,No,47.36,,,,,,,,,,,,,,,,,,,,,,,,,,,,,,,,,,,,,,,,,,,,,,,,,,,,,,,,,
,5f9f2149fd257e5401063293,001,2022-04-28_20h43.34.981,classification_task,2021.2.3,Win32,60.1612321,5f9f2149fd257e5401063293,626b377229c10585ec392f89,626b3ac2983213a57e6d5a72,,,,,,,,,,,,space,23.9037,space,12.2701,0,0,0,0,1,,,,,,,,,,,,,,,,,,,,,,,,,,,,,,,,,,,,,,,,,,,,,,,,
,5f9f2149fd257e5401063293,001,2022-04-28_20h43.34.981,classification_task,2021.2.3,Win32,60.1612321,5f9f2149fd257e5401063293,626b377229c10585ec392f89,626b3ac2983213a57e6d5a72,,,,,,,,,,,,,,space,7.6485,1,0,1,0,1,,,,,,,,,,,,,,,,,,,,,,,,,,,,,,,,,,,,,,,,,,,,,,,,
,5f9f2149fd257e5401063293,001,2022-04-28_20h43.34.981,classification_task,2021.2.3,Win32,60.1612321,5f9f2149fd257e5401063293,626b377229c10585ec392f89,626b3ac2983213a57e6d5a72,,,,,,,,,,,,,,space,30.6686,2,0,2,0,1,,,,,,,,,,,,,,,,,,,,,,,,,,,,,,,,,,,,,,,,,,,,,,,,
,5f9f2149fd257e5401063293,001,2022-04-28_20h43.34.981,classification_task,2021.2.3,Win32,60.1612321,5f9f2149fd257e5401063293,626b377229c10585ec392f89,626b3ac2983213a57e6d5a72,,,,,,,,,,,,,,space,8.9545,3,0,3,0,1,,,,,,,,,,,,,,,,,,,,,,,,,,,,,,,,,,,,,,,,,,,,,,,,
,5f9f2149fd257e5401063293,001,2022-04-28_20h43.34.981,classification_task,2021.2.3,Win32,60.1612321,5f9f2149fd257e5401063293,626b377229c10585ec392f89,626b3ac2983213a57e6d5a72,,,,,,,,,,,,,,space,13.0782,4,0,4,0,1,,,,,,,,,,,,,,,,,,,,,,,,,,,,,,,,,,,,,,,,,,,,,,,,
,5f9f2149fd257e5401063293,001,2022-04-28_20h43.34.981,classification_task,2021.2.3,Win32,60.1612321,5f9f2149fd257e5401063293,626b377229c10585ec392f89,626b3ac2983213a57e6d5a72,,,,,,,,,,,,,,,,,,,,,space,26.38,l,1,6.8134,"[""0.279"",""0.150"",""0.583"",""0.810""]","[0,1,1,1]",0,0,0,0,1,1,1,,,1,FALSE,,,,,,,,,,,,,,,,,,,,,,,,,,,,,,
,5f9f2149fd257e5401063293,001,2022-04-28_20h43.34.981,classification_task,2021.2.3,Win32,60.1612321,5f9f2149fd257e5401063293,626b377229c10585ec392f89,626b3ac2983213a57e6d5a72,,,,,,,,,,,,,,,,,,,,,,,l,1,7.9644,"[""0.087"",""0.367"",""0.538"",""0.328""]","[1,1,1,0]",0,1,1,1,1,1,0,,,1,FALSE,,,,,,,,,,,,,,,,,,,,,,,,,,,,,,
,5f9f2149fd257e5401063293,001,2022-04-28_20h43.34.981,classification_task,2021.2.3,Win32,60.1612321,5f9f2149fd257e5401063293,626b377229c10585ec392f89,626b3ac2983213a57e6d5a72,,,,,,,,,,,,,,,,,,,,,,,a,1,8.8495,"[""0.198"",""0.469"",""0.770"",""0.332""]","[1,1,1,0]",0,2,2,2,1,0,0,,,1,FALSE,,,,,,,,,,,,,,,,,,,,,,,,,,,,,,
,5f9f2149fd257e5401063293,001,2022-04-28_20h43.34.981,classification_task,2021.2.3,Win32,60.1612321,5f9f2149fd257e5401063293,626b377229c10585ec392f89,626b3ac2983213a57e6d5a72,,,,,,,,,,,,,,,,,,,,,,,l,1,4.9837,"[""0.026"",""0.150"",""0.330"",""0.810""]","[1,1,0,1]",0,3,3,3,1,1,1,,,1,FALSE,,,,,,,,,,,,,,,,,,,,,,,,,,,,,,
,5f9f2149fd257e5401063293,001,2022-04-28_20h43.34.981,classification_task,2021.2.3,Win32,60.1612321,5f9f2149fd257e5401063293,626b377229c10585ec392f89,626b3ac2983213a57e6d5a72,,,,,,,,,,,,,,,,,,,,,,,l,1,9.287,"[""0.026"",""0.150"",""0.583"",""0.332""]","[1,1,1,0]",0,4,4,4,1,1,1,,,1,FALSE,,,,,,,,,,,,,,,,,,,,,,,,,,,,,,
,5f9f2149fd257e5401063293,001,2022-04-28_20h43.34.981,classification_task,2021.2.3,Win32,60.1612321,5f9f2149fd257e5401063293,626b377229c10585ec392f89,626b3ac2983213a57e6d5a72,,,,,,,,,,,,,,,,,,,,,,,l,1,9.6309,"[""0.330"",""0.367"",""0.538"",""0.693""]","[0,1,1,1]",0,5,5,5,1,1,0,,,1,FALSE,,,,,,,,,,,,,,,,,,,,,,,,,,,,,,
,5f9f2149fd257e5401063293,001,2022-04-28_20h43.34.981,classification_task,2021.2.3,Win32,60.1612321,5f9f2149fd257e5401063293,626b377229c10585ec392f89,626b3ac2983213a57e6d5a72,,,,,,,,,,,,,,,,,,,,,,,l,1,7.3593,"[""0.087"",""0.367"",""0.408"",""0.693""]","[1,1,0,1]",0,6,6,6,1,1,0,,,1,FALSE,,,,,,,,,,,,,,,,,,,,,,,,,,,,,,
,5f9f2149fd257e5401063293,001,2022-04-28_20h43.34.981,classification_task,2021.2.3,Win32,60.1612321,5f9f2149fd257e5401063293,626b377229c10585ec392f89,626b3ac2983213a57e6d5a72,,,,,,,,,,,,,,,,,,,,,,,l,1,6.502,"[""0.026"",""0.319"",""0.583"",""0.810""]","[1,0,1,1]",0,7,7,7,1,1,1,,,1,FALSE,,,,,,,,,,,,,,,,,,,,,,,,,,,,,,
,5f9f2149fd257e5401063293,001,2022-04-28_20h43.34.981,classification_task,2021.2.3,Win32,60.1612321,5f9f2149fd257e5401063293,626b377229c10585ec392f89,626b3ac2983213a57e6d5a72,,,,,,,,,,,,,,,,,,,,,,,a,1,9.2283,"[""0.332"",""0.469"",""0.770"",""0.864""]","[0,1,1,1]",0,8,8,8,1,0,0,,,1,FALSE,,,,,,,,,,,,,,,,,,,,,,,,,,,,,,
,5f9f2149fd257e5401063293,001,2022-04-28_20h43.34.981,classification_task,2021.2.3,Win32,60.1612321,5f9f2149fd257e5401063293,626b377229c10585ec392f89,626b3ac2983213a57e6d5a72,,,,,,,,,,,,,,,,,,,,,,,,0,,"[""0.234"",""0.408"",""0.632"",""0.931""]","[1,0,1,1]",0,9,9,9,1,0,1,,,1,FALSE,,,,,,,,,,,,,,,,,,,,,,,,,,,,,,
,5f9f2149fd257e5401063293,001,2022-04-28_20h43.34.981,classification_task,2021.2.3,Win32,60.1612321,5f9f2149fd257e5401063293,626b377229c10585ec392f89,626b3ac2983213a57e6d5a72,,,,,,,,,,,,,,,,,,,,,,,a,1,5.771,"[""0.270"",""0.503"",""0.632"",""0.931""]","[0,1,1,1]",0,10,10,10,1,0,1,,,1,FALSE,,,,,,,,,,,,,,,,,,,,,,,,,,,,,,
,5f9f2149fd257e5401063293,001,2022-04-28_20h43.34.981,classification_task,2021.2.3,Win32,60.1612321,5f9f2149fd257e5401063293,626b377229c10585ec392f89,626b3ac2983213a57e6d5a72,,,,,,,,,,,,,,,,,,,,,,,a,1,7.5882,"[""0.234"",""0.503"",""0.632"",""0.328""]","[1,1,1,0]",0,11,11,11,1,0,1,,,1,FALSE,,,,,,,,,,,,,,,,,,,,,,,,,,,,,,
,5f9f2149fd257e5401063293,001,2022-04-28_20h43.34.981,classification_task,2021.2.3,Win32,60.1612321,5f9f2149fd257e5401063293,626b377229c10585ec392f89,626b3ac2983213a57e6d5a72,,,,,,,,,,,,,,,,,,,,,,,l,1,6.4492,"[""0.087"",""0.734"",""0.538"",""0.693""]","[1,0,1,1]",0,12,12,12,1,1,0,,,1,FALSE,,,,,,,,,,,,,,,,,,,,,,,,,,,,,,
,5f9f2149fd257e5401063293,001,2022-04-28_20h43.34.981,classification_task,2021.2.3,Win32,60.1612321,5f9f2149fd257e5401063293,626b377229c10585ec392f89,626b3ac2983213a57e6d5a72,,,,,,,,,,,,,,,,,,,,,,,a,1,5.5362,"[""0.198"",""0.278"",""0.770"",""0.864""]","[1,0,1,1]",0,13,13,13,1,0,0,,,1,FALSE,,,,,,,,,,,,,,,,,,,,,,,,,,,,,,
,5f9f2149fd257e5401063293,001,2022-04-28_20h43.34.981,classification_task,2021.2.3,Win32,60.1612321,5f9f2149fd257e5401063293,626b377229c10585ec392f89,626b3ac2983213a57e6d5a72,,,,,,,,,,,,,,,,,,,,,,,a,1,9.2564,"[""0.198"",""0.469"",""0.323"",""0.864""]","[1,1,0,1]",0,14,14,14,1,0,0,,,1,FALSE,,,,,,,,,,,,,,,,,,,,,,,,,,,,,,
,5f9f2149fd257e5401063293,001,2022-04-28_20h43.34.981,classification_task,2021.2.3,Win32,60.1612321,5f9f2149fd257e5401063293,626b377229c10585ec392f89,626b3ac2983213a57e6d5a72,,,,,,,,,,,,,,,,,,,,,,,a,1,5.8822,"[""0.234"",""0.503"",""0.330"",""0.931""]","[1,1,0,1]",0,15,15,15,1,0,1,,,1,FALSE,,,,,,,,,,,,,,,,,,,,,,,,,,,,,,
,5f9f2149fd257e5401063293,001,2022-04-28_20h43.34.981,classification_task,2021.2.3,Win32,60.1612321,5f9f2149fd257e5401063293,626b377229c10585ec392f89,626b3ac2983213a57e6d5a72,,,,,,,,,,,,,,,,,,,,,,,l,1,4.896,"[""0.087"",""0.367"",""0.538"",""0.291""]","[1,1,1,0]",0,16,16,16,1,1,0,,,1,FALSE,,,,,,,,,,,,,,,,,,,,,,,,,,,,,,
,5f9f2149fd257e5401063293,001,2022-04-28_20h43.34.981,classification_task,2021.2.3,Win32,60.1612321,5f9f2149fd257e5401063293,626b377229c10585ec392f89,626b3ac2983213a57e6d5a72,,,,,,,,,,,,,,,,,,,,,,,a,1,5.8485,"[""0.234"",""0.408"",""0.632"",""0.931""]","[1,0,1,1]",0,17,17,17,1,0,1,,,1,FALSE,,,,,,,,,,,,,,,,,,,,,,,,,,,,,,
,5f9f2149fd257e5401063293,001,2022-04-28_20h43.34.981,classification_task,2021.2.3,Win32,60.1612321,5f9f2149fd257e5401063293,626b377229c10585ec392f89,626b3ac2983213a57e6d5a72,,,,,,,,,,,,,,,,,,,,,,,l,1,9.2496,"[""0.319"",""0.150"",""0.583"",""0.810""]","[0,1,1,1]",0,18,18,18,1,1,1,,,1,FALSE,,,,,,,,,,,,,,,,,,,,,,,,,,,,,,
,5f9f2149fd257e5401063293,001,2022-04-28_20h43.34.981,classification_task,2021.2.3,Win32,60.1612321,5f9f2149fd257e5401063293,626b377229c10585ec392f89,626b3ac2983213a57e6d5a72,,,,,,,,,,,,,,,,,,,,,,,a,1,3.7434,"[""0.234"",""0.503"",""0.632"",""0.736""]","[1,1,1,0]",0,19,19,19,1,0,1,,,1,FALSE,,,,,,,,,,,,,,,,,,,,,,,,,,,,,,
,5f9f2149fd257e5401063293,001,2022-04-28_20h43.34.981,classification_task,2021.2.3,Win32,60.1612321,5f9f2149fd257e5401063293,626b377229c10585ec392f89,626b3ac2983213a57e6d5a72,,,,,,,,,,,,,,,,,,,,,,,a,1,3.7043,"[""0.198"",""0.469"",""0.770"",""0.278""]","[1,1,1,0]",0,20,20,20,1,0,0,,,1,FALSE,,,,,,,,,,,,,,,,,,,,,,,,,,,,,,
,5f9f2149fd257e5401063293,001,2022-04-28_20h43.34.981,classification_task,2021.2.3,Win32,60.1612321,5f9f2149fd257e5401063293,626b377229c10585ec392f89,626b3ac2983213a57e6d5a72,,,,,,,,,,,,,,,,,,,,,,,a,1,4.9781,"[""0.198"",""0.469"",""0.330"",""0.864""]","[1,1,0,1]",0,21,21,21,1,0,0,,,1,FALSE,,,,,,,,,,,,,,,,,,,,,,,,,,,,,,
,5f9f2149fd257e5401063293,001,2022-04-28_20h43.34.981,classification_task,2021.2.3,Win32,60.1612321,5f9f2149fd257e5401063293,626b377229c10585ec392f89,626b3ac2983213a57e6d5a72,,,,,,,,,,,,,,,,,,,,,,,a,1,6.7435,"[""0.408"",""0.503"",""0.632"",""0.931""]","[0,1,1,1]",0,22,22,22,1,0,1,,,1,FALSE,,,,,,,,,,,,,,,,,,,,,,,,,,,,,,
,5f9f2149fd257e5401063293,001,2022-04-28_20h43.34.981,classification_task,2021.2.3,Win32,60.1612321,5f9f2149fd257e5401063293,626b377229c10585ec392f89,626b3ac2983213a57e6d5a72,,,,,,,,,,,,,,,,,,,,,,,a,1,7.0285,"[""0.198"",""0.291"",""0.770"",""0.864""]","[1,0,1,1]",0,23,23,23,1,0,0,,,1,FALSE,,,,,,,,,,,,,,,,,,,,,,,,,,,,,,
,5f9f2149fd257e5401063293,001,2022-04-28_20h43.34.981,classification_task,2021.2.3,Win32,60.1612321,5f9f2149fd257e5401063293,626b377229c10585ec392f89,626b3ac2983213a57e6d5a72,,,,,,,,,,,,,,,,,,,,,,,a,1,6.5293,"[""0.234"",""0.503"",""0.736"",""0.931""]","[1,1,0,1]",0,24,24,24,1,0,1,,,1,FALSE,,,,,,,,,,,,,,,,,,,,,,,,,,,,,,
,5f9f2149fd257e5401063293,001,2022-04-28_20h43.34.981,classification_task,2021.2.3,Win32,60.1612321,5f9f2149fd257e5401063293,626b377229c10585ec392f89,626b3ac2983213a57e6d5a72,,,,,,,,,,,,,,,,,,,,,,,l,1,5.9062,"[""0.087"",""0.330"",""0.538"",""0.693""]","[1,0,1,1]",0,25,25,25,1,1,0,,,1,FALSE,,,,,,,,,,,,,,,,,,,,,,,,,,,,,,
,5f9f2149fd257e5401063293,001,2022-04-28_20h43.34.981,classification_task,2021.2.3,Win32,60.1612321,5f9f2149fd257e5401063293,626b377229c10585ec392f89,626b3ac2983213a57e6d5a72,,,,,,,,,,,,,,,,,,,,,,,l,1,3.8665,"[""0.026"",""0.323"",""0.583"",""0.810""]","[1,0,1,1]",0,26,26,26,1,1,1,,,1,FALSE,,,,,,,,,,,,,,,,,,,,,,,,,,,,,,
,5f9f2149fd257e5401063293,001,2022-04-28_20h43.34.981,classification_task,2021.2.3,Win32,60.1612321,5f9f2149fd257e5401063293,626b377229c10585ec392f89,626b3ac2983213a57e6d5a72,,,,,,,,,,,,,,,,,,,,,,,a,1,4.618,"[""0.291"",""0.469"",""0.770"",""0.864""]","[0,1,1,1]",0,27,27,27,1,0,0,,,1,FALSE,,,,,,,,,,,,,,,,,,,,,,,,,,,,,,
,5f9f2149fd257e5401063293,001,2022-04-28_20h43.34.981,classification_task,2021.2.3,Win32,60.1612321,5f9f2149fd257e5401063293,626b377229c10585ec392f89,626b3ac2983213a57e6d5a72,,,,,,,,,,,,,,,,,,,,,,,l,1,3.4996,"[""0.087"",""0.367"",""0.734"",""0.693""]","[1,1,0,1]",0,28,28,28,1,1,0,,,1,FALSE,,,,,,,,,,,,,,,,,,,,,,,,,,,,,,
,5f9f2149fd257e5401063293,001,2022-04-28_20h43.34.981,classification_task,2021.2.3,Win32,60.1612321,5f9f2149fd257e5401063293,626b377229c10585ec392f89,626b3ac2983213a57e6d5a72,,,,,,,,,,,,,,,,,,,,,,,l,1,5.4996,"[""0.734"",""0.367"",""0.538"",""0.693""]","[0,1,1,1]",0,29,29,29,1,1,0,,,1,FALSE,,,,,,,,,,,,,,,,,,,,,,,,,,,,,,
,5f9f2149fd257e5401063293,001,2022-04-28_20h43.34.981,classification_task,2021.2.3,Win32,60.1612321,5f9f2149fd257e5401063293,626b377229c10585ec392f89,626b3ac2983213a57e6d5a72,,,,,,,,,,,,,,,,,,,,,,,l,1,1.958,"[""0.026"",""0.150"",""0.583"",""0.279""]","[1,1,1,0]",0,30,30,30,1,1,1,,,1,FALSE,,,,,,,,,,,,,,,,,,,,,,,,,,,,,,
,5f9f2149fd257e5401063293,001,2022-04-28_20h43.34.981,classification_task,2021.2.3,Win32,60.1612321,5f9f2149fd257e5401063293,626b377229c10585ec392f89,626b3ac2983213a57e6d5a72,,,,,,,,,,,,,,,,,,,,,,,l,1,3.3946,"[""0.026"",""0.150"",""0.734"",""0.810""]","[1,1,0,1]",0,31,31,31,1,1,1,,,1,FALSE,,,,,,,,,,,,,,,,,,,,,,,,,,,,,,
,5f9f2149fd257e5401063293,001,2022-04-28_20h43.34.981,classification_task,2021.2.3,Win32,60.1612321,5f9f2149fd257e5401063293,626b377229c10585ec392f89,626b3ac2983213a57e6d5a72,,,,,,,,,,,,,,,,,,,,,,,a,0,4.8903,"[""0.319"",""0.367"",""0.538"",""0.693""]","[0,1,1,1]",0,32,32,32,1,1,0,,,1,FALSE,,,,,,,,,,,,,,,,,,,,,,,,,,,,,,
,5f9f2149fd257e5401063293,001,2022-04-28_20h43.34.981,classification_task,2021.2.3,Win32,60.1612321,5f9f2149fd257e5401063293,626b377229c10585ec392f89,626b3ac2983213a57e6d5a72,,,,,,,,,,,,,,,,,,,,,,,a,1,1.5945,"[""0.198"",""0.469"",""0.770"",""0.408""]","[1,1,1,0]",0,33,33,33,1,0,0,,,1,FALSE,,,,,,,,,,,,,,,,,,,,,,,,,,,,,,
,5f9f2149fd257e5401063293,001,2022-04-28_20h43.34.981,classification_task,2021.2.3,Win32,60.1612321,5f9f2149fd257e5401063293,626b377229c10585ec392f89,626b3ac2983213a57e6d5a72,,,,,,,,,,,,,,,,,,,,,,,a,1,5.0698,"[""0.234"",""0.503"",""0.632"",""0.291""]","[1,1,1,0]",0,34,34,34,1,0,1,,,1,FALSE,,,,,,,,,,,,,,,,,,,,,,,,,,,,,,
,5f9f2149fd257e5401063293,001,2022-04-28_20h43.34.981,classification_task,2021.2.3,Win32,60.1612321,5f9f2149fd257e5401063293,626b377229c10585ec392f89,626b3ac2983213a57e6d5a72,,,,,,,,,,,,,,,,,,,,,,,l,1,3.8342,"[""0.026"",""0.408"",""0.583"",""0.810""]","[1,0,1,1]",0,35,35,35,1,1,1,,,1,FALSE,,,,,,,,,,,,,,,,,,,,,,,,,,,,,,
,5f9f2149fd257e5401063293,001,2022-04-28_20h43.34.981,classification_task,2021.2.3,Win32,60.1612321,5f9f2149fd257e5401063293,626b377229c10585ec392f89,626b3ac2983213a57e6d5a72,,,,,,,,,,,,,,,,,,,,,,,a,0,4.7541,"[""0.087"",""0.367"",""0.538"",""0.319""]","[1,1,1,0]",0,36,36,36,1,1,0,,,1,FALSE,,,,,,,,,,,,,,,,,,,,,,,,,,,,,,
,5f9f2149fd257e5401063293,001,2022-04-28_20h43.34.981,classification_task,2021.2.3,Win32,60.1612321,5f9f2149fd257e5401063293,626b377229c10585ec392f89,626b3ac2983213a57e6d5a72,,,,,,,,,,,,,,,,,,,,,,,a,1,2.1486,"[""0.234"",""0.503"",""0.282"",""0.931""]","[1,1,0,1]",0,37,37,37,1,0,1,,,1,FALSE,,,,,,,,,,,,,,,,,,,,,,,,,,,,,,
,5f9f2149fd257e5401063293,001,2022-04-28_20h43.34.981,classification_task,2021.2.3,Win32,60.1612321,5f9f2149fd257e5401063293,626b377229c10585ec392f89,626b3ac2983213a57e6d5a72,,,,,,,,,,,,,,,,,,,,,,,a,1,2.5621,"[""0.734"",""0.469"",""0.770"",""0.864""]","[0,1,1,1]",0,38,38,38,1,0,0,,,1,FALSE,,,,,,,,,,,,,,,,,,,,,,,,,,,,,,
,5f9f2149fd257e5401063293,001,2022-04-28_20h43.34.981,classification_task,2021.2.3,Win32,60.1612321,5f9f2149fd257e5401063293,626b377229c10585ec392f89,626b3ac2983213a57e6d5a72,,,,,,,,,,,,,,,,,,,,,,,l,1,1.1995,"[""0.026"",""0.150"",""0.734"",""0.810""]","[1,1,0,1]",0,39,39,39,1,1,1,,,1,FALSE,,,,,,,,,,,,,,,,,,,,,,,,,,,,,,
,5f9f2149fd257e5401063293,001,2022-04-28_20h43.34.981,classification_task,2021.2.3,Win32,60.1612321,5f9f2149fd257e5401063293,626b377229c10585ec392f89,626b3ac2983213a57e6d5a72,,,,,,,,,,,,,,,,,,,,,,,a,1,1.9576,"[""0.198"",""0.328"",""0.770"",""0.864""]","[1,0,1,1]",0,40,40,40,1,0,0,,,1,FALSE,,,,,,,,,,,,,,,,,,,,,,,,,,,,,,
,5f9f2149fd257e5401063293,001,2022-04-28_20h43.34.981,classification_task,2021.2.3,Win32,60.1612321,5f9f2149fd257e5401063293,626b377229c10585ec392f89,626b3ac2983213a57e6d5a72,,,,,,,,,,,,,,,,,,,,,,,l,1,2.6704,"[""0.026"",""0.150"",""0.583"",""0.323""]","[1,1,1,0]",0,41,41,41,1,1,1,,,1,FALSE,,,,,,,,,,,,,,,,,,,,,,,,,,,,,,
,5f9f2149fd257e5401063293,001,2022-04-28_20h43.34.981,classification_task,2021.2.3,Win32,60.1612321,5f9f2149fd257e5401063293,626b377229c10585ec392f89,626b3ac2983213a57e6d5a72,,,,,,,,,,,,,,,,,,,,,,,a,1,1.2296,"[""0.198"",""0.469"",""0.306"",""0.864""]","[1,1,0,1]",0,42,42,42,1,0,0,,,1,FALSE,,,,,,,,,,,,,,,,,,,,,,,,,,,,,,
,5f9f2149fd257e5401063293,001,2022-04-28_20h43.34.981,classification_task,2021.2.3,Win32,60.1612321,5f9f2149fd257e5401063293,626b377229c10585ec392f89,626b3ac2983213a57e6d5a72,,,,,,,,,,,,,,,,,,,,,,,a,0,3.6688,"[""0.278"",""0.150"",""0.583"",""0.810""]","[0,1,1,1]",0,43,43,43,1,1,1,,,1,FALSE,,,,,,,,,,,,,,,,,,,,,,,,,,,,,,
,5f9f2149fd257e5401063293,001,2022-04-28_20h43.34.981,classification_task,2021.2.3,Win32,60.1612321,5f9f2149fd257e5401063293,626b377229c10585ec392f89,626b3ac2983213a57e6d5a72,,,,,,,,,,,,,,,,,,,,,,,a,0,4.069,"[""0.087"",""0.270"",""0.538"",""0.693""]","[1,0,1,1]",0,44,44,44,1,1,0,,,1,FALSE,,,,,,,,,,,,,,,,,,,,,,,,,,,,,,
,5f9f2149fd257e5401063293,001,2022-04-28_20h43.34.981,classification_task,2021.2.3,Win32,60.1612321,5f9f2149fd257e5401063293,626b377229c10585ec392f89,626b3ac2983213a57e6d5a72,,,,,,,,,,,,,,,,,,,,,,,a,1,2.2921,"[""0.234"",""0.328"",""0.632"",""0.931""]","[1,0,1,1]",0,45,45,45,1,0,1,,,1,FALSE,,,,,,,,,,,,,,,,,,,,,,,,,,,,,,
,5f9f2149fd257e5401063293,001,2022-04-28_20h43.34.981,classification_task,2021.2.3,Win32,60.1612321,5f9f2149fd257e5401063293,626b377229c10585ec392f89,626b3ac2983213a57e6d5a72,,,,,,,,,,,,,,,,,,,,,,,l,1,1.0157,"[""0.087"",""0.367"",""0.330"",""0.693""]","[1,1,0,1]",0,46,46,46,1,1,0,,,1,FALSE,,,,,,,,,,,,,,,,,,,,,,,,,,,,,,
,5f9f2149fd257e5401063293,001,2022-04-28_20h43.34.981,classification_task,2021.2.3,Win32,60.1612321,5f9f2149fd257e5401063293,626b377229c10585ec392f89,626b3ac2983213a57e6d5a72,,,,,,,,,,,,,,,,,,,,,,,a,1,1.9846,"[""0.409"",""0.503"",""0.632"",""0.931""]","[0,1,1,1]",0,47,47,47,1,0,1,,,1,FALSE,,,,,,,,,,,,,,,,,,,,,,,,,,,,,,
,5f9f2149fd257e5401063293,001,2022-04-28_20h43.34.981,classification_task,2021.2.3,Win32,60.1612321,5f9f2149fd257e5401063293,626b377229c10585ec392f89,626b3ac2983213a57e6d5a72,,,,,,,,,,,,,,,,,,,,,,,l,1,1.3495,"[""0.026"",""0.150"",""0.583"",""0.306""]","[1,1,1,0]",0,48,48,48,1,1,1,,,1,FALSE,,,,,,,,,,,,,,,,,,,,,,,,,,,,,,
,5f9f2149fd257e5401063293,001,2022-04-28_20h43.34.981,classification_task,2021.2.3,Win32,60.1612321,5f9f2149fd257e5401063293,626b377229c10585ec392f89,626b3ac2983213a57e6d5a72,,,,,,,,,,,,,,,,,,,,,,,l,1,1.0351,"[""0.026"",""0.150"",""0.279"",""0.810""]","[1,1,0,1]",0,49,49,49,1,1,1,,,1,FALSE,,,,,,,,,,,,,,,,,,,,,,,,,,,,,,
,5f9f2149fd257e5401063293,001,2022-04-28_20h43.34.981,classification_task,2021.2.3,Win32,60.1612321,5f9f2149fd257e5401063293,626b377229c10585ec392f89,626b3ac2983213a57e6d5a72,,,,,,,,,,,,,,,,,,,,,,,a,0,1.1337,"[""0.270"",""0.150"",""0.583"",""0.810""]","[0,1,1,1]",0,50,50,50,1,1,1,,,1,FALSE,,,,,,,,,,,,,,,,,,,,,,,,,,,,,,
,5f9f2149fd257e5401063293,001,2022-04-28_20h43.34.981,classification_task,2021.2.3,Win32,60.1612321,5f9f2149fd257e5401063293,626b377229c10585ec392f89,626b3ac2983213a57e6d5a72,,,,,,,,,,,,,,,,,,,,,,,a,0,3.0306,"[""0.319"",""0.367"",""0.538"",""0.693""]","[0,1,1,1]",0,51,51,51,1,1,0,,,1,FALSE,,,,,,,,,,,,,,,,,,,,,,,,,,,,,,
,5f9f2149fd257e5401063293,001,2022-04-28_20h43.34.981,classification_task,2021.2.3,Win32,60.1612321,5f9f2149fd257e5401063293,626b377229c10585ec392f89,626b3ac2983213a57e6d5a72,,,,,,,,,,,,,,,,,,,,,,,a,1,2.0409,"[""0.234"",""0.503"",""0.408"",""0.931""]","[1,1,0,1]",0,52,52,52,1,0,1,,,1,FALSE,,,,,,,,,,,,,,,,,,,,,,,,,,,,,,
,5f9f2149fd257e5401063293,001,2022-04-28_20h43.34.981,classification_task,2021.2.3,Win32,60.1612321,5f9f2149fd257e5401063293,626b377229c10585ec392f89,626b3ac2983213a57e6d5a72,,,,,,,,,,,,,,,,,,,,,,,l,1,2.2464,"[""0.087"",""0.367"",""0.284"",""0.693""]","[1,1,0,1]",0,53,53,53,1,1,0,,,1,FALSE,,,,,,,,,,,,,,,,,,,,,,,,,,,,,,
,5f9f2149fd257e5401063293,001,2022-04-28_20h43.34.981,classification_task,2021.2.3,Win32,60.1612321,5f9f2149fd257e5401063293,626b377229c10585ec392f89,626b3ac2983213a57e6d5a72,,,,,,,,,,,,,,,,,,,,,,,a,1,3.569,"[""0.198"",""0.469"",""0.770"",""0.736""]","[1,1,1,0]",0,54,54,54,1,0,0,,,1,FALSE,,,,,,,,,,,,,,,,,,,,,,,,,,,,,,
,5f9f2149fd257e5401063293,001,2022-04-28_20h43.34.981,classification_task,2021.2.3,Win32,60.1612321,5f9f2149fd257e5401063293,626b377229c10585ec392f89,626b3ac2983213a57e6d5a72,,,,,,,,,,,,,,,,,,,,,,,a,1,3.2418,"[""0.234"",""0.503"",""0.632"",""0.408""]","[1,1,1,0]",0,55,55,55,1,0,1,,,1,FALSE,,,,,,,,,,,,,,,,,,,,,,,,,,,,,,
,5f9f2149fd257e5401063293,001,2022-04-28_20h43.34.981,classification_task,2021.2.3,Win32,60.1612321,5f9f2149fd257e5401063293,626b377229c10585ec392f89,626b3ac2983213a57e6d5a72,,,,,,,,,,,,,,,,,,,,,,,a,1,1.9118,"[""0.198"",""0.408"",""0.770"",""0.864""]","[1,0,1,1]",0,56,56,56,1,0,0,,,1,FALSE,,,,,,,,,,,,,,,,,,,,,,,,,,,,,,
,5f9f2149fd257e5401063293,001,2022-04-28_20h43.34.981,classification_task,2021.2.3,Win32,60.1612321,5f9f2149fd257e5401063293,626b377229c10585ec392f89,626b3ac2983213a57e6d5a72,,,,,,,,,,,,,,,,,,,,,,,l,1,4.5619,"[""0.087"",""0.328"",""0.538"",""0.693""]","[1,0,1,1]",0,57,57,57,1,1,0,,,1,FALSE,,,,,,,,,,,,,,,,,,,,,,,,,,,,,,
,5f9f2149fd257e5401063293,001,2022-04-28_20h43.34.981,classification_task,2021.2.3,Win32,60.1612321,5f9f2149fd257e5401063293,626b377229c10585ec392f89,626b3ac2983213a57e6d5a72,,,,,,,,,,,,,,,,,,,,,,,l,1,1.3571,"[""0.026"",""0.409"",""0.583"",""0.810""]","[1,0,1,1]",0,58,58,58,1,1,1,,,1,FALSE,,,,,,,,,,,,,,,,,,,,,,,,,,,,,,
,5f9f2149fd257e5401063293,001,2022-04-28_20h43.34.981,classification_task,2021.2.3,Win32,60.1612321,5f9f2149fd257e5401063293,626b377229c10585ec392f89,626b3ac2983213a57e6d5a72,,,,,,,,,,,,,,,,,,,,,,,a,1,2.8214,"[""0.234"",""0.319"",""0.632"",""0.931""]","[1,0,1,1]",0,59,59,59,1,0,1,,,1,FALSE,,,,,,,,,,,,,,,,,,,,,,,,,,,,,,
,5f9f2149fd257e5401063293,001,2022-04-28_20h43.34.981,classification_task,2021.2.3,Win32,60.1612321,5f9f2149fd257e5401063293,626b377229c10585ec392f89,626b3ac2983213a57e6d5a72,,,,,,,,,,,,,,,,,,,,,,,a,1,2.535,"[""0.270"",""0.469"",""0.770"",""0.864""]","[0,1,1,1]",0,60,60,60,1,0,0,,,1,FALSE,,,,,,,,,,,,,,,,,,,,,,,,,,,,,,
,5f9f2149fd257e5401063293,001,2022-04-28_20h43.34.981,classification_task,2021.2.3,Win32,60.1612321,5f9f2149fd257e5401063293,626b377229c10585ec392f89,626b3ac2983213a57e6d5a72,,,,,,,,,,,,,,,,,,,,,,,a,1,1.5148,"[""0.282"",""0.503"",""0.632"",""0.931""]","[0,1,1,1]",0,61,61,61,1,0,1,,,1,FALSE,,,,,,,,,,,,,,,,,,,,,,,,,,,,,,
,5f9f2149fd257e5401063293,001,2022-04-28_20h43.34.981,classification_task,2021.2.3,Win32,60.1612321,5f9f2149fd257e5401063293,626b377229c10585ec392f89,626b3ac2983213a57e6d5a72,,,,,,,,,,,,,,,,,,,,,,,a,1,0.9595,"[""0.198"",""0.469"",""0.332"",""0.864""]","[1,1,0,1]",0,62,62,62,1,0,0,,,1,FALSE,,,,,,,,,,,,,,,,,,,,,,,,,,,,,,
,5f9f2149fd257e5401063293,001,2022-04-28_20h43.34.981,classification_task,2021.2.3,Win32,60.1612321,5f9f2149fd257e5401063293,626b377229c10585ec392f89,626b3ac2983213a57e6d5a72,,,,,,,,,,,,,,,,,,,,,,,l,1,0.6614,"[""0.087"",""0.367"",""0.538"",""0.332""]","[1,1,1,0]",0,63,63,63,1,1,0,,,1,FALSE,,,,,,,,,,,,,,,,,,,,,,,,,,,,,,
,5f9f2149fd257e5401063293,001,2022-04-28_20h43.34.981,classification_task,2021.2.3,Win32,60.1612321,5f9f2149fd257e5401063293,626b377229c10585ec392f89,626b3ac2983213a57e6d5a72,,,,,,,,,,,,,,,,,,,,,,,,,,,,,,,,,,,,,,,0, ,,0,3.799725652,588.9696,0,0,0,0,1,2,1,,,,,,,,,,,,,,,,,
,5f9f2149fd257e5401063293,001,2022-04-28_20h43.34.981,classification_task,2021.2.3,Win32,60.1612321,5f9f2149fd257e5401063293,626b377229c10585ec392f89,626b3ac2983213a57e6d5a72,,,,,,,,,,,,,,,,,,,,,,,,,,,,,,,,,,,,,,,1,  ,,0,9.433666471,558.3035,0,0,0,0,1,2,1,,,,,,,,,,,,,,,,,
,5f9f2149fd257e5401063293,001,2022-04-28_20h43.34.981,classification_task,2021.2.3,Win32,60.1612321,5f9f2149fd257e5401063293,626b377229c10585ec392f89,626b3ac2983213a57e6d5a72,,,,,,,,,,,,,,,,,,,,,,,,,,,,,,,,,,,,,,,2,  ,,0,8.404859886,606.7963,0,0,0,0,1,2,1,,,,,,,,,,,,,,,,,
,5f9f2149fd257e5401063293,001,2022-04-28_20h43.34.981,classification_task,2021.2.3,Win32,60.1612321,5f9f2149fd257e5401063293,626b377229c10585ec392f89,626b3ac2983213a57e6d5a72,,,,,,,,,,,,,,,,,,,,,,,,,,,,,,,,,,,,,,,,,,,,,0,0,0,0,1,,1,,,,,,,,,,,,,,,,,
,5f9f2149fd257e5401063293,001,2022-04-28_20h43.34.981,classification_task,2021.2.3,Win32,60.1612321,5f9f2149fd257e5401063293,626b377229c10585ec392f89,626b3ac2983213a57e6d5a72,,,,,,,,,,,,,,,,,,,,,space,19.8341,a,1,3.5241,"[""0.198"",""0.306"",""0.770"",""0.864""]","[1,0,1,1]",0,0,0,0,1,0,0,,,1,FALSE,,,,,,,,,,,,,,,,,,,,,,,,,,,,,,
,5f9f2149fd257e5401063293,001,2022-04-28_20h43.34.981,classification_task,2021.2.3,Win32,60.1612321,5f9f2149fd257e5401063293,626b377229c10585ec392f89,626b3ac2983213a57e6d5a72,,,,,,,,,,,,,,,,,,,,,,,a,1,5.5805,"[""0.734"",""0.469"",""0.770"",""0.864""]","[0,1,1,1]",0,1,1,1,1,0,0,,,1,FALSE,,,,,,,,,,,,,,,,,,,,,,,,,,,,,,
,5f9f2149fd257e5401063293,001,2022-04-28_20h43.34.981,classification_task,2021.2.3,Win32,60.1612321,5f9f2149fd257e5401063293,626b377229c10585ec392f89,626b3ac2983213a57e6d5a72,,,,,,,,,,,,,,,,,,,,,,,a,1,4.6755,"[""0.234"",""0.503"",""0.270"",""0.931""]","[1,1,0,1]",0,2,2,2,1,0,1,,,1,FALSE,,,,,,,,,,,,,,,,,,,,,,,,,,,,,,
,5f9f2149fd257e5401063293,001,2022-04-28_20h43.34.981,classification_task,2021.2.3,Win32,60.1612321,5f9f2149fd257e5401063293,626b377229c10585ec392f89,626b3ac2983213a57e6d5a72,,,,,,,,,,,,,,,,,,,,,,,a,0,4.5753,"[""0.319"",""0.150"",""0.583"",""0.810""]","[0,1,1,1]",0,3,3,3,1,1,1,,,1,FALSE,,,,,,,,,,,,,,,,,,,,,,,,,,,,,,
,5f9f2149fd257e5401063293,001,2022-04-28_20h43.34.981,classification_task,2021.2.3,Win32,60.1612321,5f9f2149fd257e5401063293,626b377229c10585ec392f89,626b3ac2983213a57e6d5a72,,,,,,,,,,,,,,,,,,,,,,,l,1,3.1407,"[""0.026"",""0.150"",""0.306"",""0.810""]","[1,1,0,1]",0,4,4,4,1,1,1,,,1,FALSE,,,,,,,,,,,,,,,,,,,,,,,,,,,,,,
,5f9f2149fd257e5401063293,001,2022-04-28_20h43.34.981,classification_task,2021.2.3,Win32,60.1612321,5f9f2149fd257e5401063293,626b377229c10585ec392f89,626b3ac2983213a57e6d5a72,,,,,,,,,,,,,,,,,,,,,,,a,1,2.6919,"[""0.736"",""0.503"",""0.632"",""0.931""]","[0,1,1,1]",0,5,5,5,1,0,1,,,1,FALSE,,,,,,,,,,,,,,,,,,,,,,,,,,,,,,
,5f9f2149fd257e5401063293,001,2022-04-28_20h43.34.981,classification_task,2021.2.3,Win32,60.1612321,5f9f2149fd257e5401063293,626b377229c10585ec392f89,626b3ac2983213a57e6d5a72,,,,,,,,,,,,,,,,,,,,,,,a,0,3.3977,"[""0.306"",""0.367"",""0.538"",""0.693""]","[0,1,1,1]",0,6,6,6,1,1,0,,,1,FALSE,,,,,,,,,,,,,,,,,,,,,,,,,,,,,,
,5f9f2149fd257e5401063293,001,2022-04-28_20h43.34.981,classification_task,2021.2.3,Win32,60.1612321,5f9f2149fd257e5401063293,626b377229c10585ec392f89,626b3ac2983213a57e6d5a72,,,,,,,,,,,,,,,,,,,,,,,l,1,3.3279,"[""0.087"",""0.367"",""0.306"",""0.693""]","[1,1,0,1]",0,7,7,7,1,1,0,,,1,FALSE,,,,,,,,,,,,,,,,,,,,,,,,,,,,,,
,5f9f2149fd257e5401063293,001,2022-04-28_20h43.34.981,classification_task,2021.2.3,Win32,60.1612321,5f9f2149fd257e5401063293,626b377229c10585ec392f89,626b3ac2983213a57e6d5a72,,,,,,,,,,,,,,,,,,,,,,,l,1,2.0693,"[""0.087"",""0.367"",""0.538"",""0.284""]","[1,1,1,0]",0,8,8,8,1,1,0,,,1,FALSE,,,,,,,,,,,,,,,,,,,,,,,,,,,,,,
,5f9f2149fd257e5401063293,001,2022-04-28_20h43.34.981,classification_task,2021.2.3,Win32,60.1612321,5f9f2149fd257e5401063293,626b377229c10585ec392f89,626b3ac2983213a57e6d5a72,,,,,,,,,,,,,,,,,,,,,,,l,1,5.6584,"[""0.026"",""0.150"",""0.583"",""0.279""]","[1,1,1,0]",0,9,9,9,1,1,1,,,1,FALSE,,,,,,,,,,,,,,,,,,,,,,,,,,,,,,
,5f9f2149fd257e5401063293,001,2022-04-28_20h43.34.981,classification_task,2021.2.3,Win32,60.1612321,5f9f2149fd257e5401063293,626b377229c10585ec392f89,626b3ac2983213a57e6d5a72,,,,,,,,,,,,,,,,,,,,,,,l,1,2.6262,"[""0.087"",""0.306"",""0.538"",""0.693""]","[1,0,1,1]",0,10,10,10,1,1,0,,,1,FALSE,,,,,,,,,,,,,,,,,,,,,,,,,,,,,,
,5f9f2149fd257e5401063293,001,2022-04-28_20h43.34.981,classification_task,2021.2.3,Win32,60.1612321,5f9f2149fd257e5401063293,626b377229c10585ec392f89,626b3ac2983213a57e6d5a72,,,,,,,,,,,,,,,,,,,,,,,l,1,4.057,"[""0.026"",""0.306"",""0.583"",""0.810""]","[1,0,1,1]",0,11,11,11,1,1,1,,,1,FALSE,,,,,,,,,,,,,,,,,,,,,,,,,,,,,,
,5f9f2149fd257e5401063293,001,2022-04-28_20h43.34.981,classification_task,2021.2.3,Win32,60.1612321,5f9f2149fd257e5401063293,626b377229c10585ec392f89,626b3ac2983213a57e6d5a72,,,,,,,,,,,,,,,,,,,,,,,a,1,4.6604,"[""0.234"",""0.330"",""0.632"",""0.931""]","[1,0,1,1]",0,12,12,12,1,0,1,,,1,FALSE,,,,,,,,,,,,,,,,,,,,,,,,,,,,,,
,5f9f2149fd257e5401063293,001,2022-04-28_20h43.34.981,classification_task,2021.2.3,Win32,60.1612321,5f9f2149fd257e5401063293,626b377229c10585ec392f89,626b3ac2983213a57e6d5a72,,,,,,,,,,,,,,,,,,,,,,,a,1,4.7871,"[""0.198"",""0.469"",""0.291"",""0.864""]","[1,1,0,1]",0,13,13,13,1,0,0,,,1,FALSE,,,,,,,,,,,,,,,,,,,,,,,,,,,,,,
,5f9f2149fd257e5401063293,001,2022-04-28_20h43.34.981,classification_task,2021.2.3,Win32,60.1612321,5f9f2149fd257e5401063293,626b377229c10585ec392f89,626b3ac2983213a57e6d5a72,,,,,,,,,,,,,,,,,,,,,,,a,1,1.3655,"[""0.198"",""0.469"",""0.770"",""0.279""]","[1,1,1,0]",0,14,14,14,1,0,0,,,1,FALSE,,,,,,,,,,,,,,,,,,,,,,,,,,,,,,
,5f9f2149fd257e5401063293,001,2022-04-28_20h43.34.981,classification_task,2021.2.3,Win32,60.1612321,5f9f2149fd257e5401063293,626b377229c10585ec392f89,626b3ac2983213a57e6d5a72,,,,,,,,,,,,,,,,,,,,,,,a,1,2.9166,"[""0.234"",""0.503"",""0.632"",""0.330""]","[1,1,1,0]",0,15,15,15,1,0,1,,,1,FALSE,,,,,,,,,,,,,,,,,,,,,,,,,,,,,,
,5f9f2149fd257e5401063293,001,2022-04-28_20h43.34.981,classification_task,2021.2.3,Win32,60.1612321,5f9f2149fd257e5401063293,626b377229c10585ec392f89,626b3ac2983213a57e6d5a72,,,,,,,,,,,,,,,,,,,,,,,l,1,1.4045,"[""0.087"",""0.367"",""0.291"",""0.693""]","[1,1,0,1]",0,16,16,16,1,1,0,,,1,FALSE,,,,,,,,,,,,,,,,,,,,,,,,,,,,,,
,5f9f2149fd257e5401063293,001,2022-04-28_20h43.34.981,classification_task,2021.2.3,Win32,60.1612321,5f9f2149fd257e5401063293,626b377229c10585ec392f89,626b3ac2983213a57e6d5a72,,,,,,,,,,,,,,,,,,,,,,,a,1,2.1169,"[""0.234"",""0.503"",""0.323"",""0.931""]","[1,1,0,1]",0,17,17,17,1,0,1,,,1,FALSE,,,,,,,,,,,,,,,,,,,,,,,,,,,,,,
,5f9f2149fd257e5401063293,001,2022-04-28_20h43.34.981,classification_task,2021.2.3,Win32,60.1612321,5f9f2149fd257e5401063293,626b377229c10585ec392f89,626b3ac2983213a57e6d5a72,,,,,,,,,,,,,,,,,,,,,,,a,1,2.2005,"[""0.332"",""0.503"",""0.632"",""0.931""]","[0,1,1,1]",0,18,18,18,1,0,1,,,1,FALSE,,,,,,,,,,,,,,,,,,,,,,,,,,,,,,
,5f9f2149fd257e5401063293,001,2022-04-28_20h43.34.981,classification_task,2021.2.3,Win32,60.1612321,5f9f2149fd257e5401063293,626b377229c10585ec392f89,626b3ac2983213a57e6d5a72,,,,,,,,,,,,,,,,,,,,,,,a,1,1.5498,"[""0.198"",""0.469"",""0.734"",""0.864""]","[1,1,0,1]",0,19,19,19,1,0,0,,,1,FALSE,,,,,,,,,,,,,,,,,,,,,,,,,,,,,,
,5f9f2149fd257e5401063293,001,2022-04-28_20h43.34.981,classification_task,2021.2.3,Win32,60.1612321,5f9f2149fd257e5401063293,626b377229c10585ec392f89,626b3ac2983213a57e6d5a72,,,,,,,,,,,,,,,,,,,,,,,a,0,1.1117,"[""0.328"",""0.150"",""0.583"",""0.810""]","[0,1,1,1]",0,20,20,20,1,1,1,,,1,FALSE,,,,,,,,,,,,,,,,,,,,,,,,,,,,,,
,5f9f2149fd257e5401063293,001,2022-04-28_20h43.34.981,classification_task,2021.2.3,Win32,60.1612321,5f9f2149fd257e5401063293,626b377229c10585ec392f89,626b3ac2983213a57e6d5a72,,,,,,,,,,,,,,,,,,,,,,,a,1,5.5334,"[""0.234"",""0.734"",""0.632"",""0.931""]","[1,0,1,1]",0,21,21,21,1,0,1,,,1,FALSE,,,,,,,,,,,,,,,,,,,,,,,,,,,,,,
,5f9f2149fd257e5401063293,001,2022-04-28_20h43.34.981,classification_task,2021.2.3,Win32,60.1612321,5f9f2149fd257e5401063293,626b377229c10585ec392f89,626b3ac2983213a57e6d5a72,,,,,,,,,,,,,,,,,,,,,,,l,0,2.1836,"[""0.279"",""0.469"",""0.770"",""0.864""]","[0,1,1,1]",0,22,22,22,1,0,0,,,1,FALSE,,,,,,,,,,,,,,,,,,,,,,,,,,,,,,
,5f9f2149fd257e5401063293,001,2022-04-28_20h43.34.981,classification_task,2021.2.3,Win32,60.1612321,5f9f2149fd257e5401063293,626b377229c10585ec392f89,626b3ac2983213a57e6d5a72,,,,,,,,,,,,,,,,,,,,,,,l,0,2.1597,"[""0.198"",""0.469"",""0.770"",""0.279""]","[1,1,1,0]",0,23,23,23,1,0,0,,,1,FALSE,,,,,,,,,,,,,,,,,,,,,,,,,,,,,,
,5f9f2149fd257e5401063293,001,2022-04-28_20h43.34.981,classification_task,2021.2.3,Win32,60.1612321,5f9f2149fd257e5401063293,626b377229c10585ec392f89,626b3ac2983213a57e6d5a72,,,,,,,,,,,,,,,,,,,,,,,a,0,4.067,"[""0.409"",""0.367"",""0.538"",""0.693""]","[0,1,1,1]",0,24,24,24,1,1,0,,,1,FALSE,,,,,,,,,,,,,,,,,,,,,,,,,,,,,,
,5f9f2149fd257e5401063293,001,2022-04-28_20h43.34.981,classification_task,2021.2.3,Win32,60.1612321,5f9f2149fd257e5401063293,626b377229c10585ec392f89,626b3ac2983213a57e6d5a72,,,,,,,,,,,,,,,,,,,,,,,l,1,1.2936,"[""0.087"",""0.367"",""0.538"",""0.330""]","[1,1,1,0]",0,25,25,25,1,1,0,,,1,FALSE,,,,,,,,,,,,,,,,,,,,,,,,,,,,,,
,5f9f2149fd257e5401063293,001,2022-04-28_20h43.34.981,classification_task,2021.2.3,Win32,60.1612321,5f9f2149fd257e5401063293,626b377229c10585ec392f89,626b3ac2983213a57e6d5a72,,,,,,,,,,,,,,,,,,,,,,,a,1,3.1505,"[""0.198"",""0.736"",""0.770"",""0.864""]","[1,0,1,1]",0,26,26,26,1,0,0,,,1,FALSE,,,,,,,,,,,,,,,,,,,,,,,,,,,,,,
,5f9f2149fd257e5401063293,001,2022-04-28_20h43.34.981,classification_task,2021.2.3,Win32,60.1612321,5f9f2149fd257e5401063293,626b377229c10585ec392f89,626b3ac2983213a57e6d5a72,,,,,,,,,,,,,,,,,,,,,,,l,1,4.0073,"[""0.026"",""0.291"",""0.583"",""0.810""]","[1,0,1,1]",0,27,27,27,1,1,1,,,1,FALSE,,,,,,,,,,,,,,,,,,,,,,,,,,,,,,
,5f9f2149fd257e5401063293,001,2022-04-28_20h43.34.981,classification_task,2021.2.3,Win32,60.1612321,5f9f2149fd257e5401063293,626b377229c10585ec392f89,626b3ac2983213a57e6d5a72,,,,,,,,,,,,,,,,,,,,,,,l,1,2.1426,"[""0.026"",""0.150"",""0.583"",""0.284""]","[1,1,1,0]",0,28,28,28,1,1,1,,,1,FALSE,,,,,,,,,,,,,,,,,,,,,,,,,,,,,,
,5f9f2149fd257e5401063293,001,2022-04-28_20h43.34.981,classification_task,2021.2.3,Win32,60.1612321,5f9f2149fd257e5401063293,626b377229c10585ec392f89,626b3ac2983213a57e6d5a72,,,,,,,,,,,,,,,,,,,,,,,l,1,3.5344,"[""0.087"",""0.270"",""0.538"",""0.693""]","[1,0,1,1]",0,29,29,29,1,1,0,,,1,FALSE,,,,,,,,,,,,,,,,,,,,,,,,,,,,,,
,5f9f2149fd257e5401063293,001,2022-04-28_20h43.34.981,classification_task,2021.2.3,Win32,60.1612321,5f9f2149fd257e5401063293,626b377229c10585ec392f89,626b3ac2983213a57e6d5a72,,,,,,,,,,,,,,,,,,,,,,,a,1,2.6211,"[""0.234"",""0.503"",""0.632"",""0.332""]","[1,1,1,0]",0,30,30,30,1,0,1,,,1,FALSE,,,,,,,,,,,,,,,,,,,,,,,,,,,,,,
,5f9f2149fd257e5401063293,001,2022-04-28_20h43.34.981,classification_task,2021.2.3,Win32,60.1612321,5f9f2149fd257e5401063293,626b377229c10585ec392f89,626b3ac2983213a57e6d5a72,,,,,,,,,,,,,,,,,,,,,,,l,1,1.8835,"[""0.026"",""0.150"",""0.270"",""0.810""]","[1,1,0,1]",0,31,31,31,1,1,1,,,1,FALSE,,,,,,,,,,,,,,,,,,,,,,,,,,,,,,
,5f9f2149fd257e5401063293,001,2022-04-28_20h43.34.981,classification_task,2021.2.3,Win32,60.1612321,5f9f2149fd257e5401063293,626b377229c10585ec392f89,626b3ac2983213a57e6d5a72,,,,,,,,,,,,,,,,,,,,,,,l,1,1.8837,"[""0.026"",""0.150"",""0.583"",""0.291""]","[1,1,1,0]",0,32,32,32,1,1,1,,,1,FALSE,,,,,,,,,,,,,,,,,,,,,,,,,,,,,,
,5f9f2149fd257e5401063293,001,2022-04-28_20h43.34.981,classification_task,2021.2.3,Win32,60.1612321,5f9f2149fd257e5401063293,626b377229c10585ec392f89,626b3ac2983213a57e6d5a72,,,,,,,,,,,,,,,,,,,,,,,l,0,1.8502,"[""0.234"",""0.279"",""0.632"",""0.931""]","[1,0,1,1]",0,33,33,33,1,0,1,,,1,FALSE,,,,,,,,,,,,,,,,,,,,,,,,,,,,,,
,5f9f2149fd257e5401063293,001,2022-04-28_20h43.34.981,classification_task,2021.2.3,Win32,60.1612321,5f9f2149fd257e5401063293,626b377229c10585ec392f89,626b3ac2983213a57e6d5a72,,,,,,,,,,,,,,,,,,,,,,,a,0,3.7172,"[""0.306"",""0.150"",""0.583"",""0.810""]","[0,1,1,1]",0,34,34,34,1,1,1,,,1,FALSE,,,,,,,,,,,,,,,,,,,,,,,,,,,,,,
,5f9f2149fd257e5401063293,001,2022-04-28_20h43.34.981,classification_task,2021.2.3,Win32,60.1612321,5f9f2149fd257e5401063293,626b377229c10585ec392f89,626b3ac2983213a57e6d5a72,,,,,,,,,,,,,,,,,,,,,,,a,1,1.9215,"[""0.198"",""0.469"",""0.284"",""0.864""]","[1,1,0,1]",0,35,35,35,1,0,0,,,1,FALSE,,,,,,,,,,,,,,,,,,,,,,,,,,,,,,
,5f9f2149fd257e5401063293,001,2022-04-28_20h43.34.981,classification_task,2021.2.3,Win32,60.1612321,5f9f2149fd257e5401063293,626b377229c10585ec392f89,626b3ac2983213a57e6d5a72,,,,,,,,,,,,,,,,,,,,,,,l,1,1.6164,"[""0.087"",""0.367"",""0.408"",""0.693""]","[1,1,0,1]",0,36,36,36,1,1,0,,,1,FALSE,,,,,,,,,,,,,,,,,,,,,,,,,,,,,,
,5f9f2149fd257e5401063293,001,2022-04-28_20h43.34.981,classification_task,2021.2.3,Win32,60.1612321,5f9f2149fd257e5401063293,626b377229c10585ec392f89,626b3ac2983213a57e6d5a72,,,,,,,,,,,,,,,,,,,,,,,l,1,1.617,"[""0.087"",""0.408"",""0.538"",""0.693""]","[1,0,1,1]",0,37,37,37,1,1,0,,,1,FALSE,,,,,,,,,,,,,,,,,,,,,,,,,,,,,,
,5f9f2149fd257e5401063293,001,2022-04-28_20h43.34.981,classification_task,2021.2.3,Win32,60.1612321,5f9f2149fd257e5401063293,626b377229c10585ec392f89,626b3ac2983213a57e6d5a72,,,,,,,,,,,,,,,,,,,,,,,a,1,2.2669,"[""0.198"",""0.284"",""0.770"",""0.864""]","[1,0,1,1]",0,38,38,38,1,0,0,,,1,FALSE,,,,,,,,,,,,,,,,,,,,,,,,,,,,,,
,5f9f2149fd257e5401063293,001,2022-04-28_20h43.34.981,classification_task,2021.2.3,Win32,60.1612321,5f9f2149fd257e5401063293,626b377229c10585ec392f89,626b3ac2983213a57e6d5a72,,,,,,,,,,,,,,,,,,,,,,,a,1,4.2499,"[""0.291"",""0.503"",""0.632"",""0.931""]","[0,1,1,1]",0,39,39,39,1,0,1,,,1,FALSE,,,,,,,,,,,,,,,,,,,,,,,,,,,,,,
,5f9f2149fd257e5401063293,001,2022-04-28_20h43.34.981,classification_task,2021.2.3,Win32,60.1612321,5f9f2149fd257e5401063293,626b377229c10585ec392f89,626b3ac2983213a57e6d5a72,,,,,,,,,,,,,,,,,,,,,,,l,1,3.0664,"[""0.026"",""0.150"",""0.282"",""0.810""]","[1,1,0,1]",0,40,40,40,1,1,1,,,1,FALSE,,,,,,,,,,,,,,,,,,,,,,,,,,,,,,
,5f9f2149fd257e5401063293,001,2022-04-28_20h43.34.981,classification_task,2021.2.3,Win32,60.1612321,5f9f2149fd257e5401063293,626b377229c10585ec392f89,626b3ac2983213a57e6d5a72,,,,,,,,,,,,,,,,,,,,,,,a,0,3.3505,"[""0.284"",""0.367"",""0.538"",""0.693""]","[0,1,1,1]",0,41,41,41,1,1,0,,,1,FALSE,,,,,,,,,,,,,,,,,,,,,,,,,,,,,,
,5f9f2149fd257e5401063293,001,2022-04-28_20h43.34.981,classification_task,2021.2.3,Win32,60.1612321,5f9f2149fd257e5401063293,626b377229c10585ec392f89,626b3ac2983213a57e6d5a72,,,,,,,,,,,,,,,,,,,,,,,a,0,4.9251,"[""0.026"",""0.736"",""0.583"",""0.810""]","[1,0,1,1]",0,42,42,42,1,1,1,,,1,FALSE,,,,,,,,,,,,,,,,,,,,,,,,,,,,,,
,5f9f2149fd257e5401063293,001,2022-04-28_20h43.34.981,classification_task,2021.2.3,Win32,60.1612321,5f9f2149fd257e5401063293,626b377229c10585ec392f89,626b3ac2983213a57e6d5a72,,,,,,,,,,,,,,,,,,,,,,,a,1,2.8511,"[""0.284"",""0.469"",""0.770"",""0.864""]","[0,1,1,1]",0,43,43,43,1,0,0,,,1,FALSE,,,,,,,,,,,,,,,,,,,,,,,,,,,,,,
,5f9f2149fd257e5401063293,001,2022-04-28_20h43.34.981,classification_task,2021.2.3,Win32,60.1612321,5f9f2149fd257e5401063293,626b377229c10585ec392f89,626b3ac2983213a57e6d5a72,,,,,,,,,,,,,,,,,,,,,,,a,1,1.5939,"[""0.198"",""0.469"",""0.770"",""0.306""]","[1,1,1,0]",0,44,44,44,1,0,0,,,1,FALSE,,,,,,,,,,,,,,,,,,,,,,,,,,,,,,
,5f9f2149fd257e5401063293,001,2022-04-28_20h43.34.981,classification_task,2021.2.3,Win32,60.1612321,5f9f2149fd257e5401063293,626b377229c10585ec392f89,626b3ac2983213a57e6d5a72,,,,,,,,,,,,,,,,,,,,,,,a,1,6.1839,"[""0.234"",""0.503"",""0.734"",""0.931""]","[1,1,0,1]",0,45,45,45,1,0,1,,,1,FALSE,,,,,,,,,,,,,,,,,,,,,,,,,,,,,,
,5f9f2149fd257e5401063293,001,2022-04-28_20h43.34.981,classification_task,2021.2.3,Win32,60.1612321,5f9f2149fd257e5401063293,626b377229c10585ec392f89,626b3ac2983213a57e6d5a72,,,,,,,,,,,,,,,,,,,,,,,a,1,3.6214,"[""0.234"",""0.503"",""0.632"",""0.330""]","[1,1,1,0]",0,46,46,46,1,0,1,,,1,FALSE,,,,,,,,,,,,,,,,,,,,,,,,,,,,,,
,5f9f2149fd257e5401063293,001,2022-04-28_20h43.34.981,classification_task,2021.2.3,Win32,60.1612321,5f9f2149fd257e5401063293,626b377229c10585ec392f89,626b3ac2983213a57e6d5a72,,,,,,,,,,,,,,,,,,,,,,,l,1,1.3304,"[""0.087"",""0.367"",""0.538"",""0.319""]","[1,1,1,0]",0,47,47,47,1,1,0,,,1,FALSE,,,,,,,,,,,,,,,,,,,,,,,,,,,,,,
,5f9f2149fd257e5401063293,001,2022-04-28_20h43.34.981,classification_task,2021.2.3,Win32,60.1612321,5f9f2149fd257e5401063293,626b377229c10585ec392f89,626b3ac2983213a57e6d5a72,,,,,,,,,,,,,,,,,,,,,,,l,1,2.3588,"[""0.087"",""0.367"",""0.330"",""0.693""]","[1,1,0,1]",0,48,48,48,1,1,0,,,1,FALSE,,,,,,,,,,,,,,,,,,,,,,,,,,,,,,
,5f9f2149fd257e5401063293,001,2022-04-28_20h43.34.981,classification_task,2021.2.3,Win32,60.1612321,5f9f2149fd257e5401063293,626b377229c10585ec392f89,626b3ac2983213a57e6d5a72,,,,,,,,,,,,,,,,,,,,,,,l,1,3.1453,"[""0.026"",""0.284"",""0.583"",""0.810""]","[1,0,1,1]",0,49,49,49,1,1,1,,,1,FALSE,,,,,,,,,,,,,,,,,,,,,,,,,,,,,,
,5f9f2149fd257e5401063293,001,2022-04-28_20h43.34.981,classification_task,2021.2.3,Win32,60.1612321,5f9f2149fd257e5401063293,626b377229c10585ec392f89,626b3ac2983213a57e6d5a72,,,,,,,,,,,,,,,,,,,,,,,a,0,2.0927,"[""0.284"",""0.150"",""0.583"",""0.810""]","[0,1,1,1]",0,50,50,50,1,1,1,,,1,FALSE,,,,,,,,,,,,,,,,,,,,,,,,,,,,,,
,5f9f2149fd257e5401063293,001,2022-04-28_20h43.34.981,classification_task,2021.2.3,Win32,60.1612321,5f9f2149fd257e5401063293,626b377229c10585ec392f89,626b3ac2983213a57e6d5a72,,,,,,,,,,,,,,,,,,,,,,,a,1,1.6534,"[""0.734"",""0.469"",""0.770"",""0.864""]","[0,1,1,1]",0,51,51,51,1,0,0,,,1,FALSE,,,,,,,,,,,,,,,,,,,,,,,,,,,,,,
,5f9f2149fd257e5401063293,001,2022-04-28_20h43.34.981,classification_task,2021.2.3,Win32,60.1612321,5f9f2149fd257e5401063293,626b377229c10585ec392f89,626b3ac2983213a57e6d5a72,,,,,,,,,,,,,,,,,,,,,,,a,1,3.0338,"[""0.234"",""0.503"",""0.632"",""0.330""]","[1,1,1,0]",0,52,52,52,1,0,1,,,1,FALSE,,,,,,,,,,,,,,,,,,,,,,,,,,,,,,
,5f9f2149fd257e5401063293,001,2022-04-28_20h43.34.981,classification_task,2021.2.3,Win32,60.1612321,5f9f2149fd257e5401063293,626b377229c10585ec392f89,626b3ac2983213a57e6d5a72,,,,,,,,,,,,,,,,,,,,,,,l,1,3.656,"[""0.087"",""0.367"",""0.538"",""0.278""]","[1,1,1,0]",0,53,53,53,1,1,0,,,1,FALSE,,,,,,,,,,,,,,,,,,,,,,,,,,,,,,
,5f9f2149fd257e5401063293,001,2022-04-28_20h43.34.981,classification_task,2021.2.3,Win32,60.1612321,5f9f2149fd257e5401063293,626b377229c10585ec392f89,626b3ac2983213a57e6d5a72,,,,,,,,,,,,,,,,,,,,,,,a,1,5.4111,"[""0.234"",""0.503"",""0.323"",""0.931""]","[1,1,0,1]",0,54,54,54,1,0,1,,,1,FALSE,,,,,,,,,,,,,,,,,,,,,,,,,,,,,,
,5f9f2149fd257e5401063293,001,2022-04-28_20h43.34.981,classification_task,2021.2.3,Win32,60.1612321,5f9f2149fd257e5401063293,626b377229c10585ec392f89,626b3ac2983213a57e6d5a72,,,,,,,,,,,,,,,,,,,,,,,l,1,1.9337,"[""0.026"",""0.150"",""0.583"",""0.282""]","[1,1,1,0]",0,55,55,55,1,1,1,,,1,FALSE,,,,,,,,,,,,,,,,,,,,,,,,,,,,,,
,5f9f2149fd257e5401063293,001,2022-04-28_20h43.34.981,classification_task,2021.2.3,Win32,60.1612321,5f9f2149fd257e5401063293,626b377229c10585ec392f89,626b3ac2983213a57e6d5a72,,,,,,,,,,,,,,,,,,,,,,,l,1,1.5506,"[""0.087"",""0.408"",""0.538"",""0.693""]","[1,0,1,1]",0,56,56,56,1,1,0,,,1,FALSE,,,,,,,,,,,,,,,,,,,,,,,,,,,,,,
,5f9f2149fd257e5401063293,001,2022-04-28_20h43.34.981,classification_task,2021.2.3,Win32,60.1612321,5f9f2149fd257e5401063293,626b377229c10585ec392f89,626b3ac2983213a57e6d5a72,,,,,,,,,,,,,,,,,,,,,,,a,1,3.7668,"[""0.234"",""0.306"",""0.632"",""0.931""]","[1,0,1,1]",0,57,57,57,1,0,1,,,1,FALSE,,,,,,,,,,,,,,,,,,,,,,,,,,,,,,
,5f9f2149fd257e5401063293,001,2022-04-28_20h43.34.981,classification_task,2021.2.3,Win32,60.1612321,5f9f2149fd257e5401063293,626b377229c10585ec392f89,626b3ac2983213a57e6d5a72,,,,,,,,,,,,,,,,,,,,,,,a,1,2.5388,"[""0.198"",""0.409"",""0.770"",""0.864""]","[1,0,1,1]",0,58,58,58,1,0,0,,,1,FALSE,,,,,,,,,,,,,,,,,,,,,,,,,,,,,,
,5f9f2149fd257e5401063293,001,2022-04-28_20h43.34.981,classification_task,2021.2.3,Win32,60.1612321,5f9f2149fd257e5401063293,626b377229c10585ec392f89,626b3ac2983213a57e6d5a72,,,,,,,,,,,,,,,,,,,,,,,l,0,3.0165,"[""0.282"",""0.503"",""0.632"",""0.931""]","[0,1,1,1]",0,59,59,59,1,0,1,,,1,FALSE,,,,,,,,,,,,,,,,,,,,,,,,,,,,,,
,5f9f2149fd257e5401063293,001,2022-04-28_20h43.34.981,classification_task,2021.2.3,Win32,60.1612321,5f9f2149fd257e5401063293,626b377229c10585ec392f89,626b3ac2983213a57e6d5a72,,,,,,,,,,,,,,,,,,,,,,,l,1,3.3435,"[""0.270"",""0.367"",""0.538"",""0.693""]","[0,1,1,1]",0,60,60,60,1,1,0,,,1,FALSE,,,,,,,,,,,,,,,,,,,,,,,,,,,,,,
,5f9f2149fd257e5401063293,001,2022-04-28_20h43.34.981,classification_task,2021.2.3,Win32,60.1612321,5f9f2149fd257e5401063293,626b377229c10585ec392f89,626b3ac2983213a57e6d5a72,,,,,,,,,,,,,,,,,,,,,,,l,1,3.5002,"[""0.026"",""0.150"",""0.734"",""0.810""]","[1,1,0,1]",0,61,61,61,1,1,1,,,1,FALSE,,,,,,,,,,,,,,,,,,,,,,,,,,,,,,
,5f9f2149fd257e5401063293,001,2022-04-28_20h43.34.981,classification_task,2021.2.3,Win32,60.1612321,5f9f2149fd257e5401063293,626b377229c10585ec392f89,626b3ac2983213a57e6d5a72,,,,,,,,,,,,,,,,,,,,,,,a,1,1.584,"[""0.198"",""0.469"",""0.408"",""0.864""]","[1,1,0,1]",0,62,62,62,1,0,0,,,1,FALSE,,,,,,,,,,,,,,,,,,,,,,,,,,,,,,
,5f9f2149fd257e5401063293,001,2022-04-28_20h43.34.981,classification_task,2021.2.3,Win32,60.1612321,5f9f2149fd257e5401063293,626b377229c10585ec392f89,626b3ac2983213a57e6d5a72,,,,,,,,,,,,,,,,,,,,,,,a,1,0.8169,"[""0.198"",""0.469"",""0.770"",""0.278""]","[1,1,1,0]",0,63,63,63,1,0,0,,,1,FALSE,,,,,,,,,,,,,,,,,,,,,,,,,,,,,,
,5f9f2149fd257e5401063293,001,2022-04-28_20h43.34.981,classification_task,2021.2.3,Win32,60.1612321,5f9f2149fd257e5401063293,626b377229c10585ec392f89,626b3ac2983213a57e6d5a72,,,,,,,,,,,,,,,,,,,,,,,,,,,,,,,,,,,,,,,0, ,,0,2.28101117,283.6049,0,1,1,1,1,2,2,,,,,,,,,,,,,,,,,
,5f9f2149fd257e5401063293,001,2022-04-28_20h43.34.981,classification_task,2021.2.3,Win32,60.1612321,5f9f2149fd257e5401063293,626b377229c10585ec392f89,626b3ac2983213a57e6d5a72,,,,,,,,,,,,,,,,,,,,,,,,,,,,,,,,,,,,,,,1,  ,,0,9.727611209,287.3617,0,1,1,1,1,2,2,,,,,,,,,,,,,,,,,
,5f9f2149fd257e5401063293,001,2022-04-28_20h43.34.981,classification_task,2021.2.3,Win32,60.1612321,5f9f2149fd257e5401063293,626b377229c10585ec392f89,626b3ac2983213a57e6d5a72,,,,,,,,,,,,,,,,,,,,,,,,,,,,,,,,,,,,,,,2,  ,,0,9.458161866,290.7929,0,1,1,1,1,2,2,,,,,,,,,,,,,,,,,
,5f9f2149fd257e5401063293,001,2022-04-28_20h43.34.981,classification_task,2021.2.3,Win32,60.1612321,5f9f2149fd257e5401063293,626b377229c10585ec392f89,626b3ac2983213a57e6d5a72,,,,,,,,,,,,,,,,,,,,,,,,,,,,,,,,,,,,,,,,,,,,,0,1,1,1,1,,2,,,,,,,,,,,,,,,,,
,5f9f2149fd257e5401063293,001,2022-04-28_20h43.34.981,classification_task,2021.2.3,Win32,60.1612321,5f9f2149fd257e5401063293,626b377229c10585ec392f89,626b3ac2983213a57e6d5a72,,,,,,,,,,,,,,,,,,,,,space,7.2393,a,1,2.491,"[""0.234"",""0.270"",""0.632"",""0.931""]","[1,0,1,1]",0,0,0,0,1,0,1,,,1,FALSE,,,,,,,,,,,,,,,,,,,,,,,,,,,,,,
,5f9f2149fd257e5401063293,001,2022-04-28_20h43.34.981,classification_task,2021.2.3,Win32,60.1612321,5f9f2149fd257e5401063293,626b377229c10585ec392f89,626b3ac2983213a57e6d5a72,,,,,,,,,,,,,,,,,,,,,,,a,1,2.4061,"[""0.328"",""0.469"",""0.770"",""0.864""]","[0,1,1,1]",0,1,1,1,1,0,0,,,1,FALSE,,,,,,,,,,,,,,,,,,,,,,,,,,,,,,
,5f9f2149fd257e5401063293,001,2022-04-28_20h43.34.981,classification_task,2021.2.3,Win32,60.1612321,5f9f2149fd257e5401063293,626b377229c10585ec392f89,626b3ac2983213a57e6d5a72,,,,,,,,,,,,,,,,,,,,,,,l,1,2.324,"[""0.026"",""0.150"",""0.330"",""0.810""]","[1,1,0,1]",0,2,2,2,1,1,1,,,1,FALSE,,,,,,,,,,,,,,,,,,,,,,,,,,,,,,
,5f9f2149fd257e5401063293,001,2022-04-28_20h43.34.981,classification_task,2021.2.3,Win32,60.1612321,5f9f2149fd257e5401063293,626b377229c10585ec392f89,626b3ac2983213a57e6d5a72,,,,,,,,,,,,,,,,,,,,,,,l,1,1.5348,"[""0.087"",""0.367"",""0.538"",""0.278""]","[1,1,1,0]",0,3,3,3,1,1,0,,,1,FALSE,,,,,,,,,,,,,,,,,,,,,,,,,,,,,,
,5f9f2149fd257e5401063293,001,2022-04-28_20h43.34.981,classification_task,2021.2.3,Win32,60.1612321,5f9f2149fd257e5401063293,626b377229c10585ec392f89,626b3ac2983213a57e6d5a72,,,,,,,,,,,,,,,,,,,,,,,a,1,4.438,"[""0.198"",""0.270"",""0.770"",""0.864""]","[1,0,1,1]",0,4,4,4,1,0,0,,,1,FALSE,,,,,,,,,,,,,,,,,,,,,,,,,,,,,,
,5f9f2149fd257e5401063293,001,2022-04-28_20h43.34.981,classification_task,2021.2.3,Win32,60.1612321,5f9f2149fd257e5401063293,626b377229c10585ec392f89,626b3ac2983213a57e6d5a72,,,,,,,,,,,,,,,,,,,,,,,a,1,2.152,"[""0.234"",""0.503"",""0.332"",""0.931""]","[1,1,0,1]",0,5,5,5,1,0,1,,,1,FALSE,,,,,,,,,,,,,,,,,,,,,,,,,,,,,,
,5f9f2149fd257e5401063293,001,2022-04-28_20h43.34.981,classification_task,2021.2.3,Win32,60.1612321,5f9f2149fd257e5401063293,626b377229c10585ec392f89,626b3ac2983213a57e6d5a72,,,,,,,,,,,,,,,,,,,,,,,a,1,2.5682,"[""0.234"",""0.503"",""0.632"",""0.282""]","[1,1,1,0]",0,6,6,6,1,0,1,,,1,FALSE,,,,,,,,,,,,,,,,,,,,,,,,,,,,,,
,5f9f2149fd257e5401063293,001,2022-04-28_20h43.34.981,classification_task,2021.2.3,Win32,60.1612321,5f9f2149fd257e5401063293,626b377229c10585ec392f89,626b3ac2983213a57e6d5a72,,,,,,,,,,,,,,,,,,,,,,,l,1,2.3871,"[""0.026"",""0.150"",""0.583"",""0.284""]","[1,1,1,0]",0,7,7,7,1,1,1,,,1,FALSE,,,,,,,,,,,,,,,,,,,,,,,,,,,,,,
,5f9f2149fd257e5401063293,001,2022-04-28_20h43.34.981,classification_task,2021.2.3,Win32,60.1612321,5f9f2149fd257e5401063293,626b377229c10585ec392f89,626b3ac2983213a57e6d5a72,,,,,,,,,,,,,,,,,,,,,,,l,1,2.2528,"[""0.087"",""0.319"",""0.538"",""0.693""]","[1,0,1,1]",0,8,8,8,1,1,0,,,1,FALSE,,,,,,,,,,,,,,,,,,,,,,,,,,,,,,
,5f9f2149fd257e5401063293,001,2022-04-28_20h43.34.981,classification_task,2021.2.3,Win32,60.1612321,5f9f2149fd257e5401063293,626b377229c10585ec392f89,626b3ac2983213a57e6d5a72,,,,,,,,,,,,,,,,,,,,,,,l,0,3.3782,"[""0.198"",""0.469"",""0.734"",""0.864""]","[1,1,0,1]",0,9,9,9,1,0,0,,,1,FALSE,,,,,,,,,,,,,,,,,,,,,,,,,,,,,,
,5f9f2149fd257e5401063293,001,2022-04-28_20h43.34.981,classification_task,2021.2.3,Win32,60.1612321,5f9f2149fd257e5401063293,626b377229c10585ec392f89,626b3ac2983213a57e6d5a72,,,,,,,,,,,,,,,,,,,,,,,a,0,2.3178,"[""0.734"",""0.367"",""0.538"",""0.693""]","[0,1,1,1]",0,10,10,10,1,1,0,,,1,FALSE,,,,,,,,,,,,,,,,,,,,,,,,,,,,,,
,5f9f2149fd257e5401063293,001,2022-04-28_20h43.34.981,classification_task,2021.2.3,Win32,60.1612321,5f9f2149fd257e5401063293,626b377229c10585ec392f89,626b3ac2983213a57e6d5a72,,,,,,,,,,,,,,,,,,,,,,,a,1,1.414,"[""0.323"",""0.503"",""0.632"",""0.931""]","[0,1,1,1]",0,11,11,11,1,0,1,,,1,FALSE,,,,,,,,,,,,,,,,,,,,,,,,,,,,,,
,5f9f2149fd257e5401063293,001,2022-04-28_20h43.34.981,classification_task,2021.2.3,Win32,60.1612321,5f9f2149fd257e5401063293,626b377229c10585ec392f89,626b3ac2983213a57e6d5a72,,,,,,,,,,,,,,,,,,,,,,,a,0,1.407,"[""0.284"",""0.150"",""0.583"",""0.810""]","[0,1,1,1]",0,12,12,12,1,1,1,,,1,FALSE,,,,,,,,,,,,,,,,,,,,,,,,,,,,,,
,5f9f2149fd257e5401063293,001,2022-04-28_20h43.34.981,classification_task,2021.2.3,Win32,60.1612321,5f9f2149fd257e5401063293,626b377229c10585ec392f89,626b3ac2983213a57e6d5a72,,,,,,,,,,,,,,,,,,,,,,,a,1,2.1641,"[""0.198"",""0.469"",""0.770"",""0.282""]","[1,1,1,0]",0,13,13,13,1,0,0,,,1,FALSE,,,,,,,,,,,,,,,,,,,,,,,,,,,,,,
,5f9f2149fd257e5401063293,001,2022-04-28_20h43.34.981,classification_task,2021.2.3,Win32,60.1612321,5f9f2149fd257e5401063293,626b377229c10585ec392f89,626b3ac2983213a57e6d5a72,,,,,,,,,,,,,,,,,,,,,,,l,1,4.9517,"[""0.026"",""0.323"",""0.583"",""0.810""]","[1,0,1,1]",0,14,14,14,1,1,1,,,1,FALSE,,,,,,,,,,,,,,,,,,,,,,,,,,,,,,
,5f9f2149fd257e5401063293,001,2022-04-28_20h43.34.981,classification_task,2021.2.3,Win32,60.1612321,5f9f2149fd257e5401063293,626b377229c10585ec392f89,626b3ac2983213a57e6d5a72,,,,,,,,,,,,,,,,,,,,,,,l,1,3.6404,"[""0.087"",""0.367"",""0.282"",""0.693""]","[1,1,0,1]",0,15,15,15,1,1,0,,,1,FALSE,,,,,,,,,,,,,,,,,,,,,,,,,,,,,,
,5f9f2149fd257e5401063293,001,2022-04-28_20h43.34.981,classification_task,2021.2.3,Win32,60.1612321,5f9f2149fd257e5401063293,626b377229c10585ec392f89,626b3ac2983213a57e6d5a72,,,,,,,,,,,,,,,,,,,,,,,a,1,1.4361,"[""0.234"",""0.503"",""0.632"",""0.284""]","[1,1,1,0]",0,16,16,16,1,0,1,,,1,FALSE,,,,,,,,,,,,,,,,,,,,,,,,,,,,,,
,5f9f2149fd257e5401063293,001,2022-04-28_20h43.34.981,classification_task,2021.2.3,Win32,60.1612321,5f9f2149fd257e5401063293,626b377229c10585ec392f89,626b3ac2983213a57e6d5a72,,,,,,,,,,,,,,,,,,,,,,,a,0,3.6527,"[""0.408"",""0.367"",""0.538"",""0.693""]","[0,1,1,1]",0,17,17,17,1,1,0,,,1,FALSE,,,,,,,,,,,,,,,,,,,,,,,,,,,,,,
,5f9f2149fd257e5401063293,001,2022-04-28_20h43.34.981,classification_task,2021.2.3,Win32,60.1612321,5f9f2149fd257e5401063293,626b377229c10585ec392f89,626b3ac2983213a57e6d5a72,,,,,,,,,,,,,,,,,,,,,,,a,1,1.2042,"[""0.234"",""0.736"",""0.632"",""0.931""]","[1,0,1,1]",0,18,18,18,1,0,1,,,1,FALSE,,,,,,,,,,,,,,,,,,,,,,,,,,,,,,
,5f9f2149fd257e5401063293,001,2022-04-28_20h43.34.981,classification_task,2021.2.3,Win32,60.1612321,5f9f2149fd257e5401063293,626b377229c10585ec392f89,626b3ac2983213a57e6d5a72,,,,,,,,,,,,,,,,,,,,,,,a,1,2.1841,"[""0.198"",""0.469"",""0.319"",""0.864""]","[1,1,0,1]",0,19,19,19,1,0,0,,,1,FALSE,,,,,,,,,,,,,,,,,,,,,,,,,,,,,,
,5f9f2149fd257e5401063293,001,2022-04-28_20h43.34.981,classification_task,2021.2.3,Win32,60.1612321,5f9f2149fd257e5401063293,626b377229c10585ec392f89,626b3ac2983213a57e6d5a72,,,,,,,,,,,,,,,,,,,,,,,a,1,2.1352,"[""0.736"",""0.503"",""0.632"",""0.931""]","[0,1,1,1]",0,20,20,20,1,0,1,,,1,FALSE,,,,,,,,,,,,,,,,,,,,,,,,,,,,,,
,5f9f2149fd257e5401063293,001,2022-04-28_20h43.34.981,classification_task,2021.2.3,Win32,60.1612321,5f9f2149fd257e5401063293,626b377229c10585ec392f89,626b3ac2983213a57e6d5a72,,,,,,,,,,,,,,,,,,,,,,,l,1,1.3371,"[""0.087"",""0.330"",""0.538"",""0.693""]","[1,0,1,1]",0,21,21,21,1,1,0,,,1,FALSE,,,,,,,,,,,,,,,,,,,,,,,,,,,,,,
,5f9f2149fd257e5401063293,001,2022-04-28_20h43.34.981,classification_task,2021.2.3,Win32,60.1612321,5f9f2149fd257e5401063293,626b377229c10585ec392f89,626b3ac2983213a57e6d5a72,,,,,,,,,,,,,,,,,,,,,,,l,1,3.5742,"[""0.026"",""0.150"",""0.583"",""0.736""]","[1,1,1,0]",0,22,22,22,1,1,1,,,1,FALSE,,,,,,,,,,,,,,,,,,,,,,,,,,,,,,
,5f9f2149fd257e5401063293,001,2022-04-28_20h43.34.981,classification_task,2021.2.3,Win32,60.1612321,5f9f2149fd257e5401063293,626b377229c10585ec392f89,626b3ac2983213a57e6d5a72,,,,,,,,,,,,,,,,,,,,,,,l,1,2.4157,"[""0.026"",""0.323"",""0.583"",""0.810""]","[1,0,1,1]",0,23,23,23,1,1,1,,,1,FALSE,,,,,,,,,,,,,,,,,,,,,,,,,,,,,,
,5f9f2149fd257e5401063293,001,2022-04-28_20h43.34.981,classification_task,2021.2.3,Win32,60.1612321,5f9f2149fd257e5401063293,626b377229c10585ec392f89,626b3ac2983213a57e6d5a72,,,,,,,,,,,,,,,,,,,,,,,l,1,2.4276,"[""0.087"",""0.367"",""0.330"",""0.693""]","[1,1,0,1]",0,24,24,24,1,1,0,,,1,FALSE,,,,,,,,,,,,,,,,,,,,,,,,,,,,,,
,5f9f2149fd257e5401063293,001,2022-04-28_20h43.34.981,classification_task,2021.2.3,Win32,60.1612321,5f9f2149fd257e5401063293,626b377229c10585ec392f89,626b3ac2983213a57e6d5a72,,,,,,,,,,,,,,,,,,,,,,,a,1,2.7916,"[""0.278"",""0.469"",""0.770"",""0.864""]","[0,1,1,1]",0,25,25,25,1,0,0,,,1,FALSE,,,,,,,,,,,,,,,,,,,,,,,,,,,,,,
,5f9f2149fd257e5401063293,001,2022-04-28_20h43.34.981,classification_task,2021.2.3,Win32,60.1612321,5f9f2149fd257e5401063293,626b377229c10585ec392f89,626b3ac2983213a57e6d5a72,,,,,,,,,,,,,,,,,,,,,,,a,0,3.288,"[""0.306"",""0.150"",""0.583"",""0.810""]","[0,1,1,1]",0,26,26,26,1,1,1,,,1,FALSE,,,,,,,,,,,,,,,,,,,,,,,,,,,,,,
,5f9f2149fd257e5401063293,001,2022-04-28_20h43.34.981,classification_task,2021.2.3,Win32,60.1612321,5f9f2149fd257e5401063293,626b377229c10585ec392f89,626b3ac2983213a57e6d5a72,,,,,,,,,,,,,,,,,,,,,,,l,1,1.5628,"[""0.087"",""0.367"",""0.538"",""0.306""]","[1,1,1,0]",0,27,27,27,1,1,0,,,1,FALSE,,,,,,,,,,,,,,,,,,,,,,,,,,,,,,
,5f9f2149fd257e5401063293,001,2022-04-28_20h43.34.981,classification_task,2021.2.3,Win32,60.1612321,5f9f2149fd257e5401063293,626b377229c10585ec392f89,626b3ac2983213a57e6d5a72,,,,,,,,,,,,,,,,,,,,,,,a,1,0.9185,"[""0.234"",""0.503"",""0.736"",""0.931""]","[1,1,0,1]",0,28,28,28,1,0,1,,,1,FALSE,,,,,,,,,,,,,,,,,,,,,,,,,,,,,,
,5f9f2149fd257e5401063293,001,2022-04-28_20h43.34.981,classification_task,2021.2.3,Win32,60.1612321,5f9f2149fd257e5401063293,626b377229c10585ec392f89,626b3ac2983213a57e6d5a72,,,,,,,,,,,,,,,,,,,,,,,a,1,1.7688,"[""0.198"",""0.469"",""0.770"",""0.278""]","[1,1,1,0]",0,29,29,29,1,0,0,,,1,FALSE,,,,,,,,,,,,,,,,,,,,,,,,,,,,,,
,5f9f2149fd257e5401063293,001,2022-04-28_20h43.34.981,classification_task,2021.2.3,Win32,60.1612321,5f9f2149fd257e5401063293,626b377229c10585ec392f89,626b3ac2983213a57e6d5a72,,,,,,,,,,,,,,,,,,,,,,,a,1,4.3467,"[""0.198"",""0.736"",""0.770"",""0.864""]","[1,0,1,1]",0,30,30,30,1,0,0,,,1,FALSE,,,,,,,,,,,,,,,,,,,,,,,,,,,,,,
,5f9f2149fd257e5401063293,001,2022-04-28_20h43.34.981,classification_task,2021.2.3,Win32,60.1612321,5f9f2149fd257e5401063293,626b377229c10585ec392f89,626b3ac2983213a57e6d5a72,,,,,,,,,,,,,,,,,,,,,,,l,1,0.9689,"[""0.026"",""0.150"",""0.306"",""0.810""]","[1,1,0,1]",0,31,31,31,1,1,1,,,1,FALSE,,,,,,,,,,,,,,,,,,,,,,,,,,,,,,
,5f9f2149fd257e5401063293,001,2022-04-28_20h43.34.981,classification_task,2021.2.3,Win32,60.1612321,5f9f2149fd257e5401063293,626b377229c10585ec392f89,626b3ac2983213a57e6d5a72,,,,,,,,,,,,,,,,,,,,,,,l,1,1.2015,"[""0.087"",""0.367"",""0.330"",""0.693""]","[1,1,0,1]",0,32,32,32,1,1,0,,,1,FALSE,,,,,,,,,,,,,,,,,,,,,,,,,,,,,,
,5f9f2149fd257e5401063293,001,2022-04-28_20h43.34.981,classification_task,2021.2.3,Win32,60.1612321,5f9f2149fd257e5401063293,626b377229c10585ec392f89,626b3ac2983213a57e6d5a72,,,,,,,,,,,,,,,,,,,,,,,a,1,2.4476,"[""0.234"",""0.503"",""0.632"",""0.736""]","[1,1,1,0]",0,33,33,33,1,0,1,,,1,FALSE,,,,,,,,,,,,,,,,,,,,,,,,,,,,,,
,5f9f2149fd257e5401063293,001,2022-04-28_20h43.34.981,classification_task,2021.2.3,Win32,60.1612321,5f9f2149fd257e5401063293,626b377229c10585ec392f89,626b3ac2983213a57e6d5a72,,,,,,,,,,,,,,,,,,,,,,,l,1,2.7558,"[""0.409"",""0.367"",""0.538"",""0.693""]","[0,1,1,1]",0,34,34,34,1,1,0,,,1,FALSE,,,,,,,,,,,,,,,,,,,,,,,,,,,,,,
,5f9f2149fd257e5401063293,001,2022-04-28_20h43.34.981,classification_task,2021.2.3,Win32,60.1612321,5f9f2149fd257e5401063293,626b377229c10585ec392f89,626b3ac2983213a57e6d5a72,,,,,,,,,,,,,,,,,,,,,,,l,1,1.2293,"[""0.026"",""0.150"",""0.583"",""0.306""]","[1,1,1,0]",0,35,35,35,1,1,1,,,1,FALSE,,,,,,,,,,,,,,,,,,,,,,,,,,,,,,
,5f9f2149fd257e5401063293,001,2022-04-28_20h43.34.981,classification_task,2021.2.3,Win32,60.1612321,5f9f2149fd257e5401063293,626b377229c10585ec392f89,626b3ac2983213a57e6d5a72,,,,,,,,,,,,,,,,,,,,,,,l,1,1.267,"[""0.087"",""0.367"",""0.538"",""0.278""]","[1,1,1,0]",0,36,36,36,1,1,0,,,1,FALSE,,,,,,,,,,,,,,,,,,,,,,,,,,,,,,
,5f9f2149fd257e5401063293,001,2022-04-28_20h43.34.981,classification_task,2021.2.3,Win32,60.1612321,5f9f2149fd257e5401063293,626b377229c10585ec392f89,626b3ac2983213a57e6d5a72,,,,,,,,,,,,,,,,,,,,,,,a,1,2.1183,"[""0.198"",""0.469"",""0.291"",""0.864""]","[1,1,0,1]",0,37,37,37,1,0,0,,,1,FALSE,,,,,,,,,,,,,,,,,,,,,,,,,,,,,,
,5f9f2149fd257e5401063293,001,2022-04-28_20h43.34.981,classification_task,2021.2.3,Win32,60.1612321,5f9f2149fd257e5401063293,626b377229c10585ec392f89,626b3ac2983213a57e6d5a72,,,,,,,,,,,,,,,,,,,,,,,a,0,1.3922,"[""0.282"",""0.150"",""0.583"",""0.810""]","[0,1,1,1]",0,38,38,38,1,1,1,,,1,FALSE,,,,,,,,,,,,,,,,,,,,,,,,,,,,,,
,5f9f2149fd257e5401063293,001,2022-04-28_20h43.34.981,classification_task,2021.2.3,Win32,60.1612321,5f9f2149fd257e5401063293,626b377229c10585ec392f89,626b3ac2983213a57e6d5a72,,,,,,,,,,,,,,,,,,,,,,,l,1,0.8451,"[""0.026"",""0.734"",""0.583"",""0.810""]","[1,0,1,1]",0,39,39,39,1,1,1,,,1,FALSE,,,,,,,,,,,,,,,,,,,,,,,,,,,,,,
,5f9f2149fd257e5401063293,001,2022-04-28_20h43.34.981,classification_task,2021.2.3,Win32,60.1612321,5f9f2149fd257e5401063293,626b377229c10585ec392f89,626b3ac2983213a57e6d5a72,,,,,,,,,,,,,,,,,,,,,,,l,1,1.0658,"[""0.026"",""0.150"",""0.323"",""0.810""]","[1,1,0,1]",0,40,40,40,1,1,1,,,1,FALSE,,,,,,,,,,,,,,,,,,,,,,,,,,,,,,
,5f9f2149fd257e5401063293,001,2022-04-28_20h43.34.981,classification_task,2021.2.3,Win32,60.1612321,5f9f2149fd257e5401063293,626b377229c10585ec392f89,626b3ac2983213a57e6d5a72,,,,,,,,,,,,,,,,,,,,,,,l,1,3.3975,"[""0.087"",""0.306"",""0.538"",""0.693""]","[1,0,1,1]",0,41,41,41,1,1,0,,,1,FALSE,,,,,,,,,,,,,,,,,,,,,,,,,,,,,,
,5f9f2149fd257e5401063293,001,2022-04-28_20h43.34.981,classification_task,2021.2.3,Win32,60.1612321,5f9f2149fd257e5401063293,626b377229c10585ec392f89,626b3ac2983213a57e6d5a72,,,,,,,,,,,,,,,,,,,,,,,a,1,1.6812,"[""0.198"",""0.469"",""0.770"",""0.332""]","[1,1,1,0]",0,42,42,42,1,0,0,,,1,FALSE,,,,,,,,,,,,,,,,,,,,,,,,,,,,,,
,5f9f2149fd257e5401063293,001,2022-04-28_20h43.34.981,classification_task,2021.2.3,Win32,60.1612321,5f9f2149fd257e5401063293,626b377229c10585ec392f89,626b3ac2983213a57e6d5a72,,,,,,,,,,,,,,,,,,,,,,,a,1,4.2964,"[""0.270"",""0.503"",""0.632"",""0.931""]","[0,1,1,1]",0,43,43,43,1,0,1,,,1,FALSE,,,,,,,,,,,,,,,,,,,,,,,,,,,,,,
,5f9f2149fd257e5401063293,001,2022-04-28_20h43.34.981,classification_task,2021.2.3,Win32,60.1612321,5f9f2149fd257e5401063293,626b377229c10585ec392f89,626b3ac2983213a57e6d5a72,,,,,,,,,,,,,,,,,,,,,,,a,1,2.4335,"[""0.198"",""0.306"",""0.770"",""0.864""]","[1,0,1,1]",0,44,44,44,1,0,0,,,1,FALSE,,,,,,,,,,,,,,,,,,,,,,,,,,,,,,
,5f9f2149fd257e5401063293,001,2022-04-28_20h43.34.981,classification_task,2021.2.3,Win32,60.1612321,5f9f2149fd257e5401063293,626b377229c10585ec392f89,626b3ac2983213a57e6d5a72,,,,,,,,,,,,,,,,,,,,,,,a,1,1.7385,"[""0.284"",""0.469"",""0.770"",""0.864""]","[0,1,1,1]",0,45,45,45,1,0,0,,,1,FALSE,,,,,,,,,,,,,,,,,,,,,,,,,,,,,,
,5f9f2149fd257e5401063293,001,2022-04-28_20h43.34.981,classification_task,2021.2.3,Win32,60.1612321,5f9f2149fd257e5401063293,626b377229c10585ec392f89,626b3ac2983213a57e6d5a72,,,,,,,,,,,,,,,,,,,,,,,a,1,1.3554,"[""0.234"",""0.409"",""0.632"",""0.931""]","[1,0,1,1]",0,46,46,46,1,0,1,,,1,FALSE,,,,,,,,,,,,,,,,,,,,,,,,,,,,,,
,5f9f2149fd257e5401063293,001,2022-04-28_20h43.34.981,classification_task,2021.2.3,Win32,60.1612321,5f9f2149fd257e5401063293,626b377229c10585ec392f89,626b3ac2983213a57e6d5a72,,,,,,,,,,,,,,,,,,,,,,,a,1,1.1545,"[""0.234"",""0.503"",""0.284"",""0.931""]","[1,1,0,1]",0,47,47,47,1,0,1,,,1,FALSE,,,,,,,,,,,,,,,,,,,,,,,,,,,,,,
,5f9f2149fd257e5401063293,001,2022-04-28_20h43.34.981,classification_task,2021.2.3,Win32,60.1612321,5f9f2149fd257e5401063293,626b377229c10585ec392f89,626b3ac2983213a57e6d5a72,,,,,,,,,,,,,,,,,,,,,,,l,1,1.1705,"[""0.087"",""0.367"",""0.538"",""0.282""]","[1,1,1,0]",0,48,48,48,1,1,0,,,1,FALSE,,,,,,,,,,,,,,,,,,,,,,,,,,,,,,
,5f9f2149fd257e5401063293,001,2022-04-28_20h43.34.981,classification_task,2021.2.3,Win32,60.1612321,5f9f2149fd257e5401063293,626b377229c10585ec392f89,626b3ac2983213a57e6d5a72,,,,,,,,,,,,,,,,,,,,,,,a,1,1.6176,"[""0.282"",""0.469"",""0.770"",""0.864""]","[0,1,1,1]",0,49,49,49,1,0,0,,,1,FALSE,,,,,,,,,,,,,,,,,,,,,,,,,,,,,,
,5f9f2149fd257e5401063293,001,2022-04-28_20h43.34.981,classification_task,2021.2.3,Win32,60.1612321,5f9f2149fd257e5401063293,626b377229c10585ec392f89,626b3ac2983213a57e6d5a72,,,,,,,,,,,,,,,,,,,,,,,l,1,3.5358,"[""0.282"",""0.367"",""0.538"",""0.693""]","[0,1,1,1]",0,50,50,50,1,1,0,,,1,FALSE,,,,,,,,,,,,,,,,,,,,,,,,,,,,,,
,5f9f2149fd257e5401063293,001,2022-04-28_20h43.34.981,classification_task,2021.2.3,Win32,60.1612321,5f9f2149fd257e5401063293,626b377229c10585ec392f89,626b3ac2983213a57e6d5a72,,,,,,,,,,,,,,,,,,,,,,,a,1,2.3636,"[""0.234"",""0.503"",""0.284"",""0.931""]","[1,1,0,1]",0,51,51,51,1,0,1,,,1,FALSE,,,,,,,,,,,,,,,,,,,,,,,,,,,,,,
,5f9f2149fd257e5401063293,001,2022-04-28_20h43.34.981,classification_task,2021.2.3,Win32,60.1612321,5f9f2149fd257e5401063293,626b377229c10585ec392f89,626b3ac2983213a57e6d5a72,,,,,,,,,,,,,,,,,,,,,,,a,1,3.9857,"[""0.198"",""0.332"",""0.770"",""0.864""]","[1,0,1,1]",0,52,52,52,1,0,0,,,1,FALSE,,,,,,,,,,,,,,,,,,,,,,,,,,,,,,
,5f9f2149fd257e5401063293,001,2022-04-28_20h43.34.981,classification_task,2021.2.3,Win32,60.1612321,5f9f2149fd257e5401063293,626b377229c10585ec392f89,626b3ac2983213a57e6d5a72,,,,,,,,,,,,,,,,,,,,,,,l,1,3.7492,"[""0.087"",""0.367"",""0.409"",""0.693""]","[1,1,0,1]",0,53,53,53,1,1,0,,,1,FALSE,,,,,,,,,,,,,,,,,,,,,,,,,,,,,,
,5f9f2149fd257e5401063293,001,2022-04-28_20h43.34.981,classification_task,2021.2.3,Win32,60.1612321,5f9f2149fd257e5401063293,626b377229c10585ec392f89,626b3ac2983213a57e6d5a72,,,,,,,,,,,,,,,,,,,,,,,l,1,2.3797,"[""0.026"",""0.150"",""0.583"",""0.734""]","[1,1,1,0]",0,54,54,54,1,1,1,,,1,FALSE,,,,,,,,,,,,,,,,,,,,,,,,,,,,,,
,5f9f2149fd257e5401063293,001,2022-04-28_20h43.34.981,classification_task,2021.2.3,Win32,60.1612321,5f9f2149fd257e5401063293,626b377229c10585ec392f89,626b3ac2983213a57e6d5a72,,,,,,,,,,,,,,,,,,,,,,,a,1,1.0005,"[""0.234"",""0.736"",""0.632"",""0.931""]","[1,0,1,1]",0,55,55,55,1,0,1,,,1,FALSE,,,,,,,,,,,,,,,,,,,,,,,,,,,,,,
,5f9f2149fd257e5401063293,001,2022-04-28_20h43.34.981,classification_task,2021.2.3,Win32,60.1612321,5f9f2149fd257e5401063293,626b377229c10585ec392f89,626b3ac2983213a57e6d5a72,,,,,,,,,,,,,,,,,,,,,,,l,1,2.4409,"[""0.087"",""0.736"",""0.538"",""0.693""]","[1,0,1,1]",0,56,56,56,1,1,0,,,1,FALSE,,,,,,,,,,,,,,,,,,,,,,,,,,,,,,
,5f9f2149fd257e5401063293,001,2022-04-28_20h43.34.981,classification_task,2021.2.3,Win32,60.1612321,5f9f2149fd257e5401063293,626b377229c10585ec392f89,626b3ac2983213a57e6d5a72,,,,,,,,,,,,,,,,,,,,,,,a,1,1.96,"[""0.234"",""0.503"",""0.632"",""0.409""]","[1,1,1,0]",0,57,57,57,1,0,1,,,1,FALSE,,,,,,,,,,,,,,,,,,,,,,,,,,,,,,
,5f9f2149fd257e5401063293,001,2022-04-28_20h43.34.981,classification_task,2021.2.3,Win32,60.1612321,5f9f2149fd257e5401063293,626b377229c10585ec392f89,626b3ac2983213a57e6d5a72,,,,,,,,,,,,,,,,,,,,,,,a,1,2.44,"[""0.198"",""0.469"",""0.770"",""0.319""]","[1,1,1,0]",0,58,58,58,1,0,0,,,1,FALSE,,,,,,,,,,,,,,,,,,,,,,,,,,,,,,
,5f9f2149fd257e5401063293,001,2022-04-28_20h43.34.981,classification_task,2021.2.3,Win32,60.1612321,5f9f2149fd257e5401063293,626b377229c10585ec392f89,626b3ac2983213a57e6d5a72,,,,,,,,,,,,,,,,,,,,,,,l,1,1.1137,"[""0.026"",""0.150"",""0.409"",""0.810""]","[1,1,0,1]",0,59,59,59,1,1,1,,,1,FALSE,,,,,,,,,,,,,,,,,,,,,,,,,,,,,,
,5f9f2149fd257e5401063293,001,2022-04-28_20h43.34.981,classification_task,2021.2.3,Win32,60.1612321,5f9f2149fd257e5401063293,626b377229c10585ec392f89,626b3ac2983213a57e6d5a72,,,,,,,,,,,,,,,,,,,,,,,a,1,1.279,"[""0.328"",""0.503"",""0.632"",""0.931""]","[0,1,1,1]",0,60,60,60,1,0,1,,,1,FALSE,,,,,,,,,,,,,,,,,,,,,,,,,,,,,,
,5f9f2149fd257e5401063293,001,2022-04-28_20h43.34.981,classification_task,2021.2.3,Win32,60.1612321,5f9f2149fd257e5401063293,626b377229c10585ec392f89,626b3ac2983213a57e6d5a72,,,,,,,,,,,,,,,,,,,,,,,a,0,1.4074,"[""0.284"",""0.150"",""0.583"",""0.810""]","[0,1,1,1]",0,61,61,61,1,1,1,,,1,FALSE,,,,,,,,,,,,,,,,,,,,,,,,,,,,,,
,5f9f2149fd257e5401063293,001,2022-04-28_20h43.34.981,classification_task,2021.2.3,Win32,60.1612321,5f9f2149fd257e5401063293,626b377229c10585ec392f89,626b3ac2983213a57e6d5a72,,,,,,,,,,,,,,,,,,,,,,,a,1,2.7708,"[""0.198"",""0.469"",""0.330"",""0.864""]","[1,1,0,1]",0,62,62,62,1,0,0,,,1,FALSE,,,,,,,,,,,,,,,,,,,,,,,,,,,,,,
,5f9f2149fd257e5401063293,001,2022-04-28_20h43.34.981,classification_task,2021.2.3,Win32,60.1612321,5f9f2149fd257e5401063293,626b377229c10585ec392f89,626b3ac2983213a57e6d5a72,,,,,,,,,,,,,,,,,,,,,,,l,1,0.983,"[""0.026"",""0.330"",""0.583"",""0.810""]","[1,0,1,1]",0,63,63,63,1,1,1,,,1,FALSE,,,,,,,,,,,,,,,,,,,,,,,,,,,,,,
,5f9f2149fd257e5401063293,001,2022-04-28_20h43.34.981,classification_task,2021.2.3,Win32,60.1612321,5f9f2149fd257e5401063293,626b377229c10585ec392f89,626b3ac2983213a57e6d5a72,,,,,,,,,,,,,,,,,,,,,,,,,,,,,,,,,,,,,,,0, ,,0,0.590828924,236.0322,0,2,2,2,1,2,3,,,,,,,,,,,,,,,,,
,5f9f2149fd257e5401063293,001,2022-04-28_20h43.34.981,classification_task,2021.2.3,Win32,60.1612321,5f9f2149fd257e5401063293,626b377229c10585ec392f89,626b3ac2983213a57e6d5a72,,,,,,,,,,,,,,,,,,,,,,,,,,,,,,,,,,,,,,,1,  ,,0,4.926513815,232.347,0,2,2,2,1,2,3,,,,,,,,,,,,,,,,,
,5f9f2149fd257e5401063293,001,2022-04-28_20h43.34.981,classification_task,2021.2.3,Win32,60.1612321,5f9f2149fd257e5401063293,626b377229c10585ec392f89,626b3ac2983213a57e6d5a72,,,,,,,,,,,,,,,,,,,,,,,,,,,,,,,,,,,,,,,2,  ,,0,2.060552616,230.2045,0,2,2,2,1,2,3,,,,,,,,,,,,,,,,,
,5f9f2149fd257e5401063293,001,2022-04-28_20h43.34.981,classification_task,2021.2.3,Win32,60.1612321,5f9f2149fd257e5401063293,626b377229c10585ec392f89,626b3ac2983213a57e6d5a72,,,,,,,,,,,,,,,,,,,,,,,,,,,,,,,,,,,,,,,,,,,,,0,2,2,2,1,,3,,,,,,,,,,,,,,,,,
,5f9f2149fd257e5401063293,001,2022-04-28_20h43.34.981,classification_task,2021.2.3,Win32,60.1612321,5f9f2149fd257e5401063293,626b377229c10585ec392f89,626b3ac2983213a57e6d5a72,,,,,,,,,,,,,,,,,,,,,,,,,,,,,,,,,,,,,,,,,,,,,,,,,,,,,I believe the aid is a competent performer,,0.7,0,3,1174.8093,0,0,0,0,1,0,,,,
,5f9f2149fd257e5401063293,001,2022-04-28_20h43.34.981,classification_task,2021.2.3,Win32,60.1612321,5f9f2149fd257e5401063293,626b377229c10585ec392f89,626b3ac2983213a57e6d5a72,,,,,,,,,,,,,,,,,,,,,,,,,,,,,,,,,,,,,,,,,,,,,,,,,,,,,I trust the aid,,0.7,0,2,1152.7192,0,0,0,0,1,0,,,,
,5f9f2149fd257e5401063293,001,2022-04-28_20h43.34.981,classification_task,2021.2.3,Win32,60.1612321,5f9f2149fd257e5401063293,626b377229c10585ec392f89,626b3ac2983213a57e6d5a72,,,,,,,,,,,,,,,,,,,,,,,,,,,,,,,,,,,,,,,,,,,,,,,,,,,,,I have confidence in the advice given by the aid,,0.7,0,2,1154.7697,0,0,0,0,1,0,,,,
,5f9f2149fd257e5401063293,001,2022-04-28_20h43.34.981,classification_task,2021.2.3,Win32,60.1612321,5f9f2149fd257e5401063293,626b377229c10585ec392f89,626b3ac2983213a57e6d5a72,,,,,,,,,,,,,,,,,,,,,,,,,,,,,,,,,,,,,,,,,,,,,,,,,,,,,I can depend on the aid,,0.7,0,1,1177.4019,0,0,0,0,1,0,,,,
,5f9f2149fd257e5401063293,001,2022-04-28_20h43.34.981,classification_task,2021.2.3,Win32,60.1612321,5f9f2149fd257e5401063293,626b377229c10585ec392f89,626b3ac2983213a57e6d5a72,,,,,,,,,,,,,,,,,,,,,,,,,,,,,,,,,,,,,,,,,,,,,,,,,,,,,I can rely on the aid to behave in consistent ways,,0.7,0,1,1161.7518,0,0,0,0,1,0,,,,
,5f9f2149fd257e5401063293,001,2022-04-28_20h43.34.981,classification_task,2021.2.3,Win32,60.1612321,5f9f2149fd257e5401063293,626b377229c10585ec392f89,626b3ac2983213a57e6d5a72,,,,,,,,,,,,,,,,,,,,,,,,,,,,,,,,,,,,,,,,,,,,,,,,,,,,,I can rely on the aid to do its best every time I take its advice,,0.7,0,2,1167.4671,0,0,0,0,1,0,,,,
,5f9f2149fd257e5401063293,001,2022-04-28_20h43.34.981,classification_task,2021.2.3,Win32,60.1612321,5f9f2149fd257e5401063293,626b377229c10585ec392f89,626b3ac2983213a57e6d5a72,,,,,,,,,,,,,,,,,,,,,,,,,,,,,,,,,,,,,,,,,,,,,,,,,,,,,"On trials you completed with assistance from the aid, how frequently did you think the aid was correct?",,0.7,0,60%,,0,0,0,0,1,0,,,,
,5f9f2149fd257e5401063293,001,2022-04-28_20h43.34.981,classification_task,2021.2.3,Win32,60.1612321,5f9f2149fd257e5401063293,626b377229c10585ec392f89,626b3ac2983213a57e6d5a72,,,,,,,,,,,,,,,,,,,,,,,,,,,,,,,,,,,,,,,,,,,,,,,,,,,,,"On trials you completed without the aid, how frequently did you think you were correct?",,0.7,0,80%,,0,0,0,0,1,0,,,,
,5f9f2149fd257e5401063293,001,2022-04-28_20h43.34.981,classification_task,2021.2.3,Win32,60.1612321,5f9f2149fd257e5401063293,626b377229c10585ec392f89,626b3ac2983213a57e6d5a72,,,,,,,,,,,,,,,,,,,,,,,,,,,,,,,,,,,,,,,,,,,,,,,,,,,,,,,,,,,0,0,0,0,1,,,,,
,5f9f2149fd257e5401063293,001,2022-04-28_20h43.34.981,classification_task,2021.2.3,Win32,60.1612321,5f9f2149fd257e5401063293,626b377229c10585ec392f89,626b3ac2983213a57e6d5a72,,,,,,,,,,,,,,,,,,,,,,,,,,,,,,,,,,,,,,,,,,,,,,,,,,,,,,,,,,,,,,,,,space,9.0146,1219.3668,
,5f9f2149fd257e5401063293,001,2022-04-28_20h43.34.981,classification_task,2021.2.3,Win32,60.1612321,5f9f2149fd257e5401063293,626b377229c10585ec392f89,626b3ac2983213a57e6d5a72,,,,,,,,,,,,,,,,,,,,,,,,,,,,,,,,,,,,,,,,,,,,,,,,,,,,,,,,,,,,,,,,,,,,"Mozilla/5.0 (Windows NT 10.0; Win64; x64) AppleWebKit/537.36 (KHTML, like Gecko) Chrome/100.0.4896.127 Safari/537.36"
