usingWebGL,participant,session,date,expName,psychopyVersion,OS,frameRate,PROLIFIC_PID,STUDY_ID,SESSION_ID,signatures_friend,signatures_foe,band_ranges_top,band_ranges_bottom,formitemText,formtype,formundefined,formitemWidth,formindex,formresponse,formrt,key_resp_2.keys,key_resp_2.rt,tute_resp.keys,tute_resp.rt,tutorial.thisRepN,tutorial.thisTrialN,tutorial.thisN,tutorial.thisIndex,tutorial.ran,key_resp_4.keys,key_resp_4.rt,key_resp.keys,key_resp.corr,key_resp.rt,lines_presented,is_signal_presented,trials.thisRepN,trials.thisTrialN,trials.thisN,trials.thisIndex,trials.ran,vessel,active_band,lines,is_signal,supported_pos,catch_trial,debrief_formindex,debrief_formitemText,debrief_formtype,debrief_formitemWidth,debrief_formresponse,debrief_formrt,phases.thisRepN,phases.thisTrialN,phases.thisN,phases.thisIndex,phases.ran,phases.order,phase,key_resp_3.keys,trustitemText,trusttype,trustitemWidth,trustindex,trustresponse,trustrt,support_status.thisRepN,support_status.thisTrialN,support_status.thisN,support_status.thisIndex,support_status.ran,support_status.order,key_resp_5.keys,key_resp_5.rt,globalClockTime,userAgent
TRUE,5fa27915a7a32b44f3b2f44a,001,2022-04-29_03h09.29.125,classification_task,2021.2.3,Win32,75.48309179,5fa27915a7a32b44f3b2f44a,626b377229c10585ec392f89,626b3a643ea344ef195b0164,,,,,,,,,,,,,,,,,,,,,,,,,,,,,,,,,,,,,,,,,,,,,,,,,,,,,,,,,,,,,,,,,,,,
,5fa27915a7a32b44f3b2f44a,001,2022-04-29_03h09.29.125,classification_task,2021.2.3,Win32,75.48309179,5fa27915a7a32b44f3b2f44a,626b377229c10585ec392f89,626b3a643ea344ef195b0164,"[[""0.304"",""0.353"",""0.875"",""0.930""],[""0.225"",""0.462"",""0.668"",""0.967""]]","[[""0.085"",""0.119"",""0.498"",""0.732""],[""0.041"",""0.409"",""0.544"",""0.775""]]","[1,10]","[100,1000]",Video game experience,,,0.7,0,,,,,,,,,,,,,,,,,,,,,,,,,,,,,,,,,,,,,,,,,,,,,,,,,,,,,,,,,,,
,5fa27915a7a32b44f3b2f44a,001,2022-04-29_03h09.29.125,classification_task,2021.2.3,Win32,75.48309179,5fa27915a7a32b44f3b2f44a,626b377229c10585ec392f89,626b3a643ea344ef195b0164,,,,,Approximately how many hours did you spend playing video games in the last week?,,,0.7,0,80,,,,,,,,,,,,,,,,,,,,,,,,,,,,,,,,,,,,,,,,,,,,,,,,,,,,,,,,,,
,5fa27915a7a32b44f3b2f44a,001,2022-04-29_03h09.29.125,classification_task,2021.2.3,Win32,75.48309179,5fa27915a7a32b44f3b2f44a,626b377229c10585ec392f89,626b3a643ea344ef195b0164,,,,,"Which game did you play the most this year? (Enter ""None"" if you didn't play any)",,,0.7,0,Europa Universalis IV,,,,,,,,,,,,,,,,,,,,,,,,,,,,,,,,,,,,,,,,,,,,,,,,,,,,,,,,,,
,5fa27915a7a32b44f3b2f44a,001,2022-04-29_03h09.29.125,classification_task,2021.2.3,Win32,75.48309179,5fa27915a7a32b44f3b2f44a,626b377229c10585ec392f89,626b3a643ea344ef195b0164,,,,,Visual perception,,,0.7,0,,,,,,,,,,,,,,,,,,,,,,,,,,,,,,,,,,,,,,,,,,,,,,,,,,,,,,,,,,,
,5fa27915a7a32b44f3b2f44a,001,2022-04-29_03h09.29.125,classification_task,2021.2.3,Win32,75.48309179,5fa27915a7a32b44f3b2f44a,626b377229c10585ec392f89,626b3a643ea344ef195b0164,,,,,Do you have any form of color blindness?,,,0.7,0,No,51.7302,,,,,,,,,,,,,,,,,,,,,,,,,,,,,,,,,,,,,,,,,,,,,,,,,,,,,,,,,
,5fa27915a7a32b44f3b2f44a,001,2022-04-29_03h09.29.125,classification_task,2021.2.3,Win32,75.48309179,5fa27915a7a32b44f3b2f44a,626b377229c10585ec392f89,626b3a643ea344ef195b0164,,,,,Do you use software to change the colour temperature of your screen (e.g. f.lux)?,,,0.7,0,No,60.985,,,,,,,,,,,,,,,,,,,,,,,,,,,,,,,,,,,,,,,,,,,,,,,,,,,,,,,,,
,5fa27915a7a32b44f3b2f44a,001,2022-04-29_03h09.29.125,classification_task,2021.2.3,Win32,75.48309179,5fa27915a7a32b44f3b2f44a,626b377229c10585ec392f89,626b3a643ea344ef195b0164,,,,,,,,,,,,space,29.3185,space,7.9782,0,0,0,0,1,,,,,,,,,,,,,,,,,,,,,,,,,,,,,,,,,,,,,,,,,,,,,,,,
,5fa27915a7a32b44f3b2f44a,001,2022-04-29_03h09.29.125,classification_task,2021.2.3,Win32,75.48309179,5fa27915a7a32b44f3b2f44a,626b377229c10585ec392f89,626b3a643ea344ef195b0164,,,,,,,,,,,,,,space,8.3174,1,0,1,0,1,,,,,,,,,,,,,,,,,,,,,,,,,,,,,,,,,,,,,,,,,,,,,,,,
,5fa27915a7a32b44f3b2f44a,001,2022-04-29_03h09.29.125,classification_task,2021.2.3,Win32,75.48309179,5fa27915a7a32b44f3b2f44a,626b377229c10585ec392f89,626b3a643ea344ef195b0164,,,,,,,,,,,,,,space,26.6368,2,0,2,0,1,,,,,,,,,,,,,,,,,,,,,,,,,,,,,,,,,,,,,,,,,,,,,,,,
,5fa27915a7a32b44f3b2f44a,001,2022-04-29_03h09.29.125,classification_task,2021.2.3,Win32,75.48309179,5fa27915a7a32b44f3b2f44a,626b377229c10585ec392f89,626b3a643ea344ef195b0164,,,,,,,,,,,,,,space,6.9529,3,0,3,0,1,,,,,,,,,,,,,,,,,,,,,,,,,,,,,,,,,,,,,,,,,,,,,,,,
,5fa27915a7a32b44f3b2f44a,001,2022-04-29_03h09.29.125,classification_task,2021.2.3,Win32,75.48309179,5fa27915a7a32b44f3b2f44a,626b377229c10585ec392f89,626b3a643ea344ef195b0164,,,,,,,,,,,,,,space,12.6977,4,0,4,0,1,,,,,,,,,,,,,,,,,,,,,,,,,,,,,,,,,,,,,,,,,,,,,,,,
,5fa27915a7a32b44f3b2f44a,001,2022-04-29_03h09.29.125,classification_task,2021.2.3,Win32,75.48309179,5fa27915a7a32b44f3b2f44a,626b377229c10585ec392f89,626b3a643ea344ef195b0164,,,,,,,,,,,,,,,,,,,,,space,14.8886,a,1,6.3162,"[""0.225"",""0.462"",""0.259"",""0.967""]","[1,1,0,1]",0,0,0,0,1,0,1,,,1,FALSE,,,,,,,,,,,,,,,,,,,,,,,,,,,,,,
,5fa27915a7a32b44f3b2f44a,001,2022-04-29_03h09.29.125,classification_task,2021.2.3,Win32,75.48309179,5fa27915a7a32b44f3b2f44a,626b377229c10585ec392f89,626b3a643ea344ef195b0164,,,,,,,,,,,,,,,,,,,,,,,l,0,3.319,"[""0.304"",""0.353"",""0.875"",""0.159""]","[1,1,1,0]",0,1,1,1,1,0,0,,,1,FALSE,,,,,,,,,,,,,,,,,,,,,,,,,,,,,,
,5fa27915a7a32b44f3b2f44a,001,2022-04-29_03h09.29.125,classification_task,2021.2.3,Win32,75.48309179,5fa27915a7a32b44f3b2f44a,626b377229c10585ec392f89,626b3a643ea344ef195b0164,,,,,,,,,,,,,,,,,,,,,,,l,1,4.9166,"[""0.041"",""0.409"",""0.815"",""0.775""]","[1,1,0,1]",0,2,2,2,1,1,1,,,1,FALSE,,,,,,,,,,,,,,,,,,,,,,,,,,,,,,
,5fa27915a7a32b44f3b2f44a,001,2022-04-29_03h09.29.125,classification_task,2021.2.3,Win32,75.48309179,5fa27915a7a32b44f3b2f44a,626b377229c10585ec392f89,626b3a643ea344ef195b0164,,,,,,,,,,,,,,,,,,,,,,,a,1,8.0243,"[""0.225"",""0.154"",""0.668"",""0.967""]","[1,0,1,1]",0,3,3,3,1,0,1,,,1,FALSE,,,,,,,,,,,,,,,,,,,,,,,,,,,,,,
,5fa27915a7a32b44f3b2f44a,001,2022-04-29_03h09.29.125,classification_task,2021.2.3,Win32,75.48309179,5fa27915a7a32b44f3b2f44a,626b377229c10585ec392f89,626b3a643ea344ef195b0164,,,,,,,,,,,,,,,,,,,,,,,l,1,4.8086,"[""0.154"",""0.119"",""0.498"",""0.732""]","[0,1,1,1]",0,4,4,4,1,1,0,,,1,FALSE,,,,,,,,,,,,,,,,,,,,,,,,,,,,,,
,5fa27915a7a32b44f3b2f44a,001,2022-04-29_03h09.29.125,classification_task,2021.2.3,Win32,75.48309179,5fa27915a7a32b44f3b2f44a,626b377229c10585ec392f89,626b3a643ea344ef195b0164,,,,,,,,,,,,,,,,,,,,,,,l,1,9.664,"[""0.585"",""0.409"",""0.544"",""0.775""]","[0,1,1,1]",0,5,5,5,1,1,1,,,1,FALSE,,,,,,,,,,,,,,,,,,,,,,,,,,,,,,
,5fa27915a7a32b44f3b2f44a,001,2022-04-29_03h09.29.125,classification_task,2021.2.3,Win32,75.48309179,5fa27915a7a32b44f3b2f44a,626b377229c10585ec392f89,626b3a643ea344ef195b0164,,,,,,,,,,,,,,,,,,,,,,,l,1,2.9897,"[""0.041"",""0.611"",""0.544"",""0.775""]","[1,0,1,1]",0,6,6,6,1,1,1,,,1,FALSE,,,,,,,,,,,,,,,,,,,,,,,,,,,,,,
,5fa27915a7a32b44f3b2f44a,001,2022-04-29_03h09.29.125,classification_task,2021.2.3,Win32,75.48309179,5fa27915a7a32b44f3b2f44a,626b377229c10585ec392f89,626b3a643ea344ef195b0164,,,,,,,,,,,,,,,,,,,,,,,l,1,2.323,"[""0.041"",""0.409"",""0.544"",""0.832""]","[1,1,1,0]",0,7,7,7,1,1,1,,,1,FALSE,,,,,,,,,,,,,,,,,,,,,,,,,,,,,,
,5fa27915a7a32b44f3b2f44a,001,2022-04-29_03h09.29.125,classification_task,2021.2.3,Win32,75.48309179,5fa27915a7a32b44f3b2f44a,626b377229c10585ec392f89,626b3a643ea344ef195b0164,,,,,,,,,,,,,,,,,,,,,,,a,1,5.0765,"[""0.623"",""0.353"",""0.875"",""0.930""]","[0,1,1,1]",0,8,8,8,1,0,0,,,1,FALSE,,,,,,,,,,,,,,,,,,,,,,,,,,,,,,
,5fa27915a7a32b44f3b2f44a,001,2022-04-29_03h09.29.125,classification_task,2021.2.3,Win32,75.48309179,5fa27915a7a32b44f3b2f44a,626b377229c10585ec392f89,626b3a643ea344ef195b0164,,,,,,,,,,,,,,,,,,,,,,,a,1,6.9661,"[""0.225"",""0.462"",""0.668"",""0.191""]","[1,1,1,0]",0,9,9,9,1,0,1,,,1,FALSE,,,,,,,,,,,,,,,,,,,,,,,,,,,,,,
,5fa27915a7a32b44f3b2f44a,001,2022-04-29_03h09.29.125,classification_task,2021.2.3,Win32,75.48309179,5fa27915a7a32b44f3b2f44a,626b377229c10585ec392f89,626b3a643ea344ef195b0164,,,,,,,,,,,,,,,,,,,,,,,a,1,7.6659,"[""0.304"",""0.353"",""0.191"",""0.930""]","[1,1,0,1]",0,10,10,10,1,0,0,,,1,FALSE,,,,,,,,,,,,,,,,,,,,,,,,,,,,,,
,5fa27915a7a32b44f3b2f44a,001,2022-04-29_03h09.29.125,classification_task,2021.2.3,Win32,75.48309179,5fa27915a7a32b44f3b2f44a,626b377229c10585ec392f89,626b3a643ea344ef195b0164,,,,,,,,,,,,,,,,,,,,,,,a,1,4.2726,"[""0.611"",""0.462"",""0.668"",""0.967""]","[0,1,1,1]",0,11,11,11,1,0,1,,,1,FALSE,,,,,,,,,,,,,,,,,,,,,,,,,,,,,,
,5fa27915a7a32b44f3b2f44a,001,2022-04-29_03h09.29.125,classification_task,2021.2.3,Win32,75.48309179,5fa27915a7a32b44f3b2f44a,626b377229c10585ec392f89,626b3a643ea344ef195b0164,,,,,,,,,,,,,,,,,,,,,,,l,1,3.4648,"[""0.085"",""0.119"",""0.191"",""0.732""]","[1,1,0,1]",0,12,12,12,1,1,0,,,1,FALSE,,,,,,,,,,,,,,,,,,,,,,,,,,,,,,
,5fa27915a7a32b44f3b2f44a,001,2022-04-29_03h09.29.125,classification_task,2021.2.3,Win32,75.48309179,5fa27915a7a32b44f3b2f44a,626b377229c10585ec392f89,626b3a643ea344ef195b0164,,,,,,,,,,,,,,,,,,,,,,,a,1,3.666,"[""0.304"",""0.611"",""0.875"",""0.930""]","[1,0,1,1]",0,13,13,13,1,0,0,,,1,FALSE,,,,,,,,,,,,,,,,,,,,,,,,,,,,,,
,5fa27915a7a32b44f3b2f44a,001,2022-04-29_03h09.29.125,classification_task,2021.2.3,Win32,75.48309179,5fa27915a7a32b44f3b2f44a,626b377229c10585ec392f89,626b3a643ea344ef195b0164,,,,,,,,,,,,,,,,,,,,,,,l,1,3.1548,"[""0.085"",""0.605"",""0.498"",""0.732""]","[1,0,1,1]",0,14,14,14,1,1,0,,,1,FALSE,,,,,,,,,,,,,,,,,,,,,,,,,,,,,,
,5fa27915a7a32b44f3b2f44a,001,2022-04-29_03h09.29.125,classification_task,2021.2.3,Win32,75.48309179,5fa27915a7a32b44f3b2f44a,626b377229c10585ec392f89,626b3a643ea344ef195b0164,,,,,,,,,,,,,,,,,,,,,,,l,1,7.4766,"[""0.085"",""0.119"",""0.498"",""0.585""]","[1,1,1,0]",0,15,15,15,1,1,0,,,1,FALSE,,,,,,,,,,,,,,,,,,,,,,,,,,,,,,
,5fa27915a7a32b44f3b2f44a,001,2022-04-29_03h09.29.125,classification_task,2021.2.3,Win32,75.48309179,5fa27915a7a32b44f3b2f44a,626b377229c10585ec392f89,626b3a643ea344ef195b0164,,,,,,,,,,,,,,,,,,,,,,,a,1,3.5297,"[""0.304"",""0.353"",""0.875"",""0.832""]","[1,1,1,0]",0,16,16,16,1,0,0,,,1,FALSE,,,,,,,,,,,,,,,,,,,,,,,,,,,,,,
,5fa27915a7a32b44f3b2f44a,001,2022-04-29_03h09.29.125,classification_task,2021.2.3,Win32,75.48309179,5fa27915a7a32b44f3b2f44a,626b377229c10585ec392f89,626b3a643ea344ef195b0164,,,,,,,,,,,,,,,,,,,,,,,l,1,1.295,"[""0.085"",""0.623"",""0.498"",""0.732""]","[1,0,1,1]",0,17,17,17,1,1,0,,,1,FALSE,,,,,,,,,,,,,,,,,,,,,,,,,,,,,,
,5fa27915a7a32b44f3b2f44a,001,2022-04-29_03h09.29.125,classification_task,2021.2.3,Win32,75.48309179,5fa27915a7a32b44f3b2f44a,626b377229c10585ec392f89,626b3a643ea344ef195b0164,,,,,,,,,,,,,,,,,,,,,,,a,0,3.7063,"[""0.041"",""0.180"",""0.544"",""0.775""]","[1,0,1,1]",0,18,18,18,1,1,1,,,1,FALSE,,,,,,,,,,,,,,,,,,,,,,,,,,,,,,
,5fa27915a7a32b44f3b2f44a,001,2022-04-29_03h09.29.125,classification_task,2021.2.3,Win32,75.48309179,5fa27915a7a32b44f3b2f44a,626b377229c10585ec392f89,626b3a643ea344ef195b0164,,,,,,,,,,,,,,,,,,,,,,,a,1,2.1122,"[""0.304"",""0.353"",""0.259"",""0.930""]","[1,1,0,1]",0,19,19,19,1,0,0,,,1,FALSE,,,,,,,,,,,,,,,,,,,,,,,,,,,,,,
,5fa27915a7a32b44f3b2f44a,001,2022-04-29_03h09.29.125,classification_task,2021.2.3,Win32,75.48309179,5fa27915a7a32b44f3b2f44a,626b377229c10585ec392f89,626b3a643ea344ef195b0164,,,,,,,,,,,,,,,,,,,,,,,l,1,1.973,"[""0.041"",""0.409"",""0.544"",""0.259""]","[1,1,1,0]",0,20,20,20,1,1,1,,,1,FALSE,,,,,,,,,,,,,,,,,,,,,,,,,,,,,,
,5fa27915a7a32b44f3b2f44a,001,2022-04-29_03h09.29.125,classification_task,2021.2.3,Win32,75.48309179,5fa27915a7a32b44f3b2f44a,626b377229c10585ec392f89,626b3a643ea344ef195b0164,,,,,,,,,,,,,,,,,,,,,,,a,1,4.0414,"[""0.589"",""0.462"",""0.668"",""0.967""]","[0,1,1,1]",0,21,21,21,1,0,1,,,1,FALSE,,,,,,,,,,,,,,,,,,,,,,,,,,,,,,
,5fa27915a7a32b44f3b2f44a,001,2022-04-29_03h09.29.125,classification_task,2021.2.3,Win32,75.48309179,5fa27915a7a32b44f3b2f44a,626b377229c10585ec392f89,626b3a643ea344ef195b0164,,,,,,,,,,,,,,,,,,,,,,,l,1,2.997,"[""0.585"",""0.409"",""0.544"",""0.775""]","[0,1,1,1]",0,22,22,22,1,1,1,,,1,FALSE,,,,,,,,,,,,,,,,,,,,,,,,,,,,,,
,5fa27915a7a32b44f3b2f44a,001,2022-04-29_03h09.29.125,classification_task,2021.2.3,Win32,75.48309179,5fa27915a7a32b44f3b2f44a,626b377229c10585ec392f89,626b3a643ea344ef195b0164,,,,,,,,,,,,,,,,,,,,,,,l,1,1.4176,"[""0.085"",""0.119"",""0.191"",""0.732""]","[1,1,0,1]",0,23,23,23,1,1,0,,,1,FALSE,,,,,,,,,,,,,,,,,,,,,,,,,,,,,,
,5fa27915a7a32b44f3b2f44a,001,2022-04-29_03h09.29.125,classification_task,2021.2.3,Win32,75.48309179,5fa27915a7a32b44f3b2f44a,626b377229c10585ec392f89,626b3a643ea344ef195b0164,,,,,,,,,,,,,,,,,,,,,,,l,1,1.901,"[""0.605"",""0.119"",""0.498"",""0.732""]","[0,1,1,1]",0,24,24,24,1,1,0,,,1,FALSE,,,,,,,,,,,,,,,,,,,,,,,,,,,,,,
,5fa27915a7a32b44f3b2f44a,001,2022-04-29_03h09.29.125,classification_task,2021.2.3,Win32,75.48309179,5fa27915a7a32b44f3b2f44a,626b377229c10585ec392f89,626b3a643ea344ef195b0164,,,,,,,,,,,,,,,,,,,,,,,a,1,4.847,"[""0.225"",""0.180"",""0.668"",""0.967""]","[1,0,1,1]",0,25,25,25,1,0,1,,,1,FALSE,,,,,,,,,,,,,,,,,,,,,,,,,,,,,,
,5fa27915a7a32b44f3b2f44a,001,2022-04-29_03h09.29.125,classification_task,2021.2.3,Win32,75.48309179,5fa27915a7a32b44f3b2f44a,626b377229c10585ec392f89,626b3a643ea344ef195b0164,,,,,,,,,,,,,,,,,,,,,,,l,1,1.4239,"[""0.041"",""0.409"",""0.159"",""0.775""]","[1,1,0,1]",0,26,26,26,1,1,1,,,1,FALSE,,,,,,,,,,,,,,,,,,,,,,,,,,,,,,
,5fa27915a7a32b44f3b2f44a,001,2022-04-29_03h09.29.125,classification_task,2021.2.3,Win32,75.48309179,5fa27915a7a32b44f3b2f44a,626b377229c10585ec392f89,626b3a643ea344ef195b0164,,,,,,,,,,,,,,,,,,,,,,,a,1,1.0431,"[""0.225"",""0.462"",""0.612"",""0.967""]","[1,1,0,1]",0,27,27,27,1,0,1,,,1,FALSE,,,,,,,,,,,,,,,,,,,,,,,,,,,,,,
,5fa27915a7a32b44f3b2f44a,001,2022-04-29_03h09.29.125,classification_task,2021.2.3,Win32,75.48309179,5fa27915a7a32b44f3b2f44a,626b377229c10585ec392f89,626b3a643ea344ef195b0164,,,,,,,,,,,,,,,,,,,,,,,l,1,1.0967,"[""0.085"",""0.119"",""0.498"",""0.259""]","[1,1,1,0]",0,28,28,28,1,1,0,,,1,FALSE,,,,,,,,,,,,,,,,,,,,,,,,,,,,,,
,5fa27915a7a32b44f3b2f44a,001,2022-04-29_03h09.29.125,classification_task,2021.2.3,Win32,75.48309179,5fa27915a7a32b44f3b2f44a,626b377229c10585ec392f89,626b3a643ea344ef195b0164,,,,,,,,,,,,,,,,,,,,,,,a,1,2.328,"[""0.304"",""0.159"",""0.875"",""0.930""]","[1,0,1,1]",0,29,29,29,1,0,0,,,1,FALSE,,,,,,,,,,,,,,,,,,,,,,,,,,,,,,
,5fa27915a7a32b44f3b2f44a,001,2022-04-29_03h09.29.125,classification_task,2021.2.3,Win32,75.48309179,5fa27915a7a32b44f3b2f44a,626b377229c10585ec392f89,626b3a643ea344ef195b0164,,,,,,,,,,,,,,,,,,,,,,,a,1,1.2062,"[""0.225"",""0.462"",""0.668"",""0.271""]","[1,1,1,0]",0,30,30,30,1,0,1,,,1,FALSE,,,,,,,,,,,,,,,,,,,,,,,,,,,,,,
,5fa27915a7a32b44f3b2f44a,001,2022-04-29_03h09.29.125,classification_task,2021.2.3,Win32,75.48309179,5fa27915a7a32b44f3b2f44a,626b377229c10585ec392f89,626b3a643ea344ef195b0164,,,,,,,,,,,,,,,,,,,,,,,a,1,2.3481,"[""0.605"",""0.353"",""0.875"",""0.930""]","[0,1,1,1]",0,31,31,31,1,0,0,,,1,FALSE,,,,,,,,,,,,,,,,,,,,,,,,,,,,,,
,5fa27915a7a32b44f3b2f44a,001,2022-04-29_03h09.29.125,classification_task,2021.2.3,Win32,75.48309179,5fa27915a7a32b44f3b2f44a,626b377229c10585ec392f89,626b3a643ea344ef195b0164,,,,,,,,,,,,,,,,,,,,,,,l,1,2.1768,"[""0.041"",""0.409"",""0.832"",""0.775""]","[1,1,0,1]",0,32,32,32,1,1,1,,,1,FALSE,,,,,,,,,,,,,,,,,,,,,,,,,,,,,,
,5fa27915a7a32b44f3b2f44a,001,2022-04-29_03h09.29.125,classification_task,2021.2.3,Win32,75.48309179,5fa27915a7a32b44f3b2f44a,626b377229c10585ec392f89,626b3a643ea344ef195b0164,,,,,,,,,,,,,,,,,,,,,,,l,0,1.4607,"[""0.623"",""0.353"",""0.875"",""0.930""]","[0,1,1,1]",0,33,33,33,1,0,0,,,1,FALSE,,,,,,,,,,,,,,,,,,,,,,,,,,,,,,
,5fa27915a7a32b44f3b2f44a,001,2022-04-29_03h09.29.125,classification_task,2021.2.3,Win32,75.48309179,5fa27915a7a32b44f3b2f44a,626b377229c10585ec392f89,626b3a643ea344ef195b0164,,,,,,,,,,,,,,,,,,,,,,,l,0,1.3964,"[""0.304"",""0.828"",""0.875"",""0.930""]","[1,0,1,1]",0,34,34,34,1,0,0,,,1,FALSE,,,,,,,,,,,,,,,,,,,,,,,,,,,,,,
,5fa27915a7a32b44f3b2f44a,001,2022-04-29_03h09.29.125,classification_task,2021.2.3,Win32,75.48309179,5fa27915a7a32b44f3b2f44a,626b377229c10585ec392f89,626b3a643ea344ef195b0164,,,,,,,,,,,,,,,,,,,,,,,a,1,1.2281,"[""0.304"",""0.353"",""0.623"",""0.930""]","[1,1,0,1]",0,35,35,35,1,0,0,,,1,FALSE,,,,,,,,,,,,,,,,,,,,,,,,,,,,,,
,5fa27915a7a32b44f3b2f44a,001,2022-04-29_03h09.29.125,classification_task,2021.2.3,Win32,75.48309179,5fa27915a7a32b44f3b2f44a,626b377229c10585ec392f89,626b3a643ea344ef195b0164,,,,,,,,,,,,,,,,,,,,,,,a,1,1.1736,"[""0.225"",""0.462"",""0.259"",""0.967""]","[1,1,0,1]",0,36,36,36,1,0,1,,,1,FALSE,,,,,,,,,,,,,,,,,,,,,,,,,,,,,,
,5fa27915a7a32b44f3b2f44a,001,2022-04-29_03h09.29.125,classification_task,2021.2.3,Win32,75.48309179,5fa27915a7a32b44f3b2f44a,626b377229c10585ec392f89,626b3a643ea344ef195b0164,,,,,,,,,,,,,,,,,,,,,,,l,0,1.2874,"[""0.225"",""0.191"",""0.668"",""0.967""]","[1,0,1,1]",0,37,37,37,1,0,1,,,1,FALSE,,,,,,,,,,,,,,,,,,,,,,,,,,,,,,
,5fa27915a7a32b44f3b2f44a,001,2022-04-29_03h09.29.125,classification_task,2021.2.3,Win32,75.48309179,5fa27915a7a32b44f3b2f44a,626b377229c10585ec392f89,626b3a643ea344ef195b0164,,,,,,,,,,,,,,,,,,,,,,,l,1,1.242,"[""0.085"",""0.623"",""0.498"",""0.732""]","[1,0,1,1]",0,38,38,38,1,1,0,,,1,FALSE,,,,,,,,,,,,,,,,,,,,,,,,,,,,,,
,5fa27915a7a32b44f3b2f44a,001,2022-04-29_03h09.29.125,classification_task,2021.2.3,Win32,75.48309179,5fa27915a7a32b44f3b2f44a,626b377229c10585ec392f89,626b3a643ea344ef195b0164,,,,,,,,,,,,,,,,,,,,,,,l,0,1.8135,"[""0.304"",""0.353"",""0.875"",""0.815""]","[1,1,1,0]",0,39,39,39,1,0,0,,,1,FALSE,,,,,,,,,,,,,,,,,,,,,,,,,,,,,,
,5fa27915a7a32b44f3b2f44a,001,2022-04-29_03h09.29.125,classification_task,2021.2.3,Win32,75.48309179,5fa27915a7a32b44f3b2f44a,626b377229c10585ec392f89,626b3a643ea344ef195b0164,,,,,,,,,,,,,,,,,,,,,,,a,1,1.8913,"[""0.623"",""0.462"",""0.668"",""0.967""]","[0,1,1,1]",0,40,40,40,1,0,1,,,1,FALSE,,,,,,,,,,,,,,,,,,,,,,,,,,,,,,
,5fa27915a7a32b44f3b2f44a,001,2022-04-29_03h09.29.125,classification_task,2021.2.3,Win32,75.48309179,5fa27915a7a32b44f3b2f44a,626b377229c10585ec392f89,626b3a643ea344ef195b0164,,,,,,,,,,,,,,,,,,,,,,,l,1,0.7896,"[""0.085"",""0.119"",""0.498"",""0.589""]","[1,1,1,0]",0,41,41,41,1,1,0,,,1,FALSE,,,,,,,,,,,,,,,,,,,,,,,,,,,,,,
,5fa27915a7a32b44f3b2f44a,001,2022-04-29_03h09.29.125,classification_task,2021.2.3,Win32,75.48309179,5fa27915a7a32b44f3b2f44a,626b377229c10585ec392f89,626b3a643ea344ef195b0164,,,,,,,,,,,,,,,,,,,,,,,l,1,0.653,"[""0.159"",""0.119"",""0.498"",""0.732""]","[0,1,1,1]",0,42,42,42,1,1,0,,,1,FALSE,,,,,,,,,,,,,,,,,,,,,,,,,,,,,,
,5fa27915a7a32b44f3b2f44a,001,2022-04-29_03h09.29.125,classification_task,2021.2.3,Win32,75.48309179,5fa27915a7a32b44f3b2f44a,626b377229c10585ec392f89,626b3a643ea344ef195b0164,,,,,,,,,,,,,,,,,,,,,,,l,1,0.7892,"[""0.085"",""0.119"",""0.815"",""0.732""]","[1,1,0,1]",0,43,43,43,1,1,0,,,1,FALSE,,,,,,,,,,,,,,,,,,,,,,,,,,,,,,
,5fa27915a7a32b44f3b2f44a,001,2022-04-29_03h09.29.125,classification_task,2021.2.3,Win32,75.48309179,5fa27915a7a32b44f3b2f44a,626b377229c10585ec392f89,626b3a643ea344ef195b0164,,,,,,,,,,,,,,,,,,,,,,,l,1,1.1294,"[""0.041"",""0.815"",""0.544"",""0.775""]","[1,0,1,1]",0,44,44,44,1,1,1,,,1,FALSE,,,,,,,,,,,,,,,,,,,,,,,,,,,,,,
,5fa27915a7a32b44f3b2f44a,001,2022-04-29_03h09.29.125,classification_task,2021.2.3,Win32,75.48309179,5fa27915a7a32b44f3b2f44a,626b377229c10585ec392f89,626b3a643ea344ef195b0164,,,,,,,,,,,,,,,,,,,,,,,a,0,1.0545,"[""0.623"",""0.409"",""0.544"",""0.775""]","[0,1,1,1]",0,45,45,45,1,1,1,,,1,FALSE,,,,,,,,,,,,,,,,,,,,,,,,,,,,,,
,5fa27915a7a32b44f3b2f44a,001,2022-04-29_03h09.29.125,classification_task,2021.2.3,Win32,75.48309179,5fa27915a7a32b44f3b2f44a,626b377229c10585ec392f89,626b3a643ea344ef195b0164,,,,,,,,,,,,,,,,,,,,,,,l,1,1.0324,"[""0.041"",""0.409"",""0.544"",""0.810""]","[1,1,1,0]",0,46,46,46,1,1,1,,,1,FALSE,,,,,,,,,,,,,,,,,,,,,,,,,,,,,,
,5fa27915a7a32b44f3b2f44a,001,2022-04-29_03h09.29.125,classification_task,2021.2.3,Win32,75.48309179,5fa27915a7a32b44f3b2f44a,626b377229c10585ec392f89,626b3a643ea344ef195b0164,,,,,,,,,,,,,,,,,,,,,,,a,1,0.9524,"[""0.225"",""0.462"",""0.668"",""0.159""]","[1,1,1,0]",0,47,47,47,1,0,1,,,1,FALSE,,,,,,,,,,,,,,,,,,,,,,,,,,,,,,
,5fa27915a7a32b44f3b2f44a,001,2022-04-29_03h09.29.125,classification_task,2021.2.3,Win32,75.48309179,5fa27915a7a32b44f3b2f44a,626b377229c10585ec392f89,626b3a643ea344ef195b0164,,,,,,,,,,,,,,,,,,,,,,,l,1,1.0713,"[""0.611"",""0.409"",""0.544"",""0.775""]","[0,1,1,1]",0,48,48,48,1,1,1,,,1,FALSE,,,,,,,,,,,,,,,,,,,,,,,,,,,,,,
,5fa27915a7a32b44f3b2f44a,001,2022-04-29_03h09.29.125,classification_task,2021.2.3,Win32,75.48309179,5fa27915a7a32b44f3b2f44a,626b377229c10585ec392f89,626b3a643ea344ef195b0164,,,,,,,,,,,,,,,,,,,,,,,l,1,1.2401,"[""0.589"",""0.119"",""0.498"",""0.732""]","[0,1,1,1]",0,49,49,49,1,1,0,,,1,FALSE,,,,,,,,,,,,,,,,,,,,,,,,,,,,,,
,5fa27915a7a32b44f3b2f44a,001,2022-04-29_03h09.29.125,classification_task,2021.2.3,Win32,75.48309179,5fa27915a7a32b44f3b2f44a,626b377229c10585ec392f89,626b3a643ea344ef195b0164,,,,,,,,,,,,,,,,,,,,,,,a,1,1.1301,"[""0.810"",""0.353"",""0.875"",""0.930""]","[0,1,1,1]",0,50,50,50,1,0,0,,,1,FALSE,,,,,,,,,,,,,,,,,,,,,,,,,,,,,,
,5fa27915a7a32b44f3b2f44a,001,2022-04-29_03h09.29.125,classification_task,2021.2.3,Win32,75.48309179,5fa27915a7a32b44f3b2f44a,626b377229c10585ec392f89,626b3a643ea344ef195b0164,,,,,,,,,,,,,,,,,,,,,,,a,1,2.0431,"[""0.304"",""0.353"",""0.589"",""0.930""]","[1,1,0,1]",0,51,51,51,1,0,0,,,1,FALSE,,,,,,,,,,,,,,,,,,,,,,,,,,,,,,
,5fa27915a7a32b44f3b2f44a,001,2022-04-29_03h09.29.125,classification_task,2021.2.3,Win32,75.48309179,5fa27915a7a32b44f3b2f44a,626b377229c10585ec392f89,626b3a643ea344ef195b0164,,,,,,,,,,,,,,,,,,,,,,,l,0,0.943,"[""0.225"",""0.462"",""0.668"",""0.271""]","[1,1,1,0]",0,52,52,52,1,0,1,,,1,FALSE,,,,,,,,,,,,,,,,,,,,,,,,,,,,,,
,5fa27915a7a32b44f3b2f44a,001,2022-04-29_03h09.29.125,classification_task,2021.2.3,Win32,75.48309179,5fa27915a7a32b44f3b2f44a,626b377229c10585ec392f89,626b3a643ea344ef195b0164,,,,,,,,,,,,,,,,,,,,,,,l,1,0.7811,"[""0.085"",""0.119"",""0.498"",""0.605""]","[1,1,1,0]",0,53,53,53,1,1,0,,,1,FALSE,,,,,,,,,,,,,,,,,,,,,,,,,,,,,,
,5fa27915a7a32b44f3b2f44a,001,2022-04-29_03h09.29.125,classification_task,2021.2.3,Win32,75.48309179,5fa27915a7a32b44f3b2f44a,626b377229c10585ec392f89,626b3a643ea344ef195b0164,,,,,,,,,,,,,,,,,,,,,,,l,1,1.2101,"[""0.085"",""0.154"",""0.498"",""0.732""]","[1,0,1,1]",0,54,54,54,1,1,0,,,1,FALSE,,,,,,,,,,,,,,,,,,,,,,,,,,,,,,
,5fa27915a7a32b44f3b2f44a,001,2022-04-29_03h09.29.125,classification_task,2021.2.3,Win32,75.48309179,5fa27915a7a32b44f3b2f44a,626b377229c10585ec392f89,626b3a643ea344ef195b0164,,,,,,,,,,,,,,,,,,,,,,,l,1,1.0752,"[""0.041"",""0.409"",""0.612"",""0.775""]","[1,1,0,1]",0,55,55,55,1,1,1,,,1,FALSE,,,,,,,,,,,,,,,,,,,,,,,,,,,,,,
,5fa27915a7a32b44f3b2f44a,001,2022-04-29_03h09.29.125,classification_task,2021.2.3,Win32,75.48309179,5fa27915a7a32b44f3b2f44a,626b377229c10585ec392f89,626b3a643ea344ef195b0164,,,,,,,,,,,,,,,,,,,,,,,l,1,0.7867,"[""0.041"",""0.612"",""0.544"",""0.775""]","[1,0,1,1]",0,56,56,56,1,1,1,,,1,FALSE,,,,,,,,,,,,,,,,,,,,,,,,,,,,,,
,5fa27915a7a32b44f3b2f44a,001,2022-04-29_03h09.29.125,classification_task,2021.2.3,Win32,75.48309179,5fa27915a7a32b44f3b2f44a,626b377229c10585ec392f89,626b3a643ea344ef195b0164,,,,,,,,,,,,,,,,,,,,,,,a,1,0.7909,"[""0.304"",""0.353"",""0.875"",""0.259""]","[1,1,1,0]",0,57,57,57,1,0,0,,,1,FALSE,,,,,,,,,,,,,,,,,,,,,,,,,,,,,,
,5fa27915a7a32b44f3b2f44a,001,2022-04-29_03h09.29.125,classification_task,2021.2.3,Win32,75.48309179,5fa27915a7a32b44f3b2f44a,626b377229c10585ec392f89,626b3a643ea344ef195b0164,,,,,,,,,,,,,,,,,,,,,,,l,1,0.9382,"[""0.041"",""0.409"",""0.544"",""0.612""]","[1,1,1,0]",0,58,58,58,1,1,1,,,1,FALSE,,,,,,,,,,,,,,,,,,,,,,,,,,,,,,
,5fa27915a7a32b44f3b2f44a,001,2022-04-29_03h09.29.125,classification_task,2021.2.3,Win32,75.48309179,5fa27915a7a32b44f3b2f44a,626b377229c10585ec392f89,626b3a643ea344ef195b0164,,,,,,,,,,,,,,,,,,,,,,,a,1,1.2073,"[""0.304"",""0.611"",""0.875"",""0.930""]","[1,0,1,1]",0,59,59,59,1,0,0,,,1,FALSE,,,,,,,,,,,,,,,,,,,,,,,,,,,,,,
,5fa27915a7a32b44f3b2f44a,001,2022-04-29_03h09.29.125,classification_task,2021.2.3,Win32,75.48309179,5fa27915a7a32b44f3b2f44a,626b377229c10585ec392f89,626b3a643ea344ef195b0164,,,,,,,,,,,,,,,,,,,,,,,a,1,1.1311,"[""0.225"",""0.623"",""0.668"",""0.967""]","[1,0,1,1]",0,60,60,60,1,0,1,,,1,FALSE,,,,,,,,,,,,,,,,,,,,,,,,,,,,,,
,5fa27915a7a32b44f3b2f44a,001,2022-04-29_03h09.29.125,classification_task,2021.2.3,Win32,75.48309179,5fa27915a7a32b44f3b2f44a,626b377229c10585ec392f89,626b3a643ea344ef195b0164,,,,,,,,,,,,,,,,,,,,,,,a,1,0.8553,"[""0.225"",""0.462"",""0.271"",""0.967""]","[1,1,0,1]",0,61,61,61,1,0,1,,,1,FALSE,,,,,,,,,,,,,,,,,,,,,,,,,,,,,,
,5fa27915a7a32b44f3b2f44a,001,2022-04-29_03h09.29.125,classification_task,2021.2.3,Win32,75.48309179,5fa27915a7a32b44f3b2f44a,626b377229c10585ec392f89,626b3a643ea344ef195b0164,,,,,,,,,,,,,,,,,,,,,,,l,0,0.9074,"[""0.623"",""0.462"",""0.668"",""0.967""]","[0,1,1,1]",0,62,62,62,1,0,1,,,1,FALSE,,,,,,,,,,,,,,,,,,,,,,,,,,,,,,
,5fa27915a7a32b44f3b2f44a,001,2022-04-29_03h09.29.125,classification_task,2021.2.3,Win32,75.48309179,5fa27915a7a32b44f3b2f44a,626b377229c10585ec392f89,626b3a643ea344ef195b0164,,,,,,,,,,,,,,,,,,,,,,,l,1,1.0163,"[""0.085"",""0.119"",""0.828"",""0.732""]","[1,1,0,1]",0,63,63,63,1,1,0,,,1,FALSE,,,,,,,,,,,,,,,,,,,,,,,,,,,,,,
,5fa27915a7a32b44f3b2f44a,001,2022-04-29_03h09.29.125,classification_task,2021.2.3,Win32,75.48309179,5fa27915a7a32b44f3b2f44a,626b377229c10585ec392f89,626b3a643ea344ef195b0164,,,,,,,,,,,,,,,,,,,,,,,,,,,,,,,,,,,,,,,0, ,,0,7.988438174,453.5417,0,0,0,0,1,2,1,,,,,,,,,,,,,,,,,
,5fa27915a7a32b44f3b2f44a,001,2022-04-29_03h09.29.125,classification_task,2021.2.3,Win32,75.48309179,5fa27915a7a32b44f3b2f44a,626b377229c10585ec392f89,626b3a643ea344ef195b0164,,,,,,,,,,,,,,,,,,,,,,,,,,,,,,,,,,,,,,,1,  ,,0,3.628257888,445.3241,0,0,0,0,1,2,1,,,,,,,,,,,,,,,,,
,5fa27915a7a32b44f3b2f44a,001,2022-04-29_03h09.29.125,classification_task,2021.2.3,Win32,75.48309179,5fa27915a7a32b44f3b2f44a,626b377229c10585ec392f89,626b3a643ea344ef195b0164,,,,,,,,,,,,,,,,,,,,,,,,,,,,,,,,,,,,,,,2,  ,,0,5.661375661,443.968,0,0,0,0,1,2,1,,,,,,,,,,,,,,,,,
,5fa27915a7a32b44f3b2f44a,001,2022-04-29_03h09.29.125,classification_task,2021.2.3,Win32,75.48309179,5fa27915a7a32b44f3b2f44a,626b377229c10585ec392f89,626b3a643ea344ef195b0164,,,,,,,,,,,,,,,,,,,,,,,,,,,,,,,,,,,,,,,,,,,,,0,0,0,0,1,,1,,,,,,,,,,,,,,,,,
,5fa27915a7a32b44f3b2f44a,001,2022-04-29_03h09.29.125,classification_task,2021.2.3,Win32,75.48309179,5fa27915a7a32b44f3b2f44a,626b377229c10585ec392f89,626b3a643ea344ef195b0164,,,,,,,,,,,,,,,,,,,,,space,10.1571,a,1,4.5493,"[""0.605"",""0.353"",""0.875"",""0.930""]","[0,1,1,1]",0,0,0,0,1,0,0,,,1,FALSE,,,,,,,,,,,,,,,,,,,,,,,,,,,,,,
,5fa27915a7a32b44f3b2f44a,001,2022-04-29_03h09.29.125,classification_task,2021.2.3,Win32,75.48309179,5fa27915a7a32b44f3b2f44a,626b377229c10585ec392f89,626b3a643ea344ef195b0164,,,,,,,,,,,,,,,,,,,,,,,l,1,0.8258,"[""0.085"",""0.119"",""0.498"",""0.589""]","[1,1,1,0]",0,1,1,1,1,1,0,,,1,FALSE,,,,,,,,,,,,,,,,,,,,,,,,,,,,,,
,5fa27915a7a32b44f3b2f44a,001,2022-04-29_03h09.29.125,classification_task,2021.2.3,Win32,75.48309179,5fa27915a7a32b44f3b2f44a,626b377229c10585ec392f89,626b3a643ea344ef195b0164,,,,,,,,,,,,,,,,,,,,,,,a,0,4.2027,"[""0.041"",""0.828"",""0.544"",""0.775""]","[1,0,1,1]",0,2,2,2,1,1,1,,,1,FALSE,,,,,,,,,,,,,,,,,,,,,,,,,,,,,,
,5fa27915a7a32b44f3b2f44a,001,2022-04-29_03h09.29.125,classification_task,2021.2.3,Win32,75.48309179,5fa27915a7a32b44f3b2f44a,626b377229c10585ec392f89,626b3a643ea344ef195b0164,,,,,,,,,,,,,,,,,,,,,,,a,1,2.6084,"[""0.304"",""0.353"",""0.623"",""0.930""]","[1,1,0,1]",0,3,3,3,1,0,0,,,1,FALSE,,,,,,,,,,,,,,,,,,,,,,,,,,,,,,
,5fa27915a7a32b44f3b2f44a,001,2022-04-29_03h09.29.125,classification_task,2021.2.3,Win32,75.48309179,5fa27915a7a32b44f3b2f44a,626b377229c10585ec392f89,626b3a643ea344ef195b0164,,,,,,,,,,,,,,,,,,,,,,,a,1,1.1916,"[""0.589"",""0.462"",""0.668"",""0.967""]","[0,1,1,1]",0,4,4,4,1,0,1,,,1,FALSE,,,,,,,,,,,,,,,,,,,,,,,,,,,,,,
,5fa27915a7a32b44f3b2f44a,001,2022-04-29_03h09.29.125,classification_task,2021.2.3,Win32,75.48309179,5fa27915a7a32b44f3b2f44a,626b377229c10585ec392f89,626b3a643ea344ef195b0164,,,,,,,,,,,,,,,,,,,,,,,l,1,1.0369,"[""0.085"",""0.119"",""0.815"",""0.732""]","[1,1,0,1]",0,5,5,5,1,1,0,,,1,FALSE,,,,,,,,,,,,,,,,,,,,,,,,,,,,,,
,5fa27915a7a32b44f3b2f44a,001,2022-04-29_03h09.29.125,classification_task,2021.2.3,Win32,75.48309179,5fa27915a7a32b44f3b2f44a,626b377229c10585ec392f89,626b3a643ea344ef195b0164,,,,,,,,,,,,,,,,,,,,,,,a,1,1.7443,"[""0.225"",""0.462"",""0.832"",""0.967""]","[1,1,0,1]",0,6,6,6,1,0,1,,,1,FALSE,,,,,,,,,,,,,,,,,,,,,,,,,,,,,,
,5fa27915a7a32b44f3b2f44a,001,2022-04-29_03h09.29.125,classification_task,2021.2.3,Win32,75.48309179,5fa27915a7a32b44f3b2f44a,626b377229c10585ec392f89,626b3a643ea344ef195b0164,,,,,,,,,,,,,,,,,,,,,,,l,1,2.0257,"[""0.085"",""0.832"",""0.498"",""0.732""]","[1,0,1,1]",0,7,7,7,1,1,0,,,1,FALSE,,,,,,,,,,,,,,,,,,,,,,,,,,,,,,
,5fa27915a7a32b44f3b2f44a,001,2022-04-29_03h09.29.125,classification_task,2021.2.3,Win32,75.48309179,5fa27915a7a32b44f3b2f44a,626b377229c10585ec392f89,626b3a643ea344ef195b0164,,,,,,,,,,,,,,,,,,,,,,,l,1,0.6492,"[""0.605"",""0.119"",""0.498"",""0.732""]","[0,1,1,1]",0,8,8,8,1,1,0,,,1,FALSE,,,,,,,,,,,,,,,,,,,,,,,,,,,,,,
,5fa27915a7a32b44f3b2f44a,001,2022-04-29_03h09.29.125,classification_task,2021.2.3,Win32,75.48309179,5fa27915a7a32b44f3b2f44a,626b377229c10585ec392f89,626b3a643ea344ef195b0164,,,,,,,,,,,,,,,,,,,,,,,l,1,1.0019,"[""0.041"",""0.409"",""0.544"",""0.612""]","[1,1,1,0]",0,9,9,9,1,1,1,,,1,FALSE,,,,,,,,,,,,,,,,,,,,,,,,,,,,,,
,5fa27915a7a32b44f3b2f44a,001,2022-04-29_03h09.29.125,classification_task,2021.2.3,Win32,75.48309179,5fa27915a7a32b44f3b2f44a,626b377229c10585ec392f89,626b3a643ea344ef195b0164,,,,,,,,,,,,,,,,,,,,,,,a,1,0.6876,"[""0.225"",""0.589"",""0.668"",""0.967""]","[1,0,1,1]",0,10,10,10,1,0,1,,,1,FALSE,,,,,,,,,,,,,,,,,,,,,,,,,,,,,,
,5fa27915a7a32b44f3b2f44a,001,2022-04-29_03h09.29.125,classification_task,2021.2.3,Win32,75.48309179,5fa27915a7a32b44f3b2f44a,626b377229c10585ec392f89,626b3a643ea344ef195b0164,,,,,,,,,,,,,,,,,,,,,,,l,1,0.5551,"[""0.832"",""0.409"",""0.544"",""0.775""]","[0,1,1,1]",0,11,11,11,1,1,1,,,1,FALSE,,,,,,,,,,,,,,,,,,,,,,,,,,,,,,
,5fa27915a7a32b44f3b2f44a,001,2022-04-29_03h09.29.125,classification_task,2021.2.3,Win32,75.48309179,5fa27915a7a32b44f3b2f44a,626b377229c10585ec392f89,626b3a643ea344ef195b0164,,,,,,,,,,,,,,,,,,,,,,,l,1,0.6927,"[""0.041"",""0.409"",""0.585"",""0.775""]","[1,1,0,1]",0,12,12,12,1,1,1,,,1,FALSE,,,,,,,,,,,,,,,,,,,,,,,,,,,,,,
,5fa27915a7a32b44f3b2f44a,001,2022-04-29_03h09.29.125,classification_task,2021.2.3,Win32,75.48309179,5fa27915a7a32b44f3b2f44a,626b377229c10585ec392f89,626b3a643ea344ef195b0164,,,,,,,,,,,,,,,,,,,,,,,a,1,0.6272,"[""0.225"",""0.462"",""0.668"",""0.271""]","[1,1,1,0]",0,13,13,13,1,0,1,,,1,FALSE,,,,,,,,,,,,,,,,,,,,,,,,,,,,,,
,5fa27915a7a32b44f3b2f44a,001,2022-04-29_03h09.29.125,classification_task,2021.2.3,Win32,75.48309179,5fa27915a7a32b44f3b2f44a,626b377229c10585ec392f89,626b3a643ea344ef195b0164,,,,,,,,,,,,,,,,,,,,,,,a,1,1.2846,"[""0.304"",""0.353"",""0.875"",""0.815""]","[1,1,1,0]",0,14,14,14,1,0,0,,,1,FALSE,,,,,,,,,,,,,,,,,,,,,,,,,,,,,,
,5fa27915a7a32b44f3b2f44a,001,2022-04-29_03h09.29.125,classification_task,2021.2.3,Win32,75.48309179,5fa27915a7a32b44f3b2f44a,626b377229c10585ec392f89,626b3a643ea344ef195b0164,,,,,,,,,,,,,,,,,,,,,,,a,1,0.9535,"[""0.304"",""0.815"",""0.875"",""0.930""]","[1,0,1,1]",0,15,15,15,1,0,0,,,1,FALSE,,,,,,,,,,,,,,,,,,,,,,,,,,,,,,
,5fa27915a7a32b44f3b2f44a,001,2022-04-29_03h09.29.125,classification_task,2021.2.3,Win32,75.48309179,5fa27915a7a32b44f3b2f44a,626b377229c10585ec392f89,626b3a643ea344ef195b0164,,,,,,,,,,,,,,,,,,,,,,,a,1,0.6549,"[""0.810"",""0.462"",""0.668"",""0.967""]","[0,1,1,1]",0,16,16,16,1,0,1,,,1,FALSE,,,,,,,,,,,,,,,,,,,,,,,,,,,,,,
,5fa27915a7a32b44f3b2f44a,001,2022-04-29_03h09.29.125,classification_task,2021.2.3,Win32,75.48309179,5fa27915a7a32b44f3b2f44a,626b377229c10585ec392f89,626b3a643ea344ef195b0164,,,,,,,,,,,,,,,,,,,,,,,a,1,0.5013,"[""0.225"",""0.462"",""0.668"",""0.154""]","[1,1,1,0]",0,17,17,17,1,0,1,,,1,FALSE,,,,,,,,,,,,,,,,,,,,,,,,,,,,,,
,5fa27915a7a32b44f3b2f44a,001,2022-04-29_03h09.29.125,classification_task,2021.2.3,Win32,75.48309179,5fa27915a7a32b44f3b2f44a,626b377229c10585ec392f89,626b3a643ea344ef195b0164,,,,,,,,,,,,,,,,,,,,,,,l,1,0.5625,"[""0.154"",""0.409"",""0.544"",""0.775""]","[0,1,1,1]",0,18,18,18,1,1,1,,,1,FALSE,,,,,,,,,,,,,,,,,,,,,,,,,,,,,,
,5fa27915a7a32b44f3b2f44a,001,2022-04-29_03h09.29.125,classification_task,2021.2.3,Win32,75.48309179,5fa27915a7a32b44f3b2f44a,626b377229c10585ec392f89,626b3a643ea344ef195b0164,,,,,,,,,,,,,,,,,,,,,,,a,1,1.1063,"[""0.304"",""0.353"",""0.875"",""0.832""]","[1,1,1,0]",0,19,19,19,1,0,0,,,1,FALSE,,,,,,,,,,,,,,,,,,,,,,,,,,,,,,
,5fa27915a7a32b44f3b2f44a,001,2022-04-29_03h09.29.125,classification_task,2021.2.3,Win32,75.48309179,5fa27915a7a32b44f3b2f44a,626b377229c10585ec392f89,626b3a643ea344ef195b0164,,,,,,,,,,,,,,,,,,,,,,,l,1,0.7453,"[""0.041"",""0.409"",""0.544"",""0.585""]","[1,1,1,0]",0,20,20,20,1,1,1,,,1,FALSE,,,,,,,,,,,,,,,,,,,,,,,,,,,,,,
,5fa27915a7a32b44f3b2f44a,001,2022-04-29_03h09.29.125,classification_task,2021.2.3,Win32,75.48309179,5fa27915a7a32b44f3b2f44a,626b377229c10585ec392f89,626b3a643ea344ef195b0164,,,,,,,,,,,,,,,,,,,,,,,l,1,0.524,"[""0.041"",""0.409"",""0.259"",""0.775""]","[1,1,0,1]",0,21,21,21,1,1,1,,,1,FALSE,,,,,,,,,,,,,,,,,,,,,,,,,,,,,,
,5fa27915a7a32b44f3b2f44a,001,2022-04-29_03h09.29.125,classification_task,2021.2.3,Win32,75.48309179,5fa27915a7a32b44f3b2f44a,626b377229c10585ec392f89,626b3a643ea344ef195b0164,,,,,,,,,,,,,,,,,,,,,,,a,1,0.6622,"[""0.225"",""0.462"",""0.191"",""0.967""]","[1,1,0,1]",0,22,22,22,1,0,1,,,1,FALSE,,,,,,,,,,,,,,,,,,,,,,,,,,,,,,
,5fa27915a7a32b44f3b2f44a,001,2022-04-29_03h09.29.125,classification_task,2021.2.3,Win32,75.48309179,5fa27915a7a32b44f3b2f44a,626b377229c10585ec392f89,626b3a643ea344ef195b0164,,,,,,,,,,,,,,,,,,,,,,,a,1,0.5359,"[""0.225"",""0.180"",""0.668"",""0.967""]","[1,0,1,1]",0,23,23,23,1,0,1,,,1,FALSE,,,,,,,,,,,,,,,,,,,,,,,,,,,,,,
,5fa27915a7a32b44f3b2f44a,001,2022-04-29_03h09.29.125,classification_task,2021.2.3,Win32,75.48309179,5fa27915a7a32b44f3b2f44a,626b377229c10585ec392f89,626b3a643ea344ef195b0164,,,,,,,,,,,,,,,,,,,,,,,l,1,1.0049,"[""0.085"",""0.191"",""0.498"",""0.732""]","[1,0,1,1]",0,24,24,24,1,1,0,,,1,FALSE,,,,,,,,,,,,,,,,,,,,,,,,,,,,,,
,5fa27915a7a32b44f3b2f44a,001,2022-04-29_03h09.29.125,classification_task,2021.2.3,Win32,75.48309179,5fa27915a7a32b44f3b2f44a,626b377229c10585ec392f89,626b3a643ea344ef195b0164,,,,,,,,,,,,,,,,,,,,,,,a,1,0.8824,"[""0.304"",""0.353"",""0.589"",""0.930""]","[1,1,0,1]",0,25,25,25,1,0,0,,,1,FALSE,,,,,,,,,,,,,,,,,,,,,,,,,,,,,,
,5fa27915a7a32b44f3b2f44a,001,2022-04-29_03h09.29.125,classification_task,2021.2.3,Win32,75.48309179,5fa27915a7a32b44f3b2f44a,626b377229c10585ec392f89,626b3a643ea344ef195b0164,,,,,,,,,,,,,,,,,,,,,,,a,1,1.044,"[""0.304"",""0.810"",""0.875"",""0.930""]","[1,0,1,1]",0,26,26,26,1,0,0,,,1,FALSE,,,,,,,,,,,,,,,,,,,,,,,,,,,,,,
,5fa27915a7a32b44f3b2f44a,001,2022-04-29_03h09.29.125,classification_task,2021.2.3,Win32,75.48309179,5fa27915a7a32b44f3b2f44a,626b377229c10585ec392f89,626b3a643ea344ef195b0164,,,,,,,,,,,,,,,,,,,,,,,l,1,0.6844,"[""0.041"",""0.611"",""0.544"",""0.775""]","[1,0,1,1]",0,27,27,27,1,1,1,,,1,FALSE,,,,,,,,,,,,,,,,,,,,,,,,,,,,,,
,5fa27915a7a32b44f3b2f44a,001,2022-04-29_03h09.29.125,classification_task,2021.2.3,Win32,75.48309179,5fa27915a7a32b44f3b2f44a,626b377229c10585ec392f89,626b3a643ea344ef195b0164,,,,,,,,,,,,,,,,,,,,,,,l,1,1.0703,"[""0.085"",""0.119"",""0.159"",""0.732""]","[1,1,0,1]",0,28,28,28,1,1,0,,,1,FALSE,,,,,,,,,,,,,,,,,,,,,,,,,,,,,,
,5fa27915a7a32b44f3b2f44a,001,2022-04-29_03h09.29.125,classification_task,2021.2.3,Win32,75.48309179,5fa27915a7a32b44f3b2f44a,626b377229c10585ec392f89,626b3a643ea344ef195b0164,,,,,,,,,,,,,,,,,,,,,,,a,1,0.8889,"[""0.589"",""0.353"",""0.875"",""0.930""]","[0,1,1,1]",0,29,29,29,1,0,0,,,1,FALSE,,,,,,,,,,,,,,,,,,,,,,,,,,,,,,
,5fa27915a7a32b44f3b2f44a,001,2022-04-29_03h09.29.125,classification_task,2021.2.3,Win32,75.48309179,5fa27915a7a32b44f3b2f44a,626b377229c10585ec392f89,626b3a643ea344ef195b0164,,,,,,,,,,,,,,,,,,,,,,,l,1,0.6926,"[""0.085"",""0.119"",""0.498"",""0.180""]","[1,1,1,0]",0,30,30,30,1,1,0,,,1,FALSE,,,,,,,,,,,,,,,,,,,,,,,,,,,,,,
,5fa27915a7a32b44f3b2f44a,001,2022-04-29_03h09.29.125,classification_task,2021.2.3,Win32,75.48309179,5fa27915a7a32b44f3b2f44a,626b377229c10585ec392f89,626b3a643ea344ef195b0164,,,,,,,,,,,,,,,,,,,,,,,l,1,0.6538,"[""0.154"",""0.119"",""0.498"",""0.732""]","[0,1,1,1]",0,31,31,31,1,1,0,,,1,FALSE,,,,,,,,,,,,,,,,,,,,,,,,,,,,,,
,5fa27915a7a32b44f3b2f44a,001,2022-04-29_03h09.29.125,classification_task,2021.2.3,Win32,75.48309179,5fa27915a7a32b44f3b2f44a,626b377229c10585ec392f89,626b3a643ea344ef195b0164,,,,,,,,,,,,,,,,,,,,,,,a,1,0.9406,"[""0.304"",""0.353"",""0.159"",""0.930""]","[1,1,0,1]",0,32,32,32,1,0,0,,,1,FALSE,,,,,,,,,,,,,,,,,,,,,,,,,,,,,,
,5fa27915a7a32b44f3b2f44a,001,2022-04-29_03h09.29.125,classification_task,2021.2.3,Win32,75.48309179,5fa27915a7a32b44f3b2f44a,626b377229c10585ec392f89,626b3a643ea344ef195b0164,,,,,,,,,,,,,,,,,,,,,,,a,1,0.9533,"[""0.832"",""0.353"",""0.875"",""0.930""]","[0,1,1,1]",0,33,33,33,1,0,0,,,1,FALSE,,,,,,,,,,,,,,,,,,,,,,,,,,,,,,
,5fa27915a7a32b44f3b2f44a,001,2022-04-29_03h09.29.125,classification_task,2021.2.3,Win32,75.48309179,5fa27915a7a32b44f3b2f44a,626b377229c10585ec392f89,626b3a643ea344ef195b0164,,,,,,,,,,,,,,,,,,,,,,,l,1,0.7219,"[""0.085"",""0.119"",""0.498"",""0.623""]","[1,1,1,0]",0,34,34,34,1,1,0,,,1,FALSE,,,,,,,,,,,,,,,,,,,,,,,,,,,,,,
,5fa27915a7a32b44f3b2f44a,001,2022-04-29_03h09.29.125,classification_task,2021.2.3,Win32,75.48309179,5fa27915a7a32b44f3b2f44a,626b377229c10585ec392f89,626b3a643ea344ef195b0164,,,,,,,,,,,,,,,,,,,,,,,a,1,0.7207,"[""0.225"",""0.462"",""0.159"",""0.967""]","[1,1,0,1]",0,35,35,35,1,0,1,,,1,FALSE,,,,,,,,,,,,,,,,,,,,,,,,,,,,,,
,5fa27915a7a32b44f3b2f44a,001,2022-04-29_03h09.29.125,classification_task,2021.2.3,Win32,75.48309179,5fa27915a7a32b44f3b2f44a,626b377229c10585ec392f89,626b3a643ea344ef195b0164,,,,,,,,,,,,,,,,,,,,,,,l,1,0.6552,"[""0.041"",""0.589"",""0.544"",""0.775""]","[1,0,1,1]",0,36,36,36,1,1,1,,,1,FALSE,,,,,,,,,,,,,,,,,,,,,,,,,,,,,,
,5fa27915a7a32b44f3b2f44a,001,2022-04-29_03h09.29.125,classification_task,2021.2.3,Win32,75.48309179,5fa27915a7a32b44f3b2f44a,626b377229c10585ec392f89,626b3a643ea344ef195b0164,,,,,,,,,,,,,,,,,,,,,,,a,1,0.6173,"[""0.225"",""0.462"",""0.668"",""0.832""]","[1,1,1,0]",0,37,37,37,1,0,1,,,1,FALSE,,,,,,,,,,,,,,,,,,,,,,,,,,,,,,
,5fa27915a7a32b44f3b2f44a,001,2022-04-29_03h09.29.125,classification_task,2021.2.3,Win32,75.48309179,5fa27915a7a32b44f3b2f44a,626b377229c10585ec392f89,626b3a643ea344ef195b0164,,,,,,,,,,,,,,,,,,,,,,,l,1,1.2684,"[""0.612"",""0.119"",""0.498"",""0.732""]","[0,1,1,1]",0,38,38,38,1,1,0,,,1,FALSE,,,,,,,,,,,,,,,,,,,,,,,,,,,,,,
,5fa27915a7a32b44f3b2f44a,001,2022-04-29_03h09.29.125,classification_task,2021.2.3,Win32,75.48309179,5fa27915a7a32b44f3b2f44a,626b377229c10585ec392f89,626b3a643ea344ef195b0164,,,,,,,,,,,,,,,,,,,,,,,l,1,0.6787,"[""0.259"",""0.409"",""0.544"",""0.775""]","[0,1,1,1]",0,39,39,39,1,1,1,,,1,FALSE,,,,,,,,,,,,,,,,,,,,,,,,,,,,,,
,5fa27915a7a32b44f3b2f44a,001,2022-04-29_03h09.29.125,classification_task,2021.2.3,Win32,75.48309179,5fa27915a7a32b44f3b2f44a,626b377229c10585ec392f89,626b3a643ea344ef195b0164,,,,,,,,,,,,,,,,,,,,,,,a,1,0.5369,"[""0.271"",""0.462"",""0.668"",""0.967""]","[0,1,1,1]",0,40,40,40,1,0,1,,,1,FALSE,,,,,,,,,,,,,,,,,,,,,,,,,,,,,,
,5fa27915a7a32b44f3b2f44a,001,2022-04-29_03h09.29.125,classification_task,2021.2.3,Win32,75.48309179,5fa27915a7a32b44f3b2f44a,626b377229c10585ec392f89,626b3a643ea344ef195b0164,,,,,,,,,,,,,,,,,,,,,,,l,1,0.9393,"[""0.085"",""0.119"",""0.180"",""0.732""]","[1,1,0,1]",0,41,41,41,1,1,0,,,1,FALSE,,,,,,,,,,,,,,,,,,,,,,,,,,,,,,
,5fa27915a7a32b44f3b2f44a,001,2022-04-29_03h09.29.125,classification_task,2021.2.3,Win32,75.48309179,5fa27915a7a32b44f3b2f44a,626b377229c10585ec392f89,626b3a643ea344ef195b0164,,,,,,,,,,,,,,,,,,,,,,,l,1,0.7948,"[""0.085"",""0.271"",""0.498"",""0.732""]","[1,0,1,1]",0,42,42,42,1,1,0,,,1,FALSE,,,,,,,,,,,,,,,,,,,,,,,,,,,,,,
,5fa27915a7a32b44f3b2f44a,001,2022-04-29_03h09.29.125,classification_task,2021.2.3,Win32,75.48309179,5fa27915a7a32b44f3b2f44a,626b377229c10585ec392f89,626b3a643ea344ef195b0164,,,,,,,,,,,,,,,,,,,,,,,l,1,0.8527,"[""0.041"",""0.409"",""0.611"",""0.775""]","[1,1,0,1]",0,43,43,43,1,1,1,,,1,FALSE,,,,,,,,,,,,,,,,,,,,,,,,,,,,,,
,5fa27915a7a32b44f3b2f44a,001,2022-04-29_03h09.29.125,classification_task,2021.2.3,Win32,75.48309179,5fa27915a7a32b44f3b2f44a,626b377229c10585ec392f89,626b3a643ea344ef195b0164,,,,,,,,,,,,,,,,,,,,,,,l,1,0.6871,"[""0.041"",""0.409"",""0.544"",""0.612""]","[1,1,1,0]",0,44,44,44,1,1,1,,,1,FALSE,,,,,,,,,,,,,,,,,,,,,,,,,,,,,,
,5fa27915a7a32b44f3b2f44a,001,2022-04-29_03h09.29.125,classification_task,2021.2.3,Win32,75.48309179,5fa27915a7a32b44f3b2f44a,626b377229c10585ec392f89,626b3a643ea344ef195b0164,,,,,,,,,,,,,,,,,,,,,,,a,1,0.7514,"[""0.225"",""0.623"",""0.668"",""0.967""]","[1,0,1,1]",0,45,45,45,1,0,1,,,1,FALSE,,,,,,,,,,,,,,,,,,,,,,,,,,,,,,
,5fa27915a7a32b44f3b2f44a,001,2022-04-29_03h09.29.125,classification_task,2021.2.3,Win32,75.48309179,5fa27915a7a32b44f3b2f44a,626b377229c10585ec392f89,626b3a643ea344ef195b0164,,,,,,,,,,,,,,,,,,,,,,,l,0,0.9444,"[""0.304"",""0.353"",""0.875"",""0.623""]","[1,1,1,0]",0,46,46,46,1,0,0,,,1,FALSE,,,,,,,,,,,,,,,,,,,,,,,,,,,,,,
,5fa27915a7a32b44f3b2f44a,001,2022-04-29_03h09.29.125,classification_task,2021.2.3,Win32,75.48309179,5fa27915a7a32b44f3b2f44a,626b377229c10585ec392f89,626b3a643ea344ef195b0164,,,,,,,,,,,,,,,,,,,,,,,a,1,1.0411,"[""0.304"",""0.815"",""0.875"",""0.930""]","[1,0,1,1]",0,47,47,47,1,0,0,,,1,FALSE,,,,,,,,,,,,,,,,,,,,,,,,,,,,,,
,5fa27915a7a32b44f3b2f44a,001,2022-04-29_03h09.29.125,classification_task,2021.2.3,Win32,75.48309179,5fa27915a7a32b44f3b2f44a,626b377229c10585ec392f89,626b3a643ea344ef195b0164,,,,,,,,,,,,,,,,,,,,,,,l,1,0.8156,"[""0.085"",""0.180"",""0.498"",""0.732""]","[1,0,1,1]",0,48,48,48,1,1,0,,,1,FALSE,,,,,,,,,,,,,,,,,,,,,,,,,,,,,,
,5fa27915a7a32b44f3b2f44a,001,2022-04-29_03h09.29.125,classification_task,2021.2.3,Win32,75.48309179,5fa27915a7a32b44f3b2f44a,626b377229c10585ec392f89,626b3a643ea344ef195b0164,,,,,,,,,,,,,,,,,,,,,,,l,1,1.5515,"[""0.605"",""0.119"",""0.498"",""0.732""]","[0,1,1,1]",0,49,49,49,1,1,0,,,1,FALSE,,,,,,,,,,,,,,,,,,,,,,,,,,,,,,
,5fa27915a7a32b44f3b2f44a,001,2022-04-29_03h09.29.125,classification_task,2021.2.3,Win32,75.48309179,5fa27915a7a32b44f3b2f44a,626b377229c10585ec392f89,626b3a643ea344ef195b0164,,,,,,,,,,,,,,,,,,,,,,,l,0,0.6541,"[""0.589"",""0.353"",""0.875"",""0.930""]","[0,1,1,1]",0,50,50,50,1,0,0,,,1,FALSE,,,,,,,,,,,,,,,,,,,,,,,,,,,,,,
,5fa27915a7a32b44f3b2f44a,001,2022-04-29_03h09.29.125,classification_task,2021.2.3,Win32,75.48309179,5fa27915a7a32b44f3b2f44a,626b377229c10585ec392f89,626b3a643ea344ef195b0164,,,,,,,,,,,,,,,,,,,,,,,l,0,1.0436,"[""0.304"",""0.353"",""0.623"",""0.930""]","[1,1,0,1]",0,51,51,51,1,0,0,,,1,FALSE,,,,,,,,,,,,,,,,,,,,,,,,,,,,,,
,5fa27915a7a32b44f3b2f44a,001,2022-04-29_03h09.29.125,classification_task,2021.2.3,Win32,75.48309179,5fa27915a7a32b44f3b2f44a,626b377229c10585ec392f89,626b3a643ea344ef195b0164,,,,,,,,,,,,,,,,,,,,,,,l,1,0.9393,"[""0.041"",""0.409"",""0.810"",""0.775""]","[1,1,0,1]",0,52,52,52,1,1,1,,,1,FALSE,,,,,,,,,,,,,,,,,,,,,,,,,,,,,,
,5fa27915a7a32b44f3b2f44a,001,2022-04-29_03h09.29.125,classification_task,2021.2.3,Win32,75.48309179,5fa27915a7a32b44f3b2f44a,626b377229c10585ec392f89,626b3a643ea344ef195b0164,,,,,,,,,,,,,,,,,,,,,,,l,1,0.8586,"[""0.041"",""0.810"",""0.544"",""0.775""]","[1,0,1,1]",0,53,53,53,1,1,1,,,1,FALSE,,,,,,,,,,,,,,,,,,,,,,,,,,,,,,
,5fa27915a7a32b44f3b2f44a,001,2022-04-29_03h09.29.125,classification_task,2021.2.3,Win32,75.48309179,5fa27915a7a32b44f3b2f44a,626b377229c10585ec392f89,626b3a643ea344ef195b0164,,,,,,,,,,,,,,,,,,,,,,,l,0,0.9731,"[""0.304"",""0.353"",""0.875"",""0.154""]","[1,1,1,0]",0,54,54,54,1,0,0,,,1,FALSE,,,,,,,,,,,,,,,,,,,,,,,,,,,,,,
,5fa27915a7a32b44f3b2f44a,001,2022-04-29_03h09.29.125,classification_task,2021.2.3,Win32,75.48309179,5fa27915a7a32b44f3b2f44a,626b377229c10585ec392f89,626b3a643ea344ef195b0164,,,,,,,,,,,,,,,,,,,,,,,l,0,0.7232,"[""0.225"",""0.605"",""0.668"",""0.967""]","[1,0,1,1]",0,55,55,55,1,0,1,,,1,FALSE,,,,,,,,,,,,,,,,,,,,,,,,,,,,,,
,5fa27915a7a32b44f3b2f44a,001,2022-04-29_03h09.29.125,classification_task,2021.2.3,Win32,75.48309179,5fa27915a7a32b44f3b2f44a,626b377229c10585ec392f89,626b3a643ea344ef195b0164,,,,,,,,,,,,,,,,,,,,,,,a,0,1.2299,"[""0.589"",""0.409"",""0.544"",""0.775""]","[0,1,1,1]",0,56,56,56,1,1,1,,,1,FALSE,,,,,,,,,,,,,,,,,,,,,,,,,,,,,,
,5fa27915a7a32b44f3b2f44a,001,2022-04-29_03h09.29.125,classification_task,2021.2.3,Win32,75.48309179,5fa27915a7a32b44f3b2f44a,626b377229c10585ec392f89,626b3a643ea344ef195b0164,,,,,,,,,,,,,,,,,,,,,,,l,1,0.9481,"[""0.085"",""0.119"",""0.498"",""0.585""]","[1,1,1,0]",0,57,57,57,1,1,0,,,1,FALSE,,,,,,,,,,,,,,,,,,,,,,,,,,,,,,
,5fa27915a7a32b44f3b2f44a,001,2022-04-29_03h09.29.125,classification_task,2021.2.3,Win32,75.48309179,5fa27915a7a32b44f3b2f44a,626b377229c10585ec392f89,626b3a643ea344ef195b0164,,,,,,,,,,,,,,,,,,,,,,,a,1,0.7809,"[""0.304"",""0.589"",""0.875"",""0.930""]","[1,0,1,1]",0,58,58,58,1,0,0,,,1,FALSE,,,,,,,,,,,,,,,,,,,,,,,,,,,,,,
,5fa27915a7a32b44f3b2f44a,001,2022-04-29_03h09.29.125,classification_task,2021.2.3,Win32,75.48309179,5fa27915a7a32b44f3b2f44a,626b377229c10585ec392f89,626b3a643ea344ef195b0164,,,,,,,,,,,,,,,,,,,,,,,a,1,1.5931,"[""0.225"",""0.462"",""0.180"",""0.967""]","[1,1,0,1]",0,59,59,59,1,0,1,,,1,FALSE,,,,,,,,,,,,,,,,,,,,,,,,,,,,,,
,5fa27915a7a32b44f3b2f44a,001,2022-04-29_03h09.29.125,classification_task,2021.2.3,Win32,75.48309179,5fa27915a7a32b44f3b2f44a,626b377229c10585ec392f89,626b3a643ea344ef195b0164,,,,,,,,,,,,,,,,,,,,,,,a,1,0.5941,"[""0.225"",""0.462"",""0.668"",""0.191""]","[1,1,1,0]",0,60,60,60,1,0,1,,,1,FALSE,,,,,,,,,,,,,,,,,,,,,,,,,,,,,,
,5fa27915a7a32b44f3b2f44a,001,2022-04-29_03h09.29.125,classification_task,2021.2.3,Win32,75.48309179,5fa27915a7a32b44f3b2f44a,626b377229c10585ec392f89,626b3a643ea344ef195b0164,,,,,,,,,,,,,,,,,,,,,,,l,0,1.2733,"[""0.259"",""0.462"",""0.668"",""0.967""]","[0,1,1,1]",0,61,61,61,1,0,1,,,1,FALSE,,,,,,,,,,,,,,,,,,,,,,,,,,,,,,
,5fa27915a7a32b44f3b2f44a,001,2022-04-29_03h09.29.125,classification_task,2021.2.3,Win32,75.48309179,5fa27915a7a32b44f3b2f44a,626b377229c10585ec392f89,626b3a643ea344ef195b0164,,,,,,,,,,,,,,,,,,,,,,,l,1,1.1693,"[""0.041"",""0.409"",""0.544"",""0.623""]","[1,1,1,0]",0,62,62,62,1,1,1,,,1,FALSE,,,,,,,,,,,,,,,,,,,,,,,,,,,,,,
,5fa27915a7a32b44f3b2f44a,001,2022-04-29_03h09.29.125,classification_task,2021.2.3,Win32,75.48309179,5fa27915a7a32b44f3b2f44a,626b377229c10585ec392f89,626b3a643ea344ef195b0164,,,,,,,,,,,,,,,,,,,,,,,l,1,0.9201,"[""0.085"",""0.119"",""0.154"",""0.732""]","[1,1,0,1]",0,63,63,63,1,1,0,,,1,FALSE,,,,,,,,,,,,,,,,,,,,,,,,,,,,,,
,5fa27915a7a32b44f3b2f44a,001,2022-04-29_03h09.29.125,classification_task,2021.2.3,Win32,75.48309179,5fa27915a7a32b44f3b2f44a,626b377229c10585ec392f89,626b3a643ea344ef195b0164,,,,,,,,,,,,,,,,,,,,,,,,,,,,,,,,,,,,,,,0, ,,0,6.469723692,147.6861,0,1,1,1,1,2,2,,,,,,,,,,,,,,,,,
,5fa27915a7a32b44f3b2f44a,001,2022-04-29_03h09.29.125,classification_task,2021.2.3,Win32,75.48309179,5fa27915a7a32b44f3b2f44a,626b377229c10585ec392f89,626b3a643ea344ef195b0164,,,,,,,,,,,,,,,,,,,,,,,,,,,,,,,,,,,,,,,1,  ,,0,1.987066432,150.5475,0,1,1,1,1,2,2,,,,,,,,,,,,,,,,,
,5fa27915a7a32b44f3b2f44a,001,2022-04-29_03h09.29.125,classification_task,2021.2.3,Win32,75.48309179,5fa27915a7a32b44f3b2f44a,626b377229c10585ec392f89,626b3a643ea344ef195b0164,,,,,,,,,,,,,,,,,,,,,,,,,,,,,,,,,,,,,,,2,  ,,0,5.808348031,156.9962,0,1,1,1,1,2,2,,,,,,,,,,,,,,,,,
,5fa27915a7a32b44f3b2f44a,001,2022-04-29_03h09.29.125,classification_task,2021.2.3,Win32,75.48309179,5fa27915a7a32b44f3b2f44a,626b377229c10585ec392f89,626b3a643ea344ef195b0164,,,,,,,,,,,,,,,,,,,,,,,,,,,,,,,,,,,,,,,,,,,,,0,1,1,1,1,,2,,,,,,,,,,,,,,,,,
,5fa27915a7a32b44f3b2f44a,001,2022-04-29_03h09.29.125,classification_task,2021.2.3,Win32,75.48309179,5fa27915a7a32b44f3b2f44a,626b377229c10585ec392f89,626b3a643ea344ef195b0164,,,,,,,,,,,,,,,,,,,,,space,2.6379,a,1,1.5201,"[""0.225"",""0.462"",""0.668"",""0.259""]","[1,1,1,0]",0,0,0,0,1,0,1,,,1,FALSE,,,,,,,,,,,,,,,,,,,,,,,,,,,,,,
,5fa27915a7a32b44f3b2f44a,001,2022-04-29_03h09.29.125,classification_task,2021.2.3,Win32,75.48309179,5fa27915a7a32b44f3b2f44a,626b377229c10585ec392f89,626b3a643ea344ef195b0164,,,,,,,,,,,,,,,,,,,,,,,l,1,1.0282,"[""0.180"",""0.119"",""0.498"",""0.732""]","[0,1,1,1]",0,1,1,1,1,1,0,,,1,FALSE,,,,,,,,,,,,,,,,,,,,,,,,,,,,,,
,5fa27915a7a32b44f3b2f44a,001,2022-04-29_03h09.29.125,classification_task,2021.2.3,Win32,75.48309179,5fa27915a7a32b44f3b2f44a,626b377229c10585ec392f89,626b3a643ea344ef195b0164,,,,,,,,,,,,,,,,,,,,,,,l,0,2.3307,"[""0.304"",""0.154"",""0.875"",""0.930""]","[1,0,1,1]",0,2,2,2,1,0,0,,,1,FALSE,,,,,,,,,,,,,,,,,,,,,,,,,,,,,,
,5fa27915a7a32b44f3b2f44a,001,2022-04-29_03h09.29.125,classification_task,2021.2.3,Win32,75.48309179,5fa27915a7a32b44f3b2f44a,626b377229c10585ec392f89,626b3a643ea344ef195b0164,,,,,,,,,,,,,,,,,,,,,,,l,1,2.5231,"[""0.041"",""0.409"",""0.544"",""0.612""]","[1,1,1,0]",0,3,3,3,1,1,1,,,1,FALSE,,,,,,,,,,,,,,,,,,,,,,,,,,,,,,
,5fa27915a7a32b44f3b2f44a,001,2022-04-29_03h09.29.125,classification_task,2021.2.3,Win32,75.48309179,5fa27915a7a32b44f3b2f44a,626b377229c10585ec392f89,626b3a643ea344ef195b0164,,,,,,,,,,,,,,,,,,,,,,,a,1,0.9755,"[""0.225"",""0.462"",""0.828"",""0.967""]","[1,1,0,1]",0,4,4,4,1,0,1,,,1,FALSE,,,,,,,,,,,,,,,,,,,,,,,,,,,,,,
,5fa27915a7a32b44f3b2f44a,001,2022-04-29_03h09.29.125,classification_task,2021.2.3,Win32,75.48309179,5fa27915a7a32b44f3b2f44a,626b377229c10585ec392f89,626b3a643ea344ef195b0164,,,,,,,,,,,,,,,,,,,,,,,l,1,0.8822,"[""0.085"",""0.119"",""0.623"",""0.732""]","[1,1,0,1]",0,5,5,5,1,1,0,,,1,FALSE,,,,,,,,,,,,,,,,,,,,,,,,,,,,,,
,5fa27915a7a32b44f3b2f44a,001,2022-04-29_03h09.29.125,classification_task,2021.2.3,Win32,75.48309179,5fa27915a7a32b44f3b2f44a,626b377229c10585ec392f89,626b3a643ea344ef195b0164,,,,,,,,,,,,,,,,,,,,,,,a,1,1.0399,"[""0.225"",""0.612"",""0.668"",""0.967""]","[1,0,1,1]",0,6,6,6,1,0,1,,,1,FALSE,,,,,,,,,,,,,,,,,,,,,,,,,,,,,,
,5fa27915a7a32b44f3b2f44a,001,2022-04-29_03h09.29.125,classification_task,2021.2.3,Win32,75.48309179,5fa27915a7a32b44f3b2f44a,626b377229c10585ec392f89,626b3a643ea344ef195b0164,,,,,,,,,,,,,,,,,,,,,,,l,1,1.2312,"[""0.041"",""0.623"",""0.544"",""0.775""]","[1,0,1,1]",0,7,7,7,1,1,1,,,1,FALSE,,,,,,,,,,,,,,,,,,,,,,,,,,,,,,
,5fa27915a7a32b44f3b2f44a,001,2022-04-29_03h09.29.125,classification_task,2021.2.3,Win32,75.48309179,5fa27915a7a32b44f3b2f44a,626b377229c10585ec392f89,626b3a643ea344ef195b0164,,,,,,,,,,,,,,,,,,,,,,,a,0,1.4942,"[""0.589"",""0.409"",""0.544"",""0.775""]","[0,1,1,1]",0,8,8,8,1,1,1,,,1,FALSE,,,,,,,,,,,,,,,,,,,,,,,,,,,,,,
,5fa27915a7a32b44f3b2f44a,001,2022-04-29_03h09.29.125,classification_task,2021.2.3,Win32,75.48309179,5fa27915a7a32b44f3b2f44a,626b377229c10585ec392f89,626b3a643ea344ef195b0164,,,,,,,,,,,,,,,,,,,,,,,a,1,1.1931,"[""0.304"",""0.353"",""0.271"",""0.930""]","[1,1,0,1]",0,9,9,9,1,0,0,,,1,FALSE,,,,,,,,,,,,,,,,,,,,,,,,,,,,,,
,5fa27915a7a32b44f3b2f44a,001,2022-04-29_03h09.29.125,classification_task,2021.2.3,Win32,75.48309179,5fa27915a7a32b44f3b2f44a,626b377229c10585ec392f89,626b3a643ea344ef195b0164,,,,,,,,,,,,,,,,,,,,,,,l,1,1.4341,"[""0.041"",""0.409"",""0.180"",""0.775""]","[1,1,0,1]",0,10,10,10,1,1,1,,,1,FALSE,,,,,,,,,,,,,,,,,,,,,,,,,,,,,,
,5fa27915a7a32b44f3b2f44a,001,2022-04-29_03h09.29.125,classification_task,2021.2.3,Win32,75.48309179,5fa27915a7a32b44f3b2f44a,626b377229c10585ec392f89,626b3a643ea344ef195b0164,,,,,,,,,,,,,,,,,,,,,,,l,1,0.7826,"[""0.085"",""0.119"",""0.498"",""0.191""]","[1,1,1,0]",0,11,11,11,1,1,0,,,1,FALSE,,,,,,,,,,,,,,,,,,,,,,,,,,,,,,
,5fa27915a7a32b44f3b2f44a,001,2022-04-29_03h09.29.125,classification_task,2021.2.3,Win32,75.48309179,5fa27915a7a32b44f3b2f44a,626b377229c10585ec392f89,626b3a643ea344ef195b0164,,,,,,,,,,,,,,,,,,,,,,,a,1,0.8817,"[""0.304"",""0.353"",""0.875"",""0.585""]","[1,1,1,0]",0,12,12,12,1,0,0,,,1,FALSE,,,,,,,,,,,,,,,,,,,,,,,,,,,,,,
,5fa27915a7a32b44f3b2f44a,001,2022-04-29_03h09.29.125,classification_task,2021.2.3,Win32,75.48309179,5fa27915a7a32b44f3b2f44a,626b377229c10585ec392f89,626b3a643ea344ef195b0164,,,,,,,,,,,,,,,,,,,,,,,l,1,1.1635,"[""0.085"",""0.585"",""0.498"",""0.732""]","[1,0,1,1]",0,13,13,13,1,1,0,,,1,FALSE,,,,,,,,,,,,,,,,,,,,,,,,,,,,,,
,5fa27915a7a32b44f3b2f44a,001,2022-04-29_03h09.29.125,classification_task,2021.2.3,Win32,75.48309179,5fa27915a7a32b44f3b2f44a,626b377229c10585ec392f89,626b3a643ea344ef195b0164,,,,,,,,,,,,,,,,,,,,,,,a,1,3.8563,"[""0.154"",""0.353"",""0.875"",""0.930""]","[0,1,1,1]",0,14,14,14,1,0,0,,,1,FALSE,,,,,,,,,,,,,,,,,,,,,,,,,,,,,,
,5fa27915a7a32b44f3b2f44a,001,2022-04-29_03h09.29.125,classification_task,2021.2.3,Win32,75.48309179,5fa27915a7a32b44f3b2f44a,626b377229c10585ec392f89,626b3a643ea344ef195b0164,,,,,,,,,,,,,,,,,,,,,,,l,0,2.0682,"[""0.271"",""0.462"",""0.668"",""0.967""]","[0,1,1,1]",0,15,15,15,1,0,1,,,1,FALSE,,,,,,,,,,,,,,,,,,,,,,,,,,,,,,
,5fa27915a7a32b44f3b2f44a,001,2022-04-29_03h09.29.125,classification_task,2021.2.3,Win32,75.48309179,5fa27915a7a32b44f3b2f44a,626b377229c10585ec392f89,626b3a643ea344ef195b0164,,,,,,,,,,,,,,,,,,,,,,,a,0,1.0028,"[""0.041"",""0.612"",""0.544"",""0.775""]","[1,0,1,1]",0,16,16,16,1,1,1,,,1,FALSE,,,,,,,,,,,,,,,,,,,,,,,,,,,,,,
,5fa27915a7a32b44f3b2f44a,001,2022-04-29_03h09.29.125,classification_task,2021.2.3,Win32,75.48309179,5fa27915a7a32b44f3b2f44a,626b377229c10585ec392f89,626b3a643ea344ef195b0164,,,,,,,,,,,,,,,,,,,,,,,l,1,1.3061,"[""0.191"",""0.409"",""0.544"",""0.775""]","[0,1,1,1]",0,17,17,17,1,1,1,,,1,FALSE,,,,,,,,,,,,,,,,,,,,,,,,,,,,,,
,5fa27915a7a32b44f3b2f44a,001,2022-04-29_03h09.29.125,classification_task,2021.2.3,Win32,75.48309179,5fa27915a7a32b44f3b2f44a,626b377229c10585ec392f89,626b3a643ea344ef195b0164,,,,,,,,,,,,,,,,,,,,,,,a,1,0.6824,"[""0.225"",""0.271"",""0.668"",""0.967""]","[1,0,1,1]",0,18,18,18,1,0,1,,,1,FALSE,,,,,,,,,,,,,,,,,,,,,,,,,,,,,,
,5fa27915a7a32b44f3b2f44a,001,2022-04-29_03h09.29.125,classification_task,2021.2.3,Win32,75.48309179,5fa27915a7a32b44f3b2f44a,626b377229c10585ec392f89,626b3a643ea344ef195b0164,,,,,,,,,,,,,,,,,,,,,,,l,1,1.0816,"[""0.085"",""0.119"",""0.498"",""0.810""]","[1,1,1,0]",0,19,19,19,1,1,0,,,1,FALSE,,,,,,,,,,,,,,,,,,,,,,,,,,,,,,
,5fa27915a7a32b44f3b2f44a,001,2022-04-29_03h09.29.125,classification_task,2021.2.3,Win32,75.48309179,5fa27915a7a32b44f3b2f44a,626b377229c10585ec392f89,626b3a643ea344ef195b0164,,,,,,,,,,,,,,,,,,,,,,,a,0,1.6412,"[""0.085"",""0.605"",""0.498"",""0.732""]","[1,0,1,1]",0,20,20,20,1,1,0,,,1,FALSE,,,,,,,,,,,,,,,,,,,,,,,,,,,,,,
,5fa27915a7a32b44f3b2f44a,001,2022-04-29_03h09.29.125,classification_task,2021.2.3,Win32,75.48309179,5fa27915a7a32b44f3b2f44a,626b377229c10585ec392f89,626b3a643ea344ef195b0164,,,,,,,,,,,,,,,,,,,,,,,a,1,2.2886,"[""0.304"",""0.353"",""0.611"",""0.930""]","[1,1,0,1]",0,21,21,21,1,0,0,,,1,FALSE,,,,,,,,,,,,,,,,,,,,,,,,,,,,,,
,5fa27915a7a32b44f3b2f44a,001,2022-04-29_03h09.29.125,classification_task,2021.2.3,Win32,75.48309179,5fa27915a7a32b44f3b2f44a,626b377229c10585ec392f89,626b3a643ea344ef195b0164,,,,,,,,,,,,,,,,,,,,,,,l,1,0.9168,"[""0.041"",""0.409"",""0.159"",""0.775""]","[1,1,0,1]",0,22,22,22,1,1,1,,,1,FALSE,,,,,,,,,,,,,,,,,,,,,,,,,,,,,,
,5fa27915a7a32b44f3b2f44a,001,2022-04-29_03h09.29.125,classification_task,2021.2.3,Win32,75.48309179,5fa27915a7a32b44f3b2f44a,626b377229c10585ec392f89,626b3a643ea344ef195b0164,,,,,,,,,,,,,,,,,,,,,,,a,1,1.8402,"[""0.585"",""0.462"",""0.668"",""0.967""]","[0,1,1,1]",0,23,23,23,1,0,1,,,1,FALSE,,,,,,,,,,,,,,,,,,,,,,,,,,,,,,
,5fa27915a7a32b44f3b2f44a,001,2022-04-29_03h09.29.125,classification_task,2021.2.3,Win32,75.48309179,5fa27915a7a32b44f3b2f44a,626b377229c10585ec392f89,626b3a643ea344ef195b0164,,,,,,,,,,,,,,,,,,,,,,,a,1,1.8067,"[""0.304"",""0.353"",""0.875"",""0.623""]","[1,1,1,0]",0,24,24,24,1,0,0,,,1,FALSE,,,,,,,,,,,,,,,,,,,,,,,,,,,,,,
,5fa27915a7a32b44f3b2f44a,001,2022-04-29_03h09.29.125,classification_task,2021.2.3,Win32,75.48309179,5fa27915a7a32b44f3b2f44a,626b377229c10585ec392f89,626b3a643ea344ef195b0164,,,,,,,,,,,,,,,,,,,,,,,l,1,1.2965,"[""0.041"",""0.409"",""0.544"",""0.623""]","[1,1,1,0]",0,25,25,25,1,1,1,,,1,FALSE,,,,,,,,,,,,,,,,,,,,,,,,,,,,,,
,5fa27915a7a32b44f3b2f44a,001,2022-04-29_03h09.29.125,classification_task,2021.2.3,Win32,75.48309179,5fa27915a7a32b44f3b2f44a,626b377229c10585ec392f89,626b3a643ea344ef195b0164,,,,,,,,,,,,,,,,,,,,,,,a,1,1.1999,"[""0.225"",""0.462"",""0.159"",""0.967""]","[1,1,0,1]",0,26,26,26,1,0,1,,,1,FALSE,,,,,,,,,,,,,,,,,,,,,,,,,,,,,,
,5fa27915a7a32b44f3b2f44a,001,2022-04-29_03h09.29.125,classification_task,2021.2.3,Win32,75.48309179,5fa27915a7a32b44f3b2f44a,626b377229c10585ec392f89,626b3a643ea344ef195b0164,,,,,,,,,,,,,,,,,,,,,,,l,1,1.5282,"[""0.832"",""0.119"",""0.498"",""0.732""]","[0,1,1,1]",0,27,27,27,1,1,0,,,1,FALSE,,,,,,,,,,,,,,,,,,,,,,,,,,,,,,
,5fa27915a7a32b44f3b2f44a,001,2022-04-29_03h09.29.125,classification_task,2021.2.3,Win32,75.48309179,5fa27915a7a32b44f3b2f44a,626b377229c10585ec392f89,626b3a643ea344ef195b0164,,,,,,,,,,,,,,,,,,,,,,,l,0,1.2018,"[""0.154"",""0.353"",""0.875"",""0.930""]","[0,1,1,1]",0,28,28,28,1,0,0,,,1,FALSE,,,,,,,,,,,,,,,,,,,,,,,,,,,,,,
,5fa27915a7a32b44f3b2f44a,001,2022-04-29_03h09.29.125,classification_task,2021.2.3,Win32,75.48309179,5fa27915a7a32b44f3b2f44a,626b377229c10585ec392f89,626b3a643ea344ef195b0164,,,,,,,,,,,,,,,,,,,,,,,l,1,0.7563,"[""0.085"",""0.119"",""0.832"",""0.732""]","[1,1,0,1]",0,29,29,29,1,1,0,,,1,FALSE,,,,,,,,,,,,,,,,,,,,,,,,,,,,,,
,5fa27915a7a32b44f3b2f44a,001,2022-04-29_03h09.29.125,classification_task,2021.2.3,Win32,75.48309179,5fa27915a7a32b44f3b2f44a,626b377229c10585ec392f89,626b3a643ea344ef195b0164,,,,,,,,,,,,,,,,,,,,,,,a,1,0.9477,"[""0.225"",""0.462"",""0.668"",""0.154""]","[1,1,1,0]",0,30,30,30,1,0,1,,,1,FALSE,,,,,,,,,,,,,,,,,,,,,,,,,,,,,,
,5fa27915a7a32b44f3b2f44a,001,2022-04-29_03h09.29.125,classification_task,2021.2.3,Win32,75.48309179,5fa27915a7a32b44f3b2f44a,626b377229c10585ec392f89,626b3a643ea344ef195b0164,,,,,,,,,,,,,,,,,,,,,,,a,1,2.4188,"[""0.304"",""0.159"",""0.875"",""0.930""]","[1,0,1,1]",0,31,31,31,1,0,0,,,1,FALSE,,,,,,,,,,,,,,,,,,,,,,,,,,,,,,
,5fa27915a7a32b44f3b2f44a,001,2022-04-29_03h09.29.125,classification_task,2021.2.3,Win32,75.48309179,5fa27915a7a32b44f3b2f44a,626b377229c10585ec392f89,626b3a643ea344ef195b0164,,,,,,,,,,,,,,,,,,,,,,,a,1,0.9051,"[""0.225"",""0.462"",""0.585"",""0.967""]","[1,1,0,1]",0,32,32,32,1,0,1,,,1,FALSE,,,,,,,,,,,,,,,,,,,,,,,,,,,,,,
,5fa27915a7a32b44f3b2f44a,001,2022-04-29_03h09.29.125,classification_task,2021.2.3,Win32,75.48309179,5fa27915a7a32b44f3b2f44a,626b377229c10585ec392f89,626b3a643ea344ef195b0164,,,,,,,,,,,,,,,,,,,,,,,l,1,1.4624,"[""0.085"",""0.271"",""0.498"",""0.732""]","[1,0,1,1]",0,33,33,33,1,1,0,,,1,FALSE,,,,,,,,,,,,,,,,,,,,,,,,,,,,,,
,5fa27915a7a32b44f3b2f44a,001,2022-04-29_03h09.29.125,classification_task,2021.2.3,Win32,75.48309179,5fa27915a7a32b44f3b2f44a,626b377229c10585ec392f89,626b3a643ea344ef195b0164,,,,,,,,,,,,,,,,,,,,,,,l,0,0.66,"[""0.304"",""0.353"",""0.191"",""0.930""]","[1,1,0,1]",0,34,34,34,1,0,0,,,1,FALSE,,,,,,,,,,,,,,,,,,,,,,,,,,,,,,
,5fa27915a7a32b44f3b2f44a,001,2022-04-29_03h09.29.125,classification_task,2021.2.3,Win32,75.48309179,5fa27915a7a32b44f3b2f44a,626b377229c10585ec392f89,626b3a643ea344ef195b0164,,,,,,,,,,,,,,,,,,,,,,,a,0,0.6689,"[""0.154"",""0.409"",""0.544"",""0.775""]","[0,1,1,1]",0,35,35,35,1,1,1,,,1,FALSE,,,,,,,,,,,,,,,,,,,,,,,,,,,,,,
,5fa27915a7a32b44f3b2f44a,001,2022-04-29_03h09.29.125,classification_task,2021.2.3,Win32,75.48309179,5fa27915a7a32b44f3b2f44a,626b377229c10585ec392f89,626b3a643ea344ef195b0164,,,,,,,,,,,,,,,,,,,,,,,a,1,0.6805,"[""0.225"",""0.462"",""0.668"",""0.810""]","[1,1,1,0]",0,36,36,36,1,0,1,,,1,FALSE,,,,,,,,,,,,,,,,,,,,,,,,,,,,,,
,5fa27915a7a32b44f3b2f44a,001,2022-04-29_03h09.29.125,classification_task,2021.2.3,Win32,75.48309179,5fa27915a7a32b44f3b2f44a,626b377229c10585ec392f89,626b3a643ea344ef195b0164,,,,,,,,,,,,,,,,,,,,,,,l,0,0.9144,"[""0.304"",""0.589"",""0.875"",""0.930""]","[1,0,1,1]",0,37,37,37,1,0,0,,,1,FALSE,,,,,,,,,,,,,,,,,,,,,,,,,,,,,,
,5fa27915a7a32b44f3b2f44a,001,2022-04-29_03h09.29.125,classification_task,2021.2.3,Win32,75.48309179,5fa27915a7a32b44f3b2f44a,626b377229c10585ec392f89,626b3a643ea344ef195b0164,,,,,,,,,,,,,,,,,,,,,,,l,1,1.2337,"[""0.041"",""0.409"",""0.605"",""0.775""]","[1,1,0,1]",0,38,38,38,1,1,1,,,1,FALSE,,,,,,,,,,,,,,,,,,,,,,,,,,,,,,
,5fa27915a7a32b44f3b2f44a,001,2022-04-29_03h09.29.125,classification_task,2021.2.3,Win32,75.48309179,5fa27915a7a32b44f3b2f44a,626b377229c10585ec392f89,626b3a643ea344ef195b0164,,,,,,,,,,,,,,,,,,,,,,,l,1,1.3373,"[""0.180"",""0.119"",""0.498"",""0.732""]","[0,1,1,1]",0,39,39,39,1,1,0,,,1,FALSE,,,,,,,,,,,,,,,,,,,,,,,,,,,,,,
,5fa27915a7a32b44f3b2f44a,001,2022-04-29_03h09.29.125,classification_task,2021.2.3,Win32,75.48309179,5fa27915a7a32b44f3b2f44a,626b377229c10585ec392f89,626b3a643ea344ef195b0164,,,,,,,,,,,,,,,,,,,,,,,a,0,0.776,"[""0.041"",""0.612"",""0.544"",""0.775""]","[1,0,1,1]",0,40,40,40,1,1,1,,,1,FALSE,,,,,,,,,,,,,,,,,,,,,,,,,,,,,,
,5fa27915a7a32b44f3b2f44a,001,2022-04-29_03h09.29.125,classification_task,2021.2.3,Win32,75.48309179,5fa27915a7a32b44f3b2f44a,626b377229c10585ec392f89,626b3a643ea344ef195b0164,,,,,,,,,,,,,,,,,,,,,,,l,1,0.7542,"[""0.041"",""0.409"",""0.544"",""0.810""]","[1,1,1,0]",0,41,41,41,1,1,1,,,1,FALSE,,,,,,,,,,,,,,,,,,,,,,,,,,,,,,
,5fa27915a7a32b44f3b2f44a,001,2022-04-29_03h09.29.125,classification_task,2021.2.3,Win32,75.48309179,5fa27915a7a32b44f3b2f44a,626b377229c10585ec392f89,626b3a643ea344ef195b0164,,,,,,,,,,,,,,,,,,,,,,,l,1,2.2306,"[""0.085"",""0.119"",""0.810"",""0.732""]","[1,1,0,1]",0,42,42,42,1,1,0,,,1,FALSE,,,,,,,,,,,,,,,,,,,,,,,,,,,,,,
,5fa27915a7a32b44f3b2f44a,001,2022-04-29_03h09.29.125,classification_task,2021.2.3,Win32,75.48309179,5fa27915a7a32b44f3b2f44a,626b377229c10585ec392f89,626b3a643ea344ef195b0164,,,,,,,,,,,,,,,,,,,,,,,a,1,1.0119,"[""0.225"",""0.259"",""0.668"",""0.967""]","[1,0,1,1]",0,43,43,43,1,0,1,,,1,FALSE,,,,,,,,,,,,,,,,,,,,,,,,,,,,,,
,5fa27915a7a32b44f3b2f44a,001,2022-04-29_03h09.29.125,classification_task,2021.2.3,Win32,75.48309179,5fa27915a7a32b44f3b2f44a,626b377229c10585ec392f89,626b3a643ea344ef195b0164,,,,,,,,,,,,,,,,,,,,,,,l,1,0.8151,"[""0.085"",""0.119"",""0.498"",""0.623""]","[1,1,1,0]",0,44,44,44,1,1,0,,,1,FALSE,,,,,,,,,,,,,,,,,,,,,,,,,,,,,,
,5fa27915a7a32b44f3b2f44a,001,2022-04-29_03h09.29.125,classification_task,2021.2.3,Win32,75.48309179,5fa27915a7a32b44f3b2f44a,626b377229c10585ec392f89,626b3a643ea344ef195b0164,,,,,,,,,,,,,,,,,,,,,,,a,1,2.5493,"[""0.154"",""0.353"",""0.875"",""0.930""]","[0,1,1,1]",0,45,45,45,1,0,0,,,1,FALSE,,,,,,,,,,,,,,,,,,,,,,,,,,,,,,
,5fa27915a7a32b44f3b2f44a,001,2022-04-29_03h09.29.125,classification_task,2021.2.3,Win32,75.48309179,5fa27915a7a32b44f3b2f44a,626b377229c10585ec392f89,626b3a643ea344ef195b0164,,,,,,,,,,,,,,,,,,,,,,,a,1,0.7726,"[""0.304"",""0.353"",""0.875"",""0.810""]","[1,1,1,0]",0,46,46,46,1,0,0,,,1,FALSE,,,,,,,,,,,,,,,,,,,,,,,,,,,,,,
,5fa27915a7a32b44f3b2f44a,001,2022-04-29_03h09.29.125,classification_task,2021.2.3,Win32,75.48309179,5fa27915a7a32b44f3b2f44a,626b377229c10585ec392f89,626b3a643ea344ef195b0164,,,,,,,,,,,,,,,,,,,,,,,l,0,1.3681,"[""0.180"",""0.462"",""0.668"",""0.967""]","[0,1,1,1]",0,47,47,47,1,0,1,,,1,FALSE,,,,,,,,,,,,,,,,,,,,,,,,,,,,,,
,5fa27915a7a32b44f3b2f44a,001,2022-04-29_03h09.29.125,classification_task,2021.2.3,Win32,75.48309179,5fa27915a7a32b44f3b2f44a,626b377229c10585ec392f89,626b3a643ea344ef195b0164,,,,,,,,,,,,,,,,,,,,,,,a,1,1.1377,"[""0.225"",""0.180"",""0.668"",""0.967""]","[1,0,1,1]",0,48,48,48,1,0,1,,,1,FALSE,,,,,,,,,,,,,,,,,,,,,,,,,,,,,,
,5fa27915a7a32b44f3b2f44a,001,2022-04-29_03h09.29.125,classification_task,2021.2.3,Win32,75.48309179,5fa27915a7a32b44f3b2f44a,626b377229c10585ec392f89,626b3a643ea344ef195b0164,,,,,,,,,,,,,,,,,,,,,,,a,1,0.6036,"[""0.225"",""0.462"",""0.611"",""0.967""]","[1,1,0,1]",0,49,49,49,1,0,1,,,1,FALSE,,,,,,,,,,,,,,,,,,,,,,,,,,,,,,
,5fa27915a7a32b44f3b2f44a,001,2022-04-29_03h09.29.125,classification_task,2021.2.3,Win32,75.48309179,5fa27915a7a32b44f3b2f44a,626b377229c10585ec392f89,626b3a643ea344ef195b0164,,,,,,,,,,,,,,,,,,,,,,,l,0,2.1928,"[""0.304"",""0.353"",""0.180"",""0.930""]","[1,1,0,1]",0,50,50,50,1,0,0,,,1,FALSE,,,,,,,,,,,,,,,,,,,,,,,,,,,,,,
,5fa27915a7a32b44f3b2f44a,001,2022-04-29_03h09.29.125,classification_task,2021.2.3,Win32,75.48309179,5fa27915a7a32b44f3b2f44a,626b377229c10585ec392f89,626b3a643ea344ef195b0164,,,,,,,,,,,,,,,,,,,,,,,a,0,1.3276,"[""0.623"",""0.409"",""0.544"",""0.775""]","[0,1,1,1]",0,51,51,51,1,1,1,,,1,FALSE,,,,,,,,,,,,,,,,,,,,,,,,,,,,,,
,5fa27915a7a32b44f3b2f44a,001,2022-04-29_03h09.29.125,classification_task,2021.2.3,Win32,75.48309179,5fa27915a7a32b44f3b2f44a,626b377229c10585ec392f89,626b3a643ea344ef195b0164,,,,,,,,,,,,,,,,,,,,,,,a,1,2.0425,"[""0.304"",""0.353"",""0.875"",""0.612""]","[1,1,1,0]",0,52,52,52,1,0,0,,,1,FALSE,,,,,,,,,,,,,,,,,,,,,,,,,,,,,,
,5fa27915a7a32b44f3b2f44a,001,2022-04-29_03h09.29.125,classification_task,2021.2.3,Win32,75.48309179,5fa27915a7a32b44f3b2f44a,626b377229c10585ec392f89,626b3a643ea344ef195b0164,,,,,,,,,,,,,,,,,,,,,,,l,1,1.3503,"[""0.041"",""0.409"",""0.544"",""0.589""]","[1,1,1,0]",0,53,53,53,1,1,1,,,1,FALSE,,,,,,,,,,,,,,,,,,,,,,,,,,,,,,
,5fa27915a7a32b44f3b2f44a,001,2022-04-29_03h09.29.125,classification_task,2021.2.3,Win32,75.48309179,5fa27915a7a32b44f3b2f44a,626b377229c10585ec392f89,626b3a643ea344ef195b0164,,,,,,,,,,,,,,,,,,,,,,,a,1,1.4036,"[""0.589"",""0.462"",""0.668"",""0.967""]","[0,1,1,1]",0,54,54,54,1,0,1,,,1,FALSE,,,,,,,,,,,,,,,,,,,,,,,,,,,,,,
,5fa27915a7a32b44f3b2f44a,001,2022-04-29_03h09.29.125,classification_task,2021.2.3,Win32,75.48309179,5fa27915a7a32b44f3b2f44a,626b377229c10585ec392f89,626b3a643ea344ef195b0164,,,,,,,,,,,,,,,,,,,,,,,l,1,0.9084,"[""0.041"",""0.409"",""0.159"",""0.775""]","[1,1,0,1]",0,55,55,55,1,1,1,,,1,FALSE,,,,,,,,,,,,,,,,,,,,,,,,,,,,,,
,5fa27915a7a32b44f3b2f44a,001,2022-04-29_03h09.29.125,classification_task,2021.2.3,Win32,75.48309179,5fa27915a7a32b44f3b2f44a,626b377229c10585ec392f89,626b3a643ea344ef195b0164,,,,,,,,,,,,,,,,,,,,,,,l,1,1.4016,"[""0.810"",""0.119"",""0.498"",""0.732""]","[0,1,1,1]",0,56,56,56,1,1,0,,,1,FALSE,,,,,,,,,,,,,,,,,,,,,,,,,,,,,,
,5fa27915a7a32b44f3b2f44a,001,2022-04-29_03h09.29.125,classification_task,2021.2.3,Win32,75.48309179,5fa27915a7a32b44f3b2f44a,626b377229c10585ec392f89,626b3a643ea344ef195b0164,,,,,,,,,,,,,,,,,,,,,,,a,1,0.8064,"[""0.815"",""0.353"",""0.875"",""0.930""]","[0,1,1,1]",0,57,57,57,1,0,0,,,1,FALSE,,,,,,,,,,,,,,,,,,,,,,,,,,,,,,
,5fa27915a7a32b44f3b2f44a,001,2022-04-29_03h09.29.125,classification_task,2021.2.3,Win32,75.48309179,5fa27915a7a32b44f3b2f44a,626b377229c10585ec392f89,626b3a643ea344ef195b0164,,,,,,,,,,,,,,,,,,,,,,,l,1,1.4969,"[""0.085"",""0.119"",""0.623"",""0.732""]","[1,1,0,1]",0,58,58,58,1,1,0,,,1,FALSE,,,,,,,,,,,,,,,,,,,,,,,,,,,,,,
,5fa27915a7a32b44f3b2f44a,001,2022-04-29_03h09.29.125,classification_task,2021.2.3,Win32,75.48309179,5fa27915a7a32b44f3b2f44a,626b377229c10585ec392f89,626b3a643ea344ef195b0164,,,,,,,,,,,,,,,,,,,,,,,l,1,1.3847,"[""0.041"",""0.612"",""0.544"",""0.775""]","[1,0,1,1]",0,59,59,59,1,1,1,,,1,FALSE,,,,,,,,,,,,,,,,,,,,,,,,,,,,,,
,5fa27915a7a32b44f3b2f44a,001,2022-04-29_03h09.29.125,classification_task,2021.2.3,Win32,75.48309179,5fa27915a7a32b44f3b2f44a,626b377229c10585ec392f89,626b3a643ea344ef195b0164,,,,,,,,,,,,,,,,,,,,,,,a,1,1.1103,"[""0.225"",""0.462"",""0.668"",""0.191""]","[1,1,1,0]",0,60,60,60,1,0,1,,,1,FALSE,,,,,,,,,,,,,,,,,,,,,,,,,,,,,,
,5fa27915a7a32b44f3b2f44a,001,2022-04-29_03h09.29.125,classification_task,2021.2.3,Win32,75.48309179,5fa27915a7a32b44f3b2f44a,626b377229c10585ec392f89,626b3a643ea344ef195b0164,,,,,,,,,,,,,,,,,,,,,,,l,1,1.3004,"[""0.085"",""0.623"",""0.498"",""0.732""]","[1,0,1,1]",0,61,61,61,1,1,0,,,1,FALSE,,,,,,,,,,,,,,,,,,,,,,,,,,,,,,
,5fa27915a7a32b44f3b2f44a,001,2022-04-29_03h09.29.125,classification_task,2021.2.3,Win32,75.48309179,5fa27915a7a32b44f3b2f44a,626b377229c10585ec392f89,626b3a643ea344ef195b0164,,,,,,,,,,,,,,,,,,,,,,,l,1,1.0424,"[""0.085"",""0.119"",""0.498"",""0.832""]","[1,1,1,0]",0,62,62,62,1,1,0,,,1,FALSE,,,,,,,,,,,,,,,,,,,,,,,,,,,,,,
,5fa27915a7a32b44f3b2f44a,001,2022-04-29_03h09.29.125,classification_task,2021.2.3,Win32,75.48309179,5fa27915a7a32b44f3b2f44a,626b377229c10585ec392f89,626b3a643ea344ef195b0164,,,,,,,,,,,,,,,,,,,,,,,a,1,0.8136,"[""0.304"",""0.832"",""0.875"",""0.930""]","[1,0,1,1]",0,63,63,63,1,0,0,,,1,FALSE,,,,,,,,,,,,,,,,,,,,,,,,,,,,,,
,5fa27915a7a32b44f3b2f44a,001,2022-04-29_03h09.29.125,classification_task,2021.2.3,Win32,75.48309179,5fa27915a7a32b44f3b2f44a,626b377229c10585ec392f89,626b3a643ea344ef195b0164,,,,,,,,,,,,,,,,,,,,,,,,,,,,,,,,,,,,,,,0, ,,0,6.984126984,159.1363,0,2,2,2,1,2,3,,,,,,,,,,,,,,,,,
,5fa27915a7a32b44f3b2f44a,001,2022-04-29_03h09.29.125,classification_task,2021.2.3,Win32,75.48309179,5fa27915a7a32b44f3b2f44a,626b377229c10585ec392f89,626b3a643ea344ef195b0164,,,,,,,,,,,,,,,,,,,,,,,,,,,,,,,,,,,,,,,1,  ,,0,5.832843425,162.6977,0,2,2,2,1,2,3,,,,,,,,,,,,,,,,,
,5fa27915a7a32b44f3b2f44a,001,2022-04-29_03h09.29.125,classification_task,2021.2.3,Win32,75.48309179,5fa27915a7a32b44f3b2f44a,626b377229c10585ec392f89,626b3a643ea344ef195b0164,,,,,,,,,,,,,,,,,,,,,,,,,,,,,,,,,,,,,,,2,  ,,0,8.331373702,167.3992,0,2,2,2,1,2,3,,,,,,,,,,,,,,,,,
,5fa27915a7a32b44f3b2f44a,001,2022-04-29_03h09.29.125,classification_task,2021.2.3,Win32,75.48309179,5fa27915a7a32b44f3b2f44a,626b377229c10585ec392f89,626b3a643ea344ef195b0164,,,,,,,,,,,,,,,,,,,,,,,,,,,,,,,,,,,,,,,,,,,,,0,2,2,2,1,,3,,,,,,,,,,,,,,,,,
,5fa27915a7a32b44f3b2f44a,001,2022-04-29_03h09.29.125,classification_task,2021.2.3,Win32,75.48309179,5fa27915a7a32b44f3b2f44a,626b377229c10585ec392f89,626b3a643ea344ef195b0164,,,,,,,,,,,,,,,,,,,,,,,,,,,,,,,,,,,,,,,,,,,,,,,,,,,,,I believe the aid is a competent performer,,0.7,0,5,793.1135,0,0,0,0,1,0,,,,
,5fa27915a7a32b44f3b2f44a,001,2022-04-29_03h09.29.125,classification_task,2021.2.3,Win32,75.48309179,5fa27915a7a32b44f3b2f44a,626b377229c10585ec392f89,626b3a643ea344ef195b0164,,,,,,,,,,,,,,,,,,,,,,,,,,,,,,,,,,,,,,,,,,,,,,,,,,,,,I trust the aid,,0.7,0,5,794.5728,0,0,0,0,1,0,,,,
,5fa27915a7a32b44f3b2f44a,001,2022-04-29_03h09.29.125,classification_task,2021.2.3,Win32,75.48309179,5fa27915a7a32b44f3b2f44a,626b377229c10585ec392f89,626b3a643ea344ef195b0164,,,,,,,,,,,,,,,,,,,,,,,,,,,,,,,,,,,,,,,,,,,,,,,,,,,,,I have confidence in the advice given by the aid,,0.7,0,5,798.1832,0,0,0,0,1,0,,,,
,5fa27915a7a32b44f3b2f44a,001,2022-04-29_03h09.29.125,classification_task,2021.2.3,Win32,75.48309179,5fa27915a7a32b44f3b2f44a,626b377229c10585ec392f89,626b3a643ea344ef195b0164,,,,,,,,,,,,,,,,,,,,,,,,,,,,,,,,,,,,,,,,,,,,,,,,,,,,,I can depend on the aid,,0.7,0,5,800.1274,0,0,0,0,1,0,,,,
,5fa27915a7a32b44f3b2f44a,001,2022-04-29_03h09.29.125,classification_task,2021.2.3,Win32,75.48309179,5fa27915a7a32b44f3b2f44a,626b377229c10585ec392f89,626b3a643ea344ef195b0164,,,,,,,,,,,,,,,,,,,,,,,,,,,,,,,,,,,,,,,,,,,,,,,,,,,,,I can rely on the aid to behave in consistent ways,,0.7,0,5,804.1239,0,0,0,0,1,0,,,,
,5fa27915a7a32b44f3b2f44a,001,2022-04-29_03h09.29.125,classification_task,2021.2.3,Win32,75.48309179,5fa27915a7a32b44f3b2f44a,626b377229c10585ec392f89,626b3a643ea344ef195b0164,,,,,,,,,,,,,,,,,,,,,,,,,,,,,,,,,,,,,,,,,,,,,,,,,,,,,I can rely on the aid to do its best every time I take its advice,,0.7,0,5,806.1832,0,0,0,0,1,0,,,,
,5fa27915a7a32b44f3b2f44a,001,2022-04-29_03h09.29.125,classification_task,2021.2.3,Win32,75.48309179,5fa27915a7a32b44f3b2f44a,626b377229c10585ec392f89,626b3a643ea344ef195b0164,,,,,,,,,,,,,,,,,,,,,,,,,,,,,,,,,,,,,,,,,,,,,,,,,,,,,"On trials you completed with assistance from the aid, how frequently did you think the aid was correct?",,0.7,0,100%,,0,0,0,0,1,0,,,,
,5fa27915a7a32b44f3b2f44a,001,2022-04-29_03h09.29.125,classification_task,2021.2.3,Win32,75.48309179,5fa27915a7a32b44f3b2f44a,626b377229c10585ec392f89,626b3a643ea344ef195b0164,,,,,,,,,,,,,,,,,,,,,,,,,,,,,,,,,,,,,,,,,,,,,,,,,,,,,"On trials you completed without the aid, how frequently did you think you were correct?",,0.7,0,70%,,0,0,0,0,1,0,,,,
,5fa27915a7a32b44f3b2f44a,001,2022-04-29_03h09.29.125,classification_task,2021.2.3,Win32,75.48309179,5fa27915a7a32b44f3b2f44a,626b377229c10585ec392f89,626b3a643ea344ef195b0164,,,,,,,,,,,,,,,,,,,,,,,,,,,,,,,,,,,,,,,,,,,,,,,,,,,,,,,,,,,0,0,0,0,1,,,,,
,5fa27915a7a32b44f3b2f44a,001,2022-04-29_03h09.29.125,classification_task,2021.2.3,Win32,75.48309179,5fa27915a7a32b44f3b2f44a,626b377229c10585ec392f89,626b3a643ea344ef195b0164,,,,,,,,,,,,,,,,,,,,,,,,,,,,,,,,,,,,,,,,,,,,,,,,,,,,,,,,,,,,,,,,,space,9.7466,838.0631,
,5fa27915a7a32b44f3b2f44a,001,2022-04-29_03h09.29.125,classification_task,2021.2.3,Win32,75.48309179,5fa27915a7a32b44f3b2f44a,626b377229c10585ec392f89,626b3a643ea344ef195b0164,,,,,,,,,,,,,,,,,,,,,,,,,,,,,,,,,,,,,,,,,,,,,,,,,,,,,,,,,,,,,,,,,,,,"Mozilla/5.0 (Windows NT 10.0; Win64; x64) AppleWebKit/537.36 (KHTML, like Gecko) Chrome/99.0.4844.84 Safari/537.36 OPR/85.0.4341.72"
