usingWebGL,participant,session,date,expName,psychopyVersion,OS,frameRate,study_id,signatures_friend,signatures_foe,band_ranges_top,band_ranges_bottom,formitemText,formtype,formundefined,formitemWidth,formindex,formresponse,formrt,key_resp_2.keys,key_resp_2.rt,tute_resp.keys,tute_resp.rt,tutorial.thisRepN,tutorial.thisTrialN,tutorial.thisN,tutorial.thisIndex,tutorial.ran,key_resp_4.keys,key_resp_4.rt,key_resp.keys,key_resp.corr,key_resp.rt,lines_presented,is_signal_presented,trials.thisRepN,trials.thisTrialN,trials.thisN,trials.thisIndex,trials.ran,vessel,active_band,lines,is_signal,supported_pos,catch_trial,debrief_formindex,debrief_formitemText,debrief_formtype,debrief_formitemWidth,debrief_formresponse,debrief_formrt,phases.thisRepN,phases.thisTrialN,phases.thisN,phases.thisIndex,phases.ran,phases.order,phase,key_resp_3.keys,trustitemText,trusttype,trustitemWidth,trustindex,trustresponse,trustrt,support_status.thisRepN,support_status.thisTrialN,support_status.thisN,support_status.thisIndex,support_status.ran,support_status.order,key_resp_5.keys,key_resp_5.rt,globalClockTime,userAgent,manualCondition
TRUE,5fa318d8cbda73497645e374,627c6f3bca0d625b1aa4ec99,2022-05-11_19h22.00.083,classification_task,2021.2.3,Win32,60.42296073,627c6715c52fd12f31907bcf,,,,,,,,,,,,,,,,,,,,,,,,,,,,,,,,,,,,,,,,,,,,,,,,,,,,,,,,,,,,,,,,,,,,,
,5fa318d8cbda73497645e374,627c6f3bca0d625b1aa4ec99,2022-05-11_19h22.00.083,classification_task,2021.2.3,Win32,60.42296073,627c6715c52fd12f31907bcf,"[[""0.199"",""0.360"",""0.662"",""0.894""],[""0.164"",""0.524"",""0.852"",""0.959""]]","[[""0.128"",""0.297"",""0.465"",""0.745""],[""0.033"",""0.262"",""0.582"",""0.807""]]","[1,10]","[100,1000]",Video game experience,,,0.7,0,,,,,,,,,,,,,,,,,,,,,,,,,,,,,,,,,,,,,,,,,,,,,,,,,,,,,,,,,,,,
,5fa318d8cbda73497645e374,627c6f3bca0d625b1aa4ec99,2022-05-11_19h22.00.083,classification_task,2021.2.3,Win32,60.42296073,627c6715c52fd12f31907bcf,,,,,Approximately how many hours did you spend playing video games in the last week?,,,0.7,0,20,,,,,,,,,,,,,,,,,,,,,,,,,,,,,,,,,,,,,,,,,,,,,,,,,,,,,,,,,,,
,5fa318d8cbda73497645e374,627c6f3bca0d625b1aa4ec99,2022-05-11_19h22.00.083,classification_task,2021.2.3,Win32,60.42296073,627c6715c52fd12f31907bcf,,,,,"Which game did you play the most this year? (Enter ""None"" if you didn't play any)",,,0.7,0,Arknights,,,,,,,,,,,,,,,,,,,,,,,,,,,,,,,,,,,,,,,,,,,,,,,,,,,,,,,,,,,
,5fa318d8cbda73497645e374,627c6f3bca0d625b1aa4ec99,2022-05-11_19h22.00.083,classification_task,2021.2.3,Win32,60.42296073,627c6715c52fd12f31907bcf,,,,,Visual perception,,,0.7,0,,,,,,,,,,,,,,,,,,,,,,,,,,,,,,,,,,,,,,,,,,,,,,,,,,,,,,,,,,,,
,5fa318d8cbda73497645e374,627c6f3bca0d625b1aa4ec99,2022-05-11_19h22.00.083,classification_task,2021.2.3,Win32,60.42296073,627c6715c52fd12f31907bcf,,,,,Do you have any form of color blindness?,,,0.7,0,No,20.7258,,,,,,,,,,,,,,,,,,,,,,,,,,,,,,,,,,,,,,,,,,,,,,,,,,,,,,,,,,
,5fa318d8cbda73497645e374,627c6f3bca0d625b1aa4ec99,2022-05-11_19h22.00.083,classification_task,2021.2.3,Win32,60.42296073,627c6715c52fd12f31907bcf,,,,,Do you use software to change the colour temperature of your screen (e.g. f.lux)?,,,0.7,0,No,24.6823,,,,,,,,,,,,,,,,,,,,,,,,,,,,,,,,,,,,,,,,,,,,,,,,,,,,,,,,,,
,5fa318d8cbda73497645e374,627c6f3bca0d625b1aa4ec99,2022-05-11_19h22.00.083,classification_task,2021.2.3,Win32,60.42296073,627c6715c52fd12f31907bcf,,,,,,,,,,,,space,25.8949,space,7.2641,0,0,0,0,1,,,,,,,,,,,,,,,,,,,,,,,,,,,,,,,,,,,,,,,,,,,,,,,,,
,5fa318d8cbda73497645e374,627c6f3bca0d625b1aa4ec99,2022-05-11_19h22.00.083,classification_task,2021.2.3,Win32,60.42296073,627c6715c52fd12f31907bcf,,,,,,,,,,,,,,space,15.6479,1,0,1,0,1,,,,,,,,,,,,,,,,,,,,,,,,,,,,,,,,,,,,,,,,,,,,,,,,,
,5fa318d8cbda73497645e374,627c6f3bca0d625b1aa4ec99,2022-05-11_19h22.00.083,classification_task,2021.2.3,Win32,60.42296073,627c6715c52fd12f31907bcf,,,,,,,,,,,,,,space,30.1549,2,0,2,0,1,,,,,,,,,,,,,,,,,,,,,,,,,,,,,,,,,,,,,,,,,,,,,,,,,
,5fa318d8cbda73497645e374,627c6f3bca0d625b1aa4ec99,2022-05-11_19h22.00.083,classification_task,2021.2.3,Win32,60.42296073,627c6715c52fd12f31907bcf,,,,,,,,,,,,,,space,25.7468,3,0,3,0,1,,,,,,,,,,,,,,,,,,,,,,,,,,,,,,,,,,,,,,,,,,,,,,,,,
,5fa318d8cbda73497645e374,627c6f3bca0d625b1aa4ec99,2022-05-11_19h22.00.083,classification_task,2021.2.3,Win32,60.42296073,627c6715c52fd12f31907bcf,,,,,,,,,,,,,,space,9.5329,4,0,4,0,1,,,,,,,,,,,,,,,,,,,,,,,,,,,,,,,,,,,,,,,,,,,,,,,,,
,5fa318d8cbda73497645e374,627c6f3bca0d625b1aa4ec99,2022-05-11_19h22.00.083,classification_task,2021.2.3,Win32,60.42296073,627c6715c52fd12f31907bcf,,,,,,,,,,,,,,,,,,,,,space,13.1437,l,1,6.4323,"[""0.128"",""0.297"",""0.465"",""0.703""]","[1,1,1,0]",0,0,0,0,1,1,0,,,1,FALSE,,,,,,,,,,,,,,,,,,,,,,,,,,,,,,,
,5fa318d8cbda73497645e374,627c6f3bca0d625b1aa4ec99,2022-05-11_19h22.00.083,classification_task,2021.2.3,Win32,60.42296073,627c6715c52fd12f31907bcf,,,,,,,,,,,,,,,,,,,,,,,l,1,2.8485,"[""0.071"",""0.262"",""0.582"",""0.807""]","[0,1,1,1]",0,1,1,1,1,1,1,,,1,FALSE,,,,,,,,,,,,,,,,,,,,,,,,,,,,,,,
,5fa318d8cbda73497645e374,627c6f3bca0d625b1aa4ec99,2022-05-11_19h22.00.083,classification_task,2021.2.3,Win32,60.42296073,627c6715c52fd12f31907bcf,,,,,,,,,,,,,,,,,,,,,,,l,1,2.2254,"[""0.033"",""0.262"",""0.427"",""0.807""]","[1,1,0,1]",0,2,2,2,1,1,1,,,1,FALSE,,,,,,,,,,,,,,,,,,,,,,,,,,,,,,,
,5fa318d8cbda73497645e374,627c6f3bca0d625b1aa4ec99,2022-05-11_19h22.00.083,classification_task,2021.2.3,Win32,60.42296073,627c6715c52fd12f31907bcf,,,,,,,,,,,,,,,,,,,,,,,l,1,4.7044,"[""0.128"",""0.625"",""0.465"",""0.745""]","[1,0,1,1]",0,3,3,3,1,1,0,,,1,FALSE,,,,,,,,,,,,,,,,,,,,,,,,,,,,,,,
,5fa318d8cbda73497645e374,627c6f3bca0d625b1aa4ec99,2022-05-11_19h22.00.083,classification_task,2021.2.3,Win32,60.42296073,627c6715c52fd12f31907bcf,,,,,,,,,,,,,,,,,,,,,,,l,1,3.7235,"[""0.128"",""0.297"",""0.625"",""0.745""]","[1,1,0,1]",0,4,4,4,1,1,0,,,1,FALSE,,,,,,,,,,,,,,,,,,,,,,,,,,,,,,,
,5fa318d8cbda73497645e374,627c6f3bca0d625b1aa4ec99,2022-05-11_19h22.00.083,classification_task,2021.2.3,Win32,60.42296073,627c6715c52fd12f31907bcf,,,,,,,,,,,,,,,,,,,,,,,a,1,8.1148,"[""0.199"",""0.360"",""0.071"",""0.894""]","[1,1,0,1]",0,5,5,5,1,0,0,,,1,FALSE,,,,,,,,,,,,,,,,,,,,,,,,,,,,,,,
,5fa318d8cbda73497645e374,627c6f3bca0d625b1aa4ec99,2022-05-11_19h22.00.083,classification_task,2021.2.3,Win32,60.42296073,627c6715c52fd12f31907bcf,,,,,,,,,,,,,,,,,,,,,,,l,1,5.5453,"[""0.033"",""0.262"",""0.582"",""0.701""]","[1,1,1,0]",0,6,6,6,1,1,1,,,1,FALSE,,,,,,,,,,,,,,,,,,,,,,,,,,,,,,,
,5fa318d8cbda73497645e374,627c6f3bca0d625b1aa4ec99,2022-05-11_19h22.00.083,classification_task,2021.2.3,Win32,60.42296073,627c6715c52fd12f31907bcf,,,,,,,,,,,,,,,,,,,,,,,a,1,4.5382,"[""0.199"",""0.360"",""0.662"",""0.083""]","[1,1,1,0]",0,7,7,7,1,0,0,,,1,FALSE,,,,,,,,,,,,,,,,,,,,,,,,,,,,,,,
,5fa318d8cbda73497645e374,627c6f3bca0d625b1aa4ec99,2022-05-11_19h22.00.083,classification_task,2021.2.3,Win32,60.42296073,627c6715c52fd12f31907bcf,,,,,,,,,,,,,,,,,,,,,,,l,0,6.1397,"[""0.164"",""0.524"",""0.083"",""0.959""]","[1,1,0,1]",0,8,8,8,1,0,1,,,1,FALSE,,,,,,,,,,,,,,,,,,,,,,,,,,,,,,,
,5fa318d8cbda73497645e374,627c6f3bca0d625b1aa4ec99,2022-05-11_19h22.00.083,classification_task,2021.2.3,Win32,60.42296073,627c6715c52fd12f31907bcf,,,,,,,,,,,,,,,,,,,,,,,a,1,7.5936,"[""0.164"",""0.070"",""0.852"",""0.959""]","[1,0,1,1]",0,9,9,9,1,0,1,,,1,FALSE,,,,,,,,,,,,,,,,,,,,,,,,,,,,,,,
,5fa318d8cbda73497645e374,627c6f3bca0d625b1aa4ec99,2022-05-11_19h22.00.083,classification_task,2021.2.3,Win32,60.42296073,627c6715c52fd12f31907bcf,,,,,,,,,,,,,,,,,,,,,,,a,1,7.5061,"[""0.164"",""0.524"",""0.852"",""0.087""]","[1,1,1,0]",0,10,10,10,1,0,1,,,1,FALSE,,,,,,,,,,,,,,,,,,,,,,,,,,,,,,,
,5fa318d8cbda73497645e374,627c6f3bca0d625b1aa4ec99,2022-05-11_19h22.00.083,classification_task,2021.2.3,Win32,60.42296073,627c6715c52fd12f31907bcf,,,,,,,,,,,,,,,,,,,,,,,a,1,8.2066,"[""0.422"",""0.524"",""0.852"",""0.959""]","[0,1,1,1]",0,11,11,11,1,0,1,,,1,FALSE,,,,,,,,,,,,,,,,,,,,,,,,,,,,,,,
,5fa318d8cbda73497645e374,627c6f3bca0d625b1aa4ec99,2022-05-11_19h22.00.083,classification_task,2021.2.3,Win32,60.42296073,627c6715c52fd12f31907bcf,,,,,,,,,,,,,,,,,,,,,,,a,1,4.3721,"[""0.707"",""0.360"",""0.662"",""0.894""]","[0,1,1,1]",0,12,12,12,1,0,0,,,1,FALSE,,,,,,,,,,,,,,,,,,,,,,,,,,,,,,,
,5fa318d8cbda73497645e374,627c6f3bca0d625b1aa4ec99,2022-05-11_19h22.00.083,classification_task,2021.2.3,Win32,60.42296073,627c6715c52fd12f31907bcf,,,,,,,,,,,,,,,,,,,,,,,l,1,5.5247,"[""0.033"",""0.071"",""0.582"",""0.807""]","[1,0,1,1]",0,13,13,13,1,1,1,,,1,FALSE,,,,,,,,,,,,,,,,,,,,,,,,,,,,,,,
,5fa318d8cbda73497645e374,627c6f3bca0d625b1aa4ec99,2022-05-11_19h22.00.083,classification_task,2021.2.3,Win32,60.42296073,627c6715c52fd12f31907bcf,,,,,,,,,,,,,,,,,,,,,,,l,1,6.0863,"[""0.420"",""0.297"",""0.465"",""0.745""]","[0,1,1,1]",0,14,14,14,1,1,0,,,1,FALSE,,,,,,,,,,,,,,,,,,,,,,,,,,,,,,,
,5fa318d8cbda73497645e374,627c6f3bca0d625b1aa4ec99,2022-05-11_19h22.00.083,classification_task,2021.2.3,Win32,60.42296073,627c6715c52fd12f31907bcf,,,,,,,,,,,,,,,,,,,,,,,a,1,5.6617,"[""0.199"",""0.409"",""0.662"",""0.894""]","[1,0,1,1]",0,15,15,15,1,0,0,,,1,FALSE,,,,,,,,,,,,,,,,,,,,,,,,,,,,,,,
,5fa318d8cbda73497645e374,627c6f3bca0d625b1aa4ec99,2022-05-11_19h22.00.083,classification_task,2021.2.3,Win32,60.42296073,627c6715c52fd12f31907bcf,,,,,,,,,,,,,,,,,,,,,,,a,1,6.299,"[""0.199"",""0.360"",""0.616"",""0.894""]","[1,1,0,1]",0,16,16,16,1,0,0,,,1,FALSE,,,,,,,,,,,,,,,,,,,,,,,,,,,,,,,
,5fa318d8cbda73497645e374,627c6f3bca0d625b1aa4ec99,2022-05-11_19h22.00.083,classification_task,2021.2.3,Win32,60.42296073,627c6715c52fd12f31907bcf,,,,,,,,,,,,,,,,,,,,,,,l,1,5.6772,"[""0.128"",""0.409"",""0.465"",""0.745""]","[1,0,1,1]",0,17,17,17,1,1,0,,,1,FALSE,,,,,,,,,,,,,,,,,,,,,,,,,,,,,,,
,5fa318d8cbda73497645e374,627c6f3bca0d625b1aa4ec99,2022-05-11_19h22.00.083,classification_task,2021.2.3,Win32,60.42296073,627c6715c52fd12f31907bcf,,,,,,,,,,,,,,,,,,,,,,,l,1,7.1381,"[""0.427"",""0.262"",""0.582"",""0.807""]","[0,1,1,1]",0,18,18,18,1,1,1,,,1,FALSE,,,,,,,,,,,,,,,,,,,,,,,,,,,,,,,
,5fa318d8cbda73497645e374,627c6f3bca0d625b1aa4ec99,2022-05-11_19h22.00.083,classification_task,2021.2.3,Win32,60.42296073,627c6715c52fd12f31907bcf,,,,,,,,,,,,,,,,,,,,,,,a,1,3.6527,"[""0.199"",""0.422"",""0.662"",""0.894""]","[1,0,1,1]",0,19,19,19,1,0,0,,,1,FALSE,,,,,,,,,,,,,,,,,,,,,,,,,,,,,,,
,5fa318d8cbda73497645e374,627c6f3bca0d625b1aa4ec99,2022-05-11_19h22.00.083,classification_task,2021.2.3,Win32,60.42296073,627c6715c52fd12f31907bcf,,,,,,,,,,,,,,,,,,,,,,,l,1,7.4566,"[""0.033"",""0.262"",""0.582"",""0.616""]","[1,1,1,0]",0,20,20,20,1,1,1,,,1,FALSE,,,,,,,,,,,,,,,,,,,,,,,,,,,,,,,
,5fa318d8cbda73497645e374,627c6f3bca0d625b1aa4ec99,2022-05-11_19h22.00.083,classification_task,2021.2.3,Win32,60.42296073,627c6715c52fd12f31907bcf,,,,,,,,,,,,,,,,,,,,,,,,0,,"[""0.164"",""0.083"",""0.852"",""0.959""]","[1,0,1,1]",0,21,21,21,1,0,1,,,1,FALSE,,,,,,,,,,,,,,,,,,,,,,,,,,,,,,,
,5fa318d8cbda73497645e374,627c6f3bca0d625b1aa4ec99,2022-05-11_19h22.00.083,classification_task,2021.2.3,Win32,60.42296073,627c6715c52fd12f31907bcf,,,,,,,,,,,,,,,,,,,,,,,l,1,6.7109,"[""0.128"",""0.297"",""0.465"",""0.409""]","[1,1,1,0]",0,22,22,22,1,1,0,,,1,FALSE,,,,,,,,,,,,,,,,,,,,,,,,,,,,,,,
,5fa318d8cbda73497645e374,627c6f3bca0d625b1aa4ec99,2022-05-11_19h22.00.083,classification_task,2021.2.3,Win32,60.42296073,627c6715c52fd12f31907bcf,,,,,,,,,,,,,,,,,,,,,,,a,1,3.9489,"[""0.083"",""0.360"",""0.662"",""0.894""]","[0,1,1,1]",0,23,23,23,1,0,0,,,1,FALSE,,,,,,,,,,,,,,,,,,,,,,,,,,,,,,,
,5fa318d8cbda73497645e374,627c6f3bca0d625b1aa4ec99,2022-05-11_19h22.00.083,classification_task,2021.2.3,Win32,60.42296073,627c6715c52fd12f31907bcf,,,,,,,,,,,,,,,,,,,,,,,a,1,4.0778,"[""0.199"",""0.360"",""0.662"",""0.070""]","[1,1,1,0]",0,24,24,24,1,0,0,,,1,FALSE,,,,,,,,,,,,,,,,,,,,,,,,,,,,,,,
,5fa318d8cbda73497645e374,627c6f3bca0d625b1aa4ec99,2022-05-11_19h22.00.083,classification_task,2021.2.3,Win32,60.42296073,627c6715c52fd12f31907bcf,,,,,,,,,,,,,,,,,,,,,,,a,1,4.6916,"[""0.164"",""0.524"",""0.852"",""0.421""]","[1,1,1,0]",0,25,25,25,1,0,1,,,1,FALSE,,,,,,,,,,,,,,,,,,,,,,,,,,,,,,,
,5fa318d8cbda73497645e374,627c6f3bca0d625b1aa4ec99,2022-05-11_19h22.00.083,classification_task,2021.2.3,Win32,60.42296073,627c6715c52fd12f31907bcf,,,,,,,,,,,,,,,,,,,,,,,l,1,3.4252,"[""0.128"",""0.297"",""0.409"",""0.745""]","[1,1,0,1]",0,26,26,26,1,1,0,,,1,FALSE,,,,,,,,,,,,,,,,,,,,,,,,,,,,,,,
,5fa318d8cbda73497645e374,627c6f3bca0d625b1aa4ec99,2022-05-11_19h22.00.083,classification_task,2021.2.3,Win32,60.42296073,627c6715c52fd12f31907bcf,,,,,,,,,,,,,,,,,,,,,,,l,1,5.0357,"[""0.071"",""0.297"",""0.465"",""0.745""]","[0,1,1,1]",0,27,27,27,1,1,0,,,1,FALSE,,,,,,,,,,,,,,,,,,,,,,,,,,,,,,,
,5fa318d8cbda73497645e374,627c6f3bca0d625b1aa4ec99,2022-05-11_19h22.00.083,classification_task,2021.2.3,Win32,60.42296073,627c6715c52fd12f31907bcf,,,,,,,,,,,,,,,,,,,,,,,a,1,6.1817,"[""0.164"",""0.524"",""0.070"",""0.959""]","[1,1,0,1]",0,28,28,28,1,0,1,,,1,FALSE,,,,,,,,,,,,,,,,,,,,,,,,,,,,,,,
,5fa318d8cbda73497645e374,627c6f3bca0d625b1aa4ec99,2022-05-11_19h22.00.083,classification_task,2021.2.3,Win32,60.42296073,627c6715c52fd12f31907bcf,,,,,,,,,,,,,,,,,,,,,,,l,1,3.7997,"[""0.033"",""0.420"",""0.582"",""0.807""]","[1,0,1,1]",0,29,29,29,1,1,1,,,1,FALSE,,,,,,,,,,,,,,,,,,,,,,,,,,,,,,,
,5fa318d8cbda73497645e374,627c6f3bca0d625b1aa4ec99,2022-05-11_19h22.00.083,classification_task,2021.2.3,Win32,60.42296073,627c6715c52fd12f31907bcf,,,,,,,,,,,,,,,,,,,,,,,l,1,3.7079,"[""0.033"",""0.262"",""0.083"",""0.807""]","[1,1,0,1]",0,30,30,30,1,1,1,,,1,FALSE,,,,,,,,,,,,,,,,,,,,,,,,,,,,,,,
,5fa318d8cbda73497645e374,627c6f3bca0d625b1aa4ec99,2022-05-11_19h22.00.083,classification_task,2021.2.3,Win32,60.42296073,627c6715c52fd12f31907bcf,,,,,,,,,,,,,,,,,,,,,,,a,1,4.4432,"[""0.071"",""0.524"",""0.852"",""0.959""]","[0,1,1,1]",0,31,31,31,1,0,1,,,1,FALSE,,,,,,,,,,,,,,,,,,,,,,,,,,,,,,,
,5fa318d8cbda73497645e374,627c6f3bca0d625b1aa4ec99,2022-05-11_19h22.00.083,classification_task,2021.2.3,Win32,60.42296073,627c6715c52fd12f31907bcf,,,,,,,,,,,,,,,,,,,,,,,l,0,6.2434,"[""0.707"",""0.360"",""0.662"",""0.894""]","[0,1,1,1]",0,32,32,32,1,0,0,,,1,FALSE,,,,,,,,,,,,,,,,,,,,,,,,,,,,,,,
,5fa318d8cbda73497645e374,627c6f3bca0d625b1aa4ec99,2022-05-11_19h22.00.083,classification_task,2021.2.3,Win32,60.42296073,627c6715c52fd12f31907bcf,,,,,,,,,,,,,,,,,,,,,,,l,0,4.7007,"[""0.199"",""0.360"",""0.662"",""0.071""]","[1,1,1,0]",0,33,33,33,1,0,0,,,1,FALSE,,,,,,,,,,,,,,,,,,,,,,,,,,,,,,,
,5fa318d8cbda73497645e374,627c6f3bca0d625b1aa4ec99,2022-05-11_19h22.00.083,classification_task,2021.2.3,Win32,60.42296073,627c6715c52fd12f31907bcf,,,,,,,,,,,,,,,,,,,,,,,a,0,2.3595,"[""0.128"",""0.703"",""0.465"",""0.745""]","[1,0,1,1]",0,34,34,34,1,1,0,,,1,FALSE,,,,,,,,,,,,,,,,,,,,,,,,,,,,,,,
,5fa318d8cbda73497645e374,627c6f3bca0d625b1aa4ec99,2022-05-11_19h22.00.083,classification_task,2021.2.3,Win32,60.42296073,627c6715c52fd12f31907bcf,,,,,,,,,,,,,,,,,,,,,,,a,0,3.5125,"[""0.033"",""0.262"",""0.427"",""0.807""]","[1,1,0,1]",0,35,35,35,1,1,1,,,1,FALSE,,,,,,,,,,,,,,,,,,,,,,,,,,,,,,,
,5fa318d8cbda73497645e374,627c6f3bca0d625b1aa4ec99,2022-05-11_19h22.00.083,classification_task,2021.2.3,Win32,60.42296073,627c6715c52fd12f31907bcf,,,,,,,,,,,,,,,,,,,,,,,a,0,4.1076,"[""0.128"",""0.297"",""0.465"",""0.409""]","[1,1,1,0]",0,36,36,36,1,1,0,,,1,FALSE,,,,,,,,,,,,,,,,,,,,,,,,,,,,,,,
,5fa318d8cbda73497645e374,627c6f3bca0d625b1aa4ec99,2022-05-11_19h22.00.083,classification_task,2021.2.3,Win32,60.42296073,627c6715c52fd12f31907bcf,,,,,,,,,,,,,,,,,,,,,,,a,1,1.5493,"[""0.164"",""0.420"",""0.852"",""0.959""]","[1,0,1,1]",0,37,37,37,1,0,1,,,1,FALSE,,,,,,,,,,,,,,,,,,,,,,,,,,,,,,,
,5fa318d8cbda73497645e374,627c6f3bca0d625b1aa4ec99,2022-05-11_19h22.00.083,classification_task,2021.2.3,Win32,60.42296073,627c6715c52fd12f31907bcf,,,,,,,,,,,,,,,,,,,,,,,a,1,2.0491,"[""0.199"",""0.071"",""0.662"",""0.894""]","[1,0,1,1]",0,38,38,38,1,0,0,,,1,FALSE,,,,,,,,,,,,,,,,,,,,,,,,,,,,,,,
,5fa318d8cbda73497645e374,627c6f3bca0d625b1aa4ec99,2022-05-11_19h22.00.083,classification_task,2021.2.3,Win32,60.42296073,627c6715c52fd12f31907bcf,,,,,,,,,,,,,,,,,,,,,,,l,1,2.2846,"[""0.071"",""0.262"",""0.582"",""0.807""]","[0,1,1,1]",0,39,39,39,1,1,1,,,1,FALSE,,,,,,,,,,,,,,,,,,,,,,,,,,,,,,,
,5fa318d8cbda73497645e374,627c6f3bca0d625b1aa4ec99,2022-05-11_19h22.00.083,classification_task,2021.2.3,Win32,60.42296073,627c6715c52fd12f31907bcf,,,,,,,,,,,,,,,,,,,,,,,l,0,2.3522,"[""0.164"",""0.524"",""0.409"",""0.959""]","[1,1,0,1]",0,40,40,40,1,0,1,,,1,FALSE,,,,,,,,,,,,,,,,,,,,,,,,,,,,,,,
,5fa318d8cbda73497645e374,627c6f3bca0d625b1aa4ec99,2022-05-11_19h22.00.083,classification_task,2021.2.3,Win32,60.42296073,627c6715c52fd12f31907bcf,,,,,,,,,,,,,,,,,,,,,,,l,1,1.6413,"[""0.422"",""0.297"",""0.465"",""0.745""]","[0,1,1,1]",0,41,41,41,1,1,0,,,1,FALSE,,,,,,,,,,,,,,,,,,,,,,,,,,,,,,,
,5fa318d8cbda73497645e374,627c6f3bca0d625b1aa4ec99,2022-05-11_19h22.00.083,classification_task,2021.2.3,Win32,60.42296073,627c6715c52fd12f31907bcf,,,,,,,,,,,,,,,,,,,,,,,a,0,2.7845,"[""0.033"",""0.421"",""0.582"",""0.807""]","[1,0,1,1]",0,42,42,42,1,1,1,,,1,FALSE,,,,,,,,,,,,,,,,,,,,,,,,,,,,,,,
,5fa318d8cbda73497645e374,627c6f3bca0d625b1aa4ec99,2022-05-11_19h22.00.083,classification_task,2021.2.3,Win32,60.42296073,627c6715c52fd12f31907bcf,,,,,,,,,,,,,,,,,,,,,,,a,0,1.1819,"[""0.128"",""0.297"",""0.703"",""0.745""]","[1,1,0,1]",0,43,43,43,1,1,0,,,1,FALSE,,,,,,,,,,,,,,,,,,,,,,,,,,,,,,,
,5fa318d8cbda73497645e374,627c6f3bca0d625b1aa4ec99,2022-05-11_19h22.00.083,classification_task,2021.2.3,Win32,60.42296073,627c6715c52fd12f31907bcf,,,,,,,,,,,,,,,,,,,,,,,a,0,0.92,"[""0.033"",""0.262"",""0.582"",""0.071""]","[1,1,1,0]",0,44,44,44,1,1,1,,,1,FALSE,,,,,,,,,,,,,,,,,,,,,,,,,,,,,,,
,5fa318d8cbda73497645e374,627c6f3bca0d625b1aa4ec99,2022-05-11_19h22.00.083,classification_task,2021.2.3,Win32,60.42296073,627c6715c52fd12f31907bcf,,,,,,,,,,,,,,,,,,,,,,,l,0,1.642,"[""0.070"",""0.524"",""0.852"",""0.959""]","[0,1,1,1]",0,45,45,45,1,0,1,,,1,FALSE,,,,,,,,,,,,,,,,,,,,,,,,,,,,,,,
,5fa318d8cbda73497645e374,627c6f3bca0d625b1aa4ec99,2022-05-11_19h22.00.083,classification_task,2021.2.3,Win32,60.42296073,627c6715c52fd12f31907bcf,,,,,,,,,,,,,,,,,,,,,,,l,0,0.9858,"[""0.164"",""0.524"",""0.852"",""0.422""]","[1,1,1,0]",0,46,46,46,1,0,1,,,1,FALSE,,,,,,,,,,,,,,,,,,,,,,,,,,,,,,,
,5fa318d8cbda73497645e374,627c6f3bca0d625b1aa4ec99,2022-05-11_19h22.00.083,classification_task,2021.2.3,Win32,60.42296073,627c6715c52fd12f31907bcf,,,,,,,,,,,,,,,,,,,,,,,l,0,2.0855,"[""0.199"",""0.360"",""0.070"",""0.894""]","[1,1,0,1]",0,47,47,47,1,0,0,,,1,FALSE,,,,,,,,,,,,,,,,,,,,,,,,,,,,,,,
,5fa318d8cbda73497645e374,627c6f3bca0d625b1aa4ec99,2022-05-11_19h22.00.083,classification_task,2021.2.3,Win32,60.42296073,627c6715c52fd12f31907bcf,,,,,,,,,,,,,,,,,,,,,,,l,0,2.6106,"[""0.427"",""0.524"",""0.852"",""0.959""]","[0,1,1,1]",0,48,48,48,1,0,1,,,1,FALSE,,,,,,,,,,,,,,,,,,,,,,,,,,,,,,,
,5fa318d8cbda73497645e374,627c6f3bca0d625b1aa4ec99,2022-05-11_19h22.00.083,classification_task,2021.2.3,Win32,60.42296073,627c6715c52fd12f31907bcf,,,,,,,,,,,,,,,,,,,,,,,l,1,2.0484,"[""0.128"",""0.625"",""0.465"",""0.745""]","[1,0,1,1]",0,49,49,49,1,1,0,,,1,FALSE,,,,,,,,,,,,,,,,,,,,,,,,,,,,,,,
,5fa318d8cbda73497645e374,627c6f3bca0d625b1aa4ec99,2022-05-11_19h22.00.083,classification_task,2021.2.3,Win32,60.42296073,627c6715c52fd12f31907bcf,,,,,,,,,,,,,,,,,,,,,,,a,1,1.9267,"[""0.164"",""0.524"",""0.852"",""0.087""]","[1,1,1,0]",0,50,50,50,1,0,1,,,1,FALSE,,,,,,,,,,,,,,,,,,,,,,,,,,,,,,,
,5fa318d8cbda73497645e374,627c6f3bca0d625b1aa4ec99,2022-05-11_19h22.00.083,classification_task,2021.2.3,Win32,60.42296073,627c6715c52fd12f31907bcf,,,,,,,,,,,,,,,,,,,,,,,a,1,1.2239,"[""0.707"",""0.360"",""0.662"",""0.894""]","[0,1,1,1]",0,51,51,51,1,0,0,,,1,FALSE,,,,,,,,,,,,,,,,,,,,,,,,,,,,,,,
,5fa318d8cbda73497645e374,627c6f3bca0d625b1aa4ec99,2022-05-11_19h22.00.083,classification_task,2021.2.3,Win32,60.42296073,627c6715c52fd12f31907bcf,,,,,,,,,,,,,,,,,,,,,,,a,0,2.152,"[""0.128"",""0.297"",""0.420"",""0.745""]","[1,1,0,1]",0,52,52,52,1,1,0,,,1,FALSE,,,,,,,,,,,,,,,,,,,,,,,,,,,,,,,
,5fa318d8cbda73497645e374,627c6f3bca0d625b1aa4ec99,2022-05-11_19h22.00.083,classification_task,2021.2.3,Win32,60.42296073,627c6715c52fd12f31907bcf,,,,,,,,,,,,,,,,,,,,,,,a,1,1.6573,"[""0.164"",""0.524"",""0.625"",""0.959""]","[1,1,0,1]",0,53,53,53,1,0,1,,,1,FALSE,,,,,,,,,,,,,,,,,,,,,,,,,,,,,,,
,5fa318d8cbda73497645e374,627c6f3bca0d625b1aa4ec99,2022-05-11_19h22.00.083,classification_task,2021.2.3,Win32,60.42296073,627c6715c52fd12f31907bcf,,,,,,,,,,,,,,,,,,,,,,,a,0,1.2076,"[""0.033"",""0.262"",""0.625"",""0.807""]","[1,1,0,1]",0,54,54,54,1,1,1,,,1,FALSE,,,,,,,,,,,,,,,,,,,,,,,,,,,,,,,
,5fa318d8cbda73497645e374,627c6f3bca0d625b1aa4ec99,2022-05-11_19h22.00.083,classification_task,2021.2.3,Win32,60.42296073,627c6715c52fd12f31907bcf,,,,,,,,,,,,,,,,,,,,,,,a,0,0.7022,"[""0.033"",""0.422"",""0.582"",""0.807""]","[1,0,1,1]",0,55,55,55,1,1,1,,,1,FALSE,,,,,,,,,,,,,,,,,,,,,,,,,,,,,,,
,5fa318d8cbda73497645e374,627c6f3bca0d625b1aa4ec99,2022-05-11_19h22.00.083,classification_task,2021.2.3,Win32,60.42296073,627c6715c52fd12f31907bcf,,,,,,,,,,,,,,,,,,,,,,,a,0,2.1205,"[""0.128"",""0.297"",""0.465"",""0.087""]","[1,1,1,0]",0,56,56,56,1,1,0,,,1,FALSE,,,,,,,,,,,,,,,,,,,,,,,,,,,,,,,
,5fa318d8cbda73497645e374,627c6f3bca0d625b1aa4ec99,2022-05-11_19h22.00.083,classification_task,2021.2.3,Win32,60.42296073,627c6715c52fd12f31907bcf,,,,,,,,,,,,,,,,,,,,,,,a,1,3.5088,"[""0.199"",""0.707"",""0.662"",""0.894""]","[1,0,1,1]",0,57,57,57,1,0,0,,,1,FALSE,,,,,,,,,,,,,,,,,,,,,,,,,,,,,,,
,5fa318d8cbda73497645e374,627c6f3bca0d625b1aa4ec99,2022-05-11_19h22.00.083,classification_task,2021.2.3,Win32,60.42296073,627c6715c52fd12f31907bcf,,,,,,,,,,,,,,,,,,,,,,,a,0,4.8847,"[""0.421"",""0.297"",""0.465"",""0.745""]","[0,1,1,1]",0,58,58,58,1,1,0,,,1,FALSE,,,,,,,,,,,,,,,,,,,,,,,,,,,,,,,
,5fa318d8cbda73497645e374,627c6f3bca0d625b1aa4ec99,2022-05-11_19h22.00.083,classification_task,2021.2.3,Win32,60.42296073,627c6715c52fd12f31907bcf,,,,,,,,,,,,,,,,,,,,,,,a,0,1.7447,"[""0.703"",""0.262"",""0.582"",""0.807""]","[0,1,1,1]",0,59,59,59,1,1,1,,,1,FALSE,,,,,,,,,,,,,,,,,,,,,,,,,,,,,,,
,5fa318d8cbda73497645e374,627c6f3bca0d625b1aa4ec99,2022-05-11_19h22.00.083,classification_task,2021.2.3,Win32,60.42296073,627c6715c52fd12f31907bcf,,,,,,,,,,,,,,,,,,,,,,,l,0,1.5711,"[""0.199"",""0.360"",""0.412"",""0.894""]","[1,1,0,1]",0,60,60,60,1,0,0,,,1,FALSE,,,,,,,,,,,,,,,,,,,,,,,,,,,,,,,
,5fa318d8cbda73497645e374,627c6f3bca0d625b1aa4ec99,2022-05-11_19h22.00.083,classification_task,2021.2.3,Win32,60.42296073,627c6715c52fd12f31907bcf,,,,,,,,,,,,,,,,,,,,,,,l,0,0.8762,"[""0.199"",""0.360"",""0.662"",""0.707""]","[1,1,1,0]",0,61,61,61,1,0,0,,,1,FALSE,,,,,,,,,,,,,,,,,,,,,,,,,,,,,,,
,5fa318d8cbda73497645e374,627c6f3bca0d625b1aa4ec99,2022-05-11_19h22.00.083,classification_task,2021.2.3,Win32,60.42296073,627c6715c52fd12f31907bcf,,,,,,,,,,,,,,,,,,,,,,,l,1,1.3325,"[""0.033"",""0.262"",""0.582"",""0.070""]","[1,1,1,0]",0,62,62,62,1,1,1,,,1,FALSE,,,,,,,,,,,,,,,,,,,,,,,,,,,,,,,
,5fa318d8cbda73497645e374,627c6f3bca0d625b1aa4ec99,2022-05-11_19h22.00.083,classification_task,2021.2.3,Win32,60.42296073,627c6715c52fd12f31907bcf,,,,,,,,,,,,,,,,,,,,,,,l,0,1.1863,"[""0.164"",""0.409"",""0.852"",""0.959""]","[1,0,1,1]",0,63,63,63,1,0,1,,,1,FALSE,,,,,,,,,,,,,,,,,,,,,,,,,,,,,,,
,5fa318d8cbda73497645e374,627c6f3bca0d625b1aa4ec99,2022-05-11_19h22.00.083,classification_task,2021.2.3,Win32,60.42296073,627c6715c52fd12f31907bcf,,,,,,,,,,,,,,,,,,,,,,,,,,,,,,,,,,,,,,,0, ,,0,5.612384872,493.9566,0,0,0,0,1,2,1,,,,,,,,,,,,,,,,,,
,5fa318d8cbda73497645e374,627c6f3bca0d625b1aa4ec99,2022-05-11_19h22.00.083,classification_task,2021.2.3,Win32,60.42296073,627c6715c52fd12f31907bcf,,,,,,,,,,,,,,,,,,,,,,,,,,,,,,,,,,,,,,,1,  ,,0,9.605134235,507.4572,0,0,0,0,1,2,1,,,,,,,,,,,,,,,,,,
,5fa318d8cbda73497645e374,627c6f3bca0d625b1aa4ec99,2022-05-11_19h22.00.083,classification_task,2021.2.3,Win32,60.42296073,627c6715c52fd12f31907bcf,,,,,,,,,,,,,,,,,,,,,,,,,,,,,,,,,,,,,,,2,  ,,0,7.400548697,505.4172,0,0,0,0,1,2,1,,,,,,,,,,,,,,,,,,
,5fa318d8cbda73497645e374,627c6f3bca0d625b1aa4ec99,2022-05-11_19h22.00.083,classification_task,2021.2.3,Win32,60.42296073,627c6715c52fd12f31907bcf,,,,,,,,,,,,,,,,,,,,,,,,,,,,,,,,,,,,,,,,,,,,,0,0,0,0,1,,1,,,,,,,,,,,,,,,,,,
,5fa318d8cbda73497645e374,627c6f3bca0d625b1aa4ec99,2022-05-11_19h22.00.083,classification_task,2021.2.3,Win32,60.42296073,627c6715c52fd12f31907bcf,,,,,,,,,,,,,,,,,,,,,space,16.5539,l,0,3.5825,"[""0.199"",""0.427"",""0.662"",""0.894""]","[1,0,1,1]",0,0,0,0,1,0,0,,,1,FALSE,,,,,,,,,,,,,,,,,,,,,,,,,,,,,,,
,5fa318d8cbda73497645e374,627c6f3bca0d625b1aa4ec99,2022-05-11_19h22.00.083,classification_task,2021.2.3,Win32,60.42296073,627c6715c52fd12f31907bcf,,,,,,,,,,,,,,,,,,,,,,,a,1,2.0547,"[""0.164"",""0.524"",""0.420"",""0.959""]","[1,1,0,1]",0,1,1,1,1,0,1,,,1,FALSE,,,,,,,,,,,,,,,,,,,,,,,,,,,,,,,
,5fa318d8cbda73497645e374,627c6f3bca0d625b1aa4ec99,2022-05-11_19h22.00.083,classification_task,2021.2.3,Win32,60.42296073,627c6715c52fd12f31907bcf,,,,,,,,,,,,,,,,,,,,,,,l,1,1.4496,"[""0.033"",""0.262"",""0.582"",""0.703""]","[1,1,1,0]",0,2,2,2,1,1,1,,,1,FALSE,,,,,,,,,,,,,,,,,,,,,,,,,,,,,,,
,5fa318d8cbda73497645e374,627c6f3bca0d625b1aa4ec99,2022-05-11_19h22.00.083,classification_task,2021.2.3,Win32,60.42296073,627c6715c52fd12f31907bcf,,,,,,,,,,,,,,,,,,,,,,,l,1,2.0458,"[""0.033"",""0.262"",""0.083"",""0.807""]","[1,1,0,1]",0,3,3,3,1,1,1,,,1,FALSE,,,,,,,,,,,,,,,,,,,,,,,,,,,,,,,
,5fa318d8cbda73497645e374,627c6f3bca0d625b1aa4ec99,2022-05-11_19h22.00.083,classification_task,2021.2.3,Win32,60.42296073,627c6715c52fd12f31907bcf,,,,,,,,,,,,,,,,,,,,,,,l,1,2.658,"[""0.128"",""0.297"",""0.070"",""0.745""]","[1,1,0,1]",0,4,4,4,1,1,0,,,1,FALSE,,,,,,,,,,,,,,,,,,,,,,,,,,,,,,,
,5fa318d8cbda73497645e374,627c6f3bca0d625b1aa4ec99,2022-05-11_19h22.00.083,classification_task,2021.2.3,Win32,60.42296073,627c6715c52fd12f31907bcf,,,,,,,,,,,,,,,,,,,,,,,l,0,1.7915,"[""0.199"",""0.360"",""0.662"",""0.625""]","[1,1,1,0]",0,5,5,5,1,0,0,,,1,FALSE,,,,,,,,,,,,,,,,,,,,,,,,,,,,,,,
,5fa318d8cbda73497645e374,627c6f3bca0d625b1aa4ec99,2022-05-11_19h22.00.083,classification_task,2021.2.3,Win32,60.42296073,627c6715c52fd12f31907bcf,,,,,,,,,,,,,,,,,,,,,,,l,1,1.0409,"[""0.128"",""0.087"",""0.465"",""0.745""]","[1,0,1,1]",0,6,6,6,1,1,0,,,1,FALSE,,,,,,,,,,,,,,,,,,,,,,,,,,,,,,,
,5fa318d8cbda73497645e374,627c6f3bca0d625b1aa4ec99,2022-05-11_19h22.00.083,classification_task,2021.2.3,Win32,60.42296073,627c6715c52fd12f31907bcf,,,,,,,,,,,,,,,,,,,,,,,a,0,0.9187,"[""0.128"",""0.297"",""0.465"",""0.625""]","[1,1,1,0]",0,7,7,7,1,1,0,,,1,FALSE,,,,,,,,,,,,,,,,,,,,,,,,,,,,,,,
,5fa318d8cbda73497645e374,627c6f3bca0d625b1aa4ec99,2022-05-11_19h22.00.083,classification_task,2021.2.3,Win32,60.42296073,627c6715c52fd12f31907bcf,,,,,,,,,,,,,,,,,,,,,,,a,1,1.1805,"[""0.164"",""0.701"",""0.852"",""0.959""]","[1,0,1,1]",0,8,8,8,1,0,1,,,1,FALSE,,,,,,,,,,,,,,,,,,,,,,,,,,,,,,,
,5fa318d8cbda73497645e374,627c6f3bca0d625b1aa4ec99,2022-05-11_19h22.00.083,classification_task,2021.2.3,Win32,60.42296073,627c6715c52fd12f31907bcf,,,,,,,,,,,,,,,,,,,,,,,l,1,1.0006,"[""0.616"",""0.262"",""0.582"",""0.807""]","[0,1,1,1]",0,9,9,9,1,1,1,,,1,FALSE,,,,,,,,,,,,,,,,,,,,,,,,,,,,,,,
,5fa318d8cbda73497645e374,627c6f3bca0d625b1aa4ec99,2022-05-11_19h22.00.083,classification_task,2021.2.3,Win32,60.42296073,627c6715c52fd12f31907bcf,,,,,,,,,,,,,,,,,,,,,,,a,1,0.9168,"[""0.164"",""0.524"",""0.852"",""0.703""]","[1,1,1,0]",0,10,10,10,1,0,1,,,1,FALSE,,,,,,,,,,,,,,,,,,,,,,,,,,,,,,,
,5fa318d8cbda73497645e374,627c6f3bca0d625b1aa4ec99,2022-05-11_19h22.00.083,classification_task,2021.2.3,Win32,60.42296073,627c6715c52fd12f31907bcf,,,,,,,,,,,,,,,,,,,,,,,a,0,1.1041,"[""0.083"",""0.297"",""0.465"",""0.745""]","[0,1,1,1]",0,11,11,11,1,1,0,,,1,FALSE,,,,,,,,,,,,,,,,,,,,,,,,,,,,,,,
,5fa318d8cbda73497645e374,627c6f3bca0d625b1aa4ec99,2022-05-11_19h22.00.083,classification_task,2021.2.3,Win32,60.42296073,627c6715c52fd12f31907bcf,,,,,,,,,,,,,,,,,,,,,,,a,1,2.0838,"[""0.083"",""0.360"",""0.662"",""0.894""]","[0,1,1,1]",0,12,12,12,1,0,0,,,1,FALSE,,,,,,,,,,,,,,,,,,,,,,,,,,,,,,,
,5fa318d8cbda73497645e374,627c6f3bca0d625b1aa4ec99,2022-05-11_19h22.00.083,classification_task,2021.2.3,Win32,60.42296073,627c6715c52fd12f31907bcf,,,,,,,,,,,,,,,,,,,,,,,l,1,0.8593,"[""0.033"",""0.070"",""0.582"",""0.807""]","[1,0,1,1]",0,13,13,13,1,1,1,,,1,FALSE,,,,,,,,,,,,,,,,,,,,,,,,,,,,,,,
,5fa318d8cbda73497645e374,627c6f3bca0d625b1aa4ec99,2022-05-11_19h22.00.083,classification_task,2021.2.3,Win32,60.42296073,627c6715c52fd12f31907bcf,,,,,,,,,,,,,,,,,,,,,,,a,1,0.8215,"[""0.409"",""0.524"",""0.852"",""0.959""]","[0,1,1,1]",0,14,14,14,1,0,1,,,1,FALSE,,,,,,,,,,,,,,,,,,,,,,,,,,,,,,,
,5fa318d8cbda73497645e374,627c6f3bca0d625b1aa4ec99,2022-05-11_19h22.00.083,classification_task,2021.2.3,Win32,60.42296073,627c6715c52fd12f31907bcf,,,,,,,,,,,,,,,,,,,,,,,l,0,2.5068,"[""0.199"",""0.360"",""0.422"",""0.894""]","[1,1,0,1]",0,15,15,15,1,0,0,,,1,FALSE,,,,,,,,,,,,,,,,,,,,,,,,,,,,,,,
,5fa318d8cbda73497645e374,627c6f3bca0d625b1aa4ec99,2022-05-11_19h22.00.083,classification_task,2021.2.3,Win32,60.42296073,627c6715c52fd12f31907bcf,,,,,,,,,,,,,,,,,,,,,,,l,0,0.7525,"[""0.087"",""0.360"",""0.662"",""0.894""]","[0,1,1,1]",0,16,16,16,1,0,0,,,1,FALSE,,,,,,,,,,,,,,,,,,,,,,,,,,,,,,,
,5fa318d8cbda73497645e374,627c6f3bca0d625b1aa4ec99,2022-05-11_19h22.00.083,classification_task,2021.2.3,Win32,60.42296073,627c6715c52fd12f31907bcf,,,,,,,,,,,,,,,,,,,,,,,a,1,0.8152,"[""0.412"",""0.524"",""0.852"",""0.959""]","[0,1,1,1]",0,17,17,17,1,0,1,,,1,FALSE,,,,,,,,,,,,,,,,,,,,,,,,,,,,,,,
,5fa318d8cbda73497645e374,627c6f3bca0d625b1aa4ec99,2022-05-11_19h22.00.083,classification_task,2021.2.3,Win32,60.42296073,627c6715c52fd12f31907bcf,,,,,,,,,,,,,,,,,,,,,,,a,0,1.112,"[""0.128"",""0.297"",""0.465"",""0.625""]","[1,1,1,0]",0,18,18,18,1,1,0,,,1,FALSE,,,,,,,,,,,,,,,,,,,,,,,,,,,,,,,
,5fa318d8cbda73497645e374,627c6f3bca0d625b1aa4ec99,2022-05-11_19h22.00.083,classification_task,2021.2.3,Win32,60.42296073,627c6715c52fd12f31907bcf,,,,,,,,,,,,,,,,,,,,,,,a,1,0.9578,"[""0.199"",""0.360"",""0.707"",""0.894""]","[1,1,0,1]",0,19,19,19,1,0,0,,,1,FALSE,,,,,,,,,,,,,,,,,,,,,,,,,,,,,,,
,5fa318d8cbda73497645e374,627c6f3bca0d625b1aa4ec99,2022-05-11_19h22.00.083,classification_task,2021.2.3,Win32,60.42296073,627c6715c52fd12f31907bcf,,,,,,,,,,,,,,,,,,,,,,,l,1,0.813,"[""0.033"",""0.262"",""0.427"",""0.807""]","[1,1,0,1]",0,20,20,20,1,1,1,,,1,FALSE,,,,,,,,,,,,,,,,,,,,,,,,,,,,,,,
,5fa318d8cbda73497645e374,627c6f3bca0d625b1aa4ec99,2022-05-11_19h22.00.083,classification_task,2021.2.3,Win32,60.42296073,627c6715c52fd12f31907bcf,,,,,,,,,,,,,,,,,,,,,,,l,0,2.0618,"[""0.199"",""0.360"",""0.662"",""0.071""]","[1,1,1,0]",0,21,21,21,1,0,0,,,1,FALSE,,,,,,,,,,,,,,,,,,,,,,,,,,,,,,,
,5fa318d8cbda73497645e374,627c6f3bca0d625b1aa4ec99,2022-05-11_19h22.00.083,classification_task,2021.2.3,Win32,60.42296073,627c6715c52fd12f31907bcf,,,,,,,,,,,,,,,,,,,,,,,l,1,0.6205,"[""0.033"",""0.701"",""0.582"",""0.807""]","[1,0,1,1]",0,22,22,22,1,1,1,,,1,FALSE,,,,,,,,,,,,,,,,,,,,,,,,,,,,,,,
,5fa318d8cbda73497645e374,627c6f3bca0d625b1aa4ec99,2022-05-11_19h22.00.083,classification_task,2021.2.3,Win32,60.42296073,627c6715c52fd12f31907bcf,,,,,,,,,,,,,,,,,,,,,,,l,1,0.5007,"[""0.033"",""0.262"",""0.582"",""0.616""]","[1,1,1,0]",0,23,23,23,1,1,1,,,1,FALSE,,,,,,,,,,,,,,,,,,,,,,,,,,,,,,,
,5fa318d8cbda73497645e374,627c6f3bca0d625b1aa4ec99,2022-05-11_19h22.00.083,classification_task,2021.2.3,Win32,60.42296073,627c6715c52fd12f31907bcf,,,,,,,,,,,,,,,,,,,,,,,l,1,0.5834,"[""0.701"",""0.262"",""0.582"",""0.807""]","[0,1,1,1]",0,24,24,24,1,1,1,,,1,FALSE,,,,,,,,,,,,,,,,,,,,,,,,,,,,,,,
,5fa318d8cbda73497645e374,627c6f3bca0d625b1aa4ec99,2022-05-11_19h22.00.083,classification_task,2021.2.3,Win32,60.42296073,627c6715c52fd12f31907bcf,,,,,,,,,,,,,,,,,,,,,,,a,1,0.6823,"[""0.164"",""0.524"",""0.422"",""0.959""]","[1,1,0,1]",0,25,25,25,1,0,1,,,1,FALSE,,,,,,,,,,,,,,,,,,,,,,,,,,,,,,,
,5fa318d8cbda73497645e374,627c6f3bca0d625b1aa4ec99,2022-05-11_19h22.00.083,classification_task,2021.2.3,Win32,60.42296073,627c6715c52fd12f31907bcf,,,,,,,,,,,,,,,,,,,,,,,a,1,0.7675,"[""0.164"",""0.703"",""0.852"",""0.959""]","[1,0,1,1]",0,26,26,26,1,0,1,,,1,FALSE,,,,,,,,,,,,,,,,,,,,,,,,,,,,,,,
,5fa318d8cbda73497645e374,627c6f3bca0d625b1aa4ec99,2022-05-11_19h22.00.083,classification_task,2021.2.3,Win32,60.42296073,627c6715c52fd12f31907bcf,,,,,,,,,,,,,,,,,,,,,,,a,0,1.8979,"[""0.128"",""0.409"",""0.465"",""0.745""]","[1,0,1,1]",0,27,27,27,1,1,0,,,1,FALSE,,,,,,,,,,,,,,,,,,,,,,,,,,,,,,,
,5fa318d8cbda73497645e374,627c6f3bca0d625b1aa4ec99,2022-05-11_19h22.00.083,classification_task,2021.2.3,Win32,60.42296073,627c6715c52fd12f31907bcf,,,,,,,,,,,,,,,,,,,,,,,l,1,3.3517,"[""0.128"",""0.297"",""0.083"",""0.745""]","[1,1,0,1]",0,28,28,28,1,1,0,,,1,FALSE,,,,,,,,,,,,,,,,,,,,,,,,,,,,,,,
,5fa318d8cbda73497645e374,627c6f3bca0d625b1aa4ec99,2022-05-11_19h22.00.083,classification_task,2021.2.3,Win32,60.42296073,627c6715c52fd12f31907bcf,,,,,,,,,,,,,,,,,,,,,,,l,1,1.327,"[""0.701"",""0.297"",""0.465"",""0.745""]","[0,1,1,1]",0,29,29,29,1,1,0,,,1,FALSE,,,,,,,,,,,,,,,,,,,,,,,,,,,,,,,
,5fa318d8cbda73497645e374,627c6f3bca0d625b1aa4ec99,2022-05-11_19h22.00.083,classification_task,2021.2.3,Win32,60.42296073,627c6715c52fd12f31907bcf,,,,,,,,,,,,,,,,,,,,,,,a,1,0.7325,"[""0.164"",""0.524"",""0.852"",""0.421""]","[1,1,1,0]",0,30,30,30,1,0,1,,,1,FALSE,,,,,,,,,,,,,,,,,,,,,,,,,,,,,,,
,5fa318d8cbda73497645e374,627c6f3bca0d625b1aa4ec99,2022-05-11_19h22.00.083,classification_task,2021.2.3,Win32,60.42296073,627c6715c52fd12f31907bcf,,,,,,,,,,,,,,,,,,,,,,,a,1,1.7071,"[""0.199"",""0.616"",""0.662"",""0.894""]","[1,0,1,1]",0,31,31,31,1,0,0,,,1,FALSE,,,,,,,,,,,,,,,,,,,,,,,,,,,,,,,
,5fa318d8cbda73497645e374,627c6f3bca0d625b1aa4ec99,2022-05-11_19h22.00.083,classification_task,2021.2.3,Win32,60.42296073,627c6715c52fd12f31907bcf,,,,,,,,,,,,,,,,,,,,,,,a,0,1.267,"[""0.128"",""0.297"",""0.465"",""0.087""]","[1,1,1,0]",0,32,32,32,1,1,0,,,1,FALSE,,,,,,,,,,,,,,,,,,,,,,,,,,,,,,,
,5fa318d8cbda73497645e374,627c6f3bca0d625b1aa4ec99,2022-05-11_19h22.00.083,classification_task,2021.2.3,Win32,60.42296073,627c6715c52fd12f31907bcf,,,,,,,,,,,,,,,,,,,,,,,l,1,0.6739,"[""0.033"",""0.087"",""0.582"",""0.807""]","[1,0,1,1]",0,33,33,33,1,1,1,,,1,FALSE,,,,,,,,,,,,,,,,,,,,,,,,,,,,,,,
,5fa318d8cbda73497645e374,627c6f3bca0d625b1aa4ec99,2022-05-11_19h22.00.083,classification_task,2021.2.3,Win32,60.42296073,627c6715c52fd12f31907bcf,,,,,,,,,,,,,,,,,,,,,,,l,1,0.6251,"[""0.409"",""0.262"",""0.582"",""0.807""]","[0,1,1,1]",0,34,34,34,1,1,1,,,1,FALSE,,,,,,,,,,,,,,,,,,,,,,,,,,,,,,,
,5fa318d8cbda73497645e374,627c6f3bca0d625b1aa4ec99,2022-05-11_19h22.00.083,classification_task,2021.2.3,Win32,60.42296073,627c6715c52fd12f31907bcf,,,,,,,,,,,,,,,,,,,,,,,a,1,1.0375,"[""0.199"",""0.409"",""0.662"",""0.894""]","[1,0,1,1]",0,35,35,35,1,0,0,,,1,FALSE,,,,,,,,,,,,,,,,,,,,,,,,,,,,,,,
,5fa318d8cbda73497645e374,627c6f3bca0d625b1aa4ec99,2022-05-11_19h22.00.083,classification_task,2021.2.3,Win32,60.42296073,627c6715c52fd12f31907bcf,,,,,,,,,,,,,,,,,,,,,,,a,1,0.9304,"[""0.164"",""0.701"",""0.852"",""0.959""]","[1,0,1,1]",0,36,36,36,1,0,1,,,1,FALSE,,,,,,,,,,,,,,,,,,,,,,,,,,,,,,,
,5fa318d8cbda73497645e374,627c6f3bca0d625b1aa4ec99,2022-05-11_19h22.00.083,classification_task,2021.2.3,Win32,60.42296073,627c6715c52fd12f31907bcf,,,,,,,,,,,,,,,,,,,,,,,l,1,0.7157,"[""0.033"",""0.262"",""0.582"",""0.409""]","[1,1,1,0]",0,37,37,37,1,1,1,,,1,FALSE,,,,,,,,,,,,,,,,,,,,,,,,,,,,,,,
,5fa318d8cbda73497645e374,627c6f3bca0d625b1aa4ec99,2022-05-11_19h22.00.083,classification_task,2021.2.3,Win32,60.42296073,627c6715c52fd12f31907bcf,,,,,,,,,,,,,,,,,,,,,,,a,1,0.8154,"[""0.427"",""0.360"",""0.662"",""0.894""]","[0,1,1,1]",0,38,38,38,1,0,0,,,1,FALSE,,,,,,,,,,,,,,,,,,,,,,,,,,,,,,,
,5fa318d8cbda73497645e374,627c6f3bca0d625b1aa4ec99,2022-05-11_19h22.00.083,classification_task,2021.2.3,Win32,60.42296073,627c6715c52fd12f31907bcf,,,,,,,,,,,,,,,,,,,,,,,a,1,0.7011,"[""0.164"",""0.524"",""0.852"",""0.427""]","[1,1,1,0]",0,39,39,39,1,0,1,,,1,FALSE,,,,,,,,,,,,,,,,,,,,,,,,,,,,,,,
,5fa318d8cbda73497645e374,627c6f3bca0d625b1aa4ec99,2022-05-11_19h22.00.083,classification_task,2021.2.3,Win32,60.42296073,627c6715c52fd12f31907bcf,,,,,,,,,,,,,,,,,,,,,,,l,1,0.6608,"[""0.033"",""0.262"",""0.409"",""0.807""]","[1,1,0,1]",0,40,40,40,1,1,1,,,1,FALSE,,,,,,,,,,,,,,,,,,,,,,,,,,,,,,,
,5fa318d8cbda73497645e374,627c6f3bca0d625b1aa4ec99,2022-05-11_19h22.00.083,classification_task,2021.2.3,Win32,60.42296073,627c6715c52fd12f31907bcf,,,,,,,,,,,,,,,,,,,,,,,a,1,0.7835,"[""0.199"",""0.360"",""0.703"",""0.894""]","[1,1,0,1]",0,41,41,41,1,0,0,,,1,FALSE,,,,,,,,,,,,,,,,,,,,,,,,,,,,,,,
,5fa318d8cbda73497645e374,627c6f3bca0d625b1aa4ec99,2022-05-11_19h22.00.083,classification_task,2021.2.3,Win32,60.42296073,627c6715c52fd12f31907bcf,,,,,,,,,,,,,,,,,,,,,,,a,0,2.0255,"[""0.128"",""0.297"",""0.703"",""0.745""]","[1,1,0,1]",0,42,42,42,1,1,0,,,1,FALSE,,,,,,,,,,,,,,,,,,,,,,,,,,,,,,,
,5fa318d8cbda73497645e374,627c6f3bca0d625b1aa4ec99,2022-05-11_19h22.00.083,classification_task,2021.2.3,Win32,60.42296073,627c6715c52fd12f31907bcf,,,,,,,,,,,,,,,,,,,,,,,a,1,1.5899,"[""0.199"",""0.360"",""0.662"",""0.616""]","[1,1,1,0]",0,43,43,43,1,0,0,,,1,FALSE,,,,,,,,,,,,,,,,,,,,,,,,,,,,,,,
,5fa318d8cbda73497645e374,627c6f3bca0d625b1aa4ec99,2022-05-11_19h22.00.083,classification_task,2021.2.3,Win32,60.42296073,627c6715c52fd12f31907bcf,,,,,,,,,,,,,,,,,,,,,,,a,1,0.6801,"[""0.164"",""0.524"",""0.703"",""0.959""]","[1,1,0,1]",0,44,44,44,1,0,1,,,1,FALSE,,,,,,,,,,,,,,,,,,,,,,,,,,,,,,,
,5fa318d8cbda73497645e374,627c6f3bca0d625b1aa4ec99,2022-05-11_19h22.00.083,classification_task,2021.2.3,Win32,60.42296073,627c6715c52fd12f31907bcf,,,,,,,,,,,,,,,,,,,,,,,a,1,0.5561,"[""0.625"",""0.524"",""0.852"",""0.959""]","[0,1,1,1]",0,45,45,45,1,0,1,,,1,FALSE,,,,,,,,,,,,,,,,,,,,,,,,,,,,,,,
,5fa318d8cbda73497645e374,627c6f3bca0d625b1aa4ec99,2022-05-11_19h22.00.083,classification_task,2021.2.3,Win32,60.42296073,627c6715c52fd12f31907bcf,,,,,,,,,,,,,,,,,,,,,,,l,1,1.5214,"[""0.422"",""0.297"",""0.465"",""0.745""]","[0,1,1,1]",0,46,46,46,1,1,0,,,1,FALSE,,,,,,,,,,,,,,,,,,,,,,,,,,,,,,,
,5fa318d8cbda73497645e374,627c6f3bca0d625b1aa4ec99,2022-05-11_19h22.00.083,classification_task,2021.2.3,Win32,60.42296073,627c6715c52fd12f31907bcf,,,,,,,,,,,,,,,,,,,,,,,a,0,1.4494,"[""0.128"",""0.409"",""0.465"",""0.745""]","[1,0,1,1]",0,47,47,47,1,1,0,,,1,FALSE,,,,,,,,,,,,,,,,,,,,,,,,,,,,,,,
,5fa318d8cbda73497645e374,627c6f3bca0d625b1aa4ec99,2022-05-11_19h22.00.083,classification_task,2021.2.3,Win32,60.42296073,627c6715c52fd12f31907bcf,,,,,,,,,,,,,,,,,,,,,,,l,1,0.724,"[""0.128"",""0.409"",""0.465"",""0.745""]","[1,0,1,1]",0,48,48,48,1,1,0,,,1,FALSE,,,,,,,,,,,,,,,,,,,,,,,,,,,,,,,
,5fa318d8cbda73497645e374,627c6f3bca0d625b1aa4ec99,2022-05-11_19h22.00.083,classification_task,2021.2.3,Win32,60.42296073,627c6715c52fd12f31907bcf,,,,,,,,,,,,,,,,,,,,,,,l,1,0.571,"[""0.033"",""0.262"",""0.701"",""0.807""]","[1,1,0,1]",0,49,49,49,1,1,1,,,1,FALSE,,,,,,,,,,,,,,,,,,,,,,,,,,,,,,,
,5fa318d8cbda73497645e374,627c6f3bca0d625b1aa4ec99,2022-05-11_19h22.00.083,classification_task,2021.2.3,Win32,60.42296073,627c6715c52fd12f31907bcf,,,,,,,,,,,,,,,,,,,,,,,a,1,0.6395,"[""0.164"",""0.707"",""0.852"",""0.959""]","[1,0,1,1]",0,50,50,50,1,0,1,,,1,FALSE,,,,,,,,,,,,,,,,,,,,,,,,,,,,,,,
,5fa318d8cbda73497645e374,627c6f3bca0d625b1aa4ec99,2022-05-11_19h22.00.083,classification_task,2021.2.3,Win32,60.42296073,627c6715c52fd12f31907bcf,,,,,,,,,,,,,,,,,,,,,,,a,1,0.5248,"[""0.164"",""0.524"",""0.701"",""0.959""]","[1,1,0,1]",0,51,51,51,1,0,1,,,1,FALSE,,,,,,,,,,,,,,,,,,,,,,,,,,,,,,,
,5fa318d8cbda73497645e374,627c6f3bca0d625b1aa4ec99,2022-05-11_19h22.00.083,classification_task,2021.2.3,Win32,60.42296073,627c6715c52fd12f31907bcf,,,,,,,,,,,,,,,,,,,,,,,l,0,2.4858,"[""0.199"",""0.360"",""0.662"",""0.071""]","[1,1,1,0]",0,52,52,52,1,0,0,,,1,FALSE,,,,,,,,,,,,,,,,,,,,,,,,,,,,,,,
,5fa318d8cbda73497645e374,627c6f3bca0d625b1aa4ec99,2022-05-11_19h22.00.083,classification_task,2021.2.3,Win32,60.42296073,627c6715c52fd12f31907bcf,,,,,,,,,,,,,,,,,,,,,,,a,1,0.9399,"[""0.199"",""0.360"",""0.420"",""0.894""]","[1,1,0,1]",0,53,53,53,1,0,0,,,1,FALSE,,,,,,,,,,,,,,,,,,,,,,,,,,,,,,,
,5fa318d8cbda73497645e374,627c6f3bca0d625b1aa4ec99,2022-05-11_19h22.00.083,classification_task,2021.2.3,Win32,60.42296073,627c6715c52fd12f31907bcf,,,,,,,,,,,,,,,,,,,,,,,a,0,0.7905,"[""0.128"",""0.297"",""0.071"",""0.745""]","[1,1,0,1]",0,54,54,54,1,1,0,,,1,FALSE,,,,,,,,,,,,,,,,,,,,,,,,,,,,,,,
,5fa318d8cbda73497645e374,627c6f3bca0d625b1aa4ec99,2022-05-11_19h22.00.083,classification_task,2021.2.3,Win32,60.42296073,627c6715c52fd12f31907bcf,,,,,,,,,,,,,,,,,,,,,,,l,1,0.7551,"[""0.033"",""0.262"",""0.582"",""0.707""]","[1,1,1,0]",0,55,55,55,1,1,1,,,1,FALSE,,,,,,,,,,,,,,,,,,,,,,,,,,,,,,,
,5fa318d8cbda73497645e374,627c6f3bca0d625b1aa4ec99,2022-05-11_19h22.00.083,classification_task,2021.2.3,Win32,60.42296073,627c6715c52fd12f31907bcf,,,,,,,,,,,,,,,,,,,,,,,a,1,0.6161,"[""0.422"",""0.524"",""0.852"",""0.959""]","[0,1,1,1]",0,56,56,56,1,0,1,,,1,FALSE,,,,,,,,,,,,,,,,,,,,,,,,,,,,,,,
,5fa318d8cbda73497645e374,627c6f3bca0d625b1aa4ec99,2022-05-11_19h22.00.083,classification_task,2021.2.3,Win32,60.42296073,627c6715c52fd12f31907bcf,,,,,,,,,,,,,,,,,,,,,,,l,1,1.3155,"[""0.412"",""0.297"",""0.465"",""0.745""]","[0,1,1,1]",0,57,57,57,1,1,0,,,1,FALSE,,,,,,,,,,,,,,,,,,,,,,,,,,,,,,,
,5fa318d8cbda73497645e374,627c6f3bca0d625b1aa4ec99,2022-05-11_19h22.00.083,classification_task,2021.2.3,Win32,60.42296073,627c6715c52fd12f31907bcf,,,,,,,,,,,,,,,,,,,,,,,l,1,0.6364,"[""0.033"",""0.703"",""0.582"",""0.807""]","[1,0,1,1]",0,58,58,58,1,1,1,,,1,FALSE,,,,,,,,,,,,,,,,,,,,,,,,,,,,,,,
,5fa318d8cbda73497645e374,627c6f3bca0d625b1aa4ec99,2022-05-11_19h22.00.083,classification_task,2021.2.3,Win32,60.42296073,627c6715c52fd12f31907bcf,,,,,,,,,,,,,,,,,,,,,,,a,1,0.8929,"[""0.071"",""0.360"",""0.662"",""0.894""]","[0,1,1,1]",0,59,59,59,1,0,0,,,1,FALSE,,,,,,,,,,,,,,,,,,,,,,,,,,,,,,,
,5fa318d8cbda73497645e374,627c6f3bca0d625b1aa4ec99,2022-05-11_19h22.00.083,classification_task,2021.2.3,Win32,60.42296073,627c6715c52fd12f31907bcf,,,,,,,,,,,,,,,,,,,,,,,a,1,0.7111,"[""0.164"",""0.524"",""0.852"",""0.427""]","[1,1,1,0]",0,60,60,60,1,0,1,,,1,FALSE,,,,,,,,,,,,,,,,,,,,,,,,,,,,,,,
,5fa318d8cbda73497645e374,627c6f3bca0d625b1aa4ec99,2022-05-11_19h22.00.083,classification_task,2021.2.3,Win32,60.42296073,627c6715c52fd12f31907bcf,,,,,,,,,,,,,,,,,,,,,,,a,0,2.1694,"[""0.128"",""0.297"",""0.465"",""0.703""]","[1,1,1,0]",0,61,61,61,1,1,0,,,1,FALSE,,,,,,,,,,,,,,,,,,,,,,,,,,,,,,,
,5fa318d8cbda73497645e374,627c6f3bca0d625b1aa4ec99,2022-05-11_19h22.00.083,classification_task,2021.2.3,Win32,60.42296073,627c6715c52fd12f31907bcf,,,,,,,,,,,,,,,,,,,,,,,l,1,0.5701,"[""0.071"",""0.262"",""0.582"",""0.807""]","[0,1,1,1]",0,62,62,62,1,1,1,,,1,FALSE,,,,,,,,,,,,,,,,,,,,,,,,,,,,,,,
,5fa318d8cbda73497645e374,627c6f3bca0d625b1aa4ec99,2022-05-11_19h22.00.083,classification_task,2021.2.3,Win32,60.42296073,627c6715c52fd12f31907bcf,,,,,,,,,,,,,,,,,,,,,,,l,0,1.8986,"[""0.199"",""0.701"",""0.662"",""0.894""]","[1,0,1,1]",0,63,63,63,1,0,0,,,1,FALSE,,,,,,,,,,,,,,,,,,,,,,,,,,,,,,,
,5fa318d8cbda73497645e374,627c6f3bca0d625b1aa4ec99,2022-05-11_19h22.00.083,classification_task,2021.2.3,Win32,60.42296073,627c6715c52fd12f31907bcf,,,,,,,,,,,,,,,,,,,,,,,,,,,,,,,,,,,,,,,0, ,,0,3.285322359,165.1334,0,1,1,1,1,2,2,,,,,,,,,,,,,,,,,,
,5fa318d8cbda73497645e374,627c6f3bca0d625b1aa4ec99,2022-05-11_19h22.00.083,classification_task,2021.2.3,Win32,60.42296073,627c6715c52fd12f31907bcf,,,,,,,,,,,,,,,,,,,,,,,,,,,,,,,,,,,,,,,1,  ,,0,3.750734862,172.2336,0,1,1,1,1,2,2,,,,,,,,,,,,,,,,,,
,5fa318d8cbda73497645e374,627c6f3bca0d625b1aa4ec99,2022-05-11_19h22.00.083,classification_task,2021.2.3,Win32,60.42296073,627c6715c52fd12f31907bcf,,,,,,,,,,,,,,,,,,,,,,,,,,,,,,,,,,,,,,,2,  ,,0,2.574955908,171.03,0,1,1,1,1,2,2,,,,,,,,,,,,,,,,,,
,5fa318d8cbda73497645e374,627c6f3bca0d625b1aa4ec99,2022-05-11_19h22.00.083,classification_task,2021.2.3,Win32,60.42296073,627c6715c52fd12f31907bcf,,,,,,,,,,,,,,,,,,,,,,,,,,,,,,,,,,,,,,,,,,,,,0,1,1,1,1,,2,,,,,,,,,,,,,,,,,,
,5fa318d8cbda73497645e374,627c6f3bca0d625b1aa4ec99,2022-05-11_19h22.00.083,classification_task,2021.2.3,Win32,60.42296073,627c6715c52fd12f31907bcf,,,,,,,,,,,,,,,,,,,,,space,6.8111,a,0,2.1239,"[""0.616"",""0.297"",""0.465"",""0.745""]","[0,1,1,1]",0,0,0,0,1,1,0,,,1,FALSE,,,,,,,,,,,,,,,,,,,,,,,,,,,,,,,
,5fa318d8cbda73497645e374,627c6f3bca0d625b1aa4ec99,2022-05-11_19h22.00.083,classification_task,2021.2.3,Win32,60.42296073,627c6715c52fd12f31907bcf,,,,,,,,,,,,,,,,,,,,,,,l,1,1.8168,"[""0.128"",""0.297"",""0.465"",""0.701""]","[1,1,1,0]",0,1,1,1,1,1,0,,,1,FALSE,,,,,,,,,,,,,,,,,,,,,,,,,,,,,,,
,5fa318d8cbda73497645e374,627c6f3bca0d625b1aa4ec99,2022-05-11_19h22.00.083,classification_task,2021.2.3,Win32,60.42296073,627c6715c52fd12f31907bcf,,,,,,,,,,,,,,,,,,,,,,,a,0,4.0926,"[""0.083"",""0.262"",""0.582"",""0.807""]","[0,1,1,1]",0,2,2,2,1,1,1,,,1,FALSE,,,,,,,,,,,,,,,,,,,,,,,,,,,,,,,
,5fa318d8cbda73497645e374,627c6f3bca0d625b1aa4ec99,2022-05-11_19h22.00.083,classification_task,2021.2.3,Win32,60.42296073,627c6715c52fd12f31907bcf,,,,,,,,,,,,,,,,,,,,,,,a,0,2.3663,"[""0.128"",""0.297"",""0.421"",""0.745""]","[1,1,0,1]",0,3,3,3,1,1,0,,,1,FALSE,,,,,,,,,,,,,,,,,,,,,,,,,,,,,,,
,5fa318d8cbda73497645e374,627c6f3bca0d625b1aa4ec99,2022-05-11_19h22.00.083,classification_task,2021.2.3,Win32,60.42296073,627c6715c52fd12f31907bcf,,,,,,,,,,,,,,,,,,,,,,,l,0,1.7119,"[""0.199"",""0.360"",""0.662"",""0.625""]","[1,1,1,0]",0,4,4,4,1,0,0,,,1,FALSE,,,,,,,,,,,,,,,,,,,,,,,,,,,,,,,
,5fa318d8cbda73497645e374,627c6f3bca0d625b1aa4ec99,2022-05-11_19h22.00.083,classification_task,2021.2.3,Win32,60.42296073,627c6715c52fd12f31907bcf,,,,,,,,,,,,,,,,,,,,,,,a,1,0.9336,"[""0.703"",""0.360"",""0.662"",""0.894""]","[0,1,1,1]",0,5,5,5,1,0,0,,,1,FALSE,,,,,,,,,,,,,,,,,,,,,,,,,,,,,,,
,5fa318d8cbda73497645e374,627c6f3bca0d625b1aa4ec99,2022-05-11_19h22.00.083,classification_task,2021.2.3,Win32,60.42296073,627c6715c52fd12f31907bcf,,,,,,,,,,,,,,,,,,,,,,,a,1,0.8917,"[""0.199"",""0.360"",""0.427"",""0.894""]","[1,1,0,1]",0,6,6,6,1,0,0,,,1,FALSE,,,,,,,,,,,,,,,,,,,,,,,,,,,,,,,
,5fa318d8cbda73497645e374,627c6f3bca0d625b1aa4ec99,2022-05-11_19h22.00.083,classification_task,2021.2.3,Win32,60.42296073,627c6715c52fd12f31907bcf,,,,,,,,,,,,,,,,,,,,,,,a,0,1.9534,"[""0.033"",""0.262"",""0.412"",""0.807""]","[1,1,0,1]",0,7,7,7,1,1,1,,,1,FALSE,,,,,,,,,,,,,,,,,,,,,,,,,,,,,,,
,5fa318d8cbda73497645e374,627c6f3bca0d625b1aa4ec99,2022-05-11_19h22.00.083,classification_task,2021.2.3,Win32,60.42296073,627c6715c52fd12f31907bcf,,,,,,,,,,,,,,,,,,,,,,,l,1,1.4328,"[""0.128"",""0.420"",""0.465"",""0.745""]","[1,0,1,1]",0,8,8,8,1,1,0,,,1,FALSE,,,,,,,,,,,,,,,,,,,,,,,,,,,,,,,
,5fa318d8cbda73497645e374,627c6f3bca0d625b1aa4ec99,2022-05-11_19h22.00.083,classification_task,2021.2.3,Win32,60.42296073,627c6715c52fd12f31907bcf,,,,,,,,,,,,,,,,,,,,,,,l,1,1.7042,"[""0.033"",""0.262"",""0.582"",""0.427""]","[1,1,1,0]",0,9,9,9,1,1,1,,,1,FALSE,,,,,,,,,,,,,,,,,,,,,,,,,,,,,,,
,5fa318d8cbda73497645e374,627c6f3bca0d625b1aa4ec99,2022-05-11_19h22.00.083,classification_task,2021.2.3,Win32,60.42296073,627c6715c52fd12f31907bcf,,,,,,,,,,,,,,,,,,,,,,,a,0,2.667,"[""0.033"",""0.083"",""0.582"",""0.807""]","[1,0,1,1]",0,10,10,10,1,1,1,,,1,FALSE,,,,,,,,,,,,,,,,,,,,,,,,,,,,,,,
,5fa318d8cbda73497645e374,627c6f3bca0d625b1aa4ec99,2022-05-11_19h22.00.083,classification_task,2021.2.3,Win32,60.42296073,627c6715c52fd12f31907bcf,,,,,,,,,,,,,,,,,,,,,,,l,0,1.6314,"[""0.164"",""0.524"",""0.422"",""0.959""]","[1,1,0,1]",0,11,11,11,1,0,1,,,1,FALSE,,,,,,,,,,,,,,,,,,,,,,,,,,,,,,,
,5fa318d8cbda73497645e374,627c6f3bca0d625b1aa4ec99,2022-05-11_19h22.00.083,classification_task,2021.2.3,Win32,60.42296073,627c6715c52fd12f31907bcf,,,,,,,,,,,,,,,,,,,,,,,l,0,1.3489,"[""0.427"",""0.524"",""0.852"",""0.959""]","[0,1,1,1]",0,12,12,12,1,0,1,,,1,FALSE,,,,,,,,,,,,,,,,,,,,,,,,,,,,,,,
,5fa318d8cbda73497645e374,627c6f3bca0d625b1aa4ec99,2022-05-11_19h22.00.083,classification_task,2021.2.3,Win32,60.42296073,627c6715c52fd12f31907bcf,,,,,,,,,,,,,,,,,,,,,,,a,1,1.5751,"[""0.164"",""0.412"",""0.852"",""0.959""]","[1,0,1,1]",0,13,13,13,1,0,1,,,1,FALSE,,,,,,,,,,,,,,,,,,,,,,,,,,,,,,,
,5fa318d8cbda73497645e374,627c6f3bca0d625b1aa4ec99,2022-05-11_19h22.00.083,classification_task,2021.2.3,Win32,60.42296073,627c6715c52fd12f31907bcf,,,,,,,,,,,,,,,,,,,,,,,a,1,1.3036,"[""0.199"",""0.070"",""0.662"",""0.894""]","[1,0,1,1]",0,14,14,14,1,0,0,,,1,FALSE,,,,,,,,,,,,,,,,,,,,,,,,,,,,,,,
,5fa318d8cbda73497645e374,627c6f3bca0d625b1aa4ec99,2022-05-11_19h22.00.083,classification_task,2021.2.3,Win32,60.42296073,627c6715c52fd12f31907bcf,,,,,,,,,,,,,,,,,,,,,,,l,0,1.3864,"[""0.164"",""0.524"",""0.852"",""0.625""]","[1,1,1,0]",0,15,15,15,1,0,1,,,1,FALSE,,,,,,,,,,,,,,,,,,,,,,,,,,,,,,,
,5fa318d8cbda73497645e374,627c6f3bca0d625b1aa4ec99,2022-05-11_19h22.00.083,classification_task,2021.2.3,Win32,60.42296073,627c6715c52fd12f31907bcf,,,,,,,,,,,,,,,,,,,,,,,l,0,1.5837,"[""0.164"",""0.524"",""0.427"",""0.959""]","[1,1,0,1]",0,16,16,16,1,0,1,,,1,FALSE,,,,,,,,,,,,,,,,,,,,,,,,,,,,,,,
,5fa318d8cbda73497645e374,627c6f3bca0d625b1aa4ec99,2022-05-11_19h22.00.083,classification_task,2021.2.3,Win32,60.42296073,627c6715c52fd12f31907bcf,,,,,,,,,,,,,,,,,,,,,,,a,1,1.6098,"[""0.164"",""0.524"",""0.852"",""0.409""]","[1,1,1,0]",0,17,17,17,1,0,1,,,1,FALSE,,,,,,,,,,,,,,,,,,,,,,,,,,,,,,,
,5fa318d8cbda73497645e374,627c6f3bca0d625b1aa4ec99,2022-05-11_19h22.00.083,classification_task,2021.2.3,Win32,60.42296073,627c6715c52fd12f31907bcf,,,,,,,,,,,,,,,,,,,,,,,a,1,0.9671,"[""0.199"",""0.409"",""0.662"",""0.894""]","[1,0,1,1]",0,18,18,18,1,0,0,,,1,FALSE,,,,,,,,,,,,,,,,,,,,,,,,,,,,,,,
,5fa318d8cbda73497645e374,627c6f3bca0d625b1aa4ec99,2022-05-11_19h22.00.083,classification_task,2021.2.3,Win32,60.42296073,627c6715c52fd12f31907bcf,,,,,,,,,,,,,,,,,,,,,,,a,1,0.9178,"[""0.199"",""0.360"",""0.707"",""0.894""]","[1,1,0,1]",0,19,19,19,1,0,0,,,1,FALSE,,,,,,,,,,,,,,,,,,,,,,,,,,,,,,,
,5fa318d8cbda73497645e374,627c6f3bca0d625b1aa4ec99,2022-05-11_19h22.00.083,classification_task,2021.2.3,Win32,60.42296073,627c6715c52fd12f31907bcf,,,,,,,,,,,,,,,,,,,,,,,l,0,1.3724,"[""0.199"",""0.360"",""0.662"",""0.412""]","[1,1,1,0]",0,20,20,20,1,0,0,,,1,FALSE,,,,,,,,,,,,,,,,,,,,,,,,,,,,,,,
,5fa318d8cbda73497645e374,627c6f3bca0d625b1aa4ec99,2022-05-11_19h22.00.083,classification_task,2021.2.3,Win32,60.42296073,627c6715c52fd12f31907bcf,,,,,,,,,,,,,,,,,,,,,,,a,0,1.9496,"[""0.033"",""0.422"",""0.582"",""0.807""]","[1,0,1,1]",0,21,21,21,1,1,1,,,1,FALSE,,,,,,,,,,,,,,,,,,,,,,,,,,,,,,,
,5fa318d8cbda73497645e374,627c6f3bca0d625b1aa4ec99,2022-05-11_19h22.00.083,classification_task,2021.2.3,Win32,60.42296073,627c6715c52fd12f31907bcf,,,,,,,,,,,,,,,,,,,,,,,a,0,1.5659,"[""0.033"",""0.262"",""0.412"",""0.807""]","[1,1,0,1]",0,22,22,22,1,1,1,,,1,FALSE,,,,,,,,,,,,,,,,,,,,,,,,,,,,,,,
,5fa318d8cbda73497645e374,627c6f3bca0d625b1aa4ec99,2022-05-11_19h22.00.083,classification_task,2021.2.3,Win32,60.42296073,627c6715c52fd12f31907bcf,,,,,,,,,,,,,,,,,,,,,,,l,0,1.6564,"[""0.409"",""0.524"",""0.852"",""0.959""]","[0,1,1,1]",0,23,23,23,1,0,1,,,1,FALSE,,,,,,,,,,,,,,,,,,,,,,,,,,,,,,,
,5fa318d8cbda73497645e374,627c6f3bca0d625b1aa4ec99,2022-05-11_19h22.00.083,classification_task,2021.2.3,Win32,60.42296073,627c6715c52fd12f31907bcf,,,,,,,,,,,,,,,,,,,,,,,a,1,1.1497,"[""0.422"",""0.360"",""0.662"",""0.894""]","[0,1,1,1]",0,24,24,24,1,0,0,,,1,FALSE,,,,,,,,,,,,,,,,,,,,,,,,,,,,,,,
,5fa318d8cbda73497645e374,627c6f3bca0d625b1aa4ec99,2022-05-11_19h22.00.083,classification_task,2021.2.3,Win32,60.42296073,627c6715c52fd12f31907bcf,,,,,,,,,,,,,,,,,,,,,,,a,0,1.0538,"[""0.033"",""0.262"",""0.582"",""0.703""]","[1,1,1,0]",0,25,25,25,1,1,1,,,1,FALSE,,,,,,,,,,,,,,,,,,,,,,,,,,,,,,,
,5fa318d8cbda73497645e374,627c6f3bca0d625b1aa4ec99,2022-05-11_19h22.00.083,classification_task,2021.2.3,Win32,60.42296073,627c6715c52fd12f31907bcf,,,,,,,,,,,,,,,,,,,,,,,l,0,1.2336,"[""0.164"",""0.616"",""0.852"",""0.959""]","[1,0,1,1]",0,26,26,26,1,0,1,,,1,FALSE,,,,,,,,,,,,,,,,,,,,,,,,,,,,,,,
,5fa318d8cbda73497645e374,627c6f3bca0d625b1aa4ec99,2022-05-11_19h22.00.083,classification_task,2021.2.3,Win32,60.42296073,627c6715c52fd12f31907bcf,,,,,,,,,,,,,,,,,,,,,,,l,1,1.2482,"[""0.128"",""0.703"",""0.465"",""0.745""]","[1,0,1,1]",0,27,27,27,1,1,0,,,1,FALSE,,,,,,,,,,,,,,,,,,,,,,,,,,,,,,,
,5fa318d8cbda73497645e374,627c6f3bca0d625b1aa4ec99,2022-05-11_19h22.00.083,classification_task,2021.2.3,Win32,60.42296073,627c6715c52fd12f31907bcf,,,,,,,,,,,,,,,,,,,,,,,a,0,1.1665,"[""0.128"",""0.297"",""0.465"",""0.616""]","[1,1,1,0]",0,28,28,28,1,1,0,,,1,FALSE,,,,,,,,,,,,,,,,,,,,,,,,,,,,,,,
,5fa318d8cbda73497645e374,627c6f3bca0d625b1aa4ec99,2022-05-11_19h22.00.083,classification_task,2021.2.3,Win32,60.42296073,627c6715c52fd12f31907bcf,,,,,,,,,,,,,,,,,,,,,,,a,0,1.1913,"[""0.422"",""0.262"",""0.582"",""0.807""]","[0,1,1,1]",0,29,29,29,1,1,1,,,1,FALSE,,,,,,,,,,,,,,,,,,,,,,,,,,,,,,,
,5fa318d8cbda73497645e374,627c6f3bca0d625b1aa4ec99,2022-05-11_19h22.00.083,classification_task,2021.2.3,Win32,60.42296073,627c6715c52fd12f31907bcf,,,,,,,,,,,,,,,,,,,,,,,l,1,1.0871,"[""0.128"",""0.297"",""0.707"",""0.745""]","[1,1,0,1]",0,30,30,30,1,1,0,,,1,FALSE,,,,,,,,,,,,,,,,,,,,,,,,,,,,,,,
,5fa318d8cbda73497645e374,627c6f3bca0d625b1aa4ec99,2022-05-11_19h22.00.083,classification_task,2021.2.3,Win32,60.42296073,627c6715c52fd12f31907bcf,,,,,,,,,,,,,,,,,,,,,,,l,1,1.3682,"[""0.427"",""0.297"",""0.465"",""0.745""]","[0,1,1,1]",0,31,31,31,1,1,0,,,1,FALSE,,,,,,,,,,,,,,,,,,,,,,,,,,,,,,,
,5fa318d8cbda73497645e374,627c6f3bca0d625b1aa4ec99,2022-05-11_19h22.00.083,classification_task,2021.2.3,Win32,60.42296073,627c6715c52fd12f31907bcf,,,,,,,,,,,,,,,,,,,,,,,a,0,2.0688,"[""0.128"",""0.297"",""0.427"",""0.745""]","[1,1,0,1]",0,32,32,32,1,1,0,,,1,FALSE,,,,,,,,,,,,,,,,,,,,,,,,,,,,,,,
,5fa318d8cbda73497645e374,627c6f3bca0d625b1aa4ec99,2022-05-11_19h22.00.083,classification_task,2021.2.3,Win32,60.42296073,627c6715c52fd12f31907bcf,,,,,,,,,,,,,,,,,,,,,,,a,0,1.6238,"[""0.128"",""0.297"",""0.465"",""0.701""]","[1,1,1,0]",0,33,33,33,1,1,0,,,1,FALSE,,,,,,,,,,,,,,,,,,,,,,,,,,,,,,,
,5fa318d8cbda73497645e374,627c6f3bca0d625b1aa4ec99,2022-05-11_19h22.00.083,classification_task,2021.2.3,Win32,60.42296073,627c6715c52fd12f31907bcf,,,,,,,,,,,,,,,,,,,,,,,l,0,1.6861,"[""0.199"",""0.360"",""0.662"",""0.083""]","[1,1,1,0]",0,34,34,34,1,0,0,,,1,FALSE,,,,,,,,,,,,,,,,,,,,,,,,,,,,,,,
,5fa318d8cbda73497645e374,627c6f3bca0d625b1aa4ec99,2022-05-11_19h22.00.083,classification_task,2021.2.3,Win32,60.42296073,627c6715c52fd12f31907bcf,,,,,,,,,,,,,,,,,,,,,,,l,1,1.0841,"[""0.701"",""0.297"",""0.465"",""0.745""]","[0,1,1,1]",0,35,35,35,1,1,0,,,1,FALSE,,,,,,,,,,,,,,,,,,,,,,,,,,,,,,,
,5fa318d8cbda73497645e374,627c6f3bca0d625b1aa4ec99,2022-05-11_19h22.00.083,classification_task,2021.2.3,Win32,60.42296073,627c6715c52fd12f31907bcf,,,,,,,,,,,,,,,,,,,,,,,a,1,1.1179,"[""0.199"",""0.707"",""0.662"",""0.894""]","[1,0,1,1]",0,36,36,36,1,0,0,,,1,FALSE,,,,,,,,,,,,,,,,,,,,,,,,,,,,,,,
,5fa318d8cbda73497645e374,627c6f3bca0d625b1aa4ec99,2022-05-11_19h22.00.083,classification_task,2021.2.3,Win32,60.42296073,627c6715c52fd12f31907bcf,,,,,,,,,,,,,,,,,,,,,,,a,1,1.2085,"[""0.420"",""0.360"",""0.662"",""0.894""]","[0,1,1,1]",0,37,37,37,1,0,0,,,1,FALSE,,,,,,,,,,,,,,,,,,,,,,,,,,,,,,,
,5fa318d8cbda73497645e374,627c6f3bca0d625b1aa4ec99,2022-05-11_19h22.00.083,classification_task,2021.2.3,Win32,60.42296073,627c6715c52fd12f31907bcf,,,,,,,,,,,,,,,,,,,,,,,a,0,1.2296,"[""0.703"",""0.262"",""0.582"",""0.807""]","[0,1,1,1]",0,38,38,38,1,1,1,,,1,FALSE,,,,,,,,,,,,,,,,,,,,,,,,,,,,,,,
,5fa318d8cbda73497645e374,627c6f3bca0d625b1aa4ec99,2022-05-11_19h22.00.083,classification_task,2021.2.3,Win32,60.42296073,627c6715c52fd12f31907bcf,,,,,,,,,,,,,,,,,,,,,,,l,1,1.1656,"[""0.128"",""0.087"",""0.465"",""0.745""]","[1,0,1,1]",0,39,39,39,1,1,0,,,1,FALSE,,,,,,,,,,,,,,,,,,,,,,,,,,,,,,,
,5fa318d8cbda73497645e374,627c6f3bca0d625b1aa4ec99,2022-05-11_19h22.00.083,classification_task,2021.2.3,Win32,60.42296073,627c6715c52fd12f31907bcf,,,,,,,,,,,,,,,,,,,,,,,a,1,1.0869,"[""0.164"",""0.524"",""0.422"",""0.959""]","[1,1,0,1]",0,40,40,40,1,0,1,,,1,FALSE,,,,,,,,,,,,,,,,,,,,,,,,,,,,,,,
,5fa318d8cbda73497645e374,627c6f3bca0d625b1aa4ec99,2022-05-11_19h22.00.083,classification_task,2021.2.3,Win32,60.42296073,627c6715c52fd12f31907bcf,,,,,,,,,,,,,,,,,,,,,,,a,0,1.2736,"[""0.033"",""0.409"",""0.582"",""0.807""]","[1,0,1,1]",0,41,41,41,1,1,1,,,1,FALSE,,,,,,,,,,,,,,,,,,,,,,,,,,,,,,,
,5fa318d8cbda73497645e374,627c6f3bca0d625b1aa4ec99,2022-05-11_19h22.00.083,classification_task,2021.2.3,Win32,60.42296073,627c6715c52fd12f31907bcf,,,,,,,,,,,,,,,,,,,,,,,a,0,1.5838,"[""0.033"",""0.262"",""0.422"",""0.807""]","[1,1,0,1]",0,42,42,42,1,1,1,,,1,FALSE,,,,,,,,,,,,,,,,,,,,,,,,,,,,,,,
,5fa318d8cbda73497645e374,627c6f3bca0d625b1aa4ec99,2022-05-11_19h22.00.083,classification_task,2021.2.3,Win32,60.42296073,627c6715c52fd12f31907bcf,,,,,,,,,,,,,,,,,,,,,,,l,0,1.3515,"[""0.164"",""0.524"",""0.852"",""0.701""]","[1,1,1,0]",0,43,43,43,1,0,1,,,1,FALSE,,,,,,,,,,,,,,,,,,,,,,,,,,,,,,,
,5fa318d8cbda73497645e374,627c6f3bca0d625b1aa4ec99,2022-05-11_19h22.00.083,classification_task,2021.2.3,Win32,60.42296073,627c6715c52fd12f31907bcf,,,,,,,,,,,,,,,,,,,,,,,a,0,1.2326,"[""0.033"",""0.262"",""0.582"",""0.083""]","[1,1,1,0]",0,44,44,44,1,1,1,,,1,FALSE,,,,,,,,,,,,,,,,,,,,,,,,,,,,,,,
,5fa318d8cbda73497645e374,627c6f3bca0d625b1aa4ec99,2022-05-11_19h22.00.083,classification_task,2021.2.3,Win32,60.42296073,627c6715c52fd12f31907bcf,,,,,,,,,,,,,,,,,,,,,,,a,1,1.317,"[""0.164"",""0.701"",""0.852"",""0.959""]","[1,0,1,1]",0,45,45,45,1,0,1,,,1,FALSE,,,,,,,,,,,,,,,,,,,,,,,,,,,,,,,
,5fa318d8cbda73497645e374,627c6f3bca0d625b1aa4ec99,2022-05-11_19h22.00.083,classification_task,2021.2.3,Win32,60.42296073,627c6715c52fd12f31907bcf,,,,,,,,,,,,,,,,,,,,,,,a,1,1.267,"[""0.199"",""0.360"",""0.070"",""0.894""]","[1,1,0,1]",0,46,46,46,1,0,0,,,1,FALSE,,,,,,,,,,,,,,,,,,,,,,,,,,,,,,,
,5fa318d8cbda73497645e374,627c6f3bca0d625b1aa4ec99,2022-05-11_19h22.00.083,classification_task,2021.2.3,Win32,60.42296073,627c6715c52fd12f31907bcf,,,,,,,,,,,,,,,,,,,,,,,l,0,1.6,"[""0.087"",""0.524"",""0.852"",""0.959""]","[0,1,1,1]",0,47,47,47,1,0,1,,,1,FALSE,,,,,,,,,,,,,,,,,,,,,,,,,,,,,,,
,5fa318d8cbda73497645e374,627c6f3bca0d625b1aa4ec99,2022-05-11_19h22.00.083,classification_task,2021.2.3,Win32,60.42296073,627c6715c52fd12f31907bcf,,,,,,,,,,,,,,,,,,,,,,,l,1,1.4042,"[""0.087"",""0.297"",""0.465"",""0.745""]","[0,1,1,1]",0,48,48,48,1,1,0,,,1,FALSE,,,,,,,,,,,,,,,,,,,,,,,,,,,,,,,
,5fa318d8cbda73497645e374,627c6f3bca0d625b1aa4ec99,2022-05-11_19h22.00.083,classification_task,2021.2.3,Win32,60.42296073,627c6715c52fd12f31907bcf,,,,,,,,,,,,,,,,,,,,,,,a,0,1.4667,"[""0.707"",""0.262"",""0.582"",""0.807""]","[0,1,1,1]",0,49,49,49,1,1,1,,,1,FALSE,,,,,,,,,,,,,,,,,,,,,,,,,,,,,,,
,5fa318d8cbda73497645e374,627c6f3bca0d625b1aa4ec99,2022-05-11_19h22.00.083,classification_task,2021.2.3,Win32,60.42296073,627c6715c52fd12f31907bcf,,,,,,,,,,,,,,,,,,,,,,,a,1,1.5117,"[""0.164"",""0.524"",""0.420"",""0.959""]","[1,1,0,1]",0,50,50,50,1,0,1,,,1,FALSE,,,,,,,,,,,,,,,,,,,,,,,,,,,,,,,
,5fa318d8cbda73497645e374,627c6f3bca0d625b1aa4ec99,2022-05-11_19h22.00.083,classification_task,2021.2.3,Win32,60.42296073,627c6715c52fd12f31907bcf,,,,,,,,,,,,,,,,,,,,,,,a,1,1.2835,"[""0.164"",""0.087"",""0.852"",""0.959""]","[1,0,1,1]",0,51,51,51,1,0,1,,,1,FALSE,,,,,,,,,,,,,,,,,,,,,,,,,,,,,,,
,5fa318d8cbda73497645e374,627c6f3bca0d625b1aa4ec99,2022-05-11_19h22.00.083,classification_task,2021.2.3,Win32,60.42296073,627c6715c52fd12f31907bcf,,,,,,,,,,,,,,,,,,,,,,,l,1,1.2381,"[""0.128"",""0.087"",""0.465"",""0.745""]","[1,0,1,1]",0,52,52,52,1,1,0,,,1,FALSE,,,,,,,,,,,,,,,,,,,,,,,,,,,,,,,
,5fa318d8cbda73497645e374,627c6f3bca0d625b1aa4ec99,2022-05-11_19h22.00.083,classification_task,2021.2.3,Win32,60.42296073,627c6715c52fd12f31907bcf,,,,,,,,,,,,,,,,,,,,,,,l,1,1.1082,"[""0.128"",""0.297"",""0.465"",""0.427""]","[1,1,1,0]",0,53,53,53,1,1,0,,,1,FALSE,,,,,,,,,,,,,,,,,,,,,,,,,,,,,,,
,5fa318d8cbda73497645e374,627c6f3bca0d625b1aa4ec99,2022-05-11_19h22.00.083,classification_task,2021.2.3,Win32,60.42296073,627c6715c52fd12f31907bcf,,,,,,,,,,,,,,,,,,,,,,,a,1,0.9644,"[""0.707"",""0.360"",""0.662"",""0.894""]","[0,1,1,1]",0,54,54,54,1,0,0,,,1,FALSE,,,,,,,,,,,,,,,,,,,,,,,,,,,,,,,
,5fa318d8cbda73497645e374,627c6f3bca0d625b1aa4ec99,2022-05-11_19h22.00.083,classification_task,2021.2.3,Win32,60.42296073,627c6715c52fd12f31907bcf,,,,,,,,,,,,,,,,,,,,,,,a,1,1.4665,"[""0.199"",""0.360"",""0.662"",""0.427""]","[1,1,1,0]",0,55,55,55,1,0,0,,,1,FALSE,,,,,,,,,,,,,,,,,,,,,,,,,,,,,,,
,5fa318d8cbda73497645e374,627c6f3bca0d625b1aa4ec99,2022-05-11_19h22.00.083,classification_task,2021.2.3,Win32,60.42296073,627c6715c52fd12f31907bcf,,,,,,,,,,,,,,,,,,,,,,,a,0,1.6273,"[""0.033"",""0.070"",""0.582"",""0.807""]","[1,0,1,1]",0,56,56,56,1,1,1,,,1,FALSE,,,,,,,,,,,,,,,,,,,,,,,,,,,,,,,
,5fa318d8cbda73497645e374,627c6f3bca0d625b1aa4ec99,2022-05-11_19h22.00.083,classification_task,2021.2.3,Win32,60.42296073,627c6715c52fd12f31907bcf,,,,,,,,,,,,,,,,,,,,,,,a,1,1.5297,"[""0.199"",""0.070"",""0.662"",""0.894""]","[1,0,1,1]",0,57,57,57,1,0,0,,,1,FALSE,,,,,,,,,,,,,,,,,,,,,,,,,,,,,,,
,5fa318d8cbda73497645e374,627c6f3bca0d625b1aa4ec99,2022-05-11_19h22.00.083,classification_task,2021.2.3,Win32,60.42296073,627c6715c52fd12f31907bcf,,,,,,,,,,,,,,,,,,,,,,,a,1,1.1833,"[""0.199"",""0.360"",""0.422"",""0.894""]","[1,1,0,1]",0,58,58,58,1,0,0,,,1,FALSE,,,,,,,,,,,,,,,,,,,,,,,,,,,,,,,
,5fa318d8cbda73497645e374,627c6f3bca0d625b1aa4ec99,2022-05-11_19h22.00.083,classification_task,2021.2.3,Win32,60.42296073,627c6715c52fd12f31907bcf,,,,,,,,,,,,,,,,,,,,,,,a,0,1.4499,"[""0.033"",""0.262"",""0.582"",""0.071""]","[1,1,1,0]",0,59,59,59,1,1,1,,,1,FALSE,,,,,,,,,,,,,,,,,,,,,,,,,,,,,,,
,5fa318d8cbda73497645e374,627c6f3bca0d625b1aa4ec99,2022-05-11_19h22.00.083,classification_task,2021.2.3,Win32,60.42296073,627c6715c52fd12f31907bcf,,,,,,,,,,,,,,,,,,,,,,,l,0,1.7061,"[""0.164"",""0.524"",""0.852"",""0.625""]","[1,1,1,0]",0,60,60,60,1,0,1,,,1,FALSE,,,,,,,,,,,,,,,,,,,,,,,,,,,,,,,
,5fa318d8cbda73497645e374,627c6f3bca0d625b1aa4ec99,2022-05-11_19h22.00.083,classification_task,2021.2.3,Win32,60.42296073,627c6715c52fd12f31907bcf,,,,,,,,,,,,,,,,,,,,,,,a,0,2.0437,"[""0.128"",""0.297"",""0.420"",""0.745""]","[1,1,0,1]",0,61,61,61,1,1,0,,,1,FALSE,,,,,,,,,,,,,,,,,,,,,,,,,,,,,,,
,5fa318d8cbda73497645e374,627c6f3bca0d625b1aa4ec99,2022-05-11_19h22.00.083,classification_task,2021.2.3,Win32,60.42296073,627c6715c52fd12f31907bcf,,,,,,,,,,,,,,,,,,,,,,,a,0,1.49,"[""0.033"",""0.262"",""0.420"",""0.807""]","[1,1,0,1]",0,62,62,62,1,1,1,,,1,FALSE,,,,,,,,,,,,,,,,,,,,,,,,,,,,,,,
,5fa318d8cbda73497645e374,627c6f3bca0d625b1aa4ec99,2022-05-11_19h22.00.083,classification_task,2021.2.3,Win32,60.42296073,627c6715c52fd12f31907bcf,,,,,,,,,,,,,,,,,,,,,,,l,0,1.5101,"[""0.409"",""0.524"",""0.852"",""0.959""]","[0,1,1,1]",0,63,63,63,1,0,1,,,1,FALSE,,,,,,,,,,,,,,,,,,,,,,,,,,,,,,,
,5fa318d8cbda73497645e374,627c6f3bca0d625b1aa4ec99,2022-05-11_19h22.00.083,classification_task,2021.2.3,Win32,60.42296073,627c6715c52fd12f31907bcf,,,,,,,,,,,,,,,,,,,,,,,,,,,,,,,,,,,,,,,0, ,,0,5.587889477,172.061,0,2,2,2,1,2,3,,,,,,,,,,,,,,,,,,
,5fa318d8cbda73497645e374,627c6f3bca0d625b1aa4ec99,2022-05-11_19h22.00.083,classification_task,2021.2.3,Win32,60.42296073,627c6715c52fd12f31907bcf,,,,,,,,,,,,,,,,,,,,,,,,,,,,,,,,,,,,,,,1,  ,,0,6.371742112,174.8572,0,2,2,2,1,2,3,,,,,,,,,,,,,,,,,,
,5fa318d8cbda73497645e374,627c6f3bca0d625b1aa4ec99,2022-05-11_19h22.00.083,classification_task,2021.2.3,Win32,60.42296073,627c6715c52fd12f31907bcf,,,,,,,,,,,,,,,,,,,,,,,,,,,,,,,,,,,,,,,2,  ,,0,2.33000196,177.3886,0,2,2,2,1,2,3,,,,,,,,,,,,,,,,,,
,5fa318d8cbda73497645e374,627c6f3bca0d625b1aa4ec99,2022-05-11_19h22.00.083,classification_task,2021.2.3,Win32,60.42296073,627c6715c52fd12f31907bcf,,,,,,,,,,,,,,,,,,,,,,,,,,,,,,,,,,,,,,,,,,,,,0,2,2,2,1,,3,,,,,,,,,,,,,,,,,,
,5fa318d8cbda73497645e374,627c6f3bca0d625b1aa4ec99,2022-05-11_19h22.00.083,classification_task,2021.2.3,Win32,60.42296073,627c6715c52fd12f31907bcf,,,,,,,,,,,,,,,,,,,,,,,,,,,,,,,,,,,,,,,,,,,,,,,,,,,,,I believe the aid is a competent performer,,0.7,0,5,949.6066,0,0,0,0,1,0,,,,,
,5fa318d8cbda73497645e374,627c6f3bca0d625b1aa4ec99,2022-05-11_19h22.00.083,classification_task,2021.2.3,Win32,60.42296073,627c6715c52fd12f31907bcf,,,,,,,,,,,,,,,,,,,,,,,,,,,,,,,,,,,,,,,,,,,,,,,,,,,,,I trust the aid,,0.7,0,5,950.6032,0,0,0,0,1,0,,,,,
,5fa318d8cbda73497645e374,627c6f3bca0d625b1aa4ec99,2022-05-11_19h22.00.083,classification_task,2021.2.3,Win32,60.42296073,627c6715c52fd12f31907bcf,,,,,,,,,,,,,,,,,,,,,,,,,,,,,,,,,,,,,,,,,,,,,,,,,,,,,I have confidence in the advice given by the aid,,0.7,0,4,955.1452,0,0,0,0,1,0,,,,,
,5fa318d8cbda73497645e374,627c6f3bca0d625b1aa4ec99,2022-05-11_19h22.00.083,classification_task,2021.2.3,Win32,60.42296073,627c6715c52fd12f31907bcf,,,,,,,,,,,,,,,,,,,,,,,,,,,,,,,,,,,,,,,,,,,,,,,,,,,,,I can depend on the aid,,0.7,0,4,957.125,0,0,0,0,1,0,,,,,
,5fa318d8cbda73497645e374,627c6f3bca0d625b1aa4ec99,2022-05-11_19h22.00.083,classification_task,2021.2.3,Win32,60.42296073,627c6715c52fd12f31907bcf,,,,,,,,,,,,,,,,,,,,,,,,,,,,,,,,,,,,,,,,,,,,,,,,,,,,,I can rely on the aid to behave in consistent ways,,0.7,0,5,961.5159,0,0,0,0,1,0,,,,,
,5fa318d8cbda73497645e374,627c6f3bca0d625b1aa4ec99,2022-05-11_19h22.00.083,classification_task,2021.2.3,Win32,60.42296073,627c6715c52fd12f31907bcf,,,,,,,,,,,,,,,,,,,,,,,,,,,,,,,,,,,,,,,,,,,,,,,,,,,,,I can rely on the aid to do its best every time I take its advice,,0.7,0,4,966.2273,0,0,0,0,1,0,,,,,
,5fa318d8cbda73497645e374,627c6f3bca0d625b1aa4ec99,2022-05-11_19h22.00.083,classification_task,2021.2.3,Win32,60.42296073,627c6715c52fd12f31907bcf,,,,,,,,,,,,,,,,,,,,,,,,,,,,,,,,,,,,,,,,,,,,,,,,,,,,,"On trials you completed with assistance from the aid, how frequently did you think the aid was correct?",,0.7,0,100%,,0,0,0,0,1,0,,,,,
,5fa318d8cbda73497645e374,627c6f3bca0d625b1aa4ec99,2022-05-11_19h22.00.083,classification_task,2021.2.3,Win32,60.42296073,627c6715c52fd12f31907bcf,,,,,,,,,,,,,,,,,,,,,,,,,,,,,,,,,,,,,,,,,,,,,,,,,,,,,"On trials you completed without the aid, how frequently did you think you were correct?",,0.7,0,60%,,0,0,0,0,1,0,,,,,
,5fa318d8cbda73497645e374,627c6f3bca0d625b1aa4ec99,2022-05-11_19h22.00.083,classification_task,2021.2.3,Win32,60.42296073,627c6715c52fd12f31907bcf,,,,,,,,,,,,,,,,,,,,,,,,,,,,,,,,,,,,,,,,,,,,,,,,,,,,,,,,,,,0,0,0,0,1,,,,,,
,5fa318d8cbda73497645e374,627c6f3bca0d625b1aa4ec99,2022-05-11_19h22.00.083,classification_task,2021.2.3,Win32,60.42296073,627c6715c52fd12f31907bcf,,,,,,,,,,,,,,,,,,,,,,,,,,,,,,,,,,,,,,,,,,,,,,,,,,,,,,,,,,,,,,,,,space,9.5316,989.8957,,
,5fa318d8cbda73497645e374,627c6f3bca0d625b1aa4ec99,2022-05-11_19h22.00.083,classification_task,2021.2.3,Win32,60.42296073,627c6715c52fd12f31907bcf,,,,,,,,,,,,,,,,,,,,,,,,,,,,,,,,,,,,,,,,,,,,,,,,,,,,,,,,,,,,,,,,,,,,"Mozilla/5.0 (Windows NT 10.0; Win64; x64) AppleWebKit/537.36 (KHTML, like Gecko) Chrome/99.0.4844.84 Safari/537.36 OPR/85.0.4341.79",
,5fa318d8cbda73497645e374,627c6f3bca0d625b1aa4ec99,2022-05-11_19h22.00.083,classification_task,2021.2.3,Win32,60.42296073,627c6715c52fd12f31907bcf,,,,,,,,,,,,,,,,,,,,,,,,,,,,,,,,,,,,,,,,,,,,,,,,,,,,,,,,,,,,,,,,,,,,,HIGHLIGHT
