usingWebGL,participant,session,date,expName,psychopyVersion,OS,frameRate,PROLIFIC_PID,STUDY_ID,SESSION_ID,signatures_friend,signatures_foe,band_ranges_top,band_ranges_bottom,formitemText,formtype,formundefined,formitemWidth,formindex,formresponse,formrt,key_resp_2.keys,key_resp_2.rt,tute_resp.keys,tute_resp.rt,tutorial.thisRepN,tutorial.thisTrialN,tutorial.thisN,tutorial.thisIndex,tutorial.ran,key_resp_4.keys,key_resp_4.rt,key_resp.keys,key_resp.corr,key_resp.rt,lines_presented,is_signal_presented,trials.thisRepN,trials.thisTrialN,trials.thisN,trials.thisIndex,trials.ran,vessel,active_band,lines,is_signal,supported_pos,catch_trial,debrief_formindex,debrief_formitemText,debrief_formtype,debrief_formitemWidth,debrief_formresponse,debrief_formrt,phases.thisRepN,phases.thisTrialN,phases.thisN,phases.thisIndex,phases.ran,phases.order,phase,key_resp_3.keys,trustitemText,trusttype,trustitemWidth,trustindex,trustresponse,trustrt,support_status.thisRepN,support_status.thisTrialN,support_status.thisN,support_status.thisIndex,support_status.ran,support_status.order,key_resp_5.keys,key_resp_5.rt,globalClockTime,userAgent
TRUE,5faaee6c1fd1c7549e392c64,001,2022-04-29_03h07.57.689,classification_task,2021.2.3,Win32,59.69436485,5faaee6c1fd1c7549e392c64,626b377229c10585ec392f89,626b3a143b0b87247d30b262,,,,,,,,,,,,,,,,,,,,,,,,,,,,,,,,,,,,,,,,,,,,,,,,,,,,,,,,,,,,,,,,,,,,
,5faaee6c1fd1c7549e392c64,001,2022-04-29_03h07.57.689,classification_task,2021.2.3,Win32,59.69436485,5faaee6c1fd1c7549e392c64,626b377229c10585ec392f89,626b3a143b0b87247d30b262,"[[""0.220"",""0.544"",""0.674"",""0.969""],[""0.311"",""0.363"",""0.876"",""0.931""]]","[[""0.058"",""0.399"",""0.508"",""0.796""],[""0.118"",""0.157"",""0.466"",""0.834""]]","[1,10]","[100,1000]",Video game experience,,,0.7,0,,,,,,,,,,,,,,,,,,,,,,,,,,,,,,,,,,,,,,,,,,,,,,,,,,,,,,,,,,,
,5faaee6c1fd1c7549e392c64,001,2022-04-29_03h07.57.689,classification_task,2021.2.3,Win32,59.69436485,5faaee6c1fd1c7549e392c64,626b377229c10585ec392f89,626b3a143b0b87247d30b262,,,,,Approximately how many hours did you spend playing video games in the last week?,,,0.7,0,4,,,,,,,,,,,,,,,,,,,,,,,,,,,,,,,,,,,,,,,,,,,,,,,,,,,,,,,,,,
,5faaee6c1fd1c7549e392c64,001,2022-04-29_03h07.57.689,classification_task,2021.2.3,Win32,59.69436485,5faaee6c1fd1c7549e392c64,626b377229c10585ec392f89,626b3a143b0b87247d30b262,,,,,"Which game did you play the most this year? (Enter ""None"" if you didn't play any)",,,0.7,0,Xenoblade Chronicles,,,,,,,,,,,,,,,,,,,,,,,,,,,,,,,,,,,,,,,,,,,,,,,,,,,,,,,,,,
,5faaee6c1fd1c7549e392c64,001,2022-04-29_03h07.57.689,classification_task,2021.2.3,Win32,59.69436485,5faaee6c1fd1c7549e392c64,626b377229c10585ec392f89,626b3a143b0b87247d30b262,,,,,Visual perception,,,0.7,0,,,,,,,,,,,,,,,,,,,,,,,,,,,,,,,,,,,,,,,,,,,,,,,,,,,,,,,,,,,
,5faaee6c1fd1c7549e392c64,001,2022-04-29_03h07.57.689,classification_task,2021.2.3,Win32,59.69436485,5faaee6c1fd1c7549e392c64,626b377229c10585ec392f89,626b3a143b0b87247d30b262,,,,,Do you have any form of color blindness?,,,0.7,0,No,33.4259,,,,,,,,,,,,,,,,,,,,,,,,,,,,,,,,,,,,,,,,,,,,,,,,,,,,,,,,,
,5faaee6c1fd1c7549e392c64,001,2022-04-29_03h07.57.689,classification_task,2021.2.3,Win32,59.69436485,5faaee6c1fd1c7549e392c64,626b377229c10585ec392f89,626b3a143b0b87247d30b262,,,,,Do you use software to change the colour temperature of your screen (e.g. f.lux)?,,,0.7,0,No,37.787,,,,,,,,,,,,,,,,,,,,,,,,,,,,,,,,,,,,,,,,,,,,,,,,,,,,,,,,,
,5faaee6c1fd1c7549e392c64,001,2022-04-29_03h07.57.689,classification_task,2021.2.3,Win32,59.69436485,5faaee6c1fd1c7549e392c64,626b377229c10585ec392f89,626b3a143b0b87247d30b262,,,,,,,,,,,,space,50.2829,space,8.8648,0,0,0,0,1,,,,,,,,,,,,,,,,,,,,,,,,,,,,,,,,,,,,,,,,,,,,,,,,
,5faaee6c1fd1c7549e392c64,001,2022-04-29_03h07.57.689,classification_task,2021.2.3,Win32,59.69436485,5faaee6c1fd1c7549e392c64,626b377229c10585ec392f89,626b3a143b0b87247d30b262,,,,,,,,,,,,,,space,14.6347,1,0,1,0,1,,,,,,,,,,,,,,,,,,,,,,,,,,,,,,,,,,,,,,,,,,,,,,,,
,5faaee6c1fd1c7549e392c64,001,2022-04-29_03h07.57.689,classification_task,2021.2.3,Win32,59.69436485,5faaee6c1fd1c7549e392c64,626b377229c10585ec392f89,626b3a143b0b87247d30b262,,,,,,,,,,,,,,space,20.5803,2,0,2,0,1,,,,,,,,,,,,,,,,,,,,,,,,,,,,,,,,,,,,,,,,,,,,,,,,
,5faaee6c1fd1c7549e392c64,001,2022-04-29_03h07.57.689,classification_task,2021.2.3,Win32,59.69436485,5faaee6c1fd1c7549e392c64,626b377229c10585ec392f89,626b3a143b0b87247d30b262,,,,,,,,,,,,,,space,23.1047,3,0,3,0,1,,,,,,,,,,,,,,,,,,,,,,,,,,,,,,,,,,,,,,,,,,,,,,,,
,5faaee6c1fd1c7549e392c64,001,2022-04-29_03h07.57.689,classification_task,2021.2.3,Win32,59.69436485,5faaee6c1fd1c7549e392c64,626b377229c10585ec392f89,626b3a143b0b87247d30b262,,,,,,,,,,,,,,space,10.848,4,0,4,0,1,,,,,,,,,,,,,,,,,,,,,,,,,,,,,,,,,,,,,,,,,,,,,,,,
,5faaee6c1fd1c7549e392c64,001,2022-04-29_03h07.57.689,classification_task,2021.2.3,Win32,59.69436485,5faaee6c1fd1c7549e392c64,626b377229c10585ec392f89,626b3a143b0b87247d30b262,,,,,,,,,,,,,,,,,,,,,space,11.7337,l,1,3.1388,"[""0.118"",""0.270"",""0.466"",""0.834""]","[1,0,1,1]",0,0,0,0,1,1,1,,,1,FALSE,,,,,,,,,,,,,,,,,,,,,,,,,,,,,,
,5faaee6c1fd1c7549e392c64,001,2022-04-29_03h07.57.689,classification_task,2021.2.3,Win32,59.69436485,5faaee6c1fd1c7549e392c64,626b377229c10585ec392f89,626b3a143b0b87247d30b262,,,,,,,,,,,,,,,,,,,,,,,l,1,5.5539,"[""0.058"",""0.399"",""0.508"",""0.274""]","[1,1,1,0]",0,1,1,1,1,1,0,,,1,FALSE,,,,,,,,,,,,,,,,,,,,,,,,,,,,,,
,5faaee6c1fd1c7549e392c64,001,2022-04-29_03h07.57.689,classification_task,2021.2.3,Win32,59.69436485,5faaee6c1fd1c7549e392c64,626b377229c10585ec392f89,626b3a143b0b87247d30b262,,,,,,,,,,,,,,,,,,,,,,,l,1,3.3759,"[""0.270"",""0.157"",""0.466"",""0.834""]","[0,1,1,1]",0,2,2,2,1,1,1,,,1,FALSE,,,,,,,,,,,,,,,,,,,,,,,,,,,,,,
,5faaee6c1fd1c7549e392c64,001,2022-04-29_03h07.57.689,classification_task,2021.2.3,Win32,59.69436485,5faaee6c1fd1c7549e392c64,626b377229c10585ec392f89,626b3a143b0b87247d30b262,,,,,,,,,,,,,,,,,,,,,,,a,1,8.7965,"[""0.757"",""0.544"",""0.674"",""0.969""]","[0,1,1,1]",0,3,3,3,1,0,0,,,1,FALSE,,,,,,,,,,,,,,,,,,,,,,,,,,,,,,
,5faaee6c1fd1c7549e392c64,001,2022-04-29_03h07.57.689,classification_task,2021.2.3,Win32,59.69436485,5faaee6c1fd1c7549e392c64,626b377229c10585ec392f89,626b3a143b0b87247d30b262,,,,,,,,,,,,,,,,,,,,,,,l,1,2.9162,"[""0.058"",""0.399"",""0.274"",""0.796""]","[1,1,0,1]",0,4,4,4,1,1,0,,,1,FALSE,,,,,,,,,,,,,,,,,,,,,,,,,,,,,,
,5faaee6c1fd1c7549e392c64,001,2022-04-29_03h07.57.689,classification_task,2021.2.3,Win32,59.69436485,5faaee6c1fd1c7549e392c64,626b377229c10585ec392f89,626b3a143b0b87247d30b262,,,,,,,,,,,,,,,,,,,,,,,l,1,5.6509,"[""0.615"",""0.399"",""0.508"",""0.796""]","[0,1,1,1]",0,5,5,5,1,1,0,,,1,FALSE,,,,,,,,,,,,,,,,,,,,,,,,,,,,,,
,5faaee6c1fd1c7549e392c64,001,2022-04-29_03h07.57.689,classification_task,2021.2.3,Win32,59.69436485,5faaee6c1fd1c7549e392c64,626b377229c10585ec392f89,626b3a143b0b87247d30b262,,,,,,,,,,,,,,,,,,,,,,,l,1,4.5045,"[""0.118"",""0.157"",""0.274"",""0.834""]","[1,1,0,1]",0,6,6,6,1,1,1,,,1,FALSE,,,,,,,,,,,,,,,,,,,,,,,,,,,,,,
,5faaee6c1fd1c7549e392c64,001,2022-04-29_03h07.57.689,classification_task,2021.2.3,Win32,59.69436485,5faaee6c1fd1c7549e392c64,626b377229c10585ec392f89,626b3a143b0b87247d30b262,,,,,,,,,,,,,,,,,,,,,,,a,1,3.3713,"[""0.311"",""0.363"",""0.757"",""0.931""]","[1,1,0,1]",0,7,7,7,1,0,1,,,1,FALSE,,,,,,,,,,,,,,,,,,,,,,,,,,,,,,
,5faaee6c1fd1c7549e392c64,001,2022-04-29_03h07.57.689,classification_task,2021.2.3,Win32,59.69436485,5faaee6c1fd1c7549e392c64,626b377229c10585ec392f89,626b3a143b0b87247d30b262,,,,,,,,,,,,,,,,,,,,,,,l,1,7.4885,"[""0.058"",""0.723"",""0.508"",""0.796""]","[1,0,1,1]",0,8,8,8,1,1,0,,,1,FALSE,,,,,,,,,,,,,,,,,,,,,,,,,,,,,,
,5faaee6c1fd1c7549e392c64,001,2022-04-29_03h07.57.689,classification_task,2021.2.3,Win32,59.69436485,5faaee6c1fd1c7549e392c64,626b377229c10585ec392f89,626b3a143b0b87247d30b262,,,,,,,,,,,,,,,,,,,,,,,a,1,5.2614,"[""0.311"",""0.363"",""0.876"",""0.275""]","[1,1,1,0]",0,9,9,9,1,0,1,,,1,FALSE,,,,,,,,,,,,,,,,,,,,,,,,,,,,,,
,5faaee6c1fd1c7549e392c64,001,2022-04-29_03h07.57.689,classification_task,2021.2.3,Win32,59.69436485,5faaee6c1fd1c7549e392c64,626b377229c10585ec392f89,626b3a143b0b87247d30b262,,,,,,,,,,,,,,,,,,,,,,,l,1,7.5025,"[""0.118"",""0.157"",""0.466"",""0.275""]","[1,1,1,0]",0,10,10,10,1,1,1,,,1,FALSE,,,,,,,,,,,,,,,,,,,,,,,,,,,,,,
,5faaee6c1fd1c7549e392c64,001,2022-04-29_03h07.57.689,classification_task,2021.2.3,Win32,59.69436485,5faaee6c1fd1c7549e392c64,626b377229c10585ec392f89,626b3a143b0b87247d30b262,,,,,,,,,,,,,,,,,,,,,,,a,1,8.0146,"[""0.220"",""0.709"",""0.674"",""0.969""]","[1,0,1,1]",0,11,11,11,1,0,0,,,1,FALSE,,,,,,,,,,,,,,,,,,,,,,,,,,,,,,
,5faaee6c1fd1c7549e392c64,001,2022-04-29_03h07.57.689,classification_task,2021.2.3,Win32,59.69436485,5faaee6c1fd1c7549e392c64,626b377229c10585ec392f89,626b3a143b0b87247d30b262,,,,,,,,,,,,,,,,,,,,,,,a,1,3.6716,"[""0.220"",""0.544"",""0.674"",""0.709""]","[1,1,1,0]",0,12,12,12,1,0,0,,,1,FALSE,,,,,,,,,,,,,,,,,,,,,,,,,,,,,,
,5faaee6c1fd1c7549e392c64,001,2022-04-29_03h07.57.689,classification_task,2021.2.3,Win32,59.69436485,5faaee6c1fd1c7549e392c64,626b377229c10585ec392f89,626b3a143b0b87247d30b262,,,,,,,,,,,,,,,,,,,,,,,a,1,3.7463,"[""0.220"",""0.544"",""0.594"",""0.969""]","[1,1,0,1]",0,13,13,13,1,0,0,,,1,FALSE,,,,,,,,,,,,,,,,,,,,,,,,,,,,,,
,5faaee6c1fd1c7549e392c64,001,2022-04-29_03h07.57.689,classification_task,2021.2.3,Win32,59.69436485,5faaee6c1fd1c7549e392c64,626b377229c10585ec392f89,626b3a143b0b87247d30b262,,,,,,,,,,,,,,,,,,,,,,,,0,,"[""0.270"",""0.363"",""0.876"",""0.931""]","[0,1,1,1]",0,14,14,14,1,0,1,,,1,FALSE,,,,,,,,,,,,,,,,,,,,,,,,,,,,,,
,5faaee6c1fd1c7549e392c64,001,2022-04-29_03h07.57.689,classification_task,2021.2.3,Win32,59.69436485,5faaee6c1fd1c7549e392c64,626b377229c10585ec392f89,626b3a143b0b87247d30b262,,,,,,,,,,,,,,,,,,,,,,,a,1,2.8943,"[""0.311"",""0.594"",""0.876"",""0.931""]","[1,0,1,1]",0,15,15,15,1,0,1,,,1,FALSE,,,,,,,,,,,,,,,,,,,,,,,,,,,,,,
,5faaee6c1fd1c7549e392c64,001,2022-04-29_03h07.57.689,classification_task,2021.2.3,Win32,59.69436485,5faaee6c1fd1c7549e392c64,626b377229c10585ec392f89,626b3a143b0b87247d30b262,,,,,,,,,,,,,,,,,,,,,,,l,1,3.8156,"[""0.058"",""0.399"",""0.508"",""0.709""]","[1,1,1,0]",0,16,16,16,1,1,0,,,1,FALSE,,,,,,,,,,,,,,,,,,,,,,,,,,,,,,
,5faaee6c1fd1c7549e392c64,001,2022-04-29_03h07.57.689,classification_task,2021.2.3,Win32,59.69436485,5faaee6c1fd1c7549e392c64,626b377229c10585ec392f89,626b3a143b0b87247d30b262,,,,,,,,,,,,,,,,,,,,,,,l,1,2.7273,"[""0.118"",""0.610"",""0.466"",""0.834""]","[1,0,1,1]",0,17,17,17,1,1,1,,,1,FALSE,,,,,,,,,,,,,,,,,,,,,,,,,,,,,,
,5faaee6c1fd1c7549e392c64,001,2022-04-29_03h07.57.689,classification_task,2021.2.3,Win32,59.69436485,5faaee6c1fd1c7549e392c64,626b377229c10585ec392f89,626b3a143b0b87247d30b262,,,,,,,,,,,,,,,,,,,,,,,l,1,4.1017,"[""0.709"",""0.399"",""0.508"",""0.796""]","[0,1,1,1]",0,18,18,18,1,1,0,,,1,FALSE,,,,,,,,,,,,,,,,,,,,,,,,,,,,,,
,5faaee6c1fd1c7549e392c64,001,2022-04-29_03h07.57.689,classification_task,2021.2.3,Win32,59.69436485,5faaee6c1fd1c7549e392c64,626b377229c10585ec392f89,626b3a143b0b87247d30b262,,,,,,,,,,,,,,,,,,,,,,,a,1,2.2647,"[""0.220"",""0.716"",""0.674"",""0.969""]","[1,0,1,1]",0,19,19,19,1,0,0,,,1,FALSE,,,,,,,,,,,,,,,,,,,,,,,,,,,,,,
,5faaee6c1fd1c7549e392c64,001,2022-04-29_03h07.57.689,classification_task,2021.2.3,Win32,59.69436485,5faaee6c1fd1c7549e392c64,626b377229c10585ec392f89,626b3a143b0b87247d30b262,,,,,,,,,,,,,,,,,,,,,,,a,1,4.658,"[""0.311"",""0.363"",""0.876"",""0.749""]","[1,1,1,0]",0,20,20,20,1,0,1,,,1,FALSE,,,,,,,,,,,,,,,,,,,,,,,,,,,,,,
,5faaee6c1fd1c7549e392c64,001,2022-04-29_03h07.57.689,classification_task,2021.2.3,Win32,59.69436485,5faaee6c1fd1c7549e392c64,626b377229c10585ec392f89,626b3a143b0b87247d30b262,,,,,,,,,,,,,,,,,,,,,,,l,1,2.8381,"[""0.058"",""0.275"",""0.508"",""0.796""]","[1,0,1,1]",0,21,21,21,1,1,0,,,1,FALSE,,,,,,,,,,,,,,,,,,,,,,,,,,,,,,
,5faaee6c1fd1c7549e392c64,001,2022-04-29_03h07.57.689,classification_task,2021.2.3,Win32,59.69436485,5faaee6c1fd1c7549e392c64,626b377229c10585ec392f89,626b3a143b0b87247d30b262,,,,,,,,,,,,,,,,,,,,,,,a,1,2.2815,"[""0.220"",""0.544"",""0.674"",""0.757""]","[1,1,1,0]",0,22,22,22,1,0,0,,,1,FALSE,,,,,,,,,,,,,,,,,,,,,,,,,,,,,,
,5faaee6c1fd1c7549e392c64,001,2022-04-29_03h07.57.689,classification_task,2021.2.3,Win32,59.69436485,5faaee6c1fd1c7549e392c64,626b377229c10585ec392f89,626b3a143b0b87247d30b262,,,,,,,,,,,,,,,,,,,,,,,a,1,3.1513,"[""0.757"",""0.363"",""0.876"",""0.931""]","[0,1,1,1]",0,23,23,23,1,0,1,,,1,FALSE,,,,,,,,,,,,,,,,,,,,,,,,,,,,,,
,5faaee6c1fd1c7549e392c64,001,2022-04-29_03h07.57.689,classification_task,2021.2.3,Win32,59.69436485,5faaee6c1fd1c7549e392c64,626b377229c10585ec392f89,626b3a143b0b87247d30b262,,,,,,,,,,,,,,,,,,,,,,,l,1,4.2625,"[""0.118"",""0.157"",""0.615"",""0.834""]","[1,1,0,1]",0,24,24,24,1,1,1,,,1,FALSE,,,,,,,,,,,,,,,,,,,,,,,,,,,,,,
,5faaee6c1fd1c7549e392c64,001,2022-04-29_03h07.57.689,classification_task,2021.2.3,Win32,59.69436485,5faaee6c1fd1c7549e392c64,626b377229c10585ec392f89,626b3a143b0b87247d30b262,,,,,,,,,,,,,,,,,,,,,,,a,1,3.2516,"[""0.311"",""0.716"",""0.876"",""0.931""]","[1,0,1,1]",0,25,25,25,1,0,1,,,1,FALSE,,,,,,,,,,,,,,,,,,,,,,,,,,,,,,
,5faaee6c1fd1c7549e392c64,001,2022-04-29_03h07.57.689,classification_task,2021.2.3,Win32,59.69436485,5faaee6c1fd1c7549e392c64,626b377229c10585ec392f89,626b3a143b0b87247d30b262,,,,,,,,,,,,,,,,,,,,,,,l,1,1.8121,"[""0.058"",""0.399"",""0.275"",""0.796""]","[1,1,0,1]",0,26,26,26,1,1,0,,,1,FALSE,,,,,,,,,,,,,,,,,,,,,,,,,,,,,,
,5faaee6c1fd1c7549e392c64,001,2022-04-29_03h07.57.689,classification_task,2021.2.3,Win32,59.69436485,5faaee6c1fd1c7549e392c64,626b377229c10585ec392f89,626b3a143b0b87247d30b262,,,,,,,,,,,,,,,,,,,,,,,a,1,2.4946,"[""0.311"",""0.363"",""0.749"",""0.931""]","[1,1,0,1]",0,27,27,27,1,0,1,,,1,FALSE,,,,,,,,,,,,,,,,,,,,,,,,,,,,,,
,5faaee6c1fd1c7549e392c64,001,2022-04-29_03h07.57.689,classification_task,2021.2.3,Win32,59.69436485,5faaee6c1fd1c7549e392c64,626b377229c10585ec392f89,626b3a143b0b87247d30b262,,,,,,,,,,,,,,,,,,,,,,,l,0,5.8195,"[""0.709"",""0.544"",""0.674"",""0.969""]","[0,1,1,1]",0,28,28,28,1,0,0,,,1,FALSE,,,,,,,,,,,,,,,,,,,,,,,,,,,,,,
,5faaee6c1fd1c7549e392c64,001,2022-04-29_03h07.57.689,classification_task,2021.2.3,Win32,59.69436485,5faaee6c1fd1c7549e392c64,626b377229c10585ec392f89,626b3a143b0b87247d30b262,,,,,,,,,,,,,,,,,,,,,,,a,1,1.6688,"[""0.220"",""0.544"",""0.599"",""0.969""]","[1,1,0,1]",0,29,29,29,1,0,0,,,1,FALSE,,,,,,,,,,,,,,,,,,,,,,,,,,,,,,
,5faaee6c1fd1c7549e392c64,001,2022-04-29_03h07.57.689,classification_task,2021.2.3,Win32,59.69436485,5faaee6c1fd1c7549e392c64,626b377229c10585ec392f89,626b3a143b0b87247d30b262,,,,,,,,,,,,,,,,,,,,,,,l,1,5.5505,"[""0.118"",""0.157"",""0.466"",""0.610""]","[1,1,1,0]",0,30,30,30,1,1,1,,,1,FALSE,,,,,,,,,,,,,,,,,,,,,,,,,,,,,,
,5faaee6c1fd1c7549e392c64,001,2022-04-29_03h07.57.689,classification_task,2021.2.3,Win32,59.69436485,5faaee6c1fd1c7549e392c64,626b377229c10585ec392f89,626b3a143b0b87247d30b262,,,,,,,,,,,,,,,,,,,,,,,l,1,3.0884,"[""0.709"",""0.157"",""0.466"",""0.834""]","[0,1,1,1]",0,31,31,31,1,1,1,,,1,FALSE,,,,,,,,,,,,,,,,,,,,,,,,,,,,,,
,5faaee6c1fd1c7549e392c64,001,2022-04-29_03h07.57.689,classification_task,2021.2.3,Win32,59.69436485,5faaee6c1fd1c7549e392c64,626b377229c10585ec392f89,626b3a143b0b87247d30b262,,,,,,,,,,,,,,,,,,,,,,,a,1,4.1019,"[""0.220"",""0.544"",""0.709"",""0.969""]","[1,1,0,1]",0,32,32,32,1,0,0,,,1,FALSE,,,,,,,,,,,,,,,,,,,,,,,,,,,,,,
,5faaee6c1fd1c7549e392c64,001,2022-04-29_03h07.57.689,classification_task,2021.2.3,Win32,59.69436485,5faaee6c1fd1c7549e392c64,626b377229c10585ec392f89,626b3a143b0b87247d30b262,,,,,,,,,,,,,,,,,,,,,,,a,1,1.4755,"[""0.220"",""0.544"",""0.674"",""0.717""]","[1,1,1,0]",0,33,33,33,1,0,0,,,1,FALSE,,,,,,,,,,,,,,,,,,,,,,,,,,,,,,
,5faaee6c1fd1c7549e392c64,001,2022-04-29_03h07.57.689,classification_task,2021.2.3,Win32,59.69436485,5faaee6c1fd1c7549e392c64,626b377229c10585ec392f89,626b3a143b0b87247d30b262,,,,,,,,,,,,,,,,,,,,,,,a,1,4.5774,"[""0.723"",""0.363"",""0.876"",""0.931""]","[0,1,1,1]",0,34,34,34,1,0,1,,,1,FALSE,,,,,,,,,,,,,,,,,,,,,,,,,,,,,,
,5faaee6c1fd1c7549e392c64,001,2022-04-29_03h07.57.689,classification_task,2021.2.3,Win32,59.69436485,5faaee6c1fd1c7549e392c64,626b377229c10585ec392f89,626b3a143b0b87247d30b262,,,,,,,,,,,,,,,,,,,,,,,l,0,2.9647,"[""0.311"",""0.363"",""0.618"",""0.931""]","[1,1,0,1]",0,35,35,35,1,0,1,,,1,FALSE,,,,,,,,,,,,,,,,,,,,,,,,,,,,,,
,5faaee6c1fd1c7549e392c64,001,2022-04-29_03h07.57.689,classification_task,2021.2.3,Win32,59.69436485,5faaee6c1fd1c7549e392c64,626b377229c10585ec392f89,626b3a143b0b87247d30b262,,,,,,,,,,,,,,,,,,,,,,,a,0,2.6556,"[""0.058"",""0.262"",""0.508"",""0.796""]","[1,0,1,1]",0,36,36,36,1,1,0,,,1,FALSE,,,,,,,,,,,,,,,,,,,,,,,,,,,,,,
,5faaee6c1fd1c7549e392c64,001,2022-04-29_03h07.57.689,classification_task,2021.2.3,Win32,59.69436485,5faaee6c1fd1c7549e392c64,626b377229c10585ec392f89,626b3a143b0b87247d30b262,,,,,,,,,,,,,,,,,,,,,,,a,0,5.1052,"[""0.118"",""0.157"",""0.466"",""0.723""]","[1,1,1,0]",0,37,37,37,1,1,1,,,1,FALSE,,,,,,,,,,,,,,,,,,,,,,,,,,,,,,
,5faaee6c1fd1c7549e392c64,001,2022-04-29_03h07.57.689,classification_task,2021.2.3,Win32,59.69436485,5faaee6c1fd1c7549e392c64,626b377229c10585ec392f89,626b3a143b0b87247d30b262,,,,,,,,,,,,,,,,,,,,,,,a,1,1.8443,"[""0.220"",""0.757"",""0.674"",""0.969""]","[1,0,1,1]",0,38,38,38,1,0,0,,,1,FALSE,,,,,,,,,,,,,,,,,,,,,,,,,,,,,,
,5faaee6c1fd1c7549e392c64,001,2022-04-29_03h07.57.689,classification_task,2021.2.3,Win32,59.69436485,5faaee6c1fd1c7549e392c64,626b377229c10585ec392f89,626b3a143b0b87247d30b262,,,,,,,,,,,,,,,,,,,,,,,l,1,1.5256,"[""0.118"",""0.157"",""0.275"",""0.834""]","[1,1,0,1]",0,39,39,39,1,1,1,,,1,FALSE,,,,,,,,,,,,,,,,,,,,,,,,,,,,,,
,5faaee6c1fd1c7549e392c64,001,2022-04-29_03h07.57.689,classification_task,2021.2.3,Win32,59.69436485,5faaee6c1fd1c7549e392c64,626b377229c10585ec392f89,626b3a143b0b87247d30b262,,,,,,,,,,,,,,,,,,,,,,,l,0,2.2099,"[""0.311"",""0.580"",""0.876"",""0.931""]","[1,0,1,1]",0,40,40,40,1,0,1,,,1,FALSE,,,,,,,,,,,,,,,,,,,,,,,,,,,,,,
,5faaee6c1fd1c7549e392c64,001,2022-04-29_03h07.57.689,classification_task,2021.2.3,Win32,59.69436485,5faaee6c1fd1c7549e392c64,626b377229c10585ec392f89,626b3a143b0b87247d30b262,,,,,,,,,,,,,,,,,,,,,,,a,1,1.7158,"[""0.723"",""0.544"",""0.674"",""0.969""]","[0,1,1,1]",0,41,41,41,1,0,0,,,1,FALSE,,,,,,,,,,,,,,,,,,,,,,,,,,,,,,
,5faaee6c1fd1c7549e392c64,001,2022-04-29_03h07.57.689,classification_task,2021.2.3,Win32,59.69436485,5faaee6c1fd1c7549e392c64,626b377229c10585ec392f89,626b3a143b0b87247d30b262,,,,,,,,,,,,,,,,,,,,,,,l,0,3.736,"[""0.311"",""0.363"",""0.876"",""0.599""]","[1,1,1,0]",0,42,42,42,1,0,1,,,1,FALSE,,,,,,,,,,,,,,,,,,,,,,,,,,,,,,
,5faaee6c1fd1c7549e392c64,001,2022-04-29_03h07.57.689,classification_task,2021.2.3,Win32,59.69436485,5faaee6c1fd1c7549e392c64,626b377229c10585ec392f89,626b3a143b0b87247d30b262,,,,,,,,,,,,,,,,,,,,,,,a,0,2.9733,"[""0.615"",""0.399"",""0.508"",""0.796""]","[0,1,1,1]",0,43,43,43,1,1,0,,,1,FALSE,,,,,,,,,,,,,,,,,,,,,,,,,,,,,,
,5faaee6c1fd1c7549e392c64,001,2022-04-29_03h07.57.689,classification_task,2021.2.3,Win32,59.69436485,5faaee6c1fd1c7549e392c64,626b377229c10585ec392f89,626b3a143b0b87247d30b262,,,,,,,,,,,,,,,,,,,,,,,a,0,2.0795,"[""0.118"",""0.262"",""0.466"",""0.834""]","[1,0,1,1]",0,44,44,44,1,1,1,,,1,FALSE,,,,,,,,,,,,,,,,,,,,,,,,,,,,,,
,5faaee6c1fd1c7549e392c64,001,2022-04-29_03h07.57.689,classification_task,2021.2.3,Win32,59.69436485,5faaee6c1fd1c7549e392c64,626b377229c10585ec392f89,626b3a143b0b87247d30b262,,,,,,,,,,,,,,,,,,,,,,,a,0,1.6412,"[""0.058"",""0.399"",""0.723"",""0.796""]","[1,1,0,1]",0,45,45,45,1,1,0,,,1,FALSE,,,,,,,,,,,,,,,,,,,,,,,,,,,,,,
,5faaee6c1fd1c7549e392c64,001,2022-04-29_03h07.57.689,classification_task,2021.2.3,Win32,59.69436485,5faaee6c1fd1c7549e392c64,626b377229c10585ec392f89,626b3a143b0b87247d30b262,,,,,,,,,,,,,,,,,,,,,,,l,1,0.8533,"[""0.058"",""0.399"",""0.508"",""0.274""]","[1,1,1,0]",0,46,46,46,1,1,0,,,1,FALSE,,,,,,,,,,,,,,,,,,,,,,,,,,,,,,
,5faaee6c1fd1c7549e392c64,001,2022-04-29_03h07.57.689,classification_task,2021.2.3,Win32,59.69436485,5faaee6c1fd1c7549e392c64,626b377229c10585ec392f89,626b3a143b0b87247d30b262,,,,,,,,,,,,,,,,,,,,,,,a,0,1.8548,"[""0.716"",""0.157"",""0.466"",""0.834""]","[0,1,1,1]",0,47,47,47,1,1,1,,,1,FALSE,,,,,,,,,,,,,,,,,,,,,,,,,,,,,,
,5faaee6c1fd1c7549e392c64,001,2022-04-29_03h07.57.689,classification_task,2021.2.3,Win32,59.69436485,5faaee6c1fd1c7549e392c64,626b377229c10585ec392f89,626b3a143b0b87247d30b262,,,,,,,,,,,,,,,,,,,,,,,a,1,2.8186,"[""0.716"",""0.363"",""0.876"",""0.931""]","[0,1,1,1]",0,48,48,48,1,0,1,,,1,FALSE,,,,,,,,,,,,,,,,,,,,,,,,,,,,,,
,5faaee6c1fd1c7549e392c64,001,2022-04-29_03h07.57.689,classification_task,2021.2.3,Win32,59.69436485,5faaee6c1fd1c7549e392c64,626b377229c10585ec392f89,626b3a143b0b87247d30b262,,,,,,,,,,,,,,,,,,,,,,,l,1,2.8291,"[""0.118"",""0.723"",""0.466"",""0.834""]","[1,0,1,1]",0,49,49,49,1,1,1,,,1,FALSE,,,,,,,,,,,,,,,,,,,,,,,,,,,,,,
,5faaee6c1fd1c7549e392c64,001,2022-04-29_03h07.57.689,classification_task,2021.2.3,Win32,59.69436485,5faaee6c1fd1c7549e392c64,626b377229c10585ec392f89,626b3a143b0b87247d30b262,,,,,,,,,,,,,,,,,,,,,,,a,1,3.0679,"[""0.311"",""0.363"",""0.876"",""0.270""]","[1,1,1,0]",0,50,50,50,1,0,1,,,1,FALSE,,,,,,,,,,,,,,,,,,,,,,,,,,,,,,
,5faaee6c1fd1c7549e392c64,001,2022-04-29_03h07.57.689,classification_task,2021.2.3,Win32,59.69436485,5faaee6c1fd1c7549e392c64,626b377229c10585ec392f89,626b3a143b0b87247d30b262,,,,,,,,,,,,,,,,,,,,,,,l,1,2.3888,"[""0.594"",""0.157"",""0.466"",""0.834""]","[0,1,1,1]",0,51,51,51,1,1,1,,,1,FALSE,,,,,,,,,,,,,,,,,,,,,,,,,,,,,,
,5faaee6c1fd1c7549e392c64,001,2022-04-29_03h07.57.689,classification_task,2021.2.3,Win32,59.69436485,5faaee6c1fd1c7549e392c64,626b377229c10585ec392f89,626b3a143b0b87247d30b262,,,,,,,,,,,,,,,,,,,,,,,a,1,3.9377,"[""0.220"",""0.544"",""0.674"",""0.275""]","[1,1,1,0]",0,52,52,52,1,0,0,,,1,FALSE,,,,,,,,,,,,,,,,,,,,,,,,,,,,,,
,5faaee6c1fd1c7549e392c64,001,2022-04-29_03h07.57.689,classification_task,2021.2.3,Win32,59.69436485,5faaee6c1fd1c7549e392c64,626b377229c10585ec392f89,626b3a143b0b87247d30b262,,,,,,,,,,,,,,,,,,,,,,,a,0,4.6379,"[""0.717"",""0.399"",""0.508"",""0.796""]","[0,1,1,1]",0,53,53,53,1,1,0,,,1,FALSE,,,,,,,,,,,,,,,,,,,,,,,,,,,,,,
,5faaee6c1fd1c7549e392c64,001,2022-04-29_03h07.57.689,classification_task,2021.2.3,Win32,59.69436485,5faaee6c1fd1c7549e392c64,626b377229c10585ec392f89,626b3a143b0b87247d30b262,,,,,,,,,,,,,,,,,,,,,,,a,1,2.0107,"[""0.220"",""0.757"",""0.674"",""0.969""]","[1,0,1,1]",0,54,54,54,1,0,0,,,1,FALSE,,,,,,,,,,,,,,,,,,,,,,,,,,,,,,
,5faaee6c1fd1c7549e392c64,001,2022-04-29_03h07.57.689,classification_task,2021.2.3,Win32,59.69436485,5faaee6c1fd1c7549e392c64,626b377229c10585ec392f89,626b3a143b0b87247d30b262,,,,,,,,,,,,,,,,,,,,,,,a,0,2.0511,"[""0.058"",""0.399"",""0.508"",""0.580""]","[1,1,1,0]",0,55,55,55,1,1,0,,,1,FALSE,,,,,,,,,,,,,,,,,,,,,,,,,,,,,,
,5faaee6c1fd1c7549e392c64,001,2022-04-29_03h07.57.689,classification_task,2021.2.3,Win32,59.69436485,5faaee6c1fd1c7549e392c64,626b377229c10585ec392f89,626b3a143b0b87247d30b262,,,,,,,,,,,,,,,,,,,,,,,a,0,2.6902,"[""0.118"",""0.157"",""0.615"",""0.834""]","[1,1,0,1]",0,56,56,56,1,1,1,,,1,FALSE,,,,,,,,,,,,,,,,,,,,,,,,,,,,,,
,5faaee6c1fd1c7549e392c64,001,2022-04-29_03h07.57.689,classification_task,2021.2.3,Win32,59.69436485,5faaee6c1fd1c7549e392c64,626b377229c10585ec392f89,626b3a143b0b87247d30b262,,,,,,,,,,,,,,,,,,,,,,,l,1,1.1126,"[""0.058"",""0.274"",""0.508"",""0.796""]","[1,0,1,1]",0,57,57,57,1,1,0,,,1,FALSE,,,,,,,,,,,,,,,,,,,,,,,,,,,,,,
,5faaee6c1fd1c7549e392c64,001,2022-04-29_03h07.57.689,classification_task,2021.2.3,Win32,59.69436485,5faaee6c1fd1c7549e392c64,626b377229c10585ec392f89,626b3a143b0b87247d30b262,,,,,,,,,,,,,,,,,,,,,,,a,1,2.0861,"[""0.220"",""0.544"",""0.615"",""0.969""]","[1,1,0,1]",0,58,58,58,1,0,0,,,1,FALSE,,,,,,,,,,,,,,,,,,,,,,,,,,,,,,
,5faaee6c1fd1c7549e392c64,001,2022-04-29_03h07.57.689,classification_task,2021.2.3,Win32,59.69436485,5faaee6c1fd1c7549e392c64,626b377229c10585ec392f89,626b3a143b0b87247d30b262,,,,,,,,,,,,,,,,,,,,,,,l,1,1.1279,"[""0.058"",""0.399"",""0.618"",""0.796""]","[1,1,0,1]",0,59,59,59,1,1,0,,,1,FALSE,,,,,,,,,,,,,,,,,,,,,,,,,,,,,,
,5faaee6c1fd1c7549e392c64,001,2022-04-29_03h07.57.689,classification_task,2021.2.3,Win32,59.69436485,5faaee6c1fd1c7549e392c64,626b377229c10585ec392f89,626b3a143b0b87247d30b262,,,,,,,,,,,,,,,,,,,,,,,a,1,2.0969,"[""0.311"",""0.610"",""0.876"",""0.931""]","[1,0,1,1]",0,60,60,60,1,0,1,,,1,FALSE,,,,,,,,,,,,,,,,,,,,,,,,,,,,,,
,5faaee6c1fd1c7549e392c64,001,2022-04-29_03h07.57.689,classification_task,2021.2.3,Win32,59.69436485,5faaee6c1fd1c7549e392c64,626b377229c10585ec392f89,626b3a143b0b87247d30b262,,,,,,,,,,,,,,,,,,,,,,,a,0,1.5539,"[""0.118"",""0.157"",""0.466"",""0.274""]","[1,1,1,0]",0,61,61,61,1,1,1,,,1,FALSE,,,,,,,,,,,,,,,,,,,,,,,,,,,,,,
,5faaee6c1fd1c7549e392c64,001,2022-04-29_03h07.57.689,classification_task,2021.2.3,Win32,59.69436485,5faaee6c1fd1c7549e392c64,626b377229c10585ec392f89,626b3a143b0b87247d30b262,,,,,,,,,,,,,,,,,,,,,,,l,0,2.8969,"[""0.615"",""0.544"",""0.674"",""0.969""]","[0,1,1,1]",0,62,62,62,1,0,0,,,1,FALSE,,,,,,,,,,,,,,,,,,,,,,,,,,,,,,
,5faaee6c1fd1c7549e392c64,001,2022-04-29_03h07.57.689,classification_task,2021.2.3,Win32,59.69436485,5faaee6c1fd1c7549e392c64,626b377229c10585ec392f89,626b3a143b0b87247d30b262,,,,,,,,,,,,,,,,,,,,,,,a,1,2.6956,"[""0.311"",""0.363"",""0.757"",""0.931""]","[1,1,0,1]",0,63,63,63,1,0,1,,,1,FALSE,,,,,,,,,,,,,,,,,,,,,,,,,,,,,,
,5faaee6c1fd1c7549e392c64,001,2022-04-29_03h07.57.689,classification_task,2021.2.3,Win32,59.69436485,5faaee6c1fd1c7549e392c64,626b377229c10585ec392f89,626b3a143b0b87247d30b262,,,,,,,,,,,,,,,,,,,,,,,,,,,,,,,,,,,,,,,0, ,,0,6.714677641,521.4084,0,0,0,0,1,2,1,,,,,,,,,,,,,,,,,
,5faaee6c1fd1c7549e392c64,001,2022-04-29_03h07.57.689,classification_task,2021.2.3,Win32,59.69436485,5faaee6c1fd1c7549e392c64,626b377229c10585ec392f89,626b3a143b0b87247d30b262,,,,,,,,,,,,,,,,,,,,,,,,,,,,,,,,,,,,,,,1,  ,,0,4.877523026,529.4016,0,0,0,0,1,2,1,,,,,,,,,,,,,,,,,
,5faaee6c1fd1c7549e392c64,001,2022-04-29_03h07.57.689,classification_task,2021.2.3,Win32,59.69436485,5faaee6c1fd1c7549e392c64,626b377229c10585ec392f89,626b3a143b0b87247d30b262,,,,,,,,,,,,,,,,,,,,,,,,,,,,,,,,,,,,,,,2,  ,,0,6.959631589,535.9423,0,0,0,0,1,2,1,,,,,,,,,,,,,,,,,
,5faaee6c1fd1c7549e392c64,001,2022-04-29_03h07.57.689,classification_task,2021.2.3,Win32,59.69436485,5faaee6c1fd1c7549e392c64,626b377229c10585ec392f89,626b3a143b0b87247d30b262,,,,,,,,,,,,,,,,,,,,,,,,,,,,,,,,,,,,,,,,,,,,,0,0,0,0,1,,1,,,,,,,,,,,,,,,,,
,5faaee6c1fd1c7549e392c64,001,2022-04-29_03h07.57.689,classification_task,2021.2.3,Win32,59.69436485,5faaee6c1fd1c7549e392c64,626b377229c10585ec392f89,626b3a143b0b87247d30b262,,,,,,,,,,,,,,,,,,,,,space,11.2296,l,1,4.622,"[""0.058"",""0.399"",""0.615"",""0.796""]","[1,1,0,1]",0,0,0,0,1,1,0,,,1,FALSE,,,,,,,,,,,,,,,,,,,,,,,,,,,,,,
,5faaee6c1fd1c7549e392c64,001,2022-04-29_03h07.57.689,classification_task,2021.2.3,Win32,59.69436485,5faaee6c1fd1c7549e392c64,626b377229c10585ec392f89,626b3a143b0b87247d30b262,,,,,,,,,,,,,,,,,,,,,,,l,1,1.1918,"[""0.058"",""0.399"",""0.508"",""0.618""]","[1,1,1,0]",0,1,1,1,1,1,0,,,1,FALSE,,,,,,,,,,,,,,,,,,,,,,,,,,,,,,
,5faaee6c1fd1c7549e392c64,001,2022-04-29_03h07.57.689,classification_task,2021.2.3,Win32,59.69436485,5faaee6c1fd1c7549e392c64,626b377229c10585ec392f89,626b3a143b0b87247d30b262,,,,,,,,,,,,,,,,,,,,,,,l,0,4.2717,"[""0.311"",""0.580"",""0.876"",""0.931""]","[1,0,1,1]",0,2,2,2,1,0,1,,,1,FALSE,,,,,,,,,,,,,,,,,,,,,,,,,,,,,,
,5faaee6c1fd1c7549e392c64,001,2022-04-29_03h07.57.689,classification_task,2021.2.3,Win32,59.69436485,5faaee6c1fd1c7549e392c64,626b377229c10585ec392f89,626b3a143b0b87247d30b262,,,,,,,,,,,,,,,,,,,,,,,a,1,1.4194,"[""0.274"",""0.363"",""0.876"",""0.931""]","[0,1,1,1]",0,3,3,3,1,0,1,,,1,FALSE,,,,,,,,,,,,,,,,,,,,,,,,,,,,,,
,5faaee6c1fd1c7549e392c64,001,2022-04-29_03h07.57.689,classification_task,2021.2.3,Win32,59.69436485,5faaee6c1fd1c7549e392c64,626b377229c10585ec392f89,626b3a143b0b87247d30b262,,,,,,,,,,,,,,,,,,,,,,,a,0,0.9878,"[""0.118"",""0.157"",""0.618"",""0.834""]","[1,1,0,1]",0,4,4,4,1,1,1,,,1,FALSE,,,,,,,,,,,,,,,,,,,,,,,,,,,,,,
,5faaee6c1fd1c7549e392c64,001,2022-04-29_03h07.57.689,classification_task,2021.2.3,Win32,59.69436485,5faaee6c1fd1c7549e392c64,626b377229c10585ec392f89,626b3a143b0b87247d30b262,,,,,,,,,,,,,,,,,,,,,,,l,1,1.5938,"[""0.580"",""0.157"",""0.466"",""0.834""]","[0,1,1,1]",0,5,5,5,1,1,1,,,1,FALSE,,,,,,,,,,,,,,,,,,,,,,,,,,,,,,
,5faaee6c1fd1c7549e392c64,001,2022-04-29_03h07.57.689,classification_task,2021.2.3,Win32,59.69436485,5faaee6c1fd1c7549e392c64,626b377229c10585ec392f89,626b3a143b0b87247d30b262,,,,,,,,,,,,,,,,,,,,,,,l,1,1.6455,"[""0.058"",""0.262"",""0.508"",""0.796""]","[1,0,1,1]",0,6,6,6,1,1,0,,,1,FALSE,,,,,,,,,,,,,,,,,,,,,,,,,,,,,,
,5faaee6c1fd1c7549e392c64,001,2022-04-29_03h07.57.689,classification_task,2021.2.3,Win32,59.69436485,5faaee6c1fd1c7549e392c64,626b377229c10585ec392f89,626b3a143b0b87247d30b262,,,,,,,,,,,,,,,,,,,,,,,a,0,2.4013,"[""0.118"",""0.157"",""0.466"",""0.580""]","[1,1,1,0]",0,7,7,7,1,1,1,,,1,FALSE,,,,,,,,,,,,,,,,,,,,,,,,,,,,,,
,5faaee6c1fd1c7549e392c64,001,2022-04-29_03h07.57.689,classification_task,2021.2.3,Win32,59.69436485,5faaee6c1fd1c7549e392c64,626b377229c10585ec392f89,626b3a143b0b87247d30b262,,,,,,,,,,,,,,,,,,,,,,,l,0,4.4956,"[""0.220"",""0.275"",""0.674"",""0.969""]","[1,0,1,1]",0,8,8,8,1,0,0,,,1,FALSE,,,,,,,,,,,,,,,,,,,,,,,,,,,,,,
,5faaee6c1fd1c7549e392c64,001,2022-04-29_03h07.57.689,classification_task,2021.2.3,Win32,59.69436485,5faaee6c1fd1c7549e392c64,626b377229c10585ec392f89,626b3a143b0b87247d30b262,,,,,,,,,,,,,,,,,,,,,,,l,0,3.3503,"[""0.220"",""0.544"",""0.618"",""0.969""]","[1,1,0,1]",0,9,9,9,1,0,0,,,1,FALSE,,,,,,,,,,,,,,,,,,,,,,,,,,,,,,
,5faaee6c1fd1c7549e392c64,001,2022-04-29_03h07.57.689,classification_task,2021.2.3,Win32,59.69436485,5faaee6c1fd1c7549e392c64,626b377229c10585ec392f89,626b3a143b0b87247d30b262,,,,,,,,,,,,,,,,,,,,,,,l,0,1.9722,"[""0.262"",""0.544"",""0.674"",""0.969""]","[0,1,1,1]",0,10,10,10,1,0,0,,,1,FALSE,,,,,,,,,,,,,,,,,,,,,,,,,,,,,,
,5faaee6c1fd1c7549e392c64,001,2022-04-29_03h07.57.689,classification_task,2021.2.3,Win32,59.69436485,5faaee6c1fd1c7549e392c64,626b377229c10585ec392f89,626b3a143b0b87247d30b262,,,,,,,,,,,,,,,,,,,,,,,a,0,1.8349,"[""0.118"",""0.723"",""0.466"",""0.834""]","[1,0,1,1]",0,11,11,11,1,1,1,,,1,FALSE,,,,,,,,,,,,,,,,,,,,,,,,,,,,,,
,5faaee6c1fd1c7549e392c64,001,2022-04-29_03h07.57.689,classification_task,2021.2.3,Win32,59.69436485,5faaee6c1fd1c7549e392c64,626b377229c10585ec392f89,626b3a143b0b87247d30b262,,,,,,,,,,,,,,,,,,,,,,,a,1,1.3818,"[""0.311"",""0.363"",""0.580"",""0.931""]","[1,1,0,1]",0,12,12,12,1,0,1,,,1,FALSE,,,,,,,,,,,,,,,,,,,,,,,,,,,,,,
,5faaee6c1fd1c7549e392c64,001,2022-04-29_03h07.57.689,classification_task,2021.2.3,Win32,59.69436485,5faaee6c1fd1c7549e392c64,626b377229c10585ec392f89,626b3a143b0b87247d30b262,,,,,,,,,,,,,,,,,,,,,,,l,0,1.0491,"[""0.311"",""0.363"",""0.876"",""0.717""]","[1,1,1,0]",0,13,13,13,1,0,1,,,1,FALSE,,,,,,,,,,,,,,,,,,,,,,,,,,,,,,
,5faaee6c1fd1c7549e392c64,001,2022-04-29_03h07.57.689,classification_task,2021.2.3,Win32,59.69436485,5faaee6c1fd1c7549e392c64,626b377229c10585ec392f89,626b3a143b0b87247d30b262,,,,,,,,,,,,,,,,,,,,,,,a,1,5.3228,"[""0.220"",""0.544"",""0.674"",""0.717""]","[1,1,1,0]",0,14,14,14,1,0,0,,,1,FALSE,,,,,,,,,,,,,,,,,,,,,,,,,,,,,,
,5faaee6c1fd1c7549e392c64,001,2022-04-29_03h07.57.689,classification_task,2021.2.3,Win32,59.69436485,5faaee6c1fd1c7549e392c64,626b377229c10585ec392f89,626b3a143b0b87247d30b262,,,,,,,,,,,,,,,,,,,,,,,a,0,2.4635,"[""0.580"",""0.399"",""0.508"",""0.796""]","[0,1,1,1]",0,15,15,15,1,1,0,,,1,FALSE,,,,,,,,,,,,,,,,,,,,,,,,,,,,,,
,5faaee6c1fd1c7549e392c64,001,2022-04-29_03h07.57.689,classification_task,2021.2.3,Win32,59.69436485,5faaee6c1fd1c7549e392c64,626b377229c10585ec392f89,626b3a143b0b87247d30b262,,,,,,,,,,,,,,,,,,,,,,,a,1,1.5578,"[""0.594"",""0.363"",""0.876"",""0.931""]","[0,1,1,1]",0,16,16,16,1,0,1,,,1,FALSE,,,,,,,,,,,,,,,,,,,,,,,,,,,,,,
,5faaee6c1fd1c7549e392c64,001,2022-04-29_03h07.57.689,classification_task,2021.2.3,Win32,59.69436485,5faaee6c1fd1c7549e392c64,626b377229c10585ec392f89,626b3a143b0b87247d30b262,,,,,,,,,,,,,,,,,,,,,,,a,1,1.1199,"[""0.220"",""0.544"",""0.674"",""0.580""]","[1,1,1,0]",0,17,17,17,1,0,0,,,1,FALSE,,,,,,,,,,,,,,,,,,,,,,,,,,,,,,
,5faaee6c1fd1c7549e392c64,001,2022-04-29_03h07.57.689,classification_task,2021.2.3,Win32,59.69436485,5faaee6c1fd1c7549e392c64,626b377229c10585ec392f89,626b3a143b0b87247d30b262,,,,,,,,,,,,,,,,,,,,,,,l,0,1.8803,"[""0.220"",""0.757"",""0.674"",""0.969""]","[1,0,1,1]",0,18,18,18,1,0,0,,,1,FALSE,,,,,,,,,,,,,,,,,,,,,,,,,,,,,,
,5faaee6c1fd1c7549e392c64,001,2022-04-29_03h07.57.689,classification_task,2021.2.3,Win32,59.69436485,5faaee6c1fd1c7549e392c64,626b377229c10585ec392f89,626b3a143b0b87247d30b262,,,,,,,,,,,,,,,,,,,,,,,a,1,2.1742,"[""0.311"",""0.757"",""0.876"",""0.931""]","[1,0,1,1]",0,19,19,19,1,0,1,,,1,FALSE,,,,,,,,,,,,,,,,,,,,,,,,,,,,,,
,5faaee6c1fd1c7549e392c64,001,2022-04-29_03h07.57.689,classification_task,2021.2.3,Win32,59.69436485,5faaee6c1fd1c7549e392c64,626b377229c10585ec392f89,626b3a143b0b87247d30b262,,,,,,,,,,,,,,,,,,,,,,,a,1,1.2783,"[""0.311"",""0.363"",""0.749"",""0.931""]","[1,1,0,1]",0,20,20,20,1,0,1,,,1,FALSE,,,,,,,,,,,,,,,,,,,,,,,,,,,,,,
,5faaee6c1fd1c7549e392c64,001,2022-04-29_03h07.57.689,classification_task,2021.2.3,Win32,59.69436485,5faaee6c1fd1c7549e392c64,626b377229c10585ec392f89,626b3a143b0b87247d30b262,,,,,,,,,,,,,,,,,,,,,,,a,0,1.7686,"[""0.118"",""0.157"",""0.275"",""0.834""]","[1,1,0,1]",0,21,21,21,1,1,1,,,1,FALSE,,,,,,,,,,,,,,,,,,,,,,,,,,,,,,
,5faaee6c1fd1c7549e392c64,001,2022-04-29_03h07.57.689,classification_task,2021.2.3,Win32,59.69436485,5faaee6c1fd1c7549e392c64,626b377229c10585ec392f89,626b3a143b0b87247d30b262,,,,,,,,,,,,,,,,,,,,,,,l,1,2.4957,"[""0.118"",""0.274"",""0.466"",""0.834""]","[1,0,1,1]",0,22,22,22,1,1,1,,,1,FALSE,,,,,,,,,,,,,,,,,,,,,,,,,,,,,,
,5faaee6c1fd1c7549e392c64,001,2022-04-29_03h07.57.689,classification_task,2021.2.3,Win32,59.69436485,5faaee6c1fd1c7549e392c64,626b377229c10585ec392f89,626b3a143b0b87247d30b262,,,,,,,,,,,,,,,,,,,,,,,l,1,1.6613,"[""0.058"",""0.594"",""0.508"",""0.796""]","[1,0,1,1]",0,23,23,23,1,1,0,,,1,FALSE,,,,,,,,,,,,,,,,,,,,,,,,,,,,,,
,5faaee6c1fd1c7549e392c64,001,2022-04-29_03h07.57.689,classification_task,2021.2.3,Win32,59.69436485,5faaee6c1fd1c7549e392c64,626b377229c10585ec392f89,626b3a143b0b87247d30b262,,,,,,,,,,,,,,,,,,,,,,,l,0,4.5206,"[""0.757"",""0.544"",""0.674"",""0.969""]","[0,1,1,1]",0,24,24,24,1,0,0,,,1,FALSE,,,,,,,,,,,,,,,,,,,,,,,,,,,,,,
,5faaee6c1fd1c7549e392c64,001,2022-04-29_03h07.57.689,classification_task,2021.2.3,Win32,59.69436485,5faaee6c1fd1c7549e392c64,626b377229c10585ec392f89,626b3a143b0b87247d30b262,,,,,,,,,,,,,,,,,,,,,,,a,1,1.2046,"[""0.220"",""0.544"",""0.615"",""0.969""]","[1,1,0,1]",0,25,25,25,1,0,0,,,1,FALSE,,,,,,,,,,,,,,,,,,,,,,,,,,,,,,
,5faaee6c1fd1c7549e392c64,001,2022-04-29_03h07.57.689,classification_task,2021.2.3,Win32,59.69436485,5faaee6c1fd1c7549e392c64,626b377229c10585ec392f89,626b3a143b0b87247d30b262,,,,,,,,,,,,,,,,,,,,,,,l,1,2.1397,"[""0.058"",""0.399"",""0.508"",""0.723""]","[1,1,1,0]",0,26,26,26,1,1,0,,,1,FALSE,,,,,,,,,,,,,,,,,,,,,,,,,,,,,,
,5faaee6c1fd1c7549e392c64,001,2022-04-29_03h07.57.689,classification_task,2021.2.3,Win32,59.69436485,5faaee6c1fd1c7549e392c64,626b377229c10585ec392f89,626b3a143b0b87247d30b262,,,,,,,,,,,,,,,,,,,,,,,a,0,2.7065,"[""0.717"",""0.399"",""0.508"",""0.796""]","[0,1,1,1]",0,27,27,27,1,1,0,,,1,FALSE,,,,,,,,,,,,,,,,,,,,,,,,,,,,,,
,5faaee6c1fd1c7549e392c64,001,2022-04-29_03h07.57.689,classification_task,2021.2.3,Win32,59.69436485,5faaee6c1fd1c7549e392c64,626b377229c10585ec392f89,626b3a143b0b87247d30b262,,,,,,,,,,,,,,,,,,,,,,,a,0,3.5939,"[""0.580"",""0.157"",""0.466"",""0.834""]","[0,1,1,1]",0,28,28,28,1,1,1,,,1,FALSE,,,,,,,,,,,,,,,,,,,,,,,,,,,,,,
,5faaee6c1fd1c7549e392c64,001,2022-04-29_03h07.57.689,classification_task,2021.2.3,Win32,59.69436485,5faaee6c1fd1c7549e392c64,626b377229c10585ec392f89,626b3a143b0b87247d30b262,,,,,,,,,,,,,,,,,,,,,,,l,1,1.3901,"[""0.058"",""0.399"",""0.270"",""0.796""]","[1,1,0,1]",0,29,29,29,1,1,0,,,1,FALSE,,,,,,,,,,,,,,,,,,,,,,,,,,,,,,
,5faaee6c1fd1c7549e392c64,001,2022-04-29_03h07.57.689,classification_task,2021.2.3,Win32,59.69436485,5faaee6c1fd1c7549e392c64,626b377229c10585ec392f89,626b3a143b0b87247d30b262,,,,,,,,,,,,,,,,,,,,,,,a,0,1.1663,"[""0.118"",""0.157"",""0.466"",""0.723""]","[1,1,1,0]",0,30,30,30,1,1,1,,,1,FALSE,,,,,,,,,,,,,,,,,,,,,,,,,,,,,,
,5faaee6c1fd1c7549e392c64,001,2022-04-29_03h07.57.689,classification_task,2021.2.3,Win32,59.69436485,5faaee6c1fd1c7549e392c64,626b377229c10585ec392f89,626b3a143b0b87247d30b262,,,,,,,,,,,,,,,,,,,,,,,a,1,0.9831,"[""0.311"",""0.363"",""0.876"",""0.615""]","[1,1,1,0]",0,31,31,31,1,0,1,,,1,FALSE,,,,,,,,,,,,,,,,,,,,,,,,,,,,,,
,5faaee6c1fd1c7549e392c64,001,2022-04-29_03h07.57.689,classification_task,2021.2.3,Win32,59.69436485,5faaee6c1fd1c7549e392c64,626b377229c10585ec392f89,626b3a143b0b87247d30b262,,,,,,,,,,,,,,,,,,,,,,,l,0,1.1505,"[""0.220"",""0.615"",""0.674"",""0.969""]","[1,0,1,1]",0,32,32,32,1,0,0,,,1,FALSE,,,,,,,,,,,,,,,,,,,,,,,,,,,,,,
,5faaee6c1fd1c7549e392c64,001,2022-04-29_03h07.57.689,classification_task,2021.2.3,Win32,59.69436485,5faaee6c1fd1c7549e392c64,626b377229c10585ec392f89,626b3a143b0b87247d30b262,,,,,,,,,,,,,,,,,,,,,,,a,1,0.9777,"[""0.220"",""0.544"",""0.580"",""0.969""]","[1,1,0,1]",0,33,33,33,1,0,0,,,1,FALSE,,,,,,,,,,,,,,,,,,,,,,,,,,,,,,
,5faaee6c1fd1c7549e392c64,001,2022-04-29_03h07.57.689,classification_task,2021.2.3,Win32,59.69436485,5faaee6c1fd1c7549e392c64,626b377229c10585ec392f89,626b3a143b0b87247d30b262,,,,,,,,,,,,,,,,,,,,,,,l,0,3.7539,"[""0.311"",""0.615"",""0.876"",""0.931""]","[1,0,1,1]",0,34,34,34,1,0,1,,,1,FALSE,,,,,,,,,,,,,,,,,,,,,,,,,,,,,,
,5faaee6c1fd1c7549e392c64,001,2022-04-29_03h07.57.689,classification_task,2021.2.3,Win32,59.69436485,5faaee6c1fd1c7549e392c64,626b377229c10585ec392f89,626b3a143b0b87247d30b262,,,,,,,,,,,,,,,,,,,,,,,l,1,1.1499,"[""0.118"",""0.157"",""0.723"",""0.834""]","[1,1,0,1]",0,35,35,35,1,1,1,,,1,FALSE,,,,,,,,,,,,,,,,,,,,,,,,,,,,,,
,5faaee6c1fd1c7549e392c64,001,2022-04-29_03h07.57.689,classification_task,2021.2.3,Win32,59.69436485,5faaee6c1fd1c7549e392c64,626b377229c10585ec392f89,626b3a143b0b87247d30b262,,,,,,,,,,,,,,,,,,,,,,,a,1,1.434,"[""0.749"",""0.544"",""0.674"",""0.969""]","[0,1,1,1]",0,36,36,36,1,0,0,,,1,FALSE,,,,,,,,,,,,,,,,,,,,,,,,,,,,,,
,5faaee6c1fd1c7549e392c64,001,2022-04-29_03h07.57.689,classification_task,2021.2.3,Win32,59.69436485,5faaee6c1fd1c7549e392c64,626b377229c10585ec392f89,626b3a143b0b87247d30b262,,,,,,,,,,,,,,,,,,,,,,,a,0,1.4339,"[""0.580"",""0.157"",""0.466"",""0.834""]","[0,1,1,1]",0,37,37,37,1,1,1,,,1,FALSE,,,,,,,,,,,,,,,,,,,,,,,,,,,,,,
,5faaee6c1fd1c7549e392c64,001,2022-04-29_03h07.57.689,classification_task,2021.2.3,Win32,59.69436485,5faaee6c1fd1c7549e392c64,626b377229c10585ec392f89,626b3a143b0b87247d30b262,,,,,,,,,,,,,,,,,,,,,,,l,1,1.8672,"[""0.058"",""0.594"",""0.508"",""0.796""]","[1,0,1,1]",0,38,38,38,1,1,0,,,1,FALSE,,,,,,,,,,,,,,,,,,,,,,,,,,,,,,
,5faaee6c1fd1c7549e392c64,001,2022-04-29_03h07.57.689,classification_task,2021.2.3,Win32,59.69436485,5faaee6c1fd1c7549e392c64,626b377229c10585ec392f89,626b3a143b0b87247d30b262,,,,,,,,,,,,,,,,,,,,,,,a,1,2.1519,"[""0.311"",""0.363"",""0.876"",""0.615""]","[1,1,1,0]",0,39,39,39,1,0,1,,,1,FALSE,,,,,,,,,,,,,,,,,,,,,,,,,,,,,,
,5faaee6c1fd1c7549e392c64,001,2022-04-29_03h07.57.689,classification_task,2021.2.3,Win32,59.69436485,5faaee6c1fd1c7549e392c64,626b377229c10585ec392f89,626b3a143b0b87247d30b262,,,,,,,,,,,,,,,,,,,,,,,a,1,1.5619,"[""0.599"",""0.363"",""0.876"",""0.931""]","[0,1,1,1]",0,40,40,40,1,0,1,,,1,FALSE,,,,,,,,,,,,,,,,,,,,,,,,,,,,,,
,5faaee6c1fd1c7549e392c64,001,2022-04-29_03h07.57.689,classification_task,2021.2.3,Win32,59.69436485,5faaee6c1fd1c7549e392c64,626b377229c10585ec392f89,626b3a143b0b87247d30b262,,,,,,,,,,,,,,,,,,,,,,,l,0,1.385,"[""0.220"",""0.544"",""0.674"",""0.262""]","[1,1,1,0]",0,41,41,41,1,0,0,,,1,FALSE,,,,,,,,,,,,,,,,,,,,,,,,,,,,,,
,5faaee6c1fd1c7549e392c64,001,2022-04-29_03h07.57.689,classification_task,2021.2.3,Win32,59.69436485,5faaee6c1fd1c7549e392c64,626b377229c10585ec392f89,626b3a143b0b87247d30b262,,,,,,,,,,,,,,,,,,,,,,,l,1,2.1714,"[""0.274"",""0.399"",""0.508"",""0.796""]","[0,1,1,1]",0,42,42,42,1,1,0,,,1,FALSE,,,,,,,,,,,,,,,,,,,,,,,,,,,,,,
,5faaee6c1fd1c7549e392c64,001,2022-04-29_03h07.57.689,classification_task,2021.2.3,Win32,59.69436485,5faaee6c1fd1c7549e392c64,626b377229c10585ec392f89,626b3a143b0b87247d30b262,,,,,,,,,,,,,,,,,,,,,,,l,1,2.0861,"[""0.118"",""0.749"",""0.466"",""0.834""]","[1,0,1,1]",0,43,43,43,1,1,1,,,1,FALSE,,,,,,,,,,,,,,,,,,,,,,,,,,,,,,
,5faaee6c1fd1c7549e392c64,001,2022-04-29_03h07.57.689,classification_task,2021.2.3,Win32,59.69436485,5faaee6c1fd1c7549e392c64,626b377229c10585ec392f89,626b3a143b0b87247d30b262,,,,,,,,,,,,,,,,,,,,,,,l,1,0.8459,"[""0.058"",""0.399"",""0.618"",""0.796""]","[1,1,0,1]",0,44,44,44,1,1,0,,,1,FALSE,,,,,,,,,,,,,,,,,,,,,,,,,,,,,,
,5faaee6c1fd1c7549e392c64,001,2022-04-29_03h07.57.689,classification_task,2021.2.3,Win32,59.69436485,5faaee6c1fd1c7549e392c64,626b377229c10585ec392f89,626b3a143b0b87247d30b262,,,,,,,,,,,,,,,,,,,,,,,l,1,1.2072,"[""0.058"",""0.399"",""0.508"",""0.274""]","[1,1,1,0]",0,45,45,45,1,1,0,,,1,FALSE,,,,,,,,,,,,,,,,,,,,,,,,,,,,,,
,5faaee6c1fd1c7549e392c64,001,2022-04-29_03h07.57.689,classification_task,2021.2.3,Win32,59.69436485,5faaee6c1fd1c7549e392c64,626b377229c10585ec392f89,626b3a143b0b87247d30b262,,,,,,,,,,,,,,,,,,,,,,,a,1,3.6658,"[""0.311"",""0.363"",""0.610"",""0.931""]","[1,1,0,1]",0,46,46,46,1,0,1,,,1,FALSE,,,,,,,,,,,,,,,,,,,,,,,,,,,,,,
,5faaee6c1fd1c7549e392c64,001,2022-04-29_03h07.57.689,classification_task,2021.2.3,Win32,59.69436485,5faaee6c1fd1c7549e392c64,626b377229c10585ec392f89,626b3a143b0b87247d30b262,,,,,,,,,,,,,,,,,,,,,,,a,0,1.0479,"[""0.118"",""0.157"",""0.466"",""0.723""]","[1,1,1,0]",0,47,47,47,1,1,1,,,1,FALSE,,,,,,,,,,,,,,,,,,,,,,,,,,,,,,
,5faaee6c1fd1c7549e392c64,001,2022-04-29_03h07.57.689,classification_task,2021.2.3,Win32,59.69436485,5faaee6c1fd1c7549e392c64,626b377229c10585ec392f89,626b3a143b0b87247d30b262,,,,,,,,,,,,,,,,,,,,,,,l,1,0.7541,"[""0.118"",""0.157"",""0.466"",""0.599""]","[1,1,1,0]",0,48,48,48,1,1,1,,,1,FALSE,,,,,,,,,,,,,,,,,,,,,,,,,,,,,,
,5faaee6c1fd1c7549e392c64,001,2022-04-29_03h07.57.689,classification_task,2021.2.3,Win32,59.69436485,5faaee6c1fd1c7549e392c64,626b377229c10585ec392f89,626b3a143b0b87247d30b262,,,,,,,,,,,,,,,,,,,,,,,l,1,0.9774,"[""0.058"",""0.270"",""0.508"",""0.796""]","[1,0,1,1]",0,49,49,49,1,1,0,,,1,FALSE,,,,,,,,,,,,,,,,,,,,,,,,,,,,,,
,5faaee6c1fd1c7549e392c64,001,2022-04-29_03h07.57.689,classification_task,2021.2.3,Win32,59.69436485,5faaee6c1fd1c7549e392c64,626b377229c10585ec392f89,626b3a143b0b87247d30b262,,,,,,,,,,,,,,,,,,,,,,,a,1,1.9162,"[""0.580"",""0.544"",""0.674"",""0.969""]","[0,1,1,1]",0,50,50,50,1,0,0,,,1,FALSE,,,,,,,,,,,,,,,,,,,,,,,,,,,,,,
,5faaee6c1fd1c7549e392c64,001,2022-04-29_03h07.57.689,classification_task,2021.2.3,Win32,59.69436485,5faaee6c1fd1c7549e392c64,626b377229c10585ec392f89,626b3a143b0b87247d30b262,,,,,,,,,,,,,,,,,,,,,,,a,1,1.3286,"[""0.311"",""0.363"",""0.580"",""0.931""]","[1,1,0,1]",0,51,51,51,1,0,1,,,1,FALSE,,,,,,,,,,,,,,,,,,,,,,,,,,,,,,
,5faaee6c1fd1c7549e392c64,001,2022-04-29_03h07.57.689,classification_task,2021.2.3,Win32,59.69436485,5faaee6c1fd1c7549e392c64,626b377229c10585ec392f89,626b3a143b0b87247d30b262,,,,,,,,,,,,,,,,,,,,,,,a,0,1.2542,"[""0.757"",""0.399"",""0.508"",""0.796""]","[0,1,1,1]",0,52,52,52,1,1,0,,,1,FALSE,,,,,,,,,,,,,,,,,,,,,,,,,,,,,,
,5faaee6c1fd1c7549e392c64,001,2022-04-29_03h07.57.689,classification_task,2021.2.3,Win32,59.69436485,5faaee6c1fd1c7549e392c64,626b377229c10585ec392f89,626b3a143b0b87247d30b262,,,,,,,,,,,,,,,,,,,,,,,l,0,2.1952,"[""0.610"",""0.363"",""0.876"",""0.931""]","[0,1,1,1]",0,53,53,53,1,0,1,,,1,FALSE,,,,,,,,,,,,,,,,,,,,,,,,,,,,,,
,5faaee6c1fd1c7549e392c64,001,2022-04-29_03h07.57.689,classification_task,2021.2.3,Win32,59.69436485,5faaee6c1fd1c7549e392c64,626b377229c10585ec392f89,626b3a143b0b87247d30b262,,,,,,,,,,,,,,,,,,,,,,,a,0,5.5841,"[""0.058"",""0.399"",""0.749"",""0.796""]","[1,1,0,1]",0,54,54,54,1,1,0,,,1,FALSE,,,,,,,,,,,,,,,,,,,,,,,,,,,,,,
,5faaee6c1fd1c7549e392c64,001,2022-04-29_03h07.57.689,classification_task,2021.2.3,Win32,59.69436485,5faaee6c1fd1c7549e392c64,626b377229c10585ec392f89,626b3a143b0b87247d30b262,,,,,,,,,,,,,,,,,,,,,,,a,1,1.5672,"[""0.220"",""0.274"",""0.674"",""0.969""]","[1,0,1,1]",0,55,55,55,1,0,0,,,1,FALSE,,,,,,,,,,,,,,,,,,,,,,,,,,,,,,
,5faaee6c1fd1c7549e392c64,001,2022-04-29_03h07.57.689,classification_task,2021.2.3,Win32,59.69436485,5faaee6c1fd1c7549e392c64,626b377229c10585ec392f89,626b3a143b0b87247d30b262,,,,,,,,,,,,,,,,,,,,,,,l,1,1.0246,"[""0.058"",""0.399"",""0.508"",""0.594""]","[1,1,1,0]",0,56,56,56,1,1,0,,,1,FALSE,,,,,,,,,,,,,,,,,,,,,,,,,,,,,,
,5faaee6c1fd1c7549e392c64,001,2022-04-29_03h07.57.689,classification_task,2021.2.3,Win32,59.69436485,5faaee6c1fd1c7549e392c64,626b377229c10585ec392f89,626b3a143b0b87247d30b262,,,,,,,,,,,,,,,,,,,,,,,a,1,1.066,"[""0.220"",""0.544"",""0.615"",""0.969""]","[1,1,0,1]",0,57,57,57,1,0,0,,,1,FALSE,,,,,,,,,,,,,,,,,,,,,,,,,,,,,,
,5faaee6c1fd1c7549e392c64,001,2022-04-29_03h07.57.689,classification_task,2021.2.3,Win32,59.69436485,5faaee6c1fd1c7549e392c64,626b377229c10585ec392f89,626b3a143b0b87247d30b262,,,,,,,,,,,,,,,,,,,,,,,l,0,2.2312,"[""0.311"",""0.615"",""0.876"",""0.931""]","[1,0,1,1]",0,58,58,58,1,0,1,,,1,FALSE,,,,,,,,,,,,,,,,,,,,,,,,,,,,,,
,5faaee6c1fd1c7549e392c64,001,2022-04-29_03h07.57.689,classification_task,2021.2.3,Win32,59.69436485,5faaee6c1fd1c7549e392c64,626b377229c10585ec392f89,626b3a143b0b87247d30b262,,,,,,,,,,,,,,,,,,,,,,,a,1,1.7459,"[""0.220"",""0.544"",""0.674"",""0.615""]","[1,1,1,0]",0,59,59,59,1,0,0,,,1,FALSE,,,,,,,,,,,,,,,,,,,,,,,,,,,,,,
,5faaee6c1fd1c7549e392c64,001,2022-04-29_03h07.57.689,classification_task,2021.2.3,Win32,59.69436485,5faaee6c1fd1c7549e392c64,626b377229c10585ec392f89,626b3a143b0b87247d30b262,,,,,,,,,,,,,,,,,,,,,,,l,1,3.0771,"[""0.118"",""0.615"",""0.466"",""0.834""]","[1,0,1,1]",0,60,60,60,1,1,1,,,1,FALSE,,,,,,,,,,,,,,,,,,,,,,,,,,,,,,
,5faaee6c1fd1c7549e392c64,001,2022-04-29_03h07.57.689,classification_task,2021.2.3,Win32,59.69436485,5faaee6c1fd1c7549e392c64,626b377229c10585ec392f89,626b3a143b0b87247d30b262,,,,,,,,,,,,,,,,,,,,,,,a,0,0.9548,"[""0.118"",""0.157"",""0.757"",""0.834""]","[1,1,0,1]",0,61,61,61,1,1,1,,,1,FALSE,,,,,,,,,,,,,,,,,,,,,,,,,,,,,,
,5faaee6c1fd1c7549e392c64,001,2022-04-29_03h07.57.689,classification_task,2021.2.3,Win32,59.69436485,5faaee6c1fd1c7549e392c64,626b377229c10585ec392f89,626b3a143b0b87247d30b262,,,,,,,,,,,,,,,,,,,,,,,a,1,1.4616,"[""0.311"",""0.363"",""0.876"",""0.262""]","[1,1,1,0]",0,62,62,62,1,0,1,,,1,FALSE,,,,,,,,,,,,,,,,,,,,,,,,,,,,,,
,5faaee6c1fd1c7549e392c64,001,2022-04-29_03h07.57.689,classification_task,2021.2.3,Win32,59.69436485,5faaee6c1fd1c7549e392c64,626b377229c10585ec392f89,626b3a143b0b87247d30b262,,,,,,,,,,,,,,,,,,,,,,,a,0,1.9704,"[""0.610"",""0.157"",""0.466"",""0.834""]","[0,1,1,1]",0,63,63,63,1,1,1,,,1,FALSE,,,,,,,,,,,,,,,,,,,,,,,,,,,,,,
,5faaee6c1fd1c7549e392c64,001,2022-04-29_03h07.57.689,classification_task,2021.2.3,Win32,59.69436485,5faaee6c1fd1c7549e392c64,626b377229c10585ec392f89,626b3a143b0b87247d30b262,,,,,,,,,,,,,,,,,,,,,,,,,,,,,,,,,,,,,,,0, ,,0,6.984126984,217.6186,0,1,1,1,1,2,2,,,,,,,,,,,,,,,,,
,5faaee6c1fd1c7549e392c64,001,2022-04-29_03h07.57.689,classification_task,2021.2.3,Win32,59.69436485,5faaee6c1fd1c7549e392c64,626b377229c10585ec392f89,626b3a143b0b87247d30b262,,,,,,,,,,,,,,,,,,,,,,,,,,,,,,,,,,,,,,,1,  ,,0,4.681559867,222.3279,0,1,1,1,1,2,2,,,,,,,,,,,,,,,,,
,5faaee6c1fd1c7549e392c64,001,2022-04-29_03h07.57.689,classification_task,2021.2.3,Win32,59.69436485,5faaee6c1fd1c7549e392c64,626b377229c10585ec392f89,626b3a143b0b87247d30b262,,,,,,,,,,,,,,,,,,,,,,,,,,,,,,,,,,,,,,,2,  ,,0,6.959631589,224.4235,0,1,1,1,1,2,2,,,,,,,,,,,,,,,,,
,5faaee6c1fd1c7549e392c64,001,2022-04-29_03h07.57.689,classification_task,2021.2.3,Win32,59.69436485,5faaee6c1fd1c7549e392c64,626b377229c10585ec392f89,626b3a143b0b87247d30b262,,,,,,,,,,,,,,,,,,,,,,,,,,,,,,,,,,,,,,,,,,,,,0,1,1,1,1,,2,,,,,,,,,,,,,,,,,
,5faaee6c1fd1c7549e392c64,001,2022-04-29_03h07.57.689,classification_task,2021.2.3,Win32,59.69436485,5faaee6c1fd1c7549e392c64,626b377229c10585ec392f89,626b3a143b0b87247d30b262,,,,,,,,,,,,,,,,,,,,,space,6.7649,l,1,3.9977,"[""0.118"",""0.157"",""0.580"",""0.834""]","[1,1,0,1]",0,0,0,0,1,1,1,,,1,FALSE,,,,,,,,,,,,,,,,,,,,,,,,,,,,,,
,5faaee6c1fd1c7549e392c64,001,2022-04-29_03h07.57.689,classification_task,2021.2.3,Win32,59.69436485,5faaee6c1fd1c7549e392c64,626b377229c10585ec392f89,626b3a143b0b87247d30b262,,,,,,,,,,,,,,,,,,,,,,,a,1,4.0634,"[""0.311"",""0.723"",""0.876"",""0.931""]","[1,0,1,1]",0,1,1,1,1,0,1,,,1,FALSE,,,,,,,,,,,,,,,,,,,,,,,,,,,,,,
,5faaee6c1fd1c7549e392c64,001,2022-04-29_03h07.57.689,classification_task,2021.2.3,Win32,59.69436485,5faaee6c1fd1c7549e392c64,626b377229c10585ec392f89,626b3a143b0b87247d30b262,,,,,,,,,,,,,,,,,,,,,,,l,1,0.9061,"[""0.118"",""0.157"",""0.466"",""0.716""]","[1,1,1,0]",0,2,2,2,1,1,1,,,1,FALSE,,,,,,,,,,,,,,,,,,,,,,,,,,,,,,
,5faaee6c1fd1c7549e392c64,001,2022-04-29_03h07.57.689,classification_task,2021.2.3,Win32,59.69436485,5faaee6c1fd1c7549e392c64,626b377229c10585ec392f89,626b3a143b0b87247d30b262,,,,,,,,,,,,,,,,,,,,,,,a,1,2.6466,"[""0.220"",""0.544"",""0.674"",""0.723""]","[1,1,1,0]",0,3,3,3,1,0,0,,,1,FALSE,,,,,,,,,,,,,,,,,,,,,,,,,,,,,,
,5faaee6c1fd1c7549e392c64,001,2022-04-29_03h07.57.689,classification_task,2021.2.3,Win32,59.69436485,5faaee6c1fd1c7549e392c64,626b377229c10585ec392f89,626b3a143b0b87247d30b262,,,,,,,,,,,,,,,,,,,,,,,a,1,2.1999,"[""0.311"",""0.363"",""0.876"",""0.615""]","[1,1,1,0]",0,4,4,4,1,0,1,,,1,FALSE,,,,,,,,,,,,,,,,,,,,,,,,,,,,,,
,5faaee6c1fd1c7549e392c64,001,2022-04-29_03h07.57.689,classification_task,2021.2.3,Win32,59.69436485,5faaee6c1fd1c7549e392c64,626b377229c10585ec392f89,626b3a143b0b87247d30b262,,,,,,,,,,,,,,,,,,,,,,,l,1,2.9783,"[""0.118"",""0.580"",""0.466"",""0.834""]","[1,0,1,1]",0,5,5,5,1,1,1,,,1,FALSE,,,,,,,,,,,,,,,,,,,,,,,,,,,,,,
,5faaee6c1fd1c7549e392c64,001,2022-04-29_03h07.57.689,classification_task,2021.2.3,Win32,59.69436485,5faaee6c1fd1c7549e392c64,626b377229c10585ec392f89,626b3a143b0b87247d30b262,,,,,,,,,,,,,,,,,,,,,,,l,0,2.0649,"[""0.709"",""0.544"",""0.674"",""0.969""]","[0,1,1,1]",0,6,6,6,1,0,0,,,1,FALSE,,,,,,,,,,,,,,,,,,,,,,,,,,,,,,
,5faaee6c1fd1c7549e392c64,001,2022-04-29_03h07.57.689,classification_task,2021.2.3,Win32,59.69436485,5faaee6c1fd1c7549e392c64,626b377229c10585ec392f89,626b3a143b0b87247d30b262,,,,,,,,,,,,,,,,,,,,,,,l,1,0.95,"[""0.058"",""0.399"",""0.610"",""0.796""]","[1,1,0,1]",0,7,7,7,1,1,0,,,1,FALSE,,,,,,,,,,,,,,,,,,,,,,,,,,,,,,
,5faaee6c1fd1c7549e392c64,001,2022-04-29_03h07.57.689,classification_task,2021.2.3,Win32,59.69436485,5faaee6c1fd1c7549e392c64,626b377229c10585ec392f89,626b3a143b0b87247d30b262,,,,,,,,,,,,,,,,,,,,,,,a,1,2.2126,"[""0.615"",""0.363"",""0.876"",""0.931""]","[0,1,1,1]",0,8,8,8,1,0,1,,,1,FALSE,,,,,,,,,,,,,,,,,,,,,,,,,,,,,,
,5faaee6c1fd1c7549e392c64,001,2022-04-29_03h07.57.689,classification_task,2021.2.3,Win32,59.69436485,5faaee6c1fd1c7549e392c64,626b377229c10585ec392f89,626b3a143b0b87247d30b262,,,,,,,,,,,,,,,,,,,,,,,l,1,2.4602,"[""0.275"",""0.399"",""0.508"",""0.796""]","[0,1,1,1]",0,9,9,9,1,1,0,,,1,FALSE,,,,,,,,,,,,,,,,,,,,,,,,,,,,,,
,5faaee6c1fd1c7549e392c64,001,2022-04-29_03h07.57.689,classification_task,2021.2.3,Win32,59.69436485,5faaee6c1fd1c7549e392c64,626b377229c10585ec392f89,626b3a143b0b87247d30b262,,,,,,,,,,,,,,,,,,,,,,,l,1,0.8421,"[""0.058"",""0.399"",""0.508"",""0.709""]","[1,1,1,0]",0,10,10,10,1,1,0,,,1,FALSE,,,,,,,,,,,,,,,,,,,,,,,,,,,,,,
,5faaee6c1fd1c7549e392c64,001,2022-04-29_03h07.57.689,classification_task,2021.2.3,Win32,59.69436485,5faaee6c1fd1c7549e392c64,626b377229c10585ec392f89,626b3a143b0b87247d30b262,,,,,,,,,,,,,,,,,,,,,,,a,1,1.9114,"[""0.311"",""0.363"",""0.717"",""0.931""]","[1,1,0,1]",0,11,11,11,1,0,1,,,1,FALSE,,,,,,,,,,,,,,,,,,,,,,,,,,,,,,
,5faaee6c1fd1c7549e392c64,001,2022-04-29_03h07.57.689,classification_task,2021.2.3,Win32,59.69436485,5faaee6c1fd1c7549e392c64,626b377229c10585ec392f89,626b3a143b0b87247d30b262,,,,,,,,,,,,,,,,,,,,,,,l,0,2.2128,"[""0.220"",""0.580"",""0.674"",""0.969""]","[1,0,1,1]",0,12,12,12,1,0,0,,,1,FALSE,,,,,,,,,,,,,,,,,,,,,,,,,,,,,,
,5faaee6c1fd1c7549e392c64,001,2022-04-29_03h07.57.689,classification_task,2021.2.3,Win32,59.69436485,5faaee6c1fd1c7549e392c64,626b377229c10585ec392f89,626b3a143b0b87247d30b262,,,,,,,,,,,,,,,,,,,,,,,a,1,3.1482,"[""0.220"",""0.544"",""0.275"",""0.969""]","[1,1,0,1]",0,13,13,13,1,0,0,,,1,FALSE,,,,,,,,,,,,,,,,,,,,,,,,,,,,,,
,5faaee6c1fd1c7549e392c64,001,2022-04-29_03h07.57.689,classification_task,2021.2.3,Win32,59.69436485,5faaee6c1fd1c7549e392c64,626b377229c10585ec392f89,626b3a143b0b87247d30b262,,,,,,,,,,,,,,,,,,,,,,,l,1,4.0316,"[""0.594"",""0.157"",""0.466"",""0.834""]","[0,1,1,1]",0,14,14,14,1,1,1,,,1,FALSE,,,,,,,,,,,,,,,,,,,,,,,,,,,,,,
,5faaee6c1fd1c7549e392c64,001,2022-04-29_03h07.57.689,classification_task,2021.2.3,Win32,59.69436485,5faaee6c1fd1c7549e392c64,626b377229c10585ec392f89,626b3a143b0b87247d30b262,,,,,,,,,,,,,,,,,,,,,,,l,1,0.9836,"[""0.058"",""0.580"",""0.508"",""0.796""]","[1,0,1,1]",0,15,15,15,1,1,0,,,1,FALSE,,,,,,,,,,,,,,,,,,,,,,,,,,,,,,
,5faaee6c1fd1c7549e392c64,001,2022-04-29_03h07.57.689,classification_task,2021.2.3,Win32,59.69436485,5faaee6c1fd1c7549e392c64,626b377229c10585ec392f89,626b3a143b0b87247d30b262,,,,,,,,,,,,,,,,,,,,,,,l,0,3.4574,"[""0.709"",""0.544"",""0.674"",""0.969""]","[0,1,1,1]",0,16,16,16,1,0,0,,,1,FALSE,,,,,,,,,,,,,,,,,,,,,,,,,,,,,,
,5faaee6c1fd1c7549e392c64,001,2022-04-29_03h07.57.689,classification_task,2021.2.3,Win32,59.69436485,5faaee6c1fd1c7549e392c64,626b377229c10585ec392f89,626b3a143b0b87247d30b262,,,,,,,,,,,,,,,,,,,,,,,a,1,2.4067,"[""0.723"",""0.363"",""0.876"",""0.931""]","[0,1,1,1]",0,17,17,17,1,0,1,,,1,FALSE,,,,,,,,,,,,,,,,,,,,,,,,,,,,,,
,5faaee6c1fd1c7549e392c64,001,2022-04-29_03h07.57.689,classification_task,2021.2.3,Win32,59.69436485,5faaee6c1fd1c7549e392c64,626b377229c10585ec392f89,626b3a143b0b87247d30b262,,,,,,,,,,,,,,,,,,,,,,,a,1,1.5036,"[""0.220"",""0.544"",""0.674"",""0.262""]","[1,1,1,0]",0,18,18,18,1,0,0,,,1,FALSE,,,,,,,,,,,,,,,,,,,,,,,,,,,,,,
,5faaee6c1fd1c7549e392c64,001,2022-04-29_03h07.57.689,classification_task,2021.2.3,Win32,59.69436485,5faaee6c1fd1c7549e392c64,626b377229c10585ec392f89,626b3a143b0b87247d30b262,,,,,,,,,,,,,,,,,,,,,,,l,1,1.0179,"[""0.058"",""0.399"",""0.508"",""0.717""]","[1,1,1,0]",0,19,19,19,1,1,0,,,1,FALSE,,,,,,,,,,,,,,,,,,,,,,,,,,,,,,
,5faaee6c1fd1c7549e392c64,001,2022-04-29_03h07.57.689,classification_task,2021.2.3,Win32,59.69436485,5faaee6c1fd1c7549e392c64,626b377229c10585ec392f89,626b3a143b0b87247d30b262,,,,,,,,,,,,,,,,,,,,,,,l,1,0.6411,"[""0.058"",""0.399"",""0.275"",""0.796""]","[1,1,0,1]",0,20,20,20,1,1,0,,,1,FALSE,,,,,,,,,,,,,,,,,,,,,,,,,,,,,,
,5faaee6c1fd1c7549e392c64,001,2022-04-29_03h07.57.689,classification_task,2021.2.3,Win32,59.69436485,5faaee6c1fd1c7549e392c64,626b377229c10585ec392f89,626b3a143b0b87247d30b262,,,,,,,,,,,,,,,,,,,,,,,l,1,3.6284,"[""0.709"",""0.399"",""0.508"",""0.796""]","[0,1,1,1]",0,21,21,21,1,1,0,,,1,FALSE,,,,,,,,,,,,,,,,,,,,,,,,,,,,,,
,5faaee6c1fd1c7549e392c64,001,2022-04-29_03h07.57.689,classification_task,2021.2.3,Win32,59.69436485,5faaee6c1fd1c7549e392c64,626b377229c10585ec392f89,626b3a143b0b87247d30b262,,,,,,,,,,,,,,,,,,,,,,,a,1,1.2652,"[""0.311"",""0.363"",""0.716"",""0.931""]","[1,1,0,1]",0,22,22,22,1,0,1,,,1,FALSE,,,,,,,,,,,,,,,,,,,,,,,,,,,,,,
,5faaee6c1fd1c7549e392c64,001,2022-04-29_03h07.57.689,classification_task,2021.2.3,Win32,59.69436485,5faaee6c1fd1c7549e392c64,626b377229c10585ec392f89,626b3a143b0b87247d30b262,,,,,,,,,,,,,,,,,,,,,,,a,1,1.6621,"[""0.311"",""0.594"",""0.876"",""0.931""]","[1,0,1,1]",0,23,23,23,1,0,1,,,1,FALSE,,,,,,,,,,,,,,,,,,,,,,,,,,,,,,
,5faaee6c1fd1c7549e392c64,001,2022-04-29_03h07.57.689,classification_task,2021.2.3,Win32,59.69436485,5faaee6c1fd1c7549e392c64,626b377229c10585ec392f89,626b3a143b0b87247d30b262,,,,,,,,,,,,,,,,,,,,,,,l,1,2.1931,"[""0.118"",""0.610"",""0.466"",""0.834""]","[1,0,1,1]",0,24,24,24,1,1,1,,,1,FALSE,,,,,,,,,,,,,,,,,,,,,,,,,,,,,,
,5faaee6c1fd1c7549e392c64,001,2022-04-29_03h07.57.689,classification_task,2021.2.3,Win32,59.69436485,5faaee6c1fd1c7549e392c64,626b377229c10585ec392f89,626b3a143b0b87247d30b262,,,,,,,,,,,,,,,,,,,,,,,a,1,1.4347,"[""0.311"",""0.363"",""0.876"",""0.610""]","[1,1,1,0]",0,25,25,25,1,0,1,,,1,FALSE,,,,,,,,,,,,,,,,,,,,,,,,,,,,,,
,5faaee6c1fd1c7549e392c64,001,2022-04-29_03h07.57.689,classification_task,2021.2.3,Win32,59.69436485,5faaee6c1fd1c7549e392c64,626b377229c10585ec392f89,626b3a143b0b87247d30b262,,,,,,,,,,,,,,,,,,,,,,,a,1,1.7018,"[""0.220"",""0.274"",""0.674"",""0.969""]","[1,0,1,1]",0,26,26,26,1,0,0,,,1,FALSE,,,,,,,,,,,,,,,,,,,,,,,,,,,,,,
,5faaee6c1fd1c7549e392c64,001,2022-04-29_03h07.57.689,classification_task,2021.2.3,Win32,59.69436485,5faaee6c1fd1c7549e392c64,626b377229c10585ec392f89,626b3a143b0b87247d30b262,,,,,,,,,,,,,,,,,,,,,,,l,1,1.6594,"[""0.709"",""0.157"",""0.466"",""0.834""]","[0,1,1,1]",0,27,27,27,1,1,1,,,1,FALSE,,,,,,,,,,,,,,,,,,,,,,,,,,,,,,
,5faaee6c1fd1c7549e392c64,001,2022-04-29_03h07.57.689,classification_task,2021.2.3,Win32,59.69436485,5faaee6c1fd1c7549e392c64,626b377229c10585ec392f89,626b3a143b0b87247d30b262,,,,,,,,,,,,,,,,,,,,,,,l,1,0.7712,"[""0.058"",""0.262"",""0.508"",""0.796""]","[1,0,1,1]",0,28,28,28,1,1,0,,,1,FALSE,,,,,,,,,,,,,,,,,,,,,,,,,,,,,,
,5faaee6c1fd1c7549e392c64,001,2022-04-29_03h07.57.689,classification_task,2021.2.3,Win32,59.69436485,5faaee6c1fd1c7549e392c64,626b377229c10585ec392f89,626b3a143b0b87247d30b262,,,,,,,,,,,,,,,,,,,,,,,l,1,1.7852,"[""0.118"",""0.157"",""0.466"",""0.618""]","[1,1,1,0]",0,29,29,29,1,1,1,,,1,FALSE,,,,,,,,,,,,,,,,,,,,,,,,,,,,,,
,5faaee6c1fd1c7549e392c64,001,2022-04-29_03h07.57.689,classification_task,2021.2.3,Win32,59.69436485,5faaee6c1fd1c7549e392c64,626b377229c10585ec392f89,626b3a143b0b87247d30b262,,,,,,,,,,,,,,,,,,,,,,,l,0,3.4764,"[""0.220"",""0.544"",""0.618"",""0.969""]","[1,1,0,1]",0,30,30,30,1,0,0,,,1,FALSE,,,,,,,,,,,,,,,,,,,,,,,,,,,,,,
,5faaee6c1fd1c7549e392c64,001,2022-04-29_03h07.57.689,classification_task,2021.2.3,Win32,59.69436485,5faaee6c1fd1c7549e392c64,626b377229c10585ec392f89,626b3a143b0b87247d30b262,,,,,,,,,,,,,,,,,,,,,,,a,0,0.8221,"[""0.118"",""0.157"",""0.749"",""0.834""]","[1,1,0,1]",0,31,31,31,1,1,1,,,1,FALSE,,,,,,,,,,,,,,,,,,,,,,,,,,,,,,
,5faaee6c1fd1c7549e392c64,001,2022-04-29_03h07.57.689,classification_task,2021.2.3,Win32,59.69436485,5faaee6c1fd1c7549e392c64,626b377229c10585ec392f89,626b3a143b0b87247d30b262,,,,,,,,,,,,,,,,,,,,,,,a,1,2.1431,"[""0.220"",""0.544"",""0.580"",""0.969""]","[1,1,0,1]",0,32,32,32,1,0,0,,,1,FALSE,,,,,,,,,,,,,,,,,,,,,,,,,,,,,,
,5faaee6c1fd1c7549e392c64,001,2022-04-29_03h07.57.689,classification_task,2021.2.3,Win32,59.69436485,5faaee6c1fd1c7549e392c64,626b377229c10585ec392f89,626b3a143b0b87247d30b262,,,,,,,,,,,,,,,,,,,,,,,a,1,1.3019,"[""0.311"",""0.363"",""0.270"",""0.931""]","[1,1,0,1]",0,33,33,33,1,0,1,,,1,FALSE,,,,,,,,,,,,,,,,,,,,,,,,,,,,,,
,5faaee6c1fd1c7549e392c64,001,2022-04-29_03h07.57.689,classification_task,2021.2.3,Win32,59.69436485,5faaee6c1fd1c7549e392c64,626b377229c10585ec392f89,626b3a143b0b87247d30b262,,,,,,,,,,,,,,,,,,,,,,,l,0,3.1701,"[""0.220"",""0.723"",""0.674"",""0.969""]","[1,0,1,1]",0,34,34,34,1,0,0,,,1,FALSE,,,,,,,,,,,,,,,,,,,,,,,,,,,,,,
,5faaee6c1fd1c7549e392c64,001,2022-04-29_03h07.57.689,classification_task,2021.2.3,Win32,59.69436485,5faaee6c1fd1c7549e392c64,626b377229c10585ec392f89,626b3a143b0b87247d30b262,,,,,,,,,,,,,,,,,,,,,,,a,0,1.1138,"[""0.118"",""0.580"",""0.466"",""0.834""]","[1,0,1,1]",0,35,35,35,1,1,1,,,1,FALSE,,,,,,,,,,,,,,,,,,,,,,,,,,,,,,
,5faaee6c1fd1c7549e392c64,001,2022-04-29_03h07.57.689,classification_task,2021.2.3,Win32,59.69436485,5faaee6c1fd1c7549e392c64,626b377229c10585ec392f89,626b3a143b0b87247d30b262,,,,,,,,,,,,,,,,,,,,,,,l,1,1.9281,"[""0.118"",""0.157"",""0.466"",""0.594""]","[1,1,1,0]",0,36,36,36,1,1,1,,,1,FALSE,,,,,,,,,,,,,,,,,,,,,,,,,,,,,,
,5faaee6c1fd1c7549e392c64,001,2022-04-29_03h07.57.689,classification_task,2021.2.3,Win32,59.69436485,5faaee6c1fd1c7549e392c64,626b377229c10585ec392f89,626b3a143b0b87247d30b262,,,,,,,,,,,,,,,,,,,,,,,l,1,1.0385,"[""0.058"",""0.270"",""0.508"",""0.796""]","[1,0,1,1]",0,37,37,37,1,1,0,,,1,FALSE,,,,,,,,,,,,,,,,,,,,,,,,,,,,,,
,5faaee6c1fd1c7549e392c64,001,2022-04-29_03h07.57.689,classification_task,2021.2.3,Win32,59.69436485,5faaee6c1fd1c7549e392c64,626b377229c10585ec392f89,626b3a143b0b87247d30b262,,,,,,,,,,,,,,,,,,,,,,,a,0,1.376,"[""0.262"",""0.157"",""0.466"",""0.834""]","[0,1,1,1]",0,38,38,38,1,1,1,,,1,FALSE,,,,,,,,,,,,,,,,,,,,,,,,,,,,,,
,5faaee6c1fd1c7549e392c64,001,2022-04-29_03h07.57.689,classification_task,2021.2.3,Win32,59.69436485,5faaee6c1fd1c7549e392c64,626b377229c10585ec392f89,626b3a143b0b87247d30b262,,,,,,,,,,,,,,,,,,,,,,,l,1,1.2595,"[""0.717"",""0.399"",""0.508"",""0.796""]","[0,1,1,1]",0,39,39,39,1,1,0,,,1,FALSE,,,,,,,,,,,,,,,,,,,,,,,,,,,,,,
,5faaee6c1fd1c7549e392c64,001,2022-04-29_03h07.57.689,classification_task,2021.2.3,Win32,59.69436485,5faaee6c1fd1c7549e392c64,626b377229c10585ec392f89,626b3a143b0b87247d30b262,,,,,,,,,,,,,,,,,,,,,,,l,1,0.8733,"[""0.118"",""0.157"",""0.717"",""0.834""]","[1,1,0,1]",0,40,40,40,1,1,1,,,1,FALSE,,,,,,,,,,,,,,,,,,,,,,,,,,,,,,
,5faaee6c1fd1c7549e392c64,001,2022-04-29_03h07.57.689,classification_task,2021.2.3,Win32,59.69436485,5faaee6c1fd1c7549e392c64,626b377229c10585ec392f89,626b3a143b0b87247d30b262,,,,,,,,,,,,,,,,,,,,,,,a,1,1.3852,"[""0.274"",""0.544"",""0.674"",""0.969""]","[0,1,1,1]",0,41,41,41,1,0,0,,,1,FALSE,,,,,,,,,,,,,,,,,,,,,,,,,,,,,,
,5faaee6c1fd1c7549e392c64,001,2022-04-29_03h07.57.689,classification_task,2021.2.3,Win32,59.69436485,5faaee6c1fd1c7549e392c64,626b377229c10585ec392f89,626b3a143b0b87247d30b262,,,,,,,,,,,,,,,,,,,,,,,a,1,0.9159,"[""0.311"",""0.363"",""0.876"",""0.757""]","[1,1,1,0]",0,42,42,42,1,0,1,,,1,FALSE,,,,,,,,,,,,,,,,,,,,,,,,,,,,,,
,5faaee6c1fd1c7549e392c64,001,2022-04-29_03h07.57.689,classification_task,2021.2.3,Win32,59.69436485,5faaee6c1fd1c7549e392c64,626b377229c10585ec392f89,626b3a143b0b87247d30b262,,,,,,,,,,,,,,,,,,,,,,,l,0,1.3454,"[""0.311"",""0.709"",""0.876"",""0.931""]","[1,0,1,1]",0,43,43,43,1,0,1,,,1,FALSE,,,,,,,,,,,,,,,,,,,,,,,,,,,,,,
,5faaee6c1fd1c7549e392c64,001,2022-04-29_03h07.57.689,classification_task,2021.2.3,Win32,59.69436485,5faaee6c1fd1c7549e392c64,626b377229c10585ec392f89,626b3a143b0b87247d30b262,,,,,,,,,,,,,,,,,,,,,,,a,1,1.5623,"[""0.615"",""0.363"",""0.876"",""0.931""]","[0,1,1,1]",0,44,44,44,1,0,1,,,1,FALSE,,,,,,,,,,,,,,,,,,,,,,,,,,,,,,
,5faaee6c1fd1c7549e392c64,001,2022-04-29_03h07.57.689,classification_task,2021.2.3,Win32,59.69436485,5faaee6c1fd1c7549e392c64,626b377229c10585ec392f89,626b3a143b0b87247d30b262,,,,,,,,,,,,,,,,,,,,,,,a,1,1.479,"[""0.220"",""0.544"",""0.674"",""0.270""]","[1,1,1,0]",0,45,45,45,1,0,0,,,1,FALSE,,,,,,,,,,,,,,,,,,,,,,,,,,,,,,
,5faaee6c1fd1c7549e392c64,001,2022-04-29_03h07.57.689,classification_task,2021.2.3,Win32,59.69436485,5faaee6c1fd1c7549e392c64,626b377229c10585ec392f89,626b3a143b0b87247d30b262,,,,,,,,,,,,,,,,,,,,,,,l,1,0.966,"[""0.058"",""0.399"",""0.610"",""0.796""]","[1,1,0,1]",0,46,46,46,1,1,0,,,1,FALSE,,,,,,,,,,,,,,,,,,,,,,,,,,,,,,
,5faaee6c1fd1c7549e392c64,001,2022-04-29_03h07.57.689,classification_task,2021.2.3,Win32,59.69436485,5faaee6c1fd1c7549e392c64,626b377229c10585ec392f89,626b3a143b0b87247d30b262,,,,,,,,,,,,,,,,,,,,,,,l,1,0.7375,"[""0.058"",""0.399"",""0.508"",""0.709""]","[1,1,1,0]",0,47,47,47,1,1,0,,,1,FALSE,,,,,,,,,,,,,,,,,,,,,,,,,,,,,,
,5faaee6c1fd1c7549e392c64,001,2022-04-29_03h07.57.689,classification_task,2021.2.3,Win32,59.69436485,5faaee6c1fd1c7549e392c64,626b377229c10585ec392f89,626b3a143b0b87247d30b262,,,,,,,,,,,,,,,,,,,,,,,a,1,1.7623,"[""0.717"",""0.544"",""0.674"",""0.969""]","[0,1,1,1]",0,48,48,48,1,0,0,,,1,FALSE,,,,,,,,,,,,,,,,,,,,,,,,,,,,,,
,5faaee6c1fd1c7549e392c64,001,2022-04-29_03h07.57.689,classification_task,2021.2.3,Win32,59.69436485,5faaee6c1fd1c7549e392c64,626b377229c10585ec392f89,626b3a143b0b87247d30b262,,,,,,,,,,,,,,,,,,,,,,,l,0,1.1798,"[""0.220"",""0.599"",""0.674"",""0.969""]","[1,0,1,1]",0,49,49,49,1,0,0,,,1,FALSE,,,,,,,,,,,,,,,,,,,,,,,,,,,,,,
,5faaee6c1fd1c7549e392c64,001,2022-04-29_03h07.57.689,classification_task,2021.2.3,Win32,59.69436485,5faaee6c1fd1c7549e392c64,626b377229c10585ec392f89,626b3a143b0b87247d30b262,,,,,,,,,,,,,,,,,,,,,,,l,1,1.049,"[""0.118"",""0.610"",""0.466"",""0.834""]","[1,0,1,1]",0,50,50,50,1,1,1,,,1,FALSE,,,,,,,,,,,,,,,,,,,,,,,,,,,,,,
,5faaee6c1fd1c7549e392c64,001,2022-04-29_03h07.57.689,classification_task,2021.2.3,Win32,59.69436485,5faaee6c1fd1c7549e392c64,626b377229c10585ec392f89,626b3a143b0b87247d30b262,,,,,,,,,,,,,,,,,,,,,,,l,0,0.966,"[""0.311"",""0.363"",""0.757"",""0.931""]","[1,1,0,1]",0,51,51,51,1,0,1,,,1,FALSE,,,,,,,,,,,,,,,,,,,,,,,,,,,,,,
,5faaee6c1fd1c7549e392c64,001,2022-04-29_03h07.57.689,classification_task,2021.2.3,Win32,59.69436485,5faaee6c1fd1c7549e392c64,626b377229c10585ec392f89,626b3a143b0b87247d30b262,,,,,,,,,,,,,,,,,,,,,,,l,1,0.9533,"[""0.118"",""0.157"",""0.270"",""0.834""]","[1,1,0,1]",0,52,52,52,1,1,1,,,1,FALSE,,,,,,,,,,,,,,,,,,,,,,,,,,,,,,
,5faaee6c1fd1c7549e392c64,001,2022-04-29_03h07.57.689,classification_task,2021.2.3,Win32,59.69436485,5faaee6c1fd1c7549e392c64,626b377229c10585ec392f89,626b3a143b0b87247d30b262,,,,,,,,,,,,,,,,,,,,,,,l,1,0.7394,"[""0.058"",""0.399"",""0.275"",""0.796""]","[1,1,0,1]",0,53,53,53,1,1,0,,,1,FALSE,,,,,,,,,,,,,,,,,,,,,,,,,,,,,,
,5faaee6c1fd1c7549e392c64,001,2022-04-29_03h07.57.689,classification_task,2021.2.3,Win32,59.69436485,5faaee6c1fd1c7549e392c64,626b377229c10585ec392f89,626b3a143b0b87247d30b262,,,,,,,,,,,,,,,,,,,,,,,l,1,0.7448,"[""0.058"",""0.615"",""0.508"",""0.796""]","[1,0,1,1]",0,54,54,54,1,1,0,,,1,FALSE,,,,,,,,,,,,,,,,,,,,,,,,,,,,,,
,5faaee6c1fd1c7549e392c64,001,2022-04-29_03h07.57.689,classification_task,2021.2.3,Win32,59.69436485,5faaee6c1fd1c7549e392c64,626b377229c10585ec392f89,626b3a143b0b87247d30b262,,,,,,,,,,,,,,,,,,,,,,,a,0,1.9813,"[""0.262"",""0.157"",""0.466"",""0.834""]","[0,1,1,1]",0,55,55,55,1,1,1,,,1,FALSE,,,,,,,,,,,,,,,,,,,,,,,,,,,,,,
,5faaee6c1fd1c7549e392c64,001,2022-04-29_03h07.57.689,classification_task,2021.2.3,Win32,59.69436485,5faaee6c1fd1c7549e392c64,626b377229c10585ec392f89,626b3a143b0b87247d30b262,,,,,,,,,,,,,,,,,,,,,,,l,0,1.2455,"[""0.220"",""0.544"",""0.674"",""0.618""]","[1,1,1,0]",0,56,56,56,1,0,0,,,1,FALSE,,,,,,,,,,,,,,,,,,,,,,,,,,,,,,
,5faaee6c1fd1c7549e392c64,001,2022-04-29_03h07.57.689,classification_task,2021.2.3,Win32,59.69436485,5faaee6c1fd1c7549e392c64,626b377229c10585ec392f89,626b3a143b0b87247d30b262,,,,,,,,,,,,,,,,,,,,,,,l,0,1.2414,"[""0.311"",""0.580"",""0.876"",""0.931""]","[1,0,1,1]",0,57,57,57,1,0,1,,,1,FALSE,,,,,,,,,,,,,,,,,,,,,,,,,,,,,,
,5faaee6c1fd1c7549e392c64,001,2022-04-29_03h07.57.689,classification_task,2021.2.3,Win32,59.69436485,5faaee6c1fd1c7549e392c64,626b377229c10585ec392f89,626b3a143b0b87247d30b262,,,,,,,,,,,,,,,,,,,,,,,l,0,0.9609,"[""0.311"",""0.363"",""0.876"",""0.599""]","[1,1,1,0]",0,58,58,58,1,0,1,,,1,FALSE,,,,,,,,,,,,,,,,,,,,,,,,,,,,,,
,5faaee6c1fd1c7549e392c64,001,2022-04-29_03h07.57.689,classification_task,2021.2.3,Win32,59.69436485,5faaee6c1fd1c7549e392c64,626b377229c10585ec392f89,626b3a143b0b87247d30b262,,,,,,,,,,,,,,,,,,,,,,,l,1,0.8923,"[""0.058"",""0.399"",""0.508"",""0.275""]","[1,1,1,0]",0,59,59,59,1,1,0,,,1,FALSE,,,,,,,,,,,,,,,,,,,,,,,,,,,,,,
,5faaee6c1fd1c7549e392c64,001,2022-04-29_03h07.57.689,classification_task,2021.2.3,Win32,59.69436485,5faaee6c1fd1c7549e392c64,626b377229c10585ec392f89,626b3a143b0b87247d30b262,,,,,,,,,,,,,,,,,,,,,,,a,1,1.0365,"[""0.220"",""0.544"",""0.274"",""0.969""]","[1,1,0,1]",0,60,60,60,1,0,0,,,1,FALSE,,,,,,,,,,,,,,,,,,,,,,,,,,,,,,
,5faaee6c1fd1c7549e392c64,001,2022-04-29_03h07.57.689,classification_task,2021.2.3,Win32,59.69436485,5faaee6c1fd1c7549e392c64,626b377229c10585ec392f89,626b3a143b0b87247d30b262,,,,,,,,,,,,,,,,,,,,,,,a,1,2.4803,"[""0.749"",""0.363"",""0.876"",""0.931""]","[0,1,1,1]",0,61,61,61,1,0,1,,,1,FALSE,,,,,,,,,,,,,,,,,,,,,,,,,,,,,,
,5faaee6c1fd1c7549e392c64,001,2022-04-29_03h07.57.689,classification_task,2021.2.3,Win32,59.69436485,5faaee6c1fd1c7549e392c64,626b377229c10585ec392f89,626b3a143b0b87247d30b262,,,,,,,,,,,,,,,,,,,,,,,a,0,1.5361,"[""0.270"",""0.399"",""0.508"",""0.796""]","[0,1,1,1]",0,62,62,62,1,1,0,,,1,FALSE,,,,,,,,,,,,,,,,,,,,,,,,,,,,,,
,5faaee6c1fd1c7549e392c64,001,2022-04-29_03h07.57.689,classification_task,2021.2.3,Win32,59.69436485,5faaee6c1fd1c7549e392c64,626b377229c10585ec392f89,626b3a143b0b87247d30b262,,,,,,,,,,,,,,,,,,,,,,,a,0,1.0269,"[""0.118"",""0.157"",""0.466"",""0.757""]","[1,1,1,0]",0,63,63,63,1,1,1,,,1,FALSE,,,,,,,,,,,,,,,,,,,,,,,,,,,,,,
,5faaee6c1fd1c7549e392c64,001,2022-04-29_03h07.57.689,classification_task,2021.2.3,Win32,59.69436485,5faaee6c1fd1c7549e392c64,626b377229c10585ec392f89,626b3a143b0b87247d30b262,,,,,,,,,,,,,,,,,,,,,,,,,,,,,,,,,,,,,,,0, ,,0,6.9106408,188.8559,0,2,2,2,1,2,3,,,,,,,,,,,,,,,,,
,5faaee6c1fd1c7549e392c64,001,2022-04-29_03h07.57.689,classification_task,2021.2.3,Win32,59.69436485,5faaee6c1fd1c7549e392c64,626b377229c10585ec392f89,626b3a143b0b87247d30b262,,,,,,,,,,,,,,,,,,,,,,,,,,,,,,,,,,,,,,,1,  ,,0,4.730550656,190.0852,0,2,2,2,1,2,3,,,,,,,,,,,,,,,,,
,5faaee6c1fd1c7549e392c64,001,2022-04-29_03h07.57.689,classification_task,2021.2.3,Win32,59.69436485,5faaee6c1fd1c7549e392c64,626b377229c10585ec392f89,626b3a143b0b87247d30b262,,,,,,,,,,,,,,,,,,,,,,,,,,,,,,,,,,,,,,,2,  ,,0,7.155594748,191.3255,0,2,2,2,1,2,3,,,,,,,,,,,,,,,,,
,5faaee6c1fd1c7549e392c64,001,2022-04-29_03h07.57.689,classification_task,2021.2.3,Win32,59.69436485,5faaee6c1fd1c7549e392c64,626b377229c10585ec392f89,626b3a143b0b87247d30b262,,,,,,,,,,,,,,,,,,,,,,,,,,,,,,,,,,,,,,,,,,,,,0,2,2,2,1,,3,,,,,,,,,,,,,,,,,
,5faaee6c1fd1c7549e392c64,001,2022-04-29_03h07.57.689,classification_task,2021.2.3,Win32,59.69436485,5faaee6c1fd1c7549e392c64,626b377229c10585ec392f89,626b3a143b0b87247d30b262,,,,,,,,,,,,,,,,,,,,,,,,,,,,,,,,,,,,,,,,,,,,,,,,,,,,,I believe the aid is a competent performer,,0.7,0,3,991.3085,0,0,0,0,1,0,,,,
,5faaee6c1fd1c7549e392c64,001,2022-04-29_03h07.57.689,classification_task,2021.2.3,Win32,59.69436485,5faaee6c1fd1c7549e392c64,626b377229c10585ec392f89,626b3a143b0b87247d30b262,,,,,,,,,,,,,,,,,,,,,,,,,,,,,,,,,,,,,,,,,,,,,,,,,,,,,I trust the aid,,0.7,0,4,989.4844,0,0,0,0,1,0,,,,
,5faaee6c1fd1c7549e392c64,001,2022-04-29_03h07.57.689,classification_task,2021.2.3,Win32,59.69436485,5faaee6c1fd1c7549e392c64,626b377229c10585ec392f89,626b3a143b0b87247d30b262,,,,,,,,,,,,,,,,,,,,,,,,,,,,,,,,,,,,,,,,,,,,,,,,,,,,,I have confidence in the advice given by the aid,,0.7,0,4,994.645,0,0,0,0,1,0,,,,
,5faaee6c1fd1c7549e392c64,001,2022-04-29_03h07.57.689,classification_task,2021.2.3,Win32,59.69436485,5faaee6c1fd1c7549e392c64,626b377229c10585ec392f89,626b3a143b0b87247d30b262,,,,,,,,,,,,,,,,,,,,,,,,,,,,,,,,,,,,,,,,,,,,,,,,,,,,,I can depend on the aid,,0.7,0,2,1008.8304,0,0,0,0,1,0,,,,
,5faaee6c1fd1c7549e392c64,001,2022-04-29_03h07.57.689,classification_task,2021.2.3,Win32,59.69436485,5faaee6c1fd1c7549e392c64,626b377229c10585ec392f89,626b3a143b0b87247d30b262,,,,,,,,,,,,,,,,,,,,,,,,,,,,,,,,,,,,,,,,,,,,,,,,,,,,,I can rely on the aid to behave in consistent ways,,0.7,0,3,1007.4494,0,0,0,0,1,0,,,,
,5faaee6c1fd1c7549e392c64,001,2022-04-29_03h07.57.689,classification_task,2021.2.3,Win32,59.69436485,5faaee6c1fd1c7549e392c64,626b377229c10585ec392f89,626b3a143b0b87247d30b262,,,,,,,,,,,,,,,,,,,,,,,,,,,,,,,,,,,,,,,,,,,,,,,,,,,,,I can rely on the aid to do its best every time I take its advice,,0.7,0,4,1039.4437,0,0,0,0,1,0,,,,
,5faaee6c1fd1c7549e392c64,001,2022-04-29_03h07.57.689,classification_task,2021.2.3,Win32,59.69436485,5faaee6c1fd1c7549e392c64,626b377229c10585ec392f89,626b3a143b0b87247d30b262,,,,,,,,,,,,,,,,,,,,,,,,,,,,,,,,,,,,,,,,,,,,,,,,,,,,,"On trials you completed with assistance from the aid, how frequently did you think the aid was correct?",,0.7,0,80,,0,0,0,0,1,0,,,,
,5faaee6c1fd1c7549e392c64,001,2022-04-29_03h07.57.689,classification_task,2021.2.3,Win32,59.69436485,5faaee6c1fd1c7549e392c64,626b377229c10585ec392f89,626b3a143b0b87247d30b262,,,,,,,,,,,,,,,,,,,,,,,,,,,,,,,,,,,,,,,,,,,,,,,,,,,,,"On trials you completed without the aid, how frequently did you think you were correct?",,0.7,0,40,,0,0,0,0,1,0,,,,
,5faaee6c1fd1c7549e392c64,001,2022-04-29_03h07.57.689,classification_task,2021.2.3,Win32,59.69436485,5faaee6c1fd1c7549e392c64,626b377229c10585ec392f89,626b3a143b0b87247d30b262,,,,,,,,,,,,,,,,,,,,,,,,,,,,,,,,,,,,,,,,,,,,,,,,,,,,,,,,,,,0,0,0,0,1,,,,,
,5faaee6c1fd1c7549e392c64,001,2022-04-29_03h07.57.689,classification_task,2021.2.3,Win32,59.69436485,5faaee6c1fd1c7549e392c64,626b377229c10585ec392f89,626b3a143b0b87247d30b262,,,,,,,,,,,,,,,,,,,,,,,,,,,,,,,,,,,,,,,,,,,,,,,,,,,,,,,,,,,,,,,,,space,11.4971,1051.8063,
,5faaee6c1fd1c7549e392c64,001,2022-04-29_03h07.57.689,classification_task,2021.2.3,Win32,59.69436485,5faaee6c1fd1c7549e392c64,626b377229c10585ec392f89,626b3a143b0b87247d30b262,,,,,,,,,,,,,,,,,,,,,,,,,,,,,,,,,,,,,,,,,,,,,,,,,,,,,,,,,,,,,,,,,,,,"Mozilla/5.0 (Windows NT 10.0; Win64; x64) AppleWebKit/537.36 (KHTML, like Gecko) Chrome/100.0.4896.127 Safari/537.36"
