usingWebGL,participant,session,date,expName,psychopyVersion,OS,frameRate,study_id,signatures_friend,signatures_foe,band_ranges_top,band_ranges_bottom,formitemText,formtype,formundefined,formitemWidth,formindex,formresponse,formrt,key_resp_2.keys,key_resp_2.rt,tute_resp.keys,tute_resp.rt,tutorial.thisRepN,tutorial.thisTrialN,tutorial.thisN,tutorial.thisIndex,tutorial.ran,key_resp_4.keys,key_resp_4.rt,key_resp.keys,key_resp.corr,key_resp.rt,lines_presented,is_signal_presented,trials.thisRepN,trials.thisTrialN,trials.thisN,trials.thisIndex,trials.ran,vessel,active_band,lines,is_signal,supported_pos,catch_trial,debrief_formindex,debrief_formitemText,debrief_formtype,debrief_formitemWidth,debrief_formresponse,debrief_formrt,phases.thisRepN,phases.thisTrialN,phases.thisN,phases.thisIndex,phases.ran,phases.order,phase,key_resp_3.keys,trustitemText,trusttype,trustitemWidth,trustindex,trustresponse,trustrt,support_status.thisRepN,support_status.thisTrialN,support_status.thisN,support_status.thisIndex,support_status.ran,support_status.order,key_resp_5.keys,key_resp_5.rt,globalClockTime,userAgent,manualCondition
TRUE,5fb975626117db7f817aec36,627c700a7929ddf571594b9f,2022-05-11_22h25.34.012,classification_task,2021.2.3,Win32,143.472023,627c6715c52fd12f31907bd0,,,,,,,,,,,,,,,,,,,,,,,,,,,,,,,,,,,,,,,,,,,,,,,,,,,,,,,,,,,,,,,,,,,,,
,5fb975626117db7f817aec36,627c700a7929ddf571594b9f,2022-05-11_22h25.34.012,classification_task,2021.2.3,Win32,143.472023,627c6715c52fd12f31907bd0,"[[""0.234"",""0.328"",""0.879"",""0.962""],[""0.269"",""0.451"",""0.586"",""0.914""]]","[[""0.047"",""0.397"",""0.534"",""0.755""],[""0.147"",""0.192"",""0.622"",""0.825""]]","[1,10]","[100,1000]",Video game experience,,,0.7,0,,,,,,,,,,,,,,,,,,,,,,,,,,,,,,,,,,,,,,,,,,,,,,,,,,,,,,,,,,,,
,5fb975626117db7f817aec36,627c700a7929ddf571594b9f,2022-05-11_22h25.34.012,classification_task,2021.2.3,Win32,143.472023,627c6715c52fd12f31907bd0,,,,,Approximately how many hours did you spend playing video games in the last week?,,,0.7,0,20,,,,,,,,,,,,,,,,,,,,,,,,,,,,,,,,,,,,,,,,,,,,,,,,,,,,,,,,,,,
,5fb975626117db7f817aec36,627c700a7929ddf571594b9f,2022-05-11_22h25.34.012,classification_task,2021.2.3,Win32,143.472023,627c6715c52fd12f31907bd0,,,,,"Which game did you play the most this year? (Enter ""None"" if you didn't play any)",,,0.7,0,elden ring,,,,,,,,,,,,,,,,,,,,,,,,,,,,,,,,,,,,,,,,,,,,,,,,,,,,,,,,,,,
,5fb975626117db7f817aec36,627c700a7929ddf571594b9f,2022-05-11_22h25.34.012,classification_task,2021.2.3,Win32,143.472023,627c6715c52fd12f31907bd0,,,,,Visual perception,,,0.7,0,,,,,,,,,,,,,,,,,,,,,,,,,,,,,,,,,,,,,,,,,,,,,,,,,,,,,,,,,,,,
,5fb975626117db7f817aec36,627c700a7929ddf571594b9f,2022-05-11_22h25.34.012,classification_task,2021.2.3,Win32,143.472023,627c6715c52fd12f31907bd0,,,,,Do you have any form of color blindness?,,,0.7,0,No,16.8176,,,,,,,,,,,,,,,,,,,,,,,,,,,,,,,,,,,,,,,,,,,,,,,,,,,,,,,,,,
,5fb975626117db7f817aec36,627c700a7929ddf571594b9f,2022-05-11_22h25.34.012,classification_task,2021.2.3,Win32,143.472023,627c6715c52fd12f31907bd0,,,,,Do you use software to change the colour temperature of your screen (e.g. f.lux)?,,,0.7,0,Yes,21.468,,,,,,,,,,,,,,,,,,,,,,,,,,,,,,,,,,,,,,,,,,,,,,,,,,,,,,,,,,
,5fb975626117db7f817aec36,627c700a7929ddf571594b9f,2022-05-11_22h25.34.012,classification_task,2021.2.3,Win32,143.472023,627c6715c52fd12f31907bd0,,,,,,,,,,,,space,28.883,space,7.8875,0,0,0,0,1,,,,,,,,,,,,,,,,,,,,,,,,,,,,,,,,,,,,,,,,,,,,,,,,,
,5fb975626117db7f817aec36,627c700a7929ddf571594b9f,2022-05-11_22h25.34.012,classification_task,2021.2.3,Win32,143.472023,627c6715c52fd12f31907bd0,,,,,,,,,,,,,,space,8.6937,1,0,1,0,1,,,,,,,,,,,,,,,,,,,,,,,,,,,,,,,,,,,,,,,,,,,,,,,,,
,5fb975626117db7f817aec36,627c700a7929ddf571594b9f,2022-05-11_22h25.34.012,classification_task,2021.2.3,Win32,143.472023,627c6715c52fd12f31907bd0,,,,,,,,,,,,,,space,18.5335,2,0,2,0,1,,,,,,,,,,,,,,,,,,,,,,,,,,,,,,,,,,,,,,,,,,,,,,,,,
,5fb975626117db7f817aec36,627c700a7929ddf571594b9f,2022-05-11_22h25.34.012,classification_task,2021.2.3,Win32,143.472023,627c6715c52fd12f31907bd0,,,,,,,,,,,,,,space,17.7705,3,0,3,0,1,,,,,,,,,,,,,,,,,,,,,,,,,,,,,,,,,,,,,,,,,,,,,,,,,
,5fb975626117db7f817aec36,627c700a7929ddf571594b9f,2022-05-11_22h25.34.012,classification_task,2021.2.3,Win32,143.472023,627c6715c52fd12f31907bd0,,,,,,,,,,,,,,space,17.3873,4,0,4,0,1,,,,,,,,,,,,,,,,,,,,,,,,,,,,,,,,,,,,,,,,,,,,,,,,,
,5fb975626117db7f817aec36,627c700a7929ddf571594b9f,2022-05-11_22h25.34.012,classification_task,2021.2.3,Win32,143.472023,627c6715c52fd12f31907bd0,,,,,,,,,,,,,,,,,,,,,space,15.2895,l,1,7.8371,"[""0.047"",""0.397"",""0.661"",""0.755""]","[1,1,0,1]",0,0,0,0,1,1,0,,,1,FALSE,,,,,,,,,,,,,,,,,,,,,,,,,,,,,,,
,5fb975626117db7f817aec36,627c700a7929ddf571594b9f,2022-05-11_22h25.34.012,classification_task,2021.2.3,Win32,143.472023,627c6715c52fd12f31907bd0,,,,,,,,,,,,,,,,,,,,,,,l,1,4.9365,"[""0.147"",""0.192"",""0.622"",""0.496""]","[1,1,1,0]",0,1,1,1,1,1,1,,,1,FALSE,,,,,,,,,,,,,,,,,,,,,,,,,,,,,,,
,5fb975626117db7f817aec36,627c700a7929ddf571594b9f,2022-05-11_22h25.34.012,classification_task,2021.2.3,Win32,143.472023,627c6715c52fd12f31907bd0,,,,,,,,,,,,,,,,,,,,,,,,0,,"[""0.096"",""0.328"",""0.879"",""0.962""]","[0,1,1,1]",0,2,2,2,1,0,0,,,1,FALSE,,,,,,,,,,,,,,,,,,,,,,,,,,,,,,,
,5fb975626117db7f817aec36,627c700a7929ddf571594b9f,2022-05-11_22h25.34.012,classification_task,2021.2.3,Win32,143.472023,627c6715c52fd12f31907bd0,,,,,,,,,,,,,,,,,,,,,,,a,1,6.446,"[""0.234"",""0.328"",""0.879"",""0.098""]","[1,1,1,0]",0,3,3,3,1,0,0,,,1,FALSE,,,,,,,,,,,,,,,,,,,,,,,,,,,,,,,
,5fb975626117db7f817aec36,627c700a7929ddf571594b9f,2022-05-11_22h25.34.012,classification_task,2021.2.3,Win32,143.472023,627c6715c52fd12f31907bd0,,,,,,,,,,,,,,,,,,,,,,,l,0,8.6097,"[""0.269"",""0.661"",""0.586"",""0.914""]","[1,0,1,1]",0,4,4,4,1,0,1,,,1,FALSE,,,,,,,,,,,,,,,,,,,,,,,,,,,,,,,
,5fb975626117db7f817aec36,627c700a7929ddf571594b9f,2022-05-11_22h25.34.012,classification_task,2021.2.3,Win32,143.472023,627c6715c52fd12f31907bd0,,,,,,,,,,,,,,,,,,,,,,,a,1,8.3239,"[""0.234"",""0.098"",""0.879"",""0.962""]","[1,0,1,1]",0,5,5,5,1,0,0,,,1,FALSE,,,,,,,,,,,,,,,,,,,,,,,,,,,,,,,
,5fb975626117db7f817aec36,627c700a7929ddf571594b9f,2022-05-11_22h25.34.012,classification_task,2021.2.3,Win32,143.472023,627c6715c52fd12f31907bd0,,,,,,,,,,,,,,,,,,,,,,,l,1,4.701,"[""0.047"",""0.699"",""0.534"",""0.755""]","[1,0,1,1]",0,6,6,6,1,1,0,,,1,FALSE,,,,,,,,,,,,,,,,,,,,,,,,,,,,,,,
,5fb975626117db7f817aec36,627c700a7929ddf571594b9f,2022-05-11_22h25.34.012,classification_task,2021.2.3,Win32,143.472023,627c6715c52fd12f31907bd0,,,,,,,,,,,,,,,,,,,,,,,a,0,3.4167,"[""0.047"",""0.397"",""0.534"",""0.484""]","[1,1,1,0]",0,7,7,7,1,1,0,,,1,FALSE,,,,,,,,,,,,,,,,,,,,,,,,,,,,,,,
,5fb975626117db7f817aec36,627c700a7929ddf571594b9f,2022-05-11_22h25.34.012,classification_task,2021.2.3,Win32,143.472023,627c6715c52fd12f31907bd0,,,,,,,,,,,,,,,,,,,,,,,l,1,7.0399,"[""0.699"",""0.192"",""0.622"",""0.825""]","[0,1,1,1]",0,8,8,8,1,1,1,,,1,FALSE,,,,,,,,,,,,,,,,,,,,,,,,,,,,,,,
,5fb975626117db7f817aec36,627c700a7929ddf571594b9f,2022-05-11_22h25.34.012,classification_task,2021.2.3,Win32,143.472023,627c6715c52fd12f31907bd0,,,,,,,,,,,,,,,,,,,,,,,l,1,3.7567,"[""0.096"",""0.397"",""0.534"",""0.755""]","[0,1,1,1]",0,9,9,9,1,1,0,,,1,FALSE,,,,,,,,,,,,,,,,,,,,,,,,,,,,,,,
,5fb975626117db7f817aec36,627c700a7929ddf571594b9f,2022-05-11_22h25.34.012,classification_task,2021.2.3,Win32,143.472023,627c6715c52fd12f31907bd0,,,,,,,,,,,,,,,,,,,,,,,a,1,4.9154,"[""0.693"",""0.451"",""0.586"",""0.914""]","[0,1,1,1]",0,10,10,10,1,0,1,,,1,FALSE,,,,,,,,,,,,,,,,,,,,,,,,,,,,,,,
,5fb975626117db7f817aec36,627c700a7929ddf571594b9f,2022-05-11_22h25.34.012,classification_task,2021.2.3,Win32,143.472023,627c6715c52fd12f31907bd0,,,,,,,,,,,,,,,,,,,,,,,a,1,4.7449,"[""0.269"",""0.451"",""0.586"",""0.688""]","[1,1,1,0]",0,11,11,11,1,0,1,,,1,FALSE,,,,,,,,,,,,,,,,,,,,,,,,,,,,,,,
,5fb975626117db7f817aec36,627c700a7929ddf571594b9f,2022-05-11_22h25.34.012,classification_task,2021.2.3,Win32,143.472023,627c6715c52fd12f31907bd0,,,,,,,,,,,,,,,,,,,,,,,a,1,1.8937,"[""0.234"",""0.328"",""0.496"",""0.962""]","[1,1,0,1]",0,12,12,12,1,0,0,,,1,FALSE,,,,,,,,,,,,,,,,,,,,,,,,,,,,,,,
,5fb975626117db7f817aec36,627c700a7929ddf571594b9f,2022-05-11_22h25.34.012,classification_task,2021.2.3,Win32,143.472023,627c6715c52fd12f31907bd0,,,,,,,,,,,,,,,,,,,,,,,l,1,2.5826,"[""0.147"",""0.192"",""0.661"",""0.825""]","[1,1,0,1]",0,13,13,13,1,1,1,,,1,FALSE,,,,,,,,,,,,,,,,,,,,,,,,,,,,,,,
,5fb975626117db7f817aec36,627c700a7929ddf571594b9f,2022-05-11_22h25.34.012,classification_task,2021.2.3,Win32,143.472023,627c6715c52fd12f31907bd0,,,,,,,,,,,,,,,,,,,,,,,a,1,3.2725,"[""0.269"",""0.451"",""0.677"",""0.914""]","[1,1,0,1]",0,14,14,14,1,0,1,,,1,FALSE,,,,,,,,,,,,,,,,,,,,,,,,,,,,,,,
,5fb975626117db7f817aec36,627c700a7929ddf571594b9f,2022-05-11_22h25.34.012,classification_task,2021.2.3,Win32,143.472023,627c6715c52fd12f31907bd0,,,,,,,,,,,,,,,,,,,,,,,l,1,4.0294,"[""0.147"",""0.688"",""0.622"",""0.825""]","[1,0,1,1]",0,15,15,15,1,1,1,,,1,FALSE,,,,,,,,,,,,,,,,,,,,,,,,,,,,,,,
,5fb975626117db7f817aec36,627c700a7929ddf571594b9f,2022-05-11_22h25.34.012,classification_task,2021.2.3,Win32,143.472023,627c6715c52fd12f31907bd0,,,,,,,,,,,,,,,,,,,,,,,a,1,5.6035,"[""0.496"",""0.451"",""0.586"",""0.914""]","[0,1,1,1]",0,16,16,16,1,0,1,,,1,FALSE,,,,,,,,,,,,,,,,,,,,,,,,,,,,,,,
,5fb975626117db7f817aec36,627c700a7929ddf571594b9f,2022-05-11_22h25.34.012,classification_task,2021.2.3,Win32,143.472023,627c6715c52fd12f31907bd0,,,,,,,,,,,,,,,,,,,,,,,a,1,4.8938,"[""0.234"",""0.098"",""0.879"",""0.962""]","[1,0,1,1]",0,17,17,17,1,0,0,,,1,FALSE,,,,,,,,,,,,,,,,,,,,,,,,,,,,,,,
,5fb975626117db7f817aec36,627c700a7929ddf571594b9f,2022-05-11_22h25.34.012,classification_task,2021.2.3,Win32,143.472023,627c6715c52fd12f31907bd0,,,,,,,,,,,,,,,,,,,,,,,l,1,2.4024,"[""0.147"",""0.192"",""0.661"",""0.825""]","[1,1,0,1]",0,18,18,18,1,1,1,,,1,FALSE,,,,,,,,,,,,,,,,,,,,,,,,,,,,,,,
,5fb975626117db7f817aec36,627c700a7929ddf571594b9f,2022-05-11_22h25.34.012,classification_task,2021.2.3,Win32,143.472023,627c6715c52fd12f31907bd0,,,,,,,,,,,,,,,,,,,,,,,a,0,2.5814,"[""0.047"",""0.499"",""0.534"",""0.755""]","[1,0,1,1]",0,19,19,19,1,1,0,,,1,FALSE,,,,,,,,,,,,,,,,,,,,,,,,,,,,,,,
,5fb975626117db7f817aec36,627c700a7929ddf571594b9f,2022-05-11_22h25.34.012,classification_task,2021.2.3,Win32,143.472023,627c6715c52fd12f31907bd0,,,,,,,,,,,,,,,,,,,,,,,l,1,9.1093,"[""0.677"",""0.192"",""0.622"",""0.825""]","[0,1,1,1]",0,20,20,20,1,1,1,,,1,FALSE,,,,,,,,,,,,,,,,,,,,,,,,,,,,,,,
,5fb975626117db7f817aec36,627c700a7929ddf571594b9f,2022-05-11_22h25.34.012,classification_task,2021.2.3,Win32,143.472023,627c6715c52fd12f31907bd0,,,,,,,,,,,,,,,,,,,,,,,a,1,7.6658,"[""0.500"",""0.328"",""0.879"",""0.962""]","[0,1,1,1]",0,21,21,21,1,0,0,,,1,FALSE,,,,,,,,,,,,,,,,,,,,,,,,,,,,,,,
,5fb975626117db7f817aec36,627c700a7929ddf571594b9f,2022-05-11_22h25.34.012,classification_task,2021.2.3,Win32,143.472023,627c6715c52fd12f31907bd0,,,,,,,,,,,,,,,,,,,,,,,l,1,5.405,"[""0.047"",""0.397"",""0.499"",""0.755""]","[1,1,0,1]",0,22,22,22,1,1,0,,,1,FALSE,,,,,,,,,,,,,,,,,,,,,,,,,,,,,,,
,5fb975626117db7f817aec36,627c700a7929ddf571594b9f,2022-05-11_22h25.34.012,classification_task,2021.2.3,Win32,143.472023,627c6715c52fd12f31907bd0,,,,,,,,,,,,,,,,,,,,,,,l,1,3.8135,"[""0.098"",""0.397"",""0.534"",""0.755""]","[0,1,1,1]",0,23,23,23,1,1,0,,,1,FALSE,,,,,,,,,,,,,,,,,,,,,,,,,,,,,,,
,5fb975626117db7f817aec36,627c700a7929ddf571594b9f,2022-05-11_22h25.34.012,classification_task,2021.2.3,Win32,143.472023,627c6715c52fd12f31907bd0,,,,,,,,,,,,,,,,,,,,,,,a,1,9.1873,"[""0.269"",""0.688"",""0.586"",""0.914""]","[1,0,1,1]",0,24,24,24,1,0,1,,,1,FALSE,,,,,,,,,,,,,,,,,,,,,,,,,,,,,,,
,5fb975626117db7f817aec36,627c700a7929ddf571594b9f,2022-05-11_22h25.34.012,classification_task,2021.2.3,Win32,143.472023,627c6715c52fd12f31907bd0,,,,,,,,,,,,,,,,,,,,,,,a,1,4.3331,"[""0.234"",""0.328"",""0.484"",""0.962""]","[1,1,0,1]",0,25,25,25,1,0,0,,,1,FALSE,,,,,,,,,,,,,,,,,,,,,,,,,,,,,,,
,5fb975626117db7f817aec36,627c700a7929ddf571594b9f,2022-05-11_22h25.34.012,classification_task,2021.2.3,Win32,143.472023,627c6715c52fd12f31907bd0,,,,,,,,,,,,,,,,,,,,,,,l,1,2.7703,"[""0.047"",""0.397"",""0.534"",""0.096""]","[1,1,1,0]",0,26,26,26,1,1,0,,,1,FALSE,,,,,,,,,,,,,,,,,,,,,,,,,,,,,,,
,5fb975626117db7f817aec36,627c700a7929ddf571594b9f,2022-05-11_22h25.34.012,classification_task,2021.2.3,Win32,143.472023,627c6715c52fd12f31907bd0,,,,,,,,,,,,,,,,,,,,,,,a,1,4.7768,"[""0.269"",""0.451"",""0.586"",""0.500""]","[1,1,1,0]",0,27,27,27,1,0,1,,,1,FALSE,,,,,,,,,,,,,,,,,,,,,,,,,,,,,,,
,5fb975626117db7f817aec36,627c700a7929ddf571594b9f,2022-05-11_22h25.34.012,classification_task,2021.2.3,Win32,143.472023,627c6715c52fd12f31907bd0,,,,,,,,,,,,,,,,,,,,,,,l,0,5.1828,"[""0.269"",""0.451"",""0.500"",""0.914""]","[1,1,0,1]",0,28,28,28,1,0,1,,,1,FALSE,,,,,,,,,,,,,,,,,,,,,,,,,,,,,,,
,5fb975626117db7f817aec36,627c700a7929ddf571594b9f,2022-05-11_22h25.34.012,classification_task,2021.2.3,Win32,143.472023,627c6715c52fd12f31907bd0,,,,,,,,,,,,,,,,,,,,,,,l,1,5.5575,"[""0.147"",""0.192"",""0.622"",""0.485""]","[1,1,1,0]",0,29,29,29,1,1,1,,,1,FALSE,,,,,,,,,,,,,,,,,,,,,,,,,,,,,,,
,5fb975626117db7f817aec36,627c700a7929ddf571594b9f,2022-05-11_22h25.34.012,classification_task,2021.2.3,Win32,143.472023,627c6715c52fd12f31907bd0,,,,,,,,,,,,,,,,,,,,,,,l,1,5.1817,"[""0.147"",""0.661"",""0.622"",""0.825""]","[1,0,1,1]",0,30,30,30,1,1,1,,,1,FALSE,,,,,,,,,,,,,,,,,,,,,,,,,,,,,,,
,5fb975626117db7f817aec36,627c700a7929ddf571594b9f,2022-05-11_22h25.34.012,classification_task,2021.2.3,Win32,143.472023,627c6715c52fd12f31907bd0,,,,,,,,,,,,,,,,,,,,,,,a,1,3.7086,"[""0.234"",""0.328"",""0.879"",""0.688""]","[1,1,1,0]",0,31,31,31,1,0,0,,,1,FALSE,,,,,,,,,,,,,,,,,,,,,,,,,,,,,,,
,5fb975626117db7f817aec36,627c700a7929ddf571594b9f,2022-05-11_22h25.34.012,classification_task,2021.2.3,Win32,143.472023,627c6715c52fd12f31907bd0,,,,,,,,,,,,,,,,,,,,,,,l,1,4.021,"[""0.496"",""0.192"",""0.622"",""0.825""]","[0,1,1,1]",0,32,32,32,1,1,1,,,1,FALSE,,,,,,,,,,,,,,,,,,,,,,,,,,,,,,,
,5fb975626117db7f817aec36,627c700a7929ddf571594b9f,2022-05-11_22h25.34.012,classification_task,2021.2.3,Win32,143.472023,627c6715c52fd12f31907bd0,,,,,,,,,,,,,,,,,,,,,,,a,1,2.5221,"[""0.234"",""0.328"",""0.879"",""0.688""]","[1,1,1,0]",0,33,33,33,1,0,0,,,1,FALSE,,,,,,,,,,,,,,,,,,,,,,,,,,,,,,,
,5fb975626117db7f817aec36,627c700a7929ddf571594b9f,2022-05-11_22h25.34.012,classification_task,2021.2.3,Win32,143.472023,627c6715c52fd12f31907bd0,,,,,,,,,,,,,,,,,,,,,,,l,1,2.7713,"[""0.147"",""0.661"",""0.622"",""0.825""]","[1,0,1,1]",0,34,34,34,1,1,1,,,1,FALSE,,,,,,,,,,,,,,,,,,,,,,,,,,,,,,,
,5fb975626117db7f817aec36,627c700a7929ddf571594b9f,2022-05-11_22h25.34.012,classification_task,2021.2.3,Win32,143.472023,627c6715c52fd12f31907bd0,,,,,,,,,,,,,,,,,,,,,,,l,1,1.7505,"[""0.047"",""0.397"",""0.534"",""0.499""]","[1,1,1,0]",0,35,35,35,1,1,0,,,1,FALSE,,,,,,,,,,,,,,,,,,,,,,,,,,,,,,,
,5fb975626117db7f817aec36,627c700a7929ddf571594b9f,2022-05-11_22h25.34.012,classification_task,2021.2.3,Win32,143.472023,627c6715c52fd12f31907bd0,,,,,,,,,,,,,,,,,,,,,,,a,1,2.4579,"[""0.269"",""0.451"",""0.586"",""0.696""]","[1,1,1,0]",0,36,36,36,1,0,1,,,1,FALSE,,,,,,,,,,,,,,,,,,,,,,,,,,,,,,,
,5fb975626117db7f817aec36,627c700a7929ddf571594b9f,2022-05-11_22h25.34.012,classification_task,2021.2.3,Win32,143.472023,627c6715c52fd12f31907bd0,,,,,,,,,,,,,,,,,,,,,,,a,1,2.3689,"[""0.234"",""0.661"",""0.879"",""0.962""]","[1,0,1,1]",0,37,37,37,1,0,0,,,1,FALSE,,,,,,,,,,,,,,,,,,,,,,,,,,,,,,,
,5fb975626117db7f817aec36,627c700a7929ddf571594b9f,2022-05-11_22h25.34.012,classification_task,2021.2.3,Win32,143.472023,627c6715c52fd12f31907bd0,,,,,,,,,,,,,,,,,,,,,,,a,1,2.2943,"[""0.269"",""0.498"",""0.586"",""0.914""]","[1,0,1,1]",0,38,38,38,1,0,1,,,1,FALSE,,,,,,,,,,,,,,,,,,,,,,,,,,,,,,,
,5fb975626117db7f817aec36,627c700a7929ddf571594b9f,2022-05-11_22h25.34.012,classification_task,2021.2.3,Win32,143.472023,627c6715c52fd12f31907bd0,,,,,,,,,,,,,,,,,,,,,,,l,1,2.618,"[""0.147"",""0.192"",""0.677"",""0.825""]","[1,1,0,1]",0,39,39,39,1,1,1,,,1,FALSE,,,,,,,,,,,,,,,,,,,,,,,,,,,,,,,
,5fb975626117db7f817aec36,627c700a7929ddf571594b9f,2022-05-11_22h25.34.012,classification_task,2021.2.3,Win32,143.472023,627c6715c52fd12f31907bd0,,,,,,,,,,,,,,,,,,,,,,,l,1,3.1954,"[""0.147"",""0.192"",""0.622"",""0.485""]","[1,1,1,0]",0,40,40,40,1,1,1,,,1,FALSE,,,,,,,,,,,,,,,,,,,,,,,,,,,,,,,
,5fb975626117db7f817aec36,627c700a7929ddf571594b9f,2022-05-11_22h25.34.012,classification_task,2021.2.3,Win32,143.472023,627c6715c52fd12f31907bd0,,,,,,,,,,,,,,,,,,,,,,,l,1,2.3008,"[""0.047"",""0.688"",""0.534"",""0.755""]","[1,0,1,1]",0,41,41,41,1,1,0,,,1,FALSE,,,,,,,,,,,,,,,,,,,,,,,,,,,,,,,
,5fb975626117db7f817aec36,627c700a7929ddf571594b9f,2022-05-11_22h25.34.012,classification_task,2021.2.3,Win32,143.472023,627c6715c52fd12f31907bd0,,,,,,,,,,,,,,,,,,,,,,,a,1,1.5228,"[""0.234"",""0.328"",""0.696"",""0.962""]","[1,1,0,1]",0,42,42,42,1,0,0,,,1,FALSE,,,,,,,,,,,,,,,,,,,,,,,,,,,,,,,
,5fb975626117db7f817aec36,627c700a7929ddf571594b9f,2022-05-11_22h25.34.012,classification_task,2021.2.3,Win32,143.472023,627c6715c52fd12f31907bd0,,,,,,,,,,,,,,,,,,,,,,,a,0,2.7558,"[""0.047"",""0.397"",""0.496"",""0.755""]","[1,1,0,1]",0,43,43,43,1,1,0,,,1,FALSE,,,,,,,,,,,,,,,,,,,,,,,,,,,,,,,
,5fb975626117db7f817aec36,627c700a7929ddf571594b9f,2022-05-11_22h25.34.012,classification_task,2021.2.3,Win32,143.472023,627c6715c52fd12f31907bd0,,,,,,,,,,,,,,,,,,,,,,,a,1,2.3087,"[""0.269"",""0.451"",""0.500"",""0.914""]","[1,1,0,1]",0,44,44,44,1,0,1,,,1,FALSE,,,,,,,,,,,,,,,,,,,,,,,,,,,,,,,
,5fb975626117db7f817aec36,627c700a7929ddf571594b9f,2022-05-11_22h25.34.012,classification_task,2021.2.3,Win32,143.472023,627c6715c52fd12f31907bd0,,,,,,,,,,,,,,,,,,,,,,,a,0,2.0686,"[""0.688"",""0.397"",""0.534"",""0.755""]","[0,1,1,1]",0,45,45,45,1,1,0,,,1,FALSE,,,,,,,,,,,,,,,,,,,,,,,,,,,,,,,
,5fb975626117db7f817aec36,627c700a7929ddf571594b9f,2022-05-11_22h25.34.012,classification_task,2021.2.3,Win32,143.472023,627c6715c52fd12f31907bd0,,,,,,,,,,,,,,,,,,,,,,,a,1,1.8613,"[""0.693"",""0.328"",""0.879"",""0.962""]","[0,1,1,1]",0,46,46,46,1,0,0,,,1,FALSE,,,,,,,,,,,,,,,,,,,,,,,,,,,,,,,
,5fb975626117db7f817aec36,627c700a7929ddf571594b9f,2022-05-11_22h25.34.012,classification_task,2021.2.3,Win32,143.472023,627c6715c52fd12f31907bd0,,,,,,,,,,,,,,,,,,,,,,,a,1,2.23,"[""0.500"",""0.451"",""0.586"",""0.914""]","[0,1,1,1]",0,47,47,47,1,0,1,,,1,FALSE,,,,,,,,,,,,,,,,,,,,,,,,,,,,,,,
,5fb975626117db7f817aec36,627c700a7929ddf571594b9f,2022-05-11_22h25.34.012,classification_task,2021.2.3,Win32,143.472023,627c6715c52fd12f31907bd0,,,,,,,,,,,,,,,,,,,,,,,a,0,4.1598,"[""0.484"",""0.397"",""0.534"",""0.755""]","[0,1,1,1]",0,48,48,48,1,1,0,,,1,FALSE,,,,,,,,,,,,,,,,,,,,,,,,,,,,,,,
,5fb975626117db7f817aec36,627c700a7929ddf571594b9f,2022-05-11_22h25.34.012,classification_task,2021.2.3,Win32,143.472023,627c6715c52fd12f31907bd0,,,,,,,,,,,,,,,,,,,,,,,l,1,5.578,"[""0.696"",""0.192"",""0.622"",""0.825""]","[0,1,1,1]",0,49,49,49,1,1,1,,,1,FALSE,,,,,,,,,,,,,,,,,,,,,,,,,,,,,,,
,5fb975626117db7f817aec36,627c700a7929ddf571594b9f,2022-05-11_22h25.34.012,classification_task,2021.2.3,Win32,143.472023,627c6715c52fd12f31907bd0,,,,,,,,,,,,,,,,,,,,,,,a,1,1.8701,"[""0.499"",""0.328"",""0.879"",""0.962""]","[0,1,1,1]",0,50,50,50,1,0,0,,,1,FALSE,,,,,,,,,,,,,,,,,,,,,,,,,,,,,,,
,5fb975626117db7f817aec36,627c700a7929ddf571594b9f,2022-05-11_22h25.34.012,classification_task,2021.2.3,Win32,143.472023,627c6715c52fd12f31907bd0,,,,,,,,,,,,,,,,,,,,,,,l,1,2.0152,"[""0.047"",""0.397"",""0.534"",""0.688""]","[1,1,1,0]",0,51,51,51,1,1,0,,,1,FALSE,,,,,,,,,,,,,,,,,,,,,,,,,,,,,,,
,5fb975626117db7f817aec36,627c700a7929ddf571594b9f,2022-05-11_22h25.34.012,classification_task,2021.2.3,Win32,143.472023,627c6715c52fd12f31907bd0,,,,,,,,,,,,,,,,,,,,,,,a,1,2.271,"[""0.234"",""0.500"",""0.879"",""0.962""]","[1,0,1,1]",0,52,52,52,1,0,0,,,1,FALSE,,,,,,,,,,,,,,,,,,,,,,,,,,,,,,,
,5fb975626117db7f817aec36,627c700a7929ddf571594b9f,2022-05-11_22h25.34.012,classification_task,2021.2.3,Win32,143.472023,627c6715c52fd12f31907bd0,,,,,,,,,,,,,,,,,,,,,,,l,1,2.0011,"[""0.147"",""0.192"",""0.098"",""0.825""]","[1,1,0,1]",0,53,53,53,1,1,1,,,1,FALSE,,,,,,,,,,,,,,,,,,,,,,,,,,,,,,,
,5fb975626117db7f817aec36,627c700a7929ddf571594b9f,2022-05-11_22h25.34.012,classification_task,2021.2.3,Win32,143.472023,627c6715c52fd12f31907bd0,,,,,,,,,,,,,,,,,,,,,,,a,1,2.5894,"[""0.500"",""0.451"",""0.586"",""0.914""]","[0,1,1,1]",0,54,54,54,1,0,1,,,1,FALSE,,,,,,,,,,,,,,,,,,,,,,,,,,,,,,,
,5fb975626117db7f817aec36,627c700a7929ddf571594b9f,2022-05-11_22h25.34.012,classification_task,2021.2.3,Win32,143.472023,627c6715c52fd12f31907bd0,,,,,,,,,,,,,,,,,,,,,,,a,1,3.2037,"[""0.269"",""0.096"",""0.586"",""0.914""]","[1,0,1,1]",0,55,55,55,1,0,1,,,1,FALSE,,,,,,,,,,,,,,,,,,,,,,,,,,,,,,,
,5fb975626117db7f817aec36,627c700a7929ddf571594b9f,2022-05-11_22h25.34.012,classification_task,2021.2.3,Win32,143.472023,627c6715c52fd12f31907bd0,,,,,,,,,,,,,,,,,,,,,,,a,1,2.0918,"[""0.269"",""0.451"",""0.096"",""0.914""]","[1,1,0,1]",0,56,56,56,1,0,1,,,1,FALSE,,,,,,,,,,,,,,,,,,,,,,,,,,,,,,,
,5fb975626117db7f817aec36,627c700a7929ddf571594b9f,2022-05-11_22h25.34.012,classification_task,2021.2.3,Win32,143.472023,627c6715c52fd12f31907bd0,,,,,,,,,,,,,,,,,,,,,,,a,1,2.7426,"[""0.234"",""0.328"",""0.688"",""0.962""]","[1,1,0,1]",0,57,57,57,1,0,0,,,1,FALSE,,,,,,,,,,,,,,,,,,,,,,,,,,,,,,,
,5fb975626117db7f817aec36,627c700a7929ddf571594b9f,2022-05-11_22h25.34.012,classification_task,2021.2.3,Win32,143.472023,627c6715c52fd12f31907bd0,,,,,,,,,,,,,,,,,,,,,,,l,1,1.6835,"[""0.047"",""0.397"",""0.696"",""0.755""]","[1,1,0,1]",0,58,58,58,1,1,0,,,1,FALSE,,,,,,,,,,,,,,,,,,,,,,,,,,,,,,,
,5fb975626117db7f817aec36,627c700a7929ddf571594b9f,2022-05-11_22h25.34.012,classification_task,2021.2.3,Win32,143.472023,627c6715c52fd12f31907bd0,,,,,,,,,,,,,,,,,,,,,,,l,1,2.3111,"[""0.047"",""0.661"",""0.534"",""0.755""]","[1,0,1,1]",0,59,59,59,1,1,0,,,1,FALSE,,,,,,,,,,,,,,,,,,,,,,,,,,,,,,,
,5fb975626117db7f817aec36,627c700a7929ddf571594b9f,2022-05-11_22h25.34.012,classification_task,2021.2.3,Win32,143.472023,627c6715c52fd12f31907bd0,,,,,,,,,,,,,,,,,,,,,,,l,1,2.4736,"[""0.147"",""0.192"",""0.622"",""0.693""]","[1,1,1,0]",0,60,60,60,1,1,1,,,1,FALSE,,,,,,,,,,,,,,,,,,,,,,,,,,,,,,,
,5fb975626117db7f817aec36,627c700a7929ddf571594b9f,2022-05-11_22h25.34.012,classification_task,2021.2.3,Win32,143.472023,627c6715c52fd12f31907bd0,,,,,,,,,,,,,,,,,,,,,,,l,1,3.0755,"[""0.147"",""0.499"",""0.622"",""0.825""]","[1,0,1,1]",0,61,61,61,1,1,1,,,1,FALSE,,,,,,,,,,,,,,,,,,,,,,,,,,,,,,,
,5fb975626117db7f817aec36,627c700a7929ddf571594b9f,2022-05-11_22h25.34.012,classification_task,2021.2.3,Win32,143.472023,627c6715c52fd12f31907bd0,,,,,,,,,,,,,,,,,,,,,,,l,0,4.696,"[""0.269"",""0.451"",""0.586"",""0.693""]","[1,1,1,0]",0,62,62,62,1,0,1,,,1,FALSE,,,,,,,,,,,,,,,,,,,,,,,,,,,,,,,
,5fb975626117db7f817aec36,627c700a7929ddf571594b9f,2022-05-11_22h25.34.012,classification_task,2021.2.3,Win32,143.472023,627c6715c52fd12f31907bd0,,,,,,,,,,,,,,,,,,,,,,,a,1,2.3287,"[""0.234"",""0.328"",""0.879"",""0.788""]","[1,1,1,0]",0,63,63,63,1,0,0,,,1,FALSE,,,,,,,,,,,,,,,,,,,,,,,,,,,,,,,
,5fb975626117db7f817aec36,627c700a7929ddf571594b9f,2022-05-11_22h25.34.012,classification_task,2021.2.3,Win32,143.472023,627c6715c52fd12f31907bd0,,,,,,,,,,,,,,,,,,,,,,,,,,,,,,,,,,,,,,,0, ,,0,3.24245654,479.3839,0,0,0,0,1,2,1,,,,,,,,,,,,,,,,,,
,5fb975626117db7f817aec36,627c700a7929ddf571594b9f,2022-05-11_22h25.34.012,classification_task,2021.2.3,Win32,143.472023,627c6715c52fd12f31907bd0,,,,,,,,,,,,,,,,,,,,,,,,,,,,,,,,,,,,,,,1,  ,,0,2.826033706,484.5427,0,0,0,0,1,2,1,,,,,,,,,,,,,,,,,,
,5fb975626117db7f817aec36,627c700a7929ddf571594b9f,2022-05-11_22h25.34.012,classification_task,2021.2.3,Win32,143.472023,627c6715c52fd12f31907bd0,,,,,,,,,,,,,,,,,,,,,,,,,,,,,,,,,,,,,,,2,  ,,0,4.908142269,491.0344,0,0,0,0,1,2,1,,,,,,,,,,,,,,,,,,
,5fb975626117db7f817aec36,627c700a7929ddf571594b9f,2022-05-11_22h25.34.012,classification_task,2021.2.3,Win32,143.472023,627c6715c52fd12f31907bd0,,,,,,,,,,,,,,,,,,,,,,,,,,,,,,,,,,,,,,,,,,,,,0,0,0,0,1,,1,,,,,,,,,,,,,,,,,,
,5fb975626117db7f817aec36,627c700a7929ddf571594b9f,2022-05-11_22h25.34.012,classification_task,2021.2.3,Win32,143.472023,627c6715c52fd12f31907bd0,,,,,,,,,,,,,,,,,,,,,space,16.5179,a,1,4.7285,"[""0.269"",""0.499"",""0.586"",""0.914""]","[1,0,1,1]",0,0,0,0,1,0,1,,,1,FALSE,,,,,,,,,,,,,,,,,,,,,,,,,,,,,,,
,5fb975626117db7f817aec36,627c700a7929ddf571594b9f,2022-05-11_22h25.34.012,classification_task,2021.2.3,Win32,143.472023,627c6715c52fd12f31907bd0,,,,,,,,,,,,,,,,,,,,,,,l,1,0.7925,"[""0.147"",""0.192"",""0.622"",""0.484""]","[1,1,1,0]",0,1,1,1,1,1,1,,,1,FALSE,,,,,,,,,,,,,,,,,,,,,,,,,,,,,,,
,5fb975626117db7f817aec36,627c700a7929ddf571594b9f,2022-05-11_22h25.34.012,classification_task,2021.2.3,Win32,143.472023,627c6715c52fd12f31907bd0,,,,,,,,,,,,,,,,,,,,,,,l,1,0.6798,"[""0.147"",""0.498"",""0.622"",""0.825""]","[1,0,1,1]",0,2,2,2,1,1,1,,,1,FALSE,,,,,,,,,,,,,,,,,,,,,,,,,,,,,,,
,5fb975626117db7f817aec36,627c700a7929ddf571594b9f,2022-05-11_22h25.34.012,classification_task,2021.2.3,Win32,143.472023,627c6715c52fd12f31907bd0,,,,,,,,,,,,,,,,,,,,,,,,0,,"[""0.499"",""0.397"",""0.534"",""0.755""]","[0,1,1,1]",0,3,3,3,1,1,0,,,1,FALSE,,,,,,,,,,,,,,,,,,,,,,,,,,,,,,,
,5fb975626117db7f817aec36,627c700a7929ddf571594b9f,2022-05-11_22h25.34.012,classification_task,2021.2.3,Win32,143.472023,627c6715c52fd12f31907bd0,,,,,,,,,,,,,,,,,,,,,,,a,1,2.3122,"[""0.234"",""0.328"",""0.879"",""0.661""]","[1,1,1,0]",0,4,4,4,1,0,0,,,1,FALSE,,,,,,,,,,,,,,,,,,,,,,,,,,,,,,,
,5fb975626117db7f817aec36,627c700a7929ddf571594b9f,2022-05-11_22h25.34.012,classification_task,2021.2.3,Win32,143.472023,627c6715c52fd12f31907bd0,,,,,,,,,,,,,,,,,,,,,,,l,0,1.4372,"[""0.234"",""0.693"",""0.879"",""0.962""]","[1,0,1,1]",0,5,5,5,1,0,0,,,1,FALSE,,,,,,,,,,,,,,,,,,,,,,,,,,,,,,,
,5fb975626117db7f817aec36,627c700a7929ddf571594b9f,2022-05-11_22h25.34.012,classification_task,2021.2.3,Win32,143.472023,627c6715c52fd12f31907bd0,,,,,,,,,,,,,,,,,,,,,,,a,1,1.1917,"[""0.269"",""0.451"",""0.699"",""0.914""]","[1,1,0,1]",0,6,6,6,1,0,1,,,1,FALSE,,,,,,,,,,,,,,,,,,,,,,,,,,,,,,,
,5fb975626117db7f817aec36,627c700a7929ddf571594b9f,2022-05-11_22h25.34.012,classification_task,2021.2.3,Win32,143.472023,627c6715c52fd12f31907bd0,,,,,,,,,,,,,,,,,,,,,,,l,0,2.1509,"[""0.688"",""0.328"",""0.879"",""0.962""]","[0,1,1,1]",0,7,7,7,1,0,0,,,1,FALSE,,,,,,,,,,,,,,,,,,,,,,,,,,,,,,,
,5fb975626117db7f817aec36,627c700a7929ddf571594b9f,2022-05-11_22h25.34.012,classification_task,2021.2.3,Win32,143.472023,627c6715c52fd12f31907bd0,,,,,,,,,,,,,,,,,,,,,,,a,1,0.9719,"[""0.098"",""0.451"",""0.586"",""0.914""]","[0,1,1,1]",0,8,8,8,1,0,1,,,1,FALSE,,,,,,,,,,,,,,,,,,,,,,,,,,,,,,,
,5fb975626117db7f817aec36,627c700a7929ddf571594b9f,2022-05-11_22h25.34.012,classification_task,2021.2.3,Win32,143.472023,627c6715c52fd12f31907bd0,,,,,,,,,,,,,,,,,,,,,,,l,1,0.9223,"[""0.147"",""0.192"",""0.688"",""0.825""]","[1,1,0,1]",0,9,9,9,1,1,1,,,1,FALSE,,,,,,,,,,,,,,,,,,,,,,,,,,,,,,,
,5fb975626117db7f817aec36,627c700a7929ddf571594b9f,2022-05-11_22h25.34.012,classification_task,2021.2.3,Win32,143.472023,627c6715c52fd12f31907bd0,,,,,,,,,,,,,,,,,,,,,,,a,1,0.8744,"[""0.269"",""0.451"",""0.586"",""0.661""]","[1,1,1,0]",0,10,10,10,1,0,1,,,1,FALSE,,,,,,,,,,,,,,,,,,,,,,,,,,,,,,,
,5fb975626117db7f817aec36,627c700a7929ddf571594b9f,2022-05-11_22h25.34.012,classification_task,2021.2.3,Win32,143.472023,627c6715c52fd12f31907bd0,,,,,,,,,,,,,,,,,,,,,,,a,0,1.2542,"[""0.047"",""0.397"",""0.699"",""0.755""]","[1,1,0,1]",0,11,11,11,1,1,0,,,1,FALSE,,,,,,,,,,,,,,,,,,,,,,,,,,,,,,,
,5fb975626117db7f817aec36,627c700a7929ddf571594b9f,2022-05-11_22h25.34.012,classification_task,2021.2.3,Win32,143.472023,627c6715c52fd12f31907bd0,,,,,,,,,,,,,,,,,,,,,,,l,1,0.9898,"[""0.699"",""0.192"",""0.622"",""0.825""]","[0,1,1,1]",0,12,12,12,1,1,1,,,1,FALSE,,,,,,,,,,,,,,,,,,,,,,,,,,,,,,,
,5fb975626117db7f817aec36,627c700a7929ddf571594b9f,2022-05-11_22h25.34.012,classification_task,2021.2.3,Win32,143.472023,627c6715c52fd12f31907bd0,,,,,,,,,,,,,,,,,,,,,,,a,1,1.3725,"[""0.234"",""0.328"",""0.693"",""0.962""]","[1,1,0,1]",0,13,13,13,1,0,0,,,1,FALSE,,,,,,,,,,,,,,,,,,,,,,,,,,,,,,,
,5fb975626117db7f817aec36,627c700a7929ddf571594b9f,2022-05-11_22h25.34.012,classification_task,2021.2.3,Win32,143.472023,627c6715c52fd12f31907bd0,,,,,,,,,,,,,,,,,,,,,,,l,1,1.2429,"[""0.047"",""0.397"",""0.534"",""0.096""]","[1,1,1,0]",0,14,14,14,1,1,0,,,1,FALSE,,,,,,,,,,,,,,,,,,,,,,,,,,,,,,,
,5fb975626117db7f817aec36,627c700a7929ddf571594b9f,2022-05-11_22h25.34.012,classification_task,2021.2.3,Win32,143.472023,627c6715c52fd12f31907bd0,,,,,,,,,,,,,,,,,,,,,,,a,0,0.9307,"[""0.047"",""0.485"",""0.534"",""0.755""]","[1,0,1,1]",0,15,15,15,1,1,0,,,1,FALSE,,,,,,,,,,,,,,,,,,,,,,,,,,,,,,,
,5fb975626117db7f817aec36,627c700a7929ddf571594b9f,2022-05-11_22h25.34.012,classification_task,2021.2.3,Win32,143.472023,627c6715c52fd12f31907bd0,,,,,,,,,,,,,,,,,,,,,,,l,1,1.09,"[""0.047"",""0.397"",""0.534"",""0.098""]","[1,1,1,0]",0,16,16,16,1,1,0,,,1,FALSE,,,,,,,,,,,,,,,,,,,,,,,,,,,,,,,
,5fb975626117db7f817aec36,627c700a7929ddf571594b9f,2022-05-11_22h25.34.012,classification_task,2021.2.3,Win32,143.472023,627c6715c52fd12f31907bd0,,,,,,,,,,,,,,,,,,,,,,,l,1,0.9645,"[""0.788"",""0.397"",""0.534"",""0.755""]","[0,1,1,1]",0,17,17,17,1,1,0,,,1,FALSE,,,,,,,,,,,,,,,,,,,,,,,,,,,,,,,
,5fb975626117db7f817aec36,627c700a7929ddf571594b9f,2022-05-11_22h25.34.012,classification_task,2021.2.3,Win32,143.472023,627c6715c52fd12f31907bd0,,,,,,,,,,,,,,,,,,,,,,,l,1,0.9147,"[""0.147"",""0.192"",""0.499"",""0.825""]","[1,1,0,1]",0,18,18,18,1,1,1,,,1,FALSE,,,,,,,,,,,,,,,,,,,,,,,,,,,,,,,
,5fb975626117db7f817aec36,627c700a7929ddf571594b9f,2022-05-11_22h25.34.012,classification_task,2021.2.3,Win32,143.472023,627c6715c52fd12f31907bd0,,,,,,,,,,,,,,,,,,,,,,,l,1,1.1158,"[""0.047"",""0.397"",""0.696"",""0.755""]","[1,1,0,1]",0,19,19,19,1,1,0,,,1,FALSE,,,,,,,,,,,,,,,,,,,,,,,,,,,,,,,
,5fb975626117db7f817aec36,627c700a7929ddf571594b9f,2022-05-11_22h25.34.012,classification_task,2021.2.3,Win32,143.472023,627c6715c52fd12f31907bd0,,,,,,,,,,,,,,,,,,,,,,,l,1,0.7205,"[""0.147"",""0.192"",""0.622"",""0.485""]","[1,1,1,0]",0,20,20,20,1,1,1,,,1,FALSE,,,,,,,,,,,,,,,,,,,,,,,,,,,,,,,
,5fb975626117db7f817aec36,627c700a7929ddf571594b9f,2022-05-11_22h25.34.012,classification_task,2021.2.3,Win32,143.472023,627c6715c52fd12f31907bd0,,,,,,,,,,,,,,,,,,,,,,,a,1,0.7196,"[""0.499"",""0.328"",""0.879"",""0.962""]","[0,1,1,1]",0,21,21,21,1,0,0,,,1,FALSE,,,,,,,,,,,,,,,,,,,,,,,,,,,,,,,
,5fb975626117db7f817aec36,627c700a7929ddf571594b9f,2022-05-11_22h25.34.012,classification_task,2021.2.3,Win32,143.472023,627c6715c52fd12f31907bd0,,,,,,,,,,,,,,,,,,,,,,,a,1,0.9352,"[""0.677"",""0.451"",""0.586"",""0.914""]","[0,1,1,1]",0,22,22,22,1,0,1,,,1,FALSE,,,,,,,,,,,,,,,,,,,,,,,,,,,,,,,
,5fb975626117db7f817aec36,627c700a7929ddf571594b9f,2022-05-11_22h25.34.012,classification_task,2021.2.3,Win32,143.472023,627c6715c52fd12f31907bd0,,,,,,,,,,,,,,,,,,,,,,,l,0,0.9902,"[""0.234"",""0.688"",""0.879"",""0.962""]","[1,0,1,1]",0,23,23,23,1,0,0,,,1,FALSE,,,,,,,,,,,,,,,,,,,,,,,,,,,,,,,
,5fb975626117db7f817aec36,627c700a7929ddf571594b9f,2022-05-11_22h25.34.012,classification_task,2021.2.3,Win32,143.472023,627c6715c52fd12f31907bd0,,,,,,,,,,,,,,,,,,,,,,,a,1,0.7613,"[""0.269"",""0.451"",""0.586"",""0.661""]","[1,1,1,0]",0,24,24,24,1,0,1,,,1,FALSE,,,,,,,,,,,,,,,,,,,,,,,,,,,,,,,
,5fb975626117db7f817aec36,627c700a7929ddf571594b9f,2022-05-11_22h25.34.012,classification_task,2021.2.3,Win32,143.472023,627c6715c52fd12f31907bd0,,,,,,,,,,,,,,,,,,,,,,,a,1,0.722,"[""0.269"",""0.496"",""0.586"",""0.914""]","[1,0,1,1]",0,25,25,25,1,0,1,,,1,FALSE,,,,,,,,,,,,,,,,,,,,,,,,,,,,,,,
,5fb975626117db7f817aec36,627c700a7929ddf571594b9f,2022-05-11_22h25.34.012,classification_task,2021.2.3,Win32,143.472023,627c6715c52fd12f31907bd0,,,,,,,,,,,,,,,,,,,,,,,a,1,1.4021,"[""0.269"",""0.451"",""0.496"",""0.914""]","[1,1,0,1]",0,26,26,26,1,0,1,,,1,FALSE,,,,,,,,,,,,,,,,,,,,,,,,,,,,,,,
,5fb975626117db7f817aec36,627c700a7929ddf571594b9f,2022-05-11_22h25.34.012,classification_task,2021.2.3,Win32,143.472023,627c6715c52fd12f31907bd0,,,,,,,,,,,,,,,,,,,,,,,l,1,1.1866,"[""0.147"",""0.661"",""0.622"",""0.825""]","[1,0,1,1]",0,27,27,27,1,1,1,,,1,FALSE,,,,,,,,,,,,,,,,,,,,,,,,,,,,,,,
,5fb975626117db7f817aec36,627c700a7929ddf571594b9f,2022-05-11_22h25.34.012,classification_task,2021.2.3,Win32,143.472023,627c6715c52fd12f31907bd0,,,,,,,,,,,,,,,,,,,,,,,l,1,1.7959,"[""0.047"",""0.498"",""0.534"",""0.755""]","[1,0,1,1]",0,28,28,28,1,1,0,,,1,FALSE,,,,,,,,,,,,,,,,,,,,,,,,,,,,,,,
,5fb975626117db7f817aec36,627c700a7929ddf571594b9f,2022-05-11_22h25.34.012,classification_task,2021.2.3,Win32,143.472023,627c6715c52fd12f31907bd0,,,,,,,,,,,,,,,,,,,,,,,l,1,0.9984,"[""0.688"",""0.192"",""0.622"",""0.825""]","[0,1,1,1]",0,29,29,29,1,1,1,,,1,FALSE,,,,,,,,,,,,,,,,,,,,,,,,,,,,,,,
,5fb975626117db7f817aec36,627c700a7929ddf571594b9f,2022-05-11_22h25.34.012,classification_task,2021.2.3,Win32,143.472023,627c6715c52fd12f31907bd0,,,,,,,,,,,,,,,,,,,,,,,a,1,1.2269,"[""0.234"",""0.328"",""0.677"",""0.962""]","[1,1,0,1]",0,30,30,30,1,0,0,,,1,FALSE,,,,,,,,,,,,,,,,,,,,,,,,,,,,,,,
,5fb975626117db7f817aec36,627c700a7929ddf571594b9f,2022-05-11_22h25.34.012,classification_task,2021.2.3,Win32,143.472023,627c6715c52fd12f31907bd0,,,,,,,,,,,,,,,,,,,,,,,a,1,1.0832,"[""0.234"",""0.328"",""0.879"",""0.484""]","[1,1,1,0]",0,31,31,31,1,0,0,,,1,FALSE,,,,,,,,,,,,,,,,,,,,,,,,,,,,,,,
,5fb975626117db7f817aec36,627c700a7929ddf571594b9f,2022-05-11_22h25.34.012,classification_task,2021.2.3,Win32,143.472023,627c6715c52fd12f31907bd0,,,,,,,,,,,,,,,,,,,,,,,l,1,0.7638,"[""0.047"",""0.485"",""0.534"",""0.755""]","[1,0,1,1]",0,32,32,32,1,1,0,,,1,FALSE,,,,,,,,,,,,,,,,,,,,,,,,,,,,,,,
,5fb975626117db7f817aec36,627c700a7929ddf571594b9f,2022-05-11_22h25.34.012,classification_task,2021.2.3,Win32,143.472023,627c6715c52fd12f31907bd0,,,,,,,,,,,,,,,,,,,,,,,l,1,0.7751,"[""0.147"",""0.677"",""0.622"",""0.825""]","[1,0,1,1]",0,33,33,33,1,1,1,,,1,FALSE,,,,,,,,,,,,,,,,,,,,,,,,,,,,,,,
,5fb975626117db7f817aec36,627c700a7929ddf571594b9f,2022-05-11_22h25.34.012,classification_task,2021.2.3,Win32,143.472023,627c6715c52fd12f31907bd0,,,,,,,,,,,,,,,,,,,,,,,l,0,1.046,"[""0.234"",""0.661"",""0.879"",""0.962""]","[1,0,1,1]",0,34,34,34,1,0,0,,,1,FALSE,,,,,,,,,,,,,,,,,,,,,,,,,,,,,,,
,5fb975626117db7f817aec36,627c700a7929ddf571594b9f,2022-05-11_22h25.34.012,classification_task,2021.2.3,Win32,143.472023,627c6715c52fd12f31907bd0,,,,,,,,,,,,,,,,,,,,,,,l,1,0.734,"[""0.147"",""0.192"",""0.622"",""0.693""]","[1,1,1,0]",0,35,35,35,1,1,1,,,1,FALSE,,,,,,,,,,,,,,,,,,,,,,,,,,,,,,,
,5fb975626117db7f817aec36,627c700a7929ddf571594b9f,2022-05-11_22h25.34.012,classification_task,2021.2.3,Win32,143.472023,627c6715c52fd12f31907bd0,,,,,,,,,,,,,,,,,,,,,,,a,0,1.2338,"[""0.693"",""0.397"",""0.534"",""0.755""]","[0,1,1,1]",0,36,36,36,1,1,0,,,1,FALSE,,,,,,,,,,,,,,,,,,,,,,,,,,,,,,,
,5fb975626117db7f817aec36,627c700a7929ddf571594b9f,2022-05-11_22h25.34.012,classification_task,2021.2.3,Win32,143.472023,627c6715c52fd12f31907bd0,,,,,,,,,,,,,,,,,,,,,,,a,1,0.9019,"[""0.269"",""0.451"",""0.699"",""0.914""]","[1,1,0,1]",0,37,37,37,1,0,1,,,1,FALSE,,,,,,,,,,,,,,,,,,,,,,,,,,,,,,,
,5fb975626117db7f817aec36,627c700a7929ddf571594b9f,2022-05-11_22h25.34.012,classification_task,2021.2.3,Win32,143.472023,627c6715c52fd12f31907bd0,,,,,,,,,,,,,,,,,,,,,,,a,1,0.9237,"[""0.699"",""0.451"",""0.586"",""0.914""]","[0,1,1,1]",0,38,38,38,1,0,1,,,1,FALSE,,,,,,,,,,,,,,,,,,,,,,,,,,,,,,,
,5fb975626117db7f817aec36,627c700a7929ddf571594b9f,2022-05-11_22h25.34.012,classification_task,2021.2.3,Win32,143.472023,627c6715c52fd12f31907bd0,,,,,,,,,,,,,,,,,,,,,,,l,0,1.4214,"[""0.234"",""0.328"",""0.879"",""0.693""]","[1,1,1,0]",0,39,39,39,1,0,0,,,1,FALSE,,,,,,,,,,,,,,,,,,,,,,,,,,,,,,,
,5fb975626117db7f817aec36,627c700a7929ddf571594b9f,2022-05-11_22h25.34.012,classification_task,2021.2.3,Win32,143.472023,627c6715c52fd12f31907bd0,,,,,,,,,,,,,,,,,,,,,,,l,1,0.7976,"[""0.496"",""0.192"",""0.622"",""0.825""]","[0,1,1,1]",0,40,40,40,1,1,1,,,1,FALSE,,,,,,,,,,,,,,,,,,,,,,,,,,,,,,,
,5fb975626117db7f817aec36,627c700a7929ddf571594b9f,2022-05-11_22h25.34.012,classification_task,2021.2.3,Win32,143.472023,627c6715c52fd12f31907bd0,,,,,,,,,,,,,,,,,,,,,,,l,1,0.8756,"[""0.147"",""0.192"",""0.788"",""0.825""]","[1,1,0,1]",0,41,41,41,1,1,1,,,1,FALSE,,,,,,,,,,,,,,,,,,,,,,,,,,,,,,,
,5fb975626117db7f817aec36,627c700a7929ddf571594b9f,2022-05-11_22h25.34.012,classification_task,2021.2.3,Win32,143.472023,627c6715c52fd12f31907bd0,,,,,,,,,,,,,,,,,,,,,,,a,1,0.9349,"[""0.234"",""0.328"",""0.485"",""0.962""]","[1,1,0,1]",0,42,42,42,1,0,0,,,1,FALSE,,,,,,,,,,,,,,,,,,,,,,,,,,,,,,,
,5fb975626117db7f817aec36,627c700a7929ddf571594b9f,2022-05-11_22h25.34.012,classification_task,2021.2.3,Win32,143.472023,627c6715c52fd12f31907bd0,,,,,,,,,,,,,,,,,,,,,,,a,1,0.7405,"[""0.269"",""0.484"",""0.586"",""0.914""]","[1,0,1,1]",0,43,43,43,1,0,1,,,1,FALSE,,,,,,,,,,,,,,,,,,,,,,,,,,,,,,,
,5fb975626117db7f817aec36,627c700a7929ddf571594b9f,2022-05-11_22h25.34.012,classification_task,2021.2.3,Win32,143.472023,627c6715c52fd12f31907bd0,,,,,,,,,,,,,,,,,,,,,,,l,1,0.8797,"[""0.047"",""0.397"",""0.485"",""0.755""]","[1,1,0,1]",0,44,44,44,1,1,0,,,1,FALSE,,,,,,,,,,,,,,,,,,,,,,,,,,,,,,,
,5fb975626117db7f817aec36,627c700a7929ddf571594b9f,2022-05-11_22h25.34.012,classification_task,2021.2.3,Win32,143.472023,627c6715c52fd12f31907bd0,,,,,,,,,,,,,,,,,,,,,,,a,1,0.7752,"[""0.269"",""0.451"",""0.586"",""0.096""]","[1,1,1,0]",0,45,45,45,1,0,1,,,1,FALSE,,,,,,,,,,,,,,,,,,,,,,,,,,,,,,,
,5fb975626117db7f817aec36,627c700a7929ddf571594b9f,2022-05-11_22h25.34.012,classification_task,2021.2.3,Win32,143.472023,627c6715c52fd12f31907bd0,,,,,,,,,,,,,,,,,,,,,,,l,0,1.1292,"[""0.693"",""0.328"",""0.879"",""0.962""]","[0,1,1,1]",0,46,46,46,1,0,0,,,1,FALSE,,,,,,,,,,,,,,,,,,,,,,,,,,,,,,,
,5fb975626117db7f817aec36,627c700a7929ddf571594b9f,2022-05-11_22h25.34.012,classification_task,2021.2.3,Win32,143.472023,627c6715c52fd12f31907bd0,,,,,,,,,,,,,,,,,,,,,,,a,0,1.076,"[""0.047"",""0.397"",""0.534"",""0.661""]","[1,1,1,0]",0,47,47,47,1,1,0,,,1,FALSE,,,,,,,,,,,,,,,,,,,,,,,,,,,,,,,
,5fb975626117db7f817aec36,627c700a7929ddf571594b9f,2022-05-11_22h25.34.012,classification_task,2021.2.3,Win32,143.472023,627c6715c52fd12f31907bd0,,,,,,,,,,,,,,,,,,,,,,,a,1,0.8393,"[""0.269"",""0.693"",""0.586"",""0.914""]","[1,0,1,1]",0,48,48,48,1,0,1,,,1,FALSE,,,,,,,,,,,,,,,,,,,,,,,,,,,,,,,
,5fb975626117db7f817aec36,627c700a7929ddf571594b9f,2022-05-11_22h25.34.012,classification_task,2021.2.3,Win32,143.472023,627c6715c52fd12f31907bd0,,,,,,,,,,,,,,,,,,,,,,,l,0,1.2339,"[""0.234"",""0.328"",""0.879"",""0.699""]","[1,1,1,0]",0,49,49,49,1,0,0,,,1,FALSE,,,,,,,,,,,,,,,,,,,,,,,,,,,,,,,
,5fb975626117db7f817aec36,627c700a7929ddf571594b9f,2022-05-11_22h25.34.012,classification_task,2021.2.3,Win32,143.472023,627c6715c52fd12f31907bd0,,,,,,,,,,,,,,,,,,,,,,,l,1,0.8385,"[""0.147"",""0.192"",""0.661"",""0.825""]","[1,1,0,1]",0,50,50,50,1,1,1,,,1,FALSE,,,,,,,,,,,,,,,,,,,,,,,,,,,,,,,
,5fb975626117db7f817aec36,627c700a7929ddf571594b9f,2022-05-11_22h25.34.012,classification_task,2021.2.3,Win32,143.472023,627c6715c52fd12f31907bd0,,,,,,,,,,,,,,,,,,,,,,,l,0,0.9982,"[""0.234"",""0.096"",""0.879"",""0.962""]","[1,0,1,1]",0,51,51,51,1,0,0,,,1,FALSE,,,,,,,,,,,,,,,,,,,,,,,,,,,,,,,
,5fb975626117db7f817aec36,627c700a7929ddf571594b9f,2022-05-11_22h25.34.012,classification_task,2021.2.3,Win32,143.472023,627c6715c52fd12f31907bd0,,,,,,,,,,,,,,,,,,,,,,,l,1,0.7688,"[""0.693"",""0.192"",""0.622"",""0.825""]","[0,1,1,1]",0,52,52,52,1,1,1,,,1,FALSE,,,,,,,,,,,,,,,,,,,,,,,,,,,,,,,
,5fb975626117db7f817aec36,627c700a7929ddf571594b9f,2022-05-11_22h25.34.012,classification_task,2021.2.3,Win32,143.472023,627c6715c52fd12f31907bd0,,,,,,,,,,,,,,,,,,,,,,,a,1,0.7496,"[""0.269"",""0.451"",""0.096"",""0.914""]","[1,1,0,1]",0,53,53,53,1,0,1,,,1,FALSE,,,,,,,,,,,,,,,,,,,,,,,,,,,,,,,
,5fb975626117db7f817aec36,627c700a7929ddf571594b9f,2022-05-11_22h25.34.012,classification_task,2021.2.3,Win32,143.472023,627c6715c52fd12f31907bd0,,,,,,,,,,,,,,,,,,,,,,,a,0,0.9151,"[""0.699"",""0.397"",""0.534"",""0.755""]","[0,1,1,1]",0,54,54,54,1,1,0,,,1,FALSE,,,,,,,,,,,,,,,,,,,,,,,,,,,,,,,
,5fb975626117db7f817aec36,627c700a7929ddf571594b9f,2022-05-11_22h25.34.012,classification_task,2021.2.3,Win32,143.472023,627c6715c52fd12f31907bd0,,,,,,,,,,,,,,,,,,,,,,,a,1,0.9372,"[""0.699"",""0.328"",""0.879"",""0.962""]","[0,1,1,1]",0,55,55,55,1,0,0,,,1,FALSE,,,,,,,,,,,,,,,,,,,,,,,,,,,,,,,
,5fb975626117db7f817aec36,627c700a7929ddf571594b9f,2022-05-11_22h25.34.012,classification_task,2021.2.3,Win32,143.472023,627c6715c52fd12f31907bd0,,,,,,,,,,,,,,,,,,,,,,,l,1,0.9839,"[""0.147"",""0.696"",""0.622"",""0.825""]","[1,0,1,1]",0,56,56,56,1,1,1,,,1,FALSE,,,,,,,,,,,,,,,,,,,,,,,,,,,,,,,
,5fb975626117db7f817aec36,627c700a7929ddf571594b9f,2022-05-11_22h25.34.012,classification_task,2021.2.3,Win32,143.472023,627c6715c52fd12f31907bd0,,,,,,,,,,,,,,,,,,,,,,,l,1,1.4273,"[""0.047"",""0.397"",""0.484"",""0.755""]","[1,1,0,1]",0,57,57,57,1,1,0,,,1,FALSE,,,,,,,,,,,,,,,,,,,,,,,,,,,,,,,
,5fb975626117db7f817aec36,627c700a7929ddf571594b9f,2022-05-11_22h25.34.012,classification_task,2021.2.3,Win32,143.472023,627c6715c52fd12f31907bd0,,,,,,,,,,,,,,,,,,,,,,,l,1,1.1035,"[""0.047"",""0.661"",""0.534"",""0.755""]","[1,0,1,1]",0,58,58,58,1,1,0,,,1,FALSE,,,,,,,,,,,,,,,,,,,,,,,,,,,,,,,
,5fb975626117db7f817aec36,627c700a7929ddf571594b9f,2022-05-11_22h25.34.012,classification_task,2021.2.3,Win32,143.472023,627c6715c52fd12f31907bd0,,,,,,,,,,,,,,,,,,,,,,,a,1,0.7816,"[""0.269"",""0.451"",""0.586"",""0.693""]","[1,1,1,0]",0,59,59,59,1,0,1,,,1,FALSE,,,,,,,,,,,,,,,,,,,,,,,,,,,,,,,
,5fb975626117db7f817aec36,627c700a7929ddf571594b9f,2022-05-11_22h25.34.012,classification_task,2021.2.3,Win32,143.472023,627c6715c52fd12f31907bd0,,,,,,,,,,,,,,,,,,,,,,,l,1,1.4304,"[""0.047"",""0.397"",""0.534"",""0.688""]","[1,1,1,0]",0,60,60,60,1,1,0,,,1,FALSE,,,,,,,,,,,,,,,,,,,,,,,,,,,,,,,
,5fb975626117db7f817aec36,627c700a7929ddf571594b9f,2022-05-11_22h25.34.012,classification_task,2021.2.3,Win32,143.472023,627c6715c52fd12f31907bd0,,,,,,,,,,,,,,,,,,,,,,,l,1,0.9972,"[""0.147"",""0.192"",""0.622"",""0.098""]","[1,1,1,0]",0,61,61,61,1,1,1,,,1,FALSE,,,,,,,,,,,,,,,,,,,,,,,,,,,,,,,
,5fb975626117db7f817aec36,627c700a7929ddf571594b9f,2022-05-11_22h25.34.012,classification_task,2021.2.3,Win32,143.472023,627c6715c52fd12f31907bd0,,,,,,,,,,,,,,,,,,,,,,,a,1,0.9717,"[""0.688"",""0.451"",""0.586"",""0.914""]","[0,1,1,1]",0,62,62,62,1,0,1,,,1,FALSE,,,,,,,,,,,,,,,,,,,,,,,,,,,,,,,
,5fb975626117db7f817aec36,627c700a7929ddf571594b9f,2022-05-11_22h25.34.012,classification_task,2021.2.3,Win32,143.472023,627c6715c52fd12f31907bd0,,,,,,,,,,,,,,,,,,,,,,,l,0,0.8034,"[""0.234"",""0.328"",""0.661"",""0.962""]","[1,1,0,1]",0,63,63,63,1,0,0,,,1,FALSE,,,,,,,,,,,,,,,,,,,,,,,,,,,,,,,
,5fb975626117db7f817aec36,627c700a7929ddf571594b9f,2022-05-11_22h25.34.012,classification_task,2021.2.3,Win32,143.472023,627c6715c52fd12f31907bd0,,,,,,,,,,,,,,,,,,,,,,,,,,,,,,,,,,,,,,,0, ,,0,2.997502591,163.8253,0,1,1,1,1,2,2,,,,,,,,,,,,,,,,,,
,5fb975626117db7f817aec36,627c700a7929ddf571594b9f,2022-05-11_22h25.34.012,classification_task,2021.2.3,Win32,143.472023,627c6715c52fd12f31907bd0,,,,,,,,,,,,,,,,,,,,,,,,,,,,,,,,,,,,,,,1,  ,,0,2.483097804,167.8528,0,1,1,1,1,2,2,,,,,,,,,,,,,,,,,,
,5fb975626117db7f817aec36,627c700a7929ddf571594b9f,2022-05-11_22h25.34.012,classification_task,2021.2.3,Win32,143.472023,627c6715c52fd12f31907bd0,,,,,,,,,,,,,,,,,,,,,,,,,,,,,,,,,,,,,,,2,  ,,0,6.62281991,170.2907,0,1,1,1,1,2,2,,,,,,,,,,,,,,,,,,
,5fb975626117db7f817aec36,627c700a7929ddf571594b9f,2022-05-11_22h25.34.012,classification_task,2021.2.3,Win32,143.472023,627c6715c52fd12f31907bd0,,,,,,,,,,,,,,,,,,,,,,,,,,,,,,,,,,,,,,,,,,,,,0,1,1,1,1,,2,,,,,,,,,,,,,,,,,,
,5fb975626117db7f817aec36,627c700a7929ddf571594b9f,2022-05-11_22h25.34.012,classification_task,2021.2.3,Win32,143.472023,627c6715c52fd12f31907bd0,,,,,,,,,,,,,,,,,,,,,space,8.9702,l,1,4.8609,"[""0.047"",""0.661"",""0.534"",""0.755""]","[1,0,1,1]",0,0,0,0,1,1,0,,,1,FALSE,,,,,,,,,,,,,,,,,,,,,,,,,,,,,,,
,5fb975626117db7f817aec36,627c700a7929ddf571594b9f,2022-05-11_22h25.34.012,classification_task,2021.2.3,Win32,143.472023,627c6715c52fd12f31907bd0,,,,,,,,,,,,,,,,,,,,,,,l,1,2.0715,"[""0.147"",""0.192"",""0.500"",""0.825""]","[1,1,0,1]",0,1,1,1,1,1,1,,,1,FALSE,,,,,,,,,,,,,,,,,,,,,,,,,,,,,,,
,5fb975626117db7f817aec36,627c700a7929ddf571594b9f,2022-05-11_22h25.34.012,classification_task,2021.2.3,Win32,143.472023,627c6715c52fd12f31907bd0,,,,,,,,,,,,,,,,,,,,,,,l,1,2.9227,"[""0.147"",""0.496"",""0.622"",""0.825""]","[1,0,1,1]",0,2,2,2,1,1,1,,,1,FALSE,,,,,,,,,,,,,,,,,,,,,,,,,,,,,,,
,5fb975626117db7f817aec36,627c700a7929ddf571594b9f,2022-05-11_22h25.34.012,classification_task,2021.2.3,Win32,143.472023,627c6715c52fd12f31907bd0,,,,,,,,,,,,,,,,,,,,,,,a,1,1.3353,"[""0.234"",""0.098"",""0.879"",""0.962""]","[1,0,1,1]",0,3,3,3,1,0,0,,,1,FALSE,,,,,,,,,,,,,,,,,,,,,,,,,,,,,,,
,5fb975626117db7f817aec36,627c700a7929ddf571594b9f,2022-05-11_22h25.34.012,classification_task,2021.2.3,Win32,143.472023,627c6715c52fd12f31907bd0,,,,,,,,,,,,,,,,,,,,,,,l,0,1.6243,"[""0.269"",""0.693"",""0.586"",""0.914""]","[1,0,1,1]",0,4,4,4,1,0,1,,,1,FALSE,,,,,,,,,,,,,,,,,,,,,,,,,,,,,,,
,5fb975626117db7f817aec36,627c700a7929ddf571594b9f,2022-05-11_22h25.34.012,classification_task,2021.2.3,Win32,143.472023,627c6715c52fd12f31907bd0,,,,,,,,,,,,,,,,,,,,,,,a,1,1.118,"[""0.234"",""0.328"",""0.688"",""0.962""]","[1,1,0,1]",0,5,5,5,1,0,0,,,1,FALSE,,,,,,,,,,,,,,,,,,,,,,,,,,,,,,,
,5fb975626117db7f817aec36,627c700a7929ddf571594b9f,2022-05-11_22h25.34.012,classification_task,2021.2.3,Win32,143.472023,627c6715c52fd12f31907bd0,,,,,,,,,,,,,,,,,,,,,,,a,0,2.0623,"[""0.047"",""0.397"",""0.534"",""0.699""]","[1,1,1,0]",0,6,6,6,1,1,0,,,1,FALSE,,,,,,,,,,,,,,,,,,,,,,,,,,,,,,,
,5fb975626117db7f817aec36,627c700a7929ddf571594b9f,2022-05-11_22h25.34.012,classification_task,2021.2.3,Win32,143.472023,627c6715c52fd12f31907bd0,,,,,,,,,,,,,,,,,,,,,,,l,1,1.183,"[""0.047"",""0.397"",""0.699"",""0.755""]","[1,1,0,1]",0,7,7,7,1,1,0,,,1,FALSE,,,,,,,,,,,,,,,,,,,,,,,,,,,,,,,
,5fb975626117db7f817aec36,627c700a7929ddf571594b9f,2022-05-11_22h25.34.012,classification_task,2021.2.3,Win32,143.472023,627c6715c52fd12f31907bd0,,,,,,,,,,,,,,,,,,,,,,,a,1,1.9095,"[""0.499"",""0.451"",""0.586"",""0.914""]","[0,1,1,1]",0,8,8,8,1,0,1,,,1,FALSE,,,,,,,,,,,,,,,,,,,,,,,,,,,,,,,
,5fb975626117db7f817aec36,627c700a7929ddf571594b9f,2022-05-11_22h25.34.012,classification_task,2021.2.3,Win32,143.472023,627c6715c52fd12f31907bd0,,,,,,,,,,,,,,,,,,,,,,,a,1,2.105,"[""0.234"",""0.328"",""0.879"",""0.484""]","[1,1,1,0]",0,9,9,9,1,0,0,,,1,FALSE,,,,,,,,,,,,,,,,,,,,,,,,,,,,,,,
,5fb975626117db7f817aec36,627c700a7929ddf571594b9f,2022-05-11_22h25.34.012,classification_task,2021.2.3,Win32,143.472023,627c6715c52fd12f31907bd0,,,,,,,,,,,,,,,,,,,,,,,a,0,2.8051,"[""0.696"",""0.397"",""0.534"",""0.755""]","[0,1,1,1]",0,10,10,10,1,1,0,,,1,FALSE,,,,,,,,,,,,,,,,,,,,,,,,,,,,,,,
,5fb975626117db7f817aec36,627c700a7929ddf571594b9f,2022-05-11_22h25.34.012,classification_task,2021.2.3,Win32,143.472023,627c6715c52fd12f31907bd0,,,,,,,,,,,,,,,,,,,,,,,l,0,1.704,"[""0.269"",""0.451"",""0.586"",""0.484""]","[1,1,1,0]",0,11,11,11,1,0,1,,,1,FALSE,,,,,,,,,,,,,,,,,,,,,,,,,,,,,,,
,5fb975626117db7f817aec36,627c700a7929ddf571594b9f,2022-05-11_22h25.34.012,classification_task,2021.2.3,Win32,143.472023,627c6715c52fd12f31907bd0,,,,,,,,,,,,,,,,,,,,,,,l,1,1.6315,"[""0.098"",""0.192"",""0.622"",""0.825""]","[0,1,1,1]",0,12,12,12,1,1,1,,,1,FALSE,,,,,,,,,,,,,,,,,,,,,,,,,,,,,,,
,5fb975626117db7f817aec36,627c700a7929ddf571594b9f,2022-05-11_22h25.34.012,classification_task,2021.2.3,Win32,143.472023,627c6715c52fd12f31907bd0,,,,,,,,,,,,,,,,,,,,,,,l,0,1.752,"[""0.269"",""0.451"",""0.677"",""0.914""]","[1,1,0,1]",0,13,13,13,1,0,1,,,1,FALSE,,,,,,,,,,,,,,,,,,,,,,,,,,,,,,,
,5fb975626117db7f817aec36,627c700a7929ddf571594b9f,2022-05-11_22h25.34.012,classification_task,2021.2.3,Win32,143.472023,627c6715c52fd12f31907bd0,,,,,,,,,,,,,,,,,,,,,,,a,0,1.1811,"[""0.147"",""0.192"",""0.622"",""0.496""]","[1,1,1,0]",0,14,14,14,1,1,1,,,1,FALSE,,,,,,,,,,,,,,,,,,,,,,,,,,,,,,,
,5fb975626117db7f817aec36,627c700a7929ddf571594b9f,2022-05-11_22h25.34.012,classification_task,2021.2.3,Win32,143.472023,627c6715c52fd12f31907bd0,,,,,,,,,,,,,,,,,,,,,,,a,1,0.993,"[""0.696"",""0.328"",""0.879"",""0.962""]","[0,1,1,1]",0,15,15,15,1,0,0,,,1,FALSE,,,,,,,,,,,,,,,,,,,,,,,,,,,,,,,
,5fb975626117db7f817aec36,627c700a7929ddf571594b9f,2022-05-11_22h25.34.012,classification_task,2021.2.3,Win32,143.472023,627c6715c52fd12f31907bd0,,,,,,,,,,,,,,,,,,,,,,,l,1,1.0133,"[""0.047"",""0.397"",""0.098"",""0.755""]","[1,1,0,1]",0,16,16,16,1,1,0,,,1,FALSE,,,,,,,,,,,,,,,,,,,,,,,,,,,,,,,
,5fb975626117db7f817aec36,627c700a7929ddf571594b9f,2022-05-11_22h25.34.012,classification_task,2021.2.3,Win32,143.472023,627c6715c52fd12f31907bd0,,,,,,,,,,,,,,,,,,,,,,,a,1,2.0406,"[""0.269"",""0.677"",""0.586"",""0.914""]","[1,0,1,1]",0,17,17,17,1,0,1,,,1,FALSE,,,,,,,,,,,,,,,,,,,,,,,,,,,,,,,
,5fb975626117db7f817aec36,627c700a7929ddf571594b9f,2022-05-11_22h25.34.012,classification_task,2021.2.3,Win32,143.472023,627c6715c52fd12f31907bd0,,,,,,,,,,,,,,,,,,,,,,,a,1,5.6271,"[""0.234"",""0.788"",""0.879"",""0.962""]","[1,0,1,1]",0,18,18,18,1,0,0,,,1,FALSE,,,,,,,,,,,,,,,,,,,,,,,,,,,,,,,
,5fb975626117db7f817aec36,627c700a7929ddf571594b9f,2022-05-11_22h25.34.012,classification_task,2021.2.3,Win32,143.472023,627c6715c52fd12f31907bd0,,,,,,,,,,,,,,,,,,,,,,,l,1,1.6894,"[""0.147"",""0.192"",""0.622"",""0.498""]","[1,1,1,0]",0,19,19,19,1,1,1,,,1,FALSE,,,,,,,,,,,,,,,,,,,,,,,,,,,,,,,
,5fb975626117db7f817aec36,627c700a7929ddf571594b9f,2022-05-11_22h25.34.012,classification_task,2021.2.3,Win32,143.472023,627c6715c52fd12f31907bd0,,,,,,,,,,,,,,,,,,,,,,,l,1,1.9924,"[""0.147"",""0.677"",""0.622"",""0.825""]","[1,0,1,1]",0,20,20,20,1,1,1,,,1,FALSE,,,,,,,,,,,,,,,,,,,,,,,,,,,,,,,
,5fb975626117db7f817aec36,627c700a7929ddf571594b9f,2022-05-11_22h25.34.012,classification_task,2021.2.3,Win32,143.472023,627c6715c52fd12f31907bd0,,,,,,,,,,,,,,,,,,,,,,,a,1,2.062,"[""0.499"",""0.451"",""0.586"",""0.914""]","[0,1,1,1]",0,21,21,21,1,0,1,,,1,FALSE,,,,,,,,,,,,,,,,,,,,,,,,,,,,,,,
,5fb975626117db7f817aec36,627c700a7929ddf571594b9f,2022-05-11_22h25.34.012,classification_task,2021.2.3,Win32,143.472023,627c6715c52fd12f31907bd0,,,,,,,,,,,,,,,,,,,,,,,a,1,4.0135,"[""0.269"",""0.451"",""0.484"",""0.914""]","[1,1,0,1]",0,22,22,22,1,0,1,,,1,FALSE,,,,,,,,,,,,,,,,,,,,,,,,,,,,,,,
,5fb975626117db7f817aec36,627c700a7929ddf571594b9f,2022-05-11_22h25.34.012,classification_task,2021.2.3,Win32,143.472023,627c6715c52fd12f31907bd0,,,,,,,,,,,,,,,,,,,,,,,a,1,2.3979,"[""0.234"",""0.328"",""0.696"",""0.962""]","[1,1,0,1]",0,23,23,23,1,0,0,,,1,FALSE,,,,,,,,,,,,,,,,,,,,,,,,,,,,,,,
,5fb975626117db7f817aec36,627c700a7929ddf571594b9f,2022-05-11_22h25.34.012,classification_task,2021.2.3,Win32,143.472023,627c6715c52fd12f31907bd0,,,,,,,,,,,,,,,,,,,,,,,l,1,3.8704,"[""0.147"",""0.192"",""0.696"",""0.825""]","[1,1,0,1]",0,24,24,24,1,1,1,,,1,FALSE,,,,,,,,,,,,,,,,,,,,,,,,,,,,,,,
,5fb975626117db7f817aec36,627c700a7929ddf571594b9f,2022-05-11_22h25.34.012,classification_task,2021.2.3,Win32,143.472023,627c6715c52fd12f31907bd0,,,,,,,,,,,,,,,,,,,,,,,a,1,3.912,"[""0.269"",""0.451"",""0.586"",""0.677""]","[1,1,1,0]",0,25,25,25,1,0,1,,,1,FALSE,,,,,,,,,,,,,,,,,,,,,,,,,,,,,,,
,5fb975626117db7f817aec36,627c700a7929ddf571594b9f,2022-05-11_22h25.34.012,classification_task,2021.2.3,Win32,143.472023,627c6715c52fd12f31907bd0,,,,,,,,,,,,,,,,,,,,,,,a,1,1.9667,"[""0.788"",""0.328"",""0.879"",""0.962""]","[0,1,1,1]",0,26,26,26,1,0,0,,,1,FALSE,,,,,,,,,,,,,,,,,,,,,,,,,,,,,,,
,5fb975626117db7f817aec36,627c700a7929ddf571594b9f,2022-05-11_22h25.34.012,classification_task,2021.2.3,Win32,143.472023,627c6715c52fd12f31907bd0,,,,,,,,,,,,,,,,,,,,,,,l,1,3.2707,"[""0.661"",""0.397"",""0.534"",""0.755""]","[0,1,1,1]",0,27,27,27,1,1,0,,,1,FALSE,,,,,,,,,,,,,,,,,,,,,,,,,,,,,,,
,5fb975626117db7f817aec36,627c700a7929ddf571594b9f,2022-05-11_22h25.34.012,classification_task,2021.2.3,Win32,143.472023,627c6715c52fd12f31907bd0,,,,,,,,,,,,,,,,,,,,,,,l,1,2.1206,"[""0.047"",""0.485"",""0.534"",""0.755""]","[1,0,1,1]",0,28,28,28,1,1,0,,,1,FALSE,,,,,,,,,,,,,,,,,,,,,,,,,,,,,,,
,5fb975626117db7f817aec36,627c700a7929ddf571594b9f,2022-05-11_22h25.34.012,classification_task,2021.2.3,Win32,143.472023,627c6715c52fd12f31907bd0,,,,,,,,,,,,,,,,,,,,,,,a,1,2.9327,"[""0.234"",""0.328"",""0.879"",""0.688""]","[1,1,1,0]",0,29,29,29,1,0,0,,,1,FALSE,,,,,,,,,,,,,,,,,,,,,,,,,,,,,,,
,5fb975626117db7f817aec36,627c700a7929ddf571594b9f,2022-05-11_22h25.34.012,classification_task,2021.2.3,Win32,143.472023,627c6715c52fd12f31907bd0,,,,,,,,,,,,,,,,,,,,,,,l,1,2.1039,"[""0.047"",""0.397"",""0.534"",""0.096""]","[1,1,1,0]",0,30,30,30,1,1,0,,,1,FALSE,,,,,,,,,,,,,,,,,,,,,,,,,,,,,,,
,5fb975626117db7f817aec36,627c700a7929ddf571594b9f,2022-05-11_22h25.34.012,classification_task,2021.2.3,Win32,143.472023,627c6715c52fd12f31907bd0,,,,,,,,,,,,,,,,,,,,,,,a,0,3.25,"[""0.699"",""0.192"",""0.622"",""0.825""]","[0,1,1,1]",0,31,31,31,1,1,1,,,1,FALSE,,,,,,,,,,,,,,,,,,,,,,,,,,,,,,,
,5fb975626117db7f817aec36,627c700a7929ddf571594b9f,2022-05-11_22h25.34.012,classification_task,2021.2.3,Win32,143.472023,627c6715c52fd12f31907bd0,,,,,,,,,,,,,,,,,,,,,,,l,1,1.8067,"[""0.147"",""0.192"",""0.622"",""0.498""]","[1,1,1,0]",0,32,32,32,1,1,1,,,1,FALSE,,,,,,,,,,,,,,,,,,,,,,,,,,,,,,,
,5fb975626117db7f817aec36,627c700a7929ddf571594b9f,2022-05-11_22h25.34.012,classification_task,2021.2.3,Win32,143.472023,627c6715c52fd12f31907bd0,,,,,,,,,,,,,,,,,,,,,,,l,0,3.7515,"[""0.269"",""0.451"",""0.586"",""0.500""]","[1,1,1,0]",0,33,33,33,1,0,1,,,1,FALSE,,,,,,,,,,,,,,,,,,,,,,,,,,,,,,,
,5fb975626117db7f817aec36,627c700a7929ddf571594b9f,2022-05-11_22h25.34.012,classification_task,2021.2.3,Win32,143.472023,627c6715c52fd12f31907bd0,,,,,,,,,,,,,,,,,,,,,,,l,1,3.0903,"[""0.047"",""0.485"",""0.534"",""0.755""]","[1,0,1,1]",0,34,34,34,1,1,0,,,1,FALSE,,,,,,,,,,,,,,,,,,,,,,,,,,,,,,,
,5fb975626117db7f817aec36,627c700a7929ddf571594b9f,2022-05-11_22h25.34.012,classification_task,2021.2.3,Win32,143.472023,627c6715c52fd12f31907bd0,,,,,,,,,,,,,,,,,,,,,,,a,1,1.6035,"[""0.234"",""0.328"",""0.879"",""0.496""]","[1,1,1,0]",0,35,35,35,1,0,0,,,1,FALSE,,,,,,,,,,,,,,,,,,,,,,,,,,,,,,,
,5fb975626117db7f817aec36,627c700a7929ddf571594b9f,2022-05-11_22h25.34.012,classification_task,2021.2.3,Win32,143.472023,627c6715c52fd12f31907bd0,,,,,,,,,,,,,,,,,,,,,,,a,1,2.2356,"[""0.269"",""0.498"",""0.586"",""0.914""]","[1,0,1,1]",0,36,36,36,1,0,1,,,1,FALSE,,,,,,,,,,,,,,,,,,,,,,,,,,,,,,,
,5fb975626117db7f817aec36,627c700a7929ddf571594b9f,2022-05-11_22h25.34.012,classification_task,2021.2.3,Win32,143.472023,627c6715c52fd12f31907bd0,,,,,,,,,,,,,,,,,,,,,,,l,1,2.1885,"[""0.693"",""0.397"",""0.534"",""0.755""]","[0,1,1,1]",0,37,37,37,1,1,0,,,1,FALSE,,,,,,,,,,,,,,,,,,,,,,,,,,,,,,,
,5fb975626117db7f817aec36,627c700a7929ddf571594b9f,2022-05-11_22h25.34.012,classification_task,2021.2.3,Win32,143.472023,627c6715c52fd12f31907bd0,,,,,,,,,,,,,,,,,,,,,,,a,1,1.1334,"[""0.234"",""0.328"",""0.688"",""0.962""]","[1,1,0,1]",0,38,38,38,1,0,0,,,1,FALSE,,,,,,,,,,,,,,,,,,,,,,,,,,,,,,,
,5fb975626117db7f817aec36,627c700a7929ddf571594b9f,2022-05-11_22h25.34.012,classification_task,2021.2.3,Win32,143.472023,627c6715c52fd12f31907bd0,,,,,,,,,,,,,,,,,,,,,,,a,1,3.6872,"[""0.269"",""0.451"",""0.098"",""0.914""]","[1,1,0,1]",0,39,39,39,1,0,1,,,1,FALSE,,,,,,,,,,,,,,,,,,,,,,,,,,,,,,,
,5fb975626117db7f817aec36,627c700a7929ddf571594b9f,2022-05-11_22h25.34.012,classification_task,2021.2.3,Win32,143.472023,627c6715c52fd12f31907bd0,,,,,,,,,,,,,,,,,,,,,,,l,1,4.2024,"[""0.699"",""0.192"",""0.622"",""0.825""]","[0,1,1,1]",0,40,40,40,1,1,1,,,1,FALSE,,,,,,,,,,,,,,,,,,,,,,,,,,,,,,,
,5fb975626117db7f817aec36,627c700a7929ddf571594b9f,2022-05-11_22h25.34.012,classification_task,2021.2.3,Win32,143.472023,627c6715c52fd12f31907bd0,,,,,,,,,,,,,,,,,,,,,,,l,1,3.8075,"[""0.147"",""0.192"",""0.500"",""0.825""]","[1,1,0,1]",0,41,41,41,1,1,1,,,1,FALSE,,,,,,,,,,,,,,,,,,,,,,,,,,,,,,,
,5fb975626117db7f817aec36,627c700a7929ddf571594b9f,2022-05-11_22h25.34.012,classification_task,2021.2.3,Win32,143.472023,627c6715c52fd12f31907bd0,,,,,,,,,,,,,,,,,,,,,,,a,1,1.423,"[""0.661"",""0.451"",""0.586"",""0.914""]","[0,1,1,1]",0,42,42,42,1,0,1,,,1,FALSE,,,,,,,,,,,,,,,,,,,,,,,,,,,,,,,
,5fb975626117db7f817aec36,627c700a7929ddf571594b9f,2022-05-11_22h25.34.012,classification_task,2021.2.3,Win32,143.472023,627c6715c52fd12f31907bd0,,,,,,,,,,,,,,,,,,,,,,,a,1,1.3193,"[""0.696"",""0.328"",""0.879"",""0.962""]","[0,1,1,1]",0,43,43,43,1,0,0,,,1,FALSE,,,,,,,,,,,,,,,,,,,,,,,,,,,,,,,
,5fb975626117db7f817aec36,627c700a7929ddf571594b9f,2022-05-11_22h25.34.012,classification_task,2021.2.3,Win32,143.472023,627c6715c52fd12f31907bd0,,,,,,,,,,,,,,,,,,,,,,,l,1,2.9821,"[""0.147"",""0.661"",""0.622"",""0.825""]","[1,0,1,1]",0,44,44,44,1,1,1,,,1,FALSE,,,,,,,,,,,,,,,,,,,,,,,,,,,,,,,
,5fb975626117db7f817aec36,627c700a7929ddf571594b9f,2022-05-11_22h25.34.012,classification_task,2021.2.3,Win32,143.472023,627c6715c52fd12f31907bd0,,,,,,,,,,,,,,,,,,,,,,,l,1,2.1549,"[""0.047"",""0.397"",""0.534"",""0.661""]","[1,1,1,0]",0,45,45,45,1,1,0,,,1,FALSE,,,,,,,,,,,,,,,,,,,,,,,,,,,,,,,
,5fb975626117db7f817aec36,627c700a7929ddf571594b9f,2022-05-11_22h25.34.012,classification_task,2021.2.3,Win32,143.472023,627c6715c52fd12f31907bd0,,,,,,,,,,,,,,,,,,,,,,,a,1,3.2911,"[""0.234"",""0.661"",""0.879"",""0.962""]","[1,0,1,1]",0,46,46,46,1,0,0,,,1,FALSE,,,,,,,,,,,,,,,,,,,,,,,,,,,,,,,
,5fb975626117db7f817aec36,627c700a7929ddf571594b9f,2022-05-11_22h25.34.012,classification_task,2021.2.3,Win32,143.472023,627c6715c52fd12f31907bd0,,,,,,,,,,,,,,,,,,,,,,,l,1,1.6624,"[""0.047"",""0.397"",""0.688"",""0.755""]","[1,1,0,1]",0,47,47,47,1,1,0,,,1,FALSE,,,,,,,,,,,,,,,,,,,,,,,,,,,,,,,
,5fb975626117db7f817aec36,627c700a7929ddf571594b9f,2022-05-11_22h25.34.012,classification_task,2021.2.3,Win32,143.472023,627c6715c52fd12f31907bd0,,,,,,,,,,,,,,,,,,,,,,,a,1,2.1693,"[""0.234"",""0.788"",""0.879"",""0.962""]","[1,0,1,1]",0,48,48,48,1,0,0,,,1,FALSE,,,,,,,,,,,,,,,,,,,,,,,,,,,,,,,
,5fb975626117db7f817aec36,627c700a7929ddf571594b9f,2022-05-11_22h25.34.012,classification_task,2021.2.3,Win32,143.472023,627c6715c52fd12f31907bd0,,,,,,,,,,,,,,,,,,,,,,,l,0,1.6736,"[""0.234"",""0.328"",""0.098"",""0.962""]","[1,1,0,1]",0,49,49,49,1,0,0,,,1,FALSE,,,,,,,,,,,,,,,,,,,,,,,,,,,,,,,
,5fb975626117db7f817aec36,627c700a7929ddf571594b9f,2022-05-11_22h25.34.012,classification_task,2021.2.3,Win32,143.472023,627c6715c52fd12f31907bd0,,,,,,,,,,,,,,,,,,,,,,,a,1,3.4996,"[""0.234"",""0.328"",""0.879"",""0.661""]","[1,1,1,0]",0,50,50,50,1,0,0,,,1,FALSE,,,,,,,,,,,,,,,,,,,,,,,,,,,,,,,
,5fb975626117db7f817aec36,627c700a7929ddf571594b9f,2022-05-11_22h25.34.012,classification_task,2021.2.3,Win32,143.472023,627c6715c52fd12f31907bd0,,,,,,,,,,,,,,,,,,,,,,,l,1,4.5977,"[""0.147"",""0.192"",""0.485"",""0.825""]","[1,1,0,1]",0,51,51,51,1,1,1,,,1,FALSE,,,,,,,,,,,,,,,,,,,,,,,,,,,,,,,
,5fb975626117db7f817aec36,627c700a7929ddf571594b9f,2022-05-11_22h25.34.012,classification_task,2021.2.3,Win32,143.472023,627c6715c52fd12f31907bd0,,,,,,,,,,,,,,,,,,,,,,,a,1,3.4946,"[""0.269"",""0.451"",""0.586"",""0.677""]","[1,1,1,0]",0,52,52,52,1,0,1,,,1,FALSE,,,,,,,,,,,,,,,,,,,,,,,,,,,,,,,
,5fb975626117db7f817aec36,627c700a7929ddf571594b9f,2022-05-11_22h25.34.012,classification_task,2021.2.3,Win32,143.472023,627c6715c52fd12f31907bd0,,,,,,,,,,,,,,,,,,,,,,,l,1,2.6678,"[""0.147"",""0.788"",""0.622"",""0.825""]","[1,0,1,1]",0,53,53,53,1,1,1,,,1,FALSE,,,,,,,,,,,,,,,,,,,,,,,,,,,,,,,
,5fb975626117db7f817aec36,627c700a7929ddf571594b9f,2022-05-11_22h25.34.012,classification_task,2021.2.3,Win32,143.472023,627c6715c52fd12f31907bd0,,,,,,,,,,,,,,,,,,,,,,,l,1,2.25,"[""0.500"",""0.397"",""0.534"",""0.755""]","[0,1,1,1]",0,54,54,54,1,1,0,,,1,FALSE,,,,,,,,,,,,,,,,,,,,,,,,,,,,,,,
,5fb975626117db7f817aec36,627c700a7929ddf571594b9f,2022-05-11_22h25.34.012,classification_task,2021.2.3,Win32,143.472023,627c6715c52fd12f31907bd0,,,,,,,,,,,,,,,,,,,,,,,a,1,2.4855,"[""0.269"",""0.096"",""0.586"",""0.914""]","[1,0,1,1]",0,55,55,55,1,0,1,,,1,FALSE,,,,,,,,,,,,,,,,,,,,,,,,,,,,,,,
,5fb975626117db7f817aec36,627c700a7929ddf571594b9f,2022-05-11_22h25.34.012,classification_task,2021.2.3,Win32,143.472023,627c6715c52fd12f31907bd0,,,,,,,,,,,,,,,,,,,,,,,a,1,2.4389,"[""0.499"",""0.328"",""0.879"",""0.962""]","[0,1,1,1]",0,56,56,56,1,0,0,,,1,FALSE,,,,,,,,,,,,,,,,,,,,,,,,,,,,,,,
,5fb975626117db7f817aec36,627c700a7929ddf571594b9f,2022-05-11_22h25.34.012,classification_task,2021.2.3,Win32,143.472023,627c6715c52fd12f31907bd0,,,,,,,,,,,,,,,,,,,,,,,l,0,2.9607,"[""0.269"",""0.451"",""0.661"",""0.914""]","[1,1,0,1]",0,57,57,57,1,0,1,,,1,FALSE,,,,,,,,,,,,,,,,,,,,,,,,,,,,,,,
,5fb975626117db7f817aec36,627c700a7929ddf571594b9f,2022-05-11_22h25.34.012,classification_task,2021.2.3,Win32,143.472023,627c6715c52fd12f31907bd0,,,,,,,,,,,,,,,,,,,,,,,l,1,1.766,"[""0.047"",""0.661"",""0.534"",""0.755""]","[1,0,1,1]",0,58,58,58,1,1,0,,,1,FALSE,,,,,,,,,,,,,,,,,,,,,,,,,,,,,,,
,5fb975626117db7f817aec36,627c700a7929ddf571594b9f,2022-05-11_22h25.34.012,classification_task,2021.2.3,Win32,143.472023,627c6715c52fd12f31907bd0,,,,,,,,,,,,,,,,,,,,,,,a,1,1.8885,"[""0.485"",""0.451"",""0.586"",""0.914""]","[0,1,1,1]",0,59,59,59,1,0,1,,,1,FALSE,,,,,,,,,,,,,,,,,,,,,,,,,,,,,,,
,5fb975626117db7f817aec36,627c700a7929ddf571594b9f,2022-05-11_22h25.34.012,classification_task,2021.2.3,Win32,143.472023,627c6715c52fd12f31907bd0,,,,,,,,,,,,,,,,,,,,,,,l,1,2.194,"[""0.147"",""0.192"",""0.622"",""0.696""]","[1,1,1,0]",0,60,60,60,1,1,1,,,1,FALSE,,,,,,,,,,,,,,,,,,,,,,,,,,,,,,,
,5fb975626117db7f817aec36,627c700a7929ddf571594b9f,2022-05-11_22h25.34.012,classification_task,2021.2.3,Win32,143.472023,627c6715c52fd12f31907bd0,,,,,,,,,,,,,,,,,,,,,,,l,1,2.0828,"[""0.047"",""0.397"",""0.500"",""0.755""]","[1,1,0,1]",0,61,61,61,1,1,0,,,1,FALSE,,,,,,,,,,,,,,,,,,,,,,,,,,,,,,,
,5fb975626117db7f817aec36,627c700a7929ddf571594b9f,2022-05-11_22h25.34.012,classification_task,2021.2.3,Win32,143.472023,627c6715c52fd12f31907bd0,,,,,,,,,,,,,,,,,,,,,,,l,1,2.5222,"[""0.688"",""0.192"",""0.622"",""0.825""]","[0,1,1,1]",0,62,62,62,1,1,1,,,1,FALSE,,,,,,,,,,,,,,,,,,,,,,,,,,,,,,,
,5fb975626117db7f817aec36,627c700a7929ddf571594b9f,2022-05-11_22h25.34.012,classification_task,2021.2.3,Win32,143.472023,627c6715c52fd12f31907bd0,,,,,,,,,,,,,,,,,,,,,,,l,1,2.5408,"[""0.047"",""0.397"",""0.534"",""0.098""]","[1,1,1,0]",0,63,63,63,1,1,0,,,1,FALSE,,,,,,,,,,,,,,,,,,,,,,,,,,,,,,,
,5fb975626117db7f817aec36,627c700a7929ddf571594b9f,2022-05-11_22h25.34.012,classification_task,2021.2.3,Win32,143.472023,627c6715c52fd12f31907bd0,,,,,,,,,,,,,,,,,,,,,,,,,,,,,,,,,,,,,,,0, ,,0,4.36924433,234.1369,0,2,2,2,1,2,3,,,,,,,,,,,,,,,,,,
,5fb975626117db7f817aec36,627c700a7929ddf571594b9f,2022-05-11_22h25.34.012,classification_task,2021.2.3,Win32,143.472023,627c6715c52fd12f31907bd0,,,,,,,,,,,,,,,,,,,,,,,,,,,,,,,,,,,,,,,1,  ,,0,3.291446582,237.2581,0,2,2,2,1,2,3,,,,,,,,,,,,,,,,,,
,5fb975626117db7f817aec36,627c700a7929ddf571594b9f,2022-05-11_22h25.34.012,classification_task,2021.2.3,Win32,143.472023,627c6715c52fd12f31907bd0,,,,,,,,,,,,,,,,,,,,,,,,,,,,,,,,,,,,,,,2,  ,,0,5.471537099,238.8377,0,2,2,2,1,2,3,,,,,,,,,,,,,,,,,,
,5fb975626117db7f817aec36,627c700a7929ddf571594b9f,2022-05-11_22h25.34.012,classification_task,2021.2.3,Win32,143.472023,627c6715c52fd12f31907bd0,,,,,,,,,,,,,,,,,,,,,,,,,,,,,,,,,,,,,,,,,,,,,0,2,2,2,1,,3,,,,,,,,,,,,,,,,,,
,5fb975626117db7f817aec36,627c700a7929ddf571594b9f,2022-05-11_22h25.34.012,classification_task,2021.2.3,Win32,143.472023,627c6715c52fd12f31907bd0,,,,,,,,,,,,,,,,,,,,,,,,,,,,,,,,,,,,,,,,,,,,,,,,,,,,,I believe the aid is a competent performer,,0.7,0,2,917.7966,0,0,0,0,1,0,,,,,
,5fb975626117db7f817aec36,627c700a7929ddf571594b9f,2022-05-11_22h25.34.012,classification_task,2021.2.3,Win32,143.472023,627c6715c52fd12f31907bd0,,,,,,,,,,,,,,,,,,,,,,,,,,,,,,,,,,,,,,,,,,,,,,,,,,,,,I trust the aid,,0.7,0,2,919.504,0,0,0,0,1,0,,,,,
,5fb975626117db7f817aec36,627c700a7929ddf571594b9f,2022-05-11_22h25.34.012,classification_task,2021.2.3,Win32,143.472023,627c6715c52fd12f31907bd0,,,,,,,,,,,,,,,,,,,,,,,,,,,,,,,,,,,,,,,,,,,,,,,,,,,,,I have confidence in the advice given by the aid,,0.7,0,2,921.2601,0,0,0,0,1,0,,,,,
,5fb975626117db7f817aec36,627c700a7929ddf571594b9f,2022-05-11_22h25.34.012,classification_task,2021.2.3,Win32,143.472023,627c6715c52fd12f31907bd0,,,,,,,,,,,,,,,,,,,,,,,,,,,,,,,,,,,,,,,,,,,,,,,,,,,,,I can depend on the aid,,0.7,0,2,922.7102,0,0,0,0,1,0,,,,,
,5fb975626117db7f817aec36,627c700a7929ddf571594b9f,2022-05-11_22h25.34.012,classification_task,2021.2.3,Win32,143.472023,627c6715c52fd12f31907bd0,,,,,,,,,,,,,,,,,,,,,,,,,,,,,,,,,,,,,,,,,,,,,,,,,,,,,I can rely on the aid to behave in consistent ways,,0.7,0,2,925.6261,0,0,0,0,1,0,,,,,
,5fb975626117db7f817aec36,627c700a7929ddf571594b9f,2022-05-11_22h25.34.012,classification_task,2021.2.3,Win32,143.472023,627c6715c52fd12f31907bd0,,,,,,,,,,,,,,,,,,,,,,,,,,,,,,,,,,,,,,,,,,,,,,,,,,,,,I can rely on the aid to do its best every time I take its advice,,0.7,0,2,928.4697,0,0,0,0,1,0,,,,,
,5fb975626117db7f817aec36,627c700a7929ddf571594b9f,2022-05-11_22h25.34.012,classification_task,2021.2.3,Win32,143.472023,627c6715c52fd12f31907bd0,,,,,,,,,,,,,,,,,,,,,,,,,,,,,,,,,,,,,,,,,,,,,,,,,,,,,"On trials you completed with assistance from the aid, how frequently did you think the aid was correct?",,0.7,0,50,,0,0,0,0,1,0,,,,,
,5fb975626117db7f817aec36,627c700a7929ddf571594b9f,2022-05-11_22h25.34.012,classification_task,2021.2.3,Win32,143.472023,627c6715c52fd12f31907bd0,,,,,,,,,,,,,,,,,,,,,,,,,,,,,,,,,,,,,,,,,,,,,,,,,,,,,"On trials you completed without the aid, how frequently did you think you were correct?",,0.7,0,50,,0,0,0,0,1,0,,,,,
,5fb975626117db7f817aec36,627c700a7929ddf571594b9f,2022-05-11_22h25.34.012,classification_task,2021.2.3,Win32,143.472023,627c6715c52fd12f31907bd0,,,,,,,,,,,,,,,,,,,,,,,,,,,,,,,,,,,,,,,,,,,,,,,,,,,,,,,,,,,0,0,0,0,1,,,,,,
,5fb975626117db7f817aec36,627c700a7929ddf571594b9f,2022-05-11_22h25.34.012,classification_task,2021.2.3,Win32,143.472023,627c6715c52fd12f31907bd0,,,,,,,,,,,,,,,,,,,,,,,,,,,,,,,,,,,,,,,,,,,,,,,,,,,,,,,,,,,,,,,,,return,11.0224,954.1284,,
,5fb975626117db7f817aec36,627c700a7929ddf571594b9f,2022-05-11_22h25.34.012,classification_task,2021.2.3,Win32,143.472023,627c6715c52fd12f31907bd0,,,,,,,,,,,,,,,,,,,,,,,,,,,,,,,,,,,,,,,,,,,,,,,,,,,,,,,,,,,,,,,,,,,,"Mozilla/5.0 (Windows NT 10.0; Win64; x64) AppleWebKit/537.36 (KHTML, like Gecko) Chrome/100.0.4896.127 Safari/537.36",
,5fb975626117db7f817aec36,627c700a7929ddf571594b9f,2022-05-11_22h25.34.012,classification_task,2021.2.3,Win32,143.472023,627c6715c52fd12f31907bd0,,,,,,,,,,,,,,,,,,,,,,,,,,,,,,,,,,,,,,,,,,,,,,,,,,,,,,,,,,,,,,,,,,,,,HIGHLIGHT
