usingWebGL,participant,session,date,expName,psychopyVersion,OS,frameRate,study_id,signatures_friend,signatures_foe,band_ranges_top,band_ranges_bottom,formitemText,formtype,formundefined,formitemWidth,formindex,formresponse,formrt,key_resp_2.keys,key_resp_2.rt,tute_resp.keys,tute_resp.rt,tutorial.thisRepN,tutorial.thisTrialN,tutorial.thisN,tutorial.thisIndex,tutorial.ran,key_resp_4.keys,key_resp_4.rt,key_resp.keys,key_resp.corr,key_resp.rt,lines_presented,is_signal_presented,trials.thisRepN,trials.thisTrialN,trials.thisN,trials.thisIndex,trials.ran,vessel,active_band,lines,is_signal,supported_pos,catch_trial,debrief_formindex,debrief_formitemText,debrief_formtype,debrief_formitemWidth,debrief_formresponse,debrief_formrt,phases.thisRepN,phases.thisTrialN,phases.thisN,phases.thisIndex,phases.ran,phases.order,phase,key_resp_3.keys,trustitemText,trusttype,trustitemWidth,trustindex,trustresponse,trustrt,support_status.thisRepN,support_status.thisTrialN,support_status.thisN,support_status.thisIndex,support_status.ran,support_status.order,key_resp_5.keys,key_resp_5.rt,globalClockTime,userAgent,manualCondition
TRUE,5fbb74f7d40ee2c8e428af65,627c6eb47b3813347a8a8a0d,2022-05-11_22h19.54.911,classification_task,2021.2.3,Win32,165.6177542,627c6715c52fd12f31907bcf,,,,,,,,,,,,,,,,,,,,,,,,,,,,,,,,,,,,,,,,,,,,,,,,,,,,,,,,,,,,,,,,,,,,,
,5fbb74f7d40ee2c8e428af65,627c6eb47b3813347a8a8a0d,2022-05-11_22h19.54.911,classification_task,2021.2.3,Win32,165.6177542,627c6715c52fd12f31907bcf,"[[""0.246"",""0.364"",""0.589"",""0.880""],[""0.198"",""0.443"",""0.925"",""0.974""]]","[[""0.038"",""0.323"",""0.494"",""0.806""],[""0.150"",""0.280"",""0.550"",""0.720""]]","[1,10]","[100,1000]",Video game experience,,,0.7,0,,,,,,,,,,,,,,,,,,,,,,,,,,,,,,,,,,,,,,,,,,,,,,,,,,,,,,,,,,,,
,5fbb74f7d40ee2c8e428af65,627c6eb47b3813347a8a8a0d,2022-05-11_22h19.54.911,classification_task,2021.2.3,Win32,165.6177542,627c6715c52fd12f31907bcf,,,,,Approximately how many hours did you spend playing video games in the last week?,,,0.7,0,30,,,,,,,,,,,,,,,,,,,,,,,,,,,,,,,,,,,,,,,,,,,,,,,,,,,,,,,,,,,
,5fbb74f7d40ee2c8e428af65,627c6eb47b3813347a8a8a0d,2022-05-11_22h19.54.911,classification_task,2021.2.3,Win32,165.6177542,627c6715c52fd12f31907bcf,,,,,"Which game did you play the most this year? (Enter ""None"" if you didn't play any)",,,0.7,0,League of Legends,,,,,,,,,,,,,,,,,,,,,,,,,,,,,,,,,,,,,,,,,,,,,,,,,,,,,,,,,,,
,5fbb74f7d40ee2c8e428af65,627c6eb47b3813347a8a8a0d,2022-05-11_22h19.54.911,classification_task,2021.2.3,Win32,165.6177542,627c6715c52fd12f31907bcf,,,,,Visual perception,,,0.7,0,,,,,,,,,,,,,,,,,,,,,,,,,,,,,,,,,,,,,,,,,,,,,,,,,,,,,,,,,,,,
,5fbb74f7d40ee2c8e428af65,627c6eb47b3813347a8a8a0d,2022-05-11_22h19.54.911,classification_task,2021.2.3,Win32,165.6177542,627c6715c52fd12f31907bcf,,,,,Do you have any form of color blindness?,,,0.7,0,No,25.5093,,,,,,,,,,,,,,,,,,,,,,,,,,,,,,,,,,,,,,,,,,,,,,,,,,,,,,,,,,
,5fbb74f7d40ee2c8e428af65,627c6eb47b3813347a8a8a0d,2022-05-11_22h19.54.911,classification_task,2021.2.3,Win32,165.6177542,627c6715c52fd12f31907bcf,,,,,Do you use software to change the colour temperature of your screen (e.g. f.lux)?,,,0.7,0,No,29.4946,,,,,,,,,,,,,,,,,,,,,,,,,,,,,,,,,,,,,,,,,,,,,,,,,,,,,,,,,,
,5fbb74f7d40ee2c8e428af65,627c6eb47b3813347a8a8a0d,2022-05-11_22h19.54.911,classification_task,2021.2.3,Win32,165.6177542,627c6715c52fd12f31907bcf,,,,,,,,,,,,space,32.685,space,14.5538,0,0,0,0,1,,,,,,,,,,,,,,,,,,,,,,,,,,,,,,,,,,,,,,,,,,,,,,,,,
,5fbb74f7d40ee2c8e428af65,627c6eb47b3813347a8a8a0d,2022-05-11_22h19.54.911,classification_task,2021.2.3,Win32,165.6177542,627c6715c52fd12f31907bcf,,,,,,,,,,,,,,space,14.3195,1,0,1,0,1,,,,,,,,,,,,,,,,,,,,,,,,,,,,,,,,,,,,,,,,,,,,,,,,,
,5fbb74f7d40ee2c8e428af65,627c6eb47b3813347a8a8a0d,2022-05-11_22h19.54.911,classification_task,2021.2.3,Win32,165.6177542,627c6715c52fd12f31907bcf,,,,,,,,,,,,,,space,25.7415,2,0,2,0,1,,,,,,,,,,,,,,,,,,,,,,,,,,,,,,,,,,,,,,,,,,,,,,,,,
,5fbb74f7d40ee2c8e428af65,627c6eb47b3813347a8a8a0d,2022-05-11_22h19.54.911,classification_task,2021.2.3,Win32,165.6177542,627c6715c52fd12f31907bcf,,,,,,,,,,,,,,space,33.7151,3,0,3,0,1,,,,,,,,,,,,,,,,,,,,,,,,,,,,,,,,,,,,,,,,,,,,,,,,,
,5fbb74f7d40ee2c8e428af65,627c6eb47b3813347a8a8a0d,2022-05-11_22h19.54.911,classification_task,2021.2.3,Win32,165.6177542,627c6715c52fd12f31907bcf,,,,,,,,,,,,,,space,13.8489,4,0,4,0,1,,,,,,,,,,,,,,,,,,,,,,,,,,,,,,,,,,,,,,,,,,,,,,,,,
,5fbb74f7d40ee2c8e428af65,627c6eb47b3813347a8a8a0d,2022-05-11_22h19.54.911,classification_task,2021.2.3,Win32,165.6177542,627c6715c52fd12f31907bcf,,,,,,,,,,,,,,,,,,,,,space,17.8373,l,1,3.1744,"[""0.150"",""0.280"",""0.629"",""0.720""]","[1,1,0,1]",0,0,0,0,1,1,1,,,1,FALSE,,,,,,,,,,,,,,,,,,,,,,,,,,,,,,,
,5fbb74f7d40ee2c8e428af65,627c6eb47b3813347a8a8a0d,2022-05-11_22h19.54.911,classification_task,2021.2.3,Win32,165.6177542,627c6715c52fd12f31907bcf,,,,,,,,,,,,,,,,,,,,,,,l,1,4.226,"[""0.402"",""0.323"",""0.494"",""0.806""]","[0,1,1,1]",0,1,1,1,1,1,0,,,1,FALSE,,,,,,,,,,,,,,,,,,,,,,,,,,,,,,,
,5fbb74f7d40ee2c8e428af65,627c6eb47b3813347a8a8a0d,2022-05-11_22h19.54.911,classification_task,2021.2.3,Win32,165.6177542,627c6715c52fd12f31907bcf,,,,,,,,,,,,,,,,,,,,,,,l,1,7.4262,"[""0.150"",""0.077"",""0.550"",""0.720""]","[1,0,1,1]",0,2,2,2,1,1,1,,,1,FALSE,,,,,,,,,,,,,,,,,,,,,,,,,,,,,,,
,5fbb74f7d40ee2c8e428af65,627c6eb47b3813347a8a8a0d,2022-05-11_22h19.54.911,classification_task,2021.2.3,Win32,165.6177542,627c6715c52fd12f31907bcf,,,,,,,,,,,,,,,,,,,,,,,a,1,3.3241,"[""0.246"",""0.364"",""0.840"",""0.880""]","[1,1,0,1]",0,3,3,3,1,0,0,,,1,FALSE,,,,,,,,,,,,,,,,,,,,,,,,,,,,,,,
,5fbb74f7d40ee2c8e428af65,627c6eb47b3813347a8a8a0d,2022-05-11_22h19.54.911,classification_task,2021.2.3,Win32,165.6177542,627c6715c52fd12f31907bcf,,,,,,,,,,,,,,,,,,,,,,,a,1,3.1881,"[""0.198"",""0.681"",""0.925"",""0.974""]","[1,0,1,1]",0,4,4,4,1,0,1,,,1,FALSE,,,,,,,,,,,,,,,,,,,,,,,,,,,,,,,
,5fbb74f7d40ee2c8e428af65,627c6eb47b3813347a8a8a0d,2022-05-11_22h19.54.911,classification_task,2021.2.3,Win32,165.6177542,627c6715c52fd12f31907bcf,,,,,,,,,,,,,,,,,,,,,,,l,1,3.9535,"[""0.038"",""0.323"",""0.759"",""0.806""]","[1,1,0,1]",0,5,5,5,1,1,0,,,1,FALSE,,,,,,,,,,,,,,,,,,,,,,,,,,,,,,,
,5fbb74f7d40ee2c8e428af65,627c6eb47b3813347a8a8a0d,2022-05-11_22h19.54.911,classification_task,2021.2.3,Win32,165.6177542,627c6715c52fd12f31907bcf,,,,,,,,,,,,,,,,,,,,,,,a,1,1.8498,"[""0.246"",""0.364"",""0.589"",""0.645""]","[1,1,1,0]",0,6,6,6,1,0,0,,,1,FALSE,,,,,,,,,,,,,,,,,,,,,,,,,,,,,,,
,5fbb74f7d40ee2c8e428af65,627c6eb47b3813347a8a8a0d,2022-05-11_22h19.54.911,classification_task,2021.2.3,Win32,165.6177542,627c6715c52fd12f31907bcf,,,,,,,,,,,,,,,,,,,,,,,a,1,3.1047,"[""0.091"",""0.443"",""0.925"",""0.974""]","[0,1,1,1]",0,7,7,7,1,0,1,,,1,FALSE,,,,,,,,,,,,,,,,,,,,,,,,,,,,,,,
,5fbb74f7d40ee2c8e428af65,627c6eb47b3813347a8a8a0d,2022-05-11_22h19.54.911,classification_task,2021.2.3,Win32,165.6177542,627c6715c52fd12f31907bcf,,,,,,,,,,,,,,,,,,,,,,,l,1,3.4096,"[""0.150"",""0.280"",""0.550"",""0.629""]","[1,1,1,0]",0,8,8,8,1,1,1,,,1,FALSE,,,,,,,,,,,,,,,,,,,,,,,,,,,,,,,
,5fbb74f7d40ee2c8e428af65,627c6eb47b3813347a8a8a0d,2022-05-11_22h19.54.911,classification_task,2021.2.3,Win32,165.6177542,627c6715c52fd12f31907bcf,,,,,,,,,,,,,,,,,,,,,,,a,1,2.785,"[""0.246"",""0.655"",""0.589"",""0.880""]","[1,0,1,1]",0,9,9,9,1,0,0,,,1,FALSE,,,,,,,,,,,,,,,,,,,,,,,,,,,,,,,
,5fbb74f7d40ee2c8e428af65,627c6eb47b3813347a8a8a0d,2022-05-11_22h19.54.911,classification_task,2021.2.3,Win32,165.6177542,627c6715c52fd12f31907bcf,,,,,,,,,,,,,,,,,,,,,,,a,1,5.1265,"[""0.198"",""0.443"",""0.925"",""0.072""]","[1,1,1,0]",0,10,10,10,1,0,1,,,1,FALSE,,,,,,,,,,,,,,,,,,,,,,,,,,,,,,,
,5fbb74f7d40ee2c8e428af65,627c6eb47b3813347a8a8a0d,2022-05-11_22h19.54.911,classification_task,2021.2.3,Win32,165.6177542,627c6715c52fd12f31907bcf,,,,,,,,,,,,,,,,,,,,,,,a,1,8.6112,"[""0.682"",""0.364"",""0.589"",""0.880""]","[0,1,1,1]",0,11,11,11,1,0,0,,,1,FALSE,,,,,,,,,,,,,,,,,,,,,,,,,,,,,,,
,5fbb74f7d40ee2c8e428af65,627c6eb47b3813347a8a8a0d,2022-05-11_22h19.54.911,classification_task,2021.2.3,Win32,165.6177542,627c6715c52fd12f31907bcf,,,,,,,,,,,,,,,,,,,,,,,l,1,6.004,"[""0.038"",""0.323"",""0.494"",""0.655""]","[1,1,1,0]",0,12,12,12,1,1,0,,,1,FALSE,,,,,,,,,,,,,,,,,,,,,,,,,,,,,,,
,5fbb74f7d40ee2c8e428af65,627c6eb47b3813347a8a8a0d,2022-05-11_22h19.54.911,classification_task,2021.2.3,Win32,165.6177542,627c6715c52fd12f31907bcf,,,,,,,,,,,,,,,,,,,,,,,l,1,4.1896,"[""0.091"",""0.280"",""0.550"",""0.720""]","[0,1,1,1]",0,13,13,13,1,1,1,,,1,FALSE,,,,,,,,,,,,,,,,,,,,,,,,,,,,,,,
,5fbb74f7d40ee2c8e428af65,627c6eb47b3813347a8a8a0d,2022-05-11_22h19.54.911,classification_task,2021.2.3,Win32,165.6177542,627c6715c52fd12f31907bcf,,,,,,,,,,,,,,,,,,,,,,,a,1,3.1793,"[""0.198"",""0.443"",""0.106"",""0.974""]","[1,1,0,1]",0,14,14,14,1,0,1,,,1,FALSE,,,,,,,,,,,,,,,,,,,,,,,,,,,,,,,
,5fbb74f7d40ee2c8e428af65,627c6eb47b3813347a8a8a0d,2022-05-11_22h19.54.911,classification_task,2021.2.3,Win32,165.6177542,627c6715c52fd12f31907bcf,,,,,,,,,,,,,,,,,,,,,,,l,1,5.2917,"[""0.038"",""0.072"",""0.494"",""0.806""]","[1,0,1,1]",0,15,15,15,1,1,0,,,1,FALSE,,,,,,,,,,,,,,,,,,,,,,,,,,,,,,,
,5fbb74f7d40ee2c8e428af65,627c6eb47b3813347a8a8a0d,2022-05-11_22h19.54.911,classification_task,2021.2.3,Win32,165.6177542,627c6715c52fd12f31907bcf,,,,,,,,,,,,,,,,,,,,,,,a,1,3.9875,"[""0.198"",""0.106"",""0.925"",""0.974""]","[1,0,1,1]",0,16,16,16,1,0,1,,,1,FALSE,,,,,,,,,,,,,,,,,,,,,,,,,,,,,,,
,5fbb74f7d40ee2c8e428af65,627c6eb47b3813347a8a8a0d,2022-05-11_22h19.54.911,classification_task,2021.2.3,Win32,165.6177542,627c6715c52fd12f31907bcf,,,,,,,,,,,,,,,,,,,,,,,a,1,3.9162,"[""0.246"",""0.364"",""0.682"",""0.880""]","[1,1,0,1]",0,17,17,17,1,0,0,,,1,FALSE,,,,,,,,,,,,,,,,,,,,,,,,,,,,,,,
,5fbb74f7d40ee2c8e428af65,627c6eb47b3813347a8a8a0d,2022-05-11_22h19.54.911,classification_task,2021.2.3,Win32,165.6177542,627c6715c52fd12f31907bcf,,,,,,,,,,,,,,,,,,,,,,,l,1,5.3363,"[""0.150"",""0.280"",""0.550"",""0.645""]","[1,1,1,0]",0,18,18,18,1,1,1,,,1,FALSE,,,,,,,,,,,,,,,,,,,,,,,,,,,,,,,
,5fbb74f7d40ee2c8e428af65,627c6eb47b3813347a8a8a0d,2022-05-11_22h19.54.911,classification_task,2021.2.3,Win32,165.6177542,627c6715c52fd12f31907bcf,,,,,,,,,,,,,,,,,,,,,,,a,1,4.6023,"[""0.077"",""0.443"",""0.925"",""0.974""]","[0,1,1,1]",0,19,19,19,1,0,1,,,1,FALSE,,,,,,,,,,,,,,,,,,,,,,,,,,,,,,,
,5fbb74f7d40ee2c8e428af65,627c6eb47b3813347a8a8a0d,2022-05-11_22h19.54.911,classification_task,2021.2.3,Win32,165.6177542,627c6715c52fd12f31907bcf,,,,,,,,,,,,,,,,,,,,,,,l,1,3.1752,"[""0.150"",""0.106"",""0.550"",""0.720""]","[1,0,1,1]",0,20,20,20,1,1,1,,,1,FALSE,,,,,,,,,,,,,,,,,,,,,,,,,,,,,,,
,5fbb74f7d40ee2c8e428af65,627c6eb47b3813347a8a8a0d,2022-05-11_22h19.54.911,classification_task,2021.2.3,Win32,165.6177542,627c6715c52fd12f31907bcf,,,,,,,,,,,,,,,,,,,,,,,l,1,4.8872,"[""0.150"",""0.280"",""0.402"",""0.720""]","[1,1,0,1]",0,21,21,21,1,1,1,,,1,FALSE,,,,,,,,,,,,,,,,,,,,,,,,,,,,,,,
,5fbb74f7d40ee2c8e428af65,627c6eb47b3813347a8a8a0d,2022-05-11_22h19.54.911,classification_task,2021.2.3,Win32,165.6177542,627c6715c52fd12f31907bcf,,,,,,,,,,,,,,,,,,,,,,,a,1,8.5442,"[""0.761"",""0.364"",""0.589"",""0.880""]","[0,1,1,1]",0,22,22,22,1,0,0,,,1,FALSE,,,,,,,,,,,,,,,,,,,,,,,,,,,,,,,
,5fbb74f7d40ee2c8e428af65,627c6eb47b3813347a8a8a0d,2022-05-11_22h19.54.911,classification_task,2021.2.3,Win32,165.6177542,627c6715c52fd12f31907bcf,,,,,,,,,,,,,,,,,,,,,,,a,1,6.487,"[""0.198"",""0.443"",""0.645"",""0.974""]","[1,1,0,1]",0,23,23,23,1,0,1,,,1,FALSE,,,,,,,,,,,,,,,,,,,,,,,,,,,,,,,
,5fbb74f7d40ee2c8e428af65,627c6eb47b3813347a8a8a0d,2022-05-11_22h19.54.911,classification_task,2021.2.3,Win32,165.6177542,627c6715c52fd12f31907bcf,,,,,,,,,,,,,,,,,,,,,,,l,0,2.673,"[""0.246"",""0.072"",""0.589"",""0.880""]","[1,0,1,1]",0,24,24,24,1,0,0,,,1,FALSE,,,,,,,,,,,,,,,,,,,,,,,,,,,,,,,
,5fbb74f7d40ee2c8e428af65,627c6eb47b3813347a8a8a0d,2022-05-11_22h19.54.911,classification_task,2021.2.3,Win32,165.6177542,627c6715c52fd12f31907bcf,,,,,,,,,,,,,,,,,,,,,,,l,1,4.5248,"[""0.655"",""0.323"",""0.494"",""0.806""]","[0,1,1,1]",0,25,25,25,1,1,0,,,1,FALSE,,,,,,,,,,,,,,,,,,,,,,,,,,,,,,,
,5fbb74f7d40ee2c8e428af65,627c6eb47b3813347a8a8a0d,2022-05-11_22h19.54.911,classification_task,2021.2.3,Win32,165.6177542,627c6715c52fd12f31907bcf,,,,,,,,,,,,,,,,,,,,,,,a,1,2.1996,"[""0.198"",""0.443"",""0.925"",""0.402""]","[1,1,1,0]",0,26,26,26,1,0,1,,,1,FALSE,,,,,,,,,,,,,,,,,,,,,,,,,,,,,,,
,5fbb74f7d40ee2c8e428af65,627c6eb47b3813347a8a8a0d,2022-05-11_22h19.54.911,classification_task,2021.2.3,Win32,165.6177542,627c6715c52fd12f31907bcf,,,,,,,,,,,,,,,,,,,,,,,l,1,3.3758,"[""0.038"",""0.759"",""0.494"",""0.806""]","[1,0,1,1]",0,27,27,27,1,1,0,,,1,FALSE,,,,,,,,,,,,,,,,,,,,,,,,,,,,,,,
,5fbb74f7d40ee2c8e428af65,627c6eb47b3813347a8a8a0d,2022-05-11_22h19.54.911,classification_task,2021.2.3,Win32,165.6177542,627c6715c52fd12f31907bcf,,,,,,,,,,,,,,,,,,,,,,,l,1,2.4617,"[""0.038"",""0.323"",""0.840"",""0.806""]","[1,1,0,1]",0,28,28,28,1,1,0,,,1,FALSE,,,,,,,,,,,,,,,,,,,,,,,,,,,,,,,
,5fbb74f7d40ee2c8e428af65,627c6eb47b3813347a8a8a0d,2022-05-11_22h19.54.911,classification_task,2021.2.3,Win32,165.6177542,627c6715c52fd12f31907bcf,,,,,,,,,,,,,,,,,,,,,,,a,1,1.7802,"[""0.246"",""0.364"",""0.589"",""0.682""]","[1,1,1,0]",0,29,29,29,1,0,0,,,1,FALSE,,,,,,,,,,,,,,,,,,,,,,,,,,,,,,,
,5fbb74f7d40ee2c8e428af65,627c6eb47b3813347a8a8a0d,2022-05-11_22h19.54.911,classification_task,2021.2.3,Win32,165.6177542,627c6715c52fd12f31907bcf,,,,,,,,,,,,,,,,,,,,,,,l,1,2.0751,"[""0.038"",""0.323"",""0.494"",""0.629""]","[1,1,1,0]",0,30,30,30,1,1,0,,,1,FALSE,,,,,,,,,,,,,,,,,,,,,,,,,,,,,,,
,5fbb74f7d40ee2c8e428af65,627c6eb47b3813347a8a8a0d,2022-05-11_22h19.54.911,classification_task,2021.2.3,Win32,165.6177542,627c6715c52fd12f31907bcf,,,,,,,,,,,,,,,,,,,,,,,l,1,2.3392,"[""0.106"",""0.280"",""0.550"",""0.720""]","[0,1,1,1]",0,31,31,31,1,1,1,,,1,FALSE,,,,,,,,,,,,,,,,,,,,,,,,,,,,,,,
,5fbb74f7d40ee2c8e428af65,627c6eb47b3813347a8a8a0d,2022-05-11_22h19.54.911,classification_task,2021.2.3,Win32,165.6177542,627c6715c52fd12f31907bcf,,,,,,,,,,,,,,,,,,,,,,,a,1,2.7679,"[""0.198"",""0.443"",""0.925"",""0.645""]","[1,1,1,0]",0,32,32,32,1,0,1,,,1,FALSE,,,,,,,,,,,,,,,,,,,,,,,,,,,,,,,
,5fbb74f7d40ee2c8e428af65,627c6eb47b3813347a8a8a0d,2022-05-11_22h19.54.911,classification_task,2021.2.3,Win32,165.6177542,627c6715c52fd12f31907bcf,,,,,,,,,,,,,,,,,,,,,,,l,1,1.8318,"[""0.150"",""0.280"",""0.550"",""0.643""]","[1,1,1,0]",0,33,33,33,1,1,1,,,1,FALSE,,,,,,,,,,,,,,,,,,,,,,,,,,,,,,,
,5fbb74f7d40ee2c8e428af65,627c6eb47b3813347a8a8a0d,2022-05-11_22h19.54.911,classification_task,2021.2.3,Win32,165.6177542,627c6715c52fd12f31907bcf,,,,,,,,,,,,,,,,,,,,,,,a,1,1.1738,"[""0.072"",""0.443"",""0.925"",""0.974""]","[0,1,1,1]",0,34,34,34,1,0,1,,,1,FALSE,,,,,,,,,,,,,,,,,,,,,,,,,,,,,,,
,5fbb74f7d40ee2c8e428af65,627c6eb47b3813347a8a8a0d,2022-05-11_22h19.54.911,classification_task,2021.2.3,Win32,165.6177542,627c6715c52fd12f31907bcf,,,,,,,,,,,,,,,,,,,,,,,l,0,0.6027,"[""0.198"",""0.443"",""0.682"",""0.974""]","[1,1,0,1]",0,35,35,35,1,0,1,,,1,FALSE,,,,,,,,,,,,,,,,,,,,,,,,,,,,,,,
,5fbb74f7d40ee2c8e428af65,627c6eb47b3813347a8a8a0d,2022-05-11_22h19.54.911,classification_task,2021.2.3,Win32,165.6177542,627c6715c52fd12f31907bcf,,,,,,,,,,,,,,,,,,,,,,,l,1,1.2287,"[""0.072"",""0.323"",""0.494"",""0.806""]","[0,1,1,1]",0,36,36,36,1,1,0,,,1,FALSE,,,,,,,,,,,,,,,,,,,,,,,,,,,,,,,
,5fbb74f7d40ee2c8e428af65,627c6eb47b3813347a8a8a0d,2022-05-11_22h19.54.911,classification_task,2021.2.3,Win32,165.6177542,627c6715c52fd12f31907bcf,,,,,,,,,,,,,,,,,,,,,,,a,1,0.7158,"[""0.246"",""0.094"",""0.589"",""0.880""]","[1,0,1,1]",0,37,37,37,1,0,0,,,1,FALSE,,,,,,,,,,,,,,,,,,,,,,,,,,,,,,,
,5fbb74f7d40ee2c8e428af65,627c6eb47b3813347a8a8a0d,2022-05-11_22h19.54.911,classification_task,2021.2.3,Win32,165.6177542,627c6715c52fd12f31907bcf,,,,,,,,,,,,,,,,,,,,,,,l,1,0.5535,"[""0.038"",""0.323"",""0.643"",""0.806""]","[1,1,0,1]",0,38,38,38,1,1,0,,,1,FALSE,,,,,,,,,,,,,,,,,,,,,,,,,,,,,,,
,5fbb74f7d40ee2c8e428af65,627c6eb47b3813347a8a8a0d,2022-05-11_22h19.54.911,classification_task,2021.2.3,Win32,165.6177542,627c6715c52fd12f31907bcf,,,,,,,,,,,,,,,,,,,,,,,l,1,1.9116,"[""0.150"",""0.645"",""0.550"",""0.720""]","[1,0,1,1]",0,39,39,39,1,1,1,,,1,FALSE,,,,,,,,,,,,,,,,,,,,,,,,,,,,,,,
,5fbb74f7d40ee2c8e428af65,627c6eb47b3813347a8a8a0d,2022-05-11_22h19.54.911,classification_task,2021.2.3,Win32,165.6177542,627c6715c52fd12f31907bcf,,,,,,,,,,,,,,,,,,,,,,,a,1,0.7023,"[""0.198"",""0.106"",""0.925"",""0.974""]","[1,0,1,1]",0,40,40,40,1,0,1,,,1,FALSE,,,,,,,,,,,,,,,,,,,,,,,,,,,,,,,
,5fbb74f7d40ee2c8e428af65,627c6eb47b3813347a8a8a0d,2022-05-11_22h19.54.911,classification_task,2021.2.3,Win32,165.6177542,627c6715c52fd12f31907bcf,,,,,,,,,,,,,,,,,,,,,,,l,0,1.1028,"[""0.246"",""0.364"",""0.629"",""0.880""]","[1,1,0,1]",0,41,41,41,1,0,0,,,1,FALSE,,,,,,,,,,,,,,,,,,,,,,,,,,,,,,,
,5fbb74f7d40ee2c8e428af65,627c6eb47b3813347a8a8a0d,2022-05-11_22h19.54.911,classification_task,2021.2.3,Win32,165.6177542,627c6715c52fd12f31907bcf,,,,,,,,,,,,,,,,,,,,,,,a,0,0.7956,"[""0.150"",""0.280"",""0.629"",""0.720""]","[1,1,0,1]",0,42,42,42,1,1,1,,,1,FALSE,,,,,,,,,,,,,,,,,,,,,,,,,,,,,,,
,5fbb74f7d40ee2c8e428af65,627c6eb47b3813347a8a8a0d,2022-05-11_22h19.54.911,classification_task,2021.2.3,Win32,165.6177542,627c6715c52fd12f31907bcf,,,,,,,,,,,,,,,,,,,,,,,l,1,1.0044,"[""0.761"",""0.280"",""0.550"",""0.720""]","[0,1,1,1]",0,43,43,43,1,1,1,,,1,FALSE,,,,,,,,,,,,,,,,,,,,,,,,,,,,,,,
,5fbb74f7d40ee2c8e428af65,627c6eb47b3813347a8a8a0d,2022-05-11_22h19.54.911,classification_task,2021.2.3,Win32,165.6177542,627c6715c52fd12f31907bcf,,,,,,,,,,,,,,,,,,,,,,,l,0,0.6855,"[""0.246"",""0.364"",""0.589"",""0.629""]","[1,1,1,0]",0,44,44,44,1,0,0,,,1,FALSE,,,,,,,,,,,,,,,,,,,,,,,,,,,,,,,
,5fbb74f7d40ee2c8e428af65,627c6eb47b3813347a8a8a0d,2022-05-11_22h19.54.911,classification_task,2021.2.3,Win32,165.6177542,627c6715c52fd12f31907bcf,,,,,,,,,,,,,,,,,,,,,,,l,1,0.8362,"[""0.038"",""0.643"",""0.494"",""0.806""]","[1,0,1,1]",0,45,45,45,1,1,0,,,1,FALSE,,,,,,,,,,,,,,,,,,,,,,,,,,,,,,,
,5fbb74f7d40ee2c8e428af65,627c6eb47b3813347a8a8a0d,2022-05-11_22h19.54.911,classification_task,2021.2.3,Win32,165.6177542,627c6715c52fd12f31907bcf,,,,,,,,,,,,,,,,,,,,,,,l,0,0.6846,"[""0.682"",""0.364"",""0.589"",""0.880""]","[0,1,1,1]",0,46,46,46,1,0,0,,,1,FALSE,,,,,,,,,,,,,,,,,,,,,,,,,,,,,,,
,5fbb74f7d40ee2c8e428af65,627c6eb47b3813347a8a8a0d,2022-05-11_22h19.54.911,classification_task,2021.2.3,Win32,165.6177542,627c6715c52fd12f31907bcf,,,,,,,,,,,,,,,,,,,,,,,a,0,0.5787,"[""0.038"",""0.323"",""0.494"",""0.840""]","[1,1,1,0]",0,47,47,47,1,1,0,,,1,FALSE,,,,,,,,,,,,,,,,,,,,,,,,,,,,,,,
,5fbb74f7d40ee2c8e428af65,627c6eb47b3813347a8a8a0d,2022-05-11_22h19.54.911,classification_task,2021.2.3,Win32,165.6177542,627c6715c52fd12f31907bcf,,,,,,,,,,,,,,,,,,,,,,,a,1,0.434,"[""0.246"",""0.681"",""0.589"",""0.880""]","[1,0,1,1]",0,48,48,48,1,0,0,,,1,FALSE,,,,,,,,,,,,,,,,,,,,,,,,,,,,,,,
,5fbb74f7d40ee2c8e428af65,627c6eb47b3813347a8a8a0d,2022-05-11_22h19.54.911,classification_task,2021.2.3,Win32,165.6177542,627c6715c52fd12f31907bcf,,,,,,,,,,,,,,,,,,,,,,,l,0,0.6287,"[""0.198"",""0.443"",""0.925"",""0.840""]","[1,1,1,0]",0,49,49,49,1,0,1,,,1,FALSE,,,,,,,,,,,,,,,,,,,,,,,,,,,,,,,
,5fbb74f7d40ee2c8e428af65,627c6eb47b3813347a8a8a0d,2022-05-11_22h19.54.911,classification_task,2021.2.3,Win32,165.6177542,627c6715c52fd12f31907bcf,,,,,,,,,,,,,,,,,,,,,,,l,0,0.5753,"[""0.681"",""0.364"",""0.589"",""0.880""]","[0,1,1,1]",0,50,50,50,1,0,0,,,1,FALSE,,,,,,,,,,,,,,,,,,,,,,,,,,,,,,,
,5fbb74f7d40ee2c8e428af65,627c6eb47b3813347a8a8a0d,2022-05-11_22h19.54.911,classification_task,2021.2.3,Win32,165.6177542,627c6715c52fd12f31907bcf,,,,,,,,,,,,,,,,,,,,,,,l,1,0.7509,"[""0.077"",""0.323"",""0.494"",""0.806""]","[0,1,1,1]",0,51,51,51,1,1,0,,,1,FALSE,,,,,,,,,,,,,,,,,,,,,,,,,,,,,,,
,5fbb74f7d40ee2c8e428af65,627c6eb47b3813347a8a8a0d,2022-05-11_22h19.54.911,classification_task,2021.2.3,Win32,165.6177542,627c6715c52fd12f31907bcf,,,,,,,,,,,,,,,,,,,,,,,a,0,0.562,"[""0.038"",""0.323"",""0.494"",""0.094""]","[1,1,1,0]",0,52,52,52,1,1,0,,,1,FALSE,,,,,,,,,,,,,,,,,,,,,,,,,,,,,,,
,5fbb74f7d40ee2c8e428af65,627c6eb47b3813347a8a8a0d,2022-05-11_22h19.54.911,classification_task,2021.2.3,Win32,165.6177542,627c6715c52fd12f31907bcf,,,,,,,,,,,,,,,,,,,,,,,a,0,0.7417,"[""0.150"",""0.280"",""0.643"",""0.720""]","[1,1,0,1]",0,53,53,53,1,1,1,,,1,FALSE,,,,,,,,,,,,,,,,,,,,,,,,,,,,,,,
,5fbb74f7d40ee2c8e428af65,627c6eb47b3813347a8a8a0d,2022-05-11_22h19.54.911,classification_task,2021.2.3,Win32,165.6177542,627c6715c52fd12f31907bcf,,,,,,,,,,,,,,,,,,,,,,,a,1,0.8552,"[""0.246"",""0.364"",""0.589"",""0.106""]","[1,1,1,0]",0,54,54,54,1,0,0,,,1,FALSE,,,,,,,,,,,,,,,,,,,,,,,,,,,,,,,
,5fbb74f7d40ee2c8e428af65,627c6eb47b3813347a8a8a0d,2022-05-11_22h19.54.911,classification_task,2021.2.3,Win32,165.6177542,627c6715c52fd12f31907bcf,,,,,,,,,,,,,,,,,,,,,,,l,1,1.1016,"[""0.150"",""0.683"",""0.550"",""0.720""]","[1,0,1,1]",0,55,55,55,1,1,1,,,1,FALSE,,,,,,,,,,,,,,,,,,,,,,,,,,,,,,,
,5fbb74f7d40ee2c8e428af65,627c6eb47b3813347a8a8a0d,2022-05-11_22h19.54.911,classification_task,2021.2.3,Win32,165.6177542,627c6715c52fd12f31907bcf,,,,,,,,,,,,,,,,,,,,,,,a,1,0.7077,"[""0.198"",""0.443"",""0.402"",""0.974""]","[1,1,0,1]",0,56,56,56,1,0,1,,,1,FALSE,,,,,,,,,,,,,,,,,,,,,,,,,,,,,,,
,5fbb74f7d40ee2c8e428af65,627c6eb47b3813347a8a8a0d,2022-05-11_22h19.54.911,classification_task,2021.2.3,Win32,165.6177542,627c6715c52fd12f31907bcf,,,,,,,,,,,,,,,,,,,,,,,l,1,0.615,"[""0.038"",""0.091"",""0.494"",""0.806""]","[1,0,1,1]",0,57,57,57,1,1,0,,,1,FALSE,,,,,,,,,,,,,,,,,,,,,,,,,,,,,,,
,5fbb74f7d40ee2c8e428af65,627c6eb47b3813347a8a8a0d,2022-05-11_22h19.54.911,classification_task,2021.2.3,Win32,165.6177542,627c6715c52fd12f31907bcf,,,,,,,,,,,,,,,,,,,,,,,l,1,0.653,"[""0.683"",""0.280"",""0.550"",""0.720""]","[0,1,1,1]",0,58,58,58,1,1,1,,,1,FALSE,,,,,,,,,,,,,,,,,,,,,,,,,,,,,,,
,5fbb74f7d40ee2c8e428af65,627c6eb47b3813347a8a8a0d,2022-05-11_22h19.54.911,classification_task,2021.2.3,Win32,165.6177542,627c6715c52fd12f31907bcf,,,,,,,,,,,,,,,,,,,,,,,l,1,0.6978,"[""0.038"",""0.323"",""0.759"",""0.806""]","[1,1,0,1]",0,59,59,59,1,1,0,,,1,FALSE,,,,,,,,,,,,,,,,,,,,,,,,,,,,,,,
,5fbb74f7d40ee2c8e428af65,627c6eb47b3813347a8a8a0d,2022-05-11_22h19.54.911,classification_task,2021.2.3,Win32,165.6177542,627c6715c52fd12f31907bcf,,,,,,,,,,,,,,,,,,,,,,,l,0,0.5007,"[""0.198"",""0.759"",""0.925"",""0.974""]","[1,0,1,1]",0,60,60,60,1,0,1,,,1,FALSE,,,,,,,,,,,,,,,,,,,,,,,,,,,,,,,
,5fbb74f7d40ee2c8e428af65,627c6eb47b3813347a8a8a0d,2022-05-11_22h19.54.911,classification_task,2021.2.3,Win32,165.6177542,627c6715c52fd12f31907bcf,,,,,,,,,,,,,,,,,,,,,,,l,1,1.0002,"[""0.150"",""0.280"",""0.550"",""0.681""]","[1,1,1,0]",0,61,61,61,1,1,1,,,1,FALSE,,,,,,,,,,,,,,,,,,,,,,,,,,,,,,,
,5fbb74f7d40ee2c8e428af65,627c6eb47b3813347a8a8a0d,2022-05-11_22h19.54.911,classification_task,2021.2.3,Win32,165.6177542,627c6715c52fd12f31907bcf,,,,,,,,,,,,,,,,,,,,,,,l,0,0.7352,"[""0.106"",""0.443"",""0.925"",""0.974""]","[0,1,1,1]",0,62,62,62,1,0,1,,,1,FALSE,,,,,,,,,,,,,,,,,,,,,,,,,,,,,,,
,5fbb74f7d40ee2c8e428af65,627c6eb47b3813347a8a8a0d,2022-05-11_22h19.54.911,classification_task,2021.2.3,Win32,165.6177542,627c6715c52fd12f31907bcf,,,,,,,,,,,,,,,,,,,,,,,l,0,0.6991,"[""0.246"",""0.364"",""0.840"",""0.880""]","[1,1,0,1]",0,63,63,63,1,0,0,,,1,FALSE,,,,,,,,,,,,,,,,,,,,,,,,,,,,,,,
,5fbb74f7d40ee2c8e428af65,627c6eb47b3813347a8a8a0d,2022-05-11_22h19.54.911,classification_task,2021.2.3,Win32,165.6177542,627c6715c52fd12f31907bcf,,,,,,,,,,,,,,,,,,,,,,,,,,,,,,,,,,,,,,,0, ,,0,4.384554886,444.7689,0,0,0,0,1,2,1,,,,,,,,,,,,,,,,,,
,5fbb74f7d40ee2c8e428af65,627c6eb47b3813347a8a8a0d,2022-05-11_22h19.54.911,classification_task,2021.2.3,Win32,165.6177542,627c6715c52fd12f31907bcf,,,,,,,,,,,,,,,,,,,,,,,,,,,,,,,,,,,,,,,1,  ,,0,9.767415665,449.1056,0,0,0,0,1,2,1,,,,,,,,,,,,,,,,,,
,5fbb74f7d40ee2c8e428af65,627c6eb47b3813347a8a8a0d,2022-05-11_22h19.54.911,classification_task,2021.2.3,Win32,165.6177542,627c6715c52fd12f31907bcf,,,,,,,,,,,,,,,,,,,,,,,,,,,,,,,,,,,,,,,2,  ,,0,8.389549704,453.3998,0,0,0,0,1,2,1,,,,,,,,,,,,,,,,,,
,5fbb74f7d40ee2c8e428af65,627c6eb47b3813347a8a8a0d,2022-05-11_22h19.54.911,classification_task,2021.2.3,Win32,165.6177542,627c6715c52fd12f31907bcf,,,,,,,,,,,,,,,,,,,,,,,,,,,,,,,,,,,,,,,,,,,,,0,0,0,0,1,,1,,,,,,,,,,,,,,,,,,
,5fbb74f7d40ee2c8e428af65,627c6eb47b3813347a8a8a0d,2022-05-11_22h19.54.911,classification_task,2021.2.3,Win32,165.6177542,627c6715c52fd12f31907bcf,,,,,,,,,,,,,,,,,,,,,space,5.6257,a,0,2.0317,"[""0.077"",""0.323"",""0.494"",""0.806""]","[0,1,1,1]",0,0,0,0,1,1,0,,,1,FALSE,,,,,,,,,,,,,,,,,,,,,,,,,,,,,,,
,5fbb74f7d40ee2c8e428af65,627c6eb47b3813347a8a8a0d,2022-05-11_22h19.54.911,classification_task,2021.2.3,Win32,165.6177542,627c6715c52fd12f31907bcf,,,,,,,,,,,,,,,,,,,,,,,a,0,0.7714,"[""0.038"",""0.761"",""0.494"",""0.806""]","[1,0,1,1]",0,1,1,1,1,1,0,,,1,FALSE,,,,,,,,,,,,,,,,,,,,,,,,,,,,,,,
,5fbb74f7d40ee2c8e428af65,627c6eb47b3813347a8a8a0d,2022-05-11_22h19.54.911,classification_task,2021.2.3,Win32,165.6177542,627c6715c52fd12f31907bcf,,,,,,,,,,,,,,,,,,,,,,,a,1,0.7818,"[""0.198"",""0.443"",""0.925"",""0.682""]","[1,1,1,0]",0,2,2,2,1,0,1,,,1,FALSE,,,,,,,,,,,,,,,,,,,,,,,,,,,,,,,
,5fbb74f7d40ee2c8e428af65,627c6eb47b3813347a8a8a0d,2022-05-11_22h19.54.911,classification_task,2021.2.3,Win32,165.6177542,627c6715c52fd12f31907bcf,,,,,,,,,,,,,,,,,,,,,,,l,1,0.9628,"[""0.038"",""0.323"",""0.494"",""0.645""]","[1,1,1,0]",0,3,3,3,1,1,0,,,1,FALSE,,,,,,,,,,,,,,,,,,,,,,,,,,,,,,,
,5fbb74f7d40ee2c8e428af65,627c6eb47b3813347a8a8a0d,2022-05-11_22h19.54.911,classification_task,2021.2.3,Win32,165.6177542,627c6715c52fd12f31907bcf,,,,,,,,,,,,,,,,,,,,,,,a,0,1.4551,"[""0.150"",""0.643"",""0.550"",""0.720""]","[1,0,1,1]",0,4,4,4,1,1,1,,,1,FALSE,,,,,,,,,,,,,,,,,,,,,,,,,,,,,,,
,5fbb74f7d40ee2c8e428af65,627c6eb47b3813347a8a8a0d,2022-05-11_22h19.54.911,classification_task,2021.2.3,Win32,165.6177542,627c6715c52fd12f31907bcf,,,,,,,,,,,,,,,,,,,,,,,a,1,0.903,"[""0.246"",""0.681"",""0.589"",""0.880""]","[1,0,1,1]",0,5,5,5,1,0,0,,,1,FALSE,,,,,,,,,,,,,,,,,,,,,,,,,,,,,,,
,5fbb74f7d40ee2c8e428af65,627c6eb47b3813347a8a8a0d,2022-05-11_22h19.54.911,classification_task,2021.2.3,Win32,165.6177542,627c6715c52fd12f31907bcf,,,,,,,,,,,,,,,,,,,,,,,l,1,0.6726,"[""0.038"",""0.323"",""0.759"",""0.806""]","[1,1,0,1]",0,6,6,6,1,1,0,,,1,FALSE,,,,,,,,,,,,,,,,,,,,,,,,,,,,,,,
,5fbb74f7d40ee2c8e428af65,627c6eb47b3813347a8a8a0d,2022-05-11_22h19.54.911,classification_task,2021.2.3,Win32,165.6177542,627c6715c52fd12f31907bcf,,,,,,,,,,,,,,,,,,,,,,,l,0,0.8424,"[""0.091"",""0.443"",""0.925"",""0.974""]","[0,1,1,1]",0,7,7,7,1,0,1,,,1,FALSE,,,,,,,,,,,,,,,,,,,,,,,,,,,,,,,
,5fbb74f7d40ee2c8e428af65,627c6eb47b3813347a8a8a0d,2022-05-11_22h19.54.911,classification_task,2021.2.3,Win32,165.6177542,627c6715c52fd12f31907bcf,,,,,,,,,,,,,,,,,,,,,,,l,0,1.1638,"[""0.198"",""0.077"",""0.925"",""0.974""]","[1,0,1,1]",0,8,8,8,1,0,1,,,1,FALSE,,,,,,,,,,,,,,,,,,,,,,,,,,,,,,,
,5fbb74f7d40ee2c8e428af65,627c6eb47b3813347a8a8a0d,2022-05-11_22h19.54.911,classification_task,2021.2.3,Win32,165.6177542,627c6715c52fd12f31907bcf,,,,,,,,,,,,,,,,,,,,,,,l,1,0.8118,"[""0.645"",""0.280"",""0.550"",""0.720""]","[0,1,1,1]",0,9,9,9,1,1,1,,,1,FALSE,,,,,,,,,,,,,,,,,,,,,,,,,,,,,,,
,5fbb74f7d40ee2c8e428af65,627c6eb47b3813347a8a8a0d,2022-05-11_22h19.54.911,classification_task,2021.2.3,Win32,165.6177542,627c6715c52fd12f31907bcf,,,,,,,,,,,,,,,,,,,,,,,a,1,0.6182,"[""0.198"",""0.443"",""0.072"",""0.974""]","[1,1,0,1]",0,10,10,10,1,0,1,,,1,FALSE,,,,,,,,,,,,,,,,,,,,,,,,,,,,,,,
,5fbb74f7d40ee2c8e428af65,627c6eb47b3813347a8a8a0d,2022-05-11_22h19.54.911,classification_task,2021.2.3,Win32,165.6177542,627c6715c52fd12f31907bcf,,,,,,,,,,,,,,,,,,,,,,,l,1,0.7335,"[""0.150"",""0.280"",""0.550"",""0.655""]","[1,1,1,0]",0,11,11,11,1,1,1,,,1,FALSE,,,,,,,,,,,,,,,,,,,,,,,,,,,,,,,
,5fbb74f7d40ee2c8e428af65,627c6eb47b3813347a8a8a0d,2022-05-11_22h19.54.911,classification_task,2021.2.3,Win32,165.6177542,627c6715c52fd12f31907bcf,,,,,,,,,,,,,,,,,,,,,,,a,1,0.9997,"[""0.643"",""0.364"",""0.589"",""0.880""]","[0,1,1,1]",0,12,12,12,1,0,0,,,1,FALSE,,,,,,,,,,,,,,,,,,,,,,,,,,,,,,,
,5fbb74f7d40ee2c8e428af65,627c6eb47b3813347a8a8a0d,2022-05-11_22h19.54.911,classification_task,2021.2.3,Win32,165.6177542,627c6715c52fd12f31907bcf,,,,,,,,,,,,,,,,,,,,,,,l,1,0.7882,"[""0.150"",""0.280"",""0.643"",""0.720""]","[1,1,0,1]",0,13,13,13,1,1,1,,,1,FALSE,,,,,,,,,,,,,,,,,,,,,,,,,,,,,,,
,5fbb74f7d40ee2c8e428af65,627c6eb47b3813347a8a8a0d,2022-05-11_22h19.54.911,classification_task,2021.2.3,Win32,165.6177542,627c6715c52fd12f31907bcf,,,,,,,,,,,,,,,,,,,,,,,a,1,0.5151,"[""0.246"",""0.364"",""0.589"",""0.840""]","[1,1,1,0]",0,14,14,14,1,0,0,,,1,FALSE,,,,,,,,,,,,,,,,,,,,,,,,,,,,,,,
,5fbb74f7d40ee2c8e428af65,627c6eb47b3813347a8a8a0d,2022-05-11_22h19.54.911,classification_task,2021.2.3,Win32,165.6177542,627c6715c52fd12f31907bcf,,,,,,,,,,,,,,,,,,,,,,,l,0,0.7032,"[""0.246"",""0.364"",""0.106"",""0.880""]","[1,1,0,1]",0,15,15,15,1,0,0,,,1,FALSE,,,,,,,,,,,,,,,,,,,,,,,,,,,,,,,
,5fbb74f7d40ee2c8e428af65,627c6eb47b3813347a8a8a0d,2022-05-11_22h19.54.911,classification_task,2021.2.3,Win32,165.6177542,627c6715c52fd12f31907bcf,,,,,,,,,,,,,,,,,,,,,,,a,0,1.0121,"[""0.091"",""0.280"",""0.550"",""0.720""]","[0,1,1,1]",0,16,16,16,1,1,1,,,1,FALSE,,,,,,,,,,,,,,,,,,,,,,,,,,,,,,,
,5fbb74f7d40ee2c8e428af65,627c6eb47b3813347a8a8a0d,2022-05-11_22h19.54.911,classification_task,2021.2.3,Win32,165.6177542,627c6715c52fd12f31907bcf,,,,,,,,,,,,,,,,,,,,,,,a,0,0.715,"[""0.038"",""0.323"",""0.683"",""0.806""]","[1,1,0,1]",0,17,17,17,1,1,0,,,1,FALSE,,,,,,,,,,,,,,,,,,,,,,,,,,,,,,,
,5fbb74f7d40ee2c8e428af65,627c6eb47b3813347a8a8a0d,2022-05-11_22h19.54.911,classification_task,2021.2.3,Win32,165.6177542,627c6715c52fd12f31907bcf,,,,,,,,,,,,,,,,,,,,,,,l,0,1.1214,"[""0.246"",""0.681"",""0.589"",""0.880""]","[1,0,1,1]",0,18,18,18,1,0,0,,,1,FALSE,,,,,,,,,,,,,,,,,,,,,,,,,,,,,,,
,5fbb74f7d40ee2c8e428af65,627c6eb47b3813347a8a8a0d,2022-05-11_22h19.54.911,classification_task,2021.2.3,Win32,165.6177542,627c6715c52fd12f31907bcf,,,,,,,,,,,,,,,,,,,,,,,l,1,0.8242,"[""0.038"",""0.323"",""0.494"",""0.761""]","[1,1,1,0]",0,19,19,19,1,1,0,,,1,FALSE,,,,,,,,,,,,,,,,,,,,,,,,,,,,,,,
,5fbb74f7d40ee2c8e428af65,627c6eb47b3813347a8a8a0d,2022-05-11_22h19.54.911,classification_task,2021.2.3,Win32,165.6177542,627c6715c52fd12f31907bcf,,,,,,,,,,,,,,,,,,,,,,,l,0,0.8422,"[""0.246"",""0.364"",""0.589"",""0.094""]","[1,1,1,0]",0,20,20,20,1,0,0,,,1,FALSE,,,,,,,,,,,,,,,,,,,,,,,,,,,,,,,
,5fbb74f7d40ee2c8e428af65,627c6eb47b3813347a8a8a0d,2022-05-11_22h19.54.911,classification_task,2021.2.3,Win32,165.6177542,627c6715c52fd12f31907bcf,,,,,,,,,,,,,,,,,,,,,,,l,1,0.6964,"[""0.150"",""0.280"",""0.681"",""0.720""]","[1,1,0,1]",0,21,21,21,1,1,1,,,1,FALSE,,,,,,,,,,,,,,,,,,,,,,,,,,,,,,,
,5fbb74f7d40ee2c8e428af65,627c6eb47b3813347a8a8a0d,2022-05-11_22h19.54.911,classification_task,2021.2.3,Win32,165.6177542,627c6715c52fd12f31907bcf,,,,,,,,,,,,,,,,,,,,,,,a,1,0.6427,"[""0.246"",""0.364"",""0.077"",""0.880""]","[1,1,0,1]",0,22,22,22,1,0,0,,,1,FALSE,,,,,,,,,,,,,,,,,,,,,,,,,,,,,,,
,5fbb74f7d40ee2c8e428af65,627c6eb47b3813347a8a8a0d,2022-05-11_22h19.54.911,classification_task,2021.2.3,Win32,165.6177542,627c6715c52fd12f31907bcf,,,,,,,,,,,,,,,,,,,,,,,l,0,0.6054,"[""0.198"",""0.443"",""0.091"",""0.974""]","[1,1,0,1]",0,23,23,23,1,0,1,,,1,FALSE,,,,,,,,,,,,,,,,,,,,,,,,,,,,,,,
,5fbb74f7d40ee2c8e428af65,627c6eb47b3813347a8a8a0d,2022-05-11_22h19.54.911,classification_task,2021.2.3,Win32,165.6177542,627c6715c52fd12f31907bcf,,,,,,,,,,,,,,,,,,,,,,,a,1,0.5517,"[""0.629"",""0.443"",""0.925"",""0.974""]","[0,1,1,1]",0,24,24,24,1,0,1,,,1,FALSE,,,,,,,,,,,,,,,,,,,,,,,,,,,,,,,
,5fbb74f7d40ee2c8e428af65,627c6eb47b3813347a8a8a0d,2022-05-11_22h19.54.911,classification_task,2021.2.3,Win32,165.6177542,627c6715c52fd12f31907bcf,,,,,,,,,,,,,,,,,,,,,,,a,1,0.4973,"[""0.198"",""0.761"",""0.925"",""0.974""]","[1,0,1,1]",0,25,25,25,1,0,1,,,1,FALSE,,,,,,,,,,,,,,,,,,,,,,,,,,,,,,,
,5fbb74f7d40ee2c8e428af65,627c6eb47b3813347a8a8a0d,2022-05-11_22h19.54.911,classification_task,2021.2.3,Win32,165.6177542,627c6715c52fd12f31907bcf,,,,,,,,,,,,,,,,,,,,,,,a,0,0.6608,"[""0.759"",""0.323"",""0.494"",""0.806""]","[0,1,1,1]",0,26,26,26,1,1,0,,,1,FALSE,,,,,,,,,,,,,,,,,,,,,,,,,,,,,,,
,5fbb74f7d40ee2c8e428af65,627c6eb47b3813347a8a8a0d,2022-05-11_22h19.54.911,classification_task,2021.2.3,Win32,165.6177542,627c6715c52fd12f31907bcf,,,,,,,,,,,,,,,,,,,,,,,l,1,0.6243,"[""0.150"",""0.280"",""0.550"",""0.645""]","[1,1,1,0]",0,27,27,27,1,1,1,,,1,FALSE,,,,,,,,,,,,,,,,,,,,,,,,,,,,,,,
,5fbb74f7d40ee2c8e428af65,627c6eb47b3813347a8a8a0d,2022-05-11_22h19.54.911,classification_task,2021.2.3,Win32,165.6177542,627c6715c52fd12f31907bcf,,,,,,,,,,,,,,,,,,,,,,,a,0,1.0849,"[""0.038"",""0.840"",""0.494"",""0.806""]","[1,0,1,1]",0,28,28,28,1,1,0,,,1,FALSE,,,,,,,,,,,,,,,,,,,,,,,,,,,,,,,
,5fbb74f7d40ee2c8e428af65,627c6eb47b3813347a8a8a0d,2022-05-11_22h19.54.911,classification_task,2021.2.3,Win32,165.6177542,627c6715c52fd12f31907bcf,,,,,,,,,,,,,,,,,,,,,,,l,0,2.2606,"[""0.683"",""0.364"",""0.589"",""0.880""]","[0,1,1,1]",0,29,29,29,1,0,0,,,1,FALSE,,,,,,,,,,,,,,,,,,,,,,,,,,,,,,,
,5fbb74f7d40ee2c8e428af65,627c6eb47b3813347a8a8a0d,2022-05-11_22h19.54.911,classification_task,2021.2.3,Win32,165.6177542,627c6715c52fd12f31907bcf,,,,,,,,,,,,,,,,,,,,,,,a,0,1.1533,"[""0.150"",""0.629"",""0.550"",""0.720""]","[1,0,1,1]",0,30,30,30,1,1,1,,,1,FALSE,,,,,,,,,,,,,,,,,,,,,,,,,,,,,,,
,5fbb74f7d40ee2c8e428af65,627c6eb47b3813347a8a8a0d,2022-05-11_22h19.54.911,classification_task,2021.2.3,Win32,165.6177542,627c6715c52fd12f31907bcf,,,,,,,,,,,,,,,,,,,,,,,a,1,0.7041,"[""0.198"",""0.443"",""0.925"",""0.681""]","[1,1,1,0]",0,31,31,31,1,0,1,,,1,FALSE,,,,,,,,,,,,,,,,,,,,,,,,,,,,,,,
,5fbb74f7d40ee2c8e428af65,627c6eb47b3813347a8a8a0d,2022-05-11_22h19.54.911,classification_task,2021.2.3,Win32,165.6177542,627c6715c52fd12f31907bcf,,,,,,,,,,,,,,,,,,,,,,,l,0,0.7929,"[""0.682"",""0.443"",""0.925"",""0.974""]","[0,1,1,1]",0,32,32,32,1,0,1,,,1,FALSE,,,,,,,,,,,,,,,,,,,,,,,,,,,,,,,
,5fbb74f7d40ee2c8e428af65,627c6eb47b3813347a8a8a0d,2022-05-11_22h19.54.911,classification_task,2021.2.3,Win32,165.6177542,627c6715c52fd12f31907bcf,,,,,,,,,,,,,,,,,,,,,,,l,0,0.7004,"[""0.198"",""0.443"",""0.925"",""0.094""]","[1,1,1,0]",0,33,33,33,1,0,1,,,1,FALSE,,,,,,,,,,,,,,,,,,,,,,,,,,,,,,,
,5fbb74f7d40ee2c8e428af65,627c6eb47b3813347a8a8a0d,2022-05-11_22h19.54.911,classification_task,2021.2.3,Win32,165.6177542,627c6715c52fd12f31907bcf,,,,,,,,,,,,,,,,,,,,,,,l,1,0.5727,"[""0.038"",""0.323"",""0.494"",""0.759""]","[1,1,1,0]",0,34,34,34,1,1,0,,,1,FALSE,,,,,,,,,,,,,,,,,,,,,,,,,,,,,,,
,5fbb74f7d40ee2c8e428af65,627c6eb47b3813347a8a8a0d,2022-05-11_22h19.54.911,classification_task,2021.2.3,Win32,165.6177542,627c6715c52fd12f31907bcf,,,,,,,,,,,,,,,,,,,,,,,a,1,0.288,"[""0.246"",""0.364"",""0.589"",""0.645""]","[1,1,1,0]",0,35,35,35,1,0,0,,,1,FALSE,,,,,,,,,,,,,,,,,,,,,,,,,,,,,,,
,5fbb74f7d40ee2c8e428af65,627c6eb47b3813347a8a8a0d,2022-05-11_22h19.54.911,classification_task,2021.2.3,Win32,165.6177542,627c6715c52fd12f31907bcf,,,,,,,,,,,,,,,,,,,,,,,l,0,0.4053,"[""0.246"",""0.364"",""0.629"",""0.880""]","[1,1,0,1]",0,36,36,36,1,0,0,,,1,FALSE,,,,,,,,,,,,,,,,,,,,,,,,,,,,,,,
,5fbb74f7d40ee2c8e428af65,627c6eb47b3813347a8a8a0d,2022-05-11_22h19.54.911,classification_task,2021.2.3,Win32,165.6177542,627c6715c52fd12f31907bcf,,,,,,,,,,,,,,,,,,,,,,,l,0,0.379,"[""0.198"",""0.072"",""0.925"",""0.974""]","[1,0,1,1]",0,37,37,37,1,0,1,,,1,FALSE,,,,,,,,,,,,,,,,,,,,,,,,,,,,,,,
,5fbb74f7d40ee2c8e428af65,627c6eb47b3813347a8a8a0d,2022-05-11_22h19.54.911,classification_task,2021.2.3,Win32,165.6177542,627c6715c52fd12f31907bcf,,,,,,,,,,,,,,,,,,,,,,,l,1,0.5825,"[""0.150"",""0.643"",""0.550"",""0.720""]","[1,0,1,1]",0,38,38,38,1,1,1,,,1,FALSE,,,,,,,,,,,,,,,,,,,,,,,,,,,,,,,
,5fbb74f7d40ee2c8e428af65,627c6eb47b3813347a8a8a0d,2022-05-11_22h19.54.911,classification_task,2021.2.3,Win32,165.6177542,627c6715c52fd12f31907bcf,,,,,,,,,,,,,,,,,,,,,,,a,1,0.3727,"[""0.094"",""0.364"",""0.589"",""0.880""]","[0,1,1,1]",0,39,39,39,1,0,0,,,1,FALSE,,,,,,,,,,,,,,,,,,,,,,,,,,,,,,,
,5fbb74f7d40ee2c8e428af65,627c6eb47b3813347a8a8a0d,2022-05-11_22h19.54.911,classification_task,2021.2.3,Win32,165.6177542,627c6715c52fd12f31907bcf,,,,,,,,,,,,,,,,,,,,,,,a,1,0.6201,"[""0.198"",""0.443"",""0.091"",""0.974""]","[1,1,0,1]",0,40,40,40,1,0,1,,,1,FALSE,,,,,,,,,,,,,,,,,,,,,,,,,,,,,,,
,5fbb74f7d40ee2c8e428af65,627c6eb47b3813347a8a8a0d,2022-05-11_22h19.54.911,classification_task,2021.2.3,Win32,165.6177542,627c6715c52fd12f31907bcf,,,,,,,,,,,,,,,,,,,,,,,a,0,0.4621,"[""0.150"",""0.280"",""0.550"",""0.091""]","[1,1,1,0]",0,41,41,41,1,1,1,,,1,FALSE,,,,,,,,,,,,,,,,,,,,,,,,,,,,,,,
,5fbb74f7d40ee2c8e428af65,627c6eb47b3813347a8a8a0d,2022-05-11_22h19.54.911,classification_task,2021.2.3,Win32,165.6177542,627c6715c52fd12f31907bcf,,,,,,,,,,,,,,,,,,,,,,,a,1,0.4918,"[""0.246"",""0.682"",""0.589"",""0.880""]","[1,0,1,1]",0,42,42,42,1,0,0,,,1,FALSE,,,,,,,,,,,,,,,,,,,,,,,,,,,,,,,
,5fbb74f7d40ee2c8e428af65,627c6eb47b3813347a8a8a0d,2022-05-11_22h19.54.911,classification_task,2021.2.3,Win32,165.6177542,627c6715c52fd12f31907bcf,,,,,,,,,,,,,,,,,,,,,,,l,1,0.3015,"[""0.038"",""0.629"",""0.494"",""0.806""]","[1,0,1,1]",0,43,43,43,1,1,0,,,1,FALSE,,,,,,,,,,,,,,,,,,,,,,,,,,,,,,,
,5fbb74f7d40ee2c8e428af65,627c6eb47b3813347a8a8a0d,2022-05-11_22h19.54.911,classification_task,2021.2.3,Win32,165.6177542,627c6715c52fd12f31907bcf,,,,,,,,,,,,,,,,,,,,,,,a,0,0.4976,"[""0.038"",""0.323"",""0.759"",""0.806""]","[1,1,0,1]",0,44,44,44,1,1,0,,,1,FALSE,,,,,,,,,,,,,,,,,,,,,,,,,,,,,,,
,5fbb74f7d40ee2c8e428af65,627c6eb47b3813347a8a8a0d,2022-05-11_22h19.54.911,classification_task,2021.2.3,Win32,165.6177542,627c6715c52fd12f31907bcf,,,,,,,,,,,,,,,,,,,,,,,a,0,0.2429,"[""0.402"",""0.280"",""0.550"",""0.720""]","[0,1,1,1]",0,45,45,45,1,1,1,,,1,FALSE,,,,,,,,,,,,,,,,,,,,,,,,,,,,,,,
,5fbb74f7d40ee2c8e428af65,627c6eb47b3813347a8a8a0d,2022-05-11_22h19.54.911,classification_task,2021.2.3,Win32,165.6177542,627c6715c52fd12f31907bcf,,,,,,,,,,,,,,,,,,,,,,,l,1,0.2104,"[""0.150"",""0.280"",""0.091"",""0.720""]","[1,1,0,1]",0,46,46,46,1,1,1,,,1,FALSE,,,,,,,,,,,,,,,,,,,,,,,,,,,,,,,
,5fbb74f7d40ee2c8e428af65,627c6eb47b3813347a8a8a0d,2022-05-11_22h19.54.911,classification_task,2021.2.3,Win32,165.6177542,627c6715c52fd12f31907bcf,,,,,,,,,,,,,,,,,,,,,,,a,0,1.1755,"[""0.072"",""0.323"",""0.494"",""0.806""]","[0,1,1,1]",0,47,47,47,1,1,0,,,1,FALSE,,,,,,,,,,,,,,,,,,,,,,,,,,,,,,,
,5fbb74f7d40ee2c8e428af65,627c6eb47b3813347a8a8a0d,2022-05-11_22h19.54.911,classification_task,2021.2.3,Win32,165.6177542,627c6715c52fd12f31907bcf,,,,,,,,,,,,,,,,,,,,,,,a,0,0.5626,"[""0.682"",""0.323"",""0.494"",""0.806""]","[0,1,1,1]",0,48,48,48,1,1,0,,,1,FALSE,,,,,,,,,,,,,,,,,,,,,,,,,,,,,,,
,5fbb74f7d40ee2c8e428af65,627c6eb47b3813347a8a8a0d,2022-05-11_22h19.54.911,classification_task,2021.2.3,Win32,165.6177542,627c6715c52fd12f31907bcf,,,,,,,,,,,,,,,,,,,,,,,a,0,0.7414,"[""0.038"",""0.323"",""0.759"",""0.806""]","[1,1,0,1]",0,49,49,49,1,1,0,,,1,FALSE,,,,,,,,,,,,,,,,,,,,,,,,,,,,,,,
,5fbb74f7d40ee2c8e428af65,627c6eb47b3813347a8a8a0d,2022-05-11_22h19.54.911,classification_task,2021.2.3,Win32,165.6177542,627c6715c52fd12f31907bcf,,,,,,,,,,,,,,,,,,,,,,,a,1,0.7332,"[""0.106"",""0.443"",""0.925"",""0.974""]","[0,1,1,1]",0,50,50,50,1,0,1,,,1,FALSE,,,,,,,,,,,,,,,,,,,,,,,,,,,,,,,
,5fbb74f7d40ee2c8e428af65,627c6eb47b3813347a8a8a0d,2022-05-11_22h19.54.911,classification_task,2021.2.3,Win32,165.6177542,627c6715c52fd12f31907bcf,,,,,,,,,,,,,,,,,,,,,,,l,0,0.5736,"[""0.840"",""0.364"",""0.589"",""0.880""]","[0,1,1,1]",0,51,51,51,1,0,0,,,1,FALSE,,,,,,,,,,,,,,,,,,,,,,,,,,,,,,,
,5fbb74f7d40ee2c8e428af65,627c6eb47b3813347a8a8a0d,2022-05-11_22h19.54.911,classification_task,2021.2.3,Win32,165.6177542,627c6715c52fd12f31907bcf,,,,,,,,,,,,,,,,,,,,,,,l,0,0.4685,"[""0.246"",""0.364"",""0.643"",""0.880""]","[1,1,0,1]",0,52,52,52,1,0,0,,,1,FALSE,,,,,,,,,,,,,,,,,,,,,,,,,,,,,,,
,5fbb74f7d40ee2c8e428af65,627c6eb47b3813347a8a8a0d,2022-05-11_22h19.54.911,classification_task,2021.2.3,Win32,165.6177542,627c6715c52fd12f31907bcf,,,,,,,,,,,,,,,,,,,,,,,a,0,0.3199,"[""0.038"",""0.094"",""0.494"",""0.806""]","[1,0,1,1]",0,53,53,53,1,1,0,,,1,FALSE,,,,,,,,,,,,,,,,,,,,,,,,,,,,,,,
,5fbb74f7d40ee2c8e428af65,627c6eb47b3813347a8a8a0d,2022-05-11_22h19.54.911,classification_task,2021.2.3,Win32,165.6177542,627c6715c52fd12f31907bcf,,,,,,,,,,,,,,,,,,,,,,,a,1,0.0749,"[""0.246"",""0.364"",""0.589"",""0.091""]","[1,1,1,0]",0,54,54,54,1,0,0,,,1,FALSE,,,,,,,,,,,,,,,,,,,,,,,,,,,,,,,
,5fbb74f7d40ee2c8e428af65,627c6eb47b3813347a8a8a0d,2022-05-11_22h19.54.911,classification_task,2021.2.3,Win32,165.6177542,627c6715c52fd12f31907bcf,,,,,,,,,,,,,,,,,,,,,,,l,0,0.6278,"[""0.198"",""0.443"",""0.106"",""0.974""]","[1,1,0,1]",0,55,55,55,1,0,1,,,1,FALSE,,,,,,,,,,,,,,,,,,,,,,,,,,,,,,,
,5fbb74f7d40ee2c8e428af65,627c6eb47b3813347a8a8a0d,2022-05-11_22h19.54.911,classification_task,2021.2.3,Win32,165.6177542,627c6715c52fd12f31907bcf,,,,,,,,,,,,,,,,,,,,,,,l,1,0.4449,"[""0.150"",""0.280"",""0.550"",""0.106""]","[1,1,1,0]",0,56,56,56,1,1,1,,,1,FALSE,,,,,,,,,,,,,,,,,,,,,,,,,,,,,,,
,5fbb74f7d40ee2c8e428af65,627c6eb47b3813347a8a8a0d,2022-05-11_22h19.54.911,classification_task,2021.2.3,Win32,165.6177542,627c6715c52fd12f31907bcf,,,,,,,,,,,,,,,,,,,,,,,l,1,0.507,"[""0.150"",""0.280"",""0.681"",""0.720""]","[1,1,0,1]",0,57,57,57,1,1,1,,,1,FALSE,,,,,,,,,,,,,,,,,,,,,,,,,,,,,,,
,5fbb74f7d40ee2c8e428af65,627c6eb47b3813347a8a8a0d,2022-05-11_22h19.54.911,classification_task,2021.2.3,Win32,165.6177542,627c6715c52fd12f31907bcf,,,,,,,,,,,,,,,,,,,,,,,l,0,0.6174,"[""0.198"",""0.643"",""0.925"",""0.974""]","[1,0,1,1]",0,58,58,58,1,0,1,,,1,FALSE,,,,,,,,,,,,,,,,,,,,,,,,,,,,,,,
,5fbb74f7d40ee2c8e428af65,627c6eb47b3813347a8a8a0d,2022-05-11_22h19.54.911,classification_task,2021.2.3,Win32,165.6177542,627c6715c52fd12f31907bcf,,,,,,,,,,,,,,,,,,,,,,,l,1,0.692,"[""0.150"",""0.645"",""0.550"",""0.720""]","[1,0,1,1]",0,59,59,59,1,1,1,,,1,FALSE,,,,,,,,,,,,,,,,,,,,,,,,,,,,,,,
,5fbb74f7d40ee2c8e428af65,627c6eb47b3813347a8a8a0d,2022-05-11_22h19.54.911,classification_task,2021.2.3,Win32,165.6177542,627c6715c52fd12f31907bcf,,,,,,,,,,,,,,,,,,,,,,,a,0,0.8251,"[""0.629"",""0.280"",""0.550"",""0.720""]","[0,1,1,1]",0,60,60,60,1,1,1,,,1,FALSE,,,,,,,,,,,,,,,,,,,,,,,,,,,,,,,
,5fbb74f7d40ee2c8e428af65,627c6eb47b3813347a8a8a0d,2022-05-11_22h19.54.911,classification_task,2021.2.3,Win32,165.6177542,627c6715c52fd12f31907bcf,,,,,,,,,,,,,,,,,,,,,,,l,1,3.4548,"[""0.038"",""0.323"",""0.494"",""0.091""]","[1,1,1,0]",0,61,61,61,1,1,0,,,1,FALSE,,,,,,,,,,,,,,,,,,,,,,,,,,,,,,,
,5fbb74f7d40ee2c8e428af65,627c6eb47b3813347a8a8a0d,2022-05-11_22h19.54.911,classification_task,2021.2.3,Win32,165.6177542,627c6715c52fd12f31907bcf,,,,,,,,,,,,,,,,,,,,,,,a,1,2.026,"[""0.198"",""0.443"",""0.925"",""0.655""]","[1,1,1,0]",0,62,62,62,1,0,1,,,1,FALSE,,,,,,,,,,,,,,,,,,,,,,,,,,,,,,,
,5fbb74f7d40ee2c8e428af65,627c6eb47b3813347a8a8a0d,2022-05-11_22h19.54.911,classification_task,2021.2.3,Win32,165.6177542,627c6715c52fd12f31907bcf,,,,,,,,,,,,,,,,,,,,,,,a,1,2.0017,"[""0.246"",""0.077"",""0.589"",""0.880""]","[1,0,1,1]",0,63,63,63,1,0,0,,,1,FALSE,,,,,,,,,,,,,,,,,,,,,,,,,,,,,,,
,5fbb74f7d40ee2c8e428af65,627c6eb47b3813347a8a8a0d,2022-05-11_22h19.54.911,classification_task,2021.2.3,Win32,165.6177542,627c6715c52fd12f31907bcf,,,,,,,,,,,,,,,,,,,,,,,,,,,,,,,,,,,,,,,0, ,,0,2.014623751,130.0249,0,1,1,1,1,2,2,,,,,,,,,,,,,,,,,,
,5fbb74f7d40ee2c8e428af65,627c6eb47b3813347a8a8a0d,2022-05-11_22h19.54.911,classification_task,2021.2.3,Win32,165.6177542,627c6715c52fd12f31907bcf,,,,,,,,,,,,,,,,,,,,,,,,,,,,,,,,,,,,,,,1,  ,,0,0.691872989,131.088,0,1,1,1,1,2,2,,,,,,,,,,,,,,,,,,
,5fbb74f7d40ee2c8e428af65,627c6eb47b3813347a8a8a0d,2022-05-11_22h19.54.911,classification_task,2021.2.3,Win32,165.6177542,627c6715c52fd12f31907bcf,,,,,,,,,,,,,,,,,,,,,,,,,,,,,,,,,,,,,,,2,  ,,0,7.599575462,132.6782,0,1,1,1,1,2,2,,,,,,,,,,,,,,,,,,
,5fbb74f7d40ee2c8e428af65,627c6eb47b3813347a8a8a0d,2022-05-11_22h19.54.911,classification_task,2021.2.3,Win32,165.6177542,627c6715c52fd12f31907bcf,,,,,,,,,,,,,,,,,,,,,,,,,,,,,,,,,,,,,,,,,,,,,0,1,1,1,1,,2,,,,,,,,,,,,,,,,,,
,5fbb74f7d40ee2c8e428af65,627c6eb47b3813347a8a8a0d,2022-05-11_22h19.54.911,classification_task,2021.2.3,Win32,165.6177542,627c6715c52fd12f31907bcf,,,,,,,,,,,,,,,,,,,,,space,9.2751,a,0,2.6606,"[""0.038"",""0.323"",""0.494"",""0.077""]","[1,1,1,0]",0,0,0,0,1,1,0,,,1,FALSE,,,,,,,,,,,,,,,,,,,,,,,,,,,,,,,
,5fbb74f7d40ee2c8e428af65,627c6eb47b3813347a8a8a0d,2022-05-11_22h19.54.911,classification_task,2021.2.3,Win32,165.6177542,627c6715c52fd12f31907bcf,,,,,,,,,,,,,,,,,,,,,,,a,1,3.9303,"[""0.759"",""0.443"",""0.925"",""0.974""]","[0,1,1,1]",0,1,1,1,1,0,1,,,1,FALSE,,,,,,,,,,,,,,,,,,,,,,,,,,,,,,,
,5fbb74f7d40ee2c8e428af65,627c6eb47b3813347a8a8a0d,2022-05-11_22h19.54.911,classification_task,2021.2.3,Win32,165.6177542,627c6715c52fd12f31907bcf,,,,,,,,,,,,,,,,,,,,,,,l,1,0.4754,"[""0.150"",""0.280"",""0.091"",""0.720""]","[1,1,0,1]",0,2,2,2,1,1,1,,,1,FALSE,,,,,,,,,,,,,,,,,,,,,,,,,,,,,,,
,5fbb74f7d40ee2c8e428af65,627c6eb47b3813347a8a8a0d,2022-05-11_22h19.54.911,classification_task,2021.2.3,Win32,165.6177542,627c6715c52fd12f31907bcf,,,,,,,,,,,,,,,,,,,,,,,a,0,1.5937,"[""0.150"",""0.759"",""0.550"",""0.720""]","[1,0,1,1]",0,3,3,3,1,1,1,,,1,FALSE,,,,,,,,,,,,,,,,,,,,,,,,,,,,,,,
,5fbb74f7d40ee2c8e428af65,627c6eb47b3813347a8a8a0d,2022-05-11_22h19.54.911,classification_task,2021.2.3,Win32,165.6177542,627c6715c52fd12f31907bcf,,,,,,,,,,,,,,,,,,,,,,,a,1,1.5155,"[""0.198"",""0.443"",""0.925"",""0.106""]","[1,1,1,0]",0,4,4,4,1,0,1,,,1,FALSE,,,,,,,,,,,,,,,,,,,,,,,,,,,,,,,
,5fbb74f7d40ee2c8e428af65,627c6eb47b3813347a8a8a0d,2022-05-11_22h19.54.911,classification_task,2021.2.3,Win32,165.6177542,627c6715c52fd12f31907bcf,,,,,,,,,,,,,,,,,,,,,,,l,0,1.1211,"[""0.246"",""0.364"",""0.589"",""0.072""]","[1,1,1,0]",0,5,5,5,1,0,0,,,1,FALSE,,,,,,,,,,,,,,,,,,,,,,,,,,,,,,,
,5fbb74f7d40ee2c8e428af65,627c6eb47b3813347a8a8a0d,2022-05-11_22h19.54.911,classification_task,2021.2.3,Win32,165.6177542,627c6715c52fd12f31907bcf,,,,,,,,,,,,,,,,,,,,,,,a,0,2.8484,"[""0.038"",""0.323"",""0.682"",""0.806""]","[1,1,0,1]",0,6,6,6,1,1,0,,,1,FALSE,,,,,,,,,,,,,,,,,,,,,,,,,,,,,,,
,5fbb74f7d40ee2c8e428af65,627c6eb47b3813347a8a8a0d,2022-05-11_22h19.54.911,classification_task,2021.2.3,Win32,165.6177542,627c6715c52fd12f31907bcf,,,,,,,,,,,,,,,,,,,,,,,l,1,1.5394,"[""0.645"",""0.323"",""0.494"",""0.806""]","[0,1,1,1]",0,7,7,7,1,1,0,,,1,FALSE,,,,,,,,,,,,,,,,,,,,,,,,,,,,,,,
,5fbb74f7d40ee2c8e428af65,627c6eb47b3813347a8a8a0d,2022-05-11_22h19.54.911,classification_task,2021.2.3,Win32,165.6177542,627c6715c52fd12f31907bcf,,,,,,,,,,,,,,,,,,,,,,,a,1,0.8669,"[""0.246"",""0.761"",""0.589"",""0.880""]","[1,0,1,1]",0,8,8,8,1,0,0,,,1,FALSE,,,,,,,,,,,,,,,,,,,,,,,,,,,,,,,
,5fbb74f7d40ee2c8e428af65,627c6eb47b3813347a8a8a0d,2022-05-11_22h19.54.911,classification_task,2021.2.3,Win32,165.6177542,627c6715c52fd12f31907bcf,,,,,,,,,,,,,,,,,,,,,,,l,0,3.4847,"[""0.629"",""0.364"",""0.589"",""0.880""]","[0,1,1,1]",0,9,9,9,1,0,0,,,1,FALSE,,,,,,,,,,,,,,,,,,,,,,,,,,,,,,,
,5fbb74f7d40ee2c8e428af65,627c6eb47b3813347a8a8a0d,2022-05-11_22h19.54.911,classification_task,2021.2.3,Win32,165.6177542,627c6715c52fd12f31907bcf,,,,,,,,,,,,,,,,,,,,,,,a,1,2.3362,"[""0.198"",""0.443"",""0.091"",""0.974""]","[1,1,0,1]",0,10,10,10,1,0,1,,,1,FALSE,,,,,,,,,,,,,,,,,,,,,,,,,,,,,,,
,5fbb74f7d40ee2c8e428af65,627c6eb47b3813347a8a8a0d,2022-05-11_22h19.54.911,classification_task,2021.2.3,Win32,165.6177542,627c6715c52fd12f31907bcf,,,,,,,,,,,,,,,,,,,,,,,l,0,1.2053,"[""0.198"",""0.402"",""0.925"",""0.974""]","[1,0,1,1]",0,11,11,11,1,0,1,,,1,FALSE,,,,,,,,,,,,,,,,,,,,,,,,,,,,,,,
,5fbb74f7d40ee2c8e428af65,627c6eb47b3813347a8a8a0d,2022-05-11_22h19.54.911,classification_task,2021.2.3,Win32,165.6177542,627c6715c52fd12f31907bcf,,,,,,,,,,,,,,,,,,,,,,,l,1,3.2527,"[""0.150"",""0.280"",""0.550"",""0.759""]","[1,1,1,0]",0,12,12,12,1,1,1,,,1,FALSE,,,,,,,,,,,,,,,,,,,,,,,,,,,,,,,
,5fbb74f7d40ee2c8e428af65,627c6eb47b3813347a8a8a0d,2022-05-11_22h19.54.911,classification_task,2021.2.3,Win32,165.6177542,627c6715c52fd12f31907bcf,,,,,,,,,,,,,,,,,,,,,,,a,0,4.4681,"[""0.038"",""0.683"",""0.494"",""0.806""]","[1,0,1,1]",0,13,13,13,1,1,0,,,1,FALSE,,,,,,,,,,,,,,,,,,,,,,,,,,,,,,,
,5fbb74f7d40ee2c8e428af65,627c6eb47b3813347a8a8a0d,2022-05-11_22h19.54.911,classification_task,2021.2.3,Win32,165.6177542,627c6715c52fd12f31907bcf,,,,,,,,,,,,,,,,,,,,,,,a,0,0.9261,"[""0.683"",""0.280"",""0.550"",""0.720""]","[0,1,1,1]",0,14,14,14,1,1,1,,,1,FALSE,,,,,,,,,,,,,,,,,,,,,,,,,,,,,,,
,5fbb74f7d40ee2c8e428af65,627c6eb47b3813347a8a8a0d,2022-05-11_22h19.54.911,classification_task,2021.2.3,Win32,165.6177542,627c6715c52fd12f31907bcf,,,,,,,,,,,,,,,,,,,,,,,l,0,0.6899,"[""0.246"",""0.364"",""0.094"",""0.880""]","[1,1,0,1]",0,15,15,15,1,0,0,,,1,FALSE,,,,,,,,,,,,,,,,,,,,,,,,,,,,,,,
,5fbb74f7d40ee2c8e428af65,627c6eb47b3813347a8a8a0d,2022-05-11_22h19.54.911,classification_task,2021.2.3,Win32,165.6177542,627c6715c52fd12f31907bcf,,,,,,,,,,,,,,,,,,,,,,,a,1,2.3743,"[""0.198"",""0.091"",""0.925"",""0.974""]","[1,0,1,1]",0,16,16,16,1,0,1,,,1,FALSE,,,,,,,,,,,,,,,,,,,,,,,,,,,,,,,
,5fbb74f7d40ee2c8e428af65,627c6eb47b3813347a8a8a0d,2022-05-11_22h19.54.911,classification_task,2021.2.3,Win32,165.6177542,627c6715c52fd12f31907bcf,,,,,,,,,,,,,,,,,,,,,,,l,0,0.8826,"[""0.682"",""0.443"",""0.925"",""0.974""]","[0,1,1,1]",0,17,17,17,1,0,1,,,1,FALSE,,,,,,,,,,,,,,,,,,,,,,,,,,,,,,,
,5fbb74f7d40ee2c8e428af65,627c6eb47b3813347a8a8a0d,2022-05-11_22h19.54.911,classification_task,2021.2.3,Win32,165.6177542,627c6715c52fd12f31907bcf,,,,,,,,,,,,,,,,,,,,,,,l,0,1.6208,"[""0.643"",""0.364"",""0.589"",""0.880""]","[0,1,1,1]",0,18,18,18,1,0,0,,,1,FALSE,,,,,,,,,,,,,,,,,,,,,,,,,,,,,,,
,5fbb74f7d40ee2c8e428af65,627c6eb47b3813347a8a8a0d,2022-05-11_22h19.54.911,classification_task,2021.2.3,Win32,165.6177542,627c6715c52fd12f31907bcf,,,,,,,,,,,,,,,,,,,,,,,a,1,0.5652,"[""0.198"",""0.443"",""0.925"",""0.840""]","[1,1,1,0]",0,19,19,19,1,0,1,,,1,FALSE,,,,,,,,,,,,,,,,,,,,,,,,,,,,,,,
,5fbb74f7d40ee2c8e428af65,627c6eb47b3813347a8a8a0d,2022-05-11_22h19.54.911,classification_task,2021.2.3,Win32,165.6177542,627c6715c52fd12f31907bcf,,,,,,,,,,,,,,,,,,,,,,,l,1,1.9196,"[""0.150"",""0.402"",""0.550"",""0.720""]","[1,0,1,1]",0,20,20,20,1,1,1,,,1,FALSE,,,,,,,,,,,,,,,,,,,,,,,,,,,,,,,
,5fbb74f7d40ee2c8e428af65,627c6eb47b3813347a8a8a0d,2022-05-11_22h19.54.911,classification_task,2021.2.3,Win32,165.6177542,627c6715c52fd12f31907bcf,,,,,,,,,,,,,,,,,,,,,,,a,1,1.1233,"[""0.246"",""0.072"",""0.589"",""0.880""]","[1,0,1,1]",0,21,21,21,1,0,0,,,1,FALSE,,,,,,,,,,,,,,,,,,,,,,,,,,,,,,,
,5fbb74f7d40ee2c8e428af65,627c6eb47b3813347a8a8a0d,2022-05-11_22h19.54.911,classification_task,2021.2.3,Win32,165.6177542,627c6715c52fd12f31907bcf,,,,,,,,,,,,,,,,,,,,,,,l,1,1.6374,"[""0.681"",""0.280"",""0.550"",""0.720""]","[0,1,1,1]",0,22,22,22,1,1,1,,,1,FALSE,,,,,,,,,,,,,,,,,,,,,,,,,,,,,,,
,5fbb74f7d40ee2c8e428af65,627c6eb47b3813347a8a8a0d,2022-05-11_22h19.54.911,classification_task,2021.2.3,Win32,165.6177542,627c6715c52fd12f31907bcf,,,,,,,,,,,,,,,,,,,,,,,a,1,0.767,"[""0.198"",""0.443"",""0.077"",""0.974""]","[1,1,0,1]",0,23,23,23,1,0,1,,,1,FALSE,,,,,,,,,,,,,,,,,,,,,,,,,,,,,,,
,5fbb74f7d40ee2c8e428af65,627c6eb47b3813347a8a8a0d,2022-05-11_22h19.54.911,classification_task,2021.2.3,Win32,165.6177542,627c6715c52fd12f31907bcf,,,,,,,,,,,,,,,,,,,,,,,a,0,1.0164,"[""0.038"",""0.323"",""0.494"",""0.091""]","[1,1,1,0]",0,24,24,24,1,1,0,,,1,FALSE,,,,,,,,,,,,,,,,,,,,,,,,,,,,,,,
,5fbb74f7d40ee2c8e428af65,627c6eb47b3813347a8a8a0d,2022-05-11_22h19.54.911,classification_task,2021.2.3,Win32,165.6177542,627c6715c52fd12f31907bcf,,,,,,,,,,,,,,,,,,,,,,,l,0,0.8417,"[""0.246"",""0.364"",""0.629"",""0.880""]","[1,1,0,1]",0,25,25,25,1,0,0,,,1,FALSE,,,,,,,,,,,,,,,,,,,,,,,,,,,,,,,
,5fbb74f7d40ee2c8e428af65,627c6eb47b3813347a8a8a0d,2022-05-11_22h19.54.911,classification_task,2021.2.3,Win32,165.6177542,627c6715c52fd12f31907bcf,,,,,,,,,,,,,,,,,,,,,,,a,0,1.3049,"[""0.038"",""0.094"",""0.494"",""0.806""]","[1,0,1,1]",0,26,26,26,1,1,0,,,1,FALSE,,,,,,,,,,,,,,,,,,,,,,,,,,,,,,,
,5fbb74f7d40ee2c8e428af65,627c6eb47b3813347a8a8a0d,2022-05-11_22h19.54.911,classification_task,2021.2.3,Win32,165.6177542,627c6715c52fd12f31907bcf,,,,,,,,,,,,,,,,,,,,,,,l,0,0.698,"[""0.246"",""0.364"",""0.589"",""0.072""]","[1,1,1,0]",0,27,27,27,1,0,0,,,1,FALSE,,,,,,,,,,,,,,,,,,,,,,,,,,,,,,,
,5fbb74f7d40ee2c8e428af65,627c6eb47b3813347a8a8a0d,2022-05-11_22h19.54.911,classification_task,2021.2.3,Win32,165.6177542,627c6715c52fd12f31907bcf,,,,,,,,,,,,,,,,,,,,,,,a,0,0.7633,"[""0.150"",""0.280"",""0.550"",""0.094""]","[1,1,1,0]",0,28,28,28,1,1,1,,,1,FALSE,,,,,,,,,,,,,,,,,,,,,,,,,,,,,,,
,5fbb74f7d40ee2c8e428af65,627c6eb47b3813347a8a8a0d,2022-05-11_22h19.54.911,classification_task,2021.2.3,Win32,165.6177542,627c6715c52fd12f31907bcf,,,,,,,,,,,,,,,,,,,,,,,a,0,0.6239,"[""0.150"",""0.280"",""0.094"",""0.720""]","[1,1,0,1]",0,29,29,29,1,1,1,,,1,FALSE,,,,,,,,,,,,,,,,,,,,,,,,,,,,,,,
,5fbb74f7d40ee2c8e428af65,627c6eb47b3813347a8a8a0d,2022-05-11_22h19.54.911,classification_task,2021.2.3,Win32,165.6177542,627c6715c52fd12f31907bcf,,,,,,,,,,,,,,,,,,,,,,,l,1,0.5799,"[""0.038"",""0.323"",""0.655"",""0.806""]","[1,1,0,1]",0,30,30,30,1,1,0,,,1,FALSE,,,,,,,,,,,,,,,,,,,,,,,,,,,,,,,
,5fbb74f7d40ee2c8e428af65,627c6eb47b3813347a8a8a0d,2022-05-11_22h19.54.911,classification_task,2021.2.3,Win32,165.6177542,627c6715c52fd12f31907bcf,,,,,,,,,,,,,,,,,,,,,,,a,0,0.8341,"[""0.645"",""0.323"",""0.494"",""0.806""]","[0,1,1,1]",0,31,31,31,1,1,0,,,1,FALSE,,,,,,,,,,,,,,,,,,,,,,,,,,,,,,,
,5fbb74f7d40ee2c8e428af65,627c6eb47b3813347a8a8a0d,2022-05-11_22h19.54.911,classification_task,2021.2.3,Win32,165.6177542,627c6715c52fd12f31907bcf,,,,,,,,,,,,,,,,,,,,,,,a,0,0.8627,"[""0.038"",""0.323"",""0.683"",""0.806""]","[1,1,0,1]",0,32,32,32,1,1,0,,,1,FALSE,,,,,,,,,,,,,,,,,,,,,,,,,,,,,,,
,5fbb74f7d40ee2c8e428af65,627c6eb47b3813347a8a8a0d,2022-05-11_22h19.54.911,classification_task,2021.2.3,Win32,165.6177542,627c6715c52fd12f31907bcf,,,,,,,,,,,,,,,,,,,,,,,l,0,1.0439,"[""0.246"",""0.364"",""0.077"",""0.880""]","[1,1,0,1]",0,33,33,33,1,0,0,,,1,FALSE,,,,,,,,,,,,,,,,,,,,,,,,,,,,,,,
,5fbb74f7d40ee2c8e428af65,627c6eb47b3813347a8a8a0d,2022-05-11_22h19.54.911,classification_task,2021.2.3,Win32,165.6177542,627c6715c52fd12f31907bcf,,,,,,,,,,,,,,,,,,,,,,,l,0,1.5884,"[""0.198"",""0.443"",""0.925"",""0.655""]","[1,1,1,0]",0,34,34,34,1,0,1,,,1,FALSE,,,,,,,,,,,,,,,,,,,,,,,,,,,,,,,
,5fbb74f7d40ee2c8e428af65,627c6eb47b3813347a8a8a0d,2022-05-11_22h19.54.911,classification_task,2021.2.3,Win32,165.6177542,627c6715c52fd12f31907bcf,,,,,,,,,,,,,,,,,,,,,,,a,0,3.4222,"[""0.150"",""0.643"",""0.550"",""0.720""]","[1,0,1,1]",0,35,35,35,1,1,1,,,1,FALSE,,,,,,,,,,,,,,,,,,,,,,,,,,,,,,,
,5fbb74f7d40ee2c8e428af65,627c6eb47b3813347a8a8a0d,2022-05-11_22h19.54.911,classification_task,2021.2.3,Win32,165.6177542,627c6715c52fd12f31907bcf,,,,,,,,,,,,,,,,,,,,,,,l,0,0.7394,"[""0.198"",""0.443"",""0.643"",""0.974""]","[1,1,0,1]",0,36,36,36,1,0,1,,,1,FALSE,,,,,,,,,,,,,,,,,,,,,,,,,,,,,,,
,5fbb74f7d40ee2c8e428af65,627c6eb47b3813347a8a8a0d,2022-05-11_22h19.54.911,classification_task,2021.2.3,Win32,165.6177542,627c6715c52fd12f31907bcf,,,,,,,,,,,,,,,,,,,,,,,a,0,1.3498,"[""0.150"",""0.280"",""0.550"",""0.761""]","[1,1,1,0]",0,37,37,37,1,1,1,,,1,FALSE,,,,,,,,,,,,,,,,,,,,,,,,,,,,,,,
,5fbb74f7d40ee2c8e428af65,627c6eb47b3813347a8a8a0d,2022-05-11_22h19.54.911,classification_task,2021.2.3,Win32,165.6177542,627c6715c52fd12f31907bcf,,,,,,,,,,,,,,,,,,,,,,,l,0,1.8413,"[""0.840"",""0.364"",""0.589"",""0.880""]","[0,1,1,1]",0,38,38,38,1,0,0,,,1,FALSE,,,,,,,,,,,,,,,,,,,,,,,,,,,,,,,
,5fbb74f7d40ee2c8e428af65,627c6eb47b3813347a8a8a0d,2022-05-11_22h19.54.911,classification_task,2021.2.3,Win32,165.6177542,627c6715c52fd12f31907bcf,,,,,,,,,,,,,,,,,,,,,,,a,0,1.5901,"[""0.150"",""0.280"",""0.645"",""0.720""]","[1,1,0,1]",0,39,39,39,1,1,1,,,1,FALSE,,,,,,,,,,,,,,,,,,,,,,,,,,,,,,,
,5fbb74f7d40ee2c8e428af65,627c6eb47b3813347a8a8a0d,2022-05-11_22h19.54.911,classification_task,2021.2.3,Win32,165.6177542,627c6715c52fd12f31907bcf,,,,,,,,,,,,,,,,,,,,,,,l,1,2.3336,"[""0.759"",""0.280"",""0.550"",""0.720""]","[0,1,1,1]",0,40,40,40,1,1,1,,,1,FALSE,,,,,,,,,,,,,,,,,,,,,,,,,,,,,,,
,5fbb74f7d40ee2c8e428af65,627c6eb47b3813347a8a8a0d,2022-05-11_22h19.54.911,classification_task,2021.2.3,Win32,165.6177542,627c6715c52fd12f31907bcf,,,,,,,,,,,,,,,,,,,,,,,l,0,1.0849,"[""0.198"",""0.402"",""0.925"",""0.974""]","[1,0,1,1]",0,41,41,41,1,0,1,,,1,FALSE,,,,,,,,,,,,,,,,,,,,,,,,,,,,,,,
,5fbb74f7d40ee2c8e428af65,627c6eb47b3813347a8a8a0d,2022-05-11_22h19.54.911,classification_task,2021.2.3,Win32,165.6177542,627c6715c52fd12f31907bcf,,,,,,,,,,,,,,,,,,,,,,,l,0,0.7938,"[""0.759"",""0.443"",""0.925"",""0.974""]","[0,1,1,1]",0,42,42,42,1,0,1,,,1,FALSE,,,,,,,,,,,,,,,,,,,,,,,,,,,,,,,
,5fbb74f7d40ee2c8e428af65,627c6eb47b3813347a8a8a0d,2022-05-11_22h19.54.911,classification_task,2021.2.3,Win32,165.6177542,627c6715c52fd12f31907bcf,,,,,,,,,,,,,,,,,,,,,,,a,0,0.6909,"[""0.038"",""0.323"",""0.494"",""0.402""]","[1,1,1,0]",0,43,43,43,1,1,0,,,1,FALSE,,,,,,,,,,,,,,,,,,,,,,,,,,,,,,,
,5fbb74f7d40ee2c8e428af65,627c6eb47b3813347a8a8a0d,2022-05-11_22h19.54.911,classification_task,2021.2.3,Win32,165.6177542,627c6715c52fd12f31907bcf,,,,,,,,,,,,,,,,,,,,,,,a,1,1.5154,"[""0.246"",""0.645"",""0.589"",""0.880""]","[1,0,1,1]",0,44,44,44,1,0,0,,,1,FALSE,,,,,,,,,,,,,,,,,,,,,,,,,,,,,,,
,5fbb74f7d40ee2c8e428af65,627c6eb47b3813347a8a8a0d,2022-05-11_22h19.54.911,classification_task,2021.2.3,Win32,165.6177542,627c6715c52fd12f31907bcf,,,,,,,,,,,,,,,,,,,,,,,l,0,1.3513,"[""0.246"",""0.364"",""0.589"",""0.840""]","[1,1,1,0]",0,45,45,45,1,0,0,,,1,FALSE,,,,,,,,,,,,,,,,,,,,,,,,,,,,,,,
,5fbb74f7d40ee2c8e428af65,627c6eb47b3813347a8a8a0d,2022-05-11_22h19.54.911,classification_task,2021.2.3,Win32,165.6177542,627c6715c52fd12f31907bcf,,,,,,,,,,,,,,,,,,,,,,,a,0,1.8483,"[""0.077"",""0.323"",""0.494"",""0.806""]","[0,1,1,1]",0,46,46,46,1,1,0,,,1,FALSE,,,,,,,,,,,,,,,,,,,,,,,,,,,,,,,
,5fbb74f7d40ee2c8e428af65,627c6eb47b3813347a8a8a0d,2022-05-11_22h19.54.911,classification_task,2021.2.3,Win32,165.6177542,627c6715c52fd12f31907bcf,,,,,,,,,,,,,,,,,,,,,,,l,1,1.3029,"[""0.038"",""0.840"",""0.494"",""0.806""]","[1,0,1,1]",0,47,47,47,1,1,0,,,1,FALSE,,,,,,,,,,,,,,,,,,,,,,,,,,,,,,,
,5fbb74f7d40ee2c8e428af65,627c6eb47b3813347a8a8a0d,2022-05-11_22h19.54.911,classification_task,2021.2.3,Win32,165.6177542,627c6715c52fd12f31907bcf,,,,,,,,,,,,,,,,,,,,,,,a,0,0.5955,"[""0.038"",""0.402"",""0.494"",""0.806""]","[1,0,1,1]",0,48,48,48,1,1,0,,,1,FALSE,,,,,,,,,,,,,,,,,,,,,,,,,,,,,,,
,5fbb74f7d40ee2c8e428af65,627c6eb47b3813347a8a8a0d,2022-05-11_22h19.54.911,classification_task,2021.2.3,Win32,165.6177542,627c6715c52fd12f31907bcf,,,,,,,,,,,,,,,,,,,,,,,l,0,0.7237,"[""0.683"",""0.443"",""0.925"",""0.974""]","[0,1,1,1]",0,49,49,49,1,0,1,,,1,FALSE,,,,,,,,,,,,,,,,,,,,,,,,,,,,,,,
,5fbb74f7d40ee2c8e428af65,627c6eb47b3813347a8a8a0d,2022-05-11_22h19.54.911,classification_task,2021.2.3,Win32,165.6177542,627c6715c52fd12f31907bcf,,,,,,,,,,,,,,,,,,,,,,,a,1,1.5925,"[""0.246"",""0.364"",""0.589"",""0.402""]","[1,1,1,0]",0,50,50,50,1,0,0,,,1,FALSE,,,,,,,,,,,,,,,,,,,,,,,,,,,,,,,
,5fbb74f7d40ee2c8e428af65,627c6eb47b3813347a8a8a0d,2022-05-11_22h19.54.911,classification_task,2021.2.3,Win32,165.6177542,627c6715c52fd12f31907bcf,,,,,,,,,,,,,,,,,,,,,,,l,0,1.8204,"[""0.246"",""0.364"",""0.682"",""0.880""]","[1,1,0,1]",0,51,51,51,1,0,0,,,1,FALSE,,,,,,,,,,,,,,,,,,,,,,,,,,,,,,,
,5fbb74f7d40ee2c8e428af65,627c6eb47b3813347a8a8a0d,2022-05-11_22h19.54.911,classification_task,2021.2.3,Win32,165.6177542,627c6715c52fd12f31907bcf,,,,,,,,,,,,,,,,,,,,,,,a,0,0.6822,"[""0.038"",""0.323"",""0.402"",""0.806""]","[1,1,0,1]",0,52,52,52,1,1,0,,,1,FALSE,,,,,,,,,,,,,,,,,,,,,,,,,,,,,,,
,5fbb74f7d40ee2c8e428af65,627c6eb47b3813347a8a8a0d,2022-05-11_22h19.54.911,classification_task,2021.2.3,Win32,165.6177542,627c6715c52fd12f31907bcf,,,,,,,,,,,,,,,,,,,,,,,a,1,1.4513,"[""0.246"",""0.091"",""0.589"",""0.880""]","[1,0,1,1]",0,53,53,53,1,0,0,,,1,FALSE,,,,,,,,,,,,,,,,,,,,,,,,,,,,,,,
,5fbb74f7d40ee2c8e428af65,627c6eb47b3813347a8a8a0d,2022-05-11_22h19.54.911,classification_task,2021.2.3,Win32,165.6177542,627c6715c52fd12f31907bcf,,,,,,,,,,,,,,,,,,,,,,,l,0,1.7296,"[""0.198"",""0.443"",""0.094"",""0.974""]","[1,1,0,1]",0,54,54,54,1,0,1,,,1,FALSE,,,,,,,,,,,,,,,,,,,,,,,,,,,,,,,
,5fbb74f7d40ee2c8e428af65,627c6eb47b3813347a8a8a0d,2022-05-11_22h19.54.911,classification_task,2021.2.3,Win32,165.6177542,627c6715c52fd12f31907bcf,,,,,,,,,,,,,,,,,,,,,,,a,0,0.6707,"[""0.038"",""0.323"",""0.494"",""0.077""]","[1,1,1,0]",0,55,55,55,1,1,0,,,1,FALSE,,,,,,,,,,,,,,,,,,,,,,,,,,,,,,,
,5fbb74f7d40ee2c8e428af65,627c6eb47b3813347a8a8a0d,2022-05-11_22h19.54.911,classification_task,2021.2.3,Win32,165.6177542,627c6715c52fd12f31907bcf,,,,,,,,,,,,,,,,,,,,,,,l,1,0.9518,"[""0.150"",""0.280"",""0.645"",""0.720""]","[1,1,0,1]",0,56,56,56,1,1,1,,,1,FALSE,,,,,,,,,,,,,,,,,,,,,,,,,,,,,,,
,5fbb74f7d40ee2c8e428af65,627c6eb47b3813347a8a8a0d,2022-05-11_22h19.54.911,classification_task,2021.2.3,Win32,165.6177542,627c6715c52fd12f31907bcf,,,,,,,,,,,,,,,,,,,,,,,a,0,1.4754,"[""0.106"",""0.280"",""0.550"",""0.720""]","[0,1,1,1]",0,57,57,57,1,1,1,,,1,FALSE,,,,,,,,,,,,,,,,,,,,,,,,,,,,,,,
,5fbb74f7d40ee2c8e428af65,627c6eb47b3813347a8a8a0d,2022-05-11_22h19.54.911,classification_task,2021.2.3,Win32,165.6177542,627c6715c52fd12f31907bcf,,,,,,,,,,,,,,,,,,,,,,,a,0,0.8004,"[""0.150"",""0.280"",""0.550"",""0.655""]","[1,1,1,0]",0,58,58,58,1,1,1,,,1,FALSE,,,,,,,,,,,,,,,,,,,,,,,,,,,,,,,
,5fbb74f7d40ee2c8e428af65,627c6eb47b3813347a8a8a0d,2022-05-11_22h19.54.911,classification_task,2021.2.3,Win32,165.6177542,627c6715c52fd12f31907bcf,,,,,,,,,,,,,,,,,,,,,,,l,1,0.9164,"[""0.840"",""0.323"",""0.494"",""0.806""]","[0,1,1,1]",0,59,59,59,1,1,0,,,1,FALSE,,,,,,,,,,,,,,,,,,,,,,,,,,,,,,,
,5fbb74f7d40ee2c8e428af65,627c6eb47b3813347a8a8a0d,2022-05-11_22h19.54.911,classification_task,2021.2.3,Win32,165.6177542,627c6715c52fd12f31907bcf,,,,,,,,,,,,,,,,,,,,,,,l,0,2.8511,"[""0.198"",""0.443"",""0.925"",""0.761""]","[1,1,1,0]",0,60,60,60,1,0,1,,,1,FALSE,,,,,,,,,,,,,,,,,,,,,,,,,,,,,,,
,5fbb74f7d40ee2c8e428af65,627c6eb47b3813347a8a8a0d,2022-05-11_22h19.54.911,classification_task,2021.2.3,Win32,165.6177542,627c6715c52fd12f31907bcf,,,,,,,,,,,,,,,,,,,,,,,a,0,0.6921,"[""0.150"",""0.402"",""0.550"",""0.720""]","[1,0,1,1]",0,61,61,61,1,1,1,,,1,FALSE,,,,,,,,,,,,,,,,,,,,,,,,,,,,,,,
,5fbb74f7d40ee2c8e428af65,627c6eb47b3813347a8a8a0d,2022-05-11_22h19.54.911,classification_task,2021.2.3,Win32,165.6177542,627c6715c52fd12f31907bcf,,,,,,,,,,,,,,,,,,,,,,,l,0,0.7394,"[""0.198"",""0.683"",""0.925"",""0.974""]","[1,0,1,1]",0,62,62,62,1,0,1,,,1,FALSE,,,,,,,,,,,,,,,,,,,,,,,,,,,,,,,
,5fbb74f7d40ee2c8e428af65,627c6eb47b3813347a8a8a0d,2022-05-11_22h19.54.911,classification_task,2021.2.3,Win32,165.6177542,627c6715c52fd12f31907bcf,,,,,,,,,,,,,,,,,,,,,,,l,0,1.9936,"[""0.106"",""0.364"",""0.589"",""0.880""]","[0,1,1,1]",0,63,63,63,1,0,0,,,1,FALSE,,,,,,,,,,,,,,,,,,,,,,,,,,,,,,,
,5fbb74f7d40ee2c8e428af65,627c6eb47b3813347a8a8a0d,2022-05-11_22h19.54.911,classification_task,2021.2.3,Win32,165.6177542,627c6715c52fd12f31907bcf,,,,,,,,,,,,,,,,,,,,,,,,,,,,,,,,,,,,,,,0, ,,0,9.951131127,170.8387,0,2,2,2,1,2,3,,,,,,,,,,,,,,,,,,
,5fbb74f7d40ee2c8e428af65,627c6eb47b3813347a8a8a0d,2022-05-11_22h19.54.911,classification_task,2021.2.3,Win32,165.6177542,627c6715c52fd12f31907bcf,,,,,,,,,,,,,,,,,,,,,,,,,,,,,,,,,,,,,,,1,  ,,0,10,172.2842,0,2,2,2,1,2,3,,,,,,,,,,,,,,,,,,
,5fbb74f7d40ee2c8e428af65,627c6eb47b3813347a8a8a0d,2022-05-11_22h19.54.911,classification_task,2021.2.3,Win32,165.6177542,627c6715c52fd12f31907bcf,,,,,,,,,,,,,,,,,,,,,,,,,,,,,,,,,,,,,,,2,  ,,0,10,172.7732,0,2,2,2,1,2,3,,,,,,,,,,,,,,,,,,
,5fbb74f7d40ee2c8e428af65,627c6eb47b3813347a8a8a0d,2022-05-11_22h19.54.911,classification_task,2021.2.3,Win32,165.6177542,627c6715c52fd12f31907bcf,,,,,,,,,,,,,,,,,,,,,,,,,,,,,,,,,,,,,,,,,,,,,0,2,2,2,1,,3,,,,,,,,,,,,,,,,,,
,5fbb74f7d40ee2c8e428af65,627c6eb47b3813347a8a8a0d,2022-05-11_22h19.54.911,classification_task,2021.2.3,Win32,165.6177542,627c6715c52fd12f31907bcf,,,,,,,,,,,,,,,,,,,,,,,,,,,,,,,,,,,,,,,,,,,,,,,,,,,,,I believe the aid is a competent performer,,0.7,0,4,781.4865,0,0,0,0,1,0,,,,,
,5fbb74f7d40ee2c8e428af65,627c6eb47b3813347a8a8a0d,2022-05-11_22h19.54.911,classification_task,2021.2.3,Win32,165.6177542,627c6715c52fd12f31907bcf,,,,,,,,,,,,,,,,,,,,,,,,,,,,,,,,,,,,,,,,,,,,,,,,,,,,,I trust the aid,,0.7,0,5,781.0751,0,0,0,0,1,0,,,,,
,5fbb74f7d40ee2c8e428af65,627c6eb47b3813347a8a8a0d,2022-05-11_22h19.54.911,classification_task,2021.2.3,Win32,165.6177542,627c6715c52fd12f31907bcf,,,,,,,,,,,,,,,,,,,,,,,,,,,,,,,,,,,,,,,,,,,,,,,,,,,,,I have confidence in the advice given by the aid,,0.7,0,5,785.9674,0,0,0,0,1,0,,,,,
,5fbb74f7d40ee2c8e428af65,627c6eb47b3813347a8a8a0d,2022-05-11_22h19.54.911,classification_task,2021.2.3,Win32,165.6177542,627c6715c52fd12f31907bcf,,,,,,,,,,,,,,,,,,,,,,,,,,,,,,,,,,,,,,,,,,,,,,,,,,,,,I can depend on the aid,,0.7,0,5,783.1631,0,0,0,0,1,0,,,,,
,5fbb74f7d40ee2c8e428af65,627c6eb47b3813347a8a8a0d,2022-05-11_22h19.54.911,classification_task,2021.2.3,Win32,165.6177542,627c6715c52fd12f31907bcf,,,,,,,,,,,,,,,,,,,,,,,,,,,,,,,,,,,,,,,,,,,,,,,,,,,,,I can rely on the aid to behave in consistent ways,,0.7,0,4,788.6762,0,0,0,0,1,0,,,,,
,5fbb74f7d40ee2c8e428af65,627c6eb47b3813347a8a8a0d,2022-05-11_22h19.54.911,classification_task,2021.2.3,Win32,165.6177542,627c6715c52fd12f31907bcf,,,,,,,,,,,,,,,,,,,,,,,,,,,,,,,,,,,,,,,,,,,,,,,,,,,,,I can rely on the aid to do its best every time I take its advice,,0.7,0,4,791.0462,0,0,0,0,1,0,,,,,
,5fbb74f7d40ee2c8e428af65,627c6eb47b3813347a8a8a0d,2022-05-11_22h19.54.911,classification_task,2021.2.3,Win32,165.6177542,627c6715c52fd12f31907bcf,,,,,,,,,,,,,,,,,,,,,,,,,,,,,,,,,,,,,,,,,,,,,,,,,,,,,"On trials you completed with assistance from the aid, how frequently did you think the aid was correct?",,0.7,0,70%,,0,0,0,0,1,0,,,,,
,5fbb74f7d40ee2c8e428af65,627c6eb47b3813347a8a8a0d,2022-05-11_22h19.54.911,classification_task,2021.2.3,Win32,165.6177542,627c6715c52fd12f31907bcf,,,,,,,,,,,,,,,,,,,,,,,,,,,,,,,,,,,,,,,,,,,,,,,,,,,,,"On trials you completed without the aid, how frequently did you think you were correct?",,0.7,0,50%,,0,0,0,0,1,0,,,,,
,5fbb74f7d40ee2c8e428af65,627c6eb47b3813347a8a8a0d,2022-05-11_22h19.54.911,classification_task,2021.2.3,Win32,165.6177542,627c6715c52fd12f31907bcf,,,,,,,,,,,,,,,,,,,,,,,,,,,,,,,,,,,,,,,,,,,,,,,,,,,,,,,,,,,0,0,0,0,1,,,,,,
,5fbb74f7d40ee2c8e428af65,627c6eb47b3813347a8a8a0d,2022-05-11_22h19.54.911,classification_task,2021.2.3,Win32,165.6177542,627c6715c52fd12f31907bcf,,,,,,,,,,,,,,,,,,,,,,,,,,,,,,,,,,,,,,,,,,,,,,,,,,,,,,,,,,,,,,,,,space,12.0285,821.7414,,
,5fbb74f7d40ee2c8e428af65,627c6eb47b3813347a8a8a0d,2022-05-11_22h19.54.911,classification_task,2021.2.3,Win32,165.6177542,627c6715c52fd12f31907bcf,,,,,,,,,,,,,,,,,,,,,,,,,,,,,,,,,,,,,,,,,,,,,,,,,,,,,,,,,,,,,,,,,,,,"Mozilla/5.0 (Windows NT 10.0; Win64; x64) AppleWebKit/537.36 (KHTML, like Gecko) Chrome/101.0.4951.64 Safari/537.36",
,5fbb74f7d40ee2c8e428af65,627c6eb47b3813347a8a8a0d,2022-05-11_22h19.54.911,classification_task,2021.2.3,Win32,165.6177542,627c6715c52fd12f31907bcf,,,,,,,,,,,,,,,,,,,,,,,,,,,,,,,,,,,,,,,,,,,,,,,,,,,,,,,,,,,,,,,,,,,,,LOWLIGHT
