usingWebGL,participant,session,date,expName,psychopyVersion,OS,frameRate,study_id,signatures_friend,signatures_foe,band_ranges_top,band_ranges_bottom,formitemText,formtype,formundefined,formitemWidth,formindex,formresponse,formrt,key_resp_2.keys,key_resp_2.rt,tute_resp.keys,tute_resp.rt,tutorial.thisRepN,tutorial.thisTrialN,tutorial.thisN,tutorial.thisIndex,tutorial.ran,key_resp_4.keys,key_resp_4.rt,key_resp.keys,key_resp.corr,lines_presented,is_signal_presented,trials.thisRepN,trials.thisTrialN,trials.thisN,trials.thisIndex,trials.ran,vessel,active_band,lines,is_signal,supported_pos,catch_trial,key_resp.rt,debrief_formindex,debrief_formitemText,debrief_formtype,debrief_formitemWidth,debrief_formresponse,debrief_formrt,phases.thisRepN,phases.thisTrialN,phases.thisN,phases.thisIndex,phases.ran,phases.order,phase,key_resp_3.keys,trustitemText,trusttype,trustitemWidth,trustindex,trustresponse,trustrt,support_status.thisRepN,support_status.thisTrialN,support_status.thisN,support_status.thisIndex,support_status.ran,support_status.order,key_resp_5.keys,key_resp_5.rt,globalClockTime,userAgent,manualCondition
TRUE,5fc429047f2ae3825eb811a4,627c7578f28b3cd68796cf3c,2022-05-11_22h48.39.958,classification_task,2021.2.3,Win32,60.40106306,627c6715c52fd12f31907bd0,,,,,,,,,,,,,,,,,,,,,,,,,,,,,,,,,,,,,,,,,,,,,,,,,,,,,,,,,,,,,,,,,,,,,
,5fc429047f2ae3825eb811a4,627c7578f28b3cd68796cf3c,2022-05-11_22h48.39.958,classification_task,2021.2.3,Win32,60.40106306,627c6715c52fd12f31907bd0,"[[""0.172"",""0.479"",""0.911"",""0.959""],[""0.214"",""0.413"",""0.724"",""0.869""]]","[[""0.137"",""0.263"",""0.518"",""0.759""],[""0.026"",""0.356"",""0.613"",""0.836""]]","[1,10]","[100,1000]",Video game experience,,,0.7,0,,,,,,,,,,,,,,,,,,,,,,,,,,,,,,,,,,,,,,,,,,,,,,,,,,,,,,,,,,,,
,5fc429047f2ae3825eb811a4,627c7578f28b3cd68796cf3c,2022-05-11_22h48.39.958,classification_task,2021.2.3,Win32,60.40106306,627c6715c52fd12f31907bd0,,,,,Approximately how many hours did you spend playing video games in the last week?,,,0.7,0,4,,,,,,,,,,,,,,,,,,,,,,,,,,,,,,,,,,,,,,,,,,,,,,,,,,,,,,,,,,,
,5fc429047f2ae3825eb811a4,627c7578f28b3cd68796cf3c,2022-05-11_22h48.39.958,classification_task,2021.2.3,Win32,60.40106306,627c6715c52fd12f31907bd0,,,,,"Which game did you play the most this year? (Enter ""None"" if you didn't play any)",,,0.7,0,Sims 4,,,,,,,,,,,,,,,,,,,,,,,,,,,,,,,,,,,,,,,,,,,,,,,,,,,,,,,,,,,
,5fc429047f2ae3825eb811a4,627c7578f28b3cd68796cf3c,2022-05-11_22h48.39.958,classification_task,2021.2.3,Win32,60.40106306,627c6715c52fd12f31907bd0,,,,,Visual perception,,,0.7,0,,,,,,,,,,,,,,,,,,,,,,,,,,,,,,,,,,,,,,,,,,,,,,,,,,,,,,,,,,,,
,5fc429047f2ae3825eb811a4,627c7578f28b3cd68796cf3c,2022-05-11_22h48.39.958,classification_task,2021.2.3,Win32,60.40106306,627c6715c52fd12f31907bd0,,,,,Do you have any form of color blindness?,,,0.7,0,No,29.1536,,,,,,,,,,,,,,,,,,,,,,,,,,,,,,,,,,,,,,,,,,,,,,,,,,,,,,,,,,
,5fc429047f2ae3825eb811a4,627c7578f28b3cd68796cf3c,2022-05-11_22h48.39.958,classification_task,2021.2.3,Win32,60.40106306,627c6715c52fd12f31907bd0,,,,,Do you use software to change the colour temperature of your screen (e.g. f.lux)?,,,0.7,0,No,34.0481,,,,,,,,,,,,,,,,,,,,,,,,,,,,,,,,,,,,,,,,,,,,,,,,,,,,,,,,,,
,5fc429047f2ae3825eb811a4,627c7578f28b3cd68796cf3c,2022-05-11_22h48.39.958,classification_task,2021.2.3,Win32,60.40106306,627c6715c52fd12f31907bd0,,,,,,,,,,,,space,34.5427,space,8.7127,0,0,0,0,1,,,,,,,,,,,,,,,,,,,,,,,,,,,,,,,,,,,,,,,,,,,,,,,,,
,5fc429047f2ae3825eb811a4,627c7578f28b3cd68796cf3c,2022-05-11_22h48.39.958,classification_task,2021.2.3,Win32,60.40106306,627c6715c52fd12f31907bd0,,,,,,,,,,,,,,space,7.1818,1,0,1,0,1,,,,,,,,,,,,,,,,,,,,,,,,,,,,,,,,,,,,,,,,,,,,,,,,,
,5fc429047f2ae3825eb811a4,627c7578f28b3cd68796cf3c,2022-05-11_22h48.39.958,classification_task,2021.2.3,Win32,60.40106306,627c6715c52fd12f31907bd0,,,,,,,,,,,,,,space,20.7456,2,0,2,0,1,,,,,,,,,,,,,,,,,,,,,,,,,,,,,,,,,,,,,,,,,,,,,,,,,
,5fc429047f2ae3825eb811a4,627c7578f28b3cd68796cf3c,2022-05-11_22h48.39.958,classification_task,2021.2.3,Win32,60.40106306,627c6715c52fd12f31907bd0,,,,,,,,,,,,,,space,14.1144,3,0,3,0,1,,,,,,,,,,,,,,,,,,,,,,,,,,,,,,,,,,,,,,,,,,,,,,,,,
,5fc429047f2ae3825eb811a4,627c7578f28b3cd68796cf3c,2022-05-11_22h48.39.958,classification_task,2021.2.3,Win32,60.40106306,627c6715c52fd12f31907bd0,,,,,,,,,,,,,,space,34.6302,4,0,4,0,1,,,,,,,,,,,,,,,,,,,,,,,,,,,,,,,,,,,,,,,,,,,,,,,,,
,5fc429047f2ae3825eb811a4,627c7578f28b3cd68796cf3c,2022-05-11_22h48.39.958,classification_task,2021.2.3,Win32,60.40106306,627c6715c52fd12f31907bd0,,,,,,,,,,,,,,,,,,,,,space,18.209,,0,"[""0.172"",""0.479"",""0.576"",""0.959""]","[1,1,0,1]",0,0,0,0,1,0,0,,,0,FALSE,,,,,,,,,,,,,,,,,,,,,,,,,,,,,,,,
,5fc429047f2ae3825eb811a4,627c7578f28b3cd68796cf3c,2022-05-11_22h48.39.958,classification_task,2021.2.3,Win32,60.40106306,627c6715c52fd12f31907bd0,,,,,,,,,,,,,,,,,,,,,,,l,0,"[""0.214"",""0.413"",""0.724"",""0.069""]","[1,1,1,0]",0,1,1,1,1,0,1,,,0,FALSE,3.7903,,,,,,,,,,,,,,,,,,,,,,,,,,,,,,,
,5fc429047f2ae3825eb811a4,627c7578f28b3cd68796cf3c,2022-05-11_22h48.39.958,classification_task,2021.2.3,Win32,60.40106306,627c6715c52fd12f31907bd0,,,,,,,,,,,,,,,,,,,,,,,a,0,"[""0.026"",""0.356"",""0.613"",""0.300""]","[1,1,1,0]",0,2,2,2,1,1,1,,,0,FALSE,2.1264,,,,,,,,,,,,,,,,,,,,,,,,,,,,,,,
,5fc429047f2ae3825eb811a4,627c7578f28b3cd68796cf3c,2022-05-11_22h48.39.958,classification_task,2021.2.3,Win32,60.40106306,627c6715c52fd12f31907bd0,,,,,,,,,,,,,,,,,,,,,,,l,0,"[""0.214"",""0.413"",""0.564"",""0.869""]","[1,1,0,1]",0,3,3,3,1,0,1,,,0,FALSE,3.2957,,,,,,,,,,,,,,,,,,,,,,,,,,,,,,,
,5fc429047f2ae3825eb811a4,627c7578f28b3cd68796cf3c,2022-05-11_22h48.39.958,classification_task,2021.2.3,Win32,60.40106306,627c6715c52fd12f31907bd0,,,,,,,,,,,,,,,,,,,,,,,a,1,"[""0.172"",""0.479"",""0.911"",""0.560""]","[1,1,1,0]",0,4,4,4,1,0,0,,,0,FALSE,7.1395,,,,,,,,,,,,,,,,,,,,,,,,,,,,,,,
,5fc429047f2ae3825eb811a4,627c7578f28b3cd68796cf3c,2022-05-11_22h48.39.958,classification_task,2021.2.3,Win32,60.40106306,627c6715c52fd12f31907bd0,,,,,,,,,,,,,,,,,,,,,,,a,1,"[""0.560"",""0.413"",""0.724"",""0.869""]","[0,1,1,1]",0,5,5,5,1,0,1,,,0,FALSE,5.8449,,,,,,,,,,,,,,,,,,,,,,,,,,,,,,,
,5fc429047f2ae3825eb811a4,627c7578f28b3cd68796cf3c,2022-05-11_22h48.39.958,classification_task,2021.2.3,Win32,60.40106306,627c6715c52fd12f31907bd0,,,,,,,,,,,,,,,,,,,,,,,l,1,"[""0.084"",""0.263"",""0.518"",""0.759""]","[0,1,1,1]",0,6,6,6,1,1,0,,,0,FALSE,4.4945,,,,,,,,,,,,,,,,,,,,,,,,,,,,,,,
,5fc429047f2ae3825eb811a4,627c7578f28b3cd68796cf3c,2022-05-11_22h48.39.958,classification_task,2021.2.3,Win32,60.40106306,627c6715c52fd12f31907bd0,,,,,,,,,,,,,,,,,,,,,,,a,0,"[""0.026"",""0.647"",""0.613"",""0.836""]","[1,0,1,1]",0,7,7,7,1,1,1,,,0,FALSE,4.16,,,,,,,,,,,,,,,,,,,,,,,,,,,,,,,
,5fc429047f2ae3825eb811a4,627c7578f28b3cd68796cf3c,2022-05-11_22h48.39.958,classification_task,2021.2.3,Win32,60.40106306,627c6715c52fd12f31907bd0,,,,,,,,,,,,,,,,,,,,,,,a,1,"[""0.214"",""0.672"",""0.724"",""0.869""]","[1,0,1,1]",0,8,8,8,1,0,1,,,0,FALSE,6.9653,,,,,,,,,,,,,,,,,,,,,,,,,,,,,,,
,5fc429047f2ae3825eb811a4,627c7578f28b3cd68796cf3c,2022-05-11_22h48.39.958,classification_task,2021.2.3,Win32,60.40106306,627c6715c52fd12f31907bd0,,,,,,,,,,,,,,,,,,,,,,,a,1,"[""0.576"",""0.479"",""0.911"",""0.959""]","[0,1,1,1]",0,9,9,9,1,0,0,,,0,FALSE,4.8523,,,,,,,,,,,,,,,,,,,,,,,,,,,,,,,
,5fc429047f2ae3825eb811a4,627c7578f28b3cd68796cf3c,2022-05-11_22h48.39.958,classification_task,2021.2.3,Win32,60.40106306,627c6715c52fd12f31907bd0,,,,,,,,,,,,,,,,,,,,,,,a,1,"[""0.172"",""0.300"",""0.911"",""0.959""]","[1,0,1,1]",0,10,10,10,1,0,0,,,0,FALSE,3.2523,,,,,,,,,,,,,,,,,,,,,,,,,,,,,,,
,5fc429047f2ae3825eb811a4,627c7578f28b3cd68796cf3c,2022-05-11_22h48.39.958,classification_task,2021.2.3,Win32,60.40106306,627c6715c52fd12f31907bd0,,,,,,,,,,,,,,,,,,,,,,,l,1,"[""0.137"",""0.263"",""0.518"",""0.083""]","[1,1,1,0]",0,11,11,11,1,1,0,,,0,FALSE,5.5772,,,,,,,,,,,,,,,,,,,,,,,,,,,,,,,
,5fc429047f2ae3825eb811a4,627c7578f28b3cd68796cf3c,2022-05-11_22h48.39.958,classification_task,2021.2.3,Win32,60.40106306,627c6715c52fd12f31907bd0,,,,,,,,,,,,,,,,,,,,,,,l,1,"[""0.137"",""0.263"",""0.300"",""0.759""]","[1,1,0,1]",0,12,12,12,1,1,0,,,0,FALSE,2.1847,,,,,,,,,,,,,,,,,,,,,,,,,,,,,,,
,5fc429047f2ae3825eb811a4,627c7578f28b3cd68796cf3c,2022-05-11_22h48.39.958,classification_task,2021.2.3,Win32,60.40106306,627c6715c52fd12f31907bd0,,,,,,,,,,,,,,,,,,,,,,,l,1,"[""0.026"",""0.356"",""0.682"",""0.836""]","[1,1,0,1]",0,13,13,13,1,1,1,,,0,FALSE,3.0305,,,,,,,,,,,,,,,,,,,,,,,,,,,,,,,
,5fc429047f2ae3825eb811a4,627c7578f28b3cd68796cf3c,2022-05-11_22h48.39.958,classification_task,2021.2.3,Win32,60.40106306,627c6715c52fd12f31907bd0,,,,,,,,,,,,,,,,,,,,,,,a,0,"[""0.686"",""0.356"",""0.613"",""0.836""]","[0,1,1,1]",0,14,14,14,1,1,1,,,0,FALSE,5.6652,,,,,,,,,,,,,,,,,,,,,,,,,,,,,,,
,5fc429047f2ae3825eb811a4,627c7578f28b3cd68796cf3c,2022-05-11_22h48.39.958,classification_task,2021.2.3,Win32,60.40106306,627c6715c52fd12f31907bd0,,,,,,,,,,,,,,,,,,,,,,,l,1,"[""0.137"",""0.300"",""0.518"",""0.759""]","[1,0,1,1]",0,15,15,15,1,1,0,,,0,FALSE,3.006,,,,,,,,,,,,,,,,,,,,,,,,,,,,,,,
,5fc429047f2ae3825eb811a4,627c7578f28b3cd68796cf3c,2022-05-11_22h48.39.958,classification_task,2021.2.3,Win32,60.40106306,627c6715c52fd12f31907bd0,,,,,,,,,,,,,,,,,,,,,,,l,1,"[""0.579"",""0.263"",""0.518"",""0.759""]","[0,1,1,1]",0,16,16,16,1,1,0,,,0,FALSE,4.5213,,,,,,,,,,,,,,,,,,,,,,,,,,,,,,,
,5fc429047f2ae3825eb811a4,627c7578f28b3cd68796cf3c,2022-05-11_22h48.39.958,classification_task,2021.2.3,Win32,60.40106306,627c6715c52fd12f31907bd0,,,,,,,,,,,,,,,,,,,,,,,l,1,"[""0.137"",""0.263"",""0.686"",""0.759""]","[1,1,0,1]",0,17,17,17,1,1,0,,,0,FALSE,6.5764,,,,,,,,,,,,,,,,,,,,,,,,,,,,,,,
,5fc429047f2ae3825eb811a4,627c7578f28b3cd68796cf3c,2022-05-11_22h48.39.958,classification_task,2021.2.3,Win32,60.40106306,627c6715c52fd12f31907bd0,,,,,,,,,,,,,,,,,,,,,,,l,0,"[""0.214"",""0.413"",""0.576"",""0.869""]","[1,1,0,1]",0,18,18,18,1,0,1,,,0,FALSE,8.4531,,,,,,,,,,,,,,,,,,,,,,,,,,,,,,,
,5fc429047f2ae3825eb811a4,627c7578f28b3cd68796cf3c,2022-05-11_22h48.39.958,classification_task,2021.2.3,Win32,60.40106306,627c6715c52fd12f31907bd0,,,,,,,,,,,,,,,,,,,,,,,l,1,"[""0.647"",""0.356"",""0.613"",""0.836""]","[0,1,1,1]",0,19,19,19,1,1,1,,,0,FALSE,5.0562,,,,,,,,,,,,,,,,,,,,,,,,,,,,,,,
,5fc429047f2ae3825eb811a4,627c7578f28b3cd68796cf3c,2022-05-11_22h48.39.958,classification_task,2021.2.3,Win32,60.40106306,627c6715c52fd12f31907bd0,,,,,,,,,,,,,,,,,,,,,,,l,1,"[""0.026"",""0.356"",""0.672"",""0.836""]","[1,1,0,1]",0,20,20,20,1,1,1,,,0,FALSE,2.6423,,,,,,,,,,,,,,,,,,,,,,,,,,,,,,,
,5fc429047f2ae3825eb811a4,627c7578f28b3cd68796cf3c,2022-05-11_22h48.39.958,classification_task,2021.2.3,Win32,60.40106306,627c6715c52fd12f31907bd0,,,,,,,,,,,,,,,,,,,,,,,l,1,"[""0.137"",""0.672"",""0.518"",""0.759""]","[1,0,1,1]",0,21,21,21,1,1,0,,,0,FALSE,3.1896,,,,,,,,,,,,,,,,,,,,,,,,,,,,,,,
,5fc429047f2ae3825eb811a4,627c7578f28b3cd68796cf3c,2022-05-11_22h48.39.958,classification_task,2021.2.3,Win32,60.40106306,627c6715c52fd12f31907bd0,,,,,,,,,,,,,,,,,,,,,,,a,1,"[""0.172"",""0.479"",""0.911"",""0.686""]","[1,1,1,0]",0,22,22,22,1,0,0,,,0,FALSE,3.1627,,,,,,,,,,,,,,,,,,,,,,,,,,,,,,,
,5fc429047f2ae3825eb811a4,627c7578f28b3cd68796cf3c,2022-05-11_22h48.39.958,classification_task,2021.2.3,Win32,60.40106306,627c6715c52fd12f31907bd0,,,,,,,,,,,,,,,,,,,,,,,a,1,"[""0.172"",""0.479"",""0.564"",""0.959""]","[1,1,0,1]",0,23,23,23,1,0,0,,,0,FALSE,2.7656,,,,,,,,,,,,,,,,,,,,,,,,,,,,,,,
,5fc429047f2ae3825eb811a4,627c7578f28b3cd68796cf3c,2022-05-11_22h48.39.958,classification_task,2021.2.3,Win32,60.40106306,627c6715c52fd12f31907bd0,,,,,,,,,,,,,,,,,,,,,,,l,1,"[""0.026"",""0.356"",""0.613"",""0.661""]","[1,1,1,0]",0,24,24,24,1,1,1,,,0,FALSE,2.6212,,,,,,,,,,,,,,,,,,,,,,,,,,,,,,,
,5fc429047f2ae3825eb811a4,627c7578f28b3cd68796cf3c,2022-05-11_22h48.39.958,classification_task,2021.2.3,Win32,60.40106306,627c6715c52fd12f31907bd0,,,,,,,,,,,,,,,,,,,,,,,l,1,"[""0.026"",""0.564"",""0.613"",""0.836""]","[1,0,1,1]",0,25,25,25,1,1,1,,,0,FALSE,2.8271,,,,,,,,,,,,,,,,,,,,,,,,,,,,,,,
,5fc429047f2ae3825eb811a4,627c7578f28b3cd68796cf3c,2022-05-11_22h48.39.958,classification_task,2021.2.3,Win32,60.40106306,627c6715c52fd12f31907bd0,,,,,,,,,,,,,,,,,,,,,,,a,1,"[""0.682"",""0.413"",""0.724"",""0.869""]","[0,1,1,1]",0,26,26,26,1,0,1,,,0,FALSE,5.4795,,,,,,,,,,,,,,,,,,,,,,,,,,,,,,,
,5fc429047f2ae3825eb811a4,627c7578f28b3cd68796cf3c,2022-05-11_22h48.39.958,classification_task,2021.2.3,Win32,60.40106306,627c6715c52fd12f31907bd0,,,,,,,,,,,,,,,,,,,,,,,l,1,"[""0.137"",""0.263"",""0.518"",""0.576""]","[1,1,1,0]",0,27,27,27,1,1,0,,,0,FALSE,2.6155,,,,,,,,,,,,,,,,,,,,,,,,,,,,,,,
,5fc429047f2ae3825eb811a4,627c7578f28b3cd68796cf3c,2022-05-11_22h48.39.958,classification_task,2021.2.3,Win32,60.40106306,627c6715c52fd12f31907bd0,,,,,,,,,,,,,,,,,,,,,,,a,1,"[""0.669"",""0.479"",""0.911"",""0.959""]","[0,1,1,1]",0,28,28,28,1,0,0,,,0,FALSE,3.9477,,,,,,,,,,,,,,,,,,,,,,,,,,,,,,,
,5fc429047f2ae3825eb811a4,627c7578f28b3cd68796cf3c,2022-05-11_22h48.39.958,classification_task,2021.2.3,Win32,60.40106306,627c6715c52fd12f31907bd0,,,,,,,,,,,,,,,,,,,,,,,a,1,"[""0.214"",""0.084"",""0.724"",""0.869""]","[1,0,1,1]",0,29,29,29,1,0,1,,,0,FALSE,5.6578,,,,,,,,,,,,,,,,,,,,,,,,,,,,,,,
,5fc429047f2ae3825eb811a4,627c7578f28b3cd68796cf3c,2022-05-11_22h48.39.958,classification_task,2021.2.3,Win32,60.40106306,627c6715c52fd12f31907bd0,,,,,,,,,,,,,,,,,,,,,,,a,1,"[""0.172"",""0.682"",""0.911"",""0.959""]","[1,0,1,1]",0,30,30,30,1,0,0,,,0,FALSE,2.4743,,,,,,,,,,,,,,,,,,,,,,,,,,,,,,,
,5fc429047f2ae3825eb811a4,627c7578f28b3cd68796cf3c,2022-05-11_22h48.39.958,classification_task,2021.2.3,Win32,60.40106306,627c6715c52fd12f31907bd0,,,,,,,,,,,,,,,,,,,,,,,a,1,"[""0.214"",""0.413"",""0.724"",""0.564""]","[1,1,1,0]",0,31,31,31,1,0,1,,,0,FALSE,2.8448,,,,,,,,,,,,,,,,,,,,,,,,,,,,,,,
,5fc429047f2ae3825eb811a4,627c7578f28b3cd68796cf3c,2022-05-11_22h48.39.958,classification_task,2021.2.3,Win32,60.40106306,627c6715c52fd12f31907bd0,,,,,,,,,,,,,,,,,,,,,,,a,1,"[""0.686"",""0.413"",""0.724"",""0.869""]","[0,1,1,1]",0,32,32,32,1,0,1,,,0,FALSE,5.5966,,,,,,,,,,,,,,,,,,,,,,,,,,,,,,,
,5fc429047f2ae3825eb811a4,627c7578f28b3cd68796cf3c,2022-05-11_22h48.39.958,classification_task,2021.2.3,Win32,60.40106306,627c6715c52fd12f31907bd0,,,,,,,,,,,,,,,,,,,,,,,a,1,"[""0.172"",""0.672"",""0.911"",""0.959""]","[1,0,1,1]",0,33,33,33,1,0,0,,,0,FALSE,2.7271,,,,,,,,,,,,,,,,,,,,,,,,,,,,,,,
,5fc429047f2ae3825eb811a4,627c7578f28b3cd68796cf3c,2022-05-11_22h48.39.958,classification_task,2021.2.3,Win32,60.40106306,627c6715c52fd12f31907bd0,,,,,,,,,,,,,,,,,,,,,,,a,1,"[""0.214"",""0.413"",""0.724"",""0.647""]","[1,1,1,0]",0,34,34,34,1,0,1,,,0,FALSE,1.2283,,,,,,,,,,,,,,,,,,,,,,,,,,,,,,,
,5fc429047f2ae3825eb811a4,627c7578f28b3cd68796cf3c,2022-05-11_22h48.39.958,classification_task,2021.2.3,Win32,60.40106306,627c6715c52fd12f31907bd0,,,,,,,,,,,,,,,,,,,,,,,l,1,"[""0.300"",""0.356"",""0.613"",""0.836""]","[0,1,1,1]",0,35,35,35,1,1,1,,,0,FALSE,1.3554,,,,,,,,,,,,,,,,,,,,,,,,,,,,,,,
,5fc429047f2ae3825eb811a4,627c7578f28b3cd68796cf3c,2022-05-11_22h48.39.958,classification_task,2021.2.3,Win32,60.40106306,627c6715c52fd12f31907bd0,,,,,,,,,,,,,,,,,,,,,,,a,1,"[""0.172"",""0.479"",""0.911"",""0.564""]","[1,1,1,0]",0,36,36,36,1,0,0,,,0,FALSE,1.5018,,,,,,,,,,,,,,,,,,,,,,,,,,,,,,,
,5fc429047f2ae3825eb811a4,627c7578f28b3cd68796cf3c,2022-05-11_22h48.39.958,classification_task,2021.2.3,Win32,60.40106306,627c6715c52fd12f31907bd0,,,,,,,,,,,,,,,,,,,,,,,a,0,"[""0.026"",""0.356"",""0.613"",""0.672""]","[1,1,1,0]",0,37,37,37,1,1,1,,,0,FALSE,1.4783,,,,,,,,,,,,,,,,,,,,,,,,,,,,,,,
,5fc429047f2ae3825eb811a4,627c7578f28b3cd68796cf3c,2022-05-11_22h48.39.958,classification_task,2021.2.3,Win32,60.40106306,627c6715c52fd12f31907bd0,,,,,,,,,,,,,,,,,,,,,,,l,1,"[""0.137"",""0.263"",""0.518"",""0.647""]","[1,1,1,0]",0,38,38,38,1,1,0,,,0,FALSE,2.4496,,,,,,,,,,,,,,,,,,,,,,,,,,,,,,,
,5fc429047f2ae3825eb811a4,627c7578f28b3cd68796cf3c,2022-05-11_22h48.39.958,classification_task,2021.2.3,Win32,60.40106306,627c6715c52fd12f31907bd0,,,,,,,,,,,,,,,,,,,,,,,a,0,"[""0.026"",""0.356"",""0.576"",""0.836""]","[1,1,0,1]",0,39,39,39,1,1,1,,,0,FALSE,1.1833,,,,,,,,,,,,,,,,,,,,,,,,,,,,,,,
,5fc429047f2ae3825eb811a4,627c7578f28b3cd68796cf3c,2022-05-11_22h48.39.958,classification_task,2021.2.3,Win32,60.40106306,627c6715c52fd12f31907bd0,,,,,,,,,,,,,,,,,,,,,,,l,1,"[""0.560"",""0.263"",""0.518"",""0.759""]","[0,1,1,1]",0,40,40,40,1,1,0,,,0,FALSE,1.846,,,,,,,,,,,,,,,,,,,,,,,,,,,,,,,
,5fc429047f2ae3825eb811a4,627c7578f28b3cd68796cf3c,2022-05-11_22h48.39.958,classification_task,2021.2.3,Win32,60.40106306,627c6715c52fd12f31907bd0,,,,,,,,,,,,,,,,,,,,,,,a,0,"[""0.137"",""0.564"",""0.518"",""0.759""]","[1,0,1,1]",0,41,41,41,1,1,0,,,0,FALSE,2.113,,,,,,,,,,,,,,,,,,,,,,,,,,,,,,,
,5fc429047f2ae3825eb811a4,627c7578f28b3cd68796cf3c,2022-05-11_22h48.39.958,classification_task,2021.2.3,Win32,60.40106306,627c6715c52fd12f31907bd0,,,,,,,,,,,,,,,,,,,,,,,l,1,"[""0.137"",""0.263"",""0.576"",""0.759""]","[1,1,0,1]",0,42,42,42,1,1,0,,,0,FALSE,0.9967,,,,,,,,,,,,,,,,,,,,,,,,,,,,,,,
,5fc429047f2ae3825eb811a4,627c7578f28b3cd68796cf3c,2022-05-11_22h48.39.958,classification_task,2021.2.3,Win32,60.40106306,627c6715c52fd12f31907bd0,,,,,,,,,,,,,,,,,,,,,,,a,1,"[""0.214"",""0.413"",""0.579"",""0.869""]","[1,1,0,1]",0,43,43,43,1,0,1,,,0,FALSE,1.2396,,,,,,,,,,,,,,,,,,,,,,,,,,,,,,,
,5fc429047f2ae3825eb811a4,627c7578f28b3cd68796cf3c,2022-05-11_22h48.39.958,classification_task,2021.2.3,Win32,60.40106306,627c6715c52fd12f31907bd0,,,,,,,,,,,,,,,,,,,,,,,a,1,"[""0.172"",""0.479"",""0.573"",""0.959""]","[1,1,0,1]",0,44,44,44,1,0,0,,,0,FALSE,0.9554,,,,,,,,,,,,,,,,,,,,,,,,,,,,,,,
,5fc429047f2ae3825eb811a4,627c7578f28b3cd68796cf3c,2022-05-11_22h48.39.958,classification_task,2021.2.3,Win32,60.40106306,627c6715c52fd12f31907bd0,,,,,,,,,,,,,,,,,,,,,,,a,1,"[""0.214"",""0.647"",""0.724"",""0.869""]","[1,0,1,1]",0,45,45,45,1,0,1,,,0,FALSE,1.8424,,,,,,,,,,,,,,,,,,,,,,,,,,,,,,,
,5fc429047f2ae3825eb811a4,627c7578f28b3cd68796cf3c,2022-05-11_22h48.39.958,classification_task,2021.2.3,Win32,60.40106306,627c6715c52fd12f31907bd0,,,,,,,,,,,,,,,,,,,,,,,l,1,"[""0.026"",""0.573"",""0.613"",""0.836""]","[1,0,1,1]",0,46,46,46,1,1,1,,,0,FALSE,1.2735,,,,,,,,,,,,,,,,,,,,,,,,,,,,,,,
,5fc429047f2ae3825eb811a4,627c7578f28b3cd68796cf3c,2022-05-11_22h48.39.958,classification_task,2021.2.3,Win32,60.40106306,627c6715c52fd12f31907bd0,,,,,,,,,,,,,,,,,,,,,,,l,0,"[""0.300"",""0.479"",""0.911"",""0.959""]","[0,1,1,1]",0,47,47,47,1,0,0,,,0,FALSE,3.6353,,,,,,,,,,,,,,,,,,,,,,,,,,,,,,,
,5fc429047f2ae3825eb811a4,627c7578f28b3cd68796cf3c,2022-05-11_22h48.39.958,classification_task,2021.2.3,Win32,60.40106306,627c6715c52fd12f31907bd0,,,,,,,,,,,,,,,,,,,,,,,a,0,"[""0.137"",""0.263"",""0.579"",""0.759""]","[1,1,0,1]",0,48,48,48,1,1,0,,,0,FALSE,2.1273,,,,,,,,,,,,,,,,,,,,,,,,,,,,,,,
,5fc429047f2ae3825eb811a4,627c7578f28b3cd68796cf3c,2022-05-11_22h48.39.958,classification_task,2021.2.3,Win32,60.40106306,627c6715c52fd12f31907bd0,,,,,,,,,,,,,,,,,,,,,,,l,0,"[""0.573"",""0.479"",""0.911"",""0.959""]","[0,1,1,1]",0,49,49,49,1,0,0,,,0,FALSE,1.9554,,,,,,,,,,,,,,,,,,,,,,,,,,,,,,,
,5fc429047f2ae3825eb811a4,627c7578f28b3cd68796cf3c,2022-05-11_22h48.39.958,classification_task,2021.2.3,Win32,60.40106306,627c6715c52fd12f31907bd0,,,,,,,,,,,,,,,,,,,,,,,l,1,"[""0.573"",""0.356"",""0.613"",""0.836""]","[0,1,1,1]",0,50,50,50,1,1,1,,,0,FALSE,1.3099,,,,,,,,,,,,,,,,,,,,,,,,,,,,,,,
,5fc429047f2ae3825eb811a4,627c7578f28b3cd68796cf3c,2022-05-11_22h48.39.958,classification_task,2021.2.3,Win32,60.40106306,627c6715c52fd12f31907bd0,,,,,,,,,,,,,,,,,,,,,,,a,0,"[""0.137"",""0.686"",""0.518"",""0.759""]","[1,0,1,1]",0,51,51,51,1,1,0,,,0,FALSE,1.4586,,,,,,,,,,,,,,,,,,,,,,,,,,,,,,,
,5fc429047f2ae3825eb811a4,627c7578f28b3cd68796cf3c,2022-05-11_22h48.39.958,classification_task,2021.2.3,Win32,60.40106306,627c6715c52fd12f31907bd0,,,,,,,,,,,,,,,,,,,,,,,l,1,"[""0.026"",""0.356"",""0.613"",""0.672""]","[1,1,1,0]",0,52,52,52,1,1,1,,,0,FALSE,1.5997,,,,,,,,,,,,,,,,,,,,,,,,,,,,,,,
,5fc429047f2ae3825eb811a4,627c7578f28b3cd68796cf3c,2022-05-11_22h48.39.958,classification_task,2021.2.3,Win32,60.40106306,627c6715c52fd12f31907bd0,,,,,,,,,,,,,,,,,,,,,,,a,1,"[""0.172"",""0.479"",""0.661"",""0.959""]","[1,1,0,1]",0,53,53,53,1,0,0,,,0,FALSE,0.8605,,,,,,,,,,,,,,,,,,,,,,,,,,,,,,,
,5fc429047f2ae3825eb811a4,627c7578f28b3cd68796cf3c,2022-05-11_22h48.39.958,classification_task,2021.2.3,Win32,60.40106306,627c6715c52fd12f31907bd0,,,,,,,,,,,,,,,,,,,,,,,a,1,"[""0.172"",""0.479"",""0.911"",""0.069""]","[1,1,1,0]",0,54,54,54,1,0,0,,,0,FALSE,1.6573,,,,,,,,,,,,,,,,,,,,,,,,,,,,,,,
,5fc429047f2ae3825eb811a4,627c7578f28b3cd68796cf3c,2022-05-11_22h48.39.958,classification_task,2021.2.3,Win32,60.40106306,627c6715c52fd12f31907bd0,,,,,,,,,,,,,,,,,,,,,,,a,1,"[""0.214"",""0.413"",""0.724"",""0.576""]","[1,1,1,0]",0,55,55,55,1,0,1,,,0,FALSE,1.5441,,,,,,,,,,,,,,,,,,,,,,,,,,,,,,,
,5fc429047f2ae3825eb811a4,627c7578f28b3cd68796cf3c,2022-05-11_22h48.39.958,classification_task,2021.2.3,Win32,60.40106306,627c6715c52fd12f31907bd0,,,,,,,,,,,,,,,,,,,,,,,l,1,"[""0.137"",""0.263"",""0.518"",""0.661""]","[1,1,1,0]",0,56,56,56,1,1,0,,,0,FALSE,0.8569,,,,,,,,,,,,,,,,,,,,,,,,,,,,,,,
,5fc429047f2ae3825eb811a4,627c7578f28b3cd68796cf3c,2022-05-11_22h48.39.958,classification_task,2021.2.3,Win32,60.40106306,627c6715c52fd12f31907bd0,,,,,,,,,,,,,,,,,,,,,,,a,1,"[""0.214"",""0.413"",""0.669"",""0.869""]","[1,1,0,1]",0,57,57,57,1,0,1,,,0,FALSE,1.0915,,,,,,,,,,,,,,,,,,,,,,,,,,,,,,,
,5fc429047f2ae3825eb811a4,627c7578f28b3cd68796cf3c,2022-05-11_22h48.39.958,classification_task,2021.2.3,Win32,60.40106306,627c6715c52fd12f31907bd0,,,,,,,,,,,,,,,,,,,,,,,a,1,"[""0.172"",""0.576"",""0.911"",""0.959""]","[1,0,1,1]",0,58,58,58,1,0,0,,,0,FALSE,1.0752,,,,,,,,,,,,,,,,,,,,,,,,,,,,,,,
,5fc429047f2ae3825eb811a4,627c7578f28b3cd68796cf3c,2022-05-11_22h48.39.958,classification_task,2021.2.3,Win32,60.40106306,627c6715c52fd12f31907bd0,,,,,,,,,,,,,,,,,,,,,,,l,1,"[""0.026"",""0.560"",""0.613"",""0.836""]","[1,0,1,1]",0,59,59,59,1,1,1,,,0,FALSE,1.697,,,,,,,,,,,,,,,,,,,,,,,,,,,,,,,
,5fc429047f2ae3825eb811a4,627c7578f28b3cd68796cf3c,2022-05-11_22h48.39.958,classification_task,2021.2.3,Win32,60.40106306,627c6715c52fd12f31907bd0,,,,,,,,,,,,,,,,,,,,,,,a,0,"[""0.300"",""0.263"",""0.518"",""0.759""]","[0,1,1,1]",0,60,60,60,1,1,0,,,0,FALSE,1.7156,,,,,,,,,,,,,,,,,,,,,,,,,,,,,,,
,5fc429047f2ae3825eb811a4,627c7578f28b3cd68796cf3c,2022-05-11_22h48.39.958,classification_task,2021.2.3,Win32,60.40106306,627c6715c52fd12f31907bd0,,,,,,,,,,,,,,,,,,,,,,,l,0,"[""0.682"",""0.413"",""0.724"",""0.869""]","[0,1,1,1]",0,61,61,61,1,0,1,,,0,FALSE,1.6453,,,,,,,,,,,,,,,,,,,,,,,,,,,,,,,
,5fc429047f2ae3825eb811a4,627c7578f28b3cd68796cf3c,2022-05-11_22h48.39.958,classification_task,2021.2.3,Win32,60.40106306,627c6715c52fd12f31907bd0,,,,,,,,,,,,,,,,,,,,,,,a,1,"[""0.214"",""0.672"",""0.724"",""0.869""]","[1,0,1,1]",0,62,62,62,1,0,1,,,0,FALSE,1.2456,,,,,,,,,,,,,,,,,,,,,,,,,,,,,,,
,5fc429047f2ae3825eb811a4,627c7578f28b3cd68796cf3c,2022-05-11_22h48.39.958,classification_task,2021.2.3,Win32,60.40106306,627c6715c52fd12f31907bd0,,,,,,,,,,,,,,,,,,,,,,,l,1,"[""0.026"",""0.356"",""0.560"",""0.836""]","[1,1,0,1]",0,63,63,63,1,1,1,,,0,FALSE,2.0317,,,,,,,,,,,,,,,,,,,,,,,,,,,,,,,
,5fc429047f2ae3825eb811a4,627c7578f28b3cd68796cf3c,2022-05-11_22h48.39.958,classification_task,2021.2.3,Win32,60.40106306,627c6715c52fd12f31907bd0,,,,,,,,,,,,,,,,,,,,,,,,,,,,,,,,,,,,,,,0, ,,0,10,462.026,0,0,0,0,1,2,1,,,,,,,,,,,,,,,,,,
,5fc429047f2ae3825eb811a4,627c7578f28b3cd68796cf3c,2022-05-11_22h48.39.958,classification_task,2021.2.3,Win32,60.40106306,627c6715c52fd12f31907bd0,,,,,,,,,,,,,,,,,,,,,,,,,,,,,,,,,,,,,,,1,  ,,0,10,467.2235,0,0,0,0,1,2,1,,,,,,,,,,,,,,,,,,
,5fc429047f2ae3825eb811a4,627c7578f28b3cd68796cf3c,2022-05-11_22h48.39.958,classification_task,2021.2.3,Win32,60.40106306,627c6715c52fd12f31907bd0,,,,,,,,,,,,,,,,,,,,,,,,,,,,,,,,,,,,,,,2,  ,,0,7.527924302,475.6921,0,0,0,0,1,2,1,,,,,,,,,,,,,,,,,,
,5fc429047f2ae3825eb811a4,627c7578f28b3cd68796cf3c,2022-05-11_22h48.39.958,classification_task,2021.2.3,Win32,60.40106306,627c6715c52fd12f31907bd0,,,,,,,,,,,,,,,,,,,,,,,,,,,,,,,,,,,,,,,,,,,,,0,0,0,0,1,,1,,,,,,,,,,,,,,,,,,
,5fc429047f2ae3825eb811a4,627c7578f28b3cd68796cf3c,2022-05-11_22h48.39.958,classification_task,2021.2.3,Win32,60.40106306,627c6715c52fd12f31907bd0,,,,,,,,,,,,,,,,,,,,,space,14.6813,l,1,"[""0.026"",""0.300"",""0.613"",""0.836""]","[1,0,1,1]",0,0,0,0,1,1,1,,,0,FALSE,4.7272,,,,,,,,,,,,,,,,,,,,,,,,,,,,,,,
,5fc429047f2ae3825eb811a4,627c7578f28b3cd68796cf3c,2022-05-11_22h48.39.958,classification_task,2021.2.3,Win32,60.40106306,627c6715c52fd12f31907bd0,,,,,,,,,,,,,,,,,,,,,,,l,1,"[""0.137"",""0.263"",""0.564"",""0.759""]","[1,1,0,1]",0,1,1,1,1,1,0,,,0,FALSE,3.1099,,,,,,,,,,,,,,,,,,,,,,,,,,,,,,,
,5fc429047f2ae3825eb811a4,627c7578f28b3cd68796cf3c,2022-05-11_22h48.39.958,classification_task,2021.2.3,Win32,60.40106306,627c6715c52fd12f31907bd0,,,,,,,,,,,,,,,,,,,,,,,l,1,"[""0.576"",""0.356"",""0.613"",""0.836""]","[0,1,1,1]",0,2,2,2,1,1,1,,,0,FALSE,4.2895,,,,,,,,,,,,,,,,,,,,,,,,,,,,,,,
,5fc429047f2ae3825eb811a4,627c7578f28b3cd68796cf3c,2022-05-11_22h48.39.958,classification_task,2021.2.3,Win32,60.40106306,627c6715c52fd12f31907bd0,,,,,,,,,,,,,,,,,,,,,,,a,1,"[""0.172"",""0.479"",""0.911"",""0.564""]","[1,1,1,0]",0,3,3,3,1,0,0,,,0,FALSE,0.8445,,,,,,,,,,,,,,,,,,,,,,,,,,,,,,,
,5fc429047f2ae3825eb811a4,627c7578f28b3cd68796cf3c,2022-05-11_22h48.39.958,classification_task,2021.2.3,Win32,60.40106306,627c6715c52fd12f31907bd0,,,,,,,,,,,,,,,,,,,,,,,l,1,"[""0.026"",""0.356"",""0.069"",""0.836""]","[1,1,0,1]",0,4,4,4,1,1,1,,,0,FALSE,2.1045,,,,,,,,,,,,,,,,,,,,,,,,,,,,,,,
,5fc429047f2ae3825eb811a4,627c7578f28b3cd68796cf3c,2022-05-11_22h48.39.958,classification_task,2021.2.3,Win32,60.40106306,627c6715c52fd12f31907bd0,,,,,,,,,,,,,,,,,,,,,,,a,1,"[""0.576"",""0.413"",""0.724"",""0.869""]","[0,1,1,1]",0,5,5,5,1,0,1,,,0,FALSE,1.6762,,,,,,,,,,,,,,,,,,,,,,,,,,,,,,,
,5fc429047f2ae3825eb811a4,627c7578f28b3cd68796cf3c,2022-05-11_22h48.39.958,classification_task,2021.2.3,Win32,60.40106306,627c6715c52fd12f31907bd0,,,,,,,,,,,,,,,,,,,,,,,a,1,"[""0.172"",""0.560"",""0.911"",""0.959""]","[1,0,1,1]",0,6,6,6,1,0,0,,,0,FALSE,1.6058,,,,,,,,,,,,,,,,,,,,,,,,,,,,,,,
,5fc429047f2ae3825eb811a4,627c7578f28b3cd68796cf3c,2022-05-11_22h48.39.958,classification_task,2021.2.3,Win32,60.40106306,627c6715c52fd12f31907bd0,,,,,,,,,,,,,,,,,,,,,,,l,1,"[""0.579"",""0.263"",""0.518"",""0.759""]","[0,1,1,1]",0,7,7,7,1,1,0,,,0,FALSE,0.516,,,,,,,,,,,,,,,,,,,,,,,,,,,,,,,
,5fc429047f2ae3825eb811a4,627c7578f28b3cd68796cf3c,2022-05-11_22h48.39.958,classification_task,2021.2.3,Win32,60.40106306,627c6715c52fd12f31907bd0,,,,,,,,,,,,,,,,,,,,,,,l,0,"[""0.214"",""0.564"",""0.724"",""0.869""]","[1,0,1,1]",0,8,8,8,1,0,1,,,0,FALSE,2.0233,,,,,,,,,,,,,,,,,,,,,,,,,,,,,,,
,5fc429047f2ae3825eb811a4,627c7578f28b3cd68796cf3c,2022-05-11_22h48.39.958,classification_task,2021.2.3,Win32,60.40106306,627c6715c52fd12f31907bd0,,,,,,,,,,,,,,,,,,,,,,,a,1,"[""0.214"",""0.413"",""0.560"",""0.869""]","[1,1,0,1]",0,9,9,9,1,0,1,,,0,FALSE,1.0539,,,,,,,,,,,,,,,,,,,,,,,,,,,,,,,
,5fc429047f2ae3825eb811a4,627c7578f28b3cd68796cf3c,2022-05-11_22h48.39.958,classification_task,2021.2.3,Win32,60.40106306,627c6715c52fd12f31907bd0,,,,,,,,,,,,,,,,,,,,,,,l,1,"[""0.137"",""0.263"",""0.518"",""0.682""]","[1,1,1,0]",0,10,10,10,1,1,0,,,0,FALSE,0.9891,,,,,,,,,,,,,,,,,,,,,,,,,,,,,,,
,5fc429047f2ae3825eb811a4,627c7578f28b3cd68796cf3c,2022-05-11_22h48.39.958,classification_task,2021.2.3,Win32,60.40106306,627c6715c52fd12f31907bd0,,,,,,,,,,,,,,,,,,,,,,,l,1,"[""0.026"",""0.356"",""0.613"",""0.682""]","[1,1,1,0]",0,11,11,11,1,1,1,,,0,FALSE,1.3231,,,,,,,,,,,,,,,,,,,,,,,,,,,,,,,
,5fc429047f2ae3825eb811a4,627c7578f28b3cd68796cf3c,2022-05-11_22h48.39.958,classification_task,2021.2.3,Win32,60.40106306,627c6715c52fd12f31907bd0,,,,,,,,,,,,,,,,,,,,,,,a,1,"[""0.172"",""0.479"",""0.647"",""0.959""]","[1,1,0,1]",0,12,12,12,1,0,0,,,0,FALSE,0.6165,,,,,,,,,,,,,,,,,,,,,,,,,,,,,,,
,5fc429047f2ae3825eb811a4,627c7578f28b3cd68796cf3c,2022-05-11_22h48.39.958,classification_task,2021.2.3,Win32,60.40106306,627c6715c52fd12f31907bd0,,,,,,,,,,,,,,,,,,,,,,,a,1,"[""0.214"",""0.413"",""0.724"",""0.579""]","[1,1,1,0]",0,13,13,13,1,0,1,,,0,FALSE,1.9646,,,,,,,,,,,,,,,,,,,,,,,,,,,,,,,
,5fc429047f2ae3825eb811a4,627c7578f28b3cd68796cf3c,2022-05-11_22h48.39.958,classification_task,2021.2.3,Win32,60.40106306,627c6715c52fd12f31907bd0,,,,,,,,,,,,,,,,,,,,,,,l,1,"[""0.137"",""0.579"",""0.518"",""0.759""]","[1,0,1,1]",0,14,14,14,1,1,0,,,0,FALSE,0.6298,,,,,,,,,,,,,,,,,,,,,,,,,,,,,,,
,5fc429047f2ae3825eb811a4,627c7578f28b3cd68796cf3c,2022-05-11_22h48.39.958,classification_task,2021.2.3,Win32,60.40106306,627c6715c52fd12f31907bd0,,,,,,,,,,,,,,,,,,,,,,,a,1,"[""0.682"",""0.479"",""0.911"",""0.959""]","[0,1,1,1]",0,15,15,15,1,0,0,,,0,FALSE,0.575,,,,,,,,,,,,,,,,,,,,,,,,,,,,,,,
,5fc429047f2ae3825eb811a4,627c7578f28b3cd68796cf3c,2022-05-11_22h48.39.958,classification_task,2021.2.3,Win32,60.40106306,627c6715c52fd12f31907bd0,,,,,,,,,,,,,,,,,,,,,,,l,1,"[""0.576"",""0.263"",""0.518"",""0.759""]","[0,1,1,1]",0,16,16,16,1,1,0,,,0,FALSE,0.6261,,,,,,,,,,,,,,,,,,,,,,,,,,,,,,,
,5fc429047f2ae3825eb811a4,627c7578f28b3cd68796cf3c,2022-05-11_22h48.39.958,classification_task,2021.2.3,Win32,60.40106306,627c6715c52fd12f31907bd0,,,,,,,,,,,,,,,,,,,,,,,l,1,"[""0.026"",""0.356"",""0.573"",""0.836""]","[1,1,0,1]",0,17,17,17,1,1,1,,,0,FALSE,1.4862,,,,,,,,,,,,,,,,,,,,,,,,,,,,,,,
,5fc429047f2ae3825eb811a4,627c7578f28b3cd68796cf3c,2022-05-11_22h48.39.958,classification_task,2021.2.3,Win32,60.40106306,627c6715c52fd12f31907bd0,,,,,,,,,,,,,,,,,,,,,,,a,1,"[""0.682"",""0.413"",""0.724"",""0.869""]","[0,1,1,1]",0,18,18,18,1,0,1,,,0,FALSE,2.8684,,,,,,,,,,,,,,,,,,,,,,,,,,,,,,,
,5fc429047f2ae3825eb811a4,627c7578f28b3cd68796cf3c,2022-05-11_22h48.39.958,classification_task,2021.2.3,Win32,60.40106306,627c6715c52fd12f31907bd0,,,,,,,,,,,,,,,,,,,,,,,a,1,"[""0.214"",""0.413"",""0.647"",""0.869""]","[1,1,0,1]",0,19,19,19,1,0,1,,,0,FALSE,1.1395,,,,,,,,,,,,,,,,,,,,,,,,,,,,,,,
,5fc429047f2ae3825eb811a4,627c7578f28b3cd68796cf3c,2022-05-11_22h48.39.958,classification_task,2021.2.3,Win32,60.40106306,627c6715c52fd12f31907bd0,,,,,,,,,,,,,,,,,,,,,,,l,1,"[""0.137"",""0.576"",""0.518"",""0.759""]","[1,0,1,1]",0,20,20,20,1,1,0,,,0,FALSE,1.1026,,,,,,,,,,,,,,,,,,,,,,,,,,,,,,,
,5fc429047f2ae3825eb811a4,627c7578f28b3cd68796cf3c,2022-05-11_22h48.39.958,classification_task,2021.2.3,Win32,60.40106306,627c6715c52fd12f31907bd0,,,,,,,,,,,,,,,,,,,,,,,a,1,"[""0.172"",""0.479"",""0.911"",""0.682""]","[1,1,1,0]",0,21,21,21,1,0,0,,,0,FALSE,0.442,,,,,,,,,,,,,,,,,,,,,,,,,,,,,,,
,5fc429047f2ae3825eb811a4,627c7578f28b3cd68796cf3c,2022-05-11_22h48.39.958,classification_task,2021.2.3,Win32,60.40106306,627c6715c52fd12f31907bd0,,,,,,,,,,,,,,,,,,,,,,,a,1,"[""0.579"",""0.479"",""0.911"",""0.959""]","[0,1,1,1]",0,22,22,22,1,0,0,,,0,FALSE,0.6063,,,,,,,,,,,,,,,,,,,,,,,,,,,,,,,
,5fc429047f2ae3825eb811a4,627c7578f28b3cd68796cf3c,2022-05-11_22h48.39.958,classification_task,2021.2.3,Win32,60.40106306,627c6715c52fd12f31907bd0,,,,,,,,,,,,,,,,,,,,,,,l,1,"[""0.137"",""0.263"",""0.686"",""0.759""]","[1,1,0,1]",0,23,23,23,1,1,0,,,0,FALSE,0.4109,,,,,,,,,,,,,,,,,,,,,,,,,,,,,,,
,5fc429047f2ae3825eb811a4,627c7578f28b3cd68796cf3c,2022-05-11_22h48.39.958,classification_task,2021.2.3,Win32,60.40106306,627c6715c52fd12f31907bd0,,,,,,,,,,,,,,,,,,,,,,,a,0,"[""0.300"",""0.356"",""0.613"",""0.836""]","[0,1,1,1]",0,24,24,24,1,1,1,,,0,FALSE,1.8176,,,,,,,,,,,,,,,,,,,,,,,,,,,,,,,
,5fc429047f2ae3825eb811a4,627c7578f28b3cd68796cf3c,2022-05-11_22h48.39.958,classification_task,2021.2.3,Win32,60.40106306,627c6715c52fd12f31907bd0,,,,,,,,,,,,,,,,,,,,,,,l,1,"[""0.137"",""0.263"",""0.518"",""0.083""]","[1,1,1,0]",0,25,25,25,1,1,0,,,0,FALSE,1.0095,,,,,,,,,,,,,,,,,,,,,,,,,,,,,,,
,5fc429047f2ae3825eb811a4,627c7578f28b3cd68796cf3c,2022-05-11_22h48.39.958,classification_task,2021.2.3,Win32,60.40106306,627c6715c52fd12f31907bd0,,,,,,,,,,,,,,,,,,,,,,,a,0,"[""0.026"",""0.576"",""0.613"",""0.836""]","[1,0,1,1]",0,26,26,26,1,1,1,,,0,FALSE,1.2018,,,,,,,,,,,,,,,,,,,,,,,,,,,,,,,
,5fc429047f2ae3825eb811a4,627c7578f28b3cd68796cf3c,2022-05-11_22h48.39.958,classification_task,2021.2.3,Win32,60.40106306,627c6715c52fd12f31907bd0,,,,,,,,,,,,,,,,,,,,,,,l,1,"[""0.026"",""0.356"",""0.613"",""0.686""]","[1,1,1,0]",0,27,27,27,1,1,1,,,0,FALSE,0.7074,,,,,,,,,,,,,,,,,,,,,,,,,,,,,,,
,5fc429047f2ae3825eb811a4,627c7578f28b3cd68796cf3c,2022-05-11_22h48.39.958,classification_task,2021.2.3,Win32,60.40106306,627c6715c52fd12f31907bd0,,,,,,,,,,,,,,,,,,,,,,,a,1,"[""0.214"",""0.413"",""0.724"",""0.560""]","[1,1,1,0]",0,28,28,28,1,0,1,,,0,FALSE,0.9753,,,,,,,,,,,,,,,,,,,,,,,,,,,,,,,
,5fc429047f2ae3825eb811a4,627c7578f28b3cd68796cf3c,2022-05-11_22h48.39.958,classification_task,2021.2.3,Win32,60.40106306,627c6715c52fd12f31907bd0,,,,,,,,,,,,,,,,,,,,,,,a,1,"[""0.172"",""0.479"",""0.672"",""0.959""]","[1,1,0,1]",0,29,29,29,1,0,0,,,0,FALSE,0.6878,,,,,,,,,,,,,,,,,,,,,,,,,,,,,,,
,5fc429047f2ae3825eb811a4,627c7578f28b3cd68796cf3c,2022-05-11_22h48.39.958,classification_task,2021.2.3,Win32,60.40106306,627c6715c52fd12f31907bd0,,,,,,,,,,,,,,,,,,,,,,,a,1,"[""0.214"",""0.083"",""0.724"",""0.869""]","[1,0,1,1]",0,30,30,30,1,0,1,,,0,FALSE,3.9267,,,,,,,,,,,,,,,,,,,,,,,,,,,,,,,
,5fc429047f2ae3825eb811a4,627c7578f28b3cd68796cf3c,2022-05-11_22h48.39.958,classification_task,2021.2.3,Win32,60.40106306,627c6715c52fd12f31907bd0,,,,,,,,,,,,,,,,,,,,,,,a,1,"[""0.172"",""0.576"",""0.911"",""0.959""]","[1,0,1,1]",0,31,31,31,1,0,0,,,0,FALSE,0.74,,,,,,,,,,,,,,,,,,,,,,,,,,,,,,,
,5fc429047f2ae3825eb811a4,627c7578f28b3cd68796cf3c,2022-05-11_22h48.39.958,classification_task,2021.2.3,Win32,60.40106306,627c6715c52fd12f31907bd0,,,,,,,,,,,,,,,,,,,,,,,l,1,"[""0.026"",""0.356"",""0.573"",""0.836""]","[1,1,0,1]",0,32,32,32,1,1,1,,,0,FALSE,1.1341,,,,,,,,,,,,,,,,,,,,,,,,,,,,,,,
,5fc429047f2ae3825eb811a4,627c7578f28b3cd68796cf3c,2022-05-11_22h48.39.958,classification_task,2021.2.3,Win32,60.40106306,627c6715c52fd12f31907bd0,,,,,,,,,,,,,,,,,,,,,,,l,1,"[""0.026"",""0.356"",""0.613"",""0.669""]","[1,1,1,0]",0,33,33,33,1,1,1,,,0,FALSE,0.7286,,,,,,,,,,,,,,,,,,,,,,,,,,,,,,,
,5fc429047f2ae3825eb811a4,627c7578f28b3cd68796cf3c,2022-05-11_22h48.39.958,classification_task,2021.2.3,Win32,60.40106306,627c6715c52fd12f31907bd0,,,,,,,,,,,,,,,,,,,,,,,a,1,"[""0.172"",""0.479"",""0.911"",""0.564""]","[1,1,1,0]",0,34,34,34,1,0,0,,,0,FALSE,0.7706,,,,,,,,,,,,,,,,,,,,,,,,,,,,,,,
,5fc429047f2ae3825eb811a4,627c7578f28b3cd68796cf3c,2022-05-11_22h48.39.958,classification_task,2021.2.3,Win32,60.40106306,627c6715c52fd12f31907bd0,,,,,,,,,,,,,,,,,,,,,,,a,1,"[""0.172"",""0.300"",""0.911"",""0.959""]","[1,0,1,1]",0,35,35,35,1,0,0,,,0,FALSE,0.6361,,,,,,,,,,,,,,,,,,,,,,,,,,,,,,,
,5fc429047f2ae3825eb811a4,627c7578f28b3cd68796cf3c,2022-05-11_22h48.39.958,classification_task,2021.2.3,Win32,60.40106306,627c6715c52fd12f31907bd0,,,,,,,,,,,,,,,,,,,,,,,a,1,"[""0.576"",""0.479"",""0.911"",""0.959""]","[0,1,1,1]",0,36,36,36,1,0,0,,,0,FALSE,0.677,,,,,,,,,,,,,,,,,,,,,,,,,,,,,,,
,5fc429047f2ae3825eb811a4,627c7578f28b3cd68796cf3c,2022-05-11_22h48.39.958,classification_task,2021.2.3,Win32,60.40106306,627c6715c52fd12f31907bd0,,,,,,,,,,,,,,,,,,,,,,,a,1,"[""0.214"",""0.413"",""0.300"",""0.869""]","[1,1,0,1]",0,37,37,37,1,0,1,,,0,FALSE,1.0118,,,,,,,,,,,,,,,,,,,,,,,,,,,,,,,
,5fc429047f2ae3825eb811a4,627c7578f28b3cd68796cf3c,2022-05-11_22h48.39.958,classification_task,2021.2.3,Win32,60.40106306,627c6715c52fd12f31907bd0,,,,,,,,,,,,,,,,,,,,,,,a,1,"[""0.214"",""0.300"",""0.724"",""0.869""]","[1,0,1,1]",0,38,38,38,1,0,1,,,0,FALSE,2.2933,,,,,,,,,,,,,,,,,,,,,,,,,,,,,,,
,5fc429047f2ae3825eb811a4,627c7578f28b3cd68796cf3c,2022-05-11_22h48.39.958,classification_task,2021.2.3,Win32,60.40106306,627c6715c52fd12f31907bd0,,,,,,,,,,,,,,,,,,,,,,,l,1,"[""0.137"",""0.263"",""0.518"",""0.682""]","[1,1,1,0]",0,39,39,39,1,1,0,,,0,FALSE,2.775,,,,,,,,,,,,,,,,,,,,,,,,,,,,,,,
,5fc429047f2ae3825eb811a4,627c7578f28b3cd68796cf3c,2022-05-11_22h48.39.958,classification_task,2021.2.3,Win32,60.40106306,627c6715c52fd12f31907bd0,,,,,,,,,,,,,,,,,,,,,,,a,1,"[""0.172"",""0.479"",""0.682"",""0.959""]","[1,1,0,1]",0,40,40,40,1,0,0,,,0,FALSE,0.9406,,,,,,,,,,,,,,,,,,,,,,,,,,,,,,,
,5fc429047f2ae3825eb811a4,627c7578f28b3cd68796cf3c,2022-05-11_22h48.39.958,classification_task,2021.2.3,Win32,60.40106306,627c6715c52fd12f31907bd0,,,,,,,,,,,,,,,,,,,,,,,l,1,"[""0.576"",""0.263"",""0.518"",""0.759""]","[0,1,1,1]",0,41,41,41,1,1,0,,,0,FALSE,1.2108,,,,,,,,,,,,,,,,,,,,,,,,,,,,,,,
,5fc429047f2ae3825eb811a4,627c7578f28b3cd68796cf3c,2022-05-11_22h48.39.958,classification_task,2021.2.3,Win32,60.40106306,627c6715c52fd12f31907bd0,,,,,,,,,,,,,,,,,,,,,,,l,1,"[""0.137"",""0.069"",""0.518"",""0.759""]","[1,0,1,1]",0,42,42,42,1,1,0,,,0,FALSE,1.3273,,,,,,,,,,,,,,,,,,,,,,,,,,,,,,,
,5fc429047f2ae3825eb811a4,627c7578f28b3cd68796cf3c,2022-05-11_22h48.39.958,classification_task,2021.2.3,Win32,60.40106306,627c6715c52fd12f31907bd0,,,,,,,,,,,,,,,,,,,,,,,a,1,"[""0.214"",""0.413"",""0.724"",""0.084""]","[1,1,1,0]",0,43,43,43,1,0,1,,,0,FALSE,1.8517,,,,,,,,,,,,,,,,,,,,,,,,,,,,,,,
,5fc429047f2ae3825eb811a4,627c7578f28b3cd68796cf3c,2022-05-11_22h48.39.958,classification_task,2021.2.3,Win32,60.40106306,627c6715c52fd12f31907bd0,,,,,,,,,,,,,,,,,,,,,,,l,1,"[""0.669"",""0.356"",""0.613"",""0.836""]","[0,1,1,1]",0,44,44,44,1,1,1,,,0,FALSE,3.3095,,,,,,,,,,,,,,,,,,,,,,,,,,,,,,,
,5fc429047f2ae3825eb811a4,627c7578f28b3cd68796cf3c,2022-05-11_22h48.39.958,classification_task,2021.2.3,Win32,60.40106306,627c6715c52fd12f31907bd0,,,,,,,,,,,,,,,,,,,,,,,l,1,"[""0.026"",""0.686"",""0.613"",""0.836""]","[1,0,1,1]",0,45,45,45,1,1,1,,,0,FALSE,1.0491,,,,,,,,,,,,,,,,,,,,,,,,,,,,,,,
,5fc429047f2ae3825eb811a4,627c7578f28b3cd68796cf3c,2022-05-11_22h48.39.958,classification_task,2021.2.3,Win32,60.40106306,627c6715c52fd12f31907bd0,,,,,,,,,,,,,,,,,,,,,,,a,1,"[""0.564"",""0.413"",""0.724"",""0.869""]","[0,1,1,1]",0,46,46,46,1,0,1,,,0,FALSE,1.1775,,,,,,,,,,,,,,,,,,,,,,,,,,,,,,,
,5fc429047f2ae3825eb811a4,627c7578f28b3cd68796cf3c,2022-05-11_22h48.39.958,classification_task,2021.2.3,Win32,60.40106306,627c6715c52fd12f31907bd0,,,,,,,,,,,,,,,,,,,,,,,l,1,"[""0.137"",""0.263"",""0.669"",""0.759""]","[1,1,0,1]",0,47,47,47,1,1,0,,,0,FALSE,1.0683,,,,,,,,,,,,,,,,,,,,,,,,,,,,,,,
,5fc429047f2ae3825eb811a4,627c7578f28b3cd68796cf3c,2022-05-11_22h48.39.958,classification_task,2021.2.3,Win32,60.40106306,627c6715c52fd12f31907bd0,,,,,,,,,,,,,,,,,,,,,,,a,1,"[""0.172"",""0.479"",""0.911"",""0.579""]","[1,1,1,0]",0,48,48,48,1,0,0,,,0,FALSE,0.4565,,,,,,,,,,,,,,,,,,,,,,,,,,,,,,,
,5fc429047f2ae3825eb811a4,627c7578f28b3cd68796cf3c,2022-05-11_22h48.39.958,classification_task,2021.2.3,Win32,60.40106306,627c6715c52fd12f31907bd0,,,,,,,,,,,,,,,,,,,,,,,l,1,"[""0.137"",""0.576"",""0.518"",""0.759""]","[1,0,1,1]",0,49,49,49,1,1,0,,,0,FALSE,1.6952,,,,,,,,,,,,,,,,,,,,,,,,,,,,,,,
,5fc429047f2ae3825eb811a4,627c7578f28b3cd68796cf3c,2022-05-11_22h48.39.958,classification_task,2021.2.3,Win32,60.40106306,627c6715c52fd12f31907bd0,,,,,,,,,,,,,,,,,,,,,,,a,1,"[""0.172"",""0.084"",""0.911"",""0.959""]","[1,0,1,1]",0,50,50,50,1,0,0,,,0,FALSE,1.3961,,,,,,,,,,,,,,,,,,,,,,,,,,,,,,,
,5fc429047f2ae3825eb811a4,627c7578f28b3cd68796cf3c,2022-05-11_22h48.39.958,classification_task,2021.2.3,Win32,60.40106306,627c6715c52fd12f31907bd0,,,,,,,,,,,,,,,,,,,,,,,l,1,"[""0.300"",""0.263"",""0.518"",""0.759""]","[0,1,1,1]",0,51,51,51,1,1,0,,,0,FALSE,0.8378,,,,,,,,,,,,,,,,,,,,,,,,,,,,,,,
,5fc429047f2ae3825eb811a4,627c7578f28b3cd68796cf3c,2022-05-11_22h48.39.958,classification_task,2021.2.3,Win32,60.40106306,627c6715c52fd12f31907bd0,,,,,,,,,,,,,,,,,,,,,,,a,1,"[""0.576"",""0.479"",""0.911"",""0.959""]","[0,1,1,1]",0,52,52,52,1,0,0,,,0,FALSE,0.4614,,,,,,,,,,,,,,,,,,,,,,,,,,,,,,,
,5fc429047f2ae3825eb811a4,627c7578f28b3cd68796cf3c,2022-05-11_22h48.39.958,classification_task,2021.2.3,Win32,60.40106306,627c6715c52fd12f31907bd0,,,,,,,,,,,,,,,,,,,,,,,l,1,"[""0.137"",""0.263"",""0.682"",""0.759""]","[1,1,0,1]",0,53,53,53,1,1,0,,,0,FALSE,0.515,,,,,,,,,,,,,,,,,,,,,,,,,,,,,,,
,5fc429047f2ae3825eb811a4,627c7578f28b3cd68796cf3c,2022-05-11_22h48.39.958,classification_task,2021.2.3,Win32,60.40106306,627c6715c52fd12f31907bd0,,,,,,,,,,,,,,,,,,,,,,,l,1,"[""0.026"",""0.576"",""0.613"",""0.836""]","[1,0,1,1]",0,54,54,54,1,1,1,,,0,FALSE,1.3858,,,,,,,,,,,,,,,,,,,,,,,,,,,,,,,
,5fc429047f2ae3825eb811a4,627c7578f28b3cd68796cf3c,2022-05-11_22h48.39.958,classification_task,2021.2.3,Win32,60.40106306,627c6715c52fd12f31907bd0,,,,,,,,,,,,,,,,,,,,,,,a,1,"[""0.172"",""0.479"",""0.682"",""0.959""]","[1,1,0,1]",0,55,55,55,1,0,0,,,0,FALSE,0.6529,,,,,,,,,,,,,,,,,,,,,,,,,,,,,,,
,5fc429047f2ae3825eb811a4,627c7578f28b3cd68796cf3c,2022-05-11_22h48.39.958,classification_task,2021.2.3,Win32,60.40106306,627c6715c52fd12f31907bd0,,,,,,,,,,,,,,,,,,,,,,,a,1,"[""0.579"",""0.413"",""0.724"",""0.869""]","[0,1,1,1]",0,56,56,56,1,0,1,,,0,FALSE,2.2391,,,,,,,,,,,,,,,,,,,,,,,,,,,,,,,
,5fc429047f2ae3825eb811a4,627c7578f28b3cd68796cf3c,2022-05-11_22h48.39.958,classification_task,2021.2.3,Win32,60.40106306,627c6715c52fd12f31907bd0,,,,,,,,,,,,,,,,,,,,,,,a,1,"[""0.214"",""0.672"",""0.724"",""0.869""]","[1,0,1,1]",0,57,57,57,1,0,1,,,0,FALSE,1.0214,,,,,,,,,,,,,,,,,,,,,,,,,,,,,,,
,5fc429047f2ae3825eb811a4,627c7578f28b3cd68796cf3c,2022-05-11_22h48.39.958,classification_task,2021.2.3,Win32,60.40106306,627c6715c52fd12f31907bd0,,,,,,,,,,,,,,,,,,,,,,,l,1,"[""0.026"",""0.356"",""0.613"",""0.564""]","[1,1,1,0]",0,58,58,58,1,1,1,,,0,FALSE,1.5962,,,,,,,,,,,,,,,,,,,,,,,,,,,,,,,
,5fc429047f2ae3825eb811a4,627c7578f28b3cd68796cf3c,2022-05-11_22h48.39.958,classification_task,2021.2.3,Win32,60.40106306,627c6715c52fd12f31907bd0,,,,,,,,,,,,,,,,,,,,,,,l,1,"[""0.026"",""0.356"",""0.069"",""0.836""]","[1,1,0,1]",0,59,59,59,1,1,1,,,0,FALSE,1.2138,,,,,,,,,,,,,,,,,,,,,,,,,,,,,,,
,5fc429047f2ae3825eb811a4,627c7578f28b3cd68796cf3c,2022-05-11_22h48.39.958,classification_task,2021.2.3,Win32,60.40106306,627c6715c52fd12f31907bd0,,,,,,,,,,,,,,,,,,,,,,,a,1,"[""0.214"",""0.413"",""0.300"",""0.869""]","[1,1,0,1]",0,60,60,60,1,0,1,,,0,FALSE,1.2239,,,,,,,,,,,,,,,,,,,,,,,,,,,,,,,
,5fc429047f2ae3825eb811a4,627c7578f28b3cd68796cf3c,2022-05-11_22h48.39.958,classification_task,2021.2.3,Win32,60.40106306,627c6715c52fd12f31907bd0,,,,,,,,,,,,,,,,,,,,,,,a,0,"[""0.647"",""0.356"",""0.613"",""0.836""]","[0,1,1,1]",0,61,61,61,1,1,1,,,0,FALSE,1.9297,,,,,,,,,,,,,,,,,,,,,,,,,,,,,,,
,5fc429047f2ae3825eb811a4,627c7578f28b3cd68796cf3c,2022-05-11_22h48.39.958,classification_task,2021.2.3,Win32,60.40106306,627c6715c52fd12f31907bd0,,,,,,,,,,,,,,,,,,,,,,,l,1,"[""0.137"",""0.263"",""0.518"",""0.300""]","[1,1,1,0]",0,62,62,62,1,1,0,,,0,FALSE,0.853,,,,,,,,,,,,,,,,,,,,,,,,,,,,,,,
,5fc429047f2ae3825eb811a4,627c7578f28b3cd68796cf3c,2022-05-11_22h48.39.958,classification_task,2021.2.3,Win32,60.40106306,627c6715c52fd12f31907bd0,,,,,,,,,,,,,,,,,,,,,,,a,1,"[""0.214"",""0.413"",""0.724"",""0.069""]","[1,1,1,0]",0,63,63,63,1,0,1,,,0,FALSE,1.7907,,,,,,,,,,,,,,,,,,,,,,,,,,,,,,,
,5fc429047f2ae3825eb811a4,627c7578f28b3cd68796cf3c,2022-05-11_22h48.39.958,classification_task,2021.2.3,Win32,60.40106306,627c6715c52fd12f31907bd0,,,,,,,,,,,,,,,,,,,,,,,,,,,,,,,,,,,,,,,0, ,,0,10,175.1933,0,1,1,1,1,2,2,,,,,,,,,,,,,,,,,,
,5fc429047f2ae3825eb811a4,627c7578f28b3cd68796cf3c,2022-05-11_22h48.39.958,classification_task,2021.2.3,Win32,60.40106306,627c6715c52fd12f31907bd0,,,,,,,,,,,,,,,,,,,,,,,,,,,,,,,,,,,,,,,1,  ,,0,2.089946641,178.9507,0,1,1,1,1,2,2,,,,,,,,,,,,,,,,,,
,5fc429047f2ae3825eb811a4,627c7578f28b3cd68796cf3c,2022-05-11_22h48.39.958,classification_task,2021.2.3,Win32,60.40106306,627c6715c52fd12f31907bd0,,,,,,,,,,,,,,,,,,,,,,,,,,,,,,,,,,,,,,,2,  ,,0,1.031746032,183.9526,0,1,1,1,1,2,2,,,,,,,,,,,,,,,,,,
,5fc429047f2ae3825eb811a4,627c7578f28b3cd68796cf3c,2022-05-11_22h48.39.958,classification_task,2021.2.3,Win32,60.40106306,627c6715c52fd12f31907bd0,,,,,,,,,,,,,,,,,,,,,,,,,,,,,,,,,,,,,,,,,,,,,0,1,1,1,1,,2,,,,,,,,,,,,,,,,,,
,5fc429047f2ae3825eb811a4,627c7578f28b3cd68796cf3c,2022-05-11_22h48.39.958,classification_task,2021.2.3,Win32,60.40106306,627c6715c52fd12f31907bd0,,,,,,,,,,,,,,,,,,,,,space,8.9368,l,1,"[""0.026"",""0.672"",""0.613"",""0.836""]","[1,0,1,1]",0,0,0,0,1,1,1,,,0,FALSE,1.4506,,,,,,,,,,,,,,,,,,,,,,,,,,,,,,,
,5fc429047f2ae3825eb811a4,627c7578f28b3cd68796cf3c,2022-05-11_22h48.39.958,classification_task,2021.2.3,Win32,60.40106306,627c6715c52fd12f31907bd0,,,,,,,,,,,,,,,,,,,,,,,l,1,"[""0.026"",""0.356"",""0.300"",""0.836""]","[1,1,0,1]",0,1,1,1,1,1,1,,,0,FALSE,1.5228,,,,,,,,,,,,,,,,,,,,,,,,,,,,,,,
,5fc429047f2ae3825eb811a4,627c7578f28b3cd68796cf3c,2022-05-11_22h48.39.958,classification_task,2021.2.3,Win32,60.40106306,627c6715c52fd12f31907bd0,,,,,,,,,,,,,,,,,,,,,,,l,1,"[""0.084"",""0.356"",""0.613"",""0.836""]","[0,1,1,1]",0,2,2,2,1,1,1,,,0,FALSE,4.6243,,,,,,,,,,,,,,,,,,,,,,,,,,,,,,,
,5fc429047f2ae3825eb811a4,627c7578f28b3cd68796cf3c,2022-05-11_22h48.39.958,classification_task,2021.2.3,Win32,60.40106306,627c6715c52fd12f31907bd0,,,,,,,,,,,,,,,,,,,,,,,a,1,"[""0.214"",""0.413"",""0.724"",""0.576""]","[1,1,1,0]",0,3,3,3,1,0,1,,,0,FALSE,0.879,,,,,,,,,,,,,,,,,,,,,,,,,,,,,,,
,5fc429047f2ae3825eb811a4,627c7578f28b3cd68796cf3c,2022-05-11_22h48.39.958,classification_task,2021.2.3,Win32,60.40106306,627c6715c52fd12f31907bd0,,,,,,,,,,,,,,,,,,,,,,,a,1,"[""0.172"",""0.069"",""0.911"",""0.959""]","[1,0,1,1]",0,4,4,4,1,0,0,,,0,FALSE,4.2312,,,,,,,,,,,,,,,,,,,,,,,,,,,,,,,
,5fc429047f2ae3825eb811a4,627c7578f28b3cd68796cf3c,2022-05-11_22h48.39.958,classification_task,2021.2.3,Win32,60.40106306,627c6715c52fd12f31907bd0,,,,,,,,,,,,,,,,,,,,,,,a,1,"[""0.214"",""0.069"",""0.724"",""0.869""]","[1,0,1,1]",0,5,5,5,1,0,1,,,0,FALSE,1.3642,,,,,,,,,,,,,,,,,,,,,,,,,,,,,,,
,5fc429047f2ae3825eb811a4,627c7578f28b3cd68796cf3c,2022-05-11_22h48.39.958,classification_task,2021.2.3,Win32,60.40106306,627c6715c52fd12f31907bd0,,,,,,,,,,,,,,,,,,,,,,,l,1,"[""0.137"",""0.263"",""0.576"",""0.759""]","[1,1,0,1]",0,6,6,6,1,1,0,,,0,FALSE,1.8803,,,,,,,,,,,,,,,,,,,,,,,,,,,,,,,
,5fc429047f2ae3825eb811a4,627c7578f28b3cd68796cf3c,2022-05-11_22h48.39.958,classification_task,2021.2.3,Win32,60.40106306,627c6715c52fd12f31907bd0,,,,,,,,,,,,,,,,,,,,,,,a,1,"[""0.172"",""0.479"",""0.661"",""0.959""]","[1,1,0,1]",0,7,7,7,1,0,0,,,0,FALSE,1.7191,,,,,,,,,,,,,,,,,,,,,,,,,,,,,,,
,5fc429047f2ae3825eb811a4,627c7578f28b3cd68796cf3c,2022-05-11_22h48.39.958,classification_task,2021.2.3,Win32,60.40106306,627c6715c52fd12f31907bd0,,,,,,,,,,,,,,,,,,,,,,,l,1,"[""0.137"",""0.669"",""0.518"",""0.759""]","[1,0,1,1]",0,8,8,8,1,1,0,,,0,FALSE,2.3318,,,,,,,,,,,,,,,,,,,,,,,,,,,,,,,
,5fc429047f2ae3825eb811a4,627c7578f28b3cd68796cf3c,2022-05-11_22h48.39.958,classification_task,2021.2.3,Win32,60.40106306,627c6715c52fd12f31907bd0,,,,,,,,,,,,,,,,,,,,,,,a,1,"[""0.686"",""0.479"",""0.911"",""0.959""]","[0,1,1,1]",0,9,9,9,1,0,0,,,0,FALSE,1.5432,,,,,,,,,,,,,,,,,,,,,,,,,,,,,,,
,5fc429047f2ae3825eb811a4,627c7578f28b3cd68796cf3c,2022-05-11_22h48.39.958,classification_task,2021.2.3,Win32,60.40106306,627c6715c52fd12f31907bd0,,,,,,,,,,,,,,,,,,,,,,,l,0,"[""0.579"",""0.413"",""0.724"",""0.869""]","[0,1,1,1]",0,10,10,10,1,0,1,,,0,FALSE,3.506,,,,,,,,,,,,,,,,,,,,,,,,,,,,,,,
,5fc429047f2ae3825eb811a4,627c7578f28b3cd68796cf3c,2022-05-11_22h48.39.958,classification_task,2021.2.3,Win32,60.40106306,627c6715c52fd12f31907bd0,,,,,,,,,,,,,,,,,,,,,,,l,0,"[""0.172"",""0.479"",""0.911"",""0.564""]","[1,1,1,0]",0,11,11,11,1,0,0,,,0,FALSE,2.2582,,,,,,,,,,,,,,,,,,,,,,,,,,,,,,,
,5fc429047f2ae3825eb811a4,627c7578f28b3cd68796cf3c,2022-05-11_22h48.39.958,classification_task,2021.2.3,Win32,60.40106306,627c6715c52fd12f31907bd0,,,,,,,,,,,,,,,,,,,,,,,l,1,"[""0.573"",""0.263"",""0.518"",""0.759""]","[0,1,1,1]",0,12,12,12,1,1,0,,,0,FALSE,2.9529,,,,,,,,,,,,,,,,,,,,,,,,,,,,,,,
,5fc429047f2ae3825eb811a4,627c7578f28b3cd68796cf3c,2022-05-11_22h48.39.958,classification_task,2021.2.3,Win32,60.40106306,627c6715c52fd12f31907bd0,,,,,,,,,,,,,,,,,,,,,,,a,1,"[""0.214"",""0.413"",""0.084"",""0.869""]","[1,1,0,1]",0,13,13,13,1,0,1,,,0,FALSE,1.162,,,,,,,,,,,,,,,,,,,,,,,,,,,,,,,
,5fc429047f2ae3825eb811a4,627c7578f28b3cd68796cf3c,2022-05-11_22h48.39.958,classification_task,2021.2.3,Win32,60.40106306,627c6715c52fd12f31907bd0,,,,,,,,,,,,,,,,,,,,,,,l,1,"[""0.026"",""0.356"",""0.613"",""0.560""]","[1,1,1,0]",0,14,14,14,1,1,1,,,0,FALSE,0.597,,,,,,,,,,,,,,,,,,,,,,,,,,,,,,,
,5fc429047f2ae3825eb811a4,627c7578f28b3cd68796cf3c,2022-05-11_22h48.39.958,classification_task,2021.2.3,Win32,60.40106306,627c6715c52fd12f31907bd0,,,,,,,,,,,,,,,,,,,,,,,a,0,"[""0.137"",""0.263"",""0.518"",""0.083""]","[1,1,1,0]",0,15,15,15,1,1,0,,,0,FALSE,3.1892,,,,,,,,,,,,,,,,,,,,,,,,,,,,,,,
,5fc429047f2ae3825eb811a4,627c7578f28b3cd68796cf3c,2022-05-11_22h48.39.958,classification_task,2021.2.3,Win32,60.40106306,627c6715c52fd12f31907bd0,,,,,,,,,,,,,,,,,,,,,,,a,1,"[""0.669"",""0.413"",""0.724"",""0.869""]","[0,1,1,1]",0,16,16,16,1,0,1,,,0,FALSE,1.6956,,,,,,,,,,,,,,,,,,,,,,,,,,,,,,,
,5fc429047f2ae3825eb811a4,627c7578f28b3cd68796cf3c,2022-05-11_22h48.39.958,classification_task,2021.2.3,Win32,60.40106306,627c6715c52fd12f31907bd0,,,,,,,,,,,,,,,,,,,,,,,l,1,"[""0.069"",""0.263"",""0.518"",""0.759""]","[0,1,1,1]",0,17,17,17,1,1,0,,,0,FALSE,2.0103,,,,,,,,,,,,,,,,,,,,,,,,,,,,,,,
,5fc429047f2ae3825eb811a4,627c7578f28b3cd68796cf3c,2022-05-11_22h48.39.958,classification_task,2021.2.3,Win32,60.40106306,627c6715c52fd12f31907bd0,,,,,,,,,,,,,,,,,,,,,,,a,0,"[""0.300"",""0.356"",""0.613"",""0.836""]","[0,1,1,1]",0,18,18,18,1,1,1,,,0,FALSE,6.2451,,,,,,,,,,,,,,,,,,,,,,,,,,,,,,,
,5fc429047f2ae3825eb811a4,627c7578f28b3cd68796cf3c,2022-05-11_22h48.39.958,classification_task,2021.2.3,Win32,60.40106306,627c6715c52fd12f31907bd0,,,,,,,,,,,,,,,,,,,,,,,a,1,"[""0.214"",""0.413"",""0.084"",""0.869""]","[1,1,0,1]",0,19,19,19,1,0,1,,,0,FALSE,1.7553,,,,,,,,,,,,,,,,,,,,,,,,,,,,,,,
,5fc429047f2ae3825eb811a4,627c7578f28b3cd68796cf3c,2022-05-11_22h48.39.958,classification_task,2021.2.3,Win32,60.40106306,627c6715c52fd12f31907bd0,,,,,,,,,,,,,,,,,,,,,,,a,1,"[""0.214"",""0.661"",""0.724"",""0.869""]","[1,0,1,1]",0,20,20,20,1,0,1,,,0,FALSE,1.0801,,,,,,,,,,,,,,,,,,,,,,,,,,,,,,,
,5fc429047f2ae3825eb811a4,627c7578f28b3cd68796cf3c,2022-05-11_22h48.39.958,classification_task,2021.2.3,Win32,60.40106306,627c6715c52fd12f31907bd0,,,,,,,,,,,,,,,,,,,,,,,l,0,"[""0.172"",""0.479"",""0.911"",""0.661""]","[1,1,1,0]",0,21,21,21,1,0,0,,,0,FALSE,1.2439,,,,,,,,,,,,,,,,,,,,,,,,,,,,,,,
,5fc429047f2ae3825eb811a4,627c7578f28b3cd68796cf3c,2022-05-11_22h48.39.958,classification_task,2021.2.3,Win32,60.40106306,627c6715c52fd12f31907bd0,,,,,,,,,,,,,,,,,,,,,,,l,1,"[""0.137"",""0.263"",""0.518"",""0.647""]","[1,1,1,0]",0,22,22,22,1,1,0,,,0,FALSE,1.4426,,,,,,,,,,,,,,,,,,,,,,,,,,,,,,,
,5fc429047f2ae3825eb811a4,627c7578f28b3cd68796cf3c,2022-05-11_22h48.39.958,classification_task,2021.2.3,Win32,60.40106306,627c6715c52fd12f31907bd0,,,,,,,,,,,,,,,,,,,,,,,a,1,"[""0.214"",""0.413"",""0.724"",""0.573""]","[1,1,1,0]",0,23,23,23,1,0,1,,,0,FALSE,0.9285,,,,,,,,,,,,,,,,,,,,,,,,,,,,,,,
,5fc429047f2ae3825eb811a4,627c7578f28b3cd68796cf3c,2022-05-11_22h48.39.958,classification_task,2021.2.3,Win32,60.40106306,627c6715c52fd12f31907bd0,,,,,,,,,,,,,,,,,,,,,,,l,0,"[""0.564"",""0.479"",""0.911"",""0.959""]","[0,1,1,1]",0,24,24,24,1,0,0,,,0,FALSE,1.3232,,,,,,,,,,,,,,,,,,,,,,,,,,,,,,,
,5fc429047f2ae3825eb811a4,627c7578f28b3cd68796cf3c,2022-05-11_22h48.39.958,classification_task,2021.2.3,Win32,60.40106306,627c6715c52fd12f31907bd0,,,,,,,,,,,,,,,,,,,,,,,l,1,"[""0.026"",""0.356"",""0.613"",""0.686""]","[1,1,1,0]",0,25,25,25,1,1,1,,,0,FALSE,3.3218,,,,,,,,,,,,,,,,,,,,,,,,,,,,,,,
,5fc429047f2ae3825eb811a4,627c7578f28b3cd68796cf3c,2022-05-11_22h48.39.958,classification_task,2021.2.3,Win32,60.40106306,627c6715c52fd12f31907bd0,,,,,,,,,,,,,,,,,,,,,,,l,1,"[""0.137"",""0.263"",""0.661"",""0.759""]","[1,1,0,1]",0,26,26,26,1,1,0,,,0,FALSE,1.2782,,,,,,,,,,,,,,,,,,,,,,,,,,,,,,,
,5fc429047f2ae3825eb811a4,627c7578f28b3cd68796cf3c,2022-05-11_22h48.39.958,classification_task,2021.2.3,Win32,60.40106306,627c6715c52fd12f31907bd0,,,,,,,,,,,,,,,,,,,,,,,l,1,"[""0.026"",""0.356"",""0.661"",""0.836""]","[1,1,0,1]",0,27,27,27,1,1,1,,,0,FALSE,0.7771,,,,,,,,,,,,,,,,,,,,,,,,,,,,,,,
,5fc429047f2ae3825eb811a4,627c7578f28b3cd68796cf3c,2022-05-11_22h48.39.958,classification_task,2021.2.3,Win32,60.40106306,627c6715c52fd12f31907bd0,,,,,,,,,,,,,,,,,,,,,,,a,1,"[""0.172"",""0.479"",""0.564"",""0.959""]","[1,1,0,1]",0,28,28,28,1,0,0,,,0,FALSE,1.1158,,,,,,,,,,,,,,,,,,,,,,,,,,,,,,,
,5fc429047f2ae3825eb811a4,627c7578f28b3cd68796cf3c,2022-05-11_22h48.39.958,classification_task,2021.2.3,Win32,60.40106306,627c6715c52fd12f31907bd0,,,,,,,,,,,,,,,,,,,,,,,l,1,"[""0.026"",""0.579"",""0.613"",""0.836""]","[1,0,1,1]",0,29,29,29,1,1,1,,,0,FALSE,0.946,,,,,,,,,,,,,,,,,,,,,,,,,,,,,,,
,5fc429047f2ae3825eb811a4,627c7578f28b3cd68796cf3c,2022-05-11_22h48.39.958,classification_task,2021.2.3,Win32,60.40106306,627c6715c52fd12f31907bd0,,,,,,,,,,,,,,,,,,,,,,,a,0,"[""0.137"",""0.686"",""0.518"",""0.759""]","[1,0,1,1]",0,30,30,30,1,1,0,,,0,FALSE,2.2453,,,,,,,,,,,,,,,,,,,,,,,,,,,,,,,
,5fc429047f2ae3825eb811a4,627c7578f28b3cd68796cf3c,2022-05-11_22h48.39.958,classification_task,2021.2.3,Win32,60.40106306,627c6715c52fd12f31907bd0,,,,,,,,,,,,,,,,,,,,,,,l,0,"[""0.172"",""0.579"",""0.911"",""0.959""]","[1,0,1,1]",0,31,31,31,1,0,0,,,0,FALSE,1.063,,,,,,,,,,,,,,,,,,,,,,,,,,,,,,,
,5fc429047f2ae3825eb811a4,627c7578f28b3cd68796cf3c,2022-05-11_22h48.39.958,classification_task,2021.2.3,Win32,60.40106306,627c6715c52fd12f31907bd0,,,,,,,,,,,,,,,,,,,,,,,l,1,"[""0.137"",""0.263"",""0.518"",""0.069""]","[1,1,1,0]",0,32,32,32,1,1,0,,,0,FALSE,1.8575,,,,,,,,,,,,,,,,,,,,,,,,,,,,,,,
,5fc429047f2ae3825eb811a4,627c7578f28b3cd68796cf3c,2022-05-11_22h48.39.958,classification_task,2021.2.3,Win32,60.40106306,627c6715c52fd12f31907bd0,,,,,,,,,,,,,,,,,,,,,,,l,1,"[""0.083"",""0.263"",""0.518"",""0.759""]","[0,1,1,1]",0,33,33,33,1,1,0,,,0,FALSE,2.3596,,,,,,,,,,,,,,,,,,,,,,,,,,,,,,,
,5fc429047f2ae3825eb811a4,627c7578f28b3cd68796cf3c,2022-05-11_22h48.39.958,classification_task,2021.2.3,Win32,60.40106306,627c6715c52fd12f31907bd0,,,,,,,,,,,,,,,,,,,,,,,a,1,"[""0.214"",""0.413"",""0.724"",""0.672""]","[1,1,1,0]",0,34,34,34,1,0,1,,,0,FALSE,0.897,,,,,,,,,,,,,,,,,,,,,,,,,,,,,,,
,5fc429047f2ae3825eb811a4,627c7578f28b3cd68796cf3c,2022-05-11_22h48.39.958,classification_task,2021.2.3,Win32,60.40106306,627c6715c52fd12f31907bd0,,,,,,,,,,,,,,,,,,,,,,,l,1,"[""0.026"",""0.356"",""0.613"",""0.576""]","[1,1,1,0]",0,35,35,35,1,1,1,,,0,FALSE,1.4479,,,,,,,,,,,,,,,,,,,,,,,,,,,,,,,
,5fc429047f2ae3825eb811a4,627c7578f28b3cd68796cf3c,2022-05-11_22h48.39.958,classification_task,2021.2.3,Win32,60.40106306,627c6715c52fd12f31907bd0,,,,,,,,,,,,,,,,,,,,,,,l,0,"[""0.564"",""0.479"",""0.911"",""0.959""]","[0,1,1,1]",0,36,36,36,1,0,0,,,0,FALSE,2.0767,,,,,,,,,,,,,,,,,,,,,,,,,,,,,,,
,5fc429047f2ae3825eb811a4,627c7578f28b3cd68796cf3c,2022-05-11_22h48.39.958,classification_task,2021.2.3,Win32,60.40106306,627c6715c52fd12f31907bd0,,,,,,,,,,,,,,,,,,,,,,,l,1,"[""0.069"",""0.356"",""0.613"",""0.836""]","[0,1,1,1]",0,37,37,37,1,1,1,,,0,FALSE,4.4623,,,,,,,,,,,,,,,,,,,,,,,,,,,,,,,
,5fc429047f2ae3825eb811a4,627c7578f28b3cd68796cf3c,2022-05-11_22h48.39.958,classification_task,2021.2.3,Win32,60.40106306,627c6715c52fd12f31907bd0,,,,,,,,,,,,,,,,,,,,,,,l,0,"[""0.172"",""0.479"",""0.911"",""0.084""]","[1,1,1,0]",0,38,38,38,1,0,0,,,0,FALSE,2.178,,,,,,,,,,,,,,,,,,,,,,,,,,,,,,,
,5fc429047f2ae3825eb811a4,627c7578f28b3cd68796cf3c,2022-05-11_22h48.39.958,classification_task,2021.2.3,Win32,60.40106306,627c6715c52fd12f31907bd0,,,,,,,,,,,,,,,,,,,,,,,l,1,"[""0.137"",""0.263"",""0.647"",""0.759""]","[1,1,0,1]",0,39,39,39,1,1,0,,,0,FALSE,0.6599,,,,,,,,,,,,,,,,,,,,,,,,,,,,,,,
,5fc429047f2ae3825eb811a4,627c7578f28b3cd68796cf3c,2022-05-11_22h48.39.958,classification_task,2021.2.3,Win32,60.40106306,627c6715c52fd12f31907bd0,,,,,,,,,,,,,,,,,,,,,,,l,1,"[""0.026"",""0.300"",""0.613"",""0.836""]","[1,0,1,1]",0,40,40,40,1,1,1,,,0,FALSE,2.4124,,,,,,,,,,,,,,,,,,,,,,,,,,,,,,,
,5fc429047f2ae3825eb811a4,627c7578f28b3cd68796cf3c,2022-05-11_22h48.39.958,classification_task,2021.2.3,Win32,60.40106306,627c6715c52fd12f31907bd0,,,,,,,,,,,,,,,,,,,,,,,a,1,"[""0.172"",""0.576"",""0.911"",""0.959""]","[1,0,1,1]",0,41,41,41,1,0,0,,,0,FALSE,1.8891,,,,,,,,,,,,,,,,,,,,,,,,,,,,,,,
,5fc429047f2ae3825eb811a4,627c7578f28b3cd68796cf3c,2022-05-11_22h48.39.958,classification_task,2021.2.3,Win32,60.40106306,627c6715c52fd12f31907bd0,,,,,,,,,,,,,,,,,,,,,,,a,0,"[""0.137"",""0.083"",""0.518"",""0.759""]","[1,0,1,1]",0,42,42,42,1,1,0,,,0,FALSE,0.6623,,,,,,,,,,,,,,,,,,,,,,,,,,,,,,,
,5fc429047f2ae3825eb811a4,627c7578f28b3cd68796cf3c,2022-05-11_22h48.39.958,classification_task,2021.2.3,Win32,60.40106306,627c6715c52fd12f31907bd0,,,,,,,,,,,,,,,,,,,,,,,a,1,"[""0.214"",""0.686"",""0.724"",""0.869""]","[1,0,1,1]",0,43,43,43,1,0,1,,,0,FALSE,1.1324,,,,,,,,,,,,,,,,,,,,,,,,,,,,,,,
,5fc429047f2ae3825eb811a4,627c7578f28b3cd68796cf3c,2022-05-11_22h48.39.958,classification_task,2021.2.3,Win32,60.40106306,627c6715c52fd12f31907bd0,,,,,,,,,,,,,,,,,,,,,,,l,0,"[""0.672"",""0.413"",""0.724"",""0.869""]","[0,1,1,1]",0,44,44,44,1,0,1,,,0,FALSE,1.945,,,,,,,,,,,,,,,,,,,,,,,,,,,,,,,
,5fc429047f2ae3825eb811a4,627c7578f28b3cd68796cf3c,2022-05-11_22h48.39.958,classification_task,2021.2.3,Win32,60.40106306,627c6715c52fd12f31907bd0,,,,,,,,,,,,,,,,,,,,,,,l,0,"[""0.172"",""0.479"",""0.573"",""0.959""]","[1,1,0,1]",0,45,45,45,1,0,0,,,0,FALSE,1.2792,,,,,,,,,,,,,,,,,,,,,,,,,,,,,,,
,5fc429047f2ae3825eb811a4,627c7578f28b3cd68796cf3c,2022-05-11_22h48.39.958,classification_task,2021.2.3,Win32,60.40106306,627c6715c52fd12f31907bd0,,,,,,,,,,,,,,,,,,,,,,,a,1,"[""0.214"",""0.413"",""0.564"",""0.869""]","[1,1,0,1]",0,46,46,46,1,0,1,,,0,FALSE,0.9764,,,,,,,,,,,,,,,,,,,,,,,,,,,,,,,
,5fc429047f2ae3825eb811a4,627c7578f28b3cd68796cf3c,2022-05-11_22h48.39.958,classification_task,2021.2.3,Win32,60.40106306,627c6715c52fd12f31907bd0,,,,,,,,,,,,,,,,,,,,,,,l,1,"[""0.026"",""0.356"",""0.300"",""0.836""]","[1,1,0,1]",0,47,47,47,1,1,1,,,0,FALSE,1.1445,,,,,,,,,,,,,,,,,,,,,,,,,,,,,,,
,5fc429047f2ae3825eb811a4,627c7578f28b3cd68796cf3c,2022-05-11_22h48.39.958,classification_task,2021.2.3,Win32,60.40106306,627c6715c52fd12f31907bd0,,,,,,,,,,,,,,,,,,,,,,,l,1,"[""0.026"",""0.356"",""0.613"",""0.573""]","[1,1,1,0]",0,48,48,48,1,1,1,,,0,FALSE,0.7599,,,,,,,,,,,,,,,,,,,,,,,,,,,,,,,
,5fc429047f2ae3825eb811a4,627c7578f28b3cd68796cf3c,2022-05-11_22h48.39.958,classification_task,2021.2.3,Win32,60.40106306,627c6715c52fd12f31907bd0,,,,,,,,,,,,,,,,,,,,,,,a,0,"[""0.560"",""0.356"",""0.613"",""0.836""]","[0,1,1,1]",0,49,49,49,1,1,1,,,0,FALSE,1.7071,,,,,,,,,,,,,,,,,,,,,,,,,,,,,,,
,5fc429047f2ae3825eb811a4,627c7578f28b3cd68796cf3c,2022-05-11_22h48.39.958,classification_task,2021.2.3,Win32,60.40106306,627c6715c52fd12f31907bd0,,,,,,,,,,,,,,,,,,,,,,,a,0,"[""0.647"",""0.263"",""0.518"",""0.759""]","[0,1,1,1]",0,50,50,50,1,1,0,,,0,FALSE,1.1089,,,,,,,,,,,,,,,,,,,,,,,,,,,,,,,
,5fc429047f2ae3825eb811a4,627c7578f28b3cd68796cf3c,2022-05-11_22h48.39.958,classification_task,2021.2.3,Win32,60.40106306,627c6715c52fd12f31907bd0,,,,,,,,,,,,,,,,,,,,,,,l,1,"[""0.026"",""0.686"",""0.613"",""0.836""]","[1,0,1,1]",0,51,51,51,1,1,1,,,0,FALSE,0.945,,,,,,,,,,,,,,,,,,,,,,,,,,,,,,,
,5fc429047f2ae3825eb811a4,627c7578f28b3cd68796cf3c,2022-05-11_22h48.39.958,classification_task,2021.2.3,Win32,60.40106306,627c6715c52fd12f31907bd0,,,,,,,,,,,,,,,,,,,,,,,a,1,"[""0.214"",""0.564"",""0.724"",""0.869""]","[1,0,1,1]",0,52,52,52,1,0,1,,,0,FALSE,1.0439,,,,,,,,,,,,,,,,,,,,,,,,,,,,,,,
,5fc429047f2ae3825eb811a4,627c7578f28b3cd68796cf3c,2022-05-11_22h48.39.958,classification_task,2021.2.3,Win32,60.40106306,627c6715c52fd12f31907bd0,,,,,,,,,,,,,,,,,,,,,,,l,1,"[""0.137"",""0.084"",""0.518"",""0.759""]","[1,0,1,1]",0,53,53,53,1,1,0,,,0,FALSE,2.0476,,,,,,,,,,,,,,,,,,,,,,,,,,,,,,,
,5fc429047f2ae3825eb811a4,627c7578f28b3cd68796cf3c,2022-05-11_22h48.39.958,classification_task,2021.2.3,Win32,60.40106306,627c6715c52fd12f31907bd0,,,,,,,,,,,,,,,,,,,,,,,l,1,"[""0.026"",""0.356"",""0.661"",""0.836""]","[1,1,0,1]",0,54,54,54,1,1,1,,,0,FALSE,1.7589,,,,,,,,,,,,,,,,,,,,,,,,,,,,,,,
,5fc429047f2ae3825eb811a4,627c7578f28b3cd68796cf3c,2022-05-11_22h48.39.958,classification_task,2021.2.3,Win32,60.40106306,627c6715c52fd12f31907bd0,,,,,,,,,,,,,,,,,,,,,,,l,1,"[""0.137"",""0.263"",""0.518"",""0.573""]","[1,1,1,0]",0,55,55,55,1,1,0,,,0,FALSE,1.1803,,,,,,,,,,,,,,,,,,,,,,,,,,,,,,,
,5fc429047f2ae3825eb811a4,627c7578f28b3cd68796cf3c,2022-05-11_22h48.39.958,classification_task,2021.2.3,Win32,60.40106306,627c6715c52fd12f31907bd0,,,,,,,,,,,,,,,,,,,,,,,a,1,"[""0.172"",""0.479"",""0.669"",""0.959""]","[1,1,0,1]",0,56,56,56,1,0,0,,,0,FALSE,1.2921,,,,,,,,,,,,,,,,,,,,,,,,,,,,,,,
,5fc429047f2ae3825eb811a4,627c7578f28b3cd68796cf3c,2022-05-11_22h48.39.958,classification_task,2021.2.3,Win32,60.40106306,627c6715c52fd12f31907bd0,,,,,,,,,,,,,,,,,,,,,,,l,1,"[""0.137"",""0.263"",""0.084"",""0.759""]","[1,1,0,1]",0,57,57,57,1,1,0,,,0,FALSE,0.8273,,,,,,,,,,,,,,,,,,,,,,,,,,,,,,,
,5fc429047f2ae3825eb811a4,627c7578f28b3cd68796cf3c,2022-05-11_22h48.39.958,classification_task,2021.2.3,Win32,60.40106306,627c6715c52fd12f31907bd0,,,,,,,,,,,,,,,,,,,,,,,a,1,"[""0.172"",""0.564"",""0.911"",""0.959""]","[1,0,1,1]",0,58,58,58,1,0,0,,,0,FALSE,0.4315,,,,,,,,,,,,,,,,,,,,,,,,,,,,,,,
,5fc429047f2ae3825eb811a4,627c7578f28b3cd68796cf3c,2022-05-11_22h48.39.958,classification_task,2021.2.3,Win32,60.40106306,627c6715c52fd12f31907bd0,,,,,,,,,,,,,,,,,,,,,,,l,0,"[""0.576"",""0.413"",""0.724"",""0.869""]","[0,1,1,1]",0,59,59,59,1,0,1,,,0,FALSE,2.1621,,,,,,,,,,,,,,,,,,,,,,,,,,,,,,,
,5fc429047f2ae3825eb811a4,627c7578f28b3cd68796cf3c,2022-05-11_22h48.39.958,classification_task,2021.2.3,Win32,60.40106306,627c6715c52fd12f31907bd0,,,,,,,,,,,,,,,,,,,,,,,a,1,"[""0.214"",""0.413"",""0.669"",""0.869""]","[1,1,0,1]",0,60,60,60,1,0,1,,,0,FALSE,0.9766,,,,,,,,,,,,,,,,,,,,,,,,,,,,,,,
,5fc429047f2ae3825eb811a4,627c7578f28b3cd68796cf3c,2022-05-11_22h48.39.958,classification_task,2021.2.3,Win32,60.40106306,627c6715c52fd12f31907bd0,,,,,,,,,,,,,,,,,,,,,,,a,1,"[""0.172"",""0.479"",""0.911"",""0.669""]","[1,1,1,0]",0,61,61,61,1,0,0,,,0,FALSE,1.7606,,,,,,,,,,,,,,,,,,,,,,,,,,,,,,,
,5fc429047f2ae3825eb811a4,627c7578f28b3cd68796cf3c,2022-05-11_22h48.39.958,classification_task,2021.2.3,Win32,60.40106306,627c6715c52fd12f31907bd0,,,,,,,,,,,,,,,,,,,,,,,a,1,"[""0.214"",""0.413"",""0.724"",""0.084""]","[1,1,1,0]",0,62,62,62,1,0,1,,,0,FALSE,0.947,,,,,,,,,,,,,,,,,,,,,,,,,,,,,,,
,5fc429047f2ae3825eb811a4,627c7578f28b3cd68796cf3c,2022-05-11_22h48.39.958,classification_task,2021.2.3,Win32,60.40106306,627c6715c52fd12f31907bd0,,,,,,,,,,,,,,,,,,,,,,,l,0,"[""0.576"",""0.479"",""0.911"",""0.959""]","[0,1,1,1]",0,63,63,63,1,0,0,,,0,FALSE,0.9149,,,,,,,,,,,,,,,,,,,,,,,,,,,,,,,
,5fc429047f2ae3825eb811a4,627c7578f28b3cd68796cf3c,2022-05-11_22h48.39.958,classification_task,2021.2.3,Win32,60.40106306,627c6715c52fd12f31907bd0,,,,,,,,,,,,,,,,,,,,,,,,,,,,,,,,,,,,,,,0, ,,0,10,190.9408,0,2,2,2,1,2,3,,,,,,,,,,,,,,,,,,
,5fc429047f2ae3825eb811a4,627c7578f28b3cd68796cf3c,2022-05-11_22h48.39.958,classification_task,2021.2.3,Win32,60.40106306,627c6715c52fd12f31907bd0,,,,,,,,,,,,,,,,,,,,,,,,,,,,,,,,,,,,,,,1,  ,,0,10,192.5914,0,2,2,2,1,2,3,,,,,,,,,,,,,,,,,,
,5fc429047f2ae3825eb811a4,627c7578f28b3cd68796cf3c,2022-05-11_22h48.39.958,classification_task,2021.2.3,Win32,60.40106306,627c6715c52fd12f31907bd0,,,,,,,,,,,,,,,,,,,,,,,,,,,,,,,,,,,,,,,2,  ,,0,9.938272502,193.9105,0,2,2,2,1,2,3,,,,,,,,,,,,,,,,,,
,5fc429047f2ae3825eb811a4,627c7578f28b3cd68796cf3c,2022-05-11_22h48.39.958,classification_task,2021.2.3,Win32,60.40106306,627c6715c52fd12f31907bd0,,,,,,,,,,,,,,,,,,,,,,,,,,,,,,,,,,,,,,,,,,,,,0,2,2,2,1,,3,,,,,,,,,,,,,,,,,,
,5fc429047f2ae3825eb811a4,627c7578f28b3cd68796cf3c,2022-05-11_22h48.39.958,classification_task,2021.2.3,Win32,60.40106306,627c6715c52fd12f31907bd0,,,,,,,,,,,,,,,,,,,,,,,,,,,,,,,,,,,,,,,,,,,,,,,,,,,,,I believe the aid is a competent performer,,0.7,0,5,905.6913,0,0,0,0,1,0,,,,,
,5fc429047f2ae3825eb811a4,627c7578f28b3cd68796cf3c,2022-05-11_22h48.39.958,classification_task,2021.2.3,Win32,60.40106306,627c6715c52fd12f31907bd0,,,,,,,,,,,,,,,,,,,,,,,,,,,,,,,,,,,,,,,,,,,,,,,,,,,,,I trust the aid,,0.7,0,5,907.3906,0,0,0,0,1,0,,,,,
,5fc429047f2ae3825eb811a4,627c7578f28b3cd68796cf3c,2022-05-11_22h48.39.958,classification_task,2021.2.3,Win32,60.40106306,627c6715c52fd12f31907bd0,,,,,,,,,,,,,,,,,,,,,,,,,,,,,,,,,,,,,,,,,,,,,,,,,,,,,I have confidence in the advice given by the aid,,0.7,0,5,909.5678,0,0,0,0,1,0,,,,,
,5fc429047f2ae3825eb811a4,627c7578f28b3cd68796cf3c,2022-05-11_22h48.39.958,classification_task,2021.2.3,Win32,60.40106306,627c6715c52fd12f31907bd0,,,,,,,,,,,,,,,,,,,,,,,,,,,,,,,,,,,,,,,,,,,,,,,,,,,,,I can depend on the aid,,0.7,0,5,911.1222,0,0,0,0,1,0,,,,,
,5fc429047f2ae3825eb811a4,627c7578f28b3cd68796cf3c,2022-05-11_22h48.39.958,classification_task,2021.2.3,Win32,60.40106306,627c6715c52fd12f31907bd0,,,,,,,,,,,,,,,,,,,,,,,,,,,,,,,,,,,,,,,,,,,,,,,,,,,,,I can rely on the aid to behave in consistent ways,,0.7,0,5,912.3856,0,0,0,0,1,0,,,,,
,5fc429047f2ae3825eb811a4,627c7578f28b3cd68796cf3c,2022-05-11_22h48.39.958,classification_task,2021.2.3,Win32,60.40106306,627c6715c52fd12f31907bd0,,,,,,,,,,,,,,,,,,,,,,,,,,,,,,,,,,,,,,,,,,,,,,,,,,,,,I can rely on the aid to do its best every time I take its advice,,0.7,0,5,915.2557,0,0,0,0,1,0,,,,,
,5fc429047f2ae3825eb811a4,627c7578f28b3cd68796cf3c,2022-05-11_22h48.39.958,classification_task,2021.2.3,Win32,60.40106306,627c6715c52fd12f31907bd0,,,,,,,,,,,,,,,,,,,,,,,,,,,,,,,,,,,,,,,,,,,,,,,,,,,,,"On trials you completed with assistance from the aid, how frequently did you think the aid was correct?",,0.7,0,100%,,0,0,0,0,1,0,,,,,
,5fc429047f2ae3825eb811a4,627c7578f28b3cd68796cf3c,2022-05-11_22h48.39.958,classification_task,2021.2.3,Win32,60.40106306,627c6715c52fd12f31907bd0,,,,,,,,,,,,,,,,,,,,,,,,,,,,,,,,,,,,,,,,,,,,,,,,,,,,,"On trials you completed without the aid, how frequently did you think you were correct?",,0.7,0,15%,,0,0,0,0,1,0,,,,,
,5fc429047f2ae3825eb811a4,627c7578f28b3cd68796cf3c,2022-05-11_22h48.39.958,classification_task,2021.2.3,Win32,60.40106306,627c6715c52fd12f31907bd0,,,,,,,,,,,,,,,,,,,,,,,,,,,,,,,,,,,,,,,,,,,,,,,,,,,,,,,,,,,0,0,0,0,1,,,,,,
,5fc429047f2ae3825eb811a4,627c7578f28b3cd68796cf3c,2022-05-11_22h48.39.958,classification_task,2021.2.3,Win32,60.40106306,627c6715c52fd12f31907bd0,,,,,,,,,,,,,,,,,,,,,,,,,,,,,,,,,,,,,,,,,,,,,,,,,,,,,,,,,,,,,,,,,space,7.096,941.2735,,
,5fc429047f2ae3825eb811a4,627c7578f28b3cd68796cf3c,2022-05-11_22h48.39.958,classification_task,2021.2.3,Win32,60.40106306,627c6715c52fd12f31907bd0,,,,,,,,,,,,,,,,,,,,,,,,,,,,,,,,,,,,,,,,,,,,,,,,,,,,,,,,,,,,,,,,,,,,"Mozilla/5.0 (Windows NT 10.0; Win64; x64) AppleWebKit/537.36 (KHTML, like Gecko) Chrome/101.0.4951.54 Safari/537.36",
,5fc429047f2ae3825eb811a4,627c7578f28b3cd68796cf3c,2022-05-11_22h48.39.958,classification_task,2021.2.3,Win32,60.40106306,627c6715c52fd12f31907bd0,,,,,,,,,,,,,,,,,,,,,,,,,,,,,,,,,,,,,,,,,,,,,,,,,,,,,,,,,,,,,,,,,,,,,HIGHLIGHT
