usingWebGL,participant,session,date,expName,psychopyVersion,OS,frameRate,study_id,signatures_friend,signatures_foe,band_ranges_top,band_ranges_bottom,formitemText,formtype,formundefined,formitemWidth,formindex,formresponse,formrt,key_resp_2.keys,key_resp_2.rt,tute_resp.keys,tute_resp.rt,tutorial.thisRepN,tutorial.thisTrialN,tutorial.thisN,tutorial.thisIndex,tutorial.ran,key_resp_4.keys,key_resp_4.rt,key_resp.keys,key_resp.corr,key_resp.rt,lines_presented,is_signal_presented,trials.thisRepN,trials.thisTrialN,trials.thisN,trials.thisIndex,trials.ran,vessel,active_band,lines,is_signal,supported_pos,catch_trial,debrief_formindex,debrief_formitemText,debrief_formtype,debrief_formitemWidth,debrief_formresponse,debrief_formrt,phases.thisRepN,phases.thisTrialN,phases.thisN,phases.thisIndex,phases.ran,phases.order,phase,key_resp_3.keys,trustitemText,trusttype,trustitemWidth,trustindex,trustresponse,trustrt,support_status.thisRepN,support_status.thisTrialN,support_status.thisN,support_status.thisIndex,support_status.ran,support_status.order,key_resp_5.keys,key_resp_5.rt,globalClockTime,userAgent,manualCondition
TRUE,5fc813d6ae2a8f1263399b2f,627c6f4010be7aadc9f67a02,2022-05-11_21h22.49.839,classification_task,2021.2.3,Win32,59.78000956,627c6715c52fd12f31907bcf,,,,,,,,,,,,,,,,,,,,,,,,,,,,,,,,,,,,,,,,,,,,,,,,,,,,,,,,,,,,,,,,,,,,,
,5fc813d6ae2a8f1263399b2f,627c6f4010be7aadc9f67a02,2022-05-11_21h22.49.839,classification_task,2021.2.3,Win32,59.78000956,627c6715c52fd12f31907bcf,"[[""0.286"",""0.414"",""0.897"",""0.954""],[""0.250"",""0.510"",""0.731"",""0.853""]]","[[""0.042"",""0.216"",""0.558"",""0.818""],[""0.112"",""0.156"",""0.614"",""0.778""]]","[1,10]","[100,1000]",Video game experience,,,0.7,0,,,,,,,,,,,,,,,,,,,,,,,,,,,,,,,,,,,,,,,,,,,,,,,,,,,,,,,,,,,,
,5fc813d6ae2a8f1263399b2f,627c6f4010be7aadc9f67a02,2022-05-11_21h22.49.839,classification_task,2021.2.3,Win32,59.78000956,627c6715c52fd12f31907bcf,,,,,Approximately how many hours did you spend playing video games in the last week?,,,0.7,0,20,,,,,,,,,,,,,,,,,,,,,,,,,,,,,,,,,,,,,,,,,,,,,,,,,,,,,,,,,,,
,5fc813d6ae2a8f1263399b2f,627c6f4010be7aadc9f67a02,2022-05-11_21h22.49.839,classification_task,2021.2.3,Win32,59.78000956,627c6715c52fd12f31907bcf,,,,,"Which game did you play the most this year? (Enter ""None"" if you didn't play any)",,,0.7,0,Gears of War series,,,,,,,,,,,,,,,,,,,,,,,,,,,,,,,,,,,,,,,,,,,,,,,,,,,,,,,,,,,
,5fc813d6ae2a8f1263399b2f,627c6f4010be7aadc9f67a02,2022-05-11_21h22.49.839,classification_task,2021.2.3,Win32,59.78000956,627c6715c52fd12f31907bcf,,,,,Visual perception,,,0.7,0,,,,,,,,,,,,,,,,,,,,,,,,,,,,,,,,,,,,,,,,,,,,,,,,,,,,,,,,,,,,
,5fc813d6ae2a8f1263399b2f,627c6f4010be7aadc9f67a02,2022-05-11_21h22.49.839,classification_task,2021.2.3,Win32,59.78000956,627c6715c52fd12f31907bcf,,,,,Do you have any form of color blindness?,,,0.7,0,No,28.3921,,,,,,,,,,,,,,,,,,,,,,,,,,,,,,,,,,,,,,,,,,,,,,,,,,,,,,,,,,
,5fc813d6ae2a8f1263399b2f,627c6f4010be7aadc9f67a02,2022-05-11_21h22.49.839,classification_task,2021.2.3,Win32,59.78000956,627c6715c52fd12f31907bcf,,,,,Do you use software to change the colour temperature of your screen (e.g. f.lux)?,,,0.7,0,Yes,30.6345,,,,,,,,,,,,,,,,,,,,,,,,,,,,,,,,,,,,,,,,,,,,,,,,,,,,,,,,,,
,5fc813d6ae2a8f1263399b2f,627c6f4010be7aadc9f67a02,2022-05-11_21h22.49.839,classification_task,2021.2.3,Win32,59.78000956,627c6715c52fd12f31907bcf,,,,,,,,,,,,space,30.0336,space,16.432,0,0,0,0,1,,,,,,,,,,,,,,,,,,,,,,,,,,,,,,,,,,,,,,,,,,,,,,,,,
,5fc813d6ae2a8f1263399b2f,627c6f4010be7aadc9f67a02,2022-05-11_21h22.49.839,classification_task,2021.2.3,Win32,59.78000956,627c6715c52fd12f31907bcf,,,,,,,,,,,,,,space,16.4986,1,0,1,0,1,,,,,,,,,,,,,,,,,,,,,,,,,,,,,,,,,,,,,,,,,,,,,,,,,
,5fc813d6ae2a8f1263399b2f,627c6f4010be7aadc9f67a02,2022-05-11_21h22.49.839,classification_task,2021.2.3,Win32,59.78000956,627c6715c52fd12f31907bcf,,,,,,,,,,,,,,space,27.0785,2,0,2,0,1,,,,,,,,,,,,,,,,,,,,,,,,,,,,,,,,,,,,,,,,,,,,,,,,,
,5fc813d6ae2a8f1263399b2f,627c6f4010be7aadc9f67a02,2022-05-11_21h22.49.839,classification_task,2021.2.3,Win32,59.78000956,627c6715c52fd12f31907bcf,,,,,,,,,,,,,,space,5.9542,3,0,3,0,1,,,,,,,,,,,,,,,,,,,,,,,,,,,,,,,,,,,,,,,,,,,,,,,,,
,5fc813d6ae2a8f1263399b2f,627c6f4010be7aadc9f67a02,2022-05-11_21h22.49.839,classification_task,2021.2.3,Win32,59.78000956,627c6715c52fd12f31907bcf,,,,,,,,,,,,,,space,17.0048,4,0,4,0,1,,,,,,,,,,,,,,,,,,,,,,,,,,,,,,,,,,,,,,,,,,,,,,,,,
,5fc813d6ae2a8f1263399b2f,627c6f4010be7aadc9f67a02,2022-05-11_21h22.49.839,classification_task,2021.2.3,Win32,59.78000956,627c6715c52fd12f31907bcf,,,,,,,,,,,,,,,,,,,,,space,17.6668,l,1,3.9711,"[""0.112"",""0.352"",""0.614"",""0.778""]","[1,0,1,1]",0,0,0,0,1,1,1,,,1,FALSE,,,,,,,,,,,,,,,,,,,,,,,,,,,,,,,
,5fc813d6ae2a8f1263399b2f,627c6f4010be7aadc9f67a02,2022-05-11_21h22.49.839,classification_task,2021.2.3,Win32,59.78000956,627c6715c52fd12f31907bcf,,,,,,,,,,,,,,,,,,,,,,,,0,,"[""0.448"",""0.510"",""0.731"",""0.853""]","[0,1,1,1]",0,1,1,1,1,0,1,,,1,FALSE,,,,,,,,,,,,,,,,,,,,,,,,,,,,,,,
,5fc813d6ae2a8f1263399b2f,627c6f4010be7aadc9f67a02,2022-05-11_21h22.49.839,classification_task,2021.2.3,Win32,59.78000956,627c6715c52fd12f31907bcf,,,,,,,,,,,,,,,,,,,,,,,a,1,4.0111,"[""0.250"",""0.510"",""0.685"",""0.853""]","[1,1,0,1]",0,2,2,2,1,0,1,,,1,FALSE,,,,,,,,,,,,,,,,,,,,,,,,,,,,,,,
,5fc813d6ae2a8f1263399b2f,627c6f4010be7aadc9f67a02,2022-05-11_21h22.49.839,classification_task,2021.2.3,Win32,59.78000956,627c6715c52fd12f31907bcf,,,,,,,,,,,,,,,,,,,,,,,a,1,3.7459,"[""0.250"",""0.685"",""0.731"",""0.853""]","[1,0,1,1]",0,3,3,3,1,0,1,,,1,FALSE,,,,,,,,,,,,,,,,,,,,,,,,,,,,,,,
,5fc813d6ae2a8f1263399b2f,627c6f4010be7aadc9f67a02,2022-05-11_21h22.49.839,classification_task,2021.2.3,Win32,59.78000956,627c6715c52fd12f31907bcf,,,,,,,,,,,,,,,,,,,,,,,l,1,4.7006,"[""0.112"",""0.156"",""0.614"",""0.343""]","[1,1,1,0]",0,4,4,4,1,1,1,,,1,FALSE,,,,,,,,,,,,,,,,,,,,,,,,,,,,,,,
,5fc813d6ae2a8f1263399b2f,627c6f4010be7aadc9f67a02,2022-05-11_21h22.49.839,classification_task,2021.2.3,Win32,59.78000956,627c6715c52fd12f31907bcf,,,,,,,,,,,,,,,,,,,,,,,l,1,3.3301,"[""0.042"",""0.216"",""0.354"",""0.818""]","[1,1,0,1]",0,5,5,5,1,1,0,,,1,FALSE,,,,,,,,,,,,,,,,,,,,,,,,,,,,,,,
,5fc813d6ae2a8f1263399b2f,627c6f4010be7aadc9f67a02,2022-05-11_21h22.49.839,classification_task,2021.2.3,Win32,59.78000956,627c6715c52fd12f31907bcf,,,,,,,,,,,,,,,,,,,,,,,a,1,6.2811,"[""0.286"",""0.414"",""0.897"",""0.344""]","[1,1,1,0]",0,6,6,6,1,0,0,,,1,FALSE,,,,,,,,,,,,,,,,,,,,,,,,,,,,,,,
,5fc813d6ae2a8f1263399b2f,627c6f4010be7aadc9f67a02,2022-05-11_21h22.49.839,classification_task,2021.2.3,Win32,59.78000956,627c6715c52fd12f31907bcf,,,,,,,,,,,,,,,,,,,,,,,l,1,6.8026,"[""0.042"",""0.216"",""0.558"",""0.322""]","[1,1,1,0]",0,7,7,7,1,1,0,,,1,FALSE,,,,,,,,,,,,,,,,,,,,,,,,,,,,,,,
,5fc813d6ae2a8f1263399b2f,627c6f4010be7aadc9f67a02,2022-05-11_21h22.49.839,classification_task,2021.2.3,Win32,59.78000956,627c6715c52fd12f31907bcf,,,,,,,,,,,,,,,,,,,,,,,a,1,4.3967,"[""0.286"",""0.414"",""0.663"",""0.954""]","[1,1,0,1]",0,8,8,8,1,0,0,,,1,FALSE,,,,,,,,,,,,,,,,,,,,,,,,,,,,,,,
,5fc813d6ae2a8f1263399b2f,627c6f4010be7aadc9f67a02,2022-05-11_21h22.49.839,classification_task,2021.2.3,Win32,59.78000956,627c6715c52fd12f31907bcf,,,,,,,,,,,,,,,,,,,,,,,l,1,2.8227,"[""0.344"",""0.156"",""0.614"",""0.778""]","[0,1,1,1]",0,9,9,9,1,1,1,,,1,FALSE,,,,,,,,,,,,,,,,,,,,,,,,,,,,,,,
,5fc813d6ae2a8f1263399b2f,627c6f4010be7aadc9f67a02,2022-05-11_21h22.49.839,classification_task,2021.2.3,Win32,59.78000956,627c6715c52fd12f31907bcf,,,,,,,,,,,,,,,,,,,,,,,a,1,3.2142,"[""0.250"",""0.510"",""0.731"",""0.352""]","[1,1,1,0]",0,10,10,10,1,0,1,,,1,FALSE,,,,,,,,,,,,,,,,,,,,,,,,,,,,,,,
,5fc813d6ae2a8f1263399b2f,627c6f4010be7aadc9f67a02,2022-05-11_21h22.49.839,classification_task,2021.2.3,Win32,59.78000956,627c6715c52fd12f31907bcf,,,,,,,,,,,,,,,,,,,,,,,l,1,2.0963,"[""0.112"",""0.156"",""0.685"",""0.778""]","[1,1,0,1]",0,11,11,11,1,1,1,,,1,FALSE,,,,,,,,,,,,,,,,,,,,,,,,,,,,,,,
,5fc813d6ae2a8f1263399b2f,627c6f4010be7aadc9f67a02,2022-05-11_21h22.49.839,classification_task,2021.2.3,Win32,59.78000956,627c6715c52fd12f31907bcf,,,,,,,,,,,,,,,,,,,,,,,a,0,6.6087,"[""0.322"",""0.216"",""0.558"",""0.818""]","[0,1,1,1]",0,12,12,12,1,1,0,,,1,FALSE,,,,,,,,,,,,,,,,,,,,,,,,,,,,,,,
,5fc813d6ae2a8f1263399b2f,627c6f4010be7aadc9f67a02,2022-05-11_21h22.49.839,classification_task,2021.2.3,Win32,59.78000956,627c6715c52fd12f31907bcf,,,,,,,,,,,,,,,,,,,,,,,a,1,5.8982,"[""0.286"",""0.679"",""0.897"",""0.954""]","[1,0,1,1]",0,13,13,13,1,0,0,,,1,FALSE,,,,,,,,,,,,,,,,,,,,,,,,,,,,,,,
,5fc813d6ae2a8f1263399b2f,627c6f4010be7aadc9f67a02,2022-05-11_21h22.49.839,classification_task,2021.2.3,Win32,59.78000956,627c6715c52fd12f31907bcf,,,,,,,,,,,,,,,,,,,,,,,a,1,8.1664,"[""0.344"",""0.414"",""0.897"",""0.954""]","[0,1,1,1]",0,14,14,14,1,0,0,,,1,FALSE,,,,,,,,,,,,,,,,,,,,,,,,,,,,,,,
,5fc813d6ae2a8f1263399b2f,627c6f4010be7aadc9f67a02,2022-05-11_21h22.49.839,classification_task,2021.2.3,Win32,59.78000956,627c6715c52fd12f31907bcf,,,,,,,,,,,,,,,,,,,,,,,l,1,5.9886,"[""0.042"",""0.322"",""0.558"",""0.818""]","[1,0,1,1]",0,15,15,15,1,1,0,,,1,FALSE,,,,,,,,,,,,,,,,,,,,,,,,,,,,,,,
,5fc813d6ae2a8f1263399b2f,627c6f4010be7aadc9f67a02,2022-05-11_21h22.49.839,classification_task,2021.2.3,Win32,59.78000956,627c6715c52fd12f31907bcf,,,,,,,,,,,,,,,,,,,,,,,a,1,9.1431,"[""0.286"",""0.414"",""0.658"",""0.954""]","[1,1,0,1]",0,16,16,16,1,0,0,,,1,FALSE,,,,,,,,,,,,,,,,,,,,,,,,,,,,,,,
,5fc813d6ae2a8f1263399b2f,627c6f4010be7aadc9f67a02,2022-05-11_21h22.49.839,classification_task,2021.2.3,Win32,59.78000956,627c6715c52fd12f31907bcf,,,,,,,,,,,,,,,,,,,,,,,a,1,2.7829,"[""0.250"",""0.695"",""0.731"",""0.853""]","[1,0,1,1]",0,17,17,17,1,0,1,,,1,FALSE,,,,,,,,,,,,,,,,,,,,,,,,,,,,,,,
,5fc813d6ae2a8f1263399b2f,627c6f4010be7aadc9f67a02,2022-05-11_21h22.49.839,classification_task,2021.2.3,Win32,59.78000956,627c6715c52fd12f31907bcf,,,,,,,,,,,,,,,,,,,,,,,l,1,2.2053,"[""0.112"",""0.354"",""0.614"",""0.778""]","[1,0,1,1]",0,18,18,18,1,1,1,,,1,FALSE,,,,,,,,,,,,,,,,,,,,,,,,,,,,,,,
,5fc813d6ae2a8f1263399b2f,627c6f4010be7aadc9f67a02,2022-05-11_21h22.49.839,classification_task,2021.2.3,Win32,59.78000956,627c6715c52fd12f31907bcf,,,,,,,,,,,,,,,,,,,,,,,a,1,2.0881,"[""0.250"",""0.510"",""0.731"",""0.694""]","[1,1,1,0]",0,19,19,19,1,0,1,,,1,FALSE,,,,,,,,,,,,,,,,,,,,,,,,,,,,,,,
,5fc813d6ae2a8f1263399b2f,627c6f4010be7aadc9f67a02,2022-05-11_21h22.49.839,classification_task,2021.2.3,Win32,59.78000956,627c6715c52fd12f31907bcf,,,,,,,,,,,,,,,,,,,,,,,l,1,1.8953,"[""0.322"",""0.156"",""0.614"",""0.778""]","[0,1,1,1]",0,20,20,20,1,1,1,,,1,FALSE,,,,,,,,,,,,,,,,,,,,,,,,,,,,,,,
,5fc813d6ae2a8f1263399b2f,627c6f4010be7aadc9f67a02,2022-05-11_21h22.49.839,classification_task,2021.2.3,Win32,59.78000956,627c6715c52fd12f31907bcf,,,,,,,,,,,,,,,,,,,,,,,a,1,6.5978,"[""0.343"",""0.414"",""0.897"",""0.954""]","[0,1,1,1]",0,21,21,21,1,0,0,,,1,FALSE,,,,,,,,,,,,,,,,,,,,,,,,,,,,,,,
,5fc813d6ae2a8f1263399b2f,627c6f4010be7aadc9f67a02,2022-05-11_21h22.49.839,classification_task,2021.2.3,Win32,59.78000956,627c6715c52fd12f31907bcf,,,,,,,,,,,,,,,,,,,,,,,l,1,3.6142,"[""0.042"",""0.216"",""0.685"",""0.818""]","[1,1,0,1]",0,22,22,22,1,1,0,,,1,FALSE,,,,,,,,,,,,,,,,,,,,,,,,,,,,,,,
,5fc813d6ae2a8f1263399b2f,627c6f4010be7aadc9f67a02,2022-05-11_21h22.49.839,classification_task,2021.2.3,Win32,59.78000956,627c6715c52fd12f31907bcf,,,,,,,,,,,,,,,,,,,,,,,l,1,5.6815,"[""0.042"",""0.695"",""0.558"",""0.818""]","[1,0,1,1]",0,23,23,23,1,1,0,,,1,FALSE,,,,,,,,,,,,,,,,,,,,,,,,,,,,,,,
,5fc813d6ae2a8f1263399b2f,627c6f4010be7aadc9f67a02,2022-05-11_21h22.49.839,classification_task,2021.2.3,Win32,59.78000956,627c6715c52fd12f31907bcf,,,,,,,,,,,,,,,,,,,,,,,l,1,2.8654,"[""0.322"",""0.216"",""0.558"",""0.818""]","[0,1,1,1]",0,24,24,24,1,1,0,,,1,FALSE,,,,,,,,,,,,,,,,,,,,,,,,,,,,,,,
,5fc813d6ae2a8f1263399b2f,627c6f4010be7aadc9f67a02,2022-05-11_21h22.49.839,classification_task,2021.2.3,Win32,59.78000956,627c6715c52fd12f31907bcf,,,,,,,,,,,,,,,,,,,,,,,a,1,6.3771,"[""0.448"",""0.510"",""0.731"",""0.853""]","[0,1,1,1]",0,25,25,25,1,0,1,,,1,FALSE,,,,,,,,,,,,,,,,,,,,,,,,,,,,,,,
,5fc813d6ae2a8f1263399b2f,627c6f4010be7aadc9f67a02,2022-05-11_21h22.49.839,classification_task,2021.2.3,Win32,59.78000956,627c6715c52fd12f31907bcf,,,,,,,,,,,,,,,,,,,,,,,a,1,1.7032,"[""0.250"",""0.510"",""0.663"",""0.853""]","[1,1,0,1]",0,26,26,26,1,0,1,,,1,FALSE,,,,,,,,,,,,,,,,,,,,,,,,,,,,,,,
,5fc813d6ae2a8f1263399b2f,627c6f4010be7aadc9f67a02,2022-05-11_21h22.49.839,classification_task,2021.2.3,Win32,59.78000956,627c6715c52fd12f31907bcf,,,,,,,,,,,,,,,,,,,,,,,l,1,1.8704,"[""0.112"",""0.156"",""0.694"",""0.778""]","[1,1,0,1]",0,27,27,27,1,1,1,,,1,FALSE,,,,,,,,,,,,,,,,,,,,,,,,,,,,,,,
,5fc813d6ae2a8f1263399b2f,627c6f4010be7aadc9f67a02,2022-05-11_21h22.49.839,classification_task,2021.2.3,Win32,59.78000956,627c6715c52fd12f31907bcf,,,,,,,,,,,,,,,,,,,,,,,l,1,2.5982,"[""0.042"",""0.216"",""0.558"",""0.343""]","[1,1,1,0]",0,28,28,28,1,1,0,,,1,FALSE,,,,,,,,,,,,,,,,,,,,,,,,,,,,,,,
,5fc813d6ae2a8f1263399b2f,627c6f4010be7aadc9f67a02,2022-05-11_21h22.49.839,classification_task,2021.2.3,Win32,59.78000956,627c6715c52fd12f31907bcf,,,,,,,,,,,,,,,,,,,,,,,l,1,1.9001,"[""0.112"",""0.156"",""0.614"",""0.453""]","[1,1,1,0]",0,29,29,29,1,1,1,,,1,FALSE,,,,,,,,,,,,,,,,,,,,,,,,,,,,,,,
,5fc813d6ae2a8f1263399b2f,627c6f4010be7aadc9f67a02,2022-05-11_21h22.49.839,classification_task,2021.2.3,Win32,59.78000956,627c6715c52fd12f31907bcf,,,,,,,,,,,,,,,,,,,,,,,a,1,3.1526,"[""0.286"",""0.448"",""0.897"",""0.954""]","[1,0,1,1]",0,30,30,30,1,0,0,,,1,FALSE,,,,,,,,,,,,,,,,,,,,,,,,,,,,,,,
,5fc813d6ae2a8f1263399b2f,627c6f4010be7aadc9f67a02,2022-05-11_21h22.49.839,classification_task,2021.2.3,Win32,59.78000956,627c6715c52fd12f31907bcf,,,,,,,,,,,,,,,,,,,,,,,a,1,5.5054,"[""0.286"",""0.414"",""0.897"",""0.344""]","[1,1,1,0]",0,31,31,31,1,0,0,,,1,FALSE,,,,,,,,,,,,,,,,,,,,,,,,,,,,,,,
,5fc813d6ae2a8f1263399b2f,627c6f4010be7aadc9f67a02,2022-05-11_21h22.49.839,classification_task,2021.2.3,Win32,59.78000956,627c6715c52fd12f31907bcf,,,,,,,,,,,,,,,,,,,,,,,a,1,4.6713,"[""0.286"",""0.414"",""0.897"",""0.322""]","[1,1,1,0]",0,32,32,32,1,0,0,,,1,FALSE,,,,,,,,,,,,,,,,,,,,,,,,,,,,,,,
,5fc813d6ae2a8f1263399b2f,627c6f4010be7aadc9f67a02,2022-05-11_21h22.49.839,classification_task,2021.2.3,Win32,59.78000956,627c6715c52fd12f31907bcf,,,,,,,,,,,,,,,,,,,,,,,a,0,3.9537,"[""0.042"",""0.694"",""0.558"",""0.818""]","[1,0,1,1]",0,33,33,33,1,1,0,,,1,FALSE,,,,,,,,,,,,,,,,,,,,,,,,,,,,,,,
,5fc813d6ae2a8f1263399b2f,627c6f4010be7aadc9f67a02,2022-05-11_21h22.49.839,classification_task,2021.2.3,Win32,59.78000956,627c6715c52fd12f31907bcf,,,,,,,,,,,,,,,,,,,,,,,a,1,6.7407,"[""0.250"",""0.510"",""0.695"",""0.853""]","[1,1,0,1]",0,34,34,34,1,0,1,,,1,FALSE,,,,,,,,,,,,,,,,,,,,,,,,,,,,,,,
,5fc813d6ae2a8f1263399b2f,627c6f4010be7aadc9f67a02,2022-05-11_21h22.49.839,classification_task,2021.2.3,Win32,59.78000956,627c6715c52fd12f31907bcf,,,,,,,,,,,,,,,,,,,,,,,l,1,0.9185,"[""0.042"",""0.216"",""0.322"",""0.818""]","[1,1,0,1]",0,35,35,35,1,1,0,,,1,FALSE,,,,,,,,,,,,,,,,,,,,,,,,,,,,,,,
,5fc813d6ae2a8f1263399b2f,627c6f4010be7aadc9f67a02,2022-05-11_21h22.49.839,classification_task,2021.2.3,Win32,59.78000956,627c6715c52fd12f31907bcf,,,,,,,,,,,,,,,,,,,,,,,l,1,1.5681,"[""0.112"",""0.156"",""0.663"",""0.778""]","[1,1,0,1]",0,36,36,36,1,1,1,,,1,FALSE,,,,,,,,,,,,,,,,,,,,,,,,,,,,,,,
,5fc813d6ae2a8f1263399b2f,627c6f4010be7aadc9f67a02,2022-05-11_21h22.49.839,classification_task,2021.2.3,Win32,59.78000956,627c6715c52fd12f31907bcf,,,,,,,,,,,,,,,,,,,,,,,a,1,1.1186,"[""0.250"",""0.658"",""0.731"",""0.853""]","[1,0,1,1]",0,37,37,37,1,0,1,,,1,FALSE,,,,,,,,,,,,,,,,,,,,,,,,,,,,,,,
,5fc813d6ae2a8f1263399b2f,627c6f4010be7aadc9f67a02,2022-05-11_21h22.49.839,classification_task,2021.2.3,Win32,59.78000956,627c6715c52fd12f31907bcf,,,,,,,,,,,,,,,,,,,,,,,l,1,2.8704,"[""0.658"",""0.156"",""0.614"",""0.778""]","[0,1,1,1]",0,38,38,38,1,1,1,,,1,FALSE,,,,,,,,,,,,,,,,,,,,,,,,,,,,,,,
,5fc813d6ae2a8f1263399b2f,627c6f4010be7aadc9f67a02,2022-05-11_21h22.49.839,classification_task,2021.2.3,Win32,59.78000956,627c6715c52fd12f31907bcf,,,,,,,,,,,,,,,,,,,,,,,l,1,0.8342,"[""0.112"",""0.373"",""0.614"",""0.778""]","[1,0,1,1]",0,39,39,39,1,1,1,,,1,FALSE,,,,,,,,,,,,,,,,,,,,,,,,,,,,,,,
,5fc813d6ae2a8f1263399b2f,627c6f4010be7aadc9f67a02,2022-05-11_21h22.49.839,classification_task,2021.2.3,Win32,59.78000956,627c6715c52fd12f31907bcf,,,,,,,,,,,,,,,,,,,,,,,a,1,0.8352,"[""0.322"",""0.510"",""0.731"",""0.853""]","[0,1,1,1]",0,40,40,40,1,0,1,,,1,FALSE,,,,,,,,,,,,,,,,,,,,,,,,,,,,,,,
,5fc813d6ae2a8f1263399b2f,627c6f4010be7aadc9f67a02,2022-05-11_21h22.49.839,classification_task,2021.2.3,Win32,59.78000956,627c6715c52fd12f31907bcf,,,,,,,,,,,,,,,,,,,,,,,l,0,2.0689,"[""0.286"",""0.414"",""0.685"",""0.954""]","[1,1,0,1]",0,41,41,41,1,0,0,,,1,FALSE,,,,,,,,,,,,,,,,,,,,,,,,,,,,,,,
,5fc813d6ae2a8f1263399b2f,627c6f4010be7aadc9f67a02,2022-05-11_21h22.49.839,classification_task,2021.2.3,Win32,59.78000956,627c6715c52fd12f31907bcf,,,,,,,,,,,,,,,,,,,,,,,l,1,1.937,"[""0.322"",""0.216"",""0.558"",""0.818""]","[0,1,1,1]",0,42,42,42,1,1,0,,,1,FALSE,,,,,,,,,,,,,,,,,,,,,,,,,,,,,,,
,5fc813d6ae2a8f1263399b2f,627c6f4010be7aadc9f67a02,2022-05-11_21h22.49.839,classification_task,2021.2.3,Win32,59.78000956,627c6715c52fd12f31907bcf,,,,,,,,,,,,,,,,,,,,,,,l,1,1.002,"[""0.112"",""0.156"",""0.614"",""0.658""]","[1,1,1,0]",0,43,43,43,1,1,1,,,1,FALSE,,,,,,,,,,,,,,,,,,,,,,,,,,,,,,,
,5fc813d6ae2a8f1263399b2f,627c6f4010be7aadc9f67a02,2022-05-11_21h22.49.839,classification_task,2021.2.3,Win32,59.78000956,627c6715c52fd12f31907bcf,,,,,,,,,,,,,,,,,,,,,,,a,1,1.9868,"[""0.286"",""0.354"",""0.897"",""0.954""]","[1,0,1,1]",0,44,44,44,1,0,0,,,1,FALSE,,,,,,,,,,,,,,,,,,,,,,,,,,,,,,,
,5fc813d6ae2a8f1263399b2f,627c6f4010be7aadc9f67a02,2022-05-11_21h22.49.839,classification_task,2021.2.3,Win32,59.78000956,627c6715c52fd12f31907bcf,,,,,,,,,,,,,,,,,,,,,,,a,1,1.852,"[""0.250"",""0.510"",""0.731"",""0.695""]","[1,1,1,0]",0,45,45,45,1,0,1,,,1,FALSE,,,,,,,,,,,,,,,,,,,,,,,,,,,,,,,
,5fc813d6ae2a8f1263399b2f,627c6f4010be7aadc9f67a02,2022-05-11_21h22.49.839,classification_task,2021.2.3,Win32,59.78000956,627c6715c52fd12f31907bcf,,,,,,,,,,,,,,,,,,,,,,,l,1,0.8847,"[""0.042"",""0.216"",""0.558"",""0.694""]","[1,1,1,0]",0,46,46,46,1,1,0,,,1,FALSE,,,,,,,,,,,,,,,,,,,,,,,,,,,,,,,
,5fc813d6ae2a8f1263399b2f,627c6f4010be7aadc9f67a02,2022-05-11_21h22.49.839,classification_task,2021.2.3,Win32,59.78000956,627c6715c52fd12f31907bcf,,,,,,,,,,,,,,,,,,,,,,,a,1,1.1516,"[""0.352"",""0.414"",""0.897"",""0.954""]","[0,1,1,1]",0,47,47,47,1,0,0,,,1,FALSE,,,,,,,,,,,,,,,,,,,,,,,,,,,,,,,
,5fc813d6ae2a8f1263399b2f,627c6f4010be7aadc9f67a02,2022-05-11_21h22.49.839,classification_task,2021.2.3,Win32,59.78000956,627c6715c52fd12f31907bcf,,,,,,,,,,,,,,,,,,,,,,,a,1,5.4906,"[""0.286"",""0.414"",""0.897"",""0.453""]","[1,1,1,0]",0,48,48,48,1,0,0,,,1,FALSE,,,,,,,,,,,,,,,,,,,,,,,,,,,,,,,
,5fc813d6ae2a8f1263399b2f,627c6f4010be7aadc9f67a02,2022-05-11_21h22.49.839,classification_task,2021.2.3,Win32,59.78000956,627c6715c52fd12f31907bcf,,,,,,,,,,,,,,,,,,,,,,,l,1,0.7678,"[""0.112"",""0.156"",""0.344"",""0.778""]","[1,1,0,1]",0,49,49,49,1,1,1,,,1,FALSE,,,,,,,,,,,,,,,,,,,,,,,,,,,,,,,
,5fc813d6ae2a8f1263399b2f,627c6f4010be7aadc9f67a02,2022-05-11_21h22.49.839,classification_task,2021.2.3,Win32,59.78000956,627c6715c52fd12f31907bcf,,,,,,,,,,,,,,,,,,,,,,,a,1,2.3531,"[""0.286"",""0.414"",""0.656"",""0.954""]","[1,1,0,1]",0,50,50,50,1,0,0,,,1,FALSE,,,,,,,,,,,,,,,,,,,,,,,,,,,,,,,
,5fc813d6ae2a8f1263399b2f,627c6f4010be7aadc9f67a02,2022-05-11_21h22.49.839,classification_task,2021.2.3,Win32,59.78000956,627c6715c52fd12f31907bcf,,,,,,,,,,,,,,,,,,,,,,,l,0,2.3192,"[""0.250"",""0.510"",""0.731"",""0.322""]","[1,1,1,0]",0,51,51,51,1,0,1,,,1,FALSE,,,,,,,,,,,,,,,,,,,,,,,,,,,,,,,
,5fc813d6ae2a8f1263399b2f,627c6f4010be7aadc9f67a02,2022-05-11_21h22.49.839,classification_task,2021.2.3,Win32,59.78000956,627c6715c52fd12f31907bcf,,,,,,,,,,,,,,,,,,,,,,,l,1,0.8175,"[""0.042"",""0.216"",""0.558"",""0.352""]","[1,1,1,0]",0,52,52,52,1,1,0,,,1,FALSE,,,,,,,,,,,,,,,,,,,,,,,,,,,,,,,
,5fc813d6ae2a8f1263399b2f,627c6f4010be7aadc9f67a02,2022-05-11_21h22.49.839,classification_task,2021.2.3,Win32,59.78000956,627c6715c52fd12f31907bcf,,,,,,,,,,,,,,,,,,,,,,,a,1,0.7354,"[""0.286"",""0.694"",""0.897"",""0.954""]","[1,0,1,1]",0,53,53,53,1,0,0,,,1,FALSE,,,,,,,,,,,,,,,,,,,,,,,,,,,,,,,
,5fc813d6ae2a8f1263399b2f,627c6f4010be7aadc9f67a02,2022-05-11_21h22.49.839,classification_task,2021.2.3,Win32,59.78000956,627c6715c52fd12f31907bcf,,,,,,,,,,,,,,,,,,,,,,,a,0,2.5533,"[""0.322"",""0.216"",""0.558"",""0.818""]","[0,1,1,1]",0,54,54,54,1,1,0,,,1,FALSE,,,,,,,,,,,,,,,,,,,,,,,,,,,,,,,
,5fc813d6ae2a8f1263399b2f,627c6f4010be7aadc9f67a02,2022-05-11_21h22.49.839,classification_task,2021.2.3,Win32,59.78000956,627c6715c52fd12f31907bcf,,,,,,,,,,,,,,,,,,,,,,,l,1,1.1018,"[""0.042"",""0.656"",""0.558"",""0.818""]","[1,0,1,1]",0,55,55,55,1,1,0,,,1,FALSE,,,,,,,,,,,,,,,,,,,,,,,,,,,,,,,
,5fc813d6ae2a8f1263399b2f,627c6f4010be7aadc9f67a02,2022-05-11_21h22.49.839,classification_task,2021.2.3,Win32,59.78000956,627c6715c52fd12f31907bcf,,,,,,,,,,,,,,,,,,,,,,,l,1,1.0496,"[""0.453"",""0.156"",""0.614"",""0.778""]","[0,1,1,1]",0,56,56,56,1,1,1,,,1,FALSE,,,,,,,,,,,,,,,,,,,,,,,,,,,,,,,
,5fc813d6ae2a8f1263399b2f,627c6f4010be7aadc9f67a02,2022-05-11_21h22.49.839,classification_task,2021.2.3,Win32,59.78000956,627c6715c52fd12f31907bcf,,,,,,,,,,,,,,,,,,,,,,,a,1,1.4696,"[""0.322"",""0.510"",""0.731"",""0.853""]","[0,1,1,1]",0,57,57,57,1,0,1,,,1,FALSE,,,,,,,,,,,,,,,,,,,,,,,,,,,,,,,
,5fc813d6ae2a8f1263399b2f,627c6f4010be7aadc9f67a02,2022-05-11_21h22.49.839,classification_task,2021.2.3,Win32,59.78000956,627c6715c52fd12f31907bcf,,,,,,,,,,,,,,,,,,,,,,,a,0,0.9678,"[""0.112"",""0.695"",""0.614"",""0.778""]","[1,0,1,1]",0,58,58,58,1,1,1,,,1,FALSE,,,,,,,,,,,,,,,,,,,,,,,,,,,,,,,
,5fc813d6ae2a8f1263399b2f,627c6f4010be7aadc9f67a02,2022-05-11_21h22.49.839,classification_task,2021.2.3,Win32,59.78000956,627c6715c52fd12f31907bcf,,,,,,,,,,,,,,,,,,,,,,,l,0,1.4356,"[""0.250"",""0.658"",""0.731"",""0.853""]","[1,0,1,1]",0,59,59,59,1,0,1,,,1,FALSE,,,,,,,,,,,,,,,,,,,,,,,,,,,,,,,
,5fc813d6ae2a8f1263399b2f,627c6f4010be7aadc9f67a02,2022-05-11_21h22.49.839,classification_task,2021.2.3,Win32,59.78000956,627c6715c52fd12f31907bcf,,,,,,,,,,,,,,,,,,,,,,,a,1,1.5517,"[""0.453"",""0.414"",""0.897"",""0.954""]","[0,1,1,1]",0,60,60,60,1,0,0,,,1,FALSE,,,,,,,,,,,,,,,,,,,,,,,,,,,,,,,
,5fc813d6ae2a8f1263399b2f,627c6f4010be7aadc9f67a02,2022-05-11_21h22.49.839,classification_task,2021.2.3,Win32,59.78000956,627c6715c52fd12f31907bcf,,,,,,,,,,,,,,,,,,,,,,,l,1,0.6688,"[""0.042"",""0.216"",""0.695"",""0.818""]","[1,1,0,1]",0,61,61,61,1,1,0,,,1,FALSE,,,,,,,,,,,,,,,,,,,,,,,,,,,,,,,
,5fc813d6ae2a8f1263399b2f,627c6f4010be7aadc9f67a02,2022-05-11_21h22.49.839,classification_task,2021.2.3,Win32,59.78000956,627c6715c52fd12f31907bcf,,,,,,,,,,,,,,,,,,,,,,,l,1,0.8183,"[""0.112"",""0.156"",""0.614"",""0.679""]","[1,1,1,0]",0,62,62,62,1,1,1,,,1,FALSE,,,,,,,,,,,,,,,,,,,,,,,,,,,,,,,
,5fc813d6ae2a8f1263399b2f,627c6f4010be7aadc9f67a02,2022-05-11_21h22.49.839,classification_task,2021.2.3,Win32,59.78000956,627c6715c52fd12f31907bcf,,,,,,,,,,,,,,,,,,,,,,,a,1,1.0011,"[""0.250"",""0.510"",""0.453"",""0.853""]","[1,1,0,1]",0,63,63,63,1,0,1,,,1,FALSE,,,,,,,,,,,,,,,,,,,,,,,,,,,,,,,
,5fc813d6ae2a8f1263399b2f,627c6f4010be7aadc9f67a02,2022-05-11_21h22.49.839,classification_task,2021.2.3,Win32,59.78000956,627c6715c52fd12f31907bcf,,,,,,,,,,,,,,,,,,,,,,,,,,,,,,,,,,,,,,,0, ,,0,0,479.8882,0,0,0,0,1,2,1,,,,,,,,,,,,,,,,,,
,5fc813d6ae2a8f1263399b2f,627c6f4010be7aadc9f67a02,2022-05-11_21h22.49.839,classification_task,2021.2.3,Win32,59.78000956,627c6715c52fd12f31907bcf,,,,,,,,,,,,,,,,,,,,,,,,,,,,,,,,,,,,,,,1,  ,,0,1.105232216,487.0597,0,0,0,0,1,2,1,,,,,,,,,,,,,,,,,,
,5fc813d6ae2a8f1263399b2f,627c6f4010be7aadc9f67a02,2022-05-11_21h22.49.839,classification_task,2021.2.3,Win32,59.78000956,627c6715c52fd12f31907bcf,,,,,,,,,,,,,,,,,,,,,,,,,,,,,,,,,,,,,,,2,  ,,0,0,462.0465,0,0,0,0,1,2,1,,,,,,,,,,,,,,,,,,
,5fc813d6ae2a8f1263399b2f,627c6f4010be7aadc9f67a02,2022-05-11_21h22.49.839,classification_task,2021.2.3,Win32,59.78000956,627c6715c52fd12f31907bcf,,,,,,,,,,,,,,,,,,,,,,,,,,,,,,,,,,,,,,,,,,,,,0,0,0,0,1,,1,,,,,,,,,,,,,,,,,,
,5fc813d6ae2a8f1263399b2f,627c6f4010be7aadc9f67a02,2022-05-11_21h22.49.839,classification_task,2021.2.3,Win32,59.78000956,627c6715c52fd12f31907bcf,,,,,,,,,,,,,,,,,,,,,space,7.0242,a,1,4.7837,"[""0.322"",""0.510"",""0.731"",""0.853""]","[0,1,1,1]",0,0,0,0,1,0,1,,,1,FALSE,,,,,,,,,,,,,,,,,,,,,,,,,,,,,,,
,5fc813d6ae2a8f1263399b2f,627c6f4010be7aadc9f67a02,2022-05-11_21h22.49.839,classification_task,2021.2.3,Win32,59.78000956,627c6715c52fd12f31907bcf,,,,,,,,,,,,,,,,,,,,,,,l,1,2.9852,"[""0.042"",""0.216"",""0.344"",""0.818""]","[1,1,0,1]",0,1,1,1,1,1,0,,,1,FALSE,,,,,,,,,,,,,,,,,,,,,,,,,,,,,,,
,5fc813d6ae2a8f1263399b2f,627c6f4010be7aadc9f67a02,2022-05-11_21h22.49.839,classification_task,2021.2.3,Win32,59.78000956,627c6715c52fd12f31907bcf,,,,,,,,,,,,,,,,,,,,,,,l,1,2.9187,"[""0.112"",""0.156"",""0.322"",""0.778""]","[1,1,0,1]",0,2,2,2,1,1,1,,,1,FALSE,,,,,,,,,,,,,,,,,,,,,,,,,,,,,,,
,5fc813d6ae2a8f1263399b2f,627c6f4010be7aadc9f67a02,2022-05-11_21h22.49.839,classification_task,2021.2.3,Win32,59.78000956,627c6715c52fd12f31907bcf,,,,,,,,,,,,,,,,,,,,,,,a,1,2.3515,"[""0.663"",""0.414"",""0.897"",""0.954""]","[0,1,1,1]",0,3,3,3,1,0,0,,,1,FALSE,,,,,,,,,,,,,,,,,,,,,,,,,,,,,,,
,5fc813d6ae2a8f1263399b2f,627c6f4010be7aadc9f67a02,2022-05-11_21h22.49.839,classification_task,2021.2.3,Win32,59.78000956,627c6715c52fd12f31907bcf,,,,,,,,,,,,,,,,,,,,,,,l,1,1.516,"[""0.354"",""0.156"",""0.614"",""0.778""]","[0,1,1,1]",0,4,4,4,1,1,1,,,1,FALSE,,,,,,,,,,,,,,,,,,,,,,,,,,,,,,,
,5fc813d6ae2a8f1263399b2f,627c6f4010be7aadc9f67a02,2022-05-11_21h22.49.839,classification_task,2021.2.3,Win32,59.78000956,627c6715c52fd12f31907bcf,,,,,,,,,,,,,,,,,,,,,,,a,1,2.1181,"[""0.286"",""0.414"",""0.373"",""0.954""]","[1,1,0,1]",0,5,5,5,1,0,0,,,1,FALSE,,,,,,,,,,,,,,,,,,,,,,,,,,,,,,,
,5fc813d6ae2a8f1263399b2f,627c6f4010be7aadc9f67a02,2022-05-11_21h22.49.839,classification_task,2021.2.3,Win32,59.78000956,627c6715c52fd12f31907bcf,,,,,,,,,,,,,,,,,,,,,,,l,1,1.618,"[""0.042"",""0.695"",""0.558"",""0.818""]","[1,0,1,1]",0,6,6,6,1,1,0,,,1,FALSE,,,,,,,,,,,,,,,,,,,,,,,,,,,,,,,
,5fc813d6ae2a8f1263399b2f,627c6f4010be7aadc9f67a02,2022-05-11_21h22.49.839,classification_task,2021.2.3,Win32,59.78000956,627c6715c52fd12f31907bcf,,,,,,,,,,,,,,,,,,,,,,,a,1,1.2508,"[""0.250"",""0.510"",""0.731"",""0.373""]","[1,1,1,0]",0,7,7,7,1,0,1,,,1,FALSE,,,,,,,,,,,,,,,,,,,,,,,,,,,,,,,
,5fc813d6ae2a8f1263399b2f,627c6f4010be7aadc9f67a02,2022-05-11_21h22.49.839,classification_task,2021.2.3,Win32,59.78000956,627c6715c52fd12f31907bcf,,,,,,,,,,,,,,,,,,,,,,,l,1,0.7015,"[""0.112"",""0.156"",""0.614"",""0.679""]","[1,1,1,0]",0,8,8,8,1,1,1,,,1,FALSE,,,,,,,,,,,,,,,,,,,,,,,,,,,,,,,
,5fc813d6ae2a8f1263399b2f,627c6f4010be7aadc9f67a02,2022-05-11_21h22.49.839,classification_task,2021.2.3,Win32,59.78000956,627c6715c52fd12f31907bcf,,,,,,,,,,,,,,,,,,,,,,,a,1,0.9356,"[""0.250"",""0.510"",""0.685"",""0.853""]","[1,1,0,1]",0,9,9,9,1,0,1,,,1,FALSE,,,,,,,,,,,,,,,,,,,,,,,,,,,,,,,
,5fc813d6ae2a8f1263399b2f,627c6f4010be7aadc9f67a02,2022-05-11_21h22.49.839,classification_task,2021.2.3,Win32,59.78000956,627c6715c52fd12f31907bcf,,,,,,,,,,,,,,,,,,,,,,,a,1,1.0695,"[""0.250"",""0.694"",""0.731"",""0.853""]","[1,0,1,1]",0,10,10,10,1,0,1,,,1,FALSE,,,,,,,,,,,,,,,,,,,,,,,,,,,,,,,
,5fc813d6ae2a8f1263399b2f,627c6f4010be7aadc9f67a02,2022-05-11_21h22.49.839,classification_task,2021.2.3,Win32,59.78000956,627c6715c52fd12f31907bcf,,,,,,,,,,,,,,,,,,,,,,,a,1,1.4515,"[""0.286"",""0.414"",""0.897"",""0.656""]","[1,1,1,0]",0,11,11,11,1,0,0,,,1,FALSE,,,,,,,,,,,,,,,,,,,,,,,,,,,,,,,
,5fc813d6ae2a8f1263399b2f,627c6f4010be7aadc9f67a02,2022-05-11_21h22.49.839,classification_task,2021.2.3,Win32,59.78000956,627c6715c52fd12f31907bcf,,,,,,,,,,,,,,,,,,,,,,,l,1,1.0016,"[""0.042"",""0.216"",""0.558"",""0.658""]","[1,1,1,0]",0,12,12,12,1,1,0,,,1,FALSE,,,,,,,,,,,,,,,,,,,,,,,,,,,,,,,
,5fc813d6ae2a8f1263399b2f,627c6f4010be7aadc9f67a02,2022-05-11_21h22.49.839,classification_task,2021.2.3,Win32,59.78000956,627c6715c52fd12f31907bcf,,,,,,,,,,,,,,,,,,,,,,,a,0,1.4687,"[""0.373"",""0.216"",""0.558"",""0.818""]","[0,1,1,1]",0,13,13,13,1,1,0,,,1,FALSE,,,,,,,,,,,,,,,,,,,,,,,,,,,,,,,
,5fc813d6ae2a8f1263399b2f,627c6f4010be7aadc9f67a02,2022-05-11_21h22.49.839,classification_task,2021.2.3,Win32,59.78000956,627c6715c52fd12f31907bcf,,,,,,,,,,,,,,,,,,,,,,,a,1,1.8181,"[""0.286"",""0.695"",""0.897"",""0.954""]","[1,0,1,1]",0,14,14,14,1,0,0,,,1,FALSE,,,,,,,,,,,,,,,,,,,,,,,,,,,,,,,
,5fc813d6ae2a8f1263399b2f,627c6f4010be7aadc9f67a02,2022-05-11_21h22.49.839,classification_task,2021.2.3,Win32,59.78000956,627c6715c52fd12f31907bcf,,,,,,,,,,,,,,,,,,,,,,,l,1,1.1166,"[""0.112"",""0.658"",""0.614"",""0.778""]","[1,0,1,1]",0,15,15,15,1,1,1,,,1,FALSE,,,,,,,,,,,,,,,,,,,,,,,,,,,,,,,
,5fc813d6ae2a8f1263399b2f,627c6f4010be7aadc9f67a02,2022-05-11_21h22.49.839,classification_task,2021.2.3,Win32,59.78000956,627c6715c52fd12f31907bcf,,,,,,,,,,,,,,,,,,,,,,,l,1,0.7021,"[""0.112"",""0.156"",""0.694"",""0.778""]","[1,1,0,1]",0,16,16,16,1,1,1,,,1,FALSE,,,,,,,,,,,,,,,,,,,,,,,,,,,,,,,
,5fc813d6ae2a8f1263399b2f,627c6f4010be7aadc9f67a02,2022-05-11_21h22.49.839,classification_task,2021.2.3,Win32,59.78000956,627c6715c52fd12f31907bcf,,,,,,,,,,,,,,,,,,,,,,,l,1,0.6344,"[""0.112"",""0.156"",""0.614"",""0.322""]","[1,1,1,0]",0,17,17,17,1,1,1,,,1,FALSE,,,,,,,,,,,,,,,,,,,,,,,,,,,,,,,
,5fc813d6ae2a8f1263399b2f,627c6f4010be7aadc9f67a02,2022-05-11_21h22.49.839,classification_task,2021.2.3,Win32,59.78000956,627c6715c52fd12f31907bcf,,,,,,,,,,,,,,,,,,,,,,,l,1,0.6995,"[""0.343"",""0.156"",""0.614"",""0.778""]","[0,1,1,1]",0,18,18,18,1,1,1,,,1,FALSE,,,,,,,,,,,,,,,,,,,,,,,,,,,,,,,
,5fc813d6ae2a8f1263399b2f,627c6f4010be7aadc9f67a02,2022-05-11_21h22.49.839,classification_task,2021.2.3,Win32,59.78000956,627c6715c52fd12f31907bcf,,,,,,,,,,,,,,,,,,,,,,,a,1,1.451,"[""0.448"",""0.414"",""0.897"",""0.954""]","[0,1,1,1]",0,19,19,19,1,0,0,,,1,FALSE,,,,,,,,,,,,,,,,,,,,,,,,,,,,,,,
,5fc813d6ae2a8f1263399b2f,627c6f4010be7aadc9f67a02,2022-05-11_21h22.49.839,classification_task,2021.2.3,Win32,59.78000956,627c6715c52fd12f31907bcf,,,,,,,,,,,,,,,,,,,,,,,a,1,1.3835,"[""0.250"",""0.510"",""0.663"",""0.853""]","[1,1,0,1]",0,20,20,20,1,0,1,,,1,FALSE,,,,,,,,,,,,,,,,,,,,,,,,,,,,,,,
,5fc813d6ae2a8f1263399b2f,627c6f4010be7aadc9f67a02,2022-05-11_21h22.49.839,classification_task,2021.2.3,Win32,59.78000956,627c6715c52fd12f31907bcf,,,,,,,,,,,,,,,,,,,,,,,a,1,1.2852,"[""0.250"",""0.685"",""0.731"",""0.853""]","[1,0,1,1]",0,21,21,21,1,0,1,,,1,FALSE,,,,,,,,,,,,,,,,,,,,,,,,,,,,,,,
,5fc813d6ae2a8f1263399b2f,627c6f4010be7aadc9f67a02,2022-05-11_21h22.49.839,classification_task,2021.2.3,Win32,59.78000956,627c6715c52fd12f31907bcf,,,,,,,,,,,,,,,,,,,,,,,l,1,1.3007,"[""0.042"",""0.216"",""0.679"",""0.818""]","[1,1,0,1]",0,22,22,22,1,1,0,,,1,FALSE,,,,,,,,,,,,,,,,,,,,,,,,,,,,,,,
,5fc813d6ae2a8f1263399b2f,627c6f4010be7aadc9f67a02,2022-05-11_21h22.49.839,classification_task,2021.2.3,Win32,59.78000956,627c6715c52fd12f31907bcf,,,,,,,,,,,,,,,,,,,,,,,a,0,2.903,"[""0.453"",""0.216"",""0.558"",""0.818""]","[0,1,1,1]",0,23,23,23,1,1,0,,,1,FALSE,,,,,,,,,,,,,,,,,,,,,,,,,,,,,,,
,5fc813d6ae2a8f1263399b2f,627c6f4010be7aadc9f67a02,2022-05-11_21h22.49.839,classification_task,2021.2.3,Win32,59.78000956,627c6715c52fd12f31907bcf,,,,,,,,,,,,,,,,,,,,,,,a,1,1.1856,"[""0.250"",""0.510"",""0.731"",""0.694""]","[1,1,1,0]",0,24,24,24,1,0,1,,,1,FALSE,,,,,,,,,,,,,,,,,,,,,,,,,,,,,,,
,5fc813d6ae2a8f1263399b2f,627c6f4010be7aadc9f67a02,2022-05-11_21h22.49.839,classification_task,2021.2.3,Win32,59.78000956,627c6715c52fd12f31907bcf,,,,,,,,,,,,,,,,,,,,,,,l,0,3.6708,"[""0.286"",""0.344"",""0.897"",""0.954""]","[1,0,1,1]",0,25,25,25,1,0,0,,,1,FALSE,,,,,,,,,,,,,,,,,,,,,,,,,,,,,,,
,5fc813d6ae2a8f1263399b2f,627c6f4010be7aadc9f67a02,2022-05-11_21h22.49.839,classification_task,2021.2.3,Win32,59.78000956,627c6715c52fd12f31907bcf,,,,,,,,,,,,,,,,,,,,,,,a,0,0.7015,"[""0.042"",""0.663"",""0.558"",""0.818""]","[1,0,1,1]",0,26,26,26,1,1,0,,,1,FALSE,,,,,,,,,,,,,,,,,,,,,,,,,,,,,,,
,5fc813d6ae2a8f1263399b2f,627c6f4010be7aadc9f67a02,2022-05-11_21h22.49.839,classification_task,2021.2.3,Win32,59.78000956,627c6715c52fd12f31907bcf,,,,,,,,,,,,,,,,,,,,,,,a,1,1.1166,"[""0.685"",""0.510"",""0.731"",""0.853""]","[0,1,1,1]",0,27,27,27,1,0,1,,,1,FALSE,,,,,,,,,,,,,,,,,,,,,,,,,,,,,,,
,5fc813d6ae2a8f1263399b2f,627c6f4010be7aadc9f67a02,2022-05-11_21h22.49.839,classification_task,2021.2.3,Win32,59.78000956,627c6715c52fd12f31907bcf,,,,,,,,,,,,,,,,,,,,,,,l,1,1.3024,"[""0.112"",""0.344"",""0.614"",""0.778""]","[1,0,1,1]",0,28,28,28,1,1,1,,,1,FALSE,,,,,,,,,,,,,,,,,,,,,,,,,,,,,,,
,5fc813d6ae2a8f1263399b2f,627c6f4010be7aadc9f67a02,2022-05-11_21h22.49.839,classification_task,2021.2.3,Win32,59.78000956,627c6715c52fd12f31907bcf,,,,,,,,,,,,,,,,,,,,,,,l,1,1.5336,"[""0.042"",""0.216"",""0.558"",""0.694""]","[1,1,1,0]",0,29,29,29,1,1,0,,,1,FALSE,,,,,,,,,,,,,,,,,,,,,,,,,,,,,,,
,5fc813d6ae2a8f1263399b2f,627c6f4010be7aadc9f67a02,2022-05-11_21h22.49.839,classification_task,2021.2.3,Win32,59.78000956,627c6715c52fd12f31907bcf,,,,,,,,,,,,,,,,,,,,,,,l,0,2.052,"[""0.286"",""0.414"",""0.354"",""0.954""]","[1,1,0,1]",0,30,30,30,1,0,0,,,1,FALSE,,,,,,,,,,,,,,,,,,,,,,,,,,,,,,,
,5fc813d6ae2a8f1263399b2f,627c6f4010be7aadc9f67a02,2022-05-11_21h22.49.839,classification_task,2021.2.3,Win32,59.78000956,627c6715c52fd12f31907bcf,,,,,,,,,,,,,,,,,,,,,,,a,1,0.9674,"[""0.286"",""0.414"",""0.897"",""0.354""]","[1,1,1,0]",0,31,31,31,1,0,0,,,1,FALSE,,,,,,,,,,,,,,,,,,,,,,,,,,,,,,,
,5fc813d6ae2a8f1263399b2f,627c6f4010be7aadc9f67a02,2022-05-11_21h22.49.839,classification_task,2021.2.3,Win32,59.78000956,627c6715c52fd12f31907bcf,,,,,,,,,,,,,,,,,,,,,,,a,1,0.9006,"[""0.286"",""0.414"",""0.897"",""0.322""]","[1,1,1,0]",0,32,32,32,1,0,0,,,1,FALSE,,,,,,,,,,,,,,,,,,,,,,,,,,,,,,,
,5fc813d6ae2a8f1263399b2f,627c6f4010be7aadc9f67a02,2022-05-11_21h22.49.839,classification_task,2021.2.3,Win32,59.78000956,627c6715c52fd12f31907bcf,,,,,,,,,,,,,,,,,,,,,,,l,1,1.9346,"[""0.112"",""0.156"",""0.354"",""0.778""]","[1,1,0,1]",0,33,33,33,1,1,1,,,1,FALSE,,,,,,,,,,,,,,,,,,,,,,,,,,,,,,,
,5fc813d6ae2a8f1263399b2f,627c6f4010be7aadc9f67a02,2022-05-11_21h22.49.839,classification_task,2021.2.3,Win32,59.78000956,627c6715c52fd12f31907bcf,,,,,,,,,,,,,,,,,,,,,,,l,1,0.7685,"[""0.695"",""0.156"",""0.614"",""0.778""]","[0,1,1,1]",0,34,34,34,1,1,1,,,1,FALSE,,,,,,,,,,,,,,,,,,,,,,,,,,,,,,,
,5fc813d6ae2a8f1263399b2f,627c6f4010be7aadc9f67a02,2022-05-11_21h22.49.839,classification_task,2021.2.3,Win32,59.78000956,627c6715c52fd12f31907bcf,,,,,,,,,,,,,,,,,,,,,,,a,1,2.7685,"[""0.286"",""0.352"",""0.897"",""0.954""]","[1,0,1,1]",0,35,35,35,1,0,0,,,1,FALSE,,,,,,,,,,,,,,,,,,,,,,,,,,,,,,,
,5fc813d6ae2a8f1263399b2f,627c6f4010be7aadc9f67a02,2022-05-11_21h22.49.839,classification_task,2021.2.3,Win32,59.78000956,627c6715c52fd12f31907bcf,,,,,,,,,,,,,,,,,,,,,,,a,1,1.019,"[""0.286"",""0.414"",""0.658"",""0.954""]","[1,1,0,1]",0,36,36,36,1,0,0,,,1,FALSE,,,,,,,,,,,,,,,,,,,,,,,,,,,,,,,
,5fc813d6ae2a8f1263399b2f,627c6f4010be7aadc9f67a02,2022-05-11_21h22.49.839,classification_task,2021.2.3,Win32,59.78000956,627c6715c52fd12f31907bcf,,,,,,,,,,,,,,,,,,,,,,,a,1,1.7509,"[""0.695"",""0.510"",""0.731"",""0.853""]","[0,1,1,1]",0,37,37,37,1,0,1,,,1,FALSE,,,,,,,,,,,,,,,,,,,,,,,,,,,,,,,
,5fc813d6ae2a8f1263399b2f,627c6f4010be7aadc9f67a02,2022-05-11_21h22.49.839,classification_task,2021.2.3,Win32,59.78000956,627c6715c52fd12f31907bcf,,,,,,,,,,,,,,,,,,,,,,,a,1,1.1349,"[""0.250"",""0.510"",""0.656"",""0.853""]","[1,1,0,1]",0,38,38,38,1,0,1,,,1,FALSE,,,,,,,,,,,,,,,,,,,,,,,,,,,,,,,
,5fc813d6ae2a8f1263399b2f,627c6f4010be7aadc9f67a02,2022-05-11_21h22.49.839,classification_task,2021.2.3,Win32,59.78000956,627c6715c52fd12f31907bcf,,,,,,,,,,,,,,,,,,,,,,,a,1,0.6676,"[""0.250"",""0.343"",""0.731"",""0.853""]","[1,0,1,1]",0,39,39,39,1,0,1,,,1,FALSE,,,,,,,,,,,,,,,,,,,,,,,,,,,,,,,
,5fc813d6ae2a8f1263399b2f,627c6f4010be7aadc9f67a02,2022-05-11_21h22.49.839,classification_task,2021.2.3,Win32,59.78000956,627c6715c52fd12f31907bcf,,,,,,,,,,,,,,,,,,,,,,,l,1,1.2162,"[""0.042"",""0.216"",""0.448"",""0.818""]","[1,1,0,1]",0,40,40,40,1,1,0,,,1,FALSE,,,,,,,,,,,,,,,,,,,,,,,,,,,,,,,
,5fc813d6ae2a8f1263399b2f,627c6f4010be7aadc9f67a02,2022-05-11_21h22.49.839,classification_task,2021.2.3,Win32,59.78000956,627c6715c52fd12f31907bcf,,,,,,,,,,,,,,,,,,,,,,,l,1,0.9513,"[""0.042"",""0.344"",""0.558"",""0.818""]","[1,0,1,1]",0,41,41,41,1,1,0,,,1,FALSE,,,,,,,,,,,,,,,,,,,,,,,,,,,,,,,
,5fc813d6ae2a8f1263399b2f,627c6f4010be7aadc9f67a02,2022-05-11_21h22.49.839,classification_task,2021.2.3,Win32,59.78000956,627c6715c52fd12f31907bcf,,,,,,,,,,,,,,,,,,,,,,,a,0,0.9667,"[""0.112"",""0.694"",""0.614"",""0.778""]","[1,0,1,1]",0,42,42,42,1,1,1,,,1,FALSE,,,,,,,,,,,,,,,,,,,,,,,,,,,,,,,
,5fc813d6ae2a8f1263399b2f,627c6f4010be7aadc9f67a02,2022-05-11_21h22.49.839,classification_task,2021.2.3,Win32,59.78000956,627c6715c52fd12f31907bcf,,,,,,,,,,,,,,,,,,,,,,,l,1,1.4002,"[""0.042"",""0.216"",""0.558"",""0.373""]","[1,1,1,0]",0,43,43,43,1,1,0,,,1,FALSE,,,,,,,,,,,,,,,,,,,,,,,,,,,,,,,
,5fc813d6ae2a8f1263399b2f,627c6f4010be7aadc9f67a02,2022-05-11_21h22.49.839,classification_task,2021.2.3,Win32,59.78000956,627c6715c52fd12f31907bcf,,,,,,,,,,,,,,,,,,,,,,,a,0,1.62,"[""0.354"",""0.216"",""0.558"",""0.818""]","[0,1,1,1]",0,44,44,44,1,1,0,,,1,FALSE,,,,,,,,,,,,,,,,,,,,,,,,,,,,,,,
,5fc813d6ae2a8f1263399b2f,627c6f4010be7aadc9f67a02,2022-05-11_21h22.49.839,classification_task,2021.2.3,Win32,59.78000956,627c6715c52fd12f31907bcf,,,,,,,,,,,,,,,,,,,,,,,a,1,2.7011,"[""0.250"",""0.510"",""0.731"",""0.656""]","[1,1,1,0]",0,45,45,45,1,0,1,,,1,FALSE,,,,,,,,,,,,,,,,,,,,,,,,,,,,,,,
,5fc813d6ae2a8f1263399b2f,627c6f4010be7aadc9f67a02,2022-05-11_21h22.49.839,classification_task,2021.2.3,Win32,59.78000956,627c6715c52fd12f31907bcf,,,,,,,,,,,,,,,,,,,,,,,l,1,1.1835,"[""0.112"",""0.156"",""0.614"",""0.679""]","[1,1,1,0]",0,46,46,46,1,1,1,,,1,FALSE,,,,,,,,,,,,,,,,,,,,,,,,,,,,,,,
,5fc813d6ae2a8f1263399b2f,627c6f4010be7aadc9f67a02,2022-05-11_21h22.49.839,classification_task,2021.2.3,Win32,59.78000956,627c6715c52fd12f31907bcf,,,,,,,,,,,,,,,,,,,,,,,a,1,1.3332,"[""0.658"",""0.414"",""0.897"",""0.954""]","[0,1,1,1]",0,47,47,47,1,0,0,,,1,FALSE,,,,,,,,,,,,,,,,,,,,,,,,,,,,,,,
,5fc813d6ae2a8f1263399b2f,627c6f4010be7aadc9f67a02,2022-05-11_21h22.49.839,classification_task,2021.2.3,Win32,59.78000956,627c6715c52fd12f31907bcf,,,,,,,,,,,,,,,,,,,,,,,a,1,3.769,"[""0.250"",""0.510"",""0.343"",""0.853""]","[1,1,0,1]",0,48,48,48,1,0,1,,,1,FALSE,,,,,,,,,,,,,,,,,,,,,,,,,,,,,,,
,5fc813d6ae2a8f1263399b2f,627c6f4010be7aadc9f67a02,2022-05-11_21h22.49.839,classification_task,2021.2.3,Win32,59.78000956,627c6715c52fd12f31907bcf,,,,,,,,,,,,,,,,,,,,,,,l,1,1.9186,"[""0.112"",""0.156"",""0.614"",""0.373""]","[1,1,1,0]",0,49,49,49,1,1,1,,,1,FALSE,,,,,,,,,,,,,,,,,,,,,,,,,,,,,,,
,5fc813d6ae2a8f1263399b2f,627c6f4010be7aadc9f67a02,2022-05-11_21h22.49.839,classification_task,2021.2.3,Win32,59.78000956,627c6715c52fd12f31907bcf,,,,,,,,,,,,,,,,,,,,,,,a,0,2.7028,"[""0.448"",""0.216"",""0.558"",""0.818""]","[0,1,1,1]",0,50,50,50,1,1,0,,,1,FALSE,,,,,,,,,,,,,,,,,,,,,,,,,,,,,,,
,5fc813d6ae2a8f1263399b2f,627c6f4010be7aadc9f67a02,2022-05-11_21h22.49.839,classification_task,2021.2.3,Win32,59.78000956,627c6715c52fd12f31907bcf,,,,,,,,,,,,,,,,,,,,,,,a,1,1.7855,"[""0.695"",""0.414"",""0.897"",""0.954""]","[0,1,1,1]",0,51,51,51,1,0,0,,,1,FALSE,,,,,,,,,,,,,,,,,,,,,,,,,,,,,,,
,5fc813d6ae2a8f1263399b2f,627c6f4010be7aadc9f67a02,2022-05-11_21h22.49.839,classification_task,2021.2.3,Win32,59.78000956,627c6715c52fd12f31907bcf,,,,,,,,,,,,,,,,,,,,,,,a,1,3.2366,"[""0.286"",""0.414"",""0.695"",""0.954""]","[1,1,0,1]",0,52,52,52,1,0,0,,,1,FALSE,,,,,,,,,,,,,,,,,,,,,,,,,,,,,,,
,5fc813d6ae2a8f1263399b2f,627c6f4010be7aadc9f67a02,2022-05-11_21h22.49.839,classification_task,2021.2.3,Win32,59.78000956,627c6715c52fd12f31907bcf,,,,,,,,,,,,,,,,,,,,,,,l,1,1.4847,"[""0.112"",""0.156"",""0.322"",""0.778""]","[1,1,0,1]",0,53,53,53,1,1,1,,,1,FALSE,,,,,,,,,,,,,,,,,,,,,,,,,,,,,,,
,5fc813d6ae2a8f1263399b2f,627c6f4010be7aadc9f67a02,2022-05-11_21h22.49.839,classification_task,2021.2.3,Win32,59.78000956,627c6715c52fd12f31907bcf,,,,,,,,,,,,,,,,,,,,,,,a,1,1.9675,"[""0.286"",""0.453"",""0.897"",""0.954""]","[1,0,1,1]",0,54,54,54,1,0,0,,,1,FALSE,,,,,,,,,,,,,,,,,,,,,,,,,,,,,,,
,5fc813d6ae2a8f1263399b2f,627c6f4010be7aadc9f67a02,2022-05-11_21h22.49.839,classification_task,2021.2.3,Win32,59.78000956,627c6715c52fd12f31907bcf,,,,,,,,,,,,,,,,,,,,,,,a,1,1.3838,"[""0.250"",""0.510"",""0.731"",""0.685""]","[1,1,1,0]",0,55,55,55,1,0,1,,,1,FALSE,,,,,,,,,,,,,,,,,,,,,,,,,,,,,,,
,5fc813d6ae2a8f1263399b2f,627c6f4010be7aadc9f67a02,2022-05-11_21h22.49.839,classification_task,2021.2.3,Win32,59.78000956,627c6715c52fd12f31907bcf,,,,,,,,,,,,,,,,,,,,,,,l,1,0.7834,"[""0.042"",""0.216"",""0.352"",""0.818""]","[1,1,0,1]",0,56,56,56,1,1,0,,,1,FALSE,,,,,,,,,,,,,,,,,,,,,,,,,,,,,,,
,5fc813d6ae2a8f1263399b2f,627c6f4010be7aadc9f67a02,2022-05-11_21h22.49.839,classification_task,2021.2.3,Win32,59.78000956,627c6715c52fd12f31907bcf,,,,,,,,,,,,,,,,,,,,,,,l,1,2.1693,"[""0.042"",""0.373"",""0.558"",""0.818""]","[1,0,1,1]",0,57,57,57,1,1,0,,,1,FALSE,,,,,,,,,,,,,,,,,,,,,,,,,,,,,,,
,5fc813d6ae2a8f1263399b2f,627c6f4010be7aadc9f67a02,2022-05-11_21h22.49.839,classification_task,2021.2.3,Win32,59.78000956,627c6715c52fd12f31907bcf,,,,,,,,,,,,,,,,,,,,,,,a,1,1.3335,"[""0.343"",""0.510"",""0.731"",""0.853""]","[0,1,1,1]",0,58,58,58,1,0,1,,,1,FALSE,,,,,,,,,,,,,,,,,,,,,,,,,,,,,,,
,5fc813d6ae2a8f1263399b2f,627c6f4010be7aadc9f67a02,2022-05-11_21h22.49.839,classification_task,2021.2.3,Win32,59.78000956,627c6715c52fd12f31907bcf,,,,,,,,,,,,,,,,,,,,,,,l,1,1.0498,"[""0.042"",""0.216"",""0.558"",""0.448""]","[1,1,1,0]",0,59,59,59,1,1,0,,,1,FALSE,,,,,,,,,,,,,,,,,,,,,,,,,,,,,,,
,5fc813d6ae2a8f1263399b2f,627c6f4010be7aadc9f67a02,2022-05-11_21h22.49.839,classification_task,2021.2.3,Win32,59.78000956,627c6715c52fd12f31907bcf,,,,,,,,,,,,,,,,,,,,,,,l,1,1.2686,"[""0.448"",""0.156"",""0.614"",""0.778""]","[0,1,1,1]",0,60,60,60,1,1,1,,,1,FALSE,,,,,,,,,,,,,,,,,,,,,,,,,,,,,,,
,5fc813d6ae2a8f1263399b2f,627c6f4010be7aadc9f67a02,2022-05-11_21h22.49.839,classification_task,2021.2.3,Win32,59.78000956,627c6715c52fd12f31907bcf,,,,,,,,,,,,,,,,,,,,,,,l,0,2.0353,"[""0.286"",""0.414"",""0.897"",""0.344""]","[1,1,1,0]",0,61,61,61,1,0,0,,,1,FALSE,,,,,,,,,,,,,,,,,,,,,,,,,,,,,,,
,5fc813d6ae2a8f1263399b2f,627c6f4010be7aadc9f67a02,2022-05-11_21h22.49.839,classification_task,2021.2.3,Win32,59.78000956,627c6715c52fd12f31907bcf,,,,,,,,,,,,,,,,,,,,,,,a,1,2.0172,"[""0.250"",""0.344"",""0.731"",""0.853""]","[1,0,1,1]",0,62,62,62,1,0,1,,,1,FALSE,,,,,,,,,,,,,,,,,,,,,,,,,,,,,,,
,5fc813d6ae2a8f1263399b2f,627c6f4010be7aadc9f67a02,2022-05-11_21h22.49.839,classification_task,2021.2.3,Win32,59.78000956,627c6715c52fd12f31907bcf,,,,,,,,,,,,,,,,,,,,,,,l,1,0.9014,"[""0.112"",""0.656"",""0.614"",""0.778""]","[1,0,1,1]",0,63,63,63,1,1,1,,,1,FALSE,,,,,,,,,,,,,,,,,,,,,,,,,,,,,,,
,5fc813d6ae2a8f1263399b2f,627c6f4010be7aadc9f67a02,2022-05-11_21h22.49.839,classification_task,2021.2.3,Win32,59.78000956,627c6715c52fd12f31907bcf,,,,,,,,,,,,,,,,,,,,,,,,,,,,,,,,,,,,,,,0, ,,0,0,182.8215,0,1,1,1,1,2,2,,,,,,,,,,,,,,,,,,
,5fc813d6ae2a8f1263399b2f,627c6f4010be7aadc9f67a02,2022-05-11_21h22.49.839,classification_task,2021.2.3,Win32,59.78000956,627c6715c52fd12f31907bcf,,,,,,,,,,,,,,,,,,,,,,,,,,,,,,,,,,,,,,,1,  ,,0,0.982755242,185.592,0,1,1,1,1,2,2,,,,,,,,,,,,,,,,,,
,5fc813d6ae2a8f1263399b2f,627c6f4010be7aadc9f67a02,2022-05-11_21h22.49.839,classification_task,2021.2.3,Win32,59.78000956,627c6715c52fd12f31907bcf,,,,,,,,,,,,,,,,,,,,,,,,,,,,,,,,,,,,,,,2,  ,,0,0.149911817,191.8805,0,1,1,1,1,2,2,,,,,,,,,,,,,,,,,,
,5fc813d6ae2a8f1263399b2f,627c6f4010be7aadc9f67a02,2022-05-11_21h22.49.839,classification_task,2021.2.3,Win32,59.78000956,627c6715c52fd12f31907bcf,,,,,,,,,,,,,,,,,,,,,,,,,,,,,,,,,,,,,,,,,,,,,0,1,1,1,1,,2,,,,,,,,,,,,,,,,,,
,5fc813d6ae2a8f1263399b2f,627c6f4010be7aadc9f67a02,2022-05-11_21h22.49.839,classification_task,2021.2.3,Win32,59.78000956,627c6715c52fd12f31907bcf,,,,,,,,,,,,,,,,,,,,,space,1.5683,l,1,4.2197,"[""0.112"",""0.694"",""0.614"",""0.778""]","[1,0,1,1]",0,0,0,0,1,1,1,,,1,FALSE,,,,,,,,,,,,,,,,,,,,,,,,,,,,,,,
,5fc813d6ae2a8f1263399b2f,627c6f4010be7aadc9f67a02,2022-05-11_21h22.49.839,classification_task,2021.2.3,Win32,59.78000956,627c6715c52fd12f31907bcf,,,,,,,,,,,,,,,,,,,,,,,a,0,6.557,"[""0.373"",""0.216"",""0.558"",""0.818""]","[0,1,1,1]",0,1,1,1,1,1,0,,,1,FALSE,,,,,,,,,,,,,,,,,,,,,,,,,,,,,,,
,5fc813d6ae2a8f1263399b2f,627c6f4010be7aadc9f67a02,2022-05-11_21h22.49.839,classification_task,2021.2.3,Win32,59.78000956,627c6715c52fd12f31907bcf,,,,,,,,,,,,,,,,,,,,,,,a,1,1.8195,"[""0.286"",""0.414"",""0.322"",""0.954""]","[1,1,0,1]",0,2,2,2,1,0,0,,,1,FALSE,,,,,,,,,,,,,,,,,,,,,,,,,,,,,,,
,5fc813d6ae2a8f1263399b2f,627c6f4010be7aadc9f67a02,2022-05-11_21h22.49.839,classification_task,2021.2.3,Win32,59.78000956,627c6715c52fd12f31907bcf,,,,,,,,,,,,,,,,,,,,,,,a,1,1.4023,"[""0.354"",""0.414"",""0.897"",""0.954""]","[0,1,1,1]",0,3,3,3,1,0,0,,,1,FALSE,,,,,,,,,,,,,,,,,,,,,,,,,,,,,,,
,5fc813d6ae2a8f1263399b2f,627c6f4010be7aadc9f67a02,2022-05-11_21h22.49.839,classification_task,2021.2.3,Win32,59.78000956,627c6715c52fd12f31907bcf,,,,,,,,,,,,,,,,,,,,,,,l,1,0.8515,"[""0.112"",""0.156"",""0.663"",""0.778""]","[1,1,0,1]",0,4,4,4,1,1,1,,,1,FALSE,,,,,,,,,,,,,,,,,,,,,,,,,,,,,,,
,5fc813d6ae2a8f1263399b2f,627c6f4010be7aadc9f67a02,2022-05-11_21h22.49.839,classification_task,2021.2.3,Win32,59.78000956,627c6715c52fd12f31907bcf,,,,,,,,,,,,,,,,,,,,,,,l,1,0.7015,"[""0.112"",""0.156"",""0.614"",""0.663""]","[1,1,1,0]",0,5,5,5,1,1,1,,,1,FALSE,,,,,,,,,,,,,,,,,,,,,,,,,,,,,,,
,5fc813d6ae2a8f1263399b2f,627c6f4010be7aadc9f67a02,2022-05-11_21h22.49.839,classification_task,2021.2.3,Win32,59.78000956,627c6715c52fd12f31907bcf,,,,,,,,,,,,,,,,,,,,,,,l,1,0.6524,"[""0.042"",""0.216"",""0.558"",""0.663""]","[1,1,1,0]",0,6,6,6,1,1,0,,,1,FALSE,,,,,,,,,,,,,,,,,,,,,,,,,,,,,,,
,5fc813d6ae2a8f1263399b2f,627c6f4010be7aadc9f67a02,2022-05-11_21h22.49.839,classification_task,2021.2.3,Win32,59.78000956,627c6715c52fd12f31907bcf,,,,,,,,,,,,,,,,,,,,,,,a,1,1.1352,"[""0.250"",""0.695"",""0.731"",""0.853""]","[1,0,1,1]",0,7,7,7,1,0,1,,,1,FALSE,,,,,,,,,,,,,,,,,,,,,,,,,,,,,,,
,5fc813d6ae2a8f1263399b2f,627c6f4010be7aadc9f67a02,2022-05-11_21h22.49.839,classification_task,2021.2.3,Win32,59.78000956,627c6715c52fd12f31907bcf,,,,,,,,,,,,,,,,,,,,,,,a,1,1.7028,"[""0.250"",""0.510"",""0.731"",""0.352""]","[1,1,1,0]",0,8,8,8,1,0,1,,,1,FALSE,,,,,,,,,,,,,,,,,,,,,,,,,,,,,,,
,5fc813d6ae2a8f1263399b2f,627c6f4010be7aadc9f67a02,2022-05-11_21h22.49.839,classification_task,2021.2.3,Win32,59.78000956,627c6715c52fd12f31907bcf,,,,,,,,,,,,,,,,,,,,,,,a,1,0.7843,"[""0.286"",""0.414"",""0.897"",""0.658""]","[1,1,1,0]",0,9,9,9,1,0,0,,,1,FALSE,,,,,,,,,,,,,,,,,,,,,,,,,,,,,,,
,5fc813d6ae2a8f1263399b2f,627c6f4010be7aadc9f67a02,2022-05-11_21h22.49.839,classification_task,2021.2.3,Win32,59.78000956,627c6715c52fd12f31907bcf,,,,,,,,,,,,,,,,,,,,,,,l,1,0.7007,"[""0.663"",""0.156"",""0.614"",""0.778""]","[0,1,1,1]",0,10,10,10,1,1,1,,,1,FALSE,,,,,,,,,,,,,,,,,,,,,,,,,,,,,,,
,5fc813d6ae2a8f1263399b2f,627c6f4010be7aadc9f67a02,2022-05-11_21h22.49.839,classification_task,2021.2.3,Win32,59.78000956,627c6715c52fd12f31907bcf,,,,,,,,,,,,,,,,,,,,,,,l,1,2.3866,"[""0.042"",""0.322"",""0.558"",""0.818""]","[1,0,1,1]",0,11,11,11,1,1,0,,,1,FALSE,,,,,,,,,,,,,,,,,,,,,,,,,,,,,,,
,5fc813d6ae2a8f1263399b2f,627c6f4010be7aadc9f67a02,2022-05-11_21h22.49.839,classification_task,2021.2.3,Win32,59.78000956,627c6715c52fd12f31907bcf,,,,,,,,,,,,,,,,,,,,,,,a,1,1.4019,"[""0.286"",""0.685"",""0.897"",""0.954""]","[1,0,1,1]",0,12,12,12,1,0,0,,,1,FALSE,,,,,,,,,,,,,,,,,,,,,,,,,,,,,,,
,5fc813d6ae2a8f1263399b2f,627c6f4010be7aadc9f67a02,2022-05-11_21h22.49.839,classification_task,2021.2.3,Win32,59.78000956,627c6715c52fd12f31907bcf,,,,,,,,,,,,,,,,,,,,,,,a,1,1.3853,"[""0.663"",""0.510"",""0.731"",""0.853""]","[0,1,1,1]",0,13,13,13,1,0,1,,,1,FALSE,,,,,,,,,,,,,,,,,,,,,,,,,,,,,,,
,5fc813d6ae2a8f1263399b2f,627c6f4010be7aadc9f67a02,2022-05-11_21h22.49.839,classification_task,2021.2.3,Win32,59.78000956,627c6715c52fd12f31907bcf,,,,,,,,,,,,,,,,,,,,,,,l,1,0.685,"[""0.042"",""0.216"",""0.373"",""0.818""]","[1,1,0,1]",0,14,14,14,1,1,0,,,1,FALSE,,,,,,,,,,,,,,,,,,,,,,,,,,,,,,,
,5fc813d6ae2a8f1263399b2f,627c6f4010be7aadc9f67a02,2022-05-11_21h22.49.839,classification_task,2021.2.3,Win32,59.78000956,627c6715c52fd12f31907bcf,,,,,,,,,,,,,,,,,,,,,,,a,1,1.6024,"[""0.250"",""0.510"",""0.352"",""0.853""]","[1,1,0,1]",0,15,15,15,1,0,1,,,1,FALSE,,,,,,,,,,,,,,,,,,,,,,,,,,,,,,,
,5fc813d6ae2a8f1263399b2f,627c6f4010be7aadc9f67a02,2022-05-11_21h22.49.839,classification_task,2021.2.3,Win32,59.78000956,627c6715c52fd12f31907bcf,,,,,,,,,,,,,,,,,,,,,,,l,1,0.8683,"[""0.112"",""0.156"",""0.614"",""0.343""]","[1,1,1,0]",0,16,16,16,1,1,1,,,1,FALSE,,,,,,,,,,,,,,,,,,,,,,,,,,,,,,,
,5fc813d6ae2a8f1263399b2f,627c6f4010be7aadc9f67a02,2022-05-11_21h22.49.839,classification_task,2021.2.3,Win32,59.78000956,627c6715c52fd12f31907bcf,,,,,,,,,,,,,,,,,,,,,,,a,1,1.5696,"[""0.286"",""0.694"",""0.897"",""0.954""]","[1,0,1,1]",0,17,17,17,1,0,0,,,1,FALSE,,,,,,,,,,,,,,,,,,,,,,,,,,,,,,,
,5fc813d6ae2a8f1263399b2f,627c6f4010be7aadc9f67a02,2022-05-11_21h22.49.839,classification_task,2021.2.3,Win32,59.78000956,627c6715c52fd12f31907bcf,,,,,,,,,,,,,,,,,,,,,,,l,1,2.4361,"[""0.453"",""0.156"",""0.614"",""0.778""]","[0,1,1,1]",0,18,18,18,1,1,1,,,1,FALSE,,,,,,,,,,,,,,,,,,,,,,,,,,,,,,,
,5fc813d6ae2a8f1263399b2f,627c6f4010be7aadc9f67a02,2022-05-11_21h22.49.839,classification_task,2021.2.3,Win32,59.78000956,627c6715c52fd12f31907bcf,,,,,,,,,,,,,,,,,,,,,,,a,1,1.6197,"[""0.286"",""0.414"",""0.658"",""0.954""]","[1,1,0,1]",0,19,19,19,1,0,0,,,1,FALSE,,,,,,,,,,,,,,,,,,,,,,,,,,,,,,,
,5fc813d6ae2a8f1263399b2f,627c6f4010be7aadc9f67a02,2022-05-11_21h22.49.839,classification_task,2021.2.3,Win32,59.78000956,627c6715c52fd12f31907bcf,,,,,,,,,,,,,,,,,,,,,,,a,1,1.8031,"[""0.250"",""0.510"",""0.731"",""0.354""]","[1,1,1,0]",0,20,20,20,1,0,1,,,1,FALSE,,,,,,,,,,,,,,,,,,,,,,,,,,,,,,,
,5fc813d6ae2a8f1263399b2f,627c6f4010be7aadc9f67a02,2022-05-11_21h22.49.839,classification_task,2021.2.3,Win32,59.78000956,627c6715c52fd12f31907bcf,,,,,,,,,,,,,,,,,,,,,,,l,1,0.8186,"[""0.112"",""0.322"",""0.614"",""0.778""]","[1,0,1,1]",0,21,21,21,1,1,1,,,1,FALSE,,,,,,,,,,,,,,,,,,,,,,,,,,,,,,,
,5fc813d6ae2a8f1263399b2f,627c6f4010be7aadc9f67a02,2022-05-11_21h22.49.839,classification_task,2021.2.3,Win32,59.78000956,627c6715c52fd12f31907bcf,,,,,,,,,,,,,,,,,,,,,,,l,1,0.9515,"[""0.042"",""0.343"",""0.558"",""0.818""]","[1,0,1,1]",0,22,22,22,1,1,0,,,1,FALSE,,,,,,,,,,,,,,,,,,,,,,,,,,,,,,,
,5fc813d6ae2a8f1263399b2f,627c6f4010be7aadc9f67a02,2022-05-11_21h22.49.839,classification_task,2021.2.3,Win32,59.78000956,627c6715c52fd12f31907bcf,,,,,,,,,,,,,,,,,,,,,,,a,1,1.1689,"[""0.250"",""0.373"",""0.731"",""0.853""]","[1,0,1,1]",0,23,23,23,1,0,1,,,1,FALSE,,,,,,,,,,,,,,,,,,,,,,,,,,,,,,,
,5fc813d6ae2a8f1263399b2f,627c6f4010be7aadc9f67a02,2022-05-11_21h22.49.839,classification_task,2021.2.3,Win32,59.78000956,627c6715c52fd12f31907bcf,,,,,,,,,,,,,,,,,,,,,,,a,1,0.8023,"[""0.250"",""0.510"",""0.694"",""0.853""]","[1,1,0,1]",0,24,24,24,1,0,1,,,1,FALSE,,,,,,,,,,,,,,,,,,,,,,,,,,,,,,,
,5fc813d6ae2a8f1263399b2f,627c6f4010be7aadc9f67a02,2022-05-11_21h22.49.839,classification_task,2021.2.3,Win32,59.78000956,627c6715c52fd12f31907bcf,,,,,,,,,,,,,,,,,,,,,,,l,1,0.5518,"[""0.042"",""0.216"",""0.679"",""0.818""]","[1,1,0,1]",0,25,25,25,1,1,0,,,1,FALSE,,,,,,,,,,,,,,,,,,,,,,,,,,,,,,,
,5fc813d6ae2a8f1263399b2f,627c6f4010be7aadc9f67a02,2022-05-11_21h22.49.839,classification_task,2021.2.3,Win32,59.78000956,627c6715c52fd12f31907bcf,,,,,,,,,,,,,,,,,,,,,,,l,1,0.7515,"[""0.112"",""0.156"",""0.354"",""0.778""]","[1,1,0,1]",0,26,26,26,1,1,1,,,1,FALSE,,,,,,,,,,,,,,,,,,,,,,,,,,,,,,,
,5fc813d6ae2a8f1263399b2f,627c6f4010be7aadc9f67a02,2022-05-11_21h22.49.839,classification_task,2021.2.3,Win32,59.78000956,627c6715c52fd12f31907bcf,,,,,,,,,,,,,,,,,,,,,,,a,1,0.8512,"[""0.448"",""0.510"",""0.731"",""0.853""]","[0,1,1,1]",0,27,27,27,1,0,1,,,1,FALSE,,,,,,,,,,,,,,,,,,,,,,,,,,,,,,,
,5fc813d6ae2a8f1263399b2f,627c6f4010be7aadc9f67a02,2022-05-11_21h22.49.839,classification_task,2021.2.3,Win32,59.78000956,627c6715c52fd12f31907bcf,,,,,,,,,,,,,,,,,,,,,,,a,1,1.2683,"[""0.344"",""0.414"",""0.897"",""0.954""]","[0,1,1,1]",0,28,28,28,1,0,0,,,1,FALSE,,,,,,,,,,,,,,,,,,,,,,,,,,,,,,,
,5fc813d6ae2a8f1263399b2f,627c6f4010be7aadc9f67a02,2022-05-11_21h22.49.839,classification_task,2021.2.3,Win32,59.78000956,627c6715c52fd12f31907bcf,,,,,,,,,,,,,,,,,,,,,,,l,1,0.7009,"[""0.042"",""0.216"",""0.558"",""0.354""]","[1,1,1,0]",0,29,29,29,1,1,0,,,1,FALSE,,,,,,,,,,,,,,,,,,,,,,,,,,,,,,,
,5fc813d6ae2a8f1263399b2f,627c6f4010be7aadc9f67a02,2022-05-11_21h22.49.839,classification_task,2021.2.3,Win32,59.78000956,627c6715c52fd12f31907bcf,,,,,,,,,,,,,,,,,,,,,,,l,1,3.6208,"[""0.322"",""0.216"",""0.558"",""0.818""]","[0,1,1,1]",0,30,30,30,1,1,0,,,1,FALSE,,,,,,,,,,,,,,,,,,,,,,,,,,,,,,,
,5fc813d6ae2a8f1263399b2f,627c6f4010be7aadc9f67a02,2022-05-11_21h22.49.839,classification_task,2021.2.3,Win32,59.78000956,627c6715c52fd12f31907bcf,,,,,,,,,,,,,,,,,,,,,,,a,1,0.9179,"[""0.286"",""0.414"",""0.897"",""0.663""]","[1,1,1,0]",0,31,31,31,1,0,0,,,1,FALSE,,,,,,,,,,,,,,,,,,,,,,,,,,,,,,,
,5fc813d6ae2a8f1263399b2f,627c6f4010be7aadc9f67a02,2022-05-11_21h22.49.839,classification_task,2021.2.3,Win32,59.78000956,627c6715c52fd12f31907bcf,,,,,,,,,,,,,,,,,,,,,,,l,1,0.9853,"[""0.042"",""0.448"",""0.558"",""0.818""]","[1,0,1,1]",0,32,32,32,1,1,0,,,1,FALSE,,,,,,,,,,,,,,,,,,,,,,,,,,,,,,,
,5fc813d6ae2a8f1263399b2f,627c6f4010be7aadc9f67a02,2022-05-11_21h22.49.839,classification_task,2021.2.3,Win32,59.78000956,627c6715c52fd12f31907bcf,,,,,,,,,,,,,,,,,,,,,,,l,1,0.8008,"[""0.112"",""0.156"",""0.448"",""0.778""]","[1,1,0,1]",0,33,33,33,1,1,1,,,1,FALSE,,,,,,,,,,,,,,,,,,,,,,,,,,,,,,,
,5fc813d6ae2a8f1263399b2f,627c6f4010be7aadc9f67a02,2022-05-11_21h22.49.839,classification_task,2021.2.3,Win32,59.78000956,627c6715c52fd12f31907bcf,,,,,,,,,,,,,,,,,,,,,,,a,1,0.9365,"[""0.250"",""0.510"",""0.694"",""0.853""]","[1,1,0,1]",0,34,34,34,1,0,1,,,1,FALSE,,,,,,,,,,,,,,,,,,,,,,,,,,,,,,,
,5fc813d6ae2a8f1263399b2f,627c6f4010be7aadc9f67a02,2022-05-11_21h22.49.839,classification_task,2021.2.3,Win32,59.78000956,627c6715c52fd12f31907bcf,,,,,,,,,,,,,,,,,,,,,,,l,1,0.7174,"[""0.042"",""0.216"",""0.685"",""0.818""]","[1,1,0,1]",0,35,35,35,1,1,0,,,1,FALSE,,,,,,,,,,,,,,,,,,,,,,,,,,,,,,,
,5fc813d6ae2a8f1263399b2f,627c6f4010be7aadc9f67a02,2022-05-11_21h22.49.839,classification_task,2021.2.3,Win32,59.78000956,627c6715c52fd12f31907bcf,,,,,,,,,,,,,,,,,,,,,,,a,0,0.8017,"[""0.656"",""0.216"",""0.558"",""0.818""]","[0,1,1,1]",0,36,36,36,1,1,0,,,1,FALSE,,,,,,,,,,,,,,,,,,,,,,,,,,,,,,,
,5fc813d6ae2a8f1263399b2f,627c6f4010be7aadc9f67a02,2022-05-11_21h22.49.839,classification_task,2021.2.3,Win32,59.78000956,627c6715c52fd12f31907bcf,,,,,,,,,,,,,,,,,,,,,,,l,1,1.4694,"[""0.112"",""0.343"",""0.614"",""0.778""]","[1,0,1,1]",0,37,37,37,1,1,1,,,1,FALSE,,,,,,,,,,,,,,,,,,,,,,,,,,,,,,,
,5fc813d6ae2a8f1263399b2f,627c6f4010be7aadc9f67a02,2022-05-11_21h22.49.839,classification_task,2021.2.3,Win32,59.78000956,627c6715c52fd12f31907bcf,,,,,,,,,,,,,,,,,,,,,,,a,1,1.3689,"[""0.250"",""0.694"",""0.731"",""0.853""]","[1,0,1,1]",0,38,38,38,1,0,1,,,1,FALSE,,,,,,,,,,,,,,,,,,,,,,,,,,,,,,,
,5fc813d6ae2a8f1263399b2f,627c6f4010be7aadc9f67a02,2022-05-11_21h22.49.839,classification_task,2021.2.3,Win32,59.78000956,627c6715c52fd12f31907bcf,,,,,,,,,,,,,,,,,,,,,,,l,1,1.4359,"[""0.373"",""0.156"",""0.614"",""0.778""]","[0,1,1,1]",0,39,39,39,1,1,1,,,1,FALSE,,,,,,,,,,,,,,,,,,,,,,,,,,,,,,,
,5fc813d6ae2a8f1263399b2f,627c6f4010be7aadc9f67a02,2022-05-11_21h22.49.839,classification_task,2021.2.3,Win32,59.78000956,627c6715c52fd12f31907bcf,,,,,,,,,,,,,,,,,,,,,,,a,1,2.6862,"[""0.286"",""0.414"",""0.448"",""0.954""]","[1,1,0,1]",0,40,40,40,1,0,0,,,1,FALSE,,,,,,,,,,,,,,,,,,,,,,,,,,,,,,,
,5fc813d6ae2a8f1263399b2f,627c6f4010be7aadc9f67a02,2022-05-11_21h22.49.839,classification_task,2021.2.3,Win32,59.78000956,627c6715c52fd12f31907bcf,,,,,,,,,,,,,,,,,,,,,,,a,1,0.7666,"[""0.373"",""0.414"",""0.897"",""0.954""]","[0,1,1,1]",0,41,41,41,1,0,0,,,1,FALSE,,,,,,,,,,,,,,,,,,,,,,,,,,,,,,,
,5fc813d6ae2a8f1263399b2f,627c6f4010be7aadc9f67a02,2022-05-11_21h22.49.839,classification_task,2021.2.3,Win32,59.78000956,627c6715c52fd12f31907bcf,,,,,,,,,,,,,,,,,,,,,,,a,1,1.8864,"[""0.344"",""0.510"",""0.731"",""0.853""]","[0,1,1,1]",0,42,42,42,1,0,1,,,1,FALSE,,,,,,,,,,,,,,,,,,,,,,,,,,,,,,,
,5fc813d6ae2a8f1263399b2f,627c6f4010be7aadc9f67a02,2022-05-11_21h22.49.839,classification_task,2021.2.3,Win32,59.78000956,627c6715c52fd12f31907bcf,,,,,,,,,,,,,,,,,,,,,,,l,1,0.6349,"[""0.042"",""0.216"",""0.558"",""0.343""]","[1,1,1,0]",0,43,43,43,1,1,0,,,1,FALSE,,,,,,,,,,,,,,,,,,,,,,,,,,,,,,,
,5fc813d6ae2a8f1263399b2f,627c6f4010be7aadc9f67a02,2022-05-11_21h22.49.839,classification_task,2021.2.3,Win32,59.78000956,627c6715c52fd12f31907bcf,,,,,,,,,,,,,,,,,,,,,,,l,1,1.2016,"[""0.112"",""0.156"",""0.614"",""0.354""]","[1,1,1,0]",0,44,44,44,1,1,1,,,1,FALSE,,,,,,,,,,,,,,,,,,,,,,,,,,,,,,,
,5fc813d6ae2a8f1263399b2f,627c6f4010be7aadc9f67a02,2022-05-11_21h22.49.839,classification_task,2021.2.3,Win32,59.78000956,627c6715c52fd12f31907bcf,,,,,,,,,,,,,,,,,,,,,,,a,1,4.5048,"[""0.286"",""0.414"",""0.897"",""0.679""]","[1,1,1,0]",0,45,45,45,1,0,0,,,1,FALSE,,,,,,,,,,,,,,,,,,,,,,,,,,,,,,,
,5fc813d6ae2a8f1263399b2f,627c6f4010be7aadc9f67a02,2022-05-11_21h22.49.839,classification_task,2021.2.3,Win32,59.78000956,627c6715c52fd12f31907bcf,,,,,,,,,,,,,,,,,,,,,,,a,1,0.6013,"[""0.286"",""0.322"",""0.897"",""0.954""]","[1,0,1,1]",0,46,46,46,1,0,0,,,1,FALSE,,,,,,,,,,,,,,,,,,,,,,,,,,,,,,,
,5fc813d6ae2a8f1263399b2f,627c6f4010be7aadc9f67a02,2022-05-11_21h22.49.839,classification_task,2021.2.3,Win32,59.78000956,627c6715c52fd12f31907bcf,,,,,,,,,,,,,,,,,,,,,,,a,1,0.9844,"[""0.250"",""0.510"",""0.731"",""0.453""]","[1,1,1,0]",0,47,47,47,1,0,1,,,1,FALSE,,,,,,,,,,,,,,,,,,,,,,,,,,,,,,,
,5fc813d6ae2a8f1263399b2f,627c6f4010be7aadc9f67a02,2022-05-11_21h22.49.839,classification_task,2021.2.3,Win32,59.78000956,627c6715c52fd12f31907bcf,,,,,,,,,,,,,,,,,,,,,,,a,1,0.7329,"[""0.250"",""0.343"",""0.731"",""0.853""]","[1,0,1,1]",0,48,48,48,1,0,1,,,1,FALSE,,,,,,,,,,,,,,,,,,,,,,,,,,,,,,,
,5fc813d6ae2a8f1263399b2f,627c6f4010be7aadc9f67a02,2022-05-11_21h22.49.839,classification_task,2021.2.3,Win32,59.78000956,627c6715c52fd12f31907bcf,,,,,,,,,,,,,,,,,,,,,,,l,1,0.6338,"[""0.042"",""0.656"",""0.558"",""0.818""]","[1,0,1,1]",0,49,49,49,1,1,0,,,1,FALSE,,,,,,,,,,,,,,,,,,,,,,,,,,,,,,,
,5fc813d6ae2a8f1263399b2f,627c6f4010be7aadc9f67a02,2022-05-11_21h22.49.839,classification_task,2021.2.3,Win32,59.78000956,627c6715c52fd12f31907bcf,,,,,,,,,,,,,,,,,,,,,,,a,1,1.1004,"[""0.286"",""0.414"",""0.343"",""0.954""]","[1,1,0,1]",0,50,50,50,1,0,0,,,1,FALSE,,,,,,,,,,,,,,,,,,,,,,,,,,,,,,,
,5fc813d6ae2a8f1263399b2f,627c6f4010be7aadc9f67a02,2022-05-11_21h22.49.839,classification_task,2021.2.3,Win32,59.78000956,627c6715c52fd12f31907bcf,,,,,,,,,,,,,,,,,,,,,,,l,1,0.8346,"[""0.042"",""0.216"",""0.558"",""0.658""]","[1,1,1,0]",0,51,51,51,1,1,0,,,1,FALSE,,,,,,,,,,,,,,,,,,,,,,,,,,,,,,,
,5fc813d6ae2a8f1263399b2f,627c6f4010be7aadc9f67a02,2022-05-11_21h22.49.839,classification_task,2021.2.3,Win32,59.78000956,627c6715c52fd12f31907bcf,,,,,,,,,,,,,,,,,,,,,,,a,1,1.3688,"[""0.250"",""0.510"",""0.354"",""0.853""]","[1,1,0,1]",0,52,52,52,1,0,1,,,1,FALSE,,,,,,,,,,,,,,,,,,,,,,,,,,,,,,,
,5fc813d6ae2a8f1263399b2f,627c6f4010be7aadc9f67a02,2022-05-11_21h22.49.839,classification_task,2021.2.3,Win32,59.78000956,627c6715c52fd12f31907bcf,,,,,,,,,,,,,,,,,,,,,,,l,1,0.7509,"[""0.344"",""0.156"",""0.614"",""0.778""]","[0,1,1,1]",0,53,53,53,1,1,1,,,1,FALSE,,,,,,,,,,,,,,,,,,,,,,,,,,,,,,,
,5fc813d6ae2a8f1263399b2f,627c6f4010be7aadc9f67a02,2022-05-11_21h22.49.839,classification_task,2021.2.3,Win32,59.78000956,627c6715c52fd12f31907bcf,,,,,,,,,,,,,,,,,,,,,,,a,1,1.0347,"[""0.685"",""0.510"",""0.731"",""0.853""]","[0,1,1,1]",0,54,54,54,1,0,1,,,1,FALSE,,,,,,,,,,,,,,,,,,,,,,,,,,,,,,,
,5fc813d6ae2a8f1263399b2f,627c6f4010be7aadc9f67a02,2022-05-11_21h22.49.839,classification_task,2021.2.3,Win32,59.78000956,627c6715c52fd12f31907bcf,,,,,,,,,,,,,,,,,,,,,,,a,1,0.9848,"[""0.286"",""0.344"",""0.897"",""0.954""]","[1,0,1,1]",0,55,55,55,1,0,0,,,1,FALSE,,,,,,,,,,,,,,,,,,,,,,,,,,,,,,,
,5fc813d6ae2a8f1263399b2f,627c6f4010be7aadc9f67a02,2022-05-11_21h22.49.839,classification_task,2021.2.3,Win32,59.78000956,627c6715c52fd12f31907bcf,,,,,,,,,,,,,,,,,,,,,,,a,0,0.7507,"[""0.695"",""0.216"",""0.558"",""0.818""]","[0,1,1,1]",0,56,56,56,1,1,0,,,1,FALSE,,,,,,,,,,,,,,,,,,,,,,,,,,,,,,,
,5fc813d6ae2a8f1263399b2f,627c6f4010be7aadc9f67a02,2022-05-11_21h22.49.839,classification_task,2021.2.3,Win32,59.78000956,627c6715c52fd12f31907bcf,,,,,,,,,,,,,,,,,,,,,,,l,1,0.718,"[""0.042"",""0.216"",""0.448"",""0.818""]","[1,1,0,1]",0,57,57,57,1,1,0,,,1,FALSE,,,,,,,,,,,,,,,,,,,,,,,,,,,,,,,
,5fc813d6ae2a8f1263399b2f,627c6f4010be7aadc9f67a02,2022-05-11_21h22.49.839,classification_task,2021.2.3,Win32,59.78000956,627c6715c52fd12f31907bcf,,,,,,,,,,,,,,,,,,,,,,,l,1,0.9847,"[""0.112"",""0.343"",""0.614"",""0.778""]","[1,0,1,1]",0,58,58,58,1,1,1,,,1,FALSE,,,,,,,,,,,,,,,,,,,,,,,,,,,,,,,
,5fc813d6ae2a8f1263399b2f,627c6f4010be7aadc9f67a02,2022-05-11_21h22.49.839,classification_task,2021.2.3,Win32,59.78000956,627c6715c52fd12f31907bcf,,,,,,,,,,,,,,,,,,,,,,,a,1,0.8852,"[""0.663"",""0.414"",""0.897"",""0.954""]","[0,1,1,1]",0,59,59,59,1,0,0,,,1,FALSE,,,,,,,,,,,,,,,,,,,,,,,,,,,,,,,
,5fc813d6ae2a8f1263399b2f,627c6f4010be7aadc9f67a02,2022-05-11_21h22.49.839,classification_task,2021.2.3,Win32,59.78000956,627c6715c52fd12f31907bcf,,,,,,,,,,,,,,,,,,,,,,,l,1,1.9026,"[""0.112"",""0.156"",""0.614"",""0.453""]","[1,1,1,0]",0,60,60,60,1,1,1,,,1,FALSE,,,,,,,,,,,,,,,,,,,,,,,,,,,,,,,
,5fc813d6ae2a8f1263399b2f,627c6f4010be7aadc9f67a02,2022-05-11_21h22.49.839,classification_task,2021.2.3,Win32,59.78000956,627c6715c52fd12f31907bcf,,,,,,,,,,,,,,,,,,,,,,,a,1,1.2685,"[""0.250"",""0.510"",""0.731"",""0.322""]","[1,1,1,0]",0,61,61,61,1,0,1,,,1,FALSE,,,,,,,,,,,,,,,,,,,,,,,,,,,,,,,
,5fc813d6ae2a8f1263399b2f,627c6f4010be7aadc9f67a02,2022-05-11_21h22.49.839,classification_task,2021.2.3,Win32,59.78000956,627c6715c52fd12f31907bcf,,,,,,,,,,,,,,,,,,,,,,,a,1,1.253,"[""0.286"",""0.414"",""0.897"",""0.343""]","[1,1,1,0]",0,62,62,62,1,0,0,,,1,FALSE,,,,,,,,,,,,,,,,,,,,,,,,,,,,,,,
,5fc813d6ae2a8f1263399b2f,627c6f4010be7aadc9f67a02,2022-05-11_21h22.49.839,classification_task,2021.2.3,Win32,59.78000956,627c6715c52fd12f31907bcf,,,,,,,,,,,,,,,,,,,,,,,l,1,0.8181,"[""0.112"",""0.156"",""0.354"",""0.778""]","[1,1,0,1]",0,63,63,63,1,1,1,,,1,FALSE,,,,,,,,,,,,,,,,,,,,,,,,,,,,,,,
,5fc813d6ae2a8f1263399b2f,627c6f4010be7aadc9f67a02,2022-05-11_21h22.49.839,classification_task,2021.2.3,Win32,59.78000956,627c6715c52fd12f31907bcf,,,,,,,,,,,,,,,,,,,,,,,,,,,,,,,,,,,,,,,0, ,,0,0,156.3115,0,2,2,2,1,2,3,,,,,,,,,,,,,,,,,,
,5fc813d6ae2a8f1263399b2f,627c6f4010be7aadc9f67a02,2022-05-11_21h22.49.839,classification_task,2021.2.3,Win32,59.78000956,627c6715c52fd12f31907bcf,,,,,,,,,,,,,,,,,,,,,,,,,,,,,,,,,,,,,,,1,  ,,0,0.982755242,160.8006,0,2,2,2,1,2,3,,,,,,,,,,,,,,,,,,
,5fc813d6ae2a8f1263399b2f,627c6f4010be7aadc9f67a02,2022-05-11_21h22.49.839,classification_task,2021.2.3,Win32,59.78000956,627c6715c52fd12f31907bcf,,,,,,,,,,,,,,,,,,,,,,,,,,,,,,,,,,,,,,,2,  ,,0,0,163.3183,0,2,2,2,1,2,3,,,,,,,,,,,,,,,,,,
,5fc813d6ae2a8f1263399b2f,627c6f4010be7aadc9f67a02,2022-05-11_21h22.49.839,classification_task,2021.2.3,Win32,59.78000956,627c6715c52fd12f31907bcf,,,,,,,,,,,,,,,,,,,,,,,,,,,,,,,,,,,,,,,,,,,,,0,2,2,2,1,,3,,,,,,,,,,,,,,,,,,
,5fc813d6ae2a8f1263399b2f,627c6f4010be7aadc9f67a02,2022-05-11_21h22.49.839,classification_task,2021.2.3,Win32,59.78000956,627c6715c52fd12f31907bcf,,,,,,,,,,,,,,,,,,,,,,,,,,,,,,,,,,,,,,,,,,,,,,,,,,,,,I believe the aid is a competent performer,,0.7,0,2,874.6566,0,0,0,0,1,0,,,,,
,5fc813d6ae2a8f1263399b2f,627c6f4010be7aadc9f67a02,2022-05-11_21h22.49.839,classification_task,2021.2.3,Win32,59.78000956,627c6715c52fd12f31907bcf,,,,,,,,,,,,,,,,,,,,,,,,,,,,,,,,,,,,,,,,,,,,,,,,,,,,,I trust the aid,,0.7,0,4,873.0349,0,0,0,0,1,0,,,,,
,5fc813d6ae2a8f1263399b2f,627c6f4010be7aadc9f67a02,2022-05-11_21h22.49.839,classification_task,2021.2.3,Win32,59.78000956,627c6715c52fd12f31907bcf,,,,,,,,,,,,,,,,,,,,,,,,,,,,,,,,,,,,,,,,,,,,,,,,,,,,,I have confidence in the advice given by the aid,,0.7,0,4,880.8002,0,0,0,0,1,0,,,,,
,5fc813d6ae2a8f1263399b2f,627c6f4010be7aadc9f67a02,2022-05-11_21h22.49.839,classification_task,2021.2.3,Win32,59.78000956,627c6715c52fd12f31907bcf,,,,,,,,,,,,,,,,,,,,,,,,,,,,,,,,,,,,,,,,,,,,,,,,,,,,,I can depend on the aid,,0.7,0,3,883.5926,0,0,0,0,1,0,,,,,
,5fc813d6ae2a8f1263399b2f,627c6f4010be7aadc9f67a02,2022-05-11_21h22.49.839,classification_task,2021.2.3,Win32,59.78000956,627c6715c52fd12f31907bcf,,,,,,,,,,,,,,,,,,,,,,,,,,,,,,,,,,,,,,,,,,,,,,,,,,,,,I can rely on the aid to behave in consistent ways,,0.7,0,4,886.3525,0,0,0,0,1,0,,,,,
,5fc813d6ae2a8f1263399b2f,627c6f4010be7aadc9f67a02,2022-05-11_21h22.49.839,classification_task,2021.2.3,Win32,59.78000956,627c6715c52fd12f31907bcf,,,,,,,,,,,,,,,,,,,,,,,,,,,,,,,,,,,,,,,,,,,,,,,,,,,,,I can rely on the aid to do its best every time I take its advice,,0.7,0,4,888.1245,0,0,0,0,1,0,,,,,
,5fc813d6ae2a8f1263399b2f,627c6f4010be7aadc9f67a02,2022-05-11_21h22.49.839,classification_task,2021.2.3,Win32,59.78000956,627c6715c52fd12f31907bcf,,,,,,,,,,,,,,,,,,,,,,,,,,,,,,,,,,,,,,,,,,,,,,,,,,,,,"On trials you completed with assistance from the aid, how frequently did you think the aid was correct?",,0.7,0,90%,,0,0,0,0,1,0,,,,,
,5fc813d6ae2a8f1263399b2f,627c6f4010be7aadc9f67a02,2022-05-11_21h22.49.839,classification_task,2021.2.3,Win32,59.78000956,627c6715c52fd12f31907bcf,,,,,,,,,,,,,,,,,,,,,,,,,,,,,,,,,,,,,,,,,,,,,,,,,,,,,"On trials you completed without the aid, how frequently did you think you were correct?",,0.7,0,75%,,0,0,0,0,1,0,,,,,
,5fc813d6ae2a8f1263399b2f,627c6f4010be7aadc9f67a02,2022-05-11_21h22.49.839,classification_task,2021.2.3,Win32,59.78000956,627c6715c52fd12f31907bcf,,,,,,,,,,,,,,,,,,,,,,,,,,,,,,,,,,,,,,,,,,,,,,,,,,,,,,,,,,,0,0,0,0,1,,,,,,
,5fc813d6ae2a8f1263399b2f,627c6f4010be7aadc9f67a02,2022-05-11_21h22.49.839,classification_task,2021.2.3,Win32,59.78000956,627c6715c52fd12f31907bcf,,,,,,,,,,,,,,,,,,,,,,,,,,,,,,,,,,,,,,,,,,,,,,,,,,,,,,,,,,,,,,,,,space,8.9302,912.3306,,
,5fc813d6ae2a8f1263399b2f,627c6f4010be7aadc9f67a02,2022-05-11_21h22.49.839,classification_task,2021.2.3,Win32,59.78000956,627c6715c52fd12f31907bcf,,,,,,,,,,,,,,,,,,,,,,,,,,,,,,,,,,,,,,,,,,,,,,,,,,,,,,,,,,,,,,,,,,,,"Mozilla/5.0 (Windows NT 10.0; Win64; x64) AppleWebKit/537.36 (KHTML, like Gecko) Chrome/101.0.4951.54 Safari/537.36",
,5fc813d6ae2a8f1263399b2f,627c6f4010be7aadc9f67a02,2022-05-11_21h22.49.839,classification_task,2021.2.3,Win32,59.78000956,627c6715c52fd12f31907bcf,,,,,,,,,,,,,,,,,,,,,,,,,,,,,,,,,,,,,,,,,,,,,,,,,,,,,,,,,,,,,,,,,,,,,FADING
