usingWebGL,participant,session,date,expName,psychopyVersion,OS,frameRate,study_id,signatures_friend,signatures_foe,band_ranges_top,band_ranges_bottom,formitemText,formtype,formundefined,formitemWidth,formindex,formresponse,formrt,key_resp_2.keys,key_resp_2.rt,tute_resp.keys,tute_resp.rt,tutorial.thisRepN,tutorial.thisTrialN,tutorial.thisN,tutorial.thisIndex,tutorial.ran,key_resp_4.keys,key_resp_4.rt,key_resp.keys,key_resp.corr,key_resp.rt,lines_presented,is_signal_presented,trials.thisRepN,trials.thisTrialN,trials.thisN,trials.thisIndex,trials.ran,vessel,active_band,lines,is_signal,supported_pos,catch_trial,debrief_formindex,debrief_formitemText,debrief_formtype,debrief_formitemWidth,debrief_formresponse,debrief_formrt,phases.thisRepN,phases.thisTrialN,phases.thisN,phases.thisIndex,phases.ran,phases.order,phase,key_resp_3.keys,trustitemText,trusttype,trustitemWidth,trustindex,trustresponse,trustrt,support_status.thisRepN,support_status.thisTrialN,support_status.thisN,support_status.thisIndex,support_status.ran,support_status.order,key_resp_5.keys,key_resp_5.rt,globalClockTime,userAgent,manualCondition
TRUE,5fcabc958a2a9d78cd4b0d4f,627c762f3015f0b9b9c103fe,2022-05-11_22h51.44.516,classification_task,2021.2.3,Win32,58.9935697,627c6715c52fd12f31907bd0,,,,,,,,,,,,,,,,,,,,,,,,,,,,,,,,,,,,,,,,,,,,,,,,,,,,,,,,,,,,,,,,,,,,,
,5fcabc958a2a9d78cd4b0d4f,627c762f3015f0b9b9c103fe,2022-05-11_22h51.44.516,classification_task,2021.2.3,Win32,58.9935697,627c6715c52fd12f31907bd0,"[[""0.297"",""0.491"",""0.592"",""0.888""],[""0.207"",""0.383"",""0.722"",""0.962""]]","[[""0.153"",""0.241"",""0.449"",""0.781""],[""0.041"",""0.331"",""0.532"",""0.817""]]","[1,10]","[100,1000]",Video game experience,,,0.7,0,,,,,,,,,,,,,,,,,,,,,,,,,,,,,,,,,,,,,,,,,,,,,,,,,,,,,,,,,,,,
,5fcabc958a2a9d78cd4b0d4f,627c762f3015f0b9b9c103fe,2022-05-11_22h51.44.516,classification_task,2021.2.3,Win32,58.9935697,627c6715c52fd12f31907bd0,,,,,Approximately how many hours did you spend playing video games in the last week?,,,0.7,0,0,,,,,,,,,,,,,,,,,,,,,,,,,,,,,,,,,,,,,,,,,,,,,,,,,,,,,,,,,,,
,5fcabc958a2a9d78cd4b0d4f,627c762f3015f0b9b9c103fe,2022-05-11_22h51.44.516,classification_task,2021.2.3,Win32,58.9935697,627c6715c52fd12f31907bd0,,,,,"Which game did you play the most this year? (Enter ""None"" if you didn't play any)",,,0.7,0,None,,,,,,,,,,,,,,,,,,,,,,,,,,,,,,,,,,,,,,,,,,,,,,,,,,,,,,,,,,,
,5fcabc958a2a9d78cd4b0d4f,627c762f3015f0b9b9c103fe,2022-05-11_22h51.44.516,classification_task,2021.2.3,Win32,58.9935697,627c6715c52fd12f31907bd0,,,,,Visual perception,,,0.7,0,,,,,,,,,,,,,,,,,,,,,,,,,,,,,,,,,,,,,,,,,,,,,,,,,,,,,,,,,,,,
,5fcabc958a2a9d78cd4b0d4f,627c762f3015f0b9b9c103fe,2022-05-11_22h51.44.516,classification_task,2021.2.3,Win32,58.9935697,627c6715c52fd12f31907bd0,,,,,Do you have any form of color blindness?,,,0.7,0,No,10.7075,,,,,,,,,,,,,,,,,,,,,,,,,,,,,,,,,,,,,,,,,,,,,,,,,,,,,,,,,,
,5fcabc958a2a9d78cd4b0d4f,627c762f3015f0b9b9c103fe,2022-05-11_22h51.44.516,classification_task,2021.2.3,Win32,58.9935697,627c6715c52fd12f31907bd0,,,,,Do you use software to change the colour temperature of your screen (e.g. f.lux)?,,,0.7,0,No,12.0137,,,,,,,,,,,,,,,,,,,,,,,,,,,,,,,,,,,,,,,,,,,,,,,,,,,,,,,,,,
,5fcabc958a2a9d78cd4b0d4f,627c762f3015f0b9b9c103fe,2022-05-11_22h51.44.516,classification_task,2021.2.3,Win32,58.9935697,627c6715c52fd12f31907bd0,,,,,,,,,,,,space,19.1531,space,10.4142,0,0,0,0,1,,,,,,,,,,,,,,,,,,,,,,,,,,,,,,,,,,,,,,,,,,,,,,,,,
,5fcabc958a2a9d78cd4b0d4f,627c762f3015f0b9b9c103fe,2022-05-11_22h51.44.516,classification_task,2021.2.3,Win32,58.9935697,627c6715c52fd12f31907bd0,,,,,,,,,,,,,,space,10.3825,1,0,1,0,1,,,,,,,,,,,,,,,,,,,,,,,,,,,,,,,,,,,,,,,,,,,,,,,,,
,5fcabc958a2a9d78cd4b0d4f,627c762f3015f0b9b9c103fe,2022-05-11_22h51.44.516,classification_task,2021.2.3,Win32,58.9935697,627c6715c52fd12f31907bd0,,,,,,,,,,,,,,space,51.1258,2,0,2,0,1,,,,,,,,,,,,,,,,,,,,,,,,,,,,,,,,,,,,,,,,,,,,,,,,,
,5fcabc958a2a9d78cd4b0d4f,627c762f3015f0b9b9c103fe,2022-05-11_22h51.44.516,classification_task,2021.2.3,Win32,58.9935697,627c6715c52fd12f31907bd0,,,,,,,,,,,,,,space,4.0986,3,0,3,0,1,,,,,,,,,,,,,,,,,,,,,,,,,,,,,,,,,,,,,,,,,,,,,,,,,
,5fcabc958a2a9d78cd4b0d4f,627c762f3015f0b9b9c103fe,2022-05-11_22h51.44.516,classification_task,2021.2.3,Win32,58.9935697,627c6715c52fd12f31907bd0,,,,,,,,,,,,,,space,9.0144,4,0,4,0,1,,,,,,,,,,,,,,,,,,,,,,,,,,,,,,,,,,,,,,,,,,,,,,,,,
,5fcabc958a2a9d78cd4b0d4f,627c762f3015f0b9b9c103fe,2022-05-11_22h51.44.516,classification_task,2021.2.3,Win32,58.9935697,627c6715c52fd12f31907bd0,,,,,,,,,,,,,,,,,,,,,space,8.7821,l,1,3.9045,"[""0.153"",""0.650"",""0.449"",""0.781""]","[1,0,1,1]",0,0,0,0,1,1,0,,,1,FALSE,,,,,,,,,,,,,,,,,,,,,,,,,,,,,,,
,5fcabc958a2a9d78cd4b0d4f,627c762f3015f0b9b9c103fe,2022-05-11_22h51.44.516,classification_task,2021.2.3,Win32,58.9935697,627c6715c52fd12f31907bd0,,,,,,,,,,,,,,,,,,,,,,,l,0,3.2802,"[""0.207"",""0.091"",""0.722"",""0.962""]","[1,0,1,1]",0,1,1,1,1,0,1,,,1,FALSE,,,,,,,,,,,,,,,,,,,,,,,,,,,,,,,
,5fcabc958a2a9d78cd4b0d4f,627c762f3015f0b9b9c103fe,2022-05-11_22h51.44.516,classification_task,2021.2.3,Win32,58.9935697,627c6715c52fd12f31907bd0,,,,,,,,,,,,,,,,,,,,,,,l,1,4.6638,"[""0.041"",""0.331"",""0.532"",""0.100""]","[1,1,1,0]",0,2,2,2,1,1,1,,,1,FALSE,,,,,,,,,,,,,,,,,,,,,,,,,,,,,,,
,5fcabc958a2a9d78cd4b0d4f,627c762f3015f0b9b9c103fe,2022-05-11_22h51.44.516,classification_task,2021.2.3,Win32,58.9935697,627c6715c52fd12f31907bd0,,,,,,,,,,,,,,,,,,,,,,,l,0,2.4418,"[""0.103"",""0.491"",""0.592"",""0.888""]","[0,1,1,1]",0,3,3,3,1,0,0,,,1,FALSE,,,,,,,,,,,,,,,,,,,,,,,,,,,,,,,
,5fcabc958a2a9d78cd4b0d4f,627c762f3015f0b9b9c103fe,2022-05-11_22h51.44.516,classification_task,2021.2.3,Win32,58.9935697,627c6715c52fd12f31907bd0,,,,,,,,,,,,,,,,,,,,,,,a,1,3.9083,"[""0.207"",""0.383"",""0.669"",""0.962""]","[1,1,0,1]",0,4,4,4,1,0,1,,,1,FALSE,,,,,,,,,,,,,,,,,,,,,,,,,,,,,,,
,5fcabc958a2a9d78cd4b0d4f,627c762f3015f0b9b9c103fe,2022-05-11_22h51.44.516,classification_task,2021.2.3,Win32,58.9935697,627c6715c52fd12f31907bd0,,,,,,,,,,,,,,,,,,,,,,,,0,,"[""0.153"",""0.241"",""0.100"",""0.781""]","[1,1,0,1]",0,5,5,5,1,1,0,,,1,FALSE,,,,,,,,,,,,,,,,,,,,,,,,,,,,,,,
,5fcabc958a2a9d78cd4b0d4f,627c762f3015f0b9b9c103fe,2022-05-11_22h51.44.516,classification_task,2021.2.3,Win32,58.9935697,627c6715c52fd12f31907bd0,,,,,,,,,,,,,,,,,,,,,,,a,0,7.8634,"[""0.683"",""0.331"",""0.532"",""0.817""]","[0,1,1,1]",0,6,6,6,1,1,1,,,1,FALSE,,,,,,,,,,,,,,,,,,,,,,,,,,,,,,,
,5fcabc958a2a9d78cd4b0d4f,627c762f3015f0b9b9c103fe,2022-05-11_22h51.44.516,classification_task,2021.2.3,Win32,58.9935697,627c6715c52fd12f31907bd0,,,,,,,,,,,,,,,,,,,,,,,,0,,"[""0.207"",""0.383"",""0.722"",""0.100""]","[1,1,1,0]",0,7,7,7,1,0,1,,,1,FALSE,,,,,,,,,,,,,,,,,,,,,,,,,,,,,,,
,5fcabc958a2a9d78cd4b0d4f,627c762f3015f0b9b9c103fe,2022-05-11_22h51.44.516,classification_task,2021.2.3,Win32,58.9935697,627c6715c52fd12f31907bd0,,,,,,,,,,,,,,,,,,,,,,,a,1,8.3924,"[""0.297"",""0.491"",""0.675"",""0.888""]","[1,1,0,1]",0,8,8,8,1,0,0,,,1,FALSE,,,,,,,,,,,,,,,,,,,,,,,,,,,,,,,
,5fcabc958a2a9d78cd4b0d4f,627c762f3015f0b9b9c103fe,2022-05-11_22h51.44.516,classification_task,2021.2.3,Win32,58.9935697,627c6715c52fd12f31907bd0,,,,,,,,,,,,,,,,,,,,,,,a,1,7.09,"[""0.675"",""0.383"",""0.722"",""0.962""]","[0,1,1,1]",0,9,9,9,1,0,1,,,1,FALSE,,,,,,,,,,,,,,,,,,,,,,,,,,,,,,,
,5fcabc958a2a9d78cd4b0d4f,627c762f3015f0b9b9c103fe,2022-05-11_22h51.44.516,classification_task,2021.2.3,Win32,58.9935697,627c6715c52fd12f31907bd0,,,,,,,,,,,,,,,,,,,,,,,l,1,4.3832,"[""0.041"",""0.331"",""0.683"",""0.817""]","[1,1,0,1]",0,10,10,10,1,1,1,,,1,FALSE,,,,,,,,,,,,,,,,,,,,,,,,,,,,,,,
,5fcabc958a2a9d78cd4b0d4f,627c762f3015f0b9b9c103fe,2022-05-11_22h51.44.516,classification_task,2021.2.3,Win32,58.9935697,627c6715c52fd12f31907bd0,,,,,,,,,,,,,,,,,,,,,,,l,1,6.1112,"[""0.091"",""0.241"",""0.449"",""0.781""]","[0,1,1,1]",0,11,11,11,1,1,0,,,1,FALSE,,,,,,,,,,,,,,,,,,,,,,,,,,,,,,,
,5fcabc958a2a9d78cd4b0d4f,627c762f3015f0b9b9c103fe,2022-05-11_22h51.44.516,classification_task,2021.2.3,Win32,58.9935697,627c6715c52fd12f31907bd0,,,,,,,,,,,,,,,,,,,,,,,a,1,5.5329,"[""0.297"",""0.491"",""0.592"",""0.653""]","[1,1,1,0]",0,12,12,12,1,0,0,,,1,FALSE,,,,,,,,,,,,,,,,,,,,,,,,,,,,,,,
,5fcabc958a2a9d78cd4b0d4f,627c762f3015f0b9b9c103fe,2022-05-11_22h51.44.516,classification_task,2021.2.3,Win32,58.9935697,627c6715c52fd12f31907bd0,,,,,,,,,,,,,,,,,,,,,,,a,0,4.9948,"[""0.041"",""0.669"",""0.532"",""0.817""]","[1,0,1,1]",0,13,13,13,1,1,1,,,1,FALSE,,,,,,,,,,,,,,,,,,,,,,,,,,,,,,,
,5fcabc958a2a9d78cd4b0d4f,627c762f3015f0b9b9c103fe,2022-05-11_22h51.44.516,classification_task,2021.2.3,Win32,58.9935697,627c6715c52fd12f31907bd0,,,,,,,,,,,,,,,,,,,,,,,l,1,8.2761,"[""0.153"",""0.241"",""0.449"",""0.653""]","[1,1,1,0]",0,14,14,14,1,1,0,,,1,FALSE,,,,,,,,,,,,,,,,,,,,,,,,,,,,,,,
,5fcabc958a2a9d78cd4b0d4f,627c762f3015f0b9b9c103fe,2022-05-11_22h51.44.516,classification_task,2021.2.3,Win32,58.9935697,627c6715c52fd12f31907bd0,,,,,,,,,,,,,,,,,,,,,,,a,1,7.5111,"[""0.297"",""0.669"",""0.592"",""0.888""]","[1,0,1,1]",0,15,15,15,1,0,0,,,1,FALSE,,,,,,,,,,,,,,,,,,,,,,,,,,,,,,,
,5fcabc958a2a9d78cd4b0d4f,627c762f3015f0b9b9c103fe,2022-05-11_22h51.44.516,classification_task,2021.2.3,Win32,58.9935697,627c6715c52fd12f31907bd0,,,,,,,,,,,,,,,,,,,,,,,a,1,5.4788,"[""0.297"",""0.853"",""0.592"",""0.888""]","[1,0,1,1]",0,16,16,16,1,0,0,,,1,FALSE,,,,,,,,,,,,,,,,,,,,,,,,,,,,,,,
,5fcabc958a2a9d78cd4b0d4f,627c762f3015f0b9b9c103fe,2022-05-11_22h51.44.516,classification_task,2021.2.3,Win32,58.9935697,627c6715c52fd12f31907bd0,,,,,,,,,,,,,,,,,,,,,,,l,1,5.7311,"[""0.041"",""0.331"",""0.532"",""0.095""]","[1,1,1,0]",0,17,17,17,1,1,1,,,1,FALSE,,,,,,,,,,,,,,,,,,,,,,,,,,,,,,,
,5fcabc958a2a9d78cd4b0d4f,627c762f3015f0b9b9c103fe,2022-05-11_22h51.44.516,classification_task,2021.2.3,Win32,58.9935697,627c6715c52fd12f31907bd0,,,,,,,,,,,,,,,,,,,,,,,l,1,6.9445,"[""0.153"",""0.650"",""0.449"",""0.781""]","[1,0,1,1]",0,18,18,18,1,1,0,,,1,FALSE,,,,,,,,,,,,,,,,,,,,,,,,,,,,,,,
,5fcabc958a2a9d78cd4b0d4f,627c762f3015f0b9b9c103fe,2022-05-11_22h51.44.516,classification_task,2021.2.3,Win32,58.9935697,627c6715c52fd12f31907bd0,,,,,,,,,,,,,,,,,,,,,,,a,1,9.461,"[""0.650"",""0.383"",""0.722"",""0.962""]","[0,1,1,1]",0,19,19,19,1,0,1,,,1,FALSE,,,,,,,,,,,,,,,,,,,,,,,,,,,,,,,
,5fcabc958a2a9d78cd4b0d4f,627c762f3015f0b9b9c103fe,2022-05-11_22h51.44.516,classification_task,2021.2.3,Win32,58.9935697,627c6715c52fd12f31907bd0,,,,,,,,,,,,,,,,,,,,,,,a,1,6.5116,"[""0.207"",""0.383"",""0.722"",""0.095""]","[1,1,1,0]",0,20,20,20,1,0,1,,,1,FALSE,,,,,,,,,,,,,,,,,,,,,,,,,,,,,,,
,5fcabc958a2a9d78cd4b0d4f,627c762f3015f0b9b9c103fe,2022-05-11_22h51.44.516,classification_task,2021.2.3,Win32,58.9935697,627c6715c52fd12f31907bd0,,,,,,,,,,,,,,,,,,,,,,,l,1,6.5801,"[""0.107"",""0.331"",""0.532"",""0.817""]","[0,1,1,1]",0,21,21,21,1,1,1,,,1,FALSE,,,,,,,,,,,,,,,,,,,,,,,,,,,,,,,
,5fcabc958a2a9d78cd4b0d4f,627c762f3015f0b9b9c103fe,2022-05-11_22h51.44.516,classification_task,2021.2.3,Win32,58.9935697,627c6715c52fd12f31907bd0,,,,,,,,,,,,,,,,,,,,,,,a,1,4.3118,"[""0.207"",""0.383"",""0.925"",""0.962""]","[1,1,0,1]",0,22,22,22,1,0,1,,,1,FALSE,,,,,,,,,,,,,,,,,,,,,,,,,,,,,,,
,5fcabc958a2a9d78cd4b0d4f,627c762f3015f0b9b9c103fe,2022-05-11_22h51.44.516,classification_task,2021.2.3,Win32,58.9935697,627c6715c52fd12f31907bd0,,,,,,,,,,,,,,,,,,,,,,,a,1,5.5429,"[""0.675"",""0.491"",""0.592"",""0.888""]","[0,1,1,1]",0,23,23,23,1,0,0,,,1,FALSE,,,,,,,,,,,,,,,,,,,,,,,,,,,,,,,
,5fcabc958a2a9d78cd4b0d4f,627c762f3015f0b9b9c103fe,2022-05-11_22h51.44.516,classification_task,2021.2.3,Win32,58.9935697,627c6715c52fd12f31907bd0,,,,,,,,,,,,,,,,,,,,,,,l,1,6.3289,"[""0.041"",""0.331"",""0.675"",""0.817""]","[1,1,0,1]",0,24,24,24,1,1,1,,,1,FALSE,,,,,,,,,,,,,,,,,,,,,,,,,,,,,,,
,5fcabc958a2a9d78cd4b0d4f,627c762f3015f0b9b9c103fe,2022-05-11_22h51.44.516,classification_task,2021.2.3,Win32,58.9935697,627c6715c52fd12f31907bd0,,,,,,,,,,,,,,,,,,,,,,,l,0,6.293,"[""0.297"",""0.491"",""0.592"",""0.107""]","[1,1,1,0]",0,25,25,25,1,0,0,,,1,FALSE,,,,,,,,,,,,,,,,,,,,,,,,,,,,,,,
,5fcabc958a2a9d78cd4b0d4f,627c762f3015f0b9b9c103fe,2022-05-11_22h51.44.516,classification_task,2021.2.3,Win32,58.9935697,627c6715c52fd12f31907bd0,,,,,,,,,,,,,,,,,,,,,,,l,1,5.8392,"[""0.153"",""0.241"",""0.449"",""0.683""]","[1,1,1,0]",0,26,26,26,1,1,0,,,1,FALSE,,,,,,,,,,,,,,,,,,,,,,,,,,,,,,,
,5fcabc958a2a9d78cd4b0d4f,627c762f3015f0b9b9c103fe,2022-05-11_22h51.44.516,classification_task,2021.2.3,Win32,58.9935697,627c6715c52fd12f31907bd0,,,,,,,,,,,,,,,,,,,,,,,a,1,5.3266,"[""0.207"",""0.669"",""0.722"",""0.962""]","[1,0,1,1]",0,27,27,27,1,0,1,,,1,FALSE,,,,,,,,,,,,,,,,,,,,,,,,,,,,,,,
,5fcabc958a2a9d78cd4b0d4f,627c762f3015f0b9b9c103fe,2022-05-11_22h51.44.516,classification_task,2021.2.3,Win32,58.9935697,627c6715c52fd12f31907bd0,,,,,,,,,,,,,,,,,,,,,,,l,1,4.5146,"[""0.041"",""0.853"",""0.532"",""0.817""]","[1,0,1,1]",0,28,28,28,1,1,1,,,1,FALSE,,,,,,,,,,,,,,,,,,,,,,,,,,,,,,,
,5fcabc958a2a9d78cd4b0d4f,627c762f3015f0b9b9c103fe,2022-05-11_22h51.44.516,classification_task,2021.2.3,Win32,58.9935697,627c6715c52fd12f31907bd0,,,,,,,,,,,,,,,,,,,,,,,l,1,3.724,"[""0.153"",""0.241"",""0.675"",""0.781""]","[1,1,0,1]",0,29,29,29,1,1,0,,,1,FALSE,,,,,,,,,,,,,,,,,,,,,,,,,,,,,,,
,5fcabc958a2a9d78cd4b0d4f,627c762f3015f0b9b9c103fe,2022-05-11_22h51.44.516,classification_task,2021.2.3,Win32,58.9935697,627c6715c52fd12f31907bd0,,,,,,,,,,,,,,,,,,,,,,,a,1,5.0978,"[""0.297"",""0.491"",""0.925"",""0.888""]","[1,1,0,1]",0,30,30,30,1,0,0,,,1,FALSE,,,,,,,,,,,,,,,,,,,,,,,,,,,,,,,
,5fcabc958a2a9d78cd4b0d4f,627c762f3015f0b9b9c103fe,2022-05-11_22h51.44.516,classification_task,2021.2.3,Win32,58.9935697,627c6715c52fd12f31907bd0,,,,,,,,,,,,,,,,,,,,,,,l,1,6.4969,"[""0.653"",""0.241"",""0.449"",""0.781""]","[0,1,1,1]",0,31,31,31,1,1,0,,,1,FALSE,,,,,,,,,,,,,,,,,,,,,,,,,,,,,,,
,5fcabc958a2a9d78cd4b0d4f,627c762f3015f0b9b9c103fe,2022-05-11_22h51.44.516,classification_task,2021.2.3,Win32,58.9935697,627c6715c52fd12f31907bd0,,,,,,,,,,,,,,,,,,,,,,,a,1,6.9662,"[""0.653"",""0.383"",""0.722"",""0.962""]","[0,1,1,1]",0,32,32,32,1,0,1,,,1,FALSE,,,,,,,,,,,,,,,,,,,,,,,,,,,,,,,
,5fcabc958a2a9d78cd4b0d4f,627c762f3015f0b9b9c103fe,2022-05-11_22h51.44.516,classification_task,2021.2.3,Win32,58.9935697,627c6715c52fd12f31907bd0,,,,,,,,,,,,,,,,,,,,,,,l,1,2.9281,"[""0.153"",""0.079"",""0.449"",""0.781""]","[1,0,1,1]",0,33,33,33,1,1,0,,,1,FALSE,,,,,,,,,,,,,,,,,,,,,,,,,,,,,,,
,5fcabc958a2a9d78cd4b0d4f,627c762f3015f0b9b9c103fe,2022-05-11_22h51.44.516,classification_task,2021.2.3,Win32,58.9935697,627c6715c52fd12f31907bd0,,,,,,,,,,,,,,,,,,,,,,,l,0,5.3955,"[""0.107"",""0.491"",""0.592"",""0.888""]","[0,1,1,1]",0,34,34,34,1,0,0,,,1,FALSE,,,,,,,,,,,,,,,,,,,,,,,,,,,,,,,
,5fcabc958a2a9d78cd4b0d4f,627c762f3015f0b9b9c103fe,2022-05-11_22h51.44.516,classification_task,2021.2.3,Win32,58.9935697,627c6715c52fd12f31907bd0,,,,,,,,,,,,,,,,,,,,,,,a,1,2.5116,"[""0.207"",""0.925"",""0.722"",""0.962""]","[1,0,1,1]",0,35,35,35,1,0,1,,,1,FALSE,,,,,,,,,,,,,,,,,,,,,,,,,,,,,,,
,5fcabc958a2a9d78cd4b0d4f,627c762f3015f0b9b9c103fe,2022-05-11_22h51.44.516,classification_task,2021.2.3,Win32,58.9935697,627c6715c52fd12f31907bd0,,,,,,,,,,,,,,,,,,,,,,,l,0,5.9345,"[""0.297"",""0.491"",""0.669"",""0.888""]","[1,1,0,1]",0,36,36,36,1,0,0,,,1,FALSE,,,,,,,,,,,,,,,,,,,,,,,,,,,,,,,
,5fcabc958a2a9d78cd4b0d4f,627c762f3015f0b9b9c103fe,2022-05-11_22h51.44.516,classification_task,2021.2.3,Win32,58.9935697,627c6715c52fd12f31907bd0,,,,,,,,,,,,,,,,,,,,,,,l,1,2.2178,"[""0.041"",""0.683"",""0.532"",""0.817""]","[1,0,1,1]",0,37,37,37,1,1,1,,,1,FALSE,,,,,,,,,,,,,,,,,,,,,,,,,,,,,,,
,5fcabc958a2a9d78cd4b0d4f,627c762f3015f0b9b9c103fe,2022-05-11_22h51.44.516,classification_task,2021.2.3,Win32,58.9935697,627c6715c52fd12f31907bd0,,,,,,,,,,,,,,,,,,,,,,,a,0,1.2134,"[""0.925"",""0.241"",""0.449"",""0.781""]","[0,1,1,1]",0,38,38,38,1,1,0,,,1,FALSE,,,,,,,,,,,,,,,,,,,,,,,,,,,,,,,
,5fcabc958a2a9d78cd4b0d4f,627c762f3015f0b9b9c103fe,2022-05-11_22h51.44.516,classification_task,2021.2.3,Win32,58.9935697,627c6715c52fd12f31907bd0,,,,,,,,,,,,,,,,,,,,,,,a,0,4.3995,"[""0.153"",""0.241"",""0.925"",""0.781""]","[1,1,0,1]",0,39,39,39,1,1,0,,,1,FALSE,,,,,,,,,,,,,,,,,,,,,,,,,,,,,,,
,5fcabc958a2a9d78cd4b0d4f,627c762f3015f0b9b9c103fe,2022-05-11_22h51.44.516,classification_task,2021.2.3,Win32,58.9935697,627c6715c52fd12f31907bd0,,,,,,,,,,,,,,,,,,,,,,,a,1,0.9139,"[""0.297"",""0.675"",""0.592"",""0.888""]","[1,0,1,1]",0,40,40,40,1,0,0,,,1,FALSE,,,,,,,,,,,,,,,,,,,,,,,,,,,,,,,
,5fcabc958a2a9d78cd4b0d4f,627c762f3015f0b9b9c103fe,2022-05-11_22h51.44.516,classification_task,2021.2.3,Win32,58.9935697,627c6715c52fd12f31907bd0,,,,,,,,,,,,,,,,,,,,,,,l,0,1.831,"[""0.207"",""0.383"",""0.722"",""0.675""]","[1,1,1,0]",0,41,41,41,1,0,1,,,1,FALSE,,,,,,,,,,,,,,,,,,,,,,,,,,,,,,,
,5fcabc958a2a9d78cd4b0d4f,627c762f3015f0b9b9c103fe,2022-05-11_22h51.44.516,classification_task,2021.2.3,Win32,58.9935697,627c6715c52fd12f31907bd0,,,,,,,,,,,,,,,,,,,,,,,l,0,2.8114,"[""0.297"",""0.491"",""0.592"",""0.100""]","[1,1,1,0]",0,42,42,42,1,0,0,,,1,FALSE,,,,,,,,,,,,,,,,,,,,,,,,,,,,,,,
,5fcabc958a2a9d78cd4b0d4f,627c762f3015f0b9b9c103fe,2022-05-11_22h51.44.516,classification_task,2021.2.3,Win32,58.9935697,627c6715c52fd12f31907bd0,,,,,,,,,,,,,,,,,,,,,,,l,1,2.166,"[""0.041"",""0.331"",""0.103"",""0.817""]","[1,1,0,1]",0,43,43,43,1,1,1,,,1,FALSE,,,,,,,,,,,,,,,,,,,,,,,,,,,,,,,
,5fcabc958a2a9d78cd4b0d4f,627c762f3015f0b9b9c103fe,2022-05-11_22h51.44.516,classification_task,2021.2.3,Win32,58.9935697,627c6715c52fd12f31907bd0,,,,,,,,,,,,,,,,,,,,,,,a,1,1.7328,"[""0.207"",""0.383"",""0.675"",""0.962""]","[1,1,0,1]",0,44,44,44,1,0,1,,,1,FALSE,,,,,,,,,,,,,,,,,,,,,,,,,,,,,,,
,5fcabc958a2a9d78cd4b0d4f,627c762f3015f0b9b9c103fe,2022-05-11_22h51.44.516,classification_task,2021.2.3,Win32,58.9935697,627c6715c52fd12f31907bd0,,,,,,,,,,,,,,,,,,,,,,,a,0,3.0792,"[""0.153"",""0.241"",""0.449"",""0.650""]","[1,1,1,0]",0,45,45,45,1,1,0,,,1,FALSE,,,,,,,,,,,,,,,,,,,,,,,,,,,,,,,
,5fcabc958a2a9d78cd4b0d4f,627c762f3015f0b9b9c103fe,2022-05-11_22h51.44.516,classification_task,2021.2.3,Win32,58.9935697,627c6715c52fd12f31907bd0,,,,,,,,,,,,,,,,,,,,,,,a,0,3.4327,"[""0.103"",""0.331"",""0.532"",""0.817""]","[0,1,1,1]",0,46,46,46,1,1,1,,,1,FALSE,,,,,,,,,,,,,,,,,,,,,,,,,,,,,,,
,5fcabc958a2a9d78cd4b0d4f,627c762f3015f0b9b9c103fe,2022-05-11_22h51.44.516,classification_task,2021.2.3,Win32,58.9935697,627c6715c52fd12f31907bd0,,,,,,,,,,,,,,,,,,,,,,,l,1,1.3141,"[""0.041"",""0.331"",""0.532"",""0.650""]","[1,1,1,0]",0,47,47,47,1,1,1,,,1,FALSE,,,,,,,,,,,,,,,,,,,,,,,,,,,,,,,
,5fcabc958a2a9d78cd4b0d4f,627c762f3015f0b9b9c103fe,2022-05-11_22h51.44.516,classification_task,2021.2.3,Win32,58.9935697,627c6715c52fd12f31907bd0,,,,,,,,,,,,,,,,,,,,,,,a,1,1.9504,"[""0.297"",""0.669"",""0.592"",""0.888""]","[1,0,1,1]",0,48,48,48,1,0,0,,,1,FALSE,,,,,,,,,,,,,,,,,,,,,,,,,,,,,,,
,5fcabc958a2a9d78cd4b0d4f,627c762f3015f0b9b9c103fe,2022-05-11_22h51.44.516,classification_task,2021.2.3,Win32,58.9935697,627c6715c52fd12f31907bd0,,,,,,,,,,,,,,,,,,,,,,,l,0,3.3006,"[""0.207"",""0.383"",""0.925"",""0.962""]","[1,1,0,1]",0,49,49,49,1,0,1,,,1,FALSE,,,,,,,,,,,,,,,,,,,,,,,,,,,,,,,
,5fcabc958a2a9d78cd4b0d4f,627c762f3015f0b9b9c103fe,2022-05-11_22h51.44.516,classification_task,2021.2.3,Win32,58.9935697,627c6715c52fd12f31907bd0,,,,,,,,,,,,,,,,,,,,,,,l,0,4.5296,"[""0.297"",""0.491"",""0.683"",""0.888""]","[1,1,0,1]",0,50,50,50,1,0,0,,,1,FALSE,,,,,,,,,,,,,,,,,,,,,,,,,,,,,,,
,5fcabc958a2a9d78cd4b0d4f,627c762f3015f0b9b9c103fe,2022-05-11_22h51.44.516,classification_task,2021.2.3,Win32,58.9935697,627c6715c52fd12f31907bd0,,,,,,,,,,,,,,,,,,,,,,,a,1,1.6631,"[""0.297"",""0.491"",""0.592"",""0.095""]","[1,1,1,0]",0,51,51,51,1,0,0,,,1,FALSE,,,,,,,,,,,,,,,,,,,,,,,,,,,,,,,
,5fcabc958a2a9d78cd4b0d4f,627c762f3015f0b9b9c103fe,2022-05-11_22h51.44.516,classification_task,2021.2.3,Win32,58.9935697,627c6715c52fd12f31907bd0,,,,,,,,,,,,,,,,,,,,,,,a,0,3.2293,"[""0.153"",""0.100"",""0.449"",""0.781""]","[1,0,1,1]",0,52,52,52,1,1,0,,,1,FALSE,,,,,,,,,,,,,,,,,,,,,,,,,,,,,,,
,5fcabc958a2a9d78cd4b0d4f,627c762f3015f0b9b9c103fe,2022-05-11_22h51.44.516,classification_task,2021.2.3,Win32,58.9935697,627c6715c52fd12f31907bd0,,,,,,,,,,,,,,,,,,,,,,,a,1,1.2164,"[""0.207"",""0.107"",""0.722"",""0.962""]","[1,0,1,1]",0,53,53,53,1,0,1,,,1,FALSE,,,,,,,,,,,,,,,,,,,,,,,,,,,,,,,
,5fcabc958a2a9d78cd4b0d4f,627c762f3015f0b9b9c103fe,2022-05-11_22h51.44.516,classification_task,2021.2.3,Win32,58.9935697,627c6715c52fd12f31907bd0,,,,,,,,,,,,,,,,,,,,,,,l,1,2.2965,"[""0.041"",""0.331"",""0.650"",""0.817""]","[1,1,0,1]",0,54,54,54,1,1,1,,,1,FALSE,,,,,,,,,,,,,,,,,,,,,,,,,,,,,,,
,5fcabc958a2a9d78cd4b0d4f,627c762f3015f0b9b9c103fe,2022-05-11_22h51.44.516,classification_task,2021.2.3,Win32,58.9935697,627c6715c52fd12f31907bd0,,,,,,,,,,,,,,,,,,,,,,,l,1,2.5961,"[""0.925"",""0.331"",""0.532"",""0.817""]","[0,1,1,1]",0,55,55,55,1,1,1,,,1,FALSE,,,,,,,,,,,,,,,,,,,,,,,,,,,,,,,
,5fcabc958a2a9d78cd4b0d4f,627c762f3015f0b9b9c103fe,2022-05-11_22h51.44.516,classification_task,2021.2.3,Win32,58.9935697,627c6715c52fd12f31907bd0,,,,,,,,,,,,,,,,,,,,,,,l,0,3.7816,"[""0.095"",""0.491"",""0.592"",""0.888""]","[0,1,1,1]",0,56,56,56,1,0,0,,,1,FALSE,,,,,,,,,,,,,,,,,,,,,,,,,,,,,,,
,5fcabc958a2a9d78cd4b0d4f,627c762f3015f0b9b9c103fe,2022-05-11_22h51.44.516,classification_task,2021.2.3,Win32,58.9935697,627c6715c52fd12f31907bd0,,,,,,,,,,,,,,,,,,,,,,,l,1,1.2173,"[""0.153"",""0.241"",""0.449"",""0.107""]","[1,1,1,0]",0,57,57,57,1,1,0,,,1,FALSE,,,,,,,,,,,,,,,,,,,,,,,,,,,,,,,
,5fcabc958a2a9d78cd4b0d4f,627c762f3015f0b9b9c103fe,2022-05-11_22h51.44.516,classification_task,2021.2.3,Win32,58.9935697,627c6715c52fd12f31907bd0,,,,,,,,,,,,,,,,,,,,,,,l,1,2.8476,"[""0.041"",""0.925"",""0.532"",""0.817""]","[1,0,1,1]",0,58,58,58,1,1,1,,,1,FALSE,,,,,,,,,,,,,,,,,,,,,,,,,,,,,,,
,5fcabc958a2a9d78cd4b0d4f,627c762f3015f0b9b9c103fe,2022-05-11_22h51.44.516,classification_task,2021.2.3,Win32,58.9935697,627c6715c52fd12f31907bd0,,,,,,,,,,,,,,,,,,,,,,,l,1,2.3174,"[""0.153"",""0.241"",""0.091"",""0.781""]","[1,1,0,1]",0,59,59,59,1,1,0,,,1,FALSE,,,,,,,,,,,,,,,,,,,,,,,,,,,,,,,
,5fcabc958a2a9d78cd4b0d4f,627c762f3015f0b9b9c103fe,2022-05-11_22h51.44.516,classification_task,2021.2.3,Win32,58.9935697,627c6715c52fd12f31907bd0,,,,,,,,,,,,,,,,,,,,,,,a,1,1.6326,"[""0.207"",""0.383"",""0.722"",""0.091""]","[1,1,1,0]",0,60,60,60,1,0,1,,,1,FALSE,,,,,,,,,,,,,,,,,,,,,,,,,,,,,,,
,5fcabc958a2a9d78cd4b0d4f,627c762f3015f0b9b9c103fe,2022-05-11_22h51.44.516,classification_task,2021.2.3,Win32,58.9935697,627c6715c52fd12f31907bd0,,,,,,,,,,,,,,,,,,,,,,,a,0,3.1459,"[""0.041"",""0.331"",""0.532"",""0.925""]","[1,1,1,0]",0,61,61,61,1,1,1,,,1,FALSE,,,,,,,,,,,,,,,,,,,,,,,,,,,,,,,
,5fcabc958a2a9d78cd4b0d4f,627c762f3015f0b9b9c103fe,2022-05-11_22h51.44.516,classification_task,2021.2.3,Win32,58.9935697,627c6715c52fd12f31907bd0,,,,,,,,,,,,,,,,,,,,,,,a,0,3.8958,"[""0.650"",""0.241"",""0.449"",""0.781""]","[0,1,1,1]",0,62,62,62,1,1,0,,,1,FALSE,,,,,,,,,,,,,,,,,,,,,,,,,,,,,,,
,5fcabc958a2a9d78cd4b0d4f,627c762f3015f0b9b9c103fe,2022-05-11_22h51.44.516,classification_task,2021.2.3,Win32,58.9935697,627c6715c52fd12f31907bd0,,,,,,,,,,,,,,,,,,,,,,,a,1,2.0469,"[""0.079"",""0.383"",""0.722"",""0.962""]","[0,1,1,1]",0,63,63,63,1,0,1,,,1,FALSE,,,,,,,,,,,,,,,,,,,,,,,,,,,,,,,
,5fcabc958a2a9d78cd4b0d4f,627c762f3015f0b9b9c103fe,2022-05-11_22h51.44.516,classification_task,2021.2.3,Win32,58.9935697,627c6715c52fd12f31907bd0,,,,,,,,,,,,,,,,,,,,,,,,,,,,,,,,,,,,,,,0, ,,0,4.589703257,507.4452,0,0,0,0,1,2,1,,,,,,,,,,,,,,,,,,
,5fcabc958a2a9d78cd4b0d4f,627c762f3015f0b9b9c103fe,2022-05-11_22h51.44.516,classification_task,2021.2.3,Win32,58.9935697,627c6715c52fd12f31907bd0,,,,,,,,,,,,,,,,,,,,,,,,,,,,,,,,,,,,,,,1,  ,,0,8.459974525,515.3677,0,0,0,0,1,2,1,,,,,,,,,,,,,,,,,,
,5fcabc958a2a9d78cd4b0d4f,627c762f3015f0b9b9c103fe,2022-05-11_22h51.44.516,classification_task,2021.2.3,Win32,58.9935697,627c6715c52fd12f31907bd0,,,,,,,,,,,,,,,,,,,,,,,,,,,,,,,,,,,,,,,2,  ,,0,7.063737765,519.3813,0,0,0,0,1,2,1,,,,,,,,,,,,,,,,,,
,5fcabc958a2a9d78cd4b0d4f,627c762f3015f0b9b9c103fe,2022-05-11_22h51.44.516,classification_task,2021.2.3,Win32,58.9935697,627c6715c52fd12f31907bd0,,,,,,,,,,,,,,,,,,,,,,,,,,,,,,,,,,,,,,,,,,,,,0,0,0,0,1,,1,,,,,,,,,,,,,,,,,,
,5fcabc958a2a9d78cd4b0d4f,627c762f3015f0b9b9c103fe,2022-05-11_22h51.44.516,classification_task,2021.2.3,Win32,58.9935697,627c6715c52fd12f31907bd0,,,,,,,,,,,,,,,,,,,,,space,20.3414,l,1,0.9391,"[""0.095"",""0.331"",""0.532"",""0.817""]","[0,1,1,1]",0,0,0,0,1,1,1,,,1,FALSE,,,,,,,,,,,,,,,,,,,,,,,,,,,,,,,
,5fcabc958a2a9d78cd4b0d4f,627c762f3015f0b9b9c103fe,2022-05-11_22h51.44.516,classification_task,2021.2.3,Win32,58.9935697,627c6715c52fd12f31907bd0,,,,,,,,,,,,,,,,,,,,,,,a,1,3.7975,"[""0.297"",""0.491"",""0.079"",""0.888""]","[1,1,0,1]",0,1,1,1,1,0,0,,,1,FALSE,,,,,,,,,,,,,,,,,,,,,,,,,,,,,,,
,5fcabc958a2a9d78cd4b0d4f,627c762f3015f0b9b9c103fe,2022-05-11_22h51.44.516,classification_task,2021.2.3,Win32,58.9935697,627c6715c52fd12f31907bd0,,,,,,,,,,,,,,,,,,,,,,,a,1,2.0113,"[""0.207"",""0.100"",""0.722"",""0.962""]","[1,0,1,1]",0,2,2,2,1,0,1,,,1,FALSE,,,,,,,,,,,,,,,,,,,,,,,,,,,,,,,
,5fcabc958a2a9d78cd4b0d4f,627c762f3015f0b9b9c103fe,2022-05-11_22h51.44.516,classification_task,2021.2.3,Win32,58.9935697,627c6715c52fd12f31907bd0,,,,,,,,,,,,,,,,,,,,,,,l,1,1.8283,"[""0.153"",""0.079"",""0.449"",""0.781""]","[1,0,1,1]",0,3,3,3,1,1,0,,,1,FALSE,,,,,,,,,,,,,,,,,,,,,,,,,,,,,,,
,5fcabc958a2a9d78cd4b0d4f,627c762f3015f0b9b9c103fe,2022-05-11_22h51.44.516,classification_task,2021.2.3,Win32,58.9935697,627c6715c52fd12f31907bd0,,,,,,,,,,,,,,,,,,,,,,,a,1,0.7968,"[""0.095"",""0.383"",""0.722"",""0.962""]","[0,1,1,1]",0,4,4,4,1,0,1,,,1,FALSE,,,,,,,,,,,,,,,,,,,,,,,,,,,,,,,
,5fcabc958a2a9d78cd4b0d4f,627c762f3015f0b9b9c103fe,2022-05-11_22h51.44.516,classification_task,2021.2.3,Win32,58.9935697,627c6715c52fd12f31907bd0,,,,,,,,,,,,,,,,,,,,,,,l,1,2.3216,"[""0.153"",""0.241"",""0.853"",""0.781""]","[1,1,0,1]",0,5,5,5,1,1,0,,,1,FALSE,,,,,,,,,,,,,,,,,,,,,,,,,,,,,,,
,5fcabc958a2a9d78cd4b0d4f,627c762f3015f0b9b9c103fe,2022-05-11_22h51.44.516,classification_task,2021.2.3,Win32,58.9935697,627c6715c52fd12f31907bd0,,,,,,,,,,,,,,,,,,,,,,,l,1,1.1941,"[""0.041"",""0.331"",""0.079"",""0.817""]","[1,1,0,1]",0,6,6,6,1,1,1,,,1,FALSE,,,,,,,,,,,,,,,,,,,,,,,,,,,,,,,
,5fcabc958a2a9d78cd4b0d4f,627c762f3015f0b9b9c103fe,2022-05-11_22h51.44.516,classification_task,2021.2.3,Win32,58.9935697,627c6715c52fd12f31907bd0,,,,,,,,,,,,,,,,,,,,,,,l,1,1.7254,"[""0.683"",""0.241"",""0.449"",""0.781""]","[0,1,1,1]",0,7,7,7,1,1,0,,,1,FALSE,,,,,,,,,,,,,,,,,,,,,,,,,,,,,,,
,5fcabc958a2a9d78cd4b0d4f,627c762f3015f0b9b9c103fe,2022-05-11_22h51.44.516,classification_task,2021.2.3,Win32,58.9935697,627c6715c52fd12f31907bd0,,,,,,,,,,,,,,,,,,,,,,,a,1,1.225,"[""0.207"",""0.383"",""0.722"",""0.925""]","[1,1,1,0]",0,8,8,8,1,0,1,,,1,FALSE,,,,,,,,,,,,,,,,,,,,,,,,,,,,,,,
,5fcabc958a2a9d78cd4b0d4f,627c762f3015f0b9b9c103fe,2022-05-11_22h51.44.516,classification_task,2021.2.3,Win32,58.9935697,627c6715c52fd12f31907bd0,,,,,,,,,,,,,,,,,,,,,,,a,0,3.2923,"[""0.153"",""0.241"",""0.449"",""0.103""]","[1,1,1,0]",0,9,9,9,1,1,0,,,1,FALSE,,,,,,,,,,,,,,,,,,,,,,,,,,,,,,,
,5fcabc958a2a9d78cd4b0d4f,627c762f3015f0b9b9c103fe,2022-05-11_22h51.44.516,classification_task,2021.2.3,Win32,58.9935697,627c6715c52fd12f31907bd0,,,,,,,,,,,,,,,,,,,,,,,l,0,1.5782,"[""0.297"",""0.491"",""0.592"",""0.650""]","[1,1,1,0]",0,10,10,10,1,0,0,,,1,FALSE,,,,,,,,,,,,,,,,,,,,,,,,,,,,,,,
,5fcabc958a2a9d78cd4b0d4f,627c762f3015f0b9b9c103fe,2022-05-11_22h51.44.516,classification_task,2021.2.3,Win32,58.9935697,627c6715c52fd12f31907bd0,,,,,,,,,,,,,,,,,,,,,,,a,1,2.8162,"[""0.297"",""0.103"",""0.592"",""0.888""]","[1,0,1,1]",0,11,11,11,1,0,0,,,1,FALSE,,,,,,,,,,,,,,,,,,,,,,,,,,,,,,,
,5fcabc958a2a9d78cd4b0d4f,627c762f3015f0b9b9c103fe,2022-05-11_22h51.44.516,classification_task,2021.2.3,Win32,58.9935697,627c6715c52fd12f31907bd0,,,,,,,,,,,,,,,,,,,,,,,l,0,1.5461,"[""0.925"",""0.491"",""0.592"",""0.888""]","[0,1,1,1]",0,12,12,12,1,0,0,,,1,FALSE,,,,,,,,,,,,,,,,,,,,,,,,,,,,,,,
,5fcabc958a2a9d78cd4b0d4f,627c762f3015f0b9b9c103fe,2022-05-11_22h51.44.516,classification_task,2021.2.3,Win32,58.9935697,627c6715c52fd12f31907bd0,,,,,,,,,,,,,,,,,,,,,,,l,1,1.5952,"[""0.041"",""0.669"",""0.532"",""0.817""]","[1,0,1,1]",0,13,13,13,1,1,1,,,1,FALSE,,,,,,,,,,,,,,,,,,,,,,,,,,,,,,,
,5fcabc958a2a9d78cd4b0d4f,627c762f3015f0b9b9c103fe,2022-05-11_22h51.44.516,classification_task,2021.2.3,Win32,58.9935697,627c6715c52fd12f31907bd0,,,,,,,,,,,,,,,,,,,,,,,l,1,1.4871,"[""0.041"",""0.331"",""0.532"",""0.650""]","[1,1,1,0]",0,14,14,14,1,1,1,,,1,FALSE,,,,,,,,,,,,,,,,,,,,,,,,,,,,,,,
,5fcabc958a2a9d78cd4b0d4f,627c762f3015f0b9b9c103fe,2022-05-11_22h51.44.516,classification_task,2021.2.3,Win32,58.9935697,627c6715c52fd12f31907bd0,,,,,,,,,,,,,,,,,,,,,,,a,1,1.43,"[""0.207"",""0.383"",""0.650"",""0.962""]","[1,1,0,1]",0,15,15,15,1,0,1,,,1,FALSE,,,,,,,,,,,,,,,,,,,,,,,,,,,,,,,
,5fcabc958a2a9d78cd4b0d4f,627c762f3015f0b9b9c103fe,2022-05-11_22h51.44.516,classification_task,2021.2.3,Win32,58.9935697,627c6715c52fd12f31907bd0,,,,,,,,,,,,,,,,,,,,,,,a,1,1.4511,"[""0.675"",""0.383"",""0.722"",""0.962""]","[0,1,1,1]",0,16,16,16,1,0,1,,,1,FALSE,,,,,,,,,,,,,,,,,,,,,,,,,,,,,,,
,5fcabc958a2a9d78cd4b0d4f,627c762f3015f0b9b9c103fe,2022-05-11_22h51.44.516,classification_task,2021.2.3,Win32,58.9935697,627c6715c52fd12f31907bd0,,,,,,,,,,,,,,,,,,,,,,,a,1,0.9136,"[""0.925"",""0.491"",""0.592"",""0.888""]","[0,1,1,1]",0,17,17,17,1,0,0,,,1,FALSE,,,,,,,,,,,,,,,,,,,,,,,,,,,,,,,
,5fcabc958a2a9d78cd4b0d4f,627c762f3015f0b9b9c103fe,2022-05-11_22h51.44.516,classification_task,2021.2.3,Win32,58.9935697,627c6715c52fd12f31907bd0,,,,,,,,,,,,,,,,,,,,,,,l,1,1.3071,"[""0.653"",""0.331"",""0.532"",""0.817""]","[0,1,1,1]",0,18,18,18,1,1,1,,,1,FALSE,,,,,,,,,,,,,,,,,,,,,,,,,,,,,,,
,5fcabc958a2a9d78cd4b0d4f,627c762f3015f0b9b9c103fe,2022-05-11_22h51.44.516,classification_task,2021.2.3,Win32,58.9935697,627c6715c52fd12f31907bd0,,,,,,,,,,,,,,,,,,,,,,,a,1,0.9323,"[""0.207"",""0.383"",""0.925"",""0.962""]","[1,1,0,1]",0,19,19,19,1,0,1,,,1,FALSE,,,,,,,,,,,,,,,,,,,,,,,,,,,,,,,
,5fcabc958a2a9d78cd4b0d4f,627c762f3015f0b9b9c103fe,2022-05-11_22h51.44.516,classification_task,2021.2.3,Win32,58.9935697,627c6715c52fd12f31907bd0,,,,,,,,,,,,,,,,,,,,,,,l,1,2.4121,"[""0.153"",""0.241"",""0.449"",""0.925""]","[1,1,1,0]",0,20,20,20,1,1,0,,,1,FALSE,,,,,,,,,,,,,,,,,,,,,,,,,,,,,,,
,5fcabc958a2a9d78cd4b0d4f,627c762f3015f0b9b9c103fe,2022-05-11_22h51.44.516,classification_task,2021.2.3,Win32,58.9935697,627c6715c52fd12f31907bd0,,,,,,,,,,,,,,,,,,,,,,,l,1,1.4929,"[""0.041"",""0.331"",""0.095"",""0.817""]","[1,1,0,1]",0,21,21,21,1,1,1,,,1,FALSE,,,,,,,,,,,,,,,,,,,,,,,,,,,,,,,
,5fcabc958a2a9d78cd4b0d4f,627c762f3015f0b9b9c103fe,2022-05-11_22h51.44.516,classification_task,2021.2.3,Win32,58.9935697,627c6715c52fd12f31907bd0,,,,,,,,,,,,,,,,,,,,,,,a,1,0.9126,"[""0.207"",""0.650"",""0.722"",""0.962""]","[1,0,1,1]",0,22,22,22,1,0,1,,,1,FALSE,,,,,,,,,,,,,,,,,,,,,,,,,,,,,,,
,5fcabc958a2a9d78cd4b0d4f,627c762f3015f0b9b9c103fe,2022-05-11_22h51.44.516,classification_task,2021.2.3,Win32,58.9935697,627c6715c52fd12f31907bd0,,,,,,,,,,,,,,,,,,,,,,,a,0,1.2161,"[""0.675"",""0.241"",""0.449"",""0.781""]","[0,1,1,1]",0,23,23,23,1,1,0,,,1,FALSE,,,,,,,,,,,,,,,,,,,,,,,,,,,,,,,
,5fcabc958a2a9d78cd4b0d4f,627c762f3015f0b9b9c103fe,2022-05-11_22h51.44.516,classification_task,2021.2.3,Win32,58.9935697,627c6715c52fd12f31907bd0,,,,,,,,,,,,,,,,,,,,,,,a,1,0.9463,"[""0.207"",""0.383"",""0.722"",""0.091""]","[1,1,1,0]",0,24,24,24,1,0,1,,,1,FALSE,,,,,,,,,,,,,,,,,,,,,,,,,,,,,,,
,5fcabc958a2a9d78cd4b0d4f,627c762f3015f0b9b9c103fe,2022-05-11_22h51.44.516,classification_task,2021.2.3,Win32,58.9935697,627c6715c52fd12f31907bd0,,,,,,,,,,,,,,,,,,,,,,,l,1,0.8505,"[""0.041"",""0.331"",""0.532"",""0.091""]","[1,1,1,0]",0,25,25,25,1,1,1,,,1,FALSE,,,,,,,,,,,,,,,,,,,,,,,,,,,,,,,
,5fcabc958a2a9d78cd4b0d4f,627c762f3015f0b9b9c103fe,2022-05-11_22h51.44.516,classification_task,2021.2.3,Win32,58.9935697,627c6715c52fd12f31907bd0,,,,,,,,,,,,,,,,,,,,,,,l,0,1.0632,"[""0.297"",""0.491"",""0.107"",""0.888""]","[1,1,0,1]",0,26,26,26,1,0,0,,,1,FALSE,,,,,,,,,,,,,,,,,,,,,,,,,,,,,,,
,5fcabc958a2a9d78cd4b0d4f,627c762f3015f0b9b9c103fe,2022-05-11_22h51.44.516,classification_task,2021.2.3,Win32,58.9935697,627c6715c52fd12f31907bd0,,,,,,,,,,,,,,,,,,,,,,,l,1,1.2311,"[""0.153"",""0.241"",""0.650"",""0.781""]","[1,1,0,1]",0,27,27,27,1,1,0,,,1,FALSE,,,,,,,,,,,,,,,,,,,,,,,,,,,,,,,
,5fcabc958a2a9d78cd4b0d4f,627c762f3015f0b9b9c103fe,2022-05-11_22h51.44.516,classification_task,2021.2.3,Win32,58.9935697,627c6715c52fd12f31907bd0,,,,,,,,,,,,,,,,,,,,,,,a,1,1.6692,"[""0.297"",""0.650"",""0.592"",""0.888""]","[1,0,1,1]",0,28,28,28,1,0,0,,,1,FALSE,,,,,,,,,,,,,,,,,,,,,,,,,,,,,,,
,5fcabc958a2a9d78cd4b0d4f,627c762f3015f0b9b9c103fe,2022-05-11_22h51.44.516,classification_task,2021.2.3,Win32,58.9935697,627c6715c52fd12f31907bd0,,,,,,,,,,,,,,,,,,,,,,,a,1,1.4989,"[""0.297"",""0.491"",""0.592"",""0.653""]","[1,1,1,0]",0,29,29,29,1,0,0,,,1,FALSE,,,,,,,,,,,,,,,,,,,,,,,,,,,,,,,
,5fcabc958a2a9d78cd4b0d4f,627c762f3015f0b9b9c103fe,2022-05-11_22h51.44.516,classification_task,2021.2.3,Win32,58.9935697,627c6715c52fd12f31907bd0,,,,,,,,,,,,,,,,,,,,,,,l,1,3.1662,"[""0.153"",""0.100"",""0.449"",""0.781""]","[1,0,1,1]",0,30,30,30,1,1,0,,,1,FALSE,,,,,,,,,,,,,,,,,,,,,,,,,,,,,,,
,5fcabc958a2a9d78cd4b0d4f,627c762f3015f0b9b9c103fe,2022-05-11_22h51.44.516,classification_task,2021.2.3,Win32,58.9935697,627c6715c52fd12f31907bd0,,,,,,,,,,,,,,,,,,,,,,,l,1,2.6751,"[""0.041"",""0.675"",""0.532"",""0.817""]","[1,0,1,1]",0,31,31,31,1,1,1,,,1,FALSE,,,,,,,,,,,,,,,,,,,,,,,,,,,,,,,
,5fcabc958a2a9d78cd4b0d4f,627c762f3015f0b9b9c103fe,2022-05-11_22h51.44.516,classification_task,2021.2.3,Win32,58.9935697,627c6715c52fd12f31907bd0,,,,,,,,,,,,,,,,,,,,,,,a,0,1.211,"[""0.650"",""0.241"",""0.449"",""0.781""]","[0,1,1,1]",0,32,32,32,1,1,0,,,1,FALSE,,,,,,,,,,,,,,,,,,,,,,,,,,,,,,,
,5fcabc958a2a9d78cd4b0d4f,627c762f3015f0b9b9c103fe,2022-05-11_22h51.44.516,classification_task,2021.2.3,Win32,58.9935697,627c6715c52fd12f31907bd0,,,,,,,,,,,,,,,,,,,,,,,a,1,2.2086,"[""0.207"",""0.383"",""0.722"",""0.650""]","[1,1,1,0]",0,33,33,33,1,0,1,,,1,FALSE,,,,,,,,,,,,,,,,,,,,,,,,,,,,,,,
,5fcabc958a2a9d78cd4b0d4f,627c762f3015f0b9b9c103fe,2022-05-11_22h51.44.516,classification_task,2021.2.3,Win32,58.9935697,627c6715c52fd12f31907bd0,,,,,,,,,,,,,,,,,,,,,,,a,1,1.4248,"[""0.925"",""0.491"",""0.592"",""0.888""]","[0,1,1,1]",0,34,34,34,1,0,0,,,1,FALSE,,,,,,,,,,,,,,,,,,,,,,,,,,,,,,,
,5fcabc958a2a9d78cd4b0d4f,627c762f3015f0b9b9c103fe,2022-05-11_22h51.44.516,classification_task,2021.2.3,Win32,58.9935697,627c6715c52fd12f31907bd0,,,,,,,,,,,,,,,,,,,,,,,a,1,1.2623,"[""0.207"",""0.383"",""0.650"",""0.962""]","[1,1,0,1]",0,35,35,35,1,0,1,,,1,FALSE,,,,,,,,,,,,,,,,,,,,,,,,,,,,,,,
,5fcabc958a2a9d78cd4b0d4f,627c762f3015f0b9b9c103fe,2022-05-11_22h51.44.516,classification_task,2021.2.3,Win32,58.9935697,627c6715c52fd12f31907bd0,,,,,,,,,,,,,,,,,,,,,,,a,1,1.0449,"[""0.297"",""0.669"",""0.592"",""0.888""]","[1,0,1,1]",0,36,36,36,1,0,0,,,1,FALSE,,,,,,,,,,,,,,,,,,,,,,,,,,,,,,,
,5fcabc958a2a9d78cd4b0d4f,627c762f3015f0b9b9c103fe,2022-05-11_22h51.44.516,classification_task,2021.2.3,Win32,58.9935697,627c6715c52fd12f31907bd0,,,,,,,,,,,,,,,,,,,,,,,a,1,1.144,"[""0.650"",""0.383"",""0.722"",""0.962""]","[0,1,1,1]",0,37,37,37,1,0,1,,,1,FALSE,,,,,,,,,,,,,,,,,,,,,,,,,,,,,,,
,5fcabc958a2a9d78cd4b0d4f,627c762f3015f0b9b9c103fe,2022-05-11_22h51.44.516,classification_task,2021.2.3,Win32,58.9935697,627c6715c52fd12f31907bd0,,,,,,,,,,,,,,,,,,,,,,,l,1,1.453,"[""0.091"",""0.331"",""0.532"",""0.817""]","[0,1,1,1]",0,38,38,38,1,1,1,,,1,FALSE,,,,,,,,,,,,,,,,,,,,,,,,,,,,,,,
,5fcabc958a2a9d78cd4b0d4f,627c762f3015f0b9b9c103fe,2022-05-11_22h51.44.516,classification_task,2021.2.3,Win32,58.9935697,627c6715c52fd12f31907bd0,,,,,,,,,,,,,,,,,,,,,,,l,1,1.2151,"[""0.153"",""0.241"",""0.653"",""0.781""]","[1,1,0,1]",0,39,39,39,1,1,0,,,1,FALSE,,,,,,,,,,,,,,,,,,,,,,,,,,,,,,,
,5fcabc958a2a9d78cd4b0d4f,627c762f3015f0b9b9c103fe,2022-05-11_22h51.44.516,classification_task,2021.2.3,Win32,58.9935697,627c6715c52fd12f31907bd0,,,,,,,,,,,,,,,,,,,,,,,a,1,1.3132,"[""0.207"",""0.100"",""0.722"",""0.962""]","[1,0,1,1]",0,40,40,40,1,0,1,,,1,FALSE,,,,,,,,,,,,,,,,,,,,,,,,,,,,,,,
,5fcabc958a2a9d78cd4b0d4f,627c762f3015f0b9b9c103fe,2022-05-11_22h51.44.516,classification_task,2021.2.3,Win32,58.9935697,627c6715c52fd12f31907bd0,,,,,,,,,,,,,,,,,,,,,,,l,1,0.9322,"[""0.041"",""0.331"",""0.532"",""0.925""]","[1,1,1,0]",0,41,41,41,1,1,1,,,1,FALSE,,,,,,,,,,,,,,,,,,,,,,,,,,,,,,,
,5fcabc958a2a9d78cd4b0d4f,627c762f3015f0b9b9c103fe,2022-05-11_22h51.44.516,classification_task,2021.2.3,Win32,58.9935697,627c6715c52fd12f31907bd0,,,,,,,,,,,,,,,,,,,,,,,l,1,1.1438,"[""0.153"",""0.079"",""0.449"",""0.781""]","[1,0,1,1]",0,42,42,42,1,1,0,,,1,FALSE,,,,,,,,,,,,,,,,,,,,,,,,,,,,,,,
,5fcabc958a2a9d78cd4b0d4f,627c762f3015f0b9b9c103fe,2022-05-11_22h51.44.516,classification_task,2021.2.3,Win32,58.9935697,627c6715c52fd12f31907bd0,,,,,,,,,,,,,,,,,,,,,,,a,0,1.8488,"[""0.153"",""0.241"",""0.449"",""0.107""]","[1,1,1,0]",0,43,43,43,1,1,0,,,1,FALSE,,,,,,,,,,,,,,,,,,,,,,,,,,,,,,,
,5fcabc958a2a9d78cd4b0d4f,627c762f3015f0b9b9c103fe,2022-05-11_22h51.44.516,classification_task,2021.2.3,Win32,58.9935697,627c6715c52fd12f31907bd0,,,,,,,,,,,,,,,,,,,,,,,l,0,1.2472,"[""0.297"",""0.491"",""0.592"",""0.079""]","[1,1,1,0]",0,44,44,44,1,0,0,,,1,FALSE,,,,,,,,,,,,,,,,,,,,,,,,,,,,,,,
,5fcabc958a2a9d78cd4b0d4f,627c762f3015f0b9b9c103fe,2022-05-11_22h51.44.516,classification_task,2021.2.3,Win32,58.9935697,627c6715c52fd12f31907bd0,,,,,,,,,,,,,,,,,,,,,,,l,0,1.3502,"[""0.297"",""0.491"",""0.925"",""0.888""]","[1,1,0,1]",0,45,45,45,1,0,0,,,1,FALSE,,,,,,,,,,,,,,,,,,,,,,,,,,,,,,,
,5fcabc958a2a9d78cd4b0d4f,627c762f3015f0b9b9c103fe,2022-05-11_22h51.44.516,classification_task,2021.2.3,Win32,58.9935697,627c6715c52fd12f31907bd0,,,,,,,,,,,,,,,,,,,,,,,l,1,1.5468,"[""0.041"",""0.650"",""0.532"",""0.817""]","[1,0,1,1]",0,46,46,46,1,1,1,,,1,FALSE,,,,,,,,,,,,,,,,,,,,,,,,,,,,,,,
,5fcabc958a2a9d78cd4b0d4f,627c762f3015f0b9b9c103fe,2022-05-11_22h51.44.516,classification_task,2021.2.3,Win32,58.9935697,627c6715c52fd12f31907bd0,,,,,,,,,,,,,,,,,,,,,,,l,1,0.6828,"[""0.041"",""0.331"",""0.650"",""0.817""]","[1,1,0,1]",0,47,47,47,1,1,1,,,1,FALSE,,,,,,,,,,,,,,,,,,,,,,,,,,,,,,,
,5fcabc958a2a9d78cd4b0d4f,627c762f3015f0b9b9c103fe,2022-05-11_22h51.44.516,classification_task,2021.2.3,Win32,58.9935697,627c6715c52fd12f31907bd0,,,,,,,,,,,,,,,,,,,,,,,a,1,1.3628,"[""0.297"",""0.491"",""0.592"",""0.100""]","[1,1,1,0]",0,48,48,48,1,0,0,,,1,FALSE,,,,,,,,,,,,,,,,,,,,,,,,,,,,,,,
,5fcabc958a2a9d78cd4b0d4f,627c762f3015f0b9b9c103fe,2022-05-11_22h51.44.516,classification_task,2021.2.3,Win32,58.9935697,627c6715c52fd12f31907bd0,,,,,,,,,,,,,,,,,,,,,,,a,0,1.1823,"[""0.107"",""0.241"",""0.449"",""0.781""]","[0,1,1,1]",0,49,49,49,1,1,0,,,1,FALSE,,,,,,,,,,,,,,,,,,,,,,,,,,,,,,,
,5fcabc958a2a9d78cd4b0d4f,627c762f3015f0b9b9c103fe,2022-05-11_22h51.44.516,classification_task,2021.2.3,Win32,58.9935697,627c6715c52fd12f31907bd0,,,,,,,,,,,,,,,,,,,,,,,l,0,1.3986,"[""0.207"",""0.650"",""0.722"",""0.962""]","[1,0,1,1]",0,50,50,50,1,0,1,,,1,FALSE,,,,,,,,,,,,,,,,,,,,,,,,,,,,,,,
,5fcabc958a2a9d78cd4b0d4f,627c762f3015f0b9b9c103fe,2022-05-11_22h51.44.516,classification_task,2021.2.3,Win32,58.9935697,627c6715c52fd12f31907bd0,,,,,,,,,,,,,,,,,,,,,,,l,0,1.2286,"[""0.091"",""0.383"",""0.722"",""0.962""]","[0,1,1,1]",0,51,51,51,1,0,1,,,1,FALSE,,,,,,,,,,,,,,,,,,,,,,,,,,,,,,,
,5fcabc958a2a9d78cd4b0d4f,627c762f3015f0b9b9c103fe,2022-05-11_22h51.44.516,classification_task,2021.2.3,Win32,58.9935697,627c6715c52fd12f31907bd0,,,,,,,,,,,,,,,,,,,,,,,l,0,0.7324,"[""0.207"",""0.383"",""0.722"",""0.100""]","[1,1,1,0]",0,52,52,52,1,0,1,,,1,FALSE,,,,,,,,,,,,,,,,,,,,,,,,,,,,,,,
,5fcabc958a2a9d78cd4b0d4f,627c762f3015f0b9b9c103fe,2022-05-11_22h51.44.516,classification_task,2021.2.3,Win32,58.9935697,627c6715c52fd12f31907bd0,,,,,,,,,,,,,,,,,,,,,,,a,0,0.6658,"[""0.041"",""0.331"",""0.532"",""0.653""]","[1,1,1,0]",0,53,53,53,1,1,1,,,1,FALSE,,,,,,,,,,,,,,,,,,,,,,,,,,,,,,,
,5fcabc958a2a9d78cd4b0d4f,627c762f3015f0b9b9c103fe,2022-05-11_22h51.44.516,classification_task,2021.2.3,Win32,58.9935697,627c6715c52fd12f31907bd0,,,,,,,,,,,,,,,,,,,,,,,a,1,1.4637,"[""0.297"",""0.925"",""0.592"",""0.888""]","[1,0,1,1]",0,54,54,54,1,0,0,,,1,FALSE,,,,,,,,,,,,,,,,,,,,,,,,,,,,,,,
,5fcabc958a2a9d78cd4b0d4f,627c762f3015f0b9b9c103fe,2022-05-11_22h51.44.516,classification_task,2021.2.3,Win32,58.9935697,627c6715c52fd12f31907bd0,,,,,,,,,,,,,,,,,,,,,,,l,1,4.0616,"[""0.153"",""0.925"",""0.449"",""0.781""]","[1,0,1,1]",0,55,55,55,1,1,0,,,1,FALSE,,,,,,,,,,,,,,,,,,,,,,,,,,,,,,,
,5fcabc958a2a9d78cd4b0d4f,627c762f3015f0b9b9c103fe,2022-05-11_22h51.44.516,classification_task,2021.2.3,Win32,58.9935697,627c6715c52fd12f31907bd0,,,,,,,,,,,,,,,,,,,,,,,a,0,2.3639,"[""0.153"",""0.241"",""0.107"",""0.781""]","[1,1,0,1]",0,56,56,56,1,1,0,,,1,FALSE,,,,,,,,,,,,,,,,,,,,,,,,,,,,,,,
,5fcabc958a2a9d78cd4b0d4f,627c762f3015f0b9b9c103fe,2022-05-11_22h51.44.516,classification_task,2021.2.3,Win32,58.9935697,627c6715c52fd12f31907bd0,,,,,,,,,,,,,,,,,,,,,,,l,1,2.0274,"[""0.041"",""0.853"",""0.532"",""0.817""]","[1,0,1,1]",0,57,57,57,1,1,1,,,1,FALSE,,,,,,,,,,,,,,,,,,,,,,,,,,,,,,,
,5fcabc958a2a9d78cd4b0d4f,627c762f3015f0b9b9c103fe,2022-05-11_22h51.44.516,classification_task,2021.2.3,Win32,58.9935697,627c6715c52fd12f31907bd0,,,,,,,,,,,,,,,,,,,,,,,a,0,1.3574,"[""0.153"",""0.241"",""0.449"",""0.669""]","[1,1,1,0]",0,58,58,58,1,1,0,,,1,FALSE,,,,,,,,,,,,,,,,,,,,,,,,,,,,,,,
,5fcabc958a2a9d78cd4b0d4f,627c762f3015f0b9b9c103fe,2022-05-11_22h51.44.516,classification_task,2021.2.3,Win32,58.9935697,627c6715c52fd12f31907bd0,,,,,,,,,,,,,,,,,,,,,,,l,0,2.01,"[""0.207"",""0.383"",""0.653"",""0.962""]","[1,1,0,1]",0,59,59,59,1,0,1,,,1,FALSE,,,,,,,,,,,,,,,,,,,,,,,,,,,,,,,
,5fcabc958a2a9d78cd4b0d4f,627c762f3015f0b9b9c103fe,2022-05-11_22h51.44.516,classification_task,2021.2.3,Win32,58.9935697,627c6715c52fd12f31907bd0,,,,,,,,,,,,,,,,,,,,,,,l,1,1.3475,"[""0.041"",""0.331"",""0.650"",""0.817""]","[1,1,0,1]",0,60,60,60,1,1,1,,,1,FALSE,,,,,,,,,,,,,,,,,,,,,,,,,,,,,,,
,5fcabc958a2a9d78cd4b0d4f,627c762f3015f0b9b9c103fe,2022-05-11_22h51.44.516,classification_task,2021.2.3,Win32,58.9935697,627c6715c52fd12f31907bd0,,,,,,,,,,,,,,,,,,,,,,,a,0,1.3356,"[""0.853"",""0.331"",""0.532"",""0.817""]","[0,1,1,1]",0,61,61,61,1,1,1,,,1,FALSE,,,,,,,,,,,,,,,,,,,,,,,,,,,,,,,
,5fcabc958a2a9d78cd4b0d4f,627c762f3015f0b9b9c103fe,2022-05-11_22h51.44.516,classification_task,2021.2.3,Win32,58.9935697,627c6715c52fd12f31907bd0,,,,,,,,,,,,,,,,,,,,,,,a,1,2.0784,"[""0.853"",""0.491"",""0.592"",""0.888""]","[0,1,1,1]",0,62,62,62,1,0,0,,,1,FALSE,,,,,,,,,,,,,,,,,,,,,,,,,,,,,,,
,5fcabc958a2a9d78cd4b0d4f,627c762f3015f0b9b9c103fe,2022-05-11_22h51.44.516,classification_task,2021.2.3,Win32,58.9935697,627c6715c52fd12f31907bd0,,,,,,,,,,,,,,,,,,,,,,,l,0,1.1814,"[""0.297"",""0.491"",""0.103"",""0.888""]","[1,1,0,1]",0,63,63,63,1,0,0,,,1,FALSE,,,,,,,,,,,,,,,,,,,,,,,,,,,,,,,
,5fcabc958a2a9d78cd4b0d4f,627c762f3015f0b9b9c103fe,2022-05-11_22h51.44.516,classification_task,2021.2.3,Win32,58.9935697,627c6715c52fd12f31907bd0,,,,,,,,,,,,,,,,,,,,,,,,,,,,,,,,,,,,,,,0, ,,0,5.030619244,190.7629,0,1,1,1,1,2,2,,,,,,,,,,,,,,,,,,
,5fcabc958a2a9d78cd4b0d4f,627c762f3015f0b9b9c103fe,2022-05-11_22h51.44.516,classification_task,2021.2.3,Win32,58.9935697,627c6715c52fd12f31907bd0,,,,,,,,,,,,,,,,,,,,,,,,,,,,,,,,,,,,,,,1,  ,,0,8.435479504,194.0862,0,1,1,1,1,2,2,,,,,,,,,,,,,,,,,,
,5fcabc958a2a9d78cd4b0d4f,627c762f3015f0b9b9c103fe,2022-05-11_22h51.44.516,classification_task,2021.2.3,Win32,58.9935697,627c6715c52fd12f31907bd0,,,,,,,,,,,,,,,,,,,,,,,,,,,,,,,,,,,,,,,2,  ,,0,9.023369354,195.3991,0,1,1,1,1,2,2,,,,,,,,,,,,,,,,,,
,5fcabc958a2a9d78cd4b0d4f,627c762f3015f0b9b9c103fe,2022-05-11_22h51.44.516,classification_task,2021.2.3,Win32,58.9935697,627c6715c52fd12f31907bd0,,,,,,,,,,,,,,,,,,,,,,,,,,,,,,,,,,,,,,,,,,,,,0,1,1,1,1,,2,,,,,,,,,,,,,,,,,,
,5fcabc958a2a9d78cd4b0d4f,627c762f3015f0b9b9c103fe,2022-05-11_22h51.44.516,classification_task,2021.2.3,Win32,58.9935697,627c6715c52fd12f31907bd0,,,,,,,,,,,,,,,,,,,,,space,7.0533,a,0,1.8505,"[""0.095"",""0.331"",""0.532"",""0.817""]","[0,1,1,1]",0,0,0,0,1,1,1,,,1,FALSE,,,,,,,,,,,,,,,,,,,,,,,,,,,,,,,
,5fcabc958a2a9d78cd4b0d4f,627c762f3015f0b9b9c103fe,2022-05-11_22h51.44.516,classification_task,2021.2.3,Win32,58.9935697,627c6715c52fd12f31907bd0,,,,,,,,,,,,,,,,,,,,,,,a,0,0.9633,"[""0.041"",""0.331"",""0.532"",""0.103""]","[1,1,1,0]",0,1,1,1,1,1,1,,,1,FALSE,,,,,,,,,,,,,,,,,,,,,,,,,,,,,,,
,5fcabc958a2a9d78cd4b0d4f,627c762f3015f0b9b9c103fe,2022-05-11_22h51.44.516,classification_task,2021.2.3,Win32,58.9935697,627c6715c52fd12f31907bd0,,,,,,,,,,,,,,,,,,,,,,,l,0,0.8328,"[""0.297"",""0.491"",""0.592"",""0.925""]","[1,1,1,0]",0,2,2,2,1,0,0,,,1,FALSE,,,,,,,,,,,,,,,,,,,,,,,,,,,,,,,
,5fcabc958a2a9d78cd4b0d4f,627c762f3015f0b9b9c103fe,2022-05-11_22h51.44.516,classification_task,2021.2.3,Win32,58.9935697,627c6715c52fd12f31907bd0,,,,,,,,,,,,,,,,,,,,,,,a,0,1.5172,"[""0.153"",""0.241"",""0.449"",""0.853""]","[1,1,1,0]",0,3,3,3,1,1,0,,,1,FALSE,,,,,,,,,,,,,,,,,,,,,,,,,,,,,,,
,5fcabc958a2a9d78cd4b0d4f,627c762f3015f0b9b9c103fe,2022-05-11_22h51.44.516,classification_task,2021.2.3,Win32,58.9935697,627c6715c52fd12f31907bd0,,,,,,,,,,,,,,,,,,,,,,,l,1,1.2838,"[""0.153"",""0.241"",""0.650"",""0.781""]","[1,1,0,1]",0,4,4,4,1,1,0,,,1,FALSE,,,,,,,,,,,,,,,,,,,,,,,,,,,,,,,
,5fcabc958a2a9d78cd4b0d4f,627c762f3015f0b9b9c103fe,2022-05-11_22h51.44.516,classification_task,2021.2.3,Win32,58.9935697,627c6715c52fd12f31907bd0,,,,,,,,,,,,,,,,,,,,,,,l,0,0.6174,"[""0.207"",""0.383"",""0.650"",""0.962""]","[1,1,0,1]",0,5,5,5,1,0,1,,,1,FALSE,,,,,,,,,,,,,,,,,,,,,,,,,,,,,,,
,5fcabc958a2a9d78cd4b0d4f,627c762f3015f0b9b9c103fe,2022-05-11_22h51.44.516,classification_task,2021.2.3,Win32,58.9935697,627c6715c52fd12f31907bd0,,,,,,,,,,,,,,,,,,,,,,,a,1,0.6662,"[""0.103"",""0.383"",""0.722"",""0.962""]","[0,1,1,1]",0,6,6,6,1,0,1,,,1,FALSE,,,,,,,,,,,,,,,,,,,,,,,,,,,,,,,
,5fcabc958a2a9d78cd4b0d4f,627c762f3015f0b9b9c103fe,2022-05-11_22h51.44.516,classification_task,2021.2.3,Win32,58.9935697,627c6715c52fd12f31907bd0,,,,,,,,,,,,,,,,,,,,,,,l,1,1.5654,"[""0.091"",""0.241"",""0.449"",""0.781""]","[0,1,1,1]",0,7,7,7,1,1,0,,,1,FALSE,,,,,,,,,,,,,,,,,,,,,,,,,,,,,,,
,5fcabc958a2a9d78cd4b0d4f,627c762f3015f0b9b9c103fe,2022-05-11_22h51.44.516,classification_task,2021.2.3,Win32,58.9935697,627c6715c52fd12f31907bd0,,,,,,,,,,,,,,,,,,,,,,,l,0,2.4658,"[""0.207"",""0.103"",""0.722"",""0.962""]","[1,0,1,1]",0,8,8,8,1,0,1,,,1,FALSE,,,,,,,,,,,,,,,,,,,,,,,,,,,,,,,
,5fcabc958a2a9d78cd4b0d4f,627c762f3015f0b9b9c103fe,2022-05-11_22h51.44.516,classification_task,2021.2.3,Win32,58.9935697,627c6715c52fd12f31907bd0,,,,,,,,,,,,,,,,,,,,,,,a,0,1.2628,"[""0.041"",""0.853"",""0.532"",""0.817""]","[1,0,1,1]",0,9,9,9,1,1,1,,,1,FALSE,,,,,,,,,,,,,,,,,,,,,,,,,,,,,,,
,5fcabc958a2a9d78cd4b0d4f,627c762f3015f0b9b9c103fe,2022-05-11_22h51.44.516,classification_task,2021.2.3,Win32,58.9935697,627c6715c52fd12f31907bd0,,,,,,,,,,,,,,,,,,,,,,,a,1,2.9154,"[""0.297"",""0.107"",""0.592"",""0.888""]","[1,0,1,1]",0,10,10,10,1,0,0,,,1,FALSE,,,,,,,,,,,,,,,,,,,,,,,,,,,,,,,
,5fcabc958a2a9d78cd4b0d4f,627c762f3015f0b9b9c103fe,2022-05-11_22h51.44.516,classification_task,2021.2.3,Win32,58.9935697,627c6715c52fd12f31907bd0,,,,,,,,,,,,,,,,,,,,,,,l,1,1.3466,"[""0.041"",""0.331"",""0.669"",""0.817""]","[1,1,0,1]",0,11,11,11,1,1,1,,,1,FALSE,,,,,,,,,,,,,,,,,,,,,,,,,,,,,,,
,5fcabc958a2a9d78cd4b0d4f,627c762f3015f0b9b9c103fe,2022-05-11_22h51.44.516,classification_task,2021.2.3,Win32,58.9935697,627c6715c52fd12f31907bd0,,,,,,,,,,,,,,,,,,,,,,,a,0,1.4495,"[""0.153"",""0.853"",""0.449"",""0.781""]","[1,0,1,1]",0,12,12,12,1,1,0,,,1,FALSE,,,,,,,,,,,,,,,,,,,,,,,,,,,,,,,
,5fcabc958a2a9d78cd4b0d4f,627c762f3015f0b9b9c103fe,2022-05-11_22h51.44.516,classification_task,2021.2.3,Win32,58.9935697,627c6715c52fd12f31907bd0,,,,,,,,,,,,,,,,,,,,,,,a,1,1.5327,"[""0.297"",""0.491"",""0.675"",""0.888""]","[1,1,0,1]",0,13,13,13,1,0,0,,,1,FALSE,,,,,,,,,,,,,,,,,,,,,,,,,,,,,,,
,5fcabc958a2a9d78cd4b0d4f,627c762f3015f0b9b9c103fe,2022-05-11_22h51.44.516,classification_task,2021.2.3,Win32,58.9935697,627c6715c52fd12f31907bd0,,,,,,,,,,,,,,,,,,,,,,,l,0,1.7162,"[""0.091"",""0.491"",""0.592"",""0.888""]","[0,1,1,1]",0,14,14,14,1,0,0,,,1,FALSE,,,,,,,,,,,,,,,,,,,,,,,,,,,,,,,
,5fcabc958a2a9d78cd4b0d4f,627c762f3015f0b9b9c103fe,2022-05-11_22h51.44.516,classification_task,2021.2.3,Win32,58.9935697,627c6715c52fd12f31907bd0,,,,,,,,,,,,,,,,,,,,,,,l,0,1.5322,"[""0.207"",""0.383"",""0.722"",""0.650""]","[1,1,1,0]",0,15,15,15,1,0,1,,,1,FALSE,,,,,,,,,,,,,,,,,,,,,,,,,,,,,,,
,5fcabc958a2a9d78cd4b0d4f,627c762f3015f0b9b9c103fe,2022-05-11_22h51.44.516,classification_task,2021.2.3,Win32,58.9935697,627c6715c52fd12f31907bd0,,,,,,,,,,,,,,,,,,,,,,,a,1,0.834,"[""0.297"",""0.491"",""0.592"",""0.079""]","[1,1,1,0]",0,16,16,16,1,0,0,,,1,FALSE,,,,,,,,,,,,,,,,,,,,,,,,,,,,,,,
,5fcabc958a2a9d78cd4b0d4f,627c762f3015f0b9b9c103fe,2022-05-11_22h51.44.516,classification_task,2021.2.3,Win32,58.9935697,627c6715c52fd12f31907bd0,,,,,,,,,,,,,,,,,,,,,,,l,1,2.7972,"[""0.653"",""0.241"",""0.449"",""0.781""]","[0,1,1,1]",0,17,17,17,1,1,0,,,1,FALSE,,,,,,,,,,,,,,,,,,,,,,,,,,,,,,,
,5fcabc958a2a9d78cd4b0d4f,627c762f3015f0b9b9c103fe,2022-05-11_22h51.44.516,classification_task,2021.2.3,Win32,58.9935697,627c6715c52fd12f31907bd0,,,,,,,,,,,,,,,,,,,,,,,l,0,1.2487,"[""0.297"",""0.491"",""0.095"",""0.888""]","[1,1,0,1]",0,18,18,18,1,0,0,,,1,FALSE,,,,,,,,,,,,,,,,,,,,,,,,,,,,,,,
,5fcabc958a2a9d78cd4b0d4f,627c762f3015f0b9b9c103fe,2022-05-11_22h51.44.516,classification_task,2021.2.3,Win32,58.9935697,627c6715c52fd12f31907bd0,,,,,,,,,,,,,,,,,,,,,,,l,1,1.7346,"[""0.153"",""0.241"",""0.449"",""0.100""]","[1,1,1,0]",0,19,19,19,1,1,0,,,1,FALSE,,,,,,,,,,,,,,,,,,,,,,,,,,,,,,,
,5fcabc958a2a9d78cd4b0d4f,627c762f3015f0b9b9c103fe,2022-05-11_22h51.44.516,classification_task,2021.2.3,Win32,58.9935697,627c6715c52fd12f31907bd0,,,,,,,,,,,,,,,,,,,,,,,a,1,1.848,"[""0.297"",""0.103"",""0.592"",""0.888""]","[1,0,1,1]",0,20,20,20,1,0,0,,,1,FALSE,,,,,,,,,,,,,,,,,,,,,,,,,,,,,,,
,5fcabc958a2a9d78cd4b0d4f,627c762f3015f0b9b9c103fe,2022-05-11_22h51.44.516,classification_task,2021.2.3,Win32,58.9935697,627c6715c52fd12f31907bd0,,,,,,,,,,,,,,,,,,,,,,,a,0,1.5823,"[""0.091"",""0.331"",""0.532"",""0.817""]","[0,1,1,1]",0,21,21,21,1,1,1,,,1,FALSE,,,,,,,,,,,,,,,,,,,,,,,,,,,,,,,
,5fcabc958a2a9d78cd4b0d4f,627c762f3015f0b9b9c103fe,2022-05-11_22h51.44.516,classification_task,2021.2.3,Win32,58.9935697,627c6715c52fd12f31907bd0,,,,,,,,,,,,,,,,,,,,,,,l,1,2.1497,"[""0.153"",""0.241"",""0.669"",""0.781""]","[1,1,0,1]",0,22,22,22,1,1,0,,,1,FALSE,,,,,,,,,,,,,,,,,,,,,,,,,,,,,,,
,5fcabc958a2a9d78cd4b0d4f,627c762f3015f0b9b9c103fe,2022-05-11_22h51.44.516,classification_task,2021.2.3,Win32,58.9935697,627c6715c52fd12f31907bd0,,,,,,,,,,,,,,,,,,,,,,,l,0,0.9012,"[""0.650"",""0.383"",""0.722"",""0.962""]","[0,1,1,1]",0,23,23,23,1,0,1,,,1,FALSE,,,,,,,,,,,,,,,,,,,,,,,,,,,,,,,
,5fcabc958a2a9d78cd4b0d4f,627c762f3015f0b9b9c103fe,2022-05-11_22h51.44.516,classification_task,2021.2.3,Win32,58.9935697,627c6715c52fd12f31907bd0,,,,,,,,,,,,,,,,,,,,,,,a,1,1.9181,"[""0.653"",""0.491"",""0.592"",""0.888""]","[0,1,1,1]",0,24,24,24,1,0,0,,,1,FALSE,,,,,,,,,,,,,,,,,,,,,,,,,,,,,,,
,5fcabc958a2a9d78cd4b0d4f,627c762f3015f0b9b9c103fe,2022-05-11_22h51.44.516,classification_task,2021.2.3,Win32,58.9935697,627c6715c52fd12f31907bd0,,,,,,,,,,,,,,,,,,,,,,,l,1,0.986,"[""0.153"",""0.683"",""0.449"",""0.781""]","[1,0,1,1]",0,25,25,25,1,1,0,,,1,FALSE,,,,,,,,,,,,,,,,,,,,,,,,,,,,,,,
,5fcabc958a2a9d78cd4b0d4f,627c762f3015f0b9b9c103fe,2022-05-11_22h51.44.516,classification_task,2021.2.3,Win32,58.9935697,627c6715c52fd12f31907bd0,,,,,,,,,,,,,,,,,,,,,,,a,0,1.3971,"[""0.041"",""0.683"",""0.532"",""0.817""]","[1,0,1,1]",0,26,26,26,1,1,1,,,1,FALSE,,,,,,,,,,,,,,,,,,,,,,,,,,,,,,,
,5fcabc958a2a9d78cd4b0d4f,627c762f3015f0b9b9c103fe,2022-05-11_22h51.44.516,classification_task,2021.2.3,Win32,58.9935697,627c6715c52fd12f31907bd0,,,,,,,,,,,,,,,,,,,,,,,a,0,0.7187,"[""0.041"",""0.331"",""0.532"",""0.675""]","[1,1,1,0]",0,27,27,27,1,1,1,,,1,FALSE,,,,,,,,,,,,,,,,,,,,,,,,,,,,,,,
,5fcabc958a2a9d78cd4b0d4f,627c762f3015f0b9b9c103fe,2022-05-11_22h51.44.516,classification_task,2021.2.3,Win32,58.9935697,627c6715c52fd12f31907bd0,,,,,,,,,,,,,,,,,,,,,,,l,1,0.5683,"[""0.041"",""0.331"",""0.683"",""0.817""]","[1,1,0,1]",0,28,28,28,1,1,1,,,1,FALSE,,,,,,,,,,,,,,,,,,,,,,,,,,,,,,,
,5fcabc958a2a9d78cd4b0d4f,627c762f3015f0b9b9c103fe,2022-05-11_22h51.44.516,classification_task,2021.2.3,Win32,58.9935697,627c6715c52fd12f31907bd0,,,,,,,,,,,,,,,,,,,,,,,a,1,1.4653,"[""0.207"",""0.383"",""0.103"",""0.962""]","[1,1,0,1]",0,29,29,29,1,0,1,,,1,FALSE,,,,,,,,,,,,,,,,,,,,,,,,,,,,,,,
,5fcabc958a2a9d78cd4b0d4f,627c762f3015f0b9b9c103fe,2022-05-11_22h51.44.516,classification_task,2021.2.3,Win32,58.9935697,627c6715c52fd12f31907bd0,,,,,,,,,,,,,,,,,,,,,,,l,0,0.3373,"[""0.207"",""0.650"",""0.722"",""0.962""]","[1,0,1,1]",0,30,30,30,1,0,1,,,1,FALSE,,,,,,,,,,,,,,,,,,,,,,,,,,,,,,,
,5fcabc958a2a9d78cd4b0d4f,627c762f3015f0b9b9c103fe,2022-05-11_22h51.44.516,classification_task,2021.2.3,Win32,58.9935697,627c6715c52fd12f31907bd0,,,,,,,,,,,,,,,,,,,,,,,l,0,0.7311,"[""0.207"",""0.383"",""0.722"",""0.669""]","[1,1,1,0]",0,31,31,31,1,0,1,,,1,FALSE,,,,,,,,,,,,,,,,,,,,,,,,,,,,,,,
,5fcabc958a2a9d78cd4b0d4f,627c762f3015f0b9b9c103fe,2022-05-11_22h51.44.516,classification_task,2021.2.3,Win32,58.9935697,627c6715c52fd12f31907bd0,,,,,,,,,,,,,,,,,,,,,,,l,1,1.2679,"[""0.153"",""0.241"",""0.103"",""0.781""]","[1,1,0,1]",0,32,32,32,1,1,0,,,1,FALSE,,,,,,,,,,,,,,,,,,,,,,,,,,,,,,,
,5fcabc958a2a9d78cd4b0d4f,627c762f3015f0b9b9c103fe,2022-05-11_22h51.44.516,classification_task,2021.2.3,Win32,58.9935697,627c6715c52fd12f31907bd0,,,,,,,,,,,,,,,,,,,,,,,l,1,1.2863,"[""0.095"",""0.331"",""0.532"",""0.817""]","[0,1,1,1]",0,33,33,33,1,1,1,,,1,FALSE,,,,,,,,,,,,,,,,,,,,,,,,,,,,,,,
,5fcabc958a2a9d78cd4b0d4f,627c762f3015f0b9b9c103fe,2022-05-11_22h51.44.516,classification_task,2021.2.3,Win32,58.9935697,627c6715c52fd12f31907bd0,,,,,,,,,,,,,,,,,,,,,,,a,1,0.2821,"[""0.207"",""0.383"",""0.722"",""0.675""]","[1,1,1,0]",0,34,34,34,1,0,1,,,1,FALSE,,,,,,,,,,,,,,,,,,,,,,,,,,,,,,,
,5fcabc958a2a9d78cd4b0d4f,627c762f3015f0b9b9c103fe,2022-05-11_22h51.44.516,classification_task,2021.2.3,Win32,58.9935697,627c6715c52fd12f31907bd0,,,,,,,,,,,,,,,,,,,,,,,l,1,1.8325,"[""0.091"",""0.241"",""0.449"",""0.781""]","[0,1,1,1]",0,35,35,35,1,1,0,,,1,FALSE,,,,,,,,,,,,,,,,,,,,,,,,,,,,,,,
,5fcabc958a2a9d78cd4b0d4f,627c762f3015f0b9b9c103fe,2022-05-11_22h51.44.516,classification_task,2021.2.3,Win32,58.9935697,627c6715c52fd12f31907bd0,,,,,,,,,,,,,,,,,,,,,,,a,0,0.7356,"[""0.041"",""0.331"",""0.532"",""0.650""]","[1,1,1,0]",0,36,36,36,1,1,1,,,1,FALSE,,,,,,,,,,,,,,,,,,,,,,,,,,,,,,,
,5fcabc958a2a9d78cd4b0d4f,627c762f3015f0b9b9c103fe,2022-05-11_22h51.44.516,classification_task,2021.2.3,Win32,58.9935697,627c6715c52fd12f31907bd0,,,,,,,,,,,,,,,,,,,,,,,a,1,1.8493,"[""0.207"",""0.650"",""0.722"",""0.962""]","[1,0,1,1]",0,37,37,37,1,0,1,,,1,FALSE,,,,,,,,,,,,,,,,,,,,,,,,,,,,,,,
,5fcabc958a2a9d78cd4b0d4f,627c762f3015f0b9b9c103fe,2022-05-11_22h51.44.516,classification_task,2021.2.3,Win32,58.9935697,627c6715c52fd12f31907bd0,,,,,,,,,,,,,,,,,,,,,,,l,0,0.911,"[""0.297"",""0.491"",""0.592"",""0.650""]","[1,1,1,0]",0,38,38,38,1,0,0,,,1,FALSE,,,,,,,,,,,,,,,,,,,,,,,,,,,,,,,
,5fcabc958a2a9d78cd4b0d4f,627c762f3015f0b9b9c103fe,2022-05-11_22h51.44.516,classification_task,2021.2.3,Win32,58.9935697,627c6715c52fd12f31907bd0,,,,,,,,,,,,,,,,,,,,,,,a,1,1.5655,"[""0.650"",""0.491"",""0.592"",""0.888""]","[0,1,1,1]",0,39,39,39,1,0,0,,,1,FALSE,,,,,,,,,,,,,,,,,,,,,,,,,,,,,,,
,5fcabc958a2a9d78cd4b0d4f,627c762f3015f0b9b9c103fe,2022-05-11_22h51.44.516,classification_task,2021.2.3,Win32,58.9935697,627c6715c52fd12f31907bd0,,,,,,,,,,,,,,,,,,,,,,,l,0,0.8501,"[""0.297"",""0.091"",""0.592"",""0.888""]","[1,0,1,1]",0,40,40,40,1,0,0,,,1,FALSE,,,,,,,,,,,,,,,,,,,,,,,,,,,,,,,
,5fcabc958a2a9d78cd4b0d4f,627c762f3015f0b9b9c103fe,2022-05-11_22h51.44.516,classification_task,2021.2.3,Win32,58.9935697,627c6715c52fd12f31907bd0,,,,,,,,,,,,,,,,,,,,,,,l,0,1.6028,"[""0.297"",""0.491"",""0.079"",""0.888""]","[1,1,0,1]",0,41,41,41,1,0,0,,,1,FALSE,,,,,,,,,,,,,,,,,,,,,,,,,,,,,,,
,5fcabc958a2a9d78cd4b0d4f,627c762f3015f0b9b9c103fe,2022-05-11_22h51.44.516,classification_task,2021.2.3,Win32,58.9935697,627c6715c52fd12f31907bd0,,,,,,,,,,,,,,,,,,,,,,,l,1,1.0342,"[""0.153"",""0.100"",""0.449"",""0.781""]","[1,0,1,1]",0,42,42,42,1,1,0,,,1,FALSE,,,,,,,,,,,,,,,,,,,,,,,,,,,,,,,
,5fcabc958a2a9d78cd4b0d4f,627c762f3015f0b9b9c103fe,2022-05-11_22h51.44.516,classification_task,2021.2.3,Win32,58.9935697,627c6715c52fd12f31907bd0,,,,,,,,,,,,,,,,,,,,,,,a,0,0.6514,"[""0.153"",""0.241"",""0.449"",""0.650""]","[1,1,1,0]",0,43,43,43,1,1,0,,,1,FALSE,,,,,,,,,,,,,,,,,,,,,,,,,,,,,,,
,5fcabc958a2a9d78cd4b0d4f,627c762f3015f0b9b9c103fe,2022-05-11_22h51.44.516,classification_task,2021.2.3,Win32,58.9935697,627c6715c52fd12f31907bd0,,,,,,,,,,,,,,,,,,,,,,,l,1,1.5662,"[""0.041"",""0.331"",""0.925"",""0.817""]","[1,1,0,1]",0,44,44,44,1,1,1,,,1,FALSE,,,,,,,,,,,,,,,,,,,,,,,,,,,,,,,
,5fcabc958a2a9d78cd4b0d4f,627c762f3015f0b9b9c103fe,2022-05-11_22h51.44.516,classification_task,2021.2.3,Win32,58.9935697,627c6715c52fd12f31907bd0,,,,,,,,,,,,,,,,,,,,,,,a,1,1.1666,"[""0.207"",""0.383"",""0.100"",""0.962""]","[1,1,0,1]",0,45,45,45,1,0,1,,,1,FALSE,,,,,,,,,,,,,,,,,,,,,,,,,,,,,,,
,5fcabc958a2a9d78cd4b0d4f,627c762f3015f0b9b9c103fe,2022-05-11_22h51.44.516,classification_task,2021.2.3,Win32,58.9935697,627c6715c52fd12f31907bd0,,,,,,,,,,,,,,,,,,,,,,,a,1,2.2507,"[""0.675"",""0.383"",""0.722"",""0.962""]","[0,1,1,1]",0,46,46,46,1,0,1,,,1,FALSE,,,,,,,,,,,,,,,,,,,,,,,,,,,,,,,
,5fcabc958a2a9d78cd4b0d4f,627c762f3015f0b9b9c103fe,2022-05-11_22h51.44.516,classification_task,2021.2.3,Win32,58.9935697,627c6715c52fd12f31907bd0,,,,,,,,,,,,,,,,,,,,,,,l,1,0.7158,"[""0.041"",""0.925"",""0.532"",""0.817""]","[1,0,1,1]",0,47,47,47,1,1,1,,,1,FALSE,,,,,,,,,,,,,,,,,,,,,,,,,,,,,,,
,5fcabc958a2a9d78cd4b0d4f,627c762f3015f0b9b9c103fe,2022-05-11_22h51.44.516,classification_task,2021.2.3,Win32,58.9935697,627c6715c52fd12f31907bd0,,,,,,,,,,,,,,,,,,,,,,,a,1,0.9822,"[""0.207"",""0.383"",""0.722"",""0.650""]","[1,1,1,0]",0,48,48,48,1,0,1,,,1,FALSE,,,,,,,,,,,,,,,,,,,,,,,,,,,,,,,
,5fcabc958a2a9d78cd4b0d4f,627c762f3015f0b9b9c103fe,2022-05-11_22h51.44.516,classification_task,2021.2.3,Win32,58.9935697,627c6715c52fd12f31907bd0,,,,,,,,,,,,,,,,,,,,,,,l,0,1.2657,"[""0.297"",""0.491"",""0.592"",""0.650""]","[1,1,1,0]",0,49,49,49,1,0,0,,,1,FALSE,,,,,,,,,,,,,,,,,,,,,,,,,,,,,,,
,5fcabc958a2a9d78cd4b0d4f,627c762f3015f0b9b9c103fe,2022-05-11_22h51.44.516,classification_task,2021.2.3,Win32,58.9935697,627c6715c52fd12f31907bd0,,,,,,,,,,,,,,,,,,,,,,,l,0,0.7486,"[""0.207"",""0.383"",""0.103"",""0.962""]","[1,1,0,1]",0,50,50,50,1,0,1,,,1,FALSE,,,,,,,,,,,,,,,,,,,,,,,,,,,,,,,
,5fcabc958a2a9d78cd4b0d4f,627c762f3015f0b9b9c103fe,2022-05-11_22h51.44.516,classification_task,2021.2.3,Win32,58.9935697,627c6715c52fd12f31907bd0,,,,,,,,,,,,,,,,,,,,,,,a,0,0.8004,"[""0.925"",""0.241"",""0.449"",""0.781""]","[0,1,1,1]",0,51,51,51,1,1,0,,,1,FALSE,,,,,,,,,,,,,,,,,,,,,,,,,,,,,,,
,5fcabc958a2a9d78cd4b0d4f,627c762f3015f0b9b9c103fe,2022-05-11_22h51.44.516,classification_task,2021.2.3,Win32,58.9935697,627c6715c52fd12f31907bd0,,,,,,,,,,,,,,,,,,,,,,,l,0,1.2831,"[""0.650"",""0.491"",""0.592"",""0.888""]","[0,1,1,1]",0,52,52,52,1,0,0,,,1,FALSE,,,,,,,,,,,,,,,,,,,,,,,,,,,,,,,
,5fcabc958a2a9d78cd4b0d4f,627c762f3015f0b9b9c103fe,2022-05-11_22h51.44.516,classification_task,2021.2.3,Win32,58.9935697,627c6715c52fd12f31907bd0,,,,,,,,,,,,,,,,,,,,,,,a,1,0.8161,"[""0.207"",""0.650"",""0.722"",""0.962""]","[1,0,1,1]",0,53,53,53,1,0,1,,,1,FALSE,,,,,,,,,,,,,,,,,,,,,,,,,,,,,,,
,5fcabc958a2a9d78cd4b0d4f,627c762f3015f0b9b9c103fe,2022-05-11_22h51.44.516,classification_task,2021.2.3,Win32,58.9935697,627c6715c52fd12f31907bd0,,,,,,,,,,,,,,,,,,,,,,,a,0,1.5488,"[""0.153"",""0.683"",""0.449"",""0.781""]","[1,0,1,1]",0,54,54,54,1,1,0,,,1,FALSE,,,,,,,,,,,,,,,,,,,,,,,,,,,,,,,
,5fcabc958a2a9d78cd4b0d4f,627c762f3015f0b9b9c103fe,2022-05-11_22h51.44.516,classification_task,2021.2.3,Win32,58.9935697,627c6715c52fd12f31907bd0,,,,,,,,,,,,,,,,,,,,,,,l,1,0.5331,"[""0.041"",""0.091"",""0.532"",""0.817""]","[1,0,1,1]",0,55,55,55,1,1,1,,,1,FALSE,,,,,,,,,,,,,,,,,,,,,,,,,,,,,,,
,5fcabc958a2a9d78cd4b0d4f,627c762f3015f0b9b9c103fe,2022-05-11_22h51.44.516,classification_task,2021.2.3,Win32,58.9935697,627c6715c52fd12f31907bd0,,,,,,,,,,,,,,,,,,,,,,,l,0,0.5858,"[""0.297"",""0.491"",""0.653"",""0.888""]","[1,1,0,1]",0,56,56,56,1,0,0,,,1,FALSE,,,,,,,,,,,,,,,,,,,,,,,,,,,,,,,
,5fcabc958a2a9d78cd4b0d4f,627c762f3015f0b9b9c103fe,2022-05-11_22h51.44.516,classification_task,2021.2.3,Win32,58.9935697,627c6715c52fd12f31907bd0,,,,,,,,,,,,,,,,,,,,,,,a,0,1.8306,"[""0.041"",""0.331"",""0.091"",""0.817""]","[1,1,0,1]",0,57,57,57,1,1,1,,,1,FALSE,,,,,,,,,,,,,,,,,,,,,,,,,,,,,,,
,5fcabc958a2a9d78cd4b0d4f,627c762f3015f0b9b9c103fe,2022-05-11_22h51.44.516,classification_task,2021.2.3,Win32,58.9935697,627c6715c52fd12f31907bd0,,,,,,,,,,,,,,,,,,,,,,,a,0,1.0493,"[""0.041"",""0.331"",""0.532"",""0.100""]","[1,1,1,0]",0,58,58,58,1,1,1,,,1,FALSE,,,,,,,,,,,,,,,,,,,,,,,,,,,,,,,
,5fcabc958a2a9d78cd4b0d4f,627c762f3015f0b9b9c103fe,2022-05-11_22h51.44.516,classification_task,2021.2.3,Win32,58.9935697,627c6715c52fd12f31907bd0,,,,,,,,,,,,,,,,,,,,,,,a,0,1.0648,"[""0.683"",""0.331"",""0.532"",""0.817""]","[0,1,1,1]",0,59,59,59,1,1,1,,,1,FALSE,,,,,,,,,,,,,,,,,,,,,,,,,,,,,,,
,5fcabc958a2a9d78cd4b0d4f,627c762f3015f0b9b9c103fe,2022-05-11_22h51.44.516,classification_task,2021.2.3,Win32,58.9935697,627c6715c52fd12f31907bd0,,,,,,,,,,,,,,,,,,,,,,,l,0,0.4166,"[""0.297"",""0.100"",""0.592"",""0.888""]","[1,0,1,1]",0,60,60,60,1,0,0,,,1,FALSE,,,,,,,,,,,,,,,,,,,,,,,,,,,,,,,
,5fcabc958a2a9d78cd4b0d4f,627c762f3015f0b9b9c103fe,2022-05-11_22h51.44.516,classification_task,2021.2.3,Win32,58.9935697,627c6715c52fd12f31907bd0,,,,,,,,,,,,,,,,,,,,,,,l,1,0.6857,"[""0.153"",""0.241"",""0.449"",""0.925""]","[1,1,1,0]",0,61,61,61,1,1,0,,,1,FALSE,,,,,,,,,,,,,,,,,,,,,,,,,,,,,,,
,5fcabc958a2a9d78cd4b0d4f,627c762f3015f0b9b9c103fe,2022-05-11_22h51.44.516,classification_task,2021.2.3,Win32,58.9935697,627c6715c52fd12f31907bd0,,,,,,,,,,,,,,,,,,,,,,,a,1,1.284,"[""0.650"",""0.383"",""0.722"",""0.962""]","[0,1,1,1]",0,62,62,62,1,0,1,,,1,FALSE,,,,,,,,,,,,,,,,,,,,,,,,,,,,,,,
,5fcabc958a2a9d78cd4b0d4f,627c762f3015f0b9b9c103fe,2022-05-11_22h51.44.516,classification_task,2021.2.3,Win32,58.9935697,627c6715c52fd12f31907bd0,,,,,,,,,,,,,,,,,,,,,,,l,1,0.2172,"[""0.153"",""0.241"",""0.650"",""0.781""]","[1,1,0,1]",0,63,63,63,1,1,0,,,1,FALSE,,,,,,,,,,,,,,,,,,,,,,,,,,,,,,,
,5fcabc958a2a9d78cd4b0d4f,627c762f3015f0b9b9c103fe,2022-05-11_22h51.44.516,classification_task,2021.2.3,Win32,58.9935697,627c6715c52fd12f31907bd0,,,,,,,,,,,,,,,,,,,,,,,,,,,,,,,,,,,,,,,0, ,,0,4.810160316,155.9128,0,2,2,2,1,2,3,,,,,,,,,,,,,,,,,,
,5fcabc958a2a9d78cd4b0d4f,627c762f3015f0b9b9c103fe,2022-05-11_22h51.44.516,classification_task,2021.2.3,Win32,58.9935697,627c6715c52fd12f31907bd0,,,,,,,,,,,,,,,,,,,,,,,,,,,,,,,,,,,,,,,1,  ,,0,8.533461457,157.4742,0,2,2,2,1,2,3,,,,,,,,,,,,,,,,,,
,5fcabc958a2a9d78cd4b0d4f,627c762f3015f0b9b9c103fe,2022-05-11_22h51.44.516,classification_task,2021.2.3,Win32,58.9935697,627c6715c52fd12f31907bd0,,,,,,,,,,,,,,,,,,,,,,,,,,,,,,,,,,,,,,,2,  ,,0,10,158.6131,0,2,2,2,1,2,3,,,,,,,,,,,,,,,,,,
,5fcabc958a2a9d78cd4b0d4f,627c762f3015f0b9b9c103fe,2022-05-11_22h51.44.516,classification_task,2021.2.3,Win32,58.9935697,627c6715c52fd12f31907bd0,,,,,,,,,,,,,,,,,,,,,,,,,,,,,,,,,,,,,,,,,,,,,0,2,2,2,1,,3,,,,,,,,,,,,,,,,,,
,5fcabc958a2a9d78cd4b0d4f,627c762f3015f0b9b9c103fe,2022-05-11_22h51.44.516,classification_task,2021.2.3,Win32,58.9935697,627c6715c52fd12f31907bd0,,,,,,,,,,,,,,,,,,,,,,,,,,,,,,,,,,,,,,,,,,,,,,,,,,,,,I believe the aid is a competent performer,,0.7,0,3,894.1978,0,0,0,0,1,0,,,,,
,5fcabc958a2a9d78cd4b0d4f,627c762f3015f0b9b9c103fe,2022-05-11_22h51.44.516,classification_task,2021.2.3,Win32,58.9935697,627c6715c52fd12f31907bd0,,,,,,,,,,,,,,,,,,,,,,,,,,,,,,,,,,,,,,,,,,,,,,,,,,,,,I trust the aid,,0.7,0,3,896.2604,0,0,0,0,1,0,,,,,
,5fcabc958a2a9d78cd4b0d4f,627c762f3015f0b9b9c103fe,2022-05-11_22h51.44.516,classification_task,2021.2.3,Win32,58.9935697,627c6715c52fd12f31907bd0,,,,,,,,,,,,,,,,,,,,,,,,,,,,,,,,,,,,,,,,,,,,,,,,,,,,,I have confidence in the advice given by the aid,,0.7,0,4,897.9006,0,0,0,0,1,0,,,,,
,5fcabc958a2a9d78cd4b0d4f,627c762f3015f0b9b9c103fe,2022-05-11_22h51.44.516,classification_task,2021.2.3,Win32,58.9935697,627c6715c52fd12f31907bd0,,,,,,,,,,,,,,,,,,,,,,,,,,,,,,,,,,,,,,,,,,,,,,,,,,,,,I can depend on the aid,,0.7,0,4,898.9166,0,0,0,0,1,0,,,,,
,5fcabc958a2a9d78cd4b0d4f,627c762f3015f0b9b9c103fe,2022-05-11_22h51.44.516,classification_task,2021.2.3,Win32,58.9935697,627c6715c52fd12f31907bd0,,,,,,,,,,,,,,,,,,,,,,,,,,,,,,,,,,,,,,,,,,,,,,,,,,,,,I can rely on the aid to behave in consistent ways,,0.7,0,3,901.0461,0,0,0,0,1,0,,,,,
,5fcabc958a2a9d78cd4b0d4f,627c762f3015f0b9b9c103fe,2022-05-11_22h51.44.516,classification_task,2021.2.3,Win32,58.9935697,627c6715c52fd12f31907bd0,,,,,,,,,,,,,,,,,,,,,,,,,,,,,,,,,,,,,,,,,,,,,,,,,,,,,I can rely on the aid to do its best every time I take its advice,,0.7,0,4,903.6108,0,0,0,0,1,0,,,,,
,5fcabc958a2a9d78cd4b0d4f,627c762f3015f0b9b9c103fe,2022-05-11_22h51.44.516,classification_task,2021.2.3,Win32,58.9935697,627c6715c52fd12f31907bd0,,,,,,,,,,,,,,,,,,,,,,,,,,,,,,,,,,,,,,,,,,,,,,,,,,,,,"On trials you completed with assistance from the aid, how frequently did you think the aid was correct?",,0.7,0,70%,,0,0,0,0,1,0,,,,,
,5fcabc958a2a9d78cd4b0d4f,627c762f3015f0b9b9c103fe,2022-05-11_22h51.44.516,classification_task,2021.2.3,Win32,58.9935697,627c6715c52fd12f31907bd0,,,,,,,,,,,,,,,,,,,,,,,,,,,,,,,,,,,,,,,,,,,,,,,,,,,,,"On trials you completed without the aid, how frequently did you think you were correct?",,0.7,0,65%,,0,0,0,0,1,0,,,,,
,5fcabc958a2a9d78cd4b0d4f,627c762f3015f0b9b9c103fe,2022-05-11_22h51.44.516,classification_task,2021.2.3,Win32,58.9935697,627c6715c52fd12f31907bd0,,,,,,,,,,,,,,,,,,,,,,,,,,,,,,,,,,,,,,,,,,,,,,,,,,,,,,,,,,,0,0,0,0,1,,,,,,
,5fcabc958a2a9d78cd4b0d4f,627c762f3015f0b9b9c103fe,2022-05-11_22h51.44.516,classification_task,2021.2.3,Win32,58.9935697,627c6715c52fd12f31907bd0,,,,,,,,,,,,,,,,,,,,,,,,,,,,,,,,,,,,,,,,,,,,,,,,,,,,,,,,,,,,,,,,,space,6.4655,924.7725,,
,5fcabc958a2a9d78cd4b0d4f,627c762f3015f0b9b9c103fe,2022-05-11_22h51.44.516,classification_task,2021.2.3,Win32,58.9935697,627c6715c52fd12f31907bd0,,,,,,,,,,,,,,,,,,,,,,,,,,,,,,,,,,,,,,,,,,,,,,,,,,,,,,,,,,,,,,,,,,,,"Mozilla/5.0 (Windows NT 10.0; Win64; x64) AppleWebKit/537.36 (KHTML, like Gecko) Chrome/101.0.4951.54 Safari/537.36",
,5fcabc958a2a9d78cd4b0d4f,627c762f3015f0b9b9c103fe,2022-05-11_22h51.44.516,classification_task,2021.2.3,Win32,58.9935697,627c6715c52fd12f31907bd0,,,,,,,,,,,,,,,,,,,,,,,,,,,,,,,,,,,,,,,,,,,,,,,,,,,,,,,,,,,,,,,,,,,,,FADING
