usingWebGL,participant,session,date,expName,psychopyVersion,OS,frameRate,study_id,signatures_friend,signatures_foe,band_ranges_top,band_ranges_bottom,formitemText,formtype,formundefined,formitemWidth,formindex,formresponse,formrt,key_resp_2.keys,key_resp_2.rt,tute_resp.keys,tute_resp.rt,tutorial.thisRepN,tutorial.thisTrialN,tutorial.thisN,tutorial.thisIndex,tutorial.ran,key_resp_4.keys,key_resp_4.rt,key_resp.keys,key_resp.corr,key_resp.rt,lines_presented,is_signal_presented,trials.thisRepN,trials.thisTrialN,trials.thisN,trials.thisIndex,trials.ran,vessel,active_band,lines,is_signal,supported_pos,catch_trial,debrief_formindex,debrief_formitemText,debrief_formtype,debrief_formitemWidth,debrief_formresponse,debrief_formrt,phases.thisRepN,phases.thisTrialN,phases.thisN,phases.thisIndex,phases.ran,phases.order,phase,key_resp_3.keys,trustitemText,trusttype,trustitemWidth,trustindex,trustresponse,trustrt,support_status.thisRepN,support_status.thisTrialN,support_status.thisN,support_status.thisIndex,support_status.ran,support_status.order,key_resp_5.keys,key_resp_5.rt,globalClockTime,userAgent,manualCondition
TRUE,5fd8e5d864c9d60e2a7d9aeb,627c6fd2f4d46ccf58a73434,2022-05-12_03h28.04.522,classification_task,2021.2.3,Win32,59.96641881,627c6715c52fd12f31907bcf,,,,,,,,,,,,,,,,,,,,,,,,,,,,,,,,,,,,,,,,,,,,,,,,,,,,,,,,,,,,,,,,,,,,,
,5fd8e5d864c9d60e2a7d9aeb,627c6fd2f4d46ccf58a73434,2022-05-12_03h28.04.522,classification_task,2021.2.3,Win32,59.96641881,627c6715c52fd12f31907bcf,"[[""0.225"",""0.328"",""0.616"",""0.931""],[""0.192"",""0.529"",""0.853"",""0.964""]]","[[""0.059"",""0.433"",""0.564"",""0.753""],[""0.156"",""0.288"",""0.490"",""0.795""]]","[1,10]","[100,1000]",Video game experience,,,0.7,0,,,,,,,,,,,,,,,,,,,,,,,,,,,,,,,,,,,,,,,,,,,,,,,,,,,,,,,,,,,,
,5fd8e5d864c9d60e2a7d9aeb,627c6fd2f4d46ccf58a73434,2022-05-12_03h28.04.522,classification_task,2021.2.3,Win32,59.96641881,627c6715c52fd12f31907bcf,,,,,Approximately how many hours did you spend playing video games in the last week?,,,0.7,0,20,,,,,,,,,,,,,,,,,,,,,,,,,,,,,,,,,,,,,,,,,,,,,,,,,,,,,,,,,,,
,5fd8e5d864c9d60e2a7d9aeb,627c6fd2f4d46ccf58a73434,2022-05-12_03h28.04.522,classification_task,2021.2.3,Win32,59.96641881,627c6715c52fd12f31907bcf,,,,,"Which game did you play the most this year? (Enter ""None"" if you didn't play any)",,,0.7,0,League of Legends,,,,,,,,,,,,,,,,,,,,,,,,,,,,,,,,,,,,,,,,,,,,,,,,,,,,,,,,,,,
,5fd8e5d864c9d60e2a7d9aeb,627c6fd2f4d46ccf58a73434,2022-05-12_03h28.04.522,classification_task,2021.2.3,Win32,59.96641881,627c6715c52fd12f31907bcf,,,,,Visual perception,,,0.7,0,,,,,,,,,,,,,,,,,,,,,,,,,,,,,,,,,,,,,,,,,,,,,,,,,,,,,,,,,,,,
,5fd8e5d864c9d60e2a7d9aeb,627c6fd2f4d46ccf58a73434,2022-05-12_03h28.04.522,classification_task,2021.2.3,Win32,59.96641881,627c6715c52fd12f31907bcf,,,,,Do you have any form of color blindness?,,,0.7,0,No,18.6417,,,,,,,,,,,,,,,,,,,,,,,,,,,,,,,,,,,,,,,,,,,,,,,,,,,,,,,,,,
,5fd8e5d864c9d60e2a7d9aeb,627c6fd2f4d46ccf58a73434,2022-05-12_03h28.04.522,classification_task,2021.2.3,Win32,59.96641881,627c6715c52fd12f31907bcf,,,,,Do you use software to change the colour temperature of your screen (e.g. f.lux)?,,,0.7,0,No,21.4806,,,,,,,,,,,,,,,,,,,,,,,,,,,,,,,,,,,,,,,,,,,,,,,,,,,,,,,,,,
,5fd8e5d864c9d60e2a7d9aeb,627c6fd2f4d46ccf58a73434,2022-05-12_03h28.04.522,classification_task,2021.2.3,Win32,59.96641881,627c6715c52fd12f31907bcf,,,,,,,,,,,,space,26.3729,space,10.565,0,0,0,0,1,,,,,,,,,,,,,,,,,,,,,,,,,,,,,,,,,,,,,,,,,,,,,,,,,
,5fd8e5d864c9d60e2a7d9aeb,627c6fd2f4d46ccf58a73434,2022-05-12_03h28.04.522,classification_task,2021.2.3,Win32,59.96641881,627c6715c52fd12f31907bcf,,,,,,,,,,,,,,space,8.2911,1,0,1,0,1,,,,,,,,,,,,,,,,,,,,,,,,,,,,,,,,,,,,,,,,,,,,,,,,,
,5fd8e5d864c9d60e2a7d9aeb,627c6fd2f4d46ccf58a73434,2022-05-12_03h28.04.522,classification_task,2021.2.3,Win32,59.96641881,627c6715c52fd12f31907bcf,,,,,,,,,,,,,,space,11.057,2,0,2,0,1,,,,,,,,,,,,,,,,,,,,,,,,,,,,,,,,,,,,,,,,,,,,,,,,,
,5fd8e5d864c9d60e2a7d9aeb,627c6fd2f4d46ccf58a73434,2022-05-12_03h28.04.522,classification_task,2021.2.3,Win32,59.96641881,627c6715c52fd12f31907bcf,,,,,,,,,,,,,,space,16.8579,3,0,3,0,1,,,,,,,,,,,,,,,,,,,,,,,,,,,,,,,,,,,,,,,,,,,,,,,,,
,5fd8e5d864c9d60e2a7d9aeb,627c6fd2f4d46ccf58a73434,2022-05-12_03h28.04.522,classification_task,2021.2.3,Win32,59.96641881,627c6715c52fd12f31907bcf,,,,,,,,,,,,,,space,11.1186,4,0,4,0,1,,,,,,,,,,,,,,,,,,,,,,,,,,,,,,,,,,,,,,,,,,,,,,,,,
,5fd8e5d864c9d60e2a7d9aeb,627c6fd2f4d46ccf58a73434,2022-05-12_03h28.04.522,classification_task,2021.2.3,Win32,59.96641881,627c6715c52fd12f31907bcf,,,,,,,,,,,,,,,,,,,,,space,12.1328,l,0,4.5113,"[""0.100"",""0.328"",""0.616"",""0.931""]","[0,1,1,1]",0,0,0,0,1,0,0,,,0,FALSE,,,,,,,,,,,,,,,,,,,,,,,,,,,,,,,
,5fd8e5d864c9d60e2a7d9aeb,627c6fd2f4d46ccf58a73434,2022-05-12_03h28.04.522,classification_task,2021.2.3,Win32,59.96641881,627c6715c52fd12f31907bcf,,,,,,,,,,,,,,,,,,,,,,,a,1,3.7505,"[""0.225"",""0.720"",""0.616"",""0.931""]","[1,0,1,1]",0,1,1,1,1,0,0,,,0,FALSE,,,,,,,,,,,,,,,,,,,,,,,,,,,,,,,
,5fd8e5d864c9d60e2a7d9aeb,627c6fd2f4d46ccf58a73434,2022-05-12_03h28.04.522,classification_task,2021.2.3,Win32,59.96641881,627c6715c52fd12f31907bcf,,,,,,,,,,,,,,,,,,,,,,,,0,,"[""0.889"",""0.288"",""0.490"",""0.795""]","[0,1,1,1]",0,2,2,2,1,1,1,,,0,FALSE,,,,,,,,,,,,,,,,,,,,,,,,,,,,,,,
,5fd8e5d864c9d60e2a7d9aeb,627c6fd2f4d46ccf58a73434,2022-05-12_03h28.04.522,classification_task,2021.2.3,Win32,59.96641881,627c6715c52fd12f31907bcf,,,,,,,,,,,,,,,,,,,,,,,l,1,3.3311,"[""0.059"",""0.433"",""0.119"",""0.753""]","[1,1,0,1]",0,3,3,3,1,1,0,,,0,FALSE,,,,,,,,,,,,,,,,,,,,,,,,,,,,,,,
,5fd8e5d864c9d60e2a7d9aeb,627c6fd2f4d46ccf58a73434,2022-05-12_03h28.04.522,classification_task,2021.2.3,Win32,59.96641881,627c6715c52fd12f31907bcf,,,,,,,,,,,,,,,,,,,,,,,l,1,3.0934,"[""0.156"",""0.365"",""0.490"",""0.795""]","[1,0,1,1]",0,4,4,4,1,1,1,,,0,FALSE,,,,,,,,,,,,,,,,,,,,,,,,,,,,,,,
,5fd8e5d864c9d60e2a7d9aeb,627c6fd2f4d46ccf58a73434,2022-05-12_03h28.04.522,classification_task,2021.2.3,Win32,59.96641881,627c6715c52fd12f31907bcf,,,,,,,,,,,,,,,,,,,,,,,l,0,2.9526,"[""0.225"",""0.328"",""0.100"",""0.931""]","[1,1,0,1]",0,5,5,5,1,0,0,,,0,FALSE,,,,,,,,,,,,,,,,,,,,,,,,,,,,,,,
,5fd8e5d864c9d60e2a7d9aeb,627c6fd2f4d46ccf58a73434,2022-05-12_03h28.04.522,classification_task,2021.2.3,Win32,59.96641881,627c6715c52fd12f31907bcf,,,,,,,,,,,,,,,,,,,,,,,a,1,5.8225,"[""0.192"",""0.113"",""0.853"",""0.964""]","[1,0,1,1]",0,6,6,6,1,0,1,,,0,FALSE,,,,,,,,,,,,,,,,,,,,,,,,,,,,,,,
,5fd8e5d864c9d60e2a7d9aeb,627c6fd2f4d46ccf58a73434,2022-05-12_03h28.04.522,classification_task,2021.2.3,Win32,59.96641881,627c6715c52fd12f31907bcf,,,,,,,,,,,,,,,,,,,,,,,a,1,4.1133,"[""0.225"",""0.328"",""0.616"",""0.100""]","[1,1,1,0]",0,7,7,7,1,0,0,,,0,FALSE,,,,,,,,,,,,,,,,,,,,,,,,,,,,,,,
,5fd8e5d864c9d60e2a7d9aeb,627c6fd2f4d46ccf58a73434,2022-05-12_03h28.04.522,classification_task,2021.2.3,Win32,59.96641881,627c6715c52fd12f31907bcf,,,,,,,,,,,,,,,,,,,,,,,a,0,3.862,"[""0.367"",""0.433"",""0.564"",""0.753""]","[0,1,1,1]",0,8,8,8,1,1,0,,,0,FALSE,,,,,,,,,,,,,,,,,,,,,,,,,,,,,,,
,5fd8e5d864c9d60e2a7d9aeb,627c6fd2f4d46ccf58a73434,2022-05-12_03h28.04.522,classification_task,2021.2.3,Win32,59.96641881,627c6715c52fd12f31907bcf,,,,,,,,,,,,,,,,,,,,,,,a,1,3.2599,"[""0.113"",""0.529"",""0.853"",""0.964""]","[0,1,1,1]",0,9,9,9,1,0,1,,,0,FALSE,,,,,,,,,,,,,,,,,,,,,,,,,,,,,,,
,5fd8e5d864c9d60e2a7d9aeb,627c6fd2f4d46ccf58a73434,2022-05-12_03h28.04.522,classification_task,2021.2.3,Win32,59.96641881,627c6715c52fd12f31907bcf,,,,,,,,,,,,,,,,,,,,,,,l,1,2.8495,"[""0.059"",""0.387"",""0.564"",""0.753""]","[1,0,1,1]",0,10,10,10,1,1,0,,,0,FALSE,,,,,,,,,,,,,,,,,,,,,,,,,,,,,,,
,5fd8e5d864c9d60e2a7d9aeb,627c6fd2f4d46ccf58a73434,2022-05-12_03h28.04.522,classification_task,2021.2.3,Win32,59.96641881,627c6715c52fd12f31907bcf,,,,,,,,,,,,,,,,,,,,,,,a,1,2.692,"[""0.192"",""0.529"",""0.853"",""0.676""]","[1,1,1,0]",0,11,11,11,1,0,1,,,0,FALSE,,,,,,,,,,,,,,,,,,,,,,,,,,,,,,,
,5fd8e5d864c9d60e2a7d9aeb,627c6fd2f4d46ccf58a73434,2022-05-12_03h28.04.522,classification_task,2021.2.3,Win32,59.96641881,627c6715c52fd12f31907bcf,,,,,,,,,,,,,,,,,,,,,,,l,1,3.1765,"[""0.059"",""0.433"",""0.564"",""0.720""]","[1,1,1,0]",0,12,12,12,1,1,0,,,0,FALSE,,,,,,,,,,,,,,,,,,,,,,,,,,,,,,,
,5fd8e5d864c9d60e2a7d9aeb,627c6fd2f4d46ccf58a73434,2022-05-12_03h28.04.522,classification_task,2021.2.3,Win32,59.96641881,627c6715c52fd12f31907bcf,,,,,,,,,,,,,,,,,,,,,,,l,1,4.8617,"[""0.156"",""0.288"",""0.490"",""0.100""]","[1,1,1,0]",0,13,13,13,1,1,1,,,0,FALSE,,,,,,,,,,,,,,,,,,,,,,,,,,,,,,,
,5fd8e5d864c9d60e2a7d9aeb,627c6fd2f4d46ccf58a73434,2022-05-12_03h28.04.522,classification_task,2021.2.3,Win32,59.96641881,627c6715c52fd12f31907bcf,,,,,,,,,,,,,,,,,,,,,,,l,1,3.9119,"[""0.156"",""0.288"",""0.119"",""0.795""]","[1,1,0,1]",0,14,14,14,1,1,1,,,0,FALSE,,,,,,,,,,,,,,,,,,,,,,,,,,,,,,,
,5fd8e5d864c9d60e2a7d9aeb,627c6fd2f4d46ccf58a73434,2022-05-12_03h28.04.522,classification_task,2021.2.3,Win32,59.96641881,627c6715c52fd12f31907bcf,,,,,,,,,,,,,,,,,,,,,,,l,0,3.1788,"[""0.192"",""0.529"",""0.120"",""0.964""]","[1,1,0,1]",0,15,15,15,1,0,1,,,0,FALSE,,,,,,,,,,,,,,,,,,,,,,,,,,,,,,,
,5fd8e5d864c9d60e2a7d9aeb,627c6fd2f4d46ccf58a73434,2022-05-12_03h28.04.522,classification_task,2021.2.3,Win32,59.96641881,627c6715c52fd12f31907bcf,,,,,,,,,,,,,,,,,,,,,,,a,0,3.3604,"[""0.059"",""0.433"",""0.100"",""0.753""]","[1,1,0,1]",0,16,16,16,1,1,0,,,0,FALSE,,,,,,,,,,,,,,,,,,,,,,,,,,,,,,,
,5fd8e5d864c9d60e2a7d9aeb,627c6fd2f4d46ccf58a73434,2022-05-12_03h28.04.522,classification_task,2021.2.3,Win32,59.96641881,627c6715c52fd12f31907bcf,,,,,,,,,,,,,,,,,,,,,,,,0,,"[""0.387"",""0.529"",""0.853"",""0.964""]","[0,1,1,1]",0,17,17,17,1,0,1,,,0,FALSE,,,,,,,,,,,,,,,,,,,,,,,,,,,,,,,
,5fd8e5d864c9d60e2a7d9aeb,627c6fd2f4d46ccf58a73434,2022-05-12_03h28.04.522,classification_task,2021.2.3,Win32,59.96641881,627c6715c52fd12f31907bcf,,,,,,,,,,,,,,,,,,,,,,,a,1,4.5136,"[""0.225"",""0.328"",""0.720"",""0.931""]","[1,1,0,1]",0,18,18,18,1,0,0,,,0,FALSE,,,,,,,,,,,,,,,,,,,,,,,,,,,,,,,
,5fd8e5d864c9d60e2a7d9aeb,627c6fd2f4d46ccf58a73434,2022-05-12_03h28.04.522,classification_task,2021.2.3,Win32,59.96641881,627c6715c52fd12f31907bcf,,,,,,,,,,,,,,,,,,,,,,,a,1,7.2654,"[""0.192"",""0.529"",""0.714"",""0.964""]","[1,1,0,1]",0,19,19,19,1,0,1,,,0,FALSE,,,,,,,,,,,,,,,,,,,,,,,,,,,,,,,
,5fd8e5d864c9d60e2a7d9aeb,627c6fd2f4d46ccf58a73434,2022-05-12_03h28.04.522,classification_task,2021.2.3,Win32,59.96641881,627c6715c52fd12f31907bcf,,,,,,,,,,,,,,,,,,,,,,,l,1,3.476,"[""0.059"",""0.387"",""0.564"",""0.753""]","[1,0,1,1]",0,20,20,20,1,1,0,,,0,FALSE,,,,,,,,,,,,,,,,,,,,,,,,,,,,,,,
,5fd8e5d864c9d60e2a7d9aeb,627c6fd2f4d46ccf58a73434,2022-05-12_03h28.04.522,classification_task,2021.2.3,Win32,59.96641881,627c6715c52fd12f31907bcf,,,,,,,,,,,,,,,,,,,,,,,l,0,4.0339,"[""0.192"",""0.394"",""0.853"",""0.964""]","[1,0,1,1]",0,21,21,21,1,0,1,,,0,FALSE,,,,,,,,,,,,,,,,,,,,,,,,,,,,,,,
,5fd8e5d864c9d60e2a7d9aeb,627c6fd2f4d46ccf58a73434,2022-05-12_03h28.04.522,classification_task,2021.2.3,Win32,59.96641881,627c6715c52fd12f31907bcf,,,,,,,,,,,,,,,,,,,,,,,a,1,3.9522,"[""0.192"",""0.529"",""0.853"",""0.390""]","[1,1,1,0]",0,22,22,22,1,0,1,,,0,FALSE,,,,,,,,,,,,,,,,,,,,,,,,,,,,,,,
,5fd8e5d864c9d60e2a7d9aeb,627c6fd2f4d46ccf58a73434,2022-05-12_03h28.04.522,classification_task,2021.2.3,Win32,59.96641881,627c6715c52fd12f31907bcf,,,,,,,,,,,,,,,,,,,,,,,l,1,4.335,"[""0.156"",""0.288"",""0.394"",""0.795""]","[1,1,0,1]",0,23,23,23,1,1,1,,,0,FALSE,,,,,,,,,,,,,,,,,,,,,,,,,,,,,,,
,5fd8e5d864c9d60e2a7d9aeb,627c6fd2f4d46ccf58a73434,2022-05-12_03h28.04.522,classification_task,2021.2.3,Win32,59.96641881,627c6715c52fd12f31907bcf,,,,,,,,,,,,,,,,,,,,,,,a,0,2.6417,"[""0.100"",""0.433"",""0.564"",""0.753""]","[0,1,1,1]",0,24,24,24,1,1,0,,,0,FALSE,,,,,,,,,,,,,,,,,,,,,,,,,,,,,,,
,5fd8e5d864c9d60e2a7d9aeb,627c6fd2f4d46ccf58a73434,2022-05-12_03h28.04.522,classification_task,2021.2.3,Win32,59.96641881,627c6715c52fd12f31907bcf,,,,,,,,,,,,,,,,,,,,,,,l,1,2.4263,"[""0.156"",""0.100"",""0.490"",""0.795""]","[1,0,1,1]",0,25,25,25,1,1,1,,,0,FALSE,,,,,,,,,,,,,,,,,,,,,,,,,,,,,,,
,5fd8e5d864c9d60e2a7d9aeb,627c6fd2f4d46ccf58a73434,2022-05-12_03h28.04.522,classification_task,2021.2.3,Win32,59.96641881,627c6715c52fd12f31907bcf,,,,,,,,,,,,,,,,,,,,,,,a,0,3.1213,"[""0.156"",""0.288"",""0.490"",""0.676""]","[1,1,1,0]",0,26,26,26,1,1,1,,,0,FALSE,,,,,,,,,,,,,,,,,,,,,,,,,,,,,,,
,5fd8e5d864c9d60e2a7d9aeb,627c6fd2f4d46ccf58a73434,2022-05-12_03h28.04.522,classification_task,2021.2.3,Win32,59.96641881,627c6715c52fd12f31907bcf,,,,,,,,,,,,,,,,,,,,,,,l,0,4.1131,"[""0.390"",""0.328"",""0.616"",""0.931""]","[0,1,1,1]",0,27,27,27,1,0,0,,,0,FALSE,,,,,,,,,,,,,,,,,,,,,,,,,,,,,,,
,5fd8e5d864c9d60e2a7d9aeb,627c6fd2f4d46ccf58a73434,2022-05-12_03h28.04.522,classification_task,2021.2.3,Win32,59.96641881,627c6715c52fd12f31907bcf,,,,,,,,,,,,,,,,,,,,,,,l,1,2.1454,"[""0.720"",""0.288"",""0.490"",""0.795""]","[0,1,1,1]",0,28,28,28,1,1,1,,,0,FALSE,,,,,,,,,,,,,,,,,,,,,,,,,,,,,,,
,5fd8e5d864c9d60e2a7d9aeb,627c6fd2f4d46ccf58a73434,2022-05-12_03h28.04.522,classification_task,2021.2.3,Win32,59.96641881,627c6715c52fd12f31907bcf,,,,,,,,,,,,,,,,,,,,,,,l,0,2.5985,"[""0.225"",""0.120"",""0.616"",""0.931""]","[1,0,1,1]",0,29,29,29,1,0,0,,,0,FALSE,,,,,,,,,,,,,,,,,,,,,,,,,,,,,,,
,5fd8e5d864c9d60e2a7d9aeb,627c6fd2f4d46ccf58a73434,2022-05-12_03h28.04.522,classification_task,2021.2.3,Win32,59.96641881,627c6715c52fd12f31907bcf,,,,,,,,,,,,,,,,,,,,,,,l,1,2.8968,"[""0.059"",""0.433"",""0.564"",""0.714""]","[1,1,1,0]",0,30,30,30,1,1,0,,,0,FALSE,,,,,,,,,,,,,,,,,,,,,,,,,,,,,,,
,5fd8e5d864c9d60e2a7d9aeb,627c6fd2f4d46ccf58a73434,2022-05-12_03h28.04.522,classification_task,2021.2.3,Win32,59.96641881,627c6715c52fd12f31907bcf,,,,,,,,,,,,,,,,,,,,,,,a,1,2.1459,"[""0.225"",""0.328"",""0.616"",""0.676""]","[1,1,1,0]",0,31,31,31,1,0,0,,,0,FALSE,,,,,,,,,,,,,,,,,,,,,,,,,,,,,,,
,5fd8e5d864c9d60e2a7d9aeb,627c6fd2f4d46ccf58a73434,2022-05-12_03h28.04.522,classification_task,2021.2.3,Win32,59.96641881,627c6715c52fd12f31907bcf,,,,,,,,,,,,,,,,,,,,,,,a,1,2.7647,"[""0.225"",""0.682"",""0.616"",""0.931""]","[1,0,1,1]",0,32,32,32,1,0,0,,,0,FALSE,,,,,,,,,,,,,,,,,,,,,,,,,,,,,,,
,5fd8e5d864c9d60e2a7d9aeb,627c6fd2f4d46ccf58a73434,2022-05-12_03h28.04.522,classification_task,2021.2.3,Win32,59.96641881,627c6715c52fd12f31907bcf,,,,,,,,,,,,,,,,,,,,,,,l,1,2.48,"[""0.059"",""0.720"",""0.564"",""0.753""]","[1,0,1,1]",0,33,33,33,1,1,0,,,0,FALSE,,,,,,,,,,,,,,,,,,,,,,,,,,,,,,,
,5fd8e5d864c9d60e2a7d9aeb,627c6fd2f4d46ccf58a73434,2022-05-12_03h28.04.522,classification_task,2021.2.3,Win32,59.96641881,627c6715c52fd12f31907bcf,,,,,,,,,,,,,,,,,,,,,,,l,1,3.1537,"[""0.676"",""0.288"",""0.490"",""0.795""]","[0,1,1,1]",0,34,34,34,1,1,1,,,0,FALSE,,,,,,,,,,,,,,,,,,,,,,,,,,,,,,,
,5fd8e5d864c9d60e2a7d9aeb,627c6fd2f4d46ccf58a73434,2022-05-12_03h28.04.522,classification_task,2021.2.3,Win32,59.96641881,627c6715c52fd12f31907bcf,,,,,,,,,,,,,,,,,,,,,,,l,0,3.2954,"[""0.225"",""0.328"",""0.100"",""0.931""]","[1,1,0,1]",0,35,35,35,1,0,0,,,0,FALSE,,,,,,,,,,,,,,,,,,,,,,,,,,,,,,,
,5fd8e5d864c9d60e2a7d9aeb,627c6fd2f4d46ccf58a73434,2022-05-12_03h28.04.522,classification_task,2021.2.3,Win32,59.96641881,627c6715c52fd12f31907bcf,,,,,,,,,,,,,,,,,,,,,,,l,0,1.817,"[""0.720"",""0.529"",""0.853"",""0.964""]","[0,1,1,1]",0,36,36,36,1,0,1,,,0,FALSE,,,,,,,,,,,,,,,,,,,,,,,,,,,,,,,
,5fd8e5d864c9d60e2a7d9aeb,627c6fd2f4d46ccf58a73434,2022-05-12_03h28.04.522,classification_task,2021.2.3,Win32,59.96641881,627c6715c52fd12f31907bcf,,,,,,,,,,,,,,,,,,,,,,,l,1,2.5892,"[""0.059"",""0.433"",""0.564"",""0.676""]","[1,1,1,0]",0,37,37,37,1,1,0,,,0,FALSE,,,,,,,,,,,,,,,,,,,,,,,,,,,,,,,
,5fd8e5d864c9d60e2a7d9aeb,627c6fd2f4d46ccf58a73434,2022-05-12_03h28.04.522,classification_task,2021.2.3,Win32,59.96641881,627c6715c52fd12f31907bcf,,,,,,,,,,,,,,,,,,,,,,,a,0,2.3118,"[""0.156"",""0.288"",""0.490"",""0.365""]","[1,1,1,0]",0,38,38,38,1,1,1,,,0,FALSE,,,,,,,,,,,,,,,,,,,,,,,,,,,,,,,
,5fd8e5d864c9d60e2a7d9aeb,627c6fd2f4d46ccf58a73434,2022-05-12_03h28.04.522,classification_task,2021.2.3,Win32,59.96641881,627c6715c52fd12f31907bcf,,,,,,,,,,,,,,,,,,,,,,,a,1,1.1129,"[""0.192"",""0.381"",""0.853"",""0.964""]","[1,0,1,1]",0,39,39,39,1,0,1,,,0,FALSE,,,,,,,,,,,,,,,,,,,,,,,,,,,,,,,
,5fd8e5d864c9d60e2a7d9aeb,627c6fd2f4d46ccf58a73434,2022-05-12_03h28.04.522,classification_task,2021.2.3,Win32,59.96641881,627c6715c52fd12f31907bcf,,,,,,,,,,,,,,,,,,,,,,,a,1,1.1344,"[""0.192"",""0.529"",""0.853"",""0.390""]","[1,1,1,0]",0,40,40,40,1,0,1,,,0,FALSE,,,,,,,,,,,,,,,,,,,,,,,,,,,,,,,
,5fd8e5d864c9d60e2a7d9aeb,627c6fd2f4d46ccf58a73434,2022-05-12_03h28.04.522,classification_task,2021.2.3,Win32,59.96641881,627c6715c52fd12f31907bcf,,,,,,,,,,,,,,,,,,,,,,,l,1,1.2196,"[""0.387"",""0.433"",""0.564"",""0.753""]","[0,1,1,1]",0,41,41,41,1,1,0,,,0,FALSE,,,,,,,,,,,,,,,,,,,,,,,,,,,,,,,
,5fd8e5d864c9d60e2a7d9aeb,627c6fd2f4d46ccf58a73434,2022-05-12_03h28.04.522,classification_task,2021.2.3,Win32,59.96641881,627c6715c52fd12f31907bcf,,,,,,,,,,,,,,,,,,,,,,,l,1,1.5858,"[""0.059"",""0.433"",""0.113"",""0.753""]","[1,1,0,1]",0,42,42,42,1,1,0,,,0,FALSE,,,,,,,,,,,,,,,,,,,,,,,,,,,,,,,
,5fd8e5d864c9d60e2a7d9aeb,627c6fd2f4d46ccf58a73434,2022-05-12_03h28.04.522,classification_task,2021.2.3,Win32,59.96641881,627c6715c52fd12f31907bcf,,,,,,,,,,,,,,,,,,,,,,,a,1,1.3292,"[""0.192"",""0.529"",""0.889"",""0.964""]","[1,1,0,1]",0,43,43,43,1,0,1,,,0,FALSE,,,,,,,,,,,,,,,,,,,,,,,,,,,,,,,
,5fd8e5d864c9d60e2a7d9aeb,627c6fd2f4d46ccf58a73434,2022-05-12_03h28.04.522,classification_task,2021.2.3,Win32,59.96641881,627c6715c52fd12f31907bcf,,,,,,,,,,,,,,,,,,,,,,,a,1,1.5233,"[""0.225"",""0.328"",""0.616"",""0.720""]","[1,1,1,0]",0,44,44,44,1,0,0,,,0,FALSE,,,,,,,,,,,,,,,,,,,,,,,,,,,,,,,
,5fd8e5d864c9d60e2a7d9aeb,627c6fd2f4d46ccf58a73434,2022-05-12_03h28.04.522,classification_task,2021.2.3,Win32,59.96641881,627c6715c52fd12f31907bcf,,,,,,,,,,,,,,,,,,,,,,,l,1,1.3841,"[""0.156"",""0.676"",""0.490"",""0.795""]","[1,0,1,1]",0,45,45,45,1,1,1,,,0,FALSE,,,,,,,,,,,,,,,,,,,,,,,,,,,,,,,
,5fd8e5d864c9d60e2a7d9aeb,627c6fd2f4d46ccf58a73434,2022-05-12_03h28.04.522,classification_task,2021.2.3,Win32,59.96641881,627c6715c52fd12f31907bcf,,,,,,,,,,,,,,,,,,,,,,,a,0,1.9504,"[""0.156"",""0.288"",""0.365"",""0.795""]","[1,1,0,1]",0,46,46,46,1,1,1,,,0,FALSE,,,,,,,,,,,,,,,,,,,,,,,,,,,,,,,
,5fd8e5d864c9d60e2a7d9aeb,627c6fd2f4d46ccf58a73434,2022-05-12_03h28.04.522,classification_task,2021.2.3,Win32,59.96641881,627c6715c52fd12f31907bcf,,,,,,,,,,,,,,,,,,,,,,,l,0,1.621,"[""0.100"",""0.328"",""0.616"",""0.931""]","[0,1,1,1]",0,47,47,47,1,0,0,,,0,FALSE,,,,,,,,,,,,,,,,,,,,,,,,,,,,,,,
,5fd8e5d864c9d60e2a7d9aeb,627c6fd2f4d46ccf58a73434,2022-05-12_03h28.04.522,classification_task,2021.2.3,Win32,59.96641881,627c6715c52fd12f31907bcf,,,,,,,,,,,,,,,,,,,,,,,l,1,1.3341,"[""0.059"",""0.433"",""0.564"",""0.100""]","[1,1,1,0]",0,48,48,48,1,1,0,,,0,FALSE,,,,,,,,,,,,,,,,,,,,,,,,,,,,,,,
,5fd8e5d864c9d60e2a7d9aeb,627c6fd2f4d46ccf58a73434,2022-05-12_03h28.04.522,classification_task,2021.2.3,Win32,59.96641881,627c6715c52fd12f31907bcf,,,,,,,,,,,,,,,,,,,,,,,a,0,1.8753,"[""0.387"",""0.288"",""0.490"",""0.795""]","[0,1,1,1]",0,49,49,49,1,1,1,,,0,FALSE,,,,,,,,,,,,,,,,,,,,,,,,,,,,,,,
,5fd8e5d864c9d60e2a7d9aeb,627c6fd2f4d46ccf58a73434,2022-05-12_03h28.04.522,classification_task,2021.2.3,Win32,59.96641881,627c6715c52fd12f31907bcf,,,,,,,,,,,,,,,,,,,,,,,a,0,1.4448,"[""0.365"",""0.433"",""0.564"",""0.753""]","[0,1,1,1]",0,50,50,50,1,1,0,,,0,FALSE,,,,,,,,,,,,,,,,,,,,,,,,,,,,,,,
,5fd8e5d864c9d60e2a7d9aeb,627c6fd2f4d46ccf58a73434,2022-05-12_03h28.04.522,classification_task,2021.2.3,Win32,59.96641881,627c6715c52fd12f31907bcf,,,,,,,,,,,,,,,,,,,,,,,a,0,1.4674,"[""0.059"",""0.119"",""0.564"",""0.753""]","[1,0,1,1]",0,51,51,51,1,1,0,,,0,FALSE,,,,,,,,,,,,,,,,,,,,,,,,,,,,,,,
,5fd8e5d864c9d60e2a7d9aeb,627c6fd2f4d46ccf58a73434,2022-05-12_03h28.04.522,classification_task,2021.2.3,Win32,59.96641881,627c6715c52fd12f31907bcf,,,,,,,,,,,,,,,,,,,,,,,a,1,1.3175,"[""0.100"",""0.529"",""0.853"",""0.964""]","[0,1,1,1]",0,52,52,52,1,0,1,,,0,FALSE,,,,,,,,,,,,,,,,,,,,,,,,,,,,,,,
,5fd8e5d864c9d60e2a7d9aeb,627c6fd2f4d46ccf58a73434,2022-05-12_03h28.04.522,classification_task,2021.2.3,Win32,59.96641881,627c6715c52fd12f31907bcf,,,,,,,,,,,,,,,,,,,,,,,l,0,1.1352,"[""0.682"",""0.328"",""0.616"",""0.931""]","[0,1,1,1]",0,53,53,53,1,0,0,,,0,FALSE,,,,,,,,,,,,,,,,,,,,,,,,,,,,,,,
,5fd8e5d864c9d60e2a7d9aeb,627c6fd2f4d46ccf58a73434,2022-05-12_03h28.04.522,classification_task,2021.2.3,Win32,59.96641881,627c6715c52fd12f31907bcf,,,,,,,,,,,,,,,,,,,,,,,l,0,1.666,"[""0.192"",""0.120"",""0.853"",""0.964""]","[1,0,1,1]",0,54,54,54,1,0,1,,,0,FALSE,,,,,,,,,,,,,,,,,,,,,,,,,,,,,,,
,5fd8e5d864c9d60e2a7d9aeb,627c6fd2f4d46ccf58a73434,2022-05-12_03h28.04.522,classification_task,2021.2.3,Win32,59.96641881,627c6715c52fd12f31907bcf,,,,,,,,,,,,,,,,,,,,,,,l,1,2.1545,"[""0.156"",""0.288"",""0.387"",""0.795""]","[1,1,0,1]",0,55,55,55,1,1,1,,,0,FALSE,,,,,,,,,,,,,,,,,,,,,,,,,,,,,,,
,5fd8e5d864c9d60e2a7d9aeb,627c6fd2f4d46ccf58a73434,2022-05-12_03h28.04.522,classification_task,2021.2.3,Win32,59.96641881,627c6715c52fd12f31907bcf,,,,,,,,,,,,,,,,,,,,,,,a,1,1.5342,"[""0.192"",""0.529"",""0.387"",""0.964""]","[1,1,0,1]",0,56,56,56,1,0,1,,,0,FALSE,,,,,,,,,,,,,,,,,,,,,,,,,,,,,,,
,5fd8e5d864c9d60e2a7d9aeb,627c6fd2f4d46ccf58a73434,2022-05-12_03h28.04.522,classification_task,2021.2.3,Win32,59.96641881,627c6715c52fd12f31907bcf,,,,,,,,,,,,,,,,,,,,,,,a,1,1.6041,"[""0.225"",""0.328"",""0.365"",""0.931""]","[1,1,0,1]",0,57,57,57,1,0,0,,,0,FALSE,,,,,,,,,,,,,,,,,,,,,,,,,,,,,,,
,5fd8e5d864c9d60e2a7d9aeb,627c6fd2f4d46ccf58a73434,2022-05-12_03h28.04.522,classification_task,2021.2.3,Win32,59.96641881,627c6715c52fd12f31907bcf,,,,,,,,,,,,,,,,,,,,,,,a,1,1.1569,"[""0.225"",""0.328"",""0.616"",""0.367""]","[1,1,1,0]",0,58,58,58,1,0,0,,,0,FALSE,,,,,,,,,,,,,,,,,,,,,,,,,,,,,,,
,5fd8e5d864c9d60e2a7d9aeb,627c6fd2f4d46ccf58a73434,2022-05-12_03h28.04.522,classification_task,2021.2.3,Win32,59.96641881,627c6715c52fd12f31907bcf,,,,,,,,,,,,,,,,,,,,,,,l,0,1.0874,"[""0.225"",""0.387"",""0.616"",""0.931""]","[1,0,1,1]",0,59,59,59,1,0,0,,,0,FALSE,,,,,,,,,,,,,,,,,,,,,,,,,,,,,,,
,5fd8e5d864c9d60e2a7d9aeb,627c6fd2f4d46ccf58a73434,2022-05-12_03h28.04.522,classification_task,2021.2.3,Win32,59.96641881,627c6715c52fd12f31907bcf,,,,,,,,,,,,,,,,,,,,,,,l,1,0.9165,"[""0.059"",""0.433"",""0.365"",""0.753""]","[1,1,0,1]",0,60,60,60,1,1,0,,,0,FALSE,,,,,,,,,,,,,,,,,,,,,,,,,,,,,,,
,5fd8e5d864c9d60e2a7d9aeb,627c6fd2f4d46ccf58a73434,2022-05-12_03h28.04.522,classification_task,2021.2.3,Win32,59.96641881,627c6715c52fd12f31907bcf,,,,,,,,,,,,,,,,,,,,,,,a,0,1.3716,"[""0.156"",""0.714"",""0.490"",""0.795""]","[1,0,1,1]",0,61,61,61,1,1,1,,,0,FALSE,,,,,,,,,,,,,,,,,,,,,,,,,,,,,,,
,5fd8e5d864c9d60e2a7d9aeb,627c6fd2f4d46ccf58a73434,2022-05-12_03h28.04.522,classification_task,2021.2.3,Win32,59.96641881,627c6715c52fd12f31907bcf,,,,,,,,,,,,,,,,,,,,,,,l,1,1.0044,"[""0.156"",""0.288"",""0.490"",""0.365""]","[1,1,1,0]",0,62,62,62,1,1,1,,,0,FALSE,,,,,,,,,,,,,,,,,,,,,,,,,,,,,,,
,5fd8e5d864c9d60e2a7d9aeb,627c6fd2f4d46ccf58a73434,2022-05-12_03h28.04.522,classification_task,2021.2.3,Win32,59.96641881,627c6715c52fd12f31907bcf,,,,,,,,,,,,,,,,,,,,,,,a,1,1.6176,"[""0.192"",""0.529"",""0.853"",""0.714""]","[1,1,1,0]",0,63,63,63,1,0,1,,,0,FALSE,,,,,,,,,,,,,,,,,,,,,,,,,,,,,,,
,5fd8e5d864c9d60e2a7d9aeb,627c6fd2f4d46ccf58a73434,2022-05-12_03h28.04.522,classification_task,2021.2.3,Win32,59.96641881,627c6715c52fd12f31907bcf,,,,,,,,,,,,,,,,,,,,,,,,,,,,,,,,,,,,,,,0, ,,0,3.603762493,402.859,0,0,0,0,1,2,1,,,,,,,,,,,,,,,,,,
,5fd8e5d864c9d60e2a7d9aeb,627c6fd2f4d46ccf58a73434,2022-05-12_03h28.04.522,classification_task,2021.2.3,Win32,59.96641881,627c6715c52fd12f31907bcf,,,,,,,,,,,,,,,,,,,,,,,,,,,,,,,,,,,,,,,1,  ,,0,6.714677641,406.5917,0,0,0,0,1,2,1,,,,,,,,,,,,,,,,,,
,5fd8e5d864c9d60e2a7d9aeb,627c6fd2f4d46ccf58a73434,2022-05-12_03h28.04.522,classification_task,2021.2.3,Win32,59.96641881,627c6715c52fd12f31907bcf,,,,,,,,,,,,,,,,,,,,,,,,,,,,,,,,,,,,,,,2,  ,,0,8.551832256,409.291,0,0,0,0,1,2,1,,,,,,,,,,,,,,,,,,
,5fd8e5d864c9d60e2a7d9aeb,627c6fd2f4d46ccf58a73434,2022-05-12_03h28.04.522,classification_task,2021.2.3,Win32,59.96641881,627c6715c52fd12f31907bcf,,,,,,,,,,,,,,,,,,,,,,,,,,,,,,,,,,,,,,,,,,,,,0,0,0,0,1,,1,,,,,,,,,,,,,,,,,,
,5fd8e5d864c9d60e2a7d9aeb,627c6fd2f4d46ccf58a73434,2022-05-12_03h28.04.522,classification_task,2021.2.3,Win32,59.96641881,627c6715c52fd12f31907bcf,,,,,,,,,,,,,,,,,,,,,space,21.2186,a,1,2.6333,"[""0.225"",""0.113"",""0.616"",""0.931""]","[1,0,1,1]",0,0,0,0,1,0,0,,,0,FALSE,,,,,,,,,,,,,,,,,,,,,,,,,,,,,,,
,5fd8e5d864c9d60e2a7d9aeb,627c6fd2f4d46ccf58a73434,2022-05-12_03h28.04.522,classification_task,2021.2.3,Win32,59.96641881,627c6715c52fd12f31907bcf,,,,,,,,,,,,,,,,,,,,,,,a,1,1.0828,"[""0.113"",""0.328"",""0.616"",""0.931""]","[0,1,1,1]",0,1,1,1,1,0,0,,,0,FALSE,,,,,,,,,,,,,,,,,,,,,,,,,,,,,,,
,5fd8e5d864c9d60e2a7d9aeb,627c6fd2f4d46ccf58a73434,2022-05-12_03h28.04.522,classification_task,2021.2.3,Win32,59.96641881,627c6715c52fd12f31907bcf,,,,,,,,,,,,,,,,,,,,,,,l,0,3.2665,"[""0.192"",""0.714"",""0.853"",""0.964""]","[1,0,1,1]",0,2,2,2,1,0,1,,,0,FALSE,,,,,,,,,,,,,,,,,,,,,,,,,,,,,,,
,5fd8e5d864c9d60e2a7d9aeb,627c6fd2f4d46ccf58a73434,2022-05-12_03h28.04.522,classification_task,2021.2.3,Win32,59.96641881,627c6715c52fd12f31907bcf,,,,,,,,,,,,,,,,,,,,,,,l,0,2.5332,"[""0.192"",""0.529"",""0.853"",""0.682""]","[1,1,1,0]",0,3,3,3,1,0,1,,,0,FALSE,,,,,,,,,,,,,,,,,,,,,,,,,,,,,,,
,5fd8e5d864c9d60e2a7d9aeb,627c6fd2f4d46ccf58a73434,2022-05-12_03h28.04.522,classification_task,2021.2.3,Win32,59.96641881,627c6715c52fd12f31907bcf,,,,,,,,,,,,,,,,,,,,,,,a,1,1.1995,"[""0.225"",""0.328"",""0.616"",""0.720""]","[1,1,1,0]",0,4,4,4,1,0,0,,,0,FALSE,,,,,,,,,,,,,,,,,,,,,,,,,,,,,,,
,5fd8e5d864c9d60e2a7d9aeb,627c6fd2f4d46ccf58a73434,2022-05-12_03h28.04.522,classification_task,2021.2.3,Win32,59.96641881,627c6715c52fd12f31907bcf,,,,,,,,,,,,,,,,,,,,,,,l,1,1.1163,"[""0.059"",""0.433"",""0.564"",""0.714""]","[1,1,1,0]",0,5,5,5,1,1,0,,,0,FALSE,,,,,,,,,,,,,,,,,,,,,,,,,,,,,,,
,5fd8e5d864c9d60e2a7d9aeb,627c6fd2f4d46ccf58a73434,2022-05-12_03h28.04.522,classification_task,2021.2.3,Win32,59.96641881,627c6715c52fd12f31907bcf,,,,,,,,,,,,,,,,,,,,,,,l,0,1.3999,"[""0.192"",""0.529"",""0.381"",""0.964""]","[1,1,0,1]",0,6,6,6,1,0,1,,,0,FALSE,,,,,,,,,,,,,,,,,,,,,,,,,,,,,,,
,5fd8e5d864c9d60e2a7d9aeb,627c6fd2f4d46ccf58a73434,2022-05-12_03h28.04.522,classification_task,2021.2.3,Win32,59.96641881,627c6715c52fd12f31907bcf,,,,,,,,,,,,,,,,,,,,,,,l,1,1.3331,"[""0.156"",""0.288"",""0.490"",""0.720""]","[1,1,1,0]",0,7,7,7,1,1,1,,,0,FALSE,,,,,,,,,,,,,,,,,,,,,,,,,,,,,,,
,5fd8e5d864c9d60e2a7d9aeb,627c6fd2f4d46ccf58a73434,2022-05-12_03h28.04.522,classification_task,2021.2.3,Win32,59.96641881,627c6715c52fd12f31907bcf,,,,,,,,,,,,,,,,,,,,,,,l,1,1.6494,"[""0.059"",""0.120"",""0.564"",""0.753""]","[1,0,1,1]",0,8,8,8,1,1,0,,,0,FALSE,,,,,,,,,,,,,,,,,,,,,,,,,,,,,,,
,5fd8e5d864c9d60e2a7d9aeb,627c6fd2f4d46ccf58a73434,2022-05-12_03h28.04.522,classification_task,2021.2.3,Win32,59.96641881,627c6715c52fd12f31907bcf,,,,,,,,,,,,,,,,,,,,,,,l,1,1.1832,"[""0.682"",""0.288"",""0.490"",""0.795""]","[0,1,1,1]",0,9,9,9,1,1,1,,,0,FALSE,,,,,,,,,,,,,,,,,,,,,,,,,,,,,,,
,5fd8e5d864c9d60e2a7d9aeb,627c6fd2f4d46ccf58a73434,2022-05-12_03h28.04.522,classification_task,2021.2.3,Win32,59.96641881,627c6715c52fd12f31907bcf,,,,,,,,,,,,,,,,,,,,,,,l,1,1.0158,"[""0.682"",""0.433"",""0.564"",""0.753""]","[0,1,1,1]",0,10,10,10,1,1,0,,,0,FALSE,,,,,,,,,,,,,,,,,,,,,,,,,,,,,,,
,5fd8e5d864c9d60e2a7d9aeb,627c6fd2f4d46ccf58a73434,2022-05-12_03h28.04.522,classification_task,2021.2.3,Win32,59.96641881,627c6715c52fd12f31907bcf,,,,,,,,,,,,,,,,,,,,,,,a,0,1.1331,"[""0.156"",""0.288"",""0.100"",""0.795""]","[1,1,0,1]",0,11,11,11,1,1,1,,,0,FALSE,,,,,,,,,,,,,,,,,,,,,,,,,,,,,,,
,5fd8e5d864c9d60e2a7d9aeb,627c6fd2f4d46ccf58a73434,2022-05-12_03h28.04.522,classification_task,2021.2.3,Win32,59.96641881,627c6715c52fd12f31907bcf,,,,,,,,,,,,,,,,,,,,,,,a,1,0.9162,"[""0.225"",""0.328"",""0.676"",""0.931""]","[1,1,0,1]",0,12,12,12,1,0,0,,,0,FALSE,,,,,,,,,,,,,,,,,,,,,,,,,,,,,,,
,5fd8e5d864c9d60e2a7d9aeb,627c6fd2f4d46ccf58a73434,2022-05-12_03h28.04.522,classification_task,2021.2.3,Win32,59.96641881,627c6715c52fd12f31907bcf,,,,,,,,,,,,,,,,,,,,,,,l,1,1.4829,"[""0.156"",""0.889"",""0.490"",""0.795""]","[1,0,1,1]",0,13,13,13,1,1,1,,,0,FALSE,,,,,,,,,,,,,,,,,,,,,,,,,,,,,,,
,5fd8e5d864c9d60e2a7d9aeb,627c6fd2f4d46ccf58a73434,2022-05-12_03h28.04.522,classification_task,2021.2.3,Win32,59.96641881,627c6715c52fd12f31907bcf,,,,,,,,,,,,,,,,,,,,,,,l,1,1.0162,"[""0.059"",""0.433"",""0.381"",""0.753""]","[1,1,0,1]",0,14,14,14,1,1,0,,,0,FALSE,,,,,,,,,,,,,,,,,,,,,,,,,,,,,,,
,5fd8e5d864c9d60e2a7d9aeb,627c6fd2f4d46ccf58a73434,2022-05-12_03h28.04.522,classification_task,2021.2.3,Win32,59.96641881,627c6715c52fd12f31907bcf,,,,,,,,,,,,,,,,,,,,,,,a,1,1.5331,"[""0.120"",""0.529"",""0.853"",""0.964""]","[0,1,1,1]",0,15,15,15,1,0,1,,,0,FALSE,,,,,,,,,,,,,,,,,,,,,,,,,,,,,,,
,5fd8e5d864c9d60e2a7d9aeb,627c6fd2f4d46ccf58a73434,2022-05-12_03h28.04.522,classification_task,2021.2.3,Win32,59.96641881,627c6715c52fd12f31907bcf,,,,,,,,,,,,,,,,,,,,,,,l,0,0.7999,"[""0.394"",""0.529"",""0.853"",""0.964""]","[0,1,1,1]",0,16,16,16,1,0,1,,,0,FALSE,,,,,,,,,,,,,,,,,,,,,,,,,,,,,,,
,5fd8e5d864c9d60e2a7d9aeb,627c6fd2f4d46ccf58a73434,2022-05-12_03h28.04.522,classification_task,2021.2.3,Win32,59.96641881,627c6715c52fd12f31907bcf,,,,,,,,,,,,,,,,,,,,,,,l,1,0.6161,"[""0.059"",""0.889"",""0.564"",""0.753""]","[1,0,1,1]",0,17,17,17,1,1,0,,,0,FALSE,,,,,,,,,,,,,,,,,,,,,,,,,,,,,,,
,5fd8e5d864c9d60e2a7d9aeb,627c6fd2f4d46ccf58a73434,2022-05-12_03h28.04.522,classification_task,2021.2.3,Win32,59.96641881,627c6715c52fd12f31907bcf,,,,,,,,,,,,,,,,,,,,,,,a,1,1.6,"[""0.192"",""0.529"",""0.889"",""0.964""]","[1,1,0,1]",0,18,18,18,1,0,1,,,0,FALSE,,,,,,,,,,,,,,,,,,,,,,,,,,,,,,,
,5fd8e5d864c9d60e2a7d9aeb,627c6fd2f4d46ccf58a73434,2022-05-12_03h28.04.522,classification_task,2021.2.3,Win32,59.96641881,627c6715c52fd12f31907bcf,,,,,,,,,,,,,,,,,,,,,,,a,1,0.9496,"[""0.225"",""0.328"",""0.682"",""0.931""]","[1,1,0,1]",0,19,19,19,1,0,0,,,0,FALSE,,,,,,,,,,,,,,,,,,,,,,,,,,,,,,,
,5fd8e5d864c9d60e2a7d9aeb,627c6fd2f4d46ccf58a73434,2022-05-12_03h28.04.522,classification_task,2021.2.3,Win32,59.96641881,627c6715c52fd12f31907bcf,,,,,,,,,,,,,,,,,,,,,,,a,1,1.3497,"[""0.192"",""0.113"",""0.853"",""0.964""]","[1,0,1,1]",0,20,20,20,1,0,1,,,0,FALSE,,,,,,,,,,,,,,,,,,,,,,,,,,,,,,,
,5fd8e5d864c9d60e2a7d9aeb,627c6fd2f4d46ccf58a73434,2022-05-12_03h28.04.522,classification_task,2021.2.3,Win32,59.96641881,627c6715c52fd12f31907bcf,,,,,,,,,,,,,,,,,,,,,,,l,1,0.9164,"[""0.156"",""0.288"",""0.490"",""0.394""]","[1,1,1,0]",0,21,21,21,1,1,1,,,0,FALSE,,,,,,,,,,,,,,,,,,,,,,,,,,,,,,,
,5fd8e5d864c9d60e2a7d9aeb,627c6fd2f4d46ccf58a73434,2022-05-12_03h28.04.522,classification_task,2021.2.3,Win32,59.96641881,627c6715c52fd12f31907bcf,,,,,,,,,,,,,,,,,,,,,,,a,1,0.9828,"[""0.225"",""0.714"",""0.616"",""0.931""]","[1,0,1,1]",0,22,22,22,1,0,0,,,0,FALSE,,,,,,,,,,,,,,,,,,,,,,,,,,,,,,,
,5fd8e5d864c9d60e2a7d9aeb,627c6fd2f4d46ccf58a73434,2022-05-12_03h28.04.522,classification_task,2021.2.3,Win32,59.96641881,627c6715c52fd12f31907bcf,,,,,,,,,,,,,,,,,,,,,,,a,0,1.1328,"[""0.156"",""0.288"",""0.113"",""0.795""]","[1,1,0,1]",0,23,23,23,1,1,1,,,0,FALSE,,,,,,,,,,,,,,,,,,,,,,,,,,,,,,,
,5fd8e5d864c9d60e2a7d9aeb,627c6fd2f4d46ccf58a73434,2022-05-12_03h28.04.522,classification_task,2021.2.3,Win32,59.96641881,627c6715c52fd12f31907bcf,,,,,,,,,,,,,,,,,,,,,,,a,1,0.6994,"[""0.225"",""0.328"",""0.616"",""0.120""]","[1,1,1,0]",0,24,24,24,1,0,0,,,0,FALSE,,,,,,,,,,,,,,,,,,,,,,,,,,,,,,,
,5fd8e5d864c9d60e2a7d9aeb,627c6fd2f4d46ccf58a73434,2022-05-12_03h28.04.522,classification_task,2021.2.3,Win32,59.96641881,627c6715c52fd12f31907bcf,,,,,,,,,,,,,,,,,,,,,,,a,1,0.8497,"[""0.119"",""0.328"",""0.616"",""0.931""]","[0,1,1,1]",0,25,25,25,1,0,0,,,0,FALSE,,,,,,,,,,,,,,,,,,,,,,,,,,,,,,,
,5fd8e5d864c9d60e2a7d9aeb,627c6fd2f4d46ccf58a73434,2022-05-12_03h28.04.522,classification_task,2021.2.3,Win32,59.96641881,627c6715c52fd12f31907bcf,,,,,,,,,,,,,,,,,,,,,,,l,1,0.7997,"[""0.394"",""0.433"",""0.564"",""0.753""]","[0,1,1,1]",0,26,26,26,1,1,0,,,0,FALSE,,,,,,,,,,,,,,,,,,,,,,,,,,,,,,,
,5fd8e5d864c9d60e2a7d9aeb,627c6fd2f4d46ccf58a73434,2022-05-12_03h28.04.522,classification_task,2021.2.3,Win32,59.96641881,627c6715c52fd12f31907bcf,,,,,,,,,,,,,,,,,,,,,,,l,1,0.8663,"[""0.059"",""0.433"",""0.365"",""0.753""]","[1,1,0,1]",0,27,27,27,1,1,0,,,0,FALSE,,,,,,,,,,,,,,,,,,,,,,,,,,,,,,,
,5fd8e5d864c9d60e2a7d9aeb,627c6fd2f4d46ccf58a73434,2022-05-12_03h28.04.522,classification_task,2021.2.3,Win32,59.96641881,627c6715c52fd12f31907bcf,,,,,,,,,,,,,,,,,,,,,,,l,1,0.6163,"[""0.059"",""0.433"",""0.564"",""0.367""]","[1,1,1,0]",0,28,28,28,1,1,0,,,0,FALSE,,,,,,,,,,,,,,,,,,,,,,,,,,,,,,,
,5fd8e5d864c9d60e2a7d9aeb,627c6fd2f4d46ccf58a73434,2022-05-12_03h28.04.522,classification_task,2021.2.3,Win32,59.96641881,627c6715c52fd12f31907bcf,,,,,,,,,,,,,,,,,,,,,,,a,0,1.9333,"[""0.714"",""0.288"",""0.490"",""0.795""]","[0,1,1,1]",0,29,29,29,1,1,1,,,0,FALSE,,,,,,,,,,,,,,,,,,,,,,,,,,,,,,,
,5fd8e5d864c9d60e2a7d9aeb,627c6fd2f4d46ccf58a73434,2022-05-12_03h28.04.522,classification_task,2021.2.3,Win32,59.96641881,627c6715c52fd12f31907bcf,,,,,,,,,,,,,,,,,,,,,,,a,0,0.6832,"[""0.156"",""0.676"",""0.490"",""0.795""]","[1,0,1,1]",0,30,30,30,1,1,1,,,0,FALSE,,,,,,,,,,,,,,,,,,,,,,,,,,,,,,,
,5fd8e5d864c9d60e2a7d9aeb,627c6fd2f4d46ccf58a73434,2022-05-12_03h28.04.522,classification_task,2021.2.3,Win32,59.96641881,627c6715c52fd12f31907bcf,,,,,,,,,,,,,,,,,,,,,,,a,1,0.5831,"[""0.192"",""0.529"",""0.853"",""0.682""]","[1,1,1,0]",0,31,31,31,1,0,1,,,0,FALSE,,,,,,,,,,,,,,,,,,,,,,,,,,,,,,,
,5fd8e5d864c9d60e2a7d9aeb,627c6fd2f4d46ccf58a73434,2022-05-12_03h28.04.522,classification_task,2021.2.3,Win32,59.96641881,627c6715c52fd12f31907bcf,,,,,,,,,,,,,,,,,,,,,,,a,0,2.6498,"[""0.156"",""0.288"",""0.676"",""0.795""]","[1,1,0,1]",0,32,32,32,1,1,1,,,0,FALSE,,,,,,,,,,,,,,,,,,,,,,,,,,,,,,,
,5fd8e5d864c9d60e2a7d9aeb,627c6fd2f4d46ccf58a73434,2022-05-12_03h28.04.522,classification_task,2021.2.3,Win32,59.96641881,627c6715c52fd12f31907bcf,,,,,,,,,,,,,,,,,,,,,,,a,0,1.4664,"[""0.156"",""0.288"",""0.490"",""0.120""]","[1,1,1,0]",0,33,33,33,1,1,1,,,0,FALSE,,,,,,,,,,,,,,,,,,,,,,,,,,,,,,,
,5fd8e5d864c9d60e2a7d9aeb,627c6fd2f4d46ccf58a73434,2022-05-12_03h28.04.522,classification_task,2021.2.3,Win32,59.96641881,627c6715c52fd12f31907bcf,,,,,,,,,,,,,,,,,,,,,,,a,1,1.016,"[""0.192"",""0.529"",""0.853"",""0.720""]","[1,1,1,0]",0,34,34,34,1,0,1,,,0,FALSE,,,,,,,,,,,,,,,,,,,,,,,,,,,,,,,
,5fd8e5d864c9d60e2a7d9aeb,627c6fd2f4d46ccf58a73434,2022-05-12_03h28.04.522,classification_task,2021.2.3,Win32,59.96641881,627c6715c52fd12f31907bcf,,,,,,,,,,,,,,,,,,,,,,,l,1,0.9995,"[""0.365"",""0.433"",""0.564"",""0.753""]","[0,1,1,1]",0,35,35,35,1,1,0,,,0,FALSE,,,,,,,,,,,,,,,,,,,,,,,,,,,,,,,
,5fd8e5d864c9d60e2a7d9aeb,627c6fd2f4d46ccf58a73434,2022-05-12_03h28.04.522,classification_task,2021.2.3,Win32,59.96641881,627c6715c52fd12f31907bcf,,,,,,,,,,,,,,,,,,,,,,,l,1,1.0331,"[""0.387"",""0.288"",""0.490"",""0.795""]","[0,1,1,1]",0,36,36,36,1,1,1,,,0,FALSE,,,,,,,,,,,,,,,,,,,,,,,,,,,,,,,
,5fd8e5d864c9d60e2a7d9aeb,627c6fd2f4d46ccf58a73434,2022-05-12_03h28.04.522,classification_task,2021.2.3,Win32,59.96641881,627c6715c52fd12f31907bcf,,,,,,,,,,,,,,,,,,,,,,,a,1,1.1,"[""0.192"",""0.381"",""0.853"",""0.964""]","[1,0,1,1]",0,37,37,37,1,0,1,,,0,FALSE,,,,,,,,,,,,,,,,,,,,,,,,,,,,,,,
,5fd8e5d864c9d60e2a7d9aeb,627c6fd2f4d46ccf58a73434,2022-05-12_03h28.04.522,classification_task,2021.2.3,Win32,59.96641881,627c6715c52fd12f31907bcf,,,,,,,,,,,,,,,,,,,,,,,a,1,0.633,"[""0.225"",""0.328"",""0.616"",""0.381""]","[1,1,1,0]",0,38,38,38,1,0,0,,,0,FALSE,,,,,,,,,,,,,,,,,,,,,,,,,,,,,,,
,5fd8e5d864c9d60e2a7d9aeb,627c6fd2f4d46ccf58a73434,2022-05-12_03h28.04.522,classification_task,2021.2.3,Win32,59.96641881,627c6715c52fd12f31907bcf,,,,,,,,,,,,,,,,,,,,,,,l,0,1.6331,"[""0.192"",""0.529"",""0.720"",""0.964""]","[1,1,0,1]",0,39,39,39,1,0,1,,,0,FALSE,,,,,,,,,,,,,,,,,,,,,,,,,,,,,,,
,5fd8e5d864c9d60e2a7d9aeb,627c6fd2f4d46ccf58a73434,2022-05-12_03h28.04.522,classification_task,2021.2.3,Win32,59.96641881,627c6715c52fd12f31907bcf,,,,,,,,,,,,,,,,,,,,,,,a,0,0.7166,"[""0.156"",""0.367"",""0.490"",""0.795""]","[1,0,1,1]",0,40,40,40,1,1,1,,,0,FALSE,,,,,,,,,,,,,,,,,,,,,,,,,,,,,,,
,5fd8e5d864c9d60e2a7d9aeb,627c6fd2f4d46ccf58a73434,2022-05-12_03h28.04.522,classification_task,2021.2.3,Win32,59.96641881,627c6715c52fd12f31907bcf,,,,,,,,,,,,,,,,,,,,,,,l,1,0.8661,"[""0.059"",""0.889"",""0.564"",""0.753""]","[1,0,1,1]",0,41,41,41,1,1,0,,,0,FALSE,,,,,,,,,,,,,,,,,,,,,,,,,,,,,,,
,5fd8e5d864c9d60e2a7d9aeb,627c6fd2f4d46ccf58a73434,2022-05-12_03h28.04.522,classification_task,2021.2.3,Win32,59.96641881,627c6715c52fd12f31907bcf,,,,,,,,,,,,,,,,,,,,,,,a,1,0.783,"[""0.225"",""0.119"",""0.616"",""0.931""]","[1,0,1,1]",0,42,42,42,1,0,0,,,0,FALSE,,,,,,,,,,,,,,,,,,,,,,,,,,,,,,,
,5fd8e5d864c9d60e2a7d9aeb,627c6fd2f4d46ccf58a73434,2022-05-12_03h28.04.522,classification_task,2021.2.3,Win32,59.96641881,627c6715c52fd12f31907bcf,,,,,,,,,,,,,,,,,,,,,,,l,1,0.7995,"[""0.059"",""0.433"",""0.564"",""0.120""]","[1,1,1,0]",0,43,43,43,1,1,0,,,0,FALSE,,,,,,,,,,,,,,,,,,,,,,,,,,,,,,,
,5fd8e5d864c9d60e2a7d9aeb,627c6fd2f4d46ccf58a73434,2022-05-12_03h28.04.522,classification_task,2021.2.3,Win32,59.96641881,627c6715c52fd12f31907bcf,,,,,,,,,,,,,,,,,,,,,,,l,0,1.2497,"[""0.676"",""0.529"",""0.853"",""0.964""]","[0,1,1,1]",0,44,44,44,1,0,1,,,0,FALSE,,,,,,,,,,,,,,,,,,,,,,,,,,,,,,,
,5fd8e5d864c9d60e2a7d9aeb,627c6fd2f4d46ccf58a73434,2022-05-12_03h28.04.522,classification_task,2021.2.3,Win32,59.96641881,627c6715c52fd12f31907bcf,,,,,,,,,,,,,,,,,,,,,,,a,1,0.8157,"[""0.225"",""0.328"",""0.113"",""0.931""]","[1,1,0,1]",0,45,45,45,1,0,0,,,0,FALSE,,,,,,,,,,,,,,,,,,,,,,,,,,,,,,,
,5fd8e5d864c9d60e2a7d9aeb,627c6fd2f4d46ccf58a73434,2022-05-12_03h28.04.522,classification_task,2021.2.3,Win32,59.96641881,627c6715c52fd12f31907bcf,,,,,,,,,,,,,,,,,,,,,,,a,1,0.7325,"[""0.119"",""0.328"",""0.616"",""0.931""]","[0,1,1,1]",0,46,46,46,1,0,0,,,0,FALSE,,,,,,,,,,,,,,,,,,,,,,,,,,,,,,,
,5fd8e5d864c9d60e2a7d9aeb,627c6fd2f4d46ccf58a73434,2022-05-12_03h28.04.522,classification_task,2021.2.3,Win32,59.96641881,627c6715c52fd12f31907bcf,,,,,,,,,,,,,,,,,,,,,,,l,1,0.7495,"[""0.059"",""0.433"",""0.365"",""0.753""]","[1,1,0,1]",0,47,47,47,1,1,0,,,0,FALSE,,,,,,,,,,,,,,,,,,,,,,,,,,,,,,,
,5fd8e5d864c9d60e2a7d9aeb,627c6fd2f4d46ccf58a73434,2022-05-12_03h28.04.522,classification_task,2021.2.3,Win32,59.96641881,627c6715c52fd12f31907bcf,,,,,,,,,,,,,,,,,,,,,,,a,1,0.9497,"[""0.394"",""0.529"",""0.853"",""0.964""]","[0,1,1,1]",0,48,48,48,1,0,1,,,0,FALSE,,,,,,,,,,,,,,,,,,,,,,,,,,,,,,,
,5fd8e5d864c9d60e2a7d9aeb,627c6fd2f4d46ccf58a73434,2022-05-12_03h28.04.522,classification_task,2021.2.3,Win32,59.96641881,627c6715c52fd12f31907bcf,,,,,,,,,,,,,,,,,,,,,,,l,1,1.0832,"[""0.156"",""0.288"",""0.889"",""0.795""]","[1,1,0,1]",0,49,49,49,1,1,1,,,0,FALSE,,,,,,,,,,,,,,,,,,,,,,,,,,,,,,,
,5fd8e5d864c9d60e2a7d9aeb,627c6fd2f4d46ccf58a73434,2022-05-12_03h28.04.522,classification_task,2021.2.3,Win32,59.96641881,627c6715c52fd12f31907bcf,,,,,,,,,,,,,,,,,,,,,,,a,1,1.6829,"[""0.676"",""0.328"",""0.616"",""0.931""]","[0,1,1,1]",0,50,50,50,1,0,0,,,0,FALSE,,,,,,,,,,,,,,,,,,,,,,,,,,,,,,,
,5fd8e5d864c9d60e2a7d9aeb,627c6fd2f4d46ccf58a73434,2022-05-12_03h28.04.522,classification_task,2021.2.3,Win32,59.96641881,627c6715c52fd12f31907bcf,,,,,,,,,,,,,,,,,,,,,,,l,0,0.9998,"[""0.192"",""0.387"",""0.853"",""0.964""]","[1,0,1,1]",0,51,51,51,1,0,1,,,0,FALSE,,,,,,,,,,,,,,,,,,,,,,,,,,,,,,,
,5fd8e5d864c9d60e2a7d9aeb,627c6fd2f4d46ccf58a73434,2022-05-12_03h28.04.522,classification_task,2021.2.3,Win32,59.96641881,627c6715c52fd12f31907bcf,,,,,,,,,,,,,,,,,,,,,,,l,1,2.6165,"[""0.387"",""0.288"",""0.490"",""0.795""]","[0,1,1,1]",0,52,52,52,1,1,1,,,0,FALSE,,,,,,,,,,,,,,,,,,,,,,,,,,,,,,,
,5fd8e5d864c9d60e2a7d9aeb,627c6fd2f4d46ccf58a73434,2022-05-12_03h28.04.522,classification_task,2021.2.3,Win32,59.96641881,627c6715c52fd12f31907bcf,,,,,,,,,,,,,,,,,,,,,,,a,1,1.3828,"[""0.225"",""0.328"",""0.616"",""0.682""]","[1,1,1,0]",0,53,53,53,1,0,0,,,0,FALSE,,,,,,,,,,,,,,,,,,,,,,,,,,,,,,,
,5fd8e5d864c9d60e2a7d9aeb,627c6fd2f4d46ccf58a73434,2022-05-12_03h28.04.522,classification_task,2021.2.3,Win32,59.96641881,627c6715c52fd12f31907bcf,,,,,,,,,,,,,,,,,,,,,,,l,1,1.4496,"[""0.059"",""0.365"",""0.564"",""0.753""]","[1,0,1,1]",0,54,54,54,1,1,0,,,0,FALSE,,,,,,,,,,,,,,,,,,,,,,,,,,,,,,,
,5fd8e5d864c9d60e2a7d9aeb,627c6fd2f4d46ccf58a73434,2022-05-12_03h28.04.522,classification_task,2021.2.3,Win32,59.96641881,627c6715c52fd12f31907bcf,,,,,,,,,,,,,,,,,,,,,,,a,1,1.0662,"[""0.225"",""0.676"",""0.616"",""0.931""]","[1,0,1,1]",0,55,55,55,1,0,0,,,0,FALSE,,,,,,,,,,,,,,,,,,,,,,,,,,,,,,,
,5fd8e5d864c9d60e2a7d9aeb,627c6fd2f4d46ccf58a73434,2022-05-12_03h28.04.522,classification_task,2021.2.3,Win32,59.96641881,627c6715c52fd12f31907bcf,,,,,,,,,,,,,,,,,,,,,,,l,1,1.1666,"[""0.156"",""0.381"",""0.490"",""0.795""]","[1,0,1,1]",0,56,56,56,1,1,1,,,0,FALSE,,,,,,,,,,,,,,,,,,,,,,,,,,,,,,,
,5fd8e5d864c9d60e2a7d9aeb,627c6fd2f4d46ccf58a73434,2022-05-12_03h28.04.522,classification_task,2021.2.3,Win32,59.96641881,627c6715c52fd12f31907bcf,,,,,,,,,,,,,,,,,,,,,,,a,1,1.083,"[""0.225"",""0.328"",""0.381"",""0.931""]","[1,1,0,1]",0,57,57,57,1,0,0,,,0,FALSE,,,,,,,,,,,,,,,,,,,,,,,,,,,,,,,
,5fd8e5d864c9d60e2a7d9aeb,627c6fd2f4d46ccf58a73434,2022-05-12_03h28.04.522,classification_task,2021.2.3,Win32,59.96641881,627c6715c52fd12f31907bcf,,,,,,,,,,,,,,,,,,,,,,,l,1,1.1497,"[""0.059"",""0.433"",""0.564"",""0.720""]","[1,1,1,0]",0,58,58,58,1,1,0,,,0,FALSE,,,,,,,,,,,,,,,,,,,,,,,,,,,,,,,
,5fd8e5d864c9d60e2a7d9aeb,627c6fd2f4d46ccf58a73434,2022-05-12_03h28.04.522,classification_task,2021.2.3,Win32,59.96641881,627c6715c52fd12f31907bcf,,,,,,,,,,,,,,,,,,,,,,,l,0,1.2498,"[""0.192"",""0.529"",""0.853"",""0.381""]","[1,1,1,0]",0,59,59,59,1,0,1,,,0,FALSE,,,,,,,,,,,,,,,,,,,,,,,,,,,,,,,
,5fd8e5d864c9d60e2a7d9aeb,627c6fd2f4d46ccf58a73434,2022-05-12_03h28.04.522,classification_task,2021.2.3,Win32,59.96641881,627c6715c52fd12f31907bcf,,,,,,,,,,,,,,,,,,,,,,,a,1,0.7999,"[""0.192"",""0.529"",""0.119"",""0.964""]","[1,1,0,1]",0,60,60,60,1,0,1,,,0,FALSE,,,,,,,,,,,,,,,,,,,,,,,,,,,,,,,
,5fd8e5d864c9d60e2a7d9aeb,627c6fd2f4d46ccf58a73434,2022-05-12_03h28.04.522,classification_task,2021.2.3,Win32,59.96641881,627c6715c52fd12f31907bcf,,,,,,,,,,,,,,,,,,,,,,,l,1,0.7999,"[""0.156"",""0.288"",""0.490"",""0.676""]","[1,1,1,0]",0,61,61,61,1,1,1,,,0,FALSE,,,,,,,,,,,,,,,,,,,,,,,,,,,,,,,
,5fd8e5d864c9d60e2a7d9aeb,627c6fd2f4d46ccf58a73434,2022-05-12_03h28.04.522,classification_task,2021.2.3,Win32,59.96641881,627c6715c52fd12f31907bcf,,,,,,,,,,,,,,,,,,,,,,,l,1,1.3496,"[""0.381"",""0.433"",""0.564"",""0.753""]","[0,1,1,1]",0,62,62,62,1,1,0,,,0,FALSE,,,,,,,,,,,,,,,,,,,,,,,,,,,,,,,
,5fd8e5d864c9d60e2a7d9aeb,627c6fd2f4d46ccf58a73434,2022-05-12_03h28.04.522,classification_task,2021.2.3,Win32,59.96641881,627c6715c52fd12f31907bcf,,,,,,,,,,,,,,,,,,,,,,,l,1,0.9495,"[""0.059"",""0.433"",""0.889"",""0.753""]","[1,1,0,1]",0,63,63,63,1,1,0,,,0,FALSE,,,,,,,,,,,,,,,,,,,,,,,,,,,,,,,
,5fd8e5d864c9d60e2a7d9aeb,627c6fd2f4d46ccf58a73434,2022-05-12_03h28.04.522,classification_task,2021.2.3,Win32,59.96641881,627c6715c52fd12f31907bcf,,,,,,,,,,,,,,,,,,,,,,,,,,,,,,,,,,,,,,,0, ,,0,4.314128944,171.3561,0,1,1,1,1,2,2,,,,,,,,,,,,,,,,,,
,5fd8e5d864c9d60e2a7d9aeb,627c6fd2f4d46ccf58a73434,2022-05-12_03h28.04.522,classification_task,2021.2.3,Win32,59.96641881,627c6715c52fd12f31907bcf,,,,,,,,,,,,,,,,,,,,,,,,,,,,,,,,,,,,,,,1,  ,,0,7.841465804,173.7516,0,1,1,1,1,2,2,,,,,,,,,,,,,,,,,,
,5fd8e5d864c9d60e2a7d9aeb,627c6fd2f4d46ccf58a73434,2022-05-12_03h28.04.522,classification_task,2021.2.3,Win32,59.96641881,627c6715c52fd12f31907bcf,,,,,,,,,,,,,,,,,,,,,,,,,,,,,,,,,,,,,,,2,  ,,0,6.494219087,175.4849,0,1,1,1,1,2,2,,,,,,,,,,,,,,,,,,
,5fd8e5d864c9d60e2a7d9aeb,627c6fd2f4d46ccf58a73434,2022-05-12_03h28.04.522,classification_task,2021.2.3,Win32,59.96641881,627c6715c52fd12f31907bcf,,,,,,,,,,,,,,,,,,,,,,,,,,,,,,,,,,,,,,,,,,,,,0,1,1,1,1,,2,,,,,,,,,,,,,,,,,,
,5fd8e5d864c9d60e2a7d9aeb,627c6fd2f4d46ccf58a73434,2022-05-12_03h28.04.522,classification_task,2021.2.3,Win32,59.96641881,627c6715c52fd12f31907bcf,,,,,,,,,,,,,,,,,,,,,space,5.8667,a,0,4.25,"[""0.714"",""0.288"",""0.490"",""0.795""]","[0,1,1,1]",0,0,0,0,1,1,1,,,0,FALSE,,,,,,,,,,,,,,,,,,,,,,,,,,,,,,,
,5fd8e5d864c9d60e2a7d9aeb,627c6fd2f4d46ccf58a73434,2022-05-12_03h28.04.522,classification_task,2021.2.3,Win32,59.96641881,627c6715c52fd12f31907bcf,,,,,,,,,,,,,,,,,,,,,,,l,1,7.7829,"[""0.059"",""0.433"",""0.564"",""0.119""]","[1,1,1,0]",0,1,1,1,1,1,0,,,0,FALSE,,,,,,,,,,,,,,,,,,,,,,,,,,,,,,,
,5fd8e5d864c9d60e2a7d9aeb,627c6fd2f4d46ccf58a73434,2022-05-12_03h28.04.522,classification_task,2021.2.3,Win32,59.96641881,627c6715c52fd12f31907bcf,,,,,,,,,,,,,,,,,,,,,,,l,0,2.0829,"[""0.381"",""0.529"",""0.853"",""0.964""]","[0,1,1,1]",0,2,2,2,1,0,1,,,0,FALSE,,,,,,,,,,,,,,,,,,,,,,,,,,,,,,,
,5fd8e5d864c9d60e2a7d9aeb,627c6fd2f4d46ccf58a73434,2022-05-12_03h28.04.522,classification_task,2021.2.3,Win32,59.96641881,627c6715c52fd12f31907bcf,,,,,,,,,,,,,,,,,,,,,,,a,0,0.8996,"[""0.156"",""0.288"",""0.490"",""0.714""]","[1,1,1,0]",0,3,3,3,1,1,1,,,0,FALSE,,,,,,,,,,,,,,,,,,,,,,,,,,,,,,,
,5fd8e5d864c9d60e2a7d9aeb,627c6fd2f4d46ccf58a73434,2022-05-12_03h28.04.522,classification_task,2021.2.3,Win32,59.96641881,627c6715c52fd12f31907bcf,,,,,,,,,,,,,,,,,,,,,,,l,1,2.2829,"[""0.714"",""0.433"",""0.564"",""0.753""]","[0,1,1,1]",0,4,4,4,1,1,0,,,0,FALSE,,,,,,,,,,,,,,,,,,,,,,,,,,,,,,,
,5fd8e5d864c9d60e2a7d9aeb,627c6fd2f4d46ccf58a73434,2022-05-12_03h28.04.522,classification_task,2021.2.3,Win32,59.96641881,627c6715c52fd12f31907bcf,,,,,,,,,,,,,,,,,,,,,,,l,0,1.4329,"[""0.225"",""0.676"",""0.616"",""0.931""]","[1,0,1,1]",0,5,5,5,1,0,0,,,0,FALSE,,,,,,,,,,,,,,,,,,,,,,,,,,,,,,,
,5fd8e5d864c9d60e2a7d9aeb,627c6fd2f4d46ccf58a73434,2022-05-12_03h28.04.522,classification_task,2021.2.3,Win32,59.96641881,627c6715c52fd12f31907bcf,,,,,,,,,,,,,,,,,,,,,,,a,1,2.7998,"[""0.192"",""0.529"",""0.381"",""0.964""]","[1,1,0,1]",0,6,6,6,1,0,1,,,0,FALSE,,,,,,,,,,,,,,,,,,,,,,,,,,,,,,,
,5fd8e5d864c9d60e2a7d9aeb,627c6fd2f4d46ccf58a73434,2022-05-12_03h28.04.522,classification_task,2021.2.3,Win32,59.96641881,627c6715c52fd12f31907bcf,,,,,,,,,,,,,,,,,,,,,,,a,1,1.3496,"[""0.225"",""0.328"",""0.714"",""0.931""]","[1,1,0,1]",0,7,7,7,1,0,0,,,0,FALSE,,,,,,,,,,,,,,,,,,,,,,,,,,,,,,,
,5fd8e5d864c9d60e2a7d9aeb,627c6fd2f4d46ccf58a73434,2022-05-12_03h28.04.522,classification_task,2021.2.3,Win32,59.96641881,627c6715c52fd12f31907bcf,,,,,,,,,,,,,,,,,,,,,,,l,1,2.2996,"[""0.059"",""0.367"",""0.564"",""0.753""]","[1,0,1,1]",0,8,8,8,1,1,0,,,0,FALSE,,,,,,,,,,,,,,,,,,,,,,,,,,,,,,,
,5fd8e5d864c9d60e2a7d9aeb,627c6fd2f4d46ccf58a73434,2022-05-12_03h28.04.522,classification_task,2021.2.3,Win32,59.96641881,627c6715c52fd12f31907bcf,,,,,,,,,,,,,,,,,,,,,,,a,0,5.5665,"[""0.156"",""0.390"",""0.490"",""0.795""]","[1,0,1,1]",0,9,9,9,1,1,1,,,0,FALSE,,,,,,,,,,,,,,,,,,,,,,,,,,,,,,,
,5fd8e5d864c9d60e2a7d9aeb,627c6fd2f4d46ccf58a73434,2022-05-12_03h28.04.522,classification_task,2021.2.3,Win32,59.96641881,627c6715c52fd12f31907bcf,,,,,,,,,,,,,,,,,,,,,,,l,0,2.4328,"[""0.387"",""0.328"",""0.616"",""0.931""]","[0,1,1,1]",0,10,10,10,1,0,0,,,0,FALSE,,,,,,,,,,,,,,,,,,,,,,,,,,,,,,,
,5fd8e5d864c9d60e2a7d9aeb,627c6fd2f4d46ccf58a73434,2022-05-12_03h28.04.522,classification_task,2021.2.3,Win32,59.96641881,627c6715c52fd12f31907bcf,,,,,,,,,,,,,,,,,,,,,,,a,1,1.2664,"[""0.192"",""0.676"",""0.853"",""0.964""]","[1,0,1,1]",0,11,11,11,1,0,1,,,0,FALSE,,,,,,,,,,,,,,,,,,,,,,,,,,,,,,,
,5fd8e5d864c9d60e2a7d9aeb,627c6fd2f4d46ccf58a73434,2022-05-12_03h28.04.522,classification_task,2021.2.3,Win32,59.96641881,627c6715c52fd12f31907bcf,,,,,,,,,,,,,,,,,,,,,,,l,1,1.5326,"[""0.059"",""0.433"",""0.390"",""0.753""]","[1,1,0,1]",0,12,12,12,1,1,0,,,0,FALSE,,,,,,,,,,,,,,,,,,,,,,,,,,,,,,,
,5fd8e5d864c9d60e2a7d9aeb,627c6fd2f4d46ccf58a73434,2022-05-12_03h28.04.522,classification_task,2021.2.3,Win32,59.96641881,627c6715c52fd12f31907bcf,,,,,,,,,,,,,,,,,,,,,,,l,0,1.433,"[""0.225"",""0.328"",""0.616"",""0.381""]","[1,1,1,0]",0,13,13,13,1,0,0,,,0,FALSE,,,,,,,,,,,,,,,,,,,,,,,,,,,,,,,
,5fd8e5d864c9d60e2a7d9aeb,627c6fd2f4d46ccf58a73434,2022-05-12_03h28.04.522,classification_task,2021.2.3,Win32,59.96641881,627c6715c52fd12f31907bcf,,,,,,,,,,,,,,,,,,,,,,,a,0,1.0498,"[""0.156"",""0.288"",""0.682"",""0.795""]","[1,1,0,1]",0,14,14,14,1,1,1,,,0,FALSE,,,,,,,,,,,,,,,,,,,,,,,,,,,,,,,
,5fd8e5d864c9d60e2a7d9aeb,627c6fd2f4d46ccf58a73434,2022-05-12_03h28.04.522,classification_task,2021.2.3,Win32,59.96641881,627c6715c52fd12f31907bcf,,,,,,,,,,,,,,,,,,,,,,,l,0,1.2499,"[""0.192"",""0.529"",""0.853"",""0.682""]","[1,1,1,0]",0,15,15,15,1,0,1,,,0,FALSE,,,,,,,,,,,,,,,,,,,,,,,,,,,,,,,
,5fd8e5d864c9d60e2a7d9aeb,627c6fd2f4d46ccf58a73434,2022-05-12_03h28.04.522,classification_task,2021.2.3,Win32,59.96641881,627c6715c52fd12f31907bcf,,,,,,,,,,,,,,,,,,,,,,,l,0,1.3165,"[""0.192"",""0.720"",""0.853"",""0.964""]","[1,0,1,1]",0,16,16,16,1,0,1,,,0,FALSE,,,,,,,,,,,,,,,,,,,,,,,,,,,,,,,
,5fd8e5d864c9d60e2a7d9aeb,627c6fd2f4d46ccf58a73434,2022-05-12_03h28.04.522,classification_task,2021.2.3,Win32,59.96641881,627c6715c52fd12f31907bcf,,,,,,,,,,,,,,,,,,,,,,,a,1,0.6829,"[""0.225"",""0.100"",""0.616"",""0.931""]","[1,0,1,1]",0,17,17,17,1,0,0,,,0,FALSE,,,,,,,,,,,,,,,,,,,,,,,,,,,,,,,
,5fd8e5d864c9d60e2a7d9aeb,627c6fd2f4d46ccf58a73434,2022-05-12_03h28.04.522,classification_task,2021.2.3,Win32,59.96641881,627c6715c52fd12f31907bcf,,,,,,,,,,,,,,,,,,,,,,,l,1,1.8499,"[""0.156"",""0.394"",""0.490"",""0.795""]","[1,0,1,1]",0,18,18,18,1,1,1,,,0,FALSE,,,,,,,,,,,,,,,,,,,,,,,,,,,,,,,
,5fd8e5d864c9d60e2a7d9aeb,627c6fd2f4d46ccf58a73434,2022-05-12_03h28.04.522,classification_task,2021.2.3,Win32,59.96641881,627c6715c52fd12f31907bcf,,,,,,,,,,,,,,,,,,,,,,,a,0,2.9165,"[""0.365"",""0.288"",""0.490"",""0.795""]","[0,1,1,1]",0,19,19,19,1,1,1,,,0,FALSE,,,,,,,,,,,,,,,,,,,,,,,,,,,,,,,
,5fd8e5d864c9d60e2a7d9aeb,627c6fd2f4d46ccf58a73434,2022-05-12_03h28.04.522,classification_task,2021.2.3,Win32,59.96641881,627c6715c52fd12f31907bcf,,,,,,,,,,,,,,,,,,,,,,,a,0,1.9498,"[""0.156"",""0.288"",""0.490"",""0.720""]","[1,1,1,0]",0,20,20,20,1,1,1,,,0,FALSE,,,,,,,,,,,,,,,,,,,,,,,,,,,,,,,
,5fd8e5d864c9d60e2a7d9aeb,627c6fd2f4d46ccf58a73434,2022-05-12_03h28.04.522,classification_task,2021.2.3,Win32,59.96641881,627c6715c52fd12f31907bcf,,,,,,,,,,,,,,,,,,,,,,,l,0,2.4162,"[""0.192"",""0.529"",""0.853"",""0.100""]","[1,1,1,0]",0,21,21,21,1,0,1,,,0,FALSE,,,,,,,,,,,,,,,,,,,,,,,,,,,,,,,
,5fd8e5d864c9d60e2a7d9aeb,627c6fd2f4d46ccf58a73434,2022-05-12_03h28.04.522,classification_task,2021.2.3,Win32,59.96641881,627c6715c52fd12f31907bcf,,,,,,,,,,,,,,,,,,,,,,,a,1,0.8828,"[""0.225"",""0.328"",""0.381"",""0.931""]","[1,1,0,1]",0,22,22,22,1,0,0,,,0,FALSE,,,,,,,,,,,,,,,,,,,,,,,,,,,,,,,
,5fd8e5d864c9d60e2a7d9aeb,627c6fd2f4d46ccf58a73434,2022-05-12_03h28.04.522,classification_task,2021.2.3,Win32,59.96641881,627c6715c52fd12f31907bcf,,,,,,,,,,,,,,,,,,,,,,,l,1,1.1496,"[""0.387"",""0.433"",""0.564"",""0.753""]","[0,1,1,1]",0,23,23,23,1,1,0,,,0,FALSE,,,,,,,,,,,,,,,,,,,,,,,,,,,,,,,
,5fd8e5d864c9d60e2a7d9aeb,627c6fd2f4d46ccf58a73434,2022-05-12_03h28.04.522,classification_task,2021.2.3,Win32,59.96641881,627c6715c52fd12f31907bcf,,,,,,,,,,,,,,,,,,,,,,,a,1,2.4164,"[""0.225"",""0.328"",""0.616"",""0.365""]","[1,1,1,0]",0,24,24,24,1,0,0,,,0,FALSE,,,,,,,,,,,,,,,,,,,,,,,,,,,,,,,
,5fd8e5d864c9d60e2a7d9aeb,627c6fd2f4d46ccf58a73434,2022-05-12_03h28.04.522,classification_task,2021.2.3,Win32,59.96641881,627c6715c52fd12f31907bcf,,,,,,,,,,,,,,,,,,,,,,,l,1,2.5164,"[""0.059"",""0.720"",""0.564"",""0.753""]","[1,0,1,1]",0,25,25,25,1,1,0,,,0,FALSE,,,,,,,,,,,,,,,,,,,,,,,,,,,,,,,
,5fd8e5d864c9d60e2a7d9aeb,627c6fd2f4d46ccf58a73434,2022-05-12_03h28.04.522,classification_task,2021.2.3,Win32,59.96641881,627c6715c52fd12f31907bcf,,,,,,,,,,,,,,,,,,,,,,,a,0,2.9995,"[""0.059"",""0.433"",""0.564"",""0.365""]","[1,1,1,0]",0,26,26,26,1,1,0,,,0,FALSE,,,,,,,,,,,,,,,,,,,,,,,,,,,,,,,
,5fd8e5d864c9d60e2a7d9aeb,627c6fd2f4d46ccf58a73434,2022-05-12_03h28.04.522,classification_task,2021.2.3,Win32,59.96641881,627c6715c52fd12f31907bcf,,,,,,,,,,,,,,,,,,,,,,,a,1,1.1999,"[""0.192"",""0.529"",""0.381"",""0.964""]","[1,1,0,1]",0,27,27,27,1,0,1,,,0,FALSE,,,,,,,,,,,,,,,,,,,,,,,,,,,,,,,
,5fd8e5d864c9d60e2a7d9aeb,627c6fd2f4d46ccf58a73434,2022-05-12_03h28.04.522,classification_task,2021.2.3,Win32,59.96641881,627c6715c52fd12f31907bcf,,,,,,,,,,,,,,,,,,,,,,,a,1,2.7832,"[""0.387"",""0.529"",""0.853"",""0.964""]","[0,1,1,1]",0,28,28,28,1,0,1,,,0,FALSE,,,,,,,,,,,,,,,,,,,,,,,,,,,,,,,
,5fd8e5d864c9d60e2a7d9aeb,627c6fd2f4d46ccf58a73434,2022-05-12_03h28.04.522,classification_task,2021.2.3,Win32,59.96641881,627c6715c52fd12f31907bcf,,,,,,,,,,,,,,,,,,,,,,,l,1,1.0165,"[""0.156"",""0.288"",""0.381"",""0.795""]","[1,1,0,1]",0,29,29,29,1,1,1,,,0,FALSE,,,,,,,,,,,,,,,,,,,,,,,,,,,,,,,
,5fd8e5d864c9d60e2a7d9aeb,627c6fd2f4d46ccf58a73434,2022-05-12_03h28.04.522,classification_task,2021.2.3,Win32,59.96641881,627c6715c52fd12f31907bcf,,,,,,,,,,,,,,,,,,,,,,,l,1,1.9328,"[""0.059"",""0.433"",""0.390"",""0.753""]","[1,1,0,1]",0,30,30,30,1,1,0,,,0,FALSE,,,,,,,,,,,,,,,,,,,,,,,,,,,,,,,
,5fd8e5d864c9d60e2a7d9aeb,627c6fd2f4d46ccf58a73434,2022-05-12_03h28.04.522,classification_task,2021.2.3,Win32,59.96641881,627c6715c52fd12f31907bcf,,,,,,,,,,,,,,,,,,,,,,,a,1,2.6162,"[""0.119"",""0.328"",""0.616"",""0.931""]","[0,1,1,1]",0,31,31,31,1,0,0,,,0,FALSE,,,,,,,,,,,,,,,,,,,,,,,,,,,,,,,
,5fd8e5d864c9d60e2a7d9aeb,627c6fd2f4d46ccf58a73434,2022-05-12_03h28.04.522,classification_task,2021.2.3,Win32,59.96641881,627c6715c52fd12f31907bcf,,,,,,,,,,,,,,,,,,,,,,,l,0,1.6665,"[""0.365"",""0.529"",""0.853"",""0.964""]","[0,1,1,1]",0,32,32,32,1,0,1,,,0,FALSE,,,,,,,,,,,,,,,,,,,,,,,,,,,,,,,
,5fd8e5d864c9d60e2a7d9aeb,627c6fd2f4d46ccf58a73434,2022-05-12_03h28.04.522,classification_task,2021.2.3,Win32,59.96641881,627c6715c52fd12f31907bcf,,,,,,,,,,,,,,,,,,,,,,,l,0,1.0325,"[""0.676"",""0.328"",""0.616"",""0.931""]","[0,1,1,1]",0,33,33,33,1,0,0,,,0,FALSE,,,,,,,,,,,,,,,,,,,,,,,,,,,,,,,
,5fd8e5d864c9d60e2a7d9aeb,627c6fd2f4d46ccf58a73434,2022-05-12_03h28.04.522,classification_task,2021.2.3,Win32,59.96641881,627c6715c52fd12f31907bcf,,,,,,,,,,,,,,,,,,,,,,,l,0,1.3663,"[""0.225"",""0.676"",""0.616"",""0.931""]","[1,0,1,1]",0,34,34,34,1,0,0,,,0,FALSE,,,,,,,,,,,,,,,,,,,,,,,,,,,,,,,
,5fd8e5d864c9d60e2a7d9aeb,627c6fd2f4d46ccf58a73434,2022-05-12_03h28.04.522,classification_task,2021.2.3,Win32,59.96641881,627c6715c52fd12f31907bcf,,,,,,,,,,,,,,,,,,,,,,,a,0,2.1998,"[""0.156"",""0.288"",""0.490"",""0.113""]","[1,1,1,0]",0,35,35,35,1,1,1,,,0,FALSE,,,,,,,,,,,,,,,,,,,,,,,,,,,,,,,
,5fd8e5d864c9d60e2a7d9aeb,627c6fd2f4d46ccf58a73434,2022-05-12_03h28.04.522,classification_task,2021.2.3,Win32,59.96641881,627c6715c52fd12f31907bcf,,,,,,,,,,,,,,,,,,,,,,,l,1,1.0998,"[""0.156"",""0.387"",""0.490"",""0.795""]","[1,0,1,1]",0,36,36,36,1,1,1,,,0,FALSE,,,,,,,,,,,,,,,,,,,,,,,,,,,,,,,
,5fd8e5d864c9d60e2a7d9aeb,627c6fd2f4d46ccf58a73434,2022-05-12_03h28.04.522,classification_task,2021.2.3,Win32,59.96641881,627c6715c52fd12f31907bcf,,,,,,,,,,,,,,,,,,,,,,,l,1,2.8662,"[""0.059"",""0.113"",""0.564"",""0.753""]","[1,0,1,1]",0,37,37,37,1,1,0,,,0,FALSE,,,,,,,,,,,,,,,,,,,,,,,,,,,,,,,
,5fd8e5d864c9d60e2a7d9aeb,627c6fd2f4d46ccf58a73434,2022-05-12_03h28.04.522,classification_task,2021.2.3,Win32,59.96641881,627c6715c52fd12f31907bcf,,,,,,,,,,,,,,,,,,,,,,,l,0,1.7822,"[""0.225"",""0.328"",""0.100"",""0.931""]","[1,1,0,1]",0,38,38,38,1,0,0,,,0,FALSE,,,,,,,,,,,,,,,,,,,,,,,,,,,,,,,
,5fd8e5d864c9d60e2a7d9aeb,627c6fd2f4d46ccf58a73434,2022-05-12_03h28.04.522,classification_task,2021.2.3,Win32,59.96641881,627c6715c52fd12f31907bcf,,,,,,,,,,,,,,,,,,,,,,,a,1,0.9165,"[""0.192"",""0.390"",""0.853"",""0.964""]","[1,0,1,1]",0,39,39,39,1,0,1,,,0,FALSE,,,,,,,,,,,,,,,,,,,,,,,,,,,,,,,
,5fd8e5d864c9d60e2a7d9aeb,627c6fd2f4d46ccf58a73434,2022-05-12_03h28.04.522,classification_task,2021.2.3,Win32,59.96641881,627c6715c52fd12f31907bcf,,,,,,,,,,,,,,,,,,,,,,,l,1,1.833,"[""0.059"",""0.433"",""0.367"",""0.753""]","[1,1,0,1]",0,40,40,40,1,1,0,,,0,FALSE,,,,,,,,,,,,,,,,,,,,,,,,,,,,,,,
,5fd8e5d864c9d60e2a7d9aeb,627c6fd2f4d46ccf58a73434,2022-05-12_03h28.04.522,classification_task,2021.2.3,Win32,59.96641881,627c6715c52fd12f31907bcf,,,,,,,,,,,,,,,,,,,,,,,a,1,1.1995,"[""0.225"",""0.328"",""0.616"",""0.120""]","[1,1,1,0]",0,41,41,41,1,0,0,,,0,FALSE,,,,,,,,,,,,,,,,,,,,,,,,,,,,,,,
,5fd8e5d864c9d60e2a7d9aeb,627c6fd2f4d46ccf58a73434,2022-05-12_03h28.04.522,classification_task,2021.2.3,Win32,59.96641881,627c6715c52fd12f31907bcf,,,,,,,,,,,,,,,,,,,,,,,l,1,0.8999,"[""0.390"",""0.288"",""0.490"",""0.795""]","[0,1,1,1]",0,42,42,42,1,1,1,,,0,FALSE,,,,,,,,,,,,,,,,,,,,,,,,,,,,,,,
,5fd8e5d864c9d60e2a7d9aeb,627c6fd2f4d46ccf58a73434,2022-05-12_03h28.04.522,classification_task,2021.2.3,Win32,59.96641881,627c6715c52fd12f31907bcf,,,,,,,,,,,,,,,,,,,,,,,l,1,1.5492,"[""0.367"",""0.433"",""0.564"",""0.753""]","[0,1,1,1]",0,43,43,43,1,1,0,,,0,FALSE,,,,,,,,,,,,,,,,,,,,,,,,,,,,,,,
,5fd8e5d864c9d60e2a7d9aeb,627c6fd2f4d46ccf58a73434,2022-05-12_03h28.04.522,classification_task,2021.2.3,Win32,59.96641881,627c6715c52fd12f31907bcf,,,,,,,,,,,,,,,,,,,,,,,a,0,1.1332,"[""0.156"",""0.288"",""0.682"",""0.795""]","[1,1,0,1]",0,44,44,44,1,1,1,,,0,FALSE,,,,,,,,,,,,,,,,,,,,,,,,,,,,,,,
,5fd8e5d864c9d60e2a7d9aeb,627c6fd2f4d46ccf58a73434,2022-05-12_03h28.04.522,classification_task,2021.2.3,Win32,59.96641881,627c6715c52fd12f31907bcf,,,,,,,,,,,,,,,,,,,,,,,l,0,1.6165,"[""0.192"",""0.529"",""0.853"",""0.714""]","[1,1,1,0]",0,45,45,45,1,0,1,,,0,FALSE,,,,,,,,,,,,,,,,,,,,,,,,,,,,,,,
,5fd8e5d864c9d60e2a7d9aeb,627c6fd2f4d46ccf58a73434,2022-05-12_03h28.04.522,classification_task,2021.2.3,Win32,59.96641881,627c6715c52fd12f31907bcf,,,,,,,,,,,,,,,,,,,,,,,l,1,1.5828,"[""0.059"",""0.433"",""0.564"",""0.682""]","[1,1,1,0]",0,46,46,46,1,1,0,,,0,FALSE,,,,,,,,,,,,,,,,,,,,,,,,,,,,,,,
,5fd8e5d864c9d60e2a7d9aeb,627c6fd2f4d46ccf58a73434,2022-05-12_03h28.04.522,classification_task,2021.2.3,Win32,59.96641881,627c6715c52fd12f31907bcf,,,,,,,,,,,,,,,,,,,,,,,l,0,2.8333,"[""0.192"",""0.529"",""0.113"",""0.964""]","[1,1,0,1]",0,47,47,47,1,0,1,,,0,FALSE,,,,,,,,,,,,,,,,,,,,,,,,,,,,,,,
,5fd8e5d864c9d60e2a7d9aeb,627c6fd2f4d46ccf58a73434,2022-05-12_03h28.04.522,classification_task,2021.2.3,Win32,59.96641881,627c6715c52fd12f31907bcf,,,,,,,,,,,,,,,,,,,,,,,l,0,1.4498,"[""0.192"",""0.529"",""0.113"",""0.964""]","[1,1,0,1]",0,48,48,48,1,0,1,,,0,FALSE,,,,,,,,,,,,,,,,,,,,,,,,,,,,,,,
,5fd8e5d864c9d60e2a7d9aeb,627c6fd2f4d46ccf58a73434,2022-05-12_03h28.04.522,classification_task,2021.2.3,Win32,59.96641881,627c6715c52fd12f31907bcf,,,,,,,,,,,,,,,,,,,,,,,l,1,1.5499,"[""0.156"",""0.288"",""0.119"",""0.795""]","[1,1,0,1]",0,49,49,49,1,1,1,,,0,FALSE,,,,,,,,,,,,,,,,,,,,,,,,,,,,,,,
,5fd8e5d864c9d60e2a7d9aeb,627c6fd2f4d46ccf58a73434,2022-05-12_03h28.04.522,classification_task,2021.2.3,Win32,59.96641881,627c6715c52fd12f31907bcf,,,,,,,,,,,,,,,,,,,,,,,a,0,0.8832,"[""0.156"",""0.288"",""0.490"",""0.390""]","[1,1,1,0]",0,50,50,50,1,1,1,,,0,FALSE,,,,,,,,,,,,,,,,,,,,,,,,,,,,,,,
,5fd8e5d864c9d60e2a7d9aeb,627c6fd2f4d46ccf58a73434,2022-05-12_03h28.04.522,classification_task,2021.2.3,Win32,59.96641881,627c6715c52fd12f31907bcf,,,,,,,,,,,,,,,,,,,,,,,a,1,1.0329,"[""0.120"",""0.328"",""0.616"",""0.931""]","[0,1,1,1]",0,51,51,51,1,0,0,,,0,FALSE,,,,,,,,,,,,,,,,,,,,,,,,,,,,,,,
,5fd8e5d864c9d60e2a7d9aeb,627c6fd2f4d46ccf58a73434,2022-05-12_03h28.04.522,classification_task,2021.2.3,Win32,59.96641881,627c6715c52fd12f31907bcf,,,,,,,,,,,,,,,,,,,,,,,l,0,1.2995,"[""0.192"",""0.676"",""0.853"",""0.964""]","[1,0,1,1]",0,52,52,52,1,0,1,,,0,FALSE,,,,,,,,,,,,,,,,,,,,,,,,,,,,,,,
,5fd8e5d864c9d60e2a7d9aeb,627c6fd2f4d46ccf58a73434,2022-05-12_03h28.04.522,classification_task,2021.2.3,Win32,59.96641881,627c6715c52fd12f31907bcf,,,,,,,,,,,,,,,,,,,,,,,l,0,1.6496,"[""0.225"",""0.367"",""0.616"",""0.931""]","[1,0,1,1]",0,53,53,53,1,0,0,,,0,FALSE,,,,,,,,,,,,,,,,,,,,,,,,,,,,,,,
,5fd8e5d864c9d60e2a7d9aeb,627c6fd2f4d46ccf58a73434,2022-05-12_03h28.04.522,classification_task,2021.2.3,Win32,59.96641881,627c6715c52fd12f31907bcf,,,,,,,,,,,,,,,,,,,,,,,l,1,1.5163,"[""0.059"",""0.433"",""0.564"",""0.682""]","[1,1,1,0]",0,54,54,54,1,1,0,,,0,FALSE,,,,,,,,,,,,,,,,,,,,,,,,,,,,,,,
,5fd8e5d864c9d60e2a7d9aeb,627c6fd2f4d46ccf58a73434,2022-05-12_03h28.04.522,classification_task,2021.2.3,Win32,59.96641881,627c6715c52fd12f31907bcf,,,,,,,,,,,,,,,,,,,,,,,a,0,0.8998,"[""0.156"",""0.720"",""0.490"",""0.795""]","[1,0,1,1]",0,55,55,55,1,1,1,,,0,FALSE,,,,,,,,,,,,,,,,,,,,,,,,,,,,,,,
,5fd8e5d864c9d60e2a7d9aeb,627c6fd2f4d46ccf58a73434,2022-05-12_03h28.04.522,classification_task,2021.2.3,Win32,59.96641881,627c6715c52fd12f31907bcf,,,,,,,,,,,,,,,,,,,,,,,a,1,0.8827,"[""0.225"",""0.328"",""0.616"",""0.889""]","[1,1,1,0]",0,56,56,56,1,0,0,,,0,FALSE,,,,,,,,,,,,,,,,,,,,,,,,,,,,,,,
,5fd8e5d864c9d60e2a7d9aeb,627c6fd2f4d46ccf58a73434,2022-05-12_03h28.04.522,classification_task,2021.2.3,Win32,59.96641881,627c6715c52fd12f31907bcf,,,,,,,,,,,,,,,,,,,,,,,a,1,1.283,"[""0.225"",""0.328"",""0.676"",""0.931""]","[1,1,0,1]",0,57,57,57,1,0,0,,,0,FALSE,,,,,,,,,,,,,,,,,,,,,,,,,,,,,,,
,5fd8e5d864c9d60e2a7d9aeb,627c6fd2f4d46ccf58a73434,2022-05-12_03h28.04.522,classification_task,2021.2.3,Win32,59.96641881,627c6715c52fd12f31907bcf,,,,,,,,,,,,,,,,,,,,,,,l,1,0.9495,"[""0.387"",""0.433"",""0.564"",""0.753""]","[0,1,1,1]",0,58,58,58,1,1,0,,,0,FALSE,,,,,,,,,,,,,,,,,,,,,,,,,,,,,,,
,5fd8e5d864c9d60e2a7d9aeb,627c6fd2f4d46ccf58a73434,2022-05-12_03h28.04.522,classification_task,2021.2.3,Win32,59.96641881,627c6715c52fd12f31907bcf,,,,,,,,,,,,,,,,,,,,,,,l,0,1.1166,"[""0.889"",""0.529"",""0.853"",""0.964""]","[0,1,1,1]",0,59,59,59,1,0,1,,,0,FALSE,,,,,,,,,,,,,,,,,,,,,,,,,,,,,,,
,5fd8e5d864c9d60e2a7d9aeb,627c6fd2f4d46ccf58a73434,2022-05-12_03h28.04.522,classification_task,2021.2.3,Win32,59.96641881,627c6715c52fd12f31907bcf,,,,,,,,,,,,,,,,,,,,,,,a,0,1.8496,"[""0.059"",""0.365"",""0.564"",""0.753""]","[1,0,1,1]",0,60,60,60,1,1,0,,,0,FALSE,,,,,,,,,,,,,,,,,,,,,,,,,,,,,,,
,5fd8e5d864c9d60e2a7d9aeb,627c6fd2f4d46ccf58a73434,2022-05-12_03h28.04.522,classification_task,2021.2.3,Win32,59.96641881,627c6715c52fd12f31907bcf,,,,,,,,,,,,,,,,,,,,,,,l,1,1.3165,"[""0.381"",""0.288"",""0.490"",""0.795""]","[0,1,1,1]",0,61,61,61,1,1,1,,,0,FALSE,,,,,,,,,,,,,,,,,,,,,,,,,,,,,,,
,5fd8e5d864c9d60e2a7d9aeb,627c6fd2f4d46ccf58a73434,2022-05-12_03h28.04.522,classification_task,2021.2.3,Win32,59.96641881,627c6715c52fd12f31907bcf,,,,,,,,,,,,,,,,,,,,,,,a,0,1.566,"[""0.059"",""0.433"",""0.676"",""0.753""]","[1,1,0,1]",0,62,62,62,1,1,0,,,0,FALSE,,,,,,,,,,,,,,,,,,,,,,,,,,,,,,,
,5fd8e5d864c9d60e2a7d9aeb,627c6fd2f4d46ccf58a73434,2022-05-12_03h28.04.522,classification_task,2021.2.3,Win32,59.96641881,627c6715c52fd12f31907bcf,,,,,,,,,,,,,,,,,,,,,,,l,0,1.0499,"[""0.192"",""0.529"",""0.853"",""0.390""]","[1,1,1,0]",0,63,63,63,1,0,1,,,0,FALSE,,,,,,,,,,,,,,,,,,,,,,,,,,,,,,,
,5fd8e5d864c9d60e2a7d9aeb,627c6fd2f4d46ccf58a73434,2022-05-12_03h28.04.522,classification_task,2021.2.3,Win32,59.96641881,627c6715c52fd12f31907bcf,,,,,,,,,,,,,,,,,,,,,,,,,,,,,,,,,,,,,,,0, ,,0,5.783852636,191.0853,0,2,2,2,1,2,3,,,,,,,,,,,,,,,,,,
,5fd8e5d864c9d60e2a7d9aeb,627c6fd2f4d46ccf58a73434,2022-05-12_03h28.04.522,classification_task,2021.2.3,Win32,59.96641881,627c6715c52fd12f31907bcf,,,,,,,,,,,,,,,,,,,,,,,,,,,,,,,,,,,,,,,1,  ,,0,10,192.2689,0,2,2,2,1,2,3,,,,,,,,,,,,,,,,,,
,5fd8e5d864c9d60e2a7d9aeb,627c6fd2f4d46ccf58a73434,2022-05-12_03h28.04.522,classification_task,2021.2.3,Win32,59.96641881,627c6715c52fd12f31907bcf,,,,,,,,,,,,,,,,,,,,,,,,,,,,,,,,,,,,,,,2,  ,,0,10,194.7687,0,2,2,2,1,2,3,,,,,,,,,,,,,,,,,,
,5fd8e5d864c9d60e2a7d9aeb,627c6fd2f4d46ccf58a73434,2022-05-12_03h28.04.522,classification_task,2021.2.3,Win32,59.96641881,627c6715c52fd12f31907bcf,,,,,,,,,,,,,,,,,,,,,,,,,,,,,,,,,,,,,,,,,,,,,0,2,2,2,1,,3,,,,,,,,,,,,,,,,,,
,5fd8e5d864c9d60e2a7d9aeb,627c6fd2f4d46ccf58a73434,2022-05-12_03h28.04.522,classification_task,2021.2.3,Win32,59.96641881,627c6715c52fd12f31907bcf,,,,,,,,,,,,,,,,,,,,,,,,,,,,,,,,,,,,,,,,,,,,,,,,,,,,,I believe the aid is a competent performer,,0.7,0,5,792.0863,0,0,0,0,1,0,,,,,
,5fd8e5d864c9d60e2a7d9aeb,627c6fd2f4d46ccf58a73434,2022-05-12_03h28.04.522,classification_task,2021.2.3,Win32,59.96641881,627c6715c52fd12f31907bcf,,,,,,,,,,,,,,,,,,,,,,,,,,,,,,,,,,,,,,,,,,,,,,,,,,,,,I trust the aid,,0.7,0,5,793.4976,0,0,0,0,1,0,,,,,
,5fd8e5d864c9d60e2a7d9aeb,627c6fd2f4d46ccf58a73434,2022-05-12_03h28.04.522,classification_task,2021.2.3,Win32,59.96641881,627c6715c52fd12f31907bcf,,,,,,,,,,,,,,,,,,,,,,,,,,,,,,,,,,,,,,,,,,,,,,,,,,,,,I have confidence in the advice given by the aid,,0.7,0,5,796.1896,0,0,0,0,1,0,,,,,
,5fd8e5d864c9d60e2a7d9aeb,627c6fd2f4d46ccf58a73434,2022-05-12_03h28.04.522,classification_task,2021.2.3,Win32,59.96641881,627c6715c52fd12f31907bcf,,,,,,,,,,,,,,,,,,,,,,,,,,,,,,,,,,,,,,,,,,,,,,,,,,,,,I can depend on the aid,,0.7,0,5,797.2889,0,0,0,0,1,0,,,,,
,5fd8e5d864c9d60e2a7d9aeb,627c6fd2f4d46ccf58a73434,2022-05-12_03h28.04.522,classification_task,2021.2.3,Win32,59.96641881,627c6715c52fd12f31907bcf,,,,,,,,,,,,,,,,,,,,,,,,,,,,,,,,,,,,,,,,,,,,,,,,,,,,,I can rely on the aid to behave in consistent ways,,0.7,0,5,799.0371,0,0,0,0,1,0,,,,,
,5fd8e5d864c9d60e2a7d9aeb,627c6fd2f4d46ccf58a73434,2022-05-12_03h28.04.522,classification_task,2021.2.3,Win32,59.96641881,627c6715c52fd12f31907bcf,,,,,,,,,,,,,,,,,,,,,,,,,,,,,,,,,,,,,,,,,,,,,,,,,,,,,I can rely on the aid to do its best every time I take its advice,,0.7,0,5,800.7697,0,0,0,0,1,0,,,,,
,5fd8e5d864c9d60e2a7d9aeb,627c6fd2f4d46ccf58a73434,2022-05-12_03h28.04.522,classification_task,2021.2.3,Win32,59.96641881,627c6715c52fd12f31907bcf,,,,,,,,,,,,,,,,,,,,,,,,,,,,,,,,,,,,,,,,,,,,,,,,,,,,,"On trials you completed with assistance from the aid, how frequently did you think the aid was correct?",,0.7,0,90%,,0,0,0,0,1,0,,,,,
,5fd8e5d864c9d60e2a7d9aeb,627c6fd2f4d46ccf58a73434,2022-05-12_03h28.04.522,classification_task,2021.2.3,Win32,59.96641881,627c6715c52fd12f31907bcf,,,,,,,,,,,,,,,,,,,,,,,,,,,,,,,,,,,,,,,,,,,,,,,,,,,,,"On trials you completed without the aid, how frequently did you think you were correct?",,0.7,0,60%,,0,0,0,0,1,0,,,,,
,5fd8e5d864c9d60e2a7d9aeb,627c6fd2f4d46ccf58a73434,2022-05-12_03h28.04.522,classification_task,2021.2.3,Win32,59.96641881,627c6715c52fd12f31907bcf,,,,,,,,,,,,,,,,,,,,,,,,,,,,,,,,,,,,,,,,,,,,,,,,,,,,,,,,,,,0,0,0,0,1,,,,,,
,5fd8e5d864c9d60e2a7d9aeb,627c6fd2f4d46ccf58a73434,2022-05-12_03h28.04.522,classification_task,2021.2.3,Win32,59.96641881,627c6715c52fd12f31907bcf,,,,,,,,,,,,,,,,,,,,,,,,,,,,,,,,,,,,,,,,,,,,,,,,,,,,,,,,,,,,,,,,,space,1.4284,817.0606,,
,5fd8e5d864c9d60e2a7d9aeb,627c6fd2f4d46ccf58a73434,2022-05-12_03h28.04.522,classification_task,2021.2.3,Win32,59.96641881,627c6715c52fd12f31907bcf,,,,,,,,,,,,,,,,,,,,,,,,,,,,,,,,,,,,,,,,,,,,,,,,,,,,,,,,,,,,,,,,,,,,"Mozilla/5.0 (Windows NT 10.0; Win64; x64) AppleWebKit/537.36 (KHTML, like Gecko) Chrome/101.0.4951.54 Safari/537.36",
,5fd8e5d864c9d60e2a7d9aeb,627c6fd2f4d46ccf58a73434,2022-05-12_03h28.04.522,classification_task,2021.2.3,Win32,59.96641881,627c6715c52fd12f31907bcf,,,,,,,,,,,,,,,,,,,,,,,,,,,,,,,,,,,,,,,,,,,,,,,,,,,,,,,,,,,,,,,,,,,,,FADING
