usingWebGL,participant,session,date,expName,psychopyVersion,OS,frameRate,PROLIFIC_PID,STUDY_ID,SESSION_ID,signatures_friend,signatures_foe,band_ranges_top,band_ranges_bottom,formitemText,formtype,formundefined,formitemWidth,formindex,formresponse,formrt,key_resp_2.keys,key_resp_2.rt,tute_resp.keys,tute_resp.rt,tutorial.thisRepN,tutorial.thisTrialN,tutorial.thisN,tutorial.thisIndex,tutorial.ran,key_resp_4.keys,key_resp_4.rt,key_resp.keys,key_resp.corr,lines_presented,is_signal_presented,trials.thisRepN,trials.thisTrialN,trials.thisN,trials.thisIndex,trials.ran,vessel,active_band,lines,is_signal,supported_pos,catch_trial,key_resp.rt,debrief_formindex,debrief_formitemText,debrief_formtype,debrief_formitemWidth,debrief_formresponse,debrief_formrt,phases.thisRepN,phases.thisTrialN,phases.thisN,phases.thisIndex,phases.ran,phases.order,phase,key_resp_3.keys,trustitemText,trusttype,trustitemWidth,trustindex,trustresponse,trustrt,support_status.thisRepN,support_status.thisTrialN,support_status.thisN,support_status.thisIndex,support_status.ran,support_status.order,key_resp_5.keys,key_resp_5.rt,globalClockTime,userAgent
TRUE,5fe22e82e9df3d5674a3fbfb,001,2022-04-28_21h06.24.768,classification_task,2021.2.3,Win32,59.96282305,5fe22e82e9df3d5674a3fbfb,626b377229c10585ec392f89,626b39c17b0808b54565651c,,,,,,,,,,,,,,,,,,,,,,,,,,,,,,,,,,,,,,,,,,,,,,,,,,,,,,,,,,,,,,,,,,,,
,5fe22e82e9df3d5674a3fbfb,001,2022-04-28_21h06.24.768,classification_task,2021.2.3,Win32,59.96282305,5fe22e82e9df3d5674a3fbfb,626b377229c10585ec392f89,626b39c17b0808b54565651c,"[[""0.298"",""0.525"",""0.861"",""0.949""],[""0.246"",""0.389"",""0.739"",""0.895""]]","[[""0.048"",""0.355"",""0.655"",""0.814""],[""0.125"",""0.426"",""0.485"",""0.698""]]","[1,10]","[100,1000]",Video game experience,,,0.7,0,,,,,,,,,,,,,,,,,,,,,,,,,,,,,,,,,,,,,,,,,,,,,,,,,,,,,,,,,,,
,5fe22e82e9df3d5674a3fbfb,001,2022-04-28_21h06.24.768,classification_task,2021.2.3,Win32,59.96282305,5fe22e82e9df3d5674a3fbfb,626b377229c10585ec392f89,626b39c17b0808b54565651c,,,,,Approximately how many hours did you spend playing video games in the last week?,,,0.7,0,14,,,,,,,,,,,,,,,,,,,,,,,,,,,,,,,,,,,,,,,,,,,,,,,,,,,,,,,,,,
,5fe22e82e9df3d5674a3fbfb,001,2022-04-28_21h06.24.768,classification_task,2021.2.3,Win32,59.96282305,5fe22e82e9df3d5674a3fbfb,626b377229c10585ec392f89,626b39c17b0808b54565651c,,,,,"Which game did you play the most this year? (Enter ""None"" if you didn't play any)",,,0.7,0,Hearthstone,,,,,,,,,,,,,,,,,,,,,,,,,,,,,,,,,,,,,,,,,,,,,,,,,,,,,,,,,,
,5fe22e82e9df3d5674a3fbfb,001,2022-04-28_21h06.24.768,classification_task,2021.2.3,Win32,59.96282305,5fe22e82e9df3d5674a3fbfb,626b377229c10585ec392f89,626b39c17b0808b54565651c,,,,,Visual perception,,,0.7,0,,,,,,,,,,,,,,,,,,,,,,,,,,,,,,,,,,,,,,,,,,,,,,,,,,,,,,,,,,,
,5fe22e82e9df3d5674a3fbfb,001,2022-04-28_21h06.24.768,classification_task,2021.2.3,Win32,59.96282305,5fe22e82e9df3d5674a3fbfb,626b377229c10585ec392f89,626b39c17b0808b54565651c,,,,,Do you have any form of color blindness?,,,0.7,0,No,30.488,,,,,,,,,,,,,,,,,,,,,,,,,,,,,,,,,,,,,,,,,,,,,,,,,,,,,,,,,
,5fe22e82e9df3d5674a3fbfb,001,2022-04-28_21h06.24.768,classification_task,2021.2.3,Win32,59.96282305,5fe22e82e9df3d5674a3fbfb,626b377229c10585ec392f89,626b39c17b0808b54565651c,,,,,Do you use software to change the colour temperature of your screen (e.g. f.lux)?,,,0.7,0,No,35.3083,,,,,,,,,,,,,,,,,,,,,,,,,,,,,,,,,,,,,,,,,,,,,,,,,,,,,,,,,
,5fe22e82e9df3d5674a3fbfb,001,2022-04-28_21h06.24.768,classification_task,2021.2.3,Win32,59.96282305,5fe22e82e9df3d5674a3fbfb,626b377229c10585ec392f89,626b39c17b0808b54565651c,,,,,,,,,,,,space,19.8616,space,5.9028,0,0,0,0,1,,,,,,,,,,,,,,,,,,,,,,,,,,,,,,,,,,,,,,,,,,,,,,,,
,5fe22e82e9df3d5674a3fbfb,001,2022-04-28_21h06.24.768,classification_task,2021.2.3,Win32,59.96282305,5fe22e82e9df3d5674a3fbfb,626b377229c10585ec392f89,626b39c17b0808b54565651c,,,,,,,,,,,,,,space,5.9327,1,0,1,0,1,,,,,,,,,,,,,,,,,,,,,,,,,,,,,,,,,,,,,,,,,,,,,,,,
,5fe22e82e9df3d5674a3fbfb,001,2022-04-28_21h06.24.768,classification_task,2021.2.3,Win32,59.96282305,5fe22e82e9df3d5674a3fbfb,626b377229c10585ec392f89,626b39c17b0808b54565651c,,,,,,,,,,,,,,space,29.464,2,0,2,0,1,,,,,,,,,,,,,,,,,,,,,,,,,,,,,,,,,,,,,,,,,,,,,,,,
,5fe22e82e9df3d5674a3fbfb,001,2022-04-28_21h06.24.768,classification_task,2021.2.3,Win32,59.96282305,5fe22e82e9df3d5674a3fbfb,626b377229c10585ec392f89,626b39c17b0808b54565651c,,,,,,,,,,,,,,space,6.1406,3,0,3,0,1,,,,,,,,,,,,,,,,,,,,,,,,,,,,,,,,,,,,,,,,,,,,,,,,
,5fe22e82e9df3d5674a3fbfb,001,2022-04-28_21h06.24.768,classification_task,2021.2.3,Win32,59.96282305,5fe22e82e9df3d5674a3fbfb,626b377229c10585ec392f89,626b39c17b0808b54565651c,,,,,,,,,,,,,,space,7.6778,4,0,4,0,1,,,,,,,,,,,,,,,,,,,,,,,,,,,,,,,,,,,,,,,,,,,,,,,,
,5fe22e82e9df3d5674a3fbfb,001,2022-04-28_21h06.24.768,classification_task,2021.2.3,Win32,59.96282305,5fe22e82e9df3d5674a3fbfb,626b377229c10585ec392f89,626b39c17b0808b54565651c,,,,,,,,,,,,,,,,,,,,,space,12.0179,,0,"[""0.298"",""0.611"",""0.861"",""0.949""]","[1,0,1,1]",0,0,0,0,1,0,0,,,1,FALSE,,,,,,,,,,,,,,,,,,,,,,,,,,,,,,,
,5fe22e82e9df3d5674a3fbfb,001,2022-04-28_21h06.24.768,classification_task,2021.2.3,Win32,59.96282305,5fe22e82e9df3d5674a3fbfb,626b377229c10585ec392f89,626b39c17b0808b54565651c,,,,,,,,,,,,,,,,,,,,,,,a,1,"[""0.246"",""0.204"",""0.739"",""0.895""]","[1,0,1,1]",0,1,1,1,1,0,1,,,1,FALSE,7.1455,,,,,,,,,,,,,,,,,,,,,,,,,,,,,,
,5fe22e82e9df3d5674a3fbfb,001,2022-04-28_21h06.24.768,classification_task,2021.2.3,Win32,59.96282305,5fe22e82e9df3d5674a3fbfb,626b377229c10585ec392f89,626b39c17b0808b54565651c,,,,,,,,,,,,,,,,,,,,,,,l,1,"[""0.125"",""0.204"",""0.485"",""0.698""]","[1,0,1,1]",0,2,2,2,1,1,1,,,1,FALSE,4.2208,,,,,,,,,,,,,,,,,,,,,,,,,,,,,,
,5fe22e82e9df3d5674a3fbfb,001,2022-04-28_21h06.24.768,classification_task,2021.2.3,Win32,59.96282305,5fe22e82e9df3d5674a3fbfb,626b377229c10585ec392f89,626b39c17b0808b54565651c,,,,,,,,,,,,,,,,,,,,,,,l,1,"[""0.566"",""0.355"",""0.655"",""0.814""]","[0,1,1,1]",0,3,3,3,1,1,0,,,1,FALSE,5.4149,,,,,,,,,,,,,,,,,,,,,,,,,,,,,,
,5fe22e82e9df3d5674a3fbfb,001,2022-04-28_21h06.24.768,classification_task,2021.2.3,Win32,59.96282305,5fe22e82e9df3d5674a3fbfb,626b377229c10585ec392f89,626b39c17b0808b54565651c,,,,,,,,,,,,,,,,,,,,,,,l,1,"[""0.125"",""0.426"",""0.577"",""0.698""]","[1,1,0,1]",0,4,4,4,1,1,1,,,1,FALSE,4.4336,,,,,,,,,,,,,,,,,,,,,,,,,,,,,,
,5fe22e82e9df3d5674a3fbfb,001,2022-04-28_21h06.24.768,classification_task,2021.2.3,Win32,59.96282305,5fe22e82e9df3d5674a3fbfb,626b377229c10585ec392f89,626b39c17b0808b54565651c,,,,,,,,,,,,,,,,,,,,,,,a,1,"[""0.246"",""0.389"",""0.578"",""0.895""]","[1,1,0,1]",0,5,5,5,1,0,1,,,1,FALSE,4.8094,,,,,,,,,,,,,,,,,,,,,,,,,,,,,,
,5fe22e82e9df3d5674a3fbfb,001,2022-04-28_21h06.24.768,classification_task,2021.2.3,Win32,59.96282305,5fe22e82e9df3d5674a3fbfb,626b377229c10585ec392f89,626b39c17b0808b54565651c,,,,,,,,,,,,,,,,,,,,,,,a,1,"[""0.585"",""0.525"",""0.861"",""0.949""]","[0,1,1,1]",0,6,6,6,1,0,0,,,1,FALSE,5.6358,,,,,,,,,,,,,,,,,,,,,,,,,,,,,,
,5fe22e82e9df3d5674a3fbfb,001,2022-04-28_21h06.24.768,classification_task,2021.2.3,Win32,59.96282305,5fe22e82e9df3d5674a3fbfb,626b377229c10585ec392f89,626b39c17b0808b54565651c,,,,,,,,,,,,,,,,,,,,,,,a,1,"[""0.298"",""0.525"",""0.861"",""0.204""]","[1,1,1,0]",0,7,7,7,1,0,0,,,1,FALSE,5.3175,,,,,,,,,,,,,,,,,,,,,,,,,,,,,,
,5fe22e82e9df3d5674a3fbfb,001,2022-04-28_21h06.24.768,classification_task,2021.2.3,Win32,59.96282305,5fe22e82e9df3d5674a3fbfb,626b377229c10585ec392f89,626b39c17b0808b54565651c,,,,,,,,,,,,,,,,,,,,,,,l,1,"[""0.048"",""0.611"",""0.655"",""0.814""]","[1,0,1,1]",0,8,8,8,1,1,0,,,1,FALSE,5.6846,,,,,,,,,,,,,,,,,,,,,,,,,,,,,,
,5fe22e82e9df3d5674a3fbfb,001,2022-04-28_21h06.24.768,classification_task,2021.2.3,Win32,59.96282305,5fe22e82e9df3d5674a3fbfb,626b377229c10585ec392f89,626b39c17b0808b54565651c,,,,,,,,,,,,,,,,,,,,,,,l,1,"[""0.125"",""0.426"",""0.485"",""0.585""]","[1,1,1,0]",0,9,9,9,1,1,1,,,1,FALSE,6.6588,,,,,,,,,,,,,,,,,,,,,,,,,,,,,,
,5fe22e82e9df3d5674a3fbfb,001,2022-04-28_21h06.24.768,classification_task,2021.2.3,Win32,59.96282305,5fe22e82e9df3d5674a3fbfb,626b377229c10585ec392f89,626b39c17b0808b54565651c,,,,,,,,,,,,,,,,,,,,,,,l,1,"[""0.048"",""0.355"",""0.655"",""0.611""]","[1,1,1,0]",0,10,10,10,1,1,0,,,1,FALSE,7.3662,,,,,,,,,,,,,,,,,,,,,,,,,,,,,,
,5fe22e82e9df3d5674a3fbfb,001,2022-04-28_21h06.24.768,classification_task,2021.2.3,Win32,59.96282305,5fe22e82e9df3d5674a3fbfb,626b377229c10585ec392f89,626b39c17b0808b54565651c,,,,,,,,,,,,,,,,,,,,,,,a,1,"[""0.298"",""0.525"",""0.611"",""0.949""]","[1,1,0,1]",0,11,11,11,1,0,0,,,1,FALSE,4.9595,,,,,,,,,,,,,,,,,,,,,,,,,,,,,,
,5fe22e82e9df3d5674a3fbfb,001,2022-04-28_21h06.24.768,classification_task,2021.2.3,Win32,59.96282305,5fe22e82e9df3d5674a3fbfb,626b377229c10585ec392f89,626b39c17b0808b54565651c,,,,,,,,,,,,,,,,,,,,,,,a,0,"[""0.776"",""0.426"",""0.485"",""0.698""]","[0,1,1,1]",0,12,12,12,1,1,1,,,1,FALSE,7.9011,,,,,,,,,,,,,,,,,,,,,,,,,,,,,,
,5fe22e82e9df3d5674a3fbfb,001,2022-04-28_21h06.24.768,classification_task,2021.2.3,Win32,59.96282305,5fe22e82e9df3d5674a3fbfb,626b377229c10585ec392f89,626b39c17b0808b54565651c,,,,,,,,,,,,,,,,,,,,,,,a,1,"[""0.585"",""0.389"",""0.739"",""0.895""]","[0,1,1,1]",0,13,13,13,1,0,1,,,1,FALSE,4.2273,,,,,,,,,,,,,,,,,,,,,,,,,,,,,,
,5fe22e82e9df3d5674a3fbfb,001,2022-04-28_21h06.24.768,classification_task,2021.2.3,Win32,59.96282305,5fe22e82e9df3d5674a3fbfb,626b377229c10585ec392f89,626b39c17b0808b54565651c,,,,,,,,,,,,,,,,,,,,,,,l,1,"[""0.048"",""0.355"",""0.185"",""0.814""]","[1,1,0,1]",0,14,14,14,1,1,0,,,1,FALSE,7.9869,,,,,,,,,,,,,,,,,,,,,,,,,,,,,,
,5fe22e82e9df3d5674a3fbfb,001,2022-04-28_21h06.24.768,classification_task,2021.2.3,Win32,59.96282305,5fe22e82e9df3d5674a3fbfb,626b377229c10585ec392f89,626b39c17b0808b54565651c,,,,,,,,,,,,,,,,,,,,,,,a,1,"[""0.246"",""0.389"",""0.739"",""0.611""]","[1,1,1,0]",0,15,15,15,1,0,1,,,1,FALSE,2.6265,,,,,,,,,,,,,,,,,,,,,,,,,,,,,,
,5fe22e82e9df3d5674a3fbfb,001,2022-04-28_21h06.24.768,classification_task,2021.2.3,Win32,59.96282305,5fe22e82e9df3d5674a3fbfb,626b377229c10585ec392f89,626b39c17b0808b54565651c,,,,,,,,,,,,,,,,,,,,,,,l,1,"[""0.125"",""0.577"",""0.485"",""0.698""]","[1,0,1,1]",0,16,16,16,1,1,1,,,1,FALSE,2.7094,,,,,,,,,,,,,,,,,,,,,,,,,,,,,,
,5fe22e82e9df3d5674a3fbfb,001,2022-04-28_21h06.24.768,classification_task,2021.2.3,Win32,59.96282305,5fe22e82e9df3d5674a3fbfb,626b377229c10585ec392f89,626b39c17b0808b54565651c,,,,,,,,,,,,,,,,,,,,,,,a,1,"[""0.246"",""0.389"",""0.739"",""0.564""]","[1,1,1,0]",0,17,17,17,1,0,1,,,1,FALSE,1.819,,,,,,,,,,,,,,,,,,,,,,,,,,,,,,
,5fe22e82e9df3d5674a3fbfb,001,2022-04-28_21h06.24.768,classification_task,2021.2.3,Win32,59.96282305,5fe22e82e9df3d5674a3fbfb,626b377229c10585ec392f89,626b39c17b0808b54565651c,,,,,,,,,,,,,,,,,,,,,,,a,1,"[""0.246"",""0.605"",""0.739"",""0.895""]","[1,0,1,1]",0,18,18,18,1,0,1,,,1,FALSE,1.5773,,,,,,,,,,,,,,,,,,,,,,,,,,,,,,
,5fe22e82e9df3d5674a3fbfb,001,2022-04-28_21h06.24.768,classification_task,2021.2.3,Win32,59.96282305,5fe22e82e9df3d5674a3fbfb,626b377229c10585ec392f89,626b39c17b0808b54565651c,,,,,,,,,,,,,,,,,,,,,,,l,0,"[""0.621"",""0.525"",""0.861"",""0.949""]","[0,1,1,1]",0,19,19,19,1,0,0,,,1,FALSE,6.3033,,,,,,,,,,,,,,,,,,,,,,,,,,,,,,
,5fe22e82e9df3d5674a3fbfb,001,2022-04-28_21h06.24.768,classification_task,2021.2.3,Win32,59.96282305,5fe22e82e9df3d5674a3fbfb,626b377229c10585ec392f89,626b39c17b0808b54565651c,,,,,,,,,,,,,,,,,,,,,,,l,1,"[""0.048"",""0.355"",""0.655"",""0.605""]","[1,1,1,0]",0,20,20,20,1,1,0,,,1,FALSE,2.9946,,,,,,,,,,,,,,,,,,,,,,,,,,,,,,
,5fe22e82e9df3d5674a3fbfb,001,2022-04-28_21h06.24.768,classification_task,2021.2.3,Win32,59.96282305,5fe22e82e9df3d5674a3fbfb,626b377229c10585ec392f89,626b39c17b0808b54565651c,,,,,,,,,,,,,,,,,,,,,,,l,1,"[""0.125"",""0.426"",""0.779"",""0.698""]","[1,1,0,1]",0,21,21,21,1,1,1,,,1,FALSE,2.5226,,,,,,,,,,,,,,,,,,,,,,,,,,,,,,
,5fe22e82e9df3d5674a3fbfb,001,2022-04-28_21h06.24.768,classification_task,2021.2.3,Win32,59.96282305,5fe22e82e9df3d5674a3fbfb,626b377229c10585ec392f89,626b39c17b0808b54565651c,,,,,,,,,,,,,,,,,,,,,,,l,1,"[""0.048"",""0.355"",""0.561"",""0.814""]","[1,1,0,1]",0,22,22,22,1,1,0,,,1,FALSE,3.0212,,,,,,,,,,,,,,,,,,,,,,,,,,,,,,
,5fe22e82e9df3d5674a3fbfb,001,2022-04-28_21h06.24.768,classification_task,2021.2.3,Win32,59.96282305,5fe22e82e9df3d5674a3fbfb,626b377229c10585ec392f89,626b39c17b0808b54565651c,,,,,,,,,,,,,,,,,,,,,,,l,1,"[""0.048"",""0.185"",""0.655"",""0.814""]","[1,0,1,1]",0,23,23,23,1,1,0,,,1,FALSE,2.3146,,,,,,,,,,,,,,,,,,,,,,,,,,,,,,
,5fe22e82e9df3d5674a3fbfb,001,2022-04-28_21h06.24.768,classification_task,2021.2.3,Win32,59.96282305,5fe22e82e9df3d5674a3fbfb,626b377229c10585ec392f89,626b39c17b0808b54565651c,,,,,,,,,,,,,,,,,,,,,,,l,1,"[""0.611"",""0.426"",""0.485"",""0.698""]","[0,1,1,1]",0,24,24,24,1,1,1,,,1,FALSE,5.9807,,,,,,,,,,,,,,,,,,,,,,,,,,,,,,
,5fe22e82e9df3d5674a3fbfb,001,2022-04-28_21h06.24.768,classification_task,2021.2.3,Win32,59.96282305,5fe22e82e9df3d5674a3fbfb,626b377229c10585ec392f89,626b39c17b0808b54565651c,,,,,,,,,,,,,,,,,,,,,,,l,0,"[""0.298"",""0.525"",""0.621"",""0.949""]","[1,1,0,1]",0,25,25,25,1,0,0,,,1,FALSE,3.5356,,,,,,,,,,,,,,,,,,,,,,,,,,,,,,
,5fe22e82e9df3d5674a3fbfb,001,2022-04-28_21h06.24.768,classification_task,2021.2.3,Win32,59.96282305,5fe22e82e9df3d5674a3fbfb,626b377229c10585ec392f89,626b39c17b0808b54565651c,,,,,,,,,,,,,,,,,,,,,,,l,1,"[""0.776"",""0.355"",""0.655"",""0.814""]","[0,1,1,1]",0,26,26,26,1,1,0,,,1,FALSE,5.3814,,,,,,,,,,,,,,,,,,,,,,,,,,,,,,
,5fe22e82e9df3d5674a3fbfb,001,2022-04-28_21h06.24.768,classification_task,2021.2.3,Win32,59.96282305,5fe22e82e9df3d5674a3fbfb,626b377229c10585ec392f89,626b39c17b0808b54565651c,,,,,,,,,,,,,,,,,,,,,,,a,1,"[""0.298"",""0.577"",""0.861"",""0.949""]","[1,0,1,1]",0,27,27,27,1,0,0,,,1,FALSE,2.7097,,,,,,,,,,,,,,,,,,,,,,,,,,,,,,
,5fe22e82e9df3d5674a3fbfb,001,2022-04-28_21h06.24.768,classification_task,2021.2.3,Win32,59.96282305,5fe22e82e9df3d5674a3fbfb,626b377229c10585ec392f89,626b39c17b0808b54565651c,,,,,,,,,,,,,,,,,,,,,,,a,1,"[""0.577"",""0.389"",""0.739"",""0.895""]","[0,1,1,1]",0,28,28,28,1,0,1,,,1,FALSE,2.6535,,,,,,,,,,,,,,,,,,,,,,,,,,,,,,
,5fe22e82e9df3d5674a3fbfb,001,2022-04-28_21h06.24.768,classification_task,2021.2.3,Win32,59.96282305,5fe22e82e9df3d5674a3fbfb,626b377229c10585ec392f89,626b39c17b0808b54565651c,,,,,,,,,,,,,,,,,,,,,,,a,1,"[""0.298"",""0.525"",""0.861"",""0.605""]","[1,1,1,0]",0,29,29,29,1,0,0,,,1,FALSE,7.7984,,,,,,,,,,,,,,,,,,,,,,,,,,,,,,
,5fe22e82e9df3d5674a3fbfb,001,2022-04-28_21h06.24.768,classification_task,2021.2.3,Win32,59.96282305,5fe22e82e9df3d5674a3fbfb,626b377229c10585ec392f89,626b39c17b0808b54565651c,,,,,,,,,,,,,,,,,,,,,,,l,1,"[""0.125"",""0.426"",""0.485"",""0.611""]","[1,1,1,0]",0,30,30,30,1,1,1,,,1,FALSE,2.4999,,,,,,,,,,,,,,,,,,,,,,,,,,,,,,
,5fe22e82e9df3d5674a3fbfb,001,2022-04-28_21h06.24.768,classification_task,2021.2.3,Win32,59.96282305,5fe22e82e9df3d5674a3fbfb,626b377229c10585ec392f89,626b39c17b0808b54565651c,,,,,,,,,,,,,,,,,,,,,,,l,0,"[""0.246"",""0.389"",""0.776"",""0.895""]","[1,1,0,1]",0,31,31,31,1,0,1,,,1,FALSE,4.4644,,,,,,,,,,,,,,,,,,,,,,,,,,,,,,
,5fe22e82e9df3d5674a3fbfb,001,2022-04-28_21h06.24.768,classification_task,2021.2.3,Win32,59.96282305,5fe22e82e9df3d5674a3fbfb,626b377229c10585ec392f89,626b39c17b0808b54565651c,,,,,,,,,,,,,,,,,,,,,,,a,1,"[""0.577"",""0.525"",""0.861"",""0.949""]","[0,1,1,1]",0,32,32,32,1,0,0,,,1,FALSE,4.9464,,,,,,,,,,,,,,,,,,,,,,,,,,,,,,
,5fe22e82e9df3d5674a3fbfb,001,2022-04-28_21h06.24.768,classification_task,2021.2.3,Win32,59.96282305,5fe22e82e9df3d5674a3fbfb,626b377229c10585ec392f89,626b39c17b0808b54565651c,,,,,,,,,,,,,,,,,,,,,,,a,0,"[""0.776"",""0.355"",""0.655"",""0.814""]","[0,1,1,1]",0,33,33,33,1,1,0,,,1,FALSE,2.9421,,,,,,,,,,,,,,,,,,,,,,,,,,,,,,
,5fe22e82e9df3d5674a3fbfb,001,2022-04-28_21h06.24.768,classification_task,2021.2.3,Win32,59.96282305,5fe22e82e9df3d5674a3fbfb,626b377229c10585ec392f89,626b39c17b0808b54565651c,,,,,,,,,,,,,,,,,,,,,,,l,0,"[""0.298"",""0.525"",""0.605"",""0.949""]","[1,1,0,1]",0,34,34,34,1,0,0,,,1,FALSE,1.6887,,,,,,,,,,,,,,,,,,,,,,,,,,,,,,
,5fe22e82e9df3d5674a3fbfb,001,2022-04-28_21h06.24.768,classification_task,2021.2.3,Win32,59.96282305,5fe22e82e9df3d5674a3fbfb,626b377229c10585ec392f89,626b39c17b0808b54565651c,,,,,,,,,,,,,,,,,,,,,,,a,0,"[""0.611"",""0.426"",""0.485"",""0.698""]","[0,1,1,1]",0,35,35,35,1,1,1,,,1,FALSE,3.5116,,,,,,,,,,,,,,,,,,,,,,,,,,,,,,
,5fe22e82e9df3d5674a3fbfb,001,2022-04-28_21h06.24.768,classification_task,2021.2.3,Win32,59.96282305,5fe22e82e9df3d5674a3fbfb,626b377229c10585ec392f89,626b39c17b0808b54565651c,,,,,,,,,,,,,,,,,,,,,,,l,1,"[""0.125"",""0.426"",""0.485"",""0.185""]","[1,1,1,0]",0,36,36,36,1,1,1,,,1,FALSE,2.1212,,,,,,,,,,,,,,,,,,,,,,,,,,,,,,
,5fe22e82e9df3d5674a3fbfb,001,2022-04-28_21h06.24.768,classification_task,2021.2.3,Win32,59.96282305,5fe22e82e9df3d5674a3fbfb,626b377229c10585ec392f89,626b39c17b0808b54565651c,,,,,,,,,,,,,,,,,,,,,,,a,1,"[""0.246"",""0.389"",""0.561"",""0.895""]","[1,1,0,1]",0,37,37,37,1,0,1,,,1,FALSE,1.869,,,,,,,,,,,,,,,,,,,,,,,,,,,,,,
,5fe22e82e9df3d5674a3fbfb,001,2022-04-28_21h06.24.768,classification_task,2021.2.3,Win32,59.96282305,5fe22e82e9df3d5674a3fbfb,626b377229c10585ec392f89,626b39c17b0808b54565651c,,,,,,,,,,,,,,,,,,,,,,,a,0,"[""0.048"",""0.564"",""0.655"",""0.814""]","[1,0,1,1]",0,38,38,38,1,1,0,,,1,FALSE,4.7183,,,,,,,,,,,,,,,,,,,,,,,,,,,,,,
,5fe22e82e9df3d5674a3fbfb,001,2022-04-28_21h06.24.768,classification_task,2021.2.3,Win32,59.96282305,5fe22e82e9df3d5674a3fbfb,626b377229c10585ec392f89,626b39c17b0808b54565651c,,,,,,,,,,,,,,,,,,,,,,,a,1,"[""0.246"",""0.389"",""0.739"",""0.585""]","[1,1,1,0]",0,39,39,39,1,0,1,,,1,FALSE,1.7988,,,,,,,,,,,,,,,,,,,,,,,,,,,,,,
,5fe22e82e9df3d5674a3fbfb,001,2022-04-28_21h06.24.768,classification_task,2021.2.3,Win32,59.96282305,5fe22e82e9df3d5674a3fbfb,626b377229c10585ec392f89,626b39c17b0808b54565651c,,,,,,,,,,,,,,,,,,,,,,,l,1,"[""0.048"",""0.355"",""0.621"",""0.814""]","[1,1,0,1]",0,40,40,40,1,1,0,,,1,FALSE,3.1232,,,,,,,,,,,,,,,,,,,,,,,,,,,,,,
,5fe22e82e9df3d5674a3fbfb,001,2022-04-28_21h06.24.768,classification_task,2021.2.3,Win32,59.96282305,5fe22e82e9df3d5674a3fbfb,626b377229c10585ec392f89,626b39c17b0808b54565651c,,,,,,,,,,,,,,,,,,,,,,,a,1,"[""0.298"",""0.525"",""0.861"",""0.777""]","[1,1,1,0]",0,41,41,41,1,0,0,,,1,FALSE,2.5219,,,,,,,,,,,,,,,,,,,,,,,,,,,,,,
,5fe22e82e9df3d5674a3fbfb,001,2022-04-28_21h06.24.768,classification_task,2021.2.3,Win32,59.96282305,5fe22e82e9df3d5674a3fbfb,626b377229c10585ec392f89,626b39c17b0808b54565651c,,,,,,,,,,,,,,,,,,,,,,,a,1,"[""0.298"",""0.779"",""0.861"",""0.949""]","[1,0,1,1]",0,42,42,42,1,0,0,,,1,FALSE,2.3628,,,,,,,,,,,,,,,,,,,,,,,,,,,,,,
,5fe22e82e9df3d5674a3fbfb,001,2022-04-28_21h06.24.768,classification_task,2021.2.3,Win32,59.96282305,5fe22e82e9df3d5674a3fbfb,626b377229c10585ec392f89,626b39c17b0808b54565651c,,,,,,,,,,,,,,,,,,,,,,,l,1,"[""0.125"",""0.611"",""0.485"",""0.698""]","[1,0,1,1]",0,43,43,43,1,1,1,,,1,FALSE,2.2915,,,,,,,,,,,,,,,,,,,,,,,,,,,,,,
,5fe22e82e9df3d5674a3fbfb,001,2022-04-28_21h06.24.768,classification_task,2021.2.3,Win32,59.96282305,5fe22e82e9df3d5674a3fbfb,626b377229c10585ec392f89,626b39c17b0808b54565651c,,,,,,,,,,,,,,,,,,,,,,,a,1,"[""0.246"",""0.204"",""0.739"",""0.895""]","[1,0,1,1]",0,44,44,44,1,0,1,,,1,FALSE,1.2582,,,,,,,,,,,,,,,,,,,,,,,,,,,,,,
,5fe22e82e9df3d5674a3fbfb,001,2022-04-28_21h06.24.768,classification_task,2021.2.3,Win32,59.96282305,5fe22e82e9df3d5674a3fbfb,626b377229c10585ec392f89,626b39c17b0808b54565651c,,,,,,,,,,,,,,,,,,,,,,,l,1,"[""0.125"",""0.426"",""0.611"",""0.698""]","[1,1,0,1]",0,45,45,45,1,1,1,,,1,FALSE,1.8516,,,,,,,,,,,,,,,,,,,,,,,,,,,,,,
,5fe22e82e9df3d5674a3fbfb,001,2022-04-28_21h06.24.768,classification_task,2021.2.3,Win32,59.96282305,5fe22e82e9df3d5674a3fbfb,626b377229c10585ec392f89,626b39c17b0808b54565651c,,,,,,,,,,,,,,,,,,,,,,,a,0,"[""0.048"",""0.355"",""0.655"",""0.204""]","[1,1,1,0]",0,46,46,46,1,1,0,,,1,FALSE,3.9954,,,,,,,,,,,,,,,,,,,,,,,,,,,,,,
,5fe22e82e9df3d5674a3fbfb,001,2022-04-28_21h06.24.768,classification_task,2021.2.3,Win32,59.96282305,5fe22e82e9df3d5674a3fbfb,626b377229c10585ec392f89,626b39c17b0808b54565651c,,,,,,,,,,,,,,,,,,,,,,,a,1,"[""0.611"",""0.389"",""0.739"",""0.895""]","[0,1,1,1]",0,47,47,47,1,0,1,,,1,FALSE,2.8514,,,,,,,,,,,,,,,,,,,,,,,,,,,,,,
,5fe22e82e9df3d5674a3fbfb,001,2022-04-28_21h06.24.768,classification_task,2021.2.3,Win32,59.96282305,5fe22e82e9df3d5674a3fbfb,626b377229c10585ec392f89,626b39c17b0808b54565651c,,,,,,,,,,,,,,,,,,,,,,,a,0,"[""0.048"",""0.776"",""0.655"",""0.814""]","[1,0,1,1]",0,48,48,48,1,1,0,,,1,FALSE,2.7441,,,,,,,,,,,,,,,,,,,,,,,,,,,,,,
,5fe22e82e9df3d5674a3fbfb,001,2022-04-28_21h06.24.768,classification_task,2021.2.3,Win32,59.96282305,5fe22e82e9df3d5674a3fbfb,626b377229c10585ec392f89,626b39c17b0808b54565651c,,,,,,,,,,,,,,,,,,,,,,,a,1,"[""0.566"",""0.525"",""0.861"",""0.949""]","[0,1,1,1]",0,49,49,49,1,0,0,,,1,FALSE,1.8521,,,,,,,,,,,,,,,,,,,,,,,,,,,,,,
,5fe22e82e9df3d5674a3fbfb,001,2022-04-28_21h06.24.768,classification_task,2021.2.3,Win32,59.96282305,5fe22e82e9df3d5674a3fbfb,626b377229c10585ec392f89,626b39c17b0808b54565651c,,,,,,,,,,,,,,,,,,,,,,,l,1,"[""0.564"",""0.355"",""0.655"",""0.814""]","[0,1,1,1]",0,50,50,50,1,1,0,,,1,FALSE,4.5832,,,,,,,,,,,,,,,,,,,,,,,,,,,,,,
,5fe22e82e9df3d5674a3fbfb,001,2022-04-28_21h06.24.768,classification_task,2021.2.3,Win32,59.96282305,5fe22e82e9df3d5674a3fbfb,626b377229c10585ec392f89,626b39c17b0808b54565651c,,,,,,,,,,,,,,,,,,,,,,,a,1,"[""0.298"",""0.525"",""0.566"",""0.949""]","[1,1,0,1]",0,51,51,51,1,0,0,,,1,FALSE,2.8931,,,,,,,,,,,,,,,,,,,,,,,,,,,,,,
,5fe22e82e9df3d5674a3fbfb,001,2022-04-28_21h06.24.768,classification_task,2021.2.3,Win32,59.96282305,5fe22e82e9df3d5674a3fbfb,626b377229c10585ec392f89,626b39c17b0808b54565651c,,,,,,,,,,,,,,,,,,,,,,,a,0,"[""0.048"",""0.355"",""0.611"",""0.814""]","[1,1,0,1]",0,52,52,52,1,1,0,,,1,FALSE,3.6153,,,,,,,,,,,,,,,,,,,,,,,,,,,,,,
,5fe22e82e9df3d5674a3fbfb,001,2022-04-28_21h06.24.768,classification_task,2021.2.3,Win32,59.96282305,5fe22e82e9df3d5674a3fbfb,626b377229c10585ec392f89,626b39c17b0808b54565651c,,,,,,,,,,,,,,,,,,,,,,,a,1,"[""0.298"",""0.525"",""0.861"",""0.598""]","[1,1,1,0]",0,53,53,53,1,0,0,,,1,FALSE,2.9249,,,,,,,,,,,,,,,,,,,,,,,,,,,,,,
,5fe22e82e9df3d5674a3fbfb,001,2022-04-28_21h06.24.768,classification_task,2021.2.3,Win32,59.96282305,5fe22e82e9df3d5674a3fbfb,626b377229c10585ec392f89,626b39c17b0808b54565651c,,,,,,,,,,,,,,,,,,,,,,,l,0,"[""0.578"",""0.389"",""0.739"",""0.895""]","[0,1,1,1]",0,54,54,54,1,0,1,,,1,FALSE,3.5809,,,,,,,,,,,,,,,,,,,,,,,,,,,,,,
,5fe22e82e9df3d5674a3fbfb,001,2022-04-28_21h06.24.768,classification_task,2021.2.3,Win32,59.96282305,5fe22e82e9df3d5674a3fbfb,626b377229c10585ec392f89,626b39c17b0808b54565651c,,,,,,,,,,,,,,,,,,,,,,,l,0,"[""0.298"",""0.577"",""0.861"",""0.949""]","[1,0,1,1]",0,55,55,55,1,0,0,,,1,FALSE,2.2043,,,,,,,,,,,,,,,,,,,,,,,,,,,,,,
,5fe22e82e9df3d5674a3fbfb,001,2022-04-28_21h06.24.768,classification_task,2021.2.3,Win32,59.96282305,5fe22e82e9df3d5674a3fbfb,626b377229c10585ec392f89,626b39c17b0808b54565651c,,,,,,,,,,,,,,,,,,,,,,,l,1,"[""0.125"",""0.426"",""0.577"",""0.698""]","[1,1,0,1]",0,56,56,56,1,1,1,,,1,FALSE,3.9124,,,,,,,,,,,,,,,,,,,,,,,,,,,,,,
,5fe22e82e9df3d5674a3fbfb,001,2022-04-28_21h06.24.768,classification_task,2021.2.3,Win32,59.96282305,5fe22e82e9df3d5674a3fbfb,626b377229c10585ec392f89,626b39c17b0808b54565651c,,,,,,,,,,,,,,,,,,,,,,,l,1,"[""0.125"",""0.426"",""0.485"",""0.204""]","[1,1,1,0]",0,57,57,57,1,1,1,,,1,FALSE,1.5665,,,,,,,,,,,,,,,,,,,,,,,,,,,,,,
,5fe22e82e9df3d5674a3fbfb,001,2022-04-28_21h06.24.768,classification_task,2021.2.3,Win32,59.96282305,5fe22e82e9df3d5674a3fbfb,626b377229c10585ec392f89,626b39c17b0808b54565651c,,,,,,,,,,,,,,,,,,,,,,,a,0,"[""0.048"",""0.355"",""0.655"",""0.611""]","[1,1,1,0]",0,58,58,58,1,1,0,,,1,FALSE,2.3641,,,,,,,,,,,,,,,,,,,,,,,,,,,,,,
,5fe22e82e9df3d5674a3fbfb,001,2022-04-28_21h06.24.768,classification_task,2021.2.3,Win32,59.96282305,5fe22e82e9df3d5674a3fbfb,626b377229c10585ec392f89,626b39c17b0808b54565651c,,,,,,,,,,,,,,,,,,,,,,,a,1,"[""0.246"",""0.389"",""0.739"",""0.566""]","[1,1,1,0]",0,59,59,59,1,0,1,,,1,FALSE,1.5674,,,,,,,,,,,,,,,,,,,,,,,,,,,,,,
,5fe22e82e9df3d5674a3fbfb,001,2022-04-28_21h06.24.768,classification_task,2021.2.3,Win32,59.96282305,5fe22e82e9df3d5674a3fbfb,626b377229c10585ec392f89,626b39c17b0808b54565651c,,,,,,,,,,,,,,,,,,,,,,,a,0,"[""0.578"",""0.426"",""0.485"",""0.698""]","[0,1,1,1]",0,60,60,60,1,1,1,,,1,FALSE,2.1611,,,,,,,,,,,,,,,,,,,,,,,,,,,,,,
,5fe22e82e9df3d5674a3fbfb,001,2022-04-28_21h06.24.768,classification_task,2021.2.3,Win32,59.96282305,5fe22e82e9df3d5674a3fbfb,626b377229c10585ec392f89,626b39c17b0808b54565651c,,,,,,,,,,,,,,,,,,,,,,,l,1,"[""0.125"",""0.204"",""0.485"",""0.698""]","[1,0,1,1]",0,61,61,61,1,1,1,,,1,FALSE,1.9391,,,,,,,,,,,,,,,,,,,,,,,,,,,,,,
,5fe22e82e9df3d5674a3fbfb,001,2022-04-28_21h06.24.768,classification_task,2021.2.3,Win32,59.96282305,5fe22e82e9df3d5674a3fbfb,626b377229c10585ec392f89,626b39c17b0808b54565651c,,,,,,,,,,,,,,,,,,,,,,,a,1,"[""0.246"",""0.389"",""0.611"",""0.895""]","[1,1,0,1]",0,62,62,62,1,0,1,,,1,FALSE,1.1945,,,,,,,,,,,,,,,,,,,,,,,,,,,,,,
,5fe22e82e9df3d5674a3fbfb,001,2022-04-28_21h06.24.768,classification_task,2021.2.3,Win32,59.96282305,5fe22e82e9df3d5674a3fbfb,626b377229c10585ec392f89,626b39c17b0808b54565651c,,,,,,,,,,,,,,,,,,,,,,,a,1,"[""0.246"",""0.564"",""0.739"",""0.895""]","[1,0,1,1]",0,63,63,63,1,0,1,,,1,FALSE,1.3312,,,,,,,,,,,,,,,,,,,,,,,,,,,,,,
,5fe22e82e9df3d5674a3fbfb,001,2022-04-28_21h06.24.768,classification_task,2021.2.3,Win32,59.96282305,5fe22e82e9df3d5674a3fbfb,626b377229c10585ec392f89,626b39c17b0808b54565651c,,,,,,,,,,,,,,,,,,,,,,,,,,,,,,,,,,,,,,,0, ,,0,2.760967813,445.3632,0,0,0,0,1,2,1,,,,,,,,,,,,,,,,,
,5fe22e82e9df3d5674a3fbfb,001,2022-04-28_21h06.24.768,classification_task,2021.2.3,Win32,59.96282305,5fe22e82e9df3d5674a3fbfb,626b377229c10585ec392f89,626b39c17b0808b54565651c,,,,,,,,,,,,,,,,,,,,,,,,,,,,,,,,,,,,,,,1,  ,,0,6.687885802,452.5265,0,0,0,0,1,2,1,,,,,,,,,,,,,,,,,
,5fe22e82e9df3d5674a3fbfb,001,2022-04-28_21h06.24.768,classification_task,2021.2.3,Win32,59.96282305,5fe22e82e9df3d5674a3fbfb,626b377229c10585ec392f89,626b39c17b0808b54565651c,,,,,,,,,,,,,,,,,,,,,,,,,,,,,,,,,,,,,,,2,  ,,0,6.894565697,456.0971,0,0,0,0,1,2,1,,,,,,,,,,,,,,,,,
,5fe22e82e9df3d5674a3fbfb,001,2022-04-28_21h06.24.768,classification_task,2021.2.3,Win32,59.96282305,5fe22e82e9df3d5674a3fbfb,626b377229c10585ec392f89,626b39c17b0808b54565651c,,,,,,,,,,,,,,,,,,,,,,,,,,,,,,,,,,,,,,,,,,,,,0,0,0,0,1,,1,,,,,,,,,,,,,,,,,
,5fe22e82e9df3d5674a3fbfb,001,2022-04-28_21h06.24.768,classification_task,2021.2.3,Win32,59.96282305,5fe22e82e9df3d5674a3fbfb,626b377229c10585ec392f89,626b39c17b0808b54565651c,,,,,,,,,,,,,,,,,,,,,space,17.5286,l,0,"[""0.621"",""0.525"",""0.861"",""0.949""]","[0,1,1,1]",0,0,0,0,1,0,0,,,1,FALSE,5.5132,,,,,,,,,,,,,,,,,,,,,,,,,,,,,,
,5fe22e82e9df3d5674a3fbfb,001,2022-04-28_21h06.24.768,classification_task,2021.2.3,Win32,59.96282305,5fe22e82e9df3d5674a3fbfb,626b377229c10585ec392f89,626b39c17b0808b54565651c,,,,,,,,,,,,,,,,,,,,,,,a,1,"[""0.204"",""0.389"",""0.739"",""0.895""]","[0,1,1,1]",0,1,1,1,1,0,1,,,1,FALSE,4.7023,,,,,,,,,,,,,,,,,,,,,,,,,,,,,,
,5fe22e82e9df3d5674a3fbfb,001,2022-04-28_21h06.24.768,classification_task,2021.2.3,Win32,59.96282305,5fe22e82e9df3d5674a3fbfb,626b377229c10585ec392f89,626b39c17b0808b54565651c,,,,,,,,,,,,,,,,,,,,,,,a,1,"[""0.298"",""0.185"",""0.861"",""0.949""]","[1,0,1,1]",0,2,2,2,1,0,0,,,1,FALSE,2.8519,,,,,,,,,,,,,,,,,,,,,,,,,,,,,,
,5fe22e82e9df3d5674a3fbfb,001,2022-04-28_21h06.24.768,classification_task,2021.2.3,Win32,59.96282305,5fe22e82e9df3d5674a3fbfb,626b377229c10585ec392f89,626b39c17b0808b54565651c,,,,,,,,,,,,,,,,,,,,,,,l,1,"[""0.125"",""0.426"",""0.485"",""0.779""]","[1,1,1,0]",0,3,3,3,1,1,1,,,1,FALSE,1.6155,,,,,,,,,,,,,,,,,,,,,,,,,,,,,,
,5fe22e82e9df3d5674a3fbfb,001,2022-04-28_21h06.24.768,classification_task,2021.2.3,Win32,59.96282305,5fe22e82e9df3d5674a3fbfb,626b377229c10585ec392f89,626b39c17b0808b54565651c,,,,,,,,,,,,,,,,,,,,,,,a,1,"[""0.246"",""0.389"",""0.585"",""0.895""]","[1,1,0,1]",0,4,4,4,1,0,1,,,1,FALSE,1.1737,,,,,,,,,,,,,,,,,,,,,,,,,,,,,,
,5fe22e82e9df3d5674a3fbfb,001,2022-04-28_21h06.24.768,classification_task,2021.2.3,Win32,59.96282305,5fe22e82e9df3d5674a3fbfb,626b377229c10585ec392f89,626b39c17b0808b54565651c,,,,,,,,,,,,,,,,,,,,,,,a,0,"[""0.048"",""0.779"",""0.655"",""0.814""]","[1,0,1,1]",0,5,5,5,1,1,0,,,1,FALSE,3.4828,,,,,,,,,,,,,,,,,,,,,,,,,,,,,,
,5fe22e82e9df3d5674a3fbfb,001,2022-04-28_21h06.24.768,classification_task,2021.2.3,Win32,59.96282305,5fe22e82e9df3d5674a3fbfb,626b377229c10585ec392f89,626b39c17b0808b54565651c,,,,,,,,,,,,,,,,,,,,,,,a,1,"[""0.298"",""0.525"",""0.861"",""0.577""]","[1,1,1,0]",0,6,6,6,1,0,0,,,1,FALSE,1.5167,,,,,,,,,,,,,,,,,,,,,,,,,,,,,,
,5fe22e82e9df3d5674a3fbfb,001,2022-04-28_21h06.24.768,classification_task,2021.2.3,Win32,59.96282305,5fe22e82e9df3d5674a3fbfb,626b377229c10585ec392f89,626b39c17b0808b54565651c,,,,,,,,,,,,,,,,,,,,,,,a,1,"[""0.246"",""0.204"",""0.739"",""0.895""]","[1,0,1,1]",0,7,7,7,1,0,1,,,1,FALSE,1.0591,,,,,,,,,,,,,,,,,,,,,,,,,,,,,,
,5fe22e82e9df3d5674a3fbfb,001,2022-04-28_21h06.24.768,classification_task,2021.2.3,Win32,59.96282305,5fe22e82e9df3d5674a3fbfb,626b377229c10585ec392f89,626b39c17b0808b54565651c,,,,,,,,,,,,,,,,,,,,,,,a,1,"[""0.246"",""0.389"",""0.739"",""0.779""]","[1,1,1,0]",0,8,8,8,1,0,1,,,1,FALSE,0.767,,,,,,,,,,,,,,,,,,,,,,,,,,,,,,
,5fe22e82e9df3d5674a3fbfb,001,2022-04-28_21h06.24.768,classification_task,2021.2.3,Win32,59.96282305,5fe22e82e9df3d5674a3fbfb,626b377229c10585ec392f89,626b39c17b0808b54565651c,,,,,,,,,,,,,,,,,,,,,,,l,1,"[""0.578"",""0.355"",""0.655"",""0.814""]","[0,1,1,1]",0,9,9,9,1,1,0,,,1,FALSE,3.8632,,,,,,,,,,,,,,,,,,,,,,,,,,,,,,
,5fe22e82e9df3d5674a3fbfb,001,2022-04-28_21h06.24.768,classification_task,2021.2.3,Win32,59.96282305,5fe22e82e9df3d5674a3fbfb,626b377229c10585ec392f89,626b39c17b0808b54565651c,,,,,,,,,,,,,,,,,,,,,,,l,1,"[""0.585"",""0.426"",""0.485"",""0.698""]","[0,1,1,1]",0,10,10,10,1,1,1,,,1,FALSE,1.0621,,,,,,,,,,,,,,,,,,,,,,,,,,,,,,
,5fe22e82e9df3d5674a3fbfb,001,2022-04-28_21h06.24.768,classification_task,2021.2.3,Win32,59.96282305,5fe22e82e9df3d5674a3fbfb,626b377229c10585ec392f89,626b39c17b0808b54565651c,,,,,,,,,,,,,,,,,,,,,,,l,1,"[""0.125"",""0.598"",""0.485"",""0.698""]","[1,0,1,1]",0,11,11,11,1,1,1,,,1,FALSE,0.6125,,,,,,,,,,,,,,,,,,,,,,,,,,,,,,
,5fe22e82e9df3d5674a3fbfb,001,2022-04-28_21h06.24.768,classification_task,2021.2.3,Win32,59.96282305,5fe22e82e9df3d5674a3fbfb,626b377229c10585ec392f89,626b39c17b0808b54565651c,,,,,,,,,,,,,,,,,,,,,,,a,0,"[""0.048"",""0.355"",""0.655"",""0.578""]","[1,1,1,0]",0,12,12,12,1,1,0,,,1,FALSE,3.8263,,,,,,,,,,,,,,,,,,,,,,,,,,,,,,
,5fe22e82e9df3d5674a3fbfb,001,2022-04-28_21h06.24.768,classification_task,2021.2.3,Win32,59.96282305,5fe22e82e9df3d5674a3fbfb,626b377229c10585ec392f89,626b39c17b0808b54565651c,,,,,,,,,,,,,,,,,,,,,,,l,1,"[""0.125"",""0.426"",""0.777"",""0.698""]","[1,1,0,1]",0,13,13,13,1,1,1,,,1,FALSE,1.6823,,,,,,,,,,,,,,,,,,,,,,,,,,,,,,
,5fe22e82e9df3d5674a3fbfb,001,2022-04-28_21h06.24.768,classification_task,2021.2.3,Win32,59.96282305,5fe22e82e9df3d5674a3fbfb,626b377229c10585ec392f89,626b39c17b0808b54565651c,,,,,,,,,,,,,,,,,,,,,,,l,0,"[""0.298"",""0.525"",""0.204"",""0.949""]","[1,1,0,1]",0,14,14,14,1,0,0,,,1,FALSE,2.9667,,,,,,,,,,,,,,,,,,,,,,,,,,,,,,
,5fe22e82e9df3d5674a3fbfb,001,2022-04-28_21h06.24.768,classification_task,2021.2.3,Win32,59.96282305,5fe22e82e9df3d5674a3fbfb,626b377229c10585ec392f89,626b39c17b0808b54565651c,,,,,,,,,,,,,,,,,,,,,,,l,1,"[""0.048"",""0.355"",""0.204"",""0.814""]","[1,1,0,1]",0,15,15,15,1,1,0,,,1,FALSE,2.3302,,,,,,,,,,,,,,,,,,,,,,,,,,,,,,
,5fe22e82e9df3d5674a3fbfb,001,2022-04-28_21h06.24.768,classification_task,2021.2.3,Win32,59.96282305,5fe22e82e9df3d5674a3fbfb,626b377229c10585ec392f89,626b39c17b0808b54565651c,,,,,,,,,,,,,,,,,,,,,,,a,1,"[""0.246"",""0.204"",""0.739"",""0.895""]","[1,0,1,1]",0,16,16,16,1,0,1,,,1,FALSE,0.9124,,,,,,,,,,,,,,,,,,,,,,,,,,,,,,
,5fe22e82e9df3d5674a3fbfb,001,2022-04-28_21h06.24.768,classification_task,2021.2.3,Win32,59.96282305,5fe22e82e9df3d5674a3fbfb,626b377229c10585ec392f89,626b39c17b0808b54565651c,,,,,,,,,,,,,,,,,,,,,,,a,1,"[""0.585"",""0.525"",""0.861"",""0.949""]","[0,1,1,1]",0,17,17,17,1,0,0,,,1,FALSE,3.3752,,,,,,,,,,,,,,,,,,,,,,,,,,,,,,
,5fe22e82e9df3d5674a3fbfb,001,2022-04-28_21h06.24.768,classification_task,2021.2.3,Win32,59.96282305,5fe22e82e9df3d5674a3fbfb,626b377229c10585ec392f89,626b39c17b0808b54565651c,,,,,,,,,,,,,,,,,,,,,,,l,1,"[""0.048"",""0.355"",""0.561"",""0.814""]","[1,1,0,1]",0,18,18,18,1,1,0,,,1,FALSE,1.2139,,,,,,,,,,,,,,,,,,,,,,,,,,,,,,
,5fe22e82e9df3d5674a3fbfb,001,2022-04-28_21h06.24.768,classification_task,2021.2.3,Win32,59.96282305,5fe22e82e9df3d5674a3fbfb,626b377229c10585ec392f89,626b39c17b0808b54565651c,,,,,,,,,,,,,,,,,,,,,,,l,1,"[""0.578"",""0.426"",""0.485"",""0.698""]","[0,1,1,1]",0,19,19,19,1,1,1,,,1,FALSE,0.7013,,,,,,,,,,,,,,,,,,,,,,,,,,,,,,
,5fe22e82e9df3d5674a3fbfb,001,2022-04-28_21h06.24.768,classification_task,2021.2.3,Win32,59.96282305,5fe22e82e9df3d5674a3fbfb,626b377229c10585ec392f89,626b39c17b0808b54565651c,,,,,,,,,,,,,,,,,,,,,,,a,0,"[""0.621"",""0.355"",""0.655"",""0.814""]","[0,1,1,1]",0,20,20,20,1,1,0,,,1,FALSE,2.2364,,,,,,,,,,,,,,,,,,,,,,,,,,,,,,
,5fe22e82e9df3d5674a3fbfb,001,2022-04-28_21h06.24.768,classification_task,2021.2.3,Win32,59.96282305,5fe22e82e9df3d5674a3fbfb,626b377229c10585ec392f89,626b39c17b0808b54565651c,,,,,,,,,,,,,,,,,,,,,,,a,1,"[""0.577"",""0.389"",""0.739"",""0.895""]","[0,1,1,1]",0,21,21,21,1,0,1,,,1,FALSE,1.0641,,,,,,,,,,,,,,,,,,,,,,,,,,,,,,
,5fe22e82e9df3d5674a3fbfb,001,2022-04-28_21h06.24.768,classification_task,2021.2.3,Win32,59.96282305,5fe22e82e9df3d5674a3fbfb,626b377229c10585ec392f89,626b39c17b0808b54565651c,,,,,,,,,,,,,,,,,,,,,,,l,0,"[""0.298"",""0.525"",""0.861"",""0.611""]","[1,1,1,0]",0,22,22,22,1,0,0,,,1,FALSE,4.8256,,,,,,,,,,,,,,,,,,,,,,,,,,,,,,
,5fe22e82e9df3d5674a3fbfb,001,2022-04-28_21h06.24.768,classification_task,2021.2.3,Win32,59.96282305,5fe22e82e9df3d5674a3fbfb,626b377229c10585ec392f89,626b39c17b0808b54565651c,,,,,,,,,,,,,,,,,,,,,,,a,1,"[""0.246"",""0.389"",""0.577"",""0.895""]","[1,1,0,1]",0,23,23,23,1,0,1,,,1,FALSE,1.0029,,,,,,,,,,,,,,,,,,,,,,,,,,,,,,
,5fe22e82e9df3d5674a3fbfb,001,2022-04-28_21h06.24.768,classification_task,2021.2.3,Win32,59.96282305,5fe22e82e9df3d5674a3fbfb,626b377229c10585ec392f89,626b39c17b0808b54565651c,,,,,,,,,,,,,,,,,,,,,,,l,1,"[""0.125"",""0.561"",""0.485"",""0.698""]","[1,0,1,1]",0,24,24,24,1,1,1,,,1,FALSE,0.8367,,,,,,,,,,,,,,,,,,,,,,,,,,,,,,
,5fe22e82e9df3d5674a3fbfb,001,2022-04-28_21h06.24.768,classification_task,2021.2.3,Win32,59.96282305,5fe22e82e9df3d5674a3fbfb,626b377229c10585ec392f89,626b39c17b0808b54565651c,,,,,,,,,,,,,,,,,,,,,,,a,1,"[""0.246"",""0.389"",""0.739"",""0.585""]","[1,1,1,0]",0,25,25,25,1,0,1,,,1,FALSE,0.6967,,,,,,,,,,,,,,,,,,,,,,,,,,,,,,
,5fe22e82e9df3d5674a3fbfb,001,2022-04-28_21h06.24.768,classification_task,2021.2.3,Win32,59.96282305,5fe22e82e9df3d5674a3fbfb,626b377229c10585ec392f89,626b39c17b0808b54565651c,,,,,,,,,,,,,,,,,,,,,,,l,1,"[""0.125"",""0.426"",""0.485"",""0.578""]","[1,1,1,0]",0,26,26,26,1,1,1,,,1,FALSE,0.7766,,,,,,,,,,,,,,,,,,,,,,,,,,,,,,
,5fe22e82e9df3d5674a3fbfb,001,2022-04-28_21h06.24.768,classification_task,2021.2.3,Win32,59.96282305,5fe22e82e9df3d5674a3fbfb,626b377229c10585ec392f89,626b39c17b0808b54565651c,,,,,,,,,,,,,,,,,,,,,,,a,1,"[""0.298"",""0.525"",""0.611"",""0.949""]","[1,1,0,1]",0,27,27,27,1,0,0,,,1,FALSE,3.0655,,,,,,,,,,,,,,,,,,,,,,,,,,,,,,
,5fe22e82e9df3d5674a3fbfb,001,2022-04-28_21h06.24.768,classification_task,2021.2.3,Win32,59.96282305,5fe22e82e9df3d5674a3fbfb,626b377229c10585ec392f89,626b39c17b0808b54565651c,,,,,,,,,,,,,,,,,,,,,,,l,1,"[""0.048"",""0.578"",""0.655"",""0.814""]","[1,0,1,1]",0,28,28,28,1,1,0,,,1,FALSE,0.6832,,,,,,,,,,,,,,,,,,,,,,,,,,,,,,
,5fe22e82e9df3d5674a3fbfb,001,2022-04-28_21h06.24.768,classification_task,2021.2.3,Win32,59.96282305,5fe22e82e9df3d5674a3fbfb,626b377229c10585ec392f89,626b39c17b0808b54565651c,,,,,,,,,,,,,,,,,,,,,,,l,1,"[""0.048"",""0.355"",""0.655"",""0.779""]","[1,1,1,0]",0,29,29,29,1,1,0,,,1,FALSE,1.9,,,,,,,,,,,,,,,,,,,,,,,,,,,,,,
,5fe22e82e9df3d5674a3fbfb,001,2022-04-28_21h06.24.768,classification_task,2021.2.3,Win32,59.96282305,5fe22e82e9df3d5674a3fbfb,626b377229c10585ec392f89,626b39c17b0808b54565651c,,,,,,,,,,,,,,,,,,,,,,,a,1,"[""0.298"",""0.577"",""0.861"",""0.949""]","[1,0,1,1]",0,30,30,30,1,0,0,,,1,FALSE,2.5706,,,,,,,,,,,,,,,,,,,,,,,,,,,,,,
,5fe22e82e9df3d5674a3fbfb,001,2022-04-28_21h06.24.768,classification_task,2021.2.3,Win32,59.96282305,5fe22e82e9df3d5674a3fbfb,626b377229c10585ec392f89,626b39c17b0808b54565651c,,,,,,,,,,,,,,,,,,,,,,,l,1,"[""0.125"",""0.426"",""0.598"",""0.698""]","[1,1,0,1]",0,31,31,31,1,1,1,,,1,FALSE,1.0153,,,,,,,,,,,,,,,,,,,,,,,,,,,,,,
,5fe22e82e9df3d5674a3fbfb,001,2022-04-28_21h06.24.768,classification_task,2021.2.3,Win32,59.96282305,5fe22e82e9df3d5674a3fbfb,626b377229c10585ec392f89,626b39c17b0808b54565651c,,,,,,,,,,,,,,,,,,,,,,,l,0,"[""0.777"",""0.525"",""0.861"",""0.949""]","[0,1,1,1]",0,32,32,32,1,0,0,,,1,FALSE,2.6682,,,,,,,,,,,,,,,,,,,,,,,,,,,,,,
,5fe22e82e9df3d5674a3fbfb,001,2022-04-28_21h06.24.768,classification_task,2021.2.3,Win32,59.96282305,5fe22e82e9df3d5674a3fbfb,626b377229c10585ec392f89,626b39c17b0808b54565651c,,,,,,,,,,,,,,,,,,,,,,,a,1,"[""0.298"",""0.525"",""0.621"",""0.949""]","[1,1,0,1]",0,33,33,33,1,0,0,,,1,FALSE,1.3819,,,,,,,,,,,,,,,,,,,,,,,,,,,,,,
,5fe22e82e9df3d5674a3fbfb,001,2022-04-28_21h06.24.768,classification_task,2021.2.3,Win32,59.96282305,5fe22e82e9df3d5674a3fbfb,626b377229c10585ec392f89,626b39c17b0808b54565651c,,,,,,,,,,,,,,,,,,,,,,,a,0,"[""0.048"",""0.355"",""0.655"",""0.776""]","[1,1,1,0]",0,34,34,34,1,1,0,,,1,FALSE,2.5881,,,,,,,,,,,,,,,,,,,,,,,,,,,,,,
,5fe22e82e9df3d5674a3fbfb,001,2022-04-28_21h06.24.768,classification_task,2021.2.3,Win32,59.96282305,5fe22e82e9df3d5674a3fbfb,626b377229c10585ec392f89,626b39c17b0808b54565651c,,,,,,,,,,,,,,,,,,,,,,,l,1,"[""0.125"",""0.577"",""0.485"",""0.698""]","[1,0,1,1]",0,35,35,35,1,1,1,,,1,FALSE,0.9245,,,,,,,,,,,,,,,,,,,,,,,,,,,,,,
,5fe22e82e9df3d5674a3fbfb,001,2022-04-28_21h06.24.768,classification_task,2021.2.3,Win32,59.96282305,5fe22e82e9df3d5674a3fbfb,626b377229c10585ec392f89,626b39c17b0808b54565651c,,,,,,,,,,,,,,,,,,,,,,,l,1,"[""0.125"",""0.426"",""0.485"",""0.777""]","[1,1,1,0]",0,36,36,36,1,1,1,,,1,FALSE,0.5387,,,,,,,,,,,,,,,,,,,,,,,,,,,,,,
,5fe22e82e9df3d5674a3fbfb,001,2022-04-28_21h06.24.768,classification_task,2021.2.3,Win32,59.96282305,5fe22e82e9df3d5674a3fbfb,626b377229c10585ec392f89,626b39c17b0808b54565651c,,,,,,,,,,,,,,,,,,,,,,,l,1,"[""0.585"",""0.426"",""0.485"",""0.698""]","[0,1,1,1]",0,37,37,37,1,1,1,,,1,FALSE,0.6116,,,,,,,,,,,,,,,,,,,,,,,,,,,,,,
,5fe22e82e9df3d5674a3fbfb,001,2022-04-28_21h06.24.768,classification_task,2021.2.3,Win32,59.96282305,5fe22e82e9df3d5674a3fbfb,626b377229c10585ec392f89,626b39c17b0808b54565651c,,,,,,,,,,,,,,,,,,,,,,,a,1,"[""0.246"",""0.389"",""0.204"",""0.895""]","[1,1,0,1]",0,38,38,38,1,0,1,,,1,FALSE,0.6988,,,,,,,,,,,,,,,,,,,,,,,,,,,,,,
,5fe22e82e9df3d5674a3fbfb,001,2022-04-28_21h06.24.768,classification_task,2021.2.3,Win32,59.96282305,5fe22e82e9df3d5674a3fbfb,626b377229c10585ec392f89,626b39c17b0808b54565651c,,,,,,,,,,,,,,,,,,,,,,,l,0,"[""0.298"",""0.525"",""0.861"",""0.776""]","[1,1,1,0]",0,39,39,39,1,0,0,,,1,FALSE,4.5117,,,,,,,,,,,,,,,,,,,,,,,,,,,,,,
,5fe22e82e9df3d5674a3fbfb,001,2022-04-28_21h06.24.768,classification_task,2021.2.3,Win32,59.96282305,5fe22e82e9df3d5674a3fbfb,626b377229c10585ec392f89,626b39c17b0808b54565651c,,,,,,,,,,,,,,,,,,,,,,,l,1,"[""0.578"",""0.355"",""0.655"",""0.814""]","[0,1,1,1]",0,40,40,40,1,1,0,,,1,FALSE,1.9989,,,,,,,,,,,,,,,,,,,,,,,,,,,,,,
,5fe22e82e9df3d5674a3fbfb,001,2022-04-28_21h06.24.768,classification_task,2021.2.3,Win32,59.96282305,5fe22e82e9df3d5674a3fbfb,626b377229c10585ec392f89,626b39c17b0808b54565651c,,,,,,,,,,,,,,,,,,,,,,,l,1,"[""0.048"",""0.355"",""0.578"",""0.814""]","[1,1,0,1]",0,41,41,41,1,1,0,,,1,FALSE,1.1588,,,,,,,,,,,,,,,,,,,,,,,,,,,,,,
,5fe22e82e9df3d5674a3fbfb,001,2022-04-28_21h06.24.768,classification_task,2021.2.3,Win32,59.96282305,5fe22e82e9df3d5674a3fbfb,626b377229c10585ec392f89,626b39c17b0808b54565651c,,,,,,,,,,,,,,,,,,,,,,,a,1,"[""0.246"",""0.389"",""0.739"",""0.185""]","[1,1,1,0]",0,42,42,42,1,0,1,,,1,FALSE,0.729,,,,,,,,,,,,,,,,,,,,,,,,,,,,,,
,5fe22e82e9df3d5674a3fbfb,001,2022-04-28_21h06.24.768,classification_task,2021.2.3,Win32,59.96282305,5fe22e82e9df3d5674a3fbfb,626b377229c10585ec392f89,626b39c17b0808b54565651c,,,,,,,,,,,,,,,,,,,,,,,l,1,"[""0.125"",""0.426"",""0.611"",""0.698""]","[1,1,0,1]",0,43,43,43,1,1,1,,,1,FALSE,0.8101,,,,,,,,,,,,,,,,,,,,,,,,,,,,,,
,5fe22e82e9df3d5674a3fbfb,001,2022-04-28_21h06.24.768,classification_task,2021.2.3,Win32,59.96282305,5fe22e82e9df3d5674a3fbfb,626b377229c10585ec392f89,626b39c17b0808b54565651c,,,,,,,,,,,,,,,,,,,,,,,a,1,"[""0.776"",""0.389"",""0.739"",""0.895""]","[0,1,1,1]",0,44,44,44,1,0,1,,,1,FALSE,0.632,,,,,,,,,,,,,,,,,,,,,,,,,,,,,,
,5fe22e82e9df3d5674a3fbfb,001,2022-04-28_21h06.24.768,classification_task,2021.2.3,Win32,59.96282305,5fe22e82e9df3d5674a3fbfb,626b377229c10585ec392f89,626b39c17b0808b54565651c,,,,,,,,,,,,,,,,,,,,,,,l,0,"[""0.298"",""0.577"",""0.861"",""0.949""]","[1,0,1,1]",0,45,45,45,1,0,0,,,1,FALSE,2.5109,,,,,,,,,,,,,,,,,,,,,,,,,,,,,,
,5fe22e82e9df3d5674a3fbfb,001,2022-04-28_21h06.24.768,classification_task,2021.2.3,Win32,59.96282305,5fe22e82e9df3d5674a3fbfb,626b377229c10585ec392f89,626b39c17b0808b54565651c,,,,,,,,,,,,,,,,,,,,,,,l,1,"[""0.048"",""0.185"",""0.655"",""0.814""]","[1,0,1,1]",0,46,46,46,1,1,0,,,1,FALSE,1.1497,,,,,,,,,,,,,,,,,,,,,,,,,,,,,,
,5fe22e82e9df3d5674a3fbfb,001,2022-04-28_21h06.24.768,classification_task,2021.2.3,Win32,59.96282305,5fe22e82e9df3d5674a3fbfb,626b377229c10585ec392f89,626b39c17b0808b54565651c,,,,,,,,,,,,,,,,,,,,,,,a,1,"[""0.246"",""0.561"",""0.739"",""0.895""]","[1,0,1,1]",0,47,47,47,1,0,1,,,1,FALSE,0.7643,,,,,,,,,,,,,,,,,,,,,,,,,,,,,,
,5fe22e82e9df3d5674a3fbfb,001,2022-04-28_21h06.24.768,classification_task,2021.2.3,Win32,59.96282305,5fe22e82e9df3d5674a3fbfb,626b377229c10585ec392f89,626b39c17b0808b54565651c,,,,,,,,,,,,,,,,,,,,,,,a,0,"[""0.048"",""0.355"",""0.598"",""0.814""]","[1,1,0,1]",0,48,48,48,1,1,0,,,1,FALSE,2.7196,,,,,,,,,,,,,,,,,,,,,,,,,,,,,,
,5fe22e82e9df3d5674a3fbfb,001,2022-04-28_21h06.24.768,classification_task,2021.2.3,Win32,59.96282305,5fe22e82e9df3d5674a3fbfb,626b377229c10585ec392f89,626b39c17b0808b54565651c,,,,,,,,,,,,,,,,,,,,,,,a,1,"[""0.246"",""0.566"",""0.739"",""0.895""]","[1,0,1,1]",0,49,49,49,1,0,1,,,1,FALSE,1.1479,,,,,,,,,,,,,,,,,,,,,,,,,,,,,,
,5fe22e82e9df3d5674a3fbfb,001,2022-04-28_21h06.24.768,classification_task,2021.2.3,Win32,59.96282305,5fe22e82e9df3d5674a3fbfb,626b377229c10585ec392f89,626b39c17b0808b54565651c,,,,,,,,,,,,,,,,,,,,,,,l,1,"[""0.048"",""0.561"",""0.655"",""0.814""]","[1,0,1,1]",0,50,50,50,1,1,0,,,1,FALSE,2.4987,,,,,,,,,,,,,,,,,,,,,,,,,,,,,,
,5fe22e82e9df3d5674a3fbfb,001,2022-04-28_21h06.24.768,classification_task,2021.2.3,Win32,59.96282305,5fe22e82e9df3d5674a3fbfb,626b377229c10585ec392f89,626b39c17b0808b54565651c,,,,,,,,,,,,,,,,,,,,,,,a,1,"[""0.246"",""0.389"",""0.204"",""0.895""]","[1,1,0,1]",0,51,51,51,1,0,1,,,1,FALSE,0.8438,,,,,,,,,,,,,,,,,,,,,,,,,,,,,,
,5fe22e82e9df3d5674a3fbfb,001,2022-04-28_21h06.24.768,classification_task,2021.2.3,Win32,59.96282305,5fe22e82e9df3d5674a3fbfb,626b377229c10585ec392f89,626b39c17b0808b54565651c,,,,,,,,,,,,,,,,,,,,,,,l,1,"[""0.125"",""0.426"",""0.564"",""0.698""]","[1,1,0,1]",0,52,52,52,1,1,1,,,1,FALSE,0.7623,,,,,,,,,,,,,,,,,,,,,,,,,,,,,,
,5fe22e82e9df3d5674a3fbfb,001,2022-04-28_21h06.24.768,classification_task,2021.2.3,Win32,59.96282305,5fe22e82e9df3d5674a3fbfb,626b377229c10585ec392f89,626b39c17b0808b54565651c,,,,,,,,,,,,,,,,,,,,,,,a,1,"[""0.246"",""0.389"",""0.739"",""0.561""]","[1,1,1,0]",0,53,53,53,1,0,1,,,1,FALSE,0.7729,,,,,,,,,,,,,,,,,,,,,,,,,,,,,,
,5fe22e82e9df3d5674a3fbfb,001,2022-04-28_21h06.24.768,classification_task,2021.2.3,Win32,59.96282305,5fe22e82e9df3d5674a3fbfb,626b377229c10585ec392f89,626b39c17b0808b54565651c,,,,,,,,,,,,,,,,,,,,,,,l,1,"[""0.125"",""0.426"",""0.485"",""0.577""]","[1,1,1,0]",0,54,54,54,1,1,1,,,1,FALSE,0.6222,,,,,,,,,,,,,,,,,,,,,,,,,,,,,,
,5fe22e82e9df3d5674a3fbfb,001,2022-04-28_21h06.24.768,classification_task,2021.2.3,Win32,59.96282305,5fe22e82e9df3d5674a3fbfb,626b377229c10585ec392f89,626b39c17b0808b54565651c,,,,,,,,,,,,,,,,,,,,,,,a,1,"[""0.298"",""0.561"",""0.861"",""0.949""]","[1,0,1,1]",0,55,55,55,1,0,0,,,1,FALSE,3.8606,,,,,,,,,,,,,,,,,,,,,,,,,,,,,,
,5fe22e82e9df3d5674a3fbfb,001,2022-04-28_21h06.24.768,classification_task,2021.2.3,Win32,59.96282305,5fe22e82e9df3d5674a3fbfb,626b377229c10585ec392f89,626b39c17b0808b54565651c,,,,,,,,,,,,,,,,,,,,,,,l,1,"[""0.561"",""0.426"",""0.485"",""0.698""]","[0,1,1,1]",0,56,56,56,1,1,1,,,1,FALSE,0.6952,,,,,,,,,,,,,,,,,,,,,,,,,,,,,,
,5fe22e82e9df3d5674a3fbfb,001,2022-04-28_21h06.24.768,classification_task,2021.2.3,Win32,59.96282305,5fe22e82e9df3d5674a3fbfb,626b377229c10585ec392f89,626b39c17b0808b54565651c,,,,,,,,,,,,,,,,,,,,,,,l,0,"[""0.298"",""0.525"",""0.861"",""0.577""]","[1,1,1,0]",0,57,57,57,1,0,0,,,1,FALSE,1.9962,,,,,,,,,,,,,,,,,,,,,,,,,,,,,,
,5fe22e82e9df3d5674a3fbfb,001,2022-04-28_21h06.24.768,classification_task,2021.2.3,Win32,59.96282305,5fe22e82e9df3d5674a3fbfb,626b377229c10585ec392f89,626b39c17b0808b54565651c,,,,,,,,,,,,,,,,,,,,,,,l,1,"[""0.777"",""0.355"",""0.655"",""0.814""]","[0,1,1,1]",0,58,58,58,1,1,0,,,1,FALSE,0.9937,,,,,,,,,,,,,,,,,,,,,,,,,,,,,,
,5fe22e82e9df3d5674a3fbfb,001,2022-04-28_21h06.24.768,classification_task,2021.2.3,Win32,59.96282305,5fe22e82e9df3d5674a3fbfb,626b377229c10585ec392f89,626b39c17b0808b54565651c,,,,,,,,,,,,,,,,,,,,,,,a,1,"[""0.585"",""0.525"",""0.861"",""0.949""]","[0,1,1,1]",0,59,59,59,1,0,0,,,1,FALSE,0.7981,,,,,,,,,,,,,,,,,,,,,,,,,,,,,,
,5fe22e82e9df3d5674a3fbfb,001,2022-04-28_21h06.24.768,classification_task,2021.2.3,Win32,59.96282305,5fe22e82e9df3d5674a3fbfb,626b377229c10585ec392f89,626b39c17b0808b54565651c,,,,,,,,,,,,,,,,,,,,,,,l,1,"[""0.125"",""0.577"",""0.485"",""0.698""]","[1,0,1,1]",0,60,60,60,1,1,1,,,1,FALSE,0.8755,,,,,,,,,,,,,,,,,,,,,,,,,,,,,,
,5fe22e82e9df3d5674a3fbfb,001,2022-04-28_21h06.24.768,classification_task,2021.2.3,Win32,59.96282305,5fe22e82e9df3d5674a3fbfb,626b377229c10585ec392f89,626b39c17b0808b54565651c,,,,,,,,,,,,,,,,,,,,,,,a,1,"[""0.605"",""0.389"",""0.739"",""0.895""]","[0,1,1,1]",0,61,61,61,1,0,1,,,1,FALSE,0.6197,,,,,,,,,,,,,,,,,,,,,,,,,,,,,,
,5fe22e82e9df3d5674a3fbfb,001,2022-04-28_21h06.24.768,classification_task,2021.2.3,Win32,59.96282305,5fe22e82e9df3d5674a3fbfb,626b377229c10585ec392f89,626b39c17b0808b54565651c,,,,,,,,,,,,,,,,,,,,,,,a,0,"[""0.048"",""0.355"",""0.655"",""0.621""]","[1,1,1,0]",0,62,62,62,1,1,0,,,1,FALSE,2.2002,,,,,,,,,,,,,,,,,,,,,,,,,,,,,,
,5fe22e82e9df3d5674a3fbfb,001,2022-04-28_21h06.24.768,classification_task,2021.2.3,Win32,59.96282305,5fe22e82e9df3d5674a3fbfb,626b377229c10585ec392f89,626b39c17b0808b54565651c,,,,,,,,,,,,,,,,,,,,,,,a,1,"[""0.298"",""0.525"",""0.204"",""0.949""]","[1,1,0,1]",0,63,63,63,1,0,0,,,1,FALSE,1.2275,,,,,,,,,,,,,,,,,,,,,,,,,,,,,,
,5fe22e82e9df3d5674a3fbfb,001,2022-04-28_21h06.24.768,classification_task,2021.2.3,Win32,59.96282305,5fe22e82e9df3d5674a3fbfb,626b377229c10585ec392f89,626b39c17b0808b54565651c,,,,,,,,,,,,,,,,,,,,,,,,,,,,,,,,,,,,,,,0, ,,0,1.210868607,204.8952,0,1,1,1,1,2,2,,,,,,,,,,,,,,,,,
,5fe22e82e9df3d5674a3fbfb,001,2022-04-28_21h06.24.768,classification_task,2021.2.3,Win32,59.96282305,5fe22e82e9df3d5674a3fbfb,626b377229c10585ec392f89,626b39c17b0808b54565651c,,,,,,,,,,,,,,,,,,,,,,,,,,,,,,,,,,,,,,,1,  ,,0,4.345513668,207.1455,0,1,1,1,1,2,2,,,,,,,,,,,,,,,,,
,5fe22e82e9df3d5674a3fbfb,001,2022-04-28_21h06.24.768,classification_task,2021.2.3,Win32,59.96282305,5fe22e82e9df3d5674a3fbfb,626b377229c10585ec392f89,626b39c17b0808b54565651c,,,,,,,,,,,,,,,,,,,,,,,,,,,,,,,,,,,,,,,2,  ,,0,6.205632716,209.063,0,1,1,1,1,2,2,,,,,,,,,,,,,,,,,
,5fe22e82e9df3d5674a3fbfb,001,2022-04-28_21h06.24.768,classification_task,2021.2.3,Win32,59.96282305,5fe22e82e9df3d5674a3fbfb,626b377229c10585ec392f89,626b39c17b0808b54565651c,,,,,,,,,,,,,,,,,,,,,,,,,,,,,,,,,,,,,,,,,,,,,0,1,1,1,1,,2,,,,,,,,,,,,,,,,,
,5fe22e82e9df3d5674a3fbfb,001,2022-04-28_21h06.24.768,classification_task,2021.2.3,Win32,59.96282305,5fe22e82e9df3d5674a3fbfb,626b377229c10585ec392f89,626b39c17b0808b54565651c,,,,,,,,,,,,,,,,,,,,,space,9.8709,a,1,"[""0.246"",""0.566"",""0.739"",""0.895""]","[1,0,1,1]",0,0,0,0,1,0,1,,,1,FALSE,2.309,,,,,,,,,,,,,,,,,,,,,,,,,,,,,,
,5fe22e82e9df3d5674a3fbfb,001,2022-04-28_21h06.24.768,classification_task,2021.2.3,Win32,59.96282305,5fe22e82e9df3d5674a3fbfb,626b377229c10585ec392f89,626b39c17b0808b54565651c,,,,,,,,,,,,,,,,,,,,,,,a,1,"[""0.246"",""0.389"",""0.564"",""0.895""]","[1,1,0,1]",0,1,1,1,1,0,1,,,1,FALSE,1.7924,,,,,,,,,,,,,,,,,,,,,,,,,,,,,,
,5fe22e82e9df3d5674a3fbfb,001,2022-04-28_21h06.24.768,classification_task,2021.2.3,Win32,59.96282305,5fe22e82e9df3d5674a3fbfb,626b377229c10585ec392f89,626b39c17b0808b54565651c,,,,,,,,,,,,,,,,,,,,,,,a,0,"[""0.048"",""0.355"",""0.655"",""0.598""]","[1,1,1,0]",0,2,2,2,1,1,0,,,1,FALSE,2.5371,,,,,,,,,,,,,,,,,,,,,,,,,,,,,,
,5fe22e82e9df3d5674a3fbfb,001,2022-04-28_21h06.24.768,classification_task,2021.2.3,Win32,59.96282305,5fe22e82e9df3d5674a3fbfb,626b377229c10585ec392f89,626b39c17b0808b54565651c,,,,,,,,,,,,,,,,,,,,,,,l,0,"[""0.578"",""0.389"",""0.739"",""0.895""]","[0,1,1,1]",0,3,3,3,1,0,1,,,1,FALSE,3.473,,,,,,,,,,,,,,,,,,,,,,,,,,,,,,
,5fe22e82e9df3d5674a3fbfb,001,2022-04-28_21h06.24.768,classification_task,2021.2.3,Win32,59.96282305,5fe22e82e9df3d5674a3fbfb,626b377229c10585ec392f89,626b39c17b0808b54565651c,,,,,,,,,,,,,,,,,,,,,,,a,1,"[""0.298"",""0.525"",""0.861"",""0.598""]","[1,1,1,0]",0,4,4,4,1,0,0,,,1,FALSE,1.8466,,,,,,,,,,,,,,,,,,,,,,,,,,,,,,
,5fe22e82e9df3d5674a3fbfb,001,2022-04-28_21h06.24.768,classification_task,2021.2.3,Win32,59.96282305,5fe22e82e9df3d5674a3fbfb,626b377229c10585ec392f89,626b39c17b0808b54565651c,,,,,,,,,,,,,,,,,,,,,,,a,1,"[""0.298"",""0.779"",""0.861"",""0.949""]","[1,0,1,1]",0,5,5,5,1,0,0,,,1,FALSE,2.1574,,,,,,,,,,,,,,,,,,,,,,,,,,,,,,
,5fe22e82e9df3d5674a3fbfb,001,2022-04-28_21h06.24.768,classification_task,2021.2.3,Win32,59.96282305,5fe22e82e9df3d5674a3fbfb,626b377229c10585ec392f89,626b39c17b0808b54565651c,,,,,,,,,,,,,,,,,,,,,,,l,1,"[""0.561"",""0.426"",""0.485"",""0.698""]","[0,1,1,1]",0,6,6,6,1,1,1,,,1,FALSE,1.9873,,,,,,,,,,,,,,,,,,,,,,,,,,,,,,
,5fe22e82e9df3d5674a3fbfb,001,2022-04-28_21h06.24.768,classification_task,2021.2.3,Win32,59.96282305,5fe22e82e9df3d5674a3fbfb,626b377229c10585ec392f89,626b39c17b0808b54565651c,,,,,,,,,,,,,,,,,,,,,,,l,1,"[""0.605"",""0.355"",""0.655"",""0.814""]","[0,1,1,1]",0,7,7,7,1,1,0,,,1,FALSE,1.3405,,,,,,,,,,,,,,,,,,,,,,,,,,,,,,
,5fe22e82e9df3d5674a3fbfb,001,2022-04-28_21h06.24.768,classification_task,2021.2.3,Win32,59.96282305,5fe22e82e9df3d5674a3fbfb,626b377229c10585ec392f89,626b39c17b0808b54565651c,,,,,,,,,,,,,,,,,,,,,,,a,0,"[""0.125"",""0.426"",""0.485"",""0.577""]","[1,1,1,0]",0,8,8,8,1,1,1,,,1,FALSE,2.0437,,,,,,,,,,,,,,,,,,,,,,,,,,,,,,
,5fe22e82e9df3d5674a3fbfb,001,2022-04-28_21h06.24.768,classification_task,2021.2.3,Win32,59.96282305,5fe22e82e9df3d5674a3fbfb,626b377229c10585ec392f89,626b39c17b0808b54565651c,,,,,,,,,,,,,,,,,,,,,,,a,0,"[""0.125"",""0.776"",""0.485"",""0.698""]","[1,0,1,1]",0,9,9,9,1,1,1,,,1,FALSE,0.9551,,,,,,,,,,,,,,,,,,,,,,,,,,,,,,
,5fe22e82e9df3d5674a3fbfb,001,2022-04-28_21h06.24.768,classification_task,2021.2.3,Win32,59.96282305,5fe22e82e9df3d5674a3fbfb,626b377229c10585ec392f89,626b39c17b0808b54565651c,,,,,,,,,,,,,,,,,,,,,,,l,1,"[""0.048"",""0.355"",""0.566"",""0.814""]","[1,1,0,1]",0,10,10,10,1,1,0,,,1,FALSE,2.5623,,,,,,,,,,,,,,,,,,,,,,,,,,,,,,
,5fe22e82e9df3d5674a3fbfb,001,2022-04-28_21h06.24.768,classification_task,2021.2.3,Win32,59.96282305,5fe22e82e9df3d5674a3fbfb,626b377229c10585ec392f89,626b39c17b0808b54565651c,,,,,,,,,,,,,,,,,,,,,,,l,0,"[""0.246"",""0.389"",""0.739"",""0.776""]","[1,1,1,0]",0,11,11,11,1,0,1,,,1,FALSE,2.2492,,,,,,,,,,,,,,,,,,,,,,,,,,,,,,
,5fe22e82e9df3d5674a3fbfb,001,2022-04-28_21h06.24.768,classification_task,2021.2.3,Win32,59.96282305,5fe22e82e9df3d5674a3fbfb,626b377229c10585ec392f89,626b39c17b0808b54565651c,,,,,,,,,,,,,,,,,,,,,,,l,1,"[""0.048"",""0.585"",""0.655"",""0.814""]","[1,0,1,1]",0,12,12,12,1,1,0,,,1,FALSE,1.9915,,,,,,,,,,,,,,,,,,,,,,,,,,,,,,
,5fe22e82e9df3d5674a3fbfb,001,2022-04-28_21h06.24.768,classification_task,2021.2.3,Win32,59.96282305,5fe22e82e9df3d5674a3fbfb,626b377229c10585ec392f89,626b39c17b0808b54565651c,,,,,,,,,,,,,,,,,,,,,,,a,1,"[""0.298"",""0.525"",""0.566"",""0.949""]","[1,1,0,1]",0,13,13,13,1,0,0,,,1,FALSE,1.312,,,,,,,,,,,,,,,,,,,,,,,,,,,,,,
,5fe22e82e9df3d5674a3fbfb,001,2022-04-28_21h06.24.768,classification_task,2021.2.3,Win32,59.96282305,5fe22e82e9df3d5674a3fbfb,626b377229c10585ec392f89,626b39c17b0808b54565651c,,,,,,,,,,,,,,,,,,,,,,,a,0,"[""0.125"",""0.426"",""0.776"",""0.698""]","[1,1,0,1]",0,14,14,14,1,1,1,,,1,FALSE,2.1228,,,,,,,,,,,,,,,,,,,,,,,,,,,,,,
,5fe22e82e9df3d5674a3fbfb,001,2022-04-28_21h06.24.768,classification_task,2021.2.3,Win32,59.96282305,5fe22e82e9df3d5674a3fbfb,626b377229c10585ec392f89,626b39c17b0808b54565651c,,,,,,,,,,,,,,,,,,,,,,,a,1,"[""0.564"",""0.525"",""0.861"",""0.949""]","[0,1,1,1]",0,15,15,15,1,0,0,,,1,FALSE,2.0747,,,,,,,,,,,,,,,,,,,,,,,,,,,,,,
,5fe22e82e9df3d5674a3fbfb,001,2022-04-28_21h06.24.768,classification_task,2021.2.3,Win32,59.96282305,5fe22e82e9df3d5674a3fbfb,626b377229c10585ec392f89,626b39c17b0808b54565651c,,,,,,,,,,,,,,,,,,,,,,,a,1,"[""0.621"",""0.525"",""0.861"",""0.949""]","[0,1,1,1]",0,16,16,16,1,0,0,,,1,FALSE,1.2099,,,,,,,,,,,,,,,,,,,,,,,,,,,,,,
,5fe22e82e9df3d5674a3fbfb,001,2022-04-28_21h06.24.768,classification_task,2021.2.3,Win32,59.96282305,5fe22e82e9df3d5674a3fbfb,626b377229c10585ec392f89,626b39c17b0808b54565651c,,,,,,,,,,,,,,,,,,,,,,,a,1,"[""0.566"",""0.389"",""0.739"",""0.895""]","[0,1,1,1]",0,17,17,17,1,0,1,,,1,FALSE,3.3142,,,,,,,,,,,,,,,,,,,,,,,,,,,,,,
,5fe22e82e9df3d5674a3fbfb,001,2022-04-28_21h06.24.768,classification_task,2021.2.3,Win32,59.96282305,5fe22e82e9df3d5674a3fbfb,626b377229c10585ec392f89,626b39c17b0808b54565651c,,,,,,,,,,,,,,,,,,,,,,,a,0,"[""0.125"",""0.426"",""0.605"",""0.698""]","[1,1,0,1]",0,18,18,18,1,1,1,,,1,FALSE,1.3639,,,,,,,,,,,,,,,,,,,,,,,,,,,,,,
,5fe22e82e9df3d5674a3fbfb,001,2022-04-28_21h06.24.768,classification_task,2021.2.3,Win32,59.96282305,5fe22e82e9df3d5674a3fbfb,626b377229c10585ec392f89,626b39c17b0808b54565651c,,,,,,,,,,,,,,,,,,,,,,,a,0,"[""0.125"",""0.426"",""0.485"",""0.578""]","[1,1,1,0]",0,19,19,19,1,1,1,,,1,FALSE,0.9087,,,,,,,,,,,,,,,,,,,,,,,,,,,,,,
,5fe22e82e9df3d5674a3fbfb,001,2022-04-28_21h06.24.768,classification_task,2021.2.3,Win32,59.96282305,5fe22e82e9df3d5674a3fbfb,626b377229c10585ec392f89,626b39c17b0808b54565651c,,,,,,,,,,,,,,,,,,,,,,,l,1,"[""0.048"",""0.577"",""0.655"",""0.814""]","[1,0,1,1]",0,20,20,20,1,1,0,,,1,FALSE,3.1299,,,,,,,,,,,,,,,,,,,,,,,,,,,,,,
,5fe22e82e9df3d5674a3fbfb,001,2022-04-28_21h06.24.768,classification_task,2021.2.3,Win32,59.96282305,5fe22e82e9df3d5674a3fbfb,626b377229c10585ec392f89,626b39c17b0808b54565651c,,,,,,,,,,,,,,,,,,,,,,,a,1,"[""0.246"",""0.577"",""0.739"",""0.895""]","[1,0,1,1]",0,21,21,21,1,0,1,,,1,FALSE,1.9791,,,,,,,,,,,,,,,,,,,,,,,,,,,,,,
,5fe22e82e9df3d5674a3fbfb,001,2022-04-28_21h06.24.768,classification_task,2021.2.3,Win32,59.96282305,5fe22e82e9df3d5674a3fbfb,626b377229c10585ec392f89,626b39c17b0808b54565651c,,,,,,,,,,,,,,,,,,,,,,,l,1,"[""0.048"",""0.355"",""0.655"",""0.776""]","[1,1,1,0]",0,22,22,22,1,1,0,,,1,FALSE,6.9041,,,,,,,,,,,,,,,,,,,,,,,,,,,,,,
,5fe22e82e9df3d5674a3fbfb,001,2022-04-28_21h06.24.768,classification_task,2021.2.3,Win32,59.96282305,5fe22e82e9df3d5674a3fbfb,626b377229c10585ec392f89,626b39c17b0808b54565651c,,,,,,,,,,,,,,,,,,,,,,,a,1,"[""0.246"",""0.389"",""0.739"",""0.598""]","[1,1,1,0]",0,23,23,23,1,0,1,,,1,FALSE,1.5209,,,,,,,,,,,,,,,,,,,,,,,,,,,,,,
,5fe22e82e9df3d5674a3fbfb,001,2022-04-28_21h06.24.768,classification_task,2021.2.3,Win32,59.96282305,5fe22e82e9df3d5674a3fbfb,626b377229c10585ec392f89,626b39c17b0808b54565651c,,,,,,,,,,,,,,,,,,,,,,,a,0,"[""0.125"",""0.578"",""0.485"",""0.698""]","[1,0,1,1]",0,24,24,24,1,1,1,,,1,FALSE,1.7292,,,,,,,,,,,,,,,,,,,,,,,,,,,,,,
,5fe22e82e9df3d5674a3fbfb,001,2022-04-28_21h06.24.768,classification_task,2021.2.3,Win32,59.96282305,5fe22e82e9df3d5674a3fbfb,626b377229c10585ec392f89,626b39c17b0808b54565651c,,,,,,,,,,,,,,,,,,,,,,,a,1,"[""0.298"",""0.611"",""0.861"",""0.949""]","[1,0,1,1]",0,25,25,25,1,0,0,,,1,FALSE,2.2585,,,,,,,,,,,,,,,,,,,,,,,,,,,,,,
,5fe22e82e9df3d5674a3fbfb,001,2022-04-28_21h06.24.768,classification_task,2021.2.3,Win32,59.96282305,5fe22e82e9df3d5674a3fbfb,626b377229c10585ec392f89,626b39c17b0808b54565651c,,,,,,,,,,,,,,,,,,,,,,,l,1,"[""0.611"",""0.355"",""0.655"",""0.814""]","[0,1,1,1]",0,26,26,26,1,1,0,,,1,FALSE,1.4296,,,,,,,,,,,,,,,,,,,,,,,,,,,,,,
,5fe22e82e9df3d5674a3fbfb,001,2022-04-28_21h06.24.768,classification_task,2021.2.3,Win32,59.96282305,5fe22e82e9df3d5674a3fbfb,626b377229c10585ec392f89,626b39c17b0808b54565651c,,,,,,,,,,,,,,,,,,,,,,,l,1,"[""0.621"",""0.426"",""0.485"",""0.698""]","[0,1,1,1]",0,27,27,27,1,1,1,,,1,FALSE,2.8485,,,,,,,,,,,,,,,,,,,,,,,,,,,,,,
,5fe22e82e9df3d5674a3fbfb,001,2022-04-28_21h06.24.768,classification_task,2021.2.3,Win32,59.96282305,5fe22e82e9df3d5674a3fbfb,626b377229c10585ec392f89,626b39c17b0808b54565651c,,,,,,,,,,,,,,,,,,,,,,,a,1,"[""0.298"",""0.525"",""0.861"",""0.776""]","[1,1,1,0]",0,28,28,28,1,0,0,,,1,FALSE,5.42,,,,,,,,,,,,,,,,,,,,,,,,,,,,,,
,5fe22e82e9df3d5674a3fbfb,001,2022-04-28_21h06.24.768,classification_task,2021.2.3,Win32,59.96282305,5fe22e82e9df3d5674a3fbfb,626b377229c10585ec392f89,626b39c17b0808b54565651c,,,,,,,,,,,,,,,,,,,,,,,a,1,"[""0.298"",""0.525"",""0.585"",""0.949""]","[1,1,0,1]",0,29,29,29,1,0,0,,,1,FALSE,1.3626,,,,,,,,,,,,,,,,,,,,,,,,,,,,,,
,5fe22e82e9df3d5674a3fbfb,001,2022-04-28_21h06.24.768,classification_task,2021.2.3,Win32,59.96282305,5fe22e82e9df3d5674a3fbfb,626b377229c10585ec392f89,626b39c17b0808b54565651c,,,,,,,,,,,,,,,,,,,,,,,l,1,"[""0.048"",""0.355"",""0.621"",""0.814""]","[1,1,0,1]",0,30,30,30,1,1,0,,,1,FALSE,1.0528,,,,,,,,,,,,,,,,,,,,,,,,,,,,,,
,5fe22e82e9df3d5674a3fbfb,001,2022-04-28_21h06.24.768,classification_task,2021.2.3,Win32,59.96282305,5fe22e82e9df3d5674a3fbfb,626b377229c10585ec392f89,626b39c17b0808b54565651c,,,,,,,,,,,,,,,,,,,,,,,l,0,"[""0.246"",""0.389"",""0.566"",""0.895""]","[1,1,0,1]",0,31,31,31,1,0,1,,,1,FALSE,4.4986,,,,,,,,,,,,,,,,,,,,,,,,,,,,,,
,5fe22e82e9df3d5674a3fbfb,001,2022-04-28_21h06.24.768,classification_task,2021.2.3,Win32,59.96282305,5fe22e82e9df3d5674a3fbfb,626b377229c10585ec392f89,626b39c17b0808b54565651c,,,,,,,,,,,,,,,,,,,,,,,a,0,"[""0.125"",""0.426"",""0.485"",""0.578""]","[1,1,1,0]",0,32,32,32,1,1,1,,,1,FALSE,0.9131,,,,,,,,,,,,,,,,,,,,,,,,,,,,,,
,5fe22e82e9df3d5674a3fbfb,001,2022-04-28_21h06.24.768,classification_task,2021.2.3,Win32,59.96282305,5fe22e82e9df3d5674a3fbfb,626b377229c10585ec392f89,626b39c17b0808b54565651c,,,,,,,,,,,,,,,,,,,,,,,a,1,"[""0.298"",""0.525"",""0.621"",""0.949""]","[1,1,0,1]",0,33,33,33,1,0,0,,,1,FALSE,1.5042,,,,,,,,,,,,,,,,,,,,,,,,,,,,,,
,5fe22e82e9df3d5674a3fbfb,001,2022-04-28_21h06.24.768,classification_task,2021.2.3,Win32,59.96282305,5fe22e82e9df3d5674a3fbfb,626b377229c10585ec392f89,626b39c17b0808b54565651c,,,,,,,,,,,,,,,,,,,,,,,l,1,"[""0.185"",""0.355"",""0.655"",""0.814""]","[0,1,1,1]",0,34,34,34,1,1,0,,,1,FALSE,1.3656,,,,,,,,,,,,,,,,,,,,,,,,,,,,,,
,5fe22e82e9df3d5674a3fbfb,001,2022-04-28_21h06.24.768,classification_task,2021.2.3,Win32,59.96282305,5fe22e82e9df3d5674a3fbfb,626b377229c10585ec392f89,626b39c17b0808b54565651c,,,,,,,,,,,,,,,,,,,,,,,l,1,"[""0.048"",""0.355"",""0.655"",""0.561""]","[1,1,1,0]",0,35,35,35,1,1,0,,,1,FALSE,2.9968,,,,,,,,,,,,,,,,,,,,,,,,,,,,,,
,5fe22e82e9df3d5674a3fbfb,001,2022-04-28_21h06.24.768,classification_task,2021.2.3,Win32,59.96282305,5fe22e82e9df3d5674a3fbfb,626b377229c10585ec392f89,626b39c17b0808b54565651c,,,,,,,,,,,,,,,,,,,,,,,l,1,"[""0.048"",""0.355"",""0.577"",""0.814""]","[1,1,0,1]",0,36,36,36,1,1,0,,,1,FALSE,1.5013,,,,,,,,,,,,,,,,,,,,,,,,,,,,,,
,5fe22e82e9df3d5674a3fbfb,001,2022-04-28_21h06.24.768,classification_task,2021.2.3,Win32,59.96282305,5fe22e82e9df3d5674a3fbfb,626b377229c10585ec392f89,626b39c17b0808b54565651c,,,,,,,,,,,,,,,,,,,,,,,l,1,"[""0.577"",""0.426"",""0.485"",""0.698""]","[0,1,1,1]",0,37,37,37,1,1,1,,,1,FALSE,1.3769,,,,,,,,,,,,,,,,,,,,,,,,,,,,,,
,5fe22e82e9df3d5674a3fbfb,001,2022-04-28_21h06.24.768,classification_task,2021.2.3,Win32,59.96282305,5fe22e82e9df3d5674a3fbfb,626b377229c10585ec392f89,626b39c17b0808b54565651c,,,,,,,,,,,,,,,,,,,,,,,l,0,"[""0.246"",""0.389"",""0.578"",""0.895""]","[1,1,0,1]",0,38,38,38,1,0,1,,,1,FALSE,1.954,,,,,,,,,,,,,,,,,,,,,,,,,,,,,,
,5fe22e82e9df3d5674a3fbfb,001,2022-04-28_21h06.24.768,classification_task,2021.2.3,Win32,59.96282305,5fe22e82e9df3d5674a3fbfb,626b377229c10585ec392f89,626b39c17b0808b54565651c,,,,,,,,,,,,,,,,,,,,,,,l,0,"[""0.246"",""0.585"",""0.739"",""0.895""]","[1,0,1,1]",0,39,39,39,1,0,1,,,1,FALSE,1.0679,,,,,,,,,,,,,,,,,,,,,,,,,,,,,,
,5fe22e82e9df3d5674a3fbfb,001,2022-04-28_21h06.24.768,classification_task,2021.2.3,Win32,59.96282305,5fe22e82e9df3d5674a3fbfb,626b377229c10585ec392f89,626b39c17b0808b54565651c,,,,,,,,,,,,,,,,,,,,,,,a,1,"[""0.561"",""0.389"",""0.739"",""0.895""]","[0,1,1,1]",0,40,40,40,1,0,1,,,1,FALSE,2.8773,,,,,,,,,,,,,,,,,,,,,,,,,,,,,,
,5fe22e82e9df3d5674a3fbfb,001,2022-04-28_21h06.24.768,classification_task,2021.2.3,Win32,59.96282305,5fe22e82e9df3d5674a3fbfb,626b377229c10585ec392f89,626b39c17b0808b54565651c,,,,,,,,,,,,,,,,,,,,,,,a,1,"[""0.298"",""0.577"",""0.861"",""0.949""]","[1,0,1,1]",0,41,41,41,1,0,0,,,1,FALSE,2.0154,,,,,,,,,,,,,,,,,,,,,,,,,,,,,,
,5fe22e82e9df3d5674a3fbfb,001,2022-04-28_21h06.24.768,classification_task,2021.2.3,Win32,59.96282305,5fe22e82e9df3d5674a3fbfb,626b377229c10585ec392f89,626b39c17b0808b54565651c,,,,,,,,,,,,,,,,,,,,,,,a,0,"[""0.125"",""0.426"",""0.185"",""0.698""]","[1,1,0,1]",0,42,42,42,1,1,1,,,1,FALSE,2.4924,,,,,,,,,,,,,,,,,,,,,,,,,,,,,,
,5fe22e82e9df3d5674a3fbfb,001,2022-04-28_21h06.24.768,classification_task,2021.2.3,Win32,59.96282305,5fe22e82e9df3d5674a3fbfb,626b377229c10585ec392f89,626b39c17b0808b54565651c,,,,,,,,,,,,,,,,,,,,,,,a,1,"[""0.621"",""0.525"",""0.861"",""0.949""]","[0,1,1,1]",0,43,43,43,1,0,0,,,1,FALSE,3.0788,,,,,,,,,,,,,,,,,,,,,,,,,,,,,,
,5fe22e82e9df3d5674a3fbfb,001,2022-04-28_21h06.24.768,classification_task,2021.2.3,Win32,59.96282305,5fe22e82e9df3d5674a3fbfb,626b377229c10585ec392f89,626b39c17b0808b54565651c,,,,,,,,,,,,,,,,,,,,,,,a,1,"[""0.298"",""0.525"",""0.861"",""0.779""]","[1,1,1,0]",0,44,44,44,1,0,0,,,1,FALSE,6.2998,,,,,,,,,,,,,,,,,,,,,,,,,,,,,,
,5fe22e82e9df3d5674a3fbfb,001,2022-04-28_21h06.24.768,classification_task,2021.2.3,Win32,59.96282305,5fe22e82e9df3d5674a3fbfb,626b377229c10585ec392f89,626b39c17b0808b54565651c,,,,,,,,,,,,,,,,,,,,,,,l,0,"[""0.246"",""0.389"",""0.739"",""0.779""]","[1,1,1,0]",0,45,45,45,1,0,1,,,1,FALSE,1.524,,,,,,,,,,,,,,,,,,,,,,,,,,,,,,
,5fe22e82e9df3d5674a3fbfb,001,2022-04-28_21h06.24.768,classification_task,2021.2.3,Win32,59.96282305,5fe22e82e9df3d5674a3fbfb,626b377229c10585ec392f89,626b39c17b0808b54565651c,,,,,,,,,,,,,,,,,,,,,,,a,0,"[""0.125"",""0.621"",""0.485"",""0.698""]","[1,0,1,1]",0,46,46,46,1,1,1,,,1,FALSE,0.9784,,,,,,,,,,,,,,,,,,,,,,,,,,,,,,
,5fe22e82e9df3d5674a3fbfb,001,2022-04-28_21h06.24.768,classification_task,2021.2.3,Win32,59.96282305,5fe22e82e9df3d5674a3fbfb,626b377229c10585ec392f89,626b39c17b0808b54565651c,,,,,,,,,,,,,,,,,,,,,,,a,0,"[""0.048"",""0.598"",""0.655"",""0.814""]","[1,0,1,1]",0,47,47,47,1,1,0,,,1,FALSE,3.9615,,,,,,,,,,,,,,,,,,,,,,,,,,,,,,
,5fe22e82e9df3d5674a3fbfb,001,2022-04-28_21h06.24.768,classification_task,2021.2.3,Win32,59.96282305,5fe22e82e9df3d5674a3fbfb,626b377229c10585ec392f89,626b39c17b0808b54565651c,,,,,,,,,,,,,,,,,,,,,,,l,0,"[""0.246"",""0.389"",""0.564"",""0.895""]","[1,1,0,1]",0,48,48,48,1,0,1,,,1,FALSE,2.0979,,,,,,,,,,,,,,,,,,,,,,,,,,,,,,
,5fe22e82e9df3d5674a3fbfb,001,2022-04-28_21h06.24.768,classification_task,2021.2.3,Win32,59.96282305,5fe22e82e9df3d5674a3fbfb,626b377229c10585ec392f89,626b39c17b0808b54565651c,,,,,,,,,,,,,,,,,,,,,,,a,1,"[""0.298"",""0.598"",""0.861"",""0.949""]","[1,0,1,1]",0,49,49,49,1,0,0,,,1,FALSE,2.313,,,,,,,,,,,,,,,,,,,,,,,,,,,,,,
,5fe22e82e9df3d5674a3fbfb,001,2022-04-28_21h06.24.768,classification_task,2021.2.3,Win32,59.96282305,5fe22e82e9df3d5674a3fbfb,626b377229c10585ec392f89,626b39c17b0808b54565651c,,,,,,,,,,,,,,,,,,,,,,,l,0,"[""0.777"",""0.389"",""0.739"",""0.895""]","[0,1,1,1]",0,50,50,50,1,0,1,,,1,FALSE,2.7075,,,,,,,,,,,,,,,,,,,,,,,,,,,,,,
,5fe22e82e9df3d5674a3fbfb,001,2022-04-28_21h06.24.768,classification_task,2021.2.3,Win32,59.96282305,5fe22e82e9df3d5674a3fbfb,626b377229c10585ec392f89,626b39c17b0808b54565651c,,,,,,,,,,,,,,,,,,,,,,,l,1,"[""0.577"",""0.426"",""0.485"",""0.698""]","[0,1,1,1]",0,51,51,51,1,1,1,,,1,FALSE,1.8854,,,,,,,,,,,,,,,,,,,,,,,,,,,,,,
,5fe22e82e9df3d5674a3fbfb,001,2022-04-28_21h06.24.768,classification_task,2021.2.3,Win32,59.96282305,5fe22e82e9df3d5674a3fbfb,626b377229c10585ec392f89,626b39c17b0808b54565651c,,,,,,,,,,,,,,,,,,,,,,,l,0,"[""0.246"",""0.389"",""0.739"",""0.577""]","[1,1,1,0]",0,52,52,52,1,0,1,,,1,FALSE,1.6518,,,,,,,,,,,,,,,,,,,,,,,,,,,,,,
,5fe22e82e9df3d5674a3fbfb,001,2022-04-28_21h06.24.768,classification_task,2021.2.3,Win32,59.96282305,5fe22e82e9df3d5674a3fbfb,626b377229c10585ec392f89,626b39c17b0808b54565651c,,,,,,,,,,,,,,,,,,,,,,,l,0,"[""0.246"",""0.578"",""0.739"",""0.895""]","[1,0,1,1]",0,53,53,53,1,0,1,,,1,FALSE,1.1988,,,,,,,,,,,,,,,,,,,,,,,,,,,,,,
,5fe22e82e9df3d5674a3fbfb,001,2022-04-28_21h06.24.768,classification_task,2021.2.3,Win32,59.96282305,5fe22e82e9df3d5674a3fbfb,626b377229c10585ec392f89,626b39c17b0808b54565651c,,,,,,,,,,,,,,,,,,,,,,,a,0,"[""0.125"",""0.426"",""0.621"",""0.698""]","[1,1,0,1]",0,54,54,54,1,1,1,,,1,FALSE,0.9802,,,,,,,,,,,,,,,,,,,,,,,,,,,,,,
,5fe22e82e9df3d5674a3fbfb,001,2022-04-28_21h06.24.768,classification_task,2021.2.3,Win32,59.96282305,5fe22e82e9df3d5674a3fbfb,626b377229c10585ec392f89,626b39c17b0808b54565651c,,,,,,,,,,,,,,,,,,,,,,,l,1,"[""0.048"",""0.355"",""0.655"",""0.577""]","[1,1,1,0]",0,55,55,55,1,1,0,,,1,FALSE,2.6231,,,,,,,,,,,,,,,,,,,,,,,,,,,,,,
,5fe22e82e9df3d5674a3fbfb,001,2022-04-28_21h06.24.768,classification_task,2021.2.3,Win32,59.96282305,5fe22e82e9df3d5674a3fbfb,626b377229c10585ec392f89,626b39c17b0808b54565651c,,,,,,,,,,,,,,,,,,,,,,,a,0,"[""0.125"",""0.577"",""0.485"",""0.698""]","[1,0,1,1]",0,56,56,56,1,1,1,,,1,FALSE,1.4371,,,,,,,,,,,,,,,,,,,,,,,,,,,,,,
,5fe22e82e9df3d5674a3fbfb,001,2022-04-28_21h06.24.768,classification_task,2021.2.3,Win32,59.96282305,5fe22e82e9df3d5674a3fbfb,626b377229c10585ec392f89,626b39c17b0808b54565651c,,,,,,,,,,,,,,,,,,,,,,,l,1,"[""0.048"",""0.779"",""0.655"",""0.814""]","[1,0,1,1]",0,57,57,57,1,1,0,,,1,FALSE,1.8208,,,,,,,,,,,,,,,,,,,,,,,,,,,,,,
,5fe22e82e9df3d5674a3fbfb,001,2022-04-28_21h06.24.768,classification_task,2021.2.3,Win32,59.96282305,5fe22e82e9df3d5674a3fbfb,626b377229c10585ec392f89,626b39c17b0808b54565651c,,,,,,,,,,,,,,,,,,,,,,,a,0,"[""0.125"",""0.426"",""0.485"",""0.621""]","[1,1,1,0]",0,58,58,58,1,1,1,,,1,FALSE,2.3251,,,,,,,,,,,,,,,,,,,,,,,,,,,,,,
,5fe22e82e9df3d5674a3fbfb,001,2022-04-28_21h06.24.768,classification_task,2021.2.3,Win32,59.96282305,5fe22e82e9df3d5674a3fbfb,626b377229c10585ec392f89,626b39c17b0808b54565651c,,,,,,,,,,,,,,,,,,,,,,,a,1,"[""0.298"",""0.525"",""0.577"",""0.949""]","[1,1,0,1]",0,59,59,59,1,0,0,,,1,FALSE,3.211,,,,,,,,,,,,,,,,,,,,,,,,,,,,,,
,5fe22e82e9df3d5674a3fbfb,001,2022-04-28_21h06.24.768,classification_task,2021.2.3,Win32,59.96282305,5fe22e82e9df3d5674a3fbfb,626b377229c10585ec392f89,626b39c17b0808b54565651c,,,,,,,,,,,,,,,,,,,,,,,a,1,"[""0.566"",""0.525"",""0.861"",""0.949""]","[0,1,1,1]",0,60,60,60,1,0,0,,,1,FALSE,1.199,,,,,,,,,,,,,,,,,,,,,,,,,,,,,,
,5fe22e82e9df3d5674a3fbfb,001,2022-04-28_21h06.24.768,classification_task,2021.2.3,Win32,59.96282305,5fe22e82e9df3d5674a3fbfb,626b377229c10585ec392f89,626b39c17b0808b54565651c,,,,,,,,,,,,,,,,,,,,,,,l,1,"[""0.048"",""0.355"",""0.204"",""0.814""]","[1,1,0,1]",0,61,61,61,1,1,0,,,1,FALSE,0.9915,,,,,,,,,,,,,,,,,,,,,,,,,,,,,,
,5fe22e82e9df3d5674a3fbfb,001,2022-04-28_21h06.24.768,classification_task,2021.2.3,Win32,59.96282305,5fe22e82e9df3d5674a3fbfb,626b377229c10585ec392f89,626b39c17b0808b54565651c,,,,,,,,,,,,,,,,,,,,,,,l,1,"[""0.185"",""0.355"",""0.655"",""0.814""]","[0,1,1,1]",0,62,62,62,1,1,0,,,1,FALSE,0.8464,,,,,,,,,,,,,,,,,,,,,,,,,,,,,,
,5fe22e82e9df3d5674a3fbfb,001,2022-04-28_21h06.24.768,classification_task,2021.2.3,Win32,59.96282305,5fe22e82e9df3d5674a3fbfb,626b377229c10585ec392f89,626b39c17b0808b54565651c,,,,,,,,,,,,,,,,,,,,,,,a,1,"[""0.298"",""0.525"",""0.861"",""0.611""]","[1,1,1,0]",0,63,63,63,1,0,0,,,1,FALSE,0.8976,,,,,,,,,,,,,,,,,,,,,,,,,,,,,,
,5fe22e82e9df3d5674a3fbfb,001,2022-04-28_21h06.24.768,classification_task,2021.2.3,Win32,59.96282305,5fe22e82e9df3d5674a3fbfb,626b377229c10585ec392f89,626b39c17b0808b54565651c,,,,,,,,,,,,,,,,,,,,,,,,,,,,,,,,,,,,,,,0, ,,0,3.20877425,223.5335,0,2,2,2,1,2,3,,,,,,,,,,,,,,,,,
,5fe22e82e9df3d5674a3fbfb,001,2022-04-28_21h06.24.768,classification_task,2021.2.3,Win32,59.96282305,5fe22e82e9df3d5674a3fbfb,626b377229c10585ec392f89,626b39c17b0808b54565651c,,,,,,,,,,,,,,,,,,,,,,,,,,,,,,,,,,,,,,,1,  ,,0,7.204585538,227.1606,0,2,2,2,1,2,3,,,,,,,,,,,,,,,,,
,5fe22e82e9df3d5674a3fbfb,001,2022-04-28_21h06.24.768,classification_task,2021.2.3,Win32,59.96282305,5fe22e82e9df3d5674a3fbfb,626b377229c10585ec392f89,626b39c17b0808b54565651c,,,,,,,,,,,,,,,,,,,,,,,,,,,,,,,,,,,,,,,2,  ,,0,6.171186067,228.8152,0,2,2,2,1,2,3,,,,,,,,,,,,,,,,,
,5fe22e82e9df3d5674a3fbfb,001,2022-04-28_21h06.24.768,classification_task,2021.2.3,Win32,59.96282305,5fe22e82e9df3d5674a3fbfb,626b377229c10585ec392f89,626b39c17b0808b54565651c,,,,,,,,,,,,,,,,,,,,,,,,,,,,,,,,,,,,,,,,,,,,,0,2,2,2,1,,3,,,,,,,,,,,,,,,,,
,5fe22e82e9df3d5674a3fbfb,001,2022-04-28_21h06.24.768,classification_task,2021.2.3,Win32,59.96282305,5fe22e82e9df3d5674a3fbfb,626b377229c10585ec392f89,626b39c17b0808b54565651c,,,,,,,,,,,,,,,,,,,,,,,,,,,,,,,,,,,,,,,,,,,,,,,,,,,,,I believe the aid is a competent performer,,0.7,0,4,1010.3652,0,0,0,0,1,0,,,,
,5fe22e82e9df3d5674a3fbfb,001,2022-04-28_21h06.24.768,classification_task,2021.2.3,Win32,59.96282305,5fe22e82e9df3d5674a3fbfb,626b377229c10585ec392f89,626b39c17b0808b54565651c,,,,,,,,,,,,,,,,,,,,,,,,,,,,,,,,,,,,,,,,,,,,,,,,,,,,,I trust the aid,,0.7,0,5,1007.1376,0,0,0,0,1,0,,,,
,5fe22e82e9df3d5674a3fbfb,001,2022-04-28_21h06.24.768,classification_task,2021.2.3,Win32,59.96282305,5fe22e82e9df3d5674a3fbfb,626b377229c10585ec392f89,626b39c17b0808b54565651c,,,,,,,,,,,,,,,,,,,,,,,,,,,,,,,,,,,,,,,,,,,,,,,,,,,,,I have confidence in the advice given by the aid,,0.7,0,5,1011.7106,0,0,0,0,1,0,,,,
,5fe22e82e9df3d5674a3fbfb,001,2022-04-28_21h06.24.768,classification_task,2021.2.3,Win32,59.96282305,5fe22e82e9df3d5674a3fbfb,626b377229c10585ec392f89,626b39c17b0808b54565651c,,,,,,,,,,,,,,,,,,,,,,,,,,,,,,,,,,,,,,,,,,,,,,,,,,,,,I can depend on the aid,,0.7,0,5,1012.5217,0,0,0,0,1,0,,,,
,5fe22e82e9df3d5674a3fbfb,001,2022-04-28_21h06.24.768,classification_task,2021.2.3,Win32,59.96282305,5fe22e82e9df3d5674a3fbfb,626b377229c10585ec392f89,626b39c17b0808b54565651c,,,,,,,,,,,,,,,,,,,,,,,,,,,,,,,,,,,,,,,,,,,,,,,,,,,,,I can rely on the aid to behave in consistent ways,,0.7,0,5,1018.1651,0,0,0,0,1,0,,,,
,5fe22e82e9df3d5674a3fbfb,001,2022-04-28_21h06.24.768,classification_task,2021.2.3,Win32,59.96282305,5fe22e82e9df3d5674a3fbfb,626b377229c10585ec392f89,626b39c17b0808b54565651c,,,,,,,,,,,,,,,,,,,,,,,,,,,,,,,,,,,,,,,,,,,,,,,,,,,,,I can rely on the aid to do its best every time I take its advice,,0.7,0,5,1023.7509,0,0,0,0,1,0,,,,
,5fe22e82e9df3d5674a3fbfb,001,2022-04-28_21h06.24.768,classification_task,2021.2.3,Win32,59.96282305,5fe22e82e9df3d5674a3fbfb,626b377229c10585ec392f89,626b39c17b0808b54565651c,,,,,,,,,,,,,,,,,,,,,,,,,,,,,,,,,,,,,,,,,,,,,,,,,,,,,"On trials you completed with assistance from the aid, how frequently did you think the aid was correct?",,0.7,0,100%,,0,0,0,0,1,0,,,,
,5fe22e82e9df3d5674a3fbfb,001,2022-04-28_21h06.24.768,classification_task,2021.2.3,Win32,59.96282305,5fe22e82e9df3d5674a3fbfb,626b377229c10585ec392f89,626b39c17b0808b54565651c,,,,,,,,,,,,,,,,,,,,,,,,,,,,,,,,,,,,,,,,,,,,,,,,,,,,,"On trials you completed without the aid, how frequently did you think you were correct?",,0.7,0,45%,,0,0,0,0,1,0,,,,
,5fe22e82e9df3d5674a3fbfb,001,2022-04-28_21h06.24.768,classification_task,2021.2.3,Win32,59.96282305,5fe22e82e9df3d5674a3fbfb,626b377229c10585ec392f89,626b39c17b0808b54565651c,,,,,,,,,,,,,,,,,,,,,,,,,,,,,,,,,,,,,,,,,,,,,,,,,,,,,,,,,,,0,0,0,0,1,,,,,
,5fe22e82e9df3d5674a3fbfb,001,2022-04-28_21h06.24.768,classification_task,2021.2.3,Win32,59.96282305,5fe22e82e9df3d5674a3fbfb,626b377229c10585ec392f89,626b39c17b0808b54565651c,,,,,,,,,,,,,,,,,,,,,,,,,,,,,,,,,,,,,,,,,,,,,,,,,,,,,,,,,,,,,,,,,v,9.8358,1073.3033,
,5fe22e82e9df3d5674a3fbfb,001,2022-04-28_21h06.24.768,classification_task,2021.2.3,Win32,59.96282305,5fe22e82e9df3d5674a3fbfb,626b377229c10585ec392f89,626b39c17b0808b54565651c,,,,,,,,,,,,,,,,,,,,,,,,,,,,,,,,,,,,,,,,,,,,,,,,,,,,,,,,,,,,,,,,,,,,"Mozilla/5.0 (Windows NT 10.0; Win64; x64) AppleWebKit/537.36 (KHTML, like Gecko) Chrome/100.0.4896.127 Safari/537.36"
