usingWebGL,participant,session,date,expName,psychopyVersion,OS,frameRate,study_id,signatures_friend,signatures_foe,band_ranges_top,band_ranges_bottom,formitemText,formtype,formundefined,formitemWidth,formindex,formresponse,formrt,key_resp_2.keys,key_resp_2.rt,tute_resp.keys,tute_resp.rt,tutorial.thisRepN,tutorial.thisTrialN,tutorial.thisN,tutorial.thisIndex,tutorial.ran,key_resp_4.keys,key_resp_4.rt,key_resp.keys,key_resp.corr,key_resp.rt,lines_presented,is_signal_presented,trials.thisRepN,trials.thisTrialN,trials.thisN,trials.thisIndex,trials.ran,vessel,active_band,lines,is_signal,supported_pos,catch_trial,debrief_formindex,debrief_formitemText,debrief_formtype,debrief_formitemWidth,debrief_formresponse,debrief_formrt,phases.thisRepN,phases.thisTrialN,phases.thisN,phases.thisIndex,phases.ran,phases.order,phase,key_resp_3.keys,trustitemText,trusttype,trustitemWidth,trustindex,trustresponse,trustrt,support_status.thisRepN,support_status.thisTrialN,support_status.thisN,support_status.thisIndex,support_status.ran,support_status.order,key_resp_5.keys,key_resp_5.rt,globalClockTime,userAgent,manualCondition
TRUE,5ff0a3d22c2ee6fa5d47c312,627c6f59cf6652b27e05561f,2022-05-12_04h22.38.826,classification_task,2021.2.3,Win32,134.5351809,627c6715c52fd12f31907bcf,,,,,,,,,,,,,,,,,,,,,,,,,,,,,,,,,,,,,,,,,,,,,,,,,,,,,,,,,,,,,,,,,,,,,
,5ff0a3d22c2ee6fa5d47c312,627c6f59cf6652b27e05561f,2022-05-12_04h22.38.826,classification_task,2021.2.3,Win32,134.5351809,627c6715c52fd12f31907bcf,"[[""0.195"",""0.565"",""0.888"",""0.939""],[""0.246"",""0.334"",""0.658"",""0.974""]]","[[""0.081"",""0.375"",""0.478"",""0.748""],[""0.139"",""0.414"",""0.524"",""0.701""]]","[1,10]","[100,1000]",Video game experience,,,0.7,0,,,,,,,,,,,,,,,,,,,,,,,,,,,,,,,,,,,,,,,,,,,,,,,,,,,,,,,,,,,,
,5ff0a3d22c2ee6fa5d47c312,627c6f59cf6652b27e05561f,2022-05-12_04h22.38.826,classification_task,2021.2.3,Win32,134.5351809,627c6715c52fd12f31907bcf,,,,,Approximately how many hours did you spend playing video games in the last week?,,,0.7,0,25,,,,,,,,,,,,,,,,,,,,,,,,,,,,,,,,,,,,,,,,,,,,,,,,,,,,,,,,,,,
,5ff0a3d22c2ee6fa5d47c312,627c6f59cf6652b27e05561f,2022-05-12_04h22.38.826,classification_task,2021.2.3,Win32,134.5351809,627c6715c52fd12f31907bcf,,,,,"Which game did you play the most this year? (Enter ""None"" if you didn't play any)",,,0.7,0,Valorant,,,,,,,,,,,,,,,,,,,,,,,,,,,,,,,,,,,,,,,,,,,,,,,,,,,,,,,,,,,
,5ff0a3d22c2ee6fa5d47c312,627c6f59cf6652b27e05561f,2022-05-12_04h22.38.826,classification_task,2021.2.3,Win32,134.5351809,627c6715c52fd12f31907bcf,,,,,Visual perception,,,0.7,0,,,,,,,,,,,,,,,,,,,,,,,,,,,,,,,,,,,,,,,,,,,,,,,,,,,,,,,,,,,,
,5ff0a3d22c2ee6fa5d47c312,627c6f59cf6652b27e05561f,2022-05-12_04h22.38.826,classification_task,2021.2.3,Win32,134.5351809,627c6715c52fd12f31907bcf,,,,,Do you have any form of color blindness?,,,0.7,0,No,31.3755,,,,,,,,,,,,,,,,,,,,,,,,,,,,,,,,,,,,,,,,,,,,,,,,,,,,,,,,,,
,5ff0a3d22c2ee6fa5d47c312,627c6f59cf6652b27e05561f,2022-05-12_04h22.38.826,classification_task,2021.2.3,Win32,134.5351809,627c6715c52fd12f31907bcf,,,,,Do you use software to change the colour temperature of your screen (e.g. f.lux)?,,,0.7,0,No,35.546,,,,,,,,,,,,,,,,,,,,,,,,,,,,,,,,,,,,,,,,,,,,,,,,,,,,,,,,,,
,5ff0a3d22c2ee6fa5d47c312,627c6f59cf6652b27e05561f,2022-05-12_04h22.38.826,classification_task,2021.2.3,Win32,134.5351809,627c6715c52fd12f31907bcf,,,,,,,,,,,,space,44.9215,space,9.8056,0,0,0,0,1,,,,,,,,,,,,,,,,,,,,,,,,,,,,,,,,,,,,,,,,,,,,,,,,,
,5ff0a3d22c2ee6fa5d47c312,627c6f59cf6652b27e05561f,2022-05-12_04h22.38.826,classification_task,2021.2.3,Win32,134.5351809,627c6715c52fd12f31907bcf,,,,,,,,,,,,,,space,9.1311,1,0,1,0,1,,,,,,,,,,,,,,,,,,,,,,,,,,,,,,,,,,,,,,,,,,,,,,,,,
,5ff0a3d22c2ee6fa5d47c312,627c6f59cf6652b27e05561f,2022-05-12_04h22.38.826,classification_task,2021.2.3,Win32,134.5351809,627c6715c52fd12f31907bcf,,,,,,,,,,,,,,space,19.613,2,0,2,0,1,,,,,,,,,,,,,,,,,,,,,,,,,,,,,,,,,,,,,,,,,,,,,,,,,
,5ff0a3d22c2ee6fa5d47c312,627c6f59cf6652b27e05561f,2022-05-12_04h22.38.826,classification_task,2021.2.3,Win32,134.5351809,627c6715c52fd12f31907bcf,,,,,,,,,,,,,,space,14.5303,3,0,3,0,1,,,,,,,,,,,,,,,,,,,,,,,,,,,,,,,,,,,,,,,,,,,,,,,,,
,5ff0a3d22c2ee6fa5d47c312,627c6f59cf6652b27e05561f,2022-05-12_04h22.38.826,classification_task,2021.2.3,Win32,134.5351809,627c6715c52fd12f31907bcf,,,,,,,,,,,,,,space,13.5978,4,0,4,0,1,,,,,,,,,,,,,,,,,,,,,,,,,,,,,,,,,,,,,,,,,,,,,,,,,
,5ff0a3d22c2ee6fa5d47c312,627c6f59cf6652b27e05561f,2022-05-12_04h22.38.826,classification_task,2021.2.3,Win32,134.5351809,627c6715c52fd12f31907bcf,,,,,,,,,,,,,,,,,,,,,space,14.6548,l,1,4.3779,"[""0.139"",""0.822"",""0.524"",""0.701""]","[1,0,1,1]",0,0,0,0,1,1,1,,,0,FALSE,,,,,,,,,,,,,,,,,,,,,,,,,,,,,,,
,5ff0a3d22c2ee6fa5d47c312,627c6f59cf6652b27e05561f,2022-05-12_04h22.38.826,classification_task,2021.2.3,Win32,134.5351809,627c6715c52fd12f31907bcf,,,,,,,,,,,,,,,,,,,,,,,a,1,3.521,"[""0.805"",""0.334"",""0.658"",""0.974""]","[0,1,1,1]",0,1,1,1,1,0,1,,,0,FALSE,,,,,,,,,,,,,,,,,,,,,,,,,,,,,,,
,5ff0a3d22c2ee6fa5d47c312,627c6f59cf6652b27e05561f,2022-05-12_04h22.38.826,classification_task,2021.2.3,Win32,134.5351809,627c6715c52fd12f31907bcf,,,,,,,,,,,,,,,,,,,,,,,l,1,4.396,"[""0.081"",""0.375"",""0.846"",""0.748""]","[1,1,0,1]",0,2,2,2,1,1,0,,,0,FALSE,,,,,,,,,,,,,,,,,,,,,,,,,,,,,,,
,5ff0a3d22c2ee6fa5d47c312,627c6f59cf6652b27e05561f,2022-05-12_04h22.38.826,classification_task,2021.2.3,Win32,134.5351809,627c6715c52fd12f31907bcf,,,,,,,,,,,,,,,,,,,,,,,a,1,2.9669,"[""0.195"",""0.565"",""0.888"",""0.620""]","[1,1,1,0]",0,3,3,3,1,0,0,,,0,FALSE,,,,,,,,,,,,,,,,,,,,,,,,,,,,,,,
,5ff0a3d22c2ee6fa5d47c312,627c6f59cf6652b27e05561f,2022-05-12_04h22.38.826,classification_task,2021.2.3,Win32,134.5351809,627c6715c52fd12f31907bcf,,,,,,,,,,,,,,,,,,,,,,,l,1,2.3623,"[""0.783"",""0.375"",""0.478"",""0.748""]","[0,1,1,1]",0,4,4,4,1,1,0,,,0,FALSE,,,,,,,,,,,,,,,,,,,,,,,,,,,,,,,
,5ff0a3d22c2ee6fa5d47c312,627c6f59cf6652b27e05561f,2022-05-12_04h22.38.826,classification_task,2021.2.3,Win32,134.5351809,627c6715c52fd12f31907bcf,,,,,,,,,,,,,,,,,,,,,,,l,1,3.2409,"[""0.139"",""0.414"",""0.620"",""0.701""]","[1,1,0,1]",0,5,5,5,1,1,1,,,0,FALSE,,,,,,,,,,,,,,,,,,,,,,,,,,,,,,,
,5ff0a3d22c2ee6fa5d47c312,627c6f59cf6652b27e05561f,2022-05-12_04h22.38.826,classification_task,2021.2.3,Win32,134.5351809,627c6715c52fd12f31907bcf,,,,,,,,,,,,,,,,,,,,,,,l,1,2.5191,"[""0.081"",""0.041"",""0.478"",""0.748""]","[1,0,1,1]",0,6,6,6,1,1,0,,,0,FALSE,,,,,,,,,,,,,,,,,,,,,,,,,,,,,,,
,5ff0a3d22c2ee6fa5d47c312,627c6f59cf6652b27e05561f,2022-05-12_04h22.38.826,classification_task,2021.2.3,Win32,134.5351809,627c6715c52fd12f31907bcf,,,,,,,,,,,,,,,,,,,,,,,a,1,3.5894,"[""0.246"",""0.334"",""0.658"",""0.620""]","[1,1,1,0]",0,7,7,7,1,0,1,,,0,FALSE,,,,,,,,,,,,,,,,,,,,,,,,,,,,,,,
,5ff0a3d22c2ee6fa5d47c312,627c6f59cf6652b27e05561f,2022-05-12_04h22.38.826,classification_task,2021.2.3,Win32,134.5351809,627c6715c52fd12f31907bcf,,,,,,,,,,,,,,,,,,,,,,,a,1,4.7231,"[""0.620"",""0.565"",""0.888"",""0.939""]","[0,1,1,1]",0,8,8,8,1,0,0,,,0,FALSE,,,,,,,,,,,,,,,,,,,,,,,,,,,,,,,
,5ff0a3d22c2ee6fa5d47c312,627c6f59cf6652b27e05561f,2022-05-12_04h22.38.826,classification_task,2021.2.3,Win32,134.5351809,627c6715c52fd12f31907bcf,,,,,,,,,,,,,,,,,,,,,,,a,1,2.5055,"[""0.246"",""0.798"",""0.658"",""0.974""]","[1,0,1,1]",0,9,9,9,1,0,1,,,0,FALSE,,,,,,,,,,,,,,,,,,,,,,,,,,,,,,,
,5ff0a3d22c2ee6fa5d47c312,627c6f59cf6652b27e05561f,2022-05-12_04h22.38.826,classification_task,2021.2.3,Win32,134.5351809,627c6715c52fd12f31907bcf,,,,,,,,,,,,,,,,,,,,,,,a,1,1.9384,"[""0.246"",""0.334"",""0.620"",""0.974""]","[1,1,0,1]",0,10,10,10,1,0,1,,,0,FALSE,,,,,,,,,,,,,,,,,,,,,,,,,,,,,,,
,5ff0a3d22c2ee6fa5d47c312,627c6f59cf6652b27e05561f,2022-05-12_04h22.38.826,classification_task,2021.2.3,Win32,134.5351809,627c6715c52fd12f31907bcf,,,,,,,,,,,,,,,,,,,,,,,l,1,2.1921,"[""0.139"",""0.414"",""0.524"",""0.791""]","[1,1,1,0]",0,11,11,11,1,1,1,,,0,FALSE,,,,,,,,,,,,,,,,,,,,,,,,,,,,,,,
,5ff0a3d22c2ee6fa5d47c312,627c6f59cf6652b27e05561f,2022-05-12_04h22.38.826,classification_task,2021.2.3,Win32,134.5351809,627c6715c52fd12f31907bcf,,,,,,,,,,,,,,,,,,,,,,,a,1,2.7229,"[""0.195"",""0.565"",""0.822"",""0.939""]","[1,1,0,1]",0,12,12,12,1,0,0,,,0,FALSE,,,,,,,,,,,,,,,,,,,,,,,,,,,,,,,
,5ff0a3d22c2ee6fa5d47c312,627c6f59cf6652b27e05561f,2022-05-12_04h22.38.826,classification_task,2021.2.3,Win32,134.5351809,627c6715c52fd12f31907bcf,,,,,,,,,,,,,,,,,,,,,,,a,1,2.1817,"[""0.195"",""0.300"",""0.888"",""0.939""]","[1,0,1,1]",0,13,13,13,1,0,0,,,0,FALSE,,,,,,,,,,,,,,,,,,,,,,,,,,,,,,,
,5ff0a3d22c2ee6fa5d47c312,627c6f59cf6652b27e05561f,2022-05-12_04h22.38.826,classification_task,2021.2.3,Win32,134.5351809,627c6715c52fd12f31907bcf,,,,,,,,,,,,,,,,,,,,,,,l,1,2.1767,"[""0.081"",""0.375"",""0.478"",""0.854""]","[1,1,1,0]",0,14,14,14,1,1,0,,,0,FALSE,,,,,,,,,,,,,,,,,,,,,,,,,,,,,,,
,5ff0a3d22c2ee6fa5d47c312,627c6f59cf6652b27e05561f,2022-05-12_04h22.38.826,classification_task,2021.2.3,Win32,134.5351809,627c6715c52fd12f31907bcf,,,,,,,,,,,,,,,,,,,,,,,a,0,1.8344,"[""0.293"",""0.414"",""0.524"",""0.701""]","[0,1,1,1]",0,15,15,15,1,1,1,,,0,FALSE,,,,,,,,,,,,,,,,,,,,,,,,,,,,,,,
,5ff0a3d22c2ee6fa5d47c312,627c6f59cf6652b27e05561f,2022-05-12_04h22.38.826,classification_task,2021.2.3,Win32,134.5351809,627c6715c52fd12f31907bcf,,,,,,,,,,,,,,,,,,,,,,,l,1,6.0922,"[""0.139"",""0.414"",""0.041"",""0.701""]","[1,1,0,1]",0,16,16,16,1,1,1,,,0,FALSE,,,,,,,,,,,,,,,,,,,,,,,,,,,,,,,
,5ff0a3d22c2ee6fa5d47c312,627c6f59cf6652b27e05561f,2022-05-12_04h22.38.826,classification_task,2021.2.3,Win32,134.5351809,627c6715c52fd12f31907bcf,,,,,,,,,,,,,,,,,,,,,,,l,1,3.2403,"[""0.800"",""0.375"",""0.478"",""0.748""]","[0,1,1,1]",0,17,17,17,1,1,0,,,0,FALSE,,,,,,,,,,,,,,,,,,,,,,,,,,,,,,,
,5ff0a3d22c2ee6fa5d47c312,627c6f59cf6652b27e05561f,2022-05-12_04h22.38.826,classification_task,2021.2.3,Win32,134.5351809,627c6715c52fd12f31907bcf,,,,,,,,,,,,,,,,,,,,,,,a,1,1.564,"[""0.195"",""0.565"",""0.800"",""0.939""]","[1,1,0,1]",0,18,18,18,1,0,0,,,0,FALSE,,,,,,,,,,,,,,,,,,,,,,,,,,,,,,,
,5ff0a3d22c2ee6fa5d47c312,627c6f59cf6652b27e05561f,2022-05-12_04h22.38.826,classification_task,2021.2.3,Win32,134.5351809,627c6715c52fd12f31907bcf,,,,,,,,,,,,,,,,,,,,,,,l,1,2.0673,"[""0.139"",""0.414"",""0.524"",""0.846""]","[1,1,1,0]",0,19,19,19,1,1,1,,,0,FALSE,,,,,,,,,,,,,,,,,,,,,,,,,,,,,,,
,5ff0a3d22c2ee6fa5d47c312,627c6f59cf6652b27e05561f,2022-05-12_04h22.38.826,classification_task,2021.2.3,Win32,134.5351809,627c6715c52fd12f31907bcf,,,,,,,,,,,,,,,,,,,,,,,a,1,1.4848,"[""0.246"",""0.334"",""0.800"",""0.974""]","[1,1,0,1]",0,20,20,20,1,0,1,,,0,FALSE,,,,,,,,,,,,,,,,,,,,,,,,,,,,,,,
,5ff0a3d22c2ee6fa5d47c312,627c6f59cf6652b27e05561f,2022-05-12_04h22.38.826,classification_task,2021.2.3,Win32,134.5351809,627c6715c52fd12f31907bcf,,,,,,,,,,,,,,,,,,,,,,,l,1,2.4092,"[""0.081"",""0.835"",""0.478"",""0.748""]","[1,0,1,1]",0,21,21,21,1,1,0,,,0,FALSE,,,,,,,,,,,,,,,,,,,,,,,,,,,,,,,
,5ff0a3d22c2ee6fa5d47c312,627c6f59cf6652b27e05561f,2022-05-12_04h22.38.826,classification_task,2021.2.3,Win32,134.5351809,627c6715c52fd12f31907bcf,,,,,,,,,,,,,,,,,,,,,,,a,1,2.0268,"[""0.854"",""0.334"",""0.658"",""0.974""]","[0,1,1,1]",0,22,22,22,1,0,1,,,0,FALSE,,,,,,,,,,,,,,,,,,,,,,,,,,,,,,,
,5ff0a3d22c2ee6fa5d47c312,627c6f59cf6652b27e05561f,2022-05-12_04h22.38.826,classification_task,2021.2.3,Win32,134.5351809,627c6715c52fd12f31907bcf,,,,,,,,,,,,,,,,,,,,,,,a,1,2.0682,"[""0.846"",""0.565"",""0.888"",""0.939""]","[0,1,1,1]",0,23,23,23,1,0,0,,,0,FALSE,,,,,,,,,,,,,,,,,,,,,,,,,,,,,,,
,5ff0a3d22c2ee6fa5d47c312,627c6f59cf6652b27e05561f,2022-05-12_04h22.38.826,classification_task,2021.2.3,Win32,134.5351809,627c6715c52fd12f31907bcf,,,,,,,,,,,,,,,,,,,,,,,a,1,2.0602,"[""0.246"",""0.797"",""0.658"",""0.974""]","[1,0,1,1]",0,24,24,24,1,0,1,,,0,FALSE,,,,,,,,,,,,,,,,,,,,,,,,,,,,,,,
,5ff0a3d22c2ee6fa5d47c312,627c6f59cf6652b27e05561f,2022-05-12_04h22.38.826,classification_task,2021.2.3,Win32,134.5351809,627c6715c52fd12f31907bcf,,,,,,,,,,,,,,,,,,,,,,,a,1,1.567,"[""0.195"",""0.822"",""0.888"",""0.939""]","[1,0,1,1]",0,25,25,25,1,0,0,,,0,FALSE,,,,,,,,,,,,,,,,,,,,,,,,,,,,,,,
,5ff0a3d22c2ee6fa5d47c312,627c6f59cf6652b27e05561f,2022-05-12_04h22.38.826,classification_task,2021.2.3,Win32,134.5351809,627c6715c52fd12f31907bcf,,,,,,,,,,,,,,,,,,,,,,,a,1,3.3123,"[""0.246"",""0.334"",""0.658"",""0.798""]","[1,1,1,0]",0,26,26,26,1,0,1,,,0,FALSE,,,,,,,,,,,,,,,,,,,,,,,,,,,,,,,
,5ff0a3d22c2ee6fa5d47c312,627c6f59cf6652b27e05561f,2022-05-12_04h22.38.826,classification_task,2021.2.3,Win32,134.5351809,627c6715c52fd12f31907bcf,,,,,,,,,,,,,,,,,,,,,,,l,1,2.4712,"[""0.081"",""0.375"",""0.478"",""0.798""]","[1,1,1,0]",0,27,27,27,1,1,0,,,0,FALSE,,,,,,,,,,,,,,,,,,,,,,,,,,,,,,,
,5ff0a3d22c2ee6fa5d47c312,627c6f59cf6652b27e05561f,2022-05-12_04h22.38.826,classification_task,2021.2.3,Win32,134.5351809,627c6715c52fd12f31907bcf,,,,,,,,,,,,,,,,,,,,,,,l,1,2.1456,"[""0.081"",""0.375"",""0.822"",""0.748""]","[1,1,0,1]",0,28,28,28,1,1,0,,,0,FALSE,,,,,,,,,,,,,,,,,,,,,,,,,,,,,,,
,5ff0a3d22c2ee6fa5d47c312,627c6f59cf6652b27e05561f,2022-05-12_04h22.38.826,classification_task,2021.2.3,Win32,134.5351809,627c6715c52fd12f31907bcf,,,,,,,,,,,,,,,,,,,,,,,l,1,2.8107,"[""0.139"",""0.296"",""0.524"",""0.701""]","[1,0,1,1]",0,29,29,29,1,1,1,,,0,FALSE,,,,,,,,,,,,,,,,,,,,,,,,,,,,,,,
,5ff0a3d22c2ee6fa5d47c312,627c6f59cf6652b27e05561f,2022-05-12_04h22.38.826,classification_task,2021.2.3,Win32,134.5351809,627c6715c52fd12f31907bcf,,,,,,,,,,,,,,,,,,,,,,,l,0,2.1643,"[""0.195"",""0.565"",""0.888"",""0.041""]","[1,1,1,0]",0,30,30,30,1,0,0,,,0,FALSE,,,,,,,,,,,,,,,,,,,,,,,,,,,,,,,
,5ff0a3d22c2ee6fa5d47c312,627c6f59cf6652b27e05561f,2022-05-12_04h22.38.826,classification_task,2021.2.3,Win32,134.5351809,627c6715c52fd12f31907bcf,,,,,,,,,,,,,,,,,,,,,,,l,1,4.5753,"[""0.800"",""0.414"",""0.524"",""0.701""]","[0,1,1,1]",0,31,31,31,1,1,1,,,0,FALSE,,,,,,,,,,,,,,,,,,,,,,,,,,,,,,,
,5ff0a3d22c2ee6fa5d47c312,627c6f59cf6652b27e05561f,2022-05-12_04h22.38.826,classification_task,2021.2.3,Win32,134.5351809,627c6715c52fd12f31907bcf,,,,,,,,,,,,,,,,,,,,,,,a,0,5.0958,"[""0.081"",""0.375"",""0.478"",""0.296""]","[1,1,1,0]",0,32,32,32,1,1,0,,,0,FALSE,,,,,,,,,,,,,,,,,,,,,,,,,,,,,,,
,5ff0a3d22c2ee6fa5d47c312,627c6f59cf6652b27e05561f,2022-05-12_04h22.38.826,classification_task,2021.2.3,Win32,134.5351809,627c6715c52fd12f31907bcf,,,,,,,,,,,,,,,,,,,,,,,l,0,4.6206,"[""0.246"",""0.334"",""0.805"",""0.974""]","[1,1,0,1]",0,33,33,33,1,0,1,,,0,FALSE,,,,,,,,,,,,,,,,,,,,,,,,,,,,,,,
,5ff0a3d22c2ee6fa5d47c312,627c6f59cf6652b27e05561f,2022-05-12_04h22.38.826,classification_task,2021.2.3,Win32,134.5351809,627c6715c52fd12f31907bcf,,,,,,,,,,,,,,,,,,,,,,,a,1,2.0649,"[""0.195"",""0.797"",""0.888"",""0.939""]","[1,0,1,1]",0,34,34,34,1,0,0,,,0,FALSE,,,,,,,,,,,,,,,,,,,,,,,,,,,,,,,
,5ff0a3d22c2ee6fa5d47c312,627c6f59cf6652b27e05561f,2022-05-12_04h22.38.826,classification_task,2021.2.3,Win32,134.5351809,627c6715c52fd12f31907bcf,,,,,,,,,,,,,,,,,,,,,,,l,1,3.4608,"[""0.081"",""0.375"",""0.797"",""0.748""]","[1,1,0,1]",0,35,35,35,1,1,0,,,0,FALSE,,,,,,,,,,,,,,,,,,,,,,,,,,,,,,,
,5ff0a3d22c2ee6fa5d47c312,627c6f59cf6652b27e05561f,2022-05-12_04h22.38.826,classification_task,2021.2.3,Win32,134.5351809,627c6715c52fd12f31907bcf,,,,,,,,,,,,,,,,,,,,,,,l,1,2.5086,"[""0.800"",""0.414"",""0.524"",""0.701""]","[0,1,1,1]",0,36,36,36,1,1,1,,,0,FALSE,,,,,,,,,,,,,,,,,,,,,,,,,,,,,,,
,5ff0a3d22c2ee6fa5d47c312,627c6f59cf6652b27e05561f,2022-05-12_04h22.38.826,classification_task,2021.2.3,Win32,134.5351809,627c6715c52fd12f31907bcf,,,,,,,,,,,,,,,,,,,,,,,a,1,2.7862,"[""0.246"",""0.334"",""0.658"",""0.791""]","[1,1,1,0]",0,37,37,37,1,0,1,,,0,FALSE,,,,,,,,,,,,,,,,,,,,,,,,,,,,,,,
,5ff0a3d22c2ee6fa5d47c312,627c6f59cf6652b27e05561f,2022-05-12_04h22.38.826,classification_task,2021.2.3,Win32,134.5351809,627c6715c52fd12f31907bcf,,,,,,,,,,,,,,,,,,,,,,,a,1,2.5387,"[""0.295"",""0.334"",""0.658"",""0.974""]","[0,1,1,1]",0,38,38,38,1,0,1,,,0,FALSE,,,,,,,,,,,,,,,,,,,,,,,,,,,,,,,
,5ff0a3d22c2ee6fa5d47c312,627c6f59cf6652b27e05561f,2022-05-12_04h22.38.826,classification_task,2021.2.3,Win32,134.5351809,627c6715c52fd12f31907bcf,,,,,,,,,,,,,,,,,,,,,,,l,1,2.467,"[""0.797"",""0.375"",""0.478"",""0.748""]","[0,1,1,1]",0,39,39,39,1,1,0,,,0,FALSE,,,,,,,,,,,,,,,,,,,,,,,,,,,,,,,
,5ff0a3d22c2ee6fa5d47c312,627c6f59cf6652b27e05561f,2022-05-12_04h22.38.826,classification_task,2021.2.3,Win32,134.5351809,627c6715c52fd12f31907bcf,,,,,,,,,,,,,,,,,,,,,,,a,1,3.2602,"[""0.246"",""0.041"",""0.658"",""0.974""]","[1,0,1,1]",0,40,40,40,1,0,1,,,0,FALSE,,,,,,,,,,,,,,,,,,,,,,,,,,,,,,,
,5ff0a3d22c2ee6fa5d47c312,627c6f59cf6652b27e05561f,2022-05-12_04h22.38.826,classification_task,2021.2.3,Win32,134.5351809,627c6715c52fd12f31907bcf,,,,,,,,,,,,,,,,,,,,,,,l,1,1.4684,"[""0.139"",""0.414"",""0.854"",""0.701""]","[1,1,0,1]",0,41,41,41,1,1,1,,,0,FALSE,,,,,,,,,,,,,,,,,,,,,,,,,,,,,,,
,5ff0a3d22c2ee6fa5d47c312,627c6f59cf6652b27e05561f,2022-05-12_04h22.38.826,classification_task,2021.2.3,Win32,134.5351809,627c6715c52fd12f31907bcf,,,,,,,,,,,,,,,,,,,,,,,a,1,1.0365,"[""0.195"",""0.565"",""0.888"",""0.041""]","[1,1,1,0]",0,42,42,42,1,0,0,,,0,FALSE,,,,,,,,,,,,,,,,,,,,,,,,,,,,,,,
,5ff0a3d22c2ee6fa5d47c312,627c6f59cf6652b27e05561f,2022-05-12_04h22.38.826,classification_task,2021.2.3,Win32,134.5351809,627c6715c52fd12f31907bcf,,,,,,,,,,,,,,,,,,,,,,,l,1,1.4716,"[""0.139"",""0.798"",""0.524"",""0.701""]","[1,0,1,1]",0,43,43,43,1,1,1,,,0,FALSE,,,,,,,,,,,,,,,,,,,,,,,,,,,,,,,
,5ff0a3d22c2ee6fa5d47c312,627c6f59cf6652b27e05561f,2022-05-12_04h22.38.826,classification_task,2021.2.3,Win32,134.5351809,627c6715c52fd12f31907bcf,,,,,,,,,,,,,,,,,,,,,,,a,0,2.0903,"[""0.139"",""0.414"",""0.524"",""0.041""]","[1,1,1,0]",0,44,44,44,1,1,1,,,0,FALSE,,,,,,,,,,,,,,,,,,,,,,,,,,,,,,,
,5ff0a3d22c2ee6fa5d47c312,627c6f59cf6652b27e05561f,2022-05-12_04h22.38.826,classification_task,2021.2.3,Win32,134.5351809,627c6715c52fd12f31907bcf,,,,,,,,,,,,,,,,,,,,,,,l,1,1.5207,"[""0.081"",""0.041"",""0.478"",""0.748""]","[1,0,1,1]",0,45,45,45,1,1,0,,,0,FALSE,,,,,,,,,,,,,,,,,,,,,,,,,,,,,,,
,5ff0a3d22c2ee6fa5d47c312,627c6f59cf6652b27e05561f,2022-05-12_04h22.38.826,classification_task,2021.2.3,Win32,134.5351809,627c6715c52fd12f31907bcf,,,,,,,,,,,,,,,,,,,,,,,l,0,2.3556,"[""0.854"",""0.565"",""0.888"",""0.939""]","[0,1,1,1]",0,46,46,46,1,0,0,,,0,FALSE,,,,,,,,,,,,,,,,,,,,,,,,,,,,,,,
,5ff0a3d22c2ee6fa5d47c312,627c6f59cf6652b27e05561f,2022-05-12_04h22.38.826,classification_task,2021.2.3,Win32,134.5351809,627c6715c52fd12f31907bcf,,,,,,,,,,,,,,,,,,,,,,,a,1,2.249,"[""0.195"",""0.565"",""0.846"",""0.939""]","[1,1,0,1]",0,47,47,47,1,0,0,,,0,FALSE,,,,,,,,,,,,,,,,,,,,,,,,,,,,,,,
,5ff0a3d22c2ee6fa5d47c312,627c6f59cf6652b27e05561f,2022-05-12_04h22.38.826,classification_task,2021.2.3,Win32,134.5351809,627c6715c52fd12f31907bcf,,,,,,,,,,,,,,,,,,,,,,,a,1,1.4483,"[""0.835"",""0.334"",""0.658"",""0.974""]","[0,1,1,1]",0,48,48,48,1,0,1,,,0,FALSE,,,,,,,,,,,,,,,,,,,,,,,,,,,,,,,
,5ff0a3d22c2ee6fa5d47c312,627c6f59cf6652b27e05561f,2022-05-12_04h22.38.826,classification_task,2021.2.3,Win32,134.5351809,627c6715c52fd12f31907bcf,,,,,,,,,,,,,,,,,,,,,,,l,0,1.4927,"[""0.195"",""0.565"",""0.293"",""0.939""]","[1,1,0,1]",0,49,49,49,1,0,0,,,0,FALSE,,,,,,,,,,,,,,,,,,,,,,,,,,,,,,,
,5ff0a3d22c2ee6fa5d47c312,627c6f59cf6652b27e05561f,2022-05-12_04h22.38.826,classification_task,2021.2.3,Win32,134.5351809,627c6715c52fd12f31907bcf,,,,,,,,,,,,,,,,,,,,,,,a,1,1.7523,"[""0.195"",""0.620"",""0.888"",""0.939""]","[1,0,1,1]",0,50,50,50,1,0,0,,,0,FALSE,,,,,,,,,,,,,,,,,,,,,,,,,,,,,,,
,5ff0a3d22c2ee6fa5d47c312,627c6f59cf6652b27e05561f,2022-05-12_04h22.38.826,classification_task,2021.2.3,Win32,134.5351809,627c6715c52fd12f31907bcf,,,,,,,,,,,,,,,,,,,,,,,l,0,3.3869,"[""0.246"",""0.293"",""0.658"",""0.974""]","[1,0,1,1]",0,51,51,51,1,0,1,,,0,FALSE,,,,,,,,,,,,,,,,,,,,,,,,,,,,,,,
,5ff0a3d22c2ee6fa5d47c312,627c6f59cf6652b27e05561f,2022-05-12_04h22.38.826,classification_task,2021.2.3,Win32,134.5351809,627c6715c52fd12f31907bcf,,,,,,,,,,,,,,,,,,,,,,,l,0,1.8231,"[""0.195"",""0.565"",""0.888"",""0.295""]","[1,1,1,0]",0,52,52,52,1,0,0,,,0,FALSE,,,,,,,,,,,,,,,,,,,,,,,,,,,,,,,
,5ff0a3d22c2ee6fa5d47c312,627c6f59cf6652b27e05561f,2022-05-12_04h22.38.826,classification_task,2021.2.3,Win32,134.5351809,627c6715c52fd12f31907bcf,,,,,,,,,,,,,,,,,,,,,,,a,0,1.2368,"[""0.081"",""0.375"",""0.478"",""0.295""]","[1,1,1,0]",0,53,53,53,1,1,0,,,0,FALSE,,,,,,,,,,,,,,,,,,,,,,,,,,,,,,,
,5ff0a3d22c2ee6fa5d47c312,627c6f59cf6652b27e05561f,2022-05-12_04h22.38.826,classification_task,2021.2.3,Win32,134.5351809,627c6715c52fd12f31907bcf,,,,,,,,,,,,,,,,,,,,,,,a,0,2.4113,"[""0.783"",""0.414"",""0.524"",""0.701""]","[0,1,1,1]",0,54,54,54,1,1,1,,,0,FALSE,,,,,,,,,,,,,,,,,,,,,,,,,,,,,,,
,5ff0a3d22c2ee6fa5d47c312,627c6f59cf6652b27e05561f,2022-05-12_04h22.38.826,classification_task,2021.2.3,Win32,134.5351809,627c6715c52fd12f31907bcf,,,,,,,,,,,,,,,,,,,,,,,a,0,1.1756,"[""0.139"",""0.800"",""0.524"",""0.701""]","[1,0,1,1]",0,55,55,55,1,1,1,,,0,FALSE,,,,,,,,,,,,,,,,,,,,,,,,,,,,,,,
,5ff0a3d22c2ee6fa5d47c312,627c6f59cf6652b27e05561f,2022-05-12_04h22.38.826,classification_task,2021.2.3,Win32,134.5351809,627c6715c52fd12f31907bcf,,,,,,,,,,,,,,,,,,,,,,,l,1,1.2442,"[""0.081"",""0.375"",""0.783"",""0.748""]","[1,1,0,1]",0,56,56,56,1,1,0,,,0,FALSE,,,,,,,,,,,,,,,,,,,,,,,,,,,,,,,
,5ff0a3d22c2ee6fa5d47c312,627c6f59cf6652b27e05561f,2022-05-12_04h22.38.826,classification_task,2021.2.3,Win32,134.5351809,627c6715c52fd12f31907bcf,,,,,,,,,,,,,,,,,,,,,,,l,1,1.2502,"[""0.798"",""0.375"",""0.478"",""0.748""]","[0,1,1,1]",0,57,57,57,1,1,0,,,0,FALSE,,,,,,,,,,,,,,,,,,,,,,,,,,,,,,,
,5ff0a3d22c2ee6fa5d47c312,627c6f59cf6652b27e05561f,2022-05-12_04h22.38.826,classification_task,2021.2.3,Win32,134.5351809,627c6715c52fd12f31907bcf,,,,,,,,,,,,,,,,,,,,,,,l,0,1.7592,"[""0.246"",""0.334"",""0.658"",""0.293""]","[1,1,1,0]",0,58,58,58,1,0,1,,,0,FALSE,,,,,,,,,,,,,,,,,,,,,,,,,,,,,,,
,5ff0a3d22c2ee6fa5d47c312,627c6f59cf6652b27e05561f,2022-05-12_04h22.38.826,classification_task,2021.2.3,Win32,134.5351809,627c6715c52fd12f31907bcf,,,,,,,,,,,,,,,,,,,,,,,l,1,2.1253,"[""0.139"",""0.414"",""0.822"",""0.701""]","[1,1,0,1]",0,59,59,59,1,1,1,,,0,FALSE,,,,,,,,,,,,,,,,,,,,,,,,,,,,,,,
,5ff0a3d22c2ee6fa5d47c312,627c6f59cf6652b27e05561f,2022-05-12_04h22.38.826,classification_task,2021.2.3,Win32,134.5351809,627c6715c52fd12f31907bcf,,,,,,,,,,,,,,,,,,,,,,,a,1,1.5779,"[""0.846"",""0.565"",""0.888"",""0.939""]","[0,1,1,1]",0,60,60,60,1,0,0,,,0,FALSE,,,,,,,,,,,,,,,,,,,,,,,,,,,,,,,
,5ff0a3d22c2ee6fa5d47c312,627c6f59cf6652b27e05561f,2022-05-12_04h22.38.826,classification_task,2021.2.3,Win32,134.5351809,627c6715c52fd12f31907bcf,,,,,,,,,,,,,,,,,,,,,,,l,1,1.8876,"[""0.139"",""0.414"",""0.524"",""0.798""]","[1,1,1,0]",0,61,61,61,1,1,1,,,0,FALSE,,,,,,,,,,,,,,,,,,,,,,,,,,,,,,,
,5ff0a3d22c2ee6fa5d47c312,627c6f59cf6652b27e05561f,2022-05-12_04h22.38.826,classification_task,2021.2.3,Win32,134.5351809,627c6715c52fd12f31907bcf,,,,,,,,,,,,,,,,,,,,,,,a,0,1.4653,"[""0.081"",""0.798"",""0.478"",""0.748""]","[1,0,1,1]",0,62,62,62,1,1,0,,,0,FALSE,,,,,,,,,,,,,,,,,,,,,,,,,,,,,,,
,5ff0a3d22c2ee6fa5d47c312,627c6f59cf6652b27e05561f,2022-05-12_04h22.38.826,classification_task,2021.2.3,Win32,134.5351809,627c6715c52fd12f31907bcf,,,,,,,,,,,,,,,,,,,,,,,l,0,1.8635,"[""0.246"",""0.334"",""0.296"",""0.974""]","[1,1,0,1]",0,63,63,63,1,0,1,,,0,FALSE,,,,,,,,,,,,,,,,,,,,,,,,,,,,,,,
,5ff0a3d22c2ee6fa5d47c312,627c6f59cf6652b27e05561f,2022-05-12_04h22.38.826,classification_task,2021.2.3,Win32,134.5351809,627c6715c52fd12f31907bcf,,,,,,,,,,,,,,,,,,,,,,,,,,,,,,,,,,,,,,,0, ,,0,5.128600823,419.8267,0,0,0,0,1,2,1,,,,,,,,,,,,,,,,,,
,5ff0a3d22c2ee6fa5d47c312,627c6f59cf6652b27e05561f,2022-05-12_04h22.38.826,classification_task,2021.2.3,Win32,134.5351809,627c6715c52fd12f31907bcf,,,,,,,,,,,,,,,,,,,,,,,,,,,,,,,,,,,,,,,1,  ,,0,6.377865961,425.9591,0,0,0,0,1,2,1,,,,,,,,,,,,,,,,,,
,5ff0a3d22c2ee6fa5d47c312,627c6f59cf6652b27e05561f,2022-05-12_04h22.38.826,classification_task,2021.2.3,Win32,134.5351809,627c6715c52fd12f31907bcf,,,,,,,,,,,,,,,,,,,,,,,,,,,,,,,,,,,,,,,2,  ,,0,6.249265138,433.8176,0,0,0,0,1,2,1,,,,,,,,,,,,,,,,,,
,5ff0a3d22c2ee6fa5d47c312,627c6f59cf6652b27e05561f,2022-05-12_04h22.38.826,classification_task,2021.2.3,Win32,134.5351809,627c6715c52fd12f31907bcf,,,,,,,,,,,,,,,,,,,,,,,,,,,,,,,,,,,,,,,,,,,,,0,0,0,0,1,,1,,,,,,,,,,,,,,,,,,
,5ff0a3d22c2ee6fa5d47c312,627c6f59cf6652b27e05561f,2022-05-12_04h22.38.826,classification_task,2021.2.3,Win32,134.5351809,627c6715c52fd12f31907bcf,,,,,,,,,,,,,,,,,,,,,space,18.3492,a,0,4.5963,"[""0.139"",""0.414"",""0.524"",""0.835""]","[1,1,1,0]",0,0,0,0,1,1,1,,,0,FALSE,,,,,,,,,,,,,,,,,,,,,,,,,,,,,,,
,5ff0a3d22c2ee6fa5d47c312,627c6f59cf6652b27e05561f,2022-05-12_04h22.38.826,classification_task,2021.2.3,Win32,134.5351809,627c6715c52fd12f31907bcf,,,,,,,,,,,,,,,,,,,,,,,l,0,1.0912,"[""0.246"",""0.334"",""0.300"",""0.974""]","[1,1,0,1]",0,1,1,1,1,0,1,,,0,FALSE,,,,,,,,,,,,,,,,,,,,,,,,,,,,,,,
,5ff0a3d22c2ee6fa5d47c312,627c6f59cf6652b27e05561f,2022-05-12_04h22.38.826,classification_task,2021.2.3,Win32,134.5351809,627c6715c52fd12f31907bcf,,,,,,,,,,,,,,,,,,,,,,,l,1,1.0801,"[""0.139"",""0.798"",""0.524"",""0.701""]","[1,0,1,1]",0,2,2,2,1,1,1,,,0,FALSE,,,,,,,,,,,,,,,,,,,,,,,,,,,,,,,
,5ff0a3d22c2ee6fa5d47c312,627c6f59cf6652b27e05561f,2022-05-12_04h22.38.826,classification_task,2021.2.3,Win32,134.5351809,627c6715c52fd12f31907bcf,,,,,,,,,,,,,,,,,,,,,,,a,1,1.2525,"[""0.246"",""0.334"",""0.658"",""0.620""]","[1,1,1,0]",0,3,3,3,1,0,1,,,0,FALSE,,,,,,,,,,,,,,,,,,,,,,,,,,,,,,,
,5ff0a3d22c2ee6fa5d47c312,627c6f59cf6652b27e05561f,2022-05-12_04h22.38.826,classification_task,2021.2.3,Win32,134.5351809,627c6715c52fd12f31907bcf,,,,,,,,,,,,,,,,,,,,,,,l,0,1.7391,"[""0.195"",""0.565"",""0.888"",""0.791""]","[1,1,1,0]",0,4,4,4,1,0,0,,,0,FALSE,,,,,,,,,,,,,,,,,,,,,,,,,,,,,,,
,5ff0a3d22c2ee6fa5d47c312,627c6f59cf6652b27e05561f,2022-05-12_04h22.38.826,classification_task,2021.2.3,Win32,134.5351809,627c6715c52fd12f31907bcf,,,,,,,,,,,,,,,,,,,,,,,a,1,1.9559,"[""0.295"",""0.334"",""0.658"",""0.974""]","[0,1,1,1]",0,5,5,5,1,0,1,,,0,FALSE,,,,,,,,,,,,,,,,,,,,,,,,,,,,,,,
,5ff0a3d22c2ee6fa5d47c312,627c6f59cf6652b27e05561f,2022-05-12_04h22.38.826,classification_task,2021.2.3,Win32,134.5351809,627c6715c52fd12f31907bcf,,,,,,,,,,,,,,,,,,,,,,,l,1,1.2923,"[""0.295"",""0.375"",""0.478"",""0.748""]","[0,1,1,1]",0,6,6,6,1,1,0,,,0,FALSE,,,,,,,,,,,,,,,,,,,,,,,,,,,,,,,
,5ff0a3d22c2ee6fa5d47c312,627c6f59cf6652b27e05561f,2022-05-12_04h22.38.826,classification_task,2021.2.3,Win32,134.5351809,627c6715c52fd12f31907bcf,,,,,,,,,,,,,,,,,,,,,,,a,0,1.1642,"[""0.081"",""0.375"",""0.854"",""0.748""]","[1,1,0,1]",0,7,7,7,1,1,0,,,0,FALSE,,,,,,,,,,,,,,,,,,,,,,,,,,,,,,,
,5ff0a3d22c2ee6fa5d47c312,627c6f59cf6652b27e05561f,2022-05-12_04h22.38.826,classification_task,2021.2.3,Win32,134.5351809,627c6715c52fd12f31907bcf,,,,,,,,,,,,,,,,,,,,,,,a,0,1.2998,"[""0.081"",""0.375"",""0.478"",""0.822""]","[1,1,1,0]",0,8,8,8,1,1,0,,,0,FALSE,,,,,,,,,,,,,,,,,,,,,,,,,,,,,,,
,5ff0a3d22c2ee6fa5d47c312,627c6f59cf6652b27e05561f,2022-05-12_04h22.38.826,classification_task,2021.2.3,Win32,134.5351809,627c6715c52fd12f31907bcf,,,,,,,,,,,,,,,,,,,,,,,l,0,1.1683,"[""0.791"",""0.565"",""0.888"",""0.939""]","[0,1,1,1]",0,9,9,9,1,0,0,,,0,FALSE,,,,,,,,,,,,,,,,,,,,,,,,,,,,,,,
,5ff0a3d22c2ee6fa5d47c312,627c6f59cf6652b27e05561f,2022-05-12_04h22.38.826,classification_task,2021.2.3,Win32,134.5351809,627c6715c52fd12f31907bcf,,,,,,,,,,,,,,,,,,,,,,,l,1,1.2193,"[""0.854"",""0.414"",""0.524"",""0.701""]","[0,1,1,1]",0,10,10,10,1,1,1,,,0,FALSE,,,,,,,,,,,,,,,,,,,,,,,,,,,,,,,
,5ff0a3d22c2ee6fa5d47c312,627c6f59cf6652b27e05561f,2022-05-12_04h22.38.826,classification_task,2021.2.3,Win32,134.5351809,627c6715c52fd12f31907bcf,,,,,,,,,,,,,,,,,,,,,,,l,0,2.0628,"[""0.195"",""0.296"",""0.888"",""0.939""]","[1,0,1,1]",0,11,11,11,1,0,0,,,0,FALSE,,,,,,,,,,,,,,,,,,,,,,,,,,,,,,,
,5ff0a3d22c2ee6fa5d47c312,627c6f59cf6652b27e05561f,2022-05-12_04h22.38.826,classification_task,2021.2.3,Win32,134.5351809,627c6715c52fd12f31907bcf,,,,,,,,,,,,,,,,,,,,,,,a,1,2.8653,"[""0.246"",""0.293"",""0.658"",""0.974""]","[1,0,1,1]",0,12,12,12,1,0,1,,,0,FALSE,,,,,,,,,,,,,,,,,,,,,,,,,,,,,,,
,5ff0a3d22c2ee6fa5d47c312,627c6f59cf6652b27e05561f,2022-05-12_04h22.38.826,classification_task,2021.2.3,Win32,134.5351809,627c6715c52fd12f31907bcf,,,,,,,,,,,,,,,,,,,,,,,a,0,1.1805,"[""0.139"",""0.414"",""0.798"",""0.701""]","[1,1,0,1]",0,13,13,13,1,1,1,,,0,FALSE,,,,,,,,,,,,,,,,,,,,,,,,,,,,,,,
,5ff0a3d22c2ee6fa5d47c312,627c6f59cf6652b27e05561f,2022-05-12_04h22.38.826,classification_task,2021.2.3,Win32,134.5351809,627c6715c52fd12f31907bcf,,,,,,,,,,,,,,,,,,,,,,,a,1,0.9699,"[""0.195"",""0.565"",""0.854"",""0.939""]","[1,1,0,1]",0,14,14,14,1,0,0,,,0,FALSE,,,,,,,,,,,,,,,,,,,,,,,,,,,,,,,
,5ff0a3d22c2ee6fa5d47c312,627c6f59cf6652b27e05561f,2022-05-12_04h22.38.826,classification_task,2021.2.3,Win32,134.5351809,627c6715c52fd12f31907bcf,,,,,,,,,,,,,,,,,,,,,,,l,1,1.1734,"[""0.081"",""0.300"",""0.478"",""0.748""]","[1,0,1,1]",0,15,15,15,1,1,0,,,0,FALSE,,,,,,,,,,,,,,,,,,,,,,,,,,,,,,,
,5ff0a3d22c2ee6fa5d47c312,627c6f59cf6652b27e05561f,2022-05-12_04h22.38.826,classification_task,2021.2.3,Win32,134.5351809,627c6715c52fd12f31907bcf,,,,,,,,,,,,,,,,,,,,,,,a,0,1.4655,"[""0.139"",""0.041"",""0.524"",""0.701""]","[1,0,1,1]",0,16,16,16,1,1,1,,,0,FALSE,,,,,,,,,,,,,,,,,,,,,,,,,,,,,,,
,5ff0a3d22c2ee6fa5d47c312,627c6f59cf6652b27e05561f,2022-05-12_04h22.38.826,classification_task,2021.2.3,Win32,134.5351809,627c6715c52fd12f31907bcf,,,,,,,,,,,,,,,,,,,,,,,l,0,1.257,"[""0.195"",""0.565"",""0.888"",""0.800""]","[1,1,1,0]",0,17,17,17,1,0,0,,,0,FALSE,,,,,,,,,,,,,,,,,,,,,,,,,,,,,,,
,5ff0a3d22c2ee6fa5d47c312,627c6f59cf6652b27e05561f,2022-05-12_04h22.38.826,classification_task,2021.2.3,Win32,134.5351809,627c6715c52fd12f31907bcf,,,,,,,,,,,,,,,,,,,,,,,l,1,2.2224,"[""0.139"",""0.414"",""0.805"",""0.701""]","[1,1,0,1]",0,18,18,18,1,1,1,,,0,FALSE,,,,,,,,,,,,,,,,,,,,,,,,,,,,,,,
,5ff0a3d22c2ee6fa5d47c312,627c6f59cf6652b27e05561f,2022-05-12_04h22.38.826,classification_task,2021.2.3,Win32,134.5351809,627c6715c52fd12f31907bcf,,,,,,,,,,,,,,,,,,,,,,,a,0,1.1468,"[""0.081"",""0.375"",""0.620"",""0.748""]","[1,1,0,1]",0,19,19,19,1,1,0,,,0,FALSE,,,,,,,,,,,,,,,,,,,,,,,,,,,,,,,
,5ff0a3d22c2ee6fa5d47c312,627c6f59cf6652b27e05561f,2022-05-12_04h22.38.826,classification_task,2021.2.3,Win32,134.5351809,627c6715c52fd12f31907bcf,,,,,,,,,,,,,,,,,,,,,,,a,0,1.3621,"[""0.081"",""0.375"",""0.478"",""0.846""]","[1,1,1,0]",0,20,20,20,1,1,0,,,0,FALSE,,,,,,,,,,,,,,,,,,,,,,,,,,,,,,,
,5ff0a3d22c2ee6fa5d47c312,627c6f59cf6652b27e05561f,2022-05-12_04h22.38.826,classification_task,2021.2.3,Win32,134.5351809,627c6715c52fd12f31907bcf,,,,,,,,,,,,,,,,,,,,,,,l,0,1.7517,"[""0.246"",""0.334"",""0.658"",""0.798""]","[1,1,1,0]",0,21,21,21,1,0,1,,,0,FALSE,,,,,,,,,,,,,,,,,,,,,,,,,,,,,,,
,5ff0a3d22c2ee6fa5d47c312,627c6f59cf6652b27e05561f,2022-05-12_04h22.38.826,classification_task,2021.2.3,Win32,134.5351809,627c6715c52fd12f31907bcf,,,,,,,,,,,,,,,,,,,,,,,l,1,1.4187,"[""0.139"",""0.414"",""0.524"",""0.798""]","[1,1,1,0]",0,22,22,22,1,1,1,,,0,FALSE,,,,,,,,,,,,,,,,,,,,,,,,,,,,,,,
,5ff0a3d22c2ee6fa5d47c312,627c6f59cf6652b27e05561f,2022-05-12_04h22.38.826,classification_task,2021.2.3,Win32,134.5351809,627c6715c52fd12f31907bcf,,,,,,,,,,,,,,,,,,,,,,,l,0,1.8747,"[""0.041"",""0.565"",""0.888"",""0.939""]","[0,1,1,1]",0,23,23,23,1,0,0,,,0,FALSE,,,,,,,,,,,,,,,,,,,,,,,,,,,,,,,
,5ff0a3d22c2ee6fa5d47c312,627c6f59cf6652b27e05561f,2022-05-12_04h22.38.826,classification_task,2021.2.3,Win32,134.5351809,627c6715c52fd12f31907bcf,,,,,,,,,,,,,,,,,,,,,,,l,0,2.7143,"[""0.800"",""0.334"",""0.658"",""0.974""]","[0,1,1,1]",0,24,24,24,1,0,1,,,0,FALSE,,,,,,,,,,,,,,,,,,,,,,,,,,,,,,,
,5ff0a3d22c2ee6fa5d47c312,627c6f59cf6652b27e05561f,2022-05-12_04h22.38.826,classification_task,2021.2.3,Win32,134.5351809,627c6715c52fd12f31907bcf,,,,,,,,,,,,,,,,,,,,,,,a,0,2.3116,"[""0.296"",""0.375"",""0.478"",""0.748""]","[0,1,1,1]",0,25,25,25,1,1,0,,,0,FALSE,,,,,,,,,,,,,,,,,,,,,,,,,,,,,,,
,5ff0a3d22c2ee6fa5d47c312,627c6f59cf6652b27e05561f,2022-05-12_04h22.38.826,classification_task,2021.2.3,Win32,134.5351809,627c6715c52fd12f31907bcf,,,,,,,,,,,,,,,,,,,,,,,a,0,1.0462,"[""0.081"",""0.798"",""0.478"",""0.748""]","[1,0,1,1]",0,26,26,26,1,1,0,,,0,FALSE,,,,,,,,,,,,,,,,,,,,,,,,,,,,,,,
,5ff0a3d22c2ee6fa5d47c312,627c6f59cf6652b27e05561f,2022-05-12_04h22.38.826,classification_task,2021.2.3,Win32,134.5351809,627c6715c52fd12f31907bcf,,,,,,,,,,,,,,,,,,,,,,,l,0,1.501,"[""0.195"",""0.565"",""0.835"",""0.939""]","[1,1,0,1]",0,27,27,27,1,0,0,,,0,FALSE,,,,,,,,,,,,,,,,,,,,,,,,,,,,,,,
,5ff0a3d22c2ee6fa5d47c312,627c6f59cf6652b27e05561f,2022-05-12_04h22.38.826,classification_task,2021.2.3,Win32,134.5351809,627c6715c52fd12f31907bcf,,,,,,,,,,,,,,,,,,,,,,,l,1,1.4359,"[""0.296"",""0.414"",""0.524"",""0.701""]","[0,1,1,1]",0,28,28,28,1,1,1,,,0,FALSE,,,,,,,,,,,,,,,,,,,,,,,,,,,,,,,
,5ff0a3d22c2ee6fa5d47c312,627c6f59cf6652b27e05561f,2022-05-12_04h22.38.826,classification_task,2021.2.3,Win32,134.5351809,627c6715c52fd12f31907bcf,,,,,,,,,,,,,,,,,,,,,,,l,0,2.549,"[""0.195"",""0.805"",""0.888"",""0.939""]","[1,0,1,1]",0,29,29,29,1,0,0,,,0,FALSE,,,,,,,,,,,,,,,,,,,,,,,,,,,,,,,
,5ff0a3d22c2ee6fa5d47c312,627c6f59cf6652b27e05561f,2022-05-12_04h22.38.826,classification_task,2021.2.3,Win32,134.5351809,627c6715c52fd12f31907bcf,,,,,,,,,,,,,,,,,,,,,,,l,0,0.9386,"[""0.246"",""0.334"",""0.296"",""0.974""]","[1,1,0,1]",0,30,30,30,1,0,1,,,0,FALSE,,,,,,,,,,,,,,,,,,,,,,,,,,,,,,,
,5ff0a3d22c2ee6fa5d47c312,627c6f59cf6652b27e05561f,2022-05-12_04h22.38.826,classification_task,2021.2.3,Win32,134.5351809,627c6715c52fd12f31907bcf,,,,,,,,,,,,,,,,,,,,,,,a,1,0.793,"[""0.246"",""0.822"",""0.658"",""0.974""]","[1,0,1,1]",0,31,31,31,1,0,1,,,0,FALSE,,,,,,,,,,,,,,,,,,,,,,,,,,,,,,,
,5ff0a3d22c2ee6fa5d47c312,627c6f59cf6652b27e05561f,2022-05-12_04h22.38.826,classification_task,2021.2.3,Win32,134.5351809,627c6715c52fd12f31907bcf,,,,,,,,,,,,,,,,,,,,,,,a,1,1.3541,"[""0.195"",""0.565"",""0.783"",""0.939""]","[1,1,0,1]",0,32,32,32,1,0,0,,,0,FALSE,,,,,,,,,,,,,,,,,,,,,,,,,,,,,,,
,5ff0a3d22c2ee6fa5d47c312,627c6f59cf6652b27e05561f,2022-05-12_04h22.38.826,classification_task,2021.2.3,Win32,134.5351809,627c6715c52fd12f31907bcf,,,,,,,,,,,,,,,,,,,,,,,a,1,1.0558,"[""0.246"",""0.822"",""0.658"",""0.974""]","[1,0,1,1]",0,33,33,33,1,0,1,,,0,FALSE,,,,,,,,,,,,,,,,,,,,,,,,,,,,,,,
,5ff0a3d22c2ee6fa5d47c312,627c6f59cf6652b27e05561f,2022-05-12_04h22.38.826,classification_task,2021.2.3,Win32,134.5351809,627c6715c52fd12f31907bcf,,,,,,,,,,,,,,,,,,,,,,,l,0,1.0094,"[""0.295"",""0.565"",""0.888"",""0.939""]","[0,1,1,1]",0,34,34,34,1,0,0,,,0,FALSE,,,,,,,,,,,,,,,,,,,,,,,,,,,,,,,
,5ff0a3d22c2ee6fa5d47c312,627c6f59cf6652b27e05561f,2022-05-12_04h22.38.826,classification_task,2021.2.3,Win32,134.5351809,627c6715c52fd12f31907bcf,,,,,,,,,,,,,,,,,,,,,,,a,0,0.8261,"[""0.139"",""0.620"",""0.524"",""0.701""]","[1,0,1,1]",0,35,35,35,1,1,1,,,0,FALSE,,,,,,,,,,,,,,,,,,,,,,,,,,,,,,,
,5ff0a3d22c2ee6fa5d47c312,627c6f59cf6652b27e05561f,2022-05-12_04h22.38.826,classification_task,2021.2.3,Win32,134.5351809,627c6715c52fd12f31907bcf,,,,,,,,,,,,,,,,,,,,,,,l,0,1.074,"[""0.246"",""0.334"",""0.658"",""0.791""]","[1,1,1,0]",0,36,36,36,1,0,1,,,0,FALSE,,,,,,,,,,,,,,,,,,,,,,,,,,,,,,,
,5ff0a3d22c2ee6fa5d47c312,627c6f59cf6652b27e05561f,2022-05-12_04h22.38.826,classification_task,2021.2.3,Win32,134.5351809,627c6715c52fd12f31907bcf,,,,,,,,,,,,,,,,,,,,,,,a,0,1.8209,"[""0.139"",""0.414"",""0.524"",""0.797""]","[1,1,1,0]",0,37,37,37,1,1,1,,,0,FALSE,,,,,,,,,,,,,,,,,,,,,,,,,,,,,,,
,5ff0a3d22c2ee6fa5d47c312,627c6f59cf6652b27e05561f,2022-05-12_04h22.38.826,classification_task,2021.2.3,Win32,134.5351809,627c6715c52fd12f31907bcf,,,,,,,,,,,,,,,,,,,,,,,l,0,1.3362,"[""0.195"",""0.565"",""0.888"",""0.835""]","[1,1,1,0]",0,38,38,38,1,0,0,,,0,FALSE,,,,,,,,,,,,,,,,,,,,,,,,,,,,,,,
,5ff0a3d22c2ee6fa5d47c312,627c6f59cf6652b27e05561f,2022-05-12_04h22.38.826,classification_task,2021.2.3,Win32,134.5351809,627c6715c52fd12f31907bcf,,,,,,,,,,,,,,,,,,,,,,,l,1,1.4231,"[""0.791"",""0.414"",""0.524"",""0.701""]","[0,1,1,1]",0,39,39,39,1,1,1,,,0,FALSE,,,,,,,,,,,,,,,,,,,,,,,,,,,,,,,
,5ff0a3d22c2ee6fa5d47c312,627c6f59cf6652b27e05561f,2022-05-12_04h22.38.826,classification_task,2021.2.3,Win32,134.5351809,627c6715c52fd12f31907bcf,,,,,,,,,,,,,,,,,,,,,,,a,1,1.5445,"[""0.195"",""0.620"",""0.888"",""0.939""]","[1,0,1,1]",0,40,40,40,1,0,0,,,0,FALSE,,,,,,,,,,,,,,,,,,,,,,,,,,,,,,,
,5ff0a3d22c2ee6fa5d47c312,627c6f59cf6652b27e05561f,2022-05-12_04h22.38.826,classification_task,2021.2.3,Win32,134.5351809,627c6715c52fd12f31907bcf,,,,,,,,,,,,,,,,,,,,,,,a,1,1.1224,"[""0.246"",""0.334"",""0.798"",""0.974""]","[1,1,0,1]",0,41,41,41,1,0,1,,,0,FALSE,,,,,,,,,,,,,,,,,,,,,,,,,,,,,,,
,5ff0a3d22c2ee6fa5d47c312,627c6f59cf6652b27e05561f,2022-05-12_04h22.38.826,classification_task,2021.2.3,Win32,134.5351809,627c6715c52fd12f31907bcf,,,,,,,,,,,,,,,,,,,,,,,l,1,1.0777,"[""0.822"",""0.375"",""0.478"",""0.748""]","[0,1,1,1]",0,42,42,42,1,1,0,,,0,FALSE,,,,,,,,,,,,,,,,,,,,,,,,,,,,,,,
,5ff0a3d22c2ee6fa5d47c312,627c6f59cf6652b27e05561f,2022-05-12_04h22.38.826,classification_task,2021.2.3,Win32,134.5351809,627c6715c52fd12f31907bcf,,,,,,,,,,,,,,,,,,,,,,,a,0,1.0174,"[""0.081"",""0.375"",""0.041"",""0.748""]","[1,1,0,1]",0,43,43,43,1,1,0,,,0,FALSE,,,,,,,,,,,,,,,,,,,,,,,,,,,,,,,
,5ff0a3d22c2ee6fa5d47c312,627c6f59cf6652b27e05561f,2022-05-12_04h22.38.826,classification_task,2021.2.3,Win32,134.5351809,627c6715c52fd12f31907bcf,,,,,,,,,,,,,,,,,,,,,,,l,1,2.0763,"[""0.139"",""0.414"",""0.797"",""0.701""]","[1,1,0,1]",0,44,44,44,1,1,1,,,0,FALSE,,,,,,,,,,,,,,,,,,,,,,,,,,,,,,,
,5ff0a3d22c2ee6fa5d47c312,627c6f59cf6652b27e05561f,2022-05-12_04h22.38.826,classification_task,2021.2.3,Win32,134.5351809,627c6715c52fd12f31907bcf,,,,,,,,,,,,,,,,,,,,,,,l,1,1.5282,"[""0.081"",""0.375"",""0.478"",""0.805""]","[1,1,1,0]",0,45,45,45,1,1,0,,,0,FALSE,,,,,,,,,,,,,,,,,,,,,,,,,,,,,,,
,5ff0a3d22c2ee6fa5d47c312,627c6f59cf6652b27e05561f,2022-05-12_04h22.38.826,classification_task,2021.2.3,Win32,134.5351809,627c6715c52fd12f31907bcf,,,,,,,,,,,,,,,,,,,,,,,l,1,1.2511,"[""0.081"",""0.822"",""0.478"",""0.748""]","[1,0,1,1]",0,46,46,46,1,1,0,,,0,FALSE,,,,,,,,,,,,,,,,,,,,,,,,,,,,,,,
,5ff0a3d22c2ee6fa5d47c312,627c6f59cf6652b27e05561f,2022-05-12_04h22.38.826,classification_task,2021.2.3,Win32,134.5351809,627c6715c52fd12f31907bcf,,,,,,,,,,,,,,,,,,,,,,,l,0,1.0355,"[""0.295"",""0.334"",""0.658"",""0.974""]","[0,1,1,1]",0,47,47,47,1,0,1,,,0,FALSE,,,,,,,,,,,,,,,,,,,,,,,,,,,,,,,
,5ff0a3d22c2ee6fa5d47c312,627c6f59cf6652b27e05561f,2022-05-12_04h22.38.826,classification_task,2021.2.3,Win32,134.5351809,627c6715c52fd12f31907bcf,,,,,,,,,,,,,,,,,,,,,,,l,1,1.0212,"[""0.081"",""0.375"",""0.620"",""0.748""]","[1,1,0,1]",0,48,48,48,1,1,0,,,0,FALSE,,,,,,,,,,,,,,,,,,,,,,,,,,,,,,,
,5ff0a3d22c2ee6fa5d47c312,627c6f59cf6652b27e05561f,2022-05-12_04h22.38.826,classification_task,2021.2.3,Win32,134.5351809,627c6715c52fd12f31907bcf,,,,,,,,,,,,,,,,,,,,,,,l,0,1.1801,"[""0.783"",""0.565"",""0.888"",""0.939""]","[0,1,1,1]",0,49,49,49,1,0,0,,,0,FALSE,,,,,,,,,,,,,,,,,,,,,,,,,,,,,,,
,5ff0a3d22c2ee6fa5d47c312,627c6f59cf6652b27e05561f,2022-05-12_04h22.38.826,classification_task,2021.2.3,Win32,134.5351809,627c6715c52fd12f31907bcf,,,,,,,,,,,,,,,,,,,,,,,l,1,2.1594,"[""0.139"",""0.835"",""0.524"",""0.701""]","[1,0,1,1]",0,50,50,50,1,1,1,,,0,FALSE,,,,,,,,,,,,,,,,,,,,,,,,,,,,,,,
,5ff0a3d22c2ee6fa5d47c312,627c6f59cf6652b27e05561f,2022-05-12_04h22.38.826,classification_task,2021.2.3,Win32,134.5351809,627c6715c52fd12f31907bcf,,,,,,,,,,,,,,,,,,,,,,,a,1,0.9619,"[""0.246"",""0.334"",""0.296"",""0.974""]","[1,1,0,1]",0,51,51,51,1,0,1,,,0,FALSE,,,,,,,,,,,,,,,,,,,,,,,,,,,,,,,
,5ff0a3d22c2ee6fa5d47c312,627c6f59cf6652b27e05561f,2022-05-12_04h22.38.826,classification_task,2021.2.3,Win32,134.5351809,627c6715c52fd12f31907bcf,,,,,,,,,,,,,,,,,,,,,,,l,0,0.9786,"[""0.246"",""0.334"",""0.658"",""0.783""]","[1,1,1,0]",0,52,52,52,1,0,1,,,0,FALSE,,,,,,,,,,,,,,,,,,,,,,,,,,,,,,,
,5ff0a3d22c2ee6fa5d47c312,627c6f59cf6652b27e05561f,2022-05-12_04h22.38.826,classification_task,2021.2.3,Win32,134.5351809,627c6715c52fd12f31907bcf,,,,,,,,,,,,,,,,,,,,,,,l,1,1.545,"[""0.139"",""0.414"",""0.524"",""0.300""]","[1,1,1,0]",0,53,53,53,1,1,1,,,0,FALSE,,,,,,,,,,,,,,,,,,,,,,,,,,,,,,,
,5ff0a3d22c2ee6fa5d47c312,627c6f59cf6652b27e05561f,2022-05-12_04h22.38.826,classification_task,2021.2.3,Win32,134.5351809,627c6715c52fd12f31907bcf,,,,,,,,,,,,,,,,,,,,,,,l,1,1.3633,"[""0.081"",""0.375"",""0.478"",""0.791""]","[1,1,1,0]",0,54,54,54,1,1,0,,,0,FALSE,,,,,,,,,,,,,,,,,,,,,,,,,,,,,,,
,5ff0a3d22c2ee6fa5d47c312,627c6f59cf6652b27e05561f,2022-05-12_04h22.38.826,classification_task,2021.2.3,Win32,134.5351809,627c6715c52fd12f31907bcf,,,,,,,,,,,,,,,,,,,,,,,l,1,0.932,"[""0.783"",""0.375"",""0.478"",""0.748""]","[0,1,1,1]",0,55,55,55,1,1,0,,,0,FALSE,,,,,,,,,,,,,,,,,,,,,,,,,,,,,,,
,5ff0a3d22c2ee6fa5d47c312,627c6f59cf6652b27e05561f,2022-05-12_04h22.38.826,classification_task,2021.2.3,Win32,134.5351809,627c6715c52fd12f31907bcf,,,,,,,,,,,,,,,,,,,,,,,l,1,0.9357,"[""0.081"",""0.300"",""0.478"",""0.748""]","[1,0,1,1]",0,56,56,56,1,1,0,,,0,FALSE,,,,,,,,,,,,,,,,,,,,,,,,,,,,,,,
,5ff0a3d22c2ee6fa5d47c312,627c6f59cf6652b27e05561f,2022-05-12_04h22.38.826,classification_task,2021.2.3,Win32,134.5351809,627c6715c52fd12f31907bcf,,,,,,,,,,,,,,,,,,,,,,,a,1,1.6732,"[""0.783"",""0.334"",""0.658"",""0.974""]","[0,1,1,1]",0,57,57,57,1,0,1,,,0,FALSE,,,,,,,,,,,,,,,,,,,,,,,,,,,,,,,
,5ff0a3d22c2ee6fa5d47c312,627c6f59cf6652b27e05561f,2022-05-12_04h22.38.826,classification_task,2021.2.3,Win32,134.5351809,627c6715c52fd12f31907bcf,,,,,,,,,,,,,,,,,,,,,,,a,1,1.1529,"[""0.246"",""0.797"",""0.658"",""0.974""]","[1,0,1,1]",0,58,58,58,1,0,1,,,0,FALSE,,,,,,,,,,,,,,,,,,,,,,,,,,,,,,,
,5ff0a3d22c2ee6fa5d47c312,627c6f59cf6652b27e05561f,2022-05-12_04h22.38.826,classification_task,2021.2.3,Win32,134.5351809,627c6715c52fd12f31907bcf,,,,,,,,,,,,,,,,,,,,,,,l,0,1.0235,"[""0.195"",""0.565"",""0.797"",""0.939""]","[1,1,0,1]",0,59,59,59,1,0,0,,,0,FALSE,,,,,,,,,,,,,,,,,,,,,,,,,,,,,,,
,5ff0a3d22c2ee6fa5d47c312,627c6f59cf6652b27e05561f,2022-05-12_04h22.38.826,classification_task,2021.2.3,Win32,134.5351809,627c6715c52fd12f31907bcf,,,,,,,,,,,,,,,,,,,,,,,l,0,1.4582,"[""0.195"",""0.565"",""0.888"",""0.800""]","[1,1,1,0]",0,60,60,60,1,0,0,,,0,FALSE,,,,,,,,,,,,,,,,,,,,,,,,,,,,,,,
,5ff0a3d22c2ee6fa5d47c312,627c6f59cf6652b27e05561f,2022-05-12_04h22.38.826,classification_task,2021.2.3,Win32,134.5351809,627c6715c52fd12f31907bcf,,,,,,,,,,,,,,,,,,,,,,,a,0,1.0035,"[""0.139"",""0.414"",""0.791"",""0.701""]","[1,1,0,1]",0,61,61,61,1,1,1,,,0,FALSE,,,,,,,,,,,,,,,,,,,,,,,,,,,,,,,
,5ff0a3d22c2ee6fa5d47c312,627c6f59cf6652b27e05561f,2022-05-12_04h22.38.826,classification_task,2021.2.3,Win32,134.5351809,627c6715c52fd12f31907bcf,,,,,,,,,,,,,,,,,,,,,,,l,1,1.3779,"[""0.293"",""0.414"",""0.524"",""0.701""]","[0,1,1,1]",0,62,62,62,1,1,1,,,0,FALSE,,,,,,,,,,,,,,,,,,,,,,,,,,,,,,,
,5ff0a3d22c2ee6fa5d47c312,627c6f59cf6652b27e05561f,2022-05-12_04h22.38.826,classification_task,2021.2.3,Win32,134.5351809,627c6715c52fd12f31907bcf,,,,,,,,,,,,,,,,,,,,,,,l,0,1.4525,"[""0.195"",""0.797"",""0.888"",""0.939""]","[1,0,1,1]",0,63,63,63,1,0,0,,,0,FALSE,,,,,,,,,,,,,,,,,,,,,,,,,,,,,,,
,5ff0a3d22c2ee6fa5d47c312,627c6f59cf6652b27e05561f,2022-05-12_04h22.38.826,classification_task,2021.2.3,Win32,134.5351809,627c6715c52fd12f31907bcf,,,,,,,,,,,,,,,,,,,,,,,,,,,,,,,,,,,,,,,0, ,,0,6.690182246,181.9291,0,1,1,1,1,2,2,,,,,,,,,,,,,,,,,,
,5ff0a3d22c2ee6fa5d47c312,627c6f59cf6652b27e05561f,2022-05-12_04h22.38.826,classification_task,2021.2.3,Win32,134.5351809,627c6715c52fd12f31907bcf,,,,,,,,,,,,,,,,,,,,,,,,,,,,,,,,,,,,,,,1,  ,,0,6.690182246,182.7926,0,1,1,1,1,2,2,,,,,,,,,,,,,,,,,,
,5ff0a3d22c2ee6fa5d47c312,627c6f59cf6652b27e05561f,2022-05-12_04h22.38.826,classification_task,2021.2.3,Win32,134.5351809,627c6715c52fd12f31907bcf,,,,,,,,,,,,,,,,,,,,,,,,,,,,,,,,,,,,,,,2,  ,,0,6.76366843,184.2765,0,1,1,1,1,2,2,,,,,,,,,,,,,,,,,,
,5ff0a3d22c2ee6fa5d47c312,627c6f59cf6652b27e05561f,2022-05-12_04h22.38.826,classification_task,2021.2.3,Win32,134.5351809,627c6715c52fd12f31907bcf,,,,,,,,,,,,,,,,,,,,,,,,,,,,,,,,,,,,,,,,,,,,,0,1,1,1,1,,2,,,,,,,,,,,,,,,,,,
,5ff0a3d22c2ee6fa5d47c312,627c6f59cf6652b27e05561f,2022-05-12_04h22.38.826,classification_task,2021.2.3,Win32,134.5351809,627c6715c52fd12f31907bcf,,,,,,,,,,,,,,,,,,,,,space,9.7807,a,1,5.6599,"[""0.195"",""0.565"",""0.791"",""0.939""]","[1,1,0,1]",0,0,0,0,1,0,0,,,0,FALSE,,,,,,,,,,,,,,,,,,,,,,,,,,,,,,,
,5ff0a3d22c2ee6fa5d47c312,627c6f59cf6652b27e05561f,2022-05-12_04h22.38.826,classification_task,2021.2.3,Win32,134.5351809,627c6715c52fd12f31907bcf,,,,,,,,,,,,,,,,,,,,,,,l,1,2.178,"[""0.800"",""0.414"",""0.524"",""0.701""]","[0,1,1,1]",0,1,1,1,1,1,1,,,0,FALSE,,,,,,,,,,,,,,,,,,,,,,,,,,,,,,,
,5ff0a3d22c2ee6fa5d47c312,627c6f59cf6652b27e05561f,2022-05-12_04h22.38.826,classification_task,2021.2.3,Win32,134.5351809,627c6715c52fd12f31907bcf,,,,,,,,,,,,,,,,,,,,,,,a,1,1.5806,"[""0.246"",""0.805"",""0.658"",""0.974""]","[1,0,1,1]",0,2,2,2,1,0,1,,,0,FALSE,,,,,,,,,,,,,,,,,,,,,,,,,,,,,,,
,5ff0a3d22c2ee6fa5d47c312,627c6f59cf6652b27e05561f,2022-05-12_04h22.38.826,classification_task,2021.2.3,Win32,134.5351809,627c6715c52fd12f31907bcf,,,,,,,,,,,,,,,,,,,,,,,l,0,1.783,"[""0.246"",""0.334"",""0.658"",""0.791""]","[1,1,1,0]",0,3,3,3,1,0,1,,,0,FALSE,,,,,,,,,,,,,,,,,,,,,,,,,,,,,,,
,5ff0a3d22c2ee6fa5d47c312,627c6f59cf6652b27e05561f,2022-05-12_04h22.38.826,classification_task,2021.2.3,Win32,134.5351809,627c6715c52fd12f31907bcf,,,,,,,,,,,,,,,,,,,,,,,l,1,0.9407,"[""0.139"",""0.414"",""0.524"",""0.822""]","[1,1,1,0]",0,4,4,4,1,1,1,,,0,FALSE,,,,,,,,,,,,,,,,,,,,,,,,,,,,,,,
,5ff0a3d22c2ee6fa5d47c312,627c6f59cf6652b27e05561f,2022-05-12_04h22.38.826,classification_task,2021.2.3,Win32,134.5351809,627c6715c52fd12f31907bcf,,,,,,,,,,,,,,,,,,,,,,,a,1,1.0991,"[""0.195"",""0.835"",""0.888"",""0.939""]","[1,0,1,1]",0,5,5,5,1,0,0,,,0,FALSE,,,,,,,,,,,,,,,,,,,,,,,,,,,,,,,
,5ff0a3d22c2ee6fa5d47c312,627c6f59cf6652b27e05561f,2022-05-12_04h22.38.826,classification_task,2021.2.3,Win32,134.5351809,627c6715c52fd12f31907bcf,,,,,,,,,,,,,,,,,,,,,,,a,0,1.2843,"[""0.081"",""0.375"",""0.791"",""0.748""]","[1,1,0,1]",0,6,6,6,1,1,0,,,0,FALSE,,,,,,,,,,,,,,,,,,,,,,,,,,,,,,,
,5ff0a3d22c2ee6fa5d47c312,627c6f59cf6652b27e05561f,2022-05-12_04h22.38.826,classification_task,2021.2.3,Win32,134.5351809,627c6715c52fd12f31907bcf,,,,,,,,,,,,,,,,,,,,,,,l,0,1.2956,"[""0.797"",""0.565"",""0.888"",""0.939""]","[0,1,1,1]",0,7,7,7,1,0,0,,,0,FALSE,,,,,,,,,,,,,,,,,,,,,,,,,,,,,,,
,5ff0a3d22c2ee6fa5d47c312,627c6f59cf6652b27e05561f,2022-05-12_04h22.38.826,classification_task,2021.2.3,Win32,134.5351809,627c6715c52fd12f31907bcf,,,,,,,,,,,,,,,,,,,,,,,l,1,1.0137,"[""0.081"",""0.375"",""0.478"",""0.293""]","[1,1,1,0]",0,8,8,8,1,1,0,,,0,FALSE,,,,,,,,,,,,,,,,,,,,,,,,,,,,,,,
,5ff0a3d22c2ee6fa5d47c312,627c6f59cf6652b27e05561f,2022-05-12_04h22.38.826,classification_task,2021.2.3,Win32,134.5351809,627c6715c52fd12f31907bcf,,,,,,,,,,,,,,,,,,,,,,,l,1,0.7028,"[""0.081"",""0.296"",""0.478"",""0.748""]","[1,0,1,1]",0,9,9,9,1,1,0,,,0,FALSE,,,,,,,,,,,,,,,,,,,,,,,,,,,,,,,
,5ff0a3d22c2ee6fa5d47c312,627c6f59cf6652b27e05561f,2022-05-12_04h22.38.826,classification_task,2021.2.3,Win32,134.5351809,627c6715c52fd12f31907bcf,,,,,,,,,,,,,,,,,,,,,,,l,1,0.6822,"[""0.854"",""0.375"",""0.478"",""0.748""]","[0,1,1,1]",0,10,10,10,1,1,0,,,0,FALSE,,,,,,,,,,,,,,,,,,,,,,,,,,,,,,,
,5ff0a3d22c2ee6fa5d47c312,627c6f59cf6652b27e05561f,2022-05-12_04h22.38.826,classification_task,2021.2.3,Win32,134.5351809,627c6715c52fd12f31907bcf,,,,,,,,,,,,,,,,,,,,,,,a,1,1.1383,"[""0.800"",""0.334"",""0.658"",""0.974""]","[0,1,1,1]",0,11,11,11,1,0,1,,,0,FALSE,,,,,,,,,,,,,,,,,,,,,,,,,,,,,,,
,5ff0a3d22c2ee6fa5d47c312,627c6f59cf6652b27e05561f,2022-05-12_04h22.38.826,classification_task,2021.2.3,Win32,134.5351809,627c6715c52fd12f31907bcf,,,,,,,,,,,,,,,,,,,,,,,a,0,1.7127,"[""0.139"",""0.822"",""0.524"",""0.701""]","[1,0,1,1]",0,12,12,12,1,1,1,,,0,FALSE,,,,,,,,,,,,,,,,,,,,,,,,,,,,,,,
,5ff0a3d22c2ee6fa5d47c312,627c6f59cf6652b27e05561f,2022-05-12_04h22.38.826,classification_task,2021.2.3,Win32,134.5351809,627c6715c52fd12f31907bcf,,,,,,,,,,,,,,,,,,,,,,,a,1,1.0863,"[""0.246"",""0.334"",""0.296"",""0.974""]","[1,1,0,1]",0,13,13,13,1,0,1,,,0,FALSE,,,,,,,,,,,,,,,,,,,,,,,,,,,,,,,
,5ff0a3d22c2ee6fa5d47c312,627c6f59cf6652b27e05561f,2022-05-12_04h22.38.826,classification_task,2021.2.3,Win32,134.5351809,627c6715c52fd12f31907bcf,,,,,,,,,,,,,,,,,,,,,,,l,1,0.6981,"[""0.139"",""0.414"",""0.783"",""0.701""]","[1,1,0,1]",0,14,14,14,1,1,1,,,0,FALSE,,,,,,,,,,,,,,,,,,,,,,,,,,,,,,,
,5ff0a3d22c2ee6fa5d47c312,627c6f59cf6652b27e05561f,2022-05-12_04h22.38.826,classification_task,2021.2.3,Win32,134.5351809,627c6715c52fd12f31907bcf,,,,,,,,,,,,,,,,,,,,,,,l,0,1.3327,"[""0.195"",""0.565"",""0.888"",""0.846""]","[1,1,1,0]",0,15,15,15,1,0,0,,,0,FALSE,,,,,,,,,,,,,,,,,,,,,,,,,,,,,,,
,5ff0a3d22c2ee6fa5d47c312,627c6f59cf6652b27e05561f,2022-05-12_04h22.38.826,classification_task,2021.2.3,Win32,134.5351809,627c6715c52fd12f31907bcf,,,,,,,,,,,,,,,,,,,,,,,l,1,0.8831,"[""0.139"",""0.620"",""0.524"",""0.701""]","[1,0,1,1]",0,16,16,16,1,1,1,,,0,FALSE,,,,,,,,,,,,,,,,,,,,,,,,,,,,,,,
,5ff0a3d22c2ee6fa5d47c312,627c6f59cf6652b27e05561f,2022-05-12_04h22.38.826,classification_task,2021.2.3,Win32,134.5351809,627c6715c52fd12f31907bcf,,,,,,,,,,,,,,,,,,,,,,,l,1,1.2646,"[""0.081"",""0.375"",""0.478"",""0.800""]","[1,1,1,0]",0,17,17,17,1,1,0,,,0,FALSE,,,,,,,,,,,,,,,,,,,,,,,,,,,,,,,
,5ff0a3d22c2ee6fa5d47c312,627c6f59cf6652b27e05561f,2022-05-12_04h22.38.826,classification_task,2021.2.3,Win32,134.5351809,627c6715c52fd12f31907bcf,,,,,,,,,,,,,,,,,,,,,,,l,1,0.8084,"[""0.835"",""0.414"",""0.524"",""0.701""]","[0,1,1,1]",0,18,18,18,1,1,1,,,0,FALSE,,,,,,,,,,,,,,,,,,,,,,,,,,,,,,,
,5ff0a3d22c2ee6fa5d47c312,627c6f59cf6652b27e05561f,2022-05-12_04h22.38.826,classification_task,2021.2.3,Win32,134.5351809,627c6715c52fd12f31907bcf,,,,,,,,,,,,,,,,,,,,,,,l,0,1.0445,"[""0.791"",""0.334"",""0.658"",""0.974""]","[0,1,1,1]",0,19,19,19,1,0,1,,,0,FALSE,,,,,,,,,,,,,,,,,,,,,,,,,,,,,,,
,5ff0a3d22c2ee6fa5d47c312,627c6f59cf6652b27e05561f,2022-05-12_04h22.38.826,classification_task,2021.2.3,Win32,134.5351809,627c6715c52fd12f31907bcf,,,,,,,,,,,,,,,,,,,,,,,a,0,0.8681,"[""0.081"",""0.783"",""0.478"",""0.748""]","[1,0,1,1]",0,20,20,20,1,1,0,,,0,FALSE,,,,,,,,,,,,,,,,,,,,,,,,,,,,,,,
,5ff0a3d22c2ee6fa5d47c312,627c6f59cf6652b27e05561f,2022-05-12_04h22.38.826,classification_task,2021.2.3,Win32,134.5351809,627c6715c52fd12f31907bcf,,,,,,,,,,,,,,,,,,,,,,,l,1,0.9759,"[""0.139"",""0.414"",""0.524"",""0.295""]","[1,1,1,0]",0,21,21,21,1,1,1,,,0,FALSE,,,,,,,,,,,,,,,,,,,,,,,,,,,,,,,
,5ff0a3d22c2ee6fa5d47c312,627c6f59cf6652b27e05561f,2022-05-12_04h22.38.826,classification_task,2021.2.3,Win32,134.5351809,627c6715c52fd12f31907bcf,,,,,,,,,,,,,,,,,,,,,,,l,0,0.6842,"[""0.195"",""0.295"",""0.888"",""0.939""]","[1,0,1,1]",0,22,22,22,1,0,0,,,0,FALSE,,,,,,,,,,,,,,,,,,,,,,,,,,,,,,,
,5ff0a3d22c2ee6fa5d47c312,627c6f59cf6652b27e05561f,2022-05-12_04h22.38.826,classification_task,2021.2.3,Win32,134.5351809,627c6715c52fd12f31907bcf,,,,,,,,,,,,,,,,,,,,,,,a,1,1.0064,"[""0.246"",""0.295"",""0.658"",""0.974""]","[1,0,1,1]",0,23,23,23,1,0,1,,,0,FALSE,,,,,,,,,,,,,,,,,,,,,,,,,,,,,,,
,5ff0a3d22c2ee6fa5d47c312,627c6f59cf6652b27e05561f,2022-05-12_04h22.38.826,classification_task,2021.2.3,Win32,134.5351809,627c6715c52fd12f31907bcf,,,,,,,,,,,,,,,,,,,,,,,a,1,1.2775,"[""0.195"",""0.565"",""0.888"",""0.854""]","[1,1,1,0]",0,24,24,24,1,0,0,,,0,FALSE,,,,,,,,,,,,,,,,,,,,,,,,,,,,,,,
,5ff0a3d22c2ee6fa5d47c312,627c6f59cf6652b27e05561f,2022-05-12_04h22.38.826,classification_task,2021.2.3,Win32,134.5351809,627c6715c52fd12f31907bcf,,,,,,,,,,,,,,,,,,,,,,,a,0,1.0192,"[""0.081"",""0.375"",""0.846"",""0.748""]","[1,1,0,1]",0,25,25,25,1,1,0,,,0,FALSE,,,,,,,,,,,,,,,,,,,,,,,,,,,,,,,
,5ff0a3d22c2ee6fa5d47c312,627c6f59cf6652b27e05561f,2022-05-12_04h22.38.826,classification_task,2021.2.3,Win32,134.5351809,627c6715c52fd12f31907bcf,,,,,,,,,,,,,,,,,,,,,,,l,1,1.3082,"[""0.139"",""0.414"",""0.783"",""0.701""]","[1,1,0,1]",0,26,26,26,1,1,1,,,0,FALSE,,,,,,,,,,,,,,,,,,,,,,,,,,,,,,,
,5ff0a3d22c2ee6fa5d47c312,627c6f59cf6652b27e05561f,2022-05-12_04h22.38.826,classification_task,2021.2.3,Win32,134.5351809,627c6715c52fd12f31907bcf,,,,,,,,,,,,,,,,,,,,,,,a,1,1.1401,"[""0.835"",""0.565"",""0.888"",""0.939""]","[0,1,1,1]",0,27,27,27,1,0,0,,,0,FALSE,,,,,,,,,,,,,,,,,,,,,,,,,,,,,,,
,5ff0a3d22c2ee6fa5d47c312,627c6f59cf6652b27e05561f,2022-05-12_04h22.38.826,classification_task,2021.2.3,Win32,134.5351809,627c6715c52fd12f31907bcf,,,,,,,,,,,,,,,,,,,,,,,l,1,0.7786,"[""0.835"",""0.375"",""0.478"",""0.748""]","[0,1,1,1]",0,28,28,28,1,1,0,,,0,FALSE,,,,,,,,,,,,,,,,,,,,,,,,,,,,,,,
,5ff0a3d22c2ee6fa5d47c312,627c6f59cf6652b27e05561f,2022-05-12_04h22.38.826,classification_task,2021.2.3,Win32,134.5351809,627c6715c52fd12f31907bcf,,,,,,,,,,,,,,,,,,,,,,,l,0,1.2647,"[""0.246"",""0.334"",""0.041"",""0.974""]","[1,1,0,1]",0,29,29,29,1,0,1,,,0,FALSE,,,,,,,,,,,,,,,,,,,,,,,,,,,,,,,
,5ff0a3d22c2ee6fa5d47c312,627c6f59cf6652b27e05561f,2022-05-12_04h22.38.826,classification_task,2021.2.3,Win32,134.5351809,627c6715c52fd12f31907bcf,,,,,,,,,,,,,,,,,,,,,,,a,1,1.0567,"[""0.246"",""0.334"",""0.658"",""0.296""]","[1,1,1,0]",0,30,30,30,1,0,1,,,0,FALSE,,,,,,,,,,,,,,,,,,,,,,,,,,,,,,,
,5ff0a3d22c2ee6fa5d47c312,627c6f59cf6652b27e05561f,2022-05-12_04h22.38.826,classification_task,2021.2.3,Win32,134.5351809,627c6715c52fd12f31907bcf,,,,,,,,,,,,,,,,,,,,,,,l,0,1.3078,"[""0.195"",""0.565"",""0.783"",""0.939""]","[1,1,0,1]",0,31,31,31,1,0,0,,,0,FALSE,,,,,,,,,,,,,,,,,,,,,,,,,,,,,,,
,5ff0a3d22c2ee6fa5d47c312,627c6f59cf6652b27e05561f,2022-05-12_04h22.38.826,classification_task,2021.2.3,Win32,134.5351809,627c6715c52fd12f31907bcf,,,,,,,,,,,,,,,,,,,,,,,l,1,1.1058,"[""0.139"",""0.797"",""0.524"",""0.701""]","[1,0,1,1]",0,32,32,32,1,1,1,,,0,FALSE,,,,,,,,,,,,,,,,,,,,,,,,,,,,,,,
,5ff0a3d22c2ee6fa5d47c312,627c6f59cf6652b27e05561f,2022-05-12_04h22.38.826,classification_task,2021.2.3,Win32,134.5351809,627c6715c52fd12f31907bcf,,,,,,,,,,,,,,,,,,,,,,,l,1,1.7469,"[""0.139"",""0.414"",""0.524"",""0.798""]","[1,1,1,0]",0,33,33,33,1,1,1,,,0,FALSE,,,,,,,,,,,,,,,,,,,,,,,,,,,,,,,
,5ff0a3d22c2ee6fa5d47c312,627c6f59cf6652b27e05561f,2022-05-12_04h22.38.826,classification_task,2021.2.3,Win32,134.5351809,627c6715c52fd12f31907bcf,,,,,,,,,,,,,,,,,,,,,,,l,1,1.0997,"[""0.081"",""0.375"",""0.478"",""0.798""]","[1,1,1,0]",0,34,34,34,1,1,0,,,0,FALSE,,,,,,,,,,,,,,,,,,,,,,,,,,,,,,,
,5ff0a3d22c2ee6fa5d47c312,627c6f59cf6652b27e05561f,2022-05-12_04h22.38.826,classification_task,2021.2.3,Win32,134.5351809,627c6715c52fd12f31907bcf,,,,,,,,,,,,,,,,,,,,,,,a,1,1.2698,"[""0.293"",""0.334"",""0.658"",""0.974""]","[0,1,1,1]",0,35,35,35,1,0,1,,,0,FALSE,,,,,,,,,,,,,,,,,,,,,,,,,,,,,,,
,5ff0a3d22c2ee6fa5d47c312,627c6f59cf6652b27e05561f,2022-05-12_04h22.38.826,classification_task,2021.2.3,Win32,134.5351809,627c6715c52fd12f31907bcf,,,,,,,,,,,,,,,,,,,,,,,l,0,2.4796,"[""0.195"",""0.565"",""0.888"",""0.293""]","[1,1,1,0]",0,36,36,36,1,0,0,,,0,FALSE,,,,,,,,,,,,,,,,,,,,,,,,,,,,,,,
,5ff0a3d22c2ee6fa5d47c312,627c6f59cf6652b27e05561f,2022-05-12_04h22.38.826,classification_task,2021.2.3,Win32,134.5351809,627c6715c52fd12f31907bcf,,,,,,,,,,,,,,,,,,,,,,,l,0,0.9589,"[""0.246"",""0.334"",""0.846"",""0.974""]","[1,1,0,1]",0,37,37,37,1,0,1,,,0,FALSE,,,,,,,,,,,,,,,,,,,,,,,,,,,,,,,
,5ff0a3d22c2ee6fa5d47c312,627c6f59cf6652b27e05561f,2022-05-12_04h22.38.826,classification_task,2021.2.3,Win32,134.5351809,627c6715c52fd12f31907bcf,,,,,,,,,,,,,,,,,,,,,,,a,0,1.465,"[""0.081"",""0.846"",""0.478"",""0.748""]","[1,0,1,1]",0,38,38,38,1,1,0,,,0,FALSE,,,,,,,,,,,,,,,,,,,,,,,,,,,,,,,
,5ff0a3d22c2ee6fa5d47c312,627c6f59cf6652b27e05561f,2022-05-12_04h22.38.826,classification_task,2021.2.3,Win32,134.5351809,627c6715c52fd12f31907bcf,,,,,,,,,,,,,,,,,,,,,,,l,0,1.1144,"[""0.195"",""0.797"",""0.888"",""0.939""]","[1,0,1,1]",0,39,39,39,1,0,0,,,0,FALSE,,,,,,,,,,,,,,,,,,,,,,,,,,,,,,,
,5ff0a3d22c2ee6fa5d47c312,627c6f59cf6652b27e05561f,2022-05-12_04h22.38.826,classification_task,2021.2.3,Win32,134.5351809,627c6715c52fd12f31907bcf,,,,,,,,,,,,,,,,,,,,,,,l,0,2.691,"[""0.246"",""0.334"",""0.658"",""0.822""]","[1,1,1,0]",0,40,40,40,1,0,1,,,0,FALSE,,,,,,,,,,,,,,,,,,,,,,,,,,,,,,,
,5ff0a3d22c2ee6fa5d47c312,627c6f59cf6652b27e05561f,2022-05-12_04h22.38.826,classification_task,2021.2.3,Win32,134.5351809,627c6715c52fd12f31907bcf,,,,,,,,,,,,,,,,,,,,,,,l,1,0.7339,"[""0.797"",""0.414"",""0.524"",""0.701""]","[0,1,1,1]",0,41,41,41,1,1,1,,,0,FALSE,,,,,,,,,,,,,,,,,,,,,,,,,,,,,,,
,5ff0a3d22c2ee6fa5d47c312,627c6f59cf6652b27e05561f,2022-05-12_04h22.38.826,classification_task,2021.2.3,Win32,134.5351809,627c6715c52fd12f31907bcf,,,,,,,,,,,,,,,,,,,,,,,a,1,1.7732,"[""0.246"",""0.797"",""0.658"",""0.974""]","[1,0,1,1]",0,42,42,42,1,0,1,,,0,FALSE,,,,,,,,,,,,,,,,,,,,,,,,,,,,,,,
,5ff0a3d22c2ee6fa5d47c312,627c6f59cf6652b27e05561f,2022-05-12_04h22.38.826,classification_task,2021.2.3,Win32,134.5351809,627c6715c52fd12f31907bcf,,,,,,,,,,,,,,,,,,,,,,,a,0,2.0834,"[""0.295"",""0.375"",""0.478"",""0.748""]","[0,1,1,1]",0,43,43,43,1,1,0,,,0,FALSE,,,,,,,,,,,,,,,,,,,,,,,,,,,,,,,
,5ff0a3d22c2ee6fa5d47c312,627c6f59cf6652b27e05561f,2022-05-12_04h22.38.826,classification_task,2021.2.3,Win32,134.5351809,627c6715c52fd12f31907bcf,,,,,,,,,,,,,,,,,,,,,,,l,1,1.2167,"[""0.139"",""0.414"",""0.300"",""0.701""]","[1,1,0,1]",0,44,44,44,1,1,1,,,0,FALSE,,,,,,,,,,,,,,,,,,,,,,,,,,,,,,,
,5ff0a3d22c2ee6fa5d47c312,627c6f59cf6652b27e05561f,2022-05-12_04h22.38.826,classification_task,2021.2.3,Win32,134.5351809,627c6715c52fd12f31907bcf,,,,,,,,,,,,,,,,,,,,,,,a,1,2.6896,"[""0.800"",""0.565"",""0.888"",""0.939""]","[0,1,1,1]",0,45,45,45,1,0,0,,,0,FALSE,,,,,,,,,,,,,,,,,,,,,,,,,,,,,,,
,5ff0a3d22c2ee6fa5d47c312,627c6f59cf6652b27e05561f,2022-05-12_04h22.38.826,classification_task,2021.2.3,Win32,134.5351809,627c6715c52fd12f31907bcf,,,,,,,,,,,,,,,,,,,,,,,l,0,1.2614,"[""0.195"",""0.565"",""0.300"",""0.939""]","[1,1,0,1]",0,46,46,46,1,0,0,,,0,FALSE,,,,,,,,,,,,,,,,,,,,,,,,,,,,,,,
,5ff0a3d22c2ee6fa5d47c312,627c6f59cf6652b27e05561f,2022-05-12_04h22.38.826,classification_task,2021.2.3,Win32,134.5351809,627c6715c52fd12f31907bcf,,,,,,,,,,,,,,,,,,,,,,,l,1,1.9399,"[""0.081"",""0.375"",""0.835"",""0.748""]","[1,1,0,1]",0,47,47,47,1,1,0,,,0,FALSE,,,,,,,,,,,,,,,,,,,,,,,,,,,,,,,
,5ff0a3d22c2ee6fa5d47c312,627c6f59cf6652b27e05561f,2022-05-12_04h22.38.826,classification_task,2021.2.3,Win32,134.5351809,627c6715c52fd12f31907bcf,,,,,,,,,,,,,,,,,,,,,,,a,0,0.7328,"[""0.139"",""0.414"",""0.846"",""0.701""]","[1,1,0,1]",0,48,48,48,1,1,1,,,0,FALSE,,,,,,,,,,,,,,,,,,,,,,,,,,,,,,,
,5ff0a3d22c2ee6fa5d47c312,627c6f59cf6652b27e05561f,2022-05-12_04h22.38.826,classification_task,2021.2.3,Win32,134.5351809,627c6715c52fd12f31907bcf,,,,,,,,,,,,,,,,,,,,,,,a,1,1.1877,"[""0.246"",""0.334"",""0.296"",""0.974""]","[1,1,0,1]",0,49,49,49,1,0,1,,,0,FALSE,,,,,,,,,,,,,,,,,,,,,,,,,,,,,,,
,5ff0a3d22c2ee6fa5d47c312,627c6f59cf6652b27e05561f,2022-05-12_04h22.38.826,classification_task,2021.2.3,Win32,134.5351809,627c6715c52fd12f31907bcf,,,,,,,,,,,,,,,,,,,,,,,l,0,0.8406,"[""0.246"",""0.295"",""0.658"",""0.974""]","[1,0,1,1]",0,50,50,50,1,0,1,,,0,FALSE,,,,,,,,,,,,,,,,,,,,,,,,,,,,,,,
,5ff0a3d22c2ee6fa5d47c312,627c6f59cf6652b27e05561f,2022-05-12_04h22.38.826,classification_task,2021.2.3,Win32,134.5351809,627c6715c52fd12f31907bcf,,,,,,,,,,,,,,,,,,,,,,,a,1,0.809,"[""0.246"",""0.334"",""0.658"",""0.798""]","[1,1,1,0]",0,51,51,51,1,0,1,,,0,FALSE,,,,,,,,,,,,,,,,,,,,,,,,,,,,,,,
,5ff0a3d22c2ee6fa5d47c312,627c6f59cf6652b27e05561f,2022-05-12_04h22.38.826,classification_task,2021.2.3,Win32,134.5351809,627c6715c52fd12f31907bcf,,,,,,,,,,,,,,,,,,,,,,,l,1,1.1635,"[""0.139"",""0.835"",""0.524"",""0.701""]","[1,0,1,1]",0,52,52,52,1,1,1,,,0,FALSE,,,,,,,,,,,,,,,,,,,,,,,,,,,,,,,
,5ff0a3d22c2ee6fa5d47c312,627c6f59cf6652b27e05561f,2022-05-12_04h22.38.826,classification_task,2021.2.3,Win32,134.5351809,627c6715c52fd12f31907bcf,,,,,,,,,,,,,,,,,,,,,,,l,1,0.8054,"[""0.791"",""0.375"",""0.478"",""0.748""]","[0,1,1,1]",0,53,53,53,1,1,0,,,0,FALSE,,,,,,,,,,,,,,,,,,,,,,,,,,,,,,,
,5ff0a3d22c2ee6fa5d47c312,627c6f59cf6652b27e05561f,2022-05-12_04h22.38.826,classification_task,2021.2.3,Win32,134.5351809,627c6715c52fd12f31907bcf,,,,,,,,,,,,,,,,,,,,,,,a,1,1.0421,"[""0.195"",""0.565"",""0.805"",""0.939""]","[1,1,0,1]",0,54,54,54,1,0,0,,,0,FALSE,,,,,,,,,,,,,,,,,,,,,,,,,,,,,,,
,5ff0a3d22c2ee6fa5d47c312,627c6f59cf6652b27e05561f,2022-05-12_04h22.38.826,classification_task,2021.2.3,Win32,134.5351809,627c6715c52fd12f31907bcf,,,,,,,,,,,,,,,,,,,,,,,l,1,1.3434,"[""0.081"",""0.805"",""0.478"",""0.748""]","[1,0,1,1]",0,55,55,55,1,1,0,,,0,FALSE,,,,,,,,,,,,,,,,,,,,,,,,,,,,,,,
,5ff0a3d22c2ee6fa5d47c312,627c6f59cf6652b27e05561f,2022-05-12_04h22.38.826,classification_task,2021.2.3,Win32,134.5351809,627c6715c52fd12f31907bcf,,,,,,,,,,,,,,,,,,,,,,,a,0,0.9237,"[""0.783"",""0.414"",""0.524"",""0.701""]","[0,1,1,1]",0,56,56,56,1,1,1,,,0,FALSE,,,,,,,,,,,,,,,,,,,,,,,,,,,,,,,
,5ff0a3d22c2ee6fa5d47c312,627c6f59cf6652b27e05561f,2022-05-12_04h22.38.826,classification_task,2021.2.3,Win32,134.5351809,627c6715c52fd12f31907bcf,,,,,,,,,,,,,,,,,,,,,,,l,0,1.0646,"[""0.195"",""0.565"",""0.888"",""0.300""]","[1,1,1,0]",0,57,57,57,1,0,0,,,0,FALSE,,,,,,,,,,,,,,,,,,,,,,,,,,,,,,,
,5ff0a3d22c2ee6fa5d47c312,627c6f59cf6652b27e05561f,2022-05-12_04h22.38.826,classification_task,2021.2.3,Win32,134.5351809,627c6715c52fd12f31907bcf,,,,,,,,,,,,,,,,,,,,,,,l,1,1.003,"[""0.081"",""0.375"",""0.805"",""0.748""]","[1,1,0,1]",0,58,58,58,1,1,0,,,0,FALSE,,,,,,,,,,,,,,,,,,,,,,,,,,,,,,,
,5ff0a3d22c2ee6fa5d47c312,627c6f59cf6652b27e05561f,2022-05-12_04h22.38.826,classification_task,2021.2.3,Win32,134.5351809,627c6715c52fd12f31907bcf,,,,,,,,,,,,,,,,,,,,,,,a,1,0.9325,"[""0.805"",""0.334"",""0.658"",""0.974""]","[0,1,1,1]",0,59,59,59,1,0,1,,,0,FALSE,,,,,,,,,,,,,,,,,,,,,,,,,,,,,,,
,5ff0a3d22c2ee6fa5d47c312,627c6f59cf6652b27e05561f,2022-05-12_04h22.38.826,classification_task,2021.2.3,Win32,134.5351809,627c6715c52fd12f31907bcf,,,,,,,,,,,,,,,,,,,,,,,l,0,1.5557,"[""0.805"",""0.565"",""0.888"",""0.939""]","[0,1,1,1]",0,60,60,60,1,0,0,,,0,FALSE,,,,,,,,,,,,,,,,,,,,,,,,,,,,,,,
,5ff0a3d22c2ee6fa5d47c312,627c6f59cf6652b27e05561f,2022-05-12_04h22.38.826,classification_task,2021.2.3,Win32,134.5351809,627c6715c52fd12f31907bcf,,,,,,,,,,,,,,,,,,,,,,,l,0,1.2082,"[""0.195"",""0.296"",""0.888"",""0.939""]","[1,0,1,1]",0,61,61,61,1,0,0,,,0,FALSE,,,,,,,,,,,,,,,,,,,,,,,,,,,,,,,
,5ff0a3d22c2ee6fa5d47c312,627c6f59cf6652b27e05561f,2022-05-12_04h22.38.826,classification_task,2021.2.3,Win32,134.5351809,627c6715c52fd12f31907bcf,,,,,,,,,,,,,,,,,,,,,,,a,0,0.9031,"[""0.081"",""0.375"",""0.478"",""0.798""]","[1,1,1,0]",0,62,62,62,1,1,0,,,0,FALSE,,,,,,,,,,,,,,,,,,,,,,,,,,,,,,,
,5ff0a3d22c2ee6fa5d47c312,627c6f59cf6652b27e05561f,2022-05-12_04h22.38.826,classification_task,2021.2.3,Win32,134.5351809,627c6715c52fd12f31907bcf,,,,,,,,,,,,,,,,,,,,,,,l,1,1.3049,"[""0.139"",""0.414"",""0.524"",""0.783""]","[1,1,1,0]",0,63,63,63,1,1,1,,,0,FALSE,,,,,,,,,,,,,,,,,,,,,,,,,,,,,,,
,5ff0a3d22c2ee6fa5d47c312,627c6f59cf6652b27e05561f,2022-05-12_04h22.38.826,classification_task,2021.2.3,Win32,134.5351809,627c6715c52fd12f31907bcf,,,,,,,,,,,,,,,,,,,,,,,,,,,,,,,,,,,,,,,0, ,,0,6.52483833,160.6088,0,2,2,2,1,2,3,,,,,,,,,,,,,,,,,,
,5ff0a3d22c2ee6fa5d47c312,627c6f59cf6652b27e05561f,2022-05-12_04h22.38.826,classification_task,2021.2.3,Win32,134.5351809,627c6715c52fd12f31907bcf,,,,,,,,,,,,,,,,,,,,,,,,,,,,,,,,,,,,,,,1,  ,,0,6.377865961,161.2806,0,2,2,2,1,2,3,,,,,,,,,,,,,,,,,,
,5ff0a3d22c2ee6fa5d47c312,627c6f59cf6652b27e05561f,2022-05-12_04h22.38.826,classification_task,2021.2.3,Win32,134.5351809,627c6715c52fd12f31907bcf,,,,,,,,,,,,,,,,,,,,,,,,,,,,,,,,,,,,,,,2,  ,,0,6.6718107,162.2603,0,2,2,2,1,2,3,,,,,,,,,,,,,,,,,,
,5ff0a3d22c2ee6fa5d47c312,627c6f59cf6652b27e05561f,2022-05-12_04h22.38.826,classification_task,2021.2.3,Win32,134.5351809,627c6715c52fd12f31907bcf,,,,,,,,,,,,,,,,,,,,,,,,,,,,,,,,,,,,,,,,,,,,,0,2,2,2,1,,3,,,,,,,,,,,,,,,,,,
,5ff0a3d22c2ee6fa5d47c312,627c6f59cf6652b27e05561f,2022-05-12_04h22.38.826,classification_task,2021.2.3,Win32,134.5351809,627c6715c52fd12f31907bcf,,,,,,,,,,,,,,,,,,,,,,,,,,,,,,,,,,,,,,,,,,,,,,,,,,,,,I believe the aid is a competent performer,,0.7,0,1,796.7508,0,0,0,0,1,0,,,,,
,5ff0a3d22c2ee6fa5d47c312,627c6f59cf6652b27e05561f,2022-05-12_04h22.38.826,classification_task,2021.2.3,Win32,134.5351809,627c6715c52fd12f31907bcf,,,,,,,,,,,,,,,,,,,,,,,,,,,,,,,,,,,,,,,,,,,,,,,,,,,,,I trust the aid,,0.7,0,2,798.6057,0,0,0,0,1,0,,,,,
,5ff0a3d22c2ee6fa5d47c312,627c6f59cf6652b27e05561f,2022-05-12_04h22.38.826,classification_task,2021.2.3,Win32,134.5351809,627c6715c52fd12f31907bcf,,,,,,,,,,,,,,,,,,,,,,,,,,,,,,,,,,,,,,,,,,,,,,,,,,,,,I have confidence in the advice given by the aid,,0.7,0,2,803.3238,0,0,0,0,1,0,,,,,
,5ff0a3d22c2ee6fa5d47c312,627c6f59cf6652b27e05561f,2022-05-12_04h22.38.826,classification_task,2021.2.3,Win32,134.5351809,627c6715c52fd12f31907bcf,,,,,,,,,,,,,,,,,,,,,,,,,,,,,,,,,,,,,,,,,,,,,,,,,,,,,I can depend on the aid,,0.7,0,1,804.9871,0,0,0,0,1,0,,,,,
,5ff0a3d22c2ee6fa5d47c312,627c6f59cf6652b27e05561f,2022-05-12_04h22.38.826,classification_task,2021.2.3,Win32,134.5351809,627c6715c52fd12f31907bcf,,,,,,,,,,,,,,,,,,,,,,,,,,,,,,,,,,,,,,,,,,,,,,,,,,,,,I can rely on the aid to behave in consistent ways,,0.7,0,1,812.1493,0,0,0,0,1,0,,,,,
,5ff0a3d22c2ee6fa5d47c312,627c6f59cf6652b27e05561f,2022-05-12_04h22.38.826,classification_task,2021.2.3,Win32,134.5351809,627c6715c52fd12f31907bcf,,,,,,,,,,,,,,,,,,,,,,,,,,,,,,,,,,,,,,,,,,,,,,,,,,,,,I can rely on the aid to do its best every time I take its advice,,0.7,0,2,816.15,0,0,0,0,1,0,,,,,
,5ff0a3d22c2ee6fa5d47c312,627c6f59cf6652b27e05561f,2022-05-12_04h22.38.826,classification_task,2021.2.3,Win32,134.5351809,627c6715c52fd12f31907bcf,,,,,,,,,,,,,,,,,,,,,,,,,,,,,,,,,,,,,,,,,,,,,,,,,,,,,"On trials you completed with assistance from the aid, how frequently did you think the aid was correct?",,0.7,0,30,,0,0,0,0,1,0,,,,,
,5ff0a3d22c2ee6fa5d47c312,627c6f59cf6652b27e05561f,2022-05-12_04h22.38.826,classification_task,2021.2.3,Win32,134.5351809,627c6715c52fd12f31907bcf,,,,,,,,,,,,,,,,,,,,,,,,,,,,,,,,,,,,,,,,,,,,,,,,,,,,,"On trials you completed without the aid, how frequently did you think you were correct?",,0.7,0,20,,0,0,0,0,1,0,,,,,
,5ff0a3d22c2ee6fa5d47c312,627c6f59cf6652b27e05561f,2022-05-12_04h22.38.826,classification_task,2021.2.3,Win32,134.5351809,627c6715c52fd12f31907bcf,,,,,,,,,,,,,,,,,,,,,,,,,,,,,,,,,,,,,,,,,,,,,,,,,,,,,,,,,,,0,0,0,0,1,,,,,,
,5ff0a3d22c2ee6fa5d47c312,627c6f59cf6652b27e05561f,2022-05-12_04h22.38.826,classification_task,2021.2.3,Win32,134.5351809,627c6715c52fd12f31907bcf,,,,,,,,,,,,,,,,,,,,,,,,,,,,,,,,,,,,,,,,,,,,,,,,,,,,,,,,,,,,,,,,,g,15.3672,845.5301,,
,5ff0a3d22c2ee6fa5d47c312,627c6f59cf6652b27e05561f,2022-05-12_04h22.38.826,classification_task,2021.2.3,Win32,134.5351809,627c6715c52fd12f31907bcf,,,,,,,,,,,,,,,,,,,,,,,,,,,,,,,,,,,,,,,,,,,,,,,,,,,,,,,,,,,,,,,,,,,,"Mozilla/5.0 (Windows NT 10.0; Win64; x64) AppleWebKit/537.36 (KHTML, like Gecko) Chrome/101.0.4951.54 Safari/537.36",
,5ff0a3d22c2ee6fa5d47c312,627c6f59cf6652b27e05561f,2022-05-12_04h22.38.826,classification_task,2021.2.3,Win32,134.5351809,627c6715c52fd12f31907bcf,,,,,,,,,,,,,,,,,,,,,,,,,,,,,,,,,,,,,,,,,,,,,,,,,,,,,,,,,,,,,,,,,,,,,LOWLIGHT
