usingWebGL,participant,session,date,expName,psychopyVersion,OS,frameRate,study_id,signatures_friend,signatures_foe,band_ranges_top,band_ranges_bottom,formitemText,formtype,formundefined,formitemWidth,formindex,formresponse,formrt,key_resp_2.keys,key_resp_2.rt,tute_resp.keys,tute_resp.rt,tutorial.thisRepN,tutorial.thisTrialN,tutorial.thisN,tutorial.thisIndex,tutorial.ran,key_resp_4.keys,key_resp_4.rt,key_resp.keys,key_resp.corr,key_resp.rt,lines_presented,is_signal_presented,trials.thisRepN,trials.thisTrialN,trials.thisN,trials.thisIndex,trials.ran,vessel,active_band,lines,is_signal,supported_pos,catch_trial,debrief_formindex,debrief_formitemText,debrief_formtype,debrief_formitemWidth,debrief_formresponse,debrief_formrt,phases.thisRepN,phases.thisTrialN,phases.thisN,phases.thisIndex,phases.ran,phases.order,phase,key_resp_3.keys,trustitemText,trusttype,trustitemWidth,trustindex,trustresponse,trustrt,support_status.thisRepN,support_status.thisTrialN,support_status.thisN,support_status.thisIndex,support_status.ran,support_status.order,key_resp_5.keys,key_resp_5.rt,globalClockTime,userAgent,manualCondition
TRUE,5ff265688f62107122f931f2,627c67a5f376d549d1c9ba92,2022-05-11_21h39.02.256,classification_task,2021.2.3,Linux x86_64,59.82292414,627c6715c52fd12f31907bcf,,,,,,,,,,,,,,,,,,,,,,,,,,,,,,,,,,,,,,,,,,,,,,,,,,,,,,,,,,,,,,,,,,,,,
,5ff265688f62107122f931f2,627c67a5f376d549d1c9ba92,2022-05-11_21h39.02.256,classification_task,2021.2.3,Linux x86_64,59.82292414,627c6715c52fd12f31907bcf,"[[""0.200"",""0.476"",""0.867"",""0.971""],[""0.290"",""0.429"",""0.600"",""0.922""]]","[[""0.129"",""0.337"",""0.670"",""0.791""],[""0.062"",""0.253"",""0.564"",""0.721""]]","[1,10]","[100,1000]",Video game experience,,,0.7,0,,,,,,,,,,,,,,,,,,,,,,,,,,,,,,,,,,,,,,,,,,,,,,,,,,,,,,,,,,,,
,5ff265688f62107122f931f2,627c67a5f376d549d1c9ba92,2022-05-11_21h39.02.256,classification_task,2021.2.3,Linux x86_64,59.82292414,627c6715c52fd12f31907bcf,,,,,Approximately how many hours did you spend playing video games in the last week?,,,0.7,0,0,,,,,,,,,,,,,,,,,,,,,,,,,,,,,,,,,,,,,,,,,,,,,,,,,,,,,,,,,,,
,5ff265688f62107122f931f2,627c67a5f376d549d1c9ba92,2022-05-11_21h39.02.256,classification_task,2021.2.3,Linux x86_64,59.82292414,627c6715c52fd12f31907bcf,,,,,"Which game did you play the most this year? (Enter ""None"" if you didn't play any)",,,0.7,0,none,,,,,,,,,,,,,,,,,,,,,,,,,,,,,,,,,,,,,,,,,,,,,,,,,,,,,,,,,,,
,5ff265688f62107122f931f2,627c67a5f376d549d1c9ba92,2022-05-11_21h39.02.256,classification_task,2021.2.3,Linux x86_64,59.82292414,627c6715c52fd12f31907bcf,,,,,Visual perception,,,0.7,0,,,,,,,,,,,,,,,,,,,,,,,,,,,,,,,,,,,,,,,,,,,,,,,,,,,,,,,,,,,,
,5ff265688f62107122f931f2,627c67a5f376d549d1c9ba92,2022-05-11_21h39.02.256,classification_task,2021.2.3,Linux x86_64,59.82292414,627c6715c52fd12f31907bcf,,,,,Do you have any form of color blindness?,,,0.7,0,No,14.4781,,,,,,,,,,,,,,,,,,,,,,,,,,,,,,,,,,,,,,,,,,,,,,,,,,,,,,,,,,
,5ff265688f62107122f931f2,627c67a5f376d549d1c9ba92,2022-05-11_21h39.02.256,classification_task,2021.2.3,Linux x86_64,59.82292414,627c6715c52fd12f31907bcf,,,,,Do you use software to change the colour temperature of your screen (e.g. f.lux)?,,,0.7,0,Yes,17.7306,,,,,,,,,,,,,,,,,,,,,,,,,,,,,,,,,,,,,,,,,,,,,,,,,,,,,,,,,,
,5ff265688f62107122f931f2,627c67a5f376d549d1c9ba92,2022-05-11_21h39.02.256,classification_task,2021.2.3,Linux x86_64,59.82292414,627c6715c52fd12f31907bcf,,,,,,,,,,,,space,2.6082,space,2.3207,0,0,0,0,1,,,,,,,,,,,,,,,,,,,,,,,,,,,,,,,,,,,,,,,,,,,,,,,,,
,5ff265688f62107122f931f2,627c67a5f376d549d1c9ba92,2022-05-11_21h39.02.256,classification_task,2021.2.3,Linux x86_64,59.82292414,627c6715c52fd12f31907bcf,,,,,,,,,,,,,,space,1.3666,1,0,1,0,1,,,,,,,,,,,,,,,,,,,,,,,,,,,,,,,,,,,,,,,,,,,,,,,,,
,5ff265688f62107122f931f2,627c67a5f376d549d1c9ba92,2022-05-11_21h39.02.256,classification_task,2021.2.3,Linux x86_64,59.82292414,627c6715c52fd12f31907bcf,,,,,,,,,,,,,,space,5.9296,2,0,2,0,1,,,,,,,,,,,,,,,,,,,,,,,,,,,,,,,,,,,,,,,,,,,,,,,,,
,5ff265688f62107122f931f2,627c67a5f376d549d1c9ba92,2022-05-11_21h39.02.256,classification_task,2021.2.3,Linux x86_64,59.82292414,627c6715c52fd12f31907bcf,,,,,,,,,,,,,,space,0.8915,3,0,3,0,1,,,,,,,,,,,,,,,,,,,,,,,,,,,,,,,,,,,,,,,,,,,,,,,,,
,5ff265688f62107122f931f2,627c67a5f376d549d1c9ba92,2022-05-11_21h39.02.256,classification_task,2021.2.3,Linux x86_64,59.82292414,627c6715c52fd12f31907bcf,,,,,,,,,,,,,,space,0.7331,4,0,4,0,1,,,,,,,,,,,,,,,,,,,,,,,,,,,,,,,,,,,,,,,,,,,,,,,,,
,5ff265688f62107122f931f2,627c67a5f376d549d1c9ba92,2022-05-11_21h39.02.256,classification_task,2021.2.3,Linux x86_64,59.82292414,627c6715c52fd12f31907bcf,,,,,,,,,,,,,,,,,,,,,space,0.7582,a,0,6.6525,"[""0.062"",""0.253"",""0.564"",""0.827""]","[1,1,1,0]",0,0,0,0,1,1,1,,,0,FALSE,,,,,,,,,,,,,,,,,,,,,,,,,,,,,,,
,5ff265688f62107122f931f2,627c67a5f376d549d1c9ba92,2022-05-11_21h39.02.256,classification_task,2021.2.3,Linux x86_64,59.82292414,627c6715c52fd12f31907bcf,,,,,,,,,,,,,,,,,,,,,,,l,1,8.5384,"[""0.827"",""0.253"",""0.564"",""0.721""]","[0,1,1,1]",0,1,1,1,1,1,1,,,0,FALSE,,,,,,,,,,,,,,,,,,,,,,,,,,,,,,,
,5ff265688f62107122f931f2,627c67a5f376d549d1c9ba92,2022-05-11_21h39.02.256,classification_task,2021.2.3,Linux x86_64,59.82292414,627c6715c52fd12f31907bcf,,,,,,,,,,,,,,,,,,,,,,,a,1,8.7806,"[""0.290"",""0.429"",""0.164"",""0.922""]","[1,1,0,1]",0,2,2,2,1,0,1,,,0,FALSE,,,,,,,,,,,,,,,,,,,,,,,,,,,,,,,
,5ff265688f62107122f931f2,627c67a5f376d549d1c9ba92,2022-05-11_21h39.02.256,classification_task,2021.2.3,Linux x86_64,59.82292414,627c6715c52fd12f31907bcf,,,,,,,,,,,,,,,,,,,,,,,a,1,5.2797,"[""0.200"",""0.476"",""0.867"",""0.827""]","[1,1,1,0]",0,3,3,3,1,0,0,,,0,FALSE,,,,,,,,,,,,,,,,,,,,,,,,,,,,,,,
,5ff265688f62107122f931f2,627c67a5f376d549d1c9ba92,2022-05-11_21h39.02.256,classification_task,2021.2.3,Linux x86_64,59.82292414,627c6715c52fd12f31907bcf,,,,,,,,,,,,,,,,,,,,,,,a,1,7.0779,"[""0.200"",""0.829"",""0.867"",""0.971""]","[1,0,1,1]",0,4,4,4,1,0,0,,,0,FALSE,,,,,,,,,,,,,,,,,,,,,,,,,,,,,,,
,5ff265688f62107122f931f2,627c67a5f376d549d1c9ba92,2022-05-11_21h39.02.256,classification_task,2021.2.3,Linux x86_64,59.82292414,627c6715c52fd12f31907bcf,,,,,,,,,,,,,,,,,,,,,,,l,1,2.1671,"[""0.129"",""0.337"",""0.670"",""0.384""]","[1,1,1,0]",0,5,5,5,1,1,0,,,0,FALSE,,,,,,,,,,,,,,,,,,,,,,,,,,,,,,,
,5ff265688f62107122f931f2,627c67a5f376d549d1c9ba92,2022-05-11_21h39.02.256,classification_task,2021.2.3,Linux x86_64,59.82292414,627c6715c52fd12f31907bcf,,,,,,,,,,,,,,,,,,,,,,,a,1,5.382,"[""0.513"",""0.476"",""0.867"",""0.971""]","[0,1,1,1]",0,6,6,6,1,0,0,,,0,FALSE,,,,,,,,,,,,,,,,,,,,,,,,,,,,,,,
,5ff265688f62107122f931f2,627c67a5f376d549d1c9ba92,2022-05-11_21h39.02.256,classification_task,2021.2.3,Linux x86_64,59.82292414,627c6715c52fd12f31907bcf,,,,,,,,,,,,,,,,,,,,,,,a,1,2.6043,"[""0.290"",""0.429"",""0.600"",""0.390""]","[1,1,1,0]",0,7,7,7,1,0,1,,,0,FALSE,,,,,,,,,,,,,,,,,,,,,,,,,,,,,,,
,5ff265688f62107122f931f2,627c67a5f376d549d1c9ba92,2022-05-11_21h39.02.256,classification_task,2021.2.3,Linux x86_64,59.82292414,627c6715c52fd12f31907bcf,,,,,,,,,,,,,,,,,,,,,,,l,1,1.0727,"[""0.827"",""0.337"",""0.670"",""0.791""]","[0,1,1,1]",0,8,8,8,1,1,0,,,0,FALSE,,,,,,,,,,,,,,,,,,,,,,,,,,,,,,,
,5ff265688f62107122f931f2,627c67a5f376d549d1c9ba92,2022-05-11_21h39.02.256,classification_task,2021.2.3,Linux x86_64,59.82292414,627c6715c52fd12f31907bcf,,,,,,,,,,,,,,,,,,,,,,,l,0,1.7514,"[""0.513"",""0.429"",""0.600"",""0.922""]","[0,1,1,1]",0,9,9,9,1,0,1,,,0,FALSE,,,,,,,,,,,,,,,,,,,,,,,,,,,,,,,
,5ff265688f62107122f931f2,627c67a5f376d549d1c9ba92,2022-05-11_21h39.02.256,classification_task,2021.2.3,Linux x86_64,59.82292414,627c6715c52fd12f31907bcf,,,,,,,,,,,,,,,,,,,,,,,a,0,2.3321,"[""0.062"",""0.827"",""0.564"",""0.721""]","[1,0,1,1]",0,10,10,10,1,1,1,,,0,FALSE,,,,,,,,,,,,,,,,,,,,,,,,,,,,,,,
,5ff265688f62107122f931f2,627c67a5f376d549d1c9ba92,2022-05-11_21h39.02.256,classification_task,2021.2.3,Linux x86_64,59.82292414,627c6715c52fd12f31907bcf,,,,,,,,,,,,,,,,,,,,,,,l,1,1.8392,"[""0.062"",""0.253"",""0.390"",""0.721""]","[1,1,0,1]",0,11,11,11,1,1,1,,,0,FALSE,,,,,,,,,,,,,,,,,,,,,,,,,,,,,,,
,5ff265688f62107122f931f2,627c67a5f376d549d1c9ba92,2022-05-11_21h39.02.256,classification_task,2021.2.3,Linux x86_64,59.82292414,627c6715c52fd12f31907bcf,,,,,,,,,,,,,,,,,,,,,,,a,0,3.1795,"[""0.129"",""0.164"",""0.670"",""0.791""]","[1,0,1,1]",0,12,12,12,1,1,0,,,0,FALSE,,,,,,,,,,,,,,,,,,,,,,,,,,,,,,,
,5ff265688f62107122f931f2,627c67a5f376d549d1c9ba92,2022-05-11_21h39.02.256,classification_task,2021.2.3,Linux x86_64,59.82292414,627c6715c52fd12f31907bcf,,,,,,,,,,,,,,,,,,,,,,,a,1,2.1632,"[""0.200"",""0.476"",""0.827"",""0.971""]","[1,1,0,1]",0,13,13,13,1,0,0,,,0,FALSE,,,,,,,,,,,,,,,,,,,,,,,,,,,,,,,
,5ff265688f62107122f931f2,627c67a5f376d549d1c9ba92,2022-05-11_21h39.02.256,classification_task,2021.2.3,Linux x86_64,59.82292414,627c6715c52fd12f31907bcf,,,,,,,,,,,,,,,,,,,,,,,a,1,1.2476,"[""0.290"",""0.511"",""0.600"",""0.922""]","[1,0,1,1]",0,14,14,14,1,0,1,,,0,FALSE,,,,,,,,,,,,,,,,,,,,,,,,,,,,,,,
,5ff265688f62107122f931f2,627c67a5f376d549d1c9ba92,2022-05-11_21h39.02.256,classification_task,2021.2.3,Linux x86_64,59.82292414,627c6715c52fd12f31907bcf,,,,,,,,,,,,,,,,,,,,,,,l,1,1.2986,"[""0.129"",""0.337"",""0.757"",""0.791""]","[1,1,0,1]",0,15,15,15,1,1,0,,,0,FALSE,,,,,,,,,,,,,,,,,,,,,,,,,,,,,,,
,5ff265688f62107122f931f2,627c67a5f376d549d1c9ba92,2022-05-11_21h39.02.256,classification_task,2021.2.3,Linux x86_64,59.82292414,627c6715c52fd12f31907bcf,,,,,,,,,,,,,,,,,,,,,,,a,1,0.7393,"[""0.290"",""0.429"",""0.600"",""0.826""]","[1,1,1,0]",0,16,16,16,1,0,1,,,0,FALSE,,,,,,,,,,,,,,,,,,,,,,,,,,,,,,,
,5ff265688f62107122f931f2,627c67a5f376d549d1c9ba92,2022-05-11_21h39.02.256,classification_task,2021.2.3,Linux x86_64,59.82292414,627c6715c52fd12f31907bcf,,,,,,,,,,,,,,,,,,,,,,,l,1,1.0499,"[""0.129"",""0.827"",""0.670"",""0.791""]","[1,0,1,1]",0,17,17,17,1,1,0,,,0,FALSE,,,,,,,,,,,,,,,,,,,,,,,,,,,,,,,
,5ff265688f62107122f931f2,627c67a5f376d549d1c9ba92,2022-05-11_21h39.02.256,classification_task,2021.2.3,Linux x86_64,59.82292414,627c6715c52fd12f31907bcf,,,,,,,,,,,,,,,,,,,,,,,a,1,0.7336,"[""0.290"",""0.429"",""0.826"",""0.922""]","[1,1,0,1]",0,18,18,18,1,0,1,,,0,FALSE,,,,,,,,,,,,,,,,,,,,,,,,,,,,,,,
,5ff265688f62107122f931f2,627c67a5f376d549d1c9ba92,2022-05-11_21h39.02.256,classification_task,2021.2.3,Linux x86_64,59.82292414,627c6715c52fd12f31907bcf,,,,,,,,,,,,,,,,,,,,,,,a,0,0.7939,"[""0.389"",""0.253"",""0.564"",""0.721""]","[0,1,1,1]",0,19,19,19,1,1,1,,,0,FALSE,,,,,,,,,,,,,,,,,,,,,,,,,,,,,,,
,5ff265688f62107122f931f2,627c67a5f376d549d1c9ba92,2022-05-11_21h39.02.256,classification_task,2021.2.3,Linux x86_64,59.82292414,627c6715c52fd12f31907bcf,,,,,,,,,,,,,,,,,,,,,,,l,1,2.477,"[""0.062"",""0.829"",""0.564"",""0.721""]","[1,0,1,1]",0,20,20,20,1,1,1,,,0,FALSE,,,,,,,,,,,,,,,,,,,,,,,,,,,,,,,
,5ff265688f62107122f931f2,627c67a5f376d549d1c9ba92,2022-05-11_21h39.02.256,classification_task,2021.2.3,Linux x86_64,59.82292414,627c6715c52fd12f31907bcf,,,,,,,,,,,,,,,,,,,,,,,a,1,1.0825,"[""0.382"",""0.476"",""0.867"",""0.971""]","[0,1,1,1]",0,21,21,21,1,0,0,,,0,FALSE,,,,,,,,,,,,,,,,,,,,,,,,,,,,,,,
,5ff265688f62107122f931f2,627c67a5f376d549d1c9ba92,2022-05-11_21h39.02.256,classification_task,2021.2.3,Linux x86_64,59.82292414,627c6715c52fd12f31907bcf,,,,,,,,,,,,,,,,,,,,,,,a,0,1.4212,"[""0.129"",""0.337"",""0.670"",""0.382""]","[1,1,1,0]",0,22,22,22,1,1,0,,,0,FALSE,,,,,,,,,,,,,,,,,,,,,,,,,,,,,,,
,5ff265688f62107122f931f2,627c67a5f376d549d1c9ba92,2022-05-11_21h39.02.256,classification_task,2021.2.3,Linux x86_64,59.82292414,627c6715c52fd12f31907bcf,,,,,,,,,,,,,,,,,,,,,,,l,0,1.2134,"[""0.200"",""0.476"",""0.867"",""0.510""]","[1,1,1,0]",0,23,23,23,1,0,0,,,0,FALSE,,,,,,,,,,,,,,,,,,,,,,,,,,,,,,,
,5ff265688f62107122f931f2,627c67a5f376d549d1c9ba92,2022-05-11_21h39.02.256,classification_task,2021.2.3,Linux x86_64,59.82292414,627c6715c52fd12f31907bcf,,,,,,,,,,,,,,,,,,,,,,,a,0,1.6017,"[""0.062"",""0.253"",""0.564"",""0.510""]","[1,1,1,0]",0,24,24,24,1,1,1,,,0,FALSE,,,,,,,,,,,,,,,,,,,,,,,,,,,,,,,
,5ff265688f62107122f931f2,627c67a5f376d549d1c9ba92,2022-05-11_21h39.02.256,classification_task,2021.2.3,Linux x86_64,59.82292414,627c6715c52fd12f31907bcf,,,,,,,,,,,,,,,,,,,,,,,l,0,3.9527,"[""0.290"",""0.827"",""0.600"",""0.922""]","[1,0,1,1]",0,25,25,25,1,0,1,,,0,FALSE,,,,,,,,,,,,,,,,,,,,,,,,,,,,,,,
,5ff265688f62107122f931f2,627c67a5f376d549d1c9ba92,2022-05-11_21h39.02.256,classification_task,2021.2.3,Linux x86_64,59.82292414,627c6715c52fd12f31907bcf,,,,,,,,,,,,,,,,,,,,,,,a,1,2.0216,"[""0.513"",""0.429"",""0.600"",""0.922""]","[0,1,1,1]",0,26,26,26,1,0,1,,,0,FALSE,,,,,,,,,,,,,,,,,,,,,,,,,,,,,,,
,5ff265688f62107122f931f2,627c67a5f376d549d1c9ba92,2022-05-11_21h39.02.256,classification_task,2021.2.3,Linux x86_64,59.82292414,627c6715c52fd12f31907bcf,,,,,,,,,,,,,,,,,,,,,,,l,0,2.0282,"[""0.200"",""0.167"",""0.867"",""0.971""]","[1,0,1,1]",0,27,27,27,1,0,0,,,0,FALSE,,,,,,,,,,,,,,,,,,,,,,,,,,,,,,,
,5ff265688f62107122f931f2,627c67a5f376d549d1c9ba92,2022-05-11_21h39.02.256,classification_task,2021.2.3,Linux x86_64,59.82292414,627c6715c52fd12f31907bcf,,,,,,,,,,,,,,,,,,,,,,,l,1,6.6101,"[""0.829"",""0.337"",""0.670"",""0.791""]","[0,1,1,1]",0,28,28,28,1,1,0,,,0,FALSE,,,,,,,,,,,,,,,,,,,,,,,,,,,,,,,
,5ff265688f62107122f931f2,627c67a5f376d549d1c9ba92,2022-05-11_21h39.02.256,classification_task,2021.2.3,Linux x86_64,59.82292414,627c6715c52fd12f31907bcf,,,,,,,,,,,,,,,,,,,,,,,l,1,6.1062,"[""0.062"",""0.253"",""0.757"",""0.721""]","[1,1,0,1]",0,29,29,29,1,1,1,,,0,FALSE,,,,,,,,,,,,,,,,,,,,,,,,,,,,,,,
,5ff265688f62107122f931f2,627c67a5f376d549d1c9ba92,2022-05-11_21h39.02.256,classification_task,2021.2.3,Linux x86_64,59.82292414,627c6715c52fd12f31907bcf,,,,,,,,,,,,,,,,,,,,,,,a,1,3.3717,"[""0.200"",""0.476"",""0.510"",""0.971""]","[1,1,0,1]",0,30,30,30,1,0,0,,,0,FALSE,,,,,,,,,,,,,,,,,,,,,,,,,,,,,,,
,5ff265688f62107122f931f2,627c67a5f376d549d1c9ba92,2022-05-11_21h39.02.256,classification_task,2021.2.3,Linux x86_64,59.82292414,627c6715c52fd12f31907bcf,,,,,,,,,,,,,,,,,,,,,,,l,1,5.3007,"[""0.129"",""0.337"",""0.167"",""0.791""]","[1,1,0,1]",0,31,31,31,1,1,0,,,0,FALSE,,,,,,,,,,,,,,,,,,,,,,,,,,,,,,,
,5ff265688f62107122f931f2,627c67a5f376d549d1c9ba92,2022-05-11_21h39.02.256,classification_task,2021.2.3,Linux x86_64,59.82292414,627c6715c52fd12f31907bcf,,,,,,,,,,,,,,,,,,,,,,,a,0,4.0505,"[""0.390"",""0.337"",""0.670"",""0.791""]","[0,1,1,1]",0,32,32,32,1,1,0,,,0,FALSE,,,,,,,,,,,,,,,,,,,,,,,,,,,,,,,
,5ff265688f62107122f931f2,627c67a5f376d549d1c9ba92,2022-05-11_21h39.02.256,classification_task,2021.2.3,Linux x86_64,59.82292414,627c6715c52fd12f31907bcf,,,,,,,,,,,,,,,,,,,,,,,a,0,1.7782,"[""0.062"",""0.253"",""0.564"",""0.164""]","[1,1,1,0]",0,33,33,33,1,1,1,,,0,FALSE,,,,,,,,,,,,,,,,,,,,,,,,,,,,,,,
,5ff265688f62107122f931f2,627c67a5f376d549d1c9ba92,2022-05-11_21h39.02.256,classification_task,2021.2.3,Linux x86_64,59.82292414,627c6715c52fd12f31907bcf,,,,,,,,,,,,,,,,,,,,,,,l,0,1.6652,"[""0.290"",""0.390"",""0.600"",""0.922""]","[1,0,1,1]",0,34,34,34,1,0,1,,,0,FALSE,,,,,,,,,,,,,,,,,,,,,,,,,,,,,,,
,5ff265688f62107122f931f2,627c67a5f376d549d1c9ba92,2022-05-11_21h39.02.256,classification_task,2021.2.3,Linux x86_64,59.82292414,627c6715c52fd12f31907bcf,,,,,,,,,,,,,,,,,,,,,,,l,0,1.0384,"[""0.200"",""0.476"",""0.867"",""0.510""]","[1,1,1,0]",0,35,35,35,1,0,0,,,0,FALSE,,,,,,,,,,,,,,,,,,,,,,,,,,,,,,,
,5ff265688f62107122f931f2,627c67a5f376d549d1c9ba92,2022-05-11_21h39.02.256,classification_task,2021.2.3,Linux x86_64,59.82292414,627c6715c52fd12f31907bcf,,,,,,,,,,,,,,,,,,,,,,,l,1,3.101,"[""0.062"",""0.510"",""0.564"",""0.721""]","[1,0,1,1]",0,36,36,36,1,1,1,,,0,FALSE,,,,,,,,,,,,,,,,,,,,,,,,,,,,,,,
,5ff265688f62107122f931f2,627c67a5f376d549d1c9ba92,2022-05-11_21h39.02.256,classification_task,2021.2.3,Linux x86_64,59.82292414,627c6715c52fd12f31907bcf,,,,,,,,,,,,,,,,,,,,,,,l,0,0.9252,"[""0.200"",""0.476"",""0.382"",""0.971""]","[1,1,0,1]",0,37,37,37,1,0,0,,,0,FALSE,,,,,,,,,,,,,,,,,,,,,,,,,,,,,,,
,5ff265688f62107122f931f2,627c67a5f376d549d1c9ba92,2022-05-11_21h39.02.256,classification_task,2021.2.3,Linux x86_64,59.82292414,627c6715c52fd12f31907bcf,,,,,,,,,,,,,,,,,,,,,,,a,0,0.8606,"[""0.167"",""0.253"",""0.564"",""0.721""]","[0,1,1,1]",0,38,38,38,1,1,1,,,0,FALSE,,,,,,,,,,,,,,,,,,,,,,,,,,,,,,,
,5ff265688f62107122f931f2,627c67a5f376d549d1c9ba92,2022-05-11_21h39.02.256,classification_task,2021.2.3,Linux x86_64,59.82292414,627c6715c52fd12f31907bcf,,,,,,,,,,,,,,,,,,,,,,,l,0,0.5873,"[""0.290"",""0.429"",""0.378"",""0.922""]","[1,1,0,1]",0,39,39,39,1,0,1,,,0,FALSE,,,,,,,,,,,,,,,,,,,,,,,,,,,,,,,
,5ff265688f62107122f931f2,627c67a5f376d549d1c9ba92,2022-05-11_21h39.02.256,classification_task,2021.2.3,Linux x86_64,59.82292414,627c6715c52fd12f31907bcf,,,,,,,,,,,,,,,,,,,,,,,a,1,0.8703,"[""0.827"",""0.429"",""0.600"",""0.922""]","[0,1,1,1]",0,40,40,40,1,0,1,,,0,FALSE,,,,,,,,,,,,,,,,,,,,,,,,,,,,,,,
,5ff265688f62107122f931f2,627c67a5f376d549d1c9ba92,2022-05-11_21h39.02.256,classification_task,2021.2.3,Linux x86_64,59.82292414,627c6715c52fd12f31907bcf,,,,,,,,,,,,,,,,,,,,,,,a,0,0.8173,"[""0.129"",""0.337"",""0.670"",""0.390""]","[1,1,1,0]",0,41,41,41,1,1,0,,,0,FALSE,,,,,,,,,,,,,,,,,,,,,,,,,,,,,,,
,5ff265688f62107122f931f2,627c67a5f376d549d1c9ba92,2022-05-11_21h39.02.256,classification_task,2021.2.3,Linux x86_64,59.82292414,627c6715c52fd12f31907bcf,,,,,,,,,,,,,,,,,,,,,,,a,1,1.0747,"[""0.164"",""0.476"",""0.867"",""0.971""]","[0,1,1,1]",0,42,42,42,1,0,0,,,0,FALSE,,,,,,,,,,,,,,,,,,,,,,,,,,,,,,,
,5ff265688f62107122f931f2,627c67a5f376d549d1c9ba92,2022-05-11_21h39.02.256,classification_task,2021.2.3,Linux x86_64,59.82292414,627c6715c52fd12f31907bcf,,,,,,,,,,,,,,,,,,,,,,,a,0,0.776,"[""0.062"",""0.253"",""0.827"",""0.721""]","[1,1,0,1]",0,43,43,43,1,1,1,,,0,FALSE,,,,,,,,,,,,,,,,,,,,,,,,,,,,,,,
,5ff265688f62107122f931f2,627c67a5f376d549d1c9ba92,2022-05-11_21h39.02.256,classification_task,2021.2.3,Linux x86_64,59.82292414,627c6715c52fd12f31907bcf,,,,,,,,,,,,,,,,,,,,,,,a,0,0.7347,"[""0.129"",""0.510"",""0.670"",""0.791""]","[1,0,1,1]",0,44,44,44,1,1,0,,,0,FALSE,,,,,,,,,,,,,,,,,,,,,,,,,,,,,,,
,5ff265688f62107122f931f2,627c67a5f376d549d1c9ba92,2022-05-11_21h39.02.256,classification_task,2021.2.3,Linux x86_64,59.82292414,627c6715c52fd12f31907bcf,,,,,,,,,,,,,,,,,,,,,,,a,1,0.8194,"[""0.200"",""0.510"",""0.867"",""0.971""]","[1,0,1,1]",0,45,45,45,1,0,0,,,0,FALSE,,,,,,,,,,,,,,,,,,,,,,,,,,,,,,,
,5ff265688f62107122f931f2,627c67a5f376d549d1c9ba92,2022-05-11_21h39.02.256,classification_task,2021.2.3,Linux x86_64,59.82292414,627c6715c52fd12f31907bcf,,,,,,,,,,,,,,,,,,,,,,,a,1,0.885,"[""0.290"",""0.429"",""0.600"",""0.829""]","[1,1,1,0]",0,46,46,46,1,0,1,,,0,FALSE,,,,,,,,,,,,,,,,,,,,,,,,,,,,,,,
,5ff265688f62107122f931f2,627c67a5f376d549d1c9ba92,2022-05-11_21h39.02.256,classification_task,2021.2.3,Linux x86_64,59.82292414,627c6715c52fd12f31907bcf,,,,,,,,,,,,,,,,,,,,,,,l,1,0.8004,"[""0.129"",""0.337"",""0.757"",""0.791""]","[1,1,0,1]",0,47,47,47,1,1,0,,,0,FALSE,,,,,,,,,,,,,,,,,,,,,,,,,,,,,,,
,5ff265688f62107122f931f2,627c67a5f376d549d1c9ba92,2022-05-11_21h39.02.256,classification_task,2021.2.3,Linux x86_64,59.82292414,627c6715c52fd12f31907bcf,,,,,,,,,,,,,,,,,,,,,,,l,0,1.0531,"[""0.827"",""0.476"",""0.867"",""0.971""]","[0,1,1,1]",0,48,48,48,1,0,0,,,0,FALSE,,,,,,,,,,,,,,,,,,,,,,,,,,,,,,,
,5ff265688f62107122f931f2,627c67a5f376d549d1c9ba92,2022-05-11_21h39.02.256,classification_task,2021.2.3,Linux x86_64,59.82292414,627c6715c52fd12f31907bcf,,,,,,,,,,,,,,,,,,,,,,,a,0,0.774,"[""0.062"",""0.253"",""0.564"",""0.757""]","[1,1,1,0]",0,49,49,49,1,1,1,,,0,FALSE,,,,,,,,,,,,,,,,,,,,,,,,,,,,,,,
,5ff265688f62107122f931f2,627c67a5f376d549d1c9ba92,2022-05-11_21h39.02.256,classification_task,2021.2.3,Linux x86_64,59.82292414,627c6715c52fd12f31907bcf,,,,,,,,,,,,,,,,,,,,,,,l,0,0.6845,"[""0.827"",""0.429"",""0.600"",""0.922""]","[0,1,1,1]",0,50,50,50,1,0,1,,,0,FALSE,,,,,,,,,,,,,,,,,,,,,,,,,,,,,,,
,5ff265688f62107122f931f2,627c67a5f376d549d1c9ba92,2022-05-11_21h39.02.256,classification_task,2021.2.3,Linux x86_64,59.82292414,627c6715c52fd12f31907bcf,,,,,,,,,,,,,,,,,,,,,,,a,1,0.6341,"[""0.200"",""0.476"",""0.513"",""0.971""]","[1,1,0,1]",0,51,51,51,1,0,0,,,0,FALSE,,,,,,,,,,,,,,,,,,,,,,,,,,,,,,,
,5ff265688f62107122f931f2,627c67a5f376d549d1c9ba92,2022-05-11_21h39.02.256,classification_task,2021.2.3,Linux x86_64,59.82292414,627c6715c52fd12f31907bcf,,,,,,,,,,,,,,,,,,,,,,,a,0,0.5956,"[""0.829"",""0.337"",""0.670"",""0.791""]","[0,1,1,1]",0,52,52,52,1,1,0,,,0,FALSE,,,,,,,,,,,,,,,,,,,,,,,,,,,,,,,
,5ff265688f62107122f931f2,627c67a5f376d549d1c9ba92,2022-05-11_21h39.02.256,classification_task,2021.2.3,Linux x86_64,59.82292414,627c6715c52fd12f31907bcf,,,,,,,,,,,,,,,,,,,,,,,l,0,0.4704,"[""0.200"",""0.476"",""0.867"",""0.382""]","[1,1,1,0]",0,53,53,53,1,0,0,,,0,FALSE,,,,,,,,,,,,,,,,,,,,,,,,,,,,,,,
,5ff265688f62107122f931f2,627c67a5f376d549d1c9ba92,2022-05-11_21h39.02.256,classification_task,2021.2.3,Linux x86_64,59.82292414,627c6715c52fd12f31907bcf,,,,,,,,,,,,,,,,,,,,,,,a,0,0.6511,"[""0.129"",""0.337"",""0.390"",""0.791""]","[1,1,0,1]",0,54,54,54,1,1,0,,,0,FALSE,,,,,,,,,,,,,,,,,,,,,,,,,,,,,,,
,5ff265688f62107122f931f2,627c67a5f376d549d1c9ba92,2022-05-11_21h39.02.256,classification_task,2021.2.3,Linux x86_64,59.82292414,627c6715c52fd12f31907bcf,,,,,,,,,,,,,,,,,,,,,,,a,0,0.5337,"[""0.827"",""0.253"",""0.564"",""0.721""]","[0,1,1,1]",0,55,55,55,1,1,1,,,0,FALSE,,,,,,,,,,,,,,,,,,,,,,,,,,,,,,,
,5ff265688f62107122f931f2,627c67a5f376d549d1c9ba92,2022-05-11_21h39.02.256,classification_task,2021.2.3,Linux x86_64,59.82292414,627c6715c52fd12f31907bcf,,,,,,,,,,,,,,,,,,,,,,,l,0,0.6951,"[""0.200"",""0.378"",""0.867"",""0.971""]","[1,0,1,1]",0,56,56,56,1,0,0,,,0,FALSE,,,,,,,,,,,,,,,,,,,,,,,,,,,,,,,
,5ff265688f62107122f931f2,627c67a5f376d549d1c9ba92,2022-05-11_21h39.02.256,classification_task,2021.2.3,Linux x86_64,59.82292414,627c6715c52fd12f31907bcf,,,,,,,,,,,,,,,,,,,,,,,a,0,0.6524,"[""0.062"",""0.389"",""0.564"",""0.721""]","[1,0,1,1]",0,57,57,57,1,1,1,,,0,FALSE,,,,,,,,,,,,,,,,,,,,,,,,,,,,,,,
,5ff265688f62107122f931f2,627c67a5f376d549d1c9ba92,2022-05-11_21h39.02.256,classification_task,2021.2.3,Linux x86_64,59.82292414,627c6715c52fd12f31907bcf,,,,,,,,,,,,,,,,,,,,,,,a,0,0.711,"[""0.129"",""0.827"",""0.670"",""0.791""]","[1,0,1,1]",0,58,58,58,1,1,0,,,0,FALSE,,,,,,,,,,,,,,,,,,,,,,,,,,,,,,,
,5ff265688f62107122f931f2,627c67a5f376d549d1c9ba92,2022-05-11_21h39.02.256,classification_task,2021.2.3,Linux x86_64,59.82292414,627c6715c52fd12f31907bcf,,,,,,,,,,,,,,,,,,,,,,,a,0,0.5736,"[""0.062"",""0.253"",""0.829"",""0.721""]","[1,1,0,1]",0,59,59,59,1,1,1,,,0,FALSE,,,,,,,,,,,,,,,,,,,,,,,,,,,,,,,
,5ff265688f62107122f931f2,627c67a5f376d549d1c9ba92,2022-05-11_21h39.02.256,classification_task,2021.2.3,Linux x86_64,59.82292414,627c6715c52fd12f31907bcf,,,,,,,,,,,,,,,,,,,,,,,l,0,0.4513,"[""0.290"",""0.429"",""0.600"",""0.827""]","[1,1,1,0]",0,60,60,60,1,0,1,,,0,FALSE,,,,,,,,,,,,,,,,,,,,,,,,,,,,,,,
,5ff265688f62107122f931f2,627c67a5f376d549d1c9ba92,2022-05-11_21h39.02.256,classification_task,2021.2.3,Linux x86_64,59.82292414,627c6715c52fd12f31907bcf,,,,,,,,,,,,,,,,,,,,,,,l,0,0.4757,"[""0.290"",""0.513"",""0.600"",""0.922""]","[1,0,1,1]",0,61,61,61,1,0,1,,,0,FALSE,,,,,,,,,,,,,,,,,,,,,,,,,,,,,,,
,5ff265688f62107122f931f2,627c67a5f376d549d1c9ba92,2022-05-11_21h39.02.256,classification_task,2021.2.3,Linux x86_64,59.82292414,627c6715c52fd12f31907bcf,,,,,,,,,,,,,,,,,,,,,,,l,1,0.585,"[""0.129"",""0.337"",""0.670"",""0.164""]","[1,1,1,0]",0,62,62,62,1,1,0,,,0,FALSE,,,,,,,,,,,,,,,,,,,,,,,,,,,,,,,
,5ff265688f62107122f931f2,627c67a5f376d549d1c9ba92,2022-05-11_21h39.02.256,classification_task,2021.2.3,Linux x86_64,59.82292414,627c6715c52fd12f31907bcf,,,,,,,,,,,,,,,,,,,,,,,l,0,0.6336,"[""0.290"",""0.429"",""0.827"",""0.922""]","[1,1,0,1]",0,63,63,63,1,0,1,,,0,FALSE,,,,,,,,,,,,,,,,,,,,,,,,,,,,,,,
,5ff265688f62107122f931f2,627c67a5f376d549d1c9ba92,2022-05-11_21h39.02.256,classification_task,2021.2.3,Linux x86_64,59.82292414,627c6715c52fd12f31907bcf,,,,,,,,,,,,,,,,,,,,,,,,,,,,,,,,,,,,,,,0, ,,0,8.065751764,237.0054,0,0,0,0,1,2,1,,,,,,,,,,,,,,,,,,
,5ff265688f62107122f931f2,627c67a5f376d549d1c9ba92,2022-05-11_21h39.02.256,classification_task,2021.2.3,Linux x86_64,59.82292414,627c6715c52fd12f31907bcf,,,,,,,,,,,,,,,,,,,,,,,,,,,,,,,,,,,,,,,1,  ,,0,7.82462522,238.2651,0,0,0,0,1,2,1,,,,,,,,,,,,,,,,,,
,5ff265688f62107122f931f2,627c67a5f376d549d1c9ba92,2022-05-11_21h39.02.256,classification_task,2021.2.3,Linux x86_64,59.82292414,627c6715c52fd12f31907bcf,,,,,,,,,,,,,,,,,,,,,,,,,,,,,,,,,,,,,,,2,  ,,0,7.342372134,239.2545,0,0,0,0,1,2,1,,,,,,,,,,,,,,,,,,
,5ff265688f62107122f931f2,627c67a5f376d549d1c9ba92,2022-05-11_21h39.02.256,classification_task,2021.2.3,Linux x86_64,59.82292414,627c6715c52fd12f31907bcf,,,,,,,,,,,,,,,,,,,,,,,,,,,,,,,,,,,,,,,,,,,,,0,0,0,0,1,,1,,,,,,,,,,,,,,,,,,
,5ff265688f62107122f931f2,627c67a5f376d549d1c9ba92,2022-05-11_21h39.02.256,classification_task,2021.2.3,Linux x86_64,59.82292414,627c6715c52fd12f31907bcf,,,,,,,,,,,,,,,,,,,,,space,3.4555,a,0,5.9718,"[""0.827"",""0.337"",""0.670"",""0.791""]","[0,1,1,1]",0,0,0,0,1,1,0,,,0,FALSE,,,,,,,,,,,,,,,,,,,,,,,,,,,,,,,
,5ff265688f62107122f931f2,627c67a5f376d549d1c9ba92,2022-05-11_21h39.02.256,classification_task,2021.2.3,Linux x86_64,59.82292414,627c6715c52fd12f31907bcf,,,,,,,,,,,,,,,,,,,,,,,l,0,3.6206,"[""0.200"",""0.476"",""0.867"",""0.164""]","[1,1,1,0]",0,1,1,1,1,0,0,,,0,FALSE,,,,,,,,,,,,,,,,,,,,,,,,,,,,,,,
,5ff265688f62107122f931f2,627c67a5f376d549d1c9ba92,2022-05-11_21h39.02.256,classification_task,2021.2.3,Linux x86_64,59.82292414,627c6715c52fd12f31907bcf,,,,,,,,,,,,,,,,,,,,,,,l,0,3.0341,"[""0.378"",""0.429"",""0.600"",""0.922""]","[0,1,1,1]",0,2,2,2,1,0,1,,,0,FALSE,,,,,,,,,,,,,,,,,,,,,,,,,,,,,,,
,5ff265688f62107122f931f2,627c67a5f376d549d1c9ba92,2022-05-11_21h39.02.256,classification_task,2021.2.3,Linux x86_64,59.82292414,627c6715c52fd12f31907bcf,,,,,,,,,,,,,,,,,,,,,,,l,1,0.912,"[""0.062"",""0.167"",""0.564"",""0.721""]","[1,0,1,1]",0,3,3,3,1,1,1,,,0,FALSE,,,,,,,,,,,,,,,,,,,,,,,,,,,,,,,
,5ff265688f62107122f931f2,627c67a5f376d549d1c9ba92,2022-05-11_21h39.02.256,classification_task,2021.2.3,Linux x86_64,59.82292414,627c6715c52fd12f31907bcf,,,,,,,,,,,,,,,,,,,,,,,l,0,0.9351,"[""0.290"",""0.511"",""0.600"",""0.922""]","[1,0,1,1]",0,4,4,4,1,0,1,,,0,FALSE,,,,,,,,,,,,,,,,,,,,,,,,,,,,,,,
,5ff265688f62107122f931f2,627c67a5f376d549d1c9ba92,2022-05-11_21h39.02.256,classification_task,2021.2.3,Linux x86_64,59.82292414,627c6715c52fd12f31907bcf,,,,,,,,,,,,,,,,,,,,,,,a,1,1.3399,"[""0.200"",""0.476"",""0.827"",""0.971""]","[1,1,0,1]",0,5,5,5,1,0,0,,,0,FALSE,,,,,,,,,,,,,,,,,,,,,,,,,,,,,,,
,5ff265688f62107122f931f2,627c67a5f376d549d1c9ba92,2022-05-11_21h39.02.256,classification_task,2021.2.3,Linux x86_64,59.82292414,627c6715c52fd12f31907bcf,,,,,,,,,,,,,,,,,,,,,,,a,0,1.1929,"[""0.129"",""0.167"",""0.670"",""0.791""]","[1,0,1,1]",0,6,6,6,1,1,0,,,0,FALSE,,,,,,,,,,,,,,,,,,,,,,,,,,,,,,,
,5ff265688f62107122f931f2,627c67a5f376d549d1c9ba92,2022-05-11_21h39.02.256,classification_task,2021.2.3,Linux x86_64,59.82292414,627c6715c52fd12f31907bcf,,,,,,,,,,,,,,,,,,,,,,,l,1,2.0115,"[""0.062"",""0.253"",""0.513"",""0.721""]","[1,1,0,1]",0,7,7,7,1,1,1,,,0,FALSE,,,,,,,,,,,,,,,,,,,,,,,,,,,,,,,
,5ff265688f62107122f931f2,627c67a5f376d549d1c9ba92,2022-05-11_21h39.02.256,classification_task,2021.2.3,Linux x86_64,59.82292414,627c6715c52fd12f31907bcf,,,,,,,,,,,,,,,,,,,,,,,a,0,1.5298,"[""0.129"",""0.337"",""0.670"",""0.389""]","[1,1,1,0]",0,8,8,8,1,1,0,,,0,FALSE,,,,,,,,,,,,,,,,,,,,,,,,,,,,,,,
,5ff265688f62107122f931f2,627c67a5f376d549d1c9ba92,2022-05-11_21h39.02.256,classification_task,2021.2.3,Linux x86_64,59.82292414,627c6715c52fd12f31907bcf,,,,,,,,,,,,,,,,,,,,,,,l,0,1.7293,"[""0.290"",""0.429"",""0.389"",""0.922""]","[1,1,0,1]",0,9,9,9,1,0,1,,,0,FALSE,,,,,,,,,,,,,,,,,,,,,,,,,,,,,,,
,5ff265688f62107122f931f2,627c67a5f376d549d1c9ba92,2022-05-11_21h39.02.256,classification_task,2021.2.3,Linux x86_64,59.82292414,627c6715c52fd12f31907bcf,,,,,,,,,,,,,,,,,,,,,,,l,0,0.9916,"[""0.200"",""0.384"",""0.867"",""0.971""]","[1,0,1,1]",0,10,10,10,1,0,0,,,0,FALSE,,,,,,,,,,,,,,,,,,,,,,,,,,,,,,,
,5ff265688f62107122f931f2,627c67a5f376d549d1c9ba92,2022-05-11_21h39.02.256,classification_task,2021.2.3,Linux x86_64,59.82292414,627c6715c52fd12f31907bcf,,,,,,,,,,,,,,,,,,,,,,,l,1,0.9562,"[""0.129"",""0.337"",""0.164"",""0.791""]","[1,1,0,1]",0,11,11,11,1,1,0,,,0,FALSE,,,,,,,,,,,,,,,,,,,,,,,,,,,,,,,
,5ff265688f62107122f931f2,627c67a5f376d549d1c9ba92,2022-05-11_21h39.02.256,classification_task,2021.2.3,Linux x86_64,59.82292414,627c6715c52fd12f31907bcf,,,,,,,,,,,,,,,,,,,,,,,a,1,4.7042,"[""0.513"",""0.476"",""0.867"",""0.971""]","[0,1,1,1]",0,12,12,12,1,0,0,,,0,FALSE,,,,,,,,,,,,,,,,,,,,,,,,,,,,,,,
,5ff265688f62107122f931f2,627c67a5f376d549d1c9ba92,2022-05-11_21h39.02.256,classification_task,2021.2.3,Linux x86_64,59.82292414,627c6715c52fd12f31907bcf,,,,,,,,,,,,,,,,,,,,,,,l,1,4.8872,"[""0.511"",""0.253"",""0.564"",""0.721""]","[0,1,1,1]",0,13,13,13,1,1,1,,,0,FALSE,,,,,,,,,,,,,,,,,,,,,,,,,,,,,,,
,5ff265688f62107122f931f2,627c67a5f376d549d1c9ba92,2022-05-11_21h39.02.256,classification_task,2021.2.3,Linux x86_64,59.82292414,627c6715c52fd12f31907bcf,,,,,,,,,,,,,,,,,,,,,,,l,1,3.3216,"[""0.062"",""0.253"",""0.564"",""0.390""]","[1,1,1,0]",0,14,14,14,1,1,1,,,0,FALSE,,,,,,,,,,,,,,,,,,,,,,,,,,,,,,,
,5ff265688f62107122f931f2,627c67a5f376d549d1c9ba92,2022-05-11_21h39.02.256,classification_task,2021.2.3,Linux x86_64,59.82292414,627c6715c52fd12f31907bcf,,,,,,,,,,,,,,,,,,,,,,,a,1,4.3214,"[""0.290"",""0.429"",""0.600"",""0.510""]","[1,1,1,0]",0,15,15,15,1,0,1,,,0,FALSE,,,,,,,,,,,,,,,,,,,,,,,,,,,,,,,
,5ff265688f62107122f931f2,627c67a5f376d549d1c9ba92,2022-05-11_21h39.02.256,classification_task,2021.2.3,Linux x86_64,59.82292414,627c6715c52fd12f31907bcf,,,,,,,,,,,,,,,,,,,,,,,a,1,2.6823,"[""0.290"",""0.429"",""0.378"",""0.922""]","[1,1,0,1]",0,16,16,16,1,0,1,,,0,FALSE,,,,,,,,,,,,,,,,,,,,,,,,,,,,,,,
,5ff265688f62107122f931f2,627c67a5f376d549d1c9ba92,2022-05-11_21h39.02.256,classification_task,2021.2.3,Linux x86_64,59.82292414,627c6715c52fd12f31907bcf,,,,,,,,,,,,,,,,,,,,,,,l,1,2.7339,"[""0.129"",""0.382"",""0.670"",""0.791""]","[1,0,1,1]",0,17,17,17,1,1,0,,,0,FALSE,,,,,,,,,,,,,,,,,,,,,,,,,,,,,,,
,5ff265688f62107122f931f2,627c67a5f376d549d1c9ba92,2022-05-11_21h39.02.256,classification_task,2021.2.3,Linux x86_64,59.82292414,627c6715c52fd12f31907bcf,,,,,,,,,,,,,,,,,,,,,,,l,1,3.7275,"[""0.513"",""0.337"",""0.670"",""0.791""]","[0,1,1,1]",0,18,18,18,1,1,0,,,0,FALSE,,,,,,,,,,,,,,,,,,,,,,,,,,,,,,,
,5ff265688f62107122f931f2,627c67a5f376d549d1c9ba92,2022-05-11_21h39.02.256,classification_task,2021.2.3,Linux x86_64,59.82292414,627c6715c52fd12f31907bcf,,,,,,,,,,,,,,,,,,,,,,,a,1,3.7907,"[""0.510"",""0.429"",""0.600"",""0.922""]","[0,1,1,1]",0,19,19,19,1,0,1,,,0,FALSE,,,,,,,,,,,,,,,,,,,,,,,,,,,,,,,
,5ff265688f62107122f931f2,627c67a5f376d549d1c9ba92,2022-05-11_21h39.02.256,classification_task,2021.2.3,Linux x86_64,59.82292414,627c6715c52fd12f31907bcf,,,,,,,,,,,,,,,,,,,,,,,l,1,3.5545,"[""0.062"",""0.253"",""0.564"",""0.389""]","[1,1,1,0]",0,20,20,20,1,1,1,,,0,FALSE,,,,,,,,,,,,,,,,,,,,,,,,,,,,,,,
,5ff265688f62107122f931f2,627c67a5f376d549d1c9ba92,2022-05-11_21h39.02.256,classification_task,2021.2.3,Linux x86_64,59.82292414,627c6715c52fd12f31907bcf,,,,,,,,,,,,,,,,,,,,,,,l,1,5.0056,"[""0.129"",""0.337"",""0.384"",""0.791""]","[1,1,0,1]",0,21,21,21,1,1,0,,,0,FALSE,,,,,,,,,,,,,,,,,,,,,,,,,,,,,,,
,5ff265688f62107122f931f2,627c67a5f376d549d1c9ba92,2022-05-11_21h39.02.256,classification_task,2021.2.3,Linux x86_64,59.82292414,627c6715c52fd12f31907bcf,,,,,,,,,,,,,,,,,,,,,,,a,1,2.0466,"[""0.200"",""0.476"",""0.510"",""0.971""]","[1,1,0,1]",0,22,22,22,1,0,0,,,0,FALSE,,,,,,,,,,,,,,,,,,,,,,,,,,,,,,,
,5ff265688f62107122f931f2,627c67a5f376d549d1c9ba92,2022-05-11_21h39.02.256,classification_task,2021.2.3,Linux x86_64,59.82292414,627c6715c52fd12f31907bcf,,,,,,,,,,,,,,,,,,,,,,,a,1,2.8906,"[""0.290"",""0.429"",""0.600"",""0.378""]","[1,1,1,0]",0,23,23,23,1,0,1,,,0,FALSE,,,,,,,,,,,,,,,,,,,,,,,,,,,,,,,
,5ff265688f62107122f931f2,627c67a5f376d549d1c9ba92,2022-05-11_21h39.02.256,classification_task,2021.2.3,Linux x86_64,59.82292414,627c6715c52fd12f31907bcf,,,,,,,,,,,,,,,,,,,,,,,l,1,1.4228,"[""0.129"",""0.337"",""0.670"",""0.511""]","[1,1,1,0]",0,24,24,24,1,1,0,,,0,FALSE,,,,,,,,,,,,,,,,,,,,,,,,,,,,,,,
,5ff265688f62107122f931f2,627c67a5f376d549d1c9ba92,2022-05-11_21h39.02.256,classification_task,2021.2.3,Linux x86_64,59.82292414,627c6715c52fd12f31907bcf,,,,,,,,,,,,,,,,,,,,,,,l,0,4.1985,"[""0.290"",""0.827"",""0.600"",""0.922""]","[1,0,1,1]",0,25,25,25,1,0,1,,,0,FALSE,,,,,,,,,,,,,,,,,,,,,,,,,,,,,,,
,5ff265688f62107122f931f2,627c67a5f376d549d1c9ba92,2022-05-11_21h39.02.256,classification_task,2021.2.3,Linux x86_64,59.82292414,627c6715c52fd12f31907bcf,,,,,,,,,,,,,,,,,,,,,,,a,1,4.0702,"[""0.200"",""0.476"",""0.867"",""0.510""]","[1,1,1,0]",0,26,26,26,1,0,0,,,0,FALSE,,,,,,,,,,,,,,,,,,,,,,,,,,,,,,,
,5ff265688f62107122f931f2,627c67a5f376d549d1c9ba92,2022-05-11_21h39.02.256,classification_task,2021.2.3,Linux x86_64,59.82292414,627c6715c52fd12f31907bcf,,,,,,,,,,,,,,,,,,,,,,,l,1,4.6207,"[""0.062"",""0.253"",""0.757"",""0.721""]","[1,1,0,1]",0,27,27,27,1,1,1,,,0,FALSE,,,,,,,,,,,,,,,,,,,,,,,,,,,,,,,
,5ff265688f62107122f931f2,627c67a5f376d549d1c9ba92,2022-05-11_21h39.02.256,classification_task,2021.2.3,Linux x86_64,59.82292414,627c6715c52fd12f31907bcf,,,,,,,,,,,,,,,,,,,,,,,a,1,3.3985,"[""0.200"",""0.389"",""0.867"",""0.971""]","[1,0,1,1]",0,28,28,28,1,0,0,,,0,FALSE,,,,,,,,,,,,,,,,,,,,,,,,,,,,,,,
,5ff265688f62107122f931f2,627c67a5f376d549d1c9ba92,2022-05-11_21h39.02.256,classification_task,2021.2.3,Linux x86_64,59.82292414,627c6715c52fd12f31907bcf,,,,,,,,,,,,,,,,,,,,,,,l,1,1.2196,"[""0.757"",""0.253"",""0.564"",""0.721""]","[0,1,1,1]",0,29,29,29,1,1,1,,,0,FALSE,,,,,,,,,,,,,,,,,,,,,,,,,,,,,,,
,5ff265688f62107122f931f2,627c67a5f376d549d1c9ba92,2022-05-11_21h39.02.256,classification_task,2021.2.3,Linux x86_64,59.82292414,627c6715c52fd12f31907bcf,,,,,,,,,,,,,,,,,,,,,,,l,1,3.6105,"[""0.062"",""0.384"",""0.564"",""0.721""]","[1,0,1,1]",0,30,30,30,1,1,1,,,0,FALSE,,,,,,,,,,,,,,,,,,,,,,,,,,,,,,,
,5ff265688f62107122f931f2,627c67a5f376d549d1c9ba92,2022-05-11_21h39.02.256,classification_task,2021.2.3,Linux x86_64,59.82292414,627c6715c52fd12f31907bcf,,,,,,,,,,,,,,,,,,,,,,,a,1,2.8994,"[""0.827"",""0.476"",""0.867"",""0.971""]","[0,1,1,1]",0,31,31,31,1,0,0,,,0,FALSE,,,,,,,,,,,,,,,,,,,,,,,,,,,,,,,
,5ff265688f62107122f931f2,627c67a5f376d549d1c9ba92,2022-05-11_21h39.02.256,classification_task,2021.2.3,Linux x86_64,59.82292414,627c6715c52fd12f31907bcf,,,,,,,,,,,,,,,,,,,,,,,a,0,6.5258,"[""0.129"",""0.337"",""0.827"",""0.791""]","[1,1,0,1]",0,32,32,32,1,1,0,,,0,FALSE,,,,,,,,,,,,,,,,,,,,,,,,,,,,,,,
,5ff265688f62107122f931f2,627c67a5f376d549d1c9ba92,2022-05-11_21h39.02.256,classification_task,2021.2.3,Linux x86_64,59.82292414,627c6715c52fd12f31907bcf,,,,,,,,,,,,,,,,,,,,,,,l,1,1.9466,"[""0.827"",""0.253"",""0.564"",""0.721""]","[0,1,1,1]",0,33,33,33,1,1,1,,,0,FALSE,,,,,,,,,,,,,,,,,,,,,,,,,,,,,,,
,5ff265688f62107122f931f2,627c67a5f376d549d1c9ba92,2022-05-11_21h39.02.256,classification_task,2021.2.3,Linux x86_64,59.82292414,627c6715c52fd12f31907bcf,,,,,,,,,,,,,,,,,,,,,,,l,1,1.6409,"[""0.062"",""0.253"",""0.564"",""0.389""]","[1,1,1,0]",0,34,34,34,1,1,1,,,0,FALSE,,,,,,,,,,,,,,,,,,,,,,,,,,,,,,,
,5ff265688f62107122f931f2,627c67a5f376d549d1c9ba92,2022-05-11_21h39.02.256,classification_task,2021.2.3,Linux x86_64,59.82292414,627c6715c52fd12f31907bcf,,,,,,,,,,,,,,,,,,,,,,,l,1,0.856,"[""0.389"",""0.337"",""0.670"",""0.791""]","[0,1,1,1]",0,35,35,35,1,1,0,,,0,FALSE,,,,,,,,,,,,,,,,,,,,,,,,,,,,,,,
,5ff265688f62107122f931f2,627c67a5f376d549d1c9ba92,2022-05-11_21h39.02.256,classification_task,2021.2.3,Linux x86_64,59.82292414,627c6715c52fd12f31907bcf,,,,,,,,,,,,,,,,,,,,,,,l,1,1.0176,"[""0.129"",""0.337"",""0.670"",""0.389""]","[1,1,1,0]",0,36,36,36,1,1,0,,,0,FALSE,,,,,,,,,,,,,,,,,,,,,,,,,,,,,,,
,5ff265688f62107122f931f2,627c67a5f376d549d1c9ba92,2022-05-11_21h39.02.256,classification_task,2021.2.3,Linux x86_64,59.82292414,627c6715c52fd12f31907bcf,,,,,,,,,,,,,,,,,,,,,,,l,1,1.4726,"[""0.062"",""0.826"",""0.564"",""0.721""]","[1,0,1,1]",0,37,37,37,1,1,1,,,0,FALSE,,,,,,,,,,,,,,,,,,,,,,,,,,,,,,,
,5ff265688f62107122f931f2,627c67a5f376d549d1c9ba92,2022-05-11_21h39.02.256,classification_task,2021.2.3,Linux x86_64,59.82292414,627c6715c52fd12f31907bcf,,,,,,,,,,,,,,,,,,,,,,,l,1,2.0562,"[""0.062"",""0.253"",""0.384"",""0.721""]","[1,1,0,1]",0,38,38,38,1,1,1,,,0,FALSE,,,,,,,,,,,,,,,,,,,,,,,,,,,,,,,
,5ff265688f62107122f931f2,627c67a5f376d549d1c9ba92,2022-05-11_21h39.02.256,classification_task,2021.2.3,Linux x86_64,59.82292414,627c6715c52fd12f31907bcf,,,,,,,,,,,,,,,,,,,,,,,a,1,1.2463,"[""0.510"",""0.429"",""0.600"",""0.922""]","[0,1,1,1]",0,39,39,39,1,0,1,,,0,FALSE,,,,,,,,,,,,,,,,,,,,,,,,,,,,,,,
,5ff265688f62107122f931f2,627c67a5f376d549d1c9ba92,2022-05-11_21h39.02.256,classification_task,2021.2.3,Linux x86_64,59.82292414,627c6715c52fd12f31907bcf,,,,,,,,,,,,,,,,,,,,,,,a,1,4.654,"[""0.200"",""0.476"",""0.827"",""0.971""]","[1,1,0,1]",0,40,40,40,1,0,0,,,0,FALSE,,,,,,,,,,,,,,,,,,,,,,,,,,,,,,,
,5ff265688f62107122f931f2,627c67a5f376d549d1c9ba92,2022-05-11_21h39.02.256,classification_task,2021.2.3,Linux x86_64,59.82292414,627c6715c52fd12f31907bcf,,,,,,,,,,,,,,,,,,,,,,,a,0,1.4209,"[""0.129"",""0.384"",""0.670"",""0.791""]","[1,0,1,1]",0,41,41,41,1,1,0,,,0,FALSE,,,,,,,,,,,,,,,,,,,,,,,,,,,,,,,
,5ff265688f62107122f931f2,627c67a5f376d549d1c9ba92,2022-05-11_21h39.02.256,classification_task,2021.2.3,Linux x86_64,59.82292414,627c6715c52fd12f31907bcf,,,,,,,,,,,,,,,,,,,,,,,l,0,2.8725,"[""0.290"",""0.382"",""0.600"",""0.922""]","[1,0,1,1]",0,42,42,42,1,0,1,,,0,FALSE,,,,,,,,,,,,,,,,,,,,,,,,,,,,,,,
,5ff265688f62107122f931f2,627c67a5f376d549d1c9ba92,2022-05-11_21h39.02.256,classification_task,2021.2.3,Linux x86_64,59.82292414,627c6715c52fd12f31907bcf,,,,,,,,,,,,,,,,,,,,,,,a,1,2.3029,"[""0.290"",""0.429"",""0.600"",""0.382""]","[1,1,1,0]",0,43,43,43,1,0,1,,,0,FALSE,,,,,,,,,,,,,,,,,,,,,,,,,,,,,,,
,5ff265688f62107122f931f2,627c67a5f376d549d1c9ba92,2022-05-11_21h39.02.256,classification_task,2021.2.3,Linux x86_64,59.82292414,627c6715c52fd12f31907bcf,,,,,,,,,,,,,,,,,,,,,,,a,1,1.8746,"[""0.827"",""0.476"",""0.867"",""0.971""]","[0,1,1,1]",0,44,44,44,1,0,0,,,0,FALSE,,,,,,,,,,,,,,,,,,,,,,,,,,,,,,,
,5ff265688f62107122f931f2,627c67a5f376d549d1c9ba92,2022-05-11_21h39.02.256,classification_task,2021.2.3,Linux x86_64,59.82292414,627c6715c52fd12f31907bcf,,,,,,,,,,,,,,,,,,,,,,,l,0,2.6772,"[""0.200"",""0.757"",""0.867"",""0.971""]","[1,0,1,1]",0,45,45,45,1,0,0,,,0,FALSE,,,,,,,,,,,,,,,,,,,,,,,,,,,,,,,
,5ff265688f62107122f931f2,627c67a5f376d549d1c9ba92,2022-05-11_21h39.02.256,classification_task,2021.2.3,Linux x86_64,59.82292414,627c6715c52fd12f31907bcf,,,,,,,,,,,,,,,,,,,,,,,a,1,4.5377,"[""0.200"",""0.476"",""0.867"",""0.829""]","[1,1,1,0]",0,46,46,46,1,0,0,,,0,FALSE,,,,,,,,,,,,,,,,,,,,,,,,,,,,,,,
,5ff265688f62107122f931f2,627c67a5f376d549d1c9ba92,2022-05-11_21h39.02.256,classification_task,2021.2.3,Linux x86_64,59.82292414,627c6715c52fd12f31907bcf,,,,,,,,,,,,,,,,,,,,,,,a,1,1.7742,"[""0.290"",""0.429"",""0.378"",""0.922""]","[1,1,0,1]",0,47,47,47,1,0,1,,,0,FALSE,,,,,,,,,,,,,,,,,,,,,,,,,,,,,,,
,5ff265688f62107122f931f2,627c67a5f376d549d1c9ba92,2022-05-11_21h39.02.256,classification_task,2021.2.3,Linux x86_64,59.82292414,627c6715c52fd12f31907bcf,,,,,,,,,,,,,,,,,,,,,,,a,1,1.4025,"[""0.290"",""0.429"",""0.600"",""0.384""]","[1,1,1,0]",0,48,48,48,1,0,1,,,0,FALSE,,,,,,,,,,,,,,,,,,,,,,,,,,,,,,,
,5ff265688f62107122f931f2,627c67a5f376d549d1c9ba92,2022-05-11_21h39.02.256,classification_task,2021.2.3,Linux x86_64,59.82292414,627c6715c52fd12f31907bcf,,,,,,,,,,,,,,,,,,,,,,,a,1,1.7291,"[""0.200"",""0.827"",""0.867"",""0.971""]","[1,0,1,1]",0,49,49,49,1,0,0,,,0,FALSE,,,,,,,,,,,,,,,,,,,,,,,,,,,,,,,
,5ff265688f62107122f931f2,627c67a5f376d549d1c9ba92,2022-05-11_21h39.02.256,classification_task,2021.2.3,Linux x86_64,59.82292414,627c6715c52fd12f31907bcf,,,,,,,,,,,,,,,,,,,,,,,l,0,6.1065,"[""0.513"",""0.476"",""0.867"",""0.971""]","[0,1,1,1]",0,50,50,50,1,0,0,,,0,FALSE,,,,,,,,,,,,,,,,,,,,,,,,,,,,,,,
,5ff265688f62107122f931f2,627c67a5f376d549d1c9ba92,2022-05-11_21h39.02.256,classification_task,2021.2.3,Linux x86_64,59.82292414,627c6715c52fd12f31907bcf,,,,,,,,,,,,,,,,,,,,,,,l,1,5.6579,"[""0.062"",""0.253"",""0.378"",""0.721""]","[1,1,0,1]",0,51,51,51,1,1,1,,,0,FALSE,,,,,,,,,,,,,,,,,,,,,,,,,,,,,,,
,5ff265688f62107122f931f2,627c67a5f376d549d1c9ba92,2022-05-11_21h39.02.256,classification_task,2021.2.3,Linux x86_64,59.82292414,627c6715c52fd12f31907bcf,,,,,,,,,,,,,,,,,,,,,,,a,1,2.0799,"[""0.200"",""0.476"",""0.384"",""0.971""]","[1,1,0,1]",0,52,52,52,1,0,0,,,0,FALSE,,,,,,,,,,,,,,,,,,,,,,,,,,,,,,,
,5ff265688f62107122f931f2,627c67a5f376d549d1c9ba92,2022-05-11_21h39.02.256,classification_task,2021.2.3,Linux x86_64,59.82292414,627c6715c52fd12f31907bcf,,,,,,,,,,,,,,,,,,,,,,,a,0,3.9762,"[""0.513"",""0.253"",""0.564"",""0.721""]","[0,1,1,1]",0,53,53,53,1,1,1,,,0,FALSE,,,,,,,,,,,,,,,,,,,,,,,,,,,,,,,
,5ff265688f62107122f931f2,627c67a5f376d549d1c9ba92,2022-05-11_21h39.02.256,classification_task,2021.2.3,Linux x86_64,59.82292414,627c6715c52fd12f31907bcf,,,,,,,,,,,,,,,,,,,,,,,l,1,2.8712,"[""0.062"",""0.253"",""0.564"",""0.827""]","[1,1,1,0]",0,54,54,54,1,1,1,,,0,FALSE,,,,,,,,,,,,,,,,,,,,,,,,,,,,,,,
,5ff265688f62107122f931f2,627c67a5f376d549d1c9ba92,2022-05-11_21h39.02.256,classification_task,2021.2.3,Linux x86_64,59.82292414,627c6715c52fd12f31907bcf,,,,,,,,,,,,,,,,,,,,,,,l,1,1.1218,"[""0.827"",""0.337"",""0.670"",""0.791""]","[0,1,1,1]",0,55,55,55,1,1,0,,,0,FALSE,,,,,,,,,,,,,,,,,,,,,,,,,,,,,,,
,5ff265688f62107122f931f2,627c67a5f376d549d1c9ba92,2022-05-11_21h39.02.256,classification_task,2021.2.3,Linux x86_64,59.82292414,627c6715c52fd12f31907bcf,,,,,,,,,,,,,,,,,,,,,,,l,1,0.8383,"[""0.129"",""0.510"",""0.670"",""0.791""]","[1,0,1,1]",0,56,56,56,1,1,0,,,0,FALSE,,,,,,,,,,,,,,,,,,,,,,,,,,,,,,,
,5ff265688f62107122f931f2,627c67a5f376d549d1c9ba92,2022-05-11_21h39.02.256,classification_task,2021.2.3,Linux x86_64,59.82292414,627c6715c52fd12f31907bcf,,,,,,,,,,,,,,,,,,,,,,,a,1,1.3374,"[""0.200"",""0.476"",""0.867"",""0.384""]","[1,1,1,0]",0,57,57,57,1,0,0,,,0,FALSE,,,,,,,,,,,,,,,,,,,,,,,,,,,,,,,
,5ff265688f62107122f931f2,627c67a5f376d549d1c9ba92,2022-05-11_21h39.02.256,classification_task,2021.2.3,Linux x86_64,59.82292414,627c6715c52fd12f31907bcf,,,,,,,,,,,,,,,,,,,,,,,a,1,1.8276,"[""0.290"",""0.429"",""0.827"",""0.922""]","[1,1,0,1]",0,58,58,58,1,0,1,,,0,FALSE,,,,,,,,,,,,,,,,,,,,,,,,,,,,,,,
,5ff265688f62107122f931f2,627c67a5f376d549d1c9ba92,2022-05-11_21h39.02.256,classification_task,2021.2.3,Linux x86_64,59.82292414,627c6715c52fd12f31907bcf,,,,,,,,,,,,,,,,,,,,,,,a,0,1.0509,"[""0.129"",""0.337"",""0.670"",""0.826""]","[1,1,1,0]",0,59,59,59,1,1,0,,,0,FALSE,,,,,,,,,,,,,,,,,,,,,,,,,,,,,,,
,5ff265688f62107122f931f2,627c67a5f376d549d1c9ba92,2022-05-11_21h39.02.256,classification_task,2021.2.3,Linux x86_64,59.82292414,627c6715c52fd12f31907bcf,,,,,,,,,,,,,,,,,,,,,,,a,0,2.8229,"[""0.062"",""0.757"",""0.564"",""0.721""]","[1,0,1,1]",0,60,60,60,1,1,1,,,0,FALSE,,,,,,,,,,,,,,,,,,,,,,,,,,,,,,,
,5ff265688f62107122f931f2,627c67a5f376d549d1c9ba92,2022-05-11_21h39.02.256,classification_task,2021.2.3,Linux x86_64,59.82292414,627c6715c52fd12f31907bcf,,,,,,,,,,,,,,,,,,,,,,,a,1,1.3361,"[""0.827"",""0.429"",""0.600"",""0.922""]","[0,1,1,1]",0,61,61,61,1,0,1,,,0,FALSE,,,,,,,,,,,,,,,,,,,,,,,,,,,,,,,
,5ff265688f62107122f931f2,627c67a5f376d549d1c9ba92,2022-05-11_21h39.02.256,classification_task,2021.2.3,Linux x86_64,59.82292414,627c6715c52fd12f31907bcf,,,,,,,,,,,,,,,,,,,,,,,l,1,1.1626,"[""0.129"",""0.337"",""0.384"",""0.791""]","[1,1,0,1]",0,62,62,62,1,1,0,,,0,FALSE,,,,,,,,,,,,,,,,,,,,,,,,,,,,,,,
,5ff265688f62107122f931f2,627c67a5f376d549d1c9ba92,2022-05-11_21h39.02.256,classification_task,2021.2.3,Linux x86_64,59.82292414,627c6715c52fd12f31907bcf,,,,,,,,,,,,,,,,,,,,,,,l,0,2.6116,"[""0.290"",""0.164"",""0.600"",""0.922""]","[1,0,1,1]",0,63,63,63,1,0,1,,,0,FALSE,,,,,,,,,,,,,,,,,,,,,,,,,,,,,,,
,5ff265688f62107122f931f2,627c67a5f376d549d1c9ba92,2022-05-11_21h39.02.256,classification_task,2021.2.3,Linux x86_64,59.82292414,627c6715c52fd12f31907bcf,,,,,,,,,,,,,,,,,,,,,,,,,,,,,,,,,,,,,,,0, ,,0,9.030257937,241.6859,0,1,1,1,1,2,2,,,,,,,,,,,,,,,,,,
,5ff265688f62107122f931f2,627c67a5f376d549d1c9ba92,2022-05-11_21h39.02.256,classification_task,2021.2.3,Linux x86_64,59.82292414,627c6715c52fd12f31907bcf,,,,,,,,,,,,,,,,,,,,,,,,,,,,,,,,,,,,,,,1,  ,,0,8.100198413,242.6928,0,1,1,1,1,2,2,,,,,,,,,,,,,,,,,,
,5ff265688f62107122f931f2,627c67a5f376d549d1c9ba92,2022-05-11_21h39.02.256,classification_task,2021.2.3,Linux x86_64,59.82292414,627c6715c52fd12f31907bcf,,,,,,,,,,,,,,,,,,,,,,,,,,,,,,,,,,,,,,,2,  ,,0,8.341324956,243.9806,0,1,1,1,1,2,2,,,,,,,,,,,,,,,,,,
,5ff265688f62107122f931f2,627c67a5f376d549d1c9ba92,2022-05-11_21h39.02.256,classification_task,2021.2.3,Linux x86_64,59.82292414,627c6715c52fd12f31907bcf,,,,,,,,,,,,,,,,,,,,,,,,,,,,,,,,,,,,,,,,,,,,,0,1,1,1,1,,2,,,,,,,,,,,,,,,,,,
,5ff265688f62107122f931f2,627c67a5f376d549d1c9ba92,2022-05-11_21h39.02.256,classification_task,2021.2.3,Linux x86_64,59.82292414,627c6715c52fd12f31907bcf,,,,,,,,,,,,,,,,,,,,,space,6.0882,a,0,9.4535,"[""0.062"",""0.253"",""0.564"",""0.382""]","[1,1,1,0]",0,0,0,0,1,1,1,,,0,FALSE,,,,,,,,,,,,,,,,,,,,,,,,,,,,,,,
,5ff265688f62107122f931f2,627c67a5f376d549d1c9ba92,2022-05-11_21h39.02.256,classification_task,2021.2.3,Linux x86_64,59.82292414,627c6715c52fd12f31907bcf,,,,,,,,,,,,,,,,,,,,,,,l,1,3.5333,"[""0.129"",""0.337"",""0.670"",""0.384""]","[1,1,1,0]",0,1,1,1,1,1,0,,,0,FALSE,,,,,,,,,,,,,,,,,,,,,,,,,,,,,,,
,5ff265688f62107122f931f2,627c67a5f376d549d1c9ba92,2022-05-11_21h39.02.256,classification_task,2021.2.3,Linux x86_64,59.82292414,627c6715c52fd12f31907bcf,,,,,,,,,,,,,,,,,,,,,,,a,1,1.3026,"[""0.200"",""0.513"",""0.867"",""0.971""]","[1,0,1,1]",0,2,2,2,1,0,0,,,0,FALSE,,,,,,,,,,,,,,,,,,,,,,,,,,,,,,,
,5ff265688f62107122f931f2,627c67a5f376d549d1c9ba92,2022-05-11_21h39.02.256,classification_task,2021.2.3,Linux x86_64,59.82292414,627c6715c52fd12f31907bcf,,,,,,,,,,,,,,,,,,,,,,,l,1,3.6428,"[""0.062"",""0.253"",""0.167"",""0.721""]","[1,1,0,1]",0,3,3,3,1,1,1,,,0,FALSE,,,,,,,,,,,,,,,,,,,,,,,,,,,,,,,
,5ff265688f62107122f931f2,627c67a5f376d549d1c9ba92,2022-05-11_21h39.02.256,classification_task,2021.2.3,Linux x86_64,59.82292414,627c6715c52fd12f31907bcf,,,,,,,,,,,,,,,,,,,,,,,a,1,2.5738,"[""0.826"",""0.429"",""0.600"",""0.922""]","[0,1,1,1]",0,4,4,4,1,0,1,,,0,FALSE,,,,,,,,,,,,,,,,,,,,,,,,,,,,,,,
,5ff265688f62107122f931f2,627c67a5f376d549d1c9ba92,2022-05-11_21h39.02.256,classification_task,2021.2.3,Linux x86_64,59.82292414,627c6715c52fd12f31907bcf,,,,,,,,,,,,,,,,,,,,,,,l,1,1.0531,"[""0.827"",""0.253"",""0.564"",""0.721""]","[0,1,1,1]",0,5,5,5,1,1,1,,,0,FALSE,,,,,,,,,,,,,,,,,,,,,,,,,,,,,,,
,5ff265688f62107122f931f2,627c67a5f376d549d1c9ba92,2022-05-11_21h39.02.256,classification_task,2021.2.3,Linux x86_64,59.82292414,627c6715c52fd12f31907bcf,,,,,,,,,,,,,,,,,,,,,,,a,1,1.1716,"[""0.200"",""0.476"",""0.867"",""0.382""]","[1,1,1,0]",0,6,6,6,1,0,0,,,0,FALSE,,,,,,,,,,,,,,,,,,,,,,,,,,,,,,,
,5ff265688f62107122f931f2,627c67a5f376d549d1c9ba92,2022-05-11_21h39.02.256,classification_task,2021.2.3,Linux x86_64,59.82292414,627c6715c52fd12f31907bcf,,,,,,,,,,,,,,,,,,,,,,,l,1,1.0868,"[""0.129"",""0.337"",""0.513"",""0.791""]","[1,1,0,1]",0,7,7,7,1,1,0,,,0,FALSE,,,,,,,,,,,,,,,,,,,,,,,,,,,,,,,
,5ff265688f62107122f931f2,627c67a5f376d549d1c9ba92,2022-05-11_21h39.02.256,classification_task,2021.2.3,Linux x86_64,59.82292414,627c6715c52fd12f31907bcf,,,,,,,,,,,,,,,,,,,,,,,l,0,9.135,"[""0.290"",""0.429"",""0.829"",""0.922""]","[1,1,0,1]",0,8,8,8,1,0,1,,,0,FALSE,,,,,,,,,,,,,,,,,,,,,,,,,,,,,,,
,5ff265688f62107122f931f2,627c67a5f376d549d1c9ba92,2022-05-11_21h39.02.256,classification_task,2021.2.3,Linux x86_64,59.82292414,627c6715c52fd12f31907bcf,,,,,,,,,,,,,,,,,,,,,,,l,0,1.9473,"[""0.390"",""0.476"",""0.867"",""0.971""]","[0,1,1,1]",0,9,9,9,1,0,0,,,0,FALSE,,,,,,,,,,,,,,,,,,,,,,,,,,,,,,,
,5ff265688f62107122f931f2,627c67a5f376d549d1c9ba92,2022-05-11_21h39.02.256,classification_task,2021.2.3,Linux x86_64,59.82292414,627c6715c52fd12f31907bcf,,,,,,,,,,,,,,,,,,,,,,,l,0,5.9807,"[""0.200"",""0.476"",""0.510"",""0.971""]","[1,1,0,1]",0,10,10,10,1,0,0,,,0,FALSE,,,,,,,,,,,,,,,,,,,,,,,,,,,,,,,
,5ff265688f62107122f931f2,627c67a5f376d549d1c9ba92,2022-05-11_21h39.02.256,classification_task,2021.2.3,Linux x86_64,59.82292414,627c6715c52fd12f31907bcf,,,,,,,,,,,,,,,,,,,,,,,l,1,1.0465,"[""0.129"",""0.511"",""0.670"",""0.791""]","[1,0,1,1]",0,11,11,11,1,1,0,,,0,FALSE,,,,,,,,,,,,,,,,,,,,,,,,,,,,,,,
,5ff265688f62107122f931f2,627c67a5f376d549d1c9ba92,2022-05-11_21h39.02.256,classification_task,2021.2.3,Linux x86_64,59.82292414,627c6715c52fd12f31907bcf,,,,,,,,,,,,,,,,,,,,,,,a,1,1.8794,"[""0.290"",""0.429"",""0.600"",""0.829""]","[1,1,1,0]",0,12,12,12,1,0,1,,,0,FALSE,,,,,,,,,,,,,,,,,,,,,,,,,,,,,,,
,5ff265688f62107122f931f2,627c67a5f376d549d1c9ba92,2022-05-11_21h39.02.256,classification_task,2021.2.3,Linux x86_64,59.82292414,627c6715c52fd12f31907bcf,,,,,,,,,,,,,,,,,,,,,,,a,0,1.5615,"[""0.062"",""0.390"",""0.564"",""0.721""]","[1,0,1,1]",0,13,13,13,1,1,1,,,0,FALSE,,,,,,,,,,,,,,,,,,,,,,,,,,,,,,,
,5ff265688f62107122f931f2,627c67a5f376d549d1c9ba92,2022-05-11_21h39.02.256,classification_task,2021.2.3,Linux x86_64,59.82292414,627c6715c52fd12f31907bcf,,,,,,,,,,,,,,,,,,,,,,,a,0,1.0689,"[""0.384"",""0.337"",""0.670"",""0.791""]","[0,1,1,1]",0,14,14,14,1,1,0,,,0,FALSE,,,,,,,,,,,,,,,,,,,,,,,,,,,,,,,
,5ff265688f62107122f931f2,627c67a5f376d549d1c9ba92,2022-05-11_21h39.02.256,classification_task,2021.2.3,Linux x86_64,59.82292414,627c6715c52fd12f31907bcf,,,,,,,,,,,,,,,,,,,,,,,a,1,0.9247,"[""0.290"",""0.389"",""0.600"",""0.922""]","[1,0,1,1]",0,15,15,15,1,0,1,,,0,FALSE,,,,,,,,,,,,,,,,,,,,,,,,,,,,,,,
,5ff265688f62107122f931f2,627c67a5f376d549d1c9ba92,2022-05-11_21h39.02.256,classification_task,2021.2.3,Linux x86_64,59.82292414,627c6715c52fd12f31907bcf,,,,,,,,,,,,,,,,,,,,,,,a,1,0.8022,"[""0.200"",""0.476"",""0.867"",""0.827""]","[1,1,1,0]",0,16,16,16,1,0,0,,,0,FALSE,,,,,,,,,,,,,,,,,,,,,,,,,,,,,,,
,5ff265688f62107122f931f2,627c67a5f376d549d1c9ba92,2022-05-11_21h39.02.256,classification_task,2021.2.3,Linux x86_64,59.82292414,627c6715c52fd12f31907bcf,,,,,,,,,,,,,,,,,,,,,,,l,1,1.075,"[""0.062"",""0.253"",""0.564"",""0.164""]","[1,1,1,0]",0,17,17,17,1,1,1,,,0,FALSE,,,,,,,,,,,,,,,,,,,,,,,,,,,,,,,
,5ff265688f62107122f931f2,627c67a5f376d549d1c9ba92,2022-05-11_21h39.02.256,classification_task,2021.2.3,Linux x86_64,59.82292414,627c6715c52fd12f31907bcf,,,,,,,,,,,,,,,,,,,,,,,a,1,1.4695,"[""0.290"",""0.164"",""0.600"",""0.922""]","[1,0,1,1]",0,18,18,18,1,0,1,,,0,FALSE,,,,,,,,,,,,,,,,,,,,,,,,,,,,,,,
,5ff265688f62107122f931f2,627c67a5f376d549d1c9ba92,2022-05-11_21h39.02.256,classification_task,2021.2.3,Linux x86_64,59.82292414,627c6715c52fd12f31907bcf,,,,,,,,,,,,,,,,,,,,,,,a,0,0.938,"[""0.829"",""0.253"",""0.564"",""0.721""]","[0,1,1,1]",0,19,19,19,1,1,1,,,0,FALSE,,,,,,,,,,,,,,,,,,,,,,,,,,,,,,,
,5ff265688f62107122f931f2,627c67a5f376d549d1c9ba92,2022-05-11_21h39.02.256,classification_task,2021.2.3,Linux x86_64,59.82292414,627c6715c52fd12f31907bcf,,,,,,,,,,,,,,,,,,,,,,,a,0,0.9178,"[""0.062"",""0.829"",""0.564"",""0.721""]","[1,0,1,1]",0,20,20,20,1,1,1,,,0,FALSE,,,,,,,,,,,,,,,,,,,,,,,,,,,,,,,
,5ff265688f62107122f931f2,627c67a5f376d549d1c9ba92,2022-05-11_21h39.02.256,classification_task,2021.2.3,Linux x86_64,59.82292414,627c6715c52fd12f31907bcf,,,,,,,,,,,,,,,,,,,,,,,l,1,1.6199,"[""0.129"",""0.513"",""0.670"",""0.791""]","[1,0,1,1]",0,21,21,21,1,1,0,,,0,FALSE,,,,,,,,,,,,,,,,,,,,,,,,,,,,,,,
,5ff265688f62107122f931f2,627c67a5f376d549d1c9ba92,2022-05-11_21h39.02.256,classification_task,2021.2.3,Linux x86_64,59.82292414,627c6715c52fd12f31907bcf,,,,,,,,,,,,,,,,,,,,,,,l,1,0.5941,"[""0.062"",""0.253"",""0.829"",""0.721""]","[1,1,0,1]",0,22,22,22,1,1,1,,,0,FALSE,,,,,,,,,,,,,,,,,,,,,,,,,,,,,,,
,5ff265688f62107122f931f2,627c67a5f376d549d1c9ba92,2022-05-11_21h39.02.256,classification_task,2021.2.3,Linux x86_64,59.82292414,627c6715c52fd12f31907bcf,,,,,,,,,,,,,,,,,,,,,,,a,1,2.9921,"[""0.829"",""0.429"",""0.600"",""0.922""]","[0,1,1,1]",0,23,23,23,1,0,1,,,0,FALSE,,,,,,,,,,,,,,,,,,,,,,,,,,,,,,,
,5ff265688f62107122f931f2,627c67a5f376d549d1c9ba92,2022-05-11_21h39.02.256,classification_task,2021.2.3,Linux x86_64,59.82292414,627c6715c52fd12f31907bcf,,,,,,,,,,,,,,,,,,,,,,,l,1,1.9002,"[""0.129"",""0.337"",""0.670"",""0.827""]","[1,1,1,0]",0,24,24,24,1,1,0,,,0,FALSE,,,,,,,,,,,,,,,,,,,,,,,,,,,,,,,
,5ff265688f62107122f931f2,627c67a5f376d549d1c9ba92,2022-05-11_21h39.02.256,classification_task,2021.2.3,Linux x86_64,59.82292414,627c6715c52fd12f31907bcf,,,,,,,,,,,,,,,,,,,,,,,a,1,1.3046,"[""0.390"",""0.476"",""0.867"",""0.971""]","[0,1,1,1]",0,25,25,25,1,0,0,,,0,FALSE,,,,,,,,,,,,,,,,,,,,,,,,,,,,,,,
,5ff265688f62107122f931f2,627c67a5f376d549d1c9ba92,2022-05-11_21h39.02.256,classification_task,2021.2.3,Linux x86_64,59.82292414,627c6715c52fd12f31907bcf,,,,,,,,,,,,,,,,,,,,,,,l,1,1.3366,"[""0.129"",""0.337"",""0.829"",""0.791""]","[1,1,0,1]",0,26,26,26,1,1,0,,,0,FALSE,,,,,,,,,,,,,,,,,,,,,,,,,,,,,,,
,5ff265688f62107122f931f2,627c67a5f376d549d1c9ba92,2022-05-11_21h39.02.256,classification_task,2021.2.3,Linux x86_64,59.82292414,627c6715c52fd12f31907bcf,,,,,,,,,,,,,,,,,,,,,,,a,1,1.6048,"[""0.290"",""0.429"",""0.389"",""0.922""]","[1,1,0,1]",0,27,27,27,1,0,1,,,0,FALSE,,,,,,,,,,,,,,,,,,,,,,,,,,,,,,,
,5ff265688f62107122f931f2,627c67a5f376d549d1c9ba92,2022-05-11_21h39.02.256,classification_task,2021.2.3,Linux x86_64,59.82292414,627c6715c52fd12f31907bcf,,,,,,,,,,,,,,,,,,,,,,,a,0,1.6475,"[""0.511"",""0.337"",""0.670"",""0.791""]","[0,1,1,1]",0,28,28,28,1,1,0,,,0,FALSE,,,,,,,,,,,,,,,,,,,,,,,,,,,,,,,
,5ff265688f62107122f931f2,627c67a5f376d549d1c9ba92,2022-05-11_21h39.02.256,classification_task,2021.2.3,Linux x86_64,59.82292414,627c6715c52fd12f31907bcf,,,,,,,,,,,,,,,,,,,,,,,a,1,0.7691,"[""0.200"",""0.384"",""0.867"",""0.971""]","[1,0,1,1]",0,29,29,29,1,0,0,,,0,FALSE,,,,,,,,,,,,,,,,,,,,,,,,,,,,,,,
,5ff265688f62107122f931f2,627c67a5f376d549d1c9ba92,2022-05-11_21h39.02.256,classification_task,2021.2.3,Linux x86_64,59.82292414,627c6715c52fd12f31907bcf,,,,,,,,,,,,,,,,,,,,,,,a,1,1.2284,"[""0.200"",""0.476"",""0.827"",""0.971""]","[1,1,0,1]",0,30,30,30,1,0,0,,,0,FALSE,,,,,,,,,,,,,,,,,,,,,,,,,,,,,,,
,5ff265688f62107122f931f2,627c67a5f376d549d1c9ba92,2022-05-11_21h39.02.256,classification_task,2021.2.3,Linux x86_64,59.82292414,627c6715c52fd12f31907bcf,,,,,,,,,,,,,,,,,,,,,,,a,1,1.9537,"[""0.290"",""0.429"",""0.600"",""0.382""]","[1,1,1,0]",0,31,31,31,1,0,1,,,0,FALSE,,,,,,,,,,,,,,,,,,,,,,,,,,,,,,,
,5ff265688f62107122f931f2,627c67a5f376d549d1c9ba92,2022-05-11_21h39.02.256,classification_task,2021.2.3,Linux x86_64,59.82292414,627c6715c52fd12f31907bcf,,,,,,,,,,,,,,,,,,,,,,,a,1,0.8213,"[""0.290"",""0.429"",""0.389"",""0.922""]","[1,1,0,1]",0,32,32,32,1,0,1,,,0,FALSE,,,,,,,,,,,,,,,,,,,,,,,,,,,,,,,
,5ff265688f62107122f931f2,627c67a5f376d549d1c9ba92,2022-05-11_21h39.02.256,classification_task,2021.2.3,Linux x86_64,59.82292414,627c6715c52fd12f31907bcf,,,,,,,,,,,,,,,,,,,,,,,a,1,1.3202,"[""0.290"",""0.511"",""0.600"",""0.922""]","[1,0,1,1]",0,33,33,33,1,0,1,,,0,FALSE,,,,,,,,,,,,,,,,,,,,,,,,,,,,,,,
,5ff265688f62107122f931f2,627c67a5f376d549d1c9ba92,2022-05-11_21h39.02.256,classification_task,2021.2.3,Linux x86_64,59.82292414,627c6715c52fd12f31907bcf,,,,,,,,,,,,,,,,,,,,,,,l,1,1.0296,"[""0.827"",""0.337"",""0.670"",""0.791""]","[0,1,1,1]",0,34,34,34,1,1,0,,,0,FALSE,,,,,,,,,,,,,,,,,,,,,,,,,,,,,,,
,5ff265688f62107122f931f2,627c67a5f376d549d1c9ba92,2022-05-11_21h39.02.256,classification_task,2021.2.3,Linux x86_64,59.82292414,627c6715c52fd12f31907bcf,,,,,,,,,,,,,,,,,,,,,,,l,0,1.7885,"[""0.164"",""0.429"",""0.600"",""0.922""]","[0,1,1,1]",0,35,35,35,1,0,1,,,0,FALSE,,,,,,,,,,,,,,,,,,,,,,,,,,,,,,,
,5ff265688f62107122f931f2,627c67a5f376d549d1c9ba92,2022-05-11_21h39.02.256,classification_task,2021.2.3,Linux x86_64,59.82292414,627c6715c52fd12f31907bcf,,,,,,,,,,,,,,,,,,,,,,,l,1,2.9088,"[""0.129"",""0.337"",""0.827"",""0.791""]","[1,1,0,1]",0,36,36,36,1,1,0,,,0,FALSE,,,,,,,,,,,,,,,,,,,,,,,,,,,,,,,
,5ff265688f62107122f931f2,627c67a5f376d549d1c9ba92,2022-05-11_21h39.02.256,classification_task,2021.2.3,Linux x86_64,59.82292414,627c6715c52fd12f31907bcf,,,,,,,,,,,,,,,,,,,,,,,a,1,0.7275,"[""0.200"",""0.476"",""0.829"",""0.971""]","[1,1,0,1]",0,37,37,37,1,0,0,,,0,FALSE,,,,,,,,,,,,,,,,,,,,,,,,,,,,,,,
,5ff265688f62107122f931f2,627c67a5f376d549d1c9ba92,2022-05-11_21h39.02.256,classification_task,2021.2.3,Linux x86_64,59.82292414,627c6715c52fd12f31907bcf,,,,,,,,,,,,,,,,,,,,,,,a,1,0.6924,"[""0.200"",""0.476"",""0.867"",""0.827""]","[1,1,1,0]",0,38,38,38,1,0,0,,,0,FALSE,,,,,,,,,,,,,,,,,,,,,,,,,,,,,,,
,5ff265688f62107122f931f2,627c67a5f376d549d1c9ba92,2022-05-11_21h39.02.256,classification_task,2021.2.3,Linux x86_64,59.82292414,627c6715c52fd12f31907bcf,,,,,,,,,,,,,,,,,,,,,,,l,1,1.3728,"[""0.062"",""0.253"",""0.826"",""0.721""]","[1,1,0,1]",0,39,39,39,1,1,1,,,0,FALSE,,,,,,,,,,,,,,,,,,,,,,,,,,,,,,,
,5ff265688f62107122f931f2,627c67a5f376d549d1c9ba92,2022-05-11_21h39.02.256,classification_task,2021.2.3,Linux x86_64,59.82292414,627c6715c52fd12f31907bcf,,,,,,,,,,,,,,,,,,,,,,,a,0,1.6297,"[""0.062"",""0.253"",""0.564"",""0.511""]","[1,1,1,0]",0,40,40,40,1,1,1,,,0,FALSE,,,,,,,,,,,,,,,,,,,,,,,,,,,,,,,
,5ff265688f62107122f931f2,627c67a5f376d549d1c9ba92,2022-05-11_21h39.02.256,classification_task,2021.2.3,Linux x86_64,59.82292414,627c6715c52fd12f31907bcf,,,,,,,,,,,,,,,,,,,,,,,a,0,1.6619,"[""0.129"",""0.384"",""0.670"",""0.791""]","[1,0,1,1]",0,41,41,41,1,1,0,,,0,FALSE,,,,,,,,,,,,,,,,,,,,,,,,,,,,,,,
,5ff265688f62107122f931f2,627c67a5f376d549d1c9ba92,2022-05-11_21h39.02.256,classification_task,2021.2.3,Linux x86_64,59.82292414,627c6715c52fd12f31907bcf,,,,,,,,,,,,,,,,,,,,,,,l,1,1.6992,"[""0.062"",""0.164"",""0.564"",""0.721""]","[1,0,1,1]",0,42,42,42,1,1,1,,,0,FALSE,,,,,,,,,,,,,,,,,,,,,,,,,,,,,,,
,5ff265688f62107122f931f2,627c67a5f376d549d1c9ba92,2022-05-11_21h39.02.256,classification_task,2021.2.3,Linux x86_64,59.82292414,627c6715c52fd12f31907bcf,,,,,,,,,,,,,,,,,,,,,,,l,1,1.1027,"[""0.513"",""0.253"",""0.564"",""0.721""]","[0,1,1,1]",0,43,43,43,1,1,1,,,0,FALSE,,,,,,,,,,,,,,,,,,,,,,,,,,,,,,,
,5ff265688f62107122f931f2,627c67a5f376d549d1c9ba92,2022-05-11_21h39.02.256,classification_task,2021.2.3,Linux x86_64,59.82292414,627c6715c52fd12f31907bcf,,,,,,,,,,,,,,,,,,,,,,,l,1,0.684,"[""0.129"",""0.337"",""0.670"",""0.390""]","[1,1,1,0]",0,44,44,44,1,1,0,,,0,FALSE,,,,,,,,,,,,,,,,,,,,,,,,,,,,,,,
,5ff265688f62107122f931f2,627c67a5f376d549d1c9ba92,2022-05-11_21h39.02.256,classification_task,2021.2.3,Linux x86_64,59.82292414,627c6715c52fd12f31907bcf,,,,,,,,,,,,,,,,,,,,,,,l,0,0.4065,"[""0.200"",""0.389"",""0.867"",""0.971""]","[1,0,1,1]",0,45,45,45,1,0,0,,,0,FALSE,,,,,,,,,,,,,,,,,,,,,,,,,,,,,,,
,5ff265688f62107122f931f2,627c67a5f376d549d1c9ba92,2022-05-11_21h39.02.256,classification_task,2021.2.3,Linux x86_64,59.82292414,627c6715c52fd12f31907bcf,,,,,,,,,,,,,,,,,,,,,,,l,0,1.106,"[""0.167"",""0.476"",""0.867"",""0.971""]","[0,1,1,1]",0,46,46,46,1,0,0,,,0,FALSE,,,,,,,,,,,,,,,,,,,,,,,,,,,,,,,
,5ff265688f62107122f931f2,627c67a5f376d549d1c9ba92,2022-05-11_21h39.02.256,classification_task,2021.2.3,Linux x86_64,59.82292414,627c6715c52fd12f31907bcf,,,,,,,,,,,,,,,,,,,,,,,l,0,0.3603,"[""0.290"",""0.429"",""0.600"",""0.511""]","[1,1,1,0]",0,47,47,47,1,0,1,,,0,FALSE,,,,,,,,,,,,,,,,,,,,,,,,,,,,,,,
,5ff265688f62107122f931f2,627c67a5f376d549d1c9ba92,2022-05-11_21h39.02.256,classification_task,2021.2.3,Linux x86_64,59.82292414,627c6715c52fd12f31907bcf,,,,,,,,,,,,,,,,,,,,,,,l,1,0.751,"[""0.382"",""0.253"",""0.564"",""0.721""]","[0,1,1,1]",0,48,48,48,1,1,1,,,0,FALSE,,,,,,,,,,,,,,,,,,,,,,,,,,,,,,,
,5ff265688f62107122f931f2,627c67a5f376d549d1c9ba92,2022-05-11_21h39.02.256,classification_task,2021.2.3,Linux x86_64,59.82292414,627c6715c52fd12f31907bcf,,,,,,,,,,,,,,,,,,,,,,,l,1,1.0365,"[""0.129"",""0.337"",""0.827"",""0.791""]","[1,1,0,1]",0,49,49,49,1,1,0,,,0,FALSE,,,,,,,,,,,,,,,,,,,,,,,,,,,,,,,
,5ff265688f62107122f931f2,627c67a5f376d549d1c9ba92,2022-05-11_21h39.02.256,classification_task,2021.2.3,Linux x86_64,59.82292414,627c6715c52fd12f31907bcf,,,,,,,,,,,,,,,,,,,,,,,l,1,0.8189,"[""0.390"",""0.337"",""0.670"",""0.791""]","[0,1,1,1]",0,50,50,50,1,1,0,,,0,FALSE,,,,,,,,,,,,,,,,,,,,,,,,,,,,,,,
,5ff265688f62107122f931f2,627c67a5f376d549d1c9ba92,2022-05-11_21h39.02.256,classification_task,2021.2.3,Linux x86_64,59.82292414,627c6715c52fd12f31907bcf,,,,,,,,,,,,,,,,,,,,,,,l,0,0.4168,"[""0.290"",""0.164"",""0.600"",""0.922""]","[1,0,1,1]",0,51,51,51,1,0,1,,,0,FALSE,,,,,,,,,,,,,,,,,,,,,,,,,,,,,,,
,5ff265688f62107122f931f2,627c67a5f376d549d1c9ba92,2022-05-11_21h39.02.256,classification_task,2021.2.3,Linux x86_64,59.82292414,627c6715c52fd12f31907bcf,,,,,,,,,,,,,,,,,,,,,,,l,1,0.4006,"[""0.129"",""0.382"",""0.670"",""0.791""]","[1,0,1,1]",0,52,52,52,1,1,0,,,0,FALSE,,,,,,,,,,,,,,,,,,,,,,,,,,,,,,,
,5ff265688f62107122f931f2,627c67a5f376d549d1c9ba92,2022-05-11_21h39.02.256,classification_task,2021.2.3,Linux x86_64,59.82292414,627c6715c52fd12f31907bcf,,,,,,,,,,,,,,,,,,,,,,,l,0,0.4258,"[""0.290"",""0.429"",""0.167"",""0.922""]","[1,1,0,1]",0,53,53,53,1,0,1,,,0,FALSE,,,,,,,,,,,,,,,,,,,,,,,,,,,,,,,
,5ff265688f62107122f931f2,627c67a5f376d549d1c9ba92,2022-05-11_21h39.02.256,classification_task,2021.2.3,Linux x86_64,59.82292414,627c6715c52fd12f31907bcf,,,,,,,,,,,,,,,,,,,,,,,l,0,0.7255,"[""0.200"",""0.476"",""0.827"",""0.971""]","[1,1,0,1]",0,54,54,54,1,0,0,,,0,FALSE,,,,,,,,,,,,,,,,,,,,,,,,,,,,,,,
,5ff265688f62107122f931f2,627c67a5f376d549d1c9ba92,2022-05-11_21h39.02.256,classification_task,2021.2.3,Linux x86_64,59.82292414,627c6715c52fd12f31907bcf,,,,,,,,,,,,,,,,,,,,,,,l,1,1.0922,"[""0.062"",""0.253"",""0.564"",""0.829""]","[1,1,1,0]",0,55,55,55,1,1,1,,,0,FALSE,,,,,,,,,,,,,,,,,,,,,,,,,,,,,,,
,5ff265688f62107122f931f2,627c67a5f376d549d1c9ba92,2022-05-11_21h39.02.256,classification_task,2021.2.3,Linux x86_64,59.82292414,627c6715c52fd12f31907bcf,,,,,,,,,,,,,,,,,,,,,,,l,0,0.902,"[""0.290"",""0.429"",""0.600"",""0.384""]","[1,1,1,0]",0,56,56,56,1,0,1,,,0,FALSE,,,,,,,,,,,,,,,,,,,,,,,,,,,,,,,
,5ff265688f62107122f931f2,627c67a5f376d549d1c9ba92,2022-05-11_21h39.02.256,classification_task,2021.2.3,Linux x86_64,59.82292414,627c6715c52fd12f31907bcf,,,,,,,,,,,,,,,,,,,,,,,l,0,0.7593,"[""0.164"",""0.429"",""0.600"",""0.922""]","[0,1,1,1]",0,57,57,57,1,0,1,,,0,FALSE,,,,,,,,,,,,,,,,,,,,,,,,,,,,,,,
,5ff265688f62107122f931f2,627c67a5f376d549d1c9ba92,2022-05-11_21h39.02.256,classification_task,2021.2.3,Linux x86_64,59.82292414,627c6715c52fd12f31907bcf,,,,,,,,,,,,,,,,,,,,,,,l,1,0.565,"[""0.062"",""0.253"",""0.826"",""0.721""]","[1,1,0,1]",0,58,58,58,1,1,1,,,0,FALSE,,,,,,,,,,,,,,,,,,,,,,,,,,,,,,,
,5ff265688f62107122f931f2,627c67a5f376d549d1c9ba92,2022-05-11_21h39.02.256,classification_task,2021.2.3,Linux x86_64,59.82292414,627c6715c52fd12f31907bcf,,,,,,,,,,,,,,,,,,,,,,,l,0,1.2872,"[""0.829"",""0.476"",""0.867"",""0.971""]","[0,1,1,1]",0,59,59,59,1,0,0,,,0,FALSE,,,,,,,,,,,,,,,,,,,,,,,,,,,,,,,
,5ff265688f62107122f931f2,627c67a5f376d549d1c9ba92,2022-05-11_21h39.02.256,classification_task,2021.2.3,Linux x86_64,59.82292414,627c6715c52fd12f31907bcf,,,,,,,,,,,,,,,,,,,,,,,l,1,0.9919,"[""0.129"",""0.337"",""0.670"",""0.513""]","[1,1,1,0]",0,60,60,60,1,1,0,,,0,FALSE,,,,,,,,,,,,,,,,,,,,,,,,,,,,,,,
,5ff265688f62107122f931f2,627c67a5f376d549d1c9ba92,2022-05-11_21h39.02.256,classification_task,2021.2.3,Linux x86_64,59.82292414,627c6715c52fd12f31907bcf,,,,,,,,,,,,,,,,,,,,,,,a,1,0.851,"[""0.200"",""0.476"",""0.867"",""0.827""]","[1,1,1,0]",0,61,61,61,1,0,0,,,0,FALSE,,,,,,,,,,,,,,,,,,,,,,,,,,,,,,,
,5ff265688f62107122f931f2,627c67a5f376d549d1c9ba92,2022-05-11_21h39.02.256,classification_task,2021.2.3,Linux x86_64,59.82292414,627c6715c52fd12f31907bcf,,,,,,,,,,,,,,,,,,,,,,,a,1,0.8032,"[""0.200"",""0.384"",""0.867"",""0.971""]","[1,0,1,1]",0,62,62,62,1,0,0,,,0,FALSE,,,,,,,,,,,,,,,,,,,,,,,,,,,,,,,
,5ff265688f62107122f931f2,627c67a5f376d549d1c9ba92,2022-05-11_21h39.02.256,classification_task,2021.2.3,Linux x86_64,59.82292414,627c6715c52fd12f31907bcf,,,,,,,,,,,,,,,,,,,,,,,a,0,1.429,"[""0.062"",""0.390"",""0.564"",""0.721""]","[1,0,1,1]",0,63,63,63,1,1,1,,,0,FALSE,,,,,,,,,,,,,,,,,,,,,,,,,,,,,,,
,5ff265688f62107122f931f2,627c67a5f376d549d1c9ba92,2022-05-11_21h39.02.256,classification_task,2021.2.3,Linux x86_64,59.82292414,627c6715c52fd12f31907bcf,,,,,,,,,,,,,,,,,,,,,,,,,,,,,,,,,,,,,,,0, ,,0,7.652391975,175.8,0,2,2,2,1,2,3,,,,,,,,,,,,,,,,,,
,5ff265688f62107122f931f2,627c67a5f376d549d1c9ba92,2022-05-11_21h39.02.256,classification_task,2021.2.3,Linux x86_64,59.82292414,627c6715c52fd12f31907bcf,,,,,,,,,,,,,,,,,,,,,,,,,,,,,,,,,,,,,,,1,  ,,0,7.893518519,176.616,0,2,2,2,1,2,3,,,,,,,,,,,,,,,,,,
,5ff265688f62107122f931f2,627c67a5f376d549d1c9ba92,2022-05-11_21h39.02.256,classification_task,2021.2.3,Linux x86_64,59.82292414,627c6715c52fd12f31907bcf,,,,,,,,,,,,,,,,,,,,,,,,,,,,,,,,,,,,,,,2,  ,,0,6.997905644,177.6798,0,2,2,2,1,2,3,,,,,,,,,,,,,,,,,,
,5ff265688f62107122f931f2,627c67a5f376d549d1c9ba92,2022-05-11_21h39.02.256,classification_task,2021.2.3,Linux x86_64,59.82292414,627c6715c52fd12f31907bcf,,,,,,,,,,,,,,,,,,,,,,,,,,,,,,,,,,,,,,,,,,,,,0,2,2,2,1,,3,,,,,,,,,,,,,,,,,,
,5ff265688f62107122f931f2,627c67a5f376d549d1c9ba92,2022-05-11_21h39.02.256,classification_task,2021.2.3,Linux x86_64,59.82292414,627c6715c52fd12f31907bcf,,,,,,,,,,,,,,,,,,,,,,,,,,,,,,,,,,,,,,,,,,,,,,,,,,,,,I believe the aid is a competent performer,,0.7,0,4,672.9663,0,0,0,0,1,0,,,,,
,5ff265688f62107122f931f2,627c67a5f376d549d1c9ba92,2022-05-11_21h39.02.256,classification_task,2021.2.3,Linux x86_64,59.82292414,627c6715c52fd12f31907bcf,,,,,,,,,,,,,,,,,,,,,,,,,,,,,,,,,,,,,,,,,,,,,,,,,,,,,I trust the aid,,0.7,0,4,674.5162,0,0,0,0,1,0,,,,,
,5ff265688f62107122f931f2,627c67a5f376d549d1c9ba92,2022-05-11_21h39.02.256,classification_task,2021.2.3,Linux x86_64,59.82292414,627c6715c52fd12f31907bcf,,,,,,,,,,,,,,,,,,,,,,,,,,,,,,,,,,,,,,,,,,,,,,,,,,,,,I have confidence in the advice given by the aid,,0.7,0,4,676.5543,0,0,0,0,1,0,,,,,
,5ff265688f62107122f931f2,627c67a5f376d549d1c9ba92,2022-05-11_21h39.02.256,classification_task,2021.2.3,Linux x86_64,59.82292414,627c6715c52fd12f31907bcf,,,,,,,,,,,,,,,,,,,,,,,,,,,,,,,,,,,,,,,,,,,,,,,,,,,,,I can depend on the aid,,0.7,0,5,678.6054,0,0,0,0,1,0,,,,,
,5ff265688f62107122f931f2,627c67a5f376d549d1c9ba92,2022-05-11_21h39.02.256,classification_task,2021.2.3,Linux x86_64,59.82292414,627c6715c52fd12f31907bcf,,,,,,,,,,,,,,,,,,,,,,,,,,,,,,,,,,,,,,,,,,,,,,,,,,,,,I can rely on the aid to behave in consistent ways,,0.7,0,5,680.3588,0,0,0,0,1,0,,,,,
,5ff265688f62107122f931f2,627c67a5f376d549d1c9ba92,2022-05-11_21h39.02.256,classification_task,2021.2.3,Linux x86_64,59.82292414,627c6715c52fd12f31907bcf,,,,,,,,,,,,,,,,,,,,,,,,,,,,,,,,,,,,,,,,,,,,,,,,,,,,,I can rely on the aid to do its best every time I take its advice,,0.7,0,5,684.3758,0,0,0,0,1,0,,,,,
,5ff265688f62107122f931f2,627c67a5f376d549d1c9ba92,2022-05-11_21h39.02.256,classification_task,2021.2.3,Linux x86_64,59.82292414,627c6715c52fd12f31907bcf,,,,,,,,,,,,,,,,,,,,,,,,,,,,,,,,,,,,,,,,,,,,,,,,,,,,,"On trials you completed with assistance from the aid, how frequently did you think the aid was correct?",,0.7,0,most of the times,,0,0,0,0,1,0,,,,,
,5ff265688f62107122f931f2,627c67a5f376d549d1c9ba92,2022-05-11_21h39.02.256,classification_task,2021.2.3,Linux x86_64,59.82292414,627c6715c52fd12f31907bcf,,,,,,,,,,,,,,,,,,,,,,,,,,,,,,,,,,,,,,,,,,,,,,,,,,,,,"On trials you completed without the aid, how frequently did you think you were correct?",,0.7,0,not most of the times,,0,0,0,0,1,0,,,,,
,5ff265688f62107122f931f2,627c67a5f376d549d1c9ba92,2022-05-11_21h39.02.256,classification_task,2021.2.3,Linux x86_64,59.82292414,627c6715c52fd12f31907bcf,,,,,,,,,,,,,,,,,,,,,,,,,,,,,,,,,,,,,,,,,,,,,,,,,,,,,,,,,,,0,0,0,0,1,,,,,,
,5ff265688f62107122f931f2,627c67a5f376d549d1c9ba92,2022-05-11_21h39.02.256,classification_task,2021.2.3,Linux x86_64,59.82292414,627c6715c52fd12f31907bcf,,,,,,,,,,,,,,,,,,,,,,,,,,,,,,,,,,,,,,,,,,,,,,,,,,,,,,,,,,,,,,,,,space,2.0262,706.8292,,
,5ff265688f62107122f931f2,627c67a5f376d549d1c9ba92,2022-05-11_21h39.02.256,classification_task,2021.2.3,Linux x86_64,59.82292414,627c6715c52fd12f31907bcf,,,,,,,,,,,,,,,,,,,,,,,,,,,,,,,,,,,,,,,,,,,,,,,,,,,,,,,,,,,,,,,,,,,,"Mozilla/5.0 (X11; Linux x86_64) AppleWebKit/537.36 (KHTML, like Gecko) Chrome/97.0.4692.99 Safari/537.36",
,5ff265688f62107122f931f2,627c67a5f376d549d1c9ba92,2022-05-11_21h39.02.256,classification_task,2021.2.3,Linux x86_64,59.82292414,627c6715c52fd12f31907bcf,,,,,,,,,,,,,,,,,,,,,,,,,,,,,,,,,,,,,,,,,,,,,,,,,,,,,,,,,,,,,,,,,,,,,LOWLIGHT
