usingWebGL,participant,session,date,expName,psychopyVersion,OS,frameRate,study_id,signatures_friend,signatures_foe,band_ranges_top,band_ranges_bottom,formitemText,formtype,formundefined,formitemWidth,formindex,formresponse,formrt,key_resp_2.keys,key_resp_2.rt,tute_resp.keys,tute_resp.rt,tutorial.thisRepN,tutorial.thisTrialN,tutorial.thisN,tutorial.thisIndex,tutorial.ran,key_resp_4.keys,key_resp_4.rt,key_resp.keys,key_resp.corr,lines_presented,is_signal_presented,trials.thisRepN,trials.thisTrialN,trials.thisN,trials.thisIndex,trials.ran,vessel,active_band,lines,is_signal,supported_pos,catch_trial,key_resp.rt,debrief_formindex,debrief_formitemText,debrief_formtype,debrief_formitemWidth,debrief_formresponse,debrief_formrt,phases.thisRepN,phases.thisTrialN,phases.thisN,phases.thisIndex,phases.ran,phases.order,phase,key_resp_3.keys,trustitemText,trusttype,trustitemWidth,trustindex,trustresponse,trustrt,support_status.thisRepN,support_status.thisTrialN,support_status.thisN,support_status.thisIndex,support_status.ran,support_status.order,key_resp_5.keys,key_resp_5.rt,globalClockTime,userAgent,manualCondition
TRUE,5ffaa11c9f655e4700248b70,627c6935d6f332341a5a75b5,2022-05-11_20h56.26.385,classification_task,2021.2.3,MacIntel,60.0024001,627c6715c52fd12f31907bcf,,,,,,,,,,,,,,,,,,,,,,,,,,,,,,,,,,,,,,,,,,,,,,,,,,,,,,,,,,,,,,,,,,,,,
,5ffaa11c9f655e4700248b70,627c6935d6f332341a5a75b5,2022-05-11_20h56.26.385,classification_task,2021.2.3,MacIntel,60.0024001,627c6715c52fd12f31907bcf,"[[""0.184"",""0.447"",""0.596"",""0.924""],[""0.291"",""0.560"",""0.859"",""0.959""]]","[[""0.066"",""0.352"",""0.666"",""0.814""],[""0.132"",""0.406"",""0.495"",""0.763""]]","[1,10]","[100,1000]",Video game experience,,,0.7,0,,,,,,,,,,,,,,,,,,,,,,,,,,,,,,,,,,,,,,,,,,,,,,,,,,,,,,,,,,,,
,5ffaa11c9f655e4700248b70,627c6935d6f332341a5a75b5,2022-05-11_20h56.26.385,classification_task,2021.2.3,MacIntel,60.0024001,627c6715c52fd12f31907bcf,,,,,Approximately how many hours did you spend playing video games in the last week?,,,0.7,0,2,,,,,,,,,,,,,,,,,,,,,,,,,,,,,,,,,,,,,,,,,,,,,,,,,,,,,,,,,,,
,5ffaa11c9f655e4700248b70,627c6935d6f332341a5a75b5,2022-05-11_20h56.26.385,classification_task,2021.2.3,MacIntel,60.0024001,627c6715c52fd12f31907bcf,,,,,"Which game did you play the most this year? (Enter ""None"" if you didn't play any)",,,0.7,0,FIFA 2022,,,,,,,,,,,,,,,,,,,,,,,,,,,,,,,,,,,,,,,,,,,,,,,,,,,,,,,,,,,
,5ffaa11c9f655e4700248b70,627c6935d6f332341a5a75b5,2022-05-11_20h56.26.385,classification_task,2021.2.3,MacIntel,60.0024001,627c6715c52fd12f31907bcf,,,,,Visual perception,,,0.7,0,,,,,,,,,,,,,,,,,,,,,,,,,,,,,,,,,,,,,,,,,,,,,,,,,,,,,,,,,,,,
,5ffaa11c9f655e4700248b70,627c6935d6f332341a5a75b5,2022-05-11_20h56.26.385,classification_task,2021.2.3,MacIntel,60.0024001,627c6715c52fd12f31907bcf,,,,,Do you have any form of color blindness?,,,0.7,0,No,47.45,,,,,,,,,,,,,,,,,,,,,,,,,,,,,,,,,,,,,,,,,,,,,,,,,,,,,,,,,,
,5ffaa11c9f655e4700248b70,627c6935d6f332341a5a75b5,2022-05-11_20h56.26.385,classification_task,2021.2.3,MacIntel,60.0024001,627c6715c52fd12f31907bcf,,,,,Do you use software to change the colour temperature of your screen (e.g. f.lux)?,,,0.7,0,No,48.3495,,,,,,,,,,,,,,,,,,,,,,,,,,,,,,,,,,,,,,,,,,,,,,,,,,,,,,,,,,
,5ffaa11c9f655e4700248b70,627c6935d6f332341a5a75b5,2022-05-11_20h56.26.385,classification_task,2021.2.3,MacIntel,60.0024001,627c6715c52fd12f31907bcf,,,,,,,,,,,,space,153.3522,space,16.9962,0,0,0,0,1,,,,,,,,,,,,,,,,,,,,,,,,,,,,,,,,,,,,,,,,,,,,,,,,,
,5ffaa11c9f655e4700248b70,627c6935d6f332341a5a75b5,2022-05-11_20h56.26.385,classification_task,2021.2.3,MacIntel,60.0024001,627c6715c52fd12f31907bcf,,,,,,,,,,,,,,space,25.2478,1,0,1,0,1,,,,,,,,,,,,,,,,,,,,,,,,,,,,,,,,,,,,,,,,,,,,,,,,,
,5ffaa11c9f655e4700248b70,627c6935d6f332341a5a75b5,2022-05-11_20h56.26.385,classification_task,2021.2.3,MacIntel,60.0024001,627c6715c52fd12f31907bcf,,,,,,,,,,,,,,space,51.7178,2,0,2,0,1,,,,,,,,,,,,,,,,,,,,,,,,,,,,,,,,,,,,,,,,,,,,,,,,,
,5ffaa11c9f655e4700248b70,627c6935d6f332341a5a75b5,2022-05-11_20h56.26.385,classification_task,2021.2.3,MacIntel,60.0024001,627c6715c52fd12f31907bcf,,,,,,,,,,,,,,space,110.114,3,0,3,0,1,,,,,,,,,,,,,,,,,,,,,,,,,,,,,,,,,,,,,,,,,,,,,,,,,
,5ffaa11c9f655e4700248b70,627c6935d6f332341a5a75b5,2022-05-11_20h56.26.385,classification_task,2021.2.3,MacIntel,60.0024001,627c6715c52fd12f31907bcf,,,,,,,,,,,,,,space,61.699,4,0,4,0,1,,,,,,,,,,,,,,,,,,,,,,,,,,,,,,,,,,,,,,,,,,,,,,,,,
,5ffaa11c9f655e4700248b70,627c6935d6f332341a5a75b5,2022-05-11_20h56.26.385,classification_task,2021.2.3,MacIntel,60.0024001,627c6715c52fd12f31907bcf,,,,,,,,,,,,,,,,,,,,,space,40.9722,,0,"[""0.184"",""0.447"",""0.726"",""0.924""]","[1,1,0,1]",0,0,0,0,1,0,0,,,1,FALSE,,,,,,,,,,,,,,,,,,,,,,,,,,,,,,,,
,5ffaa11c9f655e4700248b70,627c6935d6f332341a5a75b5,2022-05-11_20h56.26.385,classification_task,2021.2.3,MacIntel,60.0024001,627c6715c52fd12f31907bcf,,,,,,,,,,,,,,,,,,,,,,,l,1,"[""0.132"",""0.406"",""0.226"",""0.763""]","[1,1,0,1]",0,1,1,1,1,1,1,,,1,FALSE,5.0788,,,,,,,,,,,,,,,,,,,,,,,,,,,,,,,
,5ffaa11c9f655e4700248b70,627c6935d6f332341a5a75b5,2022-05-11_20h56.26.385,classification_task,2021.2.3,MacIntel,60.0024001,627c6715c52fd12f31907bcf,,,,,,,,,,,,,,,,,,,,,,,a,1,"[""0.231"",""0.447"",""0.596"",""0.924""]","[0,1,1,1]",0,2,2,2,1,0,0,,,1,FALSE,4.9492,,,,,,,,,,,,,,,,,,,,,,,,,,,,,,,
,5ffaa11c9f655e4700248b70,627c6935d6f332341a5a75b5,2022-05-11_20h56.26.385,classification_task,2021.2.3,MacIntel,60.0024001,627c6715c52fd12f31907bcf,,,,,,,,,,,,,,,,,,,,,,,a,1,"[""0.184"",""0.447"",""0.596"",""0.705""]","[1,1,1,0]",0,3,3,3,1,0,0,,,1,FALSE,6.3859,,,,,,,,,,,,,,,,,,,,,,,,,,,,,,,
,5ffaa11c9f655e4700248b70,627c6935d6f332341a5a75b5,2022-05-11_20h56.26.385,classification_task,2021.2.3,MacIntel,60.0024001,627c6715c52fd12f31907bcf,,,,,,,,,,,,,,,,,,,,,,,l,1,"[""0.132"",""0.406"",""0.495"",""0.233""]","[1,1,1,0]",0,4,4,4,1,1,1,,,1,FALSE,2.9797,,,,,,,,,,,,,,,,,,,,,,,,,,,,,,,
,5ffaa11c9f655e4700248b70,627c6935d6f332341a5a75b5,2022-05-11_20h56.26.385,classification_task,2021.2.3,MacIntel,60.0024001,627c6715c52fd12f31907bcf,,,,,,,,,,,,,,,,,,,,,,,l,1,"[""0.705"",""0.406"",""0.495"",""0.763""]","[0,1,1,1]",0,5,5,5,1,1,1,,,1,FALSE,3.3163,,,,,,,,,,,,,,,,,,,,,,,,,,,,,,,
,5ffaa11c9f655e4700248b70,627c6935d6f332341a5a75b5,2022-05-11_20h56.26.385,classification_task,2021.2.3,MacIntel,60.0024001,627c6715c52fd12f31907bcf,,,,,,,,,,,,,,,,,,,,,,,l,1,"[""0.066"",""0.352"",""0.233"",""0.814""]","[1,1,0,1]",0,6,6,6,1,1,0,,,1,FALSE,2.78,,,,,,,,,,,,,,,,,,,,,,,,,,,,,,,
,5ffaa11c9f655e4700248b70,627c6935d6f332341a5a75b5,2022-05-11_20h56.26.385,classification_task,2021.2.3,MacIntel,60.0024001,627c6715c52fd12f31907bcf,,,,,,,,,,,,,,,,,,,,,,,l,1,"[""0.066"",""0.711"",""0.666"",""0.814""]","[1,0,1,1]",0,7,7,7,1,1,0,,,1,FALSE,2.4356,,,,,,,,,,,,,,,,,,,,,,,,,,,,,,,
,5ffaa11c9f655e4700248b70,627c6935d6f332341a5a75b5,2022-05-11_20h56.26.385,classification_task,2021.2.3,MacIntel,60.0024001,627c6715c52fd12f31907bcf,,,,,,,,,,,,,,,,,,,,,,,l,1,"[""0.066"",""0.352"",""0.666"",""0.708""]","[1,1,1,0]",0,8,8,8,1,1,0,,,1,FALSE,1.9852,,,,,,,,,,,,,,,,,,,,,,,,,,,,,,,
,5ffaa11c9f655e4700248b70,627c6935d6f332341a5a75b5,2022-05-11_20h56.26.385,classification_task,2021.2.3,MacIntel,60.0024001,627c6715c52fd12f31907bcf,,,,,,,,,,,,,,,,,,,,,,,,0,"[""0.632"",""0.560"",""0.859"",""0.959""]","[0,1,1,1]",0,9,9,9,1,0,1,,,1,FALSE,,,,,,,,,,,,,,,,,,,,,,,,,,,,,,,,
,5ffaa11c9f655e4700248b70,627c6935d6f332341a5a75b5,2022-05-11_20h56.26.385,classification_task,2021.2.3,MacIntel,60.0024001,627c6715c52fd12f31907bcf,,,,,,,,,,,,,,,,,,,,,,,a,1,"[""0.184"",""0.632"",""0.596"",""0.924""]","[1,0,1,1]",0,10,10,10,1,0,0,,,1,FALSE,2.7124,,,,,,,,,,,,,,,,,,,,,,,,,,,,,,,
,5ffaa11c9f655e4700248b70,627c6935d6f332341a5a75b5,2022-05-11_20h56.26.385,classification_task,2021.2.3,MacIntel,60.0024001,627c6715c52fd12f31907bcf,,,,,,,,,,,,,,,,,,,,,,,a,1,"[""0.291"",""0.560"",""0.859"",""0.240""]","[1,1,1,0]",0,11,11,11,1,0,1,,,1,FALSE,3.5556,,,,,,,,,,,,,,,,,,,,,,,,,,,,,,,
,5ffaa11c9f655e4700248b70,627c6935d6f332341a5a75b5,2022-05-11_20h56.26.385,classification_task,2021.2.3,MacIntel,60.0024001,627c6715c52fd12f31907bcf,,,,,,,,,,,,,,,,,,,,,,,l,1,"[""0.132"",""0.709"",""0.495"",""0.763""]","[1,0,1,1]",0,12,12,12,1,1,1,,,1,FALSE,2.8188,,,,,,,,,,,,,,,,,,,,,,,,,,,,,,,
,5ffaa11c9f655e4700248b70,627c6935d6f332341a5a75b5,2022-05-11_20h56.26.385,classification_task,2021.2.3,MacIntel,60.0024001,627c6715c52fd12f31907bcf,,,,,,,,,,,,,,,,,,,,,,,a,1,"[""0.291"",""0.233"",""0.859"",""0.959""]","[1,0,1,1]",0,13,13,13,1,0,1,,,1,FALSE,3.1978,,,,,,,,,,,,,,,,,,,,,,,,,,,,,,,
,5ffaa11c9f655e4700248b70,627c6935d6f332341a5a75b5,2022-05-11_20h56.26.385,classification_task,2021.2.3,MacIntel,60.0024001,627c6715c52fd12f31907bcf,,,,,,,,,,,,,,,,,,,,,,,a,1,"[""0.291"",""0.560"",""0.231"",""0.959""]","[1,1,0,1]",0,14,14,14,1,0,1,,,1,FALSE,3.7341,,,,,,,,,,,,,,,,,,,,,,,,,,,,,,,
,5ffaa11c9f655e4700248b70,627c6935d6f332341a5a75b5,2022-05-11_20h56.26.385,classification_task,2021.2.3,MacIntel,60.0024001,627c6715c52fd12f31907bcf,,,,,,,,,,,,,,,,,,,,,,,a,0,"[""0.726"",""0.352"",""0.666"",""0.814""]","[0,1,1,1]",0,15,15,15,1,1,0,,,1,FALSE,5.0977,,,,,,,,,,,,,,,,,,,,,,,,,,,,,,,
,5ffaa11c9f655e4700248b70,627c6935d6f332341a5a75b5,2022-05-11_20h56.26.385,classification_task,2021.2.3,MacIntel,60.0024001,627c6715c52fd12f31907bcf,,,,,,,,,,,,,,,,,,,,,,,l,1,"[""0.066"",""0.352"",""0.666"",""0.240""]","[1,1,1,0]",0,16,16,16,1,1,0,,,1,FALSE,2.7687,,,,,,,,,,,,,,,,,,,,,,,,,,,,,,,
,5ffaa11c9f655e4700248b70,627c6935d6f332341a5a75b5,2022-05-11_20h56.26.385,classification_task,2021.2.3,MacIntel,60.0024001,627c6715c52fd12f31907bcf,,,,,,,,,,,,,,,,,,,,,,,a,1,"[""0.226"",""0.447"",""0.596"",""0.924""]","[0,1,1,1]",0,17,17,17,1,0,0,,,1,FALSE,2.7161,,,,,,,,,,,,,,,,,,,,,,,,,,,,,,,
,5ffaa11c9f655e4700248b70,627c6935d6f332341a5a75b5,2022-05-11_20h56.26.385,classification_task,2021.2.3,MacIntel,60.0024001,627c6715c52fd12f31907bcf,,,,,,,,,,,,,,,,,,,,,,,a,1,"[""0.184"",""0.447"",""0.233"",""0.924""]","[1,1,0,1]",0,18,18,18,1,0,0,,,1,FALSE,4.9159,,,,,,,,,,,,,,,,,,,,,,,,,,,,,,,
,5ffaa11c9f655e4700248b70,627c6935d6f332341a5a75b5,2022-05-11_20h56.26.385,classification_task,2021.2.3,MacIntel,60.0024001,627c6715c52fd12f31907bcf,,,,,,,,,,,,,,,,,,,,,,,l,1,"[""0.132"",""0.406"",""0.495"",""0.252""]","[1,1,1,0]",0,19,19,19,1,1,1,,,1,FALSE,5.6641,,,,,,,,,,,,,,,,,,,,,,,,,,,,,,,
,5ffaa11c9f655e4700248b70,627c6935d6f332341a5a75b5,2022-05-11_20h56.26.385,classification_task,2021.2.3,MacIntel,60.0024001,627c6715c52fd12f31907bcf,,,,,,,,,,,,,,,,,,,,,,,a,1,"[""0.291"",""0.705"",""0.859"",""0.959""]","[1,0,1,1]",0,20,20,20,1,0,1,,,1,FALSE,2.4165,,,,,,,,,,,,,,,,,,,,,,,,,,,,,,,
,5ffaa11c9f655e4700248b70,627c6935d6f332341a5a75b5,2022-05-11_20h56.26.385,classification_task,2021.2.3,MacIntel,60.0024001,627c6715c52fd12f31907bcf,,,,,,,,,,,,,,,,,,,,,,,a,1,"[""0.184"",""0.231"",""0.596"",""0.924""]","[1,0,1,1]",0,21,21,21,1,0,0,,,1,FALSE,2.4339,,,,,,,,,,,,,,,,,,,,,,,,,,,,,,,
,5ffaa11c9f655e4700248b70,627c6935d6f332341a5a75b5,2022-05-11_20h56.26.385,classification_task,2021.2.3,MacIntel,60.0024001,627c6715c52fd12f31907bcf,,,,,,,,,,,,,,,,,,,,,,,l,1,"[""0.132"",""0.406"",""0.028"",""0.763""]","[1,1,0,1]",0,22,22,22,1,1,1,,,1,FALSE,2.5166,,,,,,,,,,,,,,,,,,,,,,,,,,,,,,,
,5ffaa11c9f655e4700248b70,627c6935d6f332341a5a75b5,2022-05-11_20h56.26.385,classification_task,2021.2.3,MacIntel,60.0024001,627c6715c52fd12f31907bcf,,,,,,,,,,,,,,,,,,,,,,,a,1,"[""0.184"",""0.447"",""0.596"",""0.726""]","[1,1,1,0]",0,23,23,23,1,0,0,,,1,FALSE,1.9758,,,,,,,,,,,,,,,,,,,,,,,,,,,,,,,
,5ffaa11c9f655e4700248b70,627c6935d6f332341a5a75b5,2022-05-11_20h56.26.385,classification_task,2021.2.3,MacIntel,60.0024001,627c6715c52fd12f31907bcf,,,,,,,,,,,,,,,,,,,,,,,a,1,"[""0.291"",""0.560"",""0.724"",""0.959""]","[1,1,0,1]",0,24,24,24,1,0,1,,,1,FALSE,2.08,,,,,,,,,,,,,,,,,,,,,,,,,,,,,,,
,5ffaa11c9f655e4700248b70,627c6935d6f332341a5a75b5,2022-05-11_20h56.26.385,classification_task,2021.2.3,MacIntel,60.0024001,627c6715c52fd12f31907bcf,,,,,,,,,,,,,,,,,,,,,,,l,1,"[""0.132"",""0.717"",""0.495"",""0.763""]","[1,0,1,1]",0,25,25,25,1,1,1,,,1,FALSE,3.0666,,,,,,,,,,,,,,,,,,,,,,,,,,,,,,,
,5ffaa11c9f655e4700248b70,627c6935d6f332341a5a75b5,2022-05-11_20h56.26.385,classification_task,2021.2.3,MacIntel,60.0024001,627c6715c52fd12f31907bcf,,,,,,,,,,,,,,,,,,,,,,,a,1,"[""0.291"",""0.560"",""0.859"",""0.726""]","[1,1,1,0]",0,26,26,26,1,0,1,,,1,FALSE,2.8686,,,,,,,,,,,,,,,,,,,,,,,,,,,,,,,
,5ffaa11c9f655e4700248b70,627c6935d6f332341a5a75b5,2022-05-11_20h56.26.385,classification_task,2021.2.3,MacIntel,60.0024001,627c6715c52fd12f31907bcf,,,,,,,,,,,,,,,,,,,,,,,a,1,"[""0.226"",""0.560"",""0.859"",""0.959""]","[0,1,1,1]",0,27,27,27,1,0,1,,,1,FALSE,6.8882,,,,,,,,,,,,,,,,,,,,,,,,,,,,,,,
,5ffaa11c9f655e4700248b70,627c6935d6f332341a5a75b5,2022-05-11_20h56.26.385,classification_task,2021.2.3,MacIntel,60.0024001,627c6715c52fd12f31907bcf,,,,,,,,,,,,,,,,,,,,,,,a,0,"[""0.726"",""0.406"",""0.495"",""0.763""]","[0,1,1,1]",0,28,28,28,1,1,1,,,1,FALSE,4.0173,,,,,,,,,,,,,,,,,,,,,,,,,,,,,,,
,5ffaa11c9f655e4700248b70,627c6935d6f332341a5a75b5,2022-05-11_20h56.26.385,classification_task,2021.2.3,MacIntel,60.0024001,627c6715c52fd12f31907bcf,,,,,,,,,,,,,,,,,,,,,,,l,1,"[""0.066"",""0.708"",""0.666"",""0.814""]","[1,0,1,1]",0,29,29,29,1,1,0,,,1,FALSE,3.0146,,,,,,,,,,,,,,,,,,,,,,,,,,,,,,,
,5ffaa11c9f655e4700248b70,627c6935d6f332341a5a75b5,2022-05-11_20h56.26.385,classification_task,2021.2.3,MacIntel,60.0024001,627c6715c52fd12f31907bcf,,,,,,,,,,,,,,,,,,,,,,,a,0,"[""0.240"",""0.352"",""0.666"",""0.814""]","[0,1,1,1]",0,30,30,30,1,1,0,,,1,FALSE,4.1334,,,,,,,,,,,,,,,,,,,,,,,,,,,,,,,
,5ffaa11c9f655e4700248b70,627c6935d6f332341a5a75b5,2022-05-11_20h56.26.385,classification_task,2021.2.3,MacIntel,60.0024001,627c6715c52fd12f31907bcf,,,,,,,,,,,,,,,,,,,,,,,l,1,"[""0.066"",""0.352"",""0.711"",""0.814""]","[1,1,0,1]",0,31,31,31,1,1,0,,,1,FALSE,8.4202,,,,,,,,,,,,,,,,,,,,,,,,,,,,,,,
,5ffaa11c9f655e4700248b70,627c6935d6f332341a5a75b5,2022-05-11_20h56.26.385,classification_task,2021.2.3,MacIntel,60.0024001,627c6715c52fd12f31907bcf,,,,,,,,,,,,,,,,,,,,,,,a,0,"[""0.705"",""0.406"",""0.495"",""0.763""]","[0,1,1,1]",0,32,32,32,1,1,1,,,1,FALSE,3.3469,,,,,,,,,,,,,,,,,,,,,,,,,,,,,,,
,5ffaa11c9f655e4700248b70,627c6935d6f332341a5a75b5,2022-05-11_20h56.26.385,classification_task,2021.2.3,MacIntel,60.0024001,627c6715c52fd12f31907bcf,,,,,,,,,,,,,,,,,,,,,,,a,1,"[""0.291"",""0.560"",""0.233"",""0.959""]","[1,1,0,1]",0,33,33,33,1,0,1,,,1,FALSE,3.2191,,,,,,,,,,,,,,,,,,,,,,,,,,,,,,,
,5ffaa11c9f655e4700248b70,627c6935d6f332341a5a75b5,2022-05-11_20h56.26.385,classification_task,2021.2.3,MacIntel,60.0024001,627c6715c52fd12f31907bcf,,,,,,,,,,,,,,,,,,,,,,,a,1,"[""0.291"",""0.560"",""0.859"",""0.226""]","[1,1,1,0]",0,34,34,34,1,0,1,,,1,FALSE,1.1349,,,,,,,,,,,,,,,,,,,,,,,,,,,,,,,
,5ffaa11c9f655e4700248b70,627c6935d6f332341a5a75b5,2022-05-11_20h56.26.385,classification_task,2021.2.3,MacIntel,60.0024001,627c6715c52fd12f31907bcf,,,,,,,,,,,,,,,,,,,,,,,l,1,"[""0.066"",""0.352"",""0.226"",""0.814""]","[1,1,0,1]",0,35,35,35,1,1,0,,,1,FALSE,1.4757,,,,,,,,,,,,,,,,,,,,,,,,,,,,,,,
,5ffaa11c9f655e4700248b70,627c6935d6f332341a5a75b5,2022-05-11_20h56.26.385,classification_task,2021.2.3,MacIntel,60.0024001,627c6715c52fd12f31907bcf,,,,,,,,,,,,,,,,,,,,,,,l,0,"[""0.632"",""0.447"",""0.596"",""0.924""]","[0,1,1,1]",0,36,36,36,1,0,0,,,1,FALSE,2.6265,,,,,,,,,,,,,,,,,,,,,,,,,,,,,,,
,5ffaa11c9f655e4700248b70,627c6935d6f332341a5a75b5,2022-05-11_20h56.26.385,classification_task,2021.2.3,MacIntel,60.0024001,627c6715c52fd12f31907bcf,,,,,,,,,,,,,,,,,,,,,,,a,0,"[""0.231"",""0.352"",""0.666"",""0.814""]","[0,1,1,1]",0,37,37,37,1,1,0,,,1,FALSE,1.1994,,,,,,,,,,,,,,,,,,,,,,,,,,,,,,,
,5ffaa11c9f655e4700248b70,627c6935d6f332341a5a75b5,2022-05-11_20h56.26.385,classification_task,2021.2.3,MacIntel,60.0024001,627c6715c52fd12f31907bcf,,,,,,,,,,,,,,,,,,,,,,,a,1,"[""0.291"",""0.252"",""0.859"",""0.959""]","[1,0,1,1]",0,38,38,38,1,0,1,,,1,FALSE,1.1259,,,,,,,,,,,,,,,,,,,,,,,,,,,,,,,
,5ffaa11c9f655e4700248b70,627c6935d6f332341a5a75b5,2022-05-11_20h56.26.385,classification_task,2021.2.3,MacIntel,60.0024001,627c6715c52fd12f31907bcf,,,,,,,,,,,,,,,,,,,,,,,a,0,"[""0.132"",""0.724"",""0.495"",""0.763""]","[1,0,1,1]",0,39,39,39,1,1,1,,,1,FALSE,1.0786,,,,,,,,,,,,,,,,,,,,,,,,,,,,,,,
,5ffaa11c9f655e4700248b70,627c6935d6f332341a5a75b5,2022-05-11_20h56.26.385,classification_task,2021.2.3,MacIntel,60.0024001,627c6715c52fd12f31907bcf,,,,,,,,,,,,,,,,,,,,,,,l,1,"[""0.066"",""0.226"",""0.666"",""0.814""]","[1,0,1,1]",0,40,40,40,1,1,0,,,1,FALSE,1.5613,,,,,,,,,,,,,,,,,,,,,,,,,,,,,,,
,5ffaa11c9f655e4700248b70,627c6935d6f332341a5a75b5,2022-05-11_20h56.26.385,classification_task,2021.2.3,MacIntel,60.0024001,627c6715c52fd12f31907bcf,,,,,,,,,,,,,,,,,,,,,,,a,1,"[""0.184"",""0.713"",""0.596"",""0.924""]","[1,0,1,1]",0,41,41,41,1,0,0,,,1,FALSE,1.5415,,,,,,,,,,,,,,,,,,,,,,,,,,,,,,,
,5ffaa11c9f655e4700248b70,627c6935d6f332341a5a75b5,2022-05-11_20h56.26.385,classification_task,2021.2.3,MacIntel,60.0024001,627c6715c52fd12f31907bcf,,,,,,,,,,,,,,,,,,,,,,,a,1,"[""0.184"",""0.447"",""0.596"",""0.713""]","[1,1,1,0]",0,42,42,42,1,0,0,,,1,FALSE,1.387,,,,,,,,,,,,,,,,,,,,,,,,,,,,,,,
,5ffaa11c9f655e4700248b70,627c6935d6f332341a5a75b5,2022-05-11_20h56.26.385,classification_task,2021.2.3,MacIntel,60.0024001,627c6715c52fd12f31907bcf,,,,,,,,,,,,,,,,,,,,,,,a,1,"[""0.709"",""0.560"",""0.859"",""0.959""]","[0,1,1,1]",0,43,43,43,1,0,1,,,1,FALSE,2.8282,,,,,,,,,,,,,,,,,,,,,,,,,,,,,,,
,5ffaa11c9f655e4700248b70,627c6935d6f332341a5a75b5,2022-05-11_20h56.26.385,classification_task,2021.2.3,MacIntel,60.0024001,627c6715c52fd12f31907bcf,,,,,,,,,,,,,,,,,,,,,,,l,1,"[""0.132"",""0.406"",""0.495"",""0.726""]","[1,1,1,0]",0,44,44,44,1,1,1,,,1,FALSE,2.0684,,,,,,,,,,,,,,,,,,,,,,,,,,,,,,,
,5ffaa11c9f655e4700248b70,627c6935d6f332341a5a75b5,2022-05-11_20h56.26.385,classification_task,2021.2.3,MacIntel,60.0024001,627c6715c52fd12f31907bcf,,,,,,,,,,,,,,,,,,,,,,,a,1,"[""0.184"",""0.447"",""0.252"",""0.924""]","[1,1,0,1]",0,45,45,45,1,0,0,,,1,FALSE,2.1297,,,,,,,,,,,,,,,,,,,,,,,,,,,,,,,
,5ffaa11c9f655e4700248b70,627c6935d6f332341a5a75b5,2022-05-11_20h56.26.385,classification_task,2021.2.3,MacIntel,60.0024001,627c6715c52fd12f31907bcf,,,,,,,,,,,,,,,,,,,,,,,l,1,"[""0.132"",""0.406"",""0.231"",""0.763""]","[1,1,0,1]",0,46,46,46,1,1,1,,,1,FALSE,2.2398,,,,,,,,,,,,,,,,,,,,,,,,,,,,,,,
,5ffaa11c9f655e4700248b70,627c6935d6f332341a5a75b5,2022-05-11_20h56.26.385,classification_task,2021.2.3,MacIntel,60.0024001,627c6715c52fd12f31907bcf,,,,,,,,,,,,,,,,,,,,,,,l,1,"[""0.066"",""0.352"",""0.666"",""0.717""]","[1,1,1,0]",0,47,47,47,1,1,0,,,1,FALSE,1.5804,,,,,,,,,,,,,,,,,,,,,,,,,,,,,,,
,5ffaa11c9f655e4700248b70,627c6935d6f332341a5a75b5,2022-05-11_20h56.26.385,classification_task,2021.2.3,MacIntel,60.0024001,627c6715c52fd12f31907bcf,,,,,,,,,,,,,,,,,,,,,,,a,0,"[""0.709"",""0.352"",""0.666"",""0.814""]","[0,1,1,1]",0,48,48,48,1,1,0,,,1,FALSE,1.6191,,,,,,,,,,,,,,,,,,,,,,,,,,,,,,,
,5ffaa11c9f655e4700248b70,627c6935d6f332341a5a75b5,2022-05-11_20h56.26.385,classification_task,2021.2.3,MacIntel,60.0024001,627c6715c52fd12f31907bcf,,,,,,,,,,,,,,,,,,,,,,,a,1,"[""0.713"",""0.447"",""0.596"",""0.924""]","[0,1,1,1]",0,49,49,49,1,0,0,,,1,FALSE,1.3109,,,,,,,,,,,,,,,,,,,,,,,,,,,,,,,
,5ffaa11c9f655e4700248b70,627c6935d6f332341a5a75b5,2022-05-11_20h56.26.385,classification_task,2021.2.3,MacIntel,60.0024001,627c6715c52fd12f31907bcf,,,,,,,,,,,,,,,,,,,,,,,a,0,"[""0.708"",""0.406"",""0.495"",""0.763""]","[0,1,1,1]",0,50,50,50,1,1,1,,,1,FALSE,2.262,,,,,,,,,,,,,,,,,,,,,,,,,,,,,,,
,5ffaa11c9f655e4700248b70,627c6935d6f332341a5a75b5,2022-05-11_20h56.26.385,classification_task,2021.2.3,MacIntel,60.0024001,627c6715c52fd12f31907bcf,,,,,,,,,,,,,,,,,,,,,,,a,1,"[""0.184"",""0.726"",""0.596"",""0.924""]","[1,0,1,1]",0,51,51,51,1,0,0,,,1,FALSE,1.2376,,,,,,,,,,,,,,,,,,,,,,,,,,,,,,,
,5ffaa11c9f655e4700248b70,627c6935d6f332341a5a75b5,2022-05-11_20h56.26.385,classification_task,2021.2.3,MacIntel,60.0024001,627c6715c52fd12f31907bcf,,,,,,,,,,,,,,,,,,,,,,,l,1,"[""0.132"",""0.406"",""0.495"",""0.713""]","[1,1,1,0]",0,52,52,52,1,1,1,,,1,FALSE,2.4251,,,,,,,,,,,,,,,,,,,,,,,,,,,,,,,
,5ffaa11c9f655e4700248b70,627c6935d6f332341a5a75b5,2022-05-11_20h56.26.385,classification_task,2021.2.3,MacIntel,60.0024001,627c6715c52fd12f31907bcf,,,,,,,,,,,,,,,,,,,,,,,a,1,"[""0.291"",""0.560"",""0.252"",""0.959""]","[1,1,0,1]",0,53,53,53,1,0,1,,,1,FALSE,1.3348,,,,,,,,,,,,,,,,,,,,,,,,,,,,,,,
,5ffaa11c9f655e4700248b70,627c6935d6f332341a5a75b5,2022-05-11_20h56.26.385,classification_task,2021.2.3,MacIntel,60.0024001,627c6715c52fd12f31907bcf,,,,,,,,,,,,,,,,,,,,,,,l,0,"[""0.291"",""0.226"",""0.859"",""0.959""]","[1,0,1,1]",0,54,54,54,1,0,1,,,1,FALSE,2.9973,,,,,,,,,,,,,,,,,,,,,,,,,,,,,,,
,5ffaa11c9f655e4700248b70,627c6935d6f332341a5a75b5,2022-05-11_20h56.26.385,classification_task,2021.2.3,MacIntel,60.0024001,627c6715c52fd12f31907bcf,,,,,,,,,,,,,,,,,,,,,,,a,1,"[""0.184"",""0.447"",""0.596"",""0.705""]","[1,1,1,0]",0,55,55,55,1,0,0,,,1,FALSE,1.4152,,,,,,,,,,,,,,,,,,,,,,,,,,,,,,,
,5ffaa11c9f655e4700248b70,627c6935d6f332341a5a75b5,2022-05-11_20h56.26.385,classification_task,2021.2.3,MacIntel,60.0024001,627c6715c52fd12f31907bcf,,,,,,,,,,,,,,,,,,,,,,,l,1,"[""0.066"",""0.726"",""0.666"",""0.814""]","[1,0,1,1]",0,56,56,56,1,1,0,,,1,FALSE,1.299,,,,,,,,,,,,,,,,,,,,,,,,,,,,,,,
,5ffaa11c9f655e4700248b70,627c6935d6f332341a5a75b5,2022-05-11_20h56.26.385,classification_task,2021.2.3,MacIntel,60.0024001,627c6715c52fd12f31907bcf,,,,,,,,,,,,,,,,,,,,,,,a,1,"[""0.226"",""0.560"",""0.859"",""0.959""]","[0,1,1,1]",0,57,57,57,1,0,1,,,1,FALSE,1.3805,,,,,,,,,,,,,,,,,,,,,,,,,,,,,,,
,5ffaa11c9f655e4700248b70,627c6935d6f332341a5a75b5,2022-05-11_20h56.26.385,classification_task,2021.2.3,MacIntel,60.0024001,627c6715c52fd12f31907bcf,,,,,,,,,,,,,,,,,,,,,,,a,0,"[""0.132"",""0.231"",""0.495"",""0.763""]","[1,0,1,1]",0,58,58,58,1,1,1,,,1,FALSE,1.9786,,,,,,,,,,,,,,,,,,,,,,,,,,,,,,,
,5ffaa11c9f655e4700248b70,627c6935d6f332341a5a75b5,2022-05-11_20h56.26.385,classification_task,2021.2.3,MacIntel,60.0024001,627c6715c52fd12f31907bcf,,,,,,,,,,,,,,,,,,,,,,,a,1,"[""0.184"",""0.447"",""0.708"",""0.924""]","[1,1,0,1]",0,59,59,59,1,0,0,,,1,FALSE,2.4541,,,,,,,,,,,,,,,,,,,,,,,,,,,,,,,
,5ffaa11c9f655e4700248b70,627c6935d6f332341a5a75b5,2022-05-11_20h56.26.385,classification_task,2021.2.3,MacIntel,60.0024001,627c6715c52fd12f31907bcf,,,,,,,,,,,,,,,,,,,,,,,l,1,"[""0.066"",""0.352"",""0.724"",""0.814""]","[1,1,0,1]",0,60,60,60,1,1,0,,,1,FALSE,1.2193,,,,,,,,,,,,,,,,,,,,,,,,,,,,,,,
,5ffaa11c9f655e4700248b70,627c6935d6f332341a5a75b5,2022-05-11_20h56.26.385,classification_task,2021.2.3,MacIntel,60.0024001,627c6715c52fd12f31907bcf,,,,,,,,,,,,,,,,,,,,,,,l,1,"[""0.066"",""0.352"",""0.666"",""0.702""]","[1,1,1,0]",0,61,61,61,1,1,0,,,1,FALSE,1.197,,,,,,,,,,,,,,,,,,,,,,,,,,,,,,,
,5ffaa11c9f655e4700248b70,627c6935d6f332341a5a75b5,2022-05-11_20h56.26.385,classification_task,2021.2.3,MacIntel,60.0024001,627c6715c52fd12f31907bcf,,,,,,,,,,,,,,,,,,,,,,,l,1,"[""0.132"",""0.406"",""0.713"",""0.763""]","[1,1,0,1]",0,62,62,62,1,1,1,,,1,FALSE,2.444,,,,,,,,,,,,,,,,,,,,,,,,,,,,,,,
,5ffaa11c9f655e4700248b70,627c6935d6f332341a5a75b5,2022-05-11_20h56.26.385,classification_task,2021.2.3,MacIntel,60.0024001,627c6715c52fd12f31907bcf,,,,,,,,,,,,,,,,,,,,,,,a,1,"[""0.291"",""0.560"",""0.859"",""0.711""]","[1,1,1,0]",0,63,63,63,1,0,1,,,1,FALSE,1.5853,,,,,,,,,,,,,,,,,,,,,,,,,,,,,,,
,5ffaa11c9f655e4700248b70,627c6935d6f332341a5a75b5,2022-05-11_20h56.26.385,classification_task,2021.2.3,MacIntel,60.0024001,627c6715c52fd12f31907bcf,,,,,,,,,,,,,,,,,,,,,,,,,,,,,,,,,,,,,,,0, ,,0,10,799.2588,0,0,0,0,1,2,1,,,,,,,,,,,,,,,,,,
,5ffaa11c9f655e4700248b70,627c6935d6f332341a5a75b5,2022-05-11_20h56.26.385,classification_task,2021.2.3,MacIntel,60.0024001,627c6715c52fd12f31907bcf,,,,,,,,,,,,,,,,,,,,,,,,,,,,,,,,,,,,,,,1,  ,,0,9.878793724,810.4245,0,0,0,0,1,2,1,,,,,,,,,,,,,,,,,,
,5ffaa11c9f655e4700248b70,627c6935d6f332341a5a75b5,2022-05-11_20h56.26.385,classification_task,2021.2.3,MacIntel,60.0024001,627c6715c52fd12f31907bcf,,,,,,,,,,,,,,,,,,,,,,,,,,,,,,,,,,,,,,,2,  ,,0,4.080504115,829.7227,0,0,0,0,1,2,1,,,,,,,,,,,,,,,,,,
,5ffaa11c9f655e4700248b70,627c6935d6f332341a5a75b5,2022-05-11_20h56.26.385,classification_task,2021.2.3,MacIntel,60.0024001,627c6715c52fd12f31907bcf,,,,,,,,,,,,,,,,,,,,,,,,,,,,,,,,,,,,,,,,,,,,,0,0,0,0,1,,1,,,,,,,,,,,,,,,,,,
,5ffaa11c9f655e4700248b70,627c6935d6f332341a5a75b5,2022-05-11_20h56.26.385,classification_task,2021.2.3,MacIntel,60.0024001,627c6715c52fd12f31907bcf,,,,,,,,,,,,,,,,,,,,,space,41.8316,a,0,"[""0.226"",""0.406"",""0.495"",""0.763""]","[0,1,1,1]",0,0,0,0,1,1,1,,,1,FALSE,3.2542,,,,,,,,,,,,,,,,,,,,,,,,,,,,,,,
,5ffaa11c9f655e4700248b70,627c6935d6f332341a5a75b5,2022-05-11_20h56.26.385,classification_task,2021.2.3,MacIntel,60.0024001,627c6715c52fd12f31907bcf,,,,,,,,,,,,,,,,,,,,,,,l,1,"[""0.233"",""0.352"",""0.666"",""0.814""]","[0,1,1,1]",0,1,1,1,1,1,0,,,1,FALSE,2.0306,,,,,,,,,,,,,,,,,,,,,,,,,,,,,,,
,5ffaa11c9f655e4700248b70,627c6935d6f332341a5a75b5,2022-05-11_20h56.26.385,classification_task,2021.2.3,MacIntel,60.0024001,627c6715c52fd12f31907bcf,,,,,,,,,,,,,,,,,,,,,,,l,1,"[""0.066"",""0.352"",""0.226"",""0.814""]","[1,1,0,1]",0,2,2,2,1,1,0,,,1,FALSE,1.5104,,,,,,,,,,,,,,,,,,,,,,,,,,,,,,,
,5ffaa11c9f655e4700248b70,627c6935d6f332341a5a75b5,2022-05-11_20h56.26.385,classification_task,2021.2.3,MacIntel,60.0024001,627c6715c52fd12f31907bcf,,,,,,,,,,,,,,,,,,,,,,,a,1,"[""0.724"",""0.560"",""0.859"",""0.959""]","[0,1,1,1]",0,3,3,3,1,0,1,,,1,FALSE,1.6069,,,,,,,,,,,,,,,,,,,,,,,,,,,,,,,
,5ffaa11c9f655e4700248b70,627c6935d6f332341a5a75b5,2022-05-11_20h56.26.385,classification_task,2021.2.3,MacIntel,60.0024001,627c6715c52fd12f31907bcf,,,,,,,,,,,,,,,,,,,,,,,a,1,"[""0.291"",""0.560"",""0.859"",""0.713""]","[1,1,1,0]",0,4,4,4,1,0,1,,,1,FALSE,1.7487,,,,,,,,,,,,,,,,,,,,,,,,,,,,,,,
,5ffaa11c9f655e4700248b70,627c6935d6f332341a5a75b5,2022-05-11_20h56.26.385,classification_task,2021.2.3,MacIntel,60.0024001,627c6715c52fd12f31907bcf,,,,,,,,,,,,,,,,,,,,,,,a,1,"[""0.184"",""0.447"",""0.596"",""0.231""]","[1,1,1,0]",0,5,5,5,1,0,0,,,1,FALSE,2.5435,,,,,,,,,,,,,,,,,,,,,,,,,,,,,,,
,5ffaa11c9f655e4700248b70,627c6935d6f332341a5a75b5,2022-05-11_20h56.26.385,classification_task,2021.2.3,MacIntel,60.0024001,627c6715c52fd12f31907bcf,,,,,,,,,,,,,,,,,,,,,,,a,1,"[""0.184"",""0.447"",""0.713"",""0.924""]","[1,1,0,1]",0,6,6,6,1,0,0,,,1,FALSE,1.4638,,,,,,,,,,,,,,,,,,,,,,,,,,,,,,,
,5ffaa11c9f655e4700248b70,627c6935d6f332341a5a75b5,2022-05-11_20h56.26.385,classification_task,2021.2.3,MacIntel,60.0024001,627c6715c52fd12f31907bcf,,,,,,,,,,,,,,,,,,,,,,,l,1,"[""0.132"",""0.406"",""0.708"",""0.763""]","[1,1,0,1]",0,7,7,7,1,1,1,,,1,FALSE,1.8021,,,,,,,,,,,,,,,,,,,,,,,,,,,,,,,
,5ffaa11c9f655e4700248b70,627c6935d6f332341a5a75b5,2022-05-11_20h56.26.385,classification_task,2021.2.3,MacIntel,60.0024001,627c6715c52fd12f31907bcf,,,,,,,,,,,,,,,,,,,,,,,a,1,"[""0.184"",""0.702"",""0.596"",""0.924""]","[1,0,1,1]",0,8,8,8,1,0,0,,,1,FALSE,1.4143,,,,,,,,,,,,,,,,,,,,,,,,,,,,,,,
,5ffaa11c9f655e4700248b70,627c6935d6f332341a5a75b5,2022-05-11_20h56.26.385,classification_task,2021.2.3,MacIntel,60.0024001,627c6715c52fd12f31907bcf,,,,,,,,,,,,,,,,,,,,,,,a,1,"[""0.291"",""0.252"",""0.859"",""0.959""]","[1,0,1,1]",0,9,9,9,1,0,1,,,1,FALSE,1.7578,,,,,,,,,,,,,,,,,,,,,,,,,,,,,,,
,5ffaa11c9f655e4700248b70,627c6935d6f332341a5a75b5,2022-05-11_20h56.26.385,classification_task,2021.2.3,MacIntel,60.0024001,627c6715c52fd12f31907bcf,,,,,,,,,,,,,,,,,,,,,,,l,1,"[""0.066"",""0.352"",""0.666"",""0.702""]","[1,1,1,0]",0,10,10,10,1,1,0,,,1,FALSE,1.5286,,,,,,,,,,,,,,,,,,,,,,,,,,,,,,,
,5ffaa11c9f655e4700248b70,627c6935d6f332341a5a75b5,2022-05-11_20h56.26.385,classification_task,2021.2.3,MacIntel,60.0024001,627c6715c52fd12f31907bcf,,,,,,,,,,,,,,,,,,,,,,,l,1,"[""0.066"",""0.231"",""0.666"",""0.814""]","[1,0,1,1]",0,11,11,11,1,1,0,,,1,FALSE,1.0794,,,,,,,,,,,,,,,,,,,,,,,,,,,,,,,
,5ffaa11c9f655e4700248b70,627c6935d6f332341a5a75b5,2022-05-11_20h56.26.385,classification_task,2021.2.3,MacIntel,60.0024001,627c6715c52fd12f31907bcf,,,,,,,,,,,,,,,,,,,,,,,a,1,"[""0.291"",""0.560"",""0.726"",""0.959""]","[1,1,0,1]",0,12,12,12,1,0,1,,,1,FALSE,1.9315,,,,,,,,,,,,,,,,,,,,,,,,,,,,,,,
,5ffaa11c9f655e4700248b70,627c6935d6f332341a5a75b5,2022-05-11_20h56.26.385,classification_task,2021.2.3,MacIntel,60.0024001,627c6715c52fd12f31907bcf,,,,,,,,,,,,,,,,,,,,,,,l,1,"[""0.132"",""0.726"",""0.495"",""0.763""]","[1,0,1,1]",0,13,13,13,1,1,1,,,1,FALSE,1.8409,,,,,,,,,,,,,,,,,,,,,,,,,,,,,,,
,5ffaa11c9f655e4700248b70,627c6935d6f332341a5a75b5,2022-05-11_20h56.26.385,classification_task,2021.2.3,MacIntel,60.0024001,627c6715c52fd12f31907bcf,,,,,,,,,,,,,,,,,,,,,,,l,0,"[""0.708"",""0.447"",""0.596"",""0.924""]","[0,1,1,1]",0,14,14,14,1,0,0,,,1,FALSE,7.3537,,,,,,,,,,,,,,,,,,,,,,,,,,,,,,,
,5ffaa11c9f655e4700248b70,627c6935d6f332341a5a75b5,2022-05-11_20h56.26.385,classification_task,2021.2.3,MacIntel,60.0024001,627c6715c52fd12f31907bcf,,,,,,,,,,,,,,,,,,,,,,,l,1,"[""0.132"",""0.406"",""0.495"",""0.233""]","[1,1,1,0]",0,15,15,15,1,1,1,,,1,FALSE,2.1281,,,,,,,,,,,,,,,,,,,,,,,,,,,,,,,
,5ffaa11c9f655e4700248b70,627c6935d6f332341a5a75b5,2022-05-11_20h56.26.385,classification_task,2021.2.3,MacIntel,60.0024001,627c6715c52fd12f31907bcf,,,,,,,,,,,,,,,,,,,,,,,l,1,"[""0.066"",""0.352"",""0.226"",""0.814""]","[1,1,0,1]",0,16,16,16,1,1,0,,,1,FALSE,2.3096,,,,,,,,,,,,,,,,,,,,,,,,,,,,,,,
,5ffaa11c9f655e4700248b70,627c6935d6f332341a5a75b5,2022-05-11_20h56.26.385,classification_task,2021.2.3,MacIntel,60.0024001,627c6715c52fd12f31907bcf,,,,,,,,,,,,,,,,,,,,,,,a,1,"[""0.291"",""0.560"",""0.859"",""0.632""]","[1,1,1,0]",0,17,17,17,1,0,1,,,1,FALSE,1.5471,,,,,,,,,,,,,,,,,,,,,,,,,,,,,,,
,5ffaa11c9f655e4700248b70,627c6935d6f332341a5a75b5,2022-05-11_20h56.26.385,classification_task,2021.2.3,MacIntel,60.0024001,627c6715c52fd12f31907bcf,,,,,,,,,,,,,,,,,,,,,,,l,0,"[""0.028"",""0.447"",""0.596"",""0.924""]","[0,1,1,1]",0,18,18,18,1,0,0,,,1,FALSE,1.3859,,,,,,,,,,,,,,,,,,,,,,,,,,,,,,,
,5ffaa11c9f655e4700248b70,627c6935d6f332341a5a75b5,2022-05-11_20h56.26.385,classification_task,2021.2.3,MacIntel,60.0024001,627c6715c52fd12f31907bcf,,,,,,,,,,,,,,,,,,,,,,,l,1,"[""0.066"",""0.352"",""0.666"",""0.252""]","[1,1,1,0]",0,19,19,19,1,1,0,,,1,FALSE,0.9458,,,,,,,,,,,,,,,,,,,,,,,,,,,,,,,
,5ffaa11c9f655e4700248b70,627c6935d6f332341a5a75b5,2022-05-11_20h56.26.385,classification_task,2021.2.3,MacIntel,60.0024001,627c6715c52fd12f31907bcf,,,,,,,,,,,,,,,,,,,,,,,a,1,"[""0.184"",""0.447"",""0.596"",""0.028""]","[1,1,1,0]",0,20,20,20,1,0,0,,,1,FALSE,0.9417,,,,,,,,,,,,,,,,,,,,,,,,,,,,,,,
,5ffaa11c9f655e4700248b70,627c6935d6f332341a5a75b5,2022-05-11_20h56.26.385,classification_task,2021.2.3,MacIntel,60.0024001,627c6715c52fd12f31907bcf,,,,,,,,,,,,,,,,,,,,,,,l,1,"[""0.132"",""0.406"",""0.495"",""0.632""]","[1,1,1,0]",0,21,21,21,1,1,1,,,1,FALSE,1.3734,,,,,,,,,,,,,,,,,,,,,,,,,,,,,,,
,5ffaa11c9f655e4700248b70,627c6935d6f332341a5a75b5,2022-05-11_20h56.26.385,classification_task,2021.2.3,MacIntel,60.0024001,627c6715c52fd12f31907bcf,,,,,,,,,,,,,,,,,,,,,,,l,0,"[""0.709"",""0.560"",""0.859"",""0.959""]","[0,1,1,1]",0,22,22,22,1,0,1,,,1,FALSE,3.0902,,,,,,,,,,,,,,,,,,,,,,,,,,,,,,,
,5ffaa11c9f655e4700248b70,627c6935d6f332341a5a75b5,2022-05-11_20h56.26.385,classification_task,2021.2.3,MacIntel,60.0024001,627c6715c52fd12f31907bcf,,,,,,,,,,,,,,,,,,,,,,,l,1,"[""0.066"",""0.632"",""0.666"",""0.814""]","[1,0,1,1]",0,23,23,23,1,1,0,,,1,FALSE,1.0815,,,,,,,,,,,,,,,,,,,,,,,,,,,,,,,
,5ffaa11c9f655e4700248b70,627c6935d6f332341a5a75b5,2022-05-11_20h56.26.385,classification_task,2021.2.3,MacIntel,60.0024001,627c6715c52fd12f31907bcf,,,,,,,,,,,,,,,,,,,,,,,a,1,"[""0.291"",""0.560"",""0.726"",""0.959""]","[1,1,0,1]",0,24,24,24,1,0,1,,,1,FALSE,3.9159,,,,,,,,,,,,,,,,,,,,,,,,,,,,,,,
,5ffaa11c9f655e4700248b70,627c6935d6f332341a5a75b5,2022-05-11_20h56.26.385,classification_task,2021.2.3,MacIntel,60.0024001,627c6715c52fd12f31907bcf,,,,,,,,,,,,,,,,,,,,,,,l,1,"[""0.132"",""0.233"",""0.495"",""0.763""]","[1,0,1,1]",0,25,25,25,1,1,1,,,1,FALSE,1.819,,,,,,,,,,,,,,,,,,,,,,,,,,,,,,,
,5ffaa11c9f655e4700248b70,627c6935d6f332341a5a75b5,2022-05-11_20h56.26.385,classification_task,2021.2.3,MacIntel,60.0024001,627c6715c52fd12f31907bcf,,,,,,,,,,,,,,,,,,,,,,,a,1,"[""0.184"",""0.447"",""0.632"",""0.924""]","[1,1,0,1]",0,26,26,26,1,0,0,,,1,FALSE,0.9241,,,,,,,,,,,,,,,,,,,,,,,,,,,,,,,
,5ffaa11c9f655e4700248b70,627c6935d6f332341a5a75b5,2022-05-11_20h56.26.385,classification_task,2021.2.3,MacIntel,60.0024001,627c6715c52fd12f31907bcf,,,,,,,,,,,,,,,,,,,,,,,l,1,"[""0.132"",""0.406"",""0.713"",""0.763""]","[1,1,0,1]",0,27,27,27,1,1,1,,,1,FALSE,1.6212,,,,,,,,,,,,,,,,,,,,,,,,,,,,,,,
,5ffaa11c9f655e4700248b70,627c6935d6f332341a5a75b5,2022-05-11_20h56.26.385,classification_task,2021.2.3,MacIntel,60.0024001,627c6715c52fd12f31907bcf,,,,,,,,,,,,,,,,,,,,,,,a,1,"[""0.291"",""0.231"",""0.859"",""0.959""]","[1,0,1,1]",0,28,28,28,1,0,1,,,1,FALSE,1.73,,,,,,,,,,,,,,,,,,,,,,,,,,,,,,,
,5ffaa11c9f655e4700248b70,627c6935d6f332341a5a75b5,2022-05-11_20h56.26.385,classification_task,2021.2.3,MacIntel,60.0024001,627c6715c52fd12f31907bcf,,,,,,,,,,,,,,,,,,,,,,,a,1,"[""0.184"",""0.231"",""0.596"",""0.924""]","[1,0,1,1]",0,29,29,29,1,0,0,,,1,FALSE,1.1583,,,,,,,,,,,,,,,,,,,,,,,,,,,,,,,
,5ffaa11c9f655e4700248b70,627c6935d6f332341a5a75b5,2022-05-11_20h56.26.385,classification_task,2021.2.3,MacIntel,60.0024001,627c6715c52fd12f31907bcf,,,,,,,,,,,,,,,,,,,,,,,l,1,"[""0.632"",""0.352"",""0.666"",""0.814""]","[0,1,1,1]",0,30,30,30,1,1,0,,,1,FALSE,1.0413,,,,,,,,,,,,,,,,,,,,,,,,,,,,,,,
,5ffaa11c9f655e4700248b70,627c6935d6f332341a5a75b5,2022-05-11_20h56.26.385,classification_task,2021.2.3,MacIntel,60.0024001,627c6715c52fd12f31907bcf,,,,,,,,,,,,,,,,,,,,,,,a,0,"[""0.705"",""0.406"",""0.495"",""0.763""]","[0,1,1,1]",0,31,31,31,1,1,1,,,1,FALSE,1.8088,,,,,,,,,,,,,,,,,,,,,,,,,,,,,,,
,5ffaa11c9f655e4700248b70,627c6935d6f332341a5a75b5,2022-05-11_20h56.26.385,classification_task,2021.2.3,MacIntel,60.0024001,627c6715c52fd12f31907bcf,,,,,,,,,,,,,,,,,,,,,,,a,1,"[""0.291"",""0.560"",""0.859"",""0.713""]","[1,1,1,0]",0,32,32,32,1,0,1,,,1,FALSE,1.3518,,,,,,,,,,,,,,,,,,,,,,,,,,,,,,,
,5ffaa11c9f655e4700248b70,627c6935d6f332341a5a75b5,2022-05-11_20h56.26.385,classification_task,2021.2.3,MacIntel,60.0024001,627c6715c52fd12f31907bcf,,,,,,,,,,,,,,,,,,,,,,,a,0,"[""0.132"",""0.406"",""0.724"",""0.763""]","[1,1,0,1]",0,33,33,33,1,1,1,,,1,FALSE,0.9926,,,,,,,,,,,,,,,,,,,,,,,,,,,,,,,
,5ffaa11c9f655e4700248b70,627c6935d6f332341a5a75b5,2022-05-11_20h56.26.385,classification_task,2021.2.3,MacIntel,60.0024001,627c6715c52fd12f31907bcf,,,,,,,,,,,,,,,,,,,,,,,a,1,"[""0.291"",""0.702"",""0.859"",""0.959""]","[1,0,1,1]",0,34,34,34,1,0,1,,,1,FALSE,0.9767,,,,,,,,,,,,,,,,,,,,,,,,,,,,,,,
,5ffaa11c9f655e4700248b70,627c6935d6f332341a5a75b5,2022-05-11_20h56.26.385,classification_task,2021.2.3,MacIntel,60.0024001,627c6715c52fd12f31907bcf,,,,,,,,,,,,,,,,,,,,,,,a,1,"[""0.184"",""0.447"",""0.717"",""0.924""]","[1,1,0,1]",0,35,35,35,1,0,0,,,1,FALSE,2.3606,,,,,,,,,,,,,,,,,,,,,,,,,,,,,,,
,5ffaa11c9f655e4700248b70,627c6935d6f332341a5a75b5,2022-05-11_20h56.26.385,classification_task,2021.2.3,MacIntel,60.0024001,627c6715c52fd12f31907bcf,,,,,,,,,,,,,,,,,,,,,,,a,1,"[""0.184"",""0.447"",""0.596"",""0.252""]","[1,1,1,0]",0,36,36,36,1,0,0,,,1,FALSE,0.6959,,,,,,,,,,,,,,,,,,,,,,,,,,,,,,,
,5ffaa11c9f655e4700248b70,627c6935d6f332341a5a75b5,2022-05-11_20h56.26.385,classification_task,2021.2.3,MacIntel,60.0024001,627c6715c52fd12f31907bcf,,,,,,,,,,,,,,,,,,,,,,,l,1,"[""0.226"",""0.406"",""0.495"",""0.763""]","[0,1,1,1]",0,37,37,37,1,1,1,,,1,FALSE,1.7552,,,,,,,,,,,,,,,,,,,,,,,,,,,,,,,
,5ffaa11c9f655e4700248b70,627c6935d6f332341a5a75b5,2022-05-11_20h56.26.385,classification_task,2021.2.3,MacIntel,60.0024001,627c6715c52fd12f31907bcf,,,,,,,,,,,,,,,,,,,,,,,a,1,"[""0.291"",""0.560"",""0.702"",""0.959""]","[1,1,0,1]",0,38,38,38,1,0,1,,,1,FALSE,1.5304,,,,,,,,,,,,,,,,,,,,,,,,,,,,,,,
,5ffaa11c9f655e4700248b70,627c6935d6f332341a5a75b5,2022-05-11_20h56.26.385,classification_task,2021.2.3,MacIntel,60.0024001,627c6715c52fd12f31907bcf,,,,,,,,,,,,,,,,,,,,,,,l,1,"[""0.132"",""0.406"",""0.495"",""0.709""]","[1,1,1,0]",0,39,39,39,1,1,1,,,1,FALSE,1.3396,,,,,,,,,,,,,,,,,,,,,,,,,,,,,,,
,5ffaa11c9f655e4700248b70,627c6935d6f332341a5a75b5,2022-05-11_20h56.26.385,classification_task,2021.2.3,MacIntel,60.0024001,627c6715c52fd12f31907bcf,,,,,,,,,,,,,,,,,,,,,,,l,1,"[""0.705"",""0.352"",""0.666"",""0.814""]","[0,1,1,1]",0,40,40,40,1,1,0,,,1,FALSE,1.0372,,,,,,,,,,,,,,,,,,,,,,,,,,,,,,,
,5ffaa11c9f655e4700248b70,627c6935d6f332341a5a75b5,2022-05-11_20h56.26.385,classification_task,2021.2.3,MacIntel,60.0024001,627c6715c52fd12f31907bcf,,,,,,,,,,,,,,,,,,,,,,,a,1,"[""0.184"",""0.705"",""0.596"",""0.924""]","[1,0,1,1]",0,41,41,41,1,0,0,,,1,FALSE,0.85,,,,,,,,,,,,,,,,,,,,,,,,,,,,,,,
,5ffaa11c9f655e4700248b70,627c6935d6f332341a5a75b5,2022-05-11_20h56.26.385,classification_task,2021.2.3,MacIntel,60.0024001,627c6715c52fd12f31907bcf,,,,,,,,,,,,,,,,,,,,,,,l,1,"[""0.066"",""0.231"",""0.666"",""0.814""]","[1,0,1,1]",0,42,42,42,1,1,0,,,1,FALSE,1.2075,,,,,,,,,,,,,,,,,,,,,,,,,,,,,,,
,5ffaa11c9f655e4700248b70,627c6935d6f332341a5a75b5,2022-05-11_20h56.26.385,classification_task,2021.2.3,MacIntel,60.0024001,627c6715c52fd12f31907bcf,,,,,,,,,,,,,,,,,,,,,,,a,1,"[""0.240"",""0.447"",""0.596"",""0.924""]","[0,1,1,1]",0,43,43,43,1,0,0,,,1,FALSE,1.8606,,,,,,,,,,,,,,,,,,,,,,,,,,,,,,,
,5ffaa11c9f655e4700248b70,627c6935d6f332341a5a75b5,2022-05-11_20h56.26.385,classification_task,2021.2.3,MacIntel,60.0024001,627c6715c52fd12f31907bcf,,,,,,,,,,,,,,,,,,,,,,,a,1,"[""0.252"",""0.560"",""0.859"",""0.959""]","[0,1,1,1]",0,44,44,44,1,0,1,,,1,FALSE,1.0302,,,,,,,,,,,,,,,,,,,,,,,,,,,,,,,
,5ffaa11c9f655e4700248b70,627c6935d6f332341a5a75b5,2022-05-11_20h56.26.385,classification_task,2021.2.3,MacIntel,60.0024001,627c6715c52fd12f31907bcf,,,,,,,,,,,,,,,,,,,,,,,l,1,"[""0.066"",""0.352"",""0.702"",""0.814""]","[1,1,0,1]",0,45,45,45,1,1,0,,,1,FALSE,0.7432,,,,,,,,,,,,,,,,,,,,,,,,,,,,,,,
,5ffaa11c9f655e4700248b70,627c6935d6f332341a5a75b5,2022-05-11_20h56.26.385,classification_task,2021.2.3,MacIntel,60.0024001,627c6715c52fd12f31907bcf,,,,,,,,,,,,,,,,,,,,,,,l,1,"[""0.132"",""0.726"",""0.495"",""0.763""]","[1,0,1,1]",0,46,46,46,1,1,1,,,1,FALSE,1.3105,,,,,,,,,,,,,,,,,,,,,,,,,,,,,,,
,5ffaa11c9f655e4700248b70,627c6935d6f332341a5a75b5,2022-05-11_20h56.26.385,classification_task,2021.2.3,MacIntel,60.0024001,627c6715c52fd12f31907bcf,,,,,,,,,,,,,,,,,,,,,,,l,1,"[""0.066"",""0.352"",""0.666"",""0.724""]","[1,1,1,0]",0,47,47,47,1,1,0,,,1,FALSE,0.7717,,,,,,,,,,,,,,,,,,,,,,,,,,,,,,,
,5ffaa11c9f655e4700248b70,627c6935d6f332341a5a75b5,2022-05-11_20h56.26.385,classification_task,2021.2.3,MacIntel,60.0024001,627c6715c52fd12f31907bcf,,,,,,,,,,,,,,,,,,,,,,,a,1,"[""0.711"",""0.560"",""0.859"",""0.959""]","[0,1,1,1]",0,48,48,48,1,0,1,,,1,FALSE,1.3922,,,,,,,,,,,,,,,,,,,,,,,,,,,,,,,
,5ffaa11c9f655e4700248b70,627c6935d6f332341a5a75b5,2022-05-11_20h56.26.385,classification_task,2021.2.3,MacIntel,60.0024001,627c6715c52fd12f31907bcf,,,,,,,,,,,,,,,,,,,,,,,a,1,"[""0.184"",""0.705"",""0.596"",""0.924""]","[1,0,1,1]",0,49,49,49,1,0,0,,,1,FALSE,1.0408,,,,,,,,,,,,,,,,,,,,,,,,,,,,,,,
,5ffaa11c9f655e4700248b70,627c6935d6f332341a5a75b5,2022-05-11_20h56.26.385,classification_task,2021.2.3,MacIntel,60.0024001,627c6715c52fd12f31907bcf,,,,,,,,,,,,,,,,,,,,,,,a,1,"[""0.291"",""0.560"",""0.226"",""0.959""]","[1,1,0,1]",0,50,50,50,1,0,1,,,1,FALSE,1.1585,,,,,,,,,,,,,,,,,,,,,,,,,,,,,,,
,5ffaa11c9f655e4700248b70,627c6935d6f332341a5a75b5,2022-05-11_20h56.26.385,classification_task,2021.2.3,MacIntel,60.0024001,627c6715c52fd12f31907bcf,,,,,,,,,,,,,,,,,,,,,,,l,1,"[""0.132"",""0.406"",""0.495"",""0.724""]","[1,1,1,0]",0,51,51,51,1,1,1,,,1,FALSE,1.0606,,,,,,,,,,,,,,,,,,,,,,,,,,,,,,,
,5ffaa11c9f655e4700248b70,627c6935d6f332341a5a75b5,2022-05-11_20h56.26.385,classification_task,2021.2.3,MacIntel,60.0024001,627c6715c52fd12f31907bcf,,,,,,,,,,,,,,,,,,,,,,,l,1,"[""0.711"",""0.406"",""0.495"",""0.763""]","[0,1,1,1]",0,52,52,52,1,1,1,,,1,FALSE,2.4601,,,,,,,,,,,,,,,,,,,,,,,,,,,,,,,
,5ffaa11c9f655e4700248b70,627c6935d6f332341a5a75b5,2022-05-11_20h56.26.385,classification_task,2021.2.3,MacIntel,60.0024001,627c6715c52fd12f31907bcf,,,,,,,,,,,,,,,,,,,,,,,a,1,"[""0.184"",""0.447"",""0.240"",""0.924""]","[1,1,0,1]",0,53,53,53,1,0,0,,,1,FALSE,1.4329,,,,,,,,,,,,,,,,,,,,,,,,,,,,,,,
,5ffaa11c9f655e4700248b70,627c6935d6f332341a5a75b5,2022-05-11_20h56.26.385,classification_task,2021.2.3,MacIntel,60.0024001,627c6715c52fd12f31907bcf,,,,,,,,,,,,,,,,,,,,,,,l,1,"[""0.066"",""0.352"",""0.226"",""0.814""]","[1,1,0,1]",0,54,54,54,1,1,0,,,1,FALSE,1.0305,,,,,,,,,,,,,,,,,,,,,,,,,,,,,,,
,5ffaa11c9f655e4700248b70,627c6935d6f332341a5a75b5,2022-05-11_20h56.26.385,classification_task,2021.2.3,MacIntel,60.0024001,627c6715c52fd12f31907bcf,,,,,,,,,,,,,,,,,,,,,,,a,0,"[""0.132"",""0.711"",""0.495"",""0.763""]","[1,0,1,1]",0,55,55,55,1,1,1,,,1,FALSE,1.1705,,,,,,,,,,,,,,,,,,,,,,,,,,,,,,,
,5ffaa11c9f655e4700248b70,627c6935d6f332341a5a75b5,2022-05-11_20h56.26.385,classification_task,2021.2.3,MacIntel,60.0024001,627c6715c52fd12f31907bcf,,,,,,,,,,,,,,,,,,,,,,,l,0,"[""0.717"",""0.447"",""0.596"",""0.924""]","[0,1,1,1]",0,56,56,56,1,0,0,,,1,FALSE,1.4038,,,,,,,,,,,,,,,,,,,,,,,,,,,,,,,
,5ffaa11c9f655e4700248b70,627c6935d6f332341a5a75b5,2022-05-11_20h56.26.385,classification_task,2021.2.3,MacIntel,60.0024001,627c6715c52fd12f31907bcf,,,,,,,,,,,,,,,,,,,,,,,a,1,"[""0.291"",""0.560"",""0.859"",""0.724""]","[1,1,1,0]",0,57,57,57,1,0,1,,,1,FALSE,1.2042,,,,,,,,,,,,,,,,,,,,,,,,,,,,,,,
,5ffaa11c9f655e4700248b70,627c6935d6f332341a5a75b5,2022-05-11_20h56.26.385,classification_task,2021.2.3,MacIntel,60.0024001,627c6715c52fd12f31907bcf,,,,,,,,,,,,,,,,,,,,,,,a,1,"[""0.184"",""0.447"",""0.596"",""0.233""]","[1,1,1,0]",0,58,58,58,1,0,0,,,1,FALSE,0.9879,,,,,,,,,,,,,,,,,,,,,,,,,,,,,,,
,5ffaa11c9f655e4700248b70,627c6935d6f332341a5a75b5,2022-05-11_20h56.26.385,classification_task,2021.2.3,MacIntel,60.0024001,627c6715c52fd12f31907bcf,,,,,,,,,,,,,,,,,,,,,,,l,1,"[""0.066"",""0.352"",""0.666"",""0.708""]","[1,1,1,0]",0,59,59,59,1,1,0,,,1,FALSE,0.7765,,,,,,,,,,,,,,,,,,,,,,,,,,,,,,,
,5ffaa11c9f655e4700248b70,627c6935d6f332341a5a75b5,2022-05-11_20h56.26.385,classification_task,2021.2.3,MacIntel,60.0024001,627c6715c52fd12f31907bcf,,,,,,,,,,,,,,,,,,,,,,,l,1,"[""0.066"",""0.724"",""0.666"",""0.814""]","[1,0,1,1]",0,60,60,60,1,1,0,,,1,FALSE,0.6281,,,,,,,,,,,,,,,,,,,,,,,,,,,,,,,
,5ffaa11c9f655e4700248b70,627c6935d6f332341a5a75b5,2022-05-11_20h56.26.385,classification_task,2021.2.3,MacIntel,60.0024001,627c6715c52fd12f31907bcf,,,,,,,,,,,,,,,,,,,,,,,l,1,"[""0.702"",""0.352"",""0.666"",""0.814""]","[0,1,1,1]",0,61,61,61,1,1,0,,,1,FALSE,2.1767,,,,,,,,,,,,,,,,,,,,,,,,,,,,,,,
,5ffaa11c9f655e4700248b70,627c6935d6f332341a5a75b5,2022-05-11_20h56.26.385,classification_task,2021.2.3,MacIntel,60.0024001,627c6715c52fd12f31907bcf,,,,,,,,,,,,,,,,,,,,,,,a,1,"[""0.291"",""0.226"",""0.859"",""0.959""]","[1,0,1,1]",0,62,62,62,1,0,1,,,1,FALSE,2.8109,,,,,,,,,,,,,,,,,,,,,,,,,,,,,,,
,5ffaa11c9f655e4700248b70,627c6935d6f332341a5a75b5,2022-05-11_20h56.26.385,classification_task,2021.2.3,MacIntel,60.0024001,627c6715c52fd12f31907bcf,,,,,,,,,,,,,,,,,,,,,,,l,1,"[""0.132"",""0.406"",""0.724"",""0.763""]","[1,1,0,1]",0,63,63,63,1,1,1,,,1,FALSE,1.3503,,,,,,,,,,,,,,,,,,,,,,,,,,,,,,,
,5ffaa11c9f655e4700248b70,627c6935d6f332341a5a75b5,2022-05-11_20h56.26.385,classification_task,2021.2.3,MacIntel,60.0024001,627c6715c52fd12f31907bcf,,,,,,,,,,,,,,,,,,,,,,,,,,,,,,,,,,,,,,,0, ,,0,10,224.5426,0,1,1,1,1,2,2,,,,,,,,,,,,,,,,,,
,5ffaa11c9f655e4700248b70,627c6935d6f332341a5a75b5,2022-05-11_20h56.26.385,classification_task,2021.2.3,MacIntel,60.0024001,627c6715c52fd12f31907bcf,,,,,,,,,,,,,,,,,,,,,,,,,,,,,,,,,,,,,,,1,  ,,0,10,225.7096,0,1,1,1,1,2,2,,,,,,,,,,,,,,,,,,
,5ffaa11c9f655e4700248b70,627c6935d6f332341a5a75b5,2022-05-11_20h56.26.385,classification_task,2021.2.3,MacIntel,60.0024001,627c6715c52fd12f31907bcf,,,,,,,,,,,,,,,,,,,,,,,,,,,,,,,,,,,,,,,2,  ,,0,2.724798832,227.2118,0,1,1,1,1,2,2,,,,,,,,,,,,,,,,,,
,5ffaa11c9f655e4700248b70,627c6935d6f332341a5a75b5,2022-05-11_20h56.26.385,classification_task,2021.2.3,MacIntel,60.0024001,627c6715c52fd12f31907bcf,,,,,,,,,,,,,,,,,,,,,,,,,,,,,,,,,,,,,,,,,,,,,0,1,1,1,1,,2,,,,,,,,,,,,,,,,,,
,5ffaa11c9f655e4700248b70,627c6935d6f332341a5a75b5,2022-05-11_20h56.26.385,classification_task,2021.2.3,MacIntel,60.0024001,627c6715c52fd12f31907bcf,,,,,,,,,,,,,,,,,,,,,space,11.3472,l,1,"[""0.066"",""0.231"",""0.666"",""0.814""]","[1,0,1,1]",0,0,0,0,1,1,0,,,1,FALSE,2.2954,,,,,,,,,,,,,,,,,,,,,,,,,,,,,,,
,5ffaa11c9f655e4700248b70,627c6935d6f332341a5a75b5,2022-05-11_20h56.26.385,classification_task,2021.2.3,MacIntel,60.0024001,627c6715c52fd12f31907bcf,,,,,,,,,,,,,,,,,,,,,,,l,0,"[""0.705"",""0.447"",""0.596"",""0.924""]","[0,1,1,1]",0,1,1,1,1,0,0,,,1,FALSE,2.9482,,,,,,,,,,,,,,,,,,,,,,,,,,,,,,,
,5ffaa11c9f655e4700248b70,627c6935d6f332341a5a75b5,2022-05-11_20h56.26.385,classification_task,2021.2.3,MacIntel,60.0024001,627c6715c52fd12f31907bcf,,,,,,,,,,,,,,,,,,,,,,,a,1,"[""0.184"",""0.713"",""0.596"",""0.924""]","[1,0,1,1]",0,2,2,2,1,0,0,,,1,FALSE,1.6343,,,,,,,,,,,,,,,,,,,,,,,,,,,,,,,
,5ffaa11c9f655e4700248b70,627c6935d6f332341a5a75b5,2022-05-11_20h56.26.385,classification_task,2021.2.3,MacIntel,60.0024001,627c6715c52fd12f31907bcf,,,,,,,,,,,,,,,,,,,,,,,l,1,"[""0.132"",""0.406"",""0.495"",""0.705""]","[1,1,1,0]",0,3,3,3,1,1,1,,,1,FALSE,1.3922,,,,,,,,,,,,,,,,,,,,,,,,,,,,,,,
,5ffaa11c9f655e4700248b70,627c6935d6f332341a5a75b5,2022-05-11_20h56.26.385,classification_task,2021.2.3,MacIntel,60.0024001,627c6715c52fd12f31907bcf,,,,,,,,,,,,,,,,,,,,,,,a,0,"[""0.231"",""0.352"",""0.666"",""0.814""]","[0,1,1,1]",0,4,4,4,1,1,0,,,1,FALSE,1.2485,,,,,,,,,,,,,,,,,,,,,,,,,,,,,,,
,5ffaa11c9f655e4700248b70,627c6935d6f332341a5a75b5,2022-05-11_20h56.26.385,classification_task,2021.2.3,MacIntel,60.0024001,627c6715c52fd12f31907bcf,,,,,,,,,,,,,,,,,,,,,,,l,1,"[""0.066"",""0.352"",""0.666"",""0.713""]","[1,1,1,0]",0,5,5,5,1,1,0,,,1,FALSE,2.2267,,,,,,,,,,,,,,,,,,,,,,,,,,,,,,,
,5ffaa11c9f655e4700248b70,627c6935d6f332341a5a75b5,2022-05-11_20h56.26.385,classification_task,2021.2.3,MacIntel,60.0024001,627c6715c52fd12f31907bcf,,,,,,,,,,,,,,,,,,,,,,,a,0,"[""0.066"",""0.352"",""0.028"",""0.814""]","[1,1,0,1]",0,6,6,6,1,1,0,,,1,FALSE,2.2588,,,,,,,,,,,,,,,,,,,,,,,,,,,,,,,
,5ffaa11c9f655e4700248b70,627c6935d6f332341a5a75b5,2022-05-11_20h56.26.385,classification_task,2021.2.3,MacIntel,60.0024001,627c6715c52fd12f31907bcf,,,,,,,,,,,,,,,,,,,,,,,a,1,"[""0.291"",""0.560"",""0.717"",""0.959""]","[1,1,0,1]",0,7,7,7,1,0,1,,,1,FALSE,1.3705,,,,,,,,,,,,,,,,,,,,,,,,,,,,,,,
,5ffaa11c9f655e4700248b70,627c6935d6f332341a5a75b5,2022-05-11_20h56.26.385,classification_task,2021.2.3,MacIntel,60.0024001,627c6715c52fd12f31907bcf,,,,,,,,,,,,,,,,,,,,,,,l,1,"[""0.717"",""0.406"",""0.495"",""0.763""]","[0,1,1,1]",0,8,8,8,1,1,1,,,1,FALSE,1.5787,,,,,,,,,,,,,,,,,,,,,,,,,,,,,,,
,5ffaa11c9f655e4700248b70,627c6935d6f332341a5a75b5,2022-05-11_20h56.26.385,classification_task,2021.2.3,MacIntel,60.0024001,627c6715c52fd12f31907bcf,,,,,,,,,,,,,,,,,,,,,,,l,1,"[""0.132"",""0.406"",""0.708"",""0.763""]","[1,1,0,1]",0,9,9,9,1,1,1,,,1,FALSE,1.1522,,,,,,,,,,,,,,,,,,,,,,,,,,,,,,,
,5ffaa11c9f655e4700248b70,627c6935d6f332341a5a75b5,2022-05-11_20h56.26.385,classification_task,2021.2.3,MacIntel,60.0024001,627c6715c52fd12f31907bcf,,,,,,,,,,,,,,,,,,,,,,,a,1,"[""0.291"",""0.226"",""0.859"",""0.959""]","[1,0,1,1]",0,10,10,10,1,0,1,,,1,FALSE,1.0457,,,,,,,,,,,,,,,,,,,,,,,,,,,,,,,
,5ffaa11c9f655e4700248b70,627c6935d6f332341a5a75b5,2022-05-11_20h56.26.385,classification_task,2021.2.3,MacIntel,60.0024001,627c6715c52fd12f31907bcf,,,,,,,,,,,,,,,,,,,,,,,a,1,"[""0.184"",""0.447"",""0.596"",""0.240""]","[1,1,1,0]",0,11,11,11,1,0,0,,,1,FALSE,1.0427,,,,,,,,,,,,,,,,,,,,,,,,,,,,,,,
,5ffaa11c9f655e4700248b70,627c6935d6f332341a5a75b5,2022-05-11_20h56.26.385,classification_task,2021.2.3,MacIntel,60.0024001,627c6715c52fd12f31907bcf,,,,,,,,,,,,,,,,,,,,,,,a,1,"[""0.184"",""0.447"",""0.233"",""0.924""]","[1,1,0,1]",0,12,12,12,1,0,0,,,1,FALSE,0.5951,,,,,,,,,,,,,,,,,,,,,,,,,,,,,,,
,5ffaa11c9f655e4700248b70,627c6935d6f332341a5a75b5,2022-05-11_20h56.26.385,classification_task,2021.2.3,MacIntel,60.0024001,627c6715c52fd12f31907bcf,,,,,,,,,,,,,,,,,,,,,,,a,1,"[""0.291"",""0.560"",""0.859"",""0.711""]","[1,1,1,0]",0,13,13,13,1,0,1,,,1,FALSE,1.1771,,,,,,,,,,,,,,,,,,,,,,,,,,,,,,,
,5ffaa11c9f655e4700248b70,627c6935d6f332341a5a75b5,2022-05-11_20h56.26.385,classification_task,2021.2.3,MacIntel,60.0024001,627c6715c52fd12f31907bcf,,,,,,,,,,,,,,,,,,,,,,,l,1,"[""0.132"",""0.711"",""0.495"",""0.763""]","[1,0,1,1]",0,14,14,14,1,1,1,,,1,FALSE,1.0273,,,,,,,,,,,,,,,,,,,,,,,,,,,,,,,
,5ffaa11c9f655e4700248b70,627c6935d6f332341a5a75b5,2022-05-11_20h56.26.385,classification_task,2021.2.3,MacIntel,60.0024001,627c6715c52fd12f31907bcf,,,,,,,,,,,,,,,,,,,,,,,l,0,"[""0.702"",""0.560"",""0.859"",""0.959""]","[0,1,1,1]",0,15,15,15,1,0,1,,,1,FALSE,1.3773,,,,,,,,,,,,,,,,,,,,,,,,,,,,,,,
,5ffaa11c9f655e4700248b70,627c6935d6f332341a5a75b5,2022-05-11_20h56.26.385,classification_task,2021.2.3,MacIntel,60.0024001,627c6715c52fd12f31907bcf,,,,,,,,,,,,,,,,,,,,,,,l,1,"[""0.066"",""0.352"",""0.702"",""0.814""]","[1,1,0,1]",0,16,16,16,1,1,0,,,1,FALSE,1.1942,,,,,,,,,,,,,,,,,,,,,,,,,,,,,,,
,5ffaa11c9f655e4700248b70,627c6935d6f332341a5a75b5,2022-05-11_20h56.26.385,classification_task,2021.2.3,MacIntel,60.0024001,627c6715c52fd12f31907bcf,,,,,,,,,,,,,,,,,,,,,,,l,1,"[""0.066"",""0.352"",""0.666"",""0.226""]","[1,1,1,0]",0,17,17,17,1,1,0,,,1,FALSE,1.9287,,,,,,,,,,,,,,,,,,,,,,,,,,,,,,,
,5ffaa11c9f655e4700248b70,627c6935d6f332341a5a75b5,2022-05-11_20h56.26.385,classification_task,2021.2.3,MacIntel,60.0024001,627c6715c52fd12f31907bcf,,,,,,,,,,,,,,,,,,,,,,,a,1,"[""0.291"",""0.560"",""0.859"",""0.705""]","[1,1,1,0]",0,18,18,18,1,0,1,,,1,FALSE,1.011,,,,,,,,,,,,,,,,,,,,,,,,,,,,,,,
,5ffaa11c9f655e4700248b70,627c6935d6f332341a5a75b5,2022-05-11_20h56.26.385,classification_task,2021.2.3,MacIntel,60.0024001,627c6715c52fd12f31907bcf,,,,,,,,,,,,,,,,,,,,,,,l,0,"[""0.184"",""0.447"",""0.028"",""0.924""]","[1,1,0,1]",0,19,19,19,1,0,0,,,1,FALSE,1.7596,,,,,,,,,,,,,,,,,,,,,,,,,,,,,,,
,5ffaa11c9f655e4700248b70,627c6935d6f332341a5a75b5,2022-05-11_20h56.26.385,classification_task,2021.2.3,MacIntel,60.0024001,627c6715c52fd12f31907bcf,,,,,,,,,,,,,,,,,,,,,,,l,1,"[""0.132"",""0.406"",""0.495"",""0.717""]","[1,1,1,0]",0,20,20,20,1,1,1,,,1,FALSE,1.3336,,,,,,,,,,,,,,,,,,,,,,,,,,,,,,,
,5ffaa11c9f655e4700248b70,627c6935d6f332341a5a75b5,2022-05-11_20h56.26.385,classification_task,2021.2.3,MacIntel,60.0024001,627c6715c52fd12f31907bcf,,,,,,,,,,,,,,,,,,,,,,,l,1,"[""0.132"",""0.406"",""0.708"",""0.763""]","[1,1,0,1]",0,21,21,21,1,1,1,,,1,FALSE,1.177,,,,,,,,,,,,,,,,,,,,,,,,,,,,,,,
,5ffaa11c9f655e4700248b70,627c6935d6f332341a5a75b5,2022-05-11_20h56.26.385,classification_task,2021.2.3,MacIntel,60.0024001,627c6715c52fd12f31907bcf,,,,,,,,,,,,,,,,,,,,,,,l,1,"[""0.724"",""0.352"",""0.666"",""0.814""]","[0,1,1,1]",0,22,22,22,1,1,0,,,1,FALSE,1.3538,,,,,,,,,,,,,,,,,,,,,,,,,,,,,,,
,5ffaa11c9f655e4700248b70,627c6935d6f332341a5a75b5,2022-05-11_20h56.26.385,classification_task,2021.2.3,MacIntel,60.0024001,627c6715c52fd12f31907bcf,,,,,,,,,,,,,,,,,,,,,,,a,1,"[""0.233"",""0.447"",""0.596"",""0.924""]","[0,1,1,1]",0,23,23,23,1,0,0,,,1,FALSE,0.8257,,,,,,,,,,,,,,,,,,,,,,,,,,,,,,,
,5ffaa11c9f655e4700248b70,627c6935d6f332341a5a75b5,2022-05-11_20h56.26.385,classification_task,2021.2.3,MacIntel,60.0024001,627c6715c52fd12f31907bcf,,,,,,,,,,,,,,,,,,,,,,,a,1,"[""0.291"",""0.560"",""0.724"",""0.959""]","[1,1,0,1]",0,24,24,24,1,0,1,,,1,FALSE,1.2433,,,,,,,,,,,,,,,,,,,,,,,,,,,,,,,
,5ffaa11c9f655e4700248b70,627c6935d6f332341a5a75b5,2022-05-11_20h56.26.385,classification_task,2021.2.3,MacIntel,60.0024001,627c6715c52fd12f31907bcf,,,,,,,,,,,,,,,,,,,,,,,a,1,"[""0.291"",""0.709"",""0.859"",""0.959""]","[1,0,1,1]",0,25,25,25,1,0,1,,,1,FALSE,2.4957,,,,,,,,,,,,,,,,,,,,,,,,,,,,,,,
,5ffaa11c9f655e4700248b70,627c6935d6f332341a5a75b5,2022-05-11_20h56.26.385,classification_task,2021.2.3,MacIntel,60.0024001,627c6715c52fd12f31907bcf,,,,,,,,,,,,,,,,,,,,,,,l,1,"[""0.132"",""0.705"",""0.495"",""0.763""]","[1,0,1,1]",0,26,26,26,1,1,1,,,1,FALSE,3.0673,,,,,,,,,,,,,,,,,,,,,,,,,,,,,,,
,5ffaa11c9f655e4700248b70,627c6935d6f332341a5a75b5,2022-05-11_20h56.26.385,classification_task,2021.2.3,MacIntel,60.0024001,627c6715c52fd12f31907bcf,,,,,,,,,,,,,,,,,,,,,,,l,1,"[""0.709"",""0.406"",""0.495"",""0.763""]","[0,1,1,1]",0,27,27,27,1,1,1,,,1,FALSE,1.284,,,,,,,,,,,,,,,,,,,,,,,,,,,,,,,
,5ffaa11c9f655e4700248b70,627c6935d6f332341a5a75b5,2022-05-11_20h56.26.385,classification_task,2021.2.3,MacIntel,60.0024001,627c6715c52fd12f31907bcf,,,,,,,,,,,,,,,,,,,,,,,l,1,"[""0.066"",""0.713"",""0.666"",""0.814""]","[1,0,1,1]",0,28,28,28,1,1,0,,,1,FALSE,1.0125,,,,,,,,,,,,,,,,,,,,,,,,,,,,,,,
,5ffaa11c9f655e4700248b70,627c6935d6f332341a5a75b5,2022-05-11_20h56.26.385,classification_task,2021.2.3,MacIntel,60.0024001,627c6715c52fd12f31907bcf,,,,,,,,,,,,,,,,,,,,,,,a,1,"[""0.184"",""0.713"",""0.596"",""0.924""]","[1,0,1,1]",0,29,29,29,1,0,0,,,1,FALSE,1.1114,,,,,,,,,,,,,,,,,,,,,,,,,,,,,,,
,5ffaa11c9f655e4700248b70,627c6935d6f332341a5a75b5,2022-05-11_20h56.26.385,classification_task,2021.2.3,MacIntel,60.0024001,627c6715c52fd12f31907bcf,,,,,,,,,,,,,,,,,,,,,,,a,1,"[""0.184"",""0.447"",""0.596"",""0.717""]","[1,1,1,0]",0,30,30,30,1,0,0,,,1,FALSE,0.7941,,,,,,,,,,,,,,,,,,,,,,,,,,,,,,,
,5ffaa11c9f655e4700248b70,627c6935d6f332341a5a75b5,2022-05-11_20h56.26.385,classification_task,2021.2.3,MacIntel,60.0024001,627c6715c52fd12f31907bcf,,,,,,,,,,,,,,,,,,,,,,,a,1,"[""0.702"",""0.560"",""0.859"",""0.959""]","[0,1,1,1]",0,31,31,31,1,0,1,,,1,FALSE,1.2098,,,,,,,,,,,,,,,,,,,,,,,,,,,,,,,
,5ffaa11c9f655e4700248b70,627c6935d6f332341a5a75b5,2022-05-11_20h56.26.385,classification_task,2021.2.3,MacIntel,60.0024001,627c6715c52fd12f31907bcf,,,,,,,,,,,,,,,,,,,,,,,l,1,"[""0.132"",""0.406"",""0.495"",""0.709""]","[1,1,1,0]",0,32,32,32,1,1,1,,,1,FALSE,1.0936,,,,,,,,,,,,,,,,,,,,,,,,,,,,,,,
,5ffaa11c9f655e4700248b70,627c6935d6f332341a5a75b5,2022-05-11_20h56.26.385,classification_task,2021.2.3,MacIntel,60.0024001,627c6715c52fd12f31907bcf,,,,,,,,,,,,,,,,,,,,,,,a,1,"[""0.184"",""0.632"",""0.596"",""0.924""]","[1,0,1,1]",0,33,33,33,1,0,0,,,1,FALSE,0.8803,,,,,,,,,,,,,,,,,,,,,,,,,,,,,,,
,5ffaa11c9f655e4700248b70,627c6935d6f332341a5a75b5,2022-05-11_20h56.26.385,classification_task,2021.2.3,MacIntel,60.0024001,627c6715c52fd12f31907bcf,,,,,,,,,,,,,,,,,,,,,,,l,1,"[""0.028"",""0.352"",""0.666"",""0.814""]","[0,1,1,1]",0,34,34,34,1,1,0,,,1,FALSE,0.8263,,,,,,,,,,,,,,,,,,,,,,,,,,,,,,,
,5ffaa11c9f655e4700248b70,627c6935d6f332341a5a75b5,2022-05-11_20h56.26.385,classification_task,2021.2.3,MacIntel,60.0024001,627c6715c52fd12f31907bcf,,,,,,,,,,,,,,,,,,,,,,,a,1,"[""0.711"",""0.447"",""0.596"",""0.924""]","[0,1,1,1]",0,35,35,35,1,0,0,,,1,FALSE,3.3438,,,,,,,,,,,,,,,,,,,,,,,,,,,,,,,
,5ffaa11c9f655e4700248b70,627c6935d6f332341a5a75b5,2022-05-11_20h56.26.385,classification_task,2021.2.3,MacIntel,60.0024001,627c6715c52fd12f31907bcf,,,,,,,,,,,,,,,,,,,,,,,l,1,"[""0.717"",""0.406"",""0.495"",""0.763""]","[0,1,1,1]",0,36,36,36,1,1,1,,,1,FALSE,1.6058,,,,,,,,,,,,,,,,,,,,,,,,,,,,,,,
,5ffaa11c9f655e4700248b70,627c6935d6f332341a5a75b5,2022-05-11_20h56.26.385,classification_task,2021.2.3,MacIntel,60.0024001,627c6715c52fd12f31907bcf,,,,,,,,,,,,,,,,,,,,,,,a,1,"[""0.291"",""0.724"",""0.859"",""0.959""]","[1,0,1,1]",0,37,37,37,1,0,1,,,1,FALSE,1.461,,,,,,,,,,,,,,,,,,,,,,,,,,,,,,,
,5ffaa11c9f655e4700248b70,627c6935d6f332341a5a75b5,2022-05-11_20h56.26.385,classification_task,2021.2.3,MacIntel,60.0024001,627c6715c52fd12f31907bcf,,,,,,,,,,,,,,,,,,,,,,,l,1,"[""0.066"",""0.724"",""0.666"",""0.814""]","[1,0,1,1]",0,38,38,38,1,1,0,,,1,FALSE,0.7822,,,,,,,,,,,,,,,,,,,,,,,,,,,,,,,
,5ffaa11c9f655e4700248b70,627c6935d6f332341a5a75b5,2022-05-11_20h56.26.385,classification_task,2021.2.3,MacIntel,60.0024001,627c6715c52fd12f31907bcf,,,,,,,,,,,,,,,,,,,,,,,a,1,"[""0.184"",""0.447"",""0.709"",""0.924""]","[1,1,0,1]",0,39,39,39,1,0,0,,,1,FALSE,0.7779,,,,,,,,,,,,,,,,,,,,,,,,,,,,,,,
,5ffaa11c9f655e4700248b70,627c6935d6f332341a5a75b5,2022-05-11_20h56.26.385,classification_task,2021.2.3,MacIntel,60.0024001,627c6715c52fd12f31907bcf,,,,,,,,,,,,,,,,,,,,,,,l,1,"[""0.132"",""0.406"",""0.724"",""0.763""]","[1,1,0,1]",0,40,40,40,1,1,1,,,1,FALSE,1.0932,,,,,,,,,,,,,,,,,,,,,,,,,,,,,,,
,5ffaa11c9f655e4700248b70,627c6935d6f332341a5a75b5,2022-05-11_20h56.26.385,classification_task,2021.2.3,MacIntel,60.0024001,627c6715c52fd12f31907bcf,,,,,,,,,,,,,,,,,,,,,,,a,1,"[""0.291"",""0.560"",""0.859"",""0.705""]","[1,1,1,0]",0,41,41,41,1,0,1,,,1,FALSE,0.8496,,,,,,,,,,,,,,,,,,,,,,,,,,,,,,,
,5ffaa11c9f655e4700248b70,627c6935d6f332341a5a75b5,2022-05-11_20h56.26.385,classification_task,2021.2.3,MacIntel,60.0024001,627c6715c52fd12f31907bcf,,,,,,,,,,,,,,,,,,,,,,,l,1,"[""0.132"",""0.226"",""0.495"",""0.763""]","[1,0,1,1]",0,42,42,42,1,1,1,,,1,FALSE,1.0254,,,,,,,,,,,,,,,,,,,,,,,,,,,,,,,
,5ffaa11c9f655e4700248b70,627c6935d6f332341a5a75b5,2022-05-11_20h56.26.385,classification_task,2021.2.3,MacIntel,60.0024001,627c6715c52fd12f31907bcf,,,,,,,,,,,,,,,,,,,,,,,a,0,"[""0.066"",""0.352"",""0.028"",""0.814""]","[1,1,0,1]",0,43,43,43,1,1,0,,,1,FALSE,0.9122,,,,,,,,,,,,,,,,,,,,,,,,,,,,,,,
,5ffaa11c9f655e4700248b70,627c6935d6f332341a5a75b5,2022-05-11_20h56.26.385,classification_task,2021.2.3,MacIntel,60.0024001,627c6715c52fd12f31907bcf,,,,,,,,,,,,,,,,,,,,,,,a,1,"[""0.291"",""0.560"",""0.713"",""0.959""]","[1,1,0,1]",0,44,44,44,1,0,1,,,1,FALSE,0.9929,,,,,,,,,,,,,,,,,,,,,,,,,,,,,,,
,5ffaa11c9f655e4700248b70,627c6935d6f332341a5a75b5,2022-05-11_20h56.26.385,classification_task,2021.2.3,MacIntel,60.0024001,627c6715c52fd12f31907bcf,,,,,,,,,,,,,,,,,,,,,,,l,1,"[""0.066"",""0.352"",""0.666"",""0.231""]","[1,1,1,0]",0,45,45,45,1,1,0,,,1,FALSE,0.8786,,,,,,,,,,,,,,,,,,,,,,,,,,,,,,,
,5ffaa11c9f655e4700248b70,627c6935d6f332341a5a75b5,2022-05-11_20h56.26.385,classification_task,2021.2.3,MacIntel,60.0024001,627c6715c52fd12f31907bcf,,,,,,,,,,,,,,,,,,,,,,,a,1,"[""0.184"",""0.447"",""0.596"",""0.226""]","[1,1,1,0]",0,46,46,46,1,0,0,,,1,FALSE,0.879,,,,,,,,,,,,,,,,,,,,,,,,,,,,,,,
,5ffaa11c9f655e4700248b70,627c6935d6f332341a5a75b5,2022-05-11_20h56.26.385,classification_task,2021.2.3,MacIntel,60.0024001,627c6715c52fd12f31907bcf,,,,,,,,,,,,,,,,,,,,,,,a,1,"[""0.705"",""0.560"",""0.859"",""0.959""]","[0,1,1,1]",0,47,47,47,1,0,1,,,1,FALSE,1.414,,,,,,,,,,,,,,,,,,,,,,,,,,,,,,,
,5ffaa11c9f655e4700248b70,627c6935d6f332341a5a75b5,2022-05-11_20h56.26.385,classification_task,2021.2.3,MacIntel,60.0024001,627c6715c52fd12f31907bcf,,,,,,,,,,,,,,,,,,,,,,,l,1,"[""0.132"",""0.406"",""0.495"",""0.226""]","[1,1,1,0]",0,48,48,48,1,1,1,,,1,FALSE,1.3604,,,,,,,,,,,,,,,,,,,,,,,,,,,,,,,
,5ffaa11c9f655e4700248b70,627c6935d6f332341a5a75b5,2022-05-11_20h56.26.385,classification_task,2021.2.3,MacIntel,60.0024001,627c6715c52fd12f31907bcf,,,,,,,,,,,,,,,,,,,,,,,a,1,"[""0.184"",""0.632"",""0.596"",""0.924""]","[1,0,1,1]",0,49,49,49,1,0,0,,,1,FALSE,0.9787,,,,,,,,,,,,,,,,,,,,,,,,,,,,,,,
,5ffaa11c9f655e4700248b70,627c6935d6f332341a5a75b5,2022-05-11_20h56.26.385,classification_task,2021.2.3,MacIntel,60.0024001,627c6715c52fd12f31907bcf,,,,,,,,,,,,,,,,,,,,,,,a,1,"[""0.291"",""0.705"",""0.859"",""0.959""]","[1,0,1,1]",0,50,50,50,1,0,1,,,1,FALSE,1.1951,,,,,,,,,,,,,,,,,,,,,,,,,,,,,,,
,5ffaa11c9f655e4700248b70,627c6935d6f332341a5a75b5,2022-05-11_20h56.26.385,classification_task,2021.2.3,MacIntel,60.0024001,627c6715c52fd12f31907bcf,,,,,,,,,,,,,,,,,,,,,,,l,1,"[""0.066"",""0.252"",""0.666"",""0.814""]","[1,0,1,1]",0,51,51,51,1,1,0,,,1,FALSE,2.1637,,,,,,,,,,,,,,,,,,,,,,,,,,,,,,,
,5ffaa11c9f655e4700248b70,627c6935d6f332341a5a75b5,2022-05-11_20h56.26.385,classification_task,2021.2.3,MacIntel,60.0024001,627c6715c52fd12f31907bcf,,,,,,,,,,,,,,,,,,,,,,,l,1,"[""0.132"",""0.632"",""0.495"",""0.763""]","[1,0,1,1]",0,52,52,52,1,1,1,,,1,FALSE,3.1503,,,,,,,,,,,,,,,,,,,,,,,,,,,,,,,
,5ffaa11c9f655e4700248b70,627c6935d6f332341a5a75b5,2022-05-11_20h56.26.385,classification_task,2021.2.3,MacIntel,60.0024001,627c6715c52fd12f31907bcf,,,,,,,,,,,,,,,,,,,,,,,l,1,"[""0.717"",""0.406"",""0.495"",""0.763""]","[0,1,1,1]",0,53,53,53,1,1,1,,,1,FALSE,1.3337,,,,,,,,,,,,,,,,,,,,,,,,,,,,,,,
,5ffaa11c9f655e4700248b70,627c6935d6f332341a5a75b5,2022-05-11_20h56.26.385,classification_task,2021.2.3,MacIntel,60.0024001,627c6715c52fd12f31907bcf,,,,,,,,,,,,,,,,,,,,,,,l,1,"[""0.132"",""0.406"",""0.233"",""0.763""]","[1,1,0,1]",0,54,54,54,1,1,1,,,1,FALSE,1.1444,,,,,,,,,,,,,,,,,,,,,,,,,,,,,,,
,5ffaa11c9f655e4700248b70,627c6935d6f332341a5a75b5,2022-05-11_20h56.26.385,classification_task,2021.2.3,MacIntel,60.0024001,627c6715c52fd12f31907bcf,,,,,,,,,,,,,,,,,,,,,,,a,1,"[""0.291"",""0.560"",""0.859"",""0.713""]","[1,1,1,0]",0,55,55,55,1,0,1,,,1,FALSE,0.9292,,,,,,,,,,,,,,,,,,,,,,,,,,,,,,,
,5ffaa11c9f655e4700248b70,627c6935d6f332341a5a75b5,2022-05-11_20h56.26.385,classification_task,2021.2.3,MacIntel,60.0024001,627c6715c52fd12f31907bcf,,,,,,,,,,,,,,,,,,,,,,,a,1,"[""0.291"",""0.560"",""0.711"",""0.959""]","[1,1,0,1]",0,56,56,56,1,0,1,,,1,FALSE,1.162,,,,,,,,,,,,,,,,,,,,,,,,,,,,,,,
,5ffaa11c9f655e4700248b70,627c6935d6f332341a5a75b5,2022-05-11_20h56.26.385,classification_task,2021.2.3,MacIntel,60.0024001,627c6715c52fd12f31907bcf,,,,,,,,,,,,,,,,,,,,,,,l,0,"[""0.705"",""0.560"",""0.859"",""0.959""]","[0,1,1,1]",0,57,57,57,1,0,1,,,1,FALSE,1.396,,,,,,,,,,,,,,,,,,,,,,,,,,,,,,,
,5ffaa11c9f655e4700248b70,627c6935d6f332341a5a75b5,2022-05-11_20h56.26.385,classification_task,2021.2.3,MacIntel,60.0024001,627c6715c52fd12f31907bcf,,,,,,,,,,,,,,,,,,,,,,,l,1,"[""0.066"",""0.352"",""0.666"",""0.711""]","[1,1,1,0]",0,58,58,58,1,1,0,,,1,FALSE,0.9456,,,,,,,,,,,,,,,,,,,,,,,,,,,,,,,
,5ffaa11c9f655e4700248b70,627c6935d6f332341a5a75b5,2022-05-11_20h56.26.385,classification_task,2021.2.3,MacIntel,60.0024001,627c6715c52fd12f31907bcf,,,,,,,,,,,,,,,,,,,,,,,a,1,"[""0.184"",""0.447"",""0.632"",""0.924""]","[1,1,0,1]",0,59,59,59,1,0,0,,,1,FALSE,0.8464,,,,,,,,,,,,,,,,,,,,,,,,,,,,,,,
,5ffaa11c9f655e4700248b70,627c6935d6f332341a5a75b5,2022-05-11_20h56.26.385,classification_task,2021.2.3,MacIntel,60.0024001,627c6715c52fd12f31907bcf,,,,,,,,,,,,,,,,,,,,,,,l,1,"[""0.711"",""0.352"",""0.666"",""0.814""]","[0,1,1,1]",0,60,60,60,1,1,0,,,1,FALSE,1.5132,,,,,,,,,,,,,,,,,,,,,,,,,,,,,,,
,5ffaa11c9f655e4700248b70,627c6935d6f332341a5a75b5,2022-05-11_20h56.26.385,classification_task,2021.2.3,MacIntel,60.0024001,627c6715c52fd12f31907bcf,,,,,,,,,,,,,,,,,,,,,,,l,1,"[""0.066"",""0.352"",""0.252"",""0.814""]","[1,1,0,1]",0,61,61,61,1,1,0,,,1,FALSE,0.9813,,,,,,,,,,,,,,,,,,,,,,,,,,,,,,,
,5ffaa11c9f655e4700248b70,627c6935d6f332341a5a75b5,2022-05-11_20h56.26.385,classification_task,2021.2.3,MacIntel,60.0024001,627c6715c52fd12f31907bcf,,,,,,,,,,,,,,,,,,,,,,,a,1,"[""0.705"",""0.447"",""0.596"",""0.924""]","[0,1,1,1]",0,62,62,62,1,0,0,,,1,FALSE,1.778,,,,,,,,,,,,,,,,,,,,,,,,,,,,,,,
,5ffaa11c9f655e4700248b70,627c6935d6f332341a5a75b5,2022-05-11_20h56.26.385,classification_task,2021.2.3,MacIntel,60.0024001,627c6715c52fd12f31907bcf,,,,,,,,,,,,,,,,,,,,,,,a,1,"[""0.184"",""0.447"",""0.596"",""0.632""]","[1,1,1,0]",0,63,63,63,1,0,0,,,1,FALSE,1.164,,,,,,,,,,,,,,,,,,,,,,,,,,,,,,,
,5ffaa11c9f655e4700248b70,627c6935d6f332341a5a75b5,2022-05-11_20h56.26.385,classification_task,2021.2.3,MacIntel,60.0024001,627c6715c52fd12f31907bcf,,,,,,,,,,,,,,,,,,,,,,,,,,,,,,,,,,,,,,,0, ,,0,10,171.8933,0,2,2,2,1,2,3,,,,,,,,,,,,,,,,,,
,5ffaa11c9f655e4700248b70,627c6935d6f332341a5a75b5,2022-05-11_20h56.26.385,classification_task,2021.2.3,MacIntel,60.0024001,627c6715c52fd12f31907bcf,,,,,,,,,,,,,,,,,,,,,,,,,,,,,,,,,,,,,,,1,  ,,0,9.347511574,173.7432,0,2,2,2,1,2,3,,,,,,,,,,,,,,,,,,
,5ffaa11c9f655e4700248b70,627c6935d6f332341a5a75b5,2022-05-11_20h56.26.385,classification_task,2021.2.3,MacIntel,60.0024001,627c6715c52fd12f31907bcf,,,,,,,,,,,,,,,,,,,,,,,,,,,,,,,,,,,,,,,2,  ,,0,3.913667512,177.2761,0,2,2,2,1,2,3,,,,,,,,,,,,,,,,,,
,5ffaa11c9f655e4700248b70,627c6935d6f332341a5a75b5,2022-05-11_20h56.26.385,classification_task,2021.2.3,MacIntel,60.0024001,627c6715c52fd12f31907bcf,,,,,,,,,,,,,,,,,,,,,,,,,,,,,,,,,,,,,,,,,,,,,0,2,2,2,1,,3,,,,,,,,,,,,,,,,,,
,5ffaa11c9f655e4700248b70,627c6935d6f332341a5a75b5,2022-05-11_20h56.26.385,classification_task,2021.2.3,MacIntel,60.0024001,627c6715c52fd12f31907bcf,,,,,,,,,,,,,,,,,,,,,,,,,,,,,,,,,,,,,,,,,,,,,,,,,,,,,I believe the aid is a competent performer,,0.7,0,4,1269.6781,0,0,0,0,1,0,,,,,
,5ffaa11c9f655e4700248b70,627c6935d6f332341a5a75b5,2022-05-11_20h56.26.385,classification_task,2021.2.3,MacIntel,60.0024001,627c6715c52fd12f31907bcf,,,,,,,,,,,,,,,,,,,,,,,,,,,,,,,,,,,,,,,,,,,,,,,,,,,,,I trust the aid,,0.7,0,4,1273.6153,0,0,0,0,1,0,,,,,
,5ffaa11c9f655e4700248b70,627c6935d6f332341a5a75b5,2022-05-11_20h56.26.385,classification_task,2021.2.3,MacIntel,60.0024001,627c6715c52fd12f31907bcf,,,,,,,,,,,,,,,,,,,,,,,,,,,,,,,,,,,,,,,,,,,,,,,,,,,,,I have confidence in the advice given by the aid,,0.7,0,3,1277.8919,0,0,0,0,1,0,,,,,
,5ffaa11c9f655e4700248b70,627c6935d6f332341a5a75b5,2022-05-11_20h56.26.385,classification_task,2021.2.3,MacIntel,60.0024001,627c6715c52fd12f31907bcf,,,,,,,,,,,,,,,,,,,,,,,,,,,,,,,,,,,,,,,,,,,,,,,,,,,,,I can depend on the aid,,0.7,0,3,1284.9124,0,0,0,0,1,0,,,,,
,5ffaa11c9f655e4700248b70,627c6935d6f332341a5a75b5,2022-05-11_20h56.26.385,classification_task,2021.2.3,MacIntel,60.0024001,627c6715c52fd12f31907bcf,,,,,,,,,,,,,,,,,,,,,,,,,,,,,,,,,,,,,,,,,,,,,,,,,,,,,I can rely on the aid to behave in consistent ways,,0.7,0,4,1285.8112,0,0,0,0,1,0,,,,,
,5ffaa11c9f655e4700248b70,627c6935d6f332341a5a75b5,2022-05-11_20h56.26.385,classification_task,2021.2.3,MacIntel,60.0024001,627c6715c52fd12f31907bcf,,,,,,,,,,,,,,,,,,,,,,,,,,,,,,,,,,,,,,,,,,,,,,,,,,,,,I can rely on the aid to do its best every time I take its advice,,0.7,0,4,1291.2203,0,0,0,0,1,0,,,,,
,5ffaa11c9f655e4700248b70,627c6935d6f332341a5a75b5,2022-05-11_20h56.26.385,classification_task,2021.2.3,MacIntel,60.0024001,627c6715c52fd12f31907bcf,,,,,,,,,,,,,,,,,,,,,,,,,,,,,,,,,,,,,,,,,,,,,,,,,,,,,"On trials you completed with assistance from the aid, how frequently did you think the aid was correct?",,0.7,0,95,,0,0,0,0,1,0,,,,,
,5ffaa11c9f655e4700248b70,627c6935d6f332341a5a75b5,2022-05-11_20h56.26.385,classification_task,2021.2.3,MacIntel,60.0024001,627c6715c52fd12f31907bcf,,,,,,,,,,,,,,,,,,,,,,,,,,,,,,,,,,,,,,,,,,,,,,,,,,,,,"On trials you completed without the aid, how frequently did you think you were correct?",,0.7,0,5,,0,0,0,0,1,0,,,,,
,5ffaa11c9f655e4700248b70,627c6935d6f332341a5a75b5,2022-05-11_20h56.26.385,classification_task,2021.2.3,MacIntel,60.0024001,627c6715c52fd12f31907bcf,,,,,,,,,,,,,,,,,,,,,,,,,,,,,,,,,,,,,,,,,,,,,,,,,,,,,,,,,,,0,0,0,0,1,,,,,,
,5ffaa11c9f655e4700248b70,627c6935d6f332341a5a75b5,2022-05-11_20h56.26.385,classification_task,2021.2.3,MacIntel,60.0024001,627c6715c52fd12f31907bcf,,,,,,,,,,,,,,,,,,,,,,,,,,,,,,,,,,,,,,,,,,,,,,,,,,,,,,,,,,,,,,,,,space,11.8939,1320.4719,,
,5ffaa11c9f655e4700248b70,627c6935d6f332341a5a75b5,2022-05-11_20h56.26.385,classification_task,2021.2.3,MacIntel,60.0024001,627c6715c52fd12f31907bcf,,,,,,,,,,,,,,,,,,,,,,,,,,,,,,,,,,,,,,,,,,,,,,,,,,,,,,,,,,,,,,,,,,,,"Mozilla/5.0 (Macintosh; Intel Mac OS X 10_15_7) AppleWebKit/537.36 (KHTML, like Gecko) Chrome/101.0.4951.54 Safari/537.36",
,5ffaa11c9f655e4700248b70,627c6935d6f332341a5a75b5,2022-05-11_20h56.26.385,classification_task,2021.2.3,MacIntel,60.0024001,627c6715c52fd12f31907bcf,,,,,,,,,,,,,,,,,,,,,,,,,,,,,,,,,,,,,,,,,,,,,,,,,,,,,,,,,,,,,,,,,,,,,HIGHLIGHT
