usingWebGL,participant,session,date,expName,psychopyVersion,OS,frameRate,PROLIFIC_PID,STUDY_ID,SESSION_ID,signatures_friend,signatures_foe,band_ranges_top,band_ranges_bottom,formitemText,formtype,formundefined,formitemWidth,formindex,formresponse,formrt,key_resp_2.keys,key_resp_2.rt,tute_resp.keys,tute_resp.rt,tutorial.thisRepN,tutorial.thisTrialN,tutorial.thisN,tutorial.thisIndex,tutorial.ran,key_resp_4.keys,key_resp_4.rt,key_resp.keys,key_resp.corr,lines_presented,is_signal_presented,trials.thisRepN,trials.thisTrialN,trials.thisN,trials.thisIndex,trials.ran,vessel,active_band,lines,is_signal,supported_pos,catch_trial,key_resp.rt,debrief_formindex,debrief_formitemText,debrief_formtype,debrief_formitemWidth,debrief_formresponse,debrief_formrt,phases.thisRepN,phases.thisTrialN,phases.thisN,phases.thisIndex,phases.ran,phases.order,phase,key_resp_3.keys,trustitemText,trusttype,trustitemWidth,trustindex,trustresponse,trustrt,support_status.thisRepN,support_status.thisTrialN,support_status.thisN,support_status.thisIndex,support_status.ran,support_status.order,key_resp_5.keys,key_resp_5.rt,globalClockTime,userAgent
TRUE,60026ffbf37ef427e9384f56,001,2022-04-28_18h05.49.937,classification_task,2021.2.3,Win32,59.94844434,60026ffbf37ef427e9384f56,626b377229c10585ec392f8a,626b3983c8bad482ae00faae,,,,,,,,,,,,,,,,,,,,,,,,,,,,,,,,,,,,,,,,,,,,,,,,,,,,,,,,,,,,,,,,,,,,
,60026ffbf37ef427e9384f56,001,2022-04-28_18h05.49.937,classification_task,2021.2.3,Win32,59.94844434,60026ffbf37ef427e9384f56,626b377229c10585ec392f8a,626b3983c8bad482ae00faae,"[[""0.221"",""0.403"",""0.580"",""0.855""],[""0.167"",""0.477"",""0.891"",""0.926""]]","[[""0.090"",""0.361"",""0.441"",""0.686""],[""0.047"",""0.315"",""0.516"",""0.761""]]","[1,10]","[100,1000]",Video game experience,,,0.7,0,,,,,,,,,,,,,,,,,,,,,,,,,,,,,,,,,,,,,,,,,,,,,,,,,,,,,,,,,,,
,60026ffbf37ef427e9384f56,001,2022-04-28_18h05.49.937,classification_task,2021.2.3,Win32,59.94844434,60026ffbf37ef427e9384f56,626b377229c10585ec392f8a,626b3983c8bad482ae00faae,,,,,Approximately how many hours did you spend playing video games in the last week?,,,0.7,0,6,,,,,,,,,,,,,,,,,,,,,,,,,,,,,,,,,,,,,,,,,,,,,,,,,,,,,,,,,,
,60026ffbf37ef427e9384f56,001,2022-04-28_18h05.49.937,classification_task,2021.2.3,Win32,59.94844434,60026ffbf37ef427e9384f56,626b377229c10585ec392f8a,626b3983c8bad482ae00faae,,,,,"Which game did you play the most this year? (Enter ""None"" if you didn't play any)",,,0.7,0,valorant,,,,,,,,,,,,,,,,,,,,,,,,,,,,,,,,,,,,,,,,,,,,,,,,,,,,,,,,,,
,60026ffbf37ef427e9384f56,001,2022-04-28_18h05.49.937,classification_task,2021.2.3,Win32,59.94844434,60026ffbf37ef427e9384f56,626b377229c10585ec392f8a,626b3983c8bad482ae00faae,,,,,Visual perception,,,0.7,0,,,,,,,,,,,,,,,,,,,,,,,,,,,,,,,,,,,,,,,,,,,,,,,,,,,,,,,,,,,
,60026ffbf37ef427e9384f56,001,2022-04-28_18h05.49.937,classification_task,2021.2.3,Win32,59.94844434,60026ffbf37ef427e9384f56,626b377229c10585ec392f8a,626b3983c8bad482ae00faae,,,,,Do you have any form of color blindness?,,,0.7,0,No,34.2652,,,,,,,,,,,,,,,,,,,,,,,,,,,,,,,,,,,,,,,,,,,,,,,,,,,,,,,,,
,60026ffbf37ef427e9384f56,001,2022-04-28_18h05.49.937,classification_task,2021.2.3,Win32,59.94844434,60026ffbf37ef427e9384f56,626b377229c10585ec392f8a,626b3983c8bad482ae00faae,,,,,Do you use software to change the colour temperature of your screen (e.g. f.lux)?,,,0.7,0,No,39.5267,,,,,,,,,,,,,,,,,,,,,,,,,,,,,,,,,,,,,,,,,,,,,,,,,,,,,,,,,
,60026ffbf37ef427e9384f56,001,2022-04-28_18h05.49.937,classification_task,2021.2.3,Win32,59.94844434,60026ffbf37ef427e9384f56,626b377229c10585ec392f8a,626b3983c8bad482ae00faae,,,,,,,,,,,,space,27.4558,space,6.0472,0,0,0,0,1,,,,,,,,,,,,,,,,,,,,,,,,,,,,,,,,,,,,,,,,,,,,,,,,
,60026ffbf37ef427e9384f56,001,2022-04-28_18h05.49.937,classification_task,2021.2.3,Win32,59.94844434,60026ffbf37ef427e9384f56,626b377229c10585ec392f8a,626b3983c8bad482ae00faae,,,,,,,,,,,,,,space,5.8216,1,0,1,0,1,,,,,,,,,,,,,,,,,,,,,,,,,,,,,,,,,,,,,,,,,,,,,,,,
,60026ffbf37ef427e9384f56,001,2022-04-28_18h05.49.937,classification_task,2021.2.3,Win32,59.94844434,60026ffbf37ef427e9384f56,626b377229c10585ec392f8a,626b3983c8bad482ae00faae,,,,,,,,,,,,,,space,9.393,2,0,2,0,1,,,,,,,,,,,,,,,,,,,,,,,,,,,,,,,,,,,,,,,,,,,,,,,,
,60026ffbf37ef427e9384f56,001,2022-04-28_18h05.49.937,classification_task,2021.2.3,Win32,59.94844434,60026ffbf37ef427e9384f56,626b377229c10585ec392f8a,626b3983c8bad482ae00faae,,,,,,,,,,,,,,space,6.8722,3,0,3,0,1,,,,,,,,,,,,,,,,,,,,,,,,,,,,,,,,,,,,,,,,,,,,,,,,
,60026ffbf37ef427e9384f56,001,2022-04-28_18h05.49.937,classification_task,2021.2.3,Win32,59.94844434,60026ffbf37ef427e9384f56,626b377229c10585ec392f8a,626b3983c8bad482ae00faae,,,,,,,,,,,,,,space,10.4578,4,0,4,0,1,,,,,,,,,,,,,,,,,,,,,,,,,,,,,,,,,,,,,,,,,,,,,,,,
,60026ffbf37ef427e9384f56,001,2022-04-28_18h05.49.937,classification_task,2021.2.3,Win32,59.94844434,60026ffbf37ef427e9384f56,626b377229c10585ec392f8a,626b3983c8bad482ae00faae,,,,,,,,,,,,,,,,,,,,,space,9.3392,,0,"[""0.811"",""0.403"",""0.580"",""0.855""]","[0,1,1,1]",0,0,0,0,1,0,0,,,1,FALSE,,,,,,,,,,,,,,,,,,,,,,,,,,,,,,,
,60026ffbf37ef427e9384f56,001,2022-04-28_18h05.49.937,classification_task,2021.2.3,Win32,59.94844434,60026ffbf37ef427e9384f56,626b377229c10585ec392f8a,626b3983c8bad482ae00faae,,,,,,,,,,,,,,,,,,,,,,,a,1,"[""0.221"",""0.811"",""0.580"",""0.855""]","[1,0,1,1]",0,1,1,1,1,0,0,,,1,FALSE,6.8111,,,,,,,,,,,,,,,,,,,,,,,,,,,,,,
,60026ffbf37ef427e9384f56,001,2022-04-28_18h05.49.937,classification_task,2021.2.3,Win32,59.94844434,60026ffbf37ef427e9384f56,626b377229c10585ec392f8a,626b3983c8bad482ae00faae,,,,,,,,,,,,,,,,,,,,,,,a,1,"[""0.167"",""0.477"",""0.891"",""0.971""]","[1,1,1,0]",0,2,2,2,1,0,1,,,1,FALSE,5.2179,,,,,,,,,,,,,,,,,,,,,,,,,,,,,,
,60026ffbf37ef427e9384f56,001,2022-04-28_18h05.49.937,classification_task,2021.2.3,Win32,59.94844434,60026ffbf37ef427e9384f56,626b377229c10585ec392f8a,626b3983c8bad482ae00faae,,,,,,,,,,,,,,,,,,,,,,,a,1,"[""0.221"",""0.403"",""0.261"",""0.855""]","[1,1,0,1]",0,3,3,3,1,0,0,,,1,FALSE,4.2537,,,,,,,,,,,,,,,,,,,,,,,,,,,,,,
,60026ffbf37ef427e9384f56,001,2022-04-28_18h05.49.937,classification_task,2021.2.3,Win32,59.94844434,60026ffbf37ef427e9384f56,626b377229c10585ec392f8a,626b3983c8bad482ae00faae,,,,,,,,,,,,,,,,,,,,,,,l,1,"[""0.047"",""0.811"",""0.516"",""0.761""]","[1,0,1,1]",0,4,4,4,1,1,1,,,1,FALSE,4.7861,,,,,,,,,,,,,,,,,,,,,,,,,,,,,,
,60026ffbf37ef427e9384f56,001,2022-04-28_18h05.49.937,classification_task,2021.2.3,Win32,59.94844434,60026ffbf37ef427e9384f56,626b377229c10585ec392f8a,626b3983c8bad482ae00faae,,,,,,,,,,,,,,,,,,,,,,,l,1,"[""0.047"",""0.315"",""0.516"",""0.261""]","[1,1,1,0]",0,5,5,5,1,1,1,,,1,FALSE,5.9558,,,,,,,,,,,,,,,,,,,,,,,,,,,,,,
,60026ffbf37ef427e9384f56,001,2022-04-28_18h05.49.937,classification_task,2021.2.3,Win32,59.94844434,60026ffbf37ef427e9384f56,626b377229c10585ec392f8a,626b3983c8bad482ae00faae,,,,,,,,,,,,,,,,,,,,,,,a,1,"[""0.167"",""0.477"",""0.813"",""0.926""]","[1,1,0,1]",0,6,6,6,1,0,1,,,1,FALSE,3.1156,,,,,,,,,,,,,,,,,,,,,,,,,,,,,,
,60026ffbf37ef427e9384f56,001,2022-04-28_18h05.49.937,classification_task,2021.2.3,Win32,59.94844434,60026ffbf37ef427e9384f56,626b377229c10585ec392f8a,626b3983c8bad482ae00faae,,,,,,,,,,,,,,,,,,,,,,,l,1,"[""0.047"",""0.315"",""0.132"",""0.761""]","[1,1,0,1]",0,7,7,7,1,1,1,,,1,FALSE,3.3699,,,,,,,,,,,,,,,,,,,,,,,,,,,,,,
,60026ffbf37ef427e9384f56,001,2022-04-28_18h05.49.937,classification_task,2021.2.3,Win32,59.94844434,60026ffbf37ef427e9384f56,626b377229c10585ec392f8a,626b3983c8bad482ae00faae,,,,,,,,,,,,,,,,,,,,,,,a,0,"[""0.090"",""0.361"",""0.798"",""0.686""]","[1,1,0,1]",0,8,8,8,1,1,0,,,1,FALSE,5.4156,,,,,,,,,,,,,,,,,,,,,,,,,,,,,,
,60026ffbf37ef427e9384f56,001,2022-04-28_18h05.49.937,classification_task,2021.2.3,Win32,59.94844434,60026ffbf37ef427e9384f56,626b377229c10585ec392f8a,626b3983c8bad482ae00faae,,,,,,,,,,,,,,,,,,,,,,,a,0,"[""0.811"",""0.361"",""0.441"",""0.686""]","[0,1,1,1]",0,9,9,9,1,1,0,,,1,FALSE,3.686,,,,,,,,,,,,,,,,,,,,,,,,,,,,,,
,60026ffbf37ef427e9384f56,001,2022-04-28_18h05.49.937,classification_task,2021.2.3,Win32,59.94844434,60026ffbf37ef427e9384f56,626b377229c10585ec392f8a,626b3983c8bad482ae00faae,,,,,,,,,,,,,,,,,,,,,,,a,1,"[""0.221"",""0.403"",""0.580"",""0.648""]","[1,1,1,0]",0,10,10,10,1,0,0,,,1,FALSE,3.6114,,,,,,,,,,,,,,,,,,,,,,,,,,,,,,
,60026ffbf37ef427e9384f56,001,2022-04-28_18h05.49.937,classification_task,2021.2.3,Win32,59.94844434,60026ffbf37ef427e9384f56,626b377229c10585ec392f8a,626b3983c8bad482ae00faae,,,,,,,,,,,,,,,,,,,,,,,a,1,"[""0.167"",""0.960"",""0.891"",""0.926""]","[1,0,1,1]",0,11,11,11,1,0,1,,,1,FALSE,4.5078,,,,,,,,,,,,,,,,,,,,,,,,,,,,,,
,60026ffbf37ef427e9384f56,001,2022-04-28_18h05.49.937,classification_task,2021.2.3,Win32,59.94844434,60026ffbf37ef427e9384f56,626b377229c10585ec392f8a,626b3983c8bad482ae00faae,,,,,,,,,,,,,,,,,,,,,,,l,1,"[""0.090"",""0.727"",""0.441"",""0.686""]","[1,0,1,1]",0,12,12,12,1,1,0,,,1,FALSE,4.7546,,,,,,,,,,,,,,,,,,,,,,,,,,,,,,
,60026ffbf37ef427e9384f56,001,2022-04-28_18h05.49.937,classification_task,2021.2.3,Win32,59.94844434,60026ffbf37ef427e9384f56,626b377229c10585ec392f8a,626b3983c8bad482ae00faae,,,,,,,,,,,,,,,,,,,,,,,l,1,"[""0.811"",""0.315"",""0.516"",""0.761""]","[0,1,1,1]",0,13,13,13,1,1,1,,,1,FALSE,4.4816,,,,,,,,,,,,,,,,,,,,,,,,,,,,,,
,60026ffbf37ef427e9384f56,001,2022-04-28_18h05.49.937,classification_task,2021.2.3,Win32,59.94844434,60026ffbf37ef427e9384f56,626b377229c10585ec392f8a,626b3983c8bad482ae00faae,,,,,,,,,,,,,,,,,,,,,,,a,1,"[""0.813"",""0.477"",""0.891"",""0.926""]","[0,1,1,1]",0,14,14,14,1,0,1,,,1,FALSE,2.3588,,,,,,,,,,,,,,,,,,,,,,,,,,,,,,
,60026ffbf37ef427e9384f56,001,2022-04-28_18h05.49.937,classification_task,2021.2.3,Win32,59.94844434,60026ffbf37ef427e9384f56,626b377229c10585ec392f8a,626b3983c8bad482ae00faae,,,,,,,,,,,,,,,,,,,,,,,a,0,"[""0.090"",""0.361"",""0.441"",""0.965""]","[1,1,1,0]",0,15,15,15,1,1,0,,,1,FALSE,8.1678,,,,,,,,,,,,,,,,,,,,,,,,,,,,,,
,60026ffbf37ef427e9384f56,001,2022-04-28_18h05.49.937,classification_task,2021.2.3,Win32,59.94844434,60026ffbf37ef427e9384f56,626b377229c10585ec392f8a,626b3983c8bad482ae00faae,,,,,,,,,,,,,,,,,,,,,,,l,1,"[""0.798"",""0.315"",""0.516"",""0.761""]","[0,1,1,1]",0,16,16,16,1,1,1,,,1,FALSE,3.6027,,,,,,,,,,,,,,,,,,,,,,,,,,,,,,
,60026ffbf37ef427e9384f56,001,2022-04-28_18h05.49.937,classification_task,2021.2.3,Win32,59.94844434,60026ffbf37ef427e9384f56,626b377229c10585ec392f8a,626b3983c8bad482ae00faae,,,,,,,,,,,,,,,,,,,,,,,l,1,"[""0.132"",""0.361"",""0.441"",""0.686""]","[0,1,1,1]",0,17,17,17,1,1,0,,,1,FALSE,4.2696,,,,,,,,,,,,,,,,,,,,,,,,,,,,,,
,60026ffbf37ef427e9384f56,001,2022-04-28_18h05.49.937,classification_task,2021.2.3,Win32,59.94844434,60026ffbf37ef427e9384f56,626b377229c10585ec392f8a,626b3983c8bad482ae00faae,,,,,,,,,,,,,,,,,,,,,,,a,1,"[""0.221"",""0.403"",""0.132"",""0.855""]","[1,1,0,1]",0,18,18,18,1,0,0,,,1,FALSE,1.8466,,,,,,,,,,,,,,,,,,,,,,,,,,,,,,
,60026ffbf37ef427e9384f56,001,2022-04-28_18h05.49.937,classification_task,2021.2.3,Win32,59.94844434,60026ffbf37ef427e9384f56,626b377229c10585ec392f8a,626b3983c8bad482ae00faae,,,,,,,,,,,,,,,,,,,,,,,a,1,"[""0.167"",""0.477"",""0.727"",""0.926""]","[1,1,0,1]",0,19,19,19,1,0,1,,,1,FALSE,2.7476,,,,,,,,,,,,,,,,,,,,,,,,,,,,,,
,60026ffbf37ef427e9384f56,001,2022-04-28_18h05.49.937,classification_task,2021.2.3,Win32,59.94844434,60026ffbf37ef427e9384f56,626b377229c10585ec392f8a,626b3983c8bad482ae00faae,,,,,,,,,,,,,,,,,,,,,,,l,1,"[""0.047"",""0.816"",""0.516"",""0.761""]","[1,0,1,1]",0,20,20,20,1,1,1,,,1,FALSE,1.7425,,,,,,,,,,,,,,,,,,,,,,,,,,,,,,
,60026ffbf37ef427e9384f56,001,2022-04-28_18h05.49.937,classification_task,2021.2.3,Win32,59.94844434,60026ffbf37ef427e9384f56,626b377229c10585ec392f8a,626b3983c8bad482ae00faae,,,,,,,,,,,,,,,,,,,,,,,a,0,"[""0.047"",""0.315"",""0.516"",""0.816""]","[1,1,1,0]",0,21,21,21,1,1,1,,,1,FALSE,2.77,,,,,,,,,,,,,,,,,,,,,,,,,,,,,,
,60026ffbf37ef427e9384f56,001,2022-04-28_18h05.49.937,classification_task,2021.2.3,Win32,59.94844434,60026ffbf37ef427e9384f56,626b377229c10585ec392f8a,626b3983c8bad482ae00faae,,,,,,,,,,,,,,,,,,,,,,,l,1,"[""0.047"",""0.315"",""0.811"",""0.761""]","[1,1,0,1]",0,22,22,22,1,1,1,,,1,FALSE,3.4211,,,,,,,,,,,,,,,,,,,,,,,,,,,,,,
,60026ffbf37ef427e9384f56,001,2022-04-28_18h05.49.937,classification_task,2021.2.3,Win32,59.94844434,60026ffbf37ef427e9384f56,626b377229c10585ec392f8a,626b3983c8bad482ae00faae,,,,,,,,,,,,,,,,,,,,,,,a,0,"[""0.090"",""0.361"",""0.965"",""0.686""]","[1,1,0,1]",0,23,23,23,1,1,0,,,1,FALSE,3.4365,,,,,,,,,,,,,,,,,,,,,,,,,,,,,,
,60026ffbf37ef427e9384f56,001,2022-04-28_18h05.49.937,classification_task,2021.2.3,Win32,59.94844434,60026ffbf37ef427e9384f56,626b377229c10585ec392f8a,626b3983c8bad482ae00faae,,,,,,,,,,,,,,,,,,,,,,,a,1,"[""0.221"",""0.811"",""0.580"",""0.855""]","[1,0,1,1]",0,24,24,24,1,0,0,,,1,FALSE,3.6314,,,,,,,,,,,,,,,,,,,,,,,,,,,,,,
,60026ffbf37ef427e9384f56,001,2022-04-28_18h05.49.937,classification_task,2021.2.3,Win32,59.94844434,60026ffbf37ef427e9384f56,626b377229c10585ec392f8a,626b3983c8bad482ae00faae,,,,,,,,,,,,,,,,,,,,,,,l,0,"[""0.221"",""0.403"",""0.580"",""0.811""]","[1,1,1,0]",0,25,25,25,1,0,0,,,1,FALSE,3.3502,,,,,,,,,,,,,,,,,,,,,,,,,,,,,,
,60026ffbf37ef427e9384f56,001,2022-04-28_18h05.49.937,classification_task,2021.2.3,Win32,59.94844434,60026ffbf37ef427e9384f56,626b377229c10585ec392f8a,626b3983c8bad482ae00faae,,,,,,,,,,,,,,,,,,,,,,,l,1,"[""0.090"",""0.798"",""0.441"",""0.686""]","[1,0,1,1]",0,26,26,26,1,1,0,,,1,FALSE,3.636,,,,,,,,,,,,,,,,,,,,,,,,,,,,,,
,60026ffbf37ef427e9384f56,001,2022-04-28_18h05.49.937,classification_task,2021.2.3,Win32,59.94844434,60026ffbf37ef427e9384f56,626b377229c10585ec392f8a,626b3983c8bad482ae00faae,,,,,,,,,,,,,,,,,,,,,,,a,1,"[""0.965"",""0.477"",""0.891"",""0.926""]","[0,1,1,1]",0,27,27,27,1,0,1,,,1,FALSE,2.6703,,,,,,,,,,,,,,,,,,,,,,,,,,,,,,
,60026ffbf37ef427e9384f56,001,2022-04-28_18h05.49.937,classification_task,2021.2.3,Win32,59.94844434,60026ffbf37ef427e9384f56,626b377229c10585ec392f8a,626b3983c8bad482ae00faae,,,,,,,,,,,,,,,,,,,,,,,a,1,"[""0.167"",""0.614"",""0.891"",""0.926""]","[1,0,1,1]",0,28,28,28,1,0,1,,,1,FALSE,2.3516,,,,,,,,,,,,,,,,,,,,,,,,,,,,,,
,60026ffbf37ef427e9384f56,001,2022-04-28_18h05.49.937,classification_task,2021.2.3,Win32,59.94844434,60026ffbf37ef427e9384f56,626b377229c10585ec392f8a,626b3983c8bad482ae00faae,,,,,,,,,,,,,,,,,,,,,,,a,1,"[""0.167"",""0.477"",""0.891"",""0.648""]","[1,1,1,0]",0,29,29,29,1,0,1,,,1,FALSE,4.3647,,,,,,,,,,,,,,,,,,,,,,,,,,,,,,
,60026ffbf37ef427e9384f56,001,2022-04-28_18h05.49.937,classification_task,2021.2.3,Win32,59.94844434,60026ffbf37ef427e9384f56,626b377229c10585ec392f8a,626b3983c8bad482ae00faae,,,,,,,,,,,,,,,,,,,,,,,a,1,"[""0.271"",""0.403"",""0.580"",""0.855""]","[0,1,1,1]",0,30,30,30,1,0,0,,,1,FALSE,3.5549,,,,,,,,,,,,,,,,,,,,,,,,,,,,,,
,60026ffbf37ef427e9384f56,001,2022-04-28_18h05.49.937,classification_task,2021.2.3,Win32,59.94844434,60026ffbf37ef427e9384f56,626b377229c10585ec392f8a,626b3983c8bad482ae00faae,,,,,,,,,,,,,,,,,,,,,,,l,1,"[""0.090"",""0.361"",""0.441"",""0.132""]","[1,1,1,0]",0,31,31,31,1,1,0,,,1,FALSE,2.769,,,,,,,,,,,,,,,,,,,,,,,,,,,,,,
,60026ffbf37ef427e9384f56,001,2022-04-28_18h05.49.937,classification_task,2021.2.3,Win32,59.94844434,60026ffbf37ef427e9384f56,626b377229c10585ec392f8a,626b3983c8bad482ae00faae,,,,,,,,,,,,,,,,,,,,,,,a,0,"[""0.965"",""0.315"",""0.516"",""0.761""]","[0,1,1,1]",0,32,32,32,1,1,1,,,1,FALSE,3.2988,,,,,,,,,,,,,,,,,,,,,,,,,,,,,,
,60026ffbf37ef427e9384f56,001,2022-04-28_18h05.49.937,classification_task,2021.2.3,Win32,59.94844434,60026ffbf37ef427e9384f56,626b377229c10585ec392f8a,626b3983c8bad482ae00faae,,,,,,,,,,,,,,,,,,,,,,,a,0,"[""0.047"",""0.315"",""0.620"",""0.761""]","[1,1,0,1]",0,33,33,33,1,1,1,,,1,FALSE,1.8144,,,,,,,,,,,,,,,,,,,,,,,,,,,,,,
,60026ffbf37ef427e9384f56,001,2022-04-28_18h05.49.937,classification_task,2021.2.3,Win32,59.94844434,60026ffbf37ef427e9384f56,626b377229c10585ec392f8a,626b3983c8bad482ae00faae,,,,,,,,,,,,,,,,,,,,,,,a,1,"[""0.167"",""0.965"",""0.891"",""0.926""]","[1,0,1,1]",0,34,34,34,1,0,1,,,1,FALSE,1.585,,,,,,,,,,,,,,,,,,,,,,,,,,,,,,
,60026ffbf37ef427e9384f56,001,2022-04-28_18h05.49.937,classification_task,2021.2.3,Win32,59.94844434,60026ffbf37ef427e9384f56,626b377229c10585ec392f8a,626b3983c8bad482ae00faae,,,,,,,,,,,,,,,,,,,,,,,l,1,"[""0.047"",""0.315"",""0.516"",""0.648""]","[1,1,1,0]",0,35,35,35,1,1,1,,,1,FALSE,1.4674,,,,,,,,,,,,,,,,,,,,,,,,,,,,,,
,60026ffbf37ef427e9384f56,001,2022-04-28_18h05.49.937,classification_task,2021.2.3,Win32,59.94844434,60026ffbf37ef427e9384f56,626b377229c10585ec392f8a,626b3983c8bad482ae00faae,,,,,,,,,,,,,,,,,,,,,,,a,0,"[""0.960"",""0.361"",""0.441"",""0.686""]","[0,1,1,1]",0,36,36,36,1,1,0,,,1,FALSE,3.3981,,,,,,,,,,,,,,,,,,,,,,,,,,,,,,
,60026ffbf37ef427e9384f56,001,2022-04-28_18h05.49.937,classification_task,2021.2.3,Win32,59.94844434,60026ffbf37ef427e9384f56,626b377229c10585ec392f8a,626b3983c8bad482ae00faae,,,,,,,,,,,,,,,,,,,,,,,a,0,"[""0.090"",""0.361"",""0.811"",""0.686""]","[1,1,0,1]",0,37,37,37,1,1,0,,,1,FALSE,1.4672,,,,,,,,,,,,,,,,,,,,,,,,,,,,,,
,60026ffbf37ef427e9384f56,001,2022-04-28_18h05.49.937,classification_task,2021.2.3,Win32,59.94844434,60026ffbf37ef427e9384f56,626b377229c10585ec392f8a,626b3983c8bad482ae00faae,,,,,,,,,,,,,,,,,,,,,,,l,1,"[""0.090"",""0.361"",""0.441"",""0.271""]","[1,1,1,0]",0,38,38,38,1,1,0,,,1,FALSE,1.3722,,,,,,,,,,,,,,,,,,,,,,,,,,,,,,
,60026ffbf37ef427e9384f56,001,2022-04-28_18h05.49.937,classification_task,2021.2.3,Win32,59.94844434,60026ffbf37ef427e9384f56,626b377229c10585ec392f8a,626b3983c8bad482ae00faae,,,,,,,,,,,,,,,,,,,,,,,l,0,"[""0.167"",""0.477"",""0.891"",""0.614""]","[1,1,1,0]",0,39,39,39,1,0,1,,,1,FALSE,1.4508,,,,,,,,,,,,,,,,,,,,,,,,,,,,,,
,60026ffbf37ef427e9384f56,001,2022-04-28_18h05.49.937,classification_task,2021.2.3,Win32,59.94844434,60026ffbf37ef427e9384f56,626b377229c10585ec392f8a,626b3983c8bad482ae00faae,,,,,,,,,,,,,,,,,,,,,,,a,1,"[""0.167"",""0.477"",""0.960"",""0.926""]","[1,1,0,1]",0,40,40,40,1,0,1,,,1,FALSE,0.9971,,,,,,,,,,,,,,,,,,,,,,,,,,,,,,
,60026ffbf37ef427e9384f56,001,2022-04-28_18h05.49.937,classification_task,2021.2.3,Win32,59.94844434,60026ffbf37ef427e9384f56,626b377229c10585ec392f8a,626b3983c8bad482ae00faae,,,,,,,,,,,,,,,,,,,,,,,a,1,"[""0.221"",""0.403"",""0.648"",""0.855""]","[1,1,0,1]",0,41,41,41,1,0,0,,,1,FALSE,1.7004,,,,,,,,,,,,,,,,,,,,,,,,,,,,,,
,60026ffbf37ef427e9384f56,001,2022-04-28_18h05.49.937,classification_task,2021.2.3,Win32,59.94844434,60026ffbf37ef427e9384f56,626b377229c10585ec392f8a,626b3983c8bad482ae00faae,,,,,,,,,,,,,,,,,,,,,,,a,1,"[""0.221"",""0.816"",""0.580"",""0.855""]","[1,0,1,1]",0,42,42,42,1,0,0,,,1,FALSE,0.9671,,,,,,,,,,,,,,,,,,,,,,,,,,,,,,
,60026ffbf37ef427e9384f56,001,2022-04-28_18h05.49.937,classification_task,2021.2.3,Win32,59.94844434,60026ffbf37ef427e9384f56,626b377229c10585ec392f8a,626b3983c8bad482ae00faae,,,,,,,,,,,,,,,,,,,,,,,l,1,"[""0.090"",""0.271"",""0.441"",""0.686""]","[1,0,1,1]",0,43,43,43,1,1,0,,,1,FALSE,1.1491,,,,,,,,,,,,,,,,,,,,,,,,,,,,,,
,60026ffbf37ef427e9384f56,001,2022-04-28_18h05.49.937,classification_task,2021.2.3,Win32,59.94844434,60026ffbf37ef427e9384f56,626b377229c10585ec392f8a,626b3983c8bad482ae00faae,,,,,,,,,,,,,,,,,,,,,,,l,0,"[""0.221"",""0.403"",""0.580"",""0.620""]","[1,1,1,0]",0,44,44,44,1,0,0,,,1,FALSE,0.9165,,,,,,,,,,,,,,,,,,,,,,,,,,,,,,
,60026ffbf37ef427e9384f56,001,2022-04-28_18h05.49.937,classification_task,2021.2.3,Win32,59.94844434,60026ffbf37ef427e9384f56,626b377229c10585ec392f8a,626b3983c8bad482ae00faae,,,,,,,,,,,,,,,,,,,,,,,a,1,"[""0.261"",""0.477"",""0.891"",""0.926""]","[0,1,1,1]",0,45,45,45,1,0,1,,,1,FALSE,0.9875,,,,,,,,,,,,,,,,,,,,,,,,,,,,,,
,60026ffbf37ef427e9384f56,001,2022-04-28_18h05.49.937,classification_task,2021.2.3,Win32,59.94844434,60026ffbf37ef427e9384f56,626b377229c10585ec392f8a,626b3983c8bad482ae00faae,,,,,,,,,,,,,,,,,,,,,,,a,1,"[""0.261"",""0.403"",""0.580"",""0.855""]","[0,1,1,1]",0,46,46,46,1,0,0,,,1,FALSE,1.7006,,,,,,,,,,,,,,,,,,,,,,,,,,,,,,
,60026ffbf37ef427e9384f56,001,2022-04-28_18h05.49.937,classification_task,2021.2.3,Win32,59.94844434,60026ffbf37ef427e9384f56,626b377229c10585ec392f8a,626b3983c8bad482ae00faae,,,,,,,,,,,,,,,,,,,,,,,a,0,"[""0.047"",""0.965"",""0.516"",""0.761""]","[1,0,1,1]",0,47,47,47,1,1,1,,,1,FALSE,0.9998,,,,,,,,,,,,,,,,,,,,,,,,,,,,,,
,60026ffbf37ef427e9384f56,001,2022-04-28_18h05.49.937,classification_task,2021.2.3,Win32,59.94844434,60026ffbf37ef427e9384f56,626b377229c10585ec392f8a,626b3983c8bad482ae00faae,,,,,,,,,,,,,,,,,,,,,,,l,1,"[""0.261"",""0.315"",""0.516"",""0.761""]","[0,1,1,1]",0,48,48,48,1,1,1,,,1,FALSE,1.2672,,,,,,,,,,,,,,,,,,,,,,,,,,,,,,
,60026ffbf37ef427e9384f56,001,2022-04-28_18h05.49.937,classification_task,2021.2.3,Win32,59.94844434,60026ffbf37ef427e9384f56,626b377229c10585ec392f8a,626b3983c8bad482ae00faae,,,,,,,,,,,,,,,,,,,,,,,l,1,"[""0.047"",""0.315"",""0.516"",""0.727""]","[1,1,1,0]",0,49,49,49,1,1,1,,,1,FALSE,0.9332,,,,,,,,,,,,,,,,,,,,,,,,,,,,,,
,60026ffbf37ef427e9384f56,001,2022-04-28_18h05.49.937,classification_task,2021.2.3,Win32,59.94844434,60026ffbf37ef427e9384f56,626b377229c10585ec392f8a,626b3983c8bad482ae00faae,,,,,,,,,,,,,,,,,,,,,,,l,1,"[""0.047"",""0.727"",""0.516"",""0.761""]","[1,0,1,1]",0,50,50,50,1,1,1,,,1,FALSE,1.4373,,,,,,,,,,,,,,,,,,,,,,,,,,,,,,
,60026ffbf37ef427e9384f56,001,2022-04-28_18h05.49.937,classification_task,2021.2.3,Win32,59.94844434,60026ffbf37ef427e9384f56,626b377229c10585ec392f8a,626b3983c8bad482ae00faae,,,,,,,,,,,,,,,,,,,,,,,a,1,"[""0.960"",""0.477"",""0.891"",""0.926""]","[0,1,1,1]",0,51,51,51,1,0,1,,,1,FALSE,0.6846,,,,,,,,,,,,,,,,,,,,,,,,,,,,,,
,60026ffbf37ef427e9384f56,001,2022-04-28_18h05.49.937,classification_task,2021.2.3,Win32,59.94844434,60026ffbf37ef427e9384f56,626b377229c10585ec392f8a,626b3983c8bad482ae00faae,,,,,,,,,,,,,,,,,,,,,,,a,0,"[""0.090"",""0.361"",""0.960"",""0.686""]","[1,1,0,1]",0,52,52,52,1,1,0,,,1,FALSE,3.7866,,,,,,,,,,,,,,,,,,,,,,,,,,,,,,
,60026ffbf37ef427e9384f56,001,2022-04-28_18h05.49.937,classification_task,2021.2.3,Win32,59.94844434,60026ffbf37ef427e9384f56,626b377229c10585ec392f8a,626b3983c8bad482ae00faae,,,,,,,,,,,,,,,,,,,,,,,a,1,"[""0.614"",""0.403"",""0.580"",""0.855""]","[0,1,1,1]",0,53,53,53,1,0,0,,,1,FALSE,1.6162,,,,,,,,,,,,,,,,,,,,,,,,,,,,,,
,60026ffbf37ef427e9384f56,001,2022-04-28_18h05.49.937,classification_task,2021.2.3,Win32,59.94844434,60026ffbf37ef427e9384f56,626b377229c10585ec392f8a,626b3983c8bad482ae00faae,,,,,,,,,,,,,,,,,,,,,,,l,0,"[""0.221"",""0.403"",""0.580"",""0.727""]","[1,1,1,0]",0,54,54,54,1,0,0,,,1,FALSE,1.1185,,,,,,,,,,,,,,,,,,,,,,,,,,,,,,
,60026ffbf37ef427e9384f56,001,2022-04-28_18h05.49.937,classification_task,2021.2.3,Win32,59.94844434,60026ffbf37ef427e9384f56,626b377229c10585ec392f8a,626b3983c8bad482ae00faae,,,,,,,,,,,,,,,,,,,,,,,a,1,"[""0.167"",""0.798"",""0.891"",""0.926""]","[1,0,1,1]",0,55,55,55,1,0,1,,,1,FALSE,0.7829,,,,,,,,,,,,,,,,,,,,,,,,,,,,,,
,60026ffbf37ef427e9384f56,001,2022-04-28_18h05.49.937,classification_task,2021.2.3,Win32,59.94844434,60026ffbf37ef427e9384f56,626b377229c10585ec392f8a,626b3983c8bad482ae00faae,,,,,,,,,,,,,,,,,,,,,,,a,1,"[""0.221"",""0.403"",""0.816"",""0.855""]","[1,1,0,1]",0,56,56,56,1,0,0,,,1,FALSE,0.9008,,,,,,,,,,,,,,,,,,,,,,,,,,,,,,
,60026ffbf37ef427e9384f56,001,2022-04-28_18h05.49.937,classification_task,2021.2.3,Win32,59.94844434,60026ffbf37ef427e9384f56,626b377229c10585ec392f8a,626b3983c8bad482ae00faae,,,,,,,,,,,,,,,,,,,,,,,l,1,"[""0.047"",""0.315"",""0.648"",""0.761""]","[1,1,0,1]",0,57,57,57,1,1,1,,,1,FALSE,0.9837,,,,,,,,,,,,,,,,,,,,,,,,,,,,,,
,60026ffbf37ef427e9384f56,001,2022-04-28_18h05.49.937,classification_task,2021.2.3,Win32,59.94844434,60026ffbf37ef427e9384f56,626b377229c10585ec392f8a,626b3983c8bad482ae00faae,,,,,,,,,,,,,,,,,,,,,,,l,0,"[""0.167"",""0.477"",""0.891"",""0.648""]","[1,1,1,0]",0,58,58,58,1,0,1,,,1,FALSE,1.7595,,,,,,,,,,,,,,,,,,,,,,,,,,,,,,
,60026ffbf37ef427e9384f56,001,2022-04-28_18h05.49.937,classification_task,2021.2.3,Win32,59.94844434,60026ffbf37ef427e9384f56,626b377229c10585ec392f8a,626b3983c8bad482ae00faae,,,,,,,,,,,,,,,,,,,,,,,l,1,"[""0.811"",""0.361"",""0.441"",""0.686""]","[0,1,1,1]",0,59,59,59,1,1,0,,,1,FALSE,1.1529,,,,,,,,,,,,,,,,,,,,,,,,,,,,,,
,60026ffbf37ef427e9384f56,001,2022-04-28_18h05.49.937,classification_task,2021.2.3,Win32,59.94844434,60026ffbf37ef427e9384f56,626b377229c10585ec392f8a,626b3983c8bad482ae00faae,,,,,,,,,,,,,,,,,,,,,,,a,1,"[""0.221"",""0.798"",""0.580"",""0.855""]","[1,0,1,1]",0,60,60,60,1,0,0,,,1,FALSE,1.2988,,,,,,,,,,,,,,,,,,,,,,,,,,,,,,
,60026ffbf37ef427e9384f56,001,2022-04-28_18h05.49.937,classification_task,2021.2.3,Win32,59.94844434,60026ffbf37ef427e9384f56,626b377229c10585ec392f8a,626b3983c8bad482ae00faae,,,,,,,,,,,,,,,,,,,,,,,a,1,"[""0.167"",""0.477"",""0.271"",""0.926""]","[1,1,0,1]",0,61,61,61,1,0,1,,,1,FALSE,0.9676,,,,,,,,,,,,,,,,,,,,,,,,,,,,,,
,60026ffbf37ef427e9384f56,001,2022-04-28_18h05.49.937,classification_task,2021.2.3,Win32,59.94844434,60026ffbf37ef427e9384f56,626b377229c10585ec392f8a,626b3983c8bad482ae00faae,,,,,,,,,,,,,,,,,,,,,,,l,1,"[""0.090"",""0.960"",""0.441"",""0.686""]","[1,0,1,1]",0,62,62,62,1,1,0,,,1,FALSE,1.0181,,,,,,,,,,,,,,,,,,,,,,,,,,,,,,
,60026ffbf37ef427e9384f56,001,2022-04-28_18h05.49.937,classification_task,2021.2.3,Win32,59.94844434,60026ffbf37ef427e9384f56,626b377229c10585ec392f8a,626b3983c8bad482ae00faae,,,,,,,,,,,,,,,,,,,,,,,l,1,"[""0.090"",""0.361"",""0.441"",""0.271""]","[1,1,1,0]",0,63,63,63,1,1,0,,,1,FALSE,1.0021,,,,,,,,,,,,,,,,,,,,,,,,,,,,,,
,60026ffbf37ef427e9384f56,001,2022-04-28_18h05.49.937,classification_task,2021.2.3,Win32,59.94844434,60026ffbf37ef427e9384f56,626b377229c10585ec392f8a,626b3983c8bad482ae00faae,,,,,,,,,,,,,,,,,,,,,,,,,,,,,,,,,,,,,,,0, ,,0,10,375.7282,0,0,0,0,1,2,1,,,,,,,,,,,,,,,,,
,60026ffbf37ef427e9384f56,001,2022-04-28_18h05.49.937,classification_task,2021.2.3,Win32,59.94844434,60026ffbf37ef427e9384f56,626b377229c10585ec392f8a,626b3983c8bad482ae00faae,,,,,,,,,,,,,,,,,,,,,,,,,,,,,,,,,,,,,,,1,  ,,0,3.211136306,382.4487,0,0,0,0,1,2,1,,,,,,,,,,,,,,,,,
,60026ffbf37ef427e9384f56,001,2022-04-28_18h05.49.937,classification_task,2021.2.3,Win32,59.94844434,60026ffbf37ef427e9384f56,626b377229c10585ec392f8a,626b3983c8bad482ae00faae,,,,,,,,,,,,,,,,,,,,,,,,,,,,,,,,,,,,,,,2,  ,,0,1.220710506,385.9499,0,0,0,0,1,2,1,,,,,,,,,,,,,,,,,
,60026ffbf37ef427e9384f56,001,2022-04-28_18h05.49.937,classification_task,2021.2.3,Win32,59.94844434,60026ffbf37ef427e9384f56,626b377229c10585ec392f8a,626b3983c8bad482ae00faae,,,,,,,,,,,,,,,,,,,,,,,,,,,,,,,,,,,,,,,,,,,,,0,0,0,0,1,,1,,,,,,,,,,,,,,,,,
,60026ffbf37ef427e9384f56,001,2022-04-28_18h05.49.937,classification_task,2021.2.3,Win32,59.94844434,60026ffbf37ef427e9384f56,626b377229c10585ec392f8a,626b3983c8bad482ae00faae,,,,,,,,,,,,,,,,,,,,,space,7.6152,l,1,"[""0.047"",""0.315"",""0.516"",""0.816""]","[1,1,1,0]",0,0,0,0,1,1,1,,,1,FALSE,3.2927,,,,,,,,,,,,,,,,,,,,,,,,,,,,,,
,60026ffbf37ef427e9384f56,001,2022-04-28_18h05.49.937,classification_task,2021.2.3,Win32,59.94844434,60026ffbf37ef427e9384f56,626b377229c10585ec392f8a,626b3983c8bad482ae00faae,,,,,,,,,,,,,,,,,,,,,,,l,1,"[""0.090"",""0.361"",""0.962"",""0.686""]","[1,1,0,1]",0,1,1,1,1,1,0,,,1,FALSE,3.1372,,,,,,,,,,,,,,,,,,,,,,,,,,,,,,
,60026ffbf37ef427e9384f56,001,2022-04-28_18h05.49.937,classification_task,2021.2.3,Win32,59.94844434,60026ffbf37ef427e9384f56,626b377229c10585ec392f8a,626b3983c8bad482ae00faae,,,,,,,,,,,,,,,,,,,,,,,a,1,"[""0.221"",""0.403"",""0.816"",""0.855""]","[1,1,0,1]",0,2,2,2,1,0,0,,,1,FALSE,1.1014,,,,,,,,,,,,,,,,,,,,,,,,,,,,,,
,60026ffbf37ef427e9384f56,001,2022-04-28_18h05.49.937,classification_task,2021.2.3,Win32,59.94844434,60026ffbf37ef427e9384f56,626b377229c10585ec392f8a,626b3983c8bad482ae00faae,,,,,,,,,,,,,,,,,,,,,,,a,1,"[""0.221"",""0.960"",""0.580"",""0.855""]","[1,0,1,1]",0,3,3,3,1,0,0,,,1,FALSE,1.8384,,,,,,,,,,,,,,,,,,,,,,,,,,,,,,
,60026ffbf37ef427e9384f56,001,2022-04-28_18h05.49.937,classification_task,2021.2.3,Win32,59.94844434,60026ffbf37ef427e9384f56,626b377229c10585ec392f8a,626b3983c8bad482ae00faae,,,,,,,,,,,,,,,,,,,,,,,l,0,"[""0.971"",""0.403"",""0.580"",""0.855""]","[0,1,1,1]",0,4,4,4,1,0,0,,,1,FALSE,1.1846,,,,,,,,,,,,,,,,,,,,,,,,,,,,,,
,60026ffbf37ef427e9384f56,001,2022-04-28_18h05.49.937,classification_task,2021.2.3,Win32,59.94844434,60026ffbf37ef427e9384f56,626b377229c10585ec392f8a,626b3983c8bad482ae00faae,,,,,,,,,,,,,,,,,,,,,,,l,1,"[""0.047"",""0.315"",""0.648"",""0.761""]","[1,1,0,1]",0,5,5,5,1,1,1,,,1,FALSE,0.9339,,,,,,,,,,,,,,,,,,,,,,,,,,,,,,
,60026ffbf37ef427e9384f56,001,2022-04-28_18h05.49.937,classification_task,2021.2.3,Win32,59.94844434,60026ffbf37ef427e9384f56,626b377229c10585ec392f8a,626b3983c8bad482ae00faae,,,,,,,,,,,,,,,,,,,,,,,l,0,"[""0.221"",""0.403"",""0.580"",""0.816""]","[1,1,1,0]",0,6,6,6,1,0,0,,,1,FALSE,1.9158,,,,,,,,,,,,,,,,,,,,,,,,,,,,,,
,60026ffbf37ef427e9384f56,001,2022-04-28_18h05.49.937,classification_task,2021.2.3,Win32,59.94844434,60026ffbf37ef427e9384f56,626b377229c10585ec392f8a,626b3983c8bad482ae00faae,,,,,,,,,,,,,,,,,,,,,,,l,1,"[""0.047"",""0.811"",""0.516"",""0.761""]","[1,0,1,1]",0,7,7,7,1,1,1,,,1,FALSE,1.6021,,,,,,,,,,,,,,,,,,,,,,,,,,,,,,
,60026ffbf37ef427e9384f56,001,2022-04-28_18h05.49.937,classification_task,2021.2.3,Win32,59.94844434,60026ffbf37ef427e9384f56,626b377229c10585ec392f8a,626b3983c8bad482ae00faae,,,,,,,,,,,,,,,,,,,,,,,a,0,"[""0.090"",""0.960"",""0.441"",""0.686""]","[1,0,1,1]",0,8,8,8,1,1,0,,,1,FALSE,1.296,,,,,,,,,,,,,,,,,,,,,,,,,,,,,,
,60026ffbf37ef427e9384f56,001,2022-04-28_18h05.49.937,classification_task,2021.2.3,Win32,59.94844434,60026ffbf37ef427e9384f56,626b377229c10585ec392f8a,626b3983c8bad482ae00faae,,,,,,,,,,,,,,,,,,,,,,,a,1,"[""0.727"",""0.477"",""0.891"",""0.926""]","[0,1,1,1]",0,9,9,9,1,0,1,,,1,FALSE,0.7668,,,,,,,,,,,,,,,,,,,,,,,,,,,,,,
,60026ffbf37ef427e9384f56,001,2022-04-28_18h05.49.937,classification_task,2021.2.3,Win32,59.94844434,60026ffbf37ef427e9384f56,626b377229c10585ec392f8a,626b3983c8bad482ae00faae,,,,,,,,,,,,,,,,,,,,,,,l,1,"[""0.648"",""0.315"",""0.516"",""0.761""]","[0,1,1,1]",0,10,10,10,1,1,1,,,1,FALSE,0.5863,,,,,,,,,,,,,,,,,,,,,,,,,,,,,,
,60026ffbf37ef427e9384f56,001,2022-04-28_18h05.49.937,classification_task,2021.2.3,Win32,59.94844434,60026ffbf37ef427e9384f56,626b377229c10585ec392f8a,626b3983c8bad482ae00faae,,,,,,,,,,,,,,,,,,,,,,,a,0,"[""0.090"",""0.361"",""0.441"",""0.962""]","[1,1,1,0]",0,11,11,11,1,1,0,,,1,FALSE,1.5065,,,,,,,,,,,,,,,,,,,,,,,,,,,,,,
,60026ffbf37ef427e9384f56,001,2022-04-28_18h05.49.937,classification_task,2021.2.3,Win32,59.94844434,60026ffbf37ef427e9384f56,626b377229c10585ec392f8a,626b3983c8bad482ae00faae,,,,,,,,,,,,,,,,,,,,,,,a,1,"[""0.167"",""0.727"",""0.891"",""0.926""]","[1,0,1,1]",0,12,12,12,1,0,1,,,1,FALSE,0.7369,,,,,,,,,,,,,,,,,,,,,,,,,,,,,,
,60026ffbf37ef427e9384f56,001,2022-04-28_18h05.49.937,classification_task,2021.2.3,Win32,59.94844434,60026ffbf37ef427e9384f56,626b377229c10585ec392f8a,626b3983c8bad482ae00faae,,,,,,,,,,,,,,,,,,,,,,,l,1,"[""0.620"",""0.361"",""0.441"",""0.686""]","[0,1,1,1]",0,13,13,13,1,1,0,,,1,FALSE,0.8856,,,,,,,,,,,,,,,,,,,,,,,,,,,,,,
,60026ffbf37ef427e9384f56,001,2022-04-28_18h05.49.937,classification_task,2021.2.3,Win32,59.94844434,60026ffbf37ef427e9384f56,626b377229c10585ec392f8a,626b3983c8bad482ae00faae,,,,,,,,,,,,,,,,,,,,,,,a,1,"[""0.167"",""0.477"",""0.891"",""0.132""]","[1,1,1,0]",0,14,14,14,1,0,1,,,1,FALSE,0.6171,,,,,,,,,,,,,,,,,,,,,,,,,,,,,,
,60026ffbf37ef427e9384f56,001,2022-04-28_18h05.49.937,classification_task,2021.2.3,Win32,59.94844434,60026ffbf37ef427e9384f56,626b377229c10585ec392f8a,626b3983c8bad482ae00faae,,,,,,,,,,,,,,,,,,,,,,,a,1,"[""0.167"",""0.477"",""0.960"",""0.926""]","[1,1,0,1]",0,15,15,15,1,0,1,,,1,FALSE,0.6026,,,,,,,,,,,,,,,,,,,,,,,,,,,,,,
,60026ffbf37ef427e9384f56,001,2022-04-28_18h05.49.937,classification_task,2021.2.3,Win32,59.94844434,60026ffbf37ef427e9384f56,626b377229c10585ec392f8a,626b3983c8bad482ae00faae,,,,,,,,,,,,,,,,,,,,,,,a,1,"[""0.167"",""0.477"",""0.962"",""0.926""]","[1,1,0,1]",0,16,16,16,1,0,1,,,1,FALSE,0.4204,,,,,,,,,,,,,,,,,,,,,,,,,,,,,,
,60026ffbf37ef427e9384f56,001,2022-04-28_18h05.49.937,classification_task,2021.2.3,Win32,59.94844434,60026ffbf37ef427e9384f56,626b377229c10585ec392f8a,626b3983c8bad482ae00faae,,,,,,,,,,,,,,,,,,,,,,,l,1,"[""0.648"",""0.315"",""0.516"",""0.761""]","[0,1,1,1]",0,17,17,17,1,1,1,,,1,FALSE,0.6181,,,,,,,,,,,,,,,,,,,,,,,,,,,,,,
,60026ffbf37ef427e9384f56,001,2022-04-28_18h05.49.937,classification_task,2021.2.3,Win32,59.94844434,60026ffbf37ef427e9384f56,626b377229c10585ec392f8a,626b3983c8bad482ae00faae,,,,,,,,,,,,,,,,,,,,,,,a,0,"[""0.090"",""0.361"",""0.441"",""0.971""]","[1,1,1,0]",0,18,18,18,1,1,0,,,1,FALSE,1.1126,,,,,,,,,,,,,,,,,,,,,,,,,,,,,,
,60026ffbf37ef427e9384f56,001,2022-04-28_18h05.49.937,classification_task,2021.2.3,Win32,59.94844434,60026ffbf37ef427e9384f56,626b377229c10585ec392f8a,626b3983c8bad482ae00faae,,,,,,,,,,,,,,,,,,,,,,,a,1,"[""0.221"",""0.403"",""0.965"",""0.855""]","[1,1,0,1]",0,19,19,19,1,0,0,,,1,FALSE,0.8846,,,,,,,,,,,,,,,,,,,,,,,,,,,,,,
,60026ffbf37ef427e9384f56,001,2022-04-28_18h05.49.937,classification_task,2021.2.3,Win32,59.94844434,60026ffbf37ef427e9384f56,626b377229c10585ec392f8a,626b3983c8bad482ae00faae,,,,,,,,,,,,,,,,,,,,,,,l,0,"[""0.221"",""0.614"",""0.580"",""0.855""]","[1,0,1,1]",0,20,20,20,1,0,0,,,1,FALSE,2.1258,,,,,,,,,,,,,,,,,,,,,,,,,,,,,,
,60026ffbf37ef427e9384f56,001,2022-04-28_18h05.49.937,classification_task,2021.2.3,Win32,59.94844434,60026ffbf37ef427e9384f56,626b377229c10585ec392f8a,626b3983c8bad482ae00faae,,,,,,,,,,,,,,,,,,,,,,,l,1,"[""0.090"",""0.261"",""0.441"",""0.686""]","[1,0,1,1]",0,21,21,21,1,1,0,,,1,FALSE,0.8521,,,,,,,,,,,,,,,,,,,,,,,,,,,,,,
,60026ffbf37ef427e9384f56,001,2022-04-28_18h05.49.937,classification_task,2021.2.3,Win32,59.94844434,60026ffbf37ef427e9384f56,626b377229c10585ec392f8a,626b3983c8bad482ae00faae,,,,,,,,,,,,,,,,,,,,,,,a,1,"[""0.971"",""0.403"",""0.580"",""0.855""]","[0,1,1,1]",0,22,22,22,1,0,0,,,1,FALSE,0.8172,,,,,,,,,,,,,,,,,,,,,,,,,,,,,,
,60026ffbf37ef427e9384f56,001,2022-04-28_18h05.49.937,classification_task,2021.2.3,Win32,59.94844434,60026ffbf37ef427e9384f56,626b377229c10585ec392f8a,626b3983c8bad482ae00faae,,,,,,,,,,,,,,,,,,,,,,,l,1,"[""0.047"",""0.315"",""0.516"",""0.798""]","[1,1,1,0]",0,23,23,23,1,1,1,,,1,FALSE,1.0426,,,,,,,,,,,,,,,,,,,,,,,,,,,,,,
,60026ffbf37ef427e9384f56,001,2022-04-28_18h05.49.937,classification_task,2021.2.3,Win32,59.94844434,60026ffbf37ef427e9384f56,626b377229c10585ec392f8a,626b3983c8bad482ae00faae,,,,,,,,,,,,,,,,,,,,,,,a,1,"[""0.167"",""0.477"",""0.891"",""0.811""]","[1,1,1,0]",0,24,24,24,1,0,1,,,1,FALSE,0.5991,,,,,,,,,,,,,,,,,,,,,,,,,,,,,,
,60026ffbf37ef427e9384f56,001,2022-04-28_18h05.49.937,classification_task,2021.2.3,Win32,59.94844434,60026ffbf37ef427e9384f56,626b377229c10585ec392f8a,626b3983c8bad482ae00faae,,,,,,,,,,,,,,,,,,,,,,,a,1,"[""0.727"",""0.477"",""0.891"",""0.926""]","[0,1,1,1]",0,25,25,25,1,0,1,,,1,FALSE,0.599,,,,,,,,,,,,,,,,,,,,,,,,,,,,,,
,60026ffbf37ef427e9384f56,001,2022-04-28_18h05.49.937,classification_task,2021.2.3,Win32,59.94844434,60026ffbf37ef427e9384f56,626b377229c10585ec392f8a,626b3983c8bad482ae00faae,,,,,,,,,,,,,,,,,,,,,,,l,1,"[""0.047"",""0.315"",""0.960"",""0.761""]","[1,1,0,1]",0,26,26,26,1,1,1,,,1,FALSE,0.5663,,,,,,,,,,,,,,,,,,,,,,,,,,,,,,
,60026ffbf37ef427e9384f56,001,2022-04-28_18h05.49.937,classification_task,2021.2.3,Win32,59.94844434,60026ffbf37ef427e9384f56,626b377229c10585ec392f8a,626b3983c8bad482ae00faae,,,,,,,,,,,,,,,,,,,,,,,l,0,"[""0.221"",""0.403"",""0.580"",""0.816""]","[1,1,1,0]",0,27,27,27,1,0,0,,,1,FALSE,1.1677,,,,,,,,,,,,,,,,,,,,,,,,,,,,,,
,60026ffbf37ef427e9384f56,001,2022-04-28_18h05.49.937,classification_task,2021.2.3,Win32,59.94844434,60026ffbf37ef427e9384f56,626b377229c10585ec392f8a,626b3983c8bad482ae00faae,,,,,,,,,,,,,,,,,,,,,,,l,1,"[""0.090"",""0.361"",""0.971"",""0.686""]","[1,1,0,1]",0,28,28,28,1,1,0,,,1,FALSE,0.9217,,,,,,,,,,,,,,,,,,,,,,,,,,,,,,
,60026ffbf37ef427e9384f56,001,2022-04-28_18h05.49.937,classification_task,2021.2.3,Win32,59.94844434,60026ffbf37ef427e9384f56,626b377229c10585ec392f8a,626b3983c8bad482ae00faae,,,,,,,,,,,,,,,,,,,,,,,l,1,"[""0.047"",""0.271"",""0.516"",""0.761""]","[1,0,1,1]",0,29,29,29,1,1,1,,,1,FALSE,0.8203,,,,,,,,,,,,,,,,,,,,,,,,,,,,,,
,60026ffbf37ef427e9384f56,001,2022-04-28_18h05.49.937,classification_task,2021.2.3,Win32,59.94844434,60026ffbf37ef427e9384f56,626b377229c10585ec392f8a,626b3983c8bad482ae00faae,,,,,,,,,,,,,,,,,,,,,,,l,1,"[""0.132"",""0.361"",""0.441"",""0.686""]","[0,1,1,1]",0,30,30,30,1,1,0,,,1,FALSE,1.6523,,,,,,,,,,,,,,,,,,,,,,,,,,,,,,
,60026ffbf37ef427e9384f56,001,2022-04-28_18h05.49.937,classification_task,2021.2.3,Win32,59.94844434,60026ffbf37ef427e9384f56,626b377229c10585ec392f8a,626b3983c8bad482ae00faae,,,,,,,,,,,,,,,,,,,,,,,a,1,"[""0.167"",""0.811"",""0.891"",""0.926""]","[1,0,1,1]",0,31,31,31,1,0,1,,,1,FALSE,0.6161,,,,,,,,,,,,,,,,,,,,,,,,,,,,,,
,60026ffbf37ef427e9384f56,001,2022-04-28_18h05.49.937,classification_task,2021.2.3,Win32,59.94844434,60026ffbf37ef427e9384f56,626b377229c10585ec392f8a,626b3983c8bad482ae00faae,,,,,,,,,,,,,,,,,,,,,,,a,0,"[""0.261"",""0.361"",""0.441"",""0.686""]","[0,1,1,1]",0,32,32,32,1,1,0,,,1,FALSE,1.8333,,,,,,,,,,,,,,,,,,,,,,,,,,,,,,
,60026ffbf37ef427e9384f56,001,2022-04-28_18h05.49.937,classification_task,2021.2.3,Win32,59.94844434,60026ffbf37ef427e9384f56,626b377229c10585ec392f8a,626b3983c8bad482ae00faae,,,,,,,,,,,,,,,,,,,,,,,a,1,"[""0.221"",""0.403"",""0.965"",""0.855""]","[1,1,0,1]",0,33,33,33,1,0,0,,,1,FALSE,0.8017,,,,,,,,,,,,,,,,,,,,,,,,,,,,,,
,60026ffbf37ef427e9384f56,001,2022-04-28_18h05.49.937,classification_task,2021.2.3,Win32,59.94844434,60026ffbf37ef427e9384f56,626b377229c10585ec392f8a,626b3983c8bad482ae00faae,,,,,,,,,,,,,,,,,,,,,,,a,1,"[""0.167"",""0.477"",""0.891"",""0.811""]","[1,1,1,0]",0,34,34,34,1,0,1,,,1,FALSE,1.0748,,,,,,,,,,,,,,,,,,,,,,,,,,,,,,
,60026ffbf37ef427e9384f56,001,2022-04-28_18h05.49.937,classification_task,2021.2.3,Win32,59.94844434,60026ffbf37ef427e9384f56,626b377229c10585ec392f8a,626b3983c8bad482ae00faae,,,,,,,,,,,,,,,,,,,,,,,l,1,"[""0.047"",""0.132"",""0.516"",""0.761""]","[1,0,1,1]",0,35,35,35,1,1,1,,,1,FALSE,0.8191,,,,,,,,,,,,,,,,,,,,,,,,,,,,,,
,60026ffbf37ef427e9384f56,001,2022-04-28_18h05.49.937,classification_task,2021.2.3,Win32,59.94844434,60026ffbf37ef427e9384f56,626b377229c10585ec392f8a,626b3983c8bad482ae00faae,,,,,,,,,,,,,,,,,,,,,,,l,1,"[""0.620"",""0.315"",""0.516"",""0.761""]","[0,1,1,1]",0,36,36,36,1,1,1,,,1,FALSE,0.6517,,,,,,,,,,,,,,,,,,,,,,,,,,,,,,
,60026ffbf37ef427e9384f56,001,2022-04-28_18h05.49.937,classification_task,2021.2.3,Win32,59.94844434,60026ffbf37ef427e9384f56,626b377229c10585ec392f8a,626b3983c8bad482ae00faae,,,,,,,,,,,,,,,,,,,,,,,a,1,"[""0.221"",""0.971"",""0.580"",""0.855""]","[1,0,1,1]",0,37,37,37,1,0,0,,,1,FALSE,4.1704,,,,,,,,,,,,,,,,,,,,,,,,,,,,,,
,60026ffbf37ef427e9384f56,001,2022-04-28_18h05.49.937,classification_task,2021.2.3,Win32,59.94844434,60026ffbf37ef427e9384f56,626b377229c10585ec392f8a,626b3983c8bad482ae00faae,,,,,,,,,,,,,,,,,,,,,,,l,1,"[""0.090"",""0.271"",""0.441"",""0.686""]","[1,0,1,1]",0,38,38,38,1,1,0,,,1,FALSE,2.0178,,,,,,,,,,,,,,,,,,,,,,,,,,,,,,
,60026ffbf37ef427e9384f56,001,2022-04-28_18h05.49.937,classification_task,2021.2.3,Win32,59.94844434,60026ffbf37ef427e9384f56,626b377229c10585ec392f8a,626b3983c8bad482ae00faae,,,,,,,,,,,,,,,,,,,,,,,l,0,"[""0.221"",""0.403"",""0.580"",""0.620""]","[1,1,1,0]",0,39,39,39,1,0,0,,,1,FALSE,1.0824,,,,,,,,,,,,,,,,,,,,,,,,,,,,,,
,60026ffbf37ef427e9384f56,001,2022-04-28_18h05.49.937,classification_task,2021.2.3,Win32,59.94844434,60026ffbf37ef427e9384f56,626b377229c10585ec392f8a,626b3983c8bad482ae00faae,,,,,,,,,,,,,,,,,,,,,,,a,1,"[""0.167"",""0.477"",""0.614"",""0.926""]","[1,1,0,1]",0,40,40,40,1,0,1,,,1,FALSE,0.7121,,,,,,,,,,,,,,,,,,,,,,,,,,,,,,
,60026ffbf37ef427e9384f56,001,2022-04-28_18h05.49.937,classification_task,2021.2.3,Win32,59.94844434,60026ffbf37ef427e9384f56,626b377229c10585ec392f8a,626b3983c8bad482ae00faae,,,,,,,,,,,,,,,,,,,,,,,a,1,"[""0.727"",""0.477"",""0.891"",""0.926""]","[0,1,1,1]",0,41,41,41,1,0,1,,,1,FALSE,0.5166,,,,,,,,,,,,,,,,,,,,,,,,,,,,,,
,60026ffbf37ef427e9384f56,001,2022-04-28_18h05.49.937,classification_task,2021.2.3,Win32,59.94844434,60026ffbf37ef427e9384f56,626b377229c10585ec392f8a,626b3983c8bad482ae00faae,,,,,,,,,,,,,,,,,,,,,,,a,1,"[""0.167"",""0.962"",""0.891"",""0.926""]","[1,0,1,1]",0,42,42,42,1,0,1,,,1,FALSE,0.5527,,,,,,,,,,,,,,,,,,,,,,,,,,,,,,
,60026ffbf37ef427e9384f56,001,2022-04-28_18h05.49.937,classification_task,2021.2.3,Win32,59.94844434,60026ffbf37ef427e9384f56,626b377229c10585ec392f8a,626b3983c8bad482ae00faae,,,,,,,,,,,,,,,,,,,,,,,l,1,"[""0.047"",""0.315"",""0.516"",""0.811""]","[1,1,1,0]",0,43,43,43,1,1,1,,,1,FALSE,0.7544,,,,,,,,,,,,,,,,,,,,,,,,,,,,,,
,60026ffbf37ef427e9384f56,001,2022-04-28_18h05.49.937,classification_task,2021.2.3,Win32,59.94844434,60026ffbf37ef427e9384f56,626b377229c10585ec392f8a,626b3983c8bad482ae00faae,,,,,,,,,,,,,,,,,,,,,,,l,1,"[""0.090"",""0.361"",""0.614"",""0.686""]","[1,1,0,1]",0,44,44,44,1,1,0,,,1,FALSE,1.0213,,,,,,,,,,,,,,,,,,,,,,,,,,,,,,
,60026ffbf37ef427e9384f56,001,2022-04-28_18h05.49.937,classification_task,2021.2.3,Win32,59.94844434,60026ffbf37ef427e9384f56,626b377229c10585ec392f8a,626b3983c8bad482ae00faae,,,,,,,,,,,,,,,,,,,,,,,a,1,"[""0.816"",""0.403"",""0.580"",""0.855""]","[0,1,1,1]",0,45,45,45,1,0,0,,,1,FALSE,1.5851,,,,,,,,,,,,,,,,,,,,,,,,,,,,,,
,60026ffbf37ef427e9384f56,001,2022-04-28_18h05.49.937,classification_task,2021.2.3,Win32,59.94844434,60026ffbf37ef427e9384f56,626b377229c10585ec392f8a,626b3983c8bad482ae00faae,,,,,,,,,,,,,,,,,,,,,,,l,1,"[""0.090"",""0.361"",""0.441"",""0.620""]","[1,1,1,0]",0,46,46,46,1,1,0,,,1,FALSE,1.0336,,,,,,,,,,,,,,,,,,,,,,,,,,,,,,
,60026ffbf37ef427e9384f56,001,2022-04-28_18h05.49.937,classification_task,2021.2.3,Win32,59.94844434,60026ffbf37ef427e9384f56,626b377229c10585ec392f8a,626b3983c8bad482ae00faae,,,,,,,,,,,,,,,,,,,,,,,l,1,"[""0.047"",""0.315"",""0.962"",""0.761""]","[1,1,0,1]",0,47,47,47,1,1,1,,,1,FALSE,0.7677,,,,,,,,,,,,,,,,,,,,,,,,,,,,,,
,60026ffbf37ef427e9384f56,001,2022-04-28_18h05.49.937,classification_task,2021.2.3,Win32,59.94844434,60026ffbf37ef427e9384f56,626b377229c10585ec392f8a,626b3983c8bad482ae00faae,,,,,,,,,,,,,,,,,,,,,,,a,1,"[""0.167"",""0.477"",""0.811"",""0.926""]","[1,1,0,1]",0,48,48,48,1,0,1,,,1,FALSE,0.8513,,,,,,,,,,,,,,,,,,,,,,,,,,,,,,
,60026ffbf37ef427e9384f56,001,2022-04-28_18h05.49.937,classification_task,2021.2.3,Win32,59.94844434,60026ffbf37ef427e9384f56,626b377229c10585ec392f8a,626b3983c8bad482ae00faae,,,,,,,,,,,,,,,,,,,,,,,a,1,"[""0.221"",""0.960"",""0.580"",""0.855""]","[1,0,1,1]",0,49,49,49,1,0,0,,,1,FALSE,0.8515,,,,,,,,,,,,,,,,,,,,,,,,,,,,,,
,60026ffbf37ef427e9384f56,001,2022-04-28_18h05.49.937,classification_task,2021.2.3,Win32,59.94844434,60026ffbf37ef427e9384f56,626b377229c10585ec392f8a,626b3983c8bad482ae00faae,,,,,,,,,,,,,,,,,,,,,,,l,1,"[""0.047"",""0.315"",""0.516"",""0.811""]","[1,1,1,0]",0,50,50,50,1,1,1,,,1,FALSE,0.859,,,,,,,,,,,,,,,,,,,,,,,,,,,,,,
,60026ffbf37ef427e9384f56,001,2022-04-28_18h05.49.937,classification_task,2021.2.3,Win32,59.94844434,60026ffbf37ef427e9384f56,626b377229c10585ec392f8a,626b3983c8bad482ae00faae,,,,,,,,,,,,,,,,,,,,,,,l,1,"[""0.960"",""0.315"",""0.516"",""0.761""]","[0,1,1,1]",0,51,51,51,1,1,1,,,1,FALSE,1.2881,,,,,,,,,,,,,,,,,,,,,,,,,,,,,,
,60026ffbf37ef427e9384f56,001,2022-04-28_18h05.49.937,classification_task,2021.2.3,Win32,59.94844434,60026ffbf37ef427e9384f56,626b377229c10585ec392f8a,626b3983c8bad482ae00faae,,,,,,,,,,,,,,,,,,,,,,,a,0,"[""0.047"",""0.811"",""0.516"",""0.761""]","[1,0,1,1]",0,52,52,52,1,1,1,,,1,FALSE,0.7687,,,,,,,,,,,,,,,,,,,,,,,,,,,,,,
,60026ffbf37ef427e9384f56,001,2022-04-28_18h05.49.937,classification_task,2021.2.3,Win32,59.94844434,60026ffbf37ef427e9384f56,626b377229c10585ec392f8a,626b3983c8bad482ae00faae,,,,,,,,,,,,,,,,,,,,,,,a,0,"[""0.965"",""0.361"",""0.441"",""0.686""]","[0,1,1,1]",0,53,53,53,1,1,0,,,1,FALSE,1.0859,,,,,,,,,,,,,,,,,,,,,,,,,,,,,,
,60026ffbf37ef427e9384f56,001,2022-04-28_18h05.49.937,classification_task,2021.2.3,Win32,59.94844434,60026ffbf37ef427e9384f56,626b377229c10585ec392f8a,626b3983c8bad482ae00faae,,,,,,,,,,,,,,,,,,,,,,,l,1,"[""0.047"",""0.315"",""0.132"",""0.761""]","[1,1,0,1]",0,54,54,54,1,1,1,,,1,FALSE,0.9176,,,,,,,,,,,,,,,,,,,,,,,,,,,,,,
,60026ffbf37ef427e9384f56,001,2022-04-28_18h05.49.937,classification_task,2021.2.3,Win32,59.94844434,60026ffbf37ef427e9384f56,626b377229c10585ec392f8a,626b3983c8bad482ae00faae,,,,,,,,,,,,,,,,,,,,,,,a,1,"[""0.813"",""0.477"",""0.891"",""0.926""]","[0,1,1,1]",0,55,55,55,1,0,1,,,1,FALSE,0.8587,,,,,,,,,,,,,,,,,,,,,,,,,,,,,,
,60026ffbf37ef427e9384f56,001,2022-04-28_18h05.49.937,classification_task,2021.2.3,Win32,59.94844434,60026ffbf37ef427e9384f56,626b377229c10585ec392f8a,626b3983c8bad482ae00faae,,,,,,,,,,,,,,,,,,,,,,,a,1,"[""0.221"",""0.403"",""0.971"",""0.855""]","[1,1,0,1]",0,56,56,56,1,0,0,,,1,FALSE,1.6866,,,,,,,,,,,,,,,,,,,,,,,,,,,,,,
,60026ffbf37ef427e9384f56,001,2022-04-28_18h05.49.937,classification_task,2021.2.3,Win32,59.94844434,60026ffbf37ef427e9384f56,626b377229c10585ec392f8a,626b3983c8bad482ae00faae,,,,,,,,,,,,,,,,,,,,,,,l,0,"[""0.167"",""0.477"",""0.891"",""0.816""]","[1,1,1,0]",0,57,57,57,1,0,1,,,1,FALSE,0.8464,,,,,,,,,,,,,,,,,,,,,,,,,,,,,,
,60026ffbf37ef427e9384f56,001,2022-04-28_18h05.49.937,classification_task,2021.2.3,Win32,59.94844434,60026ffbf37ef427e9384f56,626b377229c10585ec392f8a,626b3983c8bad482ae00faae,,,,,,,,,,,,,,,,,,,,,,,a,0,"[""0.090"",""0.361"",""0.441"",""0.648""]","[1,1,1,0]",0,58,58,58,1,1,0,,,1,FALSE,0.8335,,,,,,,,,,,,,,,,,,,,,,,,,,,,,,
,60026ffbf37ef427e9384f56,001,2022-04-28_18h05.49.937,classification_task,2021.2.3,Win32,59.94844434,60026ffbf37ef427e9384f56,626b377229c10585ec392f8a,626b3983c8bad482ae00faae,,,,,,,,,,,,,,,,,,,,,,,l,1,"[""0.090"",""0.361"",""0.816"",""0.686""]","[1,1,0,1]",0,59,59,59,1,1,0,,,1,FALSE,0.8887,,,,,,,,,,,,,,,,,,,,,,,,,,,,,,
,60026ffbf37ef427e9384f56,001,2022-04-28_18h05.49.937,classification_task,2021.2.3,Win32,59.94844434,60026ffbf37ef427e9384f56,626b377229c10585ec392f8a,626b3983c8bad482ae00faae,,,,,,,,,,,,,,,,,,,,,,,a,1,"[""0.620"",""0.403"",""0.580"",""0.855""]","[0,1,1,1]",0,60,60,60,1,0,0,,,1,FALSE,1.0215,,,,,,,,,,,,,,,,,,,,,,,,,,,,,,
,60026ffbf37ef427e9384f56,001,2022-04-28_18h05.49.937,classification_task,2021.2.3,Win32,59.94844434,60026ffbf37ef427e9384f56,626b377229c10585ec392f8a,626b3983c8bad482ae00faae,,,,,,,,,,,,,,,,,,,,,,,l,0,"[""0.221"",""0.403"",""0.580"",""0.132""]","[1,1,1,0]",0,61,61,61,1,0,0,,,1,FALSE,0.8182,,,,,,,,,,,,,,,,,,,,,,,,,,,,,,
,60026ffbf37ef427e9384f56,001,2022-04-28_18h05.49.937,classification_task,2021.2.3,Win32,59.94844434,60026ffbf37ef427e9384f56,626b377229c10585ec392f8a,626b3983c8bad482ae00faae,,,,,,,,,,,,,,,,,,,,,,,a,0,"[""0.090"",""0.727"",""0.441"",""0.686""]","[1,0,1,1]",0,62,62,62,1,1,0,,,1,FALSE,1.3003,,,,,,,,,,,,,,,,,,,,,,,,,,,,,,
,60026ffbf37ef427e9384f56,001,2022-04-28_18h05.49.937,classification_task,2021.2.3,Win32,59.94844434,60026ffbf37ef427e9384f56,626b377229c10585ec392f8a,626b3983c8bad482ae00faae,,,,,,,,,,,,,,,,,,,,,,,a,1,"[""0.167"",""0.811"",""0.891"",""0.926""]","[1,0,1,1]",0,63,63,63,1,0,1,,,1,FALSE,1.0498,,,,,,,,,,,,,,,,,,,,,,,,,,,,,,
,60026ffbf37ef427e9384f56,001,2022-04-28_18h05.49.937,classification_task,2021.2.3,Win32,59.94844434,60026ffbf37ef427e9384f56,626b377229c10585ec392f8a,626b3983c8bad482ae00faae,,,,,,,,,,,,,,,,,,,,,,,,,,,,,,,,,,,,,,,0, ,,0,10,153.4192,0,1,1,1,1,2,2,,,,,,,,,,,,,,,,,
,60026ffbf37ef427e9384f56,001,2022-04-28_18h05.49.937,classification_task,2021.2.3,Win32,59.94844434,60026ffbf37ef427e9384f56,626b377229c10585ec392f8a,626b3983c8bad482ae00faae,,,,,,,,,,,,,,,,,,,,,,,,,,,,,,,,,,,,,,,1,  ,,0,4.193751575,157.2223,0,1,1,1,1,2,2,,,,,,,,,,,,,,,,,
,60026ffbf37ef427e9384f56,001,2022-04-28_18h05.49.937,classification_task,2021.2.3,Win32,59.94844434,60026ffbf37ef427e9384f56,626b377229c10585ec392f8a,626b3983c8bad482ae00faae,,,,,,,,,,,,,,,,,,,,,,,,,,,,,,,,,,,,,,,2,  ,,0,3.23633157,159.9896,0,1,1,1,1,2,2,,,,,,,,,,,,,,,,,
,60026ffbf37ef427e9384f56,001,2022-04-28_18h05.49.937,classification_task,2021.2.3,Win32,59.94844434,60026ffbf37ef427e9384f56,626b377229c10585ec392f8a,626b3983c8bad482ae00faae,,,,,,,,,,,,,,,,,,,,,,,,,,,,,,,,,,,,,,,,,,,,,0,1,1,1,1,,2,,,,,,,,,,,,,,,,,
,60026ffbf37ef427e9384f56,001,2022-04-28_18h05.49.937,classification_task,2021.2.3,Win32,59.94844434,60026ffbf37ef427e9384f56,626b377229c10585ec392f8a,626b3983c8bad482ae00faae,,,,,,,,,,,,,,,,,,,,,space,8.0768,l,1,"[""0.271"",""0.361"",""0.441"",""0.686""]","[0,1,1,1]",0,0,0,0,1,1,0,,,1,FALSE,2.1387,,,,,,,,,,,,,,,,,,,,,,,,,,,,,,
,60026ffbf37ef427e9384f56,001,2022-04-28_18h05.49.937,classification_task,2021.2.3,Win32,59.94844434,60026ffbf37ef427e9384f56,626b377229c10585ec392f8a,626b3983c8bad482ae00faae,,,,,,,,,,,,,,,,,,,,,,,a,1,"[""0.960"",""0.477"",""0.891"",""0.926""]","[0,1,1,1]",0,1,1,1,1,0,1,,,1,FALSE,1.5252,,,,,,,,,,,,,,,,,,,,,,,,,,,,,,
,60026ffbf37ef427e9384f56,001,2022-04-28_18h05.49.937,classification_task,2021.2.3,Win32,59.94844434,60026ffbf37ef427e9384f56,626b377229c10585ec392f8a,626b3983c8bad482ae00faae,,,,,,,,,,,,,,,,,,,,,,,a,1,"[""0.167"",""0.477"",""0.962"",""0.926""]","[1,1,0,1]",0,2,2,2,1,0,1,,,1,FALSE,1.167,,,,,,,,,,,,,,,,,,,,,,,,,,,,,,
,60026ffbf37ef427e9384f56,001,2022-04-28_18h05.49.937,classification_task,2021.2.3,Win32,59.94844434,60026ffbf37ef427e9384f56,626b377229c10585ec392f8a,626b3983c8bad482ae00faae,,,,,,,,,,,,,,,,,,,,,,,a,1,"[""0.221"",""0.403"",""0.811"",""0.855""]","[1,1,0,1]",0,3,3,3,1,0,0,,,1,FALSE,1.7331,,,,,,,,,,,,,,,,,,,,,,,,,,,,,,
,60026ffbf37ef427e9384f56,001,2022-04-28_18h05.49.937,classification_task,2021.2.3,Win32,59.94844434,60026ffbf37ef427e9384f56,626b377229c10585ec392f8a,626b3983c8bad482ae00faae,,,,,,,,,,,,,,,,,,,,,,,l,1,"[""0.047"",""0.315"",""0.614"",""0.761""]","[1,1,0,1]",0,4,4,4,1,1,1,,,1,FALSE,0.8356,,,,,,,,,,,,,,,,,,,,,,,,,,,,,,
,60026ffbf37ef427e9384f56,001,2022-04-28_18h05.49.937,classification_task,2021.2.3,Win32,59.94844434,60026ffbf37ef427e9384f56,626b377229c10585ec392f8a,626b3983c8bad482ae00faae,,,,,,,,,,,,,,,,,,,,,,,l,0,"[""0.167"",""0.477"",""0.891"",""0.261""]","[1,1,1,0]",0,5,5,5,1,0,1,,,1,FALSE,0.9191,,,,,,,,,,,,,,,,,,,,,,,,,,,,,,
,60026ffbf37ef427e9384f56,001,2022-04-28_18h05.49.937,classification_task,2021.2.3,Win32,59.94844434,60026ffbf37ef427e9384f56,626b377229c10585ec392f8a,626b3983c8bad482ae00faae,,,,,,,,,,,,,,,,,,,,,,,a,1,"[""0.221"",""0.798"",""0.580"",""0.855""]","[1,0,1,1]",0,6,6,6,1,0,0,,,1,FALSE,1.52,,,,,,,,,,,,,,,,,,,,,,,,,,,,,,
,60026ffbf37ef427e9384f56,001,2022-04-28_18h05.49.937,classification_task,2021.2.3,Win32,59.94844434,60026ffbf37ef427e9384f56,626b377229c10585ec392f8a,626b3983c8bad482ae00faae,,,,,,,,,,,,,,,,,,,,,,,l,1,"[""0.047"",""0.315"",""0.516"",""0.620""]","[1,1,1,0]",0,7,7,7,1,1,1,,,1,FALSE,0.9341,,,,,,,,,,,,,,,,,,,,,,,,,,,,,,
,60026ffbf37ef427e9384f56,001,2022-04-28_18h05.49.937,classification_task,2021.2.3,Win32,59.94844434,60026ffbf37ef427e9384f56,626b377229c10585ec392f8a,626b3983c8bad482ae00faae,,,,,,,,,,,,,,,,,,,,,,,a,1,"[""0.167"",""0.813"",""0.891"",""0.926""]","[1,0,1,1]",0,8,8,8,1,0,1,,,1,FALSE,1.5562,,,,,,,,,,,,,,,,,,,,,,,,,,,,,,
,60026ffbf37ef427e9384f56,001,2022-04-28_18h05.49.937,classification_task,2021.2.3,Win32,59.94844434,60026ffbf37ef427e9384f56,626b377229c10585ec392f8a,626b3983c8bad482ae00faae,,,,,,,,,,,,,,,,,,,,,,,l,1,"[""0.090"",""0.361"",""0.441"",""0.965""]","[1,1,1,0]",0,9,9,9,1,1,0,,,1,FALSE,1.7147,,,,,,,,,,,,,,,,,,,,,,,,,,,,,,
,60026ffbf37ef427e9384f56,001,2022-04-28_18h05.49.937,classification_task,2021.2.3,Win32,59.94844434,60026ffbf37ef427e9384f56,626b377229c10585ec392f8a,626b3983c8bad482ae00faae,,,,,,,,,,,,,,,,,,,,,,,l,0,"[""0.221"",""0.403"",""0.580"",""0.813""]","[1,1,1,0]",0,10,10,10,1,0,0,,,1,FALSE,0.716,,,,,,,,,,,,,,,,,,,,,,,,,,,,,,
,60026ffbf37ef427e9384f56,001,2022-04-28_18h05.49.937,classification_task,2021.2.3,Win32,59.94844434,60026ffbf37ef427e9384f56,626b377229c10585ec392f8a,626b3983c8bad482ae00faae,,,,,,,,,,,,,,,,,,,,,,,l,0,"[""0.965"",""0.403"",""0.580"",""0.855""]","[0,1,1,1]",0,11,11,11,1,0,0,,,1,FALSE,0.8299,,,,,,,,,,,,,,,,,,,,,,,,,,,,,,
,60026ffbf37ef427e9384f56,001,2022-04-28_18h05.49.937,classification_task,2021.2.3,Win32,59.94844434,60026ffbf37ef427e9384f56,626b377229c10585ec392f8a,626b3983c8bad482ae00faae,,,,,,,,,,,,,,,,,,,,,,,l,1,"[""0.614"",""0.315"",""0.516"",""0.761""]","[0,1,1,1]",0,12,12,12,1,1,1,,,1,FALSE,2.2524,,,,,,,,,,,,,,,,,,,,,,,,,,,,,,
,60026ffbf37ef427e9384f56,001,2022-04-28_18h05.49.937,classification_task,2021.2.3,Win32,59.94844434,60026ffbf37ef427e9384f56,626b377229c10585ec392f8a,626b3983c8bad482ae00faae,,,,,,,,,,,,,,,,,,,,,,,a,0,"[""0.047"",""0.798"",""0.516"",""0.761""]","[1,0,1,1]",0,13,13,13,1,1,1,,,1,FALSE,0.9896,,,,,,,,,,,,,,,,,,,,,,,,,,,,,,
,60026ffbf37ef427e9384f56,001,2022-04-28_18h05.49.937,classification_task,2021.2.3,Win32,59.94844434,60026ffbf37ef427e9384f56,626b377229c10585ec392f8a,626b3983c8bad482ae00faae,,,,,,,,,,,,,,,,,,,,,,,l,1,"[""0.090"",""0.361"",""0.971"",""0.686""]","[1,1,0,1]",0,14,14,14,1,1,0,,,1,FALSE,0.7223,,,,,,,,,,,,,,,,,,,,,,,,,,,,,,
,60026ffbf37ef427e9384f56,001,2022-04-28_18h05.49.937,classification_task,2021.2.3,Win32,59.94844434,60026ffbf37ef427e9384f56,626b377229c10585ec392f8a,626b3983c8bad482ae00faae,,,,,,,,,,,,,,,,,,,,,,,l,1,"[""0.090"",""0.813"",""0.441"",""0.686""]","[1,0,1,1]",0,15,15,15,1,1,0,,,1,FALSE,0.8684,,,,,,,,,,,,,,,,,,,,,,,,,,,,,,
,60026ffbf37ef427e9384f56,001,2022-04-28_18h05.49.937,classification_task,2021.2.3,Win32,59.94844434,60026ffbf37ef427e9384f56,626b377229c10585ec392f8a,626b3983c8bad482ae00faae,,,,,,,,,,,,,,,,,,,,,,,l,1,"[""0.047"",""0.315"",""0.813"",""0.761""]","[1,1,0,1]",0,16,16,16,1,1,1,,,1,FALSE,1.4507,,,,,,,,,,,,,,,,,,,,,,,,,,,,,,
,60026ffbf37ef427e9384f56,001,2022-04-28_18h05.49.937,classification_task,2021.2.3,Win32,59.94844434,60026ffbf37ef427e9384f56,626b377229c10585ec392f8a,626b3983c8bad482ae00faae,,,,,,,,,,,,,,,,,,,,,,,a,0,"[""0.090"",""0.361"",""0.441"",""0.816""]","[1,1,1,0]",0,17,17,17,1,1,0,,,1,FALSE,0.9466,,,,,,,,,,,,,,,,,,,,,,,,,,,,,,
,60026ffbf37ef427e9384f56,001,2022-04-28_18h05.49.937,classification_task,2021.2.3,Win32,59.94844434,60026ffbf37ef427e9384f56,626b377229c10585ec392f8a,626b3983c8bad482ae00faae,,,,,,,,,,,,,,,,,,,,,,,l,1,"[""0.090"",""0.361"",""0.813"",""0.686""]","[1,1,0,1]",0,18,18,18,1,1,0,,,1,FALSE,0.7679,,,,,,,,,,,,,,,,,,,,,,,,,,,,,,
,60026ffbf37ef427e9384f56,001,2022-04-28_18h05.49.937,classification_task,2021.2.3,Win32,59.94844434,60026ffbf37ef427e9384f56,626b377229c10585ec392f8a,626b3983c8bad482ae00faae,,,,,,,,,,,,,,,,,,,,,,,a,0,"[""0.727"",""0.361"",""0.441"",""0.686""]","[0,1,1,1]",0,19,19,19,1,1,0,,,1,FALSE,1.0513,,,,,,,,,,,,,,,,,,,,,,,,,,,,,,
,60026ffbf37ef427e9384f56,001,2022-04-28_18h05.49.937,classification_task,2021.2.3,Win32,59.94844434,60026ffbf37ef427e9384f56,626b377229c10585ec392f8a,626b3983c8bad482ae00faae,,,,,,,,,,,,,,,,,,,,,,,a,0,"[""0.047"",""0.620"",""0.516"",""0.761""]","[1,0,1,1]",0,20,20,20,1,1,1,,,1,FALSE,1.002,,,,,,,,,,,,,,,,,,,,,,,,,,,,,,
,60026ffbf37ef427e9384f56,001,2022-04-28_18h05.49.937,classification_task,2021.2.3,Win32,59.94844434,60026ffbf37ef427e9384f56,626b377229c10585ec392f8a,626b3983c8bad482ae00faae,,,,,,,,,,,,,,,,,,,,,,,l,0,"[""0.221"",""0.403"",""0.580"",""0.271""]","[1,1,1,0]",0,21,21,21,1,0,0,,,1,FALSE,1.3969,,,,,,,,,,,,,,,,,,,,,,,,,,,,,,
,60026ffbf37ef427e9384f56,001,2022-04-28_18h05.49.937,classification_task,2021.2.3,Win32,59.94844434,60026ffbf37ef427e9384f56,626b377229c10585ec392f8a,626b3983c8bad482ae00faae,,,,,,,,,,,,,,,,,,,,,,,l,1,"[""0.047"",""0.315"",""0.516"",""0.813""]","[1,1,1,0]",0,22,22,22,1,1,1,,,1,FALSE,0.8845,,,,,,,,,,,,,,,,,,,,,,,,,,,,,,
,60026ffbf37ef427e9384f56,001,2022-04-28_18h05.49.937,classification_task,2021.2.3,Win32,59.94844434,60026ffbf37ef427e9384f56,626b377229c10585ec392f8a,626b3983c8bad482ae00faae,,,,,,,,,,,,,,,,,,,,,,,a,1,"[""0.167"",""0.811"",""0.891"",""0.926""]","[1,0,1,1]",0,23,23,23,1,0,1,,,1,FALSE,1.0652,,,,,,,,,,,,,,,,,,,,,,,,,,,,,,
,60026ffbf37ef427e9384f56,001,2022-04-28_18h05.49.937,classification_task,2021.2.3,Win32,59.94844434,60026ffbf37ef427e9384f56,626b377229c10585ec392f8a,626b3983c8bad482ae00faae,,,,,,,,,,,,,,,,,,,,,,,l,0,"[""0.167"",""0.477"",""0.891"",""0.648""]","[1,1,1,0]",0,24,24,24,1,0,1,,,1,FALSE,0.711,,,,,,,,,,,,,,,,,,,,,,,,,,,,,,
,60026ffbf37ef427e9384f56,001,2022-04-28_18h05.49.937,classification_task,2021.2.3,Win32,59.94844434,60026ffbf37ef427e9384f56,626b377229c10585ec392f8a,626b3983c8bad482ae00faae,,,,,,,,,,,,,,,,,,,,,,,l,0,"[""0.167"",""0.477"",""0.620"",""0.926""]","[1,1,0,1]",0,25,25,25,1,0,1,,,1,FALSE,0.7844,,,,,,,,,,,,,,,,,,,,,,,,,,,,,,
,60026ffbf37ef427e9384f56,001,2022-04-28_18h05.49.937,classification_task,2021.2.3,Win32,59.94844434,60026ffbf37ef427e9384f56,626b377229c10585ec392f8a,626b3983c8bad482ae00faae,,,,,,,,,,,,,,,,,,,,,,,a,1,"[""0.962"",""0.477"",""0.891"",""0.926""]","[0,1,1,1]",0,26,26,26,1,0,1,,,1,FALSE,1.067,,,,,,,,,,,,,,,,,,,,,,,,,,,,,,
,60026ffbf37ef427e9384f56,001,2022-04-28_18h05.49.937,classification_task,2021.2.3,Win32,59.94844434,60026ffbf37ef427e9384f56,626b377229c10585ec392f8a,626b3983c8bad482ae00faae,,,,,,,,,,,,,,,,,,,,,,,a,0,"[""0.090"",""0.132"",""0.441"",""0.686""]","[1,0,1,1]",0,27,27,27,1,1,0,,,1,FALSE,0.8458,,,,,,,,,,,,,,,,,,,,,,,,,,,,,,
,60026ffbf37ef427e9384f56,001,2022-04-28_18h05.49.937,classification_task,2021.2.3,Win32,59.94844434,60026ffbf37ef427e9384f56,626b377229c10585ec392f8a,626b3983c8bad482ae00faae,,,,,,,,,,,,,,,,,,,,,,,l,0,"[""0.221"",""0.403"",""0.727"",""0.855""]","[1,1,0,1]",0,28,28,28,1,0,0,,,1,FALSE,0.7186,,,,,,,,,,,,,,,,,,,,,,,,,,,,,,
,60026ffbf37ef427e9384f56,001,2022-04-28_18h05.49.937,classification_task,2021.2.3,Win32,59.94844434,60026ffbf37ef427e9384f56,626b377229c10585ec392f8a,626b3983c8bad482ae00faae,,,,,,,,,,,,,,,,,,,,,,,a,1,"[""0.798"",""0.403"",""0.580"",""0.855""]","[0,1,1,1]",0,29,29,29,1,0,0,,,1,FALSE,1.0824,,,,,,,,,,,,,,,,,,,,,,,,,,,,,,
,60026ffbf37ef427e9384f56,001,2022-04-28_18h05.49.937,classification_task,2021.2.3,Win32,59.94844434,60026ffbf37ef427e9384f56,626b377229c10585ec392f8a,626b3983c8bad482ae00faae,,,,,,,,,,,,,,,,,,,,,,,a,1,"[""0.221"",""0.813"",""0.580"",""0.855""]","[1,0,1,1]",0,30,30,30,1,0,0,,,1,FALSE,1.4895,,,,,,,,,,,,,,,,,,,,,,,,,,,,,,
,60026ffbf37ef427e9384f56,001,2022-04-28_18h05.49.937,classification_task,2021.2.3,Win32,59.94844434,60026ffbf37ef427e9384f56,626b377229c10585ec392f8a,626b3983c8bad482ae00faae,,,,,,,,,,,,,,,,,,,,,,,a,0,"[""0.271"",""0.315"",""0.516"",""0.761""]","[0,1,1,1]",0,31,31,31,1,1,1,,,1,FALSE,3.8221,,,,,,,,,,,,,,,,,,,,,,,,,,,,,,
,60026ffbf37ef427e9384f56,001,2022-04-28_18h05.49.937,classification_task,2021.2.3,Win32,59.94844434,60026ffbf37ef427e9384f56,626b377229c10585ec392f8a,626b3983c8bad482ae00faae,,,,,,,,,,,,,,,,,,,,,,,l,1,"[""0.960"",""0.315"",""0.516"",""0.761""]","[0,1,1,1]",0,32,32,32,1,1,1,,,1,FALSE,0.5696,,,,,,,,,,,,,,,,,,,,,,,,,,,,,,
,60026ffbf37ef427e9384f56,001,2022-04-28_18h05.49.937,classification_task,2021.2.3,Win32,59.94844434,60026ffbf37ef427e9384f56,626b377229c10585ec392f8a,626b3983c8bad482ae00faae,,,,,,,,,,,,,,,,,,,,,,,a,1,"[""0.965"",""0.477"",""0.891"",""0.926""]","[0,1,1,1]",0,33,33,33,1,0,1,,,1,FALSE,0.8939,,,,,,,,,,,,,,,,,,,,,,,,,,,,,,
,60026ffbf37ef427e9384f56,001,2022-04-28_18h05.49.937,classification_task,2021.2.3,Win32,59.94844434,60026ffbf37ef427e9384f56,626b377229c10585ec392f8a,626b3983c8bad482ae00faae,,,,,,,,,,,,,,,,,,,,,,,l,0,"[""0.962"",""0.403"",""0.580"",""0.855""]","[0,1,1,1]",0,34,34,34,1,0,0,,,1,FALSE,1.0181,,,,,,,,,,,,,,,,,,,,,,,,,,,,,,
,60026ffbf37ef427e9384f56,001,2022-04-28_18h05.49.937,classification_task,2021.2.3,Win32,59.94844434,60026ffbf37ef427e9384f56,626b377229c10585ec392f8a,626b3983c8bad482ae00faae,,,,,,,,,,,,,,,,,,,,,,,l,1,"[""0.047"",""0.261"",""0.516"",""0.761""]","[1,0,1,1]",0,35,35,35,1,1,1,,,1,FALSE,0.6701,,,,,,,,,,,,,,,,,,,,,,,,,,,,,,
,60026ffbf37ef427e9384f56,001,2022-04-28_18h05.49.937,classification_task,2021.2.3,Win32,59.94844434,60026ffbf37ef427e9384f56,626b377229c10585ec392f8a,626b3983c8bad482ae00faae,,,,,,,,,,,,,,,,,,,,,,,l,1,"[""0.047"",""0.315"",""0.614"",""0.761""]","[1,1,0,1]",0,36,36,36,1,1,1,,,1,FALSE,1.4017,,,,,,,,,,,,,,,,,,,,,,,,,,,,,,
,60026ffbf37ef427e9384f56,001,2022-04-28_18h05.49.937,classification_task,2021.2.3,Win32,59.94844434,60026ffbf37ef427e9384f56,626b377229c10585ec392f8a,626b3983c8bad482ae00faae,,,,,,,,,,,,,,,,,,,,,,,a,0,"[""0.047"",""0.315"",""0.516"",""0.271""]","[1,1,1,0]",0,37,37,37,1,1,1,,,1,FALSE,1.0375,,,,,,,,,,,,,,,,,,,,,,,,,,,,,,
,60026ffbf37ef427e9384f56,001,2022-04-28_18h05.49.937,classification_task,2021.2.3,Win32,59.94844434,60026ffbf37ef427e9384f56,626b377229c10585ec392f8a,626b3983c8bad482ae00faae,,,,,,,,,,,,,,,,,,,,,,,a,1,"[""0.221"",""0.811"",""0.580"",""0.855""]","[1,0,1,1]",0,38,38,38,1,0,0,,,1,FALSE,0.9878,,,,,,,,,,,,,,,,,,,,,,,,,,,,,,
,60026ffbf37ef427e9384f56,001,2022-04-28_18h05.49.937,classification_task,2021.2.3,Win32,59.94844434,60026ffbf37ef427e9384f56,626b377229c10585ec392f8a,626b3983c8bad482ae00faae,,,,,,,,,,,,,,,,,,,,,,,l,1,"[""0.090"",""0.132"",""0.441"",""0.686""]","[1,0,1,1]",0,39,39,39,1,1,0,,,1,FALSE,3.4876,,,,,,,,,,,,,,,,,,,,,,,,,,,,,,
,60026ffbf37ef427e9384f56,001,2022-04-28_18h05.49.937,classification_task,2021.2.3,Win32,59.94844434,60026ffbf37ef427e9384f56,626b377229c10585ec392f8a,626b3983c8bad482ae00faae,,,,,,,,,,,,,,,,,,,,,,,l,1,"[""0.090"",""0.361"",""0.441"",""0.132""]","[1,1,1,0]",0,40,40,40,1,1,0,,,1,FALSE,2.4753,,,,,,,,,,,,,,,,,,,,,,,,,,,,,,
,60026ffbf37ef427e9384f56,001,2022-04-28_18h05.49.937,classification_task,2021.2.3,Win32,59.94844434,60026ffbf37ef427e9384f56,626b377229c10585ec392f8a,626b3983c8bad482ae00faae,,,,,,,,,,,,,,,,,,,,,,,a,1,"[""0.167"",""0.477"",""0.891"",""0.960""]","[1,1,1,0]",0,41,41,41,1,0,1,,,1,FALSE,0.7455,,,,,,,,,,,,,,,,,,,,,,,,,,,,,,
,60026ffbf37ef427e9384f56,001,2022-04-28_18h05.49.937,classification_task,2021.2.3,Win32,59.94844434,60026ffbf37ef427e9384f56,626b377229c10585ec392f8a,626b3983c8bad482ae00faae,,,,,,,,,,,,,,,,,,,,,,,a,0,"[""0.813"",""0.361"",""0.441"",""0.686""]","[0,1,1,1]",0,42,42,42,1,1,0,,,1,FALSE,0.9516,,,,,,,,,,,,,,,,,,,,,,,,,,,,,,
,60026ffbf37ef427e9384f56,001,2022-04-28_18h05.49.937,classification_task,2021.2.3,Win32,59.94844434,60026ffbf37ef427e9384f56,626b377229c10585ec392f8a,626b3983c8bad482ae00faae,,,,,,,,,,,,,,,,,,,,,,,a,1,"[""0.167"",""0.960"",""0.891"",""0.926""]","[1,0,1,1]",0,43,43,43,1,0,1,,,1,FALSE,0.7436,,,,,,,,,,,,,,,,,,,,,,,,,,,,,,
,60026ffbf37ef427e9384f56,001,2022-04-28_18h05.49.937,classification_task,2021.2.3,Win32,59.94844434,60026ffbf37ef427e9384f56,626b377229c10585ec392f8a,626b3983c8bad482ae00faae,,,,,,,,,,,,,,,,,,,,,,,a,0,"[""0.090"",""0.361"",""0.261"",""0.686""]","[1,1,0,1]",0,44,44,44,1,1,0,,,1,FALSE,0.8831,,,,,,,,,,,,,,,,,,,,,,,,,,,,,,
,60026ffbf37ef427e9384f56,001,2022-04-28_18h05.49.937,classification_task,2021.2.3,Win32,59.94844434,60026ffbf37ef427e9384f56,626b377229c10585ec392f8a,626b3983c8bad482ae00faae,,,,,,,,,,,,,,,,,,,,,,,a,1,"[""0.221"",""0.403"",""0.261"",""0.855""]","[1,1,0,1]",0,45,45,45,1,0,0,,,1,FALSE,0.8512,,,,,,,,,,,,,,,,,,,,,,,,,,,,,,
,60026ffbf37ef427e9384f56,001,2022-04-28_18h05.49.937,classification_task,2021.2.3,Win32,59.94844434,60026ffbf37ef427e9384f56,626b377229c10585ec392f8a,626b3983c8bad482ae00faae,,,,,,,,,,,,,,,,,,,,,,,l,0,"[""0.221"",""0.403"",""0.580"",""0.971""]","[1,1,1,0]",0,46,46,46,1,0,0,,,1,FALSE,0.7835,,,,,,,,,,,,,,,,,,,,,,,,,,,,,,
,60026ffbf37ef427e9384f56,001,2022-04-28_18h05.49.937,classification_task,2021.2.3,Win32,59.94844434,60026ffbf37ef427e9384f56,626b377229c10585ec392f8a,626b3983c8bad482ae00faae,,,,,,,,,,,,,,,,,,,,,,,a,1,"[""0.167"",""0.477"",""0.132"",""0.926""]","[1,1,0,1]",0,47,47,47,1,0,1,,,1,FALSE,0.6874,,,,,,,,,,,,,,,,,,,,,,,,,,,,,,
,60026ffbf37ef427e9384f56,001,2022-04-28_18h05.49.937,classification_task,2021.2.3,Win32,59.94844434,60026ffbf37ef427e9384f56,626b377229c10585ec392f8a,626b3983c8bad482ae00faae,,,,,,,,,,,,,,,,,,,,,,,a,0,"[""0.090"",""0.727"",""0.441"",""0.686""]","[1,0,1,1]",0,48,48,48,1,1,0,,,1,FALSE,0.9889,,,,,,,,,,,,,,,,,,,,,,,,,,,,,,
,60026ffbf37ef427e9384f56,001,2022-04-28_18h05.49.937,classification_task,2021.2.3,Win32,59.94844434,60026ffbf37ef427e9384f56,626b377229c10585ec392f8a,626b3983c8bad482ae00faae,,,,,,,,,,,,,,,,,,,,,,,a,0,"[""0.090"",""0.361"",""0.648"",""0.686""]","[1,1,0,1]",0,49,49,49,1,1,0,,,1,FALSE,0.8234,,,,,,,,,,,,,,,,,,,,,,,,,,,,,,
,60026ffbf37ef427e9384f56,001,2022-04-28_18h05.49.937,classification_task,2021.2.3,Win32,59.94844434,60026ffbf37ef427e9384f56,626b377229c10585ec392f8a,626b3983c8bad482ae00faae,,,,,,,,,,,,,,,,,,,,,,,a,0,"[""0.090"",""0.361"",""0.441"",""0.816""]","[1,1,1,0]",0,50,50,50,1,1,0,,,1,FALSE,1.2503,,,,,,,,,,,,,,,,,,,,,,,,,,,,,,
,60026ffbf37ef427e9384f56,001,2022-04-28_18h05.49.937,classification_task,2021.2.3,Win32,59.94844434,60026ffbf37ef427e9384f56,626b377229c10585ec392f8a,626b3983c8bad482ae00faae,,,,,,,,,,,,,,,,,,,,,,,l,1,"[""0.047"",""0.315"",""0.516"",""0.960""]","[1,1,1,0]",0,51,51,51,1,1,1,,,1,FALSE,0.954,,,,,,,,,,,,,,,,,,,,,,,,,,,,,,
,60026ffbf37ef427e9384f56,001,2022-04-28_18h05.49.937,classification_task,2021.2.3,Win32,59.94844434,60026ffbf37ef427e9384f56,626b377229c10585ec392f8a,626b3983c8bad482ae00faae,,,,,,,,,,,,,,,,,,,,,,,l,0,"[""0.221"",""0.960"",""0.580"",""0.855""]","[1,0,1,1]",0,52,52,52,1,0,0,,,1,FALSE,1.0102,,,,,,,,,,,,,,,,,,,,,,,,,,,,,,
,60026ffbf37ef427e9384f56,001,2022-04-28_18h05.49.937,classification_task,2021.2.3,Win32,59.94844434,60026ffbf37ef427e9384f56,626b377229c10585ec392f8a,626b3983c8bad482ae00faae,,,,,,,,,,,,,,,,,,,,,,,a,1,"[""0.167"",""0.811"",""0.891"",""0.926""]","[1,0,1,1]",0,53,53,53,1,0,1,,,1,FALSE,0.818,,,,,,,,,,,,,,,,,,,,,,,,,,,,,,
,60026ffbf37ef427e9384f56,001,2022-04-28_18h05.49.937,classification_task,2021.2.3,Win32,59.94844434,60026ffbf37ef427e9384f56,626b377229c10585ec392f8a,626b3983c8bad482ae00faae,,,,,,,,,,,,,,,,,,,,,,,a,0,"[""0.811"",""0.315"",""0.516"",""0.761""]","[0,1,1,1]",0,54,54,54,1,1,1,,,1,FALSE,0.9337,,,,,,,,,,,,,,,,,,,,,,,,,,,,,,
,60026ffbf37ef427e9384f56,001,2022-04-28_18h05.49.937,classification_task,2021.2.3,Win32,59.94844434,60026ffbf37ef427e9384f56,626b377229c10585ec392f8a,626b3983c8bad482ae00faae,,,,,,,,,,,,,,,,,,,,,,,a,1,"[""0.221"",""0.403"",""0.580"",""0.261""]","[1,1,1,0]",0,55,55,55,1,0,0,,,1,FALSE,1.2421,,,,,,,,,,,,,,,,,,,,,,,,,,,,,,
,60026ffbf37ef427e9384f56,001,2022-04-28_18h05.49.937,classification_task,2021.2.3,Win32,59.94844434,60026ffbf37ef427e9384f56,626b377229c10585ec392f8a,626b3983c8bad482ae00faae,,,,,,,,,,,,,,,,,,,,,,,l,1,"[""0.047"",""0.315"",""0.811"",""0.761""]","[1,1,0,1]",0,56,56,56,1,1,1,,,1,FALSE,0.8513,,,,,,,,,,,,,,,,,,,,,,,,,,,,,,
,60026ffbf37ef427e9384f56,001,2022-04-28_18h05.49.937,classification_task,2021.2.3,Win32,59.94844434,60026ffbf37ef427e9384f56,626b377229c10585ec392f8a,626b3983c8bad482ae00faae,,,,,,,,,,,,,,,,,,,,,,,l,0,"[""0.167"",""0.477"",""0.891"",""0.962""]","[1,1,1,0]",0,57,57,57,1,0,1,,,1,FALSE,0.7696,,,,,,,,,,,,,,,,,,,,,,,,,,,,,,
,60026ffbf37ef427e9384f56,001,2022-04-28_18h05.49.937,classification_task,2021.2.3,Win32,59.94844434,60026ffbf37ef427e9384f56,626b377229c10585ec392f8a,626b3983c8bad482ae00faae,,,,,,,,,,,,,,,,,,,,,,,l,0,"[""0.132"",""0.477"",""0.891"",""0.926""]","[0,1,1,1]",0,58,58,58,1,0,1,,,1,FALSE,0.6524,,,,,,,,,,,,,,,,,,,,,,,,,,,,,,
,60026ffbf37ef427e9384f56,001,2022-04-28_18h05.49.937,classification_task,2021.2.3,Win32,59.94844434,60026ffbf37ef427e9384f56,626b377229c10585ec392f8a,626b3983c8bad482ae00faae,,,,,,,,,,,,,,,,,,,,,,,a,0,"[""0.648"",""0.361"",""0.441"",""0.686""]","[0,1,1,1]",0,59,59,59,1,1,0,,,1,FALSE,0.8854,,,,,,,,,,,,,,,,,,,,,,,,,,,,,,
,60026ffbf37ef427e9384f56,001,2022-04-28_18h05.49.937,classification_task,2021.2.3,Win32,59.94844434,60026ffbf37ef427e9384f56,626b377229c10585ec392f8a,626b3983c8bad482ae00faae,,,,,,,,,,,,,,,,,,,,,,,a,1,"[""0.221"",""0.403"",""0.620"",""0.855""]","[1,1,0,1]",0,60,60,60,1,0,0,,,1,FALSE,0.7535,,,,,,,,,,,,,,,,,,,,,,,,,,,,,,
,60026ffbf37ef427e9384f56,001,2022-04-28_18h05.49.937,classification_task,2021.2.3,Win32,59.94844434,60026ffbf37ef427e9384f56,626b377229c10585ec392f8a,626b3983c8bad482ae00faae,,,,,,,,,,,,,,,,,,,,,,,l,0,"[""0.167"",""0.477"",""0.960"",""0.926""]","[1,1,0,1]",0,61,61,61,1,0,1,,,1,FALSE,0.6976,,,,,,,,,,,,,,,,,,,,,,,,,,,,,,
,60026ffbf37ef427e9384f56,001,2022-04-28_18h05.49.937,classification_task,2021.2.3,Win32,59.94844434,60026ffbf37ef427e9384f56,626b377229c10585ec392f8a,626b3983c8bad482ae00faae,,,,,,,,,,,,,,,,,,,,,,,l,1,"[""0.047"",""0.965"",""0.516"",""0.761""]","[1,0,1,1]",0,62,62,62,1,1,1,,,1,FALSE,0.7166,,,,,,,,,,,,,,,,,,,,,,,,,,,,,,
,60026ffbf37ef427e9384f56,001,2022-04-28_18h05.49.937,classification_task,2021.2.3,Win32,59.94844434,60026ffbf37ef427e9384f56,626b377229c10585ec392f8a,626b3983c8bad482ae00faae,,,,,,,,,,,,,,,,,,,,,,,l,0,"[""0.965"",""0.403"",""0.580"",""0.855""]","[0,1,1,1]",0,63,63,63,1,0,0,,,1,FALSE,0.7347,,,,,,,,,,,,,,,,,,,,,,,,,,,,,,
,60026ffbf37ef427e9384f56,001,2022-04-28_18h05.49.937,classification_task,2021.2.3,Win32,59.94844434,60026ffbf37ef427e9384f56,626b377229c10585ec392f8a,626b3983c8bad482ae00faae,,,,,,,,,,,,,,,,,,,,,,,,,,,,,,,,,,,,,,,0, ,,0,10,149.5378,0,2,2,2,1,2,3,,,,,,,,,,,,,,,,,
,60026ffbf37ef427e9384f56,001,2022-04-28_18h05.49.937,classification_task,2021.2.3,Win32,59.94844434,60026ffbf37ef427e9384f56,626b377229c10585ec392f8a,626b3983c8bad482ae00faae,,,,,,,,,,,,,,,,,,,,,,,,,,,,,,,,,,,,,,,1,  ,,0,7.343159486,152.1572,0,2,2,2,1,2,3,,,,,,,,,,,,,,,,,
,60026ffbf37ef427e9384f56,001,2022-04-28_18h05.49.937,classification_task,2021.2.3,Win32,59.94844434,60026ffbf37ef427e9384f56,626b377229c10585ec392f8a,626b3983c8bad482ae00faae,,,,,,,,,,,,,,,,,,,,,,,,,,,,,,,,,,,,,,,2,  ,,0,8.90526581,155.6115,0,2,2,2,1,2,3,,,,,,,,,,,,,,,,,
,60026ffbf37ef427e9384f56,001,2022-04-28_18h05.49.937,classification_task,2021.2.3,Win32,59.94844434,60026ffbf37ef427e9384f56,626b377229c10585ec392f8a,626b3983c8bad482ae00faae,,,,,,,,,,,,,,,,,,,,,,,,,,,,,,,,,,,,,,,,,,,,,0,2,2,2,1,,3,,,,,,,,,,,,,,,,,
,60026ffbf37ef427e9384f56,001,2022-04-28_18h05.49.937,classification_task,2021.2.3,Win32,59.94844434,60026ffbf37ef427e9384f56,626b377229c10585ec392f8a,626b3983c8bad482ae00faae,,,,,,,,,,,,,,,,,,,,,,,,,,,,,,,,,,,,,,,,,,,,,,,,,,,,,I believe the aid is a competent performer,,0.7,0,4,720.2188,0,0,0,0,1,0,,,,
,60026ffbf37ef427e9384f56,001,2022-04-28_18h05.49.937,classification_task,2021.2.3,Win32,59.94844434,60026ffbf37ef427e9384f56,626b377229c10585ec392f8a,626b3983c8bad482ae00faae,,,,,,,,,,,,,,,,,,,,,,,,,,,,,,,,,,,,,,,,,,,,,,,,,,,,,I trust the aid,,0.7,0,5,722.1016,0,0,0,0,1,0,,,,
,60026ffbf37ef427e9384f56,001,2022-04-28_18h05.49.937,classification_task,2021.2.3,Win32,59.94844434,60026ffbf37ef427e9384f56,626b377229c10585ec392f8a,626b3983c8bad482ae00faae,,,,,,,,,,,,,,,,,,,,,,,,,,,,,,,,,,,,,,,,,,,,,,,,,,,,,I have confidence in the advice given by the aid,,0.7,0,5,724.0321,0,0,0,0,1,0,,,,
,60026ffbf37ef427e9384f56,001,2022-04-28_18h05.49.937,classification_task,2021.2.3,Win32,59.94844434,60026ffbf37ef427e9384f56,626b377229c10585ec392f8a,626b3983c8bad482ae00faae,,,,,,,,,,,,,,,,,,,,,,,,,,,,,,,,,,,,,,,,,,,,,,,,,,,,,I can depend on the aid,,0.7,0,5,725.8829,0,0,0,0,1,0,,,,
,60026ffbf37ef427e9384f56,001,2022-04-28_18h05.49.937,classification_task,2021.2.3,Win32,59.94844434,60026ffbf37ef427e9384f56,626b377229c10585ec392f8a,626b3983c8bad482ae00faae,,,,,,,,,,,,,,,,,,,,,,,,,,,,,,,,,,,,,,,,,,,,,,,,,,,,,I can rely on the aid to behave in consistent ways,,0.7,0,5,728.7832,0,0,0,0,1,0,,,,
,60026ffbf37ef427e9384f56,001,2022-04-28_18h05.49.937,classification_task,2021.2.3,Win32,59.94844434,60026ffbf37ef427e9384f56,626b377229c10585ec392f8a,626b3983c8bad482ae00faae,,,,,,,,,,,,,,,,,,,,,,,,,,,,,,,,,,,,,,,,,,,,,,,,,,,,,I can rely on the aid to do its best every time I take its advice,,0.7,0,5,731.5109,0,0,0,0,1,0,,,,
,60026ffbf37ef427e9384f56,001,2022-04-28_18h05.49.937,classification_task,2021.2.3,Win32,59.94844434,60026ffbf37ef427e9384f56,626b377229c10585ec392f8a,626b3983c8bad482ae00faae,,,,,,,,,,,,,,,,,,,,,,,,,,,,,,,,,,,,,,,,,,,,,,,,,,,,,"On trials you completed with assistance from the aid, how frequently did you think the aid was correct?",,0.7,0,100%,,0,0,0,0,1,0,,,,
,60026ffbf37ef427e9384f56,001,2022-04-28_18h05.49.937,classification_task,2021.2.3,Win32,59.94844434,60026ffbf37ef427e9384f56,626b377229c10585ec392f8a,626b3983c8bad482ae00faae,,,,,,,,,,,,,,,,,,,,,,,,,,,,,,,,,,,,,,,,,,,,,,,,,,,,,"On trials you completed without the aid, how frequently did you think you were correct?",,0.7,0,60%,,0,0,0,0,1,0,,,,
,60026ffbf37ef427e9384f56,001,2022-04-28_18h05.49.937,classification_task,2021.2.3,Win32,59.94844434,60026ffbf37ef427e9384f56,626b377229c10585ec392f8a,626b3983c8bad482ae00faae,,,,,,,,,,,,,,,,,,,,,,,,,,,,,,,,,,,,,,,,,,,,,,,,,,,,,,,,,,,0,0,0,0,1,,,,,
,60026ffbf37ef427e9384f56,001,2022-04-28_18h05.49.937,classification_task,2021.2.3,Win32,59.94844434,60026ffbf37ef427e9384f56,626b377229c10585ec392f8a,626b3983c8bad482ae00faae,,,,,,,,,,,,,,,,,,,,,,,,,,,,,,,,,,,,,,,,,,,,,,,,,,,,,,,,,,,,,,,,,space,9.5814,767.8334,
,60026ffbf37ef427e9384f56,001,2022-04-28_18h05.49.937,classification_task,2021.2.3,Win32,59.94844434,60026ffbf37ef427e9384f56,626b377229c10585ec392f8a,626b3983c8bad482ae00faae,,,,,,,,,,,,,,,,,,,,,,,,,,,,,,,,,,,,,,,,,,,,,,,,,,,,,,,,,,,,,,,,,,,,"Mozilla/5.0 (Windows NT 10.0; Win64; x64) AppleWebKit/537.36 (KHTML, like Gecko) Chrome/99.0.4844.84 Safari/537.36 OPR/85.0.4341.72"
