usingWebGL,participant,session,date,expName,psychopyVersion,OS,frameRate,PROLIFIC_PID,STUDY_ID,SESSION_ID,signatures_friend,signatures_foe,band_ranges_top,band_ranges_bottom,formitemText,formtype,formundefined,formitemWidth,formindex,formresponse,formrt,key_resp_2.keys,key_resp_2.rt,tute_resp.keys,tute_resp.rt,tutorial.thisRepN,tutorial.thisTrialN,tutorial.thisN,tutorial.thisIndex,tutorial.ran,key_resp_4.keys,key_resp_4.rt,key_resp.keys,key_resp.corr,key_resp.rt,lines_presented,is_signal_presented,trials.thisRepN,trials.thisTrialN,trials.thisN,trials.thisIndex,trials.ran,vessel,active_band,lines,is_signal,supported_pos,catch_trial,debrief_formindex,debrief_formitemText,debrief_formtype,debrief_formitemWidth,debrief_formresponse,debrief_formrt,phases.thisRepN,phases.thisTrialN,phases.thisN,phases.thisIndex,phases.ran,phases.order,phase,key_resp_3.keys,trustitemText,trusttype,trustitemWidth,trustindex,trustresponse,trustrt,support_status.thisRepN,support_status.thisTrialN,support_status.thisN,support_status.thisIndex,support_status.ran,support_status.order,key_resp_5.keys,key_resp_5.rt,globalClockTime,userAgent
TRUE,600f71a80a45f0159a38cfe5,001,2022-04-28_20h14.38.322,classification_task,2021.2.3,Win32,59.93407252,600f71a80a45f0159a38cfe5,626b377229c10585ec392f8a,626b3b9fb7debd6e17e395a0,,,,,,,,,,,,,,,,,,,,,,,,,,,,,,,,,,,,,,,,,,,,,,,,,,,,,,,,,,,,,,,,,,,,
,600f71a80a45f0159a38cfe5,001,2022-04-28_20h14.38.322,classification_task,2021.2.3,Win32,59.93407252,600f71a80a45f0159a38cfe5,626b377229c10585ec392f8a,626b3b9fb7debd6e17e395a0,"[[""0.262"",""0.554"",""0.878"",""0.917""],[""0.217"",""0.493"",""0.771"",""0.960""]]","[[""0.101"",""0.342"",""0.624"",""0.721""],[""0.143"",""0.417"",""0.457"",""0.808""]]","[1,10]","[100,1000]",Video game experience,,,0.7,0,,,,,,,,,,,,,,,,,,,,,,,,,,,,,,,,,,,,,,,,,,,,,,,,,,,,,,,,,,,
,600f71a80a45f0159a38cfe5,001,2022-04-28_20h14.38.322,classification_task,2021.2.3,Win32,59.93407252,600f71a80a45f0159a38cfe5,626b377229c10585ec392f8a,626b3b9fb7debd6e17e395a0,,,,,Approximately how many hours did you spend playing video games in the last week?,,,0.7,0,20,,,,,,,,,,,,,,,,,,,,,,,,,,,,,,,,,,,,,,,,,,,,,,,,,,,,,,,,,,
,600f71a80a45f0159a38cfe5,001,2022-04-28_20h14.38.322,classification_task,2021.2.3,Win32,59.93407252,600f71a80a45f0159a38cfe5,626b377229c10585ec392f8a,626b3b9fb7debd6e17e395a0,,,,,"Which game did you play the most this year? (Enter ""None"" if you didn't play any)",,,0.7,0,Mobile Legends (League of Legends for phone),,,,,,,,,,,,,,,,,,,,,,,,,,,,,,,,,,,,,,,,,,,,,,,,,,,,,,,,,,
,600f71a80a45f0159a38cfe5,001,2022-04-28_20h14.38.322,classification_task,2021.2.3,Win32,59.93407252,600f71a80a45f0159a38cfe5,626b377229c10585ec392f8a,626b3b9fb7debd6e17e395a0,,,,,Visual perception,,,0.7,0,,,,,,,,,,,,,,,,,,,,,,,,,,,,,,,,,,,,,,,,,,,,,,,,,,,,,,,,,,,
,600f71a80a45f0159a38cfe5,001,2022-04-28_20h14.38.322,classification_task,2021.2.3,Win32,59.93407252,600f71a80a45f0159a38cfe5,626b377229c10585ec392f8a,626b3b9fb7debd6e17e395a0,,,,,Do you have any form of color blindness?,,,0.7,0,No,43.6732,,,,,,,,,,,,,,,,,,,,,,,,,,,,,,,,,,,,,,,,,,,,,,,,,,,,,,,,,
,600f71a80a45f0159a38cfe5,001,2022-04-28_20h14.38.322,classification_task,2021.2.3,Win32,59.93407252,600f71a80a45f0159a38cfe5,626b377229c10585ec392f8a,626b3b9fb7debd6e17e395a0,,,,,Do you use software to change the colour temperature of your screen (e.g. f.lux)?,,,0.7,0,No,46.5367,,,,,,,,,,,,,,,,,,,,,,,,,,,,,,,,,,,,,,,,,,,,,,,,,,,,,,,,,
,600f71a80a45f0159a38cfe5,001,2022-04-28_20h14.38.322,classification_task,2021.2.3,Win32,59.93407252,600f71a80a45f0159a38cfe5,626b377229c10585ec392f8a,626b3b9fb7debd6e17e395a0,,,,,,,,,,,,space,27.2806,space,7.1816,0,0,0,0,1,,,,,,,,,,,,,,,,,,,,,,,,,,,,,,,,,,,,,,,,,,,,,,,,
,600f71a80a45f0159a38cfe5,001,2022-04-28_20h14.38.322,classification_task,2021.2.3,Win32,59.93407252,600f71a80a45f0159a38cfe5,626b377229c10585ec392f8a,626b3b9fb7debd6e17e395a0,,,,,,,,,,,,,,space,11.414,1,0,1,0,1,,,,,,,,,,,,,,,,,,,,,,,,,,,,,,,,,,,,,,,,,,,,,,,,
,600f71a80a45f0159a38cfe5,001,2022-04-28_20h14.38.322,classification_task,2021.2.3,Win32,59.93407252,600f71a80a45f0159a38cfe5,626b377229c10585ec392f8a,626b3b9fb7debd6e17e395a0,,,,,,,,,,,,,,space,40.3571,2,0,2,0,1,,,,,,,,,,,,,,,,,,,,,,,,,,,,,,,,,,,,,,,,,,,,,,,,
,600f71a80a45f0159a38cfe5,001,2022-04-28_20h14.38.322,classification_task,2021.2.3,Win32,59.93407252,600f71a80a45f0159a38cfe5,626b377229c10585ec392f8a,626b3b9fb7debd6e17e395a0,,,,,,,,,,,,,,space,5.5205,3,0,3,0,1,,,,,,,,,,,,,,,,,,,,,,,,,,,,,,,,,,,,,,,,,,,,,,,,
,600f71a80a45f0159a38cfe5,001,2022-04-28_20h14.38.322,classification_task,2021.2.3,Win32,59.93407252,600f71a80a45f0159a38cfe5,626b377229c10585ec392f8a,626b3b9fb7debd6e17e395a0,,,,,,,,,,,,,,space,42.937,4,0,4,0,1,,,,,,,,,,,,,,,,,,,,,,,,,,,,,,,,,,,,,,,,,,,,,,,,
,600f71a80a45f0159a38cfe5,001,2022-04-28_20h14.38.322,classification_task,2021.2.3,Win32,59.93407252,600f71a80a45f0159a38cfe5,626b377229c10585ec392f8a,626b3b9fb7debd6e17e395a0,,,,,,,,,,,,,,,,,,,,,space,15.0507,l,0,4.4655,"[""0.262"",""0.554"",""0.878"",""0.039""]","[1,1,1,0]",0,0,0,0,1,0,0,,,0,FALSE,,,,,,,,,,,,,,,,,,,,,,,,,,,,,,
,600f71a80a45f0159a38cfe5,001,2022-04-28_20h14.38.322,classification_task,2021.2.3,Win32,59.93407252,600f71a80a45f0159a38cfe5,626b377229c10585ec392f8a,626b3b9fb7debd6e17e395a0,,,,,,,,,,,,,,,,,,,,,,,a,1,4.3783,"[""0.297"",""0.554"",""0.878"",""0.917""]","[0,1,1,1]",0,1,1,1,1,0,0,,,0,FALSE,,,,,,,,,,,,,,,,,,,,,,,,,,,,,,
,600f71a80a45f0159a38cfe5,001,2022-04-28_20h14.38.322,classification_task,2021.2.3,Win32,59.93407252,600f71a80a45f0159a38cfe5,626b377229c10585ec392f8a,626b3b9fb7debd6e17e395a0,,,,,,,,,,,,,,,,,,,,,,,l,1,6.7847,"[""0.101"",""0.342"",""0.034"",""0.721""]","[1,1,0,1]",0,2,2,2,1,1,0,,,0,FALSE,,,,,,,,,,,,,,,,,,,,,,,,,,,,,,
,600f71a80a45f0159a38cfe5,001,2022-04-28_20h14.38.322,classification_task,2021.2.3,Win32,59.93407252,600f71a80a45f0159a38cfe5,626b377229c10585ec392f8a,626b3b9fb7debd6e17e395a0,,,,,,,,,,,,,,,,,,,,,,,a,1,4.1464,"[""0.217"",""0.493"",""0.771"",""0.680""]","[1,1,1,0]",0,3,3,3,1,0,1,,,0,FALSE,,,,,,,,,,,,,,,,,,,,,,,,,,,,,,
,600f71a80a45f0159a38cfe5,001,2022-04-28_20h14.38.322,classification_task,2021.2.3,Win32,59.93407252,600f71a80a45f0159a38cfe5,626b377229c10585ec392f8a,626b3b9fb7debd6e17e395a0,,,,,,,,,,,,,,,,,,,,,,,l,1,3.3986,"[""0.143"",""0.417"",""0.673"",""0.808""]","[1,1,0,1]",0,4,4,4,1,1,1,,,0,FALSE,,,,,,,,,,,,,,,,,,,,,,,,,,,,,,
,600f71a80a45f0159a38cfe5,001,2022-04-28_20h14.38.322,classification_task,2021.2.3,Win32,59.93407252,600f71a80a45f0159a38cfe5,626b377229c10585ec392f8a,626b3b9fb7debd6e17e395a0,,,,,,,,,,,,,,,,,,,,,,,a,1,6.9647,"[""0.262"",""0.670"",""0.878"",""0.917""]","[1,0,1,1]",0,5,5,5,1,0,0,,,0,FALSE,,,,,,,,,,,,,,,,,,,,,,,,,,,,,,
,600f71a80a45f0159a38cfe5,001,2022-04-28_20h14.38.322,classification_task,2021.2.3,Win32,59.93407252,600f71a80a45f0159a38cfe5,626b377229c10585ec392f8a,626b3b9fb7debd6e17e395a0,,,,,,,,,,,,,,,,,,,,,,,l,0,4.1634,"[""0.217"",""0.493"",""0.034"",""0.960""]","[1,1,0,1]",0,6,6,6,1,0,1,,,0,FALSE,,,,,,,,,,,,,,,,,,,,,,,,,,,,,,
,600f71a80a45f0159a38cfe5,001,2022-04-28_20h14.38.322,classification_task,2021.2.3,Win32,59.93407252,600f71a80a45f0159a38cfe5,626b377229c10585ec392f8a,626b3b9fb7debd6e17e395a0,,,,,,,,,,,,,,,,,,,,,,,l,1,6.3149,"[""0.295"",""0.342"",""0.624"",""0.721""]","[0,1,1,1]",0,7,7,7,1,1,0,,,0,FALSE,,,,,,,,,,,,,,,,,,,,,,,,,,,,,,
,600f71a80a45f0159a38cfe5,001,2022-04-28_20h14.38.322,classification_task,2021.2.3,Win32,59.93407252,600f71a80a45f0159a38cfe5,626b377229c10585ec392f8a,626b3b9fb7debd6e17e395a0,,,,,,,,,,,,,,,,,,,,,,,l,1,5.3464,"[""0.101"",""0.342"",""0.624"",""0.670""]","[1,1,1,0]",0,8,8,8,1,1,0,,,0,FALSE,,,,,,,,,,,,,,,,,,,,,,,,,,,,,,
,600f71a80a45f0159a38cfe5,001,2022-04-28_20h14.38.322,classification_task,2021.2.3,Win32,59.93407252,600f71a80a45f0159a38cfe5,626b377229c10585ec392f8a,626b3b9fb7debd6e17e395a0,,,,,,,,,,,,,,,,,,,,,,,a,1,3.6107,"[""0.217"",""0.671"",""0.771"",""0.960""]","[1,0,1,1]",0,9,9,9,1,0,1,,,0,FALSE,,,,,,,,,,,,,,,,,,,,,,,,,,,,,,
,600f71a80a45f0159a38cfe5,001,2022-04-28_20h14.38.322,classification_task,2021.2.3,Win32,59.93407252,600f71a80a45f0159a38cfe5,626b377229c10585ec392f8a,626b3b9fb7debd6e17e395a0,,,,,,,,,,,,,,,,,,,,,,,,0,,"[""0.671"",""0.417"",""0.457"",""0.808""]","[0,1,1,1]",0,10,10,10,1,1,1,,,0,FALSE,,,,,,,,,,,,,,,,,,,,,,,,,,,,,,
,600f71a80a45f0159a38cfe5,001,2022-04-28_20h14.38.322,classification_task,2021.2.3,Win32,59.93407252,600f71a80a45f0159a38cfe5,626b377229c10585ec392f8a,626b3b9fb7debd6e17e395a0,,,,,,,,,,,,,,,,,,,,,,,l,0,8.1801,"[""0.041"",""0.493"",""0.771"",""0.960""]","[0,1,1,1]",0,11,11,11,1,0,1,,,0,FALSE,,,,,,,,,,,,,,,,,,,,,,,,,,,,,,
,600f71a80a45f0159a38cfe5,001,2022-04-28_20h14.38.322,classification_task,2021.2.3,Win32,59.93407252,600f71a80a45f0159a38cfe5,626b377229c10585ec392f8a,626b3b9fb7debd6e17e395a0,,,,,,,,,,,,,,,,,,,,,,,l,1,5.233,"[""0.101"",""0.039"",""0.624"",""0.721""]","[1,0,1,1]",0,12,12,12,1,1,0,,,0,FALSE,,,,,,,,,,,,,,,,,,,,,,,,,,,,,,
,600f71a80a45f0159a38cfe5,001,2022-04-28_20h14.38.322,classification_task,2021.2.3,Win32,59.93407252,600f71a80a45f0159a38cfe5,626b377229c10585ec392f8a,626b3b9fb7debd6e17e395a0,,,,,,,,,,,,,,,,,,,,,,,l,0,2.9256,"[""0.262"",""0.554"",""0.059"",""0.917""]","[1,1,0,1]",0,13,13,13,1,0,0,,,0,FALSE,,,,,,,,,,,,,,,,,,,,,,,,,,,,,,
,600f71a80a45f0159a38cfe5,001,2022-04-28_20h14.38.322,classification_task,2021.2.3,Win32,59.93407252,600f71a80a45f0159a38cfe5,626b377229c10585ec392f8a,626b3b9fb7debd6e17e395a0,,,,,,,,,,,,,,,,,,,,,,,l,1,8.7947,"[""0.143"",""0.041"",""0.457"",""0.808""]","[1,0,1,1]",0,14,14,14,1,1,1,,,0,FALSE,,,,,,,,,,,,,,,,,,,,,,,,,,,,,,
,600f71a80a45f0159a38cfe5,001,2022-04-28_20h14.38.322,classification_task,2021.2.3,Win32,59.93407252,600f71a80a45f0159a38cfe5,626b377229c10585ec392f8a,626b3b9fb7debd6e17e395a0,,,,,,,,,,,,,,,,,,,,,,,l,1,5.8512,"[""0.143"",""0.417"",""0.457"",""0.661""]","[1,1,1,0]",0,15,15,15,1,1,1,,,0,FALSE,,,,,,,,,,,,,,,,,,,,,,,,,,,,,,
,600f71a80a45f0159a38cfe5,001,2022-04-28_20h14.38.322,classification_task,2021.2.3,Win32,59.93407252,600f71a80a45f0159a38cfe5,626b377229c10585ec392f8a,626b3b9fb7debd6e17e395a0,,,,,,,,,,,,,,,,,,,,,,,l,1,5.3109,"[""0.143"",""0.041"",""0.457"",""0.808""]","[1,0,1,1]",0,16,16,16,1,1,1,,,0,FALSE,,,,,,,,,,,,,,,,,,,,,,,,,,,,,,
,600f71a80a45f0159a38cfe5,001,2022-04-28_20h14.38.322,classification_task,2021.2.3,Win32,59.93407252,600f71a80a45f0159a38cfe5,626b377229c10585ec392f8a,626b3b9fb7debd6e17e395a0,,,,,,,,,,,,,,,,,,,,,,,a,1,4.8701,"[""0.217"",""0.041"",""0.771"",""0.960""]","[1,0,1,1]",0,17,17,17,1,0,1,,,0,FALSE,,,,,,,,,,,,,,,,,,,,,,,,,,,,,,
,600f71a80a45f0159a38cfe5,001,2022-04-28_20h14.38.322,classification_task,2021.2.3,Win32,59.93407252,600f71a80a45f0159a38cfe5,626b377229c10585ec392f8a,626b3b9fb7debd6e17e395a0,,,,,,,,,,,,,,,,,,,,,,,l,1,6.991,"[""0.671"",""0.417"",""0.457"",""0.808""]","[0,1,1,1]",0,18,18,18,1,1,1,,,0,FALSE,,,,,,,,,,,,,,,,,,,,,,,,,,,,,,
,600f71a80a45f0159a38cfe5,001,2022-04-28_20h14.38.322,classification_task,2021.2.3,Win32,59.93407252,600f71a80a45f0159a38cfe5,626b377229c10585ec392f8a,626b3b9fb7debd6e17e395a0,,,,,,,,,,,,,,,,,,,,,,,l,1,7.6389,"[""0.101"",""0.342"",""0.624"",""0.182""]","[1,1,1,0]",0,19,19,19,1,1,0,,,0,FALSE,,,,,,,,,,,,,,,,,,,,,,,,,,,,,,
,600f71a80a45f0159a38cfe5,001,2022-04-28_20h14.38.322,classification_task,2021.2.3,Win32,59.93407252,600f71a80a45f0159a38cfe5,626b377229c10585ec392f8a,626b3b9fb7debd6e17e395a0,,,,,,,,,,,,,,,,,,,,,,,a,1,5.5527,"[""0.217"",""0.493"",""0.182"",""0.960""]","[1,1,0,1]",0,20,20,20,1,0,1,,,0,FALSE,,,,,,,,,,,,,,,,,,,,,,,,,,,,,,
,600f71a80a45f0159a38cfe5,001,2022-04-28_20h14.38.322,classification_task,2021.2.3,Win32,59.93407252,600f71a80a45f0159a38cfe5,626b377229c10585ec392f8a,626b3b9fb7debd6e17e395a0,,,,,,,,,,,,,,,,,,,,,,,a,1,2.1776,"[""0.217"",""0.493"",""0.771"",""0.670""]","[1,1,1,0]",0,21,21,21,1,0,1,,,0,FALSE,,,,,,,,,,,,,,,,,,,,,,,,,,,,,,
,600f71a80a45f0159a38cfe5,001,2022-04-28_20h14.38.322,classification_task,2021.2.3,Win32,59.93407252,600f71a80a45f0159a38cfe5,626b377229c10585ec392f8a,626b3b9fb7debd6e17e395a0,,,,,,,,,,,,,,,,,,,,,,,a,0,2.8778,"[""0.377"",""0.342"",""0.624"",""0.721""]","[0,1,1,1]",0,22,22,22,1,1,0,,,0,FALSE,,,,,,,,,,,,,,,,,,,,,,,,,,,,,,
,600f71a80a45f0159a38cfe5,001,2022-04-28_20h14.38.322,classification_task,2021.2.3,Win32,59.93407252,600f71a80a45f0159a38cfe5,626b377229c10585ec392f8a,626b3b9fb7debd6e17e395a0,,,,,,,,,,,,,,,,,,,,,,,l,0,6.0742,"[""0.059"",""0.493"",""0.771"",""0.960""]","[0,1,1,1]",0,23,23,23,1,0,1,,,0,FALSE,,,,,,,,,,,,,,,,,,,,,,,,,,,,,,
,600f71a80a45f0159a38cfe5,001,2022-04-28_20h14.38.322,classification_task,2021.2.3,Win32,59.93407252,600f71a80a45f0159a38cfe5,626b377229c10585ec392f8a,626b3b9fb7debd6e17e395a0,,,,,,,,,,,,,,,,,,,,,,,l,1,4.6678,"[""0.101"",""0.182"",""0.624"",""0.721""]","[1,0,1,1]",0,24,24,24,1,1,0,,,0,FALSE,,,,,,,,,,,,,,,,,,,,,,,,,,,,,,
,600f71a80a45f0159a38cfe5,001,2022-04-28_20h14.38.322,classification_task,2021.2.3,Win32,59.93407252,600f71a80a45f0159a38cfe5,626b377229c10585ec392f8a,626b3b9fb7debd6e17e395a0,,,,,,,,,,,,,,,,,,,,,,,l,0,6.3777,"[""0.059"",""0.554"",""0.878"",""0.917""]","[0,1,1,1]",0,25,25,25,1,0,0,,,0,FALSE,,,,,,,,,,,,,,,,,,,,,,,,,,,,,,
,600f71a80a45f0159a38cfe5,001,2022-04-28_20h14.38.322,classification_task,2021.2.3,Win32,59.93407252,600f71a80a45f0159a38cfe5,626b377229c10585ec392f8a,626b3b9fb7debd6e17e395a0,,,,,,,,,,,,,,,,,,,,,,,l,1,5.6165,"[""0.143"",""0.417"",""0.377"",""0.808""]","[1,1,0,1]",0,26,26,26,1,1,1,,,0,FALSE,,,,,,,,,,,,,,,,,,,,,,,,,,,,,,
,600f71a80a45f0159a38cfe5,001,2022-04-28_20h14.38.322,classification_task,2021.2.3,Win32,59.93407252,600f71a80a45f0159a38cfe5,626b377229c10585ec392f8a,626b3b9fb7debd6e17e395a0,,,,,,,,,,,,,,,,,,,,,,,a,1,3.3844,"[""0.262"",""0.670"",""0.878"",""0.917""]","[1,0,1,1]",0,27,27,27,1,0,0,,,0,FALSE,,,,,,,,,,,,,,,,,,,,,,,,,,,,,,
,600f71a80a45f0159a38cfe5,001,2022-04-28_20h14.38.322,classification_task,2021.2.3,Win32,59.93407252,600f71a80a45f0159a38cfe5,626b377229c10585ec392f8a,626b3b9fb7debd6e17e395a0,,,,,,,,,,,,,,,,,,,,,,,a,1,6.5652,"[""0.262"",""0.554"",""0.297"",""0.917""]","[1,1,0,1]",0,28,28,28,1,0,0,,,0,FALSE,,,,,,,,,,,,,,,,,,,,,,,,,,,,,,
,600f71a80a45f0159a38cfe5,001,2022-04-28_20h14.38.322,classification_task,2021.2.3,Win32,59.93407252,600f71a80a45f0159a38cfe5,626b377229c10585ec392f8a,626b3b9fb7debd6e17e395a0,,,,,,,,,,,,,,,,,,,,,,,l,1,2.9566,"[""0.143"",""0.417"",""0.457"",""0.842""]","[1,1,1,0]",0,29,29,29,1,1,1,,,0,FALSE,,,,,,,,,,,,,,,,,,,,,,,,,,,,,,
,600f71a80a45f0159a38cfe5,001,2022-04-28_20h14.38.322,classification_task,2021.2.3,Win32,59.93407252,600f71a80a45f0159a38cfe5,626b377229c10585ec392f8a,626b3b9fb7debd6e17e395a0,,,,,,,,,,,,,,,,,,,,,,,l,0,3.8221,"[""0.262"",""0.554"",""0.878"",""0.039""]","[1,1,1,0]",0,30,30,30,1,0,0,,,0,FALSE,,,,,,,,,,,,,,,,,,,,,,,,,,,,,,
,600f71a80a45f0159a38cfe5,001,2022-04-28_20h14.38.322,classification_task,2021.2.3,Win32,59.93407252,600f71a80a45f0159a38cfe5,626b377229c10585ec392f8a,626b3b9fb7debd6e17e395a0,,,,,,,,,,,,,,,,,,,,,,,a,0,3.12,"[""0.101"",""0.342"",""0.658"",""0.721""]","[1,1,0,1]",0,31,31,31,1,1,0,,,0,FALSE,,,,,,,,,,,,,,,,,,,,,,,,,,,,,,
,600f71a80a45f0159a38cfe5,001,2022-04-28_20h14.38.322,classification_task,2021.2.3,Win32,59.93407252,600f71a80a45f0159a38cfe5,626b377229c10585ec392f8a,626b3b9fb7debd6e17e395a0,,,,,,,,,,,,,,,,,,,,,,,a,1,5.2572,"[""0.262"",""0.034"",""0.878"",""0.917""]","[1,0,1,1]",0,32,32,32,1,0,0,,,0,FALSE,,,,,,,,,,,,,,,,,,,,,,,,,,,,,,
,600f71a80a45f0159a38cfe5,001,2022-04-28_20h14.38.322,classification_task,2021.2.3,Win32,59.93407252,600f71a80a45f0159a38cfe5,626b377229c10585ec392f8a,626b3b9fb7debd6e17e395a0,,,,,,,,,,,,,,,,,,,,,,,l,0,4.0763,"[""0.182"",""0.493"",""0.771"",""0.960""]","[0,1,1,1]",0,33,33,33,1,0,1,,,0,FALSE,,,,,,,,,,,,,,,,,,,,,,,,,,,,,,
,600f71a80a45f0159a38cfe5,001,2022-04-28_20h14.38.322,classification_task,2021.2.3,Win32,59.93407252,600f71a80a45f0159a38cfe5,626b377229c10585ec392f8a,626b3b9fb7debd6e17e395a0,,,,,,,,,,,,,,,,,,,,,,,a,0,3.7927,"[""0.059"",""0.342"",""0.624"",""0.721""]","[0,1,1,1]",0,34,34,34,1,1,0,,,0,FALSE,,,,,,,,,,,,,,,,,,,,,,,,,,,,,,
,600f71a80a45f0159a38cfe5,001,2022-04-28_20h14.38.322,classification_task,2021.2.3,Win32,59.93407252,600f71a80a45f0159a38cfe5,626b377229c10585ec392f8a,626b3b9fb7debd6e17e395a0,,,,,,,,,,,,,,,,,,,,,,,a,0,0.9221,"[""0.143"",""0.039"",""0.457"",""0.808""]","[1,0,1,1]",0,35,35,35,1,1,1,,,0,FALSE,,,,,,,,,,,,,,,,,,,,,,,,,,,,,,
,600f71a80a45f0159a38cfe5,001,2022-04-28_20h14.38.322,classification_task,2021.2.3,Win32,59.93407252,600f71a80a45f0159a38cfe5,626b377229c10585ec392f8a,626b3b9fb7debd6e17e395a0,,,,,,,,,,,,,,,,,,,,,,,l,0,1.1365,"[""0.262"",""0.554"",""0.878"",""0.039""]","[1,1,1,0]",0,36,36,36,1,0,0,,,0,FALSE,,,,,,,,,,,,,,,,,,,,,,,,,,,,,,
,600f71a80a45f0159a38cfe5,001,2022-04-28_20h14.38.322,classification_task,2021.2.3,Win32,59.93407252,600f71a80a45f0159a38cfe5,626b377229c10585ec392f8a,626b3b9fb7debd6e17e395a0,,,,,,,,,,,,,,,,,,,,,,,l,0,0.6136,"[""0.262"",""0.554"",""0.059"",""0.917""]","[1,1,0,1]",0,37,37,37,1,0,0,,,0,FALSE,,,,,,,,,,,,,,,,,,,,,,,,,,,,,,
,600f71a80a45f0159a38cfe5,001,2022-04-28_20h14.38.322,classification_task,2021.2.3,Win32,59.93407252,600f71a80a45f0159a38cfe5,626b377229c10585ec392f8a,626b3b9fb7debd6e17e395a0,,,,,,,,,,,,,,,,,,,,,,,a,0,0.7326,"[""0.297"",""0.417"",""0.457"",""0.808""]","[0,1,1,1]",0,38,38,38,1,1,1,,,0,FALSE,,,,,,,,,,,,,,,,,,,,,,,,,,,,,,
,600f71a80a45f0159a38cfe5,001,2022-04-28_20h14.38.322,classification_task,2021.2.3,Win32,59.93407252,600f71a80a45f0159a38cfe5,626b377229c10585ec392f8a,626b3b9fb7debd6e17e395a0,,,,,,,,,,,,,,,,,,,,,,,a,0,0.4046,"[""0.143"",""0.417"",""0.457"",""0.182""]","[1,1,1,0]",0,39,39,39,1,1,1,,,0,FALSE,,,,,,,,,,,,,,,,,,,,,,,,,,,,,,
,600f71a80a45f0159a38cfe5,001,2022-04-28_20h14.38.322,classification_task,2021.2.3,Win32,59.93407252,600f71a80a45f0159a38cfe5,626b377229c10585ec392f8a,626b3b9fb7debd6e17e395a0,,,,,,,,,,,,,,,,,,,,,,,a,1,1.021,"[""0.658"",""0.554"",""0.878"",""0.917""]","[0,1,1,1]",0,40,40,40,1,0,0,,,0,FALSE,,,,,,,,,,,,,,,,,,,,,,,,,,,,,,
,600f71a80a45f0159a38cfe5,001,2022-04-28_20h14.38.322,classification_task,2021.2.3,Win32,59.93407252,600f71a80a45f0159a38cfe5,626b377229c10585ec392f8a,626b3b9fb7debd6e17e395a0,,,,,,,,,,,,,,,,,,,,,,,a,1,5.4902,"[""0.217"",""0.673"",""0.771"",""0.960""]","[1,0,1,1]",0,41,41,41,1,0,1,,,0,FALSE,,,,,,,,,,,,,,,,,,,,,,,,,,,,,,
,600f71a80a45f0159a38cfe5,001,2022-04-28_20h14.38.322,classification_task,2021.2.3,Win32,59.93407252,600f71a80a45f0159a38cfe5,626b377229c10585ec392f8a,626b3b9fb7debd6e17e395a0,,,,,,,,,,,,,,,,,,,,,,,a,0,0.9093,"[""0.101"",""0.342"",""0.039"",""0.721""]","[1,1,0,1]",0,42,42,42,1,1,0,,,0,FALSE,,,,,,,,,,,,,,,,,,,,,,,,,,,,,,
,600f71a80a45f0159a38cfe5,001,2022-04-28_20h14.38.322,classification_task,2021.2.3,Win32,59.93407252,600f71a80a45f0159a38cfe5,626b377229c10585ec392f8a,626b3b9fb7debd6e17e395a0,,,,,,,,,,,,,,,,,,,,,,,a,1,1.2951,"[""0.217"",""0.493"",""0.034"",""0.960""]","[1,1,0,1]",0,43,43,43,1,0,1,,,0,FALSE,,,,,,,,,,,,,,,,,,,,,,,,,,,,,,
,600f71a80a45f0159a38cfe5,001,2022-04-28_20h14.38.322,classification_task,2021.2.3,Win32,59.93407252,600f71a80a45f0159a38cfe5,626b377229c10585ec392f8a,626b3b9fb7debd6e17e395a0,,,,,,,,,,,,,,,,,,,,,,,l,1,0.5275,"[""0.101"",""0.182"",""0.624"",""0.721""]","[1,0,1,1]",0,44,44,44,1,1,0,,,0,FALSE,,,,,,,,,,,,,,,,,,,,,,,,,,,,,,
,600f71a80a45f0159a38cfe5,001,2022-04-28_20h14.38.322,classification_task,2021.2.3,Win32,59.93407252,600f71a80a45f0159a38cfe5,626b377229c10585ec392f8a,626b3b9fb7debd6e17e395a0,,,,,,,,,,,,,,,,,,,,,,,a,1,0.4377,"[""0.217"",""0.493"",""0.771"",""0.034""]","[1,1,1,0]",0,45,45,45,1,0,1,,,0,FALSE,,,,,,,,,,,,,,,,,,,,,,,,,,,,,,
,600f71a80a45f0159a38cfe5,001,2022-04-28_20h14.38.322,classification_task,2021.2.3,Win32,59.93407252,600f71a80a45f0159a38cfe5,626b377229c10585ec392f8a,626b3b9fb7debd6e17e395a0,,,,,,,,,,,,,,,,,,,,,,,a,0,0.7298,"[""0.143"",""0.417"",""0.041"",""0.808""]","[1,1,0,1]",0,46,46,46,1,1,1,,,0,FALSE,,,,,,,,,,,,,,,,,,,,,,,,,,,,,,
,600f71a80a45f0159a38cfe5,001,2022-04-28_20h14.38.322,classification_task,2021.2.3,Win32,59.93407252,600f71a80a45f0159a38cfe5,626b377229c10585ec392f8a,626b3b9fb7debd6e17e395a0,,,,,,,,,,,,,,,,,,,,,,,l,1,0.4452,"[""0.101"",""0.342"",""0.624"",""0.182""]","[1,1,1,0]",0,47,47,47,1,1,0,,,0,FALSE,,,,,,,,,,,,,,,,,,,,,,,,,,,,,,
,600f71a80a45f0159a38cfe5,001,2022-04-28_20h14.38.322,classification_task,2021.2.3,Win32,59.93407252,600f71a80a45f0159a38cfe5,626b377229c10585ec392f8a,626b3b9fb7debd6e17e395a0,,,,,,,,,,,,,,,,,,,,,,,l,0,1.185,"[""0.217"",""0.493"",""0.771"",""0.377""]","[1,1,1,0]",0,48,48,48,1,0,1,,,0,FALSE,,,,,,,,,,,,,,,,,,,,,,,,,,,,,,
,600f71a80a45f0159a38cfe5,001,2022-04-28_20h14.38.322,classification_task,2021.2.3,Win32,59.93407252,600f71a80a45f0159a38cfe5,626b377229c10585ec392f8a,626b3b9fb7debd6e17e395a0,,,,,,,,,,,,,,,,,,,,,,,l,0,0.3711,"[""0.262"",""0.658"",""0.878"",""0.917""]","[1,0,1,1]",0,49,49,49,1,0,0,,,0,FALSE,,,,,,,,,,,,,,,,,,,,,,,,,,,,,,
,600f71a80a45f0159a38cfe5,001,2022-04-28_20h14.38.322,classification_task,2021.2.3,Win32,59.93407252,600f71a80a45f0159a38cfe5,626b377229c10585ec392f8a,626b3b9fb7debd6e17e395a0,,,,,,,,,,,,,,,,,,,,,,,a,0,0.2678,"[""0.143"",""0.417"",""0.059"",""0.808""]","[1,1,0,1]",0,50,50,50,1,1,1,,,0,FALSE,,,,,,,,,,,,,,,,,,,,,,,,,,,,,,
,600f71a80a45f0159a38cfe5,001,2022-04-28_20h14.38.322,classification_task,2021.2.3,Win32,59.93407252,600f71a80a45f0159a38cfe5,626b377229c10585ec392f8a,626b3b9fb7debd6e17e395a0,,,,,,,,,,,,,,,,,,,,,,,l,1,0.6885,"[""0.101"",""0.661"",""0.624"",""0.721""]","[1,0,1,1]",0,51,51,51,1,1,0,,,0,FALSE,,,,,,,,,,,,,,,,,,,,,,,,,,,,,,
,600f71a80a45f0159a38cfe5,001,2022-04-28_20h14.38.322,classification_task,2021.2.3,Win32,59.93407252,600f71a80a45f0159a38cfe5,626b377229c10585ec392f8a,626b3b9fb7debd6e17e395a0,,,,,,,,,,,,,,,,,,,,,,,l,1,1.38,"[""0.101"",""0.342"",""0.624"",""0.671""]","[1,1,1,0]",0,52,52,52,1,1,0,,,0,FALSE,,,,,,,,,,,,,,,,,,,,,,,,,,,,,,
,600f71a80a45f0159a38cfe5,001,2022-04-28_20h14.38.322,classification_task,2021.2.3,Win32,59.93407252,600f71a80a45f0159a38cfe5,626b377229c10585ec392f8a,626b3b9fb7debd6e17e395a0,,,,,,,,,,,,,,,,,,,,,,,a,1,0.697,"[""0.217"",""0.661"",""0.771"",""0.960""]","[1,0,1,1]",0,53,53,53,1,0,1,,,0,FALSE,,,,,,,,,,,,,,,,,,,,,,,,,,,,,,
,600f71a80a45f0159a38cfe5,001,2022-04-28_20h14.38.322,classification_task,2021.2.3,Win32,59.93407252,600f71a80a45f0159a38cfe5,626b377229c10585ec392f8a,626b3b9fb7debd6e17e395a0,,,,,,,,,,,,,,,,,,,,,,,a,1,0.6349,"[""0.262"",""0.554"",""0.039"",""0.917""]","[1,1,0,1]",0,54,54,54,1,0,0,,,0,FALSE,,,,,,,,,,,,,,,,,,,,,,,,,,,,,,
,600f71a80a45f0159a38cfe5,001,2022-04-28_20h14.38.322,classification_task,2021.2.3,Win32,59.93407252,600f71a80a45f0159a38cfe5,626b377229c10585ec392f8a,626b3b9fb7debd6e17e395a0,,,,,,,,,,,,,,,,,,,,,,,l,1,1.1367,"[""0.059"",""0.417"",""0.457"",""0.808""]","[0,1,1,1]",0,55,55,55,1,1,1,,,0,FALSE,,,,,,,,,,,,,,,,,,,,,,,,,,,,,,
,600f71a80a45f0159a38cfe5,001,2022-04-28_20h14.38.322,classification_task,2021.2.3,Win32,59.93407252,600f71a80a45f0159a38cfe5,626b377229c10585ec392f8a,626b3b9fb7debd6e17e395a0,,,,,,,,,,,,,,,,,,,,,,,a,1,1.8309,"[""0.262"",""0.554"",""0.878"",""0.182""]","[1,1,1,0]",0,56,56,56,1,0,0,,,0,FALSE,,,,,,,,,,,,,,,,,,,,,,,,,,,,,,
,600f71a80a45f0159a38cfe5,001,2022-04-28_20h14.38.322,classification_task,2021.2.3,Win32,59.93407252,600f71a80a45f0159a38cfe5,626b377229c10585ec392f8a,626b3b9fb7debd6e17e395a0,,,,,,,,,,,,,,,,,,,,,,,l,1,1.663,"[""0.101"",""0.342"",""0.680"",""0.721""]","[1,1,0,1]",0,57,57,57,1,1,0,,,0,FALSE,,,,,,,,,,,,,,,,,,,,,,,,,,,,,,
,600f71a80a45f0159a38cfe5,001,2022-04-28_20h14.38.322,classification_task,2021.2.3,Win32,59.93407252,600f71a80a45f0159a38cfe5,626b377229c10585ec392f8a,626b3b9fb7debd6e17e395a0,,,,,,,,,,,,,,,,,,,,,,,a,0,0.6382,"[""0.143"",""0.417"",""0.457"",""0.661""]","[1,1,1,0]",0,58,58,58,1,1,1,,,0,FALSE,,,,,,,,,,,,,,,,,,,,,,,,,,,,,,
,600f71a80a45f0159a38cfe5,001,2022-04-28_20h14.38.322,classification_task,2021.2.3,Win32,59.93407252,600f71a80a45f0159a38cfe5,626b377229c10585ec392f8a,626b3b9fb7debd6e17e395a0,,,,,,,,,,,,,,,,,,,,,,,a,1,0.2207,"[""0.217"",""0.493"",""0.671"",""0.960""]","[1,1,0,1]",0,59,59,59,1,0,1,,,0,FALSE,,,,,,,,,,,,,,,,,,,,,,,,,,,,,,
,600f71a80a45f0159a38cfe5,001,2022-04-28_20h14.38.322,classification_task,2021.2.3,Win32,59.93407252,600f71a80a45f0159a38cfe5,626b377229c10585ec392f8a,626b3b9fb7debd6e17e395a0,,,,,,,,,,,,,,,,,,,,,,,l,1,1.5141,"[""0.673"",""0.342"",""0.624"",""0.721""]","[0,1,1,1]",0,60,60,60,1,1,0,,,0,FALSE,,,,,,,,,,,,,,,,,,,,,,,,,,,,,,
,600f71a80a45f0159a38cfe5,001,2022-04-28_20h14.38.322,classification_task,2021.2.3,Win32,59.93407252,600f71a80a45f0159a38cfe5,626b377229c10585ec392f8a,626b3b9fb7debd6e17e395a0,,,,,,,,,,,,,,,,,,,,,,,a,1,1.3497,"[""0.182"",""0.493"",""0.771"",""0.960""]","[0,1,1,1]",0,61,61,61,1,0,1,,,0,FALSE,,,,,,,,,,,,,,,,,,,,,,,,,,,,,,
,600f71a80a45f0159a38cfe5,001,2022-04-28_20h14.38.322,classification_task,2021.2.3,Win32,59.93407252,600f71a80a45f0159a38cfe5,626b377229c10585ec392f8a,626b3b9fb7debd6e17e395a0,,,,,,,,,,,,,,,,,,,,,,,l,0,0.6427,"[""0.039"",""0.554"",""0.878"",""0.917""]","[0,1,1,1]",0,62,62,62,1,0,0,,,0,FALSE,,,,,,,,,,,,,,,,,,,,,,,,,,,,,,
,600f71a80a45f0159a38cfe5,001,2022-04-28_20h14.38.322,classification_task,2021.2.3,Win32,59.93407252,600f71a80a45f0159a38cfe5,626b377229c10585ec392f8a,626b3b9fb7debd6e17e395a0,,,,,,,,,,,,,,,,,,,,,,,a,0,0.6174,"[""0.143"",""0.039"",""0.457"",""0.808""]","[1,0,1,1]",0,63,63,63,1,1,1,,,0,FALSE,,,,,,,,,,,,,,,,,,,,,,,,,,,,,,
,600f71a80a45f0159a38cfe5,001,2022-04-28_20h14.38.322,classification_task,2021.2.3,Win32,59.93407252,600f71a80a45f0159a38cfe5,626b377229c10585ec392f8a,626b3b9fb7debd6e17e395a0,,,,,,,,,,,,,,,,,,,,,,,,,,,,,,,,,,,,,,,0, ,,0,3.93215388,493.8377,0,0,0,0,1,2,1,,,,,,,,,,,,,,,,,
,600f71a80a45f0159a38cfe5,001,2022-04-28_20h14.38.322,classification_task,2021.2.3,Win32,59.93407252,600f71a80a45f0159a38cfe5,626b377229c10585ec392f8a,626b3b9fb7debd6e17e395a0,,,,,,,,,,,,,,,,,,,,,,,,,,,,,,,,,,,,,,,1,  ,,0,7.927965168,502.0568,0,0,0,0,1,2,1,,,,,,,,,,,,,,,,,
,600f71a80a45f0159a38cfe5,001,2022-04-28_20h14.38.322,classification_task,2021.2.3,Win32,59.93407252,600f71a80a45f0159a38cfe5,626b377229c10585ec392f8a,626b3b9fb7debd6e17e395a0,,,,,,,,,,,,,,,,,,,,,,,,,,,,,,,,,,,,,,,2,  ,,0,7.962411817,507.9275,0,0,0,0,1,2,1,,,,,,,,,,,,,,,,,
,600f71a80a45f0159a38cfe5,001,2022-04-28_20h14.38.322,classification_task,2021.2.3,Win32,59.93407252,600f71a80a45f0159a38cfe5,626b377229c10585ec392f8a,626b3b9fb7debd6e17e395a0,,,,,,,,,,,,,,,,,,,,,,,,,,,,,,,,,,,,,,,,,,,,,0,0,0,0,1,,1,,,,,,,,,,,,,,,,,
,600f71a80a45f0159a38cfe5,001,2022-04-28_20h14.38.322,classification_task,2021.2.3,Win32,59.93407252,600f71a80a45f0159a38cfe5,626b377229c10585ec392f8a,626b3b9fb7debd6e17e395a0,,,,,,,,,,,,,,,,,,,,,space,7.1486,l,1,5.1649,"[""0.101"",""0.342"",""0.034"",""0.721""]","[1,1,0,1]",0,0,0,0,1,1,0,,,0,FALSE,,,,,,,,,,,,,,,,,,,,,,,,,,,,,,
,600f71a80a45f0159a38cfe5,001,2022-04-28_20h14.38.322,classification_task,2021.2.3,Win32,59.93407252,600f71a80a45f0159a38cfe5,626b377229c10585ec392f8a,626b3b9fb7debd6e17e395a0,,,,,,,,,,,,,,,,,,,,,,,a,1,3.0257,"[""0.217"",""0.493"",""0.670"",""0.960""]","[1,1,0,1]",0,1,1,1,1,0,1,,,0,FALSE,,,,,,,,,,,,,,,,,,,,,,,,,,,,,,
,600f71a80a45f0159a38cfe5,001,2022-04-28_20h14.38.322,classification_task,2021.2.3,Win32,59.93407252,600f71a80a45f0159a38cfe5,626b377229c10585ec392f8a,626b3b9fb7debd6e17e395a0,,,,,,,,,,,,,,,,,,,,,,,a,1,3.2855,"[""0.262"",""0.554"",""0.673"",""0.917""]","[1,1,0,1]",0,2,2,2,1,0,0,,,0,FALSE,,,,,,,,,,,,,,,,,,,,,,,,,,,,,,
,600f71a80a45f0159a38cfe5,001,2022-04-28_20h14.38.322,classification_task,2021.2.3,Win32,59.93407252,600f71a80a45f0159a38cfe5,626b377229c10585ec392f8a,626b3b9fb7debd6e17e395a0,,,,,,,,,,,,,,,,,,,,,,,l,1,1.7634,"[""0.101"",""0.182"",""0.624"",""0.721""]","[1,0,1,1]",0,3,3,3,1,1,0,,,0,FALSE,,,,,,,,,,,,,,,,,,,,,,,,,,,,,,
,600f71a80a45f0159a38cfe5,001,2022-04-28_20h14.38.322,classification_task,2021.2.3,Win32,59.93407252,600f71a80a45f0159a38cfe5,626b377229c10585ec392f8a,626b3b9fb7debd6e17e395a0,,,,,,,,,,,,,,,,,,,,,,,l,1,0.9647,"[""0.101"",""0.342"",""0.624"",""0.680""]","[1,1,1,0]",0,4,4,4,1,1,0,,,0,FALSE,,,,,,,,,,,,,,,,,,,,,,,,,,,,,,
,600f71a80a45f0159a38cfe5,001,2022-04-28_20h14.38.322,classification_task,2021.2.3,Win32,59.93407252,600f71a80a45f0159a38cfe5,626b377229c10585ec392f8a,626b3b9fb7debd6e17e395a0,,,,,,,,,,,,,,,,,,,,,,,a,0,1.878,"[""0.143"",""0.297"",""0.457"",""0.808""]","[1,0,1,1]",0,5,5,5,1,1,1,,,0,FALSE,,,,,,,,,,,,,,,,,,,,,,,,,,,,,,
,600f71a80a45f0159a38cfe5,001,2022-04-28_20h14.38.322,classification_task,2021.2.3,Win32,59.93407252,600f71a80a45f0159a38cfe5,626b377229c10585ec392f8a,626b3b9fb7debd6e17e395a0,,,,,,,,,,,,,,,,,,,,,,,l,1,1.0067,"[""0.680"",""0.417"",""0.457"",""0.808""]","[0,1,1,1]",0,6,6,6,1,1,1,,,0,FALSE,,,,,,,,,,,,,,,,,,,,,,,,,,,,,,
,600f71a80a45f0159a38cfe5,001,2022-04-28_20h14.38.322,classification_task,2021.2.3,Win32,59.93407252,600f71a80a45f0159a38cfe5,626b377229c10585ec392f8a,626b3b9fb7debd6e17e395a0,,,,,,,,,,,,,,,,,,,,,,,l,1,0.6214,"[""0.143"",""0.417"",""0.377"",""0.808""]","[1,1,0,1]",0,7,7,7,1,1,1,,,0,FALSE,,,,,,,,,,,,,,,,,,,,,,,,,,,,,,
,600f71a80a45f0159a38cfe5,001,2022-04-28_20h14.38.322,classification_task,2021.2.3,Win32,59.93407252,600f71a80a45f0159a38cfe5,626b377229c10585ec392f8a,626b3b9fb7debd6e17e395a0,,,,,,,,,,,,,,,,,,,,,,,a,0,0.9131,"[""0.143"",""0.417"",""0.457"",""0.041""]","[1,1,1,0]",0,8,8,8,1,1,1,,,0,FALSE,,,,,,,,,,,,,,,,,,,,,,,,,,,,,,
,600f71a80a45f0159a38cfe5,001,2022-04-28_20h14.38.322,classification_task,2021.2.3,Win32,59.93407252,600f71a80a45f0159a38cfe5,626b377229c10585ec392f8a,626b3b9fb7debd6e17e395a0,,,,,,,,,,,,,,,,,,,,,,,a,1,0.5315,"[""0.262"",""0.554"",""0.878"",""0.842""]","[1,1,1,0]",0,9,9,9,1,0,0,,,0,FALSE,,,,,,,,,,,,,,,,,,,,,,,,,,,,,,
,600f71a80a45f0159a38cfe5,001,2022-04-28_20h14.38.322,classification_task,2021.2.3,Win32,59.93407252,600f71a80a45f0159a38cfe5,626b377229c10585ec392f8a,626b3b9fb7debd6e17e395a0,,,,,,,,,,,,,,,,,,,,,,,a,1,1.3296,"[""0.217"",""0.493"",""0.771"",""0.670""]","[1,1,1,0]",0,10,10,10,1,0,1,,,0,FALSE,,,,,,,,,,,,,,,,,,,,,,,,,,,,,,
,600f71a80a45f0159a38cfe5,001,2022-04-28_20h14.38.322,classification_task,2021.2.3,Win32,59.93407252,600f71a80a45f0159a38cfe5,626b377229c10585ec392f8a,626b3b9fb7debd6e17e395a0,,,,,,,,,,,,,,,,,,,,,,,a,1,0.4626,"[""0.217"",""0.673"",""0.771"",""0.960""]","[1,0,1,1]",0,11,11,11,1,0,1,,,0,FALSE,,,,,,,,,,,,,,,,,,,,,,,,,,,,,,
,600f71a80a45f0159a38cfe5,001,2022-04-28_20h14.38.322,classification_task,2021.2.3,Win32,59.93407252,600f71a80a45f0159a38cfe5,626b377229c10585ec392f8a,626b3b9fb7debd6e17e395a0,,,,,,,,,,,,,,,,,,,,,,,a,1,0.7912,"[""0.262"",""0.059"",""0.878"",""0.917""]","[1,0,1,1]",0,12,12,12,1,0,0,,,0,FALSE,,,,,,,,,,,,,,,,,,,,,,,,,,,,,,
,600f71a80a45f0159a38cfe5,001,2022-04-28_20h14.38.322,classification_task,2021.2.3,Win32,59.93407252,600f71a80a45f0159a38cfe5,626b377229c10585ec392f8a,626b3b9fb7debd6e17e395a0,,,,,,,,,,,,,,,,,,,,,,,l,1,0.4484,"[""0.182"",""0.342"",""0.624"",""0.721""]","[0,1,1,1]",0,13,13,13,1,1,0,,,0,FALSE,,,,,,,,,,,,,,,,,,,,,,,,,,,,,,
,600f71a80a45f0159a38cfe5,001,2022-04-28_20h14.38.322,classification_task,2021.2.3,Win32,59.93407252,600f71a80a45f0159a38cfe5,626b377229c10585ec392f8a,626b3b9fb7debd6e17e395a0,,,,,,,,,,,,,,,,,,,,,,,a,1,0.5635,"[""0.034"",""0.554"",""0.878"",""0.917""]","[0,1,1,1]",0,14,14,14,1,0,0,,,0,FALSE,,,,,,,,,,,,,,,,,,,,,,,,,,,,,,
,600f71a80a45f0159a38cfe5,001,2022-04-28_20h14.38.322,classification_task,2021.2.3,Win32,59.93407252,600f71a80a45f0159a38cfe5,626b377229c10585ec392f8a,626b3b9fb7debd6e17e395a0,,,,,,,,,,,,,,,,,,,,,,,l,0,0.845,"[""0.658"",""0.493"",""0.771"",""0.960""]","[0,1,1,1]",0,15,15,15,1,0,1,,,0,FALSE,,,,,,,,,,,,,,,,,,,,,,,,,,,,,,
,600f71a80a45f0159a38cfe5,001,2022-04-28_20h14.38.322,classification_task,2021.2.3,Win32,59.93407252,600f71a80a45f0159a38cfe5,626b377229c10585ec392f8a,626b3b9fb7debd6e17e395a0,,,,,,,,,,,,,,,,,,,,,,,a,0,0.4956,"[""0.143"",""0.417"",""0.297"",""0.808""]","[1,1,0,1]",0,16,16,16,1,1,1,,,0,FALSE,,,,,,,,,,,,,,,,,,,,,,,,,,,,,,
,600f71a80a45f0159a38cfe5,001,2022-04-28_20h14.38.322,classification_task,2021.2.3,Win32,59.93407252,600f71a80a45f0159a38cfe5,626b377229c10585ec392f8a,626b3b9fb7debd6e17e395a0,,,,,,,,,,,,,,,,,,,,,,,a,0,0.4854,"[""0.671"",""0.417"",""0.457"",""0.808""]","[0,1,1,1]",0,17,17,17,1,1,1,,,0,FALSE,,,,,,,,,,,,,,,,,,,,,,,,,,,,,,
,600f71a80a45f0159a38cfe5,001,2022-04-28_20h14.38.322,classification_task,2021.2.3,Win32,59.93407252,600f71a80a45f0159a38cfe5,626b377229c10585ec392f8a,626b3b9fb7debd6e17e395a0,,,,,,,,,,,,,,,,,,,,,,,a,1,0.5858,"[""0.217"",""0.673"",""0.771"",""0.960""]","[1,0,1,1]",0,18,18,18,1,0,1,,,0,FALSE,,,,,,,,,,,,,,,,,,,,,,,,,,,,,,
,600f71a80a45f0159a38cfe5,001,2022-04-28_20h14.38.322,classification_task,2021.2.3,Win32,59.93407252,600f71a80a45f0159a38cfe5,626b377229c10585ec392f8a,626b3b9fb7debd6e17e395a0,,,,,,,,,,,,,,,,,,,,,,,l,1,0.4139,"[""0.182"",""0.342"",""0.624"",""0.721""]","[0,1,1,1]",0,19,19,19,1,1,0,,,0,FALSE,,,,,,,,,,,,,,,,,,,,,,,,,,,,,,
,600f71a80a45f0159a38cfe5,001,2022-04-28_20h14.38.322,classification_task,2021.2.3,Win32,59.93407252,600f71a80a45f0159a38cfe5,626b377229c10585ec392f8a,626b3b9fb7debd6e17e395a0,,,,,,,,,,,,,,,,,,,,,,,l,1,0.3964,"[""0.101"",""0.059"",""0.624"",""0.721""]","[1,0,1,1]",0,20,20,20,1,1,0,,,0,FALSE,,,,,,,,,,,,,,,,,,,,,,,,,,,,,,
,600f71a80a45f0159a38cfe5,001,2022-04-28_20h14.38.322,classification_task,2021.2.3,Win32,59.93407252,600f71a80a45f0159a38cfe5,626b377229c10585ec392f8a,626b3b9fb7debd6e17e395a0,,,,,,,,,,,,,,,,,,,,,,,a,1,0.6718,"[""0.262"",""0.554"",""0.878"",""0.673""]","[1,1,1,0]",0,21,21,21,1,0,0,,,0,FALSE,,,,,,,,,,,,,,,,,,,,,,,,,,,,,,
,600f71a80a45f0159a38cfe5,001,2022-04-28_20h14.38.322,classification_task,2021.2.3,Win32,59.93407252,600f71a80a45f0159a38cfe5,626b377229c10585ec392f8a,626b3b9fb7debd6e17e395a0,,,,,,,,,,,,,,,,,,,,,,,l,0,1.2607,"[""0.217"",""0.493"",""0.842"",""0.960""]","[1,1,0,1]",0,22,22,22,1,0,1,,,0,FALSE,,,,,,,,,,,,,,,,,,,,,,,,,,,,,,
,600f71a80a45f0159a38cfe5,001,2022-04-28_20h14.38.322,classification_task,2021.2.3,Win32,59.93407252,600f71a80a45f0159a38cfe5,626b377229c10585ec392f8a,626b3b9fb7debd6e17e395a0,,,,,,,,,,,,,,,,,,,,,,,a,1,0.781,"[""0.217"",""0.493"",""0.771"",""0.182""]","[1,1,1,0]",0,23,23,23,1,0,1,,,0,FALSE,,,,,,,,,,,,,,,,,,,,,,,,,,,,,,
,600f71a80a45f0159a38cfe5,001,2022-04-28_20h14.38.322,classification_task,2021.2.3,Win32,59.93407252,600f71a80a45f0159a38cfe5,626b377229c10585ec392f8a,626b3b9fb7debd6e17e395a0,,,,,,,,,,,,,,,,,,,,,,,a,0,0.6462,"[""0.143"",""0.417"",""0.457"",""0.039""]","[1,1,1,0]",0,24,24,24,1,1,1,,,0,FALSE,,,,,,,,,,,,,,,,,,,,,,,,,,,,,,
,600f71a80a45f0159a38cfe5,001,2022-04-28_20h14.38.322,classification_task,2021.2.3,Win32,59.93407252,600f71a80a45f0159a38cfe5,626b377229c10585ec392f8a,626b3b9fb7debd6e17e395a0,,,,,,,,,,,,,,,,,,,,,,,a,0,0.8793,"[""0.143"",""0.182"",""0.457"",""0.808""]","[1,0,1,1]",0,25,25,25,1,1,1,,,0,FALSE,,,,,,,,,,,,,,,,,,,,,,,,,,,,,,
,600f71a80a45f0159a38cfe5,001,2022-04-28_20h14.38.322,classification_task,2021.2.3,Win32,59.93407252,600f71a80a45f0159a38cfe5,626b377229c10585ec392f8a,626b3b9fb7debd6e17e395a0,,,,,,,,,,,,,,,,,,,,,,,l,1,2.6302,"[""0.101"",""0.342"",""0.182"",""0.721""]","[1,1,0,1]",0,26,26,26,1,1,0,,,0,FALSE,,,,,,,,,,,,,,,,,,,,,,,,,,,,,,
,600f71a80a45f0159a38cfe5,001,2022-04-28_20h14.38.322,classification_task,2021.2.3,Win32,59.93407252,600f71a80a45f0159a38cfe5,626b377229c10585ec392f8a,626b3b9fb7debd6e17e395a0,,,,,,,,,,,,,,,,,,,,,,,a,1,1.7704,"[""0.182"",""0.493"",""0.771"",""0.960""]","[0,1,1,1]",0,27,27,27,1,0,1,,,0,FALSE,,,,,,,,,,,,,,,,,,,,,,,,,,,,,,
,600f71a80a45f0159a38cfe5,001,2022-04-28_20h14.38.322,classification_task,2021.2.3,Win32,59.93407252,600f71a80a45f0159a38cfe5,626b377229c10585ec392f8a,626b3b9fb7debd6e17e395a0,,,,,,,,,,,,,,,,,,,,,,,l,1,1.7273,"[""0.101"",""0.342"",""0.624"",""0.034""]","[1,1,1,0]",0,28,28,28,1,1,0,,,0,FALSE,,,,,,,,,,,,,,,,,,,,,,,,,,,,,,
,600f71a80a45f0159a38cfe5,001,2022-04-28_20h14.38.322,classification_task,2021.2.3,Win32,59.93407252,600f71a80a45f0159a38cfe5,626b377229c10585ec392f8a,626b3b9fb7debd6e17e395a0,,,,,,,,,,,,,,,,,,,,,,,a,1,2.964,"[""0.262"",""0.658"",""0.878"",""0.917""]","[1,0,1,1]",0,29,29,29,1,0,0,,,0,FALSE,,,,,,,,,,,,,,,,,,,,,,,,,,,,,,
,600f71a80a45f0159a38cfe5,001,2022-04-28_20h14.38.322,classification_task,2021.2.3,Win32,59.93407252,600f71a80a45f0159a38cfe5,626b377229c10585ec392f8a,626b3b9fb7debd6e17e395a0,,,,,,,,,,,,,,,,,,,,,,,a,1,1.1888,"[""0.262"",""0.554"",""0.661"",""0.917""]","[1,1,0,1]",0,30,30,30,1,0,0,,,0,FALSE,,,,,,,,,,,,,,,,,,,,,,,,,,,,,,
,600f71a80a45f0159a38cfe5,001,2022-04-28_20h14.38.322,classification_task,2021.2.3,Win32,59.93407252,600f71a80a45f0159a38cfe5,626b377229c10585ec392f8a,626b3b9fb7debd6e17e395a0,,,,,,,,,,,,,,,,,,,,,,,a,1,1.7202,"[""0.182"",""0.554"",""0.878"",""0.917""]","[0,1,1,1]",0,31,31,31,1,0,0,,,0,FALSE,,,,,,,,,,,,,,,,,,,,,,,,,,,,,,
,600f71a80a45f0159a38cfe5,001,2022-04-28_20h14.38.322,classification_task,2021.2.3,Win32,59.93407252,600f71a80a45f0159a38cfe5,626b377229c10585ec392f8a,626b3b9fb7debd6e17e395a0,,,,,,,,,,,,,,,,,,,,,,,a,1,3.647,"[""0.041"",""0.493"",""0.771"",""0.960""]","[0,1,1,1]",0,32,32,32,1,0,1,,,0,FALSE,,,,,,,,,,,,,,,,,,,,,,,,,,,,,,
,600f71a80a45f0159a38cfe5,001,2022-04-28_20h14.38.322,classification_task,2021.2.3,Win32,59.93407252,600f71a80a45f0159a38cfe5,626b377229c10585ec392f8a,626b3b9fb7debd6e17e395a0,,,,,,,,,,,,,,,,,,,,,,,a,1,1.9878,"[""0.262"",""0.034"",""0.878"",""0.917""]","[1,0,1,1]",0,33,33,33,1,0,0,,,0,FALSE,,,,,,,,,,,,,,,,,,,,,,,,,,,,,,
,600f71a80a45f0159a38cfe5,001,2022-04-28_20h14.38.322,classification_task,2021.2.3,Win32,59.93407252,600f71a80a45f0159a38cfe5,626b377229c10585ec392f8a,626b3b9fb7debd6e17e395a0,,,,,,,,,,,,,,,,,,,,,,,l,1,1.1346,"[""0.143"",""0.417"",""0.457"",""0.041""]","[1,1,1,0]",0,34,34,34,1,1,1,,,0,FALSE,,,,,,,,,,,,,,,,,,,,,,,,,,,,,,
,600f71a80a45f0159a38cfe5,001,2022-04-28_20h14.38.322,classification_task,2021.2.3,Win32,59.93407252,600f71a80a45f0159a38cfe5,626b377229c10585ec392f8a,626b3b9fb7debd6e17e395a0,,,,,,,,,,,,,,,,,,,,,,,l,1,1.7467,"[""0.039"",""0.417"",""0.457"",""0.808""]","[0,1,1,1]",0,35,35,35,1,1,1,,,0,FALSE,,,,,,,,,,,,,,,,,,,,,,,,,,,,,,
,600f71a80a45f0159a38cfe5,001,2022-04-28_20h14.38.322,classification_task,2021.2.3,Win32,59.93407252,600f71a80a45f0159a38cfe5,626b377229c10585ec392f8a,626b3b9fb7debd6e17e395a0,,,,,,,,,,,,,,,,,,,,,,,l,1,3.144,"[""0.101"",""0.377"",""0.624"",""0.721""]","[1,0,1,1]",0,36,36,36,1,1,0,,,0,FALSE,,,,,,,,,,,,,,,,,,,,,,,,,,,,,,
,600f71a80a45f0159a38cfe5,001,2022-04-28_20h14.38.322,classification_task,2021.2.3,Win32,59.93407252,600f71a80a45f0159a38cfe5,626b377229c10585ec392f8a,626b3b9fb7debd6e17e395a0,,,,,,,,,,,,,,,,,,,,,,,l,1,1.1552,"[""0.182"",""0.342"",""0.624"",""0.721""]","[0,1,1,1]",0,37,37,37,1,1,0,,,0,FALSE,,,,,,,,,,,,,,,,,,,,,,,,,,,,,,
,600f71a80a45f0159a38cfe5,001,2022-04-28_20h14.38.322,classification_task,2021.2.3,Win32,59.93407252,600f71a80a45f0159a38cfe5,626b377229c10585ec392f8a,626b3b9fb7debd6e17e395a0,,,,,,,,,,,,,,,,,,,,,,,a,1,0.5467,"[""0.059"",""0.554"",""0.878"",""0.917""]","[0,1,1,1]",0,38,38,38,1,0,0,,,0,FALSE,,,,,,,,,,,,,,,,,,,,,,,,,,,,,,
,600f71a80a45f0159a38cfe5,001,2022-04-28_20h14.38.322,classification_task,2021.2.3,Win32,59.93407252,600f71a80a45f0159a38cfe5,626b377229c10585ec392f8a,626b3b9fb7debd6e17e395a0,,,,,,,,,,,,,,,,,,,,,,,l,0,1.0969,"[""0.217"",""0.295"",""0.771"",""0.960""]","[1,0,1,1]",0,39,39,39,1,0,1,,,0,FALSE,,,,,,,,,,,,,,,,,,,,,,,,,,,,,,
,600f71a80a45f0159a38cfe5,001,2022-04-28_20h14.38.322,classification_task,2021.2.3,Win32,59.93407252,600f71a80a45f0159a38cfe5,626b377229c10585ec392f8a,626b3b9fb7debd6e17e395a0,,,,,,,,,,,,,,,,,,,,,,,a,1,1.0377,"[""0.217"",""0.493"",""0.680"",""0.960""]","[1,1,0,1]",0,40,40,40,1,0,1,,,0,FALSE,,,,,,,,,,,,,,,,,,,,,,,,,,,,,,
,600f71a80a45f0159a38cfe5,001,2022-04-28_20h14.38.322,classification_task,2021.2.3,Win32,59.93407252,600f71a80a45f0159a38cfe5,626b377229c10585ec392f8a,626b3b9fb7debd6e17e395a0,,,,,,,,,,,,,,,,,,,,,,,a,1,0.8284,"[""0.217"",""0.493"",""0.771"",""0.039""]","[1,1,1,0]",0,41,41,41,1,0,1,,,0,FALSE,,,,,,,,,,,,,,,,,,,,,,,,,,,,,,
,600f71a80a45f0159a38cfe5,001,2022-04-28_20h14.38.322,classification_task,2021.2.3,Win32,59.93407252,600f71a80a45f0159a38cfe5,626b377229c10585ec392f8a,626b3b9fb7debd6e17e395a0,,,,,,,,,,,,,,,,,,,,,,,l,1,0.521,"[""0.101"",""0.342"",""0.624"",""0.034""]","[1,1,1,0]",0,42,42,42,1,1,0,,,0,FALSE,,,,,,,,,,,,,,,,,,,,,,,,,,,,,,
,600f71a80a45f0159a38cfe5,001,2022-04-28_20h14.38.322,classification_task,2021.2.3,Win32,59.93407252,600f71a80a45f0159a38cfe5,626b377229c10585ec392f8a,626b3b9fb7debd6e17e395a0,,,,,,,,,,,,,,,,,,,,,,,a,1,0.6633,"[""0.262"",""0.554"",""0.059"",""0.917""]","[1,1,0,1]",0,43,43,43,1,0,0,,,0,FALSE,,,,,,,,,,,,,,,,,,,,,,,,,,,,,,
,600f71a80a45f0159a38cfe5,001,2022-04-28_20h14.38.322,classification_task,2021.2.3,Win32,59.93407252,600f71a80a45f0159a38cfe5,626b377229c10585ec392f8a,626b3b9fb7debd6e17e395a0,,,,,,,,,,,,,,,,,,,,,,,a,0,0.9784,"[""0.143"",""0.417"",""0.658"",""0.808""]","[1,1,0,1]",0,44,44,44,1,1,1,,,0,FALSE,,,,,,,,,,,,,,,,,,,,,,,,,,,,,,
,600f71a80a45f0159a38cfe5,001,2022-04-28_20h14.38.322,classification_task,2021.2.3,Win32,59.93407252,600f71a80a45f0159a38cfe5,626b377229c10585ec392f8a,626b3b9fb7debd6e17e395a0,,,,,,,,,,,,,,,,,,,,,,,a,1,0.6941,"[""0.262"",""0.554"",""0.878"",""0.182""]","[1,1,1,0]",0,45,45,45,1,0,0,,,0,FALSE,,,,,,,,,,,,,,,,,,,,,,,,,,,,,,
,600f71a80a45f0159a38cfe5,001,2022-04-28_20h14.38.322,classification_task,2021.2.3,Win32,59.93407252,600f71a80a45f0159a38cfe5,626b377229c10585ec392f8a,626b3b9fb7debd6e17e395a0,,,,,,,,,,,,,,,,,,,,,,,l,1,2.6107,"[""0.101"",""0.342"",""0.295"",""0.721""]","[1,1,0,1]",0,46,46,46,1,1,0,,,0,FALSE,,,,,,,,,,,,,,,,,,,,,,,,,,,,,,
,600f71a80a45f0159a38cfe5,001,2022-04-28_20h14.38.322,classification_task,2021.2.3,Win32,59.93407252,600f71a80a45f0159a38cfe5,626b377229c10585ec392f8a,626b3b9fb7debd6e17e395a0,,,,,,,,,,,,,,,,,,,,,,,l,1,0.9752,"[""0.143"",""0.041"",""0.457"",""0.808""]","[1,0,1,1]",0,47,47,47,1,1,1,,,0,FALSE,,,,,,,,,,,,,,,,,,,,,,,,,,,,,,
,600f71a80a45f0159a38cfe5,001,2022-04-28_20h14.38.322,classification_task,2021.2.3,Win32,59.93407252,600f71a80a45f0159a38cfe5,626b377229c10585ec392f8a,626b3b9fb7debd6e17e395a0,,,,,,,,,,,,,,,,,,,,,,,a,1,2.8809,"[""0.262"",""0.554"",""0.297"",""0.917""]","[1,1,0,1]",0,48,48,48,1,0,0,,,0,FALSE,,,,,,,,,,,,,,,,,,,,,,,,,,,,,,
,600f71a80a45f0159a38cfe5,001,2022-04-28_20h14.38.322,classification_task,2021.2.3,Win32,59.93407252,600f71a80a45f0159a38cfe5,626b377229c10585ec392f8a,626b3b9fb7debd6e17e395a0,,,,,,,,,,,,,,,,,,,,,,,a,0,3.0688,"[""0.143"",""0.417"",""0.039"",""0.808""]","[1,1,0,1]",0,49,49,49,1,1,1,,,0,FALSE,,,,,,,,,,,,,,,,,,,,,,,,,,,,,,
,600f71a80a45f0159a38cfe5,001,2022-04-28_20h14.38.322,classification_task,2021.2.3,Win32,59.93407252,600f71a80a45f0159a38cfe5,626b377229c10585ec392f8a,626b3b9fb7debd6e17e395a0,,,,,,,,,,,,,,,,,,,,,,,a,1,1.336,"[""0.262"",""0.554"",""0.878"",""0.297""]","[1,1,1,0]",0,50,50,50,1,0,0,,,0,FALSE,,,,,,,,,,,,,,,,,,,,,,,,,,,,,,
,600f71a80a45f0159a38cfe5,001,2022-04-28_20h14.38.322,classification_task,2021.2.3,Win32,59.93407252,600f71a80a45f0159a38cfe5,626b377229c10585ec392f8a,626b3b9fb7debd6e17e395a0,,,,,,,,,,,,,,,,,,,,,,,l,0,0.8726,"[""0.217"",""0.493"",""0.771"",""0.039""]","[1,1,1,0]",0,51,51,51,1,0,1,,,0,FALSE,,,,,,,,,,,,,,,,,,,,,,,,,,,,,,
,600f71a80a45f0159a38cfe5,001,2022-04-28_20h14.38.322,classification_task,2021.2.3,Win32,59.93407252,600f71a80a45f0159a38cfe5,626b377229c10585ec392f8a,626b3b9fb7debd6e17e395a0,,,,,,,,,,,,,,,,,,,,,,,l,1,0.9482,"[""0.039"",""0.342"",""0.624"",""0.721""]","[0,1,1,1]",0,52,52,52,1,1,0,,,0,FALSE,,,,,,,,,,,,,,,,,,,,,,,,,,,,,,
,600f71a80a45f0159a38cfe5,001,2022-04-28_20h14.38.322,classification_task,2021.2.3,Win32,59.93407252,600f71a80a45f0159a38cfe5,626b377229c10585ec392f8a,626b3b9fb7debd6e17e395a0,,,,,,,,,,,,,,,,,,,,,,,a,1,1.1595,"[""0.680"",""0.493"",""0.771"",""0.960""]","[0,1,1,1]",0,53,53,53,1,0,1,,,0,FALSE,,,,,,,,,,,,,,,,,,,,,,,,,,,,,,
,600f71a80a45f0159a38cfe5,001,2022-04-28_20h14.38.322,classification_task,2021.2.3,Win32,59.93407252,600f71a80a45f0159a38cfe5,626b377229c10585ec392f8a,626b3b9fb7debd6e17e395a0,,,,,,,,,,,,,,,,,,,,,,,l,1,1.0475,"[""0.101"",""0.342"",""0.624"",""0.059""]","[1,1,1,0]",0,54,54,54,1,1,0,,,0,FALSE,,,,,,,,,,,,,,,,,,,,,,,,,,,,,,
,600f71a80a45f0159a38cfe5,001,2022-04-28_20h14.38.322,classification_task,2021.2.3,Win32,59.93407252,600f71a80a45f0159a38cfe5,626b377229c10585ec392f8a,626b3b9fb7debd6e17e395a0,,,,,,,,,,,,,,,,,,,,,,,a,1,0.9477,"[""0.217"",""0.661"",""0.771"",""0.960""]","[1,0,1,1]",0,55,55,55,1,0,1,,,0,FALSE,,,,,,,,,,,,,,,,,,,,,,,,,,,,,,
,600f71a80a45f0159a38cfe5,001,2022-04-28_20h14.38.322,classification_task,2021.2.3,Win32,59.93407252,600f71a80a45f0159a38cfe5,626b377229c10585ec392f8a,626b3b9fb7debd6e17e395a0,,,,,,,,,,,,,,,,,,,,,,,a,1,0.7929,"[""0.182"",""0.554"",""0.878"",""0.917""]","[0,1,1,1]",0,56,56,56,1,0,0,,,0,FALSE,,,,,,,,,,,,,,,,,,,,,,,,,,,,,,
,600f71a80a45f0159a38cfe5,001,2022-04-28_20h14.38.322,classification_task,2021.2.3,Win32,59.93407252,600f71a80a45f0159a38cfe5,626b377229c10585ec392f8a,626b3b9fb7debd6e17e395a0,,,,,,,,,,,,,,,,,,,,,,,a,0,1.5823,"[""0.143"",""0.182"",""0.457"",""0.808""]","[1,0,1,1]",0,57,57,57,1,1,1,,,0,FALSE,,,,,,,,,,,,,,,,,,,,,,,,,,,,,,
,600f71a80a45f0159a38cfe5,001,2022-04-28_20h14.38.322,classification_task,2021.2.3,Win32,59.93407252,600f71a80a45f0159a38cfe5,626b377229c10585ec392f8a,626b3b9fb7debd6e17e395a0,,,,,,,,,,,,,,,,,,,,,,,a,0,2.066,"[""0.143"",""0.417"",""0.457"",""0.041""]","[1,1,1,0]",0,58,58,58,1,1,1,,,0,FALSE,,,,,,,,,,,,,,,,,,,,,,,,,,,,,,
,600f71a80a45f0159a38cfe5,001,2022-04-28_20h14.38.322,classification_task,2021.2.3,Win32,59.93407252,600f71a80a45f0159a38cfe5,626b377229c10585ec392f8a,626b3b9fb7debd6e17e395a0,,,,,,,,,,,,,,,,,,,,,,,l,1,0.8575,"[""0.101"",""0.342"",""0.182"",""0.721""]","[1,1,0,1]",0,59,59,59,1,1,0,,,0,FALSE,,,,,,,,,,,,,,,,,,,,,,,,,,,,,,
,600f71a80a45f0159a38cfe5,001,2022-04-28_20h14.38.322,classification_task,2021.2.3,Win32,59.93407252,600f71a80a45f0159a38cfe5,626b377229c10585ec392f8a,626b3b9fb7debd6e17e395a0,,,,,,,,,,,,,,,,,,,,,,,a,1,0.7699,"[""0.262"",""0.041"",""0.878"",""0.917""]","[1,0,1,1]",0,60,60,60,1,0,0,,,0,FALSE,,,,,,,,,,,,,,,,,,,,,,,,,,,,,,
,600f71a80a45f0159a38cfe5,001,2022-04-28_20h14.38.322,classification_task,2021.2.3,Win32,59.93407252,600f71a80a45f0159a38cfe5,626b377229c10585ec392f8a,626b3b9fb7debd6e17e395a0,,,,,,,,,,,,,,,,,,,,,,,l,1,0.747,"[""0.101"",""0.671"",""0.624"",""0.721""]","[1,0,1,1]",0,61,61,61,1,1,0,,,0,FALSE,,,,,,,,,,,,,,,,,,,,,,,,,,,,,,
,600f71a80a45f0159a38cfe5,001,2022-04-28_20h14.38.322,classification_task,2021.2.3,Win32,59.93407252,600f71a80a45f0159a38cfe5,626b377229c10585ec392f8a,626b3b9fb7debd6e17e395a0,,,,,,,,,,,,,,,,,,,,,,,a,0,1.4326,"[""0.297"",""0.417"",""0.457"",""0.808""]","[0,1,1,1]",0,62,62,62,1,1,1,,,0,FALSE,,,,,,,,,,,,,,,,,,,,,,,,,,,,,,
,600f71a80a45f0159a38cfe5,001,2022-04-28_20h14.38.322,classification_task,2021.2.3,Win32,59.93407252,600f71a80a45f0159a38cfe5,626b377229c10585ec392f8a,626b3b9fb7debd6e17e395a0,,,,,,,,,,,,,,,,,,,,,,,l,0,2.531,"[""0.217"",""0.493"",""0.658"",""0.960""]","[1,1,0,1]",0,63,63,63,1,0,1,,,0,FALSE,,,,,,,,,,,,,,,,,,,,,,,,,,,,,,
,600f71a80a45f0159a38cfe5,001,2022-04-28_20h14.38.322,classification_task,2021.2.3,Win32,59.93407252,600f71a80a45f0159a38cfe5,626b377229c10585ec392f8a,626b3b9fb7debd6e17e395a0,,,,,,,,,,,,,,,,,,,,,,,,,,,,,,,,,,,,,,,0, ,,0,0.866402116,165.0446,0,1,1,1,1,2,2,,,,,,,,,,,,,,,,,
,600f71a80a45f0159a38cfe5,001,2022-04-28_20h14.38.322,classification_task,2021.2.3,Win32,59.93407252,600f71a80a45f0159a38cfe5,626b377229c10585ec392f8a,626b3b9fb7debd6e17e395a0,,,,,,,,,,,,,,,,,,,,,,,,,,,,,,,,,,,,,,,1,  ,,0,4.173280423,169.7302,0,1,1,1,1,2,2,,,,,,,,,,,,,,,,,
,600f71a80a45f0159a38cfe5,001,2022-04-28_20h14.38.322,classification_task,2021.2.3,Win32,59.93407252,600f71a80a45f0159a38cfe5,626b377229c10585ec392f8a,626b3b9fb7debd6e17e395a0,,,,,,,,,,,,,,,,,,,,,,,,,,,,,,,,,,,,,,,2,  ,,0,9.925870811,172.057,0,1,1,1,1,2,2,,,,,,,,,,,,,,,,,
,600f71a80a45f0159a38cfe5,001,2022-04-28_20h14.38.322,classification_task,2021.2.3,Win32,59.93407252,600f71a80a45f0159a38cfe5,626b377229c10585ec392f8a,626b3b9fb7debd6e17e395a0,,,,,,,,,,,,,,,,,,,,,,,,,,,,,,,,,,,,,,,,,,,,,0,1,1,1,1,,2,,,,,,,,,,,,,,,,,
,600f71a80a45f0159a38cfe5,001,2022-04-28_20h14.38.322,classification_task,2021.2.3,Win32,59.93407252,600f71a80a45f0159a38cfe5,626b377229c10585ec392f8a,626b3b9fb7debd6e17e395a0,,,,,,,,,,,,,,,,,,,,,space,6.1542,a,1,1.15,"[""0.041"",""0.493"",""0.771"",""0.960""]","[0,1,1,1]",0,0,0,0,1,0,1,,,0,FALSE,,,,,,,,,,,,,,,,,,,,,,,,,,,,,,
,600f71a80a45f0159a38cfe5,001,2022-04-28_20h14.38.322,classification_task,2021.2.3,Win32,59.93407252,600f71a80a45f0159a38cfe5,626b377229c10585ec392f8a,626b3b9fb7debd6e17e395a0,,,,,,,,,,,,,,,,,,,,,,,l,1,0.8801,"[""0.143"",""0.297"",""0.457"",""0.808""]","[1,0,1,1]",0,1,1,1,1,1,1,,,0,FALSE,,,,,,,,,,,,,,,,,,,,,,,,,,,,,,
,600f71a80a45f0159a38cfe5,001,2022-04-28_20h14.38.322,classification_task,2021.2.3,Win32,59.93407252,600f71a80a45f0159a38cfe5,626b377229c10585ec392f8a,626b3b9fb7debd6e17e395a0,,,,,,,,,,,,,,,,,,,,,,,a,1,1.6477,"[""0.217"",""0.034"",""0.771"",""0.960""]","[1,0,1,1]",0,2,2,2,1,0,1,,,0,FALSE,,,,,,,,,,,,,,,,,,,,,,,,,,,,,,
,600f71a80a45f0159a38cfe5,001,2022-04-28_20h14.38.322,classification_task,2021.2.3,Win32,59.93407252,600f71a80a45f0159a38cfe5,626b377229c10585ec392f8a,626b3b9fb7debd6e17e395a0,,,,,,,,,,,,,,,,,,,,,,,l,0,2.2641,"[""0.670"",""0.554"",""0.878"",""0.917""]","[0,1,1,1]",0,3,3,3,1,0,0,,,0,FALSE,,,,,,,,,,,,,,,,,,,,,,,,,,,,,,
,600f71a80a45f0159a38cfe5,001,2022-04-28_20h14.38.322,classification_task,2021.2.3,Win32,59.93407252,600f71a80a45f0159a38cfe5,626b377229c10585ec392f8a,626b3b9fb7debd6e17e395a0,,,,,,,,,,,,,,,,,,,,,,,a,0,3.8723,"[""0.297"",""0.342"",""0.624"",""0.721""]","[0,1,1,1]",0,4,4,4,1,1,0,,,0,FALSE,,,,,,,,,,,,,,,,,,,,,,,,,,,,,,
,600f71a80a45f0159a38cfe5,001,2022-04-28_20h14.38.322,classification_task,2021.2.3,Win32,59.93407252,600f71a80a45f0159a38cfe5,626b377229c10585ec392f8a,626b3b9fb7debd6e17e395a0,,,,,,,,,,,,,,,,,,,,,,,a,1,2.0219,"[""0.262"",""0.554"",""0.878"",""0.182""]","[1,1,1,0]",0,5,5,5,1,0,0,,,0,FALSE,,,,,,,,,,,,,,,,,,,,,,,,,,,,,,
,600f71a80a45f0159a38cfe5,001,2022-04-28_20h14.38.322,classification_task,2021.2.3,Win32,59.93407252,600f71a80a45f0159a38cfe5,626b377229c10585ec392f8a,626b3b9fb7debd6e17e395a0,,,,,,,,,,,,,,,,,,,,,,,a,1,1.2054,"[""0.217"",""0.493"",""0.041"",""0.960""]","[1,1,0,1]",0,6,6,6,1,0,1,,,0,FALSE,,,,,,,,,,,,,,,,,,,,,,,,,,,,,,
,600f71a80a45f0159a38cfe5,001,2022-04-28_20h14.38.322,classification_task,2021.2.3,Win32,59.93407252,600f71a80a45f0159a38cfe5,626b377229c10585ec392f8a,626b3b9fb7debd6e17e395a0,,,,,,,,,,,,,,,,,,,,,,,l,1,1.2214,"[""0.661"",""0.417"",""0.457"",""0.808""]","[0,1,1,1]",0,7,7,7,1,1,1,,,0,FALSE,,,,,,,,,,,,,,,,,,,,,,,,,,,,,,
,600f71a80a45f0159a38cfe5,001,2022-04-28_20h14.38.322,classification_task,2021.2.3,Win32,59.93407252,600f71a80a45f0159a38cfe5,626b377229c10585ec392f8a,626b3b9fb7debd6e17e395a0,,,,,,,,,,,,,,,,,,,,,,,l,1,1.2634,"[""0.143"",""0.417"",""0.457"",""0.661""]","[1,1,1,0]",0,8,8,8,1,1,1,,,0,FALSE,,,,,,,,,,,,,,,,,,,,,,,,,,,,,,
,600f71a80a45f0159a38cfe5,001,2022-04-28_20h14.38.322,classification_task,2021.2.3,Win32,59.93407252,600f71a80a45f0159a38cfe5,626b377229c10585ec392f8a,626b3b9fb7debd6e17e395a0,,,,,,,,,,,,,,,,,,,,,,,a,1,0.7283,"[""0.262"",""0.554"",""0.297"",""0.917""]","[1,1,0,1]",0,9,9,9,1,0,0,,,0,FALSE,,,,,,,,,,,,,,,,,,,,,,,,,,,,,,
,600f71a80a45f0159a38cfe5,001,2022-04-28_20h14.38.322,classification_task,2021.2.3,Win32,59.93407252,600f71a80a45f0159a38cfe5,626b377229c10585ec392f8a,626b3b9fb7debd6e17e395a0,,,,,,,,,,,,,,,,,,,,,,,l,1,0.3906,"[""0.143"",""0.417"",""0.059"",""0.808""]","[1,1,0,1]",0,10,10,10,1,1,1,,,0,FALSE,,,,,,,,,,,,,,,,,,,,,,,,,,,,,,
,600f71a80a45f0159a38cfe5,001,2022-04-28_20h14.38.322,classification_task,2021.2.3,Win32,59.93407252,600f71a80a45f0159a38cfe5,626b377229c10585ec392f8a,626b3b9fb7debd6e17e395a0,,,,,,,,,,,,,,,,,,,,,,,l,1,0.8801,"[""0.101"",""0.680"",""0.624"",""0.721""]","[1,0,1,1]",0,11,11,11,1,1,0,,,0,FALSE,,,,,,,,,,,,,,,,,,,,,,,,,,,,,,
,600f71a80a45f0159a38cfe5,001,2022-04-28_20h14.38.322,classification_task,2021.2.3,Win32,59.93407252,600f71a80a45f0159a38cfe5,626b377229c10585ec392f8a,626b3b9fb7debd6e17e395a0,,,,,,,,,,,,,,,,,,,,,,,a,0,0.7647,"[""0.101"",""0.342"",""0.297"",""0.721""]","[1,1,0,1]",0,12,12,12,1,1,0,,,0,FALSE,,,,,,,,,,,,,,,,,,,,,,,,,,,,,,
,600f71a80a45f0159a38cfe5,001,2022-04-28_20h14.38.322,classification_task,2021.2.3,Win32,59.93407252,600f71a80a45f0159a38cfe5,626b377229c10585ec392f8a,626b3b9fb7debd6e17e395a0,,,,,,,,,,,,,,,,,,,,,,,a,1,1.1523,"[""0.262"",""0.059"",""0.878"",""0.917""]","[1,0,1,1]",0,13,13,13,1,0,0,,,0,FALSE,,,,,,,,,,,,,,,,,,,,,,,,,,,,,,
,600f71a80a45f0159a38cfe5,001,2022-04-28_20h14.38.322,classification_task,2021.2.3,Win32,59.93407252,600f71a80a45f0159a38cfe5,626b377229c10585ec392f8a,626b3b9fb7debd6e17e395a0,,,,,,,,,,,,,,,,,,,,,,,l,0,0.9566,"[""0.217"",""0.493"",""0.771"",""0.377""]","[1,1,1,0]",0,14,14,14,1,0,1,,,0,FALSE,,,,,,,,,,,,,,,,,,,,,,,,,,,,,,
,600f71a80a45f0159a38cfe5,001,2022-04-28_20h14.38.322,classification_task,2021.2.3,Win32,59.93407252,600f71a80a45f0159a38cfe5,626b377229c10585ec392f8a,626b3b9fb7debd6e17e395a0,,,,,,,,,,,,,,,,,,,,,,,l,1,1.0629,"[""0.101"",""0.342"",""0.624"",""0.680""]","[1,1,1,0]",0,15,15,15,1,1,0,,,0,FALSE,,,,,,,,,,,,,,,,,,,,,,,,,,,,,,
,600f71a80a45f0159a38cfe5,001,2022-04-28_20h14.38.322,classification_task,2021.2.3,Win32,59.93407252,600f71a80a45f0159a38cfe5,626b377229c10585ec392f8a,626b3b9fb7debd6e17e395a0,,,,,,,,,,,,,,,,,,,,,,,a,1,1.0713,"[""0.217"",""0.493"",""0.680"",""0.960""]","[1,1,0,1]",0,16,16,16,1,0,1,,,0,FALSE,,,,,,,,,,,,,,,,,,,,,,,,,,,,,,
,600f71a80a45f0159a38cfe5,001,2022-04-28_20h14.38.322,classification_task,2021.2.3,Win32,59.93407252,600f71a80a45f0159a38cfe5,626b377229c10585ec392f8a,626b3b9fb7debd6e17e395a0,,,,,,,,,,,,,,,,,,,,,,,a,0,1.0304,"[""0.143"",""0.182"",""0.457"",""0.808""]","[1,0,1,1]",0,17,17,17,1,1,1,,,0,FALSE,,,,,,,,,,,,,,,,,,,,,,,,,,,,,,
,600f71a80a45f0159a38cfe5,001,2022-04-28_20h14.38.322,classification_task,2021.2.3,Win32,59.93407252,600f71a80a45f0159a38cfe5,626b377229c10585ec392f8a,626b3b9fb7debd6e17e395a0,,,,,,,,,,,,,,,,,,,,,,,l,0,1.2011,"[""0.059"",""0.554"",""0.878"",""0.917""]","[0,1,1,1]",0,18,18,18,1,0,0,,,0,FALSE,,,,,,,,,,,,,,,,,,,,,,,,,,,,,,
,600f71a80a45f0159a38cfe5,001,2022-04-28_20h14.38.322,classification_task,2021.2.3,Win32,59.93407252,600f71a80a45f0159a38cfe5,626b377229c10585ec392f8a,626b3b9fb7debd6e17e395a0,,,,,,,,,,,,,,,,,,,,,,,a,1,1.1211,"[""0.182"",""0.493"",""0.771"",""0.960""]","[0,1,1,1]",0,19,19,19,1,0,1,,,0,FALSE,,,,,,,,,,,,,,,,,,,,,,,,,,,,,,
,600f71a80a45f0159a38cfe5,001,2022-04-28_20h14.38.322,classification_task,2021.2.3,Win32,59.93407252,600f71a80a45f0159a38cfe5,626b377229c10585ec392f8a,626b3b9fb7debd6e17e395a0,,,,,,,,,,,,,,,,,,,,,,,l,1,0.63,"[""0.101"",""0.342"",""0.673"",""0.721""]","[1,1,0,1]",0,20,20,20,1,1,0,,,0,FALSE,,,,,,,,,,,,,,,,,,,,,,,,,,,,,,
,600f71a80a45f0159a38cfe5,001,2022-04-28_20h14.38.322,classification_task,2021.2.3,Win32,59.93407252,600f71a80a45f0159a38cfe5,626b377229c10585ec392f8a,626b3b9fb7debd6e17e395a0,,,,,,,,,,,,,,,,,,,,,,,a,0,1.0179,"[""0.143"",""0.417"",""0.457"",""0.182""]","[1,1,1,0]",0,21,21,21,1,1,1,,,0,FALSE,,,,,,,,,,,,,,,,,,,,,,,,,,,,,,
,600f71a80a45f0159a38cfe5,001,2022-04-28_20h14.38.322,classification_task,2021.2.3,Win32,59.93407252,600f71a80a45f0159a38cfe5,626b377229c10585ec392f8a,626b3b9fb7debd6e17e395a0,,,,,,,,,,,,,,,,,,,,,,,a,0,1.0663,"[""0.673"",""0.417"",""0.457"",""0.808""]","[0,1,1,1]",0,22,22,22,1,1,1,,,0,FALSE,,,,,,,,,,,,,,,,,,,,,,,,,,,,,,
,600f71a80a45f0159a38cfe5,001,2022-04-28_20h14.38.322,classification_task,2021.2.3,Win32,59.93407252,600f71a80a45f0159a38cfe5,626b377229c10585ec392f8a,626b3b9fb7debd6e17e395a0,,,,,,,,,,,,,,,,,,,,,,,l,0,1.0624,"[""0.217"",""0.493"",""0.771"",""0.673""]","[1,1,1,0]",0,23,23,23,1,0,1,,,0,FALSE,,,,,,,,,,,,,,,,,,,,,,,,,,,,,,
,600f71a80a45f0159a38cfe5,001,2022-04-28_20h14.38.322,classification_task,2021.2.3,Win32,59.93407252,600f71a80a45f0159a38cfe5,626b377229c10585ec392f8a,626b3b9fb7debd6e17e395a0,,,,,,,,,,,,,,,,,,,,,,,l,1,1.5404,"[""0.101"",""0.671"",""0.624"",""0.721""]","[1,0,1,1]",0,24,24,24,1,1,0,,,0,FALSE,,,,,,,,,,,,,,,,,,,,,,,,,,,,,,
,600f71a80a45f0159a38cfe5,001,2022-04-28_20h14.38.322,classification_task,2021.2.3,Win32,59.93407252,600f71a80a45f0159a38cfe5,626b377229c10585ec392f8a,626b3b9fb7debd6e17e395a0,,,,,,,,,,,,,,,,,,,,,,,a,1,1.1504,"[""0.217"",""0.842"",""0.771"",""0.960""]","[1,0,1,1]",0,25,25,25,1,0,1,,,0,FALSE,,,,,,,,,,,,,,,,,,,,,,,,,,,,,,
,600f71a80a45f0159a38cfe5,001,2022-04-28_20h14.38.322,classification_task,2021.2.3,Win32,59.93407252,600f71a80a45f0159a38cfe5,626b377229c10585ec392f8a,626b3b9fb7debd6e17e395a0,,,,,,,,,,,,,,,,,,,,,,,l,0,1.3845,"[""0.262"",""0.554"",""0.878"",""0.680""]","[1,1,1,0]",0,26,26,26,1,0,0,,,0,FALSE,,,,,,,,,,,,,,,,,,,,,,,,,,,,,,
,600f71a80a45f0159a38cfe5,001,2022-04-28_20h14.38.322,classification_task,2021.2.3,Win32,59.93407252,600f71a80a45f0159a38cfe5,626b377229c10585ec392f8a,626b3b9fb7debd6e17e395a0,,,,,,,,,,,,,,,,,,,,,,,a,0,0.5539,"[""0.143"",""0.417"",""0.034"",""0.808""]","[1,1,0,1]",0,27,27,27,1,1,1,,,0,FALSE,,,,,,,,,,,,,,,,,,,,,,,,,,,,,,
,600f71a80a45f0159a38cfe5,001,2022-04-28_20h14.38.322,classification_task,2021.2.3,Win32,59.93407252,600f71a80a45f0159a38cfe5,626b377229c10585ec392f8a,626b3b9fb7debd6e17e395a0,,,,,,,,,,,,,,,,,,,,,,,a,1,0.5127,"[""0.262"",""0.554"",""0.661"",""0.917""]","[1,1,0,1]",0,28,28,28,1,0,0,,,0,FALSE,,,,,,,,,,,,,,,,,,,,,,,,,,,,,,
,600f71a80a45f0159a38cfe5,001,2022-04-28_20h14.38.322,classification_task,2021.2.3,Win32,59.93407252,600f71a80a45f0159a38cfe5,626b377229c10585ec392f8a,626b3b9fb7debd6e17e395a0,,,,,,,,,,,,,,,,,,,,,,,a,0,0.2324,"[""0.101"",""0.342"",""0.624"",""0.034""]","[1,1,1,0]",0,29,29,29,1,1,0,,,0,FALSE,,,,,,,,,,,,,,,,,,,,,,,,,,,,,,
,600f71a80a45f0159a38cfe5,001,2022-04-28_20h14.38.322,classification_task,2021.2.3,Win32,59.93407252,600f71a80a45f0159a38cfe5,626b377229c10585ec392f8a,626b3b9fb7debd6e17e395a0,,,,,,,,,,,,,,,,,,,,,,,l,0,0.4479,"[""0.262"",""0.377"",""0.878"",""0.917""]","[1,0,1,1]",0,30,30,30,1,0,0,,,0,FALSE,,,,,,,,,,,,,,,,,,,,,,,,,,,,,,
,600f71a80a45f0159a38cfe5,001,2022-04-28_20h14.38.322,classification_task,2021.2.3,Win32,59.93407252,600f71a80a45f0159a38cfe5,626b377229c10585ec392f8a,626b3b9fb7debd6e17e395a0,,,,,,,,,,,,,,,,,,,,,,,a,0,1.1995,"[""0.377"",""0.342"",""0.624"",""0.721""]","[0,1,1,1]",0,31,31,31,1,1,0,,,0,FALSE,,,,,,,,,,,,,,,,,,,,,,,,,,,,,,
,600f71a80a45f0159a38cfe5,001,2022-04-28_20h14.38.322,classification_task,2021.2.3,Win32,59.93407252,600f71a80a45f0159a38cfe5,626b377229c10585ec392f8a,626b3b9fb7debd6e17e395a0,,,,,,,,,,,,,,,,,,,,,,,a,0,0.8156,"[""0.143"",""0.673"",""0.457"",""0.808""]","[1,0,1,1]",0,32,32,32,1,1,1,,,0,FALSE,,,,,,,,,,,,,,,,,,,,,,,,,,,,,,
,600f71a80a45f0159a38cfe5,001,2022-04-28_20h14.38.322,classification_task,2021.2.3,Win32,59.93407252,600f71a80a45f0159a38cfe5,626b377229c10585ec392f8a,626b3b9fb7debd6e17e395a0,,,,,,,,,,,,,,,,,,,,,,,l,1,0.6665,"[""0.101"",""0.342"",""0.624"",""0.680""]","[1,1,1,0]",0,33,33,33,1,1,0,,,0,FALSE,,,,,,,,,,,,,,,,,,,,,,,,,,,,,,
,600f71a80a45f0159a38cfe5,001,2022-04-28_20h14.38.322,classification_task,2021.2.3,Win32,59.93407252,600f71a80a45f0159a38cfe5,626b377229c10585ec392f8a,626b3b9fb7debd6e17e395a0,,,,,,,,,,,,,,,,,,,,,,,l,1,0.7147,"[""0.101"",""0.680"",""0.624"",""0.721""]","[1,0,1,1]",0,34,34,34,1,1,0,,,0,FALSE,,,,,,,,,,,,,,,,,,,,,,,,,,,,,,
,600f71a80a45f0159a38cfe5,001,2022-04-28_20h14.38.322,classification_task,2021.2.3,Win32,59.93407252,600f71a80a45f0159a38cfe5,626b377229c10585ec392f8a,626b3b9fb7debd6e17e395a0,,,,,,,,,,,,,,,,,,,,,,,l,1,0.5832,"[""0.101"",""0.342"",""0.658"",""0.721""]","[1,1,0,1]",0,35,35,35,1,1,0,,,0,FALSE,,,,,,,,,,,,,,,,,,,,,,,,,,,,,,
,600f71a80a45f0159a38cfe5,001,2022-04-28_20h14.38.322,classification_task,2021.2.3,Win32,59.93407252,600f71a80a45f0159a38cfe5,626b377229c10585ec392f8a,626b3b9fb7debd6e17e395a0,,,,,,,,,,,,,,,,,,,,,,,a,1,0.7496,"[""0.262"",""0.554"",""0.878"",""0.670""]","[1,1,1,0]",0,36,36,36,1,0,0,,,0,FALSE,,,,,,,,,,,,,,,,,,,,,,,,,,,,,,
,600f71a80a45f0159a38cfe5,001,2022-04-28_20h14.38.322,classification_task,2021.2.3,Win32,59.93407252,600f71a80a45f0159a38cfe5,626b377229c10585ec392f8a,626b3b9fb7debd6e17e395a0,,,,,,,,,,,,,,,,,,,,,,,l,0,0.8066,"[""0.262"",""0.039"",""0.878"",""0.917""]","[1,0,1,1]",0,37,37,37,1,0,0,,,0,FALSE,,,,,,,,,,,,,,,,,,,,,,,,,,,,,,
,600f71a80a45f0159a38cfe5,001,2022-04-28_20h14.38.322,classification_task,2021.2.3,Win32,59.93407252,600f71a80a45f0159a38cfe5,626b377229c10585ec392f8a,626b3b9fb7debd6e17e395a0,,,,,,,,,,,,,,,,,,,,,,,a,0,0.533,"[""0.658"",""0.342"",""0.624"",""0.721""]","[0,1,1,1]",0,38,38,38,1,1,0,,,0,FALSE,,,,,,,,,,,,,,,,,,,,,,,,,,,,,,
,600f71a80a45f0159a38cfe5,001,2022-04-28_20h14.38.322,classification_task,2021.2.3,Win32,59.93407252,600f71a80a45f0159a38cfe5,626b377229c10585ec392f8a,626b3b9fb7debd6e17e395a0,,,,,,,,,,,,,,,,,,,,,,,l,0,0.5816,"[""0.262"",""0.554"",""0.297"",""0.917""]","[1,1,0,1]",0,39,39,39,1,0,0,,,0,FALSE,,,,,,,,,,,,,,,,,,,,,,,,,,,,,,
,600f71a80a45f0159a38cfe5,001,2022-04-28_20h14.38.322,classification_task,2021.2.3,Win32,59.93407252,600f71a80a45f0159a38cfe5,626b377229c10585ec392f8a,626b3b9fb7debd6e17e395a0,,,,,,,,,,,,,,,,,,,,,,,a,0,1.5888,"[""0.143"",""0.417"",""0.457"",""0.377""]","[1,1,1,0]",0,40,40,40,1,1,1,,,0,FALSE,,,,,,,,,,,,,,,,,,,,,,,,,,,,,,
,600f71a80a45f0159a38cfe5,001,2022-04-28_20h14.38.322,classification_task,2021.2.3,Win32,59.93407252,600f71a80a45f0159a38cfe5,626b377229c10585ec392f8a,626b3b9fb7debd6e17e395a0,,,,,,,,,,,,,,,,,,,,,,,l,0,0.8488,"[""0.217"",""0.493"",""0.771"",""0.039""]","[1,1,1,0]",0,41,41,41,1,0,1,,,0,FALSE,,,,,,,,,,,,,,,,,,,,,,,,,,,,,,
,600f71a80a45f0159a38cfe5,001,2022-04-28_20h14.38.322,classification_task,2021.2.3,Win32,59.93407252,600f71a80a45f0159a38cfe5,626b377229c10585ec392f8a,626b3b9fb7debd6e17e395a0,,,,,,,,,,,,,,,,,,,,,,,a,1,0.6309,"[""0.217"",""0.493"",""0.182"",""0.960""]","[1,1,0,1]",0,42,42,42,1,0,1,,,0,FALSE,,,,,,,,,,,,,,,,,,,,,,,,,,,,,,
,600f71a80a45f0159a38cfe5,001,2022-04-28_20h14.38.322,classification_task,2021.2.3,Win32,59.93407252,600f71a80a45f0159a38cfe5,626b377229c10585ec392f8a,626b3b9fb7debd6e17e395a0,,,,,,,,,,,,,,,,,,,,,,,a,0,0.6646,"[""0.143"",""0.417"",""0.182"",""0.808""]","[1,1,0,1]",0,43,43,43,1,1,1,,,0,FALSE,,,,,,,,,,,,,,,,,,,,,,,,,,,,,,
,600f71a80a45f0159a38cfe5,001,2022-04-28_20h14.38.322,classification_task,2021.2.3,Win32,59.93407252,600f71a80a45f0159a38cfe5,626b377229c10585ec392f8a,626b3b9fb7debd6e17e395a0,,,,,,,,,,,,,,,,,,,,,,,l,0,1.0648,"[""0.377"",""0.493"",""0.771"",""0.960""]","[0,1,1,1]",0,44,44,44,1,0,1,,,0,FALSE,,,,,,,,,,,,,,,,,,,,,,,,,,,,,,
,600f71a80a45f0159a38cfe5,001,2022-04-28_20h14.38.322,classification_task,2021.2.3,Win32,59.93407252,600f71a80a45f0159a38cfe5,626b377229c10585ec392f8a,626b3b9fb7debd6e17e395a0,,,,,,,,,,,,,,,,,,,,,,,l,0,5.1969,"[""0.182"",""0.554"",""0.878"",""0.917""]","[0,1,1,1]",0,45,45,45,1,0,0,,,0,FALSE,,,,,,,,,,,,,,,,,,,,,,,,,,,,,,
,600f71a80a45f0159a38cfe5,001,2022-04-28_20h14.38.322,classification_task,2021.2.3,Win32,59.93407252,600f71a80a45f0159a38cfe5,626b377229c10585ec392f8a,626b3b9fb7debd6e17e395a0,,,,,,,,,,,,,,,,,,,,,,,a,1,0.9925,"[""0.217"",""0.034"",""0.771"",""0.960""]","[1,0,1,1]",0,46,46,46,1,0,1,,,0,FALSE,,,,,,,,,,,,,,,,,,,,,,,,,,,,,,
,600f71a80a45f0159a38cfe5,001,2022-04-28_20h14.38.322,classification_task,2021.2.3,Win32,59.93407252,600f71a80a45f0159a38cfe5,626b377229c10585ec392f8a,626b3b9fb7debd6e17e395a0,,,,,,,,,,,,,,,,,,,,,,,a,0,1.2316,"[""0.671"",""0.417"",""0.457"",""0.808""]","[0,1,1,1]",0,47,47,47,1,1,1,,,0,FALSE,,,,,,,,,,,,,,,,,,,,,,,,,,,,,,
,600f71a80a45f0159a38cfe5,001,2022-04-28_20h14.38.322,classification_task,2021.2.3,Win32,59.93407252,600f71a80a45f0159a38cfe5,626b377229c10585ec392f8a,626b3b9fb7debd6e17e395a0,,,,,,,,,,,,,,,,,,,,,,,l,0,0.8171,"[""0.059"",""0.493"",""0.771"",""0.960""]","[0,1,1,1]",0,48,48,48,1,0,1,,,0,FALSE,,,,,,,,,,,,,,,,,,,,,,,,,,,,,,
,600f71a80a45f0159a38cfe5,001,2022-04-28_20h14.38.322,classification_task,2021.2.3,Win32,59.93407252,600f71a80a45f0159a38cfe5,626b377229c10585ec392f8a,626b3b9fb7debd6e17e395a0,,,,,,,,,,,,,,,,,,,,,,,l,0,1.1637,"[""0.217"",""0.493"",""0.771"",""0.297""]","[1,1,1,0]",0,49,49,49,1,0,1,,,0,FALSE,,,,,,,,,,,,,,,,,,,,,,,,,,,,,,
,600f71a80a45f0159a38cfe5,001,2022-04-28_20h14.38.322,classification_task,2021.2.3,Win32,59.93407252,600f71a80a45f0159a38cfe5,626b377229c10585ec392f8a,626b3b9fb7debd6e17e395a0,,,,,,,,,,,,,,,,,,,,,,,a,1,2.7471,"[""0.673"",""0.554"",""0.878"",""0.917""]","[0,1,1,1]",0,50,50,50,1,0,0,,,0,FALSE,,,,,,,,,,,,,,,,,,,,,,,,,,,,,,
,600f71a80a45f0159a38cfe5,001,2022-04-28_20h14.38.322,classification_task,2021.2.3,Win32,59.93407252,600f71a80a45f0159a38cfe5,626b377229c10585ec392f8a,626b3b9fb7debd6e17e395a0,,,,,,,,,,,,,,,,,,,,,,,l,1,0.7403,"[""0.101"",""0.342"",""0.624"",""0.377""]","[1,1,1,0]",0,51,51,51,1,1,0,,,0,FALSE,,,,,,,,,,,,,,,,,,,,,,,,,,,,,,
,600f71a80a45f0159a38cfe5,001,2022-04-28_20h14.38.322,classification_task,2021.2.3,Win32,59.93407252,600f71a80a45f0159a38cfe5,626b377229c10585ec392f8a,626b3b9fb7debd6e17e395a0,,,,,,,,,,,,,,,,,,,,,,,a,0,1.1543,"[""0.143"",""0.417"",""0.059"",""0.808""]","[1,1,0,1]",0,52,52,52,1,1,1,,,0,FALSE,,,,,,,,,,,,,,,,,,,,,,,,,,,,,,
,600f71a80a45f0159a38cfe5,001,2022-04-28_20h14.38.322,classification_task,2021.2.3,Win32,59.93407252,600f71a80a45f0159a38cfe5,626b377229c10585ec392f8a,626b3b9fb7debd6e17e395a0,,,,,,,,,,,,,,,,,,,,,,,a,1,1.1017,"[""0.217"",""0.493"",""0.670"",""0.960""]","[1,1,0,1]",0,53,53,53,1,0,1,,,0,FALSE,,,,,,,,,,,,,,,,,,,,,,,,,,,,,,
,600f71a80a45f0159a38cfe5,001,2022-04-28_20h14.38.322,classification_task,2021.2.3,Win32,59.93407252,600f71a80a45f0159a38cfe5,626b377229c10585ec392f8a,626b3b9fb7debd6e17e395a0,,,,,,,,,,,,,,,,,,,,,,,a,0,0.4828,"[""0.101"",""0.182"",""0.624"",""0.721""]","[1,0,1,1]",0,54,54,54,1,1,0,,,0,FALSE,,,,,,,,,,,,,,,,,,,,,,,,,,,,,,
,600f71a80a45f0159a38cfe5,001,2022-04-28_20h14.38.322,classification_task,2021.2.3,Win32,59.93407252,600f71a80a45f0159a38cfe5,626b377229c10585ec392f8a,626b3b9fb7debd6e17e395a0,,,,,,,,,,,,,,,,,,,,,,,a,0,0.9145,"[""0.143"",""0.297"",""0.457"",""0.808""]","[1,0,1,1]",0,55,55,55,1,1,1,,,0,FALSE,,,,,,,,,,,,,,,,,,,,,,,,,,,,,,
,600f71a80a45f0159a38cfe5,001,2022-04-28_20h14.38.322,classification_task,2021.2.3,Win32,59.93407252,600f71a80a45f0159a38cfe5,626b377229c10585ec392f8a,626b3b9fb7debd6e17e395a0,,,,,,,,,,,,,,,,,,,,,,,l,0,0.8146,"[""0.262"",""0.554"",""0.297"",""0.917""]","[1,1,0,1]",0,56,56,56,1,0,0,,,0,FALSE,,,,,,,,,,,,,,,,,,,,,,,,,,,,,,
,600f71a80a45f0159a38cfe5,001,2022-04-28_20h14.38.322,classification_task,2021.2.3,Win32,59.93407252,600f71a80a45f0159a38cfe5,626b377229c10585ec392f8a,626b3b9fb7debd6e17e395a0,,,,,,,,,,,,,,,,,,,,,,,a,0,1.1046,"[""0.673"",""0.342"",""0.624"",""0.721""]","[0,1,1,1]",0,57,57,57,1,1,0,,,0,FALSE,,,,,,,,,,,,,,,,,,,,,,,,,,,,,,
,600f71a80a45f0159a38cfe5,001,2022-04-28_20h14.38.322,classification_task,2021.2.3,Win32,59.93407252,600f71a80a45f0159a38cfe5,626b377229c10585ec392f8a,626b3b9fb7debd6e17e395a0,,,,,,,,,,,,,,,,,,,,,,,l,1,0.4647,"[""0.101"",""0.342"",""0.673"",""0.721""]","[1,1,0,1]",0,58,58,58,1,1,0,,,0,FALSE,,,,,,,,,,,,,,,,,,,,,,,,,,,,,,
,600f71a80a45f0159a38cfe5,001,2022-04-28_20h14.38.322,classification_task,2021.2.3,Win32,59.93407252,600f71a80a45f0159a38cfe5,626b377229c10585ec392f8a,626b3b9fb7debd6e17e395a0,,,,,,,,,,,,,,,,,,,,,,,l,0,0.773,"[""0.217"",""0.661"",""0.771"",""0.960""]","[1,0,1,1]",0,59,59,59,1,0,1,,,0,FALSE,,,,,,,,,,,,,,,,,,,,,,,,,,,,,,
,600f71a80a45f0159a38cfe5,001,2022-04-28_20h14.38.322,classification_task,2021.2.3,Win32,59.93407252,600f71a80a45f0159a38cfe5,626b377229c10585ec392f8a,626b3b9fb7debd6e17e395a0,,,,,,,,,,,,,,,,,,,,,,,a,1,0.3998,"[""0.262"",""0.554"",""0.878"",""0.377""]","[1,1,1,0]",0,60,60,60,1,0,0,,,0,FALSE,,,,,,,,,,,,,,,,,,,,,,,,,,,,,,
,600f71a80a45f0159a38cfe5,001,2022-04-28_20h14.38.322,classification_task,2021.2.3,Win32,59.93407252,600f71a80a45f0159a38cfe5,626b377229c10585ec392f8a,626b3b9fb7debd6e17e395a0,,,,,,,,,,,,,,,,,,,,,,,l,1,0.5357,"[""0.671"",""0.417"",""0.457"",""0.808""]","[0,1,1,1]",0,61,61,61,1,1,1,,,0,FALSE,,,,,,,,,,,,,,,,,,,,,,,,,,,,,,
,600f71a80a45f0159a38cfe5,001,2022-04-28_20h14.38.322,classification_task,2021.2.3,Win32,59.93407252,600f71a80a45f0159a38cfe5,626b377229c10585ec392f8a,626b3b9fb7debd6e17e395a0,,,,,,,,,,,,,,,,,,,,,,,l,1,0.4663,"[""0.143"",""0.417"",""0.457"",""0.673""]","[1,1,1,0]",0,62,62,62,1,1,1,,,0,FALSE,,,,,,,,,,,,,,,,,,,,,,,,,,,,,,
,600f71a80a45f0159a38cfe5,001,2022-04-28_20h14.38.322,classification_task,2021.2.3,Win32,59.93407252,600f71a80a45f0159a38cfe5,626b377229c10585ec392f8a,626b3b9fb7debd6e17e395a0,,,,,,,,,,,,,,,,,,,,,,,a,1,0.5513,"[""0.262"",""0.039"",""0.878"",""0.917""]","[1,0,1,1]",0,63,63,63,1,0,0,,,0,FALSE,,,,,,,,,,,,,,,,,,,,,,,,,,,,,,
,600f71a80a45f0159a38cfe5,001,2022-04-28_20h14.38.322,classification_task,2021.2.3,Win32,59.93407252,600f71a80a45f0159a38cfe5,626b377229c10585ec392f8a,626b3b9fb7debd6e17e395a0,,,,,,,,,,,,,,,,,,,,,,,,,,,,,,,,,,,,,,,0, ,,0,3.415454145,149.5599,0,2,2,2,1,2,3,,,,,,,,,,,,,,,,,
,600f71a80a45f0159a38cfe5,001,2022-04-28_20h14.38.322,classification_task,2021.2.3,Win32,59.93407252,600f71a80a45f0159a38cfe5,626b377229c10585ec392f8a,626b3b9fb7debd6e17e395a0,,,,,,,,,,,,,,,,,,,,,,,,,,,,,,,,,,,,,,,1,  ,,0,7.549052028,146.842,0,2,2,2,1,2,3,,,,,,,,,,,,,,,,,
,600f71a80a45f0159a38cfe5,001,2022-04-28_20h14.38.322,classification_task,2021.2.3,Win32,59.93407252,600f71a80a45f0159a38cfe5,626b377229c10585ec392f8a,626b3b9fb7debd6e17e395a0,,,,,,,,,,,,,,,,,,,,,,,,,,,,,,,,,,,,,,,2,  ,,0,10,143.045,0,2,2,2,1,2,3,,,,,,,,,,,,,,,,,
,600f71a80a45f0159a38cfe5,001,2022-04-28_20h14.38.322,classification_task,2021.2.3,Win32,59.93407252,600f71a80a45f0159a38cfe5,626b377229c10585ec392f8a,626b3b9fb7debd6e17e395a0,,,,,,,,,,,,,,,,,,,,,,,,,,,,,,,,,,,,,,,,,,,,,0,2,2,2,1,,3,,,,,,,,,,,,,,,,,
,600f71a80a45f0159a38cfe5,001,2022-04-28_20h14.38.322,classification_task,2021.2.3,Win32,59.93407252,600f71a80a45f0159a38cfe5,626b377229c10585ec392f8a,626b3b9fb7debd6e17e395a0,,,,,,,,,,,,,,,,,,,,,,,,,,,,,,,,,,,,,,,,,,,,,,,,,,,,,I believe the aid is a competent performer,,0.7,0,3,904.2526,0,0,0,0,1,0,,,,
,600f71a80a45f0159a38cfe5,001,2022-04-28_20h14.38.322,classification_task,2021.2.3,Win32,59.93407252,600f71a80a45f0159a38cfe5,626b377229c10585ec392f8a,626b3b9fb7debd6e17e395a0,,,,,,,,,,,,,,,,,,,,,,,,,,,,,,,,,,,,,,,,,,,,,,,,,,,,,I trust the aid,,0.7,0,4,906.0256,0,0,0,0,1,0,,,,
,600f71a80a45f0159a38cfe5,001,2022-04-28_20h14.38.322,classification_task,2021.2.3,Win32,59.93407252,600f71a80a45f0159a38cfe5,626b377229c10585ec392f8a,626b3b9fb7debd6e17e395a0,,,,,,,,,,,,,,,,,,,,,,,,,,,,,,,,,,,,,,,,,,,,,,,,,,,,,I have confidence in the advice given by the aid,,0.7,0,3,910.1128,0,0,0,0,1,0,,,,
,600f71a80a45f0159a38cfe5,001,2022-04-28_20h14.38.322,classification_task,2021.2.3,Win32,59.93407252,600f71a80a45f0159a38cfe5,626b377229c10585ec392f8a,626b3b9fb7debd6e17e395a0,,,,,,,,,,,,,,,,,,,,,,,,,,,,,,,,,,,,,,,,,,,,,,,,,,,,,I can depend on the aid,,0.7,0,4,912.0627,0,0,0,0,1,0,,,,
,600f71a80a45f0159a38cfe5,001,2022-04-28_20h14.38.322,classification_task,2021.2.3,Win32,59.93407252,600f71a80a45f0159a38cfe5,626b377229c10585ec392f8a,626b3b9fb7debd6e17e395a0,,,,,,,,,,,,,,,,,,,,,,,,,,,,,,,,,,,,,,,,,,,,,,,,,,,,,I can rely on the aid to behave in consistent ways,,0.7,0,4,915.1476,0,0,0,0,1,0,,,,
,600f71a80a45f0159a38cfe5,001,2022-04-28_20h14.38.322,classification_task,2021.2.3,Win32,59.93407252,600f71a80a45f0159a38cfe5,626b377229c10585ec392f8a,626b3b9fb7debd6e17e395a0,,,,,,,,,,,,,,,,,,,,,,,,,,,,,,,,,,,,,,,,,,,,,,,,,,,,,I can rely on the aid to do its best every time I take its advice,,0.7,0,3,918.9543,0,0,0,0,1,0,,,,
,600f71a80a45f0159a38cfe5,001,2022-04-28_20h14.38.322,classification_task,2021.2.3,Win32,59.93407252,600f71a80a45f0159a38cfe5,626b377229c10585ec392f8a,626b3b9fb7debd6e17e395a0,,,,,,,,,,,,,,,,,,,,,,,,,,,,,,,,,,,,,,,,,,,,,,,,,,,,,"On trials you completed with assistance from the aid, how frequently did you think the aid was correct?",,0.7,0,80%,,0,0,0,0,1,0,,,,
,600f71a80a45f0159a38cfe5,001,2022-04-28_20h14.38.322,classification_task,2021.2.3,Win32,59.93407252,600f71a80a45f0159a38cfe5,626b377229c10585ec392f8a,626b3b9fb7debd6e17e395a0,,,,,,,,,,,,,,,,,,,,,,,,,,,,,,,,,,,,,,,,,,,,,,,,,,,,,"On trials you completed without the aid, how frequently did you think you were correct?",,0.7,0,30%,,0,0,0,0,1,0,,,,
,600f71a80a45f0159a38cfe5,001,2022-04-28_20h14.38.322,classification_task,2021.2.3,Win32,59.93407252,600f71a80a45f0159a38cfe5,626b377229c10585ec392f8a,626b3b9fb7debd6e17e395a0,,,,,,,,,,,,,,,,,,,,,,,,,,,,,,,,,,,,,,,,,,,,,,,,,,,,,,,,,,,0,0,0,0,1,,,,,
,600f71a80a45f0159a38cfe5,001,2022-04-28_20h14.38.322,classification_task,2021.2.3,Win32,59.93407252,600f71a80a45f0159a38cfe5,626b377229c10585ec392f8a,626b3b9fb7debd6e17e395a0,,,,,,,,,,,,,,,,,,,,,,,,,,,,,,,,,,,,,,,,,,,,,,,,,,,,,,,,,,,,,,,,,space,13.9904,951.7871,
,600f71a80a45f0159a38cfe5,001,2022-04-28_20h14.38.322,classification_task,2021.2.3,Win32,59.93407252,600f71a80a45f0159a38cfe5,626b377229c10585ec392f8a,626b3b9fb7debd6e17e395a0,,,,,,,,,,,,,,,,,,,,,,,,,,,,,,,,,,,,,,,,,,,,,,,,,,,,,,,,,,,,,,,,,,,,"Mozilla/5.0 (Windows NT 10.0; Win64; x64) AppleWebKit/537.36 (KHTML, like Gecko) Chrome/100.0.4896.127 Safari/537.36"
