usingWebGL,participant,session,date,expName,psychopyVersion,OS,frameRate,PROLIFIC_PID,STUDY_ID,SESSION_ID,signatures_friend,signatures_foe,band_ranges_top,band_ranges_bottom,formitemText,formtype,formundefined,formitemWidth,formindex,formresponse,formrt,key_resp_2.keys,key_resp_2.rt,tute_resp.keys,tute_resp.rt,tutorial.thisRepN,tutorial.thisTrialN,tutorial.thisN,tutorial.thisIndex,tutorial.ran,key_resp_4.keys,key_resp_4.rt,key_resp.keys,key_resp.corr,key_resp.rt,lines_presented,is_signal_presented,trials.thisRepN,trials.thisTrialN,trials.thisN,trials.thisIndex,trials.ran,vessel,active_band,lines,is_signal,supported_pos,catch_trial,debrief_formindex,debrief_formitemText,debrief_formtype,debrief_formitemWidth,debrief_formresponse,debrief_formrt,phases.thisRepN,phases.thisTrialN,phases.thisN,phases.thisIndex,phases.ran,phases.order,phase,key_resp_3.keys,trustitemText,trusttype,trustitemWidth,trustindex,trustresponse,trustrt,support_status.thisRepN,support_status.thisTrialN,support_status.thisN,support_status.thisIndex,support_status.ran,support_status.order,key_resp_5.keys,key_resp_5.rt,globalClockTime,userAgent
TRUE,6015e35e090d3e73fe032443,001,2022-04-29_03h09.55.226,classification_task,2021.2.3,Win32,60.72751564,6015e35e090d3e73fe032443,626b377229c10585ec392f89,626b3a930cf54eb8b1304e51,,,,,,,,,,,,,,,,,,,,,,,,,,,,,,,,,,,,,,,,,,,,,,,,,,,,,,,,,,,,,,,,,,,,
,6015e35e090d3e73fe032443,001,2022-04-29_03h09.55.226,classification_task,2021.2.3,Win32,60.72751564,6015e35e090d3e73fe032443,626b377229c10585ec392f89,626b3a930cf54eb8b1304e51,"[[""0.195"",""0.521"",""0.881"",""0.956""],[""0.318"",""0.370"",""0.621"",""0.917""]]","[[""0.080"",""0.253"",""0.585"",""0.748""],[""0.126"",""0.418"",""0.665"",""0.826""]]","[1,10]","[100,1000]",Video game experience,,,0.7,0,,,,,,,,,,,,,,,,,,,,,,,,,,,,,,,,,,,,,,,,,,,,,,,,,,,,,,,,,,,
,6015e35e090d3e73fe032443,001,2022-04-29_03h09.55.226,classification_task,2021.2.3,Win32,60.72751564,6015e35e090d3e73fe032443,626b377229c10585ec392f89,626b3a930cf54eb8b1304e51,,,,,Approximately how many hours did you spend playing video games in the last week?,,,0.7,0,12,,,,,,,,,,,,,,,,,,,,,,,,,,,,,,,,,,,,,,,,,,,,,,,,,,,,,,,,,,
,6015e35e090d3e73fe032443,001,2022-04-29_03h09.55.226,classification_task,2021.2.3,Win32,60.72751564,6015e35e090d3e73fe032443,626b377229c10585ec392f89,626b3a930cf54eb8b1304e51,,,,,"Which game did you play the most this year? (Enter ""None"" if you didn't play any)",,,0.7,0,Fifa 22,,,,,,,,,,,,,,,,,,,,,,,,,,,,,,,,,,,,,,,,,,,,,,,,,,,,,,,,,,
,6015e35e090d3e73fe032443,001,2022-04-29_03h09.55.226,classification_task,2021.2.3,Win32,60.72751564,6015e35e090d3e73fe032443,626b377229c10585ec392f89,626b3a930cf54eb8b1304e51,,,,,Visual perception,,,0.7,0,,,,,,,,,,,,,,,,,,,,,,,,,,,,,,,,,,,,,,,,,,,,,,,,,,,,,,,,,,,
,6015e35e090d3e73fe032443,001,2022-04-29_03h09.55.226,classification_task,2021.2.3,Win32,60.72751564,6015e35e090d3e73fe032443,626b377229c10585ec392f89,626b3a930cf54eb8b1304e51,,,,,Do you have any form of color blindness?,,,0.7,0,No,18.4756,,,,,,,,,,,,,,,,,,,,,,,,,,,,,,,,,,,,,,,,,,,,,,,,,,,,,,,,,
,6015e35e090d3e73fe032443,001,2022-04-29_03h09.55.226,classification_task,2021.2.3,Win32,60.72751564,6015e35e090d3e73fe032443,626b377229c10585ec392f89,626b3a930cf54eb8b1304e51,,,,,Do you use software to change the colour temperature of your screen (e.g. f.lux)?,,,0.7,0,No,31.7349,,,,,,,,,,,,,,,,,,,,,,,,,,,,,,,,,,,,,,,,,,,,,,,,,,,,,,,,,
,6015e35e090d3e73fe032443,001,2022-04-29_03h09.55.226,classification_task,2021.2.3,Win32,60.72751564,6015e35e090d3e73fe032443,626b377229c10585ec392f89,626b3a930cf54eb8b1304e51,,,,,,,,,,,,space,16.5066,space,5.2903,0,0,0,0,1,,,,,,,,,,,,,,,,,,,,,,,,,,,,,,,,,,,,,,,,,,,,,,,,
,6015e35e090d3e73fe032443,001,2022-04-29_03h09.55.226,classification_task,2021.2.3,Win32,60.72751564,6015e35e090d3e73fe032443,626b377229c10585ec392f89,626b3a930cf54eb8b1304e51,,,,,,,,,,,,,,space,4.9455,1,0,1,0,1,,,,,,,,,,,,,,,,,,,,,,,,,,,,,,,,,,,,,,,,,,,,,,,,
,6015e35e090d3e73fe032443,001,2022-04-29_03h09.55.226,classification_task,2021.2.3,Win32,60.72751564,6015e35e090d3e73fe032443,626b377229c10585ec392f89,626b3a930cf54eb8b1304e51,,,,,,,,,,,,,,space,30.4038,2,0,2,0,1,,,,,,,,,,,,,,,,,,,,,,,,,,,,,,,,,,,,,,,,,,,,,,,,
,6015e35e090d3e73fe032443,001,2022-04-29_03h09.55.226,classification_task,2021.2.3,Win32,60.72751564,6015e35e090d3e73fe032443,626b377229c10585ec392f89,626b3a930cf54eb8b1304e51,,,,,,,,,,,,,,space,6.9415,3,0,3,0,1,,,,,,,,,,,,,,,,,,,,,,,,,,,,,,,,,,,,,,,,,,,,,,,,
,6015e35e090d3e73fe032443,001,2022-04-29_03h09.55.226,classification_task,2021.2.3,Win32,60.72751564,6015e35e090d3e73fe032443,626b377229c10585ec392f89,626b3a930cf54eb8b1304e51,,,,,,,,,,,,,,space,12.7797,4,0,4,0,1,,,,,,,,,,,,,,,,,,,,,,,,,,,,,,,,,,,,,,,,,,,,,,,,
,6015e35e090d3e73fe032443,001,2022-04-29_03h09.55.226,classification_task,2021.2.3,Win32,60.72751564,6015e35e090d3e73fe032443,626b377229c10585ec392f89,626b3a930cf54eb8b1304e51,,,,,,,,,,,,,,,,,,,,,space,10.1699,a,1,8.043,"[""0.706"",""0.370"",""0.621"",""0.917""]","[0,1,1,1]",0,0,0,0,1,0,1,,,0,FALSE,,,,,,,,,,,,,,,,,,,,,,,,,,,,,,
,6015e35e090d3e73fe032443,001,2022-04-29_03h09.55.226,classification_task,2021.2.3,Win32,60.72751564,6015e35e090d3e73fe032443,626b377229c10585ec392f89,626b3a930cf54eb8b1304e51,,,,,,,,,,,,,,,,,,,,,,,,0,,"[""0.712"",""0.521"",""0.881"",""0.956""]","[0,1,1,1]",0,1,1,1,1,0,0,,,0,FALSE,,,,,,,,,,,,,,,,,,,,,,,,,,,,,,
,6015e35e090d3e73fe032443,001,2022-04-29_03h09.55.226,classification_task,2021.2.3,Win32,60.72751564,6015e35e090d3e73fe032443,626b377229c10585ec392f89,626b3a930cf54eb8b1304e51,,,,,,,,,,,,,,,,,,,,,,,l,1,3.7983,"[""0.080"",""0.253"",""0.703"",""0.748""]","[1,1,0,1]",0,2,2,2,1,1,0,,,0,FALSE,,,,,,,,,,,,,,,,,,,,,,,,,,,,,,
,6015e35e090d3e73fe032443,001,2022-04-29_03h09.55.226,classification_task,2021.2.3,Win32,60.72751564,6015e35e090d3e73fe032443,626b377229c10585ec392f89,626b3a930cf54eb8b1304e51,,,,,,,,,,,,,,,,,,,,,,,l,1,4.0801,"[""0.126"",""0.418"",""0.042"",""0.826""]","[1,1,0,1]",0,3,3,3,1,1,1,,,0,FALSE,,,,,,,,,,,,,,,,,,,,,,,,,,,,,,
,6015e35e090d3e73fe032443,001,2022-04-29_03h09.55.226,classification_task,2021.2.3,Win32,60.72751564,6015e35e090d3e73fe032443,626b377229c10585ec392f89,626b3a930cf54eb8b1304e51,,,,,,,,,,,,,,,,,,,,,,,l,1,2.2686,"[""0.126"",""0.711"",""0.665"",""0.826""]","[1,0,1,1]",0,4,4,4,1,1,1,,,0,FALSE,,,,,,,,,,,,,,,,,,,,,,,,,,,,,,
,6015e35e090d3e73fe032443,001,2022-04-29_03h09.55.226,classification_task,2021.2.3,Win32,60.72751564,6015e35e090d3e73fe032443,626b377229c10585ec392f89,626b3a930cf54eb8b1304e51,,,,,,,,,,,,,,,,,,,,,,,l,0,4.423,"[""0.318"",""0.031"",""0.621"",""0.917""]","[1,0,1,1]",0,5,5,5,1,0,1,,,0,FALSE,,,,,,,,,,,,,,,,,,,,,,,,,,,,,,
,6015e35e090d3e73fe032443,001,2022-04-29_03h09.55.226,classification_task,2021.2.3,Win32,60.72751564,6015e35e090d3e73fe032443,626b377229c10585ec392f89,626b3a930cf54eb8b1304e51,,,,,,,,,,,,,,,,,,,,,,,a,0,5.2265,"[""0.706"",""0.253"",""0.585"",""0.748""]","[0,1,1,1]",0,6,6,6,1,1,0,,,0,FALSE,,,,,,,,,,,,,,,,,,,,,,,,,,,,,,
,6015e35e090d3e73fe032443,001,2022-04-29_03h09.55.226,classification_task,2021.2.3,Win32,60.72751564,6015e35e090d3e73fe032443,626b377229c10585ec392f89,626b3a930cf54eb8b1304e51,,,,,,,,,,,,,,,,,,,,,,,,0,,"[""0.707"",""0.418"",""0.665"",""0.826""]","[0,1,1,1]",0,7,7,7,1,1,1,,,0,FALSE,,,,,,,,,,,,,,,,,,,,,,,,,,,,,,
,6015e35e090d3e73fe032443,001,2022-04-29_03h09.55.226,classification_task,2021.2.3,Win32,60.72751564,6015e35e090d3e73fe032443,626b377229c10585ec392f89,626b3a930cf54eb8b1304e51,,,,,,,,,,,,,,,,,,,,,,,l,0,7.075,"[""0.318"",""0.370"",""0.621"",""0.037""]","[1,1,1,0]",0,8,8,8,1,0,1,,,0,FALSE,,,,,,,,,,,,,,,,,,,,,,,,,,,,,,
,6015e35e090d3e73fe032443,001,2022-04-29_03h09.55.226,classification_task,2021.2.3,Win32,60.72751564,6015e35e090d3e73fe032443,626b377229c10585ec392f89,626b3a930cf54eb8b1304e51,,,,,,,,,,,,,,,,,,,,,,,a,0,2.7414,"[""0.080"",""0.253"",""0.585"",""0.707""]","[1,1,1,0]",0,9,9,9,1,1,0,,,0,FALSE,,,,,,,,,,,,,,,,,,,,,,,,,,,,,,
,6015e35e090d3e73fe032443,001,2022-04-29_03h09.55.226,classification_task,2021.2.3,Win32,60.72751564,6015e35e090d3e73fe032443,626b377229c10585ec392f89,626b3a930cf54eb8b1304e51,,,,,,,,,,,,,,,,,,,,,,,a,1,2.2174,"[""0.195"",""0.521"",""0.707"",""0.956""]","[1,1,0,1]",0,10,10,10,1,0,0,,,0,FALSE,,,,,,,,,,,,,,,,,,,,,,,,,,,,,,
,6015e35e090d3e73fe032443,001,2022-04-29_03h09.55.226,classification_task,2021.2.3,Win32,60.72751564,6015e35e090d3e73fe032443,626b377229c10585ec392f89,626b3a930cf54eb8b1304e51,,,,,,,,,,,,,,,,,,,,,,,a,1,1.9896,"[""0.195"",""0.521"",""0.881"",""0.484""]","[1,1,1,0]",0,11,11,11,1,0,0,,,0,FALSE,,,,,,,,,,,,,,,,,,,,,,,,,,,,,,
,6015e35e090d3e73fe032443,001,2022-04-29_03h09.55.226,classification_task,2021.2.3,Win32,60.72751564,6015e35e090d3e73fe032443,626b377229c10585ec392f89,626b3a930cf54eb8b1304e51,,,,,,,,,,,,,,,,,,,,,,,l,1,3.8025,"[""0.126"",""0.418"",""0.665"",""0.031""]","[1,1,1,0]",0,12,12,12,1,1,1,,,0,FALSE,,,,,,,,,,,,,,,,,,,,,,,,,,,,,,
,6015e35e090d3e73fe032443,001,2022-04-29_03h09.55.226,classification_task,2021.2.3,Win32,60.72751564,6015e35e090d3e73fe032443,626b377229c10585ec392f89,626b3a930cf54eb8b1304e51,,,,,,,,,,,,,,,,,,,,,,,a,1,6.2446,"[""0.195"",""0.042"",""0.881"",""0.956""]","[1,0,1,1]",0,13,13,13,1,0,0,,,0,FALSE,,,,,,,,,,,,,,,,,,,,,,,,,,,,,,
,6015e35e090d3e73fe032443,001,2022-04-29_03h09.55.226,classification_task,2021.2.3,Win32,60.72751564,6015e35e090d3e73fe032443,626b377229c10585ec392f89,626b3a930cf54eb8b1304e51,,,,,,,,,,,,,,,,,,,,,,,a,1,3.3598,"[""0.318"",""0.370"",""0.042"",""0.917""]","[1,1,0,1]",0,14,14,14,1,0,1,,,0,FALSE,,,,,,,,,,,,,,,,,,,,,,,,,,,,,,
,6015e35e090d3e73fe032443,001,2022-04-29_03h09.55.226,classification_task,2021.2.3,Win32,60.72751564,6015e35e090d3e73fe032443,626b377229c10585ec392f89,626b3a930cf54eb8b1304e51,,,,,,,,,,,,,,,,,,,,,,,l,1,3.7069,"[""0.080"",""0.473"",""0.585"",""0.748""]","[1,0,1,1]",0,15,15,15,1,1,0,,,0,FALSE,,,,,,,,,,,,,,,,,,,,,,,,,,,,,,
,6015e35e090d3e73fe032443,001,2022-04-29_03h09.55.226,classification_task,2021.2.3,Win32,60.72751564,6015e35e090d3e73fe032443,626b377229c10585ec392f89,626b3a930cf54eb8b1304e51,,,,,,,,,,,,,,,,,,,,,,,l,1,3.606,"[""0.126"",""0.706"",""0.665"",""0.826""]","[1,0,1,1]",0,16,16,16,1,1,1,,,0,FALSE,,,,,,,,,,,,,,,,,,,,,,,,,,,,,,
,6015e35e090d3e73fe032443,001,2022-04-29_03h09.55.226,classification_task,2021.2.3,Win32,60.72751564,6015e35e090d3e73fe032443,626b377229c10585ec392f89,626b3a930cf54eb8b1304e51,,,,,,,,,,,,,,,,,,,,,,,l,1,2.964,"[""0.080"",""0.253"",""0.042"",""0.748""]","[1,1,0,1]",0,17,17,17,1,1,0,,,0,FALSE,,,,,,,,,,,,,,,,,,,,,,,,,,,,,,
,6015e35e090d3e73fe032443,001,2022-04-29_03h09.55.226,classification_task,2021.2.3,Win32,60.72751564,6015e35e090d3e73fe032443,626b377229c10585ec392f89,626b3a930cf54eb8b1304e51,,,,,,,,,,,,,,,,,,,,,,,l,1,2.3119,"[""0.126"",""0.418"",""0.665"",""0.453""]","[1,1,1,0]",0,18,18,18,1,1,1,,,0,FALSE,,,,,,,,,,,,,,,,,,,,,,,,,,,,,,
,6015e35e090d3e73fe032443,001,2022-04-29_03h09.55.226,classification_task,2021.2.3,Win32,60.72751564,6015e35e090d3e73fe032443,626b377229c10585ec392f89,626b3a930cf54eb8b1304e51,,,,,,,,,,,,,,,,,,,,,,,a,1,3.6344,"[""0.037"",""0.370"",""0.621"",""0.917""]","[0,1,1,1]",0,19,19,19,1,0,1,,,0,FALSE,,,,,,,,,,,,,,,,,,,,,,,,,,,,,,
,6015e35e090d3e73fe032443,001,2022-04-29_03h09.55.226,classification_task,2021.2.3,Win32,60.72751564,6015e35e090d3e73fe032443,626b377229c10585ec392f89,626b3a930cf54eb8b1304e51,,,,,,,,,,,,,,,,,,,,,,,a,1,3.4825,"[""0.318"",""0.370"",""0.042"",""0.917""]","[1,1,0,1]",0,20,20,20,1,0,1,,,0,FALSE,,,,,,,,,,,,,,,,,,,,,,,,,,,,,,
,6015e35e090d3e73fe032443,001,2022-04-29_03h09.55.226,classification_task,2021.2.3,Win32,60.72751564,6015e35e090d3e73fe032443,626b377229c10585ec392f89,626b3a930cf54eb8b1304e51,,,,,,,,,,,,,,,,,,,,,,,a,1,1.5137,"[""0.195"",""0.521"",""0.881"",""0.785""]","[1,1,1,0]",0,21,21,21,1,0,0,,,0,FALSE,,,,,,,,,,,,,,,,,,,,,,,,,,,,,,
,6015e35e090d3e73fe032443,001,2022-04-29_03h09.55.226,classification_task,2021.2.3,Win32,60.72751564,6015e35e090d3e73fe032443,626b377229c10585ec392f89,626b3a930cf54eb8b1304e51,,,,,,,,,,,,,,,,,,,,,,,l,0,1.6051,"[""0.033"",""0.521"",""0.881"",""0.956""]","[0,1,1,1]",0,22,22,22,1,0,0,,,0,FALSE,,,,,,,,,,,,,,,,,,,,,,,,,,,,,,
,6015e35e090d3e73fe032443,001,2022-04-29_03h09.55.226,classification_task,2021.2.3,Win32,60.72751564,6015e35e090d3e73fe032443,626b377229c10585ec392f89,626b3a930cf54eb8b1304e51,,,,,,,,,,,,,,,,,,,,,,,a,1,1.355,"[""0.195"",""0.785"",""0.881"",""0.956""]","[1,0,1,1]",0,23,23,23,1,0,0,,,0,FALSE,,,,,,,,,,,,,,,,,,,,,,,,,,,,,,
,6015e35e090d3e73fe032443,001,2022-04-29_03h09.55.226,classification_task,2021.2.3,Win32,60.72751564,6015e35e090d3e73fe032443,626b377229c10585ec392f89,626b3a930cf54eb8b1304e51,,,,,,,,,,,,,,,,,,,,,,,a,1,3.6293,"[""0.318"",""0.370"",""0.621"",""0.707""]","[1,1,1,0]",0,24,24,24,1,0,1,,,0,FALSE,,,,,,,,,,,,,,,,,,,,,,,,,,,,,,
,6015e35e090d3e73fe032443,001,2022-04-29_03h09.55.226,classification_task,2021.2.3,Win32,60.72751564,6015e35e090d3e73fe032443,626b377229c10585ec392f89,626b3a930cf54eb8b1304e51,,,,,,,,,,,,,,,,,,,,,,,l,1,2.1514,"[""0.080"",""0.253"",""0.585"",""0.042""]","[1,1,1,0]",0,25,25,25,1,1,0,,,0,FALSE,,,,,,,,,,,,,,,,,,,,,,,,,,,,,,
,6015e35e090d3e73fe032443,001,2022-04-29_03h09.55.226,classification_task,2021.2.3,Win32,60.72751564,6015e35e090d3e73fe032443,626b377229c10585ec392f89,626b3a930cf54eb8b1304e51,,,,,,,,,,,,,,,,,,,,,,,l,1,3.6301,"[""0.484"",""0.253"",""0.585"",""0.748""]","[0,1,1,1]",0,26,26,26,1,1,0,,,0,FALSE,,,,,,,,,,,,,,,,,,,,,,,,,,,,,,
,6015e35e090d3e73fe032443,001,2022-04-29_03h09.55.226,classification_task,2021.2.3,Win32,60.72751564,6015e35e090d3e73fe032443,626b377229c10585ec392f89,626b3a930cf54eb8b1304e51,,,,,,,,,,,,,,,,,,,,,,,l,1,2.6121,"[""0.080"",""0.706"",""0.585"",""0.748""]","[1,0,1,1]",0,27,27,27,1,1,0,,,0,FALSE,,,,,,,,,,,,,,,,,,,,,,,,,,,,,,
,6015e35e090d3e73fe032443,001,2022-04-29_03h09.55.226,classification_task,2021.2.3,Win32,60.72751564,6015e35e090d3e73fe032443,626b377229c10585ec392f89,626b3a930cf54eb8b1304e51,,,,,,,,,,,,,,,,,,,,,,,l,1,4.2872,"[""0.035"",""0.418"",""0.665"",""0.826""]","[0,1,1,1]",0,28,28,28,1,1,1,,,0,FALSE,,,,,,,,,,,,,,,,,,,,,,,,,,,,,,
,6015e35e090d3e73fe032443,001,2022-04-29_03h09.55.226,classification_task,2021.2.3,Win32,60.72751564,6015e35e090d3e73fe032443,626b377229c10585ec392f89,626b3a930cf54eb8b1304e51,,,,,,,,,,,,,,,,,,,,,,,a,1,1.7344,"[""0.195"",""0.521"",""0.031"",""0.956""]","[1,1,0,1]",0,29,29,29,1,0,0,,,0,FALSE,,,,,,,,,,,,,,,,,,,,,,,,,,,,,,
,6015e35e090d3e73fe032443,001,2022-04-29_03h09.55.226,classification_task,2021.2.3,Win32,60.72751564,6015e35e090d3e73fe032443,626b377229c10585ec392f89,626b3a930cf54eb8b1304e51,,,,,,,,,,,,,,,,,,,,,,,a,1,3.8248,"[""0.318"",""0.785"",""0.621"",""0.917""]","[1,0,1,1]",0,30,30,30,1,0,1,,,0,FALSE,,,,,,,,,,,,,,,,,,,,,,,,,,,,,,
,6015e35e090d3e73fe032443,001,2022-04-29_03h09.55.226,classification_task,2021.2.3,Win32,60.72751564,6015e35e090d3e73fe032443,626b377229c10585ec392f89,626b3a930cf54eb8b1304e51,,,,,,,,,,,,,,,,,,,,,,,l,1,4.8911,"[""0.126"",""0.418"",""0.703"",""0.826""]","[1,1,0,1]",0,31,31,31,1,1,1,,,0,FALSE,,,,,,,,,,,,,,,,,,,,,,,,,,,,,,
,6015e35e090d3e73fe032443,001,2022-04-29_03h09.55.226,classification_task,2021.2.3,Win32,60.72751564,6015e35e090d3e73fe032443,626b377229c10585ec392f89,626b3a930cf54eb8b1304e51,,,,,,,,,,,,,,,,,,,,,,,a,0,3.8216,"[""0.080"",""0.253"",""0.585"",""0.703""]","[1,1,1,0]",0,32,32,32,1,1,0,,,0,FALSE,,,,,,,,,,,,,,,,,,,,,,,,,,,,,,
,6015e35e090d3e73fe032443,001,2022-04-29_03h09.55.226,classification_task,2021.2.3,Win32,60.72751564,6015e35e090d3e73fe032443,626b377229c10585ec392f89,626b3a930cf54eb8b1304e51,,,,,,,,,,,,,,,,,,,,,,,a,1,1.623,"[""0.318"",""0.707"",""0.621"",""0.917""]","[1,0,1,1]",0,33,33,33,1,0,1,,,0,FALSE,,,,,,,,,,,,,,,,,,,,,,,,,,,,,,
,6015e35e090d3e73fe032443,001,2022-04-29_03h09.55.226,classification_task,2021.2.3,Win32,60.72751564,6015e35e090d3e73fe032443,626b377229c10585ec392f89,626b3a930cf54eb8b1304e51,,,,,,,,,,,,,,,,,,,,,,,a,0,1.247,"[""0.703"",""0.253"",""0.585"",""0.748""]","[0,1,1,1]",0,34,34,34,1,1,0,,,0,FALSE,,,,,,,,,,,,,,,,,,,,,,,,,,,,,,
,6015e35e090d3e73fe032443,001,2022-04-29_03h09.55.226,classification_task,2021.2.3,Win32,60.72751564,6015e35e090d3e73fe032443,626b377229c10585ec392f89,626b3a930cf54eb8b1304e51,,,,,,,,,,,,,,,,,,,,,,,l,1,1.4074,"[""0.126"",""0.418"",""0.707"",""0.826""]","[1,1,0,1]",0,35,35,35,1,1,1,,,0,FALSE,,,,,,,,,,,,,,,,,,,,,,,,,,,,,,
,6015e35e090d3e73fe032443,001,2022-04-29_03h09.55.226,classification_task,2021.2.3,Win32,60.72751564,6015e35e090d3e73fe032443,626b377229c10585ec392f89,626b3a930cf54eb8b1304e51,,,,,,,,,,,,,,,,,,,,,,,l,0,1.3632,"[""0.318"",""0.370"",""0.621"",""0.711""]","[1,1,1,0]",0,36,36,36,1,0,1,,,0,FALSE,,,,,,,,,,,,,,,,,,,,,,,,,,,,,,
,6015e35e090d3e73fe032443,001,2022-04-29_03h09.55.226,classification_task,2021.2.3,Win32,60.72751564,6015e35e090d3e73fe032443,626b377229c10585ec392f89,626b3a930cf54eb8b1304e51,,,,,,,,,,,,,,,,,,,,,,,a,1,0.8823,"[""0.195"",""0.521"",""0.881"",""0.711""]","[1,1,1,0]",0,37,37,37,1,0,0,,,0,FALSE,,,,,,,,,,,,,,,,,,,,,,,,,,,,,,
,6015e35e090d3e73fe032443,001,2022-04-29_03h09.55.226,classification_task,2021.2.3,Win32,60.72751564,6015e35e090d3e73fe032443,626b377229c10585ec392f89,626b3a930cf54eb8b1304e51,,,,,,,,,,,,,,,,,,,,,,,a,0,0.8151,"[""0.126"",""0.418"",""0.665"",""0.035""]","[1,1,1,0]",0,38,38,38,1,1,1,,,0,FALSE,,,,,,,,,,,,,,,,,,,,,,,,,,,,,,
,6015e35e090d3e73fe032443,001,2022-04-29_03h09.55.226,classification_task,2021.2.3,Win32,60.72751564,6015e35e090d3e73fe032443,626b377229c10585ec392f89,626b3a930cf54eb8b1304e51,,,,,,,,,,,,,,,,,,,,,,,l,0,0.8327,"[""0.195"",""0.703"",""0.881"",""0.956""]","[1,0,1,1]",0,39,39,39,1,0,0,,,0,FALSE,,,,,,,,,,,,,,,,,,,,,,,,,,,,,,
,6015e35e090d3e73fe032443,001,2022-04-29_03h09.55.226,classification_task,2021.2.3,Win32,60.72751564,6015e35e090d3e73fe032443,626b377229c10585ec392f89,626b3a930cf54eb8b1304e51,,,,,,,,,,,,,,,,,,,,,,,a,0,1.7483,"[""0.126"",""0.453"",""0.665"",""0.826""]","[1,0,1,1]",0,40,40,40,1,1,1,,,0,FALSE,,,,,,,,,,,,,,,,,,,,,,,,,,,,,,
,6015e35e090d3e73fe032443,001,2022-04-29_03h09.55.226,classification_task,2021.2.3,Win32,60.72751564,6015e35e090d3e73fe032443,626b377229c10585ec392f89,626b3a930cf54eb8b1304e51,,,,,,,,,,,,,,,,,,,,,,,l,0,1.0673,"[""0.195"",""0.521"",""0.711"",""0.956""]","[1,1,0,1]",0,41,41,41,1,0,0,,,0,FALSE,,,,,,,,,,,,,,,,,,,,,,,,,,,,,,
,6015e35e090d3e73fe032443,001,2022-04-29_03h09.55.226,classification_task,2021.2.3,Win32,60.72751564,6015e35e090d3e73fe032443,626b377229c10585ec392f89,626b3a930cf54eb8b1304e51,,,,,,,,,,,,,,,,,,,,,,,a,1,0.7962,"[""0.318"",""0.370"",""0.035"",""0.917""]","[1,1,0,1]",0,42,42,42,1,0,1,,,0,FALSE,,,,,,,,,,,,,,,,,,,,,,,,,,,,,,
,6015e35e090d3e73fe032443,001,2022-04-29_03h09.55.226,classification_task,2021.2.3,Win32,60.72751564,6015e35e090d3e73fe032443,626b377229c10585ec392f89,626b3a930cf54eb8b1304e51,,,,,,,,,,,,,,,,,,,,,,,a,0,0.681,"[""0.080"",""0.253"",""0.707"",""0.748""]","[1,1,0,1]",0,43,43,43,1,1,0,,,0,FALSE,,,,,,,,,,,,,,,,,,,,,,,,,,,,,,
,6015e35e090d3e73fe032443,001,2022-04-29_03h09.55.226,classification_task,2021.2.3,Win32,60.72751564,6015e35e090d3e73fe032443,626b377229c10585ec392f89,626b3a930cf54eb8b1304e51,,,,,,,,,,,,,,,,,,,,,,,a,0,0.8315,"[""0.484"",""0.418"",""0.665"",""0.826""]","[0,1,1,1]",0,44,44,44,1,1,1,,,0,FALSE,,,,,,,,,,,,,,,,,,,,,,,,,,,,,,
,6015e35e090d3e73fe032443,001,2022-04-29_03h09.55.226,classification_task,2021.2.3,Win32,60.72751564,6015e35e090d3e73fe032443,626b377229c10585ec392f89,626b3a930cf54eb8b1304e51,,,,,,,,,,,,,,,,,,,,,,,a,1,0.7505,"[""0.042"",""0.521"",""0.881"",""0.956""]","[0,1,1,1]",0,45,45,45,1,0,0,,,0,FALSE,,,,,,,,,,,,,,,,,,,,,,,,,,,,,,
,6015e35e090d3e73fe032443,001,2022-04-29_03h09.55.226,classification_task,2021.2.3,Win32,60.72751564,6015e35e090d3e73fe032443,626b377229c10585ec392f89,626b3a930cf54eb8b1304e51,,,,,,,,,,,,,,,,,,,,,,,l,1,0.7821,"[""0.080"",""0.042"",""0.585"",""0.748""]","[1,0,1,1]",0,46,46,46,1,1,0,,,0,FALSE,,,,,,,,,,,,,,,,,,,,,,,,,,,,,,
,6015e35e090d3e73fe032443,001,2022-04-29_03h09.55.226,classification_task,2021.2.3,Win32,60.72751564,6015e35e090d3e73fe032443,626b377229c10585ec392f89,626b3a930cf54eb8b1304e51,,,,,,,,,,,,,,,,,,,,,,,a,1,1.0508,"[""0.031"",""0.370"",""0.621"",""0.917""]","[0,1,1,1]",0,47,47,47,1,0,1,,,0,FALSE,,,,,,,,,,,,,,,,,,,,,,,,,,,,,,
,6015e35e090d3e73fe032443,001,2022-04-29_03h09.55.226,classification_task,2021.2.3,Win32,60.72751564,6015e35e090d3e73fe032443,626b377229c10585ec392f89,626b3a930cf54eb8b1304e51,,,,,,,,,,,,,,,,,,,,,,,a,1,0.4826,"[""0.033"",""0.370"",""0.621"",""0.917""]","[0,1,1,1]",0,48,48,48,1,0,1,,,0,FALSE,,,,,,,,,,,,,,,,,,,,,,,,,,,,,,
,6015e35e090d3e73fe032443,001,2022-04-29_03h09.55.226,classification_task,2021.2.3,Win32,60.72751564,6015e35e090d3e73fe032443,626b377229c10585ec392f89,626b3a930cf54eb8b1304e51,,,,,,,,,,,,,,,,,,,,,,,a,0,0.8036,"[""0.080"",""0.707"",""0.585"",""0.748""]","[1,0,1,1]",0,49,49,49,1,1,0,,,0,FALSE,,,,,,,,,,,,,,,,,,,,,,,,,,,,,,
,6015e35e090d3e73fe032443,001,2022-04-29_03h09.55.226,classification_task,2021.2.3,Win32,60.72751564,6015e35e090d3e73fe032443,626b377229c10585ec392f89,626b3a930cf54eb8b1304e51,,,,,,,,,,,,,,,,,,,,,,,a,0,0.7331,"[""0.126"",""0.418"",""0.665"",""0.707""]","[1,1,1,0]",0,50,50,50,1,1,1,,,0,FALSE,,,,,,,,,,,,,,,,,,,,,,,,,,,,,,
,6015e35e090d3e73fe032443,001,2022-04-29_03h09.55.226,classification_task,2021.2.3,Win32,60.72751564,6015e35e090d3e73fe032443,626b377229c10585ec392f89,626b3a930cf54eb8b1304e51,,,,,,,,,,,,,,,,,,,,,,,a,1,0.5492,"[""0.318"",""0.370"",""0.484"",""0.917""]","[1,1,0,1]",0,51,51,51,1,0,1,,,0,FALSE,,,,,,,,,,,,,,,,,,,,,,,,,,,,,,
,6015e35e090d3e73fe032443,001,2022-04-29_03h09.55.226,classification_task,2021.2.3,Win32,60.72751564,6015e35e090d3e73fe032443,626b377229c10585ec392f89,626b3a930cf54eb8b1304e51,,,,,,,,,,,,,,,,,,,,,,,a,1,0.5849,"[""0.318"",""0.707"",""0.621"",""0.917""]","[1,0,1,1]",0,52,52,52,1,0,1,,,0,FALSE,,,,,,,,,,,,,,,,,,,,,,,,,,,,,,
,6015e35e090d3e73fe032443,001,2022-04-29_03h09.55.226,classification_task,2021.2.3,Win32,60.72751564,6015e35e090d3e73fe032443,626b377229c10585ec392f89,626b3a930cf54eb8b1304e51,,,,,,,,,,,,,,,,,,,,,,,l,0,0.567,"[""0.195"",""0.521"",""0.881"",""0.473""]","[1,1,1,0]",0,53,53,53,1,0,0,,,0,FALSE,,,,,,,,,,,,,,,,,,,,,,,,,,,,,,
,6015e35e090d3e73fe032443,001,2022-04-29_03h09.55.226,classification_task,2021.2.3,Win32,60.72751564,6015e35e090d3e73fe032443,626b377229c10585ec392f89,626b3a930cf54eb8b1304e51,,,,,,,,,,,,,,,,,,,,,,,a,0,0.667,"[""0.080"",""0.253"",""0.585"",""0.707""]","[1,1,1,0]",0,54,54,54,1,1,0,,,0,FALSE,,,,,,,,,,,,,,,,,,,,,,,,,,,,,,
,6015e35e090d3e73fe032443,001,2022-04-29_03h09.55.226,classification_task,2021.2.3,Win32,60.72751564,6015e35e090d3e73fe032443,626b377229c10585ec392f89,626b3a930cf54eb8b1304e51,,,,,,,,,,,,,,,,,,,,,,,a,1,0.7375,"[""0.707"",""0.521"",""0.881"",""0.956""]","[0,1,1,1]",0,55,55,55,1,0,0,,,0,FALSE,,,,,,,,,,,,,,,,,,,,,,,,,,,,,,
,6015e35e090d3e73fe032443,001,2022-04-29_03h09.55.226,classification_task,2021.2.3,Win32,60.72751564,6015e35e090d3e73fe032443,626b377229c10585ec392f89,626b3a930cf54eb8b1304e51,,,,,,,,,,,,,,,,,,,,,,,a,0,0.8021,"[""0.126"",""0.707"",""0.665"",""0.826""]","[1,0,1,1]",0,56,56,56,1,1,1,,,0,FALSE,,,,,,,,,,,,,,,,,,,,,,,,,,,,,,
,6015e35e090d3e73fe032443,001,2022-04-29_03h09.55.226,classification_task,2021.2.3,Win32,60.72751564,6015e35e090d3e73fe032443,626b377229c10585ec392f89,626b3a930cf54eb8b1304e51,,,,,,,,,,,,,,,,,,,,,,,a,1,0.6045,"[""0.195"",""0.521"",""0.453"",""0.956""]","[1,1,0,1]",0,57,57,57,1,0,0,,,0,FALSE,,,,,,,,,,,,,,,,,,,,,,,,,,,,,,
,6015e35e090d3e73fe032443,001,2022-04-29_03h09.55.226,classification_task,2021.2.3,Win32,60.72751564,6015e35e090d3e73fe032443,626b377229c10585ec392f89,626b3a930cf54eb8b1304e51,,,,,,,,,,,,,,,,,,,,,,,l,1,0.7822,"[""0.042"",""0.253"",""0.585"",""0.748""]","[0,1,1,1]",0,58,58,58,1,1,0,,,0,FALSE,,,,,,,,,,,,,,,,,,,,,,,,,,,,,,
,6015e35e090d3e73fe032443,001,2022-04-29_03h09.55.226,classification_task,2021.2.3,Win32,60.72751564,6015e35e090d3e73fe032443,626b377229c10585ec392f89,626b3a930cf54eb8b1304e51,,,,,,,,,,,,,,,,,,,,,,,a,0,0.7166,"[""0.712"",""0.418"",""0.665"",""0.826""]","[0,1,1,1]",0,59,59,59,1,1,1,,,0,FALSE,,,,,,,,,,,,,,,,,,,,,,,,,,,,,,
,6015e35e090d3e73fe032443,001,2022-04-29_03h09.55.226,classification_task,2021.2.3,Win32,60.72751564,6015e35e090d3e73fe032443,626b377229c10585ec392f89,626b3a930cf54eb8b1304e51,,,,,,,,,,,,,,,,,,,,,,,l,0,0.4995,"[""0.195"",""0.712"",""0.881"",""0.956""]","[1,0,1,1]",0,60,60,60,1,0,0,,,0,FALSE,,,,,,,,,,,,,,,,,,,,,,,,,,,,,,
,6015e35e090d3e73fe032443,001,2022-04-29_03h09.55.226,classification_task,2021.2.3,Win32,60.72751564,6015e35e090d3e73fe032443,626b377229c10585ec392f89,626b3a930cf54eb8b1304e51,,,,,,,,,,,,,,,,,,,,,,,l,1,0.4164,"[""0.080"",""0.253"",""0.033"",""0.748""]","[1,1,0,1]",0,61,61,61,1,1,0,,,0,FALSE,,,,,,,,,,,,,,,,,,,,,,,,,,,,,,
,6015e35e090d3e73fe032443,001,2022-04-29_03h09.55.226,classification_task,2021.2.3,Win32,60.72751564,6015e35e090d3e73fe032443,626b377229c10585ec392f89,626b3a930cf54eb8b1304e51,,,,,,,,,,,,,,,,,,,,,,,a,0,0.9793,"[""0.126"",""0.418"",""0.707"",""0.826""]","[1,1,0,1]",0,62,62,62,1,1,1,,,0,FALSE,,,,,,,,,,,,,,,,,,,,,,,,,,,,,,
,6015e35e090d3e73fe032443,001,2022-04-29_03h09.55.226,classification_task,2021.2.3,Win32,60.72751564,6015e35e090d3e73fe032443,626b377229c10585ec392f89,626b3a930cf54eb8b1304e51,,,,,,,,,,,,,,,,,,,,,,,a,1,0.4354,"[""0.318"",""0.370"",""0.621"",""0.785""]","[1,1,1,0]",0,63,63,63,1,0,1,,,0,FALSE,,,,,,,,,,,,,,,,,,,,,,,,,,,,,,
,6015e35e090d3e73fe032443,001,2022-04-29_03h09.55.226,classification_task,2021.2.3,Win32,60.72751564,6015e35e090d3e73fe032443,626b377229c10585ec392f89,626b3a930cf54eb8b1304e51,,,,,,,,,,,,,,,,,,,,,,,,,,,,,,,,,,,,,,,0, ,,0,1.062366023,385.494,0,0,0,0,1,2,1,,,,,,,,,,,,,,,,,
,6015e35e090d3e73fe032443,001,2022-04-29_03h09.55.226,classification_task,2021.2.3,Win32,60.72751564,6015e35e090d3e73fe032443,626b377229c10585ec392f89,626b3a930cf54eb8b1304e51,,,,,,,,,,,,,,,,,,,,,,,,,,,,,,,,,,,,,,,1,  ,,0,5.863463043,372.0585,0,0,0,0,1,2,1,,,,,,,,,,,,,,,,,
,6015e35e090d3e73fe032443,001,2022-04-29_03h09.55.226,classification_task,2021.2.3,Win32,60.72751564,6015e35e090d3e73fe032443,626b377229c10585ec392f89,626b3a930cf54eb8b1304e51,,,,,,,,,,,,,,,,,,,,,,,,,,,,,,,,,,,,,,,2,  ,,0,2.801538685,392.2473,0,0,0,0,1,2,1,,,,,,,,,,,,,,,,,
,6015e35e090d3e73fe032443,001,2022-04-29_03h09.55.226,classification_task,2021.2.3,Win32,60.72751564,6015e35e090d3e73fe032443,626b377229c10585ec392f89,626b3a930cf54eb8b1304e51,,,,,,,,,,,,,,,,,,,,,,,,,,,,,,,,,,,,,,,,,,,,,0,0,0,0,1,,1,,,,,,,,,,,,,,,,,
,6015e35e090d3e73fe032443,001,2022-04-29_03h09.55.226,classification_task,2021.2.3,Win32,60.72751564,6015e35e090d3e73fe032443,626b377229c10585ec392f89,626b3a930cf54eb8b1304e51,,,,,,,,,,,,,,,,,,,,,space,8.4363,a,1,2.3363,"[""0.318"",""0.370"",""0.473"",""0.917""]","[1,1,0,1]",0,0,0,0,1,0,1,,,0,FALSE,,,,,,,,,,,,,,,,,,,,,,,,,,,,,,
,6015e35e090d3e73fe032443,001,2022-04-29_03h09.55.226,classification_task,2021.2.3,Win32,60.72751564,6015e35e090d3e73fe032443,626b377229c10585ec392f89,626b3a930cf54eb8b1304e51,,,,,,,,,,,,,,,,,,,,,,,a,0,0.9246,"[""0.785"",""0.418"",""0.665"",""0.826""]","[0,1,1,1]",0,1,1,1,1,1,1,,,0,FALSE,,,,,,,,,,,,,,,,,,,,,,,,,,,,,,
,6015e35e090d3e73fe032443,001,2022-04-29_03h09.55.226,classification_task,2021.2.3,Win32,60.72751564,6015e35e090d3e73fe032443,626b377229c10585ec392f89,626b3a930cf54eb8b1304e51,,,,,,,,,,,,,,,,,,,,,,,a,0,0.5506,"[""0.126"",""0.418"",""0.453"",""0.826""]","[1,1,0,1]",0,2,2,2,1,1,1,,,0,FALSE,,,,,,,,,,,,,,,,,,,,,,,,,,,,,,
,6015e35e090d3e73fe032443,001,2022-04-29_03h09.55.226,classification_task,2021.2.3,Win32,60.72751564,6015e35e090d3e73fe032443,626b377229c10585ec392f89,626b3a930cf54eb8b1304e51,,,,,,,,,,,,,,,,,,,,,,,l,1,1.2541,"[""0.035"",""0.253"",""0.585"",""0.748""]","[0,1,1,1]",0,3,3,3,1,1,0,,,0,FALSE,,,,,,,,,,,,,,,,,,,,,,,,,,,,,,
,6015e35e090d3e73fe032443,001,2022-04-29_03h09.55.226,classification_task,2021.2.3,Win32,60.72751564,6015e35e090d3e73fe032443,626b377229c10585ec392f89,626b3a930cf54eb8b1304e51,,,,,,,,,,,,,,,,,,,,,,,a,1,0.5808,"[""0.318"",""0.370"",""0.621"",""0.033""]","[1,1,1,0]",0,4,4,4,1,0,1,,,0,FALSE,,,,,,,,,,,,,,,,,,,,,,,,,,,,,,
,6015e35e090d3e73fe032443,001,2022-04-29_03h09.55.226,classification_task,2021.2.3,Win32,60.72751564,6015e35e090d3e73fe032443,626b377229c10585ec392f89,626b3a930cf54eb8b1304e51,,,,,,,,,,,,,,,,,,,,,,,l,1,0.4655,"[""0.080"",""0.253"",""0.585"",""0.711""]","[1,1,1,0]",0,5,5,5,1,1,0,,,0,FALSE,,,,,,,,,,,,,,,,,,,,,,,,,,,,,,
,6015e35e090d3e73fe032443,001,2022-04-29_03h09.55.226,classification_task,2021.2.3,Win32,60.72751564,6015e35e090d3e73fe032443,626b377229c10585ec392f89,626b3a930cf54eb8b1304e51,,,,,,,,,,,,,,,,,,,,,,,a,1,0.6845,"[""0.195"",""0.703"",""0.881"",""0.956""]","[1,0,1,1]",0,6,6,6,1,0,0,,,0,FALSE,,,,,,,,,,,,,,,,,,,,,,,,,,,,,,
,6015e35e090d3e73fe032443,001,2022-04-29_03h09.55.226,classification_task,2021.2.3,Win32,60.72751564,6015e35e090d3e73fe032443,626b377229c10585ec392f89,626b3a930cf54eb8b1304e51,,,,,,,,,,,,,,,,,,,,,,,a,0,0.7127,"[""0.126"",""0.418"",""0.665"",""0.035""]","[1,1,1,0]",0,7,7,7,1,1,1,,,0,FALSE,,,,,,,,,,,,,,,,,,,,,,,,,,,,,,
,6015e35e090d3e73fe032443,001,2022-04-29_03h09.55.226,classification_task,2021.2.3,Win32,60.72751564,6015e35e090d3e73fe032443,626b377229c10585ec392f89,626b3a930cf54eb8b1304e51,,,,,,,,,,,,,,,,,,,,,,,a,1,0.6987,"[""0.453"",""0.521"",""0.881"",""0.956""]","[0,1,1,1]",0,8,8,8,1,0,0,,,0,FALSE,,,,,,,,,,,,,,,,,,,,,,,,,,,,,,
,6015e35e090d3e73fe032443,001,2022-04-29_03h09.55.226,classification_task,2021.2.3,Win32,60.72751564,6015e35e090d3e73fe032443,626b377229c10585ec392f89,626b3a930cf54eb8b1304e51,,,,,,,,,,,,,,,,,,,,,,,a,1,0.899,"[""0.484"",""0.370"",""0.621"",""0.917""]","[0,1,1,1]",0,9,9,9,1,0,1,,,0,FALSE,,,,,,,,,,,,,,,,,,,,,,,,,,,,,,
,6015e35e090d3e73fe032443,001,2022-04-29_03h09.55.226,classification_task,2021.2.3,Win32,60.72751564,6015e35e090d3e73fe032443,626b377229c10585ec392f89,626b3a930cf54eb8b1304e51,,,,,,,,,,,,,,,,,,,,,,,l,1,0.5817,"[""0.080"",""0.253"",""0.785"",""0.748""]","[1,1,0,1]",0,10,10,10,1,1,0,,,0,FALSE,,,,,,,,,,,,,,,,,,,,,,,,,,,,,,
,6015e35e090d3e73fe032443,001,2022-04-29_03h09.55.226,classification_task,2021.2.3,Win32,60.72751564,6015e35e090d3e73fe032443,626b377229c10585ec392f89,626b3a930cf54eb8b1304e51,,,,,,,,,,,,,,,,,,,,,,,a,1,0.7994,"[""0.195"",""0.521"",""0.785"",""0.956""]","[1,1,0,1]",0,11,11,11,1,0,0,,,0,FALSE,,,,,,,,,,,,,,,,,,,,,,,,,,,,,,
,6015e35e090d3e73fe032443,001,2022-04-29_03h09.55.226,classification_task,2021.2.3,Win32,60.72751564,6015e35e090d3e73fe032443,626b377229c10585ec392f89,626b3a930cf54eb8b1304e51,,,,,,,,,,,,,,,,,,,,,,,a,0,0.9996,"[""0.126"",""0.035"",""0.665"",""0.826""]","[1,0,1,1]",0,12,12,12,1,1,1,,,0,FALSE,,,,,,,,,,,,,,,,,,,,,,,,,,,,,,
,6015e35e090d3e73fe032443,001,2022-04-29_03h09.55.226,classification_task,2021.2.3,Win32,60.72751564,6015e35e090d3e73fe032443,626b377229c10585ec392f89,626b3a930cf54eb8b1304e51,,,,,,,,,,,,,,,,,,,,,,,a,1,0.5832,"[""0.318"",""0.707"",""0.621"",""0.917""]","[1,0,1,1]",0,13,13,13,1,0,1,,,0,FALSE,,,,,,,,,,,,,,,,,,,,,,,,,,,,,,
,6015e35e090d3e73fe032443,001,2022-04-29_03h09.55.226,classification_task,2021.2.3,Win32,60.72751564,6015e35e090d3e73fe032443,626b377229c10585ec392f89,626b3a930cf54eb8b1304e51,,,,,,,,,,,,,,,,,,,,,,,l,1,0.7833,"[""0.080"",""0.033"",""0.585"",""0.748""]","[1,0,1,1]",0,14,14,14,1,1,0,,,0,FALSE,,,,,,,,,,,,,,,,,,,,,,,,,,,,,,
,6015e35e090d3e73fe032443,001,2022-04-29_03h09.55.226,classification_task,2021.2.3,Win32,60.72751564,6015e35e090d3e73fe032443,626b377229c10585ec392f89,626b3a930cf54eb8b1304e51,,,,,,,,,,,,,,,,,,,,,,,a,1,0.6344,"[""0.195"",""0.521"",""0.881"",""0.707""]","[1,1,1,0]",0,15,15,15,1,0,0,,,0,FALSE,,,,,,,,,,,,,,,,,,,,,,,,,,,,,,
,6015e35e090d3e73fe032443,001,2022-04-29_03h09.55.226,classification_task,2021.2.3,Win32,60.72751564,6015e35e090d3e73fe032443,626b377229c10585ec392f89,626b3a930cf54eb8b1304e51,,,,,,,,,,,,,,,,,,,,,,,a,0,0.7339,"[""0.484"",""0.418"",""0.665"",""0.826""]","[0,1,1,1]",0,16,16,16,1,1,1,,,0,FALSE,,,,,,,,,,,,,,,,,,,,,,,,,,,,,,
,6015e35e090d3e73fe032443,001,2022-04-29_03h09.55.226,classification_task,2021.2.3,Win32,60.72751564,6015e35e090d3e73fe032443,626b377229c10585ec392f89,626b3a930cf54eb8b1304e51,,,,,,,,,,,,,,,,,,,,,,,l,1,0.747,"[""0.042"",""0.253"",""0.585"",""0.748""]","[0,1,1,1]",0,17,17,17,1,1,0,,,0,FALSE,,,,,,,,,,,,,,,,,,,,,,,,,,,,,,
,6015e35e090d3e73fe032443,001,2022-04-29_03h09.55.226,classification_task,2021.2.3,Win32,60.72751564,6015e35e090d3e73fe032443,626b377229c10585ec392f89,626b3a930cf54eb8b1304e51,,,,,,,,,,,,,,,,,,,,,,,a,1,0.6818,"[""0.195"",""0.521"",""0.881"",""0.711""]","[1,1,1,0]",0,18,18,18,1,0,0,,,0,FALSE,,,,,,,,,,,,,,,,,,,,,,,,,,,,,,
,6015e35e090d3e73fe032443,001,2022-04-29_03h09.55.226,classification_task,2021.2.3,Win32,60.72751564,6015e35e090d3e73fe032443,626b377229c10585ec392f89,626b3a930cf54eb8b1304e51,,,,,,,,,,,,,,,,,,,,,,,a,1,0.7162,"[""0.195"",""0.521"",""0.703"",""0.956""]","[1,1,0,1]",0,19,19,19,1,0,0,,,0,FALSE,,,,,,,,,,,,,,,,,,,,,,,,,,,,,,
,6015e35e090d3e73fe032443,001,2022-04-29_03h09.55.226,classification_task,2021.2.3,Win32,60.72751564,6015e35e090d3e73fe032443,626b377229c10585ec392f89,626b3a930cf54eb8b1304e51,,,,,,,,,,,,,,,,,,,,,,,a,0,0.9142,"[""0.126"",""0.418"",""0.484"",""0.826""]","[1,1,0,1]",0,20,20,20,1,1,1,,,0,FALSE,,,,,,,,,,,,,,,,,,,,,,,,,,,,,,
,6015e35e090d3e73fe032443,001,2022-04-29_03h09.55.226,classification_task,2021.2.3,Win32,60.72751564,6015e35e090d3e73fe032443,626b377229c10585ec392f89,626b3a930cf54eb8b1304e51,,,,,,,,,,,,,,,,,,,,,,,l,1,0.6309,"[""0.080"",""0.253"",""0.585"",""0.707""]","[1,1,1,0]",0,21,21,21,1,1,0,,,0,FALSE,,,,,,,,,,,,,,,,,,,,,,,,,,,,,,
,6015e35e090d3e73fe032443,001,2022-04-29_03h09.55.226,classification_task,2021.2.3,Win32,60.72751564,6015e35e090d3e73fe032443,626b377229c10585ec392f89,626b3a930cf54eb8b1304e51,,,,,,,,,,,,,,,,,,,,,,,a,1,0.8165,"[""0.712"",""0.370"",""0.621"",""0.917""]","[0,1,1,1]",0,22,22,22,1,0,1,,,0,FALSE,,,,,,,,,,,,,,,,,,,,,,,,,,,,,,
,6015e35e090d3e73fe032443,001,2022-04-29_03h09.55.226,classification_task,2021.2.3,Win32,60.72751564,6015e35e090d3e73fe032443,626b377229c10585ec392f89,626b3a930cf54eb8b1304e51,,,,,,,,,,,,,,,,,,,,,,,l,0,0.6685,"[""0.318"",""0.370"",""0.621"",""0.035""]","[1,1,1,0]",0,23,23,23,1,0,1,,,0,FALSE,,,,,,,,,,,,,,,,,,,,,,,,,,,,,,
,6015e35e090d3e73fe032443,001,2022-04-29_03h09.55.226,classification_task,2021.2.3,Win32,60.72751564,6015e35e090d3e73fe032443,626b377229c10585ec392f89,626b3a930cf54eb8b1304e51,,,,,,,,,,,,,,,,,,,,,,,l,1,0.5906,"[""0.080"",""0.033"",""0.585"",""0.748""]","[1,0,1,1]",0,24,24,24,1,1,0,,,0,FALSE,,,,,,,,,,,,,,,,,,,,,,,,,,,,,,
,6015e35e090d3e73fe032443,001,2022-04-29_03h09.55.226,classification_task,2021.2.3,Win32,60.72751564,6015e35e090d3e73fe032443,626b377229c10585ec392f89,626b3a930cf54eb8b1304e51,,,,,,,,,,,,,,,,,,,,,,,a,1,0.6832,"[""0.318"",""0.484"",""0.621"",""0.917""]","[1,0,1,1]",0,25,25,25,1,0,1,,,0,FALSE,,,,,,,,,,,,,,,,,,,,,,,,,,,,,,
,6015e35e090d3e73fe032443,001,2022-04-29_03h09.55.226,classification_task,2021.2.3,Win32,60.72751564,6015e35e090d3e73fe032443,626b377229c10585ec392f89,626b3a930cf54eb8b1304e51,,,,,,,,,,,,,,,,,,,,,,,l,1,0.6827,"[""0.126"",""0.707"",""0.665"",""0.826""]","[1,0,1,1]",0,26,26,26,1,1,1,,,0,FALSE,,,,,,,,,,,,,,,,,,,,,,,,,,,,,,
,6015e35e090d3e73fe032443,001,2022-04-29_03h09.55.226,classification_task,2021.2.3,Win32,60.72751564,6015e35e090d3e73fe032443,626b377229c10585ec392f89,626b3a930cf54eb8b1304e51,,,,,,,,,,,,,,,,,,,,,,,a,0,0.617,"[""0.126"",""0.418"",""0.665"",""0.707""]","[1,1,1,0]",0,27,27,27,1,1,1,,,0,FALSE,,,,,,,,,,,,,,,,,,,,,,,,,,,,,,
,6015e35e090d3e73fe032443,001,2022-04-29_03h09.55.226,classification_task,2021.2.3,Win32,60.72751564,6015e35e090d3e73fe032443,626b377229c10585ec392f89,626b3a930cf54eb8b1304e51,,,,,,,,,,,,,,,,,,,,,,,a,1,0.5161,"[""0.318"",""0.370"",""0.035"",""0.917""]","[1,1,0,1]",0,28,28,28,1,0,1,,,0,FALSE,,,,,,,,,,,,,,,,,,,,,,,,,,,,,,
,6015e35e090d3e73fe032443,001,2022-04-29_03h09.55.226,classification_task,2021.2.3,Win32,60.72751564,6015e35e090d3e73fe032443,626b377229c10585ec392f89,626b3a930cf54eb8b1304e51,,,,,,,,,,,,,,,,,,,,,,,l,1,0.598,"[""0.080"",""0.253"",""0.785"",""0.748""]","[1,1,0,1]",0,29,29,29,1,1,0,,,0,FALSE,,,,,,,,,,,,,,,,,,,,,,,,,,,,,,
,6015e35e090d3e73fe032443,001,2022-04-29_03h09.55.226,classification_task,2021.2.3,Win32,60.72751564,6015e35e090d3e73fe032443,626b377229c10585ec392f89,626b3a930cf54eb8b1304e51,,,,,,,,,,,,,,,,,,,,,,,a,1,0.4688,"[""0.785"",""0.521"",""0.881"",""0.956""]","[0,1,1,1]",0,30,30,30,1,0,0,,,0,FALSE,,,,,,,,,,,,,,,,,,,,,,,,,,,,,,
,6015e35e090d3e73fe032443,001,2022-04-29_03h09.55.226,classification_task,2021.2.3,Win32,60.72751564,6015e35e090d3e73fe032443,626b377229c10585ec392f89,626b3a930cf54eb8b1304e51,,,,,,,,,,,,,,,,,,,,,,,a,1,0.4672,"[""0.195"",""0.707"",""0.881"",""0.956""]","[1,0,1,1]",0,31,31,31,1,0,0,,,0,FALSE,,,,,,,,,,,,,,,,,,,,,,,,,,,,,,
,6015e35e090d3e73fe032443,001,2022-04-29_03h09.55.226,classification_task,2021.2.3,Win32,60.72751564,6015e35e090d3e73fe032443,626b377229c10585ec392f89,626b3a930cf54eb8b1304e51,,,,,,,,,,,,,,,,,,,,,,,a,0,0.8492,"[""0.703"",""0.418"",""0.665"",""0.826""]","[0,1,1,1]",0,32,32,32,1,1,1,,,0,FALSE,,,,,,,,,,,,,,,,,,,,,,,,,,,,,,
,6015e35e090d3e73fe032443,001,2022-04-29_03h09.55.226,classification_task,2021.2.3,Win32,60.72751564,6015e35e090d3e73fe032443,626b377229c10585ec392f89,626b3a930cf54eb8b1304e51,,,,,,,,,,,,,,,,,,,,,,,l,1,0.4266,"[""0.484"",""0.253"",""0.585"",""0.748""]","[0,1,1,1]",0,33,33,33,1,1,0,,,0,FALSE,,,,,,,,,,,,,,,,,,,,,,,,,,,,,,
,6015e35e090d3e73fe032443,001,2022-04-29_03h09.55.226,classification_task,2021.2.3,Win32,60.72751564,6015e35e090d3e73fe032443,626b377229c10585ec392f89,626b3a930cf54eb8b1304e51,,,,,,,,,,,,,,,,,,,,,,,a,1,0.3662,"[""0.195"",""0.521"",""0.881"",""0.031""]","[1,1,1,0]",0,34,34,34,1,0,0,,,0,FALSE,,,,,,,,,,,,,,,,,,,,,,,,,,,,,,
,6015e35e090d3e73fe032443,001,2022-04-29_03h09.55.226,classification_task,2021.2.3,Win32,60.72751564,6015e35e090d3e73fe032443,626b377229c10585ec392f89,626b3a930cf54eb8b1304e51,,,,,,,,,,,,,,,,,,,,,,,l,0,0.5989,"[""0.318"",""0.370"",""0.621"",""0.707""]","[1,1,1,0]",0,35,35,35,1,0,1,,,0,FALSE,,,,,,,,,,,,,,,,,,,,,,,,,,,,,,
,6015e35e090d3e73fe032443,001,2022-04-29_03h09.55.226,classification_task,2021.2.3,Win32,60.72751564,6015e35e090d3e73fe032443,626b377229c10585ec392f89,626b3a930cf54eb8b1304e51,,,,,,,,,,,,,,,,,,,,,,,a,1,0.3811,"[""0.195"",""0.484"",""0.881"",""0.956""]","[1,0,1,1]",0,36,36,36,1,0,0,,,0,FALSE,,,,,,,,,,,,,,,,,,,,,,,,,,,,,,
,6015e35e090d3e73fe032443,001,2022-04-29_03h09.55.226,classification_task,2021.2.3,Win32,60.72751564,6015e35e090d3e73fe032443,626b377229c10585ec392f89,626b3a930cf54eb8b1304e51,,,,,,,,,,,,,,,,,,,,,,,a,1,0.3609,"[""0.318"",""0.370"",""0.037"",""0.917""]","[1,1,0,1]",0,37,37,37,1,0,1,,,0,FALSE,,,,,,,,,,,,,,,,,,,,,,,,,,,,,,
,6015e35e090d3e73fe032443,001,2022-04-29_03h09.55.226,classification_task,2021.2.3,Win32,60.72751564,6015e35e090d3e73fe032443,626b377229c10585ec392f89,626b3a930cf54eb8b1304e51,,,,,,,,,,,,,,,,,,,,,,,l,0,0.4841,"[""0.318"",""0.785"",""0.621"",""0.917""]","[1,0,1,1]",0,38,38,38,1,0,1,,,0,FALSE,,,,,,,,,,,,,,,,,,,,,,,,,,,,,,
,6015e35e090d3e73fe032443,001,2022-04-29_03h09.55.226,classification_task,2021.2.3,Win32,60.72751564,6015e35e090d3e73fe032443,626b377229c10585ec392f89,626b3a930cf54eb8b1304e51,,,,,,,,,,,,,,,,,,,,,,,a,0,0.3839,"[""0.126"",""0.418"",""0.665"",""0.707""]","[1,1,1,0]",0,39,39,39,1,1,1,,,0,FALSE,,,,,,,,,,,,,,,,,,,,,,,,,,,,,,
,6015e35e090d3e73fe032443,001,2022-04-29_03h09.55.226,classification_task,2021.2.3,Win32,60.72751564,6015e35e090d3e73fe032443,626b377229c10585ec392f89,626b3a930cf54eb8b1304e51,,,,,,,,,,,,,,,,,,,,,,,a,0,0.1787,"[""0.080"",""0.707"",""0.585"",""0.748""]","[1,0,1,1]",0,40,40,40,1,1,0,,,0,FALSE,,,,,,,,,,,,,,,,,,,,,,,,,,,,,,
,6015e35e090d3e73fe032443,001,2022-04-29_03h09.55.226,classification_task,2021.2.3,Win32,60.72751564,6015e35e090d3e73fe032443,626b377229c10585ec392f89,626b3a930cf54eb8b1304e51,,,,,,,,,,,,,,,,,,,,,,,l,1,0.4318,"[""0.080"",""0.253"",""0.585"",""0.706""]","[1,1,1,0]",0,41,41,41,1,1,0,,,0,FALSE,,,,,,,,,,,,,,,,,,,,,,,,,,,,,,
,6015e35e090d3e73fe032443,001,2022-04-29_03h09.55.226,classification_task,2021.2.3,Win32,60.72751564,6015e35e090d3e73fe032443,626b377229c10585ec392f89,626b3a930cf54eb8b1304e51,,,,,,,,,,,,,,,,,,,,,,,a,1,0.4329,"[""0.453"",""0.521"",""0.881"",""0.956""]","[0,1,1,1]",0,42,42,42,1,0,0,,,0,FALSE,,,,,,,,,,,,,,,,,,,,,,,,,,,,,,
,6015e35e090d3e73fe032443,001,2022-04-29_03h09.55.226,classification_task,2021.2.3,Win32,60.72751564,6015e35e090d3e73fe032443,626b377229c10585ec392f89,626b3a930cf54eb8b1304e51,,,,,,,,,,,,,,,,,,,,,,,a,1,0.4328,"[""0.195"",""0.521"",""0.042"",""0.956""]","[1,1,0,1]",0,43,43,43,1,0,0,,,0,FALSE,,,,,,,,,,,,,,,,,,,,,,,,,,,,,,
,6015e35e090d3e73fe032443,001,2022-04-29_03h09.55.226,classification_task,2021.2.3,Win32,60.72751564,6015e35e090d3e73fe032443,626b377229c10585ec392f89,626b3a930cf54eb8b1304e51,,,,,,,,,,,,,,,,,,,,,,,l,0,0.4491,"[""0.707"",""0.370"",""0.621"",""0.917""]","[0,1,1,1]",0,44,44,44,1,0,1,,,0,FALSE,,,,,,,,,,,,,,,,,,,,,,,,,,,,,,
,6015e35e090d3e73fe032443,001,2022-04-29_03h09.55.226,classification_task,2021.2.3,Win32,60.72751564,6015e35e090d3e73fe032443,626b377229c10585ec392f89,626b3a930cf54eb8b1304e51,,,,,,,,,,,,,,,,,,,,,,,l,1,0.5958,"[""0.126"",""0.712"",""0.665"",""0.826""]","[1,0,1,1]",0,45,45,45,1,1,1,,,0,FALSE,,,,,,,,,,,,,,,,,,,,,,,,,,,,,,
,6015e35e090d3e73fe032443,001,2022-04-29_03h09.55.226,classification_task,2021.2.3,Win32,60.72751564,6015e35e090d3e73fe032443,626b377229c10585ec392f89,626b3a930cf54eb8b1304e51,,,,,,,,,,,,,,,,,,,,,,,l,1,0.6634,"[""0.126"",""0.418"",""0.707"",""0.826""]","[1,1,0,1]",0,46,46,46,1,1,1,,,0,FALSE,,,,,,,,,,,,,,,,,,,,,,,,,,,,,,
,6015e35e090d3e73fe032443,001,2022-04-29_03h09.55.226,classification_task,2021.2.3,Win32,60.72751564,6015e35e090d3e73fe032443,626b377229c10585ec392f89,626b3a930cf54eb8b1304e51,,,,,,,,,,,,,,,,,,,,,,,l,1,0.6294,"[""0.080"",""0.253"",""0.035"",""0.748""]","[1,1,0,1]",0,47,47,47,1,1,0,,,0,FALSE,,,,,,,,,,,,,,,,,,,,,,,,,,,,,,
,6015e35e090d3e73fe032443,001,2022-04-29_03h09.55.226,classification_task,2021.2.3,Win32,60.72751564,6015e35e090d3e73fe032443,626b377229c10585ec392f89,626b3a930cf54eb8b1304e51,,,,,,,,,,,,,,,,,,,,,,,a,1,0.5295,"[""0.318"",""0.712"",""0.621"",""0.917""]","[1,0,1,1]",0,48,48,48,1,0,1,,,0,FALSE,,,,,,,,,,,,,,,,,,,,,,,,,,,,,,
,6015e35e090d3e73fe032443,001,2022-04-29_03h09.55.226,classification_task,2021.2.3,Win32,60.72751564,6015e35e090d3e73fe032443,626b377229c10585ec392f89,626b3a930cf54eb8b1304e51,,,,,,,,,,,,,,,,,,,,,,,a,0,0.5664,"[""0.126"",""0.418"",""0.031"",""0.826""]","[1,1,0,1]",0,49,49,49,1,1,1,,,0,FALSE,,,,,,,,,,,,,,,,,,,,,,,,,,,,,,
,6015e35e090d3e73fe032443,001,2022-04-29_03h09.55.226,classification_task,2021.2.3,Win32,60.72751564,6015e35e090d3e73fe032443,626b377229c10585ec392f89,626b3a930cf54eb8b1304e51,,,,,,,,,,,,,,,,,,,,,,,l,1,0.594,"[""0.080"",""0.253"",""0.585"",""0.785""]","[1,1,1,0]",0,50,50,50,1,1,0,,,0,FALSE,,,,,,,,,,,,,,,,,,,,,,,,,,,,,,
,6015e35e090d3e73fe032443,001,2022-04-29_03h09.55.226,classification_task,2021.2.3,Win32,60.72751564,6015e35e090d3e73fe032443,626b377229c10585ec392f89,626b3a930cf54eb8b1304e51,,,,,,,,,,,,,,,,,,,,,,,l,1,0.7178,"[""0.473"",""0.253"",""0.585"",""0.748""]","[0,1,1,1]",0,51,51,51,1,1,0,,,0,FALSE,,,,,,,,,,,,,,,,,,,,,,,,,,,,,,
,6015e35e090d3e73fe032443,001,2022-04-29_03h09.55.226,classification_task,2021.2.3,Win32,60.72751564,6015e35e090d3e73fe032443,626b377229c10585ec392f89,626b3a930cf54eb8b1304e51,,,,,,,,,,,,,,,,,,,,,,,a,0,0.7311,"[""0.035"",""0.418"",""0.665"",""0.826""]","[0,1,1,1]",0,52,52,52,1,1,1,,,0,FALSE,,,,,,,,,,,,,,,,,,,,,,,,,,,,,,
,6015e35e090d3e73fe032443,001,2022-04-29_03h09.55.226,classification_task,2021.2.3,Win32,60.72751564,6015e35e090d3e73fe032443,626b377229c10585ec392f89,626b3a930cf54eb8b1304e51,,,,,,,,,,,,,,,,,,,,,,,l,0,0.7789,"[""0.195"",""0.706"",""0.881"",""0.956""]","[1,0,1,1]",0,53,53,53,1,0,0,,,0,FALSE,,,,,,,,,,,,,,,,,,,,,,,,,,,,,,
,6015e35e090d3e73fe032443,001,2022-04-29_03h09.55.226,classification_task,2021.2.3,Win32,60.72751564,6015e35e090d3e73fe032443,626b377229c10585ec392f89,626b3a930cf54eb8b1304e51,,,,,,,,,,,,,,,,,,,,,,,l,1,0.515,"[""0.080"",""0.253"",""0.473"",""0.748""]","[1,1,0,1]",0,54,54,54,1,1,0,,,0,FALSE,,,,,,,,,,,,,,,,,,,,,,,,,,,,,,
,6015e35e090d3e73fe032443,001,2022-04-29_03h09.55.226,classification_task,2021.2.3,Win32,60.72751564,6015e35e090d3e73fe032443,626b377229c10585ec392f89,626b3a930cf54eb8b1304e51,,,,,,,,,,,,,,,,,,,,,,,a,1,0.4992,"[""0.712"",""0.521"",""0.881"",""0.956""]","[0,1,1,1]",0,55,55,55,1,0,0,,,0,FALSE,,,,,,,,,,,,,,,,,,,,,,,,,,,,,,
,6015e35e090d3e73fe032443,001,2022-04-29_03h09.55.226,classification_task,2021.2.3,Win32,60.72751564,6015e35e090d3e73fe032443,626b377229c10585ec392f89,626b3a930cf54eb8b1304e51,,,,,,,,,,,,,,,,,,,,,,,l,0,0.6795,"[""0.712"",""0.370"",""0.621"",""0.917""]","[0,1,1,1]",0,56,56,56,1,0,1,,,0,FALSE,,,,,,,,,,,,,,,,,,,,,,,,,,,,,,
,6015e35e090d3e73fe032443,001,2022-04-29_03h09.55.226,classification_task,2021.2.3,Win32,60.72751564,6015e35e090d3e73fe032443,626b377229c10585ec392f89,626b3a930cf54eb8b1304e51,,,,,,,,,,,,,,,,,,,,,,,l,0,0.4108,"[""0.195"",""0.521"",""0.881"",""0.473""]","[1,1,1,0]",0,57,57,57,1,0,0,,,0,FALSE,,,,,,,,,,,,,,,,,,,,,,,,,,,,,,
,6015e35e090d3e73fe032443,001,2022-04-29_03h09.55.226,classification_task,2021.2.3,Win32,60.72751564,6015e35e090d3e73fe032443,626b377229c10585ec392f89,626b3a930cf54eb8b1304e51,,,,,,,,,,,,,,,,,,,,,,,a,1,0.4351,"[""0.195"",""0.521"",""0.473"",""0.956""]","[1,1,0,1]",0,58,58,58,1,0,0,,,0,FALSE,,,,,,,,,,,,,,,,,,,,,,,,,,,,,,
,6015e35e090d3e73fe032443,001,2022-04-29_03h09.55.226,classification_task,2021.2.3,Win32,60.72751564,6015e35e090d3e73fe032443,626b377229c10585ec392f89,626b3a930cf54eb8b1304e51,,,,,,,,,,,,,,,,,,,,,,,a,1,0.6431,"[""0.318"",""0.370"",""0.033"",""0.917""]","[1,1,0,1]",0,59,59,59,1,0,1,,,0,FALSE,,,,,,,,,,,,,,,,,,,,,,,,,,,,,,
,6015e35e090d3e73fe032443,001,2022-04-29_03h09.55.226,classification_task,2021.2.3,Win32,60.72751564,6015e35e090d3e73fe032443,626b377229c10585ec392f89,626b3a930cf54eb8b1304e51,,,,,,,,,,,,,,,,,,,,,,,l,1,0.6524,"[""0.126"",""0.706"",""0.665"",""0.826""]","[1,0,1,1]",0,60,60,60,1,1,1,,,0,FALSE,,,,,,,,,,,,,,,,,,,,,,,,,,,,,,
,6015e35e090d3e73fe032443,001,2022-04-29_03h09.55.226,classification_task,2021.2.3,Win32,60.72751564,6015e35e090d3e73fe032443,626b377229c10585ec392f89,626b3a930cf54eb8b1304e51,,,,,,,,,,,,,,,,,,,,,,,l,1,0.5318,"[""0.080"",""0.473"",""0.585"",""0.748""]","[1,0,1,1]",0,61,61,61,1,1,0,,,0,FALSE,,,,,,,,,,,,,,,,,,,,,,,,,,,,,,
,6015e35e090d3e73fe032443,001,2022-04-29_03h09.55.226,classification_task,2021.2.3,Win32,60.72751564,6015e35e090d3e73fe032443,626b377229c10585ec392f89,626b3a930cf54eb8b1304e51,,,,,,,,,,,,,,,,,,,,,,,a,0,0.6938,"[""0.126"",""0.418"",""0.665"",""0.484""]","[1,1,1,0]",0,62,62,62,1,1,1,,,0,FALSE,,,,,,,,,,,,,,,,,,,,,,,,,,,,,,
,6015e35e090d3e73fe032443,001,2022-04-29_03h09.55.226,classification_task,2021.2.3,Win32,60.72751564,6015e35e090d3e73fe032443,626b377229c10585ec392f89,626b3a930cf54eb8b1304e51,,,,,,,,,,,,,,,,,,,,,,,l,0,0.4845,"[""0.318"",""0.370"",""0.621"",""0.711""]","[1,1,1,0]",0,63,63,63,1,0,1,,,0,FALSE,,,,,,,,,,,,,,,,,,,,,,,,,,,,,,
,6015e35e090d3e73fe032443,001,2022-04-29_03h09.55.226,classification_task,2021.2.3,Win32,60.72751564,6015e35e090d3e73fe032443,626b377229c10585ec392f89,626b3a930cf54eb8b1304e51,,,,,,,,,,,,,,,,,,,,,,,,,,,,,,,,,,,,,,,0, ,,0,2.09117186,117.8533,0,1,1,1,1,2,2,,,,,,,,,,,,,,,,,
,6015e35e090d3e73fe032443,001,2022-04-29_03h09.55.226,classification_task,2021.2.3,Win32,60.72751564,6015e35e090d3e73fe032443,626b377229c10585ec392f89,626b3a930cf54eb8b1304e51,,,,,,,,,,,,,,,,,,,,,,,,,,,,,,,,,,,,,,,1,  ,,0,2.924015659,119.683,0,1,1,1,1,2,2,,,,,,,,,,,,,,,,,
,6015e35e090d3e73fe032443,001,2022-04-29_03h09.55.226,classification_task,2021.2.3,Win32,60.72751564,6015e35e090d3e73fe032443,626b377229c10585ec392f89,626b3a930cf54eb8b1304e51,,,,,,,,,,,,,,,,,,,,,,,,,,,,,,,,,,,,,,,2,  ,,0,2.94851068,121.9767,0,1,1,1,1,2,2,,,,,,,,,,,,,,,,,
,6015e35e090d3e73fe032443,001,2022-04-29_03h09.55.226,classification_task,2021.2.3,Win32,60.72751564,6015e35e090d3e73fe032443,626b377229c10585ec392f89,626b3a930cf54eb8b1304e51,,,,,,,,,,,,,,,,,,,,,,,,,,,,,,,,,,,,,,,,,,,,,0,1,1,1,1,,2,,,,,,,,,,,,,,,,,
,6015e35e090d3e73fe032443,001,2022-04-29_03h09.55.226,classification_task,2021.2.3,Win32,60.72751564,6015e35e090d3e73fe032443,626b377229c10585ec392f89,626b3a930cf54eb8b1304e51,,,,,,,,,,,,,,,,,,,,,space,2.2277,a,0,0.8978,"[""0.126"",""0.418"",""0.665"",""0.037""]","[1,1,1,0]",0,0,0,0,1,1,1,,,0,FALSE,,,,,,,,,,,,,,,,,,,,,,,,,,,,,,
,6015e35e090d3e73fe032443,001,2022-04-29_03h09.55.226,classification_task,2021.2.3,Win32,60.72751564,6015e35e090d3e73fe032443,626b377229c10585ec392f89,626b3a930cf54eb8b1304e51,,,,,,,,,,,,,,,,,,,,,,,l,0,1.8513,"[""0.195"",""0.521"",""0.881"",""0.707""]","[1,1,1,0]",0,1,1,1,1,0,0,,,0,FALSE,,,,,,,,,,,,,,,,,,,,,,,,,,,,,,
,6015e35e090d3e73fe032443,001,2022-04-29_03h09.55.226,classification_task,2021.2.3,Win32,60.72751564,6015e35e090d3e73fe032443,626b377229c10585ec392f89,626b3a930cf54eb8b1304e51,,,,,,,,,,,,,,,,,,,,,,,l,1,1.0436,"[""0.126"",""0.418"",""0.707"",""0.826""]","[1,1,0,1]",0,2,2,2,1,1,1,,,0,FALSE,,,,,,,,,,,,,,,,,,,,,,,,,,,,,,
,6015e35e090d3e73fe032443,001,2022-04-29_03h09.55.226,classification_task,2021.2.3,Win32,60.72751564,6015e35e090d3e73fe032443,626b377229c10585ec392f89,626b3a930cf54eb8b1304e51,,,,,,,,,,,,,,,,,,,,,,,a,1,0.5184,"[""0.318"",""0.712"",""0.621"",""0.917""]","[1,0,1,1]",0,3,3,3,1,0,1,,,0,FALSE,,,,,,,,,,,,,,,,,,,,,,,,,,,,,,
,6015e35e090d3e73fe032443,001,2022-04-29_03h09.55.226,classification_task,2021.2.3,Win32,60.72751564,6015e35e090d3e73fe032443,626b377229c10585ec392f89,626b3a930cf54eb8b1304e51,,,,,,,,,,,,,,,,,,,,,,,a,0,1.1616,"[""0.080"",""0.253"",""0.785"",""0.748""]","[1,1,0,1]",0,4,4,4,1,1,0,,,0,FALSE,,,,,,,,,,,,,,,,,,,,,,,,,,,,,,
,6015e35e090d3e73fe032443,001,2022-04-29_03h09.55.226,classification_task,2021.2.3,Win32,60.72751564,6015e35e090d3e73fe032443,626b377229c10585ec392f89,626b3a930cf54eb8b1304e51,,,,,,,,,,,,,,,,,,,,,,,l,0,0.5414,"[""0.703"",""0.521"",""0.881"",""0.956""]","[0,1,1,1]",0,5,5,5,1,0,0,,,0,FALSE,,,,,,,,,,,,,,,,,,,,,,,,,,,,,,
,6015e35e090d3e73fe032443,001,2022-04-29_03h09.55.226,classification_task,2021.2.3,Win32,60.72751564,6015e35e090d3e73fe032443,626b377229c10585ec392f89,626b3a930cf54eb8b1304e51,,,,,,,,,,,,,,,,,,,,,,,a,1,1.1157,"[""0.195"",""0.521"",""0.473"",""0.956""]","[1,1,0,1]",0,6,6,6,1,0,0,,,0,FALSE,,,,,,,,,,,,,,,,,,,,,,,,,,,,,,
,6015e35e090d3e73fe032443,001,2022-04-29_03h09.55.226,classification_task,2021.2.3,Win32,60.72751564,6015e35e090d3e73fe032443,626b377229c10585ec392f89,626b3a930cf54eb8b1304e51,,,,,,,,,,,,,,,,,,,,,,,l,1,1.432,"[""0.126"",""0.706"",""0.665"",""0.826""]","[1,0,1,1]",0,7,7,7,1,1,1,,,0,FALSE,,,,,,,,,,,,,,,,,,,,,,,,,,,,,,
,6015e35e090d3e73fe032443,001,2022-04-29_03h09.55.226,classification_task,2021.2.3,Win32,60.72751564,6015e35e090d3e73fe032443,626b377229c10585ec392f89,626b3a930cf54eb8b1304e51,,,,,,,,,,,,,,,,,,,,,,,l,0,0.5596,"[""0.318"",""0.370"",""0.035"",""0.917""]","[1,1,0,1]",0,8,8,8,1,0,1,,,0,FALSE,,,,,,,,,,,,,,,,,,,,,,,,,,,,,,
,6015e35e090d3e73fe032443,001,2022-04-29_03h09.55.226,classification_task,2021.2.3,Win32,60.72751564,6015e35e090d3e73fe032443,626b377229c10585ec392f89,626b3a930cf54eb8b1304e51,,,,,,,,,,,,,,,,,,,,,,,l,1,0.8657,"[""0.080"",""0.253"",""0.585"",""0.706""]","[1,1,1,0]",0,9,9,9,1,1,0,,,0,FALSE,,,,,,,,,,,,,,,,,,,,,,,,,,,,,,
,6015e35e090d3e73fe032443,001,2022-04-29_03h09.55.226,classification_task,2021.2.3,Win32,60.72751564,6015e35e090d3e73fe032443,626b377229c10585ec392f89,626b3a930cf54eb8b1304e51,,,,,,,,,,,,,,,,,,,,,,,a,0,0.3999,"[""0.473"",""0.253"",""0.585"",""0.748""]","[0,1,1,1]",0,10,10,10,1,1,0,,,0,FALSE,,,,,,,,,,,,,,,,,,,,,,,,,,,,,,
,6015e35e090d3e73fe032443,001,2022-04-29_03h09.55.226,classification_task,2021.2.3,Win32,60.72751564,6015e35e090d3e73fe032443,626b377229c10585ec392f89,626b3a930cf54eb8b1304e51,,,,,,,,,,,,,,,,,,,,,,,a,1,0.4654,"[""0.707"",""0.370"",""0.621"",""0.917""]","[0,1,1,1]",0,11,11,11,1,0,1,,,0,FALSE,,,,,,,,,,,,,,,,,,,,,,,,,,,,,,
,6015e35e090d3e73fe032443,001,2022-04-29_03h09.55.226,classification_task,2021.2.3,Win32,60.72751564,6015e35e090d3e73fe032443,626b377229c10585ec392f89,626b3a930cf54eb8b1304e51,,,,,,,,,,,,,,,,,,,,,,,l,1,0.5467,"[""0.080"",""0.473"",""0.585"",""0.748""]","[1,0,1,1]",0,12,12,12,1,1,0,,,0,FALSE,,,,,,,,,,,,,,,,,,,,,,,,,,,,,,
,6015e35e090d3e73fe032443,001,2022-04-29_03h09.55.226,classification_task,2021.2.3,Win32,60.72751564,6015e35e090d3e73fe032443,626b377229c10585ec392f89,626b3a930cf54eb8b1304e51,,,,,,,,,,,,,,,,,,,,,,,a,1,0.6012,"[""0.195"",""0.473"",""0.881"",""0.956""]","[1,0,1,1]",0,13,13,13,1,0,0,,,0,FALSE,,,,,,,,,,,,,,,,,,,,,,,,,,,,,,
,6015e35e090d3e73fe032443,001,2022-04-29_03h09.55.226,classification_task,2021.2.3,Win32,60.72751564,6015e35e090d3e73fe032443,626b377229c10585ec392f89,626b3a930cf54eb8b1304e51,,,,,,,,,,,,,,,,,,,,,,,l,1,0.4167,"[""0.035"",""0.418"",""0.665"",""0.826""]","[0,1,1,1]",0,14,14,14,1,1,1,,,0,FALSE,,,,,,,,,,,,,,,,,,,,,,,,,,,,,,
,6015e35e090d3e73fe032443,001,2022-04-29_03h09.55.226,classification_task,2021.2.3,Win32,60.72751564,6015e35e090d3e73fe032443,626b377229c10585ec392f89,626b3a930cf54eb8b1304e51,,,,,,,,,,,,,,,,,,,,,,,a,1,0.7015,"[""0.318"",""0.370"",""0.621"",""0.707""]","[1,1,1,0]",0,15,15,15,1,0,1,,,0,FALSE,,,,,,,,,,,,,,,,,,,,,,,,,,,,,,
,6015e35e090d3e73fe032443,001,2022-04-29_03h09.55.226,classification_task,2021.2.3,Win32,60.72751564,6015e35e090d3e73fe032443,626b377229c10585ec392f89,626b3a930cf54eb8b1304e51,,,,,,,,,,,,,,,,,,,,,,,a,0,1.1179,"[""0.126"",""0.418"",""0.711"",""0.826""]","[1,1,0,1]",0,16,16,16,1,1,1,,,0,FALSE,,,,,,,,,,,,,,,,,,,,,,,,,,,,,,
,6015e35e090d3e73fe032443,001,2022-04-29_03h09.55.226,classification_task,2021.2.3,Win32,60.72751564,6015e35e090d3e73fe032443,626b377229c10585ec392f89,626b3a930cf54eb8b1304e51,,,,,,,,,,,,,,,,,,,,,,,a,0,0.7186,"[""0.706"",""0.418"",""0.665"",""0.826""]","[0,1,1,1]",0,17,17,17,1,1,1,,,0,FALSE,,,,,,,,,,,,,,,,,,,,,,,,,,,,,,
,6015e35e090d3e73fe032443,001,2022-04-29_03h09.55.226,classification_task,2021.2.3,Win32,60.72751564,6015e35e090d3e73fe032443,626b377229c10585ec392f89,626b3a930cf54eb8b1304e51,,,,,,,,,,,,,,,,,,,,,,,l,0,0.3867,"[""0.318"",""0.035"",""0.621"",""0.917""]","[1,0,1,1]",0,18,18,18,1,0,1,,,0,FALSE,,,,,,,,,,,,,,,,,,,,,,,,,,,,,,
,6015e35e090d3e73fe032443,001,2022-04-29_03h09.55.226,classification_task,2021.2.3,Win32,60.72751564,6015e35e090d3e73fe032443,626b377229c10585ec392f89,626b3a930cf54eb8b1304e51,,,,,,,,,,,,,,,,,,,,,,,a,0,0.6175,"[""0.080"",""0.253"",""0.585"",""0.785""]","[1,1,1,0]",0,19,19,19,1,1,0,,,0,FALSE,,,,,,,,,,,,,,,,,,,,,,,,,,,,,,
,6015e35e090d3e73fe032443,001,2022-04-29_03h09.55.226,classification_task,2021.2.3,Win32,60.72751564,6015e35e090d3e73fe032443,626b377229c10585ec392f89,626b3a930cf54eb8b1304e51,,,,,,,,,,,,,,,,,,,,,,,l,0,1.2324,"[""0.484"",""0.521"",""0.881"",""0.956""]","[0,1,1,1]",0,20,20,20,1,0,0,,,0,FALSE,,,,,,,,,,,,,,,,,,,,,,,,,,,,,,
,6015e35e090d3e73fe032443,001,2022-04-29_03h09.55.226,classification_task,2021.2.3,Win32,60.72751564,6015e35e090d3e73fe032443,626b377229c10585ec392f89,626b3a930cf54eb8b1304e51,,,,,,,,,,,,,,,,,,,,,,,a,0,0.4108,"[""0.080"",""0.484"",""0.585"",""0.748""]","[1,0,1,1]",0,21,21,21,1,1,0,,,0,FALSE,,,,,,,,,,,,,,,,,,,,,,,,,,,,,,
,6015e35e090d3e73fe032443,001,2022-04-29_03h09.55.226,classification_task,2021.2.3,Win32,60.72751564,6015e35e090d3e73fe032443,626b377229c10585ec392f89,626b3a930cf54eb8b1304e51,,,,,,,,,,,,,,,,,,,,,,,a,0,0.4507,"[""0.126"",""0.785"",""0.665"",""0.826""]","[1,0,1,1]",0,22,22,22,1,1,1,,,0,FALSE,,,,,,,,,,,,,,,,,,,,,,,,,,,,,,
,6015e35e090d3e73fe032443,001,2022-04-29_03h09.55.226,classification_task,2021.2.3,Win32,60.72751564,6015e35e090d3e73fe032443,626b377229c10585ec392f89,626b3a930cf54eb8b1304e51,,,,,,,,,,,,,,,,,,,,,,,l,1,0.3652,"[""0.126"",""0.418"",""0.665"",""0.037""]","[1,1,1,0]",0,23,23,23,1,1,1,,,0,FALSE,,,,,,,,,,,,,,,,,,,,,,,,,,,,,,
,6015e35e090d3e73fe032443,001,2022-04-29_03h09.55.226,classification_task,2021.2.3,Win32,60.72751564,6015e35e090d3e73fe032443,626b377229c10585ec392f89,626b3a930cf54eb8b1304e51,,,,,,,,,,,,,,,,,,,,,,,a,1,0.4189,"[""0.318"",""0.370"",""0.621"",""0.707""]","[1,1,1,0]",0,24,24,24,1,0,1,,,0,FALSE,,,,,,,,,,,,,,,,,,,,,,,,,,,,,,
,6015e35e090d3e73fe032443,001,2022-04-29_03h09.55.226,classification_task,2021.2.3,Win32,60.72751564,6015e35e090d3e73fe032443,626b377229c10585ec392f89,626b3a930cf54eb8b1304e51,,,,,,,,,,,,,,,,,,,,,,,l,0,0.4315,"[""0.195"",""0.521"",""0.881"",""0.785""]","[1,1,1,0]",0,25,25,25,1,0,0,,,0,FALSE,,,,,,,,,,,,,,,,,,,,,,,,,,,,,,
,6015e35e090d3e73fe032443,001,2022-04-29_03h09.55.226,classification_task,2021.2.3,Win32,60.72751564,6015e35e090d3e73fe032443,626b377229c10585ec392f89,626b3a930cf54eb8b1304e51,,,,,,,,,,,,,,,,,,,,,,,a,1,0.37,"[""0.195"",""0.037"",""0.881"",""0.956""]","[1,0,1,1]",0,26,26,26,1,0,0,,,0,FALSE,,,,,,,,,,,,,,,,,,,,,,,,,,,,,,
,6015e35e090d3e73fe032443,001,2022-04-29_03h09.55.226,classification_task,2021.2.3,Win32,60.72751564,6015e35e090d3e73fe032443,626b377229c10585ec392f89,626b3a930cf54eb8b1304e51,,,,,,,,,,,,,,,,,,,,,,,a,0,0.4171,"[""0.080"",""0.253"",""0.712"",""0.748""]","[1,1,0,1]",0,27,27,27,1,1,0,,,0,FALSE,,,,,,,,,,,,,,,,,,,,,,,,,,,,,,
,6015e35e090d3e73fe032443,001,2022-04-29_03h09.55.226,classification_task,2021.2.3,Win32,60.72751564,6015e35e090d3e73fe032443,626b377229c10585ec392f89,626b3a930cf54eb8b1304e51,,,,,,,,,,,,,,,,,,,,,,,l,0,0.5008,"[""0.318"",""0.370"",""0.707"",""0.917""]","[1,1,0,1]",0,28,28,28,1,0,1,,,0,FALSE,,,,,,,,,,,,,,,,,,,,,,,,,,,,,,
,6015e35e090d3e73fe032443,001,2022-04-29_03h09.55.226,classification_task,2021.2.3,Win32,60.72751564,6015e35e090d3e73fe032443,626b377229c10585ec392f89,626b3a930cf54eb8b1304e51,,,,,,,,,,,,,,,,,,,,,,,l,0,0.4675,"[""0.195"",""0.521"",""0.033"",""0.956""]","[1,1,0,1]",0,29,29,29,1,0,0,,,0,FALSE,,,,,,,,,,,,,,,,,,,,,,,,,,,,,,
,6015e35e090d3e73fe032443,001,2022-04-29_03h09.55.226,classification_task,2021.2.3,Win32,60.72751564,6015e35e090d3e73fe032443,626b377229c10585ec392f89,626b3a930cf54eb8b1304e51,,,,,,,,,,,,,,,,,,,,,,,a,1,0.2817,"[""0.037"",""0.370"",""0.621"",""0.917""]","[0,1,1,1]",0,30,30,30,1,0,1,,,0,FALSE,,,,,,,,,,,,,,,,,,,,,,,,,,,,,,
,6015e35e090d3e73fe032443,001,2022-04-29_03h09.55.226,classification_task,2021.2.3,Win32,60.72751564,6015e35e090d3e73fe032443,626b377229c10585ec392f89,626b3a930cf54eb8b1304e51,,,,,,,,,,,,,,,,,,,,,,,a,0,0.2497,"[""0.712"",""0.253"",""0.585"",""0.748""]","[0,1,1,1]",0,31,31,31,1,1,0,,,0,FALSE,,,,,,,,,,,,,,,,,,,,,,,,,,,,,,
,6015e35e090d3e73fe032443,001,2022-04-29_03h09.55.226,classification_task,2021.2.3,Win32,60.72751564,6015e35e090d3e73fe032443,626b377229c10585ec392f89,626b3a930cf54eb8b1304e51,,,,,,,,,,,,,,,,,,,,,,,a,1,0.2853,"[""0.195"",""0.521"",""0.484"",""0.956""]","[1,1,0,1]",0,32,32,32,1,0,0,,,0,FALSE,,,,,,,,,,,,,,,,,,,,,,,,,,,,,,
,6015e35e090d3e73fe032443,001,2022-04-29_03h09.55.226,classification_task,2021.2.3,Win32,60.72751564,6015e35e090d3e73fe032443,626b377229c10585ec392f89,626b3a930cf54eb8b1304e51,,,,,,,,,,,,,,,,,,,,,,,l,0,0.1714,"[""0.031"",""0.370"",""0.621"",""0.917""]","[0,1,1,1]",0,33,33,33,1,0,1,,,0,FALSE,,,,,,,,,,,,,,,,,,,,,,,,,,,,,,
,6015e35e090d3e73fe032443,001,2022-04-29_03h09.55.226,classification_task,2021.2.3,Win32,60.72751564,6015e35e090d3e73fe032443,626b377229c10585ec392f89,626b3a930cf54eb8b1304e51,,,,,,,,,,,,,,,,,,,,,,,a,0,0.4332,"[""0.080"",""0.042"",""0.585"",""0.748""]","[1,0,1,1]",0,34,34,34,1,1,0,,,0,FALSE,,,,,,,,,,,,,,,,,,,,,,,,,,,,,,
,6015e35e090d3e73fe032443,001,2022-04-29_03h09.55.226,classification_task,2021.2.3,Win32,60.72751564,6015e35e090d3e73fe032443,626b377229c10585ec392f89,626b3a930cf54eb8b1304e51,,,,,,,,,,,,,,,,,,,,,,,a,1,0.4476,"[""0.318"",""0.370"",""0.621"",""0.035""]","[1,1,1,0]",0,35,35,35,1,0,1,,,0,FALSE,,,,,,,,,,,,,,,,,,,,,,,,,,,,,,
,6015e35e090d3e73fe032443,001,2022-04-29_03h09.55.226,classification_task,2021.2.3,Win32,60.72751564,6015e35e090d3e73fe032443,626b377229c10585ec392f89,626b3a930cf54eb8b1304e51,,,,,,,,,,,,,,,,,,,,,,,l,1,0.2318,"[""0.080"",""0.253"",""0.585"",""0.453""]","[1,1,1,0]",0,36,36,36,1,1,0,,,0,FALSE,,,,,,,,,,,,,,,,,,,,,,,,,,,,,,
,6015e35e090d3e73fe032443,001,2022-04-29_03h09.55.226,classification_task,2021.2.3,Win32,60.72751564,6015e35e090d3e73fe032443,626b377229c10585ec392f89,626b3a930cf54eb8b1304e51,,,,,,,,,,,,,,,,,,,,,,,a,1,0.1879,"[""0.785"",""0.521"",""0.881"",""0.956""]","[0,1,1,1]",0,37,37,37,1,0,0,,,0,FALSE,,,,,,,,,,,,,,,,,,,,,,,,,,,,,,
,6015e35e090d3e73fe032443,001,2022-04-29_03h09.55.226,classification_task,2021.2.3,Win32,60.72751564,6015e35e090d3e73fe032443,626b377229c10585ec392f89,626b3a930cf54eb8b1304e51,,,,,,,,,,,,,,,,,,,,,,,a,1,0.2505,"[""0.195"",""0.703"",""0.881"",""0.956""]","[1,0,1,1]",0,38,38,38,1,0,0,,,0,FALSE,,,,,,,,,,,,,,,,,,,,,,,,,,,,,,
,6015e35e090d3e73fe032443,001,2022-04-29_03h09.55.226,classification_task,2021.2.3,Win32,60.72751564,6015e35e090d3e73fe032443,626b377229c10585ec392f89,626b3a930cf54eb8b1304e51,,,,,,,,,,,,,,,,,,,,,,,a,1,0.2521,"[""0.318"",""0.370"",""0.707"",""0.917""]","[1,1,0,1]",0,39,39,39,1,0,1,,,0,FALSE,,,,,,,,,,,,,,,,,,,,,,,,,,,,,,
,6015e35e090d3e73fe032443,001,2022-04-29_03h09.55.226,classification_task,2021.2.3,Win32,60.72751564,6015e35e090d3e73fe032443,626b377229c10585ec392f89,626b3a930cf54eb8b1304e51,,,,,,,,,,,,,,,,,,,,,,,l,0,0.2499,"[""0.195"",""0.521"",""0.881"",""0.785""]","[1,1,1,0]",0,40,40,40,1,0,0,,,0,FALSE,,,,,,,,,,,,,,,,,,,,,,,,,,,,,,
,6015e35e090d3e73fe032443,001,2022-04-29_03h09.55.226,classification_task,2021.2.3,Win32,60.72751564,6015e35e090d3e73fe032443,626b377229c10585ec392f89,626b3a930cf54eb8b1304e51,,,,,,,,,,,,,,,,,,,,,,,l,1,0.2647,"[""0.126"",""0.031"",""0.665"",""0.826""]","[1,0,1,1]",0,41,41,41,1,1,1,,,0,FALSE,,,,,,,,,,,,,,,,,,,,,,,,,,,,,,
,6015e35e090d3e73fe032443,001,2022-04-29_03h09.55.226,classification_task,2021.2.3,Win32,60.72751564,6015e35e090d3e73fe032443,626b377229c10585ec392f89,626b3a930cf54eb8b1304e51,,,,,,,,,,,,,,,,,,,,,,,a,0,0.2179,"[""0.712"",""0.418"",""0.665"",""0.826""]","[0,1,1,1]",0,42,42,42,1,1,1,,,0,FALSE,,,,,,,,,,,,,,,,,,,,,,,,,,,,,,
,6015e35e090d3e73fe032443,001,2022-04-29_03h09.55.226,classification_task,2021.2.3,Win32,60.72751564,6015e35e090d3e73fe032443,626b377229c10585ec392f89,626b3a930cf54eb8b1304e51,,,,,,,,,,,,,,,,,,,,,,,a,0,0.2192,"[""0.126"",""0.418"",""0.453"",""0.826""]","[1,1,0,1]",0,43,43,43,1,1,1,,,0,FALSE,,,,,,,,,,,,,,,,,,,,,,,,,,,,,,
,6015e35e090d3e73fe032443,001,2022-04-29_03h09.55.226,classification_task,2021.2.3,Win32,60.72751564,6015e35e090d3e73fe032443,626b377229c10585ec392f89,626b3a930cf54eb8b1304e51,,,,,,,,,,,,,,,,,,,,,,,l,0,0.101,"[""0.318"",""0.706"",""0.621"",""0.917""]","[1,0,1,1]",0,44,44,44,1,0,1,,,0,FALSE,,,,,,,,,,,,,,,,,,,,,,,,,,,,,,
,6015e35e090d3e73fe032443,001,2022-04-29_03h09.55.226,classification_task,2021.2.3,Win32,60.72751564,6015e35e090d3e73fe032443,626b377229c10585ec392f89,626b3a930cf54eb8b1304e51,,,,,,,,,,,,,,,,,,,,,,,l,1,0.2164,"[""0.126"",""0.418"",""0.665"",""0.785""]","[1,1,1,0]",0,45,45,45,1,1,1,,,0,FALSE,,,,,,,,,,,,,,,,,,,,,,,,,,,,,,
,6015e35e090d3e73fe032443,001,2022-04-29_03h09.55.226,classification_task,2021.2.3,Win32,60.72751564,6015e35e090d3e73fe032443,626b377229c10585ec392f89,626b3a930cf54eb8b1304e51,,,,,,,,,,,,,,,,,,,,,,,l,1,0.2693,"[""0.703"",""0.253"",""0.585"",""0.748""]","[0,1,1,1]",0,46,46,46,1,1,0,,,0,FALSE,,,,,,,,,,,,,,,,,,,,,,,,,,,,,,
,6015e35e090d3e73fe032443,001,2022-04-29_03h09.55.226,classification_task,2021.2.3,Win32,60.72751564,6015e35e090d3e73fe032443,626b377229c10585ec392f89,626b3a930cf54eb8b1304e51,,,,,,,,,,,,,,,,,,,,,,,a,0,0.2359,"[""0.080"",""0.253"",""0.711"",""0.748""]","[1,1,0,1]",0,47,47,47,1,1,0,,,0,FALSE,,,,,,,,,,,,,,,,,,,,,,,,,,,,,,
,6015e35e090d3e73fe032443,001,2022-04-29_03h09.55.226,classification_task,2021.2.3,Win32,60.72751564,6015e35e090d3e73fe032443,626b377229c10585ec392f89,626b3a930cf54eb8b1304e51,,,,,,,,,,,,,,,,,,,,,,,a,1,0.2349,"[""0.318"",""0.037"",""0.621"",""0.917""]","[1,0,1,1]",0,48,48,48,1,0,1,,,0,FALSE,,,,,,,,,,,,,,,,,,,,,,,,,,,,,,
,6015e35e090d3e73fe032443,001,2022-04-29_03h09.55.226,classification_task,2021.2.3,Win32,60.72751564,6015e35e090d3e73fe032443,626b377229c10585ec392f89,626b3a930cf54eb8b1304e51,,,,,,,,,,,,,,,,,,,,,,,a,0,0.2833,"[""0.126"",""0.418"",""0.665"",""0.707""]","[1,1,1,0]",0,49,49,49,1,1,1,,,0,FALSE,,,,,,,,,,,,,,,,,,,,,,,,,,,,,,
,6015e35e090d3e73fe032443,001,2022-04-29_03h09.55.226,classification_task,2021.2.3,Win32,60.72751564,6015e35e090d3e73fe032443,626b377229c10585ec392f89,626b3a930cf54eb8b1304e51,,,,,,,,,,,,,,,,,,,,,,,l,0,0.2387,"[""0.195"",""0.042"",""0.881"",""0.956""]","[1,0,1,1]",0,50,50,50,1,0,0,,,0,FALSE,,,,,,,,,,,,,,,,,,,,,,,,,,,,,,
,6015e35e090d3e73fe032443,001,2022-04-29_03h09.55.226,classification_task,2021.2.3,Win32,60.72751564,6015e35e090d3e73fe032443,626b377229c10585ec392f89,626b3a930cf54eb8b1304e51,,,,,,,,,,,,,,,,,,,,,,,a,0,0.1338,"[""0.707"",""0.418"",""0.665"",""0.826""]","[0,1,1,1]",0,51,51,51,1,1,1,,,0,FALSE,,,,,,,,,,,,,,,,,,,,,,,,,,,,,,
,6015e35e090d3e73fe032443,001,2022-04-29_03h09.55.226,classification_task,2021.2.3,Win32,60.72751564,6015e35e090d3e73fe032443,626b377229c10585ec392f89,626b3a930cf54eb8b1304e51,,,,,,,,,,,,,,,,,,,,,,,l,1,0.2346,"[""0.126"",""0.418"",""0.707"",""0.826""]","[1,1,0,1]",0,52,52,52,1,1,1,,,0,FALSE,,,,,,,,,,,,,,,,,,,,,,,,,,,,,,
,6015e35e090d3e73fe032443,001,2022-04-29_03h09.55.226,classification_task,2021.2.3,Win32,60.72751564,6015e35e090d3e73fe032443,626b377229c10585ec392f89,626b3a930cf54eb8b1304e51,,,,,,,,,,,,,,,,,,,,,,,a,0,0.1473,"[""0.080"",""0.707"",""0.585"",""0.748""]","[1,0,1,1]",0,53,53,53,1,1,0,,,0,FALSE,,,,,,,,,,,,,,,,,,,,,,,,,,,,,,
,6015e35e090d3e73fe032443,001,2022-04-29_03h09.55.226,classification_task,2021.2.3,Win32,60.72751564,6015e35e090d3e73fe032443,626b377229c10585ec392f89,626b3a930cf54eb8b1304e51,,,,,,,,,,,,,,,,,,,,,,,a,1,0.1307,"[""0.195"",""0.521"",""0.707"",""0.956""]","[1,1,0,1]",0,54,54,54,1,0,0,,,0,FALSE,,,,,,,,,,,,,,,,,,,,,,,,,,,,,,
,6015e35e090d3e73fe032443,001,2022-04-29_03h09.55.226,classification_task,2021.2.3,Win32,60.72751564,6015e35e090d3e73fe032443,626b377229c10585ec392f89,626b3a930cf54eb8b1304e51,,,,,,,,,,,,,,,,,,,,,,,l,0,0.0853,"[""0.318"",""0.370"",""0.621"",""0.484""]","[1,1,1,0]",0,55,55,55,1,0,1,,,0,FALSE,,,,,,,,,,,,,,,,,,,,,,,,,,,,,,
,6015e35e090d3e73fe032443,001,2022-04-29_03h09.55.226,classification_task,2021.2.3,Win32,60.72751564,6015e35e090d3e73fe032443,626b377229c10585ec392f89,626b3a930cf54eb8b1304e51,,,,,,,,,,,,,,,,,,,,,,,l,1,0.0858,"[""0.080"",""0.253"",""0.585"",""0.473""]","[1,1,1,0]",0,56,56,56,1,1,0,,,0,FALSE,,,,,,,,,,,,,,,,,,,,,,,,,,,,,,
,6015e35e090d3e73fe032443,001,2022-04-29_03h09.55.226,classification_task,2021.2.3,Win32,60.72751564,6015e35e090d3e73fe032443,626b377229c10585ec392f89,626b3a930cf54eb8b1304e51,,,,,,,,,,,,,,,,,,,,,,,a,1,0.2192,"[""0.033"",""0.521"",""0.881"",""0.956""]","[0,1,1,1]",0,57,57,57,1,0,0,,,0,FALSE,,,,,,,,,,,,,,,,,,,,,,,,,,,,,,
,6015e35e090d3e73fe032443,001,2022-04-29_03h09.55.226,classification_task,2021.2.3,Win32,60.72751564,6015e35e090d3e73fe032443,626b377229c10585ec392f89,626b3a930cf54eb8b1304e51,,,,,,,,,,,,,,,,,,,,,,,a,1,0.1988,"[""0.318"",""0.370"",""0.037"",""0.917""]","[1,1,0,1]",0,58,58,58,1,0,1,,,0,FALSE,,,,,,,,,,,,,,,,,,,,,,,,,,,,,,
,6015e35e090d3e73fe032443,001,2022-04-29_03h09.55.226,classification_task,2021.2.3,Win32,60.72751564,6015e35e090d3e73fe032443,626b377229c10585ec392f89,626b3a930cf54eb8b1304e51,,,,,,,,,,,,,,,,,,,,,,,l,0,0.268,"[""0.706"",""0.370"",""0.621"",""0.917""]","[0,1,1,1]",0,59,59,59,1,0,1,,,0,FALSE,,,,,,,,,,,,,,,,,,,,,,,,,,,,,,
,6015e35e090d3e73fe032443,001,2022-04-29_03h09.55.226,classification_task,2021.2.3,Win32,60.72751564,6015e35e090d3e73fe032443,626b377229c10585ec392f89,626b3a930cf54eb8b1304e51,,,,,,,,,,,,,,,,,,,,,,,l,1,0.2829,"[""0.080"",""0.253"",""0.453"",""0.748""]","[1,1,0,1]",0,60,60,60,1,1,0,,,0,FALSE,,,,,,,,,,,,,,,,,,,,,,,,,,,,,,
,6015e35e090d3e73fe032443,001,2022-04-29_03h09.55.226,classification_task,2021.2.3,Win32,60.72751564,6015e35e090d3e73fe032443,626b377229c10585ec392f89,626b3a930cf54eb8b1304e51,,,,,,,,,,,,,,,,,,,,,,,a,1,0.2495,"[""0.195"",""0.521"",""0.881"",""0.707""]","[1,1,1,0]",0,61,61,61,1,0,0,,,0,FALSE,,,,,,,,,,,,,,,,,,,,,,,,,,,,,,
,6015e35e090d3e73fe032443,001,2022-04-29_03h09.55.226,classification_task,2021.2.3,Win32,60.72751564,6015e35e090d3e73fe032443,626b377229c10585ec392f89,626b3a930cf54eb8b1304e51,,,,,,,,,,,,,,,,,,,,,,,a,0,0.2502,"[""0.126"",""0.707"",""0.665"",""0.826""]","[1,0,1,1]",0,62,62,62,1,1,1,,,0,FALSE,,,,,,,,,,,,,,,,,,,,,,,,,,,,,,
,6015e35e090d3e73fe032443,001,2022-04-29_03h09.55.226,classification_task,2021.2.3,Win32,60.72751564,6015e35e090d3e73fe032443,626b377229c10585ec392f89,626b3a930cf54eb8b1304e51,,,,,,,,,,,,,,,,,,,,,,,a,0,0.2508,"[""0.037"",""0.253"",""0.585"",""0.748""]","[0,1,1,1]",0,63,63,63,1,1,0,,,0,FALSE,,,,,,,,,,,,,,,,,,,,,,,,,,,,,,
,6015e35e090d3e73fe032443,001,2022-04-29_03h09.55.226,classification_task,2021.2.3,Win32,60.72751564,6015e35e090d3e73fe032443,626b377229c10585ec392f89,626b3a930cf54eb8b1304e51,,,,,,,,,,,,,,,,,,,,,,,,,,,,,,,,,,,,,,,0, ,,0,1.28282495,103.3678,0,2,2,2,1,2,3,,,,,,,,,,,,,,,,,
,6015e35e090d3e73fe032443,001,2022-04-29_03h09.55.226,classification_task,2021.2.3,Win32,60.72751564,6015e35e090d3e73fe032443,626b377229c10585ec392f89,626b3a930cf54eb8b1304e51,,,,,,,,,,,,,,,,,,,,,,,,,,,,,,,,,,,,,,,1,  ,,0,1.111356065,105.0863,0,2,2,2,1,2,3,,,,,,,,,,,,,,,,,
,6015e35e090d3e73fe032443,001,2022-04-29_03h09.55.226,classification_task,2021.2.3,Win32,60.72751564,6015e35e090d3e73fe032443,626b377229c10585ec392f89,626b3a930cf54eb8b1304e51,,,,,,,,,,,,,,,,,,,,,,,,,,,,,,,,,,,,,,,2,  ,,0,1.086861044,105.7868,0,2,2,2,1,2,3,,,,,,,,,,,,,,,,,
,6015e35e090d3e73fe032443,001,2022-04-29_03h09.55.226,classification_task,2021.2.3,Win32,60.72751564,6015e35e090d3e73fe032443,626b377229c10585ec392f89,626b3a930cf54eb8b1304e51,,,,,,,,,,,,,,,,,,,,,,,,,,,,,,,,,,,,,,,,,,,,,0,2,2,2,1,,3,,,,,,,,,,,,,,,,,
,6015e35e090d3e73fe032443,001,2022-04-29_03h09.55.226,classification_task,2021.2.3,Win32,60.72751564,6015e35e090d3e73fe032443,626b377229c10585ec392f89,626b3a930cf54eb8b1304e51,,,,,,,,,,,,,,,,,,,,,,,,,,,,,,,,,,,,,,,,,,,,,,,,,,,,,I believe the aid is a competent performer,,0.7,0,4,633.232,0,0,0,0,1,0,,,,
,6015e35e090d3e73fe032443,001,2022-04-29_03h09.55.226,classification_task,2021.2.3,Win32,60.72751564,6015e35e090d3e73fe032443,626b377229c10585ec392f89,626b3a930cf54eb8b1304e51,,,,,,,,,,,,,,,,,,,,,,,,,,,,,,,,,,,,,,,,,,,,,,,,,,,,,I trust the aid,,0.7,0,5,634.4933,0,0,0,0,1,0,,,,
,6015e35e090d3e73fe032443,001,2022-04-29_03h09.55.226,classification_task,2021.2.3,Win32,60.72751564,6015e35e090d3e73fe032443,626b377229c10585ec392f89,626b3a930cf54eb8b1304e51,,,,,,,,,,,,,,,,,,,,,,,,,,,,,,,,,,,,,,,,,,,,,,,,,,,,,I have confidence in the advice given by the aid,,0.7,0,5,637.4733,0,0,0,0,1,0,,,,
,6015e35e090d3e73fe032443,001,2022-04-29_03h09.55.226,classification_task,2021.2.3,Win32,60.72751564,6015e35e090d3e73fe032443,626b377229c10585ec392f89,626b3a930cf54eb8b1304e51,,,,,,,,,,,,,,,,,,,,,,,,,,,,,,,,,,,,,,,,,,,,,,,,,,,,,I can depend on the aid,,0.7,0,5,641.4188,0,0,0,0,1,0,,,,
,6015e35e090d3e73fe032443,001,2022-04-29_03h09.55.226,classification_task,2021.2.3,Win32,60.72751564,6015e35e090d3e73fe032443,626b377229c10585ec392f89,626b3a930cf54eb8b1304e51,,,,,,,,,,,,,,,,,,,,,,,,,,,,,,,,,,,,,,,,,,,,,,,,,,,,,I can rely on the aid to behave in consistent ways,,0.7,0,4,644.1356,0,0,0,0,1,0,,,,
,6015e35e090d3e73fe032443,001,2022-04-29_03h09.55.226,classification_task,2021.2.3,Win32,60.72751564,6015e35e090d3e73fe032443,626b377229c10585ec392f89,626b3a930cf54eb8b1304e51,,,,,,,,,,,,,,,,,,,,,,,,,,,,,,,,,,,,,,,,,,,,,,,,,,,,,I can rely on the aid to do its best every time I take its advice,,0.7,0,5,646.7853,0,0,0,0,1,0,,,,
,6015e35e090d3e73fe032443,001,2022-04-29_03h09.55.226,classification_task,2021.2.3,Win32,60.72751564,6015e35e090d3e73fe032443,626b377229c10585ec392f89,626b3a930cf54eb8b1304e51,,,,,,,,,,,,,,,,,,,,,,,,,,,,,,,,,,,,,,,,,,,,,,,,,,,,,"On trials you completed with assistance from the aid, how frequently did you think the aid was correct?",,0.7,0,100,,0,0,0,0,1,0,,,,
,6015e35e090d3e73fe032443,001,2022-04-29_03h09.55.226,classification_task,2021.2.3,Win32,60.72751564,6015e35e090d3e73fe032443,626b377229c10585ec392f89,626b3a930cf54eb8b1304e51,,,,,,,,,,,,,,,,,,,,,,,,,,,,,,,,,,,,,,,,,,,,,,,,,,,,,"On trials you completed without the aid, how frequently did you think you were correct?",,0.7,0,50,,0,0,0,0,1,0,,,,
,6015e35e090d3e73fe032443,001,2022-04-29_03h09.55.226,classification_task,2021.2.3,Win32,60.72751564,6015e35e090d3e73fe032443,626b377229c10585ec392f89,626b3a930cf54eb8b1304e51,,,,,,,,,,,,,,,,,,,,,,,,,,,,,,,,,,,,,,,,,,,,,,,,,,,,,,,,,,,0,0,0,0,1,,,,,
,6015e35e090d3e73fe032443,001,2022-04-29_03h09.55.226,classification_task,2021.2.3,Win32,60.72751564,6015e35e090d3e73fe032443,626b377229c10585ec392f89,626b3a930cf54eb8b1304e51,,,,,,,,,,,,,,,,,,,,,,,,,,,,,,,,,,,,,,,,,,,,,,,,,,,,,,,,,,,,,,,,,space,15.5467,676.7198,
,6015e35e090d3e73fe032443,001,2022-04-29_03h09.55.226,classification_task,2021.2.3,Win32,60.72751564,6015e35e090d3e73fe032443,626b377229c10585ec392f89,626b3a930cf54eb8b1304e51,,,,,,,,,,,,,,,,,,,,,,,,,,,,,,,,,,,,,,,,,,,,,,,,,,,,,,,,,,,,,,,,,,,,"Mozilla/5.0 (Windows NT 10.0; Win64; x64) AppleWebKit/537.36 (KHTML, like Gecko) Chrome/100.0.4896.127 Safari/537.36"
