usingWebGL,participant,session,date,expName,psychopyVersion,OS,frameRate,study_id,signatures_friend,signatures_foe,band_ranges_top,band_ranges_bottom,formitemText,formtype,formundefined,formitemWidth,formindex,formresponse,formrt,key_resp_2.keys,key_resp_2.rt,tute_resp.keys,tute_resp.rt,tutorial.thisRepN,tutorial.thisTrialN,tutorial.thisN,tutorial.thisIndex,tutorial.ran,key_resp_4.keys,key_resp_4.rt,key_resp.keys,key_resp.corr,key_resp.rt,lines_presented,is_signal_presented,trials.thisRepN,trials.thisTrialN,trials.thisN,trials.thisIndex,trials.ran,vessel,active_band,lines,is_signal,supported_pos,catch_trial,debrief_formindex,debrief_formitemText,debrief_formtype,debrief_formitemWidth,debrief_formresponse,debrief_formrt,phases.thisRepN,phases.thisTrialN,phases.thisN,phases.thisIndex,phases.ran,phases.order,phase,key_resp_3.keys,trustitemText,trusttype,trustitemWidth,trustindex,trustresponse,trustrt,support_status.thisRepN,support_status.thisTrialN,support_status.thisN,support_status.thisIndex,support_status.ran,support_status.order,key_resp_5.keys,key_resp_5.rt,globalClockTime,userAgent,manualCondition
TRUE,60183e25b4423c05ee0ee791,627c6f67bd53594da082fa11,2022-05-11_21h22.56.257,classification_task,2021.2.3,Win32,59.95203837,627c6715c52fd12f31907bcf,,,,,,,,,,,,,,,,,,,,,,,,,,,,,,,,,,,,,,,,,,,,,,,,,,,,,,,,,,,,,,,,,,,,,
,60183e25b4423c05ee0ee791,627c6f67bd53594da082fa11,2022-05-11_21h22.56.257,classification_task,2021.2.3,Win32,59.95203837,627c6715c52fd12f31907bcf,"[[""0.257"",""0.459"",""0.641"",""0.911""],[""0.315"",""0.556"",""0.856"",""0.959""]]","[[""0.098"",""0.169"",""0.499"",""0.696""],[""0.043"",""0.379"",""0.595"",""0.782""]]","[1,10]","[100,1000]",Video game experience,,,0.7,0,,,,,,,,,,,,,,,,,,,,,,,,,,,,,,,,,,,,,,,,,,,,,,,,,,,,,,,,,,,,
,60183e25b4423c05ee0ee791,627c6f67bd53594da082fa11,2022-05-11_21h22.56.257,classification_task,2021.2.3,Win32,59.95203837,627c6715c52fd12f31907bcf,,,,,Approximately how many hours did you spend playing video games in the last week?,,,0.7,0,10,,,,,,,,,,,,,,,,,,,,,,,,,,,,,,,,,,,,,,,,,,,,,,,,,,,,,,,,,,,
,60183e25b4423c05ee0ee791,627c6f67bd53594da082fa11,2022-05-11_21h22.56.257,classification_task,2021.2.3,Win32,59.95203837,627c6715c52fd12f31907bcf,,,,,"Which game did you play the most this year? (Enter ""None"" if you didn't play any)",,,0.7,0,League of Legends,,,,,,,,,,,,,,,,,,,,,,,,,,,,,,,,,,,,,,,,,,,,,,,,,,,,,,,,,,,
,60183e25b4423c05ee0ee791,627c6f67bd53594da082fa11,2022-05-11_21h22.56.257,classification_task,2021.2.3,Win32,59.95203837,627c6715c52fd12f31907bcf,,,,,Visual perception,,,0.7,0,,,,,,,,,,,,,,,,,,,,,,,,,,,,,,,,,,,,,,,,,,,,,,,,,,,,,,,,,,,,
,60183e25b4423c05ee0ee791,627c6f67bd53594da082fa11,2022-05-11_21h22.56.257,classification_task,2021.2.3,Win32,59.95203837,627c6715c52fd12f31907bcf,,,,,Do you have any form of color blindness?,,,0.7,0,No,32.891,,,,,,,,,,,,,,,,,,,,,,,,,,,,,,,,,,,,,,,,,,,,,,,,,,,,,,,,,,
,60183e25b4423c05ee0ee791,627c6f67bd53594da082fa11,2022-05-11_21h22.56.257,classification_task,2021.2.3,Win32,59.95203837,627c6715c52fd12f31907bcf,,,,,Do you use software to change the colour temperature of your screen (e.g. f.lux)?,,,0.7,0,No,35.926,,,,,,,,,,,,,,,,,,,,,,,,,,,,,,,,,,,,,,,,,,,,,,,,,,,,,,,,,,
,60183e25b4423c05ee0ee791,627c6f67bd53594da082fa11,2022-05-11_21h22.56.257,classification_task,2021.2.3,Win32,59.95203837,627c6715c52fd12f31907bcf,,,,,,,,,,,,space,38.958,space,10.903,0,0,0,0,1,,,,,,,,,,,,,,,,,,,,,,,,,,,,,,,,,,,,,,,,,,,,,,,,,
,60183e25b4423c05ee0ee791,627c6f67bd53594da082fa11,2022-05-11_21h22.56.257,classification_task,2021.2.3,Win32,59.95203837,627c6715c52fd12f31907bcf,,,,,,,,,,,,,,space,29.504,1,0,1,0,1,,,,,,,,,,,,,,,,,,,,,,,,,,,,,,,,,,,,,,,,,,,,,,,,,
,60183e25b4423c05ee0ee791,627c6f67bd53594da082fa11,2022-05-11_21h22.56.257,classification_task,2021.2.3,Win32,59.95203837,627c6715c52fd12f31907bcf,,,,,,,,,,,,,,space,194.653,2,0,2,0,1,,,,,,,,,,,,,,,,,,,,,,,,,,,,,,,,,,,,,,,,,,,,,,,,,
,60183e25b4423c05ee0ee791,627c6f67bd53594da082fa11,2022-05-11_21h22.56.257,classification_task,2021.2.3,Win32,59.95203837,627c6715c52fd12f31907bcf,,,,,,,,,,,,,,space,9.687,3,0,3,0,1,,,,,,,,,,,,,,,,,,,,,,,,,,,,,,,,,,,,,,,,,,,,,,,,,
,60183e25b4423c05ee0ee791,627c6f67bd53594da082fa11,2022-05-11_21h22.56.257,classification_task,2021.2.3,Win32,59.95203837,627c6715c52fd12f31907bcf,,,,,,,,,,,,,,space,13.443,4,0,4,0,1,,,,,,,,,,,,,,,,,,,,,,,,,,,,,,,,,,,,,,,,,,,,,,,,,
,60183e25b4423c05ee0ee791,627c6f67bd53594da082fa11,2022-05-11_21h22.56.257,classification_task,2021.2.3,Win32,59.95203837,627c6715c52fd12f31907bcf,,,,,,,,,,,,,,,,,,,,,space,19.804,l,1,6.105,"[""0.043"",""0.419"",""0.595"",""0.782""]","[1,0,1,1]",0,0,0,0,1,1,1,,,0,FALSE,,,,,,,,,,,,,,,,,,,,,,,,,,,,,,,
,60183e25b4423c05ee0ee791,627c6f67bd53594da082fa11,2022-05-11_21h22.56.257,classification_task,2021.2.3,Win32,59.95203837,627c6715c52fd12f31907bcf,,,,,,,,,,,,,,,,,,,,,,,a,1,5.912,"[""0.257"",""0.459"",""0.820"",""0.911""]","[1,1,0,1]",0,1,1,1,1,0,0,,,0,FALSE,,,,,,,,,,,,,,,,,,,,,,,,,,,,,,,
,60183e25b4423c05ee0ee791,627c6f67bd53594da082fa11,2022-05-11_21h22.56.257,classification_task,2021.2.3,Win32,59.95203837,627c6715c52fd12f31907bcf,,,,,,,,,,,,,,,,,,,,,,,,0,,"[""0.315"",""0.556"",""0.856"",""0.212""]","[1,1,1,0]",0,2,2,2,1,0,1,,,0,FALSE,,,,,,,,,,,,,,,,,,,,,,,,,,,,,,,
,60183e25b4423c05ee0ee791,627c6f67bd53594da082fa11,2022-05-11_21h22.56.257,classification_task,2021.2.3,Win32,59.95203837,627c6715c52fd12f31907bcf,,,,,,,,,,,,,,,,,,,,,,,l,1,5.705,"[""0.421"",""0.379"",""0.595"",""0.782""]","[0,1,1,1]",0,3,3,3,1,1,1,,,0,FALSE,,,,,,,,,,,,,,,,,,,,,,,,,,,,,,,
,60183e25b4423c05ee0ee791,627c6f67bd53594da082fa11,2022-05-11_21h22.56.257,classification_task,2021.2.3,Win32,59.95203837,627c6715c52fd12f31907bcf,,,,,,,,,,,,,,,,,,,,,,,l,1,3.669,"[""0.098"",""0.169"",""0.499"",""0.743""]","[1,1,1,0]",0,4,4,4,1,1,0,,,0,FALSE,,,,,,,,,,,,,,,,,,,,,,,,,,,,,,,
,60183e25b4423c05ee0ee791,627c6f67bd53594da082fa11,2022-05-11_21h22.56.257,classification_task,2021.2.3,Win32,59.95203837,627c6715c52fd12f31907bcf,,,,,,,,,,,,,,,,,,,,,,,a,1,2.314,"[""0.257"",""0.820"",""0.641"",""0.911""]","[1,0,1,1]",0,5,5,5,1,0,0,,,0,FALSE,,,,,,,,,,,,,,,,,,,,,,,,,,,,,,,
,60183e25b4423c05ee0ee791,627c6f67bd53594da082fa11,2022-05-11_21h22.56.257,classification_task,2021.2.3,Win32,59.95203837,627c6715c52fd12f31907bcf,,,,,,,,,,,,,,,,,,,,,,,l,1,1.739,"[""0.098"",""0.132"",""0.499"",""0.696""]","[1,0,1,1]",0,6,6,6,1,1,0,,,0,FALSE,,,,,,,,,,,,,,,,,,,,,,,,,,,,,,,
,60183e25b4423c05ee0ee791,627c6f67bd53594da082fa11,2022-05-11_21h22.56.257,classification_task,2021.2.3,Win32,59.95203837,627c6715c52fd12f31907bcf,,,,,,,,,,,,,,,,,,,,,,,l,0,3.688,"[""0.315"",""0.556"",""0.209"",""0.959""]","[1,1,0,1]",0,7,7,7,1,0,1,,,0,FALSE,,,,,,,,,,,,,,,,,,,,,,,,,,,,,,,
,60183e25b4423c05ee0ee791,627c6f67bd53594da082fa11,2022-05-11_21h22.56.257,classification_task,2021.2.3,Win32,59.95203837,627c6715c52fd12f31907bcf,,,,,,,,,,,,,,,,,,,,,,,a,1,2.71,"[""0.730"",""0.556"",""0.856"",""0.959""]","[0,1,1,1]",0,8,8,8,1,0,1,,,0,FALSE,,,,,,,,,,,,,,,,,,,,,,,,,,,,,,,
,60183e25b4423c05ee0ee791,627c6f67bd53594da082fa11,2022-05-11_21h22.56.257,classification_task,2021.2.3,Win32,59.95203837,627c6715c52fd12f31907bcf,,,,,,,,,,,,,,,,,,,,,,,a,1,4.577,"[""0.315"",""0.736"",""0.856"",""0.959""]","[1,0,1,1]",0,9,9,9,1,0,1,,,0,FALSE,,,,,,,,,,,,,,,,,,,,,,,,,,,,,,,
,60183e25b4423c05ee0ee791,627c6f67bd53594da082fa11,2022-05-11_21h22.56.257,classification_task,2021.2.3,Win32,59.95203837,627c6715c52fd12f31907bcf,,,,,,,,,,,,,,,,,,,,,,,l,1,3.064,"[""0.043"",""0.379"",""0.595"",""0.419""]","[1,1,1,0]",0,10,10,10,1,1,1,,,0,FALSE,,,,,,,,,,,,,,,,,,,,,,,,,,,,,,,
,60183e25b4423c05ee0ee791,627c6f67bd53594da082fa11,2022-05-11_21h22.56.257,classification_task,2021.2.3,Win32,59.95203837,627c6715c52fd12f31907bcf,,,,,,,,,,,,,,,,,,,,,,,l,1,3.585,"[""0.223"",""0.169"",""0.499"",""0.696""]","[0,1,1,1]",0,11,11,11,1,1,0,,,0,FALSE,,,,,,,,,,,,,,,,,,,,,,,,,,,,,,,
,60183e25b4423c05ee0ee791,627c6f67bd53594da082fa11,2022-05-11_21h22.56.257,classification_task,2021.2.3,Win32,59.95203837,627c6715c52fd12f31907bcf,,,,,,,,,,,,,,,,,,,,,,,l,1,3.086,"[""0.043"",""0.379"",""0.744"",""0.782""]","[1,1,0,1]",0,12,12,12,1,1,1,,,0,FALSE,,,,,,,,,,,,,,,,,,,,,,,,,,,,,,,
,60183e25b4423c05ee0ee791,627c6f67bd53594da082fa11,2022-05-11_21h22.56.257,classification_task,2021.2.3,Win32,59.95203837,627c6715c52fd12f31907bcf,,,,,,,,,,,,,,,,,,,,,,,l,0,1.927,"[""0.132"",""0.459"",""0.641"",""0.911""]","[0,1,1,1]",0,13,13,13,1,0,0,,,0,FALSE,,,,,,,,,,,,,,,,,,,,,,,,,,,,,,,
,60183e25b4423c05ee0ee791,627c6f67bd53594da082fa11,2022-05-11_21h22.56.257,classification_task,2021.2.3,Win32,59.95203837,627c6715c52fd12f31907bcf,,,,,,,,,,,,,,,,,,,,,,,a,1,2.543,"[""0.257"",""0.459"",""0.641"",""0.420""]","[1,1,1,0]",0,14,14,14,1,0,0,,,0,FALSE,,,,,,,,,,,,,,,,,,,,,,,,,,,,,,,
,60183e25b4423c05ee0ee791,627c6f67bd53594da082fa11,2022-05-11_21h22.56.257,classification_task,2021.2.3,Win32,59.95203837,627c6715c52fd12f31907bcf,,,,,,,,,,,,,,,,,,,,,,,a,0,3.498,"[""0.098"",""0.169"",""0.736"",""0.696""]","[1,1,0,1]",0,15,15,15,1,1,0,,,0,FALSE,,,,,,,,,,,,,,,,,,,,,,,,,,,,,,,
,60183e25b4423c05ee0ee791,627c6f67bd53594da082fa11,2022-05-11_21h22.56.257,classification_task,2021.2.3,Win32,59.95203837,627c6715c52fd12f31907bcf,,,,,,,,,,,,,,,,,,,,,,,l,1,2.823,"[""0.736"",""0.169"",""0.499"",""0.696""]","[0,1,1,1]",0,16,16,16,1,1,0,,,0,FALSE,,,,,,,,,,,,,,,,,,,,,,,,,,,,,,,
,60183e25b4423c05ee0ee791,627c6f67bd53594da082fa11,2022-05-11_21h22.56.257,classification_task,2021.2.3,Win32,59.95203837,627c6715c52fd12f31907bcf,,,,,,,,,,,,,,,,,,,,,,,a,1,7.738,"[""0.315"",""0.209"",""0.856"",""0.959""]","[1,0,1,1]",0,17,17,17,1,0,1,,,0,FALSE,,,,,,,,,,,,,,,,,,,,,,,,,,,,,,,
,60183e25b4423c05ee0ee791,627c6f67bd53594da082fa11,2022-05-11_21h22.56.257,classification_task,2021.2.3,Win32,59.95203837,627c6715c52fd12f31907bcf,,,,,,,,,,,,,,,,,,,,,,,a,1,7.332,"[""0.315"",""0.556"",""0.132"",""0.959""]","[1,1,0,1]",0,18,18,18,1,0,1,,,0,FALSE,,,,,,,,,,,,,,,,,,,,,,,,,,,,,,,
,60183e25b4423c05ee0ee791,627c6f67bd53594da082fa11,2022-05-11_21h22.56.257,classification_task,2021.2.3,Win32,59.95203837,627c6715c52fd12f31907bcf,,,,,,,,,,,,,,,,,,,,,,,a,1,4.017,"[""0.315"",""0.556"",""0.856"",""0.820""]","[1,1,1,0]",0,19,19,19,1,0,1,,,0,FALSE,,,,,,,,,,,,,,,,,,,,,,,,,,,,,,,
,60183e25b4423c05ee0ee791,627c6f67bd53594da082fa11,2022-05-11_21h22.56.257,classification_task,2021.2.3,Win32,59.95203837,627c6715c52fd12f31907bcf,,,,,,,,,,,,,,,,,,,,,,,a,1,7.362,"[""0.257"",""0.132"",""0.641"",""0.911""]","[1,0,1,1]",0,20,20,20,1,0,0,,,0,FALSE,,,,,,,,,,,,,,,,,,,,,,,,,,,,,,,
,60183e25b4423c05ee0ee791,627c6f67bd53594da082fa11,2022-05-11_21h22.56.257,classification_task,2021.2.3,Win32,59.95203837,627c6715c52fd12f31907bcf,,,,,,,,,,,,,,,,,,,,,,,l,1,3.994,"[""0.098"",""0.169"",""0.499"",""0.730""]","[1,1,1,0]",0,21,21,21,1,1,0,,,0,FALSE,,,,,,,,,,,,,,,,,,,,,,,,,,,,,,,
,60183e25b4423c05ee0ee791,627c6f67bd53594da082fa11,2022-05-11_21h22.56.257,classification_task,2021.2.3,Win32,59.95203837,627c6715c52fd12f31907bcf,,,,,,,,,,,,,,,,,,,,,,,l,1,3.139,"[""0.043"",""0.379"",""0.595"",""0.420""]","[1,1,1,0]",0,22,22,22,1,1,1,,,0,FALSE,,,,,,,,,,,,,,,,,,,,,,,,,,,,,,,
,60183e25b4423c05ee0ee791,627c6f67bd53594da082fa11,2022-05-11_21h22.56.257,classification_task,2021.2.3,Win32,59.95203837,627c6715c52fd12f31907bcf,,,,,,,,,,,,,,,,,,,,,,,a,1,1.885,"[""0.257"",""0.459"",""0.420"",""0.911""]","[1,1,0,1]",0,23,23,23,1,0,0,,,0,FALSE,,,,,,,,,,,,,,,,,,,,,,,,,,,,,,,
,60183e25b4423c05ee0ee791,627c6f67bd53594da082fa11,2022-05-11_21h22.56.257,classification_task,2021.2.3,Win32,59.95203837,627c6715c52fd12f31907bcf,,,,,,,,,,,,,,,,,,,,,,,l,1,2.04,"[""0.098"",""0.169"",""0.420"",""0.696""]","[1,1,0,1]",0,24,24,24,1,1,0,,,0,FALSE,,,,,,,,,,,,,,,,,,,,,,,,,,,,,,,
,60183e25b4423c05ee0ee791,627c6f67bd53594da082fa11,2022-05-11_21h22.56.257,classification_task,2021.2.3,Win32,59.95203837,627c6715c52fd12f31907bcf,,,,,,,,,,,,,,,,,,,,,,,a,1,2.657,"[""0.257"",""0.459"",""0.641"",""0.730""]","[1,1,1,0]",0,25,25,25,1,0,0,,,0,FALSE,,,,,,,,,,,,,,,,,,,,,,,,,,,,,,,
,60183e25b4423c05ee0ee791,627c6f67bd53594da082fa11,2022-05-11_21h22.56.257,classification_task,2021.2.3,Win32,59.95203837,627c6715c52fd12f31907bcf,,,,,,,,,,,,,,,,,,,,,,,a,1,5.298,"[""0.212"",""0.556"",""0.856"",""0.959""]","[0,1,1,1]",0,26,26,26,1,0,1,,,0,FALSE,,,,,,,,,,,,,,,,,,,,,,,,,,,,,,,
,60183e25b4423c05ee0ee791,627c6f67bd53594da082fa11,2022-05-11_21h22.56.257,classification_task,2021.2.3,Win32,59.95203837,627c6715c52fd12f31907bcf,,,,,,,,,,,,,,,,,,,,,,,l,1,8.668,"[""0.043"",""0.744"",""0.595"",""0.782""]","[1,0,1,1]",0,27,27,27,1,1,1,,,0,FALSE,,,,,,,,,,,,,,,,,,,,,,,,,,,,,,,
,60183e25b4423c05ee0ee791,627c6f67bd53594da082fa11,2022-05-11_21h22.56.257,classification_task,2021.2.3,Win32,59.95203837,627c6715c52fd12f31907bcf,,,,,,,,,,,,,,,,,,,,,,,a,0,6.28,"[""0.223"",""0.379"",""0.595"",""0.782""]","[0,1,1,1]",0,28,28,28,1,1,1,,,0,FALSE,,,,,,,,,,,,,,,,,,,,,,,,,,,,,,,
,60183e25b4423c05ee0ee791,627c6f67bd53594da082fa11,2022-05-11_21h22.56.257,classification_task,2021.2.3,Win32,59.95203837,627c6715c52fd12f31907bcf,,,,,,,,,,,,,,,,,,,,,,,l,1,4.696,"[""0.043"",""0.379"",""0.420"",""0.782""]","[1,1,0,1]",0,29,29,29,1,1,1,,,0,FALSE,,,,,,,,,,,,,,,,,,,,,,,,,,,,,,,
,60183e25b4423c05ee0ee791,627c6f67bd53594da082fa11,2022-05-11_21h22.56.257,classification_task,2021.2.3,Win32,59.95203837,627c6715c52fd12f31907bcf,,,,,,,,,,,,,,,,,,,,,,,l,1,2.535,"[""0.098"",""0.133"",""0.499"",""0.696""]","[1,0,1,1]",0,30,30,30,1,1,0,,,0,FALSE,,,,,,,,,,,,,,,,,,,,,,,,,,,,,,,
,60183e25b4423c05ee0ee791,627c6f67bd53594da082fa11,2022-05-11_21h22.56.257,classification_task,2021.2.3,Win32,59.95203837,627c6715c52fd12f31907bcf,,,,,,,,,,,,,,,,,,,,,,,a,1,4.627,"[""0.420"",""0.459"",""0.641"",""0.911""]","[0,1,1,1]",0,31,31,31,1,0,0,,,0,FALSE,,,,,,,,,,,,,,,,,,,,,,,,,,,,,,,
,60183e25b4423c05ee0ee791,627c6f67bd53594da082fa11,2022-05-11_21h22.56.257,classification_task,2021.2.3,Win32,59.95203837,627c6715c52fd12f31907bcf,,,,,,,,,,,,,,,,,,,,,,,a,0,6.212,"[""0.098"",""0.419"",""0.499"",""0.696""]","[1,0,1,1]",0,32,32,32,1,1,0,,,0,FALSE,,,,,,,,,,,,,,,,,,,,,,,,,,,,,,,
,60183e25b4423c05ee0ee791,627c6f67bd53594da082fa11,2022-05-11_21h22.56.257,classification_task,2021.2.3,Win32,59.95203837,627c6715c52fd12f31907bcf,,,,,,,,,,,,,,,,,,,,,,,a,1,2.345,"[""0.315"",""0.556"",""0.744"",""0.959""]","[1,1,0,1]",0,33,33,33,1,0,1,,,0,FALSE,,,,,,,,,,,,,,,,,,,,,,,,,,,,,,,
,60183e25b4423c05ee0ee791,627c6f67bd53594da082fa11,2022-05-11_21h22.56.257,classification_task,2021.2.3,Win32,59.95203837,627c6715c52fd12f31907bcf,,,,,,,,,,,,,,,,,,,,,,,l,1,0.854,"[""0.098"",""0.169"",""0.132"",""0.696""]","[1,1,0,1]",0,34,34,34,1,1,0,,,0,FALSE,,,,,,,,,,,,,,,,,,,,,,,,,,,,,,,
,60183e25b4423c05ee0ee791,627c6f67bd53594da082fa11,2022-05-11_21h22.56.257,classification_task,2021.2.3,Win32,59.95203837,627c6715c52fd12f31907bcf,,,,,,,,,,,,,,,,,,,,,,,a,0,0.886,"[""0.043"",""0.736"",""0.595"",""0.782""]","[1,0,1,1]",0,35,35,35,1,1,1,,,0,FALSE,,,,,,,,,,,,,,,,,,,,,,,,,,,,,,,
,60183e25b4423c05ee0ee791,627c6f67bd53594da082fa11,2022-05-11_21h22.56.257,classification_task,2021.2.3,Win32,59.95203837,627c6715c52fd12f31907bcf,,,,,,,,,,,,,,,,,,,,,,,a,1,2.478,"[""0.212"",""0.459"",""0.641"",""0.911""]","[0,1,1,1]",0,36,36,36,1,0,0,,,0,FALSE,,,,,,,,,,,,,,,,,,,,,,,,,,,,,,,
,60183e25b4423c05ee0ee791,627c6f67bd53594da082fa11,2022-05-11_21h22.56.257,classification_task,2021.2.3,Win32,59.95203837,627c6715c52fd12f31907bcf,,,,,,,,,,,,,,,,,,,,,,,l,0,1.404,"[""0.257"",""0.132"",""0.641"",""0.911""]","[1,0,1,1]",0,37,37,37,1,0,0,,,0,FALSE,,,,,,,,,,,,,,,,,,,,,,,,,,,,,,,
,60183e25b4423c05ee0ee791,627c6f67bd53594da082fa11,2022-05-11_21h22.56.257,classification_task,2021.2.3,Win32,59.95203837,627c6715c52fd12f31907bcf,,,,,,,,,,,,,,,,,,,,,,,a,1,2.138,"[""0.315"",""0.556"",""0.856"",""0.820""]","[1,1,1,0]",0,38,38,38,1,0,1,,,0,FALSE,,,,,,,,,,,,,,,,,,,,,,,,,,,,,,,
,60183e25b4423c05ee0ee791,627c6f67bd53594da082fa11,2022-05-11_21h22.56.257,classification_task,2021.2.3,Win32,59.95203837,627c6715c52fd12f31907bcf,,,,,,,,,,,,,,,,,,,,,,,a,0,0.835,"[""0.744"",""0.379"",""0.595"",""0.782""]","[0,1,1,1]",0,39,39,39,1,1,1,,,0,FALSE,,,,,,,,,,,,,,,,,,,,,,,,,,,,,,,
,60183e25b4423c05ee0ee791,627c6f67bd53594da082fa11,2022-05-11_21h22.56.257,classification_task,2021.2.3,Win32,59.95203837,627c6715c52fd12f31907bcf,,,,,,,,,,,,,,,,,,,,,,,l,1,1.52,"[""0.098"",""0.169"",""0.499"",""0.743""]","[1,1,1,0]",0,40,40,40,1,1,0,,,0,FALSE,,,,,,,,,,,,,,,,,,,,,,,,,,,,,,,
,60183e25b4423c05ee0ee791,627c6f67bd53594da082fa11,2022-05-11_21h22.56.257,classification_task,2021.2.3,Win32,59.95203837,627c6715c52fd12f31907bcf,,,,,,,,,,,,,,,,,,,,,,,l,0,0.907,"[""0.257"",""0.459"",""0.133"",""0.911""]","[1,1,0,1]",0,41,41,41,1,0,0,,,0,FALSE,,,,,,,,,,,,,,,,,,,,,,,,,,,,,,,
,60183e25b4423c05ee0ee791,627c6f67bd53594da082fa11,2022-05-11_21h22.56.257,classification_task,2021.2.3,Win32,59.95203837,627c6715c52fd12f31907bcf,,,,,,,,,,,,,,,,,,,,,,,l,1,1.054,"[""0.043"",""0.379"",""0.595"",""0.132""]","[1,1,1,0]",0,42,42,42,1,1,1,,,0,FALSE,,,,,,,,,,,,,,,,,,,,,,,,,,,,,,,
,60183e25b4423c05ee0ee791,627c6f67bd53594da082fa11,2022-05-11_21h22.56.257,classification_task,2021.2.3,Win32,59.95203837,627c6715c52fd12f31907bcf,,,,,,,,,,,,,,,,,,,,,,,l,1,3.413,"[""0.043"",""0.379"",""0.133"",""0.782""]","[1,1,0,1]",0,43,43,43,1,1,1,,,0,FALSE,,,,,,,,,,,,,,,,,,,,,,,,,,,,,,,
,60183e25b4423c05ee0ee791,627c6f67bd53594da082fa11,2022-05-11_21h22.56.257,classification_task,2021.2.3,Win32,59.95203837,627c6715c52fd12f31907bcf,,,,,,,,,,,,,,,,,,,,,,,a,0,3.347,"[""0.739"",""0.169"",""0.499"",""0.696""]","[0,1,1,1]",0,44,44,44,1,1,0,,,0,FALSE,,,,,,,,,,,,,,,,,,,,,,,,,,,,,,,
,60183e25b4423c05ee0ee791,627c6f67bd53594da082fa11,2022-05-11_21h22.56.257,classification_task,2021.2.3,Win32,59.95203837,627c6715c52fd12f31907bcf,,,,,,,,,,,,,,,,,,,,,,,l,0,2.766,"[""0.257"",""0.459"",""0.641"",""0.421""]","[1,1,1,0]",0,45,45,45,1,0,0,,,0,FALSE,,,,,,,,,,,,,,,,,,,,,,,,,,,,,,,
,60183e25b4423c05ee0ee791,627c6f67bd53594da082fa11,2022-05-11_21h22.56.257,classification_task,2021.2.3,Win32,59.95203837,627c6715c52fd12f31907bcf,,,,,,,,,,,,,,,,,,,,,,,a,1,1.024,"[""0.820"",""0.556"",""0.856"",""0.959""]","[0,1,1,1]",0,46,46,46,1,0,1,,,0,FALSE,,,,,,,,,,,,,,,,,,,,,,,,,,,,,,,
,60183e25b4423c05ee0ee791,627c6f67bd53594da082fa11,2022-05-11_21h22.56.257,classification_task,2021.2.3,Win32,59.95203837,627c6715c52fd12f31907bcf,,,,,,,,,,,,,,,,,,,,,,,a,1,3.993,"[""0.315"",""0.132"",""0.856"",""0.959""]","[1,0,1,1]",0,47,47,47,1,0,1,,,0,FALSE,,,,,,,,,,,,,,,,,,,,,,,,,,,,,,,
,60183e25b4423c05ee0ee791,627c6f67bd53594da082fa11,2022-05-11_21h22.56.257,classification_task,2021.2.3,Win32,59.95203837,627c6715c52fd12f31907bcf,,,,,,,,,,,,,,,,,,,,,,,l,1,2.592,"[""0.744"",""0.379"",""0.595"",""0.782""]","[0,1,1,1]",0,48,48,48,1,1,1,,,0,FALSE,,,,,,,,,,,,,,,,,,,,,,,,,,,,,,,
,60183e25b4423c05ee0ee791,627c6f67bd53594da082fa11,2022-05-11_21h22.56.257,classification_task,2021.2.3,Win32,59.95203837,627c6715c52fd12f31907bcf,,,,,,,,,,,,,,,,,,,,,,,l,0,2.574,"[""0.315"",""0.817"",""0.856"",""0.959""]","[1,0,1,1]",0,49,49,49,1,0,1,,,0,FALSE,,,,,,,,,,,,,,,,,,,,,,,,,,,,,,,
,60183e25b4423c05ee0ee791,627c6f67bd53594da082fa11,2022-05-11_21h22.56.257,classification_task,2021.2.3,Win32,59.95203837,627c6715c52fd12f31907bcf,,,,,,,,,,,,,,,,,,,,,,,a,1,1.042,"[""0.257"",""0.820"",""0.641"",""0.911""]","[1,0,1,1]",0,50,50,50,1,0,0,,,0,FALSE,,,,,,,,,,,,,,,,,,,,,,,,,,,,,,,
,60183e25b4423c05ee0ee791,627c6f67bd53594da082fa11,2022-05-11_21h22.56.257,classification_task,2021.2.3,Win32,59.95203837,627c6715c52fd12f31907bcf,,,,,,,,,,,,,,,,,,,,,,,a,0,2.063,"[""0.098"",""0.169"",""0.499"",""0.736""]","[1,1,1,0]",0,51,51,51,1,1,0,,,0,FALSE,,,,,,,,,,,,,,,,,,,,,,,,,,,,,,,
,60183e25b4423c05ee0ee791,627c6f67bd53594da082fa11,2022-05-11_21h22.56.257,classification_task,2021.2.3,Win32,59.95203837,627c6715c52fd12f31907bcf,,,,,,,,,,,,,,,,,,,,,,,a,1,0.821,"[""0.209"",""0.459"",""0.641"",""0.911""]","[0,1,1,1]",0,52,52,52,1,0,0,,,0,FALSE,,,,,,,,,,,,,,,,,,,,,,,,,,,,,,,
,60183e25b4423c05ee0ee791,627c6f67bd53594da082fa11,2022-05-11_21h22.56.257,classification_task,2021.2.3,Win32,59.95203837,627c6715c52fd12f31907bcf,,,,,,,,,,,,,,,,,,,,,,,a,0,1.604,"[""0.043"",""0.421"",""0.595"",""0.782""]","[1,0,1,1]",0,53,53,53,1,1,1,,,0,FALSE,,,,,,,,,,,,,,,,,,,,,,,,,,,,,,,
,60183e25b4423c05ee0ee791,627c6f67bd53594da082fa11,2022-05-11_21h22.56.257,classification_task,2021.2.3,Win32,59.95203837,627c6715c52fd12f31907bcf,,,,,,,,,,,,,,,,,,,,,,,l,1,1.455,"[""0.098"",""0.169"",""0.739"",""0.696""]","[1,1,0,1]",0,54,54,54,1,1,0,,,0,FALSE,,,,,,,,,,,,,,,,,,,,,,,,,,,,,,,
,60183e25b4423c05ee0ee791,627c6f67bd53594da082fa11,2022-05-11_21h22.56.257,classification_task,2021.2.3,Win32,59.95203837,627c6715c52fd12f31907bcf,,,,,,,,,,,,,,,,,,,,,,,a,1,2.794,"[""0.315"",""0.556"",""0.212"",""0.959""]","[1,1,0,1]",0,55,55,55,1,0,1,,,0,FALSE,,,,,,,,,,,,,,,,,,,,,,,,,,,,,,,
,60183e25b4423c05ee0ee791,627c6f67bd53594da082fa11,2022-05-11_21h22.56.257,classification_task,2021.2.3,Win32,59.95203837,627c6715c52fd12f31907bcf,,,,,,,,,,,,,,,,,,,,,,,l,1,1.387,"[""0.043"",""0.379"",""0.595"",""0.820""]","[1,1,1,0]",0,56,56,56,1,1,1,,,0,FALSE,,,,,,,,,,,,,,,,,,,,,,,,,,,,,,,
,60183e25b4423c05ee0ee791,627c6f67bd53594da082fa11,2022-05-11_21h22.56.257,classification_task,2021.2.3,Win32,59.95203837,627c6715c52fd12f31907bcf,,,,,,,,,,,,,,,,,,,,,,,l,1,0.823,"[""0.043"",""0.379"",""0.820"",""0.782""]","[1,1,0,1]",0,57,57,57,1,1,1,,,0,FALSE,,,,,,,,,,,,,,,,,,,,,,,,,,,,,,,
,60183e25b4423c05ee0ee791,627c6f67bd53594da082fa11,2022-05-11_21h22.56.257,classification_task,2021.2.3,Win32,59.95203837,627c6715c52fd12f31907bcf,,,,,,,,,,,,,,,,,,,,,,,a,1,1.642,"[""0.817"",""0.556"",""0.856"",""0.959""]","[0,1,1,1]",0,58,58,58,1,0,1,,,0,FALSE,,,,,,,,,,,,,,,,,,,,,,,,,,,,,,,
,60183e25b4423c05ee0ee791,627c6f67bd53594da082fa11,2022-05-11_21h22.56.257,classification_task,2021.2.3,Win32,59.95203837,627c6715c52fd12f31907bcf,,,,,,,,,,,,,,,,,,,,,,,a,1,3.81,"[""0.257"",""0.459"",""0.132"",""0.911""]","[1,1,0,1]",0,59,59,59,1,0,0,,,0,FALSE,,,,,,,,,,,,,,,,,,,,,,,,,,,,,,,
,60183e25b4423c05ee0ee791,627c6f67bd53594da082fa11,2022-05-11_21h22.56.257,classification_task,2021.2.3,Win32,59.95203837,627c6715c52fd12f31907bcf,,,,,,,,,,,,,,,,,,,,,,,l,0,1.604,"[""0.257"",""0.459"",""0.641"",""0.421""]","[1,1,1,0]",0,60,60,60,1,0,0,,,0,FALSE,,,,,,,,,,,,,,,,,,,,,,,,,,,,,,,
,60183e25b4423c05ee0ee791,627c6f67bd53594da082fa11,2022-05-11_21h22.56.257,classification_task,2021.2.3,Win32,59.95203837,627c6715c52fd12f31907bcf,,,,,,,,,,,,,,,,,,,,,,,a,1,1.537,"[""0.315"",""0.556"",""0.856"",""0.420""]","[1,1,1,0]",0,61,61,61,1,0,1,,,0,FALSE,,,,,,,,,,,,,,,,,,,,,,,,,,,,,,,
,60183e25b4423c05ee0ee791,627c6f67bd53594da082fa11,2022-05-11_21h22.56.257,classification_task,2021.2.3,Win32,59.95203837,627c6715c52fd12f31907bcf,,,,,,,,,,,,,,,,,,,,,,,l,1,1.12,"[""0.098"",""0.420"",""0.499"",""0.696""]","[1,0,1,1]",0,62,62,62,1,1,0,,,0,FALSE,,,,,,,,,,,,,,,,,,,,,,,,,,,,,,,
,60183e25b4423c05ee0ee791,627c6f67bd53594da082fa11,2022-05-11_21h22.56.257,classification_task,2021.2.3,Win32,59.95203837,627c6715c52fd12f31907bcf,,,,,,,,,,,,,,,,,,,,,,,l,1,1.304,"[""0.817"",""0.169"",""0.499"",""0.696""]","[0,1,1,1]",0,63,63,63,1,1,0,,,0,FALSE,,,,,,,,,,,,,,,,,,,,,,,,,,,,,,,
,60183e25b4423c05ee0ee791,627c6f67bd53594da082fa11,2022-05-11_21h22.56.257,classification_task,2021.2.3,Win32,59.95203837,627c6715c52fd12f31907bcf,,,,,,,,,,,,,,,,,,,,,,,,,,,,,,,,,,,,,,,0, ,,0,10,659.373,0,0,0,0,1,2,1,,,,,,,,,,,,,,,,,,
,60183e25b4423c05ee0ee791,627c6f67bd53594da082fa11,2022-05-11_21h22.56.257,classification_task,2021.2.3,Win32,59.95203837,627c6715c52fd12f31907bcf,,,,,,,,,,,,,,,,,,,,,,,,,,,,,,,,,,,,,,,1,  ,,0,9.791299236,666.239,0,0,0,0,1,2,1,,,,,,,,,,,,,,,,,,
,60183e25b4423c05ee0ee791,627c6f67bd53594da082fa11,2022-05-11_21h22.56.257,classification_task,2021.2.3,Win32,59.95203837,627c6715c52fd12f31907bcf,,,,,,,,,,,,,,,,,,,,,,,,,,,,,,,,,,,,,,,2,  ,,0,5.558495003,672.781,0,0,0,0,1,2,1,,,,,,,,,,,,,,,,,,
,60183e25b4423c05ee0ee791,627c6f67bd53594da082fa11,2022-05-11_21h22.56.257,classification_task,2021.2.3,Win32,59.95203837,627c6715c52fd12f31907bcf,,,,,,,,,,,,,,,,,,,,,,,,,,,,,,,,,,,,,,,,,,,,,0,0,0,0,1,,1,,,,,,,,,,,,,,,,,,
,60183e25b4423c05ee0ee791,627c6f67bd53594da082fa11,2022-05-11_21h22.56.257,classification_task,2021.2.3,Win32,59.95203837,627c6715c52fd12f31907bcf,,,,,,,,,,,,,,,,,,,,,space,16.642,a,1,3.77,"[""0.257"",""0.736"",""0.641"",""0.911""]","[1,0,1,1]",0,0,0,0,1,0,0,,,0,FALSE,,,,,,,,,,,,,,,,,,,,,,,,,,,,,,,
,60183e25b4423c05ee0ee791,627c6f67bd53594da082fa11,2022-05-11_21h22.56.257,classification_task,2021.2.3,Win32,59.95203837,627c6715c52fd12f31907bcf,,,,,,,,,,,,,,,,,,,,,,,l,1,2.858,"[""0.043"",""0.420"",""0.595"",""0.782""]","[1,0,1,1]",0,1,1,1,1,1,1,,,0,FALSE,,,,,,,,,,,,,,,,,,,,,,,,,,,,,,,
,60183e25b4423c05ee0ee791,627c6f67bd53594da082fa11,2022-05-11_21h22.56.257,classification_task,2021.2.3,Win32,59.95203837,627c6715c52fd12f31907bcf,,,,,,,,,,,,,,,,,,,,,,,a,1,2.573,"[""0.257"",""0.459"",""0.641"",""0.743""]","[1,1,1,0]",0,2,2,2,1,0,0,,,0,FALSE,,,,,,,,,,,,,,,,,,,,,,,,,,,,,,,
,60183e25b4423c05ee0ee791,627c6f67bd53594da082fa11,2022-05-11_21h22.56.257,classification_task,2021.2.3,Win32,59.95203837,627c6715c52fd12f31907bcf,,,,,,,,,,,,,,,,,,,,,,,l,1,1.171,"[""0.098"",""0.169"",""0.212"",""0.696""]","[1,1,0,1]",0,3,3,3,1,1,0,,,0,FALSE,,,,,,,,,,,,,,,,,,,,,,,,,,,,,,,
,60183e25b4423c05ee0ee791,627c6f67bd53594da082fa11,2022-05-11_21h22.56.257,classification_task,2021.2.3,Win32,59.95203837,627c6715c52fd12f31907bcf,,,,,,,,,,,,,,,,,,,,,,,l,1,1.17,"[""0.743"",""0.169"",""0.499"",""0.696""]","[0,1,1,1]",0,4,4,4,1,1,0,,,0,FALSE,,,,,,,,,,,,,,,,,,,,,,,,,,,,,,,
,60183e25b4423c05ee0ee791,627c6f67bd53594da082fa11,2022-05-11_21h22.56.257,classification_task,2021.2.3,Win32,59.95203837,627c6715c52fd12f31907bcf,,,,,,,,,,,,,,,,,,,,,,,a,0,1.891,"[""0.043"",""0.379"",""0.595"",""0.736""]","[1,1,1,0]",0,5,5,5,1,1,1,,,0,FALSE,,,,,,,,,,,,,,,,,,,,,,,,,,,,,,,
,60183e25b4423c05ee0ee791,627c6f67bd53594da082fa11,2022-05-11_21h22.56.257,classification_task,2021.2.3,Win32,59.95203837,627c6715c52fd12f31907bcf,,,,,,,,,,,,,,,,,,,,,,,l,1,2.179,"[""0.043"",""0.379"",""0.420"",""0.782""]","[1,1,0,1]",0,6,6,6,1,1,1,,,0,FALSE,,,,,,,,,,,,,,,,,,,,,,,,,,,,,,,
,60183e25b4423c05ee0ee791,627c6f67bd53594da082fa11,2022-05-11_21h22.56.257,classification_task,2021.2.3,Win32,59.95203837,627c6715c52fd12f31907bcf,,,,,,,,,,,,,,,,,,,,,,,a,1,1.573,"[""0.257"",""0.459"",""0.223"",""0.911""]","[1,1,0,1]",0,7,7,7,1,0,0,,,0,FALSE,,,,,,,,,,,,,,,,,,,,,,,,,,,,,,,
,60183e25b4423c05ee0ee791,627c6f67bd53594da082fa11,2022-05-11_21h22.56.257,classification_task,2021.2.3,Win32,59.95203837,627c6715c52fd12f31907bcf,,,,,,,,,,,,,,,,,,,,,,,a,1,0.987,"[""0.315"",""0.556"",""0.856"",""0.730""]","[1,1,1,0]",0,8,8,8,1,0,1,,,0,FALSE,,,,,,,,,,,,,,,,,,,,,,,,,,,,,,,
,60183e25b4423c05ee0ee791,627c6f67bd53594da082fa11,2022-05-11_21h22.56.257,classification_task,2021.2.3,Win32,59.95203837,627c6715c52fd12f31907bcf,,,,,,,,,,,,,,,,,,,,,,,a,1,0.739,"[""0.315"",""0.556"",""0.820"",""0.959""]","[1,1,0,1]",0,9,9,9,1,0,1,,,0,FALSE,,,,,,,,,,,,,,,,,,,,,,,,,,,,,,,
,60183e25b4423c05ee0ee791,627c6f67bd53594da082fa11,2022-05-11_21h22.56.257,classification_task,2021.2.3,Win32,59.95203837,627c6715c52fd12f31907bcf,,,,,,,,,,,,,,,,,,,,,,,l,1,2.073,"[""0.098"",""0.133"",""0.499"",""0.696""]","[1,0,1,1]",0,10,10,10,1,1,0,,,0,FALSE,,,,,,,,,,,,,,,,,,,,,,,,,,,,,,,
,60183e25b4423c05ee0ee791,627c6f67bd53594da082fa11,2022-05-11_21h22.56.257,classification_task,2021.2.3,Win32,59.95203837,627c6715c52fd12f31907bcf,,,,,,,,,,,,,,,,,,,,,,,l,0,0.825,"[""0.315"",""0.132"",""0.856"",""0.959""]","[1,0,1,1]",0,11,11,11,1,0,1,,,0,FALSE,,,,,,,,,,,,,,,,,,,,,,,,,,,,,,,
,60183e25b4423c05ee0ee791,627c6f67bd53594da082fa11,2022-05-11_21h22.56.257,classification_task,2021.2.3,Win32,59.95203837,627c6715c52fd12f31907bcf,,,,,,,,,,,,,,,,,,,,,,,a,1,1.037,"[""0.820"",""0.459"",""0.641"",""0.911""]","[0,1,1,1]",0,12,12,12,1,0,0,,,0,FALSE,,,,,,,,,,,,,,,,,,,,,,,,,,,,,,,
,60183e25b4423c05ee0ee791,627c6f67bd53594da082fa11,2022-05-11_21h22.56.257,classification_task,2021.2.3,Win32,59.95203837,627c6715c52fd12f31907bcf,,,,,,,,,,,,,,,,,,,,,,,l,1,1.16,"[""0.098"",""0.169"",""0.499"",""0.743""]","[1,1,1,0]",0,13,13,13,1,1,0,,,0,FALSE,,,,,,,,,,,,,,,,,,,,,,,,,,,,,,,
,60183e25b4423c05ee0ee791,627c6f67bd53594da082fa11,2022-05-11_21h22.56.257,classification_task,2021.2.3,Win32,59.95203837,627c6715c52fd12f31907bcf,,,,,,,,,,,,,,,,,,,,,,,a,0,1.337,"[""0.739"",""0.379"",""0.595"",""0.782""]","[0,1,1,1]",0,14,14,14,1,1,1,,,0,FALSE,,,,,,,,,,,,,,,,,,,,,,,,,,,,,,,
,60183e25b4423c05ee0ee791,627c6f67bd53594da082fa11,2022-05-11_21h22.56.257,classification_task,2021.2.3,Win32,59.95203837,627c6715c52fd12f31907bcf,,,,,,,,,,,,,,,,,,,,,,,a,1,1.474,"[""0.223"",""0.556"",""0.856"",""0.959""]","[0,1,1,1]",0,15,15,15,1,0,1,,,0,FALSE,,,,,,,,,,,,,,,,,,,,,,,,,,,,,,,
,60183e25b4423c05ee0ee791,627c6f67bd53594da082fa11,2022-05-11_21h22.56.257,classification_task,2021.2.3,Win32,59.95203837,627c6715c52fd12f31907bcf,,,,,,,,,,,,,,,,,,,,,,,l,1,1.137,"[""0.043"",""0.730"",""0.595"",""0.782""]","[1,0,1,1]",0,16,16,16,1,1,1,,,0,FALSE,,,,,,,,,,,,,,,,,,,,,,,,,,,,,,,
,60183e25b4423c05ee0ee791,627c6f67bd53594da082fa11,2022-05-11_21h22.56.257,classification_task,2021.2.3,Win32,59.95203837,627c6715c52fd12f31907bcf,,,,,,,,,,,,,,,,,,,,,,,a,1,0.888,"[""0.743"",""0.556"",""0.856"",""0.959""]","[0,1,1,1]",0,17,17,17,1,0,1,,,0,FALSE,,,,,,,,,,,,,,,,,,,,,,,,,,,,,,,
,60183e25b4423c05ee0ee791,627c6f67bd53594da082fa11,2022-05-11_21h22.56.257,classification_task,2021.2.3,Win32,59.95203837,627c6715c52fd12f31907bcf,,,,,,,,,,,,,,,,,,,,,,,a,1,4.464,"[""0.257"",""0.419"",""0.641"",""0.911""]","[1,0,1,1]",0,18,18,18,1,0,0,,,0,FALSE,,,,,,,,,,,,,,,,,,,,,,,,,,,,,,,
,60183e25b4423c05ee0ee791,627c6f67bd53594da082fa11,2022-05-11_21h22.56.257,classification_task,2021.2.3,Win32,59.95203837,627c6715c52fd12f31907bcf,,,,,,,,,,,,,,,,,,,,,,,l,1,1.154,"[""0.098"",""0.169"",""0.499"",""0.744""]","[1,1,1,0]",0,19,19,19,1,1,0,,,0,FALSE,,,,,,,,,,,,,,,,,,,,,,,,,,,,,,,
,60183e25b4423c05ee0ee791,627c6f67bd53594da082fa11,2022-05-11_21h22.56.257,classification_task,2021.2.3,Win32,59.95203837,627c6715c52fd12f31907bcf,,,,,,,,,,,,,,,,,,,,,,,l,0,1.888,"[""0.315"",""0.556"",""0.132"",""0.959""]","[1,1,0,1]",0,20,20,20,1,0,1,,,0,FALSE,,,,,,,,,,,,,,,,,,,,,,,,,,,,,,,
,60183e25b4423c05ee0ee791,627c6f67bd53594da082fa11,2022-05-11_21h22.56.257,classification_task,2021.2.3,Win32,59.95203837,627c6715c52fd12f31907bcf,,,,,,,,,,,,,,,,,,,,,,,a,1,1.479,"[""0.257"",""0.459"",""0.641"",""0.420""]","[1,1,1,0]",0,21,21,21,1,0,0,,,0,FALSE,,,,,,,,,,,,,,,,,,,,,,,,,,,,,,,
,60183e25b4423c05ee0ee791,627c6f67bd53594da082fa11,2022-05-11_21h22.56.257,classification_task,2021.2.3,Win32,59.95203837,627c6715c52fd12f31907bcf,,,,,,,,,,,,,,,,,,,,,,,a,1,0.966,"[""0.315"",""0.556"",""0.856"",""0.419""]","[1,1,1,0]",0,22,22,22,1,0,1,,,0,FALSE,,,,,,,,,,,,,,,,,,,,,,,,,,,,,,,
,60183e25b4423c05ee0ee791,627c6f67bd53594da082fa11,2022-05-11_21h22.56.257,classification_task,2021.2.3,Win32,59.95203837,627c6715c52fd12f31907bcf,,,,,,,,,,,,,,,,,,,,,,,l,1,1.253,"[""0.212"",""0.169"",""0.499"",""0.696""]","[0,1,1,1]",0,23,23,23,1,1,0,,,0,FALSE,,,,,,,,,,,,,,,,,,,,,,,,,,,,,,,
,60183e25b4423c05ee0ee791,627c6f67bd53594da082fa11,2022-05-11_21h22.56.257,classification_task,2021.2.3,Win32,59.95203837,627c6715c52fd12f31907bcf,,,,,,,,,,,,,,,,,,,,,,,l,1,0.82,"[""0.043"",""0.379"",""0.743"",""0.782""]","[1,1,0,1]",0,24,24,24,1,1,1,,,0,FALSE,,,,,,,,,,,,,,,,,,,,,,,,,,,,,,,
,60183e25b4423c05ee0ee791,627c6f67bd53594da082fa11,2022-05-11_21h22.56.257,classification_task,2021.2.3,Win32,59.95203837,627c6715c52fd12f31907bcf,,,,,,,,,,,,,,,,,,,,,,,a,1,1.521,"[""0.257"",""0.459"",""0.744"",""0.911""]","[1,1,0,1]",0,25,25,25,1,0,0,,,0,FALSE,,,,,,,,,,,,,,,,,,,,,,,,,,,,,,,
,60183e25b4423c05ee0ee791,627c6f67bd53594da082fa11,2022-05-11_21h22.56.257,classification_task,2021.2.3,Win32,59.95203837,627c6715c52fd12f31907bcf,,,,,,,,,,,,,,,,,,,,,,,a,0,0.773,"[""0.043"",""0.379"",""0.595"",""0.420""]","[1,1,1,0]",0,26,26,26,1,1,1,,,0,FALSE,,,,,,,,,,,,,,,,,,,,,,,,,,,,,,,
,60183e25b4423c05ee0ee791,627c6f67bd53594da082fa11,2022-05-11_21h22.56.257,classification_task,2021.2.3,Win32,59.95203837,627c6715c52fd12f31907bcf,,,,,,,,,,,,,,,,,,,,,,,l,1,1.003,"[""0.098"",""0.169"",""0.730"",""0.696""]","[1,1,0,1]",0,27,27,27,1,1,0,,,0,FALSE,,,,,,,,,,,,,,,,,,,,,,,,,,,,,,,
,60183e25b4423c05ee0ee791,627c6f67bd53594da082fa11,2022-05-11_21h22.56.257,classification_task,2021.2.3,Win32,59.95203837,627c6715c52fd12f31907bcf,,,,,,,,,,,,,,,,,,,,,,,a,1,0.742,"[""0.315"",""0.743"",""0.856"",""0.959""]","[1,0,1,1]",0,28,28,28,1,0,1,,,0,FALSE,,,,,,,,,,,,,,,,,,,,,,,,,,,,,,,
,60183e25b4423c05ee0ee791,627c6f67bd53594da082fa11,2022-05-11_21h22.56.257,classification_task,2021.2.3,Win32,59.95203837,627c6715c52fd12f31907bcf,,,,,,,,,,,,,,,,,,,,,,,l,1,0.893,"[""0.098"",""0.209"",""0.499"",""0.696""]","[1,0,1,1]",0,29,29,29,1,1,0,,,0,FALSE,,,,,,,,,,,,,,,,,,,,,,,,,,,,,,,
,60183e25b4423c05ee0ee791,627c6f67bd53594da082fa11,2022-05-11_21h22.56.257,classification_task,2021.2.3,Win32,59.95203837,627c6715c52fd12f31907bcf,,,,,,,,,,,,,,,,,,,,,,,a,1,1.838,"[""0.133"",""0.459"",""0.641"",""0.911""]","[0,1,1,1]",0,30,30,30,1,0,0,,,0,FALSE,,,,,,,,,,,,,,,,,,,,,,,,,,,,,,,
,60183e25b4423c05ee0ee791,627c6f67bd53594da082fa11,2022-05-11_21h22.56.257,classification_task,2021.2.3,Win32,59.95203837,627c6715c52fd12f31907bcf,,,,,,,,,,,,,,,,,,,,,,,l,1,1.755,"[""0.209"",""0.379"",""0.595"",""0.782""]","[0,1,1,1]",0,31,31,31,1,1,1,,,0,FALSE,,,,,,,,,,,,,,,,,,,,,,,,,,,,,,,
,60183e25b4423c05ee0ee791,627c6f67bd53594da082fa11,2022-05-11_21h22.56.257,classification_task,2021.2.3,Win32,59.95203837,627c6715c52fd12f31907bcf,,,,,,,,,,,,,,,,,,,,,,,l,1,3.345,"[""0.098"",""0.736"",""0.499"",""0.696""]","[1,0,1,1]",0,32,32,32,1,1,0,,,0,FALSE,,,,,,,,,,,,,,,,,,,,,,,,,,,,,,,
,60183e25b4423c05ee0ee791,627c6f67bd53594da082fa11,2022-05-11_21h22.56.257,classification_task,2021.2.3,Win32,59.95203837,627c6715c52fd12f31907bcf,,,,,,,,,,,,,,,,,,,,,,,a,1,0.87,"[""0.257"",""0.743"",""0.641"",""0.911""]","[1,0,1,1]",0,33,33,33,1,0,0,,,0,FALSE,,,,,,,,,,,,,,,,,,,,,,,,,,,,,,,
,60183e25b4423c05ee0ee791,627c6f67bd53594da082fa11,2022-05-11_21h22.56.257,classification_task,2021.2.3,Win32,59.95203837,627c6715c52fd12f31907bcf,,,,,,,,,,,,,,,,,,,,,,,l,0,8.74,"[""0.315"",""0.419"",""0.856"",""0.959""]","[1,0,1,1]",0,34,34,34,1,0,1,,,0,FALSE,,,,,,,,,,,,,,,,,,,,,,,,,,,,,,,
,60183e25b4423c05ee0ee791,627c6f67bd53594da082fa11,2022-05-11_21h22.56.257,classification_task,2021.2.3,Win32,59.95203837,627c6715c52fd12f31907bcf,,,,,,,,,,,,,,,,,,,,,,,a,1,0.835,"[""0.257"",""0.459"",""0.820"",""0.911""]","[1,1,0,1]",0,35,35,35,1,0,0,,,0,FALSE,,,,,,,,,,,,,,,,,,,,,,,,,,,,,,,
,60183e25b4423c05ee0ee791,627c6f67bd53594da082fa11,2022-05-11_21h22.56.257,classification_task,2021.2.3,Win32,59.95203837,627c6715c52fd12f31907bcf,,,,,,,,,,,,,,,,,,,,,,,l,1,0.742,"[""0.043"",""0.379"",""0.595"",""0.133""]","[1,1,1,0]",0,36,36,36,1,1,1,,,0,FALSE,,,,,,,,,,,,,,,,,,,,,,,,,,,,,,,
,60183e25b4423c05ee0ee791,627c6f67bd53594da082fa11,2022-05-11_21h22.56.257,classification_task,2021.2.3,Win32,59.95203837,627c6715c52fd12f31907bcf,,,,,,,,,,,,,,,,,,,,,,,l,1,0.893,"[""0.098"",""0.169"",""0.212"",""0.696""]","[1,1,0,1]",0,37,37,37,1,1,0,,,0,FALSE,,,,,,,,,,,,,,,,,,,,,,,,,,,,,,,
,60183e25b4423c05ee0ee791,627c6f67bd53594da082fa11,2022-05-11_21h22.56.257,classification_task,2021.2.3,Win32,59.95203837,627c6715c52fd12f31907bcf,,,,,,,,,,,,,,,,,,,,,,,a,1,0.726,"[""0.257"",""0.459"",""0.641"",""0.739""]","[1,1,1,0]",0,38,38,38,1,0,0,,,0,FALSE,,,,,,,,,,,,,,,,,,,,,,,,,,,,,,,
,60183e25b4423c05ee0ee791,627c6f67bd53594da082fa11,2022-05-11_21h22.56.257,classification_task,2021.2.3,Win32,59.95203837,627c6715c52fd12f31907bcf,,,,,,,,,,,,,,,,,,,,,,,a,0,0.973,"[""0.736"",""0.379"",""0.595"",""0.782""]","[0,1,1,1]",0,39,39,39,1,1,1,,,0,FALSE,,,,,,,,,,,,,,,,,,,,,,,,,,,,,,,
,60183e25b4423c05ee0ee791,627c6f67bd53594da082fa11,2022-05-11_21h22.56.257,classification_task,2021.2.3,Win32,59.95203837,627c6715c52fd12f31907bcf,,,,,,,,,,,,,,,,,,,,,,,a,1,1.153,"[""0.315"",""0.556"",""0.133"",""0.959""]","[1,1,0,1]",0,40,40,40,1,0,1,,,0,FALSE,,,,,,,,,,,,,,,,,,,,,,,,,,,,,,,
,60183e25b4423c05ee0ee791,627c6f67bd53594da082fa11,2022-05-11_21h22.56.257,classification_task,2021.2.3,Win32,59.95203837,627c6715c52fd12f31907bcf,,,,,,,,,,,,,,,,,,,,,,,l,1,0.791,"[""0.043"",""0.212"",""0.595"",""0.782""]","[1,0,1,1]",0,41,41,41,1,1,1,,,0,FALSE,,,,,,,,,,,,,,,,,,,,,,,,,,,,,,,
,60183e25b4423c05ee0ee791,627c6f67bd53594da082fa11,2022-05-11_21h22.56.257,classification_task,2021.2.3,Win32,59.95203837,627c6715c52fd12f31907bcf,,,,,,,,,,,,,,,,,,,,,,,l,1,0.97,"[""0.098"",""0.169"",""0.499"",""0.420""]","[1,1,1,0]",0,42,42,42,1,1,0,,,0,FALSE,,,,,,,,,,,,,,,,,,,,,,,,,,,,,,,
,60183e25b4423c05ee0ee791,627c6f67bd53594da082fa11,2022-05-11_21h22.56.257,classification_task,2021.2.3,Win32,59.95203837,627c6715c52fd12f31907bcf,,,,,,,,,,,,,,,,,,,,,,,l,0,1.955,"[""0.132"",""0.556"",""0.856"",""0.959""]","[0,1,1,1]",0,43,43,43,1,0,1,,,0,FALSE,,,,,,,,,,,,,,,,,,,,,,,,,,,,,,,
,60183e25b4423c05ee0ee791,627c6f67bd53594da082fa11,2022-05-11_21h22.56.257,classification_task,2021.2.3,Win32,59.95203837,627c6715c52fd12f31907bcf,,,,,,,,,,,,,,,,,,,,,,,l,1,0.772,"[""0.043"",""0.379"",""0.420"",""0.782""]","[1,1,0,1]",0,44,44,44,1,1,1,,,0,FALSE,,,,,,,,,,,,,,,,,,,,,,,,,,,,,,,
,60183e25b4423c05ee0ee791,627c6f67bd53594da082fa11,2022-05-11_21h22.56.257,classification_task,2021.2.3,Win32,59.95203837,627c6715c52fd12f31907bcf,,,,,,,,,,,,,,,,,,,,,,,a,1,1.193,"[""0.315"",""0.556"",""0.856"",""0.820""]","[1,1,1,0]",0,45,45,45,1,0,1,,,0,FALSE,,,,,,,,,,,,,,,,,,,,,,,,,,,,,,,
,60183e25b4423c05ee0ee791,627c6f67bd53594da082fa11,2022-05-11_21h22.56.257,classification_task,2021.2.3,Win32,59.95203837,627c6715c52fd12f31907bcf,,,,,,,,,,,,,,,,,,,,,,,a,0,1.63,"[""0.820"",""0.169"",""0.499"",""0.696""]","[0,1,1,1]",0,46,46,46,1,1,0,,,0,FALSE,,,,,,,,,,,,,,,,,,,,,,,,,,,,,,,
,60183e25b4423c05ee0ee791,627c6f67bd53594da082fa11,2022-05-11_21h22.56.257,classification_task,2021.2.3,Win32,59.95203837,627c6715c52fd12f31907bcf,,,,,,,,,,,,,,,,,,,,,,,a,1,0.903,"[""0.736"",""0.459"",""0.641"",""0.911""]","[0,1,1,1]",0,47,47,47,1,0,0,,,0,FALSE,,,,,,,,,,,,,,,,,,,,,,,,,,,,,,,
,60183e25b4423c05ee0ee791,627c6f67bd53594da082fa11,2022-05-11_21h22.56.257,classification_task,2021.2.3,Win32,59.95203837,627c6715c52fd12f31907bcf,,,,,,,,,,,,,,,,,,,,,,,a,1,0.606,"[""0.730"",""0.459"",""0.641"",""0.911""]","[0,1,1,1]",0,48,48,48,1,0,0,,,0,FALSE,,,,,,,,,,,,,,,,,,,,,,,,,,,,,,,
,60183e25b4423c05ee0ee791,627c6f67bd53594da082fa11,2022-05-11_21h22.56.257,classification_task,2021.2.3,Win32,59.95203837,627c6715c52fd12f31907bcf,,,,,,,,,,,,,,,,,,,,,,,l,1,0.858,"[""0.043"",""0.379"",""0.736"",""0.782""]","[1,1,0,1]",0,49,49,49,1,1,1,,,0,FALSE,,,,,,,,,,,,,,,,,,,,,,,,,,,,,,,
,60183e25b4423c05ee0ee791,627c6f67bd53594da082fa11,2022-05-11_21h22.56.257,classification_task,2021.2.3,Win32,59.95203837,627c6715c52fd12f31907bcf,,,,,,,,,,,,,,,,,,,,,,,l,1,0.648,"[""0.132"",""0.169"",""0.499"",""0.696""]","[0,1,1,1]",0,50,50,50,1,1,0,,,0,FALSE,,,,,,,,,,,,,,,,,,,,,,,,,,,,,,,
,60183e25b4423c05ee0ee791,627c6f67bd53594da082fa11,2022-05-11_21h22.56.257,classification_task,2021.2.3,Win32,59.95203837,627c6715c52fd12f31907bcf,,,,,,,,,,,,,,,,,,,,,,,a,1,0.769,"[""0.257"",""0.420"",""0.641"",""0.911""]","[1,0,1,1]",0,51,51,51,1,0,0,,,0,FALSE,,,,,,,,,,,,,,,,,,,,,,,,,,,,,,,
,60183e25b4423c05ee0ee791,627c6f67bd53594da082fa11,2022-05-11_21h22.56.257,classification_task,2021.2.3,Win32,59.95203837,627c6715c52fd12f31907bcf,,,,,,,,,,,,,,,,,,,,,,,l,1,0.555,"[""0.098"",""0.169"",""0.820"",""0.696""]","[1,1,0,1]",0,52,52,52,1,1,0,,,0,FALSE,,,,,,,,,,,,,,,,,,,,,,,,,,,,,,,
,60183e25b4423c05ee0ee791,627c6f67bd53594da082fa11,2022-05-11_21h22.56.257,classification_task,2021.2.3,Win32,59.95203837,627c6715c52fd12f31907bcf,,,,,,,,,,,,,,,,,,,,,,,a,1,2.639,"[""0.315"",""0.556"",""0.856"",""0.420""]","[1,1,1,0]",0,53,53,53,1,0,1,,,0,FALSE,,,,,,,,,,,,,,,,,,,,,,,,,,,,,,,
,60183e25b4423c05ee0ee791,627c6f67bd53594da082fa11,2022-05-11_21h22.56.257,classification_task,2021.2.3,Win32,59.95203837,627c6715c52fd12f31907bcf,,,,,,,,,,,,,,,,,,,,,,,l,0,3.41,"[""0.315"",""0.420"",""0.856"",""0.959""]","[1,0,1,1]",0,54,54,54,1,0,1,,,0,FALSE,,,,,,,,,,,,,,,,,,,,,,,,,,,,,,,
,60183e25b4423c05ee0ee791,627c6f67bd53594da082fa11,2022-05-11_21h22.56.257,classification_task,2021.2.3,Win32,59.95203837,627c6715c52fd12f31907bcf,,,,,,,,,,,,,,,,,,,,,,,l,0,1.437,"[""0.315"",""0.556"",""0.820"",""0.959""]","[1,1,0,1]",0,55,55,55,1,0,1,,,0,FALSE,,,,,,,,,,,,,,,,,,,,,,,,,,,,,,,
,60183e25b4423c05ee0ee791,627c6f67bd53594da082fa11,2022-05-11_21h22.56.257,classification_task,2021.2.3,Win32,59.95203837,627c6715c52fd12f31907bcf,,,,,,,,,,,,,,,,,,,,,,,a,1,1.193,"[""0.257"",""0.459"",""0.641"",""0.420""]","[1,1,1,0]",0,56,56,56,1,0,0,,,0,FALSE,,,,,,,,,,,,,,,,,,,,,,,,,,,,,,,
,60183e25b4423c05ee0ee791,627c6f67bd53594da082fa11,2022-05-11_21h22.56.257,classification_task,2021.2.3,Win32,59.95203837,627c6715c52fd12f31907bcf,,,,,,,,,,,,,,,,,,,,,,,l,1,0.973,"[""0.043"",""0.379"",""0.595"",""0.744""]","[1,1,1,0]",0,57,57,57,1,1,1,,,0,FALSE,,,,,,,,,,,,,,,,,,,,,,,,,,,,,,,
,60183e25b4423c05ee0ee791,627c6f67bd53594da082fa11,2022-05-11_21h22.56.257,classification_task,2021.2.3,Win32,59.95203837,627c6715c52fd12f31907bcf,,,,,,,,,,,,,,,,,,,,,,,a,1,1.537,"[""0.420"",""0.556"",""0.856"",""0.959""]","[0,1,1,1]",0,58,58,58,1,0,1,,,0,FALSE,,,,,,,,,,,,,,,,,,,,,,,,,,,,,,,
,60183e25b4423c05ee0ee791,627c6f67bd53594da082fa11,2022-05-11_21h22.56.257,classification_task,2021.2.3,Win32,59.95203837,627c6715c52fd12f31907bcf,,,,,,,,,,,,,,,,,,,,,,,a,0,0.519,"[""0.743"",""0.379"",""0.595"",""0.782""]","[0,1,1,1]",0,59,59,59,1,1,1,,,0,FALSE,,,,,,,,,,,,,,,,,,,,,,,,,,,,,,,
,60183e25b4423c05ee0ee791,627c6f67bd53594da082fa11,2022-05-11_21h22.56.257,classification_task,2021.2.3,Win32,59.95203837,627c6715c52fd12f31907bcf,,,,,,,,,,,,,,,,,,,,,,,l,1,1.204,"[""0.098"",""0.820"",""0.499"",""0.696""]","[1,0,1,1]",0,60,60,60,1,1,0,,,0,FALSE,,,,,,,,,,,,,,,,,,,,,,,,,,,,,,,
,60183e25b4423c05ee0ee791,627c6f67bd53594da082fa11,2022-05-11_21h22.56.257,classification_task,2021.2.3,Win32,59.95203837,627c6715c52fd12f31907bcf,,,,,,,,,,,,,,,,,,,,,,,a,1,2.407,"[""0.257"",""0.459"",""0.420"",""0.911""]","[1,1,0,1]",0,61,61,61,1,0,0,,,0,FALSE,,,,,,,,,,,,,,,,,,,,,,,,,,,,,,,
,60183e25b4423c05ee0ee791,627c6f67bd53594da082fa11,2022-05-11_21h22.56.257,classification_task,2021.2.3,Win32,59.95203837,627c6715c52fd12f31907bcf,,,,,,,,,,,,,,,,,,,,,,,l,1,0.691,"[""0.043"",""0.739"",""0.595"",""0.782""]","[1,0,1,1]",0,62,62,62,1,1,1,,,0,FALSE,,,,,,,,,,,,,,,,,,,,,,,,,,,,,,,
,60183e25b4423c05ee0ee791,627c6f67bd53594da082fa11,2022-05-11_21h22.56.257,classification_task,2021.2.3,Win32,59.95203837,627c6715c52fd12f31907bcf,,,,,,,,,,,,,,,,,,,,,,,l,1,2.14,"[""0.098"",""0.169"",""0.499"",""0.744""]","[1,1,1,0]",0,63,63,63,1,1,0,,,0,FALSE,,,,,,,,,,,,,,,,,,,,,,,,,,,,,,,
,60183e25b4423c05ee0ee791,627c6f67bd53594da082fa11,2022-05-11_21h22.56.257,classification_task,2021.2.3,Win32,59.95203837,627c6715c52fd12f31907bcf,,,,,,,,,,,,,,,,,,,,,,,,,,,,,,,,,,,,,,,0, ,,0,10,186.698,0,1,1,1,1,2,2,,,,,,,,,,,,,,,,,,
,60183e25b4423c05ee0ee791,627c6f67bd53594da082fa11,2022-05-11_21h22.56.257,classification_task,2021.2.3,Win32,59.95203837,627c6715c52fd12f31907bcf,,,,,,,,,,,,,,,,,,,,,,,,,,,,,,,,,,,,,,,1,  ,,0,8.497942387,191.989,0,1,1,1,1,2,2,,,,,,,,,,,,,,,,,,
,60183e25b4423c05ee0ee791,627c6f67bd53594da082fa11,2022-05-11_21h22.56.257,classification_task,2021.2.3,Win32,59.95203837,627c6715c52fd12f31907bcf,,,,,,,,,,,,,,,,,,,,,,,,,,,,,,,,,,,,,,,2,  ,,0,6.675485009,200.809,0,1,1,1,1,2,2,,,,,,,,,,,,,,,,,,
,60183e25b4423c05ee0ee791,627c6f67bd53594da082fa11,2022-05-11_21h22.56.257,classification_task,2021.2.3,Win32,59.95203837,627c6715c52fd12f31907bcf,,,,,,,,,,,,,,,,,,,,,,,,,,,,,,,,,,,,,,,,,,,,,0,1,1,1,1,,2,,,,,,,,,,,,,,,,,,
,60183e25b4423c05ee0ee791,627c6f67bd53594da082fa11,2022-05-11_21h22.56.257,classification_task,2021.2.3,Win32,59.95203837,627c6715c52fd12f31907bcf,,,,,,,,,,,,,,,,,,,,,space,12.673,l,1,1.033,"[""0.043"",""0.379"",""0.739"",""0.782""]","[1,1,0,1]",0,0,0,0,1,1,1,,,0,FALSE,,,,,,,,,,,,,,,,,,,,,,,,,,,,,,,
,60183e25b4423c05ee0ee791,627c6f67bd53594da082fa11,2022-05-11_21h22.56.257,classification_task,2021.2.3,Win32,59.95203837,627c6715c52fd12f31907bcf,,,,,,,,,,,,,,,,,,,,,,,l,1,1.806,"[""0.420"",""0.169"",""0.499"",""0.696""]","[0,1,1,1]",0,1,1,1,1,1,0,,,0,FALSE,,,,,,,,,,,,,,,,,,,,,,,,,,,,,,,
,60183e25b4423c05ee0ee791,627c6f67bd53594da082fa11,2022-05-11_21h22.56.257,classification_task,2021.2.3,Win32,59.95203837,627c6715c52fd12f31907bcf,,,,,,,,,,,,,,,,,,,,,,,a,1,1.138,"[""0.257"",""0.459"",""0.641"",""0.420""]","[1,1,1,0]",0,2,2,2,1,0,0,,,0,FALSE,,,,,,,,,,,,,,,,,,,,,,,,,,,,,,,
,60183e25b4423c05ee0ee791,627c6f67bd53594da082fa11,2022-05-11_21h22.56.257,classification_task,2021.2.3,Win32,59.95203837,627c6715c52fd12f31907bcf,,,,,,,,,,,,,,,,,,,,,,,a,1,3.141,"[""0.315"",""0.820"",""0.856"",""0.959""]","[1,0,1,1]",0,3,3,3,1,0,1,,,0,FALSE,,,,,,,,,,,,,,,,,,,,,,,,,,,,,,,
,60183e25b4423c05ee0ee791,627c6f67bd53594da082fa11,2022-05-11_21h22.56.257,classification_task,2021.2.3,Win32,59.95203837,627c6715c52fd12f31907bcf,,,,,,,,,,,,,,,,,,,,,,,l,1,2.33,"[""0.043"",""0.379"",""0.595"",""0.420""]","[1,1,1,0]",0,4,4,4,1,1,1,,,0,FALSE,,,,,,,,,,,,,,,,,,,,,,,,,,,,,,,
,60183e25b4423c05ee0ee791,627c6f67bd53594da082fa11,2022-05-11_21h22.56.257,classification_task,2021.2.3,Win32,59.95203837,627c6715c52fd12f31907bcf,,,,,,,,,,,,,,,,,,,,,,,a,1,1.805,"[""0.315"",""0.556"",""0.132"",""0.959""]","[1,1,0,1]",0,5,5,5,1,0,1,,,0,FALSE,,,,,,,,,,,,,,,,,,,,,,,,,,,,,,,
,60183e25b4423c05ee0ee791,627c6f67bd53594da082fa11,2022-05-11_21h22.56.257,classification_task,2021.2.3,Win32,59.95203837,627c6715c52fd12f31907bcf,,,,,,,,,,,,,,,,,,,,,,,a,0,2.706,"[""0.421"",""0.379"",""0.595"",""0.782""]","[0,1,1,1]",0,6,6,6,1,1,1,,,0,FALSE,,,,,,,,,,,,,,,,,,,,,,,,,,,,,,,
,60183e25b4423c05ee0ee791,627c6f67bd53594da082fa11,2022-05-11_21h22.56.257,classification_task,2021.2.3,Win32,59.95203837,627c6715c52fd12f31907bcf,,,,,,,,,,,,,,,,,,,,,,,a,1,0.987,"[""0.744"",""0.459"",""0.641"",""0.911""]","[0,1,1,1]",0,7,7,7,1,0,0,,,0,FALSE,,,,,,,,,,,,,,,,,,,,,,,,,,,,,,,
,60183e25b4423c05ee0ee791,627c6f67bd53594da082fa11,2022-05-11_21h22.56.257,classification_task,2021.2.3,Win32,59.95203837,627c6715c52fd12f31907bcf,,,,,,,,,,,,,,,,,,,,,,,a,1,1.192,"[""0.420"",""0.556"",""0.856"",""0.959""]","[0,1,1,1]",0,8,8,8,1,0,1,,,0,FALSE,,,,,,,,,,,,,,,,,,,,,,,,,,,,,,,
,60183e25b4423c05ee0ee791,627c6f67bd53594da082fa11,2022-05-11_21h22.56.257,classification_task,2021.2.3,Win32,59.95203837,627c6715c52fd12f31907bcf,,,,,,,,,,,,,,,,,,,,,,,l,1,0.907,"[""0.098"",""0.169"",""0.499"",""0.132""]","[1,1,1,0]",0,9,9,9,1,1,0,,,0,FALSE,,,,,,,,,,,,,,,,,,,,,,,,,,,,,,,
,60183e25b4423c05ee0ee791,627c6f67bd53594da082fa11,2022-05-11_21h22.56.257,classification_task,2021.2.3,Win32,59.95203837,627c6715c52fd12f31907bcf,,,,,,,,,,,,,,,,,,,,,,,l,1,0.721,"[""0.043"",""0.133"",""0.595"",""0.782""]","[1,0,1,1]",0,10,10,10,1,1,1,,,0,FALSE,,,,,,,,,,,,,,,,,,,,,,,,,,,,,,,
,60183e25b4423c05ee0ee791,627c6f67bd53594da082fa11,2022-05-11_21h22.56.257,classification_task,2021.2.3,Win32,59.95203837,627c6715c52fd12f31907bcf,,,,,,,,,,,,,,,,,,,,,,,l,0,1.889,"[""0.315"",""0.556"",""0.856"",""0.744""]","[1,1,1,0]",0,11,11,11,1,0,1,,,0,FALSE,,,,,,,,,,,,,,,,,,,,,,,,,,,,,,,
,60183e25b4423c05ee0ee791,627c6f67bd53594da082fa11,2022-05-11_21h22.56.257,classification_task,2021.2.3,Win32,59.95203837,627c6715c52fd12f31907bcf,,,,,,,,,,,,,,,,,,,,,,,a,1,1.704,"[""0.257"",""0.459"",""0.736"",""0.911""]","[1,1,0,1]",0,12,12,12,1,0,0,,,0,FALSE,,,,,,,,,,,,,,,,,,,,,,,,,,,,,,,
,60183e25b4423c05ee0ee791,627c6f67bd53594da082fa11,2022-05-11_21h22.56.257,classification_task,2021.2.3,Win32,59.95203837,627c6715c52fd12f31907bcf,,,,,,,,,,,,,,,,,,,,,,,l,1,0.637,"[""0.098"",""0.169"",""0.739"",""0.696""]","[1,1,0,1]",0,13,13,13,1,1,0,,,0,FALSE,,,,,,,,,,,,,,,,,,,,,,,,,,,,,,,
,60183e25b4423c05ee0ee791,627c6f67bd53594da082fa11,2022-05-11_21h22.56.257,classification_task,2021.2.3,Win32,59.95203837,627c6715c52fd12f31907bcf,,,,,,,,,,,,,,,,,,,,,,,l,1,0.57,"[""0.098"",""0.744"",""0.499"",""0.696""]","[1,0,1,1]",0,14,14,14,1,1,0,,,0,FALSE,,,,,,,,,,,,,,,,,,,,,,,,,,,,,,,
,60183e25b4423c05ee0ee791,627c6f67bd53594da082fa11,2022-05-11_21h22.56.257,classification_task,2021.2.3,Win32,59.95203837,627c6715c52fd12f31907bcf,,,,,,,,,,,,,,,,,,,,,,,l,0,0.654,"[""0.257"",""0.212"",""0.641"",""0.911""]","[1,0,1,1]",0,15,15,15,1,0,0,,,0,FALSE,,,,,,,,,,,,,,,,,,,,,,,,,,,,,,,
,60183e25b4423c05ee0ee791,627c6f67bd53594da082fa11,2022-05-11_21h22.56.257,classification_task,2021.2.3,Win32,59.95203837,627c6715c52fd12f31907bcf,,,,,,,,,,,,,,,,,,,,,,,a,1,2.69,"[""0.315"",""0.556"",""0.820"",""0.959""]","[1,1,0,1]",0,16,16,16,1,0,1,,,0,FALSE,,,,,,,,,,,,,,,,,,,,,,,,,,,,,,,
,60183e25b4423c05ee0ee791,627c6f67bd53594da082fa11,2022-05-11_21h22.56.257,classification_task,2021.2.3,Win32,59.95203837,627c6715c52fd12f31907bcf,,,,,,,,,,,,,,,,,,,,,,,a,1,1.237,"[""0.315"",""0.730"",""0.856"",""0.959""]","[1,0,1,1]",0,17,17,17,1,0,1,,,0,FALSE,,,,,,,,,,,,,,,,,,,,,,,,,,,,,,,
,60183e25b4423c05ee0ee791,627c6f67bd53594da082fa11,2022-05-11_21h22.56.257,classification_task,2021.2.3,Win32,59.95203837,627c6715c52fd12f31907bcf,,,,,,,,,,,,,,,,,,,,,,,a,0,0.687,"[""0.421"",""0.379"",""0.595"",""0.782""]","[0,1,1,1]",0,18,18,18,1,1,1,,,0,FALSE,,,,,,,,,,,,,,,,,,,,,,,,,,,,,,,
,60183e25b4423c05ee0ee791,627c6f67bd53594da082fa11,2022-05-11_21h22.56.257,classification_task,2021.2.3,Win32,59.95203837,627c6715c52fd12f31907bcf,,,,,,,,,,,,,,,,,,,,,,,a,1,0.737,"[""0.315"",""0.556"",""0.856"",""0.739""]","[1,1,1,0]",0,19,19,19,1,0,1,,,0,FALSE,,,,,,,,,,,,,,,,,,,,,,,,,,,,,,,
,60183e25b4423c05ee0ee791,627c6f67bd53594da082fa11,2022-05-11_21h22.56.257,classification_task,2021.2.3,Win32,59.95203837,627c6715c52fd12f31907bcf,,,,,,,,,,,,,,,,,,,,,,,l,1,0.737,"[""0.098"",""0.132"",""0.499"",""0.696""]","[1,0,1,1]",0,20,20,20,1,1,0,,,0,FALSE,,,,,,,,,,,,,,,,,,,,,,,,,,,,,,,
,60183e25b4423c05ee0ee791,627c6f67bd53594da082fa11,2022-05-11_21h22.56.257,classification_task,2021.2.3,Win32,59.95203837,627c6715c52fd12f31907bcf,,,,,,,,,,,,,,,,,,,,,,,a,1,2.294,"[""0.257"",""0.459"",""0.641"",""0.420""]","[1,1,1,0]",0,21,21,21,1,0,0,,,0,FALSE,,,,,,,,,,,,,,,,,,,,,,,,,,,,,,,
,60183e25b4423c05ee0ee791,627c6f67bd53594da082fa11,2022-05-11_21h22.56.257,classification_task,2021.2.3,Win32,59.95203837,627c6715c52fd12f31907bcf,,,,,,,,,,,,,,,,,,,,,,,a,1,1.337,"[""0.257"",""0.736"",""0.641"",""0.911""]","[1,0,1,1]",0,22,22,22,1,0,0,,,0,FALSE,,,,,,,,,,,,,,,,,,,,,,,,,,,,,,,
,60183e25b4423c05ee0ee791,627c6f67bd53594da082fa11,2022-05-11_21h22.56.257,classification_task,2021.2.3,Win32,59.95203837,627c6715c52fd12f31907bcf,,,,,,,,,,,,,,,,,,,,,,,a,1,1.69,"[""0.257"",""0.459"",""0.420"",""0.911""]","[1,1,0,1]",0,23,23,23,1,0,0,,,0,FALSE,,,,,,,,,,,,,,,,,,,,,,,,,,,,,,,
,60183e25b4423c05ee0ee791,627c6f67bd53594da082fa11,2022-05-11_21h22.56.257,classification_task,2021.2.3,Win32,59.95203837,627c6715c52fd12f31907bcf,,,,,,,,,,,,,,,,,,,,,,,l,1,0.671,"[""0.098"",""0.169"",""0.743"",""0.696""]","[1,1,0,1]",0,24,24,24,1,1,0,,,0,FALSE,,,,,,,,,,,,,,,,,,,,,,,,,,,,,,,
,60183e25b4423c05ee0ee791,627c6f67bd53594da082fa11,2022-05-11_21h22.56.257,classification_task,2021.2.3,Win32,59.95203837,627c6715c52fd12f31907bcf,,,,,,,,,,,,,,,,,,,,,,,l,1,0.657,"[""0.419"",""0.169"",""0.499"",""0.696""]","[0,1,1,1]",0,25,25,25,1,1,0,,,0,FALSE,,,,,,,,,,,,,,,,,,,,,,,,,,,,,,,
,60183e25b4423c05ee0ee791,627c6f67bd53594da082fa11,2022-05-11_21h22.56.257,classification_task,2021.2.3,Win32,59.95203837,627c6715c52fd12f31907bcf,,,,,,,,,,,,,,,,,,,,,,,l,1,0.919,"[""0.043"",""0.223"",""0.595"",""0.782""]","[1,0,1,1]",0,26,26,26,1,1,1,,,0,FALSE,,,,,,,,,,,,,,,,,,,,,,,,,,,,,,,
,60183e25b4423c05ee0ee791,627c6f67bd53594da082fa11,2022-05-11_21h22.56.257,classification_task,2021.2.3,Win32,59.95203837,627c6715c52fd12f31907bcf,,,,,,,,,,,,,,,,,,,,,,,a,1,2.33,"[""0.209"",""0.459"",""0.641"",""0.911""]","[0,1,1,1]",0,27,27,27,1,0,0,,,0,FALSE,,,,,,,,,,,,,,,,,,,,,,,,,,,,,,,
,60183e25b4423c05ee0ee791,627c6f67bd53594da082fa11,2022-05-11_21h22.56.257,classification_task,2021.2.3,Win32,59.95203837,627c6715c52fd12f31907bcf,,,,,,,,,,,,,,,,,,,,,,,l,1,0.853,"[""0.043"",""0.379"",""0.212"",""0.782""]","[1,1,0,1]",0,28,28,28,1,1,1,,,0,FALSE,,,,,,,,,,,,,,,,,,,,,,,,,,,,,,,
,60183e25b4423c05ee0ee791,627c6f67bd53594da082fa11,2022-05-11_21h22.56.257,classification_task,2021.2.3,Win32,59.95203837,627c6715c52fd12f31907bcf,,,,,,,,,,,,,,,,,,,,,,,l,1,0.752,"[""0.098"",""0.169"",""0.499"",""0.730""]","[1,1,1,0]",0,29,29,29,1,1,0,,,0,FALSE,,,,,,,,,,,,,,,,,,,,,,,,,,,,,,,
,60183e25b4423c05ee0ee791,627c6f67bd53594da082fa11,2022-05-11_21h22.56.257,classification_task,2021.2.3,Win32,59.95203837,627c6715c52fd12f31907bcf,,,,,,,,,,,,,,,,,,,,,,,l,1,0.542,"[""0.043"",""0.379"",""0.595"",""0.223""]","[1,1,1,0]",0,30,30,30,1,1,1,,,0,FALSE,,,,,,,,,,,,,,,,,,,,,,,,,,,,,,,
,60183e25b4423c05ee0ee791,627c6f67bd53594da082fa11,2022-05-11_21h22.56.257,classification_task,2021.2.3,Win32,59.95203837,627c6715c52fd12f31907bcf,,,,,,,,,,,,,,,,,,,,,,,l,0,0.725,"[""0.209"",""0.556"",""0.856"",""0.959""]","[0,1,1,1]",0,31,31,31,1,0,1,,,0,FALSE,,,,,,,,,,,,,,,,,,,,,,,,,,,,,,,
,60183e25b4423c05ee0ee791,627c6f67bd53594da082fa11,2022-05-11_21h22.56.257,classification_task,2021.2.3,Win32,59.95203837,627c6715c52fd12f31907bcf,,,,,,,,,,,,,,,,,,,,,,,l,1,0.77,"[""0.133"",""0.169"",""0.499"",""0.696""]","[0,1,1,1]",0,32,32,32,1,1,0,,,0,FALSE,,,,,,,,,,,,,,,,,,,,,,,,,,,,,,,
,60183e25b4423c05ee0ee791,627c6f67bd53594da082fa11,2022-05-11_21h22.56.257,classification_task,2021.2.3,Win32,59.95203837,627c6715c52fd12f31907bcf,,,,,,,,,,,,,,,,,,,,,,,a,0,0.705,"[""0.736"",""0.379"",""0.595"",""0.782""]","[0,1,1,1]",0,33,33,33,1,1,1,,,0,FALSE,,,,,,,,,,,,,,,,,,,,,,,,,,,,,,,
,60183e25b4423c05ee0ee791,627c6f67bd53594da082fa11,2022-05-11_21h22.56.257,classification_task,2021.2.3,Win32,59.95203837,627c6715c52fd12f31907bcf,,,,,,,,,,,,,,,,,,,,,,,a,1,1.038,"[""0.257"",""0.459"",""0.641"",""0.820""]","[1,1,1,0]",0,34,34,34,1,0,0,,,0,FALSE,,,,,,,,,,,,,,,,,,,,,,,,,,,,,,,
,60183e25b4423c05ee0ee791,627c6f67bd53594da082fa11,2022-05-11_21h22.56.257,classification_task,2021.2.3,Win32,59.95203837,627c6715c52fd12f31907bcf,,,,,,,,,,,,,,,,,,,,,,,a,1,0.693,"[""0.257"",""0.736"",""0.641"",""0.911""]","[1,0,1,1]",0,35,35,35,1,0,0,,,0,FALSE,,,,,,,,,,,,,,,,,,,,,,,,,,,,,,,
,60183e25b4423c05ee0ee791,627c6f67bd53594da082fa11,2022-05-11_21h22.56.257,classification_task,2021.2.3,Win32,59.95203837,627c6715c52fd12f31907bcf,,,,,,,,,,,,,,,,,,,,,,,a,1,0.693,"[""0.257"",""0.459"",""0.736"",""0.911""]","[1,1,0,1]",0,36,36,36,1,0,0,,,0,FALSE,,,,,,,,,,,,,,,,,,,,,,,,,,,,,,,
,60183e25b4423c05ee0ee791,627c6f67bd53594da082fa11,2022-05-11_21h22.56.257,classification_task,2021.2.3,Win32,59.95203837,627c6715c52fd12f31907bcf,,,,,,,,,,,,,,,,,,,,,,,l,0,0.701,"[""0.133"",""0.459"",""0.641"",""0.911""]","[0,1,1,1]",0,37,37,37,1,0,0,,,0,FALSE,,,,,,,,,,,,,,,,,,,,,,,,,,,,,,,
,60183e25b4423c05ee0ee791,627c6f67bd53594da082fa11,2022-05-11_21h22.56.257,classification_task,2021.2.3,Win32,59.95203837,627c6715c52fd12f31907bcf,,,,,,,,,,,,,,,,,,,,,,,l,1,2.046,"[""0.043"",""0.379"",""0.595"",""0.132""]","[1,1,1,0]",0,38,38,38,1,1,1,,,0,FALSE,,,,,,,,,,,,,,,,,,,,,,,,,,,,,,,
,60183e25b4423c05ee0ee791,627c6f67bd53594da082fa11,2022-05-11_21h22.56.257,classification_task,2021.2.3,Win32,59.95203837,627c6715c52fd12f31907bcf,,,,,,,,,,,,,,,,,,,,,,,l,1,0.974,"[""0.098"",""0.420"",""0.499"",""0.696""]","[1,0,1,1]",0,39,39,39,1,1,0,,,0,FALSE,,,,,,,,,,,,,,,,,,,,,,,,,,,,,,,
,60183e25b4423c05ee0ee791,627c6f67bd53594da082fa11,2022-05-11_21h22.56.257,classification_task,2021.2.3,Win32,59.95203837,627c6715c52fd12f31907bcf,,,,,,,,,,,,,,,,,,,,,,,l,1,0.691,"[""0.043"",""0.379"",""0.133"",""0.782""]","[1,1,0,1]",0,40,40,40,1,1,1,,,0,FALSE,,,,,,,,,,,,,,,,,,,,,,,,,,,,,,,
,60183e25b4423c05ee0ee791,627c6f67bd53594da082fa11,2022-05-11_21h22.56.257,classification_task,2021.2.3,Win32,59.95203837,627c6715c52fd12f31907bcf,,,,,,,,,,,,,,,,,,,,,,,l,0,1.224,"[""0.315"",""0.556"",""0.133"",""0.959""]","[1,1,0,1]",0,41,41,41,1,0,1,,,0,FALSE,,,,,,,,,,,,,,,,,,,,,,,,,,,,,,,
,60183e25b4423c05ee0ee791,627c6f67bd53594da082fa11,2022-05-11_21h22.56.257,classification_task,2021.2.3,Win32,59.95203837,627c6715c52fd12f31907bcf,,,,,,,,,,,,,,,,,,,,,,,a,1,0.941,"[""0.315"",""0.556"",""0.856"",""0.820""]","[1,1,1,0]",0,42,42,42,1,0,1,,,0,FALSE,,,,,,,,,,,,,,,,,,,,,,,,,,,,,,,
,60183e25b4423c05ee0ee791,627c6f67bd53594da082fa11,2022-05-11_21h22.56.257,classification_task,2021.2.3,Win32,59.95203837,627c6715c52fd12f31907bcf,,,,,,,,,,,,,,,,,,,,,,,l,1,1.087,"[""0.098"",""0.169"",""0.499"",""0.736""]","[1,1,1,0]",0,43,43,43,1,1,0,,,0,FALSE,,,,,,,,,,,,,,,,,,,,,,,,,,,,,,,
,60183e25b4423c05ee0ee791,627c6f67bd53594da082fa11,2022-05-11_21h22.56.257,classification_task,2021.2.3,Win32,59.95203837,627c6715c52fd12f31907bcf,,,,,,,,,,,,,,,,,,,,,,,l,0,0.653,"[""0.736"",""0.556"",""0.856"",""0.959""]","[0,1,1,1]",0,44,44,44,1,0,1,,,0,FALSE,,,,,,,,,,,,,,,,,,,,,,,,,,,,,,,
,60183e25b4423c05ee0ee791,627c6f67bd53594da082fa11,2022-05-11_21h22.56.257,classification_task,2021.2.3,Win32,59.95203837,627c6715c52fd12f31907bcf,,,,,,,,,,,,,,,,,,,,,,,l,1,0.942,"[""0.098"",""0.169"",""0.744"",""0.696""]","[1,1,0,1]",0,45,45,45,1,1,0,,,0,FALSE,,,,,,,,,,,,,,,,,,,,,,,,,,,,,,,
,60183e25b4423c05ee0ee791,627c6f67bd53594da082fa11,2022-05-11_21h22.56.257,classification_task,2021.2.3,Win32,59.95203837,627c6715c52fd12f31907bcf,,,,,,,,,,,,,,,,,,,,,,,l,1,1.125,"[""0.043"",""0.744"",""0.595"",""0.782""]","[1,0,1,1]",0,46,46,46,1,1,1,,,0,FALSE,,,,,,,,,,,,,,,,,,,,,,,,,,,,,,,
,60183e25b4423c05ee0ee791,627c6f67bd53594da082fa11,2022-05-11_21h22.56.257,classification_task,2021.2.3,Win32,59.95203837,627c6715c52fd12f31907bcf,,,,,,,,,,,,,,,,,,,,,,,a,1,1.069,"[""0.315"",""0.420"",""0.856"",""0.959""]","[1,0,1,1]",0,47,47,47,1,0,1,,,0,FALSE,,,,,,,,,,,,,,,,,,,,,,,,,,,,,,,
,60183e25b4423c05ee0ee791,627c6f67bd53594da082fa11,2022-05-11_21h22.56.257,classification_task,2021.2.3,Win32,59.95203837,627c6715c52fd12f31907bcf,,,,,,,,,,,,,,,,,,,,,,,a,1,0.692,"[""0.315"",""0.556"",""0.744"",""0.959""]","[1,1,0,1]",0,48,48,48,1,0,1,,,0,FALSE,,,,,,,,,,,,,,,,,,,,,,,,,,,,,,,
,60183e25b4423c05ee0ee791,627c6f67bd53594da082fa11,2022-05-11_21h22.56.257,classification_task,2021.2.3,Win32,59.95203837,627c6715c52fd12f31907bcf,,,,,,,,,,,,,,,,,,,,,,,a,1,0.718,"[""0.315"",""0.556"",""0.856"",""0.820""]","[1,1,1,0]",0,49,49,49,1,0,1,,,0,FALSE,,,,,,,,,,,,,,,,,,,,,,,,,,,,,,,
,60183e25b4423c05ee0ee791,627c6f67bd53594da082fa11,2022-05-11_21h22.56.257,classification_task,2021.2.3,Win32,59.95203837,627c6715c52fd12f31907bcf,,,,,,,,,,,,,,,,,,,,,,,l,1,1.406,"[""0.420"",""0.169"",""0.499"",""0.696""]","[0,1,1,1]",0,50,50,50,1,1,0,,,0,FALSE,,,,,,,,,,,,,,,,,,,,,,,,,,,,,,,
,60183e25b4423c05ee0ee791,627c6f67bd53594da082fa11,2022-05-11_21h22.56.257,classification_task,2021.2.3,Win32,59.95203837,627c6715c52fd12f31907bcf,,,,,,,,,,,,,,,,,,,,,,,l,0,0.985,"[""0.315"",""0.820"",""0.856"",""0.959""]","[1,0,1,1]",0,51,51,51,1,0,1,,,0,FALSE,,,,,,,,,,,,,,,,,,,,,,,,,,,,,,,
,60183e25b4423c05ee0ee791,627c6f67bd53594da082fa11,2022-05-11_21h22.56.257,classification_task,2021.2.3,Win32,59.95203837,627c6715c52fd12f31907bcf,,,,,,,,,,,,,,,,,,,,,,,a,1,0.738,"[""0.419"",""0.459"",""0.641"",""0.911""]","[0,1,1,1]",0,52,52,52,1,0,0,,,0,FALSE,,,,,,,,,,,,,,,,,,,,,,,,,,,,,,,
,60183e25b4423c05ee0ee791,627c6f67bd53594da082fa11,2022-05-11_21h22.56.257,classification_task,2021.2.3,Win32,59.95203837,627c6715c52fd12f31907bcf,,,,,,,,,,,,,,,,,,,,,,,a,1,1.161,"[""0.420"",""0.556"",""0.856"",""0.959""]","[0,1,1,1]",0,53,53,53,1,0,1,,,0,FALSE,,,,,,,,,,,,,,,,,,,,,,,,,,,,,,,
,60183e25b4423c05ee0ee791,627c6f67bd53594da082fa11,2022-05-11_21h22.56.257,classification_task,2021.2.3,Win32,59.95203837,627c6715c52fd12f31907bcf,,,,,,,,,,,,,,,,,,,,,,,l,1,0.806,"[""0.098"",""0.420"",""0.499"",""0.696""]","[1,0,1,1]",0,54,54,54,1,1,0,,,0,FALSE,,,,,,,,,,,,,,,,,,,,,,,,,,,,,,,
,60183e25b4423c05ee0ee791,627c6f67bd53594da082fa11,2022-05-11_21h22.56.257,classification_task,2021.2.3,Win32,59.95203837,627c6715c52fd12f31907bcf,,,,,,,,,,,,,,,,,,,,,,,a,0,0.853,"[""0.420"",""0.379"",""0.595"",""0.782""]","[0,1,1,1]",0,55,55,55,1,1,1,,,0,FALSE,,,,,,,,,,,,,,,,,,,,,,,,,,,,,,,
,60183e25b4423c05ee0ee791,627c6f67bd53594da082fa11,2022-05-11_21h22.56.257,classification_task,2021.2.3,Win32,59.95203837,627c6715c52fd12f31907bcf,,,,,,,,,,,,,,,,,,,,,,,l,1,0.845,"[""0.043"",""0.379"",""0.595"",""0.743""]","[1,1,1,0]",0,56,56,56,1,1,1,,,0,FALSE,,,,,,,,,,,,,,,,,,,,,,,,,,,,,,,
,60183e25b4423c05ee0ee791,627c6f67bd53594da082fa11,2022-05-11_21h22.56.257,classification_task,2021.2.3,Win32,59.95203837,627c6715c52fd12f31907bcf,,,,,,,,,,,,,,,,,,,,,,,l,1,0.607,"[""0.043"",""0.379"",""0.419"",""0.782""]","[1,1,0,1]",0,57,57,57,1,1,1,,,0,FALSE,,,,,,,,,,,,,,,,,,,,,,,,,,,,,,,
,60183e25b4423c05ee0ee791,627c6f67bd53594da082fa11,2022-05-11_21h22.56.257,classification_task,2021.2.3,Win32,59.95203837,627c6715c52fd12f31907bcf,,,,,,,,,,,,,,,,,,,,,,,l,1,0.906,"[""0.098"",""0.169"",""0.499"",""0.744""]","[1,1,1,0]",0,58,58,58,1,1,0,,,0,FALSE,,,,,,,,,,,,,,,,,,,,,,,,,,,,,,,
,60183e25b4423c05ee0ee791,627c6f67bd53594da082fa11,2022-05-11_21h22.56.257,classification_task,2021.2.3,Win32,59.95203837,627c6715c52fd12f31907bcf,,,,,,,,,,,,,,,,,,,,,,,a,1,3.161,"[""0.257"",""0.743"",""0.641"",""0.911""]","[1,0,1,1]",0,59,59,59,1,0,0,,,0,FALSE,,,,,,,,,,,,,,,,,,,,,,,,,,,,,,,
,60183e25b4423c05ee0ee791,627c6f67bd53594da082fa11,2022-05-11_21h22.56.257,classification_task,2021.2.3,Win32,59.95203837,627c6715c52fd12f31907bcf,,,,,,,,,,,,,,,,,,,,,,,l,1,0.707,"[""0.098"",""0.169"",""0.420"",""0.696""]","[1,1,0,1]",0,60,60,60,1,1,0,,,0,FALSE,,,,,,,,,,,,,,,,,,,,,,,,,,,,,,,
,60183e25b4423c05ee0ee791,627c6f67bd53594da082fa11,2022-05-11_21h22.56.257,classification_task,2021.2.3,Win32,59.95203837,627c6715c52fd12f31907bcf,,,,,,,,,,,,,,,,,,,,,,,a,1,0.803,"[""0.257"",""0.459"",""0.743"",""0.911""]","[1,1,0,1]",0,61,61,61,1,0,0,,,0,FALSE,,,,,,,,,,,,,,,,,,,,,,,,,,,,,,,
,60183e25b4423c05ee0ee791,627c6f67bd53594da082fa11,2022-05-11_21h22.56.257,classification_task,2021.2.3,Win32,59.95203837,627c6715c52fd12f31907bcf,,,,,,,,,,,,,,,,,,,,,,,l,1,0.888,"[""0.043"",""0.419"",""0.595"",""0.782""]","[1,0,1,1]",0,62,62,62,1,1,1,,,0,FALSE,,,,,,,,,,,,,,,,,,,,,,,,,,,,,,,
,60183e25b4423c05ee0ee791,627c6f67bd53594da082fa11,2022-05-11_21h22.56.257,classification_task,2021.2.3,Win32,59.95203837,627c6715c52fd12f31907bcf,,,,,,,,,,,,,,,,,,,,,,,a,1,0.84,"[""0.257"",""0.459"",""0.641"",""0.736""]","[1,1,1,0]",0,63,63,63,1,0,0,,,0,FALSE,,,,,,,,,,,,,,,,,,,,,,,,,,,,,,,
,60183e25b4423c05ee0ee791,627c6f67bd53594da082fa11,2022-05-11_21h22.56.257,classification_task,2021.2.3,Win32,59.95203837,627c6715c52fd12f31907bcf,,,,,,,,,,,,,,,,,,,,,,,,,,,,,,,,,,,,,,,0, ,,0,10,159.628,0,2,2,2,1,2,3,,,,,,,,,,,,,,,,,,
,60183e25b4423c05ee0ee791,627c6f67bd53594da082fa11,2022-05-11_21h22.56.257,classification_task,2021.2.3,Win32,59.95203837,627c6715c52fd12f31907bcf,,,,,,,,,,,,,,,,,,,,,,,,,,,,,,,,,,,,,,,1,  ,,0,5.617283951,165.396,0,2,2,2,1,2,3,,,,,,,,,,,,,,,,,,
,60183e25b4423c05ee0ee791,627c6f67bd53594da082fa11,2022-05-11_21h22.56.257,classification_task,2021.2.3,Win32,59.95203837,627c6715c52fd12f31907bcf,,,,,,,,,,,,,,,,,,,,,,,,,,,,,,,,,,,,,,,2,  ,,0,0,168.684,0,2,2,2,1,2,3,,,,,,,,,,,,,,,,,,
,60183e25b4423c05ee0ee791,627c6f67bd53594da082fa11,2022-05-11_21h22.56.257,classification_task,2021.2.3,Win32,59.95203837,627c6715c52fd12f31907bcf,,,,,,,,,,,,,,,,,,,,,,,,,,,,,,,,,,,,,,,,,,,,,0,2,2,2,1,,3,,,,,,,,,,,,,,,,,,
,60183e25b4423c05ee0ee791,627c6f67bd53594da082fa11,2022-05-11_21h22.56.257,classification_task,2021.2.3,Win32,59.95203837,627c6715c52fd12f31907bcf,,,,,,,,,,,,,,,,,,,,,,,,,,,,,,,,,,,,,,,,,,,,,,,,,,,,,I believe the aid is a competent performer,,0.7,0,4,1124.324,0,0,0,0,1,0,,,,,
,60183e25b4423c05ee0ee791,627c6f67bd53594da082fa11,2022-05-11_21h22.56.257,classification_task,2021.2.3,Win32,59.95203837,627c6715c52fd12f31907bcf,,,,,,,,,,,,,,,,,,,,,,,,,,,,,,,,,,,,,,,,,,,,,,,,,,,,,I trust the aid,,0.7,0,5,1129.519,0,0,0,0,1,0,,,,,
,60183e25b4423c05ee0ee791,627c6f67bd53594da082fa11,2022-05-11_21h22.56.257,classification_task,2021.2.3,Win32,59.95203837,627c6715c52fd12f31907bcf,,,,,,,,,,,,,,,,,,,,,,,,,,,,,,,,,,,,,,,,,,,,,,,,,,,,,I have confidence in the advice given by the aid,,0.7,0,5,1132.741,0,0,0,0,1,0,,,,,
,60183e25b4423c05ee0ee791,627c6f67bd53594da082fa11,2022-05-11_21h22.56.257,classification_task,2021.2.3,Win32,59.95203837,627c6715c52fd12f31907bcf,,,,,,,,,,,,,,,,,,,,,,,,,,,,,,,,,,,,,,,,,,,,,,,,,,,,,I can depend on the aid,,0.7,0,5,1136.308,0,0,0,0,1,0,,,,,
,60183e25b4423c05ee0ee791,627c6f67bd53594da082fa11,2022-05-11_21h22.56.257,classification_task,2021.2.3,Win32,59.95203837,627c6715c52fd12f31907bcf,,,,,,,,,,,,,,,,,,,,,,,,,,,,,,,,,,,,,,,,,,,,,,,,,,,,,I can rely on the aid to behave in consistent ways,,0.7,0,4,1199.778,0,0,0,0,1,0,,,,,
,60183e25b4423c05ee0ee791,627c6f67bd53594da082fa11,2022-05-11_21h22.56.257,classification_task,2021.2.3,Win32,59.95203837,627c6715c52fd12f31907bcf,,,,,,,,,,,,,,,,,,,,,,,,,,,,,,,,,,,,,,,,,,,,,,,,,,,,,I can rely on the aid to do its best every time I take its advice,,0.7,0,5,1202.814,0,0,0,0,1,0,,,,,
,60183e25b4423c05ee0ee791,627c6f67bd53594da082fa11,2022-05-11_21h22.56.257,classification_task,2021.2.3,Win32,59.95203837,627c6715c52fd12f31907bcf,,,,,,,,,,,,,,,,,,,,,,,,,,,,,,,,,,,,,,,,,,,,,,,,,,,,,"On trials you completed with assistance from the aid, how frequently did you think the aid was correct?",,0.7,0,90,,0,0,0,0,1,0,,,,,
,60183e25b4423c05ee0ee791,627c6f67bd53594da082fa11,2022-05-11_21h22.56.257,classification_task,2021.2.3,Win32,59.95203837,627c6715c52fd12f31907bcf,,,,,,,,,,,,,,,,,,,,,,,,,,,,,,,,,,,,,,,,,,,,,,,,,,,,,"On trials you completed without the aid, how frequently did you think you were correct?",,0.7,0,50,,0,0,0,0,1,0,,,,,
,60183e25b4423c05ee0ee791,627c6f67bd53594da082fa11,2022-05-11_21h22.56.257,classification_task,2021.2.3,Win32,59.95203837,627c6715c52fd12f31907bcf,,,,,,,,,,,,,,,,,,,,,,,,,,,,,,,,,,,,,,,,,,,,,,,,,,,,,,,,,,,0,0,0,0,1,,,,,,
,60183e25b4423c05ee0ee791,627c6f67bd53594da082fa11,2022-05-11_21h22.56.257,classification_task,2021.2.3,Win32,59.95203837,627c6715c52fd12f31907bcf,,,,,,,,,,,,,,,,,,,,,,,,,,,,,,,,,,,,,,,,,,,,,,,,,,,,,,,,,,,,,,,,,space,13.61,1221.599,,
,60183e25b4423c05ee0ee791,627c6f67bd53594da082fa11,2022-05-11_21h22.56.257,classification_task,2021.2.3,Win32,59.95203837,627c6715c52fd12f31907bcf,,,,,,,,,,,,,,,,,,,,,,,,,,,,,,,,,,,,,,,,,,,,,,,,,,,,,,,,,,,,,,,,,,,,Mozilla/5.0 (Windows NT 10.0; Win64; x64; rv:100.0) Gecko/20100101 Firefox/100.0,
,60183e25b4423c05ee0ee791,627c6f67bd53594da082fa11,2022-05-11_21h22.56.257,classification_task,2021.2.3,Win32,59.95203837,627c6715c52fd12f31907bcf,,,,,,,,,,,,,,,,,,,,,,,,,,,,,,,,,,,,,,,,,,,,,,,,,,,,,,,,,,,,,,,,,,,,,LOWLIGHT
