usingWebGL,participant,session,date,expName,psychopyVersion,OS,frameRate,PROLIFIC_PID,STUDY_ID,SESSION_ID,signatures_friend,signatures_foe,band_ranges_top,band_ranges_bottom,formitemText,formtype,formundefined,formitemWidth,formindex,formresponse,formrt,key_resp_2.keys,key_resp_2.rt,tute_resp.keys,tute_resp.rt,tutorial.thisRepN,tutorial.thisTrialN,tutorial.thisN,tutorial.thisIndex,tutorial.ran,key_resp_4.keys,key_resp_4.rt,key_resp.keys,key_resp.corr,key_resp.rt,lines_presented,is_signal_presented,trials.thisRepN,trials.thisTrialN,trials.thisN,trials.thisIndex,trials.ran,vessel,active_band,lines,is_signal,supported_pos,catch_trial,debrief_formindex,debrief_formitemText,debrief_formtype,debrief_formitemWidth,debrief_formresponse,debrief_formrt,phases.thisRepN,phases.thisTrialN,phases.thisN,phases.thisIndex,phases.ran,phases.order,phase,key_resp_3.keys,trustitemText,trusttype,trustitemWidth,trustindex,trustresponse,trustrt,support_status.thisRepN,support_status.thisTrialN,support_status.thisN,support_status.thisIndex,support_status.ran,support_status.order,key_resp_5.keys,key_resp_5.rt,globalClockTime,userAgent
TRUE,6028191ed22ee868e11c5095,001,2022-04-29_02h09.16.582,classification_task,2021.2.3,Win32,58.98661004,6028191ed22ee868e11c5095,626b377229c10585ec392f8a,626b3a96f3e4daab57072748,,,,,,,,,,,,,,,,,,,,,,,,,,,,,,,,,,,,,,,,,,,,,,,,,,,,,,,,,,,,,,,,,,,,
,6028191ed22ee868e11c5095,001,2022-04-29_02h09.16.582,classification_task,2021.2.3,Win32,58.98661004,6028191ed22ee868e11c5095,626b377229c10585ec392f8a,626b3a96f3e4daab57072748,"[[""0.211"",""0.530"",""0.686"",""0.874""],[""0.279"",""0.405"",""0.912"",""0.966""]]","[[""0.028"",""0.369"",""0.637"",""0.721""],[""0.136"",""0.245"",""0.486"",""0.835""]]","[1,10]","[100,1000]",Video game experience,,,0.7,0,,,,,,,,,,,,,,,,,,,,,,,,,,,,,,,,,,,,,,,,,,,,,,,,,,,,,,,,,,,
,6028191ed22ee868e11c5095,001,2022-04-29_02h09.16.582,classification_task,2021.2.3,Win32,58.98661004,6028191ed22ee868e11c5095,626b377229c10585ec392f8a,626b3a96f3e4daab57072748,,,,,Approximately how many hours did you spend playing video games in the last week?,,,0.7,0,5,,,,,,,,,,,,,,,,,,,,,,,,,,,,,,,,,,,,,,,,,,,,,,,,,,,,,,,,,,
,6028191ed22ee868e11c5095,001,2022-04-29_02h09.16.582,classification_task,2021.2.3,Win32,58.98661004,6028191ed22ee868e11c5095,626b377229c10585ec392f8a,626b3a96f3e4daab57072748,,,,,"Which game did you play the most this year? (Enter ""None"" if you didn't play any)",,,0.7,0,tetris,,,,,,,,,,,,,,,,,,,,,,,,,,,,,,,,,,,,,,,,,,,,,,,,,,,,,,,,,,
,6028191ed22ee868e11c5095,001,2022-04-29_02h09.16.582,classification_task,2021.2.3,Win32,58.98661004,6028191ed22ee868e11c5095,626b377229c10585ec392f8a,626b3a96f3e4daab57072748,,,,,Visual perception,,,0.7,0,,,,,,,,,,,,,,,,,,,,,,,,,,,,,,,,,,,,,,,,,,,,,,,,,,,,,,,,,,,
,6028191ed22ee868e11c5095,001,2022-04-29_02h09.16.582,classification_task,2021.2.3,Win32,58.98661004,6028191ed22ee868e11c5095,626b377229c10585ec392f8a,626b3a96f3e4daab57072748,,,,,Do you have any form of color blindness?,,,0.7,0,No,18.7062,,,,,,,,,,,,,,,,,,,,,,,,,,,,,,,,,,,,,,,,,,,,,,,,,,,,,,,,,
,6028191ed22ee868e11c5095,001,2022-04-29_02h09.16.582,classification_task,2021.2.3,Win32,58.98661004,6028191ed22ee868e11c5095,626b377229c10585ec392f8a,626b3a96f3e4daab57072748,,,,,Do you use software to change the colour temperature of your screen (e.g. f.lux)?,,,0.7,0,Yes,21.1534,,,,,,,,,,,,,,,,,,,,,,,,,,,,,,,,,,,,,,,,,,,,,,,,,,,,,,,,,
,6028191ed22ee868e11c5095,001,2022-04-29_02h09.16.582,classification_task,2021.2.3,Win32,58.98661004,6028191ed22ee868e11c5095,626b377229c10585ec392f8a,626b3a96f3e4daab57072748,,,,,,,,,,,,space,36.4887,space,9.8655,0,0,0,0,1,,,,,,,,,,,,,,,,,,,,,,,,,,,,,,,,,,,,,,,,,,,,,,,,
,6028191ed22ee868e11c5095,001,2022-04-29_02h09.16.582,classification_task,2021.2.3,Win32,58.98661004,6028191ed22ee868e11c5095,626b377229c10585ec392f8a,626b3a96f3e4daab57072748,,,,,,,,,,,,,,space,10.4931,1,0,1,0,1,,,,,,,,,,,,,,,,,,,,,,,,,,,,,,,,,,,,,,,,,,,,,,,,
,6028191ed22ee868e11c5095,001,2022-04-29_02h09.16.582,classification_task,2021.2.3,Win32,58.98661004,6028191ed22ee868e11c5095,626b377229c10585ec392f8a,626b3a96f3e4daab57072748,,,,,,,,,,,,,,space,20.1822,2,0,2,0,1,,,,,,,,,,,,,,,,,,,,,,,,,,,,,,,,,,,,,,,,,,,,,,,,
,6028191ed22ee868e11c5095,001,2022-04-29_02h09.16.582,classification_task,2021.2.3,Win32,58.98661004,6028191ed22ee868e11c5095,626b377229c10585ec392f8a,626b3a96f3e4daab57072748,,,,,,,,,,,,,,space,9.162,3,0,3,0,1,,,,,,,,,,,,,,,,,,,,,,,,,,,,,,,,,,,,,,,,,,,,,,,,
,6028191ed22ee868e11c5095,001,2022-04-29_02h09.16.582,classification_task,2021.2.3,Win32,58.98661004,6028191ed22ee868e11c5095,626b377229c10585ec392f8a,626b3a96f3e4daab57072748,,,,,,,,,,,,,,space,16.896,4,0,4,0,1,,,,,,,,,,,,,,,,,,,,,,,,,,,,,,,,,,,,,,,,,,,,,,,,
,6028191ed22ee868e11c5095,001,2022-04-29_02h09.16.582,classification_task,2021.2.3,Win32,58.98661004,6028191ed22ee868e11c5095,626b377229c10585ec392f8a,626b3a96f3e4daab57072748,,,,,,,,,,,,,,,,,,,,,space,23.9833,a,0,4.739,"[""0.792"",""0.245"",""0.486"",""0.835""]","[0,1,1,1]",0,0,0,0,1,1,1,,,0,FALSE,,,,,,,,,,,,,,,,,,,,,,,,,,,,,,
,6028191ed22ee868e11c5095,001,2022-04-29_02h09.16.582,classification_task,2021.2.3,Win32,58.98661004,6028191ed22ee868e11c5095,626b377229c10585ec392f8a,626b3a96f3e4daab57072748,,,,,,,,,,,,,,,,,,,,,,,,0,,"[""0.136"",""0.245"",""0.568"",""0.835""]","[1,1,0,1]",0,1,1,1,1,1,1,,,0,FALSE,,,,,,,,,,,,,,,,,,,,,,,,,,,,,,
,6028191ed22ee868e11c5095,001,2022-04-29_02h09.16.582,classification_task,2021.2.3,Win32,58.98661004,6028191ed22ee868e11c5095,626b377229c10585ec392f8a,626b3a96f3e4daab57072748,,,,,,,,,,,,,,,,,,,,,,,a,1,4.1785,"[""0.067"",""0.405"",""0.912"",""0.966""]","[0,1,1,1]",0,2,2,2,1,0,1,,,0,FALSE,,,,,,,,,,,,,,,,,,,,,,,,,,,,,,
,6028191ed22ee868e11c5095,001,2022-04-29_02h09.16.582,classification_task,2021.2.3,Win32,58.98661004,6028191ed22ee868e11c5095,626b377229c10585ec392f8a,626b3a96f3e4daab57072748,,,,,,,,,,,,,,,,,,,,,,,a,1,5.6295,"[""0.279"",""0.769"",""0.912"",""0.966""]","[1,0,1,1]",0,3,3,3,1,0,1,,,0,FALSE,,,,,,,,,,,,,,,,,,,,,,,,,,,,,,
,6028191ed22ee868e11c5095,001,2022-04-29_02h09.16.582,classification_task,2021.2.3,Win32,58.98661004,6028191ed22ee868e11c5095,626b377229c10585ec392f8a,626b3a96f3e4daab57072748,,,,,,,,,,,,,,,,,,,,,,,a,1,5.5094,"[""0.211"",""0.530"",""0.686"",""0.792""]","[1,1,1,0]",0,4,4,4,1,0,0,,,0,FALSE,,,,,,,,,,,,,,,,,,,,,,,,,,,,,,
,6028191ed22ee868e11c5095,001,2022-04-29_02h09.16.582,classification_task,2021.2.3,Win32,58.98661004,6028191ed22ee868e11c5095,626b377229c10585ec392f8a,626b3a96f3e4daab57072748,,,,,,,,,,,,,,,,,,,,,,,a,1,5.1201,"[""0.211"",""0.530"",""0.769"",""0.874""]","[1,1,0,1]",0,5,5,5,1,0,0,,,0,FALSE,,,,,,,,,,,,,,,,,,,,,,,,,,,,,,
,6028191ed22ee868e11c5095,001,2022-04-29_02h09.16.582,classification_task,2021.2.3,Win32,58.98661004,6028191ed22ee868e11c5095,626b377229c10585ec392f8a,626b3a96f3e4daab57072748,,,,,,,,,,,,,,,,,,,,,,,l,1,6.1702,"[""0.028"",""0.369"",""0.320"",""0.721""]","[1,1,0,1]",0,6,6,6,1,1,0,,,0,FALSE,,,,,,,,,,,,,,,,,,,,,,,,,,,,,,
,6028191ed22ee868e11c5095,001,2022-04-29_02h09.16.582,classification_task,2021.2.3,Win32,58.98661004,6028191ed22ee868e11c5095,626b377229c10585ec392f8a,626b3a96f3e4daab57072748,,,,,,,,,,,,,,,,,,,,,,,l,1,4.8252,"[""0.760"",""0.369"",""0.637"",""0.721""]","[0,1,1,1]",0,7,7,7,1,1,0,,,0,FALSE,,,,,,,,,,,,,,,,,,,,,,,,,,,,,,
,6028191ed22ee868e11c5095,001,2022-04-29_02h09.16.582,classification_task,2021.2.3,Win32,58.98661004,6028191ed22ee868e11c5095,626b377229c10585ec392f8a,626b3a96f3e4daab57072748,,,,,,,,,,,,,,,,,,,,,,,a,1,6.1162,"[""0.279"",""0.405"",""0.449"",""0.966""]","[1,1,0,1]",0,8,8,8,1,0,1,,,0,FALSE,,,,,,,,,,,,,,,,,,,,,,,,,,,,,,
,6028191ed22ee868e11c5095,001,2022-04-29_02h09.16.582,classification_task,2021.2.3,Win32,58.98661004,6028191ed22ee868e11c5095,626b377229c10585ec392f8a,626b3a96f3e4daab57072748,,,,,,,,,,,,,,,,,,,,,,,,0,,"[""0.136"",""0.245"",""0.486"",""0.068""]","[1,1,1,0]",0,9,9,9,1,1,1,,,0,FALSE,,,,,,,,,,,,,,,,,,,,,,,,,,,,,,
,6028191ed22ee868e11c5095,001,2022-04-29_02h09.16.582,classification_task,2021.2.3,Win32,58.98661004,6028191ed22ee868e11c5095,626b377229c10585ec392f8a,626b3a96f3e4daab57072748,,,,,,,,,,,,,,,,,,,,,,,l,1,5.7432,"[""0.028"",""0.369"",""0.637"",""0.331""]","[1,1,1,0]",0,10,10,10,1,1,0,,,0,FALSE,,,,,,,,,,,,,,,,,,,,,,,,,,,,,,
,6028191ed22ee868e11c5095,001,2022-04-29_02h09.16.582,classification_task,2021.2.3,Win32,58.98661004,6028191ed22ee868e11c5095,626b377229c10585ec392f8a,626b3a96f3e4daab57072748,,,,,,,,,,,,,,,,,,,,,,,l,1,5.6565,"[""0.136"",""0.568"",""0.486"",""0.835""]","[1,0,1,1]",0,11,11,11,1,1,1,,,0,FALSE,,,,,,,,,,,,,,,,,,,,,,,,,,,,,,
,6028191ed22ee868e11c5095,001,2022-04-29_02h09.16.582,classification_task,2021.2.3,Win32,58.98661004,6028191ed22ee868e11c5095,626b377229c10585ec392f8a,626b3a96f3e4daab57072748,,,,,,,,,,,,,,,,,,,,,,,a,1,6.7692,"[""0.769"",""0.530"",""0.686"",""0.874""]","[0,1,1,1]",0,12,12,12,1,0,0,,,0,FALSE,,,,,,,,,,,,,,,,,,,,,,,,,,,,,,
,6028191ed22ee868e11c5095,001,2022-04-29_02h09.16.582,classification_task,2021.2.3,Win32,58.98661004,6028191ed22ee868e11c5095,626b377229c10585ec392f8a,626b3a96f3e4daab57072748,,,,,,,,,,,,,,,,,,,,,,,l,0,4.7831,"[""0.211"",""0.065"",""0.686"",""0.874""]","[1,0,1,1]",0,13,13,13,1,0,0,,,0,FALSE,,,,,,,,,,,,,,,,,,,,,,,,,,,,,,
,6028191ed22ee868e11c5095,001,2022-04-29_02h09.16.582,classification_task,2021.2.3,Win32,58.98661004,6028191ed22ee868e11c5095,626b377229c10585ec392f8a,626b3a96f3e4daab57072748,,,,,,,,,,,,,,,,,,,,,,,,0,,"[""0.279"",""0.405"",""0.912"",""0.603""]","[1,1,1,0]",0,14,14,14,1,0,1,,,0,FALSE,,,,,,,,,,,,,,,,,,,,,,,,,,,,,,
,6028191ed22ee868e11c5095,001,2022-04-29_02h09.16.582,classification_task,2021.2.3,Win32,58.98661004,6028191ed22ee868e11c5095,626b377229c10585ec392f8a,626b3a96f3e4daab57072748,,,,,,,,,,,,,,,,,,,,,,,,0,,"[""0.028"",""0.065"",""0.637"",""0.721""]","[1,0,1,1]",0,15,15,15,1,1,0,,,0,FALSE,,,,,,,,,,,,,,,,,,,,,,,,,,,,,,
,6028191ed22ee868e11c5095,001,2022-04-29_02h09.16.582,classification_task,2021.2.3,Win32,58.98661004,6028191ed22ee868e11c5095,626b377229c10585ec392f8a,626b3a96f3e4daab57072748,,,,,,,,,,,,,,,,,,,,,,,a,1,6.8114,"[""0.760"",""0.530"",""0.686"",""0.874""]","[0,1,1,1]",0,16,16,16,1,0,0,,,0,FALSE,,,,,,,,,,,,,,,,,,,,,,,,,,,,,,
,6028191ed22ee868e11c5095,001,2022-04-29_02h09.16.582,classification_task,2021.2.3,Win32,58.98661004,6028191ed22ee868e11c5095,626b377229c10585ec392f8a,626b3a96f3e4daab57072748,,,,,,,,,,,,,,,,,,,,,,,,0,,"[""0.136"",""0.245"",""0.777"",""0.835""]","[1,1,0,1]",0,17,17,17,1,1,1,,,0,FALSE,,,,,,,,,,,,,,,,,,,,,,,,,,,,,,
,6028191ed22ee868e11c5095,001,2022-04-29_02h09.16.582,classification_task,2021.2.3,Win32,58.98661004,6028191ed22ee868e11c5095,626b377229c10585ec392f8a,626b3a96f3e4daab57072748,,,,,,,,,,,,,,,,,,,,,,,l,0,8.6703,"[""0.279"",""0.449"",""0.912"",""0.966""]","[1,0,1,1]",0,18,18,18,1,0,1,,,0,FALSE,,,,,,,,,,,,,,,,,,,,,,,,,,,,,,
,6028191ed22ee868e11c5095,001,2022-04-29_02h09.16.582,classification_task,2021.2.3,Win32,58.98661004,6028191ed22ee868e11c5095,626b377229c10585ec392f8a,626b3a96f3e4daab57072748,,,,,,,,,,,,,,,,,,,,,,,l,1,3.0185,"[""0.028"",""0.369"",""0.449"",""0.721""]","[1,1,0,1]",0,19,19,19,1,1,0,,,0,FALSE,,,,,,,,,,,,,,,,,,,,,,,,,,,,,,
,6028191ed22ee868e11c5095,001,2022-04-29_02h09.16.582,classification_task,2021.2.3,Win32,58.98661004,6028191ed22ee868e11c5095,626b377229c10585ec392f8a,626b3a96f3e4daab57072748,,,,,,,,,,,,,,,,,,,,,,,l,1,3.1856,"[""0.028"",""0.320"",""0.637"",""0.721""]","[1,0,1,1]",0,20,20,20,1,1,0,,,0,FALSE,,,,,,,,,,,,,,,,,,,,,,,,,,,,,,
,6028191ed22ee868e11c5095,001,2022-04-29_02h09.16.582,classification_task,2021.2.3,Win32,58.98661004,6028191ed22ee868e11c5095,626b377229c10585ec392f8a,626b3a96f3e4daab57072748,,,,,,,,,,,,,,,,,,,,,,,a,1,5.5116,"[""0.279"",""0.405"",""0.912"",""0.314""]","[1,1,1,0]",0,21,21,21,1,0,1,,,0,FALSE,,,,,,,,,,,,,,,,,,,,,,,,,,,,,,
,6028191ed22ee868e11c5095,001,2022-04-29_02h09.16.582,classification_task,2021.2.3,Win32,58.98661004,6028191ed22ee868e11c5095,626b377229c10585ec392f8a,626b3a96f3e4daab57072748,,,,,,,,,,,,,,,,,,,,,,,l,1,7.4875,"[""0.065"",""0.245"",""0.486"",""0.835""]","[0,1,1,1]",0,22,22,22,1,1,1,,,0,FALSE,,,,,,,,,,,,,,,,,,,,,,,,,,,,,,
,6028191ed22ee868e11c5095,001,2022-04-29_02h09.16.582,classification_task,2021.2.3,Win32,58.98661004,6028191ed22ee868e11c5095,626b377229c10585ec392f8a,626b3a96f3e4daab57072748,,,,,,,,,,,,,,,,,,,,,,,l,1,7.2464,"[""0.136"",""0.245"",""0.486"",""0.568""]","[1,1,1,0]",0,23,23,23,1,1,1,,,0,FALSE,,,,,,,,,,,,,,,,,,,,,,,,,,,,,,
,6028191ed22ee868e11c5095,001,2022-04-29_02h09.16.582,classification_task,2021.2.3,Win32,58.98661004,6028191ed22ee868e11c5095,626b377229c10585ec392f8a,626b3a96f3e4daab57072748,,,,,,,,,,,,,,,,,,,,,,,l,1,4.0337,"[""0.028"",""0.369"",""0.637"",""0.760""]","[1,1,1,0]",0,24,24,24,1,1,0,,,0,FALSE,,,,,,,,,,,,,,,,,,,,,,,,,,,,,,
,6028191ed22ee868e11c5095,001,2022-04-29_02h09.16.582,classification_task,2021.2.3,Win32,58.98661004,6028191ed22ee868e11c5095,626b377229c10585ec392f8a,626b3a96f3e4daab57072748,,,,,,,,,,,,,,,,,,,,,,,l,1,4.3936,"[""0.568"",""0.369"",""0.637"",""0.721""]","[0,1,1,1]",0,25,25,25,1,1,0,,,0,FALSE,,,,,,,,,,,,,,,,,,,,,,,,,,,,,,
,6028191ed22ee868e11c5095,001,2022-04-29_02h09.16.582,classification_task,2021.2.3,Win32,58.98661004,6028191ed22ee868e11c5095,626b377229c10585ec392f8a,626b3a96f3e4daab57072748,,,,,,,,,,,,,,,,,,,,,,,l,1,8.7943,"[""0.136"",""0.068"",""0.486"",""0.835""]","[1,0,1,1]",0,26,26,26,1,1,1,,,0,FALSE,,,,,,,,,,,,,,,,,,,,,,,,,,,,,,
,6028191ed22ee868e11c5095,001,2022-04-29_02h09.16.582,classification_task,2021.2.3,Win32,58.98661004,6028191ed22ee868e11c5095,626b377229c10585ec392f8a,626b3a96f3e4daab57072748,,,,,,,,,,,,,,,,,,,,,,,a,1,4.4046,"[""0.211"",""0.530"",""0.686"",""0.760""]","[1,1,1,0]",0,27,27,27,1,0,0,,,0,FALSE,,,,,,,,,,,,,,,,,,,,,,,,,,,,,,
,6028191ed22ee868e11c5095,001,2022-04-29_02h09.16.582,classification_task,2021.2.3,Win32,58.98661004,6028191ed22ee868e11c5095,626b377229c10585ec392f8a,626b3a96f3e4daab57072748,,,,,,,,,,,,,,,,,,,,,,,a,1,6.651,"[""0.211"",""0.530"",""0.769"",""0.874""]","[1,1,0,1]",0,28,28,28,1,0,0,,,0,FALSE,,,,,,,,,,,,,,,,,,,,,,,,,,,,,,
,6028191ed22ee868e11c5095,001,2022-04-29_02h09.16.582,classification_task,2021.2.3,Win32,58.98661004,6028191ed22ee868e11c5095,626b377229c10585ec392f8a,626b3a96f3e4daab57072748,,,,,,,,,,,,,,,,,,,,,,,a,1,7.5725,"[""0.279"",""0.405"",""0.065"",""0.966""]","[1,1,0,1]",0,29,29,29,1,0,1,,,0,FALSE,,,,,,,,,,,,,,,,,,,,,,,,,,,,,,
,6028191ed22ee868e11c5095,001,2022-04-29_02h09.16.582,classification_task,2021.2.3,Win32,58.98661004,6028191ed22ee868e11c5095,626b377229c10585ec392f8a,626b3a96f3e4daab57072748,,,,,,,,,,,,,,,,,,,,,,,a,1,5.4435,"[""0.449"",""0.405"",""0.912"",""0.966""]","[0,1,1,1]",0,30,30,30,1,0,1,,,0,FALSE,,,,,,,,,,,,,,,,,,,,,,,,,,,,,,
,6028191ed22ee868e11c5095,001,2022-04-29_02h09.16.582,classification_task,2021.2.3,Win32,58.98661004,6028191ed22ee868e11c5095,626b377229c10585ec392f8a,626b3a96f3e4daab57072748,,,,,,,,,,,,,,,,,,,,,,,,0,,"[""0.211"",""0.068"",""0.686"",""0.874""]","[1,0,1,1]",0,31,31,31,1,0,0,,,0,FALSE,,,,,,,,,,,,,,,,,,,,,,,,,,,,,,
,6028191ed22ee868e11c5095,001,2022-04-29_02h09.16.582,classification_task,2021.2.3,Win32,58.98661004,6028191ed22ee868e11c5095,626b377229c10585ec392f8a,626b3a96f3e4daab57072748,,,,,,,,,,,,,,,,,,,,,,,a,0,6.7865,"[""0.136"",""0.245"",""0.792"",""0.835""]","[1,1,0,1]",0,32,32,32,1,1,1,,,0,FALSE,,,,,,,,,,,,,,,,,,,,,,,,,,,,,,
,6028191ed22ee868e11c5095,001,2022-04-29_02h09.16.582,classification_task,2021.2.3,Win32,58.98661004,6028191ed22ee868e11c5095,626b377229c10585ec392f8a,626b3a96f3e4daab57072748,,,,,,,,,,,,,,,,,,,,,,,l,0,4.6822,"[""0.279"",""0.405"",""0.912"",""0.449""]","[1,1,1,0]",0,33,33,33,1,0,1,,,0,FALSE,,,,,,,,,,,,,,,,,,,,,,,,,,,,,,
,6028191ed22ee868e11c5095,001,2022-04-29_02h09.16.582,classification_task,2021.2.3,Win32,58.98661004,6028191ed22ee868e11c5095,626b377229c10585ec392f8a,626b3a96f3e4daab57072748,,,,,,,,,,,,,,,,,,,,,,,l,0,1.5469,"[""0.569"",""0.405"",""0.912"",""0.966""]","[0,1,1,1]",0,34,34,34,1,0,1,,,0,FALSE,,,,,,,,,,,,,,,,,,,,,,,,,,,,,,
,6028191ed22ee868e11c5095,001,2022-04-29_02h09.16.582,classification_task,2021.2.3,Win32,58.98661004,6028191ed22ee868e11c5095,626b377229c10585ec392f8a,626b3a96f3e4daab57072748,,,,,,,,,,,,,,,,,,,,,,,a,0,0.6525,"[""0.568"",""0.245"",""0.486"",""0.835""]","[0,1,1,1]",0,35,35,35,1,1,1,,,0,FALSE,,,,,,,,,,,,,,,,,,,,,,,,,,,,,,
,6028191ed22ee868e11c5095,001,2022-04-29_02h09.16.582,classification_task,2021.2.3,Win32,58.98661004,6028191ed22ee868e11c5095,626b377229c10585ec392f8a,626b3a96f3e4daab57072748,,,,,,,,,,,,,,,,,,,,,,,a,1,1.9251,"[""0.211"",""0.315"",""0.686"",""0.874""]","[1,0,1,1]",0,36,36,36,1,0,0,,,0,FALSE,,,,,,,,,,,,,,,,,,,,,,,,,,,,,,
,6028191ed22ee868e11c5095,001,2022-04-29_02h09.16.582,classification_task,2021.2.3,Win32,58.98661004,6028191ed22ee868e11c5095,626b377229c10585ec392f8a,626b3a96f3e4daab57072748,,,,,,,,,,,,,,,,,,,,,,,a,0,0.9005,"[""0.028"",""0.067"",""0.637"",""0.721""]","[1,0,1,1]",0,37,37,37,1,1,0,,,0,FALSE,,,,,,,,,,,,,,,,,,,,,,,,,,,,,,
,6028191ed22ee868e11c5095,001,2022-04-29_02h09.16.582,classification_task,2021.2.3,Win32,58.98661004,6028191ed22ee868e11c5095,626b377229c10585ec392f8a,626b3a96f3e4daab57072748,,,,,,,,,,,,,,,,,,,,,,,l,1,0.6475,"[""0.028"",""0.369"",""0.314"",""0.721""]","[1,1,0,1]",0,38,38,38,1,1,0,,,0,FALSE,,,,,,,,,,,,,,,,,,,,,,,,,,,,,,
,6028191ed22ee868e11c5095,001,2022-04-29_02h09.16.582,classification_task,2021.2.3,Win32,58.98661004,6028191ed22ee868e11c5095,626b377229c10585ec392f8a,626b3a96f3e4daab57072748,,,,,,,,,,,,,,,,,,,,,,,a,1,3.6845,"[""0.279"",""0.405"",""0.769"",""0.966""]","[1,1,0,1]",0,39,39,39,1,0,1,,,0,FALSE,,,,,,,,,,,,,,,,,,,,,,,,,,,,,,
,6028191ed22ee868e11c5095,001,2022-04-29_02h09.16.582,classification_task,2021.2.3,Win32,58.98661004,6028191ed22ee868e11c5095,626b377229c10585ec392f8a,626b3a96f3e4daab57072748,,,,,,,,,,,,,,,,,,,,,,,l,1,2.0969,"[""0.136"",""0.245"",""0.486"",""0.760""]","[1,1,1,0]",0,40,40,40,1,1,1,,,0,FALSE,,,,,,,,,,,,,,,,,,,,,,,,,,,,,,
,6028191ed22ee868e11c5095,001,2022-04-29_02h09.16.582,classification_task,2021.2.3,Win32,58.98661004,6028191ed22ee868e11c5095,626b377229c10585ec392f8a,626b3a96f3e4daab57072748,,,,,,,,,,,,,,,,,,,,,,,l,0,1.8667,"[""0.211"",""0.530"",""0.313"",""0.874""]","[1,1,0,1]",0,41,41,41,1,0,0,,,0,FALSE,,,,,,,,,,,,,,,,,,,,,,,,,,,,,,
,6028191ed22ee868e11c5095,001,2022-04-29_02h09.16.582,classification_task,2021.2.3,Win32,58.98661004,6028191ed22ee868e11c5095,626b377229c10585ec392f8a,626b3a96f3e4daab57072748,,,,,,,,,,,,,,,,,,,,,,,a,1,1.6125,"[""0.279"",""0.792"",""0.912"",""0.966""]","[1,0,1,1]",0,42,42,42,1,0,1,,,0,FALSE,,,,,,,,,,,,,,,,,,,,,,,,,,,,,,
,6028191ed22ee868e11c5095,001,2022-04-29_02h09.16.582,classification_task,2021.2.3,Win32,58.98661004,6028191ed22ee868e11c5095,626b377229c10585ec392f8a,626b3a96f3e4daab57072748,,,,,,,,,,,,,,,,,,,,,,,a,0,1.7856,"[""0.028"",""0.369"",""0.637"",""0.769""]","[1,1,1,0]",0,43,43,43,1,1,0,,,0,FALSE,,,,,,,,,,,,,,,,,,,,,,,,,,,,,,
,6028191ed22ee868e11c5095,001,2022-04-29_02h09.16.582,classification_task,2021.2.3,Win32,58.98661004,6028191ed22ee868e11c5095,626b377229c10585ec392f8a,626b3a96f3e4daab57072748,,,,,,,,,,,,,,,,,,,,,,,l,0,1.1891,"[""0.769"",""0.530"",""0.686"",""0.874""]","[0,1,1,1]",0,44,44,44,1,0,0,,,0,FALSE,,,,,,,,,,,,,,,,,,,,,,,,,,,,,,
,6028191ed22ee868e11c5095,001,2022-04-29_02h09.16.582,classification_task,2021.2.3,Win32,58.98661004,6028191ed22ee868e11c5095,626b377229c10585ec392f8a,626b3a96f3e4daab57072748,,,,,,,,,,,,,,,,,,,,,,,l,0,1.0673,"[""0.211"",""0.530"",""0.686"",""0.320""]","[1,1,1,0]",0,45,45,45,1,0,0,,,0,FALSE,,,,,,,,,,,,,,,,,,,,,,,,,,,,,,
,6028191ed22ee868e11c5095,001,2022-04-29_02h09.16.582,classification_task,2021.2.3,Win32,58.98661004,6028191ed22ee868e11c5095,626b377229c10585ec392f8a,626b3a96f3e4daab57072748,,,,,,,,,,,,,,,,,,,,,,,a,0,1.1996,"[""0.136"",""0.760"",""0.486"",""0.835""]","[1,0,1,1]",0,46,46,46,1,1,1,,,0,FALSE,,,,,,,,,,,,,,,,,,,,,,,,,,,,,,
,6028191ed22ee868e11c5095,001,2022-04-29_02h09.16.582,classification_task,2021.2.3,Win32,58.98661004,6028191ed22ee868e11c5095,626b377229c10585ec392f8a,626b3a96f3e4daab57072748,,,,,,,,,,,,,,,,,,,,,,,l,1,1.0709,"[""0.760"",""0.369"",""0.637"",""0.721""]","[0,1,1,1]",0,47,47,47,1,1,0,,,0,FALSE,,,,,,,,,,,,,,,,,,,,,,,,,,,,,,
,6028191ed22ee868e11c5095,001,2022-04-29_02h09.16.582,classification_task,2021.2.3,Win32,58.98661004,6028191ed22ee868e11c5095,626b377229c10585ec392f8a,626b3a96f3e4daab57072748,,,,,,,,,,,,,,,,,,,,,,,l,0,1.4968,"[""0.313"",""0.405"",""0.912"",""0.966""]","[0,1,1,1]",0,48,48,48,1,0,1,,,0,FALSE,,,,,,,,,,,,,,,,,,,,,,,,,,,,,,
,6028191ed22ee868e11c5095,001,2022-04-29_02h09.16.582,classification_task,2021.2.3,Win32,58.98661004,6028191ed22ee868e11c5095,626b377229c10585ec392f8a,626b3a96f3e4daab57072748,,,,,,,,,,,,,,,,,,,,,,,l,0,1.0085,"[""0.211"",""0.315"",""0.686"",""0.874""]","[1,0,1,1]",0,49,49,49,1,0,0,,,0,FALSE,,,,,,,,,,,,,,,,,,,,,,,,,,,,,,
,6028191ed22ee868e11c5095,001,2022-04-29_02h09.16.582,classification_task,2021.2.3,Win32,58.98661004,6028191ed22ee868e11c5095,626b377229c10585ec392f8a,626b3a96f3e4daab57072748,,,,,,,,,,,,,,,,,,,,,,,a,0,1.1411,"[""0.136"",""0.769"",""0.486"",""0.835""]","[1,0,1,1]",0,50,50,50,1,1,1,,,0,FALSE,,,,,,,,,,,,,,,,,,,,,,,,,,,,,,
,6028191ed22ee868e11c5095,001,2022-04-29_02h09.16.582,classification_task,2021.2.3,Win32,58.98661004,6028191ed22ee868e11c5095,626b377229c10585ec392f8a,626b3a96f3e4daab57072748,,,,,,,,,,,,,,,,,,,,,,,a,1,0.7741,"[""0.211"",""0.530"",""0.068"",""0.874""]","[1,1,0,1]",0,51,51,51,1,0,0,,,0,FALSE,,,,,,,,,,,,,,,,,,,,,,,,,,,,,,
,6028191ed22ee868e11c5095,001,2022-04-29_02h09.16.582,classification_task,2021.2.3,Win32,58.98661004,6028191ed22ee868e11c5095,626b377229c10585ec392f8a,626b3a96f3e4daab57072748,,,,,,,,,,,,,,,,,,,,,,,l,0,1.1234,"[""0.313"",""0.530"",""0.686"",""0.874""]","[0,1,1,1]",0,52,52,52,1,0,0,,,0,FALSE,,,,,,,,,,,,,,,,,,,,,,,,,,,,,,
,6028191ed22ee868e11c5095,001,2022-04-29_02h09.16.582,classification_task,2021.2.3,Win32,58.98661004,6028191ed22ee868e11c5095,626b377229c10585ec392f8a,626b3a96f3e4daab57072748,,,,,,,,,,,,,,,,,,,,,,,a,0,0.835,"[""0.314"",""0.369"",""0.637"",""0.721""]","[0,1,1,1]",0,53,53,53,1,1,0,,,0,FALSE,,,,,,,,,,,,,,,,,,,,,,,,,,,,,,
,6028191ed22ee868e11c5095,001,2022-04-29_02h09.16.582,classification_task,2021.2.3,Win32,58.98661004,6028191ed22ee868e11c5095,626b377229c10585ec392f8a,626b3a96f3e4daab57072748,,,,,,,,,,,,,,,,,,,,,,,l,0,0.7632,"[""0.211"",""0.530"",""0.686"",""0.449""]","[1,1,1,0]",0,54,54,54,1,0,0,,,0,FALSE,,,,,,,,,,,,,,,,,,,,,,,,,,,,,,
,6028191ed22ee868e11c5095,001,2022-04-29_02h09.16.582,classification_task,2021.2.3,Win32,58.98661004,6028191ed22ee868e11c5095,626b377229c10585ec392f8a,626b3a96f3e4daab57072748,,,,,,,,,,,,,,,,,,,,,,,l,0,0.7843,"[""0.279"",""0.405"",""0.065"",""0.966""]","[1,1,0,1]",0,55,55,55,1,0,1,,,0,FALSE,,,,,,,,,,,,,,,,,,,,,,,,,,,,,,
,6028191ed22ee868e11c5095,001,2022-04-29_02h09.16.582,classification_task,2021.2.3,Win32,58.98661004,6028191ed22ee868e11c5095,626b377229c10585ec392f8a,626b3a96f3e4daab57072748,,,,,,,,,,,,,,,,,,,,,,,a,0,0.6631,"[""0.136"",""0.245"",""0.320"",""0.835""]","[1,1,0,1]",0,56,56,56,1,1,1,,,0,FALSE,,,,,,,,,,,,,,,,,,,,,,,,,,,,,,
,6028191ed22ee868e11c5095,001,2022-04-29_02h09.16.582,classification_task,2021.2.3,Win32,58.98661004,6028191ed22ee868e11c5095,626b377229c10585ec392f8a,626b3a96f3e4daab57072748,,,,,,,,,,,,,,,,,,,,,,,l,1,0.9684,"[""0.136"",""0.245"",""0.486"",""0.603""]","[1,1,1,0]",0,57,57,57,1,1,1,,,0,FALSE,,,,,,,,,,,,,,,,,,,,,,,,,,,,,,
,6028191ed22ee868e11c5095,001,2022-04-29_02h09.16.582,classification_task,2021.2.3,Win32,58.98661004,6028191ed22ee868e11c5095,626b377229c10585ec392f8a,626b3a96f3e4daab57072748,,,,,,,,,,,,,,,,,,,,,,,a,0,1.2599,"[""0.028"",""0.369"",""0.637"",""0.777""]","[1,1,1,0]",0,58,58,58,1,1,0,,,0,FALSE,,,,,,,,,,,,,,,,,,,,,,,,,,,,,,
,6028191ed22ee868e11c5095,001,2022-04-29_02h09.16.582,classification_task,2021.2.3,Win32,58.98661004,6028191ed22ee868e11c5095,626b377229c10585ec392f8a,626b3a96f3e4daab57072748,,,,,,,,,,,,,,,,,,,,,,,a,0,0.7729,"[""0.028"",""0.369"",""0.568"",""0.721""]","[1,1,0,1]",0,59,59,59,1,1,0,,,0,FALSE,,,,,,,,,,,,,,,,,,,,,,,,,,,,,,
,6028191ed22ee868e11c5095,001,2022-04-29_02h09.16.582,classification_task,2021.2.3,Win32,58.98661004,6028191ed22ee868e11c5095,626b377229c10585ec392f8a,626b3a96f3e4daab57072748,,,,,,,,,,,,,,,,,,,,,,,a,1,1.137,"[""0.279"",""0.792"",""0.912"",""0.966""]","[1,0,1,1]",0,60,60,60,1,0,1,,,0,FALSE,,,,,,,,,,,,,,,,,,,,,,,,,,,,,,
,6028191ed22ee868e11c5095,001,2022-04-29_02h09.16.582,classification_task,2021.2.3,Win32,58.98661004,6028191ed22ee868e11c5095,626b377229c10585ec392f8a,626b3a96f3e4daab57072748,,,,,,,,,,,,,,,,,,,,,,,a,0,1.2131,"[""0.028"",""0.792"",""0.637"",""0.721""]","[1,0,1,1]",0,61,61,61,1,1,0,,,0,FALSE,,,,,,,,,,,,,,,,,,,,,,,,,,,,,,
,6028191ed22ee868e11c5095,001,2022-04-29_02h09.16.582,classification_task,2021.2.3,Win32,58.98661004,6028191ed22ee868e11c5095,626b377229c10585ec392f8a,626b3a96f3e4daab57072748,,,,,,,,,,,,,,,,,,,,,,,a,1,1.802,"[""0.279"",""0.405"",""0.912"",""0.331""]","[1,1,1,0]",0,62,62,62,1,0,1,,,0,FALSE,,,,,,,,,,,,,,,,,,,,,,,,,,,,,,
,6028191ed22ee868e11c5095,001,2022-04-29_02h09.16.582,classification_task,2021.2.3,Win32,58.98661004,6028191ed22ee868e11c5095,626b377229c10585ec392f8a,626b3a96f3e4daab57072748,,,,,,,,,,,,,,,,,,,,,,,a,0,1.2194,"[""0.314"",""0.245"",""0.486"",""0.835""]","[0,1,1,1]",0,63,63,63,1,1,1,,,0,FALSE,,,,,,,,,,,,,,,,,,,,,,,,,,,,,,
,6028191ed22ee868e11c5095,001,2022-04-29_02h09.16.582,classification_task,2021.2.3,Win32,58.98661004,6028191ed22ee868e11c5095,626b377229c10585ec392f8a,626b3a96f3e4daab57072748,,,,,,,,,,,,,,,,,,,,,,,,,,,,,,,,,,,,,,,0, ,,0,10,526.3184,0,0,0,0,1,2,1,,,,,,,,,,,,,,,,,
,6028191ed22ee868e11c5095,001,2022-04-29_02h09.16.582,classification_task,2021.2.3,Win32,58.98661004,6028191ed22ee868e11c5095,626b377229c10585ec392f8a,626b3a96f3e4daab57072748,,,,,,,,,,,,,,,,,,,,,,,,,,,,,,,,,,,,,,,1,  ,,0,6.274526014,513.778,0,0,0,0,1,2,1,,,,,,,,,,,,,,,,,
,6028191ed22ee868e11c5095,001,2022-04-29_02h09.16.582,classification_task,2021.2.3,Win32,58.98661004,6028191ed22ee868e11c5095,626b377229c10585ec392f8a,626b3a96f3e4daab57072748,,,,,,,,,,,,,,,,,,,,,,,,,,,,,,,,,,,,,,,2,  ,,0,9.891424162,532.1021,0,0,0,0,1,2,1,,,,,,,,,,,,,,,,,
,6028191ed22ee868e11c5095,001,2022-04-29_02h09.16.582,classification_task,2021.2.3,Win32,58.98661004,6028191ed22ee868e11c5095,626b377229c10585ec392f8a,626b3a96f3e4daab57072748,,,,,,,,,,,,,,,,,,,,,,,,,,,,,,,,,,,,,,,,,,,,,0,0,0,0,1,,1,,,,,,,,,,,,,,,,,
,6028191ed22ee868e11c5095,001,2022-04-29_02h09.16.582,classification_task,2021.2.3,Win32,58.98661004,6028191ed22ee868e11c5095,626b377229c10585ec392f8a,626b3a96f3e4daab57072748,,,,,,,,,,,,,,,,,,,,,space,7.8764,a,0,3.3153,"[""0.028"",""0.314"",""0.637"",""0.721""]","[1,0,1,1]",0,0,0,0,1,1,0,,,0,FALSE,,,,,,,,,,,,,,,,,,,,,,,,,,,,,,
,6028191ed22ee868e11c5095,001,2022-04-29_02h09.16.582,classification_task,2021.2.3,Win32,58.98661004,6028191ed22ee868e11c5095,626b377229c10585ec392f8a,626b3a96f3e4daab57072748,,,,,,,,,,,,,,,,,,,,,,,a,0,0.9036,"[""0.136"",""0.245"",""0.792"",""0.835""]","[1,1,0,1]",0,1,1,1,1,1,1,,,0,FALSE,,,,,,,,,,,,,,,,,,,,,,,,,,,,,,
,6028191ed22ee868e11c5095,001,2022-04-29_02h09.16.582,classification_task,2021.2.3,Win32,58.98661004,6028191ed22ee868e11c5095,626b377229c10585ec392f8a,626b3a96f3e4daab57072748,,,,,,,,,,,,,,,,,,,,,,,l,1,1.1977,"[""0.792"",""0.369"",""0.637"",""0.721""]","[0,1,1,1]",0,2,2,2,1,1,0,,,0,FALSE,,,,,,,,,,,,,,,,,,,,,,,,,,,,,,
,6028191ed22ee868e11c5095,001,2022-04-29_02h09.16.582,classification_task,2021.2.3,Win32,58.98661004,6028191ed22ee868e11c5095,626b377229c10585ec392f8a,626b3a96f3e4daab57072748,,,,,,,,,,,,,,,,,,,,,,,l,0,1.1305,"[""0.211"",""0.530"",""0.314"",""0.874""]","[1,1,0,1]",0,3,3,3,1,0,0,,,0,FALSE,,,,,,,,,,,,,,,,,,,,,,,,,,,,,,
,6028191ed22ee868e11c5095,001,2022-04-29_02h09.16.582,classification_task,2021.2.3,Win32,58.98661004,6028191ed22ee868e11c5095,626b377229c10585ec392f8a,626b3a96f3e4daab57072748,,,,,,,,,,,,,,,,,,,,,,,a,1,3.6299,"[""0.211"",""0.530"",""0.686"",""0.792""]","[1,1,1,0]",0,4,4,4,1,0,0,,,0,FALSE,,,,,,,,,,,,,,,,,,,,,,,,,,,,,,
,6028191ed22ee868e11c5095,001,2022-04-29_02h09.16.582,classification_task,2021.2.3,Win32,58.98661004,6028191ed22ee868e11c5095,626b377229c10585ec392f8a,626b3a96f3e4daab57072748,,,,,,,,,,,,,,,,,,,,,,,a,0,0.7171,"[""0.028"",""0.369"",""0.637"",""0.568""]","[1,1,1,0]",0,5,5,5,1,1,0,,,0,FALSE,,,,,,,,,,,,,,,,,,,,,,,,,,,,,,
,6028191ed22ee868e11c5095,001,2022-04-29_02h09.16.582,classification_task,2021.2.3,Win32,58.98661004,6028191ed22ee868e11c5095,626b377229c10585ec392f8a,626b3a96f3e4daab57072748,,,,,,,,,,,,,,,,,,,,,,,a,1,1.1937,"[""0.449"",""0.405"",""0.912"",""0.966""]","[0,1,1,1]",0,6,6,6,1,0,1,,,0,FALSE,,,,,,,,,,,,,,,,,,,,,,,,,,,,,,
,6028191ed22ee868e11c5095,001,2022-04-29_02h09.16.582,classification_task,2021.2.3,Win32,58.98661004,6028191ed22ee868e11c5095,626b377229c10585ec392f8a,626b3a96f3e4daab57072748,,,,,,,,,,,,,,,,,,,,,,,a,1,1.0779,"[""0.314"",""0.530"",""0.686"",""0.874""]","[0,1,1,1]",0,7,7,7,1,0,0,,,0,FALSE,,,,,,,,,,,,,,,,,,,,,,,,,,,,,,
,6028191ed22ee868e11c5095,001,2022-04-29_02h09.16.582,classification_task,2021.2.3,Win32,58.98661004,6028191ed22ee868e11c5095,626b377229c10585ec392f8a,626b3a96f3e4daab57072748,,,,,,,,,,,,,,,,,,,,,,,l,1,1.1231,"[""0.028"",""0.369"",""0.320"",""0.721""]","[1,1,0,1]",0,8,8,8,1,1,0,,,0,FALSE,,,,,,,,,,,,,,,,,,,,,,,,,,,,,,
,6028191ed22ee868e11c5095,001,2022-04-29_02h09.16.582,classification_task,2021.2.3,Win32,58.98661004,6028191ed22ee868e11c5095,626b377229c10585ec392f8a,626b3a96f3e4daab57072748,,,,,,,,,,,,,,,,,,,,,,,a,1,1.5558,"[""0.279"",""0.405"",""0.912"",""0.313""]","[1,1,1,0]",0,9,9,9,1,0,1,,,0,FALSE,,,,,,,,,,,,,,,,,,,,,,,,,,,,,,
,6028191ed22ee868e11c5095,001,2022-04-29_02h09.16.582,classification_task,2021.2.3,Win32,58.98661004,6028191ed22ee868e11c5095,626b377229c10585ec392f8a,626b3a96f3e4daab57072748,,,,,,,,,,,,,,,,,,,,,,,l,0,1.4836,"[""0.211"",""0.313"",""0.686"",""0.874""]","[1,0,1,1]",0,10,10,10,1,0,0,,,0,FALSE,,,,,,,,,,,,,,,,,,,,,,,,,,,,,,
,6028191ed22ee868e11c5095,001,2022-04-29_02h09.16.582,classification_task,2021.2.3,Win32,58.98661004,6028191ed22ee868e11c5095,626b377229c10585ec392f8a,626b3a96f3e4daab57072748,,,,,,,,,,,,,,,,,,,,,,,l,1,1.1474,"[""0.136"",""0.245"",""0.486"",""0.449""]","[1,1,1,0]",0,11,11,11,1,1,1,,,0,FALSE,,,,,,,,,,,,,,,,,,,,,,,,,,,,,,
,6028191ed22ee868e11c5095,001,2022-04-29_02h09.16.582,classification_task,2021.2.3,Win32,58.98661004,6028191ed22ee868e11c5095,626b377229c10585ec392f8a,626b3a96f3e4daab57072748,,,,,,,,,,,,,,,,,,,,,,,l,1,0.9538,"[""0.136"",""0.449"",""0.486"",""0.835""]","[1,0,1,1]",0,12,12,12,1,1,1,,,0,FALSE,,,,,,,,,,,,,,,,,,,,,,,,,,,,,,
,6028191ed22ee868e11c5095,001,2022-04-29_02h09.16.582,classification_task,2021.2.3,Win32,58.98661004,6028191ed22ee868e11c5095,626b377229c10585ec392f8a,626b3a96f3e4daab57072748,,,,,,,,,,,,,,,,,,,,,,,l,0,0.302,"[""0.279"",""0.569"",""0.912"",""0.966""]","[1,0,1,1]",0,13,13,13,1,0,1,,,0,FALSE,,,,,,,,,,,,,,,,,,,,,,,,,,,,,,
,6028191ed22ee868e11c5095,001,2022-04-29_02h09.16.582,classification_task,2021.2.3,Win32,58.98661004,6028191ed22ee868e11c5095,626b377229c10585ec392f8a,626b3a96f3e4daab57072748,,,,,,,,,,,,,,,,,,,,,,,l,1,0.9076,"[""0.569"",""0.245"",""0.486"",""0.835""]","[0,1,1,1]",0,14,14,14,1,1,1,,,0,FALSE,,,,,,,,,,,,,,,,,,,,,,,,,,,,,,
,6028191ed22ee868e11c5095,001,2022-04-29_02h09.16.582,classification_task,2021.2.3,Win32,58.98661004,6028191ed22ee868e11c5095,626b377229c10585ec392f8a,626b3a96f3e4daab57072748,,,,,,,,,,,,,,,,,,,,,,,a,1,1.1368,"[""0.279"",""0.405"",""0.792"",""0.966""]","[1,1,0,1]",0,15,15,15,1,0,1,,,0,FALSE,,,,,,,,,,,,,,,,,,,,,,,,,,,,,,
,6028191ed22ee868e11c5095,001,2022-04-29_02h09.16.582,classification_task,2021.2.3,Win32,58.98661004,6028191ed22ee868e11c5095,626b377229c10585ec392f8a,626b3a96f3e4daab57072748,,,,,,,,,,,,,,,,,,,,,,,a,1,1.0702,"[""0.777"",""0.405"",""0.912"",""0.966""]","[0,1,1,1]",0,16,16,16,1,0,1,,,0,FALSE,,,,,,,,,,,,,,,,,,,,,,,,,,,,,,
,6028191ed22ee868e11c5095,001,2022-04-29_02h09.16.582,classification_task,2021.2.3,Win32,58.98661004,6028191ed22ee868e11c5095,626b377229c10585ec392f8a,626b3a96f3e4daab57072748,,,,,,,,,,,,,,,,,,,,,,,a,1,1.3181,"[""0.211"",""0.068"",""0.686"",""0.874""]","[1,0,1,1]",0,17,17,17,1,0,0,,,0,FALSE,,,,,,,,,,,,,,,,,,,,,,,,,,,,,,
,6028191ed22ee868e11c5095,001,2022-04-29_02h09.16.582,classification_task,2021.2.3,Win32,58.98661004,6028191ed22ee868e11c5095,626b377229c10585ec392f8a,626b3a96f3e4daab57072748,,,,,,,,,,,,,,,,,,,,,,,l,1,1.5492,"[""0.028"",""0.369"",""0.637"",""0.068""]","[1,1,1,0]",0,18,18,18,1,1,0,,,0,FALSE,,,,,,,,,,,,,,,,,,,,,,,,,,,,,,
,6028191ed22ee868e11c5095,001,2022-04-29_02h09.16.582,classification_task,2021.2.3,Win32,58.98661004,6028191ed22ee868e11c5095,626b377229c10585ec392f8a,626b3a96f3e4daab57072748,,,,,,,,,,,,,,,,,,,,,,,a,0,1.4266,"[""0.136"",""0.245"",""0.777"",""0.835""]","[1,1,0,1]",0,19,19,19,1,1,1,,,0,FALSE,,,,,,,,,,,,,,,,,,,,,,,,,,,,,,
,6028191ed22ee868e11c5095,001,2022-04-29_02h09.16.582,classification_task,2021.2.3,Win32,58.98661004,6028191ed22ee868e11c5095,626b377229c10585ec392f8a,626b3a96f3e4daab57072748,,,,,,,,,,,,,,,,,,,,,,,l,0,1.0804,"[""0.279"",""0.405"",""0.313"",""0.966""]","[1,1,0,1]",0,20,20,20,1,0,1,,,0,FALSE,,,,,,,,,,,,,,,,,,,,,,,,,,,,,,
,6028191ed22ee868e11c5095,001,2022-04-29_02h09.16.582,classification_task,2021.2.3,Win32,58.98661004,6028191ed22ee868e11c5095,626b377229c10585ec392f8a,626b3a96f3e4daab57072748,,,,,,,,,,,,,,,,,,,,,,,a,0,1.0873,"[""0.313"",""0.245"",""0.486"",""0.835""]","[0,1,1,1]",0,21,21,21,1,1,1,,,0,FALSE,,,,,,,,,,,,,,,,,,,,,,,,,,,,,,
,6028191ed22ee868e11c5095,001,2022-04-29_02h09.16.582,classification_task,2021.2.3,Win32,58.98661004,6028191ed22ee868e11c5095,626b377229c10585ec392f8a,626b3a96f3e4daab57072748,,,,,,,,,,,,,,,,,,,,,,,a,1,1.4916,"[""0.211"",""0.530"",""0.686"",""0.568""]","[1,1,1,0]",0,22,22,22,1,0,0,,,0,FALSE,,,,,,,,,,,,,,,,,,,,,,,,,,,,,,
,6028191ed22ee868e11c5095,001,2022-04-29_02h09.16.582,classification_task,2021.2.3,Win32,58.98661004,6028191ed22ee868e11c5095,626b377229c10585ec392f8a,626b3a96f3e4daab57072748,,,,,,,,,,,,,,,,,,,,,,,l,1,1.1365,"[""0.136"",""0.065"",""0.486"",""0.835""]","[1,0,1,1]",0,23,23,23,1,1,1,,,0,FALSE,,,,,,,,,,,,,,,,,,,,,,,,,,,,,,
,6028191ed22ee868e11c5095,001,2022-04-29_02h09.16.582,classification_task,2021.2.3,Win32,58.98661004,6028191ed22ee868e11c5095,626b377229c10585ec392f8a,626b3a96f3e4daab57072748,,,,,,,,,,,,,,,,,,,,,,,l,1,1.0642,"[""0.028"",""0.777"",""0.637"",""0.721""]","[1,0,1,1]",0,24,24,24,1,1,0,,,0,FALSE,,,,,,,,,,,,,,,,,,,,,,,,,,,,,,
,6028191ed22ee868e11c5095,001,2022-04-29_02h09.16.582,classification_task,2021.2.3,Win32,58.98661004,6028191ed22ee868e11c5095,626b377229c10585ec392f8a,626b3a96f3e4daab57072748,,,,,,,,,,,,,,,,,,,,,,,a,1,1.0336,"[""0.279"",""0.405"",""0.912"",""0.769""]","[1,1,1,0]",0,25,25,25,1,0,1,,,0,FALSE,,,,,,,,,,,,,,,,,,,,,,,,,,,,,,
,6028191ed22ee868e11c5095,001,2022-04-29_02h09.16.582,classification_task,2021.2.3,Win32,58.98661004,6028191ed22ee868e11c5095,626b377229c10585ec392f8a,626b3a96f3e4daab57072748,,,,,,,,,,,,,,,,,,,,,,,a,1,1.3668,"[""0.211"",""0.530"",""0.603"",""0.874""]","[1,1,0,1]",0,26,26,26,1,0,0,,,0,FALSE,,,,,,,,,,,,,,,,,,,,,,,,,,,,,,
,6028191ed22ee868e11c5095,001,2022-04-29_02h09.16.582,classification_task,2021.2.3,Win32,58.98661004,6028191ed22ee868e11c5095,626b377229c10585ec392f8a,626b3a96f3e4daab57072748,,,,,,,,,,,,,,,,,,,,,,,l,0,1.0172,"[""0.769"",""0.530"",""0.686"",""0.874""]","[0,1,1,1]",0,27,27,27,1,0,0,,,0,FALSE,,,,,,,,,,,,,,,,,,,,,,,,,,,,,,
,6028191ed22ee868e11c5095,001,2022-04-29_02h09.16.582,classification_task,2021.2.3,Win32,58.98661004,6028191ed22ee868e11c5095,626b377229c10585ec392f8a,626b3a96f3e4daab57072748,,,,,,,,,,,,,,,,,,,,,,,l,1,0.8352,"[""0.068"",""0.369"",""0.637"",""0.721""]","[0,1,1,1]",0,28,28,28,1,1,0,,,0,FALSE,,,,,,,,,,,,,,,,,,,,,,,,,,,,,,
,6028191ed22ee868e11c5095,001,2022-04-29_02h09.16.582,classification_task,2021.2.3,Win32,58.98661004,6028191ed22ee868e11c5095,626b377229c10585ec392f8a,626b3a96f3e4daab57072748,,,,,,,,,,,,,,,,,,,,,,,a,1,1.0698,"[""0.279"",""0.314"",""0.912"",""0.966""]","[1,0,1,1]",0,29,29,29,1,0,1,,,0,FALSE,,,,,,,,,,,,,,,,,,,,,,,,,,,,,,
,6028191ed22ee868e11c5095,001,2022-04-29_02h09.16.582,classification_task,2021.2.3,Win32,58.98661004,6028191ed22ee868e11c5095,626b377229c10585ec392f8a,626b3a96f3e4daab57072748,,,,,,,,,,,,,,,,,,,,,,,a,0,1.6727,"[""0.136"",""0.245"",""0.486"",""0.067""]","[1,1,1,0]",0,30,30,30,1,1,1,,,0,FALSE,,,,,,,,,,,,,,,,,,,,,,,,,,,,,,
,6028191ed22ee868e11c5095,001,2022-04-29_02h09.16.582,classification_task,2021.2.3,Win32,58.98661004,6028191ed22ee868e11c5095,626b377229c10585ec392f8a,626b3a96f3e4daab57072748,,,,,,,,,,,,,,,,,,,,,,,l,1,1.1942,"[""0.028"",""0.369"",""0.568"",""0.721""]","[1,1,0,1]",0,31,31,31,1,1,0,,,0,FALSE,,,,,,,,,,,,,,,,,,,,,,,,,,,,,,
,6028191ed22ee868e11c5095,001,2022-04-29_02h09.16.582,classification_task,2021.2.3,Win32,58.98661004,6028191ed22ee868e11c5095,626b377229c10585ec392f8a,626b3a96f3e4daab57072748,,,,,,,,,,,,,,,,,,,,,,,a,1,1.8476,"[""0.211"",""0.530"",""0.760"",""0.874""]","[1,1,0,1]",0,32,32,32,1,0,0,,,0,FALSE,,,,,,,,,,,,,,,,,,,,,,,,,,,,,,
,6028191ed22ee868e11c5095,001,2022-04-29_02h09.16.582,classification_task,2021.2.3,Win32,58.98661004,6028191ed22ee868e11c5095,626b377229c10585ec392f8a,626b3a96f3e4daab57072748,,,,,,,,,,,,,,,,,,,,,,,l,1,0.731,"[""0.028"",""0.369"",""0.314"",""0.721""]","[1,1,0,1]",0,33,33,33,1,1,0,,,0,FALSE,,,,,,,,,,,,,,,,,,,,,,,,,,,,,,
,6028191ed22ee868e11c5095,001,2022-04-29_02h09.16.582,classification_task,2021.2.3,Win32,58.98661004,6028191ed22ee868e11c5095,626b377229c10585ec392f8a,626b3a96f3e4daab57072748,,,,,,,,,,,,,,,,,,,,,,,a,0,1.2014,"[""0.569"",""0.369"",""0.637"",""0.721""]","[0,1,1,1]",0,34,34,34,1,1,0,,,0,FALSE,,,,,,,,,,,,,,,,,,,,,,,,,,,,,,
,6028191ed22ee868e11c5095,001,2022-04-29_02h09.16.582,classification_task,2021.2.3,Win32,58.98661004,6028191ed22ee868e11c5095,626b377229c10585ec392f8a,626b3a96f3e4daab57072748,,,,,,,,,,,,,,,,,,,,,,,a,1,1.4471,"[""0.279"",""0.405"",""0.603"",""0.966""]","[1,1,0,1]",0,35,35,35,1,0,1,,,0,FALSE,,,,,,,,,,,,,,,,,,,,,,,,,,,,,,
,6028191ed22ee868e11c5095,001,2022-04-29_02h09.16.582,classification_task,2021.2.3,Win32,58.98661004,6028191ed22ee868e11c5095,626b377229c10585ec392f8a,626b3a96f3e4daab57072748,,,,,,,,,,,,,,,,,,,,,,,a,1,0.8266,"[""0.279"",""0.769"",""0.912"",""0.966""]","[1,0,1,1]",0,36,36,36,1,0,1,,,0,FALSE,,,,,,,,,,,,,,,,,,,,,,,,,,,,,,
,6028191ed22ee868e11c5095,001,2022-04-29_02h09.16.582,classification_task,2021.2.3,Win32,58.98661004,6028191ed22ee868e11c5095,626b377229c10585ec392f8a,626b3a96f3e4daab57072748,,,,,,,,,,,,,,,,,,,,,,,l,0,1.2708,"[""0.313"",""0.530"",""0.686"",""0.874""]","[0,1,1,1]",0,37,37,37,1,0,0,,,0,FALSE,,,,,,,,,,,,,,,,,,,,,,,,,,,,,,
,6028191ed22ee868e11c5095,001,2022-04-29_02h09.16.582,classification_task,2021.2.3,Win32,58.98661004,6028191ed22ee868e11c5095,626b377229c10585ec392f8a,626b3a96f3e4daab57072748,,,,,,,,,,,,,,,,,,,,,,,a,0,1.0884,"[""0.028"",""0.369"",""0.637"",""0.067""]","[1,1,1,0]",0,38,38,38,1,1,0,,,0,FALSE,,,,,,,,,,,,,,,,,,,,,,,,,,,,,,
,6028191ed22ee868e11c5095,001,2022-04-29_02h09.16.582,classification_task,2021.2.3,Win32,58.98661004,6028191ed22ee868e11c5095,626b377229c10585ec392f8a,626b3a96f3e4daab57072748,,,,,,,,,,,,,,,,,,,,,,,l,0,1.0125,"[""0.211"",""0.530"",""0.686"",""0.313""]","[1,1,1,0]",0,39,39,39,1,0,0,,,0,FALSE,,,,,,,,,,,,,,,,,,,,,,,,,,,,,,
,6028191ed22ee868e11c5095,001,2022-04-29_02h09.16.582,classification_task,2021.2.3,Win32,58.98661004,6028191ed22ee868e11c5095,626b377229c10585ec392f8a,626b3a96f3e4daab57072748,,,,,,,,,,,,,,,,,,,,,,,a,0,1.81,"[""0.792"",""0.245"",""0.486"",""0.835""]","[0,1,1,1]",0,40,40,40,1,1,1,,,0,FALSE,,,,,,,,,,,,,,,,,,,,,,,,,,,,,,
,6028191ed22ee868e11c5095,001,2022-04-29_02h09.16.582,classification_task,2021.2.3,Win32,58.98661004,6028191ed22ee868e11c5095,626b377229c10585ec392f8a,626b3a96f3e4daab57072748,,,,,,,,,,,,,,,,,,,,,,,a,1,0.7776,"[""0.068"",""0.405"",""0.912"",""0.966""]","[0,1,1,1]",0,41,41,41,1,0,1,,,0,FALSE,,,,,,,,,,,,,,,,,,,,,,,,,,,,,,
,6028191ed22ee868e11c5095,001,2022-04-29_02h09.16.582,classification_task,2021.2.3,Win32,58.98661004,6028191ed22ee868e11c5095,626b377229c10585ec392f8a,626b3a96f3e4daab57072748,,,,,,,,,,,,,,,,,,,,,,,l,1,1.3108,"[""0.136"",""0.245"",""0.486"",""0.760""]","[1,1,1,0]",0,42,42,42,1,1,1,,,0,FALSE,,,,,,,,,,,,,,,,,,,,,,,,,,,,,,
,6028191ed22ee868e11c5095,001,2022-04-29_02h09.16.582,classification_task,2021.2.3,Win32,58.98661004,6028191ed22ee868e11c5095,626b377229c10585ec392f8a,626b3a96f3e4daab57072748,,,,,,,,,,,,,,,,,,,,,,,l,1,0.96,"[""0.028"",""0.760"",""0.637"",""0.721""]","[1,0,1,1]",0,43,43,43,1,1,0,,,0,FALSE,,,,,,,,,,,,,,,,,,,,,,,,,,,,,,
,6028191ed22ee868e11c5095,001,2022-04-29_02h09.16.582,classification_task,2021.2.3,Win32,58.98661004,6028191ed22ee868e11c5095,626b377229c10585ec392f8a,626b3a96f3e4daab57072748,,,,,,,,,,,,,,,,,,,,,,,a,1,1.1535,"[""0.279"",""0.405"",""0.912"",""0.569""]","[1,1,1,0]",0,44,44,44,1,0,1,,,0,FALSE,,,,,,,,,,,,,,,,,,,,,,,,,,,,,,
,6028191ed22ee868e11c5095,001,2022-04-29_02h09.16.582,classification_task,2021.2.3,Win32,58.98661004,6028191ed22ee868e11c5095,626b377229c10585ec392f8a,626b3a96f3e4daab57072748,,,,,,,,,,,,,,,,,,,,,,,a,1,2.3202,"[""0.211"",""0.314"",""0.686"",""0.874""]","[1,0,1,1]",0,45,45,45,1,0,0,,,0,FALSE,,,,,,,,,,,,,,,,,,,,,,,,,,,,,,
,6028191ed22ee868e11c5095,001,2022-04-29_02h09.16.582,classification_task,2021.2.3,Win32,58.98661004,6028191ed22ee868e11c5095,626b377229c10585ec392f8a,626b3a96f3e4daab57072748,,,,,,,,,,,,,,,,,,,,,,,l,1,1.3749,"[""0.136"",""0.245"",""0.792"",""0.835""]","[1,1,0,1]",0,46,46,46,1,1,1,,,0,FALSE,,,,,,,,,,,,,,,,,,,,,,,,,,,,,,
,6028191ed22ee868e11c5095,001,2022-04-29_02h09.16.582,classification_task,2021.2.3,Win32,58.98661004,6028191ed22ee868e11c5095,626b377229c10585ec392f8a,626b3a96f3e4daab57072748,,,,,,,,,,,,,,,,,,,,,,,a,0,1.674,"[""0.136"",""0.065"",""0.486"",""0.835""]","[1,0,1,1]",0,47,47,47,1,1,1,,,0,FALSE,,,,,,,,,,,,,,,,,,,,,,,,,,,,,,
,6028191ed22ee868e11c5095,001,2022-04-29_02h09.16.582,classification_task,2021.2.3,Win32,58.98661004,6028191ed22ee868e11c5095,626b377229c10585ec392f8a,626b3a96f3e4daab57072748,,,,,,,,,,,,,,,,,,,,,,,l,0,1.5912,"[""0.211"",""0.530"",""0.686"",""0.320""]","[1,1,1,0]",0,48,48,48,1,0,0,,,0,FALSE,,,,,,,,,,,,,,,,,,,,,,,,,,,,,,
,6028191ed22ee868e11c5095,001,2022-04-29_02h09.16.582,classification_task,2021.2.3,Win32,58.98661004,6028191ed22ee868e11c5095,626b377229c10585ec392f8a,626b3a96f3e4daab57072748,,,,,,,,,,,,,,,,,,,,,,,a,0,1.1946,"[""0.136"",""0.792"",""0.486"",""0.835""]","[1,0,1,1]",0,49,49,49,1,1,1,,,0,FALSE,,,,,,,,,,,,,,,,,,,,,,,,,,,,,,
,6028191ed22ee868e11c5095,001,2022-04-29_02h09.16.582,classification_task,2021.2.3,Win32,58.98661004,6028191ed22ee868e11c5095,626b377229c10585ec392f8a,626b3a96f3e4daab57072748,,,,,,,,,,,,,,,,,,,,,,,l,1,0.9527,"[""0.028"",""0.369"",""0.637"",""0.065""]","[1,1,1,0]",0,50,50,50,1,1,0,,,0,FALSE,,,,,,,,,,,,,,,,,,,,,,,,,,,,,,
,6028191ed22ee868e11c5095,001,2022-04-29_02h09.16.582,classification_task,2021.2.3,Win32,58.98661004,6028191ed22ee868e11c5095,626b377229c10585ec392f8a,626b3a96f3e4daab57072748,,,,,,,,,,,,,,,,,,,,,,,l,1,0.8921,"[""0.136"",""0.245"",""0.486"",""0.065""]","[1,1,1,0]",0,51,51,51,1,1,1,,,0,FALSE,,,,,,,,,,,,,,,,,,,,,,,,,,,,,,
,6028191ed22ee868e11c5095,001,2022-04-29_02h09.16.582,classification_task,2021.2.3,Win32,58.98661004,6028191ed22ee868e11c5095,626b377229c10585ec392f8a,626b3a96f3e4daab57072748,,,,,,,,,,,,,,,,,,,,,,,a,1,1.2539,"[""0.279"",""0.331"",""0.912"",""0.966""]","[1,0,1,1]",0,52,52,52,1,0,1,,,0,FALSE,,,,,,,,,,,,,,,,,,,,,,,,,,,,,,
,6028191ed22ee868e11c5095,001,2022-04-29_02h09.16.582,classification_task,2021.2.3,Win32,58.98661004,6028191ed22ee868e11c5095,626b377229c10585ec392f8a,626b3a96f3e4daab57072748,,,,,,,,,,,,,,,,,,,,,,,l,1,1.0236,"[""0.028"",""0.369"",""0.065"",""0.721""]","[1,1,0,1]",0,53,53,53,1,1,0,,,0,FALSE,,,,,,,,,,,,,,,,,,,,,,,,,,,,,,
,6028191ed22ee868e11c5095,001,2022-04-29_02h09.16.582,classification_task,2021.2.3,Win32,58.98661004,6028191ed22ee868e11c5095,626b377229c10585ec392f8a,626b3a96f3e4daab57072748,,,,,,,,,,,,,,,,,,,,,,,a,1,1.0744,"[""0.777"",""0.405"",""0.912"",""0.966""]","[0,1,1,1]",0,54,54,54,1,0,1,,,0,FALSE,,,,,,,,,,,,,,,,,,,,,,,,,,,,,,
,6028191ed22ee868e11c5095,001,2022-04-29_02h09.16.582,classification_task,2021.2.3,Win32,58.98661004,6028191ed22ee868e11c5095,626b377229c10585ec392f8a,626b3a96f3e4daab57072748,,,,,,,,,,,,,,,,,,,,,,,l,0,1.1287,"[""0.211"",""0.530"",""0.068"",""0.874""]","[1,1,0,1]",0,55,55,55,1,0,0,,,0,FALSE,,,,,,,,,,,,,,,,,,,,,,,,,,,,,,
,6028191ed22ee868e11c5095,001,2022-04-29_02h09.16.582,classification_task,2021.2.3,Win32,58.98661004,6028191ed22ee868e11c5095,626b377229c10585ec392f8a,626b3a96f3e4daab57072748,,,,,,,,,,,,,,,,,,,,,,,a,0,1.0204,"[""0.067"",""0.369"",""0.637"",""0.721""]","[0,1,1,1]",0,56,56,56,1,1,0,,,0,FALSE,,,,,,,,,,,,,,,,,,,,,,,,,,,,,,
,6028191ed22ee868e11c5095,001,2022-04-29_02h09.16.582,classification_task,2021.2.3,Win32,58.98661004,6028191ed22ee868e11c5095,626b377229c10585ec392f8a,626b3a96f3e4daab57072748,,,,,,,,,,,,,,,,,,,,,,,l,1,1.508,"[""0.136"",""0.245"",""0.568"",""0.835""]","[1,1,0,1]",0,57,57,57,1,1,1,,,0,FALSE,,,,,,,,,,,,,,,,,,,,,,,,,,,,,,
,6028191ed22ee868e11c5095,001,2022-04-29_02h09.16.582,classification_task,2021.2.3,Win32,58.98661004,6028191ed22ee868e11c5095,626b377229c10585ec392f8a,626b3a96f3e4daab57072748,,,,,,,,,,,,,,,,,,,,,,,l,1,1.2462,"[""0.065"",""0.245"",""0.486"",""0.835""]","[0,1,1,1]",0,58,58,58,1,1,1,,,0,FALSE,,,,,,,,,,,,,,,,,,,,,,,,,,,,,,
,6028191ed22ee868e11c5095,001,2022-04-29_02h09.16.582,classification_task,2021.2.3,Win32,58.98661004,6028191ed22ee868e11c5095,626b377229c10585ec392f8a,626b3a96f3e4daab57072748,,,,,,,,,,,,,,,,,,,,,,,l,1,0.9541,"[""0.028"",""0.568"",""0.637"",""0.721""]","[1,0,1,1]",0,59,59,59,1,1,0,,,0,FALSE,,,,,,,,,,,,,,,,,,,,,,,,,,,,,,
,6028191ed22ee868e11c5095,001,2022-04-29_02h09.16.582,classification_task,2021.2.3,Win32,58.98661004,6028191ed22ee868e11c5095,626b377229c10585ec392f8a,626b3a96f3e4daab57072748,,,,,,,,,,,,,,,,,,,,,,,a,1,1.2023,"[""0.211"",""0.314"",""0.686"",""0.874""]","[1,0,1,1]",0,60,60,60,1,0,0,,,0,FALSE,,,,,,,,,,,,,,,,,,,,,,,,,,,,,,
,6028191ed22ee868e11c5095,001,2022-04-29_02h09.16.582,classification_task,2021.2.3,Win32,58.98661004,6028191ed22ee868e11c5095,626b377229c10585ec392f8a,626b3a96f3e4daab57072748,,,,,,,,,,,,,,,,,,,,,,,a,1,1.2628,"[""0.279"",""0.405"",""0.603"",""0.966""]","[1,1,0,1]",0,61,61,61,1,0,1,,,0,FALSE,,,,,,,,,,,,,,,,,,,,,,,,,,,,,,
,6028191ed22ee868e11c5095,001,2022-04-29_02h09.16.582,classification_task,2021.2.3,Win32,58.98661004,6028191ed22ee868e11c5095,626b377229c10585ec392f8a,626b3a96f3e4daab57072748,,,,,,,,,,,,,,,,,,,,,,,a,1,1.4796,"[""0.313"",""0.530"",""0.686"",""0.874""]","[0,1,1,1]",0,62,62,62,1,0,0,,,0,FALSE,,,,,,,,,,,,,,,,,,,,,,,,,,,,,,
,6028191ed22ee868e11c5095,001,2022-04-29_02h09.16.582,classification_task,2021.2.3,Win32,58.98661004,6028191ed22ee868e11c5095,626b377229c10585ec392f8a,626b3a96f3e4daab57072748,,,,,,,,,,,,,,,,,,,,,,,a,1,1.9682,"[""0.279"",""0.405"",""0.912"",""0.331""]","[1,1,1,0]",0,63,63,63,1,0,1,,,0,FALSE,,,,,,,,,,,,,,,,,,,,,,,,,,,,,,
,6028191ed22ee868e11c5095,001,2022-04-29_02h09.16.582,classification_task,2021.2.3,Win32,58.98661004,6028191ed22ee868e11c5095,626b377229c10585ec392f8a,626b3a96f3e4daab57072748,,,,,,,,,,,,,,,,,,,,,,,,,,,,,,,,,,,,,,,0, ,,0,9.064704586,173.6074,0,1,1,1,1,2,2,,,,,,,,,,,,,,,,,
,6028191ed22ee868e11c5095,001,2022-04-29_02h09.16.582,classification_task,2021.2.3,Win32,58.98661004,6028191ed22ee868e11c5095,626b377229c10585ec392f8a,626b3a96f3e4daab57072748,,,,,,,,,,,,,,,,,,,,,,,,,,,,,,,,,,,,,,,1,  ,,0,2.692074515,177.4311,0,1,1,1,1,2,2,,,,,,,,,,,,,,,,,
,6028191ed22ee868e11c5095,001,2022-04-29_02h09.16.582,classification_task,2021.2.3,Win32,58.98661004,6028191ed22ee868e11c5095,626b377229c10585ec392f8a,626b3a96f3e4daab57072748,,,,,,,,,,,,,,,,,,,,,,,,,,,,,,,,,,,,,,,2,  ,,0,9.340277778,180.0948,0,1,1,1,1,2,2,,,,,,,,,,,,,,,,,
,6028191ed22ee868e11c5095,001,2022-04-29_02h09.16.582,classification_task,2021.2.3,Win32,58.98661004,6028191ed22ee868e11c5095,626b377229c10585ec392f8a,626b3a96f3e4daab57072748,,,,,,,,,,,,,,,,,,,,,,,,,,,,,,,,,,,,,,,,,,,,,0,1,1,1,1,,2,,,,,,,,,,,,,,,,,
,6028191ed22ee868e11c5095,001,2022-04-29_02h09.16.582,classification_task,2021.2.3,Win32,58.98661004,6028191ed22ee868e11c5095,626b377229c10585ec392f8a,626b3a96f3e4daab57072748,,,,,,,,,,,,,,,,,,,,,space,7.917,a,1,3.9766,"[""0.279"",""0.405"",""0.912"",""0.065""]","[1,1,1,0]",0,0,0,0,1,0,1,,,0,FALSE,,,,,,,,,,,,,,,,,,,,,,,,,,,,,,
,6028191ed22ee868e11c5095,001,2022-04-29_02h09.16.582,classification_task,2021.2.3,Win32,58.98661004,6028191ed22ee868e11c5095,626b377229c10585ec392f8a,626b3a96f3e4daab57072748,,,,,,,,,,,,,,,,,,,,,,,l,0,2.5097,"[""0.211"",""0.792"",""0.686"",""0.874""]","[1,0,1,1]",0,1,1,1,1,0,0,,,0,FALSE,,,,,,,,,,,,,,,,,,,,,,,,,,,,,,
,6028191ed22ee868e11c5095,001,2022-04-29_02h09.16.582,classification_task,2021.2.3,Win32,58.98661004,6028191ed22ee868e11c5095,626b377229c10585ec392f8a,626b3a96f3e4daab57072748,,,,,,,,,,,,,,,,,,,,,,,l,1,0.9173,"[""0.028"",""0.369"",""0.568"",""0.721""]","[1,1,0,1]",0,2,2,2,1,1,0,,,0,FALSE,,,,,,,,,,,,,,,,,,,,,,,,,,,,,,
,6028191ed22ee868e11c5095,001,2022-04-29_02h09.16.582,classification_task,2021.2.3,Win32,58.98661004,6028191ed22ee868e11c5095,626b377229c10585ec392f8a,626b3a96f3e4daab57072748,,,,,,,,,,,,,,,,,,,,,,,a,1,1.1957,"[""0.331"",""0.405"",""0.912"",""0.966""]","[0,1,1,1]",0,3,3,3,1,0,1,,,0,FALSE,,,,,,,,,,,,,,,,,,,,,,,,,,,,,,
,6028191ed22ee868e11c5095,001,2022-04-29_02h09.16.582,classification_task,2021.2.3,Win32,58.98661004,6028191ed22ee868e11c5095,626b377229c10585ec392f8a,626b3a96f3e4daab57072748,,,,,,,,,,,,,,,,,,,,,,,a,0,3.7072,"[""0.136"",""0.315"",""0.486"",""0.835""]","[1,0,1,1]",0,4,4,4,1,1,1,,,0,FALSE,,,,,,,,,,,,,,,,,,,,,,,,,,,,,,
,6028191ed22ee868e11c5095,001,2022-04-29_02h09.16.582,classification_task,2021.2.3,Win32,58.98661004,6028191ed22ee868e11c5095,626b377229c10585ec392f8a,626b3a96f3e4daab57072748,,,,,,,,,,,,,,,,,,,,,,,a,1,2.0788,"[""0.211"",""0.530"",""0.686"",""0.760""]","[1,1,1,0]",0,5,5,5,1,0,0,,,0,FALSE,,,,,,,,,,,,,,,,,,,,,,,,,,,,,,
,6028191ed22ee868e11c5095,001,2022-04-29_02h09.16.582,classification_task,2021.2.3,Win32,58.98661004,6028191ed22ee868e11c5095,626b377229c10585ec392f8a,626b3a96f3e4daab57072748,,,,,,,,,,,,,,,,,,,,,,,a,1,0.9624,"[""0.279"",""0.405"",""0.777"",""0.966""]","[1,1,0,1]",0,6,6,6,1,0,1,,,0,FALSE,,,,,,,,,,,,,,,,,,,,,,,,,,,,,,
,6028191ed22ee868e11c5095,001,2022-04-29_02h09.16.582,classification_task,2021.2.3,Win32,58.98661004,6028191ed22ee868e11c5095,626b377229c10585ec392f8a,626b3a96f3e4daab57072748,,,,,,,,,,,,,,,,,,,,,,,l,1,0.9011,"[""0.028"",""0.369"",""0.637"",""0.769""]","[1,1,1,0]",0,7,7,7,1,1,0,,,0,FALSE,,,,,,,,,,,,,,,,,,,,,,,,,,,,,,
,6028191ed22ee868e11c5095,001,2022-04-29_02h09.16.582,classification_task,2021.2.3,Win32,58.98661004,6028191ed22ee868e11c5095,626b377229c10585ec392f8a,626b3a96f3e4daab57072748,,,,,,,,,,,,,,,,,,,,,,,l,1,0.7075,"[""0.028"",""0.065"",""0.637"",""0.721""]","[1,0,1,1]",0,8,8,8,1,1,0,,,0,FALSE,,,,,,,,,,,,,,,,,,,,,,,,,,,,,,
,6028191ed22ee868e11c5095,001,2022-04-29_02h09.16.582,classification_task,2021.2.3,Win32,58.98661004,6028191ed22ee868e11c5095,626b377229c10585ec392f8a,626b3a96f3e4daab57072748,,,,,,,,,,,,,,,,,,,,,,,a,0,1.8483,"[""0.315"",""0.369"",""0.637"",""0.721""]","[0,1,1,1]",0,9,9,9,1,1,0,,,0,FALSE,,,,,,,,,,,,,,,,,,,,,,,,,,,,,,
,6028191ed22ee868e11c5095,001,2022-04-29_02h09.16.582,classification_task,2021.2.3,Win32,58.98661004,6028191ed22ee868e11c5095,626b377229c10585ec392f8a,626b3a96f3e4daab57072748,,,,,,,,,,,,,,,,,,,,,,,a,1,1.027,"[""0.279"",""0.792"",""0.912"",""0.966""]","[1,0,1,1]",0,10,10,10,1,0,1,,,0,FALSE,,,,,,,,,,,,,,,,,,,,,,,,,,,,,,
,6028191ed22ee868e11c5095,001,2022-04-29_02h09.16.582,classification_task,2021.2.3,Win32,58.98661004,6028191ed22ee868e11c5095,626b377229c10585ec392f8a,626b3a96f3e4daab57072748,,,,,,,,,,,,,,,,,,,,,,,l,0,1.6655,"[""0.211"",""0.530"",""0.315"",""0.874""]","[1,1,0,1]",0,11,11,11,1,0,0,,,0,FALSE,,,,,,,,,,,,,,,,,,,,,,,,,,,,,,
,6028191ed22ee868e11c5095,001,2022-04-29_02h09.16.582,classification_task,2021.2.3,Win32,58.98661004,6028191ed22ee868e11c5095,626b377229c10585ec392f8a,626b3a96f3e4daab57072748,,,,,,,,,,,,,,,,,,,,,,,l,0,1.6673,"[""0.603"",""0.530"",""0.686"",""0.874""]","[0,1,1,1]",0,12,12,12,1,0,0,,,0,FALSE,,,,,,,,,,,,,,,,,,,,,,,,,,,,,,
,6028191ed22ee868e11c5095,001,2022-04-29_02h09.16.582,classification_task,2021.2.3,Win32,58.98661004,6028191ed22ee868e11c5095,626b377229c10585ec392f8a,626b3a96f3e4daab57072748,,,,,,,,,,,,,,,,,,,,,,,l,1,1.56,"[""0.769"",""0.245"",""0.486"",""0.835""]","[0,1,1,1]",0,13,13,13,1,1,1,,,0,FALSE,,,,,,,,,,,,,,,,,,,,,,,,,,,,,,
,6028191ed22ee868e11c5095,001,2022-04-29_02h09.16.582,classification_task,2021.2.3,Win32,58.98661004,6028191ed22ee868e11c5095,626b377229c10585ec392f8a,626b3a96f3e4daab57072748,,,,,,,,,,,,,,,,,,,,,,,l,1,1.0874,"[""0.136"",""0.245"",""0.486"",""0.315""]","[1,1,1,0]",0,14,14,14,1,1,1,,,0,FALSE,,,,,,,,,,,,,,,,,,,,,,,,,,,,,,
,6028191ed22ee868e11c5095,001,2022-04-29_02h09.16.582,classification_task,2021.2.3,Win32,58.98661004,6028191ed22ee868e11c5095,626b377229c10585ec392f8a,626b3a96f3e4daab57072748,,,,,,,,,,,,,,,,,,,,,,,l,1,1.0861,"[""0.136"",""0.245"",""0.568"",""0.835""]","[1,1,0,1]",0,15,15,15,1,1,1,,,0,FALSE,,,,,,,,,,,,,,,,,,,,,,,,,,,,,,
,6028191ed22ee868e11c5095,001,2022-04-29_02h09.16.582,classification_task,2021.2.3,Win32,58.98661004,6028191ed22ee868e11c5095,626b377229c10585ec392f8a,626b3a96f3e4daab57072748,,,,,,,,,,,,,,,,,,,,,,,l,0,2.0273,"[""0.211"",""0.530"",""0.686"",""0.569""]","[1,1,1,0]",0,16,16,16,1,0,0,,,0,FALSE,,,,,,,,,,,,,,,,,,,,,,,,,,,,,,
,6028191ed22ee868e11c5095,001,2022-04-29_02h09.16.582,classification_task,2021.2.3,Win32,58.98661004,6028191ed22ee868e11c5095,626b377229c10585ec392f8a,626b3a96f3e4daab57072748,,,,,,,,,,,,,,,,,,,,,,,a,1,0.9237,"[""0.279"",""0.315"",""0.912"",""0.966""]","[1,0,1,1]",0,17,17,17,1,0,1,,,0,FALSE,,,,,,,,,,,,,,,,,,,,,,,,,,,,,,
,6028191ed22ee868e11c5095,001,2022-04-29_02h09.16.582,classification_task,2021.2.3,Win32,58.98661004,6028191ed22ee868e11c5095,626b377229c10585ec392f8a,626b3a96f3e4daab57072748,,,,,,,,,,,,,,,,,,,,,,,a,1,0.7836,"[""0.777"",""0.405"",""0.912"",""0.966""]","[0,1,1,1]",0,18,18,18,1,0,1,,,0,FALSE,,,,,,,,,,,,,,,,,,,,,,,,,,,,,,
,6028191ed22ee868e11c5095,001,2022-04-29_02h09.16.582,classification_task,2021.2.3,Win32,58.98661004,6028191ed22ee868e11c5095,626b377229c10585ec392f8a,626b3a96f3e4daab57072748,,,,,,,,,,,,,,,,,,,,,,,l,0,1.4326,"[""0.769"",""0.530"",""0.686"",""0.874""]","[0,1,1,1]",0,19,19,19,1,0,0,,,0,FALSE,,,,,,,,,,,,,,,,,,,,,,,,,,,,,,
,6028191ed22ee868e11c5095,001,2022-04-29_02h09.16.582,classification_task,2021.2.3,Win32,58.98661004,6028191ed22ee868e11c5095,626b377229c10585ec392f8a,626b3a96f3e4daab57072748,,,,,,,,,,,,,,,,,,,,,,,a,1,1.0327,"[""0.279"",""0.405"",""0.449"",""0.966""]","[1,1,0,1]",0,20,20,20,1,0,1,,,0,FALSE,,,,,,,,,,,,,,,,,,,,,,,,,,,,,,
,6028191ed22ee868e11c5095,001,2022-04-29_02h09.16.582,classification_task,2021.2.3,Win32,58.98661004,6028191ed22ee868e11c5095,626b377229c10585ec392f8a,626b3a96f3e4daab57072748,,,,,,,,,,,,,,,,,,,,,,,l,1,0.9711,"[""0.028"",""0.760"",""0.637"",""0.721""]","[1,0,1,1]",0,21,21,21,1,1,0,,,0,FALSE,,,,,,,,,,,,,,,,,,,,,,,,,,,,,,
,6028191ed22ee868e11c5095,001,2022-04-29_02h09.16.582,classification_task,2021.2.3,Win32,58.98661004,6028191ed22ee868e11c5095,626b377229c10585ec392f8a,626b3a96f3e4daab57072748,,,,,,,,,,,,,,,,,,,,,,,a,0,1.6224,"[""0.136"",""0.245"",""0.486"",""0.320""]","[1,1,1,0]",0,22,22,22,1,1,1,,,0,FALSE,,,,,,,,,,,,,,,,,,,,,,,,,,,,,,
,6028191ed22ee868e11c5095,001,2022-04-29_02h09.16.582,classification_task,2021.2.3,Win32,58.98661004,6028191ed22ee868e11c5095,626b377229c10585ec392f8a,626b3a96f3e4daab57072748,,,,,,,,,,,,,,,,,,,,,,,l,1,0.9685,"[""0.028"",""0.369"",""0.637"",""0.320""]","[1,1,1,0]",0,23,23,23,1,1,0,,,0,FALSE,,,,,,,,,,,,,,,,,,,,,,,,,,,,,,
,6028191ed22ee868e11c5095,001,2022-04-29_02h09.16.582,classification_task,2021.2.3,Win32,58.98661004,6028191ed22ee868e11c5095,626b377229c10585ec392f8a,626b3a96f3e4daab57072748,,,,,,,,,,,,,,,,,,,,,,,l,0,2.2606,"[""0.211"",""0.760"",""0.686"",""0.874""]","[1,0,1,1]",0,24,24,24,1,0,0,,,0,FALSE,,,,,,,,,,,,,,,,,,,,,,,,,,,,,,
,6028191ed22ee868e11c5095,001,2022-04-29_02h09.16.582,classification_task,2021.2.3,Win32,58.98661004,6028191ed22ee868e11c5095,626b377229c10585ec392f8a,626b3a96f3e4daab57072748,,,,,,,,,,,,,,,,,,,,,,,l,1,0.854,"[""0.065"",""0.369"",""0.637"",""0.721""]","[0,1,1,1]",0,25,25,25,1,1,0,,,0,FALSE,,,,,,,,,,,,,,,,,,,,,,,,,,,,,,
,6028191ed22ee868e11c5095,001,2022-04-29_02h09.16.582,classification_task,2021.2.3,Win32,58.98661004,6028191ed22ee868e11c5095,626b377229c10585ec392f8a,626b3a96f3e4daab57072748,,,,,,,,,,,,,,,,,,,,,,,l,0,1.4963,"[""0.279"",""0.405"",""0.912"",""0.777""]","[1,1,1,0]",0,26,26,26,1,0,1,,,0,FALSE,,,,,,,,,,,,,,,,,,,,,,,,,,,,,,
,6028191ed22ee868e11c5095,001,2022-04-29_02h09.16.582,classification_task,2021.2.3,Win32,58.98661004,6028191ed22ee868e11c5095,626b377229c10585ec392f8a,626b3a96f3e4daab57072748,,,,,,,,,,,,,,,,,,,,,,,l,1,1.3705,"[""0.136"",""0.245"",""0.068"",""0.835""]","[1,1,0,1]",0,27,27,27,1,1,1,,,0,FALSE,,,,,,,,,,,,,,,,,,,,,,,,,,,,,,
,6028191ed22ee868e11c5095,001,2022-04-29_02h09.16.582,classification_task,2021.2.3,Win32,58.98661004,6028191ed22ee868e11c5095,626b377229c10585ec392f8a,626b3a96f3e4daab57072748,,,,,,,,,,,,,,,,,,,,,,,a,0,1.3274,"[""0.136"",""0.314"",""0.486"",""0.835""]","[1,0,1,1]",0,28,28,28,1,1,1,,,0,FALSE,,,,,,,,,,,,,,,,,,,,,,,,,,,,,,
,6028191ed22ee868e11c5095,001,2022-04-29_02h09.16.582,classification_task,2021.2.3,Win32,58.98661004,6028191ed22ee868e11c5095,626b377229c10585ec392f8a,626b3a96f3e4daab57072748,,,,,,,,,,,,,,,,,,,,,,,l,1,0.773,"[""0.028"",""0.369"",""0.065"",""0.721""]","[1,1,0,1]",0,29,29,29,1,1,0,,,0,FALSE,,,,,,,,,,,,,,,,,,,,,,,,,,,,,,
,6028191ed22ee868e11c5095,001,2022-04-29_02h09.16.582,classification_task,2021.2.3,Win32,58.98661004,6028191ed22ee868e11c5095,626b377229c10585ec392f8a,626b3a96f3e4daab57072748,,,,,,,,,,,,,,,,,,,,,,,a,0,2.7517,"[""0.603"",""0.245"",""0.486"",""0.835""]","[0,1,1,1]",0,30,30,30,1,1,1,,,0,FALSE,,,,,,,,,,,,,,,,,,,,,,,,,,,,,,
,6028191ed22ee868e11c5095,001,2022-04-29_02h09.16.582,classification_task,2021.2.3,Win32,58.98661004,6028191ed22ee868e11c5095,626b377229c10585ec392f8a,626b3a96f3e4daab57072748,,,,,,,,,,,,,,,,,,,,,,,a,1,1.4871,"[""0.211"",""0.530"",""0.449"",""0.874""]","[1,1,0,1]",0,31,31,31,1,0,0,,,0,FALSE,,,,,,,,,,,,,,,,,,,,,,,,,,,,,,
,6028191ed22ee868e11c5095,001,2022-04-29_02h09.16.582,classification_task,2021.2.3,Win32,58.98661004,6028191ed22ee868e11c5095,626b377229c10585ec392f8a,626b3a96f3e4daab57072748,,,,,,,,,,,,,,,,,,,,,,,a,1,4.609,"[""0.279"",""0.313"",""0.912"",""0.966""]","[1,0,1,1]",0,32,32,32,1,0,1,,,0,FALSE,,,,,,,,,,,,,,,,,,,,,,,,,,,,,,
,6028191ed22ee868e11c5095,001,2022-04-29_02h09.16.582,classification_task,2021.2.3,Win32,58.98661004,6028191ed22ee868e11c5095,626b377229c10585ec392f8a,626b3a96f3e4daab57072748,,,,,,,,,,,,,,,,,,,,,,,l,1,2.5975,"[""0.068"",""0.369"",""0.637"",""0.721""]","[0,1,1,1]",0,33,33,33,1,1,0,,,0,FALSE,,,,,,,,,,,,,,,,,,,,,,,,,,,,,,
,6028191ed22ee868e11c5095,001,2022-04-29_02h09.16.582,classification_task,2021.2.3,Win32,58.98661004,6028191ed22ee868e11c5095,626b377229c10585ec392f8a,626b3a96f3e4daab57072748,,,,,,,,,,,,,,,,,,,,,,,l,1,3.5407,"[""0.136"",""0.245"",""0.486"",""0.792""]","[1,1,1,0]",0,34,34,34,1,1,1,,,0,FALSE,,,,,,,,,,,,,,,,,,,,,,,,,,,,,,
,6028191ed22ee868e11c5095,001,2022-04-29_02h09.16.582,classification_task,2021.2.3,Win32,58.98661004,6028191ed22ee868e11c5095,626b377229c10585ec392f8a,626b3a96f3e4daab57072748,,,,,,,,,,,,,,,,,,,,,,,a,1,1.271,"[""0.279"",""0.405"",""0.331"",""0.966""]","[1,1,0,1]",0,35,35,35,1,0,1,,,0,FALSE,,,,,,,,,,,,,,,,,,,,,,,,,,,,,,
,6028191ed22ee868e11c5095,001,2022-04-29_02h09.16.582,classification_task,2021.2.3,Win32,58.98661004,6028191ed22ee868e11c5095,626b377229c10585ec392f8a,626b3a96f3e4daab57072748,,,,,,,,,,,,,,,,,,,,,,,l,0,1.7151,"[""0.211"",""0.530"",""0.686"",""0.769""]","[1,1,1,0]",0,36,36,36,1,0,0,,,0,FALSE,,,,,,,,,,,,,,,,,,,,,,,,,,,,,,
,6028191ed22ee868e11c5095,001,2022-04-29_02h09.16.582,classification_task,2021.2.3,Win32,58.98661004,6028191ed22ee868e11c5095,626b377229c10585ec392f8a,626b3a96f3e4daab57072748,,,,,,,,,,,,,,,,,,,,,,,a,1,1.0778,"[""0.279"",""0.405"",""0.912"",""0.331""]","[1,1,1,0]",0,37,37,37,1,0,1,,,0,FALSE,,,,,,,,,,,,,,,,,,,,,,,,,,,,,,
,6028191ed22ee868e11c5095,001,2022-04-29_02h09.16.582,classification_task,2021.2.3,Win32,58.98661004,6028191ed22ee868e11c5095,626b377229c10585ec392f8a,626b3a96f3e4daab57072748,,,,,,,,,,,,,,,,,,,,,,,l,1,1.1345,"[""0.136"",""0.569"",""0.486"",""0.835""]","[1,0,1,1]",0,38,38,38,1,1,1,,,0,FALSE,,,,,,,,,,,,,,,,,,,,,,,,,,,,,,
,6028191ed22ee868e11c5095,001,2022-04-29_02h09.16.582,classification_task,2021.2.3,Win32,58.98661004,6028191ed22ee868e11c5095,626b377229c10585ec392f8a,626b3a96f3e4daab57072748,,,,,,,,,,,,,,,,,,,,,,,l,1,1.1479,"[""0.449"",""0.245"",""0.486"",""0.835""]","[0,1,1,1]",0,39,39,39,1,1,1,,,0,FALSE,,,,,,,,,,,,,,,,,,,,,,,,,,,,,,
,6028191ed22ee868e11c5095,001,2022-04-29_02h09.16.582,classification_task,2021.2.3,Win32,58.98661004,6028191ed22ee868e11c5095,626b377229c10585ec392f8a,626b3a96f3e4daab57072748,,,,,,,,,,,,,,,,,,,,,,,l,1,0.8396,"[""0.028"",""0.369"",""0.569"",""0.721""]","[1,1,0,1]",0,40,40,40,1,1,0,,,0,FALSE,,,,,,,,,,,,,,,,,,,,,,,,,,,,,,
,6028191ed22ee868e11c5095,001,2022-04-29_02h09.16.582,classification_task,2021.2.3,Win32,58.98661004,6028191ed22ee868e11c5095,626b377229c10585ec392f8a,626b3a96f3e4daab57072748,,,,,,,,,,,,,,,,,,,,,,,l,1,1.6082,"[""0.136"",""0.245"",""0.568"",""0.835""]","[1,1,0,1]",0,41,41,41,1,1,1,,,0,FALSE,,,,,,,,,,,,,,,,,,,,,,,,,,,,,,
,6028191ed22ee868e11c5095,001,2022-04-29_02h09.16.582,classification_task,2021.2.3,Win32,58.98661004,6028191ed22ee868e11c5095,626b377229c10585ec392f8a,626b3a96f3e4daab57072748,,,,,,,,,,,,,,,,,,,,,,,l,1,0.7805,"[""0.028"",""0.369"",""0.637"",""0.331""]","[1,1,1,0]",0,42,42,42,1,1,0,,,0,FALSE,,,,,,,,,,,,,,,,,,,,,,,,,,,,,,
,6028191ed22ee868e11c5095,001,2022-04-29_02h09.16.582,classification_task,2021.2.3,Win32,58.98661004,6028191ed22ee868e11c5095,626b377229c10585ec392f8a,626b3a96f3e4daab57072748,,,,,,,,,,,,,,,,,,,,,,,a,1,0.9591,"[""0.211"",""0.313"",""0.686"",""0.874""]","[1,0,1,1]",0,43,43,43,1,0,0,,,0,FALSE,,,,,,,,,,,,,,,,,,,,,,,,,,,,,,
,6028191ed22ee868e11c5095,001,2022-04-29_02h09.16.582,classification_task,2021.2.3,Win32,58.98661004,6028191ed22ee868e11c5095,626b377229c10585ec392f8a,626b3a96f3e4daab57072748,,,,,,,,,,,,,,,,,,,,,,,a,1,1.3596,"[""0.068"",""0.530"",""0.686"",""0.874""]","[0,1,1,1]",0,44,44,44,1,0,0,,,0,FALSE,,,,,,,,,,,,,,,,,,,,,,,,,,,,,,
,6028191ed22ee868e11c5095,001,2022-04-29_02h09.16.582,classification_task,2021.2.3,Win32,58.98661004,6028191ed22ee868e11c5095,626b377229c10585ec392f8a,626b3a96f3e4daab57072748,,,,,,,,,,,,,,,,,,,,,,,l,1,0.8273,"[""0.028"",""0.068"",""0.637"",""0.721""]","[1,0,1,1]",0,45,45,45,1,1,0,,,0,FALSE,,,,,,,,,,,,,,,,,,,,,,,,,,,,,,
,6028191ed22ee868e11c5095,001,2022-04-29_02h09.16.582,classification_task,2021.2.3,Win32,58.98661004,6028191ed22ee868e11c5095,626b377229c10585ec392f8a,626b3a96f3e4daab57072748,,,,,,,,,,,,,,,,,,,,,,,a,1,1.0776,"[""0.211"",""0.530"",""0.603"",""0.874""]","[1,1,0,1]",0,46,46,46,1,0,0,,,0,FALSE,,,,,,,,,,,,,,,,,,,,,,,,,,,,,,
,6028191ed22ee868e11c5095,001,2022-04-29_02h09.16.582,classification_task,2021.2.3,Win32,58.98661004,6028191ed22ee868e11c5095,626b377229c10585ec392f8a,626b3a96f3e4daab57072748,,,,,,,,,,,,,,,,,,,,,,,a,1,1.1611,"[""0.320"",""0.405"",""0.912"",""0.966""]","[0,1,1,1]",0,47,47,47,1,0,1,,,0,FALSE,,,,,,,,,,,,,,,,,,,,,,,,,,,,,,
,6028191ed22ee868e11c5095,001,2022-04-29_02h09.16.582,classification_task,2021.2.3,Win32,58.98661004,6028191ed22ee868e11c5095,626b377229c10585ec392f8a,626b3a96f3e4daab57072748,,,,,,,,,,,,,,,,,,,,,,,l,0,1.0648,"[""0.331"",""0.530"",""0.686"",""0.874""]","[0,1,1,1]",0,48,48,48,1,0,0,,,0,FALSE,,,,,,,,,,,,,,,,,,,,,,,,,,,,,,
,6028191ed22ee868e11c5095,001,2022-04-29_02h09.16.582,classification_task,2021.2.3,Win32,58.98661004,6028191ed22ee868e11c5095,626b377229c10585ec392f8a,626b3a96f3e4daab57072748,,,,,,,,,,,,,,,,,,,,,,,a,1,0.9643,"[""0.067"",""0.405"",""0.912"",""0.966""]","[0,1,1,1]",0,49,49,49,1,0,1,,,0,FALSE,,,,,,,,,,,,,,,,,,,,,,,,,,,,,,
,6028191ed22ee868e11c5095,001,2022-04-29_02h09.16.582,classification_task,2021.2.3,Win32,58.98661004,6028191ed22ee868e11c5095,626b377229c10585ec392f8a,626b3a96f3e4daab57072748,,,,,,,,,,,,,,,,,,,,,,,l,1,1.1933,"[""0.136"",""0.569"",""0.486"",""0.835""]","[1,0,1,1]",0,50,50,50,1,1,1,,,0,FALSE,,,,,,,,,,,,,,,,,,,,,,,,,,,,,,
,6028191ed22ee868e11c5095,001,2022-04-29_02h09.16.582,classification_task,2021.2.3,Win32,58.98661004,6028191ed22ee868e11c5095,626b377229c10585ec392f8a,626b3a96f3e4daab57072748,,,,,,,,,,,,,,,,,,,,,,,l,1,1.1911,"[""0.568"",""0.369"",""0.637"",""0.721""]","[0,1,1,1]",0,51,51,51,1,1,0,,,0,FALSE,,,,,,,,,,,,,,,,,,,,,,,,,,,,,,
,6028191ed22ee868e11c5095,001,2022-04-29_02h09.16.582,classification_task,2021.2.3,Win32,58.98661004,6028191ed22ee868e11c5095,626b377229c10585ec392f8a,626b3a96f3e4daab57072748,,,,,,,,,,,,,,,,,,,,,,,l,0,1.0265,"[""0.211"",""0.530"",""0.686"",""0.769""]","[1,1,1,0]",0,52,52,52,1,0,0,,,0,FALSE,,,,,,,,,,,,,,,,,,,,,,,,,,,,,,
,6028191ed22ee868e11c5095,001,2022-04-29_02h09.16.582,classification_task,2021.2.3,Win32,58.98661004,6028191ed22ee868e11c5095,626b377229c10585ec392f8a,626b3a96f3e4daab57072748,,,,,,,,,,,,,,,,,,,,,,,a,1,2.0254,"[""0.279"",""0.405"",""0.068"",""0.966""]","[1,1,0,1]",0,53,53,53,1,0,1,,,0,FALSE,,,,,,,,,,,,,,,,,,,,,,,,,,,,,,
,6028191ed22ee868e11c5095,001,2022-04-29_02h09.16.582,classification_task,2021.2.3,Win32,58.98661004,6028191ed22ee868e11c5095,626b377229c10585ec392f8a,626b3a96f3e4daab57072748,,,,,,,,,,,,,,,,,,,,,,,l,0,1.1902,"[""0.211"",""0.530"",""0.603"",""0.874""]","[1,1,0,1]",0,54,54,54,1,0,0,,,0,FALSE,,,,,,,,,,,,,,,,,,,,,,,,,,,,,,
,6028191ed22ee868e11c5095,001,2022-04-29_02h09.16.582,classification_task,2021.2.3,Win32,58.98661004,6028191ed22ee868e11c5095,626b377229c10585ec392f8a,626b3a96f3e4daab57072748,,,,,,,,,,,,,,,,,,,,,,,l,1,1.5041,"[""0.136"",""0.245"",""0.320"",""0.835""]","[1,1,0,1]",0,55,55,55,1,1,1,,,0,FALSE,,,,,,,,,,,,,,,,,,,,,,,,,,,,,,
,6028191ed22ee868e11c5095,001,2022-04-29_02h09.16.582,classification_task,2021.2.3,Win32,58.98661004,6028191ed22ee868e11c5095,626b377229c10585ec392f8a,626b3a96f3e4daab57072748,,,,,,,,,,,,,,,,,,,,,,,l,0,1.6106,"[""0.279"",""0.405"",""0.912"",""0.065""]","[1,1,1,0]",0,56,56,56,1,0,1,,,0,FALSE,,,,,,,,,,,,,,,,,,,,,,,,,,,,,,
,6028191ed22ee868e11c5095,001,2022-04-29_02h09.16.582,classification_task,2021.2.3,Win32,58.98661004,6028191ed22ee868e11c5095,626b377229c10585ec392f8a,626b3a96f3e4daab57072748,,,,,,,,,,,,,,,,,,,,,,,a,0,1.4311,"[""0.331"",""0.245"",""0.486"",""0.835""]","[0,1,1,1]",0,57,57,57,1,1,1,,,0,FALSE,,,,,,,,,,,,,,,,,,,,,,,,,,,,,,
,6028191ed22ee868e11c5095,001,2022-04-29_02h09.16.582,classification_task,2021.2.3,Win32,58.98661004,6028191ed22ee868e11c5095,626b377229c10585ec392f8a,626b3a96f3e4daab57072748,,,,,,,,,,,,,,,,,,,,,,,a,1,1.0807,"[""0.279"",""0.777"",""0.912"",""0.966""]","[1,0,1,1]",0,58,58,58,1,0,1,,,0,FALSE,,,,,,,,,,,,,,,,,,,,,,,,,,,,,,
,6028191ed22ee868e11c5095,001,2022-04-29_02h09.16.582,classification_task,2021.2.3,Win32,58.98661004,6028191ed22ee868e11c5095,626b377229c10585ec392f8a,626b3a96f3e4daab57072748,,,,,,,,,,,,,,,,,,,,,,,l,0,1.5624,"[""0.211"",""0.331"",""0.686"",""0.874""]","[1,0,1,1]",0,59,59,59,1,0,0,,,0,FALSE,,,,,,,,,,,,,,,,,,,,,,,,,,,,,,
,6028191ed22ee868e11c5095,001,2022-04-29_02h09.16.582,classification_task,2021.2.3,Win32,58.98661004,6028191ed22ee868e11c5095,626b377229c10585ec392f8a,626b3a96f3e4daab57072748,,,,,,,,,,,,,,,,,,,,,,,l,1,1.9192,"[""0.028"",""0.369"",""0.637"",""0.792""]","[1,1,1,0]",0,60,60,60,1,1,0,,,0,FALSE,,,,,,,,,,,,,,,,,,,,,,,,,,,,,,
,6028191ed22ee868e11c5095,001,2022-04-29_02h09.16.582,classification_task,2021.2.3,Win32,58.98661004,6028191ed22ee868e11c5095,626b377229c10585ec392f8a,626b3a96f3e4daab57072748,,,,,,,,,,,,,,,,,,,,,,,l,1,0.8375,"[""0.028"",""0.331"",""0.637"",""0.721""]","[1,0,1,1]",0,61,61,61,1,1,0,,,0,FALSE,,,,,,,,,,,,,,,,,,,,,,,,,,,,,,
,6028191ed22ee868e11c5095,001,2022-04-29_02h09.16.582,classification_task,2021.2.3,Win32,58.98661004,6028191ed22ee868e11c5095,626b377229c10585ec392f8a,626b3a96f3e4daab57072748,,,,,,,,,,,,,,,,,,,,,,,a,0,3.0031,"[""0.136"",""0.245"",""0.486"",""0.760""]","[1,1,1,0]",0,62,62,62,1,1,1,,,0,FALSE,,,,,,,,,,,,,,,,,,,,,,,,,,,,,,
,6028191ed22ee868e11c5095,001,2022-04-29_02h09.16.582,classification_task,2021.2.3,Win32,58.98661004,6028191ed22ee868e11c5095,626b377229c10585ec392f8a,626b3a96f3e4daab57072748,,,,,,,,,,,,,,,,,,,,,,,l,1,1.495,"[""0.028"",""0.369"",""0.449"",""0.721""]","[1,1,0,1]",0,63,63,63,1,1,0,,,0,FALSE,,,,,,,,,,,,,,,,,,,,,,,,,,,,,,
,6028191ed22ee868e11c5095,001,2022-04-29_02h09.16.582,classification_task,2021.2.3,Win32,58.98661004,6028191ed22ee868e11c5095,626b377229c10585ec392f8a,626b3a96f3e4daab57072748,,,,,,,,,,,,,,,,,,,,,,,,,,,,,,,,,,,,,,,0, ,,0,8.031305115,176.9679,0,2,2,2,1,2,3,,,,,,,,,,,,,,,,,
,6028191ed22ee868e11c5095,001,2022-04-29_02h09.16.582,classification_task,2021.2.3,Win32,58.98661004,6028191ed22ee868e11c5095,626b377229c10585ec392f8a,626b3a96f3e4daab57072748,,,,,,,,,,,,,,,,,,,,,,,,,,,,,,,,,,,,,,,1,  ,,0,2.347608025,179.8865,0,2,2,2,1,2,3,,,,,,,,,,,,,,,,,
,6028191ed22ee868e11c5095,001,2022-04-29_02h09.16.582,classification_task,2021.2.3,Win32,58.98661004,6028191ed22ee868e11c5095,626b377229c10585ec392f8a,626b3a96f3e4daab57072748,,,,,,,,,,,,,,,,,,,,,,,,,,,,,,,,,,,,,,,2,  ,,0,8.582451499,180.9263,0,2,2,2,1,2,3,,,,,,,,,,,,,,,,,
,6028191ed22ee868e11c5095,001,2022-04-29_02h09.16.582,classification_task,2021.2.3,Win32,58.98661004,6028191ed22ee868e11c5095,626b377229c10585ec392f8a,626b3a96f3e4daab57072748,,,,,,,,,,,,,,,,,,,,,,,,,,,,,,,,,,,,,,,,,,,,,0,2,2,2,1,,3,,,,,,,,,,,,,,,,,
,6028191ed22ee868e11c5095,001,2022-04-29_02h09.16.582,classification_task,2021.2.3,Win32,58.98661004,6028191ed22ee868e11c5095,626b377229c10585ec392f8a,626b3a96f3e4daab57072748,,,,,,,,,,,,,,,,,,,,,,,,,,,,,,,,,,,,,,,,,,,,,,,,,,,,,I believe the aid is a competent performer,,0.7,0,2,949.484,0,0,0,0,1,0,,,,
,6028191ed22ee868e11c5095,001,2022-04-29_02h09.16.582,classification_task,2021.2.3,Win32,58.98661004,6028191ed22ee868e11c5095,626b377229c10585ec392f8a,626b3a96f3e4daab57072748,,,,,,,,,,,,,,,,,,,,,,,,,,,,,,,,,,,,,,,,,,,,,,,,,,,,,I trust the aid,,0.7,0,2,950.3894,0,0,0,0,1,0,,,,
,6028191ed22ee868e11c5095,001,2022-04-29_02h09.16.582,classification_task,2021.2.3,Win32,58.98661004,6028191ed22ee868e11c5095,626b377229c10585ec392f8a,626b3a96f3e4daab57072748,,,,,,,,,,,,,,,,,,,,,,,,,,,,,,,,,,,,,,,,,,,,,,,,,,,,,I have confidence in the advice given by the aid,,0.7,0,2,951.5646,0,0,0,0,1,0,,,,
,6028191ed22ee868e11c5095,001,2022-04-29_02h09.16.582,classification_task,2021.2.3,Win32,58.98661004,6028191ed22ee868e11c5095,626b377229c10585ec392f8a,626b3a96f3e4daab57072748,,,,,,,,,,,,,,,,,,,,,,,,,,,,,,,,,,,,,,,,,,,,,,,,,,,,,I can depend on the aid,,0.7,0,2,952.4873,0,0,0,0,1,0,,,,
,6028191ed22ee868e11c5095,001,2022-04-29_02h09.16.582,classification_task,2021.2.3,Win32,58.98661004,6028191ed22ee868e11c5095,626b377229c10585ec392f8a,626b3a96f3e4daab57072748,,,,,,,,,,,,,,,,,,,,,,,,,,,,,,,,,,,,,,,,,,,,,,,,,,,,,I can rely on the aid to behave in consistent ways,,0.7,0,2,953.4034,0,0,0,0,1,0,,,,
,6028191ed22ee868e11c5095,001,2022-04-29_02h09.16.582,classification_task,2021.2.3,Win32,58.98661004,6028191ed22ee868e11c5095,626b377229c10585ec392f8a,626b3a96f3e4daab57072748,,,,,,,,,,,,,,,,,,,,,,,,,,,,,,,,,,,,,,,,,,,,,,,,,,,,,I can rely on the aid to do its best every time I take its advice,,0.7,0,2,953.9362,0,0,0,0,1,0,,,,
,6028191ed22ee868e11c5095,001,2022-04-29_02h09.16.582,classification_task,2021.2.3,Win32,58.98661004,6028191ed22ee868e11c5095,626b377229c10585ec392f8a,626b3a96f3e4daab57072748,,,,,,,,,,,,,,,,,,,,,,,,,,,,,,,,,,,,,,,,,,,,,,,,,,,,,"On trials you completed with assistance from the aid, how frequently did you think the aid was correct?",,0.7,0,70%,,0,0,0,0,1,0,,,,
,6028191ed22ee868e11c5095,001,2022-04-29_02h09.16.582,classification_task,2021.2.3,Win32,58.98661004,6028191ed22ee868e11c5095,626b377229c10585ec392f8a,626b3a96f3e4daab57072748,,,,,,,,,,,,,,,,,,,,,,,,,,,,,,,,,,,,,,,,,,,,,,,,,,,,,"On trials you completed without the aid, how frequently did you think you were correct?",,0.7,0,60%,,0,0,0,0,1,0,,,,
,6028191ed22ee868e11c5095,001,2022-04-29_02h09.16.582,classification_task,2021.2.3,Win32,58.98661004,6028191ed22ee868e11c5095,626b377229c10585ec392f8a,626b3a96f3e4daab57072748,,,,,,,,,,,,,,,,,,,,,,,,,,,,,,,,,,,,,,,,,,,,,,,,,,,,,,,,,,,0,0,0,0,1,,,,,
,6028191ed22ee868e11c5095,001,2022-04-29_02h09.16.582,classification_task,2021.2.3,Win32,58.98661004,6028191ed22ee868e11c5095,626b377229c10585ec392f8a,626b3a96f3e4daab57072748,,,,,,,,,,,,,,,,,,,,,,,,,,,,,,,,,,,,,,,,,,,,,,,,,,,,,,,,,,,,,,,,,space,8.9854,964.4649,
,6028191ed22ee868e11c5095,001,2022-04-29_02h09.16.582,classification_task,2021.2.3,Win32,58.98661004,6028191ed22ee868e11c5095,626b377229c10585ec392f8a,626b3a96f3e4daab57072748,,,,,,,,,,,,,,,,,,,,,,,,,,,,,,,,,,,,,,,,,,,,,,,,,,,,,,,,,,,,,,,,,,,,"Mozilla/5.0 (Windows NT 10.0; Win64; x64) AppleWebKit/537.36 (KHTML, like Gecko) Chrome/101.0.4951.41 Safari/537.36"
