usingWebGL,participant,session,date,expName,psychopyVersion,OS,frameRate,PROLIFIC_PID,STUDY_ID,SESSION_ID,signatures_friend,signatures_foe,band_ranges_top,band_ranges_bottom,formitemText,formtype,formundefined,formitemWidth,formindex,formresponse,formrt,key_resp_2.keys,key_resp_2.rt,tute_resp.keys,tute_resp.rt,tutorial.thisRepN,tutorial.thisTrialN,tutorial.thisN,tutorial.thisIndex,tutorial.ran,key_resp_4.keys,key_resp_4.rt,key_resp.keys,key_resp.corr,lines_presented,is_signal_presented,trials.thisRepN,trials.thisTrialN,trials.thisN,trials.thisIndex,trials.ran,vessel,active_band,lines,is_signal,supported_pos,catch_trial,key_resp.rt,debrief_formindex,debrief_formitemText,debrief_formtype,debrief_formitemWidth,debrief_formresponse,debrief_formrt,phases.thisRepN,phases.thisTrialN,phases.thisN,phases.thisIndex,phases.ran,phases.order,phase,key_resp_3.keys,trustitemText,trusttype,trustitemWidth,trustindex,trustresponse,trustrt,support_status.thisRepN,support_status.thisTrialN,support_status.thisN,support_status.thisIndex,support_status.ran,support_status.order,key_resp_5.keys,key_resp_5.rt,globalClockTime,userAgent
TRUE,6031b3c2a11bc814414d458d,001,2022-04-29_04h53.30.449,classification_task,2021.2.3,Win32,144.7387466,6031b3c2a11bc814414d458d,626b377229c10585ec392f8a,626b4db54e61b95f6aa1286c,,,,,,,,,,,,,,,,,,,,,,,,,,,,,,,,,,,,,,,,,,,,,,,,,,,,,,,,,,,,,,,,,,,,
,6031b3c2a11bc814414d458d,001,2022-04-29_04h53.30.449,classification_task,2021.2.3,Win32,144.7387466,6031b3c2a11bc814414d458d,626b377229c10585ec392f8a,626b4db54e61b95f6aa1286c,"[[""0.188"",""0.509"",""0.607"",""0.943""],[""0.324"",""0.363"",""0.676"",""0.870""]]","[[""0.051"",""0.415"",""0.549"",""0.786""],[""0.149"",""0.236"",""0.463"",""0.825""]]","[1,10]","[100,1000]",Video game experience,,,0.7,0,,,,,,,,,,,,,,,,,,,,,,,,,,,,,,,,,,,,,,,,,,,,,,,,,,,,,,,,,,,
,6031b3c2a11bc814414d458d,001,2022-04-29_04h53.30.449,classification_task,2021.2.3,Win32,144.7387466,6031b3c2a11bc814414d458d,626b377229c10585ec392f8a,626b4db54e61b95f6aa1286c,,,,,Approximately how many hours did you spend playing video games in the last week?,,,0.7,0,20,,,,,,,,,,,,,,,,,,,,,,,,,,,,,,,,,,,,,,,,,,,,,,,,,,,,,,,,,,
,6031b3c2a11bc814414d458d,001,2022-04-29_04h53.30.449,classification_task,2021.2.3,Win32,144.7387466,6031b3c2a11bc814414d458d,626b377229c10585ec392f8a,626b4db54e61b95f6aa1286c,,,,,"Which game did you play the most this year? (Enter ""None"" if you didn't play any)",,,0.7,0,Valorant,,,,,,,,,,,,,,,,,,,,,,,,,,,,,,,,,,,,,,,,,,,,,,,,,,,,,,,,,,
,6031b3c2a11bc814414d458d,001,2022-04-29_04h53.30.449,classification_task,2021.2.3,Win32,144.7387466,6031b3c2a11bc814414d458d,626b377229c10585ec392f8a,626b4db54e61b95f6aa1286c,,,,,Visual perception,,,0.7,0,,,,,,,,,,,,,,,,,,,,,,,,,,,,,,,,,,,,,,,,,,,,,,,,,,,,,,,,,,,
,6031b3c2a11bc814414d458d,001,2022-04-29_04h53.30.449,classification_task,2021.2.3,Win32,144.7387466,6031b3c2a11bc814414d458d,626b377229c10585ec392f8a,626b4db54e61b95f6aa1286c,,,,,Do you have any form of color blindness?,,,0.7,0,Yes,26.6443,,,,,,,,,,,,,,,,,,,,,,,,,,,,,,,,,,,,,,,,,,,,,,,,,,,,,,,,,
,6031b3c2a11bc814414d458d,001,2022-04-29_04h53.30.449,classification_task,2021.2.3,Win32,144.7387466,6031b3c2a11bc814414d458d,626b377229c10585ec392f8a,626b4db54e61b95f6aa1286c,,,,,Do you use software to change the colour temperature of your screen (e.g. f.lux)?,,,0.7,0,No,30.4546,,,,,,,,,,,,,,,,,,,,,,,,,,,,,,,,,,,,,,,,,,,,,,,,,,,,,,,,,
,6031b3c2a11bc814414d458d,001,2022-04-29_04h53.30.449,classification_task,2021.2.3,Win32,144.7387466,6031b3c2a11bc814414d458d,626b377229c10585ec392f8a,626b4db54e61b95f6aa1286c,,,,,,,,,,,,space,41.0089,space,25.0694,0,0,0,0,1,,,,,,,,,,,,,,,,,,,,,,,,,,,,,,,,,,,,,,,,,,,,,,,,
,6031b3c2a11bc814414d458d,001,2022-04-29_04h53.30.449,classification_task,2021.2.3,Win32,144.7387466,6031b3c2a11bc814414d458d,626b377229c10585ec392f8a,626b4db54e61b95f6aa1286c,,,,,,,,,,,,,,space,6.2055,1,0,1,0,1,,,,,,,,,,,,,,,,,,,,,,,,,,,,,,,,,,,,,,,,,,,,,,,,
,6031b3c2a11bc814414d458d,001,2022-04-29_04h53.30.449,classification_task,2021.2.3,Win32,144.7387466,6031b3c2a11bc814414d458d,626b377229c10585ec392f8a,626b4db54e61b95f6aa1286c,,,,,,,,,,,,,,space,13.6754,2,0,2,0,1,,,,,,,,,,,,,,,,,,,,,,,,,,,,,,,,,,,,,,,,,,,,,,,,
,6031b3c2a11bc814414d458d,001,2022-04-29_04h53.30.449,classification_task,2021.2.3,Win32,144.7387466,6031b3c2a11bc814414d458d,626b377229c10585ec392f8a,626b4db54e61b95f6aa1286c,,,,,,,,,,,,,,space,14.7908,3,0,3,0,1,,,,,,,,,,,,,,,,,,,,,,,,,,,,,,,,,,,,,,,,,,,,,,,,
,6031b3c2a11bc814414d458d,001,2022-04-29_04h53.30.449,classification_task,2021.2.3,Win32,144.7387466,6031b3c2a11bc814414d458d,626b377229c10585ec392f8a,626b4db54e61b95f6aa1286c,,,,,,,,,,,,,,space,15.824,4,0,4,0,1,,,,,,,,,,,,,,,,,,,,,,,,,,,,,,,,,,,,,,,,,,,,,,,,
,6031b3c2a11bc814414d458d,001,2022-04-29_04h53.30.449,classification_task,2021.2.3,Win32,144.7387466,6031b3c2a11bc814414d458d,626b377229c10585ec392f8a,626b4db54e61b95f6aa1286c,,,,,,,,,,,,,,,,,,,,,space,11.1397,,0,"[""0.051"",""0.415"",""0.549"",""0.737""]","[1,1,1,0]",0,0,0,0,1,1,0,,,0,FALSE,,,,,,,,,,,,,,,,,,,,,,,,,,,,,,,
,6031b3c2a11bc814414d458d,001,2022-04-29_04h53.30.449,classification_task,2021.2.3,Win32,144.7387466,6031b3c2a11bc814414d458d,626b377229c10585ec392f8a,626b4db54e61b95f6aa1286c,,,,,,,,,,,,,,,,,,,,,,,l,1,"[""0.051"",""0.415"",""0.738"",""0.786""]","[1,1,0,1]",0,1,1,1,1,1,0,,,0,FALSE,4.8099,,,,,,,,,,,,,,,,,,,,,,,,,,,,,,
,6031b3c2a11bc814414d458d,001,2022-04-29_04h53.30.449,classification_task,2021.2.3,Win32,144.7387466,6031b3c2a11bc814414d458d,626b377229c10585ec392f8a,626b4db54e61b95f6aa1286c,,,,,,,,,,,,,,,,,,,,,,,a,0,"[""0.723"",""0.415"",""0.549"",""0.786""]","[0,1,1,1]",0,2,2,2,1,1,0,,,0,FALSE,9.7608,,,,,,,,,,,,,,,,,,,,,,,,,,,,,,
,6031b3c2a11bc814414d458d,001,2022-04-29_04h53.30.449,classification_task,2021.2.3,Win32,144.7387466,6031b3c2a11bc814414d458d,626b377229c10585ec392f8a,626b4db54e61b95f6aa1286c,,,,,,,,,,,,,,,,,,,,,,,a,0,"[""0.744"",""0.236"",""0.463"",""0.825""]","[0,1,1,1]",0,3,3,3,1,1,1,,,0,FALSE,7.0367,,,,,,,,,,,,,,,,,,,,,,,,,,,,,,
,6031b3c2a11bc814414d458d,001,2022-04-29_04h53.30.449,classification_task,2021.2.3,Win32,144.7387466,6031b3c2a11bc814414d458d,626b377229c10585ec392f8a,626b4db54e61b95f6aa1286c,,,,,,,,,,,,,,,,,,,,,,,a,1,"[""0.324"",""0.738"",""0.676"",""0.870""]","[1,0,1,1]",0,4,4,4,1,0,1,,,0,FALSE,7.9354,,,,,,,,,,,,,,,,,,,,,,,,,,,,,,
,6031b3c2a11bc814414d458d,001,2022-04-29_04h53.30.449,classification_task,2021.2.3,Win32,144.7387466,6031b3c2a11bc814414d458d,626b377229c10585ec392f8a,626b4db54e61b95f6aa1286c,,,,,,,,,,,,,,,,,,,,,,,l,1,"[""0.149"",""0.236"",""0.463"",""0.275""]","[1,1,1,0]",0,5,5,5,1,1,1,,,0,FALSE,4.0912,,,,,,,,,,,,,,,,,,,,,,,,,,,,,,
,6031b3c2a11bc814414d458d,001,2022-04-29_04h53.30.449,classification_task,2021.2.3,Win32,144.7387466,6031b3c2a11bc814414d458d,626b377229c10585ec392f8a,626b4db54e61b95f6aa1286c,,,,,,,,,,,,,,,,,,,,,,,a,1,"[""0.188"",""0.723"",""0.607"",""0.943""]","[1,0,1,1]",0,6,6,6,1,0,0,,,0,FALSE,9.1776,,,,,,,,,,,,,,,,,,,,,,,,,,,,,,
,6031b3c2a11bc814414d458d,001,2022-04-29_04h53.30.449,classification_task,2021.2.3,Win32,144.7387466,6031b3c2a11bc814414d458d,626b377229c10585ec392f8a,626b4db54e61b95f6aa1286c,,,,,,,,,,,,,,,,,,,,,,,a,1,"[""0.275"",""0.509"",""0.607"",""0.943""]","[0,1,1,1]",0,7,7,7,1,0,0,,,0,FALSE,5.179,,,,,,,,,,,,,,,,,,,,,,,,,,,,,,
,6031b3c2a11bc814414d458d,001,2022-04-29_04h53.30.449,classification_task,2021.2.3,Win32,144.7387466,6031b3c2a11bc814414d458d,626b377229c10585ec392f8a,626b4db54e61b95f6aa1286c,,,,,,,,,,,,,,,,,,,,,,,a,1,"[""0.188"",""0.509"",""0.607"",""0.744""]","[1,1,1,0]",0,8,8,8,1,0,0,,,0,FALSE,4.7535,,,,,,,,,,,,,,,,,,,,,,,,,,,,,,
,6031b3c2a11bc814414d458d,001,2022-04-29_04h53.30.449,classification_task,2021.2.3,Win32,144.7387466,6031b3c2a11bc814414d458d,626b377229c10585ec392f8a,626b4db54e61b95f6aa1286c,,,,,,,,,,,,,,,,,,,,,,,l,1,"[""0.149"",""0.719"",""0.463"",""0.825""]","[1,0,1,1]",0,9,9,9,1,1,1,,,0,FALSE,3.4207,,,,,,,,,,,,,,,,,,,,,,,,,,,,,,
,6031b3c2a11bc814414d458d,001,2022-04-29_04h53.30.449,classification_task,2021.2.3,Win32,144.7387466,6031b3c2a11bc814414d458d,626b377229c10585ec392f8a,626b4db54e61b95f6aa1286c,,,,,,,,,,,,,,,,,,,,,,,a,1,"[""0.188"",""0.509"",""0.744"",""0.943""]","[1,1,0,1]",0,10,10,10,1,0,0,,,0,FALSE,6.3123,,,,,,,,,,,,,,,,,,,,,,,,,,,,,,
,6031b3c2a11bc814414d458d,001,2022-04-29_04h53.30.449,classification_task,2021.2.3,Win32,144.7387466,6031b3c2a11bc814414d458d,626b377229c10585ec392f8a,626b4db54e61b95f6aa1286c,,,,,,,,,,,,,,,,,,,,,,,l,1,"[""0.149"",""0.236"",""0.729"",""0.825""]","[1,1,0,1]",0,11,11,11,1,1,1,,,0,FALSE,2.62,,,,,,,,,,,,,,,,,,,,,,,,,,,,,,
,6031b3c2a11bc814414d458d,001,2022-04-29_04h53.30.449,classification_task,2021.2.3,Win32,144.7387466,6031b3c2a11bc814414d458d,626b377229c10585ec392f8a,626b4db54e61b95f6aa1286c,,,,,,,,,,,,,,,,,,,,,,,a,1,"[""0.275"",""0.363"",""0.676"",""0.870""]","[0,1,1,1]",0,12,12,12,1,0,1,,,0,FALSE,4.2324,,,,,,,,,,,,,,,,,,,,,,,,,,,,,,
,6031b3c2a11bc814414d458d,001,2022-04-29_04h53.30.449,classification_task,2021.2.3,Win32,144.7387466,6031b3c2a11bc814414d458d,626b377229c10585ec392f8a,626b4db54e61b95f6aa1286c,,,,,,,,,,,,,,,,,,,,,,,a,0,"[""0.051"",""0.736"",""0.549"",""0.786""]","[1,0,1,1]",0,13,13,13,1,1,0,,,0,FALSE,7.4605,,,,,,,,,,,,,,,,,,,,,,,,,,,,,,
,6031b3c2a11bc814414d458d,001,2022-04-29_04h53.30.449,classification_task,2021.2.3,Win32,144.7387466,6031b3c2a11bc814414d458d,626b377229c10585ec392f8a,626b4db54e61b95f6aa1286c,,,,,,,,,,,,,,,,,,,,,,,a,1,"[""0.324"",""0.363"",""0.676"",""0.275""]","[1,1,1,0]",0,14,14,14,1,0,1,,,0,FALSE,8.2103,,,,,,,,,,,,,,,,,,,,,,,,,,,,,,
,6031b3c2a11bc814414d458d,001,2022-04-29_04h53.30.449,classification_task,2021.2.3,Win32,144.7387466,6031b3c2a11bc814414d458d,626b377229c10585ec392f8a,626b4db54e61b95f6aa1286c,,,,,,,,,,,,,,,,,,,,,,,a,1,"[""0.324"",""0.363"",""0.749"",""0.870""]","[1,1,0,1]",0,15,15,15,1,0,1,,,0,FALSE,7.8834,,,,,,,,,,,,,,,,,,,,,,,,,,,,,,
,6031b3c2a11bc814414d458d,001,2022-04-29_04h53.30.449,classification_task,2021.2.3,Win32,144.7387466,6031b3c2a11bc814414d458d,626b377229c10585ec392f8a,626b4db54e61b95f6aa1286c,,,,,,,,,,,,,,,,,,,,,,,l,1,"[""0.051"",""0.415"",""0.549"",""0.737""]","[1,1,1,0]",0,16,16,16,1,1,0,,,0,FALSE,5.6422,,,,,,,,,,,,,,,,,,,,,,,,,,,,,,
,6031b3c2a11bc814414d458d,001,2022-04-29_04h53.30.449,classification_task,2021.2.3,Win32,144.7387466,6031b3c2a11bc814414d458d,626b377229c10585ec392f8a,626b4db54e61b95f6aa1286c,,,,,,,,,,,,,,,,,,,,,,,l,1,"[""0.107"",""0.415"",""0.549"",""0.786""]","[0,1,1,1]",0,17,17,17,1,1,0,,,0,FALSE,4.4423,,,,,,,,,,,,,,,,,,,,,,,,,,,,,,
,6031b3c2a11bc814414d458d,001,2022-04-29_04h53.30.449,classification_task,2021.2.3,Win32,144.7387466,6031b3c2a11bc814414d458d,626b377229c10585ec392f8a,626b4db54e61b95f6aa1286c,,,,,,,,,,,,,,,,,,,,,,,l,1,"[""0.149"",""0.236"",""0.463"",""0.092""]","[1,1,1,0]",0,18,18,18,1,1,1,,,0,FALSE,4.359,,,,,,,,,,,,,,,,,,,,,,,,,,,,,,
,6031b3c2a11bc814414d458d,001,2022-04-29_04h53.30.449,classification_task,2021.2.3,Win32,144.7387466,6031b3c2a11bc814414d458d,626b377229c10585ec392f8a,626b4db54e61b95f6aa1286c,,,,,,,,,,,,,,,,,,,,,,,a,1,"[""0.324"",""0.744"",""0.676"",""0.870""]","[1,0,1,1]",0,19,19,19,1,0,1,,,0,FALSE,3.9138,,,,,,,,,,,,,,,,,,,,,,,,,,,,,,
,6031b3c2a11bc814414d458d,001,2022-04-29_04h53.30.449,classification_task,2021.2.3,Win32,144.7387466,6031b3c2a11bc814414d458d,626b377229c10585ec392f8a,626b4db54e61b95f6aa1286c,,,,,,,,,,,,,,,,,,,,,,,a,0,"[""0.729"",""0.236"",""0.463"",""0.825""]","[0,1,1,1]",0,20,20,20,1,1,1,,,0,FALSE,5.8322,,,,,,,,,,,,,,,,,,,,,,,,,,,,,,
,6031b3c2a11bc814414d458d,001,2022-04-29_04h53.30.449,classification_task,2021.2.3,Win32,144.7387466,6031b3c2a11bc814414d458d,626b377229c10585ec392f8a,626b4db54e61b95f6aa1286c,,,,,,,,,,,,,,,,,,,,,,,l,0,"[""0.188"",""0.285"",""0.607"",""0.943""]","[1,0,1,1]",0,21,21,21,1,0,0,,,0,FALSE,6.9795,,,,,,,,,,,,,,,,,,,,,,,,,,,,,,
,6031b3c2a11bc814414d458d,001,2022-04-29_04h53.30.449,classification_task,2021.2.3,Win32,144.7387466,6031b3c2a11bc814414d458d,626b377229c10585ec392f8a,626b4db54e61b95f6aa1286c,,,,,,,,,,,,,,,,,,,,,,,,0,"[""0.723"",""0.509"",""0.607"",""0.943""]","[0,1,1,1]",0,22,22,22,1,0,0,,,0,FALSE,,,,,,,,,,,,,,,,,,,,,,,,,,,,,,,
,6031b3c2a11bc814414d458d,001,2022-04-29_04h53.30.449,classification_task,2021.2.3,Win32,144.7387466,6031b3c2a11bc814414d458d,626b377229c10585ec392f8a,626b4db54e61b95f6aa1286c,,,,,,,,,,,,,,,,,,,,,,,l,0,"[""0.188"",""0.509"",""0.607"",""0.285""]","[1,1,1,0]",0,23,23,23,1,0,0,,,0,FALSE,3.7497,,,,,,,,,,,,,,,,,,,,,,,,,,,,,,
,6031b3c2a11bc814414d458d,001,2022-04-29_04h53.30.449,classification_task,2021.2.3,Win32,144.7387466,6031b3c2a11bc814414d458d,626b377229c10585ec392f8a,626b4db54e61b95f6aa1286c,,,,,,,,,,,,,,,,,,,,,,,a,1,"[""0.324"",""0.363"",""0.676"",""0.744""]","[1,1,1,0]",0,24,24,24,1,0,1,,,0,FALSE,2.5149,,,,,,,,,,,,,,,,,,,,,,,,,,,,,,
,6031b3c2a11bc814414d458d,001,2022-04-29_04h53.30.449,classification_task,2021.2.3,Win32,144.7387466,6031b3c2a11bc814414d458d,626b377229c10585ec392f8a,626b4db54e61b95f6aa1286c,,,,,,,,,,,,,,,,,,,,,,,l,1,"[""0.149"",""0.744"",""0.463"",""0.825""]","[1,0,1,1]",0,25,25,25,1,1,1,,,0,FALSE,2.7264,,,,,,,,,,,,,,,,,,,,,,,,,,,,,,
,6031b3c2a11bc814414d458d,001,2022-04-29_04h53.30.449,classification_task,2021.2.3,Win32,144.7387466,6031b3c2a11bc814414d458d,626b377229c10585ec392f8a,626b4db54e61b95f6aa1286c,,,,,,,,,,,,,,,,,,,,,,,a,1,"[""0.188"",""0.509"",""0.736"",""0.943""]","[1,1,0,1]",0,26,26,26,1,0,0,,,0,FALSE,4.0575,,,,,,,,,,,,,,,,,,,,,,,,,,,,,,
,6031b3c2a11bc814414d458d,001,2022-04-29_04h53.30.449,classification_task,2021.2.3,Win32,144.7387466,6031b3c2a11bc814414d458d,626b377229c10585ec392f8a,626b4db54e61b95f6aa1286c,,,,,,,,,,,,,,,,,,,,,,,l,1,"[""0.051"",""0.737"",""0.549"",""0.786""]","[1,0,1,1]",0,27,27,27,1,1,0,,,0,FALSE,1.633,,,,,,,,,,,,,,,,,,,,,,,,,,,,,,
,6031b3c2a11bc814414d458d,001,2022-04-29_04h53.30.449,classification_task,2021.2.3,Win32,144.7387466,6031b3c2a11bc814414d458d,626b377229c10585ec392f8a,626b4db54e61b95f6aa1286c,,,,,,,,,,,,,,,,,,,,,,,l,1,"[""0.149"",""0.236"",""0.744"",""0.825""]","[1,1,0,1]",0,28,28,28,1,1,1,,,0,FALSE,2.4063,,,,,,,,,,,,,,,,,,,,,,,,,,,,,,
,6031b3c2a11bc814414d458d,001,2022-04-29_04h53.30.449,classification_task,2021.2.3,Win32,144.7387466,6031b3c2a11bc814414d458d,626b377229c10585ec392f8a,626b4db54e61b95f6aa1286c,,,,,,,,,,,,,,,,,,,,,,,a,1,"[""0.324"",""0.363"",""0.719"",""0.870""]","[1,1,0,1]",0,29,29,29,1,0,1,,,0,FALSE,2.7026,,,,,,,,,,,,,,,,,,,,,,,,,,,,,,
,6031b3c2a11bc814414d458d,001,2022-04-29_04h53.30.449,classification_task,2021.2.3,Win32,144.7387466,6031b3c2a11bc814414d458d,626b377229c10585ec392f8a,626b4db54e61b95f6aa1286c,,,,,,,,,,,,,,,,,,,,,,,a,1,"[""0.736"",""0.363"",""0.676"",""0.870""]","[0,1,1,1]",0,30,30,30,1,0,1,,,0,FALSE,2.8428,,,,,,,,,,,,,,,,,,,,,,,,,,,,,,
,6031b3c2a11bc814414d458d,001,2022-04-29_04h53.30.449,classification_task,2021.2.3,Win32,144.7387466,6031b3c2a11bc814414d458d,626b377229c10585ec392f8a,626b4db54e61b95f6aa1286c,,,,,,,,,,,,,,,,,,,,,,,l,1,"[""0.051"",""0.415"",""0.744"",""0.786""]","[1,1,0,1]",0,31,31,31,1,1,0,,,0,FALSE,2.7517,,,,,,,,,,,,,,,,,,,,,,,,,,,,,,
,6031b3c2a11bc814414d458d,001,2022-04-29_04h53.30.449,classification_task,2021.2.3,Win32,144.7387466,6031b3c2a11bc814414d458d,626b377229c10585ec392f8a,626b4db54e61b95f6aa1286c,,,,,,,,,,,,,,,,,,,,,,,l,1,"[""0.744"",""0.415"",""0.549"",""0.786""]","[0,1,1,1]",0,32,32,32,1,1,0,,,0,FALSE,3.2342,,,,,,,,,,,,,,,,,,,,,,,,,,,,,,
,6031b3c2a11bc814414d458d,001,2022-04-29_04h53.30.449,classification_task,2021.2.3,Win32,144.7387466,6031b3c2a11bc814414d458d,626b377229c10585ec392f8a,626b4db54e61b95f6aa1286c,,,,,,,,,,,,,,,,,,,,,,,a,0,"[""0.149"",""0.275"",""0.463"",""0.825""]","[1,0,1,1]",0,33,33,33,1,1,1,,,0,FALSE,1.9715,,,,,,,,,,,,,,,,,,,,,,,,,,,,,,
,6031b3c2a11bc814414d458d,001,2022-04-29_04h53.30.449,classification_task,2021.2.3,Win32,144.7387466,6031b3c2a11bc814414d458d,626b377229c10585ec392f8a,626b4db54e61b95f6aa1286c,,,,,,,,,,,,,,,,,,,,,,,l,0,"[""0.324"",""0.363"",""0.676"",""0.275""]","[1,1,1,0]",0,34,34,34,1,0,1,,,0,FALSE,1.2827,,,,,,,,,,,,,,,,,,,,,,,,,,,,,,
,6031b3c2a11bc814414d458d,001,2022-04-29_04h53.30.449,classification_task,2021.2.3,Win32,144.7387466,6031b3c2a11bc814414d458d,626b377229c10585ec392f8a,626b4db54e61b95f6aa1286c,,,,,,,,,,,,,,,,,,,,,,,a,0,"[""0.149"",""0.236"",""0.275"",""0.825""]","[1,1,0,1]",0,35,35,35,1,1,1,,,0,FALSE,3.9631,,,,,,,,,,,,,,,,,,,,,,,,,,,,,,
,6031b3c2a11bc814414d458d,001,2022-04-29_04h53.30.449,classification_task,2021.2.3,Win32,144.7387466,6031b3c2a11bc814414d458d,626b377229c10585ec392f8a,626b4db54e61b95f6aa1286c,,,,,,,,,,,,,,,,,,,,,,,l,0,"[""0.719"",""0.509"",""0.607"",""0.943""]","[0,1,1,1]",0,36,36,36,1,0,0,,,0,FALSE,2.5888,,,,,,,,,,,,,,,,,,,,,,,,,,,,,,
,6031b3c2a11bc814414d458d,001,2022-04-29_04h53.30.449,classification_task,2021.2.3,Win32,144.7387466,6031b3c2a11bc814414d458d,626b377229c10585ec392f8a,626b4db54e61b95f6aa1286c,,,,,,,,,,,,,,,,,,,,,,,a,1,"[""0.188"",""0.509"",""0.607"",""0.285""]","[1,1,1,0]",0,37,37,37,1,0,0,,,0,FALSE,1.6033,,,,,,,,,,,,,,,,,,,,,,,,,,,,,,
,6031b3c2a11bc814414d458d,001,2022-04-29_04h53.30.449,classification_task,2021.2.3,Win32,144.7387466,6031b3c2a11bc814414d458d,626b377229c10585ec392f8a,626b4db54e61b95f6aa1286c,,,,,,,,,,,,,,,,,,,,,,,l,0,"[""0.736"",""0.363"",""0.676"",""0.870""]","[0,1,1,1]",0,38,38,38,1,0,1,,,0,FALSE,0.8346,,,,,,,,,,,,,,,,,,,,,,,,,,,,,,
,6031b3c2a11bc814414d458d,001,2022-04-29_04h53.30.449,classification_task,2021.2.3,Win32,144.7387466,6031b3c2a11bc814414d458d,626b377229c10585ec392f8a,626b4db54e61b95f6aa1286c,,,,,,,,,,,,,,,,,,,,,,,l,0,"[""0.188"",""0.509"",""0.736"",""0.943""]","[1,1,0,1]",0,39,39,39,1,0,0,,,0,FALSE,0.8248,,,,,,,,,,,,,,,,,,,,,,,,,,,,,,
,6031b3c2a11bc814414d458d,001,2022-04-29_04h53.30.449,classification_task,2021.2.3,Win32,144.7387466,6031b3c2a11bc814414d458d,626b377229c10585ec392f8a,626b4db54e61b95f6aa1286c,,,,,,,,,,,,,,,,,,,,,,,l,1,"[""0.051"",""0.415"",""0.549"",""0.749""]","[1,1,1,0]",0,40,40,40,1,1,0,,,0,FALSE,0.8605,,,,,,,,,,,,,,,,,,,,,,,,,,,,,,
,6031b3c2a11bc814414d458d,001,2022-04-29_04h53.30.449,classification_task,2021.2.3,Win32,144.7387466,6031b3c2a11bc814414d458d,626b377229c10585ec392f8a,626b4db54e61b95f6aa1286c,,,,,,,,,,,,,,,,,,,,,,,a,1,"[""0.324"",""0.737"",""0.676"",""0.870""]","[1,0,1,1]",0,41,41,41,1,0,1,,,0,FALSE,1.7435,,,,,,,,,,,,,,,,,,,,,,,,,,,,,,
,6031b3c2a11bc814414d458d,001,2022-04-29_04h53.30.449,classification_task,2021.2.3,Win32,144.7387466,6031b3c2a11bc814414d458d,626b377229c10585ec392f8a,626b4db54e61b95f6aa1286c,,,,,,,,,,,,,,,,,,,,,,,a,0,"[""0.744"",""0.236"",""0.463"",""0.825""]","[0,1,1,1]",0,42,42,42,1,1,1,,,0,FALSE,0.8256,,,,,,,,,,,,,,,,,,,,,,,,,,,,,,
,6031b3c2a11bc814414d458d,001,2022-04-29_04h53.30.449,classification_task,2021.2.3,Win32,144.7387466,6031b3c2a11bc814414d458d,626b377229c10585ec392f8a,626b4db54e61b95f6aa1286c,,,,,,,,,,,,,,,,,,,,,,,a,0,"[""0.149"",""0.236"",""0.463"",""0.275""]","[1,1,1,0]",0,43,43,43,1,1,1,,,0,FALSE,0.6626,,,,,,,,,,,,,,,,,,,,,,,,,,,,,,
,6031b3c2a11bc814414d458d,001,2022-04-29_04h53.30.449,classification_task,2021.2.3,Win32,144.7387466,6031b3c2a11bc814414d458d,626b377229c10585ec392f8a,626b4db54e61b95f6aa1286c,,,,,,,,,,,,,,,,,,,,,,,l,0,"[""0.324"",""0.363"",""0.744"",""0.870""]","[1,1,0,1]",0,44,44,44,1,0,1,,,0,FALSE,0.732,,,,,,,,,,,,,,,,,,,,,,,,,,,,,,
,6031b3c2a11bc814414d458d,001,2022-04-29_04h53.30.449,classification_task,2021.2.3,Win32,144.7387466,6031b3c2a11bc814414d458d,626b377229c10585ec392f8a,626b4db54e61b95f6aa1286c,,,,,,,,,,,,,,,,,,,,,,,a,1,"[""0.188"",""0.736"",""0.607"",""0.943""]","[1,0,1,1]",0,45,45,45,1,0,0,,,0,FALSE,1.2535,,,,,,,,,,,,,,,,,,,,,,,,,,,,,,
,6031b3c2a11bc814414d458d,001,2022-04-29_04h53.30.449,classification_task,2021.2.3,Win32,144.7387466,6031b3c2a11bc814414d458d,626b377229c10585ec392f8a,626b4db54e61b95f6aa1286c,,,,,,,,,,,,,,,,,,,,,,,l,1,"[""0.051"",""0.723"",""0.549"",""0.786""]","[1,0,1,1]",0,46,46,46,1,1,0,,,0,FALSE,1.1791,,,,,,,,,,,,,,,,,,,,,,,,,,,,,,
,6031b3c2a11bc814414d458d,001,2022-04-29_04h53.30.449,classification_task,2021.2.3,Win32,144.7387466,6031b3c2a11bc814414d458d,626b377229c10585ec392f8a,626b4db54e61b95f6aa1286c,,,,,,,,,,,,,,,,,,,,,,,l,1,"[""0.051"",""0.415"",""0.736"",""0.786""]","[1,1,0,1]",0,47,47,47,1,1,0,,,0,FALSE,0.7623,,,,,,,,,,,,,,,,,,,,,,,,,,,,,,
,6031b3c2a11bc814414d458d,001,2022-04-29_04h53.30.449,classification_task,2021.2.3,Win32,144.7387466,6031b3c2a11bc814414d458d,626b377229c10585ec392f8a,626b4db54e61b95f6aa1286c,,,,,,,,,,,,,,,,,,,,,,,l,1,"[""0.051"",""0.415"",""0.737"",""0.786""]","[1,1,0,1]",0,48,48,48,1,1,0,,,0,FALSE,0.8947,,,,,,,,,,,,,,,,,,,,,,,,,,,,,,
,6031b3c2a11bc814414d458d,001,2022-04-29_04h53.30.449,classification_task,2021.2.3,Win32,144.7387466,6031b3c2a11bc814414d458d,626b377229c10585ec392f8a,626b4db54e61b95f6aa1286c,,,,,,,,,,,,,,,,,,,,,,,a,1,"[""0.188"",""0.509"",""0.607"",""0.738""]","[1,1,1,0]",0,49,49,49,1,0,0,,,0,FALSE,0.9249,,,,,,,,,,,,,,,,,,,,,,,,,,,,,,
,6031b3c2a11bc814414d458d,001,2022-04-29_04h53.30.449,classification_task,2021.2.3,Win32,144.7387466,6031b3c2a11bc814414d458d,626b377229c10585ec392f8a,626b4db54e61b95f6aa1286c,,,,,,,,,,,,,,,,,,,,,,,a,1,"[""0.324"",""0.738"",""0.676"",""0.870""]","[1,0,1,1]",0,50,50,50,1,0,1,,,0,FALSE,1.5025,,,,,,,,,,,,,,,,,,,,,,,,,,,,,,
,6031b3c2a11bc814414d458d,001,2022-04-29_04h53.30.449,classification_task,2021.2.3,Win32,144.7387466,6031b3c2a11bc814414d458d,626b377229c10585ec392f8a,626b4db54e61b95f6aa1286c,,,,,,,,,,,,,,,,,,,,,,,a,1,"[""0.719"",""0.363"",""0.676"",""0.870""]","[0,1,1,1]",0,51,51,51,1,0,1,,,0,FALSE,0.9303,,,,,,,,,,,,,,,,,,,,,,,,,,,,,,
,6031b3c2a11bc814414d458d,001,2022-04-29_04h53.30.449,classification_task,2021.2.3,Win32,144.7387466,6031b3c2a11bc814414d458d,626b377229c10585ec392f8a,626b4db54e61b95f6aa1286c,,,,,,,,,,,,,,,,,,,,,,,a,1,"[""0.188"",""0.509"",""0.285"",""0.943""]","[1,1,0,1]",0,52,52,52,1,0,0,,,0,FALSE,1.1235,,,,,,,,,,,,,,,,,,,,,,,,,,,,,,
,6031b3c2a11bc814414d458d,001,2022-04-29_04h53.30.449,classification_task,2021.2.3,Win32,144.7387466,6031b3c2a11bc814414d458d,626b377229c10585ec392f8a,626b4db54e61b95f6aa1286c,,,,,,,,,,,,,,,,,,,,,,,l,1,"[""0.149"",""0.236"",""0.736"",""0.825""]","[1,1,0,1]",0,53,53,53,1,1,1,,,0,FALSE,0.9417,,,,,,,,,,,,,,,,,,,,,,,,,,,,,,
,6031b3c2a11bc814414d458d,001,2022-04-29_04h53.30.449,classification_task,2021.2.3,Win32,144.7387466,6031b3c2a11bc814414d458d,626b377229c10585ec392f8a,626b4db54e61b95f6aa1286c,,,,,,,,,,,,,,,,,,,,,,,l,1,"[""0.149"",""0.236"",""0.463"",""0.736""]","[1,1,1,0]",0,54,54,54,1,1,1,,,0,FALSE,0.665,,,,,,,,,,,,,,,,,,,,,,,,,,,,,,
,6031b3c2a11bc814414d458d,001,2022-04-29_04h53.30.449,classification_task,2021.2.3,Win32,144.7387466,6031b3c2a11bc814414d458d,626b377229c10585ec392f8a,626b4db54e61b95f6aa1286c,,,,,,,,,,,,,,,,,,,,,,,l,1,"[""0.051"",""0.415"",""0.549"",""0.719""]","[1,1,1,0]",0,55,55,55,1,1,0,,,0,FALSE,0.9472,,,,,,,,,,,,,,,,,,,,,,,,,,,,,,
,6031b3c2a11bc814414d458d,001,2022-04-29_04h53.30.449,classification_task,2021.2.3,Win32,144.7387466,6031b3c2a11bc814414d458d,626b377229c10585ec392f8a,626b4db54e61b95f6aa1286c,,,,,,,,,,,,,,,,,,,,,,,a,0,"[""0.051"",""0.285"",""0.549"",""0.786""]","[1,0,1,1]",0,56,56,56,1,1,0,,,0,FALSE,1.2294,,,,,,,,,,,,,,,,,,,,,,,,,,,,,,
,6031b3c2a11bc814414d458d,001,2022-04-29_04h53.30.449,classification_task,2021.2.3,Win32,144.7387466,6031b3c2a11bc814414d458d,626b377229c10585ec392f8a,626b4db54e61b95f6aa1286c,,,,,,,,,,,,,,,,,,,,,,,a,0,"[""0.149"",""0.729"",""0.463"",""0.825""]","[1,0,1,1]",0,57,57,57,1,1,1,,,0,FALSE,1.1811,,,,,,,,,,,,,,,,,,,,,,,,,,,,,,
,6031b3c2a11bc814414d458d,001,2022-04-29_04h53.30.449,classification_task,2021.2.3,Win32,144.7387466,6031b3c2a11bc814414d458d,626b377229c10585ec392f8a,626b4db54e61b95f6aa1286c,,,,,,,,,,,,,,,,,,,,,,,l,1,"[""0.092"",""0.236"",""0.463"",""0.825""]","[0,1,1,1]",0,58,58,58,1,1,1,,,0,FALSE,0.761,,,,,,,,,,,,,,,,,,,,,,,,,,,,,,
,6031b3c2a11bc814414d458d,001,2022-04-29_04h53.30.449,classification_task,2021.2.3,Win32,144.7387466,6031b3c2a11bc814414d458d,626b377229c10585ec392f8a,626b4db54e61b95f6aa1286c,,,,,,,,,,,,,,,,,,,,,,,a,1,"[""0.324"",""0.363"",""0.744"",""0.870""]","[1,1,0,1]",0,59,59,59,1,0,1,,,0,FALSE,1.4998,,,,,,,,,,,,,,,,,,,,,,,,,,,,,,
,6031b3c2a11bc814414d458d,001,2022-04-29_04h53.30.449,classification_task,2021.2.3,Win32,144.7387466,6031b3c2a11bc814414d458d,626b377229c10585ec392f8a,626b4db54e61b95f6aa1286c,,,,,,,,,,,,,,,,,,,,,,,a,1,"[""0.188"",""0.107"",""0.607"",""0.943""]","[1,0,1,1]",0,60,60,60,1,0,0,,,0,FALSE,1.4241,,,,,,,,,,,,,,,,,,,,,,,,,,,,,,
,6031b3c2a11bc814414d458d,001,2022-04-29_04h53.30.449,classification_task,2021.2.3,Win32,144.7387466,6031b3c2a11bc814414d458d,626b377229c10585ec392f8a,626b4db54e61b95f6aa1286c,,,,,,,,,,,,,,,,,,,,,,,a,1,"[""0.736"",""0.509"",""0.607"",""0.943""]","[0,1,1,1]",0,61,61,61,1,0,0,,,0,FALSE,1.198,,,,,,,,,,,,,,,,,,,,,,,,,,,,,,
,6031b3c2a11bc814414d458d,001,2022-04-29_04h53.30.449,classification_task,2021.2.3,Win32,144.7387466,6031b3c2a11bc814414d458d,626b377229c10585ec392f8a,626b4db54e61b95f6aa1286c,,,,,,,,,,,,,,,,,,,,,,,a,0,"[""0.749"",""0.415"",""0.549"",""0.786""]","[0,1,1,1]",0,62,62,62,1,1,0,,,0,FALSE,0.6567,,,,,,,,,,,,,,,,,,,,,,,,,,,,,,
,6031b3c2a11bc814414d458d,001,2022-04-29_04h53.30.449,classification_task,2021.2.3,Win32,144.7387466,6031b3c2a11bc814414d458d,626b377229c10585ec392f8a,626b4db54e61b95f6aa1286c,,,,,,,,,,,,,,,,,,,,,,,l,0,"[""0.324"",""0.363"",""0.676"",""0.107""]","[1,1,1,0]",0,63,63,63,1,0,1,,,0,FALSE,1.3254,,,,,,,,,,,,,,,,,,,,,,,,,,,,,,
,6031b3c2a11bc814414d458d,001,2022-04-29_04h53.30.449,classification_task,2021.2.3,Win32,144.7387466,6031b3c2a11bc814414d458d,626b377229c10585ec392f8a,626b4db54e61b95f6aa1286c,,,,,,,,,,,,,,,,,,,,,,,,,,,,,,,,,,,,,,,0, ,,0,2.18302959,457.2918,0,0,0,0,1,2,1,,,,,,,,,,,,,,,,,
,6031b3c2a11bc814414d458d,001,2022-04-29_04h53.30.449,classification_task,2021.2.3,Win32,144.7387466,6031b3c2a11bc814414d458d,626b377229c10585ec392f8a,626b4db54e61b95f6aa1286c,,,,,,,,,,,,,,,,,,,,,,,,,,,,,,,,,,,,,,,1,  ,,0,8.233392122,478.3513,0,0,0,0,1,2,1,,,,,,,,,,,,,,,,,
,6031b3c2a11bc814414d458d,001,2022-04-29_04h53.30.449,classification_task,2021.2.3,Win32,144.7387466,6031b3c2a11bc814414d458d,626b377229c10585ec392f8a,626b4db54e61b95f6aa1286c,,,,,,,,,,,,,,,,,,,,,,,,,,,,,,,,,,,,,,,2,  ,,0,1.840094062,490.5249,0,0,0,0,1,2,1,,,,,,,,,,,,,,,,,
,6031b3c2a11bc814414d458d,001,2022-04-29_04h53.30.449,classification_task,2021.2.3,Win32,144.7387466,6031b3c2a11bc814414d458d,626b377229c10585ec392f8a,626b4db54e61b95f6aa1286c,,,,,,,,,,,,,,,,,,,,,,,,,,,,,,,,,,,,,,,,,,,,,0,0,0,0,1,,1,,,,,,,,,,,,,,,,,
,6031b3c2a11bc814414d458d,001,2022-04-29_04h53.30.449,classification_task,2021.2.3,Win32,144.7387466,6031b3c2a11bc814414d458d,626b377229c10585ec392f8a,626b4db54e61b95f6aa1286c,,,,,,,,,,,,,,,,,,,,,space,8.9791,l,0,"[""0.744"",""0.509"",""0.607"",""0.943""]","[0,1,1,1]",0,0,0,0,1,0,0,,,0,FALSE,2.7589,,,,,,,,,,,,,,,,,,,,,,,,,,,,,,
,6031b3c2a11bc814414d458d,001,2022-04-29_04h53.30.449,classification_task,2021.2.3,Win32,144.7387466,6031b3c2a11bc814414d458d,626b377229c10585ec392f8a,626b4db54e61b95f6aa1286c,,,,,,,,,,,,,,,,,,,,,,,a,1,"[""0.188"",""0.509"",""0.607"",""0.275""]","[1,1,1,0]",0,1,1,1,1,0,0,,,0,FALSE,1.7531,,,,,,,,,,,,,,,,,,,,,,,,,,,,,,
,6031b3c2a11bc814414d458d,001,2022-04-29_04h53.30.449,classification_task,2021.2.3,Win32,144.7387466,6031b3c2a11bc814414d458d,626b377229c10585ec392f8a,626b4db54e61b95f6aa1286c,,,,,,,,,,,,,,,,,,,,,,,l,1,"[""0.723"",""0.415"",""0.549"",""0.786""]","[0,1,1,1]",0,2,2,2,1,1,0,,,0,FALSE,0.6193,,,,,,,,,,,,,,,,,,,,,,,,,,,,,,
,6031b3c2a11bc814414d458d,001,2022-04-29_04h53.30.449,classification_task,2021.2.3,Win32,144.7387466,6031b3c2a11bc814414d458d,626b377229c10585ec392f8a,626b4db54e61b95f6aa1286c,,,,,,,,,,,,,,,,,,,,,,,a,1,"[""0.188"",""0.509"",""0.107"",""0.943""]","[1,1,0,1]",0,3,3,3,1,0,0,,,0,FALSE,1.3698,,,,,,,,,,,,,,,,,,,,,,,,,,,,,,
,6031b3c2a11bc814414d458d,001,2022-04-29_04h53.30.449,classification_task,2021.2.3,Win32,144.7387466,6031b3c2a11bc814414d458d,626b377229c10585ec392f8a,626b4db54e61b95f6aa1286c,,,,,,,,,,,,,,,,,,,,,,,a,0,"[""0.051"",""0.415"",""0.736"",""0.786""]","[1,1,0,1]",0,4,4,4,1,1,0,,,0,FALSE,1.8608,,,,,,,,,,,,,,,,,,,,,,,,,,,,,,
,6031b3c2a11bc814414d458d,001,2022-04-29_04h53.30.449,classification_task,2021.2.3,Win32,144.7387466,6031b3c2a11bc814414d458d,626b377229c10585ec392f8a,626b4db54e61b95f6aa1286c,,,,,,,,,,,,,,,,,,,,,,,l,0,"[""0.744"",""0.363"",""0.676"",""0.870""]","[0,1,1,1]",0,5,5,5,1,0,1,,,0,FALSE,0.8319,,,,,,,,,,,,,,,,,,,,,,,,,,,,,,
,6031b3c2a11bc814414d458d,001,2022-04-29_04h53.30.449,classification_task,2021.2.3,Win32,144.7387466,6031b3c2a11bc814414d458d,626b377229c10585ec392f8a,626b4db54e61b95f6aa1286c,,,,,,,,,,,,,,,,,,,,,,,l,1,"[""0.051"",""0.415"",""0.549"",""0.737""]","[1,1,1,0]",0,6,6,6,1,1,0,,,0,FALSE,3.8553,,,,,,,,,,,,,,,,,,,,,,,,,,,,,,
,6031b3c2a11bc814414d458d,001,2022-04-29_04h53.30.449,classification_task,2021.2.3,Win32,144.7387466,6031b3c2a11bc814414d458d,626b377229c10585ec392f8a,626b4db54e61b95f6aa1286c,,,,,,,,,,,,,,,,,,,,,,,a,0,"[""0.149"",""0.236"",""0.744"",""0.825""]","[1,1,0,1]",0,7,7,7,1,1,1,,,0,FALSE,1.2693,,,,,,,,,,,,,,,,,,,,,,,,,,,,,,
,6031b3c2a11bc814414d458d,001,2022-04-29_04h53.30.449,classification_task,2021.2.3,Win32,144.7387466,6031b3c2a11bc814414d458d,626b377229c10585ec392f8a,626b4db54e61b95f6aa1286c,,,,,,,,,,,,,,,,,,,,,,,a,1,"[""0.324"",""0.363"",""0.719"",""0.870""]","[1,1,0,1]",0,8,8,8,1,0,1,,,0,FALSE,0.8347,,,,,,,,,,,,,,,,,,,,,,,,,,,,,,
,6031b3c2a11bc814414d458d,001,2022-04-29_04h53.30.449,classification_task,2021.2.3,Win32,144.7387466,6031b3c2a11bc814414d458d,626b377229c10585ec392f8a,626b4db54e61b95f6aa1286c,,,,,,,,,,,,,,,,,,,,,,,a,0,"[""0.149"",""0.236"",""0.463"",""0.092""]","[1,1,1,0]",0,9,9,9,1,1,1,,,0,FALSE,1.6312,,,,,,,,,,,,,,,,,,,,,,,,,,,,,,
,6031b3c2a11bc814414d458d,001,2022-04-29_04h53.30.449,classification_task,2021.2.3,Win32,144.7387466,6031b3c2a11bc814414d458d,626b377229c10585ec392f8a,626b4db54e61b95f6aa1286c,,,,,,,,,,,,,,,,,,,,,,,l,1,"[""0.051"",""0.736"",""0.549"",""0.786""]","[1,0,1,1]",0,10,10,10,1,1,0,,,0,FALSE,1.0102,,,,,,,,,,,,,,,,,,,,,,,,,,,,,,
,6031b3c2a11bc814414d458d,001,2022-04-29_04h53.30.449,classification_task,2021.2.3,Win32,144.7387466,6031b3c2a11bc814414d458d,626b377229c10585ec392f8a,626b4db54e61b95f6aa1286c,,,,,,,,,,,,,,,,,,,,,,,l,0,"[""0.188"",""0.275"",""0.607"",""0.943""]","[1,0,1,1]",0,11,11,11,1,0,0,,,0,FALSE,1.301,,,,,,,,,,,,,,,,,,,,,,,,,,,,,,
,6031b3c2a11bc814414d458d,001,2022-04-29_04h53.30.449,classification_task,2021.2.3,Win32,144.7387466,6031b3c2a11bc814414d458d,626b377229c10585ec392f8a,626b4db54e61b95f6aa1286c,,,,,,,,,,,,,,,,,,,,,,,a,1,"[""0.324"",""0.363"",""0.676"",""0.092""]","[1,1,1,0]",0,12,12,12,1,0,1,,,0,FALSE,1.5925,,,,,,,,,,,,,,,,,,,,,,,,,,,,,,
,6031b3c2a11bc814414d458d,001,2022-04-29_04h53.30.449,classification_task,2021.2.3,Win32,144.7387466,6031b3c2a11bc814414d458d,626b377229c10585ec392f8a,626b4db54e61b95f6aa1286c,,,,,,,,,,,,,,,,,,,,,,,l,1,"[""0.149"",""0.738"",""0.463"",""0.825""]","[1,0,1,1]",0,13,13,13,1,1,1,,,0,FALSE,1.2006,,,,,,,,,,,,,,,,,,,,,,,,,,,,,,
,6031b3c2a11bc814414d458d,001,2022-04-29_04h53.30.449,classification_task,2021.2.3,Win32,144.7387466,6031b3c2a11bc814414d458d,626b377229c10585ec392f8a,626b4db54e61b95f6aa1286c,,,,,,,,,,,,,,,,,,,,,,,l,1,"[""0.719"",""0.236"",""0.463"",""0.825""]","[0,1,1,1]",0,14,14,14,1,1,1,,,0,FALSE,1.4348,,,,,,,,,,,,,,,,,,,,,,,,,,,,,,
,6031b3c2a11bc814414d458d,001,2022-04-29_04h53.30.449,classification_task,2021.2.3,Win32,144.7387466,6031b3c2a11bc814414d458d,626b377229c10585ec392f8a,626b4db54e61b95f6aa1286c,,,,,,,,,,,,,,,,,,,,,,,a,1,"[""0.324"",""0.092"",""0.676"",""0.870""]","[1,0,1,1]",0,15,15,15,1,0,1,,,0,FALSE,0.98,,,,,,,,,,,,,,,,,,,,,,,,,,,,,,
,6031b3c2a11bc814414d458d,001,2022-04-29_04h53.30.449,classification_task,2021.2.3,Win32,144.7387466,6031b3c2a11bc814414d458d,626b377229c10585ec392f8a,626b4db54e61b95f6aa1286c,,,,,,,,,,,,,,,,,,,,,,,a,1,"[""0.324"",""0.363"",""0.676"",""0.736""]","[1,1,1,0]",0,16,16,16,1,0,1,,,0,FALSE,0.8745,,,,,,,,,,,,,,,,,,,,,,,,,,,,,,
,6031b3c2a11bc814414d458d,001,2022-04-29_04h53.30.449,classification_task,2021.2.3,Win32,144.7387466,6031b3c2a11bc814414d458d,626b377229c10585ec392f8a,626b4db54e61b95f6aa1286c,,,,,,,,,,,,,,,,,,,,,,,a,0,"[""0.736"",""0.236"",""0.463"",""0.825""]","[0,1,1,1]",0,17,17,17,1,1,1,,,0,FALSE,0.8826,,,,,,,,,,,,,,,,,,,,,,,,,,,,,,
,6031b3c2a11bc814414d458d,001,2022-04-29_04h53.30.449,classification_task,2021.2.3,Win32,144.7387466,6031b3c2a11bc814414d458d,626b377229c10585ec392f8a,626b4db54e61b95f6aa1286c,,,,,,,,,,,,,,,,,,,,,,,l,1,"[""0.149"",""0.236"",""0.275"",""0.825""]","[1,1,0,1]",0,18,18,18,1,1,1,,,0,FALSE,1.4431,,,,,,,,,,,,,,,,,,,,,,,,,,,,,,
,6031b3c2a11bc814414d458d,001,2022-04-29_04h53.30.449,classification_task,2021.2.3,Win32,144.7387466,6031b3c2a11bc814414d458d,626b377229c10585ec392f8a,626b4db54e61b95f6aa1286c,,,,,,,,,,,,,,,,,,,,,,,a,0,"[""0.149"",""0.236"",""0.463"",""0.738""]","[1,1,1,0]",0,19,19,19,1,1,1,,,0,FALSE,1.2392,,,,,,,,,,,,,,,,,,,,,,,,,,,,,,
,6031b3c2a11bc814414d458d,001,2022-04-29_04h53.30.449,classification_task,2021.2.3,Win32,144.7387466,6031b3c2a11bc814414d458d,626b377229c10585ec392f8a,626b4db54e61b95f6aa1286c,,,,,,,,,,,,,,,,,,,,,,,l,0,"[""0.324"",""0.275"",""0.676"",""0.870""]","[1,0,1,1]",0,20,20,20,1,0,1,,,0,FALSE,0.8212,,,,,,,,,,,,,,,,,,,,,,,,,,,,,,
,6031b3c2a11bc814414d458d,001,2022-04-29_04h53.30.449,classification_task,2021.2.3,Win32,144.7387466,6031b3c2a11bc814414d458d,626b377229c10585ec392f8a,626b4db54e61b95f6aa1286c,,,,,,,,,,,,,,,,,,,,,,,l,1,"[""0.051"",""0.415"",""0.736"",""0.786""]","[1,1,0,1]",0,21,21,21,1,1,0,,,0,FALSE,1.0027,,,,,,,,,,,,,,,,,,,,,,,,,,,,,,
,6031b3c2a11bc814414d458d,001,2022-04-29_04h53.30.449,classification_task,2021.2.3,Win32,144.7387466,6031b3c2a11bc814414d458d,626b377229c10585ec392f8a,626b4db54e61b95f6aa1286c,,,,,,,,,,,,,,,,,,,,,,,a,0,"[""0.051"",""0.275"",""0.549"",""0.786""]","[1,0,1,1]",0,22,22,22,1,1,0,,,0,FALSE,1.2712,,,,,,,,,,,,,,,,,,,,,,,,,,,,,,
,6031b3c2a11bc814414d458d,001,2022-04-29_04h53.30.449,classification_task,2021.2.3,Win32,144.7387466,6031b3c2a11bc814414d458d,626b377229c10585ec392f8a,626b4db54e61b95f6aa1286c,,,,,,,,,,,,,,,,,,,,,,,a,0,"[""0.149"",""0.285"",""0.463"",""0.825""]","[1,0,1,1]",0,23,23,23,1,1,1,,,0,FALSE,1.621,,,,,,,,,,,,,,,,,,,,,,,,,,,,,,
,6031b3c2a11bc814414d458d,001,2022-04-29_04h53.30.449,classification_task,2021.2.3,Win32,144.7387466,6031b3c2a11bc814414d458d,626b377229c10585ec392f8a,626b4db54e61b95f6aa1286c,,,,,,,,,,,,,,,,,,,,,,,l,0,"[""0.188"",""0.509"",""0.092"",""0.943""]","[1,1,0,1]",0,24,24,24,1,0,0,,,0,FALSE,1.7781,,,,,,,,,,,,,,,,,,,,,,,,,,,,,,
,6031b3c2a11bc814414d458d,001,2022-04-29_04h53.30.449,classification_task,2021.2.3,Win32,144.7387466,6031b3c2a11bc814414d458d,626b377229c10585ec392f8a,626b4db54e61b95f6aa1286c,,,,,,,,,,,,,,,,,,,,,,,l,1,"[""0.051"",""0.415"",""0.549"",""0.729""]","[1,1,1,0]",0,25,25,25,1,1,0,,,0,FALSE,1.1706,,,,,,,,,,,,,,,,,,,,,,,,,,,,,,
,6031b3c2a11bc814414d458d,001,2022-04-29_04h53.30.449,classification_task,2021.2.3,Win32,144.7387466,6031b3c2a11bc814414d458d,626b377229c10585ec392f8a,626b4db54e61b95f6aa1286c,,,,,,,,,,,,,,,,,,,,,,,a,1,"[""0.188"",""0.509"",""0.607"",""0.723""]","[1,1,1,0]",0,26,26,26,1,0,0,,,0,FALSE,1.0297,,,,,,,,,,,,,,,,,,,,,,,,,,,,,,
,6031b3c2a11bc814414d458d,001,2022-04-29_04h53.30.449,classification_task,2021.2.3,Win32,144.7387466,6031b3c2a11bc814414d458d,626b377229c10585ec392f8a,626b4db54e61b95f6aa1286c,,,,,,,,,,,,,,,,,,,,,,,a,1,"[""0.188"",""0.736"",""0.607"",""0.943""]","[1,0,1,1]",0,27,27,27,1,0,0,,,0,FALSE,1.1662,,,,,,,,,,,,,,,,,,,,,,,,,,,,,,
,6031b3c2a11bc814414d458d,001,2022-04-29_04h53.30.449,classification_task,2021.2.3,Win32,144.7387466,6031b3c2a11bc814414d458d,626b377229c10585ec392f8a,626b4db54e61b95f6aa1286c,,,,,,,,,,,,,,,,,,,,,,,l,0,"[""0.324"",""0.363"",""0.092"",""0.870""]","[1,1,0,1]",0,28,28,28,1,0,1,,,0,FALSE,1.3196,,,,,,,,,,,,,,,,,,,,,,,,,,,,,,
,6031b3c2a11bc814414d458d,001,2022-04-29_04h53.30.449,classification_task,2021.2.3,Win32,144.7387466,6031b3c2a11bc814414d458d,626b377229c10585ec392f8a,626b4db54e61b95f6aa1286c,,,,,,,,,,,,,,,,,,,,,,,l,0,"[""0.744"",""0.363"",""0.676"",""0.870""]","[0,1,1,1]",0,29,29,29,1,0,1,,,0,FALSE,0.8123,,,,,,,,,,,,,,,,,,,,,,,,,,,,,,
,6031b3c2a11bc814414d458d,001,2022-04-29_04h53.30.449,classification_task,2021.2.3,Win32,144.7387466,6031b3c2a11bc814414d458d,626b377229c10585ec392f8a,626b4db54e61b95f6aa1286c,,,,,,,,,,,,,,,,,,,,,,,a,0,"[""0.738"",""0.415"",""0.549"",""0.786""]","[0,1,1,1]",0,30,30,30,1,1,0,,,0,FALSE,0.8983,,,,,,,,,,,,,,,,,,,,,,,,,,,,,,
,6031b3c2a11bc814414d458d,001,2022-04-29_04h53.30.449,classification_task,2021.2.3,Win32,144.7387466,6031b3c2a11bc814414d458d,626b377229c10585ec392f8a,626b4db54e61b95f6aa1286c,,,,,,,,,,,,,,,,,,,,,,,l,0,"[""0.737"",""0.509"",""0.607"",""0.943""]","[0,1,1,1]",0,31,31,31,1,0,0,,,0,FALSE,1.3128,,,,,,,,,,,,,,,,,,,,,,,,,,,,,,
,6031b3c2a11bc814414d458d,001,2022-04-29_04h53.30.449,classification_task,2021.2.3,Win32,144.7387466,6031b3c2a11bc814414d458d,626b377229c10585ec392f8a,626b4db54e61b95f6aa1286c,,,,,,,,,,,,,,,,,,,,,,,a,1,"[""0.188"",""0.509"",""0.607"",""0.736""]","[1,1,1,0]",0,32,32,32,1,0,0,,,0,FALSE,1.3684,,,,,,,,,,,,,,,,,,,,,,,,,,,,,,
,6031b3c2a11bc814414d458d,001,2022-04-29_04h53.30.449,classification_task,2021.2.3,Win32,144.7387466,6031b3c2a11bc814414d458d,626b377229c10585ec392f8a,626b4db54e61b95f6aa1286c,,,,,,,,,,,,,,,,,,,,,,,a,0,"[""0.729"",""0.415"",""0.549"",""0.786""]","[0,1,1,1]",0,33,33,33,1,1,0,,,0,FALSE,1.0055,,,,,,,,,,,,,,,,,,,,,,,,,,,,,,
,6031b3c2a11bc814414d458d,001,2022-04-29_04h53.30.449,classification_task,2021.2.3,Win32,144.7387466,6031b3c2a11bc814414d458d,626b377229c10585ec392f8a,626b4db54e61b95f6aa1286c,,,,,,,,,,,,,,,,,,,,,,,l,1,"[""0.149"",""0.738"",""0.463"",""0.825""]","[1,0,1,1]",0,34,34,34,1,1,1,,,0,FALSE,1.3471,,,,,,,,,,,,,,,,,,,,,,,,,,,,,,
,6031b3c2a11bc814414d458d,001,2022-04-29_04h53.30.449,classification_task,2021.2.3,Win32,144.7387466,6031b3c2a11bc814414d458d,626b377229c10585ec392f8a,626b4db54e61b95f6aa1286c,,,,,,,,,,,,,,,,,,,,,,,l,0,"[""0.188"",""0.107"",""0.607"",""0.943""]","[1,0,1,1]",0,35,35,35,1,0,0,,,0,FALSE,1.2781,,,,,,,,,,,,,,,,,,,,,,,,,,,,,,
,6031b3c2a11bc814414d458d,001,2022-04-29_04h53.30.449,classification_task,2021.2.3,Win32,144.7387466,6031b3c2a11bc814414d458d,626b377229c10585ec392f8a,626b4db54e61b95f6aa1286c,,,,,,,,,,,,,,,,,,,,,,,a,1,"[""0.188"",""0.509"",""0.092"",""0.943""]","[1,1,0,1]",0,36,36,36,1,0,0,,,0,FALSE,0.9376,,,,,,,,,,,,,,,,,,,,,,,,,,,,,,
,6031b3c2a11bc814414d458d,001,2022-04-29_04h53.30.449,classification_task,2021.2.3,Win32,144.7387466,6031b3c2a11bc814414d458d,626b377229c10585ec392f8a,626b4db54e61b95f6aa1286c,,,,,,,,,,,,,,,,,,,,,,,l,0,"[""0.324"",""0.363"",""0.092"",""0.870""]","[1,1,0,1]",0,37,37,37,1,0,1,,,0,FALSE,1.8399,,,,,,,,,,,,,,,,,,,,,,,,,,,,,,
,6031b3c2a11bc814414d458d,001,2022-04-29_04h53.30.449,classification_task,2021.2.3,Win32,144.7387466,6031b3c2a11bc814414d458d,626b377229c10585ec392f8a,626b4db54e61b95f6aa1286c,,,,,,,,,,,,,,,,,,,,,,,l,1,"[""0.051"",""0.275"",""0.549"",""0.786""]","[1,0,1,1]",0,38,38,38,1,1,0,,,0,FALSE,1.0053,,,,,,,,,,,,,,,,,,,,,,,,,,,,,,
,6031b3c2a11bc814414d458d,001,2022-04-29_04h53.30.449,classification_task,2021.2.3,Win32,144.7387466,6031b3c2a11bc814414d458d,626b377229c10585ec392f8a,626b4db54e61b95f6aa1286c,,,,,,,,,,,,,,,,,,,,,,,l,0,"[""0.738"",""0.363"",""0.676"",""0.870""]","[0,1,1,1]",0,39,39,39,1,0,1,,,0,FALSE,1.3687,,,,,,,,,,,,,,,,,,,,,,,,,,,,,,
,6031b3c2a11bc814414d458d,001,2022-04-29_04h53.30.449,classification_task,2021.2.3,Win32,144.7387466,6031b3c2a11bc814414d458d,626b377229c10585ec392f8a,626b4db54e61b95f6aa1286c,,,,,,,,,,,,,,,,,,,,,,,a,0,"[""0.051"",""0.415"",""0.549"",""0.107""]","[1,1,1,0]",0,40,40,40,1,1,0,,,0,FALSE,1.3705,,,,,,,,,,,,,,,,,,,,,,,,,,,,,,
,6031b3c2a11bc814414d458d,001,2022-04-29_04h53.30.449,classification_task,2021.2.3,Win32,144.7387466,6031b3c2a11bc814414d458d,626b377229c10585ec392f8a,626b4db54e61b95f6aa1286c,,,,,,,,,,,,,,,,,,,,,,,a,1,"[""0.324"",""0.363"",""0.676"",""0.749""]","[1,1,1,0]",0,41,41,41,1,0,1,,,0,FALSE,1.0862,,,,,,,,,,,,,,,,,,,,,,,,,,,,,,
,6031b3c2a11bc814414d458d,001,2022-04-29_04h53.30.449,classification_task,2021.2.3,Win32,144.7387466,6031b3c2a11bc814414d458d,626b377229c10585ec392f8a,626b4db54e61b95f6aa1286c,,,,,,,,,,,,,,,,,,,,,,,a,0,"[""0.149"",""0.236"",""0.463"",""0.275""]","[1,1,1,0]",0,42,42,42,1,1,1,,,0,FALSE,1.0881,,,,,,,,,,,,,,,,,,,,,,,,,,,,,,
,6031b3c2a11bc814414d458d,001,2022-04-29_04h53.30.449,classification_task,2021.2.3,Win32,144.7387466,6031b3c2a11bc814414d458d,626b377229c10585ec392f8a,626b4db54e61b95f6aa1286c,,,,,,,,,,,,,,,,,,,,,,,l,1,"[""0.149"",""0.236"",""0.749"",""0.825""]","[1,1,0,1]",0,43,43,43,1,1,1,,,0,FALSE,0.7928,,,,,,,,,,,,,,,,,,,,,,,,,,,,,,
,6031b3c2a11bc814414d458d,001,2022-04-29_04h53.30.449,classification_task,2021.2.3,Win32,144.7387466,6031b3c2a11bc814414d458d,626b377229c10585ec392f8a,626b4db54e61b95f6aa1286c,,,,,,,,,,,,,,,,,,,,,,,l,0,"[""0.285"",""0.509"",""0.607"",""0.943""]","[0,1,1,1]",0,44,44,44,1,0,0,,,0,FALSE,1.2693,,,,,,,,,,,,,,,,,,,,,,,,,,,,,,
,6031b3c2a11bc814414d458d,001,2022-04-29_04h53.30.449,classification_task,2021.2.3,Win32,144.7387466,6031b3c2a11bc814414d458d,626b377229c10585ec392f8a,626b4db54e61b95f6aa1286c,,,,,,,,,,,,,,,,,,,,,,,l,1,"[""0.051"",""0.415"",""0.719"",""0.786""]","[1,1,0,1]",0,45,45,45,1,1,0,,,0,FALSE,0.9626,,,,,,,,,,,,,,,,,,,,,,,,,,,,,,
,6031b3c2a11bc814414d458d,001,2022-04-29_04h53.30.449,classification_task,2021.2.3,Win32,144.7387466,6031b3c2a11bc814414d458d,626b377229c10585ec392f8a,626b4db54e61b95f6aa1286c,,,,,,,,,,,,,,,,,,,,,,,a,0,"[""0.744"",""0.236"",""0.463"",""0.825""]","[0,1,1,1]",0,46,46,46,1,1,1,,,0,FALSE,1.0528,,,,,,,,,,,,,,,,,,,,,,,,,,,,,,
,6031b3c2a11bc814414d458d,001,2022-04-29_04h53.30.449,classification_task,2021.2.3,Win32,144.7387466,6031b3c2a11bc814414d458d,626b377229c10585ec392f8a,626b4db54e61b95f6aa1286c,,,,,,,,,,,,,,,,,,,,,,,a,1,"[""0.324"",""0.107"",""0.676"",""0.870""]","[1,0,1,1]",0,47,47,47,1,0,1,,,0,FALSE,1.1282,,,,,,,,,,,,,,,,,,,,,,,,,,,,,,
,6031b3c2a11bc814414d458d,001,2022-04-29_04h53.30.449,classification_task,2021.2.3,Win32,144.7387466,6031b3c2a11bc814414d458d,626b377229c10585ec392f8a,626b4db54e61b95f6aa1286c,,,,,,,,,,,,,,,,,,,,,,,l,1,"[""0.275"",""0.236"",""0.463"",""0.825""]","[0,1,1,1]",0,48,48,48,1,1,1,,,0,FALSE,1.0946,,,,,,,,,,,,,,,,,,,,,,,,,,,,,,
,6031b3c2a11bc814414d458d,001,2022-04-29_04h53.30.449,classification_task,2021.2.3,Win32,144.7387466,6031b3c2a11bc814414d458d,626b377229c10585ec392f8a,626b4db54e61b95f6aa1286c,,,,,,,,,,,,,,,,,,,,,,,a,0,"[""0.149"",""0.236"",""0.719"",""0.825""]","[1,1,0,1]",0,49,49,49,1,1,1,,,0,FALSE,1.2136,,,,,,,,,,,,,,,,,,,,,,,,,,,,,,
,6031b3c2a11bc814414d458d,001,2022-04-29_04h53.30.449,classification_task,2021.2.3,Win32,144.7387466,6031b3c2a11bc814414d458d,626b377229c10585ec392f8a,626b4db54e61b95f6aa1286c,,,,,,,,,,,,,,,,,,,,,,,a,1,"[""0.188"",""0.509"",""0.107"",""0.943""]","[1,1,0,1]",0,50,50,50,1,0,0,,,0,FALSE,1.0541,,,,,,,,,,,,,,,,,,,,,,,,,,,,,,
,6031b3c2a11bc814414d458d,001,2022-04-29_04h53.30.449,classification_task,2021.2.3,Win32,144.7387466,6031b3c2a11bc814414d458d,626b377229c10585ec392f8a,626b4db54e61b95f6aa1286c,,,,,,,,,,,,,,,,,,,,,,,a,1,"[""0.324"",""0.363"",""0.737"",""0.870""]","[1,1,0,1]",0,51,51,51,1,0,1,,,0,FALSE,1.5016,,,,,,,,,,,,,,,,,,,,,,,,,,,,,,
,6031b3c2a11bc814414d458d,001,2022-04-29_04h53.30.449,classification_task,2021.2.3,Win32,144.7387466,6031b3c2a11bc814414d458d,626b377229c10585ec392f8a,626b4db54e61b95f6aa1286c,,,,,,,,,,,,,,,,,,,,,,,l,0,"[""0.736"",""0.363"",""0.676"",""0.870""]","[0,1,1,1]",0,52,52,52,1,0,1,,,0,FALSE,1.2727,,,,,,,,,,,,,,,,,,,,,,,,,,,,,,
,6031b3c2a11bc814414d458d,001,2022-04-29_04h53.30.449,classification_task,2021.2.3,Win32,144.7387466,6031b3c2a11bc814414d458d,626b377229c10585ec392f8a,626b4db54e61b95f6aa1286c,,,,,,,,,,,,,,,,,,,,,,,a,0,"[""0.149"",""0.737"",""0.463"",""0.825""]","[1,0,1,1]",0,53,53,53,1,1,1,,,0,FALSE,0.8686,,,,,,,,,,,,,,,,,,,,,,,,,,,,,,
,6031b3c2a11bc814414d458d,001,2022-04-29_04h53.30.449,classification_task,2021.2.3,Win32,144.7387466,6031b3c2a11bc814414d458d,626b377229c10585ec392f8a,626b4db54e61b95f6aa1286c,,,,,,,,,,,,,,,,,,,,,,,a,1,"[""0.324"",""0.736"",""0.676"",""0.870""]","[1,0,1,1]",0,54,54,54,1,0,1,,,0,FALSE,0.8014,,,,,,,,,,,,,,,,,,,,,,,,,,,,,,
,6031b3c2a11bc814414d458d,001,2022-04-29_04h53.30.449,classification_task,2021.2.3,Win32,144.7387466,6031b3c2a11bc814414d458d,626b377229c10585ec392f8a,626b4db54e61b95f6aa1286c,,,,,,,,,,,,,,,,,,,,,,,l,0,"[""0.719"",""0.509"",""0.607"",""0.943""]","[0,1,1,1]",0,55,55,55,1,0,0,,,0,FALSE,1.3166,,,,,,,,,,,,,,,,,,,,,,,,,,,,,,
,6031b3c2a11bc814414d458d,001,2022-04-29_04h53.30.449,classification_task,2021.2.3,Win32,144.7387466,6031b3c2a11bc814414d458d,626b377229c10585ec392f8a,626b4db54e61b95f6aa1286c,,,,,,,,,,,,,,,,,,,,,,,a,1,"[""0.324"",""0.363"",""0.676"",""0.738""]","[1,1,1,0]",0,56,56,56,1,0,1,,,0,FALSE,0.9012,,,,,,,,,,,,,,,,,,,,,,,,,,,,,,
,6031b3c2a11bc814414d458d,001,2022-04-29_04h53.30.449,classification_task,2021.2.3,Win32,144.7387466,6031b3c2a11bc814414d458d,626b377229c10585ec392f8a,626b4db54e61b95f6aa1286c,,,,,,,,,,,,,,,,,,,,,,,l,1,"[""0.051"",""0.415"",""0.549"",""0.275""]","[1,1,1,0]",0,57,57,57,1,1,0,,,0,FALSE,3.1264,,,,,,,,,,,,,,,,,,,,,,,,,,,,,,
,6031b3c2a11bc814414d458d,001,2022-04-29_04h53.30.449,classification_task,2021.2.3,Win32,144.7387466,6031b3c2a11bc814414d458d,626b377229c10585ec392f8a,626b4db54e61b95f6aa1286c,,,,,,,,,,,,,,,,,,,,,,,l,1,"[""0.051"",""0.415"",""0.744"",""0.786""]","[1,1,0,1]",0,58,58,58,1,1,0,,,0,FALSE,1.0189,,,,,,,,,,,,,,,,,,,,,,,,,,,,,,
,6031b3c2a11bc814414d458d,001,2022-04-29_04h53.30.449,classification_task,2021.2.3,Win32,144.7387466,6031b3c2a11bc814414d458d,626b377229c10585ec392f8a,626b4db54e61b95f6aa1286c,,,,,,,,,,,,,,,,,,,,,,,l,1,"[""0.051"",""0.723"",""0.549"",""0.786""]","[1,0,1,1]",0,59,59,59,1,1,0,,,0,FALSE,0.8031,,,,,,,,,,,,,,,,,,,,,,,,,,,,,,
,6031b3c2a11bc814414d458d,001,2022-04-29_04h53.30.449,classification_task,2021.2.3,Win32,144.7387466,6031b3c2a11bc814414d458d,626b377229c10585ec392f8a,626b4db54e61b95f6aa1286c,,,,,,,,,,,,,,,,,,,,,,,l,0,"[""0.188"",""0.509"",""0.607"",""0.719""]","[1,1,1,0]",0,60,60,60,1,0,0,,,0,FALSE,0.7693,,,,,,,,,,,,,,,,,,,,,,,,,,,,,,
,6031b3c2a11bc814414d458d,001,2022-04-29_04h53.30.449,classification_task,2021.2.3,Win32,144.7387466,6031b3c2a11bc814414d458d,626b377229c10585ec392f8a,626b4db54e61b95f6aa1286c,,,,,,,,,,,,,,,,,,,,,,,l,1,"[""0.092"",""0.415"",""0.549"",""0.786""]","[0,1,1,1]",0,61,61,61,1,1,0,,,0,FALSE,1.161,,,,,,,,,,,,,,,,,,,,,,,,,,,,,,
,6031b3c2a11bc814414d458d,001,2022-04-29_04h53.30.449,classification_task,2021.2.3,Win32,144.7387466,6031b3c2a11bc814414d458d,626b377229c10585ec392f8a,626b4db54e61b95f6aa1286c,,,,,,,,,,,,,,,,,,,,,,,a,1,"[""0.188"",""0.736"",""0.607"",""0.943""]","[1,0,1,1]",0,62,62,62,1,0,0,,,0,FALSE,1.0044,,,,,,,,,,,,,,,,,,,,,,,,,,,,,,
,6031b3c2a11bc814414d458d,001,2022-04-29_04h53.30.449,classification_task,2021.2.3,Win32,144.7387466,6031b3c2a11bc814414d458d,626b377229c10585ec392f8a,626b4db54e61b95f6aa1286c,,,,,,,,,,,,,,,,,,,,,,,a,0,"[""0.149"",""0.236"",""0.463"",""0.275""]","[1,1,1,0]",0,63,63,63,1,1,1,,,0,FALSE,0.7592,,,,,,,,,,,,,,,,,,,,,,,,,,,,,,
,6031b3c2a11bc814414d458d,001,2022-04-29_04h53.30.449,classification_task,2021.2.3,Win32,144.7387466,6031b3c2a11bc814414d458d,626b377229c10585ec392f8a,626b4db54e61b95f6aa1286c,,,,,,,,,,,,,,,,,,,,,,,,,,,,,,,,,,,,,,,0, ,,0,1.37468156,168.9358,0,1,1,1,1,2,2,,,,,,,,,,,,,,,,,
,6031b3c2a11bc814414d458d,001,2022-04-29_04h53.30.449,classification_task,2021.2.3,Win32,144.7387466,6031b3c2a11bc814414d458d,626b377229c10585ec392f8a,626b4db54e61b95f6aa1286c,,,,,,,,,,,,,,,,,,,,,,,,,,,,,,,,,,,,,,,1,  ,,0,9.507152655,171.2114,0,1,1,1,1,2,2,,,,,,,,,,,,,,,,,
,6031b3c2a11bc814414d458d,001,2022-04-29_04h53.30.449,classification_task,2021.2.3,Win32,144.7387466,6031b3c2a11bc814414d458d,626b377229c10585ec392f8a,626b4db54e61b95f6aa1286c,,,,,,,,,,,,,,,,,,,,,,,,,,,,,,,,,,,,,,,2,  ,,0,0.541838134,173.3571,0,1,1,1,1,2,2,,,,,,,,,,,,,,,,,
,6031b3c2a11bc814414d458d,001,2022-04-29_04h53.30.449,classification_task,2021.2.3,Win32,144.7387466,6031b3c2a11bc814414d458d,626b377229c10585ec392f8a,626b4db54e61b95f6aa1286c,,,,,,,,,,,,,,,,,,,,,,,,,,,,,,,,,,,,,,,,,,,,,0,1,1,1,1,,2,,,,,,,,,,,,,,,,,
,6031b3c2a11bc814414d458d,001,2022-04-29_04h53.30.449,classification_task,2021.2.3,Win32,144.7387466,6031b3c2a11bc814414d458d,626b377229c10585ec392f8a,626b4db54e61b95f6aa1286c,,,,,,,,,,,,,,,,,,,,,space,1.7399,a,1,"[""0.275"",""0.363"",""0.676"",""0.870""]","[0,1,1,1]",0,0,0,0,1,0,1,,,0,FALSE,1.6756,,,,,,,,,,,,,,,,,,,,,,,,,,,,,,
,6031b3c2a11bc814414d458d,001,2022-04-29_04h53.30.449,classification_task,2021.2.3,Win32,144.7387466,6031b3c2a11bc814414d458d,626b377229c10585ec392f8a,626b4db54e61b95f6aa1286c,,,,,,,,,,,,,,,,,,,,,,,l,0,"[""0.324"",""0.363"",""0.744"",""0.870""]","[1,1,0,1]",0,1,1,1,1,0,1,,,0,FALSE,4.0418,,,,,,,,,,,,,,,,,,,,,,,,,,,,,,
,6031b3c2a11bc814414d458d,001,2022-04-29_04h53.30.449,classification_task,2021.2.3,Win32,144.7387466,6031b3c2a11bc814414d458d,626b377229c10585ec392f8a,626b4db54e61b95f6aa1286c,,,,,,,,,,,,,,,,,,,,,,,a,1,"[""0.188"",""0.749"",""0.607"",""0.943""]","[1,0,1,1]",0,2,2,2,1,0,0,,,0,FALSE,2.2272,,,,,,,,,,,,,,,,,,,,,,,,,,,,,,
,6031b3c2a11bc814414d458d,001,2022-04-29_04h53.30.449,classification_task,2021.2.3,Win32,144.7387466,6031b3c2a11bc814414d458d,626b377229c10585ec392f8a,626b4db54e61b95f6aa1286c,,,,,,,,,,,,,,,,,,,,,,,l,1,"[""0.051"",""0.744"",""0.549"",""0.786""]","[1,0,1,1]",0,3,3,3,1,1,0,,,0,FALSE,0.974,,,,,,,,,,,,,,,,,,,,,,,,,,,,,,
,6031b3c2a11bc814414d458d,001,2022-04-29_04h53.30.449,classification_task,2021.2.3,Win32,144.7387466,6031b3c2a11bc814414d458d,626b377229c10585ec392f8a,626b4db54e61b95f6aa1286c,,,,,,,,,,,,,,,,,,,,,,,l,1,"[""0.149"",""0.736"",""0.463"",""0.825""]","[1,0,1,1]",0,4,4,4,1,1,1,,,0,FALSE,1.4822,,,,,,,,,,,,,,,,,,,,,,,,,,,,,,
,6031b3c2a11bc814414d458d,001,2022-04-29_04h53.30.449,classification_task,2021.2.3,Win32,144.7387466,6031b3c2a11bc814414d458d,626b377229c10585ec392f8a,626b4db54e61b95f6aa1286c,,,,,,,,,,,,,,,,,,,,,,,a,0,"[""0.149"",""0.236"",""0.737"",""0.825""]","[1,1,0,1]",0,5,5,5,1,1,1,,,0,FALSE,0.8702,,,,,,,,,,,,,,,,,,,,,,,,,,,,,,
,6031b3c2a11bc814414d458d,001,2022-04-29_04h53.30.449,classification_task,2021.2.3,Win32,144.7387466,6031b3c2a11bc814414d458d,626b377229c10585ec392f8a,626b4db54e61b95f6aa1286c,,,,,,,,,,,,,,,,,,,,,,,l,1,"[""0.051"",""0.415"",""0.719"",""0.786""]","[1,1,0,1]",0,6,6,6,1,1,0,,,0,FALSE,0.9961,,,,,,,,,,,,,,,,,,,,,,,,,,,,,,
,6031b3c2a11bc814414d458d,001,2022-04-29_04h53.30.449,classification_task,2021.2.3,Win32,144.7387466,6031b3c2a11bc814414d458d,626b377229c10585ec392f8a,626b4db54e61b95f6aa1286c,,,,,,,,,,,,,,,,,,,,,,,l,0,"[""0.324"",""0.363"",""0.676"",""0.736""]","[1,1,1,0]",0,7,7,7,1,0,1,,,0,FALSE,1.3506,,,,,,,,,,,,,,,,,,,,,,,,,,,,,,
,6031b3c2a11bc814414d458d,001,2022-04-29_04h53.30.449,classification_task,2021.2.3,Win32,144.7387466,6031b3c2a11bc814414d458d,626b377229c10585ec392f8a,626b4db54e61b95f6aa1286c,,,,,,,,,,,,,,,,,,,,,,,l,0,"[""0.737"",""0.509"",""0.607"",""0.943""]","[0,1,1,1]",0,8,8,8,1,0,0,,,0,FALSE,1.417,,,,,,,,,,,,,,,,,,,,,,,,,,,,,,
,6031b3c2a11bc814414d458d,001,2022-04-29_04h53.30.449,classification_task,2021.2.3,Win32,144.7387466,6031b3c2a11bc814414d458d,626b377229c10585ec392f8a,626b4db54e61b95f6aa1286c,,,,,,,,,,,,,,,,,,,,,,,a,1,"[""0.188"",""0.509"",""0.607"",""0.723""]","[1,1,1,0]",0,9,9,9,1,0,0,,,0,FALSE,1.4086,,,,,,,,,,,,,,,,,,,,,,,,,,,,,,
,6031b3c2a11bc814414d458d,001,2022-04-29_04h53.30.449,classification_task,2021.2.3,Win32,144.7387466,6031b3c2a11bc814414d458d,626b377229c10585ec392f8a,626b4db54e61b95f6aa1286c,,,,,,,,,,,,,,,,,,,,,,,l,1,"[""0.149"",""0.236"",""0.463"",""0.737""]","[1,1,1,0]",0,10,10,10,1,1,1,,,0,FALSE,2.055,,,,,,,,,,,,,,,,,,,,,,,,,,,,,,
,6031b3c2a11bc814414d458d,001,2022-04-29_04h53.30.449,classification_task,2021.2.3,Win32,144.7387466,6031b3c2a11bc814414d458d,626b377229c10585ec392f8a,626b4db54e61b95f6aa1286c,,,,,,,,,,,,,,,,,,,,,,,a,0,"[""0.051"",""0.415"",""0.549"",""0.092""]","[1,1,1,0]",0,11,11,11,1,1,0,,,0,FALSE,1.605,,,,,,,,,,,,,,,,,,,,,,,,,,,,,,
,6031b3c2a11bc814414d458d,001,2022-04-29_04h53.30.449,classification_task,2021.2.3,Win32,144.7387466,6031b3c2a11bc814414d458d,626b377229c10585ec392f8a,626b4db54e61b95f6aa1286c,,,,,,,,,,,,,,,,,,,,,,,l,1,"[""0.275"",""0.236"",""0.463"",""0.825""]","[0,1,1,1]",0,12,12,12,1,1,1,,,0,FALSE,1.0406,,,,,,,,,,,,,,,,,,,,,,,,,,,,,,
,6031b3c2a11bc814414d458d,001,2022-04-29_04h53.30.449,classification_task,2021.2.3,Win32,144.7387466,6031b3c2a11bc814414d458d,626b377229c10585ec392f8a,626b4db54e61b95f6aa1286c,,,,,,,,,,,,,,,,,,,,,,,a,0,"[""0.285"",""0.415"",""0.549"",""0.786""]","[0,1,1,1]",0,13,13,13,1,1,0,,,0,FALSE,1.6209,,,,,,,,,,,,,,,,,,,,,,,,,,,,,,
,6031b3c2a11bc814414d458d,001,2022-04-29_04h53.30.449,classification_task,2021.2.3,Win32,144.7387466,6031b3c2a11bc814414d458d,626b377229c10585ec392f8a,626b4db54e61b95f6aa1286c,,,,,,,,,,,,,,,,,,,,,,,l,0,"[""0.324"",""0.729"",""0.676"",""0.870""]","[1,0,1,1]",0,14,14,14,1,0,1,,,0,FALSE,1.1125,,,,,,,,,,,,,,,,,,,,,,,,,,,,,,
,6031b3c2a11bc814414d458d,001,2022-04-29_04h53.30.449,classification_task,2021.2.3,Win32,144.7387466,6031b3c2a11bc814414d458d,626b377229c10585ec392f8a,626b4db54e61b95f6aa1286c,,,,,,,,,,,,,,,,,,,,,,,l,0,"[""0.188"",""0.509"",""0.719"",""0.943""]","[1,1,0,1]",0,15,15,15,1,0,0,,,0,FALSE,1.0933,,,,,,,,,,,,,,,,,,,,,,,,,,,,,,
,6031b3c2a11bc814414d458d,001,2022-04-29_04h53.30.449,classification_task,2021.2.3,Win32,144.7387466,6031b3c2a11bc814414d458d,626b377229c10585ec392f8a,626b4db54e61b95f6aa1286c,,,,,,,,,,,,,,,,,,,,,,,a,1,"[""0.737"",""0.363"",""0.676"",""0.870""]","[0,1,1,1]",0,16,16,16,1,0,1,,,0,FALSE,0.8622,,,,,,,,,,,,,,,,,,,,,,,,,,,,,,
,6031b3c2a11bc814414d458d,001,2022-04-29_04h53.30.449,classification_task,2021.2.3,Win32,144.7387466,6031b3c2a11bc814414d458d,626b377229c10585ec392f8a,626b4db54e61b95f6aa1286c,,,,,,,,,,,,,,,,,,,,,,,a,1,"[""0.188"",""0.509"",""0.736"",""0.943""]","[1,1,0,1]",0,17,17,17,1,0,0,,,0,FALSE,1.1245,,,,,,,,,,,,,,,,,,,,,,,,,,,,,,
,6031b3c2a11bc814414d458d,001,2022-04-29_04h53.30.449,classification_task,2021.2.3,Win32,144.7387466,6031b3c2a11bc814414d458d,626b377229c10585ec392f8a,626b4db54e61b95f6aa1286c,,,,,,,,,,,,,,,,,,,,,,,a,1,"[""0.324"",""0.363"",""0.676"",""0.719""]","[1,1,1,0]",0,18,18,18,1,0,1,,,0,FALSE,0.9473,,,,,,,,,,,,,,,,,,,,,,,,,,,,,,
,6031b3c2a11bc814414d458d,001,2022-04-29_04h53.30.449,classification_task,2021.2.3,Win32,144.7387466,6031b3c2a11bc814414d458d,626b377229c10585ec392f8a,626b4db54e61b95f6aa1286c,,,,,,,,,,,,,,,,,,,,,,,l,1,"[""0.051"",""0.415"",""0.744"",""0.786""]","[1,1,0,1]",0,19,19,19,1,1,0,,,0,FALSE,1.0023,,,,,,,,,,,,,,,,,,,,,,,,,,,,,,
,6031b3c2a11bc814414d458d,001,2022-04-29_04h53.30.449,classification_task,2021.2.3,Win32,144.7387466,6031b3c2a11bc814414d458d,626b377229c10585ec392f8a,626b4db54e61b95f6aa1286c,,,,,,,,,,,,,,,,,,,,,,,l,0,"[""0.107"",""0.509"",""0.607"",""0.943""]","[0,1,1,1]",0,20,20,20,1,0,0,,,0,FALSE,1.0269,,,,,,,,,,,,,,,,,,,,,,,,,,,,,,
,6031b3c2a11bc814414d458d,001,2022-04-29_04h53.30.449,classification_task,2021.2.3,Win32,144.7387466,6031b3c2a11bc814414d458d,626b377229c10585ec392f8a,626b4db54e61b95f6aa1286c,,,,,,,,,,,,,,,,,,,,,,,l,0,"[""0.324"",""0.744"",""0.676"",""0.870""]","[1,0,1,1]",0,21,21,21,1,0,1,,,0,FALSE,1.0821,,,,,,,,,,,,,,,,,,,,,,,,,,,,,,
,6031b3c2a11bc814414d458d,001,2022-04-29_04h53.30.449,classification_task,2021.2.3,Win32,144.7387466,6031b3c2a11bc814414d458d,626b377229c10585ec392f8a,626b4db54e61b95f6aa1286c,,,,,,,,,,,,,,,,,,,,,,,l,0,"[""0.324"",""0.363"",""0.736"",""0.870""]","[1,1,0,1]",0,22,22,22,1,0,1,,,0,FALSE,1.477,,,,,,,,,,,,,,,,,,,,,,,,,,,,,,
,6031b3c2a11bc814414d458d,001,2022-04-29_04h53.30.449,classification_task,2021.2.3,Win32,144.7387466,6031b3c2a11bc814414d458d,626b377229c10585ec392f8a,626b4db54e61b95f6aa1286c,,,,,,,,,,,,,,,,,,,,,,,a,0,"[""0.744"",""0.415"",""0.549"",""0.786""]","[0,1,1,1]",0,23,23,23,1,1,0,,,0,FALSE,1.3045,,,,,,,,,,,,,,,,,,,,,,,,,,,,,,
,6031b3c2a11bc814414d458d,001,2022-04-29_04h53.30.449,classification_task,2021.2.3,Win32,144.7387466,6031b3c2a11bc814414d458d,626b377229c10585ec392f8a,626b4db54e61b95f6aa1286c,,,,,,,,,,,,,,,,,,,,,,,l,1,"[""0.051"",""0.737"",""0.549"",""0.786""]","[1,0,1,1]",0,24,24,24,1,1,0,,,0,FALSE,0.9381,,,,,,,,,,,,,,,,,,,,,,,,,,,,,,
,6031b3c2a11bc814414d458d,001,2022-04-29_04h53.30.449,classification_task,2021.2.3,Win32,144.7387466,6031b3c2a11bc814414d458d,626b377229c10585ec392f8a,626b4db54e61b95f6aa1286c,,,,,,,,,,,,,,,,,,,,,,,l,0,"[""0.188"",""0.275"",""0.607"",""0.943""]","[1,0,1,1]",0,25,25,25,1,0,0,,,0,FALSE,1.4131,,,,,,,,,,,,,,,,,,,,,,,,,,,,,,
,6031b3c2a11bc814414d458d,001,2022-04-29_04h53.30.449,classification_task,2021.2.3,Win32,144.7387466,6031b3c2a11bc814414d458d,626b377229c10585ec392f8a,626b4db54e61b95f6aa1286c,,,,,,,,,,,,,,,,,,,,,,,a,0,"[""0.149"",""0.236"",""0.736"",""0.825""]","[1,1,0,1]",0,26,26,26,1,1,1,,,0,FALSE,0.9825,,,,,,,,,,,,,,,,,,,,,,,,,,,,,,
,6031b3c2a11bc814414d458d,001,2022-04-29_04h53.30.449,classification_task,2021.2.3,Win32,144.7387466,6031b3c2a11bc814414d458d,626b377229c10585ec392f8a,626b4db54e61b95f6aa1286c,,,,,,,,,,,,,,,,,,,,,,,a,0,"[""0.149"",""0.236"",""0.463"",""0.736""]","[1,1,1,0]",0,27,27,27,1,1,1,,,0,FALSE,0.7231,,,,,,,,,,,,,,,,,,,,,,,,,,,,,,
,6031b3c2a11bc814414d458d,001,2022-04-29_04h53.30.449,classification_task,2021.2.3,Win32,144.7387466,6031b3c2a11bc814414d458d,626b377229c10585ec392f8a,626b4db54e61b95f6aa1286c,,,,,,,,,,,,,,,,,,,,,,,l,1,"[""0.051"",""0.415"",""0.549"",""0.736""]","[1,1,1,0]",0,28,28,28,1,1,0,,,0,FALSE,0.8961,,,,,,,,,,,,,,,,,,,,,,,,,,,,,,
,6031b3c2a11bc814414d458d,001,2022-04-29_04h53.30.449,classification_task,2021.2.3,Win32,144.7387466,6031b3c2a11bc814414d458d,626b377229c10585ec392f8a,626b4db54e61b95f6aa1286c,,,,,,,,,,,,,,,,,,,,,,,l,1,"[""0.744"",""0.236"",""0.463"",""0.825""]","[0,1,1,1]",0,29,29,29,1,1,1,,,0,FALSE,1.047,,,,,,,,,,,,,,,,,,,,,,,,,,,,,,
,6031b3c2a11bc814414d458d,001,2022-04-29_04h53.30.449,classification_task,2021.2.3,Win32,144.7387466,6031b3c2a11bc814414d458d,626b377229c10585ec392f8a,626b4db54e61b95f6aa1286c,,,,,,,,,,,,,,,,,,,,,,,a,1,"[""0.188"",""0.509"",""0.607"",""0.749""]","[1,1,1,0]",0,30,30,30,1,0,0,,,0,FALSE,2.1775,,,,,,,,,,,,,,,,,,,,,,,,,,,,,,
,6031b3c2a11bc814414d458d,001,2022-04-29_04h53.30.449,classification_task,2021.2.3,Win32,144.7387466,6031b3c2a11bc814414d458d,626b377229c10585ec392f8a,626b4db54e61b95f6aa1286c,,,,,,,,,,,,,,,,,,,,,,,l,1,"[""0.149"",""0.736"",""0.463"",""0.825""]","[1,0,1,1]",0,31,31,31,1,1,1,,,0,FALSE,1.134,,,,,,,,,,,,,,,,,,,,,,,,,,,,,,
,6031b3c2a11bc814414d458d,001,2022-04-29_04h53.30.449,classification_task,2021.2.3,Win32,144.7387466,6031b3c2a11bc814414d458d,626b377229c10585ec392f8a,626b4db54e61b95f6aa1286c,,,,,,,,,,,,,,,,,,,,,,,a,1,"[""0.188"",""0.509"",""0.719"",""0.943""]","[1,1,0,1]",0,32,32,32,1,0,0,,,0,FALSE,1.7131,,,,,,,,,,,,,,,,,,,,,,,,,,,,,,
,6031b3c2a11bc814414d458d,001,2022-04-29_04h53.30.449,classification_task,2021.2.3,Win32,144.7387466,6031b3c2a11bc814414d458d,626b377229c10585ec392f8a,626b4db54e61b95f6aa1286c,,,,,,,,,,,,,,,,,,,,,,,l,1,"[""0.051"",""0.744"",""0.549"",""0.786""]","[1,0,1,1]",0,33,33,33,1,1,0,,,0,FALSE,0.8343,,,,,,,,,,,,,,,,,,,,,,,,,,,,,,
,6031b3c2a11bc814414d458d,001,2022-04-29_04h53.30.449,classification_task,2021.2.3,Win32,144.7387466,6031b3c2a11bc814414d458d,626b377229c10585ec392f8a,626b4db54e61b95f6aa1286c,,,,,,,,,,,,,,,,,,,,,,,a,0,"[""0.275"",""0.415"",""0.549"",""0.786""]","[0,1,1,1]",0,34,34,34,1,1,0,,,0,FALSE,1.0927,,,,,,,,,,,,,,,,,,,,,,,,,,,,,,
,6031b3c2a11bc814414d458d,001,2022-04-29_04h53.30.449,classification_task,2021.2.3,Win32,144.7387466,6031b3c2a11bc814414d458d,626b377229c10585ec392f8a,626b4db54e61b95f6aa1286c,,,,,,,,,,,,,,,,,,,,,,,l,1,"[""0.749"",""0.236"",""0.463"",""0.825""]","[0,1,1,1]",0,35,35,35,1,1,1,,,0,FALSE,1.2144,,,,,,,,,,,,,,,,,,,,,,,,,,,,,,
,6031b3c2a11bc814414d458d,001,2022-04-29_04h53.30.449,classification_task,2021.2.3,Win32,144.7387466,6031b3c2a11bc814414d458d,626b377229c10585ec392f8a,626b4db54e61b95f6aa1286c,,,,,,,,,,,,,,,,,,,,,,,l,0,"[""0.324"",""0.363"",""0.676"",""0.107""]","[1,1,1,0]",0,36,36,36,1,0,1,,,0,FALSE,1.8305,,,,,,,,,,,,,,,,,,,,,,,,,,,,,,
,6031b3c2a11bc814414d458d,001,2022-04-29_04h53.30.449,classification_task,2021.2.3,Win32,144.7387466,6031b3c2a11bc814414d458d,626b377229c10585ec392f8a,626b4db54e61b95f6aa1286c,,,,,,,,,,,,,,,,,,,,,,,l,1,"[""0.149"",""0.236"",""0.463"",""0.736""]","[1,1,1,0]",0,37,37,37,1,1,1,,,0,FALSE,2.7576,,,,,,,,,,,,,,,,,,,,,,,,,,,,,,
,6031b3c2a11bc814414d458d,001,2022-04-29_04h53.30.449,classification_task,2021.2.3,Win32,144.7387466,6031b3c2a11bc814414d458d,626b377229c10585ec392f8a,626b4db54e61b95f6aa1286c,,,,,,,,,,,,,,,,,,,,,,,a,1,"[""0.324"",""0.744"",""0.676"",""0.870""]","[1,0,1,1]",0,38,38,38,1,0,1,,,0,FALSE,0.6467,,,,,,,,,,,,,,,,,,,,,,,,,,,,,,
,6031b3c2a11bc814414d458d,001,2022-04-29_04h53.30.449,classification_task,2021.2.3,Win32,144.7387466,6031b3c2a11bc814414d458d,626b377229c10585ec392f8a,626b4db54e61b95f6aa1286c,,,,,,,,,,,,,,,,,,,,,,,l,1,"[""0.149"",""0.236"",""0.107"",""0.825""]","[1,1,0,1]",0,39,39,39,1,1,1,,,0,FALSE,0.83,,,,,,,,,,,,,,,,,,,,,,,,,,,,,,
,6031b3c2a11bc814414d458d,001,2022-04-29_04h53.30.449,classification_task,2021.2.3,Win32,144.7387466,6031b3c2a11bc814414d458d,626b377229c10585ec392f8a,626b4db54e61b95f6aa1286c,,,,,,,,,,,,,,,,,,,,,,,a,1,"[""0.324"",""0.363"",""0.737"",""0.870""]","[1,1,0,1]",0,40,40,40,1,0,1,,,0,FALSE,0.9098,,,,,,,,,,,,,,,,,,,,,,,,,,,,,,
,6031b3c2a11bc814414d458d,001,2022-04-29_04h53.30.449,classification_task,2021.2.3,Win32,144.7387466,6031b3c2a11bc814414d458d,626b377229c10585ec392f8a,626b4db54e61b95f6aa1286c,,,,,,,,,,,,,,,,,,,,,,,l,1,"[""0.051"",""0.415"",""0.275"",""0.786""]","[1,1,0,1]",0,41,41,41,1,1,0,,,0,FALSE,0.7616,,,,,,,,,,,,,,,,,,,,,,,,,,,,,,
,6031b3c2a11bc814414d458d,001,2022-04-29_04h53.30.449,classification_task,2021.2.3,Win32,144.7387466,6031b3c2a11bc814414d458d,626b377229c10585ec392f8a,626b4db54e61b95f6aa1286c,,,,,,,,,,,,,,,,,,,,,,,a,1,"[""0.188"",""0.509"",""0.607"",""0.744""]","[1,1,1,0]",0,42,42,42,1,0,0,,,0,FALSE,0.7537,,,,,,,,,,,,,,,,,,,,,,,,,,,,,,
,6031b3c2a11bc814414d458d,001,2022-04-29_04h53.30.449,classification_task,2021.2.3,Win32,144.7387466,6031b3c2a11bc814414d458d,626b377229c10585ec392f8a,626b4db54e61b95f6aa1286c,,,,,,,,,,,,,,,,,,,,,,,l,1,"[""0.051"",""0.415"",""0.549"",""0.092""]","[1,1,1,0]",0,43,43,43,1,1,0,,,0,FALSE,1.1402,,,,,,,,,,,,,,,,,,,,,,,,,,,,,,
,6031b3c2a11bc814414d458d,001,2022-04-29_04h53.30.449,classification_task,2021.2.3,Win32,144.7387466,6031b3c2a11bc814414d458d,626b377229c10585ec392f8a,626b4db54e61b95f6aa1286c,,,,,,,,,,,,,,,,,,,,,,,l,1,"[""0.149"",""0.275"",""0.463"",""0.825""]","[1,0,1,1]",0,44,44,44,1,1,1,,,0,FALSE,1.2189,,,,,,,,,,,,,,,,,,,,,,,,,,,,,,
,6031b3c2a11bc814414d458d,001,2022-04-29_04h53.30.449,classification_task,2021.2.3,Win32,144.7387466,6031b3c2a11bc814414d458d,626b377229c10585ec392f8a,626b4db54e61b95f6aa1286c,,,,,,,,,,,,,,,,,,,,,,,a,1,"[""0.719"",""0.509"",""0.607"",""0.943""]","[0,1,1,1]",0,45,45,45,1,0,0,,,0,FALSE,0.8547,,,,,,,,,,,,,,,,,,,,,,,,,,,,,,
,6031b3c2a11bc814414d458d,001,2022-04-29_04h53.30.449,classification_task,2021.2.3,Win32,144.7387466,6031b3c2a11bc814414d458d,626b377229c10585ec392f8a,626b4db54e61b95f6aa1286c,,,,,,,,,,,,,,,,,,,,,,,l,0,"[""0.188"",""0.736"",""0.607"",""0.943""]","[1,0,1,1]",0,46,46,46,1,0,0,,,0,FALSE,1.07,,,,,,,,,,,,,,,,,,,,,,,,,,,,,,
,6031b3c2a11bc814414d458d,001,2022-04-29_04h53.30.449,classification_task,2021.2.3,Win32,144.7387466,6031b3c2a11bc814414d458d,626b377229c10585ec392f8a,626b4db54e61b95f6aa1286c,,,,,,,,,,,,,,,,,,,,,,,a,1,"[""0.738"",""0.363"",""0.676"",""0.870""]","[0,1,1,1]",0,47,47,47,1,0,1,,,0,FALSE,1.0062,,,,,,,,,,,,,,,,,,,,,,,,,,,,,,
,6031b3c2a11bc814414d458d,001,2022-04-29_04h53.30.449,classification_task,2021.2.3,Win32,144.7387466,6031b3c2a11bc814414d458d,626b377229c10585ec392f8a,626b4db54e61b95f6aa1286c,,,,,,,,,,,,,,,,,,,,,,,a,1,"[""0.744"",""0.363"",""0.676"",""0.870""]","[0,1,1,1]",0,48,48,48,1,0,1,,,0,FALSE,0.6958,,,,,,,,,,,,,,,,,,,,,,,,,,,,,,
,6031b3c2a11bc814414d458d,001,2022-04-29_04h53.30.449,classification_task,2021.2.3,Win32,144.7387466,6031b3c2a11bc814414d458d,626b377229c10585ec392f8a,626b4db54e61b95f6aa1286c,,,,,,,,,,,,,,,,,,,,,,,l,1,"[""0.736"",""0.236"",""0.463"",""0.825""]","[0,1,1,1]",0,49,49,49,1,1,1,,,0,FALSE,1.4416,,,,,,,,,,,,,,,,,,,,,,,,,,,,,,
,6031b3c2a11bc814414d458d,001,2022-04-29_04h53.30.449,classification_task,2021.2.3,Win32,144.7387466,6031b3c2a11bc814414d458d,626b377229c10585ec392f8a,626b4db54e61b95f6aa1286c,,,,,,,,,,,,,,,,,,,,,,,a,1,"[""0.324"",""0.363"",""0.676"",""0.738""]","[1,1,1,0]",0,50,50,50,1,0,1,,,0,FALSE,0.8061,,,,,,,,,,,,,,,,,,,,,,,,,,,,,,
,6031b3c2a11bc814414d458d,001,2022-04-29_04h53.30.449,classification_task,2021.2.3,Win32,144.7387466,6031b3c2a11bc814414d458d,626b377229c10585ec392f8a,626b4db54e61b95f6aa1286c,,,,,,,,,,,,,,,,,,,,,,,l,1,"[""0.149"",""0.236"",""0.463"",""0.285""]","[1,1,1,0]",0,51,51,51,1,1,1,,,0,FALSE,1.115,,,,,,,,,,,,,,,,,,,,,,,,,,,,,,
,6031b3c2a11bc814414d458d,001,2022-04-29_04h53.30.449,classification_task,2021.2.3,Win32,144.7387466,6031b3c2a11bc814414d458d,626b377229c10585ec392f8a,626b4db54e61b95f6aa1286c,,,,,,,,,,,,,,,,,,,,,,,l,1,"[""0.051"",""0.275"",""0.549"",""0.786""]","[1,0,1,1]",0,52,52,52,1,1,0,,,0,FALSE,1.1347,,,,,,,,,,,,,,,,,,,,,,,,,,,,,,
,6031b3c2a11bc814414d458d,001,2022-04-29_04h53.30.449,classification_task,2021.2.3,Win32,144.7387466,6031b3c2a11bc814414d458d,626b377229c10585ec392f8a,626b4db54e61b95f6aa1286c,,,,,,,,,,,,,,,,,,,,,,,a,0,"[""0.149"",""0.236"",""0.737"",""0.825""]","[1,1,0,1]",0,53,53,53,1,1,1,,,0,FALSE,0.94,,,,,,,,,,,,,,,,,,,,,,,,,,,,,,
,6031b3c2a11bc814414d458d,001,2022-04-29_04h53.30.449,classification_task,2021.2.3,Win32,144.7387466,6031b3c2a11bc814414d458d,626b377229c10585ec392f8a,626b4db54e61b95f6aa1286c,,,,,,,,,,,,,,,,,,,,,,,l,1,"[""0.149"",""0.275"",""0.463"",""0.825""]","[1,0,1,1]",0,54,54,54,1,1,1,,,0,FALSE,1.0367,,,,,,,,,,,,,,,,,,,,,,,,,,,,,,
,6031b3c2a11bc814414d458d,001,2022-04-29_04h53.30.449,classification_task,2021.2.3,Win32,144.7387466,6031b3c2a11bc814414d458d,626b377229c10585ec392f8a,626b4db54e61b95f6aa1286c,,,,,,,,,,,,,,,,,,,,,,,l,1,"[""0.051"",""0.415"",""0.744"",""0.786""]","[1,1,0,1]",0,55,55,55,1,1,0,,,0,FALSE,0.8261,,,,,,,,,,,,,,,,,,,,,,,,,,,,,,
,6031b3c2a11bc814414d458d,001,2022-04-29_04h53.30.449,classification_task,2021.2.3,Win32,144.7387466,6031b3c2a11bc814414d458d,626b377229c10585ec392f8a,626b4db54e61b95f6aa1286c,,,,,,,,,,,,,,,,,,,,,,,a,0,"[""0.275"",""0.415"",""0.549"",""0.786""]","[0,1,1,1]",0,56,56,56,1,1,0,,,0,FALSE,1.2514,,,,,,,,,,,,,,,,,,,,,,,,,,,,,,
,6031b3c2a11bc814414d458d,001,2022-04-29_04h53.30.449,classification_task,2021.2.3,Win32,144.7387466,6031b3c2a11bc814414d458d,626b377229c10585ec392f8a,626b4db54e61b95f6aa1286c,,,,,,,,,,,,,,,,,,,,,,,a,1,"[""0.738"",""0.509"",""0.607"",""0.943""]","[0,1,1,1]",0,57,57,57,1,0,0,,,0,FALSE,0.6569,,,,,,,,,,,,,,,,,,,,,,,,,,,,,,
,6031b3c2a11bc814414d458d,001,2022-04-29_04h53.30.449,classification_task,2021.2.3,Win32,144.7387466,6031b3c2a11bc814414d458d,626b377229c10585ec392f8a,626b4db54e61b95f6aa1286c,,,,,,,,,,,,,,,,,,,,,,,l,0,"[""0.188"",""0.107"",""0.607"",""0.943""]","[1,0,1,1]",0,58,58,58,1,0,0,,,0,FALSE,0.9636,,,,,,,,,,,,,,,,,,,,,,,,,,,,,,
,6031b3c2a11bc814414d458d,001,2022-04-29_04h53.30.449,classification_task,2021.2.3,Win32,144.7387466,6031b3c2a11bc814414d458d,626b377229c10585ec392f8a,626b4db54e61b95f6aa1286c,,,,,,,,,,,,,,,,,,,,,,,a,1,"[""0.324"",""0.092"",""0.676"",""0.870""]","[1,0,1,1]",0,59,59,59,1,0,1,,,0,FALSE,1.1928,,,,,,,,,,,,,,,,,,,,,,,,,,,,,,
,6031b3c2a11bc814414d458d,001,2022-04-29_04h53.30.449,classification_task,2021.2.3,Win32,144.7387466,6031b3c2a11bc814414d458d,626b377229c10585ec392f8a,626b4db54e61b95f6aa1286c,,,,,,,,,,,,,,,,,,,,,,,a,1,"[""0.188"",""0.509"",""0.607"",""0.744""]","[1,1,1,0]",0,60,60,60,1,0,0,,,0,FALSE,1.0012,,,,,,,,,,,,,,,,,,,,,,,,,,,,,,
,6031b3c2a11bc814414d458d,001,2022-04-29_04h53.30.449,classification_task,2021.2.3,Win32,144.7387466,6031b3c2a11bc814414d458d,626b377229c10585ec392f8a,626b4db54e61b95f6aa1286c,,,,,,,,,,,,,,,,,,,,,,,l,0,"[""0.188"",""0.509"",""0.729"",""0.943""]","[1,1,0,1]",0,61,61,61,1,0,0,,,0,FALSE,1.524,,,,,,,,,,,,,,,,,,,,,,,,,,,,,,
,6031b3c2a11bc814414d458d,001,2022-04-29_04h53.30.449,classification_task,2021.2.3,Win32,144.7387466,6031b3c2a11bc814414d458d,626b377229c10585ec392f8a,626b4db54e61b95f6aa1286c,,,,,,,,,,,,,,,,,,,,,,,a,1,"[""0.324"",""0.363"",""0.719"",""0.870""]","[1,1,0,1]",0,62,62,62,1,0,1,,,0,FALSE,0.9339,,,,,,,,,,,,,,,,,,,,,,,,,,,,,,
,6031b3c2a11bc814414d458d,001,2022-04-29_04h53.30.449,classification_task,2021.2.3,Win32,144.7387466,6031b3c2a11bc814414d458d,626b377229c10585ec392f8a,626b4db54e61b95f6aa1286c,,,,,,,,,,,,,,,,,,,,,,,l,1,"[""0.051"",""0.415"",""0.549"",""0.275""]","[1,1,1,0]",0,63,63,63,1,1,0,,,0,FALSE,1.2437,,,,,,,,,,,,,,,,,,,,,,,,,,,,,,
,6031b3c2a11bc814414d458d,001,2022-04-29_04h53.30.449,classification_task,2021.2.3,Win32,144.7387466,6031b3c2a11bc814414d458d,626b377229c10585ec392f8a,626b4db54e61b95f6aa1286c,,,,,,,,,,,,,,,,,,,,,,,,,,,,,,,,,,,,,,,0, ,,0,0.345874976,152.4614,0,2,2,2,1,2,3,,,,,,,,,,,,,,,,,
,6031b3c2a11bc814414d458d,001,2022-04-29_04h53.30.449,classification_task,2021.2.3,Win32,144.7387466,6031b3c2a11bc814414d458d,626b377229c10585ec392f8a,626b4db54e61b95f6aa1286c,,,,,,,,,,,,,,,,,,,,,,,,,,,,,,,,,,,,,,,1,  ,,0,9.458161866,156.9672,0,2,2,2,1,2,3,,,,,,,,,,,,,,,,,
,6031b3c2a11bc814414d458d,001,2022-04-29_04h53.30.449,classification_task,2021.2.3,Win32,144.7387466,6031b3c2a11bc814414d458d,626b377229c10585ec392f8a,626b4db54e61b95f6aa1286c,,,,,,,,,,,,,,,,,,,,,,,,,,,,,,,,,,,,,,,2,  ,,0,0.345874976,158.3768,0,2,2,2,1,2,3,,,,,,,,,,,,,,,,,
,6031b3c2a11bc814414d458d,001,2022-04-29_04h53.30.449,classification_task,2021.2.3,Win32,144.7387466,6031b3c2a11bc814414d458d,626b377229c10585ec392f8a,626b4db54e61b95f6aa1286c,,,,,,,,,,,,,,,,,,,,,,,,,,,,,,,,,,,,,,,,,,,,,0,2,2,2,1,,3,,,,,,,,,,,,,,,,,
,6031b3c2a11bc814414d458d,001,2022-04-29_04h53.30.449,classification_task,2021.2.3,Win32,144.7387466,6031b3c2a11bc814414d458d,626b377229c10585ec392f8a,626b4db54e61b95f6aa1286c,,,,,,,,,,,,,,,,,,,,,,,,,,,,,,,,,,,,,,,,,,,,,,,,,,,,,I believe the aid is a competent performer,,0.7,0,3,842.1396,0,0,0,0,1,0,,,,
,6031b3c2a11bc814414d458d,001,2022-04-29_04h53.30.449,classification_task,2021.2.3,Win32,144.7387466,6031b3c2a11bc814414d458d,626b377229c10585ec392f8a,626b4db54e61b95f6aa1286c,,,,,,,,,,,,,,,,,,,,,,,,,,,,,,,,,,,,,,,,,,,,,,,,,,,,,I trust the aid,,0.7,0,3,843.5363,0,0,0,0,1,0,,,,
,6031b3c2a11bc814414d458d,001,2022-04-29_04h53.30.449,classification_task,2021.2.3,Win32,144.7387466,6031b3c2a11bc814414d458d,626b377229c10585ec392f8a,626b4db54e61b95f6aa1286c,,,,,,,,,,,,,,,,,,,,,,,,,,,,,,,,,,,,,,,,,,,,,,,,,,,,,I have confidence in the advice given by the aid,,0.7,0,4,846.8411,0,0,0,0,1,0,,,,
,6031b3c2a11bc814414d458d,001,2022-04-29_04h53.30.449,classification_task,2021.2.3,Win32,144.7387466,6031b3c2a11bc814414d458d,626b377229c10585ec392f8a,626b4db54e61b95f6aa1286c,,,,,,,,,,,,,,,,,,,,,,,,,,,,,,,,,,,,,,,,,,,,,,,,,,,,,I can depend on the aid,,0.7,0,3,851.4724,0,0,0,0,1,0,,,,
,6031b3c2a11bc814414d458d,001,2022-04-29_04h53.30.449,classification_task,2021.2.3,Win32,144.7387466,6031b3c2a11bc814414d458d,626b377229c10585ec392f8a,626b4db54e61b95f6aa1286c,,,,,,,,,,,,,,,,,,,,,,,,,,,,,,,,,,,,,,,,,,,,,,,,,,,,,I can rely on the aid to behave in consistent ways,,0.7,0,3,854.0686,0,0,0,0,1,0,,,,
,6031b3c2a11bc814414d458d,001,2022-04-29_04h53.30.449,classification_task,2021.2.3,Win32,144.7387466,6031b3c2a11bc814414d458d,626b377229c10585ec392f8a,626b4db54e61b95f6aa1286c,,,,,,,,,,,,,,,,,,,,,,,,,,,,,,,,,,,,,,,,,,,,,,,,,,,,,I can rely on the aid to do its best every time I take its advice,,0.7,0,3,856.0875,0,0,0,0,1,0,,,,
,6031b3c2a11bc814414d458d,001,2022-04-29_04h53.30.449,classification_task,2021.2.3,Win32,144.7387466,6031b3c2a11bc814414d458d,626b377229c10585ec392f8a,626b4db54e61b95f6aa1286c,,,,,,,,,,,,,,,,,,,,,,,,,,,,,,,,,,,,,,,,,,,,,,,,,,,,,"On trials you completed with assistance from the aid, how frequently did you think the aid was correct?",,0.7,0,50,,0,0,0,0,1,0,,,,
,6031b3c2a11bc814414d458d,001,2022-04-29_04h53.30.449,classification_task,2021.2.3,Win32,144.7387466,6031b3c2a11bc814414d458d,626b377229c10585ec392f8a,626b4db54e61b95f6aa1286c,,,,,,,,,,,,,,,,,,,,,,,,,,,,,,,,,,,,,,,,,,,,,,,,,,,,,"On trials you completed without the aid, how frequently did you think you were correct?",,0.7,0,40,,0,0,0,0,1,0,,,,
,6031b3c2a11bc814414d458d,001,2022-04-29_04h53.30.449,classification_task,2021.2.3,Win32,144.7387466,6031b3c2a11bc814414d458d,626b377229c10585ec392f8a,626b4db54e61b95f6aa1286c,,,,,,,,,,,,,,,,,,,,,,,,,,,,,,,,,,,,,,,,,,,,,,,,,,,,,,,,,,,0,0,0,0,1,,,,,
,6031b3c2a11bc814414d458d,001,2022-04-29_04h53.30.449,classification_task,2021.2.3,Win32,144.7387466,6031b3c2a11bc814414d458d,626b377229c10585ec392f8a,626b4db54e61b95f6aa1286c,,,,,,,,,,,,,,,,,,,,,,,,,,,,,,,,,,,,,,,,,,,,,,,,,,,,,,,,,,,,,,,,,space,14.4293,883.5186,
,6031b3c2a11bc814414d458d,001,2022-04-29_04h53.30.449,classification_task,2021.2.3,Win32,144.7387466,6031b3c2a11bc814414d458d,626b377229c10585ec392f8a,626b4db54e61b95f6aa1286c,,,,,,,,,,,,,,,,,,,,,,,,,,,,,,,,,,,,,,,,,,,,,,,,,,,,,,,,,,,,,,,,,,,,"Mozilla/5.0 (Windows NT 10.0; Win64; x64) AppleWebKit/537.36 (KHTML, like Gecko) Chrome/99.0.4844.84 Safari/537.36 OPR/85.0.4341.72"
