usingWebGL,participant,session,date,expName,psychopyVersion,OS,frameRate,PROLIFIC_PID,STUDY_ID,SESSION_ID,signatures_friend,signatures_foe,band_ranges_top,band_ranges_bottom,formitemText,formtype,formundefined,formitemWidth,formindex,formresponse,formrt,key_resp_2.keys,key_resp_2.rt,tute_resp.keys,tute_resp.rt,tutorial.thisRepN,tutorial.thisTrialN,tutorial.thisN,tutorial.thisIndex,tutorial.ran,key_resp_4.keys,key_resp_4.rt,key_resp.keys,key_resp.corr,key_resp.rt,lines_presented,is_signal_presented,trials.thisRepN,trials.thisTrialN,trials.thisN,trials.thisIndex,trials.ran,vessel,active_band,lines,is_signal,supported_pos,catch_trial,debrief_formindex,debrief_formitemText,debrief_formtype,debrief_formitemWidth,debrief_formresponse,debrief_formrt,phases.thisRepN,phases.thisTrialN,phases.thisN,phases.thisIndex,phases.ran,phases.order,phase,key_resp_3.keys,trustitemText,trusttype,trustitemWidth,trustindex,trustresponse,trustrt,support_status.thisRepN,support_status.thisTrialN,support_status.thisN,support_status.thisIndex,support_status.ran,support_status.order,key_resp_5.keys,key_resp_5.rt,globalClockTime,userAgent
TRUE,6036b55a1bb857e12fb70219,001,2022-04-28_20h12.10.892,classification_task,2021.2.3,Win32,60.57302078,6036b55a1bb857e12fb70219,626b377229c10585ec392f89,626b3aef104fe7502035a0e8,,,,,,,,,,,,,,,,,,,,,,,,,,,,,,,,,,,,,,,,,,,,,,,,,,,,,,,,,,,,,,,,,,,,
,6036b55a1bb857e12fb70219,001,2022-04-28_20h12.10.892,classification_task,2021.2.3,Win32,60.57302078,6036b55a1bb857e12fb70219,626b377229c10585ec392f89,626b3aef104fe7502035a0e8,"[[""0.198"",""0.495"",""0.877"",""0.956""],[""0.288"",""0.437"",""0.739"",""0.913""]]","[[""0.100"",""0.243"",""0.591"",""0.832""],[""0.060"",""0.362"",""0.636"",""0.693""]]","[1,10]","[100,1000]",Video game experience,,,0.7,0,,,,,,,,,,,,,,,,,,,,,,,,,,,,,,,,,,,,,,,,,,,,,,,,,,,,,,,,,,,
,6036b55a1bb857e12fb70219,001,2022-04-28_20h12.10.892,classification_task,2021.2.3,Win32,60.57302078,6036b55a1bb857e12fb70219,626b377229c10585ec392f89,626b3aef104fe7502035a0e8,,,,,Approximately how many hours did you spend playing video games in the last week?,,,0.7,0,2,,,,,,,,,,,,,,,,,,,,,,,,,,,,,,,,,,,,,,,,,,,,,,,,,,,,,,,,,,
,6036b55a1bb857e12fb70219,001,2022-04-28_20h12.10.892,classification_task,2021.2.3,Win32,60.57302078,6036b55a1bb857e12fb70219,626b377229c10585ec392f89,626b3aef104fe7502035a0e8,,,,,"Which game did you play the most this year? (Enter ""None"" if you didn't play any)",,,0.7,0,Minecraft,,,,,,,,,,,,,,,,,,,,,,,,,,,,,,,,,,,,,,,,,,,,,,,,,,,,,,,,,,
,6036b55a1bb857e12fb70219,001,2022-04-28_20h12.10.892,classification_task,2021.2.3,Win32,60.57302078,6036b55a1bb857e12fb70219,626b377229c10585ec392f89,626b3aef104fe7502035a0e8,,,,,Visual perception,,,0.7,0,,,,,,,,,,,,,,,,,,,,,,,,,,,,,,,,,,,,,,,,,,,,,,,,,,,,,,,,,,,
,6036b55a1bb857e12fb70219,001,2022-04-28_20h12.10.892,classification_task,2021.2.3,Win32,60.57302078,6036b55a1bb857e12fb70219,626b377229c10585ec392f89,626b3aef104fe7502035a0e8,,,,,Do you have any form of color blindness?,,,0.7,0,No,51.5357,,,,,,,,,,,,,,,,,,,,,,,,,,,,,,,,,,,,,,,,,,,,,,,,,,,,,,,,,
,6036b55a1bb857e12fb70219,001,2022-04-28_20h12.10.892,classification_task,2021.2.3,Win32,60.57302078,6036b55a1bb857e12fb70219,626b377229c10585ec392f89,626b3aef104fe7502035a0e8,,,,,Do you use software to change the colour temperature of your screen (e.g. f.lux)?,,,0.7,0,No,57.5484,,,,,,,,,,,,,,,,,,,,,,,,,,,,,,,,,,,,,,,,,,,,,,,,,,,,,,,,,
,6036b55a1bb857e12fb70219,001,2022-04-28_20h12.10.892,classification_task,2021.2.3,Win32,60.57302078,6036b55a1bb857e12fb70219,626b377229c10585ec392f89,626b3aef104fe7502035a0e8,,,,,,,,,,,,space,39.5862,space,9.7943,0,0,0,0,1,,,,,,,,,,,,,,,,,,,,,,,,,,,,,,,,,,,,,,,,,,,,,,,,
,6036b55a1bb857e12fb70219,001,2022-04-28_20h12.10.892,classification_task,2021.2.3,Win32,60.57302078,6036b55a1bb857e12fb70219,626b377229c10585ec392f89,626b3aef104fe7502035a0e8,,,,,,,,,,,,,,space,9.9662,1,0,1,0,1,,,,,,,,,,,,,,,,,,,,,,,,,,,,,,,,,,,,,,,,,,,,,,,,
,6036b55a1bb857e12fb70219,001,2022-04-28_20h12.10.892,classification_task,2021.2.3,Win32,60.57302078,6036b55a1bb857e12fb70219,626b377229c10585ec392f89,626b3aef104fe7502035a0e8,,,,,,,,,,,,,,space,55.3731,2,0,2,0,1,,,,,,,,,,,,,,,,,,,,,,,,,,,,,,,,,,,,,,,,,,,,,,,,
,6036b55a1bb857e12fb70219,001,2022-04-28_20h12.10.892,classification_task,2021.2.3,Win32,60.57302078,6036b55a1bb857e12fb70219,626b377229c10585ec392f89,626b3aef104fe7502035a0e8,,,,,,,,,,,,,,space,26.6964,3,0,3,0,1,,,,,,,,,,,,,,,,,,,,,,,,,,,,,,,,,,,,,,,,,,,,,,,,
,6036b55a1bb857e12fb70219,001,2022-04-28_20h12.10.892,classification_task,2021.2.3,Win32,60.57302078,6036b55a1bb857e12fb70219,626b377229c10585ec392f89,626b3aef104fe7502035a0e8,,,,,,,,,,,,,,space,32.4097,4,0,4,0,1,,,,,,,,,,,,,,,,,,,,,,,,,,,,,,,,,,,,,,,,,,,,,,,,
,6036b55a1bb857e12fb70219,001,2022-04-28_20h12.10.892,classification_task,2021.2.3,Win32,60.57302078,6036b55a1bb857e12fb70219,626b377229c10585ec392f89,626b3aef104fe7502035a0e8,,,,,,,,,,,,,,,,,,,,,space,90.4949,a,0,2.2791,"[""0.060"",""0.362"",""0.787"",""0.693""]","[1,1,0,1]",0,0,0,0,1,1,1,,,1,FALSE,,,,,,,,,,,,,,,,,,,,,,,,,,,,,,
,6036b55a1bb857e12fb70219,001,2022-04-28_20h12.10.892,classification_task,2021.2.3,Win32,60.57302078,6036b55a1bb857e12fb70219,626b377229c10585ec392f89,626b3aef104fe7502035a0e8,,,,,,,,,,,,,,,,,,,,,,,a,0,1.4164,"[""0.788"",""0.362"",""0.636"",""0.693""]","[0,1,1,1]",0,1,1,1,1,1,1,,,1,FALSE,,,,,,,,,,,,,,,,,,,,,,,,,,,,,,
,6036b55a1bb857e12fb70219,001,2022-04-28_20h12.10.892,classification_task,2021.2.3,Win32,60.57302078,6036b55a1bb857e12fb70219,626b377229c10585ec392f89,626b3aef104fe7502035a0e8,,,,,,,,,,,,,,,,,,,,,,,a,1,1.9178,"[""0.787"",""0.437"",""0.739"",""0.913""]","[0,1,1,1]",0,2,2,2,1,0,1,,,1,FALSE,,,,,,,,,,,,,,,,,,,,,,,,,,,,,,
,6036b55a1bb857e12fb70219,001,2022-04-28_20h12.10.892,classification_task,2021.2.3,Win32,60.57302078,6036b55a1bb857e12fb70219,626b377229c10585ec392f89,626b3aef104fe7502035a0e8,,,,,,,,,,,,,,,,,,,,,,,l,0,0.8983,"[""0.288"",""0.437"",""0.739"",""0.148""]","[1,1,1,0]",0,3,3,3,1,0,1,,,1,FALSE,,,,,,,,,,,,,,,,,,,,,,,,,,,,,,
,6036b55a1bb857e12fb70219,001,2022-04-28_20h12.10.892,classification_task,2021.2.3,Win32,60.57302078,6036b55a1bb857e12fb70219,626b377229c10585ec392f89,626b3aef104fe7502035a0e8,,,,,,,,,,,,,,,,,,,,,,,l,1,2.8311,"[""0.100"",""0.781"",""0.591"",""0.832""]","[1,0,1,1]",0,4,4,4,1,1,0,,,1,FALSE,,,,,,,,,,,,,,,,,,,,,,,,,,,,,,
,6036b55a1bb857e12fb70219,001,2022-04-28_20h12.10.892,classification_task,2021.2.3,Win32,60.57302078,6036b55a1bb857e12fb70219,626b377229c10585ec392f89,626b3aef104fe7502035a0e8,,,,,,,,,,,,,,,,,,,,,,,a,0,1.8458,"[""0.100"",""0.243"",""0.542"",""0.832""]","[1,1,0,1]",0,5,5,5,1,1,0,,,1,FALSE,,,,,,,,,,,,,,,,,,,,,,,,,,,,,,
,6036b55a1bb857e12fb70219,001,2022-04-28_20h12.10.892,classification_task,2021.2.3,Win32,60.57302078,6036b55a1bb857e12fb70219,626b377229c10585ec392f89,626b3aef104fe7502035a0e8,,,,,,,,,,,,,,,,,,,,,,,l,0,1.163,"[""0.288"",""0.437"",""0.775"",""0.913""]","[1,1,0,1]",0,6,6,6,1,0,1,,,1,FALSE,,,,,,,,,,,,,,,,,,,,,,,,,,,,,,
,6036b55a1bb857e12fb70219,001,2022-04-28_20h12.10.892,classification_task,2021.2.3,Win32,60.57302078,6036b55a1bb857e12fb70219,626b377229c10585ec392f89,626b3aef104fe7502035a0e8,,,,,,,,,,,,,,,,,,,,,,,l,1,1.2996,"[""0.060"",""0.362"",""0.636"",""0.775""]","[1,1,1,0]",0,7,7,7,1,1,1,,,1,FALSE,,,,,,,,,,,,,,,,,,,,,,,,,,,,,,
,6036b55a1bb857e12fb70219,001,2022-04-28_20h12.10.892,classification_task,2021.2.3,Win32,60.57302078,6036b55a1bb857e12fb70219,626b377229c10585ec392f89,626b3aef104fe7502035a0e8,,,,,,,,,,,,,,,,,,,,,,,a,0,2.1001,"[""0.060"",""0.775"",""0.636"",""0.693""]","[1,0,1,1]",0,8,8,8,1,1,1,,,1,FALSE,,,,,,,,,,,,,,,,,,,,,,,,,,,,,,
,6036b55a1bb857e12fb70219,001,2022-04-28_20h12.10.892,classification_task,2021.2.3,Win32,60.57302078,6036b55a1bb857e12fb70219,626b377229c10585ec392f89,626b3aef104fe7502035a0e8,,,,,,,,,,,,,,,,,,,,,,,a,1,3.0275,"[""0.198"",""0.395"",""0.877"",""0.956""]","[1,0,1,1]",0,9,9,9,1,0,0,,,1,FALSE,,,,,,,,,,,,,,,,,,,,,,,,,,,,,,
,6036b55a1bb857e12fb70219,001,2022-04-28_20h12.10.892,classification_task,2021.2.3,Win32,60.57302078,6036b55a1bb857e12fb70219,626b377229c10585ec392f89,626b3aef104fe7502035a0e8,,,,,,,,,,,,,,,,,,,,,,,l,1,0.9142,"[""0.100"",""0.243"",""0.591"",""0.327""]","[1,1,1,0]",0,10,10,10,1,1,0,,,1,FALSE,,,,,,,,,,,,,,,,,,,,,,,,,,,,,,
,6036b55a1bb857e12fb70219,001,2022-04-28_20h12.10.892,classification_task,2021.2.3,Win32,60.57302078,6036b55a1bb857e12fb70219,626b377229c10585ec392f89,626b3aef104fe7502035a0e8,,,,,,,,,,,,,,,,,,,,,,,l,0,1.099,"[""0.198"",""0.495"",""0.877"",""0.163""]","[1,1,1,0]",0,11,11,11,1,0,0,,,1,FALSE,,,,,,,,,,,,,,,,,,,,,,,,,,,,,,
,6036b55a1bb857e12fb70219,001,2022-04-28_20h12.10.892,classification_task,2021.2.3,Win32,60.57302078,6036b55a1bb857e12fb70219,626b377229c10585ec392f89,626b3aef104fe7502035a0e8,,,,,,,,,,,,,,,,,,,,,,,l,1,0.9825,"[""0.791"",""0.243"",""0.591"",""0.832""]","[0,1,1,1]",0,12,12,12,1,1,0,,,1,FALSE,,,,,,,,,,,,,,,,,,,,,,,,,,,,,,
,6036b55a1bb857e12fb70219,001,2022-04-28_20h12.10.892,classification_task,2021.2.3,Win32,60.57302078,6036b55a1bb857e12fb70219,626b377229c10585ec392f89,626b3aef104fe7502035a0e8,,,,,,,,,,,,,,,,,,,,,,,a,1,0.9493,"[""0.787"",""0.495"",""0.877"",""0.956""]","[0,1,1,1]",0,13,13,13,1,0,0,,,1,FALSE,,,,,,,,,,,,,,,,,,,,,,,,,,,,,,
,6036b55a1bb857e12fb70219,001,2022-04-28_20h12.10.892,classification_task,2021.2.3,Win32,60.57302078,6036b55a1bb857e12fb70219,626b377229c10585ec392f89,626b3aef104fe7502035a0e8,,,,,,,,,,,,,,,,,,,,,,,l,0,1.1305,"[""0.198"",""0.495"",""0.322"",""0.956""]","[1,1,0,1]",0,14,14,14,1,0,0,,,1,FALSE,,,,,,,,,,,,,,,,,,,,,,,,,,,,,,
,6036b55a1bb857e12fb70219,001,2022-04-28_20h12.10.892,classification_task,2021.2.3,Win32,60.57302078,6036b55a1bb857e12fb70219,626b377229c10585ec392f89,626b3aef104fe7502035a0e8,,,,,,,,,,,,,,,,,,,,,,,l,0,1.1295,"[""0.288"",""0.148"",""0.739"",""0.913""]","[1,0,1,1]",0,15,15,15,1,0,1,,,1,FALSE,,,,,,,,,,,,,,,,,,,,,,,,,,,,,,
,6036b55a1bb857e12fb70219,001,2022-04-28_20h12.10.892,classification_task,2021.2.3,Win32,60.57302078,6036b55a1bb857e12fb70219,626b377229c10585ec392f89,626b3aef104fe7502035a0e8,,,,,,,,,,,,,,,,,,,,,,,l,1,1.3158,"[""0.060"",""0.395"",""0.636"",""0.693""]","[1,0,1,1]",0,16,16,16,1,1,1,,,1,FALSE,,,,,,,,,,,,,,,,,,,,,,,,,,,,,,
,6036b55a1bb857e12fb70219,001,2022-04-28_20h12.10.892,classification_task,2021.2.3,Win32,60.57302078,6036b55a1bb857e12fb70219,626b377229c10585ec392f89,626b3aef104fe7502035a0e8,,,,,,,,,,,,,,,,,,,,,,,l,1,1.7663,"[""0.060"",""0.362"",""0.636"",""0.786""]","[1,1,1,0]",0,17,17,17,1,1,1,,,1,FALSE,,,,,,,,,,,,,,,,,,,,,,,,,,,,,,
,6036b55a1bb857e12fb70219,001,2022-04-28_20h12.10.892,classification_task,2021.2.3,Win32,60.57302078,6036b55a1bb857e12fb70219,626b377229c10585ec392f89,626b3aef104fe7502035a0e8,,,,,,,,,,,,,,,,,,,,,,,a,0,1.1255,"[""0.100"",""0.243"",""0.154"",""0.832""]","[1,1,0,1]",0,18,18,18,1,1,0,,,1,FALSE,,,,,,,,,,,,,,,,,,,,,,,,,,,,,,
,6036b55a1bb857e12fb70219,001,2022-04-28_20h12.10.892,classification_task,2021.2.3,Win32,60.57302078,6036b55a1bb857e12fb70219,626b377229c10585ec392f89,626b3aef104fe7502035a0e8,,,,,,,,,,,,,,,,,,,,,,,a,1,0.7833,"[""0.198"",""0.495"",""0.877"",""0.786""]","[1,1,1,0]",0,19,19,19,1,0,0,,,1,FALSE,,,,,,,,,,,,,,,,,,,,,,,,,,,,,,
,6036b55a1bb857e12fb70219,001,2022-04-28_20h12.10.892,classification_task,2021.2.3,Win32,60.57302078,6036b55a1bb857e12fb70219,626b377229c10585ec392f89,626b3aef104fe7502035a0e8,,,,,,,,,,,,,,,,,,,,,,,l,1,0.9766,"[""0.146"",""0.362"",""0.636"",""0.693""]","[0,1,1,1]",0,20,20,20,1,1,1,,,1,FALSE,,,,,,,,,,,,,,,,,,,,,,,,,,,,,,
,6036b55a1bb857e12fb70219,001,2022-04-28_20h12.10.892,classification_task,2021.2.3,Win32,60.57302078,6036b55a1bb857e12fb70219,626b377229c10585ec392f89,626b3aef104fe7502035a0e8,,,,,,,,,,,,,,,,,,,,,,,a,0,4.0262,"[""0.327"",""0.243"",""0.591"",""0.832""]","[0,1,1,1]",0,21,21,21,1,1,0,,,1,FALSE,,,,,,,,,,,,,,,,,,,,,,,,,,,,,,
,6036b55a1bb857e12fb70219,001,2022-04-28_20h12.10.892,classification_task,2021.2.3,Win32,60.57302078,6036b55a1bb857e12fb70219,626b377229c10585ec392f89,626b3aef104fe7502035a0e8,,,,,,,,,,,,,,,,,,,,,,,a,1,1.1109,"[""0.288"",""0.437"",""0.739"",""0.791""]","[1,1,1,0]",0,22,22,22,1,0,1,,,1,FALSE,,,,,,,,,,,,,,,,,,,,,,,,,,,,,,
,6036b55a1bb857e12fb70219,001,2022-04-28_20h12.10.892,classification_task,2021.2.3,Win32,60.57302078,6036b55a1bb857e12fb70219,626b377229c10585ec392f89,626b3aef104fe7502035a0e8,,,,,,,,,,,,,,,,,,,,,,,l,0,1.5162,"[""0.547"",""0.437"",""0.739"",""0.913""]","[0,1,1,1]",0,23,23,23,1,0,1,,,1,FALSE,,,,,,,,,,,,,,,,,,,,,,,,,,,,,,
,6036b55a1bb857e12fb70219,001,2022-04-28_20h12.10.892,classification_task,2021.2.3,Win32,60.57302078,6036b55a1bb857e12fb70219,626b377229c10585ec392f89,626b3aef104fe7502035a0e8,,,,,,,,,,,,,,,,,,,,,,,l,0,0.9322,"[""0.288"",""0.437"",""0.322"",""0.913""]","[1,1,0,1]",0,24,24,24,1,0,1,,,1,FALSE,,,,,,,,,,,,,,,,,,,,,,,,,,,,,,
,6036b55a1bb857e12fb70219,001,2022-04-28_20h12.10.892,classification_task,2021.2.3,Win32,60.57302078,6036b55a1bb857e12fb70219,626b377229c10585ec392f89,626b3aef104fe7502035a0e8,,,,,,,,,,,,,,,,,,,,,,,l,1,0.9265,"[""0.100"",""0.243"",""0.591"",""0.791""]","[1,1,1,0]",0,25,25,25,1,1,0,,,1,FALSE,,,,,,,,,,,,,,,,,,,,,,,,,,,,,,
,6036b55a1bb857e12fb70219,001,2022-04-28_20h12.10.892,classification_task,2021.2.3,Win32,60.57302078,6036b55a1bb857e12fb70219,626b377229c10585ec392f89,626b3aef104fe7502035a0e8,,,,,,,,,,,,,,,,,,,,,,,a,1,0.4751,"[""0.288"",""0.787"",""0.739"",""0.913""]","[1,0,1,1]",0,26,26,26,1,0,1,,,1,FALSE,,,,,,,,,,,,,,,,,,,,,,,,,,,,,,
,6036b55a1bb857e12fb70219,001,2022-04-28_20h12.10.892,classification_task,2021.2.3,Win32,60.57302078,6036b55a1bb857e12fb70219,626b377229c10585ec392f89,626b3aef104fe7502035a0e8,,,,,,,,,,,,,,,,,,,,,,,l,1,0.6512,"[""0.060"",""0.362"",""0.775"",""0.693""]","[1,1,0,1]",0,27,27,27,1,1,1,,,1,FALSE,,,,,,,,,,,,,,,,,,,,,,,,,,,,,,
,6036b55a1bb857e12fb70219,001,2022-04-28_20h12.10.892,classification_task,2021.2.3,Win32,60.57302078,6036b55a1bb857e12fb70219,626b377229c10585ec392f89,626b3aef104fe7502035a0e8,,,,,,,,,,,,,,,,,,,,,,,l,0,0.7258,"[""0.198"",""0.534"",""0.877"",""0.956""]","[1,0,1,1]",0,28,28,28,1,0,0,,,1,FALSE,,,,,,,,,,,,,,,,,,,,,,,,,,,,,,
,6036b55a1bb857e12fb70219,001,2022-04-28_20h12.10.892,classification_task,2021.2.3,Win32,60.57302078,6036b55a1bb857e12fb70219,626b377229c10585ec392f89,626b3aef104fe7502035a0e8,,,,,,,,,,,,,,,,,,,,,,,a,1,0.766,"[""0.775"",""0.495"",""0.877"",""0.956""]","[0,1,1,1]",0,29,29,29,1,0,0,,,1,FALSE,,,,,,,,,,,,,,,,,,,,,,,,,,,,,,
,6036b55a1bb857e12fb70219,001,2022-04-28_20h12.10.892,classification_task,2021.2.3,Win32,60.57302078,6036b55a1bb857e12fb70219,626b377229c10585ec392f89,626b3aef104fe7502035a0e8,,,,,,,,,,,,,,,,,,,,,,,a,0,0.7158,"[""0.100"",""0.788"",""0.591"",""0.832""]","[1,0,1,1]",0,30,30,30,1,1,0,,,1,FALSE,,,,,,,,,,,,,,,,,,,,,,,,,,,,,,
,6036b55a1bb857e12fb70219,001,2022-04-28_20h12.10.892,classification_task,2021.2.3,Win32,60.57302078,6036b55a1bb857e12fb70219,626b377229c10585ec392f89,626b3aef104fe7502035a0e8,,,,,,,,,,,,,,,,,,,,,,,l,0,0.8994,"[""0.198"",""0.495"",""0.154"",""0.956""]","[1,1,0,1]",0,31,31,31,1,0,0,,,1,FALSE,,,,,,,,,,,,,,,,,,,,,,,,,,,,,,
,6036b55a1bb857e12fb70219,001,2022-04-28_20h12.10.892,classification_task,2021.2.3,Win32,60.57302078,6036b55a1bb857e12fb70219,626b377229c10585ec392f89,626b3aef104fe7502035a0e8,,,,,,,,,,,,,,,,,,,,,,,a,0,1.71,"[""0.060"",""0.362"",""0.395"",""0.693""]","[1,1,0,1]",0,32,32,32,1,1,1,,,1,FALSE,,,,,,,,,,,,,,,,,,,,,,,,,,,,,,
,6036b55a1bb857e12fb70219,001,2022-04-28_20h12.10.892,classification_task,2021.2.3,Win32,60.57302078,6036b55a1bb857e12fb70219,626b377229c10585ec392f89,626b3aef104fe7502035a0e8,,,,,,,,,,,,,,,,,,,,,,,l,0,1.2656,"[""0.288"",""0.437"",""0.148"",""0.913""]","[1,1,0,1]",0,33,33,33,1,0,1,,,1,FALSE,,,,,,,,,,,,,,,,,,,,,,,,,,,,,,
,6036b55a1bb857e12fb70219,001,2022-04-28_20h12.10.892,classification_task,2021.2.3,Win32,60.57302078,6036b55a1bb857e12fb70219,626b377229c10585ec392f89,626b3aef104fe7502035a0e8,,,,,,,,,,,,,,,,,,,,,,,l,1,1.2991,"[""0.100"",""0.243"",""0.148"",""0.832""]","[1,1,0,1]",0,34,34,34,1,1,0,,,1,FALSE,,,,,,,,,,,,,,,,,,,,,,,,,,,,,,
,6036b55a1bb857e12fb70219,001,2022-04-28_20h12.10.892,classification_task,2021.2.3,Win32,60.57302078,6036b55a1bb857e12fb70219,626b377229c10585ec392f89,626b3aef104fe7502035a0e8,,,,,,,,,,,,,,,,,,,,,,,a,1,0.7826,"[""0.327"",""0.495"",""0.877"",""0.956""]","[0,1,1,1]",0,35,35,35,1,0,0,,,1,FALSE,,,,,,,,,,,,,,,,,,,,,,,,,,,,,,
,6036b55a1bb857e12fb70219,001,2022-04-28_20h12.10.892,classification_task,2021.2.3,Win32,60.57302078,6036b55a1bb857e12fb70219,626b377229c10585ec392f89,626b3aef104fe7502035a0e8,,,,,,,,,,,,,,,,,,,,,,,a,1,0.7154,"[""0.788"",""0.437"",""0.739"",""0.913""]","[0,1,1,1]",0,36,36,36,1,0,1,,,1,FALSE,,,,,,,,,,,,,,,,,,,,,,,,,,,,,,
,6036b55a1bb857e12fb70219,001,2022-04-28_20h12.10.892,classification_task,2021.2.3,Win32,60.57302078,6036b55a1bb857e12fb70219,626b377229c10585ec392f89,626b3aef104fe7502035a0e8,,,,,,,,,,,,,,,,,,,,,,,l,0,0.7651,"[""0.198"",""0.495"",""0.877"",""0.775""]","[1,1,1,0]",0,37,37,37,1,0,0,,,1,FALSE,,,,,,,,,,,,,,,,,,,,,,,,,,,,,,
,6036b55a1bb857e12fb70219,001,2022-04-28_20h12.10.892,classification_task,2021.2.3,Win32,60.57302078,6036b55a1bb857e12fb70219,626b377229c10585ec392f89,626b3aef104fe7502035a0e8,,,,,,,,,,,,,,,,,,,,,,,l,0,0.8658,"[""0.198"",""0.495"",""0.534"",""0.956""]","[1,1,0,1]",0,38,38,38,1,0,0,,,1,FALSE,,,,,,,,,,,,,,,,,,,,,,,,,,,,,,
,6036b55a1bb857e12fb70219,001,2022-04-28_20h12.10.892,classification_task,2021.2.3,Win32,60.57302078,6036b55a1bb857e12fb70219,626b377229c10585ec392f89,626b3aef104fe7502035a0e8,,,,,,,,,,,,,,,,,,,,,,,l,0,0.9149,"[""0.288"",""0.437"",""0.739"",""0.322""]","[1,1,1,0]",0,39,39,39,1,0,1,,,1,FALSE,,,,,,,,,,,,,,,,,,,,,,,,,,,,,,
,6036b55a1bb857e12fb70219,001,2022-04-28_20h12.10.892,classification_task,2021.2.3,Win32,60.57302078,6036b55a1bb857e12fb70219,626b377229c10585ec392f89,626b3aef104fe7502035a0e8,,,,,,,,,,,,,,,,,,,,,,,a,0,0.533,"[""0.791"",""0.243"",""0.591"",""0.832""]","[0,1,1,1]",0,40,40,40,1,1,0,,,1,FALSE,,,,,,,,,,,,,,,,,,,,,,,,,,,,,,
,6036b55a1bb857e12fb70219,001,2022-04-28_20h12.10.892,classification_task,2021.2.3,Win32,60.57302078,6036b55a1bb857e12fb70219,626b377229c10585ec392f89,626b3aef104fe7502035a0e8,,,,,,,,,,,,,,,,,,,,,,,a,0,0.8327,"[""0.100"",""0.148"",""0.591"",""0.832""]","[1,0,1,1]",0,41,41,41,1,1,0,,,1,FALSE,,,,,,,,,,,,,,,,,,,,,,,,,,,,,,
,6036b55a1bb857e12fb70219,001,2022-04-28_20h12.10.892,classification_task,2021.2.3,Win32,60.57302078,6036b55a1bb857e12fb70219,626b377229c10585ec392f89,626b3aef104fe7502035a0e8,,,,,,,,,,,,,,,,,,,,,,,l,1,1.7153,"[""0.060"",""0.362"",""0.636"",""0.395""]","[1,1,1,0]",0,42,42,42,1,1,1,,,1,FALSE,,,,,,,,,,,,,,,,,,,,,,,,,,,,,,
,6036b55a1bb857e12fb70219,001,2022-04-28_20h12.10.892,classification_task,2021.2.3,Win32,60.57302078,6036b55a1bb857e12fb70219,626b377229c10585ec392f89,626b3aef104fe7502035a0e8,,,,,,,,,,,,,,,,,,,,,,,a,0,1.3972,"[""0.534"",""0.362"",""0.636"",""0.693""]","[0,1,1,1]",0,43,43,43,1,1,1,,,1,FALSE,,,,,,,,,,,,,,,,,,,,,,,,,,,,,,
,6036b55a1bb857e12fb70219,001,2022-04-28_20h12.10.892,classification_task,2021.2.3,Win32,60.57302078,6036b55a1bb857e12fb70219,626b377229c10585ec392f89,626b3aef104fe7502035a0e8,,,,,,,,,,,,,,,,,,,,,,,a,1,0.7662,"[""0.288"",""0.775"",""0.739"",""0.913""]","[1,0,1,1]",0,44,44,44,1,0,1,,,1,FALSE,,,,,,,,,,,,,,,,,,,,,,,,,,,,,,
,6036b55a1bb857e12fb70219,001,2022-04-28_20h12.10.892,classification_task,2021.2.3,Win32,60.57302078,6036b55a1bb857e12fb70219,626b377229c10585ec392f89,626b3aef104fe7502035a0e8,,,,,,,,,,,,,,,,,,,,,,,l,1,0.7318,"[""0.060"",""0.148"",""0.636"",""0.693""]","[1,0,1,1]",0,45,45,45,1,1,1,,,1,FALSE,,,,,,,,,,,,,,,,,,,,,,,,,,,,,,
,6036b55a1bb857e12fb70219,001,2022-04-28_20h12.10.892,classification_task,2021.2.3,Win32,60.57302078,6036b55a1bb857e12fb70219,626b377229c10585ec392f89,626b3aef104fe7502035a0e8,,,,,,,,,,,,,,,,,,,,,,,l,1,1.0498,"[""0.100"",""0.243"",""0.591"",""0.786""]","[1,1,1,0]",0,46,46,46,1,1,0,,,1,FALSE,,,,,,,,,,,,,,,,,,,,,,,,,,,,,,
,6036b55a1bb857e12fb70219,001,2022-04-28_20h12.10.892,classification_task,2021.2.3,Win32,60.57302078,6036b55a1bb857e12fb70219,626b377229c10585ec392f89,626b3aef104fe7502035a0e8,,,,,,,,,,,,,,,,,,,,,,,a,1,0.5491,"[""0.198"",""0.791"",""0.877"",""0.956""]","[1,0,1,1]",0,47,47,47,1,0,0,,,1,FALSE,,,,,,,,,,,,,,,,,,,,,,,,,,,,,,
,6036b55a1bb857e12fb70219,001,2022-04-28_20h12.10.892,classification_task,2021.2.3,Win32,60.57302078,6036b55a1bb857e12fb70219,626b377229c10585ec392f89,626b3aef104fe7502035a0e8,,,,,,,,,,,,,,,,,,,,,,,a,1,0.799,"[""0.146"",""0.495"",""0.877"",""0.956""]","[0,1,1,1]",0,48,48,48,1,0,0,,,1,FALSE,,,,,,,,,,,,,,,,,,,,,,,,,,,,,,
,6036b55a1bb857e12fb70219,001,2022-04-28_20h12.10.892,classification_task,2021.2.3,Win32,60.57302078,6036b55a1bb857e12fb70219,626b377229c10585ec392f89,626b3aef104fe7502035a0e8,,,,,,,,,,,,,,,,,,,,,,,l,1,1.4669,"[""0.100"",""0.395"",""0.591"",""0.832""]","[1,0,1,1]",0,49,49,49,1,1,0,,,1,FALSE,,,,,,,,,,,,,,,,,,,,,,,,,,,,,,
,6036b55a1bb857e12fb70219,001,2022-04-28_20h12.10.892,classification_task,2021.2.3,Win32,60.57302078,6036b55a1bb857e12fb70219,626b377229c10585ec392f89,626b3aef104fe7502035a0e8,,,,,,,,,,,,,,,,,,,,,,,a,0,1.0835,"[""0.060"",""0.362"",""0.775"",""0.693""]","[1,1,0,1]",0,50,50,50,1,1,1,,,1,FALSE,,,,,,,,,,,,,,,,,,,,,,,,,,,,,,
,6036b55a1bb857e12fb70219,001,2022-04-28_20h12.10.892,classification_task,2021.2.3,Win32,60.57302078,6036b55a1bb857e12fb70219,626b377229c10585ec392f89,626b3aef104fe7502035a0e8,,,,,,,,,,,,,,,,,,,,,,,l,1,1.6494,"[""0.327"",""0.362"",""0.636"",""0.693""]","[0,1,1,1]",0,51,51,51,1,1,1,,,1,FALSE,,,,,,,,,,,,,,,,,,,,,,,,,,,,,,
,6036b55a1bb857e12fb70219,001,2022-04-28_20h12.10.892,classification_task,2021.2.3,Win32,60.57302078,6036b55a1bb857e12fb70219,626b377229c10585ec392f89,626b3aef104fe7502035a0e8,,,,,,,,,,,,,,,,,,,,,,,l,0,2.4318,"[""0.288"",""0.437"",""0.739"",""0.163""]","[1,1,1,0]",0,52,52,52,1,0,1,,,1,FALSE,,,,,,,,,,,,,,,,,,,,,,,,,,,,,,
,6036b55a1bb857e12fb70219,001,2022-04-28_20h12.10.892,classification_task,2021.2.3,Win32,60.57302078,6036b55a1bb857e12fb70219,626b377229c10585ec392f89,626b3aef104fe7502035a0e8,,,,,,,,,,,,,,,,,,,,,,,l,0,1.6123,"[""0.198"",""0.495"",""0.148"",""0.956""]","[1,1,0,1]",0,53,53,53,1,0,0,,,1,FALSE,,,,,,,,,,,,,,,,,,,,,,,,,,,,,,
,6036b55a1bb857e12fb70219,001,2022-04-28_20h12.10.892,classification_task,2021.2.3,Win32,60.57302078,6036b55a1bb857e12fb70219,626b377229c10585ec392f89,626b3aef104fe7502035a0e8,,,,,,,,,,,,,,,,,,,,,,,a,0,0.7495,"[""0.060"",""0.362"",""0.636"",""0.547""]","[1,1,1,0]",0,54,54,54,1,1,1,,,1,FALSE,,,,,,,,,,,,,,,,,,,,,,,,,,,,,,
,6036b55a1bb857e12fb70219,001,2022-04-28_20h12.10.892,classification_task,2021.2.3,Win32,60.57302078,6036b55a1bb857e12fb70219,626b377229c10585ec392f89,626b3aef104fe7502035a0e8,,,,,,,,,,,,,,,,,,,,,,,a,1,0.5654,"[""0.198"",""0.547"",""0.877"",""0.956""]","[1,0,1,1]",0,55,55,55,1,0,0,,,1,FALSE,,,,,,,,,,,,,,,,,,,,,,,,,,,,,,
,6036b55a1bb857e12fb70219,001,2022-04-28_20h12.10.892,classification_task,2021.2.3,Win32,60.57302078,6036b55a1bb857e12fb70219,626b377229c10585ec392f89,626b3aef104fe7502035a0e8,,,,,,,,,,,,,,,,,,,,,,,a,1,0.7656,"[""0.146"",""0.437"",""0.739"",""0.913""]","[0,1,1,1]",0,56,56,56,1,0,1,,,1,FALSE,,,,,,,,,,,,,,,,,,,,,,,,,,,,,,
,6036b55a1bb857e12fb70219,001,2022-04-28_20h12.10.892,classification_task,2021.2.3,Win32,60.57302078,6036b55a1bb857e12fb70219,626b377229c10585ec392f89,626b3aef104fe7502035a0e8,,,,,,,,,,,,,,,,,,,,,,,l,1,1.2821,"[""0.100"",""0.243"",""0.791"",""0.832""]","[1,1,0,1]",0,57,57,57,1,1,0,,,1,FALSE,,,,,,,,,,,,,,,,,,,,,,,,,,,,,,
,6036b55a1bb857e12fb70219,001,2022-04-28_20h12.10.892,classification_task,2021.2.3,Win32,60.57302078,6036b55a1bb857e12fb70219,626b377229c10585ec392f89,626b3aef104fe7502035a0e8,,,,,,,,,,,,,,,,,,,,,,,l,0,0.866,"[""0.198"",""0.495"",""0.877"",""0.542""]","[1,1,1,0]",0,58,58,58,1,0,0,,,1,FALSE,,,,,,,,,,,,,,,,,,,,,,,,,,,,,,
,6036b55a1bb857e12fb70219,001,2022-04-28_20h12.10.892,classification_task,2021.2.3,Win32,60.57302078,6036b55a1bb857e12fb70219,626b377229c10585ec392f89,626b3aef104fe7502035a0e8,,,,,,,,,,,,,,,,,,,,,,,l,0,0.8496,"[""0.288"",""0.437"",""0.542"",""0.913""]","[1,1,0,1]",0,59,59,59,1,0,1,,,1,FALSE,,,,,,,,,,,,,,,,,,,,,,,,,,,,,,
,6036b55a1bb857e12fb70219,001,2022-04-28_20h12.10.892,classification_task,2021.2.3,Win32,60.57302078,6036b55a1bb857e12fb70219,626b377229c10585ec392f89,626b3aef104fe7502035a0e8,,,,,,,,,,,,,,,,,,,,,,,l,1,0.6498,"[""0.395"",""0.243"",""0.591"",""0.832""]","[0,1,1,1]",0,60,60,60,1,1,0,,,1,FALSE,,,,,,,,,,,,,,,,,,,,,,,,,,,,,,
,6036b55a1bb857e12fb70219,001,2022-04-28_20h12.10.892,classification_task,2021.2.3,Win32,60.57302078,6036b55a1bb857e12fb70219,626b377229c10585ec392f89,626b3aef104fe7502035a0e8,,,,,,,,,,,,,,,,,,,,,,,a,1,0.7322,"[""0.288"",""0.788"",""0.739"",""0.913""]","[1,0,1,1]",0,61,61,61,1,0,1,,,1,FALSE,,,,,,,,,,,,,,,,,,,,,,,,,,,,,,
,6036b55a1bb857e12fb70219,001,2022-04-28_20h12.10.892,classification_task,2021.2.3,Win32,60.57302078,6036b55a1bb857e12fb70219,626b377229c10585ec392f89,626b3aef104fe7502035a0e8,,,,,,,,,,,,,,,,,,,,,,,a,0,0.5656,"[""0.060"",""0.534"",""0.636"",""0.693""]","[1,0,1,1]",0,62,62,62,1,1,1,,,1,FALSE,,,,,,,,,,,,,,,,,,,,,,,,,,,,,,
,6036b55a1bb857e12fb70219,001,2022-04-28_20h12.10.892,classification_task,2021.2.3,Win32,60.57302078,6036b55a1bb857e12fb70219,626b377229c10585ec392f89,626b3aef104fe7502035a0e8,,,,,,,,,,,,,,,,,,,,,,,l,1,0.5511,"[""0.100"",""0.243"",""0.591"",""0.786""]","[1,1,1,0]",0,63,63,63,1,1,0,,,1,FALSE,,,,,,,,,,,,,,,,,,,,,,,,,,,,,,
,6036b55a1bb857e12fb70219,001,2022-04-28_20h12.10.892,classification_task,2021.2.3,Win32,60.57302078,6036b55a1bb857e12fb70219,626b377229c10585ec392f89,626b3aef104fe7502035a0e8,,,,,,,,,,,,,,,,,,,,,,,,,,,,,,,,,,,,,,,0, ,,0,8.625319188,526.3297,0,0,0,0,1,2,1,,,,,,,,,,,,,,,,,
,6036b55a1bb857e12fb70219,001,2022-04-28_20h12.10.892,classification_task,2021.2.3,Win32,60.57302078,6036b55a1bb857e12fb70219,626b377229c10585ec392f89,626b3aef104fe7502035a0e8,,,,,,,,,,,,,,,,,,,,,,,,,,,,,,,,,,,,,,,1,  ,,0,5.220458554,538.5752,0,0,0,0,1,2,1,,,,,,,,,,,,,,,,,
,6036b55a1bb857e12fb70219,001,2022-04-28_20h12.10.892,classification_task,2021.2.3,Win32,60.57302078,6036b55a1bb857e12fb70219,626b377229c10585ec392f89,626b3aef104fe7502035a0e8,,,,,,,,,,,,,,,,,,,,,,,,,,,,,,,,,,,,,,,2,  ,,0,7.37605405,556.8273,0,0,0,0,1,2,1,,,,,,,,,,,,,,,,,
,6036b55a1bb857e12fb70219,001,2022-04-28_20h12.10.892,classification_task,2021.2.3,Win32,60.57302078,6036b55a1bb857e12fb70219,626b377229c10585ec392f89,626b3aef104fe7502035a0e8,,,,,,,,,,,,,,,,,,,,,,,,,,,,,,,,,,,,,,,,,,,,,0,0,0,0,1,,1,,,,,,,,,,,,,,,,,
,6036b55a1bb857e12fb70219,001,2022-04-28_20h12.10.892,classification_task,2021.2.3,Win32,60.57302078,6036b55a1bb857e12fb70219,626b377229c10585ec392f89,626b3aef104fe7502035a0e8,,,,,,,,,,,,,,,,,,,,,space,14.5582,l,0,2.4854,"[""0.146"",""0.495"",""0.877"",""0.956""]","[0,1,1,1]",0,0,0,0,1,0,0,,,1,FALSE,,,,,,,,,,,,,,,,,,,,,,,,,,,,,,
,6036b55a1bb857e12fb70219,001,2022-04-28_20h12.10.892,classification_task,2021.2.3,Win32,60.57302078,6036b55a1bb857e12fb70219,626b377229c10585ec392f89,626b3aef104fe7502035a0e8,,,,,,,,,,,,,,,,,,,,,,,l,0,0.7658,"[""0.198"",""0.495"",""0.146"",""0.956""]","[1,1,0,1]",0,1,1,1,1,0,0,,,1,FALSE,,,,,,,,,,,,,,,,,,,,,,,,,,,,,,
,6036b55a1bb857e12fb70219,001,2022-04-28_20h12.10.892,classification_task,2021.2.3,Win32,60.57302078,6036b55a1bb857e12fb70219,626b377229c10585ec392f89,626b3aef104fe7502035a0e8,,,,,,,,,,,,,,,,,,,,,,,l,0,1.0151,"[""0.288"",""0.322"",""0.739"",""0.913""]","[1,0,1,1]",0,2,2,2,1,0,1,,,1,FALSE,,,,,,,,,,,,,,,,,,,,,,,,,,,,,,
,6036b55a1bb857e12fb70219,001,2022-04-28_20h12.10.892,classification_task,2021.2.3,Win32,60.57302078,6036b55a1bb857e12fb70219,626b377229c10585ec392f89,626b3aef104fe7502035a0e8,,,,,,,,,,,,,,,,,,,,,,,l,1,0.6328,"[""0.100"",""0.243"",""0.163"",""0.832""]","[1,1,0,1]",0,3,3,3,1,1,0,,,1,FALSE,,,,,,,,,,,,,,,,,,,,,,,,,,,,,,
,6036b55a1bb857e12fb70219,001,2022-04-28_20h12.10.892,classification_task,2021.2.3,Win32,60.57302078,6036b55a1bb857e12fb70219,626b377229c10585ec392f89,626b3aef104fe7502035a0e8,,,,,,,,,,,,,,,,,,,,,,,l,1,0.6497,"[""0.100"",""0.243"",""0.591"",""0.787""]","[1,1,1,0]",0,4,4,4,1,1,0,,,1,FALSE,,,,,,,,,,,,,,,,,,,,,,,,,,,,,,
,6036b55a1bb857e12fb70219,001,2022-04-28_20h12.10.892,classification_task,2021.2.3,Win32,60.57302078,6036b55a1bb857e12fb70219,626b377229c10585ec392f89,626b3aef104fe7502035a0e8,,,,,,,,,,,,,,,,,,,,,,,l,1,1.1656,"[""0.060"",""0.362"",""0.636"",""0.788""]","[1,1,1,0]",0,5,5,5,1,1,1,,,1,FALSE,,,,,,,,,,,,,,,,,,,,,,,,,,,,,,
,6036b55a1bb857e12fb70219,001,2022-04-28_20h12.10.892,classification_task,2021.2.3,Win32,60.57302078,6036b55a1bb857e12fb70219,626b377229c10585ec392f89,626b3aef104fe7502035a0e8,,,,,,,,,,,,,,,,,,,,,,,a,1,1.4664,"[""0.154"",""0.437"",""0.739"",""0.913""]","[0,1,1,1]",0,6,6,6,1,0,1,,,1,FALSE,,,,,,,,,,,,,,,,,,,,,,,,,,,,,,
,6036b55a1bb857e12fb70219,001,2022-04-28_20h12.10.892,classification_task,2021.2.3,Win32,60.57302078,6036b55a1bb857e12fb70219,626b377229c10585ec392f89,626b3aef104fe7502035a0e8,,,,,,,,,,,,,,,,,,,,,,,a,1,1.6013,"[""0.288"",""0.437"",""0.542"",""0.913""]","[1,1,0,1]",0,7,7,7,1,0,1,,,1,FALSE,,,,,,,,,,,,,,,,,,,,,,,,,,,,,,
,6036b55a1bb857e12fb70219,001,2022-04-28_20h12.10.892,classification_task,2021.2.3,Win32,60.57302078,6036b55a1bb857e12fb70219,626b377229c10585ec392f89,626b3aef104fe7502035a0e8,,,,,,,,,,,,,,,,,,,,,,,l,0,1.0162,"[""0.198"",""0.495"",""0.877"",""0.775""]","[1,1,1,0]",0,8,8,8,1,0,0,,,1,FALSE,,,,,,,,,,,,,,,,,,,,,,,,,,,,,,
,6036b55a1bb857e12fb70219,001,2022-04-28_20h12.10.892,classification_task,2021.2.3,Win32,60.57302078,6036b55a1bb857e12fb70219,626b377229c10585ec392f89,626b3aef104fe7502035a0e8,,,,,,,,,,,,,,,,,,,,,,,l,0,1.5011,"[""0.288"",""0.437"",""0.739"",""0.395""]","[1,1,1,0]",0,9,9,9,1,0,1,,,1,FALSE,,,,,,,,,,,,,,,,,,,,,,,,,,,,,,
,6036b55a1bb857e12fb70219,001,2022-04-28_20h12.10.892,classification_task,2021.2.3,Win32,60.57302078,6036b55a1bb857e12fb70219,626b377229c10585ec392f89,626b3aef104fe7502035a0e8,,,,,,,,,,,,,,,,,,,,,,,a,0,1.2797,"[""0.786"",""0.243"",""0.591"",""0.832""]","[0,1,1,1]",0,10,10,10,1,1,0,,,1,FALSE,,,,,,,,,,,,,,,,,,,,,,,,,,,,,,
,6036b55a1bb857e12fb70219,001,2022-04-28_20h12.10.892,classification_task,2021.2.3,Win32,60.57302078,6036b55a1bb857e12fb70219,626b377229c10585ec392f89,626b3aef104fe7502035a0e8,,,,,,,,,,,,,,,,,,,,,,,a,0,0.8659,"[""0.060"",""0.362"",""0.787"",""0.693""]","[1,1,0,1]",0,11,11,11,1,1,1,,,1,FALSE,,,,,,,,,,,,,,,,,,,,,,,,,,,,,,
,6036b55a1bb857e12fb70219,001,2022-04-28_20h12.10.892,classification_task,2021.2.3,Win32,60.57302078,6036b55a1bb857e12fb70219,626b377229c10585ec392f89,626b3aef104fe7502035a0e8,,,,,,,,,,,,,,,,,,,,,,,l,0,1.0492,"[""0.198"",""0.781"",""0.877"",""0.956""]","[1,0,1,1]",0,12,12,12,1,0,0,,,1,FALSE,,,,,,,,,,,,,,,,,,,,,,,,,,,,,,
,6036b55a1bb857e12fb70219,001,2022-04-28_20h12.10.892,classification_task,2021.2.3,Win32,60.57302078,6036b55a1bb857e12fb70219,626b377229c10585ec392f89,626b3aef104fe7502035a0e8,,,,,,,,,,,,,,,,,,,,,,,a,0,0.7657,"[""0.100"",""0.547"",""0.591"",""0.832""]","[1,0,1,1]",0,13,13,13,1,1,0,,,1,FALSE,,,,,,,,,,,,,,,,,,,,,,,,,,,,,,
,6036b55a1bb857e12fb70219,001,2022-04-28_20h12.10.892,classification_task,2021.2.3,Win32,60.57302078,6036b55a1bb857e12fb70219,626b377229c10585ec392f89,626b3aef104fe7502035a0e8,,,,,,,,,,,,,,,,,,,,,,,a,0,0.4819,"[""0.148"",""0.362"",""0.636"",""0.693""]","[0,1,1,1]",0,14,14,14,1,1,1,,,1,FALSE,,,,,,,,,,,,,,,,,,,,,,,,,,,,,,
,6036b55a1bb857e12fb70219,001,2022-04-28_20h12.10.892,classification_task,2021.2.3,Win32,60.57302078,6036b55a1bb857e12fb70219,626b377229c10585ec392f89,626b3aef104fe7502035a0e8,,,,,,,,,,,,,,,,,,,,,,,a,0,0.8992,"[""0.060"",""0.327"",""0.636"",""0.693""]","[1,0,1,1]",0,15,15,15,1,1,1,,,1,FALSE,,,,,,,,,,,,,,,,,,,,,,,,,,,,,,
,6036b55a1bb857e12fb70219,001,2022-04-28_20h12.10.892,classification_task,2021.2.3,Win32,60.57302078,6036b55a1bb857e12fb70219,626b377229c10585ec392f89,626b3aef104fe7502035a0e8,,,,,,,,,,,,,,,,,,,,,,,a,1,0.7822,"[""0.542"",""0.495"",""0.877"",""0.956""]","[0,1,1,1]",0,16,16,16,1,0,0,,,1,FALSE,,,,,,,,,,,,,,,,,,,,,,,,,,,,,,
,6036b55a1bb857e12fb70219,001,2022-04-28_20h12.10.892,classification_task,2021.2.3,Win32,60.57302078,6036b55a1bb857e12fb70219,626b377229c10585ec392f89,626b3aef104fe7502035a0e8,,,,,,,,,,,,,,,,,,,,,,,a,0,1.0655,"[""0.547"",""0.362"",""0.636"",""0.693""]","[0,1,1,1]",0,17,17,17,1,1,1,,,1,FALSE,,,,,,,,,,,,,,,,,,,,,,,,,,,,,,
,6036b55a1bb857e12fb70219,001,2022-04-28_20h12.10.892,classification_task,2021.2.3,Win32,60.57302078,6036b55a1bb857e12fb70219,626b377229c10585ec392f89,626b3aef104fe7502035a0e8,,,,,,,,,,,,,,,,,,,,,,,l,1,0.8499,"[""0.100"",""0.243"",""0.775"",""0.832""]","[1,1,0,1]",0,18,18,18,1,1,0,,,1,FALSE,,,,,,,,,,,,,,,,,,,,,,,,,,,,,,
,6036b55a1bb857e12fb70219,001,2022-04-28_20h12.10.892,classification_task,2021.2.3,Win32,60.57302078,6036b55a1bb857e12fb70219,626b377229c10585ec392f89,626b3aef104fe7502035a0e8,,,,,,,,,,,,,,,,,,,,,,,l,1,1.1321,"[""0.100"",""0.243"",""0.591"",""0.154""]","[1,1,1,0]",0,19,19,19,1,1,0,,,1,FALSE,,,,,,,,,,,,,,,,,,,,,,,,,,,,,,
,6036b55a1bb857e12fb70219,001,2022-04-28_20h12.10.892,classification_task,2021.2.3,Win32,60.57302078,6036b55a1bb857e12fb70219,626b377229c10585ec392f89,626b3aef104fe7502035a0e8,,,,,,,,,,,,,,,,,,,,,,,l,1,2.8001,"[""0.322"",""0.243"",""0.591"",""0.832""]","[0,1,1,1]",0,20,20,20,1,1,0,,,1,FALSE,,,,,,,,,,,,,,,,,,,,,,,,,,,,,,
,6036b55a1bb857e12fb70219,001,2022-04-28_20h12.10.892,classification_task,2021.2.3,Win32,60.57302078,6036b55a1bb857e12fb70219,626b377229c10585ec392f89,626b3aef104fe7502035a0e8,,,,,,,,,,,,,,,,,,,,,,,l,1,1.3628,"[""0.060"",""0.362"",""0.146"",""0.693""]","[1,1,0,1]",0,21,21,21,1,1,1,,,1,FALSE,,,,,,,,,,,,,,,,,,,,,,,,,,,,,,
,6036b55a1bb857e12fb70219,001,2022-04-28_20h12.10.892,classification_task,2021.2.3,Win32,60.57302078,6036b55a1bb857e12fb70219,626b377229c10585ec392f89,626b3aef104fe7502035a0e8,,,,,,,,,,,,,,,,,,,,,,,a,0,0.5496,"[""0.060"",""0.786"",""0.636"",""0.693""]","[1,0,1,1]",0,22,22,22,1,1,1,,,1,FALSE,,,,,,,,,,,,,,,,,,,,,,,,,,,,,,
,6036b55a1bb857e12fb70219,001,2022-04-28_20h12.10.892,classification_task,2021.2.3,Win32,60.57302078,6036b55a1bb857e12fb70219,626b377229c10585ec392f89,626b3aef104fe7502035a0e8,,,,,,,,,,,,,,,,,,,,,,,a,1,0.6987,"[""0.288"",""0.322"",""0.739"",""0.913""]","[1,0,1,1]",0,23,23,23,1,0,1,,,1,FALSE,,,,,,,,,,,,,,,,,,,,,,,,,,,,,,
,6036b55a1bb857e12fb70219,001,2022-04-28_20h12.10.892,classification_task,2021.2.3,Win32,60.57302078,6036b55a1bb857e12fb70219,626b377229c10585ec392f89,626b3aef104fe7502035a0e8,,,,,,,,,,,,,,,,,,,,,,,l,0,1.2825,"[""0.198"",""0.322"",""0.877"",""0.956""]","[1,0,1,1]",0,24,24,24,1,0,0,,,1,FALSE,,,,,,,,,,,,,,,,,,,,,,,,,,,,,,
,6036b55a1bb857e12fb70219,001,2022-04-28_20h12.10.892,classification_task,2021.2.3,Win32,60.57302078,6036b55a1bb857e12fb70219,626b377229c10585ec392f89,626b3aef104fe7502035a0e8,,,,,,,,,,,,,,,,,,,,,,,a,1,0.8163,"[""0.198"",""0.495"",""0.877"",""0.327""]","[1,1,1,0]",0,25,25,25,1,0,0,,,1,FALSE,,,,,,,,,,,,,,,,,,,,,,,,,,,,,,
,6036b55a1bb857e12fb70219,001,2022-04-28_20h12.10.892,classification_task,2021.2.3,Win32,60.57302078,6036b55a1bb857e12fb70219,626b377229c10585ec392f89,626b3aef104fe7502035a0e8,,,,,,,,,,,,,,,,,,,,,,,l,0,1.4998,"[""0.198"",""0.495"",""0.163"",""0.956""]","[1,1,0,1]",0,26,26,26,1,0,0,,,1,FALSE,,,,,,,,,,,,,,,,,,,,,,,,,,,,,,
,6036b55a1bb857e12fb70219,001,2022-04-28_20h12.10.892,classification_task,2021.2.3,Win32,60.57302078,6036b55a1bb857e12fb70219,626b377229c10585ec392f89,626b3aef104fe7502035a0e8,,,,,,,,,,,,,,,,,,,,,,,l,0,1.2989,"[""0.288"",""0.437"",""0.791"",""0.913""]","[1,1,0,1]",0,27,27,27,1,0,1,,,1,FALSE,,,,,,,,,,,,,,,,,,,,,,,,,,,,,,
,6036b55a1bb857e12fb70219,001,2022-04-28_20h12.10.892,classification_task,2021.2.3,Win32,60.57302078,6036b55a1bb857e12fb70219,626b377229c10585ec392f89,626b3aef104fe7502035a0e8,,,,,,,,,,,,,,,,,,,,,,,l,0,0.967,"[""0.146"",""0.437"",""0.739"",""0.913""]","[0,1,1,1]",0,28,28,28,1,0,1,,,1,FALSE,,,,,,,,,,,,,,,,,,,,,,,,,,,,,,
,6036b55a1bb857e12fb70219,001,2022-04-28_20h12.10.892,classification_task,2021.2.3,Win32,60.57302078,6036b55a1bb857e12fb70219,626b377229c10585ec392f89,626b3aef104fe7502035a0e8,,,,,,,,,,,,,,,,,,,,,,,l,1,0.9001,"[""0.100"",""0.547"",""0.591"",""0.832""]","[1,0,1,1]",0,29,29,29,1,1,0,,,1,FALSE,,,,,,,,,,,,,,,,,,,,,,,,,,,,,,
,6036b55a1bb857e12fb70219,001,2022-04-28_20h12.10.892,classification_task,2021.2.3,Win32,60.57302078,6036b55a1bb857e12fb70219,626b377229c10585ec392f89,626b3aef104fe7502035a0e8,,,,,,,,,,,,,,,,,,,,,,,a,0,1.0834,"[""0.060"",""0.362"",""0.636"",""0.163""]","[1,1,1,0]",0,30,30,30,1,1,1,,,1,FALSE,,,,,,,,,,,,,,,,,,,,,,,,,,,,,,
,6036b55a1bb857e12fb70219,001,2022-04-28_20h12.10.892,classification_task,2021.2.3,Win32,60.57302078,6036b55a1bb857e12fb70219,626b377229c10585ec392f89,626b3aef104fe7502035a0e8,,,,,,,,,,,,,,,,,,,,,,,l,0,0.7989,"[""0.288"",""0.437"",""0.739"",""0.547""]","[1,1,1,0]",0,31,31,31,1,0,1,,,1,FALSE,,,,,,,,,,,,,,,,,,,,,,,,,,,,,,
,6036b55a1bb857e12fb70219,001,2022-04-28_20h12.10.892,classification_task,2021.2.3,Win32,60.57302078,6036b55a1bb857e12fb70219,626b377229c10585ec392f89,626b3aef104fe7502035a0e8,,,,,,,,,,,,,,,,,,,,,,,a,0,0.6317,"[""0.100"",""0.243"",""0.395"",""0.832""]","[1,1,0,1]",0,32,32,32,1,1,0,,,1,FALSE,,,,,,,,,,,,,,,,,,,,,,,,,,,,,,
,6036b55a1bb857e12fb70219,001,2022-04-28_20h12.10.892,classification_task,2021.2.3,Win32,60.57302078,6036b55a1bb857e12fb70219,626b377229c10585ec392f89,626b3aef104fe7502035a0e8,,,,,,,,,,,,,,,,,,,,,,,a,1,1.1507,"[""0.327"",""0.495"",""0.877"",""0.956""]","[0,1,1,1]",0,33,33,33,1,0,0,,,1,FALSE,,,,,,,,,,,,,,,,,,,,,,,,,,,,,,
,6036b55a1bb857e12fb70219,001,2022-04-28_20h12.10.892,classification_task,2021.2.3,Win32,60.57302078,6036b55a1bb857e12fb70219,626b377229c10585ec392f89,626b3aef104fe7502035a0e8,,,,,,,,,,,,,,,,,,,,,,,a,1,0.7825,"[""0.788"",""0.437"",""0.739"",""0.913""]","[0,1,1,1]",0,34,34,34,1,0,1,,,1,FALSE,,,,,,,,,,,,,,,,,,,,,,,,,,,,,,
,6036b55a1bb857e12fb70219,001,2022-04-28_20h12.10.892,classification_task,2021.2.3,Win32,60.57302078,6036b55a1bb857e12fb70219,626b377229c10585ec392f89,626b3aef104fe7502035a0e8,,,,,,,,,,,,,,,,,,,,,,,l,1,1.0987,"[""0.100"",""0.243"",""0.591"",""0.787""]","[1,1,1,0]",0,35,35,35,1,1,0,,,1,FALSE,,,,,,,,,,,,,,,,,,,,,,,,,,,,,,
,6036b55a1bb857e12fb70219,001,2022-04-28_20h12.10.892,classification_task,2021.2.3,Win32,60.57302078,6036b55a1bb857e12fb70219,626b377229c10585ec392f89,626b3aef104fe7502035a0e8,,,,,,,,,,,,,,,,,,,,,,,l,0,0.6836,"[""0.198"",""0.495"",""0.877"",""0.775""]","[1,1,1,0]",0,36,36,36,1,0,0,,,1,FALSE,,,,,,,,,,,,,,,,,,,,,,,,,,,,,,
,6036b55a1bb857e12fb70219,001,2022-04-28_20h12.10.892,classification_task,2021.2.3,Win32,60.57302078,6036b55a1bb857e12fb70219,626b377229c10585ec392f89,626b3aef104fe7502035a0e8,,,,,,,,,,,,,,,,,,,,,,,a,0,0.6163,"[""0.060"",""0.362"",""0.534"",""0.693""]","[1,1,0,1]",0,37,37,37,1,1,1,,,1,FALSE,,,,,,,,,,,,,,,,,,,,,,,,,,,,,,
,6036b55a1bb857e12fb70219,001,2022-04-28_20h12.10.892,classification_task,2021.2.3,Win32,60.57302078,6036b55a1bb857e12fb70219,626b377229c10585ec392f89,626b3aef104fe7502035a0e8,,,,,,,,,,,,,,,,,,,,,,,l,0,0.483,"[""0.288"",""0.437"",""0.395"",""0.913""]","[1,1,0,1]",0,38,38,38,1,0,1,,,1,FALSE,,,,,,,,,,,,,,,,,,,,,,,,,,,,,,
,6036b55a1bb857e12fb70219,001,2022-04-28_20h12.10.892,classification_task,2021.2.3,Win32,60.57302078,6036b55a1bb857e12fb70219,626b377229c10585ec392f89,626b3aef104fe7502035a0e8,,,,,,,,,,,,,,,,,,,,,,,l,0,0.5674,"[""0.288"",""0.775"",""0.739"",""0.913""]","[1,0,1,1]",0,39,39,39,1,0,1,,,1,FALSE,,,,,,,,,,,,,,,,,,,,,,,,,,,,,,
,6036b55a1bb857e12fb70219,001,2022-04-28_20h12.10.892,classification_task,2021.2.3,Win32,60.57302078,6036b55a1bb857e12fb70219,626b377229c10585ec392f89,626b3aef104fe7502035a0e8,,,,,,,,,,,,,,,,,,,,,,,l,1,0.4325,"[""0.060"",""0.362"",""0.636"",""0.786""]","[1,1,1,0]",0,40,40,40,1,1,1,,,1,FALSE,,,,,,,,,,,,,,,,,,,,,,,,,,,,,,
,6036b55a1bb857e12fb70219,001,2022-04-28_20h12.10.892,classification_task,2021.2.3,Win32,60.57302078,6036b55a1bb857e12fb70219,626b377229c10585ec392f89,626b3aef104fe7502035a0e8,,,,,,,,,,,,,,,,,,,,,,,l,1,0.9161,"[""0.060"",""0.148"",""0.636"",""0.693""]","[1,0,1,1]",0,41,41,41,1,1,1,,,1,FALSE,,,,,,,,,,,,,,,,,,,,,,,,,,,,,,
,6036b55a1bb857e12fb70219,001,2022-04-28_20h12.10.892,classification_task,2021.2.3,Win32,60.57302078,6036b55a1bb857e12fb70219,626b377229c10585ec392f89,626b3aef104fe7502035a0e8,,,,,,,,,,,,,,,,,,,,,,,a,0,0.4847,"[""0.100"",""0.788"",""0.591"",""0.832""]","[1,0,1,1]",0,42,42,42,1,1,0,,,1,FALSE,,,,,,,,,,,,,,,,,,,,,,,,,,,,,,
,6036b55a1bb857e12fb70219,001,2022-04-28_20h12.10.892,classification_task,2021.2.3,Win32,60.57302078,6036b55a1bb857e12fb70219,626b377229c10585ec392f89,626b3aef104fe7502035a0e8,,,,,,,,,,,,,,,,,,,,,,,a,1,0.7171,"[""0.288"",""0.437"",""0.739"",""0.395""]","[1,1,1,0]",0,43,43,43,1,0,1,,,1,FALSE,,,,,,,,,,,,,,,,,,,,,,,,,,,,,,
,6036b55a1bb857e12fb70219,001,2022-04-28_20h12.10.892,classification_task,2021.2.3,Win32,60.57302078,6036b55a1bb857e12fb70219,626b377229c10585ec392f89,626b3aef104fe7502035a0e8,,,,,,,,,,,,,,,,,,,,,,,l,0,0.8657,"[""0.198"",""0.495"",""0.148"",""0.956""]","[1,1,0,1]",0,44,44,44,1,0,0,,,1,FALSE,,,,,,,,,,,,,,,,,,,,,,,,,,,,,,
,6036b55a1bb857e12fb70219,001,2022-04-28_20h12.10.892,classification_task,2021.2.3,Win32,60.57302078,6036b55a1bb857e12fb70219,626b377229c10585ec392f89,626b3aef104fe7502035a0e8,,,,,,,,,,,,,,,,,,,,,,,l,0,0.7991,"[""0.198"",""0.534"",""0.877"",""0.956""]","[1,0,1,1]",0,45,45,45,1,0,0,,,1,FALSE,,,,,,,,,,,,,,,,,,,,,,,,,,,,,,
,6036b55a1bb857e12fb70219,001,2022-04-28_20h12.10.892,classification_task,2021.2.3,Win32,60.57302078,6036b55a1bb857e12fb70219,626b377229c10585ec392f89,626b3aef104fe7502035a0e8,,,,,,,,,,,,,,,,,,,,,,,a,0,0.8501,"[""0.154"",""0.362"",""0.636"",""0.693""]","[0,1,1,1]",0,46,46,46,1,1,1,,,1,FALSE,,,,,,,,,,,,,,,,,,,,,,,,,,,,,,
,6036b55a1bb857e12fb70219,001,2022-04-28_20h12.10.892,classification_task,2021.2.3,Win32,60.57302078,6036b55a1bb857e12fb70219,626b377229c10585ec392f89,626b3aef104fe7502035a0e8,,,,,,,,,,,,,,,,,,,,,,,a,0,0.9821,"[""0.787"",""0.243"",""0.591"",""0.832""]","[0,1,1,1]",0,47,47,47,1,1,0,,,1,FALSE,,,,,,,,,,,,,,,,,,,,,,,,,,,,,,
,6036b55a1bb857e12fb70219,001,2022-04-28_20h12.10.892,classification_task,2021.2.3,Win32,60.57302078,6036b55a1bb857e12fb70219,626b377229c10585ec392f89,626b3aef104fe7502035a0e8,,,,,,,,,,,,,,,,,,,,,,,a,1,1.7163,"[""0.327"",""0.495"",""0.877"",""0.956""]","[0,1,1,1]",0,48,48,48,1,0,0,,,1,FALSE,,,,,,,,,,,,,,,,,,,,,,,,,,,,,,
,6036b55a1bb857e12fb70219,001,2022-04-28_20h12.10.892,classification_task,2021.2.3,Win32,60.57302078,6036b55a1bb857e12fb70219,626b377229c10585ec392f89,626b3aef104fe7502035a0e8,,,,,,,,,,,,,,,,,,,,,,,a,1,0.9458,"[""0.198"",""0.495"",""0.791"",""0.956""]","[1,1,0,1]",0,49,49,49,1,0,0,,,1,FALSE,,,,,,,,,,,,,,,,,,,,,,,,,,,,,,
,6036b55a1bb857e12fb70219,001,2022-04-28_20h12.10.892,classification_task,2021.2.3,Win32,60.57302078,6036b55a1bb857e12fb70219,626b377229c10585ec392f89,626b3aef104fe7502035a0e8,,,,,,,,,,,,,,,,,,,,,,,a,1,0.7995,"[""0.786"",""0.437"",""0.739"",""0.913""]","[0,1,1,1]",0,50,50,50,1,0,1,,,1,FALSE,,,,,,,,,,,,,,,,,,,,,,,,,,,,,,
,6036b55a1bb857e12fb70219,001,2022-04-28_20h12.10.892,classification_task,2021.2.3,Win32,60.57302078,6036b55a1bb857e12fb70219,626b377229c10585ec392f89,626b3aef104fe7502035a0e8,,,,,,,,,,,,,,,,,,,,,,,l,1,0.6002,"[""0.100"",""0.148"",""0.591"",""0.832""]","[1,0,1,1]",0,51,51,51,1,1,0,,,1,FALSE,,,,,,,,,,,,,,,,,,,,,,,,,,,,,,
,6036b55a1bb857e12fb70219,001,2022-04-28_20h12.10.892,classification_task,2021.2.3,Win32,60.57302078,6036b55a1bb857e12fb70219,626b377229c10585ec392f89,626b3aef104fe7502035a0e8,,,,,,,,,,,,,,,,,,,,,,,l,1,0.7666,"[""0.100"",""0.243"",""0.148"",""0.832""]","[1,1,0,1]",0,52,52,52,1,1,0,,,1,FALSE,,,,,,,,,,,,,,,,,,,,,,,,,,,,,,
,6036b55a1bb857e12fb70219,001,2022-04-28_20h12.10.892,classification_task,2021.2.3,Win32,60.57302078,6036b55a1bb857e12fb70219,626b377229c10585ec392f89,626b3aef104fe7502035a0e8,,,,,,,,,,,,,,,,,,,,,,,a,1,0.8496,"[""0.198"",""0.791"",""0.877"",""0.956""]","[1,0,1,1]",0,53,53,53,1,0,0,,,1,FALSE,,,,,,,,,,,,,,,,,,,,,,,,,,,,,,
,6036b55a1bb857e12fb70219,001,2022-04-28_20h12.10.892,classification_task,2021.2.3,Win32,60.57302078,6036b55a1bb857e12fb70219,626b377229c10585ec392f89,626b3aef104fe7502035a0e8,,,,,,,,,,,,,,,,,,,,,,,l,0,3.0328,"[""0.198"",""0.495"",""0.877"",""0.154""]","[1,1,1,0]",0,54,54,54,1,0,0,,,1,FALSE,,,,,,,,,,,,,,,,,,,,,,,,,,,,,,
,6036b55a1bb857e12fb70219,001,2022-04-28_20h12.10.892,classification_task,2021.2.3,Win32,60.57302078,6036b55a1bb857e12fb70219,626b377229c10585ec392f89,626b3aef104fe7502035a0e8,,,,,,,,,,,,,,,,,,,,,,,l,0,1.1138,"[""0.288"",""0.437"",""0.148"",""0.913""]","[1,1,0,1]",0,55,55,55,1,0,1,,,1,FALSE,,,,,,,,,,,,,,,,,,,,,,,,,,,,,,
,6036b55a1bb857e12fb70219,001,2022-04-28_20h12.10.892,classification_task,2021.2.3,Win32,60.57302078,6036b55a1bb857e12fb70219,626b377229c10585ec392f89,626b3aef104fe7502035a0e8,,,,,,,,,,,,,,,,,,,,,,,a,0,0.8831,"[""0.100"",""0.243"",""0.591"",""0.322""]","[1,1,1,0]",0,56,56,56,1,1,0,,,1,FALSE,,,,,,,,,,,,,,,,,,,,,,,,,,,,,,
,6036b55a1bb857e12fb70219,001,2022-04-28_20h12.10.892,classification_task,2021.2.3,Win32,60.57302078,6036b55a1bb857e12fb70219,626b377229c10585ec392f89,626b3aef104fe7502035a0e8,,,,,,,,,,,,,,,,,,,,,,,a,1,1.2496,"[""0.288"",""0.437"",""0.739"",""0.791""]","[1,1,1,0]",0,57,57,57,1,0,1,,,1,FALSE,,,,,,,,,,,,,,,,,,,,,,,,,,,,,,
,6036b55a1bb857e12fb70219,001,2022-04-28_20h12.10.892,classification_task,2021.2.3,Win32,60.57302078,6036b55a1bb857e12fb70219,626b377229c10585ec392f89,626b3aef104fe7502035a0e8,,,,,,,,,,,,,,,,,,,,,,,l,1,0.7999,"[""0.060"",""0.362"",""0.636"",""0.327""]","[1,1,1,0]",0,58,58,58,1,1,1,,,1,FALSE,,,,,,,,,,,,,,,,,,,,,,,,,,,,,,
,6036b55a1bb857e12fb70219,001,2022-04-28_20h12.10.892,classification_task,2021.2.3,Win32,60.57302078,6036b55a1bb857e12fb70219,626b377229c10585ec392f89,626b3aef104fe7502035a0e8,,,,,,,,,,,,,,,,,,,,,,,a,0,2.349,"[""0.787"",""0.243"",""0.591"",""0.832""]","[0,1,1,1]",0,59,59,59,1,1,0,,,1,FALSE,,,,,,,,,,,,,,,,,,,,,,,,,,,,,,
,6036b55a1bb857e12fb70219,001,2022-04-28_20h12.10.892,classification_task,2021.2.3,Win32,60.57302078,6036b55a1bb857e12fb70219,626b377229c10585ec392f89,626b3aef104fe7502035a0e8,,,,,,,,,,,,,,,,,,,,,,,a,0,0.8291,"[""0.060"",""0.362"",""0.788"",""0.693""]","[1,1,0,1]",0,60,60,60,1,1,1,,,1,FALSE,,,,,,,,,,,,,,,,,,,,,,,,,,,,,,
,6036b55a1bb857e12fb70219,001,2022-04-28_20h12.10.892,classification_task,2021.2.3,Win32,60.57302078,6036b55a1bb857e12fb70219,626b377229c10585ec392f89,626b3aef104fe7502035a0e8,,,,,,,,,,,,,,,,,,,,,,,a,1,0.7664,"[""0.288"",""0.163"",""0.739"",""0.913""]","[1,0,1,1]",0,61,61,61,1,0,1,,,1,FALSE,,,,,,,,,,,,,,,,,,,,,,,,,,,,,,
,6036b55a1bb857e12fb70219,001,2022-04-28_20h12.10.892,classification_task,2021.2.3,Win32,60.57302078,6036b55a1bb857e12fb70219,626b377229c10585ec392f89,626b3aef104fe7502035a0e8,,,,,,,,,,,,,,,,,,,,,,,a,0,2.5334,"[""0.787"",""0.362"",""0.636"",""0.693""]","[0,1,1,1]",0,62,62,62,1,1,1,,,1,FALSE,,,,,,,,,,,,,,,,,,,,,,,,,,,,,,
,6036b55a1bb857e12fb70219,001,2022-04-28_20h12.10.892,classification_task,2021.2.3,Win32,60.57302078,6036b55a1bb857e12fb70219,626b377229c10585ec392f89,626b3aef104fe7502035a0e8,,,,,,,,,,,,,,,,,,,,,,,a,0,0.7962,"[""0.060"",""0.786"",""0.636"",""0.693""]","[1,0,1,1]",0,63,63,63,1,1,1,,,1,FALSE,,,,,,,,,,,,,,,,,,,,,,,,,,,,,,
,6036b55a1bb857e12fb70219,001,2022-04-28_20h12.10.892,classification_task,2021.2.3,Win32,60.57302078,6036b55a1bb857e12fb70219,626b377229c10585ec392f89,626b3aef104fe7502035a0e8,,,,,,,,,,,,,,,,,,,,,,,,,,,,,,,,,,,,,,,0, ,,0,0.100921774,165.8142,0,1,1,1,1,2,2,,,,,,,,,,,,,,,,,
,6036b55a1bb857e12fb70219,001,2022-04-28_20h12.10.892,classification_task,2021.2.3,Win32,60.57302078,6036b55a1bb857e12fb70219,626b377229c10585ec392f89,626b3aef104fe7502035a0e8,,,,,,,,,,,,,,,,,,,,,,,,,,,,,,,,,,,,,,,1,  ,,0,6.200275096,169.2805,0,1,1,1,1,2,2,,,,,,,,,,,,,,,,,
,6036b55a1bb857e12fb70219,001,2022-04-28_20h12.10.892,classification_task,2021.2.3,Win32,60.57302078,6036b55a1bb857e12fb70219,626b377229c10585ec392f89,626b3aef104fe7502035a0e8,,,,,,,,,,,,,,,,,,,,,,,,,,,,,,,,,,,,,,,2,  ,,0,8.429356776,171.2303,0,1,1,1,1,2,2,,,,,,,,,,,,,,,,,
,6036b55a1bb857e12fb70219,001,2022-04-28_20h12.10.892,classification_task,2021.2.3,Win32,60.57302078,6036b55a1bb857e12fb70219,626b377229c10585ec392f89,626b3aef104fe7502035a0e8,,,,,,,,,,,,,,,,,,,,,,,,,,,,,,,,,,,,,,,,,,,,,0,1,1,1,1,,2,,,,,,,,,,,,,,,,,
,6036b55a1bb857e12fb70219,001,2022-04-28_20h12.10.892,classification_task,2021.2.3,Win32,60.57302078,6036b55a1bb857e12fb70219,626b377229c10585ec392f89,626b3aef104fe7502035a0e8,,,,,,,,,,,,,,,,,,,,,space,22.7517,a,0,1.5975,"[""0.100"",""0.534"",""0.591"",""0.832""]","[1,0,1,1]",0,0,0,0,1,1,0,,,1,FALSE,,,,,,,,,,,,,,,,,,,,,,,,,,,,,,
,6036b55a1bb857e12fb70219,001,2022-04-28_20h12.10.892,classification_task,2021.2.3,Win32,60.57302078,6036b55a1bb857e12fb70219,626b377229c10585ec392f89,626b3aef104fe7502035a0e8,,,,,,,,,,,,,,,,,,,,,,,a,1,2.2158,"[""0.288"",""0.437"",""0.791"",""0.913""]","[1,1,0,1]",0,1,1,1,1,0,1,,,1,FALSE,,,,,,,,,,,,,,,,,,,,,,,,,,,,,,
,6036b55a1bb857e12fb70219,001,2022-04-28_20h12.10.892,classification_task,2021.2.3,Win32,60.57302078,6036b55a1bb857e12fb70219,626b377229c10585ec392f89,626b3aef104fe7502035a0e8,,,,,,,,,,,,,,,,,,,,,,,l,0,2.1322,"[""0.198"",""0.495"",""0.877"",""0.148""]","[1,1,1,0]",0,2,2,2,1,0,0,,,1,FALSE,,,,,,,,,,,,,,,,,,,,,,,,,,,,,,
,6036b55a1bb857e12fb70219,001,2022-04-28_20h12.10.892,classification_task,2021.2.3,Win32,60.57302078,6036b55a1bb857e12fb70219,626b377229c10585ec392f89,626b3aef104fe7502035a0e8,,,,,,,,,,,,,,,,,,,,,,,l,0,3.8417,"[""0.288"",""0.437"",""0.739"",""0.395""]","[1,1,1,0]",0,3,3,3,1,0,1,,,1,FALSE,,,,,,,,,,,,,,,,,,,,,,,,,,,,,,
,6036b55a1bb857e12fb70219,001,2022-04-28_20h12.10.892,classification_task,2021.2.3,Win32,60.57302078,6036b55a1bb857e12fb70219,626b377229c10585ec392f89,626b3aef104fe7502035a0e8,,,,,,,,,,,,,,,,,,,,,,,a,1,0.9139,"[""0.198"",""0.775"",""0.877"",""0.956""]","[1,0,1,1]",0,4,4,4,1,0,0,,,1,FALSE,,,,,,,,,,,,,,,,,,,,,,,,,,,,,,
,6036b55a1bb857e12fb70219,001,2022-04-28_20h12.10.892,classification_task,2021.2.3,Win32,60.57302078,6036b55a1bb857e12fb70219,626b377229c10585ec392f89,626b3aef104fe7502035a0e8,,,,,,,,,,,,,,,,,,,,,,,a,1,0.4827,"[""0.542"",""0.495"",""0.877"",""0.956""]","[0,1,1,1]",0,5,5,5,1,0,0,,,1,FALSE,,,,,,,,,,,,,,,,,,,,,,,,,,,,,,
,6036b55a1bb857e12fb70219,001,2022-04-28_20h12.10.892,classification_task,2021.2.3,Win32,60.57302078,6036b55a1bb857e12fb70219,626b377229c10585ec392f89,626b3aef104fe7502035a0e8,,,,,,,,,,,,,,,,,,,,,,,l,1,0.7493,"[""0.154"",""0.362"",""0.636"",""0.693""]","[0,1,1,1]",0,6,6,6,1,1,1,,,1,FALSE,,,,,,,,,,,,,,,,,,,,,,,,,,,,,,
,6036b55a1bb857e12fb70219,001,2022-04-28_20h12.10.892,classification_task,2021.2.3,Win32,60.57302078,6036b55a1bb857e12fb70219,626b377229c10585ec392f89,626b3aef104fe7502035a0e8,,,,,,,,,,,,,,,,,,,,,,,l,1,1.596,"[""0.100"",""0.243"",""0.591"",""0.781""]","[1,1,1,0]",0,7,7,7,1,1,0,,,1,FALSE,,,,,,,,,,,,,,,,,,,,,,,,,,,,,,
,6036b55a1bb857e12fb70219,001,2022-04-28_20h12.10.892,classification_task,2021.2.3,Win32,60.57302078,6036b55a1bb857e12fb70219,626b377229c10585ec392f89,626b3aef104fe7502035a0e8,,,,,,,,,,,,,,,,,,,,,,,a,0,1.7158,"[""0.100"",""0.243"",""0.781"",""0.832""]","[1,1,0,1]",0,8,8,8,1,1,0,,,1,FALSE,,,,,,,,,,,,,,,,,,,,,,,,,,,,,,
,6036b55a1bb857e12fb70219,001,2022-04-28_20h12.10.892,classification_task,2021.2.3,Win32,60.57302078,6036b55a1bb857e12fb70219,626b377229c10585ec392f89,626b3aef104fe7502035a0e8,,,,,,,,,,,,,,,,,,,,,,,l,1,0.7466,"[""0.060"",""0.362"",""0.146"",""0.693""]","[1,1,0,1]",0,9,9,9,1,1,1,,,1,FALSE,,,,,,,,,,,,,,,,,,,,,,,,,,,,,,
,6036b55a1bb857e12fb70219,001,2022-04-28_20h12.10.892,classification_task,2021.2.3,Win32,60.57302078,6036b55a1bb857e12fb70219,626b377229c10585ec392f89,626b3aef104fe7502035a0e8,,,,,,,,,,,,,,,,,,,,,,,a,1,1.1816,"[""0.288"",""0.395"",""0.739"",""0.913""]","[1,0,1,1]",0,10,10,10,1,0,1,,,1,FALSE,,,,,,,,,,,,,,,,,,,,,,,,,,,,,,
,6036b55a1bb857e12fb70219,001,2022-04-28_20h12.10.892,classification_task,2021.2.3,Win32,60.57302078,6036b55a1bb857e12fb70219,626b377229c10585ec392f89,626b3aef104fe7502035a0e8,,,,,,,,,,,,,,,,,,,,,,,a,1,0.4993,"[""0.327"",""0.437"",""0.739"",""0.913""]","[0,1,1,1]",0,11,11,11,1,0,1,,,1,FALSE,,,,,,,,,,,,,,,,,,,,,,,,,,,,,,
,6036b55a1bb857e12fb70219,001,2022-04-28_20h12.10.892,classification_task,2021.2.3,Win32,60.57302078,6036b55a1bb857e12fb70219,626b377229c10585ec392f89,626b3aef104fe7502035a0e8,,,,,,,,,,,,,,,,,,,,,,,l,1,2.4319,"[""0.060"",""0.148"",""0.636"",""0.693""]","[1,0,1,1]",0,12,12,12,1,1,1,,,1,FALSE,,,,,,,,,,,,,,,,,,,,,,,,,,,,,,
,6036b55a1bb857e12fb70219,001,2022-04-28_20h12.10.892,classification_task,2021.2.3,Win32,60.57302078,6036b55a1bb857e12fb70219,626b377229c10585ec392f89,626b3aef104fe7502035a0e8,,,,,,,,,,,,,,,,,,,,,,,l,1,0.6792,"[""0.060"",""0.362"",""0.636"",""0.322""]","[1,1,1,0]",0,13,13,13,1,1,1,,,1,FALSE,,,,,,,,,,,,,,,,,,,,,,,,,,,,,,
,6036b55a1bb857e12fb70219,001,2022-04-28_20h12.10.892,classification_task,2021.2.3,Win32,60.57302078,6036b55a1bb857e12fb70219,626b377229c10585ec392f89,626b3aef104fe7502035a0e8,,,,,,,,,,,,,,,,,,,,,,,a,0,0.7826,"[""0.791"",""0.243"",""0.591"",""0.832""]","[0,1,1,1]",0,14,14,14,1,1,0,,,1,FALSE,,,,,,,,,,,,,,,,,,,,,,,,,,,,,,
,6036b55a1bb857e12fb70219,001,2022-04-28_20h12.10.892,classification_task,2021.2.3,Win32,60.57302078,6036b55a1bb857e12fb70219,626b377229c10585ec392f89,626b3aef104fe7502035a0e8,,,,,,,,,,,,,,,,,,,,,,,a,1,1.1332,"[""0.198"",""0.495"",""0.775"",""0.956""]","[1,1,0,1]",0,15,15,15,1,0,0,,,1,FALSE,,,,,,,,,,,,,,,,,,,,,,,,,,,,,,
,6036b55a1bb857e12fb70219,001,2022-04-28_20h12.10.892,classification_task,2021.2.3,Win32,60.57302078,6036b55a1bb857e12fb70219,626b377229c10585ec392f89,626b3aef104fe7502035a0e8,,,,,,,,,,,,,,,,,,,,,,,a,0,0.8679,"[""0.100"",""0.243"",""0.591"",""0.775""]","[1,1,1,0]",0,16,16,16,1,1,0,,,1,FALSE,,,,,,,,,,,,,,,,,,,,,,,,,,,,,,
,6036b55a1bb857e12fb70219,001,2022-04-28_20h12.10.892,classification_task,2021.2.3,Win32,60.57302078,6036b55a1bb857e12fb70219,626b377229c10585ec392f89,626b3aef104fe7502035a0e8,,,,,,,,,,,,,,,,,,,,,,,a,0,1.1496,"[""0.060"",""0.791"",""0.636"",""0.693""]","[1,0,1,1]",0,17,17,17,1,1,1,,,1,FALSE,,,,,,,,,,,,,,,,,,,,,,,,,,,,,,
,6036b55a1bb857e12fb70219,001,2022-04-28_20h12.10.892,classification_task,2021.2.3,Win32,60.57302078,6036b55a1bb857e12fb70219,626b377229c10585ec392f89,626b3aef104fe7502035a0e8,,,,,,,,,,,,,,,,,,,,,,,a,1,0.616,"[""0.787"",""0.437"",""0.739"",""0.913""]","[0,1,1,1]",0,18,18,18,1,0,1,,,1,FALSE,,,,,,,,,,,,,,,,,,,,,,,,,,,,,,
,6036b55a1bb857e12fb70219,001,2022-04-28_20h12.10.892,classification_task,2021.2.3,Win32,60.57302078,6036b55a1bb857e12fb70219,626b377229c10585ec392f89,626b3aef104fe7502035a0e8,,,,,,,,,,,,,,,,,,,,,,,l,1,0.999,"[""0.146"",""0.362"",""0.636"",""0.693""]","[0,1,1,1]",0,19,19,19,1,1,1,,,1,FALSE,,,,,,,,,,,,,,,,,,,,,,,,,,,,,,
,6036b55a1bb857e12fb70219,001,2022-04-28_20h12.10.892,classification_task,2021.2.3,Win32,60.57302078,6036b55a1bb857e12fb70219,626b377229c10585ec392f89,626b3aef104fe7502035a0e8,,,,,,,,,,,,,,,,,,,,,,,a,0,1.0831,"[""0.791"",""0.243"",""0.591"",""0.832""]","[0,1,1,1]",0,20,20,20,1,1,0,,,1,FALSE,,,,,,,,,,,,,,,,,,,,,,,,,,,,,,
,6036b55a1bb857e12fb70219,001,2022-04-28_20h12.10.892,classification_task,2021.2.3,Win32,60.57302078,6036b55a1bb857e12fb70219,626b377229c10585ec392f89,626b3aef104fe7502035a0e8,,,,,,,,,,,,,,,,,,,,,,,l,0,0.6317,"[""0.198"",""0.154"",""0.877"",""0.956""]","[1,0,1,1]",0,21,21,21,1,0,0,,,1,FALSE,,,,,,,,,,,,,,,,,,,,,,,,,,,,,,
,6036b55a1bb857e12fb70219,001,2022-04-28_20h12.10.892,classification_task,2021.2.3,Win32,60.57302078,6036b55a1bb857e12fb70219,626b377229c10585ec392f89,626b3aef104fe7502035a0e8,,,,,,,,,,,,,,,,,,,,,,,l,1,0.816,"[""0.100"",""0.243"",""0.395"",""0.832""]","[1,1,0,1]",0,22,22,22,1,1,0,,,1,FALSE,,,,,,,,,,,,,,,,,,,,,,,,,,,,,,
,6036b55a1bb857e12fb70219,001,2022-04-28_20h12.10.892,classification_task,2021.2.3,Win32,60.57302078,6036b55a1bb857e12fb70219,626b377229c10585ec392f89,626b3aef104fe7502035a0e8,,,,,,,,,,,,,,,,,,,,,,,a,1,2.3503,"[""0.198"",""0.495"",""0.786"",""0.956""]","[1,1,0,1]",0,23,23,23,1,0,0,,,1,FALSE,,,,,,,,,,,,,,,,,,,,,,,,,,,,,,
,6036b55a1bb857e12fb70219,001,2022-04-28_20h12.10.892,classification_task,2021.2.3,Win32,60.57302078,6036b55a1bb857e12fb70219,626b377229c10585ec392f89,626b3aef104fe7502035a0e8,,,,,,,,,,,,,,,,,,,,,,,l,1,1.6337,"[""0.100"",""0.327"",""0.591"",""0.832""]","[1,0,1,1]",0,24,24,24,1,1,0,,,1,FALSE,,,,,,,,,,,,,,,,,,,,,,,,,,,,,,
,6036b55a1bb857e12fb70219,001,2022-04-28_20h12.10.892,classification_task,2021.2.3,Win32,60.57302078,6036b55a1bb857e12fb70219,626b377229c10585ec392f89,626b3aef104fe7502035a0e8,,,,,,,,,,,,,,,,,,,,,,,a,1,0.9129,"[""0.288"",""0.437"",""0.775"",""0.913""]","[1,1,0,1]",0,25,25,25,1,0,1,,,1,FALSE,,,,,,,,,,,,,,,,,,,,,,,,,,,,,,
,6036b55a1bb857e12fb70219,001,2022-04-28_20h12.10.892,classification_task,2021.2.3,Win32,60.57302078,6036b55a1bb857e12fb70219,626b377229c10585ec392f89,626b3aef104fe7502035a0e8,,,,,,,,,,,,,,,,,,,,,,,l,1,1.116,"[""0.060"",""0.362"",""0.636"",""0.395""]","[1,1,1,0]",0,26,26,26,1,1,1,,,1,FALSE,,,,,,,,,,,,,,,,,,,,,,,,,,,,,,
,6036b55a1bb857e12fb70219,001,2022-04-28_20h12.10.892,classification_task,2021.2.3,Win32,60.57302078,6036b55a1bb857e12fb70219,626b377229c10585ec392f89,626b3aef104fe7502035a0e8,,,,,,,,,,,,,,,,,,,,,,,l,0,1.2504,"[""0.198"",""0.495"",""0.877"",""0.781""]","[1,1,1,0]",0,27,27,27,1,0,0,,,1,FALSE,,,,,,,,,,,,,,,,,,,,,,,,,,,,,,
,6036b55a1bb857e12fb70219,001,2022-04-28_20h12.10.892,classification_task,2021.2.3,Win32,60.57302078,6036b55a1bb857e12fb70219,626b377229c10585ec392f89,626b3aef104fe7502035a0e8,,,,,,,,,,,,,,,,,,,,,,,a,1,0.7323,"[""0.288"",""0.534"",""0.739"",""0.913""]","[1,0,1,1]",0,28,28,28,1,0,1,,,1,FALSE,,,,,,,,,,,,,,,,,,,,,,,,,,,,,,
,6036b55a1bb857e12fb70219,001,2022-04-28_20h12.10.892,classification_task,2021.2.3,Win32,60.57302078,6036b55a1bb857e12fb70219,626b377229c10585ec392f89,626b3aef104fe7502035a0e8,,,,,,,,,,,,,,,,,,,,,,,a,0,0.516,"[""0.060"",""0.362"",""0.534"",""0.693""]","[1,1,0,1]",0,29,29,29,1,1,1,,,1,FALSE,,,,,,,,,,,,,,,,,,,,,,,,,,,,,,
,6036b55a1bb857e12fb70219,001,2022-04-28_20h12.10.892,classification_task,2021.2.3,Win32,60.57302078,6036b55a1bb857e12fb70219,626b377229c10585ec392f89,626b3aef104fe7502035a0e8,,,,,,,,,,,,,,,,,,,,,,,l,0,0.8989,"[""0.288"",""0.437"",""0.739"",""0.154""]","[1,1,1,0]",0,30,30,30,1,0,1,,,1,FALSE,,,,,,,,,,,,,,,,,,,,,,,,,,,,,,
,6036b55a1bb857e12fb70219,001,2022-04-28_20h12.10.892,classification_task,2021.2.3,Win32,60.57302078,6036b55a1bb857e12fb70219,626b377229c10585ec392f89,626b3aef104fe7502035a0e8,,,,,,,,,,,,,,,,,,,,,,,a,1,1.3334,"[""0.146"",""0.495"",""0.877"",""0.956""]","[0,1,1,1]",0,31,31,31,1,0,0,,,1,FALSE,,,,,,,,,,,,,,,,,,,,,,,,,,,,,,
,6036b55a1bb857e12fb70219,001,2022-04-28_20h12.10.892,classification_task,2021.2.3,Win32,60.57302078,6036b55a1bb857e12fb70219,626b377229c10585ec392f89,626b3aef104fe7502035a0e8,,,,,,,,,,,,,,,,,,,,,,,l,0,1.3449,"[""0.198"",""0.495"",""0.322"",""0.956""]","[1,1,0,1]",0,32,32,32,1,0,0,,,1,FALSE,,,,,,,,,,,,,,,,,,,,,,,,,,,,,,
,6036b55a1bb857e12fb70219,001,2022-04-28_20h12.10.892,classification_task,2021.2.3,Win32,60.57302078,6036b55a1bb857e12fb70219,626b377229c10585ec392f89,626b3aef104fe7502035a0e8,,,,,,,,,,,,,,,,,,,,,,,a,0,2.7486,"[""0.060"",""0.362"",""0.636"",""0.786""]","[1,1,1,0]",0,33,33,33,1,1,1,,,1,FALSE,,,,,,,,,,,,,,,,,,,,,,,,,,,,,,
,6036b55a1bb857e12fb70219,001,2022-04-28_20h12.10.892,classification_task,2021.2.3,Win32,60.57302078,6036b55a1bb857e12fb70219,626b377229c10585ec392f89,626b3aef104fe7502035a0e8,,,,,,,,,,,,,,,,,,,,,,,a,1,1.1977,"[""0.288"",""0.437"",""0.739"",""0.781""]","[1,1,1,0]",0,34,34,34,1,0,1,,,1,FALSE,,,,,,,,,,,,,,,,,,,,,,,,,,,,,,
,6036b55a1bb857e12fb70219,001,2022-04-28_20h12.10.892,classification_task,2021.2.3,Win32,60.57302078,6036b55a1bb857e12fb70219,626b377229c10585ec392f89,626b3aef104fe7502035a0e8,,,,,,,,,,,,,,,,,,,,,,,l,0,0.499,"[""0.163"",""0.437"",""0.739"",""0.913""]","[0,1,1,1]",0,35,35,35,1,0,1,,,1,FALSE,,,,,,,,,,,,,,,,,,,,,,,,,,,,,,
,6036b55a1bb857e12fb70219,001,2022-04-28_20h12.10.892,classification_task,2021.2.3,Win32,60.57302078,6036b55a1bb857e12fb70219,626b377229c10585ec392f89,626b3aef104fe7502035a0e8,,,,,,,,,,,,,,,,,,,,,,,a,0,1.4669,"[""0.100"",""0.542"",""0.591"",""0.832""]","[1,0,1,1]",0,36,36,36,1,1,0,,,1,FALSE,,,,,,,,,,,,,,,,,,,,,,,,,,,,,,
,6036b55a1bb857e12fb70219,001,2022-04-28_20h12.10.892,classification_task,2021.2.3,Win32,60.57302078,6036b55a1bb857e12fb70219,626b377229c10585ec392f89,626b3aef104fe7502035a0e8,,,,,,,,,,,,,,,,,,,,,,,l,1,0.7654,"[""0.060"",""0.362"",""0.534"",""0.693""]","[1,1,0,1]",0,37,37,37,1,1,1,,,1,FALSE,,,,,,,,,,,,,,,,,,,,,,,,,,,,,,
,6036b55a1bb857e12fb70219,001,2022-04-28_20h12.10.892,classification_task,2021.2.3,Win32,60.57302078,6036b55a1bb857e12fb70219,626b377229c10585ec392f89,626b3aef104fe7502035a0e8,,,,,,,,,,,,,,,,,,,,,,,a,0,1.0485,"[""0.775"",""0.362"",""0.636"",""0.693""]","[0,1,1,1]",0,38,38,38,1,1,1,,,1,FALSE,,,,,,,,,,,,,,,,,,,,,,,,,,,,,,
,6036b55a1bb857e12fb70219,001,2022-04-28_20h12.10.892,classification_task,2021.2.3,Win32,60.57302078,6036b55a1bb857e12fb70219,626b377229c10585ec392f89,626b3aef104fe7502035a0e8,,,,,,,,,,,,,,,,,,,,,,,a,1,0.9994,"[""0.198"",""0.327"",""0.877"",""0.956""]","[1,0,1,1]",0,39,39,39,1,0,0,,,1,FALSE,,,,,,,,,,,,,,,,,,,,,,,,,,,,,,
,6036b55a1bb857e12fb70219,001,2022-04-28_20h12.10.892,classification_task,2021.2.3,Win32,60.57302078,6036b55a1bb857e12fb70219,626b377229c10585ec392f89,626b3aef104fe7502035a0e8,,,,,,,,,,,,,,,,,,,,,,,l,1,1.133,"[""0.100"",""0.243"",""0.787"",""0.832""]","[1,1,0,1]",0,40,40,40,1,1,0,,,1,FALSE,,,,,,,,,,,,,,,,,,,,,,,,,,,,,,
,6036b55a1bb857e12fb70219,001,2022-04-28_20h12.10.892,classification_task,2021.2.3,Win32,60.57302078,6036b55a1bb857e12fb70219,626b377229c10585ec392f89,626b3aef104fe7502035a0e8,,,,,,,,,,,,,,,,,,,,,,,l,0,1.0163,"[""0.288"",""0.154"",""0.739"",""0.913""]","[1,0,1,1]",0,41,41,41,1,0,1,,,1,FALSE,,,,,,,,,,,,,,,,,,,,,,,,,,,,,,
,6036b55a1bb857e12fb70219,001,2022-04-28_20h12.10.892,classification_task,2021.2.3,Win32,60.57302078,6036b55a1bb857e12fb70219,626b377229c10585ec392f89,626b3aef104fe7502035a0e8,,,,,,,,,,,,,,,,,,,,,,,l,0,0.4488,"[""0.395"",""0.495"",""0.877"",""0.956""]","[0,1,1,1]",0,42,42,42,1,0,0,,,1,FALSE,,,,,,,,,,,,,,,,,,,,,,,,,,,,,,
,6036b55a1bb857e12fb70219,001,2022-04-28_20h12.10.892,classification_task,2021.2.3,Win32,60.57302078,6036b55a1bb857e12fb70219,626b377229c10585ec392f89,626b3aef104fe7502035a0e8,,,,,,,,,,,,,,,,,,,,,,,a,0,0.3505,"[""0.395"",""0.243"",""0.591"",""0.832""]","[0,1,1,1]",0,43,43,43,1,1,0,,,1,FALSE,,,,,,,,,,,,,,,,,,,,,,,,,,,,,,
,6036b55a1bb857e12fb70219,001,2022-04-28_20h12.10.892,classification_task,2021.2.3,Win32,60.57302078,6036b55a1bb857e12fb70219,626b377229c10585ec392f89,626b3aef104fe7502035a0e8,,,,,,,,,,,,,,,,,,,,,,,a,0,0.7025,"[""0.060"",""0.786"",""0.636"",""0.693""]","[1,0,1,1]",0,44,44,44,1,1,1,,,1,FALSE,,,,,,,,,,,,,,,,,,,,,,,,,,,,,,
,6036b55a1bb857e12fb70219,001,2022-04-28_20h12.10.892,classification_task,2021.2.3,Win32,60.57302078,6036b55a1bb857e12fb70219,626b377229c10585ec392f89,626b3aef104fe7502035a0e8,,,,,,,,,,,,,,,,,,,,,,,l,0,2.732,"[""0.198"",""0.495"",""0.877"",""0.787""]","[1,1,1,0]",0,45,45,45,1,0,0,,,1,FALSE,,,,,,,,,,,,,,,,,,,,,,,,,,,,,,
,6036b55a1bb857e12fb70219,001,2022-04-28_20h12.10.892,classification_task,2021.2.3,Win32,60.57302078,6036b55a1bb857e12fb70219,626b377229c10585ec392f89,626b3aef104fe7502035a0e8,,,,,,,,,,,,,,,,,,,,,,,a,0,0.6642,"[""0.100"",""0.243"",""0.591"",""0.395""]","[1,1,1,0]",0,46,46,46,1,1,0,,,1,FALSE,,,,,,,,,,,,,,,,,,,,,,,,,,,,,,
,6036b55a1bb857e12fb70219,001,2022-04-28_20h12.10.892,classification_task,2021.2.3,Win32,60.57302078,6036b55a1bb857e12fb70219,626b377229c10585ec392f89,626b3aef104fe7502035a0e8,,,,,,,,,,,,,,,,,,,,,,,a,1,0.5337,"[""0.288"",""0.437"",""0.791"",""0.913""]","[1,1,0,1]",0,47,47,47,1,0,1,,,1,FALSE,,,,,,,,,,,,,,,,,,,,,,,,,,,,,,
,6036b55a1bb857e12fb70219,001,2022-04-28_20h12.10.892,classification_task,2021.2.3,Win32,60.57302078,6036b55a1bb857e12fb70219,626b377229c10585ec392f89,626b3aef104fe7502035a0e8,,,,,,,,,,,,,,,,,,,,,,,l,1,1.1657,"[""0.100"",""0.243"",""0.591"",""0.788""]","[1,1,1,0]",0,48,48,48,1,1,0,,,1,FALSE,,,,,,,,,,,,,,,,,,,,,,,,,,,,,,
,6036b55a1bb857e12fb70219,001,2022-04-28_20h12.10.892,classification_task,2021.2.3,Win32,60.57302078,6036b55a1bb857e12fb70219,626b377229c10585ec392f89,626b3aef104fe7502035a0e8,,,,,,,,,,,,,,,,,,,,,,,l,1,0.497,"[""0.100"",""0.322"",""0.591"",""0.832""]","[1,0,1,1]",0,49,49,49,1,1,0,,,1,FALSE,,,,,,,,,,,,,,,,,,,,,,,,,,,,,,
,6036b55a1bb857e12fb70219,001,2022-04-28_20h12.10.892,classification_task,2021.2.3,Win32,60.57302078,6036b55a1bb857e12fb70219,626b377229c10585ec392f89,626b3aef104fe7502035a0e8,,,,,,,,,,,,,,,,,,,,,,,a,1,1.0319,"[""0.775"",""0.495"",""0.877"",""0.956""]","[0,1,1,1]",0,50,50,50,1,0,0,,,1,FALSE,,,,,,,,,,,,,,,,,,,,,,,,,,,,,,
,6036b55a1bb857e12fb70219,001,2022-04-28_20h12.10.892,classification_task,2021.2.3,Win32,60.57302078,6036b55a1bb857e12fb70219,626b377229c10585ec392f89,626b3aef104fe7502035a0e8,,,,,,,,,,,,,,,,,,,,,,,a,0,0.8344,"[""0.542"",""0.243"",""0.591"",""0.832""]","[0,1,1,1]",0,51,51,51,1,1,0,,,1,FALSE,,,,,,,,,,,,,,,,,,,,,,,,,,,,,,
,6036b55a1bb857e12fb70219,001,2022-04-28_20h12.10.892,classification_task,2021.2.3,Win32,60.57302078,6036b55a1bb857e12fb70219,626b377229c10585ec392f89,626b3aef104fe7502035a0e8,,,,,,,,,,,,,,,,,,,,,,,a,1,0.8493,"[""0.288"",""0.437"",""0.739"",""0.786""]","[1,1,1,0]",0,52,52,52,1,0,1,,,1,FALSE,,,,,,,,,,,,,,,,,,,,,,,,,,,,,,
,6036b55a1bb857e12fb70219,001,2022-04-28_20h12.10.892,classification_task,2021.2.3,Win32,60.57302078,6036b55a1bb857e12fb70219,626b377229c10585ec392f89,626b3aef104fe7502035a0e8,,,,,,,,,,,,,,,,,,,,,,,l,0,0.4326,"[""0.198"",""0.495"",""0.877"",""0.547""]","[1,1,1,0]",0,53,53,53,1,0,0,,,1,FALSE,,,,,,,,,,,,,,,,,,,,,,,,,,,,,,
,6036b55a1bb857e12fb70219,001,2022-04-28_20h12.10.892,classification_task,2021.2.3,Win32,60.57302078,6036b55a1bb857e12fb70219,626b377229c10585ec392f89,626b3aef104fe7502035a0e8,,,,,,,,,,,,,,,,,,,,,,,l,0,0.7496,"[""0.198"",""0.542"",""0.877"",""0.956""]","[1,0,1,1]",0,54,54,54,1,0,0,,,1,FALSE,,,,,,,,,,,,,,,,,,,,,,,,,,,,,,
,6036b55a1bb857e12fb70219,001,2022-04-28_20h12.10.892,classification_task,2021.2.3,Win32,60.57302078,6036b55a1bb857e12fb70219,626b377229c10585ec392f89,626b3aef104fe7502035a0e8,,,,,,,,,,,,,,,,,,,,,,,a,1,0.5486,"[""0.786"",""0.437"",""0.739"",""0.913""]","[0,1,1,1]",0,55,55,55,1,0,1,,,1,FALSE,,,,,,,,,,,,,,,,,,,,,,,,,,,,,,
,6036b55a1bb857e12fb70219,001,2022-04-28_20h12.10.892,classification_task,2021.2.3,Win32,60.57302078,6036b55a1bb857e12fb70219,626b377229c10585ec392f89,626b3aef104fe7502035a0e8,,,,,,,,,,,,,,,,,,,,,,,l,1,0.833,"[""0.060"",""0.362"",""0.547"",""0.693""]","[1,1,0,1]",0,56,56,56,1,1,1,,,1,FALSE,,,,,,,,,,,,,,,,,,,,,,,,,,,,,,
,6036b55a1bb857e12fb70219,001,2022-04-28_20h12.10.892,classification_task,2021.2.3,Win32,60.57302078,6036b55a1bb857e12fb70219,626b377229c10585ec392f89,626b3aef104fe7502035a0e8,,,,,,,,,,,,,,,,,,,,,,,a,1,1.4161,"[""0.288"",""0.437"",""0.547"",""0.913""]","[1,1,0,1]",0,57,57,57,1,0,1,,,1,FALSE,,,,,,,,,,,,,,,,,,,,,,,,,,,,,,
,6036b55a1bb857e12fb70219,001,2022-04-28_20h12.10.892,classification_task,2021.2.3,Win32,60.57302078,6036b55a1bb857e12fb70219,626b377229c10585ec392f89,626b3aef104fe7502035a0e8,,,,,,,,,,,,,,,,,,,,,,,a,0,0.7146,"[""0.791"",""0.362"",""0.636"",""0.693""]","[0,1,1,1]",0,58,58,58,1,1,1,,,1,FALSE,,,,,,,,,,,,,,,,,,,,,,,,,,,,,,
,6036b55a1bb857e12fb70219,001,2022-04-28_20h12.10.892,classification_task,2021.2.3,Win32,60.57302078,6036b55a1bb857e12fb70219,626b377229c10585ec392f89,626b3aef104fe7502035a0e8,,,,,,,,,,,,,,,,,,,,,,,a,0,0.6332,"[""0.060"",""0.534"",""0.636"",""0.693""]","[1,0,1,1]",0,59,59,59,1,1,1,,,1,FALSE,,,,,,,,,,,,,,,,,,,,,,,,,,,,,,
,6036b55a1bb857e12fb70219,001,2022-04-28_20h12.10.892,classification_task,2021.2.3,Win32,60.57302078,6036b55a1bb857e12fb70219,626b377229c10585ec392f89,626b3aef104fe7502035a0e8,,,,,,,,,,,,,,,,,,,,,,,l,0,0.8493,"[""0.288"",""0.534"",""0.739"",""0.913""]","[1,0,1,1]",0,60,60,60,1,0,1,,,1,FALSE,,,,,,,,,,,,,,,,,,,,,,,,,,,,,,
,6036b55a1bb857e12fb70219,001,2022-04-28_20h12.10.892,classification_task,2021.2.3,Win32,60.57302078,6036b55a1bb857e12fb70219,626b377229c10585ec392f89,626b3aef104fe7502035a0e8,,,,,,,,,,,,,,,,,,,,,,,a,0,1.1654,"[""0.100"",""0.243"",""0.791"",""0.832""]","[1,1,0,1]",0,61,61,61,1,1,0,,,1,FALSE,,,,,,,,,,,,,,,,,,,,,,,,,,,,,,
,6036b55a1bb857e12fb70219,001,2022-04-28_20h12.10.892,classification_task,2021.2.3,Win32,60.57302078,6036b55a1bb857e12fb70219,626b377229c10585ec392f89,626b3aef104fe7502035a0e8,,,,,,,,,,,,,,,,,,,,,,,a,1,0.8825,"[""0.198"",""0.495"",""0.534"",""0.956""]","[1,1,0,1]",0,62,62,62,1,0,0,,,1,FALSE,,,,,,,,,,,,,,,,,,,,,,,,,,,,,,
,6036b55a1bb857e12fb70219,001,2022-04-28_20h12.10.892,classification_task,2021.2.3,Win32,60.57302078,6036b55a1bb857e12fb70219,626b377229c10585ec392f89,626b3aef104fe7502035a0e8,,,,,,,,,,,,,,,,,,,,,,,l,1,0.7168,"[""0.060"",""0.362"",""0.636"",""0.146""]","[1,1,1,0]",0,63,63,63,1,1,1,,,1,FALSE,,,,,,,,,,,,,,,,,,,,,,,,,,,,,,
,6036b55a1bb857e12fb70219,001,2022-04-28_20h12.10.892,classification_task,2021.2.3,Win32,60.57302078,6036b55a1bb857e12fb70219,626b377229c10585ec392f89,626b3aef104fe7502035a0e8,,,,,,,,,,,,,,,,,,,,,,,,,,,,,,,,,,,,,,,0, ,,0,0.566335024,161.2453,0,2,2,2,1,2,3,,,,,,,,,,,,,,,,,
,6036b55a1bb857e12fb70219,001,2022-04-28_20h12.10.892,classification_task,2021.2.3,Win32,60.57302078,6036b55a1bb857e12fb70219,626b377229c10585ec392f89,626b3aef104fe7502035a0e8,,,,,,,,,,,,,,,,,,,,,,,,,,,,,,,,,,,,,,,1,  ,,0,8.159905938,163.1275,0,2,2,2,1,2,3,,,,,,,,,,,,,,,,,
,6036b55a1bb857e12fb70219,001,2022-04-28_20h12.10.892,classification_task,2021.2.3,Win32,60.57302078,6036b55a1bb857e12fb70219,626b377229c10585ec392f89,626b3aef104fe7502035a0e8,,,,,,,,,,,,,,,,,,,,,,,,,,,,,,,,,,,,,,,2,  ,,0,10,164.1602,0,2,2,2,1,2,3,,,,,,,,,,,,,,,,,
,6036b55a1bb857e12fb70219,001,2022-04-28_20h12.10.892,classification_task,2021.2.3,Win32,60.57302078,6036b55a1bb857e12fb70219,626b377229c10585ec392f89,626b3aef104fe7502035a0e8,,,,,,,,,,,,,,,,,,,,,,,,,,,,,,,,,,,,,,,,,,,,,0,2,2,2,1,,3,,,,,,,,,,,,,,,,,
,6036b55a1bb857e12fb70219,001,2022-04-28_20h12.10.892,classification_task,2021.2.3,Win32,60.57302078,6036b55a1bb857e12fb70219,626b377229c10585ec392f89,626b3aef104fe7502035a0e8,,,,,,,,,,,,,,,,,,,,,,,,,,,,,,,,,,,,,,,,,,,,,,,,,,,,,I believe the aid is a competent performer,,0.7,0,3,973.985,0,0,0,0,1,0,,,,
,6036b55a1bb857e12fb70219,001,2022-04-28_20h12.10.892,classification_task,2021.2.3,Win32,60.57302078,6036b55a1bb857e12fb70219,626b377229c10585ec392f89,626b3aef104fe7502035a0e8,,,,,,,,,,,,,,,,,,,,,,,,,,,,,,,,,,,,,,,,,,,,,,,,,,,,,I trust the aid,,0.7,0,2,977.4941,0,0,0,0,1,0,,,,
,6036b55a1bb857e12fb70219,001,2022-04-28_20h12.10.892,classification_task,2021.2.3,Win32,60.57302078,6036b55a1bb857e12fb70219,626b377229c10585ec392f89,626b3aef104fe7502035a0e8,,,,,,,,,,,,,,,,,,,,,,,,,,,,,,,,,,,,,,,,,,,,,,,,,,,,,I have confidence in the advice given by the aid,,0.7,0,4,981.059,0,0,0,0,1,0,,,,
,6036b55a1bb857e12fb70219,001,2022-04-28_20h12.10.892,classification_task,2021.2.3,Win32,60.57302078,6036b55a1bb857e12fb70219,626b377229c10585ec392f89,626b3aef104fe7502035a0e8,,,,,,,,,,,,,,,,,,,,,,,,,,,,,,,,,,,,,,,,,,,,,,,,,,,,,I can depend on the aid,,0.7,0,3,984.7822,0,0,0,0,1,0,,,,
,6036b55a1bb857e12fb70219,001,2022-04-28_20h12.10.892,classification_task,2021.2.3,Win32,60.57302078,6036b55a1bb857e12fb70219,626b377229c10585ec392f89,626b3aef104fe7502035a0e8,,,,,,,,,,,,,,,,,,,,,,,,,,,,,,,,,,,,,,,,,,,,,,,,,,,,,I can rely on the aid to behave in consistent ways,,0.7,0,4,988.9669,0,0,0,0,1,0,,,,
,6036b55a1bb857e12fb70219,001,2022-04-28_20h12.10.892,classification_task,2021.2.3,Win32,60.57302078,6036b55a1bb857e12fb70219,626b377229c10585ec392f89,626b3aef104fe7502035a0e8,,,,,,,,,,,,,,,,,,,,,,,,,,,,,,,,,,,,,,,,,,,,,,,,,,,,,I can rely on the aid to do its best every time I take its advice,,0.7,0,4,995.5995,0,0,0,0,1,0,,,,
,6036b55a1bb857e12fb70219,001,2022-04-28_20h12.10.892,classification_task,2021.2.3,Win32,60.57302078,6036b55a1bb857e12fb70219,626b377229c10585ec392f89,626b3aef104fe7502035a0e8,,,,,,,,,,,,,,,,,,,,,,,,,,,,,,,,,,,,,,,,,,,,,,,,,,,,,"On trials you completed with assistance from the aid, how frequently did you think the aid was correct?",,0.7,0,90,,0,0,0,0,1,0,,,,
,6036b55a1bb857e12fb70219,001,2022-04-28_20h12.10.892,classification_task,2021.2.3,Win32,60.57302078,6036b55a1bb857e12fb70219,626b377229c10585ec392f89,626b3aef104fe7502035a0e8,,,,,,,,,,,,,,,,,,,,,,,,,,,,,,,,,,,,,,,,,,,,,,,,,,,,,"On trials you completed without the aid, how frequently did you think you were correct?",,0.7,0,70,,0,0,0,0,1,0,,,,
,6036b55a1bb857e12fb70219,001,2022-04-28_20h12.10.892,classification_task,2021.2.3,Win32,60.57302078,6036b55a1bb857e12fb70219,626b377229c10585ec392f89,626b3aef104fe7502035a0e8,,,,,,,,,,,,,,,,,,,,,,,,,,,,,,,,,,,,,,,,,,,,,,,,,,,,,,,,,,,0,0,0,0,1,,,,,
,6036b55a1bb857e12fb70219,001,2022-04-28_20h12.10.892,classification_task,2021.2.3,Win32,60.57302078,6036b55a1bb857e12fb70219,626b377229c10585ec392f89,626b3aef104fe7502035a0e8,,,,,,,,,,,,,,,,,,,,,,,,,,,,,,,,,,,,,,,,,,,,,,,,,,,,,,,,,,,,,,,,,space,29.2537,1062.8808,
,6036b55a1bb857e12fb70219,001,2022-04-28_20h12.10.892,classification_task,2021.2.3,Win32,60.57302078,6036b55a1bb857e12fb70219,626b377229c10585ec392f89,626b3aef104fe7502035a0e8,,,,,,,,,,,,,,,,,,,,,,,,,,,,,,,,,,,,,,,,,,,,,,,,,,,,,,,,,,,,,,,,,,,,"Mozilla/5.0 (Windows NT 10.0; Win64; x64) AppleWebKit/537.36 (KHTML, like Gecko) Chrome/100.0.4896.127 Safari/537.36"
