usingWebGL,participant,session,date,expName,psychopyVersion,OS,frameRate,PROLIFIC_PID,STUDY_ID,SESSION_ID,signatures_friend,signatures_foe,band_ranges_top,band_ranges_bottom,formitemText,formtype,formundefined,formitemWidth,formindex,formresponse,formrt,key_resp_2.keys,key_resp_2.rt,tute_resp.keys,tute_resp.rt,tutorial.thisRepN,tutorial.thisTrialN,tutorial.thisN,tutorial.thisIndex,tutorial.ran,key_resp_4.keys,key_resp_4.rt,key_resp.keys,key_resp.corr,key_resp.rt,lines_presented,is_signal_presented,trials.thisRepN,trials.thisTrialN,trials.thisN,trials.thisIndex,trials.ran,vessel,active_band,lines,is_signal,supported_pos,catch_trial,debrief_formindex,debrief_formitemText,debrief_formtype,debrief_formitemWidth,debrief_formresponse,debrief_formrt,phases.thisRepN,phases.thisTrialN,phases.thisN,phases.thisIndex,phases.ran,phases.order,phase,key_resp_3.keys,trustitemText,trusttype,trustitemWidth,trustindex,trustresponse,trustrt,support_status.thisRepN,support_status.thisTrialN,support_status.thisN,support_status.thisIndex,support_status.ran,support_status.order,key_resp_5.keys,key_resp_5.rt,globalClockTime,userAgent
TRUE,6036d6284f9841a390cbd5a5,001,2022-04-28_22h02.47.475,classification_task,2021.2.3,Win32,143.7401179,6036d6284f9841a390cbd5a5,626b377229c10585ec392f89,626b471b9908862b7c4d9464,,,,,,,,,,,,,,,,,,,,,,,,,,,,,,,,,,,,,,,,,,,,,,,,,,,,,,,,,,,,,,,,,,,,
,6036d6284f9841a390cbd5a5,001,2022-04-28_22h02.47.475,classification_task,2021.2.3,Win32,143.7401179,6036d6284f9841a390cbd5a5,626b377229c10585ec392f89,626b471b9908862b7c4d9464,"[[""0.289"",""0.374"",""0.639"",""0.944""],[""0.175"",""0.563"",""0.776"",""0.894""]]","[[""0.057"",""0.216"",""0.521"",""0.682""],[""0.128"",""0.421"",""0.472"",""0.825""]]","[1,10]","[100,1000]",Video game experience,,,0.7,0,,,,,,,,,,,,,,,,,,,,,,,,,,,,,,,,,,,,,,,,,,,,,,,,,,,,,,,,,,,
,6036d6284f9841a390cbd5a5,001,2022-04-28_22h02.47.475,classification_task,2021.2.3,Win32,143.7401179,6036d6284f9841a390cbd5a5,626b377229c10585ec392f89,626b471b9908862b7c4d9464,,,,,Approximately how many hours did you spend playing video games in the last week?,,,0.7,0,10,,,,,,,,,,,,,,,,,,,,,,,,,,,,,,,,,,,,,,,,,,,,,,,,,,,,,,,,,,
,6036d6284f9841a390cbd5a5,001,2022-04-28_22h02.47.475,classification_task,2021.2.3,Win32,143.7401179,6036d6284f9841a390cbd5a5,626b377229c10585ec392f89,626b471b9908862b7c4d9464,,,,,"Which game did you play the most this year? (Enter ""None"" if you didn't play any)",,,0.7,0,Elden Ring,,,,,,,,,,,,,,,,,,,,,,,,,,,,,,,,,,,,,,,,,,,,,,,,,,,,,,,,,,
,6036d6284f9841a390cbd5a5,001,2022-04-28_22h02.47.475,classification_task,2021.2.3,Win32,143.7401179,6036d6284f9841a390cbd5a5,626b377229c10585ec392f89,626b471b9908862b7c4d9464,,,,,Visual perception,,,0.7,0,,,,,,,,,,,,,,,,,,,,,,,,,,,,,,,,,,,,,,,,,,,,,,,,,,,,,,,,,,,
,6036d6284f9841a390cbd5a5,001,2022-04-28_22h02.47.475,classification_task,2021.2.3,Win32,143.7401179,6036d6284f9841a390cbd5a5,626b377229c10585ec392f89,626b471b9908862b7c4d9464,,,,,Do you have any form of color blindness?,,,0.7,0,No,19.6785,,,,,,,,,,,,,,,,,,,,,,,,,,,,,,,,,,,,,,,,,,,,,,,,,,,,,,,,,
,6036d6284f9841a390cbd5a5,001,2022-04-28_22h02.47.475,classification_task,2021.2.3,Win32,143.7401179,6036d6284f9841a390cbd5a5,626b377229c10585ec392f89,626b471b9908862b7c4d9464,,,,,Do you use software to change the colour temperature of your screen (e.g. f.lux)?,,,0.7,0,No,21.3993,,,,,,,,,,,,,,,,,,,,,,,,,,,,,,,,,,,,,,,,,,,,,,,,,,,,,,,,,
,6036d6284f9841a390cbd5a5,001,2022-04-28_22h02.47.475,classification_task,2021.2.3,Win32,143.7401179,6036d6284f9841a390cbd5a5,626b377229c10585ec392f89,626b471b9908862b7c4d9464,,,,,,,,,,,,space,29.9695,space,7.508,0,0,0,0,1,,,,,,,,,,,,,,,,,,,,,,,,,,,,,,,,,,,,,,,,,,,,,,,,
,6036d6284f9841a390cbd5a5,001,2022-04-28_22h02.47.475,classification_task,2021.2.3,Win32,143.7401179,6036d6284f9841a390cbd5a5,626b377229c10585ec392f89,626b471b9908862b7c4d9464,,,,,,,,,,,,,,space,7.7483,1,0,1,0,1,,,,,,,,,,,,,,,,,,,,,,,,,,,,,,,,,,,,,,,,,,,,,,,,
,6036d6284f9841a390cbd5a5,001,2022-04-28_22h02.47.475,classification_task,2021.2.3,Win32,143.7401179,6036d6284f9841a390cbd5a5,626b377229c10585ec392f89,626b471b9908862b7c4d9464,,,,,,,,,,,,,,space,24.9679,2,0,2,0,1,,,,,,,,,,,,,,,,,,,,,,,,,,,,,,,,,,,,,,,,,,,,,,,,
,6036d6284f9841a390cbd5a5,001,2022-04-28_22h02.47.475,classification_task,2021.2.3,Win32,143.7401179,6036d6284f9841a390cbd5a5,626b377229c10585ec392f89,626b471b9908862b7c4d9464,,,,,,,,,,,,,,space,12.2791,3,0,3,0,1,,,,,,,,,,,,,,,,,,,,,,,,,,,,,,,,,,,,,,,,,,,,,,,,
,6036d6284f9841a390cbd5a5,001,2022-04-28_22h02.47.475,classification_task,2021.2.3,Win32,143.7401179,6036d6284f9841a390cbd5a5,626b377229c10585ec392f89,626b471b9908862b7c4d9464,,,,,,,,,,,,,,space,14.2934,4,0,4,0,1,,,,,,,,,,,,,,,,,,,,,,,,,,,,,,,,,,,,,,,,,,,,,,,,
,6036d6284f9841a390cbd5a5,001,2022-04-28_22h02.47.475,classification_task,2021.2.3,Win32,143.7401179,6036d6284f9841a390cbd5a5,626b377229c10585ec392f89,626b471b9908862b7c4d9464,,,,,,,,,,,,,,,,,,,,,space,17.9437,a,0,4.5003,"[""0.057"",""0.216"",""0.252"",""0.682""]","[1,1,0,1]",0,0,0,0,1,1,0,,,1,FALSE,,,,,,,,,,,,,,,,,,,,,,,,,,,,,,
,6036d6284f9841a390cbd5a5,001,2022-04-28_22h02.47.475,classification_task,2021.2.3,Win32,143.7401179,6036d6284f9841a390cbd5a5,626b377229c10585ec392f89,626b471b9908862b7c4d9464,,,,,,,,,,,,,,,,,,,,,,,a,1,2.5349,"[""0.175"",""0.337"",""0.776"",""0.894""]","[1,0,1,1]",0,1,1,1,1,0,1,,,1,FALSE,,,,,,,,,,,,,,,,,,,,,,,,,,,,,,
,6036d6284f9841a390cbd5a5,001,2022-04-28_22h02.47.475,classification_task,2021.2.3,Win32,143.7401179,6036d6284f9841a390cbd5a5,626b377229c10585ec392f89,626b471b9908862b7c4d9464,,,,,,,,,,,,,,,,,,,,,,,a,0,2.0291,"[""0.128"",""0.421"",""0.472"",""0.599""]","[1,1,1,0]",0,2,2,2,1,1,1,,,1,FALSE,,,,,,,,,,,,,,,,,,,,,,,,,,,,,,
,6036d6284f9841a390cbd5a5,001,2022-04-28_22h02.47.475,classification_task,2021.2.3,Win32,143.7401179,6036d6284f9841a390cbd5a5,626b377229c10585ec392f89,626b471b9908862b7c4d9464,,,,,,,,,,,,,,,,,,,,,,,l,1,4.6775,"[""0.128"",""0.421"",""0.599"",""0.825""]","[1,1,0,1]",0,3,3,3,1,1,1,,,1,FALSE,,,,,,,,,,,,,,,,,,,,,,,,,,,,,,
,6036d6284f9841a390cbd5a5,001,2022-04-28_22h02.47.475,classification_task,2021.2.3,Win32,143.7401179,6036d6284f9841a390cbd5a5,626b377229c10585ec392f89,626b471b9908862b7c4d9464,,,,,,,,,,,,,,,,,,,,,,,a,1,5.7155,"[""0.252"",""0.374"",""0.639"",""0.944""]","[0,1,1,1]",0,4,4,4,1,0,0,,,1,FALSE,,,,,,,,,,,,,,,,,,,,,,,,,,,,,,
,6036d6284f9841a390cbd5a5,001,2022-04-28_22h02.47.475,classification_task,2021.2.3,Win32,143.7401179,6036d6284f9841a390cbd5a5,626b377229c10585ec392f89,626b471b9908862b7c4d9464,,,,,,,,,,,,,,,,,,,,,,,a,1,5.5648,"[""0.597"",""0.563"",""0.776"",""0.894""]","[0,1,1,1]",0,5,5,5,1,0,1,,,1,FALSE,,,,,,,,,,,,,,,,,,,,,,,,,,,,,,
,6036d6284f9841a390cbd5a5,001,2022-04-28_22h02.47.475,classification_task,2021.2.3,Win32,143.7401179,6036d6284f9841a390cbd5a5,626b377229c10585ec392f89,626b471b9908862b7c4d9464,,,,,,,,,,,,,,,,,,,,,,,l,1,3.575,"[""0.255"",""0.421"",""0.472"",""0.825""]","[0,1,1,1]",0,6,6,6,1,1,1,,,1,FALSE,,,,,,,,,,,,,,,,,,,,,,,,,,,,,,
,6036d6284f9841a390cbd5a5,001,2022-04-28_22h02.47.475,classification_task,2021.2.3,Win32,143.7401179,6036d6284f9841a390cbd5a5,626b377229c10585ec392f89,626b471b9908862b7c4d9464,,,,,,,,,,,,,,,,,,,,,,,l,1,3.4144,"[""0.739"",""0.216"",""0.521"",""0.682""]","[0,1,1,1]",0,7,7,7,1,1,0,,,1,FALSE,,,,,,,,,,,,,,,,,,,,,,,,,,,,,,
,6036d6284f9841a390cbd5a5,001,2022-04-28_22h02.47.475,classification_task,2021.2.3,Win32,143.7401179,6036d6284f9841a390cbd5a5,626b377229c10585ec392f89,626b471b9908862b7c4d9464,,,,,,,,,,,,,,,,,,,,,,,a,1,4.0284,"[""0.289"",""0.374"",""0.639"",""0.255""]","[1,1,1,0]",0,8,8,8,1,0,0,,,1,FALSE,,,,,,,,,,,,,,,,,,,,,,,,,,,,,,
,6036d6284f9841a390cbd5a5,001,2022-04-28_22h02.47.475,classification_task,2021.2.3,Win32,143.7401179,6036d6284f9841a390cbd5a5,626b377229c10585ec392f89,626b471b9908862b7c4d9464,,,,,,,,,,,,,,,,,,,,,,,a,1,2.2583,"[""0.175"",""0.563"",""0.776"",""0.731""]","[1,1,1,0]",0,9,9,9,1,0,1,,,1,FALSE,,,,,,,,,,,,,,,,,,,,,,,,,,,,,,
,6036d6284f9841a390cbd5a5,001,2022-04-28_22h02.47.475,classification_task,2021.2.3,Win32,143.7401179,6036d6284f9841a390cbd5a5,626b377229c10585ec392f89,626b471b9908862b7c4d9464,,,,,,,,,,,,,,,,,,,,,,,a,1,2.438,"[""0.289"",""0.719"",""0.639"",""0.944""]","[1,0,1,1]",0,10,10,10,1,0,0,,,1,FALSE,,,,,,,,,,,,,,,,,,,,,,,,,,,,,,
,6036d6284f9841a390cbd5a5,001,2022-04-28_22h02.47.475,classification_task,2021.2.3,Win32,143.7401179,6036d6284f9841a390cbd5a5,626b377229c10585ec392f89,626b471b9908862b7c4d9464,,,,,,,,,,,,,,,,,,,,,,,l,1,3.7008,"[""0.057"",""0.216"",""0.521"",""0.252""]","[1,1,1,0]",0,11,11,11,1,1,0,,,1,FALSE,,,,,,,,,,,,,,,,,,,,,,,,,,,,,,
,6036d6284f9841a390cbd5a5,001,2022-04-28_22h02.47.475,classification_task,2021.2.3,Win32,143.7401179,6036d6284f9841a390cbd5a5,626b377229c10585ec392f89,626b471b9908862b7c4d9464,,,,,,,,,,,,,,,,,,,,,,,a,1,2.1903,"[""0.175"",""0.563"",""0.719"",""0.894""]","[1,1,0,1]",0,12,12,12,1,0,1,,,1,FALSE,,,,,,,,,,,,,,,,,,,,,,,,,,,,,,
,6036d6284f9841a390cbd5a5,001,2022-04-28_22h02.47.475,classification_task,2021.2.3,Win32,143.7401179,6036d6284f9841a390cbd5a5,626b377229c10585ec392f89,626b471b9908862b7c4d9464,,,,,,,,,,,,,,,,,,,,,,,l,1,2.5299,"[""0.128"",""0.605"",""0.472"",""0.825""]","[1,0,1,1]",0,13,13,13,1,1,1,,,1,FALSE,,,,,,,,,,,,,,,,,,,,,,,,,,,,,,
,6036d6284f9841a390cbd5a5,001,2022-04-28_22h02.47.475,classification_task,2021.2.3,Win32,143.7401179,6036d6284f9841a390cbd5a5,626b377229c10585ec392f89,626b471b9908862b7c4d9464,,,,,,,,,,,,,,,,,,,,,,,l,1,2.3631,"[""0.057"",""0.739"",""0.521"",""0.682""]","[1,0,1,1]",0,14,14,14,1,1,0,,,1,FALSE,,,,,,,,,,,,,,,,,,,,,,,,,,,,,,
,6036d6284f9841a390cbd5a5,001,2022-04-28_22h02.47.475,classification_task,2021.2.3,Win32,143.7401179,6036d6284f9841a390cbd5a5,626b377229c10585ec392f89,626b471b9908862b7c4d9464,,,,,,,,,,,,,,,,,,,,,,,a,1,2.5701,"[""0.289"",""0.374"",""0.719"",""0.944""]","[1,1,0,1]",0,15,15,15,1,0,0,,,1,FALSE,,,,,,,,,,,,,,,,,,,,,,,,,,,,,,
,6036d6284f9841a390cbd5a5,001,2022-04-28_22h02.47.475,classification_task,2021.2.3,Win32,143.7401179,6036d6284f9841a390cbd5a5,626b377229c10585ec392f89,626b471b9908862b7c4d9464,,,,,,,,,,,,,,,,,,,,,,,a,1,4.2854,"[""0.289"",""0.252"",""0.639"",""0.944""]","[1,0,1,1]",0,16,16,16,1,0,0,,,1,FALSE,,,,,,,,,,,,,,,,,,,,,,,,,,,,,,
,6036d6284f9841a390cbd5a5,001,2022-04-28_22h02.47.475,classification_task,2021.2.3,Win32,143.7401179,6036d6284f9841a390cbd5a5,626b377229c10585ec392f89,626b471b9908862b7c4d9464,,,,,,,,,,,,,,,,,,,,,,,a,1,3.4916,"[""0.289"",""0.374"",""0.736"",""0.944""]","[1,1,0,1]",0,17,17,17,1,0,0,,,1,FALSE,,,,,,,,,,,,,,,,,,,,,,,,,,,,,,
,6036d6284f9841a390cbd5a5,001,2022-04-28_22h02.47.475,classification_task,2021.2.3,Win32,143.7401179,6036d6284f9841a390cbd5a5,626b377229c10585ec392f89,626b471b9908862b7c4d9464,,,,,,,,,,,,,,,,,,,,,,,l,1,3.8072,"[""0.736"",""0.216"",""0.521"",""0.682""]","[0,1,1,1]",0,18,18,18,1,1,0,,,1,FALSE,,,,,,,,,,,,,,,,,,,,,,,,,,,,,,
,6036d6284f9841a390cbd5a5,001,2022-04-28_22h02.47.475,classification_task,2021.2.3,Win32,143.7401179,6036d6284f9841a390cbd5a5,626b377229c10585ec392f89,626b471b9908862b7c4d9464,,,,,,,,,,,,,,,,,,,,,,,a,1,5.0571,"[""0.738"",""0.374"",""0.639"",""0.944""]","[0,1,1,1]",0,19,19,19,1,0,0,,,1,FALSE,,,,,,,,,,,,,,,,,,,,,,,,,,,,,,
,6036d6284f9841a390cbd5a5,001,2022-04-28_22h02.47.475,classification_task,2021.2.3,Win32,143.7401179,6036d6284f9841a390cbd5a5,626b377229c10585ec392f89,626b471b9908862b7c4d9464,,,,,,,,,,,,,,,,,,,,,,,l,1,3.7227,"[""0.057"",""0.216"",""0.337"",""0.682""]","[1,1,0,1]",0,20,20,20,1,1,0,,,1,FALSE,,,,,,,,,,,,,,,,,,,,,,,,,,,,,,
,6036d6284f9841a390cbd5a5,001,2022-04-28_22h02.47.475,classification_task,2021.2.3,Win32,143.7401179,6036d6284f9841a390cbd5a5,626b377229c10585ec392f89,626b471b9908862b7c4d9464,,,,,,,,,,,,,,,,,,,,,,,a,1,4.8544,"[""0.175"",""0.563"",""0.776"",""0.599""]","[1,1,1,0]",0,21,21,21,1,0,1,,,1,FALSE,,,,,,,,,,,,,,,,,,,,,,,,,,,,,,
,6036d6284f9841a390cbd5a5,001,2022-04-28_22h02.47.475,classification_task,2021.2.3,Win32,143.7401179,6036d6284f9841a390cbd5a5,626b377229c10585ec392f89,626b471b9908862b7c4d9464,,,,,,,,,,,,,,,,,,,,,,,a,1,2.0872,"[""0.175"",""0.605"",""0.776"",""0.894""]","[1,0,1,1]",0,22,22,22,1,0,1,,,1,FALSE,,,,,,,,,,,,,,,,,,,,,,,,,,,,,,
,6036d6284f9841a390cbd5a5,001,2022-04-28_22h02.47.475,classification_task,2021.2.3,Win32,143.7401179,6036d6284f9841a390cbd5a5,626b377229c10585ec392f89,626b471b9908862b7c4d9464,,,,,,,,,,,,,,,,,,,,,,,a,1,3.221,"[""0.289"",""0.374"",""0.639"",""0.599""]","[1,1,1,0]",0,23,23,23,1,0,0,,,1,FALSE,,,,,,,,,,,,,,,,,,,,,,,,,,,,,,
,6036d6284f9841a390cbd5a5,001,2022-04-28_22h02.47.475,classification_task,2021.2.3,Win32,143.7401179,6036d6284f9841a390cbd5a5,626b377229c10585ec392f89,626b471b9908862b7c4d9464,,,,,,,,,,,,,,,,,,,,,,,l,1,2.4516,"[""0.128"",""0.736"",""0.472"",""0.825""]","[1,0,1,1]",0,24,24,24,1,1,1,,,1,FALSE,,,,,,,,,,,,,,,,,,,,,,,,,,,,,,
,6036d6284f9841a390cbd5a5,001,2022-04-28_22h02.47.475,classification_task,2021.2.3,Win32,143.7401179,6036d6284f9841a390cbd5a5,626b377229c10585ec392f89,626b471b9908862b7c4d9464,,,,,,,,,,,,,,,,,,,,,,,l,1,1.6846,"[""0.128"",""0.421"",""0.731"",""0.825""]","[1,1,0,1]",0,25,25,25,1,1,1,,,1,FALSE,,,,,,,,,,,,,,,,,,,,,,,,,,,,,,
,6036d6284f9841a390cbd5a5,001,2022-04-28_22h02.47.475,classification_task,2021.2.3,Win32,143.7401179,6036d6284f9841a390cbd5a5,626b377229c10585ec392f89,626b471b9908862b7c4d9464,,,,,,,,,,,,,,,,,,,,,,,l,0,5.2079,"[""0.337"",""0.563"",""0.776"",""0.894""]","[0,1,1,1]",0,26,26,26,1,0,1,,,1,FALSE,,,,,,,,,,,,,,,,,,,,,,,,,,,,,,
,6036d6284f9841a390cbd5a5,001,2022-04-28_22h02.47.475,classification_task,2021.2.3,Win32,143.7401179,6036d6284f9841a390cbd5a5,626b377229c10585ec392f89,626b471b9908862b7c4d9464,,,,,,,,,,,,,,,,,,,,,,,l,1,2.6062,"[""0.128"",""0.421"",""0.472"",""0.599""]","[1,1,1,0]",0,27,27,27,1,1,1,,,1,FALSE,,,,,,,,,,,,,,,,,,,,,,,,,,,,,,
,6036d6284f9841a390cbd5a5,001,2022-04-28_22h02.47.475,classification_task,2021.2.3,Win32,143.7401179,6036d6284f9841a390cbd5a5,626b377229c10585ec392f89,626b471b9908862b7c4d9464,,,,,,,,,,,,,,,,,,,,,,,l,1,2.8984,"[""0.731"",""0.421"",""0.472"",""0.825""]","[0,1,1,1]",0,28,28,28,1,1,1,,,1,FALSE,,,,,,,,,,,,,,,,,,,,,,,,,,,,,,
,6036d6284f9841a390cbd5a5,001,2022-04-28_22h02.47.475,classification_task,2021.2.3,Win32,143.7401179,6036d6284f9841a390cbd5a5,626b377229c10585ec392f89,626b471b9908862b7c4d9464,,,,,,,,,,,,,,,,,,,,,,,l,1,3.2032,"[""0.057"",""0.216"",""0.521"",""0.739""]","[1,1,1,0]",0,29,29,29,1,1,0,,,1,FALSE,,,,,,,,,,,,,,,,,,,,,,,,,,,,,,
,6036d6284f9841a390cbd5a5,001,2022-04-28_22h02.47.475,classification_task,2021.2.3,Win32,143.7401179,6036d6284f9841a390cbd5a5,626b377229c10585ec392f89,626b471b9908862b7c4d9464,,,,,,,,,,,,,,,,,,,,,,,a,1,2.0574,"[""0.175"",""0.563"",""0.719"",""0.894""]","[1,1,0,1]",0,30,30,30,1,0,1,,,1,FALSE,,,,,,,,,,,,,,,,,,,,,,,,,,,,,,
,6036d6284f9841a390cbd5a5,001,2022-04-28_22h02.47.475,classification_task,2021.2.3,Win32,143.7401179,6036d6284f9841a390cbd5a5,626b377229c10585ec392f89,626b471b9908862b7c4d9464,,,,,,,,,,,,,,,,,,,,,,,l,1,1.3566,"[""0.057"",""0.738"",""0.521"",""0.682""]","[1,0,1,1]",0,31,31,31,1,1,0,,,1,FALSE,,,,,,,,,,,,,,,,,,,,,,,,,,,,,,
,6036d6284f9841a390cbd5a5,001,2022-04-28_22h02.47.475,classification_task,2021.2.3,Win32,143.7401179,6036d6284f9841a390cbd5a5,626b377229c10585ec392f89,626b471b9908862b7c4d9464,,,,,,,,,,,,,,,,,,,,,,,l,0,4.2369,"[""0.289"",""0.739"",""0.639"",""0.944""]","[1,0,1,1]",0,32,32,32,1,0,0,,,1,FALSE,,,,,,,,,,,,,,,,,,,,,,,,,,,,,,
,6036d6284f9841a390cbd5a5,001,2022-04-28_22h02.47.475,classification_task,2021.2.3,Win32,143.7401179,6036d6284f9841a390cbd5a5,626b377229c10585ec392f89,626b471b9908862b7c4d9464,,,,,,,,,,,,,,,,,,,,,,,l,1,2.743,"[""0.739"",""0.421"",""0.472"",""0.825""]","[0,1,1,1]",0,33,33,33,1,1,1,,,1,FALSE,,,,,,,,,,,,,,,,,,,,,,,,,,,,,,
,6036d6284f9841a390cbd5a5,001,2022-04-28_22h02.47.475,classification_task,2021.2.3,Win32,143.7401179,6036d6284f9841a390cbd5a5,626b377229c10585ec392f89,626b471b9908862b7c4d9464,,,,,,,,,,,,,,,,,,,,,,,l,0,1.7434,"[""0.739"",""0.374"",""0.639"",""0.944""]","[0,1,1,1]",0,34,34,34,1,0,0,,,1,FALSE,,,,,,,,,,,,,,,,,,,,,,,,,,,,,,
,6036d6284f9841a390cbd5a5,001,2022-04-28_22h02.47.475,classification_task,2021.2.3,Win32,143.7401179,6036d6284f9841a390cbd5a5,626b377229c10585ec392f89,626b471b9908862b7c4d9464,,,,,,,,,,,,,,,,,,,,,,,a,1,1.838,"[""0.175"",""0.563"",""0.776"",""0.719""]","[1,1,1,0]",0,35,35,35,1,0,1,,,1,FALSE,,,,,,,,,,,,,,,,,,,,,,,,,,,,,,
,6036d6284f9841a390cbd5a5,001,2022-04-28_22h02.47.475,classification_task,2021.2.3,Win32,143.7401179,6036d6284f9841a390cbd5a5,626b377229c10585ec392f89,626b471b9908862b7c4d9464,,,,,,,,,,,,,,,,,,,,,,,l,0,2.1423,"[""0.289"",""0.374"",""0.639"",""0.337""]","[1,1,1,0]",0,36,36,36,1,0,0,,,1,FALSE,,,,,,,,,,,,,,,,,,,,,,,,,,,,,,
,6036d6284f9841a390cbd5a5,001,2022-04-28_22h02.47.475,classification_task,2021.2.3,Win32,143.7401179,6036d6284f9841a390cbd5a5,626b377229c10585ec392f89,626b471b9908862b7c4d9464,,,,,,,,,,,,,,,,,,,,,,,a,1,1.4579,"[""0.175"",""0.563"",""0.738"",""0.894""]","[1,1,0,1]",0,37,37,37,1,0,1,,,1,FALSE,,,,,,,,,,,,,,,,,,,,,,,,,,,,,,
,6036d6284f9841a390cbd5a5,001,2022-04-28_22h02.47.475,classification_task,2021.2.3,Win32,143.7401179,6036d6284f9841a390cbd5a5,626b377229c10585ec392f89,626b471b9908862b7c4d9464,,,,,,,,,,,,,,,,,,,,,,,l,1,1.6897,"[""0.094"",""0.216"",""0.521"",""0.682""]","[0,1,1,1]",0,38,38,38,1,1,0,,,1,FALSE,,,,,,,,,,,,,,,,,,,,,,,,,,,,,,
,6036d6284f9841a390cbd5a5,001,2022-04-28_22h02.47.475,classification_task,2021.2.3,Win32,143.7401179,6036d6284f9841a390cbd5a5,626b377229c10585ec392f89,626b471b9908862b7c4d9464,,,,,,,,,,,,,,,,,,,,,,,l,1,1.727,"[""0.128"",""0.421"",""0.605"",""0.825""]","[1,1,0,1]",0,39,39,39,1,1,1,,,1,FALSE,,,,,,,,,,,,,,,,,,,,,,,,,,,,,,
,6036d6284f9841a390cbd5a5,001,2022-04-28_22h02.47.475,classification_task,2021.2.3,Win32,143.7401179,6036d6284f9841a390cbd5a5,626b377229c10585ec392f89,626b471b9908862b7c4d9464,,,,,,,,,,,,,,,,,,,,,,,l,1,1.6162,"[""0.057"",""0.216"",""0.521"",""0.738""]","[1,1,1,0]",0,40,40,40,1,1,0,,,1,FALSE,,,,,,,,,,,,,,,,,,,,,,,,,,,,,,
,6036d6284f9841a390cbd5a5,001,2022-04-28_22h02.47.475,classification_task,2021.2.3,Win32,143.7401179,6036d6284f9841a390cbd5a5,626b377229c10585ec392f89,626b471b9908862b7c4d9464,,,,,,,,,,,,,,,,,,,,,,,l,1,1.9694,"[""0.128"",""0.421"",""0.472"",""0.739""]","[1,1,1,0]",0,41,41,41,1,1,1,,,1,FALSE,,,,,,,,,,,,,,,,,,,,,,,,,,,,,,
,6036d6284f9841a390cbd5a5,001,2022-04-28_22h02.47.475,classification_task,2021.2.3,Win32,143.7401179,6036d6284f9841a390cbd5a5,626b377229c10585ec392f89,626b471b9908862b7c4d9464,,,,,,,,,,,,,,,,,,,,,,,l,1,3.4056,"[""0.057"",""0.216"",""0.738"",""0.682""]","[1,1,0,1]",0,42,42,42,1,1,0,,,1,FALSE,,,,,,,,,,,,,,,,,,,,,,,,,,,,,,
,6036d6284f9841a390cbd5a5,001,2022-04-28_22h02.47.475,classification_task,2021.2.3,Win32,143.7401179,6036d6284f9841a390cbd5a5,626b377229c10585ec392f89,626b471b9908862b7c4d9464,,,,,,,,,,,,,,,,,,,,,,,a,1,0.6265,"[""0.289"",""0.374"",""0.255"",""0.944""]","[1,1,0,1]",0,43,43,43,1,0,0,,,1,FALSE,,,,,,,,,,,,,,,,,,,,,,,,,,,,,,
,6036d6284f9841a390cbd5a5,001,2022-04-28_22h02.47.475,classification_task,2021.2.3,Win32,143.7401179,6036d6284f9841a390cbd5a5,626b377229c10585ec392f89,626b471b9908862b7c4d9464,,,,,,,,,,,,,,,,,,,,,,,a,1,1.4351,"[""0.175"",""0.597"",""0.776"",""0.894""]","[1,0,1,1]",0,44,44,44,1,0,1,,,1,FALSE,,,,,,,,,,,,,,,,,,,,,,,,,,,,,,
,6036d6284f9841a390cbd5a5,001,2022-04-28_22h02.47.475,classification_task,2021.2.3,Win32,143.7401179,6036d6284f9841a390cbd5a5,626b377229c10585ec392f89,626b471b9908862b7c4d9464,,,,,,,,,,,,,,,,,,,,,,,l,1,1.0045,"[""0.128"",""0.605"",""0.472"",""0.825""]","[1,0,1,1]",0,45,45,45,1,1,1,,,1,FALSE,,,,,,,,,,,,,,,,,,,,,,,,,,,,,,
,6036d6284f9841a390cbd5a5,001,2022-04-28_22h02.47.475,classification_task,2021.2.3,Win32,143.7401179,6036d6284f9841a390cbd5a5,626b377229c10585ec392f89,626b471b9908862b7c4d9464,,,,,,,,,,,,,,,,,,,,,,,l,0,1.409,"[""0.094"",""0.563"",""0.776"",""0.894""]","[0,1,1,1]",0,46,46,46,1,0,1,,,1,FALSE,,,,,,,,,,,,,,,,,,,,,,,,,,,,,,
,6036d6284f9841a390cbd5a5,001,2022-04-28_22h02.47.475,classification_task,2021.2.3,Win32,143.7401179,6036d6284f9841a390cbd5a5,626b377229c10585ec392f89,626b471b9908862b7c4d9464,,,,,,,,,,,,,,,,,,,,,,,l,1,1.8558,"[""0.057"",""0.605"",""0.521"",""0.682""]","[1,0,1,1]",0,47,47,47,1,1,0,,,1,FALSE,,,,,,,,,,,,,,,,,,,,,,,,,,,,,,
,6036d6284f9841a390cbd5a5,001,2022-04-28_22h02.47.475,classification_task,2021.2.3,Win32,143.7401179,6036d6284f9841a390cbd5a5,626b377229c10585ec392f89,626b471b9908862b7c4d9464,,,,,,,,,,,,,,,,,,,,,,,l,1,2.9181,"[""0.128"",""0.421"",""0.326"",""0.825""]","[1,1,0,1]",0,48,48,48,1,1,1,,,1,FALSE,,,,,,,,,,,,,,,,,,,,,,,,,,,,,,
,6036d6284f9841a390cbd5a5,001,2022-04-28_22h02.47.475,classification_task,2021.2.3,Win32,143.7401179,6036d6284f9841a390cbd5a5,626b377229c10585ec392f89,626b471b9908862b7c4d9464,,,,,,,,,,,,,,,,,,,,,,,a,0,2.658,"[""0.599"",""0.216"",""0.521"",""0.682""]","[0,1,1,1]",0,49,49,49,1,1,0,,,1,FALSE,,,,,,,,,,,,,,,,,,,,,,,,,,,,,,
,6036d6284f9841a390cbd5a5,001,2022-04-28_22h02.47.475,classification_task,2021.2.3,Win32,143.7401179,6036d6284f9841a390cbd5a5,626b377229c10585ec392f89,626b471b9908862b7c4d9464,,,,,,,,,,,,,,,,,,,,,,,a,1,2.7543,"[""0.599"",""0.563"",""0.776"",""0.894""]","[0,1,1,1]",0,50,50,50,1,0,1,,,1,FALSE,,,,,,,,,,,,,,,,,,,,,,,,,,,,,,
,6036d6284f9841a390cbd5a5,001,2022-04-28_22h02.47.475,classification_task,2021.2.3,Win32,143.7401179,6036d6284f9841a390cbd5a5,626b377229c10585ec392f89,626b471b9908862b7c4d9464,,,,,,,,,,,,,,,,,,,,,,,l,0,3.2953,"[""0.324"",""0.374"",""0.639"",""0.944""]","[0,1,1,1]",0,51,51,51,1,0,0,,,1,FALSE,,,,,,,,,,,,,,,,,,,,,,,,,,,,,,
,6036d6284f9841a390cbd5a5,001,2022-04-28_22h02.47.475,classification_task,2021.2.3,Win32,143.7401179,6036d6284f9841a390cbd5a5,626b377229c10585ec392f89,626b471b9908862b7c4d9464,,,,,,,,,,,,,,,,,,,,,,,l,1,1.4623,"[""0.057"",""0.216"",""0.326"",""0.682""]","[1,1,0,1]",0,52,52,52,1,1,0,,,1,FALSE,,,,,,,,,,,,,,,,,,,,,,,,,,,,,,
,6036d6284f9841a390cbd5a5,001,2022-04-28_22h02.47.475,classification_task,2021.2.3,Win32,143.7401179,6036d6284f9841a390cbd5a5,626b377229c10585ec392f89,626b471b9908862b7c4d9464,,,,,,,,,,,,,,,,,,,,,,,a,1,4.9689,"[""0.175"",""0.563"",""0.776"",""0.739""]","[1,1,1,0]",0,53,53,53,1,0,1,,,1,FALSE,,,,,,,,,,,,,,,,,,,,,,,,,,,,,,
,6036d6284f9841a390cbd5a5,001,2022-04-28_22h02.47.475,classification_task,2021.2.3,Win32,143.7401179,6036d6284f9841a390cbd5a5,626b377229c10585ec392f89,626b471b9908862b7c4d9464,,,,,,,,,,,,,,,,,,,,,,,l,1,1.4105,"[""0.599"",""0.421"",""0.472"",""0.825""]","[0,1,1,1]",0,54,54,54,1,1,1,,,1,FALSE,,,,,,,,,,,,,,,,,,,,,,,,,,,,,,
,6036d6284f9841a390cbd5a5,001,2022-04-28_22h02.47.475,classification_task,2021.2.3,Win32,143.7401179,6036d6284f9841a390cbd5a5,626b377229c10585ec392f89,626b471b9908862b7c4d9464,,,,,,,,,,,,,,,,,,,,,,,l,0,2.6433,"[""0.289"",""0.255"",""0.639"",""0.944""]","[1,0,1,1]",0,55,55,55,1,0,0,,,1,FALSE,,,,,,,,,,,,,,,,,,,,,,,,,,,,,,
,6036d6284f9841a390cbd5a5,001,2022-04-28_22h02.47.475,classification_task,2021.2.3,Win32,143.7401179,6036d6284f9841a390cbd5a5,626b377229c10585ec392f89,626b471b9908862b7c4d9464,,,,,,,,,,,,,,,,,,,,,,,l,1,1.382,"[""0.057"",""0.216"",""0.521"",""0.731""]","[1,1,1,0]",0,56,56,56,1,1,0,,,1,FALSE,,,,,,,,,,,,,,,,,,,,,,,,,,,,,,
,6036d6284f9841a390cbd5a5,001,2022-04-28_22h02.47.475,classification_task,2021.2.3,Win32,143.7401179,6036d6284f9841a390cbd5a5,626b377229c10585ec392f89,626b471b9908862b7c4d9464,,,,,,,,,,,,,,,,,,,,,,,l,1,1.5638,"[""0.128"",""0.736"",""0.472"",""0.825""]","[1,0,1,1]",0,57,57,57,1,1,1,,,1,FALSE,,,,,,,,,,,,,,,,,,,,,,,,,,,,,,
,6036d6284f9841a390cbd5a5,001,2022-04-28_22h02.47.475,classification_task,2021.2.3,Win32,143.7401179,6036d6284f9841a390cbd5a5,626b377229c10585ec392f89,626b471b9908862b7c4d9464,,,,,,,,,,,,,,,,,,,,,,,l,1,2.6627,"[""0.057"",""0.599"",""0.521"",""0.682""]","[1,0,1,1]",0,58,58,58,1,1,0,,,1,FALSE,,,,,,,,,,,,,,,,,,,,,,,,,,,,,,
,6036d6284f9841a390cbd5a5,001,2022-04-28_22h02.47.475,classification_task,2021.2.3,Win32,143.7401179,6036d6284f9841a390cbd5a5,626b377229c10585ec392f89,626b471b9908862b7c4d9464,,,,,,,,,,,,,,,,,,,,,,,l,0,3.5159,"[""0.289"",""0.374"",""0.326"",""0.944""]","[1,1,0,1]",0,59,59,59,1,0,0,,,1,FALSE,,,,,,,,,,,,,,,,,,,,,,,,,,,,,,
,6036d6284f9841a390cbd5a5,001,2022-04-28_22h02.47.475,classification_task,2021.2.3,Win32,143.7401179,6036d6284f9841a390cbd5a5,626b377229c10585ec392f89,626b471b9908862b7c4d9464,,,,,,,,,,,,,,,,,,,,,,,a,1,6.9536,"[""0.289"",""0.374"",""0.639"",""0.605""]","[1,1,1,0]",0,60,60,60,1,0,0,,,1,FALSE,,,,,,,,,,,,,,,,,,,,,,,,,,,,,,
,6036d6284f9841a390cbd5a5,001,2022-04-28_22h02.47.475,classification_task,2021.2.3,Win32,143.7401179,6036d6284f9841a390cbd5a5,626b377229c10585ec392f89,626b471b9908862b7c4d9464,,,,,,,,,,,,,,,,,,,,,,,a,1,2.1465,"[""0.175"",""0.324"",""0.776"",""0.894""]","[1,0,1,1]",0,61,61,61,1,0,1,,,1,FALSE,,,,,,,,,,,,,,,,,,,,,,,,,,,,,,
,6036d6284f9841a390cbd5a5,001,2022-04-28_22h02.47.475,classification_task,2021.2.3,Win32,143.7401179,6036d6284f9841a390cbd5a5,626b377229c10585ec392f89,626b471b9908862b7c4d9464,,,,,,,,,,,,,,,,,,,,,,,l,1,2.6164,"[""0.128"",""0.421"",""0.472"",""0.739""]","[1,1,1,0]",0,62,62,62,1,1,1,,,1,FALSE,,,,,,,,,,,,,,,,,,,,,,,,,,,,,,
,6036d6284f9841a390cbd5a5,001,2022-04-28_22h02.47.475,classification_task,2021.2.3,Win32,143.7401179,6036d6284f9841a390cbd5a5,626b377229c10585ec392f89,626b471b9908862b7c4d9464,,,,,,,,,,,,,,,,,,,,,,,a,1,2.8152,"[""0.175"",""0.563"",""0.337"",""0.894""]","[1,1,0,1]",0,63,63,63,1,0,1,,,1,FALSE,,,,,,,,,,,,,,,,,,,,,,,,,,,,,,
,6036d6284f9841a390cbd5a5,001,2022-04-28_22h02.47.475,classification_task,2021.2.3,Win32,143.7401179,6036d6284f9841a390cbd5a5,626b377229c10585ec392f89,626b471b9908862b7c4d9464,,,,,,,,,,,,,,,,,,,,,,,,,,,,,,,,,,,,,,,0, ,,0,8.557956478,405.1602,0,0,0,0,1,2,1,,,,,,,,,,,,,,,,,
,6036d6284f9841a390cbd5a5,001,2022-04-28_22h02.47.475,classification_task,2021.2.3,Win32,143.7401179,6036d6284f9841a390cbd5a5,626b377229c10585ec392f89,626b471b9908862b7c4d9464,,,,,,,,,,,,,,,,,,,,,,,,,,,,,,,,,,,,,,,1,  ,,0,5.202088129,425.0899,0,0,0,0,1,2,1,,,,,,,,,,,,,,,,,
,6036d6284f9841a390cbd5a5,001,2022-04-28_22h02.47.475,classification_task,2021.2.3,Win32,143.7401179,6036d6284f9841a390cbd5a5,626b377229c10585ec392f89,626b471b9908862b7c4d9464,,,,,,,,,,,,,,,,,,,,,,,,,,,,,,,,,,,,,,,2,  ,,0,0.205027203,417.1645,0,0,0,0,1,2,1,,,,,,,,,,,,,,,,,
,6036d6284f9841a390cbd5a5,001,2022-04-28_22h02.47.475,classification_task,2021.2.3,Win32,143.7401179,6036d6284f9841a390cbd5a5,626b377229c10585ec392f89,626b471b9908862b7c4d9464,,,,,,,,,,,,,,,,,,,,,,,,,,,,,,,,,,,,,,,,,,,,,0,0,0,0,1,,1,,,,,,,,,,,,,,,,,
,6036d6284f9841a390cbd5a5,001,2022-04-28_22h02.47.475,classification_task,2021.2.3,Win32,143.7401179,6036d6284f9841a390cbd5a5,626b377229c10585ec392f89,626b471b9908862b7c4d9464,,,,,,,,,,,,,,,,,,,,,space,11.5497,l,1,5.8169,"[""0.128"",""0.094"",""0.472"",""0.825""]","[1,0,1,1]",0,0,0,0,1,1,1,,,1,FALSE,,,,,,,,,,,,,,,,,,,,,,,,,,,,,,
,6036d6284f9841a390cbd5a5,001,2022-04-28_22h02.47.475,classification_task,2021.2.3,Win32,143.7401179,6036d6284f9841a390cbd5a5,626b377229c10585ec392f89,626b471b9908862b7c4d9464,,,,,,,,,,,,,,,,,,,,,,,l,0,2.5409,"[""0.738"",""0.374"",""0.639"",""0.944""]","[0,1,1,1]",0,1,1,1,1,0,0,,,1,FALSE,,,,,,,,,,,,,,,,,,,,,,,,,,,,,,
,6036d6284f9841a390cbd5a5,001,2022-04-28_22h02.47.475,classification_task,2021.2.3,Win32,143.7401179,6036d6284f9841a390cbd5a5,626b377229c10585ec392f89,626b471b9908862b7c4d9464,,,,,,,,,,,,,,,,,,,,,,,l,0,1.7021,"[""0.289"",""0.374"",""0.738"",""0.944""]","[1,1,0,1]",0,2,2,2,1,0,0,,,1,FALSE,,,,,,,,,,,,,,,,,,,,,,,,,,,,,,
,6036d6284f9841a390cbd5a5,001,2022-04-28_22h02.47.475,classification_task,2021.2.3,Win32,143.7401179,6036d6284f9841a390cbd5a5,626b377229c10585ec392f89,626b471b9908862b7c4d9464,,,,,,,,,,,,,,,,,,,,,,,l,1,1.6374,"[""0.326"",""0.421"",""0.472"",""0.825""]","[0,1,1,1]",0,3,3,3,1,1,1,,,1,FALSE,,,,,,,,,,,,,,,,,,,,,,,,,,,,,,
,6036d6284f9841a390cbd5a5,001,2022-04-28_22h02.47.475,classification_task,2021.2.3,Win32,143.7401179,6036d6284f9841a390cbd5a5,626b377229c10585ec392f89,626b471b9908862b7c4d9464,,,,,,,,,,,,,,,,,,,,,,,a,0,1.6355,"[""0.057"",""0.216"",""0.521"",""0.324""]","[1,1,1,0]",0,4,4,4,1,1,0,,,1,FALSE,,,,,,,,,,,,,,,,,,,,,,,,,,,,,,
,6036d6284f9841a390cbd5a5,001,2022-04-28_22h02.47.475,classification_task,2021.2.3,Win32,143.7401179,6036d6284f9841a390cbd5a5,626b377229c10585ec392f89,626b471b9908862b7c4d9464,,,,,,,,,,,,,,,,,,,,,,,a,1,0.9911,"[""0.175"",""0.563"",""0.738"",""0.894""]","[1,1,0,1]",0,5,5,5,1,0,1,,,1,FALSE,,,,,,,,,,,,,,,,,,,,,,,,,,,,,,
,6036d6284f9841a390cbd5a5,001,2022-04-28_22h02.47.475,classification_task,2021.2.3,Win32,143.7401179,6036d6284f9841a390cbd5a5,626b377229c10585ec392f89,626b471b9908862b7c4d9464,,,,,,,,,,,,,,,,,,,,,,,l,1,1.0817,"[""0.057"",""0.216"",""0.738"",""0.682""]","[1,1,0,1]",0,6,6,6,1,1,0,,,1,FALSE,,,,,,,,,,,,,,,,,,,,,,,,,,,,,,
,6036d6284f9841a390cbd5a5,001,2022-04-28_22h02.47.475,classification_task,2021.2.3,Win32,143.7401179,6036d6284f9841a390cbd5a5,626b377229c10585ec392f89,626b471b9908862b7c4d9464,,,,,,,,,,,,,,,,,,,,,,,l,1,1.7852,"[""0.057"",""0.597"",""0.521"",""0.682""]","[1,0,1,1]",0,7,7,7,1,1,0,,,1,FALSE,,,,,,,,,,,,,,,,,,,,,,,,,,,,,,
,6036d6284f9841a390cbd5a5,001,2022-04-28_22h02.47.475,classification_task,2021.2.3,Win32,143.7401179,6036d6284f9841a390cbd5a5,626b377229c10585ec392f89,626b471b9908862b7c4d9464,,,,,,,,,,,,,,,,,,,,,,,l,1,1.372,"[""0.128"",""0.421"",""0.472"",""0.739""]","[1,1,1,0]",0,8,8,8,1,1,1,,,1,FALSE,,,,,,,,,,,,,,,,,,,,,,,,,,,,,,
,6036d6284f9841a390cbd5a5,001,2022-04-28_22h02.47.475,classification_task,2021.2.3,Win32,143.7401179,6036d6284f9841a390cbd5a5,626b377229c10585ec392f89,626b471b9908862b7c4d9464,,,,,,,,,,,,,,,,,,,,,,,a,1,1.0355,"[""0.175"",""0.563"",""0.776"",""0.739""]","[1,1,1,0]",0,9,9,9,1,0,1,,,1,FALSE,,,,,,,,,,,,,,,,,,,,,,,,,,,,,,
,6036d6284f9841a390cbd5a5,001,2022-04-28_22h02.47.475,classification_task,2021.2.3,Win32,143.7401179,6036d6284f9841a390cbd5a5,626b377229c10585ec392f89,626b471b9908862b7c4d9464,,,,,,,,,,,,,,,,,,,,,,,a,1,0.9447,"[""0.175"",""0.739"",""0.776"",""0.894""]","[1,0,1,1]",0,10,10,10,1,0,1,,,1,FALSE,,,,,,,,,,,,,,,,,,,,,,,,,,,,,,
,6036d6284f9841a390cbd5a5,001,2022-04-28_22h02.47.475,classification_task,2021.2.3,Win32,143.7401179,6036d6284f9841a390cbd5a5,626b377229c10585ec392f89,626b471b9908862b7c4d9464,,,,,,,,,,,,,,,,,,,,,,,l,1,1.1829,"[""0.252"",""0.216"",""0.521"",""0.682""]","[0,1,1,1]",0,11,11,11,1,1,0,,,1,FALSE,,,,,,,,,,,,,,,,,,,,,,,,,,,,,,
,6036d6284f9841a390cbd5a5,001,2022-04-28_22h02.47.475,classification_task,2021.2.3,Win32,143.7401179,6036d6284f9841a390cbd5a5,626b377229c10585ec392f89,626b471b9908862b7c4d9464,,,,,,,,,,,,,,,,,,,,,,,l,0,1.3583,"[""0.289"",""0.374"",""0.639"",""0.605""]","[1,1,1,0]",0,12,12,12,1,0,0,,,1,FALSE,,,,,,,,,,,,,,,,,,,,,,,,,,,,,,
,6036d6284f9841a390cbd5a5,001,2022-04-28_22h02.47.475,classification_task,2021.2.3,Win32,143.7401179,6036d6284f9841a390cbd5a5,626b377229c10585ec392f89,626b471b9908862b7c4d9464,,,,,,,,,,,,,,,,,,,,,,,l,1,1.5363,"[""0.128"",""0.421"",""0.738"",""0.825""]","[1,1,0,1]",0,13,13,13,1,1,1,,,1,FALSE,,,,,,,,,,,,,,,,,,,,,,,,,,,,,,
,6036d6284f9841a390cbd5a5,001,2022-04-28_22h02.47.475,classification_task,2021.2.3,Win32,143.7401179,6036d6284f9841a390cbd5a5,626b377229c10585ec392f89,626b471b9908862b7c4d9464,,,,,,,,,,,,,,,,,,,,,,,a,1,2.2303,"[""0.252"",""0.563"",""0.776"",""0.894""]","[0,1,1,1]",0,14,14,14,1,0,1,,,1,FALSE,,,,,,,,,,,,,,,,,,,,,,,,,,,,,,
,6036d6284f9841a390cbd5a5,001,2022-04-28_22h02.47.475,classification_task,2021.2.3,Win32,143.7401179,6036d6284f9841a390cbd5a5,626b377229c10585ec392f89,626b471b9908862b7c4d9464,,,,,,,,,,,,,,,,,,,,,,,a,1,1.454,"[""0.289"",""0.337"",""0.639"",""0.944""]","[1,0,1,1]",0,15,15,15,1,0,0,,,1,FALSE,,,,,,,,,,,,,,,,,,,,,,,,,,,,,,
,6036d6284f9841a390cbd5a5,001,2022-04-28_22h02.47.475,classification_task,2021.2.3,Win32,143.7401179,6036d6284f9841a390cbd5a5,626b377229c10585ec392f89,626b471b9908862b7c4d9464,,,,,,,,,,,,,,,,,,,,,,,l,1,1.6,"[""0.057"",""0.216"",""0.739"",""0.682""]","[1,1,0,1]",0,16,16,16,1,1,0,,,1,FALSE,,,,,,,,,,,,,,,,,,,,,,,,,,,,,,
,6036d6284f9841a390cbd5a5,001,2022-04-28_22h02.47.475,classification_task,2021.2.3,Win32,143.7401179,6036d6284f9841a390cbd5a5,626b377229c10585ec392f89,626b471b9908862b7c4d9464,,,,,,,,,,,,,,,,,,,,,,,l,0,0.0984,"[""0.175"",""0.563"",""0.776"",""0.605""]","[1,1,1,0]",0,17,17,17,1,0,1,,,1,FALSE,,,,,,,,,,,,,,,,,,,,,,,,,,,,,,
,6036d6284f9841a390cbd5a5,001,2022-04-28_22h02.47.475,classification_task,2021.2.3,Win32,143.7401179,6036d6284f9841a390cbd5a5,626b377229c10585ec392f89,626b471b9908862b7c4d9464,,,,,,,,,,,,,,,,,,,,,,,l,1,2.0487,"[""0.057"",""0.094"",""0.521"",""0.682""]","[1,0,1,1]",0,18,18,18,1,1,0,,,1,FALSE,,,,,,,,,,,,,,,,,,,,,,,,,,,,,,
,6036d6284f9841a390cbd5a5,001,2022-04-28_22h02.47.475,classification_task,2021.2.3,Win32,143.7401179,6036d6284f9841a390cbd5a5,626b377229c10585ec392f89,626b471b9908862b7c4d9464,,,,,,,,,,,,,,,,,,,,,,,a,1,1.1753,"[""0.175"",""0.597"",""0.776"",""0.894""]","[1,0,1,1]",0,19,19,19,1,0,1,,,1,FALSE,,,,,,,,,,,,,,,,,,,,,,,,,,,,,,
,6036d6284f9841a390cbd5a5,001,2022-04-28_22h02.47.475,classification_task,2021.2.3,Win32,143.7401179,6036d6284f9841a390cbd5a5,626b377229c10585ec392f89,626b471b9908862b7c4d9464,,,,,,,,,,,,,,,,,,,,,,,l,1,1.1769,"[""0.057"",""0.216"",""0.521"",""0.731""]","[1,1,1,0]",0,20,20,20,1,1,0,,,1,FALSE,,,,,,,,,,,,,,,,,,,,,,,,,,,,,,
,6036d6284f9841a390cbd5a5,001,2022-04-28_22h02.47.475,classification_task,2021.2.3,Win32,143.7401179,6036d6284f9841a390cbd5a5,626b377229c10585ec392f89,626b471b9908862b7c4d9464,,,,,,,,,,,,,,,,,,,,,,,a,1,4.2474,"[""0.252"",""0.563"",""0.776"",""0.894""]","[0,1,1,1]",0,21,21,21,1,0,1,,,1,FALSE,,,,,,,,,,,,,,,,,,,,,,,,,,,,,,
,6036d6284f9841a390cbd5a5,001,2022-04-28_22h02.47.475,classification_task,2021.2.3,Win32,143.7401179,6036d6284f9841a390cbd5a5,626b377229c10585ec392f89,626b471b9908862b7c4d9464,,,,,,,,,,,,,,,,,,,,,,,l,0,3.2067,"[""0.324"",""0.374"",""0.639"",""0.944""]","[0,1,1,1]",0,22,22,22,1,0,0,,,1,FALSE,,,,,,,,,,,,,,,,,,,,,,,,,,,,,,
,6036d6284f9841a390cbd5a5,001,2022-04-28_22h02.47.475,classification_task,2021.2.3,Win32,143.7401179,6036d6284f9841a390cbd5a5,626b377229c10585ec392f89,626b471b9908862b7c4d9464,,,,,,,,,,,,,,,,,,,,,,,l,0,1.9687,"[""0.289"",""0.731"",""0.639"",""0.944""]","[1,0,1,1]",0,23,23,23,1,0,0,,,1,FALSE,,,,,,,,,,,,,,,,,,,,,,,,,,,,,,
,6036d6284f9841a390cbd5a5,001,2022-04-28_22h02.47.475,classification_task,2021.2.3,Win32,143.7401179,6036d6284f9841a390cbd5a5,626b377229c10585ec392f89,626b471b9908862b7c4d9464,,,,,,,,,,,,,,,,,,,,,,,l,0,0.7761,"[""0.289"",""0.374"",""0.719"",""0.944""]","[1,1,0,1]",0,24,24,24,1,0,0,,,1,FALSE,,,,,,,,,,,,,,,,,,,,,,,,,,,,,,
,6036d6284f9841a390cbd5a5,001,2022-04-28_22h02.47.475,classification_task,2021.2.3,Win32,143.7401179,6036d6284f9841a390cbd5a5,626b377229c10585ec392f89,626b471b9908862b7c4d9464,,,,,,,,,,,,,,,,,,,,,,,a,1,1.7239,"[""0.175"",""0.563"",""0.324"",""0.894""]","[1,1,0,1]",0,25,25,25,1,0,1,,,1,FALSE,,,,,,,,,,,,,,,,,,,,,,,,,,,,,,
,6036d6284f9841a390cbd5a5,001,2022-04-28_22h02.47.475,classification_task,2021.2.3,Win32,143.7401179,6036d6284f9841a390cbd5a5,626b377229c10585ec392f89,626b471b9908862b7c4d9464,,,,,,,,,,,,,,,,,,,,,,,l,1,1.4078,"[""0.128"",""0.739"",""0.472"",""0.825""]","[1,0,1,1]",0,26,26,26,1,1,1,,,1,FALSE,,,,,,,,,,,,,,,,,,,,,,,,,,,,,,
,6036d6284f9841a390cbd5a5,001,2022-04-28_22h02.47.475,classification_task,2021.2.3,Win32,143.7401179,6036d6284f9841a390cbd5a5,626b377229c10585ec392f89,626b471b9908862b7c4d9464,,,,,,,,,,,,,,,,,,,,,,,a,1,1.2017,"[""0.289"",""0.374"",""0.639"",""0.738""]","[1,1,1,0]",0,27,27,27,1,0,0,,,1,FALSE,,,,,,,,,,,,,,,,,,,,,,,,,,,,,,
,6036d6284f9841a390cbd5a5,001,2022-04-28_22h02.47.475,classification_task,2021.2.3,Win32,143.7401179,6036d6284f9841a390cbd5a5,626b377229c10585ec392f89,626b471b9908862b7c4d9464,,,,,,,,,,,,,,,,,,,,,,,l,1,1.6307,"[""0.128"",""0.421"",""0.472"",""0.738""]","[1,1,1,0]",0,28,28,28,1,1,1,,,1,FALSE,,,,,,,,,,,,,,,,,,,,,,,,,,,,,,
,6036d6284f9841a390cbd5a5,001,2022-04-28_22h02.47.475,classification_task,2021.2.3,Win32,143.7401179,6036d6284f9841a390cbd5a5,626b377229c10585ec392f89,626b471b9908862b7c4d9464,,,,,,,,,,,,,,,,,,,,,,,l,1,1.2299,"[""0.337"",""0.421"",""0.472"",""0.825""]","[0,1,1,1]",0,29,29,29,1,1,1,,,1,FALSE,,,,,,,,,,,,,,,,,,,,,,,,,,,,,,
,6036d6284f9841a390cbd5a5,001,2022-04-28_22h02.47.475,classification_task,2021.2.3,Win32,143.7401179,6036d6284f9841a390cbd5a5,626b377229c10585ec392f89,626b471b9908862b7c4d9464,,,,,,,,,,,,,,,,,,,,,,,l,1,1.8355,"[""0.719"",""0.216"",""0.521"",""0.682""]","[0,1,1,1]",0,30,30,30,1,1,0,,,1,FALSE,,,,,,,,,,,,,,,,,,,,,,,,,,,,,,
,6036d6284f9841a390cbd5a5,001,2022-04-28_22h02.47.475,classification_task,2021.2.3,Win32,143.7401179,6036d6284f9841a390cbd5a5,626b377229c10585ec392f89,626b471b9908862b7c4d9464,,,,,,,,,,,,,,,,,,,,,,,l,1,1.3531,"[""0.128"",""0.421"",""0.736"",""0.825""]","[1,1,0,1]",0,31,31,31,1,1,1,,,1,FALSE,,,,,,,,,,,,,,,,,,,,,,,,,,,,,,
,6036d6284f9841a390cbd5a5,001,2022-04-28_22h02.47.475,classification_task,2021.2.3,Win32,143.7401179,6036d6284f9841a390cbd5a5,626b377229c10585ec392f89,626b471b9908862b7c4d9464,,,,,,,,,,,,,,,,,,,,,,,a,1,3.3722,"[""0.719"",""0.563"",""0.776"",""0.894""]","[0,1,1,1]",0,32,32,32,1,0,1,,,1,FALSE,,,,,,,,,,,,,,,,,,,,,,,,,,,,,,
,6036d6284f9841a390cbd5a5,001,2022-04-28_22h02.47.475,classification_task,2021.2.3,Win32,143.7401179,6036d6284f9841a390cbd5a5,626b377229c10585ec392f89,626b471b9908862b7c4d9464,,,,,,,,,,,,,,,,,,,,,,,l,0,1.4353,"[""0.289"",""0.374"",""0.599"",""0.944""]","[1,1,0,1]",0,33,33,33,1,0,0,,,1,FALSE,,,,,,,,,,,,,,,,,,,,,,,,,,,,,,
,6036d6284f9841a390cbd5a5,001,2022-04-28_22h02.47.475,classification_task,2021.2.3,Win32,143.7401179,6036d6284f9841a390cbd5a5,626b377229c10585ec392f89,626b471b9908862b7c4d9464,,,,,,,,,,,,,,,,,,,,,,,a,1,1.7186,"[""0.175"",""0.563"",""0.739"",""0.894""]","[1,1,0,1]",0,34,34,34,1,0,1,,,1,FALSE,,,,,,,,,,,,,,,,,,,,,,,,,,,,,,
,6036d6284f9841a390cbd5a5,001,2022-04-28_22h02.47.475,classification_task,2021.2.3,Win32,143.7401179,6036d6284f9841a390cbd5a5,626b377229c10585ec392f89,626b471b9908862b7c4d9464,,,,,,,,,,,,,,,,,,,,,,,l,1,2.0688,"[""0.324"",""0.421"",""0.472"",""0.825""]","[0,1,1,1]",0,35,35,35,1,1,1,,,1,FALSE,,,,,,,,,,,,,,,,,,,,,,,,,,,,,,
,6036d6284f9841a390cbd5a5,001,2022-04-28_22h02.47.475,classification_task,2021.2.3,Win32,143.7401179,6036d6284f9841a390cbd5a5,626b377229c10585ec392f89,626b471b9908862b7c4d9464,,,,,,,,,,,,,,,,,,,,,,,l,1,2.3342,"[""0.128"",""0.421"",""0.472"",""0.605""]","[1,1,1,0]",0,36,36,36,1,1,1,,,1,FALSE,,,,,,,,,,,,,,,,,,,,,,,,,,,,,,
,6036d6284f9841a390cbd5a5,001,2022-04-28_22h02.47.475,classification_task,2021.2.3,Win32,143.7401179,6036d6284f9841a390cbd5a5,626b377229c10585ec392f89,626b471b9908862b7c4d9464,,,,,,,,,,,,,,,,,,,,,,,l,1,1.5697,"[""0.057"",""0.216"",""0.324"",""0.682""]","[1,1,0,1]",0,37,37,37,1,1,0,,,1,FALSE,,,,,,,,,,,,,,,,,,,,,,,,,,,,,,
,6036d6284f9841a390cbd5a5,001,2022-04-28_22h02.47.475,classification_task,2021.2.3,Win32,143.7401179,6036d6284f9841a390cbd5a5,626b377229c10585ec392f89,626b471b9908862b7c4d9464,,,,,,,,,,,,,,,,,,,,,,,l,0,2.0945,"[""0.289"",""0.719"",""0.639"",""0.944""]","[1,0,1,1]",0,38,38,38,1,0,0,,,1,FALSE,,,,,,,,,,,,,,,,,,,,,,,,,,,,,,
,6036d6284f9841a390cbd5a5,001,2022-04-28_22h02.47.475,classification_task,2021.2.3,Win32,143.7401179,6036d6284f9841a390cbd5a5,626b377229c10585ec392f89,626b471b9908862b7c4d9464,,,,,,,,,,,,,,,,,,,,,,,l,1,1.3532,"[""0.128"",""0.337"",""0.472"",""0.825""]","[1,0,1,1]",0,39,39,39,1,1,1,,,1,FALSE,,,,,,,,,,,,,,,,,,,,,,,,,,,,,,
,6036d6284f9841a390cbd5a5,001,2022-04-28_22h02.47.475,classification_task,2021.2.3,Win32,143.7401179,6036d6284f9841a390cbd5a5,626b377229c10585ec392f89,626b471b9908862b7c4d9464,,,,,,,,,,,,,,,,,,,,,,,l,1,1.2159,"[""0.128"",""0.421"",""0.252"",""0.825""]","[1,1,0,1]",0,40,40,40,1,1,1,,,1,FALSE,,,,,,,,,,,,,,,,,,,,,,,,,,,,,,
,6036d6284f9841a390cbd5a5,001,2022-04-28_22h02.47.475,classification_task,2021.2.3,Win32,143.7401179,6036d6284f9841a390cbd5a5,626b377229c10585ec392f89,626b471b9908862b7c4d9464,,,,,,,,,,,,,,,,,,,,,,,l,1,1.0734,"[""0.057"",""0.216"",""0.521"",""0.326""]","[1,1,1,0]",0,41,41,41,1,1,0,,,1,FALSE,,,,,,,,,,,,,,,,,,,,,,,,,,,,,,
,6036d6284f9841a390cbd5a5,001,2022-04-28_22h02.47.475,classification_task,2021.2.3,Win32,143.7401179,6036d6284f9841a390cbd5a5,626b377229c10585ec392f89,626b471b9908862b7c4d9464,,,,,,,,,,,,,,,,,,,,,,,l,1,1.5769,"[""0.738"",""0.216"",""0.521"",""0.682""]","[0,1,1,1]",0,42,42,42,1,1,0,,,1,FALSE,,,,,,,,,,,,,,,,,,,,,,,,,,,,,,
,6036d6284f9841a390cbd5a5,001,2022-04-28_22h02.47.475,classification_task,2021.2.3,Win32,143.7401179,6036d6284f9841a390cbd5a5,626b377229c10585ec392f89,626b471b9908862b7c4d9464,,,,,,,,,,,,,,,,,,,,,,,a,1,1.1683,"[""0.175"",""0.563"",""0.776"",""0.597""]","[1,1,1,0]",0,43,43,43,1,0,1,,,1,FALSE,,,,,,,,,,,,,,,,,,,,,,,,,,,,,,
,6036d6284f9841a390cbd5a5,001,2022-04-28_22h02.47.475,classification_task,2021.2.3,Win32,143.7401179,6036d6284f9841a390cbd5a5,626b377229c10585ec392f89,626b471b9908862b7c4d9464,,,,,,,,,,,,,,,,,,,,,,,l,0,1.3556,"[""0.289"",""0.374"",""0.639"",""0.255""]","[1,1,1,0]",0,44,44,44,1,0,0,,,1,FALSE,,,,,,,,,,,,,,,,,,,,,,,,,,,,,,
,6036d6284f9841a390cbd5a5,001,2022-04-28_22h02.47.475,classification_task,2021.2.3,Win32,143.7401179,6036d6284f9841a390cbd5a5,626b377229c10585ec392f89,626b471b9908862b7c4d9464,,,,,,,,,,,,,,,,,,,,,,,l,0,1.3901,"[""0.337"",""0.374"",""0.639"",""0.944""]","[0,1,1,1]",0,45,45,45,1,0,0,,,1,FALSE,,,,,,,,,,,,,,,,,,,,,,,,,,,,,,
,6036d6284f9841a390cbd5a5,001,2022-04-28_22h02.47.475,classification_task,2021.2.3,Win32,143.7401179,6036d6284f9841a390cbd5a5,626b377229c10585ec392f89,626b471b9908862b7c4d9464,,,,,,,,,,,,,,,,,,,,,,,a,1,1.5549,"[""0.175"",""0.599"",""0.776"",""0.894""]","[1,0,1,1]",0,46,46,46,1,0,1,,,1,FALSE,,,,,,,,,,,,,,,,,,,,,,,,,,,,,,
,6036d6284f9841a390cbd5a5,001,2022-04-28_22h02.47.475,classification_task,2021.2.3,Win32,143.7401179,6036d6284f9841a390cbd5a5,626b377229c10585ec392f89,626b471b9908862b7c4d9464,,,,,,,,,,,,,,,,,,,,,,,l,1,0.9929,"[""0.057"",""0.337"",""0.521"",""0.682""]","[1,0,1,1]",0,47,47,47,1,1,0,,,1,FALSE,,,,,,,,,,,,,,,,,,,,,,,,,,,,,,
,6036d6284f9841a390cbd5a5,001,2022-04-28_22h02.47.475,classification_task,2021.2.3,Win32,143.7401179,6036d6284f9841a390cbd5a5,626b377229c10585ec392f89,626b471b9908862b7c4d9464,,,,,,,,,,,,,,,,,,,,,,,a,1,1.9861,"[""0.731"",""0.563"",""0.776"",""0.894""]","[0,1,1,1]",0,48,48,48,1,0,1,,,1,FALSE,,,,,,,,,,,,,,,,,,,,,,,,,,,,,,
,6036d6284f9841a390cbd5a5,001,2022-04-28_22h02.47.475,classification_task,2021.2.3,Win32,143.7401179,6036d6284f9841a390cbd5a5,626b377229c10585ec392f89,626b471b9908862b7c4d9464,,,,,,,,,,,,,,,,,,,,,,,l,1,1.0494,"[""0.739"",""0.421"",""0.472"",""0.825""]","[0,1,1,1]",0,49,49,49,1,1,1,,,1,FALSE,,,,,,,,,,,,,,,,,,,,,,,,,,,,,,
,6036d6284f9841a390cbd5a5,001,2022-04-28_22h02.47.475,classification_task,2021.2.3,Win32,143.7401179,6036d6284f9841a390cbd5a5,626b377229c10585ec392f89,626b471b9908862b7c4d9464,,,,,,,,,,,,,,,,,,,,,,,a,1,1.9983,"[""0.175"",""0.563"",""0.776"",""0.252""]","[1,1,1,0]",0,50,50,50,1,0,1,,,1,FALSE,,,,,,,,,,,,,,,,,,,,,,,,,,,,,,
,6036d6284f9841a390cbd5a5,001,2022-04-28_22h02.47.475,classification_task,2021.2.3,Win32,143.7401179,6036d6284f9841a390cbd5a5,626b377229c10585ec392f89,626b471b9908862b7c4d9464,,,,,,,,,,,,,,,,,,,,,,,l,1,1.1275,"[""0.057"",""0.216"",""0.521"",""0.324""]","[1,1,1,0]",0,51,51,51,1,1,0,,,1,FALSE,,,,,,,,,,,,,,,,,,,,,,,,,,,,,,
,6036d6284f9841a390cbd5a5,001,2022-04-28_22h02.47.475,classification_task,2021.2.3,Win32,143.7401179,6036d6284f9841a390cbd5a5,626b377229c10585ec392f89,626b471b9908862b7c4d9464,,,,,,,,,,,,,,,,,,,,,,,l,0,2.4675,"[""0.289"",""0.374"",""0.738"",""0.944""]","[1,1,0,1]",0,52,52,52,1,0,0,,,1,FALSE,,,,,,,,,,,,,,,,,,,,,,,,,,,,,,
,6036d6284f9841a390cbd5a5,001,2022-04-28_22h02.47.475,classification_task,2021.2.3,Win32,143.7401179,6036d6284f9841a390cbd5a5,626b377229c10585ec392f89,626b471b9908862b7c4d9464,,,,,,,,,,,,,,,,,,,,,,,a,1,1.2221,"[""0.175"",""0.563"",""0.739"",""0.894""]","[1,1,0,1]",0,53,53,53,1,0,1,,,1,FALSE,,,,,,,,,,,,,,,,,,,,,,,,,,,,,,
,6036d6284f9841a390cbd5a5,001,2022-04-28_22h02.47.475,classification_task,2021.2.3,Win32,143.7401179,6036d6284f9841a390cbd5a5,626b377229c10585ec392f89,626b471b9908862b7c4d9464,,,,,,,,,,,,,,,,,,,,,,,l,1,0.8613,"[""0.057"",""0.216"",""0.252"",""0.682""]","[1,1,0,1]",0,54,54,54,1,1,0,,,1,FALSE,,,,,,,,,,,,,,,,,,,,,,,,,,,,,,
,6036d6284f9841a390cbd5a5,001,2022-04-28_22h02.47.475,classification_task,2021.2.3,Win32,143.7401179,6036d6284f9841a390cbd5a5,626b377229c10585ec392f89,626b471b9908862b7c4d9464,,,,,,,,,,,,,,,,,,,,,,,a,1,1.5717,"[""0.738"",""0.374"",""0.639"",""0.944""]","[0,1,1,1]",0,55,55,55,1,0,0,,,1,FALSE,,,,,,,,,,,,,,,,,,,,,,,,,,,,,,
,6036d6284f9841a390cbd5a5,001,2022-04-28_22h02.47.475,classification_task,2021.2.3,Win32,143.7401179,6036d6284f9841a390cbd5a5,626b377229c10585ec392f89,626b471b9908862b7c4d9464,,,,,,,,,,,,,,,,,,,,,,,l,1,1.5504,"[""0.128"",""0.421"",""0.736"",""0.825""]","[1,1,0,1]",0,56,56,56,1,1,1,,,1,FALSE,,,,,,,,,,,,,,,,,,,,,,,,,,,,,,
,6036d6284f9841a390cbd5a5,001,2022-04-28_22h02.47.475,classification_task,2021.2.3,Win32,143.7401179,6036d6284f9841a390cbd5a5,626b377229c10585ec392f89,626b471b9908862b7c4d9464,,,,,,,,,,,,,,,,,,,,,,,l,1,1.4446,"[""0.252"",""0.216"",""0.521"",""0.682""]","[0,1,1,1]",0,57,57,57,1,1,0,,,1,FALSE,,,,,,,,,,,,,,,,,,,,,,,,,,,,,,
,6036d6284f9841a390cbd5a5,001,2022-04-28_22h02.47.475,classification_task,2021.2.3,Win32,143.7401179,6036d6284f9841a390cbd5a5,626b377229c10585ec392f89,626b471b9908862b7c4d9464,,,,,,,,,,,,,,,,,,,,,,,a,1,1.2964,"[""0.175"",""0.252"",""0.776"",""0.894""]","[1,0,1,1]",0,58,58,58,1,0,1,,,1,FALSE,,,,,,,,,,,,,,,,,,,,,,,,,,,,,,
,6036d6284f9841a390cbd5a5,001,2022-04-28_22h02.47.475,classification_task,2021.2.3,Win32,143.7401179,6036d6284f9841a390cbd5a5,626b377229c10585ec392f89,626b471b9908862b7c4d9464,,,,,,,,,,,,,,,,,,,,,,,l,1,0.8663,"[""0.057"",""0.736"",""0.521"",""0.682""]","[1,0,1,1]",0,59,59,59,1,1,0,,,1,FALSE,,,,,,,,,,,,,,,,,,,,,,,,,,,,,,
,6036d6284f9841a390cbd5a5,001,2022-04-28_22h02.47.475,classification_task,2021.2.3,Win32,143.7401179,6036d6284f9841a390cbd5a5,626b377229c10585ec392f89,626b471b9908862b7c4d9464,,,,,,,,,,,,,,,,,,,,,,,a,1,1.1255,"[""0.289"",""0.738"",""0.639"",""0.944""]","[1,0,1,1]",0,60,60,60,1,0,0,,,1,FALSE,,,,,,,,,,,,,,,,,,,,,,,,,,,,,,
,6036d6284f9841a390cbd5a5,001,2022-04-28_22h02.47.475,classification_task,2021.2.3,Win32,143.7401179,6036d6284f9841a390cbd5a5,626b377229c10585ec392f89,626b471b9908862b7c4d9464,,,,,,,,,,,,,,,,,,,,,,,a,1,1.1727,"[""0.289"",""0.374"",""0.639"",""0.255""]","[1,1,1,0]",0,61,61,61,1,0,0,,,1,FALSE,,,,,,,,,,,,,,,,,,,,,,,,,,,,,,
,6036d6284f9841a390cbd5a5,001,2022-04-28_22h02.47.475,classification_task,2021.2.3,Win32,143.7401179,6036d6284f9841a390cbd5a5,626b377229c10585ec392f89,626b471b9908862b7c4d9464,,,,,,,,,,,,,,,,,,,,,,,l,1,2.0592,"[""0.128"",""0.421"",""0.472"",""0.738""]","[1,1,1,0]",0,62,62,62,1,1,1,,,1,FALSE,,,,,,,,,,,,,,,,,,,,,,,,,,,,,,
,6036d6284f9841a390cbd5a5,001,2022-04-28_22h02.47.475,classification_task,2021.2.3,Win32,143.7401179,6036d6284f9841a390cbd5a5,626b377229c10585ec392f89,626b471b9908862b7c4d9464,,,,,,,,,,,,,,,,,,,,,,,l,1,1.7479,"[""0.128"",""0.094"",""0.472"",""0.825""]","[1,0,1,1]",0,63,63,63,1,1,1,,,1,FALSE,,,,,,,,,,,,,,,,,,,,,,,,,,,,,,
,6036d6284f9841a390cbd5a5,001,2022-04-28_22h02.47.475,classification_task,2021.2.3,Win32,143.7401179,6036d6284f9841a390cbd5a5,626b377229c10585ec392f89,626b471b9908862b7c4d9464,,,,,,,,,,,,,,,,,,,,,,,,,,,,,,,,,,,,,,,0, ,,0,9.954193238,187.5709,0,1,1,1,1,2,2,,,,,,,,,,,,,,,,,
,6036d6284f9841a390cbd5a5,001,2022-04-28_22h02.47.475,classification_task,2021.2.3,Win32,143.7401179,6036d6284f9841a390cbd5a5,626b377229c10585ec392f89,626b471b9908862b7c4d9464,,,,,,,,,,,,,,,,,,,,,,,,,,,,,,,,,,,,,,,1,  ,,0,9.562267294,188.425,0,1,1,1,1,2,2,,,,,,,,,,,,,,,,,
,6036d6284f9841a390cbd5a5,001,2022-04-28_22h02.47.475,classification_task,2021.2.3,Win32,143.7401179,6036d6284f9841a390cbd5a5,626b377229c10585ec392f89,626b471b9908862b7c4d9464,,,,,,,,,,,,,,,,,,,,,,,,,,,,,,,,,,,,,,,2,  ,,0,0.205027203,190.4871,0,1,1,1,1,2,2,,,,,,,,,,,,,,,,,
,6036d6284f9841a390cbd5a5,001,2022-04-28_22h02.47.475,classification_task,2021.2.3,Win32,143.7401179,6036d6284f9841a390cbd5a5,626b377229c10585ec392f89,626b471b9908862b7c4d9464,,,,,,,,,,,,,,,,,,,,,,,,,,,,,,,,,,,,,,,,,,,,,0,1,1,1,1,,2,,,,,,,,,,,,,,,,,
,6036d6284f9841a390cbd5a5,001,2022-04-28_22h02.47.475,classification_task,2021.2.3,Win32,143.7401179,6036d6284f9841a390cbd5a5,626b377229c10585ec392f89,626b471b9908862b7c4d9464,,,,,,,,,,,,,,,,,,,,,space,12.8777,l,1,3.0548,"[""0.337"",""0.216"",""0.521"",""0.682""]","[0,1,1,1]",0,0,0,0,1,1,0,,,1,FALSE,,,,,,,,,,,,,,,,,,,,,,,,,,,,,,
,6036d6284f9841a390cbd5a5,001,2022-04-28_22h02.47.475,classification_task,2021.2.3,Win32,143.7401179,6036d6284f9841a390cbd5a5,626b377229c10585ec392f89,626b471b9908862b7c4d9464,,,,,,,,,,,,,,,,,,,,,,,a,1,1.5287,"[""0.599"",""0.563"",""0.776"",""0.894""]","[0,1,1,1]",0,1,1,1,1,0,1,,,1,FALSE,,,,,,,,,,,,,,,,,,,,,,,,,,,,,,
,6036d6284f9841a390cbd5a5,001,2022-04-28_22h02.47.475,classification_task,2021.2.3,Win32,143.7401179,6036d6284f9841a390cbd5a5,626b377229c10585ec392f89,626b471b9908862b7c4d9464,,,,,,,,,,,,,,,,,,,,,,,a,0,0.7643,"[""0.057"",""0.736"",""0.521"",""0.682""]","[1,0,1,1]",0,2,2,2,1,1,0,,,1,FALSE,,,,,,,,,,,,,,,,,,,,,,,,,,,,,,
,6036d6284f9841a390cbd5a5,001,2022-04-28_22h02.47.475,classification_task,2021.2.3,Win32,143.7401179,6036d6284f9841a390cbd5a5,626b377229c10585ec392f89,626b471b9908862b7c4d9464,,,,,,,,,,,,,,,,,,,,,,,a,1,1.0098,"[""0.175"",""0.563"",""0.324"",""0.894""]","[1,1,0,1]",0,3,3,3,1,0,1,,,1,FALSE,,,,,,,,,,,,,,,,,,,,,,,,,,,,,,
,6036d6284f9841a390cbd5a5,001,2022-04-28_22h02.47.475,classification_task,2021.2.3,Win32,143.7401179,6036d6284f9841a390cbd5a5,626b377229c10585ec392f89,626b471b9908862b7c4d9464,,,,,,,,,,,,,,,,,,,,,,,a,1,1.955,"[""0.289"",""0.374"",""0.736"",""0.944""]","[1,1,0,1]",0,4,4,4,1,0,0,,,1,FALSE,,,,,,,,,,,,,,,,,,,,,,,,,,,,,,
,6036d6284f9841a390cbd5a5,001,2022-04-28_22h02.47.475,classification_task,2021.2.3,Win32,143.7401179,6036d6284f9841a390cbd5a5,626b377229c10585ec392f89,626b471b9908862b7c4d9464,,,,,,,,,,,,,,,,,,,,,,,l,1,1.4522,"[""0.739"",""0.421"",""0.472"",""0.825""]","[0,1,1,1]",0,5,5,5,1,1,1,,,1,FALSE,,,,,,,,,,,,,,,,,,,,,,,,,,,,,,
,6036d6284f9841a390cbd5a5,001,2022-04-28_22h02.47.475,classification_task,2021.2.3,Win32,143.7401179,6036d6284f9841a390cbd5a5,626b377229c10585ec392f89,626b471b9908862b7c4d9464,,,,,,,,,,,,,,,,,,,,,,,l,1,1.3196,"[""0.057"",""0.216"",""0.521"",""0.738""]","[1,1,1,0]",0,6,6,6,1,1,0,,,1,FALSE,,,,,,,,,,,,,,,,,,,,,,,,,,,,,,
,6036d6284f9841a390cbd5a5,001,2022-04-28_22h02.47.475,classification_task,2021.2.3,Win32,143.7401179,6036d6284f9841a390cbd5a5,626b377229c10585ec392f89,626b471b9908862b7c4d9464,,,,,,,,,,,,,,,,,,,,,,,a,1,1.3744,"[""0.739"",""0.374"",""0.639"",""0.944""]","[0,1,1,1]",0,7,7,7,1,0,0,,,1,FALSE,,,,,,,,,,,,,,,,,,,,,,,,,,,,,,
,6036d6284f9841a390cbd5a5,001,2022-04-28_22h02.47.475,classification_task,2021.2.3,Win32,143.7401179,6036d6284f9841a390cbd5a5,626b377229c10585ec392f89,626b471b9908862b7c4d9464,,,,,,,,,,,,,,,,,,,,,,,l,1,1.367,"[""0.128"",""0.738"",""0.472"",""0.825""]","[1,0,1,1]",0,8,8,8,1,1,1,,,1,FALSE,,,,,,,,,,,,,,,,,,,,,,,,,,,,,,
,6036d6284f9841a390cbd5a5,001,2022-04-28_22h02.47.475,classification_task,2021.2.3,Win32,143.7401179,6036d6284f9841a390cbd5a5,626b377229c10585ec392f89,626b471b9908862b7c4d9464,,,,,,,,,,,,,,,,,,,,,,,l,1,2.1147,"[""0.128"",""0.421"",""0.472"",""0.599""]","[1,1,1,0]",0,9,9,9,1,1,1,,,1,FALSE,,,,,,,,,,,,,,,,,,,,,,,,,,,,,,
,6036d6284f9841a390cbd5a5,001,2022-04-28_22h02.47.475,classification_task,2021.2.3,Win32,143.7401179,6036d6284f9841a390cbd5a5,626b377229c10585ec392f89,626b471b9908862b7c4d9464,,,,,,,,,,,,,,,,,,,,,,,l,1,1.2032,"[""0.128"",""0.421"",""0.094"",""0.825""]","[1,1,0,1]",0,10,10,10,1,1,1,,,1,FALSE,,,,,,,,,,,,,,,,,,,,,,,,,,,,,,
,6036d6284f9841a390cbd5a5,001,2022-04-28_22h02.47.475,classification_task,2021.2.3,Win32,143.7401179,6036d6284f9841a390cbd5a5,626b377229c10585ec392f89,626b471b9908862b7c4d9464,,,,,,,,,,,,,,,,,,,,,,,l,1,1.8276,"[""0.057"",""0.216"",""0.739"",""0.682""]","[1,1,0,1]",0,11,11,11,1,1,0,,,1,FALSE,,,,,,,,,,,,,,,,,,,,,,,,,,,,,,
,6036d6284f9841a390cbd5a5,001,2022-04-28_22h02.47.475,classification_task,2021.2.3,Win32,143.7401179,6036d6284f9841a390cbd5a5,626b377229c10585ec392f89,626b471b9908862b7c4d9464,,,,,,,,,,,,,,,,,,,,,,,a,1,1.5206,"[""0.289"",""0.374"",""0.639"",""0.736""]","[1,1,1,0]",0,12,12,12,1,0,0,,,1,FALSE,,,,,,,,,,,,,,,,,,,,,,,,,,,,,,
,6036d6284f9841a390cbd5a5,001,2022-04-28_22h02.47.475,classification_task,2021.2.3,Win32,143.7401179,6036d6284f9841a390cbd5a5,626b377229c10585ec392f89,626b471b9908862b7c4d9464,,,,,,,,,,,,,,,,,,,,,,,a,1,1.4414,"[""0.175"",""0.739"",""0.776"",""0.894""]","[1,0,1,1]",0,13,13,13,1,0,1,,,1,FALSE,,,,,,,,,,,,,,,,,,,,,,,,,,,,,,
,6036d6284f9841a390cbd5a5,001,2022-04-28_22h02.47.475,classification_task,2021.2.3,Win32,143.7401179,6036d6284f9841a390cbd5a5,626b377229c10585ec392f89,626b471b9908862b7c4d9464,,,,,,,,,,,,,,,,,,,,,,,a,1,2.52,"[""0.289"",""0.739"",""0.639"",""0.944""]","[1,0,1,1]",0,14,14,14,1,0,0,,,1,FALSE,,,,,,,,,,,,,,,,,,,,,,,,,,,,,,
,6036d6284f9841a390cbd5a5,001,2022-04-28_22h02.47.475,classification_task,2021.2.3,Win32,143.7401179,6036d6284f9841a390cbd5a5,626b377229c10585ec392f89,626b471b9908862b7c4d9464,,,,,,,,,,,,,,,,,,,,,,,a,1,1.356,"[""0.175"",""0.563"",""0.776"",""0.255""]","[1,1,1,0]",0,15,15,15,1,0,1,,,1,FALSE,,,,,,,,,,,,,,,,,,,,,,,,,,,,,,
,6036d6284f9841a390cbd5a5,001,2022-04-28_22h02.47.475,classification_task,2021.2.3,Win32,143.7401179,6036d6284f9841a390cbd5a5,626b377229c10585ec392f89,626b471b9908862b7c4d9464,,,,,,,,,,,,,,,,,,,,,,,l,1,1.303,"[""0.128"",""0.421"",""0.472"",""0.324""]","[1,1,1,0]",0,16,16,16,1,1,1,,,1,FALSE,,,,,,,,,,,,,,,,,,,,,,,,,,,,,,
,6036d6284f9841a390cbd5a5,001,2022-04-28_22h02.47.475,classification_task,2021.2.3,Win32,143.7401179,6036d6284f9841a390cbd5a5,626b377229c10585ec392f89,626b471b9908862b7c4d9464,,,,,,,,,,,,,,,,,,,,,,,l,0,1.5837,"[""0.731"",""0.374"",""0.639"",""0.944""]","[0,1,1,1]",0,17,17,17,1,0,0,,,1,FALSE,,,,,,,,,,,,,,,,,,,,,,,,,,,,,,
,6036d6284f9841a390cbd5a5,001,2022-04-28_22h02.47.475,classification_task,2021.2.3,Win32,143.7401179,6036d6284f9841a390cbd5a5,626b377229c10585ec392f89,626b471b9908862b7c4d9464,,,,,,,,,,,,,,,,,,,,,,,l,1,2.1809,"[""0.057"",""0.216"",""0.521"",""0.739""]","[1,1,1,0]",0,18,18,18,1,1,0,,,1,FALSE,,,,,,,,,,,,,,,,,,,,,,,,,,,,,,
,6036d6284f9841a390cbd5a5,001,2022-04-28_22h02.47.475,classification_task,2021.2.3,Win32,143.7401179,6036d6284f9841a390cbd5a5,626b377229c10585ec392f89,626b471b9908862b7c4d9464,,,,,,,,,,,,,,,,,,,,,,,a,1,1.9414,"[""0.175"",""0.094"",""0.776"",""0.894""]","[1,0,1,1]",0,19,19,19,1,0,1,,,1,FALSE,,,,,,,,,,,,,,,,,,,,,,,,,,,,,,
,6036d6284f9841a390cbd5a5,001,2022-04-28_22h02.47.475,classification_task,2021.2.3,Win32,143.7401179,6036d6284f9841a390cbd5a5,626b377229c10585ec392f89,626b471b9908862b7c4d9464,,,,,,,,,,,,,,,,,,,,,,,l,1,2.6147,"[""0.057"",""0.719"",""0.521"",""0.682""]","[1,0,1,1]",0,20,20,20,1,1,0,,,1,FALSE,,,,,,,,,,,,,,,,,,,,,,,,,,,,,,
,6036d6284f9841a390cbd5a5,001,2022-04-28_22h02.47.475,classification_task,2021.2.3,Win32,143.7401179,6036d6284f9841a390cbd5a5,626b377229c10585ec392f89,626b471b9908862b7c4d9464,,,,,,,,,,,,,,,,,,,,,,,a,1,1.0169,"[""0.175"",""0.563"",""0.776"",""0.738""]","[1,1,1,0]",0,21,21,21,1,0,1,,,1,FALSE,,,,,,,,,,,,,,,,,,,,,,,,,,,,,,
,6036d6284f9841a390cbd5a5,001,2022-04-28_22h02.47.475,classification_task,2021.2.3,Win32,143.7401179,6036d6284f9841a390cbd5a5,626b377229c10585ec392f89,626b471b9908862b7c4d9464,,,,,,,,,,,,,,,,,,,,,,,a,1,2.7622,"[""0.289"",""0.739"",""0.639"",""0.944""]","[1,0,1,1]",0,22,22,22,1,0,0,,,1,FALSE,,,,,,,,,,,,,,,,,,,,,,,,,,,,,,
,6036d6284f9841a390cbd5a5,001,2022-04-28_22h02.47.475,classification_task,2021.2.3,Win32,143.7401179,6036d6284f9841a390cbd5a5,626b377229c10585ec392f89,626b471b9908862b7c4d9464,,,,,,,,,,,,,,,,,,,,,,,a,1,0.9798,"[""0.175"",""0.563"",""0.738"",""0.894""]","[1,1,0,1]",0,23,23,23,1,0,1,,,1,FALSE,,,,,,,,,,,,,,,,,,,,,,,,,,,,,,
,6036d6284f9841a390cbd5a5,001,2022-04-28_22h02.47.475,classification_task,2021.2.3,Win32,143.7401179,6036d6284f9841a390cbd5a5,626b377229c10585ec392f89,626b471b9908862b7c4d9464,,,,,,,,,,,,,,,,,,,,,,,l,1,0.8004,"[""0.057"",""0.216"",""0.597"",""0.682""]","[1,1,0,1]",0,24,24,24,1,1,0,,,1,FALSE,,,,,,,,,,,,,,,,,,,,,,,,,,,,,,
,6036d6284f9841a390cbd5a5,001,2022-04-28_22h02.47.475,classification_task,2021.2.3,Win32,143.7401179,6036d6284f9841a390cbd5a5,626b377229c10585ec392f89,626b471b9908862b7c4d9464,,,,,,,,,,,,,,,,,,,,,,,l,0,1.0176,"[""0.289"",""0.374"",""0.599"",""0.944""]","[1,1,0,1]",0,25,25,25,1,0,0,,,1,FALSE,,,,,,,,,,,,,,,,,,,,,,,,,,,,,,
,6036d6284f9841a390cbd5a5,001,2022-04-28_22h02.47.475,classification_task,2021.2.3,Win32,143.7401179,6036d6284f9841a390cbd5a5,626b377229c10585ec392f89,626b471b9908862b7c4d9464,,,,,,,,,,,,,,,,,,,,,,,l,1,1.217,"[""0.128"",""0.421"",""0.738"",""0.825""]","[1,1,0,1]",0,26,26,26,1,1,1,,,1,FALSE,,,,,,,,,,,,,,,,,,,,,,,,,,,,,,
,6036d6284f9841a390cbd5a5,001,2022-04-28_22h02.47.475,classification_task,2021.2.3,Win32,143.7401179,6036d6284f9841a390cbd5a5,626b377229c10585ec392f89,626b471b9908862b7c4d9464,,,,,,,,,,,,,,,,,,,,,,,a,1,1.2511,"[""0.738"",""0.563"",""0.776"",""0.894""]","[0,1,1,1]",0,27,27,27,1,0,1,,,1,FALSE,,,,,,,,,,,,,,,,,,,,,,,,,,,,,,
,6036d6284f9841a390cbd5a5,001,2022-04-28_22h02.47.475,classification_task,2021.2.3,Win32,143.7401179,6036d6284f9841a390cbd5a5,626b377229c10585ec392f89,626b471b9908862b7c4d9464,,,,,,,,,,,,,,,,,,,,,,,l,1,2.5098,"[""0.731"",""0.216"",""0.521"",""0.682""]","[0,1,1,1]",0,28,28,28,1,1,0,,,1,FALSE,,,,,,,,,,,,,,,,,,,,,,,,,,,,,,
,6036d6284f9841a390cbd5a5,001,2022-04-28_22h02.47.475,classification_task,2021.2.3,Win32,143.7401179,6036d6284f9841a390cbd5a5,626b377229c10585ec392f89,626b471b9908862b7c4d9464,,,,,,,,,,,,,,,,,,,,,,,a,0,2.1826,"[""0.731"",""0.421"",""0.472"",""0.825""]","[0,1,1,1]",0,29,29,29,1,1,1,,,1,FALSE,,,,,,,,,,,,,,,,,,,,,,,,,,,,,,
,6036d6284f9841a390cbd5a5,001,2022-04-28_22h02.47.475,classification_task,2021.2.3,Win32,143.7401179,6036d6284f9841a390cbd5a5,626b377229c10585ec392f89,626b471b9908862b7c4d9464,,,,,,,,,,,,,,,,,,,,,,,l,0,1.838,"[""0.289"",""0.374"",""0.639"",""0.094""]","[1,1,1,0]",0,30,30,30,1,0,0,,,1,FALSE,,,,,,,,,,,,,,,,,,,,,,,,,,,,,,
,6036d6284f9841a390cbd5a5,001,2022-04-28_22h02.47.475,classification_task,2021.2.3,Win32,143.7401179,6036d6284f9841a390cbd5a5,626b377229c10585ec392f89,626b471b9908862b7c4d9464,,,,,,,,,,,,,,,,,,,,,,,l,1,2.1887,"[""0.128"",""0.324"",""0.472"",""0.825""]","[1,0,1,1]",0,31,31,31,1,1,1,,,1,FALSE,,,,,,,,,,,,,,,,,,,,,,,,,,,,,,
,6036d6284f9841a390cbd5a5,001,2022-04-28_22h02.47.475,classification_task,2021.2.3,Win32,143.7401179,6036d6284f9841a390cbd5a5,626b377229c10585ec392f89,626b471b9908862b7c4d9464,,,,,,,,,,,,,,,,,,,,,,,a,1,1.1003,"[""0.175"",""0.563"",""0.776"",""0.736""]","[1,1,1,0]",0,32,32,32,1,0,1,,,1,FALSE,,,,,,,,,,,,,,,,,,,,,,,,,,,,,,
,6036d6284f9841a390cbd5a5,001,2022-04-28_22h02.47.475,classification_task,2021.2.3,Win32,143.7401179,6036d6284f9841a390cbd5a5,626b377229c10585ec392f89,626b471b9908862b7c4d9464,,,,,,,,,,,,,,,,,,,,,,,a,0,3.7992,"[""0.057"",""0.719"",""0.521"",""0.682""]","[1,0,1,1]",0,33,33,33,1,1,0,,,1,FALSE,,,,,,,,,,,,,,,,,,,,,,,,,,,,,,
,6036d6284f9841a390cbd5a5,001,2022-04-28_22h02.47.475,classification_task,2021.2.3,Win32,143.7401179,6036d6284f9841a390cbd5a5,626b377229c10585ec392f89,626b471b9908862b7c4d9464,,,,,,,,,,,,,,,,,,,,,,,a,1,1.4693,"[""0.289"",""0.738"",""0.639"",""0.944""]","[1,0,1,1]",0,34,34,34,1,0,0,,,1,FALSE,,,,,,,,,,,,,,,,,,,,,,,,,,,,,,
,6036d6284f9841a390cbd5a5,001,2022-04-28_22h02.47.475,classification_task,2021.2.3,Win32,143.7401179,6036d6284f9841a390cbd5a5,626b377229c10585ec392f89,626b471b9908862b7c4d9464,,,,,,,,,,,,,,,,,,,,,,,a,1,1.1858,"[""0.175"",""0.326"",""0.776"",""0.894""]","[1,0,1,1]",0,35,35,35,1,0,1,,,1,FALSE,,,,,,,,,,,,,,,,,,,,,,,,,,,,,,
,6036d6284f9841a390cbd5a5,001,2022-04-28_22h02.47.475,classification_task,2021.2.3,Win32,143.7401179,6036d6284f9841a390cbd5a5,626b377229c10585ec392f89,626b471b9908862b7c4d9464,,,,,,,,,,,,,,,,,,,,,,,a,1,1.0372,"[""0.326"",""0.563"",""0.776"",""0.894""]","[0,1,1,1]",0,36,36,36,1,0,1,,,1,FALSE,,,,,,,,,,,,,,,,,,,,,,,,,,,,,,
,6036d6284f9841a390cbd5a5,001,2022-04-28_22h02.47.475,classification_task,2021.2.3,Win32,143.7401179,6036d6284f9841a390cbd5a5,626b377229c10585ec392f89,626b471b9908862b7c4d9464,,,,,,,,,,,,,,,,,,,,,,,l,0,1.2563,"[""0.289"",""0.374"",""0.736"",""0.944""]","[1,1,0,1]",0,37,37,37,1,0,0,,,1,FALSE,,,,,,,,,,,,,,,,,,,,,,,,,,,,,,
,6036d6284f9841a390cbd5a5,001,2022-04-28_22h02.47.475,classification_task,2021.2.3,Win32,143.7401179,6036d6284f9841a390cbd5a5,626b377229c10585ec392f89,626b471b9908862b7c4d9464,,,,,,,,,,,,,,,,,,,,,,,l,1,1.4164,"[""0.736"",""0.216"",""0.521"",""0.682""]","[0,1,1,1]",0,38,38,38,1,1,0,,,1,FALSE,,,,,,,,,,,,,,,,,,,,,,,,,,,,,,
,6036d6284f9841a390cbd5a5,001,2022-04-28_22h02.47.475,classification_task,2021.2.3,Win32,143.7401179,6036d6284f9841a390cbd5a5,626b377229c10585ec392f89,626b471b9908862b7c4d9464,,,,,,,,,,,,,,,,,,,,,,,a,1,1.3393,"[""0.175"",""0.563"",""0.094"",""0.894""]","[1,1,0,1]",0,39,39,39,1,0,1,,,1,FALSE,,,,,,,,,,,,,,,,,,,,,,,,,,,,,,
,6036d6284f9841a390cbd5a5,001,2022-04-28_22h02.47.475,classification_task,2021.2.3,Win32,143.7401179,6036d6284f9841a390cbd5a5,626b377229c10585ec392f89,626b471b9908862b7c4d9464,,,,,,,,,,,,,,,,,,,,,,,l,1,1.0807,"[""0.128"",""0.421"",""0.599"",""0.825""]","[1,1,0,1]",0,40,40,40,1,1,1,,,1,FALSE,,,,,,,,,,,,,,,,,,,,,,,,,,,,,,
,6036d6284f9841a390cbd5a5,001,2022-04-28_22h02.47.475,classification_task,2021.2.3,Win32,143.7401179,6036d6284f9841a390cbd5a5,626b377229c10585ec392f89,626b471b9908862b7c4d9464,,,,,,,,,,,,,,,,,,,,,,,l,0,1.0995,"[""0.289"",""0.374"",""0.639"",""0.255""]","[1,1,1,0]",0,41,41,41,1,0,0,,,1,FALSE,,,,,,,,,,,,,,,,,,,,,,,,,,,,,,
,6036d6284f9841a390cbd5a5,001,2022-04-28_22h02.47.475,classification_task,2021.2.3,Win32,143.7401179,6036d6284f9841a390cbd5a5,626b377229c10585ec392f89,626b471b9908862b7c4d9464,,,,,,,,,,,,,,,,,,,,,,,l,1,2.3307,"[""0.057"",""0.216"",""0.599"",""0.682""]","[1,1,0,1]",0,42,42,42,1,1,0,,,1,FALSE,,,,,,,,,,,,,,,,,,,,,,,,,,,,,,
,6036d6284f9841a390cbd5a5,001,2022-04-28_22h02.47.475,classification_task,2021.2.3,Win32,143.7401179,6036d6284f9841a390cbd5a5,626b377229c10585ec392f89,626b471b9908862b7c4d9464,,,,,,,,,,,,,,,,,,,,,,,l,0,1.0258,"[""0.738"",""0.374"",""0.639"",""0.944""]","[0,1,1,1]",0,43,43,43,1,0,0,,,1,FALSE,,,,,,,,,,,,,,,,,,,,,,,,,,,,,,
,6036d6284f9841a390cbd5a5,001,2022-04-28_22h02.47.475,classification_task,2021.2.3,Win32,143.7401179,6036d6284f9841a390cbd5a5,626b377229c10585ec392f89,626b471b9908862b7c4d9464,,,,,,,,,,,,,,,,,,,,,,,l,1,1.2475,"[""0.128"",""0.255"",""0.472"",""0.825""]","[1,0,1,1]",0,44,44,44,1,1,1,,,1,FALSE,,,,,,,,,,,,,,,,,,,,,,,,,,,,,,
,6036d6284f9841a390cbd5a5,001,2022-04-28_22h02.47.475,classification_task,2021.2.3,Win32,143.7401179,6036d6284f9841a390cbd5a5,626b377229c10585ec392f89,626b471b9908862b7c4d9464,,,,,,,,,,,,,,,,,,,,,,,a,0,1.0314,"[""0.738"",""0.421"",""0.472"",""0.825""]","[0,1,1,1]",0,45,45,45,1,1,1,,,1,FALSE,,,,,,,,,,,,,,,,,,,,,,,,,,,,,,
,6036d6284f9841a390cbd5a5,001,2022-04-28_22h02.47.475,classification_task,2021.2.3,Win32,143.7401179,6036d6284f9841a390cbd5a5,626b377229c10585ec392f89,626b471b9908862b7c4d9464,,,,,,,,,,,,,,,,,,,,,,,l,1,2.0303,"[""0.128"",""0.421"",""0.472"",""0.597""]","[1,1,1,0]",0,46,46,46,1,1,1,,,1,FALSE,,,,,,,,,,,,,,,,,,,,,,,,,,,,,,
,6036d6284f9841a390cbd5a5,001,2022-04-28_22h02.47.475,classification_task,2021.2.3,Win32,143.7401179,6036d6284f9841a390cbd5a5,626b377229c10585ec392f89,626b471b9908862b7c4d9464,,,,,,,,,,,,,,,,,,,,,,,l,1,1.4428,"[""0.057"",""0.216"",""0.521"",""0.719""]","[1,1,1,0]",0,47,47,47,1,1,0,,,1,FALSE,,,,,,,,,,,,,,,,,,,,,,,,,,,,,,
,6036d6284f9841a390cbd5a5,001,2022-04-28_22h02.47.475,classification_task,2021.2.3,Win32,143.7401179,6036d6284f9841a390cbd5a5,626b377229c10585ec392f89,626b471b9908862b7c4d9464,,,,,,,,,,,,,,,,,,,,,,,a,0,1.57,"[""0.739"",""0.421"",""0.472"",""0.825""]","[0,1,1,1]",0,48,48,48,1,1,1,,,1,FALSE,,,,,,,,,,,,,,,,,,,,,,,,,,,,,,
,6036d6284f9841a390cbd5a5,001,2022-04-28_22h02.47.475,classification_task,2021.2.3,Win32,143.7401179,6036d6284f9841a390cbd5a5,626b377229c10585ec392f89,626b471b9908862b7c4d9464,,,,,,,,,,,,,,,,,,,,,,,l,0,2.0488,"[""0.094"",""0.374"",""0.639"",""0.944""]","[0,1,1,1]",0,49,49,49,1,0,0,,,1,FALSE,,,,,,,,,,,,,,,,,,,,,,,,,,,,,,
,6036d6284f9841a390cbd5a5,001,2022-04-28_22h02.47.475,classification_task,2021.2.3,Win32,143.7401179,6036d6284f9841a390cbd5a5,626b377229c10585ec392f89,626b471b9908862b7c4d9464,,,,,,,,,,,,,,,,,,,,,,,a,1,1.3291,"[""0.289"",""0.374"",""0.738"",""0.944""]","[1,1,0,1]",0,50,50,50,1,0,0,,,1,FALSE,,,,,,,,,,,,,,,,,,,,,,,,,,,,,,
,6036d6284f9841a390cbd5a5,001,2022-04-28_22h02.47.475,classification_task,2021.2.3,Win32,143.7401179,6036d6284f9841a390cbd5a5,626b377229c10585ec392f89,626b471b9908862b7c4d9464,,,,,,,,,,,,,,,,,,,,,,,a,1,0.7738,"[""0.289"",""0.255"",""0.639"",""0.944""]","[1,0,1,1]",0,51,51,51,1,0,0,,,1,FALSE,,,,,,,,,,,,,,,,,,,,,,,,,,,,,,
,6036d6284f9841a390cbd5a5,001,2022-04-28_22h02.47.475,classification_task,2021.2.3,Win32,143.7401179,6036d6284f9841a390cbd5a5,626b377229c10585ec392f89,626b471b9908862b7c4d9464,,,,,,,,,,,,,,,,,,,,,,,a,1,1.1371,"[""0.175"",""0.563"",""0.324"",""0.894""]","[1,1,0,1]",0,52,52,52,1,0,1,,,1,FALSE,,,,,,,,,,,,,,,,,,,,,,,,,,,,,,
,6036d6284f9841a390cbd5a5,001,2022-04-28_22h02.47.475,classification_task,2021.2.3,Win32,143.7401179,6036d6284f9841a390cbd5a5,626b377229c10585ec392f89,626b471b9908862b7c4d9464,,,,,,,,,,,,,,,,,,,,,,,a,1,0.8618,"[""0.175"",""0.337"",""0.776"",""0.894""]","[1,0,1,1]",0,53,53,53,1,0,1,,,1,FALSE,,,,,,,,,,,,,,,,,,,,,,,,,,,,,,
,6036d6284f9841a390cbd5a5,001,2022-04-28_22h02.47.475,classification_task,2021.2.3,Win32,143.7401179,6036d6284f9841a390cbd5a5,626b377229c10585ec392f89,626b471b9908862b7c4d9464,,,,,,,,,,,,,,,,,,,,,,,l,0,2.3177,"[""0.094"",""0.563"",""0.776"",""0.894""]","[0,1,1,1]",0,54,54,54,1,0,1,,,1,FALSE,,,,,,,,,,,,,,,,,,,,,,,,,,,,,,
,6036d6284f9841a390cbd5a5,001,2022-04-28_22h02.47.475,classification_task,2021.2.3,Win32,143.7401179,6036d6284f9841a390cbd5a5,626b377229c10585ec392f89,626b471b9908862b7c4d9464,,,,,,,,,,,,,,,,,,,,,,,l,1,1.2146,"[""0.128"",""0.421"",""0.605"",""0.825""]","[1,1,0,1]",0,55,55,55,1,1,1,,,1,FALSE,,,,,,,,,,,,,,,,,,,,,,,,,,,,,,
,6036d6284f9841a390cbd5a5,001,2022-04-28_22h02.47.475,classification_task,2021.2.3,Win32,143.7401179,6036d6284f9841a390cbd5a5,626b377229c10585ec392f89,626b471b9908862b7c4d9464,,,,,,,,,,,,,,,,,,,,,,,l,1,0.6927,"[""0.128"",""0.736"",""0.472"",""0.825""]","[1,0,1,1]",0,56,56,56,1,1,1,,,1,FALSE,,,,,,,,,,,,,,,,,,,,,,,,,,,,,,
,6036d6284f9841a390cbd5a5,001,2022-04-28_22h02.47.475,classification_task,2021.2.3,Win32,143.7401179,6036d6284f9841a390cbd5a5,626b377229c10585ec392f89,626b471b9908862b7c4d9464,,,,,,,,,,,,,,,,,,,,,,,l,1,0.4551,"[""0.128"",""0.421"",""0.472"",""0.738""]","[1,1,1,0]",0,57,57,57,1,1,1,,,1,FALSE,,,,,,,,,,,,,,,,,,,,,,,,,,,,,,
,6036d6284f9841a390cbd5a5,001,2022-04-28_22h02.47.475,classification_task,2021.2.3,Win32,143.7401179,6036d6284f9841a390cbd5a5,626b377229c10585ec392f89,626b471b9908862b7c4d9464,,,,,,,,,,,,,,,,,,,,,,,a,0,1.3406,"[""0.057"",""0.216"",""0.255"",""0.682""]","[1,1,0,1]",0,58,58,58,1,1,0,,,1,FALSE,,,,,,,,,,,,,,,,,,,,,,,,,,,,,,
,6036d6284f9841a390cbd5a5,001,2022-04-28_22h02.47.475,classification_task,2021.2.3,Win32,143.7401179,6036d6284f9841a390cbd5a5,626b377229c10585ec392f89,626b471b9908862b7c4d9464,,,,,,,,,,,,,,,,,,,,,,,l,1,1.0433,"[""0.057"",""0.738"",""0.521"",""0.682""]","[1,0,1,1]",0,59,59,59,1,1,0,,,1,FALSE,,,,,,,,,,,,,,,,,,,,,,,,,,,,,,
,6036d6284f9841a390cbd5a5,001,2022-04-28_22h02.47.475,classification_task,2021.2.3,Win32,143.7401179,6036d6284f9841a390cbd5a5,626b377229c10585ec392f89,626b471b9908862b7c4d9464,,,,,,,,,,,,,,,,,,,,,,,l,1,1.4263,"[""0.605"",""0.216"",""0.521"",""0.682""]","[0,1,1,1]",0,60,60,60,1,1,0,,,1,FALSE,,,,,,,,,,,,,,,,,,,,,,,,,,,,,,
,6036d6284f9841a390cbd5a5,001,2022-04-28_22h02.47.475,classification_task,2021.2.3,Win32,143.7401179,6036d6284f9841a390cbd5a5,626b377229c10585ec392f89,626b471b9908862b7c4d9464,,,,,,,,,,,,,,,,,,,,,,,a,1,1.4916,"[""0.289"",""0.374"",""0.639"",""0.731""]","[1,1,1,0]",0,61,61,61,1,0,0,,,1,FALSE,,,,,,,,,,,,,,,,,,,,,,,,,,,,,,
,6036d6284f9841a390cbd5a5,001,2022-04-28_22h02.47.475,classification_task,2021.2.3,Win32,143.7401179,6036d6284f9841a390cbd5a5,626b377229c10585ec392f89,626b471b9908862b7c4d9464,,,,,,,,,,,,,,,,,,,,,,,a,1,2.6167,"[""0.175"",""0.563"",""0.776"",""0.731""]","[1,1,1,0]",0,62,62,62,1,0,1,,,1,FALSE,,,,,,,,,,,,,,,,,,,,,,,,,,,,,,
,6036d6284f9841a390cbd5a5,001,2022-04-28_22h02.47.475,classification_task,2021.2.3,Win32,143.7401179,6036d6284f9841a390cbd5a5,626b377229c10585ec392f89,626b471b9908862b7c4d9464,,,,,,,,,,,,,,,,,,,,,,,l,1,1.5137,"[""0.057"",""0.216"",""0.521"",""0.736""]","[1,1,1,0]",0,63,63,63,1,1,0,,,1,FALSE,,,,,,,,,,,,,,,,,,,,,,,,,,,,,,
,6036d6284f9841a390cbd5a5,001,2022-04-28_22h02.47.475,classification_task,2021.2.3,Win32,143.7401179,6036d6284f9841a390cbd5a5,626b377229c10585ec392f89,626b471b9908862b7c4d9464,,,,,,,,,,,,,,,,,,,,,,,,,,,,,,,,,,,,,,,0, ,,0,6.867773859,182.1501,0,2,2,2,1,2,3,,,,,,,,,,,,,,,,,
,6036d6284f9841a390cbd5a5,001,2022-04-28_22h02.47.475,classification_task,2021.2.3,Win32,143.7401179,6036d6284f9841a390cbd5a5,626b377229c10585ec392f89,626b471b9908862b7c4d9464,,,,,,,,,,,,,,,,,,,,,,,,,,,,,,,,,,,,,,,1,  ,,0,7.088232786,184.187,0,2,2,2,1,2,3,,,,,,,,,,,,,,,,,
,6036d6284f9841a390cbd5a5,001,2022-04-28_22h02.47.475,classification_task,2021.2.3,Win32,143.7401179,6036d6284f9841a390cbd5a5,626b377229c10585ec392f89,626b471b9908862b7c4d9464,,,,,,,,,,,,,,,,,,,,,,,,,,,,,,,,,,,,,,,2,  ,,0,0.523466215,186.7545,0,2,2,2,1,2,3,,,,,,,,,,,,,,,,,
,6036d6284f9841a390cbd5a5,001,2022-04-28_22h02.47.475,classification_task,2021.2.3,Win32,143.7401179,6036d6284f9841a390cbd5a5,626b377229c10585ec392f89,626b471b9908862b7c4d9464,,,,,,,,,,,,,,,,,,,,,,,,,,,,,,,,,,,,,,,,,,,,,0,2,2,2,1,,3,,,,,,,,,,,,,,,,,
,6036d6284f9841a390cbd5a5,001,2022-04-28_22h02.47.475,classification_task,2021.2.3,Win32,143.7401179,6036d6284f9841a390cbd5a5,626b377229c10585ec392f89,626b471b9908862b7c4d9464,,,,,,,,,,,,,,,,,,,,,,,,,,,,,,,,,,,,,,,,,,,,,,,,,,,,,I believe the aid is a competent performer,,0.7,0,5,830.1164,0,0,0,0,1,0,,,,
,6036d6284f9841a390cbd5a5,001,2022-04-28_22h02.47.475,classification_task,2021.2.3,Win32,143.7401179,6036d6284f9841a390cbd5a5,626b377229c10585ec392f89,626b471b9908862b7c4d9464,,,,,,,,,,,,,,,,,,,,,,,,,,,,,,,,,,,,,,,,,,,,,,,,,,,,,I trust the aid,,0.7,0,2,833.2125,0,0,0,0,1,0,,,,
,6036d6284f9841a390cbd5a5,001,2022-04-28_22h02.47.475,classification_task,2021.2.3,Win32,143.7401179,6036d6284f9841a390cbd5a5,626b377229c10585ec392f89,626b471b9908862b7c4d9464,,,,,,,,,,,,,,,,,,,,,,,,,,,,,,,,,,,,,,,,,,,,,,,,,,,,,I have confidence in the advice given by the aid,,0.7,0,3,840.8319,0,0,0,0,1,0,,,,
,6036d6284f9841a390cbd5a5,001,2022-04-28_22h02.47.475,classification_task,2021.2.3,Win32,143.7401179,6036d6284f9841a390cbd5a5,626b377229c10585ec392f89,626b471b9908862b7c4d9464,,,,,,,,,,,,,,,,,,,,,,,,,,,,,,,,,,,,,,,,,,,,,,,,,,,,,I can depend on the aid,,0.7,0,2,842.7858,0,0,0,0,1,0,,,,
,6036d6284f9841a390cbd5a5,001,2022-04-28_22h02.47.475,classification_task,2021.2.3,Win32,143.7401179,6036d6284f9841a390cbd5a5,626b377229c10585ec392f89,626b471b9908862b7c4d9464,,,,,,,,,,,,,,,,,,,,,,,,,,,,,,,,,,,,,,,,,,,,,,,,,,,,,I can rely on the aid to behave in consistent ways,,0.7,0,2,845.6825,0,0,0,0,1,0,,,,
,6036d6284f9841a390cbd5a5,001,2022-04-28_22h02.47.475,classification_task,2021.2.3,Win32,143.7401179,6036d6284f9841a390cbd5a5,626b377229c10585ec392f89,626b471b9908862b7c4d9464,,,,,,,,,,,,,,,,,,,,,,,,,,,,,,,,,,,,,,,,,,,,,,,,,,,,,I can rely on the aid to do its best every time I take its advice,,0.7,0,3,850.6497,0,0,0,0,1,0,,,,
,6036d6284f9841a390cbd5a5,001,2022-04-28_22h02.47.475,classification_task,2021.2.3,Win32,143.7401179,6036d6284f9841a390cbd5a5,626b377229c10585ec392f89,626b471b9908862b7c4d9464,,,,,,,,,,,,,,,,,,,,,,,,,,,,,,,,,,,,,,,,,,,,,,,,,,,,,"On trials you completed with assistance from the aid, how frequently did you think the aid was correct?",,0.7,0,30,,0,0,0,0,1,0,,,,
,6036d6284f9841a390cbd5a5,001,2022-04-28_22h02.47.475,classification_task,2021.2.3,Win32,143.7401179,6036d6284f9841a390cbd5a5,626b377229c10585ec392f89,626b471b9908862b7c4d9464,,,,,,,,,,,,,,,,,,,,,,,,,,,,,,,,,,,,,,,,,,,,,,,,,,,,,"On trials you completed without the aid, how frequently did you think you were correct?",,0.7,0,70,,0,0,0,0,1,0,,,,
,6036d6284f9841a390cbd5a5,001,2022-04-28_22h02.47.475,classification_task,2021.2.3,Win32,143.7401179,6036d6284f9841a390cbd5a5,626b377229c10585ec392f89,626b471b9908862b7c4d9464,,,,,,,,,,,,,,,,,,,,,,,,,,,,,,,,,,,,,,,,,,,,,,,,,,,,,,,,,,,0,0,0,0,1,,,,,
,6036d6284f9841a390cbd5a5,001,2022-04-28_22h02.47.475,classification_task,2021.2.3,Win32,143.7401179,6036d6284f9841a390cbd5a5,626b377229c10585ec392f89,626b471b9908862b7c4d9464,,,,,,,,,,,,,,,,,,,,,,,,,,,,,,,,,,,,,,,,,,,,,,,,,,,,,,,,,,,,,,,,,space,11.4609,873.9539,
,6036d6284f9841a390cbd5a5,001,2022-04-28_22h02.47.475,classification_task,2021.2.3,Win32,143.7401179,6036d6284f9841a390cbd5a5,626b377229c10585ec392f89,626b471b9908862b7c4d9464,,,,,,,,,,,,,,,,,,,,,,,,,,,,,,,,,,,,,,,,,,,,,,,,,,,,,,,,,,,,,,,,,,,,"Mozilla/5.0 (Windows NT 10.0; Win64; x64) AppleWebKit/537.36 (KHTML, like Gecko) Chrome/99.0.4844.84 Safari/537.36 OPR/85.0.4341.72"
