usingWebGL,participant,session,date,expName,psychopyVersion,OS,frameRate,PROLIFIC_PID,STUDY_ID,SESSION_ID,signatures_friend,signatures_foe,band_ranges_top,band_ranges_bottom,formitemText,formtype,formundefined,formitemWidth,formindex,formresponse,formrt,key_resp_2.keys,key_resp_2.rt,tute_resp.keys,tute_resp.rt,tutorial.thisRepN,tutorial.thisTrialN,tutorial.thisN,tutorial.thisIndex,tutorial.ran,key_resp_4.keys,key_resp_4.rt,key_resp.keys,key_resp.corr,key_resp.rt,lines_presented,is_signal_presented,trials.thisRepN,trials.thisTrialN,trials.thisN,trials.thisIndex,trials.ran,vessel,active_band,lines,is_signal,supported_pos,catch_trial,debrief_formindex,debrief_formitemText,debrief_formtype,debrief_formitemWidth,debrief_formresponse,debrief_formrt,phases.thisRepN,phases.thisTrialN,phases.thisN,phases.thisIndex,phases.ran,phases.order,phase,key_resp_3.keys,trustitemText,trusttype,trustitemWidth,trustindex,trustresponse,trustrt,support_status.thisRepN,support_status.thisTrialN,support_status.thisN,support_status.thisIndex,support_status.ran,support_status.order,key_resp_5.keys,key_resp_5.rt,globalClockTime,userAgent
TRUE,60390dd01c38de312b32bbae,001,2022-04-29_03h13.17.009,classification_task,2021.2.3,Win32,59.49193884,60390dd01c38de312b32bbae,626b377229c10585ec392f8a,626b3b7febcb71ef549e646f,,,,,,,,,,,,,,,,,,,,,,,,,,,,,,,,,,,,,,,,,,,,,,,,,,,,,,,,,,,,,,,,,,,,
,60390dd01c38de312b32bbae,001,2022-04-29_03h13.17.009,classification_task,2021.2.3,Win32,59.49193884,60390dd01c38de312b32bbae,626b377229c10585ec392f8a,626b3b7febcb71ef549e646f,"[[""0.221"",""0.449"",""0.849"",""0.931""],[""0.316"",""0.490"",""0.767"",""0.975""]]","[[""0.038"",""0.148"",""0.538"",""0.688""],[""0.108"",""0.410"",""0.607"",""0.808""]]","[1,10]","[100,1000]",Video game experience,,,0.7,0,,,,,,,,,,,,,,,,,,,,,,,,,,,,,,,,,,,,,,,,,,,,,,,,,,,,,,,,,,,
,60390dd01c38de312b32bbae,001,2022-04-29_03h13.17.009,classification_task,2021.2.3,Win32,59.49193884,60390dd01c38de312b32bbae,626b377229c10585ec392f8a,626b3b7febcb71ef549e646f,,,,,Approximately how many hours did you spend playing video games in the last week?,,,0.7,0,20,,,,,,,,,,,,,,,,,,,,,,,,,,,,,,,,,,,,,,,,,,,,,,,,,,,,,,,,,,
,60390dd01c38de312b32bbae,001,2022-04-29_03h13.17.009,classification_task,2021.2.3,Win32,59.49193884,60390dd01c38de312b32bbae,626b377229c10585ec392f8a,626b3b7febcb71ef549e646f,,,,,"Which game did you play the most this year? (Enter ""None"" if you didn't play any)",,,0.7,0,Rayman,,,,,,,,,,,,,,,,,,,,,,,,,,,,,,,,,,,,,,,,,,,,,,,,,,,,,,,,,,
,60390dd01c38de312b32bbae,001,2022-04-29_03h13.17.009,classification_task,2021.2.3,Win32,59.49193884,60390dd01c38de312b32bbae,626b377229c10585ec392f8a,626b3b7febcb71ef549e646f,,,,,Visual perception,,,0.7,0,,,,,,,,,,,,,,,,,,,,,,,,,,,,,,,,,,,,,,,,,,,,,,,,,,,,,,,,,,,
,60390dd01c38de312b32bbae,001,2022-04-29_03h13.17.009,classification_task,2021.2.3,Win32,59.49193884,60390dd01c38de312b32bbae,626b377229c10585ec392f8a,626b3b7febcb71ef549e646f,,,,,Do you have any form of color blindness?,,,0.7,0,No,25.54081,,,,,,,,,,,,,,,,,,,,,,,,,,,,,,,,,,,,,,,,,,,,,,,,,,,,,,,,,
,60390dd01c38de312b32bbae,001,2022-04-29_03h13.17.009,classification_task,2021.2.3,Win32,59.49193884,60390dd01c38de312b32bbae,626b377229c10585ec392f8a,626b3b7febcb71ef549e646f,,,,,Do you use software to change the colour temperature of your screen (e.g. f.lux)?,,,0.7,0,Yes,30.16882,,,,,,,,,,,,,,,,,,,,,,,,,,,,,,,,,,,,,,,,,,,,,,,,,,,,,,,,,
,60390dd01c38de312b32bbae,001,2022-04-29_03h13.17.009,classification_task,2021.2.3,Win32,59.49193884,60390dd01c38de312b32bbae,626b377229c10585ec392f8a,626b3b7febcb71ef549e646f,,,,,,,,,,,,space,28.196425,space,8.9967,0,0,0,0,1,,,,,,,,,,,,,,,,,,,,,,,,,,,,,,,,,,,,,,,,,,,,,,,,
,60390dd01c38de312b32bbae,001,2022-04-29_03h13.17.009,classification_task,2021.2.3,Win32,59.49193884,60390dd01c38de312b32bbae,626b377229c10585ec392f8a,626b3b7febcb71ef549e646f,,,,,,,,,,,,,,space,16.27049,1,0,1,0,1,,,,,,,,,,,,,,,,,,,,,,,,,,,,,,,,,,,,,,,,,,,,,,,,
,60390dd01c38de312b32bbae,001,2022-04-29_03h13.17.009,classification_task,2021.2.3,Win32,59.49193884,60390dd01c38de312b32bbae,626b377229c10585ec392f8a,626b3b7febcb71ef549e646f,,,,,,,,,,,,,,space,16.631625,2,0,2,0,1,,,,,,,,,,,,,,,,,,,,,,,,,,,,,,,,,,,,,,,,,,,,,,,,
,60390dd01c38de312b32bbae,001,2022-04-29_03h13.17.009,classification_task,2021.2.3,Win32,59.49193884,60390dd01c38de312b32bbae,626b377229c10585ec392f8a,626b3b7febcb71ef549e646f,,,,,,,,,,,,,,space,18.873265,3,0,3,0,1,,,,,,,,,,,,,,,,,,,,,,,,,,,,,,,,,,,,,,,,,,,,,,,,
,60390dd01c38de312b32bbae,001,2022-04-29_03h13.17.009,classification_task,2021.2.3,Win32,59.49193884,60390dd01c38de312b32bbae,626b377229c10585ec392f8a,626b3b7febcb71ef549e646f,,,,,,,,,,,,,,space,12.897095,4,0,4,0,1,,,,,,,,,,,,,,,,,,,,,,,,,,,,,,,,,,,,,,,,,,,,,,,,
,60390dd01c38de312b32bbae,001,2022-04-29_03h13.17.009,classification_task,2021.2.3,Win32,59.49193884,60390dd01c38de312b32bbae,626b377229c10585ec392f8a,626b3b7febcb71ef549e646f,,,,,,,,,,,,,,,,,,,,,space,14.362725,a,0,2.231445,"[""0.108"",""0.894"",""0.607"",""0.808""]","[1,0,1,1]",0,0,0,0,1,1,1,,,0,FALSE,,,,,,,,,,,,,,,,,,,,,,,,,,,,,,
,60390dd01c38de312b32bbae,001,2022-04-29_03h13.17.009,classification_task,2021.2.3,Win32,59.49193884,60390dd01c38de312b32bbae,626b377229c10585ec392f8a,626b3b7febcb71ef549e646f,,,,,,,,,,,,,,,,,,,,,,,l,0,4.410655,"[""0.075"",""0.490"",""0.767"",""0.975""]","[0,1,1,1]",0,1,1,1,1,0,1,,,0,FALSE,,,,,,,,,,,,,,,,,,,,,,,,,,,,,,
,60390dd01c38de312b32bbae,001,2022-04-29_03h13.17.009,classification_task,2021.2.3,Win32,59.49193884,60390dd01c38de312b32bbae,626b377229c10585ec392f8a,626b3b7febcb71ef549e646f,,,,,,,,,,,,,,,,,,,,,,,a,0,2.338825,"[""0.108"",""0.410"",""0.607"",""0.653""]","[1,1,1,0]",0,2,2,2,1,1,1,,,0,FALSE,,,,,,,,,,,,,,,,,,,,,,,,,,,,,,
,60390dd01c38de312b32bbae,001,2022-04-29_03h13.17.009,classification_task,2021.2.3,Win32,59.49193884,60390dd01c38de312b32bbae,626b377229c10585ec392f8a,626b3b7febcb71ef549e646f,,,,,,,,,,,,,,,,,,,,,,,a,1,0.903715,"[""0.221"",""0.728"",""0.849"",""0.931""]","[1,0,1,1]",0,3,3,3,1,0,0,,,0,FALSE,,,,,,,,,,,,,,,,,,,,,,,,,,,,,,
,60390dd01c38de312b32bbae,001,2022-04-29_03h13.17.009,classification_task,2021.2.3,Win32,59.49193884,60390dd01c38de312b32bbae,626b377229c10585ec392f8a,626b3b7febcb71ef549e646f,,,,,,,,,,,,,,,,,,,,,,,l,1,1.764105001,"[""0.108"",""0.410"",""0.271"",""0.808""]","[1,1,0,1]",0,4,4,4,1,1,1,,,0,FALSE,,,,,,,,,,,,,,,,,,,,,,,,,,,,,,
,60390dd01c38de312b32bbae,001,2022-04-29_03h13.17.009,classification_task,2021.2.3,Win32,59.49193884,60390dd01c38de312b32bbae,626b377229c10585ec392f8a,626b3b7febcb71ef549e646f,,,,,,,,,,,,,,,,,,,,,,,l,1,2.700595,"[""0.038"",""0.148"",""0.652"",""0.688""]","[1,1,0,1]",0,5,5,5,1,1,0,,,0,FALSE,,,,,,,,,,,,,,,,,,,,,,,,,,,,,,
,60390dd01c38de312b32bbae,001,2022-04-29_03h13.17.009,classification_task,2021.2.3,Win32,59.49193884,60390dd01c38de312b32bbae,626b377229c10585ec392f8a,626b3b7febcb71ef549e646f,,,,,,,,,,,,,,,,,,,,,,,l,0,1.64958,"[""0.221"",""0.449"",""0.849"",""0.649""]","[1,1,1,0]",0,6,6,6,1,0,0,,,0,FALSE,,,,,,,,,,,,,,,,,,,,,,,,,,,,,,
,60390dd01c38de312b32bbae,001,2022-04-29_03h13.17.009,classification_task,2021.2.3,Win32,59.49193884,60390dd01c38de312b32bbae,626b377229c10585ec392f8a,626b3b7febcb71ef549e646f,,,,,,,,,,,,,,,,,,,,,,,a,1,1.664535,"[""0.075"",""0.449"",""0.849"",""0.931""]","[0,1,1,1]",0,7,7,7,1,0,0,,,0,FALSE,,,,,,,,,,,,,,,,,,,,,,,,,,,,,,
,60390dd01c38de312b32bbae,001,2022-04-29_03h13.17.009,classification_task,2021.2.3,Win32,59.49193884,60390dd01c38de312b32bbae,626b377229c10585ec392f8a,626b3b7febcb71ef549e646f,,,,,,,,,,,,,,,,,,,,,,,l,1,2.809815,"[""0.038"",""0.148"",""0.538"",""0.362""]","[1,1,1,0]",0,8,8,8,1,1,0,,,0,FALSE,,,,,,,,,,,,,,,,,,,,,,,,,,,,,,
,60390dd01c38de312b32bbae,001,2022-04-29_03h13.17.009,classification_task,2021.2.3,Win32,59.49193884,60390dd01c38de312b32bbae,626b377229c10585ec392f8a,626b3b7febcb71ef549e646f,,,,,,,,,,,,,,,,,,,,,,,a,1,1.65448,"[""0.316"",""0.490"",""0.654"",""0.975""]","[1,1,0,1]",0,9,9,9,1,0,1,,,0,FALSE,,,,,,,,,,,,,,,,,,,,,,,,,,,,,,
,60390dd01c38de312b32bbae,001,2022-04-29_03h13.17.009,classification_task,2021.2.3,Win32,59.49193884,60390dd01c38de312b32bbae,626b377229c10585ec392f8a,626b3b7febcb71ef549e646f,,,,,,,,,,,,,,,,,,,,,,,l,0,3.09706,"[""0.316"",""0.490"",""0.767"",""0.271""]","[1,1,1,0]",0,10,10,10,1,0,1,,,0,FALSE,,,,,,,,,,,,,,,,,,,,,,,,,,,,,,
,60390dd01c38de312b32bbae,001,2022-04-29_03h13.17.009,classification_task,2021.2.3,Win32,59.49193884,60390dd01c38de312b32bbae,626b377229c10585ec392f8a,626b3b7febcb71ef549e646f,,,,,,,,,,,,,,,,,,,,,,,l,1,2.206405,"[""0.271"",""0.410"",""0.607"",""0.808""]","[0,1,1,1]",0,11,11,11,1,1,1,,,0,FALSE,,,,,,,,,,,,,,,,,,,,,,,,,,,,,,
,60390dd01c38de312b32bbae,001,2022-04-29_03h13.17.009,classification_task,2021.2.3,Win32,59.49193884,60390dd01c38de312b32bbae,626b377229c10585ec392f8a,626b3b7febcb71ef549e646f,,,,,,,,,,,,,,,,,,,,,,,l,0,1.2353,"[""0.316"",""0.894"",""0.767"",""0.975""]","[1,0,1,1]",0,12,12,12,1,0,1,,,0,FALSE,,,,,,,,,,,,,,,,,,,,,,,,,,,,,,
,60390dd01c38de312b32bbae,001,2022-04-29_03h13.17.009,classification_task,2021.2.3,Win32,59.49193884,60390dd01c38de312b32bbae,626b377229c10585ec392f8a,626b3b7febcb71ef549e646f,,,,,,,,,,,,,,,,,,,,,,,a,0,1.71827,"[""0.370"",""0.148"",""0.538"",""0.688""]","[0,1,1,1]",0,13,13,13,1,1,0,,,0,FALSE,,,,,,,,,,,,,,,,,,,,,,,,,,,,,,
,60390dd01c38de312b32bbae,001,2022-04-29_03h13.17.009,classification_task,2021.2.3,Win32,59.49193884,60390dd01c38de312b32bbae,626b377229c10585ec392f8a,626b3b7febcb71ef549e646f,,,,,,,,,,,,,,,,,,,,,,,l,0,1.0918,"[""0.221"",""0.449"",""0.075"",""0.931""]","[1,1,0,1]",0,14,14,14,1,0,0,,,0,FALSE,,,,,,,,,,,,,,,,,,,,,,,,,,,,,,
,60390dd01c38de312b32bbae,001,2022-04-29_03h13.17.009,classification_task,2021.2.3,Win32,59.49193884,60390dd01c38de312b32bbae,626b377229c10585ec392f8a,626b3b7febcb71ef549e646f,,,,,,,,,,,,,,,,,,,,,,,a,0,2.377045,"[""0.038"",""0.894"",""0.538"",""0.688""]","[1,0,1,1]",0,15,15,15,1,1,0,,,0,FALSE,,,,,,,,,,,,,,,,,,,,,,,,,,,,,,
,60390dd01c38de312b32bbae,001,2022-04-29_03h13.17.009,classification_task,2021.2.3,Win32,59.49193884,60390dd01c38de312b32bbae,626b377229c10585ec392f8a,626b3b7febcb71ef549e646f,,,,,,,,,,,,,,,,,,,,,,,l,0,1.387515,"[""0.221"",""0.449"",""0.849"",""0.653""]","[1,1,1,0]",0,16,16,16,1,0,0,,,0,FALSE,,,,,,,,,,,,,,,,,,,,,,,,,,,,,,
,60390dd01c38de312b32bbae,001,2022-04-29_03h13.17.009,classification_task,2021.2.3,Win32,59.49193884,60390dd01c38de312b32bbae,626b377229c10585ec392f8a,626b3b7febcb71ef549e646f,,,,,,,,,,,,,,,,,,,,,,,a,1,1.317015,"[""0.316"",""0.490"",""0.767"",""0.728""]","[1,1,1,0]",0,17,17,17,1,0,1,,,0,FALSE,,,,,,,,,,,,,,,,,,,,,,,,,,,,,,
,60390dd01c38de312b32bbae,001,2022-04-29_03h13.17.009,classification_task,2021.2.3,Win32,59.49193884,60390dd01c38de312b32bbae,626b377229c10585ec392f8a,626b3b7febcb71ef549e646f,,,,,,,,,,,,,,,,,,,,,,,l,1,1.004430001,"[""0.108"",""0.653"",""0.607"",""0.808""]","[1,0,1,1]",0,18,18,18,1,1,1,,,0,FALSE,,,,,,,,,,,,,,,,,,,,,,,,,,,,,,
,60390dd01c38de312b32bbae,001,2022-04-29_03h13.17.009,classification_task,2021.2.3,Win32,59.49193884,60390dd01c38de312b32bbae,626b377229c10585ec392f8a,626b3b7febcb71ef549e646f,,,,,,,,,,,,,,,,,,,,,,,a,0,0.978805,"[""0.108"",""0.410"",""0.271"",""0.808""]","[1,1,0,1]",0,19,19,19,1,1,1,,,0,FALSE,,,,,,,,,,,,,,,,,,,,,,,,,,,,,,
,60390dd01c38de312b32bbae,001,2022-04-29_03h13.17.009,classification_task,2021.2.3,Win32,59.49193884,60390dd01c38de312b32bbae,626b377229c10585ec392f8a,626b3b7febcb71ef549e646f,,,,,,,,,,,,,,,,,,,,,,,a,0,1.00851,"[""0.038"",""0.148"",""0.075"",""0.688""]","[1,1,0,1]",0,20,20,20,1,1,0,,,0,FALSE,,,,,,,,,,,,,,,,,,,,,,,,,,,,,,
,60390dd01c38de312b32bbae,001,2022-04-29_03h13.17.009,classification_task,2021.2.3,Win32,59.49193884,60390dd01c38de312b32bbae,626b377229c10585ec392f8a,626b3b7febcb71ef549e646f,,,,,,,,,,,,,,,,,,,,,,,a,0,1.731045,"[""0.108"",""0.410"",""0.607"",""0.370""]","[1,1,1,0]",0,21,21,21,1,1,1,,,0,FALSE,,,,,,,,,,,,,,,,,,,,,,,,,,,,,,
,60390dd01c38de312b32bbae,001,2022-04-29_03h13.17.009,classification_task,2021.2.3,Win32,59.49193884,60390dd01c38de312b32bbae,626b377229c10585ec392f8a,626b3b7febcb71ef549e646f,,,,,,,,,,,,,,,,,,,,,,,l,0,1.257315001,"[""0.221"",""0.449"",""0.652"",""0.931""]","[1,1,0,1]",0,22,22,22,1,0,0,,,0,FALSE,,,,,,,,,,,,,,,,,,,,,,,,,,,,,,
,60390dd01c38de312b32bbae,001,2022-04-29_03h13.17.009,classification_task,2021.2.3,Win32,59.49193884,60390dd01c38de312b32bbae,626b377229c10585ec392f8a,626b3b7febcb71ef549e646f,,,,,,,,,,,,,,,,,,,,,,,a,1,1.7553,"[""0.654"",""0.449"",""0.849"",""0.931""]","[0,1,1,1]",0,23,23,23,1,0,0,,,0,FALSE,,,,,,,,,,,,,,,,,,,,,,,,,,,,,,
,60390dd01c38de312b32bbae,001,2022-04-29_03h13.17.009,classification_task,2021.2.3,Win32,59.49193884,60390dd01c38de312b32bbae,626b377229c10585ec392f8a,626b3b7febcb71ef549e646f,,,,,,,,,,,,,,,,,,,,,,,a,1,0.90651,"[""0.221"",""0.728"",""0.849"",""0.931""]","[1,0,1,1]",0,24,24,24,1,0,0,,,0,FALSE,,,,,,,,,,,,,,,,,,,,,,,,,,,,,,
,60390dd01c38de312b32bbae,001,2022-04-29_03h13.17.009,classification_task,2021.2.3,Win32,59.49193884,60390dd01c38de312b32bbae,626b377229c10585ec392f8a,626b3b7febcb71ef549e646f,,,,,,,,,,,,,,,,,,,,,,,a,1,3.70451,"[""0.261"",""0.490"",""0.767"",""0.975""]","[0,1,1,1]",0,25,25,25,1,0,1,,,0,FALSE,,,,,,,,,,,,,,,,,,,,,,,,,,,,,,
,60390dd01c38de312b32bbae,001,2022-04-29_03h13.17.009,classification_task,2021.2.3,Win32,59.49193884,60390dd01c38de312b32bbae,626b377229c10585ec392f8a,626b3b7febcb71ef549e646f,,,,,,,,,,,,,,,,,,,,,,,a,1,1.50883,"[""0.316"",""0.490"",""0.894"",""0.975""]","[1,1,0,1]",0,26,26,26,1,0,1,,,0,FALSE,,,,,,,,,,,,,,,,,,,,,,,,,,,,,,
,60390dd01c38de312b32bbae,001,2022-04-29_03h13.17.009,classification_task,2021.2.3,Win32,59.49193884,60390dd01c38de312b32bbae,626b377229c10585ec392f8a,626b3b7febcb71ef549e646f,,,,,,,,,,,,,,,,,,,,,,,l,1,1.08999,"[""0.038"",""0.148"",""0.538"",""0.261""]","[1,1,1,0]",0,27,27,27,1,1,0,,,0,FALSE,,,,,,,,,,,,,,,,,,,,,,,,,,,,,,
,60390dd01c38de312b32bbae,001,2022-04-29_03h13.17.009,classification_task,2021.2.3,Win32,59.49193884,60390dd01c38de312b32bbae,626b377229c10585ec392f8a,626b3b7febcb71ef549e646f,,,,,,,,,,,,,,,,,,,,,,,l,1,1.058075001,"[""0.038"",""0.261"",""0.538"",""0.688""]","[1,0,1,1]",0,28,28,28,1,1,0,,,0,FALSE,,,,,,,,,,,,,,,,,,,,,,,,,,,,,,
,60390dd01c38de312b32bbae,001,2022-04-29_03h13.17.009,classification_task,2021.2.3,Win32,59.49193884,60390dd01c38de312b32bbae,626b377229c10585ec392f8a,626b3b7febcb71ef549e646f,,,,,,,,,,,,,,,,,,,,,,,l,1,1.883235,"[""0.370"",""0.148"",""0.538"",""0.688""]","[0,1,1,1]",0,29,29,29,1,1,0,,,0,FALSE,,,,,,,,,,,,,,,,,,,,,,,,,,,,,,
,60390dd01c38de312b32bbae,001,2022-04-29_03h13.17.009,classification_task,2021.2.3,Win32,59.49193884,60390dd01c38de312b32bbae,626b377229c10585ec392f8a,626b3b7febcb71ef549e646f,,,,,,,,,,,,,,,,,,,,,,,a,1,1.78241,"[""0.316"",""0.649"",""0.767"",""0.975""]","[1,0,1,1]",0,30,30,30,1,0,1,,,0,FALSE,,,,,,,,,,,,,,,,,,,,,,,,,,,,,,
,60390dd01c38de312b32bbae,001,2022-04-29_03h13.17.009,classification_task,2021.2.3,Win32,59.49193884,60390dd01c38de312b32bbae,626b377229c10585ec392f8a,626b3b7febcb71ef549e646f,,,,,,,,,,,,,,,,,,,,,,,a,0,3.506745,"[""0.271"",""0.410"",""0.607"",""0.808""]","[0,1,1,1]",0,31,31,31,1,1,1,,,0,FALSE,,,,,,,,,,,,,,,,,,,,,,,,,,,,,,
,60390dd01c38de312b32bbae,001,2022-04-29_03h13.17.009,classification_task,2021.2.3,Win32,59.49193884,60390dd01c38de312b32bbae,626b377229c10585ec392f8a,626b3b7febcb71ef549e646f,,,,,,,,,,,,,,,,,,,,,,,l,1,1.633445,"[""0.362"",""0.148"",""0.538"",""0.688""]","[0,1,1,1]",0,32,32,32,1,1,0,,,0,FALSE,,,,,,,,,,,,,,,,,,,,,,,,,,,,,,
,60390dd01c38de312b32bbae,001,2022-04-29_03h13.17.009,classification_task,2021.2.3,Win32,59.49193884,60390dd01c38de312b32bbae,626b377229c10585ec392f8a,626b3b7febcb71ef549e646f,,,,,,,,,,,,,,,,,,,,,,,l,1,3.138945,"[""0.108"",""0.410"",""0.649"",""0.808""]","[1,1,0,1]",0,33,33,33,1,1,1,,,0,FALSE,,,,,,,,,,,,,,,,,,,,,,,,,,,,,,
,60390dd01c38de312b32bbae,001,2022-04-29_03h13.17.009,classification_task,2021.2.3,Win32,59.49193884,60390dd01c38de312b32bbae,626b377229c10585ec392f8a,626b3b7febcb71ef549e646f,,,,,,,,,,,,,,,,,,,,,,,a,1,2.75005,"[""0.316"",""0.258"",""0.767"",""0.975""]","[1,0,1,1]",0,34,34,34,1,0,1,,,0,FALSE,,,,,,,,,,,,,,,,,,,,,,,,,,,,,,
,60390dd01c38de312b32bbae,001,2022-04-29_03h13.17.009,classification_task,2021.2.3,Win32,59.49193884,60390dd01c38de312b32bbae,626b377229c10585ec392f8a,626b3b7febcb71ef549e646f,,,,,,,,,,,,,,,,,,,,,,,l,1,1.54223,"[""0.038"",""0.271"",""0.538"",""0.688""]","[1,0,1,1]",0,35,35,35,1,1,0,,,0,FALSE,,,,,,,,,,,,,,,,,,,,,,,,,,,,,,
,60390dd01c38de312b32bbae,001,2022-04-29_03h13.17.009,classification_task,2021.2.3,Win32,59.49193884,60390dd01c38de312b32bbae,626b377229c10585ec392f8a,626b3b7febcb71ef549e646f,,,,,,,,,,,,,,,,,,,,,,,a,1,2.177095,"[""0.221"",""0.449"",""0.849"",""0.271""]","[1,1,1,0]",0,36,36,36,1,0,0,,,0,FALSE,,,,,,,,,,,,,,,,,,,,,,,,,,,,,,
,60390dd01c38de312b32bbae,001,2022-04-29_03h13.17.009,classification_task,2021.2.3,Win32,59.49193884,60390dd01c38de312b32bbae,626b377229c10585ec392f8a,626b3b7febcb71ef549e646f,,,,,,,,,,,,,,,,,,,,,,,a,1,2.552019999,"[""0.316"",""0.490"",""0.767"",""0.894""]","[1,1,1,0]",0,37,37,37,1,0,1,,,0,FALSE,,,,,,,,,,,,,,,,,,,,,,,,,,,,,,
,60390dd01c38de312b32bbae,001,2022-04-29_03h13.17.009,classification_task,2021.2.3,Win32,59.49193884,60390dd01c38de312b32bbae,626b377229c10585ec392f8a,626b3b7febcb71ef549e646f,,,,,,,,,,,,,,,,,,,,,,,a,1,1.16188,"[""0.316"",""0.490"",""0.271"",""0.975""]","[1,1,0,1]",0,38,38,38,1,0,1,,,0,FALSE,,,,,,,,,,,,,,,,,,,,,,,,,,,,,,
,60390dd01c38de312b32bbae,001,2022-04-29_03h13.17.009,classification_task,2021.2.3,Win32,59.49193884,60390dd01c38de312b32bbae,626b377229c10585ec392f8a,626b3b7febcb71ef549e646f,,,,,,,,,,,,,,,,,,,,,,,a,0,1.184575,"[""0.370"",""0.410"",""0.607"",""0.808""]","[0,1,1,1]",0,39,39,39,1,1,1,,,0,FALSE,,,,,,,,,,,,,,,,,,,,,,,,,,,,,,
,60390dd01c38de312b32bbae,001,2022-04-29_03h13.17.009,classification_task,2021.2.3,Win32,59.49193884,60390dd01c38de312b32bbae,626b377229c10585ec392f8a,626b3b7febcb71ef549e646f,,,,,,,,,,,,,,,,,,,,,,,a,1,1.92297,"[""0.258"",""0.490"",""0.767"",""0.975""]","[0,1,1,1]",0,40,40,40,1,0,1,,,0,FALSE,,,,,,,,,,,,,,,,,,,,,,,,,,,,,,
,60390dd01c38de312b32bbae,001,2022-04-29_03h13.17.009,classification_task,2021.2.3,Win32,59.49193884,60390dd01c38de312b32bbae,626b377229c10585ec392f8a,626b3b7febcb71ef549e646f,,,,,,,,,,,,,,,,,,,,,,,a,1,2.66325,"[""0.221"",""0.654"",""0.849"",""0.931""]","[1,0,1,1]",0,41,41,41,1,0,0,,,0,FALSE,,,,,,,,,,,,,,,,,,,,,,,,,,,,,,
,60390dd01c38de312b32bbae,001,2022-04-29_03h13.17.009,classification_task,2021.2.3,Win32,59.49193884,60390dd01c38de312b32bbae,626b377229c10585ec392f8a,626b3b7febcb71ef549e646f,,,,,,,,,,,,,,,,,,,,,,,l,1,1.371055,"[""0.108"",""0.410"",""0.607"",""0.255""]","[1,1,1,0]",0,42,42,42,1,1,1,,,0,FALSE,,,,,,,,,,,,,,,,,,,,,,,,,,,,,,
,60390dd01c38de312b32bbae,001,2022-04-29_03h13.17.009,classification_task,2021.2.3,Win32,59.49193884,60390dd01c38de312b32bbae,626b377229c10585ec392f8a,626b3b7febcb71ef549e646f,,,,,,,,,,,,,,,,,,,,,,,a,1,1.305535,"[""0.371"",""0.449"",""0.849"",""0.931""]","[0,1,1,1]",0,43,43,43,1,0,0,,,0,FALSE,,,,,,,,,,,,,,,,,,,,,,,,,,,,,,
,60390dd01c38de312b32bbae,001,2022-04-29_03h13.17.009,classification_task,2021.2.3,Win32,59.49193884,60390dd01c38de312b32bbae,626b377229c10585ec392f8a,626b3b7febcb71ef549e646f,,,,,,,,,,,,,,,,,,,,,,,l,1,1.400435,"[""0.038"",""0.148"",""0.894"",""0.688""]","[1,1,0,1]",0,44,44,44,1,1,0,,,0,FALSE,,,,,,,,,,,,,,,,,,,,,,,,,,,,,,
,60390dd01c38de312b32bbae,001,2022-04-29_03h13.17.009,classification_task,2021.2.3,Win32,59.49193884,60390dd01c38de312b32bbae,626b377229c10585ec392f8a,626b3b7febcb71ef549e646f,,,,,,,,,,,,,,,,,,,,,,,l,1,1.47602,"[""0.108"",""0.894"",""0.607"",""0.808""]","[1,0,1,1]",0,45,45,45,1,1,1,,,0,FALSE,,,,,,,,,,,,,,,,,,,,,,,,,,,,,,
,60390dd01c38de312b32bbae,001,2022-04-29_03h13.17.009,classification_task,2021.2.3,Win32,59.49193884,60390dd01c38de312b32bbae,626b377229c10585ec392f8a,626b3b7febcb71ef549e646f,,,,,,,,,,,,,,,,,,,,,,,l,1,1.194510001,"[""0.038"",""0.148"",""0.538"",""0.255""]","[1,1,1,0]",0,46,46,46,1,1,0,,,0,FALSE,,,,,,,,,,,,,,,,,,,,,,,,,,,,,,
,60390dd01c38de312b32bbae,001,2022-04-29_03h13.17.009,classification_task,2021.2.3,Win32,59.49193884,60390dd01c38de312b32bbae,626b377229c10585ec392f8a,626b3b7febcb71ef549e646f,,,,,,,,,,,,,,,,,,,,,,,a,1,1.683645,"[""0.221"",""0.449"",""0.653"",""0.931""]","[1,1,0,1]",0,47,47,47,1,0,0,,,0,FALSE,,,,,,,,,,,,,,,,,,,,,,,,,,,,,,
,60390dd01c38de312b32bbae,001,2022-04-29_03h13.17.009,classification_task,2021.2.3,Win32,59.49193884,60390dd01c38de312b32bbae,626b377229c10585ec392f8a,626b3b7febcb71ef549e646f,,,,,,,,,,,,,,,,,,,,,,,a,1,2.66116,"[""0.221"",""0.449"",""0.849"",""0.652""]","[1,1,1,0]",0,48,48,48,1,0,0,,,0,FALSE,,,,,,,,,,,,,,,,,,,,,,,,,,,,,,
,60390dd01c38de312b32bbae,001,2022-04-29_03h13.17.009,classification_task,2021.2.3,Win32,59.49193884,60390dd01c38de312b32bbae,626b377229c10585ec392f8a,626b3b7febcb71ef549e646f,,,,,,,,,,,,,,,,,,,,,,,a,1,4.419885,"[""0.316"",""0.728"",""0.767"",""0.975""]","[1,0,1,1]",0,49,49,49,1,0,1,,,0,FALSE,,,,,,,,,,,,,,,,,,,,,,,,,,,,,,
,60390dd01c38de312b32bbae,001,2022-04-29_03h13.17.009,classification_task,2021.2.3,Win32,59.49193884,60390dd01c38de312b32bbae,626b377229c10585ec392f8a,626b3b7febcb71ef549e646f,,,,,,,,,,,,,,,,,,,,,,,l,1,1.40314,"[""0.108"",""0.410"",""0.271"",""0.808""]","[1,1,0,1]",0,50,50,50,1,1,1,,,0,FALSE,,,,,,,,,,,,,,,,,,,,,,,,,,,,,,
,60390dd01c38de312b32bbae,001,2022-04-29_03h13.17.009,classification_task,2021.2.3,Win32,59.49193884,60390dd01c38de312b32bbae,626b377229c10585ec392f8a,626b3b7febcb71ef549e646f,,,,,,,,,,,,,,,,,,,,,,,a,1,0.943865,"[""0.654"",""0.449"",""0.849"",""0.931""]","[0,1,1,1]",0,51,51,51,1,0,0,,,0,FALSE,,,,,,,,,,,,,,,,,,,,,,,,,,,,,,
,60390dd01c38de312b32bbae,001,2022-04-29_03h13.17.009,classification_task,2021.2.3,Win32,59.49193884,60390dd01c38de312b32bbae,626b377229c10585ec392f8a,626b3b7febcb71ef549e646f,,,,,,,,,,,,,,,,,,,,,,,l,1,0.88615,"[""0.075"",""0.148"",""0.538"",""0.688""]","[0,1,1,1]",0,52,52,52,1,1,0,,,0,FALSE,,,,,,,,,,,,,,,,,,,,,,,,,,,,,,
,60390dd01c38de312b32bbae,001,2022-04-29_03h13.17.009,classification_task,2021.2.3,Win32,59.49193884,60390dd01c38de312b32bbae,626b377229c10585ec392f8a,626b3b7febcb71ef549e646f,,,,,,,,,,,,,,,,,,,,,,,l,1,0.86925,"[""0.038"",""0.148"",""0.538"",""0.362""]","[1,1,1,0]",0,53,53,53,1,1,0,,,0,FALSE,,,,,,,,,,,,,,,,,,,,,,,,,,,,,,
,60390dd01c38de312b32bbae,001,2022-04-29_03h13.17.009,classification_task,2021.2.3,Win32,59.49193884,60390dd01c38de312b32bbae,626b377229c10585ec392f8a,626b3b7febcb71ef549e646f,,,,,,,,,,,,,,,,,,,,,,,a,1,1.54052,"[""0.316"",""0.490"",""0.362"",""0.975""]","[1,1,0,1]",0,54,54,54,1,0,1,,,0,FALSE,,,,,,,,,,,,,,,,,,,,,,,,,,,,,,
,60390dd01c38de312b32bbae,001,2022-04-29_03h13.17.009,classification_task,2021.2.3,Win32,59.49193884,60390dd01c38de312b32bbae,626b377229c10585ec392f8a,626b3b7febcb71ef549e646f,,,,,,,,,,,,,,,,,,,,,,,l,1,1.167115,"[""0.038"",""0.148"",""0.261"",""0.688""]","[1,1,0,1]",0,55,55,55,1,1,0,,,0,FALSE,,,,,,,,,,,,,,,,,,,,,,,,,,,,,,
,60390dd01c38de312b32bbae,001,2022-04-29_03h13.17.009,classification_task,2021.2.3,Win32,59.49193884,60390dd01c38de312b32bbae,626b377229c10585ec392f8a,626b3b7febcb71ef549e646f,,,,,,,,,,,,,,,,,,,,,,,l,1,0.928875,"[""0.038"",""0.271"",""0.538"",""0.688""]","[1,0,1,1]",0,56,56,56,1,1,0,,,0,FALSE,,,,,,,,,,,,,,,,,,,,,,,,,,,,,,
,60390dd01c38de312b32bbae,001,2022-04-29_03h13.17.009,classification_task,2021.2.3,Win32,59.49193884,60390dd01c38de312b32bbae,626b377229c10585ec392f8a,626b3b7febcb71ef549e646f,,,,,,,,,,,,,,,,,,,,,,,l,1,1.040855,"[""0.108"",""0.886"",""0.607"",""0.808""]","[1,0,1,1]",0,57,57,57,1,1,1,,,0,FALSE,,,,,,,,,,,,,,,,,,,,,,,,,,,,,,
,60390dd01c38de312b32bbae,001,2022-04-29_03h13.17.009,classification_task,2021.2.3,Win32,59.49193884,60390dd01c38de312b32bbae,626b377229c10585ec392f8a,626b3b7febcb71ef549e646f,,,,,,,,,,,,,,,,,,,,,,,a,1,2.91248,"[""0.221"",""0.449"",""0.362"",""0.931""]","[1,1,0,1]",0,58,58,58,1,0,0,,,0,FALSE,,,,,,,,,,,,,,,,,,,,,,,,,,,,,,
,60390dd01c38de312b32bbae,001,2022-04-29_03h13.17.009,classification_task,2021.2.3,Win32,59.49193884,60390dd01c38de312b32bbae,626b377229c10585ec392f8a,626b3b7febcb71ef549e646f,,,,,,,,,,,,,,,,,,,,,,,a,0,1.07454,"[""0.886"",""0.410"",""0.607"",""0.808""]","[0,1,1,1]",0,59,59,59,1,1,1,,,0,FALSE,,,,,,,,,,,,,,,,,,,,,,,,,,,,,,
,60390dd01c38de312b32bbae,001,2022-04-29_03h13.17.009,classification_task,2021.2.3,Win32,59.49193884,60390dd01c38de312b32bbae,626b377229c10585ec392f8a,626b3b7febcb71ef549e646f,,,,,,,,,,,,,,,,,,,,,,,a,1,1.04608,"[""0.728"",""0.490"",""0.767"",""0.975""]","[0,1,1,1]",0,60,60,60,1,0,1,,,0,FALSE,,,,,,,,,,,,,,,,,,,,,,,,,,,,,,
,60390dd01c38de312b32bbae,001,2022-04-29_03h13.17.009,classification_task,2021.2.3,Win32,59.49193884,60390dd01c38de312b32bbae,626b377229c10585ec392f8a,626b3b7febcb71ef549e646f,,,,,,,,,,,,,,,,,,,,,,,l,1,1.068575,"[""0.108"",""0.410"",""0.607"",""0.362""]","[1,1,1,0]",0,61,61,61,1,1,1,,,0,FALSE,,,,,,,,,,,,,,,,,,,,,,,,,,,,,,
,60390dd01c38de312b32bbae,001,2022-04-29_03h13.17.009,classification_task,2021.2.3,Win32,59.49193884,60390dd01c38de312b32bbae,626b377229c10585ec392f8a,626b3b7febcb71ef549e646f,,,,,,,,,,,,,,,,,,,,,,,a,1,1.02357,"[""0.316"",""0.490"",""0.767"",""0.258""]","[1,1,1,0]",0,62,62,62,1,0,1,,,0,FALSE,,,,,,,,,,,,,,,,,,,,,,,,,,,,,,
,60390dd01c38de312b32bbae,001,2022-04-29_03h13.17.009,classification_task,2021.2.3,Win32,59.49193884,60390dd01c38de312b32bbae,626b377229c10585ec392f8a,626b3b7febcb71ef549e646f,,,,,,,,,,,,,,,,,,,,,,,a,1,4.431655,"[""0.221"",""0.271"",""0.849"",""0.931""]","[1,0,1,1]",0,63,63,63,1,0,0,,,0,FALSE,,,,,,,,,,,,,,,,,,,,,,,,,,,,,,
,60390dd01c38de312b32bbae,001,2022-04-29_03h13.17.009,classification_task,2021.2.3,Win32,59.49193884,60390dd01c38de312b32bbae,626b377229c10585ec392f8a,626b3b7febcb71ef549e646f,,,,,,,,,,,,,,,,,,,,,,,,,,,,,,,,,,,,,,,0, ,,0,0,357.88678,0,0,0,0,1,2,1,,,,,,,,,,,,,,,,,
,60390dd01c38de312b32bbae,001,2022-04-29_03h13.17.009,classification_task,2021.2.3,Win32,59.49193884,60390dd01c38de312b32bbae,626b377229c10585ec392f8a,626b3b7febcb71ef549e646f,,,,,,,,,,,,,,,,,,,,,,,,,,,,,,,,,,,,,,,1,  ,,0,10,363.12557,0,0,0,0,1,2,1,,,,,,,,,,,,,,,,,
,60390dd01c38de312b32bbae,001,2022-04-29_03h13.17.009,classification_task,2021.2.3,Win32,59.49193884,60390dd01c38de312b32bbae,626b377229c10585ec392f8a,626b3b7febcb71ef549e646f,,,,,,,,,,,,,,,,,,,,,,,,,,,,,,,,,,,,,,,2,  ,,0,0,369.677145,0,0,0,0,1,2,1,,,,,,,,,,,,,,,,,
,60390dd01c38de312b32bbae,001,2022-04-29_03h13.17.009,classification_task,2021.2.3,Win32,59.49193884,60390dd01c38de312b32bbae,626b377229c10585ec392f8a,626b3b7febcb71ef549e646f,,,,,,,,,,,,,,,,,,,,,,,,,,,,,,,,,,,,,,,,,,,,,0,0,0,0,1,,1,,,,,,,,,,,,,,,,,
,60390dd01c38de312b32bbae,001,2022-04-29_03h13.17.009,classification_task,2021.2.3,Win32,59.49193884,60390dd01c38de312b32bbae,626b377229c10585ec392f8a,626b3b7febcb71ef549e646f,,,,,,,,,,,,,,,,,,,,,space,12.685965,l,1,1.588475,"[""0.108"",""0.410"",""0.075"",""0.808""]","[1,1,0,1]",0,0,0,0,1,1,1,,,0,FALSE,,,,,,,,,,,,,,,,,,,,,,,,,,,,,,
,60390dd01c38de312b32bbae,001,2022-04-29_03h13.17.009,classification_task,2021.2.3,Win32,59.49193884,60390dd01c38de312b32bbae,626b377229c10585ec392f8a,626b3b7febcb71ef549e646f,,,,,,,,,,,,,,,,,,,,,,,a,0,2.185660001,"[""0.728"",""0.410"",""0.607"",""0.808""]","[0,1,1,1]",0,1,1,1,1,1,1,,,0,FALSE,,,,,,,,,,,,,,,,,,,,,,,,,,,,,,
,60390dd01c38de312b32bbae,001,2022-04-29_03h13.17.009,classification_task,2021.2.3,Win32,59.49193884,60390dd01c38de312b32bbae,626b377229c10585ec392f8a,626b3b7febcb71ef549e646f,,,,,,,,,,,,,,,,,,,,,,,l,1,2.093655,"[""0.038"",""0.148"",""0.258"",""0.688""]","[1,1,0,1]",0,2,2,2,1,1,0,,,0,FALSE,,,,,,,,,,,,,,,,,,,,,,,,,,,,,,
,60390dd01c38de312b32bbae,001,2022-04-29_03h13.17.009,classification_task,2021.2.3,Win32,59.49193884,60390dd01c38de312b32bbae,626b377229c10585ec392f8a,626b3b7febcb71ef549e646f,,,,,,,,,,,,,,,,,,,,,,,a,0,1.4588,"[""0.108"",""0.410"",""0.607"",""0.728""]","[1,1,1,0]",0,3,3,3,1,1,1,,,0,FALSE,,,,,,,,,,,,,,,,,,,,,,,,,,,,,,
,60390dd01c38de312b32bbae,001,2022-04-29_03h13.17.009,classification_task,2021.2.3,Win32,59.49193884,60390dd01c38de312b32bbae,626b377229c10585ec392f8a,626b3b7febcb71ef549e646f,,,,,,,,,,,,,,,,,,,,,,,a,0,1.31321,"[""0.038"",""0.370"",""0.538"",""0.688""]","[1,0,1,1]",0,4,4,4,1,1,0,,,0,FALSE,,,,,,,,,,,,,,,,,,,,,,,,,,,,,,
,60390dd01c38de312b32bbae,001,2022-04-29_03h13.17.009,classification_task,2021.2.3,Win32,59.49193884,60390dd01c38de312b32bbae,626b377229c10585ec392f8a,626b3b7febcb71ef549e646f,,,,,,,,,,,,,,,,,,,,,,,a,1,3.589185,"[""0.894"",""0.449"",""0.849"",""0.931""]","[0,1,1,1]",0,5,5,5,1,0,0,,,0,FALSE,,,,,,,,,,,,,,,,,,,,,,,,,,,,,,
,60390dd01c38de312b32bbae,001,2022-04-29_03h13.17.009,classification_task,2021.2.3,Win32,59.49193884,60390dd01c38de312b32bbae,626b377229c10585ec392f8a,626b3b7febcb71ef549e646f,,,,,,,,,,,,,,,,,,,,,,,a,1,1.35727,"[""0.221"",""0.449"",""0.652"",""0.931""]","[1,1,0,1]",0,6,6,6,1,0,0,,,0,FALSE,,,,,,,,,,,,,,,,,,,,,,,,,,,,,,
,60390dd01c38de312b32bbae,001,2022-04-29_03h13.17.009,classification_task,2021.2.3,Win32,59.49193884,60390dd01c38de312b32bbae,626b377229c10585ec392f8a,626b3b7febcb71ef549e646f,,,,,,,,,,,,,,,,,,,,,,,l,1,1.14291,"[""0.371"",""0.148"",""0.538"",""0.688""]","[0,1,1,1]",0,7,7,7,1,1,0,,,0,FALSE,,,,,,,,,,,,,,,,,,,,,,,,,,,,,,
,60390dd01c38de312b32bbae,001,2022-04-29_03h13.17.009,classification_task,2021.2.3,Win32,59.49193884,60390dd01c38de312b32bbae,626b377229c10585ec392f8a,626b3b7febcb71ef549e646f,,,,,,,,,,,,,,,,,,,,,,,a,1,1.50937,"[""0.652"",""0.490"",""0.767"",""0.975""]","[0,1,1,1]",0,8,8,8,1,0,1,,,0,FALSE,,,,,,,,,,,,,,,,,,,,,,,,,,,,,,
,60390dd01c38de312b32bbae,001,2022-04-29_03h13.17.009,classification_task,2021.2.3,Win32,59.49193884,60390dd01c38de312b32bbae,626b377229c10585ec392f8a,626b3b7febcb71ef549e646f,,,,,,,,,,,,,,,,,,,,,,,l,1,1.572679999,"[""0.108"",""0.370"",""0.607"",""0.808""]","[1,0,1,1]",0,9,9,9,1,1,1,,,0,FALSE,,,,,,,,,,,,,,,,,,,,,,,,,,,,,,
,60390dd01c38de312b32bbae,001,2022-04-29_03h13.17.009,classification_task,2021.2.3,Win32,59.49193884,60390dd01c38de312b32bbae,626b377229c10585ec392f8a,626b3b7febcb71ef549e646f,,,,,,,,,,,,,,,,,,,,,,,l,1,1.712075001,"[""0.038"",""0.148"",""0.538"",""0.271""]","[1,1,1,0]",0,10,10,10,1,1,0,,,0,FALSE,,,,,,,,,,,,,,,,,,,,,,,,,,,,,,
,60390dd01c38de312b32bbae,001,2022-04-29_03h13.17.009,classification_task,2021.2.3,Win32,59.49193884,60390dd01c38de312b32bbae,626b377229c10585ec392f8a,626b3b7febcb71ef549e646f,,,,,,,,,,,,,,,,,,,,,,,l,0,1.842415,"[""0.316"",""0.490"",""0.767"",""0.652""]","[1,1,1,0]",0,11,11,11,1,0,1,,,0,FALSE,,,,,,,,,,,,,,,,,,,,,,,,,,,,,,
,60390dd01c38de312b32bbae,001,2022-04-29_03h13.17.009,classification_task,2021.2.3,Win32,59.49193884,60390dd01c38de312b32bbae,626b377229c10585ec392f8a,626b3b7febcb71ef549e646f,,,,,,,,,,,,,,,,,,,,,,,a,1,3.968915,"[""0.221"",""0.449"",""0.849"",""0.271""]","[1,1,1,0]",0,12,12,12,1,0,0,,,0,FALSE,,,,,,,,,,,,,,,,,,,,,,,,,,,,,,
,60390dd01c38de312b32bbae,001,2022-04-29_03h13.17.009,classification_task,2021.2.3,Win32,59.49193884,60390dd01c38de312b32bbae,626b377229c10585ec392f8a,626b3b7febcb71ef549e646f,,,,,,,,,,,,,,,,,,,,,,,a,1,1.8663,"[""0.316"",""0.728"",""0.767"",""0.975""]","[1,0,1,1]",0,13,13,13,1,0,1,,,0,FALSE,,,,,,,,,,,,,,,,,,,,,,,,,,,,,,
,60390dd01c38de312b32bbae,001,2022-04-29_03h13.17.009,classification_task,2021.2.3,Win32,59.49193884,60390dd01c38de312b32bbae,626b377229c10585ec392f8a,626b3b7febcb71ef549e646f,,,,,,,,,,,,,,,,,,,,,,,a,1,1.425035,"[""0.316"",""0.490"",""0.371"",""0.975""]","[1,1,0,1]",0,14,14,14,1,0,1,,,0,FALSE,,,,,,,,,,,,,,,,,,,,,,,,,,,,,,
,60390dd01c38de312b32bbae,001,2022-04-29_03h13.17.009,classification_task,2021.2.3,Win32,59.49193884,60390dd01c38de312b32bbae,626b377229c10585ec392f8a,626b3b7febcb71ef549e646f,,,,,,,,,,,,,,,,,,,,,,,l,0,3.306885,"[""0.221"",""0.649"",""0.849"",""0.931""]","[1,0,1,1]",0,15,15,15,1,0,0,,,0,FALSE,,,,,,,,,,,,,,,,,,,,,,,,,,,,,,
,60390dd01c38de312b32bbae,001,2022-04-29_03h13.17.009,classification_task,2021.2.3,Win32,59.49193884,60390dd01c38de312b32bbae,626b377229c10585ec392f8a,626b3b7febcb71ef549e646f,,,,,,,,,,,,,,,,,,,,,,,l,1,1.469660001,"[""0.108"",""0.649"",""0.607"",""0.808""]","[1,0,1,1]",0,16,16,16,1,1,1,,,0,FALSE,,,,,,,,,,,,,,,,,,,,,,,,,,,,,,
,60390dd01c38de312b32bbae,001,2022-04-29_03h13.17.009,classification_task,2021.2.3,Win32,59.49193884,60390dd01c38de312b32bbae,626b377229c10585ec392f8a,626b3b7febcb71ef549e646f,,,,,,,,,,,,,,,,,,,,,,,l,1,1.05117,"[""0.370"",""0.148"",""0.538"",""0.688""]","[0,1,1,1]",0,17,17,17,1,1,0,,,0,FALSE,,,,,,,,,,,,,,,,,,,,,,,,,,,,,,
,60390dd01c38de312b32bbae,001,2022-04-29_03h13.17.009,classification_task,2021.2.3,Win32,59.49193884,60390dd01c38de312b32bbae,626b377229c10585ec392f8a,626b3b7febcb71ef549e646f,,,,,,,,,,,,,,,,,,,,,,,a,0,2.13977,"[""0.271"",""0.410"",""0.607"",""0.808""]","[0,1,1,1]",0,18,18,18,1,1,1,,,0,FALSE,,,,,,,,,,,,,,,,,,,,,,,,,,,,,,
,60390dd01c38de312b32bbae,001,2022-04-29_03h13.17.009,classification_task,2021.2.3,Win32,59.49193884,60390dd01c38de312b32bbae,626b377229c10585ec392f8a,626b3b7febcb71ef549e646f,,,,,,,,,,,,,,,,,,,,,,,l,1,0.86842,"[""0.038"",""0.148"",""0.538"",""0.075""]","[1,1,1,0]",0,19,19,19,1,1,0,,,0,FALSE,,,,,,,,,,,,,,,,,,,,,,,,,,,,,,
,60390dd01c38de312b32bbae,001,2022-04-29_03h13.17.009,classification_task,2021.2.3,Win32,59.49193884,60390dd01c38de312b32bbae,626b377229c10585ec392f8a,626b3b7febcb71ef549e646f,,,,,,,,,,,,,,,,,,,,,,,a,1,1.64365,"[""0.221"",""0.449"",""0.849"",""0.362""]","[1,1,1,0]",0,20,20,20,1,0,0,,,0,FALSE,,,,,,,,,,,,,,,,,,,,,,,,,,,,,,
,60390dd01c38de312b32bbae,001,2022-04-29_03h13.17.009,classification_task,2021.2.3,Win32,59.49193884,60390dd01c38de312b32bbae,626b377229c10585ec392f8a,626b3b7febcb71ef549e646f,,,,,,,,,,,,,,,,,,,,,,,l,0,2.27102,"[""0.316"",""0.653"",""0.767"",""0.975""]","[1,0,1,1]",0,21,21,21,1,0,1,,,0,FALSE,,,,,,,,,,,,,,,,,,,,,,,,,,,,,,
,60390dd01c38de312b32bbae,001,2022-04-29_03h13.17.009,classification_task,2021.2.3,Win32,59.49193884,60390dd01c38de312b32bbae,626b377229c10585ec392f8a,626b3b7febcb71ef549e646f,,,,,,,,,,,,,,,,,,,,,,,a,1,1.511185,"[""0.316"",""0.490"",""0.767"",""0.894""]","[1,1,1,0]",0,22,22,22,1,0,1,,,0,FALSE,,,,,,,,,,,,,,,,,,,,,,,,,,,,,,
,60390dd01c38de312b32bbae,001,2022-04-29_03h13.17.009,classification_task,2021.2.3,Win32,59.49193884,60390dd01c38de312b32bbae,626b377229c10585ec392f8a,626b3b7febcb71ef549e646f,,,,,,,,,,,,,,,,,,,,,,,l,1,1.514905,"[""0.108"",""0.410"",""0.653"",""0.808""]","[1,1,0,1]",0,23,23,23,1,1,1,,,0,FALSE,,,,,,,,,,,,,,,,,,,,,,,,,,,,,,
,60390dd01c38de312b32bbae,001,2022-04-29_03h13.17.009,classification_task,2021.2.3,Win32,59.49193884,60390dd01c38de312b32bbae,626b377229c10585ec392f8a,626b3b7febcb71ef549e646f,,,,,,,,,,,,,,,,,,,,,,,a,0,1.303655,"[""0.108"",""0.410"",""0.607"",""0.370""]","[1,1,1,0]",0,24,24,24,1,1,1,,,0,FALSE,,,,,,,,,,,,,,,,,,,,,,,,,,,,,,
,60390dd01c38de312b32bbae,001,2022-04-29_03h13.17.009,classification_task,2021.2.3,Win32,59.49193884,60390dd01c38de312b32bbae,626b377229c10585ec392f8a,626b3b7febcb71ef549e646f,,,,,,,,,,,,,,,,,,,,,,,a,1,1.36076,"[""0.316"",""0.490"",""0.654"",""0.975""]","[1,1,0,1]",0,25,25,25,1,0,1,,,0,FALSE,,,,,,,,,,,,,,,,,,,,,,,,,,,,,,
,60390dd01c38de312b32bbae,001,2022-04-29_03h13.17.009,classification_task,2021.2.3,Win32,59.49193884,60390dd01c38de312b32bbae,626b377229c10585ec392f8a,626b3b7febcb71ef549e646f,,,,,,,,,,,,,,,,,,,,,,,a,1,2.302015,"[""0.221"",""0.261"",""0.849"",""0.931""]","[1,0,1,1]",0,26,26,26,1,0,0,,,0,FALSE,,,,,,,,,,,,,,,,,,,,,,,,,,,,,,
,60390dd01c38de312b32bbae,001,2022-04-29_03h13.17.009,classification_task,2021.2.3,Win32,59.49193884,60390dd01c38de312b32bbae,626b377229c10585ec392f8a,626b3b7febcb71ef549e646f,,,,,,,,,,,,,,,,,,,,,,,l,1,0.627505001,"[""0.038"",""0.886"",""0.538"",""0.688""]","[1,0,1,1]",0,27,27,27,1,1,0,,,0,FALSE,,,,,,,,,,,,,,,,,,,,,,,,,,,,,,
,60390dd01c38de312b32bbae,001,2022-04-29_03h13.17.009,classification_task,2021.2.3,Win32,59.49193884,60390dd01c38de312b32bbae,626b377229c10585ec392f8a,626b3b7febcb71ef549e646f,,,,,,,,,,,,,,,,,,,,,,,a,1,2.11255,"[""0.653"",""0.490"",""0.767"",""0.975""]","[0,1,1,1]",0,28,28,28,1,0,1,,,0,FALSE,,,,,,,,,,,,,,,,,,,,,,,,,,,,,,
,60390dd01c38de312b32bbae,001,2022-04-29_03h13.17.009,classification_task,2021.2.3,Win32,59.49193884,60390dd01c38de312b32bbae,626b377229c10585ec392f8a,626b3b7febcb71ef549e646f,,,,,,,,,,,,,,,,,,,,,,,a,1,2.042579999,"[""0.261"",""0.449"",""0.849"",""0.931""]","[0,1,1,1]",0,29,29,29,1,0,0,,,0,FALSE,,,,,,,,,,,,,,,,,,,,,,,,,,,,,,
,60390dd01c38de312b32bbae,001,2022-04-29_03h13.17.009,classification_task,2021.2.3,Win32,59.49193884,60390dd01c38de312b32bbae,626b377229c10585ec392f8a,626b3b7febcb71ef549e646f,,,,,,,,,,,,,,,,,,,,,,,l,1,0.804935001,"[""0.038"",""0.148"",""0.258"",""0.688""]","[1,1,0,1]",0,30,30,30,1,1,0,,,0,FALSE,,,,,,,,,,,,,,,,,,,,,,,,,,,,,,
,60390dd01c38de312b32bbae,001,2022-04-29_03h13.17.009,classification_task,2021.2.3,Win32,59.49193884,60390dd01c38de312b32bbae,626b377229c10585ec392f8a,626b3b7febcb71ef549e646f,,,,,,,,,,,,,,,,,,,,,,,a,1,1.083055,"[""0.221"",""0.449"",""0.261"",""0.931""]","[1,1,0,1]",0,31,31,31,1,0,0,,,0,FALSE,,,,,,,,,,,,,,,,,,,,,,,,,,,,,,
,60390dd01c38de312b32bbae,001,2022-04-29_03h13.17.009,classification_task,2021.2.3,Win32,59.49193884,60390dd01c38de312b32bbae,626b377229c10585ec392f8a,626b3b7febcb71ef549e646f,,,,,,,,,,,,,,,,,,,,,,,a,1,0.77348,"[""0.649"",""0.449"",""0.849"",""0.931""]","[0,1,1,1]",0,32,32,32,1,0,0,,,0,FALSE,,,,,,,,,,,,,,,,,,,,,,,,,,,,,,
,60390dd01c38de312b32bbae,001,2022-04-29_03h13.17.009,classification_task,2021.2.3,Win32,59.49193884,60390dd01c38de312b32bbae,626b377229c10585ec392f8a,626b3b7febcb71ef549e646f,,,,,,,,,,,,,,,,,,,,,,,a,1,1.787,"[""0.316"",""0.654"",""0.767"",""0.975""]","[1,0,1,1]",0,33,33,33,1,0,1,,,0,FALSE,,,,,,,,,,,,,,,,,,,,,,,,,,,,,,
,60390dd01c38de312b32bbae,001,2022-04-29_03h13.17.009,classification_task,2021.2.3,Win32,59.49193884,60390dd01c38de312b32bbae,626b377229c10585ec392f8a,626b3b7febcb71ef549e646f,,,,,,,,,,,,,,,,,,,,,,,a,0,0.727159999,"[""0.271"",""0.410"",""0.607"",""0.808""]","[0,1,1,1]",0,34,34,34,1,1,1,,,0,FALSE,,,,,,,,,,,,,,,,,,,,,,,,,,,,,,
,60390dd01c38de312b32bbae,001,2022-04-29_03h13.17.009,classification_task,2021.2.3,Win32,59.49193884,60390dd01c38de312b32bbae,626b377229c10585ec392f8a,626b3b7febcb71ef549e646f,,,,,,,,,,,,,,,,,,,,,,,a,1,1.024305,"[""0.316"",""0.490"",""0.767"",""0.652""]","[1,1,1,0]",0,35,35,35,1,0,1,,,0,FALSE,,,,,,,,,,,,,,,,,,,,,,,,,,,,,,
,60390dd01c38de312b32bbae,001,2022-04-29_03h13.17.009,classification_task,2021.2.3,Win32,59.49193884,60390dd01c38de312b32bbae,626b377229c10585ec392f8a,626b3b7febcb71ef549e646f,,,,,,,,,,,,,,,,,,,,,,,l,1,0.774364999,"[""0.038"",""0.148"",""0.538"",""0.653""]","[1,1,1,0]",0,36,36,36,1,1,0,,,0,FALSE,,,,,,,,,,,,,,,,,,,,,,,,,,,,,,
,60390dd01c38de312b32bbae,001,2022-04-29_03h13.17.009,classification_task,2021.2.3,Win32,59.49193884,60390dd01c38de312b32bbae,626b377229c10585ec392f8a,626b3b7febcb71ef549e646f,,,,,,,,,,,,,,,,,,,,,,,a,1,1.074215,"[""0.221"",""0.449"",""0.649"",""0.931""]","[1,1,0,1]",0,37,37,37,1,0,0,,,0,FALSE,,,,,,,,,,,,,,,,,,,,,,,,,,,,,,
,60390dd01c38de312b32bbae,001,2022-04-29_03h13.17.009,classification_task,2021.2.3,Win32,59.49193884,60390dd01c38de312b32bbae,626b377229c10585ec392f8a,626b3b7febcb71ef549e646f,,,,,,,,,,,,,,,,,,,,,,,a,0,1.665465,"[""0.108"",""0.649"",""0.607"",""0.808""]","[1,0,1,1]",0,38,38,38,1,1,1,,,0,FALSE,,,,,,,,,,,,,,,,,,,,,,,,,,,,,,
,60390dd01c38de312b32bbae,001,2022-04-29_03h13.17.009,classification_task,2021.2.3,Win32,59.49193884,60390dd01c38de312b32bbae,626b377229c10585ec392f8a,626b3b7febcb71ef549e646f,,,,,,,,,,,,,,,,,,,,,,,l,1,0.7924,"[""0.261"",""0.148"",""0.538"",""0.688""]","[0,1,1,1]",0,39,39,39,1,1,0,,,0,FALSE,,,,,,,,,,,,,,,,,,,,,,,,,,,,,,
,60390dd01c38de312b32bbae,001,2022-04-29_03h13.17.009,classification_task,2021.2.3,Win32,59.49193884,60390dd01c38de312b32bbae,626b377229c10585ec392f8a,626b3b7febcb71ef549e646f,,,,,,,,,,,,,,,,,,,,,,,a,1,1.050335,"[""0.221"",""0.271"",""0.849"",""0.931""]","[1,0,1,1]",0,40,40,40,1,0,0,,,0,FALSE,,,,,,,,,,,,,,,,,,,,,,,,,,,,,,
,60390dd01c38de312b32bbae,001,2022-04-29_03h13.17.009,classification_task,2021.2.3,Win32,59.49193884,60390dd01c38de312b32bbae,626b377229c10585ec392f8a,626b3b7febcb71ef549e646f,,,,,,,,,,,,,,,,,,,,,,,l,1,0.735615,"[""0.038"",""0.148"",""0.649"",""0.688""]","[1,1,0,1]",0,41,41,41,1,1,0,,,0,FALSE,,,,,,,,,,,,,,,,,,,,,,,,,,,,,,
,60390dd01c38de312b32bbae,001,2022-04-29_03h13.17.009,classification_task,2021.2.3,Win32,59.49193884,60390dd01c38de312b32bbae,626b377229c10585ec392f8a,626b3b7febcb71ef549e646f,,,,,,,,,,,,,,,,,,,,,,,l,1,1.782505,"[""0.108"",""0.410"",""0.607"",""0.258""]","[1,1,1,0]",0,42,42,42,1,1,1,,,0,FALSE,,,,,,,,,,,,,,,,,,,,,,,,,,,,,,
,60390dd01c38de312b32bbae,001,2022-04-29_03h13.17.009,classification_task,2021.2.3,Win32,59.49193884,60390dd01c38de312b32bbae,626b377229c10585ec392f8a,626b3b7febcb71ef549e646f,,,,,,,,,,,,,,,,,,,,,,,a,0,0.784225,"[""0.038"",""0.075"",""0.538"",""0.688""]","[1,0,1,1]",0,43,43,43,1,1,0,,,0,FALSE,,,,,,,,,,,,,,,,,,,,,,,,,,,,,,
,60390dd01c38de312b32bbae,001,2022-04-29_03h13.17.009,classification_task,2021.2.3,Win32,59.49193884,60390dd01c38de312b32bbae,626b377229c10585ec392f8a,626b3b7febcb71ef549e646f,,,,,,,,,,,,,,,,,,,,,,,l,1,2.16726,"[""0.108"",""0.410"",""0.271"",""0.808""]","[1,1,0,1]",0,44,44,44,1,1,1,,,0,FALSE,,,,,,,,,,,,,,,,,,,,,,,,,,,,,,
,60390dd01c38de312b32bbae,001,2022-04-29_03h13.17.009,classification_task,2021.2.3,Win32,59.49193884,60390dd01c38de312b32bbae,626b377229c10585ec392f8a,626b3b7febcb71ef549e646f,,,,,,,,,,,,,,,,,,,,,,,a,1,1.10565,"[""0.221"",""0.449"",""0.849"",""0.261""]","[1,1,1,0]",0,45,45,45,1,0,0,,,0,FALSE,,,,,,,,,,,,,,,,,,,,,,,,,,,,,,
,60390dd01c38de312b32bbae,001,2022-04-29_03h13.17.009,classification_task,2021.2.3,Win32,59.49193884,60390dd01c38de312b32bbae,626b377229c10585ec392f8a,626b3b7febcb71ef549e646f,,,,,,,,,,,,,,,,,,,,,,,l,0,1.68067,"[""0.316"",""0.490"",""0.653"",""0.975""]","[1,1,0,1]",0,46,46,46,1,0,1,,,0,FALSE,,,,,,,,,,,,,,,,,,,,,,,,,,,,,,
,60390dd01c38de312b32bbae,001,2022-04-29_03h13.17.009,classification_task,2021.2.3,Win32,59.49193884,60390dd01c38de312b32bbae,626b377229c10585ec392f8a,626b3b7febcb71ef549e646f,,,,,,,,,,,,,,,,,,,,,,,l,0,1.401570001,"[""0.370"",""0.490"",""0.767"",""0.975""]","[0,1,1,1]",0,47,47,47,1,0,1,,,0,FALSE,,,,,,,,,,,,,,,,,,,,,,,,,,,,,,
,60390dd01c38de312b32bbae,001,2022-04-29_03h13.17.009,classification_task,2021.2.3,Win32,59.49193884,60390dd01c38de312b32bbae,626b377229c10585ec392f8a,626b3b7febcb71ef549e646f,,,,,,,,,,,,,,,,,,,,,,,l,1,0.938055,"[""0.108"",""0.410"",""0.258"",""0.808""]","[1,1,0,1]",0,48,48,48,1,1,1,,,0,FALSE,,,,,,,,,,,,,,,,,,,,,,,,,,,,,,
,60390dd01c38de312b32bbae,001,2022-04-29_03h13.17.009,classification_task,2021.2.3,Win32,59.49193884,60390dd01c38de312b32bbae,626b377229c10585ec392f8a,626b3b7febcb71ef549e646f,,,,,,,,,,,,,,,,,,,,,,,l,1,0.736775,"[""0.038"",""0.148"",""0.649"",""0.688""]","[1,1,0,1]",0,49,49,49,1,1,0,,,0,FALSE,,,,,,,,,,,,,,,,,,,,,,,,,,,,,,
,60390dd01c38de312b32bbae,001,2022-04-29_03h13.17.009,classification_task,2021.2.3,Win32,59.49193884,60390dd01c38de312b32bbae,626b377229c10585ec392f8a,626b3b7febcb71ef549e646f,,,,,,,,,,,,,,,,,,,,,,,a,1,1.48261,"[""0.075"",""0.490"",""0.767"",""0.975""]","[0,1,1,1]",0,50,50,50,1,0,1,,,0,FALSE,,,,,,,,,,,,,,,,,,,,,,,,,,,,,,
,60390dd01c38de312b32bbae,001,2022-04-29_03h13.17.009,classification_task,2021.2.3,Win32,59.49193884,60390dd01c38de312b32bbae,626b377229c10585ec392f8a,626b3b7febcb71ef549e646f,,,,,,,,,,,,,,,,,,,,,,,l,1,0.671089999,"[""0.038"",""0.258"",""0.538"",""0.688""]","[1,0,1,1]",0,51,51,51,1,1,0,,,0,FALSE,,,,,,,,,,,,,,,,,,,,,,,,,,,,,,
,60390dd01c38de312b32bbae,001,2022-04-29_03h13.17.009,classification_task,2021.2.3,Win32,59.49193884,60390dd01c38de312b32bbae,626b377229c10585ec392f8a,626b3b7febcb71ef549e646f,,,,,,,,,,,,,,,,,,,,,,,a,1,1.61393,"[""0.316"",""0.490"",""0.767"",""0.371""]","[1,1,1,0]",0,52,52,52,1,0,1,,,0,FALSE,,,,,,,,,,,,,,,,,,,,,,,,,,,,,,
,60390dd01c38de312b32bbae,001,2022-04-29_03h13.17.009,classification_task,2021.2.3,Win32,59.49193884,60390dd01c38de312b32bbae,626b377229c10585ec392f8a,626b3b7febcb71ef549e646f,,,,,,,,,,,,,,,,,,,,,,,a,0,0.922025,"[""0.258"",""0.410"",""0.607"",""0.808""]","[0,1,1,1]",0,53,53,53,1,1,1,,,0,FALSE,,,,,,,,,,,,,,,,,,,,,,,,,,,,,,
,60390dd01c38de312b32bbae,001,2022-04-29_03h13.17.009,classification_task,2021.2.3,Win32,59.49193884,60390dd01c38de312b32bbae,626b377229c10585ec392f8a,626b3b7febcb71ef549e646f,,,,,,,,,,,,,,,,,,,,,,,l,0,1.053015,"[""0.261"",""0.449"",""0.849"",""0.931""]","[0,1,1,1]",0,54,54,54,1,0,0,,,0,FALSE,,,,,,,,,,,,,,,,,,,,,,,,,,,,,,
,60390dd01c38de312b32bbae,001,2022-04-29_03h13.17.009,classification_task,2021.2.3,Win32,59.49193884,60390dd01c38de312b32bbae,626b377229c10585ec392f8a,626b3b7febcb71ef549e646f,,,,,,,,,,,,,,,,,,,,,,,l,1,0.827620001,"[""0.652"",""0.148"",""0.538"",""0.688""]","[0,1,1,1]",0,55,55,55,1,1,0,,,0,FALSE,,,,,,,,,,,,,,,,,,,,,,,,,,,,,,
,60390dd01c38de312b32bbae,001,2022-04-29_03h13.17.009,classification_task,2021.2.3,Win32,59.49193884,60390dd01c38de312b32bbae,626b377229c10585ec392f8a,626b3b7febcb71ef549e646f,,,,,,,,,,,,,,,,,,,,,,,a,1,1.524759999,"[""0.221"",""0.449"",""0.849"",""0.261""]","[1,1,1,0]",0,56,56,56,1,0,0,,,0,FALSE,,,,,,,,,,,,,,,,,,,,,,,,,,,,,,
,60390dd01c38de312b32bbae,001,2022-04-29_03h13.17.009,classification_task,2021.2.3,Win32,59.49193884,60390dd01c38de312b32bbae,626b377229c10585ec392f8a,626b3b7febcb71ef549e646f,,,,,,,,,,,,,,,,,,,,,,,a,1,1.89894,"[""0.316"",""0.490"",""0.653"",""0.975""]","[1,1,0,1]",0,57,57,57,1,0,1,,,0,FALSE,,,,,,,,,,,,,,,,,,,,,,,,,,,,,,
,60390dd01c38de312b32bbae,001,2022-04-29_03h13.17.009,classification_task,2021.2.3,Win32,59.49193884,60390dd01c38de312b32bbae,626b377229c10585ec392f8a,626b3b7febcb71ef549e646f,,,,,,,,,,,,,,,,,,,,,,,l,1,0.725595,"[""0.038"",""0.148"",""0.538"",""0.261""]","[1,1,1,0]",0,58,58,58,1,1,0,,,0,FALSE,,,,,,,,,,,,,,,,,,,,,,,,,,,,,,
,60390dd01c38de312b32bbae,001,2022-04-29_03h13.17.009,classification_task,2021.2.3,Win32,59.49193884,60390dd01c38de312b32bbae,626b377229c10585ec392f8a,626b3b7febcb71ef549e646f,,,,,,,,,,,,,,,,,,,,,,,a,0,0.93677,"[""0.108"",""0.410"",""0.607"",""0.258""]","[1,1,1,0]",0,59,59,59,1,1,1,,,0,FALSE,,,,,,,,,,,,,,,,,,,,,,,,,,,,,,
,60390dd01c38de312b32bbae,001,2022-04-29_03h13.17.009,classification_task,2021.2.3,Win32,59.49193884,60390dd01c38de312b32bbae,626b377229c10585ec392f8a,626b3b7febcb71ef549e646f,,,,,,,,,,,,,,,,,,,,,,,a,1,1.324969999,"[""0.221"",""0.362"",""0.849"",""0.931""]","[1,0,1,1]",0,60,60,60,1,0,0,,,0,FALSE,,,,,,,,,,,,,,,,,,,,,,,,,,,,,,
,60390dd01c38de312b32bbae,001,2022-04-29_03h13.17.009,classification_task,2021.2.3,Win32,59.49193884,60390dd01c38de312b32bbae,626b377229c10585ec392f8a,626b3b7febcb71ef549e646f,,,,,,,,,,,,,,,,,,,,,,,a,1,0.638215,"[""0.221"",""0.449"",""0.271"",""0.931""]","[1,1,0,1]",0,61,61,61,1,0,0,,,0,FALSE,,,,,,,,,,,,,,,,,,,,,,,,,,,,,,
,60390dd01c38de312b32bbae,001,2022-04-29_03h13.17.009,classification_task,2021.2.3,Win32,59.49193884,60390dd01c38de312b32bbae,626b377229c10585ec392f8a,626b3b7febcb71ef549e646f,,,,,,,,,,,,,,,,,,,,,,,l,0,2.04838,"[""0.316"",""0.654"",""0.767"",""0.975""]","[1,0,1,1]",0,62,62,62,1,0,1,,,0,FALSE,,,,,,,,,,,,,,,,,,,,,,,,,,,,,,
,60390dd01c38de312b32bbae,001,2022-04-29_03h13.17.009,classification_task,2021.2.3,Win32,59.49193884,60390dd01c38de312b32bbae,626b377229c10585ec392f8a,626b3b7febcb71ef549e646f,,,,,,,,,,,,,,,,,,,,,,,a,0,1.153779999,"[""0.108"",""0.261"",""0.607"",""0.808""]","[1,0,1,1]",0,63,63,63,1,1,1,,,0,FALSE,,,,,,,,,,,,,,,,,,,,,,,,,,,,,,
,60390dd01c38de312b32bbae,001,2022-04-29_03h13.17.009,classification_task,2021.2.3,Win32,59.49193884,60390dd01c38de312b32bbae,626b377229c10585ec392f8a,626b3b7febcb71ef549e646f,,,,,,,,,,,,,,,,,,,,,,,,,,,,,,,,,,,,,,,0, ,,0,4.690458678,187.307935,0,1,1,1,1,2,2,,,,,,,,,,,,,,,,,
,60390dd01c38de312b32bbae,001,2022-04-29_03h13.17.009,classification_task,2021.2.3,Win32,59.49193884,60390dd01c38de312b32bbae,626b377229c10585ec392f8a,626b3b7febcb71ef549e646f,,,,,,,,,,,,,,,,,,,,,,,,,,,,,,,,,,,,,,,1,  ,,0,9.747941503,190.017595,0,1,1,1,1,2,2,,,,,,,,,,,,,,,,,
,60390dd01c38de312b32bbae,001,2022-04-29_03h13.17.009,classification_task,2021.2.3,Win32,59.49193884,60390dd01c38de312b32bbae,626b377229c10585ec392f8a,626b3b7febcb71ef549e646f,,,,,,,,,,,,,,,,,,,,,,,,,,,,,,,,,,,,,,,2,  ,,0,7.716982409,194.137285,0,1,1,1,1,2,2,,,,,,,,,,,,,,,,,
,60390dd01c38de312b32bbae,001,2022-04-29_03h13.17.009,classification_task,2021.2.3,Win32,59.49193884,60390dd01c38de312b32bbae,626b377229c10585ec392f8a,626b3b7febcb71ef549e646f,,,,,,,,,,,,,,,,,,,,,,,,,,,,,,,,,,,,,,,,,,,,,0,1,1,1,1,,2,,,,,,,,,,,,,,,,,
,60390dd01c38de312b32bbae,001,2022-04-29_03h13.17.009,classification_task,2021.2.3,Win32,59.49193884,60390dd01c38de312b32bbae,626b377229c10585ec392f8a,626b3b7febcb71ef549e646f,,,,,,,,,,,,,,,,,,,,,space,9.47578,a,0,1.736235,"[""0.886"",""0.148"",""0.538"",""0.688""]","[0,1,1,1]",0,0,0,0,1,1,0,,,0,FALSE,,,,,,,,,,,,,,,,,,,,,,,,,,,,,,
,60390dd01c38de312b32bbae,001,2022-04-29_03h13.17.009,classification_task,2021.2.3,Win32,59.49193884,60390dd01c38de312b32bbae,626b377229c10585ec392f8a,626b3b7febcb71ef549e646f,,,,,,,,,,,,,,,,,,,,,,,a,0,1.110455,"[""0.108"",""0.261"",""0.607"",""0.808""]","[1,0,1,1]",0,1,1,1,1,1,1,,,0,FALSE,,,,,,,,,,,,,,,,,,,,,,,,,,,,,,
,60390dd01c38de312b32bbae,001,2022-04-29_03h13.17.009,classification_task,2021.2.3,Win32,59.49193884,60390dd01c38de312b32bbae,626b377229c10585ec392f8a,626b3b7febcb71ef549e646f,,,,,,,,,,,,,,,,,,,,,,,a,0,0.91262,"[""0.038"",""0.148"",""0.538"",""0.652""]","[1,1,1,0]",0,2,2,2,1,1,0,,,0,FALSE,,,,,,,,,,,,,,,,,,,,,,,,,,,,,,
,60390dd01c38de312b32bbae,001,2022-04-29_03h13.17.009,classification_task,2021.2.3,Win32,59.49193884,60390dd01c38de312b32bbae,626b377229c10585ec392f8a,626b3b7febcb71ef549e646f,,,,,,,,,,,,,,,,,,,,,,,l,0,0.848125,"[""0.316"",""0.490"",""0.894"",""0.975""]","[1,1,0,1]",0,3,3,3,1,0,1,,,0,FALSE,,,,,,,,,,,,,,,,,,,,,,,,,,,,,,
,60390dd01c38de312b32bbae,001,2022-04-29_03h13.17.009,classification_task,2021.2.3,Win32,59.49193884,60390dd01c38de312b32bbae,626b377229c10585ec392f8a,626b3b7febcb71ef549e646f,,,,,,,,,,,,,,,,,,,,,,,l,0,0.702345001,"[""0.653"",""0.490"",""0.767"",""0.975""]","[0,1,1,1]",0,4,4,4,1,0,1,,,0,FALSE,,,,,,,,,,,,,,,,,,,,,,,,,,,,,,
,60390dd01c38de312b32bbae,001,2022-04-29_03h13.17.009,classification_task,2021.2.3,Win32,59.49193884,60390dd01c38de312b32bbae,626b377229c10585ec392f8a,626b3b7febcb71ef549e646f,,,,,,,,,,,,,,,,,,,,,,,l,0,2.12106,"[""0.221"",""0.449"",""0.849"",""0.258""]","[1,1,1,0]",0,5,5,5,1,0,0,,,0,FALSE,,,,,,,,,,,,,,,,,,,,,,,,,,,,,,
,60390dd01c38de312b32bbae,001,2022-04-29_03h13.17.009,classification_task,2021.2.3,Win32,59.49193884,60390dd01c38de312b32bbae,626b377229c10585ec392f8a,626b3b7febcb71ef549e646f,,,,,,,,,,,,,,,,,,,,,,,a,0,0.833755,"[""0.038"",""0.148"",""0.886"",""0.688""]","[1,1,0,1]",0,6,6,6,1,1,0,,,0,FALSE,,,,,,,,,,,,,,,,,,,,,,,,,,,,,,
,60390dd01c38de312b32bbae,001,2022-04-29_03h13.17.009,classification_task,2021.2.3,Win32,59.49193884,60390dd01c38de312b32bbae,626b377229c10585ec392f8a,626b3b7febcb71ef549e646f,,,,,,,,,,,,,,,,,,,,,,,l,0,1.061480001,"[""0.221"",""0.371"",""0.849"",""0.931""]","[1,0,1,1]",0,7,7,7,1,0,0,,,0,FALSE,,,,,,,,,,,,,,,,,,,,,,,,,,,,,,
,60390dd01c38de312b32bbae,001,2022-04-29_03h13.17.009,classification_task,2021.2.3,Win32,59.49193884,60390dd01c38de312b32bbae,626b377229c10585ec392f8a,626b3b7febcb71ef549e646f,,,,,,,,,,,,,,,,,,,,,,,l,1,1.378735,"[""0.108"",""0.410"",""0.370"",""0.808""]","[1,1,0,1]",0,8,8,8,1,1,1,,,0,FALSE,,,,,,,,,,,,,,,,,,,,,,,,,,,,,,
,60390dd01c38de312b32bbae,001,2022-04-29_03h13.17.009,classification_task,2021.2.3,Win32,59.49193884,60390dd01c38de312b32bbae,626b377229c10585ec392f8a,626b3b7febcb71ef549e646f,,,,,,,,,,,,,,,,,,,,,,,a,0,1.04349,"[""0.108"",""0.410"",""0.607"",""0.075""]","[1,1,1,0]",0,9,9,9,1,1,1,,,0,FALSE,,,,,,,,,,,,,,,,,,,,,,,,,,,,,,
,60390dd01c38de312b32bbae,001,2022-04-29_03h13.17.009,classification_task,2021.2.3,Win32,59.49193884,60390dd01c38de312b32bbae,626b377229c10585ec392f8a,626b3b7febcb71ef549e646f,,,,,,,,,,,,,,,,,,,,,,,l,0,0.745440001,"[""0.316"",""0.490"",""0.767"",""0.649""]","[1,1,1,0]",0,10,10,10,1,0,1,,,0,FALSE,,,,,,,,,,,,,,,,,,,,,,,,,,,,,,
,60390dd01c38de312b32bbae,001,2022-04-29_03h13.17.009,classification_task,2021.2.3,Win32,59.49193884,60390dd01c38de312b32bbae,626b377229c10585ec392f8a,626b3b7febcb71ef549e646f,,,,,,,,,,,,,,,,,,,,,,,l,0,0.84227,"[""0.221"",""0.449"",""0.371"",""0.931""]","[1,1,0,1]",0,11,11,11,1,0,0,,,0,FALSE,,,,,,,,,,,,,,,,,,,,,,,,,,,,,,
,60390dd01c38de312b32bbae,001,2022-04-29_03h13.17.009,classification_task,2021.2.3,Win32,59.49193884,60390dd01c38de312b32bbae,626b377229c10585ec392f8a,626b3b7febcb71ef549e646f,,,,,,,,,,,,,,,,,,,,,,,a,1,0.699485,"[""0.316"",""0.075"",""0.767"",""0.975""]","[1,0,1,1]",0,12,12,12,1,0,1,,,0,FALSE,,,,,,,,,,,,,,,,,,,,,,,,,,,,,,
,60390dd01c38de312b32bbae,001,2022-04-29_03h13.17.009,classification_task,2021.2.3,Win32,59.49193884,60390dd01c38de312b32bbae,626b377229c10585ec392f8a,626b3b7febcb71ef549e646f,,,,,,,,,,,,,,,,,,,,,,,a,1,0.733585,"[""0.075"",""0.449"",""0.849"",""0.931""]","[0,1,1,1]",0,13,13,13,1,0,0,,,0,FALSE,,,,,,,,,,,,,,,,,,,,,,,,,,,,,,
,60390dd01c38de312b32bbae,001,2022-04-29_03h13.17.009,classification_task,2021.2.3,Win32,59.49193884,60390dd01c38de312b32bbae,626b377229c10585ec392f8a,626b3b7febcb71ef549e646f,,,,,,,,,,,,,,,,,,,,,,,a,0,0.601275,"[""0.038"",""0.271"",""0.538"",""0.688""]","[1,0,1,1]",0,14,14,14,1,1,0,,,0,FALSE,,,,,,,,,,,,,,,,,,,,,,,,,,,,,,
,60390dd01c38de312b32bbae,001,2022-04-29_03h13.17.009,classification_task,2021.2.3,Win32,59.49193884,60390dd01c38de312b32bbae,626b377229c10585ec392f8a,626b3b7febcb71ef549e646f,,,,,,,,,,,,,,,,,,,,,,,l,1,0.66196,"[""0.371"",""0.410"",""0.607"",""0.808""]","[0,1,1,1]",0,15,15,15,1,1,1,,,0,FALSE,,,,,,,,,,,,,,,,,,,,,,,,,,,,,,
,60390dd01c38de312b32bbae,001,2022-04-29_03h13.17.009,classification_task,2021.2.3,Win32,59.49193884,60390dd01c38de312b32bbae,626b377229c10585ec392f8a,626b3b7febcb71ef549e646f,,,,,,,,,,,,,,,,,,,,,,,a,0,0.63783,"[""0.038"",""0.148"",""0.538"",""0.371""]","[1,1,1,0]",0,16,16,16,1,1,0,,,0,FALSE,,,,,,,,,,,,,,,,,,,,,,,,,,,,,,
,60390dd01c38de312b32bbae,001,2022-04-29_03h13.17.009,classification_task,2021.2.3,Win32,59.49193884,60390dd01c38de312b32bbae,626b377229c10585ec392f8a,626b3b7febcb71ef549e646f,,,,,,,,,,,,,,,,,,,,,,,l,0,0.47066,"[""0.316"",""0.490"",""0.649"",""0.975""]","[1,1,0,1]",0,17,17,17,1,0,1,,,0,FALSE,,,,,,,,,,,,,,,,,,,,,,,,,,,,,,
,60390dd01c38de312b32bbae,001,2022-04-29_03h13.17.009,classification_task,2021.2.3,Win32,59.49193884,60390dd01c38de312b32bbae,626b377229c10585ec392f8a,626b3b7febcb71ef549e646f,,,,,,,,,,,,,,,,,,,,,,,l,1,0.81727,"[""0.654"",""0.410"",""0.607"",""0.808""]","[0,1,1,1]",0,18,18,18,1,1,1,,,0,FALSE,,,,,,,,,,,,,,,,,,,,,,,,,,,,,,
,60390dd01c38de312b32bbae,001,2022-04-29_03h13.17.009,classification_task,2021.2.3,Win32,59.49193884,60390dd01c38de312b32bbae,626b377229c10585ec392f8a,626b3b7febcb71ef549e646f,,,,,,,,,,,,,,,,,,,,,,,a,0,0.754790001,"[""0.370"",""0.148"",""0.538"",""0.688""]","[0,1,1,1]",0,19,19,19,1,1,0,,,0,FALSE,,,,,,,,,,,,,,,,,,,,,,,,,,,,,,
,60390dd01c38de312b32bbae,001,2022-04-29_03h13.17.009,classification_task,2021.2.3,Win32,59.49193884,60390dd01c38de312b32bbae,626b377229c10585ec392f8a,626b3b7febcb71ef549e646f,,,,,,,,,,,,,,,,,,,,,,,a,0,0.799935,"[""0.038"",""0.271"",""0.538"",""0.688""]","[1,0,1,1]",0,20,20,20,1,1,0,,,0,FALSE,,,,,,,,,,,,,,,,,,,,,,,,,,,,,,
,60390dd01c38de312b32bbae,001,2022-04-29_03h13.17.009,classification_task,2021.2.3,Win32,59.49193884,60390dd01c38de312b32bbae,626b377229c10585ec392f8a,626b3b7febcb71ef549e646f,,,,,,,,,,,,,,,,,,,,,,,l,0,0.651335,"[""0.316"",""0.362"",""0.767"",""0.975""]","[1,0,1,1]",0,21,21,21,1,0,1,,,0,FALSE,,,,,,,,,,,,,,,,,,,,,,,,,,,,,,
,60390dd01c38de312b32bbae,001,2022-04-29_03h13.17.009,classification_task,2021.2.3,Win32,59.49193884,60390dd01c38de312b32bbae,626b377229c10585ec392f8a,626b3b7febcb71ef549e646f,,,,,,,,,,,,,,,,,,,,,,,l,0,0.70034,"[""0.271"",""0.490"",""0.767"",""0.975""]","[0,1,1,1]",0,22,22,22,1,0,1,,,0,FALSE,,,,,,,,,,,,,,,,,,,,,,,,,,,,,,
,60390dd01c38de312b32bbae,001,2022-04-29_03h13.17.009,classification_task,2021.2.3,Win32,59.49193884,60390dd01c38de312b32bbae,626b377229c10585ec392f8a,626b3b7febcb71ef549e646f,,,,,,,,,,,,,,,,,,,,,,,l,0,0.837895,"[""0.221"",""0.449"",""0.271"",""0.931""]","[1,1,0,1]",0,23,23,23,1,0,0,,,0,FALSE,,,,,,,,,,,,,,,,,,,,,,,,,,,,,,
,60390dd01c38de312b32bbae,001,2022-04-29_03h13.17.009,classification_task,2021.2.3,Win32,59.49193884,60390dd01c38de312b32bbae,626b377229c10585ec392f8a,626b3b7febcb71ef549e646f,,,,,,,,,,,,,,,,,,,,,,,l,0,0.73732,"[""0.316"",""0.490"",""0.767"",""0.654""]","[1,1,1,0]",0,24,24,24,1,0,1,,,0,FALSE,,,,,,,,,,,,,,,,,,,,,,,,,,,,,,
,60390dd01c38de312b32bbae,001,2022-04-29_03h13.17.009,classification_task,2021.2.3,Win32,59.49193884,60390dd01c38de312b32bbae,626b377229c10585ec392f8a,626b3b7febcb71ef549e646f,,,,,,,,,,,,,,,,,,,,,,,l,0,0.90313,"[""0.221"",""0.371"",""0.849"",""0.931""]","[1,0,1,1]",0,25,25,25,1,0,0,,,0,FALSE,,,,,,,,,,,,,,,,,,,,,,,,,,,,,,
,60390dd01c38de312b32bbae,001,2022-04-29_03h13.17.009,classification_task,2021.2.3,Win32,59.49193884,60390dd01c38de312b32bbae,626b377229c10585ec392f8a,626b3b7febcb71ef549e646f,,,,,,,,,,,,,,,,,,,,,,,a,0,1.32285,"[""0.108"",""0.410"",""0.261"",""0.808""]","[1,1,0,1]",0,26,26,26,1,1,1,,,0,FALSE,,,,,,,,,,,,,,,,,,,,,,,,,,,,,,
,60390dd01c38de312b32bbae,001,2022-04-29_03h13.17.009,classification_task,2021.2.3,Win32,59.49193884,60390dd01c38de312b32bbae,626b377229c10585ec392f8a,626b3b7febcb71ef549e646f,,,,,,,,,,,,,,,,,,,,,,,l,0,0.72346,"[""0.271"",""0.449"",""0.849"",""0.931""]","[0,1,1,1]",0,27,27,27,1,0,0,,,0,FALSE,,,,,,,,,,,,,,,,,,,,,,,,,,,,,,
,60390dd01c38de312b32bbae,001,2022-04-29_03h13.17.009,classification_task,2021.2.3,Win32,59.49193884,60390dd01c38de312b32bbae,626b377229c10585ec392f8a,626b3b7febcb71ef549e646f,,,,,,,,,,,,,,,,,,,,,,,a,1,0.68868,"[""0.221"",""0.449"",""0.849"",""0.075""]","[1,1,1,0]",0,28,28,28,1,0,0,,,0,FALSE,,,,,,,,,,,,,,,,,,,,,,,,,,,,,,
,60390dd01c38de312b32bbae,001,2022-04-29_03h13.17.009,classification_task,2021.2.3,Win32,59.49193884,60390dd01c38de312b32bbae,626b377229c10585ec392f8a,626b3b7febcb71ef549e646f,,,,,,,,,,,,,,,,,,,,,,,a,0,1.236395,"[""0.108"",""0.371"",""0.607"",""0.808""]","[1,0,1,1]",0,29,29,29,1,1,1,,,0,FALSE,,,,,,,,,,,,,,,,,,,,,,,,,,,,,,
,60390dd01c38de312b32bbae,001,2022-04-29_03h13.17.009,classification_task,2021.2.3,Win32,59.49193884,60390dd01c38de312b32bbae,626b377229c10585ec392f8a,626b3b7febcb71ef549e646f,,,,,,,,,,,,,,,,,,,,,,,a,0,0.701634999,"[""0.038"",""0.148"",""0.370"",""0.688""]","[1,1,0,1]",0,30,30,30,1,1,0,,,0,FALSE,,,,,,,,,,,,,,,,,,,,,,,,,,,,,,
,60390dd01c38de312b32bbae,001,2022-04-29_03h13.17.009,classification_task,2021.2.3,Win32,59.49193884,60390dd01c38de312b32bbae,626b377229c10585ec392f8a,626b3b7febcb71ef549e646f,,,,,,,,,,,,,,,,,,,,,,,a,0,1.27583,"[""0.108"",""0.410"",""0.607"",""0.653""]","[1,1,1,0]",0,31,31,31,1,1,1,,,0,FALSE,,,,,,,,,,,,,,,,,,,,,,,,,,,,,,
,60390dd01c38de312b32bbae,001,2022-04-29_03h13.17.009,classification_task,2021.2.3,Win32,59.49193884,60390dd01c38de312b32bbae,626b377229c10585ec392f8a,626b3b7febcb71ef549e646f,,,,,,,,,,,,,,,,,,,,,,,a,0,0.9845,"[""0.108"",""0.410"",""0.886"",""0.808""]","[1,1,0,1]",0,32,32,32,1,1,1,,,0,FALSE,,,,,,,,,,,,,,,,,,,,,,,,,,,,,,
,60390dd01c38de312b32bbae,001,2022-04-29_03h13.17.009,classification_task,2021.2.3,Win32,59.49193884,60390dd01c38de312b32bbae,626b377229c10585ec392f8a,626b3b7febcb71ef549e646f,,,,,,,,,,,,,,,,,,,,,,,a,0,0.68619,"[""0.108"",""0.410"",""0.607"",""0.371""]","[1,1,1,0]",0,33,33,33,1,1,1,,,0,FALSE,,,,,,,,,,,,,,,,,,,,,,,,,,,,,,
,60390dd01c38de312b32bbae,001,2022-04-29_03h13.17.009,classification_task,2021.2.3,Win32,59.49193884,60390dd01c38de312b32bbae,626b377229c10585ec392f8a,626b3b7febcb71ef549e646f,,,,,,,,,,,,,,,,,,,,,,,l,0,0.74789,"[""0.258"",""0.449"",""0.849"",""0.931""]","[0,1,1,1]",0,34,34,34,1,0,0,,,0,FALSE,,,,,,,,,,,,,,,,,,,,,,,,,,,,,,
,60390dd01c38de312b32bbae,001,2022-04-29_03h13.17.009,classification_task,2021.2.3,Win32,59.49193884,60390dd01c38de312b32bbae,626b377229c10585ec392f8a,626b3b7febcb71ef549e646f,,,,,,,,,,,,,,,,,,,,,,,l,0,0.779525001,"[""0.221"",""0.371"",""0.849"",""0.931""]","[1,0,1,1]",0,35,35,35,1,0,0,,,0,FALSE,,,,,,,,,,,,,,,,,,,,,,,,,,,,,,
,60390dd01c38de312b32bbae,001,2022-04-29_03h13.17.009,classification_task,2021.2.3,Win32,59.49193884,60390dd01c38de312b32bbae,626b377229c10585ec392f8a,626b3b7febcb71ef549e646f,,,,,,,,,,,,,,,,,,,,,,,a,0,0.741584999,"[""0.038"",""0.148"",""0.728"",""0.688""]","[1,1,0,1]",0,36,36,36,1,1,0,,,0,FALSE,,,,,,,,,,,,,,,,,,,,,,,,,,,,,,
,60390dd01c38de312b32bbae,001,2022-04-29_03h13.17.009,classification_task,2021.2.3,Win32,59.49193884,60390dd01c38de312b32bbae,626b377229c10585ec392f8a,626b3b7febcb71ef549e646f,,,,,,,,,,,,,,,,,,,,,,,l,1,0.741605001,"[""0.649"",""0.410"",""0.607"",""0.808""]","[0,1,1,1]",0,37,37,37,1,1,1,,,0,FALSE,,,,,,,,,,,,,,,,,,,,,,,,,,,,,,
,60390dd01c38de312b32bbae,001,2022-04-29_03h13.17.009,classification_task,2021.2.3,Win32,59.49193884,60390dd01c38de312b32bbae,626b377229c10585ec392f8a,626b3b7febcb71ef549e646f,,,,,,,,,,,,,,,,,,,,,,,l,0,0.57767,"[""0.316"",""0.649"",""0.767"",""0.975""]","[1,0,1,1]",0,38,38,38,1,0,1,,,0,FALSE,,,,,,,,,,,,,,,,,,,,,,,,,,,,,,
,60390dd01c38de312b32bbae,001,2022-04-29_03h13.17.009,classification_task,2021.2.3,Win32,59.49193884,60390dd01c38de312b32bbae,626b377229c10585ec392f8a,626b3b7febcb71ef549e646f,,,,,,,,,,,,,,,,,,,,,,,l,0,0.607454999,"[""0.316"",""0.490"",""0.271"",""0.975""]","[1,1,0,1]",0,39,39,39,1,0,1,,,0,FALSE,,,,,,,,,,,,,,,,,,,,,,,,,,,,,,
,60390dd01c38de312b32bbae,001,2022-04-29_03h13.17.009,classification_task,2021.2.3,Win32,59.49193884,60390dd01c38de312b32bbae,626b377229c10585ec392f8a,626b3b7febcb71ef549e646f,,,,,,,,,,,,,,,,,,,,,,,l,0,0.848329999,"[""0.221"",""0.449"",""0.649"",""0.931""]","[1,1,0,1]",0,40,40,40,1,0,0,,,0,FALSE,,,,,,,,,,,,,,,,,,,,,,,,,,,,,,
,60390dd01c38de312b32bbae,001,2022-04-29_03h13.17.009,classification_task,2021.2.3,Win32,59.49193884,60390dd01c38de312b32bbae,626b377229c10585ec392f8a,626b3b7febcb71ef549e646f,,,,,,,,,,,,,,,,,,,,,,,l,1,0.983785,"[""0.654"",""0.148"",""0.538"",""0.688""]","[0,1,1,1]",0,41,41,41,1,1,0,,,0,FALSE,,,,,,,,,,,,,,,,,,,,,,,,,,,,,,
,60390dd01c38de312b32bbae,001,2022-04-29_03h13.17.009,classification_task,2021.2.3,Win32,59.49193884,60390dd01c38de312b32bbae,626b377229c10585ec392f8a,626b3b7febcb71ef549e646f,,,,,,,,,,,,,,,,,,,,,,,l,1,1.233604999,"[""0.108"",""0.261"",""0.607"",""0.808""]","[1,0,1,1]",0,42,42,42,1,1,1,,,0,FALSE,,,,,,,,,,,,,,,,,,,,,,,,,,,,,,
,60390dd01c38de312b32bbae,001,2022-04-29_03h13.17.009,classification_task,2021.2.3,Win32,59.49193884,60390dd01c38de312b32bbae,626b377229c10585ec392f8a,626b3b7febcb71ef549e646f,,,,,,,,,,,,,,,,,,,,,,,l,0,0.77337,"[""0.316"",""0.490"",""0.767"",""0.271""]","[1,1,1,0]",0,43,43,43,1,0,1,,,0,FALSE,,,,,,,,,,,,,,,,,,,,,,,,,,,,,,
,60390dd01c38de312b32bbae,001,2022-04-29_03h13.17.009,classification_task,2021.2.3,Win32,59.49193884,60390dd01c38de312b32bbae,626b377229c10585ec392f8a,626b3b7febcb71ef549e646f,,,,,,,,,,,,,,,,,,,,,,,l,0,0.63516,"[""0.370"",""0.490"",""0.767"",""0.975""]","[0,1,1,1]",0,44,44,44,1,0,1,,,0,FALSE,,,,,,,,,,,,,,,,,,,,,,,,,,,,,,
,60390dd01c38de312b32bbae,001,2022-04-29_03h13.17.009,classification_task,2021.2.3,Win32,59.49193884,60390dd01c38de312b32bbae,626b377229c10585ec392f8a,626b3b7febcb71ef549e646f,,,,,,,,,,,,,,,,,,,,,,,a,0,0.555885,"[""0.038"",""0.148"",""0.538"",""0.271""]","[1,1,1,0]",0,45,45,45,1,1,0,,,0,FALSE,,,,,,,,,,,,,,,,,,,,,,,,,,,,,,
,60390dd01c38de312b32bbae,001,2022-04-29_03h13.17.009,classification_task,2021.2.3,Win32,59.49193884,60390dd01c38de312b32bbae,626b377229c10585ec392f8a,626b3b7febcb71ef549e646f,,,,,,,,,,,,,,,,,,,,,,,a,1,0.734105,"[""0.221"",""0.449"",""0.849"",""0.075""]","[1,1,1,0]",0,46,46,46,1,0,0,,,0,FALSE,,,,,,,,,,,,,,,,,,,,,,,,,,,,,,
,60390dd01c38de312b32bbae,001,2022-04-29_03h13.17.009,classification_task,2021.2.3,Win32,59.49193884,60390dd01c38de312b32bbae,626b377229c10585ec392f8a,626b3b7febcb71ef549e646f,,,,,,,,,,,,,,,,,,,,,,,a,0,0.549360001,"[""0.038"",""0.649"",""0.538"",""0.688""]","[1,0,1,1]",0,47,47,47,1,1,0,,,0,FALSE,,,,,,,,,,,,,,,,,,,,,,,,,,,,,,
,60390dd01c38de312b32bbae,001,2022-04-29_03h13.17.009,classification_task,2021.2.3,Win32,59.49193884,60390dd01c38de312b32bbae,626b377229c10585ec392f8a,626b3b7febcb71ef549e646f,,,,,,,,,,,,,,,,,,,,,,,l,0,0.62752,"[""0.894"",""0.490"",""0.767"",""0.975""]","[0,1,1,1]",0,48,48,48,1,0,1,,,0,FALSE,,,,,,,,,,,,,,,,,,,,,,,,,,,,,,
,60390dd01c38de312b32bbae,001,2022-04-29_03h13.17.009,classification_task,2021.2.3,Win32,59.49193884,60390dd01c38de312b32bbae,626b377229c10585ec392f8a,626b3b7febcb71ef549e646f,,,,,,,,,,,,,,,,,,,,,,,l,0,0.81702,"[""0.221"",""0.449"",""0.849"",""0.649""]","[1,1,1,0]",0,49,49,49,1,0,0,,,0,FALSE,,,,,,,,,,,,,,,,,,,,,,,,,,,,,,
,60390dd01c38de312b32bbae,001,2022-04-29_03h13.17.009,classification_task,2021.2.3,Win32,59.49193884,60390dd01c38de312b32bbae,626b377229c10585ec392f8a,626b3b7febcb71ef549e646f,,,,,,,,,,,,,,,,,,,,,,,l,1,0.588234999,"[""0.271"",""0.410"",""0.607"",""0.808""]","[0,1,1,1]",0,50,50,50,1,1,1,,,0,FALSE,,,,,,,,,,,,,,,,,,,,,,,,,,,,,,
,60390dd01c38de312b32bbae,001,2022-04-29_03h13.17.009,classification_task,2021.2.3,Win32,59.49193884,60390dd01c38de312b32bbae,626b377229c10585ec392f8a,626b3b7febcb71ef549e646f,,,,,,,,,,,,,,,,,,,,,,,l,0,0.62873,"[""0.653"",""0.449"",""0.849"",""0.931""]","[0,1,1,1]",0,51,51,51,1,0,0,,,0,FALSE,,,,,,,,,,,,,,,,,,,,,,,,,,,,,,
,60390dd01c38de312b32bbae,001,2022-04-29_03h13.17.009,classification_task,2021.2.3,Win32,59.49193884,60390dd01c38de312b32bbae,626b377229c10585ec392f8a,626b3b7febcb71ef549e646f,,,,,,,,,,,,,,,,,,,,,,,a,0,0.66669,"[""0.038"",""0.148"",""0.538"",""0.652""]","[1,1,1,0]",0,52,52,52,1,1,0,,,0,FALSE,,,,,,,,,,,,,,,,,,,,,,,,,,,,,,
,60390dd01c38de312b32bbae,001,2022-04-29_03h13.17.009,classification_task,2021.2.3,Win32,59.49193884,60390dd01c38de312b32bbae,626b377229c10585ec392f8a,626b3b7febcb71ef549e646f,,,,,,,,,,,,,,,,,,,,,,,l,0,0.624725,"[""0.316"",""0.490"",""0.767"",""0.271""]","[1,1,1,0]",0,53,53,53,1,0,1,,,0,FALSE,,,,,,,,,,,,,,,,,,,,,,,,,,,,,,
,60390dd01c38de312b32bbae,001,2022-04-29_03h13.17.009,classification_task,2021.2.3,Win32,59.49193884,60390dd01c38de312b32bbae,626b377229c10585ec392f8a,626b3b7febcb71ef549e646f,,,,,,,,,,,,,,,,,,,,,,,a,0,2.56959,"[""0.108"",""0.410"",""0.371"",""0.808""]","[1,1,0,1]",0,54,54,54,1,1,1,,,0,FALSE,,,,,,,,,,,,,,,,,,,,,,,,,,,,,,
,60390dd01c38de312b32bbae,001,2022-04-29_03h13.17.009,classification_task,2021.2.3,Win32,59.49193884,60390dd01c38de312b32bbae,626b377229c10585ec392f8a,626b3b7febcb71ef549e646f,,,,,,,,,,,,,,,,,,,,,,,a,0,0.9758,"[""0.108"",""0.271"",""0.607"",""0.808""]","[1,0,1,1]",0,55,55,55,1,1,1,,,0,FALSE,,,,,,,,,,,,,,,,,,,,,,,,,,,,,,
,60390dd01c38de312b32bbae,001,2022-04-29_03h13.17.009,classification_task,2021.2.3,Win32,59.49193884,60390dd01c38de312b32bbae,626b377229c10585ec392f8a,626b3b7febcb71ef549e646f,,,,,,,,,,,,,,,,,,,,,,,l,0,0.582155,"[""0.221"",""0.728"",""0.849"",""0.931""]","[1,0,1,1]",0,56,56,56,1,0,0,,,0,FALSE,,,,,,,,,,,,,,,,,,,,,,,,,,,,,,
,60390dd01c38de312b32bbae,001,2022-04-29_03h13.17.009,classification_task,2021.2.3,Win32,59.49193884,60390dd01c38de312b32bbae,626b377229c10585ec392f8a,626b3b7febcb71ef549e646f,,,,,,,,,,,,,,,,,,,,,,,a,0,1.333830001,"[""0.108"",""0.410"",""0.607"",""0.261""]","[1,1,1,0]",0,57,57,57,1,1,1,,,0,FALSE,,,,,,,,,,,,,,,,,,,,,,,,,,,,,,
,60390dd01c38de312b32bbae,001,2022-04-29_03h13.17.009,classification_task,2021.2.3,Win32,59.49193884,60390dd01c38de312b32bbae,626b377229c10585ec392f8a,626b3b7febcb71ef549e646f,,,,,,,,,,,,,,,,,,,,,,,l,0,0.64062,"[""0.316"",""0.261"",""0.767"",""0.975""]","[1,0,1,1]",0,58,58,58,1,0,1,,,0,FALSE,,,,,,,,,,,,,,,,,,,,,,,,,,,,,,
,60390dd01c38de312b32bbae,001,2022-04-29_03h13.17.009,classification_task,2021.2.3,Win32,59.49193884,60390dd01c38de312b32bbae,626b377229c10585ec392f8a,626b3b7febcb71ef549e646f,,,,,,,,,,,,,,,,,,,,,,,l,0,0.720735,"[""0.221"",""0.449"",""0.894"",""0.931""]","[1,1,0,1]",0,59,59,59,1,0,0,,,0,FALSE,,,,,,,,,,,,,,,,,,,,,,,,,,,,,,
,60390dd01c38de312b32bbae,001,2022-04-29_03h13.17.009,classification_task,2021.2.3,Win32,59.49193884,60390dd01c38de312b32bbae,626b377229c10585ec392f8a,626b3b7febcb71ef549e646f,,,,,,,,,,,,,,,,,,,,,,,a,0,0.67431,"[""0.038"",""0.255"",""0.538"",""0.688""]","[1,0,1,1]",0,60,60,60,1,1,0,,,0,FALSE,,,,,,,,,,,,,,,,,,,,,,,,,,,,,,
,60390dd01c38de312b32bbae,001,2022-04-29_03h13.17.009,classification_task,2021.2.3,Win32,59.49193884,60390dd01c38de312b32bbae,626b377229c10585ec392f8a,626b3b7febcb71ef549e646f,,,,,,,,,,,,,,,,,,,,,,,l,0,0.50323,"[""0.316"",""0.490"",""0.886"",""0.975""]","[1,1,0,1]",0,61,61,61,1,0,1,,,0,FALSE,,,,,,,,,,,,,,,,,,,,,,,,,,,,,,
,60390dd01c38de312b32bbae,001,2022-04-29_03h13.17.009,classification_task,2021.2.3,Win32,59.49193884,60390dd01c38de312b32bbae,626b377229c10585ec392f8a,626b3b7febcb71ef549e646f,,,,,,,,,,,,,,,,,,,,,,,a,0,2.354549999,"[""0.649"",""0.148"",""0.538"",""0.688""]","[0,1,1,1]",0,62,62,62,1,1,0,,,0,FALSE,,,,,,,,,,,,,,,,,,,,,,,,,,,,,,
,60390dd01c38de312b32bbae,001,2022-04-29_03h13.17.009,classification_task,2021.2.3,Win32,59.49193884,60390dd01c38de312b32bbae,626b377229c10585ec392f8a,626b3b7febcb71ef549e646f,,,,,,,,,,,,,,,,,,,,,,,a,0,0.619965,"[""0.038"",""0.148"",""0.271"",""0.688""]","[1,1,0,1]",0,63,63,63,1,1,0,,,0,FALSE,,,,,,,,,,,,,,,,,,,,,,,,,,,,,,
,60390dd01c38de312b32bbae,001,2022-04-29_03h13.17.009,classification_task,2021.2.3,Win32,59.49193884,60390dd01c38de312b32bbae,626b377229c10585ec392f8a,626b3b7febcb71ef549e646f,,,,,,,,,,,,,,,,,,,,,,,,,,,,,,,,,,,,,,,0, ,,0,0,136.18955,0,2,2,2,1,2,3,,,,,,,,,,,,,,,,,
,60390dd01c38de312b32bbae,001,2022-04-29_03h13.17.009,classification_task,2021.2.3,Win32,59.49193884,60390dd01c38de312b32bbae,626b377229c10585ec392f8a,626b3b7febcb71ef549e646f,,,,,,,,,,,,,,,,,,,,,,,,,,,,,,,,,,,,,,,1,  ,,0,1.942692012,140.70437,0,2,2,2,1,2,3,,,,,,,,,,,,,,,,,
,60390dd01c38de312b32bbae,001,2022-04-29_03h13.17.009,classification_task,2021.2.3,Win32,59.49193884,60390dd01c38de312b32bbae,626b377229c10585ec392f8a,626b3b7febcb71ef549e646f,,,,,,,,,,,,,,,,,,,,,,,,,,,,,,,,,,,,,,,2,  ,,0,0,143.605735,0,2,2,2,1,2,3,,,,,,,,,,,,,,,,,
,60390dd01c38de312b32bbae,001,2022-04-29_03h13.17.009,classification_task,2021.2.3,Win32,59.49193884,60390dd01c38de312b32bbae,626b377229c10585ec392f8a,626b3b7febcb71ef549e646f,,,,,,,,,,,,,,,,,,,,,,,,,,,,,,,,,,,,,,,,,,,,,0,2,2,2,1,,3,,,,,,,,,,,,,,,,,
,60390dd01c38de312b32bbae,001,2022-04-29_03h13.17.009,classification_task,2021.2.3,Win32,59.49193884,60390dd01c38de312b32bbae,626b377229c10585ec392f8a,626b3b7febcb71ef549e646f,,,,,,,,,,,,,,,,,,,,,,,,,,,,,,,,,,,,,,,,,,,,,,,,,,,,,I believe the aid is a competent performer,,0.7,0,3,728.447355,0,0,0,0,1,0,,,,
,60390dd01c38de312b32bbae,001,2022-04-29_03h13.17.009,classification_task,2021.2.3,Win32,59.49193884,60390dd01c38de312b32bbae,626b377229c10585ec392f8a,626b3b7febcb71ef549e646f,,,,,,,,,,,,,,,,,,,,,,,,,,,,,,,,,,,,,,,,,,,,,,,,,,,,,I trust the aid,,0.7,0,2,730.70497,0,0,0,0,1,0,,,,
,60390dd01c38de312b32bbae,001,2022-04-29_03h13.17.009,classification_task,2021.2.3,Win32,59.49193884,60390dd01c38de312b32bbae,626b377229c10585ec392f8a,626b3b7febcb71ef549e646f,,,,,,,,,,,,,,,,,,,,,,,,,,,,,,,,,,,,,,,,,,,,,,,,,,,,,I have confidence in the advice given by the aid,,0.7,0,2,737.34549,0,0,0,0,1,0,,,,
,60390dd01c38de312b32bbae,001,2022-04-29_03h13.17.009,classification_task,2021.2.3,Win32,59.49193884,60390dd01c38de312b32bbae,626b377229c10585ec392f8a,626b3b7febcb71ef549e646f,,,,,,,,,,,,,,,,,,,,,,,,,,,,,,,,,,,,,,,,,,,,,,,,,,,,,I can depend on the aid,,0.7,0,1,739.50415,0,0,0,0,1,0,,,,
,60390dd01c38de312b32bbae,001,2022-04-29_03h13.17.009,classification_task,2021.2.3,Win32,59.49193884,60390dd01c38de312b32bbae,626b377229c10585ec392f8a,626b3b7febcb71ef549e646f,,,,,,,,,,,,,,,,,,,,,,,,,,,,,,,,,,,,,,,,,,,,,,,,,,,,,I can rely on the aid to behave in consistent ways,,0.7,0,1,743.855775,0,0,0,0,1,0,,,,
,60390dd01c38de312b32bbae,001,2022-04-29_03h13.17.009,classification_task,2021.2.3,Win32,59.49193884,60390dd01c38de312b32bbae,626b377229c10585ec392f8a,626b3b7febcb71ef549e646f,,,,,,,,,,,,,,,,,,,,,,,,,,,,,,,,,,,,,,,,,,,,,,,,,,,,,I can rely on the aid to do its best every time I take its advice,,0.7,0,1,746.173795,0,0,0,0,1,0,,,,
,60390dd01c38de312b32bbae,001,2022-04-29_03h13.17.009,classification_task,2021.2.3,Win32,59.49193884,60390dd01c38de312b32bbae,626b377229c10585ec392f8a,626b3b7febcb71ef549e646f,,,,,,,,,,,,,,,,,,,,,,,,,,,,,,,,,,,,,,,,,,,,,,,,,,,,,"On trials you completed with assistance from the aid, how frequently did you think the aid was correct?",,0.7,0,40,,0,0,0,0,1,0,,,,
,60390dd01c38de312b32bbae,001,2022-04-29_03h13.17.009,classification_task,2021.2.3,Win32,59.49193884,60390dd01c38de312b32bbae,626b377229c10585ec392f8a,626b3b7febcb71ef549e646f,,,,,,,,,,,,,,,,,,,,,,,,,,,,,,,,,,,,,,,,,,,,,,,,,,,,,"On trials you completed without the aid, how frequently did you think you were correct?",,0.7,0,80,,0,0,0,0,1,0,,,,
,60390dd01c38de312b32bbae,001,2022-04-29_03h13.17.009,classification_task,2021.2.3,Win32,59.49193884,60390dd01c38de312b32bbae,626b377229c10585ec392f8a,626b3b7febcb71ef549e646f,,,,,,,,,,,,,,,,,,,,,,,,,,,,,,,,,,,,,,,,,,,,,,,,,,,,,,,,,,,0,0,0,0,1,,,,,
,60390dd01c38de312b32bbae,001,2022-04-29_03h13.17.009,classification_task,2021.2.3,Win32,59.49193884,60390dd01c38de312b32bbae,626b377229c10585ec392f8a,626b3b7febcb71ef549e646f,,,,,,,,,,,,,,,,,,,,,,,,,,,,,,,,,,,,,,,,,,,,,,,,,,,,,,,,,,,,,,,,,space,18.13657,778.51908,
,60390dd01c38de312b32bbae,001,2022-04-29_03h13.17.009,classification_task,2021.2.3,Win32,59.49193884,60390dd01c38de312b32bbae,626b377229c10585ec392f8a,626b3b7febcb71ef549e646f,,,,,,,,,,,,,,,,,,,,,,,,,,,,,,,,,,,,,,,,,,,,,,,,,,,,,,,,,,,,,,,,,,,,"Mozilla/5.0 (Windows NT 10.0; WOW64) AppleWebKit/537.36 (KHTML, like Gecko) Chrome/86.0.4240.198 Safari/537.36"
