usingWebGL,participant,session,date,expName,psychopyVersion,OS,frameRate,PROLIFIC_PID,STUDY_ID,SESSION_ID,signatures_friend,signatures_foe,band_ranges_top,band_ranges_bottom,formitemText,formtype,formundefined,formitemWidth,formindex,formresponse,formrt,key_resp_2.keys,key_resp_2.rt,tute_resp.keys,tute_resp.rt,tutorial.thisRepN,tutorial.thisTrialN,tutorial.thisN,tutorial.thisIndex,tutorial.ran,key_resp_4.keys,key_resp_4.rt,key_resp.keys,key_resp.corr,key_resp.rt,lines_presented,is_signal_presented,trials.thisRepN,trials.thisTrialN,trials.thisN,trials.thisIndex,trials.ran,vessel,active_band,lines,is_signal,supported_pos,catch_trial,debrief_formindex,debrief_formitemText,debrief_formtype,debrief_formitemWidth,debrief_formresponse,debrief_formrt,phases.thisRepN,phases.thisTrialN,phases.thisN,phases.thisIndex,phases.ran,phases.order,phase,key_resp_3.keys,trustitemText,trusttype,trustitemWidth,trustindex,trustresponse,trustrt,support_status.thisRepN,support_status.thisTrialN,support_status.thisN,support_status.thisIndex,support_status.ran,support_status.order,key_resp_5.keys,key_resp_5.rt,globalClockTime,userAgent
TRUE,603d221fa82afdb2b19d0692,001,2022-04-29_03h16.46.846,classification_task,2021.2.3,Win32,59.86590038,603d221fa82afdb2b19d0692,626b377229c10585ec392f8a,626b3c2b3faadc900a728b6e,,,,,,,,,,,,,,,,,,,,,,,,,,,,,,,,,,,,,,,,,,,,,,,,,,,,,,,,,,,,,,,,,,,,
,603d221fa82afdb2b19d0692,001,2022-04-29_03h16.46.846,classification_task,2021.2.3,Win32,59.86590038,603d221fa82afdb2b19d0692,626b377229c10585ec392f8a,626b3c2b3faadc900a728b6e,"[[""0.225"",""0.466"",""0.806"",""0.931""],[""0.275"",""0.371"",""0.624"",""0.887""]]","[[""0.059"",""0.423"",""0.519"",""0.766""],[""0.145"",""0.312"",""0.663"",""0.713""]]","[1,10]","[100,1000]",Video game experience,,,0.7,0,,,,,,,,,,,,,,,,,,,,,,,,,,,,,,,,,,,,,,,,,,,,,,,,,,,,,,,,,,,
,603d221fa82afdb2b19d0692,001,2022-04-29_03h16.46.846,classification_task,2021.2.3,Win32,59.86590038,603d221fa82afdb2b19d0692,626b377229c10585ec392f8a,626b3c2b3faadc900a728b6e,,,,,Approximately how many hours did you spend playing video games in the last week?,,,0.7,0,3,,,,,,,,,,,,,,,,,,,,,,,,,,,,,,,,,,,,,,,,,,,,,,,,,,,,,,,,,,
,603d221fa82afdb2b19d0692,001,2022-04-29_03h16.46.846,classification_task,2021.2.3,Win32,59.86590038,603d221fa82afdb2b19d0692,626b377229c10585ec392f8a,626b3c2b3faadc900a728b6e,,,,,"Which game did you play the most this year? (Enter ""None"" if you didn't play any)",,,0.7,0,PUZZLE,,,,,,,,,,,,,,,,,,,,,,,,,,,,,,,,,,,,,,,,,,,,,,,,,,,,,,,,,,
,603d221fa82afdb2b19d0692,001,2022-04-29_03h16.46.846,classification_task,2021.2.3,Win32,59.86590038,603d221fa82afdb2b19d0692,626b377229c10585ec392f8a,626b3c2b3faadc900a728b6e,,,,,Visual perception,,,0.7,0,,,,,,,,,,,,,,,,,,,,,,,,,,,,,,,,,,,,,,,,,,,,,,,,,,,,,,,,,,,
,603d221fa82afdb2b19d0692,001,2022-04-29_03h16.46.846,classification_task,2021.2.3,Win32,59.86590038,603d221fa82afdb2b19d0692,626b377229c10585ec392f8a,626b3c2b3faadc900a728b6e,,,,,Do you have any form of color blindness?,,,0.7,0,No,40.1337,,,,,,,,,,,,,,,,,,,,,,,,,,,,,,,,,,,,,,,,,,,,,,,,,,,,,,,,,
,603d221fa82afdb2b19d0692,001,2022-04-29_03h16.46.846,classification_task,2021.2.3,Win32,59.86590038,603d221fa82afdb2b19d0692,626b377229c10585ec392f8a,626b3c2b3faadc900a728b6e,,,,,Do you use software to change the colour temperature of your screen (e.g. f.lux)?,,,0.7,0,No,46.5248,,,,,,,,,,,,,,,,,,,,,,,,,,,,,,,,,,,,,,,,,,,,,,,,,,,,,,,,,
,603d221fa82afdb2b19d0692,001,2022-04-29_03h16.46.846,classification_task,2021.2.3,Win32,59.86590038,603d221fa82afdb2b19d0692,626b377229c10585ec392f8a,626b3c2b3faadc900a728b6e,,,,,,,,,,,,space,34.7248,space,14.398,0,0,0,0,1,,,,,,,,,,,,,,,,,,,,,,,,,,,,,,,,,,,,,,,,,,,,,,,,
,603d221fa82afdb2b19d0692,001,2022-04-29_03h16.46.846,classification_task,2021.2.3,Win32,59.86590038,603d221fa82afdb2b19d0692,626b377229c10585ec392f8a,626b3c2b3faadc900a728b6e,,,,,,,,,,,,,,space,18.5403,1,0,1,0,1,,,,,,,,,,,,,,,,,,,,,,,,,,,,,,,,,,,,,,,,,,,,,,,,
,603d221fa82afdb2b19d0692,001,2022-04-29_03h16.46.846,classification_task,2021.2.3,Win32,59.86590038,603d221fa82afdb2b19d0692,626b377229c10585ec392f8a,626b3c2b3faadc900a728b6e,,,,,,,,,,,,,,space,33.1424,2,0,2,0,1,,,,,,,,,,,,,,,,,,,,,,,,,,,,,,,,,,,,,,,,,,,,,,,,
,603d221fa82afdb2b19d0692,001,2022-04-29_03h16.46.846,classification_task,2021.2.3,Win32,59.86590038,603d221fa82afdb2b19d0692,626b377229c10585ec392f8a,626b3c2b3faadc900a728b6e,,,,,,,,,,,,,,space,26.5794,3,0,3,0,1,,,,,,,,,,,,,,,,,,,,,,,,,,,,,,,,,,,,,,,,,,,,,,,,
,603d221fa82afdb2b19d0692,001,2022-04-29_03h16.46.846,classification_task,2021.2.3,Win32,59.86590038,603d221fa82afdb2b19d0692,626b377229c10585ec392f8a,626b3c2b3faadc900a728b6e,,,,,,,,,,,,,,space,25.2614,4,0,4,0,1,,,,,,,,,,,,,,,,,,,,,,,,,,,,,,,,,,,,,,,,,,,,,,,,
,603d221fa82afdb2b19d0692,001,2022-04-29_03h16.46.846,classification_task,2021.2.3,Win32,59.86590038,603d221fa82afdb2b19d0692,626b377229c10585ec392f8a,626b3c2b3faadc900a728b6e,,,,,,,,,,,,,,,,,,,,,space,25.3499,a,1,5.8553,"[""0.225"",""0.466"",""0.806"",""0.970""]","[1,1,1,0]",0,0,0,0,1,0,0,,,1,FALSE,,,,,,,,,,,,,,,,,,,,,,,,,,,,,,
,603d221fa82afdb2b19d0692,001,2022-04-29_03h16.46.846,classification_task,2021.2.3,Win32,59.86590038,603d221fa82afdb2b19d0692,626b377229c10585ec392f8a,626b3c2b3faadc900a728b6e,,,,,,,,,,,,,,,,,,,,,,,a,1,9.8472,"[""0.275"",""0.371"",""0.581"",""0.887""]","[1,1,0,1]",0,1,1,1,1,0,1,,,1,FALSE,,,,,,,,,,,,,,,,,,,,,,,,,,,,,,
,603d221fa82afdb2b19d0692,001,2022-04-29_03h16.46.846,classification_task,2021.2.3,Win32,59.86590038,603d221fa82afdb2b19d0692,626b377229c10585ec392f8a,626b3c2b3faadc900a728b6e,,,,,,,,,,,,,,,,,,,,,,,l,1,6.3934,"[""0.059"",""0.576"",""0.519"",""0.766""]","[1,0,1,1]",0,2,2,2,1,1,0,,,1,FALSE,,,,,,,,,,,,,,,,,,,,,,,,,,,,,,
,603d221fa82afdb2b19d0692,001,2022-04-29_03h16.46.846,classification_task,2021.2.3,Win32,59.86590038,603d221fa82afdb2b19d0692,626b377229c10585ec392f8a,626b3c2b3faadc900a728b6e,,,,,,,,,,,,,,,,,,,,,,,a,1,4.9442,"[""0.554"",""0.466"",""0.806"",""0.931""]","[0,1,1,1]",0,3,3,3,1,0,0,,,1,FALSE,,,,,,,,,,,,,,,,,,,,,,,,,,,,,,
,603d221fa82afdb2b19d0692,001,2022-04-29_03h16.46.846,classification_task,2021.2.3,Win32,59.86590038,603d221fa82afdb2b19d0692,626b377229c10585ec392f8a,626b3c2b3faadc900a728b6e,,,,,,,,,,,,,,,,,,,,,,,a,0,4.6232,"[""0.569"",""0.312"",""0.663"",""0.713""]","[0,1,1,1]",0,4,4,4,1,1,1,,,1,FALSE,,,,,,,,,,,,,,,,,,,,,,,,,,,,,,
,603d221fa82afdb2b19d0692,001,2022-04-29_03h16.46.846,classification_task,2021.2.3,Win32,59.86590038,603d221fa82afdb2b19d0692,626b377229c10585ec392f8a,626b3c2b3faadc900a728b6e,,,,,,,,,,,,,,,,,,,,,,,a,1,8.6693,"[""0.557"",""0.371"",""0.624"",""0.887""]","[0,1,1,1]",0,5,5,5,1,0,1,,,1,FALSE,,,,,,,,,,,,,,,,,,,,,,,,,,,,,,
,603d221fa82afdb2b19d0692,001,2022-04-29_03h16.46.846,classification_task,2021.2.3,Win32,59.86590038,603d221fa82afdb2b19d0692,626b377229c10585ec392f8a,626b3c2b3faadc900a728b6e,,,,,,,,,,,,,,,,,,,,,,,a,1,5.9329,"[""0.225"",""0.466"",""0.973"",""0.931""]","[1,1,0,1]",0,6,6,6,1,0,0,,,1,FALSE,,,,,,,,,,,,,,,,,,,,,,,,,,,,,,
,603d221fa82afdb2b19d0692,001,2022-04-29_03h16.46.846,classification_task,2021.2.3,Win32,59.86590038,603d221fa82afdb2b19d0692,626b377229c10585ec392f8a,626b3c2b3faadc900a728b6e,,,,,,,,,,,,,,,,,,,,,,,a,1,7.115,"[""0.275"",""0.554"",""0.624"",""0.887""]","[1,0,1,1]",0,7,7,7,1,0,1,,,1,FALSE,,,,,,,,,,,,,,,,,,,,,,,,,,,,,,
,603d221fa82afdb2b19d0692,001,2022-04-29_03h16.46.846,classification_task,2021.2.3,Win32,59.86590038,603d221fa82afdb2b19d0692,626b377229c10585ec392f8a,626b3c2b3faadc900a728b6e,,,,,,,,,,,,,,,,,,,,,,,l,1,4.9602,"[""0.145"",""0.312"",""0.663"",""0.576""]","[1,1,1,0]",0,8,8,8,1,1,1,,,1,FALSE,,,,,,,,,,,,,,,,,,,,,,,,,,,,,,
,603d221fa82afdb2b19d0692,001,2022-04-29_03h16.46.846,classification_task,2021.2.3,Win32,59.86590038,603d221fa82afdb2b19d0692,626b377229c10585ec392f8a,626b3c2b3faadc900a728b6e,,,,,,,,,,,,,,,,,,,,,,,a,0,5.541,"[""0.970"",""0.423"",""0.519"",""0.766""]","[0,1,1,1]",0,9,9,9,1,1,0,,,1,FALSE,,,,,,,,,,,,,,,,,,,,,,,,,,,,,,
,603d221fa82afdb2b19d0692,001,2022-04-29_03h16.46.846,classification_task,2021.2.3,Win32,59.86590038,603d221fa82afdb2b19d0692,626b377229c10585ec392f8a,626b3c2b3faadc900a728b6e,,,,,,,,,,,,,,,,,,,,,,,l,1,6.3493,"[""0.145"",""0.312"",""0.111"",""0.713""]","[1,1,0,1]",0,10,10,10,1,1,1,,,1,FALSE,,,,,,,,,,,,,,,,,,,,,,,,,,,,,,
,603d221fa82afdb2b19d0692,001,2022-04-29_03h16.46.846,classification_task,2021.2.3,Win32,59.86590038,603d221fa82afdb2b19d0692,626b377229c10585ec392f8a,626b3c2b3faadc900a728b6e,,,,,,,,,,,,,,,,,,,,,,,l,1,5.3505,"[""0.059"",""0.423"",""0.973"",""0.766""]","[1,1,0,1]",0,11,11,11,1,1,0,,,1,FALSE,,,,,,,,,,,,,,,,,,,,,,,,,,,,,,
,603d221fa82afdb2b19d0692,001,2022-04-29_03h16.46.846,classification_task,2021.2.3,Win32,59.86590038,603d221fa82afdb2b19d0692,626b377229c10585ec392f8a,626b3c2b3faadc900a728b6e,,,,,,,,,,,,,,,,,,,,,,,l,1,4.5286,"[""0.059"",""0.423"",""0.519"",""0.581""]","[1,1,1,0]",0,12,12,12,1,1,0,,,1,FALSE,,,,,,,,,,,,,,,,,,,,,,,,,,,,,,
,603d221fa82afdb2b19d0692,001,2022-04-29_03h16.46.846,classification_task,2021.2.3,Win32,59.86590038,603d221fa82afdb2b19d0692,626b377229c10585ec392f8a,626b3c2b3faadc900a728b6e,,,,,,,,,,,,,,,,,,,,,,,l,1,4.6053,"[""0.145"",""0.093"",""0.663"",""0.713""]","[1,0,1,1]",0,13,13,13,1,1,1,,,1,FALSE,,,,,,,,,,,,,,,,,,,,,,,,,,,,,,
,603d221fa82afdb2b19d0692,001,2022-04-29_03h16.46.846,classification_task,2021.2.3,Win32,59.86590038,603d221fa82afdb2b19d0692,626b377229c10585ec392f8a,626b3c2b3faadc900a728b6e,,,,,,,,,,,,,,,,,,,,,,,a,1,5.8136,"[""0.275"",""0.371"",""0.624"",""0.973""]","[1,1,1,0]",0,14,14,14,1,0,1,,,1,FALSE,,,,,,,,,,,,,,,,,,,,,,,,,,,,,,
,603d221fa82afdb2b19d0692,001,2022-04-29_03h16.46.846,classification_task,2021.2.3,Win32,59.86590038,603d221fa82afdb2b19d0692,626b377229c10585ec392f8a,626b3c2b3faadc900a728b6e,,,,,,,,,,,,,,,,,,,,,,,a,1,4.3366,"[""0.225"",""0.966"",""0.806"",""0.931""]","[1,0,1,1]",0,15,15,15,1,0,0,,,1,FALSE,,,,,,,,,,,,,,,,,,,,,,,,,,,,,,
,603d221fa82afdb2b19d0692,001,2022-04-29_03h16.46.846,classification_task,2021.2.3,Win32,59.86590038,603d221fa82afdb2b19d0692,626b377229c10585ec392f8a,626b3c2b3faadc900a728b6e,,,,,,,,,,,,,,,,,,,,,,,,0,,"[""0.059"",""0.423"",""0.581"",""0.766""]","[1,1,0,1]",0,16,16,16,1,1,0,,,1,FALSE,,,,,,,,,,,,,,,,,,,,,,,,,,,,,,
,603d221fa82afdb2b19d0692,001,2022-04-29_03h16.46.846,classification_task,2021.2.3,Win32,59.86590038,603d221fa82afdb2b19d0692,626b377229c10585ec392f8a,626b3c2b3faadc900a728b6e,,,,,,,,,,,,,,,,,,,,,,,a,1,3.7647,"[""0.225"",""0.466"",""0.186"",""0.931""]","[1,1,0,1]",0,17,17,17,1,0,0,,,1,FALSE,,,,,,,,,,,,,,,,,,,,,,,,,,,,,,
,603d221fa82afdb2b19d0692,001,2022-04-29_03h16.46.846,classification_task,2021.2.3,Win32,59.86590038,603d221fa82afdb2b19d0692,626b377229c10585ec392f8a,626b3c2b3faadc900a728b6e,,,,,,,,,,,,,,,,,,,,,,,a,1,4.6094,"[""0.275"",""0.371"",""0.569"",""0.887""]","[1,1,0,1]",0,18,18,18,1,0,1,,,1,FALSE,,,,,,,,,,,,,,,,,,,,,,,,,,,,,,
,603d221fa82afdb2b19d0692,001,2022-04-29_03h16.46.846,classification_task,2021.2.3,Win32,59.86590038,603d221fa82afdb2b19d0692,626b377229c10585ec392f8a,626b3c2b3faadc900a728b6e,,,,,,,,,,,,,,,,,,,,,,,a,1,4.7597,"[""0.576"",""0.371"",""0.624"",""0.887""]","[0,1,1,1]",0,19,19,19,1,0,1,,,1,FALSE,,,,,,,,,,,,,,,,,,,,,,,,,,,,,,
,603d221fa82afdb2b19d0692,001,2022-04-29_03h16.46.846,classification_task,2021.2.3,Win32,59.86590038,603d221fa82afdb2b19d0692,626b377229c10585ec392f8a,626b3c2b3faadc900a728b6e,,,,,,,,,,,,,,,,,,,,,,,l,1,3.1533,"[""0.145"",""0.312"",""0.663"",""0.110""]","[1,1,1,0]",0,20,20,20,1,1,1,,,1,FALSE,,,,,,,,,,,,,,,,,,,,,,,,,,,,,,
,603d221fa82afdb2b19d0692,001,2022-04-29_03h16.46.846,classification_task,2021.2.3,Win32,59.86590038,603d221fa82afdb2b19d0692,626b377229c10585ec392f8a,626b3c2b3faadc900a728b6e,,,,,,,,,,,,,,,,,,,,,,,a,1,3.0876,"[""0.225"",""0.466"",""0.806"",""0.553""]","[1,1,1,0]",0,21,21,21,1,0,0,,,1,FALSE,,,,,,,,,,,,,,,,,,,,,,,,,,,,,,
,603d221fa82afdb2b19d0692,001,2022-04-29_03h16.46.846,classification_task,2021.2.3,Win32,59.86590038,603d221fa82afdb2b19d0692,626b377229c10585ec392f8a,626b3c2b3faadc900a728b6e,,,,,,,,,,,,,,,,,,,,,,,a,1,3.386,"[""0.275"",""0.371"",""0.624"",""0.575""]","[1,1,1,0]",0,22,22,22,1,0,1,,,1,FALSE,,,,,,,,,,,,,,,,,,,,,,,,,,,,,,
,603d221fa82afdb2b19d0692,001,2022-04-29_03h16.46.846,classification_task,2021.2.3,Win32,59.86590038,603d221fa82afdb2b19d0692,626b377229c10585ec392f8a,626b3c2b3faadc900a728b6e,,,,,,,,,,,,,,,,,,,,,,,l,1,2.6025,"[""0.059"",""0.576"",""0.519"",""0.766""]","[1,0,1,1]",0,23,23,23,1,1,0,,,1,FALSE,,,,,,,,,,,,,,,,,,,,,,,,,,,,,,
,603d221fa82afdb2b19d0692,001,2022-04-29_03h16.46.846,classification_task,2021.2.3,Win32,59.86590038,603d221fa82afdb2b19d0692,626b377229c10585ec392f8a,626b3c2b3faadc900a728b6e,,,,,,,,,,,,,,,,,,,,,,,l,0,4.0414,"[""0.225"",""0.093"",""0.806"",""0.931""]","[1,0,1,1]",0,24,24,24,1,0,0,,,1,FALSE,,,,,,,,,,,,,,,,,,,,,,,,,,,,,,
,603d221fa82afdb2b19d0692,001,2022-04-29_03h16.46.846,classification_task,2021.2.3,Win32,59.86590038,603d221fa82afdb2b19d0692,626b377229c10585ec392f8a,626b3c2b3faadc900a728b6e,,,,,,,,,,,,,,,,,,,,,,,l,1,6.6312,"[""0.111"",""0.423"",""0.519"",""0.766""]","[0,1,1,1]",0,25,25,25,1,1,0,,,1,FALSE,,,,,,,,,,,,,,,,,,,,,,,,,,,,,,
,603d221fa82afdb2b19d0692,001,2022-04-29_03h16.46.846,classification_task,2021.2.3,Win32,59.86590038,603d221fa82afdb2b19d0692,626b377229c10585ec392f8a,626b3c2b3faadc900a728b6e,,,,,,,,,,,,,,,,,,,,,,,l,1,4.5944,"[""0.145"",""0.312"",""0.110"",""0.713""]","[1,1,0,1]",0,26,26,26,1,1,1,,,1,FALSE,,,,,,,,,,,,,,,,,,,,,,,,,,,,,,
,603d221fa82afdb2b19d0692,001,2022-04-29_03h16.46.846,classification_task,2021.2.3,Win32,59.86590038,603d221fa82afdb2b19d0692,626b377229c10585ec392f8a,626b3c2b3faadc900a728b6e,,,,,,,,,,,,,,,,,,,,,,,l,1,4.5564,"[""0.145"",""0.970"",""0.663"",""0.713""]","[1,0,1,1]",0,27,27,27,1,1,1,,,1,FALSE,,,,,,,,,,,,,,,,,,,,,,,,,,,,,,
,603d221fa82afdb2b19d0692,001,2022-04-29_03h16.46.846,classification_task,2021.2.3,Win32,59.86590038,603d221fa82afdb2b19d0692,626b377229c10585ec392f8a,626b3c2b3faadc900a728b6e,,,,,,,,,,,,,,,,,,,,,,,l,0,4.4265,"[""0.275"",""0.111"",""0.624"",""0.887""]","[1,0,1,1]",0,28,28,28,1,0,1,,,1,FALSE,,,,,,,,,,,,,,,,,,,,,,,,,,,,,,
,603d221fa82afdb2b19d0692,001,2022-04-29_03h16.46.846,classification_task,2021.2.3,Win32,59.86590038,603d221fa82afdb2b19d0692,626b377229c10585ec392f8a,626b3c2b3faadc900a728b6e,,,,,,,,,,,,,,,,,,,,,,,a,1,5.353,"[""0.966"",""0.466"",""0.806"",""0.931""]","[0,1,1,1]",0,29,29,29,1,0,0,,,1,FALSE,,,,,,,,,,,,,,,,,,,,,,,,,,,,,,
,603d221fa82afdb2b19d0692,001,2022-04-29_03h16.46.846,classification_task,2021.2.3,Win32,59.86590038,603d221fa82afdb2b19d0692,626b377229c10585ec392f8a,626b3c2b3faadc900a728b6e,,,,,,,,,,,,,,,,,,,,,,,a,0,3.7817,"[""0.576"",""0.312"",""0.663"",""0.713""]","[0,1,1,1]",0,30,30,30,1,1,1,,,1,FALSE,,,,,,,,,,,,,,,,,,,,,,,,,,,,,,
,603d221fa82afdb2b19d0692,001,2022-04-29_03h16.46.846,classification_task,2021.2.3,Win32,59.86590038,603d221fa82afdb2b19d0692,626b377229c10585ec392f8a,626b3c2b3faadc900a728b6e,,,,,,,,,,,,,,,,,,,,,,,l,1,4.7738,"[""0.059"",""0.423"",""0.519"",""0.569""]","[1,1,1,0]",0,31,31,31,1,1,0,,,1,FALSE,,,,,,,,,,,,,,,,,,,,,,,,,,,,,,
,603d221fa82afdb2b19d0692,001,2022-04-29_03h16.46.846,classification_task,2021.2.3,Win32,59.86590038,603d221fa82afdb2b19d0692,626b377229c10585ec392f8a,626b3c2b3faadc900a728b6e,,,,,,,,,,,,,,,,,,,,,,,a,0,7.7969,"[""0.111"",""0.423"",""0.519"",""0.766""]","[0,1,1,1]",0,32,32,32,1,1,0,,,1,FALSE,,,,,,,,,,,,,,,,,,,,,,,,,,,,,,
,603d221fa82afdb2b19d0692,001,2022-04-29_03h16.46.846,classification_task,2021.2.3,Win32,59.86590038,603d221fa82afdb2b19d0692,626b377229c10585ec392f8a,626b3c2b3faadc900a728b6e,,,,,,,,,,,,,,,,,,,,,,,l,0,4.5095,"[""0.225"",""0.466"",""0.110"",""0.931""]","[1,1,0,1]",0,33,33,33,1,0,0,,,1,FALSE,,,,,,,,,,,,,,,,,,,,,,,,,,,,,,
,603d221fa82afdb2b19d0692,001,2022-04-29_03h16.46.846,classification_task,2021.2.3,Win32,59.86590038,603d221fa82afdb2b19d0692,626b377229c10585ec392f8a,626b3c2b3faadc900a728b6e,,,,,,,,,,,,,,,,,,,,,,,a,1,4.3077,"[""0.557"",""0.371"",""0.624"",""0.887""]","[0,1,1,1]",0,34,34,34,1,0,1,,,1,FALSE,,,,,,,,,,,,,,,,,,,,,,,,,,,,,,
,603d221fa82afdb2b19d0692,001,2022-04-29_03h16.46.846,classification_task,2021.2.3,Win32,59.86590038,603d221fa82afdb2b19d0692,626b377229c10585ec392f8a,626b3c2b3faadc900a728b6e,,,,,,,,,,,,,,,,,,,,,,,a,0,3.5411,"[""0.145"",""0.576"",""0.663"",""0.713""]","[1,0,1,1]",0,35,35,35,1,1,1,,,1,FALSE,,,,,,,,,,,,,,,,,,,,,,,,,,,,,,
,603d221fa82afdb2b19d0692,001,2022-04-29_03h16.46.846,classification_task,2021.2.3,Win32,59.86590038,603d221fa82afdb2b19d0692,626b377229c10585ec392f8a,626b3c2b3faadc900a728b6e,,,,,,,,,,,,,,,,,,,,,,,l,1,2.4172,"[""0.145"",""0.312"",""0.663"",""0.580""]","[1,1,1,0]",0,36,36,36,1,1,1,,,1,FALSE,,,,,,,,,,,,,,,,,,,,,,,,,,,,,,
,603d221fa82afdb2b19d0692,001,2022-04-29_03h16.46.846,classification_task,2021.2.3,Win32,59.86590038,603d221fa82afdb2b19d0692,626b377229c10585ec392f8a,626b3c2b3faadc900a728b6e,,,,,,,,,,,,,,,,,,,,,,,a,1,3.3731,"[""0.580"",""0.466"",""0.806"",""0.931""]","[0,1,1,1]",0,37,37,37,1,0,0,,,1,FALSE,,,,,,,,,,,,,,,,,,,,,,,,,,,,,,
,603d221fa82afdb2b19d0692,001,2022-04-29_03h16.46.846,classification_task,2021.2.3,Win32,59.86590038,603d221fa82afdb2b19d0692,626b377229c10585ec392f8a,626b3c2b3faadc900a728b6e,,,,,,,,,,,,,,,,,,,,,,,l,1,1.7366,"[""0.554"",""0.312"",""0.663"",""0.713""]","[0,1,1,1]",0,38,38,38,1,1,1,,,1,FALSE,,,,,,,,,,,,,,,,,,,,,,,,,,,,,,
,603d221fa82afdb2b19d0692,001,2022-04-29_03h16.46.846,classification_task,2021.2.3,Win32,59.86590038,603d221fa82afdb2b19d0692,626b377229c10585ec392f8a,626b3c2b3faadc900a728b6e,,,,,,,,,,,,,,,,,,,,,,,l,0,2.4395,"[""0.275"",""0.371"",""0.624"",""0.970""]","[1,1,1,0]",0,39,39,39,1,0,1,,,1,FALSE,,,,,,,,,,,,,,,,,,,,,,,,,,,,,,
,603d221fa82afdb2b19d0692,001,2022-04-29_03h16.46.846,classification_task,2021.2.3,Win32,59.86590038,603d221fa82afdb2b19d0692,626b377229c10585ec392f8a,626b3c2b3faadc900a728b6e,,,,,,,,,,,,,,,,,,,,,,,a,1,2.0536,"[""0.275"",""0.580"",""0.624"",""0.887""]","[1,0,1,1]",0,40,40,40,1,0,1,,,1,FALSE,,,,,,,,,,,,,,,,,,,,,,,,,,,,,,
,603d221fa82afdb2b19d0692,001,2022-04-29_03h16.46.846,classification_task,2021.2.3,Win32,59.86590038,603d221fa82afdb2b19d0692,626b377229c10585ec392f8a,626b3c2b3faadc900a728b6e,,,,,,,,,,,,,,,,,,,,,,,a,0,4.6052,"[""0.059"",""0.423"",""0.557"",""0.766""]","[1,1,0,1]",0,41,41,41,1,1,0,,,1,FALSE,,,,,,,,,,,,,,,,,,,,,,,,,,,,,,
,603d221fa82afdb2b19d0692,001,2022-04-29_03h16.46.846,classification_task,2021.2.3,Win32,59.86590038,603d221fa82afdb2b19d0692,626b377229c10585ec392f8a,626b3c2b3faadc900a728b6e,,,,,,,,,,,,,,,,,,,,,,,l,1,1.4535,"[""0.059"",""0.423"",""0.519"",""0.576""]","[1,1,1,0]",0,42,42,42,1,1,0,,,1,FALSE,,,,,,,,,,,,,,,,,,,,,,,,,,,,,,
,603d221fa82afdb2b19d0692,001,2022-04-29_03h16.46.846,classification_task,2021.2.3,Win32,59.86590038,603d221fa82afdb2b19d0692,626b377229c10585ec392f8a,626b3c2b3faadc900a728b6e,,,,,,,,,,,,,,,,,,,,,,,a,1,2.4752,"[""0.275"",""0.371"",""0.093"",""0.887""]","[1,1,0,1]",0,43,43,43,1,0,1,,,1,FALSE,,,,,,,,,,,,,,,,,,,,,,,,,,,,,,
,603d221fa82afdb2b19d0692,001,2022-04-29_03h16.46.846,classification_task,2021.2.3,Win32,59.86590038,603d221fa82afdb2b19d0692,626b377229c10585ec392f8a,626b3c2b3faadc900a728b6e,,,,,,,,,,,,,,,,,,,,,,,a,1,2.1034,"[""0.225"",""0.186"",""0.806"",""0.931""]","[1,0,1,1]",0,44,44,44,1,0,0,,,1,FALSE,,,,,,,,,,,,,,,,,,,,,,,,,,,,,,
,603d221fa82afdb2b19d0692,001,2022-04-29_03h16.46.846,classification_task,2021.2.3,Win32,59.86590038,603d221fa82afdb2b19d0692,626b377229c10585ec392f8a,626b3c2b3faadc900a728b6e,,,,,,,,,,,,,,,,,,,,,,,l,1,1.419,"[""0.145"",""0.312"",""0.575"",""0.713""]","[1,1,0,1]",0,45,45,45,1,1,1,,,1,FALSE,,,,,,,,,,,,,,,,,,,,,,,,,,,,,,
,603d221fa82afdb2b19d0692,001,2022-04-29_03h16.46.846,classification_task,2021.2.3,Win32,59.86590038,603d221fa82afdb2b19d0692,626b377229c10585ec392f8a,626b3c2b3faadc900a728b6e,,,,,,,,,,,,,,,,,,,,,,,l,0,2.693,"[""0.225"",""0.466"",""0.806"",""0.569""]","[1,1,1,0]",0,46,46,46,1,0,0,,,1,FALSE,,,,,,,,,,,,,,,,,,,,,,,,,,,,,,
,603d221fa82afdb2b19d0692,001,2022-04-29_03h16.46.846,classification_task,2021.2.3,Win32,59.86590038,603d221fa82afdb2b19d0692,626b377229c10585ec392f8a,626b3c2b3faadc900a728b6e,,,,,,,,,,,,,,,,,,,,,,,a,0,2.0207,"[""0.059"",""0.970"",""0.519"",""0.766""]","[1,0,1,1]",0,47,47,47,1,1,0,,,1,FALSE,,,,,,,,,,,,,,,,,,,,,,,,,,,,,,
,603d221fa82afdb2b19d0692,001,2022-04-29_03h16.46.846,classification_task,2021.2.3,Win32,59.86590038,603d221fa82afdb2b19d0692,626b377229c10585ec392f8a,626b3c2b3faadc900a728b6e,,,,,,,,,,,,,,,,,,,,,,,a,0,1.7667,"[""0.059"",""0.966"",""0.519"",""0.766""]","[1,0,1,1]",0,48,48,48,1,1,0,,,1,FALSE,,,,,,,,,,,,,,,,,,,,,,,,,,,,,,
,603d221fa82afdb2b19d0692,001,2022-04-29_03h16.46.846,classification_task,2021.2.3,Win32,59.86590038,603d221fa82afdb2b19d0692,626b377229c10585ec392f8a,626b3c2b3faadc900a728b6e,,,,,,,,,,,,,,,,,,,,,,,a,1,1.3036,"[""0.275"",""0.371"",""0.186"",""0.887""]","[1,1,0,1]",0,49,49,49,1,0,1,,,1,FALSE,,,,,,,,,,,,,,,,,,,,,,,,,,,,,,
,603d221fa82afdb2b19d0692,001,2022-04-29_03h16.46.846,classification_task,2021.2.3,Win32,59.86590038,603d221fa82afdb2b19d0692,626b377229c10585ec392f8a,626b3c2b3faadc900a728b6e,,,,,,,,,,,,,,,,,,,,,,,a,0,2.9571,"[""0.973"",""0.312"",""0.663"",""0.713""]","[0,1,1,1]",0,50,50,50,1,1,1,,,1,FALSE,,,,,,,,,,,,,,,,,,,,,,,,,,,,,,
,603d221fa82afdb2b19d0692,001,2022-04-29_03h16.46.846,classification_task,2021.2.3,Win32,59.86590038,603d221fa82afdb2b19d0692,626b377229c10585ec392f8a,626b3c2b3faadc900a728b6e,,,,,,,,,,,,,,,,,,,,,,,l,0,1.4324,"[""0.225"",""0.580"",""0.806"",""0.931""]","[1,0,1,1]",0,51,51,51,1,0,0,,,1,FALSE,,,,,,,,,,,,,,,,,,,,,,,,,,,,,,
,603d221fa82afdb2b19d0692,001,2022-04-29_03h16.46.846,classification_task,2021.2.3,Win32,59.86590038,603d221fa82afdb2b19d0692,626b377229c10585ec392f8a,626b3c2b3faadc900a728b6e,,,,,,,,,,,,,,,,,,,,,,,l,0,1.0696,"[""0.569"",""0.466"",""0.806"",""0.931""]","[0,1,1,1]",0,52,52,52,1,0,0,,,1,FALSE,,,,,,,,,,,,,,,,,,,,,,,,,,,,,,
,603d221fa82afdb2b19d0692,001,2022-04-29_03h16.46.846,classification_task,2021.2.3,Win32,59.86590038,603d221fa82afdb2b19d0692,626b377229c10585ec392f8a,626b3c2b3faadc900a728b6e,,,,,,,,,,,,,,,,,,,,,,,a,1,0.7322,"[""0.225"",""0.466"",""0.806"",""0.186""]","[1,1,1,0]",0,53,53,53,1,0,0,,,1,FALSE,,,,,,,,,,,,,,,,,,,,,,,,,,,,,,
,603d221fa82afdb2b19d0692,001,2022-04-29_03h16.46.846,classification_task,2021.2.3,Win32,59.86590038,603d221fa82afdb2b19d0692,626b377229c10585ec392f8a,626b3c2b3faadc900a728b6e,,,,,,,,,,,,,,,,,,,,,,,a,1,1.537,"[""0.275"",""0.186"",""0.624"",""0.887""]","[1,0,1,1]",0,54,54,54,1,0,1,,,1,FALSE,,,,,,,,,,,,,,,,,,,,,,,,,,,,,,
,603d221fa82afdb2b19d0692,001,2022-04-29_03h16.46.846,classification_task,2021.2.3,Win32,59.86590038,603d221fa82afdb2b19d0692,626b377229c10585ec392f8a,626b3c2b3faadc900a728b6e,,,,,,,,,,,,,,,,,,,,,,,a,1,3.4054,"[""0.580"",""0.371"",""0.624"",""0.887""]","[0,1,1,1]",0,55,55,55,1,0,1,,,1,FALSE,,,,,,,,,,,,,,,,,,,,,,,,,,,,,,
,603d221fa82afdb2b19d0692,001,2022-04-29_03h16.46.846,classification_task,2021.2.3,Win32,59.86590038,603d221fa82afdb2b19d0692,626b377229c10585ec392f8a,626b3c2b3faadc900a728b6e,,,,,,,,,,,,,,,,,,,,,,,l,1,2.3781,"[""0.059"",""0.423"",""0.111"",""0.766""]","[1,1,0,1]",0,56,56,56,1,1,0,,,1,FALSE,,,,,,,,,,,,,,,,,,,,,,,,,,,,,,
,603d221fa82afdb2b19d0692,001,2022-04-29_03h16.46.846,classification_task,2021.2.3,Win32,59.86590038,603d221fa82afdb2b19d0692,626b377229c10585ec392f8a,626b3c2b3faadc900a728b6e,,,,,,,,,,,,,,,,,,,,,,,l,1,1.9862,"[""0.145"",""0.970"",""0.663"",""0.713""]","[1,0,1,1]",0,57,57,57,1,1,1,,,1,FALSE,,,,,,,,,,,,,,,,,,,,,,,,,,,,,,
,603d221fa82afdb2b19d0692,001,2022-04-29_03h16.46.846,classification_task,2021.2.3,Win32,59.86590038,603d221fa82afdb2b19d0692,626b377229c10585ec392f8a,626b3c2b3faadc900a728b6e,,,,,,,,,,,,,,,,,,,,,,,a,0,4.1933,"[""0.145"",""0.312"",""0.580"",""0.713""]","[1,1,0,1]",0,58,58,58,1,1,1,,,1,FALSE,,,,,,,,,,,,,,,,,,,,,,,,,,,,,,
,603d221fa82afdb2b19d0692,001,2022-04-29_03h16.46.846,classification_task,2021.2.3,Win32,59.86590038,603d221fa82afdb2b19d0692,626b377229c10585ec392f8a,626b3c2b3faadc900a728b6e,,,,,,,,,,,,,,,,,,,,,,,a,1,2.1615,"[""0.275"",""0.371"",""0.624"",""0.575""]","[1,1,1,0]",0,59,59,59,1,0,1,,,1,FALSE,,,,,,,,,,,,,,,,,,,,,,,,,,,,,,
,603d221fa82afdb2b19d0692,001,2022-04-29_03h16.46.846,classification_task,2021.2.3,Win32,59.86590038,603d221fa82afdb2b19d0692,626b377229c10585ec392f8a,626b3c2b3faadc900a728b6e,,,,,,,,,,,,,,,,,,,,,,,a,0,1.8375,"[""0.059"",""0.423"",""0.519"",""0.581""]","[1,1,1,0]",0,60,60,60,1,1,0,,,1,FALSE,,,,,,,,,,,,,,,,,,,,,,,,,,,,,,
,603d221fa82afdb2b19d0692,001,2022-04-29_03h16.46.846,classification_task,2021.2.3,Win32,59.86590038,603d221fa82afdb2b19d0692,626b377229c10585ec392f8a,626b3c2b3faadc900a728b6e,,,,,,,,,,,,,,,,,,,,,,,l,0,2.3488,"[""0.225"",""0.466"",""0.575"",""0.931""]","[1,1,0,1]",0,61,61,61,1,0,0,,,1,FALSE,,,,,,,,,,,,,,,,,,,,,,,,,,,,,,
,603d221fa82afdb2b19d0692,001,2022-04-29_03h16.46.846,classification_task,2021.2.3,Win32,59.86590038,603d221fa82afdb2b19d0692,626b377229c10585ec392f8a,626b3c2b3faadc900a728b6e,,,,,,,,,,,,,,,,,,,,,,,l,1,1.6867,"[""0.970"",""0.423"",""0.519"",""0.766""]","[0,1,1,1]",0,62,62,62,1,1,0,,,1,FALSE,,,,,,,,,,,,,,,,,,,,,,,,,,,,,,
,603d221fa82afdb2b19d0692,001,2022-04-29_03h16.46.846,classification_task,2021.2.3,Win32,59.86590038,603d221fa82afdb2b19d0692,626b377229c10585ec392f8a,626b3c2b3faadc900a728b6e,,,,,,,,,,,,,,,,,,,,,,,a,0,2.5193,"[""0.145"",""0.312"",""0.663"",""0.554""]","[1,1,1,0]",0,63,63,63,1,1,1,,,1,FALSE,,,,,,,,,,,,,,,,,,,,,,,,,,,,,,
,603d221fa82afdb2b19d0692,001,2022-04-29_03h16.46.846,classification_task,2021.2.3,Win32,59.86590038,603d221fa82afdb2b19d0692,626b377229c10585ec392f8a,626b3c2b3faadc900a728b6e,,,,,,,,,,,,,,,,,,,,,,,,,,,,,,,,,,,,,,,0, ,,0,7.445712081,572.4899,0,0,0,0,1,2,1,,,,,,,,,,,,,,,,,
,603d221fa82afdb2b19d0692,001,2022-04-29_03h16.46.846,classification_task,2021.2.3,Win32,59.86590038,603d221fa82afdb2b19d0692,626b377229c10585ec392f8a,626b3c2b3faadc900a728b6e,,,,,,,,,,,,,,,,,,,,,,,,,,,,,,,,,,,,,,,1,  ,,0,9.030257937,577.3702,0,0,0,0,1,2,1,,,,,,,,,,,,,,,,,
,603d221fa82afdb2b19d0692,001,2022-04-29_03h16.46.846,classification_task,2021.2.3,Win32,59.86590038,603d221fa82afdb2b19d0692,626b377229c10585ec392f8a,626b3c2b3faadc900a728b6e,,,,,,,,,,,,,,,,,,,,,,,,,,,,,,,,,,,,,,,2,  ,,0,7.066798942,584.4636,0,0,0,0,1,2,1,,,,,,,,,,,,,,,,,
,603d221fa82afdb2b19d0692,001,2022-04-29_03h16.46.846,classification_task,2021.2.3,Win32,59.86590038,603d221fa82afdb2b19d0692,626b377229c10585ec392f8a,626b3c2b3faadc900a728b6e,,,,,,,,,,,,,,,,,,,,,,,,,,,,,,,,,,,,,,,,,,,,,0,0,0,0,1,,1,,,,,,,,,,,,,,,,,
,603d221fa82afdb2b19d0692,001,2022-04-29_03h16.46.846,classification_task,2021.2.3,Win32,59.86590038,603d221fa82afdb2b19d0692,626b377229c10585ec392f8a,626b3c2b3faadc900a728b6e,,,,,,,,,,,,,,,,,,,,,space,13.8825,a,1,4.4681,"[""0.225"",""0.466"",""0.806"",""0.553""]","[1,1,1,0]",0,0,0,0,1,0,0,,,1,FALSE,,,,,,,,,,,,,,,,,,,,,,,,,,,,,,
,603d221fa82afdb2b19d0692,001,2022-04-29_03h16.46.846,classification_task,2021.2.3,Win32,59.86590038,603d221fa82afdb2b19d0692,626b377229c10585ec392f8a,626b3c2b3faadc900a728b6e,,,,,,,,,,,,,,,,,,,,,,,l,1,6.2391,"[""0.145"",""0.312"",""0.663"",""0.576""]","[1,1,1,0]",0,1,1,1,1,1,1,,,1,FALSE,,,,,,,,,,,,,,,,,,,,,,,,,,,,,,
,603d221fa82afdb2b19d0692,001,2022-04-29_03h16.46.846,classification_task,2021.2.3,Win32,59.86590038,603d221fa82afdb2b19d0692,626b377229c10585ec392f8a,626b3c2b3faadc900a728b6e,,,,,,,,,,,,,,,,,,,,,,,l,0,2.2104,"[""0.225"",""0.581"",""0.806"",""0.931""]","[1,0,1,1]",0,2,2,2,1,0,0,,,1,FALSE,,,,,,,,,,,,,,,,,,,,,,,,,,,,,,
,603d221fa82afdb2b19d0692,001,2022-04-29_03h16.46.846,classification_task,2021.2.3,Win32,59.86590038,603d221fa82afdb2b19d0692,626b377229c10585ec392f8a,626b3c2b3faadc900a728b6e,,,,,,,,,,,,,,,,,,,,,,,a,1,1.4198,"[""0.275"",""0.576"",""0.624"",""0.887""]","[1,0,1,1]",0,3,3,3,1,0,1,,,1,FALSE,,,,,,,,,,,,,,,,,,,,,,,,,,,,,,
,603d221fa82afdb2b19d0692,001,2022-04-29_03h16.46.846,classification_task,2021.2.3,Win32,59.86590038,603d221fa82afdb2b19d0692,626b377229c10585ec392f8a,626b3c2b3faadc900a728b6e,,,,,,,,,,,,,,,,,,,,,,,a,0,1.6687,"[""0.059"",""0.423"",""0.111"",""0.766""]","[1,1,0,1]",0,4,4,4,1,1,0,,,1,FALSE,,,,,,,,,,,,,,,,,,,,,,,,,,,,,,
,603d221fa82afdb2b19d0692,001,2022-04-29_03h16.46.846,classification_task,2021.2.3,Win32,59.86590038,603d221fa82afdb2b19d0692,626b377229c10585ec392f8a,626b3c2b3faadc900a728b6e,,,,,,,,,,,,,,,,,,,,,,,l,1,0.9925,"[""0.145"",""0.110"",""0.663"",""0.713""]","[1,0,1,1]",0,5,5,5,1,1,1,,,1,FALSE,,,,,,,,,,,,,,,,,,,,,,,,,,,,,,
,603d221fa82afdb2b19d0692,001,2022-04-29_03h16.46.846,classification_task,2021.2.3,Win32,59.86590038,603d221fa82afdb2b19d0692,626b377229c10585ec392f8a,626b3c2b3faadc900a728b6e,,,,,,,,,,,,,,,,,,,,,,,l,1,1.3856,"[""0.059"",""0.423"",""0.519"",""0.576""]","[1,1,1,0]",0,6,6,6,1,1,0,,,1,FALSE,,,,,,,,,,,,,,,,,,,,,,,,,,,,,,
,603d221fa82afdb2b19d0692,001,2022-04-29_03h16.46.846,classification_task,2021.2.3,Win32,59.86590038,603d221fa82afdb2b19d0692,626b377229c10585ec392f8a,626b3c2b3faadc900a728b6e,,,,,,,,,,,,,,,,,,,,,,,a,1,0.8488,"[""0.110"",""0.371"",""0.624"",""0.887""]","[0,1,1,1]",0,7,7,7,1,0,1,,,1,FALSE,,,,,,,,,,,,,,,,,,,,,,,,,,,,,,
,603d221fa82afdb2b19d0692,001,2022-04-29_03h16.46.846,classification_task,2021.2.3,Win32,59.86590038,603d221fa82afdb2b19d0692,626b377229c10585ec392f8a,626b3c2b3faadc900a728b6e,,,,,,,,,,,,,,,,,,,,,,,a,1,1.4436,"[""0.100"",""0.466"",""0.806"",""0.931""]","[0,1,1,1]",0,8,8,8,1,0,0,,,1,FALSE,,,,,,,,,,,,,,,,,,,,,,,,,,,,,,
,603d221fa82afdb2b19d0692,001,2022-04-29_03h16.46.846,classification_task,2021.2.3,Win32,59.86590038,603d221fa82afdb2b19d0692,626b377229c10585ec392f8a,626b3c2b3faadc900a728b6e,,,,,,,,,,,,,,,,,,,,,,,a,1,1.0157,"[""0.275"",""0.371"",""0.624"",""0.973""]","[1,1,1,0]",0,9,9,9,1,0,1,,,1,FALSE,,,,,,,,,,,,,,,,,,,,,,,,,,,,,,
,603d221fa82afdb2b19d0692,001,2022-04-29_03h16.46.846,classification_task,2021.2.3,Win32,59.86590038,603d221fa82afdb2b19d0692,626b377229c10585ec392f8a,626b3c2b3faadc900a728b6e,,,,,,,,,,,,,,,,,,,,,,,l,0,1.4836,"[""0.225"",""0.466"",""0.966"",""0.931""]","[1,1,0,1]",0,10,10,10,1,0,0,,,1,FALSE,,,,,,,,,,,,,,,,,,,,,,,,,,,,,,
,603d221fa82afdb2b19d0692,001,2022-04-29_03h16.46.846,classification_task,2021.2.3,Win32,59.86590038,603d221fa82afdb2b19d0692,626b377229c10585ec392f8a,626b3c2b3faadc900a728b6e,,,,,,,,,,,,,,,,,,,,,,,l,1,1.566,"[""0.111"",""0.312"",""0.663"",""0.713""]","[0,1,1,1]",0,11,11,11,1,1,1,,,1,FALSE,,,,,,,,,,,,,,,,,,,,,,,,,,,,,,
,603d221fa82afdb2b19d0692,001,2022-04-29_03h16.46.846,classification_task,2021.2.3,Win32,59.86590038,603d221fa82afdb2b19d0692,626b377229c10585ec392f8a,626b3c2b3faadc900a728b6e,,,,,,,,,,,,,,,,,,,,,,,l,1,1.6682,"[""0.569"",""0.423"",""0.519"",""0.766""]","[0,1,1,1]",0,12,12,12,1,1,0,,,1,FALSE,,,,,,,,,,,,,,,,,,,,,,,,,,,,,,
,603d221fa82afdb2b19d0692,001,2022-04-29_03h16.46.846,classification_task,2021.2.3,Win32,59.86590038,603d221fa82afdb2b19d0692,626b377229c10585ec392f8a,626b3c2b3faadc900a728b6e,,,,,,,,,,,,,,,,,,,,,,,a,0,1.3885,"[""0.059"",""0.569"",""0.519"",""0.766""]","[1,0,1,1]",0,13,13,13,1,1,0,,,1,FALSE,,,,,,,,,,,,,,,,,,,,,,,,,,,,,,
,603d221fa82afdb2b19d0692,001,2022-04-29_03h16.46.846,classification_task,2021.2.3,Win32,59.86590038,603d221fa82afdb2b19d0692,626b377229c10585ec392f8a,626b3c2b3faadc900a728b6e,,,,,,,,,,,,,,,,,,,,,,,a,1,1.0461,"[""0.275"",""0.371"",""0.973"",""0.887""]","[1,1,0,1]",0,14,14,14,1,0,1,,,1,FALSE,,,,,,,,,,,,,,,,,,,,,,,,,,,,,,
,603d221fa82afdb2b19d0692,001,2022-04-29_03h16.46.846,classification_task,2021.2.3,Win32,59.86590038,603d221fa82afdb2b19d0692,626b377229c10585ec392f8a,626b3c2b3faadc900a728b6e,,,,,,,,,,,,,,,,,,,,,,,l,1,1.3084,"[""0.145"",""0.312"",""0.581"",""0.713""]","[1,1,0,1]",0,15,15,15,1,1,1,,,1,FALSE,,,,,,,,,,,,,,,,,,,,,,,,,,,,,,
,603d221fa82afdb2b19d0692,001,2022-04-29_03h16.46.846,classification_task,2021.2.3,Win32,59.86590038,603d221fa82afdb2b19d0692,626b377229c10585ec392f8a,626b3c2b3faadc900a728b6e,,,,,,,,,,,,,,,,,,,,,,,l,1,1.4166,"[""0.100"",""0.423"",""0.519"",""0.766""]","[0,1,1,1]",0,16,16,16,1,1,0,,,1,FALSE,,,,,,,,,,,,,,,,,,,,,,,,,,,,,,
,603d221fa82afdb2b19d0692,001,2022-04-29_03h16.46.846,classification_task,2021.2.3,Win32,59.86590038,603d221fa82afdb2b19d0692,626b377229c10585ec392f8a,626b3c2b3faadc900a728b6e,,,,,,,,,,,,,,,,,,,,,,,a,1,0.9139,"[""0.110"",""0.371"",""0.624"",""0.887""]","[0,1,1,1]",0,17,17,17,1,0,1,,,1,FALSE,,,,,,,,,,,,,,,,,,,,,,,,,,,,,,
,603d221fa82afdb2b19d0692,001,2022-04-29_03h16.46.846,classification_task,2021.2.3,Win32,59.86590038,603d221fa82afdb2b19d0692,626b377229c10585ec392f8a,626b3c2b3faadc900a728b6e,,,,,,,,,,,,,,,,,,,,,,,a,0,2.2798,"[""0.059"",""0.575"",""0.519"",""0.766""]","[1,0,1,1]",0,18,18,18,1,1,0,,,1,FALSE,,,,,,,,,,,,,,,,,,,,,,,,,,,,,,
,603d221fa82afdb2b19d0692,001,2022-04-29_03h16.46.846,classification_task,2021.2.3,Win32,59.86590038,603d221fa82afdb2b19d0692,626b377229c10585ec392f8a,626b3c2b3faadc900a728b6e,,,,,,,,,,,,,,,,,,,,,,,l,0,0.9014,"[""0.100"",""0.466"",""0.806"",""0.931""]","[0,1,1,1]",0,19,19,19,1,0,0,,,1,FALSE,,,,,,,,,,,,,,,,,,,,,,,,,,,,,,
,603d221fa82afdb2b19d0692,001,2022-04-29_03h16.46.846,classification_task,2021.2.3,Win32,59.86590038,603d221fa82afdb2b19d0692,626b377229c10585ec392f8a,626b3c2b3faadc900a728b6e,,,,,,,,,,,,,,,,,,,,,,,a,1,1.0963,"[""0.275"",""0.371"",""0.100"",""0.887""]","[1,1,0,1]",0,20,20,20,1,0,1,,,1,FALSE,,,,,,,,,,,,,,,,,,,,,,,,,,,,,,
,603d221fa82afdb2b19d0692,001,2022-04-29_03h16.46.846,classification_task,2021.2.3,Win32,59.86590038,603d221fa82afdb2b19d0692,626b377229c10585ec392f8a,626b3c2b3faadc900a728b6e,,,,,,,,,,,,,,,,,,,,,,,a,1,0.9019,"[""0.275"",""0.371"",""0.624"",""0.569""]","[1,1,1,0]",0,21,21,21,1,0,1,,,1,FALSE,,,,,,,,,,,,,,,,,,,,,,,,,,,,,,
,603d221fa82afdb2b19d0692,001,2022-04-29_03h16.46.846,classification_task,2021.2.3,Win32,59.86590038,603d221fa82afdb2b19d0692,626b377229c10585ec392f8a,626b3c2b3faadc900a728b6e,,,,,,,,,,,,,,,,,,,,,,,l,0,2.3224,"[""0.225"",""0.100"",""0.806"",""0.931""]","[1,0,1,1]",0,22,22,22,1,0,0,,,1,FALSE,,,,,,,,,,,,,,,,,,,,,,,,,,,,,,
,603d221fa82afdb2b19d0692,001,2022-04-29_03h16.46.846,classification_task,2021.2.3,Win32,59.86590038,603d221fa82afdb2b19d0692,626b377229c10585ec392f8a,626b3c2b3faadc900a728b6e,,,,,,,,,,,,,,,,,,,,,,,a,1,1.263,"[""0.275"",""0.576"",""0.624"",""0.887""]","[1,0,1,1]",0,23,23,23,1,0,1,,,1,FALSE,,,,,,,,,,,,,,,,,,,,,,,,,,,,,,
,603d221fa82afdb2b19d0692,001,2022-04-29_03h16.46.846,classification_task,2021.2.3,Win32,59.86590038,603d221fa82afdb2b19d0692,626b377229c10585ec392f8a,626b3c2b3faadc900a728b6e,,,,,,,,,,,,,,,,,,,,,,,a,0,0.7176,"[""0.059"",""0.423"",""0.519"",""0.575""]","[1,1,1,0]",0,24,24,24,1,1,0,,,1,FALSE,,,,,,,,,,,,,,,,,,,,,,,,,,,,,,
,603d221fa82afdb2b19d0692,001,2022-04-29_03h16.46.846,classification_task,2021.2.3,Win32,59.86590038,603d221fa82afdb2b19d0692,626b377229c10585ec392f8a,626b3c2b3faadc900a728b6e,,,,,,,,,,,,,,,,,,,,,,,a,0,1.6872,"[""0.059"",""0.423"",""0.576"",""0.766""]","[1,1,0,1]",0,25,25,25,1,1,0,,,1,FALSE,,,,,,,,,,,,,,,,,,,,,,,,,,,,,,
,603d221fa82afdb2b19d0692,001,2022-04-29_03h16.46.846,classification_task,2021.2.3,Win32,59.86590038,603d221fa82afdb2b19d0692,626b377229c10585ec392f8a,626b3c2b3faadc900a728b6e,,,,,,,,,,,,,,,,,,,,,,,l,0,0.7,"[""0.225"",""0.466"",""0.806"",""0.580""]","[1,1,1,0]",0,26,26,26,1,0,0,,,1,FALSE,,,,,,,,,,,,,,,,,,,,,,,,,,,,,,
,603d221fa82afdb2b19d0692,001,2022-04-29_03h16.46.846,classification_task,2021.2.3,Win32,59.86590038,603d221fa82afdb2b19d0692,626b377229c10585ec392f8a,626b3c2b3faadc900a728b6e,,,,,,,,,,,,,,,,,,,,,,,a,1,1.3851,"[""0.225"",""0.466"",""0.557"",""0.931""]","[1,1,0,1]",0,27,27,27,1,0,0,,,1,FALSE,,,,,,,,,,,,,,,,,,,,,,,,,,,,,,
,603d221fa82afdb2b19d0692,001,2022-04-29_03h16.46.846,classification_task,2021.2.3,Win32,59.86590038,603d221fa82afdb2b19d0692,626b377229c10585ec392f8a,626b3c2b3faadc900a728b6e,,,,,,,,,,,,,,,,,,,,,,,l,1,1.2432,"[""0.145"",""0.569"",""0.663"",""0.713""]","[1,0,1,1]",0,28,28,28,1,1,1,,,1,FALSE,,,,,,,,,,,,,,,,,,,,,,,,,,,,,,
,603d221fa82afdb2b19d0692,001,2022-04-29_03h16.46.846,classification_task,2021.2.3,Win32,59.86590038,603d221fa82afdb2b19d0692,626b377229c10585ec392f8a,626b3c2b3faadc900a728b6e,,,,,,,,,,,,,,,,,,,,,,,l,1,1.0097,"[""0.576"",""0.312"",""0.663"",""0.713""]","[0,1,1,1]",0,29,29,29,1,1,1,,,1,FALSE,,,,,,,,,,,,,,,,,,,,,,,,,,,,,,
,603d221fa82afdb2b19d0692,001,2022-04-29_03h16.46.846,classification_task,2021.2.3,Win32,59.86590038,603d221fa82afdb2b19d0692,626b377229c10585ec392f8a,626b3c2b3faadc900a728b6e,,,,,,,,,,,,,,,,,,,,,,,l,1,1.1685,"[""0.145"",""0.312"",""0.663"",""0.581""]","[1,1,1,0]",0,30,30,30,1,1,1,,,1,FALSE,,,,,,,,,,,,,,,,,,,,,,,,,,,,,,
,603d221fa82afdb2b19d0692,001,2022-04-29_03h16.46.846,classification_task,2021.2.3,Win32,59.86590038,603d221fa82afdb2b19d0692,626b377229c10585ec392f8a,626b3c2b3faadc900a728b6e,,,,,,,,,,,,,,,,,,,,,,,l,1,0.8838,"[""0.145"",""0.312"",""0.576"",""0.713""]","[1,1,0,1]",0,31,31,31,1,1,1,,,1,FALSE,,,,,,,,,,,,,,,,,,,,,,,,,,,,,,
,603d221fa82afdb2b19d0692,001,2022-04-29_03h16.46.846,classification_task,2021.2.3,Win32,59.86590038,603d221fa82afdb2b19d0692,626b377229c10585ec392f8a,626b3c2b3faadc900a728b6e,,,,,,,,,,,,,,,,,,,,,,,a,0,2.3305,"[""0.059"",""0.423"",""0.966"",""0.766""]","[1,1,0,1]",0,32,32,32,1,1,0,,,1,FALSE,,,,,,,,,,,,,,,,,,,,,,,,,,,,,,
,603d221fa82afdb2b19d0692,001,2022-04-29_03h16.46.846,classification_task,2021.2.3,Win32,59.86590038,603d221fa82afdb2b19d0692,626b377229c10585ec392f8a,626b3c2b3faadc900a728b6e,,,,,,,,,,,,,,,,,,,,,,,l,1,2.1334,"[""0.145"",""0.576"",""0.663"",""0.713""]","[1,0,1,1]",0,33,33,33,1,1,1,,,1,FALSE,,,,,,,,,,,,,,,,,,,,,,,,,,,,,,
,603d221fa82afdb2b19d0692,001,2022-04-29_03h16.46.846,classification_task,2021.2.3,Win32,59.86590038,603d221fa82afdb2b19d0692,626b377229c10585ec392f8a,626b3c2b3faadc900a728b6e,,,,,,,,,,,,,,,,,,,,,,,a,1,0.8814,"[""0.275"",""0.371"",""0.624"",""0.186""]","[1,1,1,0]",0,34,34,34,1,0,1,,,1,FALSE,,,,,,,,,,,,,,,,,,,,,,,,,,,,,,
,603d221fa82afdb2b19d0692,001,2022-04-29_03h16.46.846,classification_task,2021.2.3,Win32,59.86590038,603d221fa82afdb2b19d0692,626b377229c10585ec392f8a,626b3c2b3faadc900a728b6e,,,,,,,,,,,,,,,,,,,,,,,a,1,1.0705,"[""0.275"",""0.580"",""0.624"",""0.887""]","[1,0,1,1]",0,35,35,35,1,0,1,,,1,FALSE,,,,,,,,,,,,,,,,,,,,,,,,,,,,,,
,603d221fa82afdb2b19d0692,001,2022-04-29_03h16.46.846,classification_task,2021.2.3,Win32,59.86590038,603d221fa82afdb2b19d0692,626b377229c10585ec392f8a,626b3c2b3faadc900a728b6e,,,,,,,,,,,,,,,,,,,,,,,a,1,1.0177,"[""0.275"",""0.371"",""0.110"",""0.887""]","[1,1,0,1]",0,36,36,36,1,0,1,,,1,FALSE,,,,,,,,,,,,,,,,,,,,,,,,,,,,,,
,603d221fa82afdb2b19d0692,001,2022-04-29_03h16.46.846,classification_task,2021.2.3,Win32,59.86590038,603d221fa82afdb2b19d0692,626b377229c10585ec392f8a,626b3c2b3faadc900a728b6e,,,,,,,,,,,,,,,,,,,,,,,a,1,2.3786,"[""0.225"",""0.466"",""0.100"",""0.931""]","[1,1,0,1]",0,37,37,37,1,0,0,,,1,FALSE,,,,,,,,,,,,,,,,,,,,,,,,,,,,,,
,603d221fa82afdb2b19d0692,001,2022-04-29_03h16.46.846,classification_task,2021.2.3,Win32,59.86590038,603d221fa82afdb2b19d0692,626b377229c10585ec392f8a,626b3c2b3faadc900a728b6e,,,,,,,,,,,,,,,,,,,,,,,l,1,1.3181,"[""0.569"",""0.423"",""0.519"",""0.766""]","[0,1,1,1]",0,38,38,38,1,1,0,,,1,FALSE,,,,,,,,,,,,,,,,,,,,,,,,,,,,,,
,603d221fa82afdb2b19d0692,001,2022-04-29_03h16.46.846,classification_task,2021.2.3,Win32,59.86590038,603d221fa82afdb2b19d0692,626b377229c10585ec392f8a,626b3c2b3faadc900a728b6e,,,,,,,,,,,,,,,,,,,,,,,l,1,1.2533,"[""0.059"",""0.111"",""0.519"",""0.766""]","[1,0,1,1]",0,39,39,39,1,1,0,,,1,FALSE,,,,,,,,,,,,,,,,,,,,,,,,,,,,,,
,603d221fa82afdb2b19d0692,001,2022-04-29_03h16.46.846,classification_task,2021.2.3,Win32,59.86590038,603d221fa82afdb2b19d0692,626b377229c10585ec392f8a,626b3c2b3faadc900a728b6e,,,,,,,,,,,,,,,,,,,,,,,l,0,1.621,"[""0.225"",""0.966"",""0.806"",""0.931""]","[1,0,1,1]",0,40,40,40,1,0,0,,,1,FALSE,,,,,,,,,,,,,,,,,,,,,,,,,,,,,,
,603d221fa82afdb2b19d0692,001,2022-04-29_03h16.46.846,classification_task,2021.2.3,Win32,59.86590038,603d221fa82afdb2b19d0692,626b377229c10585ec392f8a,626b3c2b3faadc900a728b6e,,,,,,,,,,,,,,,,,,,,,,,l,1,1.4333,"[""0.145"",""0.312"",""0.663"",""0.973""]","[1,1,1,0]",0,41,41,41,1,1,1,,,1,FALSE,,,,,,,,,,,,,,,,,,,,,,,,,,,,,,
,603d221fa82afdb2b19d0692,001,2022-04-29_03h16.46.846,classification_task,2021.2.3,Win32,59.86590038,603d221fa82afdb2b19d0692,626b377229c10585ec392f8a,626b3c2b3faadc900a728b6e,,,,,,,,,,,,,,,,,,,,,,,l,1,1.2509,"[""0.110"",""0.312"",""0.663"",""0.713""]","[0,1,1,1]",0,42,42,42,1,1,1,,,1,FALSE,,,,,,,,,,,,,,,,,,,,,,,,,,,,,,
,603d221fa82afdb2b19d0692,001,2022-04-29_03h16.46.846,classification_task,2021.2.3,Win32,59.86590038,603d221fa82afdb2b19d0692,626b377229c10585ec392f8a,626b3c2b3faadc900a728b6e,,,,,,,,,,,,,,,,,,,,,,,a,1,1.7856,"[""0.225"",""0.466"",""0.806"",""0.973""]","[1,1,1,0]",0,43,43,43,1,0,0,,,1,FALSE,,,,,,,,,,,,,,,,,,,,,,,,,,,,,,
,603d221fa82afdb2b19d0692,001,2022-04-29_03h16.46.846,classification_task,2021.2.3,Win32,59.86590038,603d221fa82afdb2b19d0692,626b377229c10585ec392f8a,626b3c2b3faadc900a728b6e,,,,,,,,,,,,,,,,,,,,,,,a,0,1.4036,"[""0.059"",""0.423"",""0.519"",""0.557""]","[1,1,1,0]",0,44,44,44,1,1,0,,,1,FALSE,,,,,,,,,,,,,,,,,,,,,,,,,,,,,,
,603d221fa82afdb2b19d0692,001,2022-04-29_03h16.46.846,classification_task,2021.2.3,Win32,59.86590038,603d221fa82afdb2b19d0692,626b377229c10585ec392f8a,626b3c2b3faadc900a728b6e,,,,,,,,,,,,,,,,,,,,,,,a,1,1.0511,"[""0.110"",""0.371"",""0.624"",""0.887""]","[0,1,1,1]",0,45,45,45,1,0,1,,,1,FALSE,,,,,,,,,,,,,,,,,,,,,,,,,,,,,,
,603d221fa82afdb2b19d0692,001,2022-04-29_03h16.46.846,classification_task,2021.2.3,Win32,59.86590038,603d221fa82afdb2b19d0692,626b377229c10585ec392f8a,626b3c2b3faadc900a728b6e,,,,,,,,,,,,,,,,,,,,,,,l,0,2.2455,"[""0.575"",""0.466"",""0.806"",""0.931""]","[0,1,1,1]",0,46,46,46,1,0,0,,,1,FALSE,,,,,,,,,,,,,,,,,,,,,,,,,,,,,,
,603d221fa82afdb2b19d0692,001,2022-04-29_03h16.46.846,classification_task,2021.2.3,Win32,59.86590038,603d221fa82afdb2b19d0692,626b377229c10585ec392f8a,626b3c2b3faadc900a728b6e,,,,,,,,,,,,,,,,,,,,,,,l,1,1.0318,"[""0.145"",""0.312"",""0.111"",""0.713""]","[1,1,0,1]",0,47,47,47,1,1,1,,,1,FALSE,,,,,,,,,,,,,,,,,,,,,,,,,,,,,,
,603d221fa82afdb2b19d0692,001,2022-04-29_03h16.46.846,classification_task,2021.2.3,Win32,59.86590038,603d221fa82afdb2b19d0692,626b377229c10585ec392f8a,626b3c2b3faadc900a728b6e,,,,,,,,,,,,,,,,,,,,,,,a,1,2.4037,"[""0.275"",""0.371"",""0.624"",""0.186""]","[1,1,1,0]",0,48,48,48,1,0,1,,,1,FALSE,,,,,,,,,,,,,,,,,,,,,,,,,,,,,,
,603d221fa82afdb2b19d0692,001,2022-04-29_03h16.46.846,classification_task,2021.2.3,Win32,59.86590038,603d221fa82afdb2b19d0692,626b377229c10585ec392f8a,626b3c2b3faadc900a728b6e,,,,,,,,,,,,,,,,,,,,,,,a,1,1.2182,"[""0.275"",""0.371"",""0.581"",""0.887""]","[1,1,0,1]",0,49,49,49,1,0,1,,,1,FALSE,,,,,,,,,,,,,,,,,,,,,,,,,,,,,,
,603d221fa82afdb2b19d0692,001,2022-04-29_03h16.46.846,classification_task,2021.2.3,Win32,59.86590038,603d221fa82afdb2b19d0692,626b377229c10585ec392f8a,626b3c2b3faadc900a728b6e,,,,,,,,,,,,,,,,,,,,,,,l,1,1.6863,"[""0.059"",""0.423"",""0.093"",""0.766""]","[1,1,0,1]",0,50,50,50,1,1,0,,,1,FALSE,,,,,,,,,,,,,,,,,,,,,,,,,,,,,,
,603d221fa82afdb2b19d0692,001,2022-04-29_03h16.46.846,classification_task,2021.2.3,Win32,59.86590038,603d221fa82afdb2b19d0692,626b377229c10585ec392f8a,626b3c2b3faadc900a728b6e,,,,,,,,,,,,,,,,,,,,,,,l,0,1.4034,"[""0.225"",""0.466"",""0.806"",""0.973""]","[1,1,1,0]",0,51,51,51,1,0,0,,,1,FALSE,,,,,,,,,,,,,,,,,,,,,,,,,,,,,,
,603d221fa82afdb2b19d0692,001,2022-04-29_03h16.46.846,classification_task,2021.2.3,Win32,59.86590038,603d221fa82afdb2b19d0692,626b377229c10585ec392f8a,626b3c2b3faadc900a728b6e,,,,,,,,,,,,,,,,,,,,,,,a,0,0.8309,"[""0.059"",""0.423"",""0.519"",""0.100""]","[1,1,1,0]",0,52,52,52,1,1,0,,,1,FALSE,,,,,,,,,,,,,,,,,,,,,,,,,,,,,,
,603d221fa82afdb2b19d0692,001,2022-04-29_03h16.46.846,classification_task,2021.2.3,Win32,59.86590038,603d221fa82afdb2b19d0692,626b377229c10585ec392f8a,626b3c2b3faadc900a728b6e,,,,,,,,,,,,,,,,,,,,,,,a,1,0.6333,"[""0.225"",""0.553"",""0.806"",""0.931""]","[1,0,1,1]",0,53,53,53,1,0,0,,,1,FALSE,,,,,,,,,,,,,,,,,,,,,,,,,,,,,,
,603d221fa82afdb2b19d0692,001,2022-04-29_03h16.46.846,classification_task,2021.2.3,Win32,59.86590038,603d221fa82afdb2b19d0692,626b377229c10585ec392f8a,626b3c2b3faadc900a728b6e,,,,,,,,,,,,,,,,,,,,,,,a,1,2.2866,"[""0.557"",""0.466"",""0.806"",""0.931""]","[0,1,1,1]",0,54,54,54,1,0,0,,,1,FALSE,,,,,,,,,,,,,,,,,,,,,,,,,,,,,,
,603d221fa82afdb2b19d0692,001,2022-04-29_03h16.46.846,classification_task,2021.2.3,Win32,59.86590038,603d221fa82afdb2b19d0692,626b377229c10585ec392f8a,626b3c2b3faadc900a728b6e,,,,,,,,,,,,,,,,,,,,,,,l,1,1.3186,"[""0.145"",""0.576"",""0.663"",""0.713""]","[1,0,1,1]",0,55,55,55,1,1,1,,,1,FALSE,,,,,,,,,,,,,,,,,,,,,,,,,,,,,,
,603d221fa82afdb2b19d0692,001,2022-04-29_03h16.46.846,classification_task,2021.2.3,Win32,59.86590038,603d221fa82afdb2b19d0692,626b377229c10585ec392f8a,626b3c2b3faadc900a728b6e,,,,,,,,,,,,,,,,,,,,,,,l,1,1.0508,"[""0.145"",""0.312"",""0.663"",""0.557""]","[1,1,1,0]",0,56,56,56,1,1,1,,,1,FALSE,,,,,,,,,,,,,,,,,,,,,,,,,,,,,,
,603d221fa82afdb2b19d0692,001,2022-04-29_03h16.46.846,classification_task,2021.2.3,Win32,59.86590038,603d221fa82afdb2b19d0692,626b377229c10585ec392f8a,626b3c2b3faadc900a728b6e,,,,,,,,,,,,,,,,,,,,,,,a,0,2.4372,"[""0.059"",""0.554"",""0.519"",""0.766""]","[1,0,1,1]",0,57,57,57,1,1,0,,,1,FALSE,,,,,,,,,,,,,,,,,,,,,,,,,,,,,,
,603d221fa82afdb2b19d0692,001,2022-04-29_03h16.46.846,classification_task,2021.2.3,Win32,59.86590038,603d221fa82afdb2b19d0692,626b377229c10585ec392f8a,626b3c2b3faadc900a728b6e,,,,,,,,,,,,,,,,,,,,,,,a,1,1.6998,"[""0.275"",""0.553"",""0.624"",""0.887""]","[1,0,1,1]",0,58,58,58,1,0,1,,,1,FALSE,,,,,,,,,,,,,,,,,,,,,,,,,,,,,,
,603d221fa82afdb2b19d0692,001,2022-04-29_03h16.46.846,classification_task,2021.2.3,Win32,59.86590038,603d221fa82afdb2b19d0692,626b377229c10585ec392f8a,626b3c2b3faadc900a728b6e,,,,,,,,,,,,,,,,,,,,,,,a,1,2.0309,"[""0.225"",""0.466"",""0.093"",""0.931""]","[1,1,0,1]",0,59,59,59,1,0,0,,,1,FALSE,,,,,,,,,,,,,,,,,,,,,,,,,,,,,,
,603d221fa82afdb2b19d0692,001,2022-04-29_03h16.46.846,classification_task,2021.2.3,Win32,59.86590038,603d221fa82afdb2b19d0692,626b377229c10585ec392f8a,626b3c2b3faadc900a728b6e,,,,,,,,,,,,,,,,,,,,,,,l,1,0.9049,"[""0.145"",""0.312"",""0.554"",""0.713""]","[1,1,0,1]",0,60,60,60,1,1,1,,,1,FALSE,,,,,,,,,,,,,,,,,,,,,,,,,,,,,,
,603d221fa82afdb2b19d0692,001,2022-04-29_03h16.46.846,classification_task,2021.2.3,Win32,59.86590038,603d221fa82afdb2b19d0692,626b377229c10585ec392f8a,626b3c2b3faadc900a728b6e,,,,,,,,,,,,,,,,,,,,,,,l,1,0.9671,"[""0.580"",""0.312"",""0.663"",""0.713""]","[0,1,1,1]",0,61,61,61,1,1,1,,,1,FALSE,,,,,,,,,,,,,,,,,,,,,,,,,,,,,,
,603d221fa82afdb2b19d0692,001,2022-04-29_03h16.46.846,classification_task,2021.2.3,Win32,59.86590038,603d221fa82afdb2b19d0692,626b377229c10585ec392f8a,626b3c2b3faadc900a728b6e,,,,,,,,,,,,,,,,,,,,,,,l,1,2.6142,"[""0.553"",""0.423"",""0.519"",""0.766""]","[0,1,1,1]",0,62,62,62,1,1,0,,,1,FALSE,,,,,,,,,,,,,,,,,,,,,,,,,,,,,,
,603d221fa82afdb2b19d0692,001,2022-04-29_03h16.46.846,classification_task,2021.2.3,Win32,59.86590038,603d221fa82afdb2b19d0692,626b377229c10585ec392f8a,626b3c2b3faadc900a728b6e,,,,,,,,,,,,,,,,,,,,,,,a,1,0.9494,"[""0.966"",""0.371"",""0.624"",""0.887""]","[0,1,1,1]",0,63,63,63,1,0,1,,,1,FALSE,,,,,,,,,,,,,,,,,,,,,,,,,,,,,,
,603d221fa82afdb2b19d0692,001,2022-04-29_03h16.46.846,classification_task,2021.2.3,Win32,59.86590038,603d221fa82afdb2b19d0692,626b377229c10585ec392f8a,626b3c2b3faadc900a728b6e,,,,,,,,,,,,,,,,,,,,,,,,,,,,,,,,,,,,,,,0, ,,0,8.341324956,188.2115,0,1,1,1,1,2,2,,,,,,,,,,,,,,,,,
,603d221fa82afdb2b19d0692,001,2022-04-29_03h16.46.846,classification_task,2021.2.3,Win32,59.86590038,603d221fa82afdb2b19d0692,626b377229c10585ec392f8a,626b3c2b3faadc900a728b6e,,,,,,,,,,,,,,,,,,,,,,,,,,,,,,,,,,,,,,,1,  ,,0,7.101245591,186.1377,0,1,1,1,1,2,2,,,,,,,,,,,,,,,,,
,603d221fa82afdb2b19d0692,001,2022-04-29_03h16.46.846,classification_task,2021.2.3,Win32,59.86590038,603d221fa82afdb2b19d0692,626b377229c10585ec392f8a,626b3c2b3faadc900a728b6e,,,,,,,,,,,,,,,,,,,,,,,,,,,,,,,,,,,,,,,2,  ,,0,8.031305115,190.9168,0,1,1,1,1,2,2,,,,,,,,,,,,,,,,,
,603d221fa82afdb2b19d0692,001,2022-04-29_03h16.46.846,classification_task,2021.2.3,Win32,59.86590038,603d221fa82afdb2b19d0692,626b377229c10585ec392f8a,626b3c2b3faadc900a728b6e,,,,,,,,,,,,,,,,,,,,,,,,,,,,,,,,,,,,,,,,,,,,,0,1,1,1,1,,2,,,,,,,,,,,,,,,,,
,603d221fa82afdb2b19d0692,001,2022-04-29_03h16.46.846,classification_task,2021.2.3,Win32,59.86590038,603d221fa82afdb2b19d0692,626b377229c10585ec392f8a,626b3c2b3faadc900a728b6e,,,,,,,,,,,,,,,,,,,,,space,14.665,a,1,2.1393,"[""0.225"",""0.466"",""0.100"",""0.931""]","[1,1,0,1]",0,0,0,0,1,0,0,,,1,FALSE,,,,,,,,,,,,,,,,,,,,,,,,,,,,,,
,603d221fa82afdb2b19d0692,001,2022-04-29_03h16.46.846,classification_task,2021.2.3,Win32,59.86590038,603d221fa82afdb2b19d0692,626b377229c10585ec392f8a,626b3c2b3faadc900a728b6e,,,,,,,,,,,,,,,,,,,,,,,a,1,2.8575,"[""0.225"",""0.466"",""0.806"",""0.093""]","[1,1,1,0]",0,1,1,1,1,0,0,,,1,FALSE,,,,,,,,,,,,,,,,,,,,,,,,,,,,,,
,603d221fa82afdb2b19d0692,001,2022-04-29_03h16.46.846,classification_task,2021.2.3,Win32,59.86590038,603d221fa82afdb2b19d0692,626b377229c10585ec392f8a,626b3c2b3faadc900a728b6e,,,,,,,,,,,,,,,,,,,,,,,l,0,1.7012,"[""0.275"",""0.371"",""0.624"",""0.553""]","[1,1,1,0]",0,2,2,2,1,0,1,,,1,FALSE,,,,,,,,,,,,,,,,,,,,,,,,,,,,,,
,603d221fa82afdb2b19d0692,001,2022-04-29_03h16.46.846,classification_task,2021.2.3,Win32,59.86590038,603d221fa82afdb2b19d0692,626b377229c10585ec392f8a,626b3c2b3faadc900a728b6e,,,,,,,,,,,,,,,,,,,,,,,l,1,2.4707,"[""0.973"",""0.312"",""0.663"",""0.713""]","[0,1,1,1]",0,3,3,3,1,1,1,,,1,FALSE,,,,,,,,,,,,,,,,,,,,,,,,,,,,,,
,603d221fa82afdb2b19d0692,001,2022-04-29_03h16.46.846,classification_task,2021.2.3,Win32,59.86590038,603d221fa82afdb2b19d0692,626b377229c10585ec392f8a,626b3c2b3faadc900a728b6e,,,,,,,,,,,,,,,,,,,,,,,a,0,3.5734,"[""0.145"",""0.580"",""0.663"",""0.713""]","[1,0,1,1]",0,4,4,4,1,1,1,,,1,FALSE,,,,,,,,,,,,,,,,,,,,,,,,,,,,,,
,603d221fa82afdb2b19d0692,001,2022-04-29_03h16.46.846,classification_task,2021.2.3,Win32,59.86590038,603d221fa82afdb2b19d0692,626b377229c10585ec392f8a,626b3c2b3faadc900a728b6e,,,,,,,,,,,,,,,,,,,,,,,a,1,2.2676,"[""0.275"",""0.093"",""0.624"",""0.887""]","[1,0,1,1]",0,5,5,5,1,0,1,,,1,FALSE,,,,,,,,,,,,,,,,,,,,,,,,,,,,,,
,603d221fa82afdb2b19d0692,001,2022-04-29_03h16.46.846,classification_task,2021.2.3,Win32,59.86590038,603d221fa82afdb2b19d0692,626b377229c10585ec392f8a,626b3c2b3faadc900a728b6e,,,,,,,,,,,,,,,,,,,,,,,l,1,1.6181,"[""0.111"",""0.423"",""0.519"",""0.766""]","[0,1,1,1]",0,6,6,6,1,1,0,,,1,FALSE,,,,,,,,,,,,,,,,,,,,,,,,,,,,,,
,603d221fa82afdb2b19d0692,001,2022-04-29_03h16.46.846,classification_task,2021.2.3,Win32,59.86590038,603d221fa82afdb2b19d0692,626b377229c10585ec392f8a,626b3c2b3faadc900a728b6e,,,,,,,,,,,,,,,,,,,,,,,a,1,2.2159,"[""0.575"",""0.466"",""0.806"",""0.931""]","[0,1,1,1]",0,7,7,7,1,0,0,,,1,FALSE,,,,,,,,,,,,,,,,,,,,,,,,,,,,,,
,603d221fa82afdb2b19d0692,001,2022-04-29_03h16.46.846,classification_task,2021.2.3,Win32,59.86590038,603d221fa82afdb2b19d0692,626b377229c10585ec392f8a,626b3c2b3faadc900a728b6e,,,,,,,,,,,,,,,,,,,,,,,a,0,1.4858,"[""0.059"",""0.423"",""0.569"",""0.766""]","[1,1,0,1]",0,8,8,8,1,1,0,,,1,FALSE,,,,,,,,,,,,,,,,,,,,,,,,,,,,,,
,603d221fa82afdb2b19d0692,001,2022-04-29_03h16.46.846,classification_task,2021.2.3,Win32,59.86590038,603d221fa82afdb2b19d0692,626b377229c10585ec392f8a,626b3c2b3faadc900a728b6e,,,,,,,,,,,,,,,,,,,,,,,l,0,1.1866,"[""0.225"",""0.970"",""0.806"",""0.931""]","[1,0,1,1]",0,9,9,9,1,0,0,,,1,FALSE,,,,,,,,,,,,,,,,,,,,,,,,,,,,,,
,603d221fa82afdb2b19d0692,001,2022-04-29_03h16.46.846,classification_task,2021.2.3,Win32,59.86590038,603d221fa82afdb2b19d0692,626b377229c10585ec392f8a,626b3c2b3faadc900a728b6e,,,,,,,,,,,,,,,,,,,,,,,a,1,2.7404,"[""0.580"",""0.371"",""0.624"",""0.887""]","[0,1,1,1]",0,10,10,10,1,0,1,,,1,FALSE,,,,,,,,,,,,,,,,,,,,,,,,,,,,,,
,603d221fa82afdb2b19d0692,001,2022-04-29_03h16.46.846,classification_task,2021.2.3,Win32,59.86590038,603d221fa82afdb2b19d0692,626b377229c10585ec392f8a,626b3c2b3faadc900a728b6e,,,,,,,,,,,,,,,,,,,,,,,l,1,2.843,"[""0.059"",""0.580"",""0.519"",""0.766""]","[1,0,1,1]",0,11,11,11,1,1,0,,,1,FALSE,,,,,,,,,,,,,,,,,,,,,,,,,,,,,,
,603d221fa82afdb2b19d0692,001,2022-04-29_03h16.46.846,classification_task,2021.2.3,Win32,59.86590038,603d221fa82afdb2b19d0692,626b377229c10585ec392f8a,626b3c2b3faadc900a728b6e,,,,,,,,,,,,,,,,,,,,,,,l,0,1.7698,"[""0.275"",""0.371"",""0.576"",""0.887""]","[1,1,0,1]",0,12,12,12,1,0,1,,,1,FALSE,,,,,,,,,,,,,,,,,,,,,,,,,,,,,,
,603d221fa82afdb2b19d0692,001,2022-04-29_03h16.46.846,classification_task,2021.2.3,Win32,59.86590038,603d221fa82afdb2b19d0692,626b377229c10585ec392f8a,626b3c2b3faadc900a728b6e,,,,,,,,,,,,,,,,,,,,,,,a,0,1.9704,"[""0.059"",""0.423"",""0.519"",""0.110""]","[1,1,1,0]",0,13,13,13,1,1,0,,,1,FALSE,,,,,,,,,,,,,,,,,,,,,,,,,,,,,,
,603d221fa82afdb2b19d0692,001,2022-04-29_03h16.46.846,classification_task,2021.2.3,Win32,59.86590038,603d221fa82afdb2b19d0692,626b377229c10585ec392f8a,626b3c2b3faadc900a728b6e,,,,,,,,,,,,,,,,,,,,,,,a,0,1.0527,"[""0.145"",""0.312"",""0.663"",""0.093""]","[1,1,1,0]",0,14,14,14,1,1,1,,,1,FALSE,,,,,,,,,,,,,,,,,,,,,,,,,,,,,,
,603d221fa82afdb2b19d0692,001,2022-04-29_03h16.46.846,classification_task,2021.2.3,Win32,59.86590038,603d221fa82afdb2b19d0692,626b377229c10585ec392f8a,626b3c2b3faadc900a728b6e,,,,,,,,,,,,,,,,,,,,,,,l,1,1.5036,"[""0.145"",""0.312"",""0.575"",""0.713""]","[1,1,0,1]",0,15,15,15,1,1,1,,,1,FALSE,,,,,,,,,,,,,,,,,,,,,,,,,,,,,,
,603d221fa82afdb2b19d0692,001,2022-04-29_03h16.46.846,classification_task,2021.2.3,Win32,59.86590038,603d221fa82afdb2b19d0692,626b377229c10585ec392f8a,626b3c2b3faadc900a728b6e,,,,,,,,,,,,,,,,,,,,,,,l,1,0.9524,"[""0.059"",""0.423"",""0.553"",""0.766""]","[1,1,0,1]",0,16,16,16,1,1,0,,,1,FALSE,,,,,,,,,,,,,,,,,,,,,,,,,,,,,,
,603d221fa82afdb2b19d0692,001,2022-04-29_03h16.46.846,classification_task,2021.2.3,Win32,59.86590038,603d221fa82afdb2b19d0692,626b377229c10585ec392f8a,626b3c2b3faadc900a728b6e,,,,,,,,,,,,,,,,,,,,,,,l,0,1.4028,"[""0.553"",""0.371"",""0.624"",""0.887""]","[0,1,1,1]",0,17,17,17,1,0,1,,,1,FALSE,,,,,,,,,,,,,,,,,,,,,,,,,,,,,,
,603d221fa82afdb2b19d0692,001,2022-04-29_03h16.46.846,classification_task,2021.2.3,Win32,59.86590038,603d221fa82afdb2b19d0692,626b377229c10585ec392f8a,626b3c2b3faadc900a728b6e,,,,,,,,,,,,,,,,,,,,,,,a,0,1.7795,"[""0.145"",""0.312"",""0.663"",""0.553""]","[1,1,1,0]",0,18,18,18,1,1,1,,,1,FALSE,,,,,,,,,,,,,,,,,,,,,,,,,,,,,,
,603d221fa82afdb2b19d0692,001,2022-04-29_03h16.46.846,classification_task,2021.2.3,Win32,59.86590038,603d221fa82afdb2b19d0692,626b377229c10585ec392f8a,626b3c2b3faadc900a728b6e,,,,,,,,,,,,,,,,,,,,,,,a,1,1.7345,"[""0.225"",""0.466"",""0.806"",""0.100""]","[1,1,1,0]",0,19,19,19,1,0,0,,,1,FALSE,,,,,,,,,,,,,,,,,,,,,,,,,,,,,,
,603d221fa82afdb2b19d0692,001,2022-04-29_03h16.46.846,classification_task,2021.2.3,Win32,59.86590038,603d221fa82afdb2b19d0692,626b377229c10585ec392f8a,626b3c2b3faadc900a728b6e,,,,,,,,,,,,,,,,,,,,,,,a,1,3.2031,"[""0.225"",""0.466"",""0.970"",""0.931""]","[1,1,0,1]",0,20,20,20,1,0,0,,,1,FALSE,,,,,,,,,,,,,,,,,,,,,,,,,,,,,,
,603d221fa82afdb2b19d0692,001,2022-04-29_03h16.46.846,classification_task,2021.2.3,Win32,59.86590038,603d221fa82afdb2b19d0692,626b377229c10585ec392f8a,626b3c2b3faadc900a728b6e,,,,,,,,,,,,,,,,,,,,,,,l,1,1.6871,"[""0.581"",""0.312"",""0.663"",""0.713""]","[0,1,1,1]",0,21,21,21,1,1,1,,,1,FALSE,,,,,,,,,,,,,,,,,,,,,,,,,,,,,,
,603d221fa82afdb2b19d0692,001,2022-04-29_03h16.46.846,classification_task,2021.2.3,Win32,59.86590038,603d221fa82afdb2b19d0692,626b377229c10585ec392f8a,626b3c2b3faadc900a728b6e,,,,,,,,,,,,,,,,,,,,,,,a,1,1.3626,"[""0.100"",""0.466"",""0.806"",""0.931""]","[0,1,1,1]",0,22,22,22,1,0,0,,,1,FALSE,,,,,,,,,,,,,,,,,,,,,,,,,,,,,,
,603d221fa82afdb2b19d0692,001,2022-04-29_03h16.46.846,classification_task,2021.2.3,Win32,59.86590038,603d221fa82afdb2b19d0692,626b377229c10585ec392f8a,626b3c2b3faadc900a728b6e,,,,,,,,,,,,,,,,,,,,,,,l,1,2.2558,"[""0.581"",""0.423"",""0.519"",""0.766""]","[0,1,1,1]",0,23,23,23,1,1,0,,,1,FALSE,,,,,,,,,,,,,,,,,,,,,,,,,,,,,,
,603d221fa82afdb2b19d0692,001,2022-04-29_03h16.46.846,classification_task,2021.2.3,Win32,59.86590038,603d221fa82afdb2b19d0692,626b377229c10585ec392f8a,626b3c2b3faadc900a728b6e,,,,,,,,,,,,,,,,,,,,,,,a,0,1.1521,"[""0.059"",""0.423"",""0.519"",""0.581""]","[1,1,1,0]",0,24,24,24,1,1,0,,,1,FALSE,,,,,,,,,,,,,,,,,,,,,,,,,,,,,,
,603d221fa82afdb2b19d0692,001,2022-04-29_03h16.46.846,classification_task,2021.2.3,Win32,59.86590038,603d221fa82afdb2b19d0692,626b377229c10585ec392f8a,626b3c2b3faadc900a728b6e,,,,,,,,,,,,,,,,,,,,,,,a,1,1.2368,"[""0.275"",""0.371"",""0.100"",""0.887""]","[1,1,0,1]",0,25,25,25,1,0,1,,,1,FALSE,,,,,,,,,,,,,,,,,,,,,,,,,,,,,,
,603d221fa82afdb2b19d0692,001,2022-04-29_03h16.46.846,classification_task,2021.2.3,Win32,59.86590038,603d221fa82afdb2b19d0692,626b377229c10585ec392f8a,626b3c2b3faadc900a728b6e,,,,,,,,,,,,,,,,,,,,,,,l,0,1.1203,"[""0.275"",""0.970"",""0.624"",""0.887""]","[1,0,1,1]",0,26,26,26,1,0,1,,,1,FALSE,,,,,,,,,,,,,,,,,,,,,,,,,,,,,,
,603d221fa82afdb2b19d0692,001,2022-04-29_03h16.46.846,classification_task,2021.2.3,Win32,59.86590038,603d221fa82afdb2b19d0692,626b377229c10585ec392f8a,626b3c2b3faadc900a728b6e,,,,,,,,,,,,,,,,,,,,,,,l,1,2.6231,"[""0.145"",""0.312"",""0.970"",""0.713""]","[1,1,0,1]",0,27,27,27,1,1,1,,,1,FALSE,,,,,,,,,,,,,,,,,,,,,,,,,,,,,,
,603d221fa82afdb2b19d0692,001,2022-04-29_03h16.46.846,classification_task,2021.2.3,Win32,59.86590038,603d221fa82afdb2b19d0692,626b377229c10585ec392f8a,626b3c2b3faadc900a728b6e,,,,,,,,,,,,,,,,,,,,,,,a,1,2.9257,"[""0.225"",""0.111"",""0.806"",""0.931""]","[1,0,1,1]",0,28,28,28,1,0,0,,,1,FALSE,,,,,,,,,,,,,,,,,,,,,,,,,,,,,,
,603d221fa82afdb2b19d0692,001,2022-04-29_03h16.46.846,classification_task,2021.2.3,Win32,59.86590038,603d221fa82afdb2b19d0692,626b377229c10585ec392f8a,626b3c2b3faadc900a728b6e,,,,,,,,,,,,,,,,,,,,,,,l,1,1.5363,"[""0.145"",""0.581"",""0.663"",""0.713""]","[1,0,1,1]",0,29,29,29,1,1,1,,,1,FALSE,,,,,,,,,,,,,,,,,,,,,,,,,,,,,,
,603d221fa82afdb2b19d0692,001,2022-04-29_03h16.46.846,classification_task,2021.2.3,Win32,59.86590038,603d221fa82afdb2b19d0692,626b377229c10585ec392f8a,626b3c2b3faadc900a728b6e,,,,,,,,,,,,,,,,,,,,,,,a,1,1.9813,"[""0.275"",""0.371"",""0.624"",""0.110""]","[1,1,1,0]",0,30,30,30,1,0,1,,,1,FALSE,,,,,,,,,,,,,,,,,,,,,,,,,,,,,,
,603d221fa82afdb2b19d0692,001,2022-04-29_03h16.46.846,classification_task,2021.2.3,Win32,59.86590038,603d221fa82afdb2b19d0692,626b377229c10585ec392f8a,626b3c2b3faadc900a728b6e,,,,,,,,,,,,,,,,,,,,,,,l,1,2.5901,"[""0.059"",""0.970"",""0.519"",""0.766""]","[1,0,1,1]",0,31,31,31,1,1,0,,,1,FALSE,,,,,,,,,,,,,,,,,,,,,,,,,,,,,,
,603d221fa82afdb2b19d0692,001,2022-04-29_03h16.46.846,classification_task,2021.2.3,Win32,59.86590038,603d221fa82afdb2b19d0692,626b377229c10585ec392f8a,626b3c2b3faadc900a728b6e,,,,,,,,,,,,,,,,,,,,,,,a,0,1.9547,"[""0.059"",""0.100"",""0.519"",""0.766""]","[1,0,1,1]",0,32,32,32,1,1,0,,,1,FALSE,,,,,,,,,,,,,,,,,,,,,,,,,,,,,,
,603d221fa82afdb2b19d0692,001,2022-04-29_03h16.46.846,classification_task,2021.2.3,Win32,59.86590038,603d221fa82afdb2b19d0692,626b377229c10585ec392f8a,626b3c2b3faadc900a728b6e,,,,,,,,,,,,,,,,,,,,,,,l,1,1.1352,"[""0.554"",""0.312"",""0.663"",""0.713""]","[0,1,1,1]",0,33,33,33,1,1,1,,,1,FALSE,,,,,,,,,,,,,,,,,,,,,,,,,,,,,,
,603d221fa82afdb2b19d0692,001,2022-04-29_03h16.46.846,classification_task,2021.2.3,Win32,59.86590038,603d221fa82afdb2b19d0692,626b377229c10585ec392f8a,626b3c2b3faadc900a728b6e,,,,,,,,,,,,,,,,,,,,,,,l,0,1.3035,"[""0.275"",""0.371"",""0.624"",""0.569""]","[1,1,1,0]",0,34,34,34,1,0,1,,,1,FALSE,,,,,,,,,,,,,,,,,,,,,,,,,,,,,,
,603d221fa82afdb2b19d0692,001,2022-04-29_03h16.46.846,classification_task,2021.2.3,Win32,59.86590038,603d221fa82afdb2b19d0692,626b377229c10585ec392f8a,626b3c2b3faadc900a728b6e,,,,,,,,,,,,,,,,,,,,,,,a,0,1.2671,"[""0.059"",""0.423"",""0.519"",""0.100""]","[1,1,1,0]",0,35,35,35,1,1,0,,,1,FALSE,,,,,,,,,,,,,,,,,,,,,,,,,,,,,,
,603d221fa82afdb2b19d0692,001,2022-04-29_03h16.46.846,classification_task,2021.2.3,Win32,59.86590038,603d221fa82afdb2b19d0692,626b377229c10585ec392f8a,626b3c2b3faadc900a728b6e,,,,,,,,,,,,,,,,,,,,,,,l,1,1.9548,"[""0.059"",""0.423"",""0.970"",""0.766""]","[1,1,0,1]",0,36,36,36,1,1,0,,,1,FALSE,,,,,,,,,,,,,,,,,,,,,,,,,,,,,,
,603d221fa82afdb2b19d0692,001,2022-04-29_03h16.46.846,classification_task,2021.2.3,Win32,59.86590038,603d221fa82afdb2b19d0692,626b377229c10585ec392f8a,626b3c2b3faadc900a728b6e,,,,,,,,,,,,,,,,,,,,,,,l,0,0.924,"[""0.966"",""0.371"",""0.624"",""0.887""]","[0,1,1,1]",0,37,37,37,1,0,1,,,1,FALSE,,,,,,,,,,,,,,,,,,,,,,,,,,,,,,
,603d221fa82afdb2b19d0692,001,2022-04-29_03h16.46.846,classification_task,2021.2.3,Win32,59.86590038,603d221fa82afdb2b19d0692,626b377229c10585ec392f8a,626b3c2b3faadc900a728b6e,,,,,,,,,,,,,,,,,,,,,,,a,0,0.8456,"[""0.145"",""0.312"",""0.663"",""0.110""]","[1,1,1,0]",0,38,38,38,1,1,1,,,1,FALSE,,,,,,,,,,,,,,,,,,,,,,,,,,,,,,
,603d221fa82afdb2b19d0692,001,2022-04-29_03h16.46.846,classification_task,2021.2.3,Win32,59.86590038,603d221fa82afdb2b19d0692,626b377229c10585ec392f8a,626b3c2b3faadc900a728b6e,,,,,,,,,,,,,,,,,,,,,,,l,0,2.6838,"[""0.225"",""0.466"",""0.553"",""0.931""]","[1,1,0,1]",0,39,39,39,1,0,0,,,1,FALSE,,,,,,,,,,,,,,,,,,,,,,,,,,,,,,
,603d221fa82afdb2b19d0692,001,2022-04-29_03h16.46.846,classification_task,2021.2.3,Win32,59.86590038,603d221fa82afdb2b19d0692,626b377229c10585ec392f8a,626b3c2b3faadc900a728b6e,,,,,,,,,,,,,,,,,,,,,,,l,1,2.68,"[""0.145"",""0.312"",""0.575"",""0.713""]","[1,1,0,1]",0,40,40,40,1,1,1,,,1,FALSE,,,,,,,,,,,,,,,,,,,,,,,,,,,,,,
,603d221fa82afdb2b19d0692,001,2022-04-29_03h16.46.846,classification_task,2021.2.3,Win32,59.86590038,603d221fa82afdb2b19d0692,626b377229c10585ec392f8a,626b3c2b3faadc900a728b6e,,,,,,,,,,,,,,,,,,,,,,,l,1,1.0114,"[""0.145"",""0.973"",""0.663"",""0.713""]","[1,0,1,1]",0,41,41,41,1,1,1,,,1,FALSE,,,,,,,,,,,,,,,,,,,,,,,,,,,,,,
,603d221fa82afdb2b19d0692,001,2022-04-29_03h16.46.846,classification_task,2021.2.3,Win32,59.86590038,603d221fa82afdb2b19d0692,626b377229c10585ec392f8a,626b3c2b3faadc900a728b6e,,,,,,,,,,,,,,,,,,,,,,,a,0,1.5429,"[""0.966"",""0.423"",""0.519"",""0.766""]","[0,1,1,1]",0,42,42,42,1,1,0,,,1,FALSE,,,,,,,,,,,,,,,,,,,,,,,,,,,,,,
,603d221fa82afdb2b19d0692,001,2022-04-29_03h16.46.846,classification_task,2021.2.3,Win32,59.86590038,603d221fa82afdb2b19d0692,626b377229c10585ec392f8a,626b3c2b3faadc900a728b6e,,,,,,,,,,,,,,,,,,,,,,,l,0,1.3515,"[""0.275"",""0.580"",""0.624"",""0.887""]","[1,0,1,1]",0,43,43,43,1,0,1,,,1,FALSE,,,,,,,,,,,,,,,,,,,,,,,,,,,,,,
,603d221fa82afdb2b19d0692,001,2022-04-29_03h16.46.846,classification_task,2021.2.3,Win32,59.86590038,603d221fa82afdb2b19d0692,626b377229c10585ec392f8a,626b3c2b3faadc900a728b6e,,,,,,,,,,,,,,,,,,,,,,,l,0,1.2694,"[""0.186"",""0.466"",""0.806"",""0.931""]","[0,1,1,1]",0,44,44,44,1,0,0,,,1,FALSE,,,,,,,,,,,,,,,,,,,,,,,,,,,,,,
,603d221fa82afdb2b19d0692,001,2022-04-29_03h16.46.846,classification_task,2021.2.3,Win32,59.86590038,603d221fa82afdb2b19d0692,626b377229c10585ec392f8a,626b3c2b3faadc900a728b6e,,,,,,,,,,,,,,,,,,,,,,,a,1,1.002,"[""0.275"",""0.371"",""0.581"",""0.887""]","[1,1,0,1]",0,45,45,45,1,0,1,,,1,FALSE,,,,,,,,,,,,,,,,,,,,,,,,,,,,,,
,603d221fa82afdb2b19d0692,001,2022-04-29_03h16.46.846,classification_task,2021.2.3,Win32,59.86590038,603d221fa82afdb2b19d0692,626b377229c10585ec392f8a,626b3c2b3faadc900a728b6e,,,,,,,,,,,,,,,,,,,,,,,a,1,1.4872,"[""0.225"",""0.466"",""0.806"",""0.093""]","[1,1,1,0]",0,46,46,46,1,0,0,,,1,FALSE,,,,,,,,,,,,,,,,,,,,,,,,,,,,,,
,603d221fa82afdb2b19d0692,001,2022-04-29_03h16.46.846,classification_task,2021.2.3,Win32,59.86590038,603d221fa82afdb2b19d0692,626b377229c10585ec392f8a,626b3c2b3faadc900a728b6e,,,,,,,,,,,,,,,,,,,,,,,l,0,1.4873,"[""0.225"",""0.581"",""0.806"",""0.931""]","[1,0,1,1]",0,47,47,47,1,0,0,,,1,FALSE,,,,,,,,,,,,,,,,,,,,,,,,,,,,,,
,603d221fa82afdb2b19d0692,001,2022-04-29_03h16.46.846,classification_task,2021.2.3,Win32,59.86590038,603d221fa82afdb2b19d0692,626b377229c10585ec392f8a,626b3c2b3faadc900a728b6e,,,,,,,,,,,,,,,,,,,,,,,l,1,2.6702,"[""0.145"",""0.312"",""0.575"",""0.713""]","[1,1,0,1]",0,48,48,48,1,1,1,,,1,FALSE,,,,,,,,,,,,,,,,,,,,,,,,,,,,,,
,603d221fa82afdb2b19d0692,001,2022-04-29_03h16.46.846,classification_task,2021.2.3,Win32,59.86590038,603d221fa82afdb2b19d0692,626b377229c10585ec392f8a,626b3c2b3faadc900a728b6e,,,,,,,,,,,,,,,,,,,,,,,l,1,0.9895,"[""0.059"",""0.423"",""0.519"",""0.569""]","[1,1,1,0]",0,49,49,49,1,1,0,,,1,FALSE,,,,,,,,,,,,,,,,,,,,,,,,,,,,,,
,603d221fa82afdb2b19d0692,001,2022-04-29_03h16.46.846,classification_task,2021.2.3,Win32,59.86590038,603d221fa82afdb2b19d0692,626b377229c10585ec392f8a,626b3c2b3faadc900a728b6e,,,,,,,,,,,,,,,,,,,,,,,a,1,2.1545,"[""0.225"",""0.110"",""0.806"",""0.931""]","[1,0,1,1]",0,50,50,50,1,0,0,,,1,FALSE,,,,,,,,,,,,,,,,,,,,,,,,,,,,,,
,603d221fa82afdb2b19d0692,001,2022-04-29_03h16.46.846,classification_task,2021.2.3,Win32,59.86590038,603d221fa82afdb2b19d0692,626b377229c10585ec392f8a,626b3c2b3faadc900a728b6e,,,,,,,,,,,,,,,,,,,,,,,a,0,1.4696,"[""0.110"",""0.423"",""0.519"",""0.766""]","[0,1,1,1]",0,51,51,51,1,1,0,,,1,FALSE,,,,,,,,,,,,,,,,,,,,,,,,,,,,,,
,603d221fa82afdb2b19d0692,001,2022-04-29_03h16.46.846,classification_task,2021.2.3,Win32,59.86590038,603d221fa82afdb2b19d0692,626b377229c10585ec392f8a,626b3c2b3faadc900a728b6e,,,,,,,,,,,,,,,,,,,,,,,l,0,1.2504,"[""0.275"",""0.371"",""0.624"",""0.576""]","[1,1,1,0]",0,52,52,52,1,0,1,,,1,FALSE,,,,,,,,,,,,,,,,,,,,,,,,,,,,,,
,603d221fa82afdb2b19d0692,001,2022-04-29_03h16.46.846,classification_task,2021.2.3,Win32,59.86590038,603d221fa82afdb2b19d0692,626b377229c10585ec392f8a,626b3c2b3faadc900a728b6e,,,,,,,,,,,,,,,,,,,,,,,a,1,1.6044,"[""0.225"",""0.466"",""0.806"",""0.100""]","[1,1,1,0]",0,53,53,53,1,0,0,,,1,FALSE,,,,,,,,,,,,,,,,,,,,,,,,,,,,,,
,603d221fa82afdb2b19d0692,001,2022-04-29_03h16.46.846,classification_task,2021.2.3,Win32,59.86590038,603d221fa82afdb2b19d0692,626b377229c10585ec392f8a,626b3c2b3faadc900a728b6e,,,,,,,,,,,,,,,,,,,,,,,l,0,1.6873,"[""0.225"",""0.466"",""0.569"",""0.931""]","[1,1,0,1]",0,54,54,54,1,0,0,,,1,FALSE,,,,,,,,,,,,,,,,,,,,,,,,,,,,,,
,603d221fa82afdb2b19d0692,001,2022-04-29_03h16.46.846,classification_task,2021.2.3,Win32,59.86590038,603d221fa82afdb2b19d0692,626b377229c10585ec392f8a,626b3c2b3faadc900a728b6e,,,,,,,,,,,,,,,,,,,,,,,l,1,0.9405,"[""0.145"",""0.575"",""0.663"",""0.713""]","[1,0,1,1]",0,55,55,55,1,1,1,,,1,FALSE,,,,,,,,,,,,,,,,,,,,,,,,,,,,,,
,603d221fa82afdb2b19d0692,001,2022-04-29_03h16.46.846,classification_task,2021.2.3,Win32,59.86590038,603d221fa82afdb2b19d0692,626b377229c10585ec392f8a,626b3c2b3faadc900a728b6e,,,,,,,,,,,,,,,,,,,,,,,l,1,0.8854,"[""0.145"",""0.312"",""0.663"",""0.576""]","[1,1,1,0]",0,56,56,56,1,1,1,,,1,FALSE,,,,,,,,,,,,,,,,,,,,,,,,,,,,,,
,603d221fa82afdb2b19d0692,001,2022-04-29_03h16.46.846,classification_task,2021.2.3,Win32,59.86590038,603d221fa82afdb2b19d0692,626b377229c10585ec392f8a,626b3c2b3faadc900a728b6e,,,,,,,,,,,,,,,,,,,,,,,l,1,1.0775,"[""0.093"",""0.312"",""0.663"",""0.713""]","[0,1,1,1]",0,57,57,57,1,1,1,,,1,FALSE,,,,,,,,,,,,,,,,,,,,,,,,,,,,,,
,603d221fa82afdb2b19d0692,001,2022-04-29_03h16.46.846,classification_task,2021.2.3,Win32,59.86590038,603d221fa82afdb2b19d0692,626b377229c10585ec392f8a,626b3c2b3faadc900a728b6e,,,,,,,,,,,,,,,,,,,,,,,l,0,1.1362,"[""0.275"",""0.557"",""0.624"",""0.887""]","[1,0,1,1]",0,58,58,58,1,0,1,,,1,FALSE,,,,,,,,,,,,,,,,,,,,,,,,,,,,,,
,603d221fa82afdb2b19d0692,001,2022-04-29_03h16.46.846,classification_task,2021.2.3,Win32,59.86590038,603d221fa82afdb2b19d0692,626b377229c10585ec392f8a,626b3c2b3faadc900a728b6e,,,,,,,,,,,,,,,,,,,,,,,a,1,1.5353,"[""0.275"",""0.371"",""0.970"",""0.887""]","[1,1,0,1]",0,59,59,59,1,0,1,,,1,FALSE,,,,,,,,,,,,,,,,,,,,,,,,,,,,,,
,603d221fa82afdb2b19d0692,001,2022-04-29_03h16.46.846,classification_task,2021.2.3,Win32,59.86590038,603d221fa82afdb2b19d0692,626b377229c10585ec392f8a,626b3c2b3faadc900a728b6e,,,,,,,,,,,,,,,,,,,,,,,a,1,1.2349,"[""0.966"",""0.371"",""0.624"",""0.887""]","[0,1,1,1]",0,60,60,60,1,0,1,,,1,FALSE,,,,,,,,,,,,,,,,,,,,,,,,,,,,,,
,603d221fa82afdb2b19d0692,001,2022-04-29_03h16.46.846,classification_task,2021.2.3,Win32,59.86590038,603d221fa82afdb2b19d0692,626b377229c10585ec392f8a,626b3c2b3faadc900a728b6e,,,,,,,,,,,,,,,,,,,,,,,l,0,2.5886,"[""0.580"",""0.466"",""0.806"",""0.931""]","[0,1,1,1]",0,61,61,61,1,0,0,,,1,FALSE,,,,,,,,,,,,,,,,,,,,,,,,,,,,,,
,603d221fa82afdb2b19d0692,001,2022-04-29_03h16.46.846,classification_task,2021.2.3,Win32,59.86590038,603d221fa82afdb2b19d0692,626b377229c10585ec392f8a,626b3c2b3faadc900a728b6e,,,,,,,,,,,,,,,,,,,,,,,a,0,1.1023,"[""0.059"",""0.100"",""0.519"",""0.766""]","[1,0,1,1]",0,62,62,62,1,1,0,,,1,FALSE,,,,,,,,,,,,,,,,,,,,,,,,,,,,,,
,603d221fa82afdb2b19d0692,001,2022-04-29_03h16.46.846,classification_task,2021.2.3,Win32,59.86590038,603d221fa82afdb2b19d0692,626b377229c10585ec392f8a,626b3c2b3faadc900a728b6e,,,,,,,,,,,,,,,,,,,,,,,l,1,1.9881,"[""0.059"",""0.423"",""0.111"",""0.766""]","[1,1,0,1]",0,63,63,63,1,1,0,,,1,FALSE,,,,,,,,,,,,,,,,,,,,,,,,,,,,,,
,603d221fa82afdb2b19d0692,001,2022-04-29_03h16.46.846,classification_task,2021.2.3,Win32,59.86590038,603d221fa82afdb2b19d0692,626b377229c10585ec392f8a,626b3c2b3faadc900a728b6e,,,,,,,,,,,,,,,,,,,,,,,,,,,,,,,,,,,,,,,0, ,,0,8.926917989,199.8546,0,2,2,2,1,2,3,,,,,,,,,,,,,,,,,
,603d221fa82afdb2b19d0692,001,2022-04-29_03h16.46.846,classification_task,2021.2.3,Win32,59.86590038,603d221fa82afdb2b19d0692,626b377229c10585ec392f8a,626b3c2b3faadc900a728b6e,,,,,,,,,,,,,,,,,,,,,,,,,,,,,,,,,,,,,,,1,  ,,0,8.858024691,198.4836,0,2,2,2,1,2,3,,,,,,,,,,,,,,,,,
,603d221fa82afdb2b19d0692,001,2022-04-29_03h16.46.846,classification_task,2021.2.3,Win32,59.86590038,603d221fa82afdb2b19d0692,626b377229c10585ec392f8a,626b3c2b3faadc900a728b6e,,,,,,,,,,,,,,,,,,,,,,,,,,,,,,,,,,,,,,,2,  ,,0,9.409171076,201.6079,0,2,2,2,1,2,3,,,,,,,,,,,,,,,,,
,603d221fa82afdb2b19d0692,001,2022-04-29_03h16.46.846,classification_task,2021.2.3,Win32,59.86590038,603d221fa82afdb2b19d0692,626b377229c10585ec392f8a,626b3c2b3faadc900a728b6e,,,,,,,,,,,,,,,,,,,,,,,,,,,,,,,,,,,,,,,,,,,,,0,2,2,2,1,,3,,,,,,,,,,,,,,,,,
,603d221fa82afdb2b19d0692,001,2022-04-29_03h16.46.846,classification_task,2021.2.3,Win32,59.86590038,603d221fa82afdb2b19d0692,626b377229c10585ec392f8a,626b3c2b3faadc900a728b6e,,,,,,,,,,,,,,,,,,,,,,,,,,,,,,,,,,,,,,,,,,,,,,,,,,,,,I believe the aid is a competent performer,,0.7,0,5,998.5186,0,0,0,0,1,0,,,,
,603d221fa82afdb2b19d0692,001,2022-04-29_03h16.46.846,classification_task,2021.2.3,Win32,59.86590038,603d221fa82afdb2b19d0692,626b377229c10585ec392f8a,626b3c2b3faadc900a728b6e,,,,,,,,,,,,,,,,,,,,,,,,,,,,,,,,,,,,,,,,,,,,,,,,,,,,,I trust the aid,,0.7,0,4,1002.693,0,0,0,0,1,0,,,,
,603d221fa82afdb2b19d0692,001,2022-04-29_03h16.46.846,classification_task,2021.2.3,Win32,59.86590038,603d221fa82afdb2b19d0692,626b377229c10585ec392f8a,626b3c2b3faadc900a728b6e,,,,,,,,,,,,,,,,,,,,,,,,,,,,,,,,,,,,,,,,,,,,,,,,,,,,,I have confidence in the advice given by the aid,,0.7,0,3,1007.0349,0,0,0,0,1,0,,,,
,603d221fa82afdb2b19d0692,001,2022-04-29_03h16.46.846,classification_task,2021.2.3,Win32,59.86590038,603d221fa82afdb2b19d0692,626b377229c10585ec392f8a,626b3c2b3faadc900a728b6e,,,,,,,,,,,,,,,,,,,,,,,,,,,,,,,,,,,,,,,,,,,,,,,,,,,,,I can depend on the aid,,0.7,0,3,1008.7551,0,0,0,0,1,0,,,,
,603d221fa82afdb2b19d0692,001,2022-04-29_03h16.46.846,classification_task,2021.2.3,Win32,59.86590038,603d221fa82afdb2b19d0692,626b377229c10585ec392f8a,626b3c2b3faadc900a728b6e,,,,,,,,,,,,,,,,,,,,,,,,,,,,,,,,,,,,,,,,,,,,,,,,,,,,,I can rely on the aid to behave in consistent ways,,0.7,0,3,1048.0618,0,0,0,0,1,0,,,,
,603d221fa82afdb2b19d0692,001,2022-04-29_03h16.46.846,classification_task,2021.2.3,Win32,59.86590038,603d221fa82afdb2b19d0692,626b377229c10585ec392f8a,626b3c2b3faadc900a728b6e,,,,,,,,,,,,,,,,,,,,,,,,,,,,,,,,,,,,,,,,,,,,,,,,,,,,,I can rely on the aid to do its best every time I take its advice,,0.7,0,3,1025.0978,0,0,0,0,1,0,,,,
,603d221fa82afdb2b19d0692,001,2022-04-29_03h16.46.846,classification_task,2021.2.3,Win32,59.86590038,603d221fa82afdb2b19d0692,626b377229c10585ec392f8a,626b3c2b3faadc900a728b6e,,,,,,,,,,,,,,,,,,,,,,,,,,,,,,,,,,,,,,,,,,,,,,,,,,,,,"On trials you completed with assistance from the aid, how frequently did you think the aid was correct?",,0.7,0,70,,0,0,0,0,1,0,,,,
,603d221fa82afdb2b19d0692,001,2022-04-29_03h16.46.846,classification_task,2021.2.3,Win32,59.86590038,603d221fa82afdb2b19d0692,626b377229c10585ec392f8a,626b3c2b3faadc900a728b6e,,,,,,,,,,,,,,,,,,,,,,,,,,,,,,,,,,,,,,,,,,,,,,,,,,,,,"On trials you completed without the aid, how frequently did you think you were correct?",,0.7,0,30,,0,0,0,0,1,0,,,,
,603d221fa82afdb2b19d0692,001,2022-04-29_03h16.46.846,classification_task,2021.2.3,Win32,59.86590038,603d221fa82afdb2b19d0692,626b377229c10585ec392f8a,626b3c2b3faadc900a728b6e,,,,,,,,,,,,,,,,,,,,,,,,,,,,,,,,,,,,,,,,,,,,,,,,,,,,,,,,,,,0,0,0,0,1,,,,,
,603d221fa82afdb2b19d0692,001,2022-04-29_03h16.46.846,classification_task,2021.2.3,Win32,59.86590038,603d221fa82afdb2b19d0692,626b377229c10585ec392f8a,626b3c2b3faadc900a728b6e,,,,,,,,,,,,,,,,,,,,,,,,,,,,,,,,,,,,,,,,,,,,,,,,,,,,,,,,,,,,,,,,,space,14.1824,1067.787,
,603d221fa82afdb2b19d0692,001,2022-04-29_03h16.46.846,classification_task,2021.2.3,Win32,59.86590038,603d221fa82afdb2b19d0692,626b377229c10585ec392f8a,626b3c2b3faadc900a728b6e,,,,,,,,,,,,,,,,,,,,,,,,,,,,,,,,,,,,,,,,,,,,,,,,,,,,,,,,,,,,,,,,,,,,"Mozilla/5.0 (Windows NT 10.0; Win64; x64) AppleWebKit/537.36 (KHTML, like Gecko) Chrome/100.0.4896.127 Safari/537.36"
