usingWebGL,participant,session,date,expName,psychopyVersion,OS,frameRate,PROLIFIC_PID,STUDY_ID,SESSION_ID,signatures_friend,signatures_foe,band_ranges_top,band_ranges_bottom,formitemText,formtype,formundefined,formitemWidth,formindex,formresponse,formrt,key_resp_2.keys,key_resp_2.rt,tute_resp.keys,tute_resp.rt,tutorial.thisRepN,tutorial.thisTrialN,tutorial.thisN,tutorial.thisIndex,tutorial.ran,key_resp_4.keys,key_resp_4.rt,key_resp.keys,key_resp.corr,lines_presented,is_signal_presented,trials.thisRepN,trials.thisTrialN,trials.thisN,trials.thisIndex,trials.ran,vessel,active_band,lines,is_signal,supported_pos,catch_trial,key_resp.rt,debrief_formindex,debrief_formitemText,debrief_formtype,debrief_formitemWidth,debrief_formresponse,debrief_formrt,phases.thisRepN,phases.thisTrialN,phases.thisN,phases.thisIndex,phases.ran,phases.order,phase,key_resp_3.keys,trustitemText,trusttype,trustitemWidth,trustindex,trustresponse,trustrt,support_status.thisRepN,support_status.thisTrialN,support_status.thisN,support_status.thisIndex,support_status.ran,support_status.order,key_resp_5.keys,key_resp_5.rt,globalClockTime,userAgent
TRUE,6043f909d14273455e5e7436,001,2022-04-28_20h24.53.311,classification_task,2021.2.3,Win32,30.00120005,6043f909d14273455e5e7436,626b377229c10585ec392f8a,626b3bd9c80ab878a33c3b0e,,,,,,,,,,,,,,,,,,,,,,,,,,,,,,,,,,,,,,,,,,,,,,,,,,,,,,,,,,,,,,,,,,,,
,6043f909d14273455e5e7436,001,2022-04-28_20h24.53.311,classification_task,2021.2.3,Win32,30.00120005,6043f909d14273455e5e7436,626b377229c10585ec392f8a,626b3bd9c80ab878a33c3b0e,"[[""0.290"",""0.497"",""0.772"",""0.862""],[""0.173"",""0.343"",""0.935"",""0.974""]]","[[""0.026"",""0.227"",""0.564"",""0.822""],[""0.076"",""0.388"",""0.627"",""0.733""]]","[1,10]","[100,1000]",Video game experience,,,0.7,0,,,,,,,,,,,,,,,,,,,,,,,,,,,,,,,,,,,,,,,,,,,,,,,,,,,,,,,,,,,
,6043f909d14273455e5e7436,001,2022-04-28_20h24.53.311,classification_task,2021.2.3,Win32,30.00120005,6043f909d14273455e5e7436,626b377229c10585ec392f8a,626b3bd9c80ab878a33c3b0e,,,,,Approximately how many hours did you spend playing video games in the last week?,,,0.7,0,3,,,,,,,,,,,,,,,,,,,,,,,,,,,,,,,,,,,,,,,,,,,,,,,,,,,,,,,,,,
,6043f909d14273455e5e7436,001,2022-04-28_20h24.53.311,classification_task,2021.2.3,Win32,30.00120005,6043f909d14273455e5e7436,626b377229c10585ec392f8a,626b3bd9c80ab878a33c3b0e,,,,,"Which game did you play the most this year? (Enter ""None"" if you didn't play any)",,,0.7,0,minecraft,,,,,,,,,,,,,,,,,,,,,,,,,,,,,,,,,,,,,,,,,,,,,,,,,,,,,,,,,,
,6043f909d14273455e5e7436,001,2022-04-28_20h24.53.311,classification_task,2021.2.3,Win32,30.00120005,6043f909d14273455e5e7436,626b377229c10585ec392f8a,626b3bd9c80ab878a33c3b0e,,,,,Visual perception,,,0.7,0,,,,,,,,,,,,,,,,,,,,,,,,,,,,,,,,,,,,,,,,,,,,,,,,,,,,,,,,,,,
,6043f909d14273455e5e7436,001,2022-04-28_20h24.53.311,classification_task,2021.2.3,Win32,30.00120005,6043f909d14273455e5e7436,626b377229c10585ec392f8a,626b3bd9c80ab878a33c3b0e,,,,,Do you have any form of color blindness?,,,0.7,0,No,51.3114,,,,,,,,,,,,,,,,,,,,,,,,,,,,,,,,,,,,,,,,,,,,,,,,,,,,,,,,,
,6043f909d14273455e5e7436,001,2022-04-28_20h24.53.311,classification_task,2021.2.3,Win32,30.00120005,6043f909d14273455e5e7436,626b377229c10585ec392f8a,626b3bd9c80ab878a33c3b0e,,,,,Do you use software to change the colour temperature of your screen (e.g. f.lux)?,,,0.7,0,No,52.5854,,,,,,,,,,,,,,,,,,,,,,,,,,,,,,,,,,,,,,,,,,,,,,,,,,,,,,,,,
,6043f909d14273455e5e7436,001,2022-04-28_20h24.53.311,classification_task,2021.2.3,Win32,30.00120005,6043f909d14273455e5e7436,626b377229c10585ec392f8a,626b3bd9c80ab878a33c3b0e,,,,,,,,,,,,space,72.7516,space,18.9184,0,0,0,0,1,,,,,,,,,,,,,,,,,,,,,,,,,,,,,,,,,,,,,,,,,,,,,,,,
,6043f909d14273455e5e7436,001,2022-04-28_20h24.53.311,classification_task,2021.2.3,Win32,30.00120005,6043f909d14273455e5e7436,626b377229c10585ec392f8a,626b3bd9c80ab878a33c3b0e,,,,,,,,,,,,,,space,10.4611,1,0,1,0,1,,,,,,,,,,,,,,,,,,,,,,,,,,,,,,,,,,,,,,,,,,,,,,,,
,6043f909d14273455e5e7436,001,2022-04-28_20h24.53.311,classification_task,2021.2.3,Win32,30.00120005,6043f909d14273455e5e7436,626b377229c10585ec392f8a,626b3bd9c80ab878a33c3b0e,,,,,,,,,,,,,,space,19.3302,2,0,2,0,1,,,,,,,,,,,,,,,,,,,,,,,,,,,,,,,,,,,,,,,,,,,,,,,,
,6043f909d14273455e5e7436,001,2022-04-28_20h24.53.311,classification_task,2021.2.3,Win32,30.00120005,6043f909d14273455e5e7436,626b377229c10585ec392f8a,626b3bd9c80ab878a33c3b0e,,,,,,,,,,,,,,space,35.1182,3,0,3,0,1,,,,,,,,,,,,,,,,,,,,,,,,,,,,,,,,,,,,,,,,,,,,,,,,
,6043f909d14273455e5e7436,001,2022-04-28_20h24.53.311,classification_task,2021.2.3,Win32,30.00120005,6043f909d14273455e5e7436,626b377229c10585ec392f8a,626b3bd9c80ab878a33c3b0e,,,,,,,,,,,,,,space,12.558,4,0,4,0,1,,,,,,,,,,,,,,,,,,,,,,,,,,,,,,,,,,,,,,,,,,,,,,,,
,6043f909d14273455e5e7436,001,2022-04-28_20h24.53.311,classification_task,2021.2.3,Win32,30.00120005,6043f909d14273455e5e7436,626b377229c10585ec392f8a,626b3bd9c80ab878a33c3b0e,,,,,,,,,,,,,,,,,,,,,space,451.6528,,0,"[""0.676"",""0.227"",""0.564"",""0.822""]","[0,1,1,1]",0,0,0,0,1,1,0,,,0,FALSE,,,,,,,,,,,,,,,,,,,,,,,,,,,,,,,
,6043f909d14273455e5e7436,001,2022-04-28_20h24.53.311,classification_task,2021.2.3,Win32,30.00120005,6043f909d14273455e5e7436,626b377229c10585ec392f8a,626b3bd9c80ab878a33c3b0e,,,,,,,,,,,,,,,,,,,,,,,,0,"[""0.457"",""0.388"",""0.627"",""0.733""]","[0,1,1,1]",0,1,1,1,1,1,1,,,0,FALSE,,,,,,,,,,,,,,,,,,,,,,,,,,,,,,,
,6043f909d14273455e5e7436,001,2022-04-28_20h24.53.311,classification_task,2021.2.3,Win32,30.00120005,6043f909d14273455e5e7436,626b377229c10585ec392f8a,626b3bd9c80ab878a33c3b0e,,,,,,,,,,,,,,,,,,,,,,,l,1,"[""0.026"",""0.227"",""0.564"",""0.139""]","[1,1,1,0]",0,2,2,2,1,1,0,,,0,FALSE,5.0997,,,,,,,,,,,,,,,,,,,,,,,,,,,,,,
,6043f909d14273455e5e7436,001,2022-04-28_20h24.53.311,classification_task,2021.2.3,Win32,30.00120005,6043f909d14273455e5e7436,626b377229c10585ec392f8a,626b3bd9c80ab878a33c3b0e,,,,,,,,,,,,,,,,,,,,,,,a,1,"[""0.173"",""0.343"",""0.935"",""0.139""]","[1,1,1,0]",0,3,3,3,1,0,1,,,0,FALSE,5.8957,,,,,,,,,,,,,,,,,,,,,,,,,,,,,,
,6043f909d14273455e5e7436,001,2022-04-28_20h24.53.311,classification_task,2021.2.3,Win32,30.00120005,6043f909d14273455e5e7436,626b377229c10585ec392f8a,626b3bd9c80ab878a33c3b0e,,,,,,,,,,,,,,,,,,,,,,,,0,"[""0.679"",""0.497"",""0.772"",""0.862""]","[0,1,1,1]",0,4,4,4,1,0,0,,,0,FALSE,,,,,,,,,,,,,,,,,,,,,,,,,,,,,,,
,6043f909d14273455e5e7436,001,2022-04-28_20h24.53.311,classification_task,2021.2.3,Win32,30.00120005,6043f909d14273455e5e7436,626b377229c10585ec392f8a,626b3bd9c80ab878a33c3b0e,,,,,,,,,,,,,,,,,,,,,,,a,1,"[""0.290"",""0.497"",""0.667"",""0.862""]","[1,1,0,1]",0,5,5,5,1,0,0,,,0,FALSE,4.6445,,,,,,,,,,,,,,,,,,,,,,,,,,,,,,
,6043f909d14273455e5e7436,001,2022-04-28_20h24.53.311,classification_task,2021.2.3,Win32,30.00120005,6043f909d14273455e5e7436,626b377229c10585ec392f8a,626b3bd9c80ab878a33c3b0e,,,,,,,,,,,,,,,,,,,,,,,l,1,"[""0.076"",""0.388"",""0.423"",""0.733""]","[1,1,0,1]",0,6,6,6,1,1,1,,,0,FALSE,5.217,,,,,,,,,,,,,,,,,,,,,,,,,,,,,,
,6043f909d14273455e5e7436,001,2022-04-28_20h24.53.311,classification_task,2021.2.3,Win32,30.00120005,6043f909d14273455e5e7436,626b377229c10585ec392f8a,626b3bd9c80ab878a33c3b0e,,,,,,,,,,,,,,,,,,,,,,,l,1,"[""0.026"",""0.227"",""0.128"",""0.822""]","[1,1,0,1]",0,7,7,7,1,1,0,,,0,FALSE,7.6763,,,,,,,,,,,,,,,,,,,,,,,,,,,,,,
,6043f909d14273455e5e7436,001,2022-04-28_20h24.53.311,classification_task,2021.2.3,Win32,30.00120005,6043f909d14273455e5e7436,626b377229c10585ec392f8a,626b3bd9c80ab878a33c3b0e,,,,,,,,,,,,,,,,,,,,,,,a,1,"[""0.173"",""0.343"",""0.457"",""0.974""]","[1,1,0,1]",0,8,8,8,1,0,1,,,0,FALSE,7.6864,,,,,,,,,,,,,,,,,,,,,,,,,,,,,,
,6043f909d14273455e5e7436,001,2022-04-28_20h24.53.311,classification_task,2021.2.3,Win32,30.00120005,6043f909d14273455e5e7436,626b377229c10585ec392f8a,626b3bd9c80ab878a33c3b0e,,,,,,,,,,,,,,,,,,,,,,,l,1,"[""0.026"",""0.112"",""0.564"",""0.822""]","[1,0,1,1]",0,9,9,9,1,1,0,,,0,FALSE,7.2705,,,,,,,,,,,,,,,,,,,,,,,,,,,,,,
,6043f909d14273455e5e7436,001,2022-04-28_20h24.53.311,classification_task,2021.2.3,Win32,30.00120005,6043f909d14273455e5e7436,626b377229c10585ec392f8a,626b3bd9c80ab878a33c3b0e,,,,,,,,,,,,,,,,,,,,,,,a,1,"[""0.290"",""0.531"",""0.772"",""0.862""]","[1,0,1,1]",0,10,10,10,1,0,0,,,0,FALSE,5.8931,,,,,,,,,,,,,,,,,,,,,,,,,,,,,,
,6043f909d14273455e5e7436,001,2022-04-28_20h24.53.311,classification_task,2021.2.3,Win32,30.00120005,6043f909d14273455e5e7436,626b377229c10585ec392f8a,626b3bd9c80ab878a33c3b0e,,,,,,,,,,,,,,,,,,,,,,,a,1,"[""0.685"",""0.343"",""0.935"",""0.974""]","[0,1,1,1]",0,11,11,11,1,0,1,,,0,FALSE,6.1578,,,,,,,,,,,,,,,,,,,,,,,,,,,,,,
,6043f909d14273455e5e7436,001,2022-04-28_20h24.53.311,classification_task,2021.2.3,Win32,30.00120005,6043f909d14273455e5e7436,626b377229c10585ec392f8a,626b3bd9c80ab878a33c3b0e,,,,,,,,,,,,,,,,,,,,,,,,0,"[""0.076"",""0.388"",""0.627"",""0.139""]","[1,1,1,0]",0,12,12,12,1,1,1,,,0,FALSE,,,,,,,,,,,,,,,,,,,,,,,,,,,,,,,
,6043f909d14273455e5e7436,001,2022-04-28_20h24.53.311,classification_task,2021.2.3,Win32,30.00120005,6043f909d14273455e5e7436,626b377229c10585ec392f8a,626b3bd9c80ab878a33c3b0e,,,,,,,,,,,,,,,,,,,,,,,a,1,"[""0.290"",""0.497"",""0.772"",""0.461""]","[1,1,1,0]",0,13,13,13,1,0,0,,,0,FALSE,6.481,,,,,,,,,,,,,,,,,,,,,,,,,,,,,,
,6043f909d14273455e5e7436,001,2022-04-28_20h24.53.311,classification_task,2021.2.3,Win32,30.00120005,6043f909d14273455e5e7436,626b377229c10585ec392f8a,626b3bd9c80ab878a33c3b0e,,,,,,,,,,,,,,,,,,,,,,,a,1,"[""0.173"",""0.681"",""0.935"",""0.974""]","[1,0,1,1]",0,14,14,14,1,0,1,,,0,FALSE,3.7202,,,,,,,,,,,,,,,,,,,,,,,,,,,,,,
,6043f909d14273455e5e7436,001,2022-04-28_20h24.53.311,classification_task,2021.2.3,Win32,30.00120005,6043f909d14273455e5e7436,626b377229c10585ec392f8a,626b3bd9c80ab878a33c3b0e,,,,,,,,,,,,,,,,,,,,,,,l,1,"[""0.076"",""0.128"",""0.627"",""0.733""]","[1,0,1,1]",0,15,15,15,1,1,1,,,0,FALSE,5.2995,,,,,,,,,,,,,,,,,,,,,,,,,,,,,,
,6043f909d14273455e5e7436,001,2022-04-28_20h24.53.311,classification_task,2021.2.3,Win32,30.00120005,6043f909d14273455e5e7436,626b377229c10585ec392f8a,626b3bd9c80ab878a33c3b0e,,,,,,,,,,,,,,,,,,,,,,,l,1,"[""0.457"",""0.388"",""0.627"",""0.733""]","[0,1,1,1]",0,16,16,16,1,1,1,,,0,FALSE,6.6179,,,,,,,,,,,,,,,,,,,,,,,,,,,,,,
,6043f909d14273455e5e7436,001,2022-04-28_20h24.53.311,classification_task,2021.2.3,Win32,30.00120005,6043f909d14273455e5e7436,626b377229c10585ec392f8a,626b3bd9c80ab878a33c3b0e,,,,,,,,,,,,,,,,,,,,,,,a,1,"[""0.290"",""0.497"",""0.677"",""0.862""]","[1,1,0,1]",0,17,17,17,1,0,0,,,0,FALSE,3.6698,,,,,,,,,,,,,,,,,,,,,,,,,,,,,,
,6043f909d14273455e5e7436,001,2022-04-28_20h24.53.311,classification_task,2021.2.3,Win32,30.00120005,6043f909d14273455e5e7436,626b377229c10585ec392f8a,626b3bd9c80ab878a33c3b0e,,,,,,,,,,,,,,,,,,,,,,,a,1,"[""0.461"",""0.343"",""0.935"",""0.974""]","[0,1,1,1]",0,18,18,18,1,0,1,,,0,FALSE,5.0556,,,,,,,,,,,,,,,,,,,,,,,,,,,,,,
,6043f909d14273455e5e7436,001,2022-04-28_20h24.53.311,classification_task,2021.2.3,Win32,30.00120005,6043f909d14273455e5e7436,626b377229c10585ec392f8a,626b3bd9c80ab878a33c3b0e,,,,,,,,,,,,,,,,,,,,,,,a,0,"[""0.076"",""0.423"",""0.627"",""0.733""]","[1,0,1,1]",0,19,19,19,1,1,1,,,0,FALSE,7.1805,,,,,,,,,,,,,,,,,,,,,,,,,,,,,,
,6043f909d14273455e5e7436,001,2022-04-28_20h24.53.311,classification_task,2021.2.3,Win32,30.00120005,6043f909d14273455e5e7436,626b377229c10585ec392f8a,626b3bd9c80ab878a33c3b0e,,,,,,,,,,,,,,,,,,,,,,,l,1,"[""0.026"",""0.227"",""0.679"",""0.822""]","[1,1,0,1]",0,20,20,20,1,1,0,,,0,FALSE,5.8098,,,,,,,,,,,,,,,,,,,,,,,,,,,,,,
,6043f909d14273455e5e7436,001,2022-04-28_20h24.53.311,classification_task,2021.2.3,Win32,30.00120005,6043f909d14273455e5e7436,626b377229c10585ec392f8a,626b3bd9c80ab878a33c3b0e,,,,,,,,,,,,,,,,,,,,,,,a,1,"[""0.173"",""0.343"",""0.681"",""0.974""]","[1,1,0,1]",0,21,21,21,1,0,1,,,0,FALSE,3.5803,,,,,,,,,,,,,,,,,,,,,,,,,,,,,,
,6043f909d14273455e5e7436,001,2022-04-28_20h24.53.311,classification_task,2021.2.3,Win32,30.00120005,6043f909d14273455e5e7436,626b377229c10585ec392f8a,626b3bd9c80ab878a33c3b0e,,,,,,,,,,,,,,,,,,,,,,,a,1,"[""0.290"",""0.681"",""0.772"",""0.862""]","[1,0,1,1]",0,22,22,22,1,0,0,,,0,FALSE,6.3205,,,,,,,,,,,,,,,,,,,,,,,,,,,,,,
,6043f909d14273455e5e7436,001,2022-04-28_20h24.53.311,classification_task,2021.2.3,Win32,30.00120005,6043f909d14273455e5e7436,626b377229c10585ec392f8a,626b3bd9c80ab878a33c3b0e,,,,,,,,,,,,,,,,,,,,,,,l,1,"[""0.677"",""0.227"",""0.564"",""0.822""]","[0,1,1,1]",0,23,23,23,1,1,0,,,0,FALSE,5.7977,,,,,,,,,,,,,,,,,,,,,,,,,,,,,,
,6043f909d14273455e5e7436,001,2022-04-28_20h24.53.311,classification_task,2021.2.3,Win32,30.00120005,6043f909d14273455e5e7436,626b377229c10585ec392f8a,626b3bd9c80ab878a33c3b0e,,,,,,,,,,,,,,,,,,,,,,,a,1,"[""0.173"",""0.112"",""0.935"",""0.974""]","[1,0,1,1]",0,24,24,24,1,0,1,,,0,FALSE,5.2725,,,,,,,,,,,,,,,,,,,,,,,,,,,,,,
,6043f909d14273455e5e7436,001,2022-04-28_20h24.53.311,classification_task,2021.2.3,Win32,30.00120005,6043f909d14273455e5e7436,626b377229c10585ec392f8a,626b3bd9c80ab878a33c3b0e,,,,,,,,,,,,,,,,,,,,,,,a,1,"[""0.173"",""0.343"",""0.935"",""0.461""]","[1,1,1,0]",0,25,25,25,1,0,1,,,0,FALSE,5.9021,,,,,,,,,,,,,,,,,,,,,,,,,,,,,,
,6043f909d14273455e5e7436,001,2022-04-28_20h24.53.311,classification_task,2021.2.3,Win32,30.00120005,6043f909d14273455e5e7436,626b377229c10585ec392f8a,626b3bd9c80ab878a33c3b0e,,,,,,,,,,,,,,,,,,,,,,,a,1,"[""0.290"",""0.497"",""0.772"",""0.667""]","[1,1,1,0]",0,26,26,26,1,0,0,,,0,FALSE,3.8416,,,,,,,,,,,,,,,,,,,,,,,,,,,,,,
,6043f909d14273455e5e7436,001,2022-04-28_20h24.53.311,classification_task,2021.2.3,Win32,30.00120005,6043f909d14273455e5e7436,626b377229c10585ec392f8a,626b3bd9c80ab878a33c3b0e,,,,,,,,,,,,,,,,,,,,,,,l,1,"[""0.076"",""0.388"",""0.667"",""0.733""]","[1,1,0,1]",0,27,27,27,1,1,1,,,0,FALSE,5.8135,,,,,,,,,,,,,,,,,,,,,,,,,,,,,,
,6043f909d14273455e5e7436,001,2022-04-28_20h24.53.311,classification_task,2021.2.3,Win32,30.00120005,6043f909d14273455e5e7436,626b377229c10585ec392f8a,626b3bd9c80ab878a33c3b0e,,,,,,,,,,,,,,,,,,,,,,,l,1,"[""0.026"",""0.227"",""0.564"",""0.677""]","[1,1,1,0]",0,28,28,28,1,1,0,,,0,FALSE,4.8646,,,,,,,,,,,,,,,,,,,,,,,,,,,,,,
,6043f909d14273455e5e7436,001,2022-04-28_20h24.53.311,classification_task,2021.2.3,Win32,30.00120005,6043f909d14273455e5e7436,626b377229c10585ec392f8a,626b3bd9c80ab878a33c3b0e,,,,,,,,,,,,,,,,,,,,,,,l,1,"[""0.076"",""0.388"",""0.627"",""0.685""]","[1,1,1,0]",0,29,29,29,1,1,1,,,0,FALSE,8.3087,,,,,,,,,,,,,,,,,,,,,,,,,,,,,,
,6043f909d14273455e5e7436,001,2022-04-28_20h24.53.311,classification_task,2021.2.3,Win32,30.00120005,6043f909d14273455e5e7436,626b377229c10585ec392f8a,626b3bd9c80ab878a33c3b0e,,,,,,,,,,,,,,,,,,,,,,,l,1,"[""0.026"",""0.677"",""0.564"",""0.822""]","[1,0,1,1]",0,30,30,30,1,1,0,,,0,FALSE,4.6895,,,,,,,,,,,,,,,,,,,,,,,,,,,,,,
,6043f909d14273455e5e7436,001,2022-04-28_20h24.53.311,classification_task,2021.2.3,Win32,30.00120005,6043f909d14273455e5e7436,626b377229c10585ec392f8a,626b3bd9c80ab878a33c3b0e,,,,,,,,,,,,,,,,,,,,,,,l,0,"[""0.139"",""0.497"",""0.772"",""0.862""]","[0,1,1,1]",0,31,31,31,1,0,0,,,0,FALSE,8.9777,,,,,,,,,,,,,,,,,,,,,,,,,,,,,,
,6043f909d14273455e5e7436,001,2022-04-28_20h24.53.311,classification_task,2021.2.3,Win32,30.00120005,6043f909d14273455e5e7436,626b377229c10585ec392f8a,626b3bd9c80ab878a33c3b0e,,,,,,,,,,,,,,,,,,,,,,,a,0,"[""0.026"",""0.227"",""0.564"",""0.679""]","[1,1,1,0]",0,32,32,32,1,1,0,,,0,FALSE,7.3634,,,,,,,,,,,,,,,,,,,,,,,,,,,,,,
,6043f909d14273455e5e7436,001,2022-04-28_20h24.53.311,classification_task,2021.2.3,Win32,30.00120005,6043f909d14273455e5e7436,626b377229c10585ec392f8a,626b3bd9c80ab878a33c3b0e,,,,,,,,,,,,,,,,,,,,,,,l,0,"[""0.139"",""0.343"",""0.935"",""0.974""]","[0,1,1,1]",0,33,33,33,1,0,1,,,0,FALSE,5.7325,,,,,,,,,,,,,,,,,,,,,,,,,,,,,,
,6043f909d14273455e5e7436,001,2022-04-28_20h24.53.311,classification_task,2021.2.3,Win32,30.00120005,6043f909d14273455e5e7436,626b377229c10585ec392f8a,626b3bd9c80ab878a33c3b0e,,,,,,,,,,,,,,,,,,,,,,,a,0,"[""0.026"",""0.227"",""0.461"",""0.822""]","[1,1,0,1]",0,34,34,34,1,1,0,,,0,FALSE,4.6915,,,,,,,,,,,,,,,,,,,,,,,,,,,,,,
,6043f909d14273455e5e7436,001,2022-04-28_20h24.53.311,classification_task,2021.2.3,Win32,30.00120005,6043f909d14273455e5e7436,626b377229c10585ec392f8a,626b3bd9c80ab878a33c3b0e,,,,,,,,,,,,,,,,,,,,,,,a,1,"[""0.173"",""0.343"",""0.670"",""0.974""]","[1,1,0,1]",0,35,35,35,1,0,1,,,0,FALSE,0.8892,,,,,,,,,,,,,,,,,,,,,,,,,,,,,,
,6043f909d14273455e5e7436,001,2022-04-28_20h24.53.311,classification_task,2021.2.3,Win32,30.00120005,6043f909d14273455e5e7436,626b377229c10585ec392f8a,626b3bd9c80ab878a33c3b0e,,,,,,,,,,,,,,,,,,,,,,,l,1,"[""0.026"",""0.685"",""0.564"",""0.822""]","[1,0,1,1]",0,36,36,36,1,1,0,,,0,FALSE,3.6304,,,,,,,,,,,,,,,,,,,,,,,,,,,,,,
,6043f909d14273455e5e7436,001,2022-04-28_20h24.53.311,classification_task,2021.2.3,Win32,30.00120005,6043f909d14273455e5e7436,626b377229c10585ec392f8a,626b3bd9c80ab878a33c3b0e,,,,,,,,,,,,,,,,,,,,,,,l,0,"[""0.667"",""0.497"",""0.772"",""0.862""]","[0,1,1,1]",0,37,37,37,1,0,0,,,0,FALSE,2.1774,,,,,,,,,,,,,,,,,,,,,,,,,,,,,,
,6043f909d14273455e5e7436,001,2022-04-28_20h24.53.311,classification_task,2021.2.3,Win32,30.00120005,6043f909d14273455e5e7436,626b377229c10585ec392f8a,626b3bd9c80ab878a33c3b0e,,,,,,,,,,,,,,,,,,,,,,,l,1,"[""0.076"",""0.388"",""0.681"",""0.733""]","[1,1,0,1]",0,38,38,38,1,1,1,,,0,FALSE,0.8814,,,,,,,,,,,,,,,,,,,,,,,,,,,,,,
,6043f909d14273455e5e7436,001,2022-04-28_20h24.53.311,classification_task,2021.2.3,Win32,30.00120005,6043f909d14273455e5e7436,626b377229c10585ec392f8a,626b3bd9c80ab878a33c3b0e,,,,,,,,,,,,,,,,,,,,,,,a,0,"[""0.076"",""0.388"",""0.627"",""0.685""]","[1,1,1,0]",0,39,39,39,1,1,1,,,0,FALSE,1.6991,,,,,,,,,,,,,,,,,,,,,,,,,,,,,,
,6043f909d14273455e5e7436,001,2022-04-28_20h24.53.311,classification_task,2021.2.3,Win32,30.00120005,6043f909d14273455e5e7436,626b377229c10585ec392f8a,626b3bd9c80ab878a33c3b0e,,,,,,,,,,,,,,,,,,,,,,,l,0,"[""0.173"",""0.676"",""0.935"",""0.974""]","[1,0,1,1]",0,40,40,40,1,0,1,,,0,FALSE,0.9036,,,,,,,,,,,,,,,,,,,,,,,,,,,,,,
,6043f909d14273455e5e7436,001,2022-04-28_20h24.53.311,classification_task,2021.2.3,Win32,30.00120005,6043f909d14273455e5e7436,626b377229c10585ec392f8a,626b3bd9c80ab878a33c3b0e,,,,,,,,,,,,,,,,,,,,,,,l,1,"[""0.076"",""0.670"",""0.627"",""0.733""]","[1,0,1,1]",0,41,41,41,1,1,1,,,0,FALSE,0.8431,,,,,,,,,,,,,,,,,,,,,,,,,,,,,,
,6043f909d14273455e5e7436,001,2022-04-28_20h24.53.311,classification_task,2021.2.3,Win32,30.00120005,6043f909d14273455e5e7436,626b377229c10585ec392f8a,626b3bd9c80ab878a33c3b0e,,,,,,,,,,,,,,,,,,,,,,,l,1,"[""0.681"",""0.227"",""0.564"",""0.822""]","[0,1,1,1]",0,42,42,42,1,1,0,,,0,FALSE,2.9291,,,,,,,,,,,,,,,,,,,,,,,,,,,,,,
,6043f909d14273455e5e7436,001,2022-04-28_20h24.53.311,classification_task,2021.2.3,Win32,30.00120005,6043f909d14273455e5e7436,626b377229c10585ec392f8a,626b3bd9c80ab878a33c3b0e,,,,,,,,,,,,,,,,,,,,,,,a,1,"[""0.290"",""0.677"",""0.772"",""0.862""]","[1,0,1,1]",0,43,43,43,1,0,0,,,0,FALSE,1.665,,,,,,,,,,,,,,,,,,,,,,,,,,,,,,
,6043f909d14273455e5e7436,001,2022-04-28_20h24.53.311,classification_task,2021.2.3,Win32,30.00120005,6043f909d14273455e5e7436,626b377229c10585ec392f8a,626b3bd9c80ab878a33c3b0e,,,,,,,,,,,,,,,,,,,,,,,a,0,"[""0.677"",""0.388"",""0.627"",""0.733""]","[0,1,1,1]",0,44,44,44,1,1,1,,,0,FALSE,1.2551,,,,,,,,,,,,,,,,,,,,,,,,,,,,,,
,6043f909d14273455e5e7436,001,2022-04-28_20h24.53.311,classification_task,2021.2.3,Win32,30.00120005,6043f909d14273455e5e7436,626b377229c10585ec392f8a,626b3bd9c80ab878a33c3b0e,,,,,,,,,,,,,,,,,,,,,,,a,1,"[""0.173"",""0.343"",""0.935"",""0.439""]","[1,1,1,0]",0,45,45,45,1,0,1,,,0,FALSE,0.8548,,,,,,,,,,,,,,,,,,,,,,,,,,,,,,
,6043f909d14273455e5e7436,001,2022-04-28_20h24.53.311,classification_task,2021.2.3,Win32,30.00120005,6043f909d14273455e5e7436,626b377229c10585ec392f8a,626b3bd9c80ab878a33c3b0e,,,,,,,,,,,,,,,,,,,,,,,l,0,"[""0.290"",""0.497"",""0.772"",""0.685""]","[1,1,1,0]",0,46,46,46,1,0,0,,,0,FALSE,2.1204,,,,,,,,,,,,,,,,,,,,,,,,,,,,,,
,6043f909d14273455e5e7436,001,2022-04-28_20h24.53.311,classification_task,2021.2.3,Win32,30.00120005,6043f909d14273455e5e7436,626b377229c10585ec392f8a,626b3bd9c80ab878a33c3b0e,,,,,,,,,,,,,,,,,,,,,,,a,1,"[""0.290"",""0.497"",""0.681"",""0.862""]","[1,1,0,1]",0,47,47,47,1,0,0,,,0,FALSE,0.429,,,,,,,,,,,,,,,,,,,,,,,,,,,,,,
,6043f909d14273455e5e7436,001,2022-04-28_20h24.53.311,classification_task,2021.2.3,Win32,30.00120005,6043f909d14273455e5e7436,626b377229c10585ec392f8a,626b3bd9c80ab878a33c3b0e,,,,,,,,,,,,,,,,,,,,,,,a,0,"[""0.026"",""0.227"",""0.564"",""0.670""]","[1,1,1,0]",0,48,48,48,1,1,0,,,0,FALSE,2.0992,,,,,,,,,,,,,,,,,,,,,,,,,,,,,,
,6043f909d14273455e5e7436,001,2022-04-28_20h24.53.311,classification_task,2021.2.3,Win32,30.00120005,6043f909d14273455e5e7436,626b377229c10585ec392f8a,626b3bd9c80ab878a33c3b0e,,,,,,,,,,,,,,,,,,,,,,,a,1,"[""0.290"",""0.676"",""0.772"",""0.862""]","[1,0,1,1]",0,49,49,49,1,0,0,,,0,FALSE,0.836,,,,,,,,,,,,,,,,,,,,,,,,,,,,,,
,6043f909d14273455e5e7436,001,2022-04-28_20h24.53.311,classification_task,2021.2.3,Win32,30.00120005,6043f909d14273455e5e7436,626b377229c10585ec392f8a,626b3bd9c80ab878a33c3b0e,,,,,,,,,,,,,,,,,,,,,,,a,1,"[""0.670"",""0.343"",""0.935"",""0.974""]","[0,1,1,1]",0,50,50,50,1,0,1,,,0,FALSE,2.1381,,,,,,,,,,,,,,,,,,,,,,,,,,,,,,
,6043f909d14273455e5e7436,001,2022-04-28_20h24.53.311,classification_task,2021.2.3,Win32,30.00120005,6043f909d14273455e5e7436,626b377229c10585ec392f8a,626b3bd9c80ab878a33c3b0e,,,,,,,,,,,,,,,,,,,,,,,a,0,"[""0.677"",""0.227"",""0.564"",""0.822""]","[0,1,1,1]",0,51,51,51,1,1,0,,,0,FALSE,6.6599,,,,,,,,,,,,,,,,,,,,,,,,,,,,,,
,6043f909d14273455e5e7436,001,2022-04-28_20h24.53.311,classification_task,2021.2.3,Win32,30.00120005,6043f909d14273455e5e7436,626b377229c10585ec392f8a,626b3bd9c80ab878a33c3b0e,,,,,,,,,,,,,,,,,,,,,,,a,0,"[""0.076"",""0.388"",""0.676"",""0.733""]","[1,1,0,1]",0,52,52,52,1,1,1,,,0,FALSE,0.8594,,,,,,,,,,,,,,,,,,,,,,,,,,,,,,
,6043f909d14273455e5e7436,001,2022-04-28_20h24.53.311,classification_task,2021.2.3,Win32,30.00120005,6043f909d14273455e5e7436,626b377229c10585ec392f8a,626b3bd9c80ab878a33c3b0e,,,,,,,,,,,,,,,,,,,,,,,l,0,"[""0.173"",""0.343"",""0.935"",""0.531""]","[1,1,1,0]",0,53,53,53,1,0,1,,,0,FALSE,0.8592,,,,,,,,,,,,,,,,,,,,,,,,,,,,,,
,6043f909d14273455e5e7436,001,2022-04-28_20h24.53.311,classification_task,2021.2.3,Win32,30.00120005,6043f909d14273455e5e7436,626b377229c10585ec392f8a,626b3bd9c80ab878a33c3b0e,,,,,,,,,,,,,,,,,,,,,,,l,1,"[""0.423"",""0.388"",""0.627"",""0.733""]","[0,1,1,1]",0,54,54,54,1,1,1,,,0,FALSE,0.8568,,,,,,,,,,,,,,,,,,,,,,,,,,,,,,
,6043f909d14273455e5e7436,001,2022-04-28_20h24.53.311,classification_task,2021.2.3,Win32,30.00120005,6043f909d14273455e5e7436,626b377229c10585ec392f8a,626b3bd9c80ab878a33c3b0e,,,,,,,,,,,,,,,,,,,,,,,l,1,"[""0.076"",""0.439"",""0.627"",""0.733""]","[1,0,1,1]",0,55,55,55,1,1,1,,,0,FALSE,2.0917,,,,,,,,,,,,,,,,,,,,,,,,,,,,,,
,6043f909d14273455e5e7436,001,2022-04-28_20h24.53.311,classification_task,2021.2.3,Win32,30.00120005,6043f909d14273455e5e7436,626b377229c10585ec392f8a,626b3bd9c80ab878a33c3b0e,,,,,,,,,,,,,,,,,,,,,,,a,0,"[""0.026"",""0.227"",""0.139"",""0.822""]","[1,1,0,1]",0,56,56,56,1,1,0,,,0,FALSE,1.7119,,,,,,,,,,,,,,,,,,,,,,,,,,,,,,
,6043f909d14273455e5e7436,001,2022-04-28_20h24.53.311,classification_task,2021.2.3,Win32,30.00120005,6043f909d14273455e5e7436,626b377229c10585ec392f8a,626b3bd9c80ab878a33c3b0e,,,,,,,,,,,,,,,,,,,,,,,a,1,"[""0.290"",""0.497"",""0.112"",""0.862""]","[1,1,0,1]",0,57,57,57,1,0,0,,,0,FALSE,2.1165,,,,,,,,,,,,,,,,,,,,,,,,,,,,,,
,6043f909d14273455e5e7436,001,2022-04-28_20h24.53.311,classification_task,2021.2.3,Win32,30.00120005,6043f909d14273455e5e7436,626b377229c10585ec392f8a,626b3bd9c80ab878a33c3b0e,,,,,,,,,,,,,,,,,,,,,,,a,0,"[""0.026"",""0.439"",""0.564"",""0.822""]","[1,0,1,1]",0,58,58,58,1,1,0,,,0,FALSE,2.1517,,,,,,,,,,,,,,,,,,,,,,,,,,,,,,
,6043f909d14273455e5e7436,001,2022-04-28_20h24.53.311,classification_task,2021.2.3,Win32,30.00120005,6043f909d14273455e5e7436,626b377229c10585ec392f8a,626b3bd9c80ab878a33c3b0e,,,,,,,,,,,,,,,,,,,,,,,a,1,"[""0.290"",""0.497"",""0.772"",""0.439""]","[1,1,1,0]",0,59,59,59,1,0,0,,,0,FALSE,2.1264,,,,,,,,,,,,,,,,,,,,,,,,,,,,,,
,6043f909d14273455e5e7436,001,2022-04-28_20h24.53.311,classification_task,2021.2.3,Win32,30.00120005,6043f909d14273455e5e7436,626b377229c10585ec392f8a,626b3bd9c80ab878a33c3b0e,,,,,,,,,,,,,,,,,,,,,,,a,0,"[""0.076"",""0.388"",""0.627"",""0.128""]","[1,1,1,0]",0,60,60,60,1,1,1,,,0,FALSE,3.3582,,,,,,,,,,,,,,,,,,,,,,,,,,,,,,
,6043f909d14273455e5e7436,001,2022-04-28_20h24.53.311,classification_task,2021.2.3,Win32,30.00120005,6043f909d14273455e5e7436,626b377229c10585ec392f8a,626b3bd9c80ab878a33c3b0e,,,,,,,,,,,,,,,,,,,,,,,l,0,"[""0.173"",""0.343"",""0.677"",""0.974""]","[1,1,0,1]",0,61,61,61,1,0,1,,,0,FALSE,0.843,,,,,,,,,,,,,,,,,,,,,,,,,,,,,,
,6043f909d14273455e5e7436,001,2022-04-28_20h24.53.311,classification_task,2021.2.3,Win32,30.00120005,6043f909d14273455e5e7436,626b377229c10585ec392f8a,626b3bd9c80ab878a33c3b0e,,,,,,,,,,,,,,,,,,,,,,,l,0,"[""0.173"",""0.139"",""0.935"",""0.974""]","[1,0,1,1]",0,62,62,62,1,0,1,,,0,FALSE,0.8371,,,,,,,,,,,,,,,,,,,,,,,,,,,,,,
,6043f909d14273455e5e7436,001,2022-04-28_20h24.53.311,classification_task,2021.2.3,Win32,30.00120005,6043f909d14273455e5e7436,626b377229c10585ec392f8a,626b3bd9c80ab878a33c3b0e,,,,,,,,,,,,,,,,,,,,,,,l,0,"[""0.139"",""0.497"",""0.772"",""0.862""]","[0,1,1,1]",0,63,63,63,1,0,0,,,0,FALSE,0.4492,,,,,,,,,,,,,,,,,,,,,,,,,,,,,,
,6043f909d14273455e5e7436,001,2022-04-28_20h24.53.311,classification_task,2021.2.3,Win32,30.00120005,6043f909d14273455e5e7436,626b377229c10585ec392f8a,626b3bd9c80ab878a33c3b0e,,,,,,,,,,,,,,,,,,,,,,,,,,,,,,,,,,,,,,,0, ,,0,7.307925485,1064.3468,0,0,0,0,1,2,1,,,,,,,,,,,,,,,,,
,6043f909d14273455e5e7436,001,2022-04-28_20h24.53.311,classification_task,2021.2.3,Win32,30.00120005,6043f909d14273455e5e7436,626b377229c10585ec392f8a,626b3bd9c80ab878a33c3b0e,,,,,,,,,,,,,,,,,,,,,,,,,,,,,,,,,,,,,,,1,  ,,0,6.687885802,1070.3197,0,0,0,0,1,2,1,,,,,,,,,,,,,,,,,
,6043f909d14273455e5e7436,001,2022-04-28_20h24.53.311,classification_task,2021.2.3,Win32,30.00120005,6043f909d14273455e5e7436,626b377229c10585ec392f8a,626b3bd9c80ab878a33c3b0e,,,,,,,,,,,,,,,,,,,,,,,,,,,,,,,,,,,,,,,2,  ,,0,6.963458995,1075.1511,0,0,0,0,1,2,1,,,,,,,,,,,,,,,,,
,6043f909d14273455e5e7436,001,2022-04-28_20h24.53.311,classification_task,2021.2.3,Win32,30.00120005,6043f909d14273455e5e7436,626b377229c10585ec392f8a,626b3bd9c80ab878a33c3b0e,,,,,,,,,,,,,,,,,,,,,,,,,,,,,,,,,,,,,,,,,,,,,0,0,0,0,1,,1,,,,,,,,,,,,,,,,,
,6043f909d14273455e5e7436,001,2022-04-28_20h24.53.311,classification_task,2021.2.3,Win32,30.00120005,6043f909d14273455e5e7436,626b377229c10585ec392f8a,626b3bd9c80ab878a33c3b0e,,,,,,,,,,,,,,,,,,,,,space,48.2917,l,1,"[""0.026"",""0.227"",""0.681"",""0.822""]","[1,1,0,1]",0,0,0,0,1,1,0,,,0,FALSE,5.6229,,,,,,,,,,,,,,,,,,,,,,,,,,,,,,
,6043f909d14273455e5e7436,001,2022-04-28_20h24.53.311,classification_task,2021.2.3,Win32,30.00120005,6043f909d14273455e5e7436,626b377229c10585ec392f8a,626b3bd9c80ab878a33c3b0e,,,,,,,,,,,,,,,,,,,,,,,a,1,"[""0.457"",""0.497"",""0.772"",""0.862""]","[0,1,1,1]",0,1,1,1,1,0,0,,,0,FALSE,1.314,,,,,,,,,,,,,,,,,,,,,,,,,,,,,,
,6043f909d14273455e5e7436,001,2022-04-28_20h24.53.311,classification_task,2021.2.3,Win32,30.00120005,6043f909d14273455e5e7436,626b377229c10585ec392f8a,626b3bd9c80ab878a33c3b0e,,,,,,,,,,,,,,,,,,,,,,,a,1,"[""0.290"",""0.497"",""0.772"",""0.667""]","[1,1,1,0]",0,2,2,2,1,0,0,,,0,FALSE,1.7108,,,,,,,,,,,,,,,,,,,,,,,,,,,,,,
,6043f909d14273455e5e7436,001,2022-04-28_20h24.53.311,classification_task,2021.2.3,Win32,30.00120005,6043f909d14273455e5e7436,626b377229c10585ec392f8a,626b3bd9c80ab878a33c3b0e,,,,,,,,,,,,,,,,,,,,,,,a,1,"[""0.173"",""0.685"",""0.935"",""0.974""]","[1,0,1,1]",0,3,3,3,1,0,1,,,0,FALSE,3.875,,,,,,,,,,,,,,,,,,,,,,,,,,,,,,
,6043f909d14273455e5e7436,001,2022-04-28_20h24.53.311,classification_task,2021.2.3,Win32,30.00120005,6043f909d14273455e5e7436,626b377229c10585ec392f8a,626b3bd9c80ab878a33c3b0e,,,,,,,,,,,,,,,,,,,,,,,l,1,"[""0.026"",""0.227"",""0.564"",""0.676""]","[1,1,1,0]",0,4,4,4,1,1,0,,,0,FALSE,3.0433,,,,,,,,,,,,,,,,,,,,,,,,,,,,,,
,6043f909d14273455e5e7436,001,2022-04-28_20h24.53.311,classification_task,2021.2.3,Win32,30.00120005,6043f909d14273455e5e7436,626b377229c10585ec392f8a,626b3bd9c80ab878a33c3b0e,,,,,,,,,,,,,,,,,,,,,,,l,1,"[""0.676"",""0.388"",""0.627"",""0.733""]","[0,1,1,1]",0,5,5,5,1,1,1,,,0,FALSE,2.1815,,,,,,,,,,,,,,,,,,,,,,,,,,,,,,
,6043f909d14273455e5e7436,001,2022-04-28_20h24.53.311,classification_task,2021.2.3,Win32,30.00120005,6043f909d14273455e5e7436,626b377229c10585ec392f8a,626b3bd9c80ab878a33c3b0e,,,,,,,,,,,,,,,,,,,,,,,a,0,"[""0.076"",""0.461"",""0.627"",""0.733""]","[1,0,1,1]",0,6,6,6,1,1,1,,,0,FALSE,1.7419,,,,,,,,,,,,,,,,,,,,,,,,,,,,,,
,6043f909d14273455e5e7436,001,2022-04-28_20h24.53.311,classification_task,2021.2.3,Win32,30.00120005,6043f909d14273455e5e7436,626b377229c10585ec392f8a,626b3bd9c80ab878a33c3b0e,,,,,,,,,,,,,,,,,,,,,,,l,1,"[""0.076"",""0.388"",""0.627"",""0.681""]","[1,1,1,0]",0,7,7,7,1,1,1,,,0,FALSE,0.8807,,,,,,,,,,,,,,,,,,,,,,,,,,,,,,
,6043f909d14273455e5e7436,001,2022-04-28_20h24.53.311,classification_task,2021.2.3,Win32,30.00120005,6043f909d14273455e5e7436,626b377229c10585ec392f8a,626b3bd9c80ab878a33c3b0e,,,,,,,,,,,,,,,,,,,,,,,l,0,"[""0.173"",""0.343"",""0.667"",""0.974""]","[1,1,0,1]",0,8,8,8,1,0,1,,,0,FALSE,2.167,,,,,,,,,,,,,,,,,,,,,,,,,,,,,,
,6043f909d14273455e5e7436,001,2022-04-28_20h24.53.311,classification_task,2021.2.3,Win32,30.00120005,6043f909d14273455e5e7436,626b377229c10585ec392f8a,626b3bd9c80ab878a33c3b0e,,,,,,,,,,,,,,,,,,,,,,,a,1,"[""0.290"",""0.497"",""0.679"",""0.862""]","[1,1,0,1]",0,9,9,9,1,0,0,,,0,FALSE,6.4763,,,,,,,,,,,,,,,,,,,,,,,,,,,,,,
,6043f909d14273455e5e7436,001,2022-04-28_20h24.53.311,classification_task,2021.2.3,Win32,30.00120005,6043f909d14273455e5e7436,626b377229c10585ec392f8a,626b3bd9c80ab878a33c3b0e,,,,,,,,,,,,,,,,,,,,,,,a,1,"[""0.173"",""0.343"",""0.935"",""0.139""]","[1,1,1,0]",0,10,10,10,1,0,1,,,0,FALSE,2.188,,,,,,,,,,,,,,,,,,,,,,,,,,,,,,
,6043f909d14273455e5e7436,001,2022-04-28_20h24.53.311,classification_task,2021.2.3,Win32,30.00120005,6043f909d14273455e5e7436,626b377229c10585ec392f8a,626b3bd9c80ab878a33c3b0e,,,,,,,,,,,,,,,,,,,,,,,l,0,"[""0.679"",""0.343"",""0.935"",""0.974""]","[0,1,1,1]",0,11,11,11,1,0,1,,,0,FALSE,1.3191,,,,,,,,,,,,,,,,,,,,,,,,,,,,,,
,6043f909d14273455e5e7436,001,2022-04-28_20h24.53.311,classification_task,2021.2.3,Win32,30.00120005,6043f909d14273455e5e7436,626b377229c10585ec392f8a,626b3bd9c80ab878a33c3b0e,,,,,,,,,,,,,,,,,,,,,,,l,1,"[""0.026"",""0.685"",""0.564"",""0.822""]","[1,0,1,1]",0,12,12,12,1,1,0,,,0,FALSE,3.4347,,,,,,,,,,,,,,,,,,,,,,,,,,,,,,
,6043f909d14273455e5e7436,001,2022-04-28_20h24.53.311,classification_task,2021.2.3,Win32,30.00120005,6043f909d14273455e5e7436,626b377229c10585ec392f8a,626b3bd9c80ab878a33c3b0e,,,,,,,,,,,,,,,,,,,,,,,l,1,"[""0.670"",""0.227"",""0.564"",""0.822""]","[0,1,1,1]",0,13,13,13,1,1,0,,,0,FALSE,2.1562,,,,,,,,,,,,,,,,,,,,,,,,,,,,,,
,6043f909d14273455e5e7436,001,2022-04-28_20h24.53.311,classification_task,2021.2.3,Win32,30.00120005,6043f909d14273455e5e7436,626b377229c10585ec392f8a,626b3bd9c80ab878a33c3b0e,,,,,,,,,,,,,,,,,,,,,,,a,1,"[""0.290"",""0.423"",""0.772"",""0.862""]","[1,0,1,1]",0,14,14,14,1,0,0,,,0,FALSE,3.4323,,,,,,,,,,,,,,,,,,,,,,,,,,,,,,
,6043f909d14273455e5e7436,001,2022-04-28_20h24.53.311,classification_task,2021.2.3,Win32,30.00120005,6043f909d14273455e5e7436,626b377229c10585ec392f8a,626b3bd9c80ab878a33c3b0e,,,,,,,,,,,,,,,,,,,,,,,a,0,"[""0.076"",""0.388"",""0.677"",""0.733""]","[1,1,0,1]",0,15,15,15,1,1,1,,,0,FALSE,2.1272,,,,,,,,,,,,,,,,,,,,,,,,,,,,,,
,6043f909d14273455e5e7436,001,2022-04-28_20h24.53.311,classification_task,2021.2.3,Win32,30.00120005,6043f909d14273455e5e7436,626b377229c10585ec392f8a,626b3bd9c80ab878a33c3b0e,,,,,,,,,,,,,,,,,,,,,,,a,1,"[""0.457"",""0.497"",""0.772"",""0.862""]","[0,1,1,1]",0,16,16,16,1,0,0,,,0,FALSE,2.6101,,,,,,,,,,,,,,,,,,,,,,,,,,,,,,
,6043f909d14273455e5e7436,001,2022-04-28_20h24.53.311,classification_task,2021.2.3,Win32,30.00120005,6043f909d14273455e5e7436,626b377229c10585ec392f8a,626b3bd9c80ab878a33c3b0e,,,,,,,,,,,,,,,,,,,,,,,a,0,"[""0.076"",""0.388"",""0.627"",""0.139""]","[1,1,1,0]",0,17,17,17,1,1,1,,,0,FALSE,3.0008,,,,,,,,,,,,,,,,,,,,,,,,,,,,,,
,6043f909d14273455e5e7436,001,2022-04-28_20h24.53.311,classification_task,2021.2.3,Win32,30.00120005,6043f909d14273455e5e7436,626b377229c10585ec392f8a,626b3bd9c80ab878a33c3b0e,,,,,,,,,,,,,,,,,,,,,,,l,1,"[""0.676"",""0.227"",""0.564"",""0.822""]","[0,1,1,1]",0,18,18,18,1,1,0,,,0,FALSE,2.1406,,,,,,,,,,,,,,,,,,,,,,,,,,,,,,
,6043f909d14273455e5e7436,001,2022-04-28_20h24.53.311,classification_task,2021.2.3,Win32,30.00120005,6043f909d14273455e5e7436,626b377229c10585ec392f8a,626b3bd9c80ab878a33c3b0e,,,,,,,,,,,,,,,,,,,,,,,a,1,"[""0.290"",""0.497"",""0.677"",""0.862""]","[1,1,0,1]",0,19,19,19,1,0,0,,,0,FALSE,2.1128,,,,,,,,,,,,,,,,,,,,,,,,,,,,,,
,6043f909d14273455e5e7436,001,2022-04-28_20h24.53.311,classification_task,2021.2.3,Win32,30.00120005,6043f909d14273455e5e7436,626b377229c10585ec392f8a,626b3bd9c80ab878a33c3b0e,,,,,,,,,,,,,,,,,,,,,,,l,1,"[""0.026"",""0.227"",""0.531"",""0.822""]","[1,1,0,1]",0,20,20,20,1,1,0,,,0,FALSE,1.7199,,,,,,,,,,,,,,,,,,,,,,,,,,,,,,
,6043f909d14273455e5e7436,001,2022-04-28_20h24.53.311,classification_task,2021.2.3,Win32,30.00120005,6043f909d14273455e5e7436,626b377229c10585ec392f8a,626b3bd9c80ab878a33c3b0e,,,,,,,,,,,,,,,,,,,,,,,l,1,"[""0.026"",""0.139"",""0.564"",""0.822""]","[1,0,1,1]",0,21,21,21,1,1,0,,,0,FALSE,1.3309,,,,,,,,,,,,,,,,,,,,,,,,,,,,,,
,6043f909d14273455e5e7436,001,2022-04-28_20h24.53.311,classification_task,2021.2.3,Win32,30.00120005,6043f909d14273455e5e7436,626b377229c10585ec392f8a,626b3bd9c80ab878a33c3b0e,,,,,,,,,,,,,,,,,,,,,,,a,0,"[""0.112"",""0.388"",""0.627"",""0.733""]","[0,1,1,1]",0,22,22,22,1,1,1,,,0,FALSE,4.2139,,,,,,,,,,,,,,,,,,,,,,,,,,,,,,
,6043f909d14273455e5e7436,001,2022-04-28_20h24.53.311,classification_task,2021.2.3,Win32,30.00120005,6043f909d14273455e5e7436,626b377229c10585ec392f8a,626b3bd9c80ab878a33c3b0e,,,,,,,,,,,,,,,,,,,,,,,l,0,"[""0.290"",""0.531"",""0.772"",""0.862""]","[1,0,1,1]",0,23,23,23,1,0,0,,,0,FALSE,1.7187,,,,,,,,,,,,,,,,,,,,,,,,,,,,,,
,6043f909d14273455e5e7436,001,2022-04-28_20h24.53.311,classification_task,2021.2.3,Win32,30.00120005,6043f909d14273455e5e7436,626b377229c10585ec392f8a,626b3bd9c80ab878a33c3b0e,,,,,,,,,,,,,,,,,,,,,,,l,0,"[""0.531"",""0.343"",""0.935"",""0.974""]","[0,1,1,1]",0,24,24,24,1,0,1,,,0,FALSE,5.1329,,,,,,,,,,,,,,,,,,,,,,,,,,,,,,
,6043f909d14273455e5e7436,001,2022-04-28_20h24.53.311,classification_task,2021.2.3,Win32,30.00120005,6043f909d14273455e5e7436,626b377229c10585ec392f8a,626b3bd9c80ab878a33c3b0e,,,,,,,,,,,,,,,,,,,,,,,l,1,"[""0.076"",""0.139"",""0.627"",""0.733""]","[1,0,1,1]",0,25,25,25,1,1,1,,,0,FALSE,5.6724,,,,,,,,,,,,,,,,,,,,,,,,,,,,,,
,6043f909d14273455e5e7436,001,2022-04-28_20h24.53.311,classification_task,2021.2.3,Win32,30.00120005,6043f909d14273455e5e7436,626b377229c10585ec392f8a,626b3bd9c80ab878a33c3b0e,,,,,,,,,,,,,,,,,,,,,,,l,0,"[""0.290"",""0.497"",""0.772"",""0.128""]","[1,1,1,0]",0,26,26,26,1,0,0,,,0,FALSE,1.6983,,,,,,,,,,,,,,,,,,,,,,,,,,,,,,
,6043f909d14273455e5e7436,001,2022-04-28_20h24.53.311,classification_task,2021.2.3,Win32,30.00120005,6043f909d14273455e5e7436,626b377229c10585ec392f8a,626b3bd9c80ab878a33c3b0e,,,,,,,,,,,,,,,,,,,,,,,a,1,"[""0.173"",""0.343"",""0.935"",""0.676""]","[1,1,1,0]",0,27,27,27,1,0,1,,,0,FALSE,4.7758,,,,,,,,,,,,,,,,,,,,,,,,,,,,,,
,6043f909d14273455e5e7436,001,2022-04-28_20h24.53.311,classification_task,2021.2.3,Win32,30.00120005,6043f909d14273455e5e7436,626b377229c10585ec392f8a,626b3bd9c80ab878a33c3b0e,,,,,,,,,,,,,,,,,,,,,,,a,0,"[""0.076"",""0.388"",""0.457"",""0.733""]","[1,1,0,1]",0,28,28,28,1,1,1,,,0,FALSE,2.1617,,,,,,,,,,,,,,,,,,,,,,,,,,,,,,
,6043f909d14273455e5e7436,001,2022-04-28_20h24.53.311,classification_task,2021.2.3,Win32,30.00120005,6043f909d14273455e5e7436,626b377229c10585ec392f8a,626b3bd9c80ab878a33c3b0e,,,,,,,,,,,,,,,,,,,,,,,a,0,"[""0.026"",""0.227"",""0.564"",""0.679""]","[1,1,1,0]",0,29,29,29,1,1,0,,,0,FALSE,2.1445,,,,,,,,,,,,,,,,,,,,,,,,,,,,,,
,6043f909d14273455e5e7436,001,2022-04-28_20h24.53.311,classification_task,2021.2.3,Win32,30.00120005,6043f909d14273455e5e7436,626b377229c10585ec392f8a,626b3bd9c80ab878a33c3b0e,,,,,,,,,,,,,,,,,,,,,,,a,1,"[""0.173"",""0.681"",""0.935"",""0.974""]","[1,0,1,1]",0,30,30,30,1,0,1,,,0,FALSE,2.1353,,,,,,,,,,,,,,,,,,,,,,,,,,,,,,
,6043f909d14273455e5e7436,001,2022-04-28_20h24.53.311,classification_task,2021.2.3,Win32,30.00120005,6043f909d14273455e5e7436,626b377229c10585ec392f8a,626b3bd9c80ab878a33c3b0e,,,,,,,,,,,,,,,,,,,,,,,l,0,"[""0.173"",""0.343"",""0.461"",""0.974""]","[1,1,0,1]",0,31,31,31,1,0,1,,,0,FALSE,3.8846,,,,,,,,,,,,,,,,,,,,,,,,,,,,,,
,6043f909d14273455e5e7436,001,2022-04-28_20h24.53.311,classification_task,2021.2.3,Win32,30.00120005,6043f909d14273455e5e7436,626b377229c10585ec392f8a,626b3bd9c80ab878a33c3b0e,,,,,,,,,,,,,,,,,,,,,,,l,0,"[""0.173"",""0.343"",""0.128"",""0.974""]","[1,1,0,1]",0,32,32,32,1,0,1,,,0,FALSE,0.8843,,,,,,,,,,,,,,,,,,,,,,,,,,,,,,
,6043f909d14273455e5e7436,001,2022-04-28_20h24.53.311,classification_task,2021.2.3,Win32,30.00120005,6043f909d14273455e5e7436,626b377229c10585ec392f8a,626b3bd9c80ab878a33c3b0e,,,,,,,,,,,,,,,,,,,,,,,l,0,"[""0.173"",""0.343"",""0.935"",""0.461""]","[1,1,1,0]",0,33,33,33,1,0,1,,,0,FALSE,0.9054,,,,,,,,,,,,,,,,,,,,,,,,,,,,,,
,6043f909d14273455e5e7436,001,2022-04-28_20h24.53.311,classification_task,2021.2.3,Win32,30.00120005,6043f909d14273455e5e7436,626b377229c10585ec392f8a,626b3bd9c80ab878a33c3b0e,,,,,,,,,,,,,,,,,,,,,,,a,1,"[""0.461"",""0.497"",""0.772"",""0.862""]","[0,1,1,1]",0,34,34,34,1,0,0,,,0,FALSE,2.5691,,,,,,,,,,,,,,,,,,,,,,,,,,,,,,
,6043f909d14273455e5e7436,001,2022-04-28_20h24.53.311,classification_task,2021.2.3,Win32,30.00120005,6043f909d14273455e5e7436,626b377229c10585ec392f8a,626b3bd9c80ab878a33c3b0e,,,,,,,,,,,,,,,,,,,,,,,a,1,"[""0.667"",""0.343"",""0.935"",""0.974""]","[0,1,1,1]",0,35,35,35,1,0,1,,,0,FALSE,3.4771,,,,,,,,,,,,,,,,,,,,,,,,,,,,,,
,6043f909d14273455e5e7436,001,2022-04-28_20h24.53.311,classification_task,2021.2.3,Win32,30.00120005,6043f909d14273455e5e7436,626b377229c10585ec392f8a,626b3bd9c80ab878a33c3b0e,,,,,,,,,,,,,,,,,,,,,,,l,1,"[""0.076"",""0.112"",""0.627"",""0.733""]","[1,0,1,1]",0,36,36,36,1,1,1,,,0,FALSE,1.7501,,,,,,,,,,,,,,,,,,,,,,,,,,,,,,
,6043f909d14273455e5e7436,001,2022-04-28_20h24.53.311,classification_task,2021.2.3,Win32,30.00120005,6043f909d14273455e5e7436,626b377229c10585ec392f8a,626b3bd9c80ab878a33c3b0e,,,,,,,,,,,,,,,,,,,,,,,l,1,"[""0.076"",""0.388"",""0.627"",""0.457""]","[1,1,1,0]",0,37,37,37,1,1,1,,,0,FALSE,0.8755,,,,,,,,,,,,,,,,,,,,,,,,,,,,,,
,6043f909d14273455e5e7436,001,2022-04-28_20h24.53.311,classification_task,2021.2.3,Win32,30.00120005,6043f909d14273455e5e7436,626b377229c10585ec392f8a,626b3bd9c80ab878a33c3b0e,,,,,,,,,,,,,,,,,,,,,,,a,1,"[""0.290"",""0.497"",""0.772"",""0.439""]","[1,1,1,0]",0,38,38,38,1,0,0,,,0,FALSE,3.8678,,,,,,,,,,,,,,,,,,,,,,,,,,,,,,
,6043f909d14273455e5e7436,001,2022-04-28_20h24.53.311,classification_task,2021.2.3,Win32,30.00120005,6043f909d14273455e5e7436,626b377229c10585ec392f8a,626b3bd9c80ab878a33c3b0e,,,,,,,,,,,,,,,,,,,,,,,,0,"[""0.076"",""0.388"",""0.461"",""0.733""]","[1,1,0,1]",0,39,39,39,1,1,1,,,0,FALSE,,,,,,,,,,,,,,,,,,,,,,,,,,,,,,,
,6043f909d14273455e5e7436,001,2022-04-28_20h24.53.311,classification_task,2021.2.3,Win32,30.00120005,6043f909d14273455e5e7436,626b377229c10585ec392f8a,626b3bd9c80ab878a33c3b0e,,,,,,,,,,,,,,,,,,,,,,,l,1,"[""0.026"",""0.227"",""0.139"",""0.822""]","[1,1,0,1]",0,40,40,40,1,1,0,,,0,FALSE,2.6236,,,,,,,,,,,,,,,,,,,,,,,,,,,,,,
,6043f909d14273455e5e7436,001,2022-04-28_20h24.53.311,classification_task,2021.2.3,Win32,30.00120005,6043f909d14273455e5e7436,626b377229c10585ec392f8a,626b3bd9c80ab878a33c3b0e,,,,,,,,,,,,,,,,,,,,,,,a,1,"[""0.290"",""0.681"",""0.772"",""0.862""]","[1,0,1,1]",0,41,41,41,1,0,0,,,0,FALSE,5.9894,,,,,,,,,,,,,,,,,,,,,,,,,,,,,,
,6043f909d14273455e5e7436,001,2022-04-28_20h24.53.311,classification_task,2021.2.3,Win32,30.00120005,6043f909d14273455e5e7436,626b377229c10585ec392f8a,626b3bd9c80ab878a33c3b0e,,,,,,,,,,,,,,,,,,,,,,,a,1,"[""0.290"",""0.497"",""0.128"",""0.862""]","[1,1,0,1]",0,42,42,42,1,0,0,,,0,FALSE,3.4507,,,,,,,,,,,,,,,,,,,,,,,,,,,,,,
,6043f909d14273455e5e7436,001,2022-04-28_20h24.53.311,classification_task,2021.2.3,Win32,30.00120005,6043f909d14273455e5e7436,626b377229c10585ec392f8a,626b3bd9c80ab878a33c3b0e,,,,,,,,,,,,,,,,,,,,,,,l,1,"[""0.026"",""0.227"",""0.564"",""0.679""]","[1,1,1,0]",0,43,43,43,1,1,0,,,0,FALSE,2.5819,,,,,,,,,,,,,,,,,,,,,,,,,,,,,,
,6043f909d14273455e5e7436,001,2022-04-28_20h24.53.311,classification_task,2021.2.3,Win32,30.00120005,6043f909d14273455e5e7436,626b377229c10585ec392f8a,626b3bd9c80ab878a33c3b0e,,,,,,,,,,,,,,,,,,,,,,,l,1,"[""0.461"",""0.227"",""0.564"",""0.822""]","[0,1,1,1]",0,44,44,44,1,1,0,,,0,FALSE,1.3239,,,,,,,,,,,,,,,,,,,,,,,,,,,,,,
,6043f909d14273455e5e7436,001,2022-04-28_20h24.53.311,classification_task,2021.2.3,Win32,30.00120005,6043f909d14273455e5e7436,626b377229c10585ec392f8a,626b3bd9c80ab878a33c3b0e,,,,,,,,,,,,,,,,,,,,,,,,0,"[""0.173"",""0.667"",""0.935"",""0.974""]","[1,0,1,1]",0,45,45,45,1,0,1,,,0,FALSE,,,,,,,,,,,,,,,,,,,,,,,,,,,,,,,
,6043f909d14273455e5e7436,001,2022-04-28_20h24.53.311,classification_task,2021.2.3,Win32,30.00120005,6043f909d14273455e5e7436,626b377229c10585ec392f8a,626b3bd9c80ab878a33c3b0e,,,,,,,,,,,,,,,,,,,,,,,a,0,"[""0.439"",""0.388"",""0.627"",""0.733""]","[0,1,1,1]",0,46,46,46,1,1,1,,,0,FALSE,3.3959,,,,,,,,,,,,,,,,,,,,,,,,,,,,,,
,6043f909d14273455e5e7436,001,2022-04-28_20h24.53.311,classification_task,2021.2.3,Win32,30.00120005,6043f909d14273455e5e7436,626b377229c10585ec392f8a,626b3bd9c80ab878a33c3b0e,,,,,,,,,,,,,,,,,,,,,,,l,1,"[""0.026"",""0.461"",""0.564"",""0.822""]","[1,0,1,1]",0,47,47,47,1,1,0,,,0,FALSE,2.1512,,,,,,,,,,,,,,,,,,,,,,,,,,,,,,
,6043f909d14273455e5e7436,001,2022-04-28_20h24.53.311,classification_task,2021.2.3,Win32,30.00120005,6043f909d14273455e5e7436,626b377229c10585ec392f8a,626b3bd9c80ab878a33c3b0e,,,,,,,,,,,,,,,,,,,,,,,a,0,"[""0.670"",""0.227"",""0.564"",""0.822""]","[0,1,1,1]",0,48,48,48,1,1,0,,,0,FALSE,3.4186,,,,,,,,,,,,,,,,,,,,,,,,,,,,,,
,6043f909d14273455e5e7436,001,2022-04-28_20h24.53.311,classification_task,2021.2.3,Win32,30.00120005,6043f909d14273455e5e7436,626b377229c10585ec392f8a,626b3bd9c80ab878a33c3b0e,,,,,,,,,,,,,,,,,,,,,,,a,0,"[""0.026"",""0.681"",""0.564"",""0.822""]","[1,0,1,1]",0,49,49,49,1,1,0,,,0,FALSE,4.2838,,,,,,,,,,,,,,,,,,,,,,,,,,,,,,
,6043f909d14273455e5e7436,001,2022-04-28_20h24.53.311,classification_task,2021.2.3,Win32,30.00120005,6043f909d14273455e5e7436,626b377229c10585ec392f8a,626b3bd9c80ab878a33c3b0e,,,,,,,,,,,,,,,,,,,,,,,a,1,"[""0.173"",""0.343"",""0.677"",""0.974""]","[1,1,0,1]",0,50,50,50,1,0,1,,,0,FALSE,1.7102,,,,,,,,,,,,,,,,,,,,,,,,,,,,,,
,6043f909d14273455e5e7436,001,2022-04-28_20h24.53.311,classification_task,2021.2.3,Win32,30.00120005,6043f909d14273455e5e7436,626b377229c10585ec392f8a,626b3bd9c80ab878a33c3b0e,,,,,,,,,,,,,,,,,,,,,,,l,1,"[""0.128"",""0.388"",""0.627"",""0.733""]","[0,1,1,1]",0,51,51,51,1,1,1,,,0,FALSE,2.197,,,,,,,,,,,,,,,,,,,,,,,,,,,,,,
,6043f909d14273455e5e7436,001,2022-04-28_20h24.53.311,classification_task,2021.2.3,Win32,30.00120005,6043f909d14273455e5e7436,626b377229c10585ec392f8a,626b3bd9c80ab878a33c3b0e,,,,,,,,,,,,,,,,,,,,,,,l,0,"[""0.667"",""0.497"",""0.772"",""0.862""]","[0,1,1,1]",0,52,52,52,1,0,0,,,0,FALSE,2.5463,,,,,,,,,,,,,,,,,,,,,,,,,,,,,,
,6043f909d14273455e5e7436,001,2022-04-28_20h24.53.311,classification_task,2021.2.3,Win32,30.00120005,6043f909d14273455e5e7436,626b377229c10585ec392f8a,626b3bd9c80ab878a33c3b0e,,,,,,,,,,,,,,,,,,,,,,,a,0,"[""0.026"",""0.227"",""0.564"",""0.439""]","[1,1,1,0]",0,53,53,53,1,1,0,,,0,FALSE,1.3044,,,,,,,,,,,,,,,,,,,,,,,,,,,,,,
,6043f909d14273455e5e7436,001,2022-04-28_20h24.53.311,classification_task,2021.2.3,Win32,30.00120005,6043f909d14273455e5e7436,626b377229c10585ec392f8a,626b3bd9c80ab878a33c3b0e,,,,,,,,,,,,,,,,,,,,,,,a,0,"[""0.076"",""0.388"",""0.112"",""0.733""]","[1,1,0,1]",0,54,54,54,1,1,1,,,0,FALSE,1.2869,,,,,,,,,,,,,,,,,,,,,,,,,,,,,,
,6043f909d14273455e5e7436,001,2022-04-28_20h24.53.311,classification_task,2021.2.3,Win32,30.00120005,6043f909d14273455e5e7436,626b377229c10585ec392f8a,626b3bd9c80ab878a33c3b0e,,,,,,,,,,,,,,,,,,,,,,,l,0,"[""0.173"",""0.681"",""0.935"",""0.974""]","[1,0,1,1]",0,55,55,55,1,0,1,,,0,FALSE,1.3175,,,,,,,,,,,,,,,,,,,,,,,,,,,,,,
,6043f909d14273455e5e7436,001,2022-04-28_20h24.53.311,classification_task,2021.2.3,Win32,30.00120005,6043f909d14273455e5e7436,626b377229c10585ec392f8a,626b3bd9c80ab878a33c3b0e,,,,,,,,,,,,,,,,,,,,,,,l,0,"[""0.290"",""0.497"",""0.772"",""0.423""]","[1,1,1,0]",0,56,56,56,1,0,0,,,0,FALSE,1.2922,,,,,,,,,,,,,,,,,,,,,,,,,,,,,,
,6043f909d14273455e5e7436,001,2022-04-28_20h24.53.311,classification_task,2021.2.3,Win32,30.00120005,6043f909d14273455e5e7436,626b377229c10585ec392f8a,626b3bd9c80ab878a33c3b0e,,,,,,,,,,,,,,,,,,,,,,,l,0,"[""0.290"",""0.423"",""0.772"",""0.862""]","[1,0,1,1]",0,57,57,57,1,0,0,,,0,FALSE,0.8888,,,,,,,,,,,,,,,,,,,,,,,,,,,,,,
,6043f909d14273455e5e7436,001,2022-04-28_20h24.53.311,classification_task,2021.2.3,Win32,30.00120005,6043f909d14273455e5e7436,626b377229c10585ec392f8a,626b3bd9c80ab878a33c3b0e,,,,,,,,,,,,,,,,,,,,,,,a,1,"[""0.173"",""0.343"",""0.935"",""0.685""]","[1,1,1,0]",0,58,58,58,1,0,1,,,0,FALSE,0.5474,,,,,,,,,,,,,,,,,,,,,,,,,,,,,,
,6043f909d14273455e5e7436,001,2022-04-28_20h24.53.311,classification_task,2021.2.3,Win32,30.00120005,6043f909d14273455e5e7436,626b377229c10585ec392f8a,626b3bd9c80ab878a33c3b0e,,,,,,,,,,,,,,,,,,,,,,,a,1,"[""0.139"",""0.343"",""0.935"",""0.974""]","[0,1,1,1]",0,59,59,59,1,0,1,,,0,FALSE,1.7177,,,,,,,,,,,,,,,,,,,,,,,,,,,,,,
,6043f909d14273455e5e7436,001,2022-04-28_20h24.53.311,classification_task,2021.2.3,Win32,30.00120005,6043f909d14273455e5e7436,626b377229c10585ec392f8a,626b3bd9c80ab878a33c3b0e,,,,,,,,,,,,,,,,,,,,,,,a,1,"[""0.290"",""0.497"",""0.667"",""0.862""]","[1,1,0,1]",0,60,60,60,1,0,0,,,0,FALSE,3.0288,,,,,,,,,,,,,,,,,,,,,,,,,,,,,,
,6043f909d14273455e5e7436,001,2022-04-28_20h24.53.311,classification_task,2021.2.3,Win32,30.00120005,6043f909d14273455e5e7436,626b377229c10585ec392f8a,626b3bd9c80ab878a33c3b0e,,,,,,,,,,,,,,,,,,,,,,,l,1,"[""0.026"",""0.227"",""0.439"",""0.822""]","[1,1,0,1]",0,61,61,61,1,1,0,,,0,FALSE,6.0668,,,,,,,,,,,,,,,,,,,,,,,,,,,,,,
,6043f909d14273455e5e7436,001,2022-04-28_20h24.53.311,classification_task,2021.2.3,Win32,30.00120005,6043f909d14273455e5e7436,626b377229c10585ec392f8a,626b3bd9c80ab878a33c3b0e,,,,,,,,,,,,,,,,,,,,,,,a,0,"[""0.076"",""0.676"",""0.627"",""0.733""]","[1,0,1,1]",0,62,62,62,1,1,1,,,0,FALSE,3.4799,,,,,,,,,,,,,,,,,,,,,,,,,,,,,,
,6043f909d14273455e5e7436,001,2022-04-28_20h24.53.311,classification_task,2021.2.3,Win32,30.00120005,6043f909d14273455e5e7436,626b377229c10585ec392f8a,626b3bd9c80ab878a33c3b0e,,,,,,,,,,,,,,,,,,,,,,,a,0,"[""0.076"",""0.388"",""0.627"",""0.676""]","[1,1,1,0]",0,63,63,63,1,1,1,,,0,FALSE,8.11,,,,,,,,,,,,,,,,,,,,,,,,,,,,,,
,6043f909d14273455e5e7436,001,2022-04-28_20h24.53.311,classification_task,2021.2.3,Win32,30.00120005,6043f909d14273455e5e7436,626b377229c10585ec392f8a,626b3bd9c80ab878a33c3b0e,,,,,,,,,,,,,,,,,,,,,,,,,,,,,,,,,,,,,,,0, ,,0,5.895612875,364.1834,0,1,1,1,1,2,2,,,,,,,,,,,,,,,,,
,6043f909d14273455e5e7436,001,2022-04-28_20h24.53.311,classification_task,2021.2.3,Win32,30.00120005,6043f909d14273455e5e7436,626b377229c10585ec392f8a,626b3bd9c80ab878a33c3b0e,,,,,,,,,,,,,,,,,,,,,,,,,,,,,,,,,,,,,,,1,  ,,0,6.171186067,370.8026,0,1,1,1,1,2,2,,,,,,,,,,,,,,,,,
,6043f909d14273455e5e7436,001,2022-04-28_20h24.53.311,classification_task,2021.2.3,Win32,30.00120005,6043f909d14273455e5e7436,626b377229c10585ec392f8a,626b3bd9c80ab878a33c3b0e,,,,,,,,,,,,,,,,,,,,,,,,,,,,,,,,,,,,,,,2,  ,,0,7.13569224,375.846,0,1,1,1,1,2,2,,,,,,,,,,,,,,,,,
,6043f909d14273455e5e7436,001,2022-04-28_20h24.53.311,classification_task,2021.2.3,Win32,30.00120005,6043f909d14273455e5e7436,626b377229c10585ec392f8a,626b3bd9c80ab878a33c3b0e,,,,,,,,,,,,,,,,,,,,,,,,,,,,,,,,,,,,,,,,,,,,,0,1,1,1,1,,2,,,,,,,,,,,,,,,,,
,6043f909d14273455e5e7436,001,2022-04-28_20h24.53.311,classification_task,2021.2.3,Win32,30.00120005,6043f909d14273455e5e7436,626b377229c10585ec392f8a,626b3bd9c80ab878a33c3b0e,,,,,,,,,,,,,,,,,,,,,space,14.8142,,0,"[""0.026"",""0.461"",""0.564"",""0.822""]","[1,0,1,1]",0,0,0,0,1,1,0,,,0,FALSE,,,,,,,,,,,,,,,,,,,,,,,,,,,,,,,
,6043f909d14273455e5e7436,001,2022-04-28_20h24.53.311,classification_task,2021.2.3,Win32,30.00120005,6043f909d14273455e5e7436,626b377229c10585ec392f8a,626b3bd9c80ab878a33c3b0e,,,,,,,,,,,,,,,,,,,,,,,a,1,"[""0.173"",""0.343"",""0.667"",""0.974""]","[1,1,0,1]",0,1,1,1,1,0,1,,,0,FALSE,0.0246,,,,,,,,,,,,,,,,,,,,,,,,,,,,,,
,6043f909d14273455e5e7436,001,2022-04-28_20h24.53.311,classification_task,2021.2.3,Win32,30.00120005,6043f909d14273455e5e7436,626b377229c10585ec392f8a,626b3bd9c80ab878a33c3b0e,,,,,,,,,,,,,,,,,,,,,,,a,1,"[""0.173"",""0.423"",""0.935"",""0.974""]","[1,0,1,1]",0,2,2,2,1,0,1,,,0,FALSE,3.8606,,,,,,,,,,,,,,,,,,,,,,,,,,,,,,
,6043f909d14273455e5e7436,001,2022-04-28_20h24.53.311,classification_task,2021.2.3,Win32,30.00120005,6043f909d14273455e5e7436,626b377229c10585ec392f8a,626b3bd9c80ab878a33c3b0e,,,,,,,,,,,,,,,,,,,,,,,l,0,"[""0.290"",""0.679"",""0.772"",""0.862""]","[1,0,1,1]",0,3,3,3,1,0,0,,,0,FALSE,4.665,,,,,,,,,,,,,,,,,,,,,,,,,,,,,,
,6043f909d14273455e5e7436,001,2022-04-28_20h24.53.311,classification_task,2021.2.3,Win32,30.00120005,6043f909d14273455e5e7436,626b377229c10585ec392f8a,626b3bd9c80ab878a33c3b0e,,,,,,,,,,,,,,,,,,,,,,,l,1,"[""0.681"",""0.388"",""0.627"",""0.733""]","[0,1,1,1]",0,4,4,4,1,1,1,,,0,FALSE,1.7195,,,,,,,,,,,,,,,,,,,,,,,,,,,,,,
,6043f909d14273455e5e7436,001,2022-04-28_20h24.53.311,classification_task,2021.2.3,Win32,30.00120005,6043f909d14273455e5e7436,626b377229c10585ec392f8a,626b3bd9c80ab878a33c3b0e,,,,,,,,,,,,,,,,,,,,,,,a,1,"[""0.173"",""0.343"",""0.935"",""0.457""]","[1,1,1,0]",0,5,5,5,1,0,1,,,0,FALSE,1.2872,,,,,,,,,,,,,,,,,,,,,,,,,,,,,,
,6043f909d14273455e5e7436,001,2022-04-28_20h24.53.311,classification_task,2021.2.3,Win32,30.00120005,6043f909d14273455e5e7436,626b377229c10585ec392f8a,626b3bd9c80ab878a33c3b0e,,,,,,,,,,,,,,,,,,,,,,,l,0,"[""0.290"",""0.497"",""0.670"",""0.862""]","[1,1,0,1]",0,6,6,6,1,0,0,,,0,FALSE,2.0687,,,,,,,,,,,,,,,,,,,,,,,,,,,,,,
,6043f909d14273455e5e7436,001,2022-04-28_20h24.53.311,classification_task,2021.2.3,Win32,30.00120005,6043f909d14273455e5e7436,626b377229c10585ec392f8a,626b3bd9c80ab878a33c3b0e,,,,,,,,,,,,,,,,,,,,,,,a,1,"[""0.423"",""0.497"",""0.772"",""0.862""]","[0,1,1,1]",0,7,7,7,1,0,0,,,0,FALSE,1.7258,,,,,,,,,,,,,,,,,,,,,,,,,,,,,,
,6043f909d14273455e5e7436,001,2022-04-28_20h24.53.311,classification_task,2021.2.3,Win32,30.00120005,6043f909d14273455e5e7436,626b377229c10585ec392f8a,626b3bd9c80ab878a33c3b0e,,,,,,,,,,,,,,,,,,,,,,,l,0,"[""0.685"",""0.343"",""0.935"",""0.974""]","[0,1,1,1]",0,8,8,8,1,0,1,,,0,FALSE,7.1366,,,,,,,,,,,,,,,,,,,,,,,,,,,,,,
,6043f909d14273455e5e7436,001,2022-04-28_20h24.53.311,classification_task,2021.2.3,Win32,30.00120005,6043f909d14273455e5e7436,626b377229c10585ec392f8a,626b3bd9c80ab878a33c3b0e,,,,,,,,,,,,,,,,,,,,,,,a,0,"[""0.076"",""0.388"",""0.627"",""0.677""]","[1,1,1,0]",0,9,9,9,1,1,1,,,0,FALSE,2.1016,,,,,,,,,,,,,,,,,,,,,,,,,,,,,,
,6043f909d14273455e5e7436,001,2022-04-28_20h24.53.311,classification_task,2021.2.3,Win32,30.00120005,6043f909d14273455e5e7436,626b377229c10585ec392f8a,626b3bd9c80ab878a33c3b0e,,,,,,,,,,,,,,,,,,,,,,,a,0,"[""0.076"",""0.388"",""0.439"",""0.733""]","[1,1,0,1]",0,10,10,10,1,1,1,,,0,FALSE,7.9839,,,,,,,,,,,,,,,,,,,,,,,,,,,,,,
,6043f909d14273455e5e7436,001,2022-04-28_20h24.53.311,classification_task,2021.2.3,Win32,30.00120005,6043f909d14273455e5e7436,626b377229c10585ec392f8a,626b3bd9c80ab878a33c3b0e,,,,,,,,,,,,,,,,,,,,,,,a,0,"[""0.026"",""0.227"",""0.681"",""0.822""]","[1,1,0,1]",0,11,11,11,1,1,0,,,0,FALSE,4.9905,,,,,,,,,,,,,,,,,,,,,,,,,,,,,,
,6043f909d14273455e5e7436,001,2022-04-28_20h24.53.311,classification_task,2021.2.3,Win32,30.00120005,6043f909d14273455e5e7436,626b377229c10585ec392f8a,626b3bd9c80ab878a33c3b0e,,,,,,,,,,,,,,,,,,,,,,,l,1,"[""0.457"",""0.227"",""0.564"",""0.822""]","[0,1,1,1]",0,12,12,12,1,1,0,,,0,FALSE,2.9493,,,,,,,,,,,,,,,,,,,,,,,,,,,,,,
,6043f909d14273455e5e7436,001,2022-04-28_20h24.53.311,classification_task,2021.2.3,Win32,30.00120005,6043f909d14273455e5e7436,626b377229c10585ec392f8a,626b3bd9c80ab878a33c3b0e,,,,,,,,,,,,,,,,,,,,,,,l,0,"[""0.290"",""0.497"",""0.772"",""0.677""]","[1,1,1,0]",0,13,13,13,1,0,0,,,0,FALSE,1.6633,,,,,,,,,,,,,,,,,,,,,,,,,,,,,,
,6043f909d14273455e5e7436,001,2022-04-28_20h24.53.311,classification_task,2021.2.3,Win32,30.00120005,6043f909d14273455e5e7436,626b377229c10585ec392f8a,626b3bd9c80ab878a33c3b0e,,,,,,,,,,,,,,,,,,,,,,,a,0,"[""0.026"",""0.227"",""0.564"",""0.423""]","[1,1,1,0]",0,14,14,14,1,1,0,,,0,FALSE,1.3131,,,,,,,,,,,,,,,,,,,,,,,,,,,,,,
,6043f909d14273455e5e7436,001,2022-04-28_20h24.53.311,classification_task,2021.2.3,Win32,30.00120005,6043f909d14273455e5e7436,626b377229c10585ec392f8a,626b3bd9c80ab878a33c3b0e,,,,,,,,,,,,,,,,,,,,,,,a,0,"[""0.076"",""0.679"",""0.627"",""0.733""]","[1,0,1,1]",0,15,15,15,1,1,1,,,0,FALSE,2.1412,,,,,,,,,,,,,,,,,,,,,,,,,,,,,,
,6043f909d14273455e5e7436,001,2022-04-28_20h24.53.311,classification_task,2021.2.3,Win32,30.00120005,6043f909d14273455e5e7436,626b377229c10585ec392f8a,626b3bd9c80ab878a33c3b0e,,,,,,,,,,,,,,,,,,,,,,,a,0,"[""0.112"",""0.388"",""0.627"",""0.733""]","[0,1,1,1]",0,16,16,16,1,1,1,,,0,FALSE,3.7596,,,,,,,,,,,,,,,,,,,,,,,,,,,,,,
,6043f909d14273455e5e7436,001,2022-04-28_20h24.53.311,classification_task,2021.2.3,Win32,30.00120005,6043f909d14273455e5e7436,626b377229c10585ec392f8a,626b3bd9c80ab878a33c3b0e,,,,,,,,,,,,,,,,,,,,,,,a,1,"[""0.173"",""0.676"",""0.935"",""0.974""]","[1,0,1,1]",0,17,17,17,1,0,1,,,0,FALSE,3.88,,,,,,,,,,,,,,,,,,,,,,,,,,,,,,
,6043f909d14273455e5e7436,001,2022-04-28_20h24.53.311,classification_task,2021.2.3,Win32,30.00120005,6043f909d14273455e5e7436,626b377229c10585ec392f8a,626b3bd9c80ab878a33c3b0e,,,,,,,,,,,,,,,,,,,,,,,a,1,"[""0.173"",""0.343"",""0.679"",""0.974""]","[1,1,0,1]",0,18,18,18,1,0,1,,,0,FALSE,1.2552,,,,,,,,,,,,,,,,,,,,,,,,,,,,,,
,6043f909d14273455e5e7436,001,2022-04-28_20h24.53.311,classification_task,2021.2.3,Win32,30.00120005,6043f909d14273455e5e7436,626b377229c10585ec392f8a,626b3bd9c80ab878a33c3b0e,,,,,,,,,,,,,,,,,,,,,,,a,1,"[""0.423"",""0.343"",""0.935"",""0.974""]","[0,1,1,1]",0,19,19,19,1,0,1,,,0,FALSE,2.6604,,,,,,,,,,,,,,,,,,,,,,,,,,,,,,
,6043f909d14273455e5e7436,001,2022-04-28_20h24.53.311,classification_task,2021.2.3,Win32,30.00120005,6043f909d14273455e5e7436,626b377229c10585ec392f8a,626b3bd9c80ab878a33c3b0e,,,,,,,,,,,,,,,,,,,,,,,a,0,"[""0.076"",""0.388"",""0.627"",""0.676""]","[1,1,1,0]",0,20,20,20,1,1,1,,,0,FALSE,1.2454,,,,,,,,,,,,,,,,,,,,,,,,,,,,,,
,6043f909d14273455e5e7436,001,2022-04-28_20h24.53.311,classification_task,2021.2.3,Win32,30.00120005,6043f909d14273455e5e7436,626b377229c10585ec392f8a,626b3bd9c80ab878a33c3b0e,,,,,,,,,,,,,,,,,,,,,,,l,1,"[""0.026"",""0.677"",""0.564"",""0.822""]","[1,0,1,1]",0,21,21,21,1,1,0,,,0,FALSE,1.7152,,,,,,,,,,,,,,,,,,,,,,,,,,,,,,
,6043f909d14273455e5e7436,001,2022-04-28_20h24.53.311,classification_task,2021.2.3,Win32,30.00120005,6043f909d14273455e5e7436,626b377229c10585ec392f8a,626b3bd9c80ab878a33c3b0e,,,,,,,,,,,,,,,,,,,,,,,a,0,"[""0.139"",""0.227"",""0.564"",""0.822""]","[0,1,1,1]",0,22,22,22,1,1,0,,,0,FALSE,4.9846,,,,,,,,,,,,,,,,,,,,,,,,,,,,,,
,6043f909d14273455e5e7436,001,2022-04-28_20h24.53.311,classification_task,2021.2.3,Win32,30.00120005,6043f909d14273455e5e7436,626b377229c10585ec392f8a,626b3bd9c80ab878a33c3b0e,,,,,,,,,,,,,,,,,,,,,,,a,1,"[""0.290"",""0.497"",""0.772"",""0.439""]","[1,1,1,0]",0,23,23,23,1,0,0,,,0,FALSE,3.3261,,,,,,,,,,,,,,,,,,,,,,,,,,,,,,
,6043f909d14273455e5e7436,001,2022-04-28_20h24.53.311,classification_task,2021.2.3,Win32,30.00120005,6043f909d14273455e5e7436,626b377229c10585ec392f8a,626b3bd9c80ab878a33c3b0e,,,,,,,,,,,,,,,,,,,,,,,l,1,"[""0.076"",""0.388"",""0.457"",""0.733""]","[1,1,0,1]",0,24,24,24,1,1,1,,,0,FALSE,0.848,,,,,,,,,,,,,,,,,,,,,,,,,,,,,,
,6043f909d14273455e5e7436,001,2022-04-28_20h24.53.311,classification_task,2021.2.3,Win32,30.00120005,6043f909d14273455e5e7436,626b377229c10585ec392f8a,626b3bd9c80ab878a33c3b0e,,,,,,,,,,,,,,,,,,,,,,,a,0,"[""0.026"",""0.227"",""0.439"",""0.822""]","[1,1,0,1]",0,25,25,25,1,1,0,,,0,FALSE,2.0426,,,,,,,,,,,,,,,,,,,,,,,,,,,,,,
,6043f909d14273455e5e7436,001,2022-04-28_20h24.53.311,classification_task,2021.2.3,Win32,30.00120005,6043f909d14273455e5e7436,626b377229c10585ec392f8a,626b3bd9c80ab878a33c3b0e,,,,,,,,,,,,,,,,,,,,,,,a,1,"[""0.128"",""0.497"",""0.772"",""0.862""]","[0,1,1,1]",0,26,26,26,1,0,0,,,0,FALSE,1.2312,,,,,,,,,,,,,,,,,,,,,,,,,,,,,,
,6043f909d14273455e5e7436,001,2022-04-28_20h24.53.311,classification_task,2021.2.3,Win32,30.00120005,6043f909d14273455e5e7436,626b377229c10585ec392f8a,626b3bd9c80ab878a33c3b0e,,,,,,,,,,,,,,,,,,,,,,,a,1,"[""0.290"",""0.497"",""0.461"",""0.862""]","[1,1,0,1]",0,27,27,27,1,0,0,,,0,FALSE,0.8283,,,,,,,,,,,,,,,,,,,,,,,,,,,,,,
,6043f909d14273455e5e7436,001,2022-04-28_20h24.53.311,classification_task,2021.2.3,Win32,30.00120005,6043f909d14273455e5e7436,626b377229c10585ec392f8a,626b3bd9c80ab878a33c3b0e,,,,,,,,,,,,,,,,,,,,,,,l,0,"[""0.290"",""0.676"",""0.772"",""0.862""]","[1,0,1,1]",0,28,28,28,1,0,0,,,0,FALSE,1.24,,,,,,,,,,,,,,,,,,,,,,,,,,,,,,
,6043f909d14273455e5e7436,001,2022-04-28_20h24.53.311,classification_task,2021.2.3,Win32,30.00120005,6043f909d14273455e5e7436,626b377229c10585ec392f8a,626b3bd9c80ab878a33c3b0e,,,,,,,,,,,,,,,,,,,,,,,a,0,"[""0.076"",""0.670"",""0.627"",""0.733""]","[1,0,1,1]",0,29,29,29,1,1,1,,,0,FALSE,1.2667,,,,,,,,,,,,,,,,,,,,,,,,,,,,,,
,6043f909d14273455e5e7436,001,2022-04-28_20h24.53.311,classification_task,2021.2.3,Win32,30.00120005,6043f909d14273455e5e7436,626b377229c10585ec392f8a,626b3bd9c80ab878a33c3b0e,,,,,,,,,,,,,,,,,,,,,,,l,0,"[""0.173"",""0.343"",""0.935"",""0.439""]","[1,1,1,0]",0,30,30,30,1,0,1,,,0,FALSE,1.7313,,,,,,,,,,,,,,,,,,,,,,,,,,,,,,
,6043f909d14273455e5e7436,001,2022-04-28_20h24.53.311,classification_task,2021.2.3,Win32,30.00120005,6043f909d14273455e5e7436,626b377229c10585ec392f8a,626b3bd9c80ab878a33c3b0e,,,,,,,,,,,,,,,,,,,,,,,a,0,"[""0.026"",""0.227"",""0.564"",""0.667""]","[1,1,1,0]",0,31,31,31,1,1,0,,,0,FALSE,0.8364,,,,,,,,,,,,,,,,,,,,,,,,,,,,,,
,6043f909d14273455e5e7436,001,2022-04-28_20h24.53.311,classification_task,2021.2.3,Win32,30.00120005,6043f909d14273455e5e7436,626b377229c10585ec392f8a,626b3bd9c80ab878a33c3b0e,,,,,,,,,,,,,,,,,,,,,,,a,0,"[""0.439"",""0.388"",""0.627"",""0.733""]","[0,1,1,1]",0,32,32,32,1,1,1,,,0,FALSE,1.6592,,,,,,,,,,,,,,,,,,,,,,,,,,,,,,
,6043f909d14273455e5e7436,001,2022-04-28_20h24.53.311,classification_task,2021.2.3,Win32,30.00120005,6043f909d14273455e5e7436,626b377229c10585ec392f8a,626b3bd9c80ab878a33c3b0e,,,,,,,,,,,,,,,,,,,,,,,a,0,"[""0.026"",""0.227"",""0.681"",""0.822""]","[1,1,0,1]",0,33,33,33,1,1,0,,,0,FALSE,1.2617,,,,,,,,,,,,,,,,,,,,,,,,,,,,,,
,6043f909d14273455e5e7436,001,2022-04-28_20h24.53.311,classification_task,2021.2.3,Win32,30.00120005,6043f909d14273455e5e7436,626b377229c10585ec392f8a,626b3bd9c80ab878a33c3b0e,,,,,,,,,,,,,,,,,,,,,,,l,0,"[""0.173"",""0.677"",""0.935"",""0.974""]","[1,0,1,1]",0,34,34,34,1,0,1,,,0,FALSE,1.2531,,,,,,,,,,,,,,,,,,,,,,,,,,,,,,
,6043f909d14273455e5e7436,001,2022-04-28_20h24.53.311,classification_task,2021.2.3,Win32,30.00120005,6043f909d14273455e5e7436,626b377229c10585ec392f8a,626b3bd9c80ab878a33c3b0e,,,,,,,,,,,,,,,,,,,,,,,a,0,"[""0.026"",""0.227"",""0.564"",""0.676""]","[1,1,1,0]",0,35,35,35,1,1,0,,,0,FALSE,1.2554,,,,,,,,,,,,,,,,,,,,,,,,,,,,,,
,6043f909d14273455e5e7436,001,2022-04-28_20h24.53.311,classification_task,2021.2.3,Win32,30.00120005,6043f909d14273455e5e7436,626b377229c10585ec392f8a,626b3bd9c80ab878a33c3b0e,,,,,,,,,,,,,,,,,,,,,,,l,0,"[""0.290"",""0.497"",""0.681"",""0.862""]","[1,1,0,1]",0,36,36,36,1,0,0,,,0,FALSE,2.5407,,,,,,,,,,,,,,,,,,,,,,,,,,,,,,
,6043f909d14273455e5e7436,001,2022-04-28_20h24.53.311,classification_task,2021.2.3,Win32,30.00120005,6043f909d14273455e5e7436,626b377229c10585ec392f8a,626b3bd9c80ab878a33c3b0e,,,,,,,,,,,,,,,,,,,,,,,,0,"[""0.076"",""0.388"",""0.627"",""0.681""]","[1,1,1,0]",0,37,37,37,1,1,1,,,0,FALSE,,,,,,,,,,,,,,,,,,,,,,,,,,,,,,,
,6043f909d14273455e5e7436,001,2022-04-28_20h24.53.311,classification_task,2021.2.3,Win32,30.00120005,6043f909d14273455e5e7436,626b377229c10585ec392f8a,626b3bd9c80ab878a33c3b0e,,,,,,,,,,,,,,,,,,,,,,,a,1,"[""0.112"",""0.497"",""0.772"",""0.862""]","[0,1,1,1]",0,38,38,38,1,0,0,,,0,FALSE,1.6671,,,,,,,,,,,,,,,,,,,,,,,,,,,,,,
,6043f909d14273455e5e7436,001,2022-04-28_20h24.53.311,classification_task,2021.2.3,Win32,30.00120005,6043f909d14273455e5e7436,626b377229c10585ec392f8a,626b3bd9c80ab878a33c3b0e,,,,,,,,,,,,,,,,,,,,,,,a,0,"[""0.076"",""0.128"",""0.627"",""0.733""]","[1,0,1,1]",0,39,39,39,1,1,1,,,0,FALSE,2.9364,,,,,,,,,,,,,,,,,,,,,,,,,,,,,,
,6043f909d14273455e5e7436,001,2022-04-28_20h24.53.311,classification_task,2021.2.3,Win32,30.00120005,6043f909d14273455e5e7436,626b377229c10585ec392f8a,626b3bd9c80ab878a33c3b0e,,,,,,,,,,,,,,,,,,,,,,,,0,"[""0.026"",""0.128"",""0.564"",""0.822""]","[1,0,1,1]",0,40,40,40,1,1,0,,,0,FALSE,,,,,,,,,,,,,,,,,,,,,,,,,,,,,,,
,6043f909d14273455e5e7436,001,2022-04-28_20h24.53.311,classification_task,2021.2.3,Win32,30.00120005,6043f909d14273455e5e7436,626b377229c10585ec392f8a,626b3bd9c80ab878a33c3b0e,,,,,,,,,,,,,,,,,,,,,,,,0,"[""0.290"",""0.139"",""0.772"",""0.862""]","[1,0,1,1]",0,41,41,41,1,0,0,,,0,FALSE,,,,,,,,,,,,,,,,,,,,,,,,,,,,,,,
,6043f909d14273455e5e7436,001,2022-04-28_20h24.53.311,classification_task,2021.2.3,Win32,30.00120005,6043f909d14273455e5e7436,626b377229c10585ec392f8a,626b3bd9c80ab878a33c3b0e,,,,,,,,,,,,,,,,,,,,,,,a,1,"[""0.173"",""0.343"",""0.935"",""0.677""]","[1,1,1,0]",0,42,42,42,1,0,1,,,0,FALSE,5.0502,,,,,,,,,,,,,,,,,,,,,,,,,,,,,,
,6043f909d14273455e5e7436,001,2022-04-28_20h24.53.311,classification_task,2021.2.3,Win32,30.00120005,6043f909d14273455e5e7436,626b377229c10585ec392f8a,626b3bd9c80ab878a33c3b0e,,,,,,,,,,,,,,,,,,,,,,,a,0,"[""0.681"",""0.227"",""0.564"",""0.822""]","[0,1,1,1]",0,43,43,43,1,1,0,,,0,FALSE,0.8731,,,,,,,,,,,,,,,,,,,,,,,,,,,,,,
,6043f909d14273455e5e7436,001,2022-04-28_20h24.53.311,classification_task,2021.2.3,Win32,30.00120005,6043f909d14273455e5e7436,626b377229c10585ec392f8a,626b3bd9c80ab878a33c3b0e,,,,,,,,,,,,,,,,,,,,,,,a,1,"[""0.112"",""0.343"",""0.935"",""0.974""]","[0,1,1,1]",0,44,44,44,1,0,1,,,0,FALSE,1.2416,,,,,,,,,,,,,,,,,,,,,,,,,,,,,,
,6043f909d14273455e5e7436,001,2022-04-28_20h24.53.311,classification_task,2021.2.3,Win32,30.00120005,6043f909d14273455e5e7436,626b377229c10585ec392f8a,626b3bd9c80ab878a33c3b0e,,,,,,,,,,,,,,,,,,,,,,,a,0,"[""0.076"",""0.388"",""0.139"",""0.733""]","[1,1,0,1]",0,45,45,45,1,1,1,,,0,FALSE,1.6807,,,,,,,,,,,,,,,,,,,,,,,,,,,,,,
,6043f909d14273455e5e7436,001,2022-04-28_20h24.53.311,classification_task,2021.2.3,Win32,30.00120005,6043f909d14273455e5e7436,626b377229c10585ec392f8a,626b3bd9c80ab878a33c3b0e,,,,,,,,,,,,,,,,,,,,,,,a,1,"[""0.173"",""0.343"",""0.439"",""0.974""]","[1,1,0,1]",0,46,46,46,1,0,1,,,0,FALSE,0.8397,,,,,,,,,,,,,,,,,,,,,,,,,,,,,,
,6043f909d14273455e5e7436,001,2022-04-28_20h24.53.311,classification_task,2021.2.3,Win32,30.00120005,6043f909d14273455e5e7436,626b377229c10585ec392f8a,626b3bd9c80ab878a33c3b0e,,,,,,,,,,,,,,,,,,,,,,,a,1,"[""0.290"",""0.497"",""0.772"",""0.128""]","[1,1,1,0]",0,47,47,47,1,0,0,,,0,FALSE,0.8366,,,,,,,,,,,,,,,,,,,,,,,,,,,,,,
,6043f909d14273455e5e7436,001,2022-04-28_20h24.53.311,classification_task,2021.2.3,Win32,30.00120005,6043f909d14273455e5e7436,626b377229c10585ec392f8a,626b3bd9c80ab878a33c3b0e,,,,,,,,,,,,,,,,,,,,,,,a,0,"[""0.076"",""0.388"",""0.627"",""0.128""]","[1,1,1,0]",0,48,48,48,1,1,1,,,0,FALSE,2.1224,,,,,,,,,,,,,,,,,,,,,,,,,,,,,,
,6043f909d14273455e5e7436,001,2022-04-28_20h24.53.311,classification_task,2021.2.3,Win32,30.00120005,6043f909d14273455e5e7436,626b377229c10585ec392f8a,626b3bd9c80ab878a33c3b0e,,,,,,,,,,,,,,,,,,,,,,,a,1,"[""0.439"",""0.343"",""0.935"",""0.974""]","[0,1,1,1]",0,49,49,49,1,0,1,,,0,FALSE,0.855,,,,,,,,,,,,,,,,,,,,,,,,,,,,,,
,6043f909d14273455e5e7436,001,2022-04-28_20h24.53.311,classification_task,2021.2.3,Win32,30.00120005,6043f909d14273455e5e7436,626b377229c10585ec392f8a,626b3bd9c80ab878a33c3b0e,,,,,,,,,,,,,,,,,,,,,,,a,1,"[""0.290"",""0.423"",""0.772"",""0.862""]","[1,0,1,1]",0,50,50,50,1,0,0,,,0,FALSE,1.67,,,,,,,,,,,,,,,,,,,,,,,,,,,,,,
,6043f909d14273455e5e7436,001,2022-04-28_20h24.53.311,classification_task,2021.2.3,Win32,30.00120005,6043f909d14273455e5e7436,626b377229c10585ec392f8a,626b3bd9c80ab878a33c3b0e,,,,,,,,,,,,,,,,,,,,,,,a,1,"[""0.173"",""0.343"",""0.935"",""0.679""]","[1,1,1,0]",0,51,51,51,1,0,1,,,0,FALSE,1.7442,,,,,,,,,,,,,,,,,,,,,,,,,,,,,,
,6043f909d14273455e5e7436,001,2022-04-28_20h24.53.311,classification_task,2021.2.3,Win32,30.00120005,6043f909d14273455e5e7436,626b377229c10585ec392f8a,626b3bd9c80ab878a33c3b0e,,,,,,,,,,,,,,,,,,,,,,,,0,"[""0.076"",""0.461"",""0.627"",""0.733""]","[1,0,1,1]",0,52,52,52,1,1,1,,,0,FALSE,,,,,,,,,,,,,,,,,,,,,,,,,,,,,,,
,6043f909d14273455e5e7436,001,2022-04-28_20h24.53.311,classification_task,2021.2.3,Win32,30.00120005,6043f909d14273455e5e7436,626b377229c10585ec392f8a,626b3bd9c80ab878a33c3b0e,,,,,,,,,,,,,,,,,,,,,,,,0,"[""0.173"",""0.531"",""0.935"",""0.974""]","[1,0,1,1]",0,53,53,53,1,0,1,,,0,FALSE,,,,,,,,,,,,,,,,,,,,,,,,,,,,,,,
,6043f909d14273455e5e7436,001,2022-04-28_20h24.53.311,classification_task,2021.2.3,Win32,30.00120005,6043f909d14273455e5e7436,626b377229c10585ec392f8a,626b3bd9c80ab878a33c3b0e,,,,,,,,,,,,,,,,,,,,,,,,0,"[""0.026"",""0.227"",""0.423"",""0.822""]","[1,1,0,1]",0,54,54,54,1,1,0,,,0,FALSE,,,,,,,,,,,,,,,,,,,,,,,,,,,,,,,
,6043f909d14273455e5e7436,001,2022-04-28_20h24.53.311,classification_task,2021.2.3,Win32,30.00120005,6043f909d14273455e5e7436,626b377229c10585ec392f8a,626b3bd9c80ab878a33c3b0e,,,,,,,,,,,,,,,,,,,,,,,a,1,"[""0.173"",""0.343"",""0.439"",""0.974""]","[1,1,0,1]",0,55,55,55,1,0,1,,,0,FALSE,0.8598,,,,,,,,,,,,,,,,,,,,,,,,,,,,,,
,6043f909d14273455e5e7436,001,2022-04-28_20h24.53.311,classification_task,2021.2.3,Win32,30.00120005,6043f909d14273455e5e7436,626b377229c10585ec392f8a,626b3bd9c80ab878a33c3b0e,,,,,,,,,,,,,,,,,,,,,,,,0,"[""0.531"",""0.388"",""0.627"",""0.733""]","[0,1,1,1]",0,56,56,56,1,1,1,,,0,FALSE,,,,,,,,,,,,,,,,,,,,,,,,,,,,,,,
,6043f909d14273455e5e7436,001,2022-04-28_20h24.53.311,classification_task,2021.2.3,Win32,30.00120005,6043f909d14273455e5e7436,626b377229c10585ec392f8a,626b3bd9c80ab878a33c3b0e,,,,,,,,,,,,,,,,,,,,,,,,0,"[""0.290"",""0.497"",""0.676"",""0.862""]","[1,1,0,1]",0,57,57,57,1,0,0,,,0,FALSE,,,,,,,,,,,,,,,,,,,,,,,,,,,,,,,
,6043f909d14273455e5e7436,001,2022-04-28_20h24.53.311,classification_task,2021.2.3,Win32,30.00120005,6043f909d14273455e5e7436,626b377229c10585ec392f8a,626b3bd9c80ab878a33c3b0e,,,,,,,,,,,,,,,,,,,,,,,a,1,"[""0.290"",""0.497"",""0.772"",""0.681""]","[1,1,1,0]",0,58,58,58,1,0,0,,,0,FALSE,0.4505,,,,,,,,,,,,,,,,,,,,,,,,,,,,,,
,6043f909d14273455e5e7436,001,2022-04-28_20h24.53.311,classification_task,2021.2.3,Win32,30.00120005,6043f909d14273455e5e7436,626b377229c10585ec392f8a,626b3bd9c80ab878a33c3b0e,,,,,,,,,,,,,,,,,,,,,,,l,1,"[""0.026"",""0.227"",""0.564"",""0.667""]","[1,1,1,0]",0,59,59,59,1,1,0,,,0,FALSE,0.435,,,,,,,,,,,,,,,,,,,,,,,,,,,,,,
,6043f909d14273455e5e7436,001,2022-04-28_20h24.53.311,classification_task,2021.2.3,Win32,30.00120005,6043f909d14273455e5e7436,626b377229c10585ec392f8a,626b3bd9c80ab878a33c3b0e,,,,,,,,,,,,,,,,,,,,,,,a,0,"[""0.076"",""0.388"",""0.128"",""0.733""]","[1,1,0,1]",0,60,60,60,1,1,1,,,0,FALSE,0.9134,,,,,,,,,,,,,,,,,,,,,,,,,,,,,,
,6043f909d14273455e5e7436,001,2022-04-28_20h24.53.311,classification_task,2021.2.3,Win32,30.00120005,6043f909d14273455e5e7436,626b377229c10585ec392f8a,626b3bd9c80ab878a33c3b0e,,,,,,,,,,,,,,,,,,,,,,,a,0,"[""0.667"",""0.227"",""0.564"",""0.822""]","[0,1,1,1]",0,61,61,61,1,1,0,,,0,FALSE,1.6724,,,,,,,,,,,,,,,,,,,,,,,,,,,,,,
,6043f909d14273455e5e7436,001,2022-04-28_20h24.53.311,classification_task,2021.2.3,Win32,30.00120005,6043f909d14273455e5e7436,626b377229c10585ec392f8a,626b3bd9c80ab878a33c3b0e,,,,,,,,,,,,,,,,,,,,,,,l,0,"[""0.457"",""0.497"",""0.772"",""0.862""]","[0,1,1,1]",0,62,62,62,1,0,0,,,0,FALSE,1.6778,,,,,,,,,,,,,,,,,,,,,,,,,,,,,,
,6043f909d14273455e5e7436,001,2022-04-28_20h24.53.311,classification_task,2021.2.3,Win32,30.00120005,6043f909d14273455e5e7436,626b377229c10585ec392f8a,626b3bd9c80ab878a33c3b0e,,,,,,,,,,,,,,,,,,,,,,,l,1,"[""0.026"",""0.439"",""0.564"",""0.822""]","[1,0,1,1]",0,63,63,63,1,1,0,,,0,FALSE,2.5017,,,,,,,,,,,,,,,,,,,,,,,,,,,,,,
,6043f909d14273455e5e7436,001,2022-04-28_20h24.53.311,classification_task,2021.2.3,Win32,30.00120005,6043f909d14273455e5e7436,626b377229c10585ec392f8a,626b3bd9c80ab878a33c3b0e,,,,,,,,,,,,,,,,,,,,,,,,,,,,,,,,,,,,,,,0, ,,0,,,0,2,2,2,1,2,3,,,,,,,,,,,,,,,,,
,6043f909d14273455e5e7436,001,2022-04-28_20h24.53.311,classification_task,2021.2.3,Win32,30.00120005,6043f909d14273455e5e7436,626b377229c10585ec392f8a,626b3bd9c80ab878a33c3b0e,,,,,,,,,,,,,,,,,,,,,,,,,,,,,,,,,,,,,,,1,  ,,0,,,0,2,2,2,1,2,3,,,,,,,,,,,,,,,,,
,6043f909d14273455e5e7436,001,2022-04-28_20h24.53.311,classification_task,2021.2.3,Win32,30.00120005,6043f909d14273455e5e7436,626b377229c10585ec392f8a,626b3bd9c80ab878a33c3b0e,,,,,,,,,,,,,,,,,,,,,,,,,,,,,,,,,,,,,,,2,  ,,0,,,0,2,2,2,1,2,3,,,,,,,,,,,,,,,,,
,6043f909d14273455e5e7436,001,2022-04-28_20h24.53.311,classification_task,2021.2.3,Win32,30.00120005,6043f909d14273455e5e7436,626b377229c10585ec392f8a,626b3bd9c80ab878a33c3b0e,,,,,,,,,,,,,,,,,,,,,,,,,,,,,,,,,,,,,,,,,,,,,0,2,2,2,1,,3,,,,,,,,,,,,,,,,,
,6043f909d14273455e5e7436,001,2022-04-28_20h24.53.311,classification_task,2021.2.3,Win32,30.00120005,6043f909d14273455e5e7436,626b377229c10585ec392f8a,626b3bd9c80ab878a33c3b0e,,,,,,,,,,,,,,,,,,,,,,,,,,,,,,,,,,,,,,,,,,,,,,,,,,,,,I believe the aid is a competent performer,,0.7,0,5,2043.0107,0,0,0,0,1,0,,,,
,6043f909d14273455e5e7436,001,2022-04-28_20h24.53.311,classification_task,2021.2.3,Win32,30.00120005,6043f909d14273455e5e7436,626b377229c10585ec392f8a,626b3bd9c80ab878a33c3b0e,,,,,,,,,,,,,,,,,,,,,,,,,,,,,,,,,,,,,,,,,,,,,,,,,,,,,I trust the aid,,0.7,0,5,2043.867,0,0,0,0,1,0,,,,
,6043f909d14273455e5e7436,001,2022-04-28_20h24.53.311,classification_task,2021.2.3,Win32,30.00120005,6043f909d14273455e5e7436,626b377229c10585ec392f8a,626b3bd9c80ab878a33c3b0e,,,,,,,,,,,,,,,,,,,,,,,,,,,,,,,,,,,,,,,,,,,,,,,,,,,,,I have confidence in the advice given by the aid,,0.7,0,4,2048.9429,0,0,0,0,1,0,,,,
,6043f909d14273455e5e7436,001,2022-04-28_20h24.53.311,classification_task,2021.2.3,Win32,30.00120005,6043f909d14273455e5e7436,626b377229c10585ec392f8a,626b3bd9c80ab878a33c3b0e,,,,,,,,,,,,,,,,,,,,,,,,,,,,,,,,,,,,,,,,,,,,,,,,,,,,,I can depend on the aid,,0.7,0,5,2051.0027,0,0,0,0,1,0,,,,
,6043f909d14273455e5e7436,001,2022-04-28_20h24.53.311,classification_task,2021.2.3,Win32,30.00120005,6043f909d14273455e5e7436,626b377229c10585ec392f8a,626b3bd9c80ab878a33c3b0e,,,,,,,,,,,,,,,,,,,,,,,,,,,,,,,,,,,,,,,,,,,,,,,,,,,,,I can rely on the aid to behave in consistent ways,,0.7,0,5,2052.6648,0,0,0,0,1,0,,,,
,6043f909d14273455e5e7436,001,2022-04-28_20h24.53.311,classification_task,2021.2.3,Win32,30.00120005,6043f909d14273455e5e7436,626b377229c10585ec392f8a,626b3bd9c80ab878a33c3b0e,,,,,,,,,,,,,,,,,,,,,,,,,,,,,,,,,,,,,,,,,,,,,,,,,,,,,I can rely on the aid to do its best every time I take its advice,,0.7,0,4,2056.1507,0,0,0,0,1,0,,,,
,6043f909d14273455e5e7436,001,2022-04-28_20h24.53.311,classification_task,2021.2.3,Win32,30.00120005,6043f909d14273455e5e7436,626b377229c10585ec392f8a,626b3bd9c80ab878a33c3b0e,,,,,,,,,,,,,,,,,,,,,,,,,,,,,,,,,,,,,,,,,,,,,,,,,,,,,"On trials you completed with assistance from the aid, how frequently did you think the aid was correct?",,0.7,0,100% sure,,0,0,0,0,1,0,,,,
,6043f909d14273455e5e7436,001,2022-04-28_20h24.53.311,classification_task,2021.2.3,Win32,30.00120005,6043f909d14273455e5e7436,626b377229c10585ec392f8a,626b3bd9c80ab878a33c3b0e,,,,,,,,,,,,,,,,,,,,,,,,,,,,,,,,,,,,,,,,,,,,,,,,,,,,,"On trials you completed without the aid, how frequently did you think you were correct?",,0.7,0,40% sure,,0,0,0,0,1,0,,,,
,6043f909d14273455e5e7436,001,2022-04-28_20h24.53.311,classification_task,2021.2.3,Win32,30.00120005,6043f909d14273455e5e7436,626b377229c10585ec392f8a,626b3bd9c80ab878a33c3b0e,,,,,,,,,,,,,,,,,,,,,,,,,,,,,,,,,,,,,,,,,,,,,,,,,,,,,,,,,,,0,0,0,0,1,,,,,
,6043f909d14273455e5e7436,001,2022-04-28_20h24.53.311,classification_task,2021.2.3,Win32,30.00120005,6043f909d14273455e5e7436,626b377229c10585ec392f8a,626b3bd9c80ab878a33c3b0e,,,,,,,,,,,,,,,,,,,,,,,,,,,,,,,,,,,,,,,,,,,,,,,,,,,,,,,,,,,,,,,,,return,13.6647,2095.7303,
,6043f909d14273455e5e7436,001,2022-04-28_20h24.53.311,classification_task,2021.2.3,Win32,30.00120005,6043f909d14273455e5e7436,626b377229c10585ec392f8a,626b3bd9c80ab878a33c3b0e,,,,,,,,,,,,,,,,,,,,,,,,,,,,,,,,,,,,,,,,,,,,,,,,,,,,,,,,,,,,,,,,,,,,"Mozilla/5.0 (Windows NT 10.0; Win64; x64) AppleWebKit/537.36 (KHTML, like Gecko) Chrome/100.0.4896.127 Safari/537.36"
