usingWebGL,participant,session,date,expName,psychopyVersion,OS,frameRate,study_id,signatures_friend,signatures_foe,band_ranges_top,band_ranges_bottom,formitemText,formtype,formundefined,formitemWidth,formindex,formresponse,formrt,key_resp_2.keys,key_resp_2.rt,tute_resp.keys,tute_resp.rt,tutorial.thisRepN,tutorial.thisTrialN,tutorial.thisN,tutorial.thisIndex,tutorial.ran,key_resp_4.keys,key_resp_4.rt,key_resp.keys,key_resp.corr,lines_presented,is_signal_presented,trials.thisRepN,trials.thisTrialN,trials.thisN,trials.thisIndex,trials.ran,vessel,active_band,lines,is_signal,supported_pos,catch_trial,key_resp.rt,debrief_formindex,debrief_formitemText,debrief_formtype,debrief_formitemWidth,debrief_formresponse,debrief_formrt,phases.thisRepN,phases.thisTrialN,phases.thisN,phases.thisIndex,phases.ran,phases.order,phase,key_resp_3.keys,trustitemText,trusttype,trustitemWidth,trustindex,trustresponse,trustrt,support_status.thisRepN,support_status.thisTrialN,support_status.thisN,support_status.thisIndex,support_status.ran,support_status.order,key_resp_5.keys,key_resp_5.rt,globalClockTime,userAgent,manualCondition
TRUE,60512f92ff9e79466ba8d4b8,627c6f567661cada394cd6cb,2022-05-11_21h23.23.389,classification_task,2021.2.3,MacIntel,60.0024001,627c6715c52fd12f31907bd0,,,,,,,,,,,,,,,,,,,,,,,,,,,,,,,,,,,,,,,,,,,,,,,,,,,,,,,,,,,,,,,,,,,,,
,60512f92ff9e79466ba8d4b8,627c6f567661cada394cd6cb,2022-05-11_21h23.23.389,classification_task,2021.2.3,MacIntel,60.0024001,627c6715c52fd12f31907bd0,"[[""0.194"",""0.328"",""0.930"",""0.972""],[""0.230"",""0.464"",""0.847"",""0.888""]]","[[""0.052"",""0.266"",""0.506"",""0.805""],[""0.110"",""0.156"",""0.625"",""0.684""]]","[1,10]","[100,1000]",Video game experience,,,0.7,0,,,,,,,,,,,,,,,,,,,,,,,,,,,,,,,,,,,,,,,,,,,,,,,,,,,,,,,,,,,,
,60512f92ff9e79466ba8d4b8,627c6f567661cada394cd6cb,2022-05-11_21h23.23.389,classification_task,2021.2.3,MacIntel,60.0024001,627c6715c52fd12f31907bd0,,,,,Approximately how many hours did you spend playing video games in the last week?,,,0.7,0,3,,,,,,,,,,,,,,,,,,,,,,,,,,,,,,,,,,,,,,,,,,,,,,,,,,,,,,,,,,,
,60512f92ff9e79466ba8d4b8,627c6f567661cada394cd6cb,2022-05-11_21h23.23.389,classification_task,2021.2.3,MacIntel,60.0024001,627c6715c52fd12f31907bd0,,,,,"Which game did you play the most this year? (Enter ""None"" if you didn't play any)",,,0.7,0,phasmophobia,,,,,,,,,,,,,,,,,,,,,,,,,,,,,,,,,,,,,,,,,,,,,,,,,,,,,,,,,,,
,60512f92ff9e79466ba8d4b8,627c6f567661cada394cd6cb,2022-05-11_21h23.23.389,classification_task,2021.2.3,MacIntel,60.0024001,627c6715c52fd12f31907bd0,,,,,Visual perception,,,0.7,0,,,,,,,,,,,,,,,,,,,,,,,,,,,,,,,,,,,,,,,,,,,,,,,,,,,,,,,,,,,,
,60512f92ff9e79466ba8d4b8,627c6f567661cada394cd6cb,2022-05-11_21h23.23.389,classification_task,2021.2.3,MacIntel,60.0024001,627c6715c52fd12f31907bd0,,,,,Do you have any form of color blindness?,,,0.7,0,No,33.7568,,,,,,,,,,,,,,,,,,,,,,,,,,,,,,,,,,,,,,,,,,,,,,,,,,,,,,,,,,
,60512f92ff9e79466ba8d4b8,627c6f567661cada394cd6cb,2022-05-11_21h23.23.389,classification_task,2021.2.3,MacIntel,60.0024001,627c6715c52fd12f31907bd0,,,,,Do you use software to change the colour temperature of your screen (e.g. f.lux)?,,,0.7,0,No,37.5753,,,,,,,,,,,,,,,,,,,,,,,,,,,,,,,,,,,,,,,,,,,,,,,,,,,,,,,,,,
,60512f92ff9e79466ba8d4b8,627c6f567661cada394cd6cb,2022-05-11_21h23.23.389,classification_task,2021.2.3,MacIntel,60.0024001,627c6715c52fd12f31907bd0,,,,,,,,,,,,space,66.1638,space,12.2662,0,0,0,0,1,,,,,,,,,,,,,,,,,,,,,,,,,,,,,,,,,,,,,,,,,,,,,,,,,
,60512f92ff9e79466ba8d4b8,627c6f567661cada394cd6cb,2022-05-11_21h23.23.389,classification_task,2021.2.3,MacIntel,60.0024001,627c6715c52fd12f31907bd0,,,,,,,,,,,,,,space,10.2332,1,0,1,0,1,,,,,,,,,,,,,,,,,,,,,,,,,,,,,,,,,,,,,,,,,,,,,,,,,
,60512f92ff9e79466ba8d4b8,627c6f567661cada394cd6cb,2022-05-11_21h23.23.389,classification_task,2021.2.3,MacIntel,60.0024001,627c6715c52fd12f31907bd0,,,,,,,,,,,,,,space,37.0019,2,0,2,0,1,,,,,,,,,,,,,,,,,,,,,,,,,,,,,,,,,,,,,,,,,,,,,,,,,
,60512f92ff9e79466ba8d4b8,627c6f567661cada394cd6cb,2022-05-11_21h23.23.389,classification_task,2021.2.3,MacIntel,60.0024001,627c6715c52fd12f31907bd0,,,,,,,,,,,,,,space,33.635,3,0,3,0,1,,,,,,,,,,,,,,,,,,,,,,,,,,,,,,,,,,,,,,,,,,,,,,,,,
,60512f92ff9e79466ba8d4b8,627c6f567661cada394cd6cb,2022-05-11_21h23.23.389,classification_task,2021.2.3,MacIntel,60.0024001,627c6715c52fd12f31907bd0,,,,,,,,,,,,,,space,16.1654,4,0,4,0,1,,,,,,,,,,,,,,,,,,,,,,,,,,,,,,,,,,,,,,,,,,,,,,,,,
,60512f92ff9e79466ba8d4b8,627c6f567661cada394cd6cb,2022-05-11_21h23.23.389,classification_task,2021.2.3,MacIntel,60.0024001,627c6715c52fd12f31907bd0,,,,,,,,,,,,,,,,,,,,,space,17.7798,,0,"[""0.052"",""0.266"",""0.506"",""0.417""]","[1,1,1,0]",0,0,0,0,1,1,0,,,1,FALSE,,,,,,,,,,,,,,,,,,,,,,,,,,,,,,,,
,60512f92ff9e79466ba8d4b8,627c6f567661cada394cd6cb,2022-05-11_21h23.23.389,classification_task,2021.2.3,MacIntel,60.0024001,627c6715c52fd12f31907bd0,,,,,,,,,,,,,,,,,,,,,,,l,1,"[""0.052"",""0.266"",""0.582"",""0.805""]","[1,1,0,1]",0,1,1,1,1,1,0,,,1,FALSE,3.9819,,,,,,,,,,,,,,,,,,,,,,,,,,,,,,,
,60512f92ff9e79466ba8d4b8,627c6f567661cada394cd6cb,2022-05-11_21h23.23.389,classification_task,2021.2.3,MacIntel,60.0024001,627c6715c52fd12f31907bd0,,,,,,,,,,,,,,,,,,,,,,,l,1,"[""0.556"",""0.266"",""0.506"",""0.805""]","[0,1,1,1]",0,2,2,2,1,1,0,,,1,FALSE,7.653,,,,,,,,,,,,,,,,,,,,,,,,,,,,,,,
,60512f92ff9e79466ba8d4b8,627c6f567661cada394cd6cb,2022-05-11_21h23.23.389,classification_task,2021.2.3,MacIntel,60.0024001,627c6715c52fd12f31907bd0,,,,,,,,,,,,,,,,,,,,,,,l,0,"[""0.422"",""0.328"",""0.930"",""0.972""]","[0,1,1,1]",0,3,3,3,1,0,0,,,1,FALSE,7.7846,,,,,,,,,,,,,,,,,,,,,,,,,,,,,,,
,60512f92ff9e79466ba8d4b8,627c6f567661cada394cd6cb,2022-05-11_21h23.23.389,classification_task,2021.2.3,MacIntel,60.0024001,627c6715c52fd12f31907bd0,,,,,,,,,,,,,,,,,,,,,,,l,1,"[""0.412"",""0.156"",""0.625"",""0.684""]","[0,1,1,1]",0,4,4,4,1,1,1,,,1,FALSE,5.6298,,,,,,,,,,,,,,,,,,,,,,,,,,,,,,,
,60512f92ff9e79466ba8d4b8,627c6f567661cada394cd6cb,2022-05-11_21h23.23.389,classification_task,2021.2.3,MacIntel,60.0024001,627c6715c52fd12f31907bd0,,,,,,,,,,,,,,,,,,,,,,,a,1,"[""0.230"",""0.768"",""0.847"",""0.888""]","[1,0,1,1]",0,5,5,5,1,0,1,,,1,FALSE,4.6674,,,,,,,,,,,,,,,,,,,,,,,,,,,,,,,
,60512f92ff9e79466ba8d4b8,627c6f567661cada394cd6cb,2022-05-11_21h23.23.389,classification_task,2021.2.3,MacIntel,60.0024001,627c6715c52fd12f31907bd0,,,,,,,,,,,,,,,,,,,,,,,l,1,"[""0.110"",""0.156"",""0.625"",""0.412""]","[1,1,1,0]",0,6,6,6,1,1,1,,,1,FALSE,4.4039,,,,,,,,,,,,,,,,,,,,,,,,,,,,,,,
,60512f92ff9e79466ba8d4b8,627c6f567661cada394cd6cb,2022-05-11_21h23.23.389,classification_task,2021.2.3,MacIntel,60.0024001,627c6715c52fd12f31907bd0,,,,,,,,,,,,,,,,,,,,,,,l,0,"[""0.194"",""0.328"",""0.550"",""0.972""]","[1,1,0,1]",0,7,7,7,1,0,0,,,1,FALSE,4.0165,,,,,,,,,,,,,,,,,,,,,,,,,,,,,,,
,60512f92ff9e79466ba8d4b8,627c6f567661cada394cd6cb,2022-05-11_21h23.23.389,classification_task,2021.2.3,MacIntel,60.0024001,627c6715c52fd12f31907bd0,,,,,,,,,,,,,,,,,,,,,,,a,1,"[""0.230"",""0.464"",""0.556"",""0.888""]","[1,1,0,1]",0,8,8,8,1,0,1,,,1,FALSE,3.7679,,,,,,,,,,,,,,,,,,,,,,,,,,,,,,,
,60512f92ff9e79466ba8d4b8,627c6f567661cada394cd6cb,2022-05-11_21h23.23.389,classification_task,2021.2.3,MacIntel,60.0024001,627c6715c52fd12f31907bd0,,,,,,,,,,,,,,,,,,,,,,,l,1,"[""0.052"",""0.550"",""0.506"",""0.805""]","[1,0,1,1]",0,9,9,9,1,1,0,,,1,FALSE,2.3477,,,,,,,,,,,,,,,,,,,,,,,,,,,,,,,
,60512f92ff9e79466ba8d4b8,627c6f567661cada394cd6cb,2022-05-11_21h23.23.389,classification_task,2021.2.3,MacIntel,60.0024001,627c6715c52fd12f31907bd0,,,,,,,,,,,,,,,,,,,,,,,a,1,"[""0.417"",""0.464"",""0.847"",""0.888""]","[0,1,1,1]",0,10,10,10,1,0,1,,,1,FALSE,6.825,,,,,,,,,,,,,,,,,,,,,,,,,,,,,,,
,60512f92ff9e79466ba8d4b8,627c6f567661cada394cd6cb,2022-05-11_21h23.23.389,classification_task,2021.2.3,MacIntel,60.0024001,627c6715c52fd12f31907bd0,,,,,,,,,,,,,,,,,,,,,,,l,0,"[""0.194"",""0.328"",""0.930"",""0.410""]","[1,1,1,0]",0,11,11,11,1,0,0,,,1,FALSE,6.3824,,,,,,,,,,,,,,,,,,,,,,,,,,,,,,,
,60512f92ff9e79466ba8d4b8,627c6f567661cada394cd6cb,2022-05-11_21h23.23.389,classification_task,2021.2.3,MacIntel,60.0024001,627c6715c52fd12f31907bd0,,,,,,,,,,,,,,,,,,,,,,,a,1,"[""0.194"",""0.752"",""0.930"",""0.972""]","[1,0,1,1]",0,12,12,12,1,0,0,,,1,FALSE,7.5838,,,,,,,,,,,,,,,,,,,,,,,,,,,,,,,
,60512f92ff9e79466ba8d4b8,627c6f567661cada394cd6cb,2022-05-11_21h23.23.389,classification_task,2021.2.3,MacIntel,60.0024001,627c6715c52fd12f31907bd0,,,,,,,,,,,,,,,,,,,,,,,a,1,"[""0.230"",""0.464"",""0.847"",""0.582""]","[1,1,1,0]",0,13,13,13,1,0,1,,,1,FALSE,4.4144,,,,,,,,,,,,,,,,,,,,,,,,,,,,,,,
,60512f92ff9e79466ba8d4b8,627c6f567661cada394cd6cb,2022-05-11_21h23.23.389,classification_task,2021.2.3,MacIntel,60.0024001,627c6715c52fd12f31907bd0,,,,,,,,,,,,,,,,,,,,,,,l,1,"[""0.110"",""0.156"",""0.768"",""0.684""]","[1,1,0,1]",0,14,14,14,1,1,1,,,1,FALSE,4.517,,,,,,,,,,,,,,,,,,,,,,,,,,,,,,,
,60512f92ff9e79466ba8d4b8,627c6f567661cada394cd6cb,2022-05-11_21h23.23.389,classification_task,2021.2.3,MacIntel,60.0024001,627c6715c52fd12f31907bd0,,,,,,,,,,,,,,,,,,,,,,,l,1,"[""0.110"",""0.582"",""0.625"",""0.684""]","[1,0,1,1]",0,15,15,15,1,1,1,,,1,FALSE,5.4038,,,,,,,,,,,,,,,,,,,,,,,,,,,,,,,
,60512f92ff9e79466ba8d4b8,627c6f567661cada394cd6cb,2022-05-11_21h23.23.389,classification_task,2021.2.3,MacIntel,60.0024001,627c6715c52fd12f31907bd0,,,,,,,,,,,,,,,,,,,,,,,l,1,"[""0.550"",""0.266"",""0.506"",""0.805""]","[0,1,1,1]",0,16,16,16,1,1,0,,,1,FALSE,4.6009,,,,,,,,,,,,,,,,,,,,,,,,,,,,,,,
,60512f92ff9e79466ba8d4b8,627c6f567661cada394cd6cb,2022-05-11_21h23.23.389,classification_task,2021.2.3,MacIntel,60.0024001,627c6715c52fd12f31907bd0,,,,,,,,,,,,,,,,,,,,,,,l,1,"[""0.110"",""0.156"",""0.625"",""0.410""]","[1,1,1,0]",0,17,17,17,1,1,1,,,1,FALSE,3.3665,,,,,,,,,,,,,,,,,,,,,,,,,,,,,,,
,60512f92ff9e79466ba8d4b8,627c6f567661cada394cd6cb,2022-05-11_21h23.23.389,classification_task,2021.2.3,MacIntel,60.0024001,627c6715c52fd12f31907bd0,,,,,,,,,,,,,,,,,,,,,,,a,1,"[""0.194"",""0.721"",""0.930"",""0.972""]","[1,0,1,1]",0,18,18,18,1,0,0,,,1,FALSE,4.2814,,,,,,,,,,,,,,,,,,,,,,,,,,,,,,,
,60512f92ff9e79466ba8d4b8,627c6f567661cada394cd6cb,2022-05-11_21h23.23.389,classification_task,2021.2.3,MacIntel,60.0024001,627c6715c52fd12f31907bd0,,,,,,,,,,,,,,,,,,,,,,,l,1,"[""0.418"",""0.156"",""0.625"",""0.684""]","[0,1,1,1]",0,19,19,19,1,1,1,,,1,FALSE,4.1644,,,,,,,,,,,,,,,,,,,,,,,,,,,,,,,
,60512f92ff9e79466ba8d4b8,627c6f567661cada394cd6cb,2022-05-11_21h23.23.389,classification_task,2021.2.3,MacIntel,60.0024001,627c6715c52fd12f31907bd0,,,,,,,,,,,,,,,,,,,,,,,l,1,"[""0.052"",""0.418"",""0.506"",""0.805""]","[1,0,1,1]",0,20,20,20,1,1,0,,,1,FALSE,2.2153,,,,,,,,,,,,,,,,,,,,,,,,,,,,,,,
,60512f92ff9e79466ba8d4b8,627c6f567661cada394cd6cb,2022-05-11_21h23.23.389,classification_task,2021.2.3,MacIntel,60.0024001,627c6715c52fd12f31907bd0,,,,,,,,,,,,,,,,,,,,,,,l,0,"[""0.724"",""0.328"",""0.930"",""0.972""]","[0,1,1,1]",0,21,21,21,1,0,0,,,1,FALSE,4.8852,,,,,,,,,,,,,,,,,,,,,,,,,,,,,,,
,60512f92ff9e79466ba8d4b8,627c6f567661cada394cd6cb,2022-05-11_21h23.23.389,classification_task,2021.2.3,MacIntel,60.0024001,627c6715c52fd12f31907bd0,,,,,,,,,,,,,,,,,,,,,,,l,1,"[""0.052"",""0.266"",""0.506"",""0.764""]","[1,1,1,0]",0,22,22,22,1,1,0,,,1,FALSE,3.619,,,,,,,,,,,,,,,,,,,,,,,,,,,,,,,
,60512f92ff9e79466ba8d4b8,627c6f567661cada394cd6cb,2022-05-11_21h23.23.389,classification_task,2021.2.3,MacIntel,60.0024001,627c6715c52fd12f31907bd0,,,,,,,,,,,,,,,,,,,,,,,l,1,"[""0.110"",""0.741"",""0.625"",""0.684""]","[1,0,1,1]",0,23,23,23,1,1,1,,,1,FALSE,2.2333,,,,,,,,,,,,,,,,,,,,,,,,,,,,,,,
,60512f92ff9e79466ba8d4b8,627c6f567661cada394cd6cb,2022-05-11_21h23.23.389,classification_task,2021.2.3,MacIntel,60.0024001,627c6715c52fd12f31907bd0,,,,,,,,,,,,,,,,,,,,,,,l,1,"[""0.052"",""0.266"",""0.412"",""0.805""]","[1,1,0,1]",0,24,24,24,1,1,0,,,1,FALSE,3.4808,,,,,,,,,,,,,,,,,,,,,,,,,,,,,,,
,60512f92ff9e79466ba8d4b8,627c6f567661cada394cd6cb,2022-05-11_21h23.23.389,classification_task,2021.2.3,MacIntel,60.0024001,627c6715c52fd12f31907bd0,,,,,,,,,,,,,,,,,,,,,,,a,1,"[""0.422"",""0.464"",""0.847"",""0.888""]","[0,1,1,1]",0,25,25,25,1,0,1,,,1,FALSE,3.4645,,,,,,,,,,,,,,,,,,,,,,,,,,,,,,,
,60512f92ff9e79466ba8d4b8,627c6f567661cada394cd6cb,2022-05-11_21h23.23.389,classification_task,2021.2.3,MacIntel,60.0024001,627c6715c52fd12f31907bd0,,,,,,,,,,,,,,,,,,,,,,,a,1,"[""0.230"",""0.464"",""0.847"",""0.422""]","[1,1,1,0]",0,26,26,26,1,0,1,,,1,FALSE,2.5843,,,,,,,,,,,,,,,,,,,,,,,,,,,,,,,
,60512f92ff9e79466ba8d4b8,627c6f567661cada394cd6cb,2022-05-11_21h23.23.389,classification_task,2021.2.3,MacIntel,60.0024001,627c6715c52fd12f31907bd0,,,,,,,,,,,,,,,,,,,,,,,a,1,"[""0.194"",""0.328"",""0.764"",""0.972""]","[1,1,0,1]",0,27,27,27,1,0,0,,,1,FALSE,3.5795,,,,,,,,,,,,,,,,,,,,,,,,,,,,,,,
,60512f92ff9e79466ba8d4b8,627c6f567661cada394cd6cb,2022-05-11_21h23.23.389,classification_task,2021.2.3,MacIntel,60.0024001,627c6715c52fd12f31907bd0,,,,,,,,,,,,,,,,,,,,,,,l,1,"[""0.110"",""0.156"",""0.582"",""0.684""]","[1,1,0,1]",0,28,28,28,1,1,1,,,1,FALSE,3.8978,,,,,,,,,,,,,,,,,,,,,,,,,,,,,,,
,60512f92ff9e79466ba8d4b8,627c6f567661cada394cd6cb,2022-05-11_21h23.23.389,classification_task,2021.2.3,MacIntel,60.0024001,627c6715c52fd12f31907bd0,,,,,,,,,,,,,,,,,,,,,,,a,1,"[""0.230"",""0.582"",""0.847"",""0.888""]","[1,0,1,1]",0,29,29,29,1,0,1,,,1,FALSE,3.1695,,,,,,,,,,,,,,,,,,,,,,,,,,,,,,,
,60512f92ff9e79466ba8d4b8,627c6f567661cada394cd6cb,2022-05-11_21h23.23.389,classification_task,2021.2.3,MacIntel,60.0024001,627c6715c52fd12f31907bd0,,,,,,,,,,,,,,,,,,,,,,,l,0,"[""0.230"",""0.464"",""0.764"",""0.888""]","[1,1,0,1]",0,30,30,30,1,0,1,,,1,FALSE,5.6021,,,,,,,,,,,,,,,,,,,,,,,,,,,,,,,
,60512f92ff9e79466ba8d4b8,627c6f567661cada394cd6cb,2022-05-11_21h23.23.389,classification_task,2021.2.3,MacIntel,60.0024001,627c6715c52fd12f31907bd0,,,,,,,,,,,,,,,,,,,,,,,a,1,"[""0.194"",""0.328"",""0.930"",""0.724""]","[1,1,1,0]",0,31,31,31,1,0,0,,,1,FALSE,5.281,,,,,,,,,,,,,,,,,,,,,,,,,,,,,,,
,60512f92ff9e79466ba8d4b8,627c6f567661cada394cd6cb,2022-05-11_21h23.23.389,classification_task,2021.2.3,MacIntel,60.0024001,627c6715c52fd12f31907bd0,,,,,,,,,,,,,,,,,,,,,,,a,1,"[""0.230"",""0.550"",""0.847"",""0.888""]","[1,0,1,1]",0,32,32,32,1,0,1,,,1,FALSE,4.8655,,,,,,,,,,,,,,,,,,,,,,,,,,,,,,,
,60512f92ff9e79466ba8d4b8,627c6f567661cada394cd6cb,2022-05-11_21h23.23.389,classification_task,2021.2.3,MacIntel,60.0024001,627c6715c52fd12f31907bd0,,,,,,,,,,,,,,,,,,,,,,,a,1,"[""0.422"",""0.328"",""0.930"",""0.972""]","[0,1,1,1]",0,33,33,33,1,0,0,,,1,FALSE,4.9029,,,,,,,,,,,,,,,,,,,,,,,,,,,,,,,
,60512f92ff9e79466ba8d4b8,627c6f567661cada394cd6cb,2022-05-11_21h23.23.389,classification_task,2021.2.3,MacIntel,60.0024001,627c6715c52fd12f31907bd0,,,,,,,,,,,,,,,,,,,,,,,l,1,"[""0.052"",""0.266"",""0.397"",""0.805""]","[1,1,0,1]",0,34,34,34,1,1,0,,,1,FALSE,1.852,,,,,,,,,,,,,,,,,,,,,,,,,,,,,,,
,60512f92ff9e79466ba8d4b8,627c6f567661cada394cd6cb,2022-05-11_21h23.23.389,classification_task,2021.2.3,MacIntel,60.0024001,627c6715c52fd12f31907bd0,,,,,,,,,,,,,,,,,,,,,,,a,0,"[""0.412"",""0.156"",""0.625"",""0.684""]","[0,1,1,1]",0,35,35,35,1,1,1,,,1,FALSE,3.7872,,,,,,,,,,,,,,,,,,,,,,,,,,,,,,,
,60512f92ff9e79466ba8d4b8,627c6f567661cada394cd6cb,2022-05-11_21h23.23.389,classification_task,2021.2.3,MacIntel,60.0024001,627c6715c52fd12f31907bd0,,,,,,,,,,,,,,,,,,,,,,,l,0,"[""0.194"",""0.768"",""0.930"",""0.972""]","[1,0,1,1]",0,36,36,36,1,0,0,,,1,FALSE,2.4371,,,,,,,,,,,,,,,,,,,,,,,,,,,,,,,
,60512f92ff9e79466ba8d4b8,627c6f567661cada394cd6cb,2022-05-11_21h23.23.389,classification_task,2021.2.3,MacIntel,60.0024001,627c6715c52fd12f31907bd0,,,,,,,,,,,,,,,,,,,,,,,l,1,"[""0.052"",""0.266"",""0.506"",""0.417""]","[1,1,1,0]",0,37,37,37,1,1,0,,,1,FALSE,1.3025,,,,,,,,,,,,,,,,,,,,,,,,,,,,,,,
,60512f92ff9e79466ba8d4b8,627c6f567661cada394cd6cb,2022-05-11_21h23.23.389,classification_task,2021.2.3,MacIntel,60.0024001,627c6715c52fd12f31907bd0,,,,,,,,,,,,,,,,,,,,,,,l,1,"[""0.110"",""0.724"",""0.625"",""0.684""]","[1,0,1,1]",0,38,38,38,1,1,1,,,1,FALSE,2.4472,,,,,,,,,,,,,,,,,,,,,,,,,,,,,,,
,60512f92ff9e79466ba8d4b8,627c6f567661cada394cd6cb,2022-05-11_21h23.23.389,classification_task,2021.2.3,MacIntel,60.0024001,627c6715c52fd12f31907bd0,,,,,,,,,,,,,,,,,,,,,,,a,0,"[""0.110"",""0.156"",""0.741"",""0.684""]","[1,1,0,1]",0,39,39,39,1,1,1,,,1,FALSE,4.218,,,,,,,,,,,,,,,,,,,,,,,,,,,,,,,
,60512f92ff9e79466ba8d4b8,627c6f567661cada394cd6cb,2022-05-11_21h23.23.389,classification_task,2021.2.3,MacIntel,60.0024001,627c6715c52fd12f31907bd0,,,,,,,,,,,,,,,,,,,,,,,a,1,"[""0.230"",""0.464"",""0.741"",""0.888""]","[1,1,0,1]",0,40,40,40,1,0,1,,,1,FALSE,4.4349,,,,,,,,,,,,,,,,,,,,,,,,,,,,,,,
,60512f92ff9e79466ba8d4b8,627c6f567661cada394cd6cb,2022-05-11_21h23.23.389,classification_task,2021.2.3,MacIntel,60.0024001,627c6715c52fd12f31907bd0,,,,,,,,,,,,,,,,,,,,,,,l,0,"[""0.194"",""0.328"",""0.930"",""0.418""]","[1,1,1,0]",0,41,41,41,1,0,0,,,1,FALSE,3.6014,,,,,,,,,,,,,,,,,,,,,,,,,,,,,,,
,60512f92ff9e79466ba8d4b8,627c6f567661cada394cd6cb,2022-05-11_21h23.23.389,classification_task,2021.2.3,MacIntel,60.0024001,627c6715c52fd12f31907bd0,,,,,,,,,,,,,,,,,,,,,,,a,1,"[""0.194"",""0.328"",""0.417"",""0.972""]","[1,1,0,1]",0,42,42,42,1,0,0,,,1,FALSE,2.351,,,,,,,,,,,,,,,,,,,,,,,,,,,,,,,
,60512f92ff9e79466ba8d4b8,627c6f567661cada394cd6cb,2022-05-11_21h23.23.389,classification_task,2021.2.3,MacIntel,60.0024001,627c6715c52fd12f31907bd0,,,,,,,,,,,,,,,,,,,,,,,a,1,"[""0.397"",""0.464"",""0.847"",""0.888""]","[0,1,1,1]",0,43,43,43,1,0,1,,,1,FALSE,2.6825,,,,,,,,,,,,,,,,,,,,,,,,,,,,,,,
,60512f92ff9e79466ba8d4b8,627c6f567661cada394cd6cb,2022-05-11_21h23.23.389,classification_task,2021.2.3,MacIntel,60.0024001,627c6715c52fd12f31907bd0,,,,,,,,,,,,,,,,,,,,,,,a,1,"[""0.230"",""0.464"",""0.847"",""0.397""]","[1,1,1,0]",0,44,44,44,1,0,1,,,1,FALSE,3.9496,,,,,,,,,,,,,,,,,,,,,,,,,,,,,,,
,60512f92ff9e79466ba8d4b8,627c6f567661cada394cd6cb,2022-05-11_21h23.23.389,classification_task,2021.2.3,MacIntel,60.0024001,627c6715c52fd12f31907bd0,,,,,,,,,,,,,,,,,,,,,,,l,1,"[""0.110"",""0.156"",""0.625"",""0.752""]","[1,1,1,0]",0,45,45,45,1,1,1,,,1,FALSE,2.7704,,,,,,,,,,,,,,,,,,,,,,,,,,,,,,,
,60512f92ff9e79466ba8d4b8,627c6f567661cada394cd6cb,2022-05-11_21h23.23.389,classification_task,2021.2.3,MacIntel,60.0024001,627c6715c52fd12f31907bd0,,,,,,,,,,,,,,,,,,,,,,,a,0,"[""0.052"",""0.741"",""0.506"",""0.805""]","[1,0,1,1]",0,46,46,46,1,1,0,,,1,FALSE,4.4168,,,,,,,,,,,,,,,,,,,,,,,,,,,,,,,
,60512f92ff9e79466ba8d4b8,627c6f567661cada394cd6cb,2022-05-11_21h23.23.389,classification_task,2021.2.3,MacIntel,60.0024001,627c6715c52fd12f31907bd0,,,,,,,,,,,,,,,,,,,,,,,a,0,"[""0.412"",""0.266"",""0.506"",""0.805""]","[0,1,1,1]",0,47,47,47,1,1,0,,,1,FALSE,3.9187,,,,,,,,,,,,,,,,,,,,,,,,,,,,,,,
,60512f92ff9e79466ba8d4b8,627c6f567661cada394cd6cb,2022-05-11_21h23.23.389,classification_task,2021.2.3,MacIntel,60.0024001,627c6715c52fd12f31907bd0,,,,,,,,,,,,,,,,,,,,,,,l,0,"[""0.422"",""0.464"",""0.847"",""0.888""]","[0,1,1,1]",0,48,48,48,1,0,1,,,1,FALSE,2.8706,,,,,,,,,,,,,,,,,,,,,,,,,,,,,,,
,60512f92ff9e79466ba8d4b8,627c6f567661cada394cd6cb,2022-05-11_21h23.23.389,classification_task,2021.2.3,MacIntel,60.0024001,627c6715c52fd12f31907bd0,,,,,,,,,,,,,,,,,,,,,,,l,1,"[""0.110"",""0.156"",""0.625"",""0.397""]","[1,1,1,0]",0,49,49,49,1,1,1,,,1,FALSE,4.1529,,,,,,,,,,,,,,,,,,,,,,,,,,,,,,,
,60512f92ff9e79466ba8d4b8,627c6f567661cada394cd6cb,2022-05-11_21h23.23.389,classification_task,2021.2.3,MacIntel,60.0024001,627c6715c52fd12f31907bd0,,,,,,,,,,,,,,,,,,,,,,,a,1,"[""0.194"",""0.328"",""0.562"",""0.972""]","[1,1,0,1]",0,50,50,50,1,0,0,,,1,FALSE,4.7867,,,,,,,,,,,,,,,,,,,,,,,,,,,,,,,
,60512f92ff9e79466ba8d4b8,627c6f567661cada394cd6cb,2022-05-11_21h23.23.389,classification_task,2021.2.3,MacIntel,60.0024001,627c6715c52fd12f31907bd0,,,,,,,,,,,,,,,,,,,,,,,a,1,"[""0.194"",""0.328"",""0.930"",""0.410""]","[1,1,1,0]",0,51,51,51,1,0,0,,,1,FALSE,2.8533,,,,,,,,,,,,,,,,,,,,,,,,,,,,,,,
,60512f92ff9e79466ba8d4b8,627c6f567661cada394cd6cb,2022-05-11_21h23.23.389,classification_task,2021.2.3,MacIntel,60.0024001,627c6715c52fd12f31907bd0,,,,,,,,,,,,,,,,,,,,,,,a,0,"[""0.052"",""0.266"",""0.764"",""0.805""]","[1,1,0,1]",0,52,52,52,1,1,0,,,1,FALSE,3.6672,,,,,,,,,,,,,,,,,,,,,,,,,,,,,,,
,60512f92ff9e79466ba8d4b8,627c6f567661cada394cd6cb,2022-05-11_21h23.23.389,classification_task,2021.2.3,MacIntel,60.0024001,627c6715c52fd12f31907bd0,,,,,,,,,,,,,,,,,,,,,,,l,1,"[""0.052"",""0.412"",""0.506"",""0.805""]","[1,0,1,1]",0,53,53,53,1,1,0,,,1,FALSE,1.0863,,,,,,,,,,,,,,,,,,,,,,,,,,,,,,,
,60512f92ff9e79466ba8d4b8,627c6f567661cada394cd6cb,2022-05-11_21h23.23.389,classification_task,2021.2.3,MacIntel,60.0024001,627c6715c52fd12f31907bd0,,,,,,,,,,,,,,,,,,,,,,,a,0,"[""0.110"",""0.156"",""0.582"",""0.684""]","[1,1,0,1]",0,54,54,54,1,1,1,,,1,FALSE,1.2983,,,,,,,,,,,,,,,,,,,,,,,,,,,,,,,
,60512f92ff9e79466ba8d4b8,627c6f567661cada394cd6cb,2022-05-11_21h23.23.389,classification_task,2021.2.3,MacIntel,60.0024001,627c6715c52fd12f31907bd0,,,,,,,,,,,,,,,,,,,,,,,l,0,"[""0.230"",""0.464"",""0.562"",""0.888""]","[1,1,0,1]",0,55,55,55,1,0,1,,,1,FALSE,1.1007,,,,,,,,,,,,,,,,,,,,,,,,,,,,,,,
,60512f92ff9e79466ba8d4b8,627c6f567661cada394cd6cb,2022-05-11_21h23.23.389,classification_task,2021.2.3,MacIntel,60.0024001,627c6715c52fd12f31907bd0,,,,,,,,,,,,,,,,,,,,,,,l,0,"[""0.230"",""0.464"",""0.847"",""0.422""]","[1,1,1,0]",0,56,56,56,1,0,1,,,1,FALSE,0.849,,,,,,,,,,,,,,,,,,,,,,,,,,,,,,,
,60512f92ff9e79466ba8d4b8,627c6f567661cada394cd6cb,2022-05-11_21h23.23.389,classification_task,2021.2.3,MacIntel,60.0024001,627c6715c52fd12f31907bd0,,,,,,,,,,,,,,,,,,,,,,,a,1,"[""0.230"",""0.418"",""0.847"",""0.888""]","[1,0,1,1]",0,57,57,57,1,0,1,,,1,FALSE,0.7164,,,,,,,,,,,,,,,,,,,,,,,,,,,,,,,
,60512f92ff9e79466ba8d4b8,627c6f567661cada394cd6cb,2022-05-11_21h23.23.389,classification_task,2021.2.3,MacIntel,60.0024001,627c6715c52fd12f31907bd0,,,,,,,,,,,,,,,,,,,,,,,a,0,"[""0.052"",""0.266"",""0.506"",""0.556""]","[1,1,1,0]",0,58,58,58,1,1,0,,,1,FALSE,3.0151,,,,,,,,,,,,,,,,,,,,,,,,,,,,,,,
,60512f92ff9e79466ba8d4b8,627c6f567661cada394cd6cb,2022-05-11_21h23.23.389,classification_task,2021.2.3,MacIntel,60.0024001,627c6715c52fd12f31907bd0,,,,,,,,,,,,,,,,,,,,,,,a,1,"[""0.556"",""0.328"",""0.930"",""0.972""]","[0,1,1,1]",0,59,59,59,1,0,0,,,1,FALSE,3.6854,,,,,,,,,,,,,,,,,,,,,,,,,,,,,,,
,60512f92ff9e79466ba8d4b8,627c6f567661cada394cd6cb,2022-05-11_21h23.23.389,classification_task,2021.2.3,MacIntel,60.0024001,627c6715c52fd12f31907bd0,,,,,,,,,,,,,,,,,,,,,,,a,0,"[""0.417"",""0.266"",""0.506"",""0.805""]","[0,1,1,1]",0,60,60,60,1,1,0,,,1,FALSE,3.568,,,,,,,,,,,,,,,,,,,,,,,,,,,,,,,
,60512f92ff9e79466ba8d4b8,627c6f567661cada394cd6cb,2022-05-11_21h23.23.389,classification_task,2021.2.3,MacIntel,60.0024001,627c6715c52fd12f31907bd0,,,,,,,,,,,,,,,,,,,,,,,l,1,"[""0.556"",""0.156"",""0.625"",""0.684""]","[0,1,1,1]",0,61,61,61,1,1,1,,,1,FALSE,4.3521,,,,,,,,,,,,,,,,,,,,,,,,,,,,,,,
,60512f92ff9e79466ba8d4b8,627c6f567661cada394cd6cb,2022-05-11_21h23.23.389,classification_task,2021.2.3,MacIntel,60.0024001,627c6715c52fd12f31907bd0,,,,,,,,,,,,,,,,,,,,,,,l,1,"[""0.110"",""0.562"",""0.625"",""0.684""]","[1,0,1,1]",0,62,62,62,1,1,1,,,1,FALSE,0.8848,,,,,,,,,,,,,,,,,,,,,,,,,,,,,,,
,60512f92ff9e79466ba8d4b8,627c6f567661cada394cd6cb,2022-05-11_21h23.23.389,classification_task,2021.2.3,MacIntel,60.0024001,627c6715c52fd12f31907bd0,,,,,,,,,,,,,,,,,,,,,,,a,1,"[""0.194"",""0.741"",""0.930"",""0.972""]","[1,0,1,1]",0,63,63,63,1,0,0,,,1,FALSE,2.0653,,,,,,,,,,,,,,,,,,,,,,,,,,,,,,,
,60512f92ff9e79466ba8d4b8,627c6f567661cada394cd6cb,2022-05-11_21h23.23.389,classification_task,2021.2.3,MacIntel,60.0024001,627c6715c52fd12f31907bd0,,,,,,,,,,,,,,,,,,,,,,,,,,,,,,,,,,,,,,,0, ,,0,7.859157986,594.8055,0,0,0,0,1,2,1,,,,,,,,,,,,,,,,,,
,60512f92ff9e79466ba8d4b8,627c6f567661cada394cd6cb,2022-05-11_21h23.23.389,classification_task,2021.2.3,MacIntel,60.0024001,627c6715c52fd12f31907bd0,,,,,,,,,,,,,,,,,,,,,,,,,,,,,,,,,,,,,,,1,  ,,0,8.609147652,599.4196,0,0,0,0,1,2,1,,,,,,,,,,,,,,,,,,
,60512f92ff9e79466ba8d4b8,627c6f567661cada394cd6cb,2022-05-11_21h23.23.389,classification_task,2021.2.3,MacIntel,60.0024001,627c6715c52fd12f31907bd0,,,,,,,,,,,,,,,,,,,,,,,,,,,,,,,,,,,,,,,2,  ,,0,7.878792576,603.9018,0,0,0,0,1,2,1,,,,,,,,,,,,,,,,,,
,60512f92ff9e79466ba8d4b8,627c6f567661cada394cd6cb,2022-05-11_21h23.23.389,classification_task,2021.2.3,MacIntel,60.0024001,627c6715c52fd12f31907bd0,,,,,,,,,,,,,,,,,,,,,,,,,,,,,,,,,,,,,,,,,,,,,0,0,0,0,1,,1,,,,,,,,,,,,,,,,,,
,60512f92ff9e79466ba8d4b8,627c6f567661cada394cd6cb,2022-05-11_21h23.23.389,classification_task,2021.2.3,MacIntel,60.0024001,627c6715c52fd12f31907bd0,,,,,,,,,,,,,,,,,,,,,space,32.6996,a,1,"[""0.230"",""0.582"",""0.847"",""0.888""]","[1,0,1,1]",0,0,0,0,1,0,1,,,1,FALSE,2.2424,,,,,,,,,,,,,,,,,,,,,,,,,,,,,,,
,60512f92ff9e79466ba8d4b8,627c6f567661cada394cd6cb,2022-05-11_21h23.23.389,classification_task,2021.2.3,MacIntel,60.0024001,627c6715c52fd12f31907bd0,,,,,,,,,,,,,,,,,,,,,,,l,1,"[""0.110"",""0.156"",""0.582"",""0.684""]","[1,1,0,1]",0,1,1,1,1,1,1,,,1,FALSE,0.9136,,,,,,,,,,,,,,,,,,,,,,,,,,,,,,,
,60512f92ff9e79466ba8d4b8,627c6f567661cada394cd6cb,2022-05-11_21h23.23.389,classification_task,2021.2.3,MacIntel,60.0024001,627c6715c52fd12f31907bd0,,,,,,,,,,,,,,,,,,,,,,,a,1,"[""0.230"",""0.464"",""0.847"",""0.752""]","[1,1,1,0]",0,2,2,2,1,0,1,,,1,FALSE,0.4974,,,,,,,,,,,,,,,,,,,,,,,,,,,,,,,
,60512f92ff9e79466ba8d4b8,627c6f567661cada394cd6cb,2022-05-11_21h23.23.389,classification_task,2021.2.3,MacIntel,60.0024001,627c6715c52fd12f31907bd0,,,,,,,,,,,,,,,,,,,,,,,a,1,"[""0.194"",""0.328"",""0.741"",""0.972""]","[1,1,0,1]",0,3,3,3,1,0,0,,,1,FALSE,1.9754,,,,,,,,,,,,,,,,,,,,,,,,,,,,,,,
,60512f92ff9e79466ba8d4b8,627c6f567661cada394cd6cb,2022-05-11_21h23.23.389,classification_task,2021.2.3,MacIntel,60.0024001,627c6715c52fd12f31907bd0,,,,,,,,,,,,,,,,,,,,,,,l,1,"[""0.110"",""0.156"",""0.625"",""0.768""]","[1,1,1,0]",0,4,4,4,1,1,1,,,1,FALSE,2.5078,,,,,,,,,,,,,,,,,,,,,,,,,,,,,,,
,60512f92ff9e79466ba8d4b8,627c6f567661cada394cd6cb,2022-05-11_21h23.23.389,classification_task,2021.2.3,MacIntel,60.0024001,627c6715c52fd12f31907bd0,,,,,,,,,,,,,,,,,,,,,,,l,0,"[""0.194"",""0.328"",""0.930"",""0.412""]","[1,1,1,0]",0,5,5,5,1,0,0,,,1,FALSE,1.0641,,,,,,,,,,,,,,,,,,,,,,,,,,,,,,,
,60512f92ff9e79466ba8d4b8,627c6f567661cada394cd6cb,2022-05-11_21h23.23.389,classification_task,2021.2.3,MacIntel,60.0024001,627c6715c52fd12f31907bd0,,,,,,,,,,,,,,,,,,,,,,,a,1,"[""0.194"",""0.550"",""0.930"",""0.972""]","[1,0,1,1]",0,6,6,6,1,0,0,,,1,FALSE,1.4316,,,,,,,,,,,,,,,,,,,,,,,,,,,,,,,
,60512f92ff9e79466ba8d4b8,627c6f567661cada394cd6cb,2022-05-11_21h23.23.389,classification_task,2021.2.3,MacIntel,60.0024001,627c6715c52fd12f31907bd0,,,,,,,,,,,,,,,,,,,,,,,a,0,"[""0.052"",""0.768"",""0.506"",""0.805""]","[1,0,1,1]",0,7,7,7,1,1,0,,,1,FALSE,0.9976,,,,,,,,,,,,,,,,,,,,,,,,,,,,,,,
,60512f92ff9e79466ba8d4b8,627c6f567661cada394cd6cb,2022-05-11_21h23.23.389,classification_task,2021.2.3,MacIntel,60.0024001,627c6715c52fd12f31907bd0,,,,,,,,,,,,,,,,,,,,,,,l,1,"[""0.052"",""0.266"",""0.768"",""0.805""]","[1,1,0,1]",0,8,8,8,1,1,0,,,1,FALSE,0.9499,,,,,,,,,,,,,,,,,,,,,,,,,,,,,,,
,60512f92ff9e79466ba8d4b8,627c6f567661cada394cd6cb,2022-05-11_21h23.23.389,classification_task,2021.2.3,MacIntel,60.0024001,627c6715c52fd12f31907bd0,,,,,,,,,,,,,,,,,,,,,,,l,0,"[""0.752"",""0.328"",""0.930"",""0.972""]","[0,1,1,1]",0,9,9,9,1,0,0,,,1,FALSE,1.3292,,,,,,,,,,,,,,,,,,,,,,,,,,,,,,,
,60512f92ff9e79466ba8d4b8,627c6f567661cada394cd6cb,2022-05-11_21h23.23.389,classification_task,2021.2.3,MacIntel,60.0024001,627c6715c52fd12f31907bd0,,,,,,,,,,,,,,,,,,,,,,,l,1,"[""0.052"",""0.266"",""0.506"",""0.550""]","[1,1,1,0]",0,10,10,10,1,1,0,,,1,FALSE,1.7823,,,,,,,,,,,,,,,,,,,,,,,,,,,,,,,
,60512f92ff9e79466ba8d4b8,627c6f567661cada394cd6cb,2022-05-11_21h23.23.389,classification_task,2021.2.3,MacIntel,60.0024001,627c6715c52fd12f31907bd0,,,,,,,,,,,,,,,,,,,,,,,a,1,"[""0.422"",""0.464"",""0.847"",""0.888""]","[0,1,1,1]",0,11,11,11,1,0,1,,,1,FALSE,2.676,,,,,,,,,,,,,,,,,,,,,,,,,,,,,,,
,60512f92ff9e79466ba8d4b8,627c6f567661cada394cd6cb,2022-05-11_21h23.23.389,classification_task,2021.2.3,MacIntel,60.0024001,627c6715c52fd12f31907bd0,,,,,,,,,,,,,,,,,,,,,,,l,1,"[""0.110"",""0.764"",""0.625"",""0.684""]","[1,0,1,1]",0,12,12,12,1,1,1,,,1,FALSE,2.5509,,,,,,,,,,,,,,,,,,,,,,,,,,,,,,,
,60512f92ff9e79466ba8d4b8,627c6f567661cada394cd6cb,2022-05-11_21h23.23.389,classification_task,2021.2.3,MacIntel,60.0024001,627c6715c52fd12f31907bd0,,,,,,,,,,,,,,,,,,,,,,,l,1,"[""0.417"",""0.266"",""0.506"",""0.805""]","[0,1,1,1]",0,13,13,13,1,1,0,,,1,FALSE,2.9319,,,,,,,,,,,,,,,,,,,,,,,,,,,,,,,
,60512f92ff9e79466ba8d4b8,627c6f567661cada394cd6cb,2022-05-11_21h23.23.389,classification_task,2021.2.3,MacIntel,60.0024001,627c6715c52fd12f31907bd0,,,,,,,,,,,,,,,,,,,,,,,l,1,"[""0.422"",""0.156"",""0.625"",""0.684""]","[0,1,1,1]",0,14,14,14,1,1,1,,,1,FALSE,4.1318,,,,,,,,,,,,,,,,,,,,,,,,,,,,,,,
,60512f92ff9e79466ba8d4b8,627c6f567661cada394cd6cb,2022-05-11_21h23.23.389,classification_task,2021.2.3,MacIntel,60.0024001,627c6715c52fd12f31907bd0,,,,,,,,,,,,,,,,,,,,,,,a,1,"[""0.230"",""0.464"",""0.418"",""0.888""]","[1,1,0,1]",0,15,15,15,1,0,1,,,1,FALSE,1.2004,,,,,,,,,,,,,,,,,,,,,,,,,,,,,,,
,60512f92ff9e79466ba8d4b8,627c6f567661cada394cd6cb,2022-05-11_21h23.23.389,classification_task,2021.2.3,MacIntel,60.0024001,627c6715c52fd12f31907bd0,,,,,,,,,,,,,,,,,,,,,,,l,0,"[""0.422"",""0.328"",""0.930"",""0.972""]","[0,1,1,1]",0,16,16,16,1,0,0,,,1,FALSE,1.9955,,,,,,,,,,,,,,,,,,,,,,,,,,,,,,,
,60512f92ff9e79466ba8d4b8,627c6f567661cada394cd6cb,2022-05-11_21h23.23.389,classification_task,2021.2.3,MacIntel,60.0024001,627c6715c52fd12f31907bd0,,,,,,,,,,,,,,,,,,,,,,,a,1,"[""0.230"",""0.412"",""0.847"",""0.888""]","[1,0,1,1]",0,17,17,17,1,0,1,,,1,FALSE,2.0142,,,,,,,,,,,,,,,,,,,,,,,,,,,,,,,
,60512f92ff9e79466ba8d4b8,627c6f567661cada394cd6cb,2022-05-11_21h23.23.389,classification_task,2021.2.3,MacIntel,60.0024001,627c6715c52fd12f31907bd0,,,,,,,,,,,,,,,,,,,,,,,l,1,"[""0.764"",""0.156"",""0.625"",""0.684""]","[0,1,1,1]",0,18,18,18,1,1,1,,,1,FALSE,1.0638,,,,,,,,,,,,,,,,,,,,,,,,,,,,,,,
,60512f92ff9e79466ba8d4b8,627c6f567661cada394cd6cb,2022-05-11_21h23.23.389,classification_task,2021.2.3,MacIntel,60.0024001,627c6715c52fd12f31907bd0,,,,,,,,,,,,,,,,,,,,,,,l,0,"[""0.230"",""0.464"",""0.741"",""0.888""]","[1,1,0,1]",0,19,19,19,1,0,1,,,1,FALSE,1.4813,,,,,,,,,,,,,,,,,,,,,,,,,,,,,,,
,60512f92ff9e79466ba8d4b8,627c6f567661cada394cd6cb,2022-05-11_21h23.23.389,classification_task,2021.2.3,MacIntel,60.0024001,627c6715c52fd12f31907bd0,,,,,,,,,,,,,,,,,,,,,,,l,0,"[""0.194"",""0.724"",""0.930"",""0.972""]","[1,0,1,1]",0,20,20,20,1,0,0,,,1,FALSE,3.9493,,,,,,,,,,,,,,,,,,,,,,,,,,,,,,,
,60512f92ff9e79466ba8d4b8,627c6f567661cada394cd6cb,2022-05-11_21h23.23.389,classification_task,2021.2.3,MacIntel,60.0024001,627c6715c52fd12f31907bd0,,,,,,,,,,,,,,,,,,,,,,,a,0,"[""0.052"",""0.266"",""0.752"",""0.805""]","[1,1,0,1]",0,21,21,21,1,1,0,,,1,FALSE,0.9006,,,,,,,,,,,,,,,,,,,,,,,,,,,,,,,
,60512f92ff9e79466ba8d4b8,627c6f567661cada394cd6cb,2022-05-11_21h23.23.389,classification_task,2021.2.3,MacIntel,60.0024001,627c6715c52fd12f31907bd0,,,,,,,,,,,,,,,,,,,,,,,l,1,"[""0.052"",""0.266"",""0.506"",""0.418""]","[1,1,1,0]",0,22,22,22,1,1,0,,,1,FALSE,0.569,,,,,,,,,,,,,,,,,,,,,,,,,,,,,,,
,60512f92ff9e79466ba8d4b8,627c6f567661cada394cd6cb,2022-05-11_21h23.23.389,classification_task,2021.2.3,MacIntel,60.0024001,627c6715c52fd12f31907bd0,,,,,,,,,,,,,,,,,,,,,,,l,1,"[""0.110"",""0.752"",""0.625"",""0.684""]","[1,0,1,1]",0,23,23,23,1,1,1,,,1,FALSE,1.4084,,,,,,,,,,,,,,,,,,,,,,,,,,,,,,,
,60512f92ff9e79466ba8d4b8,627c6f567661cada394cd6cb,2022-05-11_21h23.23.389,classification_task,2021.2.3,MacIntel,60.0024001,627c6715c52fd12f31907bd0,,,,,,,,,,,,,,,,,,,,,,,l,1,"[""0.110"",""0.156"",""0.625"",""0.562""]","[1,1,1,0]",0,24,24,24,1,1,1,,,1,FALSE,3.7152,,,,,,,,,,,,,,,,,,,,,,,,,,,,,,,
,60512f92ff9e79466ba8d4b8,627c6f567661cada394cd6cb,2022-05-11_21h23.23.389,classification_task,2021.2.3,MacIntel,60.0024001,627c6715c52fd12f31907bd0,,,,,,,,,,,,,,,,,,,,,,,a,1,"[""0.410"",""0.464"",""0.847"",""0.888""]","[0,1,1,1]",0,25,25,25,1,0,1,,,1,FALSE,1.935,,,,,,,,,,,,,,,,,,,,,,,,,,,,,,,
,60512f92ff9e79466ba8d4b8,627c6f567661cada394cd6cb,2022-05-11_21h23.23.389,classification_task,2021.2.3,MacIntel,60.0024001,627c6715c52fd12f31907bd0,,,,,,,,,,,,,,,,,,,,,,,l,0,"[""0.194"",""0.328"",""0.930"",""0.417""]","[1,1,1,0]",0,26,26,26,1,0,0,,,1,FALSE,2.235,,,,,,,,,,,,,,,,,,,,,,,,,,,,,,,
,60512f92ff9e79466ba8d4b8,627c6f567661cada394cd6cb,2022-05-11_21h23.23.389,classification_task,2021.2.3,MacIntel,60.0024001,627c6715c52fd12f31907bd0,,,,,,,,,,,,,,,,,,,,,,,a,1,"[""0.194"",""0.328"",""0.418"",""0.972""]","[1,1,0,1]",0,27,27,27,1,0,0,,,1,FALSE,0.6003,,,,,,,,,,,,,,,,,,,,,,,,,,,,,,,
,60512f92ff9e79466ba8d4b8,627c6f567661cada394cd6cb,2022-05-11_21h23.23.389,classification_task,2021.2.3,MacIntel,60.0024001,627c6715c52fd12f31907bd0,,,,,,,,,,,,,,,,,,,,,,,l,1,"[""0.110"",""0.156"",""0.550"",""0.684""]","[1,1,0,1]",0,28,28,28,1,1,1,,,1,FALSE,2.726,,,,,,,,,,,,,,,,,,,,,,,,,,,,,,,
,60512f92ff9e79466ba8d4b8,627c6f567661cada394cd6cb,2022-05-11_21h23.23.389,classification_task,2021.2.3,MacIntel,60.0024001,627c6715c52fd12f31907bd0,,,,,,,,,,,,,,,,,,,,,,,a,0,"[""0.052"",""0.418"",""0.506"",""0.805""]","[1,0,1,1]",0,29,29,29,1,1,0,,,1,FALSE,1.4333,,,,,,,,,,,,,,,,,,,,,,,,,,,,,,,
,60512f92ff9e79466ba8d4b8,627c6f567661cada394cd6cb,2022-05-11_21h23.23.389,classification_task,2021.2.3,MacIntel,60.0024001,627c6715c52fd12f31907bd0,,,,,,,,,,,,,,,,,,,,,,,l,1,"[""0.764"",""0.266"",""0.506"",""0.805""]","[0,1,1,1]",0,30,30,30,1,1,0,,,1,FALSE,0.8161,,,,,,,,,,,,,,,,,,,,,,,,,,,,,,,
,60512f92ff9e79466ba8d4b8,627c6f567661cada394cd6cb,2022-05-11_21h23.23.389,classification_task,2021.2.3,MacIntel,60.0024001,627c6715c52fd12f31907bd0,,,,,,,,,,,,,,,,,,,,,,,a,1,"[""0.230"",""0.464"",""0.847"",""0.418""]","[1,1,1,0]",0,31,31,31,1,0,1,,,1,FALSE,3.6947,,,,,,,,,,,,,,,,,,,,,,,,,,,,,,,
,60512f92ff9e79466ba8d4b8,627c6f567661cada394cd6cb,2022-05-11_21h23.23.389,classification_task,2021.2.3,MacIntel,60.0024001,627c6715c52fd12f31907bd0,,,,,,,,,,,,,,,,,,,,,,,l,1,"[""0.110"",""0.156"",""0.625"",""0.752""]","[1,1,1,0]",0,32,32,32,1,1,1,,,1,FALSE,3.0507,,,,,,,,,,,,,,,,,,,,,,,,,,,,,,,
,60512f92ff9e79466ba8d4b8,627c6f567661cada394cd6cb,2022-05-11_21h23.23.389,classification_task,2021.2.3,MacIntel,60.0024001,627c6715c52fd12f31907bd0,,,,,,,,,,,,,,,,,,,,,,,l,0,"[""0.230"",""0.464"",""0.847"",""0.752""]","[1,1,1,0]",0,33,33,33,1,0,1,,,1,FALSE,4.5176,,,,,,,,,,,,,,,,,,,,,,,,,,,,,,,
,60512f92ff9e79466ba8d4b8,627c6f567661cada394cd6cb,2022-05-11_21h23.23.389,classification_task,2021.2.3,MacIntel,60.0024001,627c6715c52fd12f31907bd0,,,,,,,,,,,,,,,,,,,,,,,a,1,"[""0.194"",""0.550"",""0.930"",""0.972""]","[1,0,1,1]",0,34,34,34,1,0,0,,,1,FALSE,1.6004,,,,,,,,,,,,,,,,,,,,,,,,,,,,,,,
,60512f92ff9e79466ba8d4b8,627c6f567661cada394cd6cb,2022-05-11_21h23.23.389,classification_task,2021.2.3,MacIntel,60.0024001,627c6715c52fd12f31907bd0,,,,,,,,,,,,,,,,,,,,,,,a,0,"[""0.052"",""0.562"",""0.506"",""0.805""]","[1,0,1,1]",0,35,35,35,1,1,0,,,1,FALSE,1.5654,,,,,,,,,,,,,,,,,,,,,,,,,,,,,,,
,60512f92ff9e79466ba8d4b8,627c6f567661cada394cd6cb,2022-05-11_21h23.23.389,classification_task,2021.2.3,MacIntel,60.0024001,627c6715c52fd12f31907bd0,,,,,,,,,,,,,,,,,,,,,,,l,1,"[""0.052"",""0.266"",""0.506"",""0.752""]","[1,1,1,0]",0,36,36,36,1,1,0,,,1,FALSE,0.8157,,,,,,,,,,,,,,,,,,,,,,,,,,,,,,,
,60512f92ff9e79466ba8d4b8,627c6f567661cada394cd6cb,2022-05-11_21h23.23.389,classification_task,2021.2.3,MacIntel,60.0024001,627c6715c52fd12f31907bd0,,,,,,,,,,,,,,,,,,,,,,,a,1,"[""0.764"",""0.464"",""0.847"",""0.888""]","[0,1,1,1]",0,37,37,37,1,0,1,,,1,FALSE,0.9746,,,,,,,,,,,,,,,,,,,,,,,,,,,,,,,
,60512f92ff9e79466ba8d4b8,627c6f567661cada394cd6cb,2022-05-11_21h23.23.389,classification_task,2021.2.3,MacIntel,60.0024001,627c6715c52fd12f31907bd0,,,,,,,,,,,,,,,,,,,,,,,a,1,"[""0.230"",""0.397"",""0.847"",""0.888""]","[1,0,1,1]",0,38,38,38,1,0,1,,,1,FALSE,0.5654,,,,,,,,,,,,,,,,,,,,,,,,,,,,,,,
,60512f92ff9e79466ba8d4b8,627c6f567661cada394cd6cb,2022-05-11_21h23.23.389,classification_task,2021.2.3,MacIntel,60.0024001,627c6715c52fd12f31907bd0,,,,,,,,,,,,,,,,,,,,,,,a,1,"[""0.230"",""0.464"",""0.768"",""0.888""]","[1,1,0,1]",0,39,39,39,1,0,1,,,1,FALSE,0.9829,,,,,,,,,,,,,,,,,,,,,,,,,,,,,,,
,60512f92ff9e79466ba8d4b8,627c6f567661cada394cd6cb,2022-05-11_21h23.23.389,classification_task,2021.2.3,MacIntel,60.0024001,627c6715c52fd12f31907bd0,,,,,,,,,,,,,,,,,,,,,,,a,1,"[""0.194"",""0.328"",""0.930"",""0.556""]","[1,1,1,0]",0,40,40,40,1,0,0,,,1,FALSE,0.8597,,,,,,,,,,,,,,,,,,,,,,,,,,,,,,,
,60512f92ff9e79466ba8d4b8,627c6f567661cada394cd6cb,2022-05-11_21h23.23.389,classification_task,2021.2.3,MacIntel,60.0024001,627c6715c52fd12f31907bd0,,,,,,,,,,,,,,,,,,,,,,,a,1,"[""0.194"",""0.328"",""0.422"",""0.972""]","[1,1,0,1]",0,41,41,41,1,0,0,,,1,FALSE,0.5296,,,,,,,,,,,,,,,,,,,,,,,,,,,,,,,
,60512f92ff9e79466ba8d4b8,627c6f567661cada394cd6cb,2022-05-11_21h23.23.389,classification_task,2021.2.3,MacIntel,60.0024001,627c6715c52fd12f31907bd0,,,,,,,,,,,,,,,,,,,,,,,a,0,"[""0.724"",""0.266"",""0.506"",""0.805""]","[0,1,1,1]",0,42,42,42,1,1,0,,,1,FALSE,0.814,,,,,,,,,,,,,,,,,,,,,,,,,,,,,,,
,60512f92ff9e79466ba8d4b8,627c6f567661cada394cd6cb,2022-05-11_21h23.23.389,classification_task,2021.2.3,MacIntel,60.0024001,627c6715c52fd12f31907bd0,,,,,,,,,,,,,,,,,,,,,,,l,1,"[""0.052"",""0.266"",""0.422"",""0.805""]","[1,1,0,1]",0,43,43,43,1,1,0,,,1,FALSE,0.7976,,,,,,,,,,,,,,,,,,,,,,,,,,,,,,,
,60512f92ff9e79466ba8d4b8,627c6f567661cada394cd6cb,2022-05-11_21h23.23.389,classification_task,2021.2.3,MacIntel,60.0024001,627c6715c52fd12f31907bd0,,,,,,,,,,,,,,,,,,,,,,,l,1,"[""0.110"",""0.156"",""0.417"",""0.684""]","[1,1,0,1]",0,44,44,44,1,1,1,,,1,FALSE,1.6084,,,,,,,,,,,,,,,,,,,,,,,,,,,,,,,
,60512f92ff9e79466ba8d4b8,627c6f567661cada394cd6cb,2022-05-11_21h23.23.389,classification_task,2021.2.3,MacIntel,60.0024001,627c6715c52fd12f31907bd0,,,,,,,,,,,,,,,,,,,,,,,l,0,"[""0.768"",""0.328"",""0.930"",""0.972""]","[0,1,1,1]",0,45,45,45,1,0,0,,,1,FALSE,1.1305,,,,,,,,,,,,,,,,,,,,,,,,,,,,,,,
,60512f92ff9e79466ba8d4b8,627c6f567661cada394cd6cb,2022-05-11_21h23.23.389,classification_task,2021.2.3,MacIntel,60.0024001,627c6715c52fd12f31907bd0,,,,,,,,,,,,,,,,,,,,,,,l,1,"[""0.110"",""0.417"",""0.625"",""0.684""]","[1,0,1,1]",0,46,46,46,1,1,1,,,1,FALSE,1.0907,,,,,,,,,,,,,,,,,,,,,,,,,,,,,,,
,60512f92ff9e79466ba8d4b8,627c6f567661cada394cd6cb,2022-05-11_21h23.23.389,classification_task,2021.2.3,MacIntel,60.0024001,627c6715c52fd12f31907bd0,,,,,,,,,,,,,,,,,,,,,,,l,1,"[""0.417"",""0.156"",""0.625"",""0.684""]","[0,1,1,1]",0,47,47,47,1,1,1,,,1,FALSE,0.9466,,,,,,,,,,,,,,,,,,,,,,,,,,,,,,,
,60512f92ff9e79466ba8d4b8,627c6f567661cada394cd6cb,2022-05-11_21h23.23.389,classification_task,2021.2.3,MacIntel,60.0024001,627c6715c52fd12f31907bd0,,,,,,,,,,,,,,,,,,,,,,,l,1,"[""0.110"",""0.562"",""0.625"",""0.684""]","[1,0,1,1]",0,48,48,48,1,1,1,,,1,FALSE,1.031,,,,,,,,,,,,,,,,,,,,,,,,,,,,,,,
,60512f92ff9e79466ba8d4b8,627c6f567661cada394cd6cb,2022-05-11_21h23.23.389,classification_task,2021.2.3,MacIntel,60.0024001,627c6715c52fd12f31907bd0,,,,,,,,,,,,,,,,,,,,,,,a,1,"[""0.412"",""0.464"",""0.847"",""0.888""]","[0,1,1,1]",0,49,49,49,1,0,1,,,1,FALSE,1.0305,,,,,,,,,,,,,,,,,,,,,,,,,,,,,,,
,60512f92ff9e79466ba8d4b8,627c6f567661cada394cd6cb,2022-05-11_21h23.23.389,classification_task,2021.2.3,MacIntel,60.0024001,627c6715c52fd12f31907bd0,,,,,,,,,,,,,,,,,,,,,,,a,1,"[""0.230"",""0.464"",""0.847"",""0.417""]","[1,1,1,0]",0,50,50,50,1,0,1,,,1,FALSE,0.9311,,,,,,,,,,,,,,,,,,,,,,,,,,,,,,,
,60512f92ff9e79466ba8d4b8,627c6f567661cada394cd6cb,2022-05-11_21h23.23.389,classification_task,2021.2.3,MacIntel,60.0024001,627c6715c52fd12f31907bd0,,,,,,,,,,,,,,,,,,,,,,,l,1,"[""0.110"",""0.156"",""0.741"",""0.684""]","[1,1,0,1]",0,51,51,51,1,1,1,,,1,FALSE,0.8466,,,,,,,,,,,,,,,,,,,,,,,,,,,,,,,
,60512f92ff9e79466ba8d4b8,627c6f567661cada394cd6cb,2022-05-11_21h23.23.389,classification_task,2021.2.3,MacIntel,60.0024001,627c6715c52fd12f31907bd0,,,,,,,,,,,,,,,,,,,,,,,a,1,"[""0.230"",""0.464"",""0.562"",""0.888""]","[1,1,0,1]",0,52,52,52,1,0,1,,,1,FALSE,0.9816,,,,,,,,,,,,,,,,,,,,,,,,,,,,,,,
,60512f92ff9e79466ba8d4b8,627c6f567661cada394cd6cb,2022-05-11_21h23.23.389,classification_task,2021.2.3,MacIntel,60.0024001,627c6715c52fd12f31907bd0,,,,,,,,,,,,,,,,,,,,,,,a,1,"[""0.417"",""0.328"",""0.930"",""0.972""]","[0,1,1,1]",0,53,53,53,1,0,0,,,1,FALSE,1.8754,,,,,,,,,,,,,,,,,,,,,,,,,,,,,,,
,60512f92ff9e79466ba8d4b8,627c6f567661cada394cd6cb,2022-05-11_21h23.23.389,classification_task,2021.2.3,MacIntel,60.0024001,627c6715c52fd12f31907bd0,,,,,,,,,,,,,,,,,,,,,,,l,0,"[""0.194"",""0.328"",""0.741"",""0.972""]","[1,1,0,1]",0,54,54,54,1,0,0,,,1,FALSE,0.6969,,,,,,,,,,,,,,,,,,,,,,,,,,,,,,,
,60512f92ff9e79466ba8d4b8,627c6f567661cada394cd6cb,2022-05-11_21h23.23.389,classification_task,2021.2.3,MacIntel,60.0024001,627c6715c52fd12f31907bd0,,,,,,,,,,,,,,,,,,,,,,,a,0,"[""0.052"",""0.266"",""0.417"",""0.805""]","[1,1,0,1]",0,55,55,55,1,1,0,,,1,FALSE,0.9313,,,,,,,,,,,,,,,,,,,,,,,,,,,,,,,
,60512f92ff9e79466ba8d4b8,627c6f567661cada394cd6cb,2022-05-11_21h23.23.389,classification_task,2021.2.3,MacIntel,60.0024001,627c6715c52fd12f31907bd0,,,,,,,,,,,,,,,,,,,,,,,l,0,"[""0.194"",""0.410"",""0.930"",""0.972""]","[1,0,1,1]",0,56,56,56,1,0,0,,,1,FALSE,0.7815,,,,,,,,,,,,,,,,,,,,,,,,,,,,,,,
,60512f92ff9e79466ba8d4b8,627c6f567661cada394cd6cb,2022-05-11_21h23.23.389,classification_task,2021.2.3,MacIntel,60.0024001,627c6715c52fd12f31907bd0,,,,,,,,,,,,,,,,,,,,,,,l,1,"[""0.052"",""0.266"",""0.506"",""0.422""]","[1,1,1,0]",0,57,57,57,1,1,0,,,1,FALSE,1.1665,,,,,,,,,,,,,,,,,,,,,,,,,,,,,,,
,60512f92ff9e79466ba8d4b8,627c6f567661cada394cd6cb,2022-05-11_21h23.23.389,classification_task,2021.2.3,MacIntel,60.0024001,627c6715c52fd12f31907bd0,,,,,,,,,,,,,,,,,,,,,,,a,0,"[""0.052"",""0.397"",""0.506"",""0.805""]","[1,0,1,1]",0,58,58,58,1,1,0,,,1,FALSE,0.9484,,,,,,,,,,,,,,,,,,,,,,,,,,,,,,,
,60512f92ff9e79466ba8d4b8,627c6f567661cada394cd6cb,2022-05-11_21h23.23.389,classification_task,2021.2.3,MacIntel,60.0024001,627c6715c52fd12f31907bd0,,,,,,,,,,,,,,,,,,,,,,,l,1,"[""0.768"",""0.266"",""0.506"",""0.805""]","[0,1,1,1]",0,59,59,59,1,1,0,,,1,FALSE,0.6306,,,,,,,,,,,,,,,,,,,,,,,,,,,,,,,
,60512f92ff9e79466ba8d4b8,627c6f567661cada394cd6cb,2022-05-11_21h23.23.389,classification_task,2021.2.3,MacIntel,60.0024001,627c6715c52fd12f31907bd0,,,,,,,,,,,,,,,,,,,,,,,l,0,"[""0.230"",""0.397"",""0.847"",""0.888""]","[1,0,1,1]",0,60,60,60,1,0,1,,,1,FALSE,0.2256,,,,,,,,,,,,,,,,,,,,,,,,,,,,,,,
,60512f92ff9e79466ba8d4b8,627c6f567661cada394cd6cb,2022-05-11_21h23.23.389,classification_task,2021.2.3,MacIntel,60.0024001,627c6715c52fd12f31907bd0,,,,,,,,,,,,,,,,,,,,,,,l,1,"[""0.110"",""0.156"",""0.625"",""0.417""]","[1,1,1,0]",0,61,61,61,1,1,1,,,1,FALSE,0.6145,,,,,,,,,,,,,,,,,,,,,,,,,,,,,,,
,60512f92ff9e79466ba8d4b8,627c6f567661cada394cd6cb,2022-05-11_21h23.23.389,classification_task,2021.2.3,MacIntel,60.0024001,627c6715c52fd12f31907bd0,,,,,,,,,,,,,,,,,,,,,,,l,1,"[""0.412"",""0.156"",""0.625"",""0.684""]","[0,1,1,1]",0,62,62,62,1,1,1,,,1,FALSE,0.6634,,,,,,,,,,,,,,,,,,,,,,,,,,,,,,,
,60512f92ff9e79466ba8d4b8,627c6f567661cada394cd6cb,2022-05-11_21h23.23.389,classification_task,2021.2.3,MacIntel,60.0024001,627c6715c52fd12f31907bd0,,,,,,,,,,,,,,,,,,,,,,,l,0,"[""0.194"",""0.328"",""0.930"",""0.422""]","[1,1,1,0]",0,63,63,63,1,0,0,,,1,FALSE,0.8777,,,,,,,,,,,,,,,,,,,,,,,,,,,,,,,
,60512f92ff9e79466ba8d4b8,627c6f567661cada394cd6cb,2022-05-11_21h23.23.389,classification_task,2021.2.3,MacIntel,60.0024001,627c6715c52fd12f31907bd0,,,,,,,,,,,,,,,,,,,,,,,,,,,,,,,,,,,,,,,0, ,,0,1.884300595,202.888,0,1,1,1,1,2,2,,,,,,,,,,,,,,,,,,
,60512f92ff9e79466ba8d4b8,627c6f567661cada394cd6cb,2022-05-11_21h23.23.389,classification_task,2021.2.3,MacIntel,60.0024001,627c6715c52fd12f31907bd0,,,,,,,,,,,,,,,,,,,,,,,,,,,,,,,,,,,,,,,1,  ,,0,8.620127521,206.9723,0,1,1,1,1,2,2,,,,,,,,,,,,,,,,,,
,60512f92ff9e79466ba8d4b8,627c6f567661cada394cd6cb,2022-05-11_21h23.23.389,classification_task,2021.2.3,MacIntel,60.0024001,627c6715c52fd12f31907bd0,,,,,,,,,,,,,,,,,,,,,,,,,,,,,,,,,,,,,,,2,  ,,0,7.372685185,209.0219,0,1,1,1,1,2,2,,,,,,,,,,,,,,,,,,
,60512f92ff9e79466ba8d4b8,627c6f567661cada394cd6cb,2022-05-11_21h23.23.389,classification_task,2021.2.3,MacIntel,60.0024001,627c6715c52fd12f31907bd0,,,,,,,,,,,,,,,,,,,,,,,,,,,,,,,,,,,,,,,,,,,,,0,1,1,1,1,,2,,,,,,,,,,,,,,,,,,
,60512f92ff9e79466ba8d4b8,627c6f567661cada394cd6cb,2022-05-11_21h23.23.389,classification_task,2021.2.3,MacIntel,60.0024001,627c6715c52fd12f31907bd0,,,,,,,,,,,,,,,,,,,,,space,22.3763,l,1,"[""0.724"",""0.156"",""0.625"",""0.684""]","[0,1,1,1]",0,0,0,0,1,1,1,,,1,FALSE,2.0971,,,,,,,,,,,,,,,,,,,,,,,,,,,,,,,
,60512f92ff9e79466ba8d4b8,627c6f567661cada394cd6cb,2022-05-11_21h23.23.389,classification_task,2021.2.3,MacIntel,60.0024001,627c6715c52fd12f31907bd0,,,,,,,,,,,,,,,,,,,,,,,l,1,"[""0.110"",""0.156"",""0.752"",""0.684""]","[1,1,0,1]",0,1,1,1,1,1,1,,,1,FALSE,3.5169,,,,,,,,,,,,,,,,,,,,,,,,,,,,,,,
,60512f92ff9e79466ba8d4b8,627c6f567661cada394cd6cb,2022-05-11_21h23.23.389,classification_task,2021.2.3,MacIntel,60.0024001,627c6715c52fd12f31907bd0,,,,,,,,,,,,,,,,,,,,,,,l,1,"[""0.110"",""0.550"",""0.625"",""0.684""]","[1,0,1,1]",0,2,2,2,1,1,1,,,1,FALSE,4.0671,,,,,,,,,,,,,,,,,,,,,,,,,,,,,,,
,60512f92ff9e79466ba8d4b8,627c6f567661cada394cd6cb,2022-05-11_21h23.23.389,classification_task,2021.2.3,MacIntel,60.0024001,627c6715c52fd12f31907bd0,,,,,,,,,,,,,,,,,,,,,,,a,1,"[""0.230"",""0.464"",""0.764"",""0.888""]","[1,1,0,1]",0,3,3,3,1,0,1,,,1,FALSE,1.4339,,,,,,,,,,,,,,,,,,,,,,,,,,,,,,,
,60512f92ff9e79466ba8d4b8,627c6f567661cada394cd6cb,2022-05-11_21h23.23.389,classification_task,2021.2.3,MacIntel,60.0024001,627c6715c52fd12f31907bd0,,,,,,,,,,,,,,,,,,,,,,,l,1,"[""0.052"",""0.752"",""0.506"",""0.805""]","[1,0,1,1]",0,4,4,4,1,1,0,,,1,FALSE,5.1655,,,,,,,,,,,,,,,,,,,,,,,,,,,,,,,
,60512f92ff9e79466ba8d4b8,627c6f567661cada394cd6cb,2022-05-11_21h23.23.389,classification_task,2021.2.3,MacIntel,60.0024001,627c6715c52fd12f31907bd0,,,,,,,,,,,,,,,,,,,,,,,a,0,"[""0.110"",""0.156"",""0.625"",""0.768""]","[1,1,1,0]",0,5,5,5,1,1,1,,,1,FALSE,1.502,,,,,,,,,,,,,,,,,,,,,,,,,,,,,,,
,60512f92ff9e79466ba8d4b8,627c6f567661cada394cd6cb,2022-05-11_21h23.23.389,classification_task,2021.2.3,MacIntel,60.0024001,627c6715c52fd12f31907bd0,,,,,,,,,,,,,,,,,,,,,,,a,1,"[""0.230"",""0.464"",""0.847"",""0.768""]","[1,1,1,0]",0,6,6,6,1,0,1,,,1,FALSE,1.2987,,,,,,,,,,,,,,,,,,,,,,,,,,,,,,,
,60512f92ff9e79466ba8d4b8,627c6f567661cada394cd6cb,2022-05-11_21h23.23.389,classification_task,2021.2.3,MacIntel,60.0024001,627c6715c52fd12f31907bd0,,,,,,,,,,,,,,,,,,,,,,,l,0,"[""0.422"",""0.328"",""0.930"",""0.972""]","[0,1,1,1]",0,7,7,7,1,0,0,,,1,FALSE,1.7025,,,,,,,,,,,,,,,,,,,,,,,,,,,,,,,
,60512f92ff9e79466ba8d4b8,627c6f567661cada394cd6cb,2022-05-11_21h23.23.389,classification_task,2021.2.3,MacIntel,60.0024001,627c6715c52fd12f31907bd0,,,,,,,,,,,,,,,,,,,,,,,l,0,"[""0.724"",""0.464"",""0.847"",""0.888""]","[0,1,1,1]",0,8,8,8,1,0,1,,,1,FALSE,2.282,,,,,,,,,,,,,,,,,,,,,,,,,,,,,,,
,60512f92ff9e79466ba8d4b8,627c6f567661cada394cd6cb,2022-05-11_21h23.23.389,classification_task,2021.2.3,MacIntel,60.0024001,627c6715c52fd12f31907bd0,,,,,,,,,,,,,,,,,,,,,,,a,1,"[""0.194"",""0.328"",""0.550"",""0.972""]","[1,1,0,1]",0,9,9,9,1,0,0,,,1,FALSE,1.27,,,,,,,,,,,,,,,,,,,,,,,,,,,,,,,
,60512f92ff9e79466ba8d4b8,627c6f567661cada394cd6cb,2022-05-11_21h23.23.389,classification_task,2021.2.3,MacIntel,60.0024001,627c6715c52fd12f31907bd0,,,,,,,,,,,,,,,,,,,,,,,a,0,"[""0.052"",""0.266"",""0.506"",""0.741""]","[1,1,1,0]",0,10,10,10,1,1,0,,,1,FALSE,2.8989,,,,,,,,,,,,,,,,,,,,,,,,,,,,,,,
,60512f92ff9e79466ba8d4b8,627c6f567661cada394cd6cb,2022-05-11_21h23.23.389,classification_task,2021.2.3,MacIntel,60.0024001,627c6715c52fd12f31907bd0,,,,,,,,,,,,,,,,,,,,,,,l,0,"[""0.230"",""0.721"",""0.847"",""0.888""]","[1,0,1,1]",0,11,11,11,1,0,1,,,1,FALSE,4.0491,,,,,,,,,,,,,,,,,,,,,,,,,,,,,,,
,60512f92ff9e79466ba8d4b8,627c6f567661cada394cd6cb,2022-05-11_21h23.23.389,classification_task,2021.2.3,MacIntel,60.0024001,627c6715c52fd12f31907bd0,,,,,,,,,,,,,,,,,,,,,,,l,1,"[""0.768"",""0.266"",""0.506"",""0.805""]","[0,1,1,1]",0,12,12,12,1,1,0,,,1,FALSE,5.351,,,,,,,,,,,,,,,,,,,,,,,,,,,,,,,
,60512f92ff9e79466ba8d4b8,627c6f567661cada394cd6cb,2022-05-11_21h23.23.389,classification_task,2021.2.3,MacIntel,60.0024001,627c6715c52fd12f31907bd0,,,,,,,,,,,,,,,,,,,,,,,l,1,"[""0.052"",""0.266"",""0.562"",""0.805""]","[1,1,0,1]",0,13,13,13,1,1,0,,,1,FALSE,5.2347,,,,,,,,,,,,,,,,,,,,,,,,,,,,,,,
,60512f92ff9e79466ba8d4b8,627c6f567661cada394cd6cb,2022-05-11_21h23.23.389,classification_task,2021.2.3,MacIntel,60.0024001,627c6715c52fd12f31907bd0,,,,,,,,,,,,,,,,,,,,,,,a,1,"[""0.194"",""0.412"",""0.930"",""0.972""]","[1,0,1,1]",0,14,14,14,1,0,0,,,1,FALSE,1.7685,,,,,,,,,,,,,,,,,,,,,,,,,,,,,,,
,60512f92ff9e79466ba8d4b8,627c6f567661cada394cd6cb,2022-05-11_21h23.23.389,classification_task,2021.2.3,MacIntel,60.0024001,627c6715c52fd12f31907bd0,,,,,,,,,,,,,,,,,,,,,,,l,0,"[""0.194"",""0.328"",""0.930"",""0.397""]","[1,1,1,0]",0,15,15,15,1,0,0,,,1,FALSE,3.0672,,,,,,,,,,,,,,,,,,,,,,,,,,,,,,,
,60512f92ff9e79466ba8d4b8,627c6f567661cada394cd6cb,2022-05-11_21h23.23.389,classification_task,2021.2.3,MacIntel,60.0024001,627c6715c52fd12f31907bd0,,,,,,,,,,,,,,,,,,,,,,,a,0,"[""0.110"",""0.156"",""0.562"",""0.684""]","[1,1,0,1]",0,16,16,16,1,1,1,,,1,FALSE,4.1692,,,,,,,,,,,,,,,,,,,,,,,,,,,,,,,
,60512f92ff9e79466ba8d4b8,627c6f567661cada394cd6cb,2022-05-11_21h23.23.389,classification_task,2021.2.3,MacIntel,60.0024001,627c6715c52fd12f31907bd0,,,,,,,,,,,,,,,,,,,,,,,a,1,"[""0.741"",""0.464"",""0.847"",""0.888""]","[0,1,1,1]",0,17,17,17,1,0,1,,,1,FALSE,3.8209,,,,,,,,,,,,,,,,,,,,,,,,,,,,,,,
,60512f92ff9e79466ba8d4b8,627c6f567661cada394cd6cb,2022-05-11_21h23.23.389,classification_task,2021.2.3,MacIntel,60.0024001,627c6715c52fd12f31907bd0,,,,,,,,,,,,,,,,,,,,,,,l,0,"[""0.562"",""0.328"",""0.930"",""0.972""]","[0,1,1,1]",0,18,18,18,1,0,0,,,1,FALSE,3.7197,,,,,,,,,,,,,,,,,,,,,,,,,,,,,,,
,60512f92ff9e79466ba8d4b8,627c6f567661cada394cd6cb,2022-05-11_21h23.23.389,classification_task,2021.2.3,MacIntel,60.0024001,627c6715c52fd12f31907bd0,,,,,,,,,,,,,,,,,,,,,,,a,0,"[""0.052"",""0.266"",""0.397"",""0.805""]","[1,1,0,1]",0,19,19,19,1,1,0,,,1,FALSE,2.4495,,,,,,,,,,,,,,,,,,,,,,,,,,,,,,,
,60512f92ff9e79466ba8d4b8,627c6f567661cada394cd6cb,2022-05-11_21h23.23.389,classification_task,2021.2.3,MacIntel,60.0024001,627c6715c52fd12f31907bd0,,,,,,,,,,,,,,,,,,,,,,,a,0,"[""0.741"",""0.266"",""0.506"",""0.805""]","[0,1,1,1]",0,20,20,20,1,1,0,,,1,FALSE,2.3183,,,,,,,,,,,,,,,,,,,,,,,,,,,,,,,
,60512f92ff9e79466ba8d4b8,627c6f567661cada394cd6cb,2022-05-11_21h23.23.389,classification_task,2021.2.3,MacIntel,60.0024001,627c6715c52fd12f31907bd0,,,,,,,,,,,,,,,,,,,,,,,a,1,"[""0.194"",""0.328"",""0.930"",""0.752""]","[1,1,1,0]",0,21,21,21,1,0,0,,,1,FALSE,1.1209,,,,,,,,,,,,,,,,,,,,,,,,,,,,,,,
,60512f92ff9e79466ba8d4b8,627c6f567661cada394cd6cb,2022-05-11_21h23.23.389,classification_task,2021.2.3,MacIntel,60.0024001,627c6715c52fd12f31907bd0,,,,,,,,,,,,,,,,,,,,,,,l,0,"[""0.230"",""0.464"",""0.422"",""0.888""]","[1,1,0,1]",0,22,22,22,1,0,1,,,1,FALSE,1.6323,,,,,,,,,,,,,,,,,,,,,,,,,,,,,,,
,60512f92ff9e79466ba8d4b8,627c6f567661cada394cd6cb,2022-05-11_21h23.23.389,classification_task,2021.2.3,MacIntel,60.0024001,627c6715c52fd12f31907bd0,,,,,,,,,,,,,,,,,,,,,,,l,0,"[""0.194"",""0.328"",""0.764"",""0.972""]","[1,1,0,1]",0,23,23,23,1,0,0,,,1,FALSE,4.9653,,,,,,,,,,,,,,,,,,,,,,,,,,,,,,,
,60512f92ff9e79466ba8d4b8,627c6f567661cada394cd6cb,2022-05-11_21h23.23.389,classification_task,2021.2.3,MacIntel,60.0024001,627c6715c52fd12f31907bd0,,,,,,,,,,,,,,,,,,,,,,,l,1,"[""0.052"",""0.724"",""0.506"",""0.805""]","[1,0,1,1]",0,24,24,24,1,1,0,,,1,FALSE,4.4072,,,,,,,,,,,,,,,,,,,,,,,,,,,,,,,
,60512f92ff9e79466ba8d4b8,627c6f567661cada394cd6cb,2022-05-11_21h23.23.389,classification_task,2021.2.3,MacIntel,60.0024001,627c6715c52fd12f31907bd0,,,,,,,,,,,,,,,,,,,,,,,a,0,"[""0.110"",""0.156"",""0.625"",""0.764""]","[1,1,1,0]",0,25,25,25,1,1,1,,,1,FALSE,2.1879,,,,,,,,,,,,,,,,,,,,,,,,,,,,,,,
,60512f92ff9e79466ba8d4b8,627c6f567661cada394cd6cb,2022-05-11_21h23.23.389,classification_task,2021.2.3,MacIntel,60.0024001,627c6715c52fd12f31907bd0,,,,,,,,,,,,,,,,,,,,,,,a,1,"[""0.230"",""0.724"",""0.847"",""0.888""]","[1,0,1,1]",0,26,26,26,1,0,1,,,1,FALSE,2.169,,,,,,,,,,,,,,,,,,,,,,,,,,,,,,,
,60512f92ff9e79466ba8d4b8,627c6f567661cada394cd6cb,2022-05-11_21h23.23.389,classification_task,2021.2.3,MacIntel,60.0024001,627c6715c52fd12f31907bd0,,,,,,,,,,,,,,,,,,,,,,,a,0,"[""0.052"",""0.266"",""0.506"",""0.550""]","[1,1,1,0]",0,27,27,27,1,1,0,,,1,FALSE,4.046,,,,,,,,,,,,,,,,,,,,,,,,,,,,,,,
,60512f92ff9e79466ba8d4b8,627c6f567661cada394cd6cb,2022-05-11_21h23.23.389,classification_task,2021.2.3,MacIntel,60.0024001,627c6715c52fd12f31907bd0,,,,,,,,,,,,,,,,,,,,,,,a,0,"[""0.110"",""0.418"",""0.625"",""0.684""]","[1,0,1,1]",0,28,28,28,1,1,1,,,1,FALSE,4.3014,,,,,,,,,,,,,,,,,,,,,,,,,,,,,,,
,60512f92ff9e79466ba8d4b8,627c6f567661cada394cd6cb,2022-05-11_21h23.23.389,classification_task,2021.2.3,MacIntel,60.0024001,627c6715c52fd12f31907bd0,,,,,,,,,,,,,,,,,,,,,,,l,0,"[""0.230"",""0.464"",""0.847"",""0.418""]","[1,1,1,0]",0,29,29,29,1,0,1,,,1,FALSE,3.6496,,,,,,,,,,,,,,,,,,,,,,,,,,,,,,,
,60512f92ff9e79466ba8d4b8,627c6f567661cada394cd6cb,2022-05-11_21h23.23.389,classification_task,2021.2.3,MacIntel,60.0024001,627c6715c52fd12f31907bd0,,,,,,,,,,,,,,,,,,,,,,,a,0,"[""0.582"",""0.156"",""0.625"",""0.684""]","[0,1,1,1]",0,30,30,30,1,1,1,,,1,FALSE,2.5693,,,,,,,,,,,,,,,,,,,,,,,,,,,,,,,
,60512f92ff9e79466ba8d4b8,627c6f567661cada394cd6cb,2022-05-11_21h23.23.389,classification_task,2021.2.3,MacIntel,60.0024001,627c6715c52fd12f31907bd0,,,,,,,,,,,,,,,,,,,,,,,l,0,"[""0.194"",""0.397"",""0.930"",""0.972""]","[1,0,1,1]",0,31,31,31,1,0,0,,,1,FALSE,1.4862,,,,,,,,,,,,,,,,,,,,,,,,,,,,,,,
,60512f92ff9e79466ba8d4b8,627c6f567661cada394cd6cb,2022-05-11_21h23.23.389,classification_task,2021.2.3,MacIntel,60.0024001,627c6715c52fd12f31907bd0,,,,,,,,,,,,,,,,,,,,,,,l,1,"[""0.110"",""0.562"",""0.625"",""0.684""]","[1,0,1,1]",0,32,32,32,1,1,1,,,1,FALSE,1.5191,,,,,,,,,,,,,,,,,,,,,,,,,,,,,,,
,60512f92ff9e79466ba8d4b8,627c6f567661cada394cd6cb,2022-05-11_21h23.23.389,classification_task,2021.2.3,MacIntel,60.0024001,627c6715c52fd12f31907bd0,,,,,,,,,,,,,,,,,,,,,,,l,0,"[""0.230"",""0.410"",""0.847"",""0.888""]","[1,0,1,1]",0,33,33,33,1,0,1,,,1,FALSE,2.08,,,,,,,,,,,,,,,,,,,,,,,,,,,,,,,
,60512f92ff9e79466ba8d4b8,627c6f567661cada394cd6cb,2022-05-11_21h23.23.389,classification_task,2021.2.3,MacIntel,60.0024001,627c6715c52fd12f31907bd0,,,,,,,,,,,,,,,,,,,,,,,l,0,"[""0.230"",""0.464"",""0.768"",""0.888""]","[1,1,0,1]",0,34,34,34,1,0,1,,,1,FALSE,3.0221,,,,,,,,,,,,,,,,,,,,,,,,,,,,,,,
,60512f92ff9e79466ba8d4b8,627c6f567661cada394cd6cb,2022-05-11_21h23.23.389,classification_task,2021.2.3,MacIntel,60.0024001,627c6715c52fd12f31907bd0,,,,,,,,,,,,,,,,,,,,,,,a,0,"[""0.110"",""0.156"",""0.625"",""0.418""]","[1,1,1,0]",0,35,35,35,1,1,1,,,1,FALSE,5.269,,,,,,,,,,,,,,,,,,,,,,,,,,,,,,,
,60512f92ff9e79466ba8d4b8,627c6f567661cada394cd6cb,2022-05-11_21h23.23.389,classification_task,2021.2.3,MacIntel,60.0024001,627c6715c52fd12f31907bd0,,,,,,,,,,,,,,,,,,,,,,,a,1,"[""0.194"",""0.550"",""0.930"",""0.972""]","[1,0,1,1]",0,36,36,36,1,0,0,,,1,FALSE,4.42,,,,,,,,,,,,,,,,,,,,,,,,,,,,,,,
,60512f92ff9e79466ba8d4b8,627c6f567661cada394cd6cb,2022-05-11_21h23.23.389,classification_task,2021.2.3,MacIntel,60.0024001,627c6715c52fd12f31907bd0,,,,,,,,,,,,,,,,,,,,,,,l,1,"[""0.052"",""0.266"",""0.506"",""0.768""]","[1,1,1,0]",0,37,37,37,1,1,0,,,1,FALSE,2.55,,,,,,,,,,,,,,,,,,,,,,,,,,,,,,,
,60512f92ff9e79466ba8d4b8,627c6f567661cada394cd6cb,2022-05-11_21h23.23.389,classification_task,2021.2.3,MacIntel,60.0024001,627c6715c52fd12f31907bd0,,,,,,,,,,,,,,,,,,,,,,,a,1,"[""0.418"",""0.464"",""0.847"",""0.888""]","[0,1,1,1]",0,38,38,38,1,0,1,,,1,FALSE,3.6513,,,,,,,,,,,,,,,,,,,,,,,,,,,,,,,
,60512f92ff9e79466ba8d4b8,627c6f567661cada394cd6cb,2022-05-11_21h23.23.389,classification_task,2021.2.3,MacIntel,60.0024001,627c6715c52fd12f31907bd0,,,,,,,,,,,,,,,,,,,,,,,a,1,"[""0.194"",""0.328"",""0.556"",""0.972""]","[1,1,0,1]",0,39,39,39,1,0,0,,,1,FALSE,2.2037,,,,,,,,,,,,,,,,,,,,,,,,,,,,,,,
,60512f92ff9e79466ba8d4b8,627c6f567661cada394cd6cb,2022-05-11_21h23.23.389,classification_task,2021.2.3,MacIntel,60.0024001,627c6715c52fd12f31907bd0,,,,,,,,,,,,,,,,,,,,,,,l,1,"[""0.052"",""0.412"",""0.506"",""0.805""]","[1,0,1,1]",0,40,40,40,1,1,0,,,1,FALSE,3.8144,,,,,,,,,,,,,,,,,,,,,,,,,,,,,,,
,60512f92ff9e79466ba8d4b8,627c6f567661cada394cd6cb,2022-05-11_21h23.23.389,classification_task,2021.2.3,MacIntel,60.0024001,627c6715c52fd12f31907bd0,,,,,,,,,,,,,,,,,,,,,,,a,1,"[""0.230"",""0.464"",""0.847"",""0.418""]","[1,1,1,0]",0,41,41,41,1,0,1,,,1,FALSE,7.0519,,,,,,,,,,,,,,,,,,,,,,,,,,,,,,,
,60512f92ff9e79466ba8d4b8,627c6f567661cada394cd6cb,2022-05-11_21h23.23.389,classification_task,2021.2.3,MacIntel,60.0024001,627c6715c52fd12f31907bd0,,,,,,,,,,,,,,,,,,,,,,,l,1,"[""0.052"",""0.266"",""0.724"",""0.805""]","[1,1,0,1]",0,42,42,42,1,1,0,,,1,FALSE,1.118,,,,,,,,,,,,,,,,,,,,,,,,,,,,,,,
,60512f92ff9e79466ba8d4b8,627c6f567661cada394cd6cb,2022-05-11_21h23.23.389,classification_task,2021.2.3,MacIntel,60.0024001,627c6715c52fd12f31907bd0,,,,,,,,,,,,,,,,,,,,,,,l,1,"[""0.562"",""0.156"",""0.625"",""0.684""]","[0,1,1,1]",0,43,43,43,1,1,1,,,1,FALSE,1.6035,,,,,,,,,,,,,,,,,,,,,,,,,,,,,,,
,60512f92ff9e79466ba8d4b8,627c6f567661cada394cd6cb,2022-05-11_21h23.23.389,classification_task,2021.2.3,MacIntel,60.0024001,627c6715c52fd12f31907bd0,,,,,,,,,,,,,,,,,,,,,,,a,0,"[""0.110"",""0.156"",""0.550"",""0.684""]","[1,1,0,1]",0,44,44,44,1,1,1,,,1,FALSE,2.9484,,,,,,,,,,,,,,,,,,,,,,,,,,,,,,,
,60512f92ff9e79466ba8d4b8,627c6f567661cada394cd6cb,2022-05-11_21h23.23.389,classification_task,2021.2.3,MacIntel,60.0024001,627c6715c52fd12f31907bd0,,,,,,,,,,,,,,,,,,,,,,,a,0,"[""0.418"",""0.266"",""0.506"",""0.805""]","[0,1,1,1]",0,45,45,45,1,1,0,,,1,FALSE,2.9684,,,,,,,,,,,,,,,,,,,,,,,,,,,,,,,
,60512f92ff9e79466ba8d4b8,627c6f567661cada394cd6cb,2022-05-11_21h23.23.389,classification_task,2021.2.3,MacIntel,60.0024001,627c6715c52fd12f31907bd0,,,,,,,,,,,,,,,,,,,,,,,l,0,"[""0.412"",""0.328"",""0.930"",""0.972""]","[0,1,1,1]",0,46,46,46,1,0,0,,,1,FALSE,3.8374,,,,,,,,,,,,,,,,,,,,,,,,,,,,,,,
,60512f92ff9e79466ba8d4b8,627c6f567661cada394cd6cb,2022-05-11_21h23.23.389,classification_task,2021.2.3,MacIntel,60.0024001,627c6715c52fd12f31907bd0,,,,,,,,,,,,,,,,,,,,,,,a,1,"[""0.194"",""0.328"",""0.930"",""0.417""]","[1,1,1,0]",0,47,47,47,1,0,0,,,1,FALSE,2.0852,,,,,,,,,,,,,,,,,,,,,,,,,,,,,,,
,60512f92ff9e79466ba8d4b8,627c6f567661cada394cd6cb,2022-05-11_21h23.23.389,classification_task,2021.2.3,MacIntel,60.0024001,627c6715c52fd12f31907bd0,,,,,,,,,,,,,,,,,,,,,,,a,1,"[""0.410"",""0.464"",""0.847"",""0.888""]","[0,1,1,1]",0,48,48,48,1,0,1,,,1,FALSE,4.2492,,,,,,,,,,,,,,,,,,,,,,,,,,,,,,,
,60512f92ff9e79466ba8d4b8,627c6f567661cada394cd6cb,2022-05-11_21h23.23.389,classification_task,2021.2.3,MacIntel,60.0024001,627c6715c52fd12f31907bd0,,,,,,,,,,,,,,,,,,,,,,,a,0,"[""0.110"",""0.156"",""0.410"",""0.684""]","[1,1,0,1]",0,49,49,49,1,1,1,,,1,FALSE,2.4689,,,,,,,,,,,,,,,,,,,,,,,,,,,,,,,
,60512f92ff9e79466ba8d4b8,627c6f567661cada394cd6cb,2022-05-11_21h23.23.389,classification_task,2021.2.3,MacIntel,60.0024001,627c6715c52fd12f31907bd0,,,,,,,,,,,,,,,,,,,,,,,a,1,"[""0.230"",""0.464"",""0.847"",""0.582""]","[1,1,1,0]",0,50,50,50,1,0,1,,,1,FALSE,1.3799,,,,,,,,,,,,,,,,,,,,,,,,,,,,,,,
,60512f92ff9e79466ba8d4b8,627c6f567661cada394cd6cb,2022-05-11_21h23.23.389,classification_task,2021.2.3,MacIntel,60.0024001,627c6715c52fd12f31907bd0,,,,,,,,,,,,,,,,,,,,,,,a,1,"[""0.194"",""0.328"",""0.764"",""0.972""]","[1,1,0,1]",0,51,51,51,1,0,0,,,1,FALSE,1.102,,,,,,,,,,,,,,,,,,,,,,,,,,,,,,,
,60512f92ff9e79466ba8d4b8,627c6f567661cada394cd6cb,2022-05-11_21h23.23.389,classification_task,2021.2.3,MacIntel,60.0024001,627c6715c52fd12f31907bd0,,,,,,,,,,,,,,,,,,,,,,,l,0,"[""0.230"",""0.464"",""0.422"",""0.888""]","[1,1,0,1]",0,52,52,52,1,0,1,,,1,FALSE,1.0634,,,,,,,,,,,,,,,,,,,,,,,,,,,,,,,
,60512f92ff9e79466ba8d4b8,627c6f567661cada394cd6cb,2022-05-11_21h23.23.389,classification_task,2021.2.3,MacIntel,60.0024001,627c6715c52fd12f31907bd0,,,,,,,,,,,,,,,,,,,,,,,a,0,"[""0.052"",""0.266"",""0.562"",""0.805""]","[1,1,0,1]",0,53,53,53,1,1,0,,,1,FALSE,0.7149,,,,,,,,,,,,,,,,,,,,,,,,,,,,,,,
,60512f92ff9e79466ba8d4b8,627c6f567661cada394cd6cb,2022-05-11_21h23.23.389,classification_task,2021.2.3,MacIntel,60.0024001,627c6715c52fd12f31907bd0,,,,,,,,,,,,,,,,,,,,,,,l,1,"[""0.422"",""0.156"",""0.625"",""0.684""]","[0,1,1,1]",0,54,54,54,1,1,1,,,1,FALSE,0.901,,,,,,,,,,,,,,,,,,,,,,,,,,,,,,,
,60512f92ff9e79466ba8d4b8,627c6f567661cada394cd6cb,2022-05-11_21h23.23.389,classification_task,2021.2.3,MacIntel,60.0024001,627c6715c52fd12f31907bd0,,,,,,,,,,,,,,,,,,,,,,,l,1,"[""0.110"",""0.156"",""0.625"",""0.741""]","[1,1,1,0]",0,55,55,55,1,1,1,,,1,FALSE,1.2655,,,,,,,,,,,,,,,,,,,,,,,,,,,,,,,
,60512f92ff9e79466ba8d4b8,627c6f567661cada394cd6cb,2022-05-11_21h23.23.389,classification_task,2021.2.3,MacIntel,60.0024001,627c6715c52fd12f31907bd0,,,,,,,,,,,,,,,,,,,,,,,a,1,"[""0.230"",""0.422"",""0.847"",""0.888""]","[1,0,1,1]",0,56,56,56,1,0,1,,,1,FALSE,1.2197,,,,,,,,,,,,,,,,,,,,,,,,,,,,,,,
,60512f92ff9e79466ba8d4b8,627c6f567661cada394cd6cb,2022-05-11_21h23.23.389,classification_task,2021.2.3,MacIntel,60.0024001,627c6715c52fd12f31907bd0,,,,,,,,,,,,,,,,,,,,,,,a,1,"[""0.194"",""0.562"",""0.930"",""0.972""]","[1,0,1,1]",0,57,57,57,1,0,0,,,1,FALSE,1.5658,,,,,,,,,,,,,,,,,,,,,,,,,,,,,,,
,60512f92ff9e79466ba8d4b8,627c6f567661cada394cd6cb,2022-05-11_21h23.23.389,classification_task,2021.2.3,MacIntel,60.0024001,627c6715c52fd12f31907bd0,,,,,,,,,,,,,,,,,,,,,,,l,0,"[""0.194"",""0.328"",""0.930"",""0.418""]","[1,1,1,0]",0,58,58,58,1,0,0,,,1,FALSE,0.9669,,,,,,,,,,,,,,,,,,,,,,,,,,,,,,,
,60512f92ff9e79466ba8d4b8,627c6f567661cada394cd6cb,2022-05-11_21h23.23.389,classification_task,2021.2.3,MacIntel,60.0024001,627c6715c52fd12f31907bd0,,,,,,,,,,,,,,,,,,,,,,,a,0,"[""0.052"",""0.721"",""0.506"",""0.805""]","[1,0,1,1]",0,59,59,59,1,1,0,,,1,FALSE,0.8827,,,,,,,,,,,,,,,,,,,,,,,,,,,,,,,
,60512f92ff9e79466ba8d4b8,627c6f567661cada394cd6cb,2022-05-11_21h23.23.389,classification_task,2021.2.3,MacIntel,60.0024001,627c6715c52fd12f31907bd0,,,,,,,,,,,,,,,,,,,,,,,a,0,"[""0.110"",""0.417"",""0.625"",""0.684""]","[1,0,1,1]",0,60,60,60,1,1,1,,,1,FALSE,2.765,,,,,,,,,,,,,,,,,,,,,,,,,,,,,,,
,60512f92ff9e79466ba8d4b8,627c6f567661cada394cd6cb,2022-05-11_21h23.23.389,classification_task,2021.2.3,MacIntel,60.0024001,627c6715c52fd12f31907bd0,,,,,,,,,,,,,,,,,,,,,,,l,0,"[""0.397"",""0.328"",""0.930"",""0.972""]","[0,1,1,1]",0,61,61,61,1,0,0,,,1,FALSE,1.0355,,,,,,,,,,,,,,,,,,,,,,,,,,,,,,,
,60512f92ff9e79466ba8d4b8,627c6f567661cada394cd6cb,2022-05-11_21h23.23.389,classification_task,2021.2.3,MacIntel,60.0024001,627c6715c52fd12f31907bd0,,,,,,,,,,,,,,,,,,,,,,,l,1,"[""0.752"",""0.266"",""0.506"",""0.805""]","[0,1,1,1]",0,62,62,62,1,1,0,,,1,FALSE,1.3346,,,,,,,,,,,,,,,,,,,,,,,,,,,,,,,
,60512f92ff9e79466ba8d4b8,627c6f567661cada394cd6cb,2022-05-11_21h23.23.389,classification_task,2021.2.3,MacIntel,60.0024001,627c6715c52fd12f31907bd0,,,,,,,,,,,,,,,,,,,,,,,a,0,"[""0.052"",""0.266"",""0.506"",""0.721""]","[1,1,1,0]",0,63,63,63,1,1,0,,,1,FALSE,1.2813,,,,,,,,,,,,,,,,,,,,,,,,,,,,,,,
,60512f92ff9e79466ba8d4b8,627c6f567661cada394cd6cb,2022-05-11_21h23.23.389,classification_task,2021.2.3,MacIntel,60.0024001,627c6715c52fd12f31907bd0,,,,,,,,,,,,,,,,,,,,,,,,,,,,,,,,,,,,,,,0, ,,0,4.904539724,263.9922,0,2,2,2,1,2,3,,,,,,,,,,,,,,,,,,
,60512f92ff9e79466ba8d4b8,627c6f567661cada394cd6cb,2022-05-11_21h23.23.389,classification_task,2021.2.3,MacIntel,60.0024001,627c6715c52fd12f31907bd0,,,,,,,,,,,,,,,,,,,,,,,,,,,,,,,,,,,,,,,1,  ,,0,10,265.4445,0,2,2,2,1,2,3,,,,,,,,,,,,,,,,,,
,60512f92ff9e79466ba8d4b8,627c6f567661cada394cd6cb,2022-05-11_21h23.23.389,classification_task,2021.2.3,MacIntel,60.0024001,627c6715c52fd12f31907bd0,,,,,,,,,,,,,,,,,,,,,,,,,,,,,,,,,,,,,,,2,  ,,0,10,266.4764,0,2,2,2,1,2,3,,,,,,,,,,,,,,,,,,
,60512f92ff9e79466ba8d4b8,627c6f567661cada394cd6cb,2022-05-11_21h23.23.389,classification_task,2021.2.3,MacIntel,60.0024001,627c6715c52fd12f31907bd0,,,,,,,,,,,,,,,,,,,,,,,,,,,,,,,,,,,,,,,,,,,,,0,2,2,2,1,,3,,,,,,,,,,,,,,,,,,
,60512f92ff9e79466ba8d4b8,627c6f567661cada394cd6cb,2022-05-11_21h23.23.389,classification_task,2021.2.3,MacIntel,60.0024001,627c6715c52fd12f31907bd0,,,,,,,,,,,,,,,,,,,,,,,,,,,,,,,,,,,,,,,,,,,,,,,,,,,,,I believe the aid is a competent performer,,0.7,0,3,1331.5098,0,0,0,0,1,0,,,,,
,60512f92ff9e79466ba8d4b8,627c6f567661cada394cd6cb,2022-05-11_21h23.23.389,classification_task,2021.2.3,MacIntel,60.0024001,627c6715c52fd12f31907bd0,,,,,,,,,,,,,,,,,,,,,,,,,,,,,,,,,,,,,,,,,,,,,,,,,,,,,I trust the aid,,0.7,0,3,1333.1262,0,0,0,0,1,0,,,,,
,60512f92ff9e79466ba8d4b8,627c6f567661cada394cd6cb,2022-05-11_21h23.23.389,classification_task,2021.2.3,MacIntel,60.0024001,627c6715c52fd12f31907bd0,,,,,,,,,,,,,,,,,,,,,,,,,,,,,,,,,,,,,,,,,,,,,,,,,,,,,I have confidence in the advice given by the aid,,0.7,0,4,1336.0005,0,0,0,0,1,0,,,,,
,60512f92ff9e79466ba8d4b8,627c6f567661cada394cd6cb,2022-05-11_21h23.23.389,classification_task,2021.2.3,MacIntel,60.0024001,627c6715c52fd12f31907bd0,,,,,,,,,,,,,,,,,,,,,,,,,,,,,,,,,,,,,,,,,,,,,,,,,,,,,I can depend on the aid,,0.7,0,3,1339.5248,0,0,0,0,1,0,,,,,
,60512f92ff9e79466ba8d4b8,627c6f567661cada394cd6cb,2022-05-11_21h23.23.389,classification_task,2021.2.3,MacIntel,60.0024001,627c6715c52fd12f31907bd0,,,,,,,,,,,,,,,,,,,,,,,,,,,,,,,,,,,,,,,,,,,,,,,,,,,,,I can rely on the aid to behave in consistent ways,,0.7,0,3,1342.8563,0,0,0,0,1,0,,,,,
,60512f92ff9e79466ba8d4b8,627c6f567661cada394cd6cb,2022-05-11_21h23.23.389,classification_task,2021.2.3,MacIntel,60.0024001,627c6715c52fd12f31907bd0,,,,,,,,,,,,,,,,,,,,,,,,,,,,,,,,,,,,,,,,,,,,,,,,,,,,,I can rely on the aid to do its best every time I take its advice,,0.7,0,4,1346.0818,0,0,0,0,1,0,,,,,
,60512f92ff9e79466ba8d4b8,627c6f567661cada394cd6cb,2022-05-11_21h23.23.389,classification_task,2021.2.3,MacIntel,60.0024001,627c6715c52fd12f31907bd0,,,,,,,,,,,,,,,,,,,,,,,,,,,,,,,,,,,,,,,,,,,,,,,,,,,,,"On trials you completed with assistance from the aid, how frequently did you think the aid was correct?",,0.7,0,80,,0,0,0,0,1,0,,,,,
,60512f92ff9e79466ba8d4b8,627c6f567661cada394cd6cb,2022-05-11_21h23.23.389,classification_task,2021.2.3,MacIntel,60.0024001,627c6715c52fd12f31907bd0,,,,,,,,,,,,,,,,,,,,,,,,,,,,,,,,,,,,,,,,,,,,,,,,,,,,,"On trials you completed without the aid, how frequently did you think you were correct?",,0.7,0,50,,0,0,0,0,1,0,,,,,
,60512f92ff9e79466ba8d4b8,627c6f567661cada394cd6cb,2022-05-11_21h23.23.389,classification_task,2021.2.3,MacIntel,60.0024001,627c6715c52fd12f31907bd0,,,,,,,,,,,,,,,,,,,,,,,,,,,,,,,,,,,,,,,,,,,,,,,,,,,,,,,,,,,0,0,0,0,1,,,,,,
,60512f92ff9e79466ba8d4b8,627c6f567661cada394cd6cb,2022-05-11_21h23.23.389,classification_task,2021.2.3,MacIntel,60.0024001,627c6715c52fd12f31907bd0,,,,,,,,,,,,,,,,,,,,,,,,,,,,,,,,,,,,,,,,,,,,,,,,,,,,,,,,,,,,,,,,,space,13.649,1377.9974,,
,60512f92ff9e79466ba8d4b8,627c6f567661cada394cd6cb,2022-05-11_21h23.23.389,classification_task,2021.2.3,MacIntel,60.0024001,627c6715c52fd12f31907bd0,,,,,,,,,,,,,,,,,,,,,,,,,,,,,,,,,,,,,,,,,,,,,,,,,,,,,,,,,,,,,,,,,,,,"Mozilla/5.0 (Macintosh; Intel Mac OS X 10_15_7) AppleWebKit/537.36 (KHTML, like Gecko) Chrome/101.0.4951.54 Safari/537.36",
,60512f92ff9e79466ba8d4b8,627c6f567661cada394cd6cb,2022-05-11_21h23.23.389,classification_task,2021.2.3,MacIntel,60.0024001,627c6715c52fd12f31907bd0,,,,,,,,,,,,,,,,,,,,,,,,,,,,,,,,,,,,,,,,,,,,,,,,,,,,,,,,,,,,,,,,,,,,,HIGHLIGHT
