usingWebGL,participant,session,date,expName,psychopyVersion,OS,frameRate,PROLIFIC_PID,STUDY_ID,SESSION_ID,signatures_friend,signatures_foe,band_ranges_top,band_ranges_bottom,formitemText,formtype,formundefined,formitemWidth,formindex,formresponse,formrt,key_resp_2.keys,key_resp_2.rt,tute_resp.keys,tute_resp.rt,tutorial.thisRepN,tutorial.thisTrialN,tutorial.thisN,tutorial.thisIndex,tutorial.ran,key_resp_4.keys,key_resp_4.rt,key_resp.keys,key_resp.corr,key_resp.rt,lines_presented,is_signal_presented,trials.thisRepN,trials.thisTrialN,trials.thisN,trials.thisIndex,trials.ran,vessel,active_band,lines,is_signal,supported_pos,catch_trial,debrief_formindex,debrief_formitemText,debrief_formtype,debrief_formitemWidth,debrief_formresponse,debrief_formrt,phases.thisRepN,phases.thisTrialN,phases.thisN,phases.thisIndex,phases.ran,phases.order,phase,key_resp_3.keys,trustitemText,trusttype,trustitemWidth,trustindex,trustresponse,trustrt,support_status.thisRepN,support_status.thisTrialN,support_status.thisN,support_status.thisIndex,support_status.ran,support_status.order,key_resp_5.keys,key_resp_5.rt,globalClockTime,userAgent
TRUE,6052b0d0dc7dc26036979852,001,2022-04-29_02h09.44.807,classification_task,2021.2.3,Win32,60.16847172,6052b0d0dc7dc26036979852,626b377229c10585ec392f89,626b3aa51b86b109f7115cbd,,,,,,,,,,,,,,,,,,,,,,,,,,,,,,,,,,,,,,,,,,,,,,,,,,,,,,,,,,,,,,,,,,,,
,6052b0d0dc7dc26036979852,001,2022-04-29_02h09.44.807,classification_task,2021.2.3,Win32,60.16847172,6052b0d0dc7dc26036979852,626b377229c10585ec392f89,626b3aa51b86b109f7115cbd,"[[""0.238"",""0.447"",""0.635"",""0.891""],[""0.191"",""0.488"",""0.856"",""0.950""]]","[[""0.084"",""0.143"",""0.576"",""0.696""],[""0.029"",""0.301"",""0.528"",""0.756""]]","[1,10]","[100,1000]",Video game experience,,,0.7,0,,,,,,,,,,,,,,,,,,,,,,,,,,,,,,,,,,,,,,,,,,,,,,,,,,,,,,,,,,,
,6052b0d0dc7dc26036979852,001,2022-04-29_02h09.44.807,classification_task,2021.2.3,Win32,60.16847172,6052b0d0dc7dc26036979852,626b377229c10585ec392f89,626b3aa51b86b109f7115cbd,,,,,Approximately how many hours did you spend playing video games in the last week?,,,0.7,0,10,,,,,,,,,,,,,,,,,,,,,,,,,,,,,,,,,,,,,,,,,,,,,,,,,,,,,,,,,,
,6052b0d0dc7dc26036979852,001,2022-04-29_02h09.44.807,classification_task,2021.2.3,Win32,60.16847172,6052b0d0dc7dc26036979852,626b377229c10585ec392f89,626b3aa51b86b109f7115cbd,,,,,"Which game did you play the most this year? (Enter ""None"" if you didn't play any)",,,0.7,0,Rocket League,,,,,,,,,,,,,,,,,,,,,,,,,,,,,,,,,,,,,,,,,,,,,,,,,,,,,,,,,,
,6052b0d0dc7dc26036979852,001,2022-04-29_02h09.44.807,classification_task,2021.2.3,Win32,60.16847172,6052b0d0dc7dc26036979852,626b377229c10585ec392f89,626b3aa51b86b109f7115cbd,,,,,Visual perception,,,0.7,0,,,,,,,,,,,,,,,,,,,,,,,,,,,,,,,,,,,,,,,,,,,,,,,,,,,,,,,,,,,
,6052b0d0dc7dc26036979852,001,2022-04-29_02h09.44.807,classification_task,2021.2.3,Win32,60.16847172,6052b0d0dc7dc26036979852,626b377229c10585ec392f89,626b3aa51b86b109f7115cbd,,,,,Do you have any form of color blindness?,,,0.7,0,No,32.2536,,,,,,,,,,,,,,,,,,,,,,,,,,,,,,,,,,,,,,,,,,,,,,,,,,,,,,,,,
,6052b0d0dc7dc26036979852,001,2022-04-29_02h09.44.807,classification_task,2021.2.3,Win32,60.16847172,6052b0d0dc7dc26036979852,626b377229c10585ec392f89,626b3aa51b86b109f7115cbd,,,,,Do you use software to change the colour temperature of your screen (e.g. f.lux)?,,,0.7,0,No,36.9075,,,,,,,,,,,,,,,,,,,,,,,,,,,,,,,,,,,,,,,,,,,,,,,,,,,,,,,,,
,6052b0d0dc7dc26036979852,001,2022-04-29_02h09.44.807,classification_task,2021.2.3,Win32,60.16847172,6052b0d0dc7dc26036979852,626b377229c10585ec392f89,626b3aa51b86b109f7115cbd,,,,,,,,,,,,space,32.8376,space,11.7329,0,0,0,0,1,,,,,,,,,,,,,,,,,,,,,,,,,,,,,,,,,,,,,,,,,,,,,,,,
,6052b0d0dc7dc26036979852,001,2022-04-29_02h09.44.807,classification_task,2021.2.3,Win32,60.16847172,6052b0d0dc7dc26036979852,626b377229c10585ec392f89,626b3aa51b86b109f7115cbd,,,,,,,,,,,,,,space,9.4546,1,0,1,0,1,,,,,,,,,,,,,,,,,,,,,,,,,,,,,,,,,,,,,,,,,,,,,,,,
,6052b0d0dc7dc26036979852,001,2022-04-29_02h09.44.807,classification_task,2021.2.3,Win32,60.16847172,6052b0d0dc7dc26036979852,626b377229c10585ec392f89,626b3aa51b86b109f7115cbd,,,,,,,,,,,,,,space,18.9042,2,0,2,0,1,,,,,,,,,,,,,,,,,,,,,,,,,,,,,,,,,,,,,,,,,,,,,,,,
,6052b0d0dc7dc26036979852,001,2022-04-29_02h09.44.807,classification_task,2021.2.3,Win32,60.16847172,6052b0d0dc7dc26036979852,626b377229c10585ec392f89,626b3aa51b86b109f7115cbd,,,,,,,,,,,,,,space,25.4005,3,0,3,0,1,,,,,,,,,,,,,,,,,,,,,,,,,,,,,,,,,,,,,,,,,,,,,,,,
,6052b0d0dc7dc26036979852,001,2022-04-29_02h09.44.807,classification_task,2021.2.3,Win32,60.16847172,6052b0d0dc7dc26036979852,626b377229c10585ec392f89,626b3aa51b86b109f7115cbd,,,,,,,,,,,,,,space,16.7788,4,0,4,0,1,,,,,,,,,,,,,,,,,,,,,,,,,,,,,,,,,,,,,,,,,,,,,,,,
,6052b0d0dc7dc26036979852,001,2022-04-29_02h09.44.807,classification_task,2021.2.3,Win32,60.16847172,6052b0d0dc7dc26036979852,626b377229c10585ec392f89,626b3aa51b86b109f7115cbd,,,,,,,,,,,,,,,,,,,,,space,48.1645,a,1,7.8524,"[""0.191"",""0.488"",""0.374"",""0.950""]","[1,1,0,1]",0,0,0,0,1,0,1,,,1,FALSE,,,,,,,,,,,,,,,,,,,,,,,,,,,,,,
,6052b0d0dc7dc26036979852,001,2022-04-29_02h09.44.807,classification_task,2021.2.3,Win32,60.16847172,6052b0d0dc7dc26036979852,626b377229c10585ec392f89,626b3aa51b86b109f7115cbd,,,,,,,,,,,,,,,,,,,,,,,a,1,8.813,"[""0.238"",""0.804"",""0.635"",""0.891""]","[1,0,1,1]",0,1,1,1,1,0,0,,,1,FALSE,,,,,,,,,,,,,,,,,,,,,,,,,,,,,,
,6052b0d0dc7dc26036979852,001,2022-04-29_02h09.44.807,classification_task,2021.2.3,Win32,60.16847172,6052b0d0dc7dc26036979852,626b377229c10585ec392f89,626b3aa51b86b109f7115cbd,,,,,,,,,,,,,,,,,,,,,,,a,1,6.5749,"[""0.238"",""0.447"",""0.635"",""0.409""]","[1,1,1,0]",0,2,2,2,1,0,0,,,1,FALSE,,,,,,,,,,,,,,,,,,,,,,,,,,,,,,
,6052b0d0dc7dc26036979852,001,2022-04-29_02h09.44.807,classification_task,2021.2.3,Win32,60.16847172,6052b0d0dc7dc26036979852,626b377229c10585ec392f89,626b3aa51b86b109f7115cbd,,,,,,,,,,,,,,,,,,,,,,,a,1,5.2433,"[""0.334"",""0.447"",""0.635"",""0.891""]","[0,1,1,1]",0,3,3,3,1,0,0,,,1,FALSE,,,,,,,,,,,,,,,,,,,,,,,,,,,,,,
,6052b0d0dc7dc26036979852,001,2022-04-29_02h09.44.807,classification_task,2021.2.3,Win32,60.16847172,6052b0d0dc7dc26036979852,626b377229c10585ec392f89,626b3aa51b86b109f7115cbd,,,,,,,,,,,,,,,,,,,,,,,a,1,5.7523,"[""0.811"",""0.488"",""0.856"",""0.950""]","[0,1,1,1]",0,4,4,4,1,0,1,,,1,FALSE,,,,,,,,,,,,,,,,,,,,,,,,,,,,,,
,6052b0d0dc7dc26036979852,001,2022-04-29_02h09.44.807,classification_task,2021.2.3,Win32,60.16847172,6052b0d0dc7dc26036979852,626b377229c10585ec392f89,626b3aa51b86b109f7115cbd,,,,,,,,,,,,,,,,,,,,,,,a,1,3.8217,"[""0.238"",""0.447"",""0.374"",""0.891""]","[1,1,0,1]",0,5,5,5,1,0,0,,,1,FALSE,,,,,,,,,,,,,,,,,,,,,,,,,,,,,,
,6052b0d0dc7dc26036979852,001,2022-04-29_02h09.44.807,classification_task,2021.2.3,Win32,60.16847172,6052b0d0dc7dc26036979852,626b377229c10585ec392f89,626b3aa51b86b109f7115cbd,,,,,,,,,,,,,,,,,,,,,,,l,1,4.2919,"[""0.029"",""0.301"",""0.528"",""0.409""]","[1,1,1,0]",0,6,6,6,1,1,1,,,1,FALSE,,,,,,,,,,,,,,,,,,,,,,,,,,,,,,
,6052b0d0dc7dc26036979852,001,2022-04-29_02h09.44.807,classification_task,2021.2.3,Win32,60.16847172,6052b0d0dc7dc26036979852,626b377229c10585ec392f89,626b3aa51b86b109f7115cbd,,,,,,,,,,,,,,,,,,,,,,,l,1,8.992,"[""0.387"",""0.143"",""0.576"",""0.696""]","[0,1,1,1]",0,7,7,7,1,1,0,,,1,FALSE,,,,,,,,,,,,,,,,,,,,,,,,,,,,,,
,6052b0d0dc7dc26036979852,001,2022-04-29_02h09.44.807,classification_task,2021.2.3,Win32,60.16847172,6052b0d0dc7dc26036979852,626b377229c10585ec392f89,626b3aa51b86b109f7115cbd,,,,,,,,,,,,,,,,,,,,,,,l,1,4.7257,"[""0.084"",""0.143"",""0.576"",""0.375""]","[1,1,1,0]",0,8,8,8,1,1,0,,,1,FALSE,,,,,,,,,,,,,,,,,,,,,,,,,,,,,,
,6052b0d0dc7dc26036979852,001,2022-04-29_02h09.44.807,classification_task,2021.2.3,Win32,60.16847172,6052b0d0dc7dc26036979852,626b377229c10585ec392f89,626b3aa51b86b109f7115cbd,,,,,,,,,,,,,,,,,,,,,,,l,1,2.6705,"[""0.029"",""0.301"",""0.811"",""0.756""]","[1,1,0,1]",0,9,9,9,1,1,1,,,1,FALSE,,,,,,,,,,,,,,,,,,,,,,,,,,,,,,
,6052b0d0dc7dc26036979852,001,2022-04-29_02h09.44.807,classification_task,2021.2.3,Win32,60.16847172,6052b0d0dc7dc26036979852,626b377229c10585ec392f89,626b3aa51b86b109f7115cbd,,,,,,,,,,,,,,,,,,,,,,,l,1,2.6772,"[""0.029"",""0.387"",""0.528"",""0.756""]","[1,0,1,1]",0,10,10,10,1,1,1,,,1,FALSE,,,,,,,,,,,,,,,,,,,,,,,,,,,,,,
,6052b0d0dc7dc26036979852,001,2022-04-29_02h09.44.807,classification_task,2021.2.3,Win32,60.16847172,6052b0d0dc7dc26036979852,626b377229c10585ec392f89,626b3aa51b86b109f7115cbd,,,,,,,,,,,,,,,,,,,,,,,l,1,2.597,"[""0.084"",""0.143"",""0.374"",""0.696""]","[1,1,0,1]",0,11,11,11,1,1,0,,,1,FALSE,,,,,,,,,,,,,,,,,,,,,,,,,,,,,,
,6052b0d0dc7dc26036979852,001,2022-04-29_02h09.44.807,classification_task,2021.2.3,Win32,60.16847172,6052b0d0dc7dc26036979852,626b377229c10585ec392f89,626b3aa51b86b109f7115cbd,,,,,,,,,,,,,,,,,,,,,,,l,1,2.0099,"[""0.084"",""0.372"",""0.576"",""0.696""]","[1,0,1,1]",0,12,12,12,1,1,0,,,1,FALSE,,,,,,,,,,,,,,,,,,,,,,,,,,,,,,
,6052b0d0dc7dc26036979852,001,2022-04-29_02h09.44.807,classification_task,2021.2.3,Win32,60.16847172,6052b0d0dc7dc26036979852,626b377229c10585ec392f89,626b3aa51b86b109f7115cbd,,,,,,,,,,,,,,,,,,,,,,,a,1,5.4795,"[""0.191"",""0.387"",""0.856"",""0.950""]","[1,0,1,1]",0,13,13,13,1,0,1,,,1,FALSE,,,,,,,,,,,,,,,,,,,,,,,,,,,,,,
,6052b0d0dc7dc26036979852,001,2022-04-29_02h09.44.807,classification_task,2021.2.3,Win32,60.16847172,6052b0d0dc7dc26036979852,626b377229c10585ec392f89,626b3aa51b86b109f7115cbd,,,,,,,,,,,,,,,,,,,,,,,a,1,1.9756,"[""0.191"",""0.488"",""0.856"",""0.408""]","[1,1,1,0]",0,14,14,14,1,0,1,,,1,FALSE,,,,,,,,,,,,,,,,,,,,,,,,,,,,,,
,6052b0d0dc7dc26036979852,001,2022-04-29_02h09.44.807,classification_task,2021.2.3,Win32,60.16847172,6052b0d0dc7dc26036979852,626b377229c10585ec392f89,626b3aa51b86b109f7115cbd,,,,,,,,,,,,,,,,,,,,,,,l,1,4.8176,"[""0.387"",""0.301"",""0.528"",""0.756""]","[0,1,1,1]",0,15,15,15,1,1,1,,,1,FALSE,,,,,,,,,,,,,,,,,,,,,,,,,,,,,,
,6052b0d0dc7dc26036979852,001,2022-04-29_02h09.44.807,classification_task,2021.2.3,Win32,60.16847172,6052b0d0dc7dc26036979852,626b377229c10585ec392f89,626b3aa51b86b109f7115cbd,,,,,,,,,,,,,,,,,,,,,,,a,1,3.1203,"[""0.238"",""0.447"",""0.372"",""0.891""]","[1,1,0,1]",0,16,16,16,1,0,0,,,1,FALSE,,,,,,,,,,,,,,,,,,,,,,,,,,,,,,
,6052b0d0dc7dc26036979852,001,2022-04-29_02h09.44.807,classification_task,2021.2.3,Win32,60.16847172,6052b0d0dc7dc26036979852,626b377229c10585ec392f89,626b3aa51b86b109f7115cbd,,,,,,,,,,,,,,,,,,,,,,,l,1,3.8134,"[""0.084"",""0.143"",""0.576"",""0.334""]","[1,1,1,0]",0,17,17,17,1,1,0,,,1,FALSE,,,,,,,,,,,,,,,,,,,,,,,,,,,,,,
,6052b0d0dc7dc26036979852,001,2022-04-29_02h09.44.807,classification_task,2021.2.3,Win32,60.16847172,6052b0d0dc7dc26036979852,626b377229c10585ec392f89,626b3aa51b86b109f7115cbd,,,,,,,,,,,,,,,,,,,,,,,l,1,3.485,"[""0.406"",""0.143"",""0.576"",""0.696""]","[0,1,1,1]",0,18,18,18,1,1,0,,,1,FALSE,,,,,,,,,,,,,,,,,,,,,,,,,,,,,,
,6052b0d0dc7dc26036979852,001,2022-04-29_02h09.44.807,classification_task,2021.2.3,Win32,60.16847172,6052b0d0dc7dc26036979852,626b377229c10585ec392f89,626b3aa51b86b109f7115cbd,,,,,,,,,,,,,,,,,,,,,,,l,1,4.3622,"[""0.084"",""0.143"",""0.408"",""0.696""]","[1,1,0,1]",0,19,19,19,1,1,0,,,1,FALSE,,,,,,,,,,,,,,,,,,,,,,,,,,,,,,
,6052b0d0dc7dc26036979852,001,2022-04-29_02h09.44.807,classification_task,2021.2.3,Win32,60.16847172,6052b0d0dc7dc26036979852,626b377229c10585ec392f89,626b3aa51b86b109f7115cbd,,,,,,,,,,,,,,,,,,,,,,,a,1,2.4259,"[""0.238"",""0.447"",""0.635"",""0.342""]","[1,1,1,0]",0,20,20,20,1,0,0,,,1,FALSE,,,,,,,,,,,,,,,,,,,,,,,,,,,,,,
,6052b0d0dc7dc26036979852,001,2022-04-29_02h09.44.807,classification_task,2021.2.3,Win32,60.16847172,6052b0d0dc7dc26036979852,626b377229c10585ec392f89,626b3aa51b86b109f7115cbd,,,,,,,,,,,,,,,,,,,,,,,l,1,2.5391,"[""0.029"",""0.387"",""0.528"",""0.756""]","[1,0,1,1]",0,21,21,21,1,1,1,,,1,FALSE,,,,,,,,,,,,,,,,,,,,,,,,,,,,,,
,6052b0d0dc7dc26036979852,001,2022-04-29_02h09.44.807,classification_task,2021.2.3,Win32,60.16847172,6052b0d0dc7dc26036979852,626b377229c10585ec392f89,626b3aa51b86b109f7115cbd,,,,,,,,,,,,,,,,,,,,,,,l,1,8.1261,"[""0.336"",""0.301"",""0.528"",""0.756""]","[0,1,1,1]",0,22,22,22,1,1,1,,,1,FALSE,,,,,,,,,,,,,,,,,,,,,,,,,,,,,,
,6052b0d0dc7dc26036979852,001,2022-04-29_02h09.44.807,classification_task,2021.2.3,Win32,60.16847172,6052b0d0dc7dc26036979852,626b377229c10585ec392f89,626b3aa51b86b109f7115cbd,,,,,,,,,,,,,,,,,,,,,,,a,1,8.0928,"[""0.191"",""0.488"",""0.856"",""0.387""]","[1,1,1,0]",0,23,23,23,1,0,1,,,1,FALSE,,,,,,,,,,,,,,,,,,,,,,,,,,,,,,
,6052b0d0dc7dc26036979852,001,2022-04-29_02h09.44.807,classification_task,2021.2.3,Win32,60.16847172,6052b0d0dc7dc26036979852,626b377229c10585ec392f89,626b3aa51b86b109f7115cbd,,,,,,,,,,,,,,,,,,,,,,,a,1,6.3211,"[""0.392"",""0.447"",""0.635"",""0.891""]","[0,1,1,1]",0,24,24,24,1,0,0,,,1,FALSE,,,,,,,,,,,,,,,,,,,,,,,,,,,,,,
,6052b0d0dc7dc26036979852,001,2022-04-29_02h09.44.807,classification_task,2021.2.3,Win32,60.16847172,6052b0d0dc7dc26036979852,626b377229c10585ec392f89,626b3aa51b86b109f7115cbd,,,,,,,,,,,,,,,,,,,,,,,l,1,6.1,"[""0.084"",""0.342"",""0.576"",""0.696""]","[1,0,1,1]",0,25,25,25,1,1,0,,,1,FALSE,,,,,,,,,,,,,,,,,,,,,,,,,,,,,,
,6052b0d0dc7dc26036979852,001,2022-04-29_02h09.44.807,classification_task,2021.2.3,Win32,60.16847172,6052b0d0dc7dc26036979852,626b377229c10585ec392f89,626b3aa51b86b109f7115cbd,,,,,,,,,,,,,,,,,,,,,,,a,1,3.8206,"[""0.811"",""0.488"",""0.856"",""0.950""]","[0,1,1,1]",0,26,26,26,1,0,1,,,1,FALSE,,,,,,,,,,,,,,,,,,,,,,,,,,,,,,
,6052b0d0dc7dc26036979852,001,2022-04-29_02h09.44.807,classification_task,2021.2.3,Win32,60.16847172,6052b0d0dc7dc26036979852,626b377229c10585ec392f89,626b3aa51b86b109f7115cbd,,,,,,,,,,,,,,,,,,,,,,,a,1,6.4627,"[""0.191"",""0.379"",""0.856"",""0.950""]","[1,0,1,1]",0,27,27,27,1,0,1,,,1,FALSE,,,,,,,,,,,,,,,,,,,,,,,,,,,,,,
,6052b0d0dc7dc26036979852,001,2022-04-29_02h09.44.807,classification_task,2021.2.3,Win32,60.16847172,6052b0d0dc7dc26036979852,626b377229c10585ec392f89,626b3aa51b86b109f7115cbd,,,,,,,,,,,,,,,,,,,,,,,a,1,6.7086,"[""0.191"",""0.488"",""0.337"",""0.950""]","[1,1,0,1]",0,28,28,28,1,0,1,,,1,FALSE,,,,,,,,,,,,,,,,,,,,,,,,,,,,,,
,6052b0d0dc7dc26036979852,001,2022-04-29_02h09.44.807,classification_task,2021.2.3,Win32,60.16847172,6052b0d0dc7dc26036979852,626b377229c10585ec392f89,626b3aa51b86b109f7115cbd,,,,,,,,,,,,,,,,,,,,,,,l,1,1.7085,"[""0.029"",""0.301"",""0.528"",""0.342""]","[1,1,1,0]",0,29,29,29,1,1,1,,,1,FALSE,,,,,,,,,,,,,,,,,,,,,,,,,,,,,,
,6052b0d0dc7dc26036979852,001,2022-04-29_02h09.44.807,classification_task,2021.2.3,Win32,60.16847172,6052b0d0dc7dc26036979852,626b377229c10585ec392f89,626b3aa51b86b109f7115cbd,,,,,,,,,,,,,,,,,,,,,,,a,1,2.3707,"[""0.238"",""0.336"",""0.635"",""0.891""]","[1,0,1,1]",0,30,30,30,1,0,0,,,1,FALSE,,,,,,,,,,,,,,,,,,,,,,,,,,,,,,
,6052b0d0dc7dc26036979852,001,2022-04-29_02h09.44.807,classification_task,2021.2.3,Win32,60.16847172,6052b0d0dc7dc26036979852,626b377229c10585ec392f89,626b3aa51b86b109f7115cbd,,,,,,,,,,,,,,,,,,,,,,,l,1,1.6547,"[""0.029"",""0.301"",""0.387"",""0.756""]","[1,1,0,1]",0,31,31,31,1,1,1,,,1,FALSE,,,,,,,,,,,,,,,,,,,,,,,,,,,,,,
,6052b0d0dc7dc26036979852,001,2022-04-29_02h09.44.807,classification_task,2021.2.3,Win32,60.16847172,6052b0d0dc7dc26036979852,626b377229c10585ec392f89,626b3aa51b86b109f7115cbd,,,,,,,,,,,,,,,,,,,,,,,l,0,7.8375,"[""0.337"",""0.447"",""0.635"",""0.891""]","[0,1,1,1]",0,32,32,32,1,0,0,,,1,FALSE,,,,,,,,,,,,,,,,,,,,,,,,,,,,,,
,6052b0d0dc7dc26036979852,001,2022-04-29_02h09.44.807,classification_task,2021.2.3,Win32,60.16847172,6052b0d0dc7dc26036979852,626b377229c10585ec392f89,626b3aa51b86b109f7115cbd,,,,,,,,,,,,,,,,,,,,,,,a,0,2.6919,"[""0.804"",""0.301"",""0.528"",""0.756""]","[0,1,1,1]",0,33,33,33,1,1,1,,,1,FALSE,,,,,,,,,,,,,,,,,,,,,,,,,,,,,,
,6052b0d0dc7dc26036979852,001,2022-04-29_02h09.44.807,classification_task,2021.2.3,Win32,60.16847172,6052b0d0dc7dc26036979852,626b377229c10585ec392f89,626b3aa51b86b109f7115cbd,,,,,,,,,,,,,,,,,,,,,,,a,1,1.0815,"[""0.191"",""0.488"",""0.856"",""0.337""]","[1,1,1,0]",0,34,34,34,1,0,1,,,1,FALSE,,,,,,,,,,,,,,,,,,,,,,,,,,,,,,
,6052b0d0dc7dc26036979852,001,2022-04-29_02h09.44.807,classification_task,2021.2.3,Win32,60.16847172,6052b0d0dc7dc26036979852,626b377229c10585ec392f89,626b3aa51b86b109f7115cbd,,,,,,,,,,,,,,,,,,,,,,,a,1,1.1353,"[""0.238"",""0.447"",""0.635"",""0.379""]","[1,1,1,0]",0,35,35,35,1,0,0,,,1,FALSE,,,,,,,,,,,,,,,,,,,,,,,,,,,,,,
,6052b0d0dc7dc26036979852,001,2022-04-29_02h09.44.807,classification_task,2021.2.3,Win32,60.16847172,6052b0d0dc7dc26036979852,626b377229c10585ec392f89,626b3aa51b86b109f7115cbd,,,,,,,,,,,,,,,,,,,,,,,l,1,2.2565,"[""0.029"",""0.301"",""0.528"",""0.406""]","[1,1,1,0]",0,36,36,36,1,1,1,,,1,FALSE,,,,,,,,,,,,,,,,,,,,,,,,,,,,,,
,6052b0d0dc7dc26036979852,001,2022-04-29_02h09.44.807,classification_task,2021.2.3,Win32,60.16847172,6052b0d0dc7dc26036979852,626b377229c10585ec392f89,626b3aa51b86b109f7115cbd,,,,,,,,,,,,,,,,,,,,,,,a,1,1.317,"[""0.238"",""0.406"",""0.635"",""0.891""]","[1,0,1,1]",0,37,37,37,1,0,0,,,1,FALSE,,,,,,,,,,,,,,,,,,,,,,,,,,,,,,
,6052b0d0dc7dc26036979852,001,2022-04-29_02h09.44.807,classification_task,2021.2.3,Win32,60.16847172,6052b0d0dc7dc26036979852,626b377229c10585ec392f89,626b3aa51b86b109f7115cbd,,,,,,,,,,,,,,,,,,,,,,,l,1,1.0844,"[""0.029"",""0.811"",""0.528"",""0.756""]","[1,0,1,1]",0,38,38,38,1,1,1,,,1,FALSE,,,,,,,,,,,,,,,,,,,,,,,,,,,,,,
,6052b0d0dc7dc26036979852,001,2022-04-29_02h09.44.807,classification_task,2021.2.3,Win32,60.16847172,6052b0d0dc7dc26036979852,626b377229c10585ec392f89,626b3aa51b86b109f7115cbd,,,,,,,,,,,,,,,,,,,,,,,a,0,1.0347,"[""0.084"",""0.143"",""0.379"",""0.696""]","[1,1,0,1]",0,39,39,39,1,1,0,,,1,FALSE,,,,,,,,,,,,,,,,,,,,,,,,,,,,,,
,6052b0d0dc7dc26036979852,001,2022-04-29_02h09.44.807,classification_task,2021.2.3,Win32,60.16847172,6052b0d0dc7dc26036979852,626b377229c10585ec392f89,626b3aa51b86b109f7115cbd,,,,,,,,,,,,,,,,,,,,,,,l,0,1.4027,"[""0.191"",""0.488"",""0.408"",""0.950""]","[1,1,0,1]",0,40,40,40,1,0,1,,,1,FALSE,,,,,,,,,,,,,,,,,,,,,,,,,,,,,,
,6052b0d0dc7dc26036979852,001,2022-04-29_02h09.44.807,classification_task,2021.2.3,Win32,60.16847172,6052b0d0dc7dc26036979852,626b377229c10585ec392f89,626b3aa51b86b109f7115cbd,,,,,,,,,,,,,,,,,,,,,,,a,1,1.2184,"[""0.238"",""0.447"",""0.408"",""0.891""]","[1,1,0,1]",0,41,41,41,1,0,0,,,1,FALSE,,,,,,,,,,,,,,,,,,,,,,,,,,,,,,
,6052b0d0dc7dc26036979852,001,2022-04-29_02h09.44.807,classification_task,2021.2.3,Win32,60.16847172,6052b0d0dc7dc26036979852,626b377229c10585ec392f89,626b3aa51b86b109f7115cbd,,,,,,,,,,,,,,,,,,,,,,,l,1,1.6336,"[""0.409"",""0.143"",""0.576"",""0.696""]","[0,1,1,1]",0,42,42,42,1,1,0,,,1,FALSE,,,,,,,,,,,,,,,,,,,,,,,,,,,,,,
,6052b0d0dc7dc26036979852,001,2022-04-29_02h09.44.807,classification_task,2021.2.3,Win32,60.16847172,6052b0d0dc7dc26036979852,626b377229c10585ec392f89,626b3aa51b86b109f7115cbd,,,,,,,,,,,,,,,,,,,,,,,l,1,1.951,"[""0.084"",""0.143"",""0.576"",""0.811""]","[1,1,1,0]",0,43,43,43,1,1,0,,,1,FALSE,,,,,,,,,,,,,,,,,,,,,,,,,,,,,,
,6052b0d0dc7dc26036979852,001,2022-04-29_02h09.44.807,classification_task,2021.2.3,Win32,60.16847172,6052b0d0dc7dc26036979852,626b377229c10585ec392f89,626b3aa51b86b109f7115cbd,,,,,,,,,,,,,,,,,,,,,,,a,1,0.7054,"[""0.374"",""0.488"",""0.856"",""0.950""]","[0,1,1,1]",0,44,44,44,1,0,1,,,1,FALSE,,,,,,,,,,,,,,,,,,,,,,,,,,,,,,
,6052b0d0dc7dc26036979852,001,2022-04-29_02h09.44.807,classification_task,2021.2.3,Win32,60.16847172,6052b0d0dc7dc26036979852,626b377229c10585ec392f89,626b3aa51b86b109f7115cbd,,,,,,,,,,,,,,,,,,,,,,,a,1,1.6771,"[""0.191"",""0.813"",""0.856"",""0.950""]","[1,0,1,1]",0,45,45,45,1,0,1,,,1,FALSE,,,,,,,,,,,,,,,,,,,,,,,,,,,,,,
,6052b0d0dc7dc26036979852,001,2022-04-29_02h09.44.807,classification_task,2021.2.3,Win32,60.16847172,6052b0d0dc7dc26036979852,626b377229c10585ec392f89,626b3aa51b86b109f7115cbd,,,,,,,,,,,,,,,,,,,,,,,l,1,1.3861,"[""0.029"",""0.301"",""0.342"",""0.756""]","[1,1,0,1]",0,46,46,46,1,1,1,,,1,FALSE,,,,,,,,,,,,,,,,,,,,,,,,,,,,,,
,6052b0d0dc7dc26036979852,001,2022-04-29_02h09.44.807,classification_task,2021.2.3,Win32,60.16847172,6052b0d0dc7dc26036979852,626b377229c10585ec392f89,626b3aa51b86b109f7115cbd,,,,,,,,,,,,,,,,,,,,,,,l,1,1.9091,"[""0.084"",""0.813"",""0.576"",""0.696""]","[1,0,1,1]",0,47,47,47,1,1,0,,,1,FALSE,,,,,,,,,,,,,,,,,,,,,,,,,,,,,,
,6052b0d0dc7dc26036979852,001,2022-04-29_02h09.44.807,classification_task,2021.2.3,Win32,60.16847172,6052b0d0dc7dc26036979852,626b377229c10585ec392f89,626b3aa51b86b109f7115cbd,,,,,,,,,,,,,,,,,,,,,,,l,1,0.8848,"[""0.029"",""0.301"",""0.528"",""0.379""]","[1,1,1,0]",0,48,48,48,1,1,1,,,1,FALSE,,,,,,,,,,,,,,,,,,,,,,,,,,,,,,
,6052b0d0dc7dc26036979852,001,2022-04-29_02h09.44.807,classification_task,2021.2.3,Win32,60.16847172,6052b0d0dc7dc26036979852,626b377229c10585ec392f89,626b3aa51b86b109f7115cbd,,,,,,,,,,,,,,,,,,,,,,,a,1,0.8842,"[""0.191"",""0.488"",""0.856"",""0.804""]","[1,1,1,0]",0,49,49,49,1,0,1,,,1,FALSE,,,,,,,,,,,,,,,,,,,,,,,,,,,,,,
,6052b0d0dc7dc26036979852,001,2022-04-29_02h09.44.807,classification_task,2021.2.3,Win32,60.16847172,6052b0d0dc7dc26036979852,626b377229c10585ec392f89,626b3aa51b86b109f7115cbd,,,,,,,,,,,,,,,,,,,,,,,a,1,1.2516,"[""0.238"",""0.447"",""0.635"",""0.408""]","[1,1,1,0]",0,50,50,50,1,0,0,,,1,FALSE,,,,,,,,,,,,,,,,,,,,,,,,,,,,,,
,6052b0d0dc7dc26036979852,001,2022-04-29_02h09.44.807,classification_task,2021.2.3,Win32,60.16847172,6052b0d0dc7dc26036979852,626b377229c10585ec392f89,626b3aa51b86b109f7115cbd,,,,,,,,,,,,,,,,,,,,,,,a,1,0.8189,"[""0.238"",""0.447"",""0.408"",""0.891""]","[1,1,0,1]",0,51,51,51,1,0,0,,,1,FALSE,,,,,,,,,,,,,,,,,,,,,,,,,,,,,,
,6052b0d0dc7dc26036979852,001,2022-04-29_02h09.44.807,classification_task,2021.2.3,Win32,60.16847172,6052b0d0dc7dc26036979852,626b377229c10585ec392f89,626b3aa51b86b109f7115cbd,,,,,,,,,,,,,,,,,,,,,,,l,0,0.8733,"[""0.811"",""0.447"",""0.635"",""0.891""]","[0,1,1,1]",0,52,52,52,1,0,0,,,1,FALSE,,,,,,,,,,,,,,,,,,,,,,,,,,,,,,
,6052b0d0dc7dc26036979852,001,2022-04-29_02h09.44.807,classification_task,2021.2.3,Win32,60.16847172,6052b0d0dc7dc26036979852,626b377229c10585ec392f89,626b3aa51b86b109f7115cbd,,,,,,,,,,,,,,,,,,,,,,,l,1,1.467,"[""0.029"",""0.301"",""0.374"",""0.756""]","[1,1,0,1]",0,53,53,53,1,1,1,,,1,FALSE,,,,,,,,,,,,,,,,,,,,,,,,,,,,,,
,6052b0d0dc7dc26036979852,001,2022-04-29_02h09.44.807,classification_task,2021.2.3,Win32,60.16847172,6052b0d0dc7dc26036979852,626b377229c10585ec392f89,626b3aa51b86b109f7115cbd,,,,,,,,,,,,,,,,,,,,,,,a,0,1.051,"[""0.374"",""0.143"",""0.576"",""0.696""]","[0,1,1,1]",0,54,54,54,1,1,0,,,1,FALSE,,,,,,,,,,,,,,,,,,,,,,,,,,,,,,
,6052b0d0dc7dc26036979852,001,2022-04-29_02h09.44.807,classification_task,2021.2.3,Win32,60.16847172,6052b0d0dc7dc26036979852,626b377229c10585ec392f89,626b3aa51b86b109f7115cbd,,,,,,,,,,,,,,,,,,,,,,,a,0,0.8348,"[""0.084"",""0.143"",""0.576"",""0.372""]","[1,1,1,0]",0,55,55,55,1,1,0,,,1,FALSE,,,,,,,,,,,,,,,,,,,,,,,,,,,,,,
,6052b0d0dc7dc26036979852,001,2022-04-29_02h09.44.807,classification_task,2021.2.3,Win32,60.16847172,6052b0d0dc7dc26036979852,626b377229c10585ec392f89,626b3aa51b86b109f7115cbd,,,,,,,,,,,,,,,,,,,,,,,l,1,1.0831,"[""0.029"",""0.387"",""0.528"",""0.756""]","[1,0,1,1]",0,56,56,56,1,1,1,,,1,FALSE,,,,,,,,,,,,,,,,,,,,,,,,,,,,,,
,6052b0d0dc7dc26036979852,001,2022-04-29_02h09.44.807,classification_task,2021.2.3,Win32,60.16847172,6052b0d0dc7dc26036979852,626b377229c10585ec392f89,626b3aa51b86b109f7115cbd,,,,,,,,,,,,,,,,,,,,,,,a,0,0.9072,"[""0.387"",""0.301"",""0.528"",""0.756""]","[0,1,1,1]",0,57,57,57,1,1,1,,,1,FALSE,,,,,,,,,,,,,,,,,,,,,,,,,,,,,,
,6052b0d0dc7dc26036979852,001,2022-04-29_02h09.44.807,classification_task,2021.2.3,Win32,60.16847172,6052b0d0dc7dc26036979852,626b377229c10585ec392f89,626b3aa51b86b109f7115cbd,,,,,,,,,,,,,,,,,,,,,,,l,1,1.0844,"[""0.084"",""0.143"",""0.379"",""0.696""]","[1,1,0,1]",0,58,58,58,1,1,0,,,1,FALSE,,,,,,,,,,,,,,,,,,,,,,,,,,,,,,
,6052b0d0dc7dc26036979852,001,2022-04-29_02h09.44.807,classification_task,2021.2.3,Win32,60.16847172,6052b0d0dc7dc26036979852,626b377229c10585ec392f89,626b3aa51b86b109f7115cbd,,,,,,,,,,,,,,,,,,,,,,,l,0,1.1073,"[""0.191"",""0.811"",""0.856"",""0.950""]","[1,0,1,1]",0,59,59,59,1,0,1,,,1,FALSE,,,,,,,,,,,,,,,,,,,,,,,,,,,,,,
,6052b0d0dc7dc26036979852,001,2022-04-29_02h09.44.807,classification_task,2021.2.3,Win32,60.16847172,6052b0d0dc7dc26036979852,626b377229c10585ec392f89,626b3aa51b86b109f7115cbd,,,,,,,,,,,,,,,,,,,,,,,a,1,0.959,"[""0.406"",""0.488"",""0.856"",""0.950""]","[0,1,1,1]",0,60,60,60,1,0,1,,,1,FALSE,,,,,,,,,,,,,,,,,,,,,,,,,,,,,,
,6052b0d0dc7dc26036979852,001,2022-04-29_02h09.44.807,classification_task,2021.2.3,Win32,60.16847172,6052b0d0dc7dc26036979852,626b377229c10585ec392f89,626b3aa51b86b109f7115cbd,,,,,,,,,,,,,,,,,,,,,,,a,1,0.9175,"[""0.238"",""0.375"",""0.635"",""0.891""]","[1,0,1,1]",0,61,61,61,1,0,0,,,1,FALSE,,,,,,,,,,,,,,,,,,,,,,,,,,,,,,
,6052b0d0dc7dc26036979852,001,2022-04-29_02h09.44.807,classification_task,2021.2.3,Win32,60.16847172,6052b0d0dc7dc26036979852,626b377229c10585ec392f89,626b3aa51b86b109f7115cbd,,,,,,,,,,,,,,,,,,,,,,,l,0,1.751,"[""0.191"",""0.488"",""0.409"",""0.950""]","[1,1,0,1]",0,62,62,62,1,0,1,,,1,FALSE,,,,,,,,,,,,,,,,,,,,,,,,,,,,,,
,6052b0d0dc7dc26036979852,001,2022-04-29_02h09.44.807,classification_task,2021.2.3,Win32,60.16847172,6052b0d0dc7dc26036979852,626b377229c10585ec392f89,626b3aa51b86b109f7115cbd,,,,,,,,,,,,,,,,,,,,,,,l,1,1.5317,"[""0.084"",""0.409"",""0.576"",""0.696""]","[1,0,1,1]",0,63,63,63,1,1,0,,,1,FALSE,,,,,,,,,,,,,,,,,,,,,,,,,,,,,,
,6052b0d0dc7dc26036979852,001,2022-04-29_02h09.44.807,classification_task,2021.2.3,Win32,60.16847172,6052b0d0dc7dc26036979852,626b377229c10585ec392f89,626b3aa51b86b109f7115cbd,,,,,,,,,,,,,,,,,,,,,,,,,,,,,,,,,,,,,,,0, ,,0,4.485596708,528.434,0,0,0,0,1,2,1,,,,,,,,,,,,,,,,,
,6052b0d0dc7dc26036979852,001,2022-04-29_02h09.44.807,classification_task,2021.2.3,Win32,60.16847172,6052b0d0dc7dc26036979852,626b377229c10585ec392f89,626b3aa51b86b109f7115cbd,,,,,,,,,,,,,,,,,,,,,,,,,,,,,,,,,,,,,,,1,  ,,0,2.893396042,534.3493,0,0,0,0,1,2,1,,,,,,,,,,,,,,,,,
,6052b0d0dc7dc26036979852,001,2022-04-29_02h09.44.807,classification_task,2021.2.3,Win32,60.16847172,6052b0d0dc7dc26036979852,626b377229c10585ec392f89,626b3aa51b86b109f7115cbd,,,,,,,,,,,,,,,,,,,,,,,,,,,,,,,,,,,,,,,2,  ,,0,1.056241427,521.8996,0,0,0,0,1,2,1,,,,,,,,,,,,,,,,,
,6052b0d0dc7dc26036979852,001,2022-04-29_02h09.44.807,classification_task,2021.2.3,Win32,60.16847172,6052b0d0dc7dc26036979852,626b377229c10585ec392f89,626b3aa51b86b109f7115cbd,,,,,,,,,,,,,,,,,,,,,,,,,,,,,,,,,,,,,,,,,,,,,0,0,0,0,1,,1,,,,,,,,,,,,,,,,,
,6052b0d0dc7dc26036979852,001,2022-04-29_02h09.44.807,classification_task,2021.2.3,Win32,60.16847172,6052b0d0dc7dc26036979852,626b377229c10585ec392f89,626b3aa51b86b109f7115cbd,,,,,,,,,,,,,,,,,,,,,space,11.6925,a,1,8.4176,"[""0.238"",""0.447"",""0.635"",""0.392""]","[1,1,1,0]",0,0,0,0,1,0,0,,,1,FALSE,,,,,,,,,,,,,,,,,,,,,,,,,,,,,,
,6052b0d0dc7dc26036979852,001,2022-04-29_02h09.44.807,classification_task,2021.2.3,Win32,60.16847172,6052b0d0dc7dc26036979852,626b377229c10585ec392f89,626b3aa51b86b109f7115cbd,,,,,,,,,,,,,,,,,,,,,,,a,1,4.5574,"[""0.191"",""0.392"",""0.856"",""0.950""]","[1,0,1,1]",0,1,1,1,1,0,1,,,1,FALSE,,,,,,,,,,,,,,,,,,,,,,,,,,,,,,
,6052b0d0dc7dc26036979852,001,2022-04-29_02h09.44.807,classification_task,2021.2.3,Win32,60.16847172,6052b0d0dc7dc26036979852,626b377229c10585ec392f89,626b3aa51b86b109f7115cbd,,,,,,,,,,,,,,,,,,,,,,,a,1,1.8985,"[""0.238"",""0.804"",""0.635"",""0.891""]","[1,0,1,1]",0,2,2,2,1,0,0,,,1,FALSE,,,,,,,,,,,,,,,,,,,,,,,,,,,,,,
,6052b0d0dc7dc26036979852,001,2022-04-29_02h09.44.807,classification_task,2021.2.3,Win32,60.16847172,6052b0d0dc7dc26036979852,626b377229c10585ec392f89,626b3aa51b86b109f7115cbd,,,,,,,,,,,,,,,,,,,,,,,a,1,0.72,"[""0.238"",""0.447"",""0.406"",""0.891""]","[1,1,0,1]",0,3,3,3,1,0,0,,,1,FALSE,,,,,,,,,,,,,,,,,,,,,,,,,,,,,,
,6052b0d0dc7dc26036979852,001,2022-04-29_02h09.44.807,classification_task,2021.2.3,Win32,60.16847172,6052b0d0dc7dc26036979852,626b377229c10585ec392f89,626b3aa51b86b109f7115cbd,,,,,,,,,,,,,,,,,,,,,,,a,1,1.5333,"[""0.191"",""0.488"",""0.856"",""0.342""]","[1,1,1,0]",0,4,4,4,1,0,1,,,1,FALSE,,,,,,,,,,,,,,,,,,,,,,,,,,,,,,
,6052b0d0dc7dc26036979852,001,2022-04-29_02h09.44.807,classification_task,2021.2.3,Win32,60.16847172,6052b0d0dc7dc26036979852,626b377229c10585ec392f89,626b3aa51b86b109f7115cbd,,,,,,,,,,,,,,,,,,,,,,,l,1,1.0277,"[""0.084"",""0.143"",""0.576"",""0.375""]","[1,1,1,0]",0,5,5,5,1,1,0,,,1,FALSE,,,,,,,,,,,,,,,,,,,,,,,,,,,,,,
,6052b0d0dc7dc26036979852,001,2022-04-29_02h09.44.807,classification_task,2021.2.3,Win32,60.16847172,6052b0d0dc7dc26036979852,626b377229c10585ec392f89,626b3aa51b86b109f7115cbd,,,,,,,,,,,,,,,,,,,,,,,a,1,2.339,"[""0.406"",""0.447"",""0.635"",""0.891""]","[0,1,1,1]",0,6,6,6,1,0,0,,,1,FALSE,,,,,,,,,,,,,,,,,,,,,,,,,,,,,,
,6052b0d0dc7dc26036979852,001,2022-04-29_02h09.44.807,classification_task,2021.2.3,Win32,60.16847172,6052b0d0dc7dc26036979852,626b377229c10585ec392f89,626b3aa51b86b109f7115cbd,,,,,,,,,,,,,,,,,,,,,,,l,1,0.983,"[""0.029"",""0.301"",""0.408"",""0.756""]","[1,1,0,1]",0,7,7,7,1,1,1,,,1,FALSE,,,,,,,,,,,,,,,,,,,,,,,,,,,,,,
,6052b0d0dc7dc26036979852,001,2022-04-29_02h09.44.807,classification_task,2021.2.3,Win32,60.16847172,6052b0d0dc7dc26036979852,626b377229c10585ec392f89,626b3aa51b86b109f7115cbd,,,,,,,,,,,,,,,,,,,,,,,l,1,2.6507,"[""0.387"",""0.143"",""0.576"",""0.696""]","[0,1,1,1]",0,8,8,8,1,1,0,,,1,FALSE,,,,,,,,,,,,,,,,,,,,,,,,,,,,,,
,6052b0d0dc7dc26036979852,001,2022-04-29_02h09.44.807,classification_task,2021.2.3,Win32,60.16847172,6052b0d0dc7dc26036979852,626b377229c10585ec392f89,626b3aa51b86b109f7115cbd,,,,,,,,,,,,,,,,,,,,,,,l,1,1.034,"[""0.084"",""0.392"",""0.576"",""0.696""]","[1,0,1,1]",0,9,9,9,1,1,0,,,1,FALSE,,,,,,,,,,,,,,,,,,,,,,,,,,,,,,
,6052b0d0dc7dc26036979852,001,2022-04-29_02h09.44.807,classification_task,2021.2.3,Win32,60.16847172,6052b0d0dc7dc26036979852,626b377229c10585ec392f89,626b3aa51b86b109f7115cbd,,,,,,,,,,,,,,,,,,,,,,,l,1,0.9016,"[""0.084"",""0.143"",""0.374"",""0.696""]","[1,1,0,1]",0,10,10,10,1,1,0,,,1,FALSE,,,,,,,,,,,,,,,,,,,,,,,,,,,,,,
,6052b0d0dc7dc26036979852,001,2022-04-29_02h09.44.807,classification_task,2021.2.3,Win32,60.16847172,6052b0d0dc7dc26036979852,626b377229c10585ec392f89,626b3aa51b86b109f7115cbd,,,,,,,,,,,,,,,,,,,,,,,a,0,1.973,"[""0.336"",""0.301"",""0.528"",""0.756""]","[0,1,1,1]",0,11,11,11,1,1,1,,,1,FALSE,,,,,,,,,,,,,,,,,,,,,,,,,,,,,,
,6052b0d0dc7dc26036979852,001,2022-04-29_02h09.44.807,classification_task,2021.2.3,Win32,60.16847172,6052b0d0dc7dc26036979852,626b377229c10585ec392f89,626b3aa51b86b109f7115cbd,,,,,,,,,,,,,,,,,,,,,,,l,1,1.1488,"[""0.029"",""0.301"",""0.528"",""0.342""]","[1,1,1,0]",0,12,12,12,1,1,1,,,1,FALSE,,,,,,,,,,,,,,,,,,,,,,,,,,,,,,
,6052b0d0dc7dc26036979852,001,2022-04-29_02h09.44.807,classification_task,2021.2.3,Win32,60.16847172,6052b0d0dc7dc26036979852,626b377229c10585ec392f89,626b3aa51b86b109f7115cbd,,,,,,,,,,,,,,,,,,,,,,,l,0,1.0229,"[""0.342"",""0.488"",""0.856"",""0.950""]","[0,1,1,1]",0,13,13,13,1,0,1,,,1,FALSE,,,,,,,,,,,,,,,,,,,,,,,,,,,,,,
,6052b0d0dc7dc26036979852,001,2022-04-29_02h09.44.807,classification_task,2021.2.3,Win32,60.16847172,6052b0d0dc7dc26036979852,626b377229c10585ec392f89,626b3aa51b86b109f7115cbd,,,,,,,,,,,,,,,,,,,,,,,l,1,0.8061,"[""0.029"",""0.813"",""0.528"",""0.756""]","[1,0,1,1]",0,14,14,14,1,1,1,,,1,FALSE,,,,,,,,,,,,,,,,,,,,,,,,,,,,,,
,6052b0d0dc7dc26036979852,001,2022-04-29_02h09.44.807,classification_task,2021.2.3,Win32,60.16847172,6052b0d0dc7dc26036979852,626b377229c10585ec392f89,626b3aa51b86b109f7115cbd,,,,,,,,,,,,,,,,,,,,,,,l,0,1.4054,"[""0.191"",""0.488"",""0.387"",""0.950""]","[1,1,0,1]",0,15,15,15,1,0,1,,,1,FALSE,,,,,,,,,,,,,,,,,,,,,,,,,,,,,,
,6052b0d0dc7dc26036979852,001,2022-04-29_02h09.44.807,classification_task,2021.2.3,Win32,60.16847172,6052b0d0dc7dc26036979852,626b377229c10585ec392f89,626b3aa51b86b109f7115cbd,,,,,,,,,,,,,,,,,,,,,,,a,1,0.5675,"[""0.191"",""0.488"",""0.856"",""0.374""]","[1,1,1,0]",0,16,16,16,1,0,1,,,1,FALSE,,,,,,,,,,,,,,,,,,,,,,,,,,,,,,
,6052b0d0dc7dc26036979852,001,2022-04-29_02h09.44.807,classification_task,2021.2.3,Win32,60.16847172,6052b0d0dc7dc26036979852,626b377229c10585ec392f89,626b3aa51b86b109f7115cbd,,,,,,,,,,,,,,,,,,,,,,,a,1,0.5015,"[""0.191"",""0.488"",""0.387"",""0.950""]","[1,1,0,1]",0,17,17,17,1,0,1,,,1,FALSE,,,,,,,,,,,,,,,,,,,,,,,,,,,,,,
,6052b0d0dc7dc26036979852,001,2022-04-29_02h09.44.807,classification_task,2021.2.3,Win32,60.16847172,6052b0d0dc7dc26036979852,626b377229c10585ec392f89,626b3aa51b86b109f7115cbd,,,,,,,,,,,,,,,,,,,,,,,l,1,0.8015,"[""0.084"",""0.143"",""0.576"",""0.342""]","[1,1,1,0]",0,18,18,18,1,1,0,,,1,FALSE,,,,,,,,,,,,,,,,,,,,,,,,,,,,,,
,6052b0d0dc7dc26036979852,001,2022-04-29_02h09.44.807,classification_task,2021.2.3,Win32,60.16847172,6052b0d0dc7dc26036979852,626b377229c10585ec392f89,626b3aa51b86b109f7115cbd,,,,,,,,,,,,,,,,,,,,,,,l,1,1.0176,"[""0.334"",""0.143"",""0.576"",""0.696""]","[0,1,1,1]",0,19,19,19,1,1,0,,,1,FALSE,,,,,,,,,,,,,,,,,,,,,,,,,,,,,,
,6052b0d0dc7dc26036979852,001,2022-04-29_02h09.44.807,classification_task,2021.2.3,Win32,60.16847172,6052b0d0dc7dc26036979852,626b377229c10585ec392f89,626b3aa51b86b109f7115cbd,,,,,,,,,,,,,,,,,,,,,,,l,1,0.9017,"[""0.084"",""0.387"",""0.576"",""0.696""]","[1,0,1,1]",0,20,20,20,1,1,0,,,1,FALSE,,,,,,,,,,,,,,,,,,,,,,,,,,,,,,
,6052b0d0dc7dc26036979852,001,2022-04-29_02h09.44.807,classification_task,2021.2.3,Win32,60.16847172,6052b0d0dc7dc26036979852,626b377229c10585ec392f89,626b3aa51b86b109f7115cbd,,,,,,,,,,,,,,,,,,,,,,,l,1,0.7871,"[""0.029"",""0.813"",""0.528"",""0.756""]","[1,0,1,1]",0,21,21,21,1,1,1,,,1,FALSE,,,,,,,,,,,,,,,,,,,,,,,,,,,,,,
,6052b0d0dc7dc26036979852,001,2022-04-29_02h09.44.807,classification_task,2021.2.3,Win32,60.16847172,6052b0d0dc7dc26036979852,626b377229c10585ec392f89,626b3aa51b86b109f7115cbd,,,,,,,,,,,,,,,,,,,,,,,l,1,0.7717,"[""0.084"",""0.143"",""0.372"",""0.696""]","[1,1,0,1]",0,22,22,22,1,1,0,,,1,FALSE,,,,,,,,,,,,,,,,,,,,,,,,,,,,,,
,6052b0d0dc7dc26036979852,001,2022-04-29_02h09.44.807,classification_task,2021.2.3,Win32,60.16847172,6052b0d0dc7dc26036979852,626b377229c10585ec392f89,626b3aa51b86b109f7115cbd,,,,,,,,,,,,,,,,,,,,,,,l,1,0.6356,"[""0.029"",""0.301"",""0.528"",""0.379""]","[1,1,1,0]",0,23,23,23,1,1,1,,,1,FALSE,,,,,,,,,,,,,,,,,,,,,,,,,,,,,,
,6052b0d0dc7dc26036979852,001,2022-04-29_02h09.44.807,classification_task,2021.2.3,Win32,60.16847172,6052b0d0dc7dc26036979852,626b377229c10585ec392f89,626b3aa51b86b109f7115cbd,,,,,,,,,,,,,,,,,,,,,,,a,1,1.0904,"[""0.191"",""0.372"",""0.856"",""0.950""]","[1,0,1,1]",0,24,24,24,1,0,1,,,1,FALSE,,,,,,,,,,,,,,,,,,,,,,,,,,,,,,
,6052b0d0dc7dc26036979852,001,2022-04-29_02h09.44.807,classification_task,2021.2.3,Win32,60.16847172,6052b0d0dc7dc26036979852,626b377229c10585ec392f89,626b3aa51b86b109f7115cbd,,,,,,,,,,,,,,,,,,,,,,,a,1,0.6067,"[""0.238"",""0.447"",""0.408"",""0.891""]","[1,1,0,1]",0,25,25,25,1,0,0,,,1,FALSE,,,,,,,,,,,,,,,,,,,,,,,,,,,,,,
,6052b0d0dc7dc26036979852,001,2022-04-29_02h09.44.807,classification_task,2021.2.3,Win32,60.16847172,6052b0d0dc7dc26036979852,626b377229c10585ec392f89,626b3aa51b86b109f7115cbd,,,,,,,,,,,,,,,,,,,,,,,a,1,0.8346,"[""0.406"",""0.447"",""0.635"",""0.891""]","[0,1,1,1]",0,26,26,26,1,0,0,,,1,FALSE,,,,,,,,,,,,,,,,,,,,,,,,,,,,,,
,6052b0d0dc7dc26036979852,001,2022-04-29_02h09.44.807,classification_task,2021.2.3,Win32,60.16847172,6052b0d0dc7dc26036979852,626b377229c10585ec392f89,626b3aa51b86b109f7115cbd,,,,,,,,,,,,,,,,,,,,,,,a,0,0.7177,"[""0.387"",""0.301"",""0.528"",""0.756""]","[0,1,1,1]",0,27,27,27,1,1,1,,,1,FALSE,,,,,,,,,,,,,,,,,,,,,,,,,,,,,,
,6052b0d0dc7dc26036979852,001,2022-04-29_02h09.44.807,classification_task,2021.2.3,Win32,60.16847172,6052b0d0dc7dc26036979852,626b377229c10585ec392f89,626b3aa51b86b109f7115cbd,,,,,,,,,,,,,,,,,,,,,,,l,1,0.8235,"[""0.029"",""0.301"",""0.811"",""0.756""]","[1,1,0,1]",0,28,28,28,1,1,1,,,1,FALSE,,,,,,,,,,,,,,,,,,,,,,,,,,,,,,
,6052b0d0dc7dc26036979852,001,2022-04-29_02h09.44.807,classification_task,2021.2.3,Win32,60.16847172,6052b0d0dc7dc26036979852,626b377229c10585ec392f89,626b3aa51b86b109f7115cbd,,,,,,,,,,,,,,,,,,,,,,,a,1,0.9573,"[""0.238"",""0.447"",""0.635"",""0.387""]","[1,1,1,0]",0,29,29,29,1,0,0,,,1,FALSE,,,,,,,,,,,,,,,,,,,,,,,,,,,,,,
,6052b0d0dc7dc26036979852,001,2022-04-29_02h09.44.807,classification_task,2021.2.3,Win32,60.16847172,6052b0d0dc7dc26036979852,626b377229c10585ec392f89,626b3aa51b86b109f7115cbd,,,,,,,,,,,,,,,,,,,,,,,a,1,0.7197,"[""0.238"",""0.811"",""0.635"",""0.891""]","[1,0,1,1]",0,30,30,30,1,0,0,,,1,FALSE,,,,,,,,,,,,,,,,,,,,,,,,,,,,,,
,6052b0d0dc7dc26036979852,001,2022-04-29_02h09.44.807,classification_task,2021.2.3,Win32,60.16847172,6052b0d0dc7dc26036979852,626b377229c10585ec392f89,626b3aa51b86b109f7115cbd,,,,,,,,,,,,,,,,,,,,,,,l,0,2.2499,"[""0.811"",""0.488"",""0.856"",""0.950""]","[0,1,1,1]",0,31,31,31,1,0,1,,,1,FALSE,,,,,,,,,,,,,,,,,,,,,,,,,,,,,,
,6052b0d0dc7dc26036979852,001,2022-04-29_02h09.44.807,classification_task,2021.2.3,Win32,60.16847172,6052b0d0dc7dc26036979852,626b377229c10585ec392f89,626b3aa51b86b109f7115cbd,,,,,,,,,,,,,,,,,,,,,,,l,1,0.7672,"[""0.029"",""0.301"",""0.813"",""0.756""]","[1,1,0,1]",0,32,32,32,1,1,1,,,1,FALSE,,,,,,,,,,,,,,,,,,,,,,,,,,,,,,
,6052b0d0dc7dc26036979852,001,2022-04-29_02h09.44.807,classification_task,2021.2.3,Win32,60.16847172,6052b0d0dc7dc26036979852,626b377229c10585ec392f89,626b3aa51b86b109f7115cbd,,,,,,,,,,,,,,,,,,,,,,,l,1,0.6174,"[""0.029"",""0.392"",""0.528"",""0.756""]","[1,0,1,1]",0,33,33,33,1,1,1,,,1,FALSE,,,,,,,,,,,,,,,,,,,,,,,,,,,,,,
,6052b0d0dc7dc26036979852,001,2022-04-29_02h09.44.807,classification_task,2021.2.3,Win32,60.16847172,6052b0d0dc7dc26036979852,626b377229c10585ec392f89,626b3aa51b86b109f7115cbd,,,,,,,,,,,,,,,,,,,,,,,l,1,0.7355,"[""0.084"",""0.143"",""0.576"",""0.387""]","[1,1,1,0]",0,34,34,34,1,1,0,,,1,FALSE,,,,,,,,,,,,,,,,,,,,,,,,,,,,,,
,6052b0d0dc7dc26036979852,001,2022-04-29_02h09.44.807,classification_task,2021.2.3,Win32,60.16847172,6052b0d0dc7dc26036979852,626b377229c10585ec392f89,626b3aa51b86b109f7115cbd,,,,,,,,,,,,,,,,,,,,,,,a,1,0.81,"[""0.191"",""0.488"",""0.856"",""0.334""]","[1,1,1,0]",0,35,35,35,1,0,1,,,1,FALSE,,,,,,,,,,,,,,,,,,,,,,,,,,,,,,
,6052b0d0dc7dc26036979852,001,2022-04-29_02h09.44.807,classification_task,2021.2.3,Win32,60.16847172,6052b0d0dc7dc26036979852,626b377229c10585ec392f89,626b3aa51b86b109f7115cbd,,,,,,,,,,,,,,,,,,,,,,,a,1,1.241,"[""0.804"",""0.488"",""0.856"",""0.950""]","[0,1,1,1]",0,36,36,36,1,0,1,,,1,FALSE,,,,,,,,,,,,,,,,,,,,,,,,,,,,,,
,6052b0d0dc7dc26036979852,001,2022-04-29_02h09.44.807,classification_task,2021.2.3,Win32,60.16847172,6052b0d0dc7dc26036979852,626b377229c10585ec392f89,626b3aa51b86b109f7115cbd,,,,,,,,,,,,,,,,,,,,,,,l,1,0.8308,"[""0.029"",""0.301"",""0.528"",""0.406""]","[1,1,1,0]",0,37,37,37,1,1,1,,,1,FALSE,,,,,,,,,,,,,,,,,,,,,,,,,,,,,,
,6052b0d0dc7dc26036979852,001,2022-04-29_02h09.44.807,classification_task,2021.2.3,Win32,60.16847172,6052b0d0dc7dc26036979852,626b377229c10585ec392f89,626b3aa51b86b109f7115cbd,,,,,,,,,,,,,,,,,,,,,,,a,1,0.8695,"[""0.238"",""0.372"",""0.635"",""0.891""]","[1,0,1,1]",0,38,38,38,1,0,0,,,1,FALSE,,,,,,,,,,,,,,,,,,,,,,,,,,,,,,
,6052b0d0dc7dc26036979852,001,2022-04-29_02h09.44.807,classification_task,2021.2.3,Win32,60.16847172,6052b0d0dc7dc26036979852,626b377229c10585ec392f89,626b3aa51b86b109f7115cbd,,,,,,,,,,,,,,,,,,,,,,,a,0,1.5865,"[""0.406"",""0.143"",""0.576"",""0.696""]","[0,1,1,1]",0,39,39,39,1,1,0,,,1,FALSE,,,,,,,,,,,,,,,,,,,,,,,,,,,,,,
,6052b0d0dc7dc26036979852,001,2022-04-29_02h09.44.807,classification_task,2021.2.3,Win32,60.16847172,6052b0d0dc7dc26036979852,626b377229c10585ec392f89,626b3aa51b86b109f7115cbd,,,,,,,,,,,,,,,,,,,,,,,a,0,0.7297,"[""0.811"",""0.301"",""0.528"",""0.756""]","[0,1,1,1]",0,40,40,40,1,1,1,,,1,FALSE,,,,,,,,,,,,,,,,,,,,,,,,,,,,,,
,6052b0d0dc7dc26036979852,001,2022-04-29_02h09.44.807,classification_task,2021.2.3,Win32,60.16847172,6052b0d0dc7dc26036979852,626b377229c10585ec392f89,626b3aa51b86b109f7115cbd,,,,,,,,,,,,,,,,,,,,,,,a,1,3.3344,"[""0.408"",""0.447"",""0.635"",""0.891""]","[0,1,1,1]",0,41,41,41,1,0,0,,,1,FALSE,,,,,,,,,,,,,,,,,,,,,,,,,,,,,,
,6052b0d0dc7dc26036979852,001,2022-04-29_02h09.44.807,classification_task,2021.2.3,Win32,60.16847172,6052b0d0dc7dc26036979852,626b377229c10585ec392f89,626b3aa51b86b109f7115cbd,,,,,,,,,,,,,,,,,,,,,,,l,0,2.1505,"[""0.191"",""0.409"",""0.856"",""0.950""]","[1,0,1,1]",0,42,42,42,1,0,1,,,1,FALSE,,,,,,,,,,,,,,,,,,,,,,,,,,,,,,
,6052b0d0dc7dc26036979852,001,2022-04-29_02h09.44.807,classification_task,2021.2.3,Win32,60.16847172,6052b0d0dc7dc26036979852,626b377229c10585ec392f89,626b3aa51b86b109f7115cbd,,,,,,,,,,,,,,,,,,,,,,,l,1,0.7683,"[""0.084"",""0.143"",""0.342"",""0.696""]","[1,1,0,1]",0,43,43,43,1,1,0,,,1,FALSE,,,,,,,,,,,,,,,,,,,,,,,,,,,,,,
,6052b0d0dc7dc26036979852,001,2022-04-29_02h09.44.807,classification_task,2021.2.3,Win32,60.16847172,6052b0d0dc7dc26036979852,626b377229c10585ec392f89,626b3aa51b86b109f7115cbd,,,,,,,,,,,,,,,,,,,,,,,a,1,0.7533,"[""0.191"",""0.488"",""0.409"",""0.950""]","[1,1,0,1]",0,44,44,44,1,0,1,,,1,FALSE,,,,,,,,,,,,,,,,,,,,,,,,,,,,,,
,6052b0d0dc7dc26036979852,001,2022-04-29_02h09.44.807,classification_task,2021.2.3,Win32,60.16847172,6052b0d0dc7dc26036979852,626b377229c10585ec392f89,626b3aa51b86b109f7115cbd,,,,,,,,,,,,,,,,,,,,,,,a,1,0.6333,"[""0.238"",""0.447"",""0.387"",""0.891""]","[1,1,0,1]",0,45,45,45,1,0,0,,,1,FALSE,,,,,,,,,,,,,,,,,,,,,,,,,,,,,,
,6052b0d0dc7dc26036979852,001,2022-04-29_02h09.44.807,classification_task,2021.2.3,Win32,60.16847172,6052b0d0dc7dc26036979852,626b377229c10585ec392f89,626b3aa51b86b109f7115cbd,,,,,,,,,,,,,,,,,,,,,,,a,1,0.484,"[""0.238"",""0.447"",""0.635"",""0.387""]","[1,1,1,0]",0,46,46,46,1,0,0,,,1,FALSE,,,,,,,,,,,,,,,,,,,,,,,,,,,,,,
,6052b0d0dc7dc26036979852,001,2022-04-29_02h09.44.807,classification_task,2021.2.3,Win32,60.16847172,6052b0d0dc7dc26036979852,626b377229c10585ec392f89,626b3aa51b86b109f7115cbd,,,,,,,,,,,,,,,,,,,,,,,l,1,0.8211,"[""0.084"",""0.409"",""0.576"",""0.696""]","[1,0,1,1]",0,47,47,47,1,1,0,,,1,FALSE,,,,,,,,,,,,,,,,,,,,,,,,,,,,,,
,6052b0d0dc7dc26036979852,001,2022-04-29_02h09.44.807,classification_task,2021.2.3,Win32,60.16847172,6052b0d0dc7dc26036979852,626b377229c10585ec392f89,626b3aa51b86b109f7115cbd,,,,,,,,,,,,,,,,,,,,,,,a,1,0.6445,"[""0.238"",""0.447"",""0.342"",""0.891""]","[1,1,0,1]",0,48,48,48,1,0,0,,,1,FALSE,,,,,,,,,,,,,,,,,,,,,,,,,,,,,,
,6052b0d0dc7dc26036979852,001,2022-04-29_02h09.44.807,classification_task,2021.2.3,Win32,60.16847172,6052b0d0dc7dc26036979852,626b377229c10585ec392f89,626b3aa51b86b109f7115cbd,,,,,,,,,,,,,,,,,,,,,,,a,1,1.4172,"[""0.191"",""0.374"",""0.856"",""0.950""]","[1,0,1,1]",0,49,49,49,1,0,1,,,1,FALSE,,,,,,,,,,,,,,,,,,,,,,,,,,,,,,
,6052b0d0dc7dc26036979852,001,2022-04-29_02h09.44.807,classification_task,2021.2.3,Win32,60.16847172,6052b0d0dc7dc26036979852,626b377229c10585ec392f89,626b3aa51b86b109f7115cbd,,,,,,,,,,,,,,,,,,,,,,,l,1,0.7097,"[""0.029"",""0.813"",""0.528"",""0.756""]","[1,0,1,1]",0,50,50,50,1,1,1,,,1,FALSE,,,,,,,,,,,,,,,,,,,,,,,,,,,,,,
,6052b0d0dc7dc26036979852,001,2022-04-29_02h09.44.807,classification_task,2021.2.3,Win32,60.16847172,6052b0d0dc7dc26036979852,626b377229c10585ec392f89,626b3aa51b86b109f7115cbd,,,,,,,,,,,,,,,,,,,,,,,l,1,0.5181,"[""0.084"",""0.392"",""0.576"",""0.696""]","[1,0,1,1]",0,51,51,51,1,1,0,,,1,FALSE,,,,,,,,,,,,,,,,,,,,,,,,,,,,,,
,6052b0d0dc7dc26036979852,001,2022-04-29_02h09.44.807,classification_task,2021.2.3,Win32,60.16847172,6052b0d0dc7dc26036979852,626b377229c10585ec392f89,626b3aa51b86b109f7115cbd,,,,,,,,,,,,,,,,,,,,,,,a,1,0.702,"[""0.191"",""0.488"",""0.856"",""0.374""]","[1,1,1,0]",0,52,52,52,1,0,1,,,1,FALSE,,,,,,,,,,,,,,,,,,,,,,,,,,,,,,
,6052b0d0dc7dc26036979852,001,2022-04-29_02h09.44.807,classification_task,2021.2.3,Win32,60.16847172,6052b0d0dc7dc26036979852,626b377229c10585ec392f89,626b3aa51b86b109f7115cbd,,,,,,,,,,,,,,,,,,,,,,,l,1,0.8024,"[""0.084"",""0.143"",""0.342"",""0.696""]","[1,1,0,1]",0,53,53,53,1,1,0,,,1,FALSE,,,,,,,,,,,,,,,,,,,,,,,,,,,,,,
,6052b0d0dc7dc26036979852,001,2022-04-29_02h09.44.807,classification_task,2021.2.3,Win32,60.16847172,6052b0d0dc7dc26036979852,626b377229c10585ec392f89,626b3aa51b86b109f7115cbd,,,,,,,,,,,,,,,,,,,,,,,l,1,0.5513,"[""0.084"",""0.143"",""0.576"",""0.409""]","[1,1,1,0]",0,54,54,54,1,1,0,,,1,FALSE,,,,,,,,,,,,,,,,,,,,,,,,,,,,,,
,6052b0d0dc7dc26036979852,001,2022-04-29_02h09.44.807,classification_task,2021.2.3,Win32,60.16847172,6052b0d0dc7dc26036979852,626b377229c10585ec392f89,626b3aa51b86b109f7115cbd,,,,,,,,,,,,,,,,,,,,,,,l,1,0.7235,"[""0.029"",""0.301"",""0.528"",""0.392""]","[1,1,1,0]",0,55,55,55,1,1,1,,,1,FALSE,,,,,,,,,,,,,,,,,,,,,,,,,,,,,,
,6052b0d0dc7dc26036979852,001,2022-04-29_02h09.44.807,classification_task,2021.2.3,Win32,60.16847172,6052b0d0dc7dc26036979852,626b377229c10585ec392f89,626b3aa51b86b109f7115cbd,,,,,,,,,,,,,,,,,,,,,,,a,1,1.4172,"[""0.804"",""0.488"",""0.856"",""0.950""]","[0,1,1,1]",0,56,56,56,1,0,1,,,1,FALSE,,,,,,,,,,,,,,,,,,,,,,,,,,,,,,
,6052b0d0dc7dc26036979852,001,2022-04-29_02h09.44.807,classification_task,2021.2.3,Win32,60.16847172,6052b0d0dc7dc26036979852,626b377229c10585ec392f89,626b3aa51b86b109f7115cbd,,,,,,,,,,,,,,,,,,,,,,,a,1,0.7176,"[""0.238"",""0.406"",""0.635"",""0.891""]","[1,0,1,1]",0,57,57,57,1,0,0,,,1,FALSE,,,,,,,,,,,,,,,,,,,,,,,,,,,,,,
,6052b0d0dc7dc26036979852,001,2022-04-29_02h09.44.807,classification_task,2021.2.3,Win32,60.16847172,6052b0d0dc7dc26036979852,626b377229c10585ec392f89,626b3aa51b86b109f7115cbd,,,,,,,,,,,,,,,,,,,,,,,l,1,1.2511,"[""0.372"",""0.143"",""0.576"",""0.696""]","[0,1,1,1]",0,58,58,58,1,1,0,,,1,FALSE,,,,,,,,,,,,,,,,,,,,,,,,,,,,,,
,6052b0d0dc7dc26036979852,001,2022-04-29_02h09.44.807,classification_task,2021.2.3,Win32,60.16847172,6052b0d0dc7dc26036979852,626b377229c10585ec392f89,626b3aa51b86b109f7115cbd,,,,,,,,,,,,,,,,,,,,,,,a,0,1.1418,"[""0.811"",""0.301"",""0.528"",""0.756""]","[0,1,1,1]",0,59,59,59,1,1,1,,,1,FALSE,,,,,,,,,,,,,,,,,,,,,,,,,,,,,,
,6052b0d0dc7dc26036979852,001,2022-04-29_02h09.44.807,classification_task,2021.2.3,Win32,60.16847172,6052b0d0dc7dc26036979852,626b377229c10585ec392f89,626b3aa51b86b109f7115cbd,,,,,,,,,,,,,,,,,,,,,,,a,1,2.0678,"[""0.387"",""0.447"",""0.635"",""0.891""]","[0,1,1,1]",0,60,60,60,1,0,0,,,1,FALSE,,,,,,,,,,,,,,,,,,,,,,,,,,,,,,
,6052b0d0dc7dc26036979852,001,2022-04-29_02h09.44.807,classification_task,2021.2.3,Win32,60.16847172,6052b0d0dc7dc26036979852,626b377229c10585ec392f89,626b3aa51b86b109f7115cbd,,,,,,,,,,,,,,,,,,,,,,,l,0,1.4116,"[""0.191"",""0.488"",""0.387"",""0.950""]","[1,1,0,1]",0,61,61,61,1,0,1,,,1,FALSE,,,,,,,,,,,,,,,,,,,,,,,,,,,,,,
,6052b0d0dc7dc26036979852,001,2022-04-29_02h09.44.807,classification_task,2021.2.3,Win32,60.16847172,6052b0d0dc7dc26036979852,626b377229c10585ec392f89,626b3aa51b86b109f7115cbd,,,,,,,,,,,,,,,,,,,,,,,a,1,0.6847,"[""0.238"",""0.447"",""0.635"",""0.392""]","[1,1,1,0]",0,62,62,62,1,0,0,,,1,FALSE,,,,,,,,,,,,,,,,,,,,,,,,,,,,,,
,6052b0d0dc7dc26036979852,001,2022-04-29_02h09.44.807,classification_task,2021.2.3,Win32,60.16847172,6052b0d0dc7dc26036979852,626b377229c10585ec392f89,626b3aa51b86b109f7115cbd,,,,,,,,,,,,,,,,,,,,,,,l,1,0.7345,"[""0.029"",""0.301"",""0.372"",""0.756""]","[1,1,0,1]",0,63,63,63,1,1,1,,,1,FALSE,,,,,,,,,,,,,,,,,,,,,,,,,,,,,,
,6052b0d0dc7dc26036979852,001,2022-04-29_02h09.44.807,classification_task,2021.2.3,Win32,60.16847172,6052b0d0dc7dc26036979852,626b377229c10585ec392f89,626b3aa51b86b109f7115cbd,,,,,,,,,,,,,,,,,,,,,,,,,,,,,,,,,,,,,,,0, ,,0,2.574955908,173.8635,0,1,1,1,1,2,2,,,,,,,,,,,,,,,,,
,6052b0d0dc7dc26036979852,001,2022-04-29_02h09.44.807,classification_task,2021.2.3,Win32,60.16847172,6052b0d0dc7dc26036979852,626b377229c10585ec392f89,626b3aa51b86b109f7115cbd,,,,,,,,,,,,,,,,,,,,,,,,,,,,,,,,,,,,,,,1,  ,,0,2.18302959,177.1298,0,1,1,1,1,2,2,,,,,,,,,,,,,,,,,
,6052b0d0dc7dc26036979852,001,2022-04-29_02h09.44.807,classification_task,2021.2.3,Win32,60.16847172,6052b0d0dc7dc26036979852,626b377229c10585ec392f89,626b3aa51b86b109f7115cbd,,,,,,,,,,,,,,,,,,,,,,,,,,,,,,,,,,,,,,,2,  ,,0,1.864589457,179.9383,0,1,1,1,1,2,2,,,,,,,,,,,,,,,,,
,6052b0d0dc7dc26036979852,001,2022-04-29_02h09.44.807,classification_task,2021.2.3,Win32,60.16847172,6052b0d0dc7dc26036979852,626b377229c10585ec392f89,626b3aa51b86b109f7115cbd,,,,,,,,,,,,,,,,,,,,,,,,,,,,,,,,,,,,,,,,,,,,,0,1,1,1,1,,2,,,,,,,,,,,,,,,,,
,6052b0d0dc7dc26036979852,001,2022-04-29_02h09.44.807,classification_task,2021.2.3,Win32,60.16847172,6052b0d0dc7dc26036979852,626b377229c10585ec392f89,626b3aa51b86b109f7115cbd,,,,,,,,,,,,,,,,,,,,,space,11.8983,l,1,1.8506,"[""0.029"",""0.804"",""0.528"",""0.756""]","[1,0,1,1]",0,0,0,0,1,1,1,,,1,FALSE,,,,,,,,,,,,,,,,,,,,,,,,,,,,,,
,6052b0d0dc7dc26036979852,001,2022-04-29_02h09.44.807,classification_task,2021.2.3,Win32,60.16847172,6052b0d0dc7dc26036979852,626b377229c10585ec392f89,626b3aa51b86b109f7115cbd,,,,,,,,,,,,,,,,,,,,,,,l,1,2.0333,"[""0.084"",""0.143"",""0.342"",""0.696""]","[1,1,0,1]",0,1,1,1,1,1,0,,,1,FALSE,,,,,,,,,,,,,,,,,,,,,,,,,,,,,,
,6052b0d0dc7dc26036979852,001,2022-04-29_02h09.44.807,classification_task,2021.2.3,Win32,60.16847172,6052b0d0dc7dc26036979852,626b377229c10585ec392f89,626b3aa51b86b109f7115cbd,,,,,,,,,,,,,,,,,,,,,,,a,1,1.6167,"[""0.337"",""0.488"",""0.856"",""0.950""]","[0,1,1,1]",0,2,2,2,1,0,1,,,1,FALSE,,,,,,,,,,,,,,,,,,,,,,,,,,,,,,
,6052b0d0dc7dc26036979852,001,2022-04-29_02h09.44.807,classification_task,2021.2.3,Win32,60.16847172,6052b0d0dc7dc26036979852,626b377229c10585ec392f89,626b3aa51b86b109f7115cbd,,,,,,,,,,,,,,,,,,,,,,,l,1,0.9338,"[""0.084"",""0.143"",""0.576"",""0.409""]","[1,1,1,0]",0,3,3,3,1,1,0,,,1,FALSE,,,,,,,,,,,,,,,,,,,,,,,,,,,,,,
,6052b0d0dc7dc26036979852,001,2022-04-29_02h09.44.807,classification_task,2021.2.3,Win32,60.16847172,6052b0d0dc7dc26036979852,626b377229c10585ec392f89,626b3aa51b86b109f7115cbd,,,,,,,,,,,,,,,,,,,,,,,a,1,1.4341,"[""0.191"",""0.811"",""0.856"",""0.950""]","[1,0,1,1]",0,4,4,4,1,0,1,,,1,FALSE,,,,,,,,,,,,,,,,,,,,,,,,,,,,,,
,6052b0d0dc7dc26036979852,001,2022-04-29_02h09.44.807,classification_task,2021.2.3,Win32,60.16847172,6052b0d0dc7dc26036979852,626b377229c10585ec392f89,626b3aa51b86b109f7115cbd,,,,,,,,,,,,,,,,,,,,,,,l,1,0.7835,"[""0.029"",""0.301"",""0.336"",""0.756""]","[1,1,0,1]",0,5,5,5,1,1,1,,,1,FALSE,,,,,,,,,,,,,,,,,,,,,,,,,,,,,,
,6052b0d0dc7dc26036979852,001,2022-04-29_02h09.44.807,classification_task,2021.2.3,Win32,60.16847172,6052b0d0dc7dc26036979852,626b377229c10585ec392f89,626b3aa51b86b109f7115cbd,,,,,,,,,,,,,,,,,,,,,,,a,1,1.0501,"[""0.191"",""0.488"",""0.856"",""0.342""]","[1,1,1,0]",0,6,6,6,1,0,1,,,1,FALSE,,,,,,,,,,,,,,,,,,,,,,,,,,,,,,
,6052b0d0dc7dc26036979852,001,2022-04-29_02h09.44.807,classification_task,2021.2.3,Win32,60.16847172,6052b0d0dc7dc26036979852,626b377229c10585ec392f89,626b3aa51b86b109f7115cbd,,,,,,,,,,,,,,,,,,,,,,,l,1,3.217,"[""0.372"",""0.143"",""0.576"",""0.696""]","[0,1,1,1]",0,7,7,7,1,1,0,,,1,FALSE,,,,,,,,,,,,,,,,,,,,,,,,,,,,,,
,6052b0d0dc7dc26036979852,001,2022-04-29_02h09.44.807,classification_task,2021.2.3,Win32,60.16847172,6052b0d0dc7dc26036979852,626b377229c10585ec392f89,626b3aa51b86b109f7115cbd,,,,,,,,,,,,,,,,,,,,,,,a,1,0.7158,"[""0.238"",""0.447"",""0.635"",""0.336""]","[1,1,1,0]",0,8,8,8,1,0,0,,,1,FALSE,,,,,,,,,,,,,,,,,,,,,,,,,,,,,,
,6052b0d0dc7dc26036979852,001,2022-04-29_02h09.44.807,classification_task,2021.2.3,Win32,60.16847172,6052b0d0dc7dc26036979852,626b377229c10585ec392f89,626b3aa51b86b109f7115cbd,,,,,,,,,,,,,,,,,,,,,,,l,1,3.117,"[""0.342"",""0.301"",""0.528"",""0.756""]","[0,1,1,1]",0,9,9,9,1,1,1,,,1,FALSE,,,,,,,,,,,,,,,,,,,,,,,,,,,,,,
,6052b0d0dc7dc26036979852,001,2022-04-29_02h09.44.807,classification_task,2021.2.3,Win32,60.16847172,6052b0d0dc7dc26036979852,626b377229c10585ec392f89,626b3aa51b86b109f7115cbd,,,,,,,,,,,,,,,,,,,,,,,a,1,0.7003,"[""0.238"",""0.447"",""0.811"",""0.891""]","[1,1,0,1]",0,10,10,10,1,0,0,,,1,FALSE,,,,,,,,,,,,,,,,,,,,,,,,,,,,,,
,6052b0d0dc7dc26036979852,001,2022-04-29_02h09.44.807,classification_task,2021.2.3,Win32,60.16847172,6052b0d0dc7dc26036979852,626b377229c10585ec392f89,626b3aa51b86b109f7115cbd,,,,,,,,,,,,,,,,,,,,,,,a,1,0.4166,"[""0.238"",""0.372"",""0.635"",""0.891""]","[1,0,1,1]",0,11,11,11,1,0,0,,,1,FALSE,,,,,,,,,,,,,,,,,,,,,,,,,,,,,,
,6052b0d0dc7dc26036979852,001,2022-04-29_02h09.44.807,classification_task,2021.2.3,Win32,60.16847172,6052b0d0dc7dc26036979852,626b377229c10585ec392f89,626b3aa51b86b109f7115cbd,,,,,,,,,,,,,,,,,,,,,,,a,1,1.9836,"[""0.408"",""0.447"",""0.635"",""0.891""]","[0,1,1,1]",0,12,12,12,1,0,0,,,1,FALSE,,,,,,,,,,,,,,,,,,,,,,,,,,,,,,
,6052b0d0dc7dc26036979852,001,2022-04-29_02h09.44.807,classification_task,2021.2.3,Win32,60.16847172,6052b0d0dc7dc26036979852,626b377229c10585ec392f89,626b3aa51b86b109f7115cbd,,,,,,,,,,,,,,,,,,,,,,,a,1,2.4843,"[""0.191"",""0.488"",""0.337"",""0.950""]","[1,1,0,1]",0,13,13,13,1,0,1,,,1,FALSE,,,,,,,,,,,,,,,,,,,,,,,,,,,,,,
,6052b0d0dc7dc26036979852,001,2022-04-29_02h09.44.807,classification_task,2021.2.3,Win32,60.16847172,6052b0d0dc7dc26036979852,626b377229c10585ec392f89,626b3aa51b86b109f7115cbd,,,,,,,,,,,,,,,,,,,,,,,l,1,0.6004,"[""0.029"",""0.301"",""0.528"",""0.342""]","[1,1,1,0]",0,14,14,14,1,1,1,,,1,FALSE,,,,,,,,,,,,,,,,,,,,,,,,,,,,,,
,6052b0d0dc7dc26036979852,001,2022-04-29_02h09.44.807,classification_task,2021.2.3,Win32,60.16847172,6052b0d0dc7dc26036979852,626b377229c10585ec392f89,626b3aa51b86b109f7115cbd,,,,,,,,,,,,,,,,,,,,,,,l,1,0.6836,"[""0.084"",""0.372"",""0.576"",""0.696""]","[1,0,1,1]",0,15,15,15,1,1,0,,,1,FALSE,,,,,,,,,,,,,,,,,,,,,,,,,,,,,,
,6052b0d0dc7dc26036979852,001,2022-04-29_02h09.44.807,classification_task,2021.2.3,Win32,60.16847172,6052b0d0dc7dc26036979852,626b377229c10585ec392f89,626b3aa51b86b109f7115cbd,,,,,,,,,,,,,,,,,,,,,,,l,1,0.5006,"[""0.084"",""0.143"",""0.576"",""0.337""]","[1,1,1,0]",0,16,16,16,1,1,0,,,1,FALSE,,,,,,,,,,,,,,,,,,,,,,,,,,,,,,
,6052b0d0dc7dc26036979852,001,2022-04-29_02h09.44.807,classification_task,2021.2.3,Win32,60.16847172,6052b0d0dc7dc26036979852,626b377229c10585ec392f89,626b3aa51b86b109f7115cbd,,,,,,,,,,,,,,,,,,,,,,,l,1,0.4495,"[""0.084"",""0.143"",""0.379"",""0.696""]","[1,1,0,1]",0,17,17,17,1,1,0,,,1,FALSE,,,,,,,,,,,,,,,,,,,,,,,,,,,,,,
,6052b0d0dc7dc26036979852,001,2022-04-29_02h09.44.807,classification_task,2021.2.3,Win32,60.16847172,6052b0d0dc7dc26036979852,626b377229c10585ec392f89,626b3aa51b86b109f7115cbd,,,,,,,,,,,,,,,,,,,,,,,a,1,0.7166,"[""0.238"",""0.447"",""0.379"",""0.891""]","[1,1,0,1]",0,18,18,18,1,0,0,,,1,FALSE,,,,,,,,,,,,,,,,,,,,,,,,,,,,,,
,6052b0d0dc7dc26036979852,001,2022-04-29_02h09.44.807,classification_task,2021.2.3,Win32,60.16847172,6052b0d0dc7dc26036979852,626b377229c10585ec392f89,626b3aa51b86b109f7115cbd,,,,,,,,,,,,,,,,,,,,,,,a,1,1.2663,"[""0.409"",""0.447"",""0.635"",""0.891""]","[0,1,1,1]",0,19,19,19,1,0,0,,,1,FALSE,,,,,,,,,,,,,,,,,,,,,,,,,,,,,,
,6052b0d0dc7dc26036979852,001,2022-04-29_02h09.44.807,classification_task,2021.2.3,Win32,60.16847172,6052b0d0dc7dc26036979852,626b377229c10585ec392f89,626b3aa51b86b109f7115cbd,,,,,,,,,,,,,,,,,,,,,,,a,1,0.6999,"[""0.238"",""0.447"",""0.635"",""0.379""]","[1,1,1,0]",0,20,20,20,1,0,0,,,1,FALSE,,,,,,,,,,,,,,,,,,,,,,,,,,,,,,
,6052b0d0dc7dc26036979852,001,2022-04-29_02h09.44.807,classification_task,2021.2.3,Win32,60.16847172,6052b0d0dc7dc26036979852,626b377229c10585ec392f89,626b3aa51b86b109f7115cbd,,,,,,,,,,,,,,,,,,,,,,,a,1,1.5822,"[""0.191"",""0.488"",""0.856"",""0.374""]","[1,1,1,0]",0,21,21,21,1,0,1,,,1,FALSE,,,,,,,,,,,,,,,,,,,,,,,,,,,,,,
,6052b0d0dc7dc26036979852,001,2022-04-29_02h09.44.807,classification_task,2021.2.3,Win32,60.16847172,6052b0d0dc7dc26036979852,626b377229c10585ec392f89,626b3aa51b86b109f7115cbd,,,,,,,,,,,,,,,,,,,,,,,a,1,0.7667,"[""0.191"",""0.488"",""0.406"",""0.950""]","[1,1,0,1]",0,22,22,22,1,0,1,,,1,FALSE,,,,,,,,,,,,,,,,,,,,,,,,,,,,,,
,6052b0d0dc7dc26036979852,001,2022-04-29_02h09.44.807,classification_task,2021.2.3,Win32,60.16847172,6052b0d0dc7dc26036979852,626b377229c10585ec392f89,626b3aa51b86b109f7115cbd,,,,,,,,,,,,,,,,,,,,,,,a,1,0.583,"[""0.191"",""0.334"",""0.856"",""0.950""]","[1,0,1,1]",0,23,23,23,1,0,1,,,1,FALSE,,,,,,,,,,,,,,,,,,,,,,,,,,,,,,
,6052b0d0dc7dc26036979852,001,2022-04-29_02h09.44.807,classification_task,2021.2.3,Win32,60.16847172,6052b0d0dc7dc26036979852,626b377229c10585ec392f89,626b3aa51b86b109f7115cbd,,,,,,,,,,,,,,,,,,,,,,,l,1,0.6831,"[""0.029"",""0.301"",""0.528"",""0.374""]","[1,1,1,0]",0,24,24,24,1,1,1,,,1,FALSE,,,,,,,,,,,,,,,,,,,,,,,,,,,,,,
,6052b0d0dc7dc26036979852,001,2022-04-29_02h09.44.807,classification_task,2021.2.3,Win32,60.16847172,6052b0d0dc7dc26036979852,626b377229c10585ec392f89,626b3aa51b86b109f7115cbd,,,,,,,,,,,,,,,,,,,,,,,a,1,1.7668,"[""0.813"",""0.488"",""0.856"",""0.950""]","[0,1,1,1]",0,25,25,25,1,0,1,,,1,FALSE,,,,,,,,,,,,,,,,,,,,,,,,,,,,,,
,6052b0d0dc7dc26036979852,001,2022-04-29_02h09.44.807,classification_task,2021.2.3,Win32,60.16847172,6052b0d0dc7dc26036979852,626b377229c10585ec392f89,626b3aa51b86b109f7115cbd,,,,,,,,,,,,,,,,,,,,,,,l,1,1.2168,"[""0.334"",""0.301"",""0.528"",""0.756""]","[0,1,1,1]",0,26,26,26,1,1,1,,,1,FALSE,,,,,,,,,,,,,,,,,,,,,,,,,,,,,,
,6052b0d0dc7dc26036979852,001,2022-04-29_02h09.44.807,classification_task,2021.2.3,Win32,60.16847172,6052b0d0dc7dc26036979852,626b377229c10585ec392f89,626b3aa51b86b109f7115cbd,,,,,,,,,,,,,,,,,,,,,,,a,0,0.7497,"[""0.392"",""0.143"",""0.576"",""0.696""]","[0,1,1,1]",0,27,27,27,1,1,0,,,1,FALSE,,,,,,,,,,,,,,,,,,,,,,,,,,,,,,
,6052b0d0dc7dc26036979852,001,2022-04-29_02h09.44.807,classification_task,2021.2.3,Win32,60.16847172,6052b0d0dc7dc26036979852,626b377229c10585ec392f89,626b3aa51b86b109f7115cbd,,,,,,,,,,,,,,,,,,,,,,,a,1,0.6666,"[""0.238"",""0.387"",""0.635"",""0.891""]","[1,0,1,1]",0,28,28,28,1,0,0,,,1,FALSE,,,,,,,,,,,,,,,,,,,,,,,,,,,,,,
,6052b0d0dc7dc26036979852,001,2022-04-29_02h09.44.807,classification_task,2021.2.3,Win32,60.16847172,6052b0d0dc7dc26036979852,626b377229c10585ec392f89,626b3aa51b86b109f7115cbd,,,,,,,,,,,,,,,,,,,,,,,l,1,0.6336,"[""0.029"",""0.301"",""0.375"",""0.756""]","[1,1,0,1]",0,29,29,29,1,1,1,,,1,FALSE,,,,,,,,,,,,,,,,,,,,,,,,,,,,,,
,6052b0d0dc7dc26036979852,001,2022-04-29_02h09.44.807,classification_task,2021.2.3,Win32,60.16847172,6052b0d0dc7dc26036979852,626b377229c10585ec392f89,626b3aa51b86b109f7115cbd,,,,,,,,,,,,,,,,,,,,,,,l,1,0.9164,"[""0.029"",""0.337"",""0.528"",""0.756""]","[1,0,1,1]",0,30,30,30,1,1,1,,,1,FALSE,,,,,,,,,,,,,,,,,,,,,,,,,,,,,,
,6052b0d0dc7dc26036979852,001,2022-04-29_02h09.44.807,classification_task,2021.2.3,Win32,60.16847172,6052b0d0dc7dc26036979852,626b377229c10585ec392f89,626b3aa51b86b109f7115cbd,,,,,,,,,,,,,,,,,,,,,,,l,1,1.0002,"[""0.084"",""0.342"",""0.576"",""0.696""]","[1,0,1,1]",0,31,31,31,1,1,0,,,1,FALSE,,,,,,,,,,,,,,,,,,,,,,,,,,,,,,
,6052b0d0dc7dc26036979852,001,2022-04-29_02h09.44.807,classification_task,2021.2.3,Win32,60.16847172,6052b0d0dc7dc26036979852,626b377229c10585ec392f89,626b3aa51b86b109f7115cbd,,,,,,,,,,,,,,,,,,,,,,,a,0,1.8823,"[""0.374"",""0.301"",""0.528"",""0.756""]","[0,1,1,1]",0,32,32,32,1,1,1,,,1,FALSE,,,,,,,,,,,,,,,,,,,,,,,,,,,,,,
,6052b0d0dc7dc26036979852,001,2022-04-29_02h09.44.807,classification_task,2021.2.3,Win32,60.16847172,6052b0d0dc7dc26036979852,626b377229c10585ec392f89,626b3aa51b86b109f7115cbd,,,,,,,,,,,,,,,,,,,,,,,l,0,1.1669,"[""0.409"",""0.447"",""0.635"",""0.891""]","[0,1,1,1]",0,33,33,33,1,0,0,,,1,FALSE,,,,,,,,,,,,,,,,,,,,,,,,,,,,,,
,6052b0d0dc7dc26036979852,001,2022-04-29_02h09.44.807,classification_task,2021.2.3,Win32,60.16847172,6052b0d0dc7dc26036979852,626b377229c10585ec392f89,626b3aa51b86b109f7115cbd,,,,,,,,,,,,,,,,,,,,,,,l,1,0.9501,"[""0.084"",""0.143"",""0.576"",""0.804""]","[1,1,1,0]",0,34,34,34,1,1,0,,,1,FALSE,,,,,,,,,,,,,,,,,,,,,,,,,,,,,,
,6052b0d0dc7dc26036979852,001,2022-04-29_02h09.44.807,classification_task,2021.2.3,Win32,60.16847172,6052b0d0dc7dc26036979852,626b377229c10585ec392f89,626b3aa51b86b109f7115cbd,,,,,,,,,,,,,,,,,,,,,,,l,1,0.8669,"[""0.029"",""0.301"",""0.336"",""0.756""]","[1,1,0,1]",0,35,35,35,1,1,1,,,1,FALSE,,,,,,,,,,,,,,,,,,,,,,,,,,,,,,
,6052b0d0dc7dc26036979852,001,2022-04-29_02h09.44.807,classification_task,2021.2.3,Win32,60.16847172,6052b0d0dc7dc26036979852,626b377229c10585ec392f89,626b3aa51b86b109f7115cbd,,,,,,,,,,,,,,,,,,,,,,,a,0,1.3837,"[""0.406"",""0.143"",""0.576"",""0.696""]","[0,1,1,1]",0,36,36,36,1,1,0,,,1,FALSE,,,,,,,,,,,,,,,,,,,,,,,,,,,,,,
,6052b0d0dc7dc26036979852,001,2022-04-29_02h09.44.807,classification_task,2021.2.3,Win32,60.16847172,6052b0d0dc7dc26036979852,626b377229c10585ec392f89,626b3aa51b86b109f7115cbd,,,,,,,,,,,,,,,,,,,,,,,l,1,0.6501,"[""0.084"",""0.408"",""0.576"",""0.696""]","[1,0,1,1]",0,37,37,37,1,1,0,,,1,FALSE,,,,,,,,,,,,,,,,,,,,,,,,,,,,,,
,6052b0d0dc7dc26036979852,001,2022-04-29_02h09.44.807,classification_task,2021.2.3,Win32,60.16847172,6052b0d0dc7dc26036979852,626b377229c10585ec392f89,626b3aa51b86b109f7115cbd,,,,,,,,,,,,,,,,,,,,,,,a,1,0.7172,"[""0.238"",""0.447"",""0.804"",""0.891""]","[1,1,0,1]",0,38,38,38,1,0,0,,,1,FALSE,,,,,,,,,,,,,,,,,,,,,,,,,,,,,,
,6052b0d0dc7dc26036979852,001,2022-04-29_02h09.44.807,classification_task,2021.2.3,Win32,60.16847172,6052b0d0dc7dc26036979852,626b377229c10585ec392f89,626b3aa51b86b109f7115cbd,,,,,,,,,,,,,,,,,,,,,,,a,1,1.2334,"[""0.191"",""0.488"",""0.856"",""0.392""]","[1,1,1,0]",0,39,39,39,1,0,1,,,1,FALSE,,,,,,,,,,,,,,,,,,,,,,,,,,,,,,
,6052b0d0dc7dc26036979852,001,2022-04-29_02h09.44.807,classification_task,2021.2.3,Win32,60.16847172,6052b0d0dc7dc26036979852,626b377229c10585ec392f89,626b3aa51b86b109f7115cbd,,,,,,,,,,,,,,,,,,,,,,,a,1,0.5667,"[""0.238"",""0.379"",""0.635"",""0.891""]","[1,0,1,1]",0,40,40,40,1,0,0,,,1,FALSE,,,,,,,,,,,,,,,,,,,,,,,,,,,,,,
,6052b0d0dc7dc26036979852,001,2022-04-29_02h09.44.807,classification_task,2021.2.3,Win32,60.16847172,6052b0d0dc7dc26036979852,626b377229c10585ec392f89,626b3aa51b86b109f7115cbd,,,,,,,,,,,,,,,,,,,,,,,l,1,0.7502,"[""0.029"",""0.301"",""0.528"",""0.409""]","[1,1,1,0]",0,41,41,41,1,1,1,,,1,FALSE,,,,,,,,,,,,,,,,,,,,,,,,,,,,,,
,6052b0d0dc7dc26036979852,001,2022-04-29_02h09.44.807,classification_task,2021.2.3,Win32,60.16847172,6052b0d0dc7dc26036979852,626b377229c10585ec392f89,626b3aa51b86b109f7115cbd,,,,,,,,,,,,,,,,,,,,,,,a,1,0.6334,"[""0.238"",""0.447"",""0.635"",""0.408""]","[1,1,1,0]",0,42,42,42,1,0,0,,,1,FALSE,,,,,,,,,,,,,,,,,,,,,,,,,,,,,,
,6052b0d0dc7dc26036979852,001,2022-04-29_02h09.44.807,classification_task,2021.2.3,Win32,60.16847172,6052b0d0dc7dc26036979852,626b377229c10585ec392f89,626b3aa51b86b109f7115cbd,,,,,,,,,,,,,,,,,,,,,,,l,1,0.7494,"[""0.029"",""0.334"",""0.528"",""0.756""]","[1,0,1,1]",0,43,43,43,1,1,1,,,1,FALSE,,,,,,,,,,,,,,,,,,,,,,,,,,,,,,
,6052b0d0dc7dc26036979852,001,2022-04-29_02h09.44.807,classification_task,2021.2.3,Win32,60.16847172,6052b0d0dc7dc26036979852,626b377229c10585ec392f89,626b3aa51b86b109f7115cbd,,,,,,,,,,,,,,,,,,,,,,,l,0,1.8831,"[""0.191"",""0.811"",""0.856"",""0.950""]","[1,0,1,1]",0,44,44,44,1,0,1,,,1,FALSE,,,,,,,,,,,,,,,,,,,,,,,,,,,,,,
,6052b0d0dc7dc26036979852,001,2022-04-29_02h09.44.807,classification_task,2021.2.3,Win32,60.16847172,6052b0d0dc7dc26036979852,626b377229c10585ec392f89,626b3aa51b86b109f7115cbd,,,,,,,,,,,,,,,,,,,,,,,l,0,0.8504,"[""0.191"",""0.488"",""0.409"",""0.950""]","[1,1,0,1]",0,45,45,45,1,0,1,,,1,FALSE,,,,,,,,,,,,,,,,,,,,,,,,,,,,,,
,6052b0d0dc7dc26036979852,001,2022-04-29_02h09.44.807,classification_task,2021.2.3,Win32,60.16847172,6052b0d0dc7dc26036979852,626b377229c10585ec392f89,626b3aa51b86b109f7115cbd,,,,,,,,,,,,,,,,,,,,,,,a,1,1.5826,"[""0.379"",""0.488"",""0.856"",""0.950""]","[0,1,1,1]",0,46,46,46,1,0,1,,,1,FALSE,,,,,,,,,,,,,,,,,,,,,,,,,,,,,,
,6052b0d0dc7dc26036979852,001,2022-04-29_02h09.44.807,classification_task,2021.2.3,Win32,60.16847172,6052b0d0dc7dc26036979852,626b377229c10585ec392f89,626b3aa51b86b109f7115cbd,,,,,,,,,,,,,,,,,,,,,,,l,1,1.0002,"[""0.084"",""0.143"",""0.379"",""0.696""]","[1,1,0,1]",0,47,47,47,1,1,0,,,1,FALSE,,,,,,,,,,,,,,,,,,,,,,,,,,,,,,
,6052b0d0dc7dc26036979852,001,2022-04-29_02h09.44.807,classification_task,2021.2.3,Win32,60.16847172,6052b0d0dc7dc26036979852,626b377229c10585ec392f89,626b3aa51b86b109f7115cbd,,,,,,,,,,,,,,,,,,,,,,,l,1,0.6167,"[""0.029"",""0.301"",""0.528"",""0.375""]","[1,1,1,0]",0,48,48,48,1,1,1,,,1,FALSE,,,,,,,,,,,,,,,,,,,,,,,,,,,,,,
,6052b0d0dc7dc26036979852,001,2022-04-29_02h09.44.807,classification_task,2021.2.3,Win32,60.16847172,6052b0d0dc7dc26036979852,626b377229c10585ec392f89,626b3aa51b86b109f7115cbd,,,,,,,,,,,,,,,,,,,,,,,a,1,0.8829,"[""0.238"",""0.447"",""0.811"",""0.891""]","[1,1,0,1]",0,49,49,49,1,0,0,,,1,FALSE,,,,,,,,,,,,,,,,,,,,,,,,,,,,,,
,6052b0d0dc7dc26036979852,001,2022-04-29_02h09.44.807,classification_task,2021.2.3,Win32,60.16847172,6052b0d0dc7dc26036979852,626b377229c10585ec392f89,626b3aa51b86b109f7115cbd,,,,,,,,,,,,,,,,,,,,,,,l,1,0.5327,"[""0.392"",""0.143"",""0.576"",""0.696""]","[0,1,1,1]",0,50,50,50,1,1,0,,,1,FALSE,,,,,,,,,,,,,,,,,,,,,,,,,,,,,,
,6052b0d0dc7dc26036979852,001,2022-04-29_02h09.44.807,classification_task,2021.2.3,Win32,60.16847172,6052b0d0dc7dc26036979852,626b377229c10585ec392f89,626b3aa51b86b109f7115cbd,,,,,,,,,,,,,,,,,,,,,,,a,1,1.2163,"[""0.191"",""0.488"",""0.856"",""0.372""]","[1,1,1,0]",0,51,51,51,1,0,1,,,1,FALSE,,,,,,,,,,,,,,,,,,,,,,,,,,,,,,
,6052b0d0dc7dc26036979852,001,2022-04-29_02h09.44.807,classification_task,2021.2.3,Win32,60.16847172,6052b0d0dc7dc26036979852,626b377229c10585ec392f89,626b3aa51b86b109f7115cbd,,,,,,,,,,,,,,,,,,,,,,,l,1,0.7667,"[""0.084"",""0.334"",""0.576"",""0.696""]","[1,0,1,1]",0,52,52,52,1,1,0,,,1,FALSE,,,,,,,,,,,,,,,,,,,,,,,,,,,,,,
,6052b0d0dc7dc26036979852,001,2022-04-29_02h09.44.807,classification_task,2021.2.3,Win32,60.16847172,6052b0d0dc7dc26036979852,626b377229c10585ec392f89,626b3aa51b86b109f7115cbd,,,,,,,,,,,,,,,,,,,,,,,l,1,0.6656,"[""0.029"",""0.387"",""0.528"",""0.756""]","[1,0,1,1]",0,53,53,53,1,1,1,,,1,FALSE,,,,,,,,,,,,,,,,,,,,,,,,,,,,,,
,6052b0d0dc7dc26036979852,001,2022-04-29_02h09.44.807,classification_task,2021.2.3,Win32,60.16847172,6052b0d0dc7dc26036979852,626b377229c10585ec392f89,626b3aa51b86b109f7115cbd,,,,,,,,,,,,,,,,,,,,,,,a,1,0.6167,"[""0.238"",""0.447"",""0.635"",""0.804""]","[1,1,1,0]",0,54,54,54,1,0,0,,,1,FALSE,,,,,,,,,,,,,,,,,,,,,,,,,,,,,,
,6052b0d0dc7dc26036979852,001,2022-04-29_02h09.44.807,classification_task,2021.2.3,Win32,60.16847172,6052b0d0dc7dc26036979852,626b377229c10585ec392f89,626b3aa51b86b109f7115cbd,,,,,,,,,,,,,,,,,,,,,,,l,1,0.7332,"[""0.084"",""0.143"",""0.576"",""0.337""]","[1,1,1,0]",0,55,55,55,1,1,0,,,1,FALSE,,,,,,,,,,,,,,,,,,,,,,,,,,,,,,
,6052b0d0dc7dc26036979852,001,2022-04-29_02h09.44.807,classification_task,2021.2.3,Win32,60.16847172,6052b0d0dc7dc26036979852,626b377229c10585ec392f89,626b3aa51b86b109f7115cbd,,,,,,,,,,,,,,,,,,,,,,,l,0,2.583,"[""0.409"",""0.447"",""0.635"",""0.891""]","[0,1,1,1]",0,56,56,56,1,0,0,,,1,FALSE,,,,,,,,,,,,,,,,,,,,,,,,,,,,,,
,6052b0d0dc7dc26036979852,001,2022-04-29_02h09.44.807,classification_task,2021.2.3,Win32,60.16847172,6052b0d0dc7dc26036979852,626b377229c10585ec392f89,626b3aa51b86b109f7115cbd,,,,,,,,,,,,,,,,,,,,,,,a,1,1.1002,"[""0.238"",""0.804"",""0.635"",""0.891""]","[1,0,1,1]",0,57,57,57,1,0,0,,,1,FALSE,,,,,,,,,,,,,,,,,,,,,,,,,,,,,,
,6052b0d0dc7dc26036979852,001,2022-04-29_02h09.44.807,classification_task,2021.2.3,Win32,60.16847172,6052b0d0dc7dc26036979852,626b377229c10585ec392f89,626b3aa51b86b109f7115cbd,,,,,,,,,,,,,,,,,,,,,,,l,1,0.6834,"[""0.029"",""0.301"",""0.813"",""0.756""]","[1,1,0,1]",0,58,58,58,1,1,1,,,1,FALSE,,,,,,,,,,,,,,,,,,,,,,,,,,,,,,
,6052b0d0dc7dc26036979852,001,2022-04-29_02h09.44.807,classification_task,2021.2.3,Win32,60.16847172,6052b0d0dc7dc26036979852,626b377229c10585ec392f89,626b3aa51b86b109f7115cbd,,,,,,,,,,,,,,,,,,,,,,,a,1,1.0833,"[""0.191"",""0.804"",""0.856"",""0.950""]","[1,0,1,1]",0,59,59,59,1,0,1,,,1,FALSE,,,,,,,,,,,,,,,,,,,,,,,,,,,,,,
,6052b0d0dc7dc26036979852,001,2022-04-29_02h09.44.807,classification_task,2021.2.3,Win32,60.16847172,6052b0d0dc7dc26036979852,626b377229c10585ec392f89,626b3aa51b86b109f7115cbd,,,,,,,,,,,,,,,,,,,,,,,a,1,2.0002,"[""0.811"",""0.488"",""0.856"",""0.950""]","[0,1,1,1]",0,60,60,60,1,0,1,,,1,FALSE,,,,,,,,,,,,,,,,,,,,,,,,,,,,,,
,6052b0d0dc7dc26036979852,001,2022-04-29_02h09.44.807,classification_task,2021.2.3,Win32,60.16847172,6052b0d0dc7dc26036979852,626b377229c10585ec392f89,626b3aa51b86b109f7115cbd,,,,,,,,,,,,,,,,,,,,,,,l,1,0.833,"[""0.084"",""0.143"",""0.379"",""0.696""]","[1,1,0,1]",0,61,61,61,1,1,0,,,1,FALSE,,,,,,,,,,,,,,,,,,,,,,,,,,,,,,
,6052b0d0dc7dc26036979852,001,2022-04-29_02h09.44.807,classification_task,2021.2.3,Win32,60.16847172,6052b0d0dc7dc26036979852,626b377229c10585ec392f89,626b3aa51b86b109f7115cbd,,,,,,,,,,,,,,,,,,,,,,,a,1,0.9503,"[""0.191"",""0.488"",""0.387"",""0.950""]","[1,1,0,1]",0,62,62,62,1,0,1,,,1,FALSE,,,,,,,,,,,,,,,,,,,,,,,,,,,,,,
,6052b0d0dc7dc26036979852,001,2022-04-29_02h09.44.807,classification_task,2021.2.3,Win32,60.16847172,6052b0d0dc7dc26036979852,626b377229c10585ec392f89,626b3aa51b86b109f7115cbd,,,,,,,,,,,,,,,,,,,,,,,a,0,0.6328,"[""0.379"",""0.301"",""0.528"",""0.756""]","[0,1,1,1]",0,63,63,63,1,1,1,,,1,FALSE,,,,,,,,,,,,,,,,,,,,,,,,,,,,,,
,6052b0d0dc7dc26036979852,001,2022-04-29_02h09.44.807,classification_task,2021.2.3,Win32,60.16847172,6052b0d0dc7dc26036979852,626b377229c10585ec392f89,626b3aa51b86b109f7115cbd,,,,,,,,,,,,,,,,,,,,,,,,,,,,,,,,,,,,,,,0, ,,0,2.746423672,157.9687,0,2,2,2,1,2,3,,,,,,,,,,,,,,,,,
,6052b0d0dc7dc26036979852,001,2022-04-29_02h09.44.807,classification_task,2021.2.3,Win32,60.16847172,6052b0d0dc7dc26036979852,626b377229c10585ec392f89,626b3aa51b86b109f7115cbd,,,,,,,,,,,,,,,,,,,,,,,,,,,,,,,,,,,,,,,1,  ,,0,1.717617088,159.0937,0,2,2,2,1,2,3,,,,,,,,,,,,,,,,,
,6052b0d0dc7dc26036979852,001,2022-04-29_02h09.44.807,classification_task,2021.2.3,Win32,60.16847172,6052b0d0dc7dc26036979852,626b377229c10585ec392f89,626b3aa51b86b109f7115cbd,,,,,,,,,,,,,,,,,,,,,,,,,,,,,,,,,,,,,,,2,  ,,0,1.154223006,159.9265,0,2,2,2,1,2,3,,,,,,,,,,,,,,,,,
,6052b0d0dc7dc26036979852,001,2022-04-29_02h09.44.807,classification_task,2021.2.3,Win32,60.16847172,6052b0d0dc7dc26036979852,626b377229c10585ec392f89,626b3aa51b86b109f7115cbd,,,,,,,,,,,,,,,,,,,,,,,,,,,,,,,,,,,,,,,,,,,,,0,2,2,2,1,,3,,,,,,,,,,,,,,,,,
,6052b0d0dc7dc26036979852,001,2022-04-29_02h09.44.807,classification_task,2021.2.3,Win32,60.16847172,6052b0d0dc7dc26036979852,626b377229c10585ec392f89,626b3aa51b86b109f7115cbd,,,,,,,,,,,,,,,,,,,,,,,,,,,,,,,,,,,,,,,,,,,,,,,,,,,,,I believe the aid is a competent performer,,0.7,0,4,914.1167,0,0,0,0,1,0,,,,
,6052b0d0dc7dc26036979852,001,2022-04-29_02h09.44.807,classification_task,2021.2.3,Win32,60.16847172,6052b0d0dc7dc26036979852,626b377229c10585ec392f89,626b3aa51b86b109f7115cbd,,,,,,,,,,,,,,,,,,,,,,,,,,,,,,,,,,,,,,,,,,,,,,,,,,,,,I trust the aid,,0.7,0,4,916.8888,0,0,0,0,1,0,,,,
,6052b0d0dc7dc26036979852,001,2022-04-29_02h09.44.807,classification_task,2021.2.3,Win32,60.16847172,6052b0d0dc7dc26036979852,626b377229c10585ec392f89,626b3aa51b86b109f7115cbd,,,,,,,,,,,,,,,,,,,,,,,,,,,,,,,,,,,,,,,,,,,,,,,,,,,,,I have confidence in the advice given by the aid,,0.7,0,3,921.4471,0,0,0,0,1,0,,,,
,6052b0d0dc7dc26036979852,001,2022-04-29_02h09.44.807,classification_task,2021.2.3,Win32,60.16847172,6052b0d0dc7dc26036979852,626b377229c10585ec392f89,626b3aa51b86b109f7115cbd,,,,,,,,,,,,,,,,,,,,,,,,,,,,,,,,,,,,,,,,,,,,,,,,,,,,,I can depend on the aid,,0.7,0,3,923.7424,0,0,0,0,1,0,,,,
,6052b0d0dc7dc26036979852,001,2022-04-29_02h09.44.807,classification_task,2021.2.3,Win32,60.16847172,6052b0d0dc7dc26036979852,626b377229c10585ec392f89,626b3aa51b86b109f7115cbd,,,,,,,,,,,,,,,,,,,,,,,,,,,,,,,,,,,,,,,,,,,,,,,,,,,,,I can rely on the aid to behave in consistent ways,,0.7,0,4,928.2761,0,0,0,0,1,0,,,,
,6052b0d0dc7dc26036979852,001,2022-04-29_02h09.44.807,classification_task,2021.2.3,Win32,60.16847172,6052b0d0dc7dc26036979852,626b377229c10585ec392f89,626b3aa51b86b109f7115cbd,,,,,,,,,,,,,,,,,,,,,,,,,,,,,,,,,,,,,,,,,,,,,,,,,,,,,I can rely on the aid to do its best every time I take its advice,,0.7,0,3,935.9912,0,0,0,0,1,0,,,,
,6052b0d0dc7dc26036979852,001,2022-04-29_02h09.44.807,classification_task,2021.2.3,Win32,60.16847172,6052b0d0dc7dc26036979852,626b377229c10585ec392f89,626b3aa51b86b109f7115cbd,,,,,,,,,,,,,,,,,,,,,,,,,,,,,,,,,,,,,,,,,,,,,,,,,,,,,"On trials you completed with assistance from the aid, how frequently did you think the aid was correct?",,0.7,0,75%,,0,0,0,0,1,0,,,,
,6052b0d0dc7dc26036979852,001,2022-04-29_02h09.44.807,classification_task,2021.2.3,Win32,60.16847172,6052b0d0dc7dc26036979852,626b377229c10585ec392f89,626b3aa51b86b109f7115cbd,,,,,,,,,,,,,,,,,,,,,,,,,,,,,,,,,,,,,,,,,,,,,,,,,,,,,"On trials you completed without the aid, how frequently did you think you were correct?",,0.7,0,60%,,0,0,0,0,1,0,,,,
,6052b0d0dc7dc26036979852,001,2022-04-29_02h09.44.807,classification_task,2021.2.3,Win32,60.16847172,6052b0d0dc7dc26036979852,626b377229c10585ec392f89,626b3aa51b86b109f7115cbd,,,,,,,,,,,,,,,,,,,,,,,,,,,,,,,,,,,,,,,,,,,,,,,,,,,,,,,,,,,0,0,0,0,1,,,,,
,6052b0d0dc7dc26036979852,001,2022-04-29_02h09.44.807,classification_task,2021.2.3,Win32,60.16847172,6052b0d0dc7dc26036979852,626b377229c10585ec392f89,626b3aa51b86b109f7115cbd,,,,,,,,,,,,,,,,,,,,,,,,,,,,,,,,,,,,,,,,,,,,,,,,,,,,,,,,,,,,,,,,,space,19.4309,1039.5876,
,6052b0d0dc7dc26036979852,001,2022-04-29_02h09.44.807,classification_task,2021.2.3,Win32,60.16847172,6052b0d0dc7dc26036979852,626b377229c10585ec392f89,626b3aa51b86b109f7115cbd,,,,,,,,,,,,,,,,,,,,,,,,,,,,,,,,,,,,,,,,,,,,,,,,,,,,,,,,,,,,,,,,,,,,"Mozilla/5.0 (Windows NT 10.0; Win64; x64) AppleWebKit/537.36 (KHTML, like Gecko) Chrome/100.0.4896.127 Safari/537.36"
