usingWebGL,participant,session,date,expName,psychopyVersion,OS,frameRate,PROLIFIC_PID,STUDY_ID,SESSION_ID,signatures_friend,signatures_foe,band_ranges_top,band_ranges_bottom,formitemText,formtype,formundefined,formitemWidth,formindex,formresponse,formrt,key_resp_2.keys,key_resp_2.rt,tute_resp.keys,tute_resp.rt,tutorial.thisRepN,tutorial.thisTrialN,tutorial.thisN,tutorial.thisIndex,tutorial.ran,key_resp_4.keys,key_resp_4.rt,key_resp.keys,key_resp.corr,lines_presented,is_signal_presented,trials.thisRepN,trials.thisTrialN,trials.thisN,trials.thisIndex,trials.ran,vessel,active_band,lines,is_signal,supported_pos,catch_trial,key_resp.rt,debrief_formindex,debrief_formitemText,debrief_formtype,debrief_formitemWidth,debrief_formresponse,debrief_formrt,phases.thisRepN,phases.thisTrialN,phases.thisN,phases.thisIndex,phases.ran,phases.order,phase,key_resp_3.keys,trustitemText,trusttype,trustitemWidth,trustindex,trustresponse,trustrt,support_status.thisRepN,support_status.thisTrialN,support_status.thisN,support_status.thisIndex,support_status.ran,support_status.order,key_resp_5.keys,key_resp_5.rt,globalClockTime,userAgent
TRUE,6052b6c2c4a1e9b5a8aafc00,001,2022-04-28_18h01.02.943,classification_task,2021.2.3,MacIntel,59.99520038,6052b6c2c4a1e9b5a8aafc00,626b377229c10585ec392f89,626b38a66df768822cafa029,,,,,,,,,,,,,,,,,,,,,,,,,,,,,,,,,,,,,,,,,,,,,,,,,,,,,,,,,,,,,,,,,,,,
,6052b6c2c4a1e9b5a8aafc00,001,2022-04-28_18h01.02.943,classification_task,2021.2.3,MacIntel,59.99520038,6052b6c2c4a1e9b5a8aafc00,626b377229c10585ec392f89,626b38a66df768822cafa029,"[[""0.303"",""0.445"",""0.616"",""0.967""],[""0.264"",""0.339"",""0.879"",""0.931""]]","[[""0.104"",""0.226"",""0.662"",""0.700""],[""0.038"",""0.179"",""0.530"",""0.757""]]","[1,10]","[100,1000]",Video game experience,,,0.7,0,,,,,,,,,,,,,,,,,,,,,,,,,,,,,,,,,,,,,,,,,,,,,,,,,,,,,,,,,,,
,6052b6c2c4a1e9b5a8aafc00,001,2022-04-28_18h01.02.943,classification_task,2021.2.3,MacIntel,59.99520038,6052b6c2c4a1e9b5a8aafc00,626b377229c10585ec392f89,626b38a66df768822cafa029,,,,,Approximately how many hours did you spend playing video games in the last week?,,,0.7,0,30,,,,,,,,,,,,,,,,,,,,,,,,,,,,,,,,,,,,,,,,,,,,,,,,,,,,,,,,,,
,6052b6c2c4a1e9b5a8aafc00,001,2022-04-28_18h01.02.943,classification_task,2021.2.3,MacIntel,59.99520038,6052b6c2c4a1e9b5a8aafc00,626b377229c10585ec392f89,626b38a66df768822cafa029,,,,,"Which game did you play the most this year? (Enter ""None"" if you didn't play any)",,,0.7,0,Dead by Daylight,,,,,,,,,,,,,,,,,,,,,,,,,,,,,,,,,,,,,,,,,,,,,,,,,,,,,,,,,,
,6052b6c2c4a1e9b5a8aafc00,001,2022-04-28_18h01.02.943,classification_task,2021.2.3,MacIntel,59.99520038,6052b6c2c4a1e9b5a8aafc00,626b377229c10585ec392f89,626b38a66df768822cafa029,,,,,Visual perception,,,0.7,0,,,,,,,,,,,,,,,,,,,,,,,,,,,,,,,,,,,,,,,,,,,,,,,,,,,,,,,,,,,
,6052b6c2c4a1e9b5a8aafc00,001,2022-04-28_18h01.02.943,classification_task,2021.2.3,MacIntel,59.99520038,6052b6c2c4a1e9b5a8aafc00,626b377229c10585ec392f89,626b38a66df768822cafa029,,,,,Do you have any form of color blindness?,,,0.7,0,No,29.0109,,,,,,,,,,,,,,,,,,,,,,,,,,,,,,,,,,,,,,,,,,,,,,,,,,,,,,,,,
,6052b6c2c4a1e9b5a8aafc00,001,2022-04-28_18h01.02.943,classification_task,2021.2.3,MacIntel,59.99520038,6052b6c2c4a1e9b5a8aafc00,626b377229c10585ec392f89,626b38a66df768822cafa029,,,,,Do you use software to change the colour temperature of your screen (e.g. f.lux)?,,,0.7,0,No,32.4062,,,,,,,,,,,,,,,,,,,,,,,,,,,,,,,,,,,,,,,,,,,,,,,,,,,,,,,,,
,6052b6c2c4a1e9b5a8aafc00,001,2022-04-28_18h01.02.943,classification_task,2021.2.3,MacIntel,59.99520038,6052b6c2c4a1e9b5a8aafc00,626b377229c10585ec392f89,626b38a66df768822cafa029,,,,,,,,,,,,space,26.0689,space,7.2745,0,0,0,0,1,,,,,,,,,,,,,,,,,,,,,,,,,,,,,,,,,,,,,,,,,,,,,,,,
,6052b6c2c4a1e9b5a8aafc00,001,2022-04-28_18h01.02.943,classification_task,2021.2.3,MacIntel,59.99520038,6052b6c2c4a1e9b5a8aafc00,626b377229c10585ec392f89,626b38a66df768822cafa029,,,,,,,,,,,,,,space,8.5337,1,0,1,0,1,,,,,,,,,,,,,,,,,,,,,,,,,,,,,,,,,,,,,,,,,,,,,,,,
,6052b6c2c4a1e9b5a8aafc00,001,2022-04-28_18h01.02.943,classification_task,2021.2.3,MacIntel,59.99520038,6052b6c2c4a1e9b5a8aafc00,626b377229c10585ec392f89,626b38a66df768822cafa029,,,,,,,,,,,,,,space,14.6815,2,0,2,0,1,,,,,,,,,,,,,,,,,,,,,,,,,,,,,,,,,,,,,,,,,,,,,,,,
,6052b6c2c4a1e9b5a8aafc00,001,2022-04-28_18h01.02.943,classification_task,2021.2.3,MacIntel,59.99520038,6052b6c2c4a1e9b5a8aafc00,626b377229c10585ec392f89,626b38a66df768822cafa029,,,,,,,,,,,,,,space,30.8934,3,0,3,0,1,,,,,,,,,,,,,,,,,,,,,,,,,,,,,,,,,,,,,,,,,,,,,,,,
,6052b6c2c4a1e9b5a8aafc00,001,2022-04-28_18h01.02.943,classification_task,2021.2.3,MacIntel,59.99520038,6052b6c2c4a1e9b5a8aafc00,626b377229c10585ec392f89,626b38a66df768822cafa029,,,,,,,,,,,,,,space,11.8519,4,0,4,0,1,,,,,,,,,,,,,,,,,,,,,,,,,,,,,,,,,,,,,,,,,,,,,,,,
,6052b6c2c4a1e9b5a8aafc00,001,2022-04-28_18h01.02.943,classification_task,2021.2.3,MacIntel,59.99520038,6052b6c2c4a1e9b5a8aafc00,626b377229c10585ec392f89,626b38a66df768822cafa029,,,,,,,,,,,,,,,,,,,,,space,10.0918,,0,"[""0.264"",""0.339"",""0.879"",""0.809""]","[1,1,1,0]",0,0,0,0,1,0,1,,,0,FALSE,,,,,,,,,,,,,,,,,,,,,,,,,,,,,,,
,6052b6c2c4a1e9b5a8aafc00,001,2022-04-28_18h01.02.943,classification_task,2021.2.3,MacIntel,59.99520038,6052b6c2c4a1e9b5a8aafc00,626b377229c10585ec392f89,626b38a66df768822cafa029,,,,,,,,,,,,,,,,,,,,,,,l,1,"[""0.038"",""0.179"",""0.580"",""0.757""]","[1,1,0,1]",0,1,1,1,1,1,1,,,0,FALSE,4.1169,,,,,,,,,,,,,,,,,,,,,,,,,,,,,,
,6052b6c2c4a1e9b5a8aafc00,001,2022-04-28_18h01.02.943,classification_task,2021.2.3,MacIntel,59.99520038,6052b6c2c4a1e9b5a8aafc00,626b377229c10585ec392f89,626b38a66df768822cafa029,,,,,,,,,,,,,,,,,,,,,,,a,1,"[""0.303"",""0.479"",""0.616"",""0.967""]","[1,0,1,1]",0,2,2,2,1,0,0,,,0,FALSE,7.4801,,,,,,,,,,,,,,,,,,,,,,,,,,,,,,
,6052b6c2c4a1e9b5a8aafc00,001,2022-04-28_18h01.02.943,classification_task,2021.2.3,MacIntel,59.99520038,6052b6c2c4a1e9b5a8aafc00,626b377229c10585ec392f89,626b38a66df768822cafa029,,,,,,,,,,,,,,,,,,,,,,,a,1,"[""0.809"",""0.445"",""0.616"",""0.967""]","[0,1,1,1]",0,3,3,3,1,0,0,,,0,FALSE,7.1537,,,,,,,,,,,,,,,,,,,,,,,,,,,,,,
,6052b6c2c4a1e9b5a8aafc00,001,2022-04-28_18h01.02.943,classification_task,2021.2.3,MacIntel,59.99520038,6052b6c2c4a1e9b5a8aafc00,626b377229c10585ec392f89,626b38a66df768822cafa029,,,,,,,,,,,,,,,,,,,,,,,,0,"[""0.809"",""0.179"",""0.530"",""0.757""]","[0,1,1,1]",0,4,4,4,1,1,1,,,0,FALSE,,,,,,,,,,,,,,,,,,,,,,,,,,,,,,,
,6052b6c2c4a1e9b5a8aafc00,001,2022-04-28_18h01.02.943,classification_task,2021.2.3,MacIntel,59.99520038,6052b6c2c4a1e9b5a8aafc00,626b377229c10585ec392f89,626b38a66df768822cafa029,,,,,,,,,,,,,,,,,,,,,,,l,1,"[""0.038"",""0.836"",""0.530"",""0.757""]","[1,0,1,1]",0,5,5,5,1,1,1,,,0,FALSE,4.2555,,,,,,,,,,,,,,,,,,,,,,,,,,,,,,
,6052b6c2c4a1e9b5a8aafc00,001,2022-04-28_18h01.02.943,classification_task,2021.2.3,MacIntel,59.99520038,6052b6c2c4a1e9b5a8aafc00,626b377229c10585ec392f89,626b38a66df768822cafa029,,,,,,,,,,,,,,,,,,,,,,,a,1,"[""0.264"",""0.339"",""0.396"",""0.931""]","[1,1,0,1]",0,6,6,6,1,0,1,,,0,FALSE,4.5919,,,,,,,,,,,,,,,,,,,,,,,,,,,,,,
,6052b6c2c4a1e9b5a8aafc00,001,2022-04-28_18h01.02.943,classification_task,2021.2.3,MacIntel,59.99520038,6052b6c2c4a1e9b5a8aafc00,626b377229c10585ec392f89,626b38a66df768822cafa029,,,,,,,,,,,,,,,,,,,,,,,a,1,"[""0.303"",""0.445"",""0.800"",""0.967""]","[1,1,0,1]",0,7,7,7,1,0,0,,,0,FALSE,4.6946,,,,,,,,,,,,,,,,,,,,,,,,,,,,,,
,6052b6c2c4a1e9b5a8aafc00,001,2022-04-28_18h01.02.943,classification_task,2021.2.3,MacIntel,59.99520038,6052b6c2c4a1e9b5a8aafc00,626b377229c10585ec392f89,626b38a66df768822cafa029,,,,,,,,,,,,,,,,,,,,,,,l,1,"[""0.104"",""0.226"",""0.497"",""0.700""]","[1,1,0,1]",0,8,8,8,1,1,0,,,0,FALSE,5.5362,,,,,,,,,,,,,,,,,,,,,,,,,,,,,,
,6052b6c2c4a1e9b5a8aafc00,001,2022-04-28_18h01.02.943,classification_task,2021.2.3,MacIntel,59.99520038,6052b6c2c4a1e9b5a8aafc00,626b377229c10585ec392f89,626b38a66df768822cafa029,,,,,,,,,,,,,,,,,,,,,,,a,1,"[""0.497"",""0.339"",""0.879"",""0.931""]","[0,1,1,1]",0,9,9,9,1,0,1,,,0,FALSE,4.8274,,,,,,,,,,,,,,,,,,,,,,,,,,,,,,
,6052b6c2c4a1e9b5a8aafc00,001,2022-04-28_18h01.02.943,classification_task,2021.2.3,MacIntel,59.99520038,6052b6c2c4a1e9b5a8aafc00,626b377229c10585ec392f89,626b38a66df768822cafa029,,,,,,,,,,,,,,,,,,,,,,,l,1,"[""0.104"",""0.800"",""0.662"",""0.700""]","[1,0,1,1]",0,10,10,10,1,1,0,,,0,FALSE,5.0384,,,,,,,,,,,,,,,,,,,,,,,,,,,,,,
,6052b6c2c4a1e9b5a8aafc00,001,2022-04-28_18h01.02.943,classification_task,2021.2.3,MacIntel,59.99520038,6052b6c2c4a1e9b5a8aafc00,626b377229c10585ec392f89,626b38a66df768822cafa029,,,,,,,,,,,,,,,,,,,,,,,l,1,"[""0.809"",""0.226"",""0.662"",""0.700""]","[0,1,1,1]",0,11,11,11,1,1,0,,,0,FALSE,6.2847,,,,,,,,,,,,,,,,,,,,,,,,,,,,,,
,6052b6c2c4a1e9b5a8aafc00,001,2022-04-28_18h01.02.943,classification_task,2021.2.3,MacIntel,59.99520038,6052b6c2c4a1e9b5a8aafc00,626b377229c10585ec392f89,626b38a66df768822cafa029,,,,,,,,,,,,,,,,,,,,,,,a,1,"[""0.303"",""0.445"",""0.616"",""0.378""]","[1,1,1,0]",0,12,12,12,1,0,0,,,0,FALSE,6.8472,,,,,,,,,,,,,,,,,,,,,,,,,,,,,,
,6052b6c2c4a1e9b5a8aafc00,001,2022-04-28_18h01.02.943,classification_task,2021.2.3,MacIntel,59.99520038,6052b6c2c4a1e9b5a8aafc00,626b377229c10585ec392f89,626b38a66df768822cafa029,,,,,,,,,,,,,,,,,,,,,,,l,1,"[""0.038"",""0.179"",""0.530"",""0.816""]","[1,1,1,0]",0,13,13,13,1,1,1,,,0,FALSE,3.6357,,,,,,,,,,,,,,,,,,,,,,,,,,,,,,
,6052b6c2c4a1e9b5a8aafc00,001,2022-04-28_18h01.02.943,classification_task,2021.2.3,MacIntel,59.99520038,6052b6c2c4a1e9b5a8aafc00,626b377229c10585ec392f89,626b38a66df768822cafa029,,,,,,,,,,,,,,,,,,,,,,,l,1,"[""0.104"",""0.226"",""0.662"",""0.378""]","[1,1,1,0]",0,14,14,14,1,1,0,,,0,FALSE,5.2454,,,,,,,,,,,,,,,,,,,,,,,,,,,,,,
,6052b6c2c4a1e9b5a8aafc00,001,2022-04-28_18h01.02.943,classification_task,2021.2.3,MacIntel,59.99520038,6052b6c2c4a1e9b5a8aafc00,626b377229c10585ec392f89,626b38a66df768822cafa029,,,,,,,,,,,,,,,,,,,,,,,a,1,"[""0.264"",""0.396"",""0.879"",""0.931""]","[1,0,1,1]",0,15,15,15,1,0,1,,,0,FALSE,3.9273,,,,,,,,,,,,,,,,,,,,,,,,,,,,,,
,6052b6c2c4a1e9b5a8aafc00,001,2022-04-28_18h01.02.943,classification_task,2021.2.3,MacIntel,59.99520038,6052b6c2c4a1e9b5a8aafc00,626b377229c10585ec392f89,626b38a66df768822cafa029,,,,,,,,,,,,,,,,,,,,,,,a,1,"[""0.303"",""0.445"",""0.616"",""0.801""]","[1,1,1,0]",0,16,16,16,1,0,0,,,0,FALSE,5.9372,,,,,,,,,,,,,,,,,,,,,,,,,,,,,,
,6052b6c2c4a1e9b5a8aafc00,001,2022-04-28_18h01.02.943,classification_task,2021.2.3,MacIntel,59.99520038,6052b6c2c4a1e9b5a8aafc00,626b377229c10585ec392f89,626b38a66df768822cafa029,,,,,,,,,,,,,,,,,,,,,,,l,1,"[""0.104"",""0.816"",""0.662"",""0.700""]","[1,0,1,1]",0,17,17,17,1,1,0,,,0,FALSE,3.1442,,,,,,,,,,,,,,,,,,,,,,,,,,,,,,
,6052b6c2c4a1e9b5a8aafc00,001,2022-04-28_18h01.02.943,classification_task,2021.2.3,MacIntel,59.99520038,6052b6c2c4a1e9b5a8aafc00,626b377229c10585ec392f89,626b38a66df768822cafa029,,,,,,,,,,,,,,,,,,,,,,,a,1,"[""0.264"",""0.339"",""0.879"",""0.800""]","[1,1,1,0]",0,18,18,18,1,0,1,,,0,FALSE,3.3157,,,,,,,,,,,,,,,,,,,,,,,,,,,,,,
,6052b6c2c4a1e9b5a8aafc00,001,2022-04-28_18h01.02.943,classification_task,2021.2.3,MacIntel,59.99520038,6052b6c2c4a1e9b5a8aafc00,626b377229c10585ec392f89,626b38a66df768822cafa029,,,,,,,,,,,,,,,,,,,,,,,a,1,"[""0.303"",""0.445"",""0.391"",""0.967""]","[1,1,0,1]",0,19,19,19,1,0,0,,,0,FALSE,5.2355,,,,,,,,,,,,,,,,,,,,,,,,,,,,,,
,6052b6c2c4a1e9b5a8aafc00,001,2022-04-28_18h01.02.943,classification_task,2021.2.3,MacIntel,59.99520038,6052b6c2c4a1e9b5a8aafc00,626b377229c10585ec392f89,626b38a66df768822cafa029,,,,,,,,,,,,,,,,,,,,,,,l,1,"[""0.809"",""0.226"",""0.662"",""0.700""]","[0,1,1,1]",0,20,20,20,1,1,0,,,0,FALSE,8.5123,,,,,,,,,,,,,,,,,,,,,,,,,,,,,,
,6052b6c2c4a1e9b5a8aafc00,001,2022-04-28_18h01.02.943,classification_task,2021.2.3,MacIntel,59.99520038,6052b6c2c4a1e9b5a8aafc00,626b377229c10585ec392f89,626b38a66df768822cafa029,,,,,,,,,,,,,,,,,,,,,,,l,1,"[""0.038"",""0.179"",""0.396"",""0.757""]","[1,1,0,1]",0,21,21,21,1,1,1,,,0,FALSE,2.8397,,,,,,,,,,,,,,,,,,,,,,,,,,,,,,
,6052b6c2c4a1e9b5a8aafc00,001,2022-04-28_18h01.02.943,classification_task,2021.2.3,MacIntel,59.99520038,6052b6c2c4a1e9b5a8aafc00,626b377229c10585ec392f89,626b38a66df768822cafa029,,,,,,,,,,,,,,,,,,,,,,,l,1,"[""0.800"",""0.179"",""0.530"",""0.757""]","[0,1,1,1]",0,22,22,22,1,1,1,,,0,FALSE,5.3661,,,,,,,,,,,,,,,,,,,,,,,,,,,,,,
,6052b6c2c4a1e9b5a8aafc00,001,2022-04-28_18h01.02.943,classification_task,2021.2.3,MacIntel,59.99520038,6052b6c2c4a1e9b5a8aafc00,626b377229c10585ec392f89,626b38a66df768822cafa029,,,,,,,,,,,,,,,,,,,,,,,l,1,"[""0.038"",""0.835"",""0.530"",""0.757""]","[1,0,1,1]",0,23,23,23,1,1,1,,,0,FALSE,2.7563,,,,,,,,,,,,,,,,,,,,,,,,,,,,,,
,6052b6c2c4a1e9b5a8aafc00,001,2022-04-28_18h01.02.943,classification_task,2021.2.3,MacIntel,59.99520038,6052b6c2c4a1e9b5a8aafc00,626b377229c10585ec392f89,626b38a66df768822cafa029,,,,,,,,,,,,,,,,,,,,,,,l,1,"[""0.104"",""0.226"",""0.662"",""0.378""]","[1,1,1,0]",0,24,24,24,1,1,0,,,0,FALSE,5.65,,,,,,,,,,,,,,,,,,,,,,,,,,,,,,
,6052b6c2c4a1e9b5a8aafc00,001,2022-04-28_18h01.02.943,classification_task,2021.2.3,MacIntel,59.99520038,6052b6c2c4a1e9b5a8aafc00,626b377229c10585ec392f89,626b38a66df768822cafa029,,,,,,,,,,,,,,,,,,,,,,,a,1,"[""0.809"",""0.445"",""0.616"",""0.967""]","[0,1,1,1]",0,25,25,25,1,0,0,,,0,FALSE,7.07,,,,,,,,,,,,,,,,,,,,,,,,,,,,,,
,6052b6c2c4a1e9b5a8aafc00,001,2022-04-28_18h01.02.943,classification_task,2021.2.3,MacIntel,59.99520038,6052b6c2c4a1e9b5a8aafc00,626b377229c10585ec392f89,626b38a66df768822cafa029,,,,,,,,,,,,,,,,,,,,,,,a,1,"[""0.264"",""0.339"",""0.836"",""0.931""]","[1,1,0,1]",0,26,26,26,1,0,1,,,0,FALSE,4.1755,,,,,,,,,,,,,,,,,,,,,,,,,,,,,,
,6052b6c2c4a1e9b5a8aafc00,001,2022-04-28_18h01.02.943,classification_task,2021.2.3,MacIntel,59.99520038,6052b6c2c4a1e9b5a8aafc00,626b377229c10585ec392f89,626b38a66df768822cafa029,,,,,,,,,,,,,,,,,,,,,,,l,1,"[""0.104"",""0.226"",""0.835"",""0.700""]","[1,1,0,1]",0,27,27,27,1,1,0,,,0,FALSE,6.2289,,,,,,,,,,,,,,,,,,,,,,,,,,,,,,
,6052b6c2c4a1e9b5a8aafc00,001,2022-04-28_18h01.02.943,classification_task,2021.2.3,MacIntel,59.99520038,6052b6c2c4a1e9b5a8aafc00,626b377229c10585ec392f89,626b38a66df768822cafa029,,,,,,,,,,,,,,,,,,,,,,,a,1,"[""0.792"",""0.339"",""0.879"",""0.931""]","[0,1,1,1]",0,28,28,28,1,0,1,,,0,FALSE,4.0454,,,,,,,,,,,,,,,,,,,,,,,,,,,,,,
,6052b6c2c4a1e9b5a8aafc00,001,2022-04-28_18h01.02.943,classification_task,2021.2.3,MacIntel,59.99520038,6052b6c2c4a1e9b5a8aafc00,626b377229c10585ec392f89,626b38a66df768822cafa029,,,,,,,,,,,,,,,,,,,,,,,a,1,"[""0.303"",""0.800"",""0.616"",""0.967""]","[1,0,1,1]",0,29,29,29,1,0,0,,,0,FALSE,6.3883,,,,,,,,,,,,,,,,,,,,,,,,,,,,,,
,6052b6c2c4a1e9b5a8aafc00,001,2022-04-28_18h01.02.943,classification_task,2021.2.3,MacIntel,59.99520038,6052b6c2c4a1e9b5a8aafc00,626b377229c10585ec392f89,626b38a66df768822cafa029,,,,,,,,,,,,,,,,,,,,,,,a,1,"[""0.264"",""0.835"",""0.879"",""0.931""]","[1,0,1,1]",0,30,30,30,1,0,1,,,0,FALSE,5.9954,,,,,,,,,,,,,,,,,,,,,,,,,,,,,,
,6052b6c2c4a1e9b5a8aafc00,001,2022-04-28_18h01.02.943,classification_task,2021.2.3,MacIntel,59.99520038,6052b6c2c4a1e9b5a8aafc00,626b377229c10585ec392f89,626b38a66df768822cafa029,,,,,,,,,,,,,,,,,,,,,,,l,1,"[""0.038"",""0.179"",""0.530"",""0.391""]","[1,1,1,0]",0,31,31,31,1,1,1,,,0,FALSE,2.3594,,,,,,,,,,,,,,,,,,,,,,,,,,,,,,
,6052b6c2c4a1e9b5a8aafc00,001,2022-04-28_18h01.02.943,classification_task,2021.2.3,MacIntel,59.99520038,6052b6c2c4a1e9b5a8aafc00,626b377229c10585ec392f89,626b38a66df768822cafa029,,,,,,,,,,,,,,,,,,,,,,,l,1,"[""0.497"",""0.179"",""0.530"",""0.757""]","[0,1,1,1]",0,32,32,32,1,1,1,,,0,FALSE,4.5532,,,,,,,,,,,,,,,,,,,,,,,,,,,,,,
,6052b6c2c4a1e9b5a8aafc00,001,2022-04-28_18h01.02.943,classification_task,2021.2.3,MacIntel,59.99520038,6052b6c2c4a1e9b5a8aafc00,626b377229c10585ec392f89,626b38a66df768822cafa029,,,,,,,,,,,,,,,,,,,,,,,a,1,"[""0.303"",""0.445"",""0.378"",""0.967""]","[1,1,0,1]",0,33,33,33,1,0,0,,,0,FALSE,2.1198,,,,,,,,,,,,,,,,,,,,,,,,,,,,,,
,6052b6c2c4a1e9b5a8aafc00,001,2022-04-28_18h01.02.943,classification_task,2021.2.3,MacIntel,59.99520038,6052b6c2c4a1e9b5a8aafc00,626b377229c10585ec392f89,626b38a66df768822cafa029,,,,,,,,,,,,,,,,,,,,,,,l,1,"[""0.396"",""0.226"",""0.662"",""0.700""]","[0,1,1,1]",0,34,34,34,1,1,0,,,0,FALSE,2.0274,,,,,,,,,,,,,,,,,,,,,,,,,,,,,,
,6052b6c2c4a1e9b5a8aafc00,001,2022-04-28_18h01.02.943,classification_task,2021.2.3,MacIntel,59.99520038,6052b6c2c4a1e9b5a8aafc00,626b377229c10585ec392f89,626b38a66df768822cafa029,,,,,,,,,,,,,,,,,,,,,,,l,1,"[""0.038"",""0.179"",""0.497"",""0.757""]","[1,1,0,1]",0,35,35,35,1,1,1,,,0,FALSE,1.2697,,,,,,,,,,,,,,,,,,,,,,,,,,,,,,
,6052b6c2c4a1e9b5a8aafc00,001,2022-04-28_18h01.02.943,classification_task,2021.2.3,MacIntel,59.99520038,6052b6c2c4a1e9b5a8aafc00,626b377229c10585ec392f89,626b38a66df768822cafa029,,,,,,,,,,,,,,,,,,,,,,,l,1,"[""0.104"",""0.226"",""0.835"",""0.700""]","[1,1,0,1]",0,36,36,36,1,1,0,,,0,FALSE,1.3638,,,,,,,,,,,,,,,,,,,,,,,,,,,,,,
,6052b6c2c4a1e9b5a8aafc00,001,2022-04-28_18h01.02.943,classification_task,2021.2.3,MacIntel,59.99520038,6052b6c2c4a1e9b5a8aafc00,626b377229c10585ec392f89,626b38a66df768822cafa029,,,,,,,,,,,,,,,,,,,,,,,a,1,"[""0.303"",""0.445"",""0.616"",""0.792""]","[1,1,1,0]",0,37,37,37,1,0,0,,,0,FALSE,1.4988,,,,,,,,,,,,,,,,,,,,,,,,,,,,,,
,6052b6c2c4a1e9b5a8aafc00,001,2022-04-28_18h01.02.943,classification_task,2021.2.3,MacIntel,59.99520038,6052b6c2c4a1e9b5a8aafc00,626b377229c10585ec392f89,626b38a66df768822cafa029,,,,,,,,,,,,,,,,,,,,,,,a,1,"[""0.264"",""0.339"",""0.879"",""0.391""]","[1,1,1,0]",0,38,38,38,1,0,1,,,0,FALSE,3.3011,,,,,,,,,,,,,,,,,,,,,,,,,,,,,,
,6052b6c2c4a1e9b5a8aafc00,001,2022-04-28_18h01.02.943,classification_task,2021.2.3,MacIntel,59.99520038,6052b6c2c4a1e9b5a8aafc00,626b377229c10585ec392f89,626b38a66df768822cafa029,,,,,,,,,,,,,,,,,,,,,,,a,1,"[""0.816"",""0.339"",""0.879"",""0.931""]","[0,1,1,1]",0,39,39,39,1,0,1,,,0,FALSE,1.7966,,,,,,,,,,,,,,,,,,,,,,,,,,,,,,
,6052b6c2c4a1e9b5a8aafc00,001,2022-04-28_18h01.02.943,classification_task,2021.2.3,MacIntel,59.99520038,6052b6c2c4a1e9b5a8aafc00,626b377229c10585ec392f89,626b38a66df768822cafa029,,,,,,,,,,,,,,,,,,,,,,,l,1,"[""0.038"",""0.179"",""0.530"",""0.836""]","[1,1,1,0]",0,40,40,40,1,1,1,,,0,FALSE,1.1597,,,,,,,,,,,,,,,,,,,,,,,,,,,,,,
,6052b6c2c4a1e9b5a8aafc00,001,2022-04-28_18h01.02.943,classification_task,2021.2.3,MacIntel,59.99520038,6052b6c2c4a1e9b5a8aafc00,626b377229c10585ec392f89,626b38a66df768822cafa029,,,,,,,,,,,,,,,,,,,,,,,a,1,"[""0.303"",""0.479"",""0.616"",""0.967""]","[1,0,1,1]",0,41,41,41,1,0,0,,,0,FALSE,1.4422,,,,,,,,,,,,,,,,,,,,,,,,,,,,,,
,6052b6c2c4a1e9b5a8aafc00,001,2022-04-28_18h01.02.943,classification_task,2021.2.3,MacIntel,59.99520038,6052b6c2c4a1e9b5a8aafc00,626b377229c10585ec392f89,626b38a66df768822cafa029,,,,,,,,,,,,,,,,,,,,,,,l,1,"[""0.038"",""0.497"",""0.530"",""0.757""]","[1,0,1,1]",0,42,42,42,1,1,1,,,0,FALSE,2.2856,,,,,,,,,,,,,,,,,,,,,,,,,,,,,,
,6052b6c2c4a1e9b5a8aafc00,001,2022-04-28_18h01.02.943,classification_task,2021.2.3,MacIntel,59.99520038,6052b6c2c4a1e9b5a8aafc00,626b377229c10585ec392f89,626b38a66df768822cafa029,,,,,,,,,,,,,,,,,,,,,,,l,1,"[""0.104"",""0.801"",""0.662"",""0.700""]","[1,0,1,1]",0,43,43,43,1,1,0,,,0,FALSE,1.3653,,,,,,,,,,,,,,,,,,,,,,,,,,,,,,
,6052b6c2c4a1e9b5a8aafc00,001,2022-04-28_18h01.02.943,classification_task,2021.2.3,MacIntel,59.99520038,6052b6c2c4a1e9b5a8aafc00,626b377229c10585ec392f89,626b38a66df768822cafa029,,,,,,,,,,,,,,,,,,,,,,,l,1,"[""0.104"",""0.226"",""0.662"",""0.801""]","[1,1,1,0]",0,44,44,44,1,1,0,,,0,FALSE,1.2159,,,,,,,,,,,,,,,,,,,,,,,,,,,,,,
,6052b6c2c4a1e9b5a8aafc00,001,2022-04-28_18h01.02.943,classification_task,2021.2.3,MacIntel,59.99520038,6052b6c2c4a1e9b5a8aafc00,626b377229c10585ec392f89,626b38a66df768822cafa029,,,,,,,,,,,,,,,,,,,,,,,a,1,"[""0.264"",""0.339"",""0.836"",""0.931""]","[1,1,0,1]",0,45,45,45,1,0,1,,,0,FALSE,1.7973,,,,,,,,,,,,,,,,,,,,,,,,,,,,,,
,6052b6c2c4a1e9b5a8aafc00,001,2022-04-28_18h01.02.943,classification_task,2021.2.3,MacIntel,59.99520038,6052b6c2c4a1e9b5a8aafc00,626b377229c10585ec392f89,626b38a66df768822cafa029,,,,,,,,,,,,,,,,,,,,,,,a,1,"[""0.264"",""0.580"",""0.879"",""0.931""]","[1,0,1,1]",0,46,46,46,1,0,1,,,0,FALSE,0.9971,,,,,,,,,,,,,,,,,,,,,,,,,,,,,,
,6052b6c2c4a1e9b5a8aafc00,001,2022-04-28_18h01.02.943,classification_task,2021.2.3,MacIntel,59.99520038,6052b6c2c4a1e9b5a8aafc00,626b377229c10585ec392f89,626b38a66df768822cafa029,,,,,,,,,,,,,,,,,,,,,,,a,1,"[""0.391"",""0.445"",""0.616"",""0.967""]","[0,1,1,1]",0,47,47,47,1,0,0,,,0,FALSE,1.7214,,,,,,,,,,,,,,,,,,,,,,,,,,,,,,
,6052b6c2c4a1e9b5a8aafc00,001,2022-04-28_18h01.02.943,classification_task,2021.2.3,MacIntel,59.99520038,6052b6c2c4a1e9b5a8aafc00,626b377229c10585ec392f89,626b38a66df768822cafa029,,,,,,,,,,,,,,,,,,,,,,,a,1,"[""0.264"",""0.339"",""0.809"",""0.931""]","[1,1,0,1]",0,48,48,48,1,0,1,,,0,FALSE,1.7974,,,,,,,,,,,,,,,,,,,,,,,,,,,,,,
,6052b6c2c4a1e9b5a8aafc00,001,2022-04-28_18h01.02.943,classification_task,2021.2.3,MacIntel,59.99520038,6052b6c2c4a1e9b5a8aafc00,626b377229c10585ec392f89,626b38a66df768822cafa029,,,,,,,,,,,,,,,,,,,,,,,l,1,"[""0.809"",""0.226"",""0.662"",""0.700""]","[0,1,1,1]",0,49,49,49,1,1,0,,,0,FALSE,1.3375,,,,,,,,,,,,,,,,,,,,,,,,,,,,,,
,6052b6c2c4a1e9b5a8aafc00,001,2022-04-28_18h01.02.943,classification_task,2021.2.3,MacIntel,59.99520038,6052b6c2c4a1e9b5a8aafc00,626b377229c10585ec392f89,626b38a66df768822cafa029,,,,,,,,,,,,,,,,,,,,,,,a,1,"[""0.303"",""0.570"",""0.616"",""0.967""]","[1,0,1,1]",0,50,50,50,1,0,0,,,0,FALSE,0.8392,,,,,,,,,,,,,,,,,,,,,,,,,,,,,,
,6052b6c2c4a1e9b5a8aafc00,001,2022-04-28_18h01.02.943,classification_task,2021.2.3,MacIntel,59.99520038,6052b6c2c4a1e9b5a8aafc00,626b377229c10585ec392f89,626b38a66df768822cafa029,,,,,,,,,,,,,,,,,,,,,,,a,1,"[""0.264"",""0.339"",""0.879"",""0.570""]","[1,1,1,0]",0,51,51,51,1,0,1,,,0,FALSE,1.502,,,,,,,,,,,,,,,,,,,,,,,,,,,,,,
,6052b6c2c4a1e9b5a8aafc00,001,2022-04-28_18h01.02.943,classification_task,2021.2.3,MacIntel,59.99520038,6052b6c2c4a1e9b5a8aafc00,626b377229c10585ec392f89,626b38a66df768822cafa029,,,,,,,,,,,,,,,,,,,,,,,l,1,"[""0.396"",""0.179"",""0.530"",""0.757""]","[0,1,1,1]",0,52,52,52,1,1,1,,,0,FALSE,1.0433,,,,,,,,,,,,,,,,,,,,,,,,,,,,,,
,6052b6c2c4a1e9b5a8aafc00,001,2022-04-28_18h01.02.943,classification_task,2021.2.3,MacIntel,59.99520038,6052b6c2c4a1e9b5a8aafc00,626b377229c10585ec392f89,626b38a66df768822cafa029,,,,,,,,,,,,,,,,,,,,,,,a,1,"[""0.303"",""0.445"",""0.801"",""0.967""]","[1,1,0,1]",0,53,53,53,1,0,0,,,0,FALSE,2.5527,,,,,,,,,,,,,,,,,,,,,,,,,,,,,,
,6052b6c2c4a1e9b5a8aafc00,001,2022-04-28_18h01.02.943,classification_task,2021.2.3,MacIntel,59.99520038,6052b6c2c4a1e9b5a8aafc00,626b377229c10585ec392f89,626b38a66df768822cafa029,,,,,,,,,,,,,,,,,,,,,,,l,1,"[""0.038"",""0.179"",""0.378"",""0.757""]","[1,1,0,1]",0,54,54,54,1,1,1,,,0,FALSE,0.8907,,,,,,,,,,,,,,,,,,,,,,,,,,,,,,
,6052b6c2c4a1e9b5a8aafc00,001,2022-04-28_18h01.02.943,classification_task,2021.2.3,MacIntel,59.99520038,6052b6c2c4a1e9b5a8aafc00,626b377229c10585ec392f89,626b38a66df768822cafa029,,,,,,,,,,,,,,,,,,,,,,,l,1,"[""0.104"",""0.226"",""0.662"",""0.391""]","[1,1,1,0]",0,55,55,55,1,1,0,,,0,FALSE,1.2512,,,,,,,,,,,,,,,,,,,,,,,,,,,,,,
,6052b6c2c4a1e9b5a8aafc00,001,2022-04-28_18h01.02.943,classification_task,2021.2.3,MacIntel,59.99520038,6052b6c2c4a1e9b5a8aafc00,626b377229c10585ec392f89,626b38a66df768822cafa029,,,,,,,,,,,,,,,,,,,,,,,l,1,"[""0.104"",""0.580"",""0.662"",""0.700""]","[1,0,1,1]",0,56,56,56,1,1,0,,,0,FALSE,0.9274,,,,,,,,,,,,,,,,,,,,,,,,,,,,,,
,6052b6c2c4a1e9b5a8aafc00,001,2022-04-28_18h01.02.943,classification_task,2021.2.3,MacIntel,59.99520038,6052b6c2c4a1e9b5a8aafc00,626b377229c10585ec392f89,626b38a66df768822cafa029,,,,,,,,,,,,,,,,,,,,,,,a,1,"[""0.264"",""0.809"",""0.879"",""0.931""]","[1,0,1,1]",0,57,57,57,1,0,1,,,0,FALSE,1.8904,,,,,,,,,,,,,,,,,,,,,,,,,,,,,,
,6052b6c2c4a1e9b5a8aafc00,001,2022-04-28_18h01.02.943,classification_task,2021.2.3,MacIntel,59.99520038,6052b6c2c4a1e9b5a8aafc00,626b377229c10585ec392f89,626b38a66df768822cafa029,,,,,,,,,,,,,,,,,,,,,,,a,1,"[""0.816"",""0.339"",""0.879"",""0.931""]","[0,1,1,1]",0,58,58,58,1,0,1,,,0,FALSE,1.3426,,,,,,,,,,,,,,,,,,,,,,,,,,,,,,
,6052b6c2c4a1e9b5a8aafc00,001,2022-04-28_18h01.02.943,classification_task,2021.2.3,MacIntel,59.99520038,6052b6c2c4a1e9b5a8aafc00,626b377229c10585ec392f89,626b38a66df768822cafa029,,,,,,,,,,,,,,,,,,,,,,,a,1,"[""0.396"",""0.445"",""0.616"",""0.967""]","[0,1,1,1]",0,59,59,59,1,0,0,,,0,FALSE,1.3542,,,,,,,,,,,,,,,,,,,,,,,,,,,,,,
,6052b6c2c4a1e9b5a8aafc00,001,2022-04-28_18h01.02.943,classification_task,2021.2.3,MacIntel,59.99520038,6052b6c2c4a1e9b5a8aafc00,626b377229c10585ec392f89,626b38a66df768822cafa029,,,,,,,,,,,,,,,,,,,,,,,l,1,"[""0.104"",""0.226"",""0.570"",""0.700""]","[1,1,0,1]",0,60,60,60,1,1,0,,,0,FALSE,0.8739,,,,,,,,,,,,,,,,,,,,,,,,,,,,,,
,6052b6c2c4a1e9b5a8aafc00,001,2022-04-28_18h01.02.943,classification_task,2021.2.3,MacIntel,59.99520038,6052b6c2c4a1e9b5a8aafc00,626b377229c10585ec392f89,626b38a66df768822cafa029,,,,,,,,,,,,,,,,,,,,,,,l,1,"[""0.038"",""0.815"",""0.530"",""0.757""]","[1,0,1,1]",0,61,61,61,1,1,1,,,0,FALSE,0.8274,,,,,,,,,,,,,,,,,,,,,,,,,,,,,,
,6052b6c2c4a1e9b5a8aafc00,001,2022-04-28_18h01.02.943,classification_task,2021.2.3,MacIntel,59.99520038,6052b6c2c4a1e9b5a8aafc00,626b377229c10585ec392f89,626b38a66df768822cafa029,,,,,,,,,,,,,,,,,,,,,,,a,1,"[""0.303"",""0.445"",""0.616"",""0.378""]","[1,1,1,0]",0,62,62,62,1,0,0,,,0,FALSE,1.2694,,,,,,,,,,,,,,,,,,,,,,,,,,,,,,
,6052b6c2c4a1e9b5a8aafc00,001,2022-04-28_18h01.02.943,classification_task,2021.2.3,MacIntel,59.99520038,6052b6c2c4a1e9b5a8aafc00,626b377229c10585ec392f89,626b38a66df768822cafa029,,,,,,,,,,,,,,,,,,,,,,,l,1,"[""0.038"",""0.179"",""0.530"",""0.378""]","[1,1,1,0]",0,63,63,63,1,1,1,,,0,FALSE,0.7996,,,,,,,,,,,,,,,,,,,,,,,,,,,,,,
,6052b6c2c4a1e9b5a8aafc00,001,2022-04-28_18h01.02.943,classification_task,2021.2.3,MacIntel,59.99520038,6052b6c2c4a1e9b5a8aafc00,626b377229c10585ec392f89,626b38a66df768822cafa029,,,,,,,,,,,,,,,,,,,,,,,,,,,,,,,,,,,,,,,0, ,,0,5.228807829,476.1346,0,0,0,0,1,2,1,,,,,,,,,,,,,,,,,
,6052b6c2c4a1e9b5a8aafc00,001,2022-04-28_18h01.02.943,classification_task,2021.2.3,MacIntel,59.99520038,6052b6c2c4a1e9b5a8aafc00,626b377229c10585ec392f89,626b38a66df768822cafa029,,,,,,,,,,,,,,,,,,,,,,,,,,,,,,,,,,,,,,,1,  ,,0,6.694654031,467.4842,0,0,0,0,1,2,1,,,,,,,,,,,,,,,,,
,6052b6c2c4a1e9b5a8aafc00,001,2022-04-28_18h01.02.943,classification_task,2021.2.3,MacIntel,59.99520038,6052b6c2c4a1e9b5a8aafc00,626b377229c10585ec392f89,626b38a66df768822cafa029,,,,,,,,,,,,,,,,,,,,,,,,,,,,,,,,,,,,,,,2,  ,,0,5.993971962,473.6812,0,0,0,0,1,2,1,,,,,,,,,,,,,,,,,
,6052b6c2c4a1e9b5a8aafc00,001,2022-04-28_18h01.02.943,classification_task,2021.2.3,MacIntel,59.99520038,6052b6c2c4a1e9b5a8aafc00,626b377229c10585ec392f89,626b38a66df768822cafa029,,,,,,,,,,,,,,,,,,,,,,,,,,,,,,,,,,,,,,,,,,,,,0,0,0,0,1,,1,,,,,,,,,,,,,,,,,
,6052b6c2c4a1e9b5a8aafc00,001,2022-04-28_18h01.02.943,classification_task,2021.2.3,MacIntel,59.99520038,6052b6c2c4a1e9b5a8aafc00,626b377229c10585ec392f89,626b38a66df768822cafa029,,,,,,,,,,,,,,,,,,,,,space,10.0613,l,1,"[""0.396"",""0.179"",""0.530"",""0.757""]","[0,1,1,1]",0,0,0,0,1,1,1,,,0,FALSE,6.6772,,,,,,,,,,,,,,,,,,,,,,,,,,,,,,
,6052b6c2c4a1e9b5a8aafc00,001,2022-04-28_18h01.02.943,classification_task,2021.2.3,MacIntel,59.99520038,6052b6c2c4a1e9b5a8aafc00,626b377229c10585ec392f89,626b38a66df768822cafa029,,,,,,,,,,,,,,,,,,,,,,,l,1,"[""0.104"",""0.396"",""0.662"",""0.700""]","[1,0,1,1]",0,1,1,1,1,1,0,,,0,FALSE,2.1954,,,,,,,,,,,,,,,,,,,,,,,,,,,,,,
,6052b6c2c4a1e9b5a8aafc00,001,2022-04-28_18h01.02.943,classification_task,2021.2.3,MacIntel,59.99520038,6052b6c2c4a1e9b5a8aafc00,626b377229c10585ec392f89,626b38a66df768822cafa029,,,,,,,,,,,,,,,,,,,,,,,l,1,"[""0.038"",""0.179"",""0.570"",""0.757""]","[1,1,0,1]",0,2,2,2,1,1,1,,,0,FALSE,1.5228,,,,,,,,,,,,,,,,,,,,,,,,,,,,,,
,6052b6c2c4a1e9b5a8aafc00,001,2022-04-28_18h01.02.943,classification_task,2021.2.3,MacIntel,59.99520038,6052b6c2c4a1e9b5a8aafc00,626b377229c10585ec392f89,626b38a66df768822cafa029,,,,,,,,,,,,,,,,,,,,,,,a,1,"[""0.800"",""0.339"",""0.879"",""0.931""]","[0,1,1,1]",0,3,3,3,1,0,1,,,0,FALSE,1.7783,,,,,,,,,,,,,,,,,,,,,,,,,,,,,,
,6052b6c2c4a1e9b5a8aafc00,001,2022-04-28_18h01.02.943,classification_task,2021.2.3,MacIntel,59.99520038,6052b6c2c4a1e9b5a8aafc00,626b377229c10585ec392f89,626b38a66df768822cafa029,,,,,,,,,,,,,,,,,,,,,,,l,1,"[""0.038"",""0.179"",""0.530"",""0.801""]","[1,1,1,0]",0,4,4,4,1,1,1,,,0,FALSE,1.1064,,,,,,,,,,,,,,,,,,,,,,,,,,,,,,
,6052b6c2c4a1e9b5a8aafc00,001,2022-04-28_18h01.02.943,classification_task,2021.2.3,MacIntel,59.99520038,6052b6c2c4a1e9b5a8aafc00,626b377229c10585ec392f89,626b38a66df768822cafa029,,,,,,,,,,,,,,,,,,,,,,,l,1,"[""0.038"",""0.803"",""0.530"",""0.757""]","[1,0,1,1]",0,5,5,5,1,1,1,,,0,FALSE,0.7978,,,,,,,,,,,,,,,,,,,,,,,,,,,,,,
,6052b6c2c4a1e9b5a8aafc00,001,2022-04-28_18h01.02.943,classification_task,2021.2.3,MacIntel,59.99520038,6052b6c2c4a1e9b5a8aafc00,626b377229c10585ec392f89,626b38a66df768822cafa029,,,,,,,,,,,,,,,,,,,,,,,a,1,"[""0.303"",""0.445"",""0.616"",""0.800""]","[1,1,1,0]",0,6,6,6,1,0,0,,,0,FALSE,1.3691,,,,,,,,,,,,,,,,,,,,,,,,,,,,,,
,6052b6c2c4a1e9b5a8aafc00,001,2022-04-28_18h01.02.943,classification_task,2021.2.3,MacIntel,59.99520038,6052b6c2c4a1e9b5a8aafc00,626b377229c10585ec392f89,626b38a66df768822cafa029,,,,,,,,,,,,,,,,,,,,,,,a,0,"[""0.396"",""0.226"",""0.662"",""0.700""]","[0,1,1,1]",0,7,7,7,1,1,0,,,0,FALSE,1.3418,,,,,,,,,,,,,,,,,,,,,,,,,,,,,,
,6052b6c2c4a1e9b5a8aafc00,001,2022-04-28_18h01.02.943,classification_task,2021.2.3,MacIntel,59.99520038,6052b6c2c4a1e9b5a8aafc00,626b377229c10585ec392f89,626b38a66df768822cafa029,,,,,,,,,,,,,,,,,,,,,,,l,1,"[""0.104"",""0.226"",""0.835"",""0.700""]","[1,1,0,1]",0,8,8,8,1,1,0,,,0,FALSE,0.9407,,,,,,,,,,,,,,,,,,,,,,,,,,,,,,
,6052b6c2c4a1e9b5a8aafc00,001,2022-04-28_18h01.02.943,classification_task,2021.2.3,MacIntel,59.99520038,6052b6c2c4a1e9b5a8aafc00,626b377229c10585ec392f89,626b38a66df768822cafa029,,,,,,,,,,,,,,,,,,,,,,,a,1,"[""0.264"",""0.339"",""0.879"",""0.801""]","[1,1,1,0]",0,9,9,9,1,0,1,,,0,FALSE,1.0955,,,,,,,,,,,,,,,,,,,,,,,,,,,,,,
,6052b6c2c4a1e9b5a8aafc00,001,2022-04-28_18h01.02.943,classification_task,2021.2.3,MacIntel,59.99520038,6052b6c2c4a1e9b5a8aafc00,626b377229c10585ec392f89,626b38a66df768822cafa029,,,,,,,,,,,,,,,,,,,,,,,a,1,"[""0.497"",""0.445"",""0.616"",""0.967""]","[0,1,1,1]",0,10,10,10,1,0,0,,,0,FALSE,1.045,,,,,,,,,,,,,,,,,,,,,,,,,,,,,,
,6052b6c2c4a1e9b5a8aafc00,001,2022-04-28_18h01.02.943,classification_task,2021.2.3,MacIntel,59.99520038,6052b6c2c4a1e9b5a8aafc00,626b377229c10585ec392f89,626b38a66df768822cafa029,,,,,,,,,,,,,,,,,,,,,,,a,1,"[""0.303"",""0.378"",""0.616"",""0.967""]","[1,0,1,1]",0,11,11,11,1,0,0,,,0,FALSE,0.9686,,,,,,,,,,,,,,,,,,,,,,,,,,,,,,
,6052b6c2c4a1e9b5a8aafc00,001,2022-04-28_18h01.02.943,classification_task,2021.2.3,MacIntel,59.99520038,6052b6c2c4a1e9b5a8aafc00,626b377229c10585ec392f89,626b38a66df768822cafa029,,,,,,,,,,,,,,,,,,,,,,,a,1,"[""0.303"",""0.445"",""0.396"",""0.967""]","[1,1,0,1]",0,12,12,12,1,0,0,,,0,FALSE,1.1958,,,,,,,,,,,,,,,,,,,,,,,,,,,,,,
,6052b6c2c4a1e9b5a8aafc00,001,2022-04-28_18h01.02.943,classification_task,2021.2.3,MacIntel,59.99520038,6052b6c2c4a1e9b5a8aafc00,626b377229c10585ec392f89,626b38a66df768822cafa029,,,,,,,,,,,,,,,,,,,,,,,l,0,"[""0.264"",""0.339"",""0.816"",""0.931""]","[1,1,0,1]",0,13,13,13,1,0,1,,,0,FALSE,1.5509,,,,,,,,,,,,,,,,,,,,,,,,,,,,,,
,6052b6c2c4a1e9b5a8aafc00,001,2022-04-28_18h01.02.943,classification_task,2021.2.3,MacIntel,59.99520038,6052b6c2c4a1e9b5a8aafc00,626b377229c10585ec392f89,626b38a66df768822cafa029,,,,,,,,,,,,,,,,,,,,,,,l,1,"[""0.104"",""0.226"",""0.662"",""0.580""]","[1,1,1,0]",0,14,14,14,1,1,0,,,0,FALSE,0.9496,,,,,,,,,,,,,,,,,,,,,,,,,,,,,,
,6052b6c2c4a1e9b5a8aafc00,001,2022-04-28_18h01.02.943,classification_task,2021.2.3,MacIntel,59.99520038,6052b6c2c4a1e9b5a8aafc00,626b377229c10585ec392f89,626b38a66df768822cafa029,,,,,,,,,,,,,,,,,,,,,,,a,1,"[""0.264"",""0.809"",""0.879"",""0.931""]","[1,0,1,1]",0,15,15,15,1,0,1,,,0,FALSE,3.179,,,,,,,,,,,,,,,,,,,,,,,,,,,,,,
,6052b6c2c4a1e9b5a8aafc00,001,2022-04-28_18h01.02.943,classification_task,2021.2.3,MacIntel,59.99520038,6052b6c2c4a1e9b5a8aafc00,626b377229c10585ec392f89,626b38a66df768822cafa029,,,,,,,,,,,,,,,,,,,,,,,l,1,"[""0.104"",""0.226"",""0.662"",""0.816""]","[1,1,1,0]",0,16,16,16,1,1,0,,,0,FALSE,1.0226,,,,,,,,,,,,,,,,,,,,,,,,,,,,,,
,6052b6c2c4a1e9b5a8aafc00,001,2022-04-28_18h01.02.943,classification_task,2021.2.3,MacIntel,59.99520038,6052b6c2c4a1e9b5a8aafc00,626b377229c10585ec392f89,626b38a66df768822cafa029,,,,,,,,,,,,,,,,,,,,,,,l,1,"[""0.104"",""0.803"",""0.662"",""0.700""]","[1,0,1,1]",0,17,17,17,1,1,0,,,0,FALSE,0.8284,,,,,,,,,,,,,,,,,,,,,,,,,,,,,,
,6052b6c2c4a1e9b5a8aafc00,001,2022-04-28_18h01.02.943,classification_task,2021.2.3,MacIntel,59.99520038,6052b6c2c4a1e9b5a8aafc00,626b377229c10585ec392f89,626b38a66df768822cafa029,,,,,,,,,,,,,,,,,,,,,,,l,1,"[""0.580"",""0.179"",""0.530"",""0.757""]","[0,1,1,1]",0,18,18,18,1,1,1,,,0,FALSE,1.4066,,,,,,,,,,,,,,,,,,,,,,,,,,,,,,
,6052b6c2c4a1e9b5a8aafc00,001,2022-04-28_18h01.02.943,classification_task,2021.2.3,MacIntel,59.99520038,6052b6c2c4a1e9b5a8aafc00,626b377229c10585ec392f89,626b38a66df768822cafa029,,,,,,,,,,,,,,,,,,,,,,,a,1,"[""0.303"",""0.497"",""0.616"",""0.967""]","[1,0,1,1]",0,19,19,19,1,0,0,,,0,FALSE,0.9725,,,,,,,,,,,,,,,,,,,,,,,,,,,,,,
,6052b6c2c4a1e9b5a8aafc00,001,2022-04-28_18h01.02.943,classification_task,2021.2.3,MacIntel,59.99520038,6052b6c2c4a1e9b5a8aafc00,626b377229c10585ec392f89,626b38a66df768822cafa029,,,,,,,,,,,,,,,,,,,,,,,a,1,"[""0.497"",""0.339"",""0.879"",""0.931""]","[0,1,1,1]",0,20,20,20,1,0,1,,,0,FALSE,1.5256,,,,,,,,,,,,,,,,,,,,,,,,,,,,,,
,6052b6c2c4a1e9b5a8aafc00,001,2022-04-28_18h01.02.943,classification_task,2021.2.3,MacIntel,59.99520038,6052b6c2c4a1e9b5a8aafc00,626b377229c10585ec392f89,626b38a66df768822cafa029,,,,,,,,,,,,,,,,,,,,,,,l,1,"[""0.038"",""0.803"",""0.530"",""0.757""]","[1,0,1,1]",0,21,21,21,1,1,1,,,0,FALSE,0.8544,,,,,,,,,,,,,,,,,,,,,,,,,,,,,,
,6052b6c2c4a1e9b5a8aafc00,001,2022-04-28_18h01.02.943,classification_task,2021.2.3,MacIntel,59.99520038,6052b6c2c4a1e9b5a8aafc00,626b377229c10585ec392f89,626b38a66df768822cafa029,,,,,,,,,,,,,,,,,,,,,,,l,1,"[""0.038"",""0.179"",""0.530"",""0.815""]","[1,1,1,0]",0,22,22,22,1,1,1,,,0,FALSE,0.7947,,,,,,,,,,,,,,,,,,,,,,,,,,,,,,
,6052b6c2c4a1e9b5a8aafc00,001,2022-04-28_18h01.02.943,classification_task,2021.2.3,MacIntel,59.99520038,6052b6c2c4a1e9b5a8aafc00,626b377229c10585ec392f89,626b38a66df768822cafa029,,,,,,,,,,,,,,,,,,,,,,,a,0,"[""0.792"",""0.226"",""0.662"",""0.700""]","[0,1,1,1]",0,23,23,23,1,1,0,,,0,FALSE,4.0921,,,,,,,,,,,,,,,,,,,,,,,,,,,,,,
,6052b6c2c4a1e9b5a8aafc00,001,2022-04-28_18h01.02.943,classification_task,2021.2.3,MacIntel,59.99520038,6052b6c2c4a1e9b5a8aafc00,626b377229c10585ec392f89,626b38a66df768822cafa029,,,,,,,,,,,,,,,,,,,,,,,l,1,"[""0.104"",""0.226"",""0.391"",""0.700""]","[1,1,0,1]",0,24,24,24,1,1,0,,,0,FALSE,0.9984,,,,,,,,,,,,,,,,,,,,,,,,,,,,,,
,6052b6c2c4a1e9b5a8aafc00,001,2022-04-28_18h01.02.943,classification_task,2021.2.3,MacIntel,59.99520038,6052b6c2c4a1e9b5a8aafc00,626b377229c10585ec392f89,626b38a66df768822cafa029,,,,,,,,,,,,,,,,,,,,,,,a,1,"[""0.801"",""0.445"",""0.616"",""0.967""]","[0,1,1,1]",0,25,25,25,1,0,0,,,0,FALSE,2.269,,,,,,,,,,,,,,,,,,,,,,,,,,,,,,
,6052b6c2c4a1e9b5a8aafc00,001,2022-04-28_18h01.02.943,classification_task,2021.2.3,MacIntel,59.99520038,6052b6c2c4a1e9b5a8aafc00,626b377229c10585ec392f89,626b38a66df768822cafa029,,,,,,,,,,,,,,,,,,,,,,,a,1,"[""0.264"",""0.816"",""0.879"",""0.931""]","[1,0,1,1]",0,26,26,26,1,0,1,,,0,FALSE,1.5272,,,,,,,,,,,,,,,,,,,,,,,,,,,,,,
,6052b6c2c4a1e9b5a8aafc00,001,2022-04-28_18h01.02.943,classification_task,2021.2.3,MacIntel,59.99520038,6052b6c2c4a1e9b5a8aafc00,626b377229c10585ec392f89,626b38a66df768822cafa029,,,,,,,,,,,,,,,,,,,,,,,l,1,"[""0.038"",""0.179"",""0.803"",""0.757""]","[1,1,0,1]",0,27,27,27,1,1,1,,,0,FALSE,0.7698,,,,,,,,,,,,,,,,,,,,,,,,,,,,,,
,6052b6c2c4a1e9b5a8aafc00,001,2022-04-28_18h01.02.943,classification_task,2021.2.3,MacIntel,59.99520038,6052b6c2c4a1e9b5a8aafc00,626b377229c10585ec392f89,626b38a66df768822cafa029,,,,,,,,,,,,,,,,,,,,,,,a,1,"[""0.303"",""0.445"",""0.616"",""0.497""]","[1,1,1,0]",0,28,28,28,1,0,0,,,0,FALSE,1.279,,,,,,,,,,,,,,,,,,,,,,,,,,,,,,
,6052b6c2c4a1e9b5a8aafc00,001,2022-04-28_18h01.02.943,classification_task,2021.2.3,MacIntel,59.99520038,6052b6c2c4a1e9b5a8aafc00,626b377229c10585ec392f89,626b38a66df768822cafa029,,,,,,,,,,,,,,,,,,,,,,,a,1,"[""0.303"",""0.445"",""0.391"",""0.967""]","[1,1,0,1]",0,29,29,29,1,0,0,,,0,FALSE,0.9938,,,,,,,,,,,,,,,,,,,,,,,,,,,,,,
,6052b6c2c4a1e9b5a8aafc00,001,2022-04-28_18h01.02.943,classification_task,2021.2.3,MacIntel,59.99520038,6052b6c2c4a1e9b5a8aafc00,626b377229c10585ec392f89,626b38a66df768822cafa029,,,,,,,,,,,,,,,,,,,,,,,a,1,"[""0.264"",""0.339"",""0.879"",""0.816""]","[1,1,1,0]",0,30,30,30,1,0,1,,,0,FALSE,2.9924,,,,,,,,,,,,,,,,,,,,,,,,,,,,,,
,6052b6c2c4a1e9b5a8aafc00,001,2022-04-28_18h01.02.943,classification_task,2021.2.3,MacIntel,59.99520038,6052b6c2c4a1e9b5a8aafc00,626b377229c10585ec392f89,626b38a66df768822cafa029,,,,,,,,,,,,,,,,,,,,,,,a,1,"[""0.264"",""0.339"",""0.816"",""0.931""]","[1,1,0,1]",0,31,31,31,1,0,1,,,0,FALSE,1.0443,,,,,,,,,,,,,,,,,,,,,,,,,,,,,,
,6052b6c2c4a1e9b5a8aafc00,001,2022-04-28_18h01.02.943,classification_task,2021.2.3,MacIntel,59.99520038,6052b6c2c4a1e9b5a8aafc00,626b377229c10585ec392f89,626b38a66df768822cafa029,,,,,,,,,,,,,,,,,,,,,,,l,1,"[""0.816"",""0.179"",""0.530"",""0.757""]","[0,1,1,1]",0,32,32,32,1,1,1,,,0,FALSE,0.8522,,,,,,,,,,,,,,,,,,,,,,,,,,,,,,
,6052b6c2c4a1e9b5a8aafc00,001,2022-04-28_18h01.02.943,classification_task,2021.2.3,MacIntel,59.99520038,6052b6c2c4a1e9b5a8aafc00,626b377229c10585ec392f89,626b38a66df768822cafa029,,,,,,,,,,,,,,,,,,,,,,,a,1,"[""0.303"",""0.445"",""0.616"",""0.792""]","[1,1,1,0]",0,33,33,33,1,0,0,,,0,FALSE,1.55,,,,,,,,,,,,,,,,,,,,,,,,,,,,,,
,6052b6c2c4a1e9b5a8aafc00,001,2022-04-28_18h01.02.943,classification_task,2021.2.3,MacIntel,59.99520038,6052b6c2c4a1e9b5a8aafc00,626b377229c10585ec392f89,626b38a66df768822cafa029,,,,,,,,,,,,,,,,,,,,,,,l,1,"[""0.800"",""0.226"",""0.662"",""0.700""]","[0,1,1,1]",0,34,34,34,1,1,0,,,0,FALSE,1.2615,,,,,,,,,,,,,,,,,,,,,,,,,,,,,,
,6052b6c2c4a1e9b5a8aafc00,001,2022-04-28_18h01.02.943,classification_task,2021.2.3,MacIntel,59.99520038,6052b6c2c4a1e9b5a8aafc00,626b377229c10585ec392f89,626b38a66df768822cafa029,,,,,,,,,,,,,,,,,,,,,,,a,1,"[""0.836"",""0.339"",""0.879"",""0.931""]","[0,1,1,1]",0,35,35,35,1,0,1,,,0,FALSE,2.8973,,,,,,,,,,,,,,,,,,,,,,,,,,,,,,
,6052b6c2c4a1e9b5a8aafc00,001,2022-04-28_18h01.02.943,classification_task,2021.2.3,MacIntel,59.99520038,6052b6c2c4a1e9b5a8aafc00,626b377229c10585ec392f89,626b38a66df768822cafa029,,,,,,,,,,,,,,,,,,,,,,,a,1,"[""0.816"",""0.445"",""0.616"",""0.967""]","[0,1,1,1]",0,36,36,36,1,0,0,,,0,FALSE,1.1985,,,,,,,,,,,,,,,,,,,,,,,,,,,,,,
,6052b6c2c4a1e9b5a8aafc00,001,2022-04-28_18h01.02.943,classification_task,2021.2.3,MacIntel,59.99520038,6052b6c2c4a1e9b5a8aafc00,626b377229c10585ec392f89,626b38a66df768822cafa029,,,,,,,,,,,,,,,,,,,,,,,l,1,"[""0.104"",""0.226"",""0.662"",""0.800""]","[1,1,1,0]",0,37,37,37,1,1,0,,,0,FALSE,0.9918,,,,,,,,,,,,,,,,,,,,,,,,,,,,,,
,6052b6c2c4a1e9b5a8aafc00,001,2022-04-28_18h01.02.943,classification_task,2021.2.3,MacIntel,59.99520038,6052b6c2c4a1e9b5a8aafc00,626b377229c10585ec392f89,626b38a66df768822cafa029,,,,,,,,,,,,,,,,,,,,,,,a,1,"[""0.303"",""0.445"",""0.836"",""0.967""]","[1,1,0,1]",0,38,38,38,1,0,0,,,0,FALSE,4.3402,,,,,,,,,,,,,,,,,,,,,,,,,,,,,,
,6052b6c2c4a1e9b5a8aafc00,001,2022-04-28_18h01.02.943,classification_task,2021.2.3,MacIntel,59.99520038,6052b6c2c4a1e9b5a8aafc00,626b377229c10585ec392f89,626b38a66df768822cafa029,,,,,,,,,,,,,,,,,,,,,,,a,1,"[""0.264"",""0.815"",""0.879"",""0.931""]","[1,0,1,1]",0,39,39,39,1,0,1,,,0,FALSE,1.6558,,,,,,,,,,,,,,,,,,,,,,,,,,,,,,
,6052b6c2c4a1e9b5a8aafc00,001,2022-04-28_18h01.02.943,classification_task,2021.2.3,MacIntel,59.99520038,6052b6c2c4a1e9b5a8aafc00,626b377229c10585ec392f89,626b38a66df768822cafa029,,,,,,,,,,,,,,,,,,,,,,,l,1,"[""0.104"",""0.835"",""0.662"",""0.700""]","[1,0,1,1]",0,40,40,40,1,1,0,,,0,FALSE,1.0956,,,,,,,,,,,,,,,,,,,,,,,,,,,,,,
,6052b6c2c4a1e9b5a8aafc00,001,2022-04-28_18h01.02.943,classification_task,2021.2.3,MacIntel,59.99520038,6052b6c2c4a1e9b5a8aafc00,626b377229c10585ec392f89,626b38a66df768822cafa029,,,,,,,,,,,,,,,,,,,,,,,a,1,"[""0.264"",""0.339"",""0.879"",""0.815""]","[1,1,1,0]",0,41,41,41,1,0,1,,,0,FALSE,1.0269,,,,,,,,,,,,,,,,,,,,,,,,,,,,,,
,6052b6c2c4a1e9b5a8aafc00,001,2022-04-28_18h01.02.943,classification_task,2021.2.3,MacIntel,59.99520038,6052b6c2c4a1e9b5a8aafc00,626b377229c10585ec392f89,626b38a66df768822cafa029,,,,,,,,,,,,,,,,,,,,,,,l,1,"[""0.104"",""0.226"",""0.378"",""0.700""]","[1,1,0,1]",0,42,42,42,1,1,0,,,0,FALSE,0.9469,,,,,,,,,,,,,,,,,,,,,,,,,,,,,,
,6052b6c2c4a1e9b5a8aafc00,001,2022-04-28_18h01.02.943,classification_task,2021.2.3,MacIntel,59.99520038,6052b6c2c4a1e9b5a8aafc00,626b377229c10585ec392f89,626b38a66df768822cafa029,,,,,,,,,,,,,,,,,,,,,,,a,1,"[""0.264"",""0.339"",""0.836"",""0.931""]","[1,1,0,1]",0,43,43,43,1,0,1,,,0,FALSE,1.1776,,,,,,,,,,,,,,,,,,,,,,,,,,,,,,
,6052b6c2c4a1e9b5a8aafc00,001,2022-04-28_18h01.02.943,classification_task,2021.2.3,MacIntel,59.99520038,6052b6c2c4a1e9b5a8aafc00,626b377229c10585ec392f89,626b38a66df768822cafa029,,,,,,,,,,,,,,,,,,,,,,,l,1,"[""0.038"",""0.570"",""0.530"",""0.757""]","[1,0,1,1]",0,44,44,44,1,1,1,,,0,FALSE,0.7793,,,,,,,,,,,,,,,,,,,,,,,,,,,,,,
,6052b6c2c4a1e9b5a8aafc00,001,2022-04-28_18h01.02.943,classification_task,2021.2.3,MacIntel,59.99520038,6052b6c2c4a1e9b5a8aafc00,626b377229c10585ec392f89,626b38a66df768822cafa029,,,,,,,,,,,,,,,,,,,,,,,l,1,"[""0.038"",""0.179"",""0.809"",""0.757""]","[1,1,0,1]",0,45,45,45,1,1,1,,,0,FALSE,0.8201,,,,,,,,,,,,,,,,,,,,,,,,,,,,,,
,6052b6c2c4a1e9b5a8aafc00,001,2022-04-28_18h01.02.943,classification_task,2021.2.3,MacIntel,59.99520038,6052b6c2c4a1e9b5a8aafc00,626b377229c10585ec392f89,626b38a66df768822cafa029,,,,,,,,,,,,,,,,,,,,,,,a,1,"[""0.303"",""0.479"",""0.616"",""0.967""]","[1,0,1,1]",0,46,46,46,1,0,0,,,0,FALSE,0.9961,,,,,,,,,,,,,,,,,,,,,,,,,,,,,,
,6052b6c2c4a1e9b5a8aafc00,001,2022-04-28_18h01.02.943,classification_task,2021.2.3,MacIntel,59.99520038,6052b6c2c4a1e9b5a8aafc00,626b377229c10585ec392f89,626b38a66df768822cafa029,,,,,,,,,,,,,,,,,,,,,,,l,1,"[""0.038"",""0.179"",""0.530"",""0.792""]","[1,1,1,0]",0,47,47,47,1,1,1,,,0,FALSE,0.8696,,,,,,,,,,,,,,,,,,,,,,,,,,,,,,
,6052b6c2c4a1e9b5a8aafc00,001,2022-04-28_18h01.02.943,classification_task,2021.2.3,MacIntel,59.99520038,6052b6c2c4a1e9b5a8aafc00,626b377229c10585ec392f89,626b38a66df768822cafa029,,,,,,,,,,,,,,,,,,,,,,,l,1,"[""0.038"",""0.179"",""0.530"",""0.497""]","[1,1,1,0]",0,48,48,48,1,1,1,,,0,FALSE,0.917,,,,,,,,,,,,,,,,,,,,,,,,,,,,,,
,6052b6c2c4a1e9b5a8aafc00,001,2022-04-28_18h01.02.943,classification_task,2021.2.3,MacIntel,59.99520038,6052b6c2c4a1e9b5a8aafc00,626b377229c10585ec392f89,626b38a66df768822cafa029,,,,,,,,,,,,,,,,,,,,,,,a,1,"[""0.836"",""0.339"",""0.879"",""0.931""]","[0,1,1,1]",0,49,49,49,1,0,1,,,0,FALSE,1.4322,,,,,,,,,,,,,,,,,,,,,,,,,,,,,,
,6052b6c2c4a1e9b5a8aafc00,001,2022-04-28_18h01.02.943,classification_task,2021.2.3,MacIntel,59.99520038,6052b6c2c4a1e9b5a8aafc00,626b377229c10585ec392f89,626b38a66df768822cafa029,,,,,,,,,,,,,,,,,,,,,,,a,1,"[""0.264"",""0.339"",""0.879"",""0.378""]","[1,1,1,0]",0,50,50,50,1,0,1,,,0,FALSE,4.2219,,,,,,,,,,,,,,,,,,,,,,,,,,,,,,
,6052b6c2c4a1e9b5a8aafc00,001,2022-04-28_18h01.02.943,classification_task,2021.2.3,MacIntel,59.99520038,6052b6c2c4a1e9b5a8aafc00,626b377229c10585ec392f89,626b38a66df768822cafa029,,,,,,,,,,,,,,,,,,,,,,,a,1,"[""0.497"",""0.445"",""0.616"",""0.967""]","[0,1,1,1]",0,51,51,51,1,0,0,,,0,FALSE,1.7724,,,,,,,,,,,,,,,,,,,,,,,,,,,,,,
,6052b6c2c4a1e9b5a8aafc00,001,2022-04-28_18h01.02.943,classification_task,2021.2.3,MacIntel,59.99520038,6052b6c2c4a1e9b5a8aafc00,626b377229c10585ec392f89,626b38a66df768822cafa029,,,,,,,,,,,,,,,,,,,,,,,a,1,"[""0.303"",""0.445"",""0.816"",""0.967""]","[1,1,0,1]",0,52,52,52,1,0,0,,,0,FALSE,1.0974,,,,,,,,,,,,,,,,,,,,,,,,,,,,,,
,6052b6c2c4a1e9b5a8aafc00,001,2022-04-28_18h01.02.943,classification_task,2021.2.3,MacIntel,59.99520038,6052b6c2c4a1e9b5a8aafc00,626b377229c10585ec392f89,626b38a66df768822cafa029,,,,,,,,,,,,,,,,,,,,,,,l,1,"[""0.104"",""0.836"",""0.662"",""0.700""]","[1,0,1,1]",0,53,53,53,1,1,0,,,0,FALSE,0.6269,,,,,,,,,,,,,,,,,,,,,,,,,,,,,,
,6052b6c2c4a1e9b5a8aafc00,001,2022-04-28_18h01.02.943,classification_task,2021.2.3,MacIntel,59.99520038,6052b6c2c4a1e9b5a8aafc00,626b377229c10585ec392f89,626b38a66df768822cafa029,,,,,,,,,,,,,,,,,,,,,,,a,1,"[""0.303"",""0.445"",""0.616"",""0.792""]","[1,1,1,0]",0,54,54,54,1,0,0,,,0,FALSE,1.4501,,,,,,,,,,,,,,,,,,,,,,,,,,,,,,
,6052b6c2c4a1e9b5a8aafc00,001,2022-04-28_18h01.02.943,classification_task,2021.2.3,MacIntel,59.99520038,6052b6c2c4a1e9b5a8aafc00,626b377229c10585ec392f89,626b38a66df768822cafa029,,,,,,,,,,,,,,,,,,,,,,,l,1,"[""0.038"",""0.580"",""0.530"",""0.757""]","[1,0,1,1]",0,55,55,55,1,1,1,,,0,FALSE,0.7943,,,,,,,,,,,,,,,,,,,,,,,,,,,,,,
,6052b6c2c4a1e9b5a8aafc00,001,2022-04-28_18h01.02.943,classification_task,2021.2.3,MacIntel,59.99520038,6052b6c2c4a1e9b5a8aafc00,626b377229c10585ec392f89,626b38a66df768822cafa029,,,,,,,,,,,,,,,,,,,,,,,a,1,"[""0.303"",""0.801"",""0.616"",""0.967""]","[1,0,1,1]",0,56,56,56,1,0,0,,,0,FALSE,2.4943,,,,,,,,,,,,,,,,,,,,,,,,,,,,,,
,6052b6c2c4a1e9b5a8aafc00,001,2022-04-28_18h01.02.943,classification_task,2021.2.3,MacIntel,59.99520038,6052b6c2c4a1e9b5a8aafc00,626b377229c10585ec392f89,626b38a66df768822cafa029,,,,,,,,,,,,,,,,,,,,,,,l,1,"[""0.038"",""0.179"",""0.803"",""0.757""]","[1,1,0,1]",0,57,57,57,1,1,1,,,0,FALSE,0.9503,,,,,,,,,,,,,,,,,,,,,,,,,,,,,,
,6052b6c2c4a1e9b5a8aafc00,001,2022-04-28_18h01.02.943,classification_task,2021.2.3,MacIntel,59.99520038,6052b6c2c4a1e9b5a8aafc00,626b377229c10585ec392f89,626b38a66df768822cafa029,,,,,,,,,,,,,,,,,,,,,,,l,1,"[""0.800"",""0.179"",""0.530"",""0.757""]","[0,1,1,1]",0,58,58,58,1,1,1,,,0,FALSE,1.1228,,,,,,,,,,,,,,,,,,,,,,,,,,,,,,
,6052b6c2c4a1e9b5a8aafc00,001,2022-04-28_18h01.02.943,classification_task,2021.2.3,MacIntel,59.99520038,6052b6c2c4a1e9b5a8aafc00,626b377229c10585ec392f89,626b38a66df768822cafa029,,,,,,,,,,,,,,,,,,,,,,,a,1,"[""0.264"",""0.339"",""0.836"",""0.931""]","[1,1,0,1]",0,59,59,59,1,0,1,,,0,FALSE,2.0769,,,,,,,,,,,,,,,,,,,,,,,,,,,,,,
,6052b6c2c4a1e9b5a8aafc00,001,2022-04-28_18h01.02.943,classification_task,2021.2.3,MacIntel,59.99520038,6052b6c2c4a1e9b5a8aafc00,626b377229c10585ec392f89,626b38a66df768822cafa029,,,,,,,,,,,,,,,,,,,,,,,a,1,"[""0.264"",""0.391"",""0.879"",""0.931""]","[1,0,1,1]",0,60,60,60,1,0,1,,,0,FALSE,0.874,,,,,,,,,,,,,,,,,,,,,,,,,,,,,,
,6052b6c2c4a1e9b5a8aafc00,001,2022-04-28_18h01.02.943,classification_task,2021.2.3,MacIntel,59.99520038,6052b6c2c4a1e9b5a8aafc00,626b377229c10585ec392f89,626b38a66df768822cafa029,,,,,,,,,,,,,,,,,,,,,,,l,1,"[""0.479"",""0.226"",""0.662"",""0.700""]","[0,1,1,1]",0,61,61,61,1,1,0,,,0,FALSE,1.5374,,,,,,,,,,,,,,,,,,,,,,,,,,,,,,
,6052b6c2c4a1e9b5a8aafc00,001,2022-04-28_18h01.02.943,classification_task,2021.2.3,MacIntel,59.99520038,6052b6c2c4a1e9b5a8aafc00,626b377229c10585ec392f89,626b38a66df768822cafa029,,,,,,,,,,,,,,,,,,,,,,,l,1,"[""0.104"",""0.226"",""0.662"",""0.800""]","[1,1,1,0]",0,62,62,62,1,1,0,,,0,FALSE,4.3008,,,,,,,,,,,,,,,,,,,,,,,,,,,,,,
,6052b6c2c4a1e9b5a8aafc00,001,2022-04-28_18h01.02.943,classification_task,2021.2.3,MacIntel,59.99520038,6052b6c2c4a1e9b5a8aafc00,626b377229c10585ec392f89,626b38a66df768822cafa029,,,,,,,,,,,,,,,,,,,,,,,l,1,"[""0.104"",""0.226"",""0.580"",""0.700""]","[1,1,0,1]",0,63,63,63,1,1,0,,,0,FALSE,0.993,,,,,,,,,,,,,,,,,,,,,,,,,,,,,,
,6052b6c2c4a1e9b5a8aafc00,001,2022-04-28_18h01.02.943,classification_task,2021.2.3,MacIntel,59.99520038,6052b6c2c4a1e9b5a8aafc00,626b377229c10585ec392f89,626b38a66df768822cafa029,,,,,,,,,,,,,,,,,,,,,,,,,,,,,,,,,,,,,,,0, ,,0,1.941989762,180.7297,0,1,1,1,1,2,2,,,,,,,,,,,,,,,,,
,6052b6c2c4a1e9b5a8aafc00,001,2022-04-28_18h01.02.943,classification_task,2021.2.3,MacIntel,59.99520038,6052b6c2c4a1e9b5a8aafc00,626b377229c10585ec392f89,626b38a66df768822cafa029,,,,,,,,,,,,,,,,,,,,,,,,,,,,,,,,,,,,,,,1,  ,,0,1.984099445,184.2885,0,1,1,1,1,2,2,,,,,,,,,,,,,,,,,
,6052b6c2c4a1e9b5a8aafc00,001,2022-04-28_18h01.02.943,classification_task,2021.2.3,MacIntel,59.99520038,6052b6c2c4a1e9b5a8aafc00,626b377229c10585ec392f89,626b38a66df768822cafa029,,,,,,,,,,,,,,,,,,,,,,,,,,,,,,,,,,,,,,,2,  ,,0,0.70448044,186.7572,0,1,1,1,1,2,2,,,,,,,,,,,,,,,,,
,6052b6c2c4a1e9b5a8aafc00,001,2022-04-28_18h01.02.943,classification_task,2021.2.3,MacIntel,59.99520038,6052b6c2c4a1e9b5a8aafc00,626b377229c10585ec392f89,626b38a66df768822cafa029,,,,,,,,,,,,,,,,,,,,,,,,,,,,,,,,,,,,,,,,,,,,,0,1,1,1,1,,2,,,,,,,,,,,,,,,,,
,6052b6c2c4a1e9b5a8aafc00,001,2022-04-28_18h01.02.943,classification_task,2021.2.3,MacIntel,59.99520038,6052b6c2c4a1e9b5a8aafc00,626b377229c10585ec392f89,626b38a66df768822cafa029,,,,,,,,,,,,,,,,,,,,,space,8.3948,l,1,"[""0.104"",""0.226"",""0.662"",""0.497""]","[1,1,1,0]",0,0,0,0,1,1,0,,,0,FALSE,1.9765,,,,,,,,,,,,,,,,,,,,,,,,,,,,,,
,6052b6c2c4a1e9b5a8aafc00,001,2022-04-28_18h01.02.943,classification_task,2021.2.3,MacIntel,59.99520038,6052b6c2c4a1e9b5a8aafc00,626b377229c10585ec392f89,626b38a66df768822cafa029,,,,,,,,,,,,,,,,,,,,,,,a,1,"[""0.264"",""0.815"",""0.879"",""0.931""]","[1,0,1,1]",0,1,1,1,1,0,1,,,0,FALSE,1.788,,,,,,,,,,,,,,,,,,,,,,,,,,,,,,
,6052b6c2c4a1e9b5a8aafc00,001,2022-04-28_18h01.02.943,classification_task,2021.2.3,MacIntel,59.99520038,6052b6c2c4a1e9b5a8aafc00,626b377229c10585ec392f89,626b38a66df768822cafa029,,,,,,,,,,,,,,,,,,,,,,,l,1,"[""0.038"",""0.809"",""0.530"",""0.757""]","[1,0,1,1]",0,2,2,2,1,1,1,,,0,FALSE,1.933,,,,,,,,,,,,,,,,,,,,,,,,,,,,,,
,6052b6c2c4a1e9b5a8aafc00,001,2022-04-28_18h01.02.943,classification_task,2021.2.3,MacIntel,59.99520038,6052b6c2c4a1e9b5a8aafc00,626b377229c10585ec392f89,626b38a66df768822cafa029,,,,,,,,,,,,,,,,,,,,,,,a,1,"[""0.835"",""0.339"",""0.879"",""0.931""]","[0,1,1,1]",0,3,3,3,1,0,1,,,0,FALSE,1.6,,,,,,,,,,,,,,,,,,,,,,,,,,,,,,
,6052b6c2c4a1e9b5a8aafc00,001,2022-04-28_18h01.02.943,classification_task,2021.2.3,MacIntel,59.99520038,6052b6c2c4a1e9b5a8aafc00,626b377229c10585ec392f89,626b38a66df768822cafa029,,,,,,,,,,,,,,,,,,,,,,,a,1,"[""0.264"",""0.339"",""0.879"",""0.803""]","[1,1,1,0]",0,4,4,4,1,0,1,,,0,FALSE,1.1513,,,,,,,,,,,,,,,,,,,,,,,,,,,,,,
,6052b6c2c4a1e9b5a8aafc00,001,2022-04-28_18h01.02.943,classification_task,2021.2.3,MacIntel,59.99520038,6052b6c2c4a1e9b5a8aafc00,626b377229c10585ec392f89,626b38a66df768822cafa029,,,,,,,,,,,,,,,,,,,,,,,a,1,"[""0.835"",""0.445"",""0.616"",""0.967""]","[0,1,1,1]",0,5,5,5,1,0,0,,,0,FALSE,1.7833,,,,,,,,,,,,,,,,,,,,,,,,,,,,,,
,6052b6c2c4a1e9b5a8aafc00,001,2022-04-28_18h01.02.943,classification_task,2021.2.3,MacIntel,59.99520038,6052b6c2c4a1e9b5a8aafc00,626b377229c10585ec392f89,626b38a66df768822cafa029,,,,,,,,,,,,,,,,,,,,,,,l,1,"[""0.497"",""0.226"",""0.662"",""0.700""]","[0,1,1,1]",0,6,6,6,1,1,0,,,0,FALSE,1.1967,,,,,,,,,,,,,,,,,,,,,,,,,,,,,,
,6052b6c2c4a1e9b5a8aafc00,001,2022-04-28_18h01.02.943,classification_task,2021.2.3,MacIntel,59.99520038,6052b6c2c4a1e9b5a8aafc00,626b377229c10585ec392f89,626b38a66df768822cafa029,,,,,,,,,,,,,,,,,,,,,,,a,1,"[""0.303"",""0.445"",""0.809"",""0.967""]","[1,1,0,1]",0,7,7,7,1,0,0,,,0,FALSE,2.0762,,,,,,,,,,,,,,,,,,,,,,,,,,,,,,
,6052b6c2c4a1e9b5a8aafc00,001,2022-04-28_18h01.02.943,classification_task,2021.2.3,MacIntel,59.99520038,6052b6c2c4a1e9b5a8aafc00,626b377229c10585ec392f89,626b38a66df768822cafa029,,,,,,,,,,,,,,,,,,,,,,,l,1,"[""0.038"",""0.179"",""0.479"",""0.757""]","[1,1,0,1]",0,8,8,8,1,1,1,,,0,FALSE,1.0694,,,,,,,,,,,,,,,,,,,,,,,,,,,,,,
,6052b6c2c4a1e9b5a8aafc00,001,2022-04-28_18h01.02.943,classification_task,2021.2.3,MacIntel,59.99520038,6052b6c2c4a1e9b5a8aafc00,626b377229c10585ec392f89,626b38a66df768822cafa029,,,,,,,,,,,,,,,,,,,,,,,l,1,"[""0.800"",""0.179"",""0.530"",""0.757""]","[0,1,1,1]",0,9,9,9,1,1,1,,,0,FALSE,1.1501,,,,,,,,,,,,,,,,,,,,,,,,,,,,,,
,6052b6c2c4a1e9b5a8aafc00,001,2022-04-28_18h01.02.943,classification_task,2021.2.3,MacIntel,59.99520038,6052b6c2c4a1e9b5a8aafc00,626b377229c10585ec392f89,626b38a66df768822cafa029,,,,,,,,,,,,,,,,,,,,,,,l,1,"[""0.104"",""0.815"",""0.662"",""0.700""]","[1,0,1,1]",0,10,10,10,1,1,0,,,0,FALSE,1.0903,,,,,,,,,,,,,,,,,,,,,,,,,,,,,,
,6052b6c2c4a1e9b5a8aafc00,001,2022-04-28_18h01.02.943,classification_task,2021.2.3,MacIntel,59.99520038,6052b6c2c4a1e9b5a8aafc00,626b377229c10585ec392f89,626b38a66df768822cafa029,,,,,,,,,,,,,,,,,,,,,,,a,1,"[""0.303"",""0.445"",""0.616"",""0.815""]","[1,1,1,0]",0,11,11,11,1,0,0,,,0,FALSE,0.913,,,,,,,,,,,,,,,,,,,,,,,,,,,,,,
,6052b6c2c4a1e9b5a8aafc00,001,2022-04-28_18h01.02.943,classification_task,2021.2.3,MacIntel,59.99520038,6052b6c2c4a1e9b5a8aafc00,626b377229c10585ec392f89,626b38a66df768822cafa029,,,,,,,,,,,,,,,,,,,,,,,a,1,"[""0.264"",""0.339"",""0.580"",""0.931""]","[1,1,0,1]",0,12,12,12,1,0,1,,,0,FALSE,3.2619,,,,,,,,,,,,,,,,,,,,,,,,,,,,,,
,6052b6c2c4a1e9b5a8aafc00,001,2022-04-28_18h01.02.943,classification_task,2021.2.3,MacIntel,59.99520038,6052b6c2c4a1e9b5a8aafc00,626b377229c10585ec392f89,626b38a66df768822cafa029,,,,,,,,,,,,,,,,,,,,,,,l,1,"[""0.038"",""0.179"",""0.530"",""0.836""]","[1,1,1,0]",0,13,13,13,1,1,1,,,0,FALSE,0.8201,,,,,,,,,,,,,,,,,,,,,,,,,,,,,,
,6052b6c2c4a1e9b5a8aafc00,001,2022-04-28_18h01.02.943,classification_task,2021.2.3,MacIntel,59.99520038,6052b6c2c4a1e9b5a8aafc00,626b377229c10585ec392f89,626b38a66df768822cafa029,,,,,,,,,,,,,,,,,,,,,,,a,1,"[""0.303"",""0.792"",""0.616"",""0.967""]","[1,0,1,1]",0,14,14,14,1,0,0,,,0,FALSE,1.2178,,,,,,,,,,,,,,,,,,,,,,,,,,,,,,
,6052b6c2c4a1e9b5a8aafc00,001,2022-04-28_18h01.02.943,classification_task,2021.2.3,MacIntel,59.99520038,6052b6c2c4a1e9b5a8aafc00,626b377229c10585ec392f89,626b38a66df768822cafa029,,,,,,,,,,,,,,,,,,,,,,,l,1,"[""0.104"",""0.226"",""0.809"",""0.700""]","[1,1,0,1]",0,15,15,15,1,1,0,,,0,FALSE,1.2375,,,,,,,,,,,,,,,,,,,,,,,,,,,,,,
,6052b6c2c4a1e9b5a8aafc00,001,2022-04-28_18h01.02.943,classification_task,2021.2.3,MacIntel,59.99520038,6052b6c2c4a1e9b5a8aafc00,626b377229c10585ec392f89,626b38a66df768822cafa029,,,,,,,,,,,,,,,,,,,,,,,l,1,"[""0.104"",""0.226"",""0.816"",""0.700""]","[1,1,0,1]",0,16,16,16,1,1,0,,,0,FALSE,1.328,,,,,,,,,,,,,,,,,,,,,,,,,,,,,,
,6052b6c2c4a1e9b5a8aafc00,001,2022-04-28_18h01.02.943,classification_task,2021.2.3,MacIntel,59.99520038,6052b6c2c4a1e9b5a8aafc00,626b377229c10585ec392f89,626b38a66df768822cafa029,,,,,,,,,,,,,,,,,,,,,,,a,1,"[""0.809"",""0.445"",""0.616"",""0.967""]","[0,1,1,1]",0,17,17,17,1,0,0,,,0,FALSE,1.1227,,,,,,,,,,,,,,,,,,,,,,,,,,,,,,
,6052b6c2c4a1e9b5a8aafc00,001,2022-04-28_18h01.02.943,classification_task,2021.2.3,MacIntel,59.99520038,6052b6c2c4a1e9b5a8aafc00,626b377229c10585ec392f89,626b38a66df768822cafa029,,,,,,,,,,,,,,,,,,,,,,,l,1,"[""0.038"",""0.835"",""0.530"",""0.757""]","[1,0,1,1]",0,18,18,18,1,1,1,,,0,FALSE,0.9989,,,,,,,,,,,,,,,,,,,,,,,,,,,,,,
,6052b6c2c4a1e9b5a8aafc00,001,2022-04-28_18h01.02.943,classification_task,2021.2.3,MacIntel,59.99520038,6052b6c2c4a1e9b5a8aafc00,626b377229c10585ec392f89,626b38a66df768822cafa029,,,,,,,,,,,,,,,,,,,,,,,a,1,"[""0.264"",""0.809"",""0.879"",""0.931""]","[1,0,1,1]",0,19,19,19,1,0,1,,,0,FALSE,1.0256,,,,,,,,,,,,,,,,,,,,,,,,,,,,,,
,6052b6c2c4a1e9b5a8aafc00,001,2022-04-28_18h01.02.943,classification_task,2021.2.3,MacIntel,59.99520038,6052b6c2c4a1e9b5a8aafc00,626b377229c10585ec392f89,626b38a66df768822cafa029,,,,,,,,,,,,,,,,,,,,,,,a,1,"[""0.815"",""0.339"",""0.879"",""0.931""]","[0,1,1,1]",0,20,20,20,1,0,1,,,0,FALSE,1.3796,,,,,,,,,,,,,,,,,,,,,,,,,,,,,,
,6052b6c2c4a1e9b5a8aafc00,001,2022-04-28_18h01.02.943,classification_task,2021.2.3,MacIntel,59.99520038,6052b6c2c4a1e9b5a8aafc00,626b377229c10585ec392f89,626b38a66df768822cafa029,,,,,,,,,,,,,,,,,,,,,,,l,1,"[""0.801"",""0.179"",""0.530"",""0.757""]","[0,1,1,1]",0,21,21,21,1,1,1,,,0,FALSE,0.9309,,,,,,,,,,,,,,,,,,,,,,,,,,,,,,
,6052b6c2c4a1e9b5a8aafc00,001,2022-04-28_18h01.02.943,classification_task,2021.2.3,MacIntel,59.99520038,6052b6c2c4a1e9b5a8aafc00,626b377229c10585ec392f89,626b38a66df768822cafa029,,,,,,,,,,,,,,,,,,,,,,,l,1,"[""0.038"",""0.179"",""0.836"",""0.757""]","[1,1,0,1]",0,22,22,22,1,1,1,,,0,FALSE,0.9417,,,,,,,,,,,,,,,,,,,,,,,,,,,,,,
,6052b6c2c4a1e9b5a8aafc00,001,2022-04-28_18h01.02.943,classification_task,2021.2.3,MacIntel,59.99520038,6052b6c2c4a1e9b5a8aafc00,626b377229c10585ec392f89,626b38a66df768822cafa029,,,,,,,,,,,,,,,,,,,,,,,l,1,"[""0.104"",""0.836"",""0.662"",""0.700""]","[1,0,1,1]",0,23,23,23,1,1,0,,,0,FALSE,1.3798,,,,,,,,,,,,,,,,,,,,,,,,,,,,,,
,6052b6c2c4a1e9b5a8aafc00,001,2022-04-28_18h01.02.943,classification_task,2021.2.3,MacIntel,59.99520038,6052b6c2c4a1e9b5a8aafc00,626b377229c10585ec392f89,626b38a66df768822cafa029,,,,,,,,,,,,,,,,,,,,,,,a,1,"[""0.303"",""0.445"",""0.616"",""0.570""]","[1,1,1,0]",0,24,24,24,1,0,0,,,0,FALSE,1.8511,,,,,,,,,,,,,,,,,,,,,,,,,,,,,,
,6052b6c2c4a1e9b5a8aafc00,001,2022-04-28_18h01.02.943,classification_task,2021.2.3,MacIntel,59.99520038,6052b6c2c4a1e9b5a8aafc00,626b377229c10585ec392f89,626b38a66df768822cafa029,,,,,,,,,,,,,,,,,,,,,,,a,1,"[""0.303"",""0.378"",""0.616"",""0.967""]","[1,0,1,1]",0,25,25,25,1,0,0,,,0,FALSE,1.0723,,,,,,,,,,,,,,,,,,,,,,,,,,,,,,
,6052b6c2c4a1e9b5a8aafc00,001,2022-04-28_18h01.02.943,classification_task,2021.2.3,MacIntel,59.99520038,6052b6c2c4a1e9b5a8aafc00,626b377229c10585ec392f89,626b38a66df768822cafa029,,,,,,,,,,,,,,,,,,,,,,,a,1,"[""0.264"",""0.339"",""0.879"",""0.396""]","[1,1,1,0]",0,26,26,26,1,0,1,,,0,FALSE,1.6056,,,,,,,,,,,,,,,,,,,,,,,,,,,,,,
,6052b6c2c4a1e9b5a8aafc00,001,2022-04-28_18h01.02.943,classification_task,2021.2.3,MacIntel,59.99520038,6052b6c2c4a1e9b5a8aafc00,626b377229c10585ec392f89,626b38a66df768822cafa029,,,,,,,,,,,,,,,,,,,,,,,l,1,"[""0.038"",""0.179"",""0.530"",""0.479""]","[1,1,1,0]",0,27,27,27,1,1,1,,,0,FALSE,0.921,,,,,,,,,,,,,,,,,,,,,,,,,,,,,,
,6052b6c2c4a1e9b5a8aafc00,001,2022-04-28_18h01.02.943,classification_task,2021.2.3,MacIntel,59.99520038,6052b6c2c4a1e9b5a8aafc00,626b377229c10585ec392f89,626b38a66df768822cafa029,,,,,,,,,,,,,,,,,,,,,,,a,1,"[""0.303"",""0.445"",""0.378"",""0.967""]","[1,1,0,1]",0,28,28,28,1,0,0,,,0,FALSE,1.2367,,,,,,,,,,,,,,,,,,,,,,,,,,,,,,
,6052b6c2c4a1e9b5a8aafc00,001,2022-04-28_18h01.02.943,classification_task,2021.2.3,MacIntel,59.99520038,6052b6c2c4a1e9b5a8aafc00,626b377229c10585ec392f89,626b38a66df768822cafa029,,,,,,,,,,,,,,,,,,,,,,,l,1,"[""0.104"",""0.226"",""0.662"",""0.580""]","[1,1,1,0]",0,29,29,29,1,1,0,,,0,FALSE,1.6487,,,,,,,,,,,,,,,,,,,,,,,,,,,,,,
,6052b6c2c4a1e9b5a8aafc00,001,2022-04-28_18h01.02.943,classification_task,2021.2.3,MacIntel,59.99520038,6052b6c2c4a1e9b5a8aafc00,626b377229c10585ec392f89,626b38a66df768822cafa029,,,,,,,,,,,,,,,,,,,,,,,l,1,"[""0.835"",""0.226"",""0.662"",""0.700""]","[0,1,1,1]",0,30,30,30,1,1,0,,,0,FALSE,1.1229,,,,,,,,,,,,,,,,,,,,,,,,,,,,,,
,6052b6c2c4a1e9b5a8aafc00,001,2022-04-28_18h01.02.943,classification_task,2021.2.3,MacIntel,59.99520038,6052b6c2c4a1e9b5a8aafc00,626b377229c10585ec392f89,626b38a66df768822cafa029,,,,,,,,,,,,,,,,,,,,,,,a,1,"[""0.264"",""0.339"",""0.378"",""0.931""]","[1,1,0,1]",0,31,31,31,1,0,1,,,0,FALSE,1.2027,,,,,,,,,,,,,,,,,,,,,,,,,,,,,,
,6052b6c2c4a1e9b5a8aafc00,001,2022-04-28_18h01.02.943,classification_task,2021.2.3,MacIntel,59.99520038,6052b6c2c4a1e9b5a8aafc00,626b377229c10585ec392f89,626b38a66df768822cafa029,,,,,,,,,,,,,,,,,,,,,,,l,1,"[""0.038"",""0.179"",""0.816"",""0.757""]","[1,1,0,1]",0,32,32,32,1,1,1,,,0,FALSE,2.0284,,,,,,,,,,,,,,,,,,,,,,,,,,,,,,
,6052b6c2c4a1e9b5a8aafc00,001,2022-04-28_18h01.02.943,classification_task,2021.2.3,MacIntel,59.99520038,6052b6c2c4a1e9b5a8aafc00,626b377229c10585ec392f89,626b38a66df768822cafa029,,,,,,,,,,,,,,,,,,,,,,,l,1,"[""0.104"",""0.816"",""0.662"",""0.700""]","[1,0,1,1]",0,33,33,33,1,1,0,,,0,FALSE,2.5174,,,,,,,,,,,,,,,,,,,,,,,,,,,,,,
,6052b6c2c4a1e9b5a8aafc00,001,2022-04-28_18h01.02.943,classification_task,2021.2.3,MacIntel,59.99520038,6052b6c2c4a1e9b5a8aafc00,626b377229c10585ec392f89,626b38a66df768822cafa029,,,,,,,,,,,,,,,,,,,,,,,a,1,"[""0.264"",""0.570"",""0.879"",""0.931""]","[1,0,1,1]",0,34,34,34,1,0,1,,,0,FALSE,0.9904,,,,,,,,,,,,,,,,,,,,,,,,,,,,,,
,6052b6c2c4a1e9b5a8aafc00,001,2022-04-28_18h01.02.943,classification_task,2021.2.3,MacIntel,59.99520038,6052b6c2c4a1e9b5a8aafc00,626b377229c10585ec392f89,626b38a66df768822cafa029,,,,,,,,,,,,,,,,,,,,,,,a,1,"[""0.264"",""0.339"",""0.580"",""0.931""]","[1,1,0,1]",0,35,35,35,1,0,1,,,0,FALSE,0.9038,,,,,,,,,,,,,,,,,,,,,,,,,,,,,,
,6052b6c2c4a1e9b5a8aafc00,001,2022-04-28_18h01.02.943,classification_task,2021.2.3,MacIntel,59.99520038,6052b6c2c4a1e9b5a8aafc00,626b377229c10585ec392f89,626b38a66df768822cafa029,,,,,,,,,,,,,,,,,,,,,,,a,1,"[""0.303"",""0.801"",""0.616"",""0.967""]","[1,0,1,1]",0,36,36,36,1,0,0,,,0,FALSE,1.4241,,,,,,,,,,,,,,,,,,,,,,,,,,,,,,
,6052b6c2c4a1e9b5a8aafc00,001,2022-04-28_18h01.02.943,classification_task,2021.2.3,MacIntel,59.99520038,6052b6c2c4a1e9b5a8aafc00,626b377229c10585ec392f89,626b38a66df768822cafa029,,,,,,,,,,,,,,,,,,,,,,,l,1,"[""0.104"",""0.226"",""0.662"",""0.816""]","[1,1,1,0]",0,37,37,37,1,1,0,,,0,FALSE,0.9364,,,,,,,,,,,,,,,,,,,,,,,,,,,,,,
,6052b6c2c4a1e9b5a8aafc00,001,2022-04-28_18h01.02.943,classification_task,2021.2.3,MacIntel,59.99520038,6052b6c2c4a1e9b5a8aafc00,626b377229c10585ec392f89,626b38a66df768822cafa029,,,,,,,,,,,,,,,,,,,,,,,a,1,"[""0.303"",""0.445"",""0.580"",""0.967""]","[1,1,0,1]",0,38,38,38,1,0,0,,,0,FALSE,1.3348,,,,,,,,,,,,,,,,,,,,,,,,,,,,,,
,6052b6c2c4a1e9b5a8aafc00,001,2022-04-28_18h01.02.943,classification_task,2021.2.3,MacIntel,59.99520038,6052b6c2c4a1e9b5a8aafc00,626b377229c10585ec392f89,626b38a66df768822cafa029,,,,,,,,,,,,,,,,,,,,,,,a,1,"[""0.835"",""0.445"",""0.616"",""0.967""]","[0,1,1,1]",0,39,39,39,1,0,0,,,0,FALSE,1.618,,,,,,,,,,,,,,,,,,,,,,,,,,,,,,
,6052b6c2c4a1e9b5a8aafc00,001,2022-04-28_18h01.02.943,classification_task,2021.2.3,MacIntel,59.99520038,6052b6c2c4a1e9b5a8aafc00,626b377229c10585ec392f89,626b38a66df768822cafa029,,,,,,,,,,,,,,,,,,,,,,,l,1,"[""0.104"",""0.226"",""0.836"",""0.700""]","[1,1,0,1]",0,40,40,40,1,1,0,,,0,FALSE,0.8447,,,,,,,,,,,,,,,,,,,,,,,,,,,,,,
,6052b6c2c4a1e9b5a8aafc00,001,2022-04-28_18h01.02.943,classification_task,2021.2.3,MacIntel,59.99520038,6052b6c2c4a1e9b5a8aafc00,626b377229c10585ec392f89,626b38a66df768822cafa029,,,,,,,,,,,,,,,,,,,,,,,l,1,"[""0.391"",""0.179"",""0.530"",""0.757""]","[0,1,1,1]",0,41,41,41,1,1,1,,,0,FALSE,1.3977,,,,,,,,,,,,,,,,,,,,,,,,,,,,,,
,6052b6c2c4a1e9b5a8aafc00,001,2022-04-28_18h01.02.943,classification_task,2021.2.3,MacIntel,59.99520038,6052b6c2c4a1e9b5a8aafc00,626b377229c10585ec392f89,626b38a66df768822cafa029,,,,,,,,,,,,,,,,,,,,,,,l,1,"[""0.038"",""0.792"",""0.530"",""0.757""]","[1,0,1,1]",0,42,42,42,1,1,1,,,0,FALSE,2.5417,,,,,,,,,,,,,,,,,,,,,,,,,,,,,,
,6052b6c2c4a1e9b5a8aafc00,001,2022-04-28_18h01.02.943,classification_task,2021.2.3,MacIntel,59.99520038,6052b6c2c4a1e9b5a8aafc00,626b377229c10585ec392f89,626b38a66df768822cafa029,,,,,,,,,,,,,,,,,,,,,,,l,1,"[""0.038"",""0.179"",""0.530"",""0.479""]","[1,1,1,0]",0,43,43,43,1,1,1,,,0,FALSE,0.7423,,,,,,,,,,,,,,,,,,,,,,,,,,,,,,
,6052b6c2c4a1e9b5a8aafc00,001,2022-04-28_18h01.02.943,classification_task,2021.2.3,MacIntel,59.99520038,6052b6c2c4a1e9b5a8aafc00,626b377229c10585ec392f89,626b38a66df768822cafa029,,,,,,,,,,,,,,,,,,,,,,,a,1,"[""0.264"",""0.339"",""0.879"",""0.391""]","[1,1,1,0]",0,44,44,44,1,0,1,,,0,FALSE,1.8773,,,,,,,,,,,,,,,,,,,,,,,,,,,,,,
,6052b6c2c4a1e9b5a8aafc00,001,2022-04-28_18h01.02.943,classification_task,2021.2.3,MacIntel,59.99520038,6052b6c2c4a1e9b5a8aafc00,626b377229c10585ec392f89,626b38a66df768822cafa029,,,,,,,,,,,,,,,,,,,,,,,a,1,"[""0.809"",""0.339"",""0.879"",""0.931""]","[0,1,1,1]",0,45,45,45,1,0,1,,,0,FALSE,1.2239,,,,,,,,,,,,,,,,,,,,,,,,,,,,,,
,6052b6c2c4a1e9b5a8aafc00,001,2022-04-28_18h01.02.943,classification_task,2021.2.3,MacIntel,59.99520038,6052b6c2c4a1e9b5a8aafc00,626b377229c10585ec392f89,626b38a66df768822cafa029,,,,,,,,,,,,,,,,,,,,,,,a,1,"[""0.303"",""0.445"",""0.616"",""0.809""]","[1,1,1,0]",0,46,46,46,1,0,0,,,0,FALSE,1.6969,,,,,,,,,,,,,,,,,,,,,,,,,,,,,,
,6052b6c2c4a1e9b5a8aafc00,001,2022-04-28_18h01.02.943,classification_task,2021.2.3,MacIntel,59.99520038,6052b6c2c4a1e9b5a8aafc00,626b377229c10585ec392f89,626b38a66df768822cafa029,,,,,,,,,,,,,,,,,,,,,,,l,1,"[""0.479"",""0.226"",""0.662"",""0.700""]","[0,1,1,1]",0,47,47,47,1,1,0,,,0,FALSE,1.1191,,,,,,,,,,,,,,,,,,,,,,,,,,,,,,
,6052b6c2c4a1e9b5a8aafc00,001,2022-04-28_18h01.02.943,classification_task,2021.2.3,MacIntel,59.99520038,6052b6c2c4a1e9b5a8aafc00,626b377229c10585ec392f89,626b38a66df768822cafa029,,,,,,,,,,,,,,,,,,,,,,,a,1,"[""0.264"",""0.339"",""0.879"",""0.792""]","[1,1,1,0]",0,48,48,48,1,0,1,,,0,FALSE,1.505,,,,,,,,,,,,,,,,,,,,,,,,,,,,,,
,6052b6c2c4a1e9b5a8aafc00,001,2022-04-28_18h01.02.943,classification_task,2021.2.3,MacIntel,59.99520038,6052b6c2c4a1e9b5a8aafc00,626b377229c10585ec392f89,626b38a66df768822cafa029,,,,,,,,,,,,,,,,,,,,,,,l,1,"[""0.570"",""0.226"",""0.662"",""0.700""]","[0,1,1,1]",0,49,49,49,1,1,0,,,0,FALSE,1.1197,,,,,,,,,,,,,,,,,,,,,,,,,,,,,,
,6052b6c2c4a1e9b5a8aafc00,001,2022-04-28_18h01.02.943,classification_task,2021.2.3,MacIntel,59.99520038,6052b6c2c4a1e9b5a8aafc00,626b377229c10585ec392f89,626b38a66df768822cafa029,,,,,,,,,,,,,,,,,,,,,,,l,1,"[""0.104"",""0.815"",""0.662"",""0.700""]","[1,0,1,1]",0,50,50,50,1,1,0,,,0,FALSE,0.9014,,,,,,,,,,,,,,,,,,,,,,,,,,,,,,
,6052b6c2c4a1e9b5a8aafc00,001,2022-04-28_18h01.02.943,classification_task,2021.2.3,MacIntel,59.99520038,6052b6c2c4a1e9b5a8aafc00,626b377229c10585ec392f89,626b38a66df768822cafa029,,,,,,,,,,,,,,,,,,,,,,,l,1,"[""0.038"",""0.580"",""0.530"",""0.757""]","[1,0,1,1]",0,51,51,51,1,1,1,,,0,FALSE,1.0625,,,,,,,,,,,,,,,,,,,,,,,,,,,,,,
,6052b6c2c4a1e9b5a8aafc00,001,2022-04-28_18h01.02.943,classification_task,2021.2.3,MacIntel,59.99520038,6052b6c2c4a1e9b5a8aafc00,626b377229c10585ec392f89,626b38a66df768822cafa029,,,,,,,,,,,,,,,,,,,,,,,a,1,"[""0.264"",""0.792"",""0.879"",""0.931""]","[1,0,1,1]",0,52,52,52,1,0,1,,,0,FALSE,1.1508,,,,,,,,,,,,,,,,,,,,,,,,,,,,,,
,6052b6c2c4a1e9b5a8aafc00,001,2022-04-28_18h01.02.943,classification_task,2021.2.3,MacIntel,59.99520038,6052b6c2c4a1e9b5a8aafc00,626b377229c10585ec392f89,626b38a66df768822cafa029,,,,,,,,,,,,,,,,,,,,,,,a,1,"[""0.303"",""0.497"",""0.616"",""0.967""]","[1,0,1,1]",0,53,53,53,1,0,0,,,0,FALSE,1.2762,,,,,,,,,,,,,,,,,,,,,,,,,,,,,,
,6052b6c2c4a1e9b5a8aafc00,001,2022-04-28_18h01.02.943,classification_task,2021.2.3,MacIntel,59.99520038,6052b6c2c4a1e9b5a8aafc00,626b377229c10585ec392f89,626b38a66df768822cafa029,,,,,,,,,,,,,,,,,,,,,,,l,1,"[""0.038"",""0.179"",""0.530"",""0.800""]","[1,1,1,0]",0,54,54,54,1,1,1,,,0,FALSE,1.0029,,,,,,,,,,,,,,,,,,,,,,,,,,,,,,
,6052b6c2c4a1e9b5a8aafc00,001,2022-04-28_18h01.02.943,classification_task,2021.2.3,MacIntel,59.99520038,6052b6c2c4a1e9b5a8aafc00,626b377229c10585ec392f89,626b38a66df768822cafa029,,,,,,,,,,,,,,,,,,,,,,,l,1,"[""0.801"",""0.179"",""0.530"",""0.757""]","[0,1,1,1]",0,55,55,55,1,1,1,,,0,FALSE,2.3367,,,,,,,,,,,,,,,,,,,,,,,,,,,,,,
,6052b6c2c4a1e9b5a8aafc00,001,2022-04-28_18h01.02.943,classification_task,2021.2.3,MacIntel,59.99520038,6052b6c2c4a1e9b5a8aafc00,626b377229c10585ec392f89,626b38a66df768822cafa029,,,,,,,,,,,,,,,,,,,,,,,a,1,"[""0.264"",""0.339"",""0.801"",""0.931""]","[1,1,0,1]",0,56,56,56,1,0,1,,,0,FALSE,1.2844,,,,,,,,,,,,,,,,,,,,,,,,,,,,,,
,6052b6c2c4a1e9b5a8aafc00,001,2022-04-28_18h01.02.943,classification_task,2021.2.3,MacIntel,59.99520038,6052b6c2c4a1e9b5a8aafc00,626b377229c10585ec392f89,626b38a66df768822cafa029,,,,,,,,,,,,,,,,,,,,,,,l,1,"[""0.038"",""0.179"",""0.497"",""0.757""]","[1,1,0,1]",0,57,57,57,1,1,1,,,0,FALSE,0.8937,,,,,,,,,,,,,,,,,,,,,,,,,,,,,,
,6052b6c2c4a1e9b5a8aafc00,001,2022-04-28_18h01.02.943,classification_task,2021.2.3,MacIntel,59.99520038,6052b6c2c4a1e9b5a8aafc00,626b377229c10585ec392f89,626b38a66df768822cafa029,,,,,,,,,,,,,,,,,,,,,,,l,1,"[""0.104"",""0.226"",""0.662"",""0.800""]","[1,1,1,0]",0,58,58,58,1,1,0,,,0,FALSE,1.3697,,,,,,,,,,,,,,,,,,,,,,,,,,,,,,
,6052b6c2c4a1e9b5a8aafc00,001,2022-04-28_18h01.02.943,classification_task,2021.2.3,MacIntel,59.99520038,6052b6c2c4a1e9b5a8aafc00,626b377229c10585ec392f89,626b38a66df768822cafa029,,,,,,,,,,,,,,,,,,,,,,,a,1,"[""0.303"",""0.445"",""0.816"",""0.967""]","[1,1,0,1]",0,59,59,59,1,0,0,,,0,FALSE,1.0669,,,,,,,,,,,,,,,,,,,,,,,,,,,,,,
,6052b6c2c4a1e9b5a8aafc00,001,2022-04-28_18h01.02.943,classification_task,2021.2.3,MacIntel,59.99520038,6052b6c2c4a1e9b5a8aafc00,626b377229c10585ec392f89,626b38a66df768822cafa029,,,,,,,,,,,,,,,,,,,,,,,a,1,"[""0.303"",""0.445"",""0.616"",""0.580""]","[1,1,1,0]",0,60,60,60,1,0,0,,,0,FALSE,1.8255,,,,,,,,,,,,,,,,,,,,,,,,,,,,,,
,6052b6c2c4a1e9b5a8aafc00,001,2022-04-28_18h01.02.943,classification_task,2021.2.3,MacIntel,59.99520038,6052b6c2c4a1e9b5a8aafc00,626b377229c10585ec392f89,626b38a66df768822cafa029,,,,,,,,,,,,,,,,,,,,,,,l,1,"[""0.104"",""0.226"",""0.835"",""0.700""]","[1,1,0,1]",0,61,61,61,1,1,0,,,0,FALSE,0.8178,,,,,,,,,,,,,,,,,,,,,,,,,,,,,,
,6052b6c2c4a1e9b5a8aafc00,001,2022-04-28_18h01.02.943,classification_task,2021.2.3,MacIntel,59.99520038,6052b6c2c4a1e9b5a8aafc00,626b377229c10585ec392f89,626b38a66df768822cafa029,,,,,,,,,,,,,,,,,,,,,,,a,1,"[""0.816"",""0.445"",""0.616"",""0.967""]","[0,1,1,1]",0,62,62,62,1,0,0,,,0,FALSE,1.0652,,,,,,,,,,,,,,,,,,,,,,,,,,,,,,
,6052b6c2c4a1e9b5a8aafc00,001,2022-04-28_18h01.02.943,classification_task,2021.2.3,MacIntel,59.99520038,6052b6c2c4a1e9b5a8aafc00,626b377229c10585ec392f89,626b38a66df768822cafa029,,,,,,,,,,,,,,,,,,,,,,,a,1,"[""0.378"",""0.339"",""0.879"",""0.931""]","[0,1,1,1]",0,63,63,63,1,0,1,,,0,FALSE,1.3921,,,,,,,,,,,,,,,,,,,,,,,,,,,,,,
,6052b6c2c4a1e9b5a8aafc00,001,2022-04-28_18h01.02.943,classification_task,2021.2.3,MacIntel,59.99520038,6052b6c2c4a1e9b5a8aafc00,626b377229c10585ec392f89,626b38a66df768822cafa029,,,,,,,,,,,,,,,,,,,,,,,,,,,,,,,,,,,,,,,0, ,,0,1.299198696,169.067,0,2,2,2,1,2,3,,,,,,,,,,,,,,,,,
,6052b6c2c4a1e9b5a8aafc00,001,2022-04-28_18h01.02.943,classification_task,2021.2.3,MacIntel,59.99520038,6052b6c2c4a1e9b5a8aafc00,626b377229c10585ec392f89,626b38a66df768822cafa029,,,,,,,,,,,,,,,,,,,,,,,,,,,,,,,,,,,,,,,1,  ,,0,3.322028822,173.5394,0,2,2,2,1,2,3,,,,,,,,,,,,,,,,,
,6052b6c2c4a1e9b5a8aafc00,001,2022-04-28_18h01.02.943,classification_task,2021.2.3,MacIntel,59.99520038,6052b6c2c4a1e9b5a8aafc00,626b377229c10585ec392f89,626b38a66df768822cafa029,,,,,,,,,,,,,,,,,,,,,,,,,,,,,,,,,,,,,,,2,  ,,0,3.937101101,179.4996,0,2,2,2,1,2,3,,,,,,,,,,,,,,,,,
,6052b6c2c4a1e9b5a8aafc00,001,2022-04-28_18h01.02.943,classification_task,2021.2.3,MacIntel,59.99520038,6052b6c2c4a1e9b5a8aafc00,626b377229c10585ec392f89,626b38a66df768822cafa029,,,,,,,,,,,,,,,,,,,,,,,,,,,,,,,,,,,,,,,,,,,,,0,2,2,2,1,,3,,,,,,,,,,,,,,,,,
,6052b6c2c4a1e9b5a8aafc00,001,2022-04-28_18h01.02.943,classification_task,2021.2.3,MacIntel,59.99520038,6052b6c2c4a1e9b5a8aafc00,626b377229c10585ec392f89,626b38a66df768822cafa029,,,,,,,,,,,,,,,,,,,,,,,,,,,,,,,,,,,,,,,,,,,,,,,,,,,,,I believe the aid is a competent performer,,0.7,0,4,863.4581,0,0,0,0,1,0,,,,
,6052b6c2c4a1e9b5a8aafc00,001,2022-04-28_18h01.02.943,classification_task,2021.2.3,MacIntel,59.99520038,6052b6c2c4a1e9b5a8aafc00,626b377229c10585ec392f89,626b38a66df768822cafa029,,,,,,,,,,,,,,,,,,,,,,,,,,,,,,,,,,,,,,,,,,,,,,,,,,,,,I trust the aid,,0.7,0,5,866.0905,0,0,0,0,1,0,,,,
,6052b6c2c4a1e9b5a8aafc00,001,2022-04-28_18h01.02.943,classification_task,2021.2.3,MacIntel,59.99520038,6052b6c2c4a1e9b5a8aafc00,626b377229c10585ec392f89,626b38a66df768822cafa029,,,,,,,,,,,,,,,,,,,,,,,,,,,,,,,,,,,,,,,,,,,,,,,,,,,,,I have confidence in the advice given by the aid,,0.7,0,4,868.7946,0,0,0,0,1,0,,,,
,6052b6c2c4a1e9b5a8aafc00,001,2022-04-28_18h01.02.943,classification_task,2021.2.3,MacIntel,59.99520038,6052b6c2c4a1e9b5a8aafc00,626b377229c10585ec392f89,626b38a66df768822cafa029,,,,,,,,,,,,,,,,,,,,,,,,,,,,,,,,,,,,,,,,,,,,,,,,,,,,,I can depend on the aid,,0.7,0,4,870.4843,0,0,0,0,1,0,,,,
,6052b6c2c4a1e9b5a8aafc00,001,2022-04-28_18h01.02.943,classification_task,2021.2.3,MacIntel,59.99520038,6052b6c2c4a1e9b5a8aafc00,626b377229c10585ec392f89,626b38a66df768822cafa029,,,,,,,,,,,,,,,,,,,,,,,,,,,,,,,,,,,,,,,,,,,,,,,,,,,,,I can rely on the aid to behave in consistent ways,,0.7,0,5,873.5569,0,0,0,0,1,0,,,,
,6052b6c2c4a1e9b5a8aafc00,001,2022-04-28_18h01.02.943,classification_task,2021.2.3,MacIntel,59.99520038,6052b6c2c4a1e9b5a8aafc00,626b377229c10585ec392f89,626b38a66df768822cafa029,,,,,,,,,,,,,,,,,,,,,,,,,,,,,,,,,,,,,,,,,,,,,,,,,,,,,I can rely on the aid to do its best every time I take its advice,,0.7,0,4,879.3479,0,0,0,0,1,0,,,,
,6052b6c2c4a1e9b5a8aafc00,001,2022-04-28_18h01.02.943,classification_task,2021.2.3,MacIntel,59.99520038,6052b6c2c4a1e9b5a8aafc00,626b377229c10585ec392f89,626b38a66df768822cafa029,,,,,,,,,,,,,,,,,,,,,,,,,,,,,,,,,,,,,,,,,,,,,,,,,,,,,"On trials you completed with assistance from the aid, how frequently did you think the aid was correct?",,0.7,0,100%,,0,0,0,0,1,0,,,,
,6052b6c2c4a1e9b5a8aafc00,001,2022-04-28_18h01.02.943,classification_task,2021.2.3,MacIntel,59.99520038,6052b6c2c4a1e9b5a8aafc00,626b377229c10585ec392f89,626b38a66df768822cafa029,,,,,,,,,,,,,,,,,,,,,,,,,,,,,,,,,,,,,,,,,,,,,,,,,,,,,"On trials you completed without the aid, how frequently did you think you were correct?",,0.7,0,95%,,0,0,0,0,1,0,,,,
,6052b6c2c4a1e9b5a8aafc00,001,2022-04-28_18h01.02.943,classification_task,2021.2.3,MacIntel,59.99520038,6052b6c2c4a1e9b5a8aafc00,626b377229c10585ec392f89,626b38a66df768822cafa029,,,,,,,,,,,,,,,,,,,,,,,,,,,,,,,,,,,,,,,,,,,,,,,,,,,,,,,,,,,0,0,0,0,1,,,,,
,6052b6c2c4a1e9b5a8aafc00,001,2022-04-28_18h01.02.943,classification_task,2021.2.3,MacIntel,59.99520038,6052b6c2c4a1e9b5a8aafc00,626b377229c10585ec392f89,626b38a66df768822cafa029,,,,,,,,,,,,,,,,,,,,,,,,,,,,,,,,,,,,,,,,,,,,,,,,,,,,,,,,,,,,,,,,,space,11.9596,917.0764,
,6052b6c2c4a1e9b5a8aafc00,001,2022-04-28_18h01.02.943,classification_task,2021.2.3,MacIntel,59.99520038,6052b6c2c4a1e9b5a8aafc00,626b377229c10585ec392f89,626b38a66df768822cafa029,,,,,,,,,,,,,,,,,,,,,,,,,,,,,,,,,,,,,,,,,,,,,,,,,,,,,,,,,,,,,,,,,,,,"Mozilla/5.0 (Macintosh; Intel Mac OS X 10_15_7) AppleWebKit/537.36 (KHTML, like Gecko) Chrome/100.0.4896.127 Safari/537.36"
