usingWebGL,participant,session,date,expName,psychopyVersion,OS,frameRate,PROLIFIC_PID,STUDY_ID,SESSION_ID,signatures_friend,signatures_foe,band_ranges_top,band_ranges_bottom,formitemText,formtype,formundefined,formitemWidth,formindex,formresponse,formrt,key_resp_2.keys,key_resp_2.rt,tute_resp.keys,tute_resp.rt,tutorial.thisRepN,tutorial.thisTrialN,tutorial.thisN,tutorial.thisIndex,tutorial.ran,key_resp_4.keys,key_resp_4.rt,key_resp.keys,key_resp.corr,lines_presented,is_signal_presented,trials.thisRepN,trials.thisTrialN,trials.thisN,trials.thisIndex,trials.ran,vessel,active_band,lines,is_signal,supported_pos,catch_trial,key_resp.rt,debrief_formindex,debrief_formitemText,debrief_formtype,debrief_formitemWidth,debrief_formresponse,debrief_formrt,phases.thisRepN,phases.thisTrialN,phases.thisN,phases.thisIndex,phases.ran,phases.order,phase,key_resp_3.keys,trustitemText,trusttype,trustitemWidth,trustindex,trustresponse,trustrt,support_status.thisRepN,support_status.thisTrialN,support_status.thisN,support_status.thisIndex,support_status.ran,support_status.order,key_resp_5.keys,key_resp_5.rt,globalClockTime,userAgent
TRUE,605b543bff0f6972b545620c,001,2022-04-28_21h10.20.990,classification_task,2021.2.3,Win32,60.07810153,605b543bff0f6972b545620c,626b377229c10585ec392f89,626b3ac80363ef0f890967ee,,,,,,,,,,,,,,,,,,,,,,,,,,,,,,,,,,,,,,,,,,,,,,,,,,,,,,,,,,,,,,,,,,,,
,605b543bff0f6972b545620c,001,2022-04-28_21h10.20.990,classification_task,2021.2.3,Win32,60.07810153,605b543bff0f6972b545620c,626b377229c10585ec392f89,626b3ac80363ef0f890967ee,"[[""0.260"",""0.372"",""0.914"",""0.961""],[""0.315"",""0.566"",""0.809"",""0.861""]]","[[""0.144"",""0.407"",""0.640"",""0.677""],[""0.080"",""0.200"",""0.457"",""0.746""]]","[1,10]","[100,1000]",Video game experience,,,0.7,0,,,,,,,,,,,,,,,,,,,,,,,,,,,,,,,,,,,,,,,,,,,,,,,,,,,,,,,,,,,
,605b543bff0f6972b545620c,001,2022-04-28_21h10.20.990,classification_task,2021.2.3,Win32,60.07810153,605b543bff0f6972b545620c,626b377229c10585ec392f89,626b3ac80363ef0f890967ee,,,,,Approximately how many hours did you spend playing video games in the last week?,,,0.7,0,18,,,,,,,,,,,,,,,,,,,,,,,,,,,,,,,,,,,,,,,,,,,,,,,,,,,,,,,,,,
,605b543bff0f6972b545620c,001,2022-04-28_21h10.20.990,classification_task,2021.2.3,Win32,60.07810153,605b543bff0f6972b545620c,626b377229c10585ec392f89,626b3ac80363ef0f890967ee,,,,,"Which game did you play the most this year? (Enter ""None"" if you didn't play any)",,,0.7,0,Destiny 2,,,,,,,,,,,,,,,,,,,,,,,,,,,,,,,,,,,,,,,,,,,,,,,,,,,,,,,,,,
,605b543bff0f6972b545620c,001,2022-04-28_21h10.20.990,classification_task,2021.2.3,Win32,60.07810153,605b543bff0f6972b545620c,626b377229c10585ec392f89,626b3ac80363ef0f890967ee,,,,,Visual perception,,,0.7,0,,,,,,,,,,,,,,,,,,,,,,,,,,,,,,,,,,,,,,,,,,,,,,,,,,,,,,,,,,,
,605b543bff0f6972b545620c,001,2022-04-28_21h10.20.990,classification_task,2021.2.3,Win32,60.07810153,605b543bff0f6972b545620c,626b377229c10585ec392f89,626b3ac80363ef0f890967ee,,,,,Do you have any form of color blindness?,,,0.7,0,No,25.193,,,,,,,,,,,,,,,,,,,,,,,,,,,,,,,,,,,,,,,,,,,,,,,,,,,,,,,,,
,605b543bff0f6972b545620c,001,2022-04-28_21h10.20.990,classification_task,2021.2.3,Win32,60.07810153,605b543bff0f6972b545620c,626b377229c10585ec392f89,626b3ac80363ef0f890967ee,,,,,Do you use software to change the colour temperature of your screen (e.g. f.lux)?,,,0.7,0,Yes,27.1734,,,,,,,,,,,,,,,,,,,,,,,,,,,,,,,,,,,,,,,,,,,,,,,,,,,,,,,,,
,605b543bff0f6972b545620c,001,2022-04-28_21h10.20.990,classification_task,2021.2.3,Win32,60.07810153,605b543bff0f6972b545620c,626b377229c10585ec392f89,626b3ac80363ef0f890967ee,,,,,,,,,,,,space,21.1292,space,7.4921,0,0,0,0,1,,,,,,,,,,,,,,,,,,,,,,,,,,,,,,,,,,,,,,,,,,,,,,,,
,605b543bff0f6972b545620c,001,2022-04-28_21h10.20.990,classification_task,2021.2.3,Win32,60.07810153,605b543bff0f6972b545620c,626b377229c10585ec392f89,626b3ac80363ef0f890967ee,,,,,,,,,,,,,,space,8.9456,1,0,1,0,1,,,,,,,,,,,,,,,,,,,,,,,,,,,,,,,,,,,,,,,,,,,,,,,,
,605b543bff0f6972b545620c,001,2022-04-28_21h10.20.990,classification_task,2021.2.3,Win32,60.07810153,605b543bff0f6972b545620c,626b377229c10585ec392f89,626b3ac80363ef0f890967ee,,,,,,,,,,,,,,space,29.3923,2,0,2,0,1,,,,,,,,,,,,,,,,,,,,,,,,,,,,,,,,,,,,,,,,,,,,,,,,
,605b543bff0f6972b545620c,001,2022-04-28_21h10.20.990,classification_task,2021.2.3,Win32,60.07810153,605b543bff0f6972b545620c,626b377229c10585ec392f89,626b3ac80363ef0f890967ee,,,,,,,,,,,,,,space,3.9654,3,0,3,0,1,,,,,,,,,,,,,,,,,,,,,,,,,,,,,,,,,,,,,,,,,,,,,,,,
,605b543bff0f6972b545620c,001,2022-04-28_21h10.20.990,classification_task,2021.2.3,Win32,60.07810153,605b543bff0f6972b545620c,626b377229c10585ec392f89,626b3ac80363ef0f890967ee,,,,,,,,,,,,,,space,14.5481,4,0,4,0,1,,,,,,,,,,,,,,,,,,,,,,,,,,,,,,,,,,,,,,,,,,,,,,,,
,605b543bff0f6972b545620c,001,2022-04-28_21h10.20.990,classification_task,2021.2.3,Win32,60.07810153,605b543bff0f6972b545620c,626b377229c10585ec392f89,626b3ac80363ef0f890967ee,,,,,,,,,,,,,,,,,,,,,space,109.8537,,0,"[""0.315"",""0.523"",""0.809"",""0.861""]","[1,0,1,1]",0,0,0,0,1,0,1,,,1,FALSE,,,,,,,,,,,,,,,,,,,,,,,,,,,,,,,
,605b543bff0f6972b545620c,001,2022-04-28_21h10.20.990,classification_task,2021.2.3,Win32,60.07810153,605b543bff0f6972b545620c,626b377229c10585ec392f89,626b3ac80363ef0f890967ee,,,,,,,,,,,,,,,,,,,,,,,l,1,"[""0.144"",""0.407"",""0.607"",""0.677""]","[1,1,0,1]",0,1,1,1,1,1,0,,,1,FALSE,7.1813,,,,,,,,,,,,,,,,,,,,,,,,,,,,,,
,605b543bff0f6972b545620c,001,2022-04-28_21h10.20.990,classification_task,2021.2.3,Win32,60.07810153,605b543bff0f6972b545620c,626b377229c10585ec392f89,626b3ac80363ef0f890967ee,,,,,,,,,,,,,,,,,,,,,,,l,1,"[""0.080"",""0.200"",""0.601"",""0.746""]","[1,1,0,1]",0,2,2,2,1,1,1,,,1,FALSE,5.0854,,,,,,,,,,,,,,,,,,,,,,,,,,,,,,
,605b543bff0f6972b545620c,001,2022-04-28_21h10.20.990,classification_task,2021.2.3,Win32,60.07810153,605b543bff0f6972b545620c,626b377229c10585ec392f89,626b3ac80363ef0f890967ee,,,,,,,,,,,,,,,,,,,,,,,a,1,"[""0.315"",""0.566"",""0.809"",""0.495""]","[1,1,1,0]",0,3,3,3,1,0,1,,,1,FALSE,7.2844,,,,,,,,,,,,,,,,,,,,,,,,,,,,,,
,605b543bff0f6972b545620c,001,2022-04-28_21h10.20.990,classification_task,2021.2.3,Win32,60.07810153,605b543bff0f6972b545620c,626b377229c10585ec392f89,626b3ac80363ef0f890967ee,,,,,,,,,,,,,,,,,,,,,,,a,1,"[""0.601"",""0.566"",""0.809"",""0.861""]","[0,1,1,1]",0,4,4,4,1,0,1,,,1,FALSE,4.4111,,,,,,,,,,,,,,,,,,,,,,,,,,,,,,
,605b543bff0f6972b545620c,001,2022-04-28_21h10.20.990,classification_task,2021.2.3,Win32,60.07810153,605b543bff0f6972b545620c,626b377229c10585ec392f89,626b3ac80363ef0f890967ee,,,,,,,,,,,,,,,,,,,,,,,a,1,"[""0.260"",""0.372"",""0.914"",""0.601""]","[1,1,1,0]",0,5,5,5,1,0,0,,,1,FALSE,3.7899,,,,,,,,,,,,,,,,,,,,,,,,,,,,,,
,605b543bff0f6972b545620c,001,2022-04-28_21h10.20.990,classification_task,2021.2.3,Win32,60.07810153,605b543bff0f6972b545620c,626b377229c10585ec392f89,626b3ac80363ef0f890967ee,,,,,,,,,,,,,,,,,,,,,,,l,1,"[""0.502"",""0.200"",""0.457"",""0.746""]","[0,1,1,1]",0,6,6,6,1,1,1,,,1,FALSE,3.0162,,,,,,,,,,,,,,,,,,,,,,,,,,,,,,
,605b543bff0f6972b545620c,001,2022-04-28_21h10.20.990,classification_task,2021.2.3,Win32,60.07810153,605b543bff0f6972b545620c,626b377229c10585ec392f89,626b3ac80363ef0f890967ee,,,,,,,,,,,,,,,,,,,,,,,l,1,"[""0.144"",""0.528"",""0.640"",""0.677""]","[1,0,1,1]",0,7,7,7,1,1,0,,,1,FALSE,5.196,,,,,,,,,,,,,,,,,,,,,,,,,,,,,,
,605b543bff0f6972b545620c,001,2022-04-28_21h10.20.990,classification_task,2021.2.3,Win32,60.07810153,605b543bff0f6972b545620c,626b377229c10585ec392f89,626b3ac80363ef0f890967ee,,,,,,,,,,,,,,,,,,,,,,,a,1,"[""0.260"",""0.372"",""0.502"",""0.961""]","[1,1,0,1]",0,8,8,8,1,0,0,,,1,FALSE,5.1839,,,,,,,,,,,,,,,,,,,,,,,,,,,,,,
,605b543bff0f6972b545620c,001,2022-04-28_21h10.20.990,classification_task,2021.2.3,Win32,60.07810153,605b543bff0f6972b545620c,626b377229c10585ec392f89,626b3ac80363ef0f890967ee,,,,,,,,,,,,,,,,,,,,,,,l,1,"[""0.144"",""0.407"",""0.640"",""0.509""]","[1,1,1,0]",0,9,9,9,1,1,0,,,1,FALSE,3.7451,,,,,,,,,,,,,,,,,,,,,,,,,,,,,,
,605b543bff0f6972b545620c,001,2022-04-28_21h10.20.990,classification_task,2021.2.3,Win32,60.07810153,605b543bff0f6972b545620c,626b377229c10585ec392f89,626b3ac80363ef0f890967ee,,,,,,,,,,,,,,,,,,,,,,,a,1,"[""0.260"",""0.045"",""0.914"",""0.961""]","[1,0,1,1]",0,10,10,10,1,0,0,,,1,FALSE,3.9326,,,,,,,,,,,,,,,,,,,,,,,,,,,,,,
,605b543bff0f6972b545620c,001,2022-04-28_21h10.20.990,classification_task,2021.2.3,Win32,60.07810153,605b543bff0f6972b545620c,626b377229c10585ec392f89,626b3ac80363ef0f890967ee,,,,,,,,,,,,,,,,,,,,,,,l,1,"[""0.045"",""0.407"",""0.640"",""0.677""]","[0,1,1,1]",0,11,11,11,1,1,0,,,1,FALSE,2.7441,,,,,,,,,,,,,,,,,,,,,,,,,,,,,,
,605b543bff0f6972b545620c,001,2022-04-28_21h10.20.990,classification_task,2021.2.3,Win32,60.07810153,605b543bff0f6972b545620c,626b377229c10585ec392f89,626b3ac80363ef0f890967ee,,,,,,,,,,,,,,,,,,,,,,,a,0,"[""0.080"",""0.200"",""0.457"",""0.517""]","[1,1,1,0]",0,12,12,12,1,1,1,,,1,FALSE,4.3322,,,,,,,,,,,,,,,,,,,,,,,,,,,,,,
,605b543bff0f6972b545620c,001,2022-04-28_21h10.20.990,classification_task,2021.2.3,Win32,60.07810153,605b543bff0f6972b545620c,626b377229c10585ec392f89,626b3ac80363ef0f890967ee,,,,,,,,,,,,,,,,,,,,,,,l,0,"[""0.045"",""0.372"",""0.914"",""0.961""]","[0,1,1,1]",0,13,13,13,1,0,0,,,1,FALSE,6.5463,,,,,,,,,,,,,,,,,,,,,,,,,,,,,,
,605b543bff0f6972b545620c,001,2022-04-28_21h10.20.990,classification_task,2021.2.3,Win32,60.07810153,605b543bff0f6972b545620c,626b377229c10585ec392f89,626b3ac80363ef0f890967ee,,,,,,,,,,,,,,,,,,,,,,,l,1,"[""0.080"",""0.509"",""0.457"",""0.746""]","[1,0,1,1]",0,14,14,14,1,1,1,,,1,FALSE,4.4448,,,,,,,,,,,,,,,,,,,,,,,,,,,,,,
,605b543bff0f6972b545620c,001,2022-04-28_21h10.20.990,classification_task,2021.2.3,Win32,60.07810153,605b543bff0f6972b545620c,626b377229c10585ec392f89,626b3ac80363ef0f890967ee,,,,,,,,,,,,,,,,,,,,,,,a,1,"[""0.315"",""0.566"",""0.515"",""0.861""]","[1,1,0,1]",0,15,15,15,1,0,1,,,1,FALSE,6.599,,,,,,,,,,,,,,,,,,,,,,,,,,,,,,
,605b543bff0f6972b545620c,001,2022-04-28_21h10.20.990,classification_task,2021.2.3,Win32,60.07810153,605b543bff0f6972b545620c,626b377229c10585ec392f89,626b3ac80363ef0f890967ee,,,,,,,,,,,,,,,,,,,,,,,l,1,"[""0.144"",""0.517"",""0.640"",""0.677""]","[1,0,1,1]",0,16,16,16,1,1,0,,,1,FALSE,3.5992,,,,,,,,,,,,,,,,,,,,,,,,,,,,,,
,605b543bff0f6972b545620c,001,2022-04-28_21h10.20.990,classification_task,2021.2.3,Win32,60.07810153,605b543bff0f6972b545620c,626b377229c10585ec392f89,626b3ac80363ef0f890967ee,,,,,,,,,,,,,,,,,,,,,,,a,1,"[""0.315"",""0.607"",""0.809"",""0.861""]","[1,0,1,1]",0,17,17,17,1,0,1,,,1,FALSE,2.7086,,,,,,,,,,,,,,,,,,,,,,,,,,,,,,
,605b543bff0f6972b545620c,001,2022-04-28_21h10.20.990,classification_task,2021.2.3,Win32,60.07810153,605b543bff0f6972b545620c,626b377229c10585ec392f89,626b3ac80363ef0f890967ee,,,,,,,,,,,,,,,,,,,,,,,a,1,"[""0.523"",""0.372"",""0.914"",""0.961""]","[0,1,1,1]",0,18,18,18,1,0,0,,,1,FALSE,4.1693,,,,,,,,,,,,,,,,,,,,,,,,,,,,,,
,605b543bff0f6972b545620c,001,2022-04-28_21h10.20.990,classification_task,2021.2.3,Win32,60.07810153,605b543bff0f6972b545620c,626b377229c10585ec392f89,626b3ac80363ef0f890967ee,,,,,,,,,,,,,,,,,,,,,,,a,1,"[""0.495"",""0.566"",""0.809"",""0.861""]","[0,1,1,1]",0,19,19,19,1,0,1,,,1,FALSE,3.877,,,,,,,,,,,,,,,,,,,,,,,,,,,,,,
,605b543bff0f6972b545620c,001,2022-04-28_21h10.20.990,classification_task,2021.2.3,Win32,60.07810153,605b543bff0f6972b545620c,626b377229c10585ec392f89,626b3ac80363ef0f890967ee,,,,,,,,,,,,,,,,,,,,,,,a,1,"[""0.315"",""0.566"",""0.809"",""0.025""]","[1,1,1,0]",0,20,20,20,1,0,1,,,1,FALSE,2.6142,,,,,,,,,,,,,,,,,,,,,,,,,,,,,,
,605b543bff0f6972b545620c,001,2022-04-28_21h10.20.990,classification_task,2021.2.3,Win32,60.07810153,605b543bff0f6972b545620c,626b377229c10585ec392f89,626b3ac80363ef0f890967ee,,,,,,,,,,,,,,,,,,,,,,,a,1,"[""0.260"",""0.372"",""0.914"",""0.509""]","[1,1,1,0]",0,21,21,21,1,0,0,,,1,FALSE,2.1144,,,,,,,,,,,,,,,,,,,,,,,,,,,,,,
,605b543bff0f6972b545620c,001,2022-04-28_21h10.20.990,classification_task,2021.2.3,Win32,60.07810153,605b543bff0f6972b545620c,626b377229c10585ec392f89,626b3ac80363ef0f890967ee,,,,,,,,,,,,,,,,,,,,,,,l,1,"[""0.144"",""0.407"",""0.640"",""0.601""]","[1,1,1,0]",0,22,22,22,1,1,0,,,1,FALSE,1.4798,,,,,,,,,,,,,,,,,,,,,,,,,,,,,,
,605b543bff0f6972b545620c,001,2022-04-28_21h10.20.990,classification_task,2021.2.3,Win32,60.07810153,605b543bff0f6972b545620c,626b377229c10585ec392f89,626b3ac80363ef0f890967ee,,,,,,,,,,,,,,,,,,,,,,,l,1,"[""0.080"",""0.517"",""0.457"",""0.746""]","[1,0,1,1]",0,23,23,23,1,1,1,,,1,FALSE,2.6492,,,,,,,,,,,,,,,,,,,,,,,,,,,,,,
,605b543bff0f6972b545620c,001,2022-04-28_21h10.20.990,classification_task,2021.2.3,Win32,60.07810153,605b543bff0f6972b545620c,626b377229c10585ec392f89,626b3ac80363ef0f890967ee,,,,,,,,,,,,,,,,,,,,,,,a,1,"[""0.260"",""0.372"",""0.495"",""0.961""]","[1,1,0,1]",0,24,24,24,1,0,0,,,1,FALSE,1.7663,,,,,,,,,,,,,,,,,,,,,,,,,,,,,,
,605b543bff0f6972b545620c,001,2022-04-28_21h10.20.990,classification_task,2021.2.3,Win32,60.07810153,605b543bff0f6972b545620c,626b377229c10585ec392f89,626b3ac80363ef0f890967ee,,,,,,,,,,,,,,,,,,,,,,,a,1,"[""0.260"",""0.502"",""0.914"",""0.961""]","[1,0,1,1]",0,25,25,25,1,0,0,,,1,FALSE,1.0812,,,,,,,,,,,,,,,,,,,,,,,,,,,,,,
,605b543bff0f6972b545620c,001,2022-04-28_21h10.20.990,classification_task,2021.2.3,Win32,60.07810153,605b543bff0f6972b545620c,626b377229c10585ec392f89,626b3ac80363ef0f890967ee,,,,,,,,,,,,,,,,,,,,,,,a,1,"[""0.315"",""0.566"",""0.515"",""0.861""]","[1,1,0,1]",0,26,26,26,1,0,1,,,1,FALSE,2.8665,,,,,,,,,,,,,,,,,,,,,,,,,,,,,,
,605b543bff0f6972b545620c,001,2022-04-28_21h10.20.990,classification_task,2021.2.3,Win32,60.07810153,605b543bff0f6972b545620c,626b377229c10585ec392f89,626b3ac80363ef0f890967ee,,,,,,,,,,,,,,,,,,,,,,,l,1,"[""0.045"",""0.407"",""0.640"",""0.677""]","[0,1,1,1]",0,27,27,27,1,1,0,,,1,FALSE,1.3665,,,,,,,,,,,,,,,,,,,,,,,,,,,,,,
,605b543bff0f6972b545620c,001,2022-04-28_21h10.20.990,classification_task,2021.2.3,Win32,60.07810153,605b543bff0f6972b545620c,626b377229c10585ec392f89,626b3ac80363ef0f890967ee,,,,,,,,,,,,,,,,,,,,,,,l,1,"[""0.523"",""0.200"",""0.457"",""0.746""]","[0,1,1,1]",0,28,28,28,1,1,1,,,1,FALSE,2.8872,,,,,,,,,,,,,,,,,,,,,,,,,,,,,,
,605b543bff0f6972b545620c,001,2022-04-28_21h10.20.990,classification_task,2021.2.3,Win32,60.07810153,605b543bff0f6972b545620c,626b377229c10585ec392f89,626b3ac80363ef0f890967ee,,,,,,,,,,,,,,,,,,,,,,,l,1,"[""0.144"",""0.407"",""0.502"",""0.677""]","[1,1,0,1]",0,29,29,29,1,1,0,,,1,FALSE,2.2145,,,,,,,,,,,,,,,,,,,,,,,,,,,,,,
,605b543bff0f6972b545620c,001,2022-04-28_21h10.20.990,classification_task,2021.2.3,Win32,60.07810153,605b543bff0f6972b545620c,626b377229c10585ec392f89,626b3ac80363ef0f890967ee,,,,,,,,,,,,,,,,,,,,,,,l,1,"[""0.080"",""0.200"",""0.502"",""0.746""]","[1,1,0,1]",0,30,30,30,1,1,1,,,1,FALSE,1.3014,,,,,,,,,,,,,,,,,,,,,,,,,,,,,,
,605b543bff0f6972b545620c,001,2022-04-28_21h10.20.990,classification_task,2021.2.3,Win32,60.07810153,605b543bff0f6972b545620c,626b377229c10585ec392f89,626b3ac80363ef0f890967ee,,,,,,,,,,,,,,,,,,,,,,,a,0,"[""0.080"",""0.200"",""0.457"",""0.042""]","[1,1,1,0]",0,31,31,31,1,1,1,,,1,FALSE,1.2653,,,,,,,,,,,,,,,,,,,,,,,,,,,,,,
,605b543bff0f6972b545620c,001,2022-04-28_21h10.20.990,classification_task,2021.2.3,Win32,60.07810153,605b543bff0f6972b545620c,626b377229c10585ec392f89,626b3ac80363ef0f890967ee,,,,,,,,,,,,,,,,,,,,,,,l,1,"[""0.080"",""0.200"",""0.515"",""0.746""]","[1,1,0,1]",0,32,32,32,1,1,1,,,1,FALSE,5.2145,,,,,,,,,,,,,,,,,,,,,,,,,,,,,,
,605b543bff0f6972b545620c,001,2022-04-28_21h10.20.990,classification_task,2021.2.3,Win32,60.07810153,605b543bff0f6972b545620c,626b377229c10585ec392f89,626b3ac80363ef0f890967ee,,,,,,,,,,,,,,,,,,,,,,,a,1,"[""0.607"",""0.566"",""0.809"",""0.861""]","[0,1,1,1]",0,33,33,33,1,0,1,,,1,FALSE,1.9665,,,,,,,,,,,,,,,,,,,,,,,,,,,,,,
,605b543bff0f6972b545620c,001,2022-04-28_21h10.20.990,classification_task,2021.2.3,Win32,60.07810153,605b543bff0f6972b545620c,626b377229c10585ec392f89,626b3ac80363ef0f890967ee,,,,,,,,,,,,,,,,,,,,,,,a,1,"[""0.315"",""0.601"",""0.809"",""0.861""]","[1,0,1,1]",0,34,34,34,1,0,1,,,1,FALSE,2.943,,,,,,,,,,,,,,,,,,,,,,,,,,,,,,
,605b543bff0f6972b545620c,001,2022-04-28_21h10.20.990,classification_task,2021.2.3,Win32,60.07810153,605b543bff0f6972b545620c,626b377229c10585ec392f89,626b3ac80363ef0f890967ee,,,,,,,,,,,,,,,,,,,,,,,a,1,"[""0.315"",""0.566"",""0.809"",""0.502""]","[1,1,1,0]",0,35,35,35,1,0,1,,,1,FALSE,2.4017,,,,,,,,,,,,,,,,,,,,,,,,,,,,,,
,605b543bff0f6972b545620c,001,2022-04-28_21h10.20.990,classification_task,2021.2.3,Win32,60.07810153,605b543bff0f6972b545620c,626b377229c10585ec392f89,626b3ac80363ef0f890967ee,,,,,,,,,,,,,,,,,,,,,,,l,1,"[""0.144"",""0.407"",""0.640"",""0.711""]","[1,1,1,0]",0,36,36,36,1,1,0,,,1,FALSE,3.0977,,,,,,,,,,,,,,,,,,,,,,,,,,,,,,
,605b543bff0f6972b545620c,001,2022-04-28_21h10.20.990,classification_task,2021.2.3,Win32,60.07810153,605b543bff0f6972b545620c,626b377229c10585ec392f89,626b3ac80363ef0f890967ee,,,,,,,,,,,,,,,,,,,,,,,a,1,"[""0.502"",""0.372"",""0.914"",""0.961""]","[0,1,1,1]",0,37,37,37,1,0,0,,,1,FALSE,1.0999,,,,,,,,,,,,,,,,,,,,,,,,,,,,,,
,605b543bff0f6972b545620c,001,2022-04-28_21h10.20.990,classification_task,2021.2.3,Win32,60.07810153,605b543bff0f6972b545620c,626b377229c10585ec392f89,626b3ac80363ef0f890967ee,,,,,,,,,,,,,,,,,,,,,,,l,1,"[""0.144"",""0.407"",""0.512"",""0.677""]","[1,1,0,1]",0,38,38,38,1,1,0,,,1,FALSE,3.7128,,,,,,,,,,,,,,,,,,,,,,,,,,,,,,
,605b543bff0f6972b545620c,001,2022-04-28_21h10.20.990,classification_task,2021.2.3,Win32,60.07810153,605b543bff0f6972b545620c,626b377229c10585ec392f89,626b3ac80363ef0f890967ee,,,,,,,,,,,,,,,,,,,,,,,a,1,"[""0.260"",""0.372"",""0.515"",""0.961""]","[1,1,0,1]",0,39,39,39,1,0,0,,,1,FALSE,1.1015,,,,,,,,,,,,,,,,,,,,,,,,,,,,,,
,605b543bff0f6972b545620c,001,2022-04-28_21h10.20.990,classification_task,2021.2.3,Win32,60.07810153,605b543bff0f6972b545620c,626b377229c10585ec392f89,626b3ac80363ef0f890967ee,,,,,,,,,,,,,,,,,,,,,,,l,1,"[""0.144"",""0.512"",""0.640"",""0.677""]","[1,0,1,1]",0,40,40,40,1,1,0,,,1,FALSE,1.3334,,,,,,,,,,,,,,,,,,,,,,,,,,,,,,
,605b543bff0f6972b545620c,001,2022-04-28_21h10.20.990,classification_task,2021.2.3,Win32,60.07810153,605b543bff0f6972b545620c,626b377229c10585ec392f89,626b3ac80363ef0f890967ee,,,,,,,,,,,,,,,,,,,,,,,a,1,"[""0.260"",""0.372"",""0.914"",""0.527""]","[1,1,1,0]",0,41,41,41,1,0,0,,,1,FALSE,1.2161,,,,,,,,,,,,,,,,,,,,,,,,,,,,,,
,605b543bff0f6972b545620c,001,2022-04-28_21h10.20.990,classification_task,2021.2.3,Win32,60.07810153,605b543bff0f6972b545620c,626b377229c10585ec392f89,626b3ac80363ef0f890967ee,,,,,,,,,,,,,,,,,,,,,,,a,1,"[""0.260"",""0.045"",""0.914"",""0.961""]","[1,0,1,1]",0,42,42,42,1,0,0,,,1,FALSE,1.0675,,,,,,,,,,,,,,,,,,,,,,,,,,,,,,
,605b543bff0f6972b545620c,001,2022-04-28_21h10.20.990,classification_task,2021.2.3,Win32,60.07810153,605b543bff0f6972b545620c,626b377229c10585ec392f89,626b3ac80363ef0f890967ee,,,,,,,,,,,,,,,,,,,,,,,l,1,"[""0.601"",""0.200"",""0.457"",""0.746""]","[0,1,1,1]",0,43,43,43,1,1,1,,,1,FALSE,1.8484,,,,,,,,,,,,,,,,,,,,,,,,,,,,,,
,605b543bff0f6972b545620c,001,2022-04-28_21h10.20.990,classification_task,2021.2.3,Win32,60.07810153,605b543bff0f6972b545620c,626b377229c10585ec392f89,626b3ac80363ef0f890967ee,,,,,,,,,,,,,,,,,,,,,,,a,0,"[""0.080"",""0.200"",""0.457"",""0.515""]","[1,1,1,0]",0,44,44,44,1,1,1,,,1,FALSE,1.1141,,,,,,,,,,,,,,,,,,,,,,,,,,,,,,
,605b543bff0f6972b545620c,001,2022-04-28_21h10.20.990,classification_task,2021.2.3,Win32,60.07810153,605b543bff0f6972b545620c,626b377229c10585ec392f89,626b3ac80363ef0f890967ee,,,,,,,,,,,,,,,,,,,,,,,l,1,"[""0.080"",""0.045"",""0.457"",""0.746""]","[1,0,1,1]",0,45,45,45,1,1,1,,,1,FALSE,2.8974,,,,,,,,,,,,,,,,,,,,,,,,,,,,,,
,605b543bff0f6972b545620c,001,2022-04-28_21h10.20.990,classification_task,2021.2.3,Win32,60.07810153,605b543bff0f6972b545620c,626b377229c10585ec392f89,626b3ac80363ef0f890967ee,,,,,,,,,,,,,,,,,,,,,,,a,1,"[""0.315"",""0.566"",""0.517"",""0.861""]","[1,1,0,1]",0,46,46,46,1,0,1,,,1,FALSE,2.0314,,,,,,,,,,,,,,,,,,,,,,,,,,,,,,
,605b543bff0f6972b545620c,001,2022-04-28_21h10.20.990,classification_task,2021.2.3,Win32,60.07810153,605b543bff0f6972b545620c,626b377229c10585ec392f89,626b3ac80363ef0f890967ee,,,,,,,,,,,,,,,,,,,,,,,l,1,"[""0.025"",""0.407"",""0.640"",""0.677""]","[0,1,1,1]",0,47,47,47,1,1,0,,,1,FALSE,1.5018,,,,,,,,,,,,,,,,,,,,,,,,,,,,,,
,605b543bff0f6972b545620c,001,2022-04-28_21h10.20.990,classification_task,2021.2.3,Win32,60.07810153,605b543bff0f6972b545620c,626b377229c10585ec392f89,626b3ac80363ef0f890967ee,,,,,,,,,,,,,,,,,,,,,,,l,1,"[""0.515"",""0.200"",""0.457"",""0.746""]","[0,1,1,1]",0,48,48,48,1,1,1,,,1,FALSE,1.2304,,,,,,,,,,,,,,,,,,,,,,,,,,,,,,
,605b543bff0f6972b545620c,001,2022-04-28_21h10.20.990,classification_task,2021.2.3,Win32,60.07810153,605b543bff0f6972b545620c,626b377229c10585ec392f89,626b3ac80363ef0f890967ee,,,,,,,,,,,,,,,,,,,,,,,l,1,"[""0.080"",""0.200"",""0.528"",""0.746""]","[1,1,0,1]",0,49,49,49,1,1,1,,,1,FALSE,1.5648,,,,,,,,,,,,,,,,,,,,,,,,,,,,,,
,605b543bff0f6972b545620c,001,2022-04-28_21h10.20.990,classification_task,2021.2.3,Win32,60.07810153,605b543bff0f6972b545620c,626b377229c10585ec392f89,626b3ac80363ef0f890967ee,,,,,,,,,,,,,,,,,,,,,,,l,1,"[""0.144"",""0.502"",""0.640"",""0.677""]","[1,0,1,1]",0,50,50,50,1,1,0,,,1,FALSE,2.1148,,,,,,,,,,,,,,,,,,,,,,,,,,,,,,
,605b543bff0f6972b545620c,001,2022-04-28_21h10.20.990,classification_task,2021.2.3,Win32,60.07810153,605b543bff0f6972b545620c,626b377229c10585ec392f89,626b3ac80363ef0f890967ee,,,,,,,,,,,,,,,,,,,,,,,l,1,"[""0.144"",""0.407"",""0.528"",""0.677""]","[1,1,0,1]",0,51,51,51,1,1,0,,,1,FALSE,2.6861,,,,,,,,,,,,,,,,,,,,,,,,,,,,,,
,605b543bff0f6972b545620c,001,2022-04-28_21h10.20.990,classification_task,2021.2.3,Win32,60.07810153,605b543bff0f6972b545620c,626b377229c10585ec392f89,626b3ac80363ef0f890967ee,,,,,,,,,,,,,,,,,,,,,,,a,1,"[""0.260"",""0.372"",""0.914"",""0.601""]","[1,1,1,0]",0,52,52,52,1,0,0,,,1,FALSE,1.8899,,,,,,,,,,,,,,,,,,,,,,,,,,,,,,
,605b543bff0f6972b545620c,001,2022-04-28_21h10.20.990,classification_task,2021.2.3,Win32,60.07810153,605b543bff0f6972b545620c,626b377229c10585ec392f89,626b3ac80363ef0f890967ee,,,,,,,,,,,,,,,,,,,,,,,a,0,"[""0.080"",""0.200"",""0.457"",""0.025""]","[1,1,1,0]",0,53,53,53,1,1,1,,,1,FALSE,1.7453,,,,,,,,,,,,,,,,,,,,,,,,,,,,,,
,605b543bff0f6972b545620c,001,2022-04-28_21h10.20.990,classification_task,2021.2.3,Win32,60.07810153,605b543bff0f6972b545620c,626b377229c10585ec392f89,626b3ac80363ef0f890967ee,,,,,,,,,,,,,,,,,,,,,,,a,1,"[""0.315"",""0.528"",""0.809"",""0.861""]","[1,0,1,1]",0,54,54,54,1,0,1,,,1,FALSE,2.1036,,,,,,,,,,,,,,,,,,,,,,,,,,,,,,
,605b543bff0f6972b545620c,001,2022-04-28_21h10.20.990,classification_task,2021.2.3,Win32,60.07810153,605b543bff0f6972b545620c,626b377229c10585ec392f89,626b3ac80363ef0f890967ee,,,,,,,,,,,,,,,,,,,,,,,a,1,"[""0.315"",""0.566"",""0.809"",""0.607""]","[1,1,1,0]",0,55,55,55,1,0,1,,,1,FALSE,2.8806,,,,,,,,,,,,,,,,,,,,,,,,,,,,,,
,605b543bff0f6972b545620c,001,2022-04-28_21h10.20.990,classification_task,2021.2.3,Win32,60.07810153,605b543bff0f6972b545620c,626b377229c10585ec392f89,626b3ac80363ef0f890967ee,,,,,,,,,,,,,,,,,,,,,,,a,1,"[""0.025"",""0.566"",""0.809"",""0.861""]","[0,1,1,1]",0,56,56,56,1,0,1,,,1,FALSE,3.8607,,,,,,,,,,,,,,,,,,,,,,,,,,,,,,
,605b543bff0f6972b545620c,001,2022-04-28_21h10.20.990,classification_task,2021.2.3,Win32,60.07810153,605b543bff0f6972b545620c,626b377229c10585ec392f89,626b3ac80363ef0f890967ee,,,,,,,,,,,,,,,,,,,,,,,l,1,"[""0.144"",""0.407"",""0.640"",""0.607""]","[1,1,1,0]",0,57,57,57,1,1,0,,,1,FALSE,1.9154,,,,,,,,,,,,,,,,,,,,,,,,,,,,,,
,605b543bff0f6972b545620c,001,2022-04-28_21h10.20.990,classification_task,2021.2.3,Win32,60.07810153,605b543bff0f6972b545620c,626b377229c10585ec392f89,626b3ac80363ef0f890967ee,,,,,,,,,,,,,,,,,,,,,,,a,1,"[""0.260"",""0.045"",""0.914"",""0.961""]","[1,0,1,1]",0,58,58,58,1,0,0,,,1,FALSE,0.991,,,,,,,,,,,,,,,,,,,,,,,,,,,,,,
,605b543bff0f6972b545620c,001,2022-04-28_21h10.20.990,classification_task,2021.2.3,Win32,60.07810153,605b543bff0f6972b545620c,626b377229c10585ec392f89,626b3ac80363ef0f890967ee,,,,,,,,,,,,,,,,,,,,,,,l,1,"[""0.601"",""0.407"",""0.640"",""0.677""]","[0,1,1,1]",0,59,59,59,1,1,0,,,1,FALSE,1.1499,,,,,,,,,,,,,,,,,,,,,,,,,,,,,,
,605b543bff0f6972b545620c,001,2022-04-28_21h10.20.990,classification_task,2021.2.3,Win32,60.07810153,605b543bff0f6972b545620c,626b377229c10585ec392f89,626b3ac80363ef0f890967ee,,,,,,,,,,,,,,,,,,,,,,,l,1,"[""0.080"",""0.601"",""0.457"",""0.746""]","[1,0,1,1]",0,60,60,60,1,1,1,,,1,FALSE,1.6191,,,,,,,,,,,,,,,,,,,,,,,,,,,,,,
,605b543bff0f6972b545620c,001,2022-04-28_21h10.20.990,classification_task,2021.2.3,Win32,60.07810153,605b543bff0f6972b545620c,626b377229c10585ec392f89,626b3ac80363ef0f890967ee,,,,,,,,,,,,,,,,,,,,,,,a,1,"[""0.260"",""0.372"",""0.517"",""0.961""]","[1,1,0,1]",0,61,61,61,1,0,0,,,1,FALSE,1.8961,,,,,,,,,,,,,,,,,,,,,,,,,,,,,,
,605b543bff0f6972b545620c,001,2022-04-28_21h10.20.990,classification_task,2021.2.3,Win32,60.07810153,605b543bff0f6972b545620c,626b377229c10585ec392f89,626b3ac80363ef0f890967ee,,,,,,,,,,,,,,,,,,,,,,,l,0,"[""0.607"",""0.372"",""0.914"",""0.961""]","[0,1,1,1]",0,62,62,62,1,0,0,,,1,FALSE,2.3678,,,,,,,,,,,,,,,,,,,,,,,,,,,,,,
,605b543bff0f6972b545620c,001,2022-04-28_21h10.20.990,classification_task,2021.2.3,Win32,60.07810153,605b543bff0f6972b545620c,626b377229c10585ec392f89,626b3ac80363ef0f890967ee,,,,,,,,,,,,,,,,,,,,,,,a,1,"[""0.315"",""0.566"",""0.045"",""0.861""]","[1,1,0,1]",0,63,63,63,1,0,1,,,1,FALSE,2.7165,,,,,,,,,,,,,,,,,,,,,,,,,,,,,,
,605b543bff0f6972b545620c,001,2022-04-28_21h10.20.990,classification_task,2021.2.3,Win32,60.07810153,605b543bff0f6972b545620c,626b377229c10585ec392f89,626b3ac80363ef0f890967ee,,,,,,,,,,,,,,,,,,,,,,,,,,,,,,,,,,,,,,,0, ,,0,1.846217911,507.624,0,0,0,0,1,2,1,,,,,,,,,,,,,,,,,
,605b543bff0f6972b545620c,001,2022-04-28_21h10.20.990,classification_task,2021.2.3,Win32,60.07810153,605b543bff0f6972b545620c,626b377229c10585ec392f89,626b3ac80363ef0f890967ee,,,,,,,,,,,,,,,,,,,,,,,,,,,,,,,,,,,,,,,1,  ,,0,10,515.5716,0,0,0,0,1,2,1,,,,,,,,,,,,,,,,,
,605b543bff0f6972b545620c,001,2022-04-28_21h10.20.990,classification_task,2021.2.3,Win32,60.07810153,605b543bff0f6972b545620c,626b377229c10585ec392f89,626b3ac80363ef0f890967ee,,,,,,,,,,,,,,,,,,,,,,,,,,,,,,,,,,,,,,,2,  ,,0,8.60694652,519.92,0,0,0,0,1,2,1,,,,,,,,,,,,,,,,,
,605b543bff0f6972b545620c,001,2022-04-28_21h10.20.990,classification_task,2021.2.3,Win32,60.07810153,605b543bff0f6972b545620c,626b377229c10585ec392f89,626b3ac80363ef0f890967ee,,,,,,,,,,,,,,,,,,,,,,,,,,,,,,,,,,,,,,,,,,,,,0,0,0,0,1,,1,,,,,,,,,,,,,,,,,
,605b543bff0f6972b545620c,001,2022-04-28_21h10.20.990,classification_task,2021.2.3,Win32,60.07810153,605b543bff0f6972b545620c,626b377229c10585ec392f89,626b3ac80363ef0f890967ee,,,,,,,,,,,,,,,,,,,,,space,9.364,l,1,"[""0.711"",""0.407"",""0.640"",""0.677""]","[0,1,1,1]",0,0,0,0,1,1,0,,,1,FALSE,5.913,,,,,,,,,,,,,,,,,,,,,,,,,,,,,,
,605b543bff0f6972b545620c,001,2022-04-28_21h10.20.990,classification_task,2021.2.3,Win32,60.07810153,605b543bff0f6972b545620c,626b377229c10585ec392f89,626b3ac80363ef0f890967ee,,,,,,,,,,,,,,,,,,,,,,,l,1,"[""0.144"",""0.407"",""0.640"",""0.495""]","[1,1,1,0]",0,1,1,1,1,1,0,,,1,FALSE,4.2413,,,,,,,,,,,,,,,,,,,,,,,,,,,,,,
,605b543bff0f6972b545620c,001,2022-04-28_21h10.20.990,classification_task,2021.2.3,Win32,60.07810153,605b543bff0f6972b545620c,626b377229c10585ec392f89,626b3ac80363ef0f890967ee,,,,,,,,,,,,,,,,,,,,,,,a,1,"[""0.601"",""0.372"",""0.914"",""0.961""]","[0,1,1,1]",0,2,2,2,1,0,0,,,1,FALSE,2.1472,,,,,,,,,,,,,,,,,,,,,,,,,,,,,,
,605b543bff0f6972b545620c,001,2022-04-28_21h10.20.990,classification_task,2021.2.3,Win32,60.07810153,605b543bff0f6972b545620c,626b377229c10585ec392f89,626b3ac80363ef0f890967ee,,,,,,,,,,,,,,,,,,,,,,,a,1,"[""0.315"",""0.566"",""0.042"",""0.861""]","[1,1,0,1]",0,3,3,3,1,0,1,,,1,FALSE,5.1484,,,,,,,,,,,,,,,,,,,,,,,,,,,,,,
,605b543bff0f6972b545620c,001,2022-04-28_21h10.20.990,classification_task,2021.2.3,Win32,60.07810153,605b543bff0f6972b545620c,626b377229c10585ec392f89,626b3ac80363ef0f890967ee,,,,,,,,,,,,,,,,,,,,,,,a,1,"[""0.315"",""0.566"",""0.809"",""0.523""]","[1,1,1,0]",0,4,4,4,1,0,1,,,1,FALSE,5.5134,,,,,,,,,,,,,,,,,,,,,,,,,,,,,,
,605b543bff0f6972b545620c,001,2022-04-28_21h10.20.990,classification_task,2021.2.3,Win32,60.07810153,605b543bff0f6972b545620c,626b377229c10585ec392f89,626b3ac80363ef0f890967ee,,,,,,,,,,,,,,,,,,,,,,,l,1,"[""0.045"",""0.200"",""0.457"",""0.746""]","[0,1,1,1]",0,5,5,5,1,1,1,,,1,FALSE,2.4495,,,,,,,,,,,,,,,,,,,,,,,,,,,,,,
,605b543bff0f6972b545620c,001,2022-04-28_21h10.20.990,classification_task,2021.2.3,Win32,60.07810153,605b543bff0f6972b545620c,626b377229c10585ec392f89,626b3ac80363ef0f890967ee,,,,,,,,,,,,,,,,,,,,,,,a,1,"[""0.315"",""0.607"",""0.809"",""0.861""]","[1,0,1,1]",0,6,6,6,1,0,1,,,1,FALSE,1.4615,,,,,,,,,,,,,,,,,,,,,,,,,,,,,,
,605b543bff0f6972b545620c,001,2022-04-28_21h10.20.990,classification_task,2021.2.3,Win32,60.07810153,605b543bff0f6972b545620c,626b377229c10585ec392f89,626b3ac80363ef0f890967ee,,,,,,,,,,,,,,,,,,,,,,,l,1,"[""0.080"",""0.025"",""0.457"",""0.746""]","[1,0,1,1]",0,7,7,7,1,1,1,,,1,FALSE,0.8232,,,,,,,,,,,,,,,,,,,,,,,,,,,,,,
,605b543bff0f6972b545620c,001,2022-04-28_21h10.20.990,classification_task,2021.2.3,Win32,60.07810153,605b543bff0f6972b545620c,626b377229c10585ec392f89,626b3ac80363ef0f890967ee,,,,,,,,,,,,,,,,,,,,,,,l,1,"[""0.080"",""0.200"",""0.512"",""0.746""]","[1,1,0,1]",0,8,8,8,1,1,1,,,1,FALSE,0.5195,,,,,,,,,,,,,,,,,,,,,,,,,,,,,,
,605b543bff0f6972b545620c,001,2022-04-28_21h10.20.990,classification_task,2021.2.3,Win32,60.07810153,605b543bff0f6972b545620c,626b377229c10585ec392f89,626b3ac80363ef0f890967ee,,,,,,,,,,,,,,,,,,,,,,,l,1,"[""0.144"",""0.407"",""0.517"",""0.677""]","[1,1,0,1]",0,9,9,9,1,1,0,,,1,FALSE,2.0812,,,,,,,,,,,,,,,,,,,,,,,,,,,,,,
,605b543bff0f6972b545620c,001,2022-04-28_21h10.20.990,classification_task,2021.2.3,Win32,60.07810153,605b543bff0f6972b545620c,626b377229c10585ec392f89,626b3ac80363ef0f890967ee,,,,,,,,,,,,,,,,,,,,,,,a,1,"[""0.260"",""0.372"",""0.914"",""0.042""]","[1,1,1,0]",0,10,10,10,1,0,0,,,1,FALSE,1.9161,,,,,,,,,,,,,,,,,,,,,,,,,,,,,,
,605b543bff0f6972b545620c,001,2022-04-28_21h10.20.990,classification_task,2021.2.3,Win32,60.07810153,605b543bff0f6972b545620c,626b377229c10585ec392f89,626b3ac80363ef0f890967ee,,,,,,,,,,,,,,,,,,,,,,,a,1,"[""0.260"",""0.372"",""0.495"",""0.961""]","[1,1,0,1]",0,11,11,11,1,0,0,,,1,FALSE,2.4693,,,,,,,,,,,,,,,,,,,,,,,,,,,,,,
,605b543bff0f6972b545620c,001,2022-04-28_21h10.20.990,classification_task,2021.2.3,Win32,60.07810153,605b543bff0f6972b545620c,626b377229c10585ec392f89,626b3ac80363ef0f890967ee,,,,,,,,,,,,,,,,,,,,,,,a,1,"[""0.260"",""0.502"",""0.914"",""0.961""]","[1,0,1,1]",0,12,12,12,1,0,0,,,1,FALSE,1.0658,,,,,,,,,,,,,,,,,,,,,,,,,,,,,,
,605b543bff0f6972b545620c,001,2022-04-28_21h10.20.990,classification_task,2021.2.3,Win32,60.07810153,605b543bff0f6972b545620c,626b377229c10585ec392f89,626b3ac80363ef0f890967ee,,,,,,,,,,,,,,,,,,,,,,,l,1,"[""0.144"",""0.045"",""0.640"",""0.677""]","[1,0,1,1]",0,13,13,13,1,1,0,,,1,FALSE,0.7168,,,,,,,,,,,,,,,,,,,,,,,,,,,,,,
,605b543bff0f6972b545620c,001,2022-04-28_21h10.20.990,classification_task,2021.2.3,Win32,60.07810153,605b543bff0f6972b545620c,626b377229c10585ec392f89,626b3ac80363ef0f890967ee,,,,,,,,,,,,,,,,,,,,,,,l,1,"[""0.080"",""0.200"",""0.457"",""0.045""]","[1,1,1,0]",0,14,14,14,1,1,1,,,1,FALSE,1.0674,,,,,,,,,,,,,,,,,,,,,,,,,,,,,,
,605b543bff0f6972b545620c,001,2022-04-28_21h10.20.990,classification_task,2021.2.3,Win32,60.07810153,605b543bff0f6972b545620c,626b377229c10585ec392f89,626b3ac80363ef0f890967ee,,,,,,,,,,,,,,,,,,,,,,,a,1,"[""0.045"",""0.566"",""0.809"",""0.861""]","[0,1,1,1]",0,15,15,15,1,0,1,,,1,FALSE,0.5524,,,,,,,,,,,,,,,,,,,,,,,,,,,,,,
,605b543bff0f6972b545620c,001,2022-04-28_21h10.20.990,classification_task,2021.2.3,Win32,60.07810153,605b543bff0f6972b545620c,626b377229c10585ec392f89,626b3ac80363ef0f890967ee,,,,,,,,,,,,,,,,,,,,,,,a,1,"[""0.260"",""0.372"",""0.601"",""0.961""]","[1,1,0,1]",0,16,16,16,1,0,0,,,1,FALSE,2.5024,,,,,,,,,,,,,,,,,,,,,,,,,,,,,,
,605b543bff0f6972b545620c,001,2022-04-28_21h10.20.990,classification_task,2021.2.3,Win32,60.07810153,605b543bff0f6972b545620c,626b377229c10585ec392f89,626b3ac80363ef0f890967ee,,,,,,,,,,,,,,,,,,,,,,,a,1,"[""0.260"",""0.372"",""0.914"",""0.517""]","[1,1,1,0]",0,17,17,17,1,0,0,,,1,FALSE,1.4497,,,,,,,,,,,,,,,,,,,,,,,,,,,,,,
,605b543bff0f6972b545620c,001,2022-04-28_21h10.20.990,classification_task,2021.2.3,Win32,60.07810153,605b543bff0f6972b545620c,626b377229c10585ec392f89,626b3ac80363ef0f890967ee,,,,,,,,,,,,,,,,,,,,,,,l,1,"[""0.144"",""0.517"",""0.640"",""0.677""]","[1,0,1,1]",0,18,18,18,1,1,0,,,1,FALSE,0.7824,,,,,,,,,,,,,,,,,,,,,,,,,,,,,,
,605b543bff0f6972b545620c,001,2022-04-28_21h10.20.990,classification_task,2021.2.3,Win32,60.07810153,605b543bff0f6972b545620c,626b377229c10585ec392f89,626b3ac80363ef0f890967ee,,,,,,,,,,,,,,,,,,,,,,,l,1,"[""0.517"",""0.407"",""0.640"",""0.677""]","[0,1,1,1]",0,19,19,19,1,1,0,,,1,FALSE,0.6571,,,,,,,,,,,,,,,,,,,,,,,,,,,,,,
,605b543bff0f6972b545620c,001,2022-04-28_21h10.20.990,classification_task,2021.2.3,Win32,60.07810153,605b543bff0f6972b545620c,626b377229c10585ec392f89,626b3ac80363ef0f890967ee,,,,,,,,,,,,,,,,,,,,,,,a,1,"[""0.315"",""0.566"",""0.045"",""0.861""]","[1,1,0,1]",0,20,20,20,1,0,1,,,1,FALSE,1.2146,,,,,,,,,,,,,,,,,,,,,,,,,,,,,,
,605b543bff0f6972b545620c,001,2022-04-28_21h10.20.990,classification_task,2021.2.3,Win32,60.07810153,605b543bff0f6972b545620c,626b377229c10585ec392f89,626b3ac80363ef0f890967ee,,,,,,,,,,,,,,,,,,,,,,,a,1,"[""0.502"",""0.372"",""0.914"",""0.961""]","[0,1,1,1]",0,21,21,21,1,0,0,,,1,FALSE,1.4851,,,,,,,,,,,,,,,,,,,,,,,,,,,,,,
,605b543bff0f6972b545620c,001,2022-04-28_21h10.20.990,classification_task,2021.2.3,Win32,60.07810153,605b543bff0f6972b545620c,626b377229c10585ec392f89,626b3ac80363ef0f890967ee,,,,,,,,,,,,,,,,,,,,,,,a,1,"[""0.315"",""0.512"",""0.809"",""0.861""]","[1,0,1,1]",0,22,22,22,1,0,1,,,1,FALSE,0.664,,,,,,,,,,,,,,,,,,,,,,,,,,,,,,
,605b543bff0f6972b545620c,001,2022-04-28_21h10.20.990,classification_task,2021.2.3,Win32,60.07810153,605b543bff0f6972b545620c,626b377229c10585ec392f89,626b3ac80363ef0f890967ee,,,,,,,,,,,,,,,,,,,,,,,l,1,"[""0.144"",""0.407"",""0.640"",""0.025""]","[1,1,1,0]",0,23,23,23,1,1,0,,,1,FALSE,1.4331,,,,,,,,,,,,,,,,,,,,,,,,,,,,,,
,605b543bff0f6972b545620c,001,2022-04-28_21h10.20.990,classification_task,2021.2.3,Win32,60.07810153,605b543bff0f6972b545620c,626b377229c10585ec392f89,626b3ac80363ef0f890967ee,,,,,,,,,,,,,,,,,,,,,,,l,1,"[""0.080"",""0.200"",""0.457"",""0.515""]","[1,1,1,0]",0,24,24,24,1,1,1,,,1,FALSE,0.6001,,,,,,,,,,,,,,,,,,,,,,,,,,,,,,
,605b543bff0f6972b545620c,001,2022-04-28_21h10.20.990,classification_task,2021.2.3,Win32,60.07810153,605b543bff0f6972b545620c,626b377229c10585ec392f89,626b3ac80363ef0f890967ee,,,,,,,,,,,,,,,,,,,,,,,l,1,"[""0.144"",""0.407"",""0.601"",""0.677""]","[1,1,0,1]",0,25,25,25,1,1,0,,,1,FALSE,0.85,,,,,,,,,,,,,,,,,,,,,,,,,,,,,,
,605b543bff0f6972b545620c,001,2022-04-28_21h10.20.990,classification_task,2021.2.3,Win32,60.07810153,605b543bff0f6972b545620c,626b377229c10585ec392f89,626b3ac80363ef0f890967ee,,,,,,,,,,,,,,,,,,,,,,,l,1,"[""0.080"",""0.601"",""0.457"",""0.746""]","[1,0,1,1]",0,26,26,26,1,1,1,,,1,FALSE,0.7819,,,,,,,,,,,,,,,,,,,,,,,,,,,,,,
,605b543bff0f6972b545620c,001,2022-04-28_21h10.20.990,classification_task,2021.2.3,Win32,60.07810153,605b543bff0f6972b545620c,626b377229c10585ec392f89,626b3ac80363ef0f890967ee,,,,,,,,,,,,,,,,,,,,,,,l,1,"[""0.601"",""0.200"",""0.457"",""0.746""]","[0,1,1,1]",0,27,27,27,1,1,1,,,1,FALSE,0.451,,,,,,,,,,,,,,,,,,,,,,,,,,,,,,
,605b543bff0f6972b545620c,001,2022-04-28_21h10.20.990,classification_task,2021.2.3,Win32,60.07810153,605b543bff0f6972b545620c,626b377229c10585ec392f89,626b3ac80363ef0f890967ee,,,,,,,,,,,,,,,,,,,,,,,l,1,"[""0.080"",""0.200"",""0.607"",""0.746""]","[1,1,0,1]",0,28,28,28,1,1,1,,,1,FALSE,0.4219,,,,,,,,,,,,,,,,,,,,,,,,,,,,,,
,605b543bff0f6972b545620c,001,2022-04-28_21h10.20.990,classification_task,2021.2.3,Win32,60.07810153,605b543bff0f6972b545620c,626b377229c10585ec392f89,626b3ac80363ef0f890967ee,,,,,,,,,,,,,,,,,,,,,,,a,1,"[""0.260"",""0.523"",""0.914"",""0.961""]","[1,0,1,1]",0,29,29,29,1,0,0,,,1,FALSE,1.1148,,,,,,,,,,,,,,,,,,,,,,,,,,,,,,
,605b543bff0f6972b545620c,001,2022-04-28_21h10.20.990,classification_task,2021.2.3,Win32,60.07810153,605b543bff0f6972b545620c,626b377229c10585ec392f89,626b3ac80363ef0f890967ee,,,,,,,,,,,,,,,,,,,,,,,a,1,"[""0.315"",""0.566"",""0.809"",""0.502""]","[1,1,1,0]",0,30,30,30,1,0,1,,,1,FALSE,1.1696,,,,,,,,,,,,,,,,,,,,,,,,,,,,,,
,605b543bff0f6972b545620c,001,2022-04-28_21h10.20.990,classification_task,2021.2.3,Win32,60.07810153,605b543bff0f6972b545620c,626b377229c10585ec392f89,626b3ac80363ef0f890967ee,,,,,,,,,,,,,,,,,,,,,,,a,1,"[""0.601"",""0.566"",""0.809"",""0.861""]","[0,1,1,1]",0,31,31,31,1,0,1,,,1,FALSE,0.9315,,,,,,,,,,,,,,,,,,,,,,,,,,,,,,
,605b543bff0f6972b545620c,001,2022-04-28_21h10.20.990,classification_task,2021.2.3,Win32,60.07810153,605b543bff0f6972b545620c,626b377229c10585ec392f89,626b3ac80363ef0f890967ee,,,,,,,,,,,,,,,,,,,,,,,a,1,"[""0.260"",""0.372"",""0.517"",""0.961""]","[1,1,0,1]",0,32,32,32,1,0,0,,,1,FALSE,2.034,,,,,,,,,,,,,,,,,,,,,,,,,,,,,,
,605b543bff0f6972b545620c,001,2022-04-28_21h10.20.990,classification_task,2021.2.3,Win32,60.07810153,605b543bff0f6972b545620c,626b377229c10585ec392f89,626b3ac80363ef0f890967ee,,,,,,,,,,,,,,,,,,,,,,,l,1,"[""0.144"",""0.045"",""0.640"",""0.677""]","[1,0,1,1]",0,33,33,33,1,1,0,,,1,FALSE,1.1669,,,,,,,,,,,,,,,,,,,,,,,,,,,,,,
,605b543bff0f6972b545620c,001,2022-04-28_21h10.20.990,classification_task,2021.2.3,Win32,60.07810153,605b543bff0f6972b545620c,626b377229c10585ec392f89,626b3ac80363ef0f890967ee,,,,,,,,,,,,,,,,,,,,,,,a,1,"[""0.260"",""0.372"",""0.914"",""0.528""]","[1,1,1,0]",0,34,34,34,1,0,0,,,1,FALSE,1.6202,,,,,,,,,,,,,,,,,,,,,,,,,,,,,,
,605b543bff0f6972b545620c,001,2022-04-28_21h10.20.990,classification_task,2021.2.3,Win32,60.07810153,605b543bff0f6972b545620c,626b377229c10585ec392f89,626b3ac80363ef0f890967ee,,,,,,,,,,,,,,,,,,,,,,,l,1,"[""0.144"",""0.407"",""0.042"",""0.677""]","[1,1,0,1]",0,35,35,35,1,1,0,,,1,FALSE,0.7148,,,,,,,,,,,,,,,,,,,,,,,,,,,,,,
,605b543bff0f6972b545620c,001,2022-04-28_21h10.20.990,classification_task,2021.2.3,Win32,60.07810153,605b543bff0f6972b545620c,626b377229c10585ec392f89,626b3ac80363ef0f890967ee,,,,,,,,,,,,,,,,,,,,,,,a,1,"[""0.315"",""0.566"",""0.809"",""0.502""]","[1,1,1,0]",0,36,36,36,1,0,1,,,1,FALSE,1.0532,,,,,,,,,,,,,,,,,,,,,,,,,,,,,,
,605b543bff0f6972b545620c,001,2022-04-28_21h10.20.990,classification_task,2021.2.3,Win32,60.07810153,605b543bff0f6972b545620c,626b377229c10585ec392f89,626b3ac80363ef0f890967ee,,,,,,,,,,,,,,,,,,,,,,,l,1,"[""0.512"",""0.200"",""0.457"",""0.746""]","[0,1,1,1]",0,37,37,37,1,1,1,,,1,FALSE,0.5648,,,,,,,,,,,,,,,,,,,,,,,,,,,,,,
,605b543bff0f6972b545620c,001,2022-04-28_21h10.20.990,classification_task,2021.2.3,Win32,60.07810153,605b543bff0f6972b545620c,626b377229c10585ec392f89,626b3ac80363ef0f890967ee,,,,,,,,,,,,,,,,,,,,,,,l,1,"[""0.144"",""0.407"",""0.640"",""0.523""]","[1,1,1,0]",0,38,38,38,1,1,0,,,1,FALSE,1.5925,,,,,,,,,,,,,,,,,,,,,,,,,,,,,,
,605b543bff0f6972b545620c,001,2022-04-28_21h10.20.990,classification_task,2021.2.3,Win32,60.07810153,605b543bff0f6972b545620c,626b377229c10585ec392f89,626b3ac80363ef0f890967ee,,,,,,,,,,,,,,,,,,,,,,,a,1,"[""0.315"",""0.527"",""0.809"",""0.861""]","[1,0,1,1]",0,39,39,39,1,0,1,,,1,FALSE,0.8666,,,,,,,,,,,,,,,,,,,,,,,,,,,,,,
,605b543bff0f6972b545620c,001,2022-04-28_21h10.20.990,classification_task,2021.2.3,Win32,60.07810153,605b543bff0f6972b545620c,626b377229c10585ec392f89,626b3ac80363ef0f890967ee,,,,,,,,,,,,,,,,,,,,,,,a,1,"[""0.315"",""0.566"",""0.528"",""0.861""]","[1,1,0,1]",0,40,40,40,1,0,1,,,1,FALSE,0.4509,,,,,,,,,,,,,,,,,,,,,,,,,,,,,,
,605b543bff0f6972b545620c,001,2022-04-28_21h10.20.990,classification_task,2021.2.3,Win32,60.07810153,605b543bff0f6972b545620c,626b377229c10585ec392f89,626b3ac80363ef0f890967ee,,,,,,,,,,,,,,,,,,,,,,,l,1,"[""0.045"",""0.407"",""0.640"",""0.677""]","[0,1,1,1]",0,41,41,41,1,1,0,,,1,FALSE,1.0315,,,,,,,,,,,,,,,,,,,,,,,,,,,,,,
,605b543bff0f6972b545620c,001,2022-04-28_21h10.20.990,classification_task,2021.2.3,Win32,60.07810153,605b543bff0f6972b545620c,626b377229c10585ec392f89,626b3ac80363ef0f890967ee,,,,,,,,,,,,,,,,,,,,,,,a,1,"[""0.260"",""0.607"",""0.914"",""0.961""]","[1,0,1,1]",0,42,42,42,1,0,0,,,1,FALSE,4.5865,,,,,,,,,,,,,,,,,,,,,,,,,,,,,,
,605b543bff0f6972b545620c,001,2022-04-28_21h10.20.990,classification_task,2021.2.3,Win32,60.07810153,605b543bff0f6972b545620c,626b377229c10585ec392f89,626b3ac80363ef0f890967ee,,,,,,,,,,,,,,,,,,,,,,,l,1,"[""0.080"",""0.200"",""0.502"",""0.746""]","[1,1,0,1]",0,43,43,43,1,1,1,,,1,FALSE,0.9991,,,,,,,,,,,,,,,,,,,,,,,,,,,,,,
,605b543bff0f6972b545620c,001,2022-04-28_21h10.20.990,classification_task,2021.2.3,Win32,60.07810153,605b543bff0f6972b545620c,626b377229c10585ec392f89,626b3ac80363ef0f890967ee,,,,,,,,,,,,,,,,,,,,,,,l,1,"[""0.080"",""0.200"",""0.457"",""0.601""]","[1,1,1,0]",0,44,44,44,1,1,1,,,1,FALSE,0.5414,,,,,,,,,,,,,,,,,,,,,,,,,,,,,,
,605b543bff0f6972b545620c,001,2022-04-28_21h10.20.990,classification_task,2021.2.3,Win32,60.07810153,605b543bff0f6972b545620c,626b377229c10585ec392f89,626b3ac80363ef0f890967ee,,,,,,,,,,,,,,,,,,,,,,,l,1,"[""0.080"",""0.517"",""0.457"",""0.746""]","[1,0,1,1]",0,45,45,45,1,1,1,,,1,FALSE,0.5155,,,,,,,,,,,,,,,,,,,,,,,,,,,,,,
,605b543bff0f6972b545620c,001,2022-04-28_21h10.20.990,classification_task,2021.2.3,Win32,60.07810153,605b543bff0f6972b545620c,626b377229c10585ec392f89,626b3ac80363ef0f890967ee,,,,,,,,,,,,,,,,,,,,,,,a,1,"[""0.512"",""0.566"",""0.809"",""0.861""]","[0,1,1,1]",0,46,46,46,1,0,1,,,1,FALSE,0.6814,,,,,,,,,,,,,,,,,,,,,,,,,,,,,,
,605b543bff0f6972b545620c,001,2022-04-28_21h10.20.990,classification_task,2021.2.3,Win32,60.07810153,605b543bff0f6972b545620c,626b377229c10585ec392f89,626b3ac80363ef0f890967ee,,,,,,,,,,,,,,,,,,,,,,,a,1,"[""0.711"",""0.372"",""0.914"",""0.961""]","[0,1,1,1]",0,47,47,47,1,0,0,,,1,FALSE,4.0175,,,,,,,,,,,,,,,,,,,,,,,,,,,,,,
,605b543bff0f6972b545620c,001,2022-04-28_21h10.20.990,classification_task,2021.2.3,Win32,60.07810153,605b543bff0f6972b545620c,626b377229c10585ec392f89,626b3ac80363ef0f890967ee,,,,,,,,,,,,,,,,,,,,,,,l,1,"[""0.144"",""0.517"",""0.640"",""0.677""]","[1,0,1,1]",0,48,48,48,1,1,0,,,1,FALSE,0.9104,,,,,,,,,,,,,,,,,,,,,,,,,,,,,,
,605b543bff0f6972b545620c,001,2022-04-28_21h10.20.990,classification_task,2021.2.3,Win32,60.07810153,605b543bff0f6972b545620c,626b377229c10585ec392f89,626b3ac80363ef0f890967ee,,,,,,,,,,,,,,,,,,,,,,,l,1,"[""0.080"",""0.200"",""0.527"",""0.746""]","[1,1,0,1]",0,49,49,49,1,1,1,,,1,FALSE,0.8651,,,,,,,,,,,,,,,,,,,,,,,,,,,,,,
,605b543bff0f6972b545620c,001,2022-04-28_21h10.20.990,classification_task,2021.2.3,Win32,60.07810153,605b543bff0f6972b545620c,626b377229c10585ec392f89,626b3ac80363ef0f890967ee,,,,,,,,,,,,,,,,,,,,,,,l,0,"[""0.260"",""0.372"",""0.914"",""0.711""]","[1,1,1,0]",0,50,50,50,1,0,0,,,1,FALSE,1.3848,,,,,,,,,,,,,,,,,,,,,,,,,,,,,,
,605b543bff0f6972b545620c,001,2022-04-28_21h10.20.990,classification_task,2021.2.3,Win32,60.07810153,605b543bff0f6972b545620c,626b377229c10585ec392f89,626b3ac80363ef0f890967ee,,,,,,,,,,,,,,,,,,,,,,,l,1,"[""0.601"",""0.200"",""0.457"",""0.746""]","[0,1,1,1]",0,51,51,51,1,1,1,,,1,FALSE,0.7133,,,,,,,,,,,,,,,,,,,,,,,,,,,,,,
,605b543bff0f6972b545620c,001,2022-04-28_21h10.20.990,classification_task,2021.2.3,Win32,60.07810153,605b543bff0f6972b545620c,626b377229c10585ec392f89,626b3ac80363ef0f890967ee,,,,,,,,,,,,,,,,,,,,,,,a,1,"[""0.260"",""0.509"",""0.914"",""0.961""]","[1,0,1,1]",0,52,52,52,1,0,0,,,1,FALSE,1.5429,,,,,,,,,,,,,,,,,,,,,,,,,,,,,,
,605b543bff0f6972b545620c,001,2022-04-28_21h10.20.990,classification_task,2021.2.3,Win32,60.07810153,605b543bff0f6972b545620c,626b377229c10585ec392f89,626b3ac80363ef0f890967ee,,,,,,,,,,,,,,,,,,,,,,,l,1,"[""0.144"",""0.407"",""0.523"",""0.677""]","[1,1,0,1]",0,53,53,53,1,1,0,,,1,FALSE,0.7088,,,,,,,,,,,,,,,,,,,,,,,,,,,,,,
,605b543bff0f6972b545620c,001,2022-04-28_21h10.20.990,classification_task,2021.2.3,Win32,60.07810153,605b543bff0f6972b545620c,626b377229c10585ec392f89,626b3ac80363ef0f890967ee,,,,,,,,,,,,,,,,,,,,,,,a,1,"[""0.260"",""0.372"",""0.025"",""0.961""]","[1,1,0,1]",0,54,54,54,1,0,0,,,1,FALSE,1.4983,,,,,,,,,,,,,,,,,,,,,,,,,,,,,,
,605b543bff0f6972b545620c,001,2022-04-28_21h10.20.990,classification_task,2021.2.3,Win32,60.07810153,605b543bff0f6972b545620c,626b377229c10585ec392f89,626b3ac80363ef0f890967ee,,,,,,,,,,,,,,,,,,,,,,,a,1,"[""0.601"",""0.566"",""0.809"",""0.861""]","[0,1,1,1]",0,55,55,55,1,0,1,,,1,FALSE,1.0384,,,,,,,,,,,,,,,,,,,,,,,,,,,,,,
,605b543bff0f6972b545620c,001,2022-04-28_21h10.20.990,classification_task,2021.2.3,Win32,60.07810153,605b543bff0f6972b545620c,626b377229c10585ec392f89,626b3ac80363ef0f890967ee,,,,,,,,,,,,,,,,,,,,,,,l,1,"[""0.080"",""0.042"",""0.457"",""0.746""]","[1,0,1,1]",0,56,56,56,1,1,1,,,1,FALSE,0.5834,,,,,,,,,,,,,,,,,,,,,,,,,,,,,,
,605b543bff0f6972b545620c,001,2022-04-28_21h10.20.990,classification_task,2021.2.3,Win32,60.07810153,605b543bff0f6972b545620c,626b377229c10585ec392f89,626b3ac80363ef0f890967ee,,,,,,,,,,,,,,,,,,,,,,,a,1,"[""0.315"",""0.566"",""0.509"",""0.861""]","[1,1,0,1]",0,57,57,57,1,0,1,,,1,FALSE,0.6867,,,,,,,,,,,,,,,,,,,,,,,,,,,,,,
,605b543bff0f6972b545620c,001,2022-04-28_21h10.20.990,classification_task,2021.2.3,Win32,60.07810153,605b543bff0f6972b545620c,626b377229c10585ec392f89,626b3ac80363ef0f890967ee,,,,,,,,,,,,,,,,,,,,,,,a,1,"[""0.315"",""0.528"",""0.809"",""0.861""]","[1,0,1,1]",0,58,58,58,1,0,1,,,1,FALSE,0.4818,,,,,,,,,,,,,,,,,,,,,,,,,,,,,,
,605b543bff0f6972b545620c,001,2022-04-28_21h10.20.990,classification_task,2021.2.3,Win32,60.07810153,605b543bff0f6972b545620c,626b377229c10585ec392f89,626b3ac80363ef0f890967ee,,,,,,,,,,,,,,,,,,,,,,,l,1,"[""0.144"",""0.407"",""0.640"",""0.523""]","[1,1,1,0]",0,59,59,59,1,1,0,,,1,FALSE,1.1983,,,,,,,,,,,,,,,,,,,,,,,,,,,,,,
,605b543bff0f6972b545620c,001,2022-04-28_21h10.20.990,classification_task,2021.2.3,Win32,60.07810153,605b543bff0f6972b545620c,626b377229c10585ec392f89,626b3ac80363ef0f890967ee,,,,,,,,,,,,,,,,,,,,,,,l,1,"[""0.045"",""0.407"",""0.640"",""0.677""]","[0,1,1,1]",0,60,60,60,1,1,0,,,1,FALSE,0.8715,,,,,,,,,,,,,,,,,,,,,,,,,,,,,,
,605b543bff0f6972b545620c,001,2022-04-28_21h10.20.990,classification_task,2021.2.3,Win32,60.07810153,605b543bff0f6972b545620c,626b377229c10585ec392f89,626b3ac80363ef0f890967ee,,,,,,,,,,,,,,,,,,,,,,,l,1,"[""0.080"",""0.200"",""0.457"",""0.517""]","[1,1,1,0]",0,61,61,61,1,1,1,,,1,FALSE,1.094,,,,,,,,,,,,,,,,,,,,,,,,,,,,,,
,605b543bff0f6972b545620c,001,2022-04-28_21h10.20.990,classification_task,2021.2.3,Win32,60.07810153,605b543bff0f6972b545620c,626b377229c10585ec392f89,626b3ac80363ef0f890967ee,,,,,,,,,,,,,,,,,,,,,,,a,1,"[""0.315"",""0.566"",""0.809"",""0.517""]","[1,1,1,0]",0,62,62,62,1,0,1,,,1,FALSE,0.6151,,,,,,,,,,,,,,,,,,,,,,,,,,,,,,
,605b543bff0f6972b545620c,001,2022-04-28_21h10.20.990,classification_task,2021.2.3,Win32,60.07810153,605b543bff0f6972b545620c,626b377229c10585ec392f89,626b3ac80363ef0f890967ee,,,,,,,,,,,,,,,,,,,,,,,a,1,"[""0.601"",""0.372"",""0.914"",""0.961""]","[0,1,1,1]",0,63,63,63,1,0,0,,,1,FALSE,1.4086,,,,,,,,,,,,,,,,,,,,,,,,,,,,,,
,605b543bff0f6972b545620c,001,2022-04-28_21h10.20.990,classification_task,2021.2.3,Win32,60.07810153,605b543bff0f6972b545620c,626b377229c10585ec392f89,626b3ac80363ef0f890967ee,,,,,,,,,,,,,,,,,,,,,,,,,,,,,,,,,,,,,,,0, ,,0,0,172.7538,0,1,1,1,1,2,2,,,,,,,,,,,,,,,,,
,605b543bff0f6972b545620c,001,2022-04-28_21h10.20.990,classification_task,2021.2.3,Win32,60.07810153,605b543bff0f6972b545620c,626b377229c10585ec392f89,626b3ac80363ef0f890967ee,,,,,,,,,,,,,,,,,,,,,,,,,,,,,,,,,,,,,,,1,  ,,0,6.059426949,177.6994,0,1,1,1,1,2,2,,,,,,,,,,,,,,,,,
,605b543bff0f6972b545620c,001,2022-04-28_21h10.20.990,classification_task,2021.2.3,Win32,60.07810153,605b543bff0f6972b545620c,626b377229c10585ec392f89,626b3ac80363ef0f890967ee,,,,,,,,,,,,,,,,,,,,,,,,,,,,,,,,,,,,,,,2,  ,,0,4.271262377,181.0021,0,1,1,1,1,2,2,,,,,,,,,,,,,,,,,
,605b543bff0f6972b545620c,001,2022-04-28_21h10.20.990,classification_task,2021.2.3,Win32,60.07810153,605b543bff0f6972b545620c,626b377229c10585ec392f89,626b3ac80363ef0f890967ee,,,,,,,,,,,,,,,,,,,,,,,,,,,,,,,,,,,,,,,,,,,,,0,1,1,1,1,,2,,,,,,,,,,,,,,,,,
,605b543bff0f6972b545620c,001,2022-04-28_21h10.20.990,classification_task,2021.2.3,Win32,60.07810153,605b543bff0f6972b545620c,626b377229c10585ec392f89,626b3ac80363ef0f890967ee,,,,,,,,,,,,,,,,,,,,,space,9.19,a,1,"[""0.315"",""0.566"",""0.025"",""0.861""]","[1,1,0,1]",0,0,0,0,1,0,1,,,1,FALSE,2.5978,,,,,,,,,,,,,,,,,,,,,,,,,,,,,,
,605b543bff0f6972b545620c,001,2022-04-28_21h10.20.990,classification_task,2021.2.3,Win32,60.07810153,605b543bff0f6972b545620c,626b377229c10585ec392f89,626b3ac80363ef0f890967ee,,,,,,,,,,,,,,,,,,,,,,,l,1,"[""0.144"",""0.407"",""0.528"",""0.677""]","[1,1,0,1]",0,1,1,1,1,1,0,,,1,FALSE,2.3481,,,,,,,,,,,,,,,,,,,,,,,,,,,,,,
,605b543bff0f6972b545620c,001,2022-04-28_21h10.20.990,classification_task,2021.2.3,Win32,60.07810153,605b543bff0f6972b545620c,626b377229c10585ec392f89,626b3ac80363ef0f890967ee,,,,,,,,,,,,,,,,,,,,,,,a,0,"[""0.080"",""0.502"",""0.457"",""0.746""]","[1,0,1,1]",0,2,2,2,1,1,1,,,1,FALSE,3.186,,,,,,,,,,,,,,,,,,,,,,,,,,,,,,
,605b543bff0f6972b545620c,001,2022-04-28_21h10.20.990,classification_task,2021.2.3,Win32,60.07810153,605b543bff0f6972b545620c,626b377229c10585ec392f89,626b3ac80363ef0f890967ee,,,,,,,,,,,,,,,,,,,,,,,l,1,"[""0.144"",""0.515"",""0.640"",""0.677""]","[1,0,1,1]",0,3,3,3,1,1,0,,,1,FALSE,0.8009,,,,,,,,,,,,,,,,,,,,,,,,,,,,,,
,605b543bff0f6972b545620c,001,2022-04-28_21h10.20.990,classification_task,2021.2.3,Win32,60.07810153,605b543bff0f6972b545620c,626b377229c10585ec392f89,626b3ac80363ef0f890967ee,,,,,,,,,,,,,,,,,,,,,,,a,0,"[""0.080"",""0.200"",""0.457"",""0.045""]","[1,1,1,0]",0,4,4,4,1,1,1,,,1,FALSE,1.0854,,,,,,,,,,,,,,,,,,,,,,,,,,,,,,
,605b543bff0f6972b545620c,001,2022-04-28_21h10.20.990,classification_task,2021.2.3,Win32,60.07810153,605b543bff0f6972b545620c,626b377229c10585ec392f89,626b3ac80363ef0f890967ee,,,,,,,,,,,,,,,,,,,,,,,l,1,"[""0.080"",""0.200"",""0.512"",""0.746""]","[1,1,0,1]",0,5,5,5,1,1,1,,,1,FALSE,3.7534,,,,,,,,,,,,,,,,,,,,,,,,,,,,,,
,605b543bff0f6972b545620c,001,2022-04-28_21h10.20.990,classification_task,2021.2.3,Win32,60.07810153,605b543bff0f6972b545620c,626b377229c10585ec392f89,626b3ac80363ef0f890967ee,,,,,,,,,,,,,,,,,,,,,,,a,1,"[""0.260"",""0.372"",""0.914"",""0.523""]","[1,1,1,0]",0,6,6,6,1,0,0,,,1,FALSE,2.5466,,,,,,,,,,,,,,,,,,,,,,,,,,,,,,
,605b543bff0f6972b545620c,001,2022-04-28_21h10.20.990,classification_task,2021.2.3,Win32,60.07810153,605b543bff0f6972b545620c,626b377229c10585ec392f89,626b3ac80363ef0f890967ee,,,,,,,,,,,,,,,,,,,,,,,l,1,"[""0.601"",""0.407"",""0.640"",""0.677""]","[0,1,1,1]",0,7,7,7,1,1,0,,,1,FALSE,1.0969,,,,,,,,,,,,,,,,,,,,,,,,,,,,,,
,605b543bff0f6972b545620c,001,2022-04-28_21h10.20.990,classification_task,2021.2.3,Win32,60.07810153,605b543bff0f6972b545620c,626b377229c10585ec392f89,626b3ac80363ef0f890967ee,,,,,,,,,,,,,,,,,,,,,,,a,1,"[""0.607"",""0.372"",""0.914"",""0.961""]","[0,1,1,1]",0,8,8,8,1,0,0,,,1,FALSE,3.0632,,,,,,,,,,,,,,,,,,,,,,,,,,,,,,
,605b543bff0f6972b545620c,001,2022-04-28_21h10.20.990,classification_task,2021.2.3,Win32,60.07810153,605b543bff0f6972b545620c,626b377229c10585ec392f89,626b3ac80363ef0f890967ee,,,,,,,,,,,,,,,,,,,,,,,a,1,"[""0.260"",""0.495"",""0.914"",""0.961""]","[1,0,1,1]",0,9,9,9,1,0,0,,,1,FALSE,1.1803,,,,,,,,,,,,,,,,,,,,,,,,,,,,,,
,605b543bff0f6972b545620c,001,2022-04-28_21h10.20.990,classification_task,2021.2.3,Win32,60.07810153,605b543bff0f6972b545620c,626b377229c10585ec392f89,626b3ac80363ef0f890967ee,,,,,,,,,,,,,,,,,,,,,,,a,0,"[""0.527"",""0.200"",""0.457"",""0.746""]","[0,1,1,1]",0,10,10,10,1,1,1,,,1,FALSE,2.8134,,,,,,,,,,,,,,,,,,,,,,,,,,,,,,
,605b543bff0f6972b545620c,001,2022-04-28_21h10.20.990,classification_task,2021.2.3,Win32,60.07810153,605b543bff0f6972b545620c,626b377229c10585ec392f89,626b3ac80363ef0f890967ee,,,,,,,,,,,,,,,,,,,,,,,a,1,"[""0.601"",""0.566"",""0.809"",""0.861""]","[0,1,1,1]",0,11,11,11,1,0,1,,,1,FALSE,1.3426,,,,,,,,,,,,,,,,,,,,,,,,,,,,,,
,605b543bff0f6972b545620c,001,2022-04-28_21h10.20.990,classification_task,2021.2.3,Win32,60.07810153,605b543bff0f6972b545620c,626b377229c10585ec392f89,626b3ac80363ef0f890967ee,,,,,,,,,,,,,,,,,,,,,,,a,1,"[""0.260"",""0.372"",""0.607"",""0.961""]","[1,1,0,1]",0,12,12,12,1,0,0,,,1,FALSE,0.9853,,,,,,,,,,,,,,,,,,,,,,,,,,,,,,
,605b543bff0f6972b545620c,001,2022-04-28_21h10.20.990,classification_task,2021.2.3,Win32,60.07810153,605b543bff0f6972b545620c,626b377229c10585ec392f89,626b3ac80363ef0f890967ee,,,,,,,,,,,,,,,,,,,,,,,a,1,"[""0.315"",""0.566"",""0.809"",""0.045""]","[1,1,1,0]",0,13,13,13,1,0,1,,,1,FALSE,1.2165,,,,,,,,,,,,,,,,,,,,,,,,,,,,,,
,605b543bff0f6972b545620c,001,2022-04-28_21h10.20.990,classification_task,2021.2.3,Win32,60.07810153,605b543bff0f6972b545620c,626b377229c10585ec392f89,626b3ac80363ef0f890967ee,,,,,,,,,,,,,,,,,,,,,,,a,1,"[""0.315"",""0.045"",""0.809"",""0.861""]","[1,0,1,1]",0,14,14,14,1,0,1,,,1,FALSE,1.4817,,,,,,,,,,,,,,,,,,,,,,,,,,,,,,
,605b543bff0f6972b545620c,001,2022-04-28_21h10.20.990,classification_task,2021.2.3,Win32,60.07810153,605b543bff0f6972b545620c,626b377229c10585ec392f89,626b3ac80363ef0f890967ee,,,,,,,,,,,,,,,,,,,,,,,l,1,"[""0.144"",""0.407"",""0.640"",""0.528""]","[1,1,1,0]",0,15,15,15,1,1,0,,,1,FALSE,0.9218,,,,,,,,,,,,,,,,,,,,,,,,,,,,,,
,605b543bff0f6972b545620c,001,2022-04-28_21h10.20.990,classification_task,2021.2.3,Win32,60.07810153,605b543bff0f6972b545620c,626b377229c10585ec392f89,626b3ac80363ef0f890967ee,,,,,,,,,,,,,,,,,,,,,,,a,1,"[""0.315"",""0.566"",""0.809"",""0.523""]","[1,1,1,0]",0,16,16,16,1,0,1,,,1,FALSE,2.0643,,,,,,,,,,,,,,,,,,,,,,,,,,,,,,
,605b543bff0f6972b545620c,001,2022-04-28_21h10.20.990,classification_task,2021.2.3,Win32,60.07810153,605b543bff0f6972b545620c,626b377229c10585ec392f89,626b3ac80363ef0f890967ee,,,,,,,,,,,,,,,,,,,,,,,a,1,"[""0.260"",""0.515"",""0.914"",""0.961""]","[1,0,1,1]",0,17,17,17,1,0,0,,,1,FALSE,1.5017,,,,,,,,,,,,,,,,,,,,,,,,,,,,,,
,605b543bff0f6972b545620c,001,2022-04-28_21h10.20.990,classification_task,2021.2.3,Win32,60.07810153,605b543bff0f6972b545620c,626b377229c10585ec392f89,626b3ac80363ef0f890967ee,,,,,,,,,,,,,,,,,,,,,,,a,1,"[""0.042"",""0.372"",""0.914"",""0.961""]","[0,1,1,1]",0,18,18,18,1,0,0,,,1,FALSE,2.4328,,,,,,,,,,,,,,,,,,,,,,,,,,,,,,
,605b543bff0f6972b545620c,001,2022-04-28_21h10.20.990,classification_task,2021.2.3,Win32,60.07810153,605b543bff0f6972b545620c,626b377229c10585ec392f89,626b3ac80363ef0f890967ee,,,,,,,,,,,,,,,,,,,,,,,a,1,"[""0.512"",""0.566"",""0.809"",""0.861""]","[0,1,1,1]",0,19,19,19,1,0,1,,,1,FALSE,1.9164,,,,,,,,,,,,,,,,,,,,,,,,,,,,,,
,605b543bff0f6972b545620c,001,2022-04-28_21h10.20.990,classification_task,2021.2.3,Win32,60.07810153,605b543bff0f6972b545620c,626b377229c10585ec392f89,626b3ac80363ef0f890967ee,,,,,,,,,,,,,,,,,,,,,,,a,0,"[""0.080"",""0.200"",""0.457"",""0.509""]","[1,1,1,0]",0,20,20,20,1,1,1,,,1,FALSE,1.8721,,,,,,,,,,,,,,,,,,,,,,,,,,,,,,
,605b543bff0f6972b545620c,001,2022-04-28_21h10.20.990,classification_task,2021.2.3,Win32,60.07810153,605b543bff0f6972b545620c,626b377229c10585ec392f89,626b3ac80363ef0f890967ee,,,,,,,,,,,,,,,,,,,,,,,a,1,"[""0.260"",""0.372"",""0.042"",""0.961""]","[1,1,0,1]",0,21,21,21,1,0,0,,,1,FALSE,3.0652,,,,,,,,,,,,,,,,,,,,,,,,,,,,,,
,605b543bff0f6972b545620c,001,2022-04-28_21h10.20.990,classification_task,2021.2.3,Win32,60.07810153,605b543bff0f6972b545620c,626b377229c10585ec392f89,626b3ac80363ef0f890967ee,,,,,,,,,,,,,,,,,,,,,,,a,0,"[""0.495"",""0.200"",""0.457"",""0.746""]","[0,1,1,1]",0,22,22,22,1,1,1,,,1,FALSE,1.1715,,,,,,,,,,,,,,,,,,,,,,,,,,,,,,
,605b543bff0f6972b545620c,001,2022-04-28_21h10.20.990,classification_task,2021.2.3,Win32,60.07810153,605b543bff0f6972b545620c,626b377229c10585ec392f89,626b3ac80363ef0f890967ee,,,,,,,,,,,,,,,,,,,,,,,l,1,"[""0.144"",""0.407"",""0.640"",""0.502""]","[1,1,1,0]",0,23,23,23,1,1,0,,,1,FALSE,0.9317,,,,,,,,,,,,,,,,,,,,,,,,,,,,,,
,605b543bff0f6972b545620c,001,2022-04-28_21h10.20.990,classification_task,2021.2.3,Win32,60.07810153,605b543bff0f6972b545620c,626b377229c10585ec392f89,626b3ac80363ef0f890967ee,,,,,,,,,,,,,,,,,,,,,,,l,1,"[""0.144"",""0.407"",""0.042"",""0.677""]","[1,1,0,1]",0,24,24,24,1,1,0,,,1,FALSE,1.3348,,,,,,,,,,,,,,,,,,,,,,,,,,,,,,
,605b543bff0f6972b545620c,001,2022-04-28_21h10.20.990,classification_task,2021.2.3,Win32,60.07810153,605b543bff0f6972b545620c,626b377229c10585ec392f89,626b3ac80363ef0f890967ee,,,,,,,,,,,,,,,,,,,,,,,l,1,"[""0.509"",""0.407"",""0.640"",""0.677""]","[0,1,1,1]",0,25,25,25,1,1,0,,,1,FALSE,0.8331,,,,,,,,,,,,,,,,,,,,,,,,,,,,,,
,605b543bff0f6972b545620c,001,2022-04-28_21h10.20.990,classification_task,2021.2.3,Win32,60.07810153,605b543bff0f6972b545620c,626b377229c10585ec392f89,626b3ac80363ef0f890967ee,,,,,,,,,,,,,,,,,,,,,,,a,0,"[""0.080"",""0.042"",""0.457"",""0.746""]","[1,0,1,1]",0,26,26,26,1,1,1,,,1,FALSE,2.6327,,,,,,,,,,,,,,,,,,,,,,,,,,,,,,
,605b543bff0f6972b545620c,001,2022-04-28_21h10.20.990,classification_task,2021.2.3,Win32,60.07810153,605b543bff0f6972b545620c,626b377229c10585ec392f89,626b3ac80363ef0f890967ee,,,,,,,,,,,,,,,,,,,,,,,l,0,"[""0.315"",""0.711"",""0.809"",""0.861""]","[1,0,1,1]",0,27,27,27,1,0,1,,,1,FALSE,2.1473,,,,,,,,,,,,,,,,,,,,,,,,,,,,,,
,605b543bff0f6972b545620c,001,2022-04-28_21h10.20.990,classification_task,2021.2.3,Win32,60.07810153,605b543bff0f6972b545620c,626b377229c10585ec392f89,626b3ac80363ef0f890967ee,,,,,,,,,,,,,,,,,,,,,,,l,1,"[""0.080"",""0.200"",""0.515"",""0.746""]","[1,1,0,1]",0,28,28,28,1,1,1,,,1,FALSE,2.2553,,,,,,,,,,,,,,,,,,,,,,,,,,,,,,
,605b543bff0f6972b545620c,001,2022-04-28_21h10.20.990,classification_task,2021.2.3,Win32,60.07810153,605b543bff0f6972b545620c,626b377229c10585ec392f89,626b3ac80363ef0f890967ee,,,,,,,,,,,,,,,,,,,,,,,l,1,"[""0.144"",""0.515"",""0.640"",""0.677""]","[1,0,1,1]",0,29,29,29,1,1,0,,,1,FALSE,0.8163,,,,,,,,,,,,,,,,,,,,,,,,,,,,,,
,605b543bff0f6972b545620c,001,2022-04-28_21h10.20.990,classification_task,2021.2.3,Win32,60.07810153,605b543bff0f6972b545620c,626b377229c10585ec392f89,626b3ac80363ef0f890967ee,,,,,,,,,,,,,,,,,,,,,,,a,1,"[""0.260"",""0.372"",""0.914"",""0.042""]","[1,1,1,0]",0,30,30,30,1,0,0,,,1,FALSE,0.7337,,,,,,,,,,,,,,,,,,,,,,,,,,,,,,
,605b543bff0f6972b545620c,001,2022-04-28_21h10.20.990,classification_task,2021.2.3,Win32,60.07810153,605b543bff0f6972b545620c,626b377229c10585ec392f89,626b3ac80363ef0f890967ee,,,,,,,,,,,,,,,,,,,,,,,a,1,"[""0.315"",""0.566"",""0.045"",""0.861""]","[1,1,0,1]",0,31,31,31,1,0,1,,,1,FALSE,2.3994,,,,,,,,,,,,,,,,,,,,,,,,,,,,,,
,605b543bff0f6972b545620c,001,2022-04-28_21h10.20.990,classification_task,2021.2.3,Win32,60.07810153,605b543bff0f6972b545620c,626b377229c10585ec392f89,626b3ac80363ef0f890967ee,,,,,,,,,,,,,,,,,,,,,,,a,1,"[""0.315"",""0.515"",""0.809"",""0.861""]","[1,0,1,1]",0,32,32,32,1,0,1,,,1,FALSE,1.0483,,,,,,,,,,,,,,,,,,,,,,,,,,,,,,
,605b543bff0f6972b545620c,001,2022-04-28_21h10.20.990,classification_task,2021.2.3,Win32,60.07810153,605b543bff0f6972b545620c,626b377229c10585ec392f89,626b3ac80363ef0f890967ee,,,,,,,,,,,,,,,,,,,,,,,l,1,"[""0.144"",""0.042"",""0.640"",""0.677""]","[1,0,1,1]",0,33,33,33,1,1,0,,,1,FALSE,0.7515,,,,,,,,,,,,,,,,,,,,,,,,,,,,,,
,605b543bff0f6972b545620c,001,2022-04-28_21h10.20.990,classification_task,2021.2.3,Win32,60.07810153,605b543bff0f6972b545620c,626b377229c10585ec392f89,626b3ac80363ef0f890967ee,,,,,,,,,,,,,,,,,,,,,,,a,1,"[""0.315"",""0.566"",""0.528"",""0.861""]","[1,1,0,1]",0,34,34,34,1,0,1,,,1,FALSE,1.0095,,,,,,,,,,,,,,,,,,,,,,,,,,,,,,
,605b543bff0f6972b545620c,001,2022-04-28_21h10.20.990,classification_task,2021.2.3,Win32,60.07810153,605b543bff0f6972b545620c,626b377229c10585ec392f89,626b3ac80363ef0f890967ee,,,,,,,,,,,,,,,,,,,,,,,l,1,"[""0.711"",""0.407"",""0.640"",""0.677""]","[0,1,1,1]",0,35,35,35,1,1,0,,,1,FALSE,0.7002,,,,,,,,,,,,,,,,,,,,,,,,,,,,,,
,605b543bff0f6972b545620c,001,2022-04-28_21h10.20.990,classification_task,2021.2.3,Win32,60.07810153,605b543bff0f6972b545620c,626b377229c10585ec392f89,626b3ac80363ef0f890967ee,,,,,,,,,,,,,,,,,,,,,,,a,1,"[""0.260"",""0.372"",""0.601"",""0.961""]","[1,1,0,1]",0,36,36,36,1,0,0,,,1,FALSE,1.2665,,,,,,,,,,,,,,,,,,,,,,,,,,,,,,
,605b543bff0f6972b545620c,001,2022-04-28_21h10.20.990,classification_task,2021.2.3,Win32,60.07810153,605b543bff0f6972b545620c,626b377229c10585ec392f89,626b3ac80363ef0f890967ee,,,,,,,,,,,,,,,,,,,,,,,a,1,"[""0.315"",""0.566"",""0.809"",""0.515""]","[1,1,1,0]",0,37,37,37,1,0,1,,,1,FALSE,0.865,,,,,,,,,,,,,,,,,,,,,,,,,,,,,,
,605b543bff0f6972b545620c,001,2022-04-28_21h10.20.990,classification_task,2021.2.3,Win32,60.07810153,605b543bff0f6972b545620c,626b377229c10585ec392f89,626b3ac80363ef0f890967ee,,,,,,,,,,,,,,,,,,,,,,,a,1,"[""0.517"",""0.372"",""0.914"",""0.961""]","[0,1,1,1]",0,38,38,38,1,0,0,,,1,FALSE,3.5491,,,,,,,,,,,,,,,,,,,,,,,,,,,,,,
,605b543bff0f6972b545620c,001,2022-04-28_21h10.20.990,classification_task,2021.2.3,Win32,60.07810153,605b543bff0f6972b545620c,626b377229c10585ec392f89,626b3ac80363ef0f890967ee,,,,,,,,,,,,,,,,,,,,,,,a,1,"[""0.260"",""0.495"",""0.914"",""0.961""]","[1,0,1,1]",0,39,39,39,1,0,0,,,1,FALSE,1.9479,,,,,,,,,,,,,,,,,,,,,,,,,,,,,,
,605b543bff0f6972b545620c,001,2022-04-28_21h10.20.990,classification_task,2021.2.3,Win32,60.07810153,605b543bff0f6972b545620c,626b377229c10585ec392f89,626b3ac80363ef0f890967ee,,,,,,,,,,,,,,,,,,,,,,,l,1,"[""0.144"",""0.407"",""0.509"",""0.677""]","[1,1,0,1]",0,40,40,40,1,1,0,,,1,FALSE,0.6518,,,,,,,,,,,,,,,,,,,,,,,,,,,,,,
,605b543bff0f6972b545620c,001,2022-04-28_21h10.20.990,classification_task,2021.2.3,Win32,60.07810153,605b543bff0f6972b545620c,626b377229c10585ec392f89,626b3ac80363ef0f890967ee,,,,,,,,,,,,,,,,,,,,,,,l,1,"[""0.144"",""0.407"",""0.640"",""0.517""]","[1,1,1,0]",0,41,41,41,1,1,0,,,1,FALSE,1.3271,,,,,,,,,,,,,,,,,,,,,,,,,,,,,,
,605b543bff0f6972b545620c,001,2022-04-28_21h10.20.990,classification_task,2021.2.3,Win32,60.07810153,605b543bff0f6972b545620c,626b377229c10585ec392f89,626b3ac80363ef0f890967ee,,,,,,,,,,,,,,,,,,,,,,,a,0,"[""0.512"",""0.200"",""0.457"",""0.746""]","[0,1,1,1]",0,42,42,42,1,1,1,,,1,FALSE,1.5852,,,,,,,,,,,,,,,,,,,,,,,,,,,,,,
,605b543bff0f6972b545620c,001,2022-04-28_21h10.20.990,classification_task,2021.2.3,Win32,60.07810153,605b543bff0f6972b545620c,626b377229c10585ec392f89,626b3ac80363ef0f890967ee,,,,,,,,,,,,,,,,,,,,,,,a,1,"[""0.601"",""0.566"",""0.809"",""0.861""]","[0,1,1,1]",0,43,43,43,1,0,1,,,1,FALSE,1.468,,,,,,,,,,,,,,,,,,,,,,,,,,,,,,
,605b543bff0f6972b545620c,001,2022-04-28_21h10.20.990,classification_task,2021.2.3,Win32,60.07810153,605b543bff0f6972b545620c,626b377229c10585ec392f89,626b3ac80363ef0f890967ee,,,,,,,,,,,,,,,,,,,,,,,a,0,"[""0.080"",""0.200"",""0.457"",""0.025""]","[1,1,1,0]",0,44,44,44,1,1,1,,,1,FALSE,1.3353,,,,,,,,,,,,,,,,,,,,,,,,,,,,,,
,605b543bff0f6972b545620c,001,2022-04-28_21h10.20.990,classification_task,2021.2.3,Win32,60.07810153,605b543bff0f6972b545620c,626b377229c10585ec392f89,626b3ac80363ef0f890967ee,,,,,,,,,,,,,,,,,,,,,,,l,1,"[""0.080"",""0.200"",""0.512"",""0.746""]","[1,1,0,1]",0,45,45,45,1,1,1,,,1,FALSE,2.4952,,,,,,,,,,,,,,,,,,,,,,,,,,,,,,
,605b543bff0f6972b545620c,001,2022-04-28_21h10.20.990,classification_task,2021.2.3,Win32,60.07810153,605b543bff0f6972b545620c,626b377229c10585ec392f89,626b3ac80363ef0f890967ee,,,,,,,,,,,,,,,,,,,,,,,a,1,"[""0.260"",""0.372"",""0.914"",""0.523""]","[1,1,1,0]",0,46,46,46,1,0,0,,,1,FALSE,0.9197,,,,,,,,,,,,,,,,,,,,,,,,,,,,,,
,605b543bff0f6972b545620c,001,2022-04-28_21h10.20.990,classification_task,2021.2.3,Win32,60.07810153,605b543bff0f6972b545620c,626b377229c10585ec392f89,626b3ac80363ef0f890967ee,,,,,,,,,,,,,,,,,,,,,,,a,0,"[""0.080"",""0.495"",""0.457"",""0.746""]","[1,0,1,1]",0,47,47,47,1,1,1,,,1,FALSE,1.165,,,,,,,,,,,,,,,,,,,,,,,,,,,,,,
,605b543bff0f6972b545620c,001,2022-04-28_21h10.20.990,classification_task,2021.2.3,Win32,60.07810153,605b543bff0f6972b545620c,626b377229c10585ec392f89,626b3ac80363ef0f890967ee,,,,,,,,,,,,,,,,,,,,,,,a,1,"[""0.315"",""0.566"",""0.809"",""0.515""]","[1,1,1,0]",0,48,48,48,1,0,1,,,1,FALSE,1.0675,,,,,,,,,,,,,,,,,,,,,,,,,,,,,,
,605b543bff0f6972b545620c,001,2022-04-28_21h10.20.990,classification_task,2021.2.3,Win32,60.07810153,605b543bff0f6972b545620c,626b377229c10585ec392f89,626b3ac80363ef0f890967ee,,,,,,,,,,,,,,,,,,,,,,,a,1,"[""0.025"",""0.566"",""0.809"",""0.861""]","[0,1,1,1]",0,49,49,49,1,0,1,,,1,FALSE,1.5236,,,,,,,,,,,,,,,,,,,,,,,,,,,,,,
,605b543bff0f6972b545620c,001,2022-04-28_21h10.20.990,classification_task,2021.2.3,Win32,60.07810153,605b543bff0f6972b545620c,626b377229c10585ec392f89,626b3ac80363ef0f890967ee,,,,,,,,,,,,,,,,,,,,,,,a,1,"[""0.315"",""0.601"",""0.809"",""0.861""]","[1,0,1,1]",0,50,50,50,1,0,1,,,1,FALSE,1.1499,,,,,,,,,,,,,,,,,,,,,,,,,,,,,,
,605b543bff0f6972b545620c,001,2022-04-28_21h10.20.990,classification_task,2021.2.3,Win32,60.07810153,605b543bff0f6972b545620c,626b377229c10585ec392f89,626b3ac80363ef0f890967ee,,,,,,,,,,,,,,,,,,,,,,,l,1,"[""0.144"",""0.407"",""0.601"",""0.677""]","[1,1,0,1]",0,51,51,51,1,1,0,,,1,FALSE,0.8307,,,,,,,,,,,,,,,,,,,,,,,,,,,,,,
,605b543bff0f6972b545620c,001,2022-04-28_21h10.20.990,classification_task,2021.2.3,Win32,60.07810153,605b543bff0f6972b545620c,626b377229c10585ec392f89,626b3ac80363ef0f890967ee,,,,,,,,,,,,,,,,,,,,,,,a,0,"[""0.528"",""0.200"",""0.457"",""0.746""]","[0,1,1,1]",0,52,52,52,1,1,1,,,1,FALSE,1.9677,,,,,,,,,,,,,,,,,,,,,,,,,,,,,,
,605b543bff0f6972b545620c,001,2022-04-28_21h10.20.990,classification_task,2021.2.3,Win32,60.07810153,605b543bff0f6972b545620c,626b377229c10585ec392f89,626b3ac80363ef0f890967ee,,,,,,,,,,,,,,,,,,,,,,,l,1,"[""0.080"",""0.200"",""0.457"",""0.711""]","[1,1,1,0]",0,53,53,53,1,1,1,,,1,FALSE,1.0245,,,,,,,,,,,,,,,,,,,,,,,,,,,,,,
,605b543bff0f6972b545620c,001,2022-04-28_21h10.20.990,classification_task,2021.2.3,Win32,60.07810153,605b543bff0f6972b545620c,626b377229c10585ec392f89,626b3ac80363ef0f890967ee,,,,,,,,,,,,,,,,,,,,,,,a,1,"[""0.260"",""0.372"",""0.914"",""0.045""]","[1,1,1,0]",0,54,54,54,1,0,0,,,1,FALSE,1.583,,,,,,,,,,,,,,,,,,,,,,,,,,,,,,
,605b543bff0f6972b545620c,001,2022-04-28_21h10.20.990,classification_task,2021.2.3,Win32,60.07810153,605b543bff0f6972b545620c,626b377229c10585ec392f89,626b3ac80363ef0f890967ee,,,,,,,,,,,,,,,,,,,,,,,l,1,"[""0.144"",""0.407"",""0.640"",""0.528""]","[1,1,1,0]",0,55,55,55,1,1,0,,,1,FALSE,1.1003,,,,,,,,,,,,,,,,,,,,,,,,,,,,,,
,605b543bff0f6972b545620c,001,2022-04-28_21h10.20.990,classification_task,2021.2.3,Win32,60.07810153,605b543bff0f6972b545620c,626b377229c10585ec392f89,626b3ac80363ef0f890967ee,,,,,,,,,,,,,,,,,,,,,,,l,1,"[""0.523"",""0.407"",""0.640"",""0.677""]","[0,1,1,1]",0,56,56,56,1,1,0,,,1,FALSE,0.589,,,,,,,,,,,,,,,,,,,,,,,,,,,,,,
,605b543bff0f6972b545620c,001,2022-04-28_21h10.20.990,classification_task,2021.2.3,Win32,60.07810153,605b543bff0f6972b545620c,626b377229c10585ec392f89,626b3ac80363ef0f890967ee,,,,,,,,,,,,,,,,,,,,,,,l,1,"[""0.144"",""0.601"",""0.640"",""0.677""]","[1,0,1,1]",0,57,57,57,1,1,0,,,1,FALSE,0.7818,,,,,,,,,,,,,,,,,,,,,,,,,,,,,,
,605b543bff0f6972b545620c,001,2022-04-28_21h10.20.990,classification_task,2021.2.3,Win32,60.07810153,605b543bff0f6972b545620c,626b377229c10585ec392f89,626b3ac80363ef0f890967ee,,,,,,,,,,,,,,,,,,,,,,,a,1,"[""0.260"",""0.372"",""0.527"",""0.961""]","[1,1,0,1]",0,58,58,58,1,0,0,,,1,FALSE,2.1013,,,,,,,,,,,,,,,,,,,,,,,,,,,,,,
,605b543bff0f6972b545620c,001,2022-04-28_21h10.20.990,classification_task,2021.2.3,Win32,60.07810153,605b543bff0f6972b545620c,626b377229c10585ec392f89,626b3ac80363ef0f890967ee,,,,,,,,,,,,,,,,,,,,,,,a,1,"[""0.315"",""0.566"",""0.601"",""0.861""]","[1,1,0,1]",0,59,59,59,1,0,1,,,1,FALSE,1.165,,,,,,,,,,,,,,,,,,,,,,,,,,,,,,
,605b543bff0f6972b545620c,001,2022-04-28_21h10.20.990,classification_task,2021.2.3,Win32,60.07810153,605b543bff0f6972b545620c,626b377229c10585ec392f89,626b3ac80363ef0f890967ee,,,,,,,,,,,,,,,,,,,,,,,a,1,"[""0.528"",""0.372"",""0.914"",""0.961""]","[0,1,1,1]",0,60,60,60,1,0,0,,,1,FALSE,1.338,,,,,,,,,,,,,,,,,,,,,,,,,,,,,,
,605b543bff0f6972b545620c,001,2022-04-28_21h10.20.990,classification_task,2021.2.3,Win32,60.07810153,605b543bff0f6972b545620c,626b377229c10585ec392f89,626b3ac80363ef0f890967ee,,,,,,,,,,,,,,,,,,,,,,,a,1,"[""0.260"",""0.025"",""0.914"",""0.961""]","[1,0,1,1]",0,61,61,61,1,0,0,,,1,FALSE,1.3786,,,,,,,,,,,,,,,,,,,,,,,,,,,,,,
,605b543bff0f6972b545620c,001,2022-04-28_21h10.20.990,classification_task,2021.2.3,Win32,60.07810153,605b543bff0f6972b545620c,626b377229c10585ec392f89,626b3ac80363ef0f890967ee,,,,,,,,,,,,,,,,,,,,,,,a,0,"[""0.080"",""0.200"",""0.025"",""0.746""]","[1,1,0,1]",0,62,62,62,1,1,1,,,1,FALSE,1.7506,,,,,,,,,,,,,,,,,,,,,,,,,,,,,,
,605b543bff0f6972b545620c,001,2022-04-28_21h10.20.990,classification_task,2021.2.3,Win32,60.07810153,605b543bff0f6972b545620c,626b377229c10585ec392f89,626b3ac80363ef0f890967ee,,,,,,,,,,,,,,,,,,,,,,,a,0,"[""0.080"",""0.495"",""0.457"",""0.746""]","[1,0,1,1]",0,63,63,63,1,1,1,,,1,FALSE,2.1471,,,,,,,,,,,,,,,,,,,,,,,,,,,,,,
,605b543bff0f6972b545620c,001,2022-04-28_21h10.20.990,classification_task,2021.2.3,Win32,60.07810153,605b543bff0f6972b545620c,626b377229c10585ec392f89,626b3ac80363ef0f890967ee,,,,,,,,,,,,,,,,,,,,,,,,,,,,,,,,,,,,,,,0, ,,0,2.042181817,183.1365,0,2,2,2,1,2,3,,,,,,,,,,,,,,,,,
,605b543bff0f6972b545620c,001,2022-04-28_21h10.20.990,classification_task,2021.2.3,Win32,60.07810153,605b543bff0f6972b545620c,626b377229c10585ec392f89,626b3ac80363ef0f890967ee,,,,,,,,,,,,,,,,,,,,,,,,,,,,,,,,,,,,,,,1,  ,,0,8.166030534,184.8325,0,2,2,2,1,2,3,,,,,,,,,,,,,,,,,
,605b543bff0f6972b545620c,001,2022-04-28_21h10.20.990,classification_task,2021.2.3,Win32,60.07810153,605b543bff0f6972b545620c,626b377229c10585ec392f89,626b3ac80363ef0f890967ee,,,,,,,,,,,,,,,,,,,,,,,,,,,,,,,,,,,,,,,2,  ,,0,9.292818324,186.3319,0,2,2,2,1,2,3,,,,,,,,,,,,,,,,,
,605b543bff0f6972b545620c,001,2022-04-28_21h10.20.990,classification_task,2021.2.3,Win32,60.07810153,605b543bff0f6972b545620c,626b377229c10585ec392f89,626b3ac80363ef0f890967ee,,,,,,,,,,,,,,,,,,,,,,,,,,,,,,,,,,,,,,,,,,,,,0,2,2,2,1,,3,,,,,,,,,,,,,,,,,
,605b543bff0f6972b545620c,001,2022-04-28_21h10.20.990,classification_task,2021.2.3,Win32,60.07810153,605b543bff0f6972b545620c,626b377229c10585ec392f89,626b3ac80363ef0f890967ee,,,,,,,,,,,,,,,,,,,,,,,,,,,,,,,,,,,,,,,,,,,,,,,,,,,,,I believe the aid is a competent performer,,0.7,0,5,907.1045,0,0,0,0,1,0,,,,
,605b543bff0f6972b545620c,001,2022-04-28_21h10.20.990,classification_task,2021.2.3,Win32,60.07810153,605b543bff0f6972b545620c,626b377229c10585ec392f89,626b3ac80363ef0f890967ee,,,,,,,,,,,,,,,,,,,,,,,,,,,,,,,,,,,,,,,,,,,,,,,,,,,,,I trust the aid,,0.7,0,5,907.8744,0,0,0,0,1,0,,,,
,605b543bff0f6972b545620c,001,2022-04-28_21h10.20.990,classification_task,2021.2.3,Win32,60.07810153,605b543bff0f6972b545620c,626b377229c10585ec392f89,626b3ac80363ef0f890967ee,,,,,,,,,,,,,,,,,,,,,,,,,,,,,,,,,,,,,,,,,,,,,,,,,,,,,I have confidence in the advice given by the aid,,0.7,0,5,909.3067,0,0,0,0,1,0,,,,
,605b543bff0f6972b545620c,001,2022-04-28_21h10.20.990,classification_task,2021.2.3,Win32,60.07810153,605b543bff0f6972b545620c,626b377229c10585ec392f89,626b3ac80363ef0f890967ee,,,,,,,,,,,,,,,,,,,,,,,,,,,,,,,,,,,,,,,,,,,,,,,,,,,,,I can depend on the aid,,0.7,0,5,910.5214,0,0,0,0,1,0,,,,
,605b543bff0f6972b545620c,001,2022-04-28_21h10.20.990,classification_task,2021.2.3,Win32,60.07810153,605b543bff0f6972b545620c,626b377229c10585ec392f89,626b3ac80363ef0f890967ee,,,,,,,,,,,,,,,,,,,,,,,,,,,,,,,,,,,,,,,,,,,,,,,,,,,,,I can rely on the aid to behave in consistent ways,,0.7,0,5,911.7729,0,0,0,0,1,0,,,,
,605b543bff0f6972b545620c,001,2022-04-28_21h10.20.990,classification_task,2021.2.3,Win32,60.07810153,605b543bff0f6972b545620c,626b377229c10585ec392f89,626b3ac80363ef0f890967ee,,,,,,,,,,,,,,,,,,,,,,,,,,,,,,,,,,,,,,,,,,,,,,,,,,,,,I can rely on the aid to do its best every time I take its advice,,0.7,0,5,915.8232,0,0,0,0,1,0,,,,
,605b543bff0f6972b545620c,001,2022-04-28_21h10.20.990,classification_task,2021.2.3,Win32,60.07810153,605b543bff0f6972b545620c,626b377229c10585ec392f89,626b3ac80363ef0f890967ee,,,,,,,,,,,,,,,,,,,,,,,,,,,,,,,,,,,,,,,,,,,,,,,,,,,,,"On trials you completed with assistance from the aid, how frequently did you think the aid was correct?",,0.7,0,100%,,0,0,0,0,1,0,,,,
,605b543bff0f6972b545620c,001,2022-04-28_21h10.20.990,classification_task,2021.2.3,Win32,60.07810153,605b543bff0f6972b545620c,626b377229c10585ec392f89,626b3ac80363ef0f890967ee,,,,,,,,,,,,,,,,,,,,,,,,,,,,,,,,,,,,,,,,,,,,,,,,,,,,,"On trials you completed without the aid, how frequently did you think you were correct?",,0.7,0,70%,,0,0,0,0,1,0,,,,
,605b543bff0f6972b545620c,001,2022-04-28_21h10.20.990,classification_task,2021.2.3,Win32,60.07810153,605b543bff0f6972b545620c,626b377229c10585ec392f89,626b3ac80363ef0f890967ee,,,,,,,,,,,,,,,,,,,,,,,,,,,,,,,,,,,,,,,,,,,,,,,,,,,,,,,,,,,0,0,0,0,1,,,,,
,605b543bff0f6972b545620c,001,2022-04-28_21h10.20.990,classification_task,2021.2.3,Win32,60.07810153,605b543bff0f6972b545620c,626b377229c10585ec392f89,626b3ac80363ef0f890967ee,,,,,,,,,,,,,,,,,,,,,,,,,,,,,,,,,,,,,,,,,,,,,,,,,,,,,,,,,,,,,,,,,space,15.9414,951.066,
,605b543bff0f6972b545620c,001,2022-04-28_21h10.20.990,classification_task,2021.2.3,Win32,60.07810153,605b543bff0f6972b545620c,626b377229c10585ec392f89,626b3ac80363ef0f890967ee,,,,,,,,,,,,,,,,,,,,,,,,,,,,,,,,,,,,,,,,,,,,,,,,,,,,,,,,,,,,,,,,,,,,"Mozilla/5.0 (Windows NT 10.0; Win64; x64) AppleWebKit/537.36 (KHTML, like Gecko) Chrome/100.0.4896.127 Safari/537.36 Edg/100.0.1185.50"
