usingWebGL,participant,session,date,expName,psychopyVersion,OS,frameRate,PROLIFIC_PID,STUDY_ID,SESSION_ID,signatures_friend,signatures_foe,band_ranges_top,band_ranges_bottom,formitemText,formtype,formundefined,formitemWidth,formindex,formresponse,formrt,key_resp_2.keys,key_resp_2.rt,tute_resp.keys,tute_resp.rt,tutorial.thisRepN,tutorial.thisTrialN,tutorial.thisN,tutorial.thisIndex,tutorial.ran,key_resp_4.keys,key_resp_4.rt,key_resp.keys,key_resp.corr,lines_presented,is_signal_presented,trials.thisRepN,trials.thisTrialN,trials.thisN,trials.thisIndex,trials.ran,vessel,active_band,lines,is_signal,supported_pos,catch_trial,key_resp.rt,debrief_formindex,debrief_formitemText,debrief_formtype,debrief_formitemWidth,debrief_formresponse,debrief_formrt,phases.thisRepN,phases.thisTrialN,phases.thisN,phases.thisIndex,phases.ran,phases.order,phase,key_resp_3.keys,trustitemText,trusttype,trustitemWidth,trustindex,trustresponse,trustrt,support_status.thisRepN,support_status.thisTrialN,support_status.thisN,support_status.thisIndex,support_status.ran,support_status.order,key_resp_5.keys,key_resp_5.rt,globalClockTime,userAgent
TRUE,6062b3ef5e79b5705af82e42,001,2022-04-29_12h02.21.699,classification_task,2021.2.3,MacIntel,60.0024001,6062b3ef5e79b5705af82e42,626b377229c10585ec392f8a,626b4db15cb82e2aef33533b,,,,,,,,,,,,,,,,,,,,,,,,,,,,,,,,,,,,,,,,,,,,,,,,,,,,,,,,,,,,,,,,,,,,
,6062b3ef5e79b5705af82e42,001,2022-04-29_12h02.21.699,classification_task,2021.2.3,MacIntel,60.0024001,6062b3ef5e79b5705af82e42,626b377229c10585ec392f8a,626b4db15cb82e2aef33533b,"[[""0.287"",""0.413"",""0.936"",""0.971""],[""0.323"",""0.504"",""0.853"",""0.903""]]","[[""0.041"",""0.363"",""0.615"",""0.792""],[""0.080"",""0.233"",""0.560"",""0.708""]]","[1,10]","[100,1000]",Video game experience,,,0.7,0,,,,,,,,,,,,,,,,,,,,,,,,,,,,,,,,,,,,,,,,,,,,,,,,,,,,,,,,,,,
,6062b3ef5e79b5705af82e42,001,2022-04-29_12h02.21.699,classification_task,2021.2.3,MacIntel,60.0024001,6062b3ef5e79b5705af82e42,626b377229c10585ec392f8a,626b4db15cb82e2aef33533b,,,,,Approximately how many hours did you spend playing video games in the last week?,,,0.7,0,4,,,,,,,,,,,,,,,,,,,,,,,,,,,,,,,,,,,,,,,,,,,,,,,,,,,,,,,,,,
,6062b3ef5e79b5705af82e42,001,2022-04-29_12h02.21.699,classification_task,2021.2.3,MacIntel,60.0024001,6062b3ef5e79b5705af82e42,626b377229c10585ec392f8a,626b4db15cb82e2aef33533b,,,,,"Which game did you play the most this year? (Enter ""None"" if you didn't play any)",,,0.7,0,Dota,,,,,,,,,,,,,,,,,,,,,,,,,,,,,,,,,,,,,,,,,,,,,,,,,,,,,,,,,,
,6062b3ef5e79b5705af82e42,001,2022-04-29_12h02.21.699,classification_task,2021.2.3,MacIntel,60.0024001,6062b3ef5e79b5705af82e42,626b377229c10585ec392f8a,626b4db15cb82e2aef33533b,,,,,Visual perception,,,0.7,0,,,,,,,,,,,,,,,,,,,,,,,,,,,,,,,,,,,,,,,,,,,,,,,,,,,,,,,,,,,
,6062b3ef5e79b5705af82e42,001,2022-04-29_12h02.21.699,classification_task,2021.2.3,MacIntel,60.0024001,6062b3ef5e79b5705af82e42,626b377229c10585ec392f8a,626b4db15cb82e2aef33533b,,,,,Do you have any form of color blindness?,,,0.7,0,No,24.8881,,,,,,,,,,,,,,,,,,,,,,,,,,,,,,,,,,,,,,,,,,,,,,,,,,,,,,,,,
,6062b3ef5e79b5705af82e42,001,2022-04-29_12h02.21.699,classification_task,2021.2.3,MacIntel,60.0024001,6062b3ef5e79b5705af82e42,626b377229c10585ec392f8a,626b4db15cb82e2aef33533b,,,,,Do you use software to change the colour temperature of your screen (e.g. f.lux)?,,,0.7,0,No,32.5334,,,,,,,,,,,,,,,,,,,,,,,,,,,,,,,,,,,,,,,,,,,,,,,,,,,,,,,,,
,6062b3ef5e79b5705af82e42,001,2022-04-29_12h02.21.699,classification_task,2021.2.3,MacIntel,60.0024001,6062b3ef5e79b5705af82e42,626b377229c10585ec392f8a,626b4db15cb82e2aef33533b,,,,,,,,,,,,space,80.3969,space,11.8741,0,0,0,0,1,,,,,,,,,,,,,,,,,,,,,,,,,,,,,,,,,,,,,,,,,,,,,,,,
,6062b3ef5e79b5705af82e42,001,2022-04-29_12h02.21.699,classification_task,2021.2.3,MacIntel,60.0024001,6062b3ef5e79b5705af82e42,626b377229c10585ec392f8a,626b4db15cb82e2aef33533b,,,,,,,,,,,,,,space,49.3735,1,0,1,0,1,,,,,,,,,,,,,,,,,,,,,,,,,,,,,,,,,,,,,,,,,,,,,,,,
,6062b3ef5e79b5705af82e42,001,2022-04-29_12h02.21.699,classification_task,2021.2.3,MacIntel,60.0024001,6062b3ef5e79b5705af82e42,626b377229c10585ec392f8a,626b4db15cb82e2aef33533b,,,,,,,,,,,,,,space,27.6537,2,0,2,0,1,,,,,,,,,,,,,,,,,,,,,,,,,,,,,,,,,,,,,,,,,,,,,,,,
,6062b3ef5e79b5705af82e42,001,2022-04-29_12h02.21.699,classification_task,2021.2.3,MacIntel,60.0024001,6062b3ef5e79b5705af82e42,626b377229c10585ec392f8a,626b4db15cb82e2aef33533b,,,,,,,,,,,,,,space,15.0164,3,0,3,0,1,,,,,,,,,,,,,,,,,,,,,,,,,,,,,,,,,,,,,,,,,,,,,,,,
,6062b3ef5e79b5705af82e42,001,2022-04-29_12h02.21.699,classification_task,2021.2.3,MacIntel,60.0024001,6062b3ef5e79b5705af82e42,626b377229c10585ec392f8a,626b4db15cb82e2aef33533b,,,,,,,,,,,,,,space,34.5791,4,0,4,0,1,,,,,,,,,,,,,,,,,,,,,,,,,,,,,,,,,,,,,,,,,,,,,,,,
,6062b3ef5e79b5705af82e42,001,2022-04-29_12h02.21.699,classification_task,2021.2.3,MacIntel,60.0024001,6062b3ef5e79b5705af82e42,626b377229c10585ec392f8a,626b4db15cb82e2aef33533b,,,,,,,,,,,,,,,,,,,,,space,31.1738,,0,"[""0.287"",""0.413"",""0.936"",""0.160""]","[1,1,1,0]",0,0,0,0,1,0,0,,,1,FALSE,,,,,,,,,,,,,,,,,,,,,,,,,,,,,,,
,6062b3ef5e79b5705af82e42,001,2022-04-29_12h02.21.699,classification_task,2021.2.3,MacIntel,60.0024001,6062b3ef5e79b5705af82e42,626b377229c10585ec392f8a,626b4db15cb82e2aef33533b,,,,,,,,,,,,,,,,,,,,,,,l,1,"[""0.041"",""0.169"",""0.615"",""0.792""]","[1,0,1,1]",0,1,1,1,1,1,0,,,1,FALSE,3.8333,,,,,,,,,,,,,,,,,,,,,,,,,,,,,,
,6062b3ef5e79b5705af82e42,001,2022-04-29_12h02.21.699,classification_task,2021.2.3,MacIntel,60.0024001,6062b3ef5e79b5705af82e42,626b377229c10585ec392f8a,626b4db15cb82e2aef33533b,,,,,,,,,,,,,,,,,,,,,,,l,1,"[""0.041"",""0.363"",""0.450"",""0.792""]","[1,1,0,1]",0,2,2,2,1,1,0,,,1,FALSE,2.5699,,,,,,,,,,,,,,,,,,,,,,,,,,,,,,
,6062b3ef5e79b5705af82e42,001,2022-04-29_12h02.21.699,classification_task,2021.2.3,MacIntel,60.0024001,6062b3ef5e79b5705af82e42,626b377229c10585ec392f8a,626b4db15cb82e2aef33533b,,,,,,,,,,,,,,,,,,,,,,,a,1,"[""0.287"",""0.464"",""0.936"",""0.971""]","[1,0,1,1]",0,3,3,3,1,0,0,,,1,FALSE,3.1251,,,,,,,,,,,,,,,,,,,,,,,,,,,,,,
,6062b3ef5e79b5705af82e42,001,2022-04-29_12h02.21.699,classification_task,2021.2.3,MacIntel,60.0024001,6062b3ef5e79b5705af82e42,626b377229c10585ec392f8a,626b4db15cb82e2aef33533b,,,,,,,,,,,,,,,,,,,,,,,a,0,"[""0.176"",""0.363"",""0.615"",""0.792""]","[0,1,1,1]",0,4,4,4,1,1,0,,,1,FALSE,5.3165,,,,,,,,,,,,,,,,,,,,,,,,,,,,,,
,6062b3ef5e79b5705af82e42,001,2022-04-29_12h02.21.699,classification_task,2021.2.3,MacIntel,60.0024001,6062b3ef5e79b5705af82e42,626b377229c10585ec392f8a,626b4db15cb82e2aef33533b,,,,,,,,,,,,,,,,,,,,,,,l,1,"[""0.041"",""0.363"",""0.615"",""0.156""]","[1,1,1,0]",0,5,5,5,1,1,0,,,1,FALSE,2.1798,,,,,,,,,,,,,,,,,,,,,,,,,,,,,,
,6062b3ef5e79b5705af82e42,001,2022-04-29_12h02.21.699,classification_task,2021.2.3,MacIntel,60.0024001,6062b3ef5e79b5705af82e42,626b377229c10585ec392f8a,626b4db15cb82e2aef33533b,,,,,,,,,,,,,,,,,,,,,,,l,1,"[""0.160"",""0.233"",""0.560"",""0.708""]","[0,1,1,1]",0,6,6,6,1,1,1,,,1,FALSE,3.4847,,,,,,,,,,,,,,,,,,,,,,,,,,,,,,
,6062b3ef5e79b5705af82e42,001,2022-04-29_12h02.21.699,classification_task,2021.2.3,MacIntel,60.0024001,6062b3ef5e79b5705af82e42,626b377229c10585ec392f8a,626b4db15cb82e2aef33533b,,,,,,,,,,,,,,,,,,,,,,,l,1,"[""0.080"",""0.233"",""0.172"",""0.708""]","[1,1,0,1]",0,7,7,7,1,1,1,,,1,FALSE,2.1695,,,,,,,,,,,,,,,,,,,,,,,,,,,,,,
,6062b3ef5e79b5705af82e42,001,2022-04-29_12h02.21.699,classification_task,2021.2.3,MacIntel,60.0024001,6062b3ef5e79b5705af82e42,626b377229c10585ec392f8a,626b4db15cb82e2aef33533b,,,,,,,,,,,,,,,,,,,,,,,l,1,"[""0.080"",""0.467"",""0.560"",""0.708""]","[1,0,1,1]",0,8,8,8,1,1,1,,,1,FALSE,1.4673,,,,,,,,,,,,,,,,,,,,,,,,,,,,,,
,6062b3ef5e79b5705af82e42,001,2022-04-29_12h02.21.699,classification_task,2021.2.3,MacIntel,60.0024001,6062b3ef5e79b5705af82e42,626b377229c10585ec392f8a,626b4db15cb82e2aef33533b,,,,,,,,,,,,,,,,,,,,,,,l,0,"[""0.141"",""0.504"",""0.853"",""0.903""]","[0,1,1,1]",0,9,9,9,1,0,1,,,1,FALSE,1.6492,,,,,,,,,,,,,,,,,,,,,,,,,,,,,,
,6062b3ef5e79b5705af82e42,001,2022-04-29_12h02.21.699,classification_task,2021.2.3,MacIntel,60.0024001,6062b3ef5e79b5705af82e42,626b377229c10585ec392f8a,626b4db15cb82e2aef33533b,,,,,,,,,,,,,,,,,,,,,,,a,1,"[""0.323"",""0.504"",""0.853"",""0.467""]","[1,1,1,0]",0,10,10,10,1,0,1,,,1,FALSE,2.4658,,,,,,,,,,,,,,,,,,,,,,,,,,,,,,
,6062b3ef5e79b5705af82e42,001,2022-04-29_12h02.21.699,classification_task,2021.2.3,MacIntel,60.0024001,6062b3ef5e79b5705af82e42,626b377229c10585ec392f8a,626b4db15cb82e2aef33533b,,,,,,,,,,,,,,,,,,,,,,,l,0,"[""0.156"",""0.413"",""0.936"",""0.971""]","[0,1,1,1]",0,11,11,11,1,0,0,,,1,FALSE,2.4475,,,,,,,,,,,,,,,,,,,,,,,,,,,,,,
,6062b3ef5e79b5705af82e42,001,2022-04-29_12h02.21.699,classification_task,2021.2.3,MacIntel,60.0024001,6062b3ef5e79b5705af82e42,626b377229c10585ec392f8a,626b4db15cb82e2aef33533b,,,,,,,,,,,,,,,,,,,,,,,l,1,"[""0.080"",""0.233"",""0.560"",""0.467""]","[1,1,1,0]",0,12,12,12,1,1,1,,,1,FALSE,2.081,,,,,,,,,,,,,,,,,,,,,,,,,,,,,,
,6062b3ef5e79b5705af82e42,001,2022-04-29_12h02.21.699,classification_task,2021.2.3,MacIntel,60.0024001,6062b3ef5e79b5705af82e42,626b377229c10585ec392f8a,626b4db15cb82e2aef33533b,,,,,,,,,,,,,,,,,,,,,,,a,1,"[""0.323"",""0.464"",""0.853"",""0.903""]","[1,0,1,1]",0,13,13,13,1,0,1,,,1,FALSE,1.9751,,,,,,,,,,,,,,,,,,,,,,,,,,,,,,
,6062b3ef5e79b5705af82e42,001,2022-04-29_12h02.21.699,classification_task,2021.2.3,MacIntel,60.0024001,6062b3ef5e79b5705af82e42,626b377229c10585ec392f8a,626b4db15cb82e2aef33533b,,,,,,,,,,,,,,,,,,,,,,,a,1,"[""0.323"",""0.504"",""0.172"",""0.903""]","[1,1,0,1]",0,14,14,14,1,0,1,,,1,FALSE,2.3467,,,,,,,,,,,,,,,,,,,,,,,,,,,,,,
,6062b3ef5e79b5705af82e42,001,2022-04-29_12h02.21.699,classification_task,2021.2.3,MacIntel,60.0024001,6062b3ef5e79b5705af82e42,626b377229c10585ec392f8a,626b4db15cb82e2aef33533b,,,,,,,,,,,,,,,,,,,,,,,a,1,"[""0.287"",""0.413"",""0.743"",""0.971""]","[1,1,0,1]",0,15,15,15,1,0,0,,,1,FALSE,2.7796,,,,,,,,,,,,,,,,,,,,,,,,,,,,,,
,6062b3ef5e79b5705af82e42,001,2022-04-29_12h02.21.699,classification_task,2021.2.3,MacIntel,60.0024001,6062b3ef5e79b5705af82e42,626b377229c10585ec392f8a,626b4db15cb82e2aef33533b,,,,,,,,,,,,,,,,,,,,,,,a,1,"[""0.141"",""0.413"",""0.936"",""0.971""]","[0,1,1,1]",0,16,16,16,1,0,0,,,1,FALSE,3.5058,,,,,,,,,,,,,,,,,,,,,,,,,,,,,,
,6062b3ef5e79b5705af82e42,001,2022-04-29_12h02.21.699,classification_task,2021.2.3,MacIntel,60.0024001,6062b3ef5e79b5705af82e42,626b377229c10585ec392f8a,626b4db15cb82e2aef33533b,,,,,,,,,,,,,,,,,,,,,,,a,1,"[""0.323"",""0.504"",""0.853"",""0.116""]","[1,1,1,0]",0,17,17,17,1,0,1,,,1,FALSE,2.445,,,,,,,,,,,,,,,,,,,,,,,,,,,,,,
,6062b3ef5e79b5705af82e42,001,2022-04-29_12h02.21.699,classification_task,2021.2.3,MacIntel,60.0024001,6062b3ef5e79b5705af82e42,626b377229c10585ec392f8a,626b4db15cb82e2aef33533b,,,,,,,,,,,,,,,,,,,,,,,a,1,"[""0.287"",""0.413"",""0.160"",""0.971""]","[1,1,0,1]",0,18,18,18,1,0,0,,,1,FALSE,3.4273,,,,,,,,,,,,,,,,,,,,,,,,,,,,,,
,6062b3ef5e79b5705af82e42,001,2022-04-29_12h02.21.699,classification_task,2021.2.3,MacIntel,60.0024001,6062b3ef5e79b5705af82e42,626b377229c10585ec392f8a,626b4db15cb82e2aef33533b,,,,,,,,,,,,,,,,,,,,,,,l,1,"[""0.165"",""0.233"",""0.560"",""0.708""]","[0,1,1,1]",0,19,19,19,1,1,1,,,1,FALSE,4.5793,,,,,,,,,,,,,,,,,,,,,,,,,,,,,,
,6062b3ef5e79b5705af82e42,001,2022-04-29_12h02.21.699,classification_task,2021.2.3,MacIntel,60.0024001,6062b3ef5e79b5705af82e42,626b377229c10585ec392f8a,626b4db15cb82e2aef33533b,,,,,,,,,,,,,,,,,,,,,,,l,1,"[""0.080"",""0.233"",""0.560"",""0.172""]","[1,1,1,0]",0,20,20,20,1,1,1,,,1,FALSE,3.0653,,,,,,,,,,,,,,,,,,,,,,,,,,,,,,
,6062b3ef5e79b5705af82e42,001,2022-04-29_12h02.21.699,classification_task,2021.2.3,MacIntel,60.0024001,6062b3ef5e79b5705af82e42,626b377229c10585ec392f8a,626b4db15cb82e2aef33533b,,,,,,,,,,,,,,,,,,,,,,,a,1,"[""0.467"",""0.504"",""0.853"",""0.903""]","[0,1,1,1]",0,21,21,21,1,0,1,,,1,FALSE,4.5372,,,,,,,,,,,,,,,,,,,,,,,,,,,,,,
,6062b3ef5e79b5705af82e42,001,2022-04-29_12h02.21.699,classification_task,2021.2.3,MacIntel,60.0024001,6062b3ef5e79b5705af82e42,626b377229c10585ec392f8a,626b4db15cb82e2aef33533b,,,,,,,,,,,,,,,,,,,,,,,l,1,"[""0.041"",""0.743"",""0.615"",""0.792""]","[1,0,1,1]",0,22,22,22,1,1,0,,,1,FALSE,3.8874,,,,,,,,,,,,,,,,,,,,,,,,,,,,,,
,6062b3ef5e79b5705af82e42,001,2022-04-29_12h02.21.699,classification_task,2021.2.3,MacIntel,60.0024001,6062b3ef5e79b5705af82e42,626b377229c10585ec392f8a,626b4db15cb82e2aef33533b,,,,,,,,,,,,,,,,,,,,,,,l,1,"[""0.041"",""0.363"",""0.160"",""0.792""]","[1,1,0,1]",0,23,23,23,1,1,0,,,1,FALSE,3.1358,,,,,,,,,,,,,,,,,,,,,,,,,,,,,,
,6062b3ef5e79b5705af82e42,001,2022-04-29_12h02.21.699,classification_task,2021.2.3,MacIntel,60.0024001,6062b3ef5e79b5705af82e42,626b377229c10585ec392f8a,626b4db15cb82e2aef33533b,,,,,,,,,,,,,,,,,,,,,,,l,1,"[""0.156"",""0.363"",""0.615"",""0.792""]","[0,1,1,1]",0,24,24,24,1,1,0,,,1,FALSE,3.2503,,,,,,,,,,,,,,,,,,,,,,,,,,,,,,
,6062b3ef5e79b5705af82e42,001,2022-04-29_12h02.21.699,classification_task,2021.2.3,MacIntel,60.0024001,6062b3ef5e79b5705af82e42,626b377229c10585ec392f8a,626b4db15cb82e2aef33533b,,,,,,,,,,,,,,,,,,,,,,,a,1,"[""0.287"",""0.165"",""0.936"",""0.971""]","[1,0,1,1]",0,25,25,25,1,0,0,,,1,FALSE,3.7701,,,,,,,,,,,,,,,,,,,,,,,,,,,,,,
,6062b3ef5e79b5705af82e42,001,2022-04-29_12h02.21.699,classification_task,2021.2.3,MacIntel,60.0024001,6062b3ef5e79b5705af82e42,626b377229c10585ec392f8a,626b4db15cb82e2aef33533b,,,,,,,,,,,,,,,,,,,,,,,a,1,"[""0.287"",""0.413"",""0.936"",""0.160""]","[1,1,1,0]",0,26,26,26,1,0,0,,,1,FALSE,2.9506,,,,,,,,,,,,,,,,,,,,,,,,,,,,,,
,6062b3ef5e79b5705af82e42,001,2022-04-29_12h02.21.699,classification_task,2021.2.3,MacIntel,60.0024001,6062b3ef5e79b5705af82e42,626b377229c10585ec392f8a,626b4db15cb82e2aef33533b,,,,,,,,,,,,,,,,,,,,,,,l,1,"[""0.080"",""0.141"",""0.560"",""0.708""]","[1,0,1,1]",0,27,27,27,1,1,1,,,1,FALSE,2.8024,,,,,,,,,,,,,,,,,,,,,,,,,,,,,,
,6062b3ef5e79b5705af82e42,001,2022-04-29_12h02.21.699,classification_task,2021.2.3,MacIntel,60.0024001,6062b3ef5e79b5705af82e42,626b377229c10585ec392f8a,626b4db15cb82e2aef33533b,,,,,,,,,,,,,,,,,,,,,,,a,1,"[""0.323"",""0.116"",""0.853"",""0.903""]","[1,0,1,1]",0,28,28,28,1,0,1,,,1,FALSE,4.3664,,,,,,,,,,,,,,,,,,,,,,,,,,,,,,
,6062b3ef5e79b5705af82e42,001,2022-04-29_12h02.21.699,classification_task,2021.2.3,MacIntel,60.0024001,6062b3ef5e79b5705af82e42,626b377229c10585ec392f8a,626b4db15cb82e2aef33533b,,,,,,,,,,,,,,,,,,,,,,,l,1,"[""0.080"",""0.233"",""0.141"",""0.708""]","[1,1,0,1]",0,29,29,29,1,1,1,,,1,FALSE,5.218,,,,,,,,,,,,,,,,,,,,,,,,,,,,,,
,6062b3ef5e79b5705af82e42,001,2022-04-29_12h02.21.699,classification_task,2021.2.3,MacIntel,60.0024001,6062b3ef5e79b5705af82e42,626b377229c10585ec392f8a,626b4db15cb82e2aef33533b,,,,,,,,,,,,,,,,,,,,,,,l,1,"[""0.041"",""0.363"",""0.615"",""0.743""]","[1,1,1,0]",0,30,30,30,1,1,0,,,1,FALSE,2.9305,,,,,,,,,,,,,,,,,,,,,,,,,,,,,,
,6062b3ef5e79b5705af82e42,001,2022-04-29_12h02.21.699,classification_task,2021.2.3,MacIntel,60.0024001,6062b3ef5e79b5705af82e42,626b377229c10585ec392f8a,626b4db15cb82e2aef33533b,,,,,,,,,,,,,,,,,,,,,,,a,1,"[""0.323"",""0.504"",""0.176"",""0.903""]","[1,1,0,1]",0,31,31,31,1,0,1,,,1,FALSE,5.0452,,,,,,,,,,,,,,,,,,,,,,,,,,,,,,
,6062b3ef5e79b5705af82e42,001,2022-04-29_12h02.21.699,classification_task,2021.2.3,MacIntel,60.0024001,6062b3ef5e79b5705af82e42,626b377229c10585ec392f8a,626b4db15cb82e2aef33533b,,,,,,,,,,,,,,,,,,,,,,,l,1,"[""0.080"",""0.233"",""0.743"",""0.708""]","[1,1,0,1]",0,32,32,32,1,1,1,,,1,FALSE,4.9614,,,,,,,,,,,,,,,,,,,,,,,,,,,,,,
,6062b3ef5e79b5705af82e42,001,2022-04-29_12h02.21.699,classification_task,2021.2.3,MacIntel,60.0024001,6062b3ef5e79b5705af82e42,626b377229c10585ec392f8a,626b4db15cb82e2aef33533b,,,,,,,,,,,,,,,,,,,,,,,a,1,"[""0.323"",""0.504"",""0.853"",""0.464""]","[1,1,1,0]",0,33,33,33,1,0,1,,,1,FALSE,4.4564,,,,,,,,,,,,,,,,,,,,,,,,,,,,,,
,6062b3ef5e79b5705af82e42,001,2022-04-29_12h02.21.699,classification_task,2021.2.3,MacIntel,60.0024001,6062b3ef5e79b5705af82e42,626b377229c10585ec392f8a,626b4db15cb82e2aef33533b,,,,,,,,,,,,,,,,,,,,,,,a,1,"[""0.287"",""0.743"",""0.936"",""0.971""]","[1,0,1,1]",0,34,34,34,1,0,0,,,1,FALSE,2.8009,,,,,,,,,,,,,,,,,,,,,,,,,,,,,,
,6062b3ef5e79b5705af82e42,001,2022-04-29_12h02.21.699,classification_task,2021.2.3,MacIntel,60.0024001,6062b3ef5e79b5705af82e42,626b377229c10585ec392f8a,626b4db15cb82e2aef33533b,,,,,,,,,,,,,,,,,,,,,,,l,0,"[""0.323"",""0.504"",""0.141"",""0.903""]","[1,1,0,1]",0,35,35,35,1,0,1,,,1,FALSE,1.7559,,,,,,,,,,,,,,,,,,,,,,,,,,,,,,
,6062b3ef5e79b5705af82e42,001,2022-04-29_12h02.21.699,classification_task,2021.2.3,MacIntel,60.0024001,6062b3ef5e79b5705af82e42,626b377229c10585ec392f8a,626b4db15cb82e2aef33533b,,,,,,,,,,,,,,,,,,,,,,,a,0,"[""0.041"",""0.363"",""0.615"",""0.457""]","[1,1,1,0]",0,36,36,36,1,1,0,,,1,FALSE,1.3827,,,,,,,,,,,,,,,,,,,,,,,,,,,,,,
,6062b3ef5e79b5705af82e42,001,2022-04-29_12h02.21.699,classification_task,2021.2.3,MacIntel,60.0024001,6062b3ef5e79b5705af82e42,626b377229c10585ec392f8a,626b4db15cb82e2aef33533b,,,,,,,,,,,,,,,,,,,,,,,l,0,"[""0.287"",""0.413"",""0.936"",""0.135""]","[1,1,1,0]",0,37,37,37,1,0,0,,,1,FALSE,1.8673,,,,,,,,,,,,,,,,,,,,,,,,,,,,,,
,6062b3ef5e79b5705af82e42,001,2022-04-29_12h02.21.699,classification_task,2021.2.3,MacIntel,60.0024001,6062b3ef5e79b5705af82e42,626b377229c10585ec392f8a,626b4db15cb82e2aef33533b,,,,,,,,,,,,,,,,,,,,,,,l,1,"[""0.041"",""0.363"",""0.160"",""0.792""]","[1,1,0,1]",0,38,38,38,1,1,0,,,1,FALSE,0.7292,,,,,,,,,,,,,,,,,,,,,,,,,,,,,,
,6062b3ef5e79b5705af82e42,001,2022-04-29_12h02.21.699,classification_task,2021.2.3,MacIntel,60.0024001,6062b3ef5e79b5705af82e42,626b377229c10585ec392f8a,626b4db15cb82e2aef33533b,,,,,,,,,,,,,,,,,,,,,,,a,1,"[""0.450"",""0.413"",""0.936"",""0.971""]","[0,1,1,1]",0,39,39,39,1,0,0,,,1,FALSE,4.2997,,,,,,,,,,,,,,,,,,,,,,,,,,,,,,
,6062b3ef5e79b5705af82e42,001,2022-04-29_12h02.21.699,classification_task,2021.2.3,MacIntel,60.0024001,6062b3ef5e79b5705af82e42,626b377229c10585ec392f8a,626b4db15cb82e2aef33533b,,,,,,,,,,,,,,,,,,,,,,,l,0,"[""0.116"",""0.504"",""0.853"",""0.903""]","[0,1,1,1]",0,40,40,40,1,0,1,,,1,FALSE,2.6337,,,,,,,,,,,,,,,,,,,,,,,,,,,,,,
,6062b3ef5e79b5705af82e42,001,2022-04-29_12h02.21.699,classification_task,2021.2.3,MacIntel,60.0024001,6062b3ef5e79b5705af82e42,626b377229c10585ec392f8a,626b4db15cb82e2aef33533b,,,,,,,,,,,,,,,,,,,,,,,l,1,"[""0.041"",""0.135"",""0.615"",""0.792""]","[1,0,1,1]",0,41,41,41,1,1,0,,,1,FALSE,1.2395,,,,,,,,,,,,,,,,,,,,,,,,,,,,,,
,6062b3ef5e79b5705af82e42,001,2022-04-29_12h02.21.699,classification_task,2021.2.3,MacIntel,60.0024001,6062b3ef5e79b5705af82e42,626b377229c10585ec392f8a,626b4db15cb82e2aef33533b,,,,,,,,,,,,,,,,,,,,,,,l,1,"[""0.080"",""0.160"",""0.560"",""0.708""]","[1,0,1,1]",0,42,42,42,1,1,1,,,1,FALSE,1.4296,,,,,,,,,,,,,,,,,,,,,,,,,,,,,,
,6062b3ef5e79b5705af82e42,001,2022-04-29_12h02.21.699,classification_task,2021.2.3,MacIntel,60.0024001,6062b3ef5e79b5705af82e42,626b377229c10585ec392f8a,626b4db15cb82e2aef33533b,,,,,,,,,,,,,,,,,,,,,,,l,1,"[""0.160"",""0.363"",""0.615"",""0.792""]","[0,1,1,1]",0,43,43,43,1,1,0,,,1,FALSE,1.3866,,,,,,,,,,,,,,,,,,,,,,,,,,,,,,
,6062b3ef5e79b5705af82e42,001,2022-04-29_12h02.21.699,classification_task,2021.2.3,MacIntel,60.0024001,6062b3ef5e79b5705af82e42,626b377229c10585ec392f8a,626b4db15cb82e2aef33533b,,,,,,,,,,,,,,,,,,,,,,,l,1,"[""0.080"",""0.233"",""0.560"",""0.467""]","[1,1,1,0]",0,44,44,44,1,1,1,,,1,FALSE,1.2507,,,,,,,,,,,,,,,,,,,,,,,,,,,,,,
,6062b3ef5e79b5705af82e42,001,2022-04-29_12h02.21.699,classification_task,2021.2.3,MacIntel,60.0024001,6062b3ef5e79b5705af82e42,626b377229c10585ec392f8a,626b4db15cb82e2aef33533b,,,,,,,,,,,,,,,,,,,,,,,a,1,"[""0.323"",""0.743"",""0.853"",""0.903""]","[1,0,1,1]",0,45,45,45,1,0,1,,,1,FALSE,1.2328,,,,,,,,,,,,,,,,,,,,,,,,,,,,,,
,6062b3ef5e79b5705af82e42,001,2022-04-29_12h02.21.699,classification_task,2021.2.3,MacIntel,60.0024001,6062b3ef5e79b5705af82e42,626b377229c10585ec392f8a,626b4db15cb82e2aef33533b,,,,,,,,,,,,,,,,,,,,,,,l,1,"[""0.467"",""0.233"",""0.560"",""0.708""]","[0,1,1,1]",0,46,46,46,1,1,1,,,1,FALSE,2.5391,,,,,,,,,,,,,,,,,,,,,,,,,,,,,,
,6062b3ef5e79b5705af82e42,001,2022-04-29_12h02.21.699,classification_task,2021.2.3,MacIntel,60.0024001,6062b3ef5e79b5705af82e42,626b377229c10585ec392f8a,626b4db15cb82e2aef33533b,,,,,,,,,,,,,,,,,,,,,,,a,1,"[""0.287"",""0.413"",""0.743"",""0.971""]","[1,1,0,1]",0,47,47,47,1,0,0,,,1,FALSE,0.9179,,,,,,,,,,,,,,,,,,,,,,,,,,,,,,
,6062b3ef5e79b5705af82e42,001,2022-04-29_12h02.21.699,classification_task,2021.2.3,MacIntel,60.0024001,6062b3ef5e79b5705af82e42,626b377229c10585ec392f8a,626b4db15cb82e2aef33533b,,,,,,,,,,,,,,,,,,,,,,,a,0,"[""0.041"",""0.363"",""0.615"",""0.135""]","[1,1,1,0]",0,48,48,48,1,1,0,,,1,FALSE,0.8376,,,,,,,,,,,,,,,,,,,,,,,,,,,,,,
,6062b3ef5e79b5705af82e42,001,2022-04-29_12h02.21.699,classification_task,2021.2.3,MacIntel,60.0024001,6062b3ef5e79b5705af82e42,626b377229c10585ec392f8a,626b4db15cb82e2aef33533b,,,,,,,,,,,,,,,,,,,,,,,a,1,"[""0.323"",""0.504"",""0.853"",""0.464""]","[1,1,1,0]",0,49,49,49,1,0,1,,,1,FALSE,0.8489,,,,,,,,,,,,,,,,,,,,,,,,,,,,,,
,6062b3ef5e79b5705af82e42,001,2022-04-29_12h02.21.699,classification_task,2021.2.3,MacIntel,60.0024001,6062b3ef5e79b5705af82e42,626b377229c10585ec392f8a,626b4db15cb82e2aef33533b,,,,,,,,,,,,,,,,,,,,,,,l,1,"[""0.080"",""0.233"",""0.560"",""0.172""]","[1,1,1,0]",0,50,50,50,1,1,1,,,1,FALSE,0.8314,,,,,,,,,,,,,,,,,,,,,,,,,,,,,,
,6062b3ef5e79b5705af82e42,001,2022-04-29_12h02.21.699,classification_task,2021.2.3,MacIntel,60.0024001,6062b3ef5e79b5705af82e42,626b377229c10585ec392f8a,626b4db15cb82e2aef33533b,,,,,,,,,,,,,,,,,,,,,,,l,1,"[""0.041"",""0.743"",""0.615"",""0.792""]","[1,0,1,1]",0,51,51,51,1,1,0,,,1,FALSE,0.9777,,,,,,,,,,,,,,,,,,,,,,,,,,,,,,
,6062b3ef5e79b5705af82e42,001,2022-04-29_12h02.21.699,classification_task,2021.2.3,MacIntel,60.0024001,6062b3ef5e79b5705af82e42,626b377229c10585ec392f8a,626b4db15cb82e2aef33533b,,,,,,,,,,,,,,,,,,,,,,,a,0,"[""0.080"",""0.233"",""0.141"",""0.708""]","[1,1,0,1]",0,52,52,52,1,1,1,,,1,FALSE,0.9797,,,,,,,,,,,,,,,,,,,,,,,,,,,,,,
,6062b3ef5e79b5705af82e42,001,2022-04-29_12h02.21.699,classification_task,2021.2.3,MacIntel,60.0024001,6062b3ef5e79b5705af82e42,626b377229c10585ec392f8a,626b4db15cb82e2aef33533b,,,,,,,,,,,,,,,,,,,,,,,a,1,"[""0.287"",""0.156"",""0.936"",""0.971""]","[1,0,1,1]",0,53,53,53,1,0,0,,,1,FALSE,0.5977,,,,,,,,,,,,,,,,,,,,,,,,,,,,,,
,6062b3ef5e79b5705af82e42,001,2022-04-29_12h02.21.699,classification_task,2021.2.3,MacIntel,60.0024001,6062b3ef5e79b5705af82e42,626b377229c10585ec392f8a,626b4db15cb82e2aef33533b,,,,,,,,,,,,,,,,,,,,,,,l,0,"[""0.323"",""0.141"",""0.853"",""0.903""]","[1,0,1,1]",0,54,54,54,1,0,1,,,1,FALSE,1.4145,,,,,,,,,,,,,,,,,,,,,,,,,,,,,,
,6062b3ef5e79b5705af82e42,001,2022-04-29_12h02.21.699,classification_task,2021.2.3,MacIntel,60.0024001,6062b3ef5e79b5705af82e42,626b377229c10585ec392f8a,626b4db15cb82e2aef33533b,,,,,,,,,,,,,,,,,,,,,,,l,0,"[""0.464"",""0.504"",""0.853"",""0.903""]","[0,1,1,1]",0,55,55,55,1,0,1,,,1,FALSE,0.5174,,,,,,,,,,,,,,,,,,,,,,,,,,,,,,
,6062b3ef5e79b5705af82e42,001,2022-04-29_12h02.21.699,classification_task,2021.2.3,MacIntel,60.0024001,6062b3ef5e79b5705af82e42,626b377229c10585ec392f8a,626b4db15cb82e2aef33533b,,,,,,,,,,,,,,,,,,,,,,,l,0,"[""0.287"",""0.413"",""0.936"",""0.116""]","[1,1,1,0]",0,56,56,56,1,0,0,,,1,FALSE,0.9166,,,,,,,,,,,,,,,,,,,,,,,,,,,,,,
,6062b3ef5e79b5705af82e42,001,2022-04-29_12h02.21.699,classification_task,2021.2.3,MacIntel,60.0024001,6062b3ef5e79b5705af82e42,626b377229c10585ec392f8a,626b4db15cb82e2aef33533b,,,,,,,,,,,,,,,,,,,,,,,l,1,"[""0.199"",""0.363"",""0.615"",""0.792""]","[0,1,1,1]",0,57,57,57,1,1,0,,,1,FALSE,0.6798,,,,,,,,,,,,,,,,,,,,,,,,,,,,,,
,6062b3ef5e79b5705af82e42,001,2022-04-29_12h02.21.699,classification_task,2021.2.3,MacIntel,60.0024001,6062b3ef5e79b5705af82e42,626b377229c10585ec392f8a,626b4db15cb82e2aef33533b,,,,,,,,,,,,,,,,,,,,,,,l,0,"[""0.116"",""0.413"",""0.936"",""0.971""]","[0,1,1,1]",0,58,58,58,1,0,0,,,1,FALSE,1.2454,,,,,,,,,,,,,,,,,,,,,,,,,,,,,,
,6062b3ef5e79b5705af82e42,001,2022-04-29_12h02.21.699,classification_task,2021.2.3,MacIntel,60.0024001,6062b3ef5e79b5705af82e42,626b377229c10585ec392f8a,626b4db15cb82e2aef33533b,,,,,,,,,,,,,,,,,,,,,,,a,1,"[""0.323"",""0.504"",""0.467"",""0.903""]","[1,1,0,1]",0,59,59,59,1,0,1,,,1,FALSE,1.027,,,,,,,,,,,,,,,,,,,,,,,,,,,,,,
,6062b3ef5e79b5705af82e42,001,2022-04-29_12h02.21.699,classification_task,2021.2.3,MacIntel,60.0024001,6062b3ef5e79b5705af82e42,626b377229c10585ec392f8a,626b4db15cb82e2aef33533b,,,,,,,,,,,,,,,,,,,,,,,a,1,"[""0.287"",""0.413"",""0.464"",""0.971""]","[1,1,0,1]",0,60,60,60,1,0,0,,,1,FALSE,1.0971,,,,,,,,,,,,,,,,,,,,,,,,,,,,,,
,6062b3ef5e79b5705af82e42,001,2022-04-29_12h02.21.699,classification_task,2021.2.3,MacIntel,60.0024001,6062b3ef5e79b5705af82e42,626b377229c10585ec392f8a,626b4db15cb82e2aef33533b,,,,,,,,,,,,,,,,,,,,,,,l,1,"[""0.080"",""0.135"",""0.560"",""0.708""]","[1,0,1,1]",0,61,61,61,1,1,1,,,1,FALSE,1.5977,,,,,,,,,,,,,,,,,,,,,,,,,,,,,,
,6062b3ef5e79b5705af82e42,001,2022-04-29_12h02.21.699,classification_task,2021.2.3,MacIntel,60.0024001,6062b3ef5e79b5705af82e42,626b377229c10585ec392f8a,626b4db15cb82e2aef33533b,,,,,,,,,,,,,,,,,,,,,,,l,1,"[""0.041"",""0.363"",""0.467"",""0.792""]","[1,1,0,1]",0,62,62,62,1,1,0,,,1,FALSE,1.389,,,,,,,,,,,,,,,,,,,,,,,,,,,,,,
,6062b3ef5e79b5705af82e42,001,2022-04-29_12h02.21.699,classification_task,2021.2.3,MacIntel,60.0024001,6062b3ef5e79b5705af82e42,626b377229c10585ec392f8a,626b4db15cb82e2aef33533b,,,,,,,,,,,,,,,,,,,,,,,a,0,"[""0.457"",""0.233"",""0.560"",""0.708""]","[0,1,1,1]",0,63,63,63,1,1,1,,,1,FALSE,0.8167,,,,,,,,,,,,,,,,,,,,,,,,,,,,,,
,6062b3ef5e79b5705af82e42,001,2022-04-29_12h02.21.699,classification_task,2021.2.3,MacIntel,60.0024001,6062b3ef5e79b5705af82e42,626b377229c10585ec392f8a,626b4db15cb82e2aef33533b,,,,,,,,,,,,,,,,,,,,,,,,,,,,,,,,,,,,,,,0, ,,0,8.335419389,533.0064,0,0,0,0,1,2,1,,,,,,,,,,,,,,,,,
,6062b3ef5e79b5705af82e42,001,2022-04-29_12h02.21.699,classification_task,2021.2.3,MacIntel,60.0024001,6062b3ef5e79b5705af82e42,626b377229c10585ec392f8a,626b4db15cb82e2aef33533b,,,,,,,,,,,,,,,,,,,,,,,,,,,,,,,,,,,,,,,1,  ,,0,8.675367747,540.621,0,0,0,0,1,2,1,,,,,,,,,,,,,,,,,
,6062b3ef5e79b5705af82e42,001,2022-04-29_12h02.21.699,classification_task,2021.2.3,MacIntel,60.0024001,6062b3ef5e79b5705af82e42,626b377229c10585ec392f8a,626b4db15cb82e2aef33533b,,,,,,,,,,,,,,,,,,,,,,,,,,,,,,,,,,,,,,,2,  ,,0,5.055361327,546.1368,0,0,0,0,1,2,1,,,,,,,,,,,,,,,,,
,6062b3ef5e79b5705af82e42,001,2022-04-29_12h02.21.699,classification_task,2021.2.3,MacIntel,60.0024001,6062b3ef5e79b5705af82e42,626b377229c10585ec392f8a,626b4db15cb82e2aef33533b,,,,,,,,,,,,,,,,,,,,,,,,,,,,,,,,,,,,,,,,,,,,,0,0,0,0,1,,1,,,,,,,,,,,,,,,,,
,6062b3ef5e79b5705af82e42,001,2022-04-29_12h02.21.699,classification_task,2021.2.3,MacIntel,60.0024001,6062b3ef5e79b5705af82e42,626b377229c10585ec392f8a,626b4db15cb82e2aef33533b,,,,,,,,,,,,,,,,,,,,,space,23.7324,a,1,"[""0.323"",""0.504"",""0.853"",""0.156""]","[1,1,1,0]",0,0,0,0,1,0,1,,,1,FALSE,6.0909,,,,,,,,,,,,,,,,,,,,,,,,,,,,,,
,6062b3ef5e79b5705af82e42,001,2022-04-29_12h02.21.699,classification_task,2021.2.3,MacIntel,60.0024001,6062b3ef5e79b5705af82e42,626b377229c10585ec392f8a,626b4db15cb82e2aef33533b,,,,,,,,,,,,,,,,,,,,,,,l,1,"[""0.464"",""0.363"",""0.615"",""0.792""]","[0,1,1,1]",0,1,1,1,1,1,0,,,1,FALSE,2.2828,,,,,,,,,,,,,,,,,,,,,,,,,,,,,,
,6062b3ef5e79b5705af82e42,001,2022-04-29_12h02.21.699,classification_task,2021.2.3,MacIntel,60.0024001,6062b3ef5e79b5705af82e42,626b377229c10585ec392f8a,626b4db15cb82e2aef33533b,,,,,,,,,,,,,,,,,,,,,,,l,0,"[""0.156"",""0.413"",""0.936"",""0.971""]","[0,1,1,1]",0,2,2,2,1,0,0,,,1,FALSE,1.1039,,,,,,,,,,,,,,,,,,,,,,,,,,,,,,
,6062b3ef5e79b5705af82e42,001,2022-04-29_12h02.21.699,classification_task,2021.2.3,MacIntel,60.0024001,6062b3ef5e79b5705af82e42,626b377229c10585ec392f8a,626b4db15cb82e2aef33533b,,,,,,,,,,,,,,,,,,,,,,,l,1,"[""0.080"",""0.464"",""0.560"",""0.708""]","[1,0,1,1]",0,3,3,3,1,1,1,,,1,FALSE,2.7416,,,,,,,,,,,,,,,,,,,,,,,,,,,,,,
,6062b3ef5e79b5705af82e42,001,2022-04-29_12h02.21.699,classification_task,2021.2.3,MacIntel,60.0024001,6062b3ef5e79b5705af82e42,626b377229c10585ec392f8a,626b4db15cb82e2aef33533b,,,,,,,,,,,,,,,,,,,,,,,l,1,"[""0.041"",""0.363"",""0.615"",""0.156""]","[1,1,1,0]",0,4,4,4,1,1,0,,,1,FALSE,2.7056,,,,,,,,,,,,,,,,,,,,,,,,,,,,,,
,6062b3ef5e79b5705af82e42,001,2022-04-29_12h02.21.699,classification_task,2021.2.3,MacIntel,60.0024001,6062b3ef5e79b5705af82e42,626b377229c10585ec392f8a,626b4db15cb82e2aef33533b,,,,,,,,,,,,,,,,,,,,,,,a,1,"[""0.323"",""0.743"",""0.853"",""0.903""]","[1,0,1,1]",0,5,5,5,1,0,1,,,1,FALSE,1.2445,,,,,,,,,,,,,,,,,,,,,,,,,,,,,,
,6062b3ef5e79b5705af82e42,001,2022-04-29_12h02.21.699,classification_task,2021.2.3,MacIntel,60.0024001,6062b3ef5e79b5705af82e42,626b377229c10585ec392f8a,626b4db15cb82e2aef33533b,,,,,,,,,,,,,,,,,,,,,,,a,1,"[""0.287"",""0.413"",""0.156"",""0.971""]","[1,1,0,1]",0,6,6,6,1,0,0,,,1,FALSE,3.0551,,,,,,,,,,,,,,,,,,,,,,,,,,,,,,
,6062b3ef5e79b5705af82e42,001,2022-04-29_12h02.21.699,classification_task,2021.2.3,MacIntel,60.0024001,6062b3ef5e79b5705af82e42,626b377229c10585ec392f8a,626b4db15cb82e2aef33533b,,,,,,,,,,,,,,,,,,,,,,,a,0,"[""0.041"",""0.743"",""0.615"",""0.792""]","[1,0,1,1]",0,7,7,7,1,1,0,,,1,FALSE,1.7157,,,,,,,,,,,,,,,,,,,,,,,,,,,,,,
,6062b3ef5e79b5705af82e42,001,2022-04-29_12h02.21.699,classification_task,2021.2.3,MacIntel,60.0024001,6062b3ef5e79b5705af82e42,626b377229c10585ec392f8a,626b4db15cb82e2aef33533b,,,,,,,,,,,,,,,,,,,,,,,l,1,"[""0.080"",""0.233"",""0.199"",""0.708""]","[1,1,0,1]",0,8,8,8,1,1,1,,,1,FALSE,1.1876,,,,,,,,,,,,,,,,,,,,,,,,,,,,,,
,6062b3ef5e79b5705af82e42,001,2022-04-29_12h02.21.699,classification_task,2021.2.3,MacIntel,60.0024001,6062b3ef5e79b5705af82e42,626b377229c10585ec392f8a,626b4db15cb82e2aef33533b,,,,,,,,,,,,,,,,,,,,,,,l,1,"[""0.199"",""0.233"",""0.560"",""0.708""]","[0,1,1,1]",0,9,9,9,1,1,1,,,1,FALSE,1.5939,,,,,,,,,,,,,,,,,,,,,,,,,,,,,,
,6062b3ef5e79b5705af82e42,001,2022-04-29_12h02.21.699,classification_task,2021.2.3,MacIntel,60.0024001,6062b3ef5e79b5705af82e42,626b377229c10585ec392f8a,626b4db15cb82e2aef33533b,,,,,,,,,,,,,,,,,,,,,,,l,1,"[""0.080"",""0.233"",""0.560"",""0.176""]","[1,1,1,0]",0,10,10,10,1,1,1,,,1,FALSE,1.7364,,,,,,,,,,,,,,,,,,,,,,,,,,,,,,
,6062b3ef5e79b5705af82e42,001,2022-04-29_12h02.21.699,classification_task,2021.2.3,MacIntel,60.0024001,6062b3ef5e79b5705af82e42,626b377229c10585ec392f8a,626b4db15cb82e2aef33533b,,,,,,,,,,,,,,,,,,,,,,,a,1,"[""0.323"",""0.504"",""0.135"",""0.903""]","[1,1,0,1]",0,11,11,11,1,0,1,,,1,FALSE,1.3479,,,,,,,,,,,,,,,,,,,,,,,,,,,,,,
,6062b3ef5e79b5705af82e42,001,2022-04-29_12h02.21.699,classification_task,2021.2.3,MacIntel,60.0024001,6062b3ef5e79b5705af82e42,626b377229c10585ec392f8a,626b4db15cb82e2aef33533b,,,,,,,,,,,,,,,,,,,,,,,a,1,"[""0.287"",""0.156"",""0.936"",""0.971""]","[1,0,1,1]",0,12,12,12,1,0,0,,,1,FALSE,2.1446,,,,,,,,,,,,,,,,,,,,,,,,,,,,,,
,6062b3ef5e79b5705af82e42,001,2022-04-29_12h02.21.699,classification_task,2021.2.3,MacIntel,60.0024001,6062b3ef5e79b5705af82e42,626b377229c10585ec392f8a,626b4db15cb82e2aef33533b,,,,,,,,,,,,,,,,,,,,,,,a,1,"[""0.457"",""0.504"",""0.853"",""0.903""]","[0,1,1,1]",0,13,13,13,1,0,1,,,1,FALSE,1.1164,,,,,,,,,,,,,,,,,,,,,,,,,,,,,,
,6062b3ef5e79b5705af82e42,001,2022-04-29_12h02.21.699,classification_task,2021.2.3,MacIntel,60.0024001,6062b3ef5e79b5705af82e42,626b377229c10585ec392f8a,626b4db15cb82e2aef33533b,,,,,,,,,,,,,,,,,,,,,,,l,0,"[""0.287"",""0.413"",""0.936"",""0.160""]","[1,1,1,0]",0,14,14,14,1,0,0,,,1,FALSE,2.0556,,,,,,,,,,,,,,,,,,,,,,,,,,,,,,
,6062b3ef5e79b5705af82e42,001,2022-04-29_12h02.21.699,classification_task,2021.2.3,MacIntel,60.0024001,6062b3ef5e79b5705af82e42,626b377229c10585ec392f8a,626b4db15cb82e2aef33533b,,,,,,,,,,,,,,,,,,,,,,,l,1,"[""0.041"",""0.363"",""0.160"",""0.792""]","[1,1,0,1]",0,15,15,15,1,1,0,,,1,FALSE,1.2348,,,,,,,,,,,,,,,,,,,,,,,,,,,,,,
,6062b3ef5e79b5705af82e42,001,2022-04-29_12h02.21.699,classification_task,2021.2.3,MacIntel,60.0024001,6062b3ef5e79b5705af82e42,626b377229c10585ec392f8a,626b4db15cb82e2aef33533b,,,,,,,,,,,,,,,,,,,,,,,a,0,"[""0.041"",""0.141"",""0.615"",""0.792""]","[1,0,1,1]",0,16,16,16,1,1,0,,,1,FALSE,0.9468,,,,,,,,,,,,,,,,,,,,,,,,,,,,,,
,6062b3ef5e79b5705af82e42,001,2022-04-29_12h02.21.699,classification_task,2021.2.3,MacIntel,60.0024001,6062b3ef5e79b5705af82e42,626b377229c10585ec392f8a,626b4db15cb82e2aef33533b,,,,,,,,,,,,,,,,,,,,,,,a,1,"[""0.287"",""0.467"",""0.936"",""0.971""]","[1,0,1,1]",0,17,17,17,1,0,0,,,1,FALSE,1.5142,,,,,,,,,,,,,,,,,,,,,,,,,,,,,,
,6062b3ef5e79b5705af82e42,001,2022-04-29_12h02.21.699,classification_task,2021.2.3,MacIntel,60.0024001,6062b3ef5e79b5705af82e42,626b377229c10585ec392f8a,626b4db15cb82e2aef33533b,,,,,,,,,,,,,,,,,,,,,,,l,1,"[""0.041"",""0.363"",""0.199"",""0.792""]","[1,1,0,1]",0,18,18,18,1,1,0,,,1,FALSE,1.0741,,,,,,,,,,,,,,,,,,,,,,,,,,,,,,
,6062b3ef5e79b5705af82e42,001,2022-04-29_12h02.21.699,classification_task,2021.2.3,MacIntel,60.0024001,6062b3ef5e79b5705af82e42,626b377229c10585ec392f8a,626b4db15cb82e2aef33533b,,,,,,,,,,,,,,,,,,,,,,,l,0,"[""0.287"",""0.413"",""0.165"",""0.971""]","[1,1,0,1]",0,19,19,19,1,0,0,,,1,FALSE,1.3809,,,,,,,,,,,,,,,,,,,,,,,,,,,,,,
,6062b3ef5e79b5705af82e42,001,2022-04-29_12h02.21.699,classification_task,2021.2.3,MacIntel,60.0024001,6062b3ef5e79b5705af82e42,626b377229c10585ec392f8a,626b4db15cb82e2aef33533b,,,,,,,,,,,,,,,,,,,,,,,a,1,"[""0.156"",""0.504"",""0.853"",""0.903""]","[0,1,1,1]",0,20,20,20,1,0,1,,,1,FALSE,1.1583,,,,,,,,,,,,,,,,,,,,,,,,,,,,,,
,6062b3ef5e79b5705af82e42,001,2022-04-29_12h02.21.699,classification_task,2021.2.3,MacIntel,60.0024001,6062b3ef5e79b5705af82e42,626b377229c10585ec392f8a,626b4db15cb82e2aef33533b,,,,,,,,,,,,,,,,,,,,,,,l,1,"[""0.080"",""0.233"",""0.169"",""0.708""]","[1,1,0,1]",0,21,21,21,1,1,1,,,1,FALSE,1.1934,,,,,,,,,,,,,,,,,,,,,,,,,,,,,,
,6062b3ef5e79b5705af82e42,001,2022-04-29_12h02.21.699,classification_task,2021.2.3,MacIntel,60.0024001,6062b3ef5e79b5705af82e42,626b377229c10585ec392f8a,626b4db15cb82e2aef33533b,,,,,,,,,,,,,,,,,,,,,,,a,1,"[""0.323"",""0.504"",""0.156"",""0.903""]","[1,1,0,1]",0,22,22,22,1,0,1,,,1,FALSE,1.0861,,,,,,,,,,,,,,,,,,,,,,,,,,,,,,
,6062b3ef5e79b5705af82e42,001,2022-04-29_12h02.21.699,classification_task,2021.2.3,MacIntel,60.0024001,6062b3ef5e79b5705af82e42,626b377229c10585ec392f8a,626b4db15cb82e2aef33533b,,,,,,,,,,,,,,,,,,,,,,,l,1,"[""0.450"",""0.363"",""0.615"",""0.792""]","[0,1,1,1]",0,23,23,23,1,1,0,,,1,FALSE,3.4753,,,,,,,,,,,,,,,,,,,,,,,,,,,,,,
,6062b3ef5e79b5705af82e42,001,2022-04-29_12h02.21.699,classification_task,2021.2.3,MacIntel,60.0024001,6062b3ef5e79b5705af82e42,626b377229c10585ec392f8a,626b4db15cb82e2aef33533b,,,,,,,,,,,,,,,,,,,,,,,a,1,"[""0.323"",""0.464"",""0.853"",""0.903""]","[1,0,1,1]",0,24,24,24,1,0,1,,,1,FALSE,0.8478,,,,,,,,,,,,,,,,,,,,,,,,,,,,,,
,6062b3ef5e79b5705af82e42,001,2022-04-29_12h02.21.699,classification_task,2021.2.3,MacIntel,60.0024001,6062b3ef5e79b5705af82e42,626b377229c10585ec392f8a,626b4db15cb82e2aef33533b,,,,,,,,,,,,,,,,,,,,,,,l,1,"[""0.160"",""0.233"",""0.560"",""0.708""]","[0,1,1,1]",0,25,25,25,1,1,1,,,1,FALSE,0.7968,,,,,,,,,,,,,,,,,,,,,,,,,,,,,,
,6062b3ef5e79b5705af82e42,001,2022-04-29_12h02.21.699,classification_task,2021.2.3,MacIntel,60.0024001,6062b3ef5e79b5705af82e42,626b377229c10585ec392f8a,626b4db15cb82e2aef33533b,,,,,,,,,,,,,,,,,,,,,,,l,0,"[""0.467"",""0.413"",""0.936"",""0.971""]","[0,1,1,1]",0,26,26,26,1,0,0,,,1,FALSE,1.3735,,,,,,,,,,,,,,,,,,,,,,,,,,,,,,
,6062b3ef5e79b5705af82e42,001,2022-04-29_12h02.21.699,classification_task,2021.2.3,MacIntel,60.0024001,6062b3ef5e79b5705af82e42,626b377229c10585ec392f8a,626b4db15cb82e2aef33533b,,,,,,,,,,,,,,,,,,,,,,,l,1,"[""0.080"",""0.169"",""0.560"",""0.708""]","[1,0,1,1]",0,27,27,27,1,1,1,,,1,FALSE,1.0706,,,,,,,,,,,,,,,,,,,,,,,,,,,,,,
,6062b3ef5e79b5705af82e42,001,2022-04-29_12h02.21.699,classification_task,2021.2.3,MacIntel,60.0024001,6062b3ef5e79b5705af82e42,626b377229c10585ec392f8a,626b4db15cb82e2aef33533b,,,,,,,,,,,,,,,,,,,,,,,a,0,"[""0.041"",""0.363"",""0.615"",""0.116""]","[1,1,1,0]",0,28,28,28,1,1,0,,,1,FALSE,1.0427,,,,,,,,,,,,,,,,,,,,,,,,,,,,,,
,6062b3ef5e79b5705af82e42,001,2022-04-29_12h02.21.699,classification_task,2021.2.3,MacIntel,60.0024001,6062b3ef5e79b5705af82e42,626b377229c10585ec392f8a,626b4db15cb82e2aef33533b,,,,,,,,,,,,,,,,,,,,,,,l,1,"[""0.080"",""0.233"",""0.560"",""0.165""]","[1,1,1,0]",0,29,29,29,1,1,1,,,1,FALSE,1.0024,,,,,,,,,,,,,,,,,,,,,,,,,,,,,,
,6062b3ef5e79b5705af82e42,001,2022-04-29_12h02.21.699,classification_task,2021.2.3,MacIntel,60.0024001,6062b3ef5e79b5705af82e42,626b377229c10585ec392f8a,626b4db15cb82e2aef33533b,,,,,,,,,,,,,,,,,,,,,,,l,0,"[""0.287"",""0.413"",""0.936"",""0.172""]","[1,1,1,0]",0,30,30,30,1,0,0,,,1,FALSE,0.6417,,,,,,,,,,,,,,,,,,,,,,,,,,,,,,
,6062b3ef5e79b5705af82e42,001,2022-04-29_12h02.21.699,classification_task,2021.2.3,MacIntel,60.0024001,6062b3ef5e79b5705af82e42,626b377229c10585ec392f8a,626b4db15cb82e2aef33533b,,,,,,,,,,,,,,,,,,,,,,,a,1,"[""0.323"",""0.504"",""0.853"",""0.464""]","[1,1,1,0]",0,31,31,31,1,0,1,,,1,FALSE,1.0439,,,,,,,,,,,,,,,,,,,,,,,,,,,,,,
,6062b3ef5e79b5705af82e42,001,2022-04-29_12h02.21.699,classification_task,2021.2.3,MacIntel,60.0024001,6062b3ef5e79b5705af82e42,626b377229c10585ec392f8a,626b4db15cb82e2aef33533b,,,,,,,,,,,,,,,,,,,,,,,a,0,"[""0.041"",""0.363"",""0.450"",""0.792""]","[1,1,0,1]",0,32,32,32,1,1,0,,,1,FALSE,0.725,,,,,,,,,,,,,,,,,,,,,,,,,,,,,,
,6062b3ef5e79b5705af82e42,001,2022-04-29_12h02.21.699,classification_task,2021.2.3,MacIntel,60.0024001,6062b3ef5e79b5705af82e42,626b377229c10585ec392f8a,626b4db15cb82e2aef33533b,,,,,,,,,,,,,,,,,,,,,,,l,1,"[""0.080"",""0.233"",""0.156"",""0.708""]","[1,1,0,1]",0,33,33,33,1,1,1,,,1,FALSE,0.7725,,,,,,,,,,,,,,,,,,,,,,,,,,,,,,
,6062b3ef5e79b5705af82e42,001,2022-04-29_12h02.21.699,classification_task,2021.2.3,MacIntel,60.0024001,6062b3ef5e79b5705af82e42,626b377229c10585ec392f8a,626b4db15cb82e2aef33533b,,,,,,,,,,,,,,,,,,,,,,,a,1,"[""0.160"",""0.504"",""0.853"",""0.903""]","[0,1,1,1]",0,34,34,34,1,0,1,,,1,FALSE,0.547,,,,,,,,,,,,,,,,,,,,,,,,,,,,,,
,6062b3ef5e79b5705af82e42,001,2022-04-29_12h02.21.699,classification_task,2021.2.3,MacIntel,60.0024001,6062b3ef5e79b5705af82e42,626b377229c10585ec392f8a,626b4db15cb82e2aef33533b,,,,,,,,,,,,,,,,,,,,,,,l,1,"[""0.156"",""0.233"",""0.560"",""0.708""]","[0,1,1,1]",0,35,35,35,1,1,1,,,1,FALSE,0.7412,,,,,,,,,,,,,,,,,,,,,,,,,,,,,,
,6062b3ef5e79b5705af82e42,001,2022-04-29_12h02.21.699,classification_task,2021.2.3,MacIntel,60.0024001,6062b3ef5e79b5705af82e42,626b377229c10585ec392f8a,626b4db15cb82e2aef33533b,,,,,,,,,,,,,,,,,,,,,,,a,1,"[""0.323"",""0.504"",""0.853"",""0.176""]","[1,1,1,0]",0,36,36,36,1,0,1,,,1,FALSE,0.8942,,,,,,,,,,,,,,,,,,,,,,,,,,,,,,
,6062b3ef5e79b5705af82e42,001,2022-04-29_12h02.21.699,classification_task,2021.2.3,MacIntel,60.0024001,6062b3ef5e79b5705af82e42,626b377229c10585ec392f8a,626b4db15cb82e2aef33533b,,,,,,,,,,,,,,,,,,,,,,,a,1,"[""0.323"",""0.504"",""0.457"",""0.903""]","[1,1,0,1]",0,37,37,37,1,0,1,,,1,FALSE,1.0655,,,,,,,,,,,,,,,,,,,,,,,,,,,,,,
,6062b3ef5e79b5705af82e42,001,2022-04-29_12h02.21.699,classification_task,2021.2.3,MacIntel,60.0024001,6062b3ef5e79b5705af82e42,626b377229c10585ec392f8a,626b4db15cb82e2aef33533b,,,,,,,,,,,,,,,,,,,,,,,a,1,"[""0.287"",""0.176"",""0.936"",""0.971""]","[1,0,1,1]",0,38,38,38,1,0,0,,,1,FALSE,0.8094,,,,,,,,,,,,,,,,,,,,,,,,,,,,,,
,6062b3ef5e79b5705af82e42,001,2022-04-29_12h02.21.699,classification_task,2021.2.3,MacIntel,60.0024001,6062b3ef5e79b5705af82e42,626b377229c10585ec392f8a,626b4db15cb82e2aef33533b,,,,,,,,,,,,,,,,,,,,,,,a,0,"[""0.041"",""0.363"",""0.615"",""0.160""]","[1,1,1,0]",0,39,39,39,1,1,0,,,1,FALSE,0.9749,,,,,,,,,,,,,,,,,,,,,,,,,,,,,,
,6062b3ef5e79b5705af82e42,001,2022-04-29_12h02.21.699,classification_task,2021.2.3,MacIntel,60.0024001,6062b3ef5e79b5705af82e42,626b377229c10585ec392f8a,626b4db15cb82e2aef33533b,,,,,,,,,,,,,,,,,,,,,,,a,1,"[""0.323"",""0.116"",""0.853"",""0.903""]","[1,0,1,1]",0,40,40,40,1,0,1,,,1,FALSE,1.0742,,,,,,,,,,,,,,,,,,,,,,,,,,,,,,
,6062b3ef5e79b5705af82e42,001,2022-04-29_12h02.21.699,classification_task,2021.2.3,MacIntel,60.0024001,6062b3ef5e79b5705af82e42,626b377229c10585ec392f8a,626b4db15cb82e2aef33533b,,,,,,,,,,,,,,,,,,,,,,,l,1,"[""0.160"",""0.363"",""0.615"",""0.792""]","[0,1,1,1]",0,41,41,41,1,1,0,,,1,FALSE,1.2948,,,,,,,,,,,,,,,,,,,,,,,,,,,,,,
,6062b3ef5e79b5705af82e42,001,2022-04-29_12h02.21.699,classification_task,2021.2.3,MacIntel,60.0024001,6062b3ef5e79b5705af82e42,626b377229c10585ec392f8a,626b4db15cb82e2aef33533b,,,,,,,,,,,,,,,,,,,,,,,l,1,"[""0.041"",""0.199"",""0.615"",""0.792""]","[1,0,1,1]",0,42,42,42,1,1,0,,,1,FALSE,0.979,,,,,,,,,,,,,,,,,,,,,,,,,,,,,,
,6062b3ef5e79b5705af82e42,001,2022-04-29_12h02.21.699,classification_task,2021.2.3,MacIntel,60.0024001,6062b3ef5e79b5705af82e42,626b377229c10585ec392f8a,626b4db15cb82e2aef33533b,,,,,,,,,,,,,,,,,,,,,,,l,1,"[""0.080"",""0.233"",""0.560"",""0.467""]","[1,1,1,0]",0,43,43,43,1,1,1,,,1,FALSE,0.9916,,,,,,,,,,,,,,,,,,,,,,,,,,,,,,
,6062b3ef5e79b5705af82e42,001,2022-04-29_12h02.21.699,classification_task,2021.2.3,MacIntel,60.0024001,6062b3ef5e79b5705af82e42,626b377229c10585ec392f8a,626b4db15cb82e2aef33533b,,,,,,,,,,,,,,,,,,,,,,,a,1,"[""0.199"",""0.413"",""0.936"",""0.971""]","[0,1,1,1]",0,44,44,44,1,0,0,,,1,FALSE,1.4116,,,,,,,,,,,,,,,,,,,,,,,,,,,,,,
,6062b3ef5e79b5705af82e42,001,2022-04-29_12h02.21.699,classification_task,2021.2.3,MacIntel,60.0024001,6062b3ef5e79b5705af82e42,626b377229c10585ec392f8a,626b4db15cb82e2aef33533b,,,,,,,,,,,,,,,,,,,,,,,l,1,"[""0.080"",""0.169"",""0.560"",""0.708""]","[1,0,1,1]",0,45,45,45,1,1,1,,,1,FALSE,1.7117,,,,,,,,,,,,,,,,,,,,,,,,,,,,,,
,6062b3ef5e79b5705af82e42,001,2022-04-29_12h02.21.699,classification_task,2021.2.3,MacIntel,60.0024001,6062b3ef5e79b5705af82e42,626b377229c10585ec392f8a,626b4db15cb82e2aef33533b,,,,,,,,,,,,,,,,,,,,,,,l,0,"[""0.287"",""0.413"",""0.936"",""0.176""]","[1,1,1,0]",0,46,46,46,1,0,0,,,1,FALSE,1.1014,,,,,,,,,,,,,,,,,,,,,,,,,,,,,,
,6062b3ef5e79b5705af82e42,001,2022-04-29_12h02.21.699,classification_task,2021.2.3,MacIntel,60.0024001,6062b3ef5e79b5705af82e42,626b377229c10585ec392f8a,626b4db15cb82e2aef33533b,,,,,,,,,,,,,,,,,,,,,,,a,1,"[""0.287"",""0.413"",""0.172"",""0.971""]","[1,1,0,1]",0,47,47,47,1,0,0,,,1,FALSE,1.1158,,,,,,,,,,,,,,,,,,,,,,,,,,,,,,
,6062b3ef5e79b5705af82e42,001,2022-04-29_12h02.21.699,classification_task,2021.2.3,MacIntel,60.0024001,6062b3ef5e79b5705af82e42,626b377229c10585ec392f8a,626b4db15cb82e2aef33533b,,,,,,,,,,,,,,,,,,,,,,,a,0,"[""0.041"",""0.743"",""0.615"",""0.792""]","[1,0,1,1]",0,48,48,48,1,1,0,,,1,FALSE,1.0458,,,,,,,,,,,,,,,,,,,,,,,,,,,,,,
,6062b3ef5e79b5705af82e42,001,2022-04-29_12h02.21.699,classification_task,2021.2.3,MacIntel,60.0024001,6062b3ef5e79b5705af82e42,626b377229c10585ec392f8a,626b4db15cb82e2aef33533b,,,,,,,,,,,,,,,,,,,,,,,a,0,"[""0.156"",""0.363"",""0.615"",""0.792""]","[0,1,1,1]",0,49,49,49,1,1,0,,,1,FALSE,0.7857,,,,,,,,,,,,,,,,,,,,,,,,,,,,,,
,6062b3ef5e79b5705af82e42,001,2022-04-29_12h02.21.699,classification_task,2021.2.3,MacIntel,60.0024001,6062b3ef5e79b5705af82e42,626b377229c10585ec392f8a,626b4db15cb82e2aef33533b,,,,,,,,,,,,,,,,,,,,,,,l,1,"[""0.080"",""0.233"",""0.172"",""0.708""]","[1,1,0,1]",0,50,50,50,1,1,1,,,1,FALSE,0.9315,,,,,,,,,,,,,,,,,,,,,,,,,,,,,,
,6062b3ef5e79b5705af82e42,001,2022-04-29_12h02.21.699,classification_task,2021.2.3,MacIntel,60.0024001,6062b3ef5e79b5705af82e42,626b377229c10585ec392f8a,626b4db15cb82e2aef33533b,,,,,,,,,,,,,,,,,,,,,,,a,1,"[""0.323"",""0.504"",""0.853"",""0.165""]","[1,1,1,0]",0,51,51,51,1,0,1,,,1,FALSE,1.3285,,,,,,,,,,,,,,,,,,,,,,,,,,,,,,
,6062b3ef5e79b5705af82e42,001,2022-04-29_12h02.21.699,classification_task,2021.2.3,MacIntel,60.0024001,6062b3ef5e79b5705af82e42,626b377229c10585ec392f8a,626b4db15cb82e2aef33533b,,,,,,,,,,,,,,,,,,,,,,,l,0,"[""0.287"",""0.165"",""0.936"",""0.971""]","[1,0,1,1]",0,52,52,52,1,0,0,,,1,FALSE,2.3072,,,,,,,,,,,,,,,,,,,,,,,,,,,,,,
,6062b3ef5e79b5705af82e42,001,2022-04-29_12h02.21.699,classification_task,2021.2.3,MacIntel,60.0024001,6062b3ef5e79b5705af82e42,626b377229c10585ec392f8a,626b4db15cb82e2aef33533b,,,,,,,,,,,,,,,,,,,,,,,a,1,"[""0.287"",""0.413"",""0.936"",""0.457""]","[1,1,1,0]",0,53,53,53,1,0,0,,,1,FALSE,1.0321,,,,,,,,,,,,,,,,,,,,,,,,,,,,,,
,6062b3ef5e79b5705af82e42,001,2022-04-29_12h02.21.699,classification_task,2021.2.3,MacIntel,60.0024001,6062b3ef5e79b5705af82e42,626b377229c10585ec392f8a,626b4db15cb82e2aef33533b,,,,,,,,,,,,,,,,,,,,,,,l,1,"[""0.080"",""0.116"",""0.560"",""0.708""]","[1,0,1,1]",0,54,54,54,1,1,1,,,1,FALSE,0.9901,,,,,,,,,,,,,,,,,,,,,,,,,,,,,,
,6062b3ef5e79b5705af82e42,001,2022-04-29_12h02.21.699,classification_task,2021.2.3,MacIntel,60.0024001,6062b3ef5e79b5705af82e42,626b377229c10585ec392f8a,626b4db15cb82e2aef33533b,,,,,,,,,,,,,,,,,,,,,,,a,1,"[""0.323"",""0.457"",""0.853"",""0.903""]","[1,0,1,1]",0,55,55,55,1,0,1,,,1,FALSE,0.7791,,,,,,,,,,,,,,,,,,,,,,,,,,,,,,
,6062b3ef5e79b5705af82e42,001,2022-04-29_12h02.21.699,classification_task,2021.2.3,MacIntel,60.0024001,6062b3ef5e79b5705af82e42,626b377229c10585ec392f8a,626b4db15cb82e2aef33533b,,,,,,,,,,,,,,,,,,,,,,,l,1,"[""0.080"",""0.233"",""0.560"",""0.135""]","[1,1,1,0]",0,56,56,56,1,1,1,,,1,FALSE,0.681,,,,,,,,,,,,,,,,,,,,,,,,,,,,,,
,6062b3ef5e79b5705af82e42,001,2022-04-29_12h02.21.699,classification_task,2021.2.3,MacIntel,60.0024001,6062b3ef5e79b5705af82e42,626b377229c10585ec392f8a,626b4db15cb82e2aef33533b,,,,,,,,,,,,,,,,,,,,,,,l,1,"[""0.041"",""0.363"",""0.169"",""0.792""]","[1,1,0,1]",0,57,57,57,1,1,0,,,1,FALSE,1.0602,,,,,,,,,,,,,,,,,,,,,,,,,,,,,,
,6062b3ef5e79b5705af82e42,001,2022-04-29_12h02.21.699,classification_task,2021.2.3,MacIntel,60.0024001,6062b3ef5e79b5705af82e42,626b377229c10585ec392f8a,626b4db15cb82e2aef33533b,,,,,,,,,,,,,,,,,,,,,,,l,0,"[""0.287"",""0.413"",""0.467"",""0.971""]","[1,1,0,1]",0,58,58,58,1,0,0,,,1,FALSE,0.8164,,,,,,,,,,,,,,,,,,,,,,,,,,,,,,
,6062b3ef5e79b5705af82e42,001,2022-04-29_12h02.21.699,classification_task,2021.2.3,MacIntel,60.0024001,6062b3ef5e79b5705af82e42,626b377229c10585ec392f8a,626b4db15cb82e2aef33533b,,,,,,,,,,,,,,,,,,,,,,,a,1,"[""0.743"",""0.504"",""0.853"",""0.903""]","[0,1,1,1]",0,59,59,59,1,0,1,,,1,FALSE,1.0098,,,,,,,,,,,,,,,,,,,,,,,,,,,,,,
,6062b3ef5e79b5705af82e42,001,2022-04-29_12h02.21.699,classification_task,2021.2.3,MacIntel,60.0024001,6062b3ef5e79b5705af82e42,626b377229c10585ec392f8a,626b4db15cb82e2aef33533b,,,,,,,,,,,,,,,,,,,,,,,a,0,"[""0.041"",""0.363"",""0.615"",""0.165""]","[1,1,1,0]",0,60,60,60,1,1,0,,,1,FALSE,1.3111,,,,,,,,,,,,,,,,,,,,,,,,,,,,,,
,6062b3ef5e79b5705af82e42,001,2022-04-29_12h02.21.699,classification_task,2021.2.3,MacIntel,60.0024001,6062b3ef5e79b5705af82e42,626b377229c10585ec392f8a,626b4db15cb82e2aef33533b,,,,,,,,,,,,,,,,,,,,,,,a,1,"[""0.165"",""0.413"",""0.936"",""0.971""]","[0,1,1,1]",0,61,61,61,1,0,0,,,1,FALSE,1.0793,,,,,,,,,,,,,,,,,,,,,,,,,,,,,,
,6062b3ef5e79b5705af82e42,001,2022-04-29_12h02.21.699,classification_task,2021.2.3,MacIntel,60.0024001,6062b3ef5e79b5705af82e42,626b377229c10585ec392f8a,626b4db15cb82e2aef33533b,,,,,,,,,,,,,,,,,,,,,,,a,1,"[""0.323"",""0.504"",""0.467"",""0.903""]","[1,1,0,1]",0,62,62,62,1,0,1,,,1,FALSE,0.9573,,,,,,,,,,,,,,,,,,,,,,,,,,,,,,
,6062b3ef5e79b5705af82e42,001,2022-04-29_12h02.21.699,classification_task,2021.2.3,MacIntel,60.0024001,6062b3ef5e79b5705af82e42,626b377229c10585ec392f8a,626b4db15cb82e2aef33533b,,,,,,,,,,,,,,,,,,,,,,,l,1,"[""0.169"",""0.233"",""0.560"",""0.708""]","[0,1,1,1]",0,63,63,63,1,1,1,,,1,FALSE,0.8798,,,,,,,,,,,,,,,,,,,,,,,,,,,,,,
,6062b3ef5e79b5705af82e42,001,2022-04-29_12h02.21.699,classification_task,2021.2.3,MacIntel,60.0024001,6062b3ef5e79b5705af82e42,626b377229c10585ec392f8a,626b4db15cb82e2aef33533b,,,,,,,,,,,,,,,,,,,,,,,,,,,,,,,,,,,,,,,0, ,,0,7.300485966,178.9596,0,1,1,1,1,2,2,,,,,,,,,,,,,,,,,
,6062b3ef5e79b5705af82e42,001,2022-04-29_12h02.21.699,classification_task,2021.2.3,MacIntel,60.0024001,6062b3ef5e79b5705af82e42,626b377229c10585ec392f8a,626b4db15cb82e2aef33533b,,,,,,,,,,,,,,,,,,,,,,,,,,,,,,,,,,,,,,,1,  ,,0,7.701977807,180.107,0,1,1,1,1,2,2,,,,,,,,,,,,,,,,,
,6062b3ef5e79b5705af82e42,001,2022-04-29_12h02.21.699,classification_task,2021.2.3,MacIntel,60.0024001,6062b3ef5e79b5705af82e42,626b377229c10585ec392f8a,626b4db15cb82e2aef33533b,,,,,,,,,,,,,,,,,,,,,,,,,,,,,,,,,,,,,,,2,  ,,0,5.104491159,182.8066,0,1,1,1,1,2,2,,,,,,,,,,,,,,,,,
,6062b3ef5e79b5705af82e42,001,2022-04-29_12h02.21.699,classification_task,2021.2.3,MacIntel,60.0024001,6062b3ef5e79b5705af82e42,626b377229c10585ec392f8a,626b4db15cb82e2aef33533b,,,,,,,,,,,,,,,,,,,,,,,,,,,,,,,,,,,,,,,,,,,,,0,1,1,1,1,,2,,,,,,,,,,,,,,,,,
,6062b3ef5e79b5705af82e42,001,2022-04-29_12h02.21.699,classification_task,2021.2.3,MacIntel,60.0024001,6062b3ef5e79b5705af82e42,626b377229c10585ec392f8a,626b4db15cb82e2aef33533b,,,,,,,,,,,,,,,,,,,,,space,12.9657,a,0,"[""0.080"",""0.233"",""0.457"",""0.708""]","[1,1,0,1]",0,0,0,0,1,1,1,,,1,FALSE,3.1702,,,,,,,,,,,,,,,,,,,,,,,,,,,,,,
,6062b3ef5e79b5705af82e42,001,2022-04-29_12h02.21.699,classification_task,2021.2.3,MacIntel,60.0024001,6062b3ef5e79b5705af82e42,626b377229c10585ec392f8a,626b4db15cb82e2aef33533b,,,,,,,,,,,,,,,,,,,,,,,a,0,"[""0.135"",""0.233"",""0.560"",""0.708""]","[0,1,1,1]",0,1,1,1,1,1,1,,,1,FALSE,3.2542,,,,,,,,,,,,,,,,,,,,,,,,,,,,,,
,6062b3ef5e79b5705af82e42,001,2022-04-29_12h02.21.699,classification_task,2021.2.3,MacIntel,60.0024001,6062b3ef5e79b5705af82e42,626b377229c10585ec392f8a,626b4db15cb82e2aef33533b,,,,,,,,,,,,,,,,,,,,,,,a,0,"[""0.080"",""0.169"",""0.560"",""0.708""]","[1,0,1,1]",0,2,2,2,1,1,1,,,1,FALSE,1.7694,,,,,,,,,,,,,,,,,,,,,,,,,,,,,,
,6062b3ef5e79b5705af82e42,001,2022-04-29_12h02.21.699,classification_task,2021.2.3,MacIntel,60.0024001,6062b3ef5e79b5705af82e42,626b377229c10585ec392f8a,626b4db15cb82e2aef33533b,,,,,,,,,,,,,,,,,,,,,,,l,1,"[""0.041"",""0.141"",""0.615"",""0.792""]","[1,0,1,1]",0,3,3,3,1,1,0,,,1,FALSE,1.6986,,,,,,,,,,,,,,,,,,,,,,,,,,,,,,
,6062b3ef5e79b5705af82e42,001,2022-04-29_12h02.21.699,classification_task,2021.2.3,MacIntel,60.0024001,6062b3ef5e79b5705af82e42,626b377229c10585ec392f8a,626b4db15cb82e2aef33533b,,,,,,,,,,,,,,,,,,,,,,,l,1,"[""0.041"",""0.363"",""0.160"",""0.792""]","[1,1,0,1]",0,4,4,4,1,1,0,,,1,FALSE,1.0317,,,,,,,,,,,,,,,,,,,,,,,,,,,,,,
,6062b3ef5e79b5705af82e42,001,2022-04-29_12h02.21.699,classification_task,2021.2.3,MacIntel,60.0024001,6062b3ef5e79b5705af82e42,626b377229c10585ec392f8a,626b4db15cb82e2aef33533b,,,,,,,,,,,,,,,,,,,,,,,a,1,"[""0.323"",""0.504"",""0.853"",""0.116""]","[1,1,1,0]",0,5,5,5,1,0,1,,,1,FALSE,1.2513,,,,,,,,,,,,,,,,,,,,,,,,,,,,,,
,6062b3ef5e79b5705af82e42,001,2022-04-29_12h02.21.699,classification_task,2021.2.3,MacIntel,60.0024001,6062b3ef5e79b5705af82e42,626b377229c10585ec392f8a,626b4db15cb82e2aef33533b,,,,,,,,,,,,,,,,,,,,,,,a,1,"[""0.165"",""0.504"",""0.853"",""0.903""]","[0,1,1,1]",0,6,6,6,1,0,1,,,1,FALSE,1.6793,,,,,,,,,,,,,,,,,,,,,,,,,,,,,,
,6062b3ef5e79b5705af82e42,001,2022-04-29_12h02.21.699,classification_task,2021.2.3,MacIntel,60.0024001,6062b3ef5e79b5705af82e42,626b377229c10585ec392f8a,626b4db15cb82e2aef33533b,,,,,,,,,,,,,,,,,,,,,,,a,0,"[""0.160"",""0.363"",""0.615"",""0.792""]","[0,1,1,1]",0,7,7,7,1,1,0,,,1,FALSE,1.216,,,,,,,,,,,,,,,,,,,,,,,,,,,,,,
,6062b3ef5e79b5705af82e42,001,2022-04-29_12h02.21.699,classification_task,2021.2.3,MacIntel,60.0024001,6062b3ef5e79b5705af82e42,626b377229c10585ec392f8a,626b4db15cb82e2aef33533b,,,,,,,,,,,,,,,,,,,,,,,l,0,"[""0.457"",""0.413"",""0.936"",""0.971""]","[0,1,1,1]",0,8,8,8,1,0,0,,,1,FALSE,2.16,,,,,,,,,,,,,,,,,,,,,,,,,,,,,,
,6062b3ef5e79b5705af82e42,001,2022-04-29_12h02.21.699,classification_task,2021.2.3,MacIntel,60.0024001,6062b3ef5e79b5705af82e42,626b377229c10585ec392f8a,626b4db15cb82e2aef33533b,,,,,,,,,,,,,,,,,,,,,,,l,0,"[""0.323"",""0.504"",""0.450"",""0.903""]","[1,1,0,1]",0,9,9,9,1,0,1,,,1,FALSE,2.2195,,,,,,,,,,,,,,,,,,,,,,,,,,,,,,
,6062b3ef5e79b5705af82e42,001,2022-04-29_12h02.21.699,classification_task,2021.2.3,MacIntel,60.0024001,6062b3ef5e79b5705af82e42,626b377229c10585ec392f8a,626b4db15cb82e2aef33533b,,,,,,,,,,,,,,,,,,,,,,,a,1,"[""0.287"",""0.413"",""0.936"",""0.165""]","[1,1,1,0]",0,10,10,10,1,0,0,,,1,FALSE,1.5716,,,,,,,,,,,,,,,,,,,,,,,,,,,,,,
,6062b3ef5e79b5705af82e42,001,2022-04-29_12h02.21.699,classification_task,2021.2.3,MacIntel,60.0024001,6062b3ef5e79b5705af82e42,626b377229c10585ec392f8a,626b4db15cb82e2aef33533b,,,,,,,,,,,,,,,,,,,,,,,a,1,"[""0.287"",""0.413"",""0.156"",""0.971""]","[1,1,0,1]",0,11,11,11,1,0,0,,,1,FALSE,0.6229,,,,,,,,,,,,,,,,,,,,,,,,,,,,,,
,6062b3ef5e79b5705af82e42,001,2022-04-29_12h02.21.699,classification_task,2021.2.3,MacIntel,60.0024001,6062b3ef5e79b5705af82e42,626b377229c10585ec392f8a,626b4db15cb82e2aef33533b,,,,,,,,,,,,,,,,,,,,,,,a,1,"[""0.287"",""0.165"",""0.936"",""0.971""]","[1,0,1,1]",0,12,12,12,1,0,0,,,1,FALSE,0.7819,,,,,,,,,,,,,,,,,,,,,,,,,,,,,,
,6062b3ef5e79b5705af82e42,001,2022-04-29_12h02.21.699,classification_task,2021.2.3,MacIntel,60.0024001,6062b3ef5e79b5705af82e42,626b377229c10585ec392f8a,626b4db15cb82e2aef33533b,,,,,,,,,,,,,,,,,,,,,,,l,1,"[""0.080"",""0.233"",""0.560"",""0.160""]","[1,1,1,0]",0,13,13,13,1,1,1,,,1,FALSE,0.5845,,,,,,,,,,,,,,,,,,,,,,,,,,,,,,
,6062b3ef5e79b5705af82e42,001,2022-04-29_12h02.21.699,classification_task,2021.2.3,MacIntel,60.0024001,6062b3ef5e79b5705af82e42,626b377229c10585ec392f8a,626b4db15cb82e2aef33533b,,,,,,,,,,,,,,,,,,,,,,,l,0,"[""0.323"",""0.160"",""0.853"",""0.903""]","[1,0,1,1]",0,14,14,14,1,0,1,,,1,FALSE,0.7643,,,,,,,,,,,,,,,,,,,,,,,,,,,,,,
,6062b3ef5e79b5705af82e42,001,2022-04-29_12h02.21.699,classification_task,2021.2.3,MacIntel,60.0024001,6062b3ef5e79b5705af82e42,626b377229c10585ec392f8a,626b4db15cb82e2aef33533b,,,,,,,,,,,,,,,,,,,,,,,a,0,"[""0.041"",""0.363"",""0.615"",""0.116""]","[1,1,1,0]",0,15,15,15,1,1,0,,,1,FALSE,0.6676,,,,,,,,,,,,,,,,,,,,,,,,,,,,,,
,6062b3ef5e79b5705af82e42,001,2022-04-29_12h02.21.699,classification_task,2021.2.3,MacIntel,60.0024001,6062b3ef5e79b5705af82e42,626b377229c10585ec392f8a,626b4db15cb82e2aef33533b,,,,,,,,,,,,,,,,,,,,,,,l,0,"[""0.323"",""0.504"",""0.853"",""0.172""]","[1,1,1,0]",0,16,16,16,1,0,1,,,1,FALSE,0.4659,,,,,,,,,,,,,,,,,,,,,,,,,,,,,,
,6062b3ef5e79b5705af82e42,001,2022-04-29_12h02.21.699,classification_task,2021.2.3,MacIntel,60.0024001,6062b3ef5e79b5705af82e42,626b377229c10585ec392f8a,626b4db15cb82e2aef33533b,,,,,,,,,,,,,,,,,,,,,,,l,0,"[""0.323"",""0.165"",""0.853"",""0.903""]","[1,0,1,1]",0,17,17,17,1,0,1,,,1,FALSE,3.4329,,,,,,,,,,,,,,,,,,,,,,,,,,,,,,
,6062b3ef5e79b5705af82e42,001,2022-04-29_12h02.21.699,classification_task,2021.2.3,MacIntel,60.0024001,6062b3ef5e79b5705af82e42,626b377229c10585ec392f8a,626b4db15cb82e2aef33533b,,,,,,,,,,,,,,,,,,,,,,,a,1,"[""0.287"",""0.165"",""0.936"",""0.971""]","[1,0,1,1]",0,18,18,18,1,0,0,,,1,FALSE,0.638,,,,,,,,,,,,,,,,,,,,,,,,,,,,,,
,6062b3ef5e79b5705af82e42,001,2022-04-29_12h02.21.699,classification_task,2021.2.3,MacIntel,60.0024001,6062b3ef5e79b5705af82e42,626b377229c10585ec392f8a,626b4db15cb82e2aef33533b,,,,,,,,,,,,,,,,,,,,,,,a,1,"[""0.287"",""0.413"",""0.169"",""0.971""]","[1,1,0,1]",0,19,19,19,1,0,0,,,1,FALSE,0.6982,,,,,,,,,,,,,,,,,,,,,,,,,,,,,,
,6062b3ef5e79b5705af82e42,001,2022-04-29_12h02.21.699,classification_task,2021.2.3,MacIntel,60.0024001,6062b3ef5e79b5705af82e42,626b377229c10585ec392f8a,626b4db15cb82e2aef33533b,,,,,,,,,,,,,,,,,,,,,,,a,1,"[""0.199"",""0.413"",""0.936"",""0.971""]","[0,1,1,1]",0,20,20,20,1,0,0,,,1,FALSE,0.8025,,,,,,,,,,,,,,,,,,,,,,,,,,,,,,
,6062b3ef5e79b5705af82e42,001,2022-04-29_12h02.21.699,classification_task,2021.2.3,MacIntel,60.0024001,6062b3ef5e79b5705af82e42,626b377229c10585ec392f8a,626b4db15cb82e2aef33533b,,,,,,,,,,,,,,,,,,,,,,,a,1,"[""0.287"",""0.413"",""0.936"",""0.199""]","[1,1,1,0]",0,21,21,21,1,0,0,,,1,FALSE,0.7625,,,,,,,,,,,,,,,,,,,,,,,,,,,,,,
,6062b3ef5e79b5705af82e42,001,2022-04-29_12h02.21.699,classification_task,2021.2.3,MacIntel,60.0024001,6062b3ef5e79b5705af82e42,626b377229c10585ec392f8a,626b4db15cb82e2aef33533b,,,,,,,,,,,,,,,,,,,,,,,a,0,"[""0.080"",""0.233"",""0.560"",""0.464""]","[1,1,1,0]",0,22,22,22,1,1,1,,,1,FALSE,0.8662,,,,,,,,,,,,,,,,,,,,,,,,,,,,,,
,6062b3ef5e79b5705af82e42,001,2022-04-29_12h02.21.699,classification_task,2021.2.3,MacIntel,60.0024001,6062b3ef5e79b5705af82e42,626b377229c10585ec392f8a,626b4db15cb82e2aef33533b,,,,,,,,,,,,,,,,,,,,,,,a,0,"[""0.080"",""0.233"",""0.165"",""0.708""]","[1,1,0,1]",0,23,23,23,1,1,1,,,1,FALSE,0.8813,,,,,,,,,,,,,,,,,,,,,,,,,,,,,,
,6062b3ef5e79b5705af82e42,001,2022-04-29_12h02.21.699,classification_task,2021.2.3,MacIntel,60.0024001,6062b3ef5e79b5705af82e42,626b377229c10585ec392f8a,626b4db15cb82e2aef33533b,,,,,,,,,,,,,,,,,,,,,,,a,1,"[""0.323"",""0.504"",""0.135"",""0.903""]","[1,1,0,1]",0,24,24,24,1,0,1,,,1,FALSE,1.0654,,,,,,,,,,,,,,,,,,,,,,,,,,,,,,
,6062b3ef5e79b5705af82e42,001,2022-04-29_12h02.21.699,classification_task,2021.2.3,MacIntel,60.0024001,6062b3ef5e79b5705af82e42,626b377229c10585ec392f8a,626b4db15cb82e2aef33533b,,,,,,,,,,,,,,,,,,,,,,,a,0,"[""0.156"",""0.363"",""0.615"",""0.792""]","[0,1,1,1]",0,25,25,25,1,1,0,,,1,FALSE,0.7681,,,,,,,,,,,,,,,,,,,,,,,,,,,,,,
,6062b3ef5e79b5705af82e42,001,2022-04-29_12h02.21.699,classification_task,2021.2.3,MacIntel,60.0024001,6062b3ef5e79b5705af82e42,626b377229c10585ec392f8a,626b4db15cb82e2aef33533b,,,,,,,,,,,,,,,,,,,,,,,a,0,"[""0.080"",""0.464"",""0.560"",""0.708""]","[1,0,1,1]",0,26,26,26,1,1,1,,,1,FALSE,1.1842,,,,,,,,,,,,,,,,,,,,,,,,,,,,,,
,6062b3ef5e79b5705af82e42,001,2022-04-29_12h02.21.699,classification_task,2021.2.3,MacIntel,60.0024001,6062b3ef5e79b5705af82e42,626b377229c10585ec392f8a,626b4db15cb82e2aef33533b,,,,,,,,,,,,,,,,,,,,,,,l,1,"[""0.041"",""0.116"",""0.615"",""0.792""]","[1,0,1,1]",0,27,27,27,1,1,0,,,1,FALSE,1.1469,,,,,,,,,,,,,,,,,,,,,,,,,,,,,,
,6062b3ef5e79b5705af82e42,001,2022-04-29_12h02.21.699,classification_task,2021.2.3,MacIntel,60.0024001,6062b3ef5e79b5705af82e42,626b377229c10585ec392f8a,626b4db15cb82e2aef33533b,,,,,,,,,,,,,,,,,,,,,,,l,1,"[""0.041"",""0.363"",""0.199"",""0.792""]","[1,1,0,1]",0,28,28,28,1,1,0,,,1,FALSE,0.8203,,,,,,,,,,,,,,,,,,,,,,,,,,,,,,
,6062b3ef5e79b5705af82e42,001,2022-04-29_12h02.21.699,classification_task,2021.2.3,MacIntel,60.0024001,6062b3ef5e79b5705af82e42,626b377229c10585ec392f8a,626b4db15cb82e2aef33533b,,,,,,,,,,,,,,,,,,,,,,,a,0,"[""0.041"",""0.363"",""0.615"",""0.156""]","[1,1,1,0]",0,29,29,29,1,1,0,,,1,FALSE,2.0023,,,,,,,,,,,,,,,,,,,,,,,,,,,,,,
,6062b3ef5e79b5705af82e42,001,2022-04-29_12h02.21.699,classification_task,2021.2.3,MacIntel,60.0024001,6062b3ef5e79b5705af82e42,626b377229c10585ec392f8a,626b4db15cb82e2aef33533b,,,,,,,,,,,,,,,,,,,,,,,a,0,"[""0.160"",""0.233"",""0.560"",""0.708""]","[0,1,1,1]",0,30,30,30,1,1,1,,,1,FALSE,1.6756,,,,,,,,,,,,,,,,,,,,,,,,,,,,,,
,6062b3ef5e79b5705af82e42,001,2022-04-29_12h02.21.699,classification_task,2021.2.3,MacIntel,60.0024001,6062b3ef5e79b5705af82e42,626b377229c10585ec392f8a,626b4db15cb82e2aef33533b,,,,,,,,,,,,,,,,,,,,,,,l,0,"[""0.165"",""0.504"",""0.853"",""0.903""]","[0,1,1,1]",0,31,31,31,1,0,1,,,1,FALSE,0.8959,,,,,,,,,,,,,,,,,,,,,,,,,,,,,,
,6062b3ef5e79b5705af82e42,001,2022-04-29_12h02.21.699,classification_task,2021.2.3,MacIntel,60.0024001,6062b3ef5e79b5705af82e42,626b377229c10585ec392f8a,626b4db15cb82e2aef33533b,,,,,,,,,,,,,,,,,,,,,,,l,0,"[""0.323"",""0.504"",""0.156"",""0.903""]","[1,1,0,1]",0,32,32,32,1,0,1,,,1,FALSE,2.5665,,,,,,,,,,,,,,,,,,,,,,,,,,,,,,
,6062b3ef5e79b5705af82e42,001,2022-04-29_12h02.21.699,classification_task,2021.2.3,MacIntel,60.0024001,6062b3ef5e79b5705af82e42,626b377229c10585ec392f8a,626b4db15cb82e2aef33533b,,,,,,,,,,,,,,,,,,,,,,,l,0,"[""0.743"",""0.504"",""0.853"",""0.903""]","[0,1,1,1]",0,33,33,33,1,0,1,,,1,FALSE,1.498,,,,,,,,,,,,,,,,,,,,,,,,,,,,,,
,6062b3ef5e79b5705af82e42,001,2022-04-29_12h02.21.699,classification_task,2021.2.3,MacIntel,60.0024001,6062b3ef5e79b5705af82e42,626b377229c10585ec392f8a,626b4db15cb82e2aef33533b,,,,,,,,,,,,,,,,,,,,,,,a,0,"[""0.080"",""0.233"",""0.165"",""0.708""]","[1,1,0,1]",0,34,34,34,1,1,1,,,1,FALSE,0.9341,,,,,,,,,,,,,,,,,,,,,,,,,,,,,,
,6062b3ef5e79b5705af82e42,001,2022-04-29_12h02.21.699,classification_task,2021.2.3,MacIntel,60.0024001,6062b3ef5e79b5705af82e42,626b377229c10585ec392f8a,626b4db15cb82e2aef33533b,,,,,,,,,,,,,,,,,,,,,,,a,0,"[""0.199"",""0.363"",""0.615"",""0.792""]","[0,1,1,1]",0,35,35,35,1,1,0,,,1,FALSE,1.2808,,,,,,,,,,,,,,,,,,,,,,,,,,,,,,
,6062b3ef5e79b5705af82e42,001,2022-04-29_12h02.21.699,classification_task,2021.2.3,MacIntel,60.0024001,6062b3ef5e79b5705af82e42,626b377229c10585ec392f8a,626b4db15cb82e2aef33533b,,,,,,,,,,,,,,,,,,,,,,,l,0,"[""0.287"",""0.141"",""0.936"",""0.971""]","[1,0,1,1]",0,36,36,36,1,0,0,,,1,FALSE,3.7471,,,,,,,,,,,,,,,,,,,,,,,,,,,,,,
,6062b3ef5e79b5705af82e42,001,2022-04-29_12h02.21.699,classification_task,2021.2.3,MacIntel,60.0024001,6062b3ef5e79b5705af82e42,626b377229c10585ec392f8a,626b4db15cb82e2aef33533b,,,,,,,,,,,,,,,,,,,,,,,a,0,"[""0.041"",""0.363"",""0.615"",""0.116""]","[1,1,1,0]",0,37,37,37,1,1,0,,,1,FALSE,0.7048,,,,,,,,,,,,,,,,,,,,,,,,,,,,,,
,6062b3ef5e79b5705af82e42,001,2022-04-29_12h02.21.699,classification_task,2021.2.3,MacIntel,60.0024001,6062b3ef5e79b5705af82e42,626b377229c10585ec392f8a,626b4db15cb82e2aef33533b,,,,,,,,,,,,,,,,,,,,,,,a,1,"[""0.287"",""0.413"",""0.457"",""0.971""]","[1,1,0,1]",0,38,38,38,1,0,0,,,1,FALSE,2.3978,,,,,,,,,,,,,,,,,,,,,,,,,,,,,,
,6062b3ef5e79b5705af82e42,001,2022-04-29_12h02.21.699,classification_task,2021.2.3,MacIntel,60.0024001,6062b3ef5e79b5705af82e42,626b377229c10585ec392f8a,626b4db15cb82e2aef33533b,,,,,,,,,,,,,,,,,,,,,,,a,1,"[""0.323"",""0.504"",""0.853"",""0.172""]","[1,1,1,0]",0,39,39,39,1,0,1,,,1,FALSE,0.7746,,,,,,,,,,,,,,,,,,,,,,,,,,,,,,
,6062b3ef5e79b5705af82e42,001,2022-04-29_12h02.21.699,classification_task,2021.2.3,MacIntel,60.0024001,6062b3ef5e79b5705af82e42,626b377229c10585ec392f8a,626b4db15cb82e2aef33533b,,,,,,,,,,,,,,,,,,,,,,,a,0,"[""0.041"",""0.116"",""0.615"",""0.792""]","[1,0,1,1]",0,40,40,40,1,1,0,,,1,FALSE,1.148,,,,,,,,,,,,,,,,,,,,,,,,,,,,,,
,6062b3ef5e79b5705af82e42,001,2022-04-29_12h02.21.699,classification_task,2021.2.3,MacIntel,60.0024001,6062b3ef5e79b5705af82e42,626b377229c10585ec392f8a,626b4db15cb82e2aef33533b,,,,,,,,,,,,,,,,,,,,,,,l,0,"[""0.450"",""0.413"",""0.936"",""0.971""]","[0,1,1,1]",0,41,41,41,1,0,0,,,1,FALSE,1.9149,,,,,,,,,,,,,,,,,,,,,,,,,,,,,,
,6062b3ef5e79b5705af82e42,001,2022-04-29_12h02.21.699,classification_task,2021.2.3,MacIntel,60.0024001,6062b3ef5e79b5705af82e42,626b377229c10585ec392f8a,626b4db15cb82e2aef33533b,,,,,,,,,,,,,,,,,,,,,,,a,0,"[""0.457"",""0.233"",""0.560"",""0.708""]","[0,1,1,1]",0,42,42,42,1,1,1,,,1,FALSE,0.6542,,,,,,,,,,,,,,,,,,,,,,,,,,,,,,
,6062b3ef5e79b5705af82e42,001,2022-04-29_12h02.21.699,classification_task,2021.2.3,MacIntel,60.0024001,6062b3ef5e79b5705af82e42,626b377229c10585ec392f8a,626b4db15cb82e2aef33533b,,,,,,,,,,,,,,,,,,,,,,,a,0,"[""0.041"",""0.363"",""0.172"",""0.792""]","[1,1,0,1]",0,43,43,43,1,1,0,,,1,FALSE,0.697,,,,,,,,,,,,,,,,,,,,,,,,,,,,,,
,6062b3ef5e79b5705af82e42,001,2022-04-29_12h02.21.699,classification_task,2021.2.3,MacIntel,60.0024001,6062b3ef5e79b5705af82e42,626b377229c10585ec392f8a,626b4db15cb82e2aef33533b,,,,,,,,,,,,,,,,,,,,,,,a,0,"[""0.080"",""0.233"",""0.560"",""0.450""]","[1,1,1,0]",0,44,44,44,1,1,1,,,1,FALSE,0.7163,,,,,,,,,,,,,,,,,,,,,,,,,,,,,,
,6062b3ef5e79b5705af82e42,001,2022-04-29_12h02.21.699,classification_task,2021.2.3,MacIntel,60.0024001,6062b3ef5e79b5705af82e42,626b377229c10585ec392f8a,626b4db15cb82e2aef33533b,,,,,,,,,,,,,,,,,,,,,,,a,1,"[""0.287"",""0.413"",""0.936"",""0.156""]","[1,1,1,0]",0,45,45,45,1,0,0,,,1,FALSE,0.8477,,,,,,,,,,,,,,,,,,,,,,,,,,,,,,
,6062b3ef5e79b5705af82e42,001,2022-04-29_12h02.21.699,classification_task,2021.2.3,MacIntel,60.0024001,6062b3ef5e79b5705af82e42,626b377229c10585ec392f8a,626b4db15cb82e2aef33533b,,,,,,,,,,,,,,,,,,,,,,,l,0,"[""0.323"",""0.135"",""0.853"",""0.903""]","[1,0,1,1]",0,46,46,46,1,0,1,,,1,FALSE,0.5834,,,,,,,,,,,,,,,,,,,,,,,,,,,,,,
,6062b3ef5e79b5705af82e42,001,2022-04-29_12h02.21.699,classification_task,2021.2.3,MacIntel,60.0024001,6062b3ef5e79b5705af82e42,626b377229c10585ec392f8a,626b4db15cb82e2aef33533b,,,,,,,,,,,,,,,,,,,,,,,l,1,"[""0.080"",""0.141"",""0.560"",""0.708""]","[1,0,1,1]",0,47,47,47,1,1,1,,,1,FALSE,0.5298,,,,,,,,,,,,,,,,,,,,,,,,,,,,,,
,6062b3ef5e79b5705af82e42,001,2022-04-29_12h02.21.699,classification_task,2021.2.3,MacIntel,60.0024001,6062b3ef5e79b5705af82e42,626b377229c10585ec392f8a,626b4db15cb82e2aef33533b,,,,,,,,,,,,,,,,,,,,,,,l,1,"[""0.041"",""0.135"",""0.615"",""0.792""]","[1,0,1,1]",0,48,48,48,1,1,0,,,1,FALSE,0.6764,,,,,,,,,,,,,,,,,,,,,,,,,,,,,,
,6062b3ef5e79b5705af82e42,001,2022-04-29_12h02.21.699,classification_task,2021.2.3,MacIntel,60.0024001,6062b3ef5e79b5705af82e42,626b377229c10585ec392f8a,626b4db15cb82e2aef33533b,,,,,,,,,,,,,,,,,,,,,,,a,1,"[""0.323"",""0.504"",""0.141"",""0.903""]","[1,1,0,1]",0,49,49,49,1,0,1,,,1,FALSE,0.612,,,,,,,,,,,,,,,,,,,,,,,,,,,,,,
,6062b3ef5e79b5705af82e42,001,2022-04-29_12h02.21.699,classification_task,2021.2.3,MacIntel,60.0024001,6062b3ef5e79b5705af82e42,626b377229c10585ec392f8a,626b4db15cb82e2aef33533b,,,,,,,,,,,,,,,,,,,,,,,a,0,"[""0.041"",""0.363"",""0.156"",""0.792""]","[1,1,0,1]",0,50,50,50,1,1,0,,,1,FALSE,0.4446,,,,,,,,,,,,,,,,,,,,,,,,,,,,,,
,6062b3ef5e79b5705af82e42,001,2022-04-29_12h02.21.699,classification_task,2021.2.3,MacIntel,60.0024001,6062b3ef5e79b5705af82e42,626b377229c10585ec392f8a,626b4db15cb82e2aef33533b,,,,,,,,,,,,,,,,,,,,,,,a,1,"[""0.323"",""0.116"",""0.853"",""0.903""]","[1,0,1,1]",0,51,51,51,1,0,1,,,1,FALSE,0.3403,,,,,,,,,,,,,,,,,,,,,,,,,,,,,,
,6062b3ef5e79b5705af82e42,001,2022-04-29_12h02.21.699,classification_task,2021.2.3,MacIntel,60.0024001,6062b3ef5e79b5705af82e42,626b377229c10585ec392f8a,626b4db15cb82e2aef33533b,,,,,,,,,,,,,,,,,,,,,,,l,1,"[""0.080"",""0.233"",""0.165"",""0.708""]","[1,1,0,1]",0,52,52,52,1,1,1,,,1,FALSE,0.514,,,,,,,,,,,,,,,,,,,,,,,,,,,,,,
,6062b3ef5e79b5705af82e42,001,2022-04-29_12h02.21.699,classification_task,2021.2.3,MacIntel,60.0024001,6062b3ef5e79b5705af82e42,626b377229c10585ec392f8a,626b4db15cb82e2aef33533b,,,,,,,,,,,,,,,,,,,,,,,a,1,"[""0.199"",""0.504"",""0.853"",""0.903""]","[0,1,1,1]",0,53,53,53,1,0,1,,,1,FALSE,0.6614,,,,,,,,,,,,,,,,,,,,,,,,,,,,,,
,6062b3ef5e79b5705af82e42,001,2022-04-29_12h02.21.699,classification_task,2021.2.3,MacIntel,60.0024001,6062b3ef5e79b5705af82e42,626b377229c10585ec392f8a,626b4db15cb82e2aef33533b,,,,,,,,,,,,,,,,,,,,,,,l,0,"[""0.156"",""0.413"",""0.936"",""0.971""]","[0,1,1,1]",0,54,54,54,1,0,0,,,1,FALSE,1.0987,,,,,,,,,,,,,,,,,,,,,,,,,,,,,,
,6062b3ef5e79b5705af82e42,001,2022-04-29_12h02.21.699,classification_task,2021.2.3,MacIntel,60.0024001,6062b3ef5e79b5705af82e42,626b377229c10585ec392f8a,626b4db15cb82e2aef33533b,,,,,,,,,,,,,,,,,,,,,,,a,1,"[""0.287"",""0.413"",""0.160"",""0.971""]","[1,1,0,1]",0,55,55,55,1,0,0,,,1,FALSE,1.2709,,,,,,,,,,,,,,,,,,,,,,,,,,,,,,
,6062b3ef5e79b5705af82e42,001,2022-04-29_12h02.21.699,classification_task,2021.2.3,MacIntel,60.0024001,6062b3ef5e79b5705af82e42,626b377229c10585ec392f8a,626b4db15cb82e2aef33533b,,,,,,,,,,,,,,,,,,,,,,,l,1,"[""0.141"",""0.233"",""0.560"",""0.708""]","[0,1,1,1]",0,56,56,56,1,1,1,,,1,FALSE,0.4866,,,,,,,,,,,,,,,,,,,,,,,,,,,,,,
,6062b3ef5e79b5705af82e42,001,2022-04-29_12h02.21.699,classification_task,2021.2.3,MacIntel,60.0024001,6062b3ef5e79b5705af82e42,626b377229c10585ec392f8a,626b4db15cb82e2aef33533b,,,,,,,,,,,,,,,,,,,,,,,l,1,"[""0.450"",""0.363"",""0.615"",""0.792""]","[0,1,1,1]",0,57,57,57,1,1,0,,,1,FALSE,0.8152,,,,,,,,,,,,,,,,,,,,,,,,,,,,,,
,6062b3ef5e79b5705af82e42,001,2022-04-29_12h02.21.699,classification_task,2021.2.3,MacIntel,60.0024001,6062b3ef5e79b5705af82e42,626b377229c10585ec392f8a,626b4db15cb82e2aef33533b,,,,,,,,,,,,,,,,,,,,,,,a,1,"[""0.323"",""0.504"",""0.853"",""0.199""]","[1,1,1,0]",0,58,58,58,1,0,1,,,1,FALSE,0.4163,,,,,,,,,,,,,,,,,,,,,,,,,,,,,,
,6062b3ef5e79b5705af82e42,001,2022-04-29_12h02.21.699,classification_task,2021.2.3,MacIntel,60.0024001,6062b3ef5e79b5705af82e42,626b377229c10585ec392f8a,626b4db15cb82e2aef33533b,,,,,,,,,,,,,,,,,,,,,,,l,1,"[""0.080"",""0.233"",""0.560"",""0.165""]","[1,1,1,0]",0,59,59,59,1,1,1,,,1,FALSE,1.2634,,,,,,,,,,,,,,,,,,,,,,,,,,,,,,
,6062b3ef5e79b5705af82e42,001,2022-04-29_12h02.21.699,classification_task,2021.2.3,MacIntel,60.0024001,6062b3ef5e79b5705af82e42,626b377229c10585ec392f8a,626b4db15cb82e2aef33533b,,,,,,,,,,,,,,,,,,,,,,,a,0,"[""0.080"",""0.467"",""0.560"",""0.708""]","[1,0,1,1]",0,60,60,60,1,1,1,,,1,FALSE,0.5795,,,,,,,,,,,,,,,,,,,,,,,,,,,,,,
,6062b3ef5e79b5705af82e42,001,2022-04-29_12h02.21.699,classification_task,2021.2.3,MacIntel,60.0024001,6062b3ef5e79b5705af82e42,626b377229c10585ec392f8a,626b4db15cb82e2aef33533b,,,,,,,,,,,,,,,,,,,,,,,a,1,"[""0.287"",""0.413"",""0.936"",""0.743""]","[1,1,1,0]",0,61,61,61,1,0,0,,,1,FALSE,0.665,,,,,,,,,,,,,,,,,,,,,,,,,,,,,,
,6062b3ef5e79b5705af82e42,001,2022-04-29_12h02.21.699,classification_task,2021.2.3,MacIntel,60.0024001,6062b3ef5e79b5705af82e42,626b377229c10585ec392f8a,626b4db15cb82e2aef33533b,,,,,,,,,,,,,,,,,,,,,,,a,1,"[""0.287"",""0.464"",""0.936"",""0.971""]","[1,0,1,1]",0,62,62,62,1,0,0,,,1,FALSE,0.3488,,,,,,,,,,,,,,,,,,,,,,,,,,,,,,
,6062b3ef5e79b5705af82e42,001,2022-04-29_12h02.21.699,classification_task,2021.2.3,MacIntel,60.0024001,6062b3ef5e79b5705af82e42,626b377229c10585ec392f8a,626b4db15cb82e2aef33533b,,,,,,,,,,,,,,,,,,,,,,,l,1,"[""0.041"",""0.363"",""0.615"",""0.467""]","[1,1,1,0]",0,63,63,63,1,1,0,,,1,FALSE,1.1843,,,,,,,,,,,,,,,,,,,,,,,,,,,,,,
,6062b3ef5e79b5705af82e42,001,2022-04-29_12h02.21.699,classification_task,2021.2.3,MacIntel,60.0024001,6062b3ef5e79b5705af82e42,626b377229c10585ec392f8a,626b4db15cb82e2aef33533b,,,,,,,,,,,,,,,,,,,,,,,,,,,,,,,,,,,,,,,0, ,,0,5.116984049,156.4917,0,2,2,2,1,2,3,,,,,,,,,,,,,,,,,
,6062b3ef5e79b5705af82e42,001,2022-04-29_12h02.21.699,classification_task,2021.2.3,MacIntel,60.0024001,6062b3ef5e79b5705af82e42,626b377229c10585ec392f8a,626b4db15cb82e2aef33533b,,,,,,,,,,,,,,,,,,,,,,,,,,,,,,,,,,,,,,,1,  ,,0,4.992141858,160.4071,0,2,2,2,1,2,3,,,,,,,,,,,,,,,,,
,6062b3ef5e79b5705af82e42,001,2022-04-29_12h02.21.699,classification_task,2021.2.3,MacIntel,60.0024001,6062b3ef5e79b5705af82e42,626b377229c10585ec392f8a,626b4db15cb82e2aef33533b,,,,,,,,,,,,,,,,,,,,,,,,,,,,,,,,,,,,,,,2,  ,,0,4.699654823,161.6384,0,2,2,2,1,2,3,,,,,,,,,,,,,,,,,
,6062b3ef5e79b5705af82e42,001,2022-04-29_12h02.21.699,classification_task,2021.2.3,MacIntel,60.0024001,6062b3ef5e79b5705af82e42,626b377229c10585ec392f8a,626b4db15cb82e2aef33533b,,,,,,,,,,,,,,,,,,,,,,,,,,,,,,,,,,,,,,,,,,,,,0,2,2,2,1,,3,,,,,,,,,,,,,,,,,
,6062b3ef5e79b5705af82e42,001,2022-04-29_12h02.21.699,classification_task,2021.2.3,MacIntel,60.0024001,6062b3ef5e79b5705af82e42,626b377229c10585ec392f8a,626b4db15cb82e2aef33533b,,,,,,,,,,,,,,,,,,,,,,,,,,,,,,,,,,,,,,,,,,,,,,,,,,,,,I believe the aid is a competent performer,,0.7,0,3,899.0449,0,0,0,0,1,0,,,,
,6062b3ef5e79b5705af82e42,001,2022-04-29_12h02.21.699,classification_task,2021.2.3,MacIntel,60.0024001,6062b3ef5e79b5705af82e42,626b377229c10585ec392f8a,626b4db15cb82e2aef33533b,,,,,,,,,,,,,,,,,,,,,,,,,,,,,,,,,,,,,,,,,,,,,,,,,,,,,I trust the aid,,0.7,0,4,901.8768,0,0,0,0,1,0,,,,
,6062b3ef5e79b5705af82e42,001,2022-04-29_12h02.21.699,classification_task,2021.2.3,MacIntel,60.0024001,6062b3ef5e79b5705af82e42,626b377229c10585ec392f8a,626b4db15cb82e2aef33533b,,,,,,,,,,,,,,,,,,,,,,,,,,,,,,,,,,,,,,,,,,,,,,,,,,,,,I have confidence in the advice given by the aid,,0.7,0,2,905.1153,0,0,0,0,1,0,,,,
,6062b3ef5e79b5705af82e42,001,2022-04-29_12h02.21.699,classification_task,2021.2.3,MacIntel,60.0024001,6062b3ef5e79b5705af82e42,626b377229c10585ec392f8a,626b4db15cb82e2aef33533b,,,,,,,,,,,,,,,,,,,,,,,,,,,,,,,,,,,,,,,,,,,,,,,,,,,,,I can depend on the aid,,0.7,0,3,907.9366,0,0,0,0,1,0,,,,
,6062b3ef5e79b5705af82e42,001,2022-04-29_12h02.21.699,classification_task,2021.2.3,MacIntel,60.0024001,6062b3ef5e79b5705af82e42,626b377229c10585ec392f8a,626b4db15cb82e2aef33533b,,,,,,,,,,,,,,,,,,,,,,,,,,,,,,,,,,,,,,,,,,,,,,,,,,,,,I can rely on the aid to behave in consistent ways,,0.7,0,2,913.6612,0,0,0,0,1,0,,,,
,6062b3ef5e79b5705af82e42,001,2022-04-29_12h02.21.699,classification_task,2021.2.3,MacIntel,60.0024001,6062b3ef5e79b5705af82e42,626b377229c10585ec392f8a,626b4db15cb82e2aef33533b,,,,,,,,,,,,,,,,,,,,,,,,,,,,,,,,,,,,,,,,,,,,,,,,,,,,,I can rely on the aid to do its best every time I take its advice,,0.7,0,3,922.3308,0,0,0,0,1,0,,,,
,6062b3ef5e79b5705af82e42,001,2022-04-29_12h02.21.699,classification_task,2021.2.3,MacIntel,60.0024001,6062b3ef5e79b5705af82e42,626b377229c10585ec392f8a,626b4db15cb82e2aef33533b,,,,,,,,,,,,,,,,,,,,,,,,,,,,,,,,,,,,,,,,,,,,,,,,,,,,,"On trials you completed with assistance from the aid, how frequently did you think the aid was correct?",,0.7,0,100%,,0,0,0,0,1,0,,,,
,6062b3ef5e79b5705af82e42,001,2022-04-29_12h02.21.699,classification_task,2021.2.3,MacIntel,60.0024001,6062b3ef5e79b5705af82e42,626b377229c10585ec392f8a,626b4db15cb82e2aef33533b,,,,,,,,,,,,,,,,,,,,,,,,,,,,,,,,,,,,,,,,,,,,,,,,,,,,,"On trials you completed without the aid, how frequently did you think you were correct?",,0.7,0,50%,,0,0,0,0,1,0,,,,
,6062b3ef5e79b5705af82e42,001,2022-04-29_12h02.21.699,classification_task,2021.2.3,MacIntel,60.0024001,6062b3ef5e79b5705af82e42,626b377229c10585ec392f8a,626b4db15cb82e2aef33533b,,,,,,,,,,,,,,,,,,,,,,,,,,,,,,,,,,,,,,,,,,,,,,,,,,,,,,,,,,,0,0,0,0,1,,,,,
,6062b3ef5e79b5705af82e42,001,2022-04-29_12h02.21.699,classification_task,2021.2.3,MacIntel,60.0024001,6062b3ef5e79b5705af82e42,626b377229c10585ec392f8a,626b4db15cb82e2aef33533b,,,,,,,,,,,,,,,,,,,,,,,,,,,,,,,,,,,,,,,,,,,,,,,,,,,,,,,,,,,,,,,,,space,11.9767,952.8463,
,6062b3ef5e79b5705af82e42,001,2022-04-29_12h02.21.699,classification_task,2021.2.3,MacIntel,60.0024001,6062b3ef5e79b5705af82e42,626b377229c10585ec392f8a,626b4db15cb82e2aef33533b,,,,,,,,,,,,,,,,,,,,,,,,,,,,,,,,,,,,,,,,,,,,,,,,,,,,,,,,,,,,,,,,,,,,"Mozilla/5.0 (Macintosh; Intel Mac OS X 10_15_7) AppleWebKit/537.36 (KHTML, like Gecko) Chrome/101.0.4951.41 Safari/537.36"
