usingWebGL,participant,session,date,expName,psychopyVersion,OS,frameRate,study_id,signatures_friend,signatures_foe,band_ranges_top,band_ranges_bottom,formitemText,formtype,formundefined,formitemWidth,formindex,formresponse,formrt,key_resp_2.keys,key_resp_2.rt,tute_resp.keys,tute_resp.rt,tutorial.thisRepN,tutorial.thisTrialN,tutorial.thisN,tutorial.thisIndex,tutorial.ran,key_resp_4.keys,key_resp_4.rt,key_resp.keys,key_resp.corr,key_resp.rt,lines_presented,is_signal_presented,trials.thisRepN,trials.thisTrialN,trials.thisN,trials.thisIndex,trials.ran,vessel,active_band,lines,is_signal,supported_pos,catch_trial,debrief_formindex,debrief_formitemText,debrief_formtype,debrief_formitemWidth,debrief_formresponse,debrief_formrt,phases.thisRepN,phases.thisTrialN,phases.thisN,phases.thisIndex,phases.ran,phases.order,phase,key_resp_3.keys,trustitemText,trusttype,trustitemWidth,trustindex,trustresponse,trustrt,support_status.thisRepN,support_status.thisTrialN,support_status.thisN,support_status.thisIndex,support_status.ran,support_status.order,key_resp_5.keys,key_resp_5.rt,globalClockTime,userAgent,manualCondition
TRUE,6065dcc8bc4a1f1663e4d13b,627c6f6d3ed2968600fa2090,2022-05-12_03h23.10.564,classification_task,2021.2.3,Win32,60.0240096,627c6715c52fd12f31907bcf,,,,,,,,,,,,,,,,,,,,,,,,,,,,,,,,,,,,,,,,,,,,,,,,,,,,,,,,,,,,,,,,,,,,,
,6065dcc8bc4a1f1663e4d13b,627c6f6d3ed2968600fa2090,2022-05-12_03h23.10.564,classification_task,2021.2.3,Win32,60.0240096,627c6715c52fd12f31907bcf,"[[""0.187"",""0.350"",""0.916"",""0.956""],[""0.316"",""0.477"",""0.834"",""0.876""]]","[[""0.148"",""0.231"",""0.637"",""0.689""],[""0.059"",""0.281"",""0.579"",""0.749""]]","[1,10]","[100,1000]",Video game experience,,,0.7,0,,,,,,,,,,,,,,,,,,,,,,,,,,,,,,,,,,,,,,,,,,,,,,,,,,,,,,,,,,,,
,6065dcc8bc4a1f1663e4d13b,627c6f6d3ed2968600fa2090,2022-05-12_03h23.10.564,classification_task,2021.2.3,Win32,60.0240096,627c6715c52fd12f31907bcf,,,,,Approximately how many hours did you spend playing video games in the last week?,,,0.7,0,5,,,,,,,,,,,,,,,,,,,,,,,,,,,,,,,,,,,,,,,,,,,,,,,,,,,,,,,,,,,
,6065dcc8bc4a1f1663e4d13b,627c6f6d3ed2968600fa2090,2022-05-12_03h23.10.564,classification_task,2021.2.3,Win32,60.0240096,627c6715c52fd12f31907bcf,,,,,"Which game did you play the most this year? (Enter ""None"" if you didn't play any)",,,0.7,0,god of war,,,,,,,,,,,,,,,,,,,,,,,,,,,,,,,,,,,,,,,,,,,,,,,,,,,,,,,,,,,
,6065dcc8bc4a1f1663e4d13b,627c6f6d3ed2968600fa2090,2022-05-12_03h23.10.564,classification_task,2021.2.3,Win32,60.0240096,627c6715c52fd12f31907bcf,,,,,Visual perception,,,0.7,0,,,,,,,,,,,,,,,,,,,,,,,,,,,,,,,,,,,,,,,,,,,,,,,,,,,,,,,,,,,,
,6065dcc8bc4a1f1663e4d13b,627c6f6d3ed2968600fa2090,2022-05-12_03h23.10.564,classification_task,2021.2.3,Win32,60.0240096,627c6715c52fd12f31907bcf,,,,,Do you have any form of color blindness?,,,0.7,0,No,40.314,,,,,,,,,,,,,,,,,,,,,,,,,,,,,,,,,,,,,,,,,,,,,,,,,,,,,,,,,,
,6065dcc8bc4a1f1663e4d13b,627c6f6d3ed2968600fa2090,2022-05-12_03h23.10.564,classification_task,2021.2.3,Win32,60.0240096,627c6715c52fd12f31907bcf,,,,,Do you use software to change the colour temperature of your screen (e.g. f.lux)?,,,0.7,0,No,42.809,,,,,,,,,,,,,,,,,,,,,,,,,,,,,,,,,,,,,,,,,,,,,,,,,,,,,,,,,,
,6065dcc8bc4a1f1663e4d13b,627c6f6d3ed2968600fa2090,2022-05-12_03h23.10.564,classification_task,2021.2.3,Win32,60.0240096,627c6715c52fd12f31907bcf,,,,,,,,,,,,space,32.023,space,5.981,0,0,0,0,1,,,,,,,,,,,,,,,,,,,,,,,,,,,,,,,,,,,,,,,,,,,,,,,,,
,6065dcc8bc4a1f1663e4d13b,627c6f6d3ed2968600fa2090,2022-05-12_03h23.10.564,classification_task,2021.2.3,Win32,60.0240096,627c6715c52fd12f31907bcf,,,,,,,,,,,,,,space,8.815,1,0,1,0,1,,,,,,,,,,,,,,,,,,,,,,,,,,,,,,,,,,,,,,,,,,,,,,,,,
,6065dcc8bc4a1f1663e4d13b,627c6f6d3ed2968600fa2090,2022-05-12_03h23.10.564,classification_task,2021.2.3,Win32,60.0240096,627c6715c52fd12f31907bcf,,,,,,,,,,,,,,space,29.314,2,0,2,0,1,,,,,,,,,,,,,,,,,,,,,,,,,,,,,,,,,,,,,,,,,,,,,,,,,
,6065dcc8bc4a1f1663e4d13b,627c6f6d3ed2968600fa2090,2022-05-12_03h23.10.564,classification_task,2021.2.3,Win32,60.0240096,627c6715c52fd12f31907bcf,,,,,,,,,,,,,,space,52.201,3,0,3,0,1,,,,,,,,,,,,,,,,,,,,,,,,,,,,,,,,,,,,,,,,,,,,,,,,,
,6065dcc8bc4a1f1663e4d13b,627c6f6d3ed2968600fa2090,2022-05-12_03h23.10.564,classification_task,2021.2.3,Win32,60.0240096,627c6715c52fd12f31907bcf,,,,,,,,,,,,,,space,16.017,4,0,4,0,1,,,,,,,,,,,,,,,,,,,,,,,,,,,,,,,,,,,,,,,,,,,,,,,,,
,6065dcc8bc4a1f1663e4d13b,627c6f6d3ed2968600fa2090,2022-05-12_03h23.10.564,classification_task,2021.2.3,Win32,60.0240096,627c6715c52fd12f31907bcf,,,,,,,,,,,,,,,,,,,,,space,17.579,a,1,7.243,"[""0.514"",""0.350"",""0.916"",""0.956""]","[0,1,1,1]",0,0,0,0,1,0,0,,,1,FALSE,,,,,,,,,,,,,,,,,,,,,,,,,,,,,,,
,6065dcc8bc4a1f1663e4d13b,627c6f6d3ed2968600fa2090,2022-05-12_03h23.10.564,classification_task,2021.2.3,Win32,60.0240096,627c6715c52fd12f31907bcf,,,,,,,,,,,,,,,,,,,,,,,l,0,6.917,"[""0.187"",""0.350"",""0.916"",""0.527""]","[1,1,1,0]",0,1,1,1,1,0,0,,,1,FALSE,,,,,,,,,,,,,,,,,,,,,,,,,,,,,,,
,6065dcc8bc4a1f1663e4d13b,627c6f6d3ed2968600fa2090,2022-05-12_03h23.10.564,classification_task,2021.2.3,Win32,60.0240096,627c6715c52fd12f31907bcf,,,,,,,,,,,,,,,,,,,,,,,l,1,7.094,"[""0.059"",""0.281"",""0.390"",""0.749""]","[1,1,0,1]",0,2,2,2,1,1,1,,,1,FALSE,,,,,,,,,,,,,,,,,,,,,,,,,,,,,,,
,6065dcc8bc4a1f1663e4d13b,627c6f6d3ed2968600fa2090,2022-05-12_03h23.10.564,classification_task,2021.2.3,Win32,60.0240096,627c6715c52fd12f31907bcf,,,,,,,,,,,,,,,,,,,,,,,a,1,4.123,"[""0.114"",""0.477"",""0.834"",""0.876""]","[0,1,1,1]",0,3,3,3,1,0,1,,,1,FALSE,,,,,,,,,,,,,,,,,,,,,,,,,,,,,,,
,6065dcc8bc4a1f1663e4d13b,627c6f6d3ed2968600fa2090,2022-05-12_03h23.10.564,classification_task,2021.2.3,Win32,60.0240096,627c6715c52fd12f31907bcf,,,,,,,,,,,,,,,,,,,,,,,l,1,4.444,"[""0.148"",""0.231"",""0.102"",""0.689""]","[1,1,0,1]",0,4,4,4,1,1,0,,,1,FALSE,,,,,,,,,,,,,,,,,,,,,,,,,,,,,,,
,6065dcc8bc4a1f1663e4d13b,627c6f6d3ed2968600fa2090,2022-05-12_03h23.10.564,classification_task,2021.2.3,Win32,60.0240096,627c6715c52fd12f31907bcf,,,,,,,,,,,,,,,,,,,,,,,l,1,6.218,"[""0.148"",""0.231"",""0.637"",""0.405""]","[1,1,1,0]",0,5,5,5,1,1,0,,,1,FALSE,,,,,,,,,,,,,,,,,,,,,,,,,,,,,,,
,6065dcc8bc4a1f1663e4d13b,627c6f6d3ed2968600fa2090,2022-05-12_03h23.10.564,classification_task,2021.2.3,Win32,60.0240096,627c6715c52fd12f31907bcf,,,,,,,,,,,,,,,,,,,,,,,l,1,6.571,"[""0.148"",""0.391"",""0.637"",""0.689""]","[1,0,1,1]",0,6,6,6,1,1,0,,,1,FALSE,,,,,,,,,,,,,,,,,,,,,,,,,,,,,,,
,6065dcc8bc4a1f1663e4d13b,627c6f6d3ed2968600fa2090,2022-05-12_03h23.10.564,classification_task,2021.2.3,Win32,60.0240096,627c6715c52fd12f31907bcf,,,,,,,,,,,,,,,,,,,,,,,a,1,7.377,"[""0.316"",""0.477"",""0.404"",""0.876""]","[1,1,0,1]",0,7,7,7,1,0,1,,,1,FALSE,,,,,,,,,,,,,,,,,,,,,,,,,,,,,,,
,6065dcc8bc4a1f1663e4d13b,627c6f6d3ed2968600fa2090,2022-05-12_03h23.10.564,classification_task,2021.2.3,Win32,60.0240096,627c6715c52fd12f31907bcf,,,,,,,,,,,,,,,,,,,,,,,a,1,8.385,"[""0.316"",""0.477"",""0.834"",""0.391""]","[1,1,1,0]",0,8,8,8,1,0,1,,,1,FALSE,,,,,,,,,,,,,,,,,,,,,,,,,,,,,,,
,6065dcc8bc4a1f1663e4d13b,627c6f6d3ed2968600fa2090,2022-05-12_03h23.10.564,classification_task,2021.2.3,Win32,60.0240096,627c6715c52fd12f31907bcf,,,,,,,,,,,,,,,,,,,,,,,l,0,4.946,"[""0.187"",""0.102"",""0.916"",""0.956""]","[1,0,1,1]",0,9,9,9,1,0,0,,,1,FALSE,,,,,,,,,,,,,,,,,,,,,,,,,,,,,,,
,6065dcc8bc4a1f1663e4d13b,627c6f6d3ed2968600fa2090,2022-05-12_03h23.10.564,classification_task,2021.2.3,Win32,60.0240096,627c6715c52fd12f31907bcf,,,,,,,,,,,,,,,,,,,,,,,a,1,8.012,"[""0.316"",""0.440"",""0.834"",""0.876""]","[1,0,1,1]",0,10,10,10,1,0,1,,,1,FALSE,,,,,,,,,,,,,,,,,,,,,,,,,,,,,,,
,6065dcc8bc4a1f1663e4d13b,627c6f6d3ed2968600fa2090,2022-05-12_03h23.10.564,classification_task,2021.2.3,Win32,60.0240096,627c6715c52fd12f31907bcf,,,,,,,,,,,,,,,,,,,,,,,l,1,6.59,"[""0.515"",""0.231"",""0.637"",""0.689""]","[0,1,1,1]",0,11,11,11,1,1,0,,,1,FALSE,,,,,,,,,,,,,,,,,,,,,,,,,,,,,,,
,6065dcc8bc4a1f1663e4d13b,627c6f6d3ed2968600fa2090,2022-05-12_03h23.10.564,classification_task,2021.2.3,Win32,60.0240096,627c6715c52fd12f31907bcf,,,,,,,,,,,,,,,,,,,,,,,l,1,6.359,"[""0.059"",""0.281"",""0.579"",""0.102""]","[1,1,1,0]",0,12,12,12,1,1,1,,,1,FALSE,,,,,,,,,,,,,,,,,,,,,,,,,,,,,,,
,6065dcc8bc4a1f1663e4d13b,627c6f6d3ed2968600fa2090,2022-05-12_03h23.10.564,classification_task,2021.2.3,Win32,60.0240096,627c6715c52fd12f31907bcf,,,,,,,,,,,,,,,,,,,,,,,l,1,4.101,"[""0.109"",""0.281"",""0.579"",""0.749""]","[0,1,1,1]",0,13,13,13,1,1,1,,,1,FALSE,,,,,,,,,,,,,,,,,,,,,,,,,,,,,,,
,6065dcc8bc4a1f1663e4d13b,627c6f6d3ed2968600fa2090,2022-05-12_03h23.10.564,classification_task,2021.2.3,Win32,60.0240096,627c6715c52fd12f31907bcf,,,,,,,,,,,,,,,,,,,,,,,a,1,5.577,"[""0.187"",""0.350"",""0.405"",""0.956""]","[1,1,0,1]",0,14,14,14,1,0,0,,,1,FALSE,,,,,,,,,,,,,,,,,,,,,,,,,,,,,,,
,6065dcc8bc4a1f1663e4d13b,627c6f6d3ed2968600fa2090,2022-05-12_03h23.10.564,classification_task,2021.2.3,Win32,60.0240096,627c6715c52fd12f31907bcf,,,,,,,,,,,,,,,,,,,,,,,l,1,7.564,"[""0.059"",""0.515"",""0.579"",""0.749""]","[1,0,1,1]",0,15,15,15,1,1,1,,,1,FALSE,,,,,,,,,,,,,,,,,,,,,,,,,,,,,,,
,6065dcc8bc4a1f1663e4d13b,627c6f6d3ed2968600fa2090,2022-05-12_03h23.10.564,classification_task,2021.2.3,Win32,60.0240096,627c6715c52fd12f31907bcf,,,,,,,,,,,,,,,,,,,,,,,l,1,6.507,"[""0.404"",""0.231"",""0.637"",""0.689""]","[0,1,1,1]",0,16,16,16,1,1,0,,,1,FALSE,,,,,,,,,,,,,,,,,,,,,,,,,,,,,,,
,6065dcc8bc4a1f1663e4d13b,627c6f6d3ed2968600fa2090,2022-05-12_03h23.10.564,classification_task,2021.2.3,Win32,60.0240096,627c6715c52fd12f31907bcf,,,,,,,,,,,,,,,,,,,,,,,a,1,6.032,"[""0.428"",""0.477"",""0.834"",""0.876""]","[0,1,1,1]",0,17,17,17,1,0,1,,,1,FALSE,,,,,,,,,,,,,,,,,,,,,,,,,,,,,,,
,6065dcc8bc4a1f1663e4d13b,627c6f6d3ed2968600fa2090,2022-05-12_03h23.10.564,classification_task,2021.2.3,Win32,60.0240096,627c6715c52fd12f31907bcf,,,,,,,,,,,,,,,,,,,,,,,a,1,9.015,"[""0.187"",""0.350"",""0.102"",""0.956""]","[1,1,0,1]",0,18,18,18,1,0,0,,,1,FALSE,,,,,,,,,,,,,,,,,,,,,,,,,,,,,,,
,6065dcc8bc4a1f1663e4d13b,627c6f6d3ed2968600fa2090,2022-05-12_03h23.10.564,classification_task,2021.2.3,Win32,60.0240096,627c6715c52fd12f31907bcf,,,,,,,,,,,,,,,,,,,,,,,l,1,3.769,"[""0.148"",""0.231"",""0.114"",""0.689""]","[1,1,0,1]",0,19,19,19,1,1,0,,,1,FALSE,,,,,,,,,,,,,,,,,,,,,,,,,,,,,,,
,6065dcc8bc4a1f1663e4d13b,627c6f6d3ed2968600fa2090,2022-05-12_03h23.10.564,classification_task,2021.2.3,Win32,60.0240096,627c6715c52fd12f31907bcf,,,,,,,,,,,,,,,,,,,,,,,l,1,3.961,"[""0.059"",""0.281"",""0.440"",""0.749""]","[1,1,0,1]",0,20,20,20,1,1,1,,,1,FALSE,,,,,,,,,,,,,,,,,,,,,,,,,,,,,,,
,6065dcc8bc4a1f1663e4d13b,627c6f6d3ed2968600fa2090,2022-05-12_03h23.10.564,classification_task,2021.2.3,Win32,60.0240096,627c6715c52fd12f31907bcf,,,,,,,,,,,,,,,,,,,,,,,l,0,4.991,"[""0.316"",""0.477"",""0.834"",""0.114""]","[1,1,1,0]",0,21,21,21,1,0,1,,,1,FALSE,,,,,,,,,,,,,,,,,,,,,,,,,,,,,,,
,6065dcc8bc4a1f1663e4d13b,627c6f6d3ed2968600fa2090,2022-05-12_03h23.10.564,classification_task,2021.2.3,Win32,60.0240096,627c6715c52fd12f31907bcf,,,,,,,,,,,,,,,,,,,,,,,l,1,4.777,"[""0.148"",""0.231"",""0.637"",""0.440""]","[1,1,1,0]",0,22,22,22,1,1,0,,,1,FALSE,,,,,,,,,,,,,,,,,,,,,,,,,,,,,,,
,6065dcc8bc4a1f1663e4d13b,627c6f6d3ed2968600fa2090,2022-05-12_03h23.10.564,classification_task,2021.2.3,Win32,60.0240096,627c6715c52fd12f31907bcf,,,,,,,,,,,,,,,,,,,,,,,l,1,4.601,"[""0.059"",""0.405"",""0.579"",""0.749""]","[1,0,1,1]",0,23,23,23,1,1,1,,,1,FALSE,,,,,,,,,,,,,,,,,,,,,,,,,,,,,,,
,6065dcc8bc4a1f1663e4d13b,627c6f6d3ed2968600fa2090,2022-05-12_03h23.10.564,classification_task,2021.2.3,Win32,60.0240096,627c6715c52fd12f31907bcf,,,,,,,,,,,,,,,,,,,,,,,a,1,6.096,"[""0.102"",""0.350"",""0.916"",""0.956""]","[0,1,1,1]",0,24,24,24,1,0,0,,,1,FALSE,,,,,,,,,,,,,,,,,,,,,,,,,,,,,,,
,6065dcc8bc4a1f1663e4d13b,627c6f6d3ed2968600fa2090,2022-05-12_03h23.10.564,classification_task,2021.2.3,Win32,60.0240096,627c6715c52fd12f31907bcf,,,,,,,,,,,,,,,,,,,,,,,l,1,3.943,"[""0.148"",""0.428"",""0.637"",""0.689""]","[1,0,1,1]",0,25,25,25,1,1,0,,,1,FALSE,,,,,,,,,,,,,,,,,,,,,,,,,,,,,,,
,6065dcc8bc4a1f1663e4d13b,627c6f6d3ed2968600fa2090,2022-05-12_03h23.10.564,classification_task,2021.2.3,Win32,60.0240096,627c6715c52fd12f31907bcf,,,,,,,,,,,,,,,,,,,,,,,l,0,5.001,"[""0.316"",""0.477"",""0.428"",""0.876""]","[1,1,0,1]",0,26,26,26,1,0,1,,,1,FALSE,,,,,,,,,,,,,,,,,,,,,,,,,,,,,,,
,6065dcc8bc4a1f1663e4d13b,627c6f6d3ed2968600fa2090,2022-05-12_03h23.10.564,classification_task,2021.2.3,Win32,60.0240096,627c6715c52fd12f31907bcf,,,,,,,,,,,,,,,,,,,,,,,l,1,6.117,"[""0.059"",""0.281"",""0.579"",""0.109""]","[1,1,1,0]",0,27,27,27,1,1,1,,,1,FALSE,,,,,,,,,,,,,,,,,,,,,,,,,,,,,,,
,6065dcc8bc4a1f1663e4d13b,627c6f6d3ed2968600fa2090,2022-05-12_03h23.10.564,classification_task,2021.2.3,Win32,60.0240096,627c6715c52fd12f31907bcf,,,,,,,,,,,,,,,,,,,,,,,l,1,5.343,"[""0.514"",""0.281"",""0.579"",""0.749""]","[0,1,1,1]",0,28,28,28,1,1,1,,,1,FALSE,,,,,,,,,,,,,,,,,,,,,,,,,,,,,,,
,6065dcc8bc4a1f1663e4d13b,627c6f6d3ed2968600fa2090,2022-05-12_03h23.10.564,classification_task,2021.2.3,Win32,60.0240096,627c6715c52fd12f31907bcf,,,,,,,,,,,,,,,,,,,,,,,a,1,3.548,"[""0.187"",""0.404"",""0.916"",""0.956""]","[1,0,1,1]",0,29,29,29,1,0,0,,,1,FALSE,,,,,,,,,,,,,,,,,,,,,,,,,,,,,,,
,6065dcc8bc4a1f1663e4d13b,627c6f6d3ed2968600fa2090,2022-05-12_03h23.10.564,classification_task,2021.2.3,Win32,60.0240096,627c6715c52fd12f31907bcf,,,,,,,,,,,,,,,,,,,,,,,a,1,6.426,"[""0.187"",""0.350"",""0.916"",""0.114""]","[1,1,1,0]",0,30,30,30,1,0,0,,,1,FALSE,,,,,,,,,,,,,,,,,,,,,,,,,,,,,,,
,6065dcc8bc4a1f1663e4d13b,627c6f6d3ed2968600fa2090,2022-05-12_03h23.10.564,classification_task,2021.2.3,Win32,60.0240096,627c6715c52fd12f31907bcf,,,,,,,,,,,,,,,,,,,,,,,a,1,5.527,"[""0.316"",""0.391"",""0.834"",""0.876""]","[1,0,1,1]",0,31,31,31,1,0,1,,,1,FALSE,,,,,,,,,,,,,,,,,,,,,,,,,,,,,,,
,6065dcc8bc4a1f1663e4d13b,627c6f6d3ed2968600fa2090,2022-05-12_03h23.10.564,classification_task,2021.2.3,Win32,60.0240096,627c6715c52fd12f31907bcf,,,,,,,,,,,,,,,,,,,,,,,l,0,9.513,"[""0.316"",""0.799"",""0.834"",""0.876""]","[1,0,1,1]",0,32,32,32,1,0,1,,,1,FALSE,,,,,,,,,,,,,,,,,,,,,,,,,,,,,,,
,6065dcc8bc4a1f1663e4d13b,627c6f6d3ed2968600fa2090,2022-05-12_03h23.10.564,classification_task,2021.2.3,Win32,60.0240096,627c6715c52fd12f31907bcf,,,,,,,,,,,,,,,,,,,,,,,a,0,3.321,"[""0.148"",""0.231"",""0.637"",""0.390""]","[1,1,1,0]",0,33,33,33,1,1,0,,,1,FALSE,,,,,,,,,,,,,,,,,,,,,,,,,,,,,,,
,6065dcc8bc4a1f1663e4d13b,627c6f6d3ed2968600fa2090,2022-05-12_03h23.10.564,classification_task,2021.2.3,Win32,60.0240096,627c6715c52fd12f31907bcf,,,,,,,,,,,,,,,,,,,,,,,a,1,2.14,"[""0.404"",""0.477"",""0.834"",""0.876""]","[0,1,1,1]",0,34,34,34,1,0,1,,,1,FALSE,,,,,,,,,,,,,,,,,,,,,,,,,,,,,,,
,6065dcc8bc4a1f1663e4d13b,627c6f6d3ed2968600fa2090,2022-05-12_03h23.10.564,classification_task,2021.2.3,Win32,60.0240096,627c6715c52fd12f31907bcf,,,,,,,,,,,,,,,,,,,,,,,l,0,4.868,"[""0.316"",""0.477"",""0.523"",""0.876""]","[1,1,0,1]",0,35,35,35,1,0,1,,,1,FALSE,,,,,,,,,,,,,,,,,,,,,,,,,,,,,,,
,6065dcc8bc4a1f1663e4d13b,627c6f6d3ed2968600fa2090,2022-05-12_03h23.10.564,classification_task,2021.2.3,Win32,60.0240096,627c6715c52fd12f31907bcf,,,,,,,,,,,,,,,,,,,,,,,l,1,1.901,"[""0.059"",""0.281"",""0.109"",""0.749""]","[1,1,0,1]",0,36,36,36,1,1,1,,,1,FALSE,,,,,,,,,,,,,,,,,,,,,,,,,,,,,,,
,6065dcc8bc4a1f1663e4d13b,627c6f6d3ed2968600fa2090,2022-05-12_03h23.10.564,classification_task,2021.2.3,Win32,60.0240096,627c6715c52fd12f31907bcf,,,,,,,,,,,,,,,,,,,,,,,a,0,1.201,"[""0.148"",""0.231"",""0.404"",""0.689""]","[1,1,0,1]",0,37,37,37,1,1,0,,,1,FALSE,,,,,,,,,,,,,,,,,,,,,,,,,,,,,,,
,6065dcc8bc4a1f1663e4d13b,627c6f6d3ed2968600fa2090,2022-05-12_03h23.10.564,classification_task,2021.2.3,Win32,60.0240096,627c6715c52fd12f31907bcf,,,,,,,,,,,,,,,,,,,,,,,l,0,1.406,"[""0.440"",""0.350"",""0.916"",""0.956""]","[0,1,1,1]",0,38,38,38,1,0,0,,,1,FALSE,,,,,,,,,,,,,,,,,,,,,,,,,,,,,,,
,6065dcc8bc4a1f1663e4d13b,627c6f6d3ed2968600fa2090,2022-05-12_03h23.10.564,classification_task,2021.2.3,Win32,60.0240096,627c6715c52fd12f31907bcf,,,,,,,,,,,,,,,,,,,,,,,l,0,0.613,"[""0.187"",""0.350"",""0.523"",""0.956""]","[1,1,0,1]",0,39,39,39,1,0,0,,,1,FALSE,,,,,,,,,,,,,,,,,,,,,,,,,,,,,,,
,6065dcc8bc4a1f1663e4d13b,627c6f6d3ed2968600fa2090,2022-05-12_03h23.10.564,classification_task,2021.2.3,Win32,60.0240096,627c6715c52fd12f31907bcf,,,,,,,,,,,,,,,,,,,,,,,a,0,1.032,"[""0.059"",""0.523"",""0.579"",""0.749""]","[1,0,1,1]",0,40,40,40,1,1,1,,,1,FALSE,,,,,,,,,,,,,,,,,,,,,,,,,,,,,,,
,6065dcc8bc4a1f1663e4d13b,627c6f6d3ed2968600fa2090,2022-05-12_03h23.10.564,classification_task,2021.2.3,Win32,60.0240096,627c6715c52fd12f31907bcf,,,,,,,,,,,,,,,,,,,,,,,l,0,1.534,"[""0.187"",""0.350"",""0.916"",""0.527""]","[1,1,1,0]",0,41,41,41,1,0,0,,,1,FALSE,,,,,,,,,,,,,,,,,,,,,,,,,,,,,,,
,6065dcc8bc4a1f1663e4d13b,627c6f6d3ed2968600fa2090,2022-05-12_03h23.10.564,classification_task,2021.2.3,Win32,60.0240096,627c6715c52fd12f31907bcf,,,,,,,,,,,,,,,,,,,,,,,a,0,1.834,"[""0.517"",""0.281"",""0.579"",""0.749""]","[0,1,1,1]",0,42,42,42,1,1,1,,,1,FALSE,,,,,,,,,,,,,,,,,,,,,,,,,,,,,,,
,6065dcc8bc4a1f1663e4d13b,627c6f6d3ed2968600fa2090,2022-05-12_03h23.10.564,classification_task,2021.2.3,Win32,60.0240096,627c6715c52fd12f31907bcf,,,,,,,,,,,,,,,,,,,,,,,a,1,2.67,"[""0.316"",""0.477"",""0.834"",""0.440""]","[1,1,1,0]",0,43,43,43,1,0,1,,,1,FALSE,,,,,,,,,,,,,,,,,,,,,,,,,,,,,,,
,6065dcc8bc4a1f1663e4d13b,627c6f6d3ed2968600fa2090,2022-05-12_03h23.10.564,classification_task,2021.2.3,Win32,60.0240096,627c6715c52fd12f31907bcf,,,,,,,,,,,,,,,,,,,,,,,a,0,1.425,"[""0.440"",""0.231"",""0.637"",""0.689""]","[0,1,1,1]",0,44,44,44,1,1,0,,,1,FALSE,,,,,,,,,,,,,,,,,,,,,,,,,,,,,,,
,6065dcc8bc4a1f1663e4d13b,627c6f6d3ed2968600fa2090,2022-05-12_03h23.10.564,classification_task,2021.2.3,Win32,60.0240096,627c6715c52fd12f31907bcf,,,,,,,,,,,,,,,,,,,,,,,a,0,1.051,"[""0.148"",""0.514"",""0.637"",""0.689""]","[1,0,1,1]",0,45,45,45,1,1,0,,,1,FALSE,,,,,,,,,,,,,,,,,,,,,,,,,,,,,,,
,6065dcc8bc4a1f1663e4d13b,627c6f6d3ed2968600fa2090,2022-05-12_03h23.10.564,classification_task,2021.2.3,Win32,60.0240096,627c6715c52fd12f31907bcf,,,,,,,,,,,,,,,,,,,,,,,l,1,1.103,"[""0.059"",""0.281"",""0.579"",""0.527""]","[1,1,1,0]",0,46,46,46,1,1,1,,,1,FALSE,,,,,,,,,,,,,,,,,,,,,,,,,,,,,,,
,6065dcc8bc4a1f1663e4d13b,627c6f6d3ed2968600fa2090,2022-05-12_03h23.10.564,classification_task,2021.2.3,Win32,60.0240096,627c6715c52fd12f31907bcf,,,,,,,,,,,,,,,,,,,,,,,a,1,2.652,"[""0.187"",""0.517"",""0.916"",""0.956""]","[1,0,1,1]",0,47,47,47,1,0,0,,,1,FALSE,,,,,,,,,,,,,,,,,,,,,,,,,,,,,,,
,6065dcc8bc4a1f1663e4d13b,627c6f6d3ed2968600fa2090,2022-05-12_03h23.10.564,classification_task,2021.2.3,Win32,60.0240096,627c6715c52fd12f31907bcf,,,,,,,,,,,,,,,,,,,,,,,a,1,1.969,"[""0.316"",""0.477"",""0.834"",""0.404""]","[1,1,1,0]",0,48,48,48,1,0,1,,,1,FALSE,,,,,,,,,,,,,,,,,,,,,,,,,,,,,,,
,6065dcc8bc4a1f1663e4d13b,627c6f6d3ed2968600fa2090,2022-05-12_03h23.10.564,classification_task,2021.2.3,Win32,60.0240096,627c6715c52fd12f31907bcf,,,,,,,,,,,,,,,,,,,,,,,l,1,2.06,"[""0.059"",""0.281"",""0.579"",""0.102""]","[1,1,1,0]",0,49,49,49,1,1,1,,,1,FALSE,,,,,,,,,,,,,,,,,,,,,,,,,,,,,,,
,6065dcc8bc4a1f1663e4d13b,627c6f6d3ed2968600fa2090,2022-05-12_03h23.10.564,classification_task,2021.2.3,Win32,60.0240096,627c6715c52fd12f31907bcf,,,,,,,,,,,,,,,,,,,,,,,a,1,2.719,"[""0.187"",""0.350"",""0.527"",""0.956""]","[1,1,0,1]",0,50,50,50,1,0,0,,,1,FALSE,,,,,,,,,,,,,,,,,,,,,,,,,,,,,,,
,6065dcc8bc4a1f1663e4d13b,627c6f6d3ed2968600fa2090,2022-05-12_03h23.10.564,classification_task,2021.2.3,Win32,60.0240096,627c6715c52fd12f31907bcf,,,,,,,,,,,,,,,,,,,,,,,l,1,2.551,"[""0.440"",""0.231"",""0.637"",""0.689""]","[0,1,1,1]",0,51,51,51,1,1,0,,,1,FALSE,,,,,,,,,,,,,,,,,,,,,,,,,,,,,,,
,6065dcc8bc4a1f1663e4d13b,627c6f6d3ed2968600fa2090,2022-05-12_03h23.10.564,classification_task,2021.2.3,Win32,60.0240096,627c6715c52fd12f31907bcf,,,,,,,,,,,,,,,,,,,,,,,a,1,1.371,"[""0.440"",""0.350"",""0.916"",""0.956""]","[0,1,1,1]",0,52,52,52,1,0,0,,,1,FALSE,,,,,,,,,,,,,,,,,,,,,,,,,,,,,,,
,6065dcc8bc4a1f1663e4d13b,627c6f6d3ed2968600fa2090,2022-05-12_03h23.10.564,classification_task,2021.2.3,Win32,60.0240096,627c6715c52fd12f31907bcf,,,,,,,,,,,,,,,,,,,,,,,a,1,1.183,"[""0.316"",""0.477"",""0.799"",""0.876""]","[1,1,0,1]",0,53,53,53,1,0,1,,,1,FALSE,,,,,,,,,,,,,,,,,,,,,,,,,,,,,,,
,6065dcc8bc4a1f1663e4d13b,627c6f6d3ed2968600fa2090,2022-05-12_03h23.10.564,classification_task,2021.2.3,Win32,60.0240096,627c6715c52fd12f31907bcf,,,,,,,,,,,,,,,,,,,,,,,l,1,2.056,"[""0.148"",""0.428"",""0.637"",""0.689""]","[1,0,1,1]",0,54,54,54,1,1,0,,,1,FALSE,,,,,,,,,,,,,,,,,,,,,,,,,,,,,,,
,6065dcc8bc4a1f1663e4d13b,627c6f6d3ed2968600fa2090,2022-05-12_03h23.10.564,classification_task,2021.2.3,Win32,60.0240096,627c6715c52fd12f31907bcf,,,,,,,,,,,,,,,,,,,,,,,a,0,2.321,"[""0.440"",""0.281"",""0.579"",""0.749""]","[0,1,1,1]",0,55,55,55,1,1,1,,,1,FALSE,,,,,,,,,,,,,,,,,,,,,,,,,,,,,,,
,6065dcc8bc4a1f1663e4d13b,627c6f6d3ed2968600fa2090,2022-05-12_03h23.10.564,classification_task,2021.2.3,Win32,60.0240096,627c6715c52fd12f31907bcf,,,,,,,,,,,,,,,,,,,,,,,a,1,1.118,"[""0.187"",""0.102"",""0.916"",""0.956""]","[1,0,1,1]",0,56,56,56,1,0,0,,,1,FALSE,,,,,,,,,,,,,,,,,,,,,,,,,,,,,,,
,6065dcc8bc4a1f1663e4d13b,627c6f6d3ed2968600fa2090,2022-05-12_03h23.10.564,classification_task,2021.2.3,Win32,60.0240096,627c6715c52fd12f31907bcf,,,,,,,,,,,,,,,,,,,,,,,a,1,0.792,"[""0.316"",""0.390"",""0.834"",""0.876""]","[1,0,1,1]",0,57,57,57,1,0,1,,,1,FALSE,,,,,,,,,,,,,,,,,,,,,,,,,,,,,,,
,6065dcc8bc4a1f1663e4d13b,627c6f6d3ed2968600fa2090,2022-05-12_03h23.10.564,classification_task,2021.2.3,Win32,60.0240096,627c6715c52fd12f31907bcf,,,,,,,,,,,,,,,,,,,,,,,a,1,0.968,"[""0.405"",""0.477"",""0.834"",""0.876""]","[0,1,1,1]",0,58,58,58,1,0,1,,,1,FALSE,,,,,,,,,,,,,,,,,,,,,,,,,,,,,,,
,6065dcc8bc4a1f1663e4d13b,627c6f6d3ed2968600fa2090,2022-05-12_03h23.10.564,classification_task,2021.2.3,Win32,60.0240096,627c6715c52fd12f31907bcf,,,,,,,,,,,,,,,,,,,,,,,a,1,5.065,"[""0.187"",""0.350"",""0.916"",""0.440""]","[1,1,1,0]",0,59,59,59,1,0,0,,,1,FALSE,,,,,,,,,,,,,,,,,,,,,,,,,,,,,,,
,6065dcc8bc4a1f1663e4d13b,627c6f6d3ed2968600fa2090,2022-05-12_03h23.10.564,classification_task,2021.2.3,Win32,60.0240096,627c6715c52fd12f31907bcf,,,,,,,,,,,,,,,,,,,,,,,l,1,2.323,"[""0.148"",""0.231"",""0.637"",""0.514""]","[1,1,1,0]",0,60,60,60,1,1,0,,,1,FALSE,,,,,,,,,,,,,,,,,,,,,,,,,,,,,,,
,6065dcc8bc4a1f1663e4d13b,627c6f6d3ed2968600fa2090,2022-05-12_03h23.10.564,classification_task,2021.2.3,Win32,60.0240096,627c6715c52fd12f31907bcf,,,,,,,,,,,,,,,,,,,,,,,a,0,1.819,"[""0.059"",""0.281"",""0.390"",""0.749""]","[1,1,0,1]",0,61,61,61,1,1,1,,,1,FALSE,,,,,,,,,,,,,,,,,,,,,,,,,,,,,,,
,6065dcc8bc4a1f1663e4d13b,627c6f6d3ed2968600fa2090,2022-05-12_03h23.10.564,classification_task,2021.2.3,Win32,60.0240096,627c6715c52fd12f31907bcf,,,,,,,,,,,,,,,,,,,,,,,a,0,1.051,"[""0.148"",""0.231"",""0.527"",""0.689""]","[1,1,0,1]",0,62,62,62,1,1,0,,,1,FALSE,,,,,,,,,,,,,,,,,,,,,,,,,,,,,,,
,6065dcc8bc4a1f1663e4d13b,627c6f6d3ed2968600fa2090,2022-05-12_03h23.10.564,classification_task,2021.2.3,Win32,60.0240096,627c6715c52fd12f31907bcf,,,,,,,,,,,,,,,,,,,,,,,l,1,1.746,"[""0.059"",""0.514"",""0.579"",""0.749""]","[1,0,1,1]",0,63,63,63,1,1,1,,,1,FALSE,,,,,,,,,,,,,,,,,,,,,,,,,,,,,,,
,6065dcc8bc4a1f1663e4d13b,627c6f6d3ed2968600fa2090,2022-05-12_03h23.10.564,classification_task,2021.2.3,Win32,60.0240096,627c6715c52fd12f31907bcf,,,,,,,,,,,,,,,,,,,,,,,,,,,,,,,,,,,,,,,0, ,,0,0.737801293,566.894,0,0,0,0,1,2,1,,,,,,,,,,,,,,,,,,
,6065dcc8bc4a1f1663e4d13b,627c6f6d3ed2968600fa2090,2022-05-12_03h23.10.564,classification_task,2021.2.3,Win32,60.0240096,627c6715c52fd12f31907bcf,,,,,,,,,,,,,,,,,,,,,,,,,,,,,,,,,,,,,,,1,  ,,0,2.795414462,571.842,0,0,0,0,1,2,1,,,,,,,,,,,,,,,,,,
,6065dcc8bc4a1f1663e4d13b,627c6f6d3ed2968600fa2090,2022-05-12_03h23.10.564,classification_task,2021.2.3,Win32,60.0240096,627c6715c52fd12f31907bcf,,,,,,,,,,,,,,,,,,,,,,,,,,,,,,,,,,,,,,,2,  ,,0,0.958259847,580.782,0,0,0,0,1,2,1,,,,,,,,,,,,,,,,,,
,6065dcc8bc4a1f1663e4d13b,627c6f6d3ed2968600fa2090,2022-05-12_03h23.10.564,classification_task,2021.2.3,Win32,60.0240096,627c6715c52fd12f31907bcf,,,,,,,,,,,,,,,,,,,,,,,,,,,,,,,,,,,,,,,,,,,,,0,0,0,0,1,,1,,,,,,,,,,,,,,,,,,
,6065dcc8bc4a1f1663e4d13b,627c6f6d3ed2968600fa2090,2022-05-12_03h23.10.564,classification_task,2021.2.3,Win32,60.0240096,627c6715c52fd12f31907bcf,,,,,,,,,,,,,,,,,,,,,space,12.46,a,1,4.13,"[""0.405"",""0.477"",""0.834"",""0.876""]","[0,1,1,1]",0,0,0,0,1,0,1,,,1,FALSE,,,,,,,,,,,,,,,,,,,,,,,,,,,,,,,
,6065dcc8bc4a1f1663e4d13b,627c6f6d3ed2968600fa2090,2022-05-12_03h23.10.564,classification_task,2021.2.3,Win32,60.0240096,627c6715c52fd12f31907bcf,,,,,,,,,,,,,,,,,,,,,,,a,1,1.715,"[""0.316"",""0.477"",""0.834"",""0.523""]","[1,1,1,0]",0,1,1,1,1,0,1,,,1,FALSE,,,,,,,,,,,,,,,,,,,,,,,,,,,,,,,
,6065dcc8bc4a1f1663e4d13b,627c6f6d3ed2968600fa2090,2022-05-12_03h23.10.564,classification_task,2021.2.3,Win32,60.0240096,627c6715c52fd12f31907bcf,,,,,,,,,,,,,,,,,,,,,,,l,1,0.533,"[""0.515"",""0.281"",""0.579"",""0.749""]","[0,1,1,1]",0,2,2,2,1,1,1,,,1,FALSE,,,,,,,,,,,,,,,,,,,,,,,,,,,,,,,
,6065dcc8bc4a1f1663e4d13b,627c6f6d3ed2968600fa2090,2022-05-12_03h23.10.564,classification_task,2021.2.3,Win32,60.0240096,627c6715c52fd12f31907bcf,,,,,,,,,,,,,,,,,,,,,,,a,1,0.533,"[""0.316"",""0.477"",""0.102"",""0.876""]","[1,1,0,1]",0,3,3,3,1,0,1,,,1,FALSE,,,,,,,,,,,,,,,,,,,,,,,,,,,,,,,
,6065dcc8bc4a1f1663e4d13b,627c6f6d3ed2968600fa2090,2022-05-12_03h23.10.564,classification_task,2021.2.3,Win32,60.0240096,627c6715c52fd12f31907bcf,,,,,,,,,,,,,,,,,,,,,,,a,1,2.029,"[""0.109"",""0.350"",""0.916"",""0.956""]","[0,1,1,1]",0,4,4,4,1,0,0,,,1,FALSE,,,,,,,,,,,,,,,,,,,,,,,,,,,,,,,
,6065dcc8bc4a1f1663e4d13b,627c6f6d3ed2968600fa2090,2022-05-12_03h23.10.564,classification_task,2021.2.3,Win32,60.0240096,627c6715c52fd12f31907bcf,,,,,,,,,,,,,,,,,,,,,,,l,1,1.001,"[""0.148"",""0.231"",""0.102"",""0.689""]","[1,1,0,1]",0,5,5,5,1,1,0,,,1,FALSE,,,,,,,,,,,,,,,,,,,,,,,,,,,,,,,
,6065dcc8bc4a1f1663e4d13b,627c6f6d3ed2968600fa2090,2022-05-12_03h23.10.564,classification_task,2021.2.3,Win32,60.0240096,627c6715c52fd12f31907bcf,,,,,,,,,,,,,,,,,,,,,,,a,1,1.501,"[""0.187"",""0.350"",""0.517"",""0.956""]","[1,1,0,1]",0,6,6,6,1,0,0,,,1,FALSE,,,,,,,,,,,,,,,,,,,,,,,,,,,,,,,
,6065dcc8bc4a1f1663e4d13b,627c6f6d3ed2968600fa2090,2022-05-12_03h23.10.564,classification_task,2021.2.3,Win32,60.0240096,627c6715c52fd12f31907bcf,,,,,,,,,,,,,,,,,,,,,,,l,1,2.511,"[""0.059"",""0.281"",""0.109"",""0.749""]","[1,1,0,1]",0,7,7,7,1,1,1,,,1,FALSE,,,,,,,,,,,,,,,,,,,,,,,,,,,,,,,
,6065dcc8bc4a1f1663e4d13b,627c6f6d3ed2968600fa2090,2022-05-12_03h23.10.564,classification_task,2021.2.3,Win32,60.0240096,627c6715c52fd12f31907bcf,,,,,,,,,,,,,,,,,,,,,,,a,1,3.02,"[""0.316"",""0.390"",""0.834"",""0.876""]","[1,0,1,1]",0,8,8,8,1,0,1,,,1,FALSE,,,,,,,,,,,,,,,,,,,,,,,,,,,,,,,
,6065dcc8bc4a1f1663e4d13b,627c6f6d3ed2968600fa2090,2022-05-12_03h23.10.564,classification_task,2021.2.3,Win32,60.0240096,627c6715c52fd12f31907bcf,,,,,,,,,,,,,,,,,,,,,,,l,1,1.229,"[""0.527"",""0.231"",""0.637"",""0.689""]","[0,1,1,1]",0,9,9,9,1,1,0,,,1,FALSE,,,,,,,,,,,,,,,,,,,,,,,,,,,,,,,
,6065dcc8bc4a1f1663e4d13b,627c6f6d3ed2968600fa2090,2022-05-12_03h23.10.564,classification_task,2021.2.3,Win32,60.0240096,627c6715c52fd12f31907bcf,,,,,,,,,,,,,,,,,,,,,,,a,1,1,"[""0.187"",""0.102"",""0.916"",""0.956""]","[1,0,1,1]",0,10,10,10,1,0,0,,,1,FALSE,,,,,,,,,,,,,,,,,,,,,,,,,,,,,,,
,6065dcc8bc4a1f1663e4d13b,627c6f6d3ed2968600fa2090,2022-05-12_03h23.10.564,classification_task,2021.2.3,Win32,60.0240096,627c6715c52fd12f31907bcf,,,,,,,,,,,,,,,,,,,,,,,a,1,1.021,"[""0.187"",""0.350"",""0.916"",""0.515""]","[1,1,1,0]",0,11,11,11,1,0,0,,,1,FALSE,,,,,,,,,,,,,,,,,,,,,,,,,,,,,,,
,6065dcc8bc4a1f1663e4d13b,627c6f6d3ed2968600fa2090,2022-05-12_03h23.10.564,classification_task,2021.2.3,Win32,60.0240096,627c6715c52fd12f31907bcf,,,,,,,,,,,,,,,,,,,,,,,a,0,0.952,"[""0.059"",""0.281"",""0.579"",""0.404""]","[1,1,1,0]",0,12,12,12,1,1,1,,,1,FALSE,,,,,,,,,,,,,,,,,,,,,,,,,,,,,,,
,6065dcc8bc4a1f1663e4d13b,627c6f6d3ed2968600fa2090,2022-05-12_03h23.10.564,classification_task,2021.2.3,Win32,60.0240096,627c6715c52fd12f31907bcf,,,,,,,,,,,,,,,,,,,,,,,l,1,1.208,"[""0.059"",""0.405"",""0.579"",""0.749""]","[1,0,1,1]",0,13,13,13,1,1,1,,,1,FALSE,,,,,,,,,,,,,,,,,,,,,,,,,,,,,,,
,6065dcc8bc4a1f1663e4d13b,627c6f6d3ed2968600fa2090,2022-05-12_03h23.10.564,classification_task,2021.2.3,Win32,60.0240096,627c6715c52fd12f31907bcf,,,,,,,,,,,,,,,,,,,,,,,l,1,1.043,"[""0.148"",""0.231"",""0.637"",""0.440""]","[1,1,1,0]",0,14,14,14,1,1,0,,,1,FALSE,,,,,,,,,,,,,,,,,,,,,,,,,,,,,,,
,6065dcc8bc4a1f1663e4d13b,627c6f6d3ed2968600fa2090,2022-05-12_03h23.10.564,classification_task,2021.2.3,Win32,60.0240096,627c6715c52fd12f31907bcf,,,,,,,,,,,,,,,,,,,,,,,l,1,1.282,"[""0.148"",""0.404"",""0.637"",""0.689""]","[1,0,1,1]",0,15,15,15,1,1,0,,,1,FALSE,,,,,,,,,,,,,,,,,,,,,,,,,,,,,,,
,6065dcc8bc4a1f1663e4d13b,627c6f6d3ed2968600fa2090,2022-05-12_03h23.10.564,classification_task,2021.2.3,Win32,60.0240096,627c6715c52fd12f31907bcf,,,,,,,,,,,,,,,,,,,,,,,l,1,1.033,"[""0.148"",""0.391"",""0.637"",""0.689""]","[1,0,1,1]",0,16,16,16,1,1,0,,,1,FALSE,,,,,,,,,,,,,,,,,,,,,,,,,,,,,,,
,6065dcc8bc4a1f1663e4d13b,627c6f6d3ed2968600fa2090,2022-05-12_03h23.10.564,classification_task,2021.2.3,Win32,60.0240096,627c6715c52fd12f31907bcf,,,,,,,,,,,,,,,,,,,,,,,l,1,0.91,"[""0.059"",""0.440"",""0.579"",""0.749""]","[1,0,1,1]",0,17,17,17,1,1,1,,,1,FALSE,,,,,,,,,,,,,,,,,,,,,,,,,,,,,,,
,6065dcc8bc4a1f1663e4d13b,627c6f6d3ed2968600fa2090,2022-05-12_03h23.10.564,classification_task,2021.2.3,Win32,60.0240096,627c6715c52fd12f31907bcf,,,,,,,,,,,,,,,,,,,,,,,l,1,0.817,"[""0.059"",""0.281"",""0.440"",""0.749""]","[1,1,0,1]",0,18,18,18,1,1,1,,,1,FALSE,,,,,,,,,,,,,,,,,,,,,,,,,,,,,,,
,6065dcc8bc4a1f1663e4d13b,627c6f6d3ed2968600fa2090,2022-05-12_03h23.10.564,classification_task,2021.2.3,Win32,60.0240096,627c6715c52fd12f31907bcf,,,,,,,,,,,,,,,,,,,,,,,l,1,0.86,"[""0.148"",""0.231"",""0.515"",""0.689""]","[1,1,0,1]",0,19,19,19,1,1,0,,,1,FALSE,,,,,,,,,,,,,,,,,,,,,,,,,,,,,,,
,6065dcc8bc4a1f1663e4d13b,627c6f6d3ed2968600fa2090,2022-05-12_03h23.10.564,classification_task,2021.2.3,Win32,60.0240096,627c6715c52fd12f31907bcf,,,,,,,,,,,,,,,,,,,,,,,l,1,0.82,"[""0.102"",""0.281"",""0.579"",""0.749""]","[0,1,1,1]",0,20,20,20,1,1,1,,,1,FALSE,,,,,,,,,,,,,,,,,,,,,,,,,,,,,,,
,6065dcc8bc4a1f1663e4d13b,627c6f6d3ed2968600fa2090,2022-05-12_03h23.10.564,classification_task,2021.2.3,Win32,60.0240096,627c6715c52fd12f31907bcf,,,,,,,,,,,,,,,,,,,,,,,l,1,0.684,"[""0.059"",""0.281"",""0.579"",""0.404""]","[1,1,1,0]",0,21,21,21,1,1,1,,,1,FALSE,,,,,,,,,,,,,,,,,,,,,,,,,,,,,,,
,6065dcc8bc4a1f1663e4d13b,627c6f6d3ed2968600fa2090,2022-05-12_03h23.10.564,classification_task,2021.2.3,Win32,60.0240096,627c6715c52fd12f31907bcf,,,,,,,,,,,,,,,,,,,,,,,a,1,0.912,"[""0.187"",""0.350"",""0.916"",""0.391""]","[1,1,1,0]",0,22,22,22,1,0,0,,,1,FALSE,,,,,,,,,,,,,,,,,,,,,,,,,,,,,,,
,6065dcc8bc4a1f1663e4d13b,627c6f6d3ed2968600fa2090,2022-05-12_03h23.10.564,classification_task,2021.2.3,Win32,60.0240096,627c6715c52fd12f31907bcf,,,,,,,,,,,,,,,,,,,,,,,a,1,0.867,"[""0.514"",""0.350"",""0.916"",""0.956""]","[0,1,1,1]",0,23,23,23,1,0,0,,,1,FALSE,,,,,,,,,,,,,,,,,,,,,,,,,,,,,,,
,6065dcc8bc4a1f1663e4d13b,627c6f6d3ed2968600fa2090,2022-05-12_03h23.10.564,classification_task,2021.2.3,Win32,60.0240096,627c6715c52fd12f31907bcf,,,,,,,,,,,,,,,,,,,,,,,l,0,1.034,"[""0.187"",""0.428"",""0.916"",""0.956""]","[1,0,1,1]",0,24,24,24,1,0,0,,,1,FALSE,,,,,,,,,,,,,,,,,,,,,,,,,,,,,,,
,6065dcc8bc4a1f1663e4d13b,627c6f6d3ed2968600fa2090,2022-05-12_03h23.10.564,classification_task,2021.2.3,Win32,60.0240096,627c6715c52fd12f31907bcf,,,,,,,,,,,,,,,,,,,,,,,a,1,1.001,"[""0.187"",""0.350"",""0.799"",""0.956""]","[1,1,0,1]",0,25,25,25,1,0,0,,,1,FALSE,,,,,,,,,,,,,,,,,,,,,,,,,,,,,,,
,6065dcc8bc4a1f1663e4d13b,627c6f6d3ed2968600fa2090,2022-05-12_03h23.10.564,classification_task,2021.2.3,Win32,60.0240096,627c6715c52fd12f31907bcf,,,,,,,,,,,,,,,,,,,,,,,a,1,0.619,"[""0.102"",""0.477"",""0.834"",""0.876""]","[0,1,1,1]",0,26,26,26,1,0,1,,,1,FALSE,,,,,,,,,,,,,,,,,,,,,,,,,,,,,,,
,6065dcc8bc4a1f1663e4d13b,627c6f6d3ed2968600fa2090,2022-05-12_03h23.10.564,classification_task,2021.2.3,Win32,60.0240096,627c6715c52fd12f31907bcf,,,,,,,,,,,,,,,,,,,,,,,a,1,0.687,"[""0.316"",""0.391"",""0.834"",""0.876""]","[1,0,1,1]",0,27,27,27,1,0,1,,,1,FALSE,,,,,,,,,,,,,,,,,,,,,,,,,,,,,,,
,6065dcc8bc4a1f1663e4d13b,627c6f6d3ed2968600fa2090,2022-05-12_03h23.10.564,classification_task,2021.2.3,Win32,60.0240096,627c6715c52fd12f31907bcf,,,,,,,,,,,,,,,,,,,,,,,a,1,0.668,"[""0.316"",""0.477"",""0.834"",""0.391""]","[1,1,1,0]",0,28,28,28,1,0,1,,,1,FALSE,,,,,,,,,,,,,,,,,,,,,,,,,,,,,,,
,6065dcc8bc4a1f1663e4d13b,627c6f6d3ed2968600fa2090,2022-05-12_03h23.10.564,classification_task,2021.2.3,Win32,60.0240096,627c6715c52fd12f31907bcf,,,,,,,,,,,,,,,,,,,,,,,a,1,0.756,"[""0.316"",""0.477"",""0.102"",""0.876""]","[1,1,0,1]",0,29,29,29,1,0,1,,,1,FALSE,,,,,,,,,,,,,,,,,,,,,,,,,,,,,,,
,6065dcc8bc4a1f1663e4d13b,627c6f6d3ed2968600fa2090,2022-05-12_03h23.10.564,classification_task,2021.2.3,Win32,60.0240096,627c6715c52fd12f31907bcf,,,,,,,,,,,,,,,,,,,,,,,l,1,0.913,"[""0.523"",""0.231"",""0.637"",""0.689""]","[0,1,1,1]",0,30,30,30,1,1,0,,,1,FALSE,,,,,,,,,,,,,,,,,,,,,,,,,,,,,,,
,6065dcc8bc4a1f1663e4d13b,627c6f6d3ed2968600fa2090,2022-05-12_03h23.10.564,classification_task,2021.2.3,Win32,60.0240096,627c6715c52fd12f31907bcf,,,,,,,,,,,,,,,,,,,,,,,l,1,1.245,"[""0.148"",""0.231"",""0.637"",""0.114""]","[1,1,1,0]",0,31,31,31,1,1,0,,,1,FALSE,,,,,,,,,,,,,,,,,,,,,,,,,,,,,,,
,6065dcc8bc4a1f1663e4d13b,627c6f6d3ed2968600fa2090,2022-05-12_03h23.10.564,classification_task,2021.2.3,Win32,60.0240096,627c6715c52fd12f31907bcf,,,,,,,,,,,,,,,,,,,,,,,a,1,0.798,"[""0.316"",""0.477"",""0.405"",""0.876""]","[1,1,0,1]",0,32,32,32,1,0,1,,,1,FALSE,,,,,,,,,,,,,,,,,,,,,,,,,,,,,,,
,6065dcc8bc4a1f1663e4d13b,627c6f6d3ed2968600fa2090,2022-05-12_03h23.10.564,classification_task,2021.2.3,Win32,60.0240096,627c6715c52fd12f31907bcf,,,,,,,,,,,,,,,,,,,,,,,a,1,0.484,"[""0.316"",""0.477"",""0.834"",""0.799""]","[1,1,1,0]",0,33,33,33,1,0,1,,,1,FALSE,,,,,,,,,,,,,,,,,,,,,,,,,,,,,,,
,6065dcc8bc4a1f1663e4d13b,627c6f6d3ed2968600fa2090,2022-05-12_03h23.10.564,classification_task,2021.2.3,Win32,60.0240096,627c6715c52fd12f31907bcf,,,,,,,,,,,,,,,,,,,,,,,l,1,0.583,"[""0.059"",""0.281"",""0.404"",""0.749""]","[1,1,0,1]",0,34,34,34,1,1,1,,,1,FALSE,,,,,,,,,,,,,,,,,,,,,,,,,,,,,,,
,6065dcc8bc4a1f1663e4d13b,627c6f6d3ed2968600fa2090,2022-05-12_03h23.10.564,classification_task,2021.2.3,Win32,60.0240096,627c6715c52fd12f31907bcf,,,,,,,,,,,,,,,,,,,,,,,l,1,0.5,"[""0.059"",""0.799"",""0.579"",""0.749""]","[1,0,1,1]",0,35,35,35,1,1,1,,,1,FALSE,,,,,,,,,,,,,,,,,,,,,,,,,,,,,,,
,6065dcc8bc4a1f1663e4d13b,627c6f6d3ed2968600fa2090,2022-05-12_03h23.10.564,classification_task,2021.2.3,Win32,60.0240096,627c6715c52fd12f31907bcf,,,,,,,,,,,,,,,,,,,,,,,a,1,0.501,"[""0.316"",""0.527"",""0.834"",""0.876""]","[1,0,1,1]",0,36,36,36,1,0,1,,,1,FALSE,,,,,,,,,,,,,,,,,,,,,,,,,,,,,,,
,6065dcc8bc4a1f1663e4d13b,627c6f6d3ed2968600fa2090,2022-05-12_03h23.10.564,classification_task,2021.2.3,Win32,60.0240096,627c6715c52fd12f31907bcf,,,,,,,,,,,,,,,,,,,,,,,a,0,0.744,"[""0.391"",""0.231"",""0.637"",""0.689""]","[0,1,1,1]",0,37,37,37,1,1,0,,,1,FALSE,,,,,,,,,,,,,,,,,,,,,,,,,,,,,,,
,6065dcc8bc4a1f1663e4d13b,627c6f6d3ed2968600fa2090,2022-05-12_03h23.10.564,classification_task,2021.2.3,Win32,60.0240096,627c6715c52fd12f31907bcf,,,,,,,,,,,,,,,,,,,,,,,l,0,0.816,"[""0.187"",""0.405"",""0.916"",""0.956""]","[1,0,1,1]",0,38,38,38,1,0,0,,,1,FALSE,,,,,,,,,,,,,,,,,,,,,,,,,,,,,,,
,6065dcc8bc4a1f1663e4d13b,627c6f6d3ed2968600fa2090,2022-05-12_03h23.10.564,classification_task,2021.2.3,Win32,60.0240096,627c6715c52fd12f31907bcf,,,,,,,,,,,,,,,,,,,,,,,l,1,0.924,"[""0.148"",""0.231"",""0.637"",""0.102""]","[1,1,1,0]",0,39,39,39,1,1,0,,,1,FALSE,,,,,,,,,,,,,,,,,,,,,,,,,,,,,,,
,6065dcc8bc4a1f1663e4d13b,627c6f6d3ed2968600fa2090,2022-05-12_03h23.10.564,classification_task,2021.2.3,Win32,60.0240096,627c6715c52fd12f31907bcf,,,,,,,,,,,,,,,,,,,,,,,l,1,0.746,"[""0.059"",""0.281"",""0.579"",""0.527""]","[1,1,1,0]",0,40,40,40,1,1,1,,,1,FALSE,,,,,,,,,,,,,,,,,,,,,,,,,,,,,,,
,6065dcc8bc4a1f1663e4d13b,627c6f6d3ed2968600fa2090,2022-05-12_03h23.10.564,classification_task,2021.2.3,Win32,60.0240096,627c6715c52fd12f31907bcf,,,,,,,,,,,,,,,,,,,,,,,l,0,0.978,"[""0.187"",""0.350"",""0.523"",""0.956""]","[1,1,0,1]",0,41,41,41,1,0,0,,,1,FALSE,,,,,,,,,,,,,,,,,,,,,,,,,,,,,,,
,6065dcc8bc4a1f1663e4d13b,627c6f6d3ed2968600fa2090,2022-05-12_03h23.10.564,classification_task,2021.2.3,Win32,60.0240096,627c6715c52fd12f31907bcf,,,,,,,,,,,,,,,,,,,,,,,a,0,0.801,"[""0.148"",""0.405"",""0.637"",""0.689""]","[1,0,1,1]",0,42,42,42,1,1,0,,,1,FALSE,,,,,,,,,,,,,,,,,,,,,,,,,,,,,,,
,6065dcc8bc4a1f1663e4d13b,627c6f6d3ed2968600fa2090,2022-05-12_03h23.10.564,classification_task,2021.2.3,Win32,60.0240096,627c6715c52fd12f31907bcf,,,,,,,,,,,,,,,,,,,,,,,l,1,0.645,"[""0.440"",""0.281"",""0.579"",""0.749""]","[0,1,1,1]",0,43,43,43,1,1,1,,,1,FALSE,,,,,,,,,,,,,,,,,,,,,,,,,,,,,,,
,6065dcc8bc4a1f1663e4d13b,627c6f6d3ed2968600fa2090,2022-05-12_03h23.10.564,classification_task,2021.2.3,Win32,60.0240096,627c6715c52fd12f31907bcf,,,,,,,,,,,,,,,,,,,,,,,l,1,0.662,"[""0.148"",""0.231"",""0.527"",""0.689""]","[1,1,0,1]",0,44,44,44,1,1,0,,,1,FALSE,,,,,,,,,,,,,,,,,,,,,,,,,,,,,,,
,6065dcc8bc4a1f1663e4d13b,627c6f6d3ed2968600fa2090,2022-05-12_03h23.10.564,classification_task,2021.2.3,Win32,60.0240096,627c6715c52fd12f31907bcf,,,,,,,,,,,,,,,,,,,,,,,l,0,0.551,"[""0.187"",""0.350"",""0.916"",""0.514""]","[1,1,1,0]",0,45,45,45,1,0,0,,,1,FALSE,,,,,,,,,,,,,,,,,,,,,,,,,,,,,,,
,6065dcc8bc4a1f1663e4d13b,627c6f6d3ed2968600fa2090,2022-05-12_03h23.10.564,classification_task,2021.2.3,Win32,60.0240096,627c6715c52fd12f31907bcf,,,,,,,,,,,,,,,,,,,,,,,a,1,1.396,"[""0.515"",""0.477"",""0.834"",""0.876""]","[0,1,1,1]",0,46,46,46,1,0,1,,,1,FALSE,,,,,,,,,,,,,,,,,,,,,,,,,,,,,,,
,6065dcc8bc4a1f1663e4d13b,627c6f6d3ed2968600fa2090,2022-05-12_03h23.10.564,classification_task,2021.2.3,Win32,60.0240096,627c6715c52fd12f31907bcf,,,,,,,,,,,,,,,,,,,,,,,a,1,1.546,"[""0.109"",""0.350"",""0.916"",""0.956""]","[0,1,1,1]",0,47,47,47,1,0,0,,,1,FALSE,,,,,,,,,,,,,,,,,,,,,,,,,,,,,,,
,6065dcc8bc4a1f1663e4d13b,627c6f6d3ed2968600fa2090,2022-05-12_03h23.10.564,classification_task,2021.2.3,Win32,60.0240096,627c6715c52fd12f31907bcf,,,,,,,,,,,,,,,,,,,,,,,a,1,0.652,"[""0.102"",""0.350"",""0.916"",""0.956""]","[0,1,1,1]",0,48,48,48,1,0,0,,,1,FALSE,,,,,,,,,,,,,,,,,,,,,,,,,,,,,,,
,6065dcc8bc4a1f1663e4d13b,627c6f6d3ed2968600fa2090,2022-05-12_03h23.10.564,classification_task,2021.2.3,Win32,60.0240096,627c6715c52fd12f31907bcf,,,,,,,,,,,,,,,,,,,,,,,l,1,1.012,"[""0.148"",""0.231"",""0.637"",""0.102""]","[1,1,1,0]",0,49,49,49,1,1,0,,,1,FALSE,,,,,,,,,,,,,,,,,,,,,,,,,,,,,,,
,6065dcc8bc4a1f1663e4d13b,627c6f6d3ed2968600fa2090,2022-05-12_03h23.10.564,classification_task,2021.2.3,Win32,60.0240096,627c6715c52fd12f31907bcf,,,,,,,,,,,,,,,,,,,,,,,l,1,0.825,"[""0.059"",""0.281"",""0.579"",""0.391""]","[1,1,1,0]",0,50,50,50,1,1,1,,,1,FALSE,,,,,,,,,,,,,,,,,,,,,,,,,,,,,,,
,6065dcc8bc4a1f1663e4d13b,627c6f6d3ed2968600fa2090,2022-05-12_03h23.10.564,classification_task,2021.2.3,Win32,60.0240096,627c6715c52fd12f31907bcf,,,,,,,,,,,,,,,,,,,,,,,l,1,0.504,"[""0.440"",""0.281"",""0.579"",""0.749""]","[0,1,1,1]",0,51,51,51,1,1,1,,,1,FALSE,,,,,,,,,,,,,,,,,,,,,,,,,,,,,,,
,6065dcc8bc4a1f1663e4d13b,627c6f6d3ed2968600fa2090,2022-05-12_03h23.10.564,classification_task,2021.2.3,Win32,60.0240096,627c6715c52fd12f31907bcf,,,,,,,,,,,,,,,,,,,,,,,a,0,0.929,"[""0.148"",""0.231"",""0.102"",""0.689""]","[1,1,0,1]",0,52,52,52,1,1,0,,,1,FALSE,,,,,,,,,,,,,,,,,,,,,,,,,,,,,,,
,6065dcc8bc4a1f1663e4d13b,627c6f6d3ed2968600fa2090,2022-05-12_03h23.10.564,classification_task,2021.2.3,Win32,60.0240096,627c6715c52fd12f31907bcf,,,,,,,,,,,,,,,,,,,,,,,l,0,1.183,"[""0.187"",""0.350"",""0.114"",""0.956""]","[1,1,0,1]",0,53,53,53,1,0,0,,,1,FALSE,,,,,,,,,,,,,,,,,,,,,,,,,,,,,,,
,6065dcc8bc4a1f1663e4d13b,627c6f6d3ed2968600fa2090,2022-05-12_03h23.10.564,classification_task,2021.2.3,Win32,60.0240096,627c6715c52fd12f31907bcf,,,,,,,,,,,,,,,,,,,,,,,a,1,0.693,"[""0.316"",""0.527"",""0.834"",""0.876""]","[1,0,1,1]",0,54,54,54,1,0,1,,,1,FALSE,,,,,,,,,,,,,,,,,,,,,,,,,,,,,,,
,6065dcc8bc4a1f1663e4d13b,627c6f6d3ed2968600fa2090,2022-05-12_03h23.10.564,classification_task,2021.2.3,Win32,60.0240096,627c6715c52fd12f31907bcf,,,,,,,,,,,,,,,,,,,,,,,a,1,0.35,"[""0.316"",""0.477"",""0.390"",""0.876""]","[1,1,0,1]",0,55,55,55,1,0,1,,,1,FALSE,,,,,,,,,,,,,,,,,,,,,,,,,,,,,,,
,6065dcc8bc4a1f1663e4d13b,627c6f6d3ed2968600fa2090,2022-05-12_03h23.10.564,classification_task,2021.2.3,Win32,60.0240096,627c6715c52fd12f31907bcf,,,,,,,,,,,,,,,,,,,,,,,a,1,0.549,"[""0.187"",""0.391"",""0.916"",""0.956""]","[1,0,1,1]",0,56,56,56,1,0,0,,,1,FALSE,,,,,,,,,,,,,,,,,,,,,,,,,,,,,,,
,6065dcc8bc4a1f1663e4d13b,627c6f6d3ed2968600fa2090,2022-05-12_03h23.10.564,classification_task,2021.2.3,Win32,60.0240096,627c6715c52fd12f31907bcf,,,,,,,,,,,,,,,,,,,,,,,a,1,0.208,"[""0.187"",""0.350"",""0.916"",""0.799""]","[1,1,1,0]",0,57,57,57,1,0,0,,,1,FALSE,,,,,,,,,,,,,,,,,,,,,,,,,,,,,,,
,6065dcc8bc4a1f1663e4d13b,627c6f6d3ed2968600fa2090,2022-05-12_03h23.10.564,classification_task,2021.2.3,Win32,60.0240096,627c6715c52fd12f31907bcf,,,,,,,,,,,,,,,,,,,,,,,l,1,0.422,"[""0.440"",""0.231"",""0.637"",""0.689""]","[0,1,1,1]",0,58,58,58,1,1,0,,,1,FALSE,,,,,,,,,,,,,,,,,,,,,,,,,,,,,,,
,6065dcc8bc4a1f1663e4d13b,627c6f6d3ed2968600fa2090,2022-05-12_03h23.10.564,classification_task,2021.2.3,Win32,60.0240096,627c6715c52fd12f31907bcf,,,,,,,,,,,,,,,,,,,,,,,a,1,0.268,"[""0.799"",""0.477"",""0.834"",""0.876""]","[0,1,1,1]",0,59,59,59,1,0,1,,,1,FALSE,,,,,,,,,,,,,,,,,,,,,,,,,,,,,,,
,6065dcc8bc4a1f1663e4d13b,627c6f6d3ed2968600fa2090,2022-05-12_03h23.10.564,classification_task,2021.2.3,Win32,60.0240096,627c6715c52fd12f31907bcf,,,,,,,,,,,,,,,,,,,,,,,l,1,0.389,"[""0.059"",""0.391"",""0.579"",""0.749""]","[1,0,1,1]",0,60,60,60,1,1,1,,,1,FALSE,,,,,,,,,,,,,,,,,,,,,,,,,,,,,,,
,6065dcc8bc4a1f1663e4d13b,627c6f6d3ed2968600fa2090,2022-05-12_03h23.10.564,classification_task,2021.2.3,Win32,60.0240096,627c6715c52fd12f31907bcf,,,,,,,,,,,,,,,,,,,,,,,a,1,0.467,"[""0.316"",""0.477"",""0.834"",""0.515""]","[1,1,1,0]",0,61,61,61,1,0,1,,,1,FALSE,,,,,,,,,,,,,,,,,,,,,,,,,,,,,,,
,6065dcc8bc4a1f1663e4d13b,627c6f6d3ed2968600fa2090,2022-05-12_03h23.10.564,classification_task,2021.2.3,Win32,60.0240096,627c6715c52fd12f31907bcf,,,,,,,,,,,,,,,,,,,,,,,l,1,0.451,"[""0.059"",""0.281"",""0.523"",""0.749""]","[1,1,0,1]",0,62,62,62,1,1,1,,,1,FALSE,,,,,,,,,,,,,,,,,,,,,,,,,,,,,,,
,6065dcc8bc4a1f1663e4d13b,627c6f6d3ed2968600fa2090,2022-05-12_03h23.10.564,classification_task,2021.2.3,Win32,60.0240096,627c6715c52fd12f31907bcf,,,,,,,,,,,,,,,,,,,,,,,a,0,0.48,"[""0.148"",""0.102"",""0.637"",""0.689""]","[1,0,1,1]",0,63,63,63,1,1,0,,,1,FALSE,,,,,,,,,,,,,,,,,,,,,,,,,,,,,,,
,6065dcc8bc4a1f1663e4d13b,627c6f6d3ed2968600fa2090,2022-05-12_03h23.10.564,classification_task,2021.2.3,Win32,60.0240096,627c6715c52fd12f31907bcf,,,,,,,,,,,,,,,,,,,,,,,,,,,,,,,,,,,,,,,0, ,,0,0.51734274,146.446,0,1,1,1,1,2,2,,,,,,,,,,,,,,,,,,
,6065dcc8bc4a1f1663e4d13b,627c6f6d3ed2968600fa2090,2022-05-12_03h23.10.564,classification_task,2021.2.3,Win32,60.0240096,627c6715c52fd12f31907bcf,,,,,,,,,,,,,,,,,,,,,,,,,,,,,,,,,,,,,,,1,  ,,0,1.840094062,148.344,0,1,1,1,1,2,2,,,,,,,,,,,,,,,,,,
,6065dcc8bc4a1f1663e4d13b,627c6f6d3ed2968600fa2090,2022-05-12_03h23.10.564,classification_task,2021.2.3,Win32,60.0240096,627c6715c52fd12f31907bcf,,,,,,,,,,,,,,,,,,,,,,,,,,,,,,,,,,,,,,,2,  ,,0,4.5223398,152.198,0,1,1,1,1,2,2,,,,,,,,,,,,,,,,,,
,6065dcc8bc4a1f1663e4d13b,627c6f6d3ed2968600fa2090,2022-05-12_03h23.10.564,classification_task,2021.2.3,Win32,60.0240096,627c6715c52fd12f31907bcf,,,,,,,,,,,,,,,,,,,,,,,,,,,,,,,,,,,,,,,,,,,,,0,1,1,1,1,,2,,,,,,,,,,,,,,,,,,
,6065dcc8bc4a1f1663e4d13b,627c6f6d3ed2968600fa2090,2022-05-12_03h23.10.564,classification_task,2021.2.3,Win32,60.0240096,627c6715c52fd12f31907bcf,,,,,,,,,,,,,,,,,,,,,space,8.348,l,0,1.396,"[""0.523"",""0.350"",""0.916"",""0.956""]","[0,1,1,1]",0,0,0,0,1,0,0,,,1,FALSE,,,,,,,,,,,,,,,,,,,,,,,,,,,,,,,
,6065dcc8bc4a1f1663e4d13b,627c6f6d3ed2968600fa2090,2022-05-12_03h23.10.564,classification_task,2021.2.3,Win32,60.0240096,627c6715c52fd12f31907bcf,,,,,,,,,,,,,,,,,,,,,,,a,0,3.401,"[""0.527"",""0.231"",""0.637"",""0.689""]","[0,1,1,1]",0,1,1,1,1,1,0,,,1,FALSE,,,,,,,,,,,,,,,,,,,,,,,,,,,,,,,
,6065dcc8bc4a1f1663e4d13b,627c6f6d3ed2968600fa2090,2022-05-12_03h23.10.564,classification_task,2021.2.3,Win32,60.0240096,627c6715c52fd12f31907bcf,,,,,,,,,,,,,,,,,,,,,,,l,1,2.168,"[""0.148"",""0.527"",""0.637"",""0.689""]","[1,0,1,1]",0,2,2,2,1,1,0,,,1,FALSE,,,,,,,,,,,,,,,,,,,,,,,,,,,,,,,
,6065dcc8bc4a1f1663e4d13b,627c6f6d3ed2968600fa2090,2022-05-12_03h23.10.564,classification_task,2021.2.3,Win32,60.0240096,627c6715c52fd12f31907bcf,,,,,,,,,,,,,,,,,,,,,,,a,0,2.586,"[""0.148"",""0.231"",""0.404"",""0.689""]","[1,1,0,1]",0,3,3,3,1,1,0,,,1,FALSE,,,,,,,,,,,,,,,,,,,,,,,,,,,,,,,
,6065dcc8bc4a1f1663e4d13b,627c6f6d3ed2968600fa2090,2022-05-12_03h23.10.564,classification_task,2021.2.3,Win32,60.0240096,627c6715c52fd12f31907bcf,,,,,,,,,,,,,,,,,,,,,,,a,1,1.201,"[""0.187"",""0.517"",""0.916"",""0.956""]","[1,0,1,1]",0,4,4,4,1,0,0,,,1,FALSE,,,,,,,,,,,,,,,,,,,,,,,,,,,,,,,
,6065dcc8bc4a1f1663e4d13b,627c6f6d3ed2968600fa2090,2022-05-12_03h23.10.564,classification_task,2021.2.3,Win32,60.0240096,627c6715c52fd12f31907bcf,,,,,,,,,,,,,,,,,,,,,,,a,1,1.301,"[""0.316"",""0.102"",""0.834"",""0.876""]","[1,0,1,1]",0,5,5,5,1,0,1,,,1,FALSE,,,,,,,,,,,,,,,,,,,,,,,,,,,,,,,
,6065dcc8bc4a1f1663e4d13b,627c6f6d3ed2968600fa2090,2022-05-12_03h23.10.564,classification_task,2021.2.3,Win32,60.0240096,627c6715c52fd12f31907bcf,,,,,,,,,,,,,,,,,,,,,,,l,0,1.469,"[""0.316"",""0.477"",""0.834"",""0.527""]","[1,1,1,0]",0,6,6,6,1,0,1,,,1,FALSE,,,,,,,,,,,,,,,,,,,,,,,,,,,,,,,
,6065dcc8bc4a1f1663e4d13b,627c6f6d3ed2968600fa2090,2022-05-12_03h23.10.564,classification_task,2021.2.3,Win32,60.0240096,627c6715c52fd12f31907bcf,,,,,,,,,,,,,,,,,,,,,,,a,0,1.279,"[""0.059"",""0.281"",""0.102"",""0.749""]","[1,1,0,1]",0,7,7,7,1,1,1,,,1,FALSE,,,,,,,,,,,,,,,,,,,,,,,,,,,,,,,
,6065dcc8bc4a1f1663e4d13b,627c6f6d3ed2968600fa2090,2022-05-12_03h23.10.564,classification_task,2021.2.3,Win32,60.0240096,627c6715c52fd12f31907bcf,,,,,,,,,,,,,,,,,,,,,,,a,0,1.241,"[""0.391"",""0.281"",""0.579"",""0.749""]","[0,1,1,1]",0,8,8,8,1,1,1,,,1,FALSE,,,,,,,,,,,,,,,,,,,,,,,,,,,,,,,
,6065dcc8bc4a1f1663e4d13b,627c6f6d3ed2968600fa2090,2022-05-12_03h23.10.564,classification_task,2021.2.3,Win32,60.0240096,627c6715c52fd12f31907bcf,,,,,,,,,,,,,,,,,,,,,,,l,0,1.235,"[""0.514"",""0.477"",""0.834"",""0.876""]","[0,1,1,1]",0,9,9,9,1,0,1,,,1,FALSE,,,,,,,,,,,,,,,,,,,,,,,,,,,,,,,
,6065dcc8bc4a1f1663e4d13b,627c6f6d3ed2968600fa2090,2022-05-12_03h23.10.564,classification_task,2021.2.3,Win32,60.0240096,627c6715c52fd12f31907bcf,,,,,,,,,,,,,,,,,,,,,,,a,1,2.451,"[""0.187"",""0.350"",""0.517"",""0.956""]","[1,1,0,1]",0,10,10,10,1,0,0,,,1,FALSE,,,,,,,,,,,,,,,,,,,,,,,,,,,,,,,
,6065dcc8bc4a1f1663e4d13b,627c6f6d3ed2968600fa2090,2022-05-12_03h23.10.564,classification_task,2021.2.3,Win32,60.0240096,627c6715c52fd12f31907bcf,,,,,,,,,,,,,,,,,,,,,,,l,0,1.968,"[""0.187"",""0.350"",""0.916"",""0.799""]","[1,1,1,0]",0,11,11,11,1,0,0,,,1,FALSE,,,,,,,,,,,,,,,,,,,,,,,,,,,,,,,
,6065dcc8bc4a1f1663e4d13b,627c6f6d3ed2968600fa2090,2022-05-12_03h23.10.564,classification_task,2021.2.3,Win32,60.0240096,627c6715c52fd12f31907bcf,,,,,,,,,,,,,,,,,,,,,,,l,1,1.069,"[""0.059"",""0.281"",""0.579"",""0.515""]","[1,1,1,0]",0,12,12,12,1,1,1,,,1,FALSE,,,,,,,,,,,,,,,,,,,,,,,,,,,,,,,
,6065dcc8bc4a1f1663e4d13b,627c6f6d3ed2968600fa2090,2022-05-12_03h23.10.564,classification_task,2021.2.3,Win32,60.0240096,627c6715c52fd12f31907bcf,,,,,,,,,,,,,,,,,,,,,,,a,0,1.534,"[""0.148"",""0.231"",""0.637"",""0.523""]","[1,1,1,0]",0,13,13,13,1,1,0,,,1,FALSE,,,,,,,,,,,,,,,,,,,,,,,,,,,,,,,
,6065dcc8bc4a1f1663e4d13b,627c6f6d3ed2968600fa2090,2022-05-12_03h23.10.564,classification_task,2021.2.3,Win32,60.0240096,627c6715c52fd12f31907bcf,,,,,,,,,,,,,,,,,,,,,,,l,0,1.067,"[""0.316"",""0.477"",""0.527"",""0.876""]","[1,1,0,1]",0,14,14,14,1,0,1,,,1,FALSE,,,,,,,,,,,,,,,,,,,,,,,,,,,,,,,
,6065dcc8bc4a1f1663e4d13b,627c6f6d3ed2968600fa2090,2022-05-12_03h23.10.564,classification_task,2021.2.3,Win32,60.0240096,627c6715c52fd12f31907bcf,,,,,,,,,,,,,,,,,,,,,,,l,1,1.643,"[""0.059"",""0.523"",""0.579"",""0.749""]","[1,0,1,1]",0,15,15,15,1,1,1,,,1,FALSE,,,,,,,,,,,,,,,,,,,,,,,,,,,,,,,
,6065dcc8bc4a1f1663e4d13b,627c6f6d3ed2968600fa2090,2022-05-12_03h23.10.564,classification_task,2021.2.3,Win32,60.0240096,627c6715c52fd12f31907bcf,,,,,,,,,,,,,,,,,,,,,,,a,1,0.753,"[""0.187"",""0.350"",""0.916"",""0.391""]","[1,1,1,0]",0,16,16,16,1,0,0,,,1,FALSE,,,,,,,,,,,,,,,,,,,,,,,,,,,,,,,
,6065dcc8bc4a1f1663e4d13b,627c6f6d3ed2968600fa2090,2022-05-12_03h23.10.564,classification_task,2021.2.3,Win32,60.0240096,627c6715c52fd12f31907bcf,,,,,,,,,,,,,,,,,,,,,,,a,1,1.116,"[""0.440"",""0.477"",""0.834"",""0.876""]","[0,1,1,1]",0,17,17,17,1,0,1,,,1,FALSE,,,,,,,,,,,,,,,,,,,,,,,,,,,,,,,
,6065dcc8bc4a1f1663e4d13b,627c6f6d3ed2968600fa2090,2022-05-12_03h23.10.564,classification_task,2021.2.3,Win32,60.0240096,627c6715c52fd12f31907bcf,,,,,,,,,,,,,,,,,,,,,,,l,1,0.851,"[""0.059"",""0.527"",""0.579"",""0.749""]","[1,0,1,1]",0,18,18,18,1,1,1,,,1,FALSE,,,,,,,,,,,,,,,,,,,,,,,,,,,,,,,
,6065dcc8bc4a1f1663e4d13b,627c6f6d3ed2968600fa2090,2022-05-12_03h23.10.564,classification_task,2021.2.3,Win32,60.0240096,627c6715c52fd12f31907bcf,,,,,,,,,,,,,,,,,,,,,,,a,1,1.002,"[""0.316"",""0.477"",""0.834"",""0.523""]","[1,1,1,0]",0,19,19,19,1,0,1,,,1,FALSE,,,,,,,,,,,,,,,,,,,,,,,,,,,,,,,
,6065dcc8bc4a1f1663e4d13b,627c6f6d3ed2968600fa2090,2022-05-12_03h23.10.564,classification_task,2021.2.3,Win32,60.0240096,627c6715c52fd12f31907bcf,,,,,,,,,,,,,,,,,,,,,,,a,0,0.92,"[""0.148"",""0.231"",""0.523"",""0.689""]","[1,1,0,1]",0,20,20,20,1,1,0,,,1,FALSE,,,,,,,,,,,,,,,,,,,,,,,,,,,,,,,
,6065dcc8bc4a1f1663e4d13b,627c6f6d3ed2968600fa2090,2022-05-12_03h23.10.564,classification_task,2021.2.3,Win32,60.0240096,627c6715c52fd12f31907bcf,,,,,,,,,,,,,,,,,,,,,,,a,0,1.254,"[""0.148"",""0.231"",""0.637"",""0.102""]","[1,1,1,0]",0,21,21,21,1,1,0,,,1,FALSE,,,,,,,,,,,,,,,,,,,,,,,,,,,,,,,
,6065dcc8bc4a1f1663e4d13b,627c6f6d3ed2968600fa2090,2022-05-12_03h23.10.564,classification_task,2021.2.3,Win32,60.0240096,627c6715c52fd12f31907bcf,,,,,,,,,,,,,,,,,,,,,,,l,0,1.066,"[""0.187"",""0.350"",""0.428"",""0.956""]","[1,1,0,1]",0,22,22,22,1,0,0,,,1,FALSE,,,,,,,,,,,,,,,,,,,,,,,,,,,,,,,
,6065dcc8bc4a1f1663e4d13b,627c6f6d3ed2968600fa2090,2022-05-12_03h23.10.564,classification_task,2021.2.3,Win32,60.0240096,627c6715c52fd12f31907bcf,,,,,,,,,,,,,,,,,,,,,,,a,0,0.839,"[""0.059"",""0.281"",""0.579"",""0.799""]","[1,1,1,0]",0,23,23,23,1,1,1,,,1,FALSE,,,,,,,,,,,,,,,,,,,,,,,,,,,,,,,
,6065dcc8bc4a1f1663e4d13b,627c6f6d3ed2968600fa2090,2022-05-12_03h23.10.564,classification_task,2021.2.3,Win32,60.0240096,627c6715c52fd12f31907bcf,,,,,,,,,,,,,,,,,,,,,,,a,1,0.937,"[""0.527"",""0.350"",""0.916"",""0.956""]","[0,1,1,1]",0,24,24,24,1,0,0,,,1,FALSE,,,,,,,,,,,,,,,,,,,,,,,,,,,,,,,
,6065dcc8bc4a1f1663e4d13b,627c6f6d3ed2968600fa2090,2022-05-12_03h23.10.564,classification_task,2021.2.3,Win32,60.0240096,627c6715c52fd12f31907bcf,,,,,,,,,,,,,,,,,,,,,,,l,0,1.101,"[""0.187"",""0.428"",""0.916"",""0.956""]","[1,0,1,1]",0,25,25,25,1,0,0,,,1,FALSE,,,,,,,,,,,,,,,,,,,,,,,,,,,,,,,
,6065dcc8bc4a1f1663e4d13b,627c6f6d3ed2968600fa2090,2022-05-12_03h23.10.564,classification_task,2021.2.3,Win32,60.0240096,627c6715c52fd12f31907bcf,,,,,,,,,,,,,,,,,,,,,,,a,0,0.818,"[""0.404"",""0.281"",""0.579"",""0.749""]","[0,1,1,1]",0,26,26,26,1,1,1,,,1,FALSE,,,,,,,,,,,,,,,,,,,,,,,,,,,,,,,
,6065dcc8bc4a1f1663e4d13b,627c6f6d3ed2968600fa2090,2022-05-12_03h23.10.564,classification_task,2021.2.3,Win32,60.0240096,627c6715c52fd12f31907bcf,,,,,,,,,,,,,,,,,,,,,,,a,1,0.724,"[""0.316"",""0.477"",""0.391"",""0.876""]","[1,1,0,1]",0,27,27,27,1,0,1,,,1,FALSE,,,,,,,,,,,,,,,,,,,,,,,,,,,,,,,
,6065dcc8bc4a1f1663e4d13b,627c6f6d3ed2968600fa2090,2022-05-12_03h23.10.564,classification_task,2021.2.3,Win32,60.0240096,627c6715c52fd12f31907bcf,,,,,,,,,,,,,,,,,,,,,,,a,0,0.772,"[""0.148"",""0.109"",""0.637"",""0.689""]","[1,0,1,1]",0,28,28,28,1,1,0,,,1,FALSE,,,,,,,,,,,,,,,,,,,,,,,,,,,,,,,
,6065dcc8bc4a1f1663e4d13b,627c6f6d3ed2968600fa2090,2022-05-12_03h23.10.564,classification_task,2021.2.3,Win32,60.0240096,627c6715c52fd12f31907bcf,,,,,,,,,,,,,,,,,,,,,,,l,1,0.685,"[""0.799"",""0.231"",""0.637"",""0.689""]","[0,1,1,1]",0,29,29,29,1,1,0,,,1,FALSE,,,,,,,,,,,,,,,,,,,,,,,,,,,,,,,
,6065dcc8bc4a1f1663e4d13b,627c6f6d3ed2968600fa2090,2022-05-12_03h23.10.564,classification_task,2021.2.3,Win32,60.0240096,627c6715c52fd12f31907bcf,,,,,,,,,,,,,,,,,,,,,,,l,0,0.702,"[""0.316"",""0.102"",""0.834"",""0.876""]","[1,0,1,1]",0,30,30,30,1,0,1,,,1,FALSE,,,,,,,,,,,,,,,,,,,,,,,,,,,,,,,
,6065dcc8bc4a1f1663e4d13b,627c6f6d3ed2968600fa2090,2022-05-12_03h23.10.564,classification_task,2021.2.3,Win32,60.0240096,627c6715c52fd12f31907bcf,,,,,,,,,,,,,,,,,,,,,,,a,0,1.302,"[""0.059"",""0.281"",""0.102"",""0.749""]","[1,1,0,1]",0,31,31,31,1,1,1,,,1,FALSE,,,,,,,,,,,,,,,,,,,,,,,,,,,,,,,
,6065dcc8bc4a1f1663e4d13b,627c6f6d3ed2968600fa2090,2022-05-12_03h23.10.564,classification_task,2021.2.3,Win32,60.0240096,627c6715c52fd12f31907bcf,,,,,,,,,,,,,,,,,,,,,,,a,0,0.934,"[""0.059"",""0.527"",""0.579"",""0.749""]","[1,0,1,1]",0,32,32,32,1,1,1,,,1,FALSE,,,,,,,,,,,,,,,,,,,,,,,,,,,,,,,
,6065dcc8bc4a1f1663e4d13b,627c6f6d3ed2968600fa2090,2022-05-12_03h23.10.564,classification_task,2021.2.3,Win32,60.0240096,627c6715c52fd12f31907bcf,,,,,,,,,,,,,,,,,,,,,,,a,0,1.451,"[""0.102"",""0.281"",""0.579"",""0.749""]","[0,1,1,1]",0,33,33,33,1,1,1,,,1,FALSE,,,,,,,,,,,,,,,,,,,,,,,,,,,,,,,
,6065dcc8bc4a1f1663e4d13b,627c6f6d3ed2968600fa2090,2022-05-12_03h23.10.564,classification_task,2021.2.3,Win32,60.0240096,627c6715c52fd12f31907bcf,,,,,,,,,,,,,,,,,,,,,,,l,0,1.068,"[""0.316"",""0.102"",""0.834"",""0.876""]","[1,0,1,1]",0,34,34,34,1,0,1,,,1,FALSE,,,,,,,,,,,,,,,,,,,,,,,,,,,,,,,
,6065dcc8bc4a1f1663e4d13b,627c6f6d3ed2968600fa2090,2022-05-12_03h23.10.564,classification_task,2021.2.3,Win32,60.0240096,627c6715c52fd12f31907bcf,,,,,,,,,,,,,,,,,,,,,,,a,1,0.602,"[""0.316"",""0.477"",""0.523"",""0.876""]","[1,1,0,1]",0,35,35,35,1,0,1,,,1,FALSE,,,,,,,,,,,,,,,,,,,,,,,,,,,,,,,
,6065dcc8bc4a1f1663e4d13b,627c6f6d3ed2968600fa2090,2022-05-12_03h23.10.564,classification_task,2021.2.3,Win32,60.0240096,627c6715c52fd12f31907bcf,,,,,,,,,,,,,,,,,,,,,,,a,1,1.043,"[""0.187"",""0.440"",""0.916"",""0.956""]","[1,0,1,1]",0,36,36,36,1,0,0,,,1,FALSE,,,,,,,,,,,,,,,,,,,,,,,,,,,,,,,
,6065dcc8bc4a1f1663e4d13b,627c6f6d3ed2968600fa2090,2022-05-12_03h23.10.564,classification_task,2021.2.3,Win32,60.0240096,627c6715c52fd12f31907bcf,,,,,,,,,,,,,,,,,,,,,,,l,0,1.543,"[""0.114"",""0.350"",""0.916"",""0.956""]","[0,1,1,1]",0,37,37,37,1,0,0,,,1,FALSE,,,,,,,,,,,,,,,,,,,,,,,,,,,,,,,
,6065dcc8bc4a1f1663e4d13b,627c6f6d3ed2968600fa2090,2022-05-12_03h23.10.564,classification_task,2021.2.3,Win32,60.0240096,627c6715c52fd12f31907bcf,,,,,,,,,,,,,,,,,,,,,,,a,0,1.101,"[""0.059"",""0.281"",""0.579"",""0.514""]","[1,1,1,0]",0,38,38,38,1,1,1,,,1,FALSE,,,,,,,,,,,,,,,,,,,,,,,,,,,,,,,
,6065dcc8bc4a1f1663e4d13b,627c6f6d3ed2968600fa2090,2022-05-12_03h23.10.564,classification_task,2021.2.3,Win32,60.0240096,627c6715c52fd12f31907bcf,,,,,,,,,,,,,,,,,,,,,,,l,1,0.857,"[""0.059"",""0.281"",""0.102"",""0.749""]","[1,1,0,1]",0,39,39,39,1,1,1,,,1,FALSE,,,,,,,,,,,,,,,,,,,,,,,,,,,,,,,
,6065dcc8bc4a1f1663e4d13b,627c6f6d3ed2968600fa2090,2022-05-12_03h23.10.564,classification_task,2021.2.3,Win32,60.0240096,627c6715c52fd12f31907bcf,,,,,,,,,,,,,,,,,,,,,,,a,1,0.816,"[""0.187"",""0.350"",""0.916"",""0.517""]","[1,1,1,0]",0,40,40,40,1,0,0,,,1,FALSE,,,,,,,,,,,,,,,,,,,,,,,,,,,,,,,
,6065dcc8bc4a1f1663e4d13b,627c6f6d3ed2968600fa2090,2022-05-12_03h23.10.564,classification_task,2021.2.3,Win32,60.0240096,627c6715c52fd12f31907bcf,,,,,,,,,,,,,,,,,,,,,,,a,0,0.932,"[""0.148"",""0.515"",""0.637"",""0.689""]","[1,0,1,1]",0,41,41,41,1,1,0,,,1,FALSE,,,,,,,,,,,,,,,,,,,,,,,,,,,,,,,
,6065dcc8bc4a1f1663e4d13b,627c6f6d3ed2968600fa2090,2022-05-12_03h23.10.564,classification_task,2021.2.3,Win32,60.0240096,627c6715c52fd12f31907bcf,,,,,,,,,,,,,,,,,,,,,,,a,1,0.883,"[""0.316"",""0.477"",""0.834"",""0.114""]","[1,1,1,0]",0,42,42,42,1,0,1,,,1,FALSE,,,,,,,,,,,,,,,,,,,,,,,,,,,,,,,
,6065dcc8bc4a1f1663e4d13b,627c6f6d3ed2968600fa2090,2022-05-12_03h23.10.564,classification_task,2021.2.3,Win32,60.0240096,627c6715c52fd12f31907bcf,,,,,,,,,,,,,,,,,,,,,,,l,0,0.854,"[""0.405"",""0.477"",""0.834"",""0.876""]","[0,1,1,1]",0,43,43,43,1,0,1,,,1,FALSE,,,,,,,,,,,,,,,,,,,,,,,,,,,,,,,
,6065dcc8bc4a1f1663e4d13b,627c6f6d3ed2968600fa2090,2022-05-12_03h23.10.564,classification_task,2021.2.3,Win32,60.0240096,627c6715c52fd12f31907bcf,,,,,,,,,,,,,,,,,,,,,,,l,1,0.722,"[""0.148"",""0.231"",""0.637"",""0.523""]","[1,1,1,0]",0,44,44,44,1,1,0,,,1,FALSE,,,,,,,,,,,,,,,,,,,,,,,,,,,,,,,
,6065dcc8bc4a1f1663e4d13b,627c6f6d3ed2968600fa2090,2022-05-12_03h23.10.564,classification_task,2021.2.3,Win32,60.0240096,627c6715c52fd12f31907bcf,,,,,,,,,,,,,,,,,,,,,,,a,1,0.837,"[""0.187"",""0.350"",""0.102"",""0.956""]","[1,1,0,1]",0,45,45,45,1,0,0,,,1,FALSE,,,,,,,,,,,,,,,,,,,,,,,,,,,,,,,
,6065dcc8bc4a1f1663e4d13b,627c6f6d3ed2968600fa2090,2022-05-12_03h23.10.564,classification_task,2021.2.3,Win32,60.0240096,627c6715c52fd12f31907bcf,,,,,,,,,,,,,,,,,,,,,,,a,0,0.671,"[""0.148"",""0.231"",""0.799"",""0.689""]","[1,1,0,1]",0,46,46,46,1,1,0,,,1,FALSE,,,,,,,,,,,,,,,,,,,,,,,,,,,,,,,
,6065dcc8bc4a1f1663e4d13b,627c6f6d3ed2968600fa2090,2022-05-12_03h23.10.564,classification_task,2021.2.3,Win32,60.0240096,627c6715c52fd12f31907bcf,,,,,,,,,,,,,,,,,,,,,,,l,1,0.803,"[""0.799"",""0.231"",""0.637"",""0.689""]","[0,1,1,1]",0,47,47,47,1,1,0,,,1,FALSE,,,,,,,,,,,,,,,,,,,,,,,,,,,,,,,
,6065dcc8bc4a1f1663e4d13b,627c6f6d3ed2968600fa2090,2022-05-12_03h23.10.564,classification_task,2021.2.3,Win32,60.0240096,627c6715c52fd12f31907bcf,,,,,,,,,,,,,,,,,,,,,,,a,1,0.572,"[""0.187"",""0.350"",""0.916"",""0.515""]","[1,1,1,0]",0,48,48,48,1,0,0,,,1,FALSE,,,,,,,,,,,,,,,,,,,,,,,,,,,,,,,
,6065dcc8bc4a1f1663e4d13b,627c6f6d3ed2968600fa2090,2022-05-12_03h23.10.564,classification_task,2021.2.3,Win32,60.0240096,627c6715c52fd12f31907bcf,,,,,,,,,,,,,,,,,,,,,,,l,1,0.768,"[""0.515"",""0.281"",""0.579"",""0.749""]","[0,1,1,1]",0,49,49,49,1,1,1,,,1,FALSE,,,,,,,,,,,,,,,,,,,,,,,,,,,,,,,
,6065dcc8bc4a1f1663e4d13b,627c6f6d3ed2968600fa2090,2022-05-12_03h23.10.564,classification_task,2021.2.3,Win32,60.0240096,627c6715c52fd12f31907bcf,,,,,,,,,,,,,,,,,,,,,,,a,1,0.716,"[""0.799"",""0.350"",""0.916"",""0.956""]","[0,1,1,1]",0,50,50,50,1,0,0,,,1,FALSE,,,,,,,,,,,,,,,,,,,,,,,,,,,,,,,
,6065dcc8bc4a1f1663e4d13b,627c6f6d3ed2968600fa2090,2022-05-12_03h23.10.564,classification_task,2021.2.3,Win32,60.0240096,627c6715c52fd12f31907bcf,,,,,,,,,,,,,,,,,,,,,,,a,0,0.685,"[""0.102"",""0.231"",""0.637"",""0.689""]","[0,1,1,1]",0,51,51,51,1,1,0,,,1,FALSE,,,,,,,,,,,,,,,,,,,,,,,,,,,,,,,
,6065dcc8bc4a1f1663e4d13b,627c6f6d3ed2968600fa2090,2022-05-12_03h23.10.564,classification_task,2021.2.3,Win32,60.0240096,627c6715c52fd12f31907bcf,,,,,,,,,,,,,,,,,,,,,,,l,0,0.482,"[""0.316"",""0.477"",""0.834"",""0.114""]","[1,1,1,0]",0,52,52,52,1,0,1,,,1,FALSE,,,,,,,,,,,,,,,,,,,,,,,,,,,,,,,
,6065dcc8bc4a1f1663e4d13b,627c6f6d3ed2968600fa2090,2022-05-12_03h23.10.564,classification_task,2021.2.3,Win32,60.0240096,627c6715c52fd12f31907bcf,,,,,,,,,,,,,,,,,,,,,,,a,0,0.553,"[""0.059"",""0.391"",""0.579"",""0.749""]","[1,0,1,1]",0,53,53,53,1,1,1,,,1,FALSE,,,,,,,,,,,,,,,,,,,,,,,,,,,,,,,
,6065dcc8bc4a1f1663e4d13b,627c6f6d3ed2968600fa2090,2022-05-12_03h23.10.564,classification_task,2021.2.3,Win32,60.0240096,627c6715c52fd12f31907bcf,,,,,,,,,,,,,,,,,,,,,,,a,0,0.684,"[""0.148"",""0.102"",""0.637"",""0.689""]","[1,0,1,1]",0,54,54,54,1,1,0,,,1,FALSE,,,,,,,,,,,,,,,,,,,,,,,,,,,,,,,
,6065dcc8bc4a1f1663e4d13b,627c6f6d3ed2968600fa2090,2022-05-12_03h23.10.564,classification_task,2021.2.3,Win32,60.0240096,627c6715c52fd12f31907bcf,,,,,,,,,,,,,,,,,,,,,,,l,1,0.635,"[""0.059"",""0.281"",""0.579"",""0.515""]","[1,1,1,0]",0,55,55,55,1,1,1,,,1,FALSE,,,,,,,,,,,,,,,,,,,,,,,,,,,,,,,
,6065dcc8bc4a1f1663e4d13b,627c6f6d3ed2968600fa2090,2022-05-12_03h23.10.564,classification_task,2021.2.3,Win32,60.0240096,627c6715c52fd12f31907bcf,,,,,,,,,,,,,,,,,,,,,,,a,1,0.719,"[""0.187"",""0.404"",""0.916"",""0.956""]","[1,0,1,1]",0,56,56,56,1,0,0,,,1,FALSE,,,,,,,,,,,,,,,,,,,,,,,,,,,,,,,
,6065dcc8bc4a1f1663e4d13b,627c6f6d3ed2968600fa2090,2022-05-12_03h23.10.564,classification_task,2021.2.3,Win32,60.0240096,627c6715c52fd12f31907bcf,,,,,,,,,,,,,,,,,,,,,,,l,1,0.786,"[""0.148"",""0.231"",""0.109"",""0.689""]","[1,1,0,1]",0,57,57,57,1,1,0,,,1,FALSE,,,,,,,,,,,,,,,,,,,,,,,,,,,,,,,
,6065dcc8bc4a1f1663e4d13b,627c6f6d3ed2968600fa2090,2022-05-12_03h23.10.564,classification_task,2021.2.3,Win32,60.0240096,627c6715c52fd12f31907bcf,,,,,,,,,,,,,,,,,,,,,,,l,0,1.047,"[""0.799"",""0.477"",""0.834"",""0.876""]","[0,1,1,1]",0,58,58,58,1,0,1,,,1,FALSE,,,,,,,,,,,,,,,,,,,,,,,,,,,,,,,
,6065dcc8bc4a1f1663e4d13b,627c6f6d3ed2968600fa2090,2022-05-12_03h23.10.564,classification_task,2021.2.3,Win32,60.0240096,627c6715c52fd12f31907bcf,,,,,,,,,,,,,,,,,,,,,,,a,1,0.758,"[""0.316"",""0.405"",""0.834"",""0.876""]","[1,0,1,1]",0,59,59,59,1,0,1,,,1,FALSE,,,,,,,,,,,,,,,,,,,,,,,,,,,,,,,
,6065dcc8bc4a1f1663e4d13b,627c6f6d3ed2968600fa2090,2022-05-12_03h23.10.564,classification_task,2021.2.3,Win32,60.0240096,627c6715c52fd12f31907bcf,,,,,,,,,,,,,,,,,,,,,,,a,0,0.7,"[""0.148"",""0.231"",""0.637"",""0.514""]","[1,1,1,0]",0,60,60,60,1,1,0,,,1,FALSE,,,,,,,,,,,,,,,,,,,,,,,,,,,,,,,
,6065dcc8bc4a1f1663e4d13b,627c6f6d3ed2968600fa2090,2022-05-12_03h23.10.564,classification_task,2021.2.3,Win32,60.0240096,627c6715c52fd12f31907bcf,,,,,,,,,,,,,,,,,,,,,,,l,1,0.552,"[""0.059"",""0.281"",""0.390"",""0.749""]","[1,1,0,1]",0,61,61,61,1,1,1,,,1,FALSE,,,,,,,,,,,,,,,,,,,,,,,,,,,,,,,
,6065dcc8bc4a1f1663e4d13b,627c6f6d3ed2968600fa2090,2022-05-12_03h23.10.564,classification_task,2021.2.3,Win32,60.0240096,627c6715c52fd12f31907bcf,,,,,,,,,,,,,,,,,,,,,,,a,1,0.472,"[""0.187"",""0.350"",""0.404"",""0.956""]","[1,1,0,1]",0,62,62,62,1,0,0,,,1,FALSE,,,,,,,,,,,,,,,,,,,,,,,,,,,,,,,
,6065dcc8bc4a1f1663e4d13b,627c6f6d3ed2968600fa2090,2022-05-12_03h23.10.564,classification_task,2021.2.3,Win32,60.0240096,627c6715c52fd12f31907bcf,,,,,,,,,,,,,,,,,,,,,,,a,1,0.825,"[""0.316"",""0.477"",""0.390"",""0.876""]","[1,1,0,1]",0,63,63,63,1,0,1,,,1,FALSE,,,,,,,,,,,,,,,,,,,,,,,,,,,,,,,
,6065dcc8bc4a1f1663e4d13b,627c6f6d3ed2968600fa2090,2022-05-12_03h23.10.564,classification_task,2021.2.3,Win32,60.0240096,627c6715c52fd12f31907bcf,,,,,,,,,,,,,,,,,,,,,,,,,,,,,,,,,,,,,,,0, ,,0,0.590828924,146.738,0,2,2,2,1,2,3,,,,,,,,,,,,,,,,,,
,6065dcc8bc4a1f1663e4d13b,627c6f6d3ed2968600fa2090,2022-05-12_03h23.10.564,classification_task,2021.2.3,Win32,60.0240096,627c6715c52fd12f31907bcf,,,,,,,,,,,,,,,,,,,,,,,,,,,,,,,,,,,,,,,1,  ,,0,1.105232216,153.915,0,2,2,2,1,2,3,,,,,,,,,,,,,,,,,,
,6065dcc8bc4a1f1663e4d13b,627c6f6d3ed2968600fa2090,2022-05-12_03h23.10.564,classification_task,2021.2.3,Win32,60.0240096,627c6715c52fd12f31907bcf,,,,,,,,,,,,,,,,,,,,,,,,,,,,,,,,,,,,,,,2,  ,,0,3.971193416,158.063,0,2,2,2,1,2,3,,,,,,,,,,,,,,,,,,
,6065dcc8bc4a1f1663e4d13b,627c6f6d3ed2968600fa2090,2022-05-12_03h23.10.564,classification_task,2021.2.3,Win32,60.0240096,627c6715c52fd12f31907bcf,,,,,,,,,,,,,,,,,,,,,,,,,,,,,,,,,,,,,,,,,,,,,0,2,2,2,1,,3,,,,,,,,,,,,,,,,,,
,6065dcc8bc4a1f1663e4d13b,627c6f6d3ed2968600fa2090,2022-05-12_03h23.10.564,classification_task,2021.2.3,Win32,60.0240096,627c6715c52fd12f31907bcf,,,,,,,,,,,,,,,,,,,,,,,,,,,,,,,,,,,,,,,,,,,,,,,,,,,,,I believe the aid is a competent performer,,0.7,0,4,911.89,0,0,0,0,1,0,,,,,
,6065dcc8bc4a1f1663e4d13b,627c6f6d3ed2968600fa2090,2022-05-12_03h23.10.564,classification_task,2021.2.3,Win32,60.0240096,627c6715c52fd12f31907bcf,,,,,,,,,,,,,,,,,,,,,,,,,,,,,,,,,,,,,,,,,,,,,,,,,,,,,I trust the aid,,0.7,0,4,912.589,0,0,0,0,1,0,,,,,
,6065dcc8bc4a1f1663e4d13b,627c6f6d3ed2968600fa2090,2022-05-12_03h23.10.564,classification_task,2021.2.3,Win32,60.0240096,627c6715c52fd12f31907bcf,,,,,,,,,,,,,,,,,,,,,,,,,,,,,,,,,,,,,,,,,,,,,,,,,,,,,I have confidence in the advice given by the aid,,0.7,0,3,914.739,0,0,0,0,1,0,,,,,
,6065dcc8bc4a1f1663e4d13b,627c6f6d3ed2968600fa2090,2022-05-12_03h23.10.564,classification_task,2021.2.3,Win32,60.0240096,627c6715c52fd12f31907bcf,,,,,,,,,,,,,,,,,,,,,,,,,,,,,,,,,,,,,,,,,,,,,,,,,,,,,I can depend on the aid,,0.7,0,4,917.627,0,0,0,0,1,0,,,,,
,6065dcc8bc4a1f1663e4d13b,627c6f6d3ed2968600fa2090,2022-05-12_03h23.10.564,classification_task,2021.2.3,Win32,60.0240096,627c6715c52fd12f31907bcf,,,,,,,,,,,,,,,,,,,,,,,,,,,,,,,,,,,,,,,,,,,,,,,,,,,,,I can rely on the aid to behave in consistent ways,,0.7,0,4,919.734,0,0,0,0,1,0,,,,,
,6065dcc8bc4a1f1663e4d13b,627c6f6d3ed2968600fa2090,2022-05-12_03h23.10.564,classification_task,2021.2.3,Win32,60.0240096,627c6715c52fd12f31907bcf,,,,,,,,,,,,,,,,,,,,,,,,,,,,,,,,,,,,,,,,,,,,,,,,,,,,,I can rely on the aid to do its best every time I take its advice,,0.7,0,4,921.415,0,0,0,0,1,0,,,,,
,6065dcc8bc4a1f1663e4d13b,627c6f6d3ed2968600fa2090,2022-05-12_03h23.10.564,classification_task,2021.2.3,Win32,60.0240096,627c6715c52fd12f31907bcf,,,,,,,,,,,,,,,,,,,,,,,,,,,,,,,,,,,,,,,,,,,,,,,,,,,,,"On trials you completed with assistance from the aid, how frequently did you think the aid was correct?",,0.7,0,50,,0,0,0,0,1,0,,,,,
,6065dcc8bc4a1f1663e4d13b,627c6f6d3ed2968600fa2090,2022-05-12_03h23.10.564,classification_task,2021.2.3,Win32,60.0240096,627c6715c52fd12f31907bcf,,,,,,,,,,,,,,,,,,,,,,,,,,,,,,,,,,,,,,,,,,,,,,,,,,,,,"On trials you completed without the aid, how frequently did you think you were correct?",,0.7,0,80,,0,0,0,0,1,0,,,,,
,6065dcc8bc4a1f1663e4d13b,627c6f6d3ed2968600fa2090,2022-05-12_03h23.10.564,classification_task,2021.2.3,Win32,60.0240096,627c6715c52fd12f31907bcf,,,,,,,,,,,,,,,,,,,,,,,,,,,,,,,,,,,,,,,,,,,,,,,,,,,,,,,,,,,0,0,0,0,1,,,,,,
,6065dcc8bc4a1f1663e4d13b,627c6f6d3ed2968600fa2090,2022-05-12_03h23.10.564,classification_task,2021.2.3,Win32,60.0240096,627c6715c52fd12f31907bcf,,,,,,,,,,,,,,,,,,,,,,,,,,,,,,,,,,,,,,,,,,,,,,,,,,,,,,,,,,,,,,,,,m,18.48,967.111,,
,6065dcc8bc4a1f1663e4d13b,627c6f6d3ed2968600fa2090,2022-05-12_03h23.10.564,classification_task,2021.2.3,Win32,60.0240096,627c6715c52fd12f31907bcf,,,,,,,,,,,,,,,,,,,,,,,,,,,,,,,,,,,,,,,,,,,,,,,,,,,,,,,,,,,,,,,,,,,,Mozilla/5.0 (Windows NT 10.0; Win64; x64; rv:100.0) Gecko/20100101 Firefox/100.0,
,6065dcc8bc4a1f1663e4d13b,627c6f6d3ed2968600fa2090,2022-05-12_03h23.10.564,classification_task,2021.2.3,Win32,60.0240096,627c6715c52fd12f31907bcf,,,,,,,,,,,,,,,,,,,,,,,,,,,,,,,,,,,,,,,,,,,,,,,,,,,,,,,,,,,,,,,,,,,,,HIGHLIGHT
