usingWebGL,participant,session,date,expName,psychopyVersion,OS,frameRate,PROLIFIC_PID,STUDY_ID,SESSION_ID,signatures_friend,signatures_foe,band_ranges_top,band_ranges_bottom,formitemText,formtype,formundefined,formitemWidth,formindex,formresponse,formrt,key_resp_2.keys,key_resp_2.rt,tute_resp.keys,tute_resp.rt,tutorial.thisRepN,tutorial.thisTrialN,tutorial.thisN,tutorial.thisIndex,tutorial.ran,key_resp_4.keys,key_resp_4.rt,key_resp.keys,key_resp.corr,lines_presented,is_signal_presented,trials.thisRepN,trials.thisTrialN,trials.thisN,trials.thisIndex,trials.ran,vessel,active_band,lines,is_signal,supported_pos,catch_trial,key_resp.rt,debrief_formindex,debrief_formitemText,debrief_formtype,debrief_formitemWidth,debrief_formresponse,debrief_formrt,phases.thisRepN,phases.thisTrialN,phases.thisN,phases.thisIndex,phases.ran,phases.order,phase,key_resp_3.keys,trustitemText,trusttype,trustitemWidth,trustindex,trustresponse,trustrt,support_status.thisRepN,support_status.thisTrialN,support_status.thisN,support_status.thisIndex,support_status.ran,support_status.order,key_resp_5.keys,globalClockTime,userAgent
TRUE,606e22e5312c3b75b4de9c36,001,2022-04-28_21h14.11.190,classification_task,2021.2.3,MacIntel,60.0024001,606e22e5312c3b75b4de9c36,626b377229c10585ec392f8a,626b3b83ff0b7ef5dc450f80,,,,,,,,,,,,,,,,,,,,,,,,,,,,,,,,,,,,,,,,,,,,,,,,,,,,,,,,,,,,,,,,,,,
,606e22e5312c3b75b4de9c36,001,2022-04-28_21h14.11.190,classification_task,2021.2.3,MacIntel,60.0024001,606e22e5312c3b75b4de9c36,626b377229c10585ec392f8a,626b3b83ff0b7ef5dc450f80,"[[""0.203"",""0.471"",""0.741"",""0.908""],[""0.166"",""0.334"",""0.856"",""0.949""]]","[[""0.131"",""0.399"",""0.623"",""0.692""],[""0.079"",""0.294"",""0.562"",""0.794""]]","[1,10]","[100,1000]",Video game experience,,,0.7,0,,,,,,,,,,,,,,,,,,,,,,,,,,,,,,,,,,,,,,,,,,,,,,,,,,,,,,,,,,
,606e22e5312c3b75b4de9c36,001,2022-04-28_21h14.11.190,classification_task,2021.2.3,MacIntel,60.0024001,606e22e5312c3b75b4de9c36,626b377229c10585ec392f8a,626b3b83ff0b7ef5dc450f80,,,,,Approximately how many hours did you spend playing video games in the last week?,,,0.7,0,2,,,,,,,,,,,,,,,,,,,,,,,,,,,,,,,,,,,,,,,,,,,,,,,,,,,,,,,,,
,606e22e5312c3b75b4de9c36,001,2022-04-28_21h14.11.190,classification_task,2021.2.3,MacIntel,60.0024001,606e22e5312c3b75b4de9c36,626b377229c10585ec392f8a,626b3b83ff0b7ef5dc450f80,,,,,"Which game did you play the most this year? (Enter ""None"" if you didn't play any)",,,0.7,0,7 wonders architects ,,,,,,,,,,,,,,,,,,,,,,,,,,,,,,,,,,,,,,,,,,,,,,,,,,,,,,,,,
,606e22e5312c3b75b4de9c36,001,2022-04-28_21h14.11.190,classification_task,2021.2.3,MacIntel,60.0024001,606e22e5312c3b75b4de9c36,626b377229c10585ec392f8a,626b3b83ff0b7ef5dc450f80,,,,,Visual perception,,,0.7,0,,,,,,,,,,,,,,,,,,,,,,,,,,,,,,,,,,,,,,,,,,,,,,,,,,,,,,,,,,
,606e22e5312c3b75b4de9c36,001,2022-04-28_21h14.11.190,classification_task,2021.2.3,MacIntel,60.0024001,606e22e5312c3b75b4de9c36,626b377229c10585ec392f8a,626b3b83ff0b7ef5dc450f80,,,,,Do you have any form of color blindness?,,,0.7,0,No,29.4519,,,,,,,,,,,,,,,,,,,,,,,,,,,,,,,,,,,,,,,,,,,,,,,,,,,,,,,,
,606e22e5312c3b75b4de9c36,001,2022-04-28_21h14.11.190,classification_task,2021.2.3,MacIntel,60.0024001,606e22e5312c3b75b4de9c36,626b377229c10585ec392f8a,626b3b83ff0b7ef5dc450f80,,,,,Do you use software to change the colour temperature of your screen (e.g. f.lux)?,,,0.7,0,No,33.5805,,,,,,,,,,,,,,,,,,,,,,,,,,,,,,,,,,,,,,,,,,,,,,,,,,,,,,,,
,606e22e5312c3b75b4de9c36,001,2022-04-28_21h14.11.190,classification_task,2021.2.3,MacIntel,60.0024001,606e22e5312c3b75b4de9c36,626b377229c10585ec392f8a,626b3b83ff0b7ef5dc450f80,,,,,,,,,,,,space,27.6794,space,11.4013,0,0,0,0,1,,,,,,,,,,,,,,,,,,,,,,,,,,,,,,,,,,,,,,,,,,,,,,,
,606e22e5312c3b75b4de9c36,001,2022-04-28_21h14.11.190,classification_task,2021.2.3,MacIntel,60.0024001,606e22e5312c3b75b4de9c36,626b377229c10585ec392f8a,626b3b83ff0b7ef5dc450f80,,,,,,,,,,,,,,space,7.7855,1,0,1,0,1,,,,,,,,,,,,,,,,,,,,,,,,,,,,,,,,,,,,,,,,,,,,,,,
,606e22e5312c3b75b4de9c36,001,2022-04-28_21h14.11.190,classification_task,2021.2.3,MacIntel,60.0024001,606e22e5312c3b75b4de9c36,626b377229c10585ec392f8a,626b3b83ff0b7ef5dc450f80,,,,,,,,,,,,,,space,22.8652,2,0,2,0,1,,,,,,,,,,,,,,,,,,,,,,,,,,,,,,,,,,,,,,,,,,,,,,,
,606e22e5312c3b75b4de9c36,001,2022-04-28_21h14.11.190,classification_task,2021.2.3,MacIntel,60.0024001,606e22e5312c3b75b4de9c36,626b377229c10585ec392f8a,626b3b83ff0b7ef5dc450f80,,,,,,,,,,,,,,space,6.6465,3,0,3,0,1,,,,,,,,,,,,,,,,,,,,,,,,,,,,,,,,,,,,,,,,,,,,,,,
,606e22e5312c3b75b4de9c36,001,2022-04-28_21h14.11.190,classification_task,2021.2.3,MacIntel,60.0024001,606e22e5312c3b75b4de9c36,626b377229c10585ec392f8a,626b3b83ff0b7ef5dc450f80,,,,,,,,,,,,,,space,13.5323,4,0,4,0,1,,,,,,,,,,,,,,,,,,,,,,,,,,,,,,,,,,,,,,,,,,,,,,,
,606e22e5312c3b75b4de9c36,001,2022-04-28_21h14.11.190,classification_task,2021.2.3,MacIntel,60.0024001,606e22e5312c3b75b4de9c36,626b377229c10585ec392f8a,626b3b83ff0b7ef5dc450f80,,,,,,,,,,,,,,,,,,,,,space,9.185,,0,"[""0.079"",""0.259"",""0.562"",""0.794""]","[1,0,1,1]",0,0,0,0,1,1,1,,,1,FALSE,,,,,,,,,,,,,,,,,,,,,,,,,,,,,,
,606e22e5312c3b75b4de9c36,001,2022-04-28_21h14.11.190,classification_task,2021.2.3,MacIntel,60.0024001,606e22e5312c3b75b4de9c36,626b377229c10585ec392f8a,626b3b83ff0b7ef5dc450f80,,,,,,,,,,,,,,,,,,,,,,,l,1,"[""0.131"",""0.399"",""0.523"",""0.692""]","[1,1,0,1]",0,1,1,1,1,1,0,,,1,FALSE,8.9819,,,,,,,,,,,,,,,,,,,,,,,,,,,,,
,606e22e5312c3b75b4de9c36,001,2022-04-28_21h14.11.190,classification_task,2021.2.3,MacIntel,60.0024001,606e22e5312c3b75b4de9c36,626b377229c10585ec392f8a,626b3b83ff0b7ef5dc450f80,,,,,,,,,,,,,,,,,,,,,,,l,1,"[""0.131"",""0.523"",""0.623"",""0.692""]","[1,0,1,1]",0,2,2,2,1,1,0,,,1,FALSE,4.7689,,,,,,,,,,,,,,,,,,,,,,,,,,,,,
,606e22e5312c3b75b4de9c36,001,2022-04-28_21h14.11.190,classification_task,2021.2.3,MacIntel,60.0024001,606e22e5312c3b75b4de9c36,626b377229c10585ec392f8a,626b3b83ff0b7ef5dc450f80,,,,,,,,,,,,,,,,,,,,,,,l,0,"[""0.515"",""0.471"",""0.741"",""0.908""]","[0,1,1,1]",0,3,3,3,1,0,0,,,1,FALSE,4.7529,,,,,,,,,,,,,,,,,,,,,,,,,,,,,
,606e22e5312c3b75b4de9c36,001,2022-04-28_21h14.11.190,classification_task,2021.2.3,MacIntel,60.0024001,606e22e5312c3b75b4de9c36,626b377229c10585ec392f8a,626b3b83ff0b7ef5dc450f80,,,,,,,,,,,,,,,,,,,,,,,l,0,"[""0.259"",""0.334"",""0.856"",""0.949""]","[0,1,1,1]",0,4,4,4,1,0,1,,,1,FALSE,6.0979,,,,,,,,,,,,,,,,,,,,,,,,,,,,,
,606e22e5312c3b75b4de9c36,001,2022-04-28_21h14.11.190,classification_task,2021.2.3,MacIntel,60.0024001,606e22e5312c3b75b4de9c36,626b377229c10585ec392f8a,626b3b83ff0b7ef5dc450f80,,,,,,,,,,,,,,,,,,,,,,,a,1,"[""0.203"",""0.471"",""0.042"",""0.908""]","[1,1,0,1]",0,5,5,5,1,0,0,,,1,FALSE,8.2668,,,,,,,,,,,,,,,,,,,,,,,,,,,,,
,606e22e5312c3b75b4de9c36,001,2022-04-28_21h14.11.190,classification_task,2021.2.3,MacIntel,60.0024001,606e22e5312c3b75b4de9c36,626b377229c10585ec392f8a,626b3b83ff0b7ef5dc450f80,,,,,,,,,,,,,,,,,,,,,,,l,1,"[""0.248"",""0.399"",""0.623"",""0.692""]","[0,1,1,1]",0,6,6,6,1,1,0,,,1,FALSE,5.6909,,,,,,,,,,,,,,,,,,,,,,,,,,,,,
,606e22e5312c3b75b4de9c36,001,2022-04-28_21h14.11.190,classification_task,2021.2.3,MacIntel,60.0024001,606e22e5312c3b75b4de9c36,626b377229c10585ec392f8a,626b3b83ff0b7ef5dc450f80,,,,,,,,,,,,,,,,,,,,,,,l,1,"[""0.079"",""0.294"",""0.042"",""0.794""]","[1,1,0,1]",0,7,7,7,1,1,1,,,1,FALSE,5.2476,,,,,,,,,,,,,,,,,,,,,,,,,,,,,
,606e22e5312c3b75b4de9c36,001,2022-04-28_21h14.11.190,classification_task,2021.2.3,MacIntel,60.0024001,606e22e5312c3b75b4de9c36,626b377229c10585ec392f8a,626b3b83ff0b7ef5dc450f80,,,,,,,,,,,,,,,,,,,,,,,l,0,"[""0.166"",""0.334"",""0.856"",""0.250""]","[1,1,1,0]",0,8,8,8,1,0,1,,,1,FALSE,5.8327,,,,,,,,,,,,,,,,,,,,,,,,,,,,,
,606e22e5312c3b75b4de9c36,001,2022-04-28_21h14.11.190,classification_task,2021.2.3,MacIntel,60.0024001,606e22e5312c3b75b4de9c36,626b377229c10585ec392f8a,626b3b83ff0b7ef5dc450f80,,,,,,,,,,,,,,,,,,,,,,,l,0,"[""0.203"",""0.471"",""0.741"",""0.259""]","[1,1,1,0]",0,9,9,9,1,0,0,,,1,FALSE,6.2349,,,,,,,,,,,,,,,,,,,,,,,,,,,,,
,606e22e5312c3b75b4de9c36,001,2022-04-28_21h14.11.190,classification_task,2021.2.3,MacIntel,60.0024001,606e22e5312c3b75b4de9c36,626b377229c10585ec392f8a,626b3b83ff0b7ef5dc450f80,,,,,,,,,,,,,,,,,,,,,,,l,1,"[""0.042"",""0.294"",""0.562"",""0.794""]","[0,1,1,1]",0,10,10,10,1,1,1,,,1,FALSE,5.2155,,,,,,,,,,,,,,,,,,,,,,,,,,,,,
,606e22e5312c3b75b4de9c36,001,2022-04-28_21h14.11.190,classification_task,2021.2.3,MacIntel,60.0024001,606e22e5312c3b75b4de9c36,626b377229c10585ec392f8a,626b3b83ff0b7ef5dc450f80,,,,,,,,,,,,,,,,,,,,,,,a,1,"[""0.203"",""0.523"",""0.741"",""0.908""]","[1,0,1,1]",0,11,11,11,1,0,0,,,1,FALSE,3.5989,,,,,,,,,,,,,,,,,,,,,,,,,,,,,
,606e22e5312c3b75b4de9c36,001,2022-04-28_21h14.11.190,classification_task,2021.2.3,MacIntel,60.0024001,606e22e5312c3b75b4de9c36,626b377229c10585ec392f8a,626b3b83ff0b7ef5dc450f80,,,,,,,,,,,,,,,,,,,,,,,l,1,"[""0.079"",""0.294"",""0.562"",""0.509""]","[1,1,1,0]",0,12,12,12,1,1,1,,,1,FALSE,3.5287,,,,,,,,,,,,,,,,,,,,,,,,,,,,,
,606e22e5312c3b75b4de9c36,001,2022-04-28_21h14.11.190,classification_task,2021.2.3,MacIntel,60.0024001,606e22e5312c3b75b4de9c36,626b377229c10585ec392f8a,626b3b83ff0b7ef5dc450f80,,,,,,,,,,,,,,,,,,,,,,,a,0,"[""0.131"",""0.399"",""0.623"",""0.248""]","[1,1,1,0]",0,13,13,13,1,1,0,,,1,FALSE,4.3648,,,,,,,,,,,,,,,,,,,,,,,,,,,,,
,606e22e5312c3b75b4de9c36,001,2022-04-28_21h14.11.190,classification_task,2021.2.3,MacIntel,60.0024001,606e22e5312c3b75b4de9c36,626b377229c10585ec392f8a,626b3b83ff0b7ef5dc450f80,,,,,,,,,,,,,,,,,,,,,,,a,1,"[""0.166"",""0.334"",""0.508"",""0.949""]","[1,1,0,1]",0,14,14,14,1,0,1,,,1,FALSE,2.6503,,,,,,,,,,,,,,,,,,,,,,,,,,,,,
,606e22e5312c3b75b4de9c36,001,2022-04-28_21h14.11.190,classification_task,2021.2.3,MacIntel,60.0024001,606e22e5312c3b75b4de9c36,626b377229c10585ec392f8a,626b3b83ff0b7ef5dc450f80,,,,,,,,,,,,,,,,,,,,,,,a,1,"[""0.166"",""0.515"",""0.856"",""0.949""]","[1,0,1,1]",0,15,15,15,1,0,1,,,1,FALSE,2.5682,,,,,,,,,,,,,,,,,,,,,,,,,,,,,
,606e22e5312c3b75b4de9c36,001,2022-04-28_21h14.11.190,classification_task,2021.2.3,MacIntel,60.0024001,606e22e5312c3b75b4de9c36,626b377229c10585ec392f8a,626b3b83ff0b7ef5dc450f80,,,,,,,,,,,,,,,,,,,,,,,l,1,"[""0.527"",""0.399"",""0.623"",""0.692""]","[0,1,1,1]",0,16,16,16,1,1,0,,,1,FALSE,1.8499,,,,,,,,,,,,,,,,,,,,,,,,,,,,,
,606e22e5312c3b75b4de9c36,001,2022-04-28_21h14.11.190,classification_task,2021.2.3,MacIntel,60.0024001,606e22e5312c3b75b4de9c36,626b377229c10585ec392f8a,626b3b83ff0b7ef5dc450f80,,,,,,,,,,,,,,,,,,,,,,,a,1,"[""0.527"",""0.334"",""0.856"",""0.949""]","[0,1,1,1]",0,17,17,17,1,0,1,,,1,FALSE,3.4516,,,,,,,,,,,,,,,,,,,,,,,,,,,,,
,606e22e5312c3b75b4de9c36,001,2022-04-28_21h14.11.190,classification_task,2021.2.3,MacIntel,60.0024001,606e22e5312c3b75b4de9c36,626b377229c10585ec392f8a,626b3b83ff0b7ef5dc450f80,,,,,,,,,,,,,,,,,,,,,,,l,1,"[""0.131"",""0.399"",""0.041"",""0.692""]","[1,1,0,1]",0,18,18,18,1,1,0,,,1,FALSE,2.6143,,,,,,,,,,,,,,,,,,,,,,,,,,,,,
,606e22e5312c3b75b4de9c36,001,2022-04-28_21h14.11.190,classification_task,2021.2.3,MacIntel,60.0024001,606e22e5312c3b75b4de9c36,626b377229c10585ec392f8a,626b3b83ff0b7ef5dc450f80,,,,,,,,,,,,,,,,,,,,,,,a,1,"[""0.203"",""0.523"",""0.741"",""0.908""]","[1,0,1,1]",0,19,19,19,1,0,0,,,1,FALSE,4.0826,,,,,,,,,,,,,,,,,,,,,,,,,,,,,
,606e22e5312c3b75b4de9c36,001,2022-04-28_21h14.11.190,classification_task,2021.2.3,MacIntel,60.0024001,606e22e5312c3b75b4de9c36,626b377229c10585ec392f8a,626b3b83ff0b7ef5dc450f80,,,,,,,,,,,,,,,,,,,,,,,l,0,"[""0.203"",""0.471"",""0.741"",""0.040""]","[1,1,1,0]",0,20,20,20,1,0,0,,,1,FALSE,2.7545,,,,,,,,,,,,,,,,,,,,,,,,,,,,,
,606e22e5312c3b75b4de9c36,001,2022-04-28_21h14.11.190,classification_task,2021.2.3,MacIntel,60.0024001,606e22e5312c3b75b4de9c36,626b377229c10585ec392f8a,626b3b83ff0b7ef5dc450f80,,,,,,,,,,,,,,,,,,,,,,,l,1,"[""0.079"",""0.523"",""0.562"",""0.794""]","[1,0,1,1]",0,21,21,21,1,1,1,,,1,FALSE,3.1508,,,,,,,,,,,,,,,,,,,,,,,,,,,,,
,606e22e5312c3b75b4de9c36,001,2022-04-28_21h14.11.190,classification_task,2021.2.3,MacIntel,60.0024001,606e22e5312c3b75b4de9c36,626b377229c10585ec392f8a,626b3b83ff0b7ef5dc450f80,,,,,,,,,,,,,,,,,,,,,,,l,1,"[""0.079"",""0.294"",""0.259"",""0.794""]","[1,1,0,1]",0,22,22,22,1,1,1,,,1,FALSE,2.3231,,,,,,,,,,,,,,,,,,,,,,,,,,,,,
,606e22e5312c3b75b4de9c36,001,2022-04-28_21h14.11.190,classification_task,2021.2.3,MacIntel,60.0024001,606e22e5312c3b75b4de9c36,626b377229c10585ec392f8a,626b3b83ff0b7ef5dc450f80,,,,,,,,,,,,,,,,,,,,,,,l,1,"[""0.079"",""0.294"",""0.562"",""0.259""]","[1,1,1,0]",0,23,23,23,1,1,1,,,1,FALSE,2.6854,,,,,,,,,,,,,,,,,,,,,,,,,,,,,
,606e22e5312c3b75b4de9c36,001,2022-04-28_21h14.11.190,classification_task,2021.2.3,MacIntel,60.0024001,606e22e5312c3b75b4de9c36,626b377229c10585ec392f8a,626b3b83ff0b7ef5dc450f80,,,,,,,,,,,,,,,,,,,,,,,a,1,"[""0.166"",""0.042"",""0.856"",""0.949""]","[1,0,1,1]",0,24,24,24,1,0,1,,,1,FALSE,3.1037,,,,,,,,,,,,,,,,,,,,,,,,,,,,,
,606e22e5312c3b75b4de9c36,001,2022-04-28_21h14.11.190,classification_task,2021.2.3,MacIntel,60.0024001,606e22e5312c3b75b4de9c36,626b377229c10585ec392f8a,626b3b83ff0b7ef5dc450f80,,,,,,,,,,,,,,,,,,,,,,,l,0,"[""0.508"",""0.471"",""0.741"",""0.908""]","[0,1,1,1]",0,25,25,25,1,0,0,,,1,FALSE,3.3007,,,,,,,,,,,,,,,,,,,,,,,,,,,,,
,606e22e5312c3b75b4de9c36,001,2022-04-28_21h14.11.190,classification_task,2021.2.3,MacIntel,60.0024001,606e22e5312c3b75b4de9c36,626b377229c10585ec392f8a,626b3b83ff0b7ef5dc450f80,,,,,,,,,,,,,,,,,,,,,,,a,1,"[""0.166"",""0.334"",""0.523"",""0.949""]","[1,1,0,1]",0,26,26,26,1,0,1,,,1,FALSE,4.1669,,,,,,,,,,,,,,,,,,,,,,,,,,,,,
,606e22e5312c3b75b4de9c36,001,2022-04-28_21h14.11.190,classification_task,2021.2.3,MacIntel,60.0024001,606e22e5312c3b75b4de9c36,626b377229c10585ec392f8a,626b3b83ff0b7ef5dc450f80,,,,,,,,,,,,,,,,,,,,,,,a,0,"[""0.131"",""0.399"",""0.623"",""0.523""]","[1,1,1,0]",0,27,27,27,1,1,0,,,1,FALSE,2.9011,,,,,,,,,,,,,,,,,,,,,,,,,,,,,
,606e22e5312c3b75b4de9c36,001,2022-04-28_21h14.11.190,classification_task,2021.2.3,MacIntel,60.0024001,606e22e5312c3b75b4de9c36,626b377229c10585ec392f8a,626b3b83ff0b7ef5dc450f80,,,,,,,,,,,,,,,,,,,,,,,l,0,"[""0.166"",""0.334"",""0.856"",""0.515""]","[1,1,1,0]",0,28,28,28,1,0,1,,,1,FALSE,3.9328,,,,,,,,,,,,,,,,,,,,,,,,,,,,,
,606e22e5312c3b75b4de9c36,001,2022-04-28_21h14.11.190,classification_task,2021.2.3,MacIntel,60.0024001,606e22e5312c3b75b4de9c36,626b377229c10585ec392f8a,626b3b83ff0b7ef5dc450f80,,,,,,,,,,,,,,,,,,,,,,,a,1,"[""0.203"",""0.471"",""0.511"",""0.908""]","[1,1,0,1]",0,29,29,29,1,0,0,,,1,FALSE,3.2656,,,,,,,,,,,,,,,,,,,,,,,,,,,,,
,606e22e5312c3b75b4de9c36,001,2022-04-28_21h14.11.190,classification_task,2021.2.3,MacIntel,60.0024001,606e22e5312c3b75b4de9c36,626b377229c10585ec392f8a,626b3b83ff0b7ef5dc450f80,,,,,,,,,,,,,,,,,,,,,,,l,1,"[""0.511"",""0.294"",""0.562"",""0.794""]","[0,1,1,1]",0,30,30,30,1,1,1,,,1,FALSE,2.8994,,,,,,,,,,,,,,,,,,,,,,,,,,,,,
,606e22e5312c3b75b4de9c36,001,2022-04-28_21h14.11.190,classification_task,2021.2.3,MacIntel,60.0024001,606e22e5312c3b75b4de9c36,626b377229c10585ec392f8a,626b3b83ff0b7ef5dc450f80,,,,,,,,,,,,,,,,,,,,,,,a,0,"[""0.131"",""0.509"",""0.623"",""0.692""]","[1,0,1,1]",0,31,31,31,1,1,0,,,1,FALSE,4.4686,,,,,,,,,,,,,,,,,,,,,,,,,,,,,
,606e22e5312c3b75b4de9c36,001,2022-04-28_21h14.11.190,classification_task,2021.2.3,MacIntel,60.0024001,606e22e5312c3b75b4de9c36,626b377229c10585ec392f8a,626b3b83ff0b7ef5dc450f80,,,,,,,,,,,,,,,,,,,,,,,a,0,"[""0.131"",""0.399"",""0.623"",""0.509""]","[1,1,1,0]",0,32,32,32,1,1,0,,,1,FALSE,4.3834,,,,,,,,,,,,,,,,,,,,,,,,,,,,,
,606e22e5312c3b75b4de9c36,001,2022-04-28_21h14.11.190,classification_task,2021.2.3,MacIntel,60.0024001,606e22e5312c3b75b4de9c36,626b377229c10585ec392f8a,626b3b83ff0b7ef5dc450f80,,,,,,,,,,,,,,,,,,,,,,,l,0,"[""0.166"",""0.334"",""0.856"",""0.248""]","[1,1,1,0]",0,33,33,33,1,0,1,,,1,FALSE,2.0679,,,,,,,,,,,,,,,,,,,,,,,,,,,,,
,606e22e5312c3b75b4de9c36,001,2022-04-28_21h14.11.190,classification_task,2021.2.3,MacIntel,60.0024001,606e22e5312c3b75b4de9c36,626b377229c10585ec392f8a,626b3b83ff0b7ef5dc450f80,,,,,,,,,,,,,,,,,,,,,,,a,1,"[""0.203"",""0.471"",""0.259"",""0.908""]","[1,1,0,1]",0,34,34,34,1,0,0,,,1,FALSE,1.5857,,,,,,,,,,,,,,,,,,,,,,,,,,,,,
,606e22e5312c3b75b4de9c36,001,2022-04-28_21h14.11.190,classification_task,2021.2.3,MacIntel,60.0024001,606e22e5312c3b75b4de9c36,626b377229c10585ec392f8a,626b3b83ff0b7ef5dc450f80,,,,,,,,,,,,,,,,,,,,,,,a,0,"[""0.079"",""0.250"",""0.562"",""0.794""]","[1,0,1,1]",0,35,35,35,1,1,1,,,1,FALSE,1.4788,,,,,,,,,,,,,,,,,,,,,,,,,,,,,
,606e22e5312c3b75b4de9c36,001,2022-04-28_21h14.11.190,classification_task,2021.2.3,MacIntel,60.0024001,606e22e5312c3b75b4de9c36,626b377229c10585ec392f8a,626b3b83ff0b7ef5dc450f80,,,,,,,,,,,,,,,,,,,,,,,l,1,"[""0.511"",""0.294"",""0.562"",""0.794""]","[0,1,1,1]",0,36,36,36,1,1,1,,,1,FALSE,1.3841,,,,,,,,,,,,,,,,,,,,,,,,,,,,,
,606e22e5312c3b75b4de9c36,001,2022-04-28_21h14.11.190,classification_task,2021.2.3,MacIntel,60.0024001,606e22e5312c3b75b4de9c36,626b377229c10585ec392f8a,626b3b83ff0b7ef5dc450f80,,,,,,,,,,,,,,,,,,,,,,,l,0,"[""0.166"",""0.334"",""0.523"",""0.949""]","[1,1,0,1]",0,37,37,37,1,0,1,,,1,FALSE,1.4475,,,,,,,,,,,,,,,,,,,,,,,,,,,,,
,606e22e5312c3b75b4de9c36,001,2022-04-28_21h14.11.190,classification_task,2021.2.3,MacIntel,60.0024001,606e22e5312c3b75b4de9c36,626b377229c10585ec392f8a,626b3b83ff0b7ef5dc450f80,,,,,,,,,,,,,,,,,,,,,,,l,0,"[""0.517"",""0.471"",""0.741"",""0.908""]","[0,1,1,1]",0,38,38,38,1,0,0,,,1,FALSE,1.2818,,,,,,,,,,,,,,,,,,,,,,,,,,,,,
,606e22e5312c3b75b4de9c36,001,2022-04-28_21h14.11.190,classification_task,2021.2.3,MacIntel,60.0024001,606e22e5312c3b75b4de9c36,626b377229c10585ec392f8a,626b3b83ff0b7ef5dc450f80,,,,,,,,,,,,,,,,,,,,,,,l,1,"[""0.259"",""0.399"",""0.623"",""0.692""]","[0,1,1,1]",0,39,39,39,1,1,0,,,1,FALSE,0.4991,,,,,,,,,,,,,,,,,,,,,,,,,,,,,
,606e22e5312c3b75b4de9c36,001,2022-04-28_21h14.11.190,classification_task,2021.2.3,MacIntel,60.0024001,606e22e5312c3b75b4de9c36,626b377229c10585ec392f8a,626b3b83ff0b7ef5dc450f80,,,,,,,,,,,,,,,,,,,,,,,a,0,"[""0.079"",""0.294"",""0.562"",""0.042""]","[1,1,1,0]",0,40,40,40,1,1,1,,,1,FALSE,1.0962,,,,,,,,,,,,,,,,,,,,,,,,,,,,,
,606e22e5312c3b75b4de9c36,001,2022-04-28_21h14.11.190,classification_task,2021.2.3,MacIntel,60.0024001,606e22e5312c3b75b4de9c36,626b377229c10585ec392f8a,626b3b83ff0b7ef5dc450f80,,,,,,,,,,,,,,,,,,,,,,,l,1,"[""0.131"",""0.399"",""0.042"",""0.692""]","[1,1,0,1]",0,41,41,41,1,1,0,,,1,FALSE,0.6826,,,,,,,,,,,,,,,,,,,,,,,,,,,,,
,606e22e5312c3b75b4de9c36,001,2022-04-28_21h14.11.190,classification_task,2021.2.3,MacIntel,60.0024001,606e22e5312c3b75b4de9c36,626b377229c10585ec392f8a,626b3b83ff0b7ef5dc450f80,,,,,,,,,,,,,,,,,,,,,,,l,0,"[""0.203"",""0.471"",""0.741"",""0.248""]","[1,1,1,0]",0,42,42,42,1,0,0,,,1,FALSE,0.3794,,,,,,,,,,,,,,,,,,,,,,,,,,,,,
,606e22e5312c3b75b4de9c36,001,2022-04-28_21h14.11.190,classification_task,2021.2.3,MacIntel,60.0024001,606e22e5312c3b75b4de9c36,626b377229c10585ec392f8a,626b3b83ff0b7ef5dc450f80,,,,,,,,,,,,,,,,,,,,,,,l,1,"[""0.131"",""0.517"",""0.623"",""0.692""]","[1,0,1,1]",0,43,43,43,1,1,0,,,1,FALSE,0.5621,,,,,,,,,,,,,,,,,,,,,,,,,,,,,
,606e22e5312c3b75b4de9c36,001,2022-04-28_21h14.11.190,classification_task,2021.2.3,MacIntel,60.0024001,606e22e5312c3b75b4de9c36,626b377229c10585ec392f8a,626b3b83ff0b7ef5dc450f80,,,,,,,,,,,,,,,,,,,,,,,a,0,"[""0.079"",""0.294"",""0.517"",""0.794""]","[1,1,0,1]",0,44,44,44,1,1,1,,,1,FALSE,0.2966,,,,,,,,,,,,,,,,,,,,,,,,,,,,,
,606e22e5312c3b75b4de9c36,001,2022-04-28_21h14.11.190,classification_task,2021.2.3,MacIntel,60.0024001,606e22e5312c3b75b4de9c36,626b377229c10585ec392f8a,626b3b83ff0b7ef5dc450f80,,,,,,,,,,,,,,,,,,,,,,,l,0,"[""0.166"",""0.527"",""0.856"",""0.949""]","[1,0,1,1]",0,45,45,45,1,0,1,,,1,FALSE,0.2466,,,,,,,,,,,,,,,,,,,,,,,,,,,,,
,606e22e5312c3b75b4de9c36,001,2022-04-28_21h14.11.190,classification_task,2021.2.3,MacIntel,60.0024001,606e22e5312c3b75b4de9c36,626b377229c10585ec392f8a,626b3b83ff0b7ef5dc450f80,,,,,,,,,,,,,,,,,,,,,,,l,0,"[""0.248"",""0.334"",""0.856"",""0.949""]","[0,1,1,1]",0,46,46,46,1,0,1,,,1,FALSE,0.1134,,,,,,,,,,,,,,,,,,,,,,,,,,,,,
,606e22e5312c3b75b4de9c36,001,2022-04-28_21h14.11.190,classification_task,2021.2.3,MacIntel,60.0024001,606e22e5312c3b75b4de9c36,626b377229c10585ec392f8a,626b3b83ff0b7ef5dc450f80,,,,,,,,,,,,,,,,,,,,,,,l,0,"[""0.203"",""0.250"",""0.741"",""0.908""]","[1,0,1,1]",0,47,47,47,1,0,0,,,1,FALSE,0.213,,,,,,,,,,,,,,,,,,,,,,,,,,,,,
,606e22e5312c3b75b4de9c36,001,2022-04-28_21h14.11.190,classification_task,2021.2.3,MacIntel,60.0024001,606e22e5312c3b75b4de9c36,626b377229c10585ec392f8a,626b3b83ff0b7ef5dc450f80,,,,,,,,,,,,,,,,,,,,,,,l,1,"[""0.509"",""0.399"",""0.623"",""0.692""]","[0,1,1,1]",0,48,48,48,1,1,0,,,1,FALSE,0.2813,,,,,,,,,,,,,,,,,,,,,,,,,,,,,
,606e22e5312c3b75b4de9c36,001,2022-04-28_21h14.11.190,classification_task,2021.2.3,MacIntel,60.0024001,606e22e5312c3b75b4de9c36,626b377229c10585ec392f8a,626b3b83ff0b7ef5dc450f80,,,,,,,,,,,,,,,,,,,,,,,l,0,"[""0.509"",""0.334"",""0.856"",""0.949""]","[0,1,1,1]",0,49,49,49,1,0,1,,,1,FALSE,1.0311,,,,,,,,,,,,,,,,,,,,,,,,,,,,,
,606e22e5312c3b75b4de9c36,001,2022-04-28_21h14.11.190,classification_task,2021.2.3,MacIntel,60.0024001,606e22e5312c3b75b4de9c36,626b377229c10585ec392f8a,626b3b83ff0b7ef5dc450f80,,,,,,,,,,,,,,,,,,,,,,,a,1,"[""0.203"",""0.471"",""0.523"",""0.908""]","[1,1,0,1]",0,50,50,50,1,0,0,,,1,FALSE,0.2308,,,,,,,,,,,,,,,,,,,,,,,,,,,,,
,606e22e5312c3b75b4de9c36,001,2022-04-28_21h14.11.190,classification_task,2021.2.3,MacIntel,60.0024001,606e22e5312c3b75b4de9c36,626b377229c10585ec392f8a,626b3b83ff0b7ef5dc450f80,,,,,,,,,,,,,,,,,,,,,,,l,0,"[""0.041"",""0.471"",""0.741"",""0.908""]","[0,1,1,1]",0,51,51,51,1,0,0,,,1,FALSE,0.2655,,,,,,,,,,,,,,,,,,,,,,,,,,,,,
,606e22e5312c3b75b4de9c36,001,2022-04-28_21h14.11.190,classification_task,2021.2.3,MacIntel,60.0024001,606e22e5312c3b75b4de9c36,626b377229c10585ec392f8a,626b3b83ff0b7ef5dc450f80,,,,,,,,,,,,,,,,,,,,,,,a,1,"[""0.166"",""0.334"",""0.515"",""0.949""]","[1,1,0,1]",0,52,52,52,1,0,1,,,1,FALSE,0.3521,,,,,,,,,,,,,,,,,,,,,,,,,,,,,
,606e22e5312c3b75b4de9c36,001,2022-04-28_21h14.11.190,classification_task,2021.2.3,MacIntel,60.0024001,606e22e5312c3b75b4de9c36,626b377229c10585ec392f8a,626b3b83ff0b7ef5dc450f80,,,,,,,,,,,,,,,,,,,,,,,a,0,"[""0.079"",""0.248"",""0.562"",""0.794""]","[1,0,1,1]",0,53,53,53,1,1,1,,,1,FALSE,0.2475,,,,,,,,,,,,,,,,,,,,,,,,,,,,,
,606e22e5312c3b75b4de9c36,001,2022-04-28_21h14.11.190,classification_task,2021.2.3,MacIntel,60.0024001,606e22e5312c3b75b4de9c36,626b377229c10585ec392f8a,626b3b83ff0b7ef5dc450f80,,,,,,,,,,,,,,,,,,,,,,,a,0,"[""0.079"",""0.294"",""0.562"",""0.037""]","[1,1,1,0]",0,54,54,54,1,1,1,,,1,FALSE,0.2131,,,,,,,,,,,,,,,,,,,,,,,,,,,,,
,606e22e5312c3b75b4de9c36,001,2022-04-28_21h14.11.190,classification_task,2021.2.3,MacIntel,60.0024001,606e22e5312c3b75b4de9c36,626b377229c10585ec392f8a,626b3b83ff0b7ef5dc450f80,,,,,,,,,,,,,,,,,,,,,,,l,0,"[""0.166"",""0.334"",""0.856"",""0.517""]","[1,1,1,0]",0,55,55,55,1,0,1,,,1,FALSE,0.2636,,,,,,,,,,,,,,,,,,,,,,,,,,,,,
,606e22e5312c3b75b4de9c36,001,2022-04-28_21h14.11.190,classification_task,2021.2.3,MacIntel,60.0024001,606e22e5312c3b75b4de9c36,626b377229c10585ec392f8a,626b3b83ff0b7ef5dc450f80,,,,,,,,,,,,,,,,,,,,,,,a,0,"[""0.131"",""0.399"",""0.623"",""0.515""]","[1,1,1,0]",0,56,56,56,1,1,0,,,1,FALSE,0.4149,,,,,,,,,,,,,,,,,,,,,,,,,,,,,
,606e22e5312c3b75b4de9c36,001,2022-04-28_21h14.11.190,classification_task,2021.2.3,MacIntel,60.0024001,606e22e5312c3b75b4de9c36,626b377229c10585ec392f8a,626b3b83ff0b7ef5dc450f80,,,,,,,,,,,,,,,,,,,,,,,l,1,"[""0.131"",""0.399"",""0.509"",""0.692""]","[1,1,0,1]",0,57,57,57,1,1,0,,,1,FALSE,0.33,,,,,,,,,,,,,,,,,,,,,,,,,,,,,
,606e22e5312c3b75b4de9c36,001,2022-04-28_21h14.11.190,classification_task,2021.2.3,MacIntel,60.0024001,606e22e5312c3b75b4de9c36,626b377229c10585ec392f8a,626b3b83ff0b7ef5dc450f80,,,,,,,,,,,,,,,,,,,,,,,l,0,"[""0.166"",""0.040"",""0.856"",""0.949""]","[1,0,1,1]",0,58,58,58,1,0,1,,,1,FALSE,0.3468,,,,,,,,,,,,,,,,,,,,,,,,,,,,,
,606e22e5312c3b75b4de9c36,001,2022-04-28_21h14.11.190,classification_task,2021.2.3,MacIntel,60.0024001,606e22e5312c3b75b4de9c36,626b377229c10585ec392f8a,626b3b83ff0b7ef5dc450f80,,,,,,,,,,,,,,,,,,,,,,,l,0,"[""0.203"",""0.471"",""0.741"",""0.517""]","[1,1,1,0]",0,59,59,59,1,0,0,,,1,FALSE,0.4343,,,,,,,,,,,,,,,,,,,,,,,,,,,,,
,606e22e5312c3b75b4de9c36,001,2022-04-28_21h14.11.190,classification_task,2021.2.3,MacIntel,60.0024001,606e22e5312c3b75b4de9c36,626b377229c10585ec392f8a,626b3b83ff0b7ef5dc450f80,,,,,,,,,,,,,,,,,,,,,,,a,1,"[""0.203"",""0.042"",""0.741"",""0.908""]","[1,0,1,1]",0,60,60,60,1,0,0,,,1,FALSE,0.3497,,,,,,,,,,,,,,,,,,,,,,,,,,,,,
,606e22e5312c3b75b4de9c36,001,2022-04-28_21h14.11.190,classification_task,2021.2.3,MacIntel,60.0024001,606e22e5312c3b75b4de9c36,626b377229c10585ec392f8a,626b3b83ff0b7ef5dc450f80,,,,,,,,,,,,,,,,,,,,,,,a,0,"[""0.131"",""0.248"",""0.623"",""0.692""]","[1,0,1,1]",0,61,61,61,1,1,0,,,1,FALSE,0.8794,,,,,,,,,,,,,,,,,,,,,,,,,,,,,
,606e22e5312c3b75b4de9c36,001,2022-04-28_21h14.11.190,classification_task,2021.2.3,MacIntel,60.0024001,606e22e5312c3b75b4de9c36,626b377229c10585ec392f8a,626b3b83ff0b7ef5dc450f80,,,,,,,,,,,,,,,,,,,,,,,l,1,"[""0.248"",""0.294"",""0.562"",""0.794""]","[0,1,1,1]",0,62,62,62,1,1,1,,,1,FALSE,0.3455,,,,,,,,,,,,,,,,,,,,,,,,,,,,,
,606e22e5312c3b75b4de9c36,001,2022-04-28_21h14.11.190,classification_task,2021.2.3,MacIntel,60.0024001,606e22e5312c3b75b4de9c36,626b377229c10585ec392f8a,626b3b83ff0b7ef5dc450f80,,,,,,,,,,,,,,,,,,,,,,,a,0,"[""0.079"",""0.294"",""0.040"",""0.794""]","[1,1,0,1]",0,63,63,63,1,1,1,,,1,FALSE,0.6127,,,,,,,,,,,,,,,,,,,,,,,,,,,,,
,606e22e5312c3b75b4de9c36,001,2022-04-28_21h14.11.190,classification_task,2021.2.3,MacIntel,60.0024001,606e22e5312c3b75b4de9c36,626b377229c10585ec392f8a,626b3b83ff0b7ef5dc450f80,,,,,,,,,,,,,,,,,,,,,,,,,,,,,,,,,,,,,,,0, ,,0,1.060451573,387.377,0,0,0,0,1,2,1,,,,,,,,,,,,,,,,
,606e22e5312c3b75b4de9c36,001,2022-04-28_21h14.11.190,classification_task,2021.2.3,MacIntel,60.0024001,606e22e5312c3b75b4de9c36,626b377229c10585ec392f8a,626b3b83ff0b7ef5dc450f80,,,,,,,,,,,,,,,,,,,,,,,,,,,,,,,,,,,,,,,1,  ,,0,5.056607327,394.1596,0,0,0,0,1,2,1,,,,,,,,,,,,,,,,
,606e22e5312c3b75b4de9c36,001,2022-04-28_21h14.11.190,classification_task,2021.2.3,MacIntel,60.0024001,606e22e5312c3b75b4de9c36,626b377229c10585ec392f8a,626b3b83ff0b7ef5dc450f80,,,,,,,,,,,,,,,,,,,,,,,,,,,,,,,,,,,,,,,2,  ,,0,0.435015248,402.5261,0,0,0,0,1,2,1,,,,,,,,,,,,,,,,
,606e22e5312c3b75b4de9c36,001,2022-04-28_21h14.11.190,classification_task,2021.2.3,MacIntel,60.0024001,606e22e5312c3b75b4de9c36,626b377229c10585ec392f8a,626b3b83ff0b7ef5dc450f80,,,,,,,,,,,,,,,,,,,,,,,,,,,,,,,,,,,,,,,,,,,,,0,0,0,0,1,,1,,,,,,,,,,,,,,,,
,606e22e5312c3b75b4de9c36,001,2022-04-28_21h14.11.190,classification_task,2021.2.3,MacIntel,60.0024001,606e22e5312c3b75b4de9c36,626b377229c10585ec392f8a,626b3b83ff0b7ef5dc450f80,,,,,,,,,,,,,,,,,,,,,space,10.9823,a,0,"[""0.131"",""0.399"",""0.508"",""0.692""]","[1,1,0,1]",0,0,0,0,1,1,0,,,1,FALSE,5.3279,,,,,,,,,,,,,,,,,,,,,,,,,,,,,
,606e22e5312c3b75b4de9c36,001,2022-04-28_21h14.11.190,classification_task,2021.2.3,MacIntel,60.0024001,606e22e5312c3b75b4de9c36,626b377229c10585ec392f8a,626b3b83ff0b7ef5dc450f80,,,,,,,,,,,,,,,,,,,,,,,l,0,"[""0.037"",""0.334"",""0.856"",""0.949""]","[0,1,1,1]",0,1,1,1,1,0,1,,,1,FALSE,4.7675,,,,,,,,,,,,,,,,,,,,,,,,,,,,,
,606e22e5312c3b75b4de9c36,001,2022-04-28_21h14.11.190,classification_task,2021.2.3,MacIntel,60.0024001,606e22e5312c3b75b4de9c36,626b377229c10585ec392f8a,626b3b83ff0b7ef5dc450f80,,,,,,,,,,,,,,,,,,,,,,,a,1,"[""0.203"",""0.471"",""0.741"",""0.040""]","[1,1,1,0]",0,2,2,2,1,0,0,,,1,FALSE,1.1659,,,,,,,,,,,,,,,,,,,,,,,,,,,,,
,606e22e5312c3b75b4de9c36,001,2022-04-28_21h14.11.190,classification_task,2021.2.3,MacIntel,60.0024001,606e22e5312c3b75b4de9c36,626b377229c10585ec392f8a,626b3b83ff0b7ef5dc450f80,,,,,,,,,,,,,,,,,,,,,,,a,1,"[""0.166"",""0.334"",""0.250"",""0.949""]","[1,1,0,1]",0,3,3,3,1,0,1,,,1,FALSE,0.3133,,,,,,,,,,,,,,,,,,,,,,,,,,,,,
,606e22e5312c3b75b4de9c36,001,2022-04-28_21h14.11.190,classification_task,2021.2.3,MacIntel,60.0024001,606e22e5312c3b75b4de9c36,626b377229c10585ec392f8a,626b3b83ff0b7ef5dc450f80,,,,,,,,,,,,,,,,,,,,,,,a,1,"[""0.166"",""0.523"",""0.856"",""0.949""]","[1,0,1,1]",0,4,4,4,1,0,1,,,1,FALSE,1.4683,,,,,,,,,,,,,,,,,,,,,,,,,,,,,
,606e22e5312c3b75b4de9c36,001,2022-04-28_21h14.11.190,classification_task,2021.2.3,MacIntel,60.0024001,606e22e5312c3b75b4de9c36,626b377229c10585ec392f8a,626b3b83ff0b7ef5dc450f80,,,,,,,,,,,,,,,,,,,,,,,a,1,"[""0.203"",""0.471"",""0.508"",""0.908""]","[1,1,0,1]",0,5,5,5,1,0,0,,,1,FALSE,2.151,,,,,,,,,,,,,,,,,,,,,,,,,,,,,
,606e22e5312c3b75b4de9c36,001,2022-04-28_21h14.11.190,classification_task,2021.2.3,MacIntel,60.0024001,606e22e5312c3b75b4de9c36,626b377229c10585ec392f8a,626b3b83ff0b7ef5dc450f80,,,,,,,,,,,,,,,,,,,,,,,a,0,"[""0.079"",""0.294"",""0.562"",""0.508""]","[1,1,1,0]",0,6,6,6,1,1,1,,,1,FALSE,1.0469,,,,,,,,,,,,,,,,,,,,,,,,,,,,,
,606e22e5312c3b75b4de9c36,001,2022-04-28_21h14.11.190,classification_task,2021.2.3,MacIntel,60.0024001,606e22e5312c3b75b4de9c36,626b377229c10585ec392f8a,626b3b83ff0b7ef5dc450f80,,,,,,,,,,,,,,,,,,,,,,,l,0,"[""0.166"",""0.334"",""0.856"",""0.523""]","[1,1,1,0]",0,7,7,7,1,0,1,,,1,FALSE,1.2975,,,,,,,,,,,,,,,,,,,,,,,,,,,,,
,606e22e5312c3b75b4de9c36,001,2022-04-28_21h14.11.190,classification_task,2021.2.3,MacIntel,60.0024001,606e22e5312c3b75b4de9c36,626b377229c10585ec392f8a,626b3b83ff0b7ef5dc450f80,,,,,,,,,,,,,,,,,,,,,,,a,0,"[""0.079"",""0.294"",""0.511"",""0.794""]","[1,1,0,1]",0,8,8,8,1,1,1,,,1,FALSE,0.9804,,,,,,,,,,,,,,,,,,,,,,,,,,,,,
,606e22e5312c3b75b4de9c36,001,2022-04-28_21h14.11.190,classification_task,2021.2.3,MacIntel,60.0024001,606e22e5312c3b75b4de9c36,626b377229c10585ec392f8a,626b3b83ff0b7ef5dc450f80,,,,,,,,,,,,,,,,,,,,,,,a,0,"[""0.131"",""0.259"",""0.623"",""0.692""]","[1,0,1,1]",0,9,9,9,1,1,0,,,1,FALSE,0.262,,,,,,,,,,,,,,,,,,,,,,,,,,,,,
,606e22e5312c3b75b4de9c36,001,2022-04-28_21h14.11.190,classification_task,2021.2.3,MacIntel,60.0024001,606e22e5312c3b75b4de9c36,626b377229c10585ec392f8a,626b3b83ff0b7ef5dc450f80,,,,,,,,,,,,,,,,,,,,,,,l,1,"[""0.523"",""0.294"",""0.562"",""0.794""]","[0,1,1,1]",0,10,10,10,1,1,1,,,1,FALSE,0.7298,,,,,,,,,,,,,,,,,,,,,,,,,,,,,
,606e22e5312c3b75b4de9c36,001,2022-04-28_21h14.11.190,classification_task,2021.2.3,MacIntel,60.0024001,606e22e5312c3b75b4de9c36,626b377229c10585ec392f8a,626b3b83ff0b7ef5dc450f80,,,,,,,,,,,,,,,,,,,,,,,l,0,"[""0.250"",""0.471"",""0.741"",""0.908""]","[0,1,1,1]",0,11,11,11,1,0,0,,,1,FALSE,1.2115,,,,,,,,,,,,,,,,,,,,,,,,,,,,,
,606e22e5312c3b75b4de9c36,001,2022-04-28_21h14.11.190,classification_task,2021.2.3,MacIntel,60.0024001,606e22e5312c3b75b4de9c36,626b377229c10585ec392f8a,626b3b83ff0b7ef5dc450f80,,,,,,,,,,,,,,,,,,,,,,,l,1,"[""0.131"",""0.399"",""0.623"",""0.515""]","[1,1,1,0]",0,12,12,12,1,1,0,,,1,FALSE,1.0622,,,,,,,,,,,,,,,,,,,,,,,,,,,,,
,606e22e5312c3b75b4de9c36,001,2022-04-28_21h14.11.190,classification_task,2021.2.3,MacIntel,60.0024001,606e22e5312c3b75b4de9c36,626b377229c10585ec392f8a,626b3b83ff0b7ef5dc450f80,,,,,,,,,,,,,,,,,,,,,,,a,0,"[""0.079"",""0.511"",""0.562"",""0.794""]","[1,0,1,1]",0,13,13,13,1,1,1,,,1,FALSE,0.5977,,,,,,,,,,,,,,,,,,,,,,,,,,,,,
,606e22e5312c3b75b4de9c36,001,2022-04-28_21h14.11.190,classification_task,2021.2.3,MacIntel,60.0024001,606e22e5312c3b75b4de9c36,626b377229c10585ec392f8a,626b3b83ff0b7ef5dc450f80,,,,,,,,,,,,,,,,,,,,,,,a,1,"[""0.203"",""0.040"",""0.741"",""0.908""]","[1,0,1,1]",0,14,14,14,1,0,0,,,1,FALSE,0.2466,,,,,,,,,,,,,,,,,,,,,,,,,,,,,
,606e22e5312c3b75b4de9c36,001,2022-04-28_21h14.11.190,classification_task,2021.2.3,MacIntel,60.0024001,606e22e5312c3b75b4de9c36,626b377229c10585ec392f8a,626b3b83ff0b7ef5dc450f80,,,,,,,,,,,,,,,,,,,,,,,l,1,"[""0.527"",""0.399"",""0.623"",""0.692""]","[0,1,1,1]",0,15,15,15,1,1,0,,,1,FALSE,0.5666,,,,,,,,,,,,,,,,,,,,,,,,,,,,,
,606e22e5312c3b75b4de9c36,001,2022-04-28_21h14.11.190,classification_task,2021.2.3,MacIntel,60.0024001,606e22e5312c3b75b4de9c36,626b377229c10585ec392f8a,626b3b83ff0b7ef5dc450f80,,,,,,,,,,,,,,,,,,,,,,,a,1,"[""0.203"",""0.471"",""0.741"",""0.523""]","[1,1,1,0]",0,16,16,16,1,0,0,,,1,FALSE,1.7634,,,,,,,,,,,,,,,,,,,,,,,,,,,,,
,606e22e5312c3b75b4de9c36,001,2022-04-28_21h14.11.190,classification_task,2021.2.3,MacIntel,60.0024001,606e22e5312c3b75b4de9c36,626b377229c10585ec392f8a,626b3b83ff0b7ef5dc450f80,,,,,,,,,,,,,,,,,,,,,,,a,0,"[""0.131"",""0.399"",""0.623"",""0.523""]","[1,1,1,0]",0,17,17,17,1,1,0,,,1,FALSE,1.6366,,,,,,,,,,,,,,,,,,,,,,,,,,,,,
,606e22e5312c3b75b4de9c36,001,2022-04-28_21h14.11.190,classification_task,2021.2.3,MacIntel,60.0024001,606e22e5312c3b75b4de9c36,626b377229c10585ec392f8a,626b3b83ff0b7ef5dc450f80,,,,,,,,,,,,,,,,,,,,,,,l,1,"[""0.079"",""0.294"",""0.508"",""0.794""]","[1,1,0,1]",0,18,18,18,1,1,1,,,1,FALSE,0.5005,,,,,,,,,,,,,,,,,,,,,,,,,,,,,
,606e22e5312c3b75b4de9c36,001,2022-04-28_21h14.11.190,classification_task,2021.2.3,MacIntel,60.0024001,606e22e5312c3b75b4de9c36,626b377229c10585ec392f8a,626b3b83ff0b7ef5dc450f80,,,,,,,,,,,,,,,,,,,,,,,a,0,"[""0.079"",""0.294"",""0.562"",""0.527""]","[1,1,1,0]",0,19,19,19,1,1,1,,,1,FALSE,1.113,,,,,,,,,,,,,,,,,,,,,,,,,,,,,
,606e22e5312c3b75b4de9c36,001,2022-04-28_21h14.11.190,classification_task,2021.2.3,MacIntel,60.0024001,606e22e5312c3b75b4de9c36,626b377229c10585ec392f8a,626b3b83ff0b7ef5dc450f80,,,,,,,,,,,,,,,,,,,,,,,a,0,"[""0.079"",""0.511"",""0.562"",""0.794""]","[1,0,1,1]",0,20,20,20,1,1,1,,,1,FALSE,0.5994,,,,,,,,,,,,,,,,,,,,,,,,,,,,,
,606e22e5312c3b75b4de9c36,001,2022-04-28_21h14.11.190,classification_task,2021.2.3,MacIntel,60.0024001,606e22e5312c3b75b4de9c36,626b377229c10585ec392f8a,626b3b83ff0b7ef5dc450f80,,,,,,,,,,,,,,,,,,,,,,,a,1,"[""0.166"",""0.334"",""0.856"",""0.523""]","[1,1,1,0]",0,21,21,21,1,0,1,,,1,FALSE,0.4128,,,,,,,,,,,,,,,,,,,,,,,,,,,,,
,606e22e5312c3b75b4de9c36,001,2022-04-28_21h14.11.190,classification_task,2021.2.3,MacIntel,60.0024001,606e22e5312c3b75b4de9c36,626b377229c10585ec392f8a,626b3b83ff0b7ef5dc450f80,,,,,,,,,,,,,,,,,,,,,,,a,0,"[""0.517"",""0.294"",""0.562"",""0.794""]","[0,1,1,1]",0,22,22,22,1,1,1,,,1,FALSE,0.9644,,,,,,,,,,,,,,,,,,,,,,,,,,,,,
,606e22e5312c3b75b4de9c36,001,2022-04-28_21h14.11.190,classification_task,2021.2.3,MacIntel,60.0024001,606e22e5312c3b75b4de9c36,626b377229c10585ec392f8a,626b3b83ff0b7ef5dc450f80,,,,,,,,,,,,,,,,,,,,,,,a,1,"[""0.203"",""0.508"",""0.741"",""0.908""]","[1,0,1,1]",0,23,23,23,1,0,0,,,1,FALSE,0.3156,,,,,,,,,,,,,,,,,,,,,,,,,,,,,
,606e22e5312c3b75b4de9c36,001,2022-04-28_21h14.11.190,classification_task,2021.2.3,MacIntel,60.0024001,606e22e5312c3b75b4de9c36,626b377229c10585ec392f8a,626b3b83ff0b7ef5dc450f80,,,,,,,,,,,,,,,,,,,,,,,a,0,"[""0.131"",""0.042"",""0.623"",""0.692""]","[1,0,1,1]",0,24,24,24,1,1,0,,,1,FALSE,0.4659,,,,,,,,,,,,,,,,,,,,,,,,,,,,,
,606e22e5312c3b75b4de9c36,001,2022-04-28_21h14.11.190,classification_task,2021.2.3,MacIntel,60.0024001,606e22e5312c3b75b4de9c36,626b377229c10585ec392f8a,626b3b83ff0b7ef5dc450f80,,,,,,,,,,,,,,,,,,,,,,,l,0,"[""0.523"",""0.334"",""0.856"",""0.949""]","[0,1,1,1]",0,25,25,25,1,0,1,,,1,FALSE,0.331,,,,,,,,,,,,,,,,,,,,,,,,,,,,,
,606e22e5312c3b75b4de9c36,001,2022-04-28_21h14.11.190,classification_task,2021.2.3,MacIntel,60.0024001,606e22e5312c3b75b4de9c36,626b377229c10585ec392f8a,626b3b83ff0b7ef5dc450f80,,,,,,,,,,,,,,,,,,,,,,,a,1,"[""0.166"",""0.334"",""0.031"",""0.949""]","[1,1,0,1]",0,26,26,26,1,0,1,,,1,FALSE,0.4483,,,,,,,,,,,,,,,,,,,,,,,,,,,,,
,606e22e5312c3b75b4de9c36,001,2022-04-28_21h14.11.190,classification_task,2021.2.3,MacIntel,60.0024001,606e22e5312c3b75b4de9c36,626b377229c10585ec392f8a,626b3b83ff0b7ef5dc450f80,,,,,,,,,,,,,,,,,,,,,,,l,0,"[""0.166"",""0.509"",""0.856"",""0.949""]","[1,0,1,1]",0,27,27,27,1,0,1,,,1,FALSE,0.6285,,,,,,,,,,,,,,,,,,,,,,,,,,,,,
,606e22e5312c3b75b4de9c36,001,2022-04-28_21h14.11.190,classification_task,2021.2.3,MacIntel,60.0024001,606e22e5312c3b75b4de9c36,626b377229c10585ec392f8a,626b3b83ff0b7ef5dc450f80,,,,,,,,,,,,,,,,,,,,,,,l,0,"[""0.203"",""0.471"",""0.259"",""0.908""]","[1,1,0,1]",0,28,28,28,1,0,0,,,1,FALSE,0.2287,,,,,,,,,,,,,,,,,,,,,,,,,,,,,
,606e22e5312c3b75b4de9c36,001,2022-04-28_21h14.11.190,classification_task,2021.2.3,MacIntel,60.0024001,606e22e5312c3b75b4de9c36,626b377229c10585ec392f8a,626b3b83ff0b7ef5dc450f80,,,,,,,,,,,,,,,,,,,,,,,l,0,"[""0.523"",""0.471"",""0.741"",""0.908""]","[0,1,1,1]",0,29,29,29,1,0,0,,,1,FALSE,0.3971,,,,,,,,,,,,,,,,,,,,,,,,,,,,,
,606e22e5312c3b75b4de9c36,001,2022-04-28_21h14.11.190,classification_task,2021.2.3,MacIntel,60.0024001,606e22e5312c3b75b4de9c36,626b377229c10585ec392f8a,626b3b83ff0b7ef5dc450f80,,,,,,,,,,,,,,,,,,,,,,,a,0,"[""0.131"",""0.399"",""0.511"",""0.692""]","[1,1,0,1]",0,30,30,30,1,1,0,,,1,FALSE,0.2815,,,,,,,,,,,,,,,,,,,,,,,,,,,,,
,606e22e5312c3b75b4de9c36,001,2022-04-28_21h14.11.190,classification_task,2021.2.3,MacIntel,60.0024001,606e22e5312c3b75b4de9c36,626b377229c10585ec392f8a,626b3b83ff0b7ef5dc450f80,,,,,,,,,,,,,,,,,,,,,,,l,1,"[""0.508"",""0.399"",""0.623"",""0.692""]","[0,1,1,1]",0,31,31,31,1,1,0,,,1,FALSE,1.8826,,,,,,,,,,,,,,,,,,,,,,,,,,,,,
,606e22e5312c3b75b4de9c36,001,2022-04-28_21h14.11.190,classification_task,2021.2.3,MacIntel,60.0024001,606e22e5312c3b75b4de9c36,626b377229c10585ec392f8a,626b3b83ff0b7ef5dc450f80,,,,,,,,,,,,,,,,,,,,,,,l,0,"[""0.509"",""0.471"",""0.741"",""0.908""]","[0,1,1,1]",0,32,32,32,1,0,0,,,1,FALSE,5.0649,,,,,,,,,,,,,,,,,,,,,,,,,,,,,
,606e22e5312c3b75b4de9c36,001,2022-04-28_21h14.11.190,classification_task,2021.2.3,MacIntel,60.0024001,606e22e5312c3b75b4de9c36,626b377229c10585ec392f8a,626b3b83ff0b7ef5dc450f80,,,,,,,,,,,,,,,,,,,,,,,a,0,"[""0.079"",""0.511"",""0.562"",""0.794""]","[1,0,1,1]",0,33,33,33,1,1,1,,,1,FALSE,0.7009,,,,,,,,,,,,,,,,,,,,,,,,,,,,,
,606e22e5312c3b75b4de9c36,001,2022-04-28_21h14.11.190,classification_task,2021.2.3,MacIntel,60.0024001,606e22e5312c3b75b4de9c36,626b377229c10585ec392f8a,626b3b83ff0b7ef5dc450f80,,,,,,,,,,,,,,,,,,,,,,,a,1,"[""0.203"",""0.471"",""0.509"",""0.908""]","[1,1,0,1]",0,34,34,34,1,0,0,,,1,FALSE,0.6958,,,,,,,,,,,,,,,,,,,,,,,,,,,,,
,606e22e5312c3b75b4de9c36,001,2022-04-28_21h14.11.190,classification_task,2021.2.3,MacIntel,60.0024001,606e22e5312c3b75b4de9c36,626b377229c10585ec392f8a,626b3b83ff0b7ef5dc450f80,,,,,,,,,,,,,,,,,,,,,,,l,0,"[""0.166"",""0.037"",""0.856"",""0.949""]","[1,0,1,1]",0,35,35,35,1,0,1,,,1,FALSE,1.7875,,,,,,,,,,,,,,,,,,,,,,,,,,,,,
,606e22e5312c3b75b4de9c36,001,2022-04-28_21h14.11.190,classification_task,2021.2.3,MacIntel,60.0024001,606e22e5312c3b75b4de9c36,626b377229c10585ec392f8a,626b3b83ff0b7ef5dc450f80,,,,,,,,,,,,,,,,,,,,,,,a,1,"[""0.203"",""0.037"",""0.741"",""0.908""]","[1,0,1,1]",0,36,36,36,1,0,0,,,1,FALSE,1.455,,,,,,,,,,,,,,,,,,,,,,,,,,,,,
,606e22e5312c3b75b4de9c36,001,2022-04-28_21h14.11.190,classification_task,2021.2.3,MacIntel,60.0024001,606e22e5312c3b75b4de9c36,626b377229c10585ec392f8a,626b3b83ff0b7ef5dc450f80,,,,,,,,,,,,,,,,,,,,,,,a,0,"[""0.131"",""0.523"",""0.623"",""0.692""]","[1,0,1,1]",0,37,37,37,1,1,0,,,1,FALSE,0.4806,,,,,,,,,,,,,,,,,,,,,,,,,,,,,
,606e22e5312c3b75b4de9c36,001,2022-04-28_21h14.11.190,classification_task,2021.2.3,MacIntel,60.0024001,606e22e5312c3b75b4de9c36,626b377229c10585ec392f8a,626b3b83ff0b7ef5dc450f80,,,,,,,,,,,,,,,,,,,,,,,a,0,"[""0.079"",""0.294"",""0.509"",""0.794""]","[1,1,0,1]",0,38,38,38,1,1,1,,,1,FALSE,1.2307,,,,,,,,,,,,,,,,,,,,,,,,,,,,,
,606e22e5312c3b75b4de9c36,001,2022-04-28_21h14.11.190,classification_task,2021.2.3,MacIntel,60.0024001,606e22e5312c3b75b4de9c36,626b377229c10585ec392f8a,626b3b83ff0b7ef5dc450f80,,,,,,,,,,,,,,,,,,,,,,,l,0,"[""0.166"",""0.334"",""0.856"",""0.041""]","[1,1,1,0]",0,39,39,39,1,0,1,,,1,FALSE,0.4462,,,,,,,,,,,,,,,,,,,,,,,,,,,,,
,606e22e5312c3b75b4de9c36,001,2022-04-28_21h14.11.190,classification_task,2021.2.3,MacIntel,60.0024001,606e22e5312c3b75b4de9c36,626b377229c10585ec392f8a,626b3b83ff0b7ef5dc450f80,,,,,,,,,,,,,,,,,,,,,,,l,1,"[""0.527"",""0.294"",""0.562"",""0.794""]","[0,1,1,1]",0,40,40,40,1,1,1,,,1,FALSE,0.7668,,,,,,,,,,,,,,,,,,,,,,,,,,,,,
,606e22e5312c3b75b4de9c36,001,2022-04-28_21h14.11.190,classification_task,2021.2.3,MacIntel,60.0024001,606e22e5312c3b75b4de9c36,626b377229c10585ec392f8a,626b3b83ff0b7ef5dc450f80,,,,,,,,,,,,,,,,,,,,,,,l,1,"[""0.079"",""0.294"",""0.562"",""0.511""]","[1,1,1,0]",0,41,41,41,1,1,1,,,1,FALSE,0.9153,,,,,,,,,,,,,,,,,,,,,,,,,,,,,
,606e22e5312c3b75b4de9c36,001,2022-04-28_21h14.11.190,classification_task,2021.2.3,MacIntel,60.0024001,606e22e5312c3b75b4de9c36,626b377229c10585ec392f8a,626b3b83ff0b7ef5dc450f80,,,,,,,,,,,,,,,,,,,,,,,l,1,"[""0.040"",""0.399"",""0.623"",""0.692""]","[0,1,1,1]",0,42,42,42,1,1,0,,,1,FALSE,1.6637,,,,,,,,,,,,,,,,,,,,,,,,,,,,,
,606e22e5312c3b75b4de9c36,001,2022-04-28_21h14.11.190,classification_task,2021.2.3,MacIntel,60.0024001,606e22e5312c3b75b4de9c36,626b377229c10585ec392f8a,626b3b83ff0b7ef5dc450f80,,,,,,,,,,,,,,,,,,,,,,,l,1,"[""0.131"",""0.399"",""0.623"",""0.511""]","[1,1,1,0]",0,43,43,43,1,1,0,,,1,FALSE,0.8663,,,,,,,,,,,,,,,,,,,,,,,,,,,,,
,606e22e5312c3b75b4de9c36,001,2022-04-28_21h14.11.190,classification_task,2021.2.3,MacIntel,60.0024001,606e22e5312c3b75b4de9c36,626b377229c10585ec392f8a,626b3b83ff0b7ef5dc450f80,,,,,,,,,,,,,,,,,,,,,,,a,1,"[""0.166"",""0.334"",""0.517"",""0.949""]","[1,1,0,1]",0,44,44,44,1,0,1,,,1,FALSE,1.0638,,,,,,,,,,,,,,,,,,,,,,,,,,,,,
,606e22e5312c3b75b4de9c36,001,2022-04-28_21h14.11.190,classification_task,2021.2.3,MacIntel,60.0024001,606e22e5312c3b75b4de9c36,626b377229c10585ec392f8a,626b3b83ff0b7ef5dc450f80,,,,,,,,,,,,,,,,,,,,,,,l,1,"[""0.131"",""0.399"",""0.042"",""0.692""]","[1,1,0,1]",0,45,45,45,1,1,0,,,1,FALSE,1.747,,,,,,,,,,,,,,,,,,,,,,,,,,,,,
,606e22e5312c3b75b4de9c36,001,2022-04-28_21h14.11.190,classification_task,2021.2.3,MacIntel,60.0024001,606e22e5312c3b75b4de9c36,626b377229c10585ec392f8a,626b3b83ff0b7ef5dc450f80,,,,,,,,,,,,,,,,,,,,,,,l,0,"[""0.203"",""0.471"",""0.741"",""0.042""]","[1,1,1,0]",0,46,46,46,1,0,0,,,1,FALSE,1.5984,,,,,,,,,,,,,,,,,,,,,,,,,,,,,
,606e22e5312c3b75b4de9c36,001,2022-04-28_21h14.11.190,classification_task,2021.2.3,MacIntel,60.0024001,606e22e5312c3b75b4de9c36,626b377229c10585ec392f8a,626b3b83ff0b7ef5dc450f80,,,,,,,,,,,,,,,,,,,,,,,l,0,"[""0.511"",""0.334"",""0.856"",""0.949""]","[0,1,1,1]",0,47,47,47,1,0,1,,,1,FALSE,0.698,,,,,,,,,,,,,,,,,,,,,,,,,,,,,
,606e22e5312c3b75b4de9c36,001,2022-04-28_21h14.11.190,classification_task,2021.2.3,MacIntel,60.0024001,606e22e5312c3b75b4de9c36,626b377229c10585ec392f8a,626b3b83ff0b7ef5dc450f80,,,,,,,,,,,,,,,,,,,,,,,a,0,"[""0.131"",""0.509"",""0.623"",""0.692""]","[1,0,1,1]",0,48,48,48,1,1,0,,,1,FALSE,0.2634,,,,,,,,,,,,,,,,,,,,,,,,,,,,,
,606e22e5312c3b75b4de9c36,001,2022-04-28_21h14.11.190,classification_task,2021.2.3,MacIntel,60.0024001,606e22e5312c3b75b4de9c36,626b377229c10585ec392f8a,626b3b83ff0b7ef5dc450f80,,,,,,,,,,,,,,,,,,,,,,,l,1,"[""0.079"",""0.259"",""0.562"",""0.794""]","[1,0,1,1]",0,49,49,49,1,1,1,,,1,FALSE,0.2994,,,,,,,,,,,,,,,,,,,,,,,,,,,,,
,606e22e5312c3b75b4de9c36,001,2022-04-28_21h14.11.190,classification_task,2021.2.3,MacIntel,60.0024001,606e22e5312c3b75b4de9c36,626b377229c10585ec392f8a,626b3b83ff0b7ef5dc450f80,,,,,,,,,,,,,,,,,,,,,,,l,1,"[""0.079"",""0.294"",""0.562"",""0.509""]","[1,1,1,0]",0,50,50,50,1,1,1,,,1,FALSE,1.8284,,,,,,,,,,,,,,,,,,,,,,,,,,,,,
,606e22e5312c3b75b4de9c36,001,2022-04-28_21h14.11.190,classification_task,2021.2.3,MacIntel,60.0024001,606e22e5312c3b75b4de9c36,626b377229c10585ec392f8a,626b3b83ff0b7ef5dc450f80,,,,,,,,,,,,,,,,,,,,,,,l,1,"[""0.131"",""0.399"",""0.623"",""0.517""]","[1,1,1,0]",0,51,51,51,1,1,0,,,1,FALSE,1.4003,,,,,,,,,,,,,,,,,,,,,,,,,,,,,
,606e22e5312c3b75b4de9c36,001,2022-04-28_21h14.11.190,classification_task,2021.2.3,MacIntel,60.0024001,606e22e5312c3b75b4de9c36,626b377229c10585ec392f8a,626b3b83ff0b7ef5dc450f80,,,,,,,,,,,,,,,,,,,,,,,a,1,"[""0.166"",""0.334"",""0.856"",""0.248""]","[1,1,1,0]",0,52,52,52,1,0,1,,,1,FALSE,1.1129,,,,,,,,,,,,,,,,,,,,,,,,,,,,,
,606e22e5312c3b75b4de9c36,001,2022-04-28_21h14.11.190,classification_task,2021.2.3,MacIntel,60.0024001,606e22e5312c3b75b4de9c36,626b377229c10585ec392f8a,626b3b83ff0b7ef5dc450f80,,,,,,,,,,,,,,,,,,,,,,,l,0,"[""0.203"",""0.042"",""0.741"",""0.908""]","[1,0,1,1]",0,53,53,53,1,0,0,,,1,FALSE,2.0974,,,,,,,,,,,,,,,,,,,,,,,,,,,,,
,606e22e5312c3b75b4de9c36,001,2022-04-28_21h14.11.190,classification_task,2021.2.3,MacIntel,60.0024001,606e22e5312c3b75b4de9c36,626b377229c10585ec392f8a,626b3b83ff0b7ef5dc450f80,,,,,,,,,,,,,,,,,,,,,,,a,1,"[""0.203"",""0.471"",""0.741"",""0.037""]","[1,1,1,0]",0,54,54,54,1,0,0,,,1,FALSE,0.5681,,,,,,,,,,,,,,,,,,,,,,,,,,,,,
,606e22e5312c3b75b4de9c36,001,2022-04-28_21h14.11.190,classification_task,2021.2.3,MacIntel,60.0024001,606e22e5312c3b75b4de9c36,626b377229c10585ec392f8a,626b3b83ff0b7ef5dc450f80,,,,,,,,,,,,,,,,,,,,,,,a,0,"[""0.523"",""0.399"",""0.623"",""0.692""]","[0,1,1,1]",0,55,55,55,1,1,0,,,1,FALSE,1.2824,,,,,,,,,,,,,,,,,,,,,,,,,,,,,
,606e22e5312c3b75b4de9c36,001,2022-04-28_21h14.11.190,classification_task,2021.2.3,MacIntel,60.0024001,606e22e5312c3b75b4de9c36,626b377229c10585ec392f8a,626b3b83ff0b7ef5dc450f80,,,,,,,,,,,,,,,,,,,,,,,a,0,"[""0.131"",""0.399"",""0.527"",""0.692""]","[1,1,0,1]",0,56,56,56,1,1,0,,,1,FALSE,0.3687,,,,,,,,,,,,,,,,,,,,,,,,,,,,,
,606e22e5312c3b75b4de9c36,001,2022-04-28_21h14.11.190,classification_task,2021.2.3,MacIntel,60.0024001,606e22e5312c3b75b4de9c36,626b377229c10585ec392f8a,626b3b83ff0b7ef5dc450f80,,,,,,,,,,,,,,,,,,,,,,,a,0,"[""0.079"",""0.294"",""0.523"",""0.794""]","[1,1,0,1]",0,57,57,57,1,1,1,,,1,FALSE,0.3308,,,,,,,,,,,,,,,,,,,,,,,,,,,,,
,606e22e5312c3b75b4de9c36,001,2022-04-28_21h14.11.190,classification_task,2021.2.3,MacIntel,60.0024001,606e22e5312c3b75b4de9c36,626b377229c10585ec392f8a,626b3b83ff0b7ef5dc450f80,,,,,,,,,,,,,,,,,,,,,,,l,0,"[""0.031"",""0.334"",""0.856"",""0.949""]","[0,1,1,1]",0,58,58,58,1,0,1,,,1,FALSE,0.2443,,,,,,,,,,,,,,,,,,,,,,,,,,,,,
,606e22e5312c3b75b4de9c36,001,2022-04-28_21h14.11.190,classification_task,2021.2.3,MacIntel,60.0024001,606e22e5312c3b75b4de9c36,626b377229c10585ec392f8a,626b3b83ff0b7ef5dc450f80,,,,,,,,,,,,,,,,,,,,,,,a,1,"[""0.166"",""0.334"",""0.527"",""0.949""]","[1,1,0,1]",0,59,59,59,1,0,1,,,1,FALSE,0.2627,,,,,,,,,,,,,,,,,,,,,,,,,,,,,
,606e22e5312c3b75b4de9c36,001,2022-04-28_21h14.11.190,classification_task,2021.2.3,MacIntel,60.0024001,606e22e5312c3b75b4de9c36,626b377229c10585ec392f8a,626b3b83ff0b7ef5dc450f80,,,,,,,,,,,,,,,,,,,,,,,l,0,"[""0.041"",""0.471"",""0.741"",""0.908""]","[0,1,1,1]",0,60,60,60,1,0,0,,,1,FALSE,2.1311,,,,,,,,,,,,,,,,,,,,,,,,,,,,,
,606e22e5312c3b75b4de9c36,001,2022-04-28_21h14.11.190,classification_task,2021.2.3,MacIntel,60.0024001,606e22e5312c3b75b4de9c36,626b377229c10585ec392f8a,626b3b83ff0b7ef5dc450f80,,,,,,,,,,,,,,,,,,,,,,,a,0,"[""0.259"",""0.294"",""0.562"",""0.794""]","[0,1,1,1]",0,61,61,61,1,1,1,,,1,FALSE,0.2511,,,,,,,,,,,,,,,,,,,,,,,,,,,,,
,606e22e5312c3b75b4de9c36,001,2022-04-28_21h14.11.190,classification_task,2021.2.3,MacIntel,60.0024001,606e22e5312c3b75b4de9c36,626b377229c10585ec392f8a,626b3b83ff0b7ef5dc450f80,,,,,,,,,,,,,,,,,,,,,,,l,0,"[""0.203"",""0.471"",""0.250"",""0.908""]","[1,1,0,1]",0,62,62,62,1,0,0,,,1,FALSE,0.5284,,,,,,,,,,,,,,,,,,,,,,,,,,,,,
,606e22e5312c3b75b4de9c36,001,2022-04-28_21h14.11.190,classification_task,2021.2.3,MacIntel,60.0024001,606e22e5312c3b75b4de9c36,626b377229c10585ec392f8a,626b3b83ff0b7ef5dc450f80,,,,,,,,,,,,,,,,,,,,,,,l,0,"[""0.166"",""0.248"",""0.856"",""0.949""]","[1,0,1,1]",0,63,63,63,1,0,1,,,1,FALSE,1.066,,,,,,,,,,,,,,,,,,,,,,,,,,,,,
,606e22e5312c3b75b4de9c36,001,2022-04-28_21h14.11.190,classification_task,2021.2.3,MacIntel,60.0024001,606e22e5312c3b75b4de9c36,626b377229c10585ec392f8a,626b3b83ff0b7ef5dc450f80,,,,,,,,,,,,,,,,,,,,,,,,,,,,,,,,,,,,,,,0, ,,0,2.027713477,160.3724,0,1,1,1,1,2,2,,,,,,,,,,,,,,,,
,606e22e5312c3b75b4de9c36,001,2022-04-28_21h14.11.190,classification_task,2021.2.3,MacIntel,60.0024001,606e22e5312c3b75b4de9c36,626b377229c10585ec392f8a,626b3b83ff0b7ef5dc450f80,,,,,,,,,,,,,,,,,,,,,,,,,,,,,,,,,,,,,,,1,  ,,0,5.12527098,163.1209,0,1,1,1,1,2,2,,,,,,,,,,,,,,,,
,606e22e5312c3b75b4de9c36,001,2022-04-28_21h14.11.190,classification_task,2021.2.3,MacIntel,60.0024001,606e22e5312c3b75b4de9c36,626b377229c10585ec392f8a,626b3b83ff0b7ef5dc450f80,,,,,,,,,,,,,,,,,,,,,,,,,,,,,,,,,,,,,,,2,  ,,0,1.019574882,165.0397,0,1,1,1,1,2,2,,,,,,,,,,,,,,,,
,606e22e5312c3b75b4de9c36,001,2022-04-28_21h14.11.190,classification_task,2021.2.3,MacIntel,60.0024001,606e22e5312c3b75b4de9c36,626b377229c10585ec392f8a,626b3b83ff0b7ef5dc450f80,,,,,,,,,,,,,,,,,,,,,,,,,,,,,,,,,,,,,,,,,,,,,0,1,1,1,1,,2,,,,,,,,,,,,,,,,
,606e22e5312c3b75b4de9c36,001,2022-04-28_21h14.11.190,classification_task,2021.2.3,MacIntel,60.0024001,606e22e5312c3b75b4de9c36,626b377229c10585ec392f8a,626b3b83ff0b7ef5dc450f80,,,,,,,,,,,,,,,,,,,,,space,6.7905,l,0,"[""0.203"",""0.527"",""0.741"",""0.908""]","[1,0,1,1]",0,0,0,0,1,0,0,,,1,FALSE,2.0499,,,,,,,,,,,,,,,,,,,,,,,,,,,,,
,606e22e5312c3b75b4de9c36,001,2022-04-28_21h14.11.190,classification_task,2021.2.3,MacIntel,60.0024001,606e22e5312c3b75b4de9c36,626b377229c10585ec392f8a,626b3b83ff0b7ef5dc450f80,,,,,,,,,,,,,,,,,,,,,,,l,0,"[""0.523"",""0.471"",""0.741"",""0.908""]","[0,1,1,1]",0,1,1,1,1,0,0,,,1,FALSE,2.5286,,,,,,,,,,,,,,,,,,,,,,,,,,,,,
,606e22e5312c3b75b4de9c36,001,2022-04-28_21h14.11.190,classification_task,2021.2.3,MacIntel,60.0024001,606e22e5312c3b75b4de9c36,626b377229c10585ec392f8a,626b3b83ff0b7ef5dc450f80,,,,,,,,,,,,,,,,,,,,,,,a,0,"[""0.131"",""0.399"",""0.037"",""0.692""]","[1,1,0,1]",0,2,2,2,1,1,0,,,1,FALSE,2.5559,,,,,,,,,,,,,,,,,,,,,,,,,,,,,
,606e22e5312c3b75b4de9c36,001,2022-04-28_21h14.11.190,classification_task,2021.2.3,MacIntel,60.0024001,606e22e5312c3b75b4de9c36,626b377229c10585ec392f8a,626b3b83ff0b7ef5dc450f80,,,,,,,,,,,,,,,,,,,,,,,a,1,"[""0.515"",""0.334"",""0.856"",""0.949""]","[0,1,1,1]",0,3,3,3,1,0,1,,,1,FALSE,1.8689,,,,,,,,,,,,,,,,,,,,,,,,,,,,,
,606e22e5312c3b75b4de9c36,001,2022-04-28_21h14.11.190,classification_task,2021.2.3,MacIntel,60.0024001,606e22e5312c3b75b4de9c36,626b377229c10585ec392f8a,626b3b83ff0b7ef5dc450f80,,,,,,,,,,,,,,,,,,,,,,,a,0,"[""0.079"",""0.294"",""0.037"",""0.794""]","[1,1,0,1]",0,4,4,4,1,1,1,,,1,FALSE,1.415,,,,,,,,,,,,,,,,,,,,,,,,,,,,,
,606e22e5312c3b75b4de9c36,001,2022-04-28_21h14.11.190,classification_task,2021.2.3,MacIntel,60.0024001,606e22e5312c3b75b4de9c36,626b377229c10585ec392f8a,626b3b83ff0b7ef5dc450f80,,,,,,,,,,,,,,,,,,,,,,,l,1,"[""0.079"",""0.294"",""0.562"",""0.041""]","[1,1,1,0]",0,5,5,5,1,1,1,,,1,FALSE,1.2863,,,,,,,,,,,,,,,,,,,,,,,,,,,,,
,606e22e5312c3b75b4de9c36,001,2022-04-28_21h14.11.190,classification_task,2021.2.3,MacIntel,60.0024001,606e22e5312c3b75b4de9c36,626b377229c10585ec392f8a,626b3b83ff0b7ef5dc450f80,,,,,,,,,,,,,,,,,,,,,,,a,0,"[""0.509"",""0.294"",""0.562"",""0.794""]","[0,1,1,1]",0,6,6,6,1,1,1,,,1,FALSE,1.5816,,,,,,,,,,,,,,,,,,,,,,,,,,,,,
,606e22e5312c3b75b4de9c36,001,2022-04-28_21h14.11.190,classification_task,2021.2.3,MacIntel,60.0024001,606e22e5312c3b75b4de9c36,626b377229c10585ec392f8a,626b3b83ff0b7ef5dc450f80,,,,,,,,,,,,,,,,,,,,,,,a,0,"[""0.508"",""0.399"",""0.623"",""0.692""]","[0,1,1,1]",0,7,7,7,1,1,0,,,1,FALSE,1.6136,,,,,,,,,,,,,,,,,,,,,,,,,,,,,
,606e22e5312c3b75b4de9c36,001,2022-04-28_21h14.11.190,classification_task,2021.2.3,MacIntel,60.0024001,606e22e5312c3b75b4de9c36,626b377229c10585ec392f8a,626b3b83ff0b7ef5dc450f80,,,,,,,,,,,,,,,,,,,,,,,l,1,"[""0.131"",""0.399"",""0.623"",""0.515""]","[1,1,1,0]",0,8,8,8,1,1,0,,,1,FALSE,0.9153,,,,,,,,,,,,,,,,,,,,,,,,,,,,,
,606e22e5312c3b75b4de9c36,001,2022-04-28_21h14.11.190,classification_task,2021.2.3,MacIntel,60.0024001,606e22e5312c3b75b4de9c36,626b377229c10585ec392f8a,626b3b83ff0b7ef5dc450f80,,,,,,,,,,,,,,,,,,,,,,,l,1,"[""0.079"",""0.041"",""0.562"",""0.794""]","[1,0,1,1]",0,9,9,9,1,1,1,,,1,FALSE,0.8978,,,,,,,,,,,,,,,,,,,,,,,,,,,,,
,606e22e5312c3b75b4de9c36,001,2022-04-28_21h14.11.190,classification_task,2021.2.3,MacIntel,60.0024001,606e22e5312c3b75b4de9c36,626b377229c10585ec392f8a,626b3b83ff0b7ef5dc450f80,,,,,,,,,,,,,,,,,,,,,,,l,0,"[""0.203"",""0.471"",""0.248"",""0.908""]","[1,1,0,1]",0,10,10,10,1,0,0,,,1,FALSE,1.0476,,,,,,,,,,,,,,,,,,,,,,,,,,,,,
,606e22e5312c3b75b4de9c36,001,2022-04-28_21h14.11.190,classification_task,2021.2.3,MacIntel,60.0024001,606e22e5312c3b75b4de9c36,626b377229c10585ec392f8a,626b3b83ff0b7ef5dc450f80,,,,,,,,,,,,,,,,,,,,,,,l,0,"[""0.166"",""0.334"",""0.856"",""0.259""]","[1,1,1,0]",0,11,11,11,1,0,1,,,1,FALSE,1.1618,,,,,,,,,,,,,,,,,,,,,,,,,,,,,
,606e22e5312c3b75b4de9c36,001,2022-04-28_21h14.11.190,classification_task,2021.2.3,MacIntel,60.0024001,606e22e5312c3b75b4de9c36,626b377229c10585ec392f8a,626b3b83ff0b7ef5dc450f80,,,,,,,,,,,,,,,,,,,,,,,a,1,"[""0.166"",""0.334"",""0.527"",""0.949""]","[1,1,0,1]",0,12,12,12,1,0,1,,,1,FALSE,1.2975,,,,,,,,,,,,,,,,,,,,,,,,,,,,,
,606e22e5312c3b75b4de9c36,001,2022-04-28_21h14.11.190,classification_task,2021.2.3,MacIntel,60.0024001,606e22e5312c3b75b4de9c36,626b377229c10585ec392f8a,626b3b83ff0b7ef5dc450f80,,,,,,,,,,,,,,,,,,,,,,,l,0,"[""0.203"",""0.471"",""0.741"",""0.250""]","[1,1,1,0]",0,13,13,13,1,0,0,,,1,FALSE,1.7172,,,,,,,,,,,,,,,,,,,,,,,,,,,,,
,606e22e5312c3b75b4de9c36,001,2022-04-28_21h14.11.190,classification_task,2021.2.3,MacIntel,60.0024001,606e22e5312c3b75b4de9c36,626b377229c10585ec392f8a,626b3b83ff0b7ef5dc450f80,,,,,,,,,,,,,,,,,,,,,,,a,0,"[""0.131"",""0.248"",""0.623"",""0.692""]","[1,0,1,1]",0,14,14,14,1,1,0,,,1,FALSE,1.1656,,,,,,,,,,,,,,,,,,,,,,,,,,,,,
,606e22e5312c3b75b4de9c36,001,2022-04-28_21h14.11.190,classification_task,2021.2.3,MacIntel,60.0024001,606e22e5312c3b75b4de9c36,626b377229c10585ec392f8a,626b3b83ff0b7ef5dc450f80,,,,,,,,,,,,,,,,,,,,,,,a,1,"[""0.166"",""0.523"",""0.856"",""0.949""]","[1,0,1,1]",0,15,15,15,1,0,1,,,1,FALSE,1.4481,,,,,,,,,,,,,,,,,,,,,,,,,,,,,
,606e22e5312c3b75b4de9c36,001,2022-04-28_21h14.11.190,classification_task,2021.2.3,MacIntel,60.0024001,606e22e5312c3b75b4de9c36,626b377229c10585ec392f8a,626b3b83ff0b7ef5dc450f80,,,,,,,,,,,,,,,,,,,,,,,a,1,"[""0.166"",""0.334"",""0.856"",""0.250""]","[1,1,1,0]",0,16,16,16,1,0,1,,,1,FALSE,1.4328,,,,,,,,,,,,,,,,,,,,,,,,,,,,,
,606e22e5312c3b75b4de9c36,001,2022-04-28_21h14.11.190,classification_task,2021.2.3,MacIntel,60.0024001,606e22e5312c3b75b4de9c36,626b377229c10585ec392f8a,626b3b83ff0b7ef5dc450f80,,,,,,,,,,,,,,,,,,,,,,,a,0,"[""0.131"",""0.037"",""0.623"",""0.692""]","[1,0,1,1]",0,17,17,17,1,1,0,,,1,FALSE,1.5637,,,,,,,,,,,,,,,,,,,,,,,,,,,,,
,606e22e5312c3b75b4de9c36,001,2022-04-28_21h14.11.190,classification_task,2021.2.3,MacIntel,60.0024001,606e22e5312c3b75b4de9c36,626b377229c10585ec392f8a,626b3b83ff0b7ef5dc450f80,,,,,,,,,,,,,,,,,,,,,,,l,0,"[""0.523"",""0.334"",""0.856"",""0.949""]","[0,1,1,1]",0,18,18,18,1,0,1,,,1,FALSE,1.2215,,,,,,,,,,,,,,,,,,,,,,,,,,,,,
,606e22e5312c3b75b4de9c36,001,2022-04-28_21h14.11.190,classification_task,2021.2.3,MacIntel,60.0024001,606e22e5312c3b75b4de9c36,626b377229c10585ec392f8a,626b3b83ff0b7ef5dc450f80,,,,,,,,,,,,,,,,,,,,,,,l,1,"[""0.131"",""0.399"",""0.623"",""0.517""]","[1,1,1,0]",0,19,19,19,1,1,0,,,1,FALSE,1.4126,,,,,,,,,,,,,,,,,,,,,,,,,,,,,
,606e22e5312c3b75b4de9c36,001,2022-04-28_21h14.11.190,classification_task,2021.2.3,MacIntel,60.0024001,606e22e5312c3b75b4de9c36,626b377229c10585ec392f8a,626b3b83ff0b7ef5dc450f80,,,,,,,,,,,,,,,,,,,,,,,a,0,"[""0.517"",""0.399"",""0.623"",""0.692""]","[0,1,1,1]",0,20,20,20,1,1,0,,,1,FALSE,1.4803,,,,,,,,,,,,,,,,,,,,,,,,,,,,,
,606e22e5312c3b75b4de9c36,001,2022-04-28_21h14.11.190,classification_task,2021.2.3,MacIntel,60.0024001,606e22e5312c3b75b4de9c36,626b377229c10585ec392f8a,626b3b83ff0b7ef5dc450f80,,,,,,,,,,,,,,,,,,,,,,,l,1,"[""0.131"",""0.399"",""0.515"",""0.692""]","[1,1,0,1]",0,21,21,21,1,1,0,,,1,FALSE,1.2149,,,,,,,,,,,,,,,,,,,,,,,,,,,,,
,606e22e5312c3b75b4de9c36,001,2022-04-28_21h14.11.190,classification_task,2021.2.3,MacIntel,60.0024001,606e22e5312c3b75b4de9c36,626b377229c10585ec392f8a,626b3b83ff0b7ef5dc450f80,,,,,,,,,,,,,,,,,,,,,,,l,0,"[""0.166"",""0.334"",""0.248"",""0.949""]","[1,1,0,1]",0,22,22,22,1,0,1,,,1,FALSE,1.5299,,,,,,,,,,,,,,,,,,,,,,,,,,,,,
,606e22e5312c3b75b4de9c36,001,2022-04-28_21h14.11.190,classification_task,2021.2.3,MacIntel,60.0024001,606e22e5312c3b75b4de9c36,626b377229c10585ec392f8a,626b3b83ff0b7ef5dc450f80,,,,,,,,,,,,,,,,,,,,,,,a,0,"[""0.079"",""0.294"",""0.517"",""0.794""]","[1,1,0,1]",0,23,23,23,1,1,1,,,1,FALSE,2.8559,,,,,,,,,,,,,,,,,,,,,,,,,,,,,
,606e22e5312c3b75b4de9c36,001,2022-04-28_21h14.11.190,classification_task,2021.2.3,MacIntel,60.0024001,606e22e5312c3b75b4de9c36,626b377229c10585ec392f8a,626b3b83ff0b7ef5dc450f80,,,,,,,,,,,,,,,,,,,,,,,l,0,"[""0.031"",""0.471"",""0.741"",""0.908""]","[0,1,1,1]",0,24,24,24,1,0,0,,,1,FALSE,2.5362,,,,,,,,,,,,,,,,,,,,,,,,,,,,,
,606e22e5312c3b75b4de9c36,001,2022-04-28_21h14.11.190,classification_task,2021.2.3,MacIntel,60.0024001,606e22e5312c3b75b4de9c36,626b377229c10585ec392f8a,626b3b83ff0b7ef5dc450f80,,,,,,,,,,,,,,,,,,,,,,,a,1,"[""0.203"",""0.471"",""0.741"",""0.250""]","[1,1,1,0]",0,25,25,25,1,0,0,,,1,FALSE,1.5315,,,,,,,,,,,,,,,,,,,,,,,,,,,,,
,606e22e5312c3b75b4de9c36,001,2022-04-28_21h14.11.190,classification_task,2021.2.3,MacIntel,60.0024001,606e22e5312c3b75b4de9c36,626b377229c10585ec392f8a,626b3b83ff0b7ef5dc450f80,,,,,,,,,,,,,,,,,,,,,,,a,1,"[""0.203"",""0.471"",""0.042"",""0.908""]","[1,1,0,1]",0,26,26,26,1,0,0,,,1,FALSE,1.2518,,,,,,,,,,,,,,,,,,,,,,,,,,,,,
,606e22e5312c3b75b4de9c36,001,2022-04-28_21h14.11.190,classification_task,2021.2.3,MacIntel,60.0024001,606e22e5312c3b75b4de9c36,626b377229c10585ec392f8a,626b3b83ff0b7ef5dc450f80,,,,,,,,,,,,,,,,,,,,,,,l,1,"[""0.079"",""0.250"",""0.562"",""0.794""]","[1,0,1,1]",0,27,27,27,1,1,1,,,1,FALSE,0.8646,,,,,,,,,,,,,,,,,,,,,,,,,,,,,
,606e22e5312c3b75b4de9c36,001,2022-04-28_21h14.11.190,classification_task,2021.2.3,MacIntel,60.0024001,606e22e5312c3b75b4de9c36,626b377229c10585ec392f8a,626b3b83ff0b7ef5dc450f80,,,,,,,,,,,,,,,,,,,,,,,a,1,"[""0.203"",""0.511"",""0.741"",""0.908""]","[1,0,1,1]",0,28,28,28,1,0,0,,,1,FALSE,1.0651,,,,,,,,,,,,,,,,,,,,,,,,,,,,,
,606e22e5312c3b75b4de9c36,001,2022-04-28_21h14.11.190,classification_task,2021.2.3,MacIntel,60.0024001,606e22e5312c3b75b4de9c36,626b377229c10585ec392f8a,626b3b83ff0b7ef5dc450f80,,,,,,,,,,,,,,,,,,,,,,,a,1,"[""0.166"",""0.511"",""0.856"",""0.949""]","[1,0,1,1]",0,29,29,29,1,0,1,,,1,FALSE,1.1504,,,,,,,,,,,,,,,,,,,,,,,,,,,,,
,606e22e5312c3b75b4de9c36,001,2022-04-28_21h14.11.190,classification_task,2021.2.3,MacIntel,60.0024001,606e22e5312c3b75b4de9c36,626b377229c10585ec392f8a,626b3b83ff0b7ef5dc450f80,,,,,,,,,,,,,,,,,,,,,,,a,0,"[""0.079"",""0.294"",""0.562"",""0.248""]","[1,1,1,0]",0,30,30,30,1,1,1,,,1,FALSE,1.5341,,,,,,,,,,,,,,,,,,,,,,,,,,,,,
,606e22e5312c3b75b4de9c36,001,2022-04-28_21h14.11.190,classification_task,2021.2.3,MacIntel,60.0024001,606e22e5312c3b75b4de9c36,626b377229c10585ec392f8a,626b3b83ff0b7ef5dc450f80,,,,,,,,,,,,,,,,,,,,,,,l,1,"[""0.515"",""0.294"",""0.562"",""0.794""]","[0,1,1,1]",0,31,31,31,1,1,1,,,1,FALSE,1.3805,,,,,,,,,,,,,,,,,,,,,,,,,,,,,
,606e22e5312c3b75b4de9c36,001,2022-04-28_21h14.11.190,classification_task,2021.2.3,MacIntel,60.0024001,606e22e5312c3b75b4de9c36,626b377229c10585ec392f8a,626b3b83ff0b7ef5dc450f80,,,,,,,,,,,,,,,,,,,,,,,l,0,"[""0.203"",""0.471"",""0.508"",""0.908""]","[1,1,0,1]",0,32,32,32,1,0,0,,,1,FALSE,1.4475,,,,,,,,,,,,,,,,,,,,,,,,,,,,,
,606e22e5312c3b75b4de9c36,001,2022-04-28_21h14.11.190,classification_task,2021.2.3,MacIntel,60.0024001,606e22e5312c3b75b4de9c36,626b377229c10585ec392f8a,626b3b83ff0b7ef5dc450f80,,,,,,,,,,,,,,,,,,,,,,,l,0,"[""0.166"",""0.523"",""0.856"",""0.949""]","[1,0,1,1]",0,33,33,33,1,0,1,,,1,FALSE,1.8015,,,,,,,,,,,,,,,,,,,,,,,,,,,,,
,606e22e5312c3b75b4de9c36,001,2022-04-28_21h14.11.190,classification_task,2021.2.3,MacIntel,60.0024001,606e22e5312c3b75b4de9c36,626b377229c10585ec392f8a,626b3b83ff0b7ef5dc450f80,,,,,,,,,,,,,,,,,,,,,,,a,1,"[""0.166"",""0.334"",""0.515"",""0.949""]","[1,1,0,1]",0,34,34,34,1,0,1,,,1,FALSE,1.5302,,,,,,,,,,,,,,,,,,,,,,,,,,,,,
,606e22e5312c3b75b4de9c36,001,2022-04-28_21h14.11.190,classification_task,2021.2.3,MacIntel,60.0024001,606e22e5312c3b75b4de9c36,626b377229c10585ec392f8a,626b3b83ff0b7ef5dc450f80,,,,,,,,,,,,,,,,,,,,,,,a,1,"[""0.203"",""0.250"",""0.741"",""0.908""]","[1,0,1,1]",0,35,35,35,1,0,0,,,1,FALSE,1.7333,,,,,,,,,,,,,,,,,,,,,,,,,,,,,
,606e22e5312c3b75b4de9c36,001,2022-04-28_21h14.11.190,classification_task,2021.2.3,MacIntel,60.0024001,606e22e5312c3b75b4de9c36,626b377229c10585ec392f8a,626b3b83ff0b7ef5dc450f80,,,,,,,,,,,,,,,,,,,,,,,a,1,"[""0.515"",""0.334"",""0.856"",""0.949""]","[0,1,1,1]",0,36,36,36,1,0,1,,,1,FALSE,1.3845,,,,,,,,,,,,,,,,,,,,,,,,,,,,,
,606e22e5312c3b75b4de9c36,001,2022-04-28_21h14.11.190,classification_task,2021.2.3,MacIntel,60.0024001,606e22e5312c3b75b4de9c36,626b377229c10585ec392f8a,626b3b83ff0b7ef5dc450f80,,,,,,,,,,,,,,,,,,,,,,,a,1,"[""0.509"",""0.471"",""0.741"",""0.908""]","[0,1,1,1]",0,37,37,37,1,0,0,,,1,FALSE,1.3821,,,,,,,,,,,,,,,,,,,,,,,,,,,,,
,606e22e5312c3b75b4de9c36,001,2022-04-28_21h14.11.190,classification_task,2021.2.3,MacIntel,60.0024001,606e22e5312c3b75b4de9c36,626b377229c10585ec392f8a,626b3b83ff0b7ef5dc450f80,,,,,,,,,,,,,,,,,,,,,,,l,0,"[""0.166"",""0.334"",""0.856"",""0.509""]","[1,1,1,0]",0,38,38,38,1,0,1,,,1,FALSE,1.1824,,,,,,,,,,,,,,,,,,,,,,,,,,,,,
,606e22e5312c3b75b4de9c36,001,2022-04-28_21h14.11.190,classification_task,2021.2.3,MacIntel,60.0024001,606e22e5312c3b75b4de9c36,626b377229c10585ec392f8a,626b3b83ff0b7ef5dc450f80,,,,,,,,,,,,,,,,,,,,,,,l,1,"[""0.131"",""0.399"",""0.623"",""0.042""]","[1,1,1,0]",0,39,39,39,1,1,0,,,1,FALSE,1.1139,,,,,,,,,,,,,,,,,,,,,,,,,,,,,
,606e22e5312c3b75b4de9c36,001,2022-04-28_21h14.11.190,classification_task,2021.2.3,MacIntel,60.0024001,606e22e5312c3b75b4de9c36,626b377229c10585ec392f8a,626b3b83ff0b7ef5dc450f80,,,,,,,,,,,,,,,,,,,,,,,l,1,"[""0.511"",""0.294"",""0.562"",""0.794""]","[0,1,1,1]",0,40,40,40,1,1,1,,,1,FALSE,1.3802,,,,,,,,,,,,,,,,,,,,,,,,,,,,,
,606e22e5312c3b75b4de9c36,001,2022-04-28_21h14.11.190,classification_task,2021.2.3,MacIntel,60.0024001,606e22e5312c3b75b4de9c36,626b377229c10585ec392f8a,626b3b83ff0b7ef5dc450f80,,,,,,,,,,,,,,,,,,,,,,,l,1,"[""0.250"",""0.399"",""0.623"",""0.692""]","[0,1,1,1]",0,41,41,41,1,1,0,,,1,FALSE,1.5975,,,,,,,,,,,,,,,,,,,,,,,,,,,,,
,606e22e5312c3b75b4de9c36,001,2022-04-28_21h14.11.190,classification_task,2021.2.3,MacIntel,60.0024001,606e22e5312c3b75b4de9c36,626b377229c10585ec392f8a,626b3b83ff0b7ef5dc450f80,,,,,,,,,,,,,,,,,,,,,,,a,0,"[""0.079"",""0.527"",""0.562"",""0.794""]","[1,0,1,1]",0,42,42,42,1,1,1,,,1,FALSE,1.5519,,,,,,,,,,,,,,,,,,,,,,,,,,,,,
,606e22e5312c3b75b4de9c36,001,2022-04-28_21h14.11.190,classification_task,2021.2.3,MacIntel,60.0024001,606e22e5312c3b75b4de9c36,626b377229c10585ec392f8a,626b3b83ff0b7ef5dc450f80,,,,,,,,,,,,,,,,,,,,,,,a,0,"[""0.079"",""0.294"",""0.248"",""0.794""]","[1,1,0,1]",0,43,43,43,1,1,1,,,1,FALSE,1.8486,,,,,,,,,,,,,,,,,,,,,,,,,,,,,
,606e22e5312c3b75b4de9c36,001,2022-04-28_21h14.11.190,classification_task,2021.2.3,MacIntel,60.0024001,606e22e5312c3b75b4de9c36,626b377229c10585ec392f8a,626b3b83ff0b7ef5dc450f80,,,,,,,,,,,,,,,,,,,,,,,a,0,"[""0.131"",""0.527"",""0.623"",""0.692""]","[1,0,1,1]",0,44,44,44,1,1,0,,,1,FALSE,1.5317,,,,,,,,,,,,,,,,,,,,,,,,,,,,,
,606e22e5312c3b75b4de9c36,001,2022-04-28_21h14.11.190,classification_task,2021.2.3,MacIntel,60.0024001,606e22e5312c3b75b4de9c36,626b377229c10585ec392f8a,626b3b83ff0b7ef5dc450f80,,,,,,,,,,,,,,,,,,,,,,,l,0,"[""0.203"",""0.471"",""0.741"",""0.041""]","[1,1,1,0]",0,45,45,45,1,0,0,,,1,FALSE,1.3701,,,,,,,,,,,,,,,,,,,,,,,,,,,,,
,606e22e5312c3b75b4de9c36,001,2022-04-28_21h14.11.190,classification_task,2021.2.3,MacIntel,60.0024001,606e22e5312c3b75b4de9c36,626b377229c10585ec392f8a,626b3b83ff0b7ef5dc450f80,,,,,,,,,,,,,,,,,,,,,,,a,0,"[""0.079"",""0.294"",""0.562"",""0.259""]","[1,1,1,0]",0,46,46,46,1,1,1,,,1,FALSE,1.4492,,,,,,,,,,,,,,,,,,,,,,,,,,,,,
,606e22e5312c3b75b4de9c36,001,2022-04-28_21h14.11.190,classification_task,2021.2.3,MacIntel,60.0024001,606e22e5312c3b75b4de9c36,626b377229c10585ec392f8a,626b3b83ff0b7ef5dc450f80,,,,,,,,,,,,,,,,,,,,,,,l,1,"[""0.131"",""0.399"",""0.250"",""0.692""]","[1,1,0,1]",0,47,47,47,1,1,0,,,1,FALSE,0.9641,,,,,,,,,,,,,,,,,,,,,,,,,,,,,
,606e22e5312c3b75b4de9c36,001,2022-04-28_21h14.11.190,classification_task,2021.2.3,MacIntel,60.0024001,606e22e5312c3b75b4de9c36,626b377229c10585ec392f8a,626b3b83ff0b7ef5dc450f80,,,,,,,,,,,,,,,,,,,,,,,a,0,"[""0.508"",""0.294"",""0.562"",""0.794""]","[0,1,1,1]",0,48,48,48,1,1,1,,,1,FALSE,1.5636,,,,,,,,,,,,,,,,,,,,,,,,,,,,,
,606e22e5312c3b75b4de9c36,001,2022-04-28_21h14.11.190,classification_task,2021.2.3,MacIntel,60.0024001,606e22e5312c3b75b4de9c36,626b377229c10585ec392f8a,626b3b83ff0b7ef5dc450f80,,,,,,,,,,,,,,,,,,,,,,,l,0,"[""0.248"",""0.471"",""0.741"",""0.908""]","[0,1,1,1]",0,49,49,49,1,0,0,,,1,FALSE,0.8632,,,,,,,,,,,,,,,,,,,,,,,,,,,,,
,606e22e5312c3b75b4de9c36,001,2022-04-28_21h14.11.190,classification_task,2021.2.3,MacIntel,60.0024001,606e22e5312c3b75b4de9c36,626b377229c10585ec392f8a,626b3b83ff0b7ef5dc450f80,,,,,,,,,,,,,,,,,,,,,,,l,0,"[""0.203"",""0.037"",""0.741"",""0.908""]","[1,0,1,1]",0,50,50,50,1,0,0,,,1,FALSE,0.997,,,,,,,,,,,,,,,,,,,,,,,,,,,,,
,606e22e5312c3b75b4de9c36,001,2022-04-28_21h14.11.190,classification_task,2021.2.3,MacIntel,60.0024001,606e22e5312c3b75b4de9c36,626b377229c10585ec392f8a,626b3b83ff0b7ef5dc450f80,,,,,,,,,,,,,,,,,,,,,,,l,1,"[""0.131"",""0.399"",""0.037"",""0.692""]","[1,1,0,1]",0,51,51,51,1,1,0,,,1,FALSE,0.9305,,,,,,,,,,,,,,,,,,,,,,,,,,,,,
,606e22e5312c3b75b4de9c36,001,2022-04-28_21h14.11.190,classification_task,2021.2.3,MacIntel,60.0024001,606e22e5312c3b75b4de9c36,626b377229c10585ec392f8a,626b3b83ff0b7ef5dc450f80,,,,,,,,,,,,,,,,,,,,,,,a,1,"[""0.203"",""0.471"",""0.741"",""0.509""]","[1,1,1,0]",0,52,52,52,1,0,0,,,1,FALSE,0.8292,,,,,,,,,,,,,,,,,,,,,,,,,,,,,
,606e22e5312c3b75b4de9c36,001,2022-04-28_21h14.11.190,classification_task,2021.2.3,MacIntel,60.0024001,606e22e5312c3b75b4de9c36,626b377229c10585ec392f8a,626b3b83ff0b7ef5dc450f80,,,,,,,,,,,,,,,,,,,,,,,a,1,"[""0.203"",""0.471"",""0.248"",""0.908""]","[1,1,0,1]",0,53,53,53,1,0,0,,,1,FALSE,1.3481,,,,,,,,,,,,,,,,,,,,,,,,,,,,,
,606e22e5312c3b75b4de9c36,001,2022-04-28_21h14.11.190,classification_task,2021.2.3,MacIntel,60.0024001,606e22e5312c3b75b4de9c36,626b377229c10585ec392f8a,626b3b83ff0b7ef5dc450f80,,,,,,,,,,,,,,,,,,,,,,,a,1,"[""0.166"",""0.248"",""0.856"",""0.949""]","[1,0,1,1]",0,54,54,54,1,0,1,,,1,FALSE,1.119,,,,,,,,,,,,,,,,,,,,,,,,,,,,,
,606e22e5312c3b75b4de9c36,001,2022-04-28_21h14.11.190,classification_task,2021.2.3,MacIntel,60.0024001,606e22e5312c3b75b4de9c36,626b377229c10585ec392f8a,626b3b83ff0b7ef5dc450f80,,,,,,,,,,,,,,,,,,,,,,,l,0,"[""0.166"",""0.334"",""0.856"",""0.523""]","[1,1,1,0]",0,55,55,55,1,0,1,,,1,FALSE,0.7792,,,,,,,,,,,,,,,,,,,,,,,,,,,,,
,606e22e5312c3b75b4de9c36,001,2022-04-28_21h14.11.190,classification_task,2021.2.3,MacIntel,60.0024001,606e22e5312c3b75b4de9c36,626b377229c10585ec392f8a,626b3b83ff0b7ef5dc450f80,,,,,,,,,,,,,,,,,,,,,,,l,1,"[""0.042"",""0.399"",""0.623"",""0.692""]","[0,1,1,1]",0,56,56,56,1,1,0,,,1,FALSE,1.4982,,,,,,,,,,,,,,,,,,,,,,,,,,,,,
,606e22e5312c3b75b4de9c36,001,2022-04-28_21h14.11.190,classification_task,2021.2.3,MacIntel,60.0024001,606e22e5312c3b75b4de9c36,626b377229c10585ec392f8a,626b3b83ff0b7ef5dc450f80,,,,,,,,,,,,,,,,,,,,,,,a,0,"[""0.131"",""0.248"",""0.623"",""0.692""]","[1,0,1,1]",0,57,57,57,1,1,0,,,1,FALSE,0.5706,,,,,,,,,,,,,,,,,,,,,,,,,,,,,
,606e22e5312c3b75b4de9c36,001,2022-04-28_21h14.11.190,classification_task,2021.2.3,MacIntel,60.0024001,606e22e5312c3b75b4de9c36,626b377229c10585ec392f8a,626b3b83ff0b7ef5dc450f80,,,,,,,,,,,,,,,,,,,,,,,l,1,"[""0.079"",""0.294"",""0.511"",""0.794""]","[1,1,0,1]",0,58,58,58,1,1,1,,,1,FALSE,0.9461,,,,,,,,,,,,,,,,,,,,,,,,,,,,,
,606e22e5312c3b75b4de9c36,001,2022-04-28_21h14.11.190,classification_task,2021.2.3,MacIntel,60.0024001,606e22e5312c3b75b4de9c36,626b377229c10585ec392f8a,626b3b83ff0b7ef5dc450f80,,,,,,,,,,,,,,,,,,,,,,,l,0,"[""0.042"",""0.334"",""0.856"",""0.949""]","[0,1,1,1]",0,59,59,59,1,0,1,,,1,FALSE,0.6811,,,,,,,,,,,,,,,,,,,,,,,,,,,,,
,606e22e5312c3b75b4de9c36,001,2022-04-28_21h14.11.190,classification_task,2021.2.3,MacIntel,60.0024001,606e22e5312c3b75b4de9c36,626b377229c10585ec392f8a,626b3b83ff0b7ef5dc450f80,,,,,,,,,,,,,,,,,,,,,,,a,0,"[""0.079"",""0.294"",""0.562"",""0.509""]","[1,1,1,0]",0,60,60,60,1,1,1,,,1,FALSE,1.2799,,,,,,,,,,,,,,,,,,,,,,,,,,,,,
,606e22e5312c3b75b4de9c36,001,2022-04-28_21h14.11.190,classification_task,2021.2.3,MacIntel,60.0024001,606e22e5312c3b75b4de9c36,626b377229c10585ec392f8a,626b3b83ff0b7ef5dc450f80,,,,,,,,,,,,,,,,,,,,,,,l,0,"[""0.166"",""0.334"",""0.511"",""0.949""]","[1,1,0,1]",0,61,61,61,1,0,1,,,1,FALSE,0.8337,,,,,,,,,,,,,,,,,,,,,,,,,,,,,
,606e22e5312c3b75b4de9c36,001,2022-04-28_21h14.11.190,classification_task,2021.2.3,MacIntel,60.0024001,606e22e5312c3b75b4de9c36,626b377229c10585ec392f8a,626b3b83ff0b7ef5dc450f80,,,,,,,,,,,,,,,,,,,,,,,a,0,"[""0.079"",""0.517"",""0.562"",""0.794""]","[1,0,1,1]",0,62,62,62,1,1,1,,,1,FALSE,1.9469,,,,,,,,,,,,,,,,,,,,,,,,,,,,,
,606e22e5312c3b75b4de9c36,001,2022-04-28_21h14.11.190,classification_task,2021.2.3,MacIntel,60.0024001,606e22e5312c3b75b4de9c36,626b377229c10585ec392f8a,626b3b83ff0b7ef5dc450f80,,,,,,,,,,,,,,,,,,,,,,,l,1,"[""0.131"",""0.399"",""0.623"",""0.259""]","[1,1,1,0]",0,63,63,63,1,1,0,,,1,FALSE,1.3185,,,,,,,,,,,,,,,,,,,,,,,,,,,,,
,606e22e5312c3b75b4de9c36,001,2022-04-28_21h14.11.190,classification_task,2021.2.3,MacIntel,60.0024001,606e22e5312c3b75b4de9c36,626b377229c10585ec392f8a,626b3b83ff0b7ef5dc450f80,,,,,,,,,,,,,,,,,,,,,,,,,,,,,,,,,,,,,,,0, ,,0,2.457378013,168.3759,0,2,2,2,1,2,3,,,,,,,,,,,,,,,,
,606e22e5312c3b75b4de9c36,001,2022-04-28_21h14.11.190,classification_task,2021.2.3,MacIntel,60.0024001,606e22e5312c3b75b4de9c36,626b377229c10585ec392f8a,626b3b83ff0b7ef5dc450f80,,,,,,,,,,,,,,,,,,,,,,,,,,,,,,,,,,,,,,,1,  ,,0,4.550356408,170.3751,0,2,2,2,1,2,3,,,,,,,,,,,,,,,,
,606e22e5312c3b75b4de9c36,001,2022-04-28_21h14.11.190,classification_task,2021.2.3,MacIntel,60.0024001,606e22e5312c3b75b4de9c36,626b377229c10585ec392f8a,626b3b83ff0b7ef5dc450f80,,,,,,,,,,,,,,,,,,,,,,,,,,,,,,,,,,,,,,,2,  ,,0,0.654670047,172.2256,0,2,2,2,1,2,3,,,,,,,,,,,,,,,,
,606e22e5312c3b75b4de9c36,001,2022-04-28_21h14.11.190,classification_task,2021.2.3,MacIntel,60.0024001,606e22e5312c3b75b4de9c36,626b377229c10585ec392f8a,626b3b83ff0b7ef5dc450f80,,,,,,,,,,,,,,,,,,,,,,,,,,,,,,,,,,,,,,,,,,,,,0,2,2,2,1,,3,,,,,,,,,,,,,,,,
,606e22e5312c3b75b4de9c36,001,2022-04-28_21h14.11.190,classification_task,2021.2.3,MacIntel,60.0024001,606e22e5312c3b75b4de9c36,626b377229c10585ec392f8a,626b3b83ff0b7ef5dc450f80,,,,,,,,,,,,,,,,,,,,,,,,,,,,,,,,,,,,,,,,,,,,,,,,,,,,,I believe the aid is a competent performer,,0.7,0,3,773.8963,0,0,0,0,1,0,,,
,606e22e5312c3b75b4de9c36,001,2022-04-28_21h14.11.190,classification_task,2021.2.3,MacIntel,60.0024001,606e22e5312c3b75b4de9c36,626b377229c10585ec392f8a,626b3b83ff0b7ef5dc450f80,,,,,,,,,,,,,,,,,,,,,,,,,,,,,,,,,,,,,,,,,,,,,,,,,,,,,I trust the aid,,0.7,0,5,778.0485,0,0,0,0,1,0,,,
,606e22e5312c3b75b4de9c36,001,2022-04-28_21h14.11.190,classification_task,2021.2.3,MacIntel,60.0024001,606e22e5312c3b75b4de9c36,626b377229c10585ec392f8a,626b3b83ff0b7ef5dc450f80,,,,,,,,,,,,,,,,,,,,,,,,,,,,,,,,,,,,,,,,,,,,,,,,,,,,,I have confidence in the advice given by the aid,,0.7,0,5,780.2189,0,0,0,0,1,0,,,
,606e22e5312c3b75b4de9c36,001,2022-04-28_21h14.11.190,classification_task,2021.2.3,MacIntel,60.0024001,606e22e5312c3b75b4de9c36,626b377229c10585ec392f8a,626b3b83ff0b7ef5dc450f80,,,,,,,,,,,,,,,,,,,,,,,,,,,,,,,,,,,,,,,,,,,,,,,,,,,,,I can depend on the aid,,0.7,0,5,782.8513,0,0,0,0,1,0,,,
,606e22e5312c3b75b4de9c36,001,2022-04-28_21h14.11.190,classification_task,2021.2.3,MacIntel,60.0024001,606e22e5312c3b75b4de9c36,626b377229c10585ec392f8a,626b3b83ff0b7ef5dc450f80,,,,,,,,,,,,,,,,,,,,,,,,,,,,,,,,,,,,,,,,,,,,,,,,,,,,,I can rely on the aid to behave in consistent ways,,0.7,0,5,785.5521,0,0,0,0,1,0,,,
,606e22e5312c3b75b4de9c36,001,2022-04-28_21h14.11.190,classification_task,2021.2.3,MacIntel,60.0024001,606e22e5312c3b75b4de9c36,626b377229c10585ec392f8a,626b3b83ff0b7ef5dc450f80,,,,,,,,,,,,,,,,,,,,,,,,,,,,,,,,,,,,,,,,,,,,,,,,,,,,,I can rely on the aid to do its best every time I take its advice,,0.7,0,5,787.435,0,0,0,0,1,0,,,
,606e22e5312c3b75b4de9c36,001,2022-04-28_21h14.11.190,classification_task,2021.2.3,MacIntel,60.0024001,606e22e5312c3b75b4de9c36,626b377229c10585ec392f8a,626b3b83ff0b7ef5dc450f80,,,,,,,,,,,,,,,,,,,,,,,,,,,,,,,,,,,,,,,,,,,,,,,,,,,,,"On trials you completed with assistance from the aid, how frequently did you think the aid was correct?",,0.7,0,31%,,0,0,0,0,1,0,,,
,606e22e5312c3b75b4de9c36,001,2022-04-28_21h14.11.190,classification_task,2021.2.3,MacIntel,60.0024001,606e22e5312c3b75b4de9c36,626b377229c10585ec392f8a,626b3b83ff0b7ef5dc450f80,,,,,,,,,,,,,,,,,,,,,,,,,,,,,,,,,,,,,,,,,,,,,,,,,,,,,"On trials you completed without the aid, how frequently did you think you were correct?",,0.7,0,30%,,0,0,0,0,1,0,,,
,606e22e5312c3b75b4de9c36,001,2022-04-28_21h14.11.190,classification_task,2021.2.3,MacIntel,60.0024001,606e22e5312c3b75b4de9c36,626b377229c10585ec392f8a,626b3b83ff0b7ef5dc450f80,,,,,,,,,,,,,,,,,,,,,,,,,,,,,,,,,,,,,,,,,,,,,,,,,,,,,,,,,,,0,0,0,0,1,,,,
,606e22e5312c3b75b4de9c36,001,2022-04-28_21h14.11.190,classification_task,2021.2.3,MacIntel,60.0024001,606e22e5312c3b75b4de9c36,626b377229c10585ec392f8a,626b3b83ff0b7ef5dc450f80,,,,,,,,,,,,,,,,,,,,,,,,,,,,,,,,,,,,,,,,,,,,,,,,,,,,,,,,,,,,,,,,,,928.8908,
,606e22e5312c3b75b4de9c36,001,2022-04-28_21h14.11.190,classification_task,2021.2.3,MacIntel,60.0024001,606e22e5312c3b75b4de9c36,626b377229c10585ec392f8a,626b3b83ff0b7ef5dc450f80,,,,,,,,,,,,,,,,,,,,,,,,,,,,,,,,,,,,,,,,,,,,,,,,,,,,,,,,,,,,,,,,,,,"Mozilla/5.0 (Macintosh; Intel Mac OS X 10_15_7) AppleWebKit/537.36 (KHTML, like Gecko) Chrome/100.0.4896.127 Safari/537.36"
